,trial,coherence,coherence_bin,green_side,correct_side,target_onset,checker_onset,decision,green_decision,decision_time,correct_decision
0,0,-0.6168642130836388,-0.6,1.0,0.0,321.0,780.0,0.0,0,109.0,1
1,1,0.4601472205262972,0.5,0.0,0.0,385.0,896.0,0.0,1,469.0,1
2,2,-0.569682794800681,-0.6,1.0,0.0,421.0,712.0,0.0,0,257.0,1
3,3,0.006830032391200058,0.0,0.0,0.0,274.0,533.0,0.0,1,663.0,1
4,4,0.5871942354969452,0.6,1.0,1.0,311.0,630.0,1.0,1,239.0,1
5,5,0.8781046969259009,0.9,0.0,0.0,467.0,921.0,0.0,1,142.0,1
6,6,0.7395313346912024,0.7,1.0,1.0,444.0,892.0,1.0,1,114.0,1
7,7,-0.6286224207691197,-0.6,1.0,0.0,431.0,732.0,0.0,0,127.0,1
8,8,0.4558127467857621,0.5,0.0,0.0,353.0,548.0,0.0,1,599.0,1
9,9,-0.6997562886225981,-0.7,0.0,1.0,488.0,763.0,1.0,0,89.0,1
10,10,0.35230029616950886,0.4,1.0,1.0,351.0,926.0,1.0,1,73.0,1
11,11,0.022058032197861843,0.0,1.0,1.0,262.0,573.0,0.0,0,555.0,0
12,12,-0.49531838283510093,-0.5,0.0,1.0,284.0,587.0,1.0,0,129.0,1
13,13,-0.7513393446619357,-0.8,1.0,0.0,326.0,742.0,0.0,0,292.0,1
14,14,-0.32219657024588333,-0.3,0.0,1.0,313.0,824.0,1.0,0,203.0,1
15,15,0.12003953062341866,0.1,0.0,0.0,481.0,713.0,0.0,1,606.0,1
16,16,0.47879494907387243,0.5,0.0,0.0,350.0,668.0,0.0,1,402.0,1
17,17,-0.10695500902459532,-0.1,0.0,1.0,262.0,957.0,1.0,0,331.0,1
18,18,-0.26549257826803196,-0.3,1.0,0.0,255.0,558.0,0.0,0,697.0,1
19,19,-0.6977643796393695,-0.7,1.0,0.0,393.0,783.0,0.0,0,214.0,1
20,20,-0.691820379248134,-0.7,1.0,0.0,363.0,625.0,0.0,0,102.0,1
21,21,0.10629536196631884,0.1,1.0,1.0,352.0,627.0,1.0,1,421.0,1
22,22,-0.48939388508008613,-0.5,1.0,0.0,421.0,751.0,0.0,0,278.0,1
23,23,0.18261187382285626,0.2,1.0,1.0,283.0,709.0,1.0,1,298.0,1
24,24,0.29336823472576656,0.3,1.0,1.0,350.0,908.0,1.0,1,142.0,1
25,25,-0.595585504815934,-0.6,0.0,1.0,313.0,978.0,1.0,0,129.0,1
26,26,-0.13156960412975105,-0.1,1.0,0.0,471.0,967.0,1.0,1,12.0,0
27,27,-0.31355994654672203,-0.3,1.0,0.0,364.0,780.0,0.0,0,826.0,1
28,28,0.4765292631915098,0.5,0.0,0.0,402.0,870.0,0.0,1,268.0,1
29,29,-0.6663443931902159,-0.7,0.0,1.0,386.0,558.0,1.0,0,196.0,1
30,30,-0.5024866343308789,-0.5,0.0,1.0,495.0,953.0,1.0,0,122.0,1
31,31,0.2713814032712393,0.3,0.0,0.0,407.0,816.0,0.0,1,767.0,1
32,32,-0.8398792785919131,-0.8,0.0,1.0,489.0,722.0,1.0,0,129.0,1
33,33,0.1598649017219399,0.2,1.0,1.0,288.0,953.0,1.0,1,219.0,1
34,34,0.1382449660076298,0.1,1.0,1.0,471.0,841.0,1.0,1,718.0,1
35,35,-0.6135308665005211,-0.6,1.0,0.0,334.0,711.0,0.0,0,245.0,1
36,36,0.21739722551816076,0.2,1.0,1.0,255.0,578.0,1.0,1,577.0,1
37,37,0.611740516457887,0.6,1.0,1.0,452.0,755.0,1.0,1,153.0,1
38,38,-0.6158510344854581,-0.6,1.0,0.0,491.0,543.0,0.0,0,316.0,1
39,39,0.0576800959717112,0.1,0.0,0.0,443.0,546.0,0.0,1,471.0,1
40,40,-0.8041239959836344,-0.8,1.0,0.0,391.0,963.0,0.0,0,36.0,1
41,41,0.10598367257690844,0.1,0.0,0.0,333.0,919.0,0.0,1,1158.0,1
42,42,-0.6834867372203326,-0.7,0.0,1.0,495.0,810.0,1.0,0,65.0,1
43,43,0.26070006652585753,0.3,0.0,0.0,362.0,697.0,0.0,1,171.0,1
44,44,-0.7896756997596869,-0.8,1.0,0.0,466.0,723.0,0.0,0,211.0,1
45,45,0.23834331002279663,0.2,0.0,0.0,319.0,648.0,0.0,1,243.0,1
46,46,0.05947665754669684,0.1,0.0,0.0,457.0,644.0,0.0,1,1459.0,1
47,47,-0.5924244839458634,-0.6,0.0,1.0,272.0,782.0,1.0,0,396.0,1
48,48,-0.8168038622478478,-0.8,1.0,0.0,499.0,694.0,0.0,0,237.0,1
49,49,-0.17050566993694405,-0.2,0.0,1.0,257.0,979.0,1.0,0,144.0,1
50,50,0.3538860940647558,0.4,0.0,0.0,409.0,584.0,0.0,1,617.0,1
51,51,0.645338503113032,0.6,1.0,1.0,270.0,725.0,1.0,1,255.0,1
52,52,0.09914764735095527,0.1,1.0,1.0,314.0,664.0,1.0,1,612.0,1
53,53,-0.6752349883154626,-0.7,0.0,1.0,251.0,908.0,1.0,0,161.0,1
54,54,0.042057111036719386,0.0,0.0,0.0,295.0,605.0,0.0,1,2500.0,1
55,55,-0.11707031274449564,-0.1,0.0,1.0,309.0,928.0,1.0,0,373.0,1
56,56,-0.6655217872000444,-0.7,1.0,0.0,316.0,607.0,0.0,0,237.0,1
57,57,-0.1177746573141859,-0.1,1.0,0.0,436.0,979.0,1.0,1,195.0,0
58,58,-0.5741745615905134,-0.6,1.0,0.0,475.0,619.0,0.0,0,366.0,1
59,59,-0.6907656339767968,-0.7,1.0,0.0,328.0,593.0,0.0,0,279.0,1
60,60,0.5700204795695064,0.6,1.0,1.0,481.0,558.0,1.0,1,241.0,1
61,61,0.1491989423561536,0.1,1.0,1.0,456.0,513.0,1.0,1,361.0,1
62,62,-0.43203467466542755,-0.4,0.0,1.0,378.0,538.0,1.0,0,94.0,1
63,63,0.4444026369982791,0.4,0.0,0.0,430.0,843.0,0.0,1,287.0,1
64,64,-0.0023677164549275043,-0.0,0.0,1.0,399.0,795.0,1.0,0,86.0,1
65,65,-0.38681888179384105,-0.4,1.0,0.0,260.0,797.0,0.0,0,483.0,1
66,66,0.3906596796154632,0.4,1.0,1.0,417.0,698.0,1.0,1,205.0,1
67,67,-0.09422699514703714,-0.1,0.0,1.0,422.0,953.0,1.0,0,55.0,1
68,68,0.1885430906511839,0.2,1.0,1.0,459.0,822.0,1.0,1,549.0,1
69,69,-0.3863721892573001,-0.4,0.0,1.0,324.0,781.0,1.0,0,95.0,1
70,70,0.8737654878873612,0.9,1.0,1.0,261.0,668.0,1.0,1,121.0,1
71,71,0.7200140868499109,0.7,0.0,0.0,345.0,874.0,0.0,1,151.0,1
72,72,-0.63785224041822,-0.6,1.0,0.0,447.0,545.0,0.0,0,318.0,1
73,73,-0.6507326248728428,-0.7,1.0,0.0,425.0,642.0,0.0,0,403.0,1
74,74,-0.32455396253062574,-0.3,1.0,0.0,423.0,540.0,0.0,0,797.0,1
75,75,-0.7037302765854905,-0.7,0.0,1.0,492.0,889.0,1.0,0,89.0,1
76,76,0.6572019665571601,0.7,0.0,0.0,444.0,883.0,0.0,1,153.0,1
77,77,0.3284542356666954,0.3,1.0,1.0,405.0,588.0,1.0,1,267.0,1
78,78,-0.8209752712462524,-0.8,1.0,0.0,427.0,920.0,0.0,0,133.0,1
79,79,0.1538527070255059,0.2,0.0,0.0,352.0,657.0,0.0,1,741.0,1
80,80,-0.2568504522868995,-0.3,1.0,0.0,369.0,738.0,0.0,0,503.0,1
81,81,0.4746805104295969,0.5,1.0,1.0,370.0,893.0,1.0,1,207.0,1
82,82,-0.062253625638799104,-0.1,1.0,0.0,287.0,908.0,1.0,1,175.0,0
83,83,0.5730362966592663,0.6,1.0,1.0,406.0,940.0,1.0,1,44.0,1
84,84,0.1564442753594032,0.2,0.0,0.0,341.0,537.0,1.0,0,172.0,0
85,85,0.4927076568184986,0.5,0.0,0.0,442.0,730.0,0.0,1,478.0,1
86,86,0.6558498861246026,0.7,0.0,0.0,360.0,643.0,0.0,1,127.0,1
87,87,0.4508071280750533,0.5,0.0,0.0,477.0,943.0,0.0,1,400.0,1
88,88,0.5290447573027556,0.5,0.0,0.0,377.0,970.0,0.0,1,203.0,1
89,89,-0.400354859312785,-0.4,1.0,0.0,373.0,678.0,0.0,0,629.0,1
90,90,-0.8949403132736621,-0.9,1.0,0.0,493.0,870.0,0.0,0,147.0,1
91,91,0.5256796256814552,0.5,0.0,0.0,325.0,590.0,0.0,1,525.0,1
92,92,-0.6573553137343249,-0.7,0.0,1.0,307.0,628.0,1.0,0,185.0,1
93,93,0.4333796543524949,0.4,1.0,1.0,283.0,585.0,1.0,1,72.0,1
94,94,0.3226428919216594,0.3,1.0,1.0,458.0,506.0,1.0,1,296.0,1
95,95,-0.3290313743764489,-0.3,0.0,1.0,325.0,831.0,1.0,0,314.0,1
96,96,-0.2254747542167026,-0.2,0.0,1.0,274.0,773.0,1.0,0,803.0,1
97,97,0.311668980628398,0.3,1.0,1.0,376.0,577.0,1.0,1,477.0,1
98,98,0.7577037788805198,0.8,1.0,1.0,262.0,929.0,1.0,1,99.0,1
99,99,0.8009363115239637,0.8,0.0,0.0,362.0,559.0,0.0,1,229.0,1
100,100,0.4525084482905771,0.5,1.0,1.0,347.0,914.0,1.0,1,189.0,1
101,101,0.7062733379266123,0.7,0.0,0.0,460.0,603.0,0.0,1,297.0,1
102,102,-0.3935677607707939,-0.4,0.0,1.0,479.0,709.0,1.0,0,402.0,1
103,103,-0.8264705062180187,-0.8,0.0,1.0,314.0,896.0,1.0,0,140.0,1
104,104,-0.694154111479796,-0.7,1.0,0.0,447.0,904.0,0.0,0,189.0,1
105,105,0.024558452102712125,0.0,1.0,1.0,453.0,769.0,1.0,1,708.0,1
106,106,0.5636069882453872,0.6,1.0,1.0,346.0,523.0,1.0,1,391.0,1
107,107,-0.7279744003568762,-0.7,0.0,1.0,392.0,847.0,1.0,0,71.0,1
108,108,0.5889266493547626,0.6,0.0,0.0,397.0,840.0,0.0,1,253.0,1
109,109,-0.7949737514861546,-0.8,1.0,0.0,302.0,765.0,0.0,0,143.0,1
110,110,-0.2280088529122044,-0.2,0.0,1.0,460.0,842.0,1.0,0,528.0,1
111,111,0.09968013676068554,0.1,0.0,0.0,435.0,672.0,0.0,1,1493.0,1
112,112,-0.18645668302717555,-0.2,1.0,0.0,272.0,637.0,0.0,0,1191.0,1
113,113,0.8495056362120837,0.8,1.0,1.0,331.0,919.0,1.0,1,180.0,1
114,114,0.6066881788999502,0.6,1.0,1.0,294.0,985.0,1.0,1,91.0,1
115,115,0.29019059054813,0.3,1.0,1.0,252.0,914.0,1.0,1,284.0,1
116,116,-0.6654287614408159,-0.7,1.0,0.0,255.0,837.0,0.0,0,208.0,1
117,117,0.34105350404735424,0.3,1.0,1.0,306.0,832.0,1.0,1,232.0,1
118,118,0.8866508614057734,0.9,1.0,1.0,386.0,661.0,1.0,1,183.0,1
119,119,-0.19848864051311355,-0.2,0.0,1.0,272.0,716.0,1.0,0,712.0,1
120,120,-0.5616535739071336,-0.6,1.0,0.0,299.0,708.0,0.0,0,393.0,1
121,121,0.6898082400759539,0.7,0.0,0.0,288.0,915.0,0.0,1,157.0,1
122,122,0.13554694598841965,0.1,0.0,0.0,464.0,660.0,0.0,1,1136.0,1
123,123,-0.721970665392347,-0.7,0.0,1.0,329.0,784.0,1.0,0,127.0,1
124,124,0.6124161493212542,0.6,0.0,0.0,255.0,606.0,0.0,1,369.0,1
125,125,-0.7524142717428975,-0.8,0.0,1.0,301.0,508.0,1.0,0,171.0,1
126,126,0.3492271822616332,0.3,0.0,0.0,492.0,941.0,0.0,1,717.0,1
127,127,-0.5962371686463201,-0.6,1.0,0.0,280.0,591.0,0.0,0,209.0,1
128,128,-0.5721572802641837,-0.6,1.0,0.0,407.0,697.0,0.0,0,136.0,1
129,129,-0.354750595113407,-0.4,0.0,1.0,320.0,649.0,1.0,0,371.0,1
130,130,0.7348632789067143,0.7,0.0,0.0,408.0,674.0,0.0,1,278.0,1
131,131,0.5860677037859278,0.6,1.0,1.0,378.0,589.0,1.0,1,333.0,1
132,132,0.20217701616225592,0.2,0.0,0.0,341.0,786.0,0.0,1,473.0,1
133,133,-0.21925202922689846,-0.2,1.0,0.0,498.0,914.0,0.0,0,268.0,1
134,134,-0.5036009151581908,-0.5,0.0,1.0,398.0,994.0,1.0,0,68.0,1
135,135,-0.08236243267050747,-0.1,1.0,0.0,419.0,712.0,0.0,0,689.0,1
136,136,0.7015612668846528,0.7,1.0,1.0,462.0,875.0,1.0,1,63.0,1
137,137,0.28715058321918263,0.3,1.0,1.0,326.0,683.0,1.0,1,571.0,1
138,138,-0.28465230622399684,-0.3,0.0,1.0,384.0,869.0,1.0,0,1007.0,1
139,139,-0.23542729339045587,-0.2,1.0,0.0,441.0,518.0,0.0,0,561.0,1
140,140,-0.1730292967963446,-0.2,1.0,0.0,307.0,784.0,0.0,0,299.0,1
141,141,-0.2514884305334677,-0.3,0.0,1.0,484.0,936.0,1.0,0,780.0,1
142,142,0.8931768747276593,0.9,1.0,1.0,250.0,869.0,1.0,1,61.0,1
143,143,0.8835495774492438,0.9,0.0,0.0,478.0,911.0,0.0,1,201.0,1
144,144,-0.3786025201973636,-0.4,1.0,0.0,448.0,972.0,0.0,0,170.0,1
145,145,0.42616367456668536,0.4,0.0,0.0,445.0,844.0,0.0,1,711.0,1
146,146,0.061300590735898886,0.1,1.0,1.0,357.0,842.0,1.0,1,61.0,1
147,147,-0.6171748716224261,-0.6,1.0,0.0,424.0,928.0,0.0,0,138.0,1
148,148,-0.5515419042090774,-0.6,1.0,0.0,483.0,815.0,0.0,0,232.0,1
149,149,0.5194251160840745,0.5,1.0,1.0,496.0,979.0,1.0,1,165.0,1
150,150,-0.09096315983033199,-0.1,0.0,1.0,314.0,841.0,0.0,1,335.0,0
151,151,0.33141821292911844,0.3,1.0,1.0,342.0,913.0,1.0,1,535.0,1
152,152,0.6570032030776188,0.7,1.0,1.0,297.0,610.0,1.0,1,13.0,1
153,153,0.5004154673663049,0.5,1.0,1.0,364.0,939.0,1.0,1,77.0,1
154,154,0.2607385516501063,0.3,1.0,1.0,404.0,510.0,1.0,1,286.0,1
155,155,0.21925083336178408,0.2,1.0,1.0,485.0,566.0,1.0,1,149.0,1
156,156,0.12573853005145164,0.1,0.0,0.0,446.0,719.0,1.0,0,235.0,0
157,157,-0.4761198278603355,-0.5,1.0,0.0,371.0,658.0,0.0,0,231.0,1
158,158,0.41823039461136025,0.4,1.0,1.0,330.0,912.0,1.0,1,598.0,1
159,159,0.8608076609069507,0.9,1.0,1.0,342.0,602.0,1.0,1,246.0,1
160,160,-0.2979812817169927,-0.3,1.0,0.0,479.0,728.0,0.0,0,613.0,1
161,161,-0.2892021101421407,-0.3,0.0,1.0,391.0,770.0,1.0,0,99.0,1
162,162,-0.6020949832054728,-0.6,1.0,0.0,468.0,922.0,0.0,0,180.0,1
163,163,0.027111223566959053,0.0,0.0,0.0,420.0,749.0,1.0,0,141.0,0
164,164,0.6791122125519647,0.7,1.0,1.0,467.0,515.0,1.0,1,188.0,1
165,165,-0.27102085827832434,-0.3,1.0,0.0,342.0,674.0,1.0,1,54.0,0
166,166,0.13917276767835507,0.1,0.0,0.0,312.0,508.0,0.0,1,1010.0,1
167,167,-0.6682984962826906,-0.7,1.0,0.0,400.0,766.0,0.0,0,284.0,1
168,168,0.7167731163848855,0.7,0.0,0.0,356.0,528.0,0.0,1,496.0,1
169,169,0.1778786555484676,0.2,0.0,0.0,350.0,637.0,0.0,1,1403.0,1
170,170,-0.21867059062022998,-0.2,0.0,1.0,263.0,776.0,1.0,0,771.0,1
171,171,0.13961639877759036,0.1,1.0,1.0,404.0,975.0,1.0,1,581.0,1
172,172,0.5404861191643758,0.5,1.0,1.0,422.0,584.0,1.0,1,274.0,1
173,173,-0.3654934044920154,-0.4,1.0,0.0,422.0,813.0,0.0,0,425.0,1
174,174,-0.5309825195527154,-0.5,1.0,0.0,296.0,607.0,0.0,0,687.0,1
175,175,0.1835623910261327,0.2,0.0,0.0,482.0,510.0,0.0,1,1788.0,1
176,176,-0.784081264079103,-0.8,1.0,0.0,278.0,699.0,0.0,0,233.0,1
177,177,0.4649496125432798,0.5,0.0,0.0,348.0,896.0,0.0,1,156.0,1
178,178,0.4658529511183963,0.5,1.0,1.0,264.0,804.0,1.0,1,142.0,1
179,179,-0.2842466973966219,-0.3,1.0,0.0,270.0,591.0,0.0,0,219.0,1
180,180,-0.33339508774984905,-0.3,1.0,0.0,417.0,795.0,0.0,0,208.0,1
181,181,0.886785705794867,0.9,0.0,0.0,387.0,649.0,0.0,1,204.0,1
182,182,0.8582624452894246,0.9,1.0,1.0,462.0,832.0,1.0,1,246.0,1
183,183,0.604656005584871,0.6,1.0,1.0,470.0,585.0,1.0,1,185.0,1
184,184,-0.3278677725270698,-0.3,0.0,1.0,303.0,858.0,1.0,0,69.0,1
185,185,-0.06193590966863405,-0.1,1.0,0.0,287.0,580.0,0.0,0,233.0,1
186,186,-0.3226959999486181,-0.3,1.0,0.0,262.0,865.0,0.0,0,303.0,1
187,187,-0.6671292893254983,-0.7,0.0,1.0,279.0,677.0,1.0,0,234.0,1
188,188,-0.6329749153479087,-0.6,0.0,1.0,326.0,817.0,1.0,0,117.0,1
189,189,-0.4307615402016115,-0.4,1.0,0.0,284.0,957.0,0.0,0,629.0,1
190,190,-0.39936450767604725,-0.4,1.0,0.0,378.0,999.0,0.0,0,113.0,1
191,191,0.025166964011379522,0.0,1.0,1.0,480.0,846.0,1.0,1,764.0,1
192,192,0.7883778975370587,0.8,1.0,1.0,264.0,581.0,1.0,1,275.0,1
193,193,0.5785367525726285,0.6,0.0,0.0,364.0,931.0,0.0,1,175.0,1
194,194,0.23568389651597788,0.2,1.0,1.0,371.0,687.0,1.0,1,392.0,1
195,195,-0.6327311838230725,-0.6,1.0,0.0,472.0,565.0,0.0,0,353.0,1
196,196,0.10638581403780167,0.1,1.0,1.0,483.0,998.0,1.0,1,119.0,1
197,197,-0.4633719251689729,-0.5,1.0,0.0,363.0,562.0,0.0,0,685.0,1
198,198,0.6462957100059764,0.6,0.0,0.0,298.0,865.0,0.0,1,107.0,1
199,199,0.8658963756154546,0.9,1.0,1.0,456.0,727.0,1.0,1,277.0,1
200,200,0.8067520655799508,0.8,0.0,0.0,382.0,823.0,0.0,1,315.0,1
201,201,0.039810129425466356,0.0,1.0,1.0,361.0,856.0,1.0,1,173.0,1
202,202,0.5555708558054083,0.6,1.0,1.0,449.0,974.0,1.0,1,27.0,1
203,203,0.6855944120370906,0.7,1.0,1.0,451.0,819.0,1.0,1,260.0,1
204,204,0.1415758810175093,0.1,0.0,0.0,364.0,993.0,0.0,1,593.0,1
205,205,-0.7337997552431234,-0.7,1.0,0.0,305.0,706.0,0.0,0,139.0,1
206,206,0.39319610812270456,0.4,1.0,1.0,333.0,800.0,1.0,1,187.0,1
207,207,-0.07406302600127335,-0.1,0.0,1.0,329.0,839.0,1.0,0,1372.0,1
208,208,-0.1350833083153119,-0.1,1.0,0.0,366.0,926.0,0.0,0,148.0,1
209,209,-0.4582693363785652,-0.5,0.0,1.0,480.0,950.0,1.0,0,180.0,1
210,210,0.5834548329646659,0.6,0.0,0.0,407.0,951.0,0.0,1,212.0,1
211,211,0.3127081919556819,0.3,1.0,1.0,380.0,826.0,1.0,1,214.0,1
212,212,-0.2575541791745978,-0.3,1.0,0.0,410.0,884.0,0.0,0,186.0,1
213,213,-0.08841501439685162,-0.1,0.0,1.0,497.0,834.0,1.0,0,749.0,1
214,214,-0.6850514193099319,-0.7,0.0,1.0,314.0,928.0,1.0,0,38.0,1
215,215,-0.4104403050828384,-0.4,1.0,0.0,330.0,858.0,0.0,0,532.0,1
216,216,0.8737482803082576,0.9,1.0,1.0,366.0,895.0,1.0,1,59.0,1
217,217,0.612766485936998,0.6,0.0,0.0,329.0,959.0,0.0,1,412.0,1
218,218,-0.7430701034235948,-0.7,1.0,0.0,399.0,643.0,0.0,0,108.0,1
219,219,0.4250718367607743,0.4,0.0,0.0,422.0,526.0,0.0,1,362.0,1
220,220,-0.5785159325409408,-0.6,0.0,1.0,445.0,797.0,1.0,0,188.0,1
221,221,-0.7341502904751148,-0.7,0.0,1.0,463.0,526.0,1.0,0,241.0,1
222,222,0.1506105528048115,0.2,0.0,0.0,282.0,524.0,0.0,1,764.0,1
223,223,0.617708132419657,0.6,1.0,1.0,273.0,837.0,1.0,1,110.0,1
224,224,-0.8010523093307055,-0.8,1.0,0.0,376.0,680.0,0.0,0,464.0,1
225,225,-0.32301170806478297,-0.3,1.0,0.0,494.0,744.0,0.0,0,282.0,1
226,226,-0.3868067237757836,-0.4,1.0,0.0,330.0,543.0,0.0,0,257.0,1
227,227,0.5136406139696638,0.5,0.0,0.0,292.0,637.0,0.0,1,421.0,1
228,228,0.8681201385715495,0.9,0.0,0.0,315.0,763.0,0.0,1,112.0,1
229,229,-0.4650903267520406,-0.5,0.0,1.0,366.0,769.0,1.0,0,375.0,1
230,230,-0.031429201792325556,-0.0,1.0,0.0,348.0,892.0,1.0,1,190.0,0
231,231,-0.4834461211615327,-0.5,1.0,0.0,267.0,637.0,0.0,0,186.0,1
232,232,-0.2945779025384492,-0.3,1.0,0.0,407.0,550.0,0.0,0,673.0,1
233,233,-0.7046066990222322,-0.7,0.0,1.0,333.0,695.0,1.0,0,212.0,1
234,234,-0.029781486156708947,-0.0,0.0,1.0,370.0,793.0,0.0,1,957.0,0
235,235,-0.6738632974409259,-0.7,0.0,1.0,459.0,615.0,1.0,0,156.0,1
236,236,-0.8975117991465285,-0.9,0.0,1.0,351.0,697.0,1.0,0,242.0,1
237,237,0.12296603533053208,0.1,0.0,0.0,384.0,791.0,0.0,1,415.0,1
238,238,-0.21154294667890228,-0.2,0.0,1.0,492.0,534.0,1.0,0,314.0,1
239,239,0.25262068998613996,0.3,0.0,0.0,302.0,732.0,0.0,1,466.0,1
240,240,-0.4224616187804861,-0.4,1.0,0.0,275.0,966.0,0.0,0,199.0,1
241,241,0.752996752803241,0.8,1.0,1.0,380.0,550.0,1.0,1,270.0,1
242,242,0.53132991528565,0.5,1.0,1.0,396.0,792.0,1.0,1,252.0,1
243,243,-0.813203297901326,-0.8,0.0,1.0,316.0,662.0,1.0,0,282.0,1
244,244,0.21901917193986586,0.2,1.0,1.0,495.0,902.0,1.0,1,123.0,1
245,245,0.6102679927578939,0.6,0.0,0.0,458.0,563.0,0.0,1,469.0,1
246,246,-0.7817393172270932,-0.8,1.0,0.0,433.0,807.0,0.0,0,220.0,1
247,247,-0.8015948735576787,-0.8,1.0,0.0,307.0,644.0,0.0,0,239.0,1
248,248,-0.22213662877235985,-0.2,1.0,0.0,388.0,935.0,0.0,0,427.0,1
249,249,0.22402616573618805,0.2,0.0,0.0,377.0,651.0,0.0,1,1302.0,1
250,250,0.40052302088695957,0.4,1.0,1.0,469.0,512.0,1.0,1,289.0,1
251,251,-0.7980228450740557,-0.8,0.0,1.0,320.0,506.0,1.0,0,194.0,1
252,252,-0.842332457763684,-0.8,1.0,0.0,320.0,860.0,0.0,0,210.0,1
253,253,0.040282077485723544,0.0,0.0,0.0,478.0,836.0,1.0,0,286.0,0
254,254,0.3518086609104235,0.4,1.0,1.0,270.0,715.0,0.0,0,75.0,0
255,255,0.24276929406541237,0.2,0.0,0.0,497.0,517.0,1.0,0,666.0,0
256,256,-0.6999048492887386,-0.7,1.0,0.0,378.0,545.0,0.0,0,327.0,1
257,257,0.7410839152041987,0.7,1.0,1.0,366.0,806.0,1.0,1,168.0,1
258,258,0.25839581591921557,0.3,1.0,1.0,371.0,562.0,0.0,0,547.0,0
259,259,-0.7730120883233944,-0.8,0.0,1.0,357.0,904.0,1.0,0,299.0,1
260,260,0.8500906440472212,0.9,0.0,0.0,314.0,569.0,0.0,1,377.0,1
261,261,0.18041725698069,0.2,0.0,0.0,434.0,724.0,0.0,1,792.0,1
262,262,-0.7045587720116091,-0.7,0.0,1.0,440.0,652.0,1.0,0,108.0,1
263,263,0.10899616978425286,0.1,1.0,1.0,421.0,997.0,1.0,1,122.0,1
264,264,-0.5118883051569045,-0.5,0.0,1.0,282.0,951.0,1.0,0,257.0,1
265,265,-0.5053937317323467,-0.5,0.0,1.0,467.0,930.0,1.0,0,133.0,1
266,266,-0.809188719979763,-0.8,1.0,0.0,339.0,996.0,0.0,0,165.0,1
267,267,-0.009295371811071873,-0.0,1.0,0.0,484.0,720.0,0.0,0,636.0,1
268,268,0.6147670660716597,0.6,1.0,1.0,264.0,626.0,1.0,1,140.0,1
269,269,-0.03985181388024972,-0.0,0.0,1.0,359.0,672.0,1.0,0,419.0,1
270,270,-0.2497667755909051,-0.2,0.0,1.0,392.0,520.0,1.0,0,628.0,1
271,271,-0.24068872738698432,-0.2,0.0,1.0,377.0,919.0,1.0,0,1024.0,1
272,272,0.0008627195760517736,0.0,0.0,0.0,346.0,680.0,0.0,1,364.0,1
273,273,-0.06449476668724174,-0.1,1.0,0.0,356.0,865.0,0.0,0,309.0,1
274,274,0.8874841705298565,0.9,1.0,1.0,489.0,721.0,1.0,1,170.0,1
275,275,0.2940109111047716,0.3,1.0,1.0,484.0,845.0,1.0,1,141.0,1
276,276,-0.09173589420614758,-0.1,0.0,1.0,449.0,692.0,1.0,0,299.0,1
277,277,-0.4715671072172563,-0.5,1.0,0.0,260.0,553.0,0.0,0,457.0,1
278,278,-0.601933091081083,-0.6,1.0,0.0,260.0,648.0,0.0,0,452.0,1
279,279,0.5426743943338531,0.5,1.0,1.0,273.0,612.0,1.0,1,195.0,1
280,280,-0.4082219736752723,-0.4,0.0,1.0,376.0,548.0,1.0,0,476.0,1
281,281,-0.30496399602178415,-0.3,0.0,1.0,286.0,719.0,1.0,0,215.0,1
282,282,0.15037005557392769,0.2,1.0,1.0,409.0,891.0,0.0,0,540.0,0
283,283,-0.6948820726528647,-0.7,1.0,0.0,498.0,903.0,0.0,0,199.0,1
284,284,-0.29174968367496223,-0.3,0.0,1.0,381.0,601.0,1.0,0,698.0,1
285,285,-0.18353904812530009,-0.2,1.0,0.0,275.0,757.0,1.0,1,168.0,0
286,286,-0.2112504243712322,-0.2,0.0,1.0,488.0,932.0,1.0,0,740.0,1
287,287,0.16468608627900172,0.2,0.0,0.0,387.0,964.0,1.0,0,259.0,0
288,288,-0.7884970433387831,-0.8,0.0,1.0,355.0,594.0,1.0,0,241.0,1
289,289,0.8133834350192987,0.8,1.0,1.0,355.0,631.0,1.0,1,264.0,1
290,290,-0.20910081914387968,-0.2,0.0,1.0,390.0,956.0,1.0,0,84.0,1
291,291,0.7676355301933108,0.8,0.0,0.0,305.0,952.0,0.0,1,223.0,1
292,292,-0.8327089345791607,-0.8,0.0,1.0,450.0,923.0,1.0,0,137.0,1
293,293,-0.11798930334093016,-0.1,0.0,1.0,428.0,948.0,1.0,0,784.0,1
294,294,0.3093877917023783,0.3,0.0,0.0,350.0,566.0,0.0,1,374.0,1
295,295,-0.49186264020207665,-0.5,1.0,0.0,259.0,676.0,0.0,0,355.0,1
296,296,0.007607376994105852,0.0,1.0,1.0,300.0,570.0,1.0,1,600.0,1
297,297,0.6566800736636168,0.7,0.0,0.0,472.0,808.0,0.0,1,200.0,1
298,298,0.10963444587934446,0.1,0.0,0.0,446.0,644.0,0.0,1,700.0,1
299,299,-0.7194445791984181,-0.7,0.0,1.0,424.0,661.0,1.0,0,265.0,1
300,300,0.5437338249035909,0.5,1.0,1.0,282.0,850.0,1.0,1,58.0,1
301,301,0.3380674081955116,0.3,0.0,0.0,472.0,964.0,0.0,1,1094.0,1
302,302,-0.8950424439737061,-0.9,1.0,0.0,495.0,980.0,1.0,1,-35.0,0
303,303,0.8548561251521781,0.9,1.0,1.0,299.0,651.0,1.0,1,300.0,1
304,304,0.4055353095083497,0.4,0.0,0.0,280.0,790.0,1.0,0,80.0,0
305,305,-0.27321308047811044,-0.3,1.0,0.0,329.0,711.0,0.0,0,960.0,1
306,306,0.8052587570036805,0.8,1.0,1.0,342.0,816.0,1.0,1,82.0,1
307,307,-0.033942632644084036,-0.0,1.0,0.0,491.0,999.0,1.0,1,430.0,0
308,308,-0.6425575638837266,-0.6,1.0,0.0,340.0,759.0,0.0,0,231.0,1
309,309,-0.026076647811104303,-0.0,1.0,0.0,284.0,541.0,0.0,0,1255.0,1
310,310,-0.12555346040023851,-0.1,1.0,0.0,467.0,707.0,1.0,1,876.0,0
311,311,-0.12953912556048097,-0.1,1.0,0.0,497.0,612.0,1.0,1,281.0,0
312,312,0.8733801265952473,0.9,1.0,1.0,434.0,848.0,1.0,1,88.0,1
313,313,-0.3044970033426946,-0.3,1.0,0.0,340.0,577.0,0.0,0,1323.0,1
314,314,-0.536941643660872,-0.5,0.0,1.0,432.0,920.0,1.0,0,88.0,1
315,315,-0.24774111638339646,-0.2,1.0,0.0,347.0,885.0,1.0,1,328.0,0
316,316,0.6379372950595638,0.6,1.0,1.0,470.0,564.0,1.0,1,96.0,1
317,317,-0.6634353868415261,-0.7,0.0,1.0,295.0,985.0,1.0,0,350.0,1
318,318,-0.37010421334203025,-0.4,0.0,1.0,348.0,898.0,1.0,0,144.0,1
319,319,-0.26426624138603383,-0.3,0.0,1.0,277.0,753.0,1.0,0,880.0,1
320,320,-0.12776797831881248,-0.1,1.0,0.0,435.0,507.0,1.0,1,818.0,0
321,321,-0.5615837965193778,-0.6,1.0,0.0,339.0,883.0,0.0,0,118.0,1
322,322,-0.46031158142866063,-0.5,0.0,1.0,259.0,947.0,1.0,0,864.0,1
323,323,-0.2032729938347646,-0.2,0.0,1.0,292.0,931.0,1.0,0,107.0,1
324,324,0.5688947574426976,0.6,0.0,0.0,425.0,797.0,0.0,1,348.0,1
325,325,-0.3621266796408209,-0.4,0.0,1.0,426.0,994.0,1.0,0,550.0,1
326,326,-0.5721012994161834,-0.6,0.0,1.0,463.0,785.0,1.0,0,502.0,1
327,327,0.5027403202113693,0.5,0.0,0.0,404.0,779.0,0.0,1,557.0,1
328,328,0.21514322292501664,0.2,0.0,0.0,275.0,959.0,1.0,0,276.0,0
329,329,0.5461739577897783,0.5,1.0,1.0,487.0,987.0,1.0,1,146.0,1
330,330,0.3873510184420871,0.4,1.0,1.0,453.0,540.0,1.0,1,257.0,1
331,331,-0.5845345282428441,-0.6,0.0,1.0,312.0,722.0,1.0,0,376.0,1
332,332,-0.5119576248171555,-0.5,1.0,0.0,465.0,730.0,0.0,0,185.0,1
333,333,0.053185356362011604,0.1,0.0,0.0,287.0,521.0,0.0,1,1502.0,1
334,334,-0.3550300162173198,-0.4,1.0,0.0,462.0,688.0,1.0,1,660.0,0
335,335,0.8397960502142915,0.8,1.0,1.0,321.0,906.0,1.0,1,143.0,1
336,336,0.10741008597413881,0.1,1.0,1.0,256.0,932.0,1.0,1,622.0,1
337,337,-0.6540042174625823,-0.7,1.0,0.0,471.0,597.0,0.0,0,162.0,1
338,338,0.44620307266860115,0.4,0.0,0.0,478.0,616.0,0.0,1,776.0,1
339,339,0.1368154915395391,0.1,1.0,1.0,377.0,956.0,0.0,0,557.0,0
340,340,0.11621296416992044,0.1,0.0,0.0,444.0,955.0,0.0,1,611.0,1
341,341,0.6768664296579315,0.7,0.0,0.0,464.0,988.0,0.0,1,168.0,1
342,342,-0.7888792329396782,-0.8,1.0,0.0,416.0,983.0,1.0,1,1.0,0
343,343,0.616516963377035,0.6,0.0,0.0,273.0,642.0,0.0,1,165.0,1
344,344,-0.774389729734763,-0.8,1.0,0.0,306.0,958.0,0.0,0,226.0,1
345,345,-0.024546166542457004,-0.0,0.0,1.0,396.0,554.0,1.0,0,480.0,1
346,346,0.8926707523166048,0.9,0.0,0.0,277.0,949.0,0.0,1,134.0,1
347,347,-0.2495074215803581,-0.2,0.0,1.0,332.0,755.0,1.0,0,63.0,1
348,348,0.3031103200087405,0.3,0.0,0.0,311.0,672.0,0.0,1,587.0,1
349,349,-0.6504206665423877,-0.7,0.0,1.0,274.0,771.0,1.0,0,205.0,1
350,350,0.6404832456372108,0.6,1.0,1.0,290.0,966.0,1.0,1,4.0,1
351,351,0.5223143798944972,0.5,0.0,0.0,374.0,687.0,0.0,1,169.0,1
352,352,-0.547195546647965,-0.5,1.0,0.0,374.0,920.0,0.0,0,236.0,1
353,353,0.666730766761844,0.7,1.0,1.0,424.0,559.0,1.0,1,297.0,1
354,354,-0.5786122094787826,-0.6,0.0,1.0,269.0,863.0,1.0,0,188.0,1
355,355,0.320586538665265,0.3,0.0,0.0,478.0,904.0,0.0,1,558.0,1
356,356,-0.8204724128287396,-0.8,0.0,1.0,277.0,756.0,1.0,0,177.0,1
357,357,0.8998240583001057,0.9,0.0,0.0,451.0,592.0,0.0,1,167.0,1
358,358,-0.02960766447620955,-0.0,1.0,0.0,442.0,955.0,1.0,1,163.0,0
359,359,0.189660878320432,0.2,1.0,1.0,492.0,548.0,0.0,0,860.0,0
360,360,0.5937263284499211,0.6,0.0,0.0,343.0,976.0,0.0,1,361.0,1
361,361,-0.04213505952575314,-0.0,1.0,0.0,401.0,825.0,0.0,0,394.0,1
362,362,-0.8938533726946098,-0.9,0.0,1.0,373.0,905.0,1.0,0,62.0,1
363,363,-0.4975863187424536,-0.5,1.0,0.0,260.0,560.0,0.0,0,280.0,1
364,364,0.059827280408927375,0.1,1.0,1.0,291.0,781.0,1.0,1,178.0,1
365,365,-0.7725188953515048,-0.8,0.0,1.0,494.0,820.0,1.0,0,96.0,1
366,366,0.2958864652720957,0.3,0.0,0.0,286.0,783.0,0.0,1,191.0,1
367,367,0.43109487956391124,0.4,0.0,0.0,472.0,708.0,0.0,1,1300.0,1
368,368,0.6065242114106958,0.6,0.0,0.0,438.0,677.0,0.0,1,335.0,1
369,369,-0.5743910891505652,-0.6,1.0,0.0,498.0,834.0,0.0,0,168.0,1
370,370,-0.7855936893793157,-0.8,1.0,0.0,497.0,737.0,0.0,0,216.0,1
371,371,-0.3303558917567828,-0.3,1.0,0.0,387.0,547.0,0.0,0,416.0,1
372,372,-0.07743594940420595,-0.1,0.0,1.0,424.0,529.0,1.0,0,177.0,1
373,373,0.5109076519309573,0.5,0.0,0.0,478.0,994.0,0.0,1,608.0,1
374,374,0.86254222056753,0.9,1.0,1.0,420.0,982.0,1.0,1,58.0,1
375,375,0.3866271158457609,0.4,0.0,0.0,360.0,541.0,0.0,1,689.0,1
376,376,0.6306731802801228,0.6,1.0,1.0,321.0,732.0,1.0,1,157.0,1
377,377,-0.41590143333872837,-0.4,0.0,1.0,406.0,994.0,1.0,0,190.0,1
378,378,0.6640230747281138,0.7,1.0,1.0,327.0,529.0,1.0,1,194.0,1
379,379,0.2914197831306916,0.3,1.0,1.0,257.0,705.0,1.0,1,468.0,1
380,380,0.4263131367943257,0.4,0.0,0.0,334.0,658.0,0.0,1,748.0,1
381,381,0.1961021874366785,0.2,0.0,0.0,341.0,987.0,0.0,1,1272.0,1
382,382,-0.2936279992288924,-0.3,0.0,1.0,279.0,650.0,1.0,0,91.0,1
383,383,-0.8524039610564298,-0.9,1.0,0.0,316.0,752.0,0.0,0,272.0,1
384,384,-0.3621553954415557,-0.4,0.0,1.0,404.0,958.0,1.0,0,268.0,1
385,385,0.21849068843098507,0.2,1.0,1.0,267.0,720.0,1.0,1,213.0,1
386,386,-0.2512480831977799,-0.3,1.0,0.0,495.0,585.0,0.0,0,340.0,1
387,387,-0.19960836506285784,-0.2,0.0,1.0,383.0,857.0,1.0,0,90.0,1
388,388,0.43308487533420037,0.4,1.0,1.0,440.0,909.0,1.0,1,101.0,1
389,389,0.5715532335930341,0.6,1.0,1.0,306.0,823.0,1.0,1,191.0,1
390,390,0.3129320604629432,0.3,1.0,1.0,370.0,846.0,1.0,1,134.0,1
391,391,-0.6441427682471155,-0.6,1.0,0.0,499.0,882.0,0.0,0,139.0,1
392,392,0.6326506039614311,0.6,0.0,0.0,362.0,955.0,1.0,0,113.0,0
393,393,-0.2997256828436262,-0.3,1.0,0.0,393.0,858.0,0.0,0,69.0,1
394,394,-0.38725522938825363,-0.4,1.0,0.0,338.0,518.0,0.0,0,554.0,1
395,395,-0.24483286946855076,-0.2,1.0,0.0,396.0,944.0,0.0,0,230.0,1
396,396,-0.42809419476833527,-0.4,0.0,1.0,281.0,575.0,1.0,0,334.0,1
397,397,-0.8043843129466515,-0.8,0.0,1.0,460.0,972.0,1.0,0,108.0,1
398,398,-0.09881378306544619,-0.1,0.0,1.0,484.0,556.0,1.0,0,610.0,1
399,399,0.1331656646379481,0.1,0.0,0.0,335.0,623.0,0.0,1,1082.0,1
400,400,-0.48384036784061685,-0.5,1.0,0.0,391.0,827.0,0.0,0,152.0,1
401,401,-0.2094374988847828,-0.2,1.0,0.0,308.0,680.0,0.0,0,392.0,1
402,402,0.5932843856518136,0.6,0.0,0.0,269.0,552.0,0.0,1,409.0,1
403,403,0.10685245141489574,0.1,0.0,0.0,420.0,586.0,0.0,1,1224.0,1
404,404,0.6624894934018432,0.7,1.0,1.0,458.0,535.0,1.0,1,167.0,1
405,405,-0.3070684899507836,-0.3,0.0,1.0,310.0,665.0,1.0,0,425.0,1
406,406,-0.7827618549093085,-0.8,1.0,0.0,291.0,962.0,0.0,0,107.0,1
407,407,-0.08424740186081481,-0.1,0.0,1.0,400.0,672.0,1.0,0,2818.0,1
408,408,0.5215498767199725,0.5,1.0,1.0,448.0,544.0,1.0,1,138.0,1
409,409,0.20149211388203392,0.2,1.0,1.0,265.0,884.0,1.0,1,101.0,1
410,410,-0.7214863648731261,-0.7,1.0,0.0,376.0,521.0,0.0,0,533.0,1
411,411,-0.17603519591757577,-0.2,1.0,0.0,355.0,712.0,0.0,0,463.0,1
412,412,0.3190348361652454,0.3,1.0,1.0,493.0,817.0,1.0,1,270.0,1
413,413,-0.384599639528173,-0.4,1.0,0.0,314.0,644.0,0.0,0,962.0,1
414,414,0.12494549282314005,0.1,0.0,0.0,436.0,768.0,0.0,1,386.0,1
415,415,-0.40900951356742904,-0.4,0.0,1.0,310.0,578.0,1.0,0,212.0,1
416,416,-0.08720896305619397,-0.1,0.0,1.0,291.0,907.0,0.0,1,472.0,0
417,417,-0.7247844679387138,-0.7,1.0,0.0,405.0,742.0,0.0,0,293.0,1
418,418,0.6175517757271404,0.6,1.0,1.0,497.0,694.0,1.0,1,179.0,1
419,419,-0.6649025250227575,-0.7,0.0,1.0,476.0,793.0,1.0,0,271.0,1
420,420,-0.7105034743314624,-0.7,1.0,0.0,338.0,804.0,0.0,0,138.0,1
421,421,-0.07766822853609123,-0.1,0.0,1.0,428.0,952.0,1.0,0,460.0,1
422,422,0.295776360764039,0.3,0.0,0.0,309.0,842.0,0.0,1,729.0,1
423,423,-0.39945027366156294,-0.4,1.0,0.0,490.0,586.0,0.0,0,304.0,1
424,424,-0.47368187793640004,-0.5,1.0,0.0,420.0,880.0,0.0,0,140.0,1
425,425,-0.6038350894564395,-0.6,0.0,1.0,479.0,624.0,1.0,0,327.0,1
426,426,-0.6537674873924808,-0.7,1.0,0.0,401.0,903.0,0.0,0,586.0,1
427,427,-0.47948939407182833,-0.5,0.0,1.0,426.0,878.0,1.0,0,296.0,1
428,428,-0.27013209783153314,-0.3,1.0,0.0,477.0,946.0,0.0,0,157.0,1
429,429,0.22086072422580083,0.2,1.0,1.0,269.0,637.0,1.0,1,194.0,1
430,430,0.7460552340677103,0.7,1.0,1.0,443.0,635.0,1.0,1,272.0,1
431,431,-0.44018862985484014,-0.4,0.0,1.0,313.0,788.0,1.0,0,329.0,1
432,432,-0.808083095445501,-0.8,0.0,1.0,492.0,919.0,1.0,0,129.0,1
433,433,0.455349415906645,0.5,0.0,0.0,458.0,732.0,0.0,1,350.0,1
434,434,0.26364729473944115,0.3,1.0,1.0,410.0,848.0,1.0,1,632.0,1
435,435,-0.01418931937682899,-0.0,1.0,0.0,265.0,782.0,0.0,0,223.0,1
436,436,-0.7078696126639908,-0.7,1.0,0.0,279.0,745.0,0.0,0,116.0,1
437,437,0.07503108361759103,0.1,0.0,0.0,474.0,581.0,0.0,1,265.0,1
438,438,-0.4685071240377832,-0.5,1.0,0.0,361.0,980.0,0.0,0,329.0,1
439,439,0.41152653500421066,0.4,0.0,0.0,349.0,973.0,0.0,1,588.0,1
440,440,-0.22161965344822576,-0.2,1.0,0.0,285.0,910.0,1.0,1,-5.0,0
441,441,-0.8184291990921154,-0.8,0.0,1.0,269.0,721.0,1.0,0,180.0,1
442,442,-0.05624988235400785,-0.1,0.0,1.0,252.0,951.0,1.0,0,3797.0,1
443,443,-0.2883551165059822,-0.3,1.0,0.0,327.0,573.0,0.0,0,940.0,1
444,444,-0.27134517573366124,-0.3,1.0,0.0,379.0,656.0,0.0,0,205.0,1
445,445,-0.18357743104693236,-0.2,0.0,1.0,432.0,615.0,1.0,0,263.0,1
446,446,0.46603679939689246,0.5,1.0,1.0,263.0,937.0,1.0,1,260.0,1
447,447,-0.8999121905931798,-0.9,0.0,1.0,425.0,660.0,1.0,0,155.0,1
448,448,-0.7041156012248522,-0.7,1.0,0.0,396.0,964.0,0.0,0,430.0,1
449,449,-0.8869150884397722,-0.9,0.0,1.0,497.0,558.0,1.0,0,305.0,1
450,450,-0.7495612433878049,-0.7,0.0,1.0,484.0,596.0,1.0,0,260.0,1
451,451,-0.4896274790062427,-0.5,0.0,1.0,264.0,776.0,1.0,0,370.0,1
452,452,0.5792924298055783,0.6,1.0,1.0,483.0,580.0,1.0,1,287.0,1
453,453,-0.34971043501972887,-0.3,0.0,1.0,434.0,505.0,1.0,0,201.0,1
454,454,-0.7589005267826816,-0.8,0.0,1.0,351.0,933.0,1.0,0,206.0,1
455,455,0.6688292019323153,0.7,0.0,0.0,273.0,875.0,0.0,1,522.0,1
456,456,-0.08352658174152461,-0.1,0.0,1.0,458.0,639.0,1.0,0,333.0,1
457,457,-0.4851983817373641,-0.5,0.0,1.0,268.0,590.0,1.0,0,212.0,1
458,458,-0.8381847749621629,-0.8,1.0,0.0,375.0,983.0,0.0,0,212.0,1
459,459,-0.22639827037463223,-0.2,1.0,0.0,279.0,898.0,0.0,0,523.0,1
460,460,-0.6364562650058463,-0.6,1.0,0.0,387.0,578.0,0.0,0,265.0,1
461,461,-0.3003184243743946,-0.3,1.0,0.0,351.0,832.0,0.0,0,137.0,1
462,462,-0.08834375215429091,-0.1,1.0,0.0,462.0,971.0,1.0,1,377.0,0
463,463,-0.746492358178015,-0.7,1.0,0.0,384.0,548.0,0.0,0,538.0,1
464,464,-0.8823596787555718,-0.9,1.0,0.0,345.0,877.0,0.0,0,298.0,1
465,465,-0.6064974913493539,-0.6,1.0,0.0,479.0,540.0,0.0,0,241.0,1
466,466,0.5613275995805754,0.6,0.0,0.0,345.0,594.0,0.0,1,411.0,1
467,467,-0.016418740296177625,-0.0,0.0,1.0,330.0,791.0,1.0,0,519.0,1
468,468,-0.0256655602095196,-0.0,1.0,0.0,275.0,852.0,1.0,1,383.0,0
469,469,-0.48042700971728486,-0.5,1.0,0.0,474.0,500.0,0.0,0,416.0,1
470,470,-0.6501013269966541,-0.7,1.0,0.0,307.0,832.0,0.0,0,261.0,1
471,471,0.45047892732290273,0.5,1.0,1.0,294.0,901.0,1.0,1,275.0,1
472,472,-0.6090081441734951,-0.6,0.0,1.0,457.0,759.0,1.0,0,184.0,1
473,473,-0.07915845199302363,-0.1,0.0,1.0,381.0,906.0,1.0,0,423.0,1
474,474,0.6898568379660784,0.7,1.0,1.0,347.0,512.0,1.0,1,131.0,1
475,475,-0.8186206819009034,-0.8,1.0,0.0,293.0,632.0,0.0,0,215.0,1
476,476,-0.8420062939679102,-0.8,0.0,1.0,454.0,961.0,1.0,0,165.0,1
477,477,0.015575518222106122,0.0,0.0,0.0,312.0,863.0,0.0,1,445.0,1
478,478,0.23996994409650274,0.2,1.0,1.0,458.0,669.0,1.0,1,943.0,1
479,479,-0.791964009291552,-0.8,0.0,1.0,471.0,520.0,1.0,0,329.0,1
480,480,0.6141086447199099,0.6,1.0,1.0,414.0,555.0,1.0,1,331.0,1
481,481,0.540333410956006,0.5,1.0,1.0,294.0,708.0,1.0,1,98.0,1
482,482,0.10721316798424951,0.1,1.0,1.0,418.0,946.0,1.0,1,86.0,1
483,483,0.6871122621122953,0.7,1.0,1.0,387.0,819.0,1.0,1,274.0,1
484,484,-0.8853138918796768,-0.9,0.0,1.0,425.0,691.0,1.0,0,204.0,1
485,485,-0.6167265174898883,-0.6,0.0,1.0,346.0,941.0,1.0,0,863.0,1
486,486,0.055286898782259675,0.1,1.0,1.0,341.0,864.0,1.0,1,45.0,1
487,487,0.22141244522002024,0.2,0.0,0.0,320.0,580.0,0.0,1,490.0,1
488,488,0.50199293465304,0.5,1.0,1.0,308.0,876.0,1.0,1,186.0,1
489,489,0.5422319183603749,0.5,1.0,1.0,487.0,975.0,1.0,1,128.0,1
490,490,-0.3654354638663755,-0.4,0.0,1.0,420.0,809.0,0.0,1,181.0,0
491,491,-0.24446927678518904,-0.2,0.0,1.0,360.0,895.0,1.0,0,875.0,1
492,492,0.22154192700130604,0.2,1.0,1.0,394.0,705.0,1.0,1,521.0,1
493,493,0.5460112765258608,0.5,1.0,1.0,480.0,716.0,1.0,1,234.0,1
494,494,0.013795118039378496,0.0,1.0,1.0,255.0,687.0,1.0,1,588.0,1
495,495,0.27513509085688403,0.3,1.0,1.0,494.0,674.0,1.0,1,662.0,1
496,496,-0.4309418668394898,-0.4,1.0,0.0,347.0,670.0,0.0,0,353.0,1
497,497,0.02456399311324864,0.0,1.0,1.0,422.0,857.0,1.0,1,671.0,1
498,498,0.7494072635262227,0.7,1.0,1.0,440.0,928.0,1.0,1,162.0,1
499,499,0.5433541386373665,0.5,1.0,1.0,375.0,768.0,1.0,1,137.0,1
500,500,0.5414080205912833,0.5,0.0,0.0,462.0,783.0,0.0,1,365.0,1
501,501,0.6070276440118453,0.6,0.0,0.0,278.0,584.0,0.0,1,738.0,1
502,502,0.40290576332785577,0.4,1.0,1.0,332.0,976.0,1.0,1,522.0,1
503,503,-0.4420284949653872,-0.4,1.0,0.0,353.0,577.0,0.0,0,360.0,1
504,504,-0.3926998421787622,-0.4,1.0,0.0,387.0,778.0,0.0,0,235.0,1
505,505,-0.25512724068697923,-0.3,1.0,0.0,354.0,856.0,1.0,1,560.0,0
506,506,-0.06624684639152145,-0.1,0.0,1.0,478.0,802.0,1.0,0,370.0,1
507,507,-0.8785322612019622,-0.9,1.0,0.0,407.0,615.0,0.0,0,218.0,1
508,508,-0.7958518384105665,-0.8,0.0,1.0,257.0,612.0,1.0,0,211.0,1
509,509,0.7785880189246722,0.8,0.0,0.0,404.0,897.0,0.0,1,139.0,1
510,510,0.09824789050356408,0.1,0.0,0.0,430.0,752.0,0.0,1,398.0,1
511,511,-0.6542819553641198,-0.7,1.0,0.0,475.0,622.0,0.0,0,123.0,1
512,512,0.8103256756152707,0.8,1.0,1.0,436.0,764.0,1.0,1,100.0,1
513,513,-0.4860494972817036,-0.5,1.0,0.0,306.0,875.0,0.0,0,239.0,1
514,514,0.19326872828578623,0.2,1.0,1.0,376.0,995.0,1.0,1,89.0,1
515,515,-0.7862389357640313,-0.8,1.0,0.0,319.0,529.0,0.0,0,642.0,1
516,516,-0.8587638341612192,-0.9,1.0,0.0,311.0,701.0,0.0,0,218.0,1
517,517,0.3860744689449874,0.4,0.0,0.0,350.0,715.0,0.0,1,215.0,1
518,518,-0.32722789328868185,-0.3,0.0,1.0,380.0,607.0,1.0,0,113.0,1
519,519,-0.11341040849404738,-0.1,1.0,0.0,324.0,597.0,0.0,0,759.0,1
520,520,0.11546931628368295,0.1,1.0,1.0,315.0,781.0,1.0,1,1134.0,1
521,521,0.7193219758946644,0.7,0.0,0.0,329.0,643.0,0.0,1,278.0,1
522,522,-0.40072776703668034,-0.4,0.0,1.0,417.0,593.0,1.0,0,180.0,1
523,523,-0.01267988841720713,-0.0,1.0,0.0,405.0,520.0,1.0,1,1085.0,0
524,524,-0.054079032224215506,-0.1,1.0,0.0,331.0,975.0,1.0,1,244.0,0
525,525,-0.3070136351066781,-0.3,1.0,0.0,478.0,584.0,0.0,0,428.0,1
526,526,-0.7450226800495436,-0.7,0.0,1.0,465.0,732.0,1.0,0,173.0,1
527,527,-0.17659926598645137,-0.2,0.0,1.0,349.0,928.0,1.0,0,173.0,1
528,528,-0.2424167092926406,-0.2,0.0,1.0,474.0,978.0,1.0,0,548.0,1
529,529,-0.3928396400613755,-0.4,0.0,1.0,379.0,974.0,1.0,0,277.0,1
530,530,-0.6419831668726862,-0.6,0.0,1.0,272.0,601.0,1.0,0,397.0,1
531,531,-0.7966020053851293,-0.8,1.0,0.0,281.0,830.0,0.0,0,179.0,1
532,532,-0.8345149143921816,-0.8,0.0,1.0,354.0,870.0,1.0,0,156.0,1
533,533,0.16543036465351613,0.2,1.0,1.0,345.0,989.0,1.0,1,576.0,1
534,534,0.16825877122874255,0.2,1.0,1.0,341.0,529.0,1.0,1,140.0,1
535,535,0.12965500711851707,0.1,1.0,1.0,311.0,602.0,1.0,1,377.0,1
536,536,0.8463537048113089,0.8,1.0,1.0,444.0,998.0,1.0,1,138.0,1
537,537,0.45164997593025025,0.5,0.0,0.0,388.0,504.0,0.0,1,478.0,1
538,538,-0.6988939373702385,-0.7,1.0,0.0,410.0,600.0,0.0,0,270.0,1
539,539,0.6358556650643671,0.6,0.0,0.0,267.0,654.0,1.0,0,79.0,0
540,540,-0.4863742681335894,-0.5,0.0,1.0,405.0,682.0,1.0,0,263.0,1
541,541,-0.4636360234948665,-0.5,1.0,0.0,400.0,708.0,0.0,0,172.0,1
542,542,0.45941973094823496,0.5,1.0,1.0,387.0,942.0,1.0,1,121.0,1
543,543,0.46545923000791445,0.5,1.0,1.0,413.0,872.0,1.0,1,215.0,1
544,544,-0.8681246250829984,-0.9,0.0,1.0,427.0,686.0,1.0,0,207.0,1
545,545,-0.19901285906094002,-0.2,0.0,1.0,433.0,919.0,1.0,0,188.0,1
546,546,0.4578368790564703,0.5,1.0,1.0,494.0,662.0,1.0,1,324.0,1
547,547,0.40667848336597723,0.4,1.0,1.0,459.0,532.0,1.0,1,359.0,1
548,548,-0.34070947410988484,-0.3,0.0,1.0,341.0,738.0,1.0,0,221.0,1
549,549,0.041477483914690416,0.0,1.0,1.0,308.0,880.0,1.0,1,142.0,1
550,550,0.20273318892021985,0.2,1.0,1.0,399.0,618.0,1.0,1,413.0,1
551,551,-0.5301164493735848,-0.5,0.0,1.0,262.0,834.0,1.0,0,224.0,1
552,552,0.157282788432349,0.2,0.0,0.0,259.0,817.0,0.0,1,624.0,1
553,553,-0.42794777635392917,-0.4,1.0,0.0,398.0,945.0,0.0,0,127.0,1
554,554,0.4312267532085402,0.4,0.0,0.0,420.0,576.0,0.0,1,454.0,1
555,555,-0.27629143674102985,-0.3,1.0,0.0,258.0,961.0,0.0,0,171.0,1
556,556,0.14953138705441826,0.1,0.0,0.0,387.0,805.0,1.0,0,208.0,0
557,557,-0.3810756142131594,-0.4,1.0,0.0,301.0,527.0,0.0,0,1012.0,1
558,558,0.5677152760305991,0.6,1.0,1.0,347.0,872.0,1.0,1,211.0,1
559,559,-0.5651889519483846,-0.6,1.0,0.0,295.0,923.0,0.0,0,102.0,1
560,560,-0.5221331926717432,-0.5,0.0,1.0,448.0,730.0,1.0,0,192.0,1
561,561,0.644020224859504,0.6,1.0,1.0,335.0,698.0,1.0,1,157.0,1
562,562,0.7145224484061924,0.7,1.0,1.0,372.0,657.0,1.0,1,371.0,1
563,563,-0.12906135209999936,-0.1,0.0,1.0,307.0,935.0,0.0,1,1038.0,0
564,564,-0.5012064716809375,-0.5,0.0,1.0,479.0,917.0,1.0,0,374.0,1
565,565,-0.3423682112094143,-0.3,1.0,0.0,336.0,806.0,0.0,0,238.0,1
566,566,-0.1514678842155539,-0.2,1.0,0.0,409.0,967.0,0.0,0,144.0,1
567,567,0.3508207493635499,0.4,1.0,1.0,435.0,938.0,1.0,1,287.0,1
568,568,0.19380520902791443,0.2,0.0,0.0,348.0,617.0,0.0,1,1095.0,1
569,569,0.1250833317829544,0.1,1.0,1.0,316.0,626.0,1.0,1,568.0,1
570,570,0.36044994271661446,0.4,1.0,1.0,386.0,672.0,1.0,1,302.0,1
571,571,-0.6681580765301606,-0.7,1.0,0.0,353.0,938.0,0.0,0,99.0,1
572,572,-0.28190790784043396,-0.3,1.0,0.0,311.0,741.0,0.0,0,148.0,1
573,573,0.11853129337060497,0.1,0.0,0.0,357.0,761.0,0.0,1,222.0,1
574,574,-0.8298407916356423,-0.8,1.0,0.0,365.0,915.0,0.0,0,140.0,1
575,575,0.10883987902182735,0.1,0.0,0.0,329.0,736.0,0.0,1,815.0,1
576,576,-0.2758195451251009,-0.3,0.0,1.0,305.0,750.0,1.0,0,305.0,1
577,577,-0.03589871935798572,-0.0,1.0,0.0,353.0,841.0,0.0,0,526.0,1
578,578,-0.21438182529599092,-0.2,1.0,0.0,472.0,905.0,0.0,0,603.0,1
579,579,-0.11221080415954043,-0.1,0.0,1.0,360.0,527.0,1.0,0,533.0,1
580,580,0.5524981606662139,0.6,1.0,1.0,401.0,530.0,1.0,1,219.0,1
581,581,0.15996849911829336,0.2,0.0,0.0,280.0,929.0,0.0,1,441.0,1
582,582,-0.2194465071410412,-0.2,0.0,1.0,418.0,628.0,0.0,1,1544.0,0
583,583,-0.5576092659896574,-0.6,1.0,0.0,480.0,727.0,0.0,0,153.0,1
584,584,0.2623507336176555,0.3,1.0,1.0,252.0,724.0,1.0,1,424.0,1
585,585,-0.22096038790156902,-0.2,0.0,1.0,331.0,519.0,1.0,0,380.0,1
586,586,0.2823055629269072,0.3,0.0,0.0,379.0,955.0,1.0,0,66.0,0
587,587,0.665838934314538,0.7,1.0,1.0,294.0,940.0,1.0,1,166.0,1
588,588,0.4821215747219788,0.5,0.0,0.0,444.0,542.0,0.0,1,424.0,1
589,589,-0.17371095966728678,-0.2,1.0,0.0,404.0,551.0,0.0,0,245.0,1
590,590,-0.8238195956301185,-0.8,1.0,0.0,444.0,549.0,0.0,0,217.0,1
591,591,-0.16085739381502584,-0.2,1.0,0.0,441.0,519.0,0.0,0,330.0,1
592,592,0.7387343155440848,0.7,1.0,1.0,399.0,658.0,1.0,1,183.0,1
593,593,0.26618552090225645,0.3,1.0,1.0,469.0,587.0,1.0,1,434.0,1
594,594,-0.6434540838373308,-0.6,1.0,0.0,393.0,861.0,0.0,0,326.0,1
595,595,-0.7936082856965327,-0.8,1.0,0.0,484.0,995.0,0.0,0,221.0,1
596,596,-0.021537886811773044,-0.0,1.0,0.0,262.0,773.0,1.0,1,65.0,0
597,597,-0.20607325095783524,-0.2,1.0,0.0,371.0,563.0,0.0,0,896.0,1
598,598,-0.13314792521971297,-0.1,1.0,0.0,434.0,644.0,1.0,1,782.0,0
599,599,-0.5633635548606687,-0.6,1.0,0.0,392.0,538.0,0.0,0,590.0,1
600,600,0.058485588110552156,0.1,1.0,1.0,288.0,729.0,1.0,1,243.0,1
601,601,0.2652257987675454,0.3,1.0,1.0,480.0,988.0,1.0,1,642.0,1
602,602,0.07623188767193612,0.1,1.0,1.0,330.0,724.0,1.0,1,126.0,1
603,603,-0.7247781050374051,-0.7,1.0,0.0,379.0,908.0,0.0,0,163.0,1
604,604,0.1395141696277914,0.1,1.0,1.0,292.0,725.0,1.0,1,583.0,1
605,605,0.604825677071888,0.6,1.0,1.0,298.0,669.0,1.0,1,263.0,1
606,606,-0.7959690790890055,-0.8,0.0,1.0,303.0,915.0,1.0,0,62.0,1
607,607,0.7128350423216744,0.7,0.0,0.0,342.0,842.0,0.0,1,356.0,1
608,608,-0.6925165303161283,-0.7,1.0,0.0,325.0,767.0,0.0,0,338.0,1
609,609,0.01518348739784181,0.0,0.0,0.0,481.0,566.0,1.0,0,213.0,0
610,610,0.7028665853134027,0.7,0.0,0.0,494.0,610.0,0.0,1,496.0,1
611,611,0.7247195996118659,0.7,0.0,0.0,267.0,928.0,0.0,1,115.0,1
612,612,0.487092967333567,0.5,1.0,1.0,312.0,815.0,1.0,1,123.0,1
613,613,0.35730579622795633,0.4,0.0,0.0,309.0,717.0,0.0,1,504.0,1
614,614,-0.24467137677161443,-0.2,1.0,0.0,359.0,835.0,0.0,0,376.0,1
615,615,-0.786630041116171,-0.8,0.0,1.0,251.0,909.0,1.0,0,220.0,1
616,616,-0.3494674815795379,-0.3,0.0,1.0,369.0,504.0,1.0,0,297.0,1
617,617,-0.8404374358996687,-0.8,1.0,0.0,429.0,850.0,0.0,0,151.0,1
618,618,0.638999564240693,0.6,1.0,1.0,330.0,811.0,1.0,1,139.0,1
619,619,-0.03167985096247361,-0.0,1.0,0.0,397.0,553.0,0.0,0,340.0,1
620,620,-0.8083172181027232,-0.8,1.0,0.0,352.0,708.0,0.0,0,170.0,1
621,621,0.5241811712756937,0.5,0.0,0.0,444.0,531.0,0.0,1,485.0,1
622,622,0.8246944747698662,0.8,1.0,1.0,271.0,834.0,1.0,1,225.0,1
623,623,0.38975352791331674,0.4,1.0,1.0,370.0,961.0,1.0,1,289.0,1
624,624,0.8885683315627296,0.9,1.0,1.0,412.0,759.0,1.0,1,129.0,1
625,625,0.03670001892118602,0.0,0.0,0.0,440.0,891.0,1.0,0,2019.0,0
626,626,-0.7807820562429059,-0.8,1.0,0.0,399.0,573.0,0.0,0,248.0,1
627,627,-0.17212003762529215,-0.2,1.0,0.0,357.0,863.0,1.0,1,390.0,0
628,628,0.44958700726244205,0.4,1.0,1.0,390.0,703.0,1.0,1,177.0,1
629,629,-0.5552554048534577,-0.6,0.0,1.0,287.0,963.0,1.0,0,80.0,1
630,630,0.2217608825869567,0.2,1.0,1.0,267.0,994.0,1.0,1,219.0,1
631,631,-0.3458629652287981,-0.3,0.0,1.0,319.0,720.0,1.0,0,101.0,1
632,632,0.3375075719248558,0.3,1.0,1.0,379.0,597.0,1.0,1,564.0,1
633,633,-0.4160426489321314,-0.4,0.0,1.0,474.0,931.0,1.0,0,455.0,1
634,634,-0.6620673796383144,-0.7,1.0,0.0,278.0,858.0,0.0,0,144.0,1
635,635,0.22151604029070981,0.2,1.0,1.0,375.0,995.0,1.0,1,170.0,1
636,636,-0.5773800397863218,-0.6,0.0,1.0,326.0,914.0,1.0,0,150.0,1
637,637,-0.25716339081681183,-0.3,0.0,1.0,447.0,781.0,1.0,0,372.0,1
638,638,0.7365159487641851,0.7,0.0,0.0,344.0,688.0,0.0,1,128.0,1
639,639,-0.1666086086085179,-0.2,1.0,0.0,298.0,763.0,1.0,1,1169.0,0
640,640,-0.4370242664315092,-0.4,0.0,1.0,394.0,915.0,1.0,0,61.0,1
641,641,0.8619307078931023,0.9,0.0,0.0,485.0,625.0,0.0,1,170.0,1
642,642,0.6049848127409373,0.6,1.0,1.0,431.0,864.0,1.0,1,15.0,1
643,643,-0.22670618346583793,-0.2,1.0,0.0,299.0,685.0,0.0,0,366.0,1
644,644,-0.10979149064308102,-0.1,1.0,0.0,367.0,632.0,1.0,1,571.0,0
645,645,-0.09359696585099586,-0.1,1.0,0.0,468.0,960.0,0.0,0,162.0,1
646,646,-0.48746611824808916,-0.5,0.0,1.0,422.0,818.0,1.0,0,300.0,1
647,647,-0.729344740191992,-0.7,0.0,1.0,388.0,563.0,1.0,0,159.0,1
648,648,0.8912156775037158,0.9,1.0,1.0,488.0,768.0,1.0,1,124.0,1
649,649,0.7520141044097973,0.8,1.0,1.0,339.0,615.0,1.0,1,226.0,1
650,650,-0.09938964873101597,-0.1,1.0,0.0,363.0,599.0,0.0,0,968.0,1
651,651,-0.4295650620401233,-0.4,0.0,1.0,483.0,825.0,1.0,0,142.0,1
652,652,-0.6667587791141122,-0.7,0.0,1.0,476.0,604.0,1.0,0,120.0,1
653,653,0.5130014906266444,0.5,1.0,1.0,416.0,624.0,1.0,1,180.0,1
654,654,-0.03486188596316664,-0.0,0.0,1.0,388.0,789.0,0.0,1,473.0,0
655,655,-0.5259268354656224,-0.5,1.0,0.0,309.0,611.0,0.0,0,290.0,1
656,656,0.5739240276439644,0.6,0.0,0.0,413.0,571.0,0.0,1,276.0,1
657,657,0.538173019300111,0.5,0.0,0.0,284.0,544.0,0.0,1,272.0,1
658,658,-0.38370354062754486,-0.4,1.0,0.0,337.0,634.0,0.0,0,529.0,1
659,659,-0.40516929986681405,-0.4,0.0,1.0,379.0,637.0,1.0,0,484.0,1
660,660,-0.10122189217102506,-0.1,1.0,0.0,398.0,832.0,1.0,1,310.0,0
661,661,0.7812426277234629,0.8,0.0,0.0,460.0,762.0,0.0,1,628.0,1
662,662,0.696745699077873,0.7,0.0,0.0,443.0,525.0,0.0,1,412.0,1
663,663,-0.3540561656820618,-0.4,1.0,0.0,276.0,821.0,0.0,0,673.0,1
664,664,-0.5353997369707215,-0.5,1.0,0.0,485.0,666.0,0.0,0,129.0,1
665,665,-0.34210155655190755,-0.3,1.0,0.0,347.0,705.0,0.0,0,548.0,1
666,666,-0.2501017126028675,-0.3,0.0,1.0,321.0,743.0,1.0,0,166.0,1
667,667,-0.11862438602861902,-0.1,1.0,0.0,288.0,553.0,1.0,1,209.0,0
668,668,0.5255906640293168,0.5,1.0,1.0,326.0,628.0,1.0,1,236.0,1
669,669,-0.8464427568418522,-0.8,1.0,0.0,427.0,529.0,0.0,0,114.0,1
670,670,0.3671764684523703,0.4,1.0,1.0,329.0,705.0,1.0,1,656.0,1
671,671,0.06337563582155248,0.1,1.0,1.0,387.0,922.0,1.0,1,1041.0,1
672,672,0.7355900373175194,0.7,1.0,1.0,389.0,608.0,1.0,1,363.0,1
673,673,-0.6766930585647769,-0.7,1.0,0.0,494.0,580.0,0.0,0,246.0,1
674,674,0.2231932054612119,0.2,0.0,0.0,372.0,944.0,0.0,1,1434.0,1
675,675,-0.45463617095336545,-0.5,0.0,1.0,426.0,663.0,1.0,0,241.0,1
676,676,-0.01457069757475904,-0.0,1.0,0.0,374.0,893.0,0.0,0,243.0,1
677,677,0.1252310932128654,0.1,0.0,0.0,421.0,710.0,0.0,1,569.0,1
678,678,-0.47460790580588186,-0.5,0.0,1.0,382.0,580.0,1.0,0,358.0,1
679,679,-0.46766539202168295,-0.5,0.0,1.0,306.0,544.0,1.0,0,150.0,1
680,680,0.7500525511755735,0.8,0.0,0.0,494.0,773.0,0.0,1,823.0,1
681,681,0.38626927923883125,0.4,1.0,1.0,378.0,771.0,1.0,1,231.0,1
682,682,-0.31743699321835617,-0.3,1.0,0.0,383.0,854.0,0.0,0,143.0,1
683,683,0.4474761770998025,0.4,1.0,1.0,403.0,838.0,1.0,1,219.0,1
684,684,0.17689656666480402,0.2,1.0,1.0,489.0,815.0,1.0,1,56.0,1
685,685,-0.8246662906584774,-0.8,0.0,1.0,325.0,727.0,1.0,0,78.0,1
686,686,0.7275548596907716,0.7,0.0,0.0,450.0,563.0,0.0,1,437.0,1
687,687,0.7578715206704362,0.8,0.0,0.0,345.0,905.0,0.0,1,210.0,1
688,688,0.8279264734946438,0.8,0.0,0.0,492.0,655.0,0.0,1,283.0,1
689,689,-0.6094222515012023,-0.6,0.0,1.0,408.0,768.0,1.0,0,164.0,1
690,690,0.4289439545914854,0.4,0.0,0.0,356.0,725.0,0.0,1,309.0,1
691,691,-0.623695263582184,-0.6,0.0,1.0,365.0,647.0,1.0,0,378.0,1
692,692,-0.8487102475165106,-0.8,1.0,0.0,294.0,658.0,0.0,0,128.0,1
693,693,0.6812150124919251,0.7,1.0,1.0,392.0,854.0,1.0,1,154.0,1
694,694,-0.17826628400798072,-0.2,0.0,1.0,321.0,707.0,1.0,0,302.0,1
695,695,-0.14665560818611978,-0.1,0.0,1.0,284.0,667.0,0.0,1,609.0,0
696,696,-0.09653765412569659,-0.1,0.0,1.0,264.0,982.0,1.0,0,574.0,1
697,697,-0.3392408817310816,-0.3,1.0,0.0,440.0,872.0,0.0,0,158.0,1
698,698,0.5458532542858504,0.5,1.0,1.0,384.0,665.0,1.0,1,101.0,1
699,699,0.3289902491331008,0.3,0.0,0.0,419.0,730.0,0.0,1,281.0,1
700,700,-0.38761214883776507,-0.4,0.0,1.0,264.0,837.0,1.0,0,949.0,1
701,701,0.2993361284867587,0.3,1.0,1.0,438.0,625.0,1.0,1,287.0,1
702,702,-0.1534981655015033,-0.2,1.0,0.0,394.0,814.0,1.0,1,292.0,0
703,703,0.3269812360568619,0.3,0.0,0.0,429.0,981.0,0.0,1,610.0,1
704,704,0.8342556143862748,0.8,1.0,1.0,316.0,871.0,1.0,1,123.0,1
705,705,-0.05470098713546845,-0.1,1.0,0.0,416.0,875.0,1.0,1,329.0,0
706,706,0.10900380900648099,0.1,1.0,1.0,335.0,900.0,1.0,1,755.0,1
707,707,0.54030594302256,0.5,1.0,1.0,392.0,643.0,1.0,1,145.0,1
708,708,0.7527841023021412,0.8,1.0,1.0,429.0,840.0,1.0,1,111.0,1
709,709,0.3224711598319946,0.3,0.0,0.0,341.0,868.0,0.0,1,541.0,1
710,710,-0.24177513835501607,-0.2,0.0,1.0,388.0,814.0,1.0,0,648.0,1
711,711,-0.21407501157649333,-0.2,1.0,0.0,323.0,809.0,0.0,0,368.0,1
712,712,0.25137358196392856,0.3,0.0,0.0,275.0,967.0,0.0,1,148.0,1
713,713,-0.7335589795107537,-0.7,0.0,1.0,353.0,838.0,1.0,0,209.0,1
714,714,0.02084604650606725,0.0,0.0,0.0,358.0,929.0,1.0,0,993.0,0
715,715,0.08922170701150811,0.1,0.0,0.0,281.0,866.0,0.0,1,1213.0,1
716,716,-0.46065026441847634,-0.5,1.0,0.0,360.0,674.0,0.0,0,96.0,1
717,717,0.18086498249101302,0.2,1.0,1.0,256.0,649.0,1.0,1,185.0,1
718,718,0.8807938454799592,0.9,0.0,0.0,412.0,753.0,0.0,1,235.0,1
719,719,-0.5306450694589921,-0.5,1.0,0.0,435.0,558.0,0.0,0,287.0,1
720,720,-0.1483791816223642,-0.1,0.0,1.0,389.0,575.0,1.0,0,466.0,1
721,721,-0.1941441292170777,-0.2,0.0,1.0,436.0,906.0,1.0,0,598.0,1
722,722,0.7512816980153244,0.8,1.0,1.0,430.0,685.0,1.0,1,65.0,1
723,723,0.697004262325076,0.7,1.0,1.0,268.0,715.0,1.0,1,37.0,1
724,724,-0.12525641703540524,-0.1,0.0,1.0,258.0,594.0,1.0,0,1068.0,1
725,725,0.5236907493568018,0.5,1.0,1.0,363.0,911.0,1.0,1,66.0,1
726,726,0.4500379436277876,0.5,0.0,0.0,321.0,504.0,0.0,1,425.0,1
727,727,-0.284510929387629,-0.3,1.0,0.0,322.0,518.0,0.0,0,900.0,1
728,728,-0.21575965482049186,-0.2,0.0,1.0,285.0,501.0,1.0,0,484.0,1
729,729,0.8935839386055325,0.9,1.0,1.0,374.0,662.0,1.0,1,284.0,1
730,730,-0.45914885812476003,-0.5,1.0,0.0,446.0,566.0,1.0,1,378.0,0
731,731,-0.4392698937566965,-0.4,1.0,0.0,387.0,610.0,0.0,0,393.0,1
732,732,0.6443600349854465,0.6,0.0,0.0,349.0,991.0,0.0,1,380.0,1
733,733,-0.42675088078972895,-0.4,1.0,0.0,278.0,865.0,0.0,0,417.0,1
734,734,0.33039661644838547,0.3,1.0,1.0,339.0,817.0,1.0,1,214.0,1
735,735,0.710533601229519,0.7,1.0,1.0,261.0,586.0,1.0,1,223.0,1
736,736,0.6233140983170063,0.6,1.0,1.0,250.0,844.0,1.0,1,96.0,1
737,737,0.35042671879306597,0.4,0.0,0.0,338.0,519.0,0.0,1,833.0,1
738,738,-0.19114344202775946,-0.2,1.0,0.0,346.0,723.0,1.0,1,341.0,0
739,739,-0.41779732270134673,-0.4,1.0,0.0,415.0,535.0,0.0,0,1070.0,1
740,740,0.1699119316268375,0.2,0.0,0.0,347.0,677.0,0.0,1,2346.0,1
741,741,0.13556530966464087,0.1,0.0,0.0,491.0,599.0,0.0,1,2100.0,1
742,742,0.32791566920823023,0.3,0.0,0.0,464.0,651.0,0.0,1,425.0,1
743,743,-0.18488375324660067,-0.2,0.0,1.0,300.0,835.0,1.0,0,695.0,1
744,744,0.2080584983096342,0.2,0.0,0.0,296.0,882.0,0.0,1,382.0,1
745,745,-0.7042068180186899,-0.7,1.0,0.0,462.0,811.0,0.0,0,207.0,1
746,746,-0.731934380676533,-0.7,0.0,1.0,431.0,827.0,1.0,0,82.0,1
747,747,-0.6115471377810637,-0.6,1.0,0.0,344.0,794.0,0.0,0,302.0,1
748,748,-0.12469189971007955,-0.1,1.0,0.0,330.0,630.0,0.0,0,220.0,1
749,749,-0.7652054940988233,-0.8,1.0,0.0,452.0,972.0,0.0,0,86.0,1
750,750,-0.866535442328421,-0.9,0.0,1.0,478.0,654.0,1.0,0,118.0,1
751,751,0.8305694549918988,0.8,0.0,0.0,271.0,976.0,0.0,1,83.0,1
752,752,-0.5705537065926146,-0.6,0.0,1.0,416.0,731.0,1.0,0,223.0,1
753,753,0.46845041181553027,0.5,1.0,1.0,286.0,589.0,1.0,1,385.0,1
754,754,0.07094687799278299,0.1,1.0,1.0,367.0,780.0,1.0,1,493.0,1
755,755,-0.5105862511732806,-0.5,0.0,1.0,460.0,687.0,1.0,0,283.0,1
756,756,0.5086869032611233,0.5,0.0,0.0,445.0,572.0,0.0,1,333.0,1
757,757,-0.24274827234873053,-0.2,0.0,1.0,348.0,828.0,1.0,0,494.0,1
758,758,0.886975507992357,0.9,1.0,1.0,279.0,608.0,1.0,1,253.0,1
759,759,-0.34510603859685396,-0.3,1.0,0.0,436.0,891.0,0.0,0,233.0,1
760,760,-0.5884974863477548,-0.6,0.0,1.0,254.0,506.0,1.0,0,160.0,1
761,761,-0.3914280653655712,-0.4,0.0,1.0,322.0,932.0,1.0,0,856.0,1
762,762,0.6642206848468194,0.7,0.0,0.0,487.0,537.0,0.0,1,156.0,1
763,763,-0.5755662659671266,-0.6,0.0,1.0,361.0,931.0,1.0,0,248.0,1
764,764,0.2061841862700201,0.2,1.0,1.0,381.0,628.0,1.0,1,221.0,1
765,765,0.7277423072494239,0.7,1.0,1.0,450.0,767.0,1.0,1,183.0,1
766,766,-0.09370623339244355,-0.1,0.0,1.0,383.0,647.0,1.0,0,250.0,1
767,767,-0.8145671728414441,-0.8,0.0,1.0,431.0,799.0,1.0,0,210.0,1
768,768,-0.5337049562562644,-0.5,0.0,1.0,287.0,656.0,1.0,0,357.0,1
769,769,-0.1682064250364147,-0.2,1.0,0.0,317.0,601.0,1.0,1,312.0,0
770,770,0.4583164310431592,0.5,0.0,0.0,475.0,648.0,0.0,1,417.0,1
771,771,0.6909775712699856,0.7,0.0,0.0,475.0,543.0,0.0,1,122.0,1
772,772,-0.5701621608086718,-0.6,1.0,0.0,276.0,975.0,0.0,0,269.0,1
773,773,0.8376929096684148,0.8,0.0,0.0,336.0,598.0,0.0,1,196.0,1
774,774,0.8424412352768277,0.8,1.0,1.0,379.0,924.0,1.0,1,237.0,1
775,775,-0.7752770436463499,-0.8,1.0,0.0,424.0,821.0,0.0,0,105.0,1
776,776,0.7067292523414516,0.7,0.0,0.0,287.0,681.0,0.0,1,162.0,1
777,777,0.8883021365885481,0.9,1.0,1.0,406.0,568.0,1.0,1,176.0,1
778,778,0.6022364654293458,0.6,1.0,1.0,428.0,775.0,1.0,1,137.0,1
779,779,-0.31746858516918575,-0.3,1.0,0.0,371.0,750.0,0.0,0,339.0,1
780,780,0.13427340861092862,0.1,0.0,0.0,420.0,821.0,0.0,1,489.0,1
781,781,-0.25245440193930346,-0.3,1.0,0.0,287.0,976.0,0.0,0,387.0,1
782,782,0.33934326982523955,0.3,1.0,1.0,313.0,982.0,1.0,1,115.0,1
783,783,0.6598906367159693,0.7,1.0,1.0,372.0,916.0,1.0,1,42.0,1
784,784,0.053599197073194826,0.1,1.0,1.0,289.0,869.0,1.0,1,142.0,1
785,785,0.2994233175640607,0.3,0.0,0.0,399.0,518.0,0.0,1,433.0,1
786,786,-0.4214685549902781,-0.4,0.0,1.0,390.0,697.0,1.0,0,393.0,1
787,787,-0.8953377206926542,-0.9,0.0,1.0,252.0,543.0,1.0,0,325.0,1
788,788,0.5985434747230202,0.6,1.0,1.0,418.0,639.0,1.0,1,183.0,1
789,789,-0.31932801967806146,-0.3,0.0,1.0,482.0,975.0,1.0,0,223.0,1
790,790,0.526236625362375,0.5,1.0,1.0,403.0,943.0,1.0,1,84.0,1
791,791,0.12932626717938034,0.1,0.0,0.0,279.0,944.0,0.0,1,447.0,1
792,792,-0.5581314518106351,-0.6,1.0,0.0,316.0,569.0,0.0,0,365.0,1
793,793,-0.6462436878091484,-0.6,1.0,0.0,330.0,724.0,0.0,0,466.0,1
794,794,-0.5757996363967129,-0.6,1.0,0.0,482.0,956.0,0.0,0,392.0,1
795,795,0.6008236695577808,0.6,0.0,0.0,349.0,694.0,0.0,1,247.0,1
796,796,0.6234872632710152,0.6,1.0,1.0,382.0,659.0,1.0,1,89.0,1
797,797,0.4083239833359912,0.4,1.0,1.0,371.0,922.0,1.0,1,187.0,1
798,798,0.7368895030920516,0.7,0.0,0.0,434.0,534.0,0.0,1,222.0,1
799,799,-0.2628303877502326,-0.3,1.0,0.0,436.0,866.0,0.0,0,198.0,1
800,800,-0.6232655265497928,-0.6,0.0,1.0,498.0,758.0,1.0,0,104.0,1
801,801,-0.3994840212365337,-0.4,1.0,0.0,348.0,888.0,0.0,0,124.0,1
802,802,0.07836282533690397,0.1,1.0,1.0,272.0,606.0,1.0,1,422.0,1
803,803,-0.5231990085798036,-0.5,0.0,1.0,477.0,736.0,1.0,0,147.0,1
804,804,0.048734757583339006,0.0,1.0,1.0,298.0,803.0,1.0,1,439.0,1
805,805,-0.8764757445211053,-0.9,0.0,1.0,446.0,745.0,1.0,0,269.0,1
806,806,-0.6858651147778259,-0.7,0.0,1.0,490.0,946.0,1.0,0,344.0,1
807,807,0.1757912448333424,0.2,0.0,0.0,286.0,515.0,0.0,1,639.0,1
808,808,0.8824118425401218,0.9,1.0,1.0,464.0,550.0,1.0,1,116.0,1
809,809,0.07217276247604909,0.1,0.0,0.0,462.0,894.0,1.0,0,74.0,0
810,810,-0.7943340170704015,-0.8,0.0,1.0,473.0,752.0,1.0,0,365.0,1
811,811,0.2671580997570545,0.3,0.0,0.0,409.0,544.0,0.0,1,347.0,1
812,812,-0.45208284414041183,-0.5,1.0,0.0,351.0,680.0,0.0,0,149.0,1
813,813,-0.41294715443122587,-0.4,0.0,1.0,332.0,641.0,1.0,0,1187.0,1
814,814,0.3651472770938212,0.4,0.0,0.0,315.0,709.0,0.0,1,656.0,1
815,815,-0.350224126607909,-0.4,1.0,0.0,280.0,795.0,0.0,0,405.0,1
816,816,0.06633100981826967,0.1,1.0,1.0,460.0,778.0,1.0,1,432.0,1
817,817,-0.2994012081482512,-0.3,0.0,1.0,400.0,537.0,1.0,0,523.0,1
818,818,0.5207844687236781,0.5,1.0,1.0,320.0,918.0,1.0,1,92.0,1
819,819,0.8834069089476876,0.9,1.0,1.0,295.0,687.0,1.0,1,48.0,1
820,820,0.6864846787034425,0.7,0.0,0.0,431.0,584.0,0.0,1,365.0,1
821,821,0.77503737360651,0.8,0.0,0.0,305.0,651.0,0.0,1,224.0,1
822,822,0.6885735295923908,0.7,0.0,0.0,491.0,918.0,0.0,1,211.0,1
823,823,0.09870208660608926,0.1,0.0,0.0,350.0,998.0,0.0,1,1502.0,1
824,824,-0.3236369490388936,-0.3,1.0,0.0,283.0,504.0,0.0,0,703.0,1
825,825,0.19479320552253332,0.2,1.0,1.0,315.0,599.0,1.0,1,456.0,1
826,826,-0.7965011676733874,-0.8,1.0,0.0,286.0,625.0,0.0,0,369.0,1
827,827,-0.5915265034253627,-0.6,0.0,1.0,487.0,989.0,1.0,0,264.0,1
828,828,-0.7764572213505451,-0.8,0.0,1.0,266.0,697.0,1.0,0,47.0,1
829,829,-0.16883158941749632,-0.2,1.0,0.0,436.0,584.0,0.0,0,820.0,1
830,830,0.7496728010374522,0.7,0.0,0.0,291.0,727.0,0.0,1,192.0,1
831,831,0.7395179578536882,0.7,1.0,1.0,367.0,502.0,1.0,1,251.0,1
832,832,-0.27060807153151356,-0.3,0.0,1.0,441.0,853.0,1.0,0,1016.0,1
833,833,-0.5230057259547723,-0.5,0.0,1.0,442.0,838.0,1.0,0,100.0,1
834,834,-0.11787132184094451,-0.1,1.0,0.0,368.0,721.0,0.0,0,351.0,1
835,835,0.36974268800792587,0.4,1.0,1.0,442.0,691.0,1.0,1,617.0,1
836,836,-0.18106140445605,-0.2,1.0,0.0,307.0,742.0,0.0,0,601.0,1
837,837,-0.7353995343696221,-0.7,0.0,1.0,268.0,666.0,1.0,0,136.0,1
838,838,0.8597971228697853,0.9,0.0,0.0,260.0,925.0,0.0,1,105.0,1
839,839,-0.1540107055254678,-0.2,1.0,0.0,441.0,757.0,1.0,1,202.0,0
840,840,-0.714438992042154,-0.7,1.0,0.0,393.0,677.0,0.0,0,350.0,1
841,841,0.8178602202467588,0.8,0.0,0.0,269.0,850.0,0.0,1,171.0,1
842,842,-0.10605625655585194,-0.1,0.0,1.0,402.0,537.0,1.0,0,1191.0,1
843,843,-0.0372753009876462,-0.0,0.0,1.0,363.0,658.0,1.0,0,2049.0,1
844,844,0.39466676464266637,0.4,1.0,1.0,359.0,546.0,1.0,1,555.0,1
845,845,-0.7164628194372831,-0.7,0.0,1.0,263.0,611.0,1.0,0,156.0,1
846,846,-0.04153348670082713,-0.0,0.0,1.0,285.0,572.0,1.0,0,1303.0,1
847,847,-0.4306318664654654,-0.4,0.0,1.0,283.0,799.0,1.0,0,348.0,1
848,848,-0.6488612533114775,-0.6,1.0,0.0,400.0,706.0,0.0,0,244.0,1
849,849,-0.18655895664040323,-0.2,0.0,1.0,445.0,536.0,1.0,0,239.0,1
850,850,-0.3658379162733364,-0.4,1.0,0.0,349.0,735.0,0.0,0,356.0,1
851,851,0.43127731067498976,0.4,1.0,1.0,324.0,525.0,1.0,1,321.0,1
852,852,0.1126326331118056,0.1,1.0,1.0,484.0,629.0,1.0,1,357.0,1
853,853,-0.1585566706526298,-0.2,0.0,1.0,418.0,646.0,1.0,0,456.0,1
854,854,-0.12428160630564355,-0.1,0.0,1.0,333.0,534.0,1.0,0,463.0,1
855,855,-0.5885022374725909,-0.6,1.0,0.0,484.0,759.0,0.0,0,97.0,1
856,856,-0.7263073776657915,-0.7,1.0,0.0,282.0,712.0,0.0,0,206.0,1
857,857,0.5024296039333144,0.5,0.0,0.0,275.0,799.0,0.0,1,276.0,1
858,858,0.030000553919780737,0.0,1.0,1.0,251.0,857.0,1.0,1,802.0,1
859,859,0.5138034062393501,0.5,0.0,0.0,447.0,884.0,0.0,1,339.0,1
860,860,-0.6104894574732589,-0.6,0.0,1.0,491.0,960.0,1.0,0,419.0,1
861,861,-0.2894086139113051,-0.3,1.0,0.0,451.0,900.0,0.0,0,549.0,1
862,862,0.7395741268615023,0.7,0.0,0.0,393.0,577.0,0.0,1,270.0,1
863,863,0.47550062417058114,0.5,0.0,0.0,368.0,889.0,0.0,1,283.0,1
864,864,-0.63817161975082,-0.6,0.0,1.0,365.0,804.0,1.0,0,321.0,1
865,865,-0.6014264793093109,-0.6,0.0,1.0,426.0,787.0,1.0,0,347.0,1
866,866,-0.8832649768861619,-0.9,0.0,1.0,405.0,817.0,1.0,0,128.0,1
867,867,0.10098475532523665,0.1,1.0,1.0,345.0,568.0,1.0,1,517.0,1
868,868,0.33169489573681654,0.3,0.0,0.0,466.0,534.0,0.0,1,430.0,1
869,869,-0.16777525930299464,-0.2,1.0,0.0,353.0,942.0,1.0,1,235.0,0
870,870,-0.30356576980510297,-0.3,1.0,0.0,417.0,654.0,0.0,0,569.0,1
871,871,-0.8495992787902996,-0.8,0.0,1.0,285.0,904.0,1.0,0,101.0,1
872,872,0.3747642639551486,0.4,1.0,1.0,462.0,754.0,1.0,1,84.0,1
873,873,0.2730666380129031,0.3,0.0,0.0,271.0,507.0,0.0,1,1972.0,1
874,874,-0.05989913896118926,-0.1,0.0,1.0,423.0,545.0,1.0,0,462.0,1
875,875,-0.74925439696241,-0.7,1.0,0.0,377.0,666.0,0.0,0,257.0,1
876,876,-0.612184980232972,-0.6,0.0,1.0,437.0,630.0,1.0,0,233.0,1
877,877,-0.09119073762683672,-0.1,1.0,0.0,321.0,791.0,0.0,0,238.0,1
878,878,-0.25507087843137355,-0.3,1.0,0.0,299.0,994.0,0.0,0,157.0,1
879,879,0.622979460556199,0.6,0.0,0.0,363.0,876.0,0.0,1,221.0,1
880,880,0.3176316532128046,0.3,0.0,0.0,289.0,663.0,0.0,1,1248.0,1
881,881,0.25630017712593844,0.3,0.0,0.0,357.0,637.0,0.0,1,676.0,1
882,882,-0.7811772114887678,-0.8,0.0,1.0,294.0,519.0,1.0,0,177.0,1
883,883,0.5501533139852993,0.6,0.0,0.0,342.0,603.0,0.0,1,465.0,1
884,884,0.45093514342404284,0.5,1.0,1.0,402.0,765.0,1.0,1,123.0,1
885,885,0.6783467277027918,0.7,1.0,1.0,453.0,535.0,1.0,1,232.0,1
886,886,-0.11962188185748812,-0.1,0.0,1.0,419.0,569.0,1.0,0,1982.0,1
887,887,-0.32590943659981475,-0.3,1.0,0.0,467.0,989.0,0.0,0,174.0,1
888,888,0.26386956535410044,0.3,1.0,1.0,337.0,712.0,1.0,1,181.0,1
889,889,-0.15037815214405292,-0.2,0.0,1.0,399.0,510.0,1.0,0,551.0,1
890,890,0.5616783597877942,0.6,0.0,0.0,316.0,828.0,0.0,1,256.0,1
891,891,0.15390669570881055,0.2,0.0,0.0,334.0,764.0,0.0,1,202.0,1
892,892,-0.2747037744875638,-0.3,0.0,1.0,458.0,537.0,1.0,0,445.0,1
893,893,-0.4238917805424569,-0.4,0.0,1.0,381.0,795.0,1.0,0,324.0,1
894,894,-0.5756922419304238,-0.6,1.0,0.0,424.0,557.0,0.0,0,449.0,1
895,895,0.3672371066674941,0.4,1.0,1.0,408.0,824.0,1.0,1,648.0,1
896,896,-0.7624480944681493,-0.8,0.0,1.0,297.0,589.0,1.0,0,184.0,1
897,897,-0.6274174762821907,-0.6,0.0,1.0,254.0,625.0,1.0,0,491.0,1
898,898,0.32598608041878296,0.3,1.0,1.0,402.0,795.0,1.0,1,153.0,1
899,899,0.017098965846646608,0.0,1.0,1.0,298.0,943.0,1.0,1,129.0,1
900,900,0.21690799319913678,0.2,0.0,0.0,460.0,706.0,0.0,1,734.0,1
901,901,-0.23721192424431237,-0.2,1.0,0.0,448.0,520.0,1.0,1,162.0,0
902,902,-0.13281000488237382,-0.1,0.0,1.0,424.0,874.0,1.0,0,112.0,1
903,903,-0.4830876317218354,-0.5,1.0,0.0,477.0,854.0,0.0,0,139.0,1
904,904,0.006839732207698068,0.0,1.0,1.0,260.0,908.0,1.0,1,542.0,1
905,905,0.0054256385834181575,0.0,0.0,0.0,381.0,589.0,1.0,0,1210.0,0
906,906,0.2215470608265847,0.2,1.0,1.0,478.0,650.0,0.0,0,562.0,0
907,907,0.5007782702651485,0.5,1.0,1.0,401.0,820.0,1.0,1,39.0,1
908,908,0.2877411831846125,0.3,1.0,1.0,431.0,780.0,1.0,1,749.0,1
909,909,0.02025440922006938,0.0,1.0,1.0,431.0,944.0,1.0,1,595.0,1
910,910,0.041037084865830575,0.0,0.0,0.0,493.0,654.0,1.0,0,1333.0,0
911,911,-0.003985643947628348,-0.0,1.0,0.0,454.0,718.0,1.0,1,268.0,0
912,912,0.2985878247837047,0.3,1.0,1.0,379.0,852.0,1.0,1,139.0,1
913,913,-0.34880156276850893,-0.3,0.0,1.0,291.0,860.0,1.0,0,139.0,1
914,914,-0.44684970123759976,-0.4,1.0,0.0,297.0,667.0,0.0,0,356.0,1
915,915,0.3419649663625194,0.3,0.0,0.0,397.0,981.0,0.0,1,582.0,1
916,916,0.8726294560789035,0.9,0.0,0.0,267.0,906.0,0.0,1,197.0,1
917,917,-0.7613672949379967,-0.8,0.0,1.0,394.0,585.0,1.0,0,161.0,1
918,918,-0.3125797451000233,-0.3,0.0,1.0,344.0,593.0,1.0,0,363.0,1
919,919,0.1608091518735918,0.2,0.0,0.0,251.0,844.0,1.0,0,1565.0,0
920,920,0.039767201352356674,0.0,0.0,0.0,495.0,554.0,1.0,0,421.0,0
921,921,0.6209003391510691,0.6,0.0,0.0,313.0,726.0,0.0,1,251.0,1
922,922,0.8295509107118514,0.8,0.0,0.0,357.0,590.0,0.0,1,173.0,1
923,923,0.42310751240133093,0.4,0.0,0.0,386.0,936.0,0.0,1,318.0,1
924,924,-0.46292743581886137,-0.5,0.0,1.0,261.0,548.0,1.0,0,301.0,1
925,925,-0.7662309731708746,-0.8,0.0,1.0,303.0,791.0,1.0,0,166.0,1
926,926,-0.6369864888062062,-0.6,1.0,0.0,261.0,759.0,0.0,0,230.0,1
927,927,-0.37352153660529475,-0.4,1.0,0.0,474.0,742.0,0.0,0,464.0,1
928,928,0.10874738996540267,0.1,1.0,1.0,323.0,535.0,1.0,1,212.0,1
929,929,0.7017493375001739,0.7,0.0,0.0,367.0,564.0,0.0,1,279.0,1
930,930,-0.4402606369212631,-0.4,0.0,1.0,468.0,787.0,1.0,0,225.0,1
931,931,0.06791408805725396,0.1,0.0,0.0,349.0,774.0,1.0,0,2137.0,0
932,932,-0.79504450951335,-0.8,0.0,1.0,359.0,927.0,1.0,0,104.0,1
933,933,0.3601761442639627,0.4,1.0,1.0,489.0,537.0,1.0,1,294.0,1
934,934,0.0071807197007416335,0.0,1.0,1.0,342.0,865.0,1.0,1,373.0,1
935,935,-0.8870624676881917,-0.9,1.0,0.0,478.0,553.0,0.0,0,329.0,1
936,936,-0.6843758207836695,-0.7,0.0,1.0,389.0,577.0,1.0,0,264.0,1
937,937,0.7199813460771204,0.7,1.0,1.0,349.0,818.0,1.0,1,63.0,1
938,938,-0.3711766733681374,-0.4,0.0,1.0,373.0,754.0,1.0,0,823.0,1
939,939,-0.05395394564888556,-0.1,0.0,1.0,414.0,579.0,1.0,0,307.0,1
940,940,0.768553341277853,0.8,0.0,0.0,274.0,989.0,0.0,1,117.0,1
941,941,-0.2203517159871643,-0.2,0.0,1.0,490.0,880.0,1.0,0,300.0,1
942,942,0.14285126397293102,0.1,0.0,0.0,263.0,593.0,0.0,1,964.0,1
943,943,0.20103243843866092,0.2,0.0,0.0,343.0,616.0,0.0,1,1481.0,1
944,944,0.7652636431301151,0.8,0.0,0.0,497.0,937.0,0.0,1,286.0,1
945,945,0.6997536082156309,0.7,1.0,1.0,467.0,962.0,1.0,1,31.0,1
946,946,0.2609730652150869,0.3,1.0,1.0,408.0,691.0,1.0,1,241.0,1
947,947,-0.7906164476534372,-0.8,1.0,0.0,499.0,821.0,0.0,0,230.0,1
948,948,-0.7901625160849208,-0.8,0.0,1.0,471.0,517.0,1.0,0,232.0,1
949,949,0.8284709281271311,0.8,1.0,1.0,413.0,773.0,1.0,1,44.0,1
950,950,-0.16413781983245523,-0.2,0.0,1.0,268.0,767.0,1.0,0,975.0,1
951,951,-0.25837124832013225,-0.3,1.0,0.0,340.0,903.0,0.0,0,137.0,1
952,952,-0.15918907862521203,-0.2,1.0,0.0,295.0,959.0,0.0,0,436.0,1
953,953,-0.8960550018592583,-0.9,1.0,0.0,257.0,855.0,0.0,0,168.0,1
954,954,-0.7880805092240509,-0.8,1.0,0.0,271.0,597.0,0.0,0,202.0,1
955,955,0.7232779427082173,0.7,0.0,0.0,254.0,994.0,0.0,1,142.0,1
956,956,-0.17363402665135397,-0.2,0.0,1.0,289.0,759.0,1.0,0,912.0,1
957,957,-0.3535885380277952,-0.4,1.0,0.0,361.0,978.0,0.0,0,191.0,1
958,958,0.329663146033108,0.3,1.0,1.0,444.0,992.0,1.0,1,104.0,1
959,959,-0.25419990343299026,-0.3,1.0,0.0,350.0,526.0,0.0,0,574.0,1
960,960,-0.8736315036046839,-0.9,1.0,0.0,261.0,950.0,0.0,0,99.0,1
961,961,-0.4366168713542678,-0.4,0.0,1.0,454.0,756.0,1.0,0,490.0,1
962,962,-0.8794400874562183,-0.9,0.0,1.0,377.0,980.0,1.0,0,33.0,1
963,963,0.8209189706632295,0.8,1.0,1.0,372.0,798.0,1.0,1,130.0,1
964,964,0.6505099888857929,0.7,0.0,0.0,398.0,864.0,0.0,1,78.0,1
965,965,-0.07544138345619167,-0.1,0.0,1.0,301.0,693.0,1.0,0,2286.0,1
966,966,-0.20520777481938224,-0.2,1.0,0.0,401.0,809.0,0.0,0,690.0,1
967,967,0.7867746578729092,0.8,1.0,1.0,342.0,964.0,1.0,1,54.0,1
968,968,-0.5289969775178018,-0.5,1.0,0.0,339.0,857.0,0.0,0,204.0,1
969,969,0.10528815144912962,0.1,1.0,1.0,331.0,594.0,1.0,1,465.0,1
970,970,0.8296104035823969,0.8,0.0,0.0,253.0,920.0,0.0,1,407.0,1
971,971,-0.24397814725687372,-0.2,1.0,0.0,352.0,764.0,0.0,0,414.0,1
972,972,0.32568390159729466,0.3,0.0,0.0,377.0,894.0,0.0,1,149.0,1
973,973,0.16589103072434386,0.2,1.0,1.0,387.0,756.0,1.0,1,117.0,1
974,974,-0.08902851373829945,-0.1,1.0,0.0,369.0,620.0,1.0,1,461.0,0
975,975,-0.42320805365038366,-0.4,1.0,0.0,325.0,608.0,0.0,0,477.0,1
976,976,0.14482115133806495,0.1,0.0,0.0,357.0,514.0,0.0,1,849.0,1
977,977,0.3037290768452715,0.3,0.0,0.0,367.0,738.0,0.0,1,265.0,1
978,978,0.6376135231618764,0.6,0.0,0.0,399.0,798.0,0.0,1,183.0,1
979,979,-0.17954564576296472,-0.2,0.0,1.0,423.0,635.0,1.0,0,572.0,1
980,980,-0.05451151715912972,-0.1,1.0,0.0,379.0,838.0,1.0,1,313.0,0
981,981,0.4145851400342252,0.4,0.0,0.0,460.0,900.0,0.0,1,460.0,1
982,982,0.4083593427348263,0.4,1.0,1.0,313.0,984.0,1.0,1,153.0,1
983,983,-0.8108328674081791,-0.8,1.0,0.0,324.0,890.0,0.0,0,166.0,1
984,984,-0.7842953477603729,-0.8,1.0,0.0,378.0,790.0,0.0,0,152.0,1
985,985,0.5592870402974165,0.6,0.0,0.0,449.0,826.0,0.0,1,145.0,1
986,986,0.41389598319886767,0.4,1.0,1.0,429.0,960.0,1.0,1,91.0,1
987,987,0.7701003426653467,0.8,1.0,1.0,385.0,532.0,1.0,1,263.0,1
988,988,0.40584131891960873,0.4,0.0,0.0,281.0,961.0,0.0,1,588.0,1
989,989,-0.6743468791304053,-0.7,1.0,0.0,312.0,762.0,0.0,0,316.0,1
990,990,-0.4814278005891374,-0.5,1.0,0.0,473.0,732.0,0.0,0,245.0,1
991,991,0.6878882551593343,0.7,1.0,1.0,440.0,742.0,1.0,1,278.0,1
992,992,-0.22758803055388255,-0.2,0.0,1.0,370.0,801.0,1.0,0,109.0,1
993,993,-0.3964645640795692,-0.4,1.0,0.0,349.0,953.0,0.0,0,618.0,1
994,994,0.35138852738691007,0.4,1.0,1.0,421.0,775.0,1.0,1,74.0,1
995,995,0.041063631630866015,0.0,0.0,0.0,345.0,888.0,1.0,0,227.0,0
996,996,0.8842903243219401,0.9,1.0,1.0,465.0,502.0,1.0,1,113.0,1
997,997,0.5658916699854942,0.6,1.0,1.0,378.0,894.0,1.0,1,78.0,1
998,998,-0.36877850774434184,-0.4,1.0,0.0,270.0,756.0,0.0,0,534.0,1
999,999,0.562416871812561,0.6,1.0,1.0,270.0,569.0,1.0,1,151.0,1
1000,1000,-0.8020753452351435,-0.8,0.0,1.0,352.0,539.0,1.0,0,129.0,1
1001,1001,0.09299069279323902,0.1,1.0,1.0,381.0,745.0,1.0,1,854.0,1
1002,1002,0.5039803574154257,0.5,0.0,0.0,412.0,637.0,0.0,1,181.0,1
1003,1003,-0.4334233264303581,-0.4,1.0,0.0,416.0,605.0,0.0,0,359.0,1
1004,1004,-0.7258839301933075,-0.7,1.0,0.0,381.0,519.0,0.0,0,310.0,1
1005,1005,-0.5808605495301118,-0.6,1.0,0.0,313.0,757.0,0.0,0,130.0,1
1006,1006,-0.07957865049559976,-0.1,0.0,1.0,442.0,944.0,1.0,0,104.0,1
1007,1007,-0.22042685040651566,-0.2,1.0,0.0,467.0,976.0,1.0,1,207.0,0
1008,1008,0.33859889164038115,0.3,1.0,1.0,403.0,723.0,1.0,1,24.0,1
1009,1009,0.7655701903722475,0.8,0.0,0.0,448.0,602.0,0.0,1,190.0,1
1010,1010,-0.3614357218994587,-0.4,1.0,0.0,405.0,689.0,0.0,0,246.0,1
1011,1011,-0.0839382186846861,-0.1,1.0,0.0,413.0,628.0,0.0,0,329.0,1
1012,1012,-0.430335835475582,-0.4,0.0,1.0,261.0,870.0,1.0,0,69.0,1
1013,1013,0.40213668653553725,0.4,1.0,1.0,496.0,650.0,1.0,1,144.0,1
1014,1014,0.690365747754066,0.7,1.0,1.0,391.0,816.0,1.0,1,33.0,1
1015,1015,0.0007736179207645799,0.0,1.0,1.0,253.0,652.0,0.0,0,375.0,0
1016,1016,-0.25087580293018996,-0.3,1.0,0.0,366.0,993.0,0.0,0,171.0,1
1017,1017,-0.044478633906890996,-0.0,0.0,1.0,259.0,842.0,1.0,0,179.0,1
1018,1018,0.3842617454596272,0.4,1.0,1.0,265.0,580.0,1.0,1,145.0,1
1019,1019,-0.8998256329852103,-0.9,1.0,0.0,458.0,931.0,0.0,0,111.0,1
1020,1020,0.01693372815099936,0.0,1.0,1.0,468.0,834.0,1.0,1,208.0,1
1021,1021,-0.06824190036844446,-0.1,1.0,0.0,450.0,826.0,1.0,1,144.0,0
1022,1022,-0.28049291810695687,-0.3,0.0,1.0,366.0,978.0,1.0,0,746.0,1
1023,1023,0.6351532023586156,0.6,1.0,1.0,393.0,847.0,1.0,1,140.0,1
1024,1024,0.7131205065477663,0.7,1.0,1.0,357.0,531.0,1.0,1,172.0,1
1025,1025,0.5939140063668357,0.6,0.0,0.0,442.0,858.0,0.0,1,520.0,1
1026,1026,0.6807314527943104,0.7,1.0,1.0,318.0,795.0,1.0,1,187.0,1
1027,1027,-0.8873103413848747,-0.9,1.0,0.0,447.0,669.0,0.0,0,284.0,1
1028,1028,0.26645123181000374,0.3,0.0,0.0,352.0,634.0,0.0,1,414.0,1
1029,1029,-0.7171887524698195,-0.7,1.0,0.0,305.0,738.0,0.0,0,137.0,1
1030,1030,-0.40960742357246366,-0.4,1.0,0.0,383.0,622.0,0.0,0,505.0,1
1031,1031,-0.5262655887272566,-0.5,0.0,1.0,341.0,771.0,1.0,0,248.0,1
1032,1032,-0.731652512108284,-0.7,1.0,0.0,490.0,885.0,0.0,0,115.0,1
1033,1033,-0.024188184815915115,-0.0,0.0,1.0,326.0,689.0,1.0,0,275.0,1
1034,1034,0.48478260746237856,0.5,1.0,1.0,364.0,940.0,1.0,1,376.0,1
1035,1035,-0.8506987501763742,-0.9,0.0,1.0,472.0,845.0,1.0,0,333.0,1
1036,1036,0.1459388592340639,0.1,1.0,1.0,287.0,514.0,1.0,1,329.0,1
1037,1037,-0.6344948771430077,-0.6,0.0,1.0,297.0,552.0,1.0,0,411.0,1
1038,1038,0.6174581032558965,0.6,1.0,1.0,374.0,765.0,1.0,1,91.0,1
1039,1039,0.6402521861648752,0.6,1.0,1.0,273.0,814.0,1.0,1,163.0,1
1040,1040,0.7048111899350756,0.7,0.0,0.0,455.0,854.0,0.0,1,351.0,1
1041,1041,-0.10800026087726033,-0.1,0.0,1.0,292.0,557.0,0.0,1,921.0,0
1042,1042,0.8213190158600162,0.8,0.0,0.0,447.0,837.0,0.0,1,256.0,1
1043,1043,0.45011832976736554,0.5,0.0,0.0,307.0,585.0,0.0,1,998.0,1
1044,1044,0.07193598038930415,0.1,0.0,0.0,293.0,732.0,0.0,1,1445.0,1
1045,1045,0.5531707408514467,0.6,1.0,1.0,450.0,542.0,1.0,1,238.0,1
1046,1046,0.7625320483760479,0.8,0.0,0.0,299.0,968.0,0.0,1,93.0,1
1047,1047,0.5603936058373328,0.6,1.0,1.0,323.0,658.0,1.0,1,129.0,1
1048,1048,-0.18136143455337217,-0.2,1.0,0.0,394.0,628.0,1.0,1,378.0,0
1049,1049,0.05699312689840441,0.1,1.0,1.0,435.0,777.0,0.0,0,198.0,0
1050,1050,0.25176182718595286,0.3,1.0,1.0,442.0,627.0,1.0,1,551.0,1
1051,1051,0.017698993397383234,0.0,0.0,0.0,362.0,562.0,0.0,1,1156.0,1
1052,1052,-0.4096623619948926,-0.4,0.0,1.0,489.0,585.0,1.0,0,546.0,1
1053,1053,-0.6291071705240704,-0.6,0.0,1.0,430.0,795.0,1.0,0,5.0,1
1054,1054,0.5833301776993877,0.6,1.0,1.0,344.0,541.0,1.0,1,195.0,1
1055,1055,0.8910002886974359,0.9,1.0,1.0,440.0,692.0,1.0,1,238.0,1
1056,1056,-0.6494422398399202,-0.6,1.0,0.0,441.0,695.0,0.0,0,234.0,1
1057,1057,-0.5149096977384104,-0.5,1.0,0.0,406.0,804.0,0.0,0,360.0,1
1058,1058,-0.3126116680067563,-0.3,0.0,1.0,478.0,616.0,1.0,0,366.0,1
1059,1059,-0.4414584855007588,-0.4,0.0,1.0,286.0,586.0,1.0,0,588.0,1
1060,1060,-0.6860860886988893,-0.7,0.0,1.0,299.0,696.0,1.0,0,215.0,1
1061,1061,-0.6033087967904945,-0.6,0.0,1.0,350.0,604.0,1.0,0,406.0,1
1062,1062,0.11827854102401891,0.1,0.0,0.0,424.0,519.0,0.0,1,607.0,1
1063,1063,0.28374929873394616,0.3,0.0,0.0,334.0,944.0,0.0,1,622.0,1
1064,1064,0.21828541553242953,0.2,0.0,0.0,431.0,673.0,0.0,1,436.0,1
1065,1065,0.20744727704029453,0.2,1.0,1.0,309.0,733.0,1.0,1,318.0,1
1066,1066,-0.36824964921354875,-0.4,1.0,0.0,309.0,553.0,0.0,0,638.0,1
1067,1067,0.6768524050107797,0.7,0.0,0.0,434.0,916.0,1.0,0,150.0,0
1068,1068,-0.2805911812497197,-0.3,1.0,0.0,337.0,656.0,0.0,0,1187.0,1
1069,1069,0.07727842773205029,0.1,1.0,1.0,340.0,790.0,0.0,0,230.0,0
1070,1070,0.265030911671294,0.3,0.0,0.0,390.0,848.0,0.0,1,632.0,1
1071,1071,-0.12899004305130346,-0.1,1.0,0.0,460.0,873.0,0.0,0,607.0,1
1072,1072,0.6295559596753656,0.6,0.0,0.0,260.0,743.0,0.0,1,377.0,1
1073,1073,0.6438737979451835,0.6,0.0,0.0,438.0,658.0,0.0,1,314.0,1
1074,1074,-0.3908937671796403,-0.4,0.0,1.0,485.0,538.0,1.0,0,297.0,1
1075,1075,-0.5457884086441027,-0.5,1.0,0.0,320.0,615.0,0.0,0,255.0,1
1076,1076,0.14558180762202977,0.1,1.0,1.0,267.0,989.0,1.0,1,154.0,1
1077,1077,-0.5458844167306451,-0.5,0.0,1.0,491.0,831.0,1.0,0,238.0,1
1078,1078,0.4235365866468298,0.4,0.0,0.0,469.0,989.0,0.0,1,82.0,1
1079,1079,-0.46474233151646854,-0.5,1.0,0.0,480.0,846.0,0.0,0,584.0,1
1080,1080,-0.5366231317256775,-0.5,0.0,1.0,335.0,685.0,1.0,0,230.0,1
1081,1081,-0.88727653280907,-0.9,0.0,1.0,432.0,967.0,1.0,0,161.0,1
1082,1082,0.8567911214075875,0.9,0.0,0.0,435.0,552.0,0.0,1,283.0,1
1083,1083,0.049569453643505734,0.0,0.0,0.0,399.0,923.0,0.0,1,1748.0,1
1084,1084,-0.11218579466405354,-0.1,1.0,0.0,400.0,660.0,0.0,0,600.0,1
1085,1085,0.7606486972461685,0.8,0.0,0.0,456.0,851.0,0.0,1,63.0,1
1086,1086,0.5610328516521851,0.6,0.0,0.0,323.0,793.0,0.0,1,434.0,1
1087,1087,0.012201159998684874,0.0,1.0,1.0,295.0,618.0,1.0,1,477.0,1
1088,1088,-0.23453265584836047,-0.2,1.0,0.0,303.0,626.0,0.0,0,321.0,1
1089,1089,-0.14537972918197872,-0.1,1.0,0.0,433.0,977.0,1.0,1,490.0,0
1090,1090,0.25507860373106384,0.3,1.0,1.0,303.0,907.0,1.0,1,140.0,1
1091,1091,0.6167945034997274,0.6,1.0,1.0,351.0,928.0,1.0,1,201.0,1
1092,1092,0.36564799730501074,0.4,1.0,1.0,310.0,895.0,1.0,1,495.0,1
1093,1093,0.818571337462554,0.8,1.0,1.0,359.0,995.0,1.0,1,-134.0,1
1094,1094,-0.5851689490116831,-0.6,0.0,1.0,347.0,836.0,1.0,0,57.0,1
1095,1095,-0.6127313604092475,-0.6,0.0,1.0,443.0,971.0,1.0,0,156.0,1
1096,1096,-0.49613260422334066,-0.5,0.0,1.0,270.0,884.0,1.0,0,166.0,1
1097,1097,0.7337700598930122,0.7,0.0,0.0,351.0,818.0,0.0,1,181.0,1
1098,1098,0.6683674374402023,0.7,0.0,0.0,326.0,578.0,0.0,1,176.0,1
1099,1099,0.20979235199008095,0.2,1.0,1.0,438.0,992.0,1.0,1,250.0,1
1100,1100,-0.33083823683626457,-0.3,0.0,1.0,271.0,652.0,1.0,0,797.0,1
1101,1101,0.8157745707308041,0.8,1.0,1.0,341.0,593.0,1.0,1,166.0,1
1102,1102,0.5425725330202774,0.5,0.0,0.0,385.0,517.0,0.0,1,288.0,1
1103,1103,0.5924106224261668,0.6,0.0,0.0,466.0,649.0,0.0,1,315.0,1
1104,1104,0.1678819400393935,0.2,1.0,1.0,327.0,848.0,1.0,1,275.0,1
1105,1105,-0.15646155195071776,-0.2,0.0,1.0,438.0,538.0,0.0,1,474.0,0
1106,1106,-0.5339230839011959,-0.5,1.0,0.0,332.0,628.0,0.0,0,320.0,1
1107,1107,0.37175985934915834,0.4,1.0,1.0,352.0,510.0,1.0,1,298.0,1
1108,1108,0.5862164658261683,0.6,0.0,0.0,366.0,574.0,0.0,1,150.0,1
1109,1109,0.12085913011116556,0.1,1.0,1.0,473.0,706.0,1.0,1,511.0,1
1110,1110,-0.055772766253686545,-0.1,0.0,1.0,323.0,515.0,0.0,1,1322.0,0
1111,1111,-0.2371582402394632,-0.2,0.0,1.0,306.0,788.0,1.0,0,146.0,1
1112,1112,0.023419610371552047,0.0,0.0,0.0,252.0,944.0,1.0,0,864.0,0
1113,1113,-0.694157538773088,-0.7,1.0,0.0,420.0,757.0,0.0,0,233.0,1
1114,1114,-0.8601965313519463,-0.9,1.0,0.0,353.0,621.0,0.0,0,316.0,1
1115,1115,0.5742560017703281,0.6,0.0,0.0,314.0,990.0,0.0,1,636.0,1
1116,1116,-0.5355920435207508,-0.5,1.0,0.0,374.0,706.0,0.0,0,270.0,1
1117,1117,0.14305588497231325,0.1,0.0,0.0,457.0,586.0,1.0,0,2277.0,0
1118,1118,0.8383614367836237,0.8,0.0,0.0,361.0,896.0,0.0,1,203.0,1
1119,1119,0.31755740067286553,0.3,1.0,1.0,346.0,984.0,1.0,1,150.0,1
1120,1120,-0.6326390517306022,-0.6,0.0,1.0,433.0,626.0,1.0,0,241.0,1
1121,1121,-0.44428872169935724,-0.4,0.0,1.0,410.0,570.0,1.0,0,330.0,1
1122,1122,0.761845932506047,0.8,1.0,1.0,276.0,675.0,1.0,1,79.0,1
1123,1123,-0.6803974251715753,-0.7,1.0,0.0,438.0,598.0,0.0,0,144.0,1
1124,1124,-0.7252108868990302,-0.7,0.0,1.0,338.0,510.0,1.0,0,162.0,1
1125,1125,0.8891724196596745,0.9,1.0,1.0,404.0,778.0,1.0,1,98.0,1
1126,1126,-0.8519595910778621,-0.9,0.0,1.0,340.0,540.0,1.0,0,180.0,1
1127,1127,0.7655641522841,0.8,1.0,1.0,274.0,914.0,1.0,1,482.0,1
1128,1128,0.8287196374225217,0.8,1.0,1.0,278.0,775.0,1.0,1,107.0,1
1129,1129,0.7897836350653055,0.8,1.0,1.0,485.0,817.0,1.0,1,108.0,1
1130,1130,0.615874041296783,0.6,0.0,0.0,429.0,964.0,0.0,1,307.0,1
1131,1131,-0.7778831351942845,-0.8,1.0,0.0,478.0,564.0,0.0,0,118.0,1
1132,1132,0.8773511946766938,0.9,1.0,1.0,489.0,796.0,1.0,1,55.0,1
1133,1133,0.6275154701428879,0.6,0.0,0.0,357.0,981.0,0.0,1,82.0,1
1134,1134,0.45516205399307863,0.5,1.0,1.0,269.0,516.0,1.0,1,385.0,1
1135,1135,-0.41631324170242623,-0.4,1.0,0.0,356.0,821.0,0.0,0,463.0,1
1136,1136,0.3114930473030192,0.3,1.0,1.0,318.0,957.0,1.0,1,105.0,1
1137,1137,0.4964838089806517,0.5,0.0,0.0,443.0,764.0,0.0,1,333.0,1
1138,1138,0.12712228435214168,0.1,0.0,0.0,445.0,616.0,0.0,1,389.0,1
1139,1139,-0.22684093869238653,-0.2,0.0,1.0,319.0,942.0,1.0,0,159.0,1
1140,1140,-0.44131542907559035,-0.4,1.0,0.0,430.0,977.0,0.0,0,353.0,1
1141,1141,-0.6730246830039023,-0.7,1.0,0.0,254.0,846.0,0.0,0,220.0,1
1142,1142,0.8989200234590496,0.9,0.0,0.0,250.0,923.0,0.0,1,347.0,1
1143,1143,-0.09164119524816028,-0.1,1.0,0.0,449.0,570.0,0.0,0,1171.0,1
1144,1144,0.8716226560450419,0.9,1.0,1.0,490.0,638.0,1.0,1,132.0,1
1145,1145,0.3155697174780675,0.3,1.0,1.0,383.0,564.0,1.0,1,443.0,1
1146,1146,0.457220938480318,0.5,0.0,0.0,300.0,525.0,0.0,1,605.0,1
1147,1147,-0.44932221196171135,-0.4,1.0,0.0,269.0,937.0,1.0,1,14.0,0
1148,1148,0.882687308312896,0.9,1.0,1.0,403.0,730.0,1.0,1,107.0,1
1149,1149,-0.6453221920364289,-0.6,1.0,0.0,421.0,612.0,0.0,0,377.0,1
1150,1150,-0.10520023537206735,-0.1,0.0,1.0,389.0,886.0,1.0,0,1135.0,1
1151,1151,0.002318311955665453,0.0,0.0,0.0,375.0,746.0,1.0,0,659.0,0
1152,1152,-0.5877360033675609,-0.6,0.0,1.0,496.0,773.0,1.0,0,201.0,1
1153,1153,-0.02041387022948349,-0.0,1.0,0.0,360.0,982.0,1.0,1,288.0,0
1154,1154,0.36052207029175587,0.4,0.0,0.0,447.0,908.0,0.0,1,215.0,1
1155,1155,0.7672472994462606,0.8,1.0,1.0,370.0,638.0,1.0,1,152.0,1
1156,1156,-0.2008124632268059,-0.2,1.0,0.0,338.0,996.0,0.0,0,286.0,1
1157,1157,-0.05312742826396599,-0.1,1.0,0.0,425.0,986.0,1.0,1,129.0,0
1158,1158,0.3982910743025224,0.4,1.0,1.0,396.0,675.0,1.0,1,239.0,1
1159,1159,0.7327896119374181,0.7,1.0,1.0,400.0,612.0,1.0,1,318.0,1
1160,1160,-0.8542843192284506,-0.9,0.0,1.0,315.0,678.0,1.0,0,97.0,1
1161,1161,-0.18680095987836998,-0.2,0.0,1.0,463.0,908.0,1.0,0,2289.0,1
1162,1162,0.6816497970174554,0.7,1.0,1.0,265.0,698.0,1.0,1,317.0,1
1163,1163,-0.6410303587331011,-0.6,1.0,0.0,288.0,603.0,0.0,0,689.0,1
1164,1164,-0.6833756738665455,-0.7,0.0,1.0,452.0,913.0,1.0,0,705.0,1
1165,1165,-0.09675146767568288,-0.1,1.0,0.0,469.0,814.0,0.0,0,487.0,1
1166,1166,0.0563388813535971,0.1,0.0,0.0,442.0,687.0,1.0,0,271.0,0
1167,1167,0.6067642635675613,0.6,0.0,0.0,329.0,887.0,0.0,1,194.0,1
1168,1168,0.5050470064671807,0.5,1.0,1.0,250.0,736.0,1.0,1,214.0,1
1169,1169,0.8414295694963806,0.8,1.0,1.0,273.0,521.0,1.0,1,196.0,1
1170,1170,0.32046521281074825,0.3,0.0,0.0,400.0,774.0,0.0,1,486.0,1
1171,1171,0.8193896712088723,0.8,1.0,1.0,297.0,697.0,1.0,1,96.0,1
1172,1172,-0.38465847963762245,-0.4,1.0,0.0,288.0,774.0,1.0,1,578.0,0
1173,1173,-0.7852454449295334,-0.8,0.0,1.0,498.0,887.0,1.0,0,245.0,1
1174,1174,0.8819427206794103,0.9,0.0,0.0,463.0,629.0,0.0,1,168.0,1
1175,1175,-0.2066502479850464,-0.2,0.0,1.0,373.0,824.0,1.0,0,173.0,1
1176,1176,-0.4353504343007693,-0.4,1.0,0.0,267.0,710.0,1.0,1,403.0,0
1177,1177,0.4901576214184725,0.5,1.0,1.0,446.0,772.0,1.0,1,92.0,1
1178,1178,0.15025847497057254,0.2,0.0,0.0,487.0,803.0,0.0,1,890.0,1
1179,1179,-0.2178170685907963,-0.2,0.0,1.0,380.0,957.0,1.0,0,863.0,1
1180,1180,-0.19745117838445658,-0.2,1.0,0.0,481.0,819.0,0.0,0,360.0,1
1181,1181,0.3391504560941455,0.3,1.0,1.0,272.0,925.0,1.0,1,483.0,1
1182,1182,0.4649978545500336,0.5,0.0,0.0,447.0,917.0,0.0,1,366.0,1
1183,1183,0.4977897412876794,0.5,1.0,1.0,329.0,690.0,1.0,1,181.0,1
1184,1184,0.531230502551021,0.5,1.0,1.0,437.0,736.0,1.0,1,207.0,1
1185,1185,-0.20345542147788498,-0.2,0.0,1.0,383.0,567.0,1.0,0,1180.0,1
1186,1186,0.7158613403934108,0.7,1.0,1.0,275.0,912.0,1.0,1,163.0,1
1187,1187,0.8342790798121694,0.8,1.0,1.0,276.0,694.0,1.0,1,210.0,1
1188,1188,-0.679874176777352,-0.7,0.0,1.0,454.0,701.0,1.0,0,105.0,1
1189,1189,-0.12897678132990875,-0.1,1.0,0.0,375.0,923.0,0.0,0,182.0,1
1190,1190,0.3380387067720624,0.3,0.0,0.0,372.0,979.0,0.0,1,59.0,1
1191,1191,-0.7464555360604099,-0.7,0.0,1.0,432.0,539.0,1.0,0,179.0,1
1192,1192,-0.8737181381970934,-0.9,1.0,0.0,311.0,719.0,0.0,0,160.0,1
1193,1193,0.21300442366265304,0.2,1.0,1.0,368.0,930.0,1.0,1,282.0,1
1194,1194,-0.7141124363633495,-0.7,1.0,0.0,336.0,665.0,0.0,0,299.0,1
1195,1195,0.40869620867198375,0.4,1.0,1.0,320.0,740.0,1.0,1,460.0,1
1196,1196,-0.7248912990809545,-0.7,1.0,0.0,408.0,593.0,0.0,0,309.0,1
1197,1197,0.5969687970599974,0.6,1.0,1.0,406.0,805.0,1.0,1,169.0,1
1198,1198,0.7322196381431535,0.7,1.0,1.0,417.0,756.0,1.0,1,-83.0,1
1199,1199,0.41431300983033104,0.4,1.0,1.0,315.0,669.0,1.0,1,196.0,1
1200,1200,0.62391611089935,0.6,1.0,1.0,307.0,883.0,1.0,1,120.0,1
1201,1201,0.42670056312642923,0.4,0.0,0.0,359.0,603.0,0.0,1,798.0,1
1202,1202,-0.7986768349187988,-0.8,1.0,0.0,258.0,670.0,0.0,0,342.0,1
1203,1203,-0.6594942409020494,-0.7,1.0,0.0,478.0,860.0,0.0,0,362.0,1
1204,1204,-0.5425649251637847,-0.5,0.0,1.0,309.0,904.0,1.0,0,257.0,1
1205,1205,0.7257872119672885,0.7,0.0,0.0,307.0,743.0,0.0,1,430.0,1
1206,1206,-0.7155262765926164,-0.7,0.0,1.0,287.0,800.0,1.0,0,103.0,1
1207,1207,0.42013383730139064,0.4,0.0,0.0,447.0,964.0,0.0,1,249.0,1
1208,1208,0.10313213484873496,0.1,1.0,1.0,271.0,912.0,1.0,1,237.0,1
1209,1209,0.25465881768942766,0.3,0.0,0.0,418.0,984.0,0.0,1,1118.0,1
1210,1210,0.4589229895852457,0.5,0.0,0.0,496.0,654.0,0.0,1,550.0,1
1211,1211,-0.08909770864695432,-0.1,0.0,1.0,454.0,574.0,1.0,0,212.0,1
1212,1212,0.48059707956533926,0.5,0.0,0.0,317.0,972.0,0.0,1,251.0,1
1213,1213,0.4728261535368342,0.5,0.0,0.0,399.0,779.0,0.0,1,202.0,1
1214,1214,0.21361007933181486,0.2,0.0,0.0,353.0,852.0,0.0,1,365.0,1
1215,1215,0.7307072055580383,0.7,1.0,1.0,483.0,959.0,1.0,1,88.0,1
1216,1216,0.3265627783139017,0.3,1.0,1.0,273.0,878.0,1.0,1,519.0,1
1217,1217,-0.6529651673811916,-0.7,0.0,1.0,400.0,554.0,1.0,0,266.0,1
1218,1218,0.6139457326600272,0.6,1.0,1.0,328.0,556.0,1.0,1,216.0,1
1219,1219,-0.33775747213582996,-0.3,1.0,0.0,295.0,688.0,0.0,0,657.0,1
1220,1220,0.6348097562988514,0.6,0.0,0.0,487.0,700.0,0.0,1,603.0,1
1221,1221,-0.5793331561605581,-0.6,1.0,0.0,256.0,557.0,0.0,0,307.0,1
1222,1222,-0.01912744360154306,-0.0,1.0,0.0,323.0,507.0,1.0,1,880.0,0
1223,1223,0.8332593354580679,0.8,1.0,1.0,439.0,907.0,1.0,1,294.0,1
1224,1224,-0.8318070873857666,-0.8,0.0,1.0,494.0,701.0,1.0,0,105.0,1
1225,1225,-0.07355967614967751,-0.1,1.0,0.0,412.0,948.0,1.0,1,-40.0,0
1226,1226,0.7250348014315339,0.7,0.0,0.0,397.0,797.0,0.0,1,246.0,1
1227,1227,-0.15431078201427506,-0.2,1.0,0.0,435.0,645.0,1.0,1,630.0,0
1228,1228,0.8152699172692034,0.8,1.0,1.0,268.0,823.0,1.0,1,69.0,1
1229,1229,-0.1291949974078056,-0.1,0.0,1.0,273.0,776.0,1.0,0,561.0,1
1230,1230,-0.8486786510641903,-0.8,0.0,1.0,334.0,923.0,1.0,0,913.0,1
1231,1231,0.4323353435586351,0.4,1.0,1.0,427.0,666.0,1.0,1,367.0,1
1232,1232,0.27235947850030284,0.3,0.0,0.0,453.0,997.0,0.0,1,440.0,1
1233,1233,-0.8631423175814571,-0.9,0.0,1.0,431.0,732.0,1.0,0,167.0,1
1234,1234,0.14859166104169252,0.1,1.0,1.0,259.0,992.0,1.0,1,189.0,1
1235,1235,-0.281715871696836,-0.3,0.0,1.0,488.0,698.0,1.0,0,134.0,1
1236,1236,-0.8375578156234288,-0.8,1.0,0.0,469.0,752.0,0.0,0,269.0,1
1237,1237,-0.5751370978558898,-0.6,0.0,1.0,352.0,752.0,1.0,0,276.0,1
1238,1238,-0.30523746206439517,-0.3,1.0,0.0,271.0,772.0,0.0,0,397.0,1
1239,1239,0.7110962055692688,0.7,0.0,0.0,329.0,929.0,0.0,1,132.0,1
1240,1240,0.3971650400319099,0.4,1.0,1.0,361.0,945.0,1.0,1,94.0,1
1241,1241,0.8237499087425094,0.8,1.0,1.0,441.0,674.0,1.0,1,85.0,1
1242,1242,-0.863954020488826,-0.9,0.0,1.0,482.0,902.0,1.0,0,126.0,1
1243,1243,0.7640411108697472,0.8,1.0,1.0,296.0,654.0,1.0,1,340.0,1
1244,1244,-0.15188514287719534,-0.2,0.0,1.0,463.0,847.0,1.0,0,1220.0,1
1245,1245,0.18578671417796688,0.2,1.0,1.0,412.0,665.0,1.0,1,153.0,1
1246,1246,-0.11324967853607926,-0.1,0.0,1.0,334.0,894.0,1.0,0,1032.0,1
1247,1247,-0.7105217857572825,-0.7,0.0,1.0,296.0,604.0,1.0,0,180.0,1
1248,1248,-0.5340813797516029,-0.5,1.0,0.0,454.0,683.0,0.0,0,233.0,1
1249,1249,0.7444014946690455,0.7,1.0,1.0,251.0,664.0,1.0,1,535.0,1
1250,1250,0.20374130101375865,0.2,0.0,0.0,322.0,833.0,0.0,1,815.0,1
1251,1251,0.7709128228581023,0.8,0.0,0.0,469.0,585.0,0.0,1,776.0,1
1252,1252,0.6557792055993908,0.7,1.0,1.0,384.0,600.0,1.0,1,176.0,1
1253,1253,-0.17524537370150672,-0.2,0.0,1.0,335.0,969.0,1.0,0,66.0,1
1254,1254,0.534918502462541,0.5,1.0,1.0,260.0,715.0,1.0,1,105.0,1
1255,1255,-0.47847315949506286,-0.5,1.0,0.0,269.0,926.0,0.0,0,105.0,1
1256,1256,-0.7014493976742784,-0.7,0.0,1.0,370.0,992.0,1.0,0,158.0,1
1257,1257,0.16967361622611354,0.2,0.0,0.0,296.0,924.0,0.0,1,1500.0,1
1258,1258,-0.18282920881253717,-0.2,1.0,0.0,398.0,798.0,0.0,0,144.0,1
1259,1259,0.8681091293333264,0.9,0.0,0.0,263.0,615.0,0.0,1,292.0,1
1260,1260,0.33444856311562343,0.3,1.0,1.0,260.0,857.0,1.0,1,423.0,1
1261,1261,-0.22320102779362505,-0.2,0.0,1.0,482.0,842.0,1.0,0,146.0,1
1262,1262,-0.11907930506239484,-0.1,1.0,0.0,276.0,639.0,1.0,1,525.0,0
1263,1263,-0.2104169388218139,-0.2,0.0,1.0,484.0,681.0,1.0,0,255.0,1
1264,1264,0.29779833351594365,0.3,0.0,0.0,294.0,689.0,0.0,1,1547.0,1
1265,1265,0.13980315061371995,0.1,1.0,1.0,297.0,690.0,1.0,1,1033.0,1
1266,1266,0.7999346735560392,0.8,1.0,1.0,313.0,775.0,1.0,1,102.0,1
1267,1267,0.615219253681864,0.6,0.0,0.0,456.0,509.0,0.0,1,385.0,1
1268,1268,-0.20151506938748875,-0.2,0.0,1.0,352.0,805.0,1.0,0,323.0,1
1269,1269,-0.008296869589392464,-0.0,1.0,0.0,272.0,730.0,1.0,1,88.0,0
1270,1270,-0.6986299590031241,-0.7,0.0,1.0,260.0,951.0,1.0,0,189.0,1
1271,1271,-0.5862258003351111,-0.6,0.0,1.0,454.0,859.0,1.0,0,287.0,1
1272,1272,0.20228636721117532,0.2,1.0,1.0,488.0,809.0,1.0,1,303.0,1
1273,1273,-0.7764708799924345,-0.8,1.0,0.0,266.0,955.0,0.0,0,419.0,1
1274,1274,0.7220378545520009,0.7,1.0,1.0,261.0,784.0,1.0,1,225.0,1
1275,1275,0.41439269597673245,0.4,0.0,0.0,427.0,970.0,0.0,1,603.0,1
1276,1276,-0.8972754393684146,-0.9,0.0,1.0,473.0,570.0,1.0,0,87.0,1
1277,1277,-0.8656312707716038,-0.9,1.0,0.0,336.0,899.0,0.0,0,75.0,1
1278,1278,0.1069079657140134,0.1,0.0,0.0,498.0,854.0,0.0,1,1468.0,1
1279,1279,0.17706382443430868,0.2,1.0,1.0,329.0,627.0,1.0,1,214.0,1
1280,1280,-0.7292909397629745,-0.7,1.0,0.0,330.0,598.0,0.0,0,192.0,1
1281,1281,-0.7674286302246904,-0.8,1.0,0.0,372.0,585.0,0.0,0,263.0,1
1282,1282,0.3412703199235493,0.3,0.0,0.0,484.0,664.0,0.0,1,922.0,1
1283,1283,0.4340357185432765,0.4,0.0,0.0,498.0,785.0,0.0,1,337.0,1
1284,1284,-0.04441352392895359,-0.0,1.0,0.0,255.0,852.0,0.0,0,353.0,1
1285,1285,0.6599132965504159,0.7,1.0,1.0,434.0,608.0,1.0,1,148.0,1
1286,1286,-0.024916127114003928,-0.0,1.0,0.0,291.0,525.0,1.0,1,334.0,0
1287,1287,0.7993064793182337,0.8,1.0,1.0,381.0,670.0,1.0,1,49.0,1
1288,1288,0.5439881666912717,0.5,1.0,1.0,423.0,992.0,1.0,1,95.0,1
1289,1289,0.49305828100196913,0.5,0.0,0.0,333.0,564.0,0.0,1,553.0,1
1290,1290,-0.7855011869280286,-0.8,0.0,1.0,455.0,766.0,1.0,0,159.0,1
1291,1291,-0.5660476398005326,-0.6,0.0,1.0,431.0,566.0,1.0,0,163.0,1
1292,1292,0.7145666120907032,0.7,0.0,0.0,297.0,938.0,0.0,1,275.0,1
1293,1293,-0.13666989872296453,-0.1,0.0,1.0,366.0,958.0,1.0,0,596.0,1
1294,1294,0.0427227479338963,0.0,1.0,1.0,487.0,518.0,1.0,1,525.0,1
1295,1295,-0.3148861298951767,-0.3,1.0,0.0,262.0,780.0,0.0,0,378.0,1
1296,1296,0.60880727562985,0.6,1.0,1.0,358.0,725.0,1.0,1,197.0,1
1297,1297,0.3614643943451138,0.4,0.0,0.0,292.0,889.0,0.0,1,629.0,1
1298,1298,0.7596175938048234,0.8,0.0,0.0,262.0,635.0,0.0,1,363.0,1
1299,1299,-0.6087150187955994,-0.6,0.0,1.0,310.0,919.0,1.0,0,491.0,1
1300,1300,-0.14945322055304056,-0.1,1.0,0.0,442.0,924.0,0.0,0,444.0,1
1301,1301,0.7819260144068733,0.8,1.0,1.0,362.0,556.0,1.0,1,232.0,1
1302,1302,0.657609281502829,0.7,0.0,0.0,321.0,964.0,0.0,1,315.0,1
1303,1303,0.4351941653986534,0.4,0.0,0.0,315.0,874.0,0.0,1,211.0,1
1304,1304,-0.642651608861188,-0.6,1.0,0.0,494.0,606.0,0.0,0,270.0,1
1305,1305,-0.686713287871051,-0.7,0.0,1.0,254.0,975.0,1.0,0,221.0,1
1306,1306,-0.6087297646032632,-0.6,0.0,1.0,266.0,745.0,1.0,0,99.0,1
1307,1307,-0.5862095880998,-0.6,0.0,1.0,359.0,900.0,1.0,0,401.0,1
1308,1308,-0.3282629205133796,-0.3,1.0,0.0,351.0,564.0,0.0,0,495.0,1
1309,1309,0.04527383264471785,0.0,0.0,0.0,466.0,840.0,0.0,1,1084.0,1
1310,1310,0.5112772735568635,0.5,0.0,0.0,338.0,913.0,0.0,1,319.0,1
1311,1311,-0.5797950760212571,-0.6,1.0,0.0,435.0,777.0,0.0,0,298.0,1
1312,1312,-0.7082765974463012,-0.7,0.0,1.0,466.0,753.0,1.0,0,221.0,1
1313,1313,0.4363039237031615,0.4,1.0,1.0,421.0,851.0,1.0,1,128.0,1
1314,1314,0.711427793620868,0.7,0.0,0.0,255.0,635.0,0.0,1,170.0,1
1315,1315,-0.5755814656263867,-0.6,0.0,1.0,276.0,847.0,1.0,0,317.0,1
1316,1316,-0.1425533205470617,-0.1,0.0,1.0,409.0,566.0,1.0,0,325.0,1
1317,1317,0.7820389522926273,0.8,1.0,1.0,401.0,963.0,1.0,1,26.0,1
1318,1318,-0.804230390273618,-0.8,0.0,1.0,363.0,864.0,1.0,0,183.0,1
1319,1319,-0.029916127179273055,-0.0,0.0,1.0,365.0,545.0,0.0,1,2820.0,0
1320,1320,-0.18601397917340456,-0.2,1.0,0.0,396.0,963.0,0.0,0,151.0,1
1321,1321,-0.1473506669183312,-0.1,0.0,1.0,292.0,742.0,1.0,0,176.0,1
1322,1322,-0.02799528363505155,-0.0,1.0,0.0,490.0,685.0,0.0,0,465.0,1
1323,1323,0.19367326892931203,0.2,0.0,0.0,328.0,663.0,0.0,1,959.0,1
1324,1324,0.8928192601512875,0.9,0.0,0.0,459.0,877.0,0.0,1,164.0,1
1325,1325,-0.16992128079552027,-0.2,1.0,0.0,499.0,706.0,0.0,0,675.0,1
1326,1326,-0.22505187585838093,-0.2,1.0,0.0,477.0,790.0,0.0,0,613.0,1
1327,1327,-0.4748588716767152,-0.5,0.0,1.0,383.0,956.0,1.0,0,141.0,1
1328,1328,-0.5212011132929515,-0.5,0.0,1.0,334.0,831.0,1.0,0,305.0,1
1329,1329,-0.11749580342643218,-0.1,0.0,1.0,302.0,903.0,1.0,0,195.0,1
1330,1330,0.7361298256360066,0.7,0.0,0.0,391.0,725.0,0.0,1,144.0,1
1331,1331,0.716123836383929,0.7,1.0,1.0,426.0,865.0,1.0,1,249.0,1
1332,1332,0.5508087830813239,0.6,0.0,0.0,484.0,639.0,0.0,1,347.0,1
1333,1333,-0.5643282938930361,-0.6,0.0,1.0,305.0,893.0,1.0,0,132.0,1
1334,1334,-0.10865194551249202,-0.1,0.0,1.0,471.0,753.0,1.0,0,1516.0,1
1335,1335,0.8651201607995701,0.9,0.0,0.0,297.0,861.0,0.0,1,142.0,1
1336,1336,0.15388965344419636,0.2,0.0,0.0,366.0,660.0,0.0,1,524.0,1
1337,1337,-0.03560160162120252,-0.0,1.0,0.0,256.0,530.0,1.0,1,744.0,0
1338,1338,-0.07592788159090869,-0.1,1.0,0.0,253.0,948.0,1.0,1,249.0,0
1339,1339,0.1987957995933981,0.2,1.0,1.0,338.0,785.0,1.0,1,347.0,1
1340,1340,0.08341068678251173,0.1,1.0,1.0,457.0,772.0,1.0,1,181.0,1
1341,1341,-0.27452486000731,-0.3,0.0,1.0,465.0,742.0,1.0,0,203.0,1
1342,1342,-0.8067154289940887,-0.8,1.0,0.0,283.0,624.0,0.0,0,253.0,1
1343,1343,-0.6455797536101928,-0.6,1.0,0.0,354.0,625.0,0.0,0,241.0,1
1344,1344,0.10507772076097444,0.1,1.0,1.0,449.0,952.0,1.0,1,-71.0,1
1345,1345,0.056667567178738665,0.1,1.0,1.0,477.0,710.0,1.0,1,113.0,1
1346,1346,0.6520414285175756,0.7,1.0,1.0,358.0,771.0,1.0,1,91.0,1
1347,1347,-0.24309490897247832,-0.2,0.0,1.0,483.0,848.0,1.0,0,299.0,1
1348,1348,0.5191909193379772,0.5,1.0,1.0,487.0,611.0,1.0,1,222.0,1
1349,1349,0.4474872674253282,0.4,1.0,1.0,437.0,887.0,1.0,1,126.0,1
1350,1350,0.3545069030094302,0.4,1.0,1.0,398.0,504.0,1.0,1,378.0,1
1351,1351,-0.40319161064843695,-0.4,0.0,1.0,394.0,651.0,1.0,0,315.0,1
1352,1352,0.1694187539198838,0.2,1.0,1.0,470.0,841.0,1.0,1,139.0,1
1353,1353,0.8688478926275759,0.9,0.0,0.0,349.0,932.0,0.0,1,179.0,1
1354,1354,-0.4548235868372758,-0.5,1.0,0.0,334.0,809.0,0.0,0,167.0,1
1355,1355,0.6350370095560606,0.6,1.0,1.0,257.0,973.0,1.0,1,110.0,1
1356,1356,0.7804720397705401,0.8,0.0,0.0,296.0,875.0,0.0,1,239.0,1
1357,1357,-0.05599322446348276,-0.1,1.0,0.0,372.0,916.0,1.0,1,512.0,0
1358,1358,0.132308746332768,0.1,1.0,1.0,402.0,874.0,1.0,1,664.0,1
1359,1359,0.4640668421639492,0.5,0.0,0.0,390.0,713.0,0.0,1,277.0,1
1360,1360,0.6221380393964452,0.6,1.0,1.0,379.0,863.0,1.0,1,28.0,1
1361,1361,-0.2402060197827537,-0.2,0.0,1.0,339.0,548.0,1.0,0,1013.0,1
1362,1362,-0.3969278655443892,-0.4,0.0,1.0,329.0,708.0,1.0,0,743.0,1
1363,1363,-0.11923040125268003,-0.1,0.0,1.0,375.0,523.0,1.0,0,382.0,1
1364,1364,0.246359613285971,0.2,0.0,0.0,255.0,963.0,0.0,1,702.0,1
1365,1365,0.29202765543695597,0.3,0.0,0.0,401.0,910.0,0.0,1,349.0,1
1366,1366,-0.5975848797422775,-0.6,0.0,1.0,313.0,869.0,1.0,0,98.0,1
1367,1367,0.8258352167611293,0.8,1.0,1.0,292.0,580.0,1.0,1,98.0,1
1368,1368,-0.7789169420916686,-0.8,0.0,1.0,489.0,872.0,1.0,0,279.0,1
1369,1369,-0.1689634393802022,-0.2,1.0,0.0,265.0,703.0,0.0,0,382.0,1
1370,1370,0.6746325286464648,0.7,0.0,0.0,400.0,870.0,0.0,1,100.0,1
1371,1371,-0.415033304124468,-0.4,0.0,1.0,464.0,670.0,1.0,0,256.0,1
1372,1372,-0.8428181066352995,-0.8,1.0,0.0,264.0,623.0,0.0,0,283.0,1
1373,1373,-0.856957682091096,-0.9,1.0,0.0,494.0,667.0,0.0,0,149.0,1
1374,1374,-0.19735234526692913,-0.2,0.0,1.0,423.0,503.0,1.0,0,834.0,1
1375,1375,-0.32129048700768814,-0.3,1.0,0.0,483.0,782.0,0.0,0,625.0,1
1376,1376,-0.7296555862317341,-0.7,1.0,0.0,480.0,782.0,0.0,0,268.0,1
1377,1377,0.4554485479331457,0.5,0.0,0.0,476.0,502.0,0.0,1,542.0,1
1378,1378,-0.4993390575852081,-0.5,0.0,1.0,312.0,706.0,1.0,0,402.0,1
1379,1379,0.5472798121068848,0.5,0.0,0.0,286.0,533.0,0.0,1,571.0,1
1380,1380,0.22505079943281736,0.2,1.0,1.0,482.0,802.0,1.0,1,266.0,1
1381,1381,0.7164376638859237,0.7,0.0,0.0,389.0,703.0,0.0,1,158.0,1
1382,1382,0.4196208898722583,0.4,0.0,0.0,329.0,966.0,0.0,1,365.0,1
1383,1383,0.775744136742181,0.8,1.0,1.0,456.0,561.0,1.0,1,113.0,1
1384,1384,0.34875715202671753,0.3,0.0,0.0,293.0,723.0,0.0,1,1274.0,1
1385,1385,0.16115482227542144,0.2,1.0,1.0,345.0,941.0,1.0,1,304.0,1
1386,1386,-0.09475181398780019,-0.1,0.0,1.0,286.0,887.0,1.0,0,257.0,1
1387,1387,-0.7961171927062061,-0.8,1.0,0.0,320.0,946.0,0.0,0,164.0,1
1388,1388,-0.3194224188151442,-0.3,0.0,1.0,483.0,541.0,1.0,0,616.0,1
1389,1389,-0.3739083077399187,-0.4,1.0,0.0,347.0,712.0,0.0,0,391.0,1
1390,1390,0.0964357944632902,0.1,0.0,0.0,485.0,737.0,0.0,1,428.0,1
1391,1391,-0.7276236127481664,-0.7,1.0,0.0,288.0,882.0,0.0,0,130.0,1
1392,1392,0.1928701464028545,0.2,0.0,0.0,474.0,693.0,0.0,1,603.0,1
1393,1393,-0.2748651349927246,-0.3,1.0,0.0,290.0,830.0,0.0,0,170.0,1
1394,1394,0.01098465009471683,0.0,1.0,1.0,496.0,811.0,1.0,1,243.0,1
1395,1395,-0.7414420578120028,-0.7,0.0,1.0,356.0,945.0,1.0,0,189.0,1
1396,1396,-0.4181799112226825,-0.4,1.0,0.0,475.0,846.0,0.0,0,389.0,1
1397,1397,-0.26481630749125373,-0.3,1.0,0.0,484.0,984.0,0.0,0,742.0,1
1398,1398,-0.5791521524163712,-0.6,1.0,0.0,260.0,628.0,0.0,0,232.0,1
1399,1399,-0.5107752950224937,-0.5,1.0,0.0,288.0,765.0,0.0,0,247.0,1
1400,1400,0.17597886660558448,0.2,0.0,0.0,466.0,535.0,0.0,1,629.0,1
1401,1401,0.08173413616696656,0.1,1.0,1.0,470.0,877.0,1.0,1,433.0,1
1402,1402,0.08130158775001795,0.1,1.0,1.0,350.0,764.0,0.0,0,386.0,0
1403,1403,-0.6924699362108392,-0.7,0.0,1.0,259.0,711.0,1.0,0,120.0,1
1404,1404,-0.3346429028799819,-0.3,0.0,1.0,269.0,768.0,1.0,0,353.0,1
1405,1405,0.7290619549207201,0.7,0.0,0.0,290.0,683.0,0.0,1,197.0,1
1406,1406,-0.7313968936926388,-0.7,1.0,0.0,402.0,600.0,0.0,0,258.0,1
1407,1407,-0.7303550393410136,-0.7,0.0,1.0,387.0,578.0,1.0,0,455.0,1
1408,1408,-0.00896718873393132,-0.0,0.0,1.0,344.0,956.0,0.0,1,1080.0,0
1409,1409,-0.24836096135999142,-0.2,1.0,0.0,305.0,937.0,1.0,1,118.0,0
1410,1410,0.7942561573433463,0.8,1.0,1.0,498.0,841.0,1.0,1,101.0,1
1411,1411,-0.6779758070631969,-0.7,1.0,0.0,467.0,622.0,0.0,0,241.0,1
1412,1412,0.8725749969653805,0.9,0.0,0.0,426.0,648.0,0.0,1,166.0,1
1413,1413,0.6420039235348255,0.6,0.0,0.0,343.0,638.0,0.0,1,459.0,1
1414,1414,0.07051709056408562,0.1,0.0,0.0,316.0,943.0,1.0,0,631.0,0
1415,1415,0.510411556418476,0.5,1.0,1.0,382.0,565.0,1.0,1,383.0,1
1416,1416,0.7236756768946072,0.7,1.0,1.0,270.0,564.0,1.0,1,166.0,1
1417,1417,0.76980123148939,0.8,1.0,1.0,271.0,971.0,1.0,1,68.0,1
1418,1418,0.49239179788859333,0.5,1.0,1.0,402.0,957.0,1.0,1,111.0,1
1419,1419,-0.30215478410895524,-0.3,0.0,1.0,424.0,998.0,1.0,0,548.0,1
1420,1420,0.7617648037371166,0.8,0.0,0.0,427.0,827.0,0.0,1,166.0,1
1421,1421,-0.13109070306735737,-0.1,0.0,1.0,274.0,717.0,1.0,0,159.0,1
1422,1422,-0.7646184112122446,-0.8,1.0,0.0,456.0,587.0,0.0,0,127.0,1
1423,1423,0.4268765062559364,0.4,0.0,0.0,263.0,525.0,0.0,1,422.0,1
1424,1424,0.05157499978614144,0.1,0.0,0.0,333.0,542.0,0.0,1,675.0,1
1425,1425,0.7824552789410725,0.8,0.0,0.0,265.0,607.0,0.0,1,398.0,1
1426,1426,0.5662262712181619,0.6,1.0,1.0,466.0,755.0,1.0,1,179.0,1
1427,1427,0.22382901749508954,0.2,0.0,0.0,384.0,899.0,0.0,1,2087.0,1
1428,1428,-0.49773901506888796,-0.5,1.0,0.0,387.0,700.0,0.0,0,283.0,1
1429,1429,-0.29541441081809783,-0.3,0.0,1.0,385.0,630.0,1.0,0,345.0,1
1430,1430,0.185510949019274,0.2,0.0,0.0,482.0,615.0,0.0,1,543.0,1
1431,1431,-0.4235969357277356,-0.4,1.0,0.0,473.0,547.0,1.0,1,350.0,0
1432,1432,0.8979973010423156,0.9,0.0,0.0,360.0,741.0,0.0,1,109.0,1
1433,1433,0.5409253052395958,0.5,1.0,1.0,381.0,967.0,1.0,1,202.0,1
1434,1434,-0.5583138765076607,-0.6,1.0,0.0,276.0,760.0,0.0,0,354.0,1
1435,1435,-0.760975461406322,-0.8,0.0,1.0,337.0,549.0,1.0,0,224.0,1
1436,1436,-0.42308358735161905,-0.4,1.0,0.0,421.0,756.0,0.0,0,203.0,1
1437,1437,0.4134626998865848,0.4,0.0,0.0,443.0,876.0,0.0,1,551.0,1
1438,1438,0.07981492984641814,0.1,0.0,0.0,419.0,716.0,1.0,0,55.0,0
1439,1439,-0.10067548153069683,-0.1,1.0,0.0,363.0,703.0,1.0,1,614.0,0
1440,1440,0.019638945600831015,0.0,0.0,0.0,439.0,702.0,1.0,0,599.0,0
1441,1441,0.8410276760984831,0.8,0.0,0.0,429.0,714.0,0.0,1,177.0,1
1442,1442,-0.7453122516723983,-0.7,1.0,0.0,451.0,756.0,0.0,0,243.0,1
1443,1443,0.3027346151133582,0.3,0.0,0.0,431.0,535.0,0.0,1,344.0,1
1444,1444,-0.21988808321696363,-0.2,1.0,0.0,368.0,854.0,0.0,0,368.0,1
1445,1445,0.45951293128815796,0.5,1.0,1.0,310.0,836.0,1.0,1,144.0,1
1446,1446,0.17986290921334158,0.2,1.0,1.0,354.0,798.0,1.0,1,118.0,1
1447,1447,-0.8673953497647742,-0.9,0.0,1.0,373.0,980.0,1.0,0,47.0,1
1448,1448,0.6203267398887883,0.6,1.0,1.0,454.0,707.0,1.0,1,359.0,1
1449,1449,0.7923081738493029,0.8,0.0,0.0,460.0,607.0,0.0,1,253.0,1
1450,1450,0.5085908157683411,0.5,1.0,1.0,397.0,900.0,1.0,1,53.0,1
1451,1451,-0.4305130623680254,-0.4,0.0,1.0,410.0,721.0,1.0,0,909.0,1
1452,1452,0.2671826651727024,0.3,0.0,0.0,419.0,645.0,0.0,1,216.0,1
1453,1453,-0.00911007443625933,-0.0,1.0,0.0,423.0,948.0,1.0,1,229.0,0
1454,1454,-0.6925205238522536,-0.7,1.0,0.0,361.0,935.0,0.0,0,214.0,1
1455,1455,0.3439188396361833,0.3,1.0,1.0,488.0,588.0,1.0,1,454.0,1
1456,1456,-0.7856825886354959,-0.8,1.0,0.0,433.0,771.0,0.0,0,56.0,1
1457,1457,-0.6162921359600793,-0.6,1.0,0.0,321.0,891.0,0.0,0,148.0,1
1458,1458,-0.7387502039134721,-0.7,0.0,1.0,340.0,909.0,1.0,0,151.0,1
1459,1459,0.8594602768629259,0.9,1.0,1.0,483.0,826.0,1.0,1,171.0,1
1460,1460,0.046630948011107565,0.0,0.0,0.0,491.0,564.0,1.0,0,505.0,0
1461,1461,0.2654714024318793,0.3,0.0,0.0,494.0,630.0,0.0,1,796.0,1
1462,1462,0.6998116433182798,0.7,1.0,1.0,254.0,849.0,1.0,1,27.0,1
1463,1463,0.011498346882462096,0.0,1.0,1.0,263.0,695.0,0.0,0,252.0,0
1464,1464,0.5249998435520496,0.5,1.0,1.0,350.0,789.0,1.0,1,341.0,1
1465,1465,0.3890171591626369,0.4,1.0,1.0,415.0,578.0,1.0,1,257.0,1
1466,1466,-0.206457130635758,-0.2,0.0,1.0,445.0,609.0,1.0,0,1556.0,1
1467,1467,-0.8130127627806981,-0.8,1.0,0.0,260.0,753.0,0.0,0,257.0,1
1468,1468,0.49559124977935876,0.5,0.0,0.0,446.0,643.0,0.0,1,841.0,1
1469,1469,-0.29771097046113015,-0.3,1.0,0.0,354.0,790.0,0.0,0,176.0,1
1470,1470,-0.2993683642358691,-0.3,0.0,1.0,335.0,938.0,1.0,0,147.0,1
1471,1471,0.2971106281526551,0.3,0.0,0.0,309.0,813.0,0.0,1,688.0,1
1472,1472,-0.5255968280744328,-0.5,0.0,1.0,403.0,638.0,1.0,0,189.0,1
1473,1473,0.7342611911797062,0.7,1.0,1.0,274.0,651.0,1.0,1,265.0,1
1474,1474,-0.04598045991008026,-0.0,0.0,1.0,350.0,688.0,0.0,1,1212.0,0
1475,1475,-0.4412421756235445,-0.4,0.0,1.0,457.0,978.0,0.0,1,155.0,0
1476,1476,0.319024578625443,0.3,0.0,0.0,322.0,736.0,0.0,1,272.0,1
1477,1477,-0.8657739931183603,-0.9,1.0,0.0,481.0,528.0,0.0,0,301.0,1
1478,1478,-0.02805642078049142,-0.0,0.0,1.0,376.0,836.0,0.0,1,938.0,0
1479,1479,0.6307698553264697,0.6,1.0,1.0,310.0,562.0,1.0,1,208.0,1
1480,1480,-0.3383840328738109,-0.3,0.0,1.0,303.0,755.0,1.0,0,182.0,1
1481,1481,0.4349975607798634,0.4,0.0,0.0,431.0,788.0,0.0,1,351.0,1
1482,1482,0.8247420265062667,0.8,1.0,1.0,326.0,597.0,1.0,1,277.0,1
1483,1483,0.6083633535361944,0.6,0.0,0.0,465.0,852.0,0.0,1,93.0,1
1484,1484,-0.6032966106492972,-0.6,0.0,1.0,464.0,872.0,1.0,0,64.0,1
1485,1485,-0.6394173384962769,-0.6,1.0,0.0,392.0,753.0,0.0,0,275.0,1
1486,1486,-0.3866551687880848,-0.4,1.0,0.0,494.0,936.0,0.0,0,940.0,1
1487,1487,-0.7754953963021985,-0.8,0.0,1.0,315.0,936.0,1.0,0,149.0,1
1488,1488,0.13167358749823943,0.1,1.0,1.0,477.0,743.0,1.0,1,230.0,1
1489,1489,-0.05780031458753143,-0.1,0.0,1.0,282.0,552.0,0.0,1,1766.0,0
1490,1490,0.16362594067835745,0.2,1.0,1.0,379.0,613.0,1.0,1,738.0,1
1491,1491,-0.4448933057016423,-0.4,0.0,1.0,380.0,903.0,1.0,0,107.0,1
1492,1492,0.641519988443236,0.6,0.0,0.0,487.0,529.0,0.0,1,324.0,1
1493,1493,-0.7210517064953897,-0.7,0.0,1.0,295.0,710.0,1.0,0,125.0,1
