,trial,coherence,coherence_bin,correct_side,target_onset,checker_onset,decision,decision_time,correct_decision,configuration,chosen_color
0,0,0.42688853558500106,0.4,1.0,401.0,611.0,1.0,228.0,1,1.0,1.0
1,1,-0.8569224104480335,-0.9,1.0,364.0,627.0,1.0,-441.0,1,-1.0,-1.0
2,2,-0.8919182512791414,-0.9,1.0,408.0,570.0,1.0,82.0,1,-1.0,-1.0
3,3,0.6051182883198768,0.6,-1.0,377.0,592.0,0.0,4031.0,0,-1.0,0.0
4,4,0.8281425584583156,0.8,-1.0,371.0,761.0,0.0,3868.0,0,-1.0,0.0
5,5,0.17144767107798897,0.2,-1.0,440.0,661.0,0.0,3899.0,0,-1.0,0.0
6,6,0.6837508275168559,0.7,1.0,411.0,811.0,1.0,208.0,1,1.0,1.0
7,7,0.04945380268623256,0.0,-1.0,262.0,663.0,0.0,4075.0,0,-1.0,0.0
8,8,-0.5542674034444472,-0.6,1.0,356.0,692.0,1.0,52.0,1,-1.0,-1.0
9,9,0.14442554449995348,0.1,-1.0,419.0,934.0,1.0,-753.0,0,-1.0,-1.0
10,10,-0.05807964713618208,-0.1,1.0,257.0,907.0,1.0,1226.0,1,-1.0,-1.0
11,11,-0.7360232041319069,-0.7,-1.0,470.0,645.0,0.0,3885.0,0,1.0,0.0
12,12,-0.535712181515245,-0.5,-1.0,304.0,982.0,0.0,3714.0,0,1.0,0.0
13,13,0.32519944391157873,0.3,1.0,381.0,815.0,1.0,344.0,1,1.0,1.0
14,14,0.6920696133849374,0.7,-1.0,367.0,946.0,0.0,3687.0,0,-1.0,0.0
15,15,-0.5353330669737104,-0.5,1.0,475.0,906.0,1.0,-751.0,1,-1.0,-1.0
16,16,-0.08823820134654958,-0.1,-1.0,306.0,587.0,0.0,4107.0,0,1.0,0.0
17,17,0.8226333035620238,0.8,1.0,426.0,528.0,1.0,156.0,1,1.0,1.0
18,18,0.6175554589155164,0.6,-1.0,265.0,997.0,0.0,3738.0,0,-1.0,0.0
19,19,0.042389976402943064,0.0,1.0,498.0,512.0,0.0,3990.0,0,1.0,0.0
20,20,0.5074756986871799,0.5,-1.0,254.0,922.0,1.0,-826.0,0,-1.0,-1.0
21,21,-0.054219891350658966,-0.1,1.0,371.0,940.0,1.0,1519.0,1,-1.0,-1.0
22,22,-0.5663996825418031,-0.6,1.0,291.0,742.0,1.0,57.0,1,-1.0,-1.0
23,23,-0.7703512729563946,-0.8,1.0,434.0,505.0,1.0,-279.0,1,-1.0,-1.0
24,24,0.3547676211892269,0.4,-1.0,260.0,650.0,1.0,-500.0,0,-1.0,-1.0
25,25,0.44173045105920317,0.4,-1.0,262.0,804.0,1.0,-586.0,0,-1.0,-1.0
26,26,-0.5706211745503618,-0.6,-1.0,316.0,597.0,0.0,4087.0,0,1.0,0.0
27,27,0.49595956618422876,0.5,-1.0,462.0,889.0,1.0,-731.0,0,-1.0,-1.0
28,28,-0.568974940721275,-0.6,1.0,438.0,864.0,1.0,198.0,1,-1.0,-1.0
29,29,-0.8239243463692952,-0.8,-1.0,364.0,954.0,0.0,3682.0,0,1.0,0.0
30,30,-0.06469190637099842,-0.1,1.0,451.0,876.0,1.0,1663.0,1,-1.0,-1.0
31,31,-0.7141339775275974,-0.7,-1.0,330.0,885.0,0.0,3785.0,0,1.0,0.0
32,32,-0.5301480685381519,-0.5,-1.0,413.0,503.0,0.0,4084.0,0,1.0,0.0
33,33,-0.47763382390419123,-0.5,-1.0,318.0,563.0,0.0,4119.0,0,1.0,0.0
34,34,0.7727739065654132,0.8,-1.0,318.0,644.0,0.0,4038.0,0,-1.0,0.0
35,35,0.5152356090089915,0.5,1.0,294.0,661.0,1.0,235.0,1,1.0,1.0
36,36,0.42583636732135044,0.4,1.0,347.0,508.0,1.0,455.0,1,1.0,1.0
37,37,0.7776410065306439,0.8,1.0,263.0,893.0,1.0,84.0,1,1.0,1.0
38,38,0.3026151973457619,0.3,-1.0,473.0,626.0,0.0,3901.0,0,-1.0,0.0
39,39,-0.7535818885907488,-0.8,-1.0,369.0,958.0,0.0,3673.0,0,1.0,0.0
40,40,-0.4927255532522895,-0.5,1.0,393.0,564.0,1.0,-97.0,1,-1.0,-1.0
41,41,0.6742177334986653,0.7,-1.0,275.0,509.0,1.0,-364.0,0,-1.0,-1.0
42,42,-0.7216440112919866,-0.7,-1.0,492.0,976.0,0.0,3532.0,0,1.0,0.0
43,43,0.33933680102859787,0.3,1.0,265.0,691.0,1.0,284.0,1,1.0,1.0
44,44,0.12769121552352736,0.1,1.0,251.0,533.0,1.0,836.0,1,1.0,1.0
45,45,0.6518344240237087,0.7,-1.0,330.0,851.0,0.0,3819.0,0,-1.0,0.0
46,46,0.5119597037273577,0.5,-1.0,299.0,742.0,0.0,3959.0,0,-1.0,0.0
47,47,-0.3275085516190114,-0.3,1.0,253.0,872.0,1.0,-545.0,1,-1.0,-1.0
48,48,-0.7540045000247066,-0.8,1.0,385.0,940.0,1.0,105.0,1,-1.0,-1.0
49,49,0.8878066399040548,0.9,-1.0,256.0,714.0,0.0,4030.0,0,-1.0,0.0
50,50,-0.20721776353287813,-0.2,1.0,417.0,808.0,1.0,-325.0,1,-1.0,-1.0
51,51,-0.832811582831415,-0.8,-1.0,308.0,517.0,0.0,4175.0,0,1.0,0.0
52,52,0.2643593247099475,0.3,-1.0,357.0,603.0,0.0,4040.0,0,-1.0,0.0
53,53,0.5478782953395042,0.5,-1.0,326.0,876.0,0.0,3798.0,0,-1.0,0.0
54,54,0.7747308362739725,0.8,1.0,459.0,626.0,1.0,145.0,1,1.0,1.0
55,55,0.32664155980082776,0.3,-1.0,302.0,715.0,1.0,-507.0,0,-1.0,-1.0
56,56,-0.5847419735556654,-0.6,1.0,284.0,503.0,1.0,153.0,1,-1.0,-1.0
57,57,-0.35015473246614925,-0.4,1.0,281.0,736.0,1.0,233.0,1,-1.0,-1.0
58,58,0.037425631732726505,0.0,-1.0,321.0,726.0,1.0,2293.0,0,-1.0,-1.0
59,59,-0.11411279093703319,-0.1,1.0,478.0,871.0,1.0,931.0,1,-1.0,-1.0
60,60,0.19633071696340754,0.2,1.0,400.0,798.0,1.0,522.0,1,1.0,1.0
61,61,0.6597956745279051,0.7,1.0,438.0,923.0,1.0,149.0,1,1.0,1.0
62,62,0.35167823558194333,0.4,-1.0,423.0,623.0,0.0,3954.0,0,-1.0,0.0
63,63,0.15108429944047252,0.2,1.0,360.0,548.0,1.0,-38.0,1,1.0,1.0
64,64,0.23790658152627764,0.2,1.0,296.0,625.0,1.0,439.0,1,1.0,1.0
65,65,0.1932969595880466,0.2,-1.0,263.0,957.0,1.0,-670.0,0,-1.0,-1.0
66,66,-0.5796424859767788,-0.6,1.0,328.0,881.0,1.0,331.0,1,-1.0,-1.0
67,67,-0.6703098214319871,-0.7,1.0,297.0,924.0,1.0,199.0,1,-1.0,-1.0
68,68,-0.4889541621217544,-0.5,1.0,314.0,764.0,1.0,152.0,1,-1.0,-1.0
69,69,-0.5863612479948888,-0.6,1.0,409.0,835.0,1.0,536.0,1,-1.0,-1.0
70,70,-0.7071580301287651,-0.7,-1.0,342.0,985.0,0.0,3673.0,0,1.0,0.0
71,71,-0.6181984211358746,-0.6,1.0,412.0,656.0,1.0,-468.0,1,-1.0,-1.0
72,72,0.3227291864122258,0.3,1.0,271.0,533.0,1.0,616.0,1,1.0,1.0
73,73,0.2804215081322484,0.3,-1.0,476.0,666.0,0.0,3858.0,0,-1.0,0.0
74,74,-0.7793992548728286,-0.8,1.0,262.0,939.0,1.0,-71.0,1,-1.0,-1.0
75,75,0.8316142590620031,0.8,-1.0,477.0,536.0,1.0,-93.0,0,-1.0,-1.0
76,76,0.18075794550524116,0.2,-1.0,486.0,626.0,0.0,3888.0,0,-1.0,0.0
77,77,0.544643141188078,0.5,1.0,304.0,525.0,1.0,211.0,1,1.0,1.0
78,78,0.7282971428079362,0.7,-1.0,387.0,645.0,0.0,3968.0,0,-1.0,0.0
79,79,0.23752321559005318,0.2,-1.0,495.0,766.0,0.0,3739.0,0,-1.0,0.0
80,80,-0.08595030301154116,-0.1,-1.0,275.0,654.0,0.0,4071.0,0,1.0,0.0
81,81,0.5033907888691974,0.5,-1.0,414.0,718.0,0.0,3868.0,0,-1.0,0.0
82,82,0.16621248392450216,0.2,1.0,425.0,788.0,1.0,1347.0,1,1.0,1.0
83,83,-0.5461814217354344,-0.5,1.0,359.0,991.0,1.0,-50.0,1,-1.0,-1.0
84,84,-0.3279631782392922,-0.3,-1.0,323.0,947.0,0.0,3730.0,0,1.0,0.0
85,85,0.4371052190171515,0.4,-1.0,420.0,846.0,0.0,3734.0,0,-1.0,0.0
86,86,-0.8447288452608211,-0.8,1.0,266.0,826.0,1.0,-32.0,1,-1.0,-1.0
87,87,0.8750026695980565,0.9,-1.0,272.0,727.0,1.0,-99.0,0,-1.0,-1.0
88,88,0.738937304128897,0.7,-1.0,401.0,628.0,0.0,3971.0,0,-1.0,0.0
89,89,0.5226330016296744,0.5,1.0,377.0,669.0,1.0,284.0,1,1.0,1.0
90,90,-0.1280513274802767,-0.1,-1.0,252.0,944.0,0.0,3804.0,0,1.0,0.0
91,91,0.39621415522806436,0.4,1.0,314.0,539.0,1.0,287.0,1,1.0,1.0
92,92,0.49487781991530355,0.5,1.0,464.0,739.0,1.0,277.0,1,1.0,1.0
93,93,-0.18315968172306651,-0.2,1.0,488.0,720.0,1.0,392.0,1,-1.0,-1.0
94,94,0.03914852424758186,0.0,-1.0,394.0,556.0,1.0,-340.0,0,-1.0,-1.0
95,95,0.15446869729758073,0.2,1.0,283.0,546.0,1.0,2101.0,1,1.0,1.0
96,96,-0.0876406415629929,-0.1,1.0,388.0,936.0,1.0,1086.0,1,-1.0,-1.0
97,97,-0.36083193447217765,-0.4,1.0,490.0,745.0,1.0,95.0,1,-1.0,-1.0
98,98,-0.6530365414338508,-0.7,1.0,371.0,889.0,1.0,-640.0,1,-1.0,-1.0
99,99,0.557852457773992,0.6,-1.0,279.0,555.0,0.0,4166.0,0,-1.0,0.0
100,100,-0.054680347176005006,-0.1,-1.0,467.0,995.0,0.0,3538.0,0,1.0,0.0
101,101,-0.5764142172243641,-0.6,1.0,279.0,908.0,1.0,273.0,1,-1.0,-1.0
102,102,-0.09284144591874821,-0.1,1.0,304.0,675.0,1.0,1491.0,1,-1.0,-1.0
103,103,-0.662377351197507,-0.7,-1.0,415.0,710.0,0.0,3875.0,0,1.0,0.0
104,104,-0.8320118162928729,-0.8,-1.0,303.0,939.0,0.0,3758.0,0,1.0,0.0
105,105,0.5114130621338436,0.5,-1.0,369.0,740.0,0.0,3891.0,0,-1.0,0.0
106,106,0.5247124683883292,0.5,1.0,265.0,559.0,1.0,226.0,1,1.0,1.0
107,107,0.12337065206989906,0.1,-1.0,444.0,807.0,0.0,3749.0,0,-1.0,0.0
108,108,0.06444805437766976,0.1,-1.0,265.0,972.0,0.0,3763.0,0,-1.0,0.0
109,109,-0.28435945078943814,-0.3,1.0,466.0,825.0,1.0,399.0,1,-1.0,-1.0
110,110,-0.5091035318679464,-0.5,1.0,323.0,548.0,1.0,39.0,1,-1.0,-1.0
111,111,0.6516465533105628,0.7,1.0,323.0,722.0,1.0,275.0,1,1.0,1.0
112,112,-0.8394559546354142,-0.8,-1.0,405.0,897.0,0.0,3698.0,0,1.0,0.0
113,113,0.7797129764766361,0.8,-1.0,307.0,655.0,0.0,4038.0,0,-1.0,0.0
114,114,-0.23596724318693751,-0.2,-1.0,423.0,545.0,0.0,4032.0,0,1.0,0.0
115,115,-0.8901359272826485,-0.9,1.0,339.0,904.0,1.0,-433.0,1,-1.0,-1.0
116,116,-0.40268849207530294,-0.4,-1.0,456.0,943.0,0.0,3601.0,0,1.0,0.0
117,117,-0.6647690804748665,-0.7,1.0,486.0,538.0,1.0,156.0,1,-1.0,-1.0
118,118,-0.5707707087363112,-0.6,1.0,344.0,974.0,1.0,-128.0,1,-1.0,-1.0
119,119,-0.8594008337720582,-0.9,-1.0,340.0,740.0,0.0,3920.0,0,1.0,0.0
120,120,0.45331924164219173,0.5,-1.0,329.0,855.0,0.0,3816.0,0,-1.0,0.0
121,121,-0.3919167438216029,-0.4,1.0,496.0,698.0,1.0,226.0,1,-1.0,-1.0
122,122,0.07514134092465896,0.1,1.0,409.0,814.0,0.0,3777.0,0,1.0,0.0
123,123,0.2565517775417069,0.3,-1.0,421.0,634.0,0.0,3945.0,0,-1.0,0.0
124,124,-0.0381431743322419,-0.0,-1.0,451.0,725.0,0.0,3824.0,0,1.0,0.0
125,125,-0.7776373330275707,-0.8,1.0,444.0,522.0,1.0,124.0,1,-1.0,-1.0
126,126,0.8154242647753392,0.8,-1.0,485.0,597.0,0.0,3918.0,0,-1.0,0.0
127,127,-0.22439938876670484,-0.2,1.0,336.0,916.0,1.0,218.0,1,-1.0,-1.0
128,128,0.7547991703841915,0.8,1.0,319.0,748.0,1.0,53.0,1,1.0,1.0
129,129,-0.039047827346374464,-0.0,1.0,474.0,708.0,1.0,218.0,1,-1.0,-1.0
130,130,-0.661313017175138,-0.7,-1.0,274.0,708.0,0.0,4018.0,0,1.0,0.0
131,131,-0.012342957329441018,-0.0,-1.0,269.0,659.0,0.0,4072.0,0,1.0,0.0
132,132,0.14138541483395428,0.1,-1.0,341.0,731.0,1.0,-472.0,0,-1.0,-1.0
133,133,-0.014238852768670207,-0.0,-1.0,432.0,937.0,0.0,3631.0,0,1.0,0.0
134,134,0.7210408939979437,0.7,1.0,426.0,928.0,1.0,56.0,1,1.0,1.0
135,135,-0.62800083861023,-0.6,-1.0,460.0,856.0,0.0,3684.0,0,1.0,0.0
136,136,0.45775684202811207,0.5,-1.0,412.0,980.0,1.0,-682.0,0,-1.0,-1.0
137,137,-0.6567555624624111,-0.7,-1.0,283.0,550.0,0.0,4167.0,0,1.0,0.0
138,138,0.21233824436932724,0.2,1.0,464.0,798.0,1.0,708.0,1,1.0,1.0
139,139,0.5334626417995493,0.5,-1.0,496.0,659.0,0.0,3845.0,0,-1.0,0.0
140,140,-0.8926373980318001,-0.9,-1.0,428.0,772.0,0.0,3800.0,0,1.0,0.0
141,141,0.7024750366767477,0.7,1.0,350.0,529.0,1.0,-839.0,1,1.0,1.0
142,142,0.781487765311731,0.8,-1.0,492.0,739.0,1.0,-501.0,0,-1.0,-1.0
143,143,-0.15396612897917306,-0.2,1.0,347.0,732.0,1.0,-19.0,1,-1.0,-1.0
144,144,-0.7144170004622579,-0.7,-1.0,321.0,722.0,0.0,3957.0,0,1.0,0.0
145,145,0.24929747606363806,0.2,-1.0,312.0,533.0,0.0,4155.0,0,-1.0,0.0
146,146,-0.069683828531108,-0.1,1.0,316.0,645.0,1.0,119.0,1,-1.0,-1.0
147,147,-0.45545545881389127,-0.5,-1.0,482.0,667.0,0.0,3851.0,0,1.0,0.0
148,148,-0.08379289216423125,-0.1,1.0,359.0,710.0,1.0,-349.0,1,-1.0,-1.0
149,149,0.36345808269092184,0.4,-1.0,336.0,982.0,0.0,3682.0,0,-1.0,0.0
150,150,-0.19849803425201606,-0.2,-1.0,446.0,863.0,0.0,3691.0,0,1.0,0.0
151,151,-0.1261706891087233,-0.1,1.0,280.0,671.0,1.0,689.0,1,-1.0,-1.0
152,152,0.49259465643279643,0.5,1.0,355.0,565.0,1.0,80.0,1,1.0,1.0
153,153,0.8248112641253164,0.8,-1.0,499.0,912.0,0.0,3589.0,0,-1.0,0.0
154,154,0.18025846797167377,0.2,-1.0,452.0,628.0,0.0,3920.0,0,-1.0,0.0
155,155,-0.7461624058923861,-0.7,-1.0,372.0,679.0,0.0,3949.0,0,1.0,0.0
156,156,0.6379781398757339,0.6,-1.0,333.0,642.0,0.0,4025.0,0,-1.0,0.0
157,157,-0.497683091086496,-0.5,-1.0,433.0,521.0,1.0,-744.0,0,1.0,1.0
158,158,0.21581454803657818,0.2,1.0,311.0,663.0,1.0,1016.0,1,1.0,1.0
159,159,-0.39861484672433156,-0.4,-1.0,384.0,554.0,0.0,4062.0,0,1.0,0.0
160,160,0.09788271258590808,0.1,-1.0,452.0,958.0,1.0,-640.0,0,-1.0,-1.0
161,161,0.5128347759521937,0.5,1.0,363.0,971.0,1.0,376.0,1,1.0,1.0
162,162,0.7683512410946404,0.8,1.0,486.0,770.0,1.0,134.0,1,1.0,1.0
163,163,-0.7985973527070146,-0.8,-1.0,446.0,879.0,0.0,3675.0,0,1.0,0.0
164,164,0.6985493315629253,0.7,-1.0,314.0,861.0,1.0,-765.0,0,-1.0,-1.0
165,165,-0.7902132656530749,-0.8,-1.0,469.0,568.0,0.0,3963.0,0,1.0,0.0
166,166,-0.3023016479940087,-0.3,-1.0,310.0,905.0,0.0,3785.0,0,1.0,0.0
167,167,0.1895351948302374,0.2,1.0,261.0,515.0,1.0,254.0,1,1.0,1.0
168,168,-0.28229241951809647,-0.3,1.0,319.0,788.0,1.0,103.0,1,-1.0,-1.0
169,169,0.6697765874099532,0.7,1.0,322.0,629.0,1.0,339.0,1,1.0,1.0
170,170,0.4342903095866827,0.4,1.0,434.0,641.0,1.0,-955.0,1,1.0,1.0
171,171,0.44628890167371404,0.4,-1.0,292.0,696.0,1.0,-178.0,0,-1.0,-1.0
172,172,0.896218446995758,0.9,1.0,423.0,761.0,1.0,146.0,1,1.0,1.0
173,173,0.03157113622897012,0.0,-1.0,440.0,990.0,1.0,-1080.0,0,-1.0,-1.0
174,174,0.634103672509197,0.6,1.0,398.0,730.0,1.0,222.0,1,1.0,1.0
175,175,-0.13104264606762994,-0.1,-1.0,454.0,830.0,0.0,3716.0,0,1.0,0.0
176,176,-0.7569771980358396,-0.8,-1.0,266.0,812.0,0.0,3922.0,0,1.0,0.0
177,177,-0.25452636403840945,-0.3,1.0,402.0,631.0,1.0,-463.0,1,-1.0,-1.0
178,178,-0.3727751138886358,-0.4,-1.0,311.0,889.0,0.0,3800.0,0,1.0,0.0
179,179,-0.6891539380391256,-0.7,-1.0,337.0,735.0,0.0,3928.0,0,1.0,0.0
180,180,-0.0770420466131021,-0.1,-1.0,306.0,975.0,0.0,3719.0,0,1.0,0.0
181,181,0.5906357848447671,0.6,1.0,356.0,951.0,1.0,273.0,1,1.0,1.0
182,182,0.04348027936690568,0.0,1.0,401.0,647.0,0.0,3952.0,0,1.0,0.0
183,183,0.755548376489216,0.8,-1.0,410.0,696.0,0.0,3894.0,0,-1.0,0.0
184,184,0.3374682056519166,0.3,-1.0,390.0,526.0,0.0,4084.0,0,-1.0,0.0
185,185,-0.415768926987418,-0.4,1.0,380.0,500.0,1.0,200.0,1,-1.0,-1.0
186,186,-0.06289647791973818,-0.1,-1.0,307.0,746.0,0.0,3947.0,0,1.0,0.0
187,187,0.8657418456278584,0.9,-1.0,277.0,905.0,1.0,-632.0,0,-1.0,-1.0
188,188,-0.8371008833685681,-0.8,1.0,319.0,525.0,1.0,186.0,1,-1.0,-1.0
189,189,0.38135051359637184,0.4,-1.0,385.0,693.0,1.0,-348.0,0,-1.0,-1.0
190,190,-0.4739533579724158,-0.5,-1.0,426.0,975.0,0.0,3599.0,0,1.0,0.0
191,191,0.8144603175185589,0.8,-1.0,485.0,749.0,0.0,3766.0,0,-1.0,0.0
192,192,-0.5121295974618023,-0.5,1.0,360.0,532.0,1.0,928.0,1,-1.0,-1.0
193,193,0.8096824511824375,0.8,1.0,345.0,587.0,1.0,98.0,1,1.0,1.0
194,194,0.31092698264583507,0.3,-1.0,262.0,798.0,1.0,-100.0,0,-1.0,-1.0
195,195,0.4499923078777138,0.4,1.0,360.0,508.0,1.0,262.0,1,1.0,1.0
196,196,0.7998939645977604,0.8,-1.0,478.0,925.0,1.0,-553.0,0,-1.0,-1.0
197,197,0.002207309212756914,0.0,-1.0,465.0,576.0,0.0,3959.0,0,-1.0,0.0
198,198,0.8271161346337567,0.8,-1.0,285.0,865.0,0.0,3850.0,0,-1.0,0.0
199,199,0.8450089868138461,0.8,1.0,258.0,750.0,1.0,152.0,1,1.0,1.0
200,200,0.6421715348942721,0.6,1.0,271.0,660.0,1.0,289.0,1,1.0,1.0
201,201,0.24850372733446335,0.2,1.0,409.0,850.0,1.0,421.0,1,1.0,1.0
202,202,-0.39817809420491546,-0.4,-1.0,477.0,923.0,0.0,3600.0,0,1.0,0.0
203,203,0.40719798557891396,0.4,1.0,488.0,900.0,1.0,352.0,1,1.0,1.0
204,204,0.12423805537562449,0.1,-1.0,390.0,994.0,0.0,3616.0,0,-1.0,0.0
205,205,-0.1444878667867353,-0.1,-1.0,451.0,608.0,0.0,3941.0,0,1.0,0.0
206,206,-0.22818513861628031,-0.2,-1.0,437.0,503.0,0.0,4060.0,0,1.0,0.0
207,207,0.6355073490002133,0.6,-1.0,455.0,902.0,1.0,-497.0,0,-1.0,-1.0
208,208,0.05704139438488376,0.1,-1.0,348.0,680.0,1.0,2262.0,0,-1.0,-1.0
209,209,0.3345027790117806,0.3,-1.0,489.0,804.0,0.0,3707.0,0,-1.0,0.0
210,210,-0.6923784009566136,-0.7,1.0,451.0,825.0,1.0,264.0,1,-1.0,-1.0
211,211,-0.3275661554144833,-0.3,1.0,272.0,513.0,1.0,-5.0,1,-1.0,-1.0
212,212,-0.47679813999495013,-0.5,-1.0,365.0,879.0,0.0,3756.0,0,1.0,0.0
213,213,-0.3651148548049189,-0.4,1.0,298.0,611.0,1.0,-49.0,1,-1.0,-1.0
214,214,0.12048544353105994,0.1,-1.0,415.0,860.0,1.0,-125.0,0,-1.0,-1.0
215,215,0.2743259920284341,0.3,-1.0,468.0,640.0,0.0,3892.0,0,-1.0,0.0
216,216,-0.2278875081131121,-0.2,-1.0,406.0,981.0,0.0,3613.0,0,1.0,0.0
217,217,0.6693661457204622,0.7,1.0,423.0,765.0,1.0,182.0,1,1.0,1.0
218,218,0.40835268282091464,0.4,-1.0,359.0,555.0,0.0,4086.0,0,-1.0,0.0
219,219,-0.8272008097484078,-0.8,1.0,290.0,980.0,1.0,-760.0,1,-1.0,-1.0
220,220,0.8353654010657671,0.8,-1.0,451.0,698.0,1.0,-319.0,0,-1.0,-1.0
221,221,0.37084301058864166,0.4,-1.0,332.0,747.0,1.0,-559.0,0,-1.0,-1.0
222,222,0.22739936149247753,0.2,1.0,373.0,754.0,1.0,753.0,1,1.0,1.0
223,223,-0.24279064228252245,-0.2,-1.0,498.0,794.0,0.0,3708.0,0,1.0,0.0
224,224,-0.4564450384929571,-0.5,-1.0,485.0,826.0,0.0,3689.0,0,1.0,0.0
225,225,0.17420826873653972,0.2,-1.0,442.0,944.0,0.0,3614.0,0,-1.0,0.0
226,226,0.7783303090396078,0.8,1.0,272.0,689.0,1.0,189.0,1,1.0,1.0
227,227,-0.6120638554837234,-0.6,1.0,305.0,831.0,1.0,104.0,1,-1.0,-1.0
228,228,0.0502356681347047,0.1,-1.0,460.0,914.0,1.0,-404.0,0,-1.0,-1.0
229,229,-0.7337349751720306,-0.7,1.0,379.0,552.0,1.0,-341.0,1,-1.0,-1.0
230,230,-0.3122729274362126,-0.3,1.0,487.0,692.0,1.0,-419.0,1,-1.0,-1.0
231,231,0.16570546281945864,0.2,-1.0,306.0,568.0,0.0,4126.0,0,-1.0,0.0
232,232,0.14809652461581313,0.1,-1.0,405.0,931.0,1.0,-1026.0,0,-1.0,-1.0
233,233,-0.1715844024441906,-0.2,-1.0,288.0,982.0,0.0,3730.0,0,1.0,0.0
234,234,0.013702486615912446,0.0,1.0,356.0,835.0,1.0,589.0,1,1.0,1.0
235,235,-0.32421769079966234,-0.3,-1.0,420.0,912.0,0.0,3668.0,0,1.0,0.0
236,236,0.45079737347911275,0.5,-1.0,389.0,944.0,0.0,3667.0,0,-1.0,0.0
237,237,-0.7494984724366273,-0.7,-1.0,416.0,665.0,0.0,3919.0,0,1.0,0.0
238,238,0.05016325330950844,0.1,-1.0,292.0,769.0,1.0,2229.0,0,-1.0,-1.0
239,239,-0.6716551304126059,-0.7,1.0,331.0,595.0,1.0,144.0,1,-1.0,-1.0
240,240,-0.5673340727696037,-0.6,1.0,337.0,807.0,1.0,516.0,1,-1.0,-1.0
241,241,0.6191751952270591,0.6,1.0,422.0,923.0,1.0,115.0,1,1.0,1.0
242,242,-0.13785107445309275,-0.1,-1.0,362.0,504.0,0.0,4134.0,0,1.0,0.0
243,243,0.14961577126193493,0.1,-1.0,348.0,525.0,1.0,-133.0,0,-1.0,-1.0
244,244,0.06920347470672306,0.1,1.0,365.0,643.0,0.0,3992.0,0,1.0,0.0
245,245,-0.5579937600266751,-0.6,-1.0,452.0,727.0,0.0,3821.0,0,1.0,0.0
246,246,-0.7082530637015227,-0.7,1.0,404.0,823.0,1.0,53.0,1,-1.0,-1.0
247,247,-0.6845996212563855,-0.7,1.0,297.0,721.0,1.0,-218.0,1,-1.0,-1.0
248,248,-0.4579176114773107,-0.5,-1.0,327.0,515.0,0.0,4158.0,0,1.0,0.0
249,249,0.014938354476067062,0.0,-1.0,489.0,870.0,1.0,-139.0,0,-1.0,-1.0
250,250,0.16327590006970916,0.2,1.0,255.0,696.0,1.0,1179.0,1,1.0,1.0
251,251,0.37253728536234576,0.4,-1.0,309.0,852.0,0.0,3839.0,0,-1.0,0.0
252,252,0.013691685999499992,0.0,-1.0,361.0,603.0,1.0,686.0,0,-1.0,-1.0
253,253,0.6462202010560508,0.6,1.0,259.0,541.0,1.0,210.0,1,1.0,1.0
254,254,0.8066747420824182,0.8,1.0,376.0,783.0,1.0,191.0,1,1.0,1.0
255,255,-0.06431004543837371,-0.1,1.0,264.0,616.0,0.0,4120.0,0,-1.0,0.0
256,256,-0.7856273902575742,-0.8,-1.0,388.0,785.0,0.0,3827.0,0,1.0,0.0
257,257,0.4601382846494154,0.5,-1.0,340.0,823.0,1.0,-273.0,0,-1.0,-1.0
258,258,-0.2276547412700929,-0.2,1.0,490.0,632.0,1.0,-482.0,1,-1.0,-1.0
259,259,0.7265099764129291,0.7,1.0,490.0,531.0,1.0,249.0,1,1.0,1.0
260,260,-0.3741214878070249,-0.4,-1.0,428.0,691.0,0.0,3881.0,0,1.0,0.0
261,261,0.05842204929258521,0.1,1.0,487.0,655.0,1.0,888.0,1,1.0,1.0
262,262,0.15003586167452843,0.2,1.0,420.0,655.0,1.0,995.0,1,1.0,1.0
263,263,-0.4067311328733678,-0.4,1.0,440.0,630.0,1.0,520.0,1,-1.0,-1.0
264,264,0.6396331707032187,0.6,1.0,305.0,934.0,1.0,251.0,1,1.0,1.0
265,265,-0.25962874306463724,-0.3,-1.0,403.0,610.0,0.0,3987.0,0,1.0,0.0
266,266,-0.04741338895909164,-0.0,-1.0,283.0,649.0,0.0,4068.0,0,1.0,0.0
267,267,0.8029936957267428,0.8,-1.0,316.0,785.0,0.0,3899.0,0,-1.0,0.0
268,268,0.25052208827518696,0.3,1.0,253.0,966.0,1.0,711.0,1,1.0,1.0
269,269,0.24512852159971288,0.2,1.0,422.0,880.0,1.0,728.0,1,1.0,1.0
270,270,0.39819675661705645,0.4,-1.0,387.0,948.0,0.0,3665.0,0,-1.0,0.0
271,271,0.12240877744727008,0.1,-1.0,487.0,558.0,1.0,-185.0,0,-1.0,-1.0
272,272,0.18853333888330337,0.2,1.0,457.0,985.0,1.0,478.0,1,1.0,1.0
273,273,-0.21647507887432238,-0.2,1.0,366.0,803.0,1.0,541.0,1,-1.0,-1.0
274,274,-0.3573319344291167,-0.4,-1.0,428.0,515.0,1.0,-493.0,0,1.0,1.0
275,275,0.1471987382835095,0.1,-1.0,345.0,926.0,0.0,3729.0,0,-1.0,0.0
276,276,-0.04089888193604818,-0.0,1.0,487.0,510.0,1.0,1443.0,1,-1.0,-1.0
277,277,-0.5406717370766982,-0.5,1.0,416.0,857.0,1.0,-493.0,1,-1.0,-1.0
278,278,0.3163133667491377,0.3,-1.0,487.0,570.0,0.0,3943.0,0,-1.0,0.0
279,279,-0.049471838854189265,-0.0,1.0,365.0,882.0,1.0,793.0,1,-1.0,-1.0
280,280,-0.5629136185544494,-0.6,1.0,406.0,885.0,1.0,129.0,1,-1.0,-1.0
281,281,0.35456439902418213,0.4,-1.0,270.0,716.0,0.0,4014.0,0,-1.0,0.0
282,282,0.6824383263521298,0.7,-1.0,311.0,734.0,1.0,-315.0,0,-1.0,-1.0
283,283,-0.054181988347468124,-0.1,1.0,317.0,563.0,1.0,-450.0,1,-1.0,-1.0
284,284,-0.7745559480911863,-0.8,1.0,462.0,743.0,1.0,35.0,1,-1.0,-1.0
285,285,-0.5848929598996442,-0.6,1.0,419.0,516.0,1.0,455.0,1,-1.0,-1.0
286,286,0.27877588078478277,0.3,1.0,450.0,592.0,1.0,608.0,1,1.0,1.0
287,287,0.7230559656708012,0.7,-1.0,464.0,724.0,0.0,3812.0,0,-1.0,0.0
288,288,0.23154628581906167,0.2,-1.0,473.0,842.0,0.0,3685.0,0,-1.0,0.0
289,289,-0.5861518167266695,-0.6,1.0,313.0,953.0,1.0,-656.0,1,-1.0,-1.0
290,290,0.796325791942233,0.8,1.0,499.0,506.0,1.0,215.0,1,1.0,1.0
291,291,0.8448881627928689,0.8,1.0,461.0,650.0,1.0,69.0,1,1.0,1.0
292,292,-0.5585784491629185,-0.6,1.0,428.0,855.0,1.0,-613.0,1,-1.0,-1.0
293,293,0.4310210060681733,0.4,1.0,307.0,946.0,1.0,167.0,1,1.0,1.0
294,294,-0.7563296901540677,-0.8,-1.0,402.0,886.0,0.0,3712.0,0,1.0,0.0
295,295,-0.39593732717312735,-0.4,-1.0,251.0,769.0,0.0,3980.0,0,1.0,0.0
296,296,-0.8987900489512619,-0.9,1.0,297.0,998.0,1.0,195.0,1,-1.0,-1.0
297,297,0.7194712346761595,0.7,-1.0,261.0,678.0,1.0,21.0,0,-1.0,-1.0
298,298,0.2003552610663496,0.2,1.0,485.0,669.0,1.0,1446.0,1,1.0,1.0
299,299,-0.11036313440812018,-0.1,-1.0,315.0,898.0,0.0,3787.0,0,1.0,0.0
300,300,-0.1024760805208379,-0.1,-1.0,399.0,609.0,0.0,3992.0,0,1.0,0.0
301,301,-0.7087988168974323,-0.7,1.0,331.0,969.0,1.0,100.0,1,-1.0,-1.0
302,302,-0.004704072201270559,-0.0,-1.0,447.0,533.0,1.0,2400.0,0,1.0,1.0
303,303,-0.19475543437490672,-0.2,-1.0,442.0,874.0,0.0,3684.0,0,1.0,0.0
304,304,0.666770063860712,0.7,1.0,428.0,729.0,1.0,223.0,1,1.0,1.0
305,305,0.8526286020365764,0.9,-1.0,385.0,749.0,0.0,3866.0,0,-1.0,0.0
306,306,-0.3805913780642648,-0.4,1.0,332.0,694.0,1.0,454.0,1,-1.0,-1.0
307,307,-0.6655816696919683,-0.7,1.0,434.0,661.0,1.0,195.0,1,-1.0,-1.0
308,308,0.40272113313471813,0.4,1.0,396.0,673.0,1.0,371.0,1,1.0,1.0
309,309,-0.4877241116350354,-0.5,1.0,291.0,953.0,1.0,-344.0,1,-1.0,-1.0
310,310,0.09125679128599107,0.1,-1.0,484.0,729.0,1.0,-423.0,0,-1.0,-1.0
311,311,0.624131939246969,0.6,1.0,294.0,662.0,1.0,164.0,1,1.0,1.0
312,312,0.7553417639618202,0.8,-1.0,407.0,881.0,0.0,3712.0,0,-1.0,0.0
313,313,-0.7364466583618063,-0.7,1.0,464.0,914.0,1.0,-828.0,1,-1.0,-1.0
314,314,-0.7257420935338221,-0.7,-1.0,338.0,877.0,0.0,3785.0,0,1.0,0.0
315,315,-0.6394261086941249,-0.6,-1.0,272.0,825.0,0.0,3903.0,0,1.0,0.0
316,316,-0.01249049531687163,-0.0,1.0,473.0,945.0,1.0,652.0,1,-1.0,-1.0
317,317,0.49857599118105467,0.5,1.0,340.0,790.0,1.0,220.0,1,1.0,1.0
318,318,-0.18202442600164814,-0.2,-1.0,335.0,972.0,0.0,3693.0,0,1.0,0.0
319,319,-0.808499838977746,-0.8,-1.0,301.0,725.0,0.0,3974.0,0,1.0,0.0
320,320,0.6175180733861024,0.6,-1.0,329.0,674.0,0.0,3997.0,0,-1.0,0.0
321,321,0.8415033369729493,0.8,-1.0,311.0,660.0,0.0,4029.0,0,-1.0,0.0
322,322,-0.8595223790493454,-0.9,-1.0,383.0,823.0,0.0,3794.0,0,1.0,0.0
323,323,0.5081978629448972,0.5,-1.0,460.0,942.0,1.0,18.0,0,-1.0,-1.0
324,324,-0.7734449088082553,-0.8,-1.0,436.0,950.0,0.0,3614.0,0,1.0,0.0
325,325,0.6205989268980118,0.6,-1.0,285.0,659.0,0.0,4056.0,0,-1.0,0.0
326,326,-0.581277311034816,-0.6,1.0,295.0,508.0,1.0,237.0,1,-1.0,-1.0
327,327,-0.5602550492763135,-0.6,1.0,463.0,990.0,1.0,127.0,1,-1.0,-1.0
328,328,0.6546670852574964,0.7,1.0,462.0,818.0,1.0,190.0,1,1.0,1.0
329,329,-0.544183117174343,-0.5,-1.0,264.0,524.0,0.0,4212.0,0,1.0,0.0
330,330,-0.43986182002958835,-0.4,-1.0,274.0,763.0,0.0,3963.0,0,1.0,0.0
331,331,0.04692294509118833,0.0,1.0,295.0,715.0,0.0,3990.0,0,1.0,0.0
332,332,-0.843296106163036,-0.8,-1.0,318.0,534.0,0.0,4148.0,0,1.0,0.0
333,333,-0.09004219664412916,-0.1,-1.0,408.0,557.0,0.0,4035.0,0,1.0,0.0
334,334,-0.5365417086722972,-0.5,-1.0,468.0,541.0,0.0,3991.0,0,1.0,0.0
335,335,0.8141297237808883,0.8,-1.0,495.0,815.0,1.0,-490.0,0,-1.0,-1.0
336,336,-0.49664223941135777,-0.5,1.0,267.0,591.0,1.0,-378.0,1,-1.0,-1.0
337,337,0.3091153056654491,0.3,-1.0,406.0,663.0,0.0,3931.0,0,-1.0,0.0
338,338,0.5601563495016738,0.6,-1.0,278.0,680.0,0.0,4042.0,0,-1.0,0.0
339,339,-0.6555837450992446,-0.7,-1.0,391.0,613.0,0.0,3996.0,0,1.0,0.0
340,340,-0.45273836489449576,-0.5,-1.0,310.0,723.0,0.0,3967.0,0,1.0,0.0
341,341,-0.7261526849821498,-0.7,-1.0,262.0,812.0,0.0,3926.0,0,1.0,0.0
342,342,-0.12527758912220255,-0.1,1.0,343.0,957.0,1.0,800.0,1,-1.0,-1.0
343,343,0.2810617743511462,0.3,-1.0,419.0,860.0,0.0,3721.0,0,-1.0,0.0
344,344,0.020552369986119645,0.0,-1.0,295.0,987.0,1.0,-882.0,0,-1.0,-1.0
345,345,-0.4958940798273762,-0.5,1.0,434.0,520.0,1.0,176.0,1,-1.0,-1.0
346,346,-0.2123556469007727,-0.2,1.0,400.0,974.0,1.0,586.0,1,-1.0,-1.0
347,347,-0.09817753162761944,-0.1,1.0,277.0,666.0,1.0,-433.0,1,-1.0,-1.0
348,348,-0.11888080932629497,-0.1,1.0,326.0,671.0,1.0,343.0,1,-1.0,-1.0
349,349,-0.034394139189514394,-0.0,-1.0,368.0,953.0,0.0,3679.0,0,1.0,0.0
350,350,0.24891548001938235,0.2,-1.0,468.0,911.0,1.0,-549.0,0,-1.0,-1.0
351,351,0.5941079969721145,0.6,-1.0,345.0,964.0,1.0,1.0,0,-1.0,-1.0
352,352,0.6483553590719692,0.6,1.0,346.0,979.0,1.0,295.0,1,1.0,1.0
353,353,0.007541361975885064,0.0,-1.0,376.0,779.0,0.0,3845.0,0,-1.0,0.0
354,354,0.7878045216156689,0.8,1.0,278.0,728.0,1.0,154.0,1,1.0,1.0
355,355,0.6427874753103814,0.6,-1.0,293.0,797.0,1.0,-520.0,0,-1.0,-1.0
356,356,0.7875930257074782,0.8,-1.0,494.0,930.0,1.0,-144.0,0,-1.0,-1.0
357,357,0.4463824523082517,0.4,-1.0,475.0,944.0,1.0,-69.0,0,-1.0,-1.0
358,358,-0.6902288681255927,-0.7,1.0,330.0,985.0,1.0,185.0,1,-1.0,-1.0
359,359,-0.3346075127652002,-0.3,1.0,444.0,957.0,1.0,219.0,1,-1.0,-1.0
360,360,0.844435475755429,0.8,1.0,461.0,979.0,1.0,70.0,1,1.0,1.0
361,361,0.16579516390500715,0.2,1.0,489.0,865.0,1.0,1396.0,1,1.0,1.0
362,362,-0.4589104230944561,-0.5,1.0,395.0,789.0,1.0,-614.0,1,-1.0,-1.0
363,363,0.8068805734934311,0.8,1.0,297.0,898.0,1.0,125.0,1,1.0,1.0
364,364,-0.8852762143491693,-0.9,1.0,296.0,819.0,1.0,-45.0,1,-1.0,-1.0
365,365,-0.2855179120593584,-0.3,-1.0,253.0,860.0,0.0,3887.0,0,1.0,0.0
366,366,-0.583040292212617,-0.6,1.0,436.0,769.0,1.0,-485.0,1,-1.0,-1.0
367,367,0.8840993598341321,0.9,-1.0,405.0,669.0,0.0,3926.0,0,-1.0,0.0
368,368,-0.446911037215342,-0.4,1.0,484.0,550.0,1.0,106.0,1,-1.0,-1.0
369,369,0.34576367378340855,0.3,1.0,492.0,931.0,1.0,357.0,1,1.0,1.0
370,370,0.6806763720535071,0.7,-1.0,471.0,754.0,1.0,-215.0,0,-1.0,-1.0
371,371,-0.8284413947018666,-0.8,-1.0,444.0,805.0,0.0,3751.0,0,1.0,0.0
372,372,0.6711467531824903,0.7,-1.0,286.0,603.0,1.0,-149.0,0,-1.0,-1.0
373,373,0.5625998715472774,0.6,1.0,412.0,654.0,1.0,-816.0,1,1.0,1.0
374,374,-0.13244533127474256,-0.1,-1.0,336.0,802.0,0.0,3862.0,0,1.0,0.0
375,375,-0.49154043967711186,-0.5,-1.0,316.0,790.0,0.0,3894.0,0,1.0,0.0
376,376,0.5089728152704426,0.5,1.0,258.0,701.0,1.0,161.0,1,1.0,1.0
377,377,0.17922222435708657,0.2,1.0,429.0,576.0,1.0,2155.0,1,1.0,1.0
378,378,-0.4355130250123224,-0.4,-1.0,422.0,995.0,0.0,3583.0,0,1.0,0.0
379,379,0.09672685131310321,0.1,1.0,339.0,978.0,1.0,903.0,1,1.0,1.0
380,380,-0.7963069713506818,-0.8,-1.0,372.0,915.0,0.0,3713.0,0,1.0,0.0
381,381,-0.005467688736825571,-0.0,-1.0,360.0,783.0,0.0,3857.0,0,1.0,0.0
382,382,0.6876009015130468,0.7,1.0,433.0,634.0,1.0,213.0,1,1.0,1.0
383,383,-0.7015573398162089,-0.7,1.0,410.0,561.0,1.0,129.0,1,-1.0,-1.0
384,384,0.0010001318824195415,0.0,1.0,332.0,707.0,0.0,3961.0,0,1.0,0.0
385,385,-0.6119079361261714,-0.6,1.0,334.0,608.0,1.0,-282.0,1,-1.0,-1.0
386,386,0.44084042971994164,0.4,-1.0,422.0,943.0,0.0,3635.0,0,-1.0,0.0
387,387,-0.051272736270357444,-0.1,-1.0,297.0,955.0,0.0,3748.0,0,1.0,0.0
388,388,0.6605628834052156,0.7,-1.0,269.0,888.0,0.0,3843.0,0,-1.0,0.0
389,389,-0.32515734028716814,-0.3,-1.0,282.0,736.0,0.0,3982.0,0,1.0,0.0
390,390,-0.4757983317118218,-0.5,1.0,250.0,880.0,1.0,160.0,1,-1.0,-1.0
391,391,0.23928763839432465,0.2,1.0,266.0,774.0,1.0,690.0,1,1.0,1.0
392,392,0.24529824555450752,0.2,1.0,396.0,560.0,1.0,384.0,1,1.0,1.0
393,393,0.045041330166216476,0.0,-1.0,462.0,851.0,0.0,3687.0,0,-1.0,0.0
394,394,-0.8074388874145426,-0.8,-1.0,359.0,753.0,0.0,3888.0,0,1.0,0.0
395,395,-0.741247524540662,-0.7,1.0,309.0,729.0,1.0,62.0,1,-1.0,-1.0
396,396,0.6393583181878609,0.6,-1.0,305.0,785.0,0.0,3910.0,0,-1.0,0.0
397,397,0.719812518973222,0.7,-1.0,366.0,534.0,0.0,4100.0,0,-1.0,0.0
398,398,-0.18893455040881624,-0.2,-1.0,353.0,561.0,0.0,4086.0,0,1.0,0.0
399,399,-0.3739521588689082,-0.4,-1.0,326.0,704.0,0.0,3970.0,0,1.0,0.0
400,400,-0.22230788062304285,-0.2,-1.0,363.0,694.0,0.0,3943.0,0,1.0,0.0
401,401,-0.5346316911088482,-0.5,-1.0,286.0,654.0,0.0,4060.0,0,1.0,0.0
402,402,0.16163782811782845,0.2,1.0,302.0,626.0,1.0,3712.0,1,1.0,1.0
403,403,0.03434124918229153,0.0,1.0,261.0,711.0,0.0,4028.0,0,1.0,0.0
404,404,-0.7773110849355205,-0.8,1.0,483.0,897.0,1.0,200.0,1,-1.0,-1.0
405,405,0.17897541526812677,0.2,1.0,347.0,511.0,1.0,652.0,1,1.0,1.0
406,406,-0.17410968780601388,-0.2,-1.0,491.0,880.0,0.0,3629.0,0,1.0,0.0
407,407,0.6731745920162034,0.7,1.0,301.0,790.0,1.0,129.0,1,1.0,1.0
408,408,0.3358411328024479,0.3,-1.0,417.0,825.0,0.0,3758.0,0,-1.0,0.0
409,409,0.8979743155569427,0.9,-1.0,266.0,887.0,1.0,-733.0,0,-1.0,-1.0
410,410,-0.26901660184842047,-0.3,1.0,285.0,616.0,1.0,109.0,1,-1.0,-1.0
411,411,-0.3323887113905212,-0.3,1.0,369.0,930.0,1.0,121.0,1,-1.0,-1.0
412,412,0.5368751602511085,0.5,1.0,419.0,923.0,1.0,218.0,1,1.0,1.0
413,413,0.1400700247968235,0.1,-1.0,428.0,579.0,0.0,3993.0,0,-1.0,0.0
414,414,-0.30994084136937483,-0.3,-1.0,356.0,686.0,0.0,3958.0,0,1.0,0.0
415,415,0.13156053305227144,0.1,-1.0,300.0,543.0,1.0,-273.0,0,-1.0,-1.0
416,416,0.00492188245753189,0.0,1.0,471.0,691.0,0.0,3838.0,0,1.0,0.0
417,417,0.5132560035849759,0.5,1.0,474.0,574.0,1.0,132.0,1,1.0,1.0
418,418,0.28087749129770534,0.3,-1.0,394.0,887.0,0.0,3719.0,0,-1.0,0.0
419,419,0.5099422123551315,0.5,-1.0,499.0,729.0,1.0,-688.0,0,-1.0,-1.0
420,420,0.4104242862440496,0.4,-1.0,471.0,520.0,1.0,-31.0,0,-1.0,-1.0
421,421,0.8756138659250711,0.9,1.0,396.0,967.0,1.0,117.0,1,1.0,1.0
422,422,0.5574185707960236,0.6,-1.0,450.0,880.0,0.0,3670.0,0,-1.0,0.0
423,423,-0.25167294710228805,-0.3,-1.0,312.0,949.0,0.0,3739.0,0,1.0,0.0
424,424,-0.5644300712444776,-0.6,-1.0,470.0,877.0,0.0,3653.0,0,1.0,0.0
425,425,-0.7972407277075537,-0.8,-1.0,318.0,946.0,0.0,3736.0,0,1.0,0.0
426,426,-0.7835961355288128,-0.8,1.0,285.0,650.0,1.0,45.0,1,-1.0,-1.0
427,427,0.5770447012204875,0.6,1.0,407.0,577.0,1.0,176.0,1,1.0,1.0
428,428,-0.8839948672930209,-0.9,-1.0,388.0,734.0,0.0,3878.0,0,1.0,0.0
429,429,0.12480847098790016,0.1,1.0,424.0,739.0,1.0,3327.0,1,1.0,1.0
430,430,0.026547402629355732,0.0,-1.0,384.0,511.0,0.0,4105.0,0,-1.0,0.0
431,431,-0.2690745142364842,-0.3,-1.0,296.0,717.0,0.0,3987.0,0,1.0,0.0
432,432,0.8966888907047351,0.9,-1.0,286.0,546.0,0.0,4168.0,0,-1.0,0.0
433,433,-0.8819956752469879,-0.9,-1.0,471.0,585.0,0.0,3944.0,0,1.0,0.0
434,434,-0.059437492125098745,-0.1,1.0,321.0,967.0,1.0,412.0,1,-1.0,-1.0
435,435,0.619532998843768,0.6,1.0,304.0,552.0,1.0,234.0,1,1.0,1.0
436,436,-0.5581091236146338,-0.6,-1.0,302.0,697.0,0.0,4001.0,0,1.0,0.0
437,437,0.28132342090460816,0.3,-1.0,481.0,889.0,1.0,-650.0,0,-1.0,-1.0
438,438,0.2374334938398771,0.2,-1.0,461.0,631.0,1.0,-332.0,0,-1.0,-1.0
439,439,0.2248863812167209,0.2,-1.0,498.0,785.0,0.0,3717.0,0,-1.0,0.0
440,440,-0.8722531349081232,-0.9,-1.0,380.0,840.0,0.0,3780.0,0,1.0,0.0
441,441,-0.8170762096775149,-0.8,1.0,299.0,558.0,1.0,383.0,1,-1.0,-1.0
442,442,0.09988584050359561,0.1,-1.0,274.0,688.0,0.0,4038.0,0,-1.0,0.0
443,443,-0.26107612860531515,-0.3,1.0,466.0,868.0,1.0,656.0,1,-1.0,-1.0
444,444,0.24221249280568402,0.2,1.0,355.0,784.0,1.0,111.0,1,1.0,1.0
445,445,0.6608156104919515,0.7,1.0,445.0,784.0,1.0,211.0,1,1.0,1.0
446,446,0.36871559764129136,0.4,-1.0,358.0,944.0,1.0,-492.0,0,-1.0,-1.0
447,447,0.646334351688923,0.6,-1.0,466.0,845.0,0.0,3689.0,0,-1.0,0.0
448,448,0.20154165125067347,0.2,-1.0,370.0,649.0,0.0,3981.0,0,-1.0,0.0
449,449,-0.6875577374680224,-0.7,-1.0,355.0,943.0,0.0,3702.0,0,1.0,0.0
450,450,-0.8797403660980936,-0.9,1.0,294.0,652.0,1.0,264.0,1,-1.0,-1.0
451,451,-0.552565892203887,-0.6,1.0,439.0,900.0,1.0,-119.0,1,-1.0,-1.0
452,452,0.25691743888798413,0.3,1.0,294.0,896.0,1.0,600.0,1,1.0,1.0
453,453,-0.8265442768428023,-0.8,-1.0,264.0,686.0,0.0,4050.0,0,1.0,0.0
454,454,0.5764062279732908,0.6,1.0,463.0,663.0,1.0,214.0,1,1.0,1.0
455,455,-0.897872731382487,-0.9,1.0,375.0,749.0,1.0,246.0,1,-1.0,-1.0
456,456,-0.12397664021839494,-0.1,-1.0,295.0,525.0,0.0,4180.0,0,1.0,0.0
457,457,-0.6532023168521726,-0.7,1.0,297.0,700.0,1.0,223.0,1,-1.0,-1.0
458,458,0.6054459640651021,0.6,-1.0,472.0,718.0,0.0,3810.0,0,-1.0,0.0
459,459,0.6379971279513813,0.6,1.0,488.0,577.0,1.0,-355.0,1,1.0,1.0
460,460,-0.3334311685731042,-0.3,-1.0,310.0,744.0,0.0,3946.0,0,1.0,0.0
461,461,0.5899990248940602,0.6,1.0,467.0,621.0,1.0,172.0,1,1.0,1.0
462,462,-0.4193554257602244,-0.4,1.0,311.0,602.0,1.0,417.0,1,-1.0,-1.0
463,463,0.839773622937194,0.8,1.0,496.0,895.0,1.0,209.0,1,1.0,1.0
464,464,-0.390628151201347,-0.4,-1.0,394.0,650.0,0.0,3956.0,0,1.0,0.0
465,465,-0.3911633541196132,-0.4,1.0,260.0,945.0,1.0,335.0,1,-1.0,-1.0
466,466,-0.7540339482807741,-0.8,1.0,395.0,874.0,1.0,271.0,1,-1.0,-1.0
467,467,0.8253701193753252,0.8,-1.0,413.0,694.0,0.0,3893.0,0,-1.0,0.0
468,468,-0.34855661641813385,-0.3,1.0,260.0,811.0,1.0,1069.0,1,-1.0,-1.0
469,469,-0.47295063513429186,-0.5,1.0,343.0,582.0,1.0,165.0,1,-1.0,-1.0
470,470,0.516017724419429,0.5,1.0,374.0,655.0,1.0,161.0,1,1.0,1.0
471,471,0.5838943635359396,0.6,-1.0,279.0,523.0,0.0,4198.0,0,-1.0,0.0
472,472,-0.8710022542793043,-0.9,-1.0,388.0,919.0,0.0,3693.0,0,1.0,0.0
473,473,0.09544073323539559,0.1,1.0,261.0,517.0,0.0,4222.0,0,1.0,0.0
474,474,0.4873536620046709,0.5,1.0,346.0,538.0,1.0,296.0,1,1.0,1.0
475,475,-0.17540958755849767,-0.2,-1.0,297.0,974.0,0.0,3729.0,0,1.0,0.0
476,476,-0.3525815657302471,-0.4,-1.0,291.0,777.0,0.0,3932.0,0,1.0,0.0
477,477,-0.2354635278162941,-0.2,-1.0,294.0,776.0,0.0,3930.0,0,1.0,0.0
478,478,-0.8639323894356963,-0.9,-1.0,279.0,953.0,0.0,3768.0,0,1.0,0.0
479,479,0.8250990702963389,0.8,1.0,254.0,586.0,1.0,160.0,1,1.0,1.0
480,480,-0.28924079878081965,-0.3,-1.0,497.0,706.0,0.0,3797.0,0,1.0,0.0
481,481,-0.00793334853754546,-0.0,1.0,398.0,888.0,1.0,-246.0,1,-1.0,-1.0
482,482,0.8306192165142862,0.8,1.0,410.0,963.0,1.0,147.0,1,1.0,1.0
483,483,0.01600093826290705,0.0,-1.0,485.0,985.0,0.0,3530.0,0,-1.0,0.0
484,484,-0.06408557214670563,-0.1,1.0,296.0,892.0,1.0,922.0,1,-1.0,-1.0
485,485,-0.464614418205837,-0.5,-1.0,255.0,956.0,0.0,3789.0,0,1.0,0.0
486,486,0.18047870553716872,0.2,-1.0,494.0,679.0,0.0,3827.0,0,-1.0,0.0
487,487,-0.4590713789589355,-0.5,-1.0,292.0,547.0,0.0,4161.0,0,1.0,0.0
488,488,0.8280521477146988,0.8,1.0,409.0,678.0,1.0,123.0,1,1.0,1.0
489,489,0.7560454862738316,0.8,1.0,484.0,723.0,1.0,133.0,1,1.0,1.0
490,490,0.509056775169494,0.5,1.0,259.0,609.0,1.0,162.0,1,1.0,1.0
491,491,-0.30525611556018406,-0.3,-1.0,301.0,956.0,0.0,3743.0,0,1.0,0.0
492,492,0.3000018641315644,0.3,1.0,314.0,810.0,1.0,126.0,1,1.0,1.0
493,493,-0.8592537113311318,-0.9,-1.0,343.0,910.0,0.0,3747.0,0,1.0,0.0
494,494,0.4880099940349999,0.5,1.0,307.0,871.0,1.0,252.0,1,1.0,1.0
495,495,0.6595732740680572,0.7,1.0,350.0,742.0,1.0,198.0,1,1.0,1.0
496,496,-0.41492992726311356,-0.4,1.0,419.0,865.0,1.0,276.0,1,-1.0,-1.0
497,497,-0.3190774722709572,-0.3,1.0,281.0,532.0,1.0,57.0,1,-1.0,-1.0
498,498,-0.05810387689724417,-0.1,1.0,403.0,819.0,1.0,-592.0,1,-1.0,-1.0
499,499,0.8226426727761568,0.8,-1.0,426.0,820.0,0.0,3754.0,0,-1.0,0.0
500,500,0.6949707676870652,0.7,-1.0,300.0,988.0,1.0,-318.0,0,-1.0,-1.0
501,501,0.1314878435883401,0.1,1.0,431.0,566.0,1.0,1363.0,1,1.0,1.0
502,502,0.5595009124415419,0.6,-1.0,451.0,617.0,1.0,-318.0,0,-1.0,-1.0
503,503,-0.7794859069238969,-0.8,1.0,316.0,925.0,1.0,139.0,1,-1.0,-1.0
504,504,0.05109150855847966,0.1,-1.0,353.0,955.0,1.0,2812.0,0,-1.0,-1.0
505,505,0.3281891927256083,0.3,1.0,304.0,629.0,1.0,767.0,1,1.0,1.0
506,506,-0.09269966537066976,-0.1,1.0,409.0,853.0,1.0,2668.0,1,-1.0,-1.0
507,507,0.3262073168599381,0.3,1.0,413.0,871.0,1.0,196.0,1,1.0,1.0
508,508,0.09196963453374629,0.1,-1.0,361.0,503.0,1.0,-344.0,0,-1.0,-1.0
509,509,0.6209572756401492,0.6,1.0,412.0,774.0,1.0,104.0,1,1.0,1.0
510,510,0.7232408334267281,0.7,-1.0,390.0,954.0,1.0,-864.0,0,-1.0,-1.0
511,511,0.3537299620768667,0.4,-1.0,346.0,824.0,0.0,3830.0,0,-1.0,0.0
512,512,-0.7454911608927854,-0.7,1.0,259.0,836.0,1.0,165.0,1,-1.0,-1.0
513,513,0.15457567096869174,0.2,1.0,271.0,577.0,1.0,1502.0,1,1.0,1.0
514,514,-0.7050108726112069,-0.7,-1.0,309.0,642.0,0.0,4049.0,0,1.0,0.0
515,515,0.48834067924067825,0.5,-1.0,379.0,558.0,0.0,4063.0,0,-1.0,0.0
516,516,-0.897995583063731,-0.9,1.0,387.0,869.0,1.0,-556.0,1,-1.0,-1.0
517,517,-0.07814870042851352,-0.1,1.0,279.0,509.0,1.0,902.0,1,-1.0,-1.0
518,518,0.6806848321468807,0.7,1.0,408.0,843.0,1.0,179.0,1,1.0,1.0
519,519,-0.7229721398850583,-0.7,-1.0,364.0,540.0,0.0,4096.0,0,1.0,0.0
520,520,0.20002383737614682,0.2,-1.0,373.0,798.0,1.0,-121.0,0,-1.0,-1.0
521,521,-0.6184575006459259,-0.6,-1.0,304.0,907.0,0.0,3789.0,0,1.0,0.0
522,522,-0.6903394437968934,-0.7,-1.0,339.0,510.0,0.0,4151.0,0,1.0,0.0
523,523,0.68394039239405,0.7,-1.0,346.0,938.0,0.0,3716.0,0,-1.0,0.0
524,524,0.08270076128874826,0.1,1.0,424.0,655.0,0.0,3921.0,0,1.0,0.0
525,525,-0.7647649405703162,-0.8,-1.0,377.0,751.0,0.0,3872.0,0,1.0,0.0
526,526,0.4408136512678712,0.4,-1.0,344.0,560.0,0.0,4096.0,0,-1.0,0.0
527,527,0.5386148153268401,0.5,-1.0,463.0,974.0,1.0,-777.0,0,-1.0,-1.0
528,528,-0.640855120268979,-0.6,1.0,326.0,967.0,1.0,117.0,1,-1.0,-1.0
529,529,0.6764294287373543,0.7,-1.0,286.0,574.0,0.0,4140.0,0,-1.0,0.0
530,530,0.5737148407617173,0.6,-1.0,251.0,927.0,0.0,3822.0,0,-1.0,0.0
531,531,0.33269998066007445,0.3,-1.0,402.0,607.0,0.0,3991.0,0,-1.0,0.0
532,532,0.8126902453548325,0.8,-1.0,430.0,598.0,1.0,-228.0,0,-1.0,-1.0
533,533,-0.7292843038504685,-0.7,-1.0,479.0,708.0,0.0,3813.0,0,1.0,0.0
534,534,-0.6884294354722923,-0.7,-1.0,279.0,999.0,0.0,3722.0,0,1.0,0.0
535,535,0.5533876749384886,0.6,-1.0,457.0,608.0,1.0,-185.0,0,-1.0,-1.0
536,536,0.39580570480321897,0.4,-1.0,485.0,964.0,0.0,3551.0,0,-1.0,0.0
537,537,-0.6778133674839691,-0.7,-1.0,386.0,645.0,0.0,3969.0,0,1.0,0.0
538,538,-0.18051082389591677,-0.2,1.0,310.0,806.0,1.0,644.0,1,-1.0,-1.0
539,539,0.8817123148557918,0.9,1.0,440.0,867.0,1.0,123.0,1,1.0,1.0
540,540,0.20950481248880315,0.2,1.0,436.0,819.0,1.0,365.0,1,1.0,1.0
541,541,-0.8936765427972985,-0.9,-1.0,270.0,657.0,0.0,4073.0,0,1.0,0.0
542,542,-0.023504408830513968,-0.0,1.0,412.0,998.0,1.0,-210.0,1,-1.0,-1.0
543,543,-0.5775683977720197,-0.6,1.0,332.0,948.0,1.0,680.0,1,-1.0,-1.0
544,544,-0.08067130333875128,-0.1,1.0,334.0,823.0,1.0,-607.0,1,-1.0,-1.0
545,545,0.26051508892219044,0.3,-1.0,382.0,932.0,0.0,3686.0,0,-1.0,0.0
546,546,-0.5486358870548023,-0.5,1.0,301.0,941.0,1.0,98.0,1,-1.0,-1.0
547,547,0.29363481745095166,0.3,1.0,275.0,686.0,1.0,439.0,1,1.0,1.0
548,548,0.6152009181069632,0.6,1.0,278.0,880.0,1.0,312.0,1,1.0,1.0
549,549,0.7262825487539538,0.7,-1.0,292.0,855.0,0.0,3853.0,0,-1.0,0.0
550,550,0.3747417155990188,0.4,1.0,314.0,780.0,1.0,336.0,1,1.0,1.0
551,551,0.2759016469750254,0.3,-1.0,385.0,615.0,0.0,4000.0,0,-1.0,0.0
552,552,0.040491078916111145,0.0,-1.0,278.0,912.0,0.0,3810.0,0,-1.0,0.0
553,553,0.8407301034266167,0.8,-1.0,413.0,933.0,1.0,-786.0,0,-1.0,-1.0
554,554,0.7822379791503896,0.8,-1.0,270.0,797.0,0.0,3933.0,0,-1.0,0.0
555,555,0.3925324526261663,0.4,1.0,349.0,970.0,1.0,581.0,1,1.0,1.0
556,556,0.5713615689518677,0.6,1.0,372.0,869.0,1.0,149.0,1,1.0,1.0
557,557,-0.6133752770893204,-0.6,1.0,377.0,742.0,1.0,31.0,1,-1.0,-1.0
558,558,0.7213582639579318,0.7,-1.0,379.0,715.0,1.0,-534.0,0,-1.0,-1.0
559,559,-0.6716790443228262,-0.7,-1.0,342.0,705.0,0.0,3953.0,0,1.0,0.0
560,560,0.849790518661537,0.8,-1.0,332.0,675.0,0.0,3993.0,0,-1.0,0.0
561,561,-0.6662334423603729,-0.7,1.0,274.0,927.0,1.0,79.0,1,-1.0,-1.0
562,562,-0.1150060376512112,-0.1,-1.0,391.0,784.0,0.0,3825.0,0,1.0,0.0
563,563,-0.8717007161923357,-0.9,1.0,310.0,567.0,1.0,63.0,1,-1.0,-1.0
564,564,0.537560429779734,0.5,-1.0,345.0,531.0,0.0,4124.0,0,-1.0,0.0
565,565,-0.4734823957004812,-0.5,1.0,450.0,910.0,1.0,360.0,1,-1.0,-1.0
566,566,-0.7671536538208097,-0.8,1.0,495.0,904.0,1.0,71.0,1,-1.0,-1.0
567,567,-0.5001497084301463,-0.5,-1.0,373.0,668.0,0.0,3959.0,0,1.0,0.0
568,568,0.15660528279205532,0.2,-1.0,375.0,548.0,1.0,-113.0,0,-1.0,-1.0
569,569,0.8478236765973507,0.8,-1.0,355.0,716.0,1.0,-431.0,0,-1.0,-1.0
570,570,-0.8142882249519268,-0.8,-1.0,261.0,557.0,0.0,4182.0,0,1.0,0.0
571,571,0.30677214572783906,0.3,-1.0,257.0,651.0,0.0,4092.0,0,-1.0,0.0
572,572,0.5502746947058704,0.6,-1.0,260.0,818.0,0.0,3922.0,0,-1.0,0.0
573,573,-0.09846674414405421,-0.1,1.0,421.0,826.0,1.0,-627.0,1,-1.0,-1.0
574,574,0.27154780881688956,0.3,-1.0,322.0,625.0,0.0,4053.0,0,-1.0,0.0
575,575,0.1351757985431744,0.1,-1.0,263.0,533.0,0.0,4204.0,0,-1.0,0.0
576,576,0.5858579349308713,0.6,1.0,299.0,930.0,1.0,81.0,1,1.0,1.0
577,577,0.8012197801851512,0.8,-1.0,304.0,927.0,1.0,-471.0,0,-1.0,-1.0
578,578,0.3738374943818482,0.4,-1.0,356.0,864.0,0.0,3780.0,0,-1.0,0.0
579,579,0.15918640553956032,0.2,-1.0,367.0,787.0,0.0,3846.0,0,-1.0,0.0
580,580,-0.6323422059906345,-0.6,-1.0,358.0,518.0,0.0,4124.0,0,1.0,0.0
581,581,0.24172294695897267,0.2,1.0,404.0,766.0,1.0,750.0,1,1.0,1.0
582,582,0.41269845399687355,0.4,-1.0,359.0,897.0,1.0,-726.0,0,-1.0,-1.0
583,583,0.7560119697998063,0.8,-1.0,378.0,862.0,1.0,-650.0,0,-1.0,-1.0
584,584,0.1649706245648873,0.2,-1.0,404.0,824.0,1.0,-668.0,0,-1.0,-1.0
585,585,0.15194456554569802,0.2,-1.0,288.0,732.0,0.0,3980.0,0,-1.0,0.0
586,586,-0.062344006237827654,-0.1,-1.0,257.0,752.0,0.0,3991.0,0,1.0,0.0
587,587,-0.11225102887129013,-0.1,-1.0,326.0,963.0,0.0,3711.0,0,1.0,0.0
588,588,-0.07158034215851028,-0.1,1.0,436.0,856.0,1.0,808.0,1,-1.0,-1.0
589,589,-0.03562362633963667,-0.0,-1.0,466.0,692.0,0.0,3842.0,0,1.0,0.0
590,590,0.6426537679850114,0.6,-1.0,498.0,787.0,1.0,-315.0,0,-1.0,-1.0
591,591,0.8704865893380141,0.9,-1.0,359.0,750.0,0.0,3891.0,0,-1.0,0.0
592,592,-0.5150024424417776,-0.5,1.0,392.0,701.0,1.0,-603.0,1,-1.0,-1.0
593,593,0.7027523161758661,0.7,1.0,348.0,942.0,1.0,190.0,1,1.0,1.0
594,594,-0.49008782106325705,-0.5,1.0,306.0,850.0,1.0,-396.0,1,-1.0,-1.0
595,595,-0.6127411410541681,-0.6,-1.0,472.0,802.0,0.0,3726.0,0,1.0,0.0
596,596,0.45042223804505055,0.5,1.0,363.0,693.0,1.0,124.0,1,1.0,1.0
597,597,-0.8887573426006353,-0.9,-1.0,404.0,691.0,0.0,3905.0,0,1.0,0.0
598,598,-0.8532286590826068,-0.9,1.0,423.0,613.0,1.0,54.0,1,-1.0,-1.0
599,599,-0.5839155938925873,-0.6,-1.0,319.0,523.0,0.0,4158.0,0,1.0,0.0
600,600,-0.15416027256383802,-0.2,1.0,390.0,541.0,1.0,-361.0,1,-1.0,-1.0
601,601,0.6415825919921777,0.6,-1.0,270.0,751.0,0.0,3979.0,0,-1.0,0.0
602,602,0.6539641097221246,0.7,-1.0,318.0,821.0,1.0,-599.0,0,-1.0,-1.0
603,603,0.07387760818337541,0.1,-1.0,367.0,608.0,0.0,4025.0,0,-1.0,0.0
604,604,0.036076438930169985,0.0,-1.0,412.0,502.0,1.0,-144.0,0,-1.0,-1.0
605,605,-0.18282770503645296,-0.2,-1.0,464.0,910.0,0.0,3626.0,0,1.0,0.0
606,606,-0.6760833780778339,-0.7,1.0,365.0,856.0,1.0,279.0,1,-1.0,-1.0
607,607,-0.7581426956850725,-0.8,-1.0,412.0,586.0,0.0,4002.0,0,1.0,0.0
608,608,-0.8306970459661124,-0.8,-1.0,431.0,820.0,0.0,3749.0,0,1.0,0.0
609,609,0.8664173162504468,0.9,-1.0,493.0,571.0,0.0,3936.0,0,-1.0,0.0
610,610,0.31306627239699536,0.3,1.0,253.0,717.0,1.0,620.0,1,1.0,1.0
611,611,0.6155214021547865,0.6,1.0,469.0,678.0,1.0,263.0,1,1.0,1.0
612,612,-0.5024553781471441,-0.5,-1.0,270.0,834.0,0.0,3896.0,0,1.0,0.0
613,613,0.6078513776637063,0.6,1.0,263.0,993.0,1.0,144.0,1,1.0,1.0
614,614,-0.3584039930998534,-0.4,-1.0,464.0,710.0,0.0,3826.0,0,1.0,0.0
615,615,-0.1628587040423548,-0.2,1.0,497.0,813.0,1.0,-640.0,1,-1.0,-1.0
616,616,-0.08896850768105435,-0.1,1.0,472.0,960.0,1.0,-712.0,1,-1.0,-1.0
617,617,-0.23351228695322102,-0.2,1.0,393.0,610.0,1.0,617.0,1,-1.0,-1.0
618,618,-0.4749638805275136,-0.5,1.0,436.0,579.0,1.0,-375.0,1,-1.0,-1.0
619,619,-0.7934895052967276,-0.8,1.0,477.0,851.0,1.0,142.0,1,-1.0,-1.0
620,620,0.23530043596563532,0.2,1.0,418.0,878.0,1.0,674.0,1,1.0,1.0
621,621,0.42253571725318684,0.4,1.0,287.0,826.0,1.0,427.0,1,1.0,1.0
622,622,-0.09381996256519942,-0.1,-1.0,400.0,649.0,0.0,3951.0,0,1.0,0.0
623,623,0.8568609285865957,0.9,1.0,256.0,938.0,1.0,146.0,1,1.0,1.0
624,624,0.048891860449958635,0.0,1.0,316.0,830.0,0.0,3854.0,0,1.0,0.0
625,625,0.6896753635263934,0.7,1.0,431.0,619.0,1.0,260.0,1,1.0,1.0
626,626,-0.0497249988713091,-0.0,1.0,443.0,932.0,1.0,-735.0,1,-1.0,-1.0
627,627,0.5744642052409549,0.6,-1.0,499.0,992.0,0.0,3509.0,0,-1.0,0.0
628,628,-0.44855456711976066,-0.4,1.0,290.0,765.0,1.0,-505.0,1,-1.0,-1.0
629,629,-0.6938589435050702,-0.7,-1.0,282.0,836.0,0.0,3882.0,0,1.0,0.0
630,630,-0.6873591469848491,-0.7,1.0,337.0,845.0,1.0,-972.0,1,-1.0,-1.0
631,631,0.5488521111204493,0.5,1.0,433.0,730.0,1.0,267.0,1,1.0,1.0
632,632,0.0181959768326706,0.0,-1.0,446.0,773.0,1.0,2411.0,0,-1.0,-1.0
633,633,-0.8705339419019427,-0.9,-1.0,407.0,635.0,0.0,3958.0,0,1.0,0.0
634,634,0.23451128242630037,0.2,1.0,250.0,820.0,1.0,590.0,1,1.0,1.0
635,635,0.8322219763389612,0.8,1.0,482.0,695.0,1.0,123.0,1,1.0,1.0
636,636,-0.3497649873166614,-0.3,-1.0,310.0,588.0,0.0,4102.0,0,1.0,0.0
637,637,0.1938205060223649,0.2,1.0,339.0,729.0,1.0,852.0,1,1.0,1.0
638,638,-0.6549348895997436,-0.7,-1.0,403.0,929.0,0.0,3668.0,0,1.0,0.0
639,639,0.7591759179115191,0.8,1.0,458.0,673.0,1.0,129.0,1,1.0,1.0
640,640,-0.8971120634354072,-0.9,-1.0,398.0,770.0,0.0,3832.0,0,1.0,0.0
641,641,-0.03756453671532822,-0.0,1.0,311.0,991.0,1.0,428.0,1,-1.0,-1.0
642,642,0.6821826673347865,0.7,-1.0,286.0,594.0,1.0,-50.0,0,-1.0,-1.0
643,643,-0.15248377348152775,-0.2,1.0,302.0,546.0,1.0,942.0,1,-1.0,-1.0
644,644,-0.7239408079642914,-0.7,1.0,481.0,540.0,1.0,99.0,1,-1.0,-1.0
645,645,-0.5843091481075686,-0.6,1.0,327.0,926.0,1.0,457.0,1,-1.0,-1.0
646,646,0.11457166034750832,0.1,1.0,460.0,537.0,1.0,1413.0,1,1.0,1.0
647,647,-0.3831053742252286,-0.4,-1.0,390.0,615.0,0.0,3995.0,0,1.0,0.0
648,648,-0.2037377465965955,-0.2,1.0,344.0,934.0,1.0,392.0,1,-1.0,-1.0
649,649,0.01021258432339378,0.0,-1.0,274.0,761.0,1.0,-275.0,0,-1.0,-1.0
650,650,-0.5982743036580107,-0.6,1.0,272.0,857.0,1.0,91.0,1,-1.0,-1.0
651,651,-0.6348694288817534,-0.6,1.0,296.0,593.0,1.0,51.0,1,-1.0,-1.0
652,652,-0.3639981388781054,-0.4,1.0,495.0,910.0,1.0,415.0,1,-1.0,-1.0
653,653,-0.654493216573401,-0.7,-1.0,375.0,802.0,0.0,3823.0,0,1.0,0.0
654,654,0.30725471767708334,0.3,-1.0,423.0,538.0,1.0,29.0,0,-1.0,-1.0
655,655,0.8417721179808112,0.8,1.0,414.0,918.0,1.0,58.0,1,1.0,1.0
656,656,0.3358805353565034,0.3,1.0,335.0,970.0,1.0,255.0,1,1.0,1.0
657,657,0.1497459244806033,0.1,1.0,284.0,816.0,1.0,1550.0,1,1.0,1.0
658,658,0.18917815596348453,0.2,-1.0,418.0,515.0,0.0,4067.0,0,-1.0,0.0
659,659,0.808711783044573,0.8,-1.0,430.0,962.0,0.0,3608.0,0,-1.0,0.0
660,660,-0.6713541640880676,-0.7,-1.0,426.0,800.0,0.0,3774.0,0,1.0,0.0
661,661,-0.8666727244891532,-0.9,1.0,272.0,762.0,1.0,-594.0,1,-1.0,-1.0
662,662,-0.5778178697951839,-0.6,1.0,475.0,556.0,1.0,59.0,1,-1.0,-1.0
663,663,-0.2913398122455194,-0.3,-1.0,416.0,786.0,0.0,3798.0,0,1.0,0.0
664,664,-0.807870816120708,-0.8,-1.0,465.0,984.0,0.0,3551.0,0,1.0,0.0
665,665,-0.6026904279913209,-0.6,-1.0,267.0,648.0,0.0,4085.0,0,1.0,0.0
666,666,0.6205941814488601,0.6,1.0,415.0,746.0,1.0,9.0,1,1.0,1.0
667,667,-0.6182358307974065,-0.6,1.0,308.0,873.0,1.0,149.0,1,-1.0,-1.0
668,668,-0.6961546508543567,-0.7,1.0,359.0,602.0,1.0,-351.0,1,-1.0,-1.0
669,669,-0.6588707274788258,-0.7,1.0,414.0,837.0,1.0,-621.0,1,-1.0,-1.0
670,670,0.6052377606455951,0.6,-1.0,328.0,508.0,0.0,4164.0,0,-1.0,0.0
671,671,-0.060959627339913114,-0.1,1.0,402.0,791.0,1.0,2517.0,1,-1.0,-1.0
672,672,0.5815628104680578,0.6,1.0,471.0,531.0,1.0,268.0,1,1.0,1.0
673,673,-0.2782812097116961,-0.3,1.0,258.0,668.0,1.0,-566.0,1,-1.0,-1.0
674,674,-0.4233001447759864,-0.4,1.0,286.0,705.0,1.0,69.0,1,-1.0,-1.0
675,675,-0.36718638349824384,-0.4,1.0,447.0,932.0,1.0,-459.0,1,-1.0,-1.0
676,676,-0.2148532179986048,-0.2,1.0,371.0,599.0,1.0,-200.0,1,-1.0,-1.0
677,677,-0.022063868041755308,-0.0,1.0,363.0,572.0,1.0,-495.0,1,-1.0,-1.0
678,678,-0.4171302429971577,-0.4,1.0,401.0,612.0,1.0,-313.0,1,-1.0,-1.0
679,679,-0.8661162130096648,-0.9,1.0,349.0,647.0,1.0,-536.0,1,-1.0,-1.0
680,680,-0.6780981464739383,-0.7,1.0,328.0,606.0,1.0,156.0,1,-1.0,-1.0
681,681,0.7924071759130399,0.8,1.0,418.0,571.0,1.0,121.0,1,1.0,1.0
682,682,0.6148510236565629,0.6,-1.0,314.0,934.0,1.0,-728.0,0,-1.0,-1.0
683,683,-0.2605073882505897,-0.3,1.0,461.0,810.0,1.0,329.0,1,-1.0,-1.0
684,684,0.052545476365788546,0.1,1.0,493.0,715.0,0.0,3792.0,0,1.0,0.0
685,685,0.7575634883713672,0.8,1.0,257.0,966.0,1.0,107.0,1,1.0,1.0
686,686,-0.8381170757336748,-0.8,-1.0,484.0,679.0,0.0,3837.0,0,1.0,0.0
687,687,-0.46259886999064653,-0.5,-1.0,414.0,873.0,0.0,3713.0,0,1.0,0.0
688,688,0.36453514916896357,0.4,1.0,451.0,858.0,1.0,1.0,1,1.0,1.0
689,689,0.4278089619829474,0.4,-1.0,389.0,583.0,0.0,4028.0,0,-1.0,0.0
690,690,0.7353972274594015,0.7,-1.0,329.0,573.0,1.0,-442.0,0,-1.0,-1.0
691,691,0.21914648421735772,0.2,1.0,253.0,752.0,1.0,805.0,1,1.0,1.0
692,692,-0.2407809187425185,-0.2,-1.0,456.0,766.0,0.0,3778.0,0,1.0,0.0
693,693,0.1688888311233553,0.2,1.0,259.0,932.0,1.0,1319.0,1,1.0,1.0
694,694,-0.06241519494441905,-0.1,1.0,307.0,584.0,1.0,299.0,1,-1.0,-1.0
695,695,-0.49936804539242013,-0.5,-1.0,333.0,774.0,0.0,3893.0,0,1.0,0.0
696,696,-0.8150116327567082,-0.8,-1.0,387.0,929.0,0.0,3684.0,0,1.0,0.0
697,697,0.25043386818428737,0.3,-1.0,293.0,717.0,1.0,0.0,0,-1.0,-1.0
698,698,0.28463555802238505,0.3,1.0,283.0,708.0,1.0,399.0,1,1.0,1.0
699,699,-0.20791203060661323,-0.2,1.0,429.0,550.0,1.0,551.0,1,-1.0,-1.0
700,700,0.10212225851151902,0.1,-1.0,478.0,573.0,0.0,3949.0,0,-1.0,0.0
701,701,-0.6718722631108472,-0.7,1.0,360.0,900.0,1.0,120.0,1,-1.0,-1.0
702,702,-0.09034553255641586,-0.1,-1.0,392.0,768.0,0.0,3840.0,0,1.0,0.0
703,703,-0.777594459938452,-0.8,-1.0,470.0,756.0,0.0,3774.0,0,1.0,0.0
704,704,0.08421585273004573,0.1,-1.0,404.0,994.0,0.0,3602.0,0,-1.0,0.0
705,705,0.2179946956910611,0.2,-1.0,394.0,550.0,0.0,4056.0,0,-1.0,0.0
706,706,-0.38194296590035803,-0.4,-1.0,260.0,635.0,0.0,4105.0,0,1.0,0.0
707,707,-0.13601139537352547,-0.1,1.0,444.0,799.0,1.0,1497.0,1,-1.0,-1.0
708,708,0.3474352899182477,0.3,-1.0,419.0,626.0,1.0,-85.0,0,-1.0,-1.0
709,709,0.3404100005894092,0.3,1.0,406.0,770.0,1.0,274.0,1,1.0,1.0
710,710,0.061544683039904347,0.1,1.0,308.0,570.0,1.0,3332.0,1,1.0,1.0
711,711,0.2670701319405334,0.3,1.0,337.0,593.0,1.0,590.0,1,1.0,1.0
712,712,0.7836774493450108,0.8,-1.0,486.0,596.0,0.0,3918.0,0,-1.0,0.0
713,713,0.6807538652963364,0.7,1.0,343.0,509.0,1.0,198.0,1,1.0,1.0
714,714,-0.6957095222830139,-0.7,1.0,305.0,954.0,1.0,301.0,1,-1.0,-1.0
715,715,0.06397729980936118,0.1,1.0,390.0,882.0,1.0,808.0,1,1.0,1.0
716,716,-0.845508122817907,-0.8,1.0,305.0,903.0,1.0,282.0,1,-1.0,-1.0
717,717,-0.14364692106107746,-0.1,-1.0,463.0,983.0,0.0,3554.0,0,1.0,0.0
718,718,-0.06423361277726347,-0.1,-1.0,253.0,669.0,0.0,4078.0,0,1.0,0.0
719,719,0.4884163225854278,0.5,-1.0,485.0,671.0,0.0,3844.0,0,-1.0,0.0
720,720,0.34557577955020335,0.3,-1.0,278.0,835.0,0.0,3887.0,0,-1.0,0.0
721,721,0.5189138974365249,0.5,-1.0,467.0,907.0,0.0,3626.0,0,-1.0,0.0
722,722,-0.5503493546927505,-0.6,1.0,360.0,873.0,1.0,147.0,1,-1.0,-1.0
723,723,0.5523080360064593,0.6,-1.0,250.0,626.0,1.0,-146.0,0,-1.0,-1.0
724,724,-0.33669418702123366,-0.3,1.0,405.0,840.0,1.0,-335.0,1,-1.0,-1.0
725,725,0.08926384293136236,0.1,-1.0,359.0,643.0,1.0,-82.0,0,-1.0,-1.0
726,726,0.37514467559039233,0.4,-1.0,410.0,549.0,0.0,4041.0,0,-1.0,0.0
727,727,-0.5010909936072003,-0.5,-1.0,353.0,625.0,0.0,4022.0,0,1.0,0.0
728,728,0.4357870492189907,0.4,-1.0,272.0,871.0,1.0,-553.0,0,-1.0,-1.0
729,729,-0.7274233869871365,-0.7,1.0,493.0,729.0,1.0,68.0,1,-1.0,-1.0
730,730,0.1759571084994157,0.2,1.0,388.0,980.0,1.0,932.0,1,1.0,1.0
731,731,-0.42346900389119885,-0.4,1.0,438.0,740.0,1.0,-658.0,1,-1.0,-1.0
732,732,-0.26052047753210894,-0.3,1.0,420.0,903.0,1.0,887.0,1,-1.0,-1.0
733,733,-0.816562209794595,-0.8,-1.0,392.0,601.0,0.0,4007.0,0,1.0,0.0
734,734,0.6971899180792643,0.7,1.0,438.0,828.0,1.0,254.0,1,1.0,1.0
735,735,0.8049461217258739,0.8,-1.0,405.0,658.0,0.0,3937.0,0,-1.0,0.0
736,736,-0.541535773008461,-0.5,1.0,350.0,745.0,1.0,305.0,1,-1.0,-1.0
737,737,-0.6722765578362417,-0.7,1.0,372.0,712.0,1.0,166.0,1,-1.0,-1.0
738,738,0.652813697666245,0.7,-1.0,317.0,854.0,0.0,3829.0,0,-1.0,0.0
739,739,-0.33275419489023106,-0.3,-1.0,473.0,625.0,0.0,3902.0,0,1.0,0.0
740,740,-0.15732379654462236,-0.2,-1.0,449.0,871.0,0.0,3680.0,0,1.0,0.0
741,741,-0.47061233540013064,-0.5,1.0,412.0,530.0,1.0,-152.0,1,-1.0,-1.0
742,742,-0.5996033665725812,-0.6,1.0,351.0,997.0,1.0,312.0,1,-1.0,-1.0
743,743,-0.47693684941516684,-0.5,-1.0,383.0,607.0,0.0,4010.0,0,1.0,0.0
744,744,0.7360658265575338,0.7,1.0,329.0,975.0,1.0,26.0,1,1.0,1.0
745,745,0.20148644076090771,0.2,-1.0,397.0,866.0,0.0,3737.0,0,-1.0,0.0
746,746,0.6953422071986498,0.7,-1.0,423.0,984.0,0.0,3593.0,0,-1.0,0.0
747,747,0.21630037151044668,0.2,-1.0,278.0,576.0,0.0,4146.0,0,-1.0,0.0
748,748,0.04759200420156029,0.0,1.0,376.0,561.0,0.0,4063.0,0,1.0,0.0
749,749,0.0105571476227444,0.0,1.0,481.0,766.0,0.0,3753.0,0,1.0,0.0
750,750,0.8126988059154682,0.8,1.0,314.0,834.0,1.0,142.0,1,1.0,1.0
751,751,0.4920554049692619,0.5,1.0,430.0,647.0,1.0,393.0,1,1.0,1.0
752,752,-0.3728255636005062,-0.4,-1.0,380.0,547.0,0.0,4073.0,0,1.0,0.0
753,753,-0.09661751627524418,-0.1,-1.0,497.0,912.0,0.0,3591.0,0,1.0,0.0
754,754,0.7789370474690774,0.8,-1.0,342.0,733.0,1.0,-385.0,0,-1.0,-1.0
755,755,-0.8273542107388243,-0.8,1.0,421.0,655.0,1.0,94.0,1,-1.0,-1.0
756,756,-0.33116030731953505,-0.3,1.0,361.0,800.0,1.0,-1051.0,1,-1.0,-1.0
757,757,0.3458517915052072,0.3,-1.0,437.0,859.0,0.0,3704.0,0,-1.0,0.0
758,758,0.7802882694747789,0.8,-1.0,268.0,851.0,0.0,3881.0,0,-1.0,0.0
759,759,-0.26175670783269767,-0.3,1.0,434.0,566.0,1.0,310.0,1,-1.0,-1.0
760,760,0.20319141382056138,0.2,1.0,405.0,622.0,1.0,563.0,1,1.0,1.0
761,761,-0.7301486901895945,-0.7,-1.0,358.0,749.0,0.0,3893.0,0,1.0,0.0
762,762,-0.7874827895069682,-0.8,1.0,339.0,540.0,1.0,-489.0,1,-1.0,-1.0
763,763,-0.8541199001917513,-0.9,-1.0,441.0,627.0,0.0,3932.0,0,1.0,0.0
764,764,-0.5725559584044178,-0.6,1.0,314.0,628.0,1.0,318.0,1,-1.0,-1.0
765,765,0.5883392344884154,0.6,-1.0,435.0,532.0,0.0,4033.0,0,-1.0,0.0
766,766,-0.24295019696353293,-0.2,-1.0,495.0,833.0,0.0,3672.0,0,1.0,0.0
767,767,0.5722445321826984,0.6,1.0,257.0,556.0,1.0,137.0,1,1.0,1.0
768,768,-0.7162662749443387,-0.7,1.0,412.0,810.0,1.0,118.0,1,-1.0,-1.0
769,769,0.5905441247858348,0.6,-1.0,386.0,635.0,0.0,3979.0,0,-1.0,0.0
770,770,0.3606397428212059,0.4,-1.0,429.0,889.0,0.0,3682.0,0,-1.0,0.0
771,771,0.23660835378461786,0.2,1.0,281.0,588.0,1.0,601.0,1,1.0,1.0
772,772,-0.8573577802519575,-0.9,-1.0,348.0,941.0,0.0,3711.0,0,1.0,0.0
773,773,0.4975240615893318,0.5,1.0,327.0,889.0,1.0,334.0,1,1.0,1.0
774,774,0.809446569756105,0.8,-1.0,326.0,937.0,0.0,3737.0,0,-1.0,0.0
775,775,-0.7849640167355469,-0.8,-1.0,260.0,713.0,0.0,4027.0,0,1.0,0.0
776,776,0.5623638745595964,0.6,1.0,393.0,792.0,1.0,245.0,1,1.0,1.0
777,777,0.007095286225589192,0.0,1.0,319.0,938.0,0.0,3743.0,0,1.0,0.0
778,778,0.8214569369508552,0.8,-1.0,428.0,518.0,1.0,-116.0,0,-1.0,-1.0
779,779,0.6295023124933657,0.6,-1.0,435.0,742.0,1.0,-307.0,0,-1.0,-1.0
780,780,-0.0024347863418932025,-0.0,-1.0,350.0,801.0,0.0,3849.0,0,1.0,0.0
781,781,0.6334426434256709,0.6,-1.0,313.0,665.0,0.0,4022.0,0,-1.0,0.0
782,782,0.039311433980083965,0.0,1.0,433.0,621.0,0.0,3946.0,0,1.0,0.0
783,783,-0.346817825660382,-0.3,1.0,344.0,506.0,1.0,480.0,1,-1.0,-1.0
784,784,-0.6031966570574778,-0.6,-1.0,401.0,636.0,0.0,3963.0,0,1.0,0.0
785,785,-0.24710930813541054,-0.2,-1.0,285.0,832.0,0.0,3883.0,0,1.0,0.0
786,786,0.8118607310123217,0.8,-1.0,413.0,867.0,0.0,3720.0,0,-1.0,0.0
787,787,0.8442613006587055,0.8,1.0,385.0,771.0,1.0,94.0,1,1.0,1.0
788,788,-0.47364276436954467,-0.5,-1.0,496.0,647.0,0.0,3857.0,0,1.0,0.0
789,789,-0.8784800279683211,-0.9,-1.0,498.0,684.0,0.0,3818.0,0,1.0,0.0
790,790,0.1673046255730185,0.2,1.0,470.0,515.0,1.0,345.0,1,1.0,1.0
791,791,-0.5357424819787915,-0.5,1.0,304.0,746.0,1.0,-310.0,1,-1.0,-1.0
792,792,0.5797982014302506,0.6,-1.0,398.0,860.0,0.0,3742.0,0,-1.0,0.0
793,793,0.5702084739991754,0.6,1.0,450.0,548.0,1.0,182.0,1,1.0,1.0
794,794,-0.00047634490058323653,-0.0,-1.0,415.0,807.0,0.0,3778.0,0,1.0,0.0
795,795,0.254744901534082,0.3,1.0,275.0,976.0,1.0,629.0,1,1.0,1.0
796,796,0.583567606952203,0.6,1.0,439.0,716.0,1.0,155.0,1,1.0,1.0
797,797,0.11112467001985882,0.1,1.0,444.0,843.0,1.0,573.0,1,1.0,1.0
798,798,-0.0962126267522887,-0.1,1.0,371.0,859.0,1.0,-620.0,1,-1.0,-1.0
799,799,-0.4081035277200148,-0.4,1.0,353.0,774.0,1.0,193.0,1,-1.0,-1.0
800,800,-0.15536296373921588,-0.2,1.0,453.0,935.0,1.0,1282.0,1,-1.0,-1.0
801,801,0.4034172165165987,0.4,1.0,346.0,696.0,1.0,638.0,1,1.0,1.0
802,802,0.6625856151694157,0.7,-1.0,443.0,605.0,0.0,3952.0,0,-1.0,0.0
803,803,0.2863081202895056,0.3,-1.0,262.0,890.0,1.0,-82.0,0,-1.0,-1.0
804,804,-0.16479893144940405,-0.2,-1.0,413.0,740.0,0.0,3847.0,0,1.0,0.0
805,805,0.575831479180725,0.6,1.0,414.0,746.0,1.0,310.0,1,1.0,1.0
806,806,-0.42080517411722324,-0.4,1.0,283.0,677.0,1.0,80.0,1,-1.0,-1.0
807,807,0.6895533767468619,0.7,-1.0,479.0,570.0,0.0,3951.0,0,-1.0,0.0
808,808,0.6332615071151487,0.6,1.0,298.0,984.0,1.0,198.0,1,1.0,1.0
809,809,-0.048509642924234875,-0.0,1.0,418.0,766.0,1.0,-154.0,1,-1.0,-1.0
810,810,-0.889609167297723,-0.9,1.0,290.0,734.0,1.0,126.0,1,-1.0,-1.0
811,811,0.5106920279605459,0.5,-1.0,322.0,526.0,0.0,4152.0,0,-1.0,0.0
812,812,-0.3584153235085983,-0.4,1.0,387.0,537.0,1.0,-384.0,1,-1.0,-1.0
813,813,0.7356314190457486,0.7,-1.0,255.0,753.0,1.0,-38.0,0,-1.0,-1.0
814,814,0.6870168656748811,0.7,-1.0,422.0,655.0,0.0,3923.0,0,-1.0,0.0
815,815,0.6891621223516492,0.7,1.0,317.0,748.0,1.0,195.0,1,1.0,1.0
816,816,-0.19366629341697927,-0.2,1.0,408.0,867.0,1.0,1415.0,1,-1.0,-1.0
817,817,-0.7983276515761635,-0.8,1.0,404.0,509.0,1.0,237.0,1,-1.0,-1.0
818,818,-0.4644395361778486,-0.5,-1.0,272.0,720.0,0.0,4008.0,0,1.0,0.0
819,819,-0.25547122230641706,-0.3,1.0,291.0,631.0,1.0,-402.0,1,-1.0,-1.0
820,820,0.15525834860537502,0.2,-1.0,487.0,738.0,0.0,3775.0,0,-1.0,0.0
821,821,0.2631909941245357,0.3,1.0,373.0,813.0,1.0,554.0,1,1.0,1.0
822,822,0.5991471242095637,0.6,1.0,313.0,943.0,1.0,164.0,1,1.0,1.0
823,823,0.7402293877962901,0.7,1.0,315.0,663.0,1.0,102.0,1,1.0,1.0
824,824,0.8959176833834633,0.9,1.0,475.0,595.0,1.0,180.0,1,1.0,1.0
825,825,0.12435130996970056,0.1,-1.0,277.0,716.0,1.0,-653.0,0,-1.0,-1.0
826,826,-0.2454200925897002,-0.2,-1.0,300.0,577.0,1.0,-837.0,0,1.0,1.0
827,827,-0.7294143541858857,-0.7,1.0,457.0,802.0,1.0,111.0,1,-1.0,-1.0
828,828,0.48368725438379945,0.5,-1.0,433.0,854.0,1.0,-267.0,0,-1.0,-1.0
829,829,0.10468152743294368,0.1,-1.0,435.0,892.0,0.0,3673.0,0,-1.0,0.0
830,830,-0.4146781215278316,-0.4,1.0,389.0,950.0,1.0,131.0,1,-1.0,-1.0
831,831,-0.7309485887150265,-0.7,1.0,253.0,570.0,1.0,237.0,1,-1.0,-1.0
832,832,0.3002351117763241,0.3,1.0,261.0,661.0,1.0,158.0,1,1.0,1.0
833,833,0.3509823810884637,0.4,-1.0,264.0,869.0,1.0,-183.0,0,-1.0,-1.0
834,834,-0.0640134876117846,-0.1,-1.0,373.0,939.0,0.0,3688.0,0,1.0,0.0
835,835,-0.7258569405510564,-0.7,-1.0,468.0,596.0,0.0,3936.0,0,1.0,0.0
836,836,0.2862685840605289,0.3,1.0,350.0,500.0,1.0,670.0,1,1.0,1.0
837,837,-0.24228102915448113,-0.2,-1.0,289.0,861.0,0.0,3850.0,0,1.0,0.0
838,838,0.6855785448715653,0.7,-1.0,321.0,935.0,0.0,3744.0,0,-1.0,0.0
839,839,0.08074951505963412,0.1,1.0,261.0,979.0,0.0,3760.0,0,1.0,0.0
840,840,-0.4859921155341648,-0.5,-1.0,345.0,725.0,0.0,3930.0,0,1.0,0.0
841,841,-0.3166046403161279,-0.3,-1.0,358.0,634.0,0.0,4008.0,0,1.0,0.0
842,842,-0.8285233268592629,-0.8,-1.0,415.0,886.0,0.0,3699.0,0,1.0,0.0
843,843,0.5778803273207259,0.6,1.0,316.0,512.0,1.0,162.0,1,1.0,1.0
844,844,0.39970006002609393,0.4,1.0,336.0,695.0,1.0,489.0,1,1.0,1.0
845,845,-0.2311727785437222,-0.2,-1.0,256.0,505.0,0.0,4239.0,0,1.0,0.0
846,846,-0.8647398833782068,-0.9,-1.0,344.0,583.0,0.0,4073.0,0,1.0,0.0
847,847,0.20930609806336886,0.2,1.0,493.0,873.0,1.0,194.0,1,1.0,1.0
848,848,-0.0010778739164001294,-0.0,1.0,421.0,509.0,1.0,1050.0,1,-1.0,-1.0
849,849,0.5710202914089907,0.6,-1.0,351.0,875.0,0.0,3774.0,0,-1.0,0.0
850,850,-0.3659626387235835,-0.4,-1.0,312.0,638.0,1.0,-920.0,0,1.0,1.0
851,851,0.8289097716307222,0.8,1.0,271.0,782.0,1.0,117.0,1,1.0,1.0
852,852,-0.3603231895921123,-0.4,-1.0,372.0,607.0,0.0,4021.0,0,1.0,0.0
853,853,-0.3839551980821748,-0.4,1.0,467.0,616.0,1.0,317.0,1,-1.0,-1.0
854,854,0.7183014927103596,0.7,-1.0,344.0,875.0,0.0,3781.0,0,-1.0,0.0
855,855,-0.4813861468541834,-0.5,1.0,252.0,736.0,1.0,122.0,1,-1.0,-1.0
856,856,0.8137381686029131,0.8,1.0,488.0,914.0,1.0,98.0,1,1.0,1.0
857,857,0.7059892725092355,0.7,1.0,395.0,649.0,1.0,236.0,1,1.0,1.0
858,858,-0.04219145733060681,-0.0,1.0,493.0,831.0,1.0,-564.0,1,-1.0,-1.0
859,859,0.20262909966025788,0.2,1.0,344.0,879.0,1.0,587.0,1,1.0,1.0
860,860,-0.6483038459489212,-0.6,1.0,315.0,837.0,1.0,118.0,1,-1.0,-1.0
861,861,-0.7977268969919465,-0.8,1.0,254.0,622.0,1.0,154.0,1,-1.0,-1.0
862,862,0.6166162305020749,0.6,1.0,496.0,705.0,1.0,109.0,1,1.0,1.0
863,863,-0.881418099507526,-0.9,-1.0,438.0,599.0,0.0,3963.0,0,1.0,0.0
864,864,0.7364725791417482,0.7,-1.0,432.0,785.0,0.0,3783.0,0,-1.0,0.0
865,865,0.7108742808997047,0.7,1.0,374.0,968.0,1.0,208.0,1,1.0,1.0
866,866,-0.653889010413116,-0.7,1.0,251.0,584.0,1.0,-205.0,1,-1.0,-1.0
867,867,0.013800572156584368,0.0,1.0,330.0,908.0,0.0,3762.0,0,1.0,0.0
868,868,-0.7442779940134316,-0.7,-1.0,346.0,727.0,0.0,3927.0,0,1.0,0.0
869,869,0.2472202660335413,0.2,1.0,284.0,821.0,1.0,635.0,1,1.0,1.0
870,870,-0.45879553833800824,-0.5,-1.0,289.0,987.0,0.0,3724.0,0,1.0,0.0
871,871,-0.5821007967993275,-0.6,-1.0,423.0,715.0,0.0,3862.0,0,1.0,0.0
872,872,-0.06669912779827702,-0.1,-1.0,396.0,534.0,0.0,4070.0,0,1.0,0.0
873,873,-0.2560185506873661,-0.3,1.0,444.0,711.0,1.0,235.0,1,-1.0,-1.0
874,874,0.641286047861955,0.6,-1.0,419.0,583.0,1.0,-482.0,0,-1.0,-1.0
875,875,-0.34549804676488083,-0.3,1.0,409.0,603.0,1.0,-212.0,1,-1.0,-1.0
876,876,0.10974850200018482,0.1,1.0,485.0,897.0,1.0,2738.0,1,1.0,1.0
877,877,-0.20186732903025462,-0.2,1.0,347.0,569.0,1.0,-496.0,1,-1.0,-1.0
878,878,-0.07594721640800284,-0.1,-1.0,364.0,573.0,0.0,4063.0,0,1.0,0.0
879,879,-0.266681557619034,-0.3,-1.0,494.0,528.0,0.0,3978.0,0,1.0,0.0
880,880,0.8160542998377495,0.8,1.0,479.0,514.0,1.0,187.0,1,1.0,1.0
881,881,-0.814556018415478,-0.8,-1.0,360.0,982.0,0.0,3658.0,0,1.0,0.0
882,882,-0.3490391192470379,-0.3,-1.0,355.0,929.0,0.0,3716.0,0,1.0,0.0
883,883,-0.0678645947827482,-0.1,-1.0,310.0,850.0,0.0,3840.0,0,1.0,0.0
884,884,-0.01729942482009572,-0.0,1.0,326.0,738.0,0.0,3936.0,0,-1.0,0.0
885,885,-0.4775561496301801,-0.5,1.0,308.0,920.0,1.0,362.0,1,-1.0,-1.0
886,886,-0.10075313138935738,-0.1,-1.0,263.0,760.0,0.0,3977.0,0,1.0,0.0
887,887,-0.3561361999161259,-0.4,-1.0,368.0,790.0,0.0,3842.0,0,1.0,0.0
888,888,-0.830540405648439,-0.8,-1.0,490.0,551.0,0.0,3959.0,0,1.0,0.0
889,889,-0.2264430421606256,-0.2,1.0,422.0,841.0,1.0,-1103.0,1,-1.0,-1.0
890,890,0.5518924696754429,0.6,1.0,273.0,556.0,1.0,71.0,1,1.0,1.0
891,891,0.7339934874161326,0.7,1.0,399.0,646.0,1.0,155.0,1,1.0,1.0
892,892,0.6463437105696653,0.6,1.0,485.0,856.0,1.0,169.0,1,1.0,1.0
893,893,-0.6867463814571129,-0.7,1.0,462.0,838.0,1.0,-310.0,1,-1.0,-1.0
894,894,0.51639229183389,0.5,1.0,389.0,691.0,1.0,250.0,1,1.0,1.0
895,895,-0.8141362694134542,-0.8,-1.0,297.0,971.0,0.0,3732.0,0,1.0,0.0
896,896,0.09203045627064343,0.1,1.0,332.0,851.0,1.0,-403.0,1,1.0,1.0
897,897,-0.8818602550023867,-0.9,1.0,477.0,916.0,1.0,-773.0,1,-1.0,-1.0
898,898,0.17400709449588458,0.2,1.0,336.0,896.0,1.0,1638.0,1,1.0,1.0
899,899,0.3420624862997309,0.3,1.0,307.0,811.0,1.0,302.0,1,1.0,1.0
900,900,-0.15236528130733196,-0.2,-1.0,371.0,836.0,0.0,3793.0,0,1.0,0.0
901,901,-0.4331422559154709,-0.4,1.0,339.0,729.0,1.0,332.0,1,-1.0,-1.0
902,902,-0.8646093257343545,-0.9,-1.0,358.0,508.0,0.0,4134.0,0,1.0,0.0
903,903,0.03449816673337114,0.0,-1.0,356.0,860.0,1.0,744.0,0,-1.0,-1.0
904,904,0.42481746077673443,0.4,-1.0,382.0,942.0,0.0,3676.0,0,-1.0,0.0
905,905,-0.12984628741721937,-0.1,1.0,311.0,701.0,1.0,-472.0,1,-1.0,-1.0
906,906,0.020212516406709735,0.0,1.0,450.0,630.0,0.0,3920.0,0,1.0,0.0
907,907,0.8124338311844174,0.8,-1.0,323.0,912.0,0.0,3765.0,0,-1.0,0.0
908,908,0.5522662292777986,0.6,-1.0,317.0,892.0,1.0,-319.0,0,-1.0,-1.0
909,909,-0.18263439828799377,-0.2,-1.0,478.0,997.0,0.0,3525.0,0,1.0,0.0
910,910,0.682661398395569,0.7,1.0,270.0,593.0,1.0,137.0,1,1.0,1.0
911,911,0.04890402499550994,0.0,-1.0,376.0,917.0,0.0,3707.0,0,-1.0,0.0
912,912,-0.7708662874293982,-0.8,-1.0,479.0,574.0,0.0,3947.0,0,1.0,0.0
913,913,0.1324520856538366,0.1,1.0,464.0,697.0,1.0,3399.0,1,1.0,1.0
914,914,-0.02170524603567714,-0.0,1.0,493.0,599.0,1.0,478.0,1,-1.0,-1.0
915,915,0.781496117426015,0.8,1.0,335.0,946.0,1.0,59.0,1,1.0,1.0
916,916,-0.06072523344737235,-0.1,1.0,329.0,714.0,1.0,-113.0,1,-1.0,-1.0
917,917,0.11778379060910693,0.1,-1.0,264.0,660.0,0.0,4076.0,0,-1.0,0.0
918,918,-0.4622960667820963,-0.5,1.0,492.0,885.0,1.0,253.0,1,-1.0,-1.0
919,919,-0.1411380090989729,-0.1,1.0,437.0,879.0,1.0,-766.0,1,-1.0,-1.0
920,920,0.6940940434103194,0.7,-1.0,332.0,941.0,1.0,-263.0,0,-1.0,-1.0
921,921,-0.048186622325754214,-0.0,-1.0,463.0,575.0,0.0,3962.0,0,1.0,0.0
922,922,-0.4986164424813723,-0.5,-1.0,381.0,825.0,0.0,3794.0,0,1.0,0.0
923,923,0.1467413386011861,0.1,1.0,261.0,762.0,1.0,2607.0,1,1.0,1.0
924,924,0.5748760395349418,0.6,-1.0,371.0,603.0,0.0,4026.0,0,-1.0,0.0
925,925,0.5059773293062985,0.5,1.0,372.0,996.0,1.0,202.0,1,1.0,1.0
926,926,0.533516606186155,0.5,-1.0,316.0,691.0,0.0,3993.0,0,-1.0,0.0
927,927,0.031895934554108996,0.0,1.0,420.0,659.0,0.0,3921.0,0,1.0,0.0
928,928,-0.806797791208834,-0.8,1.0,372.0,504.0,1.0,184.0,1,-1.0,-1.0
929,929,-0.04566166853218956,-0.0,-1.0,258.0,990.0,0.0,3752.0,0,1.0,0.0
930,930,-0.5148465702415855,-0.5,-1.0,462.0,525.0,0.0,4013.0,0,1.0,0.0
931,931,-0.04252880072663068,-0.0,1.0,340.0,855.0,1.0,975.0,1,-1.0,-1.0
932,932,0.586594632929765,0.6,1.0,309.0,958.0,1.0,143.0,1,1.0,1.0
933,933,0.5797538800520617,0.6,-1.0,329.0,787.0,1.0,-196.0,0,-1.0,-1.0
934,934,-0.285766730826173,-0.3,1.0,449.0,576.0,1.0,-65.0,1,-1.0,-1.0
935,935,0.41716788842278507,0.4,-1.0,360.0,604.0,0.0,4036.0,0,-1.0,0.0
936,936,0.8798874866259042,0.9,1.0,475.0,754.0,1.0,131.0,1,1.0,1.0
937,937,-0.01735156847407937,-0.0,1.0,322.0,961.0,1.0,287.0,1,-1.0,-1.0
938,938,0.3866077590133329,0.4,-1.0,298.0,642.0,1.0,-210.0,0,-1.0,-1.0
939,939,0.6542994628635416,0.7,-1.0,421.0,633.0,0.0,3946.0,0,-1.0,0.0
940,940,-0.2172912328370793,-0.2,1.0,402.0,689.0,1.0,289.0,1,-1.0,-1.0
941,941,0.3719773608410316,0.4,1.0,273.0,529.0,1.0,218.0,1,1.0,1.0
942,942,0.7542812382176555,0.8,1.0,291.0,637.0,1.0,172.0,1,1.0,1.0
943,943,0.4508269686485701,0.5,1.0,260.0,780.0,1.0,90.0,1,1.0,1.0
944,944,-0.7224315440764413,-0.7,-1.0,473.0,597.0,0.0,3930.0,0,1.0,0.0
945,945,-0.3133522568488225,-0.3,-1.0,352.0,885.0,0.0,3763.0,0,1.0,0.0
946,946,-0.3335653365772605,-0.3,-1.0,298.0,860.0,0.0,3842.0,0,1.0,0.0
947,947,0.5412968826416537,0.5,-1.0,331.0,788.0,0.0,3881.0,0,-1.0,0.0
948,948,0.23281837341676115,0.2,-1.0,383.0,643.0,0.0,3974.0,0,-1.0,0.0
949,949,0.6208035189212388,0.6,1.0,425.0,773.0,1.0,272.0,1,1.0,1.0
950,950,0.7267813964506765,0.7,1.0,306.0,995.0,1.0,229.0,1,1.0,1.0
951,951,0.5036762903731183,0.5,-1.0,344.0,736.0,0.0,3920.0,0,-1.0,0.0
952,952,-0.5682086959116579,-0.6,-1.0,355.0,662.0,0.0,3983.0,0,1.0,0.0
953,953,-0.7069403559054254,-0.7,-1.0,480.0,575.0,0.0,3945.0,0,1.0,0.0
954,954,-0.4298950772118583,-0.4,-1.0,312.0,985.0,0.0,3703.0,0,1.0,0.0
955,955,0.5170132999330256,0.5,-1.0,323.0,505.0,0.0,4172.0,0,-1.0,0.0
956,956,-0.8890175585366843,-0.9,1.0,369.0,772.0,1.0,89.0,1,-1.0,-1.0
957,957,0.673756581397882,0.7,1.0,435.0,880.0,1.0,85.0,1,1.0,1.0
958,958,-0.1369389060195031,-0.1,1.0,279.0,716.0,1.0,-165.0,1,-1.0,-1.0
959,959,-0.24228026261837277,-0.2,-1.0,274.0,651.0,0.0,4075.0,0,1.0,0.0
960,960,-0.205841545166361,-0.2,-1.0,482.0,639.0,0.0,3879.0,0,1.0,0.0
961,961,-0.06222129790396602,-0.1,-1.0,348.0,878.0,0.0,3774.0,0,1.0,0.0
962,962,-0.7750872155439451,-0.8,-1.0,468.0,890.0,0.0,3642.0,0,1.0,0.0
963,963,-0.1694858082873033,-0.2,1.0,398.0,654.0,1.0,498.0,1,-1.0,-1.0
964,964,-0.09620106954563734,-0.1,-1.0,407.0,858.0,0.0,3735.0,0,1.0,0.0
965,965,0.3894752244104166,0.4,-1.0,461.0,555.0,0.0,3984.0,0,-1.0,0.0
966,966,0.37955144170007127,0.4,1.0,493.0,506.0,1.0,491.0,1,1.0,1.0
967,967,0.43147003703058784,0.4,1.0,300.0,841.0,1.0,149.0,1,1.0,1.0
968,968,0.8597909994407579,0.9,1.0,484.0,750.0,1.0,146.0,1,1.0,1.0
969,969,0.41493660866237414,0.4,-1.0,423.0,511.0,0.0,4066.0,0,-1.0,0.0
970,970,0.18672408108058447,0.2,-1.0,431.0,800.0,1.0,-1.0,0,-1.0,-1.0
971,971,-0.3438013118155838,-0.3,-1.0,288.0,925.0,0.0,3787.0,0,1.0,0.0
972,972,0.3019956219249763,0.3,1.0,395.0,528.0,1.0,357.0,1,1.0,1.0
973,973,0.4175040855581581,0.4,1.0,481.0,913.0,1.0,236.0,1,1.0,1.0
974,974,0.5480285498785277,0.5,1.0,434.0,890.0,1.0,406.0,1,1.0,1.0
975,975,-0.5607376107597961,-0.6,1.0,254.0,621.0,1.0,235.0,1,-1.0,-1.0
976,976,-0.3335830329099445,-0.3,1.0,258.0,979.0,1.0,63.0,1,-1.0,-1.0
977,977,-0.3623547349813747,-0.4,-1.0,326.0,749.0,0.0,3925.0,0,1.0,0.0
978,978,-0.007141983705982513,-0.0,-1.0,487.0,914.0,0.0,3599.0,0,1.0,0.0
979,979,0.6148090030722441,0.6,1.0,406.0,519.0,1.0,105.0,1,1.0,1.0
980,980,-0.21486075213570743,-0.2,1.0,355.0,674.0,1.0,601.0,1,-1.0,-1.0
981,981,-0.20885080695255864,-0.2,1.0,438.0,806.0,1.0,326.0,1,-1.0,-1.0
982,982,0.2719583175349215,0.3,-1.0,451.0,880.0,1.0,-571.0,0,-1.0,-1.0
983,983,0.3444760289563701,0.3,-1.0,430.0,919.0,1.0,-379.0,0,-1.0,-1.0
984,984,-0.893643667583728,-0.9,-1.0,264.0,992.0,0.0,3744.0,0,1.0,0.0
985,985,-0.753376537399013,-0.8,1.0,267.0,993.0,1.0,-240.0,1,-1.0,-1.0
986,986,-0.2155387063002443,-0.2,-1.0,279.0,617.0,0.0,4104.0,0,1.0,0.0
987,987,-0.21324062549659917,-0.2,-1.0,259.0,882.0,0.0,3859.0,0,1.0,0.0
988,988,0.7936381167462102,0.8,-1.0,465.0,572.0,1.0,-337.0,0,-1.0,-1.0
989,989,-0.8697172826940417,-0.9,1.0,347.0,505.0,1.0,-122.0,1,-1.0,-1.0
990,990,0.7155574151703953,0.7,1.0,275.0,614.0,1.0,141.0,1,1.0,1.0
991,991,0.5638678480332687,0.6,-1.0,372.0,907.0,0.0,3721.0,0,-1.0,0.0
992,992,0.8652526380170135,0.9,-1.0,345.0,671.0,0.0,3984.0,0,-1.0,0.0
993,993,-0.6162340260391006,-0.6,1.0,411.0,790.0,1.0,-21.0,1,-1.0,-1.0
994,994,-0.38322613229112246,-0.4,-1.0,491.0,964.0,0.0,3545.0,0,1.0,0.0
995,995,-0.6476186806164936,-0.6,1.0,407.0,779.0,1.0,-176.0,1,-1.0,-1.0
996,996,-0.16055415455923083,-0.2,1.0,294.0,812.0,1.0,154.0,1,-1.0,-1.0
997,997,0.341463253812441,0.3,1.0,314.0,512.0,1.0,-526.0,1,1.0,1.0
998,998,0.2708592636681467,0.3,1.0,353.0,863.0,1.0,1124.0,1,1.0,1.0
999,999,-0.6643992105530593,-0.7,-1.0,439.0,811.0,0.0,3750.0,0,1.0,0.0
1000,1000,-0.08574251481336148,-0.1,-1.0,436.0,706.0,0.0,3858.0,0,1.0,0.0
1001,1001,0.49344593197587205,0.5,1.0,329.0,991.0,1.0,150.0,1,1.0,1.0
1002,1002,0.02423335981310315,0.0,1.0,474.0,649.0,1.0,2077.0,1,1.0,1.0
1003,1003,-0.3856801198672116,-0.4,-1.0,442.0,578.0,0.0,3980.0,0,1.0,0.0
1004,1004,-0.06435857626113695,-0.1,-1.0,365.0,900.0,0.0,3735.0,0,1.0,0.0
1005,1005,-0.6802497357661896,-0.7,-1.0,383.0,730.0,0.0,3887.0,0,1.0,0.0
1006,1006,-0.33738428867883863,-0.3,1.0,462.0,663.0,1.0,125.0,1,-1.0,-1.0
1007,1007,-0.09134618736534994,-0.1,1.0,328.0,612.0,1.0,-340.0,1,-1.0,-1.0
1008,1008,0.8349153868309983,0.8,1.0,471.0,671.0,1.0,148.0,1,1.0,1.0
1009,1009,-0.2098552393126858,-0.2,1.0,456.0,546.0,1.0,-812.0,1,-1.0,-1.0
1010,1010,0.20326040681990276,0.2,-1.0,490.0,711.0,0.0,3799.0,0,-1.0,0.0
1011,1011,-0.39566536377582184,-0.4,1.0,282.0,623.0,1.0,-535.0,1,-1.0,-1.0
1012,1012,0.6039702572292364,0.6,-1.0,471.0,837.0,1.0,-778.0,0,-1.0,-1.0
1013,1013,0.6879785941271069,0.7,1.0,410.0,825.0,1.0,125.0,1,1.0,1.0
1014,1014,0.12526987121120314,0.1,-1.0,303.0,804.0,1.0,-207.0,0,-1.0,-1.0
1015,1015,-0.8705547397862209,-0.9,1.0,435.0,628.0,1.0,147.0,1,-1.0,-1.0
1016,1016,0.024419007748349708,0.0,-1.0,465.0,562.0,0.0,3973.0,0,-1.0,0.0
1017,1017,0.135288831363369,0.1,-1.0,313.0,692.0,1.0,-275.0,0,-1.0,-1.0
1018,1018,-0.3256893609215158,-0.3,1.0,392.0,574.0,1.0,134.0,1,-1.0,-1.0
1019,1019,-0.5006271918315144,-0.5,-1.0,268.0,603.0,0.0,4129.0,0,1.0,0.0
1020,1020,0.3588279872899335,0.4,1.0,413.0,870.0,1.0,217.0,1,1.0,1.0
1021,1021,-0.029055979062544313,-0.0,1.0,448.0,704.0,1.0,1258.0,1,-1.0,-1.0
1022,1022,0.5934988469018206,0.6,-1.0,414.0,816.0,1.0,-710.0,0,-1.0,-1.0
1023,1023,-0.32923177080458954,-0.3,-1.0,332.0,921.0,0.0,3747.0,0,1.0,0.0
1024,1024,-0.40330298371264217,-0.4,-1.0,289.0,866.0,0.0,3845.0,0,1.0,0.0
1025,1025,0.15668707911527824,0.2,-1.0,343.0,983.0,1.0,-446.0,0,-1.0,-1.0
1026,1026,-0.283884899629956,-0.3,-1.0,408.0,553.0,0.0,4039.0,0,1.0,0.0
1027,1027,0.6871147557079885,0.7,-1.0,419.0,979.0,1.0,-528.0,0,-1.0,-1.0
1028,1028,-0.6730087826163562,-0.7,1.0,395.0,510.0,1.0,165.0,1,-1.0,-1.0
1029,1029,0.1333171813533579,0.1,-1.0,292.0,512.0,0.0,4196.0,0,-1.0,0.0
1030,1030,-0.30777397825201147,-0.3,-1.0,459.0,758.0,0.0,3783.0,0,1.0,0.0
1031,1031,0.7520884655506784,0.8,1.0,406.0,859.0,1.0,135.0,1,1.0,1.0
1032,1032,0.8042783503972667,0.8,1.0,403.0,542.0,1.0,135.0,1,1.0,1.0
1033,1033,0.15319600186911952,0.2,-1.0,294.0,597.0,0.0,4109.0,0,-1.0,0.0
1034,1034,0.30397019884029286,0.3,1.0,450.0,670.0,1.0,400.0,1,1.0,1.0
1035,1035,0.7578413407232077,0.8,-1.0,273.0,858.0,0.0,3869.0,0,-1.0,0.0
1036,1036,0.017207034586913972,0.0,-1.0,262.0,884.0,0.0,3854.0,0,-1.0,0.0
1037,1037,0.8315285592823985,0.8,-1.0,439.0,671.0,1.0,-290.0,0,-1.0,-1.0
1038,1038,-0.11857630784307571,-0.1,-1.0,459.0,865.0,0.0,3676.0,0,1.0,0.0
1039,1039,-0.2519923331608057,-0.3,-1.0,472.0,674.0,0.0,3854.0,0,1.0,0.0
1040,1040,-0.25975483938569677,-0.3,1.0,389.0,537.0,1.0,-466.0,1,-1.0,-1.0
1041,1041,0.15205526823838367,0.2,1.0,457.0,560.0,1.0,1663.0,1,1.0,1.0
1042,1042,0.35422954224353387,0.4,-1.0,251.0,512.0,1.0,-263.0,0,-1.0,-1.0
1043,1043,-0.15594013875863322,-0.2,1.0,483.0,686.0,1.0,921.0,1,-1.0,-1.0
1044,1044,-0.18116978600893652,-0.2,-1.0,398.0,812.0,0.0,3790.0,0,1.0,0.0
1045,1045,-0.7624316537904476,-0.8,1.0,441.0,634.0,1.0,125.0,1,-1.0,-1.0
1046,1046,-0.8682922159333195,-0.9,1.0,308.0,719.0,1.0,133.0,1,-1.0,-1.0
1047,1047,-0.33741732116145484,-0.3,-1.0,490.0,664.0,0.0,3846.0,0,1.0,0.0
1048,1048,0.32744649138336623,0.3,-1.0,280.0,899.0,1.0,-249.0,0,-1.0,-1.0
1049,1049,-0.4338719744698371,-0.4,1.0,468.0,723.0,1.0,279.0,1,-1.0,-1.0
1050,1050,-0.010962032981524206,-0.0,-1.0,415.0,922.0,0.0,3663.0,0,1.0,0.0
1051,1051,0.3378859408872449,0.3,1.0,397.0,531.0,1.0,582.0,1,1.0,1.0
1052,1052,-0.543031388280363,-0.5,-1.0,481.0,921.0,0.0,3598.0,0,1.0,0.0
1053,1053,-0.36666203702216815,-0.4,-1.0,344.0,873.0,0.0,3783.0,0,1.0,0.0
1054,1054,0.8658240869837986,0.9,-1.0,398.0,796.0,0.0,3806.0,0,-1.0,0.0
1055,1055,-0.5723382953298608,-0.6,1.0,269.0,950.0,1.0,361.0,1,-1.0,-1.0
1056,1056,-0.12176193194167917,-0.1,1.0,426.0,958.0,1.0,-524.0,1,-1.0,-1.0
1057,1057,0.0005138625648772877,0.0,1.0,335.0,961.0,0.0,3704.0,0,1.0,0.0
1058,1058,0.6172046609902532,0.6,-1.0,492.0,888.0,0.0,3620.0,0,-1.0,0.0
1059,1059,0.26947754222545683,0.3,-1.0,340.0,993.0,1.0,-863.0,0,-1.0,-1.0
1060,1060,-0.07880779053214759,-0.1,-1.0,293.0,731.0,0.0,3976.0,0,1.0,0.0
1061,1061,0.4238078355683267,0.4,1.0,426.0,534.0,1.0,160.0,1,1.0,1.0
1062,1062,-0.3738777287561823,-0.4,-1.0,292.0,865.0,0.0,3843.0,0,1.0,0.0
1063,1063,0.8554798152317856,0.9,-1.0,443.0,747.0,0.0,3810.0,0,-1.0,0.0
1064,1064,-0.767965761916245,-0.8,-1.0,469.0,715.0,0.0,3816.0,0,1.0,0.0
1065,1065,0.6682675208626411,0.7,1.0,388.0,944.0,1.0,128.0,1,1.0,1.0
1066,1066,-0.43365407025456,-0.4,-1.0,299.0,757.0,0.0,3944.0,0,1.0,0.0
1067,1067,-0.446258284687315,-0.4,-1.0,395.0,597.0,0.0,4008.0,0,1.0,0.0
1068,1068,0.042457874906475235,0.0,1.0,475.0,797.0,0.0,3728.0,0,1.0,0.0
1069,1069,-0.12705067262461878,-0.1,-1.0,494.0,539.0,0.0,3967.0,0,1.0,0.0
1070,1070,0.8618412683538327,0.9,1.0,484.0,703.0,1.0,163.0,1,1.0,1.0
1071,1071,0.1512289764185465,0.2,1.0,469.0,870.0,1.0,61.0,1,1.0,1.0
1072,1072,0.25652689812091645,0.3,-1.0,379.0,876.0,1.0,-645.0,0,-1.0,-1.0
1073,1073,0.06904667451357072,0.1,-1.0,285.0,550.0,0.0,4165.0,0,-1.0,0.0
1074,1074,-0.46575372158779443,-0.5,-1.0,432.0,837.0,0.0,3731.0,0,1.0,0.0
1075,1075,-0.4661845375565366,-0.5,1.0,459.0,516.0,1.0,615.0,1,-1.0,-1.0
1076,1076,-0.30343700775412064,-0.3,1.0,259.0,732.0,1.0,449.0,1,-1.0,-1.0
1077,1077,-0.604802030395269,-0.6,-1.0,320.0,981.0,0.0,3699.0,0,1.0,0.0
1078,1078,-0.7697814481847978,-0.8,-1.0,487.0,921.0,0.0,3592.0,0,1.0,0.0
1079,1079,0.2536157407762397,0.3,-1.0,478.0,936.0,1.0,-394.0,0,-1.0,-1.0
1080,1080,0.005766354555509001,0.0,-1.0,422.0,855.0,1.0,253.0,0,-1.0,-1.0
1081,1081,-0.765485755479491,-0.8,1.0,368.0,900.0,1.0,-398.0,1,-1.0,-1.0
1082,1082,0.6037753495504584,0.6,-1.0,287.0,809.0,0.0,3904.0,0,-1.0,0.0
1083,1083,0.1633849703229756,0.2,-1.0,370.0,890.0,0.0,3740.0,0,-1.0,0.0
1084,1084,-0.45941437241916244,-0.5,1.0,367.0,834.0,1.0,-11.0,1,-1.0,-1.0
1085,1085,-0.16153521323070696,-0.2,1.0,320.0,921.0,1.0,459.0,1,-1.0,-1.0
1086,1086,-0.22151466155700228,-0.2,1.0,348.0,574.0,1.0,158.0,1,-1.0,-1.0
1087,1087,0.10481399937576497,0.1,-1.0,482.0,590.0,0.0,3928.0,0,-1.0,0.0
1088,1088,-0.5358022380083509,-0.5,1.0,471.0,836.0,1.0,203.0,1,-1.0,-1.0
1089,1089,0.879157374288945,0.9,-1.0,441.0,987.0,0.0,3572.0,0,-1.0,0.0
1090,1090,0.31296992835495396,0.3,1.0,397.0,910.0,1.0,373.0,1,1.0,1.0
1091,1091,0.48532648730799266,0.5,-1.0,403.0,760.0,0.0,3837.0,0,-1.0,0.0
1092,1092,-0.4589866253045511,-0.5,1.0,460.0,662.0,1.0,398.0,1,-1.0,-1.0
1093,1093,0.01601711173011855,0.0,-1.0,340.0,980.0,0.0,3680.0,0,-1.0,0.0
1094,1094,0.47997487286954843,0.5,1.0,292.0,579.0,1.0,179.0,1,1.0,1.0
1095,1095,0.7528183216462337,0.8,1.0,443.0,770.0,1.0,127.0,1,1.0,1.0
1096,1096,0.13983678238783626,0.1,-1.0,255.0,984.0,1.0,-539.0,0,-1.0,-1.0
1097,1097,0.4637687680660777,0.5,-1.0,418.0,740.0,0.0,3842.0,0,-1.0,0.0
1098,1098,0.5484557704139145,0.5,-1.0,404.0,564.0,0.0,4032.0,0,-1.0,0.0
1099,1099,-0.7411187903831691,-0.7,1.0,260.0,884.0,1.0,116.0,1,-1.0,-1.0
1100,1100,0.49341475107556343,0.5,1.0,345.0,888.0,1.0,227.0,1,1.0,1.0
1101,1101,0.18586337068332914,0.2,-1.0,429.0,831.0,1.0,-450.0,0,-1.0,-1.0
1102,1102,0.5596708066143928,0.6,1.0,369.0,857.0,1.0,314.0,1,1.0,1.0
1103,1103,-0.12966199542981327,-0.1,-1.0,330.0,572.0,0.0,4098.0,0,1.0,0.0
1104,1104,0.1634062372479136,0.2,-1.0,324.0,703.0,0.0,3973.0,0,-1.0,0.0
1105,1105,0.04991347239369359,0.0,1.0,314.0,624.0,0.0,4062.0,0,1.0,0.0
1106,1106,0.6895274031927919,0.7,1.0,473.0,543.0,1.0,154.0,1,1.0,1.0
1107,1107,-0.070449259420021,-0.1,-1.0,344.0,623.0,1.0,2153.0,0,1.0,1.0
1108,1108,0.28743453385867823,0.3,1.0,305.0,700.0,1.0,585.0,1,1.0,1.0
1109,1109,-0.6755462698294854,-0.7,1.0,295.0,838.0,1.0,127.0,1,-1.0,-1.0
1110,1110,-0.4687363618811819,-0.5,1.0,284.0,880.0,1.0,346.0,1,-1.0,-1.0
1111,1111,-0.7647186742182122,-0.8,-1.0,396.0,721.0,0.0,3883.0,0,1.0,0.0
1112,1112,0.37545023302198854,0.4,-1.0,431.0,719.0,1.0,-870.0,0,-1.0,-1.0
1113,1113,0.2802107592535571,0.3,-1.0,349.0,734.0,0.0,3917.0,0,-1.0,0.0
1114,1114,0.10797098197842014,0.1,1.0,252.0,692.0,0.0,4056.0,0,1.0,0.0
1115,1115,-0.7144929130959272,-0.7,-1.0,387.0,586.0,0.0,4027.0,0,1.0,0.0
1116,1116,-0.5822389756782732,-0.6,-1.0,352.0,756.0,0.0,3892.0,0,1.0,0.0
1117,1117,-0.2755958379310207,-0.3,1.0,271.0,704.0,1.0,-295.0,1,-1.0,-1.0
1118,1118,-0.7441674377195215,-0.7,-1.0,299.0,722.0,0.0,3979.0,0,1.0,0.0
1119,1119,-0.6300960429928188,-0.6,1.0,492.0,584.0,1.0,214.0,1,-1.0,-1.0
1120,1120,-0.7428054600341362,-0.7,-1.0,294.0,591.0,0.0,4115.0,0,1.0,0.0
1121,1121,-0.3043043085259074,-0.3,1.0,424.0,923.0,1.0,353.0,1,-1.0,-1.0
1122,1122,0.7533273548671301,0.8,-1.0,427.0,567.0,1.0,-124.0,0,-1.0,-1.0
1123,1123,-0.12270444250234402,-0.1,1.0,292.0,541.0,1.0,967.0,1,-1.0,-1.0
1124,1124,0.6063026830679775,0.6,-1.0,363.0,834.0,1.0,-1027.0,0,-1.0,-1.0
1125,1125,-0.5402091100263123,-0.5,1.0,490.0,574.0,1.0,-264.0,1,-1.0,-1.0
1126,1126,-0.11395541691285394,-0.1,1.0,422.0,957.0,1.0,-779.0,1,-1.0,-1.0
1127,1127,0.5438862659411404,0.5,1.0,384.0,611.0,1.0,165.0,1,1.0,1.0
1128,1128,0.048474452758560105,0.0,1.0,346.0,870.0,0.0,3784.0,0,1.0,0.0
1129,1129,-0.44504965394557705,-0.4,1.0,285.0,957.0,1.0,158.0,1,-1.0,-1.0
1130,1130,0.559660734538682,0.6,1.0,486.0,779.0,1.0,95.0,1,1.0,1.0
1131,1131,0.2637063915482457,0.3,-1.0,456.0,932.0,1.0,-168.0,0,-1.0,-1.0
1132,1132,0.6627948478215421,0.7,1.0,385.0,894.0,1.0,101.0,1,1.0,1.0
1133,1133,-0.160799411968508,-0.2,-1.0,363.0,676.0,0.0,3961.0,0,1.0,0.0
1134,1134,-0.32901119675549084,-0.3,-1.0,349.0,506.0,0.0,4145.0,0,1.0,0.0
1135,1135,0.19179053065028373,0.2,1.0,446.0,500.0,1.0,534.0,1,1.0,1.0
1136,1136,-0.689164788369371,-0.7,-1.0,388.0,583.0,0.0,4029.0,0,1.0,0.0
1137,1137,-0.8243811628738544,-0.8,1.0,314.0,673.0,1.0,-367.0,1,-1.0,-1.0
1138,1138,0.3518296378521789,0.4,1.0,377.0,715.0,1.0,258.0,1,1.0,1.0
1139,1139,0.1332125781728063,0.1,-1.0,253.0,662.0,1.0,-155.0,0,-1.0,-1.0
1140,1140,0.18594672771856324,0.2,1.0,415.0,589.0,1.0,876.0,1,1.0,1.0
1141,1141,-0.3373705526752271,-0.3,1.0,289.0,606.0,1.0,235.0,1,-1.0,-1.0
1142,1142,-0.29691225575370006,-0.3,-1.0,435.0,592.0,0.0,3973.0,0,1.0,0.0
1143,1143,-0.6973863766480274,-0.7,-1.0,348.0,606.0,0.0,4046.0,0,1.0,0.0
1144,1144,-0.4865178473320226,-0.5,1.0,438.0,936.0,1.0,276.0,1,-1.0,-1.0
1145,1145,-0.4362797953122529,-0.4,1.0,356.0,529.0,1.0,-85.0,1,-1.0,-1.0
1146,1146,0.5250110143428451,0.5,-1.0,319.0,798.0,0.0,3883.0,0,-1.0,0.0
1147,1147,-0.38987630644474935,-0.4,1.0,459.0,986.0,1.0,305.0,1,-1.0,-1.0
1148,1148,-0.7724395640950094,-0.8,-1.0,430.0,791.0,0.0,3779.0,0,1.0,0.0
1149,1149,-0.568906626464643,-0.6,-1.0,495.0,636.0,0.0,3869.0,0,1.0,0.0
1150,1150,-0.21559770827965063,-0.2,-1.0,304.0,676.0,0.0,4020.0,0,1.0,0.0
1151,1151,-0.1318694957461931,-0.1,1.0,382.0,936.0,1.0,522.0,1,-1.0,-1.0
1152,1152,0.4722121801596658,0.5,-1.0,385.0,711.0,1.0,-576.0,0,-1.0,-1.0
1153,1153,0.2814814809931482,0.3,-1.0,295.0,522.0,0.0,4183.0,0,-1.0,0.0
1154,1154,0.3161824643917551,0.3,1.0,445.0,684.0,1.0,411.0,1,1.0,1.0
1155,1155,0.896317282210508,0.9,1.0,338.0,710.0,1.0,202.0,1,1.0,1.0
1156,1156,-0.8302839752940994,-0.8,-1.0,473.0,815.0,0.0,3712.0,0,1.0,0.0
1157,1157,-0.24399603066920972,-0.2,-1.0,366.0,969.0,0.0,3665.0,0,1.0,0.0
1158,1158,0.2635229224316823,0.3,-1.0,453.0,573.0,0.0,3974.0,0,-1.0,0.0
1159,1159,-0.13506217468191928,-0.1,-1.0,267.0,746.0,0.0,3987.0,0,1.0,0.0
1160,1160,-0.3753094022646083,-0.4,-1.0,344.0,827.0,0.0,3829.0,0,1.0,0.0
1161,1161,0.1307935840622768,0.1,1.0,439.0,692.0,1.0,1389.0,1,1.0,1.0
1162,1162,0.883171331603298,0.9,-1.0,406.0,772.0,1.0,-498.0,0,-1.0,-1.0
1163,1163,-0.20366774797558818,-0.2,1.0,481.0,632.0,1.0,507.0,1,-1.0,-1.0
1164,1164,0.5098532121540228,0.5,-1.0,288.0,620.0,0.0,4092.0,0,-1.0,0.0
1165,1165,-0.38141866358797416,-0.4,-1.0,352.0,654.0,0.0,3994.0,0,1.0,0.0
1166,1166,0.7100691399865492,0.7,-1.0,494.0,781.0,0.0,3725.0,0,-1.0,0.0
1167,1167,-0.5234492569955033,-0.5,1.0,405.0,931.0,1.0,84.0,1,-1.0,-1.0
1168,1168,0.8491196796566792,0.8,-1.0,409.0,691.0,0.0,3900.0,0,-1.0,0.0
1169,1169,0.3970667444821442,0.4,1.0,457.0,555.0,1.0,338.0,1,1.0,1.0
1170,1170,-0.3283655783215016,-0.3,-1.0,355.0,977.0,0.0,3668.0,0,1.0,0.0
1171,1171,0.18817225879226085,0.2,-1.0,465.0,598.0,0.0,3937.0,0,-1.0,0.0
1172,1172,-0.48513253267767653,-0.5,-1.0,460.0,733.0,0.0,3807.0,0,1.0,0.0
1173,1173,0.6165069618411109,0.6,1.0,363.0,720.0,1.0,227.0,1,1.0,1.0
1174,1174,-0.20927868753883483,-0.2,-1.0,470.0,502.0,0.0,4028.0,0,1.0,0.0
1175,1175,0.3786620644885178,0.4,1.0,376.0,823.0,1.0,401.0,1,1.0,1.0
1176,1176,-0.23910534613927437,-0.2,1.0,364.0,745.0,1.0,-169.0,1,-1.0,-1.0
1177,1177,-0.07899673974194765,-0.1,-1.0,401.0,610.0,0.0,3989.0,0,1.0,0.0
1178,1178,-0.13615435911690033,-0.1,1.0,256.0,651.0,1.0,-257.0,1,-1.0,-1.0
1179,1179,-0.10462781750769734,-0.1,1.0,403.0,940.0,1.0,-563.0,1,-1.0,-1.0
1180,1180,-0.18659752517847616,-0.2,1.0,254.0,911.0,1.0,-585.0,1,-1.0,-1.0
1181,1181,-0.8034639523666298,-0.8,-1.0,372.0,507.0,0.0,4121.0,0,1.0,0.0
1182,1182,0.23568577952166636,0.2,1.0,328.0,806.0,1.0,326.0,1,1.0,1.0
1183,1183,-0.7059437339798393,-0.7,1.0,341.0,583.0,1.0,116.0,1,-1.0,-1.0
1184,1184,0.03766675468371872,0.0,-1.0,403.0,731.0,1.0,-544.0,0,-1.0,-1.0
1185,1185,0.4530184526726623,0.5,-1.0,359.0,792.0,1.0,-631.0,0,-1.0,-1.0
1186,1186,-0.3841455849182359,-0.4,1.0,365.0,964.0,1.0,-379.0,1,-1.0,-1.0
1187,1187,0.1407755436923731,0.1,-1.0,425.0,528.0,0.0,4047.0,0,-1.0,0.0
1188,1188,-0.8004836115006926,-0.8,1.0,433.0,641.0,1.0,106.0,1,-1.0,-1.0
1189,1189,0.3235134175215103,0.3,-1.0,399.0,983.0,1.0,-332.0,0,-1.0,-1.0
1190,1190,-0.06218253025426235,-0.1,-1.0,483.0,676.0,0.0,3841.0,0,1.0,0.0
1191,1191,-0.6161549033814502,-0.6,-1.0,464.0,859.0,0.0,3677.0,0,1.0,0.0
1192,1192,0.251985374017221,0.3,1.0,428.0,516.0,1.0,406.0,1,1.0,1.0
1193,1193,-0.3633053257575851,-0.4,1.0,304.0,784.0,1.0,282.0,1,-1.0,-1.0
1194,1194,-0.5229897682509302,-0.5,1.0,483.0,926.0,1.0,-419.0,1,-1.0,-1.0
1195,1195,0.3668654451411161,0.4,-1.0,316.0,563.0,0.0,4121.0,0,-1.0,0.0
1196,1196,0.8571765307226552,0.9,1.0,283.0,733.0,1.0,114.0,1,1.0,1.0
1197,1197,0.5819935222602467,0.6,-1.0,353.0,688.0,1.0,-511.0,0,-1.0,-1.0
1198,1198,0.09061572034382626,0.1,-1.0,338.0,501.0,0.0,4161.0,0,-1.0,0.0
1199,1199,-0.6024153202598855,-0.6,1.0,498.0,655.0,1.0,137.0,1,-1.0,-1.0
1200,1200,-0.4095283040007964,-0.4,-1.0,401.0,806.0,0.0,3793.0,0,1.0,0.0
1201,1201,0.6795818653905786,0.7,1.0,485.0,999.0,1.0,136.0,1,1.0,1.0
1202,1202,-0.2534610482532398,-0.3,-1.0,387.0,917.0,0.0,3696.0,0,1.0,0.0
1203,1203,0.3967559735811329,0.4,1.0,427.0,920.0,1.0,273.0,1,1.0,1.0
1204,1204,0.23990529687725404,0.2,-1.0,435.0,677.0,0.0,3888.0,0,-1.0,0.0
1205,1205,0.29855601293093714,0.3,1.0,336.0,931.0,1.0,513.0,1,1.0,1.0
1206,1206,-0.05237881888688034,-0.1,1.0,380.0,719.0,1.0,1401.0,1,-1.0,-1.0
1207,1207,0.0008616041963873666,0.0,-1.0,299.0,617.0,1.0,2854.0,0,-1.0,-1.0
1208,1208,-0.4455071987323625,-0.4,1.0,350.0,738.0,1.0,212.0,1,-1.0,-1.0
1209,1209,-0.696406274544119,-0.7,1.0,340.0,709.0,1.0,161.0,1,-1.0,-1.0
1210,1210,0.5519546504496252,0.6,-1.0,315.0,972.0,1.0,-817.0,0,-1.0,-1.0
1211,1211,0.5217098069518168,0.5,-1.0,439.0,523.0,0.0,4038.0,0,-1.0,0.0
1212,1212,0.3865891031804788,0.4,-1.0,445.0,711.0,0.0,3844.0,0,-1.0,0.0
1213,1213,0.04012796299904342,0.0,1.0,297.0,753.0,0.0,3950.0,0,1.0,0.0
1214,1214,0.3059138820151911,0.3,-1.0,322.0,697.0,0.0,3981.0,0,-1.0,0.0
1215,1215,-0.8330470329882925,-0.8,1.0,439.0,932.0,1.0,139.0,1,-1.0,-1.0
1216,1216,-0.32246495031192357,-0.3,-1.0,346.0,824.0,0.0,3830.0,0,1.0,0.0
1217,1217,0.7986578505185028,0.8,-1.0,430.0,505.0,0.0,4065.0,0,-1.0,0.0
1218,1218,0.7139627758418193,0.7,1.0,337.0,996.0,1.0,167.0,1,1.0,1.0
1219,1219,0.8857246771845811,0.9,-1.0,357.0,608.0,1.0,95.0,0,-1.0,-1.0
1220,1220,-0.02571499897157503,-0.0,-1.0,479.0,801.0,0.0,3720.0,0,1.0,0.0
1221,1221,-0.38871403390122805,-0.4,-1.0,338.0,685.0,0.0,3977.0,0,1.0,0.0
1222,1222,-0.06219285750206971,-0.1,1.0,409.0,798.0,1.0,-617.0,1,-1.0,-1.0
1223,1223,-0.09007259668109846,-0.1,1.0,329.0,580.0,1.0,-239.0,1,-1.0,-1.0
1224,1224,0.6288156043216816,0.6,1.0,436.0,983.0,1.0,171.0,1,1.0,1.0
1225,1225,0.8276752932616059,0.8,1.0,337.0,553.0,1.0,70.0,1,1.0,1.0
1226,1226,0.6456270860092962,0.6,-1.0,479.0,585.0,0.0,3936.0,0,-1.0,0.0
1227,1227,0.18550097338912563,0.2,-1.0,425.0,874.0,0.0,3701.0,0,-1.0,0.0
1228,1228,0.1187890457887969,0.1,-1.0,267.0,831.0,0.0,3902.0,0,-1.0,0.0
1229,1229,-0.7016069502533508,-0.7,1.0,347.0,735.0,1.0,248.0,1,-1.0,-1.0
1230,1230,-0.30799890780227135,-0.3,1.0,434.0,717.0,1.0,419.0,1,-1.0,-1.0
1231,1231,-0.7504133454870059,-0.8,1.0,251.0,847.0,1.0,-398.0,1,-1.0,-1.0
1232,1232,0.11234907026403051,0.1,1.0,363.0,561.0,0.0,4076.0,0,1.0,0.0
1233,1233,0.7645620103312044,0.8,1.0,486.0,949.0,1.0,145.0,1,1.0,1.0
1234,1234,0.18403252730308728,0.2,1.0,321.0,828.0,1.0,731.0,1,1.0,1.0
1235,1235,-0.7622977489732777,-0.8,1.0,499.0,964.0,1.0,127.0,1,-1.0,-1.0
1236,1236,0.7211673566271214,0.7,-1.0,452.0,586.0,0.0,3962.0,0,-1.0,0.0
1237,1237,0.4219002192401241,0.4,-1.0,296.0,866.0,0.0,3838.0,0,-1.0,0.0
1238,1238,0.8444749795516523,0.8,1.0,369.0,755.0,1.0,146.0,1,1.0,1.0
1239,1239,-0.48711816428151616,-0.5,-1.0,411.0,793.0,0.0,3796.0,0,1.0,0.0
1240,1240,-0.8105920251726796,-0.8,1.0,265.0,571.0,1.0,134.0,1,-1.0,-1.0
1241,1241,0.0659899291699404,0.1,-1.0,404.0,856.0,1.0,2980.0,0,-1.0,-1.0
1242,1242,0.7079582499466398,0.7,-1.0,392.0,922.0,1.0,-184.0,0,-1.0,-1.0
1243,1243,-0.2980648385802237,-0.3,1.0,294.0,603.0,1.0,63.0,1,-1.0,-1.0
1244,1244,0.6501296791624601,0.7,-1.0,264.0,681.0,0.0,4055.0,0,-1.0,0.0
1245,1245,0.17225245210684703,0.2,-1.0,284.0,899.0,1.0,-723.0,0,-1.0,-1.0
1246,1246,0.37435262274596603,0.4,-1.0,392.0,913.0,1.0,-705.0,0,-1.0,-1.0
1247,1247,0.24487842039806107,0.2,-1.0,286.0,869.0,0.0,3845.0,0,-1.0,0.0
1248,1248,-0.33699147098282023,-0.3,1.0,431.0,605.0,1.0,-516.0,1,-1.0,-1.0
1249,1249,-0.8028831628716009,-0.8,-1.0,265.0,896.0,0.0,3839.0,0,1.0,0.0
1250,1250,0.22593814880734409,0.2,1.0,307.0,938.0,1.0,1075.0,1,1.0,1.0
1251,1251,-0.5830751611360727,-0.6,-1.0,456.0,703.0,0.0,3841.0,0,1.0,0.0
1252,1252,0.6641826562274197,0.7,-1.0,303.0,684.0,1.0,-517.0,0,-1.0,-1.0
1253,1253,0.1973574262505996,0.2,1.0,281.0,793.0,1.0,1186.0,1,1.0,1.0
1254,1254,-0.38323089265964083,-0.4,1.0,340.0,894.0,1.0,-384.0,1,-1.0,-1.0
1255,1255,0.3454871850118214,0.3,-1.0,418.0,938.0,1.0,34.0,0,-1.0,-1.0
1256,1256,0.48021912896153796,0.5,-1.0,355.0,563.0,0.0,4082.0,0,-1.0,0.0
1257,1257,-0.8854067638101778,-0.9,1.0,478.0,636.0,1.0,-264.0,1,-1.0,-1.0
1258,1258,-0.32381444654310554,-0.3,1.0,498.0,523.0,1.0,999.0,1,-1.0,-1.0
1259,1259,-0.8335235362516499,-0.8,-1.0,472.0,875.0,0.0,3653.0,0,1.0,0.0
1260,1260,0.8561653509781669,0.9,1.0,494.0,540.0,1.0,76.0,1,1.0,1.0
1261,1261,0.09894749821039106,0.1,1.0,440.0,861.0,0.0,3699.0,0,1.0,0.0
1262,1262,-0.14649067564547646,-0.1,1.0,484.0,501.0,1.0,335.0,1,-1.0,-1.0
1263,1263,-0.03644451371373714,-0.0,-1.0,282.0,874.0,0.0,3844.0,0,1.0,0.0
1264,1264,0.021490216496318326,0.0,-1.0,285.0,986.0,0.0,3729.0,0,-1.0,0.0
1265,1265,-0.5926129661953985,-0.6,1.0,416.0,915.0,1.0,109.0,1,-1.0,-1.0
1266,1266,0.3175767327663327,0.3,1.0,360.0,887.0,1.0,783.0,1,1.0,1.0
1267,1267,-0.07094470892310778,-0.1,-1.0,335.0,878.0,0.0,3787.0,0,1.0,0.0
1268,1268,-0.3192366795270989,-0.3,-1.0,408.0,540.0,0.0,4052.0,0,1.0,0.0
1269,1269,-0.2202140379824502,-0.2,-1.0,406.0,518.0,0.0,4076.0,0,1.0,0.0
1270,1270,-0.09224827322276963,-0.1,1.0,479.0,579.0,1.0,962.0,1,-1.0,-1.0
1271,1271,0.052169723580910876,0.1,1.0,481.0,702.0,0.0,3817.0,0,1.0,0.0
1272,1272,-0.6438370170897175,-0.6,1.0,330.0,854.0,1.0,-664.0,1,-1.0,-1.0
1273,1273,0.6060882810440519,0.6,-1.0,422.0,778.0,1.0,-160.0,0,-1.0,-1.0
1274,1274,0.8898468736254649,0.9,-1.0,475.0,887.0,1.0,-722.0,0,-1.0,-1.0
1275,1275,0.8796203417353342,0.9,-1.0,457.0,555.0,0.0,3988.0,0,-1.0,0.0
1276,1276,0.7043740932431098,0.7,1.0,341.0,733.0,1.0,186.0,1,1.0,1.0
1277,1277,-0.7290353645808734,-0.7,1.0,452.0,728.0,1.0,170.0,1,-1.0,-1.0
1278,1278,0.32467047922874037,0.3,1.0,264.0,606.0,1.0,180.0,1,1.0,1.0
1279,1279,0.1507333091905051,0.2,-1.0,474.0,861.0,1.0,-745.0,0,-1.0,-1.0
1280,1280,-0.12537904759991003,-0.1,1.0,439.0,587.0,1.0,144.0,1,-1.0,-1.0
1281,1281,0.01533135565867505,0.0,-1.0,367.0,958.0,1.0,-455.0,0,-1.0,-1.0
1282,1282,-0.8393350988283056,-0.8,-1.0,419.0,931.0,0.0,3650.0,0,1.0,0.0
1283,1283,0.7182573709303294,0.7,1.0,347.0,876.0,1.0,137.0,1,1.0,1.0
1284,1284,0.8618840354423313,0.9,1.0,322.0,706.0,1.0,62.0,1,1.0,1.0
1285,1285,0.6078300754781031,0.6,1.0,311.0,854.0,1.0,215.0,1,1.0,1.0
1286,1286,0.3238436311307674,0.3,-1.0,373.0,858.0,0.0,3769.0,0,-1.0,0.0
1287,1287,-0.48806975164223404,-0.5,-1.0,484.0,806.0,0.0,3710.0,0,1.0,0.0
1288,1288,-0.16194387224081197,-0.2,-1.0,435.0,542.0,0.0,4023.0,0,1.0,0.0
1289,1289,0.3553620256818045,0.4,1.0,281.0,675.0,1.0,204.0,1,1.0,1.0
1290,1290,-0.08443609738412494,-0.1,1.0,496.0,513.0,1.0,1331.0,1,-1.0,-1.0
1291,1291,-0.4011918347929368,-0.4,1.0,379.0,998.0,1.0,-917.0,1,-1.0,-1.0
1292,1292,0.19024102361369988,0.2,1.0,487.0,684.0,1.0,659.0,1,1.0,1.0
1293,1293,0.7195577053078966,0.7,1.0,404.0,887.0,1.0,189.0,1,1.0,1.0
1294,1294,0.45726377838613763,0.5,-1.0,408.0,614.0,0.0,3978.0,0,-1.0,0.0
1295,1295,0.717251619544074,0.7,1.0,422.0,727.0,1.0,171.0,1,1.0,1.0
1296,1296,-0.13942665648367492,-0.1,1.0,341.0,941.0,1.0,118.0,1,-1.0,-1.0
1297,1297,0.8200070851298992,0.8,-1.0,434.0,857.0,1.0,-591.0,0,-1.0,-1.0
1298,1298,-0.5487383607191327,-0.5,1.0,471.0,895.0,1.0,124.0,1,-1.0,-1.0
1299,1299,0.40538363003683286,0.4,-1.0,422.0,606.0,0.0,3972.0,0,-1.0,0.0
1300,1300,0.22807374641291134,0.2,-1.0,367.0,843.0,0.0,3790.0,0,-1.0,0.0
1301,1301,-0.4555801936569483,-0.5,1.0,422.0,671.0,1.0,167.0,1,-1.0,-1.0
1302,1302,-0.5071840943151434,-0.5,1.0,275.0,877.0,1.0,78.0,1,-1.0,-1.0
1303,1303,0.881040447779542,0.9,-1.0,436.0,922.0,1.0,-618.0,0,-1.0,-1.0
1304,1304,0.4123496496772695,0.4,-1.0,345.0,603.0,0.0,4052.0,0,-1.0,0.0
1305,1305,-0.39590391359595056,-0.4,-1.0,367.0,565.0,0.0,4068.0,0,1.0,0.0
1306,1306,-0.8526251438798089,-0.9,-1.0,301.0,501.0,0.0,4198.0,0,1.0,0.0
1307,1307,0.8715629582101202,0.9,1.0,493.0,852.0,1.0,125.0,1,1.0,1.0
1308,1308,0.4040928652764918,0.4,-1.0,358.0,709.0,0.0,3933.0,0,-1.0,0.0
1309,1309,0.010796790649844734,0.0,1.0,454.0,986.0,0.0,3560.0,0,1.0,0.0
1310,1310,0.51691190704534,0.5,-1.0,457.0,871.0,0.0,3672.0,0,-1.0,0.0
1311,1311,-0.04379588674244039,-0.0,1.0,425.0,960.0,1.0,-315.0,1,-1.0,-1.0
1312,1312,-0.06333648917437285,-0.1,-1.0,419.0,652.0,0.0,3929.0,0,1.0,0.0
1313,1313,0.3977009897090419,0.4,-1.0,497.0,789.0,0.0,3714.0,0,-1.0,0.0
1314,1314,-0.8034705132601953,-0.8,-1.0,262.0,651.0,0.0,4087.0,0,1.0,0.0
1315,1315,0.4873564765264434,0.5,-1.0,259.0,591.0,1.0,-240.0,0,-1.0,-1.0
1316,1316,-0.20251354319740844,-0.2,1.0,290.0,901.0,1.0,1289.0,1,-1.0,-1.0
1317,1317,-0.19667301528518,-0.2,-1.0,289.0,555.0,0.0,4156.0,0,1.0,0.0
1318,1318,-0.25140204514007414,-0.3,-1.0,437.0,870.0,0.0,3693.0,0,1.0,0.0
1319,1319,-0.4185945773896346,-0.4,-1.0,290.0,857.0,0.0,3853.0,0,1.0,0.0
1320,1320,0.5106426769531197,0.5,1.0,269.0,732.0,1.0,389.0,1,1.0,1.0
1321,1321,-0.7644323478264367,-0.8,1.0,408.0,820.0,1.0,52.0,1,-1.0,-1.0
1322,1322,-0.4282061281342905,-0.4,1.0,436.0,923.0,1.0,251.0,1,-1.0,-1.0
1323,1323,0.5406429345219809,0.5,1.0,256.0,523.0,1.0,311.0,1,1.0,1.0
1324,1324,-0.2673517366428698,-0.3,1.0,461.0,790.0,1.0,-181.0,1,-1.0,-1.0
1325,1325,-0.8186527664858686,-0.8,-1.0,318.0,737.0,0.0,3945.0,0,1.0,0.0
1326,1326,-0.13903193107453504,-0.1,-1.0,322.0,880.0,0.0,3798.0,0,1.0,0.0
1327,1327,-0.0766102968651785,-0.1,1.0,432.0,988.0,1.0,790.0,1,-1.0,-1.0
1328,1328,0.5525539628181878,0.6,-1.0,359.0,835.0,1.0,-534.0,0,-1.0,-1.0
1329,1329,0.7083925337149942,0.7,1.0,476.0,825.0,1.0,79.0,1,1.0,1.0
1330,1330,0.8368449621006405,0.8,-1.0,447.0,969.0,0.0,3584.0,0,-1.0,0.0
1331,1331,-0.7517472770347562,-0.8,1.0,307.0,758.0,1.0,-615.0,1,-1.0,-1.0
1332,1332,0.10793827162398328,0.1,-1.0,458.0,864.0,0.0,3678.0,0,-1.0,0.0
1333,1333,-0.15584819168169395,-0.2,-1.0,434.0,626.0,0.0,3940.0,0,1.0,0.0
1334,1334,-0.7309840851600009,-0.7,1.0,367.0,716.0,1.0,147.0,1,-1.0,-1.0
1335,1335,-0.8264493031061917,-0.8,1.0,279.0,574.0,1.0,157.0,1,-1.0,-1.0
1336,1336,-0.5799236155794354,-0.6,-1.0,467.0,688.0,0.0,3845.0,0,1.0,0.0
1337,1337,-0.16213134190565515,-0.2,1.0,349.0,717.0,1.0,-466.0,1,-1.0,-1.0
1338,1338,0.49153754760003243,0.5,-1.0,473.0,879.0,1.0,18.0,0,-1.0,-1.0
1339,1339,0.2400512075442428,0.2,1.0,410.0,668.0,1.0,1022.0,1,1.0,1.0
1340,1340,0.7149076848646424,0.7,-1.0,421.0,949.0,1.0,-470.0,0,-1.0,-1.0
1341,1341,-0.7907406221781511,-0.8,1.0,266.0,893.0,1.0,71.0,1,-1.0,-1.0
1342,1342,0.8750991338085637,0.9,1.0,397.0,801.0,1.0,-1078.0,1,1.0,1.0
1343,1343,0.06628662799384055,0.1,-1.0,483.0,947.0,0.0,3570.0,0,-1.0,0.0
1344,1344,-0.4786525902065511,-0.5,1.0,484.0,729.0,1.0,337.0,1,-1.0,-1.0
1345,1345,0.862597114682116,0.9,1.0,368.0,731.0,1.0,181.0,1,1.0,1.0
1346,1346,0.21810981433313026,0.2,-1.0,319.0,915.0,0.0,3766.0,0,-1.0,0.0
1347,1347,-0.8373501250212072,-0.8,-1.0,310.0,539.0,0.0,4151.0,0,1.0,0.0
1348,1348,-0.17274052200591528,-0.2,1.0,309.0,659.0,1.0,172.0,1,-1.0,-1.0
1349,1349,0.8457754671724081,0.8,-1.0,480.0,898.0,1.0,-438.0,0,-1.0,-1.0
1350,1350,-0.23599908973352934,-0.2,-1.0,466.0,507.0,0.0,4027.0,0,1.0,0.0
1351,1351,0.7310072585857356,0.7,-1.0,253.0,935.0,1.0,22.0,0,-1.0,-1.0
1352,1352,0.1171017508946518,0.1,1.0,253.0,816.0,1.0,2791.0,1,1.0,1.0
1353,1353,-0.3632770689780841,-0.4,-1.0,399.0,559.0,0.0,4042.0,0,1.0,0.0
1354,1354,0.8016799197157475,0.8,1.0,269.0,924.0,1.0,147.0,1,1.0,1.0
1355,1355,-0.527407163290845,-0.5,-1.0,268.0,809.0,0.0,3923.0,0,1.0,0.0
1356,1356,-0.13194519043456243,-0.1,1.0,315.0,922.0,1.0,1143.0,1,-1.0,-1.0
1357,1357,0.8600354715808641,0.9,1.0,257.0,648.0,1.0,95.0,1,1.0,1.0
1358,1358,-0.47350807511894,-0.5,-1.0,383.0,958.0,0.0,3659.0,0,1.0,0.0
1359,1359,0.5210223311746248,0.5,-1.0,255.0,765.0,0.0,3980.0,0,-1.0,0.0
1360,1360,-0.31264167757636063,-0.3,1.0,354.0,607.0,1.0,449.0,1,-1.0,-1.0
1361,1361,0.3038569352509418,0.3,1.0,304.0,535.0,1.0,161.0,1,1.0,1.0
1362,1362,-0.2616753334328792,-0.3,1.0,435.0,990.0,1.0,-465.0,1,-1.0,-1.0
1363,1363,0.3807169887110039,0.4,1.0,270.0,722.0,1.0,528.0,1,1.0,1.0
1364,1364,-0.0708296587099374,-0.1,-1.0,316.0,805.0,0.0,3879.0,0,1.0,0.0
1365,1365,-0.34289638841768555,-0.3,1.0,254.0,537.0,1.0,89.0,1,-1.0,-1.0
1366,1366,0.4689658005506524,0.5,-1.0,396.0,520.0,0.0,4084.0,0,-1.0,0.0
1367,1367,-0.15308898908349922,-0.2,-1.0,336.0,714.0,0.0,3950.0,0,1.0,0.0
1368,1368,-0.5016543824706214,-0.5,1.0,419.0,853.0,1.0,-132.0,1,-1.0,-1.0
1369,1369,-0.019214887763175703,-0.0,1.0,315.0,567.0,1.0,-12.0,1,-1.0,-1.0
1370,1370,0.640121764061958,0.6,1.0,402.0,729.0,1.0,89.0,1,1.0,1.0
1371,1371,0.34627793475140944,0.3,-1.0,296.0,929.0,0.0,3775.0,0,-1.0,0.0
1372,1372,0.05288094255521658,0.1,1.0,292.0,613.0,1.0,2705.0,1,1.0,1.0
1373,1373,0.16164007500999855,0.2,-1.0,436.0,793.0,0.0,3771.0,0,-1.0,0.0
1374,1374,-0.24522625363966888,-0.2,-1.0,360.0,556.0,0.0,4084.0,0,1.0,0.0
1375,1375,-0.6076632813225722,-0.6,1.0,326.0,815.0,1.0,99.0,1,-1.0,-1.0
1376,1376,-0.3048239284436851,-0.3,1.0,302.0,654.0,1.0,474.0,1,-1.0,-1.0
1377,1377,0.8981816029624178,0.9,-1.0,333.0,512.0,0.0,4155.0,0,-1.0,0.0
1378,1378,0.8808404426931374,0.9,1.0,299.0,852.0,1.0,229.0,1,1.0,1.0
1379,1379,-0.6721982349525085,-0.7,-1.0,270.0,698.0,0.0,4032.0,0,1.0,0.0
1380,1380,-0.5482281304480388,-0.5,-1.0,287.0,780.0,0.0,3933.0,0,1.0,0.0
1381,1381,0.41176883949492427,0.4,1.0,272.0,527.0,1.0,281.0,1,1.0,1.0
1382,1382,-0.005934014002250687,-0.0,-1.0,294.0,822.0,0.0,3884.0,0,1.0,0.0
1383,1383,0.7859830438643768,0.8,1.0,435.0,899.0,1.0,216.0,1,1.0,1.0
1384,1384,-0.2366864670959563,-0.2,1.0,459.0,539.0,1.0,422.0,1,-1.0,-1.0
1385,1385,0.6021285761146472,0.6,-1.0,327.0,913.0,1.0,-360.0,0,-1.0,-1.0
1386,1386,0.3261148428751611,0.3,1.0,314.0,529.0,1.0,267.0,1,1.0,1.0
1387,1387,0.5019279251240506,0.5,-1.0,287.0,894.0,1.0,-311.0,0,-1.0,-1.0
1388,1388,0.5483834111014408,0.5,1.0,433.0,539.0,1.0,158.0,1,1.0,1.0
1389,1389,0.6036137014916289,0.6,1.0,407.0,693.0,1.0,130.0,1,1.0,1.0
1390,1390,0.12619131150430463,0.1,1.0,345.0,661.0,0.0,3994.0,0,1.0,0.0
1391,1391,0.557822574026417,0.6,1.0,299.0,519.0,1.0,192.0,1,1.0,1.0
1392,1392,-0.05216063329226761,-0.1,1.0,468.0,870.0,1.0,222.0,1,-1.0,-1.0
1393,1393,0.6891580524470285,0.7,-1.0,398.0,815.0,1.0,-553.0,0,-1.0,-1.0
1394,1394,0.31836528643677886,0.3,-1.0,476.0,575.0,0.0,3949.0,0,-1.0,0.0
1395,1395,-0.8281047105426511,-0.8,-1.0,327.0,989.0,0.0,3684.0,0,1.0,0.0
1396,1396,0.7746681247707877,0.8,-1.0,365.0,574.0,1.0,31.0,0,-1.0,-1.0
1397,1397,-0.10553815501848018,-0.1,1.0,334.0,606.0,1.0,1670.0,1,-1.0,-1.0
1398,1398,0.1554501216533294,0.2,1.0,273.0,979.0,1.0,398.0,1,1.0,1.0
1399,1399,-0.40561632499360806,-0.4,-1.0,443.0,695.0,0.0,3862.0,0,1.0,0.0
1400,1400,-0.38061939302494185,-0.4,-1.0,276.0,622.0,0.0,4102.0,0,1.0,0.0
1401,1401,-0.029916670589543393,-0.0,1.0,274.0,705.0,1.0,471.0,1,-1.0,-1.0
1402,1402,-0.22611721411729002,-0.2,1.0,283.0,512.0,1.0,345.0,1,-1.0,-1.0
1403,1403,0.22717452980379294,0.2,1.0,379.0,765.0,1.0,846.0,1,1.0,1.0
1404,1404,-0.5820234424968498,-0.6,-1.0,375.0,845.0,0.0,3780.0,0,1.0,0.0
1405,1405,0.8192690690608911,0.8,1.0,493.0,601.0,1.0,96.0,1,1.0,1.0
1406,1406,0.20025798661260008,0.2,-1.0,447.0,514.0,0.0,4039.0,0,-1.0,0.0
1407,1407,0.871182394656815,0.9,1.0,256.0,779.0,1.0,55.0,1,1.0,1.0
1408,1408,0.41093128060570605,0.4,-1.0,304.0,745.0,0.0,3951.0,0,-1.0,0.0
1409,1409,-0.8618428291480794,-0.9,1.0,426.0,745.0,1.0,-51.0,1,-1.0,-1.0
1410,1410,-0.0776206490152177,-0.1,1.0,385.0,624.0,1.0,1471.0,1,-1.0,-1.0
1411,1411,-0.8367487236472019,-0.8,-1.0,317.0,691.0,0.0,3992.0,0,1.0,0.0
