,trial,coherence,coherence_bin,correct_side,target_onset,checker_onset,decision,decision_time,correct_decision,g0,gSlope
0,0,0.2675584452345563,0.3,0,429.0,548.0,0.0,313.0,1,0.4496496296325533,0.0
1,1,0.8703631702376118,0.9,0,455.0,599.0,0.0,206.0,1,0.5669756758214488,0.0
2,2,-0.3904476847353999,-0.4,1,337.0,761.0,1.0,302.0,1,0.49934497466112526,0.0
3,3,-0.9557261517288527,-1.0,1,372.0,692.0,1.0,256.0,1,0.13996512366627079,0.0
4,4,-0.028030957947704493,-0.0,1,378.0,911.0,0.0,621.0,0,0.3958442042076782,0.0
5,5,0.46450926397489023,0.5,0,392.0,919.0,0.0,319.0,1,0.8436024395952813,0.0
6,6,0.16151415317069162,0.2,0,373.0,556.0,0.0,361.0,1,0.6114315683992517,0.0
7,7,-0.3181734437711623,-0.3,1,302.0,694.0,1.0,944.0,1,0.725037138446729,0.0
8,8,0.6100166031203753,0.6,0,455.0,702.0,0.0,373.0,1,0.2181340203487151,0.0
9,9,0.08774958320191639,0.1,0,390.0,730.0,0.0,410.0,1,0.6459291314142855,0.0
10,10,0.09836373610496207,0.1,0,335.0,705.0,0.0,1430.0,1,0.18533777667782825,0.0
11,11,0.7924817359855276,0.8,0,377.0,992.0,0.0,141.0,1,0.5070108938226752,0.0
12,12,0.1652358215269425,0.2,0,387.0,808.0,1.0,955.0,0,0.5016565207878217,0.0
13,13,0.7037425525860523,0.7,0,435.0,578.0,0.0,387.0,1,0.19324292240369967,0.0
14,14,0.5966852983192239,0.6,0,387.0,789.0,0.0,514.0,1,0.04617363463512125,0.0
15,15,0.06712314500541927,0.1,0,408.0,916.0,1.0,286.0,0,0.9992014332131277,0.0
16,16,0.5327205817967093,0.5,0,309.0,953.0,0.0,408.0,1,0.2780503042293958,0.0
17,17,0.4694062924961653,0.5,0,379.0,865.0,0.0,296.0,1,0.7436949305982563,0.0
18,18,0.15273511865538025,0.2,0,255.0,561.0,0.0,784.0,1,0.9687828679432069,0.0
19,19,-0.5787566972504594,-0.6,1,358.0,567.0,1.0,195.0,1,0.6447510838214008,0.0
20,20,0.08372205059771232,0.1,0,499.0,889.0,0.0,242.0,1,0.8369776777132083,0.0
21,21,0.5903615280292496,0.6,0,473.0,947.0,0.0,290.0,1,0.4008420927087055,0.0
22,22,0.13368658170129155,0.1,0,390.0,928.0,0.0,342.0,1,0.4604707007049935,0.0
23,23,0.15169258450679335,0.2,0,338.0,706.0,0.0,426.0,1,0.5475968554698422,0.0
24,24,-0.6643781154396908,-0.7,1,358.0,743.0,1.0,319.0,1,0.8826837333014462,0.0
25,25,-0.11528997635015159,-0.1,1,296.0,571.0,0.0,613.0,0,0.3714618973786479,0.0
26,26,-0.7854103179956866,-0.8,1,363.0,707.0,1.0,200.0,1,0.4683290150338315,0.0
27,27,-0.7656113079863869,-0.8,1,312.0,962.0,1.0,446.0,1,0.8184485981197459,0.0
28,28,0.46764336910407334,0.5,0,302.0,653.0,0.0,255.0,1,0.4766975719768132,0.0
29,29,0.9698217475082951,1.0,0,334.0,917.0,0.0,279.0,1,0.583935539153031,0.0
30,30,-0.3444274498806452,-0.3,1,282.0,948.0,1.0,380.0,1,0.5697676718050064,0.0
31,31,-0.6091053681922842,-0.6,1,360.0,819.0,1.0,361.0,1,0.13198503394497896,0.0
32,32,0.8145125230794119,0.8,0,275.0,860.0,0.0,195.0,1,0.3674385517099549,0.0
33,33,-0.012218182750671769,-0.0,1,408.0,561.0,1.0,371.0,1,0.2768852927724579,0.0
34,34,-0.9381400338235211,-0.9,1,277.0,957.0,1.0,226.0,1,0.5058440004283261,0.0
35,35,-0.9247256099303154,-0.9,1,265.0,621.0,1.0,254.0,1,0.26147479194423273,0.0
36,36,-0.7085115256016556,-0.7,1,390.0,755.0,1.0,265.0,1,0.5344491583433267,0.0
37,37,-0.7017934632706533,-0.7,1,257.0,562.0,1.0,161.0,1,0.7965330550909597,0.0
38,38,0.41001384269854046,0.4,0,469.0,973.0,0.0,208.0,1,0.7104696871012409,0.0
39,39,0.23858179945183355,0.2,0,437.0,685.0,0.0,488.0,1,0.3042567050381193,0.0
40,40,-0.428685987107863,-0.4,1,327.0,571.0,1.0,342.0,1,0.41064551690335216,0.0
41,41,-0.456208973740283,-0.5,1,322.0,995.0,1.0,363.0,1,0.7186521084314261,0.0
42,42,-0.2470972120266708,-0.2,1,490.0,773.0,0.0,437.0,0,0.4447035616359335,0.0
43,43,0.6866731247326596,0.7,0,472.0,906.0,0.0,172.0,1,0.988614517339105,0.0
44,44,0.12767012666181832,0.1,0,491.0,542.0,0.0,1227.0,1,0.1624240669825735,0.0
45,45,0.8817291018150872,0.9,0,308.0,656.0,0.0,246.0,1,0.03813630480429897,0.0
46,46,0.9876418396277495,1.0,0,386.0,572.0,0.0,172.0,1,0.4032004983481011,0.0
47,47,-0.16131746644544687,-0.2,1,299.0,573.0,1.0,648.0,1,0.5621770607877253,0.0
48,48,0.7135922210383439,0.7,0,380.0,571.0,0.0,199.0,1,0.7972786175088034,0.0
49,49,0.03638019055931596,0.0,0,286.0,851.0,0.0,703.0,1,0.7079139901397307,0.0
50,50,-0.07228332289905559,-0.1,1,400.0,573.0,0.0,767.0,0,0.07040856734387813,0.0
51,51,-0.48633119936916036,-0.5,1,426.0,726.0,1.0,448.0,1,0.5621541234108829,0.0
52,52,0.597458441575532,0.6,0,325.0,711.0,0.0,254.0,1,0.5115248698122371,0.0
53,53,-0.2161248836089631,-0.2,1,325.0,784.0,1.0,321.0,1,0.9007336115494179,0.0
54,54,-0.050483327125567135,-0.1,1,498.0,767.0,0.0,1245.0,0,0.9542549616227142,0.0
55,55,-0.4379309037164434,-0.4,1,316.0,722.0,1.0,472.0,1,0.5169886254257946,0.0
56,56,-0.026103217167599002,-0.0,1,310.0,821.0,0.0,1129.0,0,0.43446198533935587,0.0
57,57,0.9472698921295402,0.9,0,257.0,504.0,0.0,239.0,1,0.24610925912872272,0.0
58,58,0.24774539453925115,0.2,0,393.0,979.0,0.0,328.0,1,0.7987859379378819,0.0
59,59,-0.4217693406871179,-0.4,1,454.0,970.0,1.0,446.0,1,0.2556945921418602,0.0
60,60,-0.2724675120421616,-0.3,1,298.0,881.0,1.0,391.0,1,0.3445232094241689,0.0
61,61,-0.5492407954580982,-0.5,1,298.0,820.0,1.0,312.0,1,0.9632450125291385,0.0
62,62,-0.4988125739693292,-0.5,1,400.0,652.0,1.0,338.0,1,0.47277926954642135,0.0
63,63,0.7240351564242444,0.7,0,368.0,613.0,0.0,249.0,1,0.19467086607667838,0.0
64,64,-0.9239927169227291,-0.9,1,333.0,653.0,1.0,324.0,1,0.614170748013504,0.0
65,65,0.7641429672827722,0.8,0,342.0,616.0,0.0,172.0,1,0.8033671772245462,0.0
66,66,-0.25483047446975515,-0.3,1,387.0,912.0,1.0,1461.0,1,0.15714945096369048,0.0
67,67,-0.15026617871739623,-0.2,1,431.0,697.0,1.0,702.0,1,0.8002737554511343,0.0
68,68,-0.10447687081411794,-0.1,1,467.0,677.0,0.0,466.0,0,0.44121460182400885,0.0
69,69,0.14936040789713623,0.1,0,269.0,529.0,0.0,242.0,1,0.8953537496329088,0.0
70,70,-0.6077541595957261,-0.6,1,477.0,797.0,1.0,366.0,1,0.19417299217800255,0.0
71,71,0.1245549726564199,0.1,0,338.0,671.0,0.0,1201.0,1,0.032703142571379296,0.0
72,72,-0.5283882725132489,-0.5,1,413.0,862.0,1.0,315.0,1,0.4602289758008278,0.0
73,73,-0.6213432088888384,-0.6,1,346.0,840.0,1.0,444.0,1,0.14759053619307105,0.0
74,74,-0.22645743183988642,-0.2,1,288.0,679.0,1.0,703.0,1,0.31775617543475254,0.0
75,75,-0.2503993411176386,-0.3,1,487.0,787.0,1.0,536.0,1,0.5067797312301778,0.0
76,76,0.14205436162784135,0.1,0,435.0,864.0,0.0,401.0,1,0.06269059750938344,0.0
77,77,-0.19068379173016026,-0.2,1,337.0,723.0,1.0,1300.0,1,0.3084204069596349,0.0
78,78,-0.5321746654507533,-0.5,1,379.0,898.0,1.0,243.0,1,0.9740384793185458,0.0
79,79,0.03020580331666478,0.0,0,468.0,981.0,0.0,1001.0,1,0.2740898484957237,0.0
80,80,0.020211593984588383,0.0,0,475.0,811.0,0.0,654.0,1,0.5770011749259373,0.0
81,81,-0.383085723432832,-0.4,1,333.0,920.0,1.0,767.0,1,0.25158028307756175,0.0
82,82,-0.21309351451744107,-0.2,1,386.0,619.0,0.0,735.0,0,0.39044027307342255,0.0
83,83,-0.9331068205243596,-0.9,1,280.0,719.0,1.0,231.0,1,0.10705961771524786,0.0
84,84,-0.34606220712532987,-0.3,1,457.0,515.0,1.0,388.0,1,0.8172597859472744,0.0
85,85,-0.3099346288152802,-0.3,1,333.0,973.0,1.0,544.0,1,0.1506717190475375,0.0
86,86,0.19622534800054336,0.2,0,414.0,887.0,0.0,539.0,1,0.38876681306587857,0.0
87,87,-0.22300361775402533,-0.2,1,482.0,863.0,1.0,285.0,1,0.9138290872605546,0.0
88,88,0.9486953984837045,0.9,0,395.0,754.0,0.0,271.0,1,0.46008204249184503,0.0
89,89,0.36601364603896314,0.4,0,321.0,593.0,0.0,276.0,1,0.5791358810205727,0.0
90,90,-0.991307342518799,-1.0,1,288.0,784.0,1.0,198.0,1,0.6808760893837578,0.0
91,91,0.8889945916213431,0.9,0,333.0,601.0,0.0,176.0,1,0.5089547369644158,0.0
92,92,-0.4429594687950793,-0.4,1,266.0,696.0,1.0,858.0,1,0.7822786656496523,0.0
93,93,-0.5252718597670647,-0.5,1,451.0,595.0,1.0,284.0,1,0.46530571455638936,0.0
94,94,-0.1466649295293352,-0.1,1,483.0,558.0,1.0,619.0,1,0.5730882084170151,0.0
95,95,-0.3439879893623594,-0.3,1,309.0,980.0,1.0,711.0,1,0.9879919676699805,0.0
96,96,-0.4508712157176278,-0.5,1,269.0,872.0,1.0,169.0,1,0.8077302968019989,0.0
97,97,0.5019601886027136,0.5,0,352.0,814.0,0.0,284.0,1,0.44634062300602106,0.0
98,98,0.6453466437539987,0.6,0,445.0,571.0,0.0,274.0,1,0.35958322255919817,0.0
99,99,-0.5358397230037908,-0.5,1,344.0,590.0,1.0,316.0,1,0.8450992161047033,0.0
100,100,-0.17858743603631044,-0.2,1,263.0,890.0,1.0,947.0,1,0.38372812416050484,0.0
101,101,0.3241512402539968,0.3,0,390.0,979.0,0.0,401.0,1,0.9145929770847213,0.0
102,102,-0.4581516667641339,-0.5,1,297.0,790.0,1.0,443.0,1,0.9260053163155688,0.0
103,103,-0.5476306484557367,-0.5,1,268.0,810.0,1.0,542.0,1,0.2980824836403403,0.0
104,104,0.21038790699116627,0.2,0,251.0,529.0,0.0,290.0,1,0.7255821283928905,0.0
105,105,0.008940601729648279,0.0,0,255.0,844.0,0.0,811.0,1,0.4761387446070009,0.0
106,106,-0.6241625702500857,-0.6,1,303.0,643.0,1.0,364.0,1,0.0007070525754031554,0.0
107,107,0.8682711864289319,0.9,0,431.0,690.0,0.0,219.0,1,0.11221355605193539,0.0
108,108,0.06551713262154535,0.1,0,497.0,998.0,0.0,305.0,1,0.8337348289593578,0.0
109,109,0.18025987773188712,0.2,0,409.0,698.0,0.0,383.0,1,0.20324065668417546,0.0
110,110,-0.7152531531636483,-0.7,1,353.0,671.0,1.0,386.0,1,0.29537439575835944,0.0
111,111,-0.42315735474636673,-0.4,1,342.0,928.0,1.0,530.0,1,0.8680965827253144,0.0
112,112,0.33820825145465294,0.3,0,251.0,981.0,0.0,298.0,1,0.6879754654443047,0.0
113,113,0.2143171510262818,0.2,0,489.0,851.0,0.0,320.0,1,0.45860470553427235,0.0
114,114,-0.7149491607922389,-0.7,1,469.0,508.0,1.0,303.0,1,0.5261138530984062,0.0
115,115,-0.03164851213409836,-0.0,1,496.0,781.0,1.0,833.0,1,0.570479527721719,0.0
116,116,-0.620618476149299,-0.6,1,289.0,915.0,1.0,226.0,1,0.8098906954264407,0.0
117,117,-0.34782337361582916,-0.3,1,309.0,552.0,1.0,249.0,1,0.7491013029287734,0.0
118,118,-0.6566129060339938,-0.7,1,329.0,829.0,1.0,202.0,1,0.7528453308321871,0.0
119,119,-0.09555245176115124,-0.1,1,333.0,831.0,0.0,376.0,0,0.6031454267073861,0.0
120,120,0.40187235998998205,0.4,0,347.0,959.0,0.0,254.0,1,0.0717765451767326,0.0
121,121,-0.9556945300045419,-1.0,1,427.0,729.0,1.0,204.0,1,0.9829658810488426,0.0
122,122,-0.05185003039239011,-0.1,1,472.0,804.0,0.0,1544.0,0,0.47807328848465325,0.0
123,123,-0.010197127550140017,-0.0,1,381.0,739.0,0.0,760.0,0,0.2848386144576647,0.0
124,124,-0.1357242831715879,-0.1,1,275.0,656.0,0.0,579.0,0,0.4259551336562025,0.0
125,125,0.5087146354507053,0.5,0,487.0,988.0,0.0,185.0,1,0.5631860692287434,0.0
126,126,0.3521455224340826,0.4,0,452.0,723.0,0.0,345.0,1,0.20881133128047125,0.0
127,127,0.10356927159522078,0.1,0,290.0,809.0,0.0,291.0,1,0.9042594593385114,0.0
128,128,-0.023469952603446975,-0.0,1,375.0,952.0,0.0,433.0,0,0.4006626049631711,0.0
129,129,-0.9602473663074858,-1.0,1,284.0,505.0,1.0,181.0,1,0.9700607417668016,0.0
130,130,-0.11828266208294336,-0.1,1,276.0,754.0,1.0,1020.0,1,0.18724940850761818,0.0
131,131,0.4843835829345451,0.5,0,332.0,775.0,0.0,493.0,1,0.9880326254735169,0.0
132,132,-0.6150337119111278,-0.6,1,415.0,509.0,1.0,206.0,1,0.8224940251179139,0.0
133,133,0.6756387744987002,0.7,0,377.0,707.0,0.0,296.0,1,0.029187528596156254,0.0
134,134,0.28305909327931067,0.3,0,406.0,628.0,0.0,336.0,1,0.6840176840715232,0.0
135,135,0.6393517797155084,0.6,0,455.0,886.0,0.0,249.0,1,0.3337768601054636,0.0
136,136,-0.9248014841660059,-0.9,1,300.0,698.0,1.0,192.0,1,0.9724447940598986,0.0
137,137,-0.11871703707773973,-0.1,1,455.0,566.0,1.0,1329.0,1,0.33949066090548174,0.0
138,138,0.569099344855537,0.6,0,494.0,842.0,0.0,204.0,1,0.5111043560952369,0.0
139,139,-0.6127543403493012,-0.6,1,446.0,603.0,1.0,301.0,1,0.40967994545795816,0.0
140,140,0.374254019703657,0.4,0,354.0,583.0,0.0,303.0,1,0.8581622983067283,0.0
141,141,-0.38470034176912815,-0.4,1,483.0,653.0,1.0,334.0,1,0.23119483888398462,0.0
142,142,-0.3211452995651609,-0.3,1,402.0,755.0,1.0,383.0,1,0.10681156965872307,0.0
143,143,-0.0009947303438520017,-0.0,1,366.0,955.0,0.0,289.0,0,0.2431701007013619,0.0
144,144,0.15646397466706508,0.2,0,363.0,930.0,0.0,217.0,1,0.48007263533778366,0.0
145,145,0.37892604796705287,0.4,0,294.0,769.0,0.0,357.0,1,0.7001876417198535,0.0
146,146,0.29385759616140694,0.3,0,480.0,537.0,0.0,503.0,1,0.3526451823673089,0.0
147,147,-0.49205019647359305,-0.5,1,290.0,819.0,1.0,281.0,1,0.25538792577780156,0.0
148,148,-0.10556449388812927,-0.1,1,356.0,621.0,0.0,313.0,0,0.7602992324292768,0.0
149,149,0.9862906667836624,1.0,0,449.0,528.0,0.0,403.0,1,0.06929856924543443,0.0
150,150,-0.9755978870167228,-1.0,1,289.0,575.0,1.0,236.0,1,0.7911911072739157,0.0
151,151,-0.7868688919910483,-0.8,1,327.0,573.0,1.0,340.0,1,0.26375816458682444,0.0
152,152,0.10940635411505029,0.1,0,360.0,690.0,0.0,300.0,1,0.47744442283814037,0.0
153,153,-0.7456581966571985,-0.7,1,292.0,898.0,1.0,380.0,1,0.5994142364279144,0.0
154,154,-0.21481489714274327,-0.2,1,329.0,844.0,1.0,777.0,1,0.24861557481646757,0.0
155,155,0.12549167330181388,0.1,0,421.0,725.0,0.0,324.0,1,0.8226283057340313,0.0
156,156,-0.8460071939759848,-0.8,1,335.0,989.0,1.0,296.0,1,0.908091747391857,0.0
157,157,0.9013308336385484,0.9,0,279.0,781.0,0.0,490.0,1,0.17063181449181142,0.0
158,158,-0.7554052749398885,-0.8,1,310.0,841.0,1.0,259.0,1,0.7536367070184551,0.0
159,159,-0.9648842722341788,-1.0,1,412.0,961.0,1.0,257.0,1,0.004101307967241952,0.0
160,160,0.23201433920084913,0.2,0,334.0,962.0,0.0,424.0,1,0.05180208783171003,0.0
161,161,0.7158474216687254,0.7,0,417.0,501.0,0.0,222.0,1,0.7872959642010621,0.0
162,162,-0.9358128658447509,-0.9,1,497.0,915.0,1.0,288.0,1,0.07436354384047628,0.0
163,163,-0.49339212682198785,-0.5,1,304.0,874.0,1.0,382.0,1,0.27925920293608986,0.0
164,164,-0.9706462640131392,-1.0,1,372.0,855.0,1.0,253.0,1,0.1862659723410356,0.0
165,165,-0.9427608886930998,-0.9,1,333.0,901.0,1.0,266.0,1,0.5926331034568472,0.0
166,166,-0.7778180652380144,-0.8,1,465.0,867.0,1.0,328.0,1,0.7330349432832076,0.0
167,167,-0.3311398161029291,-0.3,1,421.0,815.0,1.0,514.0,1,0.1689913010821723,0.0
168,168,0.46858843693283636,0.5,0,464.0,570.0,0.0,636.0,1,0.25344342912415174,0.0
169,169,-0.7407756060369675,-0.7,1,274.0,542.0,1.0,344.0,1,0.14761783945517215,0.0
170,170,-0.7485779062266917,-0.7,1,493.0,757.0,1.0,300.0,1,0.30446087592674975,0.0
171,171,-0.5644015698263363,-0.6,1,485.0,993.0,1.0,392.0,1,0.20237454799894816,0.0
172,172,0.8364141257539552,0.8,0,480.0,847.0,0.0,233.0,1,0.4148627110391703,0.0
173,173,0.5991820248827737,0.6,0,322.0,594.0,0.0,254.0,1,0.12038401972293122,0.0
174,174,-0.7523755769738749,-0.8,1,441.0,966.0,1.0,263.0,1,0.9088478504240816,0.0
175,175,-0.6406667986985832,-0.6,1,387.0,683.0,1.0,190.0,1,0.6945086942644223,0.0
176,176,-0.2647705856503255,-0.3,1,390.0,960.0,1.0,680.0,1,0.12204110572611437,0.0
177,177,0.02126665310740483,0.0,0,258.0,992.0,0.0,250.0,1,0.697348369596057,0.0
178,178,-0.6329636267745937,-0.6,1,358.0,736.0,1.0,256.0,1,0.9786316136226845,0.0
179,179,0.7664157215787022,0.8,0,336.0,514.0,0.0,260.0,1,0.9474836562271202,0.0
180,180,0.27097806033696537,0.3,0,352.0,788.0,0.0,1330.0,1,0.08203330835779366,0.0
181,181,-0.8903599934498894,-0.9,1,479.0,607.0,1.0,334.0,1,0.4383740373385856,0.0
182,182,-0.15860344839124796,-0.2,1,375.0,682.0,1.0,1083.0,1,0.17651427640697293,0.0
183,183,-0.024802527810330766,-0.0,1,451.0,932.0,0.0,1617.0,0,0.5286313373584993,0.0
184,184,0.4478349426205581,0.4,0,307.0,646.0,0.0,207.0,1,0.806605210298102,0.0
185,185,-0.4076161581425142,-0.4,1,472.0,890.0,1.0,288.0,1,0.4975813216696622,0.0
186,186,-0.988758706170862,-1.0,1,482.0,895.0,1.0,233.0,1,0.8195798345426336,0.0
187,187,-0.25393437249469275,-0.3,1,334.0,545.0,1.0,661.0,1,0.24159103541757332,0.0
188,188,0.18629855541740303,0.2,0,331.0,733.0,0.0,306.0,1,0.7030424324518657,0.0
189,189,-0.6182860900871625,-0.6,1,358.0,837.0,1.0,515.0,1,0.9055200693754999,0.0
190,190,-0.768631086635154,-0.8,1,310.0,823.0,1.0,247.0,1,0.6978153805456891,0.0
191,191,-0.4268735216366868,-0.4,1,485.0,695.0,1.0,440.0,1,0.38781470385715067,0.0
192,192,-0.14280053240844248,-0.1,1,410.0,939.0,0.0,1871.0,0,0.06681660949222701,0.0
193,193,0.0031941924230556307,0.0,0,304.0,638.0,0.0,488.0,1,0.7255163032730535,0.0
194,194,-0.6502568944956908,-0.7,1,457.0,754.0,1.0,209.0,1,0.8419573007801158,0.0
195,195,-0.05538586840327153,-0.1,1,455.0,820.0,1.0,1065.0,1,0.6765025536642986,0.0
196,196,0.05139164066074886,0.1,0,298.0,516.0,0.0,316.0,1,0.7384124973503643,0.0
197,197,-0.7785033310735601,-0.8,1,414.0,950.0,1.0,256.0,1,0.5037815064129075,0.0
198,198,-0.49150793206338594,-0.5,1,326.0,579.0,1.0,465.0,1,0.41099864955594134,0.0
199,199,-0.49832177649366116,-0.5,1,288.0,697.0,1.0,235.0,1,0.6069208407835117,0.0
200,200,-0.44752971474953807,-0.4,1,453.0,619.0,1.0,648.0,1,0.11974737603271635,0.0
201,201,0.25236137702734185,0.3,0,302.0,848.0,0.0,170.0,1,0.7878323260233463,0.0
202,202,-0.5979230201408439,-0.6,1,386.0,528.0,1.0,196.0,1,0.570993588829435,0.0
203,203,-0.8583867137017831,-0.9,1,369.0,879.0,1.0,272.0,1,0.2520619595065452,0.0
204,204,0.09912270735959261,0.1,0,271.0,956.0,0.0,233.0,1,0.31572968383564504,0.0
205,205,-0.010149140290712566,-0.0,1,309.0,881.0,0.0,830.0,0,0.04242393722514681,0.0
206,206,-0.24085318159569202,-0.2,1,277.0,655.0,1.0,878.0,1,0.07930832325397996,0.0
207,207,-0.9428007443040478,-0.9,1,447.0,944.0,1.0,189.0,1,0.5863540972066518,0.0
208,208,0.7083294491198882,0.7,0,318.0,761.0,0.0,231.0,1,0.4131584013517995,0.0
209,209,-0.2362123996550105,-0.2,1,472.0,595.0,1.0,393.0,1,0.7632502799058795,0.0
210,210,-0.794239020541224,-0.8,1,315.0,772.0,1.0,353.0,1,0.4530829731045557,0.0
211,211,-0.45529877851696,-0.5,1,466.0,680.0,1.0,404.0,1,0.8762605107359577,0.0
212,212,-0.4721080528022743,-0.5,1,429.0,612.0,1.0,409.0,1,0.5674338146800927,0.0
213,213,0.07228245476428508,0.1,0,457.0,698.0,0.0,375.0,1,0.37006834224102236,0.0
214,214,-0.8119258338694233,-0.8,1,362.0,684.0,1.0,314.0,1,0.25175164308461306,0.0
215,215,0.9752324324525357,1.0,0,256.0,675.0,0.0,219.0,1,0.7480054113401172,0.0
216,216,0.2860049009888763,0.3,0,350.0,632.0,0.0,488.0,1,0.6901549207378208,0.0
217,217,-0.33192311672987396,-0.3,1,492.0,966.0,1.0,562.0,1,0.12212758222160969,0.0
218,218,0.3596556457652329,0.4,0,389.0,966.0,0.0,185.0,1,0.6835722474401679,0.0
219,219,0.9590365567133312,1.0,0,375.0,948.0,0.0,157.0,1,0.8947341026627031,0.0
220,220,0.5159147236761352,0.5,0,399.0,816.0,0.0,395.0,1,0.11298543667497385,0.0
221,221,-0.8279279077936754,-0.8,1,449.0,823.0,1.0,208.0,1,0.7253085802824671,0.0
222,222,-0.031258325851073465,-0.0,1,481.0,874.0,0.0,755.0,0,0.8880077771457252,0.0
223,223,0.625999278291794,0.6,0,365.0,922.0,0.0,353.0,1,0.5272503065855616,0.0
224,224,-0.8597654678837505,-0.9,1,441.0,546.0,1.0,153.0,1,0.8475930036156368,0.0
225,225,0.4995961209721924,0.5,0,485.0,820.0,0.0,355.0,1,0.3986974194096339,0.0
226,226,-0.9524584343837075,-1.0,1,306.0,957.0,1.0,287.0,1,0.5919709799103703,0.0
227,227,-0.4455447732480635,-0.4,1,456.0,536.0,1.0,408.0,1,0.19522257607380644,0.0
228,228,-0.572583067087113,-0.6,1,453.0,935.0,1.0,362.0,1,0.2562939527278214,0.0
229,229,0.10030184037473489,0.1,0,469.0,683.0,0.0,1088.0,1,0.5051053253668722,0.0
230,230,0.785961500976055,0.8,0,433.0,958.0,0.0,229.0,1,0.43339313241575994,0.0
231,231,-0.16019622743451878,-0.2,1,476.0,581.0,1.0,433.0,1,0.33319345886306984,0.0
232,232,-0.7160915068876392,-0.7,1,331.0,618.0,1.0,491.0,1,0.6692732732902622,0.0
233,233,-0.5369046721301112,-0.5,1,448.0,658.0,1.0,294.0,1,0.5429033905217091,0.0
234,234,-0.11225249075820742,-0.1,1,478.0,749.0,0.0,753.0,0,0.28104021238962484,0.0
235,235,0.6107355752203436,0.6,0,265.0,589.0,0.0,236.0,1,0.6703313149306066,0.0
236,236,0.6761062945350089,0.7,0,472.0,551.0,0.0,347.0,1,0.2789202389104738,0.0
237,237,-0.8872085500255089,-0.9,1,486.0,988.0,1.0,226.0,1,0.7665610864265501,0.0
238,238,0.2911544765023264,0.3,0,498.0,858.0,0.0,254.0,1,0.3480450266503762,0.0
239,239,-0.5127784763821128,-0.5,1,456.0,772.0,1.0,352.0,1,0.40488909539900697,0.0
240,240,-0.6544342194439501,-0.7,1,417.0,757.0,1.0,196.0,1,0.707094078058532,0.0
241,241,0.07607354184792192,0.1,0,305.0,688.0,0.0,427.0,1,0.3524497863606094,0.0
242,242,0.2235941829152681,0.2,0,299.0,685.0,0.0,516.0,1,0.9385979861992808,0.0
243,243,0.0836529188814461,0.1,0,411.0,703.0,0.0,446.0,1,0.8821368384723476,0.0
244,244,0.26254799386300487,0.3,0,296.0,797.0,0.0,407.0,1,0.0634357305850708,0.0
245,245,0.16061436831239262,0.2,0,411.0,674.0,0.0,655.0,1,0.12449081569990861,0.0
246,246,-0.954564518146128,-1.0,1,338.0,588.0,1.0,184.0,1,0.9819829074661851,0.0
247,247,-0.8511086854720216,-0.9,1,480.0,643.0,1.0,137.0,1,0.7954772350441099,0.0
248,248,0.41519782449268194,0.4,0,315.0,524.0,0.0,241.0,1,0.4714408908865063,0.0
249,249,0.9032027782868168,0.9,0,341.0,676.0,0.0,273.0,1,0.8905110208237264,0.0
250,250,0.3291487014626504,0.3,0,499.0,978.0,0.0,373.0,1,0.12613221026277943,0.0
251,251,0.1860790666655392,0.2,0,354.0,529.0,0.0,397.0,1,0.06726917897529827,0.0
252,252,0.4835016848714002,0.5,0,374.0,844.0,0.0,672.0,1,0.415393691721036,0.0
253,253,-0.19020814911907635,-0.2,1,278.0,755.0,0.0,577.0,0,0.5517704949716473,0.0
254,254,0.5795180325094937,0.6,0,256.0,911.0,0.0,543.0,1,0.612246437872252,0.0
255,255,0.6804563498506557,0.7,0,350.0,581.0,0.0,349.0,1,0.5214057449473645,0.0
256,256,0.14678871383959646,0.1,0,422.0,618.0,0.0,150.0,1,0.8453398189123656,0.0
257,257,-0.6331028331986581,-0.6,1,355.0,868.0,1.0,537.0,1,0.06415127510833107,0.0
258,258,-0.8237071666421989,-0.8,1,295.0,798.0,1.0,247.0,1,0.032153990558874024,0.0
259,259,0.6227368920676939,0.6,0,298.0,822.0,0.0,260.0,1,0.3350310402728174,0.0
260,260,-0.9832507566780548,-1.0,1,407.0,825.0,1.0,238.0,1,0.38012651568222966,0.0
261,261,0.6552273561798292,0.7,0,479.0,912.0,0.0,519.0,1,0.3277176615226174,0.0
262,262,-0.6582359286331105,-0.7,1,334.0,537.0,1.0,179.0,1,0.7365588513111869,0.0
263,263,0.031846751487375924,0.0,0,383.0,968.0,0.0,469.0,1,0.6277322407408675,0.0
264,264,0.9998292008209406,1.0,0,414.0,872.0,0.0,154.0,1,0.2559509175702398,0.0
265,265,0.11268403232933011,0.1,0,444.0,575.0,0.0,341.0,1,0.14785683753951484,0.0
266,266,-0.1651035152841025,-0.2,1,252.0,821.0,0.0,157.0,0,0.5368722870490867,0.0
267,267,0.09984117840584328,0.1,0,418.0,745.0,0.0,507.0,1,0.5974017537643742,0.0
268,268,0.9502517792781084,1.0,0,433.0,783.0,0.0,304.0,1,0.4134282844117735,0.0
269,269,0.9966180470040917,1.0,0,473.0,712.0,0.0,175.0,1,0.4275981565305137,0.0
270,270,-0.7197525611901456,-0.7,1,457.0,701.0,1.0,162.0,1,0.7364308955299357,0.0
271,271,-0.5188293300804288,-0.5,1,465.0,503.0,1.0,262.0,1,0.12760546700344888,0.0
272,272,0.7539256581667402,0.8,0,303.0,934.0,0.0,373.0,1,0.37203469587206717,0.0
273,273,0.2999517780291352,0.3,0,486.0,837.0,0.0,337.0,1,0.4551079879818237,0.0
274,274,-0.13334404112744003,-0.1,1,316.0,950.0,0.0,384.0,0,0.9941571250680586,0.0
275,275,-0.9531579360336018,-1.0,1,477.0,904.0,1.0,189.0,1,0.4776017440321766,0.0
276,276,0.9858684154632669,1.0,0,446.0,871.0,0.0,163.0,1,0.8432470033449334,0.0
277,277,0.1062063620807927,0.1,0,498.0,951.0,0.0,191.0,1,0.9707204320856001,0.0
278,278,-0.30556816760847316,-0.3,1,423.0,856.0,1.0,431.0,1,0.4954640149644748,0.0
279,279,-0.2178467784118736,-0.2,1,315.0,640.0,1.0,635.0,1,0.15756185285832114,0.0
280,280,0.4294715227731023,0.4,0,407.0,518.0,0.0,555.0,1,0.5884749706036719,0.0
281,281,-0.7578309580347717,-0.8,1,497.0,557.0,1.0,286.0,1,0.23864835855889854,0.0
282,282,-0.9157709821787712,-0.9,1,455.0,959.0,1.0,426.0,1,0.10604828828503976,0.0
283,283,-0.762905568755645,-0.8,1,428.0,661.0,1.0,461.0,1,0.33947631502999165,0.0
284,284,0.2668392237296884,0.3,0,253.0,654.0,0.0,413.0,1,0.7563477106724709,0.0
285,285,0.8296547059039807,0.8,0,441.0,903.0,0.0,216.0,1,0.926769725185985,0.0
286,286,-0.830675096396547,-0.8,1,283.0,937.0,1.0,250.0,1,0.24350792994423598,0.0
287,287,0.314720192554818,0.3,0,495.0,906.0,0.0,469.0,1,0.6145886994133815,0.0
288,288,0.8949238540861009,0.9,0,402.0,708.0,0.0,180.0,1,0.5516814346185982,0.0
289,289,0.4102252784894216,0.4,0,478.0,572.0,0.0,350.0,1,0.9196715729834528,0.0
290,290,0.23158782725192917,0.2,0,299.0,938.0,0.0,483.0,1,0.6850428106524358,0.0
291,291,0.8772046021106741,0.9,0,384.0,865.0,0.0,161.0,1,0.8064236702543103,0.0
292,292,0.45425653608525485,0.5,0,401.0,799.0,0.0,510.0,1,0.14702574251631406,0.0
293,293,-0.49892397058180094,-0.5,1,411.0,870.0,1.0,449.0,1,0.3507846325438917,0.0
294,294,-0.5189474629121829,-0.5,1,324.0,533.0,1.0,453.0,1,0.2586785447894202,0.0
295,295,-0.959384852562192,-1.0,1,275.0,501.0,1.0,204.0,1,0.7887721062149033,0.0
296,296,0.5879115386986011,0.6,0,324.0,635.0,0.0,251.0,1,0.4358723038063216,0.0
297,297,0.18787678624695925,0.2,0,448.0,648.0,0.0,324.0,1,0.7140938434165396,0.0
298,298,-0.993792577474069,-1.0,1,497.0,589.0,1.0,204.0,1,0.40758651768486376,0.0
299,299,0.5447228659733325,0.5,0,368.0,500.0,0.0,152.0,1,0.6267910240532557,0.0
300,300,0.4554867692379958,0.5,0,418.0,675.0,0.0,337.0,1,0.621821552283377,0.0
301,301,-0.9015849180644611,-0.9,1,449.0,775.0,1.0,276.0,1,0.11151835536340404,0.0
302,302,0.17221602157128402,0.2,0,432.0,714.0,0.0,284.0,1,0.292383324435462,0.0
303,303,-0.7312162164783191,-0.7,1,412.0,660.0,1.0,258.0,1,0.6606168126007617,0.0
304,304,-0.9643183012832901,-1.0,1,256.0,858.0,1.0,386.0,1,0.25448018811706974,0.0
305,305,-0.6788228506849616,-0.7,1,358.0,815.0,1.0,307.0,1,0.30324279831086276,0.0
306,306,0.9397218931145017,0.9,0,328.0,617.0,0.0,165.0,1,0.8383077080000376,0.0
307,307,0.7409273459948842,0.7,0,446.0,508.0,0.0,406.0,1,0.06950712070033482,0.0
308,308,-0.2260610908495484,-0.2,1,493.0,753.0,1.0,944.0,1,0.9103357974181947,0.0
309,309,0.7374954071797255,0.7,0,472.0,991.0,0.0,197.0,1,0.1802963028733935,0.0
310,310,0.6214236117908485,0.6,0,418.0,598.0,0.0,134.0,1,0.6671952903607696,0.0
311,311,-0.007763564569276182,-0.0,1,286.0,810.0,0.0,1404.0,0,0.4348395679098582,0.0
312,312,0.47473821764385127,0.5,0,348.0,940.0,0.0,352.0,1,0.49981815075638936,0.0
313,313,-0.6962661647543098,-0.7,1,494.0,817.0,1.0,239.0,1,0.7379379151571546,0.0
314,314,-0.036337080820551426,-0.0,1,398.0,600.0,0.0,1232.0,0,0.14112699726312217,0.0
315,315,-0.31467920962032436,-0.3,1,314.0,503.0,1.0,243.0,1,0.7516714277316067,0.0
316,316,0.6992164947878159,0.7,0,431.0,640.0,0.0,379.0,1,0.04632734678612238,0.0
317,317,0.6088028809141135,0.6,0,283.0,939.0,0.0,238.0,1,0.40258344483316855,0.0
318,318,0.5908056784018985,0.6,0,321.0,515.0,0.0,244.0,1,0.7728695741522924,0.0
319,319,0.6888202038275029,0.7,0,298.0,599.0,0.0,183.0,1,0.8242771789317418,0.0
320,320,-0.4837429492736791,-0.5,1,301.0,622.0,1.0,377.0,1,0.19938912545932486,0.0
321,321,0.14880925322606187,0.1,0,287.0,738.0,0.0,995.0,1,0.44927257698162015,0.0
322,322,-0.7200135297399644,-0.7,1,355.0,598.0,1.0,257.0,1,0.5665159612232982,0.0
323,323,0.2836974791711535,0.3,0,448.0,863.0,0.0,519.0,1,0.36876272570572977,0.0
324,324,0.5810866772150951,0.6,0,374.0,819.0,0.0,297.0,1,0.27195336936549364,0.0
325,325,-0.9168605330617421,-0.9,1,318.0,978.0,1.0,254.0,1,0.772141390333626,0.0
326,326,0.2255612233681299,0.2,0,499.0,602.0,0.0,349.0,1,0.1701669159254332,0.0
327,327,-0.8419749070185261,-0.8,1,465.0,583.0,1.0,252.0,1,0.01629423371486316,0.0
328,328,-0.2964935804218005,-0.3,1,341.0,958.0,1.0,271.0,1,0.9624598015869448,0.0
329,329,0.6685587091873222,0.7,0,426.0,765.0,0.0,259.0,1,0.3257103837655696,0.0
330,330,-0.9648885592422503,-1.0,1,374.0,971.0,1.0,425.0,1,0.2821958610421045,0.0
331,331,-0.03661164481606516,-0.0,1,364.0,622.0,0.0,484.0,0,0.23899139940471203,0.0
332,332,0.8273321960041049,0.8,0,430.0,595.0,0.0,275.0,1,0.35577450395810006,0.0
333,333,-0.45957046729369977,-0.5,1,288.0,905.0,1.0,527.0,1,0.5917621074097034,0.0
334,334,0.46486524001924656,0.5,0,467.0,946.0,0.0,227.0,1,0.8738655223359685,0.0
335,335,0.31942942707780264,0.3,0,337.0,815.0,0.0,418.0,1,0.2067012591582007,0.0
336,336,-0.15849074720802303,-0.2,1,284.0,562.0,1.0,964.0,1,0.30339540219791694,0.0
337,337,-0.2315577812610634,-0.2,1,256.0,830.0,1.0,1004.0,1,0.422465121403802,0.0
338,338,-0.04433188836323665,-0.0,1,426.0,905.0,0.0,809.0,0,0.44523530410232093,0.0
339,339,0.03478597267658379,0.0,0,387.0,598.0,0.0,535.0,1,0.3930488404531315,0.0
340,340,-0.6662354174945835,-0.7,1,342.0,628.0,1.0,370.0,1,0.04949080133257755,0.0
341,341,0.9006453264004426,0.9,0,335.0,937.0,0.0,238.0,1,0.8183302713974623,0.0
342,342,-0.8739755339474746,-0.9,1,330.0,801.0,1.0,249.0,1,0.1982094779630592,0.0
343,343,0.5735324543689326,0.6,0,463.0,589.0,0.0,338.0,1,0.8130587539327733,0.0
344,344,0.42590549551091383,0.4,0,333.0,785.0,0.0,372.0,1,0.445130385707708,0.0
345,345,-0.24116201974300866,-0.2,1,318.0,780.0,1.0,512.0,1,0.3590892555593055,0.0
346,346,0.5333131368910211,0.5,0,419.0,834.0,0.0,437.0,1,0.34251970314929114,0.0
347,347,0.6819679353288159,0.7,0,335.0,768.0,0.0,227.0,1,0.8708479039218439,0.0
348,348,-0.3014100532539543,-0.3,1,383.0,726.0,1.0,511.0,1,0.325842772631171,0.0
349,349,-0.1056063096460711,-0.1,1,431.0,660.0,1.0,509.0,1,0.27720283205506213,0.0
350,350,-0.22706768061863802,-0.2,1,489.0,844.0,1.0,337.0,1,0.8578727572731948,0.0
351,351,0.4696250631052554,0.5,0,250.0,787.0,0.0,253.0,1,0.3345445296109626,0.0
352,352,0.036683888904312845,0.0,0,420.0,535.0,0.0,715.0,1,0.5835596658735608,0.0
353,353,0.7505322887286001,0.8,0,365.0,760.0,0.0,335.0,1,0.3036874676004858,0.0
354,354,0.7045902506222439,0.7,0,378.0,826.0,0.0,166.0,1,0.510144937244521,0.0
355,355,-0.5109310142686141,-0.5,1,430.0,860.0,1.0,470.0,1,0.3643015268472508,0.0
356,356,-0.5078820039399223,-0.5,1,425.0,618.0,1.0,227.0,1,0.6818518457696826,0.0
357,357,0.18451567280214154,0.2,0,250.0,878.0,0.0,522.0,1,0.3261324350081569,0.0
358,358,-0.7767287103849352,-0.8,1,480.0,894.0,1.0,226.0,1,0.2675802649860203,0.0
359,359,0.7611136268516507,0.8,0,473.0,876.0,0.0,231.0,1,0.8147988090827126,0.0
360,360,0.158992102205894,0.2,0,475.0,936.0,0.0,359.0,1,0.4154440068677111,0.0
361,361,0.11556875168784231,0.1,0,306.0,553.0,0.0,331.0,1,0.9291889967463142,0.0
362,362,0.028099703091021055,0.0,0,409.0,849.0,0.0,422.0,1,0.8717568209706628,0.0
363,363,0.793185197388897,0.8,0,356.0,855.0,0.0,229.0,1,0.9102086593814157,0.0
364,364,-0.38783994270806854,-0.4,1,271.0,583.0,1.0,1476.0,1,0.173138001388481,0.0
365,365,-0.20921293323158818,-0.2,1,437.0,596.0,1.0,607.0,1,0.11352661371042605,0.0
366,366,-0.48580427199918685,-0.5,1,312.0,802.0,1.0,376.0,1,0.2727427619346524,0.0
367,367,0.5622784894273323,0.6,0,337.0,688.0,0.0,245.0,1,0.7752428260671905,0.0
368,368,0.5037529137186538,0.5,0,341.0,525.0,0.0,254.0,1,0.9436475714151534,0.0
369,369,0.4025080744517857,0.4,0,287.0,504.0,0.0,319.0,1,0.9692603973136855,0.0
370,370,-0.6405763228575101,-0.6,1,468.0,816.0,1.0,166.0,1,0.7025497064173882,0.0
371,371,0.1377476672618949,0.1,0,339.0,700.0,0.0,361.0,1,0.9216958860540139,0.0
372,372,-0.392144721756829,-0.4,1,386.0,578.0,1.0,366.0,1,0.6019242388045326,0.0
373,373,-0.5538935018433873,-0.6,1,348.0,583.0,1.0,309.0,1,0.2923418535563935,0.0
374,374,-0.2726138427476814,-0.3,1,296.0,519.0,1.0,405.0,1,0.5109299002917976,0.0
375,375,-0.5723649162407543,-0.6,1,404.0,918.0,1.0,368.0,1,0.23368350718521658,0.0
376,376,0.9510300610014575,1.0,0,318.0,525.0,0.0,287.0,1,0.03182731404748562,0.0
377,377,-0.976807921382582,-1.0,1,410.0,825.0,1.0,155.0,1,0.657798372649318,0.0
378,378,0.8534164811054679,0.9,0,282.0,541.0,0.0,187.0,1,0.8429087502873871,0.0
379,379,-0.031308529255152706,-0.0,1,271.0,738.0,0.0,1061.0,0,0.36214501684262057,0.0
380,380,0.7611283052716407,0.8,0,262.0,811.0,0.0,417.0,1,0.23859540922357836,0.0
381,381,-0.8155956816612702,-0.8,1,352.0,893.0,1.0,365.0,1,0.8503021605415806,0.0
382,382,-0.9304299232193478,-0.9,1,421.0,772.0,1.0,277.0,1,0.2348943447949775,0.0
383,383,0.011987929831430932,0.0,0,427.0,668.0,0.0,325.0,1,0.7249517880310286,0.0
384,384,0.5313179140849547,0.5,0,374.0,728.0,0.0,278.0,1,0.9026922075104006,0.0
385,385,-0.1210614636191163,-0.1,1,266.0,557.0,0.0,437.0,0,0.9561138157681814,0.0
386,386,-0.8993570466909662,-0.9,1,450.0,832.0,1.0,198.0,1,0.3040084631596689,0.0
387,387,0.8766709971845155,0.9,0,444.0,831.0,0.0,245.0,1,0.2565597995560269,0.0
388,388,-0.5798967733621534,-0.6,1,393.0,689.0,1.0,498.0,1,0.13448673643843823,0.0
389,389,0.46765144919430934,0.5,0,284.0,821.0,0.0,145.0,1,0.9661716763467822,0.0
390,390,0.539318503689824,0.5,0,457.0,577.0,0.0,376.0,1,0.9484412850671968,0.0
391,391,0.6859279841456876,0.7,0,404.0,928.0,0.0,178.0,1,0.8586831558744464,0.0
392,392,0.5688108991927872,0.6,0,463.0,930.0,0.0,237.0,1,0.22467842943038918,0.0
393,393,-0.6181998054595883,-0.6,1,364.0,798.0,1.0,318.0,1,0.22743945993540127,0.0
394,394,0.805121550673787,0.8,0,329.0,909.0,0.0,212.0,1,0.4672633654655316,0.0
395,395,-0.33107611211307053,-0.3,1,330.0,571.0,1.0,579.0,1,0.580874256303063,0.0
396,396,-0.25335256079460766,-0.3,1,377.0,607.0,1.0,456.0,1,0.17482918640990808,0.0
397,397,0.049037968708806945,0.0,0,420.0,909.0,0.0,331.0,1,0.6917386287054363,0.0
398,398,-0.8705010352351124,-0.9,1,278.0,659.0,1.0,293.0,1,0.7689296512944567,0.0
399,399,-0.35916590069480403,-0.4,1,467.0,780.0,1.0,393.0,1,0.7453881181175936,0.0
400,400,0.4879915474448744,0.5,0,344.0,775.0,0.0,261.0,1,0.30961275179428305,0.0
401,401,-0.7230349550494297,-0.7,1,371.0,746.0,1.0,383.0,1,0.043111222047278575,0.0
402,402,0.9938707780557137,1.0,0,470.0,575.0,0.0,185.0,1,0.355124021129535,0.0
403,403,-0.7024751622929915,-0.7,1,331.0,796.0,1.0,263.0,1,0.7269732305873161,0.0
404,404,0.6709323348600114,0.7,0,257.0,585.0,0.0,108.0,1,0.8003370292318072,0.0
405,405,0.9927048614050018,1.0,0,493.0,638.0,0.0,189.0,1,0.43299843549093076,0.0
406,406,0.3958884432358363,0.4,0,476.0,511.0,0.0,143.0,1,0.9417229721287286,0.0
407,407,0.6035955665003707,0.6,0,341.0,958.0,0.0,211.0,1,0.6949120118320579,0.0
408,408,0.9797580979134082,1.0,0,298.0,735.0,0.0,287.0,1,0.9180533941789291,0.0
409,409,-0.5086777818331523,-0.5,1,314.0,778.0,1.0,388.0,1,0.6159117191858694,0.0
410,410,-0.983104431114866,-1.0,1,274.0,554.0,1.0,222.0,1,0.5176525183588795,0.0
411,411,0.3148775386447378,0.3,0,485.0,727.0,0.0,468.0,1,0.38548596701757987,0.0
412,412,0.31165259158228564,0.3,0,259.0,709.0,0.0,332.0,1,0.261574936059742,0.0
413,413,-0.665849227433885,-0.7,1,262.0,635.0,1.0,323.0,1,0.09558477453625247,0.0
414,414,-0.9755891843527684,-1.0,1,421.0,846.0,1.0,273.0,1,0.016824735110122613,0.0
415,415,-0.3898126131564361,-0.4,1,275.0,627.0,1.0,258.0,1,0.6255894911988702,0.0
416,416,-0.6725745188211707,-0.7,1,411.0,690.0,1.0,339.0,1,0.202476129223932,0.0
417,417,-0.2826715337570034,-0.3,1,301.0,682.0,1.0,1077.0,1,0.9808930850599666,0.0
418,418,0.7968746295483078,0.8,0,397.0,615.0,0.0,298.0,1,0.0059842167345474095,0.0
419,419,-0.37675203406984714,-0.4,1,441.0,595.0,1.0,544.0,1,0.791633686952232,0.0
420,420,0.536273141472354,0.5,0,451.0,956.0,0.0,273.0,1,0.6119322365990191,0.0
421,421,0.41761906228576384,0.4,0,367.0,709.0,0.0,294.0,1,0.18892435163194277,0.0
422,422,0.3264727126862419,0.3,0,257.0,570.0,0.0,283.0,1,0.7668118826769644,0.0
423,423,0.6581351913866433,0.7,0,402.0,964.0,0.0,404.0,1,0.03473507863546388,0.0
424,424,0.7376559927816355,0.7,0,341.0,995.0,0.0,124.0,1,0.8750458472592121,0.0
425,425,-0.3064422752596403,-0.3,1,451.0,529.0,1.0,400.0,1,0.3936699263594522,0.0
426,426,0.6922765042177612,0.7,0,418.0,978.0,0.0,264.0,1,0.8022265088271701,0.0
427,427,0.3630385806030014,0.4,0,492.0,658.0,0.0,440.0,1,0.8418409676898968,0.0
428,428,-0.22897113691538484,-0.2,1,344.0,655.0,1.0,1281.0,1,0.9790025096307371,0.0
429,429,0.5820900618172733,0.6,0,389.0,981.0,0.0,300.0,1,0.13857417733428912,0.0
430,430,0.2649078755300196,0.3,0,300.0,704.0,0.0,326.0,1,0.030067571232676005,0.0
431,431,-0.15555094264616764,-0.2,1,499.0,768.0,1.0,333.0,1,0.9309962068613016,0.0
432,432,-0.6528617332589663,-0.7,1,436.0,573.0,1.0,191.0,1,0.49949309698031386,0.0
433,433,-0.4833183634668168,-0.5,1,448.0,660.0,1.0,352.0,1,0.7398754848321794,0.0
434,434,0.6606553519752953,0.7,0,452.0,694.0,0.0,214.0,1,0.24466723658205913,0.0
435,435,-0.7374020554201917,-0.7,1,250.0,586.0,1.0,234.0,1,0.3529662184189376,0.0
436,436,-0.8425142121640194,-0.8,1,419.0,691.0,1.0,200.0,1,0.6569331256320518,0.0
437,437,0.21134073939947684,0.2,0,450.0,588.0,0.0,532.0,1,0.3269319396533158,0.0
438,438,0.27901309694304643,0.3,0,334.0,955.0,0.0,321.0,1,0.11366883688057439,0.0
439,439,-0.9810800875179928,-1.0,1,353.0,737.0,1.0,220.0,1,0.29135653015754337,0.0
440,440,-0.7159233676408134,-0.7,1,269.0,587.0,1.0,174.0,1,0.4090530398306724,0.0
441,441,0.8056784550286182,0.8,0,347.0,813.0,0.0,160.0,1,0.7460385925952387,0.0
442,442,-0.8313313183482247,-0.8,1,442.0,806.0,1.0,192.0,1,0.9604191670761941,0.0
443,443,0.45052638919324695,0.5,0,323.0,796.0,0.0,221.0,1,0.7697982543604128,0.0
444,444,0.13611044501009184,0.1,0,447.0,566.0,0.0,1197.0,1,0.013285201565938931,0.0
445,445,0.4529886446596363,0.5,0,498.0,823.0,0.0,319.0,1,0.8340070467218091,0.0
446,446,-0.9398948944798424,-0.9,1,467.0,536.0,1.0,537.0,1,0.12783546016189484,0.0
447,447,0.3715923812362423,0.4,0,341.0,926.0,0.0,193.0,1,0.4070327769494234,0.0
448,448,-0.8875219651272799,-0.9,1,360.0,523.0,1.0,197.0,1,0.09455386459615889,0.0
449,449,-0.4633869938325794,-0.5,1,378.0,566.0,1.0,546.0,1,0.21300088949655693,0.0
450,450,-0.2919920121005557,-0.3,1,356.0,921.0,1.0,313.0,1,0.6760043239071617,0.0
451,451,-0.4239371280541038,-0.4,1,454.0,979.0,1.0,187.0,1,0.37419294407202097,0.0
452,452,0.7615506394767904,0.8,0,460.0,534.0,0.0,306.0,1,0.4252472212066313,0.0
453,453,-0.9673830551713656,-1.0,1,256.0,516.0,1.0,218.0,1,0.7816677370818879,0.0
454,454,-0.8298357915885302,-0.8,1,400.0,756.0,1.0,184.0,1,0.8857509998211875,0.0
455,455,0.6355363091493529,0.6,0,398.0,803.0,0.0,359.0,1,0.08379255661352847,0.0
456,456,0.5504103352542993,0.6,0,369.0,680.0,0.0,231.0,1,0.8632360953768928,0.0
457,457,-0.01907520615628111,-0.0,1,365.0,955.0,0.0,1120.0,0,0.7392548631347584,0.0
458,458,0.7026545784889544,0.7,0,288.0,662.0,0.0,300.0,1,0.5068020365661287,0.0
459,459,-0.8650058061929373,-0.9,1,447.0,695.0,1.0,258.0,1,0.6156351893176168,0.0
460,460,0.23275367240629574,0.2,0,420.0,873.0,0.0,467.0,1,0.7189561923733587,0.0
461,461,0.00146812789737516,0.0,0,291.0,910.0,0.0,149.0,1,0.8274343850330911,0.0
462,462,-0.6733353900627304,-0.7,1,460.0,907.0,1.0,583.0,1,0.13711756394603436,0.0
463,463,0.006519493642070939,0.0,0,391.0,936.0,1.0,993.0,0,0.25503444304922873,0.0
464,464,0.9042332172651997,0.9,0,376.0,813.0,0.0,261.0,1,0.7128205516854653,0.0
465,465,0.11387868193131956,0.1,0,387.0,816.0,0.0,337.0,1,0.8780610265657441,0.0
466,466,0.9694409231706898,1.0,0,280.0,532.0,0.0,148.0,1,0.9195749377892035,0.0
467,467,0.5295320242926027,0.5,0,484.0,712.0,0.0,254.0,1,0.2246835176703854,0.0
468,468,0.3993401554122471,0.4,0,487.0,678.0,0.0,205.0,1,0.7834101761213078,0.0
469,469,0.0021248764856898195,0.0,0,381.0,964.0,0.0,305.0,1,0.3982660343851777,0.0
470,470,-0.16867342201107993,-0.2,1,344.0,722.0,1.0,394.0,1,0.6659859374406905,0.0
471,471,0.9457297302171161,0.9,0,308.0,504.0,0.0,158.0,1,0.813030181362325,0.0
472,472,0.4794593947018626,0.5,0,433.0,904.0,0.0,463.0,1,0.22437015649396463,0.0
473,473,0.42938983656532237,0.4,0,301.0,637.0,0.0,522.0,1,0.31318115407907166,0.0
474,474,-0.23348879396195588,-0.2,1,429.0,784.0,1.0,367.0,1,0.9126329869268802,0.0
475,475,-0.5854761603211249,-0.6,1,377.0,907.0,1.0,496.0,1,0.729457506599136,0.0
476,476,0.06731417064862177,0.1,0,440.0,836.0,0.0,644.0,1,0.19143687558270317,0.0
477,477,-0.786445597054777,-0.8,1,318.0,884.0,1.0,188.0,1,0.8941203359813686,0.0
478,478,-0.16697603861916432,-0.2,1,475.0,877.0,0.0,598.0,0,0.892562227206387,0.0
479,479,-0.2069259022986838,-0.2,1,498.0,886.0,1.0,256.0,1,0.5350107120604386,0.0
480,480,-0.30260828957580177,-0.3,1,298.0,650.0,1.0,402.0,1,0.7718075270582593,0.0
481,481,-0.6523249067398791,-0.7,1,434.0,858.0,1.0,298.0,1,0.7006870155689248,0.0
482,482,-0.650071015879685,-0.7,1,429.0,645.0,1.0,346.0,1,0.7799991402357259,0.0
483,483,0.5612241423297146,0.6,0,302.0,895.0,0.0,353.0,1,0.3432100301216914,0.0
484,484,0.11492374388848425,0.1,0,310.0,947.0,0.0,313.0,1,0.7944865841556246,0.0
485,485,-0.22541217792272028,-0.2,1,455.0,739.0,1.0,816.0,1,0.17867041162681907,0.0
486,486,0.06905683005028562,0.1,0,439.0,511.0,0.0,240.0,1,0.9162361719116694,0.0
487,487,0.0372220686263649,0.0,0,453.0,704.0,0.0,793.0,1,0.3902722659099982,0.0
488,488,-0.3983968718794315,-0.4,1,286.0,759.0,1.0,295.0,1,0.6321788729811613,0.0
489,489,-0.5148501947833684,-0.5,1,292.0,519.0,1.0,329.0,1,0.9491822542884287,0.0
490,490,0.1840660691621796,0.2,0,403.0,661.0,0.0,206.0,1,0.1359716254728155,0.0
491,491,-0.904709241862452,-0.9,1,350.0,687.0,1.0,173.0,1,0.6844958084277735,0.0
492,492,0.5109256253624488,0.5,0,306.0,508.0,0.0,266.0,1,0.0034607071222021446,0.0
493,493,-0.8355588670987468,-0.8,1,442.0,589.0,1.0,219.0,1,0.5985718212100192,0.0
494,494,-0.7100351143973191,-0.7,1,406.0,676.0,1.0,238.0,1,0.616433295041193,0.0
495,495,-0.2765791124007353,-0.3,1,301.0,637.0,1.0,392.0,1,0.22653250566821692,0.0
496,496,-0.5549938768419058,-0.6,1,404.0,529.0,1.0,367.0,1,0.10445481995637318,0.0
497,497,-0.9221450983325725,-0.9,1,368.0,722.0,1.0,270.0,1,0.9212555435824573,0.0
498,498,0.46516095326673024,0.5,0,379.0,728.0,0.0,203.0,1,0.5736337700693558,0.0
499,499,0.30112309282283545,0.3,0,314.0,610.0,0.0,586.0,1,0.7646128422828616,0.0
500,500,-0.02487809011848352,-0.0,1,318.0,948.0,0.0,244.0,0,0.9754240659111295,0.0
501,501,-0.41345013364702754,-0.4,1,281.0,633.0,1.0,316.0,1,0.2654415065983309,0.0
502,502,-0.3962655317314496,-0.4,1,421.0,935.0,1.0,274.0,1,0.8543978370601452,0.0
503,503,-0.6748485109688303,-0.7,1,293.0,996.0,1.0,331.0,1,0.9283148117490627,0.0
504,504,-0.31171673492974583,-0.3,1,358.0,661.0,1.0,611.0,1,0.8876098025519794,0.0
505,505,-0.19605060898524052,-0.2,1,324.0,983.0,1.0,493.0,1,0.8810235113905428,0.0
506,506,-0.49435998287613825,-0.5,1,340.0,730.0,1.0,620.0,1,0.2631455581825777,0.0
507,507,0.638260025959833,0.6,0,261.0,803.0,0.0,196.0,1,0.7870624039998615,0.0
508,508,-0.5330840293288688,-0.5,1,427.0,631.0,1.0,432.0,1,0.09787994215887474,0.0
509,509,0.6190198538796088,0.6,0,278.0,599.0,0.0,203.0,1,0.30493590896240474,0.0
510,510,0.14214185431194348,0.1,0,251.0,673.0,0.0,346.0,1,0.8666259724890958,0.0
511,511,0.23419757216031067,0.2,0,369.0,857.0,0.0,284.0,1,0.35104821158032806,0.0
512,512,-0.6614133905477138,-0.7,1,478.0,760.0,1.0,132.0,1,0.8420899902968718,0.0
513,513,0.22055901961896818,0.2,0,483.0,866.0,0.0,391.0,1,0.5456524526271254,0.0
514,514,-0.7653029027121161,-0.8,1,467.0,612.0,1.0,361.0,1,0.20064906939628213,0.0
515,515,0.859493183313996,0.9,0,278.0,602.0,0.0,310.0,1,0.41668933872602065,0.0
516,516,-0.23275870781114416,-0.2,1,337.0,625.0,1.0,668.0,1,0.13866239910100242,0.0
517,517,-0.3102986290546188,-0.3,1,378.0,537.0,1.0,305.0,1,0.6136418244606962,0.0
518,518,0.6534540395805863,0.7,0,251.0,883.0,0.0,246.0,1,0.6306192989439899,0.0
519,519,-0.06133229081896596,-0.1,1,375.0,571.0,0.0,274.0,0,0.738190633499069,0.0
520,520,-0.2899153339780667,-0.3,1,342.0,693.0,1.0,265.0,1,0.7528838145446196,0.0
521,521,0.3724127923968148,0.4,0,404.0,820.0,0.0,536.0,1,0.10020732992160719,0.0
522,522,-0.515291578371202,-0.5,1,457.0,926.0,1.0,417.0,1,0.17206398023188008,0.0
523,523,-0.7381222329338073,-0.7,1,285.0,671.0,1.0,334.0,1,0.33814635341138766,0.0
524,524,-0.26301795772717296,-0.3,1,462.0,728.0,1.0,660.0,1,0.9607409677878265,0.0
525,525,0.11355420346593914,0.1,0,269.0,937.0,0.0,704.0,1,0.16257721858307495,0.0
526,526,-0.40905213683342323,-0.4,1,486.0,592.0,1.0,532.0,1,0.08282919681018808,0.0
527,527,0.9793436685032888,1.0,0,301.0,862.0,0.0,137.0,1,0.8635537862587407,0.0
528,528,-0.48638007406634354,-0.5,1,374.0,603.0,1.0,193.0,1,0.4368009438228806,0.0
529,529,0.9701769350310292,1.0,0,280.0,877.0,0.0,283.0,1,0.229034989167202,0.0
530,530,-0.6771756902877619,-0.7,1,458.0,681.0,1.0,301.0,1,0.37713726658677116,0.0
531,531,0.7322859585277399,0.7,0,407.0,981.0,0.0,322.0,1,0.3879203892069445,0.0
532,532,0.5551607969885513,0.6,0,293.0,871.0,0.0,276.0,1,0.6480139445870271,0.0
533,533,0.21158559618100115,0.2,0,301.0,767.0,0.0,582.0,1,0.9331882234000645,0.0
534,534,-0.8952649358647136,-0.9,1,389.0,801.0,1.0,230.0,1,0.013552617530320887,0.0
535,535,-0.5690318512839776,-0.6,1,263.0,690.0,1.0,147.0,1,0.8806503165334616,0.0
536,536,0.20269323377195136,0.2,0,405.0,634.0,0.0,581.0,1,0.06044338055490239,0.0
537,537,-0.41215166385906943,-0.4,1,323.0,899.0,1.0,608.0,1,0.1739796216216125,0.0
538,538,-0.68956893529256,-0.7,1,464.0,850.0,1.0,376.0,1,0.7855970283210507,0.0
539,539,0.2820122374053424,0.3,0,359.0,973.0,0.0,438.0,1,0.22429631091793023,0.0
540,540,-0.15602772535135823,-0.2,1,307.0,514.0,1.0,519.0,1,0.44503972737934394,0.0
541,541,-0.1901326684252096,-0.2,1,464.0,950.0,1.0,526.0,1,0.0641321322732411,0.0
542,542,0.9514225177447204,1.0,0,294.0,544.0,0.0,172.0,1,0.7364069923671792,0.0
543,543,-0.468193555364272,-0.5,1,467.0,949.0,1.0,424.0,1,0.4385335994206946,0.0
544,544,-0.6236470101818059,-0.6,1,417.0,870.0,1.0,253.0,1,0.3839816167209391,0.0
545,545,-0.4998215929397194,-0.5,1,410.0,589.0,1.0,321.0,1,0.32852328003775777,0.0
546,546,0.7864757742633981,0.8,0,493.0,542.0,0.0,215.0,1,0.5968199657733837,0.0
547,547,0.35025912720911867,0.4,0,351.0,825.0,0.0,384.0,1,0.34253208425646964,0.0
548,548,-0.5184579589601768,-0.5,1,253.0,570.0,1.0,327.0,1,0.26046105328844793,0.0
549,549,0.12968354134614257,0.1,0,354.0,710.0,0.0,496.0,1,0.8876149484558024,0.0
550,550,-0.9855935508291473,-1.0,1,322.0,778.0,1.0,280.0,1,0.3117695373736673,0.0
551,551,0.2217756861391329,0.2,0,482.0,625.0,0.0,203.0,1,0.4334548431305639,0.0
552,552,-0.8977557529235307,-0.9,1,382.0,732.0,1.0,156.0,1,0.7088108381138918,0.0
553,553,-0.48003928275423857,-0.5,1,463.0,949.0,1.0,448.0,1,0.5213975493635044,0.0
554,554,-0.8635695065712674,-0.9,1,439.0,535.0,1.0,346.0,1,0.6237153229472655,0.0
555,555,0.5269977512963171,0.5,0,276.0,510.0,0.0,254.0,1,0.14137431052077498,0.0
556,556,-0.3530914847503863,-0.4,1,317.0,700.0,1.0,1403.0,1,0.03505301962832352,0.0
557,557,0.31398826697176907,0.3,0,420.0,658.0,0.0,182.0,1,0.6114640855432456,0.0
558,558,-0.71269989802236,-0.7,1,301.0,950.0,1.0,289.0,1,0.2928468567778536,0.0
559,559,0.20182154910088324,0.2,0,384.0,651.0,0.0,445.0,1,0.17494946389785548,0.0
560,560,0.2190571015189502,0.2,0,332.0,948.0,0.0,430.0,1,0.23291335287158654,0.0
561,561,-0.24967502164774347,-0.2,1,294.0,680.0,1.0,506.0,1,0.8587538732340669,0.0
562,562,-0.5906320365683502,-0.6,1,325.0,927.0,1.0,528.0,1,0.020391193971881827,0.0
563,563,0.0268085294322864,0.0,0,302.0,590.0,0.0,1048.0,1,0.14728601744012582,0.0
564,564,0.25763634135434543,0.3,0,345.0,798.0,0.0,587.0,1,0.3318639776951997,0.0
565,565,-0.014038025008055177,-0.0,1,491.0,803.0,0.0,206.0,0,0.3123100719343487,0.0
566,566,-0.7025767107500092,-0.7,1,303.0,729.0,1.0,208.0,1,0.43844645564917495,0.0
567,567,0.12075923796553201,0.1,0,435.0,879.0,0.0,376.0,1,0.3999595083775245,0.0
568,568,0.3841304354130681,0.4,0,385.0,932.0,0.0,713.0,1,0.07389941535699829,0.0
569,569,0.5706515680824413,0.6,0,323.0,585.0,0.0,202.0,1,0.8034981760274824,0.0
570,570,-0.38442564823515624,-0.4,1,295.0,723.0,1.0,362.0,1,0.5596341331622503,0.0
571,571,-0.4525481237701525,-0.5,1,459.0,522.0,1.0,379.0,1,0.8400206765368554,0.0
572,572,-0.7168294085679621,-0.7,1,404.0,764.0,1.0,482.0,1,0.2731120848885772,0.0
573,573,0.8388608764938144,0.8,0,275.0,520.0,0.0,145.0,1,0.5839948330329201,0.0
574,574,-0.6742755166278,-0.7,1,260.0,534.0,1.0,276.0,1,0.46562256248469613,0.0
575,575,0.3190935850088481,0.3,0,402.0,961.0,0.0,267.0,1,0.11936078342401435,0.0
576,576,0.44534506242289185,0.4,0,262.0,860.0,0.0,338.0,1,0.4363340153234663,0.0
577,577,0.08010295102329335,0.1,0,273.0,647.0,0.0,690.0,1,0.5679631757236203,0.0
578,578,-0.031465448256293715,-0.0,1,396.0,857.0,0.0,527.0,0,0.2516000067657971,0.0
579,579,0.6728650793070781,0.7,0,345.0,604.0,0.0,181.0,1,0.9817614560885028,0.0
580,580,0.5728893024979771,0.6,0,275.0,796.0,0.0,299.0,1,0.792729156532065,0.0
581,581,0.7303483960292116,0.7,0,317.0,776.0,0.0,427.0,1,0.05375259192746318,0.0
582,582,0.5329658101168437,0.5,0,411.0,666.0,0.0,263.0,1,0.27852146742261275,0.0
583,583,-0.4400983200729822,-0.4,1,452.0,886.0,1.0,312.0,1,0.9502015617217417,0.0
584,584,0.8802734201155897,0.9,0,341.0,516.0,0.0,283.0,1,0.4844372476457719,0.0
585,585,-0.4248425357259282,-0.4,1,311.0,692.0,1.0,457.0,1,0.1384915113104117,0.0
586,586,0.8071146596192975,0.8,0,390.0,723.0,0.0,367.0,1,0.3618860280760058,0.0
587,587,0.7790363283140533,0.8,0,498.0,838.0,0.0,274.0,1,0.37441946441186613,0.0
588,588,0.4513545500525027,0.5,0,277.0,596.0,0.0,427.0,1,0.9746081471182539,0.0
589,589,-0.41749250999394416,-0.4,1,376.0,872.0,1.0,372.0,1,0.49722854917223025,0.0
590,590,0.5973335728376801,0.6,0,387.0,503.0,0.0,410.0,1,0.08492170179100056,0.0
591,591,-0.4956059400469124,-0.5,1,424.0,531.0,1.0,415.0,1,0.8901276769966743,0.0
592,592,-0.05239167017239321,-0.1,1,477.0,539.0,0.0,414.0,0,0.35698134331035636,0.0
593,593,-0.9914970716867464,-1.0,1,351.0,776.0,1.0,393.0,1,0.027077289024393103,0.0
594,594,-0.7266076724879731,-0.7,1,498.0,945.0,1.0,467.0,1,0.1407969941810887,0.0
595,595,-0.9758387163668756,-1.0,1,262.0,698.0,1.0,230.0,1,0.25079034436323744,0.0
596,596,-0.7477595483610189,-0.7,1,348.0,814.0,1.0,748.0,1,0.3048309983538736,0.0
597,597,-0.025934637025947005,-0.0,1,420.0,614.0,0.0,546.0,0,0.8158533813802854,0.0
598,598,-0.17973895602222711,-0.2,1,258.0,865.0,0.0,367.0,0,0.16094544865744398,0.0
599,599,-0.9286930350771256,-0.9,1,330.0,884.0,1.0,206.0,1,0.5709665730436304,0.0
600,600,-0.37225746772338475,-0.4,1,488.0,649.0,1.0,513.0,1,0.9748567547143271,0.0
601,601,0.46969315239930665,0.5,0,486.0,996.0,0.0,278.0,1,0.7997668930298699,0.0
602,602,0.7337876712939653,0.7,0,416.0,871.0,0.0,563.0,1,0.010859831271677667,0.0
603,603,-0.6972440485690863,-0.7,1,452.0,525.0,1.0,213.0,1,0.9817013294122515,0.0
604,604,-0.9957171587702704,-1.0,1,367.0,674.0,1.0,159.0,1,0.6003851394261039,0.0
605,605,0.990869489135511,1.0,0,296.0,858.0,0.0,266.0,1,0.41453114092109533,0.0
606,606,0.7526146476716598,0.8,0,437.0,662.0,0.0,271.0,1,0.36338174868544426,0.0
607,607,0.8894896288404037,0.9,0,368.0,948.0,0.0,304.0,1,0.13925215746849084,0.0
608,608,0.44660306915853587,0.4,0,341.0,539.0,0.0,500.0,1,0.08671350346330464,0.0
609,609,-0.7828670402421061,-0.8,1,432.0,526.0,1.0,242.0,1,0.8694742163288891,0.0
610,610,-0.04549400536411019,-0.0,1,362.0,635.0,0.0,213.0,0,0.5923836193872039,0.0
611,611,-0.06436766718831866,-0.1,1,350.0,933.0,1.0,347.0,1,0.730766588788202,0.0
612,612,0.22522655978161388,0.2,0,361.0,537.0,0.0,462.0,1,0.8967044290147644,0.0
613,613,0.944812430866864,0.9,0,397.0,942.0,0.0,391.0,1,0.01863304265311405,0.0
614,614,0.6753680050525472,0.7,0,468.0,540.0,0.0,232.0,1,0.7269706767067073,0.0
615,615,-0.7252102431772749,-0.7,1,395.0,932.0,1.0,343.0,1,0.36979127598139017,0.0
616,616,0.8200530338449417,0.8,0,452.0,926.0,0.0,372.0,1,0.4007909608552359,0.0
617,617,0.1352075155246415,0.1,0,441.0,966.0,0.0,463.0,1,0.5111022679702073,0.0
618,618,-0.8520610786566252,-0.9,1,419.0,648.0,1.0,273.0,1,0.8593627568334525,0.0
619,619,-0.45693476410365563,-0.5,1,330.0,935.0,1.0,255.0,1,0.7521644674420778,0.0
620,620,-0.37613436619777363,-0.4,1,295.0,624.0,1.0,521.0,1,0.02561250677364768,0.0
621,621,0.31545262813133723,0.3,0,346.0,757.0,0.0,377.0,1,0.7219783527851181,0.0
622,622,-0.401782579826536,-0.4,1,289.0,580.0,1.0,221.0,1,0.6549943842602245,0.0
623,623,-0.856773331712561,-0.9,1,349.0,551.0,1.0,160.0,1,0.35097513348049714,0.0
624,624,-0.37922172495818507,-0.4,1,295.0,993.0,1.0,842.0,1,0.10409113841440298,0.0
625,625,0.6843022187870413,0.7,0,470.0,814.0,0.0,196.0,1,0.7397279416246595,0.0
626,626,-0.9658026805436319,-1.0,1,427.0,725.0,1.0,358.0,1,0.04722107300600731,0.0
627,627,0.2823195673266552,0.3,0,431.0,856.0,0.0,343.0,1,0.33952793504579315,0.0
628,628,0.10069526230123138,0.1,0,280.0,755.0,0.0,815.0,1,0.08596997142636376,0.0
629,629,0.9458143243833301,0.9,0,349.0,598.0,0.0,253.0,1,0.8488445797027468,0.0
630,630,0.30804786394098804,0.3,0,450.0,963.0,0.0,197.0,1,0.9797339174523066,0.0
631,631,0.2826969847421601,0.3,0,440.0,977.0,0.0,243.0,1,0.6060334194476037,0.0
632,632,-0.42628932250515805,-0.4,1,269.0,916.0,1.0,635.0,1,0.44183120560057154,0.0
633,633,0.3135124429106446,0.3,0,370.0,602.0,0.0,378.0,1,0.8279137335761674,0.0
634,634,0.7109277069875992,0.7,0,430.0,517.0,0.0,213.0,1,0.954700361152427,0.0
635,635,0.8254640188838038,0.8,0,305.0,847.0,0.0,188.0,1,0.47827114029228823,0.0
636,636,0.20072014292268858,0.2,0,453.0,917.0,0.0,190.0,1,0.6134812518211162,0.0
637,637,-0.8815409672933991,-0.9,1,440.0,517.0,1.0,283.0,1,0.36845755766397725,0.0
638,638,-0.45282338757173535,-0.5,1,390.0,573.0,1.0,367.0,1,0.7328446548878986,0.0
639,639,0.7067375980738448,0.7,0,345.0,792.0,0.0,463.0,1,0.3560542216630299,0.0
640,640,0.24704604748140224,0.2,0,308.0,896.0,0.0,816.0,1,0.7837190104831533,0.0
641,641,0.09841328840478192,0.1,0,313.0,512.0,0.0,175.0,1,0.6705785843740976,0.0
642,642,0.24249076698246763,0.2,0,364.0,907.0,0.0,919.0,1,0.4503116445003843,0.0
643,643,0.3396076014500349,0.3,0,380.0,846.0,0.0,334.0,1,0.6478279527322242,0.0
644,644,-0.8680324733960727,-0.9,1,382.0,881.0,1.0,437.0,1,0.18373231509271282,0.0
645,645,0.19596379149536136,0.2,0,267.0,945.0,0.0,348.0,1,0.12878166679233982,0.0
646,646,0.3018540868691051,0.3,0,285.0,800.0,0.0,655.0,1,0.3550501372635535,0.0
647,647,0.4694529192962007,0.5,0,336.0,978.0,0.0,246.0,1,0.5909649421607663,0.0
648,648,0.15622936893385853,0.2,0,320.0,937.0,0.0,713.0,1,0.07122677326278248,0.0
649,649,0.13137461422146557,0.1,0,309.0,655.0,0.0,296.0,1,0.6313902932230403,0.0
650,650,-0.21815557657506046,-0.2,1,426.0,883.0,0.0,631.0,0,0.18593690382366956,0.0
651,651,-0.28403099498411466,-0.3,1,307.0,885.0,1.0,628.0,1,0.19765831053260963,0.0
652,652,0.21522150480284208,0.2,0,252.0,989.0,0.0,439.0,1,0.17076824379089683,0.0
653,653,-0.06603664407165333,-0.1,1,354.0,589.0,1.0,317.0,1,0.4811057136210457,0.0
654,654,0.7055956126994833,0.7,0,441.0,688.0,0.0,371.0,1,0.35180704781095573,0.0
655,655,-0.8446805950193026,-0.8,1,471.0,869.0,1.0,320.0,1,0.5668817037398881,0.0
656,656,-0.7046502620001851,-0.7,1,388.0,797.0,1.0,245.0,1,0.5169339116207351,0.0
657,657,-0.7930093191704437,-0.8,1,362.0,988.0,1.0,290.0,1,0.4095875496554391,0.0
658,658,0.14946202945298603,0.1,0,308.0,816.0,0.0,646.0,1,0.6240488793859972,0.0
659,659,0.21536929348965894,0.2,0,374.0,628.0,0.0,248.0,1,0.5770597988057592,0.0
660,660,0.8658256775395774,0.9,0,300.0,936.0,0.0,174.0,1,0.5916484828821542,0.0
661,661,0.5473816755766032,0.5,0,466.0,609.0,0.0,435.0,1,0.2179003294481875,0.0
662,662,-0.882514795783311,-0.9,1,407.0,677.0,1.0,216.0,1,0.814307526284217,0.0
663,663,-0.9224904119121209,-0.9,1,427.0,615.0,1.0,188.0,1,0.4853508606453909,0.0
664,664,0.6909728281257224,0.7,0,270.0,905.0,0.0,305.0,1,0.3420658586740962,0.0
665,665,-0.8706133546814392,-0.9,1,405.0,553.0,1.0,242.0,1,0.3792681692951668,0.0
666,666,0.6784811999976799,0.7,0,265.0,912.0,0.0,343.0,1,0.2636078497381259,0.0
667,667,0.7628712627329999,0.8,0,277.0,793.0,0.0,320.0,1,0.8334919898950826,0.0
668,668,-0.1303426627373636,-0.1,1,284.0,790.0,1.0,756.0,1,0.5437740762382821,0.0
669,669,-0.3466065388176507,-0.3,1,292.0,657.0,1.0,651.0,1,0.5370578019418473,0.0
670,670,0.8270336395789599,0.8,0,438.0,821.0,0.0,251.0,1,0.7387585024678661,0.0
671,671,-0.37713313254845415,-0.4,1,393.0,603.0,1.0,324.0,1,0.03120261014479997,0.0
672,672,0.311759105971833,0.3,0,337.0,837.0,0.0,366.0,1,0.8276016973567617,0.0
673,673,0.2820720619975585,0.3,0,456.0,758.0,0.0,376.0,1,0.4926886233865907,0.0
674,674,0.5941456182932212,0.6,0,494.0,823.0,0.0,383.0,1,0.13165339757173233,0.0
675,675,0.41997339460725547,0.4,0,398.0,704.0,0.0,568.0,1,0.11444401191858888,0.0
676,676,-0.7703544697361959,-0.8,1,414.0,500.0,1.0,296.0,1,0.28159696361740016,0.0
677,677,-0.5892137754045266,-0.6,1,417.0,721.0,1.0,422.0,1,0.8131357440825229,0.0
678,678,-0.4269295410436931,-0.4,1,311.0,575.0,1.0,304.0,1,0.3697735206998676,0.0
679,679,-0.2230364811177381,-0.2,1,455.0,664.0,1.0,281.0,1,0.9747344932570542,0.0
680,680,-0.709602032946179,-0.7,1,342.0,534.0,1.0,324.0,1,0.600099603034683,0.0
681,681,0.3795820740061353,0.4,0,323.0,982.0,0.0,395.0,1,0.2227934073315304,0.0
682,682,-0.14897719757123085,-0.1,1,257.0,893.0,1.0,1160.0,1,0.10790365562204862,0.0
683,683,0.28594231897732403,0.3,0,464.0,566.0,0.0,380.0,1,0.5689791332483249,0.0
684,684,0.02779409387412546,0.0,0,333.0,930.0,0.0,767.0,1,0.3496428525970203,0.0
685,685,-0.8733923577076592,-0.9,1,432.0,925.0,1.0,313.0,1,0.0442402936555405,0.0
686,686,0.9733678568291948,1.0,0,363.0,500.0,0.0,237.0,1,0.4844068677230664,0.0
687,687,0.5340371195271088,0.5,0,480.0,576.0,0.0,234.0,1,0.9847717878051583,0.0
688,688,0.01906309127809802,0.0,0,464.0,945.0,0.0,481.0,1,0.9807045520403488,0.0
689,689,0.38181547014783535,0.4,0,294.0,938.0,0.0,188.0,1,0.88177207363948,0.0
690,690,-0.6859755359651665,-0.7,1,492.0,571.0,1.0,317.0,1,0.35237117309888866,0.0
691,691,-0.5948460263306652,-0.6,1,382.0,928.0,1.0,550.0,1,0.8040823412374208,0.0
692,692,0.6491423841393527,0.6,0,489.0,983.0,0.0,318.0,1,0.39677079121917436,0.0
693,693,-0.41894378687736,-0.4,1,346.0,828.0,1.0,336.0,1,0.05122099751012332,0.0
694,694,0.7381594217731007,0.7,0,324.0,520.0,0.0,526.0,1,0.7456328848179844,0.0
695,695,0.7062896905382252,0.7,0,259.0,955.0,0.0,156.0,1,0.5621258277906522,0.0
696,696,-0.3187265060358906,-0.3,1,450.0,808.0,1.0,442.0,1,0.8876855473787506,0.0
697,697,-0.01966572772429731,-0.0,1,344.0,698.0,0.0,668.0,0,0.2545427695752983,0.0
698,698,-0.2539553285513416,-0.3,1,429.0,615.0,1.0,906.0,1,0.13976205256360918,0.0
699,699,-0.5351979542602823,-0.5,1,363.0,855.0,1.0,272.0,1,0.8071395553892998,0.0
700,700,0.6040693802174635,0.6,0,492.0,707.0,0.0,231.0,1,0.8183561093093122,0.0
701,701,-0.029362247656837814,-0.0,1,274.0,737.0,0.0,1099.0,0,0.17839112702607374,0.0
702,702,0.13948658910306788,0.1,0,431.0,596.0,0.0,263.0,1,0.8971545095217986,0.0
703,703,0.5181306175882023,0.5,0,377.0,519.0,0.0,174.0,1,0.8783839761368812,0.0
704,704,-0.9160204828244358,-0.9,1,457.0,717.0,1.0,276.0,1,0.538358046498243,0.0
705,705,-0.19112793666268857,-0.2,1,401.0,742.0,1.0,677.0,1,0.48993923792671223,0.0
706,706,0.963040119980429,1.0,0,280.0,620.0,0.0,110.0,1,0.5033973532050364,0.0
707,707,0.8601899809634668,0.9,0,294.0,846.0,0.0,290.0,1,0.4310087181244414,0.0
708,708,0.14762880336935758,0.1,0,330.0,742.0,1.0,498.0,0,0.7589079984660345,0.0
709,709,-0.22752764257094205,-0.2,1,285.0,786.0,1.0,759.0,1,0.24362246188967307,0.0
710,710,-0.9664320943640214,-1.0,1,271.0,514.0,1.0,325.0,1,0.035837576068813326,0.0
711,711,0.9213298976333515,0.9,0,389.0,512.0,0.0,139.0,1,0.5083191765133737,0.0
712,712,0.8638465516792275,0.9,0,433.0,822.0,0.0,315.0,1,0.6419556987520212,0.0
713,713,-0.03865746179647633,-0.0,1,316.0,528.0,0.0,506.0,0,0.28484235332808394,0.0
714,714,0.7638398239994597,0.8,0,452.0,870.0,0.0,358.0,1,0.6073764441621893,0.0
715,715,-0.5369126567602922,-0.5,1,355.0,937.0,1.0,528.0,1,0.1101915995855457,0.0
716,716,-0.7112463521884576,-0.7,1,499.0,849.0,1.0,472.0,1,0.11789888944266425,0.0
717,717,0.35407972642549645,0.4,0,490.0,563.0,0.0,297.0,1,0.9478345517528161,0.0
718,718,-0.41672185428576936,-0.4,1,360.0,897.0,1.0,473.0,1,0.07120933232278304,0.0
719,719,0.9323974354026152,0.9,0,357.0,601.0,0.0,182.0,1,0.6362683340393558,0.0
720,720,0.22190180366185253,0.2,0,352.0,550.0,0.0,508.0,1,0.29357537137401113,0.0
721,721,0.9081414613679444,0.9,0,438.0,640.0,0.0,282.0,1,0.4912998024125186,0.0
722,722,0.5783575356356356,0.6,0,422.0,792.0,0.0,436.0,1,0.09514859390307107,0.0
723,723,-0.9744595940804408,-1.0,1,251.0,874.0,1.0,195.0,1,0.8201895018187012,0.0
724,724,0.9575147812087641,1.0,0,304.0,709.0,0.0,157.0,1,0.38653362404299696,0.0
725,725,-0.8982732660950292,-0.9,1,393.0,665.0,1.0,222.0,1,0.609148184731332,0.0
726,726,-0.5064564521910853,-0.5,1,352.0,627.0,1.0,1161.0,1,0.021597864406811662,0.0
727,727,0.5367699353517306,0.5,0,384.0,877.0,0.0,209.0,1,0.8925539897656202,0.0
728,728,0.5552660901524185,0.6,0,475.0,730.0,0.0,235.0,1,0.4890825216260465,0.0
729,729,0.2373621686467704,0.2,0,329.0,556.0,0.0,225.0,1,0.9457373638224464,0.0
730,730,-0.9323022372885843,-0.9,1,425.0,557.0,1.0,128.0,1,0.651293172751593,0.0
731,731,0.6485457076964585,0.6,0,289.0,577.0,0.0,154.0,1,0.8557072561844612,0.0
732,732,0.9379301582373503,0.9,0,353.0,839.0,0.0,248.0,1,0.21850256502837817,0.0
733,733,0.09869505050842076,0.1,0,343.0,827.0,0.0,460.0,1,0.8432251808776143,0.0
734,734,0.7663709126934566,0.8,0,472.0,550.0,0.0,348.0,1,0.02480675375773911,0.0
735,735,-0.9094566337571306,-0.9,1,311.0,704.0,1.0,305.0,1,0.621521964715757,0.0
736,736,0.6721965730591726,0.7,0,401.0,832.0,0.0,337.0,1,0.14196501693189534,0.0
737,737,0.4285849575661431,0.4,0,495.0,626.0,0.0,259.0,1,0.5916713039716346,0.0
738,738,0.9644696137554207,1.0,0,479.0,538.0,0.0,193.0,1,0.5109312318100293,0.0
739,739,0.7775649431526275,0.8,0,309.0,996.0,0.0,295.0,1,0.3021420614727839,0.0
740,740,-0.4469770045444721,-0.4,1,398.0,980.0,1.0,232.0,1,0.7727585639370826,0.0
741,741,0.6819405731271322,0.7,0,401.0,890.0,0.0,369.0,1,0.33233978148622345,0.0
742,742,-0.08346116418840732,-0.1,1,473.0,587.0,1.0,610.0,1,0.5358769107685316,0.0
743,743,0.07112221649328987,0.1,0,303.0,694.0,0.0,1173.0,1,0.3649252450700353,0.0
744,744,-0.5287489057259274,-0.5,1,392.0,741.0,1.0,277.0,1,0.6581358889181578,0.0
745,745,-0.6778509408566711,-0.7,1,388.0,896.0,1.0,406.0,1,0.07283600151842762,0.0
746,746,0.03420990559594417,0.0,0,289.0,886.0,0.0,435.0,1,0.488448776854973,0.0
747,747,-0.6874432464613287,-0.7,1,488.0,866.0,1.0,316.0,1,0.04455148221057015,0.0
748,748,-0.35820220965955385,-0.4,1,382.0,828.0,1.0,390.0,1,0.8272456204707879,0.0
749,749,-0.09828368438411106,-0.1,1,261.0,753.0,1.0,1356.0,1,0.19624565081556955,0.0
750,750,0.8890980104912087,0.9,0,458.0,532.0,0.0,450.0,1,0.12459948710513591,0.0
751,751,0.5607601549524168,0.6,0,444.0,735.0,0.0,451.0,1,0.2808521390319254,0.0
752,752,0.5689091477553607,0.6,0,311.0,595.0,0.0,344.0,1,0.31567364986433344,0.0
753,753,-0.9409761384199149,-0.9,1,491.0,668.0,1.0,181.0,1,0.8221539118738131,0.0
754,754,0.6292235428398856,0.6,0,313.0,813.0,0.0,274.0,1,0.8663301804438925,0.0
755,755,-0.9857561983360981,-1.0,1,310.0,730.0,1.0,180.0,1,0.9752783052263811,0.0
756,756,-0.9744826691641277,-1.0,1,272.0,777.0,1.0,131.0,1,0.717417750748203,0.0
757,757,0.16378252886831057,0.2,0,476.0,867.0,0.0,607.0,1,0.6802631353270558,0.0
758,758,0.492701891659197,0.5,0,253.0,822.0,0.0,275.0,1,0.8877274270085136,0.0
759,759,0.9652168231224969,1.0,0,468.0,691.0,0.0,341.0,1,0.45268782871390556,0.0
760,760,0.2539381837754606,0.3,0,381.0,923.0,0.0,416.0,1,0.7330871214523705,0.0
761,761,0.7546945488530903,0.8,0,302.0,647.0,0.0,241.0,1,0.4286975727572503,0.0
762,762,-0.051794237620246264,-0.1,1,307.0,670.0,0.0,243.0,0,0.5841479633664278,0.0
763,763,0.920176145605125,0.9,0,444.0,983.0,0.0,213.0,1,0.4044331380473699,0.0
764,764,-0.495674397326066,-0.5,1,439.0,518.0,1.0,653.0,1,0.3770381483884373,0.0
765,765,0.4337467237787176,0.4,0,391.0,923.0,0.0,376.0,1,0.10926002360814369,0.0
766,766,-0.4479234589619554,-0.4,1,480.0,994.0,1.0,406.0,1,0.45859727971994746,0.0
767,767,0.875941441451586,0.9,0,377.0,925.0,0.0,118.0,1,0.9180809547894137,0.0
768,768,0.2107427348990094,0.2,0,461.0,728.0,0.0,401.0,1,0.029867228930636536,0.0
769,769,-0.660359781474039,-0.7,1,402.0,898.0,1.0,330.0,1,0.38241720301793014,0.0
770,770,0.18936651712483554,0.2,0,269.0,643.0,0.0,598.0,1,0.3109724592475409,0.0
771,771,-0.5409867484636703,-0.5,1,370.0,590.0,1.0,350.0,1,0.411817419236151,0.0
772,772,0.30874450540478815,0.3,0,267.0,764.0,0.0,239.0,1,0.5194152051475116,0.0
773,773,-0.6997756174496417,-0.7,1,437.0,785.0,1.0,358.0,1,0.3094074238371416,0.0
774,774,0.18316717473865984,0.2,0,377.0,963.0,0.0,200.0,1,0.6006197264886791,0.0
775,775,0.1615562591662385,0.2,0,357.0,627.0,0.0,546.0,1,0.2915022714355435,0.0
776,776,-0.398220601686081,-0.4,1,495.0,905.0,1.0,200.0,1,0.5289966415189975,0.0
777,777,0.016347286612542256,0.0,0,472.0,684.0,0.0,504.0,1,0.9181311692484213,0.0
778,778,0.6671265499436285,0.7,0,366.0,807.0,0.0,167.0,1,0.07566201167373621,0.0
779,779,0.05548705001007548,0.1,0,255.0,761.0,0.0,364.0,1,0.5087246067741247,0.0
780,780,-0.6867882827195404,-0.7,1,337.0,805.0,1.0,338.0,1,0.3914949374721495,0.0
781,781,-0.24214513794852888,-0.2,1,483.0,512.0,1.0,655.0,1,0.34063922825862925,0.0
782,782,0.44064376129423977,0.4,0,341.0,916.0,0.0,303.0,1,0.9384098485190996,0.0
783,783,-0.8425015323733134,-0.8,1,296.0,603.0,1.0,281.0,1,0.5662470926255225,0.0
784,784,-0.12471121484931813,-0.1,1,252.0,822.0,0.0,436.0,0,0.815877593096148,0.0
785,785,0.957394303741923,1.0,0,417.0,606.0,0.0,137.0,1,0.9044586507731855,0.0
786,786,-0.011039430955805063,-0.0,1,260.0,946.0,1.0,404.0,1,0.5588515331984704,0.0
787,787,0.2618730006900445,0.3,0,343.0,645.0,0.0,402.0,1,0.37879574773917857,0.0
788,788,-0.8893099071192623,-0.9,1,377.0,742.0,1.0,161.0,1,0.4292320210318634,0.0
789,789,0.5240989399131188,0.5,0,283.0,618.0,0.0,349.0,1,0.5069151415691214,0.0
790,790,-0.7173128857685882,-0.7,1,472.0,736.0,1.0,382.0,1,0.2850993098787029,0.0
791,791,-0.46940118797158537,-0.5,1,407.0,772.0,1.0,301.0,1,0.13880786586724048,0.0
792,792,-0.9218660191252386,-0.9,1,404.0,971.0,1.0,145.0,1,0.6163597754209804,0.0
793,793,0.08116714300290351,0.1,0,451.0,818.0,0.0,361.0,1,0.5574540506289938,0.0
794,794,0.6158691568316597,0.6,0,331.0,837.0,0.0,312.0,1,0.06774454818612607,0.0
795,795,0.37716973303933,0.4,0,484.0,824.0,0.0,502.0,1,0.015499416775699215,0.0
796,796,0.12528278275635563,0.1,0,412.0,632.0,0.0,856.0,1,0.35014825045654874,0.0
797,797,-0.5127724906055149,-0.5,1,396.0,840.0,1.0,434.0,1,0.7715837554026405,0.0
798,798,-0.4864087385371092,-0.5,1,432.0,706.0,1.0,552.0,1,0.25501775031516416,0.0
799,799,-0.8513383919035677,-0.9,1,284.0,593.0,1.0,343.0,1,0.9188923888237992,0.0
800,800,-0.18384149083272638,-0.2,1,322.0,793.0,1.0,1505.0,1,0.5867967698163992,0.0
801,801,-0.678896162848222,-0.7,1,480.0,712.0,1.0,348.0,1,0.9822318730496712,0.0
802,802,0.1513456938041311,0.2,0,317.0,711.0,0.0,452.0,1,0.4835516991640457,0.0
803,803,-0.6729995802329587,-0.7,1,381.0,968.0,1.0,261.0,1,0.31952580431488653,0.0
804,804,0.7651717733098762,0.8,0,266.0,692.0,0.0,172.0,1,0.5499386096680642,0.0
805,805,-0.7900847354472567,-0.8,1,299.0,640.0,1.0,161.0,1,0.3647838337128735,0.0
806,806,0.8180371632919836,0.8,0,311.0,686.0,0.0,293.0,1,0.5980305735337832,0.0
807,807,-0.644760700981335,-0.6,1,371.0,630.0,1.0,439.0,1,0.8446036944051346,0.0
808,808,0.6762778224901371,0.7,0,472.0,658.0,0.0,230.0,1,0.023291995829983425,0.0
809,809,-0.18143576642654513,-0.2,1,455.0,988.0,1.0,1697.0,1,0.10130145279535119,0.0
810,810,0.8554543744605001,0.9,0,343.0,791.0,0.0,236.0,1,0.5715137320893465,0.0
811,811,0.8208603083778196,0.8,0,440.0,528.0,0.0,172.0,1,0.45805689187467613,0.0
812,812,0.7241720616151006,0.7,0,370.0,775.0,0.0,215.0,1,0.8021553279912722,0.0
813,813,0.6752985274708356,0.7,0,399.0,880.0,0.0,461.0,1,0.4396787057253112,0.0
814,814,-0.07156802741952895,-0.1,1,357.0,618.0,0.0,635.0,0,0.5392088123872716,0.0
815,815,-0.3445993553314559,-0.3,1,267.0,775.0,1.0,988.0,1,0.5135908296605958,0.0
816,816,0.1661403303987783,0.2,0,375.0,714.0,0.0,311.0,1,0.28506203514742934,0.0
817,817,0.943735975818806,0.9,0,398.0,997.0,0.0,135.0,1,0.7133019812469303,0.0
818,818,-0.20977228730165187,-0.2,1,498.0,580.0,1.0,772.0,1,0.09153290247123635,0.0
819,819,-0.9022449680281013,-0.9,1,440.0,939.0,1.0,241.0,1,0.8120472588487109,0.0
820,820,0.12016371977238927,0.1,0,396.0,996.0,0.0,208.0,1,0.6155332912066293,0.0
821,821,0.26749197443365524,0.3,0,316.0,690.0,0.0,524.0,1,0.15325368674614537,0.0
822,822,0.7269971984869497,0.7,0,454.0,765.0,0.0,251.0,1,0.29436035340416933,0.0
823,823,0.9010567393636351,0.9,0,493.0,888.0,0.0,209.0,1,0.8178352170144294,0.0
824,824,0.4257078792389637,0.4,0,289.0,644.0,0.0,367.0,1,0.5911624407323661,0.0
825,825,0.24827016727618623,0.2,0,435.0,517.0,0.0,388.0,1,0.3194351409662045,0.0
826,826,-0.8194309663161099,-0.8,1,343.0,697.0,1.0,280.0,1,0.11526292767185264,0.0
827,827,-0.7983413285157046,-0.8,1,345.0,919.0,1.0,266.0,1,0.30879938953812724,0.0
828,828,-0.5391786777942882,-0.5,1,314.0,803.0,1.0,233.0,1,0.36551011122502597,0.0
829,829,0.7548127288117283,0.8,0,431.0,600.0,0.0,249.0,1,0.6775345979207353,0.0
830,830,0.9157212148076517,0.9,0,366.0,647.0,0.0,167.0,1,0.6439316879199934,0.0
831,831,-0.5468634911611736,-0.5,1,468.0,815.0,1.0,437.0,1,0.3263219155027559,0.0
832,832,0.10459433662150164,0.1,0,433.0,800.0,0.0,427.0,1,0.6054726101803293,0.0
833,833,9.981592022545449e-05,0.0,0,369.0,584.0,0.0,1167.0,1,0.07418601640262057,0.0
834,834,-0.6264657082897842,-0.6,1,392.0,849.0,1.0,329.0,1,0.43363791878935887,0.0
835,835,-0.944148886129359,-0.9,1,269.0,674.0,1.0,247.0,1,0.9347893629382146,0.0
836,836,-0.9857327855287523,-1.0,1,319.0,593.0,1.0,198.0,1,0.3066528200697688,0.0
837,837,0.6378310050297731,0.6,0,281.0,897.0,0.0,142.0,1,0.26842306189862863,0.0
838,838,-0.7742467012192005,-0.8,1,277.0,595.0,1.0,368.0,1,0.105160586258493,0.0
839,839,-0.6041937771879169,-0.6,1,330.0,840.0,1.0,290.0,1,0.314902304084103,0.0
840,840,-0.7460347899156765,-0.7,1,457.0,769.0,1.0,314.0,1,0.41174261594501904,0.0
841,841,0.9241640166704406,0.9,0,401.0,887.0,0.0,422.0,1,0.35149086632360094,0.0
842,842,-0.7112671615865298,-0.7,1,412.0,805.0,1.0,183.0,1,0.4004480045096742,0.0
843,843,0.8305566791031842,0.8,0,400.0,545.0,0.0,145.0,1,0.7378271193988788,0.0
844,844,-0.506040613312728,-0.5,1,499.0,808.0,1.0,283.0,1,0.15745048343831203,0.0
845,845,0.45861045856444527,0.5,0,474.0,598.0,0.0,258.0,1,0.7083375080867759,0.0
846,846,0.6575721102206009,0.7,0,376.0,998.0,0.0,496.0,1,0.170620401109565,0.0
847,847,-0.2740038111402896,-0.3,1,276.0,502.0,0.0,382.0,0,0.43690657203203365,0.0
848,848,-0.083870555465966,-0.1,1,278.0,768.0,1.0,354.0,1,0.25733483572535,0.0
849,849,0.3144425274528162,0.3,0,377.0,550.0,0.0,443.0,1,0.21538394566380337,0.0
850,850,0.44781677988003765,0.4,0,270.0,782.0,0.0,368.0,1,0.7308641437252158,0.0
851,851,-0.2997305643265491,-0.3,1,378.0,699.0,1.0,373.0,1,0.6081802772417728,0.0
852,852,-0.7738167935947777,-0.8,1,326.0,998.0,1.0,596.0,1,0.03170451494689408,0.0
853,853,0.9724980752764674,1.0,0,375.0,892.0,0.0,123.0,1,0.9649059061947094,0.0
854,854,-0.0535626290642246,-0.1,1,446.0,578.0,0.0,926.0,0,0.1772525286701927,0.0
855,855,0.6178157937433806,0.6,0,434.0,758.0,0.0,248.0,1,0.46050710365739556,0.0
856,856,-0.15062796401542622,-0.2,1,383.0,998.0,0.0,539.0,0,0.82819672639863,0.0
857,857,-0.9435682762271747,-0.9,1,472.0,872.0,1.0,466.0,1,0.06501055655882526,0.0
858,858,-0.7979296561648361,-0.8,1,342.0,741.0,1.0,217.0,1,0.5964591444883355,0.0
859,859,-0.7827609180552288,-0.8,1,349.0,611.0,1.0,350.0,1,0.04343889596987782,0.0
860,860,-0.34930810921275657,-0.3,1,479.0,829.0,1.0,392.0,1,0.8489324058199063,0.0
861,861,0.682612205145898,0.7,0,463.0,577.0,0.0,230.0,1,0.5478558955196314,0.0
862,862,0.6426884761285436,0.6,0,264.0,802.0,0.0,184.0,1,0.5807412540505715,0.0
863,863,-0.5381471234667763,-0.5,1,316.0,912.0,1.0,422.0,1,0.6478444024641595,0.0
864,864,-0.04394015706951593,-0.0,1,278.0,619.0,1.0,393.0,1,0.8845147221416912,0.0
865,865,0.029993498936486507,0.0,0,387.0,673.0,0.0,260.0,1,0.7210071372410686,0.0
866,866,0.5763423927289006,0.6,0,339.0,833.0,0.0,338.0,1,0.05518869171942842,0.0
867,867,-0.12355454192112236,-0.1,1,483.0,670.0,1.0,527.0,1,0.9969955436369926,0.0
868,868,-0.23117923672515528,-0.2,1,290.0,519.0,1.0,441.0,1,0.02535000726383041,0.0
869,869,0.37079647139382854,0.4,0,303.0,935.0,0.0,422.0,1,0.032502052821040794,0.0
870,870,0.41535888245845665,0.4,0,337.0,753.0,0.0,540.0,1,0.09942621324195777,0.0
871,871,-0.011792969474903492,-0.0,1,385.0,965.0,0.0,320.0,0,0.6497519077450855,0.0
872,872,0.7800350329131767,0.8,0,474.0,993.0,0.0,363.0,1,0.984689316015044,0.0
873,873,-0.9178112047194058,-0.9,1,472.0,735.0,1.0,313.0,1,0.029524710810627353,0.0
874,874,0.35474274571681175,0.4,0,388.0,848.0,0.0,294.0,1,0.30639481911490607,0.0
875,875,-0.5631289739417966,-0.6,1,400.0,685.0,1.0,335.0,1,0.816415919613341,0.0
876,876,0.15733831695610867,0.2,0,330.0,962.0,0.0,1138.0,1,0.1954610855843104,0.0
877,877,-0.23755302586370508,-0.2,1,428.0,846.0,0.0,556.0,0,0.5882069542552208,0.0
878,878,-0.8323512374212849,-0.8,1,487.0,635.0,1.0,358.0,1,0.19843582825301387,0.0
879,879,-0.4031074869171649,-0.4,1,321.0,744.0,1.0,895.0,1,0.3198718277523842,0.0
880,880,0.8568283135569745,0.9,0,283.0,825.0,0.0,222.0,1,0.9506596025557246,0.0
881,881,0.2572382047306194,0.3,0,461.0,603.0,0.0,266.0,1,0.967571263843352,0.0
882,882,-0.6176042371598229,-0.6,1,342.0,994.0,1.0,304.0,1,0.7052915527365609,0.0
883,883,-0.6705858082517318,-0.7,1,479.0,572.0,1.0,239.0,1,0.9566399308741075,0.0
884,884,0.13725704060471666,0.1,0,306.0,914.0,0.0,310.0,1,0.4918348717064345,0.0
885,885,-0.011018323918392525,-0.0,1,431.0,708.0,0.0,301.0,0,0.9968078478251134,0.0
886,886,-0.21879851862284028,-0.2,1,442.0,750.0,1.0,1108.0,1,0.06290061332943686,0.0
887,887,-0.6178337870286295,-0.6,1,261.0,869.0,1.0,280.0,1,0.3063417512838267,0.0
888,888,0.9223490493822566,0.9,0,329.0,975.0,0.0,336.0,1,0.1710085739033198,0.0
889,889,0.516902681416036,0.5,0,296.0,912.0,0.0,332.0,1,0.5052989933453484,0.0
890,890,-0.0710404090387231,-0.1,1,433.0,644.0,0.0,463.0,0,0.3821819813786693,0.0
891,891,-0.27632561678785894,-0.3,1,255.0,517.0,1.0,1188.0,1,0.024893970247258257,0.0
892,892,-0.12647458882697404,-0.1,1,267.0,764.0,0.0,399.0,0,0.7421578592968022,0.0
893,893,0.45836992748673455,0.5,0,376.0,954.0,0.0,170.0,1,0.7039216333676793,0.0
894,894,0.6849373729508654,0.7,0,360.0,520.0,0.0,180.0,1,0.9391031487338806,0.0
895,895,-0.9280994521003303,-0.9,1,440.0,546.0,1.0,284.0,1,0.8294509720977485,0.0
896,896,0.056769418864163645,0.1,0,395.0,652.0,0.0,603.0,1,0.3947467114795693,0.0
897,897,0.6242565364425756,0.6,0,354.0,664.0,0.0,402.0,1,0.35573174827655263,0.0
898,898,0.5827525649654783,0.6,0,476.0,535.0,0.0,249.0,1,0.18424133573730161,0.0
899,899,0.7955617865260793,0.8,0,472.0,722.0,0.0,276.0,1,0.32436755990622745,0.0
900,900,-0.5261828880075636,-0.5,1,403.0,832.0,1.0,385.0,1,0.373908721421663,0.0
901,901,-0.5066497335797764,-0.5,1,340.0,727.0,1.0,573.0,1,0.09087090016275556,0.0
902,902,0.4418586104166857,0.4,0,404.0,612.0,0.0,364.0,1,0.414802847684391,0.0
903,903,-0.7133259205155904,-0.7,1,343.0,853.0,1.0,264.0,1,0.6276720431559372,0.0
904,904,0.8497226343517923,0.8,0,313.0,965.0,0.0,132.0,1,0.676809233498706,0.0
905,905,-0.27588742704786395,-0.3,1,428.0,972.0,1.0,790.0,1,0.3213727524593054,0.0
906,906,-0.639089528515618,-0.6,1,381.0,524.0,1.0,175.0,1,0.466379671930644,0.0
907,907,-0.09310537447814293,-0.1,1,295.0,746.0,0.0,589.0,0,0.9312859332539426,0.0
908,908,-0.1346678019709746,-0.1,1,401.0,893.0,1.0,356.0,1,0.8538515914601106,0.0
909,909,-0.5096133931403097,-0.5,1,300.0,985.0,1.0,515.0,1,0.23819087146237916,0.0
910,910,0.5145606159839256,0.5,0,403.0,613.0,0.0,384.0,1,0.04902978882317488,0.0
911,911,0.1465770365181831,0.1,0,381.0,665.0,0.0,284.0,1,0.1876349940268014,0.0
912,912,-0.8175452000954604,-0.8,1,364.0,912.0,1.0,224.0,1,0.4421363132025117,0.0
913,913,0.14053934944430235,0.1,0,340.0,985.0,0.0,615.0,1,0.4070010628237908,0.0
914,914,-0.1677882148285723,-0.2,1,350.0,833.0,0.0,897.0,0,0.13405678839946866,0.0
915,915,-0.7096008359358845,-0.7,1,311.0,854.0,1.0,275.0,1,0.5765705672545156,0.0
916,916,-0.17227974166580662,-0.2,1,391.0,723.0,1.0,866.0,1,0.6936604107907554,0.0
917,917,-0.07793641713903932,-0.1,1,258.0,822.0,0.0,310.0,0,0.6474801449260666,0.0
918,918,-0.7039413788199225,-0.7,1,325.0,615.0,1.0,410.0,1,0.053905810214677,0.0
919,919,0.02419703424156361,0.0,0,309.0,671.0,0.0,210.0,1,0.5620916883437439,0.0
920,920,0.2870595521450736,0.3,0,359.0,597.0,0.0,354.0,1,0.8204986350484005,0.0
921,921,-0.28753441369405763,-0.3,1,407.0,804.0,1.0,379.0,1,0.02985434342558857,0.0
922,922,-0.7076667606371061,-0.7,1,369.0,929.0,1.0,462.0,1,0.0702417967152108,0.0
923,923,0.9138459115936028,0.9,0,493.0,630.0,0.0,257.0,1,0.3448565865445251,0.0
924,924,-0.5939929234656098,-0.6,1,363.0,550.0,1.0,737.0,1,0.1505509720083389,0.0
925,925,-0.12269491256542286,-0.1,1,358.0,720.0,0.0,242.0,0,0.9407588165493654,0.0
926,926,-0.3726787366854101,-0.4,1,463.0,752.0,1.0,415.0,1,0.933778346769855,0.0
927,927,0.2293485068052319,0.2,0,451.0,995.0,0.0,304.0,1,0.26753997805522567,0.0
928,928,0.8866188383232085,0.9,0,418.0,781.0,0.0,291.0,1,0.33934456101809285,0.0
929,929,-0.48847852608285813,-0.5,1,425.0,952.0,1.0,373.0,1,0.14313712474564433,0.0
930,930,0.27936245624375844,0.3,0,432.0,541.0,0.0,697.0,1,0.09606784114463096,0.0
931,931,-0.6519795550104293,-0.7,1,358.0,563.0,1.0,409.0,1,0.42988517722760067,0.0
932,932,0.7339740442135338,0.7,0,285.0,836.0,0.0,339.0,1,0.17560310446838012,0.0
933,933,0.5800541059578543,0.6,0,315.0,628.0,0.0,147.0,1,0.8386048005159261,0.0
934,934,-0.7727809960463514,-0.8,1,486.0,537.0,1.0,267.0,1,0.23193256594961853,0.0
935,935,0.0856191572911762,0.1,0,458.0,739.0,1.0,643.0,0,0.107874411938365,0.0
936,936,-0.7517322656239291,-0.8,1,271.0,592.0,1.0,347.0,1,0.15599823718416994,0.0
937,937,-0.5207712721614313,-0.5,1,473.0,664.0,1.0,283.0,1,0.45253893452470484,0.0
938,938,-0.9151271139007224,-0.9,1,444.0,667.0,1.0,369.0,1,0.16472687743164094,0.0
939,939,-0.3485186823099975,-0.3,1,256.0,702.0,1.0,642.0,1,0.15682782571050413,0.0
940,940,-0.25068728417313424,-0.3,1,361.0,745.0,0.0,384.0,0,0.9163663595087161,0.0
941,941,-0.01959743119838131,-0.0,1,452.0,723.0,0.0,815.0,0,0.22367673293020096,0.0
942,942,0.7300661515518547,0.7,0,310.0,718.0,0.0,382.0,1,0.15642877460275162,0.0
943,943,-0.09069957928468786,-0.1,1,365.0,920.0,1.0,895.0,1,0.2686282467374992,0.0
944,944,0.4864785526934565,0.5,0,315.0,821.0,0.0,204.0,1,0.298137654021557,0.0
945,945,-0.8754074454954723,-0.9,1,424.0,764.0,1.0,92.0,1,0.664107417938809,0.0
946,946,0.883799244059635,0.9,0,380.0,799.0,0.0,171.0,1,0.8552564500812994,0.0
947,947,0.009788344581798336,0.0,0,343.0,792.0,1.0,465.0,0,0.3926444156157963,0.0
948,948,0.750814821135491,0.8,0,338.0,896.0,0.0,186.0,1,0.6107482354726793,0.0
949,949,-0.9964229823471362,-1.0,1,444.0,879.0,1.0,247.0,1,0.48293084276473364,0.0
950,950,0.3022436973879732,0.3,0,425.0,709.0,0.0,226.0,1,0.965894257709894,0.0
951,951,-0.9106559902751108,-0.9,1,257.0,548.0,1.0,205.0,1,0.8620937428361046,0.0
952,952,-0.5942891365409142,-0.6,1,292.0,876.0,1.0,482.0,1,0.46425161844011886,0.0
953,953,0.5508635979960559,0.6,0,305.0,611.0,0.0,334.0,1,0.9223663376542753,0.0
954,954,-0.8283600047776156,-0.8,1,270.0,515.0,1.0,275.0,1,0.4834889490157315,0.0
955,955,-0.14934510210168628,-0.1,1,387.0,745.0,1.0,308.0,1,0.6457295813023401,0.0
956,956,-0.47971049067467697,-0.5,1,465.0,600.0,1.0,755.0,1,0.02240022874720149,0.0
957,957,0.19284229517809415,0.2,0,326.0,843.0,0.0,591.0,1,0.7141540410261042,0.0
958,958,0.23450096472770365,0.2,0,305.0,538.0,0.0,537.0,1,0.24478113814748192,0.0
959,959,-0.46795827035818127,-0.5,1,388.0,708.0,1.0,204.0,1,0.8263709190498101,0.0
960,960,-0.18834130169474306,-0.2,1,250.0,705.0,1.0,285.0,1,0.7868288089351161,0.0
961,961,0.18391455165434456,0.2,0,403.0,607.0,0.0,600.0,1,0.27704384040449204,0.0
962,962,-0.5989195825517746,-0.6,1,366.0,636.0,1.0,558.0,1,0.8607282978116609,0.0
963,963,-0.5648749145398269,-0.6,1,323.0,684.0,1.0,463.0,1,0.27664973156231953,0.0
964,964,0.07908107951966081,0.1,0,358.0,934.0,0.0,528.0,1,0.3424418463236446,0.0
965,965,0.935510066847917,0.9,0,367.0,520.0,0.0,163.0,1,0.5691159570092741,0.0
966,966,-0.820929915295278,-0.8,1,253.0,767.0,1.0,210.0,1,0.7388707610279076,0.0
967,967,-0.6744185812350878,-0.7,1,330.0,604.0,1.0,176.0,1,0.6831091244988621,0.0
968,968,0.30119924442026313,0.3,0,265.0,929.0,0.0,226.0,1,0.6981041082078188,0.0
969,969,0.8484363399878161,0.8,0,283.0,928.0,0.0,209.0,1,0.29282624893479414,0.0
970,970,-0.869519607868227,-0.9,1,427.0,999.0,1.0,164.0,1,0.5000236679709561,0.0
971,971,0.6784874831033656,0.7,0,461.0,801.0,0.0,208.0,1,0.9990676295560958,0.0
972,972,0.7974495099447552,0.8,0,469.0,592.0,0.0,129.0,1,0.6487231240105791,0.0
973,973,0.49872079582871276,0.5,0,368.0,684.0,0.0,788.0,1,0.041351692818320185,0.0
974,974,0.3600119025041959,0.4,0,468.0,998.0,0.0,324.0,1,0.3129341455762503,0.0
975,975,0.7966050849444117,0.8,0,405.0,588.0,0.0,287.0,1,0.9606832216309862,0.0
976,976,0.5116122648981609,0.5,0,417.0,558.0,0.0,135.0,1,0.851322010640474,0.0
977,977,-0.01726478916276819,-0.0,1,288.0,992.0,0.0,410.0,0,0.6727728269630806,0.0
978,978,0.07831495338116357,0.1,0,254.0,642.0,0.0,1134.0,1,0.7158967380071914,0.0
979,979,-0.7688305032933869,-0.8,1,491.0,556.0,1.0,193.0,1,0.6826055167925074,0.0
980,980,0.335759543760338,0.3,0,333.0,562.0,0.0,395.0,1,0.08576146084291703,0.0
981,981,0.9149980483924769,0.9,0,392.0,527.0,0.0,341.0,1,0.018834343749774107,0.0
982,982,-0.6232332032756349,-0.6,1,450.0,889.0,1.0,231.0,1,0.7613173443714202,0.0
983,983,0.4932820535477169,0.5,0,254.0,677.0,0.0,239.0,1,0.7210325603651535,0.0
984,984,0.599931964180134,0.6,0,413.0,898.0,0.0,229.0,1,0.4910695412438739,0.0
985,985,0.20444390030782,0.2,0,266.0,798.0,0.0,326.0,1,0.87901637797841,0.0
986,986,-0.008250221334960894,-0.0,1,324.0,675.0,0.0,611.0,0,0.5991456734466319,0.0
987,987,-0.8033195668226298,-0.8,1,498.0,677.0,1.0,205.0,1,0.8214043210826344,0.0
988,988,0.8057965012452095,0.8,0,417.0,905.0,0.0,388.0,1,0.2246923446106246,0.0
989,989,0.34404894361768346,0.3,0,317.0,534.0,0.0,219.0,1,0.9540177043845516,0.0
990,990,0.3020639957743745,0.3,0,253.0,600.0,0.0,257.0,1,0.9448651434040266,0.0
991,991,0.5625358240158822,0.6,0,430.0,648.0,0.0,242.0,1,0.5734545392182473,0.0
992,992,-0.28945212180448876,-0.3,1,360.0,810.0,1.0,400.0,1,0.6014347231805882,0.0
993,993,-0.22057910128308023,-0.2,1,314.0,868.0,1.0,238.0,1,0.7435058921314631,0.0
994,994,-0.7747542180480329,-0.8,1,335.0,686.0,1.0,149.0,1,0.8306652818868419,0.0
995,995,-0.4281824991574126,-0.4,1,285.0,513.0,1.0,312.0,1,0.9388161847275901,0.0
996,996,-0.11340657360396889,-0.1,1,340.0,539.0,1.0,1631.0,1,0.8269655233653369,0.0
997,997,-0.3699793329462726,-0.4,1,260.0,897.0,1.0,813.0,1,0.8340906995288285,0.0
998,998,0.4056177435680832,0.4,0,251.0,916.0,0.0,253.0,1,0.3571007820062583,0.0
999,999,-0.22583194003502727,-0.2,1,396.0,555.0,1.0,449.0,1,0.8771408634211759,0.0
1000,1000,-0.7940799889966417,-0.8,1,255.0,788.0,1.0,247.0,1,0.878372100595263,0.0
1001,1001,0.03540360457829195,0.0,0,454.0,823.0,0.0,503.0,1,0.8626611812452516,0.0
1002,1002,-0.26038099447319585,-0.3,1,413.0,911.0,1.0,886.0,1,0.22003545728406393,0.0
1003,1003,0.25119851322820286,0.3,0,325.0,713.0,0.0,182.0,1,0.6583002040494446,0.0
1004,1004,-0.8471283656989561,-0.8,1,410.0,673.0,1.0,237.0,1,0.8247653384173323,0.0
1005,1005,-0.04479614443283397,-0.0,1,409.0,936.0,0.0,615.0,0,0.5979447015620367,0.0
1006,1006,-0.885369096159963,-0.9,1,464.0,662.0,1.0,294.0,1,0.16691030338517487,0.0
1007,1007,0.6604157135145727,0.7,0,476.0,985.0,0.0,669.0,1,0.1903243917075419,0.0
1008,1008,0.5424544324640519,0.5,0,483.0,815.0,0.0,492.0,1,0.15426721299762236,0.0
1009,1009,-0.7862974313765974,-0.8,1,440.0,649.0,1.0,211.0,1,0.591424886407426,0.0
1010,1010,0.1261167160520773,0.1,0,325.0,691.0,0.0,494.0,1,0.9907788267274087,0.0
1011,1011,0.9578862898592104,1.0,0,351.0,952.0,0.0,137.0,1,0.8962088825109016,0.0
1012,1012,0.9931866611595923,1.0,0,426.0,680.0,0.0,264.0,1,0.5146173187679822,0.0
1013,1013,0.958942679817598,1.0,0,321.0,501.0,0.0,188.0,1,0.8872212408523271,0.0
1014,1014,0.9867773241326729,1.0,0,327.0,782.0,0.0,101.0,1,0.7989867431929625,0.0
1015,1015,-0.21185204460228046,-0.2,1,463.0,568.0,1.0,1689.0,1,0.5902505136611945,0.0
1016,1016,0.6793029889354008,0.7,0,300.0,602.0,0.0,238.0,1,0.3903035850333021,0.0
1017,1017,-0.21513128501408874,-0.2,1,270.0,531.0,1.0,509.0,1,0.17776219980254238,0.0
1018,1018,0.20125682448959425,0.2,0,334.0,822.0,0.0,284.0,1,0.6314296926538268,0.0
1019,1019,0.5749513203069194,0.6,0,318.0,997.0,0.0,255.0,1,0.647934265931097,0.0
1020,1020,0.6600631656157345,0.7,0,274.0,808.0,0.0,268.0,1,0.25524029158599426,0.0
1021,1021,0.5097187287032792,0.5,0,323.0,932.0,0.0,655.0,1,0.1942292845268383,0.0
1022,1022,0.8069290796281985,0.8,0,277.0,782.0,0.0,291.0,1,0.49552710913646836,0.0
1023,1023,-0.6185907946772704,-0.6,1,458.0,531.0,1.0,291.0,1,0.28826396486224226,0.0
1024,1024,-0.44410160035182367,-0.4,1,361.0,552.0,1.0,347.0,1,0.5907282181519465,0.0
1025,1025,-0.5729414700206865,-0.6,1,464.0,642.0,1.0,274.0,1,0.3192405527350014,0.0
1026,1026,-0.201253595660964,-0.2,1,350.0,964.0,1.0,336.0,1,0.8976329852446029,0.0
1027,1027,-0.38531847348123827,-0.4,1,449.0,838.0,1.0,333.0,1,0.457639034401783,0.0
1028,1028,0.7293500879528467,0.7,0,313.0,696.0,0.0,241.0,1,0.2521554818868883,0.0
1029,1029,-0.14677936377002032,-0.1,1,377.0,518.0,1.0,785.0,1,0.631428936009465,0.0
1030,1030,0.18930227595175686,0.2,0,391.0,812.0,0.0,397.0,1,0.762903000751313,0.0
1031,1031,-0.23308944660822872,-0.2,1,265.0,603.0,1.0,812.0,1,0.2855489238114046,0.0
1032,1032,-0.7691482810137091,-0.8,1,380.0,642.0,1.0,288.0,1,0.519283506949953,0.0
1033,1033,0.32051039893805666,0.3,0,371.0,704.0,0.0,715.0,1,0.2922203659339736,0.0
1034,1034,0.7344857563020029,0.7,0,383.0,592.0,0.0,395.0,1,0.8907855202318058,0.0
1035,1035,0.2268100116412477,0.2,0,465.0,631.0,0.0,524.0,1,0.21558345394952172,0.0
1036,1036,-0.9687933436070626,-1.0,1,283.0,844.0,1.0,213.0,1,0.9519320511808127,0.0
1037,1037,-0.001207192384144573,-0.0,1,427.0,800.0,1.0,1533.0,1,0.25452846418420094,0.0
1038,1038,0.5664118221265999,0.6,0,384.0,655.0,0.0,211.0,1,0.5447149440265974,0.0
1039,1039,0.05363453398930229,0.1,0,360.0,717.0,0.0,573.0,1,0.5480912773356444,0.0
1040,1040,-0.2823838030468684,-0.3,1,363.0,853.0,0.0,684.0,0,0.7766077840848263,0.0
1041,1041,-0.5809570642578816,-0.6,1,250.0,686.0,1.0,284.0,1,0.9997016259433616,0.0
1042,1042,0.8527595034994904,0.9,0,383.0,622.0,0.0,235.0,1,0.18641655610558505,0.0
1043,1043,-0.14429881196379557,-0.1,1,377.0,749.0,1.0,904.0,1,0.4835865240408057,0.0
1044,1044,0.21499626536772798,0.2,0,445.0,935.0,0.0,360.0,1,0.09886233906083297,0.0
1045,1045,-0.34663477821627686,-0.3,1,441.0,874.0,1.0,285.0,1,0.7852726926464815,0.0
1046,1046,-0.6246780905138523,-0.6,1,458.0,753.0,1.0,339.0,1,0.7130483900254988,0.0
1047,1047,0.4333726579140369,0.4,0,359.0,656.0,0.0,255.0,1,0.2240210945397847,0.0
1048,1048,0.5931520270697981,0.6,0,349.0,819.0,0.0,222.0,1,0.5533945828733832,0.0
1049,1049,0.9688445323002755,1.0,0,421.0,519.0,0.0,310.0,1,0.014382664307957538,0.0
1050,1050,-0.19762473792579116,-0.2,1,306.0,516.0,1.0,608.0,1,0.2796037411808371,0.0
1051,1051,-0.3058437661022215,-0.3,1,478.0,636.0,0.0,586.0,0,0.6972848007489552,0.0
1052,1052,0.682538308667314,0.7,0,292.0,867.0,0.0,411.0,1,0.2850534525789139,0.0
1053,1053,-0.33553122453158,-0.3,1,488.0,880.0,1.0,672.0,1,0.6975412355155,0.0
1054,1054,0.8050972662842304,0.8,0,414.0,959.0,0.0,297.0,1,0.3493168835263567,0.0
1055,1055,-0.6612097525711653,-0.7,1,419.0,996.0,1.0,335.0,1,0.25806922796471465,0.0
1056,1056,0.8823567248519351,0.9,0,307.0,587.0,0.0,316.0,1,0.21675111803612768,0.0
1057,1057,-0.24852426492553015,-0.2,1,283.0,778.0,1.0,279.0,1,0.5854071739899691,0.0
1058,1058,-0.32494414947080075,-0.3,1,450.0,802.0,1.0,558.0,1,0.2262136369622335,0.0
1059,1059,-0.30646398526904317,-0.3,1,397.0,977.0,1.0,406.0,1,0.6420960943787563,0.0
1060,1060,0.5151987432118301,0.5,0,275.0,699.0,0.0,196.0,1,0.8113834864782162,0.0
1061,1061,0.002125632763390728,0.0,0,394.0,615.0,0.0,531.0,1,0.8458125176555027,0.0
1062,1062,0.1455154902988156,0.1,0,264.0,798.0,0.0,828.0,1,0.002312610025102746,0.0
1063,1063,0.9278987713410813,0.9,0,417.0,565.0,0.0,198.0,1,0.5526856848697148,0.0
1064,1064,0.8982300537350718,0.9,0,475.0,906.0,0.0,319.0,1,0.6143566635450548,0.0
1065,1065,-0.0955304463422153,-0.1,1,463.0,826.0,0.0,511.0,0,0.989610454317033,0.0
1066,1066,-0.012600548449215543,-0.0,1,418.0,537.0,0.0,295.0,0,0.893248413941169,0.0
1067,1067,0.4231702320295301,0.4,0,496.0,948.0,0.0,266.0,1,0.0021920964076068694,0.0
1068,1068,-0.3173736639667404,-0.3,1,310.0,756.0,1.0,594.0,1,0.3153003909718316,0.0
1069,1069,-0.8129742590763802,-0.8,1,441.0,775.0,1.0,294.0,1,0.5696104526623098,0.0
1070,1070,-0.3844923270629914,-0.4,1,317.0,691.0,1.0,482.0,1,0.8155704495550146,0.0
1071,1071,0.9311199184091798,0.9,0,318.0,788.0,0.0,394.0,1,0.3695287676091701,0.0
1072,1072,-0.2028259855710457,-0.2,1,264.0,962.0,1.0,494.0,1,0.7475608592064154,0.0
1073,1073,0.53542564075609,0.5,0,255.0,812.0,0.0,463.0,1,0.05899627666388507,0.0
1074,1074,0.5977886908079002,0.6,0,377.0,607.0,0.0,336.0,1,0.24487134851262138,0.0
1075,1075,-0.3885212099167441,-0.4,1,411.0,730.0,1.0,599.0,1,0.668319225948559,0.0
1076,1076,0.41810446066449836,0.4,0,431.0,723.0,0.0,906.0,1,0.03609289508923108,0.0
1077,1077,-0.6992097723715753,-0.7,1,282.0,526.0,1.0,402.0,1,0.6424001394292694,0.0
1078,1078,-0.07682768720000732,-0.1,1,395.0,502.0,1.0,483.0,1,0.44611436599318555,0.0
1079,1079,-0.2626262323438615,-0.3,1,399.0,743.0,1.0,408.0,1,0.5786274968268822,0.0
1080,1080,0.8383411668464791,0.8,0,319.0,731.0,0.0,130.0,1,0.5801831100174514,0.0
1081,1081,-0.7864756221638085,-0.8,1,338.0,552.0,1.0,320.0,1,0.6325252411669823,0.0
1082,1082,-0.07871744335962072,-0.1,1,474.0,942.0,1.0,254.0,1,0.7192046258866717,0.0
1083,1083,-0.27045376142651745,-0.3,1,342.0,966.0,1.0,502.0,1,0.37402970895586296,0.0
1084,1084,0.7427683119409803,0.7,0,270.0,652.0,0.0,288.0,1,0.03366485061158697,0.0
1085,1085,0.8745340135552637,0.9,0,346.0,800.0,0.0,224.0,1,0.02726169635916109,0.0
1086,1086,0.7756957445798298,0.8,0,437.0,820.0,0.0,303.0,1,0.10500433999420311,0.0
1087,1087,-0.7473399081599816,-0.7,1,332.0,699.0,1.0,539.0,1,0.5686705295826684,0.0
1088,1088,0.0849698970834789,0.1,0,482.0,808.0,0.0,350.0,1,0.5817790282813978,0.0
1089,1089,0.7115657176776691,0.7,0,352.0,569.0,0.0,239.0,1,0.7270664437708688,0.0
1090,1090,0.2963705404677679,0.3,0,436.0,838.0,0.0,406.0,1,0.7170961976870729,0.0
1091,1091,0.04424826324574149,0.0,0,276.0,638.0,0.0,266.0,1,0.46114861799425366,0.0
1092,1092,0.689935243921501,0.7,0,385.0,669.0,0.0,336.0,1,0.5901240620178926,0.0
1093,1093,0.5404978740879149,0.5,0,356.0,863.0,0.0,271.0,1,0.25738096198929217,0.0
1094,1094,-0.07982914502958938,-0.1,1,269.0,573.0,1.0,578.0,1,0.7468470485515011,0.0
1095,1095,0.03753842950586894,0.0,0,499.0,715.0,0.0,1506.0,1,0.0018614451489159523,0.0
1096,1096,0.8219806765399575,0.8,0,326.0,989.0,0.0,155.0,1,0.3088619207909272,0.0
1097,1097,-0.23846240631149307,-0.2,1,412.0,973.0,1.0,305.0,1,0.12960723051548695,0.0
1098,1098,-0.4085919326089451,-0.4,1,300.0,940.0,1.0,410.0,1,0.4461127154892771,0.0
1099,1099,-0.12552591013028036,-0.1,1,458.0,598.0,1.0,364.0,1,0.333720018561544,0.0
1100,1100,-0.16961103532567545,-0.2,1,404.0,794.0,1.0,1042.0,1,0.5160698397971323,0.0
1101,1101,0.7500868309920088,0.8,0,277.0,994.0,0.0,149.0,1,0.5891500591280031,0.0
1102,1102,0.3855107398922548,0.4,0,352.0,544.0,0.0,334.0,1,0.016222712683536256,0.0
1103,1103,0.9626029422105091,1.0,0,486.0,886.0,0.0,178.0,1,0.871718394989514,0.0
1104,1104,-0.4810769957169512,-0.5,1,323.0,536.0,1.0,231.0,1,0.7236080045909452,0.0
1105,1105,0.20832909798472188,0.2,0,391.0,831.0,0.0,308.0,1,0.6734357233276012,0.0
1106,1106,0.09667373208583863,0.1,0,406.0,967.0,0.0,487.0,1,0.8125740104602994,0.0
1107,1107,-0.09764951615354445,-0.1,1,255.0,945.0,0.0,580.0,0,0.5385929530103651,0.0
1108,1108,0.04638030716407071,0.0,0,333.0,645.0,0.0,432.0,1,0.7245146035689015,0.0
1109,1109,-0.2546072909392352,-0.3,1,372.0,749.0,0.0,689.0,0,0.86696375986565,0.0
1110,1110,-0.49855179259245697,-0.5,1,454.0,660.0,1.0,356.0,1,0.743060235902383,0.0
1111,1111,-0.3985921466068294,-0.4,1,355.0,858.0,1.0,357.0,1,0.4837360360108359,0.0
1112,1112,0.14913224560772376,0.1,0,427.0,702.0,0.0,351.0,1,0.6833317552891384,0.0
1113,1113,0.5881979129682435,0.6,0,386.0,812.0,0.0,392.0,1,0.7098027537889929,0.0
1114,1114,-0.677340739014717,-0.7,1,417.0,772.0,1.0,301.0,1,0.9970350877108025,0.0
1115,1115,0.12865280343061092,0.1,0,385.0,854.0,0.0,431.0,1,0.9643812063270331,0.0
1116,1116,0.5576293585555578,0.6,0,252.0,501.0,0.0,297.0,1,0.9675344421076246,0.0
1117,1117,0.805264766587868,0.8,0,295.0,934.0,0.0,251.0,1,0.1282708003872144,0.0
1118,1118,0.4239309019085098,0.4,0,493.0,758.0,0.0,329.0,1,0.3271481032766863,0.0
1119,1119,0.8450731438490175,0.8,0,318.0,906.0,0.0,326.0,1,0.17098156709276646,0.0
1120,1120,0.5557025458575868,0.6,0,262.0,586.0,0.0,152.0,1,0.9400482017299653,0.0
1121,1121,-0.535561286245374,-0.5,1,479.0,698.0,1.0,373.0,1,0.3522496212551972,0.0
1122,1122,0.7120754458238503,0.7,0,358.0,816.0,0.0,326.0,1,0.21821296289211378,0.0
1123,1123,0.4534030263628446,0.5,0,253.0,850.0,0.0,257.0,1,0.24485944256725833,0.0
1124,1124,0.5054626165383458,0.5,0,385.0,824.0,0.0,181.0,1,0.8304461305569208,0.0
1125,1125,-0.8909539237846704,-0.9,1,493.0,980.0,1.0,257.0,1,0.2248157656549461,0.0
1126,1126,-0.46340278772793053,-0.5,1,395.0,690.0,1.0,675.0,1,0.12361519848056612,0.0
1127,1127,-0.6289774499854806,-0.6,1,421.0,601.0,1.0,418.0,1,0.3922633848040874,0.0
1128,1128,-0.47069727200673417,-0.5,1,277.0,937.0,1.0,286.0,1,0.4455104517683236,0.0
1129,1129,-0.1026180203489433,-0.1,1,266.0,836.0,1.0,568.0,1,0.4664984388921267,0.0
1130,1130,-0.4771693271018955,-0.5,1,471.0,502.0,1.0,387.0,1,0.23617862860898264,0.0
1131,1131,-0.466316965619066,-0.5,1,451.0,680.0,1.0,719.0,1,0.10352565744201236,0.0
1132,1132,-0.05761704915305854,-0.1,1,377.0,536.0,0.0,767.0,0,0.3382796323338587,0.0
1133,1133,0.6999808649480337,0.7,0,487.0,840.0,0.0,323.0,1,0.10508197368217509,0.0
1134,1134,0.10223083126795407,0.1,0,434.0,676.0,0.0,550.0,1,0.6542502219922975,0.0
1135,1135,-0.8016079616144678,-0.8,1,272.0,599.0,1.0,289.0,1,0.3080119207765366,0.0
1136,1136,-0.18895719950162326,-0.2,1,403.0,700.0,1.0,917.0,1,0.46479697711689283,0.0
1137,1137,-0.2297359564875623,-0.2,1,424.0,552.0,1.0,734.0,1,0.46498212733760425,0.0
1138,1138,0.48616624193651914,0.5,0,449.0,572.0,0.0,309.0,1,0.3357693465548466,0.0
1139,1139,0.9029724166192368,0.9,0,467.0,920.0,0.0,313.0,1,0.5250479025416824,0.0
1140,1140,-0.9809516234388067,-1.0,1,422.0,818.0,1.0,420.0,1,0.08851351802459395,0.0
1141,1141,0.07049202397955368,0.1,0,458.0,776.0,0.0,396.0,1,0.32024998397535387,0.0
1142,1142,0.5298042512524788,0.5,0,327.0,774.0,0.0,459.0,1,0.4179599438164595,0.0
1143,1143,0.411435042746088,0.4,0,366.0,665.0,0.0,379.0,1,0.4994096197555057,0.0
1144,1144,0.8711444569435902,0.9,0,319.0,998.0,0.0,213.0,1,0.7529212829750436,0.0
1145,1145,0.2601954045221906,0.3,0,408.0,572.0,0.0,1050.0,1,0.1404479501406265,0.0
1146,1146,0.994367030127129,1.0,0,429.0,945.0,0.0,166.0,1,0.6490390059321602,0.0
1147,1147,0.5718892841969527,0.6,0,342.0,842.0,0.0,276.0,1,0.013499181507169444,0.0
1148,1148,-0.08712893315946069,-0.1,1,471.0,938.0,0.0,311.0,0,0.8370793914169153,0.0
1149,1149,-0.5134850538935944,-0.5,1,320.0,808.0,1.0,312.0,1,0.24420935847606717,0.0
1150,1150,0.652659782948569,0.7,0,308.0,615.0,0.0,187.0,1,0.14165621103459813,0.0
1151,1151,-0.3491263636625028,-0.3,1,466.0,679.0,1.0,395.0,1,0.9028956773688016,0.0
1152,1152,0.9812799902485883,1.0,0,278.0,836.0,0.0,306.0,1,0.23702760349786478,0.0
1153,1153,0.8989365300962588,0.9,0,406.0,771.0,0.0,213.0,1,0.5148864686733289,0.0
1154,1154,0.5099650300219438,0.5,0,302.0,907.0,0.0,141.0,1,0.5317052141354999,0.0
1155,1155,-0.25322969250188776,-0.3,1,345.0,717.0,0.0,288.0,0,0.6833861017988767,0.0
1156,1156,-0.9143767537631169,-0.9,1,397.0,707.0,1.0,336.0,1,0.9467503392955899,0.0
1157,1157,-0.46339408072974186,-0.5,1,474.0,510.0,1.0,446.0,1,0.9222398685303577,0.0
1158,1158,0.7716559107380605,0.8,0,327.0,855.0,0.0,328.0,1,0.8184836500692205,0.0
1159,1159,-0.03468866734621745,-0.0,1,401.0,720.0,1.0,1179.0,1,0.09565771918051547,0.0
1160,1160,-0.7022204270885195,-0.7,1,311.0,891.0,1.0,288.0,1,0.28531727386307837,0.0
1161,1161,0.6219602693671606,0.6,0,499.0,994.0,0.0,277.0,1,0.41019665560571017,0.0
1162,1162,0.19290460668889864,0.2,0,493.0,976.0,0.0,551.0,1,0.18489977661679802,0.0
1163,1163,0.23380003469682054,0.2,0,475.0,603.0,0.0,322.0,1,0.8196743174947345,0.0
1164,1164,0.3197558115402557,0.3,0,393.0,532.0,0.0,495.0,1,0.09962980803651988,0.0
1165,1165,0.4193587820584266,0.4,0,333.0,566.0,0.0,251.0,1,0.49463865568432563,0.0
1166,1166,-0.024648948546789784,-0.0,1,377.0,623.0,0.0,2610.0,0,0.018406809453704986,0.0
1167,1167,0.277575314767335,0.3,0,289.0,644.0,0.0,647.0,1,0.02762312905914277,0.0
1168,1168,-0.1200227009075463,-0.1,1,468.0,754.0,0.0,218.0,0,0.45488947689453474,0.0
1169,1169,0.6297079688127316,0.6,0,264.0,617.0,0.0,249.0,1,0.5429837385737488,0.0
1170,1170,-0.7328520681691486,-0.7,1,304.0,606.0,1.0,670.0,1,0.05951961903537295,0.0
1171,1171,-0.5116045011266588,-0.5,1,296.0,976.0,1.0,548.0,1,0.9961585658217972,0.0
1172,1172,0.21654525630680932,0.2,0,459.0,548.0,0.0,473.0,1,0.26904818869149527,0.0
1173,1173,0.29126532844950326,0.3,0,433.0,856.0,0.0,541.0,1,0.3500755234906715,0.0
1174,1174,-0.5127808122853739,-0.5,1,341.0,600.0,1.0,669.0,1,0.779367074143503,0.0
1175,1175,-0.5065839593875783,-0.5,1,354.0,855.0,1.0,361.0,1,0.06898116718905745,0.0
1176,1176,-0.7971930934746663,-0.8,1,344.0,540.0,1.0,216.0,1,0.9823203447188482,0.0
1177,1177,-0.45933417166286694,-0.5,1,306.0,740.0,1.0,994.0,1,0.4382261808614979,0.0
1178,1178,0.24088478760657517,0.2,0,354.0,823.0,0.0,343.0,1,0.5682333244794485,0.0
1179,1179,0.8846969111925118,0.9,0,316.0,555.0,0.0,199.0,1,0.5073489454310147,0.0
1180,1180,0.6350400927020163,0.6,0,342.0,946.0,0.0,312.0,1,0.16424524387891926,0.0
1181,1181,-0.7294238504967641,-0.7,1,279.0,521.0,1.0,350.0,1,0.5335874786607839,0.0
1182,1182,0.44541207784899983,0.4,0,432.0,833.0,0.0,205.0,1,0.8550975856079405,0.0
1183,1183,-0.780138636609528,-0.8,1,386.0,984.0,1.0,250.0,1,0.7049885791728177,0.0
1184,1184,-0.0085748422692975,-0.0,1,341.0,653.0,1.0,916.0,1,0.34745078370585003,0.0
1185,1185,-0.623434326562833,-0.6,1,342.0,756.0,1.0,272.0,1,0.47917945895289615,0.0
1186,1186,-0.02165065212354622,-0.0,1,353.0,707.0,0.0,940.0,0,0.26657936306325514,0.0
1187,1187,-0.010220045135499456,-0.0,1,404.0,806.0,0.0,400.0,0,0.3215434812992367,0.0
1188,1188,-0.8936242519976867,-0.9,1,487.0,701.0,1.0,322.0,1,0.022026471080764942,0.0
1189,1189,0.008767518427075016,0.0,0,444.0,834.0,0.0,502.0,1,0.20679249123207788,0.0
1190,1190,0.5609119854409661,0.6,0,456.0,996.0,0.0,348.0,1,0.17550959019657097,0.0
1191,1191,-0.5119420759911526,-0.5,1,392.0,727.0,1.0,361.0,1,0.30348975769106734,0.0
1192,1192,0.5030627458345067,0.5,0,281.0,760.0,0.0,159.0,1,0.79637190313734,0.0
1193,1193,-0.39684101496158664,-0.4,1,322.0,617.0,1.0,521.0,1,0.42638516214610933,0.0
1194,1194,-0.49761205513664186,-0.5,1,491.0,915.0,1.0,614.0,1,0.19873227172898988,0.0
1195,1195,0.7621448213066393,0.8,0,363.0,561.0,0.0,346.0,1,0.11309641341488075,0.0
1196,1196,-0.7660658133579392,-0.8,1,379.0,691.0,1.0,230.0,1,0.9173393533375843,0.0
1197,1197,-0.28596881369744254,-0.3,1,251.0,853.0,1.0,726.0,1,0.2669193064810216,0.0
1198,1198,-0.17327447336194002,-0.2,1,376.0,786.0,1.0,468.0,1,0.8755833738865518,0.0
1199,1199,0.6223039603077465,0.6,0,450.0,794.0,0.0,216.0,1,0.8632658476582536,0.0
1200,1200,0.707255298486416,0.7,0,385.0,832.0,0.0,173.0,1,0.48435418090467497,0.0
1201,1201,-0.7173670289713177,-0.7,1,414.0,958.0,1.0,278.0,1,0.819938550109737,0.0
1202,1202,-0.612654639910577,-0.6,1,451.0,641.0,1.0,348.0,1,0.8821197463279193,0.0
1203,1203,-0.8866159978901189,-0.9,1,388.0,526.0,1.0,256.0,1,0.29448475061537305,0.0
1204,1204,0.7003708627649148,0.7,0,435.0,813.0,0.0,232.0,1,0.26826669662902847,0.0
1205,1205,0.2676760462923622,0.3,0,348.0,667.0,0.0,485.0,1,0.1829570635915604,0.0
1206,1206,0.028880295428776126,0.0,0,328.0,933.0,0.0,419.0,1,0.7613892842840264,0.0
1207,1207,-0.4376432207406362,-0.4,1,280.0,649.0,1.0,341.0,1,0.785185319545675,0.0
1208,1208,0.12376731311423295,0.1,0,259.0,895.0,0.0,526.0,1,0.8680093556200276,0.0
1209,1209,0.5190785023225104,0.5,0,294.0,837.0,0.0,259.0,1,0.15763695609790251,0.0
1210,1210,0.989647544454797,1.0,0,383.0,867.0,0.0,300.0,1,0.21881622109327759,0.0
1211,1211,-0.3004194152453088,-0.3,1,496.0,958.0,1.0,1946.0,1,0.2047706324305093,0.0
1212,1212,0.5958101390658872,0.6,0,335.0,595.0,0.0,280.0,1,0.39682503273231584,0.0
1213,1213,-0.08467999724749942,-0.1,1,298.0,687.0,0.0,605.0,0,0.9215335897102503,0.0
1214,1214,0.46218241349495304,0.5,0,475.0,673.0,0.0,222.0,1,0.6976638465106216,0.0
1215,1215,-0.7835616394948859,-0.8,1,277.0,898.0,1.0,335.0,1,0.08650245967303494,0.0
1216,1216,0.5943163783864451,0.6,0,338.0,826.0,0.0,256.0,1,0.651024523694093,0.0
1217,1217,0.9522592668730059,1.0,0,307.0,547.0,0.0,156.0,1,0.6766374121304924,0.0
1218,1218,0.5956856561753923,0.6,0,493.0,568.0,0.0,149.0,1,0.6044842716014738,0.0
1219,1219,0.6436758899359056,0.6,0,384.0,736.0,0.0,280.0,1,0.636258282145835,0.0
1220,1220,0.5222440392111074,0.5,0,409.0,586.0,0.0,185.0,1,0.8560599720631012,0.0
