,trial,coherence,coherence_bin,correct_side,target_onset,checker_onset,decision,decision_time,correct_decision,configuration,chosen_color
0,0,-0.551148738423676,-0.6,1.0,318.0,823.0,1.0,399.0,1,-1.0,-1.0
1,1,-0.8515521108769976,-0.9,-1.0,402.0,651.0,-1.0,327.0,1,1.0,-1.0
2,2,-0.031717624062228444,-0.0,1.0,397.0,716.0,-1.0,2767.0,0,-1.0,1.0
3,3,-0.02407932305648408,-0.0,-1.0,414.0,866.0,0.0,3720.0,0,1.0,0.0
4,4,-0.35249389644085805,-0.4,1.0,393.0,585.0,1.0,1292.0,1,-1.0,-1.0
5,5,-0.7449312463924616,-0.7,-1.0,254.0,651.0,-1.0,575.0,1,1.0,-1.0
6,6,-0.2864913522396396,-0.3,1.0,335.0,584.0,1.0,1601.0,1,-1.0,-1.0
7,7,-0.3909867924109667,-0.4,1.0,475.0,629.0,1.0,396.0,1,-1.0,-1.0
8,8,0.7068927965852222,0.7,1.0,441.0,799.0,1.0,280.0,1,1.0,1.0
9,9,-0.7894333118636898,-0.8,-1.0,423.0,917.0,0.0,3660.0,0,1.0,0.0
10,10,-0.8050536782115176,-0.8,-1.0,418.0,684.0,0.0,3898.0,0,1.0,0.0
11,11,0.8711111384960971,0.9,1.0,410.0,993.0,1.0,247.0,1,1.0,1.0
12,12,0.7343442842015121,0.7,-1.0,473.0,723.0,-1.0,134.0,1,-1.0,1.0
13,13,-0.6304344245765761,-0.6,1.0,492.0,692.0,1.0,156.0,1,-1.0,-1.0
14,14,-0.8642735019518278,-0.9,-1.0,303.0,543.0,0.0,4154.0,0,1.0,0.0
15,15,-0.569661972267419,-0.6,-1.0,370.0,956.0,-1.0,924.0,1,1.0,-1.0
16,16,-0.8135445847508084,-0.8,1.0,345.0,892.0,1.0,303.0,1,-1.0,-1.0
17,17,-0.14253125721001114,-0.1,1.0,420.0,941.0,1.0,2089.0,1,-1.0,-1.0
18,18,-0.15104212565099673,-0.2,-1.0,450.0,901.0,0.0,3649.0,0,1.0,0.0
19,19,0.05712643799959216,0.1,-1.0,304.0,856.0,-1.0,1650.0,1,-1.0,1.0
20,20,-0.7891340598896178,-0.8,-1.0,285.0,628.0,0.0,4087.0,0,1.0,0.0
21,21,0.5728148280026478,0.6,1.0,292.0,527.0,1.0,431.0,1,1.0,1.0
22,22,-0.14268682168716007,-0.1,1.0,377.0,845.0,1.0,2828.0,1,-1.0,-1.0
23,23,-0.36157799268525825,-0.4,1.0,402.0,879.0,1.0,859.0,1,-1.0,-1.0
24,24,-0.30758813766479787,-0.3,-1.0,370.0,919.0,-1.0,1111.0,1,1.0,-1.0
25,25,-0.09108512944096936,-0.1,1.0,330.0,797.0,0.0,3873.0,0,-1.0,0.0
26,26,-0.3554177331194718,-0.4,1.0,460.0,788.0,1.0,1002.0,1,-1.0,-1.0
27,27,-0.07356538365331822,-0.1,-1.0,301.0,964.0,0.0,3735.0,0,1.0,0.0
28,28,-0.22076324730142793,-0.2,-1.0,300.0,998.0,-1.0,2332.0,1,1.0,-1.0
29,29,-0.1892211277297754,-0.2,-1.0,264.0,627.0,-1.0,2219.0,1,1.0,-1.0
30,30,0.577052721960026,0.6,-1.0,471.0,528.0,-1.0,231.0,1,-1.0,1.0
31,31,-0.8070823701470974,-0.8,-1.0,422.0,540.0,-1.0,448.0,1,1.0,-1.0
32,32,0.07714160670776238,0.1,1.0,424.0,605.0,1.0,2561.0,1,1.0,1.0
33,33,0.5933035321144228,0.6,1.0,312.0,902.0,1.0,-54.0,1,1.0,1.0
34,34,0.5751361970042755,0.6,-1.0,274.0,909.0,-1.0,-73.0,1,-1.0,1.0
35,35,-0.8306508571359568,-0.8,1.0,458.0,587.0,1.0,165.0,1,-1.0,-1.0
36,36,-0.5695184411646035,-0.6,1.0,473.0,681.0,1.0,-444.0,1,-1.0,-1.0
37,37,-0.4089004720701885,-0.4,1.0,314.0,991.0,1.0,-715.0,1,-1.0,-1.0
38,38,-0.7365941151173383,-0.7,1.0,329.0,589.0,1.0,502.0,1,-1.0,-1.0
39,39,-0.15797564120102747,-0.2,-1.0,368.0,645.0,0.0,3987.0,0,1.0,0.0
40,40,-0.7119861888913964,-0.7,1.0,251.0,981.0,1.0,228.0,1,-1.0,-1.0
41,41,-0.8119541303520273,-0.8,-1.0,322.0,891.0,-1.0,417.0,1,1.0,-1.0
42,42,-0.3605566069429441,-0.4,1.0,437.0,881.0,1.0,1822.0,1,-1.0,-1.0
43,43,0.09589489965084597,0.1,-1.0,373.0,781.0,-1.0,1596.0,1,-1.0,1.0
44,44,-0.45052389639176044,-0.5,1.0,498.0,525.0,1.0,447.0,1,-1.0,-1.0
45,45,0.008614788028987741,0.0,-1.0,452.0,940.0,-1.0,1898.0,1,-1.0,1.0
46,46,-0.2771732810495461,-0.3,-1.0,326.0,829.0,-1.0,1435.0,1,1.0,-1.0
47,47,-0.6476502295868471,-0.6,-1.0,310.0,671.0,-1.0,339.0,1,1.0,-1.0
48,48,-0.7349290108569946,-0.7,1.0,272.0,650.0,1.0,158.0,1,-1.0,-1.0
49,49,0.36867375719341344,0.4,-1.0,383.0,711.0,-1.0,426.0,1,-1.0,1.0
50,50,-0.3076249732842449,-0.3,1.0,463.0,650.0,1.0,777.0,1,-1.0,-1.0
51,51,-0.09381317160082747,-0.1,1.0,479.0,733.0,0.0,3788.0,0,-1.0,0.0
52,52,-0.36165366775133523,-0.4,1.0,468.0,553.0,1.0,689.0,1,-1.0,-1.0
53,53,-0.3284075635391507,-0.3,1.0,336.0,569.0,1.0,675.0,1,-1.0,-1.0
54,54,-0.22002448732501767,-0.2,-1.0,327.0,856.0,0.0,3817.0,0,1.0,0.0
55,55,-0.8206318005433115,-0.8,1.0,266.0,571.0,1.0,323.0,1,-1.0,-1.0
56,56,-0.1971130901001531,-0.2,1.0,279.0,998.0,1.0,1463.0,1,-1.0,-1.0
57,57,-0.07147551082580383,-0.1,1.0,417.0,574.0,0.0,4009.0,0,-1.0,0.0
58,58,-0.44516067706196616,-0.4,-1.0,329.0,585.0,-1.0,326.0,1,1.0,-1.0
59,59,-0.35443713078877004,-0.4,-1.0,368.0,737.0,-1.0,1205.0,1,1.0,-1.0
60,60,-0.1521693102037408,-0.2,-1.0,373.0,588.0,0.0,4039.0,0,1.0,0.0
61,61,-0.28479913968463455,-0.3,-1.0,330.0,635.0,-1.0,2655.0,1,1.0,-1.0
62,62,0.571769396776702,0.6,1.0,407.0,605.0,1.0,238.0,1,1.0,1.0
63,63,-0.5987310025998875,-0.6,-1.0,393.0,935.0,-1.0,202.0,1,1.0,-1.0
64,64,-0.2236285113994292,-0.2,-1.0,339.0,642.0,-1.0,1389.0,1,1.0,-1.0
65,65,-0.21007494815075822,-0.2,-1.0,490.0,889.0,0.0,3621.0,0,1.0,0.0
66,66,-0.06379071578453144,-0.1,1.0,496.0,754.0,0.0,3750.0,0,-1.0,0.0
67,67,0.5461796940727114,0.5,-1.0,407.0,528.0,-1.0,355.0,1,-1.0,1.0
68,68,0.7161111816897375,0.7,1.0,434.0,585.0,1.0,341.0,1,1.0,1.0
69,69,-0.6852179014929627,-0.7,-1.0,419.0,900.0,-1.0,551.0,1,1.0,-1.0
70,70,-0.5510053680878162,-0.6,1.0,322.0,708.0,1.0,140.0,1,-1.0,-1.0
71,71,-0.3823959086547484,-0.4,1.0,302.0,994.0,1.0,464.0,1,-1.0,-1.0
72,72,-0.18213327499139598,-0.2,1.0,334.0,900.0,1.0,1246.0,1,-1.0,-1.0
73,73,-0.3476929932651128,-0.3,1.0,255.0,562.0,1.0,973.0,1,-1.0,-1.0
74,74,0.8497103788248895,0.8,1.0,331.0,670.0,1.0,589.0,1,1.0,1.0
75,75,-0.5712419580096566,-0.6,-1.0,490.0,751.0,-1.0,329.0,1,1.0,-1.0
76,76,-0.5866412469410889,-0.6,1.0,398.0,972.0,1.0,120.0,1,-1.0,-1.0
77,77,-0.8975246860205861,-0.9,-1.0,302.0,737.0,-1.0,361.0,1,1.0,-1.0
78,78,0.2523717746172057,0.3,1.0,413.0,693.0,1.0,584.0,1,1.0,1.0
79,79,0.7671535202989909,0.8,-1.0,283.0,930.0,-1.0,227.0,1,-1.0,1.0
80,80,-0.6575409525267428,-0.7,-1.0,340.0,868.0,-1.0,402.0,1,1.0,-1.0
81,81,-0.5235935483558176,-0.5,1.0,483.0,657.0,1.0,200.0,1,-1.0,-1.0
82,82,-0.25468363425627094,-0.3,-1.0,357.0,546.0,-1.0,2917.0,1,1.0,-1.0
83,83,0.5458293677461786,0.5,1.0,257.0,738.0,1.0,235.0,1,1.0,1.0
84,84,-0.19869933354574099,-0.2,1.0,387.0,684.0,1.0,2229.0,1,-1.0,-1.0
85,85,0.158976809404764,0.2,-1.0,321.0,971.0,-1.0,628.0,1,-1.0,1.0
86,86,0.8727642855362215,0.9,1.0,388.0,739.0,1.0,203.0,1,1.0,1.0
87,87,-0.4427830487457833,-0.4,1.0,303.0,736.0,1.0,-429.0,1,-1.0,-1.0
88,88,0.37363250766446987,0.4,1.0,267.0,660.0,1.0,1373.0,1,1.0,1.0
89,89,0.06769037242732401,0.1,1.0,255.0,603.0,1.0,2202.0,1,1.0,1.0
90,90,-0.8682930877270024,-0.9,-1.0,465.0,906.0,-1.0,439.0,1,1.0,-1.0
91,91,0.8873458030925104,0.9,-1.0,328.0,780.0,-1.0,262.0,1,-1.0,1.0
92,92,-0.5571149691801709,-0.6,1.0,468.0,521.0,1.0,431.0,1,-1.0,-1.0
93,93,0.2958556014451056,0.3,-1.0,484.0,823.0,-1.0,263.0,1,-1.0,1.0
94,94,-0.4026907521649154,-0.4,-1.0,368.0,774.0,-1.0,838.0,1,1.0,-1.0
95,95,-0.8753044202878079,-0.9,1.0,416.0,563.0,1.0,-279.0,1,-1.0,-1.0
96,96,0.6804453937778835,0.7,1.0,271.0,836.0,1.0,423.0,1,1.0,1.0
97,97,-0.07113465506340388,-0.1,1.0,426.0,681.0,0.0,3893.0,0,-1.0,0.0
98,98,0.12355459979292494,0.1,1.0,430.0,929.0,1.0,1661.0,1,1.0,1.0
99,99,0.5181050732665035,0.5,1.0,307.0,872.0,1.0,291.0,1,1.0,1.0
100,100,-0.8829270934458073,-0.9,1.0,312.0,871.0,1.0,317.0,1,-1.0,-1.0
101,101,0.8877956069338994,0.9,1.0,292.0,537.0,1.0,411.0,1,1.0,1.0
102,102,0.5726083564557997,0.6,-1.0,286.0,648.0,-1.0,556.0,1,-1.0,1.0
103,103,0.0748942633575258,0.1,-1.0,257.0,608.0,-1.0,3795.0,1,-1.0,1.0
104,104,-0.837180389453757,-0.8,-1.0,462.0,550.0,-1.0,248.0,1,1.0,-1.0
105,105,-0.45874064479081283,-0.5,-1.0,364.0,847.0,-1.0,449.0,1,1.0,-1.0
106,106,0.8264689120295611,0.8,-1.0,302.0,907.0,-1.0,261.0,1,-1.0,1.0
107,107,0.13411735393924673,0.1,1.0,385.0,921.0,1.0,1734.0,1,1.0,1.0
108,108,-0.5566388293908084,-0.6,-1.0,439.0,934.0,-1.0,537.0,1,1.0,-1.0
109,109,0.8384235626736697,0.8,-1.0,431.0,634.0,-1.0,185.0,1,-1.0,1.0
110,110,-0.3448873532051002,-0.3,1.0,442.0,766.0,1.0,1272.0,1,-1.0,-1.0
111,111,-0.7733001933114981,-0.8,-1.0,289.0,866.0,-1.0,465.0,1,1.0,-1.0
112,112,0.7033184544262524,0.7,1.0,429.0,637.0,1.0,304.0,1,1.0,1.0
113,113,-0.23239820894875685,-0.2,1.0,436.0,773.0,1.0,3121.0,1,-1.0,-1.0
114,114,-0.04751379930143973,-0.0,-1.0,486.0,527.0,0.0,3987.0,0,1.0,0.0
115,115,0.8634556844380622,0.9,1.0,478.0,952.0,1.0,340.0,1,1.0,1.0
116,116,0.08796712975708121,0.1,-1.0,476.0,564.0,-1.0,1250.0,1,-1.0,1.0
117,117,0.4348280399290577,0.4,1.0,328.0,812.0,1.0,650.0,1,1.0,1.0
118,118,-0.7989923112017877,-0.8,1.0,292.0,989.0,1.0,379.0,1,-1.0,-1.0
119,119,0.6551760618395032,0.7,-1.0,338.0,742.0,-1.0,200.0,1,-1.0,1.0
120,120,0.2515074806117791,0.3,1.0,335.0,601.0,1.0,964.0,1,1.0,1.0
121,121,0.798276414489779,0.8,-1.0,331.0,575.0,-1.0,134.0,1,-1.0,1.0
122,122,0.409724647933395,0.4,-1.0,443.0,916.0,-1.0,571.0,1,-1.0,1.0
123,123,-0.6881935859965376,-0.7,-1.0,325.0,768.0,-1.0,507.0,1,1.0,-1.0
124,124,0.07942308954762123,0.1,-1.0,270.0,925.0,-1.0,2025.0,1,-1.0,1.0
125,125,0.6382790908679595,0.6,1.0,461.0,866.0,1.0,293.0,1,1.0,1.0
126,126,0.4002924689760513,0.4,1.0,273.0,867.0,1.0,750.0,1,1.0,1.0
127,127,0.21157445372131256,0.2,-1.0,387.0,947.0,-1.0,696.0,1,-1.0,1.0
128,128,0.22161345371854424,0.2,1.0,351.0,858.0,1.0,571.0,1,1.0,1.0
129,129,0.08171495475940371,0.1,1.0,418.0,598.0,1.0,2474.0,1,1.0,1.0
130,130,0.7000765606059055,0.7,1.0,321.0,608.0,1.0,401.0,1,1.0,1.0
131,131,0.5457820327859481,0.5,1.0,489.0,996.0,1.0,305.0,1,1.0,1.0
132,132,-0.6141868329845922,-0.6,1.0,478.0,877.0,1.0,265.0,1,-1.0,-1.0
133,133,-0.4394194865806476,-0.4,1.0,373.0,580.0,1.0,337.0,1,-1.0,-1.0
134,134,-0.6705416416415958,-0.7,1.0,304.0,576.0,1.0,510.0,1,-1.0,-1.0
135,135,-0.7119891275450331,-0.7,-1.0,380.0,567.0,-1.0,413.0,1,1.0,-1.0
136,136,-0.8681330519887123,-0.9,-1.0,334.0,722.0,-1.0,404.0,1,1.0,-1.0
137,137,-0.5199988360006547,-0.5,1.0,390.0,772.0,1.0,398.0,1,-1.0,-1.0
138,138,0.24259865888376864,0.2,-1.0,494.0,531.0,-1.0,845.0,1,-1.0,1.0
139,139,0.524604762155458,0.5,1.0,464.0,920.0,1.0,316.0,1,1.0,1.0
140,140,0.8330466973977052,0.8,1.0,483.0,504.0,1.0,553.0,1,1.0,1.0
141,141,0.41105818440695774,0.4,1.0,368.0,692.0,1.0,750.0,1,1.0,1.0
142,142,-0.7970816154598214,-0.8,1.0,439.0,650.0,1.0,141.0,1,-1.0,-1.0
143,143,0.12828711235321555,0.1,-1.0,270.0,879.0,-1.0,991.0,1,-1.0,1.0
144,144,0.8956669046024243,0.9,-1.0,273.0,786.0,-1.0,81.0,1,-1.0,1.0
145,145,0.4699097576823773,0.5,1.0,428.0,667.0,1.0,345.0,1,1.0,1.0
146,146,0.40461914576725444,0.4,-1.0,449.0,751.0,-1.0,370.0,1,-1.0,1.0
147,147,0.5096049042861664,0.5,-1.0,291.0,516.0,-1.0,373.0,1,-1.0,1.0
148,148,0.1912626046452256,0.2,-1.0,403.0,814.0,-1.0,533.0,1,-1.0,1.0
149,149,-0.7891772921933303,-0.8,-1.0,426.0,667.0,-1.0,357.0,1,1.0,-1.0
150,150,0.8031571556400524,0.8,-1.0,473.0,948.0,-1.0,59.0,1,-1.0,1.0
151,151,-0.0468844943863147,-0.0,1.0,466.0,885.0,1.0,2379.0,1,-1.0,-1.0
152,152,-0.5053728378486468,-0.5,1.0,369.0,721.0,1.0,460.0,1,-1.0,-1.0
153,153,0.5041106598230455,0.5,1.0,383.0,662.0,1.0,315.0,1,1.0,1.0
154,154,0.7277068463060433,0.7,1.0,383.0,803.0,1.0,254.0,1,1.0,1.0
155,155,-0.062396689001910866,-0.1,-1.0,390.0,992.0,0.0,3618.0,0,1.0,0.0
156,156,0.15641490946205427,0.2,1.0,259.0,565.0,1.0,1926.0,1,1.0,1.0
157,157,-0.6295427973193,-0.6,1.0,382.0,824.0,1.0,584.0,1,-1.0,-1.0
158,158,0.8195466910401247,0.8,1.0,494.0,757.0,1.0,319.0,1,1.0,1.0
159,159,-0.22508817348629506,-0.2,-1.0,446.0,936.0,-1.0,1428.0,1,1.0,-1.0
160,160,-0.058264340032465944,-0.1,-1.0,343.0,667.0,0.0,3990.0,0,1.0,0.0
161,161,0.7264423465871582,0.7,-1.0,265.0,893.0,-1.0,182.0,1,-1.0,1.0
162,162,-0.6722243917854355,-0.7,1.0,335.0,697.0,1.0,-2.0,1,-1.0,-1.0
163,163,0.2832284413976994,0.3,-1.0,313.0,774.0,-1.0,453.0,1,-1.0,1.0
164,164,0.06757912088066176,0.1,1.0,413.0,980.0,1.0,1407.0,1,1.0,1.0
165,165,0.5046695691096631,0.5,1.0,442.0,809.0,1.0,329.0,1,1.0,1.0
166,166,-0.2138722589409785,-0.2,1.0,478.0,748.0,1.0,1654.0,1,-1.0,-1.0
167,167,-0.06405915305872667,-0.1,-1.0,281.0,661.0,0.0,4058.0,0,1.0,0.0
168,168,-0.5663858776478143,-0.6,-1.0,289.0,850.0,-1.0,851.0,1,1.0,-1.0
169,169,0.4150410339470777,0.4,-1.0,464.0,818.0,-1.0,268.0,1,-1.0,1.0
170,170,0.6155562539000777,0.6,1.0,288.0,809.0,1.0,303.0,1,1.0,1.0
171,171,-0.3096546703111138,-0.3,-1.0,330.0,704.0,-1.0,666.0,1,1.0,-1.0
172,172,-0.05496897662571565,-0.1,1.0,454.0,937.0,0.0,3609.0,0,-1.0,0.0
173,173,0.23966979300780855,0.2,-1.0,324.0,771.0,-1.0,425.0,1,-1.0,1.0
174,174,-0.50765165883382,-0.5,1.0,394.0,732.0,1.0,1474.0,1,-1.0,-1.0
175,175,-0.22394017366714014,-0.2,-1.0,370.0,732.0,-1.0,2348.0,1,1.0,-1.0
176,176,-0.43833915328146006,-0.4,1.0,475.0,936.0,-1.0,-81.0,0,-1.0,1.0
177,177,-0.715343094562354,-0.7,-1.0,495.0,747.0,-1.0,1208.0,1,1.0,-1.0
178,178,-0.2753774915226189,-0.3,1.0,329.0,534.0,1.0,217.0,1,-1.0,-1.0
179,179,0.5787753416393605,0.6,1.0,297.0,535.0,1.0,428.0,1,1.0,1.0
180,180,-0.8600614003965746,-0.9,1.0,461.0,934.0,1.0,285.0,1,-1.0,-1.0
181,181,0.28731689114204106,0.3,1.0,421.0,957.0,1.0,492.0,1,1.0,1.0
182,182,0.29402406776642687,0.3,1.0,253.0,869.0,1.0,628.0,1,1.0,1.0
183,183,0.2836677197980314,0.3,-1.0,280.0,801.0,-1.0,459.0,1,-1.0,1.0
184,184,0.331528376386491,0.3,-1.0,471.0,826.0,-1.0,583.0,1,-1.0,1.0
185,185,-0.5279754138337438,-0.5,1.0,409.0,722.0,1.0,259.0,1,-1.0,-1.0
186,186,-0.510197455518369,-0.5,-1.0,370.0,510.0,-1.0,1110.0,1,1.0,-1.0
187,187,0.13471383701712025,0.1,1.0,391.0,802.0,1.0,687.0,1,1.0,1.0
188,188,-0.3731997330710837,-0.4,-1.0,404.0,503.0,-1.0,2313.0,1,1.0,-1.0
189,189,-0.5819856110542941,-0.6,1.0,405.0,988.0,1.0,207.0,1,-1.0,-1.0
190,190,0.23107291462372548,0.2,1.0,328.0,527.0,1.0,1975.0,1,1.0,1.0
191,191,-0.05269347208968944,-0.1,1.0,317.0,827.0,0.0,3856.0,0,-1.0,0.0
192,192,0.7702753078948393,0.8,1.0,366.0,757.0,1.0,207.0,1,1.0,1.0
193,193,0.7446695365477835,0.7,-1.0,478.0,623.0,-1.0,309.0,1,-1.0,1.0
194,194,0.5810853740204492,0.6,-1.0,286.0,599.0,-1.0,295.0,1,-1.0,1.0
195,195,-0.40005399479683845,-0.4,-1.0,259.0,943.0,-1.0,1358.0,1,1.0,-1.0
196,196,-0.822422832294934,-0.8,1.0,364.0,771.0,1.0,155.0,1,-1.0,-1.0
197,197,-0.47194479196130823,-0.5,1.0,488.0,977.0,1.0,645.0,1,-1.0,-1.0
198,198,0.34461565992209675,0.3,1.0,408.0,625.0,1.0,637.0,1,1.0,1.0
199,199,-0.4265022573137015,-0.4,1.0,298.0,700.0,1.0,312.0,1,-1.0,-1.0
200,200,-0.008809265924680454,-0.0,-1.0,362.0,716.0,0.0,3922.0,0,1.0,0.0
201,201,0.2144023716155169,0.2,1.0,255.0,865.0,1.0,1250.0,1,1.0,1.0
202,202,-0.6596044876648179,-0.7,-1.0,322.0,677.0,0.0,4001.0,0,1.0,0.0
203,203,-0.5610495188119993,-0.6,1.0,394.0,548.0,1.0,268.0,1,-1.0,-1.0
204,204,0.8913132949296924,0.9,1.0,397.0,994.0,1.0,209.0,1,1.0,1.0
205,205,0.3949885603659259,0.4,-1.0,491.0,708.0,-1.0,131.0,1,-1.0,1.0
206,206,-0.8912743827427215,-0.9,1.0,311.0,875.0,1.0,214.0,1,-1.0,-1.0
207,207,0.3522513377512434,0.4,-1.0,353.0,740.0,-1.0,367.0,1,-1.0,1.0
208,208,-0.8962375751813323,-0.9,1.0,254.0,979.0,1.0,197.0,1,-1.0,-1.0
209,209,0.12597635375573935,0.1,-1.0,461.0,739.0,-1.0,770.0,1,-1.0,1.0
210,210,0.4426701366769782,0.4,-1.0,346.0,663.0,-1.0,521.0,1,-1.0,1.0
211,211,0.28963292036725485,0.3,-1.0,454.0,713.0,-1.0,483.0,1,-1.0,1.0
212,212,0.6053265151885029,0.6,-1.0,444.0,678.0,-1.0,408.0,1,-1.0,1.0
213,213,-0.6455026993663004,-0.6,-1.0,490.0,723.0,-1.0,337.0,1,1.0,-1.0
214,214,0.24952940717171523,0.2,1.0,315.0,750.0,1.0,875.0,1,1.0,1.0
215,215,-0.0258801823338215,-0.0,-1.0,253.0,656.0,1.0,3621.0,0,1.0,1.0
216,216,0.7575613124929935,0.8,-1.0,289.0,671.0,-1.0,140.0,1,-1.0,1.0
217,217,0.6038360822032006,0.6,-1.0,475.0,514.0,-1.0,201.0,1,-1.0,1.0
218,218,-0.6268021091063414,-0.6,1.0,267.0,801.0,1.0,422.0,1,-1.0,-1.0
219,219,-0.5341149702868779,-0.5,-1.0,382.0,939.0,-1.0,1079.0,1,1.0,-1.0
220,220,-0.8499769727543653,-0.8,1.0,254.0,534.0,1.0,152.0,1,-1.0,-1.0
221,221,0.6879028407967672,0.7,1.0,310.0,978.0,1.0,212.0,1,1.0,1.0
222,222,0.6237571817899265,0.6,-1.0,451.0,851.0,-1.0,278.0,1,-1.0,1.0
223,223,0.3810753790786926,0.4,1.0,497.0,607.0,1.0,346.0,1,1.0,1.0
224,224,-0.6943865235906086,-0.7,1.0,379.0,616.0,1.0,255.0,1,-1.0,-1.0
225,225,-0.8190744815747147,-0.8,-1.0,284.0,766.0,-1.0,240.0,1,1.0,-1.0
226,226,0.740060303953081,0.7,1.0,314.0,849.0,1.0,217.0,1,1.0,1.0
227,227,-0.17707038519443152,-0.2,1.0,472.0,730.0,1.0,768.0,1,-1.0,-1.0
228,228,0.3124226340635964,0.3,1.0,461.0,663.0,1.0,476.0,1,1.0,1.0
229,229,-0.6657012300320281,-0.7,-1.0,444.0,530.0,-1.0,336.0,1,1.0,-1.0
230,230,0.6253565951203756,0.6,1.0,324.0,792.0,1.0,254.0,1,1.0,1.0
231,231,0.7257849134362896,0.7,1.0,286.0,760.0,1.0,294.0,1,1.0,1.0
232,232,0.8867995907258274,0.9,1.0,392.0,858.0,1.0,270.0,1,1.0,1.0
233,233,0.643541225239148,0.6,1.0,480.0,971.0,1.0,249.0,1,1.0,1.0
234,234,-0.7214191524065612,-0.7,1.0,445.0,827.0,1.0,268.0,1,-1.0,-1.0
235,235,0.7844411429317629,0.8,1.0,293.0,603.0,1.0,304.0,1,1.0,1.0
236,236,-0.381840491444265,-0.4,-1.0,461.0,989.0,-1.0,980.0,1,1.0,-1.0
237,237,-0.5362761964518941,-0.5,-1.0,379.0,662.0,-1.0,359.0,1,1.0,-1.0
238,238,0.2930726942391292,0.3,1.0,398.0,784.0,1.0,878.0,1,1.0,1.0
239,239,0.6989884216808876,0.7,-1.0,410.0,650.0,-1.0,380.0,1,-1.0,1.0
240,240,-0.18395575852858082,-0.2,-1.0,483.0,617.0,-1.0,2440.0,1,1.0,-1.0
241,241,0.3027855182843794,0.3,-1.0,465.0,509.0,-1.0,486.0,1,-1.0,1.0
242,242,-0.6163392809323248,-0.6,-1.0,462.0,597.0,0.0,3941.0,0,1.0,0.0
243,243,0.8066962401710199,0.8,-1.0,482.0,822.0,-1.0,286.0,1,-1.0,1.0
244,244,-0.34226589690128983,-0.3,1.0,481.0,625.0,1.0,574.0,1,-1.0,-1.0
245,245,-0.13906206209844496,-0.1,-1.0,485.0,753.0,0.0,3762.0,0,1.0,0.0
246,246,0.7532556983663427,0.8,-1.0,463.0,539.0,-1.0,288.0,1,-1.0,1.0
247,247,-0.3829027762630819,-0.4,1.0,289.0,655.0,1.0,566.0,1,-1.0,-1.0
248,248,0.7841908612448373,0.8,1.0,364.0,881.0,1.0,375.0,1,1.0,1.0
249,249,-0.044540591773913674,-0.0,1.0,351.0,540.0,0.0,4109.0,0,-1.0,0.0
250,250,0.38899028904203947,0.4,-1.0,452.0,734.0,-1.0,454.0,1,-1.0,1.0
251,251,-0.15295397471643635,-0.2,-1.0,354.0,636.0,0.0,4010.0,0,1.0,0.0
252,252,-0.7822029067461784,-0.8,-1.0,435.0,760.0,-1.0,445.0,1,1.0,-1.0
253,253,0.31712414015092805,0.3,-1.0,487.0,650.0,-1.0,383.0,1,-1.0,1.0
254,254,-0.039923865759592614,-0.0,1.0,349.0,787.0,0.0,3864.0,0,-1.0,0.0
255,255,0.6038175642777223,0.6,-1.0,466.0,542.0,-1.0,272.0,1,-1.0,1.0
256,256,-0.02792489687162203,-0.0,-1.0,356.0,886.0,1.0,2038.0,0,1.0,1.0
257,257,0.6233553554868138,0.6,1.0,457.0,507.0,1.0,376.0,1,1.0,1.0
258,258,0.1466622865135413,0.1,1.0,461.0,895.0,1.0,1234.0,1,1.0,1.0
259,259,0.8465223558735754,0.8,-1.0,335.0,921.0,-1.0,194.0,1,-1.0,1.0
260,260,0.5512509763715024,0.6,1.0,486.0,624.0,1.0,520.0,1,1.0,1.0
261,261,-0.24894766078666375,-0.2,1.0,461.0,887.0,1.0,852.0,1,-1.0,-1.0
262,262,0.5088798044544888,0.5,1.0,326.0,838.0,1.0,206.0,1,1.0,1.0
263,263,0.8724676613269574,0.9,-1.0,353.0,963.0,-1.0,284.0,1,-1.0,1.0
264,264,0.4337258901118327,0.4,-1.0,268.0,780.0,-1.0,202.0,1,-1.0,1.0
265,265,-0.11081933720867976,-0.1,1.0,474.0,729.0,1.0,547.0,1,-1.0,-1.0
266,266,-0.6255328282268532,-0.6,-1.0,463.0,966.0,-1.0,1101.0,1,1.0,-1.0
267,267,0.6947799902461819,0.7,-1.0,294.0,859.0,-1.0,-183.0,1,-1.0,1.0
268,268,0.23373962169691864,0.2,-1.0,303.0,567.0,-1.0,1460.0,1,-1.0,1.0
269,269,0.47781157216996506,0.5,-1.0,318.0,785.0,1.0,-173.0,0,-1.0,-1.0
270,270,-0.6207925050876257,-0.6,-1.0,422.0,692.0,-1.0,466.0,1,1.0,-1.0
271,271,0.6475542016872825,0.6,1.0,338.0,889.0,1.0,433.0,1,1.0,1.0
272,272,-0.1903262170044503,-0.2,-1.0,338.0,616.0,-1.0,2966.0,1,1.0,-1.0
273,273,-0.19906726091626514,-0.2,1.0,413.0,576.0,0.0,4011.0,0,-1.0,0.0
274,274,-0.447627487445997,-0.4,-1.0,405.0,880.0,-1.0,1135.0,1,1.0,-1.0
275,275,0.6387910076887627,0.6,-1.0,340.0,956.0,-1.0,104.0,1,-1.0,1.0
276,276,-0.5591645774468437,-0.6,-1.0,385.0,842.0,-1.0,973.0,1,1.0,-1.0
277,277,-0.7041402663861068,-0.7,-1.0,392.0,865.0,-1.0,793.0,1,1.0,-1.0
278,278,0.8882032272338857,0.9,1.0,405.0,825.0,1.0,160.0,1,1.0,1.0
279,279,0.34769355905338173,0.3,1.0,327.0,965.0,1.0,598.0,1,1.0,1.0
280,280,-0.09958852908279592,-0.1,1.0,352.0,750.0,0.0,3898.0,0,-1.0,0.0
281,281,-0.23266673820492367,-0.2,1.0,381.0,527.0,1.0,452.0,1,-1.0,-1.0
282,282,0.40860669691003426,0.4,-1.0,428.0,527.0,-1.0,375.0,1,-1.0,1.0
283,283,-0.5556451683624029,-0.6,-1.0,275.0,751.0,-1.0,564.0,1,1.0,-1.0
284,284,-0.030879923715534163,-0.0,-1.0,341.0,721.0,0.0,3938.0,0,1.0,0.0
285,285,-0.2143259106634996,-0.2,-1.0,428.0,550.0,-1.0,1132.0,1,1.0,-1.0
286,286,0.7075801342754834,0.7,-1.0,472.0,613.0,-1.0,175.0,1,-1.0,1.0
287,287,-0.4751746686912634,-0.5,1.0,284.0,899.0,1.0,467.0,1,-1.0,-1.0
288,288,0.5075858095705318,0.5,1.0,406.0,559.0,1.0,415.0,1,1.0,1.0
289,289,0.5964162521531738,0.6,-1.0,316.0,958.0,-1.0,356.0,1,-1.0,1.0
290,290,0.8992262015244613,0.9,1.0,412.0,775.0,1.0,243.0,1,1.0,1.0
291,291,-0.17217386422862913,-0.2,-1.0,394.0,671.0,-1.0,2905.0,1,1.0,-1.0
292,292,0.13204705082710644,0.1,1.0,365.0,966.0,1.0,1809.0,1,1.0,1.0
293,293,0.358590309339636,0.4,1.0,392.0,585.0,1.0,483.0,1,1.0,1.0
294,294,0.6920575648178074,0.7,-1.0,499.0,876.0,-1.0,195.0,1,-1.0,1.0
295,295,0.24196965685147054,0.2,-1.0,273.0,696.0,-1.0,581.0,1,-1.0,1.0
296,296,0.4466497567538593,0.4,1.0,360.0,712.0,1.0,468.0,1,1.0,1.0
297,297,0.08870162613651744,0.1,-1.0,295.0,838.0,-1.0,917.0,1,-1.0,1.0
298,298,0.44841073140612975,0.4,1.0,489.0,738.0,1.0,213.0,1,1.0,1.0
299,299,-0.6127299340493177,-0.6,1.0,287.0,840.0,1.0,163.0,1,-1.0,-1.0
300,300,-0.4310659553322266,-0.4,1.0,496.0,809.0,1.0,1085.0,1,-1.0,-1.0
301,301,0.16694772010285208,0.2,-1.0,442.0,830.0,-1.0,768.0,1,-1.0,1.0
302,302,-0.8622203430004444,-0.9,-1.0,267.0,688.0,0.0,4045.0,0,1.0,0.0
303,303,0.6543103525167518,0.7,1.0,380.0,743.0,1.0,267.0,1,1.0,1.0
304,304,0.034940282909387554,0.0,-1.0,487.0,909.0,0.0,3604.0,0,-1.0,0.0
305,305,0.8009673052935601,0.8,1.0,455.0,574.0,1.0,141.0,1,1.0,1.0
306,306,-0.15002330717058743,-0.2,-1.0,386.0,847.0,0.0,3767.0,0,1.0,0.0
307,307,0.08845880316205923,0.1,-1.0,457.0,839.0,-1.0,364.0,1,-1.0,1.0
308,308,0.8422268566442396,0.8,-1.0,265.0,981.0,-1.0,224.0,1,-1.0,1.0
309,309,0.3217286751120606,0.3,1.0,304.0,725.0,1.0,801.0,1,1.0,1.0
310,310,-0.602096553757817,-0.6,1.0,416.0,680.0,1.0,234.0,1,-1.0,-1.0
311,311,-0.16022482514585978,-0.2,1.0,368.0,524.0,1.0,218.0,1,-1.0,-1.0
312,312,0.30645064804547795,0.3,1.0,460.0,881.0,1.0,339.0,1,1.0,1.0
313,313,0.2723616841626716,0.3,1.0,450.0,534.0,1.0,1376.0,1,1.0,1.0
314,314,-0.3942393129942885,-0.4,1.0,330.0,798.0,1.0,842.0,1,-1.0,-1.0
315,315,0.2415034999533806,0.2,-1.0,258.0,882.0,-1.0,530.0,1,-1.0,1.0
316,316,0.6565711731298657,0.7,1.0,280.0,930.0,1.0,260.0,1,1.0,1.0
317,317,-0.43008973687095214,-0.4,1.0,354.0,807.0,1.0,1269.0,1,-1.0,-1.0
318,318,-0.6875657973345698,-0.7,-1.0,303.0,723.0,-1.0,524.0,1,1.0,-1.0
319,319,-0.4478489999217727,-0.4,1.0,441.0,853.0,1.0,316.0,1,-1.0,-1.0
320,320,0.6401986013660578,0.6,-1.0,472.0,857.0,-1.0,101.0,1,-1.0,1.0
321,321,0.638815552990529,0.6,-1.0,374.0,966.0,-1.0,50.0,1,-1.0,1.0
322,322,0.6646928449637234,0.7,-1.0,464.0,587.0,-1.0,289.0,1,-1.0,1.0
323,323,0.8097440380499302,0.8,-1.0,274.0,872.0,-1.0,264.0,1,-1.0,1.0
324,324,0.018510357529681443,0.0,-1.0,426.0,923.0,-1.0,2571.0,1,-1.0,1.0
325,325,0.4244465917029102,0.4,1.0,354.0,998.0,1.0,438.0,1,1.0,1.0
326,326,0.7476014393403773,0.7,-1.0,496.0,944.0,-1.0,160.0,1,-1.0,1.0
327,327,-0.4823422888233409,-0.5,1.0,453.0,912.0,1.0,485.0,1,-1.0,-1.0
328,328,0.5901209693094275,0.6,-1.0,337.0,798.0,-1.0,225.0,1,-1.0,1.0
329,329,0.08162013283168579,0.1,-1.0,464.0,554.0,-1.0,1842.0,1,-1.0,1.0
330,330,-0.2510276794419347,-0.3,1.0,300.0,660.0,1.0,1500.0,1,-1.0,-1.0
331,331,0.5086755566906221,0.5,1.0,446.0,730.0,1.0,414.0,1,1.0,1.0
332,332,0.4200910526799878,0.4,-1.0,303.0,922.0,-1.0,405.0,1,-1.0,1.0
333,333,0.6293598885064601,0.6,1.0,442.0,623.0,1.0,315.0,1,1.0,1.0
334,334,0.39708578829450525,0.4,-1.0,437.0,505.0,-1.0,518.0,1,-1.0,1.0
335,335,0.38399413657257975,0.4,1.0,326.0,564.0,1.0,490.0,1,1.0,1.0
336,336,0.8461755034564228,0.8,-1.0,469.0,633.0,-1.0,218.0,1,-1.0,1.0
337,337,-0.40256746184202485,-0.4,1.0,439.0,971.0,1.0,470.0,1,-1.0,-1.0
338,338,-0.4590055800041665,-0.5,1.0,394.0,545.0,1.0,261.0,1,-1.0,-1.0
339,339,-0.8423856348510678,-0.8,1.0,448.0,785.0,1.0,427.0,1,-1.0,-1.0
340,340,0.6501159911461313,0.7,1.0,346.0,803.0,1.0,351.0,1,1.0,1.0
341,341,-0.4152368217061576,-0.4,-1.0,446.0,600.0,-1.0,434.0,1,1.0,-1.0
342,342,0.6344788542138148,0.6,-1.0,353.0,750.0,-1.0,337.0,1,-1.0,1.0
343,343,0.8938166953072856,0.9,-1.0,303.0,961.0,-1.0,146.0,1,-1.0,1.0
344,344,0.450812832993278,0.5,-1.0,486.0,504.0,-1.0,340.0,1,-1.0,1.0
345,345,-0.5254012302057111,-0.5,-1.0,376.0,537.0,-1.0,377.0,1,1.0,-1.0
346,346,-0.12140196478693854,-0.1,1.0,354.0,569.0,1.0,1397.0,1,-1.0,-1.0
347,347,-0.5065288663643892,-0.5,-1.0,472.0,636.0,-1.0,1442.0,1,1.0,-1.0
348,348,-0.26179959958486343,-0.3,1.0,323.0,546.0,1.0,941.0,1,-1.0,-1.0
349,349,0.8882437523014918,0.9,1.0,355.0,896.0,1.0,229.0,1,1.0,1.0
350,350,0.09199047597922672,0.1,1.0,293.0,724.0,1.0,2473.0,1,1.0,1.0
351,351,0.6314001080954853,0.6,1.0,492.0,861.0,1.0,417.0,1,1.0,1.0
352,352,-0.10237410970670413,-0.1,-1.0,382.0,760.0,0.0,3858.0,0,1.0,0.0
353,353,0.6517129763387747,0.7,-1.0,357.0,705.0,-1.0,178.0,1,-1.0,1.0
354,354,0.1874314736263717,0.2,-1.0,373.0,939.0,-1.0,928.0,1,-1.0,1.0
355,355,-0.22563375556037746,-0.2,1.0,483.0,694.0,1.0,793.0,1,-1.0,-1.0
356,356,-0.8067277195577507,-0.8,1.0,424.0,569.0,1.0,347.0,1,-1.0,-1.0
357,357,0.8758938206944821,0.9,1.0,377.0,722.0,1.0,301.0,1,1.0,1.0
358,358,0.16078571354301385,0.2,1.0,297.0,995.0,1.0,898.0,1,1.0,1.0
359,359,0.8168112115218492,0.8,-1.0,471.0,677.0,-1.0,222.0,1,-1.0,1.0
360,360,0.5163071771945494,0.5,1.0,284.0,731.0,1.0,555.0,1,1.0,1.0
361,361,0.5937537392056548,0.6,1.0,479.0,790.0,1.0,451.0,1,1.0,1.0
362,362,-0.5660105784240526,-0.6,-1.0,332.0,733.0,-1.0,145.0,1,1.0,-1.0
363,363,0.4609619673987585,0.5,-1.0,439.0,767.0,-1.0,254.0,1,-1.0,1.0
364,364,-0.5468013446494542,-0.5,1.0,469.0,626.0,1.0,225.0,1,-1.0,-1.0
365,365,0.7955421732199887,0.8,1.0,362.0,666.0,1.0,112.0,1,1.0,1.0
366,366,0.8331286134695487,0.8,-1.0,479.0,904.0,-1.0,167.0,1,-1.0,1.0
367,367,0.6129791734809308,0.6,1.0,336.0,644.0,1.0,510.0,1,1.0,1.0
368,368,0.7068529159120612,0.7,1.0,499.0,574.0,1.0,277.0,1,1.0,1.0
369,369,0.1507709996062624,0.2,-1.0,387.0,773.0,-1.0,10.0,1,-1.0,1.0
370,370,0.7158113613966274,0.7,-1.0,288.0,615.0,-1.0,167.0,1,-1.0,1.0
371,371,-0.23569776892231376,-0.2,1.0,472.0,906.0,1.0,2142.0,1,-1.0,-1.0
372,372,0.1049975575731511,0.1,1.0,391.0,572.0,1.0,1207.0,1,1.0,1.0
373,373,-0.21540080765709446,-0.2,-1.0,338.0,685.0,0.0,3977.0,0,1.0,0.0
374,374,-0.3187079440458609,-0.3,-1.0,280.0,829.0,-1.0,1321.0,1,1.0,-1.0
375,375,-0.6107988422307844,-0.6,1.0,432.0,954.0,1.0,-856.0,1,-1.0,-1.0
376,376,-0.47699012789492085,-0.5,-1.0,403.0,781.0,-1.0,1246.0,1,1.0,-1.0
377,377,0.4126545108937639,0.4,-1.0,470.0,536.0,-1.0,144.0,1,-1.0,1.0
378,378,-0.07242440836805497,-0.1,-1.0,492.0,990.0,0.0,3518.0,0,1.0,0.0
379,379,0.13521673028312742,0.1,-1.0,424.0,713.0,-1.0,2123.0,1,-1.0,1.0
380,380,-0.3214942452359011,-0.3,1.0,254.0,640.0,1.0,1126.0,1,-1.0,-1.0
381,381,-0.057887119132339904,-0.1,1.0,270.0,673.0,1.0,3977.0,1,-1.0,-1.0
382,382,-0.7698705415190892,-0.8,1.0,399.0,740.0,1.0,171.0,1,-1.0,-1.0
383,383,0.5449020553412042,0.5,-1.0,419.0,738.0,-1.0,193.0,1,-1.0,1.0
384,384,-0.6919338789097202,-0.7,1.0,449.0,954.0,1.0,327.0,1,-1.0,-1.0
385,385,0.29451261461266653,0.3,1.0,414.0,759.0,1.0,517.0,1,1.0,1.0
386,386,0.8676562772483613,0.9,1.0,379.0,804.0,1.0,157.0,1,1.0,1.0
387,387,0.8216628547437875,0.8,-1.0,276.0,924.0,-1.0,190.0,1,-1.0,1.0
388,388,-0.016387838839106994,-0.0,1.0,456.0,800.0,-1.0,3594.0,0,-1.0,1.0
389,389,-0.35478808177676735,-0.4,-1.0,251.0,697.0,-1.0,702.0,1,1.0,-1.0
390,390,0.20133186057413888,0.2,-1.0,335.0,616.0,-1.0,139.0,1,-1.0,1.0
391,391,0.8268648229876089,0.8,1.0,403.0,729.0,1.0,118.0,1,1.0,1.0
392,392,0.2924973602249864,0.3,-1.0,493.0,707.0,-1.0,450.0,1,-1.0,1.0
393,393,-0.6670348963808161,-0.7,-1.0,433.0,766.0,-1.0,381.0,1,1.0,-1.0
394,394,0.5670960982277465,0.6,1.0,485.0,524.0,1.0,271.0,1,1.0,1.0
395,395,0.3946025151722016,0.4,1.0,322.0,682.0,1.0,906.0,1,1.0,1.0
396,396,-0.4296482412933745,-0.4,-1.0,314.0,755.0,-1.0,1021.0,1,1.0,-1.0
397,397,-0.047174316786381176,-0.0,1.0,341.0,696.0,1.0,3653.0,1,-1.0,-1.0
398,398,0.827307032463252,0.8,-1.0,325.0,641.0,-1.0,124.0,1,-1.0,1.0
399,399,-0.7132802040853696,-0.7,1.0,309.0,615.0,1.0,576.0,1,-1.0,-1.0
400,400,0.7599434465511342,0.8,1.0,414.0,745.0,1.0,451.0,1,1.0,1.0
401,401,-0.19067189538296525,-0.2,1.0,271.0,592.0,1.0,1097.0,1,-1.0,-1.0
402,402,-0.8281778566525408,-0.8,1.0,394.0,732.0,1.0,174.0,1,-1.0,-1.0
403,403,0.6017004785901577,0.6,1.0,263.0,570.0,1.0,457.0,1,1.0,1.0
404,404,-0.04670391355872272,-0.0,1.0,399.0,807.0,-1.0,624.0,0,-1.0,1.0
405,405,-0.7681181388191074,-0.8,-1.0,283.0,502.0,-1.0,415.0,1,1.0,-1.0
406,406,0.8980365042114663,0.9,1.0,476.0,786.0,1.0,258.0,1,1.0,1.0
407,407,-0.8682947777783306,-0.9,1.0,385.0,735.0,1.0,450.0,1,-1.0,-1.0
408,408,0.4711730178724346,0.5,1.0,478.0,551.0,1.0,401.0,1,1.0,1.0
409,409,-0.6522840039855984,-0.7,-1.0,419.0,816.0,-1.0,375.0,1,1.0,-1.0
410,410,0.5003212724679057,0.5,1.0,388.0,576.0,1.0,236.0,1,1.0,1.0
411,411,0.5005933015460596,0.5,1.0,290.0,989.0,1.0,381.0,1,1.0,1.0
412,412,0.8496401513040065,0.8,1.0,325.0,567.0,1.0,218.0,1,1.0,1.0
413,413,-0.742922973872718,-0.7,-1.0,429.0,730.0,-1.0,201.0,1,1.0,-1.0
414,414,0.7159153350873774,0.7,-1.0,405.0,537.0,-1.0,-142.0,1,-1.0,1.0
415,415,-0.8595206456951592,-0.9,1.0,349.0,778.0,1.0,183.0,1,-1.0,-1.0
416,416,0.7447540393892959,0.7,-1.0,299.0,739.0,-1.0,232.0,1,-1.0,1.0
417,417,0.22924876373731007,0.2,-1.0,479.0,684.0,-1.0,457.0,1,-1.0,1.0
418,418,-0.15586639226999022,-0.2,-1.0,272.0,931.0,0.0,3797.0,0,1.0,0.0
419,419,0.6572370116528768,0.7,-1.0,287.0,552.0,-1.0,191.0,1,-1.0,1.0
420,420,0.7927520012842039,0.8,1.0,493.0,602.0,1.0,205.0,1,1.0,1.0
421,421,0.32373947771307654,0.3,1.0,331.0,537.0,1.0,992.0,1,1.0,1.0
422,422,-0.8899539101050904,-0.9,1.0,402.0,752.0,1.0,436.0,1,-1.0,-1.0
423,423,0.5778738604394861,0.6,1.0,489.0,527.0,1.0,674.0,1,1.0,1.0
424,424,0.4187283379741221,0.4,1.0,270.0,771.0,1.0,739.0,1,1.0,1.0
425,425,0.5379784761325882,0.5,1.0,350.0,631.0,1.0,439.0,1,1.0,1.0
426,426,0.5599312708023069,0.6,-1.0,293.0,650.0,-1.0,327.0,1,-1.0,1.0
427,427,0.5840842876599849,0.6,-1.0,300.0,955.0,-1.0,145.0,1,-1.0,1.0
428,428,-0.03507031386075632,-0.0,1.0,389.0,534.0,1.0,167.0,1,-1.0,-1.0
429,429,0.024552356077587434,0.0,-1.0,437.0,521.0,0.0,4042.0,0,-1.0,0.0
430,430,-0.19289569603169343,-0.2,-1.0,438.0,630.0,0.0,3932.0,0,1.0,0.0
431,431,-0.40976693147612286,-0.4,1.0,395.0,837.0,1.0,768.0,1,-1.0,-1.0
432,432,0.34228485549247456,0.3,-1.0,338.0,629.0,-1.0,453.0,1,-1.0,1.0
433,433,0.8453522289865415,0.8,-1.0,410.0,563.0,-1.0,317.0,1,-1.0,1.0
434,434,-0.45749049631853,-0.5,1.0,296.0,751.0,1.0,523.0,1,-1.0,-1.0
435,435,0.06888926229529535,0.1,1.0,451.0,940.0,1.0,1249.0,1,1.0,1.0
436,436,-0.1100996137427167,-0.1,-1.0,257.0,622.0,0.0,4121.0,0,1.0,0.0
437,437,0.7082430903023634,0.7,1.0,470.0,861.0,1.0,399.0,1,1.0,1.0
438,438,0.058758705836393754,0.1,-1.0,322.0,991.0,-1.0,367.0,1,-1.0,1.0
439,439,-0.6314888516981867,-0.6,-1.0,393.0,849.0,-1.0,468.0,1,1.0,-1.0
440,440,0.8407488261909538,0.8,1.0,341.0,651.0,1.0,348.0,1,1.0,1.0
441,441,0.434657540837874,0.4,-1.0,308.0,874.0,-1.0,378.0,1,-1.0,1.0
442,442,-0.007745892875411942,-0.0,1.0,442.0,858.0,-1.0,380.0,0,-1.0,1.0
443,443,-0.06213861650602148,-0.1,1.0,285.0,682.0,-1.0,1063.0,0,-1.0,1.0
444,444,-0.5963486779651194,-0.6,-1.0,450.0,514.0,-1.0,1376.0,1,1.0,-1.0
445,445,-0.3669984253219093,-0.4,-1.0,480.0,985.0,-1.0,3055.0,1,1.0,-1.0
446,446,0.6353849962965946,0.6,-1.0,307.0,564.0,-1.0,319.0,1,-1.0,1.0
447,447,-0.09997744802111652,-0.1,1.0,394.0,735.0,1.0,3501.0,1,-1.0,-1.0
448,448,0.08805810073938714,0.1,1.0,261.0,930.0,1.0,1879.0,1,1.0,1.0
449,449,0.09147658805770753,0.1,1.0,440.0,515.0,1.0,3015.0,1,1.0,1.0
450,450,0.31825343176599385,0.3,-1.0,361.0,724.0,-1.0,925.0,1,-1.0,1.0
451,451,0.37334436708180274,0.4,1.0,298.0,503.0,1.0,799.0,1,1.0,1.0
452,452,-0.5224474968169979,-0.5,-1.0,307.0,701.0,0.0,3992.0,0,1.0,0.0
453,453,0.2841874799494163,0.3,1.0,490.0,893.0,1.0,927.0,1,1.0,1.0
454,454,-0.44525410931236026,-0.4,-1.0,338.0,622.0,-1.0,860.0,1,1.0,-1.0
455,455,-0.6396750796843351,-0.6,-1.0,453.0,770.0,-1.0,327.0,1,1.0,-1.0
456,456,-0.35288991835653816,-0.4,-1.0,498.0,504.0,-1.0,1188.0,1,1.0,-1.0
457,457,-0.3393258345621022,-0.3,-1.0,303.0,851.0,-1.0,866.0,1,1.0,-1.0
458,458,-0.6222815705602966,-0.6,1.0,265.0,932.0,1.0,423.0,1,-1.0,-1.0
459,459,0.861281517827882,0.9,1.0,272.0,736.0,1.0,362.0,1,1.0,1.0
460,460,0.2462652546929277,0.2,-1.0,479.0,814.0,-1.0,377.0,1,-1.0,1.0
461,461,0.3900278948928627,0.4,1.0,470.0,850.0,1.0,400.0,1,1.0,1.0
462,462,-0.7474366106844084,-0.7,1.0,477.0,803.0,-1.0,-150.0,0,-1.0,1.0
463,463,-0.7902759488144191,-0.8,-1.0,489.0,797.0,-1.0,704.0,1,1.0,-1.0
464,464,0.8446745093347189,0.8,1.0,293.0,828.0,1.0,249.0,1,1.0,1.0
465,465,0.4881520780219374,0.5,1.0,253.0,983.0,1.0,414.0,1,1.0,1.0
466,466,0.39808054264449944,0.4,1.0,430.0,891.0,1.0,689.0,1,1.0,1.0
467,467,0.1258418568651699,0.1,1.0,279.0,644.0,1.0,1257.0,1,1.0,1.0
468,468,-0.2735646075884698,-0.3,-1.0,465.0,791.0,-1.0,3584.0,1,1.0,-1.0
469,469,-0.7789107754734301,-0.8,-1.0,377.0,672.0,-1.0,551.0,1,1.0,-1.0
470,470,0.870466338960347,0.9,1.0,334.0,783.0,1.0,233.0,1,1.0,1.0
471,471,-0.3114777654635519,-0.3,-1.0,442.0,957.0,-1.0,891.0,1,1.0,-1.0
472,472,0.5128279357014106,0.5,1.0,483.0,603.0,1.0,334.0,1,1.0,1.0
473,473,0.18842337218593863,0.2,-1.0,409.0,989.0,-1.0,772.0,1,-1.0,1.0
474,474,-0.3739323169534162,-0.4,-1.0,475.0,742.0,-1.0,1363.0,1,1.0,-1.0
475,475,0.718501009728573,0.7,1.0,486.0,635.0,1.0,259.0,1,1.0,1.0
476,476,0.7629769908396457,0.8,1.0,405.0,873.0,1.0,202.0,1,1.0,1.0
477,477,0.17018660033846056,0.2,1.0,310.0,518.0,1.0,1002.0,1,1.0,1.0
478,478,-0.17564751011642687,-0.2,-1.0,359.0,553.0,0.0,4088.0,0,1.0,0.0
479,479,-0.49214123304796126,-0.5,-1.0,399.0,690.0,-1.0,361.0,1,1.0,-1.0
480,480,0.5325058992494528,0.5,1.0,337.0,916.0,1.0,227.0,1,1.0,1.0
481,481,0.19667916155061038,0.2,-1.0,419.0,787.0,-1.0,884.0,1,-1.0,1.0
482,482,0.8105321575567724,0.8,-1.0,380.0,866.0,1.0,-336.0,0,-1.0,-1.0
483,483,-0.6330845316721053,-0.6,-1.0,491.0,777.0,-1.0,372.0,1,1.0,-1.0
484,484,-0.41579939890492684,-0.4,1.0,359.0,878.0,1.0,1993.0,1,-1.0,-1.0
485,485,-0.7255918194814758,-0.7,1.0,281.0,721.0,1.0,208.0,1,-1.0,-1.0
486,486,0.4634506130629251,0.5,1.0,412.0,671.0,1.0,917.0,1,1.0,1.0
487,487,0.2019363519930163,0.2,1.0,341.0,996.0,1.0,553.0,1,1.0,1.0
488,488,-0.32097961463928437,-0.3,-1.0,389.0,681.0,-1.0,2060.0,1,1.0,-1.0
489,489,-0.028486854890536706,-0.0,1.0,437.0,662.0,-1.0,111.0,0,-1.0,1.0
490,490,0.8344386305021153,0.8,-1.0,284.0,550.0,-1.0,236.0,1,-1.0,1.0
491,491,0.8682565989705665,0.9,-1.0,286.0,835.0,-1.0,149.0,1,-1.0,1.0
492,492,-0.6518469169038569,-0.7,1.0,286.0,583.0,1.0,331.0,1,-1.0,-1.0
493,493,0.3924322170354214,0.4,1.0,468.0,607.0,1.0,505.0,1,1.0,1.0
494,494,0.8931537297884514,0.9,1.0,353.0,924.0,1.0,283.0,1,1.0,1.0
495,495,0.523940391944422,0.5,-1.0,289.0,790.0,-1.0,231.0,1,-1.0,1.0
496,496,-0.6513472030691684,-0.7,-1.0,476.0,795.0,-1.0,739.0,1,1.0,-1.0
497,497,-0.04429354543135411,-0.0,1.0,434.0,711.0,-1.0,2855.0,0,-1.0,1.0
498,498,0.7122385340365448,0.7,-1.0,499.0,523.0,-1.0,328.0,1,-1.0,1.0
499,499,0.20718084489160982,0.2,-1.0,374.0,700.0,-1.0,486.0,1,-1.0,1.0
500,500,0.3681777339351854,0.4,1.0,325.0,863.0,1.0,422.0,1,1.0,1.0
501,501,-0.6599426735619934,-0.7,1.0,261.0,537.0,1.0,242.0,1,-1.0,-1.0
502,502,-0.6804965104405405,-0.7,-1.0,268.0,672.0,-1.0,360.0,1,1.0,-1.0
503,503,-0.5094381961264232,-0.5,-1.0,384.0,657.0,-1.0,289.0,1,1.0,-1.0
504,504,0.42615182524210116,0.4,1.0,332.0,937.0,1.0,371.0,1,1.0,1.0
505,505,0.43409073519340635,0.4,-1.0,303.0,669.0,-1.0,298.0,1,-1.0,1.0
506,506,-0.8573673561165078,-0.9,-1.0,334.0,744.0,-1.0,582.0,1,1.0,-1.0
507,507,0.46771122440202595,0.5,-1.0,457.0,743.0,-1.0,130.0,1,-1.0,1.0
508,508,0.4790865402799921,0.5,1.0,462.0,816.0,1.0,512.0,1,1.0,1.0
509,509,0.5698496763251067,0.6,-1.0,396.0,869.0,-1.0,165.0,1,-1.0,1.0
510,510,-0.036183128429444156,-0.0,-1.0,386.0,610.0,1.0,3184.0,0,1.0,1.0
511,511,-0.07670753518586337,-0.1,-1.0,498.0,981.0,0.0,3521.0,0,1.0,0.0
512,512,0.530726881581148,0.5,1.0,274.0,861.0,1.0,525.0,1,1.0,1.0
513,513,0.3858097650336908,0.4,1.0,499.0,669.0,1.0,312.0,1,1.0,1.0
514,514,0.7268838196365649,0.7,1.0,332.0,694.0,1.0,384.0,1,1.0,1.0
515,515,0.491897244473004,0.5,-1.0,467.0,661.0,-1.0,132.0,1,-1.0,1.0
516,516,0.7936858197218662,0.8,1.0,273.0,882.0,1.0,125.0,1,1.0,1.0
517,517,0.5076713524358661,0.5,1.0,318.0,851.0,1.0,331.0,1,1.0,1.0
518,518,0.05151984601258952,0.1,-1.0,290.0,808.0,-1.0,462.0,1,-1.0,1.0
519,519,-0.22921057052145766,-0.2,1.0,420.0,867.0,1.0,153.0,1,-1.0,-1.0
520,520,0.35088785650190923,0.4,1.0,254.0,943.0,1.0,563.0,1,1.0,1.0
521,521,-0.3983387463923912,-0.4,1.0,290.0,807.0,1.0,1473.0,1,-1.0,-1.0
522,522,0.4787029404970081,0.5,1.0,342.0,860.0,1.0,278.0,1,1.0,1.0
523,523,0.22879636455977426,0.2,1.0,415.0,812.0,1.0,973.0,1,1.0,1.0
524,524,0.2526304541599925,0.3,1.0,424.0,761.0,1.0,865.0,1,1.0,1.0
525,525,0.5246165153585339,0.5,-1.0,347.0,651.0,-1.0,232.0,1,-1.0,1.0
526,526,-0.3247705736834938,-0.3,1.0,318.0,668.0,1.0,954.0,1,-1.0,-1.0
527,527,-0.4801597964632331,-0.5,1.0,304.0,768.0,1.0,278.0,1,-1.0,-1.0
528,528,0.502183027312238,0.5,-1.0,468.0,992.0,-1.0,320.0,1,-1.0,1.0
529,529,0.2722075981150357,0.3,1.0,347.0,570.0,1.0,723.0,1,1.0,1.0
530,530,0.6660372447041557,0.7,1.0,474.0,829.0,1.0,387.0,1,1.0,1.0
531,531,0.6117937463350275,0.6,1.0,358.0,702.0,1.0,420.0,1,1.0,1.0
532,532,0.07902865594951103,0.1,-1.0,295.0,757.0,-1.0,1328.0,1,-1.0,1.0
533,533,-0.4973706592375837,-0.5,-1.0,387.0,986.0,-1.0,807.0,1,1.0,-1.0
534,534,0.5342364085901218,0.5,-1.0,490.0,546.0,-1.0,304.0,1,-1.0,1.0
535,535,-0.01750593080567253,-0.0,-1.0,326.0,720.0,0.0,3954.0,0,1.0,0.0
536,536,0.09566208511696006,0.1,-1.0,396.0,874.0,1.0,-120.0,0,-1.0,-1.0
537,537,0.4890585344423123,0.5,1.0,268.0,737.0,1.0,705.0,1,1.0,1.0
538,538,0.7442124674357667,0.7,1.0,479.0,771.0,1.0,150.0,1,1.0,1.0
539,539,0.24611115202868838,0.2,1.0,402.0,842.0,1.0,516.0,1,1.0,1.0
540,540,-0.36922913283295544,-0.4,1.0,301.0,518.0,1.0,251.0,1,-1.0,-1.0
541,541,-0.8788182927784612,-0.9,1.0,268.0,985.0,1.0,217.0,1,-1.0,-1.0
542,542,-0.033575122873229724,-0.0,1.0,454.0,754.0,-1.0,2612.0,0,-1.0,1.0
543,543,-0.5406337178670935,-0.5,-1.0,480.0,642.0,-1.0,1078.0,1,1.0,-1.0
544,544,0.6594054716511973,0.7,-1.0,366.0,756.0,-1.0,348.0,1,-1.0,1.0
545,545,0.07624426766670633,0.1,-1.0,468.0,869.0,-1.0,-307.0,1,-1.0,1.0
546,546,-0.42881450929778364,-0.4,1.0,276.0,795.0,1.0,-601.0,1,-1.0,-1.0
547,547,0.05122391372736723,0.1,-1.0,391.0,687.0,-1.0,462.0,1,-1.0,1.0
548,548,0.27996611700358043,0.3,-1.0,400.0,790.0,-1.0,220.0,1,-1.0,1.0
549,549,-0.4506117050532682,-0.5,-1.0,452.0,761.0,1.0,27.0,0,1.0,1.0
550,550,0.2372534572599535,0.2,1.0,299.0,792.0,1.0,849.0,1,1.0,1.0
551,551,0.5966438987253385,0.6,1.0,445.0,923.0,1.0,472.0,1,1.0,1.0
552,552,-0.013911517064346346,-0.0,1.0,470.0,614.0,0.0,3916.0,0,-1.0,0.0
553,553,-0.5551267305804632,-0.6,-1.0,257.0,730.0,-1.0,763.0,1,1.0,-1.0
554,554,-0.479609733781365,-0.5,1.0,490.0,662.0,1.0,778.0,1,-1.0,-1.0
555,555,-0.5099803029415422,-0.5,-1.0,316.0,505.0,-1.0,989.0,1,1.0,-1.0
556,556,0.8019602455170362,0.8,1.0,350.0,911.0,1.0,149.0,1,1.0,1.0
557,557,-0.23424948847215554,-0.2,-1.0,313.0,635.0,-1.0,832.0,1,1.0,-1.0
558,558,-0.7237473631818219,-0.7,-1.0,373.0,769.0,-1.0,248.0,1,1.0,-1.0
559,559,-0.5550470831771461,-0.6,1.0,410.0,646.0,1.0,574.0,1,-1.0,-1.0
560,560,0.14307236174551885,0.1,-1.0,285.0,886.0,-1.0,659.0,1,-1.0,1.0
561,561,0.15545801189530273,0.2,1.0,443.0,646.0,1.0,1671.0,1,1.0,1.0
562,562,-0.5736635222168276,-0.6,-1.0,380.0,562.0,-1.0,268.0,1,1.0,-1.0
563,563,0.759377455830896,0.8,-1.0,372.0,687.0,-1.0,231.0,1,-1.0,1.0
564,564,-0.881435923633808,-0.9,1.0,419.0,890.0,1.0,651.0,1,-1.0,-1.0
565,565,-0.8963567138329223,-0.9,1.0,335.0,923.0,1.0,442.0,1,-1.0,-1.0
566,566,-0.8957275684144679,-0.9,-1.0,252.0,844.0,-1.0,214.0,1,1.0,-1.0
567,567,0.5650624209895,0.6,-1.0,326.0,732.0,-1.0,222.0,1,-1.0,1.0
568,568,0.33613907931857356,0.3,1.0,419.0,967.0,1.0,474.0,1,1.0,1.0
569,569,-0.34759890586719244,-0.3,-1.0,454.0,538.0,-1.0,1708.0,1,1.0,-1.0
570,570,-0.4052318058703435,-0.4,-1.0,449.0,767.0,-1.0,1194.0,1,1.0,-1.0
571,571,-0.004722552895114029,-0.0,-1.0,293.0,748.0,0.0,3959.0,0,1.0,0.0
572,572,0.8492436905444677,0.8,1.0,443.0,935.0,1.0,252.0,1,1.0,1.0
573,573,0.8875878681760158,0.9,1.0,440.0,789.0,1.0,201.0,1,1.0,1.0
574,574,0.8140538381967625,0.8,-1.0,335.0,654.0,-1.0,191.0,1,-1.0,1.0
575,575,-0.3055976284426092,-0.3,1.0,357.0,848.0,1.0,455.0,1,-1.0,-1.0
576,576,-0.08323161412156288,-0.1,-1.0,344.0,535.0,0.0,4121.0,0,1.0,0.0
577,577,0.7011742587276567,0.7,-1.0,339.0,954.0,-1.0,187.0,1,-1.0,1.0
578,578,0.4788943819306607,0.5,-1.0,456.0,954.0,-1.0,380.0,1,-1.0,1.0
579,579,-0.31885106760986504,-0.3,-1.0,414.0,700.0,-1.0,1046.0,1,1.0,-1.0
580,580,0.3641265831789794,0.4,1.0,338.0,893.0,1.0,639.0,1,1.0,1.0
581,581,-0.5932268191366983,-0.6,-1.0,356.0,721.0,-1.0,373.0,1,1.0,-1.0
582,582,0.27926284539483615,0.3,-1.0,492.0,926.0,-1.0,632.0,1,-1.0,1.0
583,583,-0.38759114346163137,-0.4,-1.0,349.0,858.0,-1.0,2853.0,1,1.0,-1.0
584,584,0.027780765682712594,0.0,-1.0,496.0,505.0,-1.0,2419.0,1,-1.0,1.0
585,585,-0.7076345309368537,-0.7,-1.0,470.0,949.0,-1.0,451.0,1,1.0,-1.0
586,586,0.2169166744001415,0.2,1.0,472.0,784.0,1.0,1214.0,1,1.0,1.0
587,587,0.05474100107362245,0.1,1.0,386.0,623.0,1.0,3031.0,1,1.0,1.0
588,588,-0.40255281167225115,-0.4,1.0,287.0,959.0,1.0,674.0,1,-1.0,-1.0
589,589,-0.6761339613486141,-0.7,-1.0,398.0,763.0,-1.0,379.0,1,1.0,-1.0
590,590,-0.45109598350835056,-0.5,1.0,420.0,634.0,1.0,396.0,1,-1.0,-1.0
591,591,-0.4267076060544797,-0.4,1.0,375.0,621.0,1.0,444.0,1,-1.0,-1.0
592,592,-0.3291999314198778,-0.3,-1.0,353.0,714.0,-1.0,813.0,1,1.0,-1.0
593,593,0.28199241094762295,0.3,1.0,411.0,759.0,1.0,350.0,1,1.0,1.0
594,594,0.6781999409330172,0.7,-1.0,278.0,820.0,-1.0,292.0,1,-1.0,1.0
595,595,-0.32292109406530356,-0.3,1.0,426.0,826.0,1.0,758.0,1,-1.0,-1.0
596,596,-0.7143509042529114,-0.7,-1.0,440.0,898.0,-1.0,292.0,1,1.0,-1.0
597,597,-0.893151807667949,-0.9,1.0,447.0,868.0,1.0,345.0,1,-1.0,-1.0
598,598,-0.8592345264551194,-0.9,1.0,406.0,798.0,1.0,156.0,1,-1.0,-1.0
599,599,-0.38428220901487253,-0.4,-1.0,428.0,732.0,-1.0,980.0,1,1.0,-1.0
600,600,0.808132573398345,0.8,1.0,454.0,964.0,1.0,372.0,1,1.0,1.0
601,601,-0.08083110543768313,-0.1,-1.0,485.0,510.0,0.0,4005.0,0,1.0,0.0
602,602,-0.25467583429287977,-0.3,-1.0,383.0,564.0,-1.0,1243.0,1,1.0,-1.0
603,603,-0.8074916671530181,-0.8,-1.0,441.0,777.0,-1.0,202.0,1,1.0,-1.0
604,604,0.3592272183398034,0.4,-1.0,380.0,611.0,-1.0,449.0,1,-1.0,1.0
605,605,-0.12767782182633924,-0.1,-1.0,358.0,831.0,0.0,3811.0,0,1.0,0.0
606,606,-0.6506725439557334,-0.7,1.0,293.0,737.0,1.0,270.0,1,-1.0,-1.0
607,607,-0.30991081800158016,-0.3,1.0,283.0,852.0,1.0,745.0,1,-1.0,-1.0
608,608,-0.6847779302808225,-0.7,1.0,336.0,999.0,1.0,175.0,1,-1.0,-1.0
609,609,0.8676751301682214,0.9,-1.0,337.0,596.0,-1.0,147.0,1,-1.0,1.0
610,610,0.7809557600001472,0.8,1.0,380.0,782.0,1.0,208.0,1,1.0,1.0
611,611,0.8234309193777533,0.8,-1.0,434.0,831.0,-1.0,245.0,1,-1.0,1.0
612,612,0.3567811867371765,0.4,-1.0,453.0,971.0,-1.0,606.0,1,-1.0,1.0
613,613,-0.12466018835127035,-0.1,-1.0,368.0,728.0,0.0,3904.0,0,1.0,0.0
614,614,0.3661703093765757,0.4,-1.0,328.0,799.0,-1.0,293.0,1,-1.0,1.0
615,615,-0.44183337387972843,-0.4,1.0,293.0,652.0,1.0,1485.0,1,-1.0,-1.0
616,616,0.013641267019516956,0.0,-1.0,489.0,765.0,-1.0,2286.0,1,-1.0,1.0
617,617,0.6953027661379457,0.7,1.0,442.0,884.0,1.0,244.0,1,1.0,1.0
618,618,-0.8370270222314959,-0.8,-1.0,474.0,860.0,-1.0,396.0,1,1.0,-1.0
619,619,0.41381241652116707,0.4,1.0,350.0,833.0,1.0,247.0,1,1.0,1.0
620,620,0.7889966927353541,0.8,-1.0,489.0,833.0,-1.0,138.0,1,-1.0,1.0
621,621,-0.04029384436768313,-0.0,1.0,368.0,792.0,0.0,3840.0,0,-1.0,0.0
622,622,0.37711585735576014,0.4,1.0,265.0,923.0,1.0,702.0,1,1.0,1.0
623,623,0.8882336924110749,0.9,-1.0,327.0,550.0,-1.0,103.0,1,-1.0,1.0
624,624,0.8260825123346717,0.8,-1.0,293.0,842.0,-1.0,155.0,1,-1.0,1.0
625,625,0.47097655285788054,0.5,-1.0,278.0,910.0,-1.0,-118.0,1,-1.0,1.0
626,626,-0.7004169527791037,-0.7,1.0,443.0,761.0,1.0,126.0,1,-1.0,-1.0
627,627,-0.3798347168408118,-0.4,-1.0,434.0,582.0,-1.0,1814.0,1,1.0,-1.0
628,628,-0.6147336636757352,-0.6,1.0,465.0,696.0,1.0,229.0,1,-1.0,-1.0
629,629,-0.4401193802219821,-0.4,-1.0,431.0,891.0,-1.0,1108.0,1,1.0,-1.0
630,630,0.7209800469779352,0.7,-1.0,450.0,925.0,-1.0,145.0,1,-1.0,1.0
631,631,0.6329919244539045,0.6,1.0,373.0,501.0,1.0,536.0,1,1.0,1.0
632,632,0.8873912687590394,0.9,-1.0,394.0,690.0,-1.0,256.0,1,-1.0,1.0
633,633,-0.7727644912238718,-0.8,-1.0,260.0,895.0,0.0,3845.0,0,1.0,0.0
634,634,0.18064926576818474,0.2,-1.0,332.0,527.0,-1.0,2201.0,1,-1.0,1.0
635,635,0.5996923328242122,0.6,1.0,265.0,561.0,1.0,264.0,1,1.0,1.0
636,636,0.6110406498337263,0.6,1.0,294.0,842.0,1.0,264.0,1,1.0,1.0
637,637,-0.45844133005354626,-0.5,1.0,434.0,528.0,1.0,608.0,1,-1.0,-1.0
638,638,-0.4283674577076024,-0.4,1.0,410.0,921.0,1.0,639.0,1,-1.0,-1.0
639,639,-0.44679502715701425,-0.4,1.0,384.0,565.0,1.0,211.0,1,-1.0,-1.0
640,640,-0.36987322759312724,-0.4,-1.0,332.0,754.0,-1.0,1014.0,1,1.0,-1.0
641,641,0.1886099855500697,0.2,1.0,461.0,670.0,1.0,899.0,1,1.0,1.0
642,642,0.4970381712129964,0.5,-1.0,448.0,861.0,-1.0,211.0,1,-1.0,1.0
643,643,0.7308248914421308,0.7,-1.0,395.0,797.0,-1.0,288.0,1,-1.0,1.0
644,644,0.8203454606128685,0.8,1.0,357.0,839.0,1.0,324.0,1,1.0,1.0
645,645,-0.15946611083885798,-0.2,1.0,291.0,999.0,1.0,3480.0,1,-1.0,-1.0
646,646,-0.6080036066023129,-0.6,1.0,488.0,585.0,1.0,157.0,1,-1.0,-1.0
647,647,-0.554301669379671,-0.6,-1.0,324.0,933.0,-1.0,523.0,1,1.0,-1.0
648,648,0.3291294285527312,0.3,1.0,283.0,729.0,1.0,388.0,1,1.0,1.0
649,649,-0.2925402569345964,-0.3,1.0,293.0,996.0,1.0,181.0,1,-1.0,-1.0
650,650,-0.5178152832726686,-0.5,-1.0,283.0,568.0,-1.0,589.0,1,1.0,-1.0
651,651,0.3124947373177257,0.3,1.0,415.0,943.0,1.0,862.0,1,1.0,1.0
652,652,0.8838912613780913,0.9,-1.0,256.0,811.0,-1.0,123.0,1,-1.0,1.0
653,653,-0.09576462985850065,-0.1,-1.0,493.0,692.0,0.0,3815.0,0,1.0,0.0
654,654,-0.3637858740352611,-0.4,1.0,254.0,644.0,1.0,522.0,1,-1.0,-1.0
655,655,-0.3202650880117621,-0.3,1.0,347.0,937.0,-1.0,-204.0,0,-1.0,1.0
656,656,0.16344004929426437,0.2,-1.0,265.0,947.0,-1.0,898.0,1,-1.0,1.0
657,657,0.49505480641227584,0.5,-1.0,315.0,597.0,-1.0,228.0,1,-1.0,1.0
658,658,-0.671710785669684,-0.7,-1.0,282.0,670.0,-1.0,278.0,1,1.0,-1.0
659,659,-0.7111976171286662,-0.7,1.0,289.0,975.0,1.0,306.0,1,-1.0,-1.0
660,660,0.7283315330890915,0.7,1.0,319.0,596.0,1.0,235.0,1,1.0,1.0
661,661,-0.021418008241741893,-0.0,1.0,456.0,811.0,0.0,3733.0,0,-1.0,0.0
662,662,0.05253483354989519,0.1,-1.0,311.0,959.0,-1.0,3530.0,1,-1.0,1.0
663,663,0.7198798888868473,0.7,1.0,349.0,537.0,1.0,304.0,1,1.0,1.0
664,664,-0.3649002912430309,-0.4,-1.0,389.0,721.0,-1.0,530.0,1,1.0,-1.0
665,665,-0.1242841432242957,-0.1,-1.0,379.0,732.0,0.0,3889.0,0,1.0,0.0
666,666,0.4382084881721363,0.4,1.0,303.0,953.0,1.0,764.0,1,1.0,1.0
667,667,-0.8023710084384831,-0.8,-1.0,287.0,665.0,-1.0,738.0,1,1.0,-1.0
668,668,-0.3227126307362851,-0.3,1.0,289.0,918.0,1.0,1163.0,1,-1.0,-1.0
669,669,0.06134720701297336,0.1,-1.0,325.0,679.0,1.0,1876.0,0,-1.0,-1.0
670,670,-0.4841135864161953,-0.5,1.0,418.0,704.0,1.0,878.0,1,-1.0,-1.0
671,671,-0.6770058859561792,-0.7,-1.0,411.0,658.0,-1.0,861.0,1,1.0,-1.0
672,672,-0.7403711923660696,-0.7,-1.0,423.0,506.0,0.0,4071.0,0,1.0,0.0
673,673,0.010132880178994164,0.0,-1.0,407.0,596.0,0.0,3997.0,0,-1.0,0.0
674,674,-0.5520701214217435,-0.6,1.0,391.0,745.0,1.0,234.0,1,-1.0,-1.0
675,675,0.7457734247667763,0.7,-1.0,438.0,848.0,-1.0,284.0,1,-1.0,1.0
676,676,-0.16928571942139237,-0.2,-1.0,267.0,733.0,-1.0,1300.0,1,1.0,-1.0
677,677,0.5897658804691729,0.6,1.0,360.0,726.0,1.0,164.0,1,1.0,1.0
678,678,0.5507976781499718,0.6,-1.0,491.0,915.0,-1.0,374.0,1,-1.0,1.0
679,679,-0.5431626033965431,-0.5,1.0,293.0,835.0,1.0,542.0,1,-1.0,-1.0
680,680,-0.23916413072145792,-0.2,-1.0,367.0,535.0,0.0,4098.0,0,1.0,0.0
681,681,0.8217285067573369,0.8,1.0,392.0,940.0,1.0,198.0,1,1.0,1.0
682,682,0.08644831848202039,0.1,-1.0,396.0,769.0,-1.0,995.0,1,-1.0,1.0
683,683,-0.07654219907967963,-0.1,-1.0,400.0,944.0,0.0,3656.0,0,1.0,0.0
684,684,0.07119049722840898,0.1,-1.0,372.0,757.0,-1.0,481.0,1,-1.0,1.0
685,685,-0.7870579659992645,-0.8,1.0,309.0,672.0,1.0,539.0,1,-1.0,-1.0
686,686,0.16281235947403483,0.2,1.0,446.0,565.0,1.0,2009.0,1,1.0,1.0
687,687,-0.7077583561052171,-0.7,1.0,337.0,718.0,1.0,275.0,1,-1.0,-1.0
688,688,-0.3369996278293125,-0.3,-1.0,270.0,651.0,-1.0,2799.0,1,1.0,-1.0
689,689,0.4451160527967136,0.4,1.0,453.0,717.0,1.0,320.0,1,1.0,1.0
690,690,-0.8641209722261609,-0.9,1.0,485.0,834.0,1.0,331.0,1,-1.0,-1.0
691,691,0.026107755856922377,0.0,-1.0,320.0,585.0,-1.0,1675.0,1,-1.0,1.0
692,692,-0.5432238371432572,-0.5,1.0,468.0,636.0,1.0,176.0,1,-1.0,-1.0
693,693,-0.8080410766746443,-0.8,1.0,327.0,695.0,1.0,218.0,1,-1.0,-1.0
694,694,-0.8518387339218105,-0.9,1.0,436.0,586.0,1.0,458.0,1,-1.0,-1.0
695,695,-0.7000330993327584,-0.7,-1.0,369.0,661.0,-1.0,490.0,1,1.0,-1.0
696,696,0.379002180914516,0.4,-1.0,400.0,809.0,1.0,-9.0,0,-1.0,-1.0
697,697,0.6270933842243752,0.6,-1.0,268.0,719.0,-1.0,333.0,1,-1.0,1.0
698,698,0.734027445908087,0.7,1.0,482.0,993.0,1.0,435.0,1,1.0,1.0
699,699,-0.18710177982362064,-0.2,1.0,269.0,919.0,1.0,1842.0,1,-1.0,-1.0
700,700,-0.8788359451420816,-0.9,1.0,467.0,521.0,1.0,212.0,1,-1.0,-1.0
701,701,-0.6101703716860317,-0.6,-1.0,381.0,633.0,0.0,3986.0,0,1.0,0.0
702,702,0.6437403470538506,0.6,1.0,376.0,932.0,1.0,452.0,1,1.0,1.0
703,703,-0.31378714495378834,-0.3,1.0,498.0,631.0,1.0,1461.0,1,-1.0,-1.0
704,704,0.45961254042254784,0.5,1.0,393.0,653.0,1.0,164.0,1,1.0,1.0
705,705,-0.5054930697172224,-0.5,1.0,321.0,822.0,1.0,557.0,1,-1.0,-1.0
706,706,-0.673429189030724,-0.7,-1.0,405.0,652.0,0.0,3943.0,0,1.0,0.0
707,707,-0.3799774041321081,-0.4,1.0,451.0,883.0,1.0,656.0,1,-1.0,-1.0
708,708,-0.47340089610611574,-0.5,-1.0,379.0,932.0,-1.0,749.0,1,1.0,-1.0
709,709,0.602800154974999,0.6,-1.0,404.0,957.0,-1.0,519.0,1,-1.0,1.0
710,710,0.5603426009715718,0.6,-1.0,293.0,684.0,-1.0,363.0,1,-1.0,1.0
711,711,0.7851484184209222,0.8,1.0,355.0,860.0,1.0,185.0,1,1.0,1.0
712,712,0.3325547218039545,0.3,-1.0,400.0,814.0,-1.0,296.0,1,-1.0,1.0
713,713,-0.20120139286835337,-0.2,1.0,292.0,561.0,1.0,677.0,1,-1.0,-1.0
714,714,-0.32652269633323405,-0.3,1.0,441.0,771.0,1.0,568.0,1,-1.0,-1.0
715,715,0.6328299587795826,0.6,1.0,281.0,845.0,1.0,504.0,1,1.0,1.0
716,716,0.7150175648279194,0.7,1.0,402.0,841.0,1.0,147.0,1,1.0,1.0
717,717,-0.4322073672102304,-0.4,-1.0,404.0,850.0,-1.0,1276.0,1,1.0,-1.0
718,718,0.8087809814350825,0.8,-1.0,494.0,904.0,1.0,-738.0,0,-1.0,-1.0
719,719,0.034030296555115025,0.0,1.0,259.0,919.0,0.0,3822.0,0,1.0,0.0
720,720,-0.7447640096238953,-0.7,1.0,421.0,940.0,1.0,249.0,1,-1.0,-1.0
721,721,-0.8674473083111204,-0.9,1.0,284.0,667.0,1.0,259.0,1,-1.0,-1.0
722,722,0.3658606972352413,0.4,-1.0,434.0,743.0,-1.0,473.0,1,-1.0,1.0
723,723,0.8370681923414468,0.8,1.0,450.0,753.0,1.0,237.0,1,1.0,1.0
724,724,-0.11330701995943782,-0.1,1.0,387.0,876.0,-1.0,257.0,0,-1.0,1.0
725,725,-0.31751951575360726,-0.3,-1.0,316.0,834.0,-1.0,3010.0,1,1.0,-1.0
726,726,-0.5139671092436268,-0.5,-1.0,308.0,643.0,-1.0,509.0,1,1.0,-1.0
727,727,0.04925808835135259,0.0,-1.0,308.0,625.0,-1.0,1257.0,1,-1.0,1.0
728,728,-0.0649485484445056,-0.1,-1.0,409.0,720.0,0.0,3871.0,0,1.0,0.0
729,729,0.6386062768704325,0.6,-1.0,374.0,619.0,-1.0,357.0,1,-1.0,1.0
730,730,0.04043504161253475,0.0,1.0,345.0,650.0,1.0,1545.0,1,1.0,1.0
731,731,-0.45052592166473177,-0.5,1.0,299.0,654.0,1.0,447.0,1,-1.0,-1.0
732,732,0.09967627472784579,0.1,-1.0,335.0,709.0,-1.0,3216.0,1,-1.0,1.0
733,733,0.7489875563788316,0.7,1.0,395.0,883.0,1.0,262.0,1,1.0,1.0
734,734,-0.06461894720305583,-0.1,-1.0,254.0,677.0,0.0,4069.0,0,1.0,0.0
735,735,-0.4228138919626475,-0.4,-1.0,344.0,791.0,-1.0,1935.0,1,1.0,-1.0
736,736,0.6580876309370883,0.7,-1.0,357.0,619.0,-1.0,284.0,1,-1.0,1.0
737,737,0.8535965077953725,0.9,1.0,372.0,652.0,1.0,306.0,1,1.0,1.0
738,738,0.7499536506536829,0.7,1.0,363.0,836.0,1.0,161.0,1,1.0,1.0
739,739,0.17724535401519603,0.2,-1.0,482.0,578.0,-1.0,380.0,1,-1.0,1.0
740,740,0.048916735317175664,0.0,-1.0,467.0,723.0,-1.0,1180.0,1,-1.0,1.0
741,741,-0.4462354872342425,-0.4,-1.0,267.0,917.0,-1.0,1506.0,1,1.0,-1.0
742,742,0.5292925246025956,0.5,-1.0,499.0,705.0,-1.0,196.0,1,-1.0,1.0
743,743,-0.4095655937105748,-0.4,-1.0,381.0,595.0,-1.0,2124.0,1,1.0,-1.0
744,744,-0.1440258358308314,-0.1,-1.0,381.0,993.0,0.0,3626.0,0,1.0,0.0
745,745,-0.4666159702089635,-0.5,1.0,490.0,943.0,1.0,1077.0,1,-1.0,-1.0
746,746,0.09890498547619708,0.1,-1.0,468.0,914.0,1.0,-212.0,0,-1.0,-1.0
747,747,0.8855580540771423,0.9,-1.0,422.0,607.0,-1.0,111.0,1,-1.0,1.0
748,748,-0.056875713305981956,-0.1,1.0,493.0,623.0,0.0,3884.0,0,-1.0,0.0
749,749,0.5007226142753655,0.5,-1.0,450.0,662.0,-1.0,98.0,1,-1.0,1.0
750,750,0.49853729247410683,0.5,-1.0,413.0,674.0,-1.0,433.0,1,-1.0,1.0
751,751,-0.3893344130323304,-0.4,1.0,405.0,845.0,1.0,760.0,1,-1.0,-1.0
752,752,-0.07748456789901059,-0.1,1.0,462.0,732.0,0.0,3806.0,0,-1.0,0.0
753,753,0.840165358657979,0.8,-1.0,331.0,570.0,-1.0,179.0,1,-1.0,1.0
754,754,0.1515399142906121,0.2,1.0,287.0,807.0,1.0,626.0,1,1.0,1.0
755,755,0.34356541342942293,0.3,-1.0,403.0,979.0,-1.0,528.0,1,-1.0,1.0
756,756,-0.5419640409697866,-0.5,1.0,431.0,514.0,1.0,155.0,1,-1.0,-1.0
757,757,0.4188627714708467,0.4,-1.0,260.0,987.0,-1.0,743.0,1,-1.0,1.0
758,758,0.7678924992865669,0.8,1.0,325.0,923.0,1.0,82.0,1,1.0,1.0
759,759,-0.8655915502426924,-0.9,-1.0,384.0,760.0,-1.0,336.0,1,1.0,-1.0
760,760,-0.1611811442812987,-0.2,-1.0,266.0,539.0,-1.0,2775.0,1,1.0,-1.0
761,761,0.8884326564118908,0.9,1.0,282.0,758.0,1.0,240.0,1,1.0,1.0
762,762,0.461624860837644,0.5,1.0,309.0,619.0,1.0,752.0,1,1.0,1.0
763,763,0.29012981187868403,0.3,1.0,491.0,678.0,1.0,791.0,1,1.0,1.0
764,764,0.1213444523406918,0.1,-1.0,296.0,626.0,-1.0,1458.0,1,-1.0,1.0
765,765,0.7662394080169014,0.8,-1.0,496.0,565.0,-1.0,159.0,1,-1.0,1.0
766,766,-0.2910871386611654,-0.3,-1.0,331.0,980.0,-1.0,2599.0,1,1.0,-1.0
767,767,0.3551203915138256,0.4,1.0,465.0,608.0,1.0,1107.0,1,1.0,1.0
768,768,-0.16067360892473126,-0.2,-1.0,334.0,994.0,-1.0,1822.0,1,1.0,-1.0
769,769,-0.8227198172005036,-0.8,-1.0,426.0,885.0,-1.0,349.0,1,1.0,-1.0
770,770,0.28717437274745794,0.3,-1.0,365.0,913.0,-1.0,-308.0,1,-1.0,1.0
771,771,-0.7658084277530388,-0.8,-1.0,279.0,877.0,-1.0,224.0,1,1.0,-1.0
772,772,-0.05396462235962707,-0.1,-1.0,345.0,946.0,0.0,3709.0,0,1.0,0.0
773,773,-0.225213093886507,-0.2,1.0,437.0,842.0,1.0,3001.0,1,-1.0,-1.0
774,774,0.07288580091343788,0.1,-1.0,389.0,512.0,-1.0,1609.0,1,-1.0,1.0
775,775,-0.08209819862206791,-0.1,1.0,345.0,718.0,0.0,3937.0,0,-1.0,0.0
776,776,0.38150354731978575,0.4,-1.0,428.0,593.0,-1.0,689.0,1,-1.0,1.0
777,777,-0.23224861986744094,-0.2,1.0,474.0,834.0,1.0,592.0,1,-1.0,-1.0
778,778,-0.7694840204952932,-0.8,-1.0,470.0,647.0,-1.0,313.0,1,1.0,-1.0
779,779,0.656249648328794,0.7,1.0,493.0,582.0,1.0,495.0,1,1.0,1.0
780,780,-0.42878429625924086,-0.4,-1.0,345.0,968.0,-1.0,997.0,1,1.0,-1.0
781,781,0.19205513496449889,0.2,1.0,459.0,984.0,1.0,1397.0,1,1.0,1.0
782,782,-0.7557716880911256,-0.8,1.0,475.0,568.0,1.0,277.0,1,-1.0,-1.0
783,783,0.8907665149367746,0.9,-1.0,403.0,944.0,-1.0,323.0,1,-1.0,1.0
784,784,0.6839833401096914,0.7,1.0,462.0,752.0,1.0,626.0,1,1.0,1.0
785,785,0.612197003582171,0.6,-1.0,331.0,734.0,-1.0,355.0,1,-1.0,1.0
786,786,-0.361067318017519,-0.4,-1.0,461.0,647.0,-1.0,1142.0,1,1.0,-1.0
787,787,0.3850840251016351,0.4,1.0,499.0,509.0,1.0,1162.0,1,1.0,1.0
788,788,-0.6208302394489911,-0.6,-1.0,458.0,669.0,-1.0,443.0,1,1.0,-1.0
789,789,-0.22353379759527126,-0.2,1.0,362.0,524.0,1.0,884.0,1,-1.0,-1.0
790,790,-0.4264649990376871,-0.4,1.0,343.0,798.0,-1.0,-61.0,0,-1.0,1.0
791,791,0.20431966037804583,0.2,1.0,411.0,765.0,1.0,834.0,1,1.0,1.0
792,792,0.5581291918993029,0.6,1.0,496.0,758.0,1.0,316.0,1,1.0,1.0
793,793,0.4900568096555801,0.5,-1.0,317.0,681.0,1.0,-58.0,0,-1.0,-1.0
794,794,-0.6911185467915633,-0.7,1.0,411.0,669.0,1.0,310.0,1,-1.0,-1.0
795,795,-0.8592393063087901,-0.9,-1.0,439.0,762.0,-1.0,389.0,1,1.0,-1.0
796,796,-0.36951548156166525,-0.4,1.0,405.0,742.0,1.0,613.0,1,-1.0,-1.0
797,797,-0.49516829565949105,-0.5,1.0,450.0,603.0,1.0,127.0,1,-1.0,-1.0
798,798,-0.6082511027960125,-0.6,1.0,328.0,512.0,1.0,120.0,1,-1.0,-1.0
799,799,-0.5389978514366137,-0.5,-1.0,487.0,870.0,-1.0,783.0,1,1.0,-1.0
800,800,0.22610003169747162,0.2,-1.0,376.0,819.0,-1.0,775.0,1,-1.0,1.0
801,801,0.11271427298277381,0.1,-1.0,260.0,833.0,-1.0,617.0,1,-1.0,1.0
802,802,-0.4530249708691577,-0.5,-1.0,426.0,839.0,-1.0,615.0,1,1.0,-1.0
803,803,0.16940418436459959,0.2,1.0,331.0,513.0,1.0,1056.0,1,1.0,1.0
804,804,0.6690708484889377,0.7,1.0,310.0,574.0,1.0,326.0,1,1.0,1.0
805,805,0.7621114214053458,0.8,-1.0,338.0,941.0,-1.0,141.0,1,-1.0,1.0
806,806,-0.047597745278493586,-0.0,-1.0,418.0,945.0,0.0,3637.0,0,1.0,0.0
807,807,0.385969239531358,0.4,1.0,390.0,742.0,1.0,718.0,1,1.0,1.0
808,808,0.03122712955121032,0.0,1.0,364.0,983.0,1.0,3593.0,1,1.0,1.0
809,809,-0.5158290893461421,-0.5,1.0,443.0,881.0,1.0,176.0,1,-1.0,-1.0
810,810,0.7231482749467285,0.7,1.0,370.0,518.0,1.0,262.0,1,1.0,1.0
811,811,0.7067910065428472,0.7,1.0,396.0,531.0,1.0,423.0,1,1.0,1.0
812,812,0.07983069945743893,0.1,-1.0,349.0,803.0,-1.0,3638.0,1,-1.0,1.0
813,813,0.4394334155035883,0.4,-1.0,425.0,989.0,1.0,-634.0,0,-1.0,-1.0
814,814,0.1056055620910864,0.1,-1.0,499.0,558.0,-1.0,1253.0,1,-1.0,1.0
815,815,0.7436824200026616,0.7,-1.0,265.0,787.0,1.0,-502.0,0,-1.0,-1.0
816,816,0.735106320860118,0.7,1.0,258.0,588.0,1.0,224.0,1,1.0,1.0
817,817,0.36743377618363426,0.4,1.0,412.0,763.0,1.0,1065.0,1,1.0,1.0
818,818,0.4316251706541937,0.4,-1.0,379.0,532.0,-1.0,299.0,1,-1.0,1.0
819,819,-0.48612679216287197,-0.5,1.0,479.0,929.0,1.0,352.0,1,-1.0,-1.0
820,820,0.29418652594764005,0.3,1.0,311.0,949.0,1.0,600.0,1,1.0,1.0
821,821,-0.2538156520221506,-0.3,-1.0,450.0,570.0,-1.0,1230.0,1,1.0,-1.0
822,822,-0.5141107497103101,-0.5,1.0,343.0,683.0,1.0,734.0,1,-1.0,-1.0
823,823,-0.03322367240552049,-0.0,1.0,297.0,621.0,-1.0,3142.0,0,-1.0,1.0
824,824,0.4866995839348899,0.5,1.0,261.0,743.0,1.0,366.0,1,1.0,1.0
825,825,0.6984016395860179,0.7,-1.0,407.0,742.0,-1.0,131.0,1,-1.0,1.0
826,826,-0.24335415833647345,-0.2,1.0,451.0,501.0,1.0,618.0,1,-1.0,-1.0
827,827,-0.22329333159654863,-0.2,1.0,495.0,961.0,-1.0,-26.0,0,-1.0,1.0
828,828,-0.6086472263512589,-0.6,1.0,265.0,825.0,1.0,460.0,1,-1.0,-1.0
829,829,-0.7565831081256723,-0.8,-1.0,419.0,693.0,0.0,3888.0,0,1.0,0.0
830,830,0.6035715847951454,0.6,-1.0,254.0,518.0,-1.0,298.0,1,-1.0,1.0
831,831,-0.7238287114291178,-0.7,-1.0,262.0,704.0,0.0,4034.0,0,1.0,0.0
832,832,0.05074777069212888,0.1,1.0,407.0,735.0,1.0,1648.0,1,1.0,1.0
833,833,0.5479749814826745,0.5,-1.0,251.0,768.0,-1.0,361.0,1,-1.0,1.0
834,834,-0.447375385247637,-0.4,-1.0,403.0,616.0,-1.0,941.0,1,1.0,-1.0
835,835,-0.8805475311670556,-0.9,-1.0,443.0,534.0,0.0,4023.0,0,1.0,0.0
836,836,-0.5085114249965641,-0.5,1.0,463.0,527.0,1.0,340.0,1,-1.0,-1.0
837,837,0.5334764626450045,0.5,1.0,274.0,576.0,1.0,620.0,1,1.0,1.0
838,838,-0.21859149709185988,-0.2,-1.0,412.0,875.0,-1.0,2223.0,1,1.0,-1.0
839,839,-0.7004148398074378,-0.7,-1.0,485.0,821.0,-1.0,164.0,1,1.0,-1.0
840,840,0.8782440098604388,0.9,1.0,296.0,949.0,1.0,155.0,1,1.0,1.0
841,841,0.10783888057785618,0.1,1.0,306.0,534.0,1.0,1440.0,1,1.0,1.0
842,842,0.24323656044409703,0.2,-1.0,380.0,632.0,-1.0,828.0,1,-1.0,1.0
843,843,-0.6108094547895269,-0.6,1.0,431.0,628.0,1.0,361.0,1,-1.0,-1.0
844,844,-0.7494103255153428,-0.7,-1.0,466.0,692.0,-1.0,392.0,1,1.0,-1.0
845,845,0.21553814129102078,0.2,-1.0,317.0,770.0,-1.0,923.0,1,-1.0,1.0
846,846,0.02402969397335808,0.0,-1.0,304.0,599.0,-1.0,1707.0,1,-1.0,1.0
847,847,-0.07123283199207131,-0.1,-1.0,431.0,575.0,0.0,3994.0,0,1.0,0.0
848,848,-0.8725906715014248,-0.9,1.0,451.0,782.0,1.0,357.0,1,-1.0,-1.0
849,849,-0.8583244369300109,-0.9,1.0,450.0,899.0,1.0,151.0,1,-1.0,-1.0
850,850,0.10307788694170361,0.1,1.0,385.0,508.0,1.0,1577.0,1,1.0,1.0
851,851,-0.024623830990801232,-0.0,-1.0,458.0,850.0,0.0,3692.0,0,1.0,0.0
852,852,0.1622805234162904,0.2,1.0,422.0,740.0,1.0,2788.0,1,1.0,1.0
853,853,0.022949009077922855,0.0,-1.0,291.0,977.0,-1.0,1792.0,1,-1.0,1.0
854,854,0.06287256697618138,0.1,1.0,489.0,960.0,1.0,851.0,1,1.0,1.0
855,855,-0.15279447548098757,-0.2,-1.0,447.0,588.0,-1.0,3255.0,1,1.0,-1.0
856,856,0.3112267309219733,0.3,1.0,382.0,749.0,1.0,659.0,1,1.0,1.0
857,857,0.5083767870710098,0.5,1.0,324.0,511.0,1.0,165.0,1,1.0,1.0
858,858,0.09632171247413446,0.1,-1.0,472.0,916.0,-1.0,1422.0,1,-1.0,1.0
859,859,0.535206298369446,0.5,-1.0,448.0,927.0,-1.0,185.0,1,-1.0,1.0
860,860,-0.11099686917445117,-0.1,1.0,449.0,595.0,0.0,3956.0,0,-1.0,0.0
861,861,0.7758598774232003,0.8,1.0,362.0,705.0,1.0,353.0,1,1.0,1.0
862,862,-0.8331682217372596,-0.8,-1.0,376.0,778.0,-1.0,406.0,1,1.0,-1.0
863,863,-0.5105193187038819,-0.5,-1.0,374.0,681.0,-1.0,1125.0,1,1.0,-1.0
864,864,-0.761225502260626,-0.8,-1.0,491.0,729.0,0.0,3780.0,0,1.0,0.0
865,865,-0.6560002450246636,-0.7,1.0,341.0,612.0,1.0,127.0,1,-1.0,-1.0
866,866,-0.7938189323403791,-0.8,-1.0,270.0,722.0,-1.0,428.0,1,1.0,-1.0
867,867,0.04690002349749167,0.0,1.0,311.0,707.0,1.0,2792.0,1,1.0,1.0
868,868,-0.8118837968900761,-0.8,-1.0,488.0,630.0,-1.0,342.0,1,1.0,-1.0
869,869,-0.1744780190842803,-0.2,1.0,461.0,525.0,1.0,3914.0,1,-1.0,-1.0
870,870,0.3921679844341551,0.4,-1.0,456.0,614.0,-1.0,290.0,1,-1.0,1.0
871,871,-0.47512592435101925,-0.5,1.0,396.0,988.0,1.0,686.0,1,-1.0,-1.0
872,872,0.09987473816123293,0.1,-1.0,342.0,715.0,-1.0,2993.0,1,-1.0,1.0
873,873,0.5391781956005394,0.5,-1.0,265.0,766.0,-1.0,299.0,1,-1.0,1.0
874,874,-0.29859956567307255,-0.3,-1.0,396.0,985.0,0.0,3619.0,0,1.0,0.0
875,875,0.3741850441441933,0.4,1.0,339.0,809.0,1.0,582.0,1,1.0,1.0
876,876,0.2666797965583646,0.3,1.0,457.0,665.0,1.0,208.0,1,1.0,1.0
877,877,0.724453730921364,0.7,-1.0,456.0,974.0,-1.0,270.0,1,-1.0,1.0
878,878,-0.04429512902769517,-0.0,1.0,427.0,586.0,-1.0,1937.0,0,-1.0,1.0
879,879,-0.37393366672102324,-0.4,-1.0,377.0,909.0,-1.0,504.0,1,1.0,-1.0
880,880,-0.3052351730059808,-0.3,1.0,305.0,694.0,1.0,1161.0,1,-1.0,-1.0
881,881,0.49744723226928456,0.5,1.0,353.0,723.0,1.0,554.0,1,1.0,1.0
882,882,-0.3447473923716001,-0.3,-1.0,250.0,642.0,-1.0,448.0,1,1.0,-1.0
883,883,-0.6551661019555212,-0.7,-1.0,423.0,503.0,0.0,4074.0,0,1.0,0.0
884,884,-0.38787808823647585,-0.4,1.0,485.0,932.0,1.0,1093.0,1,-1.0,-1.0
885,885,0.8308154079179887,0.8,-1.0,363.0,806.0,-1.0,141.0,1,-1.0,1.0
886,886,-0.5765691951527444,-0.6,-1.0,269.0,635.0,-1.0,756.0,1,1.0,-1.0
887,887,-0.5899787900056994,-0.6,1.0,470.0,667.0,1.0,483.0,1,-1.0,-1.0
888,888,-0.4064397744909562,-0.4,1.0,466.0,774.0,1.0,810.0,1,-1.0,-1.0
889,889,-0.05623348210746104,-0.1,-1.0,490.0,517.0,1.0,2393.0,0,1.0,1.0
890,890,0.7926720076636854,0.8,1.0,354.0,925.0,1.0,221.0,1,1.0,1.0
891,891,0.4620798722257541,0.5,-1.0,489.0,863.0,-1.0,238.0,1,-1.0,1.0
892,892,0.6838188456105642,0.7,-1.0,313.0,740.0,-1.0,-273.0,1,-1.0,1.0
893,893,-0.30137065156159804,-0.3,-1.0,252.0,625.0,-1.0,2333.0,1,1.0,-1.0
894,894,-0.036502023580787246,-0.0,-1.0,327.0,634.0,0.0,4039.0,0,1.0,0.0
895,895,0.09356828370878378,0.1,-1.0,469.0,781.0,-1.0,850.0,1,-1.0,1.0
896,896,-0.8491996058517072,-0.8,-1.0,448.0,576.0,-1.0,1056.0,1,1.0,-1.0
897,897,-0.1620133989870015,-0.2,-1.0,298.0,792.0,-1.0,1870.0,1,1.0,-1.0
898,898,-0.6044051352326267,-0.6,-1.0,453.0,610.0,-1.0,437.0,1,1.0,-1.0
899,899,0.41417442620354306,0.4,-1.0,462.0,990.0,-1.0,328.0,1,-1.0,1.0
900,900,-0.624903105713972,-0.6,1.0,284.0,607.0,1.0,259.0,1,-1.0,-1.0
901,901,0.036311838586136846,0.0,1.0,471.0,720.0,1.0,1509.0,1,1.0,1.0
902,902,-0.6401230809443423,-0.6,-1.0,333.0,733.0,-1.0,754.0,1,1.0,-1.0
903,903,-0.11673396518320567,-0.1,-1.0,266.0,670.0,0.0,4064.0,0,1.0,0.0
904,904,0.7583853332551208,0.8,1.0,365.0,879.0,1.0,246.0,1,1.0,1.0
905,905,0.3439243676003104,0.3,-1.0,262.0,921.0,-1.0,467.0,1,-1.0,1.0
906,906,-0.11839936979628252,-0.1,1.0,354.0,802.0,1.0,244.0,1,-1.0,-1.0
907,907,0.740904379732045,0.7,1.0,431.0,906.0,1.0,143.0,1,1.0,1.0
908,908,0.5169924996470417,0.5,-1.0,367.0,775.0,-1.0,478.0,1,-1.0,1.0
909,909,0.7073671358549335,0.7,1.0,260.0,887.0,1.0,313.0,1,1.0,1.0
910,910,-0.7006062847333779,-0.7,1.0,393.0,891.0,1.0,106.0,1,-1.0,-1.0
911,911,0.6753497858352161,0.7,1.0,491.0,700.0,1.0,529.0,1,1.0,1.0
912,912,0.707944164009347,0.7,1.0,406.0,879.0,1.0,205.0,1,1.0,1.0
913,913,-0.8224320114341481,-0.8,-1.0,283.0,638.0,0.0,4079.0,0,1.0,0.0
914,914,-0.6975461527200295,-0.7,-1.0,440.0,577.0,-1.0,293.0,1,1.0,-1.0
915,915,0.16938556759038337,0.2,-1.0,265.0,916.0,-1.0,599.0,1,-1.0,1.0
916,916,0.8059077687902124,0.8,1.0,359.0,942.0,1.0,249.0,1,1.0,1.0
917,917,0.7925312931963483,0.8,1.0,482.0,633.0,1.0,225.0,1,1.0,1.0
918,918,-0.8567889107583561,-0.9,1.0,278.0,579.0,1.0,173.0,1,-1.0,-1.0
919,919,0.4155824761636929,0.4,-1.0,447.0,845.0,-1.0,578.0,1,-1.0,1.0
920,920,0.1174762030085802,0.1,-1.0,338.0,807.0,-1.0,835.0,1,-1.0,1.0
921,921,-0.758602664695405,-0.8,1.0,404.0,922.0,1.0,154.0,1,-1.0,-1.0
922,922,0.4636977258050884,0.5,1.0,437.0,762.0,1.0,941.0,1,1.0,1.0
923,923,0.29208529332799593,0.3,-1.0,394.0,923.0,-1.0,233.0,1,-1.0,1.0
924,924,0.8358389463297612,0.8,-1.0,362.0,628.0,-1.0,200.0,1,-1.0,1.0
925,925,-0.16242356448243234,-0.2,-1.0,310.0,708.0,0.0,3982.0,0,1.0,0.0
926,926,-0.2839399744604487,-0.3,-1.0,282.0,809.0,-1.0,859.0,1,1.0,-1.0
927,927,-0.7224165056175837,-0.7,1.0,472.0,818.0,1.0,480.0,1,-1.0,-1.0
928,928,-0.5254680279482722,-0.5,1.0,402.0,819.0,1.0,469.0,1,-1.0,-1.0
929,929,0.7400927648917891,0.7,-1.0,405.0,767.0,-1.0,188.0,1,-1.0,1.0
930,930,0.3674310085902325,0.4,1.0,339.0,572.0,1.0,539.0,1,1.0,1.0
931,931,0.41573803799099107,0.4,1.0,472.0,846.0,1.0,812.0,1,1.0,1.0
932,932,-0.677260590444173,-0.7,-1.0,481.0,888.0,-1.0,681.0,1,1.0,-1.0
933,933,0.6208503240708746,0.6,-1.0,414.0,633.0,-1.0,193.0,1,-1.0,1.0
934,934,0.11113374997649939,0.1,1.0,359.0,923.0,1.0,1438.0,1,1.0,1.0
935,935,-0.5334056930691069,-0.5,1.0,366.0,777.0,1.0,127.0,1,-1.0,-1.0
936,936,-0.5992049632645442,-0.6,-1.0,436.0,543.0,-1.0,291.0,1,1.0,-1.0
937,937,0.7784810474065696,0.8,-1.0,395.0,976.0,-1.0,119.0,1,-1.0,1.0
938,938,0.48696653507749776,0.5,1.0,297.0,798.0,1.0,415.0,1,1.0,1.0
939,939,-0.29502444401294314,-0.3,-1.0,394.0,573.0,-1.0,953.0,1,1.0,-1.0
940,940,0.7699148971428437,0.8,-1.0,443.0,519.0,-1.0,258.0,1,-1.0,1.0
941,941,0.25061493396338597,0.3,1.0,468.0,666.0,1.0,746.0,1,1.0,1.0
942,942,-0.2627241844197492,-0.3,-1.0,321.0,744.0,0.0,3935.0,0,1.0,0.0
943,943,-0.4957607656492163,-0.5,1.0,292.0,620.0,1.0,278.0,1,-1.0,-1.0
944,944,0.11870423831711674,0.1,-1.0,342.0,614.0,-1.0,624.0,1,-1.0,1.0
945,945,0.8890186861495512,0.9,1.0,438.0,786.0,1.0,176.0,1,1.0,1.0
946,946,0.5395781622080674,0.5,-1.0,460.0,572.0,-1.0,418.0,1,-1.0,1.0
947,947,0.8853644172728462,0.9,-1.0,297.0,830.0,-1.0,183.0,1,-1.0,1.0
948,948,-0.08274514273172939,-0.1,-1.0,453.0,704.0,0.0,3843.0,0,1.0,0.0
949,949,0.875632519512005,0.9,-1.0,395.0,643.0,-1.0,162.0,1,-1.0,1.0
950,950,0.8668960836764564,0.9,-1.0,479.0,679.0,-1.0,102.0,1,-1.0,1.0
951,951,0.3435857016271896,0.3,1.0,275.0,928.0,1.0,637.0,1,1.0,1.0
952,952,-0.2868080944221134,-0.3,1.0,329.0,916.0,1.0,1075.0,1,-1.0,-1.0
953,953,-0.04683225109489908,-0.0,1.0,349.0,824.0,-1.0,957.0,0,-1.0,1.0
954,954,-0.1826480636098703,-0.2,-1.0,353.0,834.0,-1.0,1183.0,1,1.0,-1.0
955,955,0.15118299130110235,0.2,-1.0,326.0,674.0,-1.0,970.0,1,-1.0,1.0
956,956,-0.23506602518632624,-0.2,-1.0,401.0,888.0,-1.0,1751.0,1,1.0,-1.0
957,957,0.19975655473922627,0.2,1.0,271.0,932.0,1.0,1467.0,1,1.0,1.0
958,958,-0.8117801135207974,-0.8,1.0,444.0,672.0,1.0,324.0,1,-1.0,-1.0
959,959,-0.11598821190866249,-0.1,1.0,439.0,833.0,0.0,3728.0,0,-1.0,0.0
960,960,0.38104550830627437,0.4,-1.0,279.0,949.0,-1.0,162.0,1,-1.0,1.0
961,961,-0.682232208395072,-0.7,1.0,406.0,851.0,1.0,183.0,1,-1.0,-1.0
962,962,0.3652460553288074,0.4,-1.0,276.0,543.0,-1.0,281.0,1,-1.0,1.0
963,963,0.6564975967968038,0.7,1.0,401.0,520.0,1.0,309.0,1,1.0,1.0
964,964,-0.7478775650042271,-0.7,1.0,330.0,943.0,-1.0,-233.0,0,-1.0,1.0
965,965,-0.4213666720256712,-0.4,-1.0,399.0,826.0,-1.0,1895.0,1,1.0,-1.0
966,966,0.1408409001301295,0.1,1.0,297.0,567.0,1.0,1536.0,1,1.0,1.0
967,967,0.44595882120926145,0.4,1.0,436.0,650.0,1.0,454.0,1,1.0,1.0
968,968,-0.3667479834708237,-0.4,1.0,316.0,569.0,1.0,975.0,1,-1.0,-1.0
969,969,-0.40462952628883986,-0.4,-1.0,299.0,571.0,-1.0,1550.0,1,1.0,-1.0
970,970,0.28425090985384005,0.3,1.0,342.0,875.0,1.0,413.0,1,1.0,1.0
971,971,-0.4181815512900774,-0.4,-1.0,433.0,723.0,-1.0,924.0,1,1.0,-1.0
972,972,0.43587073626589634,0.4,-1.0,260.0,819.0,-1.0,451.0,1,-1.0,1.0
973,973,0.5978600970878244,0.6,-1.0,250.0,870.0,-1.0,400.0,1,-1.0,1.0
974,974,-0.7218518957327286,-0.7,1.0,346.0,891.0,1.0,353.0,1,-1.0,-1.0
975,975,-0.021248525786153327,-0.0,-1.0,438.0,960.0,1.0,3212.0,0,1.0,1.0
976,976,0.37138286568771683,0.4,1.0,252.0,600.0,1.0,678.0,1,1.0,1.0
977,977,0.40227833896365894,0.4,1.0,451.0,881.0,1.0,398.0,1,1.0,1.0
978,978,-0.4028563022249458,-0.4,1.0,416.0,931.0,1.0,843.0,1,-1.0,-1.0
979,979,-0.33084362682680957,-0.3,-1.0,392.0,554.0,-1.0,2704.0,1,1.0,-1.0
980,980,-0.20937519176716834,-0.2,1.0,282.0,805.0,1.0,1543.0,1,-1.0,-1.0
981,981,0.22035966970108045,0.2,-1.0,275.0,508.0,-1.0,637.0,1,-1.0,1.0
982,982,-0.7374330544050225,-0.7,1.0,485.0,915.0,1.0,510.0,1,-1.0,-1.0
983,983,-0.2842355064020431,-0.3,1.0,267.0,711.0,1.0,2392.0,1,-1.0,-1.0
984,984,0.37713432965045934,0.4,-1.0,434.0,659.0,-1.0,437.0,1,-1.0,1.0
985,985,0.647544477467532,0.6,-1.0,473.0,636.0,-1.0,181.0,1,-1.0,1.0
986,986,-0.3512395967290213,-0.4,-1.0,462.0,713.0,-1.0,2745.0,1,1.0,-1.0
987,987,-0.16103999669667501,-0.2,-1.0,380.0,777.0,0.0,3843.0,0,1.0,0.0
988,988,0.6833874202962834,0.7,1.0,291.0,510.0,1.0,369.0,1,1.0,1.0
989,989,0.685585495097803,0.7,1.0,419.0,958.0,1.0,323.0,1,1.0,1.0
990,990,0.2625506953393971,0.3,1.0,453.0,653.0,1.0,844.0,1,1.0,1.0
991,991,-0.8878057413394443,-0.9,1.0,289.0,656.0,1.0,125.0,1,-1.0,-1.0
992,992,0.6900967885543597,0.7,-1.0,308.0,706.0,-1.0,326.0,1,-1.0,1.0
993,993,-0.8311902545050727,-0.8,1.0,400.0,549.0,1.0,211.0,1,-1.0,-1.0
994,994,-0.3129763948765093,-0.3,1.0,328.0,658.0,1.0,604.0,1,-1.0,-1.0
995,995,-0.352142190356459,-0.4,1.0,292.0,680.0,1.0,998.0,1,-1.0,-1.0
996,996,0.30365427877851403,0.3,-1.0,499.0,834.0,-1.0,417.0,1,-1.0,1.0
997,997,-0.8986527562965954,-0.9,1.0,360.0,801.0,1.0,319.0,1,-1.0,-1.0
998,998,-0.825076012247009,-0.8,-1.0,359.0,825.0,-1.0,286.0,1,1.0,-1.0
999,999,-0.07788719778688857,-0.1,-1.0,311.0,630.0,0.0,4059.0,0,1.0,0.0
1000,1000,0.22527336801084152,0.2,-1.0,418.0,517.0,-1.0,395.0,1,-1.0,1.0
1001,1001,0.34359835261225136,0.3,1.0,420.0,741.0,1.0,1089.0,1,1.0,1.0
1002,1002,-0.24305860749804986,-0.2,1.0,397.0,693.0,1.0,280.0,1,-1.0,-1.0
1003,1003,-0.7463410432377775,-0.7,-1.0,329.0,595.0,-1.0,376.0,1,1.0,-1.0
1004,1004,0.6069372188996339,0.6,1.0,271.0,659.0,1.0,290.0,1,1.0,1.0
1005,1005,-0.1847615024693321,-0.2,1.0,293.0,834.0,1.0,2443.0,1,-1.0,-1.0
1006,1006,0.16236476850986226,0.2,-1.0,293.0,672.0,-1.0,655.0,1,-1.0,1.0
1007,1007,0.035323241481563294,0.0,1.0,434.0,852.0,1.0,2294.0,1,1.0,1.0
1008,1008,-0.2136061235013722,-0.2,1.0,401.0,802.0,1.0,957.0,1,-1.0,-1.0
1009,1009,0.6486453017019288,0.6,-1.0,282.0,682.0,-1.0,146.0,1,-1.0,1.0
1010,1010,-0.8439127987636909,-0.8,-1.0,466.0,528.0,-1.0,296.0,1,1.0,-1.0
1011,1011,0.5033239876270462,0.5,1.0,302.0,580.0,1.0,358.0,1,1.0,1.0
1012,1012,0.6640747738094418,0.7,-1.0,418.0,507.0,-1.0,255.0,1,-1.0,1.0
1013,1013,-0.5511451274049977,-0.6,1.0,289.0,864.0,-1.0,-133.0,0,-1.0,1.0
1014,1014,0.783243337243776,0.8,1.0,419.0,604.0,1.0,397.0,1,1.0,1.0
1015,1015,-0.4610291794844648,-0.5,1.0,286.0,548.0,1.0,666.0,1,-1.0,-1.0
1016,1016,0.7521268769616817,0.8,-1.0,415.0,962.0,-1.0,223.0,1,-1.0,1.0
1017,1017,0.17938417841076915,0.2,1.0,327.0,824.0,1.0,519.0,1,1.0,1.0
1018,1018,-0.7409070426576115,-0.7,1.0,445.0,807.0,1.0,498.0,1,-1.0,-1.0
1019,1019,-0.31626889016590753,-0.3,-1.0,381.0,562.0,-1.0,2187.0,1,1.0,-1.0
1020,1020,0.3926105358191573,0.4,-1.0,483.0,944.0,-1.0,333.0,1,-1.0,1.0
1021,1021,0.20938874532988871,0.2,1.0,365.0,667.0,1.0,408.0,1,1.0,1.0
1022,1022,-0.0010816301253148142,-0.0,1.0,460.0,943.0,0.0,3597.0,0,-1.0,0.0
1023,1023,0.172544746842188,0.2,-1.0,279.0,523.0,-1.0,208.0,1,-1.0,1.0
1024,1024,-0.6540689845096438,-0.7,1.0,459.0,555.0,-1.0,-74.0,0,-1.0,1.0
1025,1025,-0.16470290541953303,-0.2,-1.0,371.0,647.0,0.0,3982.0,0,1.0,0.0
1026,1026,0.27706467516498734,0.3,1.0,358.0,973.0,1.0,379.0,1,1.0,1.0
1027,1027,0.22773266236861234,0.2,-1.0,288.0,760.0,-1.0,412.0,1,-1.0,1.0
1028,1028,-0.18826172209759284,-0.2,1.0,426.0,531.0,1.0,1353.0,1,-1.0,-1.0
1029,1029,0.10177994769472065,0.1,1.0,419.0,895.0,1.0,1426.0,1,1.0,1.0
1030,1030,-0.19064017638910746,-0.2,-1.0,294.0,685.0,0.0,4021.0,0,1.0,0.0
1031,1031,-0.7462924545937777,-0.7,-1.0,434.0,563.0,-1.0,603.0,1,1.0,-1.0
1032,1032,-0.021100101740675004,-0.0,-1.0,383.0,568.0,0.0,4049.0,0,1.0,0.0
1033,1033,-0.6803298964542341,-0.7,1.0,487.0,548.0,1.0,555.0,1,-1.0,-1.0
1034,1034,-0.30684127808537276,-0.3,1.0,392.0,825.0,1.0,143.0,1,-1.0,-1.0
1035,1035,-0.4784281408505334,-0.5,-1.0,430.0,982.0,-1.0,588.0,1,1.0,-1.0
1036,1036,0.615099828391576,0.6,1.0,314.0,989.0,1.0,317.0,1,1.0,1.0
1037,1037,-0.3983850261112437,-0.4,1.0,368.0,533.0,1.0,809.0,1,-1.0,-1.0
1038,1038,0.40978061178019953,0.4,1.0,289.0,866.0,1.0,455.0,1,1.0,1.0
1039,1039,0.25239752063131304,0.3,1.0,335.0,964.0,1.0,451.0,1,1.0,1.0
1040,1040,-0.235862674276622,-0.2,1.0,365.0,940.0,1.0,1095.0,1,-1.0,-1.0
1041,1041,0.7781911185124261,0.8,1.0,278.0,709.0,1.0,263.0,1,1.0,1.0
1042,1042,0.6581278804890337,0.7,1.0,481.0,542.0,1.0,537.0,1,1.0,1.0
1043,1043,0.8336467583106598,0.8,1.0,298.0,909.0,1.0,243.0,1,1.0,1.0
1044,1044,-0.004278843718680814,-0.0,1.0,256.0,928.0,0.0,3816.0,0,-1.0,0.0
1045,1045,0.5456292075267087,0.5,-1.0,360.0,937.0,-1.0,293.0,1,-1.0,1.0
1046,1046,-0.36656598530941564,-0.4,1.0,386.0,951.0,1.0,33.0,1,-1.0,-1.0
1047,1047,-0.6896667837870745,-0.7,-1.0,498.0,930.0,-1.0,562.0,1,1.0,-1.0
1048,1048,-0.5876237986832127,-0.6,1.0,260.0,671.0,1.0,909.0,1,-1.0,-1.0
1049,1049,-0.01590675509308992,-0.0,1.0,297.0,634.0,1.0,689.0,1,-1.0,-1.0
1050,1050,-0.4850534943964752,-0.5,1.0,454.0,551.0,1.0,495.0,1,-1.0,-1.0
1051,1051,0.200153505259279,0.2,1.0,488.0,953.0,1.0,1429.0,1,1.0,1.0
1052,1052,-0.7395795588029979,-0.7,1.0,269.0,554.0,1.0,577.0,1,-1.0,-1.0
1053,1053,0.2050914573318411,0.2,-1.0,418.0,640.0,-1.0,492.0,1,-1.0,1.0
1054,1054,0.35190982145191285,0.4,-1.0,440.0,797.0,-1.0,173.0,1,-1.0,1.0
1055,1055,-0.21404004244649866,-0.2,1.0,271.0,803.0,1.0,1236.0,1,-1.0,-1.0
1056,1056,-0.4553735899581158,-0.5,1.0,305.0,746.0,1.0,409.0,1,-1.0,-1.0
1057,1057,-0.8270258442990263,-0.8,-1.0,396.0,991.0,-1.0,333.0,1,1.0,-1.0
1058,1058,0.5916035815299822,0.6,1.0,374.0,799.0,1.0,167.0,1,1.0,1.0
1059,1059,-0.45769042887496375,-0.5,-1.0,286.0,519.0,-1.0,1135.0,1,1.0,-1.0
1060,1060,-0.7383910361440248,-0.7,1.0,265.0,838.0,1.0,647.0,1,-1.0,-1.0
1061,1061,-0.679360087397109,-0.7,1.0,489.0,848.0,1.0,393.0,1,-1.0,-1.0
1062,1062,-0.45262865510331024,-0.5,1.0,347.0,667.0,1.0,206.0,1,-1.0,-1.0
1063,1063,-0.09709000654249411,-0.1,-1.0,432.0,824.0,0.0,3744.0,0,1.0,0.0
1064,1064,0.8721119452345524,0.9,1.0,281.0,586.0,1.0,203.0,1,1.0,1.0
1065,1065,0.3938828031870595,0.4,1.0,412.0,832.0,1.0,406.0,1,1.0,1.0
1066,1066,-0.16938999024700974,-0.2,-1.0,422.0,767.0,0.0,3811.0,0,1.0,0.0
1067,1067,0.7510404623597587,0.8,-1.0,488.0,918.0,-1.0,264.0,1,-1.0,1.0
1068,1068,0.7125691321952498,0.7,-1.0,312.0,925.0,-1.0,193.0,1,-1.0,1.0
1069,1069,0.254530459424572,0.3,-1.0,417.0,772.0,-1.0,521.0,1,-1.0,1.0
1070,1070,0.30173842512482263,0.3,-1.0,304.0,772.0,-1.0,714.0,1,-1.0,1.0
1071,1071,0.7686071177760602,0.8,-1.0,485.0,991.0,-1.0,164.0,1,-1.0,1.0
1072,1072,0.41590384898847244,0.4,1.0,398.0,664.0,1.0,308.0,1,1.0,1.0
1073,1073,0.05967849865699815,0.1,-1.0,376.0,669.0,1.0,-285.0,0,-1.0,-1.0
1074,1074,-0.5472640012571267,-0.5,-1.0,475.0,606.0,-1.0,239.0,1,1.0,-1.0
1075,1075,-0.861577547859835,-0.9,-1.0,387.0,580.0,-1.0,463.0,1,1.0,-1.0
1076,1076,-0.6499076605370477,-0.6,-1.0,449.0,753.0,-1.0,598.0,1,1.0,-1.0
1077,1077,0.7998948478438211,0.8,1.0,255.0,842.0,1.0,113.0,1,1.0,1.0
1078,1078,-0.09913382182113795,-0.1,1.0,269.0,751.0,0.0,3980.0,0,-1.0,0.0
1079,1079,-0.02856857568675919,-0.0,1.0,397.0,670.0,-1.0,1853.0,0,-1.0,1.0
1080,1080,0.22239028375031167,0.2,-1.0,313.0,581.0,-1.0,836.0,1,-1.0,1.0
1081,1081,-0.6627784197241009,-0.7,-1.0,364.0,727.0,-1.0,1239.0,1,1.0,-1.0
1082,1082,0.19508168850431307,0.2,1.0,473.0,567.0,1.0,1590.0,1,1.0,1.0
1083,1083,-0.29793509891904213,-0.3,-1.0,369.0,519.0,-1.0,2072.0,1,1.0,-1.0
1084,1084,0.24985773771746034,0.2,-1.0,408.0,549.0,-1.0,293.0,1,-1.0,1.0
1085,1085,0.19813216235757747,0.2,-1.0,293.0,803.0,-1.0,584.0,1,-1.0,1.0
1086,1086,0.20837774324442304,0.2,1.0,331.0,727.0,1.0,1162.0,1,1.0,1.0
1087,1087,-0.8604396085793462,-0.9,1.0,396.0,547.0,1.0,377.0,1,-1.0,-1.0
1088,1088,0.2182966094414579,0.2,-1.0,294.0,827.0,-1.0,369.0,1,-1.0,1.0
1089,1089,-0.37381715997079934,-0.4,-1.0,382.0,814.0,-1.0,2374.0,1,1.0,-1.0
1090,1090,-0.6685071768041629,-0.7,1.0,392.0,941.0,1.0,387.0,1,-1.0,-1.0
1091,1091,0.6903490925648997,0.7,1.0,275.0,772.0,1.0,283.0,1,1.0,1.0
1092,1092,-0.6530852144471955,-0.7,1.0,460.0,811.0,1.0,349.0,1,-1.0,-1.0
1093,1093,0.845703016491227,0.8,-1.0,368.0,607.0,-1.0,295.0,1,-1.0,1.0
1094,1094,-0.5316348013511255,-0.5,1.0,305.0,623.0,1.0,302.0,1,-1.0,-1.0
1095,1095,0.2373172575866359,0.2,-1.0,305.0,613.0,-1.0,592.0,1,-1.0,1.0
1096,1096,-0.03468258351987885,-0.0,1.0,455.0,621.0,0.0,3924.0,0,-1.0,0.0
1097,1097,0.10928667706087791,0.1,1.0,251.0,878.0,1.0,2041.0,1,1.0,1.0
1098,1098,0.7184082382972404,0.7,-1.0,449.0,846.0,-1.0,235.0,1,-1.0,1.0
1099,1099,-0.2723784741596268,-0.3,-1.0,404.0,806.0,-1.0,1510.0,1,1.0,-1.0
1100,1100,-0.4544217849305036,-0.5,-1.0,276.0,787.0,-1.0,1017.0,1,1.0,-1.0
1101,1101,0.4774921574019849,0.5,-1.0,344.0,811.0,-1.0,135.0,1,-1.0,1.0
1102,1102,0.37515704129841854,0.4,1.0,413.0,963.0,1.0,104.0,1,1.0,1.0
1103,1103,0.1111408821451142,0.1,1.0,361.0,524.0,1.0,1615.0,1,1.0,1.0
1104,1104,-0.7587086502747419,-0.8,-1.0,299.0,869.0,-1.0,382.0,1,1.0,-1.0
1105,1105,0.7010070406338477,0.7,1.0,444.0,611.0,1.0,255.0,1,1.0,1.0
1106,1106,-0.22210721467445727,-0.2,-1.0,260.0,894.0,-1.0,2086.0,1,1.0,-1.0
1107,1107,0.8685625944474736,0.9,1.0,455.0,534.0,1.0,141.0,1,1.0,1.0
1108,1108,0.6769900125241352,0.7,1.0,457.0,879.0,1.0,294.0,1,1.0,1.0
1109,1109,-0.6471403067094698,-0.6,1.0,350.0,685.0,1.0,245.0,1,-1.0,-1.0
1110,1110,-0.4212496752199339,-0.4,-1.0,491.0,842.0,-1.0,1037.0,1,1.0,-1.0
1111,1111,-0.7146606425909026,-0.7,-1.0,319.0,919.0,-1.0,482.0,1,1.0,-1.0
1112,1112,0.8903358705321961,0.9,1.0,272.0,743.0,1.0,275.0,1,1.0,1.0
1113,1113,0.10202587735404733,0.1,-1.0,452.0,949.0,-1.0,639.0,1,-1.0,1.0
1114,1114,-0.7819338731622004,-0.8,1.0,267.0,758.0,1.0,385.0,1,-1.0,-1.0
1115,1115,0.8338894460857081,0.8,1.0,335.0,948.0,1.0,157.0,1,1.0,1.0
1116,1116,0.6739329766279704,0.7,1.0,263.0,901.0,1.0,526.0,1,1.0,1.0
1117,1117,-0.7486202145061676,-0.7,-1.0,273.0,975.0,-1.0,542.0,1,1.0,-1.0
1118,1118,0.21079623921851465,0.2,-1.0,438.0,639.0,-1.0,453.0,1,-1.0,1.0
1119,1119,0.1217252294827752,0.1,1.0,435.0,840.0,1.0,1275.0,1,1.0,1.0
1120,1120,0.45633561003392853,0.5,1.0,312.0,567.0,1.0,651.0,1,1.0,1.0
1121,1121,-0.8565634067088128,-0.9,-1.0,258.0,885.0,0.0,3857.0,0,1.0,0.0
1122,1122,0.5635322498764629,0.6,1.0,437.0,644.0,1.0,349.0,1,1.0,1.0
1123,1123,0.38052764946449746,0.4,1.0,338.0,973.0,1.0,369.0,1,1.0,1.0
1124,1124,0.623284179593924,0.6,1.0,433.0,600.0,1.0,307.0,1,1.0,1.0
1125,1125,-0.6498135546655588,-0.6,1.0,351.0,913.0,1.0,576.0,1,-1.0,-1.0
1126,1126,0.4631418409173079,0.5,-1.0,443.0,794.0,-1.0,383.0,1,-1.0,1.0
1127,1127,-0.4464764913266021,-0.4,1.0,296.0,517.0,1.0,917.0,1,-1.0,-1.0
1128,1128,0.3010924333530888,0.3,1.0,359.0,992.0,1.0,659.0,1,1.0,1.0
1129,1129,-0.5968703065978894,-0.6,1.0,485.0,550.0,1.0,585.0,1,-1.0,-1.0
1130,1130,0.5937297885101517,0.6,1.0,278.0,706.0,1.0,166.0,1,1.0,1.0
1131,1131,0.7691182063471381,0.8,1.0,286.0,909.0,1.0,135.0,1,1.0,1.0
1132,1132,-0.18463923972701546,-0.2,-1.0,347.0,880.0,0.0,3773.0,0,1.0,0.0
1133,1133,0.7264568076005701,0.7,1.0,264.0,945.0,1.0,141.0,1,1.0,1.0
1134,1134,-0.24830359150569037,-0.2,-1.0,414.0,831.0,-1.0,2325.0,1,1.0,-1.0
1135,1135,0.6312349204521236,0.6,1.0,291.0,977.0,1.0,172.0,1,1.0,1.0
1136,1136,0.14422540107729354,0.1,1.0,296.0,984.0,1.0,1460.0,1,1.0,1.0
1137,1137,-0.2771710901107677,-0.3,1.0,487.0,764.0,1.0,419.0,1,-1.0,-1.0
1138,1138,0.45153515535141586,0.5,-1.0,276.0,533.0,-1.0,601.0,1,-1.0,1.0
1139,1139,-0.855592423276164,-0.9,-1.0,258.0,808.0,0.0,3934.0,0,1.0,0.0
1140,1140,0.7021425739040327,0.7,-1.0,424.0,893.0,-1.0,123.0,1,-1.0,1.0
1141,1141,-0.13034448963852374,-0.1,-1.0,415.0,642.0,0.0,3943.0,0,1.0,0.0
1142,1142,-0.7311334978547704,-0.7,-1.0,262.0,893.0,-1.0,125.0,1,1.0,-1.0
1143,1143,0.47759890650889114,0.5,1.0,462.0,978.0,1.0,350.0,1,1.0,1.0
1144,1144,0.8323005098575035,0.8,-1.0,372.0,618.0,-1.0,190.0,1,-1.0,1.0
1145,1145,0.6057806360617696,0.6,1.0,407.0,955.0,1.0,348.0,1,1.0,1.0
1146,1146,0.5093193999496023,0.5,-1.0,261.0,762.0,-1.0,387.0,1,-1.0,1.0
1147,1147,-0.09123749721925534,-0.1,-1.0,483.0,861.0,0.0,3656.0,0,1.0,0.0
1148,1148,-0.586370279952092,-0.6,-1.0,255.0,573.0,-1.0,282.0,1,1.0,-1.0
1149,1149,0.35422992596628744,0.4,-1.0,462.0,769.0,-1.0,639.0,1,-1.0,1.0
1150,1150,-0.40590038081230395,-0.4,-1.0,331.0,935.0,-1.0,1174.0,1,1.0,-1.0
1151,1151,-0.4856491716818819,-0.5,-1.0,312.0,963.0,-1.0,615.0,1,1.0,-1.0
1152,1152,-0.16835040094092302,-0.2,1.0,372.0,532.0,1.0,3936.0,1,-1.0,-1.0
1153,1153,-0.28124601129249915,-0.3,1.0,446.0,911.0,1.0,463.0,1,-1.0,-1.0
1154,1154,-0.556989314826237,-0.6,-1.0,499.0,809.0,-1.0,562.0,1,1.0,-1.0
1155,1155,-0.11784378668172779,-0.1,1.0,449.0,876.0,0.0,3675.0,0,-1.0,0.0
1156,1156,-0.5204557895398468,-0.5,1.0,303.0,533.0,1.0,174.0,1,-1.0,-1.0
1157,1157,-0.5162600718758166,-0.5,-1.0,417.0,765.0,-1.0,528.0,1,1.0,-1.0
1158,1158,-0.57009971516282,-0.6,1.0,474.0,718.0,1.0,1068.0,1,-1.0,-1.0
1159,1159,-0.08853305028067748,-0.1,-1.0,300.0,671.0,0.0,4029.0,0,1.0,0.0
1160,1160,-0.5151943970808286,-0.5,1.0,416.0,796.0,1.0,628.0,1,-1.0,-1.0
1161,1161,0.7377376685468356,0.7,-1.0,413.0,558.0,-1.0,319.0,1,-1.0,1.0
1162,1162,0.3569294636815735,0.4,1.0,348.0,752.0,1.0,1110.0,1,1.0,1.0
1163,1163,-0.316476859488936,-0.3,1.0,396.0,979.0,1.0,805.0,1,-1.0,-1.0
1164,1164,0.8274073503600073,0.8,1.0,294.0,752.0,1.0,224.0,1,1.0,1.0
1165,1165,-0.011176205356089985,-0.0,1.0,416.0,666.0,0.0,3918.0,0,-1.0,0.0
1166,1166,-0.33595536161130335,-0.3,-1.0,496.0,703.0,-1.0,1691.0,1,1.0,-1.0
1167,1167,0.7691426883431022,0.8,-1.0,372.0,538.0,-1.0,190.0,1,-1.0,1.0
1168,1168,-0.3783184452977847,-0.4,-1.0,339.0,938.0,-1.0,473.0,1,1.0,-1.0
1169,1169,-0.013843151196895609,-0.0,-1.0,311.0,817.0,0.0,3872.0,0,1.0,0.0
1170,1170,0.27115637454135466,0.3,-1.0,435.0,904.0,-1.0,431.0,1,-1.0,1.0
1171,1171,0.8719092485607388,0.9,-1.0,326.0,699.0,-1.0,275.0,1,-1.0,1.0
1172,1172,-0.6112807684705448,-0.6,-1.0,314.0,783.0,-1.0,293.0,1,1.0,-1.0
1173,1173,-0.03848250382217666,-0.0,-1.0,399.0,699.0,1.0,3692.0,0,1.0,1.0
1174,1174,-0.24538895856999687,-0.2,-1.0,310.0,578.0,-1.0,2122.0,1,1.0,-1.0
1175,1175,0.7328177619737132,0.7,-1.0,441.0,852.0,-1.0,147.0,1,-1.0,1.0
1176,1176,-0.5086259570061861,-0.5,1.0,263.0,751.0,1.0,306.0,1,-1.0,-1.0
1177,1177,0.11536474608808678,0.1,-1.0,303.0,563.0,-1.0,1394.0,1,-1.0,1.0
1178,1178,0.663641516334763,0.7,1.0,450.0,944.0,1.0,156.0,1,1.0,1.0
1179,1179,-0.4576664796738877,-0.5,1.0,290.0,540.0,1.0,630.0,1,-1.0,-1.0
1180,1180,-0.19949083783622712,-0.2,-1.0,415.0,702.0,0.0,3883.0,0,1.0,0.0
1181,1181,-0.5544371333990084,-0.6,1.0,363.0,793.0,1.0,484.0,1,-1.0,-1.0
1182,1182,-0.7370733960002248,-0.7,-1.0,257.0,622.0,-1.0,131.0,1,1.0,-1.0
1183,1183,0.12204221778492708,0.1,1.0,251.0,933.0,1.0,3156.0,1,1.0,1.0
1184,1184,-0.6004888511357254,-0.6,-1.0,379.0,769.0,-1.0,802.0,1,1.0,-1.0
1185,1185,-0.24499768840501968,-0.2,-1.0,381.0,991.0,-1.0,1328.0,1,1.0,-1.0
1186,1186,0.26168530250192623,0.3,1.0,495.0,935.0,1.0,600.0,1,1.0,1.0
1187,1187,-0.05268422666063233,-0.1,-1.0,359.0,815.0,0.0,3826.0,0,1.0,0.0
1188,1188,0.8839453044581184,0.9,1.0,386.0,652.0,1.0,202.0,1,1.0,1.0
1189,1189,0.7916651235948916,0.8,1.0,440.0,711.0,1.0,269.0,1,1.0,1.0
1190,1190,0.18485999522690244,0.2,1.0,417.0,572.0,1.0,1251.0,1,1.0,1.0
1191,1191,0.7049266710058514,0.7,-1.0,361.0,923.0,-1.0,126.0,1,-1.0,1.0
1192,1192,0.23490667365674323,0.2,1.0,497.0,941.0,1.0,1332.0,1,1.0,1.0
1193,1193,-0.31699521504332995,-0.3,1.0,273.0,560.0,1.0,1177.0,1,-1.0,-1.0
1194,1194,0.04773041151470381,0.0,1.0,389.0,606.0,0.0,4005.0,0,1.0,0.0
1195,1195,-0.4021007983072906,-0.4,1.0,481.0,888.0,1.0,911.0,1,-1.0,-1.0
1196,1196,-0.5879312251705899,-0.6,-1.0,378.0,822.0,-1.0,370.0,1,1.0,-1.0
1197,1197,-0.3284241341467108,-0.3,-1.0,348.0,908.0,0.0,3744.0,0,1.0,0.0
1198,1198,0.26363213340810365,0.3,1.0,483.0,724.0,1.0,1243.0,1,1.0,1.0
1199,1199,0.4149922325052139,0.4,-1.0,308.0,898.0,-1.0,334.0,1,-1.0,1.0
1200,1200,0.3827232650656428,0.4,-1.0,367.0,917.0,1.0,-414.0,0,-1.0,-1.0
1201,1201,0.190596603488158,0.2,-1.0,397.0,500.0,-1.0,993.0,1,-1.0,1.0
1202,1202,0.2517006328508554,0.3,-1.0,269.0,678.0,-1.0,373.0,1,-1.0,1.0
1203,1203,0.8270696596464494,0.8,-1.0,355.0,784.0,1.0,-1109.0,0,-1.0,-1.0
1204,1204,-0.2338266771813693,-0.2,-1.0,403.0,962.0,-1.0,1035.0,1,1.0,-1.0
1205,1205,-0.6015292566501509,-0.6,1.0,407.0,855.0,1.0,538.0,1,-1.0,-1.0
1206,1206,0.847071449460815,0.8,1.0,332.0,657.0,1.0,271.0,1,1.0,1.0
1207,1207,-0.46907778820811247,-0.5,1.0,290.0,578.0,1.0,332.0,1,-1.0,-1.0
1208,1208,0.12365919276392712,0.1,1.0,421.0,565.0,1.0,2224.0,1,1.0,1.0
1209,1209,-0.049867365171903044,-0.0,1.0,257.0,686.0,-1.0,3357.0,0,-1.0,1.0
1210,1210,-0.8755407729685704,-0.9,-1.0,315.0,778.0,-1.0,177.0,1,1.0,-1.0
1211,1211,0.46266856786857324,0.5,-1.0,305.0,582.0,-1.0,283.0,1,-1.0,1.0
1212,1212,0.3260814231734276,0.3,1.0,373.0,605.0,1.0,202.0,1,1.0,1.0
1213,1213,0.15696611482281997,0.2,-1.0,286.0,988.0,-1.0,376.0,1,-1.0,1.0
1214,1214,-0.7480364776145931,-0.7,-1.0,425.0,603.0,-1.0,192.0,1,1.0,-1.0
1215,1215,-0.3723736099174896,-0.4,-1.0,465.0,550.0,-1.0,705.0,1,1.0,-1.0
1216,1216,-0.004206153133170298,-0.0,-1.0,346.0,714.0,1.0,2830.0,0,1.0,1.0
1217,1217,0.5257094499096505,0.5,1.0,348.0,926.0,1.0,426.0,1,1.0,1.0
1218,1218,-0.47546527176502906,-0.5,-1.0,479.0,696.0,-1.0,155.0,1,1.0,-1.0
1219,1219,-0.7113368606973125,-0.7,-1.0,405.0,500.0,-1.0,225.0,1,1.0,-1.0
1220,1220,-0.8108801780986321,-0.8,-1.0,462.0,987.0,-1.0,541.0,1,1.0,-1.0
1221,1221,0.4765873300297564,0.5,1.0,319.0,630.0,1.0,591.0,1,1.0,1.0
1222,1222,-0.08112856591673279,-0.1,-1.0,491.0,542.0,0.0,3967.0,0,1.0,0.0
1223,1223,0.13416752850252955,0.1,1.0,352.0,749.0,1.0,2159.0,1,1.0,1.0
1224,1224,-0.4070504399872151,-0.4,1.0,464.0,696.0,1.0,770.0,1,-1.0,-1.0
1225,1225,0.030429355669539748,0.0,1.0,436.0,941.0,1.0,2573.0,1,1.0,1.0
1226,1226,-0.2786690079440737,-0.3,-1.0,442.0,682.0,-1.0,2066.0,1,1.0,-1.0
1227,1227,0.03088523644828023,0.0,1.0,359.0,983.0,0.0,3658.0,0,1.0,0.0
1228,1228,0.40574645989272484,0.4,1.0,408.0,698.0,1.0,534.0,1,1.0,1.0
1229,1229,0.4539621163438202,0.5,-1.0,327.0,527.0,1.0,-164.0,0,-1.0,-1.0
1230,1230,0.20036414502904043,0.2,1.0,400.0,680.0,1.0,1100.0,1,1.0,1.0
1231,1231,0.03166300285365231,0.0,-1.0,268.0,660.0,-1.0,3732.0,1,-1.0,1.0
1232,1232,-0.465959770277298,-0.5,1.0,283.0,709.0,1.0,1868.0,1,-1.0,-1.0
1233,1233,-0.06133718430071122,-0.1,1.0,290.0,841.0,0.0,3869.0,0,-1.0,0.0
1234,1234,0.4730446820747408,0.5,-1.0,434.0,741.0,-1.0,325.0,1,-1.0,1.0
1235,1235,0.7682131245097529,0.8,1.0,315.0,547.0,1.0,368.0,1,1.0,1.0
1236,1236,0.08650452831058819,0.1,-1.0,461.0,735.0,-1.0,284.0,1,-1.0,1.0
1237,1237,0.3385129524859408,0.3,-1.0,395.0,734.0,-1.0,461.0,1,-1.0,1.0
1238,1238,-0.3667053609694416,-0.4,-1.0,306.0,801.0,-1.0,563.0,1,1.0,-1.0
1239,1239,-0.09710903844934704,-0.1,-1.0,277.0,642.0,0.0,4081.0,0,1.0,0.0
1240,1240,0.5504486656010356,0.6,1.0,305.0,522.0,1.0,333.0,1,1.0,1.0
1241,1241,0.05677320429895083,0.1,-1.0,468.0,688.0,0.0,3844.0,0,-1.0,0.0
1242,1242,0.15453835678632977,0.2,1.0,430.0,868.0,1.0,342.0,1,1.0,1.0
1243,1243,0.3792713442612977,0.4,1.0,408.0,512.0,1.0,640.0,1,1.0,1.0
1244,1244,0.7343306886252511,0.7,-1.0,270.0,572.0,-1.0,328.0,1,-1.0,1.0
1245,1245,-0.10660172884594676,-0.1,1.0,408.0,595.0,0.0,3997.0,0,-1.0,0.0
1246,1246,0.5413445026774758,0.5,1.0,455.0,669.0,1.0,576.0,1,1.0,1.0
1247,1247,0.8178848181739212,0.8,1.0,459.0,761.0,1.0,240.0,1,1.0,1.0
1248,1248,-0.08992206886755305,-0.1,-1.0,289.0,681.0,0.0,4030.0,0,1.0,0.0
1249,1249,-0.0036056445367171897,-0.0,-1.0,431.0,736.0,0.0,3833.0,0,1.0,0.0
1250,1250,-0.875110373655374,-0.9,-1.0,343.0,704.0,-1.0,263.0,1,1.0,-1.0
1251,1251,-0.6059308240979024,-0.6,1.0,392.0,573.0,1.0,315.0,1,-1.0,-1.0
1252,1252,-0.10908467040939263,-0.1,1.0,429.0,789.0,-1.0,-228.0,0,-1.0,1.0
1253,1253,-0.6871606755342421,-0.7,1.0,424.0,598.0,1.0,658.0,1,-1.0,-1.0
1254,1254,-0.5277585772948779,-0.5,-1.0,314.0,520.0,0.0,4166.0,0,1.0,0.0
1255,1255,0.32153873888178397,0.3,-1.0,313.0,808.0,-1.0,409.0,1,-1.0,1.0
1256,1256,0.48680807998972997,0.5,-1.0,308.0,608.0,-1.0,354.0,1,-1.0,1.0
1257,1257,0.5820889921425597,0.6,-1.0,284.0,681.0,-1.0,275.0,1,-1.0,1.0
1258,1258,-0.1111090607365387,-0.1,1.0,421.0,955.0,-1.0,-216.0,0,-1.0,1.0
1259,1259,-0.23286525458030338,-0.2,-1.0,260.0,992.0,-1.0,2068.0,1,1.0,-1.0
1260,1260,0.5624937723132838,0.6,-1.0,491.0,643.0,-1.0,356.0,1,-1.0,1.0
1261,1261,-0.13649028677963637,-0.1,-1.0,363.0,824.0,0.0,3813.0,0,1.0,0.0
1262,1262,-0.436187613594081,-0.4,-1.0,445.0,607.0,-1.0,2098.0,1,1.0,-1.0
1263,1263,-0.75273846516333,-0.8,1.0,354.0,631.0,1.0,575.0,1,-1.0,-1.0
1264,1264,0.8091616526343804,0.8,-1.0,438.0,948.0,-1.0,224.0,1,-1.0,1.0
1265,1265,0.1356063483815636,0.1,-1.0,478.0,699.0,-1.0,1763.0,1,-1.0,1.0
1266,1266,-0.3975452286167712,-0.4,-1.0,265.0,888.0,-1.0,1067.0,1,1.0,-1.0
1267,1267,0.24336063630372762,0.2,-1.0,419.0,877.0,-1.0,944.0,1,-1.0,1.0
1268,1268,0.8943717467186129,0.9,-1.0,381.0,802.0,-1.0,197.0,1,-1.0,1.0
1269,1269,0.7595651572254022,0.8,1.0,414.0,876.0,1.0,290.0,1,1.0,1.0
1270,1270,0.21161827493052165,0.2,1.0,250.0,967.0,1.0,903.0,1,1.0,1.0
1271,1271,-0.39332034902759216,-0.4,-1.0,356.0,829.0,-1.0,705.0,1,1.0,-1.0
1272,1272,-0.8932157780281063,-0.9,1.0,327.0,557.0,1.0,986.0,1,-1.0,-1.0
1273,1273,0.37776458954794456,0.4,1.0,288.0,746.0,1.0,256.0,1,1.0,1.0
1274,1274,-0.6715733765306794,-0.7,-1.0,368.0,573.0,-1.0,719.0,1,1.0,-1.0
1275,1275,0.5671927390202703,0.6,1.0,474.0,538.0,1.0,418.0,1,1.0,1.0
1276,1276,0.8742292339830867,0.9,-1.0,483.0,885.0,-1.0,152.0,1,-1.0,1.0
1277,1277,0.2631782896507703,0.3,1.0,494.0,616.0,1.0,1380.0,1,1.0,1.0
1278,1278,0.7418876237842468,0.7,-1.0,475.0,857.0,-1.0,348.0,1,-1.0,1.0
1279,1279,-0.8182137060663748,-0.8,1.0,349.0,738.0,1.0,93.0,1,-1.0,-1.0
1280,1280,-0.5381012914373267,-0.5,-1.0,315.0,879.0,-1.0,776.0,1,1.0,-1.0
1281,1281,0.6108176045321779,0.6,-1.0,488.0,794.0,-1.0,318.0,1,-1.0,1.0
1282,1282,-0.20455092791998442,-0.2,-1.0,252.0,715.0,0.0,4033.0,0,1.0,0.0
1283,1283,0.7321791040435061,0.7,-1.0,471.0,651.0,-1.0,118.0,1,-1.0,1.0
1284,1284,0.7792613511958125,0.8,-1.0,430.0,981.0,-1.0,299.0,1,-1.0,1.0
1285,1285,0.11811475145139327,0.1,1.0,309.0,761.0,1.0,790.0,1,1.0,1.0
1286,1286,0.8309925064176317,0.8,-1.0,481.0,807.0,-1.0,132.0,1,-1.0,1.0
1287,1287,-0.5675234328966421,-0.6,-1.0,360.0,552.0,-1.0,1278.0,1,1.0,-1.0
1288,1288,-0.20779710524313466,-0.2,1.0,375.0,740.0,1.0,1625.0,1,-1.0,-1.0
1289,1289,-0.15144525420017163,-0.2,1.0,327.0,634.0,-1.0,2319.0,0,-1.0,1.0
1290,1290,-0.6449262697793137,-0.6,-1.0,395.0,833.0,-1.0,972.0,1,1.0,-1.0
1291,1291,-0.7526908174452405,-0.8,-1.0,252.0,748.0,-1.0,330.0,1,1.0,-1.0
1292,1292,0.5486886298470705,0.5,-1.0,288.0,703.0,-1.0,449.0,1,-1.0,1.0
1293,1293,-0.8711530277755901,-0.9,-1.0,274.0,720.0,-1.0,376.0,1,1.0,-1.0
1294,1294,0.8217311217846931,0.8,1.0,358.0,898.0,1.0,204.0,1,1.0,1.0
1295,1295,-0.8218677580140719,-0.8,1.0,271.0,818.0,1.0,21.0,1,-1.0,-1.0
1296,1296,-0.12665445224114258,-0.1,-1.0,440.0,746.0,0.0,3814.0,0,1.0,0.0
1297,1297,-0.5207053798051655,-0.5,-1.0,481.0,562.0,-1.0,397.0,1,1.0,-1.0
1298,1298,-0.6524381430162339,-0.7,1.0,446.0,792.0,1.0,582.0,1,-1.0,-1.0
1299,1299,-0.24812641633103683,-0.2,-1.0,372.0,542.0,-1.0,1256.0,1,1.0,-1.0
1300,1300,0.42815512055393257,0.4,-1.0,392.0,987.0,-1.0,201.0,1,-1.0,1.0
1301,1301,0.2776209493369325,0.3,1.0,304.0,550.0,1.0,776.0,1,1.0,1.0
1302,1302,0.8643499738406458,0.9,-1.0,277.0,938.0,-1.0,265.0,1,-1.0,1.0
1303,1303,0.8898524498672579,0.9,-1.0,347.0,565.0,-1.0,208.0,1,-1.0,1.0
1304,1304,-0.5728631283262307,-0.6,-1.0,418.0,608.0,-1.0,734.0,1,1.0,-1.0
1305,1305,-0.8611891107759317,-0.9,1.0,448.0,691.0,1.0,201.0,1,-1.0,-1.0
1306,1306,0.44642191429737454,0.4,-1.0,421.0,873.0,-1.0,246.0,1,-1.0,1.0
1307,1307,-0.2796777547713737,-0.3,1.0,385.0,759.0,1.0,766.0,1,-1.0,-1.0
1308,1308,-0.1918530355272009,-0.2,1.0,253.0,946.0,1.0,3201.0,1,-1.0,-1.0
1309,1309,0.3188892373857347,0.3,-1.0,477.0,880.0,-1.0,323.0,1,-1.0,1.0
1310,1310,-0.8187218166446378,-0.8,-1.0,453.0,861.0,-1.0,286.0,1,1.0,-1.0
1311,1311,0.8978176873135976,0.9,1.0,415.0,623.0,1.0,112.0,1,1.0,1.0
1312,1312,0.3550238022505662,0.4,1.0,408.0,882.0,1.0,990.0,1,1.0,1.0
1313,1313,0.03164777751243231,0.0,-1.0,261.0,813.0,-1.0,1906.0,1,-1.0,1.0
1314,1314,-0.883952151737175,-0.9,1.0,288.0,835.0,1.0,107.0,1,-1.0,-1.0
1315,1315,0.8858712623468202,0.9,-1.0,291.0,574.0,-1.0,175.0,1,-1.0,1.0
1316,1316,-0.7301950703257981,-0.7,-1.0,455.0,543.0,-1.0,532.0,1,1.0,-1.0
1317,1317,-0.7110532147655193,-0.7,-1.0,497.0,546.0,-1.0,567.0,1,1.0,-1.0
1318,1318,0.052544762204884465,0.1,1.0,352.0,828.0,1.0,1370.0,1,1.0,1.0
1319,1319,0.5943795007355673,0.6,-1.0,472.0,995.0,-1.0,283.0,1,-1.0,1.0
1320,1320,0.6364055465955915,0.6,-1.0,432.0,652.0,-1.0,226.0,1,-1.0,1.0
1321,1321,-0.16396529543877703,-0.2,-1.0,399.0,868.0,0.0,3733.0,0,1.0,0.0
1322,1322,-0.5010461867115048,-0.5,-1.0,448.0,982.0,-1.0,800.0,1,1.0,-1.0
1323,1323,-0.7834432241547316,-0.8,1.0,494.0,782.0,1.0,554.0,1,-1.0,-1.0
1324,1324,0.31262596534295206,0.3,1.0,325.0,784.0,1.0,701.0,1,1.0,1.0
1325,1325,-0.4700138011274364,-0.5,-1.0,404.0,978.0,-1.0,928.0,1,1.0,-1.0
1326,1326,-0.4136615254591911,-0.4,1.0,317.0,663.0,1.0,1430.0,1,-1.0,-1.0
1327,1327,-0.3079350585281405,-0.3,1.0,302.0,699.0,1.0,639.0,1,-1.0,-1.0
1328,1328,-0.8747139242763925,-0.9,1.0,446.0,995.0,1.0,149.0,1,-1.0,-1.0
1329,1329,-0.6862323060892456,-0.7,1.0,433.0,823.0,1.0,194.0,1,-1.0,-1.0
1330,1330,0.7892770350871617,0.8,-1.0,401.0,994.0,1.0,-505.0,0,-1.0,-1.0
1331,1331,-0.4233005744762905,-0.4,1.0,323.0,808.0,-1.0,-71.0,0,-1.0,1.0
1332,1332,0.7519850572126286,0.8,-1.0,412.0,505.0,1.0,-277.0,0,-1.0,-1.0
1333,1333,-0.029259885903684224,-0.0,-1.0,334.0,582.0,1.0,2714.0,0,1.0,1.0
1334,1334,0.17205463264274468,0.2,-1.0,409.0,738.0,-1.0,353.0,1,-1.0,1.0
1335,1335,-0.6827099987925298,-0.7,1.0,465.0,913.0,1.0,472.0,1,-1.0,-1.0
1336,1336,0.43379707359640707,0.4,1.0,259.0,915.0,1.0,286.0,1,1.0,1.0
1337,1337,-0.8615679338114131,-0.9,-1.0,292.0,650.0,-1.0,348.0,1,1.0,-1.0
1338,1338,0.24201224353889617,0.2,-1.0,456.0,832.0,-1.0,832.0,1,-1.0,1.0
1339,1339,0.1081932603548007,0.1,-1.0,398.0,773.0,-1.0,1049.0,1,-1.0,1.0
1340,1340,-0.6821544543211848,-0.7,1.0,259.0,528.0,1.0,453.0,1,-1.0,-1.0
1341,1341,-0.46561405932351807,-0.5,1.0,275.0,574.0,1.0,1351.0,1,-1.0,-1.0
1342,1342,0.7456169047367814,0.7,-1.0,365.0,887.0,-1.0,138.0,1,-1.0,1.0
1343,1343,-0.2937628460840379,-0.3,-1.0,317.0,866.0,-1.0,977.0,1,1.0,-1.0
1344,1344,-0.398675755383603,-0.4,-1.0,491.0,620.0,-1.0,1409.0,1,1.0,-1.0
1345,1345,-0.39922260829564393,-0.4,-1.0,489.0,772.0,-1.0,1379.0,1,1.0,-1.0
1346,1346,-0.03667082442727709,-0.0,1.0,492.0,928.0,-1.0,2340.0,0,-1.0,1.0
1347,1347,0.7300964433622078,0.7,1.0,327.0,560.0,1.0,333.0,1,1.0,1.0
1348,1348,-0.7251359882119723,-0.7,-1.0,268.0,834.0,-1.0,388.0,1,1.0,-1.0
1349,1349,-0.3157705671290145,-0.3,1.0,368.0,691.0,1.0,521.0,1,-1.0,-1.0
1350,1350,-0.728007181837816,-0.7,1.0,351.0,590.0,1.0,139.0,1,-1.0,-1.0
1351,1351,0.09922749673047115,0.1,1.0,308.0,701.0,1.0,751.0,1,1.0,1.0
1352,1352,0.3375851539698608,0.3,-1.0,459.0,657.0,-1.0,554.0,1,-1.0,1.0
1353,1353,-0.039946884342074274,-0.0,1.0,438.0,565.0,-1.0,3227.0,0,-1.0,1.0
1354,1354,-0.663714543263234,-0.7,1.0,356.0,782.0,1.0,492.0,1,-1.0,-1.0
1355,1355,-0.1966445994575231,-0.2,-1.0,396.0,880.0,-1.0,3524.0,1,1.0,-1.0
1356,1356,-0.7466936134592213,-0.7,-1.0,351.0,801.0,-1.0,768.0,1,1.0,-1.0
1357,1357,-0.31330271044108393,-0.3,1.0,382.0,632.0,1.0,336.0,1,-1.0,-1.0
1358,1358,-0.17106919329702397,-0.2,-1.0,315.0,914.0,-1.0,3691.0,1,1.0,-1.0
1359,1359,-0.6528367414604961,-0.7,1.0,258.0,920.0,1.0,282.0,1,-1.0,-1.0
1360,1360,0.30522085446000735,0.3,1.0,398.0,923.0,1.0,229.0,1,1.0,1.0
1361,1361,-0.5695544313430257,-0.6,-1.0,460.0,799.0,-1.0,701.0,1,1.0,-1.0
1362,1362,-0.4646426702996122,-0.5,-1.0,417.0,595.0,-1.0,648.0,1,1.0,-1.0
1363,1363,0.6830733950384039,0.7,-1.0,427.0,856.0,1.0,-563.0,0,-1.0,-1.0
1364,1364,-0.8140040261517727,-0.8,1.0,363.0,770.0,1.0,327.0,1,-1.0,-1.0
1365,1365,0.7935686515455219,0.8,-1.0,402.0,961.0,-1.0,267.0,1,-1.0,1.0
1366,1366,-0.5712138620809277,-0.6,1.0,469.0,982.0,1.0,409.0,1,-1.0,-1.0
1367,1367,-0.4345243067898379,-0.4,-1.0,436.0,631.0,-1.0,383.0,1,1.0,-1.0
1368,1368,-0.10820049843393376,-0.1,1.0,476.0,716.0,1.0,1518.0,1,-1.0,-1.0
1369,1369,-0.79060146462062,-0.8,-1.0,372.0,783.0,-1.0,655.0,1,1.0,-1.0
1370,1370,0.04982233184387641,0.0,-1.0,478.0,788.0,-1.0,2924.0,1,-1.0,1.0
1371,1371,-0.3304805620911624,-0.3,1.0,480.0,621.0,1.0,709.0,1,-1.0,-1.0
1372,1372,-0.4499073509910822,-0.4,-1.0,454.0,661.0,-1.0,1325.0,1,1.0,-1.0
1373,1373,-0.7957969098530643,-0.8,1.0,420.0,620.0,1.0,620.0,1,-1.0,-1.0
1374,1374,0.32433339679420314,0.3,1.0,269.0,896.0,1.0,485.0,1,1.0,1.0
1375,1375,0.5315761530924005,0.5,1.0,499.0,693.0,1.0,468.0,1,1.0,1.0
1376,1376,-0.2973211729412467,-0.3,1.0,287.0,640.0,1.0,1463.0,1,-1.0,-1.0
1377,1377,-0.8925682162692902,-0.9,-1.0,473.0,906.0,-1.0,441.0,1,1.0,-1.0
1378,1378,0.6428433037493456,0.6,1.0,436.0,520.0,1.0,324.0,1,1.0,1.0
1379,1379,-0.7416975881333965,-0.7,1.0,327.0,897.0,1.0,306.0,1,-1.0,-1.0
1380,1380,-0.09440647967984617,-0.1,-1.0,306.0,714.0,0.0,3980.0,0,1.0,0.0
1381,1381,-0.3044555575965361,-0.3,1.0,469.0,936.0,1.0,445.0,1,-1.0,-1.0
1382,1382,-0.03249158054324108,-0.0,1.0,377.0,984.0,0.0,3639.0,0,-1.0,0.0
1383,1383,-0.7474204506133808,-0.7,1.0,278.0,826.0,1.0,176.0,1,-1.0,-1.0
1384,1384,0.6250150018869566,0.6,1.0,433.0,729.0,1.0,438.0,1,1.0,1.0
1385,1385,-0.8047511061941958,-0.8,-1.0,370.0,728.0,-1.0,282.0,1,1.0,-1.0
1386,1386,0.11232445618629694,0.1,-1.0,389.0,736.0,-1.0,485.0,1,-1.0,1.0
1387,1387,0.8928534423788875,0.9,1.0,379.0,936.0,1.0,125.0,1,1.0,1.0
1388,1388,-0.22959380222507364,-0.2,1.0,366.0,586.0,1.0,1228.0,1,-1.0,-1.0
1389,1389,0.5777222204464666,0.6,-1.0,314.0,795.0,-1.0,111.0,1,-1.0,1.0
1390,1390,-0.04405771702642747,-0.0,-1.0,499.0,982.0,1.0,309.0,0,1.0,1.0
1391,1391,0.10616538422728838,0.1,-1.0,405.0,667.0,-1.0,158.0,1,-1.0,1.0
1392,1392,0.20622234975366938,0.2,1.0,266.0,966.0,1.0,1208.0,1,1.0,1.0
1393,1393,-0.8480824378322974,-0.8,-1.0,386.0,866.0,-1.0,218.0,1,1.0,-1.0
1394,1394,-0.28947058196623654,-0.3,1.0,412.0,807.0,1.0,511.0,1,-1.0,-1.0
1395,1395,-0.3010365898183359,-0.3,1.0,422.0,673.0,1.0,1105.0,1,-1.0,-1.0
1396,1396,-0.49939675088704083,-0.5,1.0,294.0,685.0,1.0,691.0,1,-1.0,-1.0
1397,1397,0.507031373237873,0.5,1.0,292.0,956.0,1.0,482.0,1,1.0,1.0
1398,1398,0.03613432702777519,0.0,-1.0,325.0,630.0,0.0,4045.0,0,-1.0,0.0
1399,1399,-0.7410920651864608,-0.7,1.0,274.0,690.0,1.0,376.0,1,-1.0,-1.0
1400,1400,-0.22734580490505163,-0.2,1.0,434.0,718.0,1.0,498.0,1,-1.0,-1.0
1401,1401,-0.8540173192049106,-0.9,-1.0,399.0,836.0,-1.0,215.0,1,1.0,-1.0
1402,1402,0.45888985863443,0.5,-1.0,333.0,977.0,-1.0,370.0,1,-1.0,1.0
1403,1403,-0.4671911388557724,-0.5,1.0,417.0,608.0,1.0,185.0,1,-1.0,-1.0
1404,1404,-0.2070436855518356,-0.2,-1.0,361.0,756.0,-1.0,1883.0,1,1.0,-1.0
1405,1405,0.47967418364423275,0.5,1.0,356.0,845.0,1.0,609.0,1,1.0,1.0
1406,1406,0.1825576126203724,0.2,1.0,456.0,855.0,1.0,949.0,1,1.0,1.0
1407,1407,0.46719346343585066,0.5,-1.0,435.0,717.0,-1.0,18.0,1,-1.0,1.0
1408,1408,-0.5394367085889483,-0.5,-1.0,331.0,984.0,-1.0,955.0,1,1.0,-1.0
