,trial,coherence,coherence_bin,correct_side,target_onset,checker_onset,decision,decision_time,correct_decision,g0,gSlope
0,0,-0.360509146475251,-0.4,1,456.0,746.0,0.0,-1202.0,0,0.5363168964508571,0.0
1,1,0.3634332950423498,0.4,0,315.0,619.0,0.0,-934.0,1,0.9570556824178146,0.0
2,2,-0.861535093960907,-0.9,1,414.0,768.0,0.0,-1182.0,0,0.93204740663277,0.0
3,3,0.8218265232729731,0.8,0,402.0,767.0,0.0,-1159.0,1,0.5536388914921511,0.0
4,4,0.33419461898072655,0.3,0,459.0,500.0,0.0,241.0,1,0.2711160187675171,0.0
5,5,-0.8554894257326828,-0.9,1,365.0,743.0,1.0,162.0,1,0.6849160134738288,0.0
6,6,-0.3040905906276776,-0.3,1,472.0,609.0,0.0,-1051.0,0,0.19979005931341165,0.0
7,7,0.8700718892143562,0.9,0,447.0,998.0,0.0,215.0,1,0.30629912485909916,0.0
8,8,0.16274899042318802,0.2,0,306.0,965.0,0.0,689.0,1,0.13203537155685718,0.0
9,9,0.6926380842576485,0.7,0,387.0,600.0,0.0,223.0,1,0.6631437612293702,0.0
10,10,0.5841989768655631,0.6,0,459.0,617.0,0.0,494.0,1,0.16686896917882477,0.0
11,11,-0.0831113722137351,-0.1,1,483.0,978.0,1.0,1119.0,1,0.14529762351987885,0.0
12,12,-0.44536746593041676,-0.4,1,378.0,616.0,1.0,186.0,1,0.34292887063340016,0.0
13,13,-0.9729812803426143,-1.0,1,434.0,820.0,1.0,236.0,1,0.8116609991493835,0.0
14,14,0.6552692538931693,0.7,0,323.0,555.0,0.0,-868.0,1,0.8277612411362287,0.0
15,15,0.5447846145057129,0.5,0,452.0,637.0,0.0,281.0,1,0.034744725906475704,0.0
16,16,0.6032319541328917,0.6,0,430.0,755.0,0.0,-1185.0,1,0.6628922085780906,0.0
17,17,-0.054868520502219464,-0.1,1,445.0,954.0,0.0,241.0,0,0.7169974152246266,0.0
18,18,0.3397733293624472,0.3,0,426.0,695.0,0.0,169.0,1,0.4763259648864715,0.0
19,19,0.797183476625126,0.8,0,383.0,644.0,0.0,203.0,1,0.18233656209989324,0.0
20,20,0.6833650761632508,0.7,0,325.0,538.0,0.0,237.0,1,0.0428846216367984,0.0
21,21,0.8396448776172456,0.8,0,273.0,837.0,0.0,330.0,1,0.0893388576208789,0.0
22,22,0.7133584554893784,0.7,0,264.0,952.0,0.0,224.0,1,0.11406522261189112,0.0
23,23,0.16082181188732303,0.2,0,405.0,909.0,0.0,1026.0,1,0.003546147460435911,0.0
24,24,-0.05627136337936678,-0.1,1,335.0,827.0,0.0,-1162.0,0,0.9521423255901913,0.0
25,25,0.9158706677184996,0.9,0,327.0,840.0,0.0,203.0,1,0.32088948630263303,0.0
26,26,-0.5286231270981938,-0.5,1,450.0,966.0,1.0,304.0,1,0.3392436388540099,0.0
27,27,-0.40439162300936693,-0.4,1,285.0,734.0,1.0,711.0,1,0.04503396105871815,0.0
28,28,0.1395639049864188,0.1,0,259.0,859.0,0.0,-1108.0,1,0.60735802276026,0.0
29,29,-0.6741838493415286,-0.7,1,394.0,688.0,0.0,-1082.0,0,0.46074870190024564,0.0
30,30,-0.8931414741335673,-0.9,1,253.0,568.0,0.0,-821.0,0,0.542535963315922,0.0
31,31,-0.3252608935691079,-0.3,1,462.0,871.0,0.0,307.0,0,0.32727382810162164,0.0
32,32,-0.6118713960834397,-0.6,1,326.0,942.0,1.0,412.0,1,0.022417630606868966,0.0
33,33,-0.4930748847444515,-0.5,1,342.0,779.0,1.0,429.0,1,0.7546401103212069,0.0
34,34,-0.2722452643084923,-0.3,1,283.0,507.0,0.0,-790.0,0,0.9187172785455536,0.0
35,35,0.29519753436287055,0.3,0,423.0,783.0,0.0,-1196.0,1,0.6371579431690046,0.0
36,36,0.3838590856542421,0.4,0,298.0,939.0,0.0,-1237.0,1,0.9675389971357328,0.0
37,37,-0.6867482153727771,-0.7,1,311.0,528.0,1.0,331.0,1,0.10875719494448133,0.0
38,38,0.20239106529125306,0.2,0,311.0,607.0,0.0,-918.0,1,0.3938933242689663,0.0
39,39,-0.017671556978483327,-0.0,1,317.0,928.0,0.0,525.0,0,0.19728332846548458,0.0
40,40,-0.1527181346340596,-0.2,1,321.0,710.0,0.0,229.0,0,0.3829657846359147,0.0
41,41,-0.8551121220874622,-0.9,1,338.0,949.0,1.0,323.0,1,0.18731287175031486,0.0
42,42,0.07499858746511401,0.1,0,390.0,504.0,0.0,346.0,1,0.03772658535855711,0.0
43,43,-0.8220409837636367,-0.8,1,290.0,943.0,0.0,-1233.0,0,0.8609400465220552,0.0
44,44,0.7893930262265381,0.8,0,402.0,564.0,0.0,-956.0,1,0.33869352077293136,0.0
45,45,0.3760309889746323,0.4,0,485.0,636.0,0.0,249.0,1,0.16507151735829628,0.0
46,46,-0.7207481174749353,-0.7,1,300.0,930.0,1.0,230.0,1,0.5258022769445407,0.0
47,47,0.7402108129957887,0.7,0,421.0,516.0,0.0,-927.0,1,0.8879456957803307,0.0
48,48,-0.9144833613907484,-0.9,1,417.0,682.0,0.0,-1079.0,0,0.8595705471644802,0.0
49,49,-0.6047273915027809,-0.6,1,328.0,634.0,0.0,-962.0,0,0.7323723879774304,0.0
50,50,-0.550323738428228,-0.6,1,303.0,676.0,0.0,-979.0,0,0.8272771033377513,0.0
51,51,-0.11937894785923842,-0.1,1,346.0,981.0,0.0,-1317.0,0,0.12611651110222477,0.0
52,52,-0.5226423632281882,-0.5,1,355.0,803.0,1.0,242.0,1,0.39578792634587057,0.0
53,53,0.2024642271474264,0.2,0,356.0,538.0,0.0,-884.0,1,0.5035497371167409,0.0
54,54,0.3586183011214441,0.4,0,491.0,666.0,0.0,233.0,1,0.06402013182138033,0.0
55,55,0.2841742916524983,0.3,0,258.0,576.0,0.0,196.0,1,0.6328160327160938,0.0
56,56,-0.07365317832143536,-0.1,1,321.0,808.0,0.0,251.0,0,0.6447293090035205,0.0
57,57,-0.8472167295899031,-0.8,1,311.0,843.0,1.0,196.0,1,0.45083928073388224,0.0
58,58,0.9267788500550949,0.9,0,359.0,670.0,0.0,-1019.0,1,0.0403432158014676,0.0
59,59,0.251816710912534,0.3,0,303.0,976.0,0.0,-1229.0,1,0.7906972610465748,0.0
60,60,-0.5218809539953517,-0.5,1,352.0,555.0,0.0,-907.0,0,0.6884327885533393,0.0
61,61,0.4867217720424992,0.5,0,293.0,754.0,0.0,-1047.0,1,0.7268229509219956,0.0
62,62,-0.7450294357075071,-0.7,1,419.0,923.0,0.0,-1342.0,0,0.8561445185097192,0.0
63,63,-0.8698100080367035,-0.9,1,303.0,543.0,0.0,-846.0,0,0.8035115269180847,0.0
64,64,0.11135090805107195,0.1,0,395.0,501.0,0.0,424.0,1,0.7061740754557081,0.0
65,65,-0.4351907700457278,-0.4,1,421.0,773.0,1.0,726.0,1,0.05724894651252943,0.0
66,66,-0.3952135136923225,-0.4,1,425.0,908.0,0.0,-1333.0,0,0.9772764218896721,0.0
67,67,-0.3565354543813346,-0.4,1,415.0,928.0,1.0,247.0,1,0.26873272850829255,0.0
68,68,0.9426265124258997,0.9,0,471.0,834.0,0.0,145.0,1,0.8356517907635846,0.0
69,69,0.5654965259061209,0.6,0,469.0,741.0,0.0,280.0,1,0.23322111592319872,0.0
70,70,0.9414058941329198,0.9,0,373.0,745.0,0.0,152.0,1,0.07752952446176398,0.0
71,71,-0.9558020207265652,-1.0,1,378.0,525.0,0.0,-903.0,0,0.5999050550116147,0.0
72,72,-0.3112660515874006,-0.3,1,488.0,831.0,1.0,611.0,1,0.0833884404735552,0.0
73,73,0.31194531556925975,0.3,0,377.0,945.0,0.0,-1322.0,1,0.6492792215640105,0.0
74,74,0.7801163595659448,0.8,0,268.0,908.0,0.0,134.0,1,0.871085033083669,0.0
75,75,-0.6530648638755674,-0.7,1,290.0,697.0,0.0,-987.0,0,0.7626453002587198,0.0
76,76,0.8598357371828675,0.9,0,443.0,884.0,0.0,263.0,1,0.5881153324956813,0.0
77,77,0.47506073835508866,0.5,0,351.0,794.0,0.0,345.0,1,0.038566091978018746,0.0
78,78,0.5012854842405241,0.5,0,355.0,859.0,0.0,-1214.0,1,0.8018935921975424,0.0
79,79,0.36367877297145124,0.4,0,285.0,962.0,0.0,-1247.0,1,0.19874730281410646,0.0
80,80,-0.04287447735272143,-0.0,1,393.0,585.0,0.0,-978.0,0,0.4131056402655222,0.0
81,81,0.8449389864038135,0.8,0,395.0,673.0,0.0,602.0,1,0.021934017535613415,0.0
82,82,-0.7235223885380457,-0.7,1,360.0,528.0,1.0,282.0,1,0.05826896976700591,0.0
83,83,-0.5846686014597888,-0.6,1,315.0,713.0,1.0,292.0,1,0.2401104899281994,0.0
84,84,-0.12914610382025704,-0.1,1,467.0,787.0,1.0,1006.0,1,0.36626798514527314,0.0
85,85,-0.3594086419369842,-0.4,1,443.0,504.0,0.0,-927.0,0,0.47069499589186303,0.0
86,86,0.6056590676605835,0.6,0,475.0,777.0,0.0,-1242.0,1,0.1846049994602219,0.0
87,87,0.8799715415603284,0.9,0,319.0,842.0,0.0,-1161.0,1,0.7748968078011943,0.0
88,88,-0.43257167620153525,-0.4,1,251.0,912.0,0.0,-1163.0,0,0.554653897602006,0.0
89,89,0.5384577672197217,0.5,0,309.0,842.0,0.0,309.0,1,0.10528121997241868,0.0
90,90,0.3210404089492207,0.3,0,317.0,737.0,0.0,366.0,1,0.12974669185096055,0.0
91,91,0.9391483375942433,0.9,0,464.0,719.0,0.0,-1173.0,1,0.9919469479425465,0.0
92,92,0.33042149231570295,0.3,0,385.0,873.0,0.0,-1238.0,1,0.1838408562774373,0.0
93,93,-0.18472159224515972,-0.2,1,417.0,831.0,1.0,712.0,1,0.18636912432164532,0.0
94,94,0.05389731912401996,0.1,0,496.0,540.0,0.0,204.0,1,0.44872154369447537,0.0
95,95,0.38502193562437403,0.4,0,389.0,714.0,0.0,-1103.0,1,0.903704406686926,0.0
96,96,-0.16134969554390866,-0.2,1,301.0,751.0,1.0,268.0,1,0.6562253210835646,0.0
97,97,-0.16105105208718795,-0.2,1,395.0,906.0,1.0,369.0,1,0.20443223958149526,0.0
98,98,0.3825112968288287,0.4,0,344.0,973.0,0.0,243.0,1,0.44268662950999993,0.0
99,99,-0.5874278657376693,-0.6,1,260.0,860.0,0.0,-1120.0,0,0.5985790358206763,0.0
100,100,0.9966351162919949,1.0,0,409.0,802.0,0.0,149.0,1,0.3962835308638808,0.0
101,101,-0.5383365850116615,-0.5,1,377.0,643.0,0.0,-1020.0,0,0.609981123286996,0.0
102,102,0.047939143519167615,0.0,0,287.0,979.0,0.0,304.0,1,0.2524961881074764,0.0
103,103,0.26931356389189176,0.3,0,412.0,807.0,0.0,261.0,1,0.5643127865675378,0.0
104,104,-0.12270308389289597,-0.1,1,443.0,806.0,0.0,511.0,0,0.5775243368436996,0.0
105,105,0.24360618965010694,0.2,0,365.0,966.0,0.0,259.0,1,0.44813315441784674,0.0
106,106,-0.19103924934296246,-0.2,1,321.0,587.0,0.0,-908.0,0,0.638506739799722,0.0
107,107,-0.8840228211641008,-0.9,1,359.0,983.0,1.0,288.0,1,0.03839710113684225,0.0
108,108,-0.3454841205240653,-0.3,1,293.0,932.0,1.0,235.0,1,0.7181015034189516,0.0
109,109,0.018025904242092716,0.0,0,390.0,610.0,0.0,-1000.0,1,0.8340409332018566,0.0
110,110,0.007026658849630829,0.0,0,387.0,661.0,0.0,192.0,1,0.752581458119373,0.0
111,111,-0.5083161967732459,-0.5,1,265.0,990.0,0.0,-1255.0,0,0.7154811522150166,0.0
112,112,-0.1679223515470245,-0.2,1,400.0,794.0,0.0,-1194.0,0,0.46478382917387373,0.0
113,113,-0.20032204180621216,-0.2,1,352.0,629.0,0.0,-981.0,0,0.9266556889019445,0.0
114,114,0.5081699156246289,0.5,0,429.0,612.0,0.0,-1041.0,1,0.8646489897620908,0.0
115,115,-0.2522507988318705,-0.3,1,397.0,956.0,1.0,457.0,1,0.3739850334216822,0.0
116,116,0.30759454945217457,0.3,0,339.0,709.0,0.0,-1038.0,1,0.6798881565112257,0.0
117,117,0.9396544565499538,0.9,0,318.0,660.0,0.0,472.0,1,0.0701259629722214,0.0
118,118,-0.010194421063650871,-0.0,1,472.0,823.0,0.0,175.0,0,0.263365090735469,0.0
119,119,-0.8484760279190757,-0.8,1,353.0,609.0,1.0,198.0,1,0.7040565086646432,0.0
120,120,0.7479486667933621,0.7,0,268.0,837.0,0.0,-1105.0,1,0.6180268220895953,0.0
121,121,0.43430643710832184,0.4,0,415.0,727.0,0.0,318.0,1,0.4556995862675487,0.0
122,122,0.05275466149920871,0.1,0,389.0,598.0,0.0,473.0,1,0.580701316060597,0.0
123,123,-0.32701553875821854,-0.3,1,458.0,835.0,1.0,357.0,1,0.16525844003882872,0.0
124,124,0.9802010688862604,1.0,0,275.0,991.0,0.0,134.0,1,0.5862015410909923,0.0
125,125,0.40465774448395053,0.4,0,471.0,735.0,0.0,164.0,1,0.8592002285548929,0.0
126,126,-0.6352454000529038,-0.6,1,437.0,810.0,1.0,243.0,1,0.1793127858074095,0.0
127,127,-0.7376647626642052,-0.7,1,395.0,973.0,1.0,332.0,1,0.0635621283020007,0.0
128,128,0.9287178647831653,0.9,0,306.0,626.0,0.0,-932.0,1,0.791207878087904,0.0
129,129,-0.5056155208911144,-0.5,1,459.0,575.0,1.0,316.0,1,0.2792492107615968,0.0
130,130,-0.30214794664819555,-0.3,1,358.0,996.0,0.0,-1354.0,0,0.905654180756924,0.0
131,131,0.8101529292345535,0.8,0,416.0,664.0,0.0,200.0,1,0.23502798386424895,0.0
132,132,0.2473960904263095,0.2,0,299.0,941.0,0.0,330.0,1,0.24755353985982476,0.0
133,133,0.5612064455243406,0.6,0,341.0,922.0,0.0,-1253.0,1,0.27713764756637715,0.0
134,134,-0.905424363160914,-0.9,1,342.0,824.0,0.0,-1156.0,0,0.5146659022189342,0.0
135,135,-0.783612608797273,-0.8,1,428.0,585.0,1.0,417.0,1,0.08924175333938056,0.0
136,136,0.5117936357730792,0.5,0,364.0,565.0,0.0,71.0,1,0.9809317773023976,0.0
137,137,-0.3570818789150436,-0.4,1,498.0,608.0,0.0,-1106.0,0,0.5280054977246537,0.0
138,138,-0.7529819852816497,-0.8,1,396.0,610.0,1.0,284.0,1,0.2336330281620259,0.0
139,139,0.2300239534559525,0.2,0,336.0,620.0,0.0,384.0,1,0.4143945774293821,0.0
140,140,0.08082754097866407,0.1,0,341.0,518.0,0.0,-859.0,1,0.6170948374520626,0.0
141,141,-0.6248435071883662,-0.6,1,317.0,658.0,1.0,265.0,1,0.7515342731879606,0.0
142,142,0.519513986762131,0.5,0,347.0,912.0,0.0,131.0,1,0.1227215959777812,0.0
143,143,-0.27904121105804114,-0.3,1,366.0,782.0,0.0,-1078.0,0,0.8984793048667121,0.0
144,144,0.15373916021494627,0.2,0,345.0,585.0,0.0,580.0,1,0.20628377670735343,0.0
145,145,0.02221879047984654,0.0,0,285.0,962.0,0.0,233.0,1,0.4143300647136201,0.0
146,146,-0.28359160409981365,-0.3,1,482.0,743.0,0.0,-1225.0,0,0.9783602080129709,0.0
147,147,0.46954749162227283,0.5,0,491.0,536.0,0.0,-1027.0,1,0.6474880832824964,0.0
148,148,-0.18755407056938167,-0.2,1,359.0,711.0,1.0,640.0,1,0.14946278994634443,0.0
149,149,-0.6436893089621984,-0.6,1,451.0,882.0,0.0,-1323.0,0,0.6086989233495681,0.0
150,150,-0.7639708163613415,-0.8,1,365.0,865.0,1.0,200.0,1,0.4781106404183304,0.0
151,151,0.9978068487891774,1.0,0,465.0,900.0,0.0,155.0,1,0.8029681550537202,0.0
152,152,-0.4780266892715772,-0.5,1,438.0,640.0,1.0,302.0,1,0.22906501429269943,0.0
153,153,-0.19758851145382228,-0.2,1,343.0,603.0,0.0,-946.0,0,0.5842969134935558,0.0
154,154,-0.6154160575722514,-0.6,1,466.0,601.0,1.0,223.0,1,0.4860726013475686,0.0
155,155,0.18385531452353132,0.2,0,454.0,712.0,0.0,254.0,1,0.030841934878860444,0.0
156,156,0.38565944687072196,0.4,0,460.0,638.0,0.0,332.0,1,0.24978084399235267,0.0
157,157,0.955126976613276,1.0,0,464.0,758.0,0.0,138.0,1,0.6256809016337478,0.0
158,158,-0.8590808761125199,-0.9,1,270.0,734.0,1.0,476.0,1,0.05645044313222147,0.0
159,159,0.8909952691484526,0.9,0,453.0,773.0,0.0,204.0,1,0.5018597635165657,0.0
160,160,-0.9481587869334307,-0.9,1,433.0,913.0,0.0,-1206.0,0,0.7739039531055304,0.0
161,161,-0.17101931930042347,-0.2,1,399.0,815.0,0.0,-1214.0,0,0.8545199299038704,0.0
162,162,-0.07919394879153208,-0.1,1,296.0,955.0,0.0,-1251.0,0,0.8484512915211515,0.0
163,163,0.6962359437187697,0.7,0,347.0,607.0,0.0,-954.0,1,0.941459639365471,0.0
164,164,0.8784724500246148,0.9,0,416.0,807.0,0.0,277.0,1,0.018048215762836217,0.0
165,165,0.14080026574749538,0.1,0,346.0,707.0,0.0,147.0,1,0.35317772114466606,0.0
166,166,-0.26830691094396153,-0.3,1,470.0,935.0,1.0,675.0,1,0.1162864606652656,0.0
167,167,-0.5659663474163785,-0.6,1,319.0,750.0,0.0,-1069.0,0,0.8762525573149901,0.0
168,168,-0.5972873940449694,-0.6,1,498.0,741.0,1.0,201.0,1,0.0958810161125827,0.0
169,169,-0.14918469873496942,-0.1,1,295.0,837.0,0.0,278.0,0,0.8468333062848441,0.0
170,170,-0.7838509801428808,-0.8,1,293.0,747.0,1.0,180.0,1,0.7301585563228662,0.0
171,171,-0.9553067650418674,-1.0,1,342.0,833.0,1.0,245.0,1,0.12918986376813857,0.0
172,172,0.6623302762068524,0.7,0,412.0,933.0,0.0,145.0,1,0.4920369744415307,0.0
173,173,-0.544987107648611,-0.5,1,450.0,835.0,1.0,255.0,1,0.12192617230586322,0.0
174,174,0.9099265845027811,0.9,0,253.0,564.0,0.0,233.0,1,0.47758767485451514,0.0
175,175,-0.24308345876421678,-0.2,1,296.0,848.0,1.0,306.0,1,0.22370734276328075,0.0
176,176,0.32088531219839167,0.3,0,466.0,556.0,0.0,-1022.0,1,0.599087919336101,0.0
177,177,-0.7305983384343178,-0.7,1,264.0,656.0,1.0,300.0,1,0.9996832058712758,0.0
178,178,-0.662917669896373,-0.7,1,400.0,585.0,1.0,245.0,1,0.5884369221736999,0.0
179,179,0.21847344736313956,0.2,0,493.0,604.0,0.0,-1097.0,1,0.8840763014840572,0.0
180,180,0.30071889241772465,0.3,0,279.0,687.0,0.0,424.0,1,0.17094110708646948,0.0
181,181,0.988818348217515,1.0,0,270.0,917.0,0.0,173.0,1,0.9264481462815388,0.0
182,182,-0.3434121292277379,-0.3,1,251.0,603.0,0.0,-844.0,0,0.39281600405646533,0.0
183,183,-0.6703792102365784,-0.7,1,308.0,885.0,0.0,-1193.0,0,0.4535050287802104,0.0
184,184,-0.2765912639415946,-0.3,1,328.0,720.0,0.0,422.0,0,0.8257834274510015,0.0
185,185,0.10099654120222601,0.1,0,362.0,825.0,0.0,413.0,1,0.22733905868130733,0.0
186,186,-0.4621587534135947,-0.5,1,490.0,896.0,0.0,-1386.0,0,0.687918522566425,0.0
187,187,0.06883373754341648,0.1,0,490.0,973.0,0.0,-1453.0,1,0.5426038746061568,0.0
188,188,-0.21120031551880447,-0.2,1,341.0,843.0,1.0,876.0,1,0.13007147261822471,0.0
189,189,-0.4532551657610502,-0.5,1,403.0,947.0,1.0,240.0,1,0.35708580744581586,0.0
190,190,0.4305437221709223,0.4,0,432.0,959.0,0.0,279.0,1,0.3389022656169114,0.0
191,191,0.1567987831680362,0.2,0,306.0,517.0,0.0,-823.0,1,0.844542445925064,0.0
192,192,-0.09027484160998678,-0.1,1,290.0,859.0,0.0,1621.0,0,0.08208686049373082,0.0
193,193,0.07002919650457295,0.1,0,368.0,948.0,0.0,264.0,1,0.72058140264663,0.0
194,194,-0.24474567323029972,-0.2,1,473.0,949.0,1.0,618.0,1,0.43142365422162077,0.0
195,195,-0.9877592446912571,-1.0,1,391.0,615.0,0.0,-1006.0,0,0.3926718404065208,0.0
196,196,0.7949353306597995,0.8,0,360.0,603.0,0.0,-953.0,1,0.7965580700560227,0.0
197,197,-0.44035667711387094,-0.4,1,484.0,595.0,0.0,-1069.0,0,0.9887513645130981,0.0
198,198,0.08952296578913077,0.1,0,285.0,595.0,0.0,-870.0,1,0.7922377672692509,0.0
199,199,-0.5881026978244623,-0.6,1,460.0,908.0,0.0,-1368.0,0,0.9997873743177804,0.0
200,200,-0.43329841625851695,-0.4,1,380.0,802.0,1.0,448.0,1,0.0878652506917389,0.0
201,201,-0.17205922877364643,-0.2,1,474.0,528.0,1.0,1768.0,1,0.08324018857760673,0.0
202,202,-0.009018738631793033,-0.0,1,332.0,821.0,0.0,-1153.0,0,0.5445985721720746,0.0
203,203,-0.31728184321944086,-0.3,1,472.0,614.0,1.0,314.0,1,0.3599633100226223,0.0
204,204,0.05005694472231115,0.1,0,412.0,926.0,0.0,302.0,1,0.20528892242242502,0.0
205,205,0.09052349539190341,0.1,0,467.0,565.0,0.0,-1032.0,1,0.7528100862878903,0.0
206,206,-0.5104654221097447,-0.5,1,404.0,990.0,1.0,356.0,1,0.2029948876809492,0.0
207,207,0.9358030453501878,0.9,0,457.0,783.0,0.0,-1210.0,1,0.970459006519584,0.0
208,208,0.7904023452002147,0.8,0,477.0,530.0,0.0,153.0,1,0.8572818735512738,0.0
209,209,0.827417968651962,0.8,0,416.0,790.0,0.0,364.0,1,0.18754152030664828,0.0
210,210,-0.7166108247230056,-0.7,1,441.0,701.0,0.0,-1142.0,0,0.8995017685064811,0.0
211,211,-0.5801026753267229,-0.6,1,290.0,911.0,1.0,319.0,1,0.4693724139428681,0.0
212,212,-0.7795818517112949,-0.8,1,279.0,890.0,1.0,241.0,1,0.2675729785171699,0.0
213,213,-0.6317348193022401,-0.6,1,414.0,897.0,0.0,-1311.0,0,0.8306463249124378,0.0
214,214,0.532843074438833,0.5,0,486.0,640.0,0.0,-1126.0,1,0.8684121383382287,0.0
215,215,-0.3653601170557894,-0.4,1,414.0,831.0,1.0,415.0,1,0.32313695660121133,0.0
216,216,0.10820100315808268,0.1,0,441.0,534.0,0.0,-975.0,1,0.837733976456734,0.0
217,217,0.3566505140342944,0.4,0,266.0,796.0,0.0,308.0,1,0.1641002230794827,0.0
218,218,0.0775591333655079,0.1,0,272.0,720.0,0.0,268.0,1,0.22846190860795368,0.0
219,219,0.7317915283942671,0.7,0,452.0,964.0,0.0,324.0,1,0.14609704260004264,0.0
220,220,0.23791485698854276,0.2,0,469.0,530.0,0.0,491.0,1,0.23878339808836335,0.0
221,221,-0.08263092916978176,-0.1,1,381.0,793.0,0.0,-1174.0,0,0.8383588544811138,0.0
222,222,-0.30747547731522706,-0.3,1,299.0,901.0,1.0,300.0,1,0.1629487578003297,0.0
223,223,-0.8764667012284899,-0.9,1,390.0,761.0,1.0,409.0,1,0.025659188236339836,0.0
224,224,0.22412228524116973,0.2,0,356.0,890.0,0.0,-1226.0,1,0.8909950970274662,0.0
225,225,0.8686159791225871,0.9,0,299.0,853.0,0.0,-1142.0,1,0.8273275147136717,0.0
226,226,0.5099822544574142,0.5,0,462.0,581.0,0.0,367.0,1,0.8055807018573969,0.0
227,227,0.21891809818834496,0.2,0,480.0,945.0,0.0,-1425.0,1,0.5099113207495908,0.0
228,228,0.8503505091209582,0.9,0,296.0,625.0,0.0,-921.0,1,0.6728947860745371,0.0
229,229,0.4406864630202114,0.4,0,278.0,983.0,0.0,199.0,1,0.029125958476434177,0.0
230,230,-0.30911663486969054,-0.3,1,429.0,783.0,1.0,348.0,1,0.6582540975076329,0.0
231,231,-0.992533776135156,-1.0,1,484.0,516.0,1.0,300.0,1,0.01663701669685036,0.0
232,232,-0.23780600955612874,-0.2,1,453.0,948.0,0.0,-1401.0,0,0.8870565156349278,0.0
233,233,-0.38941846950680925,-0.4,1,353.0,746.0,0.0,-1099.0,0,0.6640900096055148,0.0
234,234,0.32186081006435874,0.3,0,430.0,516.0,0.0,284.0,1,0.7479253257127534,0.0
235,235,0.2789699100253664,0.3,0,294.0,970.0,0.0,-1264.0,1,0.3377516315004899,0.0
236,236,0.9676857465181101,1.0,0,408.0,998.0,0.0,214.0,1,0.20623442201421882,0.0
237,237,-0.5830487777844873,-0.6,1,462.0,729.0,0.0,-1151.0,0,0.3606042512821829,0.0
238,238,-0.23529352323649655,-0.2,1,350.0,876.0,1.0,254.0,1,0.29219308755915274,0.0
239,239,-0.16205098008169494,-0.2,1,473.0,691.0,0.0,-1164.0,0,0.816981515213252,0.0
240,240,-0.6933233873681495,-0.7,1,316.0,646.0,1.0,288.0,1,0.2437488315905999,0.0
241,241,-0.010243600392231711,-0.0,1,446.0,500.0,1.0,704.0,1,0.1944744602365518,0.0
242,242,-0.02996198738195588,-0.0,1,437.0,737.0,1.0,546.0,1,0.6135960666506579,0.0
243,243,0.3830697438297066,0.4,0,404.0,807.0,0.0,409.0,1,0.14118635787564737,0.0
244,244,0.5168772045105305,0.5,0,319.0,813.0,0.0,-1132.0,1,0.66308526947714,0.0
245,245,-0.04709577153036815,-0.0,1,484.0,613.0,0.0,-1017.0,0,0.6875852101585097,0.0
246,246,0.6502584517440948,0.7,0,457.0,827.0,0.0,-1264.0,1,0.8794722834046423,0.0
247,247,-0.43793498404359843,-0.4,1,486.0,785.0,1.0,389.0,1,0.3670261256434111,0.0
248,248,0.3125435841415918,0.3,0,462.0,756.0,0.0,412.0,1,0.16566047020823693,0.0
249,249,0.09950832568273604,0.1,0,372.0,773.0,0.0,275.0,1,0.577664543271464,0.0
250,250,-0.7915712951883505,-0.8,1,258.0,520.0,1.0,172.0,1,0.3796291855662104,0.0
251,251,-0.22503701911175789,-0.2,1,379.0,753.0,0.0,-1122.0,0,0.37264817964731456,0.0
252,252,-0.7396349059200074,-0.7,1,413.0,658.0,1.0,239.0,1,0.5343254398171222,0.0
253,253,0.5379553106717434,0.5,0,409.0,631.0,0.0,-1040.0,1,0.8647266473719352,0.0
254,254,0.9989479437079802,1.0,0,417.0,977.0,0.0,106.0,1,0.009323362674473423,0.0
255,255,0.41717316656813974,0.4,0,369.0,831.0,0.0,240.0,1,0.15430226636058098,0.0
256,256,0.8727229480924512,0.9,0,282.0,742.0,0.0,196.0,1,0.11246887644847625,0.0
257,257,0.25860837300101003,0.3,0,393.0,670.0,0.0,367.0,1,0.13182860990411815,0.0
258,258,0.7657658169974335,0.8,0,324.0,843.0,0.0,163.0,1,0.033299806811249555,0.0
259,259,-0.9949436937981075,-1.0,1,264.0,556.0,1.0,200.0,1,0.620545290910864,0.0
260,260,0.9452572694320398,0.9,0,329.0,982.0,0.0,209.0,1,0.1886153751425651,0.0
261,261,0.34672528491625765,0.3,0,299.0,584.0,0.0,-863.0,1,0.7312228133968546,0.0
262,262,0.9749351410079163,1.0,0,367.0,731.0,0.0,-1098.0,1,0.8168867713581952,0.0
263,263,-0.2662594441781134,-0.3,1,298.0,968.0,0.0,-1266.0,0,0.9045047348797068,0.0
264,264,-0.8704856345563836,-0.9,1,496.0,574.0,0.0,-1070.0,0,0.6953094322850041,0.0
265,265,0.5182190771538797,0.5,0,492.0,912.0,0.0,-1404.0,1,0.940589754178385,0.0
266,266,-0.4486553011584584,-0.4,1,311.0,800.0,1.0,539.0,1,0.08710869413000488,0.0
267,267,0.7568876855890447,0.8,0,282.0,926.0,0.0,-1208.0,1,0.9415712495262806,0.0
268,268,0.0004838797158679409,0.0,0,450.0,530.0,0.0,460.0,1,0.2301219237501837,0.0
269,269,-0.6701389666601278,-0.7,1,485.0,725.0,0.0,-1200.0,0,0.3544008460985384,0.0
270,270,0.24869468409985274,0.2,0,363.0,697.0,0.0,-1060.0,1,0.9819177837296391,0.0
271,271,-0.5994819808383045,-0.6,1,485.0,928.0,1.0,407.0,1,0.2714513503209547,0.0
272,272,0.6513813337816674,0.7,0,426.0,670.0,0.0,264.0,1,0.06423949957446173,0.0
273,273,-0.9186112872940972,-0.9,1,418.0,723.0,1.0,289.0,1,0.16068785713675526,0.0
274,274,0.07026690661118784,0.1,0,290.0,555.0,1.0,405.0,0,0.8096295235061952,0.0
275,275,-0.14251079143436085,-0.1,1,492.0,786.0,0.0,-1278.0,0,0.8603125254611582,0.0
276,276,0.296470642962114,0.3,0,456.0,703.0,0.0,-1129.0,1,0.5174662925083493,0.0
277,277,-0.08427809172398204,-0.1,1,378.0,955.0,0.0,357.0,0,0.2739400384038905,0.0
278,278,-0.695505951478645,-0.7,1,472.0,635.0,0.0,-1107.0,0,0.8152682165351053,0.0
279,279,0.08032730314265502,0.1,0,494.0,983.0,0.0,-1437.0,1,0.4209918224095448,0.0
280,280,0.060264717448799576,0.1,0,458.0,991.0,0.0,-1449.0,1,0.7147000114243188,0.0
281,281,0.5844147370640338,0.6,0,495.0,903.0,0.0,492.0,1,0.07669463782286601,0.0
282,282,-0.8859649892859409,-0.9,1,273.0,705.0,1.0,242.0,1,0.0678051029690997,0.0
283,283,0.3355679729731007,0.3,0,338.0,848.0,0.0,-1176.0,1,0.9753002479067838,0.0
284,284,-0.19417208479986403,-0.2,1,464.0,574.0,1.0,732.0,1,0.1916368800423499,0.0
285,285,-0.5745302557840413,-0.6,1,475.0,740.0,1.0,275.0,1,0.23188992074661197,0.0
286,286,-0.9221298203767296,-0.9,1,374.0,780.0,1.0,466.0,1,0.020561157800247698,0.0
287,287,0.0005696881694297051,0.0,0,426.0,505.0,0.0,959.0,1,0.10202333529020868,0.0
288,288,0.651205218700482,0.7,0,326.0,712.0,0.0,-1038.0,1,0.808113034767585,0.0
289,289,-0.7383855350822994,-0.7,1,318.0,894.0,0.0,-1212.0,0,0.6092835690168446,0.0
290,290,0.37084437621031974,0.4,0,337.0,893.0,0.0,-1230.0,1,0.6364695775118766,0.0
291,291,0.5645972337727718,0.6,0,323.0,965.0,0.0,212.0,1,0.8087444624942134,0.0
292,292,-0.17962714636651356,-0.2,1,268.0,880.0,0.0,572.0,0,0.3506705389232537,0.0
293,293,-0.8675124463017527,-0.9,1,421.0,803.0,1.0,226.0,1,0.9999098943813068,0.0
294,294,0.5191589080445946,0.5,0,398.0,505.0,0.0,-903.0,1,0.17135739344925782,0.0
295,295,0.4431798744381028,0.4,0,446.0,759.0,0.0,355.0,1,0.14091356941989142,0.0
296,296,-0.21601498004952124,-0.2,1,440.0,885.0,1.0,545.0,1,0.39591345953925394,0.0
297,297,-0.3918340764462287,-0.4,1,455.0,894.0,1.0,471.0,1,0.14594427493408302,0.0
298,298,0.5783157687151133,0.6,0,296.0,669.0,0.0,-965.0,1,0.8422126334873566,0.0
299,299,0.46597188263069556,0.5,0,396.0,824.0,0.0,250.0,1,0.14444262067670421,0.0
300,300,-0.3918066589908604,-0.4,1,275.0,778.0,0.0,-1053.0,0,0.46336578609279133,0.0
301,301,0.7653937588751201,0.8,0,396.0,629.0,0.0,-1025.0,1,0.8561384225733193,0.0
302,302,0.6811589389724004,0.7,0,281.0,935.0,0.0,244.0,1,0.04845488365767536,0.0
303,303,-0.8482723206378264,-0.8,1,280.0,757.0,0.0,-1037.0,0,0.9212576484442048,0.0
304,304,-0.7974614002421876,-0.8,1,357.0,885.0,0.0,-1242.0,0,0.6013959014806134,0.0
305,305,0.5751106072130208,0.6,0,359.0,679.0,0.0,-1038.0,1,0.9599579566658609,0.0
306,306,0.6102752098884656,0.6,0,260.0,865.0,0.0,175.0,1,0.45525851214611923,0.0
307,307,-0.7870909793302185,-0.8,1,273.0,828.0,0.0,-1101.0,0,0.7918162758300913,0.0
308,308,0.617774049012435,0.6,0,499.0,899.0,0.0,312.0,1,0.46039173766155683,0.0
309,309,-0.07799243999105387,-0.1,1,257.0,875.0,0.0,-1132.0,0,0.999980740045869,0.0
310,310,0.17748664601557085,0.2,0,484.0,664.0,0.0,-1148.0,1,0.4613234310515356,0.0
311,311,0.9285827937011726,0.9,0,473.0,603.0,0.0,-1066.0,1,0.1318291255898062,0.0
312,312,0.7194238686865371,0.7,0,342.0,859.0,0.0,229.0,1,0.5338362920773703,0.0
313,313,0.853311817378221,0.9,0,417.0,963.0,0.0,-1380.0,1,0.7195231807934844,0.0
314,314,-0.7165523049769029,-0.7,1,275.0,808.0,1.0,277.0,1,0.05456879925444791,0.0
315,315,0.07834441588766672,0.1,0,329.0,622.0,0.0,189.0,1,0.3397717526068956,0.0
316,316,0.8705202231321576,0.9,0,381.0,521.0,0.0,-902.0,1,0.736137398720915,0.0
317,317,0.47215897897811865,0.5,0,419.0,805.0,0.0,216.0,1,0.39817299584061283,0.0
318,318,-0.1863856343304251,-0.2,1,267.0,975.0,1.0,418.0,1,0.21869005645348816,0.0
319,319,-0.7765732301042203,-0.8,1,313.0,888.0,1.0,559.0,1,0.06042483349522643,0.0
320,320,0.8884095580416174,0.9,0,388.0,576.0,0.0,196.0,1,0.23969199280882258,0.0
321,321,-0.4217750800756661,-0.4,1,250.0,562.0,0.0,-792.0,0,0.4415369180368177,0.0
322,322,0.4070931622708478,0.4,0,315.0,507.0,0.0,208.0,1,0.36533761281143684,0.0
323,323,0.6310700825815105,0.6,0,330.0,529.0,0.0,-859.0,1,0.616204922659039,0.0
324,324,0.8965202634663723,0.9,0,268.0,688.0,0.0,-946.0,1,0.40487151514340425,0.0
325,325,-0.28940563908282746,-0.3,1,459.0,919.0,1.0,732.0,1,0.33026242765020797,0.0
326,326,0.9253589085934397,0.9,0,494.0,686.0,0.0,220.0,1,0.30761202501557694,0.0
327,327,-0.08225617558481035,-0.1,1,475.0,881.0,1.0,414.0,1,0.6116687656815671,0.0
328,328,0.3190746018416155,0.3,0,479.0,895.0,0.0,446.0,1,0.16413219532929402,0.0
329,329,0.9352634808844364,0.9,0,442.0,681.0,0.0,157.0,1,0.7127619337258423,0.0
330,330,0.5670126441661771,0.6,0,312.0,752.0,0.0,-1054.0,1,0.4574977140531522,0.0
331,331,0.8156716746305503,0.8,0,372.0,663.0,0.0,205.0,1,0.15069613758458067,0.0
332,332,0.2864511371025873,0.3,0,344.0,767.0,0.0,299.0,1,0.38912098357737634,0.0
333,333,-0.27285338900730016,-0.3,1,458.0,617.0,1.0,285.0,1,0.3255380326985181,0.0
334,334,0.78314234456651,0.8,0,302.0,778.0,0.0,160.0,1,0.011565405388241468,0.0
335,335,-0.1390508893290412,-0.1,1,262.0,904.0,0.0,-1166.0,0,0.9645163575962529,0.0
336,336,0.01156114425685284,0.0,0,357.0,881.0,0.0,-1238.0,1,0.3887397958248695,0.0
337,337,0.3406951170591994,0.3,0,411.0,682.0,0.0,307.0,1,0.8672164959769191,0.0
338,338,-0.38834298675888657,-0.4,1,396.0,836.0,0.0,-1232.0,0,0.8971141152260859,0.0
339,339,0.3169677739038619,0.3,0,270.0,785.0,0.0,245.0,1,0.24046841765367166,0.0
340,340,0.6735534545213289,0.7,0,481.0,707.0,0.0,142.0,1,0.5057627259308449,0.0
341,341,0.4661010853274492,0.5,0,455.0,651.0,0.0,184.0,1,0.3091583533914467,0.0
342,342,-0.9977867714268642,-1.0,1,256.0,762.0,1.0,232.0,1,0.22595024186174573,0.0
343,343,0.014557396415946444,0.0,0,328.0,854.0,0.0,288.0,1,0.3654841165025715,0.0
344,344,0.08832394472302907,0.1,0,261.0,802.0,0.0,-1063.0,1,0.9475642059456892,0.0
345,345,0.8866704364947049,0.9,0,326.0,840.0,0.0,184.0,1,0.5281103411803497,0.0
346,346,0.9755883766543167,1.0,0,415.0,967.0,0.0,-1372.0,1,0.7521690129850247,0.0
347,347,0.6036367571770185,0.6,0,316.0,652.0,0.0,522.0,1,0.17150702860193057,0.0
348,348,-0.35561889821748305,-0.4,1,446.0,695.0,0.0,-1141.0,0,0.5597522666547488,0.0
349,349,0.5512534540075813,0.6,0,420.0,791.0,0.0,309.0,1,0.6626590629400717,0.0
350,350,0.8680462038370234,0.9,0,409.0,724.0,0.0,-1123.0,1,0.05451959560696118,0.0
351,351,0.5631861155850382,0.6,0,461.0,577.0,0.0,-1038.0,1,0.8294220558499145,0.0
352,352,-0.6956832448227708,-0.7,1,359.0,841.0,1.0,290.0,1,0.8195655199776485,0.0
353,353,-0.17104399658653402,-0.2,1,423.0,629.0,0.0,458.0,0,0.398469878938122,0.0
354,354,-0.09898448527093695,-0.1,1,346.0,920.0,0.0,-1266.0,0,0.7590162362453325,0.0
355,355,0.022821694175883644,0.0,0,281.0,888.0,0.0,-1169.0,1,0.7435467049023575,0.0
356,356,0.27669224104234424,0.3,0,292.0,644.0,0.0,264.0,1,0.20647639454608735,0.0
357,357,0.10034389253036524,0.1,0,348.0,564.0,0.0,218.0,1,0.2698104550403252,0.0
358,358,0.2965409422806442,0.3,0,312.0,779.0,0.0,-1091.0,1,0.7198143497482654,0.0
359,359,-0.9953233163864053,-1.0,1,411.0,831.0,0.0,-1242.0,0,0.382278796398102,0.0
360,360,0.2915587601977454,0.3,0,269.0,938.0,0.0,263.0,1,0.4625399745639094,0.0
361,361,-0.6674775282543557,-0.7,1,407.0,679.0,0.0,-1086.0,0,0.6876474536115925,0.0
362,362,0.491882580102182,0.5,0,407.0,767.0,0.0,-1174.0,1,0.8080326754139063,0.0
363,363,-0.027416958571845562,-0.0,1,261.0,578.0,0.0,601.0,0,0.20517662271986437,0.0
364,364,0.2981924564358185,0.3,0,480.0,748.0,0.0,182.0,1,0.3799054110567951,0.0
365,365,0.09400516869333231,0.1,0,337.0,887.0,0.0,246.0,1,0.08061028630687062,0.0
366,366,-0.09710053509225292,-0.1,1,437.0,971.0,0.0,692.0,0,0.7134160209993194,0.0
367,367,-0.8318838398458879,-0.8,1,459.0,908.0,1.0,163.0,1,0.3893487599141163,0.0
368,368,0.30802072000923886,0.3,0,323.0,912.0,0.0,-1165.0,1,0.08228281321098274,0.0
369,369,0.21449522472165294,0.2,0,416.0,720.0,0.0,274.0,1,0.40023553312810467,0.0
370,370,0.7748103266768385,0.8,0,446.0,886.0,0.0,218.0,1,0.3080139457862875,0.0
371,371,-0.9564674369913282,-1.0,1,394.0,701.0,1.0,295.0,1,0.04301761710067786,0.0
372,372,-0.510373472186642,-0.5,1,466.0,713.0,1.0,221.0,1,0.28620873481824627,0.0
373,373,-0.6025406717749844,-0.6,1,286.0,933.0,0.0,-1219.0,0,0.6459871628561202,0.0
374,374,-0.353128578961188,-0.4,1,378.0,604.0,0.0,-982.0,0,0.7035828147348505,0.0
375,375,0.6585178982980848,0.7,0,377.0,849.0,0.0,-1226.0,1,0.881961634326643,0.0
376,376,0.5129581003394503,0.5,0,432.0,725.0,0.0,293.0,1,0.6254579361919103,0.0
377,377,0.4061433974836999,0.4,0,344.0,522.0,0.0,-866.0,1,0.5262034410920851,0.0
378,378,-0.66769768626209,-0.7,1,375.0,566.0,0.0,-931.0,0,0.7864298943357175,0.0
379,379,-0.9059802581477117,-0.9,1,358.0,940.0,1.0,172.0,1,0.36738627647918565,0.0
380,380,0.06826720326343794,0.1,0,400.0,628.0,0.0,282.0,1,0.6335934146041123,0.0
381,381,0.47575843623087666,0.5,0,340.0,724.0,0.0,256.0,1,0.25100780085939245,0.0
382,382,-0.9280105269635168,-0.9,1,262.0,988.0,1.0,190.0,1,0.463297444737527,0.0
383,383,0.10760307984307094,0.1,0,278.0,617.0,0.0,525.0,1,0.18445226432834105,0.0
384,384,0.8584005898617837,0.9,0,284.0,550.0,0.0,176.0,1,0.7574706042114733,0.0
385,385,0.603924319746376,0.6,0,369.0,635.0,0.0,206.0,1,0.26996731259506923,0.0
386,386,0.2648921787741674,0.3,0,347.0,803.0,0.0,-1150.0,1,0.5074195399135897,0.0
387,387,-0.4895659306717135,-0.5,1,337.0,608.0,0.0,-945.0,0,0.717052104310941,0.0
388,388,0.7653164860434507,0.8,0,459.0,806.0,0.0,195.0,1,0.1210415066375552,0.0
389,389,-0.3998510677340925,-0.4,1,487.0,896.0,0.0,-1383.0,0,0.8731466512704112,0.0
390,390,-0.6365578395163736,-0.6,1,495.0,657.0,0.0,-1152.0,0,0.6186308141456625,0.0
391,391,-0.5068120246543266,-0.5,1,434.0,539.0,0.0,-973.0,0,0.9502468158520554,0.0
392,392,0.7609511066198809,0.8,0,430.0,649.0,0.0,141.0,1,0.4285960861599385,0.0
393,393,0.8471572659178199,0.8,0,469.0,904.0,0.0,267.0,1,0.2765848368211158,0.0
394,394,0.49183521071677694,0.5,0,349.0,834.0,0.0,267.0,1,0.32194357991701883,0.0
395,395,0.277984962299779,0.3,0,283.0,628.0,0.0,-911.0,1,0.8693024015586777,0.0
396,396,0.9604992982416871,1.0,0,358.0,977.0,0.0,185.0,1,0.2660636978171137,0.0
397,397,0.11943978258416066,0.1,0,460.0,916.0,0.0,434.0,1,0.2430413310556746,0.0
398,398,0.7589083293532,0.8,0,383.0,562.0,0.0,145.0,1,0.9391699169348251,0.0
399,399,-0.1145936438398607,-0.1,1,281.0,949.0,0.0,410.0,0,0.4269591546267798,0.0
400,400,-0.6063454846230758,-0.6,1,364.0,780.0,1.0,226.0,1,0.13120134583208298,0.0
401,401,0.69646462455955,0.7,0,331.0,728.0,0.0,-1059.0,1,0.9703981850183051,0.0
402,402,-0.9711205191217858,-1.0,1,398.0,632.0,0.0,-1030.0,0,0.9921546785729428,0.0
403,403,0.0983157275967026,0.1,0,495.0,517.0,1.0,228.0,0,0.8161120993731807,0.0
404,404,0.270145551963491,0.3,0,344.0,645.0,0.0,341.0,1,0.12835797739554955,0.0
405,405,0.1346120900520429,0.1,0,454.0,806.0,0.0,-1260.0,1,0.6924905189787867,0.0
406,406,0.4984874587291237,0.5,0,363.0,628.0,0.0,269.0,1,0.04092182347171691,0.0
407,407,-0.17630284959572573,-0.2,1,363.0,615.0,0.0,-978.0,0,0.5224290145617725,0.0
408,408,0.44256284374051313,0.4,0,429.0,624.0,0.0,367.0,1,0.2559694305438712,0.0
409,409,-0.09906058374172066,-0.1,1,443.0,717.0,0.0,-1150.0,0,0.736019005530482,0.0
410,410,0.7916344533081972,0.8,0,353.0,550.0,0.0,-903.0,1,0.6264187174129873,0.0
411,411,0.09670321477974309,0.1,0,455.0,726.0,0.0,299.0,1,0.20985843075244137,0.0
412,412,-0.5848408054500394,-0.6,1,255.0,751.0,1.0,594.0,1,0.28233655770264643,0.0
413,413,-0.8367839144478733,-0.8,1,287.0,851.0,1.0,202.0,1,0.4694878877728943,0.0
414,414,0.5156927400607703,0.5,0,399.0,629.0,0.0,142.0,1,0.24526563249296263,0.0
415,415,0.5489126553478463,0.5,0,379.0,741.0,1.0,-1080.0,0,0.5894317685403603,0.0
416,416,-0.07047303260926352,-0.1,1,277.0,852.0,1.0,1231.0,1,0.3353610728650015,0.0
417,417,-0.8886064168438337,-0.9,1,419.0,620.0,1.0,281.0,1,0.37740341959981794,0.0
418,418,0.30775882032808677,0.3,0,297.0,623.0,0.0,260.0,1,0.784575321537422,0.0
419,419,-0.682202924137898,-0.7,1,250.0,959.0,1.0,221.0,1,0.4111330649799917,0.0
420,420,0.40722450255523124,0.4,0,458.0,833.0,0.0,159.0,1,0.49157385053091596,0.0
421,421,-0.4550853032470499,-0.5,1,396.0,999.0,1.0,215.0,1,0.5796958256766611,0.0
422,422,-0.8005127389123867,-0.8,1,273.0,515.0,1.0,212.0,1,0.14208511691347747,0.0
423,423,-0.7093478530368207,-0.7,1,265.0,534.0,0.0,-799.0,0,0.8454774739891391,0.0
424,424,0.25252572901613446,0.3,0,339.0,730.0,0.0,191.0,1,0.977475389073455,0.0
425,425,0.21161914128455028,0.2,0,488.0,932.0,0.0,380.0,1,0.3091256565688656,0.0
426,426,0.1941335107387352,0.2,0,422.0,659.0,0.0,389.0,1,0.30321226230766707,0.0
427,427,-0.7509707288409293,-0.8,1,393.0,721.0,0.0,-1114.0,0,0.8562571607176047,0.0
428,428,-0.8501282898840141,-0.9,1,275.0,968.0,0.0,-1233.0,0,0.3711746664561103,0.0
429,429,0.0272873873976911,0.0,0,443.0,890.0,0.0,-1333.0,1,0.5978921565172632,0.0
430,430,0.5681482768081927,0.6,0,324.0,845.0,0.0,291.0,1,0.34294906345018117,0.0
431,431,0.47598318978574516,0.5,0,417.0,954.0,0.0,-1371.0,1,0.9127415093075478,0.0
432,432,0.09795425468321062,0.1,0,457.0,580.0,0.0,563.0,1,0.10491316324949151,0.0
433,433,0.6957152311520483,0.7,0,308.0,887.0,0.0,245.0,1,0.26372819347578347,0.0
434,434,-0.718472910847956,-0.7,1,494.0,642.0,1.0,224.0,1,0.4626675350018641,0.0
435,435,-0.1782839570861412,-0.2,1,461.0,559.0,0.0,270.0,0,0.4788857624567435,0.0
436,436,-0.09635680280878689,-0.1,1,358.0,659.0,0.0,-1017.0,0,0.86246056453627,0.0
437,437,0.05312908153601836,0.1,0,369.0,957.0,0.0,1844.0,1,0.083594928950666,0.0
438,438,-0.3316128147002064,-0.3,1,288.0,816.0,0.0,-1094.0,0,0.6803662266573769,0.0
439,439,-0.2913308370377572,-0.3,1,425.0,932.0,1.0,643.0,1,0.25921458480449666,0.0
440,440,-0.4809863311914446,-0.5,1,454.0,681.0,0.0,-1135.0,0,0.7422260075863433,0.0
441,441,-0.01451154115406772,-0.0,1,489.0,525.0,0.0,-1004.0,0,0.8787418816775211,0.0
442,442,-0.865799081893148,-0.9,1,283.0,913.0,0.0,-1196.0,0,0.40715666483115254,0.0
443,443,0.48241304622817993,0.5,0,349.0,681.0,0.0,280.0,1,0.16522858783993166,0.0
444,444,-0.7239602661663325,-0.7,1,363.0,949.0,1.0,378.0,1,0.6179019774406248,0.0
445,445,0.53351445818603,0.5,0,323.0,626.0,0.0,201.0,1,0.8419052075113833,0.0
446,446,-0.013675658439052718,-0.0,1,319.0,660.0,1.0,631.0,1,0.1906893052001042,0.0
447,447,-0.13923401061014307,-0.1,1,451.0,797.0,1.0,692.0,1,0.15339254304002192,0.0
448,448,-0.8292722372042751,-0.8,1,363.0,822.0,0.0,-1185.0,0,0.7204738772777985,0.0
449,449,0.9840098456509851,1.0,0,435.0,817.0,0.0,-1252.0,1,0.8829874342304437,0.0
450,450,0.5656242161932081,0.6,0,398.0,928.0,0.0,164.0,1,0.5754777489705722,0.0
451,451,0.7222432685683446,0.7,0,458.0,940.0,0.0,282.0,1,0.013170485217931849,0.0
452,452,-0.6033152488363112,-0.6,1,384.0,573.0,1.0,133.0,1,0.3225960087423616,0.0
453,453,0.2788896431815526,0.3,0,384.0,525.0,0.0,-839.0,1,0.4043956738884986,0.0
454,454,0.15903206441903395,0.2,0,316.0,599.0,0.0,-885.0,1,0.5277105759519134,0.0
455,455,-0.6680637411725396,-0.7,1,324.0,579.0,0.0,-893.0,0,0.5428871774330336,0.0
456,456,-0.06880862782590791,-0.1,1,451.0,527.0,1.0,1942.0,1,0.011825790977108563,0.0
457,457,0.7678003454796389,0.8,0,279.0,876.0,0.0,275.0,1,0.09835756649943783,0.0
458,458,0.8370925339376207,0.8,0,491.0,625.0,0.0,74.0,1,0.5164034372514015,0.0
459,459,0.6485892088149974,0.6,0,488.0,535.0,0.0,287.0,1,0.5818371127595768,0.0
460,460,0.9528818109305686,1.0,0,298.0,521.0,0.0,271.0,1,0.03943177041040247,0.0
461,461,-0.017118648817305182,-0.0,1,372.0,667.0,1.0,251.0,1,0.37375395089545016,0.0
462,462,0.8105040699880142,0.8,0,492.0,892.0,0.0,226.0,1,0.04624838263164077,0.0
463,463,0.635656473288083,0.6,0,334.0,831.0,0.0,115.0,1,0.8332159318598734,0.0
464,464,-0.41787430303672,-0.4,1,422.0,728.0,0.0,-1150.0,0,0.8108538884283807,0.0
465,465,-0.7608408057101554,-0.8,1,413.0,968.0,0.0,-1371.0,0,0.7610676147997323,0.0
466,466,-0.46498818205367076,-0.5,1,437.0,502.0,1.0,301.0,1,0.5070727403936379,0.0
467,467,0.3898670892304339,0.4,0,262.0,633.0,0.0,175.0,1,0.7442818639713839,0.0
468,468,0.3804899843074927,0.4,0,351.0,571.0,0.0,-892.0,1,0.30161686887112416,0.0
469,469,-0.4537995650900142,-0.5,1,480.0,743.0,1.0,437.0,1,0.16997646831539215,0.0
470,470,0.1732659383492534,0.2,0,468.0,512.0,0.0,310.0,1,0.5035711103931809,0.0
471,471,-0.9508399658741293,-1.0,1,436.0,601.0,1.0,393.0,1,0.24230018328879,0.0
472,472,0.41602449562078214,0.4,0,328.0,997.0,0.0,-1325.0,1,0.5760893726608622,0.0
473,473,-0.032276754964763565,-0.0,1,354.0,639.0,0.0,397.0,0,0.2480118834653301,0.0
474,474,-0.5452929368076032,-0.5,1,402.0,760.0,0.0,-1052.0,0,0.34315607941408,0.0
475,475,0.1869947883877443,0.2,0,288.0,689.0,0.0,253.0,1,0.2868759058226017,0.0
476,476,0.013067224540635802,0.0,0,494.0,627.0,1.0,479.0,0,0.8726314480669232,0.0
477,477,-0.9415046342228273,-0.9,1,483.0,834.0,0.0,-1317.0,0,0.7578604970077186,0.0
478,478,-0.1568728852873018,-0.2,1,378.0,734.0,1.0,638.0,1,0.05889665643441411,0.0
479,479,0.04571438553962959,0.0,0,269.0,835.0,0.0,146.0,1,0.5423599073741272,0.0
480,480,0.2839450964081378,0.3,0,281.0,783.0,0.0,-1064.0,1,0.7943938276200405,0.0
481,481,-0.10704083164563327,-0.1,1,394.0,533.0,0.0,-927.0,0,0.4511776827877656,0.0
482,482,0.5158002563651216,0.5,0,387.0,771.0,0.0,-1138.0,1,0.7842461923339549,0.0
483,483,-0.41118739131047977,-0.4,1,350.0,908.0,1.0,272.0,1,0.36360950703812367,0.0
484,484,0.05438304325272436,0.1,0,467.0,796.0,0.0,-1263.0,1,0.5319538787960318,0.0
485,485,-0.46471452179087525,-0.5,1,288.0,633.0,1.0,249.0,1,0.3655115145775599,0.0
486,486,-0.21217811258178365,-0.2,1,265.0,500.0,0.0,245.0,0,0.9559543214736607,0.0
487,487,-0.9759643906837541,-1.0,1,419.0,894.0,1.0,157.0,1,0.6348547274890862,0.0
488,488,0.3822793157786528,0.4,0,362.0,722.0,0.0,136.0,1,0.4899038075053733,0.0
489,489,0.015700894891299777,0.0,0,285.0,708.0,0.0,-993.0,1,0.5805944052989455,0.0
490,490,-0.26491306795371083,-0.3,1,314.0,579.0,0.0,-893.0,0,0.7229998485824592,0.0
491,491,-0.04278553316988121,-0.0,1,415.0,773.0,0.0,-1188.0,0,0.9116938238662994,0.0
492,492,-0.6760808230933062,-0.7,1,399.0,765.0,1.0,246.0,1,0.5177802721172837,0.0
493,493,0.5860373562892405,0.6,0,391.0,713.0,0.0,486.0,1,0.100373210293217,0.0
494,494,0.8305590196151063,0.8,0,344.0,682.0,0.0,-1006.0,1,0.8743397473499318,0.0
495,495,0.5568623298820761,0.6,0,404.0,761.0,0.0,235.0,1,0.6481674367761363,0.0
496,496,0.7663563463725236,0.8,0,300.0,886.0,0.0,194.0,1,0.6175447188897067,0.0
497,497,-0.5759733291664371,-0.6,1,344.0,874.0,0.0,-1218.0,0,0.8230651972643946,0.0
498,498,-0.5267616299547937,-0.5,1,418.0,987.0,1.0,325.0,1,0.7710383754928836,0.0
499,499,-0.8269828969246429,-0.8,1,497.0,872.0,1.0,291.0,1,0.10204410073806602,0.0
500,500,-0.21206034533570528,-0.2,1,324.0,644.0,0.0,-968.0,0,0.8734963192800381,0.0
501,501,0.9587088711235141,1.0,0,499.0,536.0,0.0,-1035.0,1,0.8999808648870847,0.0
502,502,-0.8418327741944027,-0.8,1,389.0,546.0,1.0,255.0,1,0.4381187381664522,0.0
503,503,-0.15341543820994463,-0.2,1,448.0,525.0,0.0,-973.0,0,0.5598725931067232,0.0
504,504,-0.4349839195627807,-0.4,1,496.0,895.0,1.0,179.0,1,0.7322823517845859,0.0
505,505,-0.44531171873315145,-0.4,1,438.0,666.0,1.0,356.0,1,0.493556610132295,0.0
506,506,-0.7448604892984312,-0.7,1,418.0,712.0,1.0,170.0,1,0.7991257917979336,0.0
507,507,0.9276029377067823,0.9,0,259.0,888.0,0.0,253.0,1,0.4738731448921153,0.0
508,508,0.5562163447098467,0.6,0,419.0,950.0,0.0,351.0,1,0.07331086236260476,0.0
509,509,-0.9686075030091574,-1.0,1,317.0,881.0,1.0,182.0,1,0.8964491072840657,0.0
510,510,-0.5393724067134742,-0.5,1,336.0,788.0,0.0,-1114.0,0,0.823445314550757,0.0
511,511,-0.4731618717076804,-0.5,1,461.0,682.0,1.0,367.0,1,0.32138445255530834,0.0
512,512,-0.15709576520088775,-0.2,1,483.0,673.0,1.0,2004.0,1,0.014818317294891692,0.0
513,513,-0.05423677928123327,-0.1,1,379.0,989.0,1.0,582.0,1,0.32814029773833264,0.0
514,514,0.5977944600127119,0.6,0,355.0,841.0,0.0,304.0,1,0.37229109233184554,0.0
515,515,-0.44915398919141203,-0.4,1,365.0,941.0,1.0,644.0,1,0.40175761445292124,0.0
516,516,0.5084151897825289,0.5,0,376.0,838.0,0.0,-1214.0,1,0.7064566577967044,0.0
517,517,-0.2511604690804683,-0.3,1,274.0,552.0,1.0,384.0,1,0.03523931127177127,0.0
518,518,-0.805006872631941,-0.8,1,310.0,894.0,0.0,-1204.0,0,0.7819666605893382,0.0
519,519,-0.0398895839065363,-0.0,1,458.0,677.0,0.0,905.0,0,0.12535144537761722,0.0
520,520,0.8848700118461603,0.9,0,333.0,870.0,0.0,-1193.0,1,0.17876905841819135,0.0
521,521,-0.7948652721431062,-0.8,1,498.0,587.0,1.0,325.0,1,0.19660592769618535,0.0
522,522,0.5334080519142528,0.5,0,408.0,613.0,0.0,269.0,1,0.2760457696048406,0.0
523,523,-0.6560486599754713,-0.7,1,331.0,814.0,1.0,245.0,1,0.5932634024326432,0.0
524,524,-0.3967873883084505,-0.4,1,470.0,751.0,1.0,509.0,1,0.25205168202588757,0.0
525,525,0.6062251713347651,0.6,0,344.0,710.0,0.0,196.0,1,0.624760681327819,0.0
526,526,-0.0013404387423854303,-0.0,1,414.0,892.0,0.0,244.0,0,0.8653783720002621,0.0
527,527,-0.08638454649783478,-0.1,1,350.0,999.0,0.0,-1339.0,0,0.2742704559738386,0.0
528,528,-0.014633618867829545,-0.0,1,303.0,809.0,1.0,368.0,1,0.6689433886450779,0.0
529,529,-0.11968552844150682,-0.1,1,430.0,710.0,0.0,270.0,0,0.5498800633579117,0.0
530,530,-0.8184165782692852,-0.8,1,321.0,652.0,0.0,-973.0,0,0.9491813006773687,0.0
531,531,0.1821188730042973,0.2,0,409.0,567.0,0.0,-846.0,1,0.514468993061151,0.0
532,532,-0.6287503331551461,-0.6,1,399.0,646.0,1.0,305.0,1,0.22881438196773873,0.0
533,533,0.751767344053583,0.8,0,386.0,848.0,0.0,-1224.0,1,0.8604067751867279,0.0
534,534,0.2678731903904421,0.3,0,340.0,620.0,0.0,-960.0,1,0.895237074331436,0.0
535,535,-0.5961705318706592,-0.6,1,430.0,863.0,0.0,-1293.0,0,0.6383349042825324,0.0
536,536,0.3011040952008637,0.3,0,355.0,924.0,0.0,-1279.0,1,0.9734957203522514,0.0
537,537,0.5973838967450789,0.6,0,262.0,977.0,0.0,-1239.0,1,0.4819832217869532,0.0
538,538,0.2965185902641081,0.3,0,471.0,502.0,0.0,-973.0,1,0.5698724053384938,0.0
539,539,0.095777318848566,0.1,0,277.0,920.0,0.0,353.0,1,0.4923090868081951,0.0
540,540,0.5824522838425683,0.6,0,291.0,544.0,0.0,-825.0,1,0.16718388698655728,0.0
541,541,-0.8414566151281251,-0.8,1,251.0,812.0,0.0,-1063.0,0,0.9699023393889129,0.0
542,542,0.9625620118266245,1.0,0,281.0,906.0,0.0,-1187.0,1,0.8905290636305484,0.0
543,543,0.15793550752987695,0.2,0,470.0,725.0,0.0,-1195.0,1,0.8863793566969931,0.0
544,544,-0.5265239204242955,-0.5,1,463.0,846.0,0.0,-1309.0,0,0.9705594619685324,0.0
545,545,0.8386431570368591,0.8,0,425.0,747.0,0.0,458.0,1,0.040776140635771285,0.0
546,546,-0.2732812218476053,-0.3,1,479.0,752.0,0.0,-1231.0,0,0.24573741912520375,0.0
547,547,-0.8773913756710825,-0.9,1,385.0,984.0,0.0,-1369.0,0,0.9488286275188351,0.0
548,548,-0.5434280673855478,-0.5,1,338.0,566.0,1.0,286.0,1,0.037092670204077804,0.0
549,549,0.05853399598418085,0.1,0,349.0,576.0,0.0,135.0,1,0.7343810979383883,0.0
550,550,0.20750194291427904,0.2,0,287.0,891.0,0.0,-1178.0,1,0.01283571124408145,0.0
551,551,-0.7072021942963074,-0.7,1,350.0,808.0,1.0,292.0,1,0.25851667485759444,0.0
552,552,0.3609981511540499,0.4,0,415.0,735.0,0.0,-1150.0,1,0.7800945175424895,0.0
553,553,-0.2501364769187788,-0.3,1,353.0,649.0,1.0,618.0,1,0.5477216898507153,0.0
554,554,0.45449612204074796,0.5,0,490.0,775.0,0.0,265.0,1,0.1112103416008301,0.0
555,555,-0.06380092556357564,-0.1,1,494.0,682.0,0.0,234.0,0,0.1326936152375151,0.0
556,556,-0.37476550852312784,-0.4,1,264.0,832.0,1.0,544.0,1,0.4984571497283291,0.0
557,557,0.9949091424469716,1.0,0,437.0,932.0,0.0,201.0,1,0.40962429169176195,0.0
558,558,0.07881645258224124,0.1,0,254.0,778.0,0.0,298.0,1,0.16449445394760998,0.0
559,559,-0.6932355764760465,-0.7,1,434.0,533.0,1.0,323.0,1,0.48684083606143347,0.0
560,560,-0.9401498273786029,-0.9,1,441.0,883.0,1.0,186.0,1,0.07254891457217882,0.0
561,561,-0.7376439319652528,-0.7,1,273.0,529.0,0.0,-792.0,0,0.731878953905758,0.0
562,562,0.21511785679029405,0.2,0,298.0,809.0,0.0,-1107.0,1,0.9394281426379226,0.0
563,563,-0.1920516674641175,-0.2,1,357.0,601.0,1.0,252.0,1,0.5076064689799726,0.0
564,564,-0.09889312513566884,-0.1,1,335.0,583.0,0.0,352.0,0,0.6486945718780553,0.0
565,565,-0.7750459719013842,-0.8,1,414.0,534.0,1.0,442.0,1,0.32308489444240185,0.0
566,566,-0.9593274753875696,-1.0,1,330.0,963.0,1.0,287.0,1,0.14011530107141557,0.0
567,567,0.2021584112939625,0.2,0,254.0,857.0,0.0,-1111.0,1,0.6536671891019,0.0
568,568,-0.9126090684963224,-0.9,1,404.0,518.0,1.0,208.0,1,0.3341593642496602,0.0
569,569,-0.1818269994281252,-0.2,1,258.0,937.0,1.0,465.0,1,0.45020327119985826,0.0
570,570,-0.9235646958902557,-0.9,1,276.0,538.0,1.0,246.0,1,0.516902726559649,0.0
571,571,-0.42996944986331664,-0.4,1,419.0,825.0,1.0,516.0,1,0.055098752081978786,0.0
572,572,0.34912522444938965,0.3,0,394.0,856.0,0.0,280.0,1,0.22036929190186771,0.0
573,573,-0.5463596370419588,-0.5,1,424.0,926.0,1.0,400.0,1,0.11570679724454336,0.0
574,574,0.33708975831253185,0.3,0,426.0,557.0,0.0,317.0,1,0.9593801126365443,0.0
575,575,0.6551790590841424,0.7,0,266.0,943.0,0.0,211.0,1,0.3807847394805761,0.0
576,576,-0.20708968261094096,-0.2,1,411.0,968.0,0.0,351.0,0,0.1352248389190761,0.0
577,577,0.07017259831180223,0.1,0,411.0,681.0,0.0,-1092.0,1,0.7107488048122901,0.0
578,578,0.46413091118703487,0.5,0,417.0,992.0,0.0,231.0,1,0.5023037637989668,0.0
579,579,-0.18424526125955065,-0.2,1,294.0,853.0,1.0,873.0,1,0.5384248781323989,0.0
580,580,0.17406029392089928,0.2,0,290.0,934.0,0.0,356.0,1,0.6574297122971344,0.0
581,581,0.9795453655331157,1.0,0,415.0,568.0,0.0,197.0,1,0.5419119514592139,0.0
582,582,-0.06197442040728651,-0.1,1,430.0,760.0,1.0,570.0,1,0.2625538156160614,0.0
583,583,-0.48492722786123554,-0.5,1,278.0,961.0,1.0,531.0,1,0.25146777523344555,0.0
584,584,0.11163673023874154,0.1,0,343.0,912.0,0.0,305.0,1,0.07633565371498985,0.0
585,585,0.2605985907744859,0.3,0,442.0,849.0,0.0,469.0,1,0.13533609024224735,0.0
586,586,-0.23390944093271515,-0.2,1,494.0,562.0,0.0,-1026.0,0,0.36077279608796964,0.0
587,587,0.2878192864893143,0.3,0,296.0,632.0,0.0,-918.0,1,0.6850918421136405,0.0
588,588,-0.6825140958258067,-0.7,1,337.0,937.0,1.0,356.0,1,0.3082018103019528,0.0
589,589,-0.7420723933489417,-0.7,1,274.0,573.0,0.0,-827.0,0,0.6017884812872902,0.0
590,590,-0.9788102302836252,-1.0,1,368.0,767.0,1.0,195.0,1,0.05277515945304945,0.0
591,591,0.7227910383608822,0.7,0,258.0,942.0,0.0,150.0,1,0.29911844342458593,0.0
592,592,-0.5408011787988076,-0.5,1,437.0,849.0,1.0,294.0,1,0.10376996371264224,0.0
593,593,0.0156899104411512,0.0,0,440.0,585.0,0.0,165.0,1,0.7858763448966971,0.0
594,594,-0.39069023110209966,-0.4,1,251.0,601.0,0.0,-852.0,0,0.8883443290526205,0.0
595,595,-0.7866851070047003,-0.8,1,410.0,717.0,1.0,303.0,1,0.0034337274105370463,0.0
596,596,0.0985089443484779,0.1,0,289.0,958.0,0.0,303.0,1,0.6642764305356037,0.0
597,597,-0.7579560608261942,-0.8,1,293.0,664.0,0.0,-957.0,0,0.907569281728006,0.0
598,598,0.17064923086804784,0.2,0,492.0,850.0,0.0,248.0,1,0.8222423517280555,0.0
599,599,0.9427228854718779,0.9,0,314.0,527.0,0.0,119.0,1,0.26530582527813473,0.0
600,600,-0.24450123976992666,-0.2,1,317.0,931.0,0.0,-1248.0,0,0.14112913753930623,0.0
601,601,-0.14026566941505192,-0.1,1,467.0,861.0,1.0,472.0,1,0.5252327843737784,0.0
602,602,0.01298600069082867,0.0,0,406.0,851.0,0.0,303.0,1,0.17673569295145153,0.0
603,603,0.7500947053965312,0.8,0,314.0,920.0,0.0,-1234.0,1,0.2746244167611702,0.0
604,604,-0.9758609365729234,-1.0,1,427.0,792.0,0.0,-1189.0,0,0.7169927006256512,0.0
605,605,0.4667292943203192,0.5,0,252.0,548.0,0.0,290.0,1,0.3551570729627045,0.0
606,606,-0.47239241445296676,-0.5,1,446.0,510.0,1.0,314.0,1,0.16476677985555988,0.0
607,607,0.711148079421543,0.7,0,257.0,829.0,0.0,274.0,1,0.5488484734222845,0.0
608,608,0.2064980113125583,0.2,0,415.0,595.0,0.0,270.0,1,0.3725968599063675,0.0
609,609,-0.08992992430451752,-0.1,1,296.0,654.0,0.0,-950.0,0,0.9582326673111053,0.0
610,610,-0.041329378313461396,-0.0,1,440.0,892.0,0.0,348.0,0,0.5138910364654861,0.0
611,611,0.5452049926593243,0.5,0,477.0,656.0,0.0,-1133.0,1,0.9437158225874064,0.0
612,612,0.2041314242288006,0.2,0,320.0,513.0,0.0,-823.0,1,0.4149751581588611,0.0
613,613,0.8460743189511135,0.8,0,431.0,971.0,0.0,-1402.0,1,0.9133001966391919,0.0
614,614,0.5438185253436623,0.5,0,304.0,841.0,0.0,245.0,1,0.4101451860808152,0.0
615,615,-0.4032736639681085,-0.4,1,404.0,501.0,0.0,-905.0,0,0.9109895500570868,0.0
616,616,-0.7400515291142951,-0.7,1,406.0,775.0,0.0,-1181.0,0,0.6737542850608793,0.0
617,617,-0.5374008112611413,-0.5,1,397.0,721.0,1.0,192.0,1,0.407217832527891,0.0
618,618,0.7628568398618778,0.8,0,250.0,522.0,0.0,258.0,1,0.4478567730410207,0.0
619,619,0.6113895410936352,0.6,0,344.0,623.0,0.0,-967.0,1,0.7876599572105215,0.0
620,620,-0.39611447013855905,-0.4,1,380.0,770.0,0.0,-1150.0,0,0.9993515607265681,0.0
621,621,0.9319674751576659,0.9,0,266.0,861.0,0.0,93.0,1,0.9088507191245498,0.0
622,622,-0.46889085358022675,-0.5,1,281.0,560.0,1.0,319.0,1,0.27014767207120216,0.0
623,623,0.15052767043440296,0.2,0,270.0,970.0,0.0,290.0,1,0.5964384424168941,0.0
624,624,-0.030830039281922517,-0.0,1,300.0,782.0,1.0,558.0,1,0.41298058238788793,0.0
625,625,-0.9514212277777763,-1.0,1,447.0,746.0,1.0,307.0,1,0.09558077292724487,0.0
626,626,0.951306998580018,1.0,0,303.0,509.0,0.0,128.0,1,0.3048773678192793,0.0
627,627,0.04614206836978929,0.0,0,323.0,709.0,0.0,-1032.0,1,0.5515107865593358,0.0
628,628,-0.7223778584329792,-0.7,1,434.0,814.0,1.0,392.0,1,0.18648911107279798,0.0
629,629,-0.1587661114577219,-0.2,1,270.0,513.0,0.0,-783.0,0,0.9897862955862665,0.0
630,630,-0.8650270230853454,-0.9,1,463.0,750.0,1.0,307.0,1,0.05507539328160871,0.0
631,631,0.7354120939285134,0.7,0,367.0,750.0,0.0,-1117.0,1,0.9345168619712482,0.0
632,632,0.7973274529999608,0.8,0,361.0,880.0,0.0,-1241.0,1,0.8295224230599717,0.0
633,633,0.060698221357370796,0.1,0,374.0,979.0,0.0,-1353.0,1,0.8002494422080462,0.0
634,634,-0.44468327077668435,-0.4,1,382.0,884.0,1.0,404.0,1,0.32742269565588566,0.0
635,635,-0.13697160410918263,-0.1,1,321.0,644.0,0.0,325.0,0,0.8309865291441992,0.0
636,636,0.28998360869857787,0.3,0,392.0,696.0,0.0,-1088.0,1,0.4900717281047263,0.0
637,637,-0.6532273024848043,-0.7,1,366.0,917.0,1.0,287.0,1,0.3074404680382572,0.0
638,638,0.829112545269755,0.8,0,318.0,816.0,0.0,-1134.0,1,0.8662029394288009,0.0
639,639,-0.24126766521224186,-0.2,1,381.0,504.0,0.0,-835.0,0,0.7784582290672771,0.0
640,640,0.30506522149460147,0.3,0,328.0,879.0,0.0,-1207.0,1,0.9814517125954746,0.0
641,641,0.48076114636658485,0.5,0,337.0,833.0,0.0,370.0,1,0.041783538042873714,0.0
642,642,-0.5788948129085827,-0.6,1,403.0,771.0,0.0,-1174.0,0,0.6730179726527914,0.0
643,643,-0.7355169622407047,-0.7,1,394.0,643.0,1.0,253.0,1,0.36694066522132085,0.0
644,644,-0.8858489805773164,-0.9,1,334.0,612.0,1.0,274.0,1,0.2574072766487193,0.0
645,645,-0.7379273487078837,-0.7,1,435.0,601.0,0.0,-1026.0,0,0.37903298159786747,0.0
646,646,0.522214871157991,0.5,0,458.0,754.0,0.0,-1212.0,1,0.5976512190447469,0.0
647,647,0.8900356659355175,0.9,0,352.0,594.0,0.0,-946.0,1,0.9576788800757605,0.0
648,648,-0.8998923421540088,-0.9,1,354.0,694.0,1.0,252.0,1,0.21871063783258704,0.0
649,649,0.2747724102593938,0.3,0,387.0,633.0,0.0,200.0,1,0.25423008577702044,0.0
650,650,0.5536425138421304,0.6,0,497.0,550.0,0.0,143.0,1,0.10164927693626091,0.0
651,651,-0.5277907086432867,-0.5,1,286.0,660.0,0.0,-946.0,0,0.7704085874403072,0.0
652,652,0.8181156343236566,0.8,0,278.0,713.0,0.0,-991.0,1,0.694235529580074,0.0
653,653,-0.8661278957286884,-0.9,1,277.0,880.0,0.0,-1107.0,0,0.9715565278966998,0.0
654,654,-0.8494913691361416,-0.8,1,464.0,991.0,1.0,535.0,1,0.0399222322838112,0.0
655,655,-0.2958323111074397,-0.3,1,311.0,977.0,1.0,522.0,1,0.3257486862271278,0.0
656,656,-0.7548690627804211,-0.8,1,343.0,905.0,1.0,322.0,1,0.36683234349388405,0.0
657,657,0.33005503075129705,0.3,0,475.0,884.0,0.0,221.0,1,0.7094850661506314,0.0
658,658,-0.7821958542318341,-0.8,1,488.0,839.0,1.0,423.0,1,0.061064698179112864,0.0
659,659,0.7560993835390748,0.8,0,278.0,939.0,0.0,-1217.0,1,0.5534608936463833,0.0
660,660,0.35747808466244546,0.4,0,291.0,619.0,0.0,200.0,1,0.5264602170672137,0.0
661,661,-0.5006186657607796,-0.5,1,461.0,787.0,1.0,242.0,1,0.609524136029007,0.0
662,662,0.5225510627748513,0.5,0,457.0,974.0,0.0,209.0,1,0.2066795006874601,0.0
663,663,0.1259347531341728,0.1,0,299.0,793.0,0.0,338.0,1,0.052223540857183726,0.0
664,664,0.48965204060293677,0.5,0,389.0,918.0,0.0,213.0,1,0.42968955053418234,0.0
665,665,0.3831347103716225,0.4,0,433.0,731.0,0.0,356.0,1,0.011104322112269971,0.0
666,666,-0.9787764260339005,-1.0,1,491.0,642.0,1.0,297.0,1,0.32704176785100325,0.0
667,667,0.23036269146362232,0.2,0,320.0,518.0,0.0,402.0,1,0.25917339235294046,0.0
668,668,0.6996853104307728,0.7,0,368.0,833.0,0.0,299.0,1,0.0906267207625151,0.0
669,669,0.8067907499317362,0.8,0,419.0,614.0,0.0,227.0,1,0.28943071147262434,0.0
670,670,-0.8681088053981518,-0.9,1,254.0,601.0,0.0,-845.0,0,0.27966623298859616,0.0
671,671,0.1970489438856493,0.2,0,446.0,730.0,0.0,364.0,1,0.3050076853386916,0.0
672,672,0.8203330806297249,0.8,0,448.0,572.0,0.0,-1000.0,1,0.8285310318762654,0.0
673,673,0.5845439368359988,0.6,0,463.0,766.0,0.0,211.0,1,0.17173563251998536,0.0
674,674,0.7606072069667771,0.8,0,485.0,562.0,0.0,163.0,1,0.512086965679926,0.0
675,675,0.04255567225411072,0.0,0,485.0,958.0,0.0,397.0,1,0.3067229472437819,0.0
676,676,-0.6685490916788104,-0.7,1,496.0,829.0,0.0,-1325.0,0,0.9920662875924627,0.0
677,677,-0.29858934289732475,-0.3,1,489.0,626.0,0.0,-1115.0,0,0.9159866345172856,0.0
678,678,-0.7650238173948123,-0.8,1,406.0,924.0,0.0,-1330.0,0,0.7123626211660596,0.0
679,679,-0.7108510239809995,-0.7,1,457.0,691.0,1.0,352.0,1,0.5790522679185829,0.0
680,680,-0.9271062376189583,-0.9,1,307.0,575.0,0.0,-882.0,0,0.7037747182062972,0.0
681,681,-0.7579413115376097,-0.8,1,259.0,673.0,1.0,188.0,1,0.7422722685764774,0.0
682,682,-0.15556915690252726,-0.2,1,396.0,533.0,1.0,341.0,1,0.6240393178126333,0.0
683,683,0.08435786267897716,0.1,0,270.0,502.0,1.0,348.0,0,0.8094857220792798,0.0
684,684,0.858908301336313,0.9,0,467.0,575.0,0.0,398.0,1,0.018892410564736672,0.0
685,685,-0.04274650020957016,-0.0,1,492.0,774.0,0.0,204.0,0,0.40000509245398874,0.0
686,686,-0.33158288632046884,-0.3,1,404.0,572.0,1.0,624.0,1,0.07018395945121769,0.0
687,687,0.6249228617597065,0.6,0,487.0,843.0,0.0,-1330.0,1,0.7502246214159918,0.0
688,688,-0.8473181109805508,-0.8,1,450.0,685.0,0.0,-1135.0,0,0.8164389050281581,0.0
689,689,-0.03508522934744063,-0.0,1,327.0,910.0,0.0,-1237.0,0,0.7990295733209726,0.0
690,690,0.32612787353360173,0.3,0,289.0,973.0,0.0,-1262.0,1,0.8653983325391938,0.0
691,691,-0.5111767030631356,-0.5,1,292.0,870.0,1.0,268.0,1,0.4185180548462094,0.0
692,692,-0.43729573160265844,-0.4,1,368.0,679.0,1.0,293.0,1,0.06167365942280889,0.0
693,693,-0.8240316051322376,-0.8,1,352.0,529.0,1.0,269.0,1,0.07844085464113504,0.0
694,694,0.9755207322198729,1.0,0,438.0,937.0,0.0,175.0,1,0.5978439903500258,0.0
695,695,0.2744390870238289,0.3,0,292.0,895.0,0.0,363.0,1,0.0818929208741247,0.0
696,696,0.911531516773914,0.9,0,292.0,957.0,0.0,-1249.0,1,0.28177323038959823,0.0
697,697,-0.7832279081943618,-0.8,1,456.0,736.0,1.0,228.0,1,0.34359211432399683,0.0
698,698,-0.8515293206543366,-0.9,1,370.0,523.0,0.0,-893.0,0,0.6618827494155317,0.0
699,699,0.012876648504962951,0.0,0,339.0,505.0,0.0,-844.0,1,0.6796325891918136,0.0
700,700,-0.7436976325194231,-0.7,1,404.0,918.0,1.0,188.0,1,0.0323139151811388,0.0
701,701,-0.34386372982275093,-0.3,1,497.0,926.0,1.0,187.0,1,0.8773830371555134,0.0
702,702,-0.29363674678833607,-0.3,1,365.0,524.0,0.0,-869.0,0,0.40507148631683165,0.0
703,703,0.7821954197980547,0.8,0,376.0,835.0,0.0,229.0,1,0.05801677823240148,0.0
704,704,0.4439187862499072,0.4,0,328.0,970.0,0.0,442.0,1,0.11030214959804396,0.0
705,705,-0.8281435641007711,-0.8,1,322.0,895.0,1.0,373.0,1,0.1969987692738575,0.0
706,706,0.8816969880931991,0.9,0,469.0,767.0,0.0,284.0,1,0.024429654394715006,0.0
707,707,-0.4179468384635525,-0.4,1,255.0,699.0,0.0,-954.0,0,0.3843582226302099,0.0
708,708,-0.35248452874217184,-0.4,1,437.0,849.0,0.0,-1286.0,0,0.9980511895870144,0.0
709,709,-0.8203493299766174,-0.8,1,281.0,924.0,1.0,305.0,1,0.17493723793789806,0.0
710,710,-0.31278372664156406,-0.3,1,467.0,693.0,0.0,520.0,0,0.39825523723101275,0.0
711,711,-0.43338995453312235,-0.4,1,491.0,651.0,0.0,-1142.0,0,0.7278930258498887,0.0
712,712,-0.48968775464134584,-0.5,1,475.0,931.0,0.0,-1396.0,0,0.7555865826685493,0.0
713,713,0.05121677504947231,0.1,0,376.0,681.0,0.0,213.0,1,0.5687345093415209,0.0
714,714,0.567095068416192,0.6,0,293.0,631.0,0.0,216.0,1,0.38274921663325623,0.0
715,715,-0.8547633421134082,-0.9,1,264.0,947.0,0.0,-1211.0,0,0.499387496435309,0.0
716,716,-0.839745046580709,-0.8,1,341.0,650.0,1.0,229.0,1,0.3843082823489584,0.0
717,717,0.9937026652243737,1.0,0,374.0,837.0,0.0,259.0,1,0.3466224523848356,0.0
718,718,-0.40273991770530637,-0.4,1,304.0,909.0,1.0,327.0,1,0.5568658451515305,0.0
719,719,-0.8232210967277145,-0.8,1,319.0,548.0,1.0,133.0,1,0.734328091262818,0.0
720,720,0.23591444832248598,0.2,0,389.0,527.0,0.0,324.0,1,0.1721144063211597,0.0
721,721,-0.9001604278529225,-0.9,1,411.0,627.0,0.0,-1038.0,0,0.9337171019360883,0.0
722,722,0.06727073990965948,0.1,0,327.0,839.0,0.0,434.0,1,0.28069682580569943,0.0
723,723,0.7081305715907722,0.7,0,379.0,578.0,0.0,-957.0,1,0.5857799542954549,0.0
724,724,0.370426155996062,0.4,0,451.0,823.0,0.0,366.0,1,0.23677965972963577,0.0
725,725,0.7593926397087181,0.8,0,252.0,696.0,0.0,-948.0,1,0.39583367027257266,0.0
726,726,0.5618880094055794,0.6,0,339.0,896.0,0.0,465.0,1,0.34230537186849785,0.0
727,727,0.5605377143205663,0.6,0,412.0,866.0,0.0,-1278.0,1,0.6256057634023305,0.0
728,728,-0.3830787749223865,-0.4,1,284.0,546.0,1.0,370.0,1,0.300532168999433,0.0
729,729,-0.05583776287452946,-0.1,1,325.0,962.0,0.0,-1287.0,0,0.8798732387683823,0.0
730,730,-0.785320299489535,-0.8,1,354.0,640.0,0.0,-994.0,0,0.9030908576390226,0.0
731,731,0.7415633164662754,0.7,0,321.0,819.0,0.0,-1140.0,1,0.665059921232863,0.0
732,732,-0.7842011538166245,-0.8,1,424.0,755.0,1.0,241.0,1,0.7142402331542748,0.0
733,733,0.7231429001721834,0.7,0,493.0,884.0,0.0,-1377.0,1,0.9402781367327397,0.0
734,734,0.7794379798190216,0.8,0,366.0,538.0,0.0,346.0,1,0.1127270613126099,0.0
735,735,-0.6732685899913469,-0.7,1,393.0,669.0,1.0,228.0,1,0.6475718910045524,0.0
736,736,0.3281965543469023,0.3,0,408.0,747.0,0.0,-1155.0,1,0.9588046359694974,0.0
737,737,-0.941557781785292,-0.9,1,282.0,772.0,1.0,176.0,1,0.8087187022350459,0.0
738,738,-0.4480575762536838,-0.4,1,417.0,974.0,1.0,299.0,1,0.5349108613001018,0.0
739,739,-0.32231758801418775,-0.3,1,455.0,850.0,1.0,155.0,1,0.955099447647267,0.0
740,740,-0.8157896417908503,-0.8,1,455.0,715.0,1.0,250.0,1,0.10067915078945366,0.0
741,741,-0.32852741356032156,-0.3,1,276.0,756.0,0.0,478.0,0,0.4713613632179272,0.0
742,742,-0.46191320100921773,-0.5,1,289.0,801.0,0.0,-1050.0,0,0.751371195458913,0.0
743,743,0.3352488804960243,0.3,0,397.0,925.0,0.0,388.0,1,0.15448288250271403,0.0
744,744,-0.9607245928094801,-1.0,1,418.0,603.0,0.0,-1021.0,0,0.8366214687736824,0.0
745,745,0.04833147371453861,0.0,0,444.0,650.0,0.0,476.0,1,0.5966614782317651,0.0
746,746,-0.4367238211856126,-0.4,1,439.0,615.0,1.0,366.0,1,0.07066456769605811,0.0
747,747,-0.13078249495830985,-0.1,1,311.0,696.0,0.0,263.0,0,0.4807991159821605,0.0
748,748,0.8331489512866963,0.8,0,488.0,802.0,0.0,-1290.0,1,0.6221849653407516,0.0
749,749,0.535882411224553,0.5,0,339.0,621.0,0.0,270.0,1,0.38826263454093135,0.0
750,750,0.43055688717655216,0.4,0,275.0,985.0,0.0,210.0,1,0.15879577007333512,0.0
751,751,-0.34370555151304494,-0.3,1,487.0,683.0,0.0,-1150.0,0,0.442927605958797,0.0
752,752,0.323272039560238,0.3,0,371.0,723.0,0.0,236.0,1,0.6180550466692776,0.0
753,753,-0.21591903932838097,-0.2,1,325.0,972.0,0.0,-1297.0,0,0.7168155670681314,0.0
754,754,0.37377962565663836,0.4,0,326.0,808.0,0.0,236.0,1,0.048770230863548925,0.0
755,755,-0.9535374876633207,-1.0,1,345.0,873.0,0.0,-1218.0,0,0.2718899088373805,0.0
756,756,0.3513596752250181,0.4,0,499.0,535.0,0.0,196.0,1,0.4983850004193364,0.0
757,757,-0.7480934276262718,-0.7,1,435.0,952.0,0.0,-1377.0,0,0.6442083528837211,0.0
758,758,-0.6172825621824052,-0.6,1,337.0,634.0,1.0,399.0,1,0.5088973061053091,0.0
759,759,-0.9727560456493429,-1.0,1,362.0,687.0,0.0,-1049.0,0,0.7488027392011514,0.0
760,760,0.5579828817119443,0.6,0,462.0,762.0,0.0,-1224.0,1,0.6710751378174384,0.0
761,761,0.21109505611950508,0.2,0,401.0,658.0,0.0,-1039.0,1,0.5583247975671678,0.0
762,762,0.5576911489982597,0.6,0,373.0,722.0,0.0,185.0,1,0.1524035888009979,0.0
763,763,0.40395943572316084,0.4,0,489.0,989.0,0.0,202.0,1,0.577239679234277,0.0
764,764,-0.9878280980028795,-1.0,1,268.0,645.0,1.0,317.0,1,0.24905308091895595,0.0
765,765,0.6867932552979938,0.7,0,470.0,542.0,0.0,-1012.0,1,0.7676597141619945,0.0
766,766,0.27044217666203596,0.3,0,304.0,754.0,0.0,292.0,1,0.29090621759597557,0.0
767,767,0.7212829911231229,0.7,0,372.0,733.0,0.0,-1105.0,1,0.9217135346997237,0.0
768,768,-0.10522932723041478,-0.1,1,481.0,640.0,0.0,-1121.0,0,0.9768124300833414,0.0
769,769,-0.7561687788230413,-0.8,1,281.0,581.0,0.0,-842.0,0,0.635945407482338,0.0
770,770,-0.5197215927321344,-0.5,1,445.0,922.0,0.0,-1367.0,0,0.5852812365318286,0.0
771,771,-0.1861211478129865,-0.2,1,496.0,915.0,0.0,279.0,0,0.5146382117131688,0.0
772,772,-0.09501016677412677,-0.1,1,296.0,636.0,0.0,-932.0,0,0.588492420926555,0.0
773,773,-0.4493381560017129,-0.4,1,295.0,711.0,0.0,-1006.0,0,0.5588339161461442,0.0
774,774,0.4345787794960905,0.4,0,406.0,535.0,0.0,229.0,1,0.8768028854098059,0.0
775,775,-0.13177747851464439,-0.1,1,419.0,541.0,0.0,220.0,0,0.6292090771738205,0.0
776,776,0.3645396597725157,0.4,0,481.0,967.0,0.0,292.0,1,0.3885876358681568,0.0
777,777,0.2727722098600942,0.3,0,347.0,535.0,0.0,318.0,1,0.1218389899709903,0.0
778,778,0.9229232346167306,0.9,0,437.0,710.0,0.0,293.0,1,0.35135134450397143,0.0
779,779,-0.11839257869398345,-0.1,1,351.0,611.0,0.0,-962.0,0,0.5903751001852913,0.0
780,780,0.9494781974097477,0.9,0,459.0,698.0,0.0,173.0,1,0.19707479755210222,0.0
781,781,-0.9294223319036188,-0.9,1,289.0,514.0,1.0,277.0,1,0.4181752540102205,0.0
782,782,0.9715247134631215,1.0,0,336.0,526.0,0.0,-862.0,1,0.971366056617056,0.0
783,783,0.44737159599246556,0.4,0,275.0,917.0,0.0,208.0,1,0.7281393114093802,0.0
784,784,0.8647845273532961,0.9,0,349.0,532.0,0.0,219.0,1,0.8953111196293968,0.0
785,785,0.2644575750086937,0.3,0,484.0,695.0,0.0,211.0,1,0.01859021969103669,0.0
786,786,-0.10095585558151665,-0.1,1,393.0,909.0,0.0,298.0,0,0.4415254311983273,0.0
787,787,-0.8959253976241484,-0.9,1,347.0,738.0,1.0,325.0,1,0.26691108853244405,0.0
788,788,-0.880194140899373,-0.9,1,306.0,923.0,0.0,-1119.0,0,0.37274227068142374,0.0
789,789,0.988031916868598,1.0,0,260.0,853.0,0.0,-1113.0,1,0.6616149042116647,0.0
790,790,0.7092985816820219,0.7,0,307.0,968.0,0.0,-1275.0,1,0.8547234578641131,0.0
791,791,-0.0881408255713989,-0.1,1,414.0,568.0,1.0,778.0,1,0.14322194151871326,0.0
792,792,-0.5439684932151767,-0.5,1,433.0,688.0,0.0,-1121.0,0,0.8791751888414291,0.0
793,793,-0.4113971551034683,-0.4,1,373.0,625.0,1.0,612.0,1,0.4228995221543037,0.0
794,794,-0.3326222077006853,-0.3,1,406.0,925.0,0.0,-1331.0,0,0.7306002307755337,0.0
795,795,-0.8792402322953539,-0.9,1,356.0,958.0,0.0,-1314.0,0,0.8049439997257378,0.0
796,796,-0.4348390407257823,-0.4,1,308.0,584.0,1.0,338.0,1,0.06804325820378143,0.0
797,797,-0.5682759686349208,-0.6,1,351.0,918.0,0.0,-1269.0,0,0.801929878885237,0.0
798,798,0.12511699237160623,0.1,0,319.0,955.0,0.0,-1254.0,1,0.7545373831599865,0.0
799,799,0.8584461081753034,0.9,0,377.0,676.0,0.0,197.0,1,0.00028819742667840487,0.0
800,800,0.7902966682061987,0.8,0,499.0,694.0,0.0,-1193.0,1,0.8315310610678964,0.0
801,801,-0.04817695457747151,-0.0,1,281.0,808.0,0.0,-1089.0,0,0.9681073655928553,0.0
802,802,0.7122815633666777,0.7,0,267.0,792.0,0.0,-1059.0,1,0.2329091453853508,0.0
803,803,0.6515263983221564,0.7,0,419.0,533.0,0.0,218.0,1,0.4206673918964059,0.0
804,804,0.7990044650733601,0.8,0,428.0,716.0,0.0,286.0,1,0.7199257158216402,0.0
805,805,0.5627668903228347,0.6,0,387.0,863.0,0.0,260.0,1,0.3752257634872457,0.0
806,806,-0.8494044527877964,-0.8,1,321.0,795.0,0.0,-1096.0,0,0.4474673158902863,0.0
807,807,-0.27780894295963066,-0.3,1,464.0,929.0,0.0,267.0,0,0.5669500953007005,0.0
808,808,-0.27525231175795173,-0.3,1,481.0,919.0,0.0,210.0,0,0.6107695140164798,0.0
809,809,0.9838214830083765,1.0,0,289.0,865.0,0.0,146.0,1,0.5601172155987544,0.0
810,810,0.9157447763699329,0.9,0,380.0,758.0,0.0,-1138.0,1,0.47544892328301336,0.0
811,811,0.19546670834807833,0.2,0,317.0,812.0,0.0,-1129.0,1,0.46732932834263163,0.0
812,812,-0.15868514414372714,-0.2,1,292.0,516.0,0.0,-778.0,0,0.7384644836728361,0.0
813,813,0.11326985648333232,0.1,0,300.0,814.0,0.0,-1114.0,1,0.5954766389660685,0.0
814,814,0.2490434050001804,0.2,0,267.0,758.0,0.0,515.0,1,0.027289266017612945,0.0
815,815,-0.7441368665220567,-0.7,1,259.0,893.0,1.0,178.0,1,0.681918730778695,0.0
816,816,0.20060052312613585,0.2,0,489.0,653.0,0.0,-1142.0,1,0.8088470950030386,0.0
817,817,-0.4416495822474369,-0.4,1,481.0,687.0,1.0,132.0,1,0.5680499046595331,0.0
818,818,0.20869960659621078,0.2,0,321.0,591.0,0.0,-912.0,1,0.6260963609363479,0.0
819,819,-0.023897404010828183,-0.0,1,279.0,742.0,0.0,449.0,0,0.04796821294821074,0.0
820,820,-0.9290895425305048,-0.9,1,471.0,640.0,0.0,-1111.0,0,0.6068903305402675,0.0
821,821,-0.626934772987199,-0.6,1,366.0,636.0,1.0,298.0,1,0.5621310799056242,0.0
822,822,0.6470671483608426,0.6,0,363.0,891.0,0.0,266.0,1,0.5149438830836386,0.0
823,823,0.6222958953826305,0.6,0,453.0,741.0,0.0,256.0,1,0.32282660588909884,0.0
824,824,0.4716750681717168,0.5,0,499.0,944.0,0.0,277.0,1,0.1722629368561558,0.0
825,825,0.9056647600848218,0.9,0,353.0,564.0,0.0,-917.0,1,0.9507500301156699,0.0
826,826,0.39319835751244425,0.4,0,417.0,666.0,0.0,347.0,1,0.6576397815091211,0.0
827,827,-0.023712329488669415,-0.0,1,377.0,728.0,0.0,225.0,0,0.8854891780510072,0.0
828,828,0.8082801879383115,0.8,0,320.0,548.0,0.0,352.0,1,0.1003317167807336,0.0
829,829,-0.17934745903525817,-0.2,1,383.0,961.0,0.0,-1344.0,0,0.4265222558668036,0.0
830,830,0.9455834877651343,0.9,0,342.0,606.0,0.0,212.0,1,0.16160317457690554,0.0
831,831,0.706588282511329,0.7,0,413.0,970.0,0.0,-1383.0,1,0.5078724815676512,0.0
832,832,0.7296014160216475,0.7,0,366.0,822.0,0.0,202.0,1,0.5318588798425844,0.0
833,833,-0.7474172479509777,-0.7,1,372.0,642.0,1.0,246.0,1,0.19549485465744154,0.0
834,834,-0.6411524373860202,-0.6,1,348.0,630.0,0.0,-958.0,0,0.7419521814986632,0.0
835,835,0.8718205834568609,0.9,0,360.0,896.0,0.0,-1256.0,1,0.9753191482652068,0.0
836,836,-0.4057162382641988,-0.4,1,296.0,954.0,1.0,490.0,1,0.35644618804609973,0.0
837,837,0.7184170109658694,0.7,0,253.0,512.0,0.0,235.0,1,0.022985526452151905,0.0
838,838,0.37857965825918183,0.4,0,348.0,927.0,0.0,-1255.0,1,0.8897465458809138,0.0
839,839,0.8343426594648826,0.8,0,362.0,927.0,0.0,131.0,1,0.5782620092477576,0.0
840,840,0.842058985956808,0.8,0,497.0,652.0,0.0,231.0,1,0.4348469931063377,0.0
841,841,0.6320698164574154,0.6,0,271.0,661.0,0.0,248.0,1,0.4439933484360781,0.0
842,842,-0.3566918219365969,-0.4,1,350.0,670.0,0.0,-1020.0,0,0.9544382461441722,0.0
843,843,0.1793429082831266,0.2,0,379.0,587.0,0.0,144.0,1,0.8049837030199092,0.0
844,844,-0.9100098314888823,-0.9,1,293.0,764.0,0.0,-1057.0,0,0.14285874672404086,0.0
845,845,0.8031946753636601,0.8,0,351.0,678.0,0.0,371.0,1,0.10227667246584327,0.0
846,846,-0.5672362178461918,-0.6,1,488.0,954.0,1.0,388.0,1,0.08628936469377246,0.0
847,847,0.30255657362878274,0.3,0,433.0,795.0,0.0,322.0,1,0.031955539909088504,0.0
848,848,-0.43286304139875553,-0.4,1,457.0,960.0,1.0,293.0,1,0.20818470076671147,0.0
849,849,0.8351372685275793,0.8,0,267.0,979.0,0.0,224.0,1,0.30710119511825007,0.0
850,850,-0.9400733966668735,-0.9,1,412.0,831.0,0.0,-1243.0,0,0.47898186127703535,0.0
851,851,0.35611220422176126,0.4,0,265.0,523.0,0.0,502.0,1,0.17829756056249613,0.0
852,852,0.15298480990596652,0.2,0,380.0,833.0,0.0,177.0,1,0.48841838375778,0.0
853,853,0.8552413875057625,0.9,0,324.0,635.0,0.0,281.0,1,0.20561196068789478,0.0
854,854,-0.49979998329891395,-0.5,1,271.0,860.0,1.0,449.0,1,0.7255036397597635,0.0
855,855,0.37192396509941417,0.4,0,460.0,567.0,0.0,383.0,1,0.047206121227926556,0.0
856,856,0.46571739568831183,0.5,0,344.0,892.0,0.0,324.0,1,0.4658786086923077,0.0
857,857,0.4241000939494879,0.4,0,293.0,537.0,0.0,260.0,1,0.6139730269935795,0.0
858,858,0.9302993199582539,0.9,0,314.0,735.0,0.0,221.0,1,0.34454142522222886,0.0
859,859,-0.7195816830811173,-0.7,1,368.0,582.0,1.0,400.0,1,0.18241126028305898,0.0
860,860,0.19618901777706532,0.2,0,377.0,911.0,0.0,452.0,1,0.3016116941643856,0.0
861,861,-0.976650374314413,-1.0,1,426.0,743.0,0.0,-1169.0,0,0.793776275532567,0.0
862,862,0.16441687563610774,0.2,0,275.0,976.0,0.0,489.0,1,0.01839921487054763,0.0
863,863,-0.5459731719440537,-0.5,1,492.0,832.0,0.0,-1324.0,0,0.9362746276223778,0.0
864,864,0.26340976220659984,0.3,0,475.0,884.0,0.0,281.0,1,0.6832940315219647,0.0
865,865,0.7476645225468928,0.7,0,459.0,936.0,0.0,305.0,1,0.40439985996767613,0.0
866,866,0.8081248711036708,0.8,0,297.0,610.0,0.0,-897.0,1,0.6853825933187861,0.0
867,867,-0.34693692955544186,-0.3,1,474.0,640.0,1.0,306.0,1,0.40787531709113956,0.0
868,868,-0.07477928899693675,-0.1,1,300.0,517.0,0.0,-817.0,0,0.5971138938416036,0.0
869,869,-0.24353937242377355,-0.2,1,368.0,841.0,0.0,-1179.0,0,0.38100726019792264,0.0
870,870,-0.650163292247393,-0.7,1,280.0,978.0,1.0,192.0,1,0.8846892011699832,0.0
871,871,-0.4747409676062895,-0.5,1,333.0,784.0,0.0,-1107.0,0,0.7933648514632006,0.0
872,872,-0.7562781617365693,-0.8,1,445.0,691.0,1.0,234.0,1,0.18343515631035034,0.0
873,873,0.058268856313387296,0.1,0,257.0,907.0,0.0,376.0,1,0.06254186455707811,0.0
874,874,0.27700820418387484,0.3,0,470.0,853.0,0.0,-1323.0,1,0.44931982857190145,0.0
875,875,-0.9939729092792164,-1.0,1,353.0,526.0,0.0,-879.0,0,0.6063184680198572,0.0
876,876,-0.9062111416948297,-0.9,1,421.0,720.0,1.0,279.0,1,0.15495570146107307,0.0
877,877,0.8417575617205859,0.8,0,275.0,706.0,0.0,-981.0,1,0.9050076393499483,0.0
878,878,0.994140175857352,1.0,0,465.0,881.0,0.0,164.0,1,0.42549966659529537,0.0
879,879,-0.46917480362931285,-0.5,1,283.0,735.0,0.0,-1018.0,0,0.9028385217313225,0.0
880,880,-0.2774255044195926,-0.3,1,254.0,582.0,1.0,634.0,1,0.14604645253177861,0.0
881,881,-0.43059546013740113,-0.4,1,345.0,910.0,1.0,175.0,1,0.7558146341037547,0.0
882,882,-0.4429310614176083,-0.4,1,445.0,816.0,1.0,259.0,1,0.8468101990033171,0.0
883,883,-0.27436116585950643,-0.3,1,419.0,815.0,1.0,266.0,1,0.2833045774973133,0.0
884,884,0.23304873604476173,0.2,0,304.0,598.0,0.0,-902.0,1,0.7599475238215554,0.0
885,885,-0.6695287995810115,-0.7,1,265.0,554.0,1.0,321.0,1,0.657923143589012,0.0
886,886,-0.21077530240273434,-0.2,1,498.0,634.0,0.0,458.0,0,0.08342924855336498,0.0
887,887,0.9071158964732735,0.9,0,268.0,668.0,0.0,194.0,1,0.11883436227905786,0.0
888,888,-0.42957104292862014,-0.4,1,392.0,713.0,0.0,-1095.0,0,0.37777440137019924,0.0
889,889,-0.7467419877629082,-0.7,1,441.0,810.0,1.0,689.0,1,0.08500212304607557,0.0
890,890,-0.08169728307954727,-0.1,1,437.0,546.0,1.0,1077.0,1,0.1426268653039472,0.0
891,891,0.5364023217123068,0.5,0,365.0,557.0,0.0,-892.0,1,0.4693162497594412,0.0
892,892,0.6749758935464976,0.7,0,276.0,719.0,0.0,-825.0,1,0.8149614526240954,0.0
893,893,0.6562592552198274,0.7,0,415.0,571.0,0.0,294.0,1,0.2643884406349345,0.0
894,894,-0.6083800184108343,-0.6,1,466.0,509.0,0.0,-955.0,0,0.6130765378617876,0.0
895,895,-0.9237297360848797,-0.9,1,472.0,925.0,1.0,273.0,1,0.04336199773645477,0.0
896,896,0.031142701997384226,0.0,0,482.0,832.0,0.0,-1314.0,1,0.942229793236995,0.0
897,897,0.23761228360546172,0.2,0,250.0,792.0,0.0,218.0,1,0.05973016595643732,0.0
898,898,-0.15681986909408963,-0.2,1,468.0,990.0,0.0,-1458.0,0,0.4392810496919335,0.0
899,899,0.6461998483198563,0.6,0,321.0,927.0,0.0,232.0,1,0.6656299659692005,0.0
900,900,-0.001385956431847024,-0.0,1,425.0,636.0,0.0,329.0,0,0.6934391667875094,0.0
901,901,0.86454316818021,0.9,0,262.0,859.0,0.0,-1121.0,1,0.949626779678287,0.0
902,902,0.37740785819125455,0.4,0,313.0,802.0,0.0,315.0,1,0.09726079260435849,0.0
903,903,0.30625645782936073,0.3,0,324.0,726.0,0.0,250.0,1,0.6651780951440537,0.0
904,904,-0.4788416438420191,-0.5,1,457.0,558.0,0.0,-1015.0,0,0.33560426140675115,0.0
905,905,-0.8487453039809778,-0.8,1,425.0,776.0,1.0,239.0,1,0.31809521759611925,0.0
906,906,-0.9640137042599111,-1.0,1,286.0,874.0,1.0,210.0,1,0.6552807389176111,0.0
907,907,0.4678538837352981,0.5,0,296.0,995.0,0.0,189.0,1,0.5543242996797312,0.0
908,908,0.5360227986171435,0.5,0,462.0,708.0,0.0,130.0,1,0.5424497740901447,0.0
909,909,-0.7155653888799169,-0.7,1,269.0,893.0,0.0,-1162.0,0,0.6478853020885833,0.0
910,910,-0.9327266499380045,-0.9,1,389.0,717.0,0.0,-1106.0,0,0.3118360324575091,0.0
911,911,-0.6276061260189678,-0.6,1,286.0,947.0,0.0,-1233.0,0,0.834264439898109,0.0
912,912,-0.19404900886407583,-0.2,1,374.0,620.0,0.0,-994.0,0,0.6809541540000543,0.0
913,913,-0.6065187925626083,-0.6,1,299.0,965.0,0.0,-1264.0,0,0.2574761545606794,0.0
914,914,-0.775896801071094,-0.8,1,254.0,543.0,1.0,243.0,1,0.2676785931390714,0.0
915,915,0.1093158156660825,0.1,0,302.0,854.0,0.0,374.0,1,0.04879733122173435,0.0
916,916,0.5248481419948625,0.5,0,452.0,836.0,0.0,172.0,1,0.7294541614491739,0.0
917,917,0.02661193202507328,0.0,0,290.0,953.0,0.0,427.0,1,0.46057711317369776,0.0
918,918,0.10431722528293652,0.1,0,275.0,855.0,0.0,680.0,1,0.05829630285803489,0.0
919,919,-0.24826795566584203,-0.2,1,405.0,662.0,0.0,263.0,0,0.16857248299121608,0.0
920,920,0.8228565128173395,0.8,0,480.0,903.0,0.0,237.0,1,0.13497515208626454,0.0
921,921,-0.6766171682141882,-0.7,1,387.0,591.0,0.0,-978.0,0,0.7214017158797895,0.0
922,922,-0.37814237352917957,-0.4,1,403.0,862.0,0.0,-1265.0,0,0.6405519092882567,0.0
923,923,0.6942018522867295,0.7,0,339.0,966.0,0.0,-1235.0,1,0.591415604241786,0.0
924,924,0.4114676814018574,0.4,0,479.0,890.0,0.0,-1349.0,1,0.31584590531261225,0.0
925,925,0.019651537749395098,0.0,0,413.0,936.0,0.0,231.0,1,0.22462150799386205,0.0
926,926,0.4595001468440123,0.5,0,292.0,552.0,0.0,176.0,1,0.24746780200346552,0.0
927,927,0.7898873993527382,0.8,0,277.0,833.0,0.0,150.0,1,0.40187310612265004,0.0
928,928,-0.3427428354849913,-0.3,1,307.0,976.0,1.0,1097.0,1,0.18840925534241293,0.0
929,929,0.7933732159489799,0.8,0,454.0,744.0,0.0,202.0,1,0.45134658787494686,0.0
930,930,-0.25892534633759,-0.3,1,308.0,555.0,1.0,747.0,1,0.07100038160318911,0.0
931,931,-0.7477352754578948,-0.7,1,430.0,723.0,1.0,317.0,1,0.3390525665178301,0.0
932,932,0.8393411318020645,0.8,0,489.0,557.0,0.0,164.0,1,0.41443757249611857,0.0
933,933,0.8604639119697814,0.9,0,378.0,805.0,0.0,-1183.0,1,0.8695568857022141,0.0
934,934,-0.9093766486630626,-0.9,1,458.0,786.0,1.0,306.0,1,0.16724180057640725,0.0
935,935,-0.4263609464749736,-0.4,1,280.0,599.0,1.0,451.0,1,0.8071018133684034,0.0
936,936,-0.32323622936176655,-0.3,1,327.0,893.0,0.0,-1220.0,0,0.9320103679624057,0.0
937,937,0.272898077625221,0.3,0,379.0,785.0,0.0,206.0,1,0.8150995587428967,0.0
938,938,-0.374879157995313,-0.4,1,353.0,760.0,0.0,-1113.0,0,0.9159472192589786,0.0
939,939,-0.1505009834013571,-0.2,1,471.0,647.0,1.0,812.0,1,0.243083519445504,0.0
940,940,0.20120636423616034,0.2,0,339.0,631.0,0.0,360.0,1,0.194787778841513,0.0
941,941,-0.9862064989954678,-1.0,1,452.0,532.0,0.0,-984.0,0,0.9481891511724013,0.0
942,942,0.548683526219143,0.5,0,398.0,965.0,0.0,277.0,1,0.004387357367297784,0.0
943,943,-0.46889291368073116,-0.5,1,295.0,780.0,1.0,355.0,1,0.6928833051481823,0.0
944,944,-0.9276449082471412,-0.9,1,480.0,777.0,0.0,-1257.0,0,0.6612714774236816,0.0
945,945,0.5039991745849675,0.5,0,287.0,678.0,0.0,105.0,1,0.7321031907098612,0.0
946,946,-0.6596803861091418,-0.7,1,269.0,543.0,1.0,268.0,1,0.25329921056295057,0.0
947,947,-0.4558224993889992,-0.5,1,404.0,753.0,0.0,-1137.0,0,0.3658914624222185,0.0
948,948,-0.5829816411613098,-0.6,1,355.0,869.0,1.0,386.0,1,0.5750721784327579,0.0
949,949,0.005629119747076805,0.0,0,266.0,848.0,0.0,276.0,1,0.3988166741338326,0.0
950,950,-0.30444842892096613,-0.3,1,437.0,906.0,1.0,297.0,1,0.05408550251776323,0.0
951,951,-0.5819070610596679,-0.6,1,440.0,745.0,1.0,465.0,1,0.4837807810676973,0.0
952,952,-0.27200024805903245,-0.3,1,276.0,652.0,0.0,-928.0,0,0.7764493623440695,0.0
953,953,-0.4792480703945121,-0.5,1,359.0,712.0,0.0,-1071.0,0,0.9427233890243781,0.0
954,954,0.8080432584772352,0.8,0,413.0,842.0,0.0,-1255.0,1,0.9924243365059819,0.0
955,955,0.8583884197777396,0.9,0,468.0,902.0,0.0,180.0,1,0.47006482326168053,0.0
956,956,0.6859564393201085,0.7,0,290.0,622.0,0.0,-902.0,1,0.5564887619947102,0.0
957,957,-0.18765587544659668,-0.2,1,364.0,506.0,0.0,-860.0,0,0.5897532211369544,0.0
958,958,0.3810856263465512,0.4,0,495.0,978.0,0.0,377.0,1,0.1601285869527913,0.0
959,959,-0.9357009450380818,-0.9,1,315.0,798.0,0.0,-1113.0,0,0.9755079321111576,0.0
960,960,0.6877022195545228,0.7,0,334.0,996.0,0.0,-1330.0,1,0.5388574764661649,0.0
961,961,0.2463987942879946,0.2,0,346.0,951.0,0.0,293.0,1,0.29839942078596104,0.0
962,962,-0.12371438426290826,-0.1,1,307.0,756.0,0.0,-1063.0,0,0.892057348998325,0.0
963,963,-0.10240000071443811,-0.1,1,337.0,598.0,1.0,695.0,1,0.27101678966584686,0.0
964,964,-0.8973398390905278,-0.9,1,421.0,808.0,0.0,-1229.0,0,0.5070059601440539,0.0
965,965,-0.09083552725819044,-0.1,1,256.0,835.0,1.0,619.0,1,0.27886368486748125,0.0
966,966,-0.5122095705558865,-0.5,1,379.0,680.0,1.0,291.0,1,0.43480544923685516,0.0
967,967,0.14294883738005026,0.1,0,481.0,545.0,0.0,244.0,1,0.3425956410297031,0.0
968,968,-0.12138591683655675,-0.1,1,273.0,687.0,0.0,-960.0,0,0.858563341900971,0.0
969,969,0.76013696662051,0.8,0,290.0,660.0,0.0,-950.0,1,0.7415142039477769,0.0
970,970,0.00044785611590114627,0.0,0,412.0,793.0,0.0,-1205.0,1,0.6905586585288689,0.0
971,971,-0.746039096767448,-0.7,1,274.0,901.0,1.0,325.0,1,0.5526619360689051,0.0
972,972,0.2604133554935013,0.3,0,287.0,716.0,0.0,347.0,1,0.32104374840688477,0.0
973,973,0.9783011557647909,1.0,0,351.0,864.0,0.0,195.0,1,0.5011015515882731,0.0
974,974,0.40595165060996163,0.4,0,428.0,937.0,0.0,-1365.0,1,0.9153850845416543,0.0
975,975,-0.5723628361165134,-0.6,1,403.0,822.0,0.0,-1215.0,0,0.31328861675773967,0.0
976,976,-0.2904900455798558,-0.3,1,288.0,682.0,0.0,-970.0,0,0.9805676925595106,0.0
977,977,0.5686533679542942,0.6,0,289.0,753.0,0.0,-1042.0,1,0.5765970211108344,0.0
978,978,-0.36512133460772467,-0.4,1,390.0,780.0,0.0,-1150.0,0,0.9412706119559989,0.0
979,979,0.8645178104681281,0.9,0,275.0,502.0,0.0,203.0,1,0.4633533298782251,0.0
980,980,-0.8681108353898754,-0.9,1,462.0,836.0,0.0,-1298.0,0,0.45572911942585603,0.0
981,981,0.37188145510787796,0.4,0,411.0,694.0,0.0,545.0,1,0.015023414939636437,0.0
982,982,-0.7196263158527241,-0.7,1,331.0,861.0,1.0,218.0,1,0.37664985371454585,0.0
983,983,-0.04143245679848295,-0.0,1,459.0,621.0,0.0,-1080.0,0,0.8097252785304251,0.0
984,984,-0.572351718820413,-0.6,1,295.0,889.0,1.0,416.0,1,0.019367554397111686,0.0
985,985,0.2513314931392201,0.3,0,350.0,992.0,0.0,238.0,1,0.3166968145006105,0.0
986,986,0.6126919439033554,0.6,0,469.0,779.0,0.0,342.0,1,0.19550077978620262,0.0
987,987,0.5865150238876409,0.6,0,453.0,966.0,0.0,-1339.0,1,0.982905860370513,0.0
988,988,-0.7123334123028386,-0.7,1,371.0,746.0,0.0,-1117.0,0,0.6937935687095637,0.0
989,989,-0.9543464869004703,-1.0,1,284.0,567.0,0.0,-811.0,0,0.8035957599984764,0.0
990,990,0.5908506688518447,0.6,0,336.0,755.0,0.0,-1091.0,1,0.5262323194329146,0.0
991,991,-0.4401454043788475,-0.4,1,462.0,777.0,1.0,381.0,1,0.022765919421325997,0.0
992,992,-0.9354808268280637,-0.9,1,343.0,878.0,1.0,259.0,1,0.09386201047756271,0.0
993,993,-0.23743964499432435,-0.2,1,271.0,693.0,0.0,-964.0,0,0.8116845900803701,0.0
994,994,0.4216665783125635,0.4,0,356.0,842.0,0.0,272.0,1,0.15908509516608926,0.0
995,995,0.9659256507938594,1.0,0,381.0,578.0,0.0,-959.0,1,0.6943055653648773,0.0
996,996,0.8190471380007038,0.8,0,478.0,611.0,0.0,171.0,1,0.7615746886230477,0.0
997,997,-0.09111914493778617,-0.1,1,318.0,833.0,1.0,619.0,1,0.18498827122477124,0.0
998,998,-0.5781471708767076,-0.6,1,409.0,794.0,0.0,-1203.0,0,0.6185080049300555,0.0
999,999,0.415380271323863,0.4,0,363.0,693.0,0.0,194.0,1,0.28962919191979597,0.0
1000,1000,0.9655044426725459,1.0,0,425.0,550.0,0.0,-945.0,1,0.7120981284566016,0.0
1001,1001,-0.11061922049822126,-0.1,1,488.0,772.0,1.0,1690.0,1,0.2446319660768994,0.0
1002,1002,0.18613431434278316,0.2,0,487.0,951.0,0.0,532.0,1,0.11446274446934823,0.0
1003,1003,-0.47246618315563293,-0.5,1,430.0,683.0,1.0,287.0,1,0.7727323865127859,0.0
1004,1004,0.3341566543395582,0.3,0,256.0,789.0,0.0,-1045.0,1,0.9665667040565749,0.0
1005,1005,0.9818802038276941,1.0,0,486.0,669.0,0.0,265.0,1,0.7746889630062724,0.0
1006,1006,-0.38801915538433485,-0.4,1,451.0,859.0,1.0,210.0,1,0.6352262237672793,0.0
1007,1007,0.6605400589910737,0.7,0,279.0,549.0,0.0,202.0,1,0.8594079107482738,0.0
1008,1008,-0.1531883266399685,-0.2,1,261.0,598.0,1.0,331.0,1,0.26277852645524413,0.0
1009,1009,-0.871214148361094,-0.9,1,256.0,742.0,1.0,352.0,1,0.16069036208504917,0.0
1010,1010,0.6924079953663635,0.7,0,460.0,851.0,0.0,229.0,1,0.06446478892199958,0.0
1011,1011,-0.4893994603168701,-0.5,1,336.0,876.0,0.0,-1212.0,0,0.927695700046148,0.0
1012,1012,0.17497866817197005,0.2,0,325.0,664.0,0.0,331.0,1,0.42120876438586996,0.0
1013,1013,0.3133329004598959,0.3,0,480.0,500.0,0.0,-980.0,1,0.8544710833987301,0.0
1014,1014,-0.13392392031666267,-0.1,1,450.0,672.0,1.0,198.0,1,0.3766773643612642,0.0
1015,1015,0.12196368771641564,0.1,0,453.0,678.0,0.0,-1131.0,1,0.887273744719636,0.0
1016,1016,-0.4419539321915895,-0.4,1,415.0,672.0,1.0,883.0,1,0.09348239562741201,0.0
1017,1017,0.03439277999764867,0.0,0,270.0,746.0,0.0,1304.0,1,0.07637874939120282,0.0
1018,1018,-0.18850216126285324,-0.2,1,299.0,551.0,0.0,410.0,0,0.02534465596398905,0.0
1019,1019,-0.5892004782564102,-0.6,1,356.0,897.0,0.0,-1253.0,0,0.5639823769751058,0.0
1020,1020,0.6845288637011562,0.7,0,497.0,706.0,0.0,187.0,1,0.6584954950932351,0.0
1021,1021,0.4199767140821249,0.4,0,412.0,977.0,0.0,431.0,1,0.3158817783243546,0.0
1022,1022,-0.0911284997163393,-0.1,1,409.0,710.0,0.0,361.0,0,0.6634835194821801,0.0
1023,1023,0.26387749781850944,0.3,0,285.0,761.0,0.0,-1046.0,1,0.9699805072868604,0.0
1024,1024,-0.6660557239262659,-0.7,1,476.0,727.0,1.0,617.0,1,0.051074128733973545,0.0
1025,1025,-0.376348011772895,-0.4,1,496.0,500.0,0.0,-996.0,0,0.9485578229599788,0.0
1026,1026,0.755427799743972,0.8,0,435.0,632.0,0.0,183.0,1,0.4156944664680663,0.0
1027,1027,-0.048594014268834806,-0.0,1,268.0,812.0,0.0,-1080.0,0,0.2961672760329258,0.0
1028,1028,0.31234018374524175,0.3,0,290.0,845.0,0.0,265.0,1,0.12829651400506914,0.0
1029,1029,0.2280482070437173,0.2,0,494.0,596.0,0.0,90.0,1,0.7774708979440104,0.0
1030,1030,0.7709644447939528,0.8,0,492.0,970.0,0.0,-1452.0,1,0.04894072782729364,0.0
1031,1031,0.23052501318869867,0.2,0,409.0,749.0,0.0,292.0,1,0.709778700803446,0.0
1032,1032,0.3995222588519254,0.4,0,437.0,807.0,0.0,-1234.0,1,0.4815920106486433,0.0
1033,1033,-0.935863515210352,-0.9,1,481.0,725.0,1.0,144.0,1,0.9720944175357128,0.0
1034,1034,-0.8718247842428164,-0.9,1,454.0,766.0,1.0,240.0,1,0.17496297793259719,0.0
1035,1035,-0.30244914906878084,-0.3,1,487.0,813.0,0.0,-1300.0,0,0.7453905133740576,0.0
1036,1036,0.22103539354503288,0.2,0,433.0,784.0,0.0,-1217.0,1,0.48377398465933275,0.0
1037,1037,0.8470792144363122,0.8,0,449.0,505.0,0.0,-944.0,1,0.578938334988247,0.0
1038,1038,0.7363552797354029,0.7,0,430.0,979.0,0.0,181.0,1,0.033927056274415945,0.0
1039,1039,-0.331558352091295,-0.3,1,311.0,883.0,1.0,386.0,1,0.3456534344425013,0.0
1040,1040,0.6961190166623039,0.7,0,353.0,574.0,0.0,-927.0,1,0.6545466274661346,0.0
1041,1041,0.9782529603147849,1.0,0,414.0,665.0,0.0,241.0,1,0.07902816283903291,0.0
1042,1042,-0.7110916847117645,-0.7,1,296.0,888.0,0.0,-1174.0,0,0.9160977235727878,0.0
1043,1043,0.9002309618144857,0.9,0,378.0,546.0,0.0,166.0,1,0.01969022302029233,0.0
1044,1044,0.5087821051947858,0.5,0,321.0,766.0,0.0,493.0,1,0.20156098354587537,0.0
1045,1045,-0.05920246974388088,-0.1,1,337.0,685.0,0.0,-1022.0,0,0.8729384772059499,0.0
1046,1046,-0.6741465993177576,-0.7,1,370.0,617.0,1.0,223.0,1,0.7940941538888383,0.0
1047,1047,0.28186144293511584,0.3,0,487.0,881.0,0.0,-1368.0,1,0.5708635318724183,0.0
1048,1048,0.15569019875490953,0.2,0,350.0,876.0,0.0,254.0,1,0.981065000687283,0.0
1049,1049,0.08767840368737789,0.1,0,340.0,773.0,0.0,-1113.0,1,0.8969946943286029,0.0
1050,1050,0.7183305012866086,0.7,0,345.0,542.0,0.0,183.0,1,0.7911839981431464,0.0
1051,1051,-0.09545974801826174,-0.1,1,277.0,617.0,0.0,-894.0,0,0.9715744891554698,0.0
1052,1052,-0.2062971801602591,-0.2,1,365.0,976.0,0.0,469.0,0,0.26514327787136394,0.0
1053,1053,-0.29795618235515686,-0.3,1,379.0,630.0,0.0,211.0,0,0.5545478796815047,0.0
1054,1054,0.3198100319517396,0.3,0,298.0,914.0,0.0,228.0,1,0.5101877627419276,0.0
1055,1055,-0.663145156259644,-0.7,1,335.0,779.0,1.0,236.0,1,0.0944349361854846,0.0
1056,1056,0.8968613287468294,0.9,0,356.0,564.0,0.0,-920.0,1,0.9776366397133414,0.0
1057,1057,-0.5955335630280498,-0.6,1,441.0,948.0,1.0,361.0,1,0.294114182549413,0.0
1058,1058,0.9279876800595812,0.9,0,408.0,881.0,0.0,-1289.0,1,0.9942760756293239,0.0
1059,1059,-0.48707464353082885,-0.5,1,273.0,924.0,1.0,323.0,1,0.26380493303374253,0.0
1060,1060,-0.6707223359768708,-0.7,1,466.0,770.0,1.0,434.0,1,0.40451465909465023,0.0
1061,1061,0.7728557960255491,0.8,0,365.0,842.0,0.0,-1207.0,1,0.6738277300232364,0.0
1062,1062,-0.46113614222624744,-0.5,1,385.0,996.0,1.0,289.0,1,0.21417652963903933,0.0
1063,1063,-0.3453339447853008,-0.3,1,363.0,797.0,0.0,-1160.0,0,0.9351341035525698,0.0
1064,1064,0.5651288988628369,0.6,0,430.0,542.0,0.0,-962.0,1,0.30076380234155464,0.0
1065,1065,0.6580949098101518,0.7,0,352.0,870.0,0.0,328.0,1,0.11080246314855613,0.0
1066,1066,0.39841513056019573,0.4,0,429.0,617.0,0.0,184.0,1,0.5055073247452053,0.0
1067,1067,0.44553664234788526,0.4,0,382.0,724.0,0.0,-1106.0,1,0.6274771222374668,0.0
1068,1068,-0.39759600397618744,-0.4,1,486.0,838.0,1.0,646.0,1,0.039487409772521964,0.0
1069,1069,-0.7253773015051297,-0.7,1,448.0,520.0,0.0,-948.0,0,0.6817062124968629,0.0
1070,1070,-0.10115869302447034,-0.1,1,356.0,926.0,0.0,-1282.0,0,0.8085870756435873,0.0
1071,1071,0.6609667379136597,0.7,0,404.0,587.0,0.0,179.0,1,0.7721183495089755,0.0
1072,1072,0.963453345985912,1.0,0,415.0,799.0,0.0,166.0,1,0.25287881848639093,0.0
1073,1073,0.220093717834986,0.2,0,478.0,968.0,0.0,344.0,1,0.34306866840674843,0.0
1074,1074,0.11595897633566765,0.1,0,291.0,762.0,0.0,-1053.0,1,0.6038181773151751,0.0
1075,1075,-0.9303367768846411,-0.9,1,451.0,592.0,1.0,327.0,1,0.5949139002418201,0.0
1076,1076,-0.2598251484715439,-0.3,1,428.0,798.0,0.0,-1226.0,0,0.45411775422266765,0.0
1077,1077,0.568851139071852,0.6,0,302.0,850.0,0.0,248.0,1,0.8238236406002292,0.0
1078,1078,-0.004531143351759415,-0.0,1,342.0,567.0,0.0,321.0,0,0.31645081298370814,0.0
1079,1079,-0.9927439381232426,-1.0,1,392.0,877.0,0.0,-1269.0,0,0.7517561095742034,0.0
1080,1080,-0.09480457776176099,-0.1,1,460.0,876.0,0.0,-1336.0,0,0.8553107045027438,0.0
1081,1081,0.7645505792608738,0.8,0,306.0,719.0,0.0,225.0,1,0.603284312243285,0.0
1082,1082,-0.8245588917191491,-0.8,1,392.0,968.0,1.0,170.0,1,0.16084087743263342,0.0
1083,1083,0.5222265916534241,0.5,0,394.0,981.0,0.0,185.0,1,0.9001417114035442,0.0
1084,1084,-0.9391329170625671,-0.9,1,408.0,920.0,0.0,-1308.0,0,0.37611120347558447,0.0
1085,1085,0.7167191160006448,0.7,0,444.0,698.0,0.0,-1142.0,1,0.5850696946271439,0.0
1086,1086,0.07905185462205067,0.1,0,274.0,643.0,0.0,-867.0,1,0.42699533827199065,0.0
1087,1087,0.8198910417811214,0.8,0,361.0,566.0,0.0,-927.0,1,0.6672199758338588,0.0
1088,1088,-0.8147264784146104,-0.8,1,391.0,805.0,0.0,-1196.0,0,0.6977789738285691,0.0
1089,1089,-0.7399181424970198,-0.7,1,266.0,533.0,0.0,-749.0,0,0.9868502139564274,0.0
1090,1090,-0.492459435966105,-0.5,1,499.0,677.0,1.0,284.0,1,0.6840847168052436,0.0
1091,1091,-0.17265960004516723,-0.2,1,306.0,826.0,0.0,-1112.0,0,0.48265375867922433,0.0
1092,1092,0.5231940788907534,0.5,0,316.0,713.0,0.0,181.0,1,0.08457769188063102,0.0
1093,1093,0.32441154836395025,0.3,0,357.0,844.0,0.0,159.0,1,0.9008236288939675,0.0
1094,1094,0.6504948037065963,0.7,0,294.0,743.0,0.0,193.0,1,0.8290671750274959,0.0
1095,1095,0.7033202688031195,0.7,0,259.0,876.0,0.0,225.0,1,0.23954241260364317,0.0
1096,1096,0.9337075932378545,0.9,0,298.0,878.0,0.0,264.0,1,0.3213891321383002,0.0
1097,1097,0.8370125287406489,0.8,0,417.0,747.0,0.0,196.0,1,0.22734332256051115,0.0
1098,1098,-0.11221407469124811,-0.1,1,329.0,566.0,0.0,-895.0,0,0.9425908518861327,0.0
1099,1099,-0.3081272348990691,-0.3,1,432.0,725.0,0.0,-1147.0,0,0.4267054640184077,0.0
1100,1100,0.924545920556523,0.9,0,401.0,770.0,0.0,-1171.0,1,0.7500372357238938,0.0
1101,1101,0.3300884981976391,0.3,0,414.0,663.0,0.0,273.0,1,0.019192040242307917,0.0
1102,1102,0.9080874110386732,0.9,0,311.0,986.0,0.0,-1277.0,1,0.24724953763732782,0.0
1103,1103,-0.40706034591434515,-0.4,1,354.0,518.0,0.0,-872.0,0,0.788850358388058,0.0
1104,1104,-0.6633579621140251,-0.7,1,259.0,929.0,1.0,182.0,1,0.7553749297881096,0.0
1105,1105,-0.6107575650440034,-0.6,1,332.0,581.0,1.0,547.0,1,0.41004820838950895,0.0
1106,1106,0.028106810079496114,0.0,0,360.0,558.0,1.0,1002.0,0,0.2207392221934562,0.0
1107,1107,-0.8948338105493614,-0.9,1,312.0,500.0,1.0,178.0,1,0.26371475480298234,0.0
1108,1108,0.787955139248655,0.8,0,284.0,615.0,0.0,181.0,1,0.30482798076332074,0.0
1109,1109,0.1086472704757595,0.1,0,363.0,988.0,0.0,379.0,1,0.1461647618655041,0.0
1110,1110,0.6115291125813396,0.6,0,360.0,523.0,0.0,317.0,1,0.01590624415084496,0.0
1111,1111,-0.3768519691849501,-0.4,1,425.0,542.0,1.0,413.0,1,0.40961797276383105,0.0
1112,1112,-0.812114043056908,-0.8,1,473.0,880.0,1.0,367.0,1,0.34970714441086703,0.0
1113,1113,0.9543814934041441,1.0,0,350.0,755.0,0.0,-1095.0,1,0.47626244934223416,0.0
1114,1114,-0.27891798694792147,-0.3,1,324.0,571.0,1.0,555.0,1,0.0020801971201317437,0.0
1115,1115,-0.8531562428809163,-0.9,1,471.0,902.0,0.0,-1373.0,0,0.8281311914849682,0.0
1116,1116,0.6174536546064904,0.6,0,451.0,921.0,0.0,288.0,1,0.32989157296293636,0.0
1117,1117,-0.8894479286155059,-0.9,1,431.0,961.0,1.0,218.0,1,0.2125511271955023,0.0
1118,1118,-0.4916807171657491,-0.5,1,362.0,797.0,1.0,151.0,1,0.10960910411119673,0.0
1119,1119,-0.8600309557262382,-0.9,1,277.0,849.0,0.0,-1126.0,0,0.984874297885199,0.0
1120,1120,0.24950861676453417,0.2,0,420.0,943.0,0.0,187.0,1,0.325690504399185,0.0
1121,1121,-0.13322243730759253,-0.1,1,318.0,996.0,0.0,-1314.0,0,0.7619867078911411,0.0
1122,1122,-0.45626767327019024,-0.5,1,359.0,524.0,1.0,357.0,1,0.2997272749567712,0.0
1123,1123,0.16536659567534762,0.2,0,319.0,510.0,0.0,231.0,1,0.9037559624054553,0.0
1124,1124,0.10477987237476416,0.1,0,406.0,694.0,0.0,-1100.0,1,0.41715996564679403,0.0
1125,1125,-0.3564215939442543,-0.4,1,479.0,908.0,1.0,243.0,1,0.6410322333900605,0.0
1126,1126,-0.42414059505687085,-0.4,1,464.0,874.0,1.0,272.0,1,0.30556355127290347,0.0
1127,1127,-0.8022240081559635,-0.8,1,492.0,762.0,0.0,-1254.0,0,0.7030932208390647,0.0
1128,1128,-0.968055341575109,-1.0,1,490.0,992.0,0.0,-1482.0,0,0.8019937559838528,0.0
1129,1129,0.15406015907717796,0.2,0,498.0,690.0,0.0,312.0,1,0.7132951134658436,0.0
1130,1130,-0.33483894870887987,-0.3,1,378.0,518.0,0.0,-896.0,0,0.9282171467855242,0.0
1131,1131,0.025586413611297987,0.0,0,268.0,906.0,0.0,256.0,1,0.8350134044493326,0.0
1132,1132,-0.6047613479147622,-0.6,1,380.0,845.0,1.0,265.0,1,0.7865367569047221,0.0
1133,1133,-0.1811659244099526,-0.2,1,470.0,678.0,0.0,-1148.0,0,0.6808574901165095,0.0
1134,1134,0.09824088106088658,0.1,0,389.0,731.0,0.0,500.0,1,0.005158034108332266,0.0
1135,1135,-0.11877848803046587,-0.1,1,387.0,906.0,0.0,-1293.0,0,0.7070352981549888,0.0
1136,1136,-0.9655606008617144,-1.0,1,394.0,549.0,1.0,227.0,1,0.3416323654976765,0.0
1137,1137,-0.5387824078874537,-0.5,1,424.0,711.0,1.0,175.0,1,0.305762831758871,0.0
1138,1138,0.19051774831431278,0.2,0,405.0,751.0,0.0,184.0,1,0.6139934263101734,0.0
1139,1139,0.8466415730214498,0.8,0,354.0,695.0,0.0,-1009.0,1,0.6264461386542154,0.0
1140,1140,0.2913360534419194,0.3,0,332.0,659.0,0.0,-991.0,1,0.8900575224988481,0.0
1141,1141,-0.03694334998481241,-0.0,1,447.0,709.0,0.0,244.0,0,0.8621791824634286,0.0
1142,1142,-0.4879521265108031,-0.5,1,449.0,908.0,1.0,393.0,1,0.5958011954515532,0.0
1143,1143,0.05033600987361009,0.1,0,306.0,752.0,0.0,-1058.0,1,0.6818142571401604,0.0
1144,1144,0.6099752206097939,0.6,0,424.0,725.0,0.0,421.0,1,0.07587413051306546,0.0
1145,1145,-0.195253128515114,-0.2,1,460.0,504.0,1.0,276.0,1,0.3684643858937505,0.0
1146,1146,-0.047925759544808155,-0.0,1,468.0,938.0,0.0,324.0,0,0.021008823397877574,0.0
1147,1147,-0.43808303189823583,-0.4,1,346.0,985.0,1.0,409.0,1,0.09708655866995053,0.0
1148,1148,0.9207620572260011,0.9,0,298.0,727.0,0.0,-1025.0,1,0.9412018551904204,0.0
1149,1149,0.2532531062877603,0.3,0,448.0,736.0,0.0,-1184.0,1,0.9563249507402263,0.0
1150,1150,0.4634998282758023,0.5,0,380.0,615.0,0.0,-995.0,1,0.9654018482495539,0.0
1151,1151,-0.9833886759619772,-1.0,1,469.0,938.0,1.0,283.0,1,0.32615059406665736,0.0
1152,1152,0.12794988773561533,0.1,0,449.0,851.0,0.0,390.0,1,0.2606268240028504,0.0
1153,1153,0.6593587927021398,0.7,0,454.0,890.0,0.0,286.0,1,0.18360995787913337,0.0
1154,1154,-0.6226163388741026,-0.6,1,254.0,872.0,0.0,-1106.0,0,0.37670443961249855,0.0
1155,1155,0.5284697294392684,0.5,0,410.0,791.0,0.0,179.0,1,0.4178943655670494,0.0
1156,1156,0.9124952880896608,0.9,0,312.0,633.0,0.0,-945.0,1,0.6720353079090636,0.0
1157,1157,0.20680699071966324,0.2,0,413.0,599.0,0.0,-1002.0,1,0.3972208649893829,0.0
1158,1158,0.20817501157682683,0.2,0,284.0,599.0,0.0,-873.0,1,0.6054912384918248,0.0
1159,1159,-0.2568665360378193,-0.3,1,304.0,926.0,0.0,420.0,0,0.38517690581569286,0.0
1160,1160,-0.049693718393826414,-0.0,1,375.0,579.0,0.0,166.0,0,0.8497095399412775,0.0
1161,1161,-0.17628577105083276,-0.2,1,328.0,540.0,0.0,-868.0,0,0.7270942018413239,0.0
1162,1162,0.16420970107889143,0.2,0,367.0,614.0,0.0,259.0,1,0.18174071286154114,0.0
1163,1163,0.6465433734962347,0.6,0,490.0,751.0,0.0,299.0,1,0.13080436116656857,0.0
1164,1164,0.7757623658210726,0.8,0,436.0,662.0,0.0,162.0,1,0.6867334796817679,0.0
1165,1165,-0.0010654086146366648,-0.0,1,297.0,626.0,0.0,697.0,0,0.1405184540317106,0.0
1166,1166,0.7115097591920077,0.7,0,295.0,792.0,0.0,353.0,1,0.5241152182134378,0.0
1167,1167,-0.06756791676857699,-0.1,1,328.0,845.0,0.0,1027.0,0,0.3874474881059977,0.0
1168,1168,0.7461857622729471,0.7,0,267.0,832.0,0.0,271.0,1,0.31862090313217684,0.0
1169,1169,0.45864629964185766,0.5,0,254.0,839.0,0.0,-1073.0,1,0.6576922049578074,0.0
1170,1170,-0.9602762824204687,-1.0,1,301.0,566.0,1.0,353.0,1,0.39446247335053153,0.0
1171,1171,-0.08324447575663108,-0.1,1,353.0,509.0,0.0,188.0,0,0.48812944887729603,0.0
1172,1172,-0.8616149754997229,-0.9,1,290.0,884.0,1.0,386.0,1,0.3245473156817916,0.0
1173,1173,-0.8119434156812086,-0.8,1,334.0,578.0,0.0,-892.0,0,0.30689801038546094,0.0
1174,1174,0.41749200808780795,0.4,0,319.0,994.0,0.0,-1313.0,1,0.6294376110195594,0.0
1175,1175,-0.04323380141246047,-0.0,1,253.0,764.0,1.0,543.0,1,0.07706870785578146,0.0
1176,1176,-0.6530625395907628,-0.7,1,395.0,591.0,1.0,164.0,1,0.6497368571449184,0.0
1177,1177,0.9056779505079264,0.9,0,337.0,812.0,0.0,-1149.0,1,0.9688213465341153,0.0
1178,1178,0.8904329772715791,0.9,0,451.0,516.0,0.0,253.0,1,0.03677408077512179,0.0
1179,1179,-0.33270389490383634,-0.3,1,370.0,611.0,1.0,159.0,1,0.4982582160117589,0.0
1180,1180,0.6277828585780487,0.6,0,488.0,779.0,0.0,223.0,1,0.0775854802472199,0.0
1181,1181,-0.028932616809238088,-0.0,1,480.0,903.0,1.0,357.0,1,0.8384360602826647,0.0
1182,1182,0.45914562053881225,0.5,0,268.0,839.0,0.0,113.0,1,0.18182966819567126,0.0
1183,1183,0.4487870220644936,0.4,0,327.0,654.0,0.0,189.0,1,0.3110937329774264,0.0
1184,1184,-0.49905324161406783,-0.5,1,425.0,631.0,1.0,194.0,1,0.7277015781474478,0.0
1185,1185,0.06099543402211971,0.1,0,424.0,860.0,0.0,-1264.0,1,0.7211436596677181,0.0
1186,1186,-0.9443861297128129,-0.9,1,494.0,679.0,1.0,357.0,1,0.301047887004506,0.0
1187,1187,0.6986305397558101,0.7,0,328.0,584.0,0.0,-872.0,1,0.7923537402194397,0.0
1188,1188,-0.963336046342576,-1.0,1,394.0,638.0,1.0,408.0,1,0.4358488467093897,0.0
1189,1189,-0.0924534324371118,-0.1,1,474.0,923.0,0.0,-1397.0,0,0.21637224685300405,0.0
1190,1190,-0.9784718715148686,-1.0,1,421.0,687.0,0.0,-1078.0,0,0.8323660682123561,0.0
1191,1191,-0.8198067514449137,-0.8,1,329.0,853.0,0.0,-1182.0,0,0.49653634385060863,0.0
1192,1192,-0.5738605595519661,-0.6,1,495.0,908.0,0.0,-1403.0,0,0.16536550405147887,0.0
1193,1193,0.18103020479647913,0.2,0,376.0,673.0,0.0,-1049.0,1,0.6943080620650947,0.0
1194,1194,0.45928381825143405,0.5,0,402.0,939.0,0.0,179.0,1,0.7746449117752038,0.0
1195,1195,0.23668363328369368,0.2,0,318.0,974.0,0.0,-1272.0,1,0.7126675104510319,0.0
1196,1196,0.7501331909935829,0.8,0,480.0,716.0,0.0,384.0,1,0.04830780537464141,0.0
1197,1197,0.5586726471562451,0.6,0,489.0,946.0,0.0,415.0,1,0.08980286976393614,0.0
1198,1198,-0.4458685497912962,-0.4,1,272.0,996.0,1.0,552.0,1,0.2226164577816565,0.0
1199,1199,-0.5724153702119563,-0.6,1,338.0,630.0,1.0,572.0,1,0.09808021557496238,0.0
1200,1200,-0.9040696952248493,-0.9,1,327.0,808.0,1.0,235.0,1,0.15051236470615492,0.0
1201,1201,-0.3683700615446026,-0.4,1,383.0,603.0,1.0,364.0,1,0.38746574143586343,0.0
1202,1202,-0.35433830644407904,-0.4,1,420.0,896.0,1.0,414.0,1,0.38085033360958653,0.0
1203,1203,0.7421765673324898,0.7,0,433.0,876.0,0.0,321.0,1,0.027850389139047693,0.0
1204,1204,0.29349054031393385,0.3,0,368.0,545.0,0.0,277.0,1,0.12900754305297213,0.0
1205,1205,0.7940774259951091,0.8,0,269.0,830.0,0.0,-1099.0,1,0.9190148568054358,0.0
1206,1206,0.09953328751594048,0.1,0,277.0,937.0,0.0,276.0,1,0.37722131108295853,0.0
1207,1207,0.4621417620718866,0.5,0,336.0,971.0,0.0,-1307.0,1,0.8303165139010559,0.0
1208,1208,0.7865444980149325,0.8,0,262.0,571.0,0.0,-833.0,1,0.8413028437291221,0.0
1209,1209,-0.7066564810657838,-0.7,1,343.0,853.0,1.0,204.0,1,0.23749564325271866,0.0
1210,1210,-0.14957754377823917,-0.1,1,251.0,823.0,0.0,-1074.0,0,0.6975491599591578,0.0
