,trial,coherence,coherence_bin,correct_side,target_onset,checker_onset,decision,decision_time,correct_decision,g0
0,0,-0.031092434332440133,-0.0,1,445.0,666.0,1.0,1969.0,1,0.46010246353705087
1,1,0.2208847383751722,0.2,0,310.0,671.0,0.0,629.0,1,0.30837529966337685
2,2,0.841606029237197,0.8,0,384.0,767.0,0.0,799.0,1,0.44317513993690016
3,3,-0.25245698445308284,-0.3,1,430.0,615.0,1.0,3955.0,1,0.4090910710811476
4,4,-0.5236026073482587,-0.5,1,308.0,945.0,1.0,807.0,1,0.10369180631883151
5,5,-0.46158826289795085,-0.5,1,334.0,946.0,1.0,1970.0,1,0.5026704202095311
6,6,-0.5410471873672775,-0.5,1,343.0,936.0,1.0,1541.0,1,0.25718752178322324
7,7,-0.7542827772868421,-0.8,1,379.0,826.0,1.0,415.0,1,0.9171022387351825
8,8,-0.6556788514077156,-0.7,1,473.0,976.0,1.0,391.0,1,0.41902927967777814
9,9,0.6376991393663991,0.6,0,252.0,954.0,0.0,1024.0,1,0.4163203983795678
10,10,-0.9693028517713014,-1.0,1,362.0,572.0,1.0,386.0,1,0.4260880241907493
11,11,0.9795547406631622,1.0,0,473.0,524.0,0.0,373.0,1,0.5256625036154813
12,12,0.02140637733026618,0.0,0,473.0,813.0,0.0,3714.0,1,0.18894029601462986
13,13,0.5028908809765293,0.5,0,474.0,677.0,0.0,2619.0,1,0.26003113462796723
14,14,-0.6042189660036188,-0.6,1,410.0,618.0,1.0,672.0,1,0.1865243793231598
15,15,-0.3688725471096188,-0.4,1,385.0,519.0,1.0,1476.0,1,0.22243989108093193
16,16,0.026465122748692727,0.0,0,298.0,993.0,0.0,3709.0,1,0.7565849285133913
17,17,0.9014154985037208,0.9,0,401.0,931.0,0.0,498.0,1,0.8687747852859704
18,18,-0.6832705475764462,-0.7,1,288.0,812.0,1.0,1510.0,1,0.4046277079893239
19,19,-0.7067111901880248,-0.7,1,379.0,663.0,1.0,638.0,1,0.6279031427874032
20,20,0.7425504429923673,0.7,0,298.0,530.0,0.0,882.0,1,0.19529372514882526
21,21,-0.217661791957648,-0.2,1,413.0,724.0,1.0,1173.0,1,0.8594713278944618
22,22,0.7776705548393565,0.8,0,482.0,517.0,0.0,931.0,1,0.30370240054460385
23,23,0.7431932357342492,0.7,0,339.0,888.0,0.0,483.0,1,0.8478356457130537
24,24,0.5835352914523579,0.6,0,304.0,970.0,0.0,1606.0,1,0.4679300234694991
25,25,0.06838231024760466,0.1,0,284.0,654.0,1.0,4062.0,0,0.7051523762442472
26,26,0.943832022649921,0.9,0,342.0,607.0,0.0,601.0,1,0.5296172886618453
27,27,-0.4490277907173328,-0.4,1,370.0,936.0,1.0,664.0,1,0.4059439219010642
28,28,0.29645799457392075,0.3,0,286.0,599.0,0.0,3785.0,1,0.6464057170850831
29,29,-0.06799171356191125,-0.1,1,300.0,886.0,1.0,3344.0,1,0.5268822749891418
30,30,-0.5361078860021202,-0.5,1,344.0,678.0,1.0,538.0,1,0.3531040097751964
31,31,0.14861256713937165,0.1,0,403.0,985.0,1.0,3612.0,0,0.23086248496315404
32,32,0.19940472079154747,0.2,0,487.0,856.0,0.0,2687.0,1,0.5704708557037194
33,33,-0.18647012477244074,-0.2,1,326.0,790.0,1.0,3204.0,1,0.38342021790602154
34,34,-0.354922858081939,-0.4,1,305.0,854.0,1.0,631.0,1,0.4173768699125421
35,35,-0.07765521653447971,-0.1,1,424.0,703.0,1.0,1633.0,1,0.39796547412357275
36,36,0.3780112551870789,0.4,0,369.0,836.0,0.0,2125.0,1,0.15550351123771547
37,37,-0.834793364615892,-0.8,1,342.0,686.0,1.0,392.0,1,0.7635951845286254
38,38,-0.8991319939600528,-0.9,1,377.0,771.0,1.0,732.0,1,0.6944250830195969
39,39,-0.11933502710904853,-0.1,1,455.0,843.0,1.0,1922.0,1,0.5444035404811389
40,40,0.6199801300504508,0.6,0,389.0,620.0,0.0,1311.0,1,0.11097274909335508
41,41,0.553549639365984,0.6,0,380.0,518.0,0.0,942.0,1,0.5556513635788333
42,42,0.9012044978431775,0.9,0,351.0,564.0,0.0,355.0,1,0.5524120642897947
43,43,-0.6647188156184529,-0.7,1,429.0,523.0,1.0,868.0,1,0.412566838307982
44,44,0.5472042701761364,0.5,0,432.0,522.0,0.0,1166.0,1,0.5949727283514686
45,45,-0.5347269062825559,-0.5,1,360.0,692.0,1.0,508.0,1,0.9939185469011986
46,46,0.07769639620226187,0.1,0,370.0,947.0,0.0,373.0,1,0.8393918240271164
47,47,-0.6025205850209989,-0.6,1,475.0,995.0,1.0,530.0,1,0.12648068428402226
48,48,-0.7225606046467976,-0.7,1,277.0,548.0,1.0,405.0,1,0.6759226940505247
49,49,-0.40277129442343007,-0.4,1,266.0,654.0,1.0,1600.0,1,0.6123528582534755
50,50,-0.16801140923139912,-0.2,1,328.0,943.0,1.0,1289.0,1,0.8222188216700596
51,51,-0.9100498885885471,-0.9,1,276.0,831.0,1.0,713.0,1,0.27504330356323825
52,52,0.09496003639726691,0.1,0,449.0,899.0,0.0,2032.0,1,0.7956542060277807
53,53,-0.804124618080341,-0.8,1,279.0,855.0,1.0,736.0,1,0.13293952270898476
54,54,0.09019206668916069,0.1,0,411.0,910.0,0.0,1279.0,1,0.38315414452884244
55,55,0.9874779499271504,1.0,0,456.0,814.0,0.0,320.0,1,0.5546429741288799
56,56,-0.03961602937389985,-0.0,1,427.0,760.0,0.0,923.0,0,0.31113457113244375
57,57,-0.2724311869927192,-0.3,1,307.0,831.0,1.0,2852.0,1,0.10480610276098244
58,58,-0.5413265506378162,-0.5,1,470.0,786.0,1.0,1984.0,1,0.3006028322550494
59,59,0.13419788429620438,0.1,0,410.0,756.0,0.0,3504.0,1,0.7663040244367547
60,60,0.5448843341092762,0.5,0,368.0,593.0,0.0,559.0,1,0.20281829267166235
61,61,-0.05364559278557168,-0.1,1,415.0,552.0,0.0,4033.0,0,0.2626026730596645
62,62,0.33007981020535726,0.3,0,362.0,567.0,0.0,721.0,1,0.3411663520377759
63,63,0.8195880341963413,0.8,0,428.0,712.0,0.0,1020.0,1,0.7622309613002279
64,64,0.12277436270187003,0.1,0,342.0,559.0,1.0,1769.0,0,0.6941151195558839
65,65,0.8578875489841757,0.9,0,459.0,981.0,0.0,160.0,1,0.8820935023255683
66,66,-0.8828602656286253,-0.9,1,351.0,920.0,1.0,569.0,1,0.1385194325053647
67,67,0.763357090303294,0.8,0,431.0,561.0,0.0,458.0,1,0.9983766651561334
68,68,-0.1316948793638395,-0.1,1,360.0,558.0,1.0,3622.0,1,0.2790040224789742
69,69,0.8650452520880103,0.9,0,494.0,911.0,0.0,705.0,1,0.2127311234956758
70,70,-0.030620867056269097,-0.0,1,471.0,857.0,1.0,1712.0,1,0.8457538648593191
71,71,-0.7233212013920591,-0.7,1,390.0,523.0,1.0,317.0,1,0.8043978240320436
72,72,0.6014827523663595,0.6,0,477.0,508.0,0.0,1105.0,1,0.7314415628957152
73,73,-0.24550282367359788,-0.2,1,465.0,846.0,1.0,1059.0,1,0.8571571949088105
74,74,0.11133803273918463,0.1,0,276.0,541.0,0.0,1003.0,1,0.1384146399778552
75,75,-0.45071747504550785,-0.5,1,449.0,952.0,1.0,1079.0,1,0.3524507563932495
76,76,-0.24051666103991964,-0.2,1,257.0,888.0,1.0,2435.0,1,0.5444425195789551
77,77,-0.576722194453448,-0.6,1,416.0,957.0,1.0,697.0,1,0.612538410925399
78,78,-0.4151620699160612,-0.4,1,327.0,764.0,1.0,369.0,1,0.6433033351069493
79,79,-0.5457063459371441,-0.5,1,262.0,769.0,1.0,399.0,1,0.9773716484990922
80,80,0.1094907210158318,0.1,0,459.0,703.0,1.0,868.0,0,0.38128796672461374
81,81,0.6302388414911426,0.6,0,254.0,856.0,0.0,940.0,1,0.9927229314495971
82,82,-0.8357218351705145,-0.8,1,479.0,856.0,1.0,875.0,1,0.28341974943951764
83,83,-0.6007416571435287,-0.6,1,310.0,890.0,1.0,690.0,1,0.3484248184310045
84,84,-0.9073422631643309,-0.9,1,468.0,876.0,1.0,376.0,1,0.9184689832003591
85,85,-0.5634801270577046,-0.6,1,474.0,749.0,1.0,797.0,1,0.21052410637805952
86,86,0.5953062571921892,0.6,0,328.0,622.0,0.0,230.0,1,0.8679738544084942
87,87,0.9688239436336796,1.0,0,437.0,511.0,0.0,1112.0,1,0.4093013060360071
88,88,0.1618614744905209,0.2,0,455.0,621.0,1.0,3924.0,0,0.5054849621872562
89,89,0.9472299536383249,0.9,0,383.0,588.0,0.0,619.0,1,0.7873117991758009
90,90,0.6831439968461552,0.7,0,451.0,944.0,0.0,685.0,1,0.5222788344292002
91,91,0.23679410973184956,0.2,0,360.0,536.0,0.0,2474.0,1,0.9255532851297495
92,92,0.27207394068699453,0.3,0,413.0,836.0,0.0,561.0,1,0.33058759042348695
93,93,0.3063249753964825,0.3,0,275.0,557.0,0.0,1468.0,1,0.5941310733147394
94,94,0.0641245757183404,0.1,0,307.0,646.0,0.0,3547.0,1,0.1553899252719813
95,95,0.3811946707156173,0.4,0,269.0,851.0,0.0,520.0,1,0.6342177712983865
96,96,0.40494339918717914,0.4,0,457.0,988.0,0.0,355.0,1,0.599868898967214
97,97,-0.5213345946895069,-0.5,1,408.0,932.0,1.0,490.0,1,0.7327488858254902
98,98,0.8919408201548122,0.9,0,328.0,609.0,0.0,383.0,1,0.33525512149575387
99,99,-0.8232766097319526,-0.8,1,323.0,638.0,1.0,529.0,1,0.9183661670364348
100,100,-0.07033871479356124,-0.1,1,290.0,742.0,1.0,2048.0,1,0.7875140009752912
101,101,0.2547716531015276,0.3,0,255.0,847.0,0.0,988.0,1,0.8323159931455747
102,102,0.8758422483695849,0.9,0,415.0,865.0,0.0,440.0,1,0.3964480232803582
103,103,-0.839892677502726,-0.8,1,346.0,622.0,1.0,312.0,1,0.4059241120831816
104,104,0.2743268434259132,0.3,0,305.0,916.0,0.0,929.0,1,0.8139573020698287
105,105,0.8482895382660758,0.8,0,440.0,670.0,0.0,370.0,1,0.7767397923073974
106,106,0.12877589894105546,0.1,0,290.0,876.0,1.0,3834.0,0,0.14580806801087337
107,107,0.4192184680017941,0.4,0,441.0,767.0,0.0,1312.0,1,0.21394140356856672
108,108,-0.219328812732551,-0.2,1,370.0,537.0,1.0,1513.0,1,0.3541150826195556
109,109,-0.49344534255087136,-0.5,1,409.0,952.0,1.0,729.0,1,0.5560695379308114
110,110,0.4704736246598986,0.5,0,283.0,723.0,0.0,254.0,1,0.38912164627007495
111,111,-0.2766379055805759,-0.3,1,425.0,788.0,1.0,867.0,1,0.8741787998090991
112,112,0.462613804375291,0.5,0,448.0,578.0,0.0,3794.0,1,0.4752078559850871
113,113,-0.6160154958154225,-0.6,1,440.0,617.0,1.0,553.0,1,0.7565043600938535
114,114,0.17100461060386318,0.2,0,337.0,832.0,0.0,1051.0,1,0.43195177686871156
115,115,-0.3627502320660303,-0.4,1,349.0,768.0,1.0,1303.0,1,0.1910910810386644
116,116,0.4910739900401979,0.5,0,339.0,819.0,0.0,592.0,1,0.6215707636647139
117,117,0.017765109310080573,0.0,0,422.0,870.0,1.0,3708.0,0,0.3803290785943354
118,118,-0.48027645942015207,-0.5,1,497.0,506.0,1.0,777.0,1,0.7796677173876707
119,119,-0.887056928276267,-0.9,1,402.0,714.0,1.0,394.0,1,0.45435447737074797
120,120,-0.9201936633204189,-0.9,1,409.0,867.0,1.0,564.0,1,0.8217833754125154
121,121,0.3301922160678876,0.3,0,325.0,622.0,0.0,2393.0,1,0.178641427637032
122,122,0.8480512758063834,0.8,0,380.0,805.0,0.0,275.0,1,0.6558915307259036
123,123,-0.3381868990203232,-0.3,1,494.0,698.0,1.0,2668.0,1,0.5835717273365156
124,124,0.05087251179649388,0.1,0,421.0,686.0,0.0,1093.0,1,0.9643731730995304
125,125,0.5843016943926587,0.6,0,455.0,790.0,0.0,1195.0,1,0.19036005275179946
126,126,0.795205043003298,0.8,0,447.0,581.0,0.0,942.0,1,0.3700369460384003
127,127,0.6576000809057474,0.7,0,354.0,711.0,0.0,535.0,1,0.1228798098467207
128,128,-0.16308494464610535,-0.2,1,332.0,588.0,1.0,2390.0,1,0.5612450591754032
129,129,0.4233129256005721,0.4,0,381.0,960.0,0.0,469.0,1,0.690930107826256
130,130,-0.2601067553296288,-0.3,1,373.0,968.0,1.0,2519.0,1,0.6783570120343846
131,131,0.9721122606072652,1.0,0,283.0,537.0,0.0,540.0,1,0.4988158138767671
132,132,-0.5913029965246102,-0.6,1,253.0,604.0,1.0,563.0,1,0.9235391855791598
133,133,0.11403449648327624,0.1,0,439.0,667.0,0.0,1084.0,1,0.407412513079505
134,134,-0.7723546280970337,-0.8,1,379.0,697.0,1.0,624.0,1,0.6303165322377514
135,135,0.24328011258653515,0.2,0,302.0,840.0,0.0,748.0,1,0.7358085667251527
136,136,0.07227709150177342,0.1,0,415.0,655.0,1.0,3440.0,0,0.28568761153342925
137,137,-0.5294865678222398,-0.5,1,338.0,854.0,1.0,3218.0,1,0.10739425624322822
138,138,0.5024293640382054,0.5,0,310.0,775.0,0.0,2015.0,1,0.1292056946057376
139,139,-0.8372857609035174,-0.8,1,358.0,935.0,1.0,557.0,1,0.7120536590666896
140,140,-0.7520598965530056,-0.8,1,314.0,870.0,1.0,896.0,1,0.5232981313143442
141,141,0.9433770176468996,0.9,0,288.0,695.0,0.0,877.0,1,0.8987885052286058
142,142,0.1944491179853467,0.2,0,383.0,694.0,0.0,1963.0,1,0.4765605917851953
143,143,0.24816134043136606,0.2,0,368.0,774.0,0.0,2158.0,1,0.14321618009678114
144,144,-0.9091978283839859,-0.9,1,347.0,823.0,1.0,300.0,1,0.6992880293850043
145,145,0.45632316683129903,0.5,0,285.0,821.0,0.0,744.0,1,0.408916398529769
146,146,0.310451650431685,0.3,0,361.0,725.0,0.0,854.0,1,0.25107278575592024
147,147,0.4871662798537775,0.5,0,350.0,636.0,0.0,884.0,1,0.5738588131489979
148,148,0.35529507320973863,0.4,0,420.0,932.0,0.0,1708.0,1,0.3508814277517759
149,149,-0.14078113627547695,-0.1,1,461.0,722.0,1.0,1187.0,1,0.8103054358511969
150,150,0.5783092016340177,0.6,0,339.0,737.0,0.0,934.0,1,0.3000362205639184
151,151,0.3370061455806961,0.3,0,253.0,770.0,0.0,1037.0,1,0.5804535729571135
152,152,0.18187427087237507,0.2,0,494.0,786.0,0.0,380.0,1,0.5355548134662272
153,153,0.13100267783682384,0.1,0,309.0,696.0,0.0,3995.0,1,0.39898050281018027
154,154,0.6040450108630202,0.6,0,409.0,879.0,0.0,942.0,1,0.7352879385492402
155,155,-0.6317852381716098,-0.6,1,407.0,584.0,1.0,529.0,1,0.9804962909618067
156,156,0.7310217409835831,0.7,0,452.0,797.0,0.0,211.0,1,0.9409235672063013
157,157,-0.4967935297442154,-0.5,1,269.0,609.0,1.0,822.0,1,0.27165721965700274
158,158,0.21004667861882975,0.2,0,498.0,725.0,0.0,887.0,1,0.9546961859260028
159,159,0.874733254728709,0.9,0,398.0,738.0,0.0,484.0,1,0.14054545076863376
160,160,-0.21364848713318696,-0.2,1,383.0,824.0,1.0,1223.0,1,0.48145842810946327
161,161,0.4346073091365832,0.4,0,496.0,937.0,0.0,857.0,1,0.1432316085420467
162,162,0.9581218619121112,1.0,0,388.0,675.0,0.0,527.0,1,0.42657631777404004
163,163,-0.1945666609082859,-0.2,1,456.0,792.0,1.0,1622.0,1,0.7192869566949525
164,164,0.8665838390114629,0.9,0,295.0,773.0,0.0,442.0,1,0.4071319431241217
165,165,-0.32186693986576875,-0.3,1,340.0,583.0,1.0,1147.0,1,0.8137896082806154
166,166,0.5252178476708447,0.5,0,356.0,931.0,0.0,773.0,1,0.5572466082071885
167,167,0.4971069385344684,0.5,0,293.0,516.0,0.0,1321.0,1,0.1474944860633063
168,168,-0.15700382932173418,-0.2,1,404.0,624.0,1.0,3972.0,1,0.19839062273215713
169,169,-0.7158409162649786,-0.7,1,250.0,950.0,1.0,840.0,1,0.13839706760398357
170,170,-0.5898190629018589,-0.6,1,357.0,848.0,1.0,1765.0,1,0.3442845360141596
171,171,-0.868176779063575,-0.9,1,430.0,806.0,1.0,444.0,1,0.11944910615966778
172,172,-0.4200036474953599,-0.4,1,410.0,802.0,1.0,618.0,1,0.777243107974611
173,173,-0.4662388436161271,-0.5,1,367.0,610.0,1.0,273.0,1,0.7680737564634741
174,174,-0.015504723310357349,-0.0,1,486.0,776.0,0.0,678.0,0,0.9820100958831092
175,175,-0.09881073924838213,-0.1,1,358.0,534.0,1.0,3828.0,1,0.6786917085471387
176,176,0.5218507522583478,0.5,0,411.0,600.0,0.0,539.0,1,0.6704097191469377
177,177,-0.5394432865415908,-0.5,1,447.0,571.0,1.0,992.0,1,0.8449169684673329
178,178,0.5037131311335623,0.5,0,419.0,974.0,0.0,1837.0,1,0.1952626280332122
179,179,-0.23604340041299277,-0.2,1,354.0,610.0,1.0,1166.0,1,0.12094303329465815
180,180,-0.6575784260191506,-0.7,1,368.0,635.0,1.0,1057.0,1,0.6117252577139292
181,181,-0.8931733903118924,-0.9,1,258.0,523.0,1.0,409.0,1,0.6796591979306832
182,182,0.8734597192040294,0.9,0,384.0,851.0,0.0,545.0,1,0.30856674282525454
183,183,-0.8147598840098422,-0.8,1,317.0,643.0,1.0,480.0,1,0.6301367799396883
184,184,0.09447002305301666,0.1,0,460.0,742.0,0.0,3798.0,1,0.1549370085345143
185,185,-0.6911901367431921,-0.7,1,427.0,910.0,1.0,393.0,1,0.2721088411584714
186,186,0.6127203906768743,0.6,0,310.0,631.0,0.0,1799.0,1,0.18481942681905422
187,187,-0.38597257202559,-0.4,1,350.0,830.0,1.0,730.0,1,0.47099076573702603
188,188,-0.3209799977519536,-0.3,1,488.0,928.0,1.0,1024.0,1,0.6493281781940139
189,189,0.04922613621902694,0.0,0,455.0,804.0,0.0,1741.0,1,0.895399042824118
190,190,-0.44478957632671934,-0.4,1,301.0,649.0,1.0,740.0,1,0.5321556705358371
191,191,0.3184926158717749,0.3,0,347.0,931.0,0.0,2362.0,1,0.9608035800719209
192,192,-0.41115495591004625,-0.4,1,326.0,750.0,1.0,224.0,1,0.6176081541759006
193,193,0.0340795268342986,0.0,0,363.0,967.0,1.0,3670.0,0,0.409939513543373
194,194,-0.08072112098544149,-0.1,1,372.0,629.0,1.0,429.0,1,0.4398051430789006
195,195,0.8435328047580102,0.8,0,367.0,614.0,0.0,739.0,1,0.4294361144876001
196,196,0.945373274962604,0.9,0,390.0,978.0,0.0,352.0,1,0.9636442798010676
197,197,0.43120635432135446,0.4,0,485.0,907.0,0.0,788.0,1,0.13444275078022871
198,198,0.9764370039708652,1.0,0,268.0,869.0,0.0,623.0,1,0.8790865128971356
199,199,-0.6721668761255915,-0.7,1,265.0,988.0,1.0,387.0,1,0.44934351623353064
200,200,-0.5804441332577823,-0.6,1,449.0,763.0,1.0,2138.0,1,0.29382243187813173
201,201,-0.026646266547279973,-0.0,1,449.0,770.0,0.0,3781.0,0,0.8061583216716581
202,202,-0.5355697872991481,-0.5,1,372.0,711.0,1.0,457.0,1,0.5973235896908541
203,203,0.4344880535679103,0.4,0,495.0,719.0,0.0,996.0,1,0.5703921432951109
204,204,0.9703421318399559,1.0,0,334.0,934.0,0.0,632.0,1,0.2994826283559006
205,205,-0.4170355849654981,-0.4,1,450.0,911.0,1.0,479.0,1,0.42267505421123386
206,206,-0.08318547959655342,-0.1,1,471.0,777.0,1.0,3752.0,1,0.4922268652428087
207,207,0.004495940666825904,0.0,0,494.0,575.0,0.0,3931.0,1,0.9729304246829936
208,208,0.29572041400704374,0.3,0,434.0,940.0,0.0,1476.0,1,0.58156395498284
209,209,0.28109817708128393,0.3,0,425.0,925.0,0.0,870.0,1,0.9454592837047131
210,210,0.08946978650784954,0.1,0,300.0,822.0,0.0,618.0,1,0.19345994257576232
211,211,-0.3006119654711046,-0.3,1,396.0,572.0,1.0,402.0,1,0.11627780907420246
212,212,-0.033310383748365924,-0.0,1,298.0,792.0,1.0,2050.0,1,0.1965993927752026
213,213,-0.49856129282273565,-0.5,1,310.0,643.0,1.0,957.0,1,0.6616788554751908
214,214,-0.6581277929876228,-0.7,1,378.0,723.0,1.0,799.0,1,0.300921236731704
215,215,0.35335870154631777,0.4,0,479.0,904.0,0.0,1077.0,1,0.5864613942738659
216,216,0.030453782298025978,0.0,0,446.0,561.0,0.0,633.0,1,0.8973883457518756
217,217,0.9447587691205372,0.9,0,396.0,829.0,0.0,795.0,1,0.3752257805844954
218,218,-0.8926816590334292,-0.9,1,427.0,951.0,1.0,682.0,1,0.6005597472280703
219,219,-0.7481670980051782,-0.7,1,302.0,623.0,1.0,545.0,1,0.72576614611387
220,220,-0.6102021035922003,-0.6,1,415.0,500.0,1.0,1575.0,1,0.24654333158786448
221,221,0.2801686011647897,0.3,0,439.0,652.0,0.0,2169.0,1,0.30092661333576903
222,222,0.5623628673438792,0.6,0,356.0,813.0,0.0,771.0,1,0.7189396475556051
223,223,0.2394698364817327,0.2,0,341.0,586.0,1.0,713.0,0,0.6699074293124119
224,224,0.9895935680920924,1.0,0,463.0,850.0,0.0,827.0,1,0.6843229273020353
225,225,-0.24012942759820222,-0.2,1,488.0,639.0,1.0,2373.0,1,0.24822305721051147
226,226,0.15040287203129088,0.2,0,454.0,549.0,0.0,1967.0,1,0.73434456872377
227,227,-0.3886259908365324,-0.4,1,344.0,993.0,1.0,2603.0,1,0.20467486945089858
228,228,0.9841805359305116,1.0,0,345.0,957.0,0.0,478.0,1,0.30555603171435375
229,229,-0.1917768625957481,-0.2,1,330.0,710.0,1.0,1300.0,1,0.16752493317863099
230,230,0.5123175722393083,0.5,0,474.0,779.0,0.0,1167.0,1,0.7890992444682309
231,231,-0.9366237190007778,-0.9,1,468.0,507.0,1.0,225.0,1,0.3798947879846605
232,232,-0.8173729014304345,-0.8,1,456.0,612.0,1.0,542.0,1,0.5866738003144828
233,233,0.43836348252139135,0.4,0,256.0,947.0,0.0,1117.0,1,0.8813809186381593
234,234,0.17962952425472034,0.2,0,346.0,580.0,0.0,3284.0,1,0.7251056717375822
235,235,0.7138886167822622,0.7,0,323.0,961.0,0.0,226.0,1,0.8862028658830913
236,236,0.5364824854285655,0.5,0,312.0,717.0,0.0,781.0,1,0.10645938596963121
237,237,0.7274437841857528,0.7,0,343.0,511.0,0.0,356.0,1,0.8246226453360077
238,238,-0.9335046767742723,-0.9,1,296.0,907.0,1.0,437.0,1,0.3020997008726568
239,239,-0.12877862017088337,-0.1,1,495.0,821.0,1.0,2294.0,1,0.4065255535060568
240,240,0.021679510470440144,0.0,0,280.0,722.0,1.0,3998.0,0,0.34276448139734567
241,241,0.5876217476391887,0.6,0,305.0,539.0,0.0,596.0,1,0.1699156885196332
242,242,-0.44655999142489433,-0.4,1,290.0,532.0,1.0,878.0,1,0.6998860565113445
243,243,-0.7051897651632655,-0.7,1,300.0,594.0,1.0,1946.0,1,0.17888519035904973
244,244,-0.6319753907950016,-0.6,1,376.0,578.0,1.0,1176.0,1,0.40656187711856784
245,245,-0.06331544661663457,-0.1,1,268.0,560.0,1.0,4172.0,1,0.11107581241289698
246,246,0.023931923570472025,0.0,0,321.0,981.0,1.0,3188.0,0,0.11547756374524507
247,247,-0.44063229727508646,-0.4,1,347.0,929.0,1.0,524.0,1,0.27488800009959047
248,248,-0.6906141465507458,-0.7,1,383.0,910.0,1.0,1017.0,1,0.16858360727313326
249,249,0.04114785886000649,0.0,0,297.0,879.0,0.0,2884.0,1,0.9468859493641574
250,250,0.17006248990891693,0.2,0,395.0,897.0,0.0,2648.0,1,0.29634101899895193
251,251,0.7320537041690451,0.7,0,491.0,921.0,0.0,668.0,1,0.3641015571446229
252,252,0.1147894595041472,0.1,0,429.0,739.0,1.0,3832.0,0,0.3968200417284573
253,253,-0.8085310588609276,-0.8,1,361.0,930.0,1.0,759.0,1,0.867828826960297
254,254,0.5158982220369872,0.5,0,341.0,612.0,0.0,587.0,1,0.45385437180750643
255,255,0.6139708227369503,0.6,0,421.0,775.0,0.0,624.0,1,0.4675414214342717
256,256,-0.5517928676040289,-0.6,1,296.0,550.0,1.0,604.0,1,0.8978543996998272
257,257,0.0035548079950784572,0.0,0,280.0,656.0,1.0,4064.0,0,0.6591174135443906
258,258,-0.5388674834753842,-0.5,1,439.0,805.0,1.0,336.0,1,0.4547411174976709
259,259,0.07020213876113135,0.1,0,498.0,646.0,1.0,1596.0,0,0.9278262885121491
260,260,0.3167010073916159,0.3,0,392.0,812.0,0.0,586.0,1,0.16554587530074572
261,261,0.6565282307788256,0.7,0,320.0,588.0,0.0,1092.0,1,0.36793806791100425
262,262,0.8804480734831726,0.9,0,293.0,692.0,0.0,605.0,1,0.20789085793409073
263,263,0.4416106275439493,0.4,0,280.0,983.0,0.0,1837.0,1,0.14888997633305556
264,264,0.809562364555404,0.8,0,424.0,962.0,0.0,664.0,1,0.8445556355637089
265,265,0.562859659190933,0.6,0,491.0,944.0,0.0,485.0,1,0.5353824272543322
266,266,0.2845932936399991,0.3,0,280.0,744.0,0.0,3456.0,1,0.3608745338837447
267,267,-0.12517059230583683,-0.1,1,276.0,972.0,1.0,1622.0,1,0.11833528302548396
268,268,-0.6040625446765002,-0.6,1,351.0,565.0,1.0,874.0,1,0.6767297667727865
269,269,0.2033038102981093,0.2,0,348.0,500.0,0.0,3022.0,1,0.20334241176198575
270,270,-0.2814557882698492,-0.3,1,452.0,968.0,1.0,910.0,1,0.6776260263186127
271,271,-0.5501148913838769,-0.6,1,273.0,728.0,1.0,1879.0,1,0.31768817090674134
272,272,-0.24139808231430382,-0.2,1,386.0,863.0,1.0,3751.0,1,0.5493863283820656
273,273,0.7835139867705545,0.8,0,456.0,942.0,0.0,1302.0,1,0.3822806995069087
274,274,0.6347629978632565,0.6,0,429.0,573.0,0.0,888.0,1,0.9970585862895106
275,275,0.6638540267791455,0.7,0,361.0,790.0,0.0,879.0,1,0.1963161575691914
276,276,0.49352515814946774,0.5,0,339.0,549.0,0.0,2142.0,1,0.6850626990120018
277,277,-0.8266737938397117,-0.8,1,265.0,967.0,1.0,538.0,1,0.4553825729270634
278,278,-0.2785197305433178,-0.3,1,344.0,642.0,0.0,464.0,0,0.9335397158112323
279,279,-0.6511668754919702,-0.7,1,467.0,843.0,1.0,720.0,1,0.26399336539291285
280,280,-0.06334587165699768,-0.1,1,328.0,995.0,1.0,3677.0,1,0.39982536347121056
281,281,0.3812590846767814,0.4,0,462.0,940.0,0.0,548.0,1,0.6260507934054051
282,282,0.6610662258803683,0.7,0,475.0,656.0,0.0,499.0,1,0.31224537815028686
283,283,-0.047458517365668085,-0.0,1,277.0,595.0,1.0,1678.0,1,0.5804995115151484
284,284,-0.8113993177529,-0.8,1,383.0,913.0,1.0,314.0,1,0.28180909958413486
285,285,-0.8988334594361871,-0.9,1,357.0,972.0,1.0,731.0,1,0.38772275320537597
286,286,0.2176618427887862,0.2,0,283.0,906.0,0.0,2911.0,1,0.4587854370261354
287,287,0.0836659957600332,0.1,0,423.0,678.0,0.0,1839.0,1,0.35603148997564604
288,288,-0.04741090137127246,-0.0,1,287.0,992.0,1.0,841.0,1,0.29995632004085204
289,289,-0.3567496931380796,-0.4,1,465.0,963.0,1.0,1122.0,1,0.7885829594214259
290,290,-0.3784830518089739,-0.4,1,368.0,780.0,1.0,1452.0,1,0.6058957223861305
291,291,-0.05745179468926409,-0.1,1,444.0,888.0,1.0,3668.0,1,0.16046118654289326
292,292,-0.5116321476096615,-0.5,1,475.0,897.0,1.0,498.0,1,0.7299404570160578
293,293,0.1034936700550908,0.1,0,418.0,701.0,0.0,1461.0,1,0.8476557757247138
294,294,-0.9181458470837955,-0.9,1,497.0,673.0,1.0,450.0,1,0.9861120217804975
295,295,0.09684097132580693,0.1,0,347.0,966.0,0.0,1987.0,1,0.7564146878379805
296,296,0.2830552973027214,0.3,0,478.0,582.0,0.0,680.0,1,0.9223203969496863
297,297,0.9881640260334119,1.0,0,368.0,550.0,0.0,872.0,1,0.590939543807264
298,298,-0.667714629726716,-0.7,1,342.0,868.0,1.0,1290.0,1,0.4308383378773617
299,299,-0.8170197510059689,-0.8,1,450.0,713.0,1.0,167.0,1,0.4295578489416845
300,300,0.07326088652457075,0.1,0,395.0,981.0,0.0,2694.0,1,0.7734368385122616
301,301,0.9276221191239695,0.9,0,292.0,861.0,0.0,747.0,1,0.16035514479286583
302,302,-0.23547683893256988,-0.2,1,457.0,830.0,1.0,1323.0,1,0.5290710684256427
303,303,-0.31554191749148885,-0.3,1,308.0,554.0,1.0,878.0,1,0.9298680704205834
304,304,0.23941424026820002,0.2,0,304.0,526.0,0.0,4170.0,1,0.15055737787802045
305,305,0.4749440026976137,0.5,0,286.0,632.0,0.0,552.0,1,0.14235078649870975
306,306,0.6367739618785382,0.6,0,289.0,921.0,0.0,980.0,1,0.276571366828185
307,307,-0.8367009156144427,-0.8,1,316.0,894.0,1.0,2050.0,1,0.10788123885488965
308,308,0.08155909974414755,0.1,0,279.0,772.0,1.0,3949.0,0,0.4104045110234832
309,309,0.7636606904373033,0.8,0,307.0,534.0,0.0,599.0,1,0.24778209223405884
310,310,0.4193285817117842,0.4,0,355.0,972.0,0.0,2033.0,1,0.34676170934479456
311,311,0.48526957010970984,0.5,0,314.0,802.0,0.0,2004.0,1,0.30934450169579264
312,312,-0.5703891777678474,-0.6,1,448.0,516.0,1.0,466.0,1,0.6582472672973022
313,313,0.45042204517334916,0.5,0,274.0,807.0,0.0,2299.0,1,0.5459708439050832
314,314,-0.8337877427636111,-0.8,1,429.0,688.0,1.0,283.0,1,0.8654500139347329
315,315,0.7419981245118652,0.7,0,349.0,530.0,0.0,501.0,1,0.13725299763915913
316,316,-0.8401777195716118,-0.8,1,445.0,739.0,1.0,806.0,1,0.5291703204652548
317,317,-0.3405261104632,-0.3,1,474.0,967.0,1.0,1359.0,1,0.5804105573631333
318,318,-0.09572271065956395,-0.1,1,494.0,526.0,1.0,3030.0,1,0.8602496056455154
319,319,-0.8970631103237998,-0.9,1,404.0,905.0,1.0,431.0,1,0.5248990404594334
320,320,-0.422581170487605,-0.4,1,252.0,999.0,1.0,1129.0,1,0.5963717131860344
321,321,-0.34835606759592275,-0.3,1,443.0,624.0,1.0,3783.0,1,0.3354145882826581
322,322,-0.12630576148695694,-0.1,1,338.0,684.0,1.0,3978.0,1,0.1526731942385779
323,323,-0.5341657785873701,-0.5,1,264.0,507.0,1.0,889.0,1,0.6666712340653324
324,324,-0.10423206496805304,-0.1,1,366.0,618.0,1.0,706.0,1,0.5178564528600277
325,325,0.3832444047234558,0.4,0,453.0,677.0,0.0,1140.0,1,0.6779700370647459
326,326,0.43039784160869043,0.4,0,399.0,552.0,0.0,889.0,1,0.8424552139934702
327,327,0.7455746067780311,0.7,0,393.0,947.0,0.0,340.0,1,0.7343459803638882
328,328,0.6242166668880977,0.6,0,404.0,684.0,0.0,382.0,1,0.6229267860610099
329,329,0.3717867101009906,0.4,0,333.0,717.0,0.0,1360.0,1,0.7002451842324827
330,330,-0.34644629800064575,-0.3,1,351.0,517.0,1.0,1832.0,1,0.41006776465043904
331,331,-0.10402244241007508,-0.1,1,286.0,739.0,1.0,3975.0,1,0.21296799180093273
332,332,-0.11911714238500282,-0.1,1,411.0,769.0,1.0,610.0,1,0.8688746525516499
333,333,-0.22899069511740855,-0.2,1,255.0,601.0,1.0,504.0,1,0.5672593681901248
334,334,0.3688676818934731,0.4,0,445.0,964.0,0.0,2811.0,1,0.4923488077491113
335,335,0.5374967983722267,0.5,0,463.0,562.0,0.0,1245.0,1,0.5257346673329718
336,336,0.8096827146898196,0.8,0,300.0,847.0,0.0,513.0,1,0.7237392464863238
337,337,0.5352253748467195,0.5,0,313.0,850.0,0.0,497.0,1,0.8793255616794564
338,338,0.7162682282451547,0.7,0,453.0,921.0,0.0,376.0,1,0.9473140626933191
339,339,0.3148045249569198,0.3,0,496.0,876.0,0.0,2068.0,1,0.5238815524858706
340,340,-0.8517878168169573,-0.9,1,307.0,561.0,1.0,692.0,1,0.37112209337166235
341,341,-0.8320381563141299,-0.8,1,339.0,978.0,1.0,1083.0,1,0.2115835351748919
342,342,0.3184606627083282,0.3,0,376.0,727.0,0.0,517.0,1,0.612786655626482
343,343,-0.9317985874671775,-0.9,1,420.0,600.0,1.0,920.0,1,0.7237457895193878
344,344,-0.35933840613388623,-0.4,1,327.0,914.0,1.0,2109.0,1,0.23857516727122136
345,345,-0.5577530648359663,-0.6,1,383.0,760.0,1.0,587.0,1,0.8343709300017591
346,346,-0.800131279652254,-0.8,1,266.0,999.0,1.0,455.0,1,0.24502195957969303
347,347,-0.3183964801793244,-0.3,1,458.0,963.0,1.0,789.0,1,0.41490890595795915
348,348,0.15229970655304514,0.2,0,345.0,901.0,0.0,3754.0,1,0.30291457020563595
349,349,-0.3655825634176697,-0.4,1,286.0,781.0,1.0,503.0,1,0.656787730908845
350,350,-0.6233946007888092,-0.6,1,305.0,586.0,1.0,909.0,1,0.10178530419029216
351,351,-0.09725424446735165,-0.1,1,445.0,634.0,1.0,1031.0,1,0.7710373136379771
352,352,0.7197445270417266,0.7,0,400.0,503.0,0.0,1177.0,1,0.17799712400333118
353,353,0.918255989272887,0.9,0,437.0,994.0,0.0,819.0,1,0.362450514532175
354,354,0.9931825293191243,1.0,0,279.0,912.0,0.0,349.0,1,0.5002890725301449
355,355,-0.8227539771731747,-0.8,1,263.0,733.0,1.0,784.0,1,0.9553819276333787
356,356,-0.37114651200648474,-0.4,1,448.0,964.0,1.0,408.0,1,0.16927913302177544
357,357,0.6393234846550331,0.6,0,435.0,578.0,0.0,647.0,1,0.509875064015106
358,358,0.05251396225768423,0.1,0,426.0,720.0,0.0,3194.0,1,0.7254355517904996
359,359,0.34079944076648094,0.3,0,274.0,855.0,0.0,3031.0,1,0.41147545304132205
360,360,0.052272630606114756,0.1,0,285.0,625.0,0.0,980.0,1,0.7565849106546335
361,361,0.42644175477787405,0.4,0,333.0,526.0,0.0,1881.0,1,0.7760226491649362
362,362,-0.8453765707479648,-0.8,1,449.0,503.0,1.0,458.0,1,0.9693061848808536
363,363,-0.14968294861530596,-0.1,1,363.0,674.0,1.0,733.0,1,0.7797899279479241
364,364,-0.9869349572976642,-1.0,1,418.0,618.0,1.0,754.0,1,0.5722786467527321
365,365,0.25078291339988,0.3,0,440.0,634.0,0.0,526.0,1,0.43035688394239513
366,366,0.2685236322195661,0.3,0,258.0,804.0,0.0,2928.0,1,0.49541171343474655
367,367,-0.07848696361900398,-0.1,1,481.0,533.0,1.0,3986.0,1,0.5702785123596624
368,368,-0.4440331647942961,-0.4,1,417.0,758.0,1.0,1055.0,1,0.4258355603221653
369,369,0.940588208675466,0.9,0,299.0,937.0,0.0,794.0,1,0.3201437181346518
370,370,0.7854603992934444,0.8,0,465.0,829.0,0.0,626.0,1,0.29378676898144557
371,371,0.6654847846004328,0.7,0,288.0,687.0,0.0,1095.0,1,0.2893953612851219
372,372,0.606970025345517,0.6,0,494.0,638.0,0.0,648.0,1,0.24337138672707548
373,373,0.4063206566859112,0.4,0,471.0,814.0,0.0,3335.0,1,0.26328985093302965
374,374,0.1247979954037457,0.1,0,400.0,967.0,0.0,293.0,1,0.7053849542968703
375,375,0.4796178500489958,0.5,0,486.0,807.0,0.0,577.0,1,0.10727477078880848
376,376,-0.5122630688508556,-0.5,1,332.0,752.0,1.0,936.0,1,0.45873214102155446
377,377,0.42237525125727915,0.4,0,319.0,959.0,0.0,682.0,1,0.9174029573812528
378,378,-0.5406142248306931,-0.5,1,281.0,987.0,1.0,762.0,1,0.28498865555652675
379,379,0.613809701398984,0.6,0,420.0,837.0,0.0,713.0,1,0.5361873300292659
380,380,-0.21636509717194952,-0.2,1,446.0,732.0,1.0,2972.0,1,0.6266555257695641
381,381,0.30036439961910544,0.3,0,321.0,799.0,0.0,1040.0,1,0.22174751906455287
382,382,0.4467759851949009,0.4,0,357.0,980.0,0.0,703.0,1,0.31820716097243973
383,383,0.8699933242639315,0.9,0,315.0,676.0,0.0,719.0,1,0.4154791011840865
384,384,0.983975970590149,1.0,0,322.0,940.0,0.0,858.0,1,0.10841569980412002
385,385,-0.268052203805458,-0.3,1,409.0,584.0,1.0,707.0,1,0.3033693542882414
386,386,-0.07665620446369159,-0.1,1,415.0,929.0,1.0,766.0,1,0.5155823502169474
387,387,-0.31235661588748465,-0.3,1,481.0,573.0,1.0,1546.0,1,0.33559260909992217
388,388,0.1955670910444538,0.2,0,462.0,805.0,0.0,1193.0,1,0.7806191660418218
389,389,-0.23741898286803176,-0.2,1,407.0,978.0,1.0,985.0,1,0.28956619516635546
390,390,0.9734554068104295,1.0,0,441.0,574.0,0.0,305.0,1,0.3043394550635275
391,391,0.19715154045630445,0.2,0,417.0,716.0,0.0,3867.0,1,0.49986730060263396
392,392,-0.05313154035401779,-0.1,1,295.0,881.0,1.0,3824.0,1,0.6713472755509957
393,393,0.063525211468902,0.1,0,422.0,514.0,0.0,4064.0,1,0.2860288936580245
394,394,0.1330434283100863,0.1,0,474.0,928.0,0.0,838.0,1,0.9999997020381319
395,395,0.13087882000404316,0.1,0,472.0,793.0,1.0,3735.0,0,0.3783959457853989
396,396,-0.40158240683561996,-0.4,1,463.0,774.0,1.0,993.0,1,0.5060750156654946
397,397,0.48091926279022434,0.5,0,275.0,603.0,0.0,672.0,1,0.6980912298822851
398,398,0.4083773606248642,0.4,0,410.0,714.0,0.0,616.0,1,0.50615970989847
399,399,-0.7838523577296326,-0.8,1,355.0,704.0,1.0,311.0,1,0.508715551176094
400,400,0.11891217620817929,0.1,0,463.0,554.0,0.0,3983.0,1,0.2720624759165106
401,401,-0.039567457306195264,-0.0,1,479.0,964.0,0.0,2757.0,0,0.5006215258907691
402,402,-0.21674525311590043,-0.2,1,368.0,778.0,1.0,1984.0,1,0.26769157424772155
403,403,-0.3067773461180969,-0.3,1,435.0,925.0,1.0,2070.0,1,0.23881396217382475
404,404,0.2579815535096084,0.3,0,315.0,581.0,0.0,2434.0,1,0.3337012907540302
405,405,-0.7762898030171503,-0.8,1,452.0,714.0,1.0,1074.0,1,0.7794826196442931
406,406,-0.6628436928165942,-0.7,1,282.0,615.0,1.0,713.0,1,0.6063279554019665
407,407,-0.7572148866341168,-0.8,1,454.0,661.0,1.0,345.0,1,0.6575209678395949
408,408,0.17569905634013727,0.2,0,375.0,903.0,0.0,1362.0,1,0.5140776967781873
409,409,-0.6730936173791482,-0.7,1,271.0,881.0,1.0,528.0,1,0.1685785506956789
410,410,-0.3488450319773255,-0.3,1,431.0,796.0,1.0,1743.0,1,0.5905853535331016
411,411,0.2470331766171281,0.2,0,481.0,646.0,0.0,3643.0,1,0.3578928784023552
412,412,-0.2946060563866011,-0.3,1,347.0,941.0,1.0,3712.0,1,0.7319206724067828
413,413,-0.7803335685703128,-0.8,1,416.0,718.0,1.0,366.0,1,0.4436230877175311
414,414,0.00406647992803677,0.0,0,386.0,809.0,0.0,2115.0,1,0.3548455737438856
415,415,0.8735753383480145,0.9,0,448.0,892.0,0.0,330.0,1,0.9934299865960164
416,416,0.4178121762668565,0.4,0,348.0,892.0,0.0,3300.0,1,0.11621497474479409
417,417,-0.7675079937256315,-0.8,1,422.0,770.0,1.0,608.0,1,0.6043695322078727
418,418,0.7130956727491085,0.7,0,286.0,624.0,0.0,740.0,1,0.8421257830623248
419,419,0.35545678820891147,0.4,0,498.0,615.0,0.0,1517.0,1,0.7928506018138015
420,420,-0.9789543840095485,-1.0,1,320.0,639.0,1.0,911.0,1,0.7982734114801284
421,421,-0.6044581540583716,-0.6,1,370.0,808.0,1.0,1342.0,1,0.3608107521044134
422,422,-0.1935773494252968,-0.2,1,487.0,869.0,1.0,434.0,1,0.8362961272203223
423,423,0.49531064310659634,0.5,0,331.0,728.0,0.0,1351.0,1,0.9788232240475034
424,424,0.6413719155746067,0.6,0,359.0,815.0,0.0,616.0,1,0.9907587820763942
425,425,0.1713385513293988,0.2,0,323.0,925.0,0.0,2252.0,1,0.7247831091220385
426,426,0.47421773578697723,0.5,0,281.0,858.0,0.0,611.0,1,0.5206613529773219
427,427,-0.6992791904373938,-0.7,1,358.0,836.0,1.0,906.0,1,0.8156379948269641
428,428,-0.46782100684112327,-0.5,1,464.0,534.0,1.0,532.0,1,0.919899886473442
429,429,-0.7863482797574413,-0.8,1,397.0,770.0,1.0,733.0,1,0.8963796853420934
430,430,-0.7102286332982137,-0.7,1,321.0,750.0,1.0,809.0,1,0.9496244689998172
431,431,0.8114280209179865,0.8,0,348.0,587.0,0.0,345.0,1,0.606472995312877
432,432,0.4614388105236924,0.5,0,354.0,583.0,0.0,833.0,1,0.23185046784194857
433,433,-0.346015047944634,-0.3,1,473.0,703.0,1.0,524.0,1,0.9823749299364449
434,434,-0.6279186078529557,-0.6,1,352.0,531.0,1.0,497.0,1,0.7288741507823056
435,435,0.6969351699795472,0.7,0,360.0,624.0,0.0,1456.0,1,0.8255160841966346
436,436,0.7944768211914515,0.8,0,306.0,752.0,0.0,742.0,1,0.7014776426559822
437,437,0.890887131692377,0.9,0,333.0,788.0,0.0,599.0,1,0.7922872684251863
438,438,0.25264868387154227,0.3,0,438.0,728.0,0.0,3834.0,1,0.3437538121378816
439,439,-0.8519193187899416,-0.9,1,335.0,883.0,1.0,492.0,1,0.5075224716920889
440,440,-0.5756323163207313,-0.6,1,485.0,750.0,1.0,745.0,1,0.5684643268556331
441,441,0.08391551588076651,0.1,0,367.0,984.0,1.0,3649.0,0,0.5198702917061188
442,442,-0.729915169678605,-0.7,1,289.0,635.0,1.0,846.0,1,0.9866074130106331
443,443,-0.7373595136797391,-0.7,1,426.0,919.0,1.0,885.0,1,0.6154799657454929
444,444,0.41592429760166705,0.4,0,468.0,674.0,0.0,628.0,1,0.39657664317176433
445,445,-0.5664168236382097,-0.6,1,437.0,660.0,1.0,613.0,1,0.960818428780891
446,446,-0.060387394259725946,-0.1,1,280.0,504.0,0.0,1116.0,0,0.3811275016974228
447,447,-0.03463128654938674,-0.0,1,330.0,580.0,1.0,530.0,1,0.525285683361733
448,448,-0.3644914686407845,-0.4,1,261.0,708.0,1.0,651.0,1,0.7106444303892188
449,449,0.1721615159210388,0.2,0,258.0,594.0,0.0,1548.0,1,0.41205180206076775
450,450,0.17003959184242468,0.2,0,354.0,663.0,0.0,1933.0,1,0.5219626459264927
451,451,0.523282679522407,0.5,0,280.0,883.0,0.0,1047.0,1,0.5829846313680757
452,452,0.25404906338998434,0.3,0,311.0,742.0,1.0,3947.0,0,0.11188015604359014
453,453,0.49407760040744253,0.5,0,491.0,606.0,0.0,903.0,1,0.8106837571374762
454,454,0.8077498866402775,0.8,0,478.0,742.0,0.0,860.0,1,0.22910788930713152
455,455,0.9678986876393785,1.0,0,320.0,580.0,0.0,950.0,1,0.4506639891218325
456,456,-0.737549381462385,-0.7,1,481.0,709.0,1.0,1030.0,1,0.3478028470934651
457,457,-0.14557145985119613,-0.1,1,372.0,534.0,1.0,1524.0,1,0.4340276104387405
458,458,0.21954531701995839,0.2,0,284.0,848.0,0.0,2218.0,1,0.129966473624761
459,459,0.2140641081377357,0.2,0,254.0,804.0,0.0,1592.0,1,0.5750061676044733
460,460,0.3156681208181511,0.3,0,496.0,668.0,0.0,1096.0,1,0.8213856712300261
461,461,0.915088244228754,0.9,0,399.0,949.0,0.0,262.0,1,0.653070950976591
462,462,-0.07286633161435208,-0.1,1,366.0,936.0,1.0,1168.0,1,0.10611670412996943
463,463,0.552194819436659,0.6,0,412.0,864.0,0.0,634.0,1,0.7467489472337002
464,464,0.6777649263422632,0.7,0,433.0,957.0,0.0,1020.0,1,0.7519160995627964
465,465,0.1444590033195805,0.1,0,273.0,641.0,0.0,1596.0,1,0.11884290032040706
466,466,0.9781726796141161,1.0,0,416.0,710.0,0.0,314.0,1,0.9126234268702731
467,467,0.8249047425051925,0.8,0,283.0,678.0,0.0,529.0,1,0.45860452251807193
468,468,-0.7831235968408337,-0.8,1,309.0,508.0,1.0,753.0,1,0.7234413016817975
469,469,0.4088103648573993,0.4,0,303.0,915.0,0.0,1122.0,1,0.39915118860238663
470,470,-0.8093380875059373,-0.8,1,499.0,604.0,1.0,657.0,1,0.9837958121089763
471,471,-0.9953885684433772,-1.0,1,346.0,595.0,1.0,1419.0,1,0.1185564232156316
472,472,-0.13256242025954057,-0.1,1,412.0,871.0,1.0,2007.0,1,0.3136203787092986
473,473,-0.9288607611738915,-0.9,1,354.0,984.0,1.0,352.0,1,0.9816208106440797
474,474,0.6781200562481666,0.7,0,289.0,597.0,0.0,414.0,1,0.15735700780087203
475,475,0.39378875751238307,0.4,0,458.0,934.0,0.0,1098.0,1,0.17907386927595464
476,476,0.25745048835682005,0.3,0,428.0,929.0,0.0,1133.0,1,0.8211223575424513
477,477,-0.5064332795013531,-0.5,1,478.0,976.0,1.0,876.0,1,0.35118918385429077
478,478,0.044778309250055326,0.0,0,480.0,800.0,0.0,930.0,1,0.45800125098378797
479,479,-0.5215743034192046,-0.5,1,323.0,749.0,1.0,998.0,1,0.5666106092790354
480,480,0.8408447805736916,0.8,0,314.0,918.0,0.0,828.0,1,0.47721324316867986
481,481,-0.879764648005664,-0.9,1,453.0,664.0,1.0,313.0,1,0.7357970007532492
482,482,-0.4204439194215177,-0.4,1,438.0,704.0,1.0,778.0,1,0.7344632552672962
483,483,0.6362873868816954,0.6,0,314.0,943.0,0.0,313.0,1,0.2993497072524739
484,484,0.0651468177295742,0.1,0,455.0,616.0,1.0,419.0,0,0.9034668355965705
485,485,0.46474475736486376,0.5,0,452.0,939.0,0.0,869.0,1,0.31601591680133745
486,486,0.9529874228470501,1.0,0,387.0,548.0,0.0,285.0,1,0.8152259610401126
487,487,0.7226722606308018,0.7,0,464.0,568.0,0.0,678.0,1,0.45519449065061635
488,488,0.5406637589908447,0.5,0,341.0,582.0,0.0,327.0,1,0.6464927058733653
489,489,0.1413544802828175,0.1,0,263.0,815.0,0.0,2582.0,1,0.6602919132312872
490,490,-0.8073337796954161,-0.8,1,306.0,659.0,1.0,315.0,1,0.1602870787676397
491,491,-0.790248392579119,-0.8,1,296.0,538.0,1.0,556.0,1,0.8794378594303005
492,492,-0.6539912858696701,-0.7,1,425.0,657.0,1.0,698.0,1,0.2140955190295485
493,493,-0.0021909388279424125,-0.0,1,315.0,800.0,1.0,3215.0,1,0.49753104435607887
494,494,0.659971161710369,0.7,0,341.0,537.0,0.0,312.0,1,0.4540604508495998
495,495,-0.3746588597754912,-0.4,1,455.0,545.0,1.0,910.0,1,0.3081737725785616
496,496,0.3974280679950002,0.4,0,334.0,769.0,0.0,497.0,1,0.7865892700979801
497,497,0.1409076959345439,0.1,0,333.0,743.0,0.0,3124.0,1,0.7520609369703432
498,498,0.9548834039209386,1.0,0,360.0,719.0,0.0,581.0,1,0.6998647148624326
499,499,-0.6654747257021336,-0.7,1,418.0,669.0,1.0,383.0,1,0.43222635847635327
500,500,-0.02023018696357548,-0.0,1,359.0,904.0,1.0,1297.0,1,0.23818197317117504
501,501,-0.28156324296922386,-0.3,1,364.0,805.0,1.0,1461.0,1,0.678214505720472
502,502,-0.08171586929966401,-0.1,1,348.0,934.0,1.0,3668.0,1,0.11630544491271838
503,503,-0.36900002508950513,-0.4,1,461.0,839.0,1.0,1320.0,1,0.4722265985333154
504,504,0.7046134063793541,0.7,0,432.0,850.0,0.0,938.0,1,0.8983658836469818
505,505,0.8029323502026151,0.8,0,434.0,804.0,0.0,582.0,1,0.322011576182177
506,506,0.7797461729678734,0.8,0,324.0,909.0,0.0,447.0,1,0.528704961292841
507,507,-0.0939418612037155,-0.1,1,357.0,623.0,1.0,3440.0,1,0.5070964199982051
508,508,0.18449951499845918,0.2,0,490.0,506.0,0.0,1044.0,1,0.1321947888790075
509,509,0.6337747802833071,0.6,0,369.0,761.0,0.0,970.0,1,0.3179577079065182
510,510,0.4012078856025172,0.4,0,298.0,603.0,0.0,1189.0,1,0.49532395673968765
511,511,-0.5938170805294614,-0.6,1,360.0,973.0,1.0,307.0,1,0.4151132025668647
512,512,0.9909546796845019,1.0,0,288.0,902.0,0.0,410.0,1,0.23351662740002224
513,513,0.018556107438856495,0.0,0,345.0,649.0,1.0,626.0,0,0.174694405349987
514,514,-0.5756657077788194,-0.6,1,462.0,724.0,1.0,1144.0,1,0.5044785876317146
515,515,-0.06391904120070468,-0.1,1,363.0,845.0,1.0,3792.0,1,0.19719686837817912
516,516,-0.10256507762233014,-0.1,1,462.0,669.0,1.0,3269.0,1,0.5681550491018359
517,517,-0.5872032489916241,-0.6,1,493.0,596.0,1.0,561.0,1,0.483122890487086
518,518,-0.9241906513257383,-0.9,1,408.0,888.0,1.0,864.0,1,0.9354679400242504
519,519,0.8081249270389186,0.8,0,429.0,642.0,0.0,389.0,1,0.9480254903491306
520,520,0.05798631085667316,0.1,0,423.0,513.0,1.0,4064.0,0,0.9411278228299348
521,521,-0.22959672743725767,-0.2,1,453.0,869.0,1.0,1608.0,1,0.7963317513942932
522,522,-0.7647548710573056,-0.8,1,315.0,933.0,1.0,672.0,1,0.3778370730856344
523,523,0.48884320606592424,0.5,0,282.0,591.0,0.0,1027.0,1,0.20406180274525543
524,524,-0.9806649864835111,-1.0,1,272.0,700.0,1.0,668.0,1,0.8757522530157488
525,525,0.48745150898376033,0.5,0,283.0,757.0,0.0,270.0,1,0.9906986863701028
526,526,0.955794021339744,1.0,0,395.0,567.0,0.0,408.0,1,0.9626430241143992
527,527,-0.7910677112038782,-0.8,1,288.0,772.0,1.0,760.0,1,0.7085792482424965
528,528,0.8200218929209215,0.8,0,372.0,807.0,0.0,561.0,1,0.6545499480576303
529,529,-0.6113219817068087,-0.6,1,441.0,587.0,1.0,672.0,1,0.32169825672714913
530,530,0.7163596848533043,0.7,0,404.0,958.0,0.0,438.0,1,0.9887267526024681
531,531,0.8083401009958981,0.8,0,369.0,635.0,0.0,696.0,1,0.8911123371439416
532,532,0.26525850836867493,0.3,0,334.0,562.0,0.0,1124.0,1,0.6599335512186043
533,533,0.3398730191293964,0.3,0,331.0,637.0,0.0,1122.0,1,0.358414877266371
534,534,0.841625025191242,0.8,0,294.0,812.0,0.0,764.0,1,0.9853821331080075
535,535,-0.21201050066141724,-0.2,1,311.0,635.0,1.0,544.0,1,0.9831984918522558
536,536,-0.9519695328640096,-1.0,1,286.0,808.0,1.0,1016.0,1,0.31929902561751566
537,537,0.310289920930928,0.3,0,291.0,981.0,0.0,3728.0,1,0.2983826051616685
538,538,0.5837573340884821,0.6,0,255.0,538.0,0.0,587.0,1,0.9270814517014258
539,539,0.8435601427535133,0.8,0,398.0,774.0,0.0,438.0,1,0.7096841235979895
540,540,0.9020219681023829,0.9,0,403.0,654.0,0.0,543.0,1,0.7559722465128896
541,541,0.4357343762850219,0.4,0,398.0,882.0,0.0,3410.0,1,0.4202419655006666
542,542,-0.12795258158220957,-0.1,1,271.0,657.0,1.0,1232.0,1,0.95659728909613
543,543,-0.3721375388591135,-0.4,1,484.0,614.0,1.0,822.0,1,0.735416529983302
544,544,0.08482622257747563,0.1,0,360.0,677.0,0.0,2173.0,1,0.21896290442494581
545,545,-0.15472143615161316,-0.2,1,364.0,557.0,1.0,3729.0,1,0.17245291730792617
546,546,0.9593551825825657,1.0,0,383.0,856.0,0.0,661.0,1,0.35867928127020154
547,547,-0.12505451622623553,-0.1,1,483.0,534.0,1.0,893.0,1,0.190443581736436
548,548,-0.9960602878585112,-1.0,1,375.0,955.0,1.0,340.0,1,0.9037156671846506
549,549,-0.9874882740636448,-1.0,1,376.0,723.0,1.0,881.0,1,0.16036150704439633
550,550,0.5493181196380823,0.5,0,281.0,524.0,0.0,1475.0,1,0.6584176052201832
551,551,0.23531541005122292,0.2,0,444.0,771.0,0.0,595.0,1,0.18346672508887507
552,552,0.1970553961402568,0.2,0,399.0,646.0,0.0,885.0,1,0.7430927237057109
553,553,-0.5893627415677745,-0.6,1,417.0,622.0,1.0,641.0,1,0.6881505668880387
554,554,0.8439485874630481,0.8,0,345.0,974.0,0.0,621.0,1,0.720006004946369
555,555,0.05459030568518086,0.1,0,484.0,653.0,1.0,973.0,0,0.40326362997311516
556,556,-0.8539532695180836,-0.9,1,490.0,948.0,1.0,2042.0,1,0.632595821900454
557,557,0.39466623708246584,0.4,0,306.0,567.0,0.0,557.0,1,0.504792338945833
558,558,-0.9781598352529632,-1.0,1,300.0,903.0,1.0,457.0,1,0.5743561614784822
559,559,0.33829841268981986,0.3,0,317.0,877.0,0.0,1706.0,1,0.6812961132230213
560,560,-0.7186635481490746,-0.7,1,332.0,747.0,1.0,431.0,1,0.6572090738962522
561,561,0.1329955211568219,0.1,0,343.0,577.0,0.0,1840.0,1,0.5861597963647267
562,562,-0.5990972302353466,-0.6,1,343.0,858.0,1.0,389.0,1,0.7988475927976582
563,563,0.3953050825764519,0.4,0,392.0,611.0,0.0,2097.0,1,0.9614354500658868
564,564,0.09084804107617828,0.1,0,295.0,592.0,0.0,1883.0,1,0.7945495739331127
565,565,0.06138575156029247,0.1,0,260.0,744.0,1.0,2286.0,0,0.7492186530691926
566,566,-0.43755899436639956,-0.4,1,348.0,999.0,1.0,683.0,1,0.8343196528232129
567,567,0.14122444399341072,0.1,0,324.0,632.0,0.0,3704.0,1,0.3504478593813962
568,568,-0.07978707118774575,-0.1,1,495.0,846.0,1.0,3069.0,1,0.15930968902168868
569,569,-0.34645504863529,-0.3,1,283.0,677.0,1.0,1080.0,1,0.3712546925454684
570,570,0.455697357785525,0.5,0,380.0,570.0,0.0,1300.0,1,0.2922973621805919
571,571,-0.6505657171338726,-0.7,1,439.0,689.0,1.0,902.0,1,0.37316341922620566
572,572,0.45815733740563713,0.5,0,452.0,577.0,0.0,621.0,1,0.3345801297025795
573,573,0.9166250279066426,0.9,0,343.0,510.0,0.0,567.0,1,0.1842846152923217
574,574,0.8326149489689345,0.8,0,306.0,678.0,0.0,206.0,1,0.8394358949134649
575,575,-0.25681664983090124,-0.3,1,342.0,581.0,1.0,747.0,1,0.18549533223616255
576,576,-0.5751324877053003,-0.6,1,278.0,776.0,1.0,596.0,1,0.6162466222986672
577,577,-0.04925354837932128,-0.0,1,274.0,906.0,0.0,3820.0,0,0.6132382255938061
578,578,-0.9620439758053345,-1.0,1,345.0,827.0,1.0,228.0,1,0.15545486147818338
579,579,0.6100701583734112,0.6,0,314.0,790.0,0.0,366.0,1,0.7467424610311518
580,580,0.7482780323070888,0.7,0,372.0,697.0,0.0,431.0,1,0.9941186631434727
581,581,-0.6495149401131826,-0.6,1,270.0,539.0,1.0,361.0,1,0.4247827906222209
582,582,-0.2717164671846857,-0.3,1,476.0,723.0,1.0,2031.0,1,0.6396235639715299
583,583,0.6891269077752005,0.7,0,332.0,875.0,0.0,553.0,1,0.3694863325580062
584,584,0.7615136308471238,0.8,0,274.0,563.0,0.0,603.0,1,0.9780155906519897
585,585,0.9633319753650964,1.0,0,359.0,609.0,0.0,782.0,1,0.3527140222597207
586,586,0.4705304805126802,0.5,0,368.0,893.0,0.0,649.0,1,0.5789822516941651
587,587,0.5273214099858232,0.5,0,321.0,608.0,0.0,561.0,1,0.25487757916878295
588,588,-0.7847952303977765,-0.8,1,473.0,999.0,1.0,1028.0,1,0.8700768323048002
589,589,0.971127338398702,1.0,0,251.0,711.0,0.0,388.0,1,0.6391894137803701
590,590,0.94289755253702,0.9,0,285.0,791.0,0.0,234.0,1,0.5701798115561943
591,591,-0.3045893042748762,-0.3,1,435.0,891.0,1.0,1284.0,1,0.4535622775443581
592,592,-0.7677180884620523,-0.8,1,257.0,752.0,1.0,301.0,1,0.8369615166465977
593,593,-0.294145311122298,-0.3,1,453.0,600.0,1.0,497.0,1,0.6275748017162147
594,594,0.8103925182719527,0.8,0,252.0,617.0,0.0,341.0,1,0.8191419761458663
595,595,-0.5094066436360325,-0.5,1,403.0,927.0,1.0,700.0,1,0.6208097009797031
596,596,0.08584265174858774,0.1,0,448.0,895.0,0.0,557.0,1,0.5908065335932106
597,597,-0.8677144721918288,-0.9,1,277.0,825.0,1.0,628.0,1,0.3523306573907268
598,598,-0.48611252345720946,-0.5,1,334.0,728.0,1.0,538.0,1,0.21096473755469286
599,599,-0.17004444270856545,-0.2,1,268.0,858.0,1.0,1394.0,1,0.24986083048174884
600,600,-0.9229990376705159,-0.9,1,432.0,512.0,1.0,226.0,1,0.28326978999568897
601,601,-0.3170252131764686,-0.3,1,357.0,900.0,1.0,2463.0,1,0.2049898891699997
602,602,0.10748965532917754,0.1,0,464.0,604.0,0.0,3932.0,1,0.46814091768049704
603,603,-0.6098471250360804,-0.6,1,471.0,888.0,1.0,751.0,1,0.6842343917993189
604,604,-0.5933785835672856,-0.6,1,328.0,904.0,1.0,428.0,1,0.6006190653696394
605,605,0.005657868136218491,0.0,0,421.0,677.0,1.0,3902.0,0,0.7196965041186303
606,606,0.5461401718082011,0.5,0,366.0,717.0,0.0,407.0,1,0.7246341275173154
607,607,0.012458166960342298,0.0,0,471.0,833.0,1.0,616.0,0,0.8359084350873949
608,608,-0.3004931990880033,-0.3,1,337.0,881.0,1.0,422.0,1,0.7415110666375788
609,609,-0.768299010437618,-0.8,1,393.0,745.0,1.0,612.0,1,0.31539543896638744
610,610,-0.7070650789327724,-0.7,1,294.0,809.0,1.0,1127.0,1,0.16721361254992717
611,611,0.037318457689176965,0.0,0,364.0,844.0,1.0,3792.0,0,0.6230229488064121
612,612,0.18376718532754688,0.2,0,283.0,630.0,0.0,1327.0,1,0.21560742677219957
613,613,-0.7778132879515383,-0.8,1,306.0,599.0,1.0,515.0,1,0.6059803659010026
614,614,0.9938201817706567,1.0,0,365.0,523.0,0.0,362.0,1,0.6057612336116306
615,615,0.06708927198709369,0.1,0,394.0,692.0,1.0,3914.0,0,0.5631032329132453
616,616,0.11162433835684582,0.1,0,303.0,916.0,0.0,3781.0,1,0.12093500921673583
617,617,0.07103958185220338,0.1,0,479.0,522.0,0.0,959.0,1,0.7599107774331152
618,618,0.07571344523741597,0.1,0,320.0,549.0,1.0,931.0,0,0.4506158117155873
619,619,0.0865184544542239,0.1,0,445.0,848.0,0.0,2657.0,1,0.2552696250704366
620,620,-0.18809245395089746,-0.2,1,342.0,926.0,1.0,1572.0,1,0.7219245657278851
621,621,-0.5794821877423018,-0.6,1,371.0,525.0,1.0,1364.0,1,0.15117396408018022
622,622,-0.6314007274989897,-0.6,1,340.0,867.0,1.0,963.0,1,0.4021838538776954
623,623,0.604921087016774,0.6,0,351.0,745.0,0.0,824.0,1,0.40463920992960034
624,624,-0.6217521174189149,-0.6,1,330.0,926.0,1.0,954.0,1,0.13779957063808942
625,625,0.9612588249467378,1.0,0,491.0,805.0,0.0,344.0,1,0.8150934550460117
626,626,-0.9255934229173364,-0.9,1,340.0,634.0,1.0,706.0,1,0.7953009465385321
627,627,-0.6627866912186013,-0.7,1,489.0,621.0,1.0,790.0,1,0.9232199269868165
628,628,-0.29223912705014854,-0.3,1,324.0,933.0,1.0,1803.0,1,0.36629208687955883
629,629,0.11040653049971327,0.1,0,289.0,611.0,0.0,2150.0,1,0.47676382161165054
630,630,-0.9004659786207927,-0.9,1,447.0,971.0,1.0,1142.0,1,0.4927241413615572
631,631,0.9632802162145542,1.0,0,460.0,707.0,0.0,343.0,1,0.4485580640287832
632,632,-0.9925152787348195,-1.0,1,338.0,689.0,1.0,1163.0,1,0.46873916787612513
633,633,0.8329427139450449,0.8,0,267.0,583.0,0.0,660.0,1,0.7457137667729006
634,634,-0.5341591452833676,-0.5,1,456.0,520.0,1.0,504.0,1,0.20597499108915285
635,635,0.08112862944155297,0.1,0,274.0,840.0,0.0,2456.0,1,0.8894289732139404
636,636,-0.907587593136358,-0.9,1,399.0,634.0,1.0,357.0,1,0.5550681725057366
637,637,0.20844219557407562,0.2,0,278.0,651.0,0.0,971.0,1,0.9792055366565693
638,638,-0.5952192784182835,-0.6,1,354.0,525.0,1.0,1351.0,1,0.13213197643956487
639,639,-0.44299311243411466,-0.4,1,270.0,992.0,1.0,188.0,1,0.9981620021039377
640,640,0.6331172922554842,0.6,0,299.0,898.0,0.0,863.0,1,0.5162382883418151
641,641,0.15303662313569122,0.2,0,390.0,505.0,0.0,1355.0,1,0.31652680268755284
642,642,-0.8478010369786002,-0.8,1,406.0,699.0,1.0,1205.0,1,0.10334860892306573
643,643,0.7629647599966494,0.8,0,395.0,805.0,0.0,450.0,1,0.5713056381289874
644,644,0.5939697015662173,0.6,0,454.0,929.0,0.0,517.0,1,0.7537060112987034
645,645,0.4071972024081758,0.4,0,488.0,868.0,0.0,624.0,1,0.27524756876781736
646,646,-0.755651612488945,-0.8,1,459.0,809.0,1.0,622.0,1,0.681462485583533
647,647,-0.9322086666114673,-0.9,1,340.0,966.0,1.0,244.0,1,0.7654151633240571
648,648,0.7632454924229883,0.8,0,474.0,503.0,0.0,593.0,1,0.2504577819463794
649,649,0.9051823555819438,0.9,0,268.0,756.0,0.0,576.0,1,0.5542594970329046
650,650,-0.38681536294204344,-0.4,1,420.0,531.0,1.0,549.0,1,0.9124340865212295
651,651,-0.23565000171474737,-0.2,1,331.0,843.0,1.0,1136.0,1,0.6005376652715892
652,652,-0.5285849219286167,-0.5,1,459.0,789.0,1.0,2142.0,1,0.6666430051526556
653,653,-0.5809149403823217,-0.6,1,475.0,563.0,1.0,392.0,1,0.46938750086301073
654,654,-0.8381354478630341,-0.8,1,373.0,914.0,1.0,823.0,1,0.22040523049318547
655,655,0.8438878307468343,0.8,0,343.0,953.0,0.0,774.0,1,0.13586069178031895
656,656,-0.9848100547846228,-1.0,1,269.0,783.0,1.0,528.0,1,0.22003969993926686
657,657,0.21485344179024057,0.2,0,414.0,878.0,0.0,3708.0,1,0.1646172656309181
658,658,0.062487612297276396,0.1,0,327.0,542.0,0.0,1251.0,1,0.5610425065685452
659,659,-0.39894983139166373,-0.4,1,276.0,502.0,1.0,1082.0,1,0.8569564175176712
660,660,-0.3735789335928654,-0.4,1,438.0,620.0,1.0,3132.0,1,0.18585489538436556
661,661,-0.7067873166851915,-0.7,1,421.0,881.0,1.0,428.0,1,0.4023206654212468
662,662,-0.48541565615930526,-0.5,1,483.0,535.0,1.0,742.0,1,0.4460504440116234
663,663,0.10495850569897347,0.1,0,497.0,676.0,0.0,3527.0,1,0.45380538039039375
664,664,-0.16049262321513313,-0.2,1,477.0,578.0,1.0,1095.0,1,0.9829668561188499
665,665,0.043934034804765654,0.0,0,398.0,505.0,1.0,4097.0,0,0.29471145161906553
666,666,-0.21163417165851173,-0.2,1,437.0,655.0,1.0,508.0,1,0.3507585210890002
667,667,0.4913765829621839,0.5,0,405.0,687.0,0.0,618.0,1,0.1906338371269703
668,668,0.7392958260122693,0.7,0,497.0,987.0,0.0,486.0,1,0.877877561344273
669,669,-0.1696456848029726,-0.2,1,374.0,957.0,1.0,859.0,1,0.5060433987372916
670,670,-0.8154381776057129,-0.8,1,255.0,856.0,1.0,529.0,1,0.39252351439413824
671,671,0.06965489202357067,0.1,0,307.0,823.0,1.0,830.0,0,0.8818956788997016
672,672,-0.5998445766280105,-0.6,1,447.0,849.0,1.0,714.0,1,0.32880722286198133
673,673,0.01951080318872167,0.0,0,462.0,759.0,1.0,3779.0,0,0.9673975861811485
674,674,-0.7556289211421294,-0.8,1,475.0,815.0,1.0,320.0,1,0.6643096804037917
675,675,0.025702337225073313,0.0,0,480.0,550.0,1.0,3970.0,0,0.8286636953131078
676,676,0.14097119681927928,0.1,0,431.0,618.0,0.0,701.0,1,0.41721581104104855
677,677,0.04758908228087244,0.0,0,406.0,663.0,0.0,1501.0,1,0.3738252391764664
678,678,-0.868748997317053,-0.9,1,287.0,629.0,1.0,804.0,1,0.22500055114427178
679,679,0.4872007380044072,0.5,0,491.0,508.0,0.0,671.0,1,0.7804172458508988
680,680,-0.35426300236906494,-0.4,1,492.0,944.0,1.0,604.0,1,0.15109436331817006
681,681,-0.6361955308487499,-0.6,1,365.0,708.0,1.0,1357.0,1,0.1128132510127518
682,682,-0.6745524031254269,-0.7,1,432.0,782.0,1.0,1146.0,1,0.18288021102061758
683,683,-0.2879095023188605,-0.3,1,258.0,863.0,1.0,459.0,1,0.7236985810156485
684,684,0.9196254730821412,0.9,0,359.0,589.0,0.0,1072.0,1,0.3258819460212856
685,685,0.846883245146616,0.8,0,343.0,660.0,0.0,737.0,1,0.18499304763816407
686,686,0.480574937306947,0.5,0,377.0,616.0,0.0,1137.0,1,0.5988110634376284
687,687,0.8716628588244315,0.9,0,280.0,914.0,0.0,886.0,1,0.3462184320451262
688,688,-0.9586436537679963,-1.0,1,354.0,514.0,1.0,602.0,1,0.8897140522889267
689,689,-0.9916202581990186,-1.0,1,432.0,881.0,1.0,817.0,1,0.23417892916724128
690,690,-0.13105052959129182,-0.1,1,278.0,606.0,1.0,896.0,1,0.21440586405322826
691,691,0.5422946436119913,0.5,0,360.0,614.0,0.0,1206.0,1,0.44789573260287807
692,692,0.45053920597778263,0.5,0,472.0,610.0,0.0,508.0,1,0.8268511269536579
693,693,-0.0635831563384126,-0.1,1,316.0,603.0,1.0,1321.0,1,0.3278820237111277
694,694,-0.6301125463307691,-0.6,1,457.0,794.0,1.0,379.0,1,0.9456391686026352
695,695,0.7030809317519464,0.7,0,371.0,618.0,0.0,901.0,1,0.2594323898950031
696,696,-0.4512725049759221,-0.5,1,313.0,896.0,1.0,941.0,1,0.3827331983390505
697,697,0.22414635855743748,0.2,0,363.0,517.0,0.0,1260.0,1,0.9169820536872499
698,698,-0.3838121449168581,-0.4,1,373.0,736.0,1.0,2041.0,1,0.4528875688729397
699,699,-0.19497043894282817,-0.2,1,444.0,621.0,1.0,945.0,1,0.5992781850939619
700,700,0.5126054870075702,0.5,0,463.0,959.0,0.0,868.0,1,0.1516242888402291
701,701,0.34167367894951095,0.3,0,431.0,790.0,0.0,1999.0,1,0.7990958721390977
702,702,0.363729795941232,0.4,0,374.0,841.0,0.0,1125.0,1,0.18144797573678756
703,703,-0.3054867376230568,-0.3,1,370.0,752.0,1.0,1258.0,1,0.9218168029113739
704,704,0.41199946539017485,0.4,0,374.0,768.0,0.0,1438.0,1,0.6336186725434346
705,705,-0.2621730777161597,-0.3,1,321.0,576.0,1.0,853.0,1,0.893806776195634
706,706,-0.49578812214124235,-0.5,1,460.0,636.0,1.0,754.0,1,0.31992076914164935
707,707,-0.5227320472527279,-0.5,1,473.0,586.0,1.0,1211.0,1,0.18932575916751632
708,708,-0.804554499481706,-0.8,1,318.0,802.0,1.0,370.0,1,0.8944574762549384
709,709,0.6927303697103586,0.7,0,369.0,680.0,0.0,431.0,1,0.6365091236151315
710,710,0.5010124662273274,0.5,0,262.0,827.0,0.0,811.0,1,0.4625090032770083
711,711,0.9223704871236467,0.9,0,411.0,641.0,0.0,298.0,1,0.8155777261357564
712,712,0.4962298231793265,0.5,0,443.0,952.0,0.0,665.0,1,0.25563849749889156
713,713,-0.655796954342966,-0.7,1,468.0,919.0,1.0,423.0,1,0.5463386179721145
714,714,0.3291272793649256,0.3,0,262.0,616.0,0.0,512.0,1,0.4210324473404792
715,715,0.8572304774238735,0.9,0,320.0,599.0,0.0,501.0,1,0.10912955859134933
716,716,-0.9666996912086767,-1.0,1,361.0,748.0,1.0,491.0,1,0.22891084234473777
717,717,-0.1025275286687326,-0.1,1,471.0,801.0,0.0,1618.0,0,0.6116610765899567
718,718,0.7253469138434934,0.7,0,352.0,610.0,0.0,1208.0,1,0.152947995226843
719,719,-0.5112820678583849,-0.5,1,390.0,698.0,1.0,1092.0,1,0.5110494934874195
720,720,0.6979778454498164,0.7,0,328.0,893.0,0.0,1009.0,1,0.5320985638411239
721,721,0.9660468955411314,1.0,0,472.0,957.0,0.0,341.0,1,0.3637489275701936
722,722,-0.32166917696489694,-0.3,1,403.0,792.0,1.0,3005.0,1,0.4096086962824932
723,723,0.640582448712059,0.6,0,490.0,503.0,0.0,887.0,1,0.69170220182735
724,724,-0.23642207681700977,-0.2,1,377.0,547.0,1.0,956.0,1,0.9128491057244704
725,725,0.293778871673263,0.3,0,354.0,567.0,0.0,609.0,1,0.8409166630721544
726,726,0.6490511827000456,0.6,0,478.0,774.0,0.0,718.0,1,0.3077827705412288
727,727,0.31413297026797915,0.3,0,269.0,717.0,0.0,684.0,1,0.5279787911451747
728,728,0.07791004997069839,0.1,0,402.0,716.0,0.0,3372.0,1,0.27558293536513495
729,729,-0.4770874291764202,-0.5,1,260.0,620.0,1.0,800.0,1,0.2556176217040743
730,730,0.2957289102723153,0.3,0,289.0,879.0,0.0,1742.0,1,0.48080374538319126
731,731,-0.23053862344783904,-0.2,1,435.0,936.0,1.0,879.0,1,0.4758845300467125
732,732,-0.650199706544272,-0.7,1,312.0,749.0,1.0,669.0,1,0.8657649385555546
733,733,0.15314394583943014,0.2,0,345.0,862.0,0.0,2033.0,1,0.17323338487621615
734,734,-0.267914887916348,-0.3,1,396.0,801.0,1.0,523.0,1,0.8403430191708214
735,735,0.8387287949714755,0.8,0,484.0,520.0,0.0,406.0,1,0.4343782880590299
736,736,0.8764402174844124,0.9,0,271.0,773.0,0.0,626.0,1,0.8172500447062785
737,737,0.17131388703268247,0.2,0,453.0,958.0,0.0,849.0,1,0.27431809494595205
738,738,0.8484012353882375,0.8,0,470.0,556.0,0.0,834.0,1,0.2683061774110148
739,739,0.6391766187233887,0.6,0,439.0,622.0,0.0,1209.0,1,0.13621900987718205
740,740,0.1337963283961343,0.1,0,300.0,803.0,0.0,3897.0,1,0.32137870471510355
741,741,-0.586225842167132,-0.6,1,292.0,796.0,1.0,932.0,1,0.3384618860817744
742,742,0.44431157961764756,0.4,0,435.0,544.0,0.0,411.0,1,0.6613727490579143
743,743,0.2861332786113191,0.3,0,344.0,660.0,0.0,1756.0,1,0.6345642891245493
744,744,-0.9492274492831376,-0.9,1,460.0,502.0,1.0,308.0,1,0.5258028757600257
745,745,-0.9914711495541615,-1.0,1,291.0,866.0,1.0,1163.0,1,0.20092875904427165
746,746,0.8888139698975972,0.9,0,380.0,748.0,0.0,612.0,1,0.17602282765555455
747,747,-0.1967828798511151,-0.2,1,419.0,756.0,1.0,1335.0,1,0.9015750131021412
748,748,0.4111596767175112,0.4,0,353.0,750.0,0.0,757.0,1,0.9630351245733507
749,749,0.5268487651813409,0.5,0,474.0,881.0,0.0,2065.0,1,0.2828609222211729
750,750,-0.3435468798216803,-0.3,1,377.0,705.0,1.0,2118.0,1,0.44235013264920586
751,751,-0.800388783854656,-0.8,1,459.0,691.0,1.0,280.0,1,0.3682912582890572
752,752,-0.6989362020277436,-0.7,1,486.0,954.0,1.0,740.0,1,0.4480835387675298
753,753,-0.5305887467388712,-0.5,1,374.0,731.0,1.0,815.0,1,0.7425144040908044
754,754,0.2805998517275665,0.3,0,336.0,865.0,0.0,2149.0,1,0.876671902236843
755,755,-0.8991918871843787,-0.9,1,297.0,858.0,1.0,545.0,1,0.7368018937245076
756,756,0.3888571583492333,0.4,0,468.0,530.0,0.0,602.0,1,0.9670908160140976
757,757,0.6524527784964822,0.7,0,305.0,754.0,0.0,1061.0,1,0.15147775177087935
758,758,-0.25961845658874805,-0.3,1,477.0,796.0,1.0,867.0,1,0.7601883628118774
759,759,-0.4900112954939704,-0.5,1,350.0,670.0,1.0,1270.0,1,0.9073855801748164
760,760,-0.30077114237890656,-0.3,1,416.0,778.0,1.0,1856.0,1,0.49413568961652343
761,761,0.004306421543272654,0.0,0,285.0,526.0,1.0,809.0,0,0.9961843810640061
762,762,0.18960315167218722,0.2,0,368.0,639.0,0.0,703.0,1,0.3040596958724367
763,763,0.3493917525855179,0.3,0,342.0,922.0,0.0,836.0,1,0.5314870801854211
764,764,0.6534423364478772,0.7,0,407.0,649.0,0.0,314.0,1,0.9382990927803232
765,765,-0.1991663534742607,-0.2,1,397.0,617.0,1.0,3046.0,1,0.21180928532206025
766,766,-0.824417027171215,-0.8,1,444.0,757.0,1.0,379.0,1,0.9402467702560948
767,767,0.9791892679984633,1.0,0,445.0,922.0,0.0,443.0,1,0.3475664909702912
768,768,0.729720839910903,0.7,0,392.0,572.0,0.0,856.0,1,0.7975152679988315
769,769,-0.6116673809375903,-0.6,1,322.0,549.0,1.0,1599.0,1,0.19442302110989373
770,770,0.643745911502585,0.6,0,309.0,796.0,0.0,575.0,1,0.42233692899777975
771,771,-0.7659810200996922,-0.8,1,469.0,947.0,1.0,454.0,1,0.2525871679789029
772,772,0.8388344069656781,0.8,0,321.0,905.0,0.0,274.0,1,0.8563396681624573
773,773,-0.6302927589629572,-0.6,1,332.0,536.0,1.0,572.0,1,0.5956979987258874
774,774,-0.16525762457481896,-0.2,1,492.0,598.0,1.0,3910.0,1,0.43210679245341543
775,775,0.13023368244391897,0.1,0,273.0,728.0,1.0,3999.0,0,0.7545099694266004
776,776,-0.8480149866642648,-0.8,1,470.0,823.0,1.0,647.0,1,0.15534346624753875
777,777,-0.9593573779418303,-1.0,1,296.0,920.0,1.0,754.0,1,0.43711712397007507
778,778,0.14218249106766923,0.1,0,391.0,936.0,0.0,2573.0,1,0.8985522059476893
779,779,-0.19290825534240796,-0.2,1,295.0,748.0,1.0,737.0,1,0.6954483792310098
780,780,0.492762140903215,0.5,0,449.0,888.0,0.0,1193.0,1,0.853100007575576
781,781,0.5673008406986033,0.6,0,423.0,647.0,0.0,730.0,1,0.35660428114293774
782,782,-0.5093819279885705,-0.5,1,438.0,975.0,1.0,907.0,1,0.332148477312627
783,783,-0.988755415651076,-1.0,1,397.0,822.0,1.0,241.0,1,0.7101294276703366
784,784,0.1974088558227476,0.2,0,491.0,851.0,0.0,3658.0,1,0.39824099412308367
785,785,-0.9635949463571474,-1.0,1,423.0,949.0,1.0,768.0,1,0.7264805195270237
786,786,0.9522103384196061,1.0,0,469.0,783.0,0.0,768.0,1,0.3167859532920773
787,787,0.14920233084052614,0.1,0,424.0,978.0,0.0,3318.0,1,0.42462503801122364
788,788,-0.10372161110223521,-0.1,1,476.0,523.0,1.0,2181.0,1,0.6130898634554571
789,789,0.819545917125704,0.8,0,268.0,526.0,0.0,536.0,1,0.10988966412401052
790,790,0.7139371450167726,0.7,0,315.0,628.0,0.0,747.0,1,0.7254315023666338
791,791,0.7745827062928194,0.8,0,350.0,644.0,0.0,566.0,1,0.9882282305710987
792,792,-0.01091416677966417,-0.0,1,372.0,742.0,1.0,536.0,1,0.8436702708013941
793,793,-0.7798298075824077,-0.8,1,487.0,756.0,1.0,357.0,1,0.15600599742258622
794,794,0.6019725196501275,0.6,0,257.0,563.0,0.0,2110.0,1,0.8731430005744174
795,795,-0.5505352523124545,-0.6,1,301.0,751.0,1.0,638.0,1,0.4559123155638244
796,796,0.8743540535288377,0.9,0,399.0,965.0,0.0,1276.0,1,0.4428458853672339
797,797,-0.6577487346671949,-0.7,1,264.0,707.0,1.0,809.0,1,0.2732634122375183
798,798,-0.62643440855031,-0.6,1,281.0,903.0,1.0,736.0,1,0.2996321794902849
799,799,0.8590081939137189,0.9,0,397.0,828.0,0.0,435.0,1,0.34020498595523374
800,800,0.2551331866167059,0.3,0,309.0,588.0,0.0,1113.0,1,0.7094815401930529
801,801,0.9433488086630493,0.9,0,251.0,807.0,0.0,312.0,1,0.6311775760811763
802,802,-0.7737084322719392,-0.8,1,363.0,968.0,1.0,509.0,1,0.5415760753128604
803,803,0.07786052436835722,0.1,0,444.0,789.0,1.0,1507.0,0,0.9747923089209076
804,804,-0.5265318887318973,-0.5,1,290.0,830.0,1.0,930.0,1,0.43242682541700195
805,805,0.6251013454966297,0.6,0,361.0,761.0,0.0,598.0,1,0.48134398658600386
806,806,-0.565472809477078,-0.6,1,377.0,702.0,1.0,551.0,1,0.7019259833758323
807,807,0.5490262605914904,0.5,0,344.0,634.0,0.0,1372.0,1,0.24689616325784935
808,808,-0.33816064505766796,-0.3,1,318.0,823.0,1.0,709.0,1,0.8958329130545243
809,809,0.5470886521554297,0.5,0,444.0,900.0,0.0,796.0,1,0.6948522591146888
810,810,0.8626231863163074,0.9,0,322.0,512.0,0.0,606.0,1,0.6107577045065791
811,811,0.8488722767451977,0.8,0,282.0,928.0,0.0,510.0,1,0.9019087410842139
812,812,0.9440994351054415,0.9,0,346.0,704.0,0.0,640.0,1,0.6836573437558854
813,813,-0.384699690997915,-0.4,1,340.0,902.0,1.0,458.0,1,0.5018156099505245
814,814,-0.673493703132088,-0.7,1,355.0,682.0,1.0,573.0,1,0.5811805668173323
815,815,0.7685023686324113,0.8,0,291.0,996.0,0.0,623.0,1,0.6862012966109335
816,816,-0.7109784484431758,-0.7,1,421.0,713.0,1.0,686.0,1,0.5949080945526315
817,817,0.9831891219125644,1.0,0,470.0,611.0,0.0,569.0,1,0.2303638875216405
818,818,-0.08486303456064426,-0.1,1,444.0,862.0,1.0,1244.0,1,0.8345042784538493
819,819,-0.9423853071051154,-0.9,1,361.0,616.0,1.0,853.0,1,0.31697709021941534
820,820,-0.8255487027777486,-0.8,1,269.0,635.0,1.0,766.0,1,0.7023856949389173
821,821,0.06342864277206517,0.1,0,295.0,911.0,1.0,3794.0,0,0.5576706997497428
822,822,-0.47014921449788183,-0.5,1,447.0,770.0,1.0,713.0,1,0.653683253802923
823,823,-0.37739138222259916,-0.4,1,442.0,515.0,1.0,1553.0,1,0.6854238185020332
824,824,0.8014942036544772,0.8,0,381.0,865.0,0.0,1354.0,1,0.17999597153657848
825,825,-0.14624681552978647,-0.1,1,335.0,734.0,1.0,2071.0,1,0.1449088009005724
826,826,0.1852446851318681,0.2,0,321.0,648.0,0.0,2201.0,1,0.3620514464142057
827,827,-0.30538250587438864,-0.3,1,383.0,884.0,1.0,1493.0,1,0.5293863989455625
828,828,0.2595897743273181,0.3,0,441.0,809.0,0.0,1390.0,1,0.6004993282109047
829,829,0.909685495002666,0.9,0,288.0,944.0,0.0,808.0,1,0.6175032475904588
830,830,-0.7821184123090685,-0.8,1,370.0,976.0,1.0,904.0,1,0.32068347153376653
831,831,0.9702192543923986,1.0,0,499.0,974.0,0.0,597.0,1,0.6149511994684866
832,832,-0.09061472577467766,-0.1,1,290.0,774.0,1.0,3936.0,1,0.690180488559486
833,833,-0.5617804575180254,-0.6,1,354.0,630.0,1.0,416.0,1,0.9244653810428319
834,834,-0.3213209624073312,-0.3,1,490.0,808.0,1.0,832.0,1,0.39804724101674394
835,835,-0.19471110558584437,-0.2,1,461.0,501.0,1.0,2608.0,1,0.6123081888487241
836,836,0.1691062739886473,0.2,0,312.0,575.0,0.0,3313.0,1,0.693632426274251
837,837,-0.33675026236484773,-0.3,1,389.0,836.0,1.0,2165.0,1,0.9568883239761267
838,838,-0.2874509162225727,-0.3,1,343.0,914.0,1.0,3013.0,1,0.45367919175646376
839,839,-0.7523637060740043,-0.8,1,305.0,789.0,1.0,896.0,1,0.5819923013616903
840,840,-0.6751179869718558,-0.7,1,263.0,629.0,1.0,748.0,1,0.8536987742365545
841,841,0.9524972753884411,1.0,0,409.0,920.0,0.0,391.0,1,0.18237352503156762
842,842,-0.022878618835720843,-0.0,1,370.0,806.0,1.0,1964.0,1,0.9487637422591014
843,843,-0.0030240138728341304,-0.0,1,406.0,836.0,1.0,2788.0,1,0.42475335163241035
844,844,0.30214708774688726,0.3,0,288.0,794.0,0.0,538.0,1,0.6215969648397164
845,845,-0.8097776504603613,-0.8,1,267.0,700.0,1.0,223.0,1,0.7793555246156574
846,846,0.49971039732270883,0.5,0,280.0,558.0,0.0,1062.0,1,0.1542677652587266
847,847,-0.9040135496694621,-0.9,1,476.0,653.0,1.0,811.0,1,0.46429067996595064
848,848,-0.43288813524639735,-0.4,1,258.0,749.0,1.0,853.0,1,0.9062841809166499
849,849,-0.997178157979598,-1.0,1,416.0,589.0,1.0,265.0,1,0.5795284037919455
850,850,-0.4594183024017404,-0.5,1,259.0,891.0,1.0,460.0,1,0.1284827543286301
851,851,-0.2072496317916035,-0.2,1,481.0,831.0,1.0,458.0,1,0.6122543149555023
852,852,0.8802761142185593,0.9,0,417.0,784.0,0.0,1109.0,1,0.721609526975104
853,853,-0.17369208173202022,-0.2,1,359.0,590.0,1.0,1701.0,1,0.42499159824894195
854,854,-0.5164053097430827,-0.5,1,259.0,719.0,1.0,832.0,1,0.504423498433865
855,855,0.12450719155658474,0.1,0,373.0,610.0,0.0,3587.0,1,0.7739863505687264
856,856,0.09398705130607388,0.1,0,327.0,977.0,1.0,3696.0,0,0.5277841611604677
857,857,-0.36956110293494526,-0.4,1,424.0,733.0,1.0,463.0,1,0.8745989309781167
858,858,0.21577176939956022,0.2,0,352.0,759.0,0.0,1259.0,1,0.6105193676623665
859,859,-0.713112640679531,-0.7,1,394.0,992.0,1.0,594.0,1,0.6493271407168432
860,860,-0.9251121845887214,-0.9,1,451.0,590.0,1.0,679.0,1,0.38156749337506946
861,861,-0.10624179843126091,-0.1,1,438.0,866.0,1.0,3696.0,1,0.1117865322923366
862,862,0.21151007335469818,0.2,0,360.0,578.0,0.0,1502.0,1,0.9663034526643499
863,863,-0.7606032705241526,-0.8,1,289.0,575.0,1.0,806.0,1,0.5084709234557988
864,864,0.5362683813416944,0.5,0,397.0,672.0,0.0,401.0,1,0.6397372811139254
865,865,-0.8182294200176037,-0.8,1,424.0,504.0,1.0,582.0,1,0.8238988896770566
866,866,0.8105356353506235,0.8,0,418.0,591.0,0.0,1271.0,1,0.20738273016518655
867,867,-0.6825144662933411,-0.7,1,406.0,670.0,1.0,394.0,1,0.8307080101420901
868,868,-0.8033583459460996,-0.8,1,440.0,959.0,1.0,621.0,1,0.32424148977167094
869,869,-0.8180152025026339,-0.8,1,461.0,790.0,1.0,619.0,1,0.28233751264115614
870,870,0.916150666333666,0.9,0,497.0,720.0,0.0,773.0,1,0.24303490733638153
871,871,0.4294119386419668,0.4,0,333.0,970.0,0.0,1517.0,1,0.5049017136145275
872,872,-0.014937031746524054,-0.0,1,410.0,659.0,0.0,811.0,0,0.5166745201264936
873,873,0.9170437171038879,0.9,0,485.0,681.0,0.0,274.0,1,0.8525878760646789
874,874,0.19696525652311037,0.2,0,322.0,906.0,0.0,812.0,1,0.5876244473214035
875,875,-0.6241983314965276,-0.6,1,278.0,803.0,1.0,319.0,1,0.5376378012728003
876,876,-0.4699786637733183,-0.5,1,333.0,965.0,1.0,842.0,1,0.3518876646722725
877,877,-0.79665739789528,-0.8,1,366.0,509.0,1.0,315.0,1,0.7461627267354566
878,878,-0.8169576137595946,-0.8,1,261.0,718.0,1.0,681.0,1,0.20800975888585171
879,879,0.7226490030184447,0.7,0,482.0,854.0,0.0,204.0,1,0.8150389692595091
880,880,0.6457996841363525,0.6,0,327.0,881.0,0.0,612.0,1,0.5362985009846772
881,881,-0.47384797687431623,-0.5,1,350.0,500.0,1.0,640.0,1,0.546353365392528
882,882,0.6918171936704549,0.7,0,364.0,532.0,0.0,514.0,1,0.33166839639089585
883,883,0.2790512768658957,0.3,0,318.0,828.0,0.0,614.0,1,0.5369598582408115
884,884,0.9413446770675515,0.9,0,410.0,996.0,0.0,544.0,1,0.37690810728889557
885,885,0.5595042860029817,0.6,0,302.0,582.0,0.0,336.0,1,0.923158366667115
886,886,-0.35646932642080675,-0.4,1,351.0,815.0,1.0,944.0,1,0.4369003365658628
887,887,0.2853902727877202,0.3,0,324.0,608.0,0.0,518.0,1,0.876145839965455
888,888,0.00958693719046666,0.0,0,409.0,816.0,1.0,3775.0,0,0.22236726191154466
889,889,0.4384061105118937,0.4,0,336.0,655.0,0.0,549.0,1,0.8634084644664052
890,890,0.3511276020416554,0.4,0,319.0,620.0,0.0,731.0,1,0.2943564700225326
891,891,0.8038903654025871,0.8,0,326.0,762.0,0.0,362.0,1,0.9081738819529059
892,892,-0.4574315656778969,-0.5,1,272.0,963.0,1.0,425.0,1,0.4659113641528081
893,893,0.84183614517452,0.8,0,499.0,699.0,0.0,762.0,1,0.7099264311198563
894,894,0.36215301607435757,0.4,0,354.0,871.0,0.0,775.0,1,0.3657754237856561
895,895,-0.3301489103549853,-0.3,1,273.0,555.0,1.0,1082.0,1,0.5669811733176766
896,896,-0.6062282259925422,-0.6,1,291.0,556.0,1.0,393.0,1,0.7728843817780764
897,897,0.3906727019772609,0.4,0,286.0,819.0,0.0,1145.0,1,0.4743651129809566
898,898,0.24696729766091363,0.2,0,341.0,563.0,0.0,426.0,1,0.8838249113450626
899,899,0.8695376228315512,0.9,0,445.0,687.0,0.0,568.0,1,0.6116785177754259
900,900,0.05975657105503385,0.1,0,251.0,783.0,1.0,1566.0,0,0.662518399688695
901,901,0.4779325740213092,0.5,0,442.0,632.0,0.0,856.0,1,0.7697377419634627
902,902,-0.2783907056930044,-0.3,1,466.0,521.0,1.0,833.0,1,0.48121815613444496
903,903,0.8134554310060231,0.8,0,336.0,673.0,0.0,901.0,1,0.8239895343962486
904,904,0.9156413595480006,0.9,0,282.0,964.0,0.0,604.0,1,0.9545914276045181
905,905,0.7956566481454068,0.8,0,257.0,936.0,0.0,447.0,1,0.30116163055409556
906,906,0.8760837437751299,0.9,0,483.0,709.0,0.0,398.0,1,0.25722748195256084
907,907,0.9768493774956843,1.0,0,336.0,573.0,0.0,221.0,1,0.5291307781741638
908,908,0.963549865702753,1.0,0,305.0,925.0,0.0,420.0,1,0.46719961333560567
909,909,0.6687125789254229,0.7,0,266.0,764.0,0.0,570.0,1,0.5663065613388187
910,910,-0.032347733166594006,-0.0,1,395.0,966.0,0.0,3639.0,0,0.12381054900495192
911,911,-0.941613266946276,-0.9,1,421.0,975.0,1.0,954.0,1,0.39851981265500247
912,912,0.83193458070177,0.8,0,286.0,830.0,0.0,884.0,1,0.5600655791027268
913,913,-0.19776821764873875,-0.2,1,434.0,941.0,1.0,1155.0,1,0.948053577158173
914,914,0.031169247760355567,0.0,0,369.0,705.0,0.0,3926.0,1,0.3047808202341961
915,915,0.03780984614667049,0.0,0,486.0,781.0,0.0,1843.0,1,0.9121764652763774
916,916,0.25031902941948103,0.3,0,488.0,918.0,0.0,714.0,1,0.3287990230250181
917,917,-0.42970955209649175,-0.4,1,308.0,830.0,1.0,482.0,1,0.5378282017511923
918,918,0.5828299666027836,0.6,0,434.0,612.0,0.0,424.0,1,0.4248034159774734
919,919,0.6916233233032469,0.7,0,473.0,661.0,0.0,436.0,1,0.3568307576626466
920,920,0.5198371704958908,0.5,0,286.0,851.0,0.0,1303.0,1,0.2041027753151817
921,921,-0.738202889707696,-0.7,1,496.0,591.0,1.0,313.0,1,0.9659141485642828
922,922,0.8115008998898456,0.8,0,401.0,745.0,0.0,384.0,1,0.9918353214528093
923,923,0.9504723574760632,1.0,0,399.0,532.0,0.0,669.0,1,0.4586397533038532
924,924,-0.2382624743612094,-0.2,1,292.0,938.0,1.0,1050.0,1,0.27181464875437045
925,925,0.6210634234464885,0.6,0,284.0,521.0,0.0,675.0,1,0.6160860832483968
926,926,0.5776958131573049,0.6,0,403.0,772.0,0.0,735.0,1,0.5522279264419446
927,927,0.6034830705926557,0.6,0,471.0,916.0,0.0,613.0,1,0.8295248369287984
928,928,-0.7097827537442671,-0.7,1,487.0,835.0,1.0,278.0,1,0.28520041315716316
929,929,-0.9882106333085787,-1.0,1,331.0,664.0,1.0,155.0,1,0.4069919215387967
930,930,-0.3085640469344968,-0.3,1,393.0,532.0,1.0,1545.0,1,0.10763654056189902
931,931,0.5178138515290513,0.5,0,379.0,727.0,0.0,914.0,1,0.26663382422695103
932,932,-0.9444683249414079,-0.9,1,419.0,971.0,1.0,1170.0,1,0.2810743873721994
933,933,0.00016925483576724076,0.0,0,328.0,545.0,0.0,4127.0,1,0.7298603972066047
934,934,0.22934114980236453,0.2,0,413.0,643.0,0.0,2014.0,1,0.6922039762238043
935,935,0.6913734414317287,0.7,0,494.0,757.0,0.0,479.0,1,0.8241131362038429
936,936,0.7476180084702453,0.7,0,457.0,663.0,0.0,710.0,1,0.9084249717930019
937,937,-0.42395049385709993,-0.4,1,383.0,908.0,1.0,799.0,1,0.24830114745637724
938,938,-0.18538990281040424,-0.2,1,430.0,648.0,1.0,2232.0,1,0.5926234542950897
939,939,-0.6693495779603433,-0.7,1,298.0,500.0,1.0,462.0,1,0.472961805905844
940,940,0.8425401636686916,0.8,0,368.0,972.0,0.0,480.0,1,0.17654063695581113
941,941,0.2933711307488367,0.3,0,258.0,638.0,0.0,724.0,1,0.8002176208542098
942,942,0.00028744360736498997,0.0,0,335.0,714.0,1.0,2191.0,0,0.7635701757678173
943,943,0.08844259696783818,0.1,0,250.0,951.0,0.0,2019.0,1,0.9660387619333107
944,944,-0.2109178580659461,-0.2,1,379.0,811.0,1.0,200.0,1,0.8050792013701072
945,945,0.2079739514954766,0.2,0,384.0,841.0,0.0,415.0,1,0.8755973796477731
946,946,-0.06279642125177842,-0.1,1,255.0,986.0,1.0,3759.0,1,0.27345317470538333
947,947,-0.38579578760171085,-0.4,1,489.0,807.0,1.0,1024.0,1,0.5661124710120046
948,948,0.5770318333295112,0.6,0,461.0,517.0,0.0,682.0,1,0.10529352950067682
949,949,0.5458275331733831,0.5,0,296.0,790.0,0.0,814.0,1,0.18250539083119394
950,950,0.4266115140272613,0.4,0,448.0,617.0,0.0,615.0,1,0.989772507856554
951,951,-0.4961769992907257,-0.5,1,452.0,817.0,1.0,551.0,1,0.19322204380621746
952,952,-0.3662697722779147,-0.4,1,386.0,832.0,1.0,812.0,1,0.44496278764037855
953,953,-0.6362325445924113,-0.6,1,349.0,878.0,1.0,393.0,1,0.20085421499262573
954,954,-0.8128699228313716,-0.8,1,297.0,618.0,1.0,875.0,1,0.7991754006692915
955,955,0.9899108742739184,1.0,0,321.0,566.0,0.0,773.0,1,0.10040213369310383
956,956,-0.706161091873194,-0.7,1,354.0,761.0,1.0,1785.0,1,0.21751814027487182
957,957,-0.5107833561512778,-0.5,1,278.0,697.0,1.0,525.0,1,0.5106766526791762
958,958,0.5953283545609469,0.6,0,377.0,759.0,0.0,1464.0,1,0.6831983626821724
959,959,-0.357833857816102,-0.4,1,300.0,594.0,1.0,1376.0,1,0.2368975867988221
960,960,0.16735890209171633,0.2,0,291.0,681.0,0.0,908.0,1,0.9950008174925274
961,961,-0.5819900982524311,-0.6,1,387.0,561.0,1.0,972.0,1,0.885166815516126
962,962,0.8989223725393667,0.9,0,256.0,802.0,0.0,262.0,1,0.9536266821800929
963,963,0.24997970561899963,0.2,0,302.0,953.0,0.0,1745.0,1,0.4755013240555982
964,964,-0.015076725373869948,-0.0,1,372.0,533.0,0.0,535.0,0,0.488793192603878
965,965,0.09608451881527302,0.1,0,302.0,921.0,0.0,1317.0,1,0.8984791132296057
966,966,0.6630013207387999,0.7,0,386.0,871.0,0.0,723.0,1,0.8044669702114509
967,967,0.008045826484454066,0.0,0,418.0,607.0,1.0,3975.0,0,0.31380672797196574
968,968,-0.052006304152188765,-0.1,1,418.0,821.0,1.0,3761.0,1,0.7236369851691109
969,969,0.12882171253695085,0.1,0,406.0,501.0,0.0,3283.0,1,0.19141863222425742
970,970,-0.833316071229103,-0.8,1,258.0,636.0,1.0,346.0,1,0.9461008783063687
971,971,0.6675084193230059,0.7,0,383.0,578.0,0.0,929.0,1,0.6516182082472873
972,972,-0.43287488777549776,-0.4,1,329.0,720.0,1.0,591.0,1,0.2237958811681704
973,973,0.5768149563976039,0.6,0,394.0,867.0,0.0,519.0,1,0.5057835237028714
974,974,-0.17446492041210115,-0.2,1,312.0,866.0,1.0,1102.0,1,0.512998451144249
975,975,-0.20031886685800493,-0.2,1,409.0,685.0,1.0,3906.0,1,0.6147249230229305
976,976,0.3343200027892137,0.3,0,412.0,830.0,0.0,1778.0,1,0.7356444064695163
977,977,-0.3523138576035949,-0.4,1,420.0,985.0,1.0,3595.0,1,0.20615552844835328
978,978,0.5754549501573196,0.6,0,259.0,940.0,0.0,1061.0,1,0.46138510016954226
979,979,-0.2392470007240175,-0.2,1,315.0,889.0,1.0,2366.0,1,0.1533216491835715
980,980,0.27625924286839343,0.3,0,414.0,878.0,0.0,1358.0,1,0.4928159401807033
981,981,-0.2571167304156239,-0.3,1,409.0,503.0,1.0,1698.0,1,0.4603653012926664
982,982,0.8245860617730723,0.8,0,396.0,997.0,0.0,517.0,1,0.6284905508730274
983,983,0.5813378127130753,0.6,0,439.0,740.0,0.0,1401.0,1,0.425648596458888
984,984,-0.46355699068660505,-0.5,1,469.0,587.0,1.0,644.0,1,0.532888969561599
985,985,-0.5849999730899671,-0.6,1,476.0,571.0,1.0,573.0,1,0.3257835885007109
986,986,-0.22621056667354433,-0.2,1,443.0,946.0,1.0,921.0,1,0.6569442205365468
987,987,-0.8159448941783447,-0.8,1,383.0,675.0,1.0,532.0,1,0.9284187431178584
988,988,0.7784975510992547,0.8,0,361.0,578.0,0.0,941.0,1,0.7651873671749392
989,989,0.8022321987443193,0.8,0,437.0,623.0,0.0,280.0,1,0.3747983842859727
990,990,-0.8703007529169258,-0.9,1,427.0,873.0,1.0,440.0,1,0.7999874163925335
991,991,-0.4070490449613038,-0.4,1,387.0,854.0,1.0,1459.0,1,0.3986913985649463
992,992,0.5913141125807531,0.6,0,456.0,945.0,0.0,639.0,1,0.9730999863867158
993,993,0.8823961102747131,0.9,0,368.0,522.0,0.0,610.0,1,0.197008541684976
994,994,0.22860772758237835,0.2,0,304.0,591.0,0.0,2755.0,1,0.111788757177488
995,995,-0.4223941735697876,-0.4,1,353.0,737.0,1.0,1060.0,1,0.27078799456824393
996,996,0.3785628605305371,0.4,0,298.0,959.0,0.0,1353.0,1,0.49001184426734923
997,997,-0.8461173924714578,-0.8,1,395.0,707.0,1.0,638.0,1,0.43519913881165995
998,998,0.33625038400279794,0.3,0,494.0,734.0,0.0,1282.0,1,0.4520003451638718
999,999,0.3287567704931089,0.3,0,251.0,555.0,0.0,414.0,1,0.49560814666593445
1000,1000,0.44650667547778844,0.4,0,326.0,794.0,0.0,840.0,1,0.2535527696363423
1001,1001,0.08981841226803722,0.1,0,451.0,691.0,0.0,3858.0,1,0.410605136969601
1002,1002,0.8690641111733972,0.9,0,288.0,891.0,0.0,281.0,1,0.31927708451887016
1003,1003,-0.9339599851007239,-0.9,1,377.0,763.0,1.0,490.0,1,0.6202141666338873
1004,1004,-0.1880860235433035,-0.2,1,481.0,975.0,0.0,1264.0,0,0.36312619497279
1005,1005,-0.4142625065027983,-0.4,1,372.0,977.0,1.0,931.0,1,0.5108151946655961
1006,1006,0.7915899797397499,0.8,0,361.0,903.0,0.0,926.0,1,0.708094045596956
1007,1007,-0.8071742936730415,-0.8,1,496.0,539.0,1.0,655.0,1,0.560896047196693
1008,1008,-0.6175330100002838,-0.6,1,276.0,749.0,1.0,535.0,1,0.4294695087656718
1009,1009,-0.4215911473332299,-0.4,1,351.0,535.0,1.0,634.0,1,0.19094592134256783
1010,1010,-0.31913299999379263,-0.3,1,331.0,736.0,1.0,1003.0,1,0.6365004136279341
1011,1011,0.9347235425247291,0.9,0,483.0,675.0,0.0,242.0,1,0.796328938560156
1012,1012,-0.6025019114166952,-0.6,1,279.0,887.0,1.0,1814.0,1,0.32626289197215175
1013,1013,-0.6654499820101734,-0.7,1,253.0,767.0,1.0,1230.0,1,0.7929290806550774
1014,1014,-0.9783038638600219,-1.0,1,375.0,506.0,1.0,989.0,1,0.39071986800730985
1015,1015,-0.32781909247338836,-0.3,1,378.0,929.0,1.0,1023.0,1,0.4670168635194998
1016,1016,-0.7371628310055034,-0.7,1,329.0,915.0,1.0,976.0,1,0.1047191583910758
1017,1017,-0.7806045283834397,-0.8,1,484.0,777.0,1.0,709.0,1,0.12868735891985492
1018,1018,-0.6676427133389982,-0.7,1,430.0,788.0,1.0,1712.0,1,0.20372085339934393
1019,1019,0.6801350367502443,0.7,0,359.0,707.0,0.0,1554.0,1,0.35724788247292416
1020,1020,0.6772171826750073,0.7,0,365.0,593.0,0.0,1052.0,1,0.23722150813738158
1021,1021,-0.4046618867824594,-0.4,1,471.0,637.0,1.0,1012.0,1,0.41191085479280987
1022,1022,0.14389180814214364,0.1,0,447.0,799.0,0.0,3754.0,1,0.21064329150636357
1023,1023,-0.03317353760613173,-0.0,1,291.0,671.0,1.0,258.0,1,0.6132484879713225
1024,1024,-0.7822576177578802,-0.8,1,377.0,959.0,1.0,444.0,1,0.2743742608775187
1025,1025,0.5910042344782989,0.6,0,361.0,735.0,0.0,654.0,1,0.4416110107160143
1026,1026,0.05641527561677395,0.1,0,481.0,692.0,0.0,3827.0,1,0.5520092384969438
1027,1027,0.07645131162458574,0.1,0,393.0,666.0,0.0,2371.0,1,0.5536196500980315
1028,1028,-0.3621461813935112,-0.4,1,466.0,763.0,1.0,491.0,1,0.45653903067305135
1029,1029,-0.9519956223994686,-1.0,1,402.0,880.0,1.0,1208.0,1,0.32226839454016215
1030,1030,-0.9272907157899983,-0.9,1,349.0,614.0,1.0,457.0,1,0.34036265160504453
1031,1031,-0.2419565313299321,-0.2,1,343.0,538.0,1.0,1059.0,1,0.22386833126293862
1032,1032,0.9646069063277256,1.0,0,287.0,723.0,0.0,120.0,1,0.5869155786814588
1033,1033,-0.1595966020040116,-0.2,1,394.0,829.0,1.0,547.0,1,0.973615186144908
1034,1034,0.6332855803698767,0.6,0,328.0,884.0,0.0,518.0,1,0.1326665985662847
1035,1035,-0.05374966332070241,-0.1,1,360.0,737.0,0.0,3903.0,0,0.44002003817476054
1036,1036,0.6880329925742998,0.7,0,443.0,864.0,0.0,793.0,1,0.8381320611668709
1037,1037,0.8171854693543883,0.8,0,380.0,660.0,0.0,510.0,1,0.8964996437755951
1038,1038,-0.3530211818201421,-0.4,1,481.0,666.0,1.0,463.0,1,0.3662859808761537
1039,1039,0.5533564615279332,0.6,0,277.0,608.0,0.0,585.0,1,0.5937994364698329
1040,1040,-0.9537052220559517,-1.0,1,290.0,611.0,1.0,929.0,1,0.8126652384469987
1041,1041,0.055922500501127015,0.1,0,456.0,565.0,1.0,3979.0,0,0.34060049358531463
1042,1042,-0.16612126083282286,-0.2,1,281.0,834.0,1.0,1645.0,1,0.2497303785494313
1043,1043,0.5175424002785114,0.5,0,400.0,541.0,0.0,1209.0,1,0.9639690928380735
1044,1044,0.6076556521415151,0.6,0,496.0,999.0,0.0,1395.0,1,0.16823766547156666
1045,1045,0.6430850486358703,0.6,0,305.0,591.0,0.0,814.0,1,0.38183177039176974
1046,1046,0.9771479177417901,1.0,0,346.0,908.0,0.0,536.0,1,0.6031420341456332
1047,1047,0.760116546501729,0.8,0,332.0,850.0,0.0,628.0,1,0.5572972079404066
1048,1048,-0.23990267796157605,-0.2,1,494.0,561.0,1.0,655.0,1,0.9207683365590522
1049,1049,0.6105114566002559,0.6,0,418.0,600.0,0.0,812.0,1,0.9640344077418418
1050,1050,0.09925915208889968,0.1,0,479.0,600.0,1.0,3921.0,0,0.39364825706710727
1051,1051,-0.9907326848952029,-1.0,1,441.0,885.0,1.0,604.0,1,0.6847030646213575
1052,1052,-0.15835936967184017,-0.2,1,480.0,665.0,1.0,1295.0,1,0.33448729669529115
1053,1053,0.7346388484165742,0.7,0,411.0,650.0,0.0,439.0,1,0.9806444307683068
1054,1054,-0.2638656538708404,-0.3,1,345.0,925.0,1.0,790.0,1,0.4930973992414285
1055,1055,0.42327843141443955,0.4,0,498.0,829.0,0.0,1063.0,1,0.44988809025689325
1056,1056,-0.6319144833620292,-0.6,1,444.0,714.0,1.0,992.0,1,0.15625539711748723
1057,1057,0.9961273793026038,1.0,0,280.0,596.0,0.0,324.0,1,0.7058264948809597
1058,1058,0.7779798687695891,0.8,0,438.0,958.0,0.0,674.0,1,0.17969262695375532
1059,1059,0.2533166359303083,0.3,0,254.0,594.0,1.0,462.0,0,0.3931187510134164
1060,1060,0.9814240444904625,1.0,0,496.0,998.0,0.0,586.0,1,0.780306451402166
1061,1061,-0.9128160224085533,-0.9,1,440.0,982.0,1.0,1248.0,1,0.28072742121894334
1062,1062,-0.1693536984866384,-0.2,1,422.0,693.0,1.0,1575.0,1,0.7955316488891231
1063,1063,0.12360268671596142,0.1,0,387.0,923.0,1.0,1090.0,0,0.7160587811107874
1064,1064,-0.9172576534177566,-0.9,1,344.0,625.0,1.0,411.0,1,0.7883184646907804
1065,1065,-0.49377259243924887,-0.5,1,291.0,502.0,1.0,397.0,1,0.7082124210589056
1066,1066,-0.06684593349914691,-0.1,1,409.0,550.0,1.0,4041.0,1,0.29455463094225304
1067,1067,-0.35444683857874293,-0.4,1,299.0,827.0,1.0,744.0,1,0.8013232513916132
1068,1068,-0.4379024011132726,-0.4,1,348.0,536.0,1.0,1006.0,1,0.2881631328243805
1069,1069,0.5204122164791984,0.5,0,358.0,675.0,0.0,997.0,1,0.21752418358073944
1070,1070,-0.24226085412134024,-0.2,1,253.0,728.0,1.0,619.0,1,0.19586018752769419
1071,1071,-0.7199687218879887,-0.7,1,365.0,661.0,1.0,444.0,1,0.1844553544698851
1072,1072,-0.862505646928275,-0.9,1,439.0,695.0,1.0,436.0,1,0.4755560204068173
1073,1073,0.2829087877175005,0.3,0,374.0,851.0,0.0,1375.0,1,0.33203501293834004
1074,1074,0.1644914644769997,0.2,0,444.0,833.0,0.0,1583.0,1,0.2567683319929953
1075,1075,-0.9276913600289685,-0.9,1,362.0,815.0,1.0,643.0,1,0.5040642242596981
1076,1076,-0.48623270337633495,-0.5,1,374.0,920.0,1.0,546.0,1,0.145669086669132
1077,1077,0.4429478537132623,0.4,0,280.0,638.0,0.0,1122.0,1,0.707752367551201
1078,1078,-0.2806109156024401,-0.3,1,349.0,814.0,1.0,637.0,1,0.36548459991140525
1079,1079,-0.4781448324622126,-0.5,1,275.0,535.0,1.0,700.0,1,0.2216158733394537
1080,1080,0.7152115209985503,0.7,0,406.0,872.0,0.0,702.0,1,0.8326544759124593
1081,1081,0.33712030685333105,0.3,0,290.0,583.0,0.0,577.0,1,0.8714707429447199
1082,1082,-0.46346867085922083,-0.5,1,351.0,828.0,1.0,1091.0,1,0.5356295448663432
1083,1083,-0.0672170628929416,-0.1,1,476.0,688.0,0.0,2316.0,0,0.9276650216393126
1084,1084,-0.6905104363544032,-0.7,1,329.0,585.0,1.0,426.0,1,0.7484248450345279
1085,1085,0.20381469791911933,0.2,0,439.0,778.0,0.0,1463.0,1,0.5409724856240938
1086,1086,-0.2419707970142464,-0.2,1,278.0,947.0,1.0,1855.0,1,0.4230309573333946
1087,1087,-0.25014704848388103,-0.3,1,260.0,633.0,1.0,717.0,1,0.10244519161432344
1088,1088,0.9280564421126705,0.9,0,478.0,532.0,0.0,730.0,1,0.3848201883010862
1089,1089,-0.22157415329214047,-0.2,1,496.0,749.0,1.0,3165.0,1,0.763716281984631
1090,1090,0.649929989754576,0.6,0,443.0,978.0,0.0,1259.0,1,0.1458778385809149
1091,1091,0.053525537103787935,0.1,0,447.0,741.0,0.0,3812.0,1,0.33365100215705223
1092,1092,-0.6757686844325019,-0.7,1,279.0,772.0,1.0,1179.0,1,0.5888102488970516
1093,1093,-0.46209736499408893,-0.5,1,386.0,753.0,1.0,851.0,1,0.9680178160280718
1094,1094,-0.48911864583991904,-0.5,1,265.0,610.0,1.0,705.0,1,0.5032445625856614
1095,1095,-0.8731223945142148,-0.9,1,363.0,708.0,1.0,749.0,1,0.5972887030912694
1096,1096,0.2864139783409585,0.3,0,417.0,871.0,0.0,852.0,1,0.9497698328584512
1097,1097,0.7827878016308172,0.8,0,362.0,759.0,0.0,669.0,1,0.5031716060861103
1098,1098,-0.4672036094405476,-0.5,1,480.0,811.0,1.0,1189.0,1,0.5584589087044874
1099,1099,0.7728603371373104,0.8,0,434.0,626.0,0.0,1440.0,1,0.1700193917376172
1100,1100,0.5488898800377349,0.5,0,442.0,596.0,0.0,962.0,1,0.4838988925174621
1101,1101,-0.5955884196723329,-0.6,1,493.0,694.0,1.0,633.0,1,0.6538385881776654
1102,1102,-0.599325240985668,-0.6,1,377.0,942.0,1.0,331.0,1,0.7314042160113722
1103,1103,-0.982987183314249,-1.0,1,361.0,508.0,1.0,881.0,1,0.4198663277946726
1104,1104,-0.3520066387246499,-0.4,1,464.0,753.0,1.0,383.0,1,0.22083030476553872
1105,1105,-0.5642564803709991,-0.6,1,362.0,868.0,1.0,510.0,1,0.7883219113601856
1106,1106,-0.46499561148553914,-0.5,1,385.0,871.0,1.0,544.0,1,0.6220947407147934
1107,1107,0.4487443845150454,0.4,0,295.0,565.0,0.0,700.0,1,0.3908906027175816
1108,1108,0.7048911726088121,0.7,0,287.0,569.0,0.0,294.0,1,0.6153476917707237
1109,1109,0.6449790365684924,0.6,0,422.0,755.0,0.0,683.0,1,0.42145512090586223
1110,1110,0.8551670629237591,0.9,0,369.0,905.0,0.0,646.0,1,0.2907598255478468
1111,1111,-0.04159821310703227,-0.0,1,362.0,736.0,1.0,2572.0,1,0.5325900474002151
1112,1112,0.10690352938719805,0.1,0,293.0,514.0,0.0,1473.0,1,0.14088967045200532
1113,1113,0.6998852556756259,0.7,0,382.0,851.0,0.0,677.0,1,0.21114227861529045
1114,1114,-0.47281304070800556,-0.5,1,437.0,601.0,1.0,792.0,1,0.5371439680171718
1115,1115,-0.4021703515453936,-0.4,1,396.0,886.0,1.0,1268.0,1,0.11068328971649984
1116,1116,-0.7550582160593586,-0.8,1,327.0,895.0,1.0,508.0,1,0.9186396154980258
1117,1117,0.3131456703450679,0.3,0,280.0,580.0,0.0,790.0,1,0.6992586481555305
1118,1118,-0.6683953210320497,-0.7,1,398.0,611.0,1.0,1561.0,1,0.18709048620695312
1119,1119,-0.42064121731740656,-0.4,1,253.0,824.0,1.0,833.0,1,0.62783604010557
1120,1120,-0.6214499524834058,-0.6,1,424.0,848.0,1.0,1408.0,1,0.5695558166718163
1121,1121,0.3067382013553517,0.3,0,286.0,693.0,0.0,1441.0,1,0.7091505038656677
1122,1122,0.5028479681785094,0.5,0,361.0,705.0,0.0,724.0,1,0.6897508994275304
1123,1123,-0.34063379658196413,-0.3,1,332.0,698.0,1.0,3290.0,1,0.7885252710928617
1124,1124,-0.6183317851442083,-0.6,1,321.0,659.0,1.0,750.0,1,0.8878117100128684
1125,1125,-0.7122274975435021,-0.7,1,378.0,918.0,1.0,734.0,1,0.8765518542224476
1126,1126,-0.6231283921012822,-0.6,1,281.0,545.0,1.0,514.0,1,0.5255011263875072
1127,1127,-0.7219137697685203,-0.7,1,256.0,784.0,1.0,430.0,1,0.9506834049739005
1128,1128,-0.9647556530243333,-1.0,1,431.0,532.0,1.0,1087.0,1,0.1261300872080659
1129,1129,-0.9200327861265181,-0.9,1,470.0,894.0,1.0,536.0,1,0.531895031669538
1130,1130,-0.8991879914644956,-0.9,1,365.0,852.0,1.0,463.0,1,0.7980478916373474
1131,1131,-0.22807393211407057,-0.2,1,405.0,530.0,1.0,925.0,1,0.5228315701128516
1132,1132,0.7041326501577487,0.7,0,439.0,939.0,0.0,1052.0,1,0.38120236340572133
1133,1133,-0.10995699048875629,-0.1,1,450.0,793.0,1.0,1167.0,1,0.6872958771975433
1134,1134,0.08808649442651717,0.1,0,405.0,958.0,0.0,3637.0,1,0.3429052044270725
1135,1135,0.777155412848614,0.8,0,457.0,735.0,0.0,618.0,1,0.9842147689708691
1136,1136,-0.6009496941422583,-0.6,1,422.0,910.0,1.0,468.0,1,0.7279586812551831
1137,1137,0.1630666749792089,0.2,0,428.0,535.0,0.0,4037.0,1,0.6167819651881259
1138,1138,0.09544721370731857,0.1,0,280.0,928.0,0.0,1192.0,1,0.38878844432842186
1139,1139,-0.05319543105392488,-0.1,1,307.0,737.0,0.0,3956.0,0,0.17851050093079868
1140,1140,-0.001229251543345411,-0.0,1,260.0,571.0,1.0,4169.0,1,0.5586287173104069
1141,1141,0.7020357110282129,0.7,0,398.0,858.0,0.0,454.0,1,0.6019922957195495
1142,1142,-0.9824188988064393,-1.0,1,318.0,569.0,1.0,553.0,1,0.5410532539127569
1143,1143,-0.6188570130384945,-0.6,1,381.0,702.0,1.0,357.0,1,0.6061441702639032
1144,1144,0.7301750733790604,0.7,0,271.0,709.0,0.0,470.0,1,0.353856291522225
1145,1145,0.49134984535444093,0.5,0,301.0,516.0,0.0,1123.0,1,0.1876234386627948
1146,1146,0.47828364926962164,0.5,0,452.0,670.0,0.0,1228.0,1,0.8356897982737153
1147,1147,0.20988833132505236,0.2,0,264.0,522.0,0.0,1064.0,1,0.7817336407258577
1148,1148,0.6478873900893245,0.6,0,484.0,959.0,0.0,707.0,1,0.6574261490626243
1149,1149,-0.600788335459479,-0.6,1,343.0,974.0,1.0,373.0,1,0.9023986249633978
1150,1150,0.13408372858387008,0.1,0,472.0,532.0,0.0,1436.0,1,0.6242398849246082
1151,1151,-0.6964986649685672,-0.7,1,408.0,517.0,1.0,635.0,1,0.8382013217651199
1152,1152,-0.21629608628009778,-0.2,1,362.0,660.0,1.0,848.0,1,0.9485054711722191
1153,1153,-0.28971633369245486,-0.3,1,295.0,522.0,1.0,703.0,1,0.48501528907598346
1154,1154,-0.1535808961590024,-0.2,1,430.0,699.0,1.0,2021.0,1,0.9236554073063612
1155,1155,0.359389494877147,0.4,0,291.0,751.0,0.0,838.0,1,0.10540339406571869
1156,1156,-0.5974639461985298,-0.6,1,413.0,508.0,1.0,539.0,1,0.9514645140269784
1157,1157,-0.3574886626833016,-0.4,1,396.0,514.0,1.0,1490.0,1,0.9426823392751462
1158,1158,-0.32948781552865714,-0.3,1,331.0,822.0,1.0,2167.0,1,0.4205356884809037
1159,1159,-0.8796666803743558,-0.9,1,410.0,915.0,1.0,765.0,1,0.2846432586871839
1160,1160,-0.8159924031770653,-0.8,1,272.0,591.0,1.0,527.0,1,0.36344538956247086
1161,1161,-0.563444946566191,-0.6,1,290.0,533.0,1.0,507.0,1,0.6851916468003887
1162,1162,-0.7913630191104575,-0.8,1,436.0,995.0,1.0,599.0,1,0.3124737138645739
1163,1163,0.17168898926800003,0.2,0,491.0,964.0,0.0,3545.0,1,0.14536552378959164
1164,1164,0.49206612784554404,0.5,0,419.0,913.0,0.0,898.0,1,0.4303683561822592
1165,1165,-0.13109661260775907,-0.1,1,486.0,687.0,1.0,547.0,1,0.6344365109976463
1166,1166,-0.521996045960265,-0.5,1,448.0,674.0,1.0,568.0,1,0.40612294915058866
1167,1167,0.9644285591037156,1.0,0,253.0,668.0,0.0,719.0,1,0.40243020877017954
1168,1168,-0.08260108561465729,-0.1,1,356.0,728.0,1.0,666.0,1,0.984341906773452
1169,1169,0.5049360369983587,0.5,0,254.0,510.0,0.0,606.0,1,0.32096610269499076
1170,1170,-0.28150604541048696,-0.3,1,305.0,618.0,1.0,737.0,1,0.247665945595488
1171,1171,0.6045974123469604,0.6,0,325.0,912.0,0.0,463.0,1,0.42961712432806864
1172,1172,-0.1521500151113786,-0.2,1,278.0,853.0,1.0,1069.0,1,0.1773356319113069
1173,1173,-0.43504356685720924,-0.4,1,486.0,797.0,1.0,597.0,1,0.8100345009141375
1174,1174,-0.7640651526418318,-0.8,1,488.0,737.0,1.0,615.0,1,0.5757557049890916
1175,1175,-0.6159433426985943,-0.6,1,477.0,851.0,1.0,1962.0,1,0.14860435284034162
1176,1176,-0.41383131206466905,-0.4,1,320.0,769.0,1.0,1191.0,1,0.8348071185912168
1177,1177,0.9695338674226173,1.0,0,395.0,601.0,0.0,184.0,1,0.2810924574582751
1178,1178,-0.9477074500456144,-0.9,1,423.0,816.0,1.0,621.0,1,0.5044906575890075
1179,1179,0.3128707222988938,0.3,0,490.0,773.0,0.0,1707.0,1,0.4430881828976524
1180,1180,-0.8795661884815351,-0.9,1,451.0,788.0,1.0,721.0,1,0.4172095077855045
1181,1181,0.8088381657261103,0.8,0,329.0,938.0,0.0,693.0,1,0.42259225743540796
1182,1182,-0.33980523183175393,-0.3,1,282.0,516.0,1.0,2012.0,1,0.39784532384823246
1183,1183,-0.5012528817068866,-0.5,1,458.0,666.0,1.0,396.0,1,0.7195523841011432
1184,1184,-0.5673588008956174,-0.6,1,334.0,935.0,1.0,601.0,1,0.16453464110294774
1185,1185,0.1360431396038284,0.1,0,399.0,795.0,0.0,1616.0,1,0.13874399204016424
1186,1186,0.4683387174456053,0.5,0,474.0,885.0,0.0,1071.0,1,0.7231324297145062
1187,1187,0.9855339383191859,1.0,0,464.0,507.0,0.0,309.0,1,0.6963076439710062
1188,1188,-0.35794969437303514,-0.4,1,478.0,666.0,1.0,496.0,1,0.8376086491841586
1189,1189,0.6214996920935845,0.6,0,444.0,564.0,0.0,392.0,1,0.7725720566387692
1190,1190,0.8738516401016756,0.9,0,315.0,645.0,0.0,830.0,1,0.1567412869186202
1191,1191,0.6736314241371442,0.7,0,472.0,702.0,0.0,956.0,1,0.22282647463534583
1192,1192,-0.5341533900531596,-0.5,1,397.0,591.0,1.0,762.0,1,0.9329169531141328
1193,1193,-0.6942322523650097,-0.7,1,365.0,942.0,1.0,1613.0,1,0.30344655704934986
1194,1194,0.8699031722968276,0.9,0,425.0,599.0,0.0,476.0,1,0.8640113135805797
1195,1195,0.6535539224393614,0.7,0,255.0,532.0,0.0,933.0,1,0.6115512488405808
1196,1196,-0.11687789940653315,-0.1,1,452.0,629.0,1.0,1329.0,1,0.4856061566442399
1197,1197,-0.9562403978305978,-1.0,1,309.0,555.0,1.0,646.0,1,0.7363266271001011
1198,1198,-0.5046780655918726,-0.5,1,484.0,598.0,1.0,1178.0,1,0.3216795091019999
1199,1199,-0.9984412096050841,-1.0,1,486.0,853.0,1.0,681.0,1,0.5833762529286609
1200,1200,0.8787462887382174,0.9,0,325.0,813.0,0.0,302.0,1,0.7380777666157426
1201,1201,0.8606978044184901,0.9,0,343.0,855.0,0.0,332.0,1,0.9659613755683693
1202,1202,0.7969854833372618,0.8,0,283.0,648.0,0.0,579.0,1,0.8729078749328117
1203,1203,0.3036545779406914,0.3,0,478.0,858.0,0.0,664.0,1,0.6441749384118955
1204,1204,-0.12828734141823972,-0.1,1,354.0,729.0,1.0,1987.0,1,0.7514618805375664
1205,1205,-0.31597615099009,-0.3,1,311.0,822.0,1.0,617.0,1,0.5036415255497115
1206,1206,-0.5679123059468334,-0.6,1,396.0,644.0,1.0,540.0,1,0.30518903423875576
1207,1207,-0.8898882885386077,-0.9,1,317.0,709.0,1.0,434.0,1,0.5522410008980116
1208,1208,-0.9859723152401343,-1.0,1,498.0,815.0,1.0,447.0,1,0.6782250699949178
1209,1209,-0.09884067760660642,-0.1,1,384.0,871.0,1.0,675.0,1,0.9245459600800691
1210,1210,0.8477869738997055,0.8,0,396.0,877.0,0.0,737.0,1,0.44186376055817833
1211,1211,-0.7837551228735604,-0.8,1,314.0,826.0,1.0,550.0,1,0.9611043810324709
1212,1212,-0.793349182614526,-0.8,1,401.0,613.0,1.0,606.0,1,0.5673077190765062
1213,1213,0.7325019782393971,0.7,0,480.0,720.0,0.0,470.0,1,0.6788549663032241
1214,1214,0.33284348188914215,0.3,0,294.0,863.0,0.0,1133.0,1,0.30174519687474455
1215,1215,-0.6745479067414659,-0.7,1,325.0,780.0,1.0,1395.0,1,0.18582425114402598
1216,1216,0.7206764539504331,0.7,0,464.0,637.0,0.0,659.0,1,0.7663932085673187
1217,1217,-0.6805647436504201,-0.7,1,472.0,790.0,1.0,958.0,1,0.37700476994319754
1218,1218,0.4798879293450524,0.5,0,436.0,930.0,0.0,1654.0,1,0.718755910889767
1219,1219,-0.2546712595017804,-0.3,1,263.0,936.0,1.0,1101.0,1,0.6229440790159854
1220,1220,-0.4726624263622081,-0.5,1,322.0,730.0,1.0,418.0,1,0.7432521409508333
1221,1221,0.6789855171440689,0.7,0,373.0,994.0,0.0,993.0,1,0.9010385233167107
1222,1222,-0.3819960734816559,-0.4,1,496.0,932.0,1.0,562.0,1,0.5179142726643091
1223,1223,0.8643354191421,0.9,0,458.0,706.0,0.0,566.0,1,0.35018713557925074
1224,1224,0.8135262679105302,0.8,0,357.0,709.0,0.0,624.0,1,0.20266705185089312
1225,1225,-0.9736200728368043,-1.0,1,451.0,549.0,1.0,880.0,1,0.5298849016555427
1226,1226,-0.9522884511075005,-1.0,1,480.0,640.0,1.0,390.0,1,0.5692261687964729
1227,1227,-0.07108282080861072,-0.1,1,390.0,501.0,1.0,4109.0,1,0.7203267189677642
1228,1228,-0.1349569380912019,-0.1,1,481.0,641.0,1.0,458.0,1,0.9846048829305032
1229,1229,-0.2725565323589201,-0.3,1,419.0,795.0,1.0,1066.0,1,0.7810432217139319
1230,1230,-0.6755953510067756,-0.7,1,458.0,868.0,1.0,364.0,1,0.8328415927100445
1231,1231,-0.268221155394448,-0.3,1,281.0,643.0,1.0,766.0,1,0.3183300493083909
1232,1232,-0.8930400376196939,-0.9,1,363.0,938.0,1.0,269.0,1,0.12506671166077765
1233,1233,-0.715786412942574,-0.7,1,305.0,514.0,1.0,831.0,1,0.19587015856159962
1234,1234,0.346995835379015,0.3,0,282.0,760.0,0.0,1558.0,1,0.5000893603883115
1235,1235,-0.6914896440638829,-0.7,1,476.0,596.0,1.0,548.0,1,0.7375183198624319
1236,1236,-0.7582072358599581,-0.8,1,442.0,717.0,1.0,771.0,1,0.9694129291963014
1237,1237,0.44630085048870005,0.4,0,421.0,839.0,0.0,2970.0,1,0.547970198575526
1238,1238,-0.04307796163383393,-0.0,1,274.0,874.0,1.0,1962.0,1,0.48785363994807285
1239,1239,0.1684398402688172,0.2,0,371.0,947.0,0.0,922.0,1,0.33247231717739834
1240,1240,0.5974964916213699,0.6,0,472.0,645.0,0.0,1393.0,1,0.22057747202287586
1241,1241,0.9084238791056705,0.9,0,313.0,600.0,0.0,147.0,1,0.6352519146859922
1242,1242,-0.6072030455426081,-0.6,1,388.0,898.0,1.0,1244.0,1,0.5346578299746132
1243,1243,-0.08143902918908608,-0.1,1,413.0,588.0,1.0,1959.0,1,0.6626577985720027
1244,1244,0.21342319368517515,0.2,0,492.0,568.0,0.0,990.0,1,0.2942686191486539
1245,1245,0.4684782192386281,0.5,0,429.0,513.0,0.0,698.0,1,0.6035496388443984
1246,1246,0.4808739463890406,0.5,0,354.0,706.0,0.0,620.0,1,0.7826829473240741
1247,1247,0.6132477246256998,0.6,0,366.0,512.0,0.0,1172.0,1,0.270103366013333
1248,1248,-0.7046912679952495,-0.7,1,462.0,727.0,1.0,1181.0,1,0.1840479492074169
1249,1249,-0.9765274079369792,-1.0,1,350.0,970.0,1.0,600.0,1,0.750158218432711
1250,1250,0.38238022107019054,0.4,0,364.0,581.0,0.0,715.0,1,0.43372443184075804
1251,1251,-0.4299017819063715,-0.4,1,297.0,856.0,1.0,687.0,1,0.6815047242263133
1252,1252,0.2607738613413315,0.3,0,350.0,951.0,0.0,2579.0,1,0.27784631754738165
1253,1253,0.21010631235232924,0.2,0,481.0,686.0,0.0,843.0,1,0.6444904349017921
1254,1254,0.0359449876190816,0.0,0,484.0,565.0,1.0,2181.0,0,0.9893146344653957
1255,1255,-0.053158332884511106,-0.1,1,258.0,837.0,1.0,1575.0,1,0.5207948393286266
1256,1256,-0.11051144146766023,-0.1,1,296.0,742.0,1.0,3572.0,1,0.7776748947031106
1257,1257,0.2120153442944439,0.2,0,263.0,947.0,0.0,2830.0,1,0.7283622901121704
1258,1258,0.14705448899124596,0.1,0,406.0,578.0,1.0,2956.0,0,0.6173023051178228
1259,1259,-0.13325390301090967,-0.1,1,494.0,765.0,1.0,3741.0,1,0.18842292111212333
1260,1260,0.8642326707027597,0.9,0,377.0,510.0,0.0,493.0,1,0.6115204199376604
1261,1261,-0.8121446374447157,-0.8,1,465.0,935.0,1.0,530.0,1,0.3633757223909687
1262,1262,0.8838820425807261,0.9,0,310.0,944.0,0.0,226.0,1,0.9262170041326228
1263,1263,-0.881404227290755,-0.9,1,364.0,576.0,1.0,730.0,1,0.4520325213642261
1264,1264,-0.18336258255214366,-0.2,1,402.0,593.0,1.0,3475.0,1,0.6830488023758465
1265,1265,0.7297221615195129,0.7,0,259.0,576.0,0.0,775.0,1,0.34323757896022555
1266,1266,0.8738186564357608,0.9,0,377.0,521.0,0.0,432.0,1,0.5616583791492246
1267,1267,0.7954421806925491,0.8,0,399.0,810.0,0.0,611.0,1,0.7292586054985469
1268,1268,-0.5345687951941174,-0.5,1,449.0,519.0,1.0,652.0,1,0.19913481665117594
1269,1269,0.19083574717771867,0.2,0,473.0,504.0,0.0,1123.0,1,0.43941579498774386
1270,1270,0.598976860467048,0.6,0,274.0,514.0,0.0,572.0,1,0.9409275295758335
1271,1271,0.5875555111724213,0.6,0,469.0,866.0,0.0,1065.0,1,0.36419495760299014
1272,1272,-0.531475012655755,-0.5,1,282.0,513.0,1.0,635.0,1,0.5100963029439596
1273,1273,0.4681213770375523,0.5,0,445.0,704.0,0.0,531.0,1,0.512103080623768
1274,1274,0.8249000203480203,0.8,0,499.0,757.0,0.0,734.0,1,0.13072037373589676
1275,1275,0.44982899318431113,0.4,0,364.0,981.0,0.0,3195.0,1,0.4294264652996027
1276,1276,0.3456200300602028,0.3,0,397.0,818.0,0.0,985.0,1,0.8584621755613295
1277,1277,-0.16164033346850748,-0.2,1,427.0,533.0,1.0,1110.0,1,0.7101821508478509
1278,1278,0.2843900976054885,0.3,0,430.0,596.0,0.0,1294.0,1,0.9265869347277381
