,trial,coherence,coherence_bin,green_side,correct_side,target_onset,checker_onset,decision,green_decision,decision_time,correct_decision
0,0,-0.221977046300037,-0.2,1.0,0.0,403.0,859.0,0.0,0,3148.0,1
1,1,0.3700798389278753,0.4,1.0,1.0,398.0,895.0,1.0,1,227.0,1
2,2,-0.16883442943200766,-0.2,1.0,0.0,465.0,549.0,0.0,0,1556.0,1
3,3,-0.37583343325561935,-0.4,1.0,0.0,309.0,740.0,0.0,0,601.0,1
4,4,0.027197202568573053,0.0,1.0,1.0,258.0,576.0,1.0,1,1056.0,1
5,5,0.3341924688255452,0.3,1.0,1.0,499.0,995.0,1.0,1,146.0,1
6,6,0.7537588958365004,0.8,0.0,0.0,431.0,791.0,0.0,1,188.0,1
7,7,0.8165699085700086,0.8,1.0,1.0,260.0,895.0,1.0,1,225.0,1
8,8,-0.07111227641012041,-0.1,0.0,1.0,258.0,673.0,1.0,0,1699.0,1
9,9,0.1905604397861943,0.2,0.0,0.0,498.0,947.0,0.0,1,615.0,1
10,10,0.5988741772586773,0.6,0.0,0.0,343.0,811.0,0.0,1,286.0,1
11,11,0.16162365824191383,0.2,0.0,0.0,291.0,925.0,0.0,1,1734.0,1
12,12,-0.4451907982068065,-0.4,0.0,1.0,420.0,594.0,1.0,0,216.0,1
13,13,0.21581867217505868,0.2,1.0,1.0,476.0,860.0,1.0,1,624.0,1
14,14,0.5366562190964296,0.5,1.0,1.0,394.0,909.0,1.0,1,247.0,1
15,15,0.47397791872075457,0.5,0.0,0.0,488.0,865.0,0.0,1,137.0,1
16,16,0.08758169166990182,0.1,1.0,1.0,397.0,611.0,1.0,1,782.0,1
17,17,-0.20824606368802379,-0.2,1.0,0.0,281.0,730.0,0.0,0,1179.0,1
18,18,0.4918462896702972,0.5,1.0,1.0,289.0,751.0,1.0,1,170.0,1
19,19,-0.5720233831005541,-0.6,1.0,0.0,370.0,960.0,0.0,0,210.0,1
20,20,-0.28005058868738275,-0.3,1.0,0.0,253.0,558.0,0.0,0,819.0,1
21,21,0.29020693507244755,0.3,1.0,1.0,431.0,727.0,1.0,1,492.0,1
22,22,0.11454490709194987,0.1,1.0,1.0,429.0,759.0,1.0,1,622.0,1
23,23,-0.20871956018704896,-0.2,1.0,0.0,315.0,961.0,0.0,0,454.0,1
24,24,0.005227361837549016,0.0,0.0,0.0,486.0,939.0,1.0,0,345.0,0
25,25,0.10067696628127754,0.1,0.0,0.0,426.0,519.0,0.0,1,4055.0,1
26,26,-0.6259674387297512,-0.6,0.0,1.0,330.0,741.0,1.0,0,89.0,1
27,27,-0.8156352735123801,-0.8,1.0,0.0,422.0,728.0,0.0,0,280.0,1
28,28,-0.15362672566737745,-0.2,0.0,1.0,370.0,823.0,1.0,0,767.0,1
29,29,0.10405101012952234,0.1,0.0,0.0,459.0,843.0,0.0,1,3698.0,1
30,30,0.00454498610724785,0.0,1.0,1.0,322.0,611.0,1.0,1,1857.0,1
31,31,0.03045157820920541,0.0,1.0,1.0,398.0,542.0,1.0,1,710.0,1
32,32,-0.770523377001147,-0.8,1.0,0.0,322.0,525.0,0.0,0,433.0,1
33,33,0.03480986155182231,0.0,0.0,0.0,340.0,995.0,1.0,0,965.0,0
34,34,-0.128819922563281,-0.1,0.0,1.0,340.0,651.0,1.0,0,309.0,1
35,35,-0.12913029196021664,-0.1,0.0,1.0,371.0,830.0,1.0,0,389.0,1
36,36,-0.07143483170631293,-0.1,1.0,0.0,441.0,712.0,1.0,1,1257.0,0
37,37,0.7418149823866284,0.7,0.0,0.0,391.0,675.0,0.0,1,294.0,1
38,38,0.07505429435706157,0.1,1.0,1.0,286.0,527.0,1.0,1,407.0,1
39,39,-0.7867677461356357,-0.8,0.0,1.0,429.0,991.0,1.0,0,110.0,1
40,40,-0.5372194864547841,-0.5,0.0,1.0,470.0,713.0,1.0,0,197.0,1
41,41,0.3932017370916475,0.4,1.0,1.0,437.0,925.0,1.0,1,98.0,1
42,42,0.3046183646346782,0.3,0.0,0.0,320.0,783.0,0.0,1,827.0,1
43,43,0.5063889315306095,0.5,0.0,0.0,478.0,848.0,0.0,1,194.0,1
44,44,-0.6962595779812188,-0.7,0.0,1.0,464.0,954.0,1.0,0,122.0,1
45,45,-0.7505587853936435,-0.8,0.0,1.0,271.0,649.0,1.0,0,150.0,1
46,46,0.12139903324092327,0.1,0.0,0.0,347.0,690.0,0.0,1,3493.0,1
47,47,-0.1666099066686979,-0.2,1.0,0.0,391.0,722.0,0.0,0,1107.0,1
48,48,0.499900993425035,0.5,1.0,1.0,459.0,868.0,1.0,1,423.0,1
49,49,0.10313481533012292,0.1,1.0,1.0,398.0,631.0,1.0,1,781.0,1
50,50,-0.6843602723739326,-0.7,1.0,0.0,397.0,769.0,0.0,0,144.0,1
51,51,-0.8848323108165205,-0.9,0.0,1.0,306.0,736.0,1.0,0,198.0,1
52,52,0.5648146449132913,0.6,1.0,1.0,406.0,798.0,1.0,1,466.0,1
53,53,0.21996683817088736,0.2,0.0,0.0,412.0,955.0,0.0,1,653.0,1
54,54,-0.6984875904180986,-0.7,1.0,0.0,432.0,717.0,0.0,0,291.0,1
55,55,0.49822872673261276,0.5,0.0,0.0,360.0,963.0,0.0,1,397.0,1
56,56,0.7525021426283359,0.8,0.0,0.0,442.0,554.0,0.0,1,304.0,1
57,57,-0.5031157503300298,-0.5,0.0,1.0,484.0,806.0,1.0,0,210.0,1
58,58,-0.061685381092977165,-0.1,0.0,1.0,339.0,706.0,1.0,0,575.0,1
59,59,0.8387713455321987,0.8,0.0,0.0,421.0,572.0,0.0,1,237.0,1
60,60,0.7956888504449952,0.8,0.0,0.0,434.0,699.0,0.0,1,497.0,1
61,61,0.04906816061648078,0.0,1.0,1.0,437.0,917.0,1.0,1,926.0,1
62,62,0.6872830639070823,0.7,1.0,1.0,454.0,976.0,1.0,1,250.0,1
63,63,-0.5382079186766855,-0.5,0.0,1.0,253.0,511.0,1.0,0,656.0,1
64,64,-0.4086356785946223,-0.4,0.0,1.0,257.0,936.0,1.0,0,267.0,1
65,65,-0.7098292695266324,-0.7,1.0,0.0,491.0,741.0,0.0,0,368.0,1
66,66,0.5824483537380728,0.6,0.0,0.0,376.0,924.0,0.0,1,370.0,1
67,67,0.8387110888835053,0.8,0.0,0.0,488.0,718.0,0.0,1,114.0,1
68,68,0.057087668514648526,0.1,1.0,1.0,306.0,853.0,1.0,1,2121.0,1
69,69,-0.4224248913366499,-0.4,1.0,0.0,480.0,736.0,0.0,0,584.0,1
70,70,0.6237277476363393,0.6,0.0,0.0,309.0,787.0,0.0,1,334.0,1
71,71,0.6715174613080422,0.7,0.0,0.0,398.0,613.0,0.0,1,349.0,1
72,72,0.8841912761696943,0.9,0.0,0.0,472.0,743.0,0.0,1,195.0,1
73,73,-0.1017760216709036,-0.1,0.0,1.0,284.0,669.0,1.0,0,1247.0,1
74,74,0.8654145306705795,0.9,1.0,1.0,341.0,818.0,1.0,1,181.0,1
75,75,0.36256753230657346,0.4,0.0,0.0,306.0,772.0,0.0,1,332.0,1
76,76,-0.06779471819329197,-0.1,1.0,0.0,483.0,544.0,1.0,1,1303.0,0
77,77,-0.2739431665447365,-0.3,0.0,1.0,312.0,573.0,1.0,0,405.0,1
78,78,-0.7595092613807999,-0.8,0.0,1.0,352.0,929.0,1.0,0,-21.0,1
79,79,0.32879820706780116,0.3,0.0,0.0,338.0,674.0,0.0,1,508.0,1
80,80,-0.4805022402558974,-0.5,1.0,0.0,323.0,839.0,0.0,0,258.0,1
81,81,-0.10056941029127908,-0.1,1.0,0.0,290.0,708.0,1.0,1,722.0,0
82,82,-0.8510323170867672,-0.9,1.0,0.0,361.0,515.0,0.0,0,524.0,1
83,83,0.7338337965257283,0.7,0.0,0.0,484.0,893.0,0.0,1,163.0,1
84,84,0.4662310694514754,0.5,1.0,1.0,348.0,835.0,1.0,1,447.0,1
85,85,0.058061723501097284,0.1,0.0,0.0,275.0,893.0,1.0,0,282.0,0
86,86,0.14952670702979065,0.1,1.0,1.0,258.0,858.0,1.0,1,704.0,1
87,87,-0.17585763915754726,-0.2,1.0,0.0,398.0,931.0,0.0,0,3671.0,1
88,88,-0.6407911237406608,-0.6,1.0,0.0,464.0,599.0,0.0,0,357.0,1
89,89,-0.0014752814818870252,-0.0,0.0,1.0,275.0,959.0,1.0,0,2856.0,1
90,90,0.05628318361996887,0.1,1.0,1.0,362.0,968.0,1.0,1,120.0,1
91,91,-0.8016675537212518,-0.8,0.0,1.0,474.0,566.0,1.0,0,270.0,1
92,92,0.1459378234533325,0.1,1.0,1.0,408.0,641.0,1.0,1,741.0,1
93,93,0.16596243393873367,0.2,0.0,0.0,328.0,619.0,0.0,1,623.0,1
94,94,-0.4323163018900446,-0.4,0.0,1.0,322.0,778.0,1.0,0,210.0,1
95,95,-0.007079857152841096,-0.0,1.0,0.0,428.0,748.0,1.0,1,3824.0,0
96,96,-0.8407620235197272,-0.8,1.0,0.0,451.0,794.0,0.0,0,345.0,1
97,97,0.32592152881155456,0.3,0.0,0.0,388.0,767.0,0.0,1,345.0,1
98,98,0.3844114408528233,0.4,0.0,0.0,392.0,714.0,0.0,1,314.0,1
99,99,-0.5100866247079058,-0.5,0.0,1.0,409.0,758.0,1.0,0,273.0,1
100,100,-0.22258481053610524,-0.2,0.0,1.0,326.0,529.0,1.0,0,1075.0,1
101,101,-0.3742527851807148,-0.4,1.0,0.0,273.0,967.0,0.0,0,1090.0,1
102,102,0.047049111472494465,0.0,0.0,0.0,484.0,841.0,1.0,0,865.0,0
103,103,0.16983017258405508,0.2,1.0,1.0,465.0,902.0,1.0,1,303.0,1
104,104,0.28053743440904444,0.3,0.0,0.0,414.0,816.0,0.0,1,620.0,1
105,105,0.2917833185087747,0.3,1.0,1.0,375.0,927.0,1.0,1,358.0,1
106,106,-0.15638327338518898,-0.2,1.0,0.0,454.0,521.0,1.0,1,995.0,0
107,107,0.6317121911181588,0.6,1.0,1.0,250.0,548.0,1.0,1,342.0,1
108,108,-0.8312809231769478,-0.8,0.0,1.0,369.0,833.0,1.0,0,128.0,1
109,109,0.2817364777761727,0.3,1.0,1.0,392.0,531.0,1.0,1,327.0,1
110,110,0.8459294385327195,0.8,1.0,1.0,253.0,913.0,1.0,1,174.0,1
111,111,-0.10435395847578555,-0.1,1.0,0.0,363.0,692.0,1.0,1,3945.0,0
112,112,-0.08865634960041469,-0.1,0.0,1.0,307.0,992.0,1.0,0,161.0,1
113,113,0.1652958787732065,0.2,1.0,1.0,279.0,570.0,1.0,1,501.0,1
114,114,-0.7401503579314157,-0.7,0.0,1.0,288.0,924.0,1.0,0,158.0,1
115,115,0.3754964388941072,0.4,1.0,1.0,389.0,534.0,1.0,1,337.0,1
116,116,0.668060227131862,0.7,0.0,0.0,432.0,539.0,0.0,1,319.0,1
117,117,0.8013867541312679,0.8,1.0,1.0,495.0,921.0,1.0,1,164.0,1
118,118,0.7646931624778913,0.8,1.0,1.0,433.0,967.0,1.0,1,150.0,1
119,119,0.34479293976702186,0.3,0.0,0.0,356.0,809.0,0.0,1,725.0,1
120,120,0.7510835604292737,0.8,1.0,1.0,467.0,758.0,1.0,1,285.0,1
121,121,0.2575280447891152,0.3,1.0,1.0,280.0,944.0,1.0,1,386.0,1
122,122,0.6087119421101389,0.6,1.0,1.0,399.0,928.0,1.0,1,103.0,1
123,123,-0.5569961512376438,-0.6,1.0,0.0,441.0,575.0,0.0,0,684.0,1
124,124,-0.45779717662726493,-0.5,1.0,0.0,365.0,894.0,0.0,0,391.0,1
125,125,0.041484068882164604,0.0,1.0,1.0,251.0,746.0,1.0,1,403.0,1
126,126,0.6014903051939579,0.6,0.0,0.0,415.0,835.0,0.0,1,500.0,1
127,127,-0.6958776249748715,-0.7,1.0,0.0,363.0,853.0,0.0,0,254.0,1
128,128,0.37276287915000894,0.4,0.0,0.0,273.0,526.0,0.0,1,491.0,1
129,129,-0.8049248532090391,-0.8,0.0,1.0,280.0,918.0,1.0,0,112.0,1
130,130,-0.7575795235778409,-0.8,1.0,0.0,431.0,852.0,0.0,0,237.0,1
131,131,0.18023891626093713,0.2,1.0,1.0,268.0,929.0,1.0,1,73.0,1
132,132,-0.7214047906952873,-0.7,1.0,0.0,430.0,672.0,0.0,0,428.0,1
133,133,0.1726881905250085,0.2,0.0,0.0,307.0,577.0,0.0,1,4116.0,1
134,134,-0.44529857300127623,-0.4,0.0,1.0,476.0,519.0,1.0,0,335.0,1
135,135,0.69626509274512,0.7,1.0,1.0,256.0,588.0,1.0,1,206.0,1
136,136,-0.8974209501355649,-0.9,1.0,0.0,415.0,655.0,0.0,0,470.0,1
137,137,0.013010620672488704,0.0,0.0,0.0,442.0,758.0,1.0,0,1820.0,0
138,138,0.1504743715639244,0.2,0.0,0.0,442.0,961.0,0.0,1,127.0,1
139,139,0.3834917515809896,0.4,0.0,0.0,330.0,899.0,0.0,1,381.0,1
140,140,-0.01388351847723801,-0.0,0.0,1.0,343.0,833.0,1.0,0,3164.0,1
141,141,-0.5242454259605054,-0.5,0.0,1.0,315.0,505.0,1.0,0,500.0,1
142,142,0.650042490622209,0.7,1.0,1.0,394.0,812.0,1.0,1,304.0,1
143,143,-0.7610235744073583,-0.8,0.0,1.0,375.0,885.0,1.0,0,130.0,1
144,144,0.7529962111225202,0.8,1.0,1.0,449.0,830.0,1.0,1,121.0,1
145,145,-0.3716437193990102,-0.4,0.0,1.0,471.0,818.0,1.0,0,351.0,1
146,146,-0.6283929386370091,-0.6,1.0,0.0,326.0,881.0,0.0,0,223.0,1
147,147,-0.5610783281567444,-0.6,0.0,1.0,294.0,873.0,1.0,0,103.0,1
148,148,0.894837363040797,0.9,1.0,1.0,401.0,582.0,1.0,1,177.0,1
149,149,-0.016159127423291286,-0.0,1.0,0.0,328.0,814.0,1.0,1,1818.0,0
150,150,0.698329457190947,0.7,0.0,0.0,360.0,899.0,0.0,1,201.0,1
151,151,-0.16232854454737045,-0.2,1.0,0.0,445.0,538.0,0.0,0,917.0,1
152,152,0.12996448819680684,0.1,1.0,1.0,306.0,971.0,1.0,1,573.0,1
153,153,0.26696165569571717,0.3,0.0,0.0,350.0,677.0,0.0,1,1803.0,1
154,154,-0.25247502619182827,-0.3,0.0,1.0,443.0,975.0,1.0,0,152.0,1
155,155,0.15248814612731276,0.2,1.0,1.0,363.0,686.0,1.0,1,521.0,1
156,156,-0.0458017848932295,-0.0,1.0,0.0,456.0,835.0,0.0,0,2749.0,1
157,157,0.33015657492618333,0.3,1.0,1.0,485.0,553.0,1.0,1,452.0,1
158,158,0.8871313925909169,0.9,0.0,0.0,348.0,928.0,0.0,1,44.0,1
159,159,0.6876316196686697,0.7,1.0,1.0,415.0,825.0,1.0,1,210.0,1
160,160,0.06760867184343411,0.1,1.0,1.0,266.0,568.0,1.0,1,656.0,1
161,161,0.4552311997425561,0.5,0.0,0.0,349.0,605.0,0.0,1,436.0,1
162,162,-0.32174441420307676,-0.3,0.0,1.0,438.0,582.0,1.0,0,250.0,1
163,163,0.567804311624832,0.6,1.0,1.0,447.0,630.0,1.0,1,153.0,1
164,164,-0.5424744284347334,-0.5,1.0,0.0,382.0,914.0,0.0,0,334.0,1
165,165,-0.8653255774278474,-0.9,1.0,0.0,474.0,829.0,0.0,0,217.0,1
166,166,-0.36917876425433194,-0.4,0.0,1.0,328.0,885.0,1.0,0,157.0,1
167,167,0.10589866627770117,0.1,1.0,1.0,434.0,895.0,1.0,1,1081.0,1
168,168,-0.10457157853398591,-0.1,0.0,1.0,303.0,617.0,1.0,0,440.0,1
169,169,-0.6096379330831618,-0.6,1.0,0.0,475.0,652.0,0.0,0,273.0,1
170,170,0.5222787369427776,0.5,1.0,1.0,373.0,724.0,1.0,1,173.0,1
171,171,0.8241746924443435,0.8,0.0,0.0,457.0,839.0,0.0,1,124.0,1
172,172,-0.49845510114182884,-0.5,0.0,1.0,494.0,524.0,1.0,0,132.0,1
173,173,-0.8509767146158531,-0.9,1.0,0.0,454.0,549.0,0.0,0,387.0,1
174,174,0.18662028328707503,0.2,0.0,0.0,337.0,804.0,0.0,1,1469.0,1
175,175,0.6821660526872292,0.7,0.0,0.0,251.0,994.0,0.0,1,105.0,1
176,176,0.06305407324757806,0.1,0.0,0.0,277.0,580.0,0.0,1,1403.0,1
177,177,-0.38862303555233724,-0.4,0.0,1.0,458.0,693.0,1.0,0,279.0,1
178,178,0.7488340957090015,0.7,0.0,0.0,497.0,684.0,0.0,1,279.0,1
179,179,0.7105215386338802,0.7,0.0,0.0,400.0,779.0,0.0,1,451.0,1
180,180,0.4427647791338877,0.4,1.0,1.0,461.0,619.0,1.0,1,390.0,1
181,181,0.7308907905647991,0.7,0.0,0.0,409.0,544.0,0.0,1,217.0,1
182,182,0.5738127980614917,0.6,0.0,0.0,459.0,977.0,0.0,1,194.0,1
183,183,-0.2372705569918523,-0.2,0.0,1.0,481.0,938.0,1.0,0,441.0,1
184,184,0.12594193540205445,0.1,0.0,0.0,428.0,947.0,0.0,1,3625.0,1
185,185,-0.5317894760782916,-0.5,0.0,1.0,483.0,634.0,1.0,0,313.0,1
186,186,0.10513315035986304,0.1,0.0,0.0,412.0,647.0,0.0,1,3941.0,1
187,187,0.24349252343660976,0.2,1.0,1.0,281.0,844.0,1.0,1,195.0,1
188,188,-0.4191535183419499,-0.4,0.0,1.0,336.0,726.0,1.0,0,398.0,1
189,189,-0.8792519722573034,-0.9,0.0,1.0,264.0,693.0,1.0,0,183.0,1
190,190,0.8090260400353396,0.8,1.0,1.0,410.0,701.0,1.0,1,289.0,1
191,191,0.04625804531888511,0.0,1.0,1.0,256.0,708.0,1.0,1,1696.0,1
192,192,0.2772783122935304,0.3,0.0,0.0,456.0,938.0,0.0,1,216.0,1
193,193,-0.24997199085261923,-0.2,1.0,0.0,446.0,686.0,0.0,0,1708.0,1
194,194,-0.5367672707272024,-0.5,0.0,1.0,435.0,814.0,1.0,0,211.0,1
195,195,-0.8079143425873268,-0.8,1.0,0.0,428.0,892.0,0.0,0,220.0,1
196,196,0.5317032556579925,0.5,0.0,0.0,388.0,527.0,0.0,1,585.0,1
197,197,-0.49551373254155723,-0.5,1.0,0.0,371.0,604.0,0.0,0,735.0,1
198,198,-0.04019202036081371,-0.0,0.0,1.0,340.0,989.0,1.0,0,1811.0,1
199,199,0.06985611096302036,0.1,0.0,0.0,427.0,657.0,1.0,0,3916.0,0
200,200,0.0352549806667809,0.0,0.0,0.0,308.0,689.0,1.0,0,833.0,0
201,201,0.4956461665721491,0.5,1.0,1.0,435.0,560.0,1.0,1,255.0,1
202,202,0.6782519257047283,0.7,1.0,1.0,387.0,618.0,1.0,1,125.0,1
203,203,-0.6812005149807423,-0.7,0.0,1.0,399.0,581.0,1.0,0,270.0,1
204,204,0.07013564357801427,0.1,1.0,1.0,391.0,560.0,1.0,1,549.0,1
205,205,-0.6631912623205227,-0.7,0.0,1.0,491.0,829.0,1.0,0,150.0,1
206,206,0.8173927204055321,0.8,1.0,1.0,295.0,885.0,1.0,1,230.0,1
207,207,0.7503406068884856,0.8,0.0,0.0,408.0,849.0,0.0,1,293.0,1
208,208,0.61925467766938,0.6,1.0,1.0,406.0,703.0,1.0,1,201.0,1
209,209,-0.19214191080802057,-0.2,1.0,0.0,376.0,807.0,1.0,1,3817.0,0
210,210,0.5298598281681709,0.5,0.0,0.0,395.0,612.0,0.0,1,393.0,1
211,211,-0.5471358340601498,-0.5,1.0,0.0,302.0,582.0,0.0,0,666.0,1
212,212,-0.6645060816988985,-0.7,1.0,0.0,398.0,981.0,0.0,0,271.0,1
213,213,-0.8962098860989646,-0.9,1.0,0.0,359.0,983.0,1.0,1,-92.0,0
214,214,-0.5705303085430091,-0.6,0.0,1.0,270.0,558.0,1.0,0,412.0,1
215,215,0.350743077975162,0.4,0.0,0.0,380.0,748.0,0.0,1,712.0,1
216,216,-0.5636154820886468,-0.6,0.0,1.0,297.0,941.0,1.0,0,162.0,1
217,217,-0.4000199208179746,-0.4,1.0,0.0,409.0,632.0,0.0,0,379.0,1
218,218,0.5406515959081174,0.5,1.0,1.0,478.0,682.0,1.0,1,330.0,1
219,219,0.14829632486280853,0.1,0.0,0.0,495.0,911.0,0.0,1,1374.0,1
220,220,0.04502025719509484,0.0,0.0,0.0,458.0,959.0,1.0,0,1183.0,0
221,221,-0.07772071314893048,-0.1,1.0,0.0,462.0,639.0,1.0,1,1339.0,0
222,222,-0.29654127542148867,-0.3,1.0,0.0,279.0,898.0,0.0,0,313.0,1
223,223,0.44979607477965844,0.4,1.0,1.0,351.0,868.0,1.0,1,371.0,1
224,224,-0.0719800817166194,-0.1,1.0,0.0,340.0,657.0,1.0,1,833.0,0
225,225,0.24237814043614858,0.2,0.0,0.0,458.0,930.0,0.0,1,2672.0,1
226,226,0.24237868365351545,0.2,1.0,1.0,464.0,574.0,1.0,1,552.0,1
227,227,-0.15986837238317708,-0.2,0.0,1.0,370.0,536.0,1.0,0,804.0,1
228,228,-0.46198518307523295,-0.5,0.0,1.0,377.0,854.0,1.0,0,209.0,1
229,229,-0.5206480015215621,-0.5,1.0,0.0,421.0,969.0,0.0,0,390.0,1
230,230,0.5582151371674496,0.6,0.0,0.0,308.0,851.0,0.0,1,211.0,1
231,231,0.052580277379563056,0.1,0.0,0.0,375.0,567.0,0.0,1,3708.0,1
232,232,-0.8007655660099755,-0.8,0.0,1.0,332.0,730.0,1.0,0,258.0,1
233,233,0.8142544041131777,0.8,0.0,0.0,321.0,718.0,0.0,1,381.0,1
234,234,0.5515614178474851,0.6,1.0,1.0,424.0,543.0,1.0,1,323.0,1
235,235,-0.24731712437429643,-0.2,0.0,1.0,336.0,994.0,1.0,0,130.0,1
236,236,0.7279769466580904,0.7,1.0,1.0,327.0,681.0,1.0,1,282.0,1
237,237,0.7221576216413349,0.7,0.0,0.0,318.0,820.0,0.0,1,162.0,1
238,238,-0.16926366384889446,-0.2,1.0,0.0,465.0,676.0,0.0,0,549.0,1
239,239,-0.09581575061081726,-0.1,1.0,0.0,493.0,853.0,0.0,0,2854.0,1
240,240,0.8360209933151438,0.8,1.0,1.0,270.0,693.0,1.0,1,157.0,1
241,241,-0.5843552536409289,-0.6,1.0,0.0,498.0,679.0,0.0,0,723.0,1
242,242,0.078833273529345,0.1,1.0,1.0,401.0,560.0,1.0,1,469.0,1
243,243,0.18830370436021682,0.2,0.0,0.0,351.0,956.0,0.0,1,333.0,1
244,244,0.3632586307850604,0.4,0.0,0.0,273.0,761.0,0.0,1,416.0,1
245,245,-0.04746754741065207,-0.0,0.0,1.0,451.0,537.0,1.0,0,1122.0,1
246,246,-0.6151427595623591,-0.6,1.0,0.0,423.0,568.0,0.0,0,359.0,1
247,247,-0.5749365338525783,-0.6,1.0,0.0,486.0,560.0,0.0,0,424.0,1
248,248,0.3133126667688958,0.3,1.0,1.0,281.0,686.0,1.0,1,453.0,1
249,249,-0.8844410744124952,-0.9,0.0,1.0,392.0,639.0,1.0,0,219.0,1
250,250,0.43625338830134874,0.4,0.0,0.0,390.0,606.0,0.0,1,854.0,1
251,251,0.2282718341172506,0.2,0.0,0.0,292.0,515.0,0.0,1,993.0,1
252,252,0.05405680484056441,0.1,0.0,0.0,340.0,905.0,1.0,0,65.0,0
253,253,-0.8276207009731912,-0.8,0.0,1.0,391.0,842.0,1.0,0,237.0,1
254,254,0.0066857877908022,0.0,1.0,1.0,447.0,898.0,1.0,1,815.0,1
255,255,0.48404596127594257,0.5,0.0,0.0,296.0,512.0,0.0,1,322.0,1
256,256,0.7232392960272161,0.7,0.0,0.0,397.0,849.0,0.0,1,294.0,1
257,257,0.14871981462979222,0.1,0.0,0.0,276.0,557.0,0.0,1,897.0,1
258,258,0.22128006964089397,0.2,0.0,0.0,427.0,636.0,0.0,1,227.0,1
259,259,0.5834727203489242,0.6,1.0,1.0,288.0,869.0,1.0,1,53.0,1
260,260,-0.5050622444871066,-0.5,1.0,0.0,262.0,976.0,0.0,0,322.0,1
261,261,-0.11268921638894036,-0.1,0.0,1.0,499.0,930.0,1.0,0,301.0,1
262,262,-0.60983181241992,-0.6,0.0,1.0,448.0,872.0,1.0,0,230.0,1
263,263,0.22141575941542813,0.2,1.0,1.0,335.0,842.0,1.0,1,193.0,1
264,264,0.882577042632762,0.9,1.0,1.0,401.0,959.0,1.0,1,130.0,1
265,265,0.12705285856125326,0.1,1.0,1.0,457.0,712.0,1.0,1,891.0,1
266,266,-0.18034184074551918,-0.2,1.0,0.0,471.0,672.0,0.0,0,3547.0,1
267,267,0.3369233713290586,0.3,1.0,1.0,294.0,757.0,1.0,1,419.0,1
268,268,0.3331267944190016,0.3,1.0,1.0,387.0,994.0,1.0,1,519.0,1
269,269,-0.026830486538746978,-0.0,1.0,0.0,447.0,726.0,1.0,1,797.0,0
270,270,-0.8457118482408489,-0.8,1.0,0.0,383.0,546.0,0.0,0,681.0,1
271,271,-0.255711600801688,-0.3,1.0,0.0,421.0,684.0,0.0,0,885.0,1
272,272,-0.015901777768407954,-0.0,1.0,0.0,375.0,974.0,1.0,1,531.0,0
273,273,-0.061076404487280134,-0.1,1.0,0.0,296.0,972.0,1.0,1,672.0,0
274,274,0.5719938459762598,0.6,0.0,0.0,424.0,794.0,0.0,1,402.0,1
275,275,-0.032920314732904576,-0.0,1.0,0.0,476.0,582.0,0.0,0,832.0,1
276,276,0.7552096247006265,0.8,1.0,1.0,434.0,590.0,1.0,1,216.0,1
277,277,-0.7101422921457496,-0.7,1.0,0.0,469.0,813.0,0.0,0,198.0,1
278,278,-0.5113399834057316,-0.5,0.0,1.0,288.0,973.0,1.0,0,229.0,1
279,279,-0.07935387845232178,-0.1,1.0,0.0,268.0,726.0,1.0,1,246.0,0
280,280,0.8626961768092726,0.9,0.0,0.0,260.0,615.0,0.0,1,435.0,1
281,281,0.3444132210054337,0.3,0.0,0.0,250.0,570.0,0.0,1,740.0,1
282,282,0.7785345101271418,0.8,0.0,0.0,326.0,614.0,0.0,1,370.0,1
283,283,0.4627918750361423,0.5,1.0,1.0,403.0,675.0,1.0,1,172.0,1
284,284,-0.21035857702685345,-0.2,0.0,1.0,412.0,721.0,1.0,0,307.0,1
285,285,0.4398456876110345,0.4,1.0,1.0,295.0,526.0,1.0,1,319.0,1
286,286,0.4083552428212992,0.4,0.0,0.0,333.0,657.0,0.0,1,220.0,1
287,287,0.4430728342457114,0.4,0.0,0.0,406.0,877.0,0.0,1,867.0,1
288,288,-0.5638793268016118,-0.6,0.0,1.0,325.0,807.0,1.0,0,128.0,1
289,289,-0.622447713410776,-0.6,0.0,1.0,292.0,756.0,1.0,0,282.0,1
290,290,0.22793523204068122,0.2,1.0,1.0,369.0,651.0,1.0,1,1280.0,1
291,291,0.8306995889905268,0.8,0.0,0.0,349.0,714.0,0.0,1,207.0,1
292,292,0.8803015885457935,0.9,1.0,1.0,446.0,669.0,1.0,1,185.0,1
293,293,0.8335715520962809,0.8,1.0,1.0,313.0,506.0,1.0,1,331.0,1
294,294,-0.04318284024670349,-0.0,1.0,0.0,484.0,857.0,1.0,1,1119.0,0
295,295,-0.49148375513193016,-0.5,0.0,1.0,288.0,587.0,1.0,0,325.0,1
296,296,-0.7134015267064019,-0.7,0.0,1.0,390.0,690.0,1.0,0,250.0,1
297,297,0.2290389171053665,0.2,1.0,1.0,262.0,763.0,1.0,1,245.0,1
298,298,0.7124616538193459,0.7,1.0,1.0,263.0,541.0,1.0,1,446.0,1
299,299,-0.5459905730228818,-0.5,0.0,1.0,380.0,601.0,1.0,0,339.0,1
300,300,0.6676566428784373,0.7,0.0,0.0,302.0,533.0,0.0,1,385.0,1
301,301,-0.13691542877496765,-0.1,0.0,1.0,370.0,697.0,1.0,0,513.0,1
302,302,-0.6547545309651587,-0.7,0.0,1.0,291.0,579.0,1.0,0,260.0,1
303,303,-0.5744353189125615,-0.6,1.0,0.0,376.0,828.0,0.0,0,126.0,1
304,304,0.6722511175261866,0.7,1.0,1.0,278.0,792.0,1.0,1,260.0,1
305,305,0.6094712162909616,0.6,1.0,1.0,482.0,637.0,1.0,1,251.0,1
306,306,-0.5902303448833435,-0.6,0.0,1.0,272.0,804.0,1.0,0,254.0,1
307,307,-0.17886573767655178,-0.2,1.0,0.0,394.0,913.0,0.0,0,3693.0,1
308,308,-0.34241699935511904,-0.3,0.0,1.0,447.0,593.0,1.0,0,260.0,1
309,309,-0.39491867015863347,-0.4,1.0,0.0,274.0,658.0,0.0,0,1478.0,1
310,310,0.7457713200111916,0.7,1.0,1.0,261.0,616.0,1.0,1,283.0,1
311,311,-0.38900372089712343,-0.4,1.0,0.0,349.0,986.0,0.0,0,475.0,1
312,312,0.7213789401319411,0.7,0.0,0.0,437.0,525.0,0.0,1,368.0,1
313,313,-0.8530150454476896,-0.9,0.0,1.0,297.0,886.0,1.0,0,167.0,1
314,314,0.717100998262944,0.7,1.0,1.0,292.0,722.0,1.0,1,366.0,1
315,315,0.7308197965554725,0.7,1.0,1.0,321.0,515.0,1.0,1,354.0,1
316,316,0.13414031031407025,0.1,0.0,0.0,440.0,602.0,0.0,1,658.0,1
317,317,0.4102370632943587,0.4,0.0,0.0,306.0,854.0,0.0,1,500.0,1
318,318,0.6588825047004189,0.7,0.0,0.0,274.0,945.0,0.0,1,501.0,1
319,319,-0.45793154529367724,-0.5,1.0,0.0,315.0,548.0,0.0,0,437.0,1
320,320,-0.6778032332505977,-0.7,0.0,1.0,354.0,881.0,1.0,0,55.0,1
321,321,-0.1442993738261188,-0.1,0.0,1.0,411.0,931.0,1.0,0,728.0,1
322,322,-0.8942256474339648,-0.9,1.0,0.0,362.0,826.0,0.0,0,142.0,1
323,323,0.25966868509596897,0.3,1.0,1.0,468.0,752.0,1.0,1,650.0,1
324,324,-0.7979337418972714,-0.8,1.0,0.0,453.0,596.0,0.0,0,651.0,1
325,325,0.5347531462502805,0.5,0.0,0.0,356.0,866.0,0.0,1,238.0,1
326,326,0.2094446428626825,0.2,0.0,0.0,461.0,986.0,0.0,1,83.0,1
327,327,-0.7614071468767383,-0.8,1.0,0.0,437.0,976.0,0.0,0,267.0,1
328,328,0.01409460251916339,0.0,0.0,0.0,336.0,959.0,1.0,0,2105.0,0
329,329,0.36584008216957387,0.4,0.0,0.0,314.0,595.0,0.0,1,431.0,1
330,330,0.6705853688264226,0.7,1.0,1.0,480.0,582.0,1.0,1,218.0,1
331,331,0.542826407199395,0.5,0.0,0.0,296.0,680.0,0.0,1,264.0,1
332,332,0.8505367774173654,0.9,0.0,0.0,392.0,549.0,0.0,1,189.0,1
333,333,0.2924375675474352,0.3,1.0,1.0,406.0,719.0,1.0,1,365.0,1
334,334,-0.3932971065373517,-0.4,1.0,0.0,488.0,780.0,0.0,0,732.0,1
335,335,0.4052423615806974,0.4,1.0,1.0,392.0,578.0,1.0,1,320.0,1
336,336,0.5165069220937798,0.5,1.0,1.0,445.0,587.0,1.0,1,408.0,1
337,337,0.49383084771987085,0.5,0.0,0.0,347.0,915.0,0.0,1,788.0,1
338,338,0.7383184690263899,0.7,1.0,1.0,497.0,578.0,1.0,1,295.0,1
339,339,-0.4504476825396104,-0.5,1.0,0.0,466.0,754.0,0.0,0,1360.0,1
340,340,-0.10479691179140849,-0.1,1.0,0.0,432.0,653.0,1.0,1,845.0,0
341,341,-0.24524659039149999,-0.2,1.0,0.0,327.0,966.0,0.0,0,537.0,1
342,342,0.6249358769516856,0.6,0.0,0.0,432.0,705.0,0.0,1,223.0,1
343,343,0.23857989867220886,0.2,1.0,1.0,350.0,962.0,1.0,1,-92.0,1
344,344,0.1324937800849958,0.1,0.0,0.0,461.0,540.0,1.0,0,819.0,0
345,345,0.7872487393816466,0.8,0.0,0.0,440.0,555.0,0.0,1,405.0,1
346,346,-0.6669112087487212,-0.7,1.0,0.0,291.0,751.0,0.0,0,228.0,1
347,347,0.07799675530565797,0.1,0.0,0.0,296.0,533.0,0.0,1,1831.0,1
348,348,-0.505498601215603,-0.5,1.0,0.0,320.0,925.0,0.0,0,165.0,1
349,349,-0.008119358957742961,-0.0,0.0,1.0,431.0,821.0,1.0,0,568.0,1
350,350,-0.5126070332299623,-0.5,1.0,0.0,356.0,880.0,0.0,0,744.0,1
351,351,0.5551667105610715,0.6,0.0,0.0,364.0,792.0,0.0,1,114.0,1
352,352,0.6922195049519045,0.7,1.0,1.0,405.0,923.0,1.0,1,82.0,1
353,353,-0.5612390484743467,-0.6,0.0,1.0,421.0,712.0,1.0,0,217.0,1
354,354,-0.4697104037692201,-0.5,0.0,1.0,495.0,687.0,1.0,0,258.0,1
355,355,0.11332942189000172,0.1,1.0,1.0,436.0,546.0,1.0,1,508.0,1
356,356,0.42760083255957004,0.4,1.0,1.0,392.0,854.0,1.0,1,384.0,1
357,357,0.5116535230119853,0.5,1.0,1.0,428.0,909.0,1.0,1,203.0,1
358,358,-0.09769089786581764,-0.1,0.0,1.0,289.0,501.0,1.0,0,680.0,1
359,359,-0.33270447457434316,-0.3,1.0,0.0,315.0,941.0,0.0,0,694.0,1
360,360,0.46176080259189256,0.5,1.0,1.0,442.0,822.0,1.0,1,166.0,1
361,361,-0.12414630113326153,-0.1,1.0,0.0,391.0,511.0,0.0,0,528.0,1
362,362,-0.4294583593889226,-0.4,1.0,0.0,408.0,736.0,0.0,0,1506.0,1
363,363,-0.36925612993503476,-0.4,1.0,0.0,256.0,600.0,0.0,0,464.0,1
364,364,0.4736424020572033,0.5,0.0,0.0,267.0,858.0,0.0,1,385.0,1
365,365,0.8452987869412886,0.8,0.0,0.0,400.0,514.0,0.0,1,306.0,1
366,366,0.31109886542837006,0.3,0.0,0.0,465.0,860.0,0.0,1,295.0,1
367,367,0.2675410484838071,0.3,1.0,1.0,284.0,998.0,1.0,1,238.0,1
368,368,0.8285226413695753,0.8,1.0,1.0,286.0,867.0,1.0,1,217.0,1
369,369,-0.16933681001339884,-0.2,0.0,1.0,276.0,825.0,1.0,0,339.0,1
370,370,-0.08627681687207545,-0.1,1.0,0.0,273.0,515.0,1.0,1,802.0,0
371,371,-0.8677590020090505,-0.9,1.0,0.0,328.0,752.0,0.0,0,480.0,1
372,372,-0.8406007836349453,-0.8,1.0,0.0,476.0,638.0,0.0,0,416.0,1
373,373,0.19868602499776145,0.2,1.0,1.0,435.0,675.0,1.0,1,390.0,1
374,374,0.6661029551064853,0.7,1.0,1.0,492.0,985.0,1.0,1,113.0,1
375,375,-0.043573312991376456,-0.0,1.0,0.0,352.0,802.0,1.0,1,2256.0,0
376,376,0.24304206394159433,0.2,1.0,1.0,478.0,665.0,1.0,1,667.0,1
377,377,0.6669058415478041,0.7,0.0,0.0,461.0,997.0,0.0,1,232.0,1
378,378,0.2667888809342821,0.3,0.0,0.0,480.0,954.0,0.0,1,316.0,1
379,379,-0.115081282280863,-0.1,0.0,1.0,282.0,906.0,1.0,0,532.0,1
380,380,0.514600085548602,0.5,1.0,1.0,415.0,648.0,1.0,1,287.0,1
381,381,0.32027501506032985,0.3,1.0,1.0,271.0,576.0,1.0,1,183.0,1
382,382,-0.8235312059859032,-0.8,1.0,0.0,293.0,534.0,0.0,0,573.0,1
383,383,0.01210727647363219,0.0,0.0,0.0,340.0,691.0,1.0,0,429.0,0
384,384,0.8908496782836125,0.9,0.0,0.0,323.0,947.0,0.0,1,140.0,1
385,385,0.37999803355348283,0.4,0.0,0.0,284.0,879.0,0.0,1,567.0,1
386,386,0.5812078052625619,0.6,1.0,1.0,308.0,921.0,1.0,1,111.0,1
387,387,0.46882356003441916,0.5,0.0,0.0,492.0,659.0,0.0,1,239.0,1
388,388,0.7188844193604363,0.7,1.0,1.0,264.0,639.0,1.0,1,187.0,1
389,389,-0.7710637984831629,-0.8,1.0,0.0,405.0,637.0,0.0,0,398.0,1
390,390,-0.8857137983865921,-0.9,1.0,0.0,482.0,831.0,0.0,0,177.0,1
391,391,0.7754063162370864,0.8,0.0,0.0,376.0,823.0,0.0,1,171.0,1
392,392,0.858869803431166,0.9,0.0,0.0,445.0,669.0,0.0,1,566.0,1
393,393,-0.019864524316964283,-0.0,0.0,1.0,466.0,813.0,1.0,0,381.0,1
394,394,-0.322526367964325,-0.3,1.0,0.0,289.0,688.0,0.0,0,793.0,1
395,395,-0.47535552050860486,-0.5,1.0,0.0,499.0,732.0,0.0,0,839.0,1
396,396,-0.4226027661874974,-0.4,1.0,0.0,290.0,864.0,0.0,0,606.0,1
397,397,0.024607614295733993,0.0,1.0,1.0,352.0,514.0,1.0,1,714.0,1
398,398,0.556953056063937,0.6,0.0,0.0,315.0,717.0,0.0,1,258.0,1
399,399,-0.6561975901464946,-0.7,0.0,1.0,253.0,942.0,1.0,0,185.0,1
400,400,-0.5709229357404475,-0.6,0.0,1.0,473.0,506.0,1.0,0,541.0,1
401,401,-0.6015579933179668,-0.6,1.0,0.0,407.0,977.0,0.0,0,316.0,1
402,402,0.3276415268554188,0.3,0.0,0.0,322.0,684.0,0.0,1,504.0,1
403,403,0.37347240527028147,0.4,1.0,1.0,320.0,764.0,1.0,1,426.0,1
404,404,-0.7746827363150877,-0.8,1.0,0.0,314.0,514.0,0.0,0,292.0,1
405,405,0.06532044051869879,0.1,1.0,1.0,288.0,615.0,1.0,1,567.0,1
406,406,-0.018310018778774362,-0.0,1.0,0.0,363.0,769.0,1.0,1,1908.0,0
407,407,0.7386165517233051,0.7,1.0,1.0,392.0,806.0,1.0,1,192.0,1
408,408,0.06427070291042347,0.1,0.0,0.0,495.0,553.0,0.0,1,3952.0,1
409,409,-0.5544051916735349,-0.6,1.0,0.0,255.0,804.0,0.0,0,511.0,1
410,410,0.8315105304731735,0.8,1.0,1.0,398.0,915.0,1.0,1,127.0,1
411,411,-0.31185149620059904,-0.3,0.0,1.0,361.0,841.0,1.0,0,358.0,1
412,412,0.2379825822364875,0.2,0.0,0.0,328.0,910.0,0.0,1,572.0,1
413,413,0.4338010160720077,0.4,1.0,1.0,317.0,951.0,1.0,1,152.0,1
414,414,-0.28804352977870307,-0.3,0.0,1.0,305.0,693.0,1.0,0,392.0,1
415,415,0.7319138401331003,0.7,1.0,1.0,366.0,825.0,1.0,1,59.0,1
416,416,0.6444734070001105,0.6,1.0,1.0,453.0,786.0,1.0,1,231.0,1
417,417,0.3083199559732025,0.3,0.0,0.0,263.0,562.0,0.0,1,455.0,1
418,418,-0.20223525767358863,-0.2,1.0,0.0,344.0,664.0,0.0,0,2292.0,1
419,419,0.4382661513941736,0.4,1.0,1.0,441.0,893.0,1.0,1,146.0,1
420,420,-0.7424446025082303,-0.7,1.0,0.0,462.0,805.0,0.0,0,153.0,1
421,421,0.15359491578990492,0.2,0.0,0.0,480.0,771.0,0.0,1,649.0,1
422,422,-0.47944569091137995,-0.5,1.0,0.0,492.0,736.0,0.0,0,412.0,1
423,423,0.8156938338607241,0.8,1.0,1.0,281.0,565.0,1.0,1,234.0,1
424,424,0.33400511876728844,0.3,1.0,1.0,259.0,612.0,1.0,1,599.0,1
425,425,-0.5628391435495854,-0.6,1.0,0.0,360.0,693.0,0.0,0,467.0,1
426,426,0.7973169559727934,0.8,1.0,1.0,298.0,569.0,1.0,1,353.0,1
427,427,0.3988053246737887,0.4,0.0,0.0,355.0,708.0,0.0,1,387.0,1
428,428,-0.4574897455426999,-0.5,0.0,1.0,468.0,975.0,1.0,0,107.0,1
429,429,0.47774214413636307,0.5,1.0,1.0,332.0,784.0,1.0,1,174.0,1
430,430,0.8823146830899663,0.9,0.0,0.0,447.0,974.0,0.0,1,229.0,1
431,431,-0.012211493314663424,-0.0,1.0,0.0,311.0,518.0,1.0,1,1921.0,0
432,432,0.24175466548255697,0.2,0.0,0.0,329.0,960.0,0.0,1,571.0,1
433,433,0.31104733122145556,0.3,1.0,1.0,306.0,847.0,1.0,1,337.0,1
434,434,0.17602475026951458,0.2,0.0,0.0,330.0,575.0,0.0,1,2015.0,1
435,435,-0.14997641960360897,-0.1,1.0,0.0,381.0,818.0,1.0,1,3801.0,0
436,436,-0.8689237679091377,-0.9,1.0,0.0,378.0,802.0,0.0,0,230.0,1
437,437,0.5439770688941709,0.5,1.0,1.0,437.0,548.0,1.0,1,295.0,1
438,438,-0.04026405279651457,-0.0,1.0,0.0,469.0,805.0,1.0,1,1716.0,0
439,439,0.5942537577772332,0.6,0.0,0.0,417.0,768.0,0.0,1,225.0,1
440,440,-0.8920442723073423,-0.9,0.0,1.0,495.0,845.0,1.0,0,230.0,1
441,441,0.5676652399098657,0.6,0.0,0.0,445.0,573.0,0.0,1,202.0,1
442,442,0.07978840523140052,0.1,1.0,1.0,435.0,995.0,1.0,1,240.0,1
443,443,-0.46917150972986243,-0.5,0.0,1.0,426.0,754.0,1.0,0,210.0,1
444,444,-0.8299210278888172,-0.8,1.0,0.0,453.0,501.0,0.0,0,446.0,1
445,445,0.811685484504791,0.8,0.0,0.0,372.0,637.0,0.0,1,391.0,1
446,446,-0.4855947553258492,-0.5,0.0,1.0,476.0,971.0,1.0,0,123.0,1
447,447,0.6041824933111709,0.6,1.0,1.0,338.0,500.0,1.0,1,382.0,1
448,448,0.4385428721570298,0.4,1.0,1.0,252.0,585.0,1.0,1,273.0,1
449,449,-0.7421156962660811,-0.7,1.0,0.0,255.0,645.0,0.0,0,160.0,1
450,450,-0.14219938095296392,-0.1,0.0,1.0,358.0,602.0,1.0,0,540.0,1
451,451,0.16865977260334153,0.2,1.0,1.0,435.0,982.0,1.0,1,423.0,1
452,452,-0.6921701853389256,-0.7,0.0,1.0,312.0,957.0,1.0,0,61.0,1
453,453,0.6876526966574522,0.7,0.0,0.0,404.0,886.0,0.0,1,200.0,1
454,454,0.731083038497154,0.7,0.0,0.0,469.0,800.0,0.0,1,231.0,1
455,455,0.7710163876803794,0.8,0.0,0.0,387.0,924.0,0.0,1,449.0,1
456,456,0.47646012373491387,0.5,1.0,1.0,349.0,769.0,1.0,1,212.0,1
457,457,-0.27170288354789207,-0.3,1.0,0.0,375.0,954.0,1.0,1,31.0,0
458,458,-0.7217119041770691,-0.7,1.0,0.0,349.0,712.0,0.0,0,459.0,1
459,459,0.8116671799262053,0.8,0.0,0.0,461.0,898.0,0.0,1,111.0,1
460,460,0.6538342063178041,0.7,1.0,1.0,489.0,566.0,1.0,1,255.0,1
461,461,-0.4926237769694464,-0.5,0.0,1.0,468.0,915.0,1.0,0,117.0,1
462,462,0.4632893110570472,0.5,0.0,0.0,321.0,808.0,0.0,1,241.0,1
463,463,-0.7643136468570543,-0.8,0.0,1.0,464.0,519.0,1.0,0,397.0,1
464,464,0.05686928345579911,0.1,0.0,0.0,265.0,938.0,1.0,0,3797.0,0
465,465,0.516993147761433,0.5,0.0,0.0,258.0,651.0,0.0,1,251.0,1
466,466,-0.769197952626463,-0.8,0.0,1.0,255.0,897.0,1.0,0,188.0,1
467,467,-0.13868871675704864,-0.1,0.0,1.0,308.0,558.0,1.0,0,614.0,1
468,468,-0.311366943058213,-0.3,1.0,0.0,418.0,841.0,0.0,0,631.0,1
469,469,0.7350369255825521,0.7,0.0,0.0,276.0,811.0,0.0,1,113.0,1
470,470,-0.21112157153416156,-0.2,0.0,1.0,319.0,641.0,1.0,0,440.0,1
471,471,0.590278619451161,0.6,0.0,0.0,477.0,513.0,0.0,1,640.0,1
472,472,0.6199010324439908,0.6,1.0,1.0,376.0,985.0,1.0,1,149.0,1
473,473,-0.4574215612121015,-0.5,0.0,1.0,277.0,945.0,1.0,0,338.0,1
474,474,0.8555874852676474,0.9,0.0,0.0,369.0,985.0,0.0,1,136.0,1
475,475,0.8897819973908606,0.9,1.0,1.0,446.0,748.0,1.0,1,306.0,1
476,476,0.6573185940601597,0.7,1.0,1.0,431.0,677.0,1.0,1,282.0,1
477,477,0.18462390936449602,0.2,0.0,0.0,379.0,640.0,0.0,1,2441.0,1
478,478,-0.5565238107707331,-0.6,0.0,1.0,491.0,829.0,1.0,0,50.0,1
479,479,0.3895490450195357,0.4,1.0,1.0,295.0,513.0,1.0,1,442.0,1
480,480,-0.4855009378676373,-0.5,0.0,1.0,432.0,610.0,1.0,0,378.0,1
481,481,-0.8542381363215332,-0.9,0.0,1.0,256.0,638.0,1.0,0,256.0,1
482,482,0.7504999053167355,0.8,0.0,0.0,319.0,888.0,0.0,1,283.0,1
483,483,-0.023984330220305994,-0.0,1.0,0.0,427.0,742.0,1.0,1,131.0,0
484,484,0.8875373802667829,0.9,0.0,0.0,415.0,679.0,0.0,1,196.0,1
485,485,-0.012830129773311993,-0.0,1.0,0.0,265.0,828.0,1.0,1,1387.0,0
486,486,0.8307902705607663,0.8,0.0,0.0,431.0,722.0,0.0,1,277.0,1
487,487,-0.5122491172970198,-0.5,1.0,0.0,273.0,925.0,0.0,0,352.0,1
488,488,-0.5739048995611198,-0.6,1.0,0.0,359.0,921.0,0.0,0,530.0,1
489,489,0.07942333813725111,0.1,0.0,0.0,291.0,912.0,1.0,0,3797.0,0
490,490,-0.8188850112373744,-0.8,1.0,0.0,427.0,995.0,0.0,0,228.0,1
491,491,-0.004963318612166812,-0.0,0.0,1.0,435.0,572.0,1.0,0,1623.0,1
492,492,-0.262689797925719,-0.3,1.0,0.0,414.0,856.0,0.0,0,3010.0,1
493,493,-0.8526576409296311,-0.9,0.0,1.0,441.0,741.0,1.0,0,198.0,1
494,494,-0.6254529237452349,-0.6,1.0,0.0,396.0,826.0,0.0,0,148.0,1
495,495,-0.40155756373480245,-0.4,1.0,0.0,386.0,750.0,0.0,0,424.0,1
496,496,0.6872423328602041,0.7,1.0,1.0,490.0,703.0,1.0,1,137.0,1
497,497,0.2365157190538737,0.2,0.0,0.0,278.0,703.0,0.0,1,1329.0,1
498,498,0.32903005347533265,0.3,1.0,1.0,434.0,825.0,1.0,1,251.0,1
499,499,0.32032101509518707,0.3,0.0,0.0,385.0,708.0,0.0,1,297.0,1
500,500,0.08962259812962481,0.1,0.0,0.0,403.0,658.0,0.0,1,3939.0,1
501,501,0.425884400349667,0.4,1.0,1.0,417.0,677.0,1.0,1,146.0,1
502,502,-0.7634794125959543,-0.8,1.0,0.0,371.0,596.0,0.0,0,193.0,1
503,503,-0.7041162740833,-0.7,1.0,0.0,266.0,917.0,0.0,0,267.0,1
504,504,-0.6194342039614547,-0.6,0.0,1.0,397.0,979.0,1.0,0,124.0,1
505,505,-0.04225627974259749,-0.0,1.0,0.0,414.0,771.0,1.0,1,3395.0,0
506,506,-0.8400367519501326,-0.8,1.0,0.0,408.0,683.0,0.0,0,279.0,1
507,507,-0.882383565752244,-0.9,0.0,1.0,311.0,530.0,1.0,0,239.0,1
508,508,-0.691899079964271,-0.7,0.0,1.0,401.0,814.0,1.0,0,175.0,1
509,509,0.6176254728691816,0.6,1.0,1.0,262.0,768.0,1.0,1,210.0,1
510,510,0.5272850708417026,0.5,1.0,1.0,438.0,581.0,1.0,1,211.0,1
511,511,0.5474984226738161,0.5,1.0,1.0,294.0,886.0,1.0,1,200.0,1
512,512,0.7689391203548716,0.8,1.0,1.0,425.0,679.0,1.0,1,146.0,1
513,513,-0.8689816383687589,-0.9,0.0,1.0,325.0,653.0,1.0,0,272.0,1
514,514,0.7106186275535292,0.7,1.0,1.0,471.0,504.0,1.0,1,345.0,1
515,515,-0.17759754589943222,-0.2,1.0,0.0,499.0,841.0,0.0,0,840.0,1
516,516,-0.11096589367834109,-0.1,1.0,0.0,262.0,764.0,1.0,1,3914.0,0
517,517,-0.22432098959126312,-0.2,1.0,0.0,338.0,525.0,0.0,0,1957.0,1
518,518,0.8163925912369919,0.8,1.0,1.0,329.0,730.0,1.0,1,221.0,1
519,519,-0.27474183064501045,-0.3,0.0,1.0,365.0,639.0,1.0,0,586.0,1
520,520,0.08444643520448536,0.1,1.0,1.0,264.0,978.0,1.0,1,568.0,1
521,521,-0.34556549534442516,-0.3,1.0,0.0,495.0,590.0,0.0,0,665.0,1
522,522,0.158680949608074,0.2,1.0,1.0,376.0,768.0,1.0,1,146.0,1
523,523,0.20494455688403457,0.2,1.0,1.0,328.0,731.0,1.0,1,361.0,1
524,524,-0.4525671896112018,-0.5,1.0,0.0,346.0,968.0,0.0,0,1576.0,1
525,525,-0.5525168243280681,-0.6,0.0,1.0,386.0,558.0,1.0,0,316.0,1
526,526,0.19657421170538536,0.2,0.0,0.0,475.0,585.0,0.0,1,3940.0,1
527,527,-0.5826936094387313,-0.6,1.0,0.0,290.0,682.0,0.0,0,498.0,1
528,528,0.23069639411795484,0.2,0.0,0.0,267.0,737.0,0.0,1,826.0,1
529,529,-0.5190273936781244,-0.5,1.0,0.0,305.0,585.0,0.0,0,550.0,1
530,530,-0.4533659886019514,-0.5,1.0,0.0,283.0,709.0,0.0,0,258.0,1
531,531,0.03156086947272274,0.0,0.0,0.0,428.0,954.0,0.0,1,1418.0,1
532,532,0.1531063011554844,0.2,0.0,0.0,387.0,775.0,0.0,1,438.0,1
533,533,-0.02471218557776833,-0.0,0.0,1.0,283.0,690.0,1.0,0,517.0,1
534,534,0.048405223534556785,0.0,1.0,1.0,371.0,880.0,1.0,1,2569.0,1
535,535,0.548784428270826,0.5,1.0,1.0,489.0,605.0,1.0,1,196.0,1
536,536,0.11905364567200094,0.1,1.0,1.0,263.0,528.0,1.0,1,689.0,1
537,537,-0.7331725377968399,-0.7,0.0,1.0,251.0,803.0,1.0,0,76.0,1
538,538,0.3102658333939231,0.3,1.0,1.0,381.0,667.0,1.0,1,132.0,1
539,539,0.13031672074583767,0.1,1.0,1.0,498.0,745.0,1.0,1,657.0,1
540,540,0.4921285561608705,0.5,0.0,0.0,493.0,732.0,0.0,1,275.0,1
541,541,0.12184405218206684,0.1,0.0,0.0,476.0,518.0,0.0,1,4006.0,1
542,542,0.07708267114748513,0.1,0.0,0.0,302.0,521.0,1.0,0,987.0,0
543,543,-0.5937874047371737,-0.6,0.0,1.0,308.0,818.0,1.0,0,354.0,1
544,544,0.567836389733709,0.6,1.0,1.0,488.0,999.0,1.0,1,143.0,1
545,545,0.6295556782732618,0.6,0.0,0.0,409.0,718.0,0.0,1,583.0,1
546,546,-0.07451676358115245,-0.1,0.0,1.0,469.0,724.0,1.0,0,1097.0,1
547,547,-0.47519596200754444,-0.5,0.0,1.0,327.0,505.0,1.0,0,448.0,1
548,548,0.5983420396744393,0.6,1.0,1.0,425.0,738.0,1.0,1,397.0,1
549,549,-0.5477023263924841,-0.5,0.0,1.0,482.0,580.0,1.0,0,448.0,1
550,550,0.3175362568576846,0.3,1.0,1.0,351.0,594.0,1.0,1,335.0,1
551,551,0.5438551131914416,0.5,1.0,1.0,416.0,810.0,1.0,1,324.0,1
552,552,-0.3192279643678734,-0.3,1.0,0.0,290.0,980.0,1.0,1,20.0,0
553,553,0.01636788435483305,0.0,1.0,1.0,370.0,520.0,1.0,1,630.0,1
554,554,0.4134972291379234,0.4,0.0,0.0,350.0,527.0,0.0,1,433.0,1
555,555,-0.2835655647168732,-0.3,0.0,1.0,273.0,761.0,1.0,0,216.0,1
556,556,0.6135351756665904,0.6,0.0,0.0,428.0,952.0,0.0,1,360.0,1
557,557,-0.7356435707272229,-0.7,1.0,0.0,358.0,560.0,0.0,0,362.0,1
558,558,0.7412361594585276,0.7,1.0,1.0,272.0,680.0,1.0,1,218.0,1
559,559,-0.14258472063617256,-0.1,1.0,0.0,289.0,970.0,0.0,0,681.0,1
560,560,0.07784815513612275,0.1,0.0,0.0,477.0,681.0,0.0,1,3842.0,1
561,561,0.7243994977705471,0.7,0.0,0.0,342.0,958.0,0.0,1,90.0,1
562,562,0.7694962155368598,0.8,0.0,0.0,446.0,710.0,0.0,1,424.0,1
563,563,-0.34838259406559,-0.3,0.0,1.0,400.0,830.0,1.0,0,220.0,1
564,564,0.5286722236717453,0.5,0.0,0.0,370.0,669.0,0.0,1,241.0,1
565,565,-0.3492931793241363,-0.3,0.0,1.0,287.0,655.0,1.0,0,498.0,1
566,566,0.09580368742298007,0.1,1.0,1.0,487.0,740.0,1.0,1,603.0,1
567,567,-0.6521709470687141,-0.7,1.0,0.0,302.0,824.0,0.0,0,204.0,1
568,568,-0.8579016145025159,-0.9,1.0,0.0,404.0,627.0,0.0,0,409.0,1
569,569,0.08145145729942316,0.1,0.0,0.0,289.0,932.0,1.0,0,2079.0,0
570,570,0.6622394657832954,0.7,0.0,0.0,323.0,510.0,0.0,1,677.0,1
571,571,0.38333987650977297,0.4,0.0,0.0,484.0,807.0,0.0,1,1089.0,1
572,572,-0.7972235509123957,-0.8,1.0,0.0,374.0,559.0,0.0,0,247.0,1
573,573,0.7665631228426008,0.8,1.0,1.0,270.0,660.0,1.0,1,180.0,1
574,574,-0.5487932216172924,-0.5,1.0,0.0,446.0,808.0,0.0,0,426.0,1
575,575,-0.012422623310584635,-0.0,0.0,1.0,459.0,578.0,1.0,0,1373.0,1
576,576,-0.6607484525834905,-0.7,1.0,0.0,432.0,659.0,0.0,0,509.0,1
577,577,-0.4325020399373217,-0.4,0.0,1.0,493.0,665.0,1.0,0,212.0,1
578,578,0.6802448341040045,0.7,0.0,0.0,399.0,786.0,0.0,1,125.0,1
579,579,-0.29602251587968587,-0.3,0.0,1.0,250.0,613.0,1.0,0,307.0,1
580,580,0.73054563579289,0.7,0.0,0.0,316.0,607.0,0.0,1,397.0,1
581,581,-0.7972447010095347,-0.8,1.0,0.0,280.0,753.0,0.0,0,117.0,1
582,582,-0.17356531621375992,-0.2,0.0,1.0,485.0,824.0,1.0,0,361.0,1
583,583,0.0821386345174765,0.1,1.0,1.0,458.0,748.0,1.0,1,1504.0,1
584,584,0.7354398656435189,0.7,0.0,0.0,327.0,793.0,0.0,1,250.0,1
585,585,-0.5790702378433888,-0.6,0.0,1.0,423.0,627.0,1.0,0,220.0,1
586,586,0.7514744267819929,0.8,0.0,0.0,301.0,844.0,0.0,1,215.0,1
587,587,-0.26047920576815997,-0.3,1.0,0.0,346.0,666.0,0.0,0,698.0,1
588,588,0.3591490297637133,0.4,0.0,0.0,389.0,709.0,0.0,1,872.0,1
589,589,0.7731209542073744,0.8,1.0,1.0,292.0,643.0,1.0,1,135.0,1
590,590,-0.2493870772658856,-0.2,1.0,0.0,430.0,571.0,0.0,0,589.0,1
591,591,0.5598969749498816,0.6,0.0,0.0,283.0,881.0,0.0,1,236.0,1
592,592,0.05096784850349323,0.1,0.0,0.0,383.0,598.0,0.0,1,589.0,1
593,593,0.8053844093944903,0.8,0.0,0.0,463.0,565.0,0.0,1,342.0,1
594,594,0.42355754315855065,0.4,1.0,1.0,405.0,738.0,1.0,1,257.0,1
595,595,0.3292059503352994,0.3,1.0,1.0,299.0,929.0,1.0,1,92.0,1
596,596,0.8816035948571223,0.9,0.0,0.0,431.0,715.0,0.0,1,204.0,1
597,597,-0.5555873892965086,-0.6,0.0,1.0,388.0,750.0,1.0,0,202.0,1
598,598,-0.8263009323584575,-0.8,1.0,0.0,455.0,811.0,0.0,0,204.0,1
599,599,0.44642368874569816,0.4,1.0,1.0,384.0,695.0,1.0,1,241.0,1
600,600,0.7095993785392992,0.7,0.0,0.0,450.0,767.0,0.0,1,173.0,1
601,601,0.8001631997290309,0.8,0.0,0.0,284.0,819.0,0.0,1,247.0,1
602,602,-0.49372489744556497,-0.5,1.0,0.0,450.0,759.0,0.0,0,611.0,1
603,603,0.5539342309198759,0.6,0.0,0.0,440.0,525.0,0.0,1,405.0,1
604,604,-0.40963641588722405,-0.4,1.0,0.0,325.0,736.0,0.0,0,329.0,1
605,605,0.4855450445791166,0.5,0.0,0.0,467.0,606.0,0.0,1,397.0,1
606,606,0.8695600359506824,0.9,1.0,1.0,399.0,540.0,1.0,1,291.0,1
607,607,0.7120707419787317,0.7,0.0,0.0,419.0,550.0,0.0,1,461.0,1
608,608,-0.7671722342597811,-0.8,0.0,1.0,385.0,932.0,1.0,0,253.0,1
609,609,-0.6111096385010819,-0.6,0.0,1.0,416.0,641.0,1.0,0,203.0,1
610,610,-0.17560284320207986,-0.2,0.0,1.0,318.0,672.0,1.0,0,1320.0,1
611,611,-0.8687783645749102,-0.9,0.0,1.0,286.0,689.0,1.0,0,205.0,1
612,612,0.1865980197194631,0.2,1.0,1.0,258.0,609.0,1.0,1,353.0,1
613,613,0.5390283322378978,0.5,0.0,0.0,323.0,663.0,0.0,1,304.0,1
614,614,-0.24438744859443629,-0.2,1.0,0.0,376.0,910.0,0.0,0,1344.0,1
615,615,-0.22066350266192425,-0.2,1.0,0.0,426.0,618.0,0.0,0,3096.0,1
616,616,-0.6601880856362592,-0.7,0.0,1.0,403.0,533.0,1.0,0,344.0,1
617,617,-0.32427628994401814,-0.3,1.0,0.0,302.0,985.0,0.0,0,123.0,1
618,618,-0.025630786065519273,-0.0,0.0,1.0,398.0,967.0,1.0,0,2695.0,1
619,619,0.6279354537999081,0.6,1.0,1.0,296.0,529.0,1.0,1,375.0,1
620,620,0.5713424851788748,0.6,0.0,0.0,347.0,746.0,0.0,1,537.0,1
621,621,0.3647435240274789,0.4,1.0,1.0,368.0,819.0,1.0,1,203.0,1
622,622,-0.5692988816329174,-0.6,0.0,1.0,288.0,903.0,1.0,0,99.0,1
623,623,0.26814418407469487,0.3,1.0,1.0,265.0,768.0,1.0,1,257.0,1
624,624,0.47141460852938744,0.5,0.0,0.0,412.0,815.0,0.0,1,573.0,1
625,625,0.8699710291178667,0.9,1.0,1.0,278.0,895.0,1.0,1,77.0,1
626,626,0.4315531972574481,0.4,1.0,1.0,309.0,848.0,1.0,1,413.0,1
627,627,-0.17034592627303957,-0.2,1.0,0.0,331.0,575.0,0.0,0,4094.0,1
628,628,0.5213574916022262,0.5,0.0,0.0,263.0,815.0,0.0,1,142.0,1
629,629,0.13072972881282852,0.1,1.0,1.0,251.0,508.0,1.0,1,1051.0,1
630,630,-0.16271803526076078,-0.2,0.0,1.0,352.0,798.0,1.0,0,610.0,1
631,631,-0.042127633448916346,-0.0,0.0,1.0,430.0,523.0,1.0,0,657.0,1
632,632,0.47201561065946673,0.5,0.0,0.0,270.0,653.0,0.0,1,347.0,1
633,633,-0.3708440828191767,-0.4,1.0,0.0,315.0,579.0,0.0,0,576.0,1
634,634,-0.08626642952718844,-0.1,1.0,0.0,489.0,633.0,1.0,1,688.0,0
635,635,-0.3023341748972246,-0.3,0.0,1.0,318.0,647.0,1.0,0,285.0,1
636,636,0.33120446706792384,0.3,0.0,0.0,487.0,696.0,0.0,1,427.0,1
637,637,0.48855780946149807,0.5,0.0,0.0,373.0,842.0,0.0,1,465.0,1
638,638,0.1383599767013367,0.1,0.0,0.0,376.0,788.0,0.0,1,1716.0,1
639,639,-0.6623203144245423,-0.7,1.0,0.0,430.0,594.0,0.0,0,556.0,1
640,640,0.31452698524242984,0.3,1.0,1.0,446.0,698.0,1.0,1,406.0,1
641,641,-0.05923481326085778,-0.1,0.0,1.0,326.0,989.0,1.0,0,1065.0,1
642,642,0.07789445551536611,0.1,1.0,1.0,413.0,500.0,1.0,1,437.0,1
643,643,-0.6374510642046982,-0.6,1.0,0.0,328.0,612.0,0.0,0,450.0,1
644,644,-0.5600593859691827,-0.6,0.0,1.0,258.0,881.0,1.0,0,241.0,1
645,645,0.5743912951934177,0.6,0.0,0.0,479.0,508.0,0.0,1,433.0,1
646,646,0.5293960337632445,0.5,1.0,1.0,277.0,788.0,1.0,1,355.0,1
647,647,0.06340867881127688,0.1,0.0,0.0,379.0,584.0,0.0,1,2137.0,1
648,648,-0.544059902971801,-0.5,1.0,0.0,405.0,536.0,0.0,0,309.0,1
649,649,0.84913329563761,0.8,0.0,0.0,252.0,545.0,0.0,1,403.0,1
650,650,-0.8705324598978788,-0.9,0.0,1.0,373.0,605.0,1.0,0,132.0,1
651,651,-0.6578671873201593,-0.7,1.0,0.0,375.0,954.0,0.0,0,171.0,1
652,652,-0.6795062468236477,-0.7,0.0,1.0,384.0,501.0,1.0,0,305.0,1
653,653,0.06569100898881541,0.1,1.0,1.0,412.0,514.0,1.0,1,644.0,1
654,654,-0.2229036490121864,-0.2,0.0,1.0,488.0,925.0,1.0,0,137.0,1
655,655,0.4161434181594116,0.4,1.0,1.0,432.0,595.0,1.0,1,343.0,1
656,656,0.2644378303870617,0.3,1.0,1.0,496.0,798.0,1.0,1,236.0,1
657,657,-0.31549989396842226,-0.3,1.0,0.0,357.0,579.0,0.0,0,604.0,1
658,658,0.2832913044858584,0.3,1.0,1.0,319.0,737.0,1.0,1,454.0,1
659,659,0.7366024992684282,0.7,1.0,1.0,347.0,578.0,1.0,1,395.0,1
660,660,-0.5007136871877252,-0.5,0.0,1.0,318.0,963.0,1.0,0,69.0,1
661,661,-0.5425854049815584,-0.5,0.0,1.0,488.0,938.0,1.0,0,214.0,1
662,662,0.198953326605399,0.2,0.0,0.0,436.0,867.0,0.0,1,857.0,1
663,663,-0.2006765189123042,-0.2,1.0,0.0,358.0,914.0,1.0,1,3728.0,0
664,664,-0.5184392622567097,-0.5,0.0,1.0,348.0,737.0,1.0,0,195.0,1
665,665,0.7463356306110077,0.7,1.0,1.0,395.0,825.0,1.0,1,280.0,1
666,666,0.6292679172829051,0.6,1.0,1.0,493.0,511.0,1.0,1,356.0,1
667,667,0.5883990634601156,0.6,1.0,1.0,435.0,862.0,1.0,1,173.0,1
668,668,-0.3816205769049643,-0.4,1.0,0.0,287.0,892.0,0.0,0,551.0,1
669,669,0.8863713286432743,0.9,0.0,0.0,493.0,793.0,0.0,1,284.0,1
670,670,0.5384991761804702,0.5,1.0,1.0,291.0,846.0,1.0,1,193.0,1
671,671,-0.44691045685655895,-0.4,0.0,1.0,420.0,736.0,1.0,0,404.0,1
672,672,-0.42915688747457975,-0.4,1.0,0.0,442.0,997.0,0.0,0,281.0,1
673,673,-0.6869117528520368,-0.7,0.0,1.0,279.0,971.0,1.0,0,270.0,1
674,674,-0.18589223740126604,-0.2,0.0,1.0,353.0,559.0,1.0,0,838.0,1
675,675,-0.27613717588828224,-0.3,1.0,0.0,435.0,802.0,0.0,0,403.0,1
676,676,-0.13850196942126414,-0.1,0.0,1.0,446.0,971.0,1.0,0,193.0,1
677,677,0.6074897545088235,0.6,0.0,0.0,357.0,710.0,0.0,1,263.0,1
678,678,-0.11593128887320481,-0.1,1.0,0.0,448.0,914.0,1.0,1,-72.0,0
679,679,-0.03830961749999773,-0.0,1.0,0.0,303.0,719.0,1.0,1,908.0,0
680,680,-0.31607620538919556,-0.3,0.0,1.0,252.0,670.0,1.0,0,458.0,1
681,681,0.7731636301704853,0.8,1.0,1.0,399.0,502.0,1.0,1,289.0,1
682,682,0.3403186237056509,0.3,0.0,0.0,292.0,816.0,0.0,1,282.0,1
683,683,-0.8011146528708081,-0.8,1.0,0.0,464.0,609.0,0.0,0,387.0,1
684,684,0.5088742363914561,0.5,0.0,0.0,452.0,849.0,0.0,1,559.0,1
685,685,-0.4346574772625345,-0.4,0.0,1.0,275.0,850.0,1.0,0,105.0,1
686,686,-0.7104411402617945,-0.7,1.0,0.0,490.0,981.0,0.0,0,239.0,1
687,687,0.010444548661540431,0.0,1.0,1.0,262.0,964.0,1.0,1,104.0,1
688,688,-0.5318505891076477,-0.5,0.0,1.0,477.0,846.0,1.0,0,157.0,1
689,689,0.06629128792952466,0.1,0.0,0.0,344.0,565.0,1.0,0,2641.0,0
690,690,0.6763784239208316,0.7,1.0,1.0,447.0,799.0,1.0,1,184.0,1
691,691,-0.4643477119501259,-0.5,1.0,0.0,252.0,792.0,0.0,0,336.0,1
692,692,-0.05166645635966505,-0.1,1.0,0.0,462.0,709.0,1.0,1,949.0,0
693,693,-0.5866248321135821,-0.6,1.0,0.0,362.0,770.0,0.0,0,328.0,1
694,694,-0.8061219879720419,-0.8,1.0,0.0,277.0,651.0,0.0,0,342.0,1
695,695,0.5376755786138242,0.5,1.0,1.0,258.0,907.0,1.0,1,85.0,1
696,696,0.2602949798189772,0.3,0.0,0.0,470.0,814.0,0.0,1,596.0,1
697,697,-0.854076054059297,-0.9,1.0,0.0,343.0,747.0,0.0,0,210.0,1
698,698,-0.39959695127500594,-0.4,0.0,1.0,416.0,826.0,1.0,0,198.0,1
699,699,-0.8860688191349655,-0.9,1.0,0.0,369.0,624.0,0.0,0,237.0,1
700,700,0.43888130032522843,0.4,1.0,1.0,409.0,575.0,1.0,1,376.0,1
701,701,-0.4200274241118887,-0.4,1.0,0.0,311.0,760.0,0.0,0,569.0,1
702,702,0.40094097531802075,0.4,1.0,1.0,300.0,817.0,1.0,1,113.0,1
703,703,-0.3391576151400947,-0.3,0.0,1.0,336.0,521.0,1.0,0,503.0,1
704,704,0.7137493754108853,0.7,0.0,0.0,461.0,973.0,0.0,1,196.0,1
705,705,0.5844317968764688,0.6,0.0,0.0,381.0,867.0,0.0,1,112.0,1
706,706,-0.22597294492280162,-0.2,1.0,0.0,486.0,813.0,0.0,0,1671.0,1
707,707,-0.3643873585680554,-0.4,1.0,0.0,287.0,533.0,0.0,0,740.0,1
708,708,-0.5729268063790773,-0.6,0.0,1.0,450.0,622.0,1.0,0,188.0,1
709,709,0.8171743639660006,0.8,1.0,1.0,371.0,500.0,1.0,1,389.0,1
710,710,0.3755389295084347,0.4,0.0,0.0,280.0,781.0,0.0,1,439.0,1
711,711,-0.7108091747223676,-0.7,0.0,1.0,437.0,853.0,1.0,0,190.0,1
712,712,-0.5937567816092281,-0.6,1.0,0.0,411.0,886.0,0.0,0,433.0,1
713,713,-0.37389513902610305,-0.4,1.0,0.0,371.0,994.0,0.0,0,475.0,1
714,714,-0.004179759297828656,-0.0,0.0,1.0,441.0,892.0,0.0,1,747.0,0
715,715,-0.010675275953901164,-0.0,0.0,1.0,305.0,885.0,1.0,0,1600.0,1
716,716,0.8632763564275882,0.9,1.0,1.0,344.0,921.0,1.0,1,245.0,1
717,717,0.28465560163592174,0.3,0.0,0.0,329.0,917.0,0.0,1,304.0,1
718,718,0.6683885971161992,0.7,1.0,1.0,494.0,678.0,1.0,1,198.0,1
719,719,-0.7053987286774072,-0.7,1.0,0.0,428.0,846.0,0.0,0,366.0,1
720,720,-0.5820027840422783,-0.6,0.0,1.0,438.0,745.0,1.0,0,187.0,1
721,721,0.5727266098961504,0.6,0.0,0.0,497.0,906.0,0.0,1,147.0,1
722,722,0.4211622423162401,0.4,0.0,0.0,370.0,545.0,0.0,1,575.0,1
723,723,-0.5635351316225758,-0.6,0.0,1.0,461.0,600.0,1.0,0,379.0,1
724,724,0.09072020312761053,0.1,0.0,0.0,303.0,618.0,0.0,1,1569.0,1
725,725,0.4807316019835818,0.5,0.0,0.0,270.0,948.0,0.0,1,462.0,1
726,726,-0.5222653558025452,-0.5,0.0,1.0,496.0,806.0,1.0,0,128.0,1
727,727,0.067826618685208,0.1,1.0,1.0,351.0,992.0,1.0,1,217.0,1
728,728,-0.3319570700386557,-0.3,0.0,1.0,486.0,565.0,1.0,0,579.0,1
729,729,-0.1038304377613315,-0.1,0.0,1.0,464.0,651.0,1.0,0,375.0,1
730,730,-0.1078576668117831,-0.1,0.0,1.0,379.0,769.0,1.0,0,792.0,1
731,731,0.45832738326409717,0.5,0.0,0.0,472.0,520.0,0.0,1,238.0,1
732,732,0.37993290372511745,0.4,1.0,1.0,485.0,772.0,1.0,1,193.0,1
733,733,-0.38135558264708613,-0.4,0.0,1.0,300.0,620.0,1.0,0,260.0,1
734,734,-0.23166469362998598,-0.2,1.0,0.0,254.0,822.0,0.0,0,1644.0,1
735,735,0.7215330483810097,0.7,1.0,1.0,280.0,579.0,1.0,1,441.0,1
736,736,-0.6007872644641702,-0.6,1.0,0.0,343.0,850.0,0.0,0,327.0,1
737,737,-0.6768497482759921,-0.7,1.0,0.0,276.0,754.0,0.0,0,190.0,1
738,738,0.7784936724986528,0.8,0.0,0.0,449.0,758.0,0.0,1,303.0,1
739,739,0.5613103350146528,0.6,1.0,1.0,338.0,903.0,1.0,1,99.0,1
740,740,0.45508630910000114,0.5,0.0,0.0,473.0,622.0,0.0,1,615.0,1
741,741,-0.372489885800658,-0.4,1.0,0.0,286.0,510.0,0.0,0,814.0,1
742,742,0.30464209109018714,0.3,0.0,0.0,281.0,650.0,0.0,1,779.0,1
743,743,0.7597113468768432,0.8,1.0,1.0,390.0,541.0,1.0,1,209.0,1
744,744,-0.08291393262860736,-0.1,1.0,0.0,404.0,901.0,1.0,1,1565.0,0
745,745,-0.12276208774635189,-0.1,1.0,0.0,369.0,797.0,1.0,1,2174.0,0
746,746,0.13822910363750152,0.1,1.0,1.0,431.0,753.0,1.0,1,226.0,1
747,747,-0.8803944469843826,-0.9,0.0,1.0,263.0,924.0,1.0,0,83.0,1
748,748,-0.5593680243275643,-0.6,0.0,1.0,378.0,757.0,1.0,0,255.0,1
749,749,0.5866477421460147,0.6,1.0,1.0,308.0,682.0,1.0,1,270.0,1
750,750,-0.6490278617720928,-0.6,0.0,1.0,334.0,742.0,1.0,0,234.0,1
751,751,0.7324272537085664,0.7,0.0,0.0,436.0,568.0,0.0,1,276.0,1
752,752,0.22128543147888446,0.2,0.0,0.0,282.0,767.0,0.0,1,2121.0,1
753,753,0.5162450805270299,0.5,1.0,1.0,377.0,788.0,1.0,1,295.0,1
754,754,0.6238551322808851,0.6,0.0,0.0,346.0,924.0,0.0,1,460.0,1
755,755,0.6872384734541462,0.7,1.0,1.0,429.0,884.0,1.0,1,157.0,1
756,756,0.03499931956709068,0.0,1.0,1.0,263.0,922.0,1.0,1,1125.0,1
757,757,0.7551065636103683,0.8,0.0,0.0,342.0,570.0,0.0,1,948.0,1
758,758,0.6080167985689043,0.6,1.0,1.0,251.0,869.0,1.0,1,210.0,1
759,759,-0.44944075336862405,-0.4,0.0,1.0,330.0,503.0,1.0,0,557.0,1
760,760,0.20588687216285206,0.2,0.0,0.0,384.0,735.0,0.0,1,641.0,1
761,761,-0.06638026977462508,-0.1,1.0,0.0,376.0,916.0,1.0,1,3708.0,0
762,762,-0.06567092897626503,-0.1,0.0,1.0,322.0,628.0,1.0,0,560.0,1
763,763,-0.5735893461092092,-0.6,0.0,1.0,397.0,530.0,1.0,0,383.0,1
764,764,-0.7105405397720874,-0.7,1.0,0.0,250.0,932.0,0.0,0,258.0,1
765,765,0.6520157414364652,0.7,0.0,0.0,319.0,810.0,0.0,1,251.0,1
766,766,0.16786875442620575,0.2,1.0,1.0,481.0,791.0,1.0,1,638.0,1
767,767,0.5859206431139897,0.6,0.0,0.0,336.0,824.0,0.0,1,240.0,1
768,768,-0.7554768040667152,-0.8,0.0,1.0,424.0,985.0,1.0,0,91.0,1
769,769,-0.6893409770435956,-0.7,1.0,0.0,382.0,727.0,0.0,0,391.0,1
770,770,0.6235713088504732,0.6,0.0,0.0,450.0,690.0,0.0,1,600.0,1
771,771,0.6340882654448251,0.6,1.0,1.0,381.0,592.0,1.0,1,417.0,1
772,772,0.2718840562109369,0.3,1.0,1.0,313.0,549.0,1.0,1,698.0,1
773,773,-0.7248864210779592,-0.7,1.0,0.0,398.0,744.0,0.0,0,388.0,1
774,774,0.8891775169011046,0.9,1.0,1.0,338.0,759.0,1.0,1,153.0,1
775,775,0.15260336659125573,0.2,0.0,0.0,318.0,818.0,0.0,1,3864.0,1
776,776,-0.3995292920883744,-0.4,1.0,0.0,357.0,596.0,0.0,0,407.0,1
777,777,-0.36661177751772045,-0.4,0.0,1.0,442.0,858.0,1.0,0,110.0,1
778,778,-0.40181060284678993,-0.4,1.0,0.0,409.0,670.0,0.0,0,1431.0,1
779,779,0.5415297535247562,0.5,0.0,0.0,487.0,632.0,0.0,1,271.0,1
780,780,-0.4230395978900253,-0.4,1.0,0.0,402.0,754.0,0.0,0,224.0,1
781,781,-0.14919471680032692,-0.1,0.0,1.0,419.0,783.0,1.0,0,628.0,1
782,782,0.0973741756646399,0.1,1.0,1.0,323.0,938.0,1.0,1,449.0,1
783,783,0.11122121704309429,0.1,1.0,1.0,283.0,972.0,1.0,1,345.0,1
784,784,0.4244177355761104,0.4,1.0,1.0,480.0,873.0,1.0,1,87.0,1
785,785,0.6008824423149796,0.6,0.0,0.0,325.0,668.0,0.0,1,347.0,1
786,786,0.3779044582342256,0.4,0.0,0.0,264.0,635.0,0.0,1,871.0,1
787,787,0.5726540488953987,0.6,0.0,0.0,303.0,659.0,0.0,1,228.0,1
788,788,0.06627795174700535,0.1,0.0,0.0,452.0,599.0,0.0,1,629.0,1
789,789,0.08251893402984134,0.1,0.0,0.0,463.0,963.0,1.0,0,814.0,0
790,790,0.6984369067013109,0.7,1.0,1.0,414.0,544.0,1.0,1,242.0,1
791,791,-0.5181600954664376,-0.5,1.0,0.0,255.0,835.0,0.0,0,280.0,1
792,792,0.5624958053710417,0.6,1.0,1.0,489.0,851.0,1.0,1,170.0,1
793,793,0.37569934381806547,0.4,0.0,0.0,364.0,904.0,0.0,1,272.0,1
794,794,0.628775089452904,0.6,1.0,1.0,499.0,598.0,1.0,1,283.0,1
795,795,0.4274117365018909,0.4,0.0,0.0,445.0,921.0,0.0,1,104.0,1
796,796,0.18847078213196566,0.2,0.0,0.0,392.0,919.0,0.0,1,599.0,1
797,797,0.4738234708173864,0.5,1.0,1.0,313.0,830.0,1.0,1,177.0,1
798,798,-0.5535099485511291,-0.6,0.0,1.0,277.0,616.0,1.0,0,447.0,1
799,799,-0.5817663020132011,-0.6,1.0,0.0,481.0,872.0,0.0,0,187.0,1
800,800,0.5571143500805035,0.6,0.0,0.0,473.0,533.0,0.0,1,634.0,1
801,801,-0.896943757336689,-0.9,1.0,0.0,338.0,774.0,0.0,0,278.0,1
802,802,0.4822899506624688,0.5,1.0,1.0,476.0,653.0,1.0,1,341.0,1
803,803,-0.43543362405316166,-0.4,1.0,0.0,483.0,968.0,0.0,0,289.0,1
804,804,-0.27867094770798795,-0.3,1.0,0.0,401.0,887.0,1.0,1,-88.0,0
805,805,0.041701015989162205,0.0,1.0,1.0,377.0,880.0,0.0,0,303.0,0
806,806,-0.05045023950117322,-0.1,1.0,0.0,386.0,657.0,1.0,1,617.0,0
807,807,-0.5990035610661245,-0.6,0.0,1.0,349.0,686.0,1.0,0,525.0,1
808,808,-0.6115911918394155,-0.6,1.0,0.0,257.0,778.0,0.0,0,225.0,1
809,809,0.5760112991648852,0.6,1.0,1.0,275.0,598.0,1.0,1,197.0,1
810,810,0.7236612390541709,0.7,0.0,0.0,375.0,908.0,0.0,1,177.0,1
811,811,-0.17441331284220563,-0.2,1.0,0.0,307.0,531.0,0.0,0,1352.0,1
812,812,-0.6400061745699603,-0.6,0.0,1.0,354.0,658.0,1.0,0,288.0,1
813,813,-0.4211538623139595,-0.4,0.0,1.0,328.0,675.0,1.0,0,437.0,1
814,814,-0.16572315746552135,-0.2,1.0,0.0,254.0,885.0,0.0,0,1931.0,1
815,815,0.5303308712826392,0.5,0.0,0.0,341.0,892.0,0.0,1,307.0,1
816,816,-0.4014745973732989,-0.4,0.0,1.0,383.0,808.0,1.0,0,339.0,1
817,817,-0.3279455055703975,-0.3,1.0,0.0,419.0,691.0,0.0,0,460.0,1
818,818,-0.33634527250824364,-0.3,0.0,1.0,295.0,529.0,1.0,0,306.0,1
819,819,-0.5307887845456798,-0.5,1.0,0.0,314.0,739.0,0.0,0,207.0,1
820,820,-0.6442073012378626,-0.6,1.0,0.0,279.0,939.0,0.0,0,302.0,1
821,821,0.5814093898490068,0.6,1.0,1.0,348.0,545.0,1.0,1,267.0,1
822,822,-0.007542030281195378,-0.0,0.0,1.0,343.0,992.0,0.0,1,1725.0,0
823,823,0.4722696651286681,0.5,0.0,0.0,424.0,885.0,0.0,1,321.0,1
824,824,0.47510344213313693,0.5,1.0,1.0,284.0,840.0,1.0,1,326.0,1
825,825,-0.42413372557553086,-0.4,1.0,0.0,472.0,880.0,0.0,0,908.0,1
826,826,0.40017492264157883,0.4,1.0,1.0,445.0,747.0,1.0,1,268.0,1
827,827,-0.12407496256518302,-0.1,0.0,1.0,283.0,626.0,1.0,0,711.0,1
828,828,-0.13745096009264035,-0.1,1.0,0.0,258.0,957.0,1.0,1,425.0,0
829,829,0.5426429997012993,0.5,1.0,1.0,387.0,765.0,1.0,1,318.0,1
830,830,0.3673875160218617,0.4,1.0,1.0,318.0,988.0,1.0,1,184.0,1
831,831,0.07484855338604712,0.1,0.0,0.0,434.0,932.0,1.0,0,494.0,0
832,832,0.5822071571762774,0.6,1.0,1.0,267.0,813.0,1.0,1,310.0,1
833,833,-0.2390015295195438,-0.2,1.0,0.0,472.0,520.0,0.0,0,3888.0,1
834,834,0.3693773968448236,0.4,0.0,0.0,366.0,901.0,0.0,1,183.0,1
835,835,-0.4863041843649433,-0.5,0.0,1.0,419.0,735.0,1.0,0,126.0,1
836,836,0.8282523144599397,0.8,0.0,0.0,328.0,725.0,0.0,1,257.0,1
837,837,-0.6890996986141708,-0.7,0.0,1.0,344.0,958.0,1.0,0,128.0,1
838,838,0.6548071818880333,0.7,1.0,1.0,427.0,825.0,1.0,1,228.0,1
839,839,0.04004001564016213,0.0,0.0,0.0,474.0,633.0,1.0,0,2663.0,0
840,840,-0.07462757125610686,-0.1,0.0,1.0,463.0,727.0,1.0,0,610.0,1
841,841,-0.32302197883815975,-0.3,1.0,0.0,391.0,667.0,0.0,0,722.0,1
842,842,-0.7434184510245667,-0.7,0.0,1.0,398.0,617.0,1.0,0,295.0,1
843,843,0.7844920164855743,0.8,0.0,0.0,317.0,624.0,0.0,1,389.0,1
844,844,-0.4767406217579972,-0.5,0.0,1.0,271.0,611.0,1.0,0,168.0,1
845,845,-0.007214375842026777,-0.0,0.0,1.0,473.0,536.0,1.0,0,931.0,1
846,846,-0.0624698515055766,-0.1,0.0,1.0,383.0,810.0,1.0,0,647.0,1
847,847,-0.038987765567474186,-0.0,1.0,0.0,480.0,959.0,1.0,1,951.0,0
848,848,0.1784612500713304,0.2,1.0,1.0,381.0,641.0,1.0,1,398.0,1
849,849,-0.1477757497165949,-0.1,1.0,0.0,412.0,998.0,1.0,1,2210.0,0
850,850,0.5485280550329931,0.5,0.0,0.0,330.0,843.0,0.0,1,297.0,1
851,851,-0.38501295886171216,-0.4,0.0,1.0,374.0,717.0,1.0,0,249.0,1
852,852,0.6444249080848564,0.6,1.0,1.0,314.0,738.0,1.0,1,188.0,1
853,853,-0.6754282028409586,-0.7,1.0,0.0,345.0,555.0,0.0,0,360.0,1
854,854,-0.6216985790698049,-0.6,1.0,0.0,424.0,742.0,0.0,0,324.0,1
855,855,0.01306778085671978,0.0,0.0,0.0,431.0,797.0,1.0,0,1492.0,0
856,856,-0.49005963301456584,-0.5,1.0,0.0,411.0,749.0,0.0,0,440.0,1
857,857,-0.4144575661656533,-0.4,1.0,0.0,484.0,548.0,0.0,0,468.0,1
858,858,0.30195428573882255,0.3,0.0,0.0,313.0,524.0,0.0,1,463.0,1
859,859,0.010010520058040817,0.0,1.0,1.0,387.0,677.0,1.0,1,3326.0,1
860,860,-0.7397707639547247,-0.7,1.0,0.0,426.0,980.0,0.0,0,174.0,1
861,861,0.2904973525853253,0.3,0.0,0.0,305.0,719.0,0.0,1,446.0,1
862,862,-0.7767106290879988,-0.8,1.0,0.0,454.0,850.0,0.0,0,126.0,1
863,863,-0.594053228580641,-0.6,0.0,1.0,370.0,714.0,1.0,0,146.0,1
864,864,-0.7494045322833456,-0.7,1.0,0.0,396.0,690.0,0.0,0,584.0,1
865,865,0.3728414301811408,0.4,1.0,1.0,320.0,799.0,1.0,1,181.0,1
866,866,0.443017063607858,0.4,0.0,0.0,292.0,535.0,0.0,1,513.0,1
867,867,0.41603676687443614,0.4,1.0,1.0,300.0,595.0,1.0,1,425.0,1
868,868,0.20294450888111581,0.2,1.0,1.0,448.0,831.0,1.0,1,101.0,1
869,869,-0.7801859912418518,-0.8,1.0,0.0,461.0,870.0,0.0,0,269.0,1
870,870,0.06741647393132377,0.1,1.0,1.0,438.0,673.0,1.0,1,439.0,1
871,871,0.1874615592105574,0.2,0.0,0.0,308.0,806.0,0.0,1,526.0,1
872,872,-0.1982752699899446,-0.2,0.0,1.0,308.0,602.0,1.0,0,460.0,1
873,873,-0.1813179946107476,-0.2,0.0,1.0,445.0,600.0,1.0,0,565.0,1
874,874,0.319347297393893,0.3,0.0,0.0,375.0,526.0,0.0,1,1159.0,1
875,875,0.16319241885829505,0.2,1.0,1.0,328.0,688.0,1.0,1,304.0,1
876,876,-0.7288308839407541,-0.7,0.0,1.0,385.0,667.0,1.0,0,178.0,1
877,877,0.1062358272525511,0.1,1.0,1.0,286.0,600.0,1.0,1,1224.0,1
878,878,0.4577598185168984,0.5,1.0,1.0,389.0,954.0,1.0,1,-83.0,1
879,879,-0.36337625755614045,-0.4,1.0,0.0,323.0,858.0,0.0,0,579.0,1
880,880,0.8044999409007391,0.8,1.0,1.0,274.0,838.0,1.0,1,188.0,1
881,881,-0.6336014333115565,-0.6,0.0,1.0,410.0,771.0,1.0,0,129.0,1
882,882,0.7266856727847281,0.7,1.0,1.0,347.0,521.0,1.0,1,362.0,1
883,883,-0.7887723855446851,-0.8,0.0,1.0,424.0,989.0,1.0,0,137.0,1
884,884,0.28323969296111684,0.3,1.0,1.0,378.0,517.0,1.0,1,645.0,1
885,885,0.36930213084489794,0.4,0.0,0.0,491.0,868.0,0.0,1,301.0,1
886,886,-0.10041640106007432,-0.1,0.0,1.0,402.0,830.0,1.0,0,278.0,1
887,887,0.7559183472216048,0.8,1.0,1.0,388.0,739.0,1.0,1,343.0,1
888,888,-0.33766162626758844,-0.3,0.0,1.0,364.0,755.0,1.0,0,431.0,1
889,889,-0.5588010410162751,-0.6,0.0,1.0,351.0,508.0,1.0,0,371.0,1
890,890,0.15694440107179142,0.2,1.0,1.0,415.0,610.0,1.0,1,215.0,1
891,891,0.6453906339445344,0.6,1.0,1.0,347.0,576.0,1.0,1,737.0,1
892,892,-0.26505113608532316,-0.3,1.0,0.0,329.0,825.0,0.0,0,216.0,1
893,893,-0.44325572921342743,-0.4,0.0,1.0,355.0,577.0,1.0,0,348.0,1
894,894,-0.3326144132751555,-0.3,0.0,1.0,271.0,531.0,1.0,0,538.0,1
895,895,0.8462738175622612,0.8,0.0,0.0,299.0,557.0,0.0,1,244.0,1
896,896,-0.22937870786655046,-0.2,0.0,1.0,276.0,973.0,1.0,0,-59.0,1
897,897,-0.40470151809194754,-0.4,1.0,0.0,312.0,622.0,0.0,0,476.0,1
898,898,-0.000696195946437439,-0.0,1.0,0.0,446.0,651.0,1.0,1,493.0,0
899,899,-0.8385373889813873,-0.8,0.0,1.0,268.0,671.0,1.0,0,171.0,1
900,900,0.1348610842532193,0.1,1.0,1.0,404.0,954.0,1.0,1,312.0,1
901,901,-0.37886033316006595,-0.4,1.0,0.0,268.0,968.0,0.0,0,174.0,1
902,902,0.0004444000756931299,0.0,0.0,0.0,383.0,559.0,1.0,0,1028.0,0
903,903,0.37227134719118216,0.4,0.0,0.0,296.0,609.0,0.0,1,675.0,1
904,904,0.6206873133805574,0.6,1.0,1.0,483.0,909.0,1.0,1,278.0,1
905,905,-0.5596830958775608,-0.6,1.0,0.0,266.0,942.0,0.0,0,272.0,1
906,906,-0.27848204154301603,-0.3,0.0,1.0,472.0,995.0,1.0,0,-17.0,1
907,907,-0.5711351795092303,-0.6,1.0,0.0,419.0,855.0,0.0,0,1586.0,1
908,908,0.06543742632468263,0.1,0.0,0.0,410.0,730.0,1.0,0,3230.0,0
909,909,-0.8363046435806294,-0.8,1.0,0.0,320.0,827.0,0.0,0,303.0,1
910,910,-0.0725580300641323,-0.1,0.0,1.0,287.0,584.0,1.0,0,1969.0,1
911,911,0.3022535424609357,0.3,0.0,0.0,493.0,608.0,0.0,1,839.0,1
912,912,0.07513938185619773,0.1,0.0,0.0,468.0,930.0,1.0,0,3272.0,0
913,913,-0.43813074874564667,-0.4,0.0,1.0,473.0,950.0,1.0,0,297.0,1
914,914,0.162324391446386,0.2,1.0,1.0,298.0,787.0,1.0,1,515.0,1
915,915,-0.395664060739889,-0.4,1.0,0.0,477.0,936.0,0.0,0,797.0,1
916,916,-0.19773734420789646,-0.2,1.0,0.0,266.0,932.0,0.0,0,1332.0,1
917,917,0.11903739077699893,0.1,1.0,1.0,304.0,575.0,1.0,1,681.0,1
918,918,0.539661910967855,0.5,0.0,0.0,449.0,972.0,0.0,1,139.0,1
919,919,-0.5922182474916436,-0.6,1.0,0.0,490.0,930.0,0.0,0,420.0,1
920,920,0.18145731972025503,0.2,1.0,1.0,274.0,834.0,1.0,1,-128.0,1
921,921,0.7475689089259757,0.7,0.0,0.0,453.0,776.0,0.0,1,241.0,1
922,922,0.4764615220553229,0.5,0.0,0.0,375.0,509.0,0.0,1,456.0,1
923,923,0.27297186201360424,0.3,0.0,0.0,363.0,538.0,0.0,1,309.0,1
924,924,0.6280244209625595,0.6,1.0,1.0,270.0,916.0,1.0,1,124.0,1
925,925,0.590724624960605,0.6,1.0,1.0,445.0,722.0,1.0,1,243.0,1
926,926,0.26604213599630755,0.3,1.0,1.0,408.0,540.0,1.0,1,692.0,1
927,927,0.8715749836430667,0.9,0.0,0.0,497.0,626.0,0.0,1,337.0,1
928,928,-0.032051736123843266,-0.0,0.0,1.0,468.0,590.0,1.0,0,1472.0,1
929,929,-0.7529066626616427,-0.8,0.0,1.0,371.0,568.0,1.0,0,331.0,1
930,930,-0.3992288526219454,-0.4,1.0,0.0,442.0,557.0,0.0,0,791.0,1
931,931,-0.06662653988495193,-0.1,0.0,1.0,260.0,729.0,1.0,0,841.0,1
932,932,-0.3706623104750083,-0.4,0.0,1.0,367.0,583.0,1.0,0,510.0,1
933,933,-0.16024455198078313,-0.2,0.0,1.0,268.0,875.0,1.0,0,407.0,1
934,934,-0.4256032220594251,-0.4,1.0,0.0,404.0,533.0,0.0,0,1183.0,1
935,935,-0.04142548533790569,-0.0,1.0,0.0,254.0,515.0,1.0,1,1021.0,0
936,936,0.6583493189540398,0.7,1.0,1.0,393.0,809.0,1.0,1,218.0,1
937,937,0.7885313676586229,0.8,0.0,0.0,339.0,824.0,0.0,1,197.0,1
938,938,-0.7659242902824964,-0.8,1.0,0.0,367.0,575.0,0.0,0,348.0,1
939,939,-0.35306931092916793,-0.4,0.0,1.0,284.0,646.0,1.0,0,360.0,1
940,940,-0.3202459123933281,-0.3,1.0,0.0,481.0,608.0,0.0,0,1631.0,1
941,941,0.7390207301826678,0.7,0.0,0.0,426.0,520.0,0.0,1,464.0,1
942,942,-0.8022385201822065,-0.8,1.0,0.0,450.0,847.0,0.0,0,203.0,1
943,943,-0.8181280337081087,-0.8,1.0,0.0,298.0,596.0,0.0,0,396.0,1
944,944,0.4941842834733917,0.5,0.0,0.0,421.0,850.0,0.0,1,459.0,1
945,945,-0.7270886054534615,-0.7,0.0,1.0,336.0,535.0,1.0,0,229.0,1
946,946,-0.6078801880603852,-0.6,1.0,0.0,377.0,622.0,0.0,0,411.0,1
947,947,-0.8085959290943437,-0.8,0.0,1.0,490.0,662.0,1.0,0,248.0,1
948,948,-0.7894337624284283,-0.8,1.0,0.0,296.0,939.0,0.0,0,215.0,1
949,949,0.7039030228802564,0.7,0.0,0.0,364.0,765.0,0.0,1,111.0,1
950,950,-0.33868946322476257,-0.3,0.0,1.0,277.0,845.0,1.0,0,758.0,1
951,951,0.43326618022436303,0.4,1.0,1.0,414.0,723.0,1.0,1,143.0,1
952,952,-0.1737209168307683,-0.2,0.0,1.0,458.0,584.0,1.0,0,668.0,1
953,953,0.33225136224085083,0.3,1.0,1.0,398.0,881.0,1.0,1,341.0,1
954,954,0.11134788324472578,0.1,0.0,0.0,405.0,947.0,0.0,1,3648.0,1
955,955,-0.5908408813300321,-0.6,1.0,0.0,410.0,854.0,0.0,0,336.0,1
956,956,0.5798464668392719,0.6,1.0,1.0,321.0,932.0,1.0,1,197.0,1
957,957,0.8470922175202563,0.8,1.0,1.0,344.0,627.0,1.0,1,139.0,1
958,958,-0.6128828535561632,-0.6,1.0,0.0,364.0,946.0,0.0,0,250.0,1
959,959,-0.27073649506017117,-0.3,1.0,0.0,339.0,739.0,0.0,0,402.0,1
960,960,-0.4659807592220526,-0.5,1.0,0.0,424.0,858.0,0.0,0,488.0,1
961,961,0.1586284206305556,0.2,1.0,1.0,277.0,648.0,1.0,1,295.0,1
962,962,-0.5571551519855404,-0.6,1.0,0.0,270.0,629.0,0.0,0,431.0,1
963,963,0.0672075154459717,0.1,1.0,1.0,305.0,853.0,1.0,1,262.0,1
964,964,0.6213326969973244,0.6,0.0,0.0,496.0,706.0,0.0,1,298.0,1
965,965,0.32362307831427295,0.3,1.0,1.0,498.0,697.0,1.0,1,525.0,1
966,966,-0.7266922105400415,-0.7,0.0,1.0,452.0,967.0,1.0,0,161.0,1
967,967,-0.2610414497553437,-0.3,0.0,1.0,478.0,514.0,1.0,0,538.0,1
968,968,-0.7495734663449991,-0.7,0.0,1.0,322.0,894.0,1.0,0,184.0,1
969,969,-0.08611482621040112,-0.1,1.0,0.0,419.0,963.0,1.0,1,3618.0,0
970,970,-0.8875090629119455,-0.9,0.0,1.0,253.0,668.0,1.0,0,219.0,1
971,971,-0.31841261392682063,-0.3,1.0,0.0,256.0,823.0,0.0,0,751.0,1
972,972,0.5634396509988894,0.6,0.0,0.0,268.0,654.0,0.0,1,338.0,1
973,973,0.11604779724407865,0.1,1.0,1.0,361.0,943.0,1.0,1,206.0,1
974,974,-0.7971254304166151,-0.8,1.0,0.0,384.0,843.0,0.0,0,353.0,1
975,975,0.1349916073283689,0.1,0.0,0.0,497.0,621.0,1.0,0,3882.0,0
976,976,-0.3281364509021406,-0.3,1.0,0.0,266.0,606.0,0.0,0,1108.0,1
977,977,-0.5925280522453849,-0.6,0.0,1.0,394.0,551.0,1.0,0,275.0,1
978,978,-0.6989695940868806,-0.7,0.0,1.0,360.0,562.0,1.0,0,308.0,1
979,979,-0.6115892271883774,-0.6,1.0,0.0,477.0,779.0,0.0,0,354.0,1
980,980,0.7253316129016775,0.7,0.0,0.0,304.0,690.0,0.0,1,266.0,1
981,981,-0.860878562886849,-0.9,1.0,0.0,268.0,679.0,0.0,0,233.0,1
982,982,-0.6109441022378794,-0.6,0.0,1.0,472.0,853.0,1.0,0,185.0,1
983,983,-0.4527061003331547,-0.5,0.0,1.0,495.0,707.0,1.0,0,148.0,1
984,984,0.2444690084585649,0.2,1.0,1.0,421.0,570.0,1.0,1,259.0,1
985,985,-0.3091767876012279,-0.3,1.0,0.0,331.0,760.0,0.0,0,759.0,1
986,986,-0.8823777590167508,-0.9,1.0,0.0,406.0,717.0,0.0,0,177.0,1
987,987,-0.46953953553162137,-0.5,1.0,0.0,381.0,564.0,0.0,0,595.0,1
988,988,-0.8632432036818044,-0.9,0.0,1.0,350.0,559.0,1.0,0,111.0,1
989,989,0.6726961394157697,0.7,1.0,1.0,257.0,544.0,1.0,1,239.0,1
990,990,-0.42505795938784724,-0.4,1.0,0.0,295.0,518.0,0.0,0,667.0,1
991,991,0.24045387720589761,0.2,1.0,1.0,336.0,625.0,1.0,1,789.0,1
992,992,-0.08255319248818704,-0.1,0.0,1.0,309.0,976.0,1.0,0,1425.0,1
993,993,-0.26750375745153454,-0.3,1.0,0.0,349.0,533.0,0.0,0,1868.0,1
994,994,0.8017574867549829,0.8,1.0,1.0,470.0,775.0,1.0,1,165.0,1
995,995,0.8471267763142228,0.8,1.0,1.0,348.0,848.0,1.0,1,164.0,1
996,996,-0.8350022455905661,-0.8,1.0,0.0,422.0,788.0,0.0,0,410.0,1
997,997,0.6388411999671947,0.6,0.0,0.0,447.0,614.0,0.0,1,249.0,1
998,998,0.8748349242004413,0.9,0.0,0.0,329.0,522.0,0.0,1,259.0,1
999,999,-0.18148507708583705,-0.2,1.0,0.0,354.0,963.0,0.0,0,2613.0,1
1000,1000,-0.8633938447642314,-0.9,1.0,0.0,328.0,878.0,0.0,0,354.0,1
1001,1001,0.19134978420443194,0.2,0.0,0.0,353.0,881.0,0.0,1,2066.0,1
1002,1002,-0.592820345825759,-0.6,1.0,0.0,438.0,917.0,0.0,0,215.0,1
1003,1003,-0.21885050288691021,-0.2,0.0,1.0,337.0,514.0,1.0,0,349.0,1
1004,1004,-0.43750071982823846,-0.4,1.0,0.0,469.0,921.0,0.0,0,400.0,1
1005,1005,-0.08919729975531254,-0.1,1.0,0.0,278.0,786.0,1.0,1,3436.0,0
1006,1006,0.24206817621594146,0.2,0.0,0.0,399.0,571.0,0.0,1,700.0,1
1007,1007,0.39228188927307783,0.4,1.0,1.0,261.0,607.0,1.0,1,252.0,1
1008,1008,0.6350822692098931,0.6,0.0,0.0,315.0,527.0,0.0,1,418.0,1
1009,1009,-0.3503378837470451,-0.4,0.0,1.0,440.0,925.0,1.0,0,305.0,1
1010,1010,0.8140049078735797,0.8,1.0,1.0,339.0,776.0,1.0,1,315.0,1
1011,1011,0.2556753861084736,0.3,1.0,1.0,434.0,769.0,1.0,1,387.0,1
1012,1012,-0.8610345368669569,-0.9,0.0,1.0,478.0,866.0,1.0,0,136.0,1
1013,1013,0.13798703569456372,0.1,0.0,0.0,274.0,828.0,0.0,1,1148.0,1
1014,1014,-0.73725324128489,-0.7,0.0,1.0,390.0,950.0,1.0,0,270.0,1
1015,1015,-0.21106026147297907,-0.2,1.0,0.0,392.0,587.0,0.0,0,1641.0,1
1016,1016,-0.3779015312061833,-0.4,1.0,0.0,412.0,544.0,0.0,0,514.0,1
1017,1017,0.2512041112703153,0.3,0.0,0.0,266.0,565.0,0.0,1,739.0,1
1018,1018,0.06265539496914996,0.1,0.0,0.0,277.0,501.0,1.0,0,4222.0,0
1019,1019,-0.4060842748566759,-0.4,1.0,0.0,306.0,688.0,0.0,0,566.0,1
1020,1020,-0.2984133323665532,-0.3,1.0,0.0,341.0,993.0,0.0,0,1106.0,1
1021,1021,0.4287792038079873,0.4,0.0,0.0,279.0,689.0,0.0,1,332.0,1
1022,1022,-0.803100856580556,-0.8,1.0,0.0,320.0,766.0,0.0,0,264.0,1
1023,1023,0.7171761105528912,0.7,0.0,0.0,432.0,628.0,0.0,1,340.0,1
1024,1024,0.1633474778467675,0.2,0.0,0.0,442.0,636.0,0.0,1,2072.0,1
1025,1025,0.24734638378557905,0.2,0.0,0.0,349.0,508.0,0.0,1,753.0,1
1026,1026,0.8931178003368611,0.9,0.0,0.0,270.0,763.0,0.0,1,177.0,1
1027,1027,-0.5444717204755936,-0.5,1.0,0.0,330.0,719.0,0.0,0,271.0,1
1028,1028,-0.8501622086478549,-0.9,0.0,1.0,264.0,858.0,1.0,0,58.0,1
1029,1029,-0.34600866203602343,-0.3,0.0,1.0,451.0,758.0,1.0,0,321.0,1
1030,1030,-0.8503154347733478,-0.9,1.0,0.0,478.0,928.0,0.0,0,184.0,1
1031,1031,0.09839378607578841,0.1,1.0,1.0,251.0,693.0,1.0,1,626.0,1
1032,1032,0.06705655268163013,0.1,0.0,0.0,442.0,525.0,1.0,0,3073.0,0
1033,1033,0.6136196962885875,0.6,0.0,0.0,322.0,958.0,0.0,1,330.0,1
1034,1034,0.048686825400801936,0.0,1.0,1.0,384.0,643.0,1.0,1,1123.0,1
1035,1035,0.4718649223877954,0.5,1.0,1.0,476.0,831.0,1.0,1,273.0,1
1036,1036,-0.17253633553345082,-0.2,1.0,0.0,367.0,614.0,1.0,1,1409.0,0
1037,1037,-0.4720488506956269,-0.5,0.0,1.0,465.0,757.0,1.0,0,158.0,1
1038,1038,-0.7204204120548239,-0.7,0.0,1.0,375.0,594.0,1.0,0,351.0,1
1039,1039,0.3196993654839765,0.3,1.0,1.0,441.0,987.0,1.0,1,442.0,1
1040,1040,-0.4768539989282034,-0.5,1.0,0.0,304.0,634.0,0.0,0,582.0,1
1041,1041,0.6177413871272613,0.6,0.0,0.0,255.0,548.0,0.0,1,567.0,1
1042,1042,0.06564690773047122,0.1,1.0,1.0,344.0,807.0,1.0,1,999.0,1
1043,1043,0.730125644633656,0.7,0.0,0.0,303.0,764.0,0.0,1,223.0,1
1044,1044,0.09724818673826363,0.1,1.0,1.0,420.0,565.0,1.0,1,2015.0,1
1045,1045,0.8218971028335161,0.8,1.0,1.0,432.0,809.0,1.0,1,149.0,1
1046,1046,0.7015739633361474,0.7,1.0,1.0,265.0,802.0,1.0,1,203.0,1
1047,1047,0.7320378989498856,0.7,1.0,1.0,271.0,922.0,1.0,1,167.0,1
1048,1048,-0.6959841974925913,-0.7,0.0,1.0,279.0,943.0,1.0,0,108.0,1
1049,1049,0.29221731387720895,0.3,0.0,0.0,306.0,735.0,0.0,1,109.0,1
1050,1050,-0.8402583455453686,-0.8,1.0,0.0,368.0,729.0,0.0,0,213.0,1
1051,1051,0.3400714869012199,0.3,0.0,0.0,282.0,537.0,0.0,1,471.0,1
1052,1052,0.8604463241833572,0.9,1.0,1.0,488.0,866.0,1.0,1,156.0,1
1053,1053,0.3000332626121599,0.3,0.0,0.0,266.0,960.0,0.0,1,334.0,1
1054,1054,-0.1617095699386707,-0.2,0.0,1.0,388.0,903.0,1.0,0,339.0,1
1055,1055,0.3817093792143552,0.4,1.0,1.0,263.0,812.0,1.0,1,195.0,1
1056,1056,0.559837506756475,0.6,0.0,0.0,444.0,945.0,0.0,1,381.0,1
1057,1057,-0.34729505386643633,-0.3,1.0,0.0,260.0,503.0,0.0,0,407.0,1
1058,1058,0.05689287625016182,0.1,1.0,1.0,388.0,737.0,1.0,1,935.0,1
1059,1059,-0.4443976312442953,-0.4,0.0,1.0,323.0,999.0,1.0,0,228.0,1
1060,1060,0.1475518405117745,0.1,0.0,0.0,478.0,730.0,1.0,0,3792.0,0
1061,1061,-0.48351142460590196,-0.5,0.0,1.0,445.0,577.0,1.0,0,338.0,1
1062,1062,0.1515956254280414,0.2,0.0,0.0,350.0,757.0,1.0,0,373.0,0
1063,1063,-0.5981207187987498,-0.6,0.0,1.0,258.0,614.0,1.0,0,358.0,1
1064,1064,-0.5579731909061583,-0.6,0.0,1.0,352.0,509.0,1.0,0,509.0,1
1065,1065,-0.6946627815901182,-0.7,1.0,0.0,271.0,779.0,0.0,0,230.0,1
1066,1066,-0.6341735006020264,-0.6,0.0,1.0,265.0,973.0,1.0,0,282.0,1
1067,1067,-0.5273829415813674,-0.5,0.0,1.0,485.0,882.0,1.0,0,193.0,1
1068,1068,-0.8272630488652262,-0.8,0.0,1.0,335.0,903.0,1.0,0,202.0,1
1069,1069,0.11298736769949669,0.1,0.0,0.0,457.0,863.0,0.0,1,850.0,1
1070,1070,-0.3359764038718881,-0.3,1.0,0.0,381.0,990.0,0.0,0,429.0,1
1071,1071,0.7975061303824885,0.8,0.0,0.0,499.0,836.0,0.0,1,245.0,1
1072,1072,0.5438280982233893,0.5,1.0,1.0,347.0,963.0,1.0,1,190.0,1
1073,1073,0.7188200909540979,0.7,1.0,1.0,381.0,552.0,1.0,1,297.0,1
1074,1074,-0.07574409697094509,-0.1,0.0,1.0,324.0,923.0,1.0,0,1153.0,1
1075,1075,0.08525406534209634,0.1,1.0,1.0,343.0,558.0,1.0,1,1019.0,1
1076,1076,-0.2263626794386926,-0.2,1.0,0.0,362.0,714.0,0.0,0,164.0,1
1077,1077,0.3783482375177599,0.4,1.0,1.0,371.0,917.0,1.0,1,212.0,1
1078,1078,0.7094779423996384,0.7,0.0,0.0,254.0,804.0,0.0,1,192.0,1
1079,1079,-0.09426933304492491,-0.1,0.0,1.0,264.0,968.0,1.0,0,1158.0,1
1080,1080,0.4012461086997229,0.4,1.0,1.0,479.0,600.0,1.0,1,381.0,1
1081,1081,-0.41591780868816136,-0.4,1.0,0.0,364.0,954.0,0.0,0,792.0,1
1082,1082,0.8983202115419634,0.9,1.0,1.0,432.0,795.0,1.0,1,233.0,1
1083,1083,0.3778031211373333,0.4,1.0,1.0,292.0,721.0,1.0,1,137.0,1
1084,1084,-0.6222954349802612,-0.6,0.0,1.0,397.0,592.0,1.0,0,291.0,1
1085,1085,0.6932959185267554,0.7,0.0,0.0,469.0,698.0,0.0,1,373.0,1
1086,1086,0.01885350587002832,0.0,0.0,0.0,316.0,915.0,1.0,0,2989.0,0
1087,1087,0.028266161589485694,0.0,0.0,0.0,358.0,745.0,1.0,0,787.0,0
1088,1088,0.2777922701993899,0.3,1.0,1.0,277.0,819.0,1.0,1,214.0,1
1089,1089,-0.6057525564180161,-0.6,0.0,1.0,474.0,827.0,1.0,0,79.0,1
1090,1090,0.4231404525281871,0.4,1.0,1.0,331.0,840.0,1.0,1,259.0,1
1091,1091,-0.25399843553024937,-0.3,0.0,1.0,496.0,505.0,1.0,0,1029.0,1
1092,1092,-0.8128031390671048,-0.8,0.0,1.0,458.0,846.0,1.0,0,146.0,1
1093,1093,0.2313195386301331,0.2,0.0,0.0,338.0,550.0,0.0,1,852.0,1
1094,1094,-0.88558951379227,-0.9,0.0,1.0,289.0,508.0,1.0,0,283.0,1
1095,1095,-0.509297598470835,-0.5,1.0,0.0,468.0,812.0,0.0,0,380.0,1
1096,1096,0.27367500901479824,0.3,0.0,0.0,496.0,809.0,0.0,1,535.0,1
1097,1097,0.5022815145325658,0.5,0.0,0.0,489.0,935.0,0.0,1,296.0,1
1098,1098,-0.8420235719554808,-0.8,1.0,0.0,415.0,847.0,0.0,0,278.0,1
1099,1099,-0.5955645002553593,-0.6,0.0,1.0,372.0,511.0,1.0,0,387.0,1
1100,1100,0.21369997543711594,0.2,1.0,1.0,311.0,895.0,1.0,1,424.0,1
1101,1101,-0.7269280331770748,-0.7,0.0,1.0,320.0,903.0,1.0,0,187.0,1
1102,1102,-0.31575445948693814,-0.3,1.0,0.0,275.0,845.0,1.0,1,10.0,0
1103,1103,-0.2901063760686309,-0.3,0.0,1.0,342.0,947.0,1.0,0,201.0,1
1104,1104,0.117670874718799,0.1,0.0,0.0,297.0,592.0,0.0,1,211.0,1
1105,1105,0.053573723467426615,0.1,0.0,0.0,313.0,531.0,0.0,1,956.0,1
1106,1106,-0.28879295518487247,-0.3,0.0,1.0,312.0,857.0,1.0,0,361.0,1
1107,1107,-0.22636806352107275,-0.2,0.0,1.0,389.0,802.0,1.0,0,489.0,1
1108,1108,0.25665805935242025,0.3,1.0,1.0,280.0,769.0,1.0,1,161.0,1
1109,1109,-0.00854450810373475,-0.0,1.0,0.0,323.0,912.0,1.0,1,1855.0,0
1110,1110,0.5911335227273745,0.6,1.0,1.0,495.0,506.0,1.0,1,649.0,1
1111,1111,-0.3261357546599608,-0.3,0.0,1.0,354.0,502.0,1.0,0,474.0,1
1112,1112,-0.07067043143303564,-0.1,0.0,1.0,381.0,570.0,1.0,0,749.0,1
1113,1113,-0.5807541007519883,-0.6,0.0,1.0,319.0,728.0,1.0,0,293.0,1
1114,1114,0.1988021795914291,0.2,0.0,0.0,367.0,550.0,0.0,1,473.0,1
1115,1115,-0.6313774426267533,-0.6,1.0,0.0,265.0,999.0,0.0,0,166.0,1
1116,1116,0.7584178197016159,0.8,0.0,0.0,412.0,889.0,0.0,1,189.0,1
1117,1117,-0.5027696756494204,-0.5,0.0,1.0,331.0,938.0,1.0,0,71.0,1
1118,1118,0.015613470965000986,0.0,0.0,0.0,333.0,875.0,1.0,0,1312.0,0
1119,1119,-0.7546304064464298,-0.8,1.0,0.0,318.0,961.0,0.0,0,171.0,1
1120,1120,-0.4314644581783827,-0.4,0.0,1.0,383.0,782.0,1.0,0,235.0,1
1121,1121,-0.6204312515292469,-0.6,1.0,0.0,470.0,667.0,0.0,0,533.0,1
1122,1122,-0.008251664138588022,-0.0,0.0,1.0,401.0,793.0,1.0,0,3806.0,1
1123,1123,-0.6629397917980828,-0.7,0.0,1.0,275.0,972.0,1.0,0,203.0,1
1124,1124,-0.6011093259368179,-0.6,1.0,0.0,327.0,672.0,0.0,0,351.0,1
1125,1125,-0.13426126606508426,-0.1,1.0,0.0,420.0,819.0,1.0,1,3761.0,0
1126,1126,0.46367781171985245,0.5,1.0,1.0,305.0,936.0,1.0,1,179.0,1
1127,1127,0.6247553094127866,0.6,1.0,1.0,385.0,981.0,1.0,1,194.0,1
1128,1128,0.8153574603055126,0.8,1.0,1.0,293.0,557.0,1.0,1,340.0,1
1129,1129,-0.3884044013855751,-0.4,0.0,1.0,354.0,653.0,1.0,0,413.0,1
1130,1130,-0.7259365412245645,-0.7,1.0,0.0,411.0,703.0,0.0,0,186.0,1
1131,1131,-0.11480073849155037,-0.1,1.0,0.0,435.0,706.0,1.0,1,1999.0,0
1132,1132,0.3667416869781309,0.4,1.0,1.0,279.0,711.0,1.0,1,460.0,1
1133,1133,0.7859652627657684,0.8,1.0,1.0,280.0,868.0,1.0,1,172.0,1
1134,1134,-0.5114179398850565,-0.5,1.0,0.0,389.0,760.0,0.0,0,211.0,1
1135,1135,-0.7791244017023513,-0.8,0.0,1.0,421.0,707.0,1.0,0,242.0,1
1136,1136,0.8453386072360057,0.8,0.0,0.0,363.0,557.0,0.0,1,370.0,1
1137,1137,0.05388043027630984,0.1,0.0,0.0,340.0,815.0,1.0,0,605.0,0
1138,1138,-0.7194081538514943,-0.7,0.0,1.0,453.0,639.0,1.0,0,208.0,1
1139,1139,-0.840293210965012,-0.8,1.0,0.0,255.0,954.0,0.0,0,351.0,1
1140,1140,-0.5818192537198656,-0.6,1.0,0.0,492.0,729.0,0.0,0,329.0,1
1141,1141,-0.8685992740997887,-0.9,1.0,0.0,392.0,924.0,0.0,0,264.0,1
1142,1142,-0.44458211149993015,-0.4,1.0,0.0,371.0,931.0,1.0,1,18.0,0
1143,1143,0.7056541672908784,0.7,0.0,0.0,448.0,677.0,0.0,1,345.0,1
1144,1144,-0.20537548796471172,-0.2,1.0,0.0,411.0,622.0,0.0,0,817.0,1
1145,1145,-0.6355661073459973,-0.6,0.0,1.0,498.0,823.0,1.0,0,169.0,1
1146,1146,0.8430067118144408,0.8,0.0,0.0,484.0,728.0,0.0,1,228.0,1
1147,1147,0.13684741743267093,0.1,1.0,1.0,375.0,527.0,1.0,1,1168.0,1
1148,1148,0.369393539990288,0.4,0.0,0.0,346.0,938.0,0.0,1,356.0,1
1149,1149,0.8580119126953457,0.9,1.0,1.0,333.0,563.0,1.0,1,314.0,1
1150,1150,0.6534041316214635,0.7,0.0,0.0,268.0,511.0,0.0,1,291.0,1
1151,1151,0.8081604866135191,0.8,1.0,1.0,466.0,635.0,1.0,1,249.0,1
1152,1152,-0.36448746733173487,-0.4,1.0,0.0,376.0,777.0,0.0,0,307.0,1
1153,1153,0.07231459791973949,0.1,0.0,0.0,366.0,613.0,1.0,0,4021.0,0
1154,1154,-0.2489444909257652,-0.2,1.0,0.0,301.0,878.0,0.0,0,381.0,1
1155,1155,0.5343754493682683,0.5,0.0,0.0,264.0,626.0,0.0,1,280.0,1
1156,1156,0.8419090880244847,0.8,1.0,1.0,344.0,978.0,1.0,1,198.0,1
1157,1157,0.5650261739083219,0.6,0.0,0.0,370.0,839.0,0.0,1,351.0,1
1158,1158,-0.35139193337732066,-0.4,1.0,0.0,257.0,760.0,0.0,0,763.0,1
1159,1159,0.5610240180647174,0.6,0.0,0.0,277.0,800.0,0.0,1,333.0,1
1160,1160,-0.8654797733197657,-0.9,1.0,0.0,451.0,622.0,0.0,0,277.0,1
1161,1161,0.7775970394167654,0.8,1.0,1.0,269.0,955.0,1.0,1,116.0,1
1162,1162,-0.298473923580314,-0.3,1.0,0.0,460.0,670.0,0.0,0,2850.0,1
1163,1163,0.17578121009837278,0.2,1.0,1.0,326.0,596.0,1.0,1,628.0,1
1164,1164,0.3855636963970278,0.4,0.0,0.0,406.0,797.0,0.0,1,527.0,1
1165,1165,-0.3768707078197947,-0.4,1.0,0.0,498.0,548.0,0.0,0,704.0,1
1166,1166,-0.4262244376693813,-0.4,0.0,1.0,361.0,691.0,1.0,0,278.0,1
1167,1167,-0.463875234298471,-0.5,1.0,0.0,487.0,935.0,0.0,0,318.0,1
1168,1168,0.031375306149733495,0.0,0.0,0.0,370.0,963.0,1.0,0,97.0,0
1169,1169,0.3043158053781011,0.3,0.0,0.0,275.0,512.0,0.0,1,483.0,1
1170,1170,0.21398679990841274,0.2,0.0,0.0,254.0,891.0,0.0,1,335.0,1
1171,1171,0.8680628525248889,0.9,0.0,0.0,444.0,571.0,0.0,1,215.0,1
1172,1172,-0.12948811723678644,-0.1,0.0,1.0,358.0,605.0,1.0,0,617.0,1
1173,1173,-0.2115024234717634,-0.2,0.0,1.0,336.0,650.0,1.0,0,284.0,1
1174,1174,-0.8368316917640057,-0.8,0.0,1.0,296.0,763.0,1.0,0,191.0,1
1175,1175,0.8968511253972525,0.9,0.0,0.0,283.0,958.0,0.0,1,199.0,1
1176,1176,-0.7182558896737323,-0.7,1.0,0.0,486.0,505.0,0.0,0,449.0,1
1177,1177,0.1730221938452282,0.2,0.0,0.0,335.0,814.0,0.0,1,2421.0,1
1178,1178,-0.08858968405660661,-0.1,0.0,1.0,254.0,723.0,1.0,0,593.0,1
1179,1179,-0.4307603016459988,-0.4,0.0,1.0,351.0,537.0,1.0,0,632.0,1
1180,1180,-0.3824995832036452,-0.4,0.0,1.0,418.0,971.0,1.0,0,151.0,1
1181,1181,-0.5090978532366972,-0.5,1.0,0.0,301.0,517.0,0.0,0,722.0,1
1182,1182,0.6686710507132866,0.7,1.0,1.0,410.0,536.0,1.0,1,334.0,1
1183,1183,0.5641876012710184,0.6,0.0,0.0,304.0,610.0,0.0,1,356.0,1
1184,1184,-0.06064115514609558,-0.1,0.0,1.0,260.0,608.0,1.0,0,982.0,1
1185,1185,-0.7724523801405352,-0.8,0.0,1.0,488.0,974.0,1.0,0,138.0,1
1186,1186,0.5193631756417588,0.5,1.0,1.0,362.0,721.0,1.0,1,447.0,1
1187,1187,0.5210869833265651,0.5,1.0,1.0,262.0,656.0,1.0,1,222.0,1
1188,1188,0.8109594757251958,0.8,1.0,1.0,289.0,580.0,1.0,1,231.0,1
1189,1189,0.07666771104679049,0.1,0.0,0.0,427.0,856.0,0.0,1,3717.0,1
1190,1190,-0.8128137870131129,-0.8,1.0,0.0,469.0,598.0,0.0,0,693.0,1
1191,1191,-0.2157462360557778,-0.2,1.0,0.0,335.0,980.0,1.0,1,985.0,0
1192,1192,0.2561444656926345,0.3,1.0,1.0,347.0,740.0,1.0,1,483.0,1
1193,1193,0.8109657808742375,0.8,0.0,0.0,260.0,681.0,0.0,1,169.0,1
1194,1194,0.754840908809225,0.8,1.0,1.0,384.0,566.0,1.0,1,190.0,1
1195,1195,-0.14422949183679634,-0.1,1.0,0.0,417.0,647.0,0.0,0,3936.0,1
1196,1196,0.8656921515003174,0.9,1.0,1.0,456.0,866.0,1.0,1,108.0,1
1197,1197,-0.6758402430801799,-0.7,1.0,0.0,271.0,729.0,0.0,0,90.0,1
1198,1198,0.13073411926966483,0.1,0.0,0.0,390.0,564.0,0.0,1,1676.0,1
1199,1199,0.7856462661294642,0.8,1.0,1.0,426.0,927.0,1.0,1,207.0,1
1200,1200,-0.5966208333265499,-0.6,0.0,1.0,476.0,954.0,1.0,0,90.0,1
1201,1201,-0.3875457317895079,-0.4,0.0,1.0,295.0,791.0,1.0,0,134.0,1
1202,1202,-0.629743164782183,-0.6,1.0,0.0,463.0,750.0,0.0,0,487.0,1
1203,1203,0.57659396061081,0.6,1.0,1.0,331.0,873.0,1.0,1,276.0,1
1204,1204,-0.3128921117536334,-0.3,1.0,0.0,494.0,768.0,0.0,0,488.0,1
1205,1205,-0.35219001182783427,-0.4,0.0,1.0,348.0,734.0,1.0,0,168.0,1
1206,1206,0.10146580259501314,0.1,0.0,0.0,330.0,785.0,1.0,0,3885.0,0
1207,1207,-0.1712479997368297,-0.2,0.0,1.0,401.0,818.0,1.0,0,201.0,1
1208,1208,-0.3338532813305849,-0.3,1.0,0.0,448.0,733.0,0.0,0,539.0,1
1209,1209,-0.21720153129235298,-0.2,0.0,1.0,407.0,935.0,1.0,0,178.0,1
1210,1210,0.5798013580663698,0.6,1.0,1.0,404.0,771.0,1.0,1,135.0,1
1211,1211,-0.5750884845242119,-0.6,0.0,1.0,490.0,899.0,1.0,0,161.0,1
1212,1212,0.5765758954548427,0.6,0.0,0.0,306.0,605.0,0.0,1,769.0,1
1213,1213,0.35183729493809535,0.4,0.0,0.0,254.0,949.0,0.0,1,827.0,1
1214,1214,0.7546198627653046,0.8,0.0,0.0,334.0,905.0,0.0,1,141.0,1
1215,1215,0.7571292393627559,0.8,1.0,1.0,463.0,949.0,1.0,1,98.0,1
1216,1216,0.5211883995088985,0.5,1.0,1.0,485.0,864.0,1.0,1,281.0,1
1217,1217,-0.6087805564236975,-0.6,0.0,1.0,255.0,785.0,1.0,0,240.0,1
1218,1218,-0.1280978114056227,-0.1,1.0,0.0,283.0,522.0,1.0,1,4195.0,0
1219,1219,-0.16491529977658081,-0.2,0.0,1.0,494.0,681.0,1.0,0,525.0,1
1220,1220,-0.757545998812416,-0.8,0.0,1.0,318.0,673.0,1.0,0,199.0,1
1221,1221,0.14030647171512622,0.1,0.0,0.0,253.0,573.0,0.0,1,2154.0,1
1222,1222,0.6717909394251435,0.7,1.0,1.0,366.0,879.0,1.0,1,65.0,1
1223,1223,0.26084208187193336,0.3,1.0,1.0,444.0,941.0,1.0,1,175.0,1
1224,1224,-0.028652145511333993,-0.0,0.0,1.0,478.0,926.0,1.0,0,596.0,1
1225,1225,0.8410645965705786,0.8,0.0,0.0,442.0,944.0,0.0,1,254.0,1
1226,1226,-0.512006558476136,-0.5,0.0,1.0,404.0,580.0,1.0,0,386.0,1
1227,1227,-0.35111529693024324,-0.4,1.0,0.0,414.0,787.0,0.0,0,659.0,1
1228,1228,-0.5077193971542062,-0.5,0.0,1.0,440.0,848.0,1.0,0,222.0,1
1229,1229,-0.35170668917168146,-0.4,0.0,1.0,455.0,736.0,1.0,0,349.0,1
1230,1230,-0.8588504737626675,-0.9,1.0,0.0,296.0,517.0,0.0,0,547.0,1
1231,1231,-0.60547258886625,-0.6,1.0,0.0,315.0,870.0,0.0,0,645.0,1
1232,1232,-0.37133691804609703,-0.4,1.0,0.0,300.0,630.0,0.0,0,710.0,1
1233,1233,-0.5808186523393922,-0.6,0.0,1.0,487.0,510.0,1.0,0,293.0,1
1234,1234,-0.8944528752941608,-0.9,0.0,1.0,480.0,927.0,1.0,0,213.0,1
1235,1235,-0.6693826842941665,-0.7,0.0,1.0,300.0,580.0,1.0,0,230.0,1
1236,1236,-0.37643627381354816,-0.4,0.0,1.0,253.0,853.0,1.0,0,364.0,1
1237,1237,0.21452360916201763,0.2,1.0,1.0,495.0,766.0,1.0,1,909.0,1
1238,1238,0.6175852481116505,0.6,1.0,1.0,453.0,957.0,1.0,1,190.0,1
1239,1239,0.6773641214687637,0.7,0.0,0.0,425.0,808.0,0.0,1,207.0,1
1240,1240,0.37781700944556695,0.4,1.0,1.0,402.0,867.0,1.0,1,261.0,1
1241,1241,-0.8660977100368029,-0.9,0.0,1.0,392.0,718.0,1.0,0,100.0,1
1242,1242,-0.4743640667264307,-0.5,0.0,1.0,282.0,657.0,1.0,0,341.0,1
1243,1243,-0.5345751579785758,-0.5,1.0,0.0,260.0,821.0,0.0,0,889.0,1
1244,1244,0.6332349799608211,0.6,0.0,0.0,384.0,776.0,0.0,1,300.0,1
1245,1245,0.3858280702783271,0.4,1.0,1.0,402.0,750.0,1.0,1,278.0,1
1246,1246,-0.8599900678573664,-0.9,1.0,0.0,423.0,622.0,0.0,0,325.0,1
1247,1247,-0.8937137220433568,-0.9,0.0,1.0,497.0,613.0,1.0,0,250.0,1
1248,1248,0.49924501140968236,0.5,0.0,0.0,460.0,724.0,0.0,1,296.0,1
1249,1249,0.16043331032339492,0.2,0.0,0.0,376.0,749.0,0.0,1,985.0,1
1250,1250,0.1550259235071606,0.2,0.0,0.0,407.0,751.0,1.0,0,982.0,0
1251,1251,0.5084291950055805,0.5,1.0,1.0,351.0,817.0,1.0,1,162.0,1
1252,1252,0.46175319556470085,0.5,0.0,0.0,489.0,953.0,0.0,1,568.0,1
1253,1253,0.06481172291887904,0.1,0.0,0.0,494.0,871.0,1.0,0,3635.0,0
1254,1254,0.12291229476094323,0.1,0.0,0.0,373.0,871.0,0.0,1,3106.0,1
1255,1255,-0.10980298940867328,-0.1,0.0,1.0,380.0,523.0,1.0,0,1577.0,1
1256,1256,-0.4178009513349897,-0.4,1.0,0.0,268.0,573.0,0.0,0,349.0,1
1257,1257,-0.6853430259158451,-0.7,0.0,1.0,314.0,805.0,1.0,0,151.0,1
1258,1258,0.2773624397282274,0.3,0.0,0.0,303.0,840.0,0.0,1,1147.0,1
1259,1259,0.02684312127514532,0.0,0.0,0.0,411.0,638.0,1.0,0,1221.0,0
1260,1260,-0.10808912126884862,-0.1,0.0,1.0,328.0,873.0,1.0,0,279.0,1
1261,1261,-0.23476365822242318,-0.2,1.0,0.0,451.0,785.0,0.0,0,1694.0,1
1262,1262,-0.5491624331343832,-0.5,0.0,1.0,437.0,820.0,1.0,0,203.0,1
1263,1263,-0.07316481191401614,-0.1,0.0,1.0,255.0,527.0,1.0,0,1378.0,1
1264,1264,-0.40617977711823405,-0.4,1.0,0.0,262.0,763.0,0.0,0,785.0,1
1265,1265,0.14446116097592354,0.1,1.0,1.0,277.0,889.0,1.0,1,204.0,1
1266,1266,0.22823772225749017,0.2,1.0,1.0,472.0,557.0,1.0,1,561.0,1
1267,1267,-0.8931699489227228,-0.9,1.0,0.0,297.0,821.0,0.0,0,302.0,1
1268,1268,0.03260577178709778,0.0,0.0,0.0,288.0,872.0,1.0,0,2780.0,0
1269,1269,-0.7726597007379892,-0.8,1.0,0.0,476.0,750.0,0.0,0,294.0,1
1270,1270,0.05461383249646401,0.1,1.0,1.0,455.0,508.0,1.0,1,827.0,1
1271,1271,0.8852021691138833,0.9,1.0,1.0,429.0,574.0,1.0,1,257.0,1
1272,1272,0.7739282396785491,0.8,0.0,0.0,267.0,991.0,0.0,1,152.0,1
1273,1273,-0.027479083095471313,-0.0,1.0,0.0,437.0,933.0,1.0,1,600.0,0
1274,1274,0.3191330990304676,0.3,0.0,0.0,439.0,551.0,0.0,1,780.0,1
1275,1275,-0.14507599526599024,-0.1,1.0,0.0,423.0,992.0,1.0,1,255.0,0
1276,1276,-0.38565292545089924,-0.4,1.0,0.0,302.0,578.0,0.0,0,820.0,1
1277,1277,0.13926876917186204,0.1,1.0,1.0,350.0,651.0,1.0,1,449.0,1
1278,1278,-0.30619781762990395,-0.3,1.0,0.0,322.0,907.0,0.0,0,1711.0,1
1279,1279,-0.3651315870378845,-0.4,1.0,0.0,450.0,705.0,0.0,0,575.0,1
1280,1280,-0.044450799361853144,-0.0,0.0,1.0,465.0,802.0,1.0,0,533.0,1
1281,1281,-0.051668098195419176,-0.1,1.0,0.0,290.0,999.0,1.0,1,401.0,0
1282,1282,-0.3948511165748789,-0.4,0.0,1.0,305.0,742.0,1.0,0,463.0,1
1283,1283,-0.7559282107572609,-0.8,0.0,1.0,358.0,814.0,1.0,0,168.0,1
1284,1284,0.63635635041135,0.6,1.0,1.0,290.0,858.0,1.0,1,282.0,1
1285,1285,-0.5683372169623755,-0.6,0.0,1.0,337.0,742.0,1.0,0,221.0,1
1286,1286,0.007463227028447594,0.0,0.0,0.0,491.0,992.0,1.0,0,1317.0,0
1287,1287,-0.414797103970822,-0.4,0.0,1.0,333.0,537.0,1.0,0,370.0,1
1288,1288,0.4320548600140909,0.4,1.0,1.0,411.0,905.0,1.0,1,194.0,1
1289,1289,0.8233486601209284,0.8,1.0,1.0,408.0,851.0,1.0,1,131.0,1
1290,1290,-0.7650858227398127,-0.8,1.0,0.0,411.0,976.0,1.0,1,-77.0,0
1291,1291,0.3086802835360932,0.3,0.0,0.0,423.0,645.0,0.0,1,342.0,1
1292,1292,-0.3213626610322875,-0.3,0.0,1.0,301.0,865.0,1.0,0,234.0,1
1293,1293,-0.4321647731233726,-0.4,1.0,0.0,274.0,969.0,0.0,0,477.0,1
1294,1294,-0.7202908401452929,-0.7,1.0,0.0,251.0,686.0,0.0,0,243.0,1
1295,1295,-0.4029884998288239,-0.4,0.0,1.0,449.0,751.0,1.0,0,380.0,1
1296,1296,0.4890672303919482,0.5,0.0,0.0,321.0,987.0,0.0,1,152.0,1
1297,1297,-0.6963076911505469,-0.7,1.0,0.0,484.0,887.0,0.0,0,239.0,1
1298,1298,-0.3156548802422491,-0.3,1.0,0.0,327.0,804.0,0.0,0,2269.0,1
1299,1299,-0.6941437119644034,-0.7,1.0,0.0,321.0,650.0,0.0,0,499.0,1
1300,1300,0.8008427340239063,0.8,1.0,1.0,357.0,970.0,1.0,1,233.0,1
1301,1301,0.35093206816097344,0.4,0.0,0.0,283.0,630.0,0.0,1,407.0,1
1302,1302,-0.7072397956654531,-0.7,0.0,1.0,462.0,574.0,1.0,0,204.0,1
1303,1303,0.1731776215183235,0.2,1.0,1.0,475.0,553.0,1.0,1,472.0,1
1304,1304,-0.5225401435731027,-0.5,1.0,0.0,475.0,698.0,0.0,0,307.0,1
1305,1305,-0.8723378354946477,-0.9,1.0,0.0,375.0,901.0,0.0,0,164.0,1
1306,1306,-0.25316948844694354,-0.3,0.0,1.0,380.0,874.0,1.0,0,256.0,1
1307,1307,0.15669060649381217,0.2,1.0,1.0,406.0,900.0,1.0,1,574.0,1
1308,1308,-0.8073841549455212,-0.8,0.0,1.0,459.0,877.0,1.0,0,184.0,1
1309,1309,-0.802523320111061,-0.8,0.0,1.0,311.0,701.0,1.0,0,268.0,1
1310,1310,0.39584715672208703,0.4,0.0,0.0,423.0,664.0,0.0,1,633.0,1
1311,1311,-0.004379925575866639,-0.0,1.0,0.0,466.0,592.0,1.0,1,2942.0,0
1312,1312,-0.6060720570446756,-0.6,1.0,0.0,374.0,756.0,0.0,0,380.0,1
1313,1313,-0.43197556221203237,-0.4,1.0,0.0,392.0,989.0,0.0,0,609.0,1
1314,1314,0.48401002127428383,0.5,1.0,1.0,462.0,636.0,1.0,1,232.0,1
1315,1315,0.8188937834185911,0.8,0.0,0.0,448.0,603.0,0.0,1,329.0,1
1316,1316,-0.6485285793972893,-0.6,1.0,0.0,325.0,644.0,0.0,0,351.0,1
1317,1317,-0.09311925592582382,-0.1,0.0,1.0,483.0,796.0,1.0,0,1211.0,1
1318,1318,0.7929406999347192,0.8,1.0,1.0,453.0,856.0,1.0,1,181.0,1
1319,1319,-0.8778886630800221,-0.9,0.0,1.0,496.0,579.0,1.0,0,315.0,1
1320,1320,0.7991440572911795,0.8,1.0,1.0,408.0,697.0,1.0,1,275.0,1
1321,1321,-0.22092973432710006,-0.2,0.0,1.0,498.0,732.0,1.0,0,270.0,1
1322,1322,0.48016820209184974,0.5,1.0,1.0,354.0,728.0,1.0,1,258.0,1
1323,1323,0.12451258783975427,0.1,0.0,0.0,272.0,784.0,0.0,1,364.0,1
1324,1324,0.8492687474511461,0.8,1.0,1.0,308.0,758.0,1.0,1,224.0,1
1325,1325,-0.15334114639843,-0.2,1.0,0.0,316.0,563.0,0.0,0,4121.0,1
1326,1326,0.20482203920296216,0.2,0.0,0.0,475.0,643.0,0.0,1,3642.0,1
1327,1327,0.8407788593686331,0.8,1.0,1.0,295.0,925.0,1.0,1,110.0,1
1328,1328,-0.8781803621009018,-0.9,0.0,1.0,302.0,858.0,1.0,0,150.0,1
1329,1329,0.4975035393678374,0.5,0.0,0.0,299.0,823.0,0.0,1,208.0,1
1330,1330,-0.14584027519398923,-0.1,0.0,1.0,444.0,973.0,1.0,0,313.0,1
1331,1331,-0.6672225912265414,-0.7,0.0,1.0,444.0,778.0,1.0,0,268.0,1
1332,1332,-0.6365614782131225,-0.6,1.0,0.0,412.0,733.0,0.0,0,505.0,1
1333,1333,0.10948547645346973,0.1,0.0,0.0,373.0,506.0,0.0,1,891.0,1
1334,1334,0.32404870086692716,0.3,0.0,0.0,356.0,616.0,0.0,1,618.0,1
1335,1335,-0.8295235878051059,-0.8,1.0,0.0,413.0,871.0,0.0,0,496.0,1
1336,1336,0.5341934554495887,0.5,0.0,0.0,274.0,930.0,0.0,1,176.0,1
1337,1337,0.18544046479060594,0.2,0.0,0.0,311.0,917.0,0.0,1,1072.0,1
1338,1338,0.10542892492613165,0.1,1.0,1.0,430.0,692.0,1.0,1,578.0,1
1339,1339,0.700119945079558,0.7,1.0,1.0,272.0,730.0,1.0,1,168.0,1
1340,1340,-0.159258024333514,-0.2,1.0,0.0,303.0,882.0,0.0,0,2025.0,1
1341,1341,-0.46962578439009617,-0.5,0.0,1.0,351.0,697.0,1.0,0,322.0,1
1342,1342,-0.8541404414726013,-0.9,0.0,1.0,286.0,988.0,1.0,0,196.0,1
1343,1343,-0.6991970523862348,-0.7,0.0,1.0,391.0,869.0,1.0,0,140.0,1
1344,1344,-0.7482120891408707,-0.7,0.0,1.0,263.0,673.0,1.0,0,244.0,1
1345,1345,0.6734997510536419,0.7,0.0,0.0,388.0,880.0,0.0,1,242.0,1
1346,1346,0.4563550113413136,0.5,0.0,0.0,329.0,821.0,0.0,1,520.0,1
1347,1347,0.1600179909540168,0.2,1.0,1.0,286.0,688.0,1.0,1,226.0,1
1348,1348,0.3742489997213959,0.4,0.0,0.0,350.0,905.0,0.0,1,995.0,1
1349,1349,0.35214459322060765,0.4,0.0,0.0,411.0,582.0,0.0,1,387.0,1
1350,1350,0.7408235800610664,0.7,0.0,0.0,434.0,724.0,0.0,1,322.0,1
1351,1351,-0.5363736468228522,-0.5,0.0,1.0,317.0,666.0,1.0,0,447.0,1
1352,1352,0.2732795050953559,0.3,1.0,1.0,451.0,946.0,1.0,1,413.0,1
1353,1353,0.31858761686218784,0.3,0.0,0.0,491.0,908.0,0.0,1,151.0,1
1354,1354,-0.5020478106578559,-0.5,0.0,1.0,371.0,668.0,1.0,0,351.0,1
1355,1355,0.497624859603233,0.5,1.0,1.0,316.0,616.0,1.0,1,348.0,1
1356,1356,-0.5460639420653053,-0.5,0.0,1.0,328.0,540.0,1.0,0,342.0,1
1357,1357,-0.4780568568090912,-0.5,0.0,1.0,354.0,685.0,1.0,0,221.0,1
1358,1358,-0.16035650567319026,-0.2,1.0,0.0,404.0,554.0,0.0,0,4042.0,1
1359,1359,-0.3636613260722591,-0.4,1.0,0.0,490.0,857.0,0.0,0,523.0,1
1360,1360,-0.09124534345701651,-0.1,0.0,1.0,289.0,835.0,1.0,0,226.0,1
1361,1361,0.5771183940309567,0.6,0.0,0.0,438.0,692.0,0.0,1,220.0,1
1362,1362,-0.5315235253419317,-0.5,1.0,0.0,367.0,928.0,0.0,0,545.0,1
1363,1363,-0.6700389134591213,-0.7,0.0,1.0,428.0,860.0,1.0,0,162.0,1
1364,1364,0.7317937777444458,0.7,1.0,1.0,306.0,864.0,1.0,1,110.0,1
1365,1365,0.603560791304287,0.6,1.0,1.0,468.0,944.0,1.0,1,78.0,1
1366,1366,-0.40886700919066715,-0.4,0.0,1.0,496.0,846.0,1.0,0,218.0,1
1367,1367,-0.7987831065666318,-0.8,1.0,0.0,276.0,504.0,0.0,0,320.0,1
1368,1368,0.14761872736218906,0.1,1.0,1.0,303.0,937.0,1.0,1,390.0,1
1369,1369,0.16435768073208956,0.2,0.0,0.0,282.0,705.0,0.0,1,3693.0,1
1370,1370,0.7341102113522463,0.7,0.0,0.0,335.0,691.0,0.0,1,234.0,1
1371,1371,-0.14985042816049599,-0.1,0.0,1.0,431.0,507.0,1.0,0,682.0,1
1372,1372,0.8825022740159153,0.9,1.0,1.0,422.0,675.0,1.0,1,293.0,1
1373,1373,-0.6545699992602534,-0.7,0.0,1.0,437.0,923.0,1.0,0,270.0,1
1374,1374,-0.6912485043145342,-0.7,0.0,1.0,278.0,859.0,1.0,0,103.0,1
1375,1375,0.09592650600616193,0.1,0.0,0.0,276.0,850.0,1.0,0,3874.0,0
1376,1376,-0.8134486669018167,-0.8,0.0,1.0,254.0,553.0,1.0,0,363.0,1
1377,1377,-0.0589381079840583,-0.1,0.0,1.0,381.0,727.0,1.0,0,282.0,1
1378,1378,0.5194794837297431,0.5,1.0,1.0,346.0,869.0,1.0,1,245.0,1
1379,1379,-0.8632577880108993,-0.9,0.0,1.0,404.0,617.0,1.0,0,309.0,1
1380,1380,0.003901360163266143,0.0,0.0,0.0,463.0,923.0,1.0,0,1394.0,0
1381,1381,0.43374060356790334,0.4,1.0,1.0,353.0,542.0,1.0,1,375.0,1
1382,1382,-0.8738589892001968,-0.9,0.0,1.0,321.0,628.0,1.0,0,221.0,1
1383,1383,0.8854220067233035,0.9,1.0,1.0,428.0,739.0,1.0,1,173.0,1
1384,1384,-0.8120398937649735,-0.8,0.0,1.0,490.0,515.0,1.0,0,265.0,1
1385,1385,-0.852203897198224,-0.9,1.0,0.0,356.0,984.0,0.0,0,330.0,1
1386,1386,-0.287239309157025,-0.3,1.0,0.0,304.0,827.0,0.0,0,2379.0,1
1387,1387,-0.2553840008151448,-0.3,1.0,0.0,346.0,536.0,0.0,0,4118.0,1
1388,1388,-0.7645028639336846,-0.8,1.0,0.0,492.0,528.0,0.0,0,330.0,1
1389,1389,-0.07454461172566584,-0.1,1.0,0.0,258.0,963.0,1.0,1,1419.0,0
1390,1390,0.45776058150763344,0.5,1.0,1.0,252.0,689.0,1.0,1,209.0,1
1391,1391,-0.8773469369206484,-0.9,0.0,1.0,463.0,586.0,1.0,0,311.0,1
1392,1392,0.19243261965221004,0.2,0.0,0.0,499.0,967.0,0.0,1,1694.0,1
1393,1393,0.8571647691970224,0.9,0.0,0.0,488.0,591.0,0.0,1,251.0,1
1394,1394,0.6931917727326228,0.7,1.0,1.0,350.0,628.0,1.0,1,182.0,1
1395,1395,-0.7077737908844403,-0.7,0.0,1.0,354.0,939.0,1.0,0,107.0,1
1396,1396,0.6901878806633316,0.7,0.0,0.0,475.0,701.0,0.0,1,214.0,1
1397,1397,-0.31525339698316723,-0.3,1.0,0.0,411.0,941.0,0.0,0,298.0,1
1398,1398,0.20163756402357869,0.2,0.0,0.0,439.0,839.0,0.0,1,1662.0,1
1399,1399,0.8877427529758227,0.9,0.0,0.0,283.0,848.0,0.0,1,209.0,1
1400,1400,0.6629005566678102,0.7,0.0,0.0,250.0,552.0,0.0,1,318.0,1
1401,1401,-0.7985963083651326,-0.8,0.0,1.0,493.0,643.0,1.0,0,134.0,1
1402,1402,0.40793015984912573,0.4,0.0,0.0,457.0,706.0,0.0,1,257.0,1
1403,1403,0.681623194713182,0.7,0.0,0.0,306.0,905.0,0.0,1,79.0,1
1404,1404,-0.27657882257183963,-0.3,1.0,0.0,496.0,988.0,0.0,0,1776.0,1
1405,1405,-0.25416769520383176,-0.3,0.0,1.0,364.0,685.0,1.0,0,561.0,1
1406,1406,-0.821819828222202,-0.8,0.0,1.0,382.0,647.0,1.0,0,331.0,1
1407,1407,-0.8775077965777621,-0.9,1.0,0.0,289.0,838.0,0.0,0,203.0,1
1408,1408,0.5416599943009807,0.5,0.0,0.0,299.0,550.0,0.0,1,211.0,1
1409,1409,0.856066283205685,0.9,1.0,1.0,330.0,725.0,1.0,1,135.0,1
1410,1410,-0.1106546289767254,-0.1,1.0,0.0,280.0,890.0,0.0,0,3830.0,1
1411,1411,0.028031882859745116,0.0,0.0,0.0,473.0,651.0,1.0,0,1026.0,0
1412,1412,0.5874897937814866,0.6,0.0,0.0,441.0,906.0,0.0,1,313.0,1
1413,1413,-0.7700991165970797,-0.8,1.0,0.0,361.0,986.0,0.0,0,303.0,1
1414,1414,0.8775312751060264,0.9,1.0,1.0,328.0,774.0,1.0,1,158.0,1
1415,1415,0.12296506602769541,0.1,1.0,1.0,320.0,521.0,1.0,1,799.0,1
1416,1416,0.3125308351648536,0.3,0.0,0.0,317.0,859.0,1.0,0,334.0,0
1417,1417,-0.6545482807996699,-0.7,1.0,0.0,492.0,998.0,0.0,0,140.0,1
1418,1418,-0.401443169780404,-0.4,1.0,0.0,437.0,889.0,0.0,0,424.0,1
1419,1419,-0.7291848767750319,-0.7,0.0,1.0,486.0,526.0,1.0,0,288.0,1
1420,1420,0.7150244120466568,0.7,1.0,1.0,476.0,614.0,1.0,1,200.0,1
1421,1421,-0.7892537814578973,-0.8,0.0,1.0,349.0,635.0,1.0,0,126.0,1
1422,1422,-0.0809710019488592,-0.1,0.0,1.0,286.0,635.0,1.0,0,1739.0,1
1423,1423,0.721164313396938,0.7,1.0,1.0,283.0,538.0,1.0,1,269.0,1
1424,1424,0.42237557168150774,0.4,1.0,1.0,347.0,818.0,1.0,1,125.0,1
1425,1425,-0.029987104010824384,-0.0,1.0,0.0,423.0,650.0,1.0,1,3907.0,0
1426,1426,-0.33391123197282846,-0.3,0.0,1.0,490.0,875.0,1.0,0,255.0,1
1427,1427,0.29256209417486045,0.3,1.0,1.0,261.0,770.0,1.0,1,249.0,1
1428,1428,0.04546649444625961,0.0,1.0,1.0,282.0,958.0,1.0,1,130.0,1
1429,1429,-0.011339326832123131,-0.0,0.0,1.0,440.0,518.0,0.0,1,702.0,0
1430,1430,-0.5799220473027624,-0.6,0.0,1.0,318.0,572.0,1.0,0,330.0,1
1431,1431,-0.5512986313232582,-0.6,0.0,1.0,328.0,580.0,1.0,0,282.0,1
1432,1432,-0.464008882470698,-0.5,0.0,1.0,447.0,717.0,1.0,0,186.0,1
1433,1433,0.05128322697438292,0.1,0.0,0.0,493.0,682.0,1.0,0,3825.0,0
1434,1434,0.7467116072234011,0.7,1.0,1.0,462.0,527.0,1.0,1,261.0,1
1435,1435,0.39129123780886654,0.4,0.0,0.0,294.0,828.0,0.0,1,328.0,1
1436,1436,0.7806338353163637,0.8,0.0,0.0,321.0,582.0,0.0,1,157.0,1
1437,1437,0.2639720195054368,0.3,1.0,1.0,280.0,987.0,1.0,1,293.0,1
1438,1438,-0.7211598401242526,-0.7,0.0,1.0,325.0,918.0,1.0,0,87.0,1
1439,1439,0.2849686692920753,0.3,1.0,1.0,481.0,561.0,1.0,1,428.0,1
1440,1440,0.21607227065511625,0.2,1.0,1.0,498.0,617.0,1.0,1,655.0,1
1441,1441,-0.7803064033295364,-0.8,0.0,1.0,494.0,883.0,1.0,0,203.0,1
1442,1442,-0.48606733107759204,-0.5,1.0,0.0,367.0,893.0,0.0,0,280.0,1
1443,1443,-0.17866439060749373,-0.2,0.0,1.0,336.0,577.0,1.0,0,417.0,1
1444,1444,-0.7294693527345345,-0.7,1.0,0.0,401.0,600.0,0.0,0,239.0,1
1445,1445,0.6090918557808417,0.6,1.0,1.0,432.0,535.0,1.0,1,293.0,1
1446,1446,0.8120478821514633,0.8,1.0,1.0,396.0,846.0,1.0,1,158.0,1
1447,1447,0.08393005605189519,0.1,0.0,0.0,295.0,839.0,1.0,0,3866.0,0
1448,1448,-0.7752439083956472,-0.8,0.0,1.0,480.0,772.0,1.0,0,298.0,1
1449,1449,0.3360365443812102,0.3,1.0,1.0,279.0,536.0,1.0,1,275.0,1
1450,1450,0.6263572666397922,0.6,1.0,1.0,292.0,911.0,1.0,1,247.0,1
1451,1451,-0.8071723115271229,-0.8,1.0,0.0,320.0,504.0,0.0,0,486.0,1
1452,1452,-0.8103329236640114,-0.8,1.0,0.0,391.0,631.0,0.0,0,538.0,1
1453,1453,0.07910420104136318,0.1,1.0,1.0,294.0,684.0,1.0,1,692.0,1
1454,1454,-0.35675478664398363,-0.4,1.0,0.0,499.0,540.0,0.0,0,621.0,1
1455,1455,0.845792940525025,0.8,1.0,1.0,459.0,834.0,1.0,1,187.0,1
1456,1456,0.5145238972235214,0.5,0.0,0.0,398.0,671.0,0.0,1,471.0,1
1457,1457,0.7622901572232353,0.8,1.0,1.0,272.0,832.0,1.0,1,206.0,1
1458,1458,0.6581847297572195,0.7,1.0,1.0,438.0,698.0,1.0,1,154.0,1
1459,1459,-0.05430821756743509,-0.1,1.0,0.0,297.0,600.0,1.0,1,4103.0,0
1460,1460,-0.830763174752748,-0.8,0.0,1.0,347.0,731.0,1.0,0,292.0,1
1461,1461,-0.7768869744800309,-0.8,0.0,1.0,394.0,721.0,1.0,0,155.0,1
1462,1462,0.5083249282097183,0.5,1.0,1.0,499.0,850.0,1.0,1,171.0,1
1463,1463,-0.48314657151814216,-0.5,1.0,0.0,407.0,727.0,0.0,0,336.0,1
1464,1464,0.6037860740443998,0.6,1.0,1.0,378.0,871.0,1.0,1,471.0,1
1465,1465,0.8138387129519932,0.8,0.0,0.0,371.0,760.0,0.0,1,299.0,1
1466,1466,0.6696098676738255,0.7,1.0,1.0,386.0,926.0,1.0,1,148.0,1
1467,1467,-0.13730327961563205,-0.1,0.0,1.0,328.0,995.0,1.0,0,-63.0,1
1468,1468,-0.32630513986101173,-0.3,0.0,1.0,357.0,961.0,1.0,0,102.0,1
1469,1469,0.8217175305144907,0.8,0.0,0.0,297.0,893.0,0.0,1,230.0,1
1470,1470,-0.039594408378090584,-0.0,0.0,1.0,322.0,949.0,1.0,0,79.0,1
1471,1471,-0.7235010661218176,-0.7,1.0,0.0,359.0,925.0,0.0,0,216.0,1
1472,1472,0.13939756031107808,0.1,1.0,1.0,386.0,987.0,1.0,1,507.0,1
1473,1473,0.21959155984563072,0.2,1.0,1.0,312.0,776.0,1.0,1,152.0,1
1474,1474,-0.3633546500307857,-0.4,0.0,1.0,276.0,847.0,1.0,0,657.0,1
1475,1475,-0.5121847834011005,-0.5,0.0,1.0,288.0,768.0,1.0,0,164.0,1
1476,1476,-0.2525001110867745,-0.3,1.0,0.0,311.0,546.0,0.0,0,1703.0,1
1477,1477,-0.7178126092942472,-0.7,1.0,0.0,392.0,987.0,0.0,0,171.0,1
1478,1478,0.32944785904598073,0.3,1.0,1.0,372.0,716.0,1.0,1,202.0,1
1479,1479,-0.6594697935867797,-0.7,0.0,1.0,309.0,805.0,1.0,0,256.0,1
1480,1480,0.8045236650127413,0.8,0.0,0.0,430.0,997.0,0.0,1,233.0,1
1481,1481,0.7073023372256607,0.7,0.0,0.0,338.0,725.0,0.0,1,347.0,1
1482,1482,-0.43138810796406285,-0.4,0.0,1.0,473.0,823.0,1.0,0,194.0,1
1483,1483,0.7808852859817216,0.8,1.0,1.0,289.0,930.0,1.0,1,141.0,1
1484,1484,0.36189182379142404,0.4,0.0,0.0,313.0,527.0,0.0,1,690.0,1
1485,1485,-0.896060604405861,-0.9,1.0,0.0,442.0,937.0,0.0,0,211.0,1
1486,1486,0.23160750136739672,0.2,1.0,1.0,356.0,823.0,1.0,1,621.0,1
1487,1487,-0.8294895986552797,-0.8,0.0,1.0,291.0,568.0,1.0,0,211.0,1
1488,1488,-0.7218627767557082,-0.7,0.0,1.0,417.0,668.0,1.0,0,245.0,1
1489,1489,-0.47218104068419464,-0.5,0.0,1.0,348.0,783.0,1.0,0,189.0,1
1490,1490,-0.6735652034421665,-0.7,0.0,1.0,308.0,982.0,1.0,0,140.0,1
1491,1491,0.4806806075069411,0.5,0.0,0.0,400.0,511.0,0.0,1,539.0,1
