,trial,coherence,coherence_bin,green_side,correct_side,target_onset,checker_onset,decision,green_decision,decision_time,correct_decision
0,0,0.6522022123457175,0.7,0.0,0.0,331.0,509.0,0.0,1,650.0,1
1,1,-0.30833062730997307,-0.3,1.0,0.0,433.0,790.0,0.0,0,347.0,1
2,2,-0.8204752175016721,-0.8,0.0,1.0,373.0,971.0,1.0,0,146.0,1
3,3,0.8597201202603962,0.9,0.0,0.0,372.0,919.0,0.0,1,219.0,1
4,4,0.8631923183401063,0.9,0.0,0.0,286.0,901.0,0.0,1,93.0,1
5,5,-0.7105536030001776,-0.7,1.0,0.0,498.0,695.0,0.0,0,237.0,1
6,6,0.15572261477684746,0.2,1.0,1.0,432.0,851.0,1.0,1,347.0,1
7,7,-0.5244061380709489,-0.5,0.0,1.0,412.0,608.0,1.0,0,350.0,1
8,8,0.4303820983897483,0.4,1.0,1.0,297.0,829.0,1.0,1,314.0,1
9,9,0.4805834120121967,0.5,0.0,0.0,376.0,544.0,0.0,1,360.0,1
10,10,-0.19519559016102506,-0.2,1.0,0.0,374.0,941.0,0.0,0,125.0,1
11,11,-0.5495158333594377,-0.5,1.0,0.0,439.0,732.0,0.0,0,359.0,1
12,12,0.2005210604967932,0.2,1.0,1.0,449.0,675.0,1.0,1,306.0,1
13,13,0.7652802550830432,0.8,0.0,0.0,439.0,609.0,0.0,1,292.0,1
14,14,0.8732855775456089,0.9,1.0,1.0,444.0,791.0,1.0,1,85.0,1
15,15,-0.015588970574170191,-0.0,0.0,1.0,476.0,817.0,1.0,0,1197.0,1
16,16,-0.24183581567709622,-0.2,0.0,1.0,467.0,732.0,1.0,0,291.0,1
17,17,-0.5259221479175389,-0.5,1.0,0.0,296.0,920.0,0.0,0,244.0,1
18,18,0.05718435659224208,0.1,0.0,0.0,405.0,661.0,0.0,1,104.0,1
19,19,0.16806043303294438,0.2,0.0,0.0,402.0,530.0,0.0,1,278.0,1
20,20,-0.2764958219646564,-0.3,1.0,0.0,425.0,602.0,0.0,0,433.0,1
21,21,0.8636818288501472,0.9,1.0,1.0,337.0,841.0,1.0,1,222.0,1
22,22,-0.6353671097805704,-0.6,0.0,1.0,495.0,501.0,1.0,0,344.0,1
23,23,-0.5834958742839165,-0.6,1.0,0.0,408.0,977.0,0.0,0,305.0,1
24,24,0.5875932998187176,0.6,0.0,0.0,268.0,752.0,0.0,1,410.0,1
25,25,-0.8433010895000077,-0.8,0.0,1.0,476.0,840.0,1.0,0,224.0,1
26,26,-0.27277480403886556,-0.3,0.0,1.0,362.0,626.0,1.0,0,442.0,1
27,27,0.33734680812114315,0.3,1.0,1.0,494.0,783.0,1.0,1,503.0,1
28,28,-0.5698150099447128,-0.6,0.0,1.0,263.0,519.0,1.0,0,328.0,1
29,29,-0.5450461835072028,-0.5,1.0,0.0,460.0,518.0,0.0,0,482.0,1
30,30,-0.2179885100167549,-0.2,1.0,0.0,276.0,653.0,0.0,0,521.0,1
31,31,-0.15141624661282727,-0.2,0.0,1.0,282.0,937.0,1.0,0,1181.0,1
32,32,-0.30841865522463985,-0.3,1.0,0.0,300.0,738.0,0.0,0,302.0,1
33,33,-0.0982441921806142,-0.1,1.0,0.0,415.0,772.0,0.0,0,583.0,1
34,34,-0.6853405363251691,-0.7,0.0,1.0,260.0,767.0,1.0,0,303.0,1
35,35,-0.06510709517323232,-0.1,1.0,0.0,488.0,579.0,0.0,0,543.0,1
36,36,-0.6729272527234346,-0.7,1.0,0.0,328.0,710.0,0.0,0,222.0,1
37,37,0.4777906282719969,0.5,0.0,0.0,283.0,879.0,0.0,1,288.0,1
38,38,0.8555936412709598,0.9,0.0,0.0,473.0,640.0,0.0,1,267.0,1
39,39,-0.8851434177903765,-0.9,0.0,1.0,435.0,552.0,1.0,0,473.0,1
40,40,0.4550435914594374,0.5,1.0,1.0,400.0,800.0,1.0,1,150.0,1
41,41,0.6538409487305533,0.7,1.0,1.0,452.0,892.0,1.0,1,186.0,1
42,42,-0.6538206620413413,-0.7,1.0,0.0,330.0,959.0,0.0,0,111.0,1
43,43,0.26818379188335484,0.3,1.0,1.0,460.0,801.0,1.0,1,319.0,1
44,44,-0.8249214527595732,-0.8,0.0,1.0,368.0,885.0,1.0,0,117.0,1
45,45,0.6813235862504617,0.7,0.0,0.0,271.0,772.0,0.0,1,217.0,1
46,46,0.6409226423779094,0.6,0.0,0.0,437.0,539.0,0.0,1,384.0,1
47,47,-0.7834944570692484,-0.8,0.0,1.0,303.0,716.0,1.0,0,351.0,1
48,48,-0.3292971782505155,-0.3,0.0,1.0,369.0,569.0,1.0,0,272.0,1
49,49,0.2921815404663449,0.3,0.0,0.0,273.0,528.0,0.0,1,519.0,1
50,50,-0.7880092933028244,-0.8,0.0,1.0,404.0,613.0,1.0,0,413.0,1
51,51,0.4428798020091401,0.4,1.0,1.0,484.0,849.0,1.0,1,117.0,1
52,52,0.6878557179244568,0.7,1.0,1.0,384.0,501.0,1.0,1,385.0,1
53,53,-0.4240389352609469,-0.4,1.0,0.0,491.0,919.0,0.0,0,230.0,1
54,54,-0.4393269501741964,-0.4,0.0,1.0,252.0,914.0,1.0,0,154.0,1
55,55,-0.5935055792155761,-0.6,0.0,1.0,342.0,980.0,1.0,0,248.0,1
56,56,-0.25303773834393883,-0.3,0.0,1.0,304.0,755.0,1.0,0,561.0,1
57,57,0.8409337557965307,0.8,1.0,1.0,279.0,683.0,1.0,1,178.0,1
58,58,-0.7299751666209655,-0.7,0.0,1.0,493.0,908.0,1.0,0,319.0,1
59,59,0.8229330059695273,0.8,1.0,1.0,317.0,659.0,1.0,1,264.0,1
60,60,0.6164728031528063,0.6,1.0,1.0,317.0,732.0,1.0,1,331.0,1
61,61,0.4107273480979391,0.4,1.0,1.0,286.0,626.0,1.0,1,418.0,1
62,62,0.8869870211791896,0.9,0.0,0.0,435.0,942.0,0.0,1,53.0,1
63,63,-0.19572185004488707,-0.2,1.0,0.0,274.0,651.0,0.0,0,285.0,1
64,64,-0.16457051931809552,-0.2,0.0,1.0,324.0,561.0,1.0,0,765.0,1
65,65,0.6501104572547142,0.7,0.0,0.0,279.0,928.0,0.0,1,313.0,1
66,66,0.2777443971971779,0.3,0.0,0.0,377.0,560.0,0.0,1,413.0,1
67,67,-0.42152005784178564,-0.4,0.0,1.0,418.0,910.0,1.0,0,402.0,1
68,68,0.26259553531325397,0.3,1.0,1.0,323.0,978.0,1.0,1,449.0,1
69,69,0.4624915213403874,0.5,1.0,1.0,286.0,954.0,1.0,1,290.0,1
70,70,0.1942352073064496,0.2,0.0,0.0,407.0,973.0,0.0,1,140.0,1
71,71,-0.14013254470121372,-0.1,1.0,0.0,414.0,535.0,1.0,1,491.0,0
72,72,0.18463745064533732,0.2,0.0,0.0,441.0,671.0,0.0,1,618.0,1
73,73,0.2983924568525723,0.3,0.0,0.0,494.0,589.0,0.0,1,737.0,1
74,74,0.03602368848592008,0.0,0.0,0.0,459.0,763.0,0.0,1,278.0,1
75,75,-0.844945099075979,-0.8,0.0,1.0,286.0,749.0,1.0,0,225.0,1
76,76,-0.338305452619477,-0.3,0.0,1.0,372.0,959.0,1.0,0,239.0,1
77,77,-0.055624253123015,-0.1,0.0,1.0,482.0,937.0,1.0,0,721.0,1
78,78,0.7496731158856426,0.7,0.0,0.0,495.0,949.0,0.0,1,226.0,1
79,79,0.7792610109156178,0.8,1.0,1.0,309.0,556.0,1.0,1,305.0,1
80,80,-0.6966149108354234,-0.7,1.0,0.0,459.0,925.0,0.0,0,206.0,1
81,81,-0.8732337408691699,-0.9,1.0,0.0,450.0,676.0,0.0,0,474.0,1
82,82,-0.35635970512078086,-0.4,1.0,0.0,253.0,767.0,0.0,0,170.0,1
83,83,0.2548694852590273,0.3,1.0,1.0,452.0,907.0,0.0,0,261.0,0
84,84,0.7514430002401019,0.8,1.0,1.0,411.0,530.0,1.0,1,459.0,1
85,85,-0.48229843769549524,-0.5,1.0,0.0,465.0,531.0,0.0,0,694.0,1
86,86,0.3514316519104027,0.4,1.0,1.0,258.0,658.0,1.0,1,474.0,1
87,87,0.301743916234697,0.3,0.0,0.0,409.0,917.0,0.0,1,454.0,1
88,88,0.18212241483611524,0.2,0.0,0.0,472.0,880.0,0.0,1,528.0,1
89,89,0.8526066260290998,0.9,1.0,1.0,487.0,770.0,1.0,1,253.0,1
90,90,-0.3754590749735708,-0.4,1.0,0.0,265.0,623.0,0.0,0,392.0,1
91,91,0.2939984595365549,0.3,0.0,0.0,273.0,707.0,0.0,1,690.0,1
92,92,0.13934499775912734,0.1,0.0,0.0,430.0,577.0,1.0,0,643.0,0
93,93,0.851619526617453,0.9,1.0,1.0,428.0,867.0,1.0,1,155.0,1
94,94,-0.18822799816531433,-0.2,0.0,1.0,289.0,563.0,1.0,0,708.0,1
95,95,0.6719979063807243,0.7,0.0,0.0,488.0,981.0,0.0,1,121.0,1
96,96,0.44301170861266137,0.4,0.0,0.0,265.0,860.0,0.0,1,325.0,1
97,97,0.5296448730374842,0.5,0.0,0.0,291.0,905.0,0.0,1,304.0,1
98,98,-0.3218522633530184,-0.3,1.0,0.0,440.0,999.0,1.0,1,-69.0,0
99,99,0.280649804304541,0.3,0.0,0.0,421.0,579.0,0.0,1,710.0,1
100,100,-0.6472967167700698,-0.6,0.0,1.0,451.0,658.0,1.0,0,191.0,1
101,101,0.592092796350853,0.6,1.0,1.0,291.0,614.0,1.0,1,315.0,1
102,102,-0.23306130910744594,-0.2,1.0,0.0,461.0,871.0,0.0,0,368.0,1
103,103,-0.7267469774706121,-0.7,0.0,1.0,295.0,674.0,1.0,0,581.0,1
104,104,0.892535076642539,0.9,0.0,0.0,371.0,653.0,0.0,1,426.0,1
105,105,0.027976200694693865,0.0,1.0,1.0,360.0,990.0,1.0,1,1520.0,1
106,106,0.0568410998651212,0.1,0.0,0.0,422.0,716.0,0.0,1,552.0,1
107,107,-0.5720847697027396,-0.6,0.0,1.0,346.0,847.0,1.0,0,537.0,1
108,108,0.7598311272383577,0.8,1.0,1.0,275.0,573.0,1.0,1,322.0,1
109,109,-0.4603513367667236,-0.5,1.0,0.0,292.0,938.0,0.0,0,190.0,1
110,110,0.7509716942369181,0.8,1.0,1.0,304.0,976.0,1.0,1,260.0,1
111,111,-0.3351178584860818,-0.3,0.0,1.0,259.0,661.0,1.0,0,210.0,1
112,112,0.5251397141962243,0.5,0.0,0.0,404.0,956.0,0.0,1,110.0,1
113,113,-0.38356528205399054,-0.4,1.0,0.0,377.0,825.0,0.0,0,168.0,1
114,114,0.20651072175213347,0.2,0.0,0.0,407.0,785.0,0.0,1,718.0,1
115,115,-0.1412344731058267,-0.1,0.0,1.0,453.0,803.0,0.0,1,434.0,0
116,116,-0.531582090417352,-0.5,1.0,0.0,454.0,781.0,0.0,0,685.0,1
117,117,-0.027827636981910042,-0.0,1.0,0.0,291.0,608.0,0.0,0,1811.0,1
118,118,-0.20255477696622715,-0.2,1.0,0.0,317.0,884.0,0.0,0,369.0,1
119,119,-0.7684675101793614,-0.8,1.0,0.0,360.0,835.0,0.0,0,145.0,1
120,120,-0.42330002387447513,-0.4,1.0,0.0,279.0,909.0,0.0,0,662.0,1
121,121,-0.3148265254972279,-0.3,1.0,0.0,345.0,646.0,0.0,0,519.0,1
122,122,-0.48598250522705133,-0.5,1.0,0.0,375.0,533.0,0.0,0,742.0,1
123,123,-0.5562814957942319,-0.6,0.0,1.0,412.0,959.0,1.0,0,239.0,1
124,124,-0.2370438314630514,-0.2,0.0,1.0,471.0,959.0,1.0,0,390.0,1
125,125,0.20130719157465482,0.2,1.0,1.0,392.0,577.0,1.0,1,701.0,1
126,126,-0.020655273900547444,-0.0,1.0,0.0,332.0,955.0,0.0,0,643.0,1
127,127,-0.45133831208456177,-0.5,1.0,0.0,496.0,694.0,0.0,0,210.0,1
128,128,-0.5093789816547228,-0.5,0.0,1.0,251.0,791.0,1.0,0,88.0,1
129,129,0.32734301709918123,0.3,1.0,1.0,458.0,692.0,1.0,1,440.0,1
130,130,0.24242091436708713,0.2,0.0,0.0,323.0,509.0,0.0,1,468.0,1
131,131,-0.49955184430194804,-0.5,1.0,0.0,355.0,932.0,0.0,0,83.0,1
132,132,-0.3630667026201655,-0.4,1.0,0.0,438.0,641.0,0.0,0,341.0,1
133,133,0.228370910386,0.2,0.0,0.0,288.0,995.0,1.0,0,707.0,0
134,134,-0.46364907845028075,-0.5,1.0,0.0,491.0,698.0,0.0,0,621.0,1
135,135,-0.8880667601620024,-0.9,0.0,1.0,400.0,685.0,1.0,0,135.0,1
136,136,-0.4933270996657331,-0.5,0.0,1.0,378.0,587.0,1.0,0,295.0,1
137,137,-0.7173603154491925,-0.7,0.0,1.0,351.0,947.0,0.0,1,-8.0,0
138,138,0.6377804687701968,0.6,1.0,1.0,255.0,692.0,1.0,1,213.0,1
139,139,-0.46320272318972366,-0.5,1.0,0.0,399.0,943.0,0.0,0,78.0,1
140,140,-0.36438911543418373,-0.4,0.0,1.0,415.0,719.0,1.0,0,276.0,1
141,141,0.538966387394545,0.5,1.0,1.0,302.0,727.0,1.0,1,361.0,1
142,142,-0.5128423441695775,-0.5,1.0,0.0,254.0,735.0,0.0,0,551.0,1
143,143,-0.42808594468301975,-0.4,0.0,1.0,263.0,745.0,1.0,0,252.0,1
144,144,0.03932084848515516,0.0,0.0,0.0,363.0,766.0,0.0,1,1441.0,1
145,145,-0.41955449759805513,-0.4,0.0,1.0,364.0,617.0,1.0,0,429.0,1
146,146,0.6032340766819312,0.6,0.0,0.0,262.0,775.0,0.0,1,313.0,1
147,147,-0.10063164481870956,-0.1,0.0,1.0,465.0,512.0,0.0,1,413.0,0
148,148,0.115318381472722,0.1,1.0,1.0,393.0,537.0,1.0,1,780.0,1
149,149,0.6070694413646945,0.6,0.0,0.0,261.0,965.0,0.0,1,534.0,1
150,150,-0.4605282971401869,-0.5,1.0,0.0,271.0,590.0,0.0,0,449.0,1
151,151,-0.5965044516424436,-0.6,1.0,0.0,446.0,788.0,0.0,0,46.0,1
152,152,0.39807995066253,0.4,1.0,1.0,478.0,627.0,1.0,1,495.0,1
153,153,-0.616046302036884,-0.6,1.0,0.0,491.0,933.0,0.0,0,236.0,1
154,154,0.3264656747439568,0.3,0.0,0.0,260.0,902.0,0.0,1,208.0,1
155,155,-0.41069567037738014,-0.4,1.0,0.0,387.0,501.0,0.0,0,682.0,1
156,156,-0.4043131519361913,-0.4,0.0,1.0,434.0,867.0,1.0,0,239.0,1
157,157,-0.5454873245548171,-0.5,1.0,0.0,359.0,548.0,0.0,0,473.0,1
158,158,-0.7265013269231448,-0.7,0.0,1.0,374.0,620.0,1.0,0,606.0,1
159,159,-0.32931516249625403,-0.3,0.0,1.0,455.0,572.0,1.0,0,263.0,1
160,160,-0.5166168586074125,-0.5,0.0,1.0,303.0,839.0,1.0,0,208.0,1
161,161,-0.2895757265150465,-0.3,1.0,0.0,445.0,762.0,0.0,0,343.0,1
162,162,0.35998322617449385,0.4,0.0,0.0,391.0,946.0,0.0,1,673.0,1
163,163,-0.586621939644708,-0.6,0.0,1.0,405.0,617.0,1.0,0,278.0,1
164,164,-0.8736035811985057,-0.9,1.0,0.0,361.0,941.0,0.0,0,118.0,1
165,165,0.6125190307014311,0.6,1.0,1.0,424.0,716.0,1.0,1,810.0,1
166,166,0.5038632152570396,0.5,1.0,1.0,254.0,659.0,1.0,1,437.0,1
167,167,-0.876111364145413,-0.9,0.0,1.0,370.0,692.0,1.0,0,348.0,1
168,168,-0.6992191094771585,-0.7,1.0,0.0,487.0,640.0,0.0,0,273.0,1
169,169,0.09470600044184929,0.1,0.0,0.0,444.0,743.0,0.0,1,473.0,1
170,170,-0.4589525720518738,-0.5,0.0,1.0,275.0,693.0,1.0,0,412.0,1
171,171,-0.030954206194890088,-0.0,1.0,0.0,358.0,785.0,1.0,1,467.0,0
172,172,-0.6134144491493909,-0.6,0.0,1.0,448.0,884.0,1.0,0,238.0,1
173,173,0.23847081002515613,0.2,1.0,1.0,330.0,581.0,1.0,1,509.0,1
174,174,-0.2839367420600636,-0.3,1.0,0.0,370.0,707.0,0.0,0,203.0,1
175,175,0.22615012754415587,0.2,1.0,1.0,393.0,998.0,1.0,1,1189.0,1
176,176,-0.3482927954619769,-0.3,0.0,1.0,355.0,585.0,1.0,0,590.0,1
177,177,0.31858448329744216,0.3,0.0,0.0,264.0,972.0,0.0,1,74.0,1
178,178,0.3276846837864361,0.3,0.0,0.0,262.0,936.0,0.0,1,602.0,1
179,179,0.8981547672779479,0.9,1.0,1.0,398.0,829.0,1.0,1,23.0,1
180,180,-0.42093738007972575,-0.4,0.0,1.0,458.0,723.0,1.0,0,369.0,1
181,181,0.8960679991775508,0.9,0.0,0.0,455.0,677.0,0.0,1,148.0,1
182,182,0.7766823300895768,0.8,0.0,0.0,368.0,816.0,0.0,1,66.0,1
183,183,-0.30529892010480286,-0.3,0.0,1.0,391.0,855.0,0.0,1,434.0,0
184,184,-0.34554136784654976,-0.3,1.0,0.0,343.0,552.0,0.0,0,645.0,1
185,185,-0.05675874411139381,-0.1,1.0,0.0,367.0,678.0,1.0,1,3125.0,0
186,186,0.5349339117551276,0.5,1.0,1.0,352.0,679.0,1.0,1,449.0,1
187,187,0.6511182700224151,0.7,1.0,1.0,397.0,840.0,1.0,1,263.0,1
188,188,0.6557821648644159,0.7,0.0,0.0,280.0,782.0,0.0,1,428.0,1
189,189,0.443240805545032,0.4,1.0,1.0,442.0,897.0,1.0,1,211.0,1
190,190,0.3957430196356845,0.4,0.0,0.0,388.0,527.0,0.0,1,775.0,1
191,191,0.18432074809529853,0.2,1.0,1.0,494.0,648.0,1.0,1,748.0,1
192,192,-0.33088258468674825,-0.3,0.0,1.0,275.0,735.0,1.0,0,460.0,1
193,193,0.8716486019776651,0.9,1.0,1.0,408.0,672.0,1.0,1,250.0,1
194,194,0.8747416132810762,0.9,1.0,1.0,287.0,777.0,1.0,1,426.0,1
195,195,-0.7313223184666153,-0.7,0.0,1.0,299.0,911.0,1.0,0,110.0,1
196,196,-0.8666179351820807,-0.9,0.0,1.0,307.0,884.0,1.0,0,139.0,1
197,197,0.28244795802367795,0.3,0.0,0.0,265.0,917.0,0.0,1,788.0,1
198,198,-0.2263183158600538,-0.2,1.0,0.0,492.0,831.0,0.0,0,707.0,1
199,199,0.5452648786562461,0.5,1.0,1.0,396.0,717.0,1.0,1,147.0,1
200,200,0.05590571164319369,0.1,1.0,1.0,331.0,796.0,0.0,0,183.0,0
201,201,-0.7055267583625948,-0.7,0.0,1.0,284.0,679.0,1.0,0,377.0,1
202,202,0.13128578438445404,0.1,0.0,0.0,311.0,884.0,0.0,1,375.0,1
203,203,0.3813178813123831,0.4,1.0,1.0,282.0,974.0,1.0,1,114.0,1
204,204,0.6714900389465946,0.7,0.0,0.0,395.0,743.0,0.0,1,492.0,1
205,205,0.49243854530769815,0.5,0.0,0.0,361.0,517.0,0.0,1,822.0,1
206,206,0.027827264386349637,0.0,1.0,1.0,274.0,530.0,0.0,0,2156.0,0
207,207,0.5980124519232569,0.6,1.0,1.0,442.0,772.0,1.0,1,176.0,1
208,208,0.6578542411584075,0.7,0.0,0.0,348.0,632.0,0.0,1,200.0,1
209,209,-0.254503927566299,-0.3,1.0,0.0,390.0,957.0,0.0,0,333.0,1
210,210,0.1238808750316428,0.1,0.0,0.0,399.0,767.0,1.0,0,1004.0,0
211,211,0.01574557395973719,0.0,0.0,0.0,338.0,514.0,1.0,0,2308.0,0
212,212,0.19397292563151114,0.2,0.0,0.0,363.0,707.0,0.0,1,210.0,1
213,213,0.8695275812417106,0.9,0.0,0.0,326.0,993.0,1.0,0,-9.0,0
214,214,0.5284870943865455,0.5,1.0,1.0,425.0,927.0,1.0,1,1068.0,1
215,215,-0.011095639259926737,-0.0,1.0,0.0,476.0,728.0,0.0,0,576.0,1
216,216,-0.5123555560630186,-0.5,0.0,1.0,273.0,962.0,1.0,0,335.0,1
217,217,-0.16135827020627347,-0.2,0.0,1.0,288.0,702.0,1.0,0,540.0,1
218,218,0.09649313159676776,0.1,0.0,0.0,324.0,971.0,0.0,1,2275.0,1
219,219,-0.11044606420844127,-0.1,0.0,1.0,428.0,878.0,1.0,0,744.0,1
220,220,0.02992762429905227,0.0,1.0,1.0,288.0,702.0,1.0,1,540.0,1
221,221,0.21534055426655885,0.2,0.0,0.0,278.0,772.0,0.0,1,310.0,1
222,222,0.8621016002541299,0.9,0.0,0.0,495.0,931.0,0.0,1,124.0,1
223,223,-0.05978073790657701,-0.1,0.0,1.0,425.0,988.0,1.0,0,907.0,1
224,224,0.04791592956808022,0.0,0.0,0.0,413.0,686.0,0.0,1,501.0,1
225,225,-0.8708044910307476,-0.9,0.0,1.0,304.0,968.0,1.0,0,58.0,1
226,226,0.630234393233705,0.6,1.0,1.0,472.0,805.0,1.0,1,323.0,1
227,227,-0.26890987874584493,-0.3,1.0,0.0,311.0,834.0,0.0,0,795.0,1
228,228,-0.11365324419702716,-0.1,0.0,1.0,350.0,770.0,1.0,0,590.0,1
229,229,-0.8832268057597406,-0.9,1.0,0.0,312.0,679.0,0.0,0,199.0,1
230,230,-0.13348751748656962,-0.1,1.0,0.0,395.0,768.0,0.0,0,717.0,1
231,231,-0.7221860983823878,-0.7,1.0,0.0,319.0,724.0,0.0,0,317.0,1
232,232,-0.4681209249031267,-0.5,0.0,1.0,360.0,777.0,1.0,0,313.0,1
233,233,-0.6591384790072249,-0.7,0.0,1.0,306.0,644.0,1.0,0,420.0,1
234,234,0.8155978905234834,0.8,0.0,0.0,448.0,957.0,0.0,1,85.0,1
235,235,0.5858960178866631,0.6,1.0,1.0,480.0,982.0,1.0,1,258.0,1
236,236,0.21225155491597614,0.2,1.0,1.0,316.0,880.0,0.0,0,284.0,0
237,237,-0.24474106575342658,-0.2,1.0,0.0,261.0,788.0,1.0,1,511.0,0
238,238,0.4527863758604652,0.5,1.0,1.0,367.0,745.0,1.0,1,338.0,1
239,239,-0.8340174750064974,-0.8,0.0,1.0,355.0,556.0,1.0,0,439.0,1
240,240,-0.41089706759871925,-0.4,0.0,1.0,263.0,981.0,1.0,0,246.0,1
241,241,-0.3718600995849701,-0.4,0.0,1.0,278.0,901.0,1.0,0,331.0,1
242,242,-0.22764750888630125,-0.2,1.0,0.0,251.0,662.0,0.0,0,257.0,1
243,243,0.29571119647536726,0.3,0.0,0.0,286.0,751.0,0.0,1,1273.0,1
244,244,0.2181006231264665,0.2,0.0,0.0,405.0,721.0,0.0,1,84.0,1
245,245,0.5032878407327276,0.5,0.0,0.0,267.0,536.0,0.0,1,527.0,1
246,246,0.7339478361398771,0.7,0.0,0.0,428.0,503.0,0.0,1,609.0,1
247,247,0.29495202156737876,0.3,1.0,1.0,489.0,709.0,1.0,1,412.0,1
248,248,0.08809971525611571,0.1,0.0,0.0,308.0,525.0,1.0,0,747.0,0
249,249,0.6544379579337717,0.7,1.0,1.0,278.0,950.0,1.0,1,282.0,1
250,250,0.2653862375595061,0.3,0.0,0.0,464.0,975.0,0.0,1,291.0,1
251,251,-0.557241467145849,-0.6,1.0,0.0,393.0,641.0,0.0,0,736.0,1
252,252,0.10796807167487821,0.1,1.0,1.0,366.0,947.0,1.0,1,427.0,1
253,253,0.09037536919633649,0.1,1.0,1.0,294.0,657.0,1.0,1,339.0,1
254,254,-0.021912774273011193,-0.0,0.0,1.0,304.0,606.0,0.0,1,800.0,0
255,255,0.09677329290075998,0.1,0.0,0.0,342.0,619.0,0.0,1,869.0,1
256,256,-0.11156546443295079,-0.1,1.0,0.0,446.0,894.0,0.0,0,950.0,1
257,257,-0.8244339715626977,-0.8,0.0,1.0,409.0,845.0,1.0,0,256.0,1
258,258,0.020481420644918424,0.0,0.0,0.0,459.0,594.0,1.0,0,567.0,0
259,259,0.3249812490842917,0.3,1.0,1.0,444.0,832.0,1.0,1,234.0,1
260,260,-0.3502149765035769,-0.4,0.0,1.0,435.0,937.0,1.0,0,228.0,1
261,261,0.4094025343206674,0.4,0.0,0.0,305.0,838.0,0.0,1,547.0,1
262,262,-0.7058088989693267,-0.7,1.0,0.0,343.0,697.0,0.0,0,340.0,1
263,263,0.744143846330973,0.7,0.0,0.0,264.0,958.0,0.0,1,138.0,1
264,264,-0.7772766542627614,-0.8,0.0,1.0,296.0,917.0,1.0,0,147.0,1
265,265,-0.42513428381904184,-0.4,0.0,1.0,315.0,683.0,1.0,0,602.0,1
266,266,-0.43185210167396265,-0.4,1.0,0.0,276.0,811.0,0.0,0,243.0,1
267,267,0.39648881001080805,0.4,1.0,1.0,348.0,510.0,1.0,1,822.0,1
268,268,-0.1853051817598439,-0.2,0.0,1.0,309.0,538.0,1.0,0,563.0,1
269,269,0.08679950726196828,0.1,1.0,1.0,316.0,528.0,0.0,0,386.0,0
270,270,-0.10028738460568498,-0.1,0.0,1.0,440.0,532.0,0.0,1,898.0,0
271,271,0.0040686471425740445,0.0,1.0,1.0,360.0,907.0,0.0,0,293.0,0
272,272,-0.659100255845261,-0.7,0.0,1.0,401.0,954.0,1.0,0,455.0,1
273,273,-0.1441680125370065,-0.1,1.0,0.0,377.0,558.0,0.0,0,1265.0,1
274,274,-0.2797361503817002,-0.3,1.0,0.0,372.0,651.0,0.0,0,427.0,1
275,275,-0.5285982362095447,-0.5,0.0,1.0,294.0,556.0,1.0,0,280.0,1
276,276,-0.8969135726369386,-0.9,0.0,1.0,356.0,736.0,1.0,0,338.0,1
277,277,0.41335897391647125,0.4,0.0,0.0,416.0,560.0,0.0,1,624.0,1
278,278,-0.8009494347727931,-0.8,0.0,1.0,415.0,780.0,1.0,0,555.0,1
279,279,0.5502130441003054,0.6,1.0,1.0,319.0,874.0,1.0,1,187.0,1
280,280,0.1621676655052019,0.2,1.0,1.0,286.0,537.0,1.0,1,747.0,1
281,281,-0.10318151832514388,-0.1,1.0,0.0,458.0,663.0,0.0,0,259.0,1
282,282,-0.2056286382184409,-0.2,1.0,0.0,467.0,930.0,0.0,0,153.0,1
283,283,0.4633334654173492,0.5,0.0,0.0,345.0,669.0,0.0,1,686.0,1
284,284,0.23530414109513365,0.2,1.0,1.0,287.0,631.0,1.0,1,352.0,1
285,285,-0.5420797498064223,-0.5,0.0,1.0,368.0,792.0,1.0,0,180.0,1
286,286,0.21657436254450013,0.2,0.0,0.0,471.0,559.0,0.0,1,430.0,1
287,287,-0.12814776774259584,-0.1,0.0,1.0,265.0,823.0,1.0,0,1242.0,1
288,288,-0.5976033359293464,-0.6,1.0,0.0,494.0,722.0,0.0,0,304.0,1
289,289,-0.011166506470206006,-0.0,0.0,1.0,263.0,714.0,0.0,1,853.0,0
290,290,0.0033054639328465862,0.0,1.0,1.0,429.0,742.0,1.0,1,349.0,1
291,291,0.6434030727393069,0.6,0.0,0.0,431.0,887.0,0.0,1,82.0,1
292,292,-0.46141411853525605,-0.5,1.0,0.0,493.0,656.0,0.0,0,381.0,1
293,293,0.40526411527448436,0.4,0.0,0.0,257.0,930.0,1.0,0,-47.0,0
294,294,0.559232420193089,0.6,0.0,0.0,268.0,812.0,0.0,1,150.0,1
295,295,0.1708981465171514,0.2,0.0,0.0,346.0,588.0,0.0,1,316.0,1
296,296,-0.811147926065721,-0.8,1.0,0.0,297.0,534.0,0.0,0,449.0,1
297,297,0.7660861479607673,0.8,1.0,1.0,404.0,863.0,1.0,1,113.0,1
298,298,-0.5145113189313957,-0.5,0.0,1.0,343.0,605.0,1.0,0,262.0,1
299,299,0.08252685787648872,0.1,1.0,1.0,382.0,732.0,1.0,1,606.0,1
300,300,0.11016902092503111,0.1,0.0,0.0,486.0,536.0,0.0,1,408.0,1
301,301,-0.1836301281604067,-0.2,1.0,0.0,262.0,839.0,0.0,0,469.0,1
302,302,0.26039392529385663,0.3,1.0,1.0,416.0,505.0,1.0,1,459.0,1
303,303,0.11532868930150852,0.1,1.0,1.0,385.0,767.0,0.0,0,198.0,0
304,304,-0.3700043841810601,-0.4,1.0,0.0,483.0,635.0,0.0,0,372.0,1
305,305,0.10632500388336019,0.1,1.0,1.0,333.0,701.0,1.0,1,1046.0,1
306,306,-0.6722279094522415,-0.7,1.0,0.0,327.0,560.0,0.0,0,383.0,1
307,307,0.799089281395755,0.8,1.0,1.0,463.0,781.0,1.0,1,346.0,1
308,308,-0.23447965838035634,-0.2,1.0,0.0,387.0,720.0,0.0,0,353.0,1
309,309,-0.05318181960731827,-0.1,0.0,1.0,284.0,519.0,1.0,0,617.0,1
310,310,0.38508462668642884,0.4,0.0,0.0,268.0,931.0,0.0,1,131.0,1
311,311,-0.7550750622797574,-0.8,1.0,0.0,363.0,985.0,0.0,0,352.0,1
312,312,0.21314181039270375,0.2,1.0,1.0,453.0,979.0,1.0,1,148.0,1
313,313,-0.44808915782177355,-0.4,1.0,0.0,288.0,999.0,0.0,0,333.0,1
314,314,-0.17557157147798808,-0.2,0.0,1.0,280.0,968.0,1.0,0,662.0,1
315,315,-0.40892024656671494,-0.4,1.0,0.0,348.0,727.0,0.0,0,115.0,1
316,316,-0.3203056447682139,-0.3,1.0,0.0,315.0,974.0,0.0,0,1.0,1
317,317,-0.008780174511905936,-0.0,1.0,0.0,360.0,785.0,0.0,0,345.0,1
318,318,0.642661330219095,0.6,1.0,1.0,284.0,902.0,1.0,1,184.0,1
319,319,0.7058884536693996,0.7,0.0,0.0,373.0,725.0,0.0,1,372.0,1
320,320,-0.31663242908372513,-0.3,1.0,0.0,431.0,921.0,0.0,0,378.0,1
321,321,-0.5609667570776306,-0.6,0.0,1.0,497.0,594.0,1.0,0,789.0,1
322,322,0.8015974491771701,0.8,0.0,0.0,362.0,660.0,0.0,1,438.0,1
323,323,0.6621462850304972,0.7,1.0,1.0,331.0,541.0,1.0,1,598.0,1
324,324,0.49967563008477434,0.5,1.0,1.0,488.0,593.0,1.0,1,419.0,1
325,325,-0.05616893755750352,-0.1,1.0,0.0,479.0,758.0,0.0,0,2153.0,1
326,326,0.7125512779333808,0.7,0.0,0.0,490.0,562.0,0.0,1,448.0,1
327,327,-0.637050906610696,-0.6,0.0,1.0,370.0,676.0,1.0,0,304.0,1
328,328,0.2727663590642876,0.3,1.0,1.0,446.0,832.0,1.0,1,222.0,1
329,329,0.2793996485157574,0.3,1.0,1.0,326.0,802.0,1.0,1,272.0,1
330,330,0.31248780005393784,0.3,0.0,0.0,374.0,839.0,0.0,1,657.0,1
331,331,0.15072388555173089,0.2,0.0,0.0,351.0,747.0,0.0,1,442.0,1
332,332,0.31146460194220527,0.3,1.0,1.0,423.0,638.0,1.0,1,379.0,1
333,333,-0.5107271433401779,-0.5,0.0,1.0,398.0,920.0,1.0,0,162.0,1
334,334,-0.07120331401024649,-0.1,1.0,0.0,462.0,717.0,0.0,0,661.0,1
335,335,0.7658519854390048,0.8,0.0,0.0,324.0,608.0,0.0,1,488.0,1
336,336,-0.7965944600649388,-0.8,1.0,0.0,430.0,647.0,0.0,0,413.0,1
337,337,0.4269031136303568,0.4,0.0,0.0,394.0,630.0,0.0,1,356.0,1
338,338,0.3535403900409996,0.4,1.0,1.0,297.0,520.0,1.0,1,313.0,1
339,339,-0.7451359636478949,-0.7,0.0,1.0,342.0,743.0,1.0,0,305.0,1
340,340,0.7174859423992611,0.7,0.0,0.0,396.0,678.0,0.0,1,296.0,1
341,341,0.8743035847873607,0.9,1.0,1.0,350.0,814.0,1.0,1,296.0,1
342,342,0.5692106624020988,0.6,0.0,0.0,407.0,829.0,0.0,1,164.0,1
343,343,-0.5949626275710749,-0.6,0.0,1.0,332.0,612.0,1.0,0,876.0,1
344,344,-0.7347614747512892,-0.7,0.0,1.0,311.0,682.0,1.0,0,287.0,1
345,345,0.43964935185402376,0.4,1.0,1.0,434.0,965.0,1.0,1,341.0,1
346,346,-0.7618438955748856,-0.8,1.0,0.0,468.0,752.0,0.0,0,160.0,1
347,347,-0.41263550449021225,-0.4,1.0,0.0,405.0,711.0,0.0,0,274.0,1
348,348,0.2255117279308282,0.2,1.0,1.0,302.0,854.0,1.0,1,164.0,1
349,349,-0.03513550636333118,-0.0,0.0,1.0,364.0,829.0,0.0,1,327.0,0
350,350,0.26661798264956926,0.3,1.0,1.0,475.0,505.0,1.0,1,510.0,1
351,351,0.15130472400569894,0.2,0.0,0.0,499.0,974.0,0.0,1,287.0,1
352,352,-0.2770311683163025,-0.3,0.0,1.0,425.0,796.0,1.0,0,489.0,1
353,353,-0.8315450930718002,-0.8,0.0,1.0,466.0,928.0,1.0,0,616.0,1
354,354,-0.48875191250311656,-0.5,0.0,1.0,373.0,676.0,1.0,0,431.0,1
355,355,-0.15968430165801095,-0.2,0.0,1.0,261.0,869.0,1.0,0,670.0,1
356,356,-0.3343845322133704,-0.3,1.0,0.0,258.0,563.0,0.0,0,699.0,1
357,357,0.5433756850822397,0.5,0.0,0.0,352.0,709.0,0.0,1,649.0,1
358,358,-0.17407038887313697,-0.2,1.0,0.0,316.0,708.0,0.0,0,1156.0,1
359,359,-0.4634262838336964,-0.5,0.0,1.0,281.0,949.0,1.0,0,380.0,1
360,360,0.09821724232191353,0.1,1.0,1.0,424.0,742.0,1.0,1,484.0,1
361,361,-0.6404362148366105,-0.6,1.0,0.0,425.0,910.0,0.0,0,85.0,1
362,362,0.10060166990267805,0.1,0.0,0.0,384.0,672.0,1.0,0,454.0,0
363,363,0.05134095982385378,0.1,0.0,0.0,402.0,830.0,0.0,1,858.0,1
364,364,0.1497610378704367,0.1,0.0,0.0,281.0,592.0,0.0,1,607.0,1
365,365,-0.3386924950595981,-0.3,1.0,0.0,417.0,666.0,0.0,0,357.0,1
366,366,0.644346704507265,0.6,0.0,0.0,299.0,851.0,0.0,1,350.0,1
367,367,-0.46409343087577665,-0.5,1.0,0.0,372.0,669.0,0.0,0,379.0,1
368,368,0.3361535250676234,0.3,0.0,0.0,402.0,622.0,0.0,1,606.0,1
369,369,-0.5072724455820501,-0.5,0.0,1.0,390.0,924.0,1.0,0,426.0,1
370,370,0.5699711031994635,0.6,1.0,1.0,349.0,965.0,1.0,1,86.0,1
371,371,0.3883366133848781,0.4,1.0,1.0,364.0,941.0,1.0,1,185.0,1
372,372,0.5456456208211325,0.5,1.0,1.0,421.0,505.0,1.0,1,634.0,1
373,373,-0.8950441401718773,-0.9,0.0,1.0,359.0,765.0,1.0,0,256.0,1
374,374,-0.8717951432211888,-0.9,1.0,0.0,325.0,528.0,0.0,0,627.0,1
375,375,-0.8237197798311218,-0.8,0.0,1.0,317.0,604.0,1.0,0,349.0,1
376,376,-0.7071488269466661,-0.7,0.0,1.0,357.0,836.0,1.0,0,247.0,1
377,377,-0.6212006514090789,-0.6,0.0,1.0,293.0,830.0,1.0,0,107.0,1
378,378,0.7230514054019691,0.7,1.0,1.0,329.0,833.0,1.0,1,78.0,1
379,379,-0.29338413217500625,-0.3,0.0,1.0,300.0,699.0,1.0,0,601.0,1
380,380,0.504410947499227,0.5,1.0,1.0,402.0,685.0,1.0,1,263.0,1
381,381,0.21979796509923377,0.2,1.0,1.0,345.0,593.0,1.0,1,732.0,1
382,382,0.17076043045144196,0.2,0.0,0.0,343.0,623.0,0.0,1,574.0,1
383,383,0.6381763860623023,0.6,1.0,1.0,496.0,804.0,1.0,1,330.0,1
384,384,-0.8150682392657116,-0.8,0.0,1.0,465.0,807.0,1.0,0,148.0,1
385,385,-0.522585344767645,-0.5,0.0,1.0,252.0,953.0,1.0,0,105.0,1
386,386,0.19581394767064164,0.2,1.0,1.0,311.0,831.0,1.0,1,358.0,1
387,387,0.3723782851845828,0.4,0.0,0.0,342.0,681.0,0.0,1,467.0,1
388,388,-0.022165948259018187,-0.0,0.0,1.0,422.0,609.0,0.0,1,1149.0,0
389,389,-0.8941761262320489,-0.9,1.0,0.0,488.0,585.0,0.0,0,287.0,1
390,390,-0.8111039440700821,-0.8,0.0,1.0,251.0,640.0,1.0,0,429.0,1
391,391,0.3424113766191029,0.3,0.0,0.0,425.0,969.0,0.0,1,356.0,1
392,392,0.7675529838441403,0.8,0.0,0.0,422.0,808.0,0.0,1,260.0,1
393,393,0.6770569396211844,0.7,0.0,0.0,278.0,634.0,0.0,1,378.0,1
394,394,-0.8912602795602926,-0.9,0.0,1.0,483.0,959.0,1.0,0,168.0,1
395,395,-0.7666283849344415,-0.8,1.0,0.0,355.0,800.0,0.0,0,335.0,1
396,396,-0.7022182265784269,-0.7,1.0,0.0,374.0,600.0,0.0,0,126.0,1
397,397,-0.21047051023893903,-0.2,0.0,1.0,424.0,838.0,1.0,0,1088.0,1
398,398,-0.1976917937596432,-0.2,1.0,0.0,475.0,871.0,0.0,0,1384.0,1
399,399,-0.3257444298988499,-0.3,1.0,0.0,455.0,944.0,0.0,0,471.0,1
400,400,0.5645037292421472,0.6,0.0,0.0,362.0,949.0,0.0,1,319.0,1
401,401,0.5635308405013534,0.6,1.0,1.0,469.0,559.0,1.0,1,442.0,1
402,402,0.6299443983002401,0.6,1.0,1.0,324.0,703.0,1.0,1,63.0,1
403,403,0.8001233384646463,0.8,1.0,1.0,453.0,741.0,1.0,1,826.0,1
404,404,-0.26939106303460236,-0.3,1.0,0.0,271.0,727.0,0.0,0,622.0,1
405,405,-0.6749761126461733,-0.7,0.0,1.0,274.0,765.0,1.0,0,561.0,1
406,406,0.17991241476316622,0.2,0.0,0.0,400.0,678.0,0.0,1,702.0,1
407,407,0.3040601321915085,0.3,1.0,1.0,498.0,565.0,1.0,1,567.0,1
408,408,0.8420762161049654,0.8,1.0,1.0,416.0,915.0,1.0,1,169.0,1
409,409,-0.0025589029904345972,-0.0,0.0,1.0,265.0,712.0,1.0,0,1353.0,1
410,410,-0.24016165925214383,-0.2,0.0,1.0,359.0,920.0,1.0,0,191.0,1
411,411,0.5906336837677547,0.6,1.0,1.0,451.0,738.0,1.0,1,291.0,1
412,412,-0.8314199282615145,-0.8,0.0,1.0,415.0,849.0,1.0,0,256.0,1
413,413,0.6134465800664198,0.6,0.0,0.0,334.0,849.0,0.0,1,77.0,1
414,414,0.05215963845289173,0.1,1.0,1.0,334.0,653.0,1.0,1,1233.0,1
415,415,-0.40029172158169407,-0.4,1.0,0.0,318.0,841.0,0.0,0,191.0,1
416,416,-0.2803464543039833,-0.3,1.0,0.0,387.0,779.0,0.0,0,594.0,1
417,417,0.022717521763947368,0.0,0.0,0.0,349.0,601.0,1.0,0,2060.0,0
418,418,0.033503711104020506,0.0,0.0,0.0,268.0,800.0,0.0,1,992.0,1
419,419,-0.8168409963461164,-0.8,1.0,0.0,462.0,611.0,0.0,0,467.0,1
420,420,0.4527815216869412,0.5,0.0,0.0,280.0,510.0,0.0,1,1320.0,1
421,421,-0.5440569965988806,-0.5,0.0,1.0,478.0,579.0,1.0,0,393.0,1
422,422,0.39680853341160616,0.4,1.0,1.0,353.0,747.0,1.0,1,410.0,1
423,423,0.26724959152169825,0.3,0.0,0.0,381.0,848.0,0.0,1,341.0,1
424,424,0.42852849301904394,0.4,0.0,0.0,277.0,542.0,0.0,1,851.0,1
425,425,0.4865456258913051,0.5,0.0,0.0,261.0,957.0,0.0,1,532.0,1
426,426,-0.6878779035113918,-0.7,0.0,1.0,274.0,506.0,1.0,0,450.0,1
427,427,0.6699857112918589,0.7,0.0,0.0,278.0,847.0,0.0,1,365.0,1
428,428,0.8164672350989898,0.8,0.0,0.0,377.0,791.0,0.0,1,312.0,1
429,429,-0.6848979576041933,-0.7,1.0,0.0,436.0,601.0,0.0,0,423.0,1
430,430,-0.6620003876716272,-0.7,1.0,0.0,487.0,765.0,0.0,0,388.0,1
431,431,0.04906726646030912,0.0,1.0,1.0,288.0,603.0,0.0,0,1189.0,0
432,432,0.6286966993143718,0.6,1.0,1.0,268.0,992.0,1.0,1,220.0,1
433,433,0.6270609839314115,0.6,0.0,0.0,260.0,780.0,0.0,1,310.0,1
434,434,0.5933143876180903,0.6,0.0,0.0,347.0,678.0,0.0,1,215.0,1
435,435,0.805750788144087,0.8,0.0,0.0,300.0,601.0,0.0,1,369.0,1
436,436,0.7004963486758266,0.7,1.0,1.0,370.0,803.0,1.0,1,277.0,1
437,437,0.566874636731379,0.6,1.0,1.0,499.0,680.0,1.0,1,391.0,1
438,438,0.7330578726970179,0.7,0.0,0.0,485.0,539.0,0.0,1,496.0,1
439,439,0.4108147228844642,0.4,1.0,1.0,293.0,998.0,1.0,1,129.0,1
440,440,0.8299388470291128,0.8,1.0,1.0,453.0,746.0,1.0,1,111.0,1
441,441,-0.6945421373660421,-0.7,1.0,0.0,443.0,942.0,0.0,0,205.0,1
442,442,0.32934130862144506,0.3,1.0,1.0,374.0,508.0,1.0,1,648.0,1
443,443,0.16678397210171736,0.2,0.0,0.0,442.0,541.0,0.0,1,447.0,1
444,444,-0.8228738448724867,-0.8,1.0,0.0,385.0,815.0,0.0,0,150.0,1
445,445,-0.38153463538473653,-0.4,1.0,0.0,298.0,605.0,0.0,0,457.0,1
446,446,0.5203693047611376,0.5,0.0,0.0,316.0,908.0,0.0,1,76.0,1
447,447,-0.7869190038813695,-0.8,1.0,0.0,294.0,661.0,0.0,0,95.0,1
448,448,0.8921513944890328,0.9,0.0,0.0,496.0,872.0,0.0,1,272.0,1
449,449,-0.4249833426914446,-0.4,1.0,0.0,371.0,602.0,0.0,0,367.0,1
450,450,0.6734792223123781,0.7,1.0,1.0,334.0,762.0,1.0,1,214.0,1
451,451,0.016623126412960487,0.0,0.0,0.0,357.0,964.0,0.0,1,589.0,1
452,452,0.512644379346194,0.5,0.0,0.0,327.0,963.0,0.0,1,320.0,1
453,453,-0.47216640283642175,-0.5,0.0,1.0,256.0,915.0,1.0,0,209.0,1
454,454,-0.8147431268809047,-0.8,1.0,0.0,375.0,849.0,0.0,0,316.0,1
455,455,0.8042844282360532,0.8,1.0,1.0,457.0,856.0,1.0,1,227.0,1
456,456,-0.46686466860878373,-0.5,1.0,0.0,400.0,600.0,0.0,0,400.0,1
457,457,-0.11560493557981755,-0.1,1.0,0.0,356.0,576.0,1.0,1,1728.0,0
458,458,0.42911959467036775,0.4,0.0,0.0,450.0,849.0,0.0,1,1301.0,1
459,459,0.8943316805813785,0.9,1.0,1.0,451.0,790.0,1.0,1,69.0,1
460,460,-0.13936241967232565,-0.1,0.0,1.0,356.0,828.0,1.0,0,46.0,1
461,461,0.4753480539141045,0.5,0.0,0.0,406.0,557.0,0.0,1,457.0,1
462,462,0.7103048716157302,0.7,0.0,0.0,255.0,602.0,0.0,1,373.0,1
463,463,0.3460590216197271,0.3,1.0,1.0,319.0,834.0,1.0,1,207.0,1
464,464,-0.2690424235521597,-0.3,1.0,0.0,493.0,752.0,1.0,1,-45.0,0
465,465,-0.8830109910194022,-0.9,0.0,1.0,398.0,809.0,1.0,0,373.0,1
466,466,0.6477890225211914,0.6,1.0,1.0,445.0,908.0,1.0,1,337.0,1
467,467,0.7480941082611662,0.7,1.0,1.0,494.0,990.0,1.0,1,116.0,1
468,468,-0.6086128744094257,-0.6,1.0,0.0,417.0,696.0,0.0,0,207.0,1
469,469,-0.61159213722581,-0.6,0.0,1.0,340.0,512.0,1.0,0,358.0,1
470,470,0.2564387698560068,0.3,0.0,0.0,487.0,826.0,0.0,1,447.0,1
471,471,-0.19840749589081985,-0.2,1.0,0.0,477.0,751.0,0.0,0,712.0,1
472,472,0.08732933591530756,0.1,1.0,1.0,423.0,650.0,1.0,1,1037.0,1
473,473,-0.18481964574364407,-0.2,0.0,1.0,469.0,644.0,0.0,1,1067.0,0
474,474,0.11719043836438436,0.1,0.0,0.0,321.0,670.0,1.0,0,499.0,0
475,475,0.1776749823133189,0.2,0.0,0.0,338.0,664.0,1.0,0,1178.0,0
476,476,0.21186914166016446,0.2,0.0,0.0,297.0,621.0,0.0,1,262.0,1
477,477,-0.1691312220160932,-0.2,0.0,1.0,343.0,768.0,1.0,0,1779.0,1
478,478,0.7940950547657409,0.8,0.0,0.0,496.0,561.0,0.0,1,283.0,1
479,479,-0.25695470578532864,-0.3,1.0,0.0,403.0,637.0,0.0,0,380.0,1
480,480,0.3855857342085113,0.4,0.0,0.0,263.0,674.0,0.0,1,443.0,1
481,481,-0.24551701661628644,-0.2,1.0,0.0,478.0,848.0,0.0,0,614.0,1
482,482,-0.40906912971302356,-0.4,0.0,1.0,308.0,855.0,1.0,0,-3.0,1
483,483,-0.2885022411650211,-0.3,0.0,1.0,471.0,841.0,1.0,0,848.0,1
484,484,-0.22392888832895852,-0.2,0.0,1.0,334.0,554.0,1.0,0,1312.0,1
485,485,-0.690246041199782,-0.7,0.0,1.0,417.0,683.0,1.0,0,180.0,1
486,486,0.35675434086440083,0.4,1.0,1.0,385.0,604.0,0.0,0,841.0,0
487,487,0.6105650331985809,0.6,0.0,0.0,352.0,976.0,0.0,1,552.0,1
488,488,0.5730530718091246,0.6,0.0,0.0,328.0,933.0,0.0,1,299.0,1
489,489,0.17966070512075427,0.2,1.0,1.0,441.0,999.0,1.0,1,530.0,1
490,490,-0.7921767818522094,-0.8,1.0,0.0,429.0,745.0,0.0,0,426.0,1
491,491,-0.0160292691913817,-0.0,0.0,1.0,287.0,815.0,1.0,0,48.0,1
492,492,0.7406060863120264,0.7,0.0,0.0,382.0,809.0,0.0,1,259.0,1
493,493,-0.29533721325154016,-0.3,1.0,0.0,259.0,803.0,0.0,0,108.0,1
494,494,-0.5466459321767508,-0.5,0.0,1.0,421.0,647.0,1.0,0,462.0,1
495,495,-0.31890130080085544,-0.3,0.0,1.0,321.0,860.0,1.0,0,249.0,1
496,496,0.337786126449228,0.3,0.0,0.0,496.0,767.0,0.0,1,257.0,1
497,497,0.3853355359536871,0.4,0.0,0.0,349.0,762.0,0.0,1,959.0,1
498,498,-0.3975416972289503,-0.4,0.0,1.0,446.0,536.0,1.0,0,648.0,1
499,499,0.4655526237371189,0.5,0.0,0.0,407.0,908.0,0.0,1,95.0,1
500,500,0.8820524306607603,0.9,0.0,0.0,280.0,641.0,0.0,1,379.0,1
501,501,-0.230180019027158,-0.2,1.0,0.0,457.0,635.0,0.0,0,678.0,1
502,502,-0.05397206718224923,-0.1,0.0,1.0,400.0,514.0,1.0,0,796.0,1
503,503,0.7042813766929118,0.7,0.0,0.0,398.0,854.0,0.0,1,398.0,1
504,504,-0.8412080603892386,-0.8,0.0,1.0,416.0,970.0,1.0,0,64.0,1
505,505,0.5973401415524359,0.6,1.0,1.0,269.0,581.0,1.0,1,460.0,1
506,506,-0.629271826537062,-0.6,1.0,0.0,365.0,829.0,1.0,1,36.0,0
507,507,-0.7231088949851154,-0.7,0.0,1.0,398.0,698.0,1.0,0,244.0,1
508,508,-0.13122667046572667,-0.1,0.0,1.0,349.0,769.0,1.0,0,432.0,1
509,509,0.4319635493438688,0.4,0.0,0.0,378.0,511.0,0.0,1,451.0,1
510,510,-0.8664272634323043,-0.9,0.0,1.0,265.0,566.0,1.0,0,429.0,1
511,511,-0.21532626969627533,-0.2,1.0,0.0,358.0,982.0,0.0,0,1510.0,1
512,512,0.739814185087429,0.7,1.0,1.0,471.0,934.0,1.0,1,165.0,1
513,513,0.2361274612265728,0.2,0.0,0.0,454.0,906.0,0.0,1,330.0,1
514,514,-0.3171375952241793,-0.3,0.0,1.0,411.0,856.0,1.0,0,233.0,1
515,515,-0.5914662082072234,-0.6,0.0,1.0,370.0,889.0,1.0,0,131.0,1
516,516,-0.5908589670543292,-0.6,1.0,0.0,456.0,710.0,0.0,0,264.0,1
517,517,0.5020151660769617,0.5,0.0,0.0,394.0,787.0,0.0,1,219.0,1
518,518,-0.0051880506711574625,-0.0,1.0,0.0,487.0,727.0,1.0,1,176.0,0
519,519,0.5454624752909735,0.5,0.0,0.0,293.0,819.0,0.0,1,288.0,1
520,520,0.19508683705260033,0.2,0.0,0.0,455.0,607.0,0.0,1,488.0,1
521,521,0.7598391963508374,0.8,0.0,0.0,266.0,569.0,0.0,1,285.0,1
522,522,0.2328863632537549,0.2,0.0,0.0,315.0,721.0,0.0,1,304.0,1
523,523,-0.8136804562954397,-0.8,0.0,1.0,346.0,853.0,1.0,0,401.0,1
524,524,0.6691261924989408,0.7,0.0,0.0,341.0,898.0,0.0,1,441.0,1
525,525,-0.2551893940464762,-0.3,1.0,0.0,254.0,819.0,0.0,0,177.0,1
526,526,0.47882800910173107,0.5,0.0,0.0,467.0,692.0,0.0,1,661.0,1
527,527,-0.1860895316493103,-0.2,0.0,1.0,356.0,870.0,1.0,0,264.0,1
528,528,-0.5103246631809585,-0.5,0.0,1.0,320.0,511.0,1.0,0,489.0,1
529,529,0.8911167253036815,0.9,1.0,1.0,475.0,648.0,1.0,1,177.0,1
530,530,0.24120036766139175,0.2,0.0,0.0,334.0,607.0,0.0,1,629.0,1
531,531,-0.046843732862760556,-0.0,1.0,0.0,482.0,779.0,0.0,0,1809.0,1
532,532,0.3881372465938199,0.4,0.0,0.0,401.0,825.0,0.0,1,554.0,1
533,533,0.009310662158349414,0.0,0.0,0.0,276.0,784.0,0.0,1,430.0,1
534,534,0.38288212340042704,0.4,0.0,0.0,490.0,831.0,0.0,1,449.0,1
535,535,-0.13507044163896542,-0.1,0.0,1.0,491.0,934.0,1.0,0,225.0,1
536,536,-0.6568613286703766,-0.7,0.0,1.0,447.0,674.0,1.0,0,279.0,1
537,537,-0.26614117337216237,-0.3,0.0,1.0,464.0,718.0,1.0,0,378.0,1
538,538,0.36776310364631926,0.4,1.0,1.0,294.0,855.0,1.0,1,441.0,1
539,539,-0.8134413034358138,-0.8,1.0,0.0,443.0,709.0,0.0,0,328.0,1
540,540,-0.8329974773968521,-0.8,0.0,1.0,399.0,560.0,1.0,0,371.0,1
541,541,0.807784050445601,0.8,0.0,0.0,440.0,871.0,0.0,1,199.0,1
542,542,-0.39865356168207355,-0.4,0.0,1.0,317.0,798.0,1.0,0,495.0,1
543,543,-0.10382723683527817,-0.1,0.0,1.0,274.0,632.0,1.0,0,394.0,1
544,544,0.5842272832252148,0.6,0.0,0.0,303.0,502.0,0.0,1,255.0,1
545,545,0.6963917594478074,0.7,0.0,0.0,487.0,875.0,0.0,1,458.0,1
546,546,0.5439917349216,0.5,1.0,1.0,318.0,565.0,1.0,1,557.0,1
547,547,0.011936050579996804,0.0,0.0,0.0,287.0,956.0,0.0,1,1787.0,1
548,548,0.7351427092893713,0.7,0.0,0.0,339.0,713.0,0.0,1,418.0,1
549,549,-0.8370603652534583,-0.8,1.0,0.0,334.0,767.0,0.0,0,69.0,1
550,550,-0.6744134298897135,-0.7,0.0,1.0,329.0,678.0,1.0,0,403.0,1
551,551,0.656237725305855,0.7,0.0,0.0,458.0,684.0,0.0,1,378.0,1
552,552,0.32265041241162995,0.3,1.0,1.0,360.0,685.0,1.0,1,435.0,1
553,553,-0.7837407588346187,-0.8,0.0,1.0,498.0,545.0,1.0,0,297.0,1
554,554,-0.3476769617177903,-0.3,0.0,1.0,278.0,573.0,1.0,0,449.0,1
555,555,-0.8820861294355389,-0.9,0.0,1.0,273.0,564.0,1.0,0,403.0,1
556,556,-0.5499413780748539,-0.5,1.0,0.0,391.0,828.0,0.0,0,161.0,1
557,557,-0.8440590104961189,-0.8,0.0,1.0,497.0,731.0,1.0,0,192.0,1
558,558,-0.38725743020982917,-0.4,0.0,1.0,260.0,784.0,1.0,0,356.0,1
559,559,0.39497150539051373,0.4,0.0,0.0,432.0,750.0,0.0,1,358.0,1
560,560,-0.4477498394884652,-0.4,1.0,0.0,368.0,596.0,0.0,0,326.0,1
561,561,0.2636102000850594,0.3,0.0,0.0,376.0,657.0,0.0,1,337.0,1
562,562,0.07672859552737787,0.1,0.0,0.0,491.0,865.0,0.0,1,2954.0,1
563,563,0.76701150160384,0.8,0.0,0.0,431.0,670.0,0.0,1,399.0,1
564,564,-0.6583805281167745,-0.7,0.0,1.0,274.0,903.0,1.0,0,163.0,1
565,565,-0.7406938136466362,-0.7,1.0,0.0,418.0,721.0,0.0,0,201.0,1
566,566,-0.2573187163161843,-0.3,1.0,0.0,329.0,592.0,0.0,0,259.0,1
567,567,-0.8179019443983226,-0.8,1.0,0.0,456.0,508.0,0.0,0,406.0,1
568,568,-0.19250718972302783,-0.2,1.0,0.0,419.0,626.0,0.0,0,425.0,1
569,569,-0.3586722239690098,-0.4,0.0,1.0,320.0,941.0,0.0,1,19.0,0
570,570,-0.645416841862989,-0.6,1.0,0.0,307.0,817.0,0.0,0,526.0,1
571,571,-0.07339644597345862,-0.1,0.0,1.0,395.0,628.0,0.0,1,1047.0,0
572,572,0.8800565949913287,0.9,0.0,0.0,349.0,650.0,0.0,1,231.0,1
573,573,0.8725350705255833,0.9,0.0,0.0,329.0,632.0,0.0,1,349.0,1
574,574,-0.8872591206766429,-0.9,1.0,0.0,387.0,593.0,0.0,0,300.0,1
575,575,0.3506543824221383,0.4,0.0,0.0,384.0,991.0,0.0,1,405.0,1
576,576,0.8297192634519378,0.8,1.0,1.0,466.0,656.0,1.0,1,258.0,1
577,577,0.8753205164340773,0.9,0.0,0.0,432.0,801.0,0.0,1,267.0,1
578,578,-0.8091584028475731,-0.8,0.0,1.0,346.0,973.0,1.0,0,521.0,1
579,579,-0.8920721844717348,-0.9,1.0,0.0,390.0,763.0,0.0,0,237.0,1
580,580,0.7827989279295678,0.8,0.0,0.0,456.0,890.0,0.0,1,204.0,1
581,581,0.8997917076320111,0.9,1.0,1.0,300.0,556.0,1.0,1,374.0,1
582,582,-0.8468331448519305,-0.8,0.0,1.0,279.0,823.0,1.0,0,158.0,1
583,583,0.43638120098128164,0.4,0.0,0.0,412.0,763.0,0.0,1,315.0,1
584,584,-0.35921589387375874,-0.4,1.0,0.0,371.0,829.0,0.0,0,1370.0,1
585,585,-0.0913110919354102,-0.1,0.0,1.0,284.0,998.0,1.0,0,778.0,1
586,586,-0.2656043260493234,-0.3,1.0,0.0,494.0,882.0,0.0,0,1074.0,1
587,587,-0.2830277537006681,-0.3,0.0,1.0,256.0,857.0,1.0,0,317.0,1
588,588,-0.5589685979295977,-0.6,0.0,1.0,395.0,754.0,1.0,0,311.0,1
589,589,0.8594321662247234,0.9,1.0,1.0,486.0,532.0,1.0,1,492.0,1
590,590,-0.7024374495835699,-0.7,1.0,0.0,397.0,601.0,0.0,0,442.0,1
591,591,0.5052869672509935,0.5,0.0,0.0,390.0,977.0,0.0,1,243.0,1
592,592,0.8876168410947037,0.9,0.0,0.0,338.0,973.0,0.0,1,129.0,1
593,593,0.769759366530233,0.8,1.0,1.0,394.0,801.0,1.0,1,205.0,1
594,594,0.8273709520595077,0.8,0.0,0.0,305.0,552.0,0.0,1,393.0,1
595,595,0.4041645342459922,0.4,0.0,0.0,317.0,654.0,0.0,1,229.0,1
596,596,-0.4676576837673681,-0.5,0.0,1.0,419.0,890.0,1.0,0,411.0,1
597,597,-0.6443261154929377,-0.6,1.0,0.0,492.0,674.0,0.0,0,314.0,1
598,598,0.4025411672915601,0.4,0.0,0.0,311.0,721.0,0.0,1,408.0,1
599,599,-0.2872314651158261,-0.3,0.0,1.0,253.0,926.0,1.0,0,131.0,1
600,600,0.7515119103269435,0.8,1.0,1.0,364.0,856.0,1.0,1,210.0,1
601,601,0.8366932699122435,0.8,0.0,0.0,438.0,914.0,0.0,1,198.0,1
602,602,-0.5516311386360504,-0.6,0.0,1.0,447.0,804.0,1.0,0,159.0,1
603,603,-0.8602880929001622,-0.9,1.0,0.0,451.0,974.0,0.0,0,295.0,1
604,604,-0.8104850361569611,-0.8,0.0,1.0,461.0,836.0,1.0,0,33.0,1
605,605,-0.016345883344029644,-0.0,1.0,0.0,408.0,875.0,0.0,0,-63.0,1
606,606,0.307170684694713,0.3,1.0,1.0,427.0,910.0,1.0,1,1113.0,1
607,607,0.8505104718340325,0.9,0.0,0.0,491.0,718.0,0.0,1,271.0,1
608,608,0.16943617958510793,0.2,1.0,1.0,357.0,678.0,1.0,1,485.0,1
609,609,-0.2915720863480664,-0.3,1.0,0.0,340.0,963.0,0.0,0,147.0,1
610,610,-0.43166548825620227,-0.4,0.0,1.0,477.0,627.0,1.0,0,206.0,1
611,611,0.5287900235146071,0.5,1.0,1.0,306.0,656.0,1.0,1,258.0,1
612,612,0.6025341052323455,0.6,0.0,0.0,487.0,530.0,0.0,1,243.0,1
613,613,0.5030419818322812,0.5,1.0,1.0,337.0,975.0,1.0,1,-152.0,1
614,614,-0.06854930630976841,-0.1,0.0,1.0,479.0,706.0,0.0,1,955.0,0
615,615,-0.783382720690386,-0.8,1.0,0.0,360.0,972.0,0.0,0,588.0,1
616,616,-0.40503290793808927,-0.4,0.0,1.0,325.0,892.0,1.0,0,373.0,1
617,617,-0.3116698543547046,-0.3,0.0,1.0,271.0,556.0,1.0,0,383.0,1
618,618,0.816565327334498,0.8,1.0,1.0,472.0,628.0,1.0,1,210.0,1
619,619,-0.2998493257731556,-0.3,1.0,0.0,355.0,541.0,0.0,0,754.0,1
620,620,0.26491280152000807,0.3,0.0,0.0,352.0,959.0,0.0,1,369.0,1
621,621,0.8359672179898369,0.8,0.0,0.0,282.0,670.0,0.0,1,208.0,1
622,622,-0.15196742951765696,-0.2,0.0,1.0,439.0,750.0,1.0,0,1821.0,1
623,623,-0.2854404576920093,-0.3,1.0,0.0,330.0,979.0,0.0,0,31.0,1
624,624,-0.688162258894637,-0.7,1.0,0.0,388.0,880.0,0.0,0,12.0,1
625,625,-0.7052776017719578,-0.7,0.0,1.0,438.0,730.0,1.0,0,372.0,1
626,626,0.41455587304936425,0.4,1.0,1.0,280.0,662.0,1.0,1,508.0,1
627,627,0.23285693996899803,0.2,1.0,1.0,344.0,648.0,1.0,1,328.0,1
628,628,-0.6872599661572024,-0.7,1.0,0.0,433.0,799.0,0.0,0,38.0,1
629,629,-0.4297366877819803,-0.4,1.0,0.0,273.0,623.0,0.0,0,394.0,1
630,630,0.5670268505849482,0.6,0.0,0.0,339.0,726.0,0.0,1,515.0,1
631,631,0.1261801953674656,0.1,0.0,0.0,456.0,935.0,0.0,1,749.0,1
632,632,0.5691818548582824,0.6,0.0,0.0,439.0,901.0,0.0,1,280.0,1
633,633,-0.8520389943016062,-0.9,1.0,0.0,416.0,652.0,0.0,0,212.0,1
634,634,-0.5852228639475521,-0.6,0.0,1.0,336.0,859.0,1.0,0,185.0,1
635,635,-0.8643429628436898,-0.9,1.0,0.0,297.0,776.0,0.0,0,77.0,1
636,636,0.009339620446413899,0.0,1.0,1.0,321.0,892.0,1.0,1,397.0,1
637,637,0.4875663383264134,0.5,0.0,0.0,446.0,893.0,0.0,1,251.0,1
638,638,0.5692763970376061,0.6,1.0,1.0,469.0,867.0,1.0,1,464.0,1
639,639,0.16165120781969822,0.2,0.0,0.0,496.0,692.0,0.0,1,372.0,1
640,640,-0.0770673268469676,-0.1,0.0,1.0,253.0,973.0,1.0,0,94.0,1
641,641,-0.0916660263561696,-0.1,0.0,1.0,444.0,867.0,1.0,0,439.0,1
642,642,0.6715911580201702,0.7,0.0,0.0,357.0,672.0,0.0,1,351.0,1
643,643,-0.35618025138342757,-0.4,0.0,1.0,487.0,526.0,1.0,0,277.0,1
644,644,-0.8198406326552576,-0.8,1.0,0.0,288.0,834.0,0.0,0,248.0,1
645,645,0.560438785586039,0.6,0.0,0.0,358.0,871.0,0.0,1,271.0,1
646,646,-0.08953232622165175,-0.1,0.0,1.0,259.0,946.0,0.0,1,215.0,0
647,647,-0.4742491137567728,-0.5,0.0,1.0,477.0,694.0,1.0,0,539.0,1
648,648,0.015345796071440598,0.0,0.0,0.0,418.0,729.0,0.0,1,933.0,1
649,649,-0.4666684644890509,-0.5,1.0,0.0,462.0,729.0,0.0,0,309.0,1
650,650,-0.2609139717045903,-0.3,0.0,1.0,269.0,668.0,1.0,0,1463.0,1
651,651,0.8511591161873399,0.9,1.0,1.0,399.0,874.0,1.0,1,137.0,1
652,652,0.19672193627694579,0.2,0.0,0.0,343.0,584.0,0.0,1,313.0,1
653,653,0.5466265274466539,0.5,0.0,0.0,395.0,707.0,0.0,1,438.0,1
654,654,-0.4238752192652277,-0.4,1.0,0.0,277.0,842.0,0.0,0,311.0,1
655,655,-0.24930996526298732,-0.2,1.0,0.0,304.0,716.0,0.0,0,570.0,1
656,656,0.10750729765863254,0.1,0.0,0.0,292.0,740.0,0.0,1,1468.0,1
657,657,-0.7580691160443294,-0.8,0.0,1.0,495.0,880.0,1.0,0,165.0,1
658,658,0.8676664975011074,0.9,0.0,0.0,289.0,558.0,0.0,1,283.0,1
659,659,0.10138362147271562,0.1,0.0,0.0,363.0,650.0,1.0,0,447.0,0
660,660,0.003795879789042944,0.0,1.0,1.0,349.0,588.0,0.0,0,983.0,0
661,661,0.6829677599879916,0.7,0.0,0.0,499.0,652.0,0.0,1,399.0,1
662,662,0.2604737903853437,0.3,0.0,0.0,472.0,775.0,0.0,1,313.0,1
663,663,0.23056367344367523,0.2,0.0,0.0,477.0,886.0,0.0,1,377.0,1
664,664,0.5714044059056006,0.6,1.0,1.0,469.0,720.0,1.0,1,651.0,1
665,665,0.08807168747781413,0.1,1.0,1.0,334.0,890.0,1.0,1,496.0,1
666,666,0.52248637053512,0.5,1.0,1.0,289.0,796.0,1.0,1,315.0,1
667,667,0.00934896905806104,0.0,0.0,0.0,400.0,698.0,0.0,1,1292.0,1
668,668,0.3429544544867541,0.3,0.0,0.0,362.0,900.0,0.0,1,878.0,1
669,669,0.026707408634297325,0.0,0.0,0.0,305.0,589.0,1.0,0,546.0,0
670,670,-0.5600478995538138,-0.6,1.0,0.0,472.0,891.0,0.0,0,127.0,1
671,671,0.49014056769243897,0.5,0.0,0.0,290.0,900.0,0.0,1,250.0,1
672,672,-0.8737863772228177,-0.9,1.0,0.0,294.0,522.0,0.0,0,304.0,1
673,673,-0.38729158578650014,-0.4,0.0,1.0,354.0,514.0,1.0,0,582.0,1
674,674,0.2573290928573152,0.3,1.0,1.0,355.0,646.0,1.0,1,1069.0,1
675,675,0.5238091670052977,0.5,1.0,1.0,367.0,544.0,1.0,1,409.0,1
676,676,0.05925851437063023,0.1,0.0,0.0,412.0,944.0,1.0,0,2604.0,0
677,677,0.6644640739214324,0.7,0.0,0.0,381.0,880.0,0.0,1,219.0,1
678,678,0.25063464905031163,0.3,0.0,0.0,489.0,602.0,0.0,1,2279.0,1
679,679,-0.5895033946874382,-0.6,0.0,1.0,370.0,985.0,1.0,0,155.0,1
680,680,0.7936124541720361,0.8,0.0,0.0,374.0,535.0,0.0,1,321.0,1
681,681,0.3283779100163794,0.3,0.0,0.0,481.0,929.0,0.0,1,150.0,1
682,682,-0.38293078630533905,-0.4,1.0,0.0,359.0,858.0,0.0,0,293.0,1
683,683,0.6888975042974962,0.7,1.0,1.0,385.0,731.0,1.0,1,354.0,1
684,684,-0.18677047083601128,-0.2,0.0,1.0,395.0,766.0,1.0,0,149.0,1
685,685,0.19019579174534307,0.2,0.0,0.0,365.0,715.0,0.0,1,920.0,1
686,686,-0.7648121964715826,-0.8,1.0,0.0,375.0,665.0,0.0,0,370.0,1
687,687,0.7433592345658194,0.7,0.0,0.0,481.0,924.0,0.0,1,295.0,1
688,688,-0.2213016416039435,-0.2,1.0,0.0,288.0,955.0,0.0,0,467.0,1
689,689,0.5520357320035715,0.6,0.0,0.0,460.0,860.0,0.0,1,-10.0,1
690,690,0.8425322510472987,0.8,0.0,0.0,367.0,886.0,0.0,1,157.0,1
691,691,0.7340034545210757,0.7,1.0,1.0,475.0,525.0,1.0,1,450.0,1
692,692,-0.6828516070762953,-0.7,1.0,0.0,302.0,768.0,0.0,0,120.0,1
693,693,-0.2244591466270438,-0.2,1.0,0.0,299.0,891.0,0.0,0,320.0,1
694,694,-0.6358100471723637,-0.6,1.0,0.0,301.0,875.0,0.0,0,194.0,1
695,695,-0.8430282681228626,-0.8,1.0,0.0,389.0,754.0,0.0,0,197.0,1
696,696,-0.7285216729024775,-0.7,1.0,0.0,282.0,828.0,0.0,0,100.0,1
697,697,-0.8279828094184811,-0.8,1.0,0.0,283.0,687.0,0.0,0,170.0,1
698,698,-0.34454453003424224,-0.3,0.0,1.0,442.0,583.0,1.0,0,555.0,1
699,699,-0.29634049616087954,-0.3,0.0,1.0,364.0,625.0,1.0,0,571.0,1
700,700,0.1837268630203034,0.2,0.0,0.0,252.0,923.0,1.0,0,-75.0,0
701,701,0.26840025451596883,0.3,1.0,1.0,363.0,789.0,1.0,1,228.0,1
702,702,-0.28668253507588204,-0.3,1.0,0.0,485.0,801.0,0.0,0,324.0,1
703,703,-0.6161184721545048,-0.6,1.0,0.0,475.0,851.0,0.0,0,274.0,1
704,704,0.03443492452810726,0.0,0.0,0.0,402.0,752.0,0.0,1,676.0,1
705,705,0.516363747767073,0.5,1.0,1.0,358.0,953.0,1.0,1,79.0,1
706,706,-0.05718968970414917,-0.1,1.0,0.0,484.0,941.0,0.0,0,495.0,1
707,707,0.5694315123908474,0.6,0.0,0.0,341.0,884.0,0.0,1,155.0,1
708,708,-0.4846019245067962,-0.5,0.0,1.0,312.0,526.0,1.0,0,702.0,1
709,709,0.78496833380232,0.8,0.0,0.0,467.0,885.0,0.0,1,48.0,1
710,710,0.4500467921281651,0.5,0.0,0.0,384.0,959.0,0.0,1,457.0,1
711,711,0.8557080474058206,0.9,0.0,0.0,254.0,755.0,0.0,1,401.0,1
712,712,0.7736517848243268,0.8,0.0,0.0,456.0,523.0,0.0,1,471.0,1
713,713,-0.08314190334677374,-0.1,0.0,1.0,254.0,790.0,1.0,0,796.0,1
714,714,-0.02152149161182615,-0.0,1.0,0.0,351.0,578.0,1.0,1,1381.0,0
715,715,-0.5814479839952356,-0.6,1.0,0.0,393.0,835.0,0.0,0,282.0,1
716,716,0.1553668242384484,0.2,1.0,1.0,282.0,756.0,1.0,1,362.0,1
717,717,-0.5271201302263242,-0.5,0.0,1.0,365.0,725.0,1.0,0,110.0,1
718,718,0.8318453516738648,0.8,1.0,1.0,368.0,904.0,1.0,1,198.0,1
719,719,0.7511133305677694,0.8,1.0,1.0,363.0,828.0,1.0,1,129.0,1
720,720,-0.2333043706997303,-0.2,0.0,1.0,276.0,738.0,1.0,0,336.0,1
721,721,0.1813411364638774,0.2,0.0,0.0,480.0,837.0,1.0,0,2113.0,0
722,722,0.40314996472066145,0.4,0.0,0.0,252.0,896.0,0.0,1,832.0,1
723,723,0.4322650580289785,0.4,1.0,1.0,281.0,614.0,1.0,1,815.0,1
724,724,0.18801875042114757,0.2,1.0,1.0,488.0,951.0,1.0,1,471.0,1
725,725,-0.16202259269268526,-0.2,0.0,1.0,317.0,556.0,1.0,0,637.0,1
726,726,0.8761219460997579,0.9,0.0,0.0,450.0,821.0,0.0,1,319.0,1
727,727,-0.6451676416066123,-0.6,0.0,1.0,308.0,968.0,1.0,0,434.0,1
728,728,-0.6704236366731362,-0.7,0.0,1.0,380.0,781.0,1.0,0,179.0,1
729,729,0.11262101051130802,0.1,0.0,0.0,490.0,570.0,0.0,1,640.0,1
730,730,-0.8290284289710078,-0.8,1.0,0.0,421.0,646.0,0.0,0,203.0,1
731,731,0.7775753894742478,0.8,1.0,1.0,377.0,732.0,1.0,1,181.0,1
732,732,0.5907178037759481,0.6,0.0,0.0,475.0,533.0,0.0,1,572.0,1
733,733,-0.47094067128682904,-0.5,0.0,1.0,291.0,718.0,1.0,0,401.0,1
734,734,-0.04090145414363511,-0.0,0.0,1.0,379.0,912.0,1.0,0,479.0,1
735,735,0.00292927634616591,0.0,0.0,0.0,306.0,754.0,1.0,0,1450.0,0
736,736,0.5700887252679888,0.6,0.0,0.0,254.0,590.0,0.0,1,316.0,1
737,737,-0.8350969742692927,-0.8,1.0,0.0,427.0,546.0,0.0,0,707.0,1
738,738,0.6071242172075167,0.6,0.0,0.0,474.0,526.0,0.0,1,690.0,1
739,739,-0.34366766056893383,-0.3,1.0,0.0,384.0,815.0,0.0,0,101.0,1
740,740,0.15868938648165887,0.2,0.0,0.0,329.0,631.0,1.0,0,2760.0,0
741,741,-0.09304910706834468,-0.1,0.0,1.0,397.0,805.0,1.0,0,808.0,1
742,742,0.7232930630130302,0.7,0.0,0.0,397.0,764.0,0.0,1,439.0,1
743,743,0.653504981767609,0.7,1.0,1.0,359.0,966.0,1.0,1,375.0,1
744,744,0.1296359660241292,0.1,0.0,0.0,431.0,612.0,1.0,0,437.0,0
745,745,-0.3626179773224455,-0.4,0.0,1.0,392.0,722.0,1.0,0,436.0,1
746,746,0.41630716861830386,0.4,0.0,0.0,453.0,513.0,0.0,1,464.0,1
747,747,0.40991970043360293,0.4,1.0,1.0,344.0,808.0,1.0,1,238.0,1
748,748,-0.1476957942552941,-0.1,1.0,0.0,407.0,764.0,0.0,0,339.0,1
749,749,-0.5415402830733214,-0.5,1.0,0.0,273.0,943.0,0.0,0,234.0,1
750,750,-0.8431247493329275,-0.8,1.0,0.0,441.0,620.0,0.0,0,179.0,1
751,751,0.26356680633413776,0.3,0.0,0.0,495.0,712.0,0.0,1,233.0,1
752,752,-0.08462440622973133,-0.1,0.0,1.0,477.0,915.0,1.0,0,508.0,1
753,753,-0.1458095955018862,-0.1,1.0,0.0,451.0,864.0,1.0,1,-55.0,0
754,754,0.11788311387772488,0.1,0.0,0.0,497.0,811.0,0.0,1,172.0,1
755,755,0.8479839835401185,0.8,0.0,0.0,358.0,666.0,0.0,1,216.0,1
756,756,0.7841009853619704,0.8,1.0,1.0,475.0,798.0,1.0,1,107.0,1
757,757,-0.0468613236097255,-0.0,1.0,0.0,334.0,728.0,1.0,1,1248.0,0
758,758,-0.4329453657544841,-0.4,0.0,1.0,390.0,656.0,1.0,0,434.0,1
759,759,-0.7061827036103486,-0.7,1.0,0.0,411.0,990.0,0.0,0,99.0,1
760,760,-0.5565462434240362,-0.6,1.0,0.0,370.0,891.0,1.0,1,-1.0,0
761,761,0.02059747186150629,0.0,1.0,1.0,334.0,707.0,1.0,1,659.0,1
762,762,-0.46323959594888964,-0.5,0.0,1.0,401.0,559.0,1.0,0,620.0,1
763,763,-0.27892538101093056,-0.3,0.0,1.0,355.0,824.0,1.0,0,271.0,1
764,764,0.4814533596071261,0.5,0.0,0.0,401.0,721.0,0.0,1,618.0,1
765,765,0.45769768655558163,0.5,1.0,1.0,482.0,778.0,1.0,1,210.0,1
766,766,0.2988252540135038,0.3,0.0,0.0,285.0,559.0,0.0,1,276.0,1
767,767,0.346765037071595,0.3,0.0,0.0,385.0,933.0,0.0,1,102.0,1
768,768,0.5347852915451788,0.5,1.0,1.0,270.0,934.0,1.0,1,296.0,1
769,769,0.4555243604242524,0.5,1.0,1.0,440.0,899.0,1.0,1,281.0,1
770,770,-0.2077975056956456,-0.2,1.0,0.0,361.0,913.0,0.0,0,146.0,1
771,771,-0.6315800078624578,-0.6,0.0,1.0,442.0,859.0,1.0,0,339.0,1
772,772,-0.03391907005339845,-0.0,0.0,1.0,350.0,778.0,0.0,1,442.0,0
773,773,-0.03380613679251698,-0.0,0.0,1.0,400.0,524.0,1.0,0,1826.0,1
774,774,0.5823850755322971,0.6,1.0,1.0,359.0,635.0,1.0,1,436.0,1
775,775,0.08800135749604598,0.1,0.0,0.0,417.0,720.0,0.0,1,993.0,1
776,776,-0.38739448536057386,-0.4,1.0,0.0,355.0,620.0,0.0,0,375.0,1
777,777,0.7482093532163107,0.7,0.0,0.0,426.0,551.0,0.0,1,213.0,1
778,778,0.5055529136095235,0.5,1.0,1.0,379.0,849.0,1.0,1,52.0,1
779,779,-0.17590792424314516,-0.2,1.0,0.0,322.0,774.0,0.0,0,414.0,1
780,780,-0.6896318943062096,-0.7,0.0,1.0,276.0,633.0,1.0,0,311.0,1
781,781,-0.1255241633236328,-0.1,1.0,0.0,438.0,595.0,1.0,1,767.0,0
782,782,0.7962883391576289,0.8,0.0,0.0,250.0,796.0,0.0,1,204.0,1
783,783,0.5074660634814551,0.5,1.0,1.0,264.0,869.0,1.0,1,207.0,1
784,784,-0.8071156822766802,-0.8,0.0,1.0,450.0,765.0,1.0,0,125.0,1
785,785,-0.20386356569543806,-0.2,1.0,0.0,257.0,814.0,0.0,0,399.0,1
786,786,0.09875066680559264,0.1,0.0,0.0,486.0,994.0,0.0,1,340.0,1
787,787,0.017962922183924035,0.0,0.0,0.0,324.0,950.0,1.0,0,266.0,0
788,788,0.3378563324247924,0.3,0.0,0.0,436.0,842.0,0.0,1,162.0,1
789,789,-0.5746350653440551,-0.6,0.0,1.0,493.0,792.0,1.0,0,245.0,1
790,790,0.32985651050995946,0.3,1.0,1.0,490.0,659.0,1.0,1,471.0,1
791,791,0.45637715686426084,0.5,1.0,1.0,317.0,704.0,1.0,1,479.0,1
792,792,0.41895094671685384,0.4,1.0,1.0,397.0,723.0,1.0,1,670.0,1
793,793,-0.8300914242803691,-0.8,0.0,1.0,264.0,884.0,1.0,0,332.0,1
794,794,0.3616645825411654,0.4,0.0,0.0,289.0,532.0,0.0,1,429.0,1
795,795,0.5637796904973053,0.6,0.0,0.0,266.0,790.0,0.0,1,254.0,1
796,796,0.6447643069970305,0.6,1.0,1.0,315.0,721.0,1.0,1,414.0,1
797,797,-0.10153179024959724,-0.1,1.0,0.0,485.0,528.0,0.0,0,907.0,1
798,798,-0.4989434996756394,-0.5,1.0,0.0,322.0,946.0,0.0,0,102.0,1
799,799,0.10132864740810799,0.1,0.0,0.0,389.0,949.0,0.0,1,122.0,1
800,800,0.5722099319186323,0.6,0.0,0.0,371.0,978.0,0.0,1,271.0,1
801,801,-0.2843897058962982,-0.3,0.0,1.0,422.0,884.0,1.0,0,54.0,1
802,802,0.8921135876801222,0.9,0.0,0.0,315.0,556.0,0.0,1,439.0,1
803,803,0.778216048225637,0.8,1.0,1.0,271.0,649.0,1.0,1,510.0,1
804,804,-0.608031468466109,-0.6,0.0,1.0,296.0,580.0,1.0,0,434.0,1
805,805,0.2883449366494012,0.3,1.0,1.0,427.0,830.0,1.0,1,633.0,1
806,806,-0.39220055880101445,-0.4,0.0,1.0,471.0,663.0,1.0,0,746.0,1
807,807,-0.10761047018164338,-0.1,1.0,0.0,478.0,653.0,1.0,1,679.0,0
808,808,-0.556780999176599,-0.6,0.0,1.0,344.0,542.0,1.0,0,264.0,1
809,809,-0.5179231830607893,-0.5,0.0,1.0,306.0,688.0,1.0,0,426.0,1
810,810,0.7136097932573217,0.7,0.0,0.0,381.0,898.0,0.0,1,231.0,1
811,811,-0.8351691846555842,-0.8,1.0,0.0,478.0,959.0,0.0,0,153.0,1
812,812,-0.8458111398233367,-0.8,1.0,0.0,359.0,748.0,0.0,0,163.0,1
813,813,0.13213401466418262,0.1,0.0,0.0,454.0,900.0,0.0,1,66.0,1
814,814,-0.37927485321884225,-0.4,0.0,1.0,327.0,823.0,1.0,0,360.0,1
815,815,-0.4136905227113937,-0.4,1.0,0.0,483.0,869.0,0.0,0,328.0,1
816,816,0.5199667040484223,0.5,1.0,1.0,314.0,653.0,1.0,1,403.0,1
817,817,0.7019765566381121,0.7,1.0,1.0,359.0,877.0,1.0,1,344.0,1
818,818,0.5216519717931759,0.5,0.0,0.0,304.0,998.0,0.0,1,348.0,1
819,819,-0.6558820887264125,-0.7,1.0,0.0,416.0,603.0,0.0,0,501.0,1
820,820,-0.171049286239772,-0.2,1.0,0.0,456.0,541.0,0.0,0,803.0,1
821,821,0.4352205106800259,0.4,1.0,1.0,407.0,963.0,1.0,1,220.0,1
822,822,-0.22060696782937783,-0.2,0.0,1.0,356.0,651.0,0.0,1,313.0,0
823,823,-0.06062703699404837,-0.1,1.0,0.0,280.0,889.0,0.0,0,311.0,1
824,824,-0.4324409813758291,-0.4,0.0,1.0,405.0,819.0,1.0,0,176.0,1
825,825,-0.35568551869330434,-0.4,0.0,1.0,287.0,726.0,1.0,0,1187.0,1
826,826,-0.29195207339868334,-0.3,0.0,1.0,422.0,680.0,1.0,0,608.0,1
827,827,0.27745651724825005,0.3,0.0,0.0,438.0,741.0,0.0,1,341.0,1
828,828,-0.5204067284422542,-0.5,0.0,1.0,347.0,518.0,1.0,0,635.0,1
829,829,0.027814868076133092,0.0,1.0,1.0,432.0,842.0,1.0,1,196.0,1
830,830,-0.0456798426817131,-0.0,1.0,0.0,331.0,992.0,0.0,0,847.0,1
831,831,-0.2104504645066555,-0.2,0.0,1.0,383.0,704.0,1.0,0,1863.0,1
832,832,-0.02866841925650232,-0.0,1.0,0.0,486.0,872.0,1.0,1,962.0,0
833,833,0.7380868039340941,0.7,1.0,1.0,338.0,912.0,1.0,1,70.0,1
834,834,-0.6280270982167948,-0.6,1.0,0.0,418.0,688.0,0.0,0,254.0,1
835,835,0.6118649008775116,0.6,0.0,0.0,430.0,556.0,0.0,1,344.0,1
836,836,0.5792039049716272,0.6,1.0,1.0,299.0,612.0,1.0,1,329.0,1
837,837,-0.3022739892543389,-0.3,0.0,1.0,379.0,592.0,1.0,0,489.0,1
838,838,-0.2573291751155746,-0.3,0.0,1.0,443.0,656.0,1.0,0,661.0,1
839,839,0.23475364236594476,0.2,0.0,0.0,385.0,864.0,0.0,1,191.0,1
840,840,-0.07992687831019218,-0.1,0.0,1.0,422.0,501.0,0.0,1,717.0,0
841,841,0.8090139640492303,0.8,1.0,1.0,431.0,809.0,1.0,1,270.0,1
842,842,0.56805133167124,0.6,1.0,1.0,349.0,859.0,1.0,1,42.0,1
843,843,0.08260000746731555,0.1,0.0,0.0,387.0,607.0,1.0,0,736.0,0
844,844,-0.5907595540798527,-0.6,1.0,0.0,272.0,616.0,0.0,0,312.0,1
845,845,-0.3014689390794866,-0.3,1.0,0.0,309.0,572.0,0.0,0,639.0,1
846,846,-0.6755294059799957,-0.7,1.0,0.0,278.0,624.0,0.0,0,398.0,1
847,847,0.08006666924438921,0.1,0.0,0.0,338.0,888.0,0.0,1,274.0,1
848,848,0.8245822634352088,0.8,1.0,1.0,492.0,608.0,1.0,1,320.0,1
849,849,-0.7947477440063235,-0.8,0.0,1.0,256.0,914.0,1.0,0,60.0,1
850,850,-0.38883409979442507,-0.4,1.0,0.0,375.0,614.0,0.0,0,281.0,1
851,851,-0.044509722717032796,-0.0,1.0,0.0,489.0,635.0,0.0,0,176.0,1
852,852,-0.8612000242387394,-0.9,0.0,1.0,410.0,734.0,1.0,0,216.0,1
853,853,0.5803193037747191,0.6,0.0,0.0,449.0,627.0,0.0,1,344.0,1
854,854,-0.23172269089984943,-0.2,0.0,1.0,324.0,718.0,1.0,0,368.0,1
855,855,-0.08782463081072911,-0.1,0.0,1.0,437.0,898.0,1.0,0,1975.0,1
856,856,-0.16712544963938492,-0.2,0.0,1.0,417.0,913.0,1.0,0,1240.0,1
857,857,-0.39135553237405074,-0.4,1.0,0.0,353.0,869.0,0.0,0,268.0,1
858,858,0.040470249843284956,0.0,0.0,0.0,390.0,547.0,0.0,1,583.0,1
859,859,-0.11977606442040256,-0.1,1.0,0.0,466.0,722.0,0.0,0,1872.0,1
860,860,-0.7695481833683938,-0.8,1.0,0.0,358.0,607.0,0.0,0,185.0,1
861,861,-0.05115133217634804,-0.1,0.0,1.0,394.0,600.0,0.0,1,676.0,0
862,862,-0.7275703754521886,-0.7,0.0,1.0,444.0,993.0,0.0,1,-127.0,0
863,863,0.0392801447000537,0.0,1.0,1.0,277.0,596.0,0.0,0,1457.0,0
864,864,-0.6567256279205888,-0.7,1.0,0.0,406.0,916.0,0.0,0,78.0,1
865,865,0.7185706841174045,0.7,1.0,1.0,354.0,858.0,1.0,1,68.0,1
866,866,0.27484052524679814,0.3,0.0,0.0,436.0,767.0,0.0,1,377.0,1
867,867,0.01620515943809897,0.0,0.0,0.0,428.0,940.0,1.0,0,302.0,0
868,868,-0.5560067855662496,-0.6,0.0,1.0,363.0,624.0,1.0,0,563.0,1
869,869,0.7406567733493882,0.7,1.0,1.0,451.0,809.0,1.0,1,210.0,1
870,870,0.3715425370054698,0.4,0.0,0.0,323.0,928.0,0.0,1,559.0,1
871,871,0.24805786416581121,0.2,1.0,1.0,399.0,708.0,1.0,1,663.0,1
872,872,-0.23500364160616083,-0.2,1.0,0.0,378.0,952.0,0.0,0,120.0,1
873,873,-0.06159877279906045,-0.1,1.0,0.0,277.0,648.0,0.0,0,1015.0,1
874,874,-0.8001916999542292,-0.8,1.0,0.0,270.0,509.0,0.0,0,521.0,1
875,875,0.4076198794824647,0.4,0.0,0.0,408.0,923.0,0.0,1,39.0,1
876,876,0.5716135560491072,0.6,0.0,0.0,426.0,657.0,0.0,1,247.0,1
877,877,-0.34721345681526106,-0.3,0.0,1.0,336.0,663.0,1.0,0,1321.0,1
878,878,0.42361309943135483,0.4,1.0,1.0,435.0,950.0,1.0,1,75.0,1
879,879,0.6921599245559372,0.7,0.0,0.0,460.0,735.0,0.0,1,235.0,1
880,880,-0.4394853807553537,-0.4,0.0,1.0,494.0,856.0,1.0,0,340.0,1
881,881,0.8835203665480668,0.9,0.0,0.0,436.0,694.0,0.0,1,200.0,1
882,882,0.42659804784234556,0.4,1.0,1.0,343.0,931.0,1.0,1,136.0,1
883,883,0.18299400636798924,0.2,1.0,1.0,365.0,777.0,1.0,1,438.0,1
884,884,0.6187566724243528,0.6,1.0,1.0,313.0,729.0,1.0,1,228.0,1
885,885,-0.6425616965540988,-0.6,0.0,1.0,301.0,747.0,1.0,0,272.0,1
886,886,0.43479051583499617,0.4,1.0,1.0,267.0,652.0,1.0,1,401.0,1
887,887,0.8863025458185988,0.9,0.0,0.0,296.0,693.0,0.0,1,61.0,1
888,888,0.5154719695259801,0.5,0.0,0.0,472.0,797.0,0.0,1,121.0,1
889,889,-0.30641700575245967,-0.3,0.0,1.0,436.0,710.0,1.0,0,524.0,1
890,890,0.3300376354123583,0.3,1.0,1.0,274.0,634.0,1.0,1,612.0,1
891,891,-0.42430024246421644,-0.4,0.0,1.0,395.0,999.0,1.0,0,166.0,1
892,892,0.8354399297027683,0.8,1.0,1.0,323.0,692.0,1.0,1,195.0,1
893,893,-0.7243890624544215,-0.7,0.0,1.0,426.0,544.0,1.0,0,500.0,1
894,894,-0.7850429567591553,-0.8,0.0,1.0,358.0,872.0,1.0,0,240.0,1
895,895,0.36308446351886114,0.4,1.0,1.0,497.0,526.0,1.0,1,397.0,1
896,896,-0.2208573492218593,-0.2,0.0,1.0,369.0,969.0,1.0,0,522.0,1
897,897,0.4431011797468355,0.4,0.0,0.0,353.0,959.0,0.0,1,328.0,1
898,898,0.4480665457724847,0.4,0.0,0.0,427.0,712.0,0.0,1,271.0,1
899,899,0.862842810346821,0.9,0.0,0.0,258.0,919.0,0.0,1,303.0,1
900,900,-0.5700838004965704,-0.6,1.0,0.0,261.0,848.0,0.0,0,191.0,1
901,901,-0.12825011782604423,-0.1,0.0,1.0,309.0,821.0,1.0,0,1070.0,1
902,902,0.5752580732151485,0.6,0.0,0.0,273.0,531.0,0.0,1,446.0,1
903,903,-0.7816096870363638,-0.8,0.0,1.0,358.0,620.0,1.0,0,342.0,1
904,904,0.6062040417222222,0.6,0.0,0.0,428.0,751.0,0.0,1,41.0,1
905,905,-0.6884772816590331,-0.7,0.0,1.0,292.0,982.0,1.0,0,96.0,1
906,906,-0.6852976268971607,-0.7,0.0,1.0,290.0,544.0,1.0,0,396.0,1
907,907,0.003772231787163016,0.0,0.0,0.0,287.0,762.0,0.0,1,191.0,1
908,908,0.36792837604136974,0.4,1.0,1.0,454.0,938.0,1.0,1,68.0,1
909,909,-0.6009109585665708,-0.6,0.0,1.0,465.0,690.0,1.0,0,155.0,1
910,910,0.33712629941779804,0.3,1.0,1.0,457.0,754.0,1.0,1,579.0,1
911,911,0.6995233864896199,0.7,1.0,1.0,369.0,825.0,1.0,1,146.0,1
912,912,-0.21056658757693647,-0.2,1.0,0.0,374.0,725.0,0.0,0,301.0,1
913,913,0.6295737846187824,0.6,1.0,1.0,498.0,631.0,1.0,1,201.0,1
914,914,-0.04120187402686182,-0.0,0.0,1.0,479.0,780.0,1.0,0,221.0,1
915,915,-0.7023024451335637,-0.7,1.0,0.0,327.0,719.0,0.0,0,334.0,1
916,916,-0.29002140089558426,-0.3,0.0,1.0,422.0,593.0,1.0,0,395.0,1
917,917,-0.14292455640669244,-0.1,0.0,1.0,348.0,822.0,1.0,0,1130.0,1
918,918,-0.03646470236306876,-0.0,1.0,0.0,442.0,924.0,0.0,0,294.0,1
919,919,0.11481490442610964,0.1,1.0,1.0,420.0,853.0,1.0,1,367.0,1
920,920,0.43818686114106054,0.4,0.0,0.0,496.0,855.0,0.0,1,389.0,1
921,921,0.7326581245937221,0.7,0.0,0.0,493.0,976.0,0.0,1,-49.0,1
922,922,0.09069908597146004,0.1,1.0,1.0,451.0,591.0,1.0,1,718.0,1
923,923,-0.8798010683108619,-0.9,1.0,0.0,438.0,610.0,0.0,0,142.0,1
924,924,-0.7044112816107675,-0.7,1.0,0.0,496.0,606.0,0.0,0,308.0,1
925,925,-0.7023586853451977,-0.7,1.0,0.0,312.0,969.0,0.0,0,19.0,1
926,926,0.003929711618140819,0.0,0.0,0.0,367.0,585.0,0.0,1,4048.0,1
927,927,0.5478865406499968,0.5,0.0,0.0,271.0,561.0,0.0,1,308.0,1
928,928,0.1593882633955629,0.2,0.0,0.0,265.0,820.0,0.0,1,395.0,1
929,929,-0.7267170974739179,-0.7,1.0,0.0,411.0,798.0,0.0,0,81.0,1
930,930,0.8375777040795008,0.8,0.0,0.0,496.0,794.0,0.0,1,320.0,1
931,931,0.7859014690513125,0.8,0.0,0.0,369.0,600.0,0.0,1,391.0,1
932,932,0.31594029939988066,0.3,1.0,1.0,485.0,963.0,1.0,1,112.0,1
933,933,0.24007456548216577,0.2,0.0,0.0,269.0,696.0,0.0,1,245.0,1
934,934,0.4705098498162522,0.5,0.0,0.0,492.0,552.0,0.0,1,436.0,1
935,935,-0.7769040501119092,-0.8,1.0,0.0,489.0,518.0,0.0,0,463.0,1
936,936,0.6675494811355368,0.7,1.0,1.0,309.0,878.0,1.0,1,-7.0,1
937,937,0.11855694139318917,0.1,1.0,1.0,282.0,823.0,1.0,1,105.0,1
938,938,-0.016400200012542276,-0.0,1.0,0.0,340.0,908.0,1.0,1,212.0,0
939,939,0.5382957112673249,0.5,1.0,1.0,385.0,626.0,1.0,1,439.0,1
940,940,-0.239281943035907,-0.2,1.0,0.0,319.0,751.0,0.0,0,100.0,1
941,941,-0.1714788838016461,-0.2,0.0,1.0,392.0,534.0,1.0,0,704.0,1
942,942,0.1238142604553839,0.1,0.0,0.0,401.0,901.0,0.0,1,408.0,1
943,943,-0.8408271342342586,-0.8,0.0,1.0,325.0,843.0,1.0,0,222.0,1
944,944,-0.5683284016164214,-0.6,0.0,1.0,258.0,707.0,1.0,0,465.0,1
945,945,0.2855222761190134,0.3,0.0,0.0,291.0,544.0,0.0,1,545.0,1
946,946,0.376442170531777,0.4,0.0,0.0,370.0,925.0,0.0,1,535.0,1
947,947,-0.09735897417358574,-0.1,0.0,1.0,497.0,685.0,1.0,0,1248.0,1
948,948,0.6848978942371925,0.7,1.0,1.0,265.0,808.0,1.0,1,187.0,1
949,949,0.0668266350169977,0.1,1.0,1.0,324.0,666.0,1.0,1,440.0,1
950,950,-0.09665850260849596,-0.1,0.0,1.0,479.0,911.0,0.0,1,1190.0,0
951,951,0.6069326503020253,0.6,0.0,0.0,373.0,995.0,0.0,1,112.0,1
952,952,-0.05905017065882445,-0.1,1.0,0.0,437.0,800.0,0.0,0,1263.0,1
953,953,-0.5264297626687584,-0.5,0.0,1.0,325.0,905.0,1.0,0,450.0,1
954,954,-0.7759714543704481,-0.8,0.0,1.0,275.0,987.0,1.0,0,428.0,1
955,955,0.307550991271034,0.3,1.0,1.0,381.0,620.0,1.0,1,609.0,1
956,956,-0.30811608757381814,-0.3,1.0,0.0,433.0,745.0,0.0,0,752.0,1
957,957,-0.4610380011729553,-0.5,0.0,1.0,343.0,790.0,1.0,0,327.0,1
958,958,0.21463595025006066,0.2,1.0,1.0,309.0,923.0,1.0,1,308.0,1
959,959,0.6670316218105629,0.7,0.0,0.0,401.0,852.0,0.0,1,257.0,1
960,960,0.2501511174017891,0.3,0.0,0.0,286.0,676.0,0.0,1,478.0,1
961,961,-0.5540141197826502,-0.6,0.0,1.0,348.0,969.0,1.0,0,273.0,1
962,962,0.21467150734203055,0.2,1.0,1.0,324.0,606.0,1.0,1,1010.0,1
963,963,0.6470767983192413,0.6,1.0,1.0,444.0,943.0,1.0,1,183.0,1
964,964,0.799610644745346,0.8,1.0,1.0,290.0,588.0,1.0,1,282.0,1
965,965,0.7208292604823904,0.7,0.0,0.0,371.0,886.0,0.0,1,253.0,1
966,966,0.5863165089416392,0.6,0.0,0.0,447.0,510.0,0.0,1,513.0,1
967,967,0.7771937036315869,0.8,0.0,0.0,276.0,966.0,0.0,1,218.0,1
968,968,0.13654180490722945,0.1,1.0,1.0,366.0,802.0,1.0,1,232.0,1
969,969,0.0195223858142336,0.0,1.0,1.0,338.0,853.0,1.0,1,519.0,1
970,970,-0.259030614828489,-0.3,0.0,1.0,371.0,812.0,1.0,0,317.0,1
971,971,-0.12417519349887063,-0.1,0.0,1.0,480.0,858.0,1.0,0,1162.0,1
972,972,0.47984629258512845,0.5,1.0,1.0,273.0,896.0,1.0,1,371.0,1
973,973,0.7242355686592697,0.7,1.0,1.0,373.0,849.0,1.0,1,138.0,1
974,974,0.1256860567747754,0.1,0.0,0.0,362.0,657.0,0.0,1,411.0,1
975,975,0.19481534014855606,0.2,1.0,1.0,383.0,635.0,1.0,1,622.0,1
976,976,-0.6413077163638132,-0.6,0.0,1.0,302.0,979.0,1.0,0,139.0,1
977,977,-0.8641505658717996,-0.9,1.0,0.0,448.0,601.0,0.0,0,451.0,1
978,978,0.46514320121377295,0.5,0.0,0.0,252.0,785.0,0.0,1,283.0,1
979,979,-0.20523645939093127,-0.2,0.0,1.0,275.0,817.0,1.0,0,768.0,1
980,980,-0.39974067026001514,-0.4,0.0,1.0,483.0,503.0,1.0,0,1504.0,1
981,981,-0.6806750528988471,-0.7,0.0,1.0,380.0,661.0,1.0,0,489.0,1
982,982,0.6345695150874037,0.6,1.0,1.0,426.0,658.0,1.0,1,266.0,1
983,983,-0.49372381584110175,-0.5,1.0,0.0,495.0,650.0,0.0,0,265.0,1
984,984,-0.03684845161839989,-0.0,0.0,1.0,480.0,843.0,1.0,0,217.0,1
985,985,-0.2673666971845059,-0.3,1.0,0.0,277.0,706.0,0.0,0,927.0,1
986,986,-0.06065411088864536,-0.1,0.0,1.0,347.0,667.0,1.0,0,736.0,1
987,987,0.6182132605477532,0.6,1.0,1.0,371.0,606.0,1.0,1,393.0,1
988,988,-0.49435862132854985,-0.5,0.0,1.0,342.0,649.0,1.0,0,279.0,1
989,989,-0.4562254995046431,-0.5,0.0,1.0,392.0,521.0,1.0,0,687.0,1
990,990,0.02189833639016414,0.0,0.0,0.0,424.0,796.0,0.0,1,1110.0,1
991,991,0.3294949692365198,0.3,0.0,0.0,403.0,910.0,0.0,1,257.0,1
992,992,-0.05217845076270411,-0.1,1.0,0.0,342.0,630.0,0.0,0,258.0,1
993,993,-0.3207792752044202,-0.3,0.0,1.0,385.0,895.0,0.0,1,840.0,0
994,994,-0.2650564074238685,-0.3,0.0,1.0,435.0,968.0,1.0,0,147.0,1
995,995,-0.5033325942050122,-0.5,0.0,1.0,265.0,916.0,1.0,0,209.0,1
996,996,0.7195633454274687,0.7,1.0,1.0,452.0,595.0,1.0,1,343.0,1
997,997,0.06638127918199,0.1,1.0,1.0,367.0,931.0,0.0,0,72.0,0
998,998,0.51487161867818,0.5,0.0,0.0,452.0,928.0,0.0,1,460.0,1
999,999,-0.009957068967364924,-0.0,1.0,0.0,350.0,528.0,1.0,1,752.0,0
1000,1000,0.7888573180686552,0.8,1.0,1.0,423.0,761.0,1.0,1,246.0,1
1001,1001,-0.24891181051017575,-0.2,1.0,0.0,363.0,624.0,0.0,0,373.0,1
1002,1002,0.3919034627417465,0.4,1.0,1.0,419.0,986.0,1.0,1,335.0,1
1003,1003,-0.7549811493364772,-0.8,1.0,0.0,339.0,787.0,0.0,0,334.0,1
1004,1004,-0.27730613620924327,-0.3,0.0,1.0,377.0,531.0,1.0,0,752.0,1
1005,1005,-0.8221635867641746,-0.8,1.0,0.0,367.0,833.0,0.0,0,260.0,1
1006,1006,0.4220408339863412,0.4,1.0,1.0,409.0,711.0,1.0,1,320.0,1
1007,1007,0.0966573435393927,0.1,0.0,0.0,466.0,750.0,0.0,1,464.0,1
1008,1008,-0.1958775672959705,-0.2,0.0,1.0,283.0,679.0,1.0,0,798.0,1
1009,1009,-0.6435284608669118,-0.6,0.0,1.0,312.0,502.0,1.0,0,436.0,1
1010,1010,-0.35370359289288744,-0.4,1.0,0.0,280.0,595.0,0.0,0,785.0,1
1011,1011,-0.26179003549421154,-0.3,1.0,0.0,327.0,964.0,0.0,0,289.0,1
1012,1012,0.4812441784688698,0.5,0.0,0.0,376.0,931.0,0.0,1,563.0,1
1013,1013,0.7233313422734168,0.7,0.0,0.0,252.0,754.0,0.0,1,474.0,1
1014,1014,-0.2412466951711182,-0.2,0.0,1.0,309.0,501.0,1.0,0,500.0,1
1015,1015,-0.08783522007366973,-0.1,0.0,1.0,328.0,798.0,1.0,0,714.0,1
1016,1016,-0.11273058727363083,-0.1,1.0,0.0,273.0,611.0,0.0,0,576.0,1
1017,1017,0.1409366481791302,0.1,1.0,1.0,487.0,894.0,1.0,1,129.0,1
1018,1018,-0.29917306649507114,-0.3,0.0,1.0,345.0,755.0,1.0,0,380.0,1
1019,1019,0.5767846307349477,0.6,0.0,0.0,469.0,965.0,0.0,1,246.0,1
1020,1020,0.6629492191092062,0.7,1.0,1.0,373.0,808.0,1.0,1,119.0,1
1021,1021,-0.4556741780929672,-0.5,0.0,1.0,366.0,860.0,1.0,0,74.0,1
1022,1022,-0.5252757357426294,-0.5,0.0,1.0,413.0,932.0,1.0,0,195.0,1
1023,1023,-0.49845894015478953,-0.5,0.0,1.0,465.0,788.0,1.0,0,377.0,1
1024,1024,0.02219937324202259,0.0,1.0,1.0,374.0,916.0,1.0,1,230.0,1
1025,1025,0.8274503500193374,0.8,1.0,1.0,259.0,692.0,1.0,1,279.0,1
1026,1026,0.8581055838768884,0.9,0.0,0.0,303.0,878.0,0.0,1,129.0,1
1027,1027,-0.7230936023902474,-0.7,1.0,0.0,359.0,875.0,0.0,0,26.0,1
1028,1028,0.07693577126235818,0.1,0.0,0.0,448.0,767.0,0.0,1,345.0,1
1029,1029,0.8060771238682843,0.8,1.0,1.0,259.0,933.0,1.0,1,138.0,1
1030,1030,-0.5488011796606438,-0.5,0.0,1.0,368.0,878.0,1.0,0,124.0,1
1031,1031,0.540267722082027,0.5,0.0,0.0,484.0,725.0,0.0,1,261.0,1
1032,1032,-0.42801896280334395,-0.4,0.0,1.0,289.0,980.0,1.0,0,121.0,1
1033,1033,-0.19834502369968343,-0.2,1.0,0.0,288.0,506.0,0.0,0,666.0,1
1034,1034,-0.7340662484545104,-0.7,1.0,0.0,270.0,917.0,0.0,0,263.0,1
1035,1035,0.40694455267553675,0.4,1.0,1.0,495.0,989.0,1.0,1,416.0,1
1036,1036,-0.2770609168057866,-0.3,1.0,0.0,446.0,628.0,0.0,0,336.0,1
1037,1037,0.2449608003637297,0.2,0.0,0.0,260.0,675.0,0.0,1,485.0,1
1038,1038,-0.30778039895068565,-0.3,1.0,0.0,279.0,676.0,0.0,0,365.0,1
1039,1039,-0.17333930619918747,-0.2,0.0,1.0,444.0,947.0,1.0,0,499.0,1
1040,1040,-0.27465989610221697,-0.3,1.0,0.0,459.0,740.0,0.0,0,471.0,1
1041,1041,0.4780472085999533,0.5,1.0,1.0,381.0,551.0,1.0,1,518.0,1
1042,1042,0.32994841868582137,0.3,1.0,1.0,395.0,697.0,1.0,1,588.0,1
1043,1043,0.41895219097520886,0.4,1.0,1.0,430.0,572.0,1.0,1,318.0,1
1044,1044,0.44910441809215473,0.4,1.0,1.0,373.0,987.0,1.0,1,280.0,1
1045,1045,-0.8350684606770657,-0.8,0.0,1.0,388.0,992.0,1.0,0,60.0,1
1046,1046,0.2559521339490579,0.3,0.0,0.0,309.0,864.0,0.0,1,337.0,1
1047,1047,0.053277748012081405,0.1,1.0,1.0,348.0,977.0,1.0,1,1175.0,1
1048,1048,-0.5280715399500977,-0.5,0.0,1.0,472.0,614.0,1.0,0,1004.0,1
1049,1049,0.29172169525420266,0.3,1.0,1.0,308.0,666.0,1.0,1,306.0,1
1050,1050,0.7567350324692487,0.8,1.0,1.0,413.0,657.0,1.0,1,310.0,1
1051,1051,0.29177023838005034,0.3,0.0,0.0,318.0,575.0,0.0,1,517.0,1
1052,1052,0.01719005823702291,0.0,1.0,1.0,397.0,655.0,0.0,0,468.0,0
1053,1053,-0.7788734466797417,-0.8,0.0,1.0,469.0,619.0,1.0,0,562.0,1
1054,1054,0.7875424227240336,0.8,0.0,0.0,487.0,529.0,0.0,1,474.0,1
1055,1055,-0.688396742570962,-0.7,1.0,0.0,443.0,507.0,0.0,0,400.0,1
1056,1056,-0.753030019153226,-0.8,0.0,1.0,287.0,685.0,1.0,0,658.0,1
1057,1057,0.6880722046359541,0.7,0.0,0.0,313.0,531.0,0.0,1,366.0,1
1058,1058,-0.33991058351314385,-0.3,1.0,0.0,420.0,747.0,0.0,0,843.0,1
1059,1059,0.7305200648254736,0.7,0.0,0.0,397.0,554.0,0.0,1,249.0,1
1060,1060,-0.5060884142433234,-0.5,0.0,1.0,346.0,923.0,1.0,0,351.0,1
1061,1061,0.01357270640418129,0.0,0.0,0.0,405.0,608.0,1.0,0,2317.0,0
1062,1062,0.2690961697443165,0.3,1.0,1.0,348.0,724.0,1.0,1,508.0,1
1063,1063,-0.5293294615885464,-0.5,0.0,1.0,377.0,738.0,1.0,0,285.0,1
1064,1064,-0.45543267177252844,-0.5,0.0,1.0,255.0,526.0,1.0,0,809.0,1
1065,1065,-0.6894962463518048,-0.7,1.0,0.0,446.0,817.0,0.0,0,267.0,1
1066,1066,-0.4678827280488059,-0.5,1.0,0.0,315.0,726.0,0.0,0,229.0,1
1067,1067,-0.1879044238413622,-0.2,0.0,1.0,346.0,547.0,1.0,0,627.0,1
1068,1068,-0.3651578244935344,-0.4,0.0,1.0,496.0,763.0,1.0,0,371.0,1
1069,1069,-0.895105826549473,-0.9,0.0,1.0,489.0,580.0,1.0,0,251.0,1
1070,1070,-0.47288885070896297,-0.5,0.0,1.0,377.0,666.0,1.0,0,227.0,1
1071,1071,-0.26908862559894575,-0.3,0.0,1.0,423.0,919.0,1.0,0,538.0,1
1072,1072,-0.890260707955035,-0.9,0.0,1.0,251.0,820.0,1.0,0,339.0,1
1073,1073,-0.33303685936897787,-0.3,0.0,1.0,416.0,702.0,1.0,0,552.0,1
1074,1074,0.3727407912858155,0.4,0.0,0.0,436.0,624.0,0.0,1,510.0,1
1075,1075,-0.125819249594043,-0.1,0.0,1.0,468.0,920.0,1.0,0,302.0,1
1076,1076,-0.34977546073820087,-0.3,1.0,0.0,289.0,754.0,0.0,0,117.0,1
1077,1077,-0.6084674672771408,-0.6,0.0,1.0,497.0,970.0,1.0,0,413.0,1
1078,1078,-0.3696853997632198,-0.4,0.0,1.0,480.0,584.0,1.0,0,246.0,1
1079,1079,0.2257948303428018,0.2,1.0,1.0,343.0,963.0,1.0,1,714.0,1
1080,1080,0.11020141832690855,0.1,0.0,0.0,370.0,621.0,0.0,1,599.0,1
1081,1081,0.49257603383951587,0.5,1.0,1.0,497.0,642.0,1.0,1,451.0,1
1082,1082,0.17850171314241392,0.2,0.0,0.0,302.0,600.0,1.0,0,488.0,0
1083,1083,-0.7255385484901169,-0.7,1.0,0.0,440.0,624.0,0.0,0,366.0,1
1084,1084,-0.8104107475262939,-0.8,0.0,1.0,322.0,959.0,1.0,0,369.0,1
1085,1085,0.4719803499498533,0.5,0.0,0.0,485.0,509.0,0.0,1,536.0,1
1086,1086,0.5551377804374195,0.6,0.0,0.0,473.0,921.0,0.0,1,336.0,1
1087,1087,-0.8229744984596672,-0.8,1.0,0.0,412.0,640.0,0.0,0,278.0,1
1088,1088,0.6067914166662624,0.6,0.0,0.0,345.0,579.0,0.0,1,806.0,1
1089,1089,0.6887243514985929,0.7,1.0,1.0,496.0,968.0,1.0,1,286.0,1
1090,1090,0.18371705018105955,0.2,0.0,0.0,478.0,538.0,0.0,1,1544.0,1
1091,1091,-0.3832115975976049,-0.4,1.0,0.0,350.0,648.0,0.0,0,402.0,1
1092,1092,-0.11426543045399917,-0.1,0.0,1.0,483.0,864.0,1.0,0,233.0,1
1093,1093,-0.7912337518537997,-0.8,0.0,1.0,262.0,740.0,1.0,0,568.0,1
1094,1094,0.6026223057772243,0.6,1.0,1.0,377.0,879.0,1.0,1,394.0,1
1095,1095,0.7525906587077337,0.8,1.0,1.0,463.0,511.0,1.0,1,236.0,1
1096,1096,0.4556599238252482,0.5,0.0,0.0,271.0,650.0,0.0,1,279.0,1
1097,1097,-0.5924829445945674,-0.6,0.0,1.0,338.0,753.0,1.0,0,369.0,1
1098,1098,-0.028876613930644224,-0.0,0.0,1.0,492.0,707.0,1.0,0,1151.0,1
1099,1099,-0.25178847899501366,-0.3,1.0,0.0,463.0,864.0,0.0,0,403.0,1
1100,1100,0.366338607867967,0.4,0.0,0.0,262.0,662.0,0.0,1,326.0,1
1101,1101,0.6128929403228213,0.6,0.0,0.0,496.0,708.0,0.0,1,246.0,1
1102,1102,0.8308716505969284,0.8,1.0,1.0,494.0,849.0,1.0,1,127.0,1
1103,1103,-0.21113058493462444,-0.2,1.0,0.0,444.0,593.0,0.0,0,673.0,1
1104,1104,-0.8405277829423472,-0.8,0.0,1.0,470.0,633.0,1.0,0,337.0,1
1105,1105,0.6127481537098157,0.6,1.0,1.0,308.0,558.0,1.0,1,224.0,1
1106,1106,0.6694249666066473,0.7,0.0,0.0,449.0,770.0,0.0,1,241.0,1
1107,1107,-0.7673919565812151,-0.8,0.0,1.0,493.0,574.0,1.0,0,803.0,1
1108,1108,-0.2243406886580932,-0.2,0.0,1.0,491.0,632.0,1.0,0,917.0,1
1109,1109,0.08476009463151057,0.1,0.0,0.0,389.0,875.0,0.0,1,-84.0,1
1110,1110,0.8401279480956606,0.8,1.0,1.0,306.0,909.0,1.0,1,85.0,1
1111,1111,0.8375072919174656,0.8,1.0,1.0,475.0,569.0,1.0,1,336.0,1
1112,1112,-0.47999783596012063,-0.5,0.0,1.0,473.0,988.0,1.0,0,99.0,1
1113,1113,0.4586522817378006,0.5,1.0,1.0,256.0,932.0,1.0,1,142.0,1
1114,1114,0.8705678176657597,0.9,0.0,0.0,499.0,650.0,0.0,1,251.0,1
1115,1115,0.8290454118627765,0.8,0.0,0.0,316.0,990.0,0.0,1,74.0,1
1116,1116,0.31349027439145394,0.3,1.0,1.0,301.0,508.0,1.0,1,311.0,1
1117,1117,-0.8363059871977725,-0.8,1.0,0.0,284.0,947.0,0.0,0,149.0,1
1118,1118,-0.37743270041730637,-0.4,0.0,1.0,434.0,511.0,1.0,0,355.0,1
1119,1119,-0.4875330428127532,-0.5,1.0,0.0,283.0,865.0,0.0,0,222.0,1
1120,1120,-0.6908040752822221,-0.7,1.0,0.0,429.0,704.0,0.0,0,597.0,1
1121,1121,0.6513185645618383,0.7,0.0,0.0,451.0,794.0,0.0,1,45.0,1
1122,1122,-0.5579565356682514,-0.6,1.0,0.0,433.0,961.0,1.0,1,-24.0,0
1123,1123,0.4058086606073582,0.4,1.0,1.0,367.0,534.0,1.0,1,589.0,1
1124,1124,-0.24343878475974123,-0.2,1.0,0.0,388.0,684.0,0.0,0,638.0,1
1125,1125,-0.26830847913288414,-0.3,1.0,0.0,278.0,568.0,0.0,0,234.0,1
1126,1126,0.3314429129251871,0.3,1.0,1.0,471.0,562.0,1.0,1,727.0,1
1127,1127,-0.5094480461133126,-0.5,0.0,1.0,480.0,803.0,1.0,0,447.0,1
1128,1128,-0.3836042548588865,-0.4,0.0,1.0,318.0,872.0,1.0,0,360.0,1
1129,1129,-0.5781611860606597,-0.6,1.0,0.0,362.0,876.0,0.0,0,222.0,1
1130,1130,-0.06528772108265601,-0.1,0.0,1.0,373.0,592.0,0.0,1,425.0,0
1131,1131,-0.26619545662496014,-0.3,1.0,0.0,480.0,745.0,0.0,0,245.0,1
1132,1132,-0.2498818447724399,-0.2,0.0,1.0,488.0,769.0,1.0,0,403.0,1
1133,1133,-0.19565366941227036,-0.2,0.0,1.0,488.0,634.0,1.0,0,598.0,1
1134,1134,0.2729541402629333,0.3,0.0,0.0,258.0,564.0,0.0,1,618.0,1
1135,1135,-0.5964229006820607,-0.6,1.0,0.0,404.0,639.0,0.0,0,167.0,1
1136,1136,0.25697184320229616,0.3,0.0,0.0,283.0,727.0,0.0,1,1660.0,1
1137,1137,-0.3713876229252695,-0.4,1.0,0.0,370.0,505.0,0.0,0,605.0,1
1138,1138,0.43037775763674124,0.4,0.0,0.0,473.0,538.0,0.0,1,629.0,1
1139,1139,0.3879309555723677,0.4,0.0,0.0,436.0,650.0,0.0,1,724.0,1
1140,1140,0.5293328138394869,0.5,1.0,1.0,367.0,740.0,1.0,1,253.0,1
1141,1141,-0.6409282569613624,-0.6,1.0,0.0,295.0,574.0,0.0,0,541.0,1
1142,1142,-0.22141801608680856,-0.2,0.0,1.0,275.0,554.0,1.0,0,651.0,1
1143,1143,0.41235198848385124,0.4,1.0,1.0,335.0,576.0,1.0,1,429.0,1
1144,1144,0.43384954033680445,0.4,1.0,1.0,345.0,931.0,1.0,1,274.0,1
1145,1145,-0.11265611007128606,-0.1,0.0,1.0,294.0,604.0,1.0,0,892.0,1
1146,1146,0.09764938797549294,0.1,1.0,1.0,371.0,690.0,1.0,1,179.0,1
1147,1147,-0.7730406868704417,-0.8,0.0,1.0,398.0,788.0,1.0,0,164.0,1
1148,1148,0.8123533085842548,0.8,0.0,0.0,464.0,514.0,0.0,1,272.0,1
1149,1149,-0.12073682084984194,-0.1,1.0,0.0,431.0,916.0,0.0,0,553.0,1
1150,1150,0.10666696791448482,0.1,0.0,0.0,300.0,523.0,0.0,1,487.0,1
1151,1151,0.44030921943349866,0.4,0.0,0.0,484.0,991.0,0.0,1,145.0,1
1152,1152,0.1079749491502896,0.1,1.0,1.0,499.0,518.0,1.0,1,913.0,1
1153,1153,0.11969601581985112,0.1,0.0,0.0,491.0,681.0,0.0,1,988.0,1
1154,1154,-0.5097109690505617,-0.5,1.0,0.0,337.0,796.0,0.0,0,77.0,1
1155,1155,0.6741988904179604,0.7,0.0,0.0,424.0,597.0,0.0,1,339.0,1
1156,1156,-0.01414103215002338,-0.0,0.0,1.0,313.0,935.0,1.0,0,1012.0,1
1157,1157,0.7212318867902859,0.7,0.0,0.0,427.0,955.0,0.0,1,248.0,1
1158,1158,-0.32435186722559073,-0.3,1.0,0.0,385.0,967.0,0.0,0,248.0,1
1159,1159,-0.6072999490523674,-0.6,0.0,1.0,460.0,579.0,1.0,0,301.0,1
1160,1160,0.11810428534991957,0.1,0.0,0.0,325.0,798.0,0.0,1,1077.0,1
1161,1161,0.2361060330999697,0.2,0.0,0.0,434.0,966.0,1.0,0,-70.0,0
1162,1162,0.5306781325114304,0.5,0.0,0.0,480.0,831.0,0.0,1,519.0,1
1163,1163,-0.26804265624276113,-0.3,0.0,1.0,468.0,570.0,1.0,0,572.0,1
1164,1164,-0.16093457666930144,-0.2,1.0,0.0,275.0,655.0,0.0,0,2200.0,1
1165,1165,0.7985585079492016,0.8,0.0,0.0,365.0,998.0,0.0,1,227.0,1
1166,1166,-0.60611275741308,-0.6,0.0,1.0,369.0,656.0,1.0,0,345.0,1
1167,1167,0.0493143491297664,0.0,0.0,0.0,379.0,872.0,0.0,1,209.0,1
1168,1168,-0.8537905489503554,-0.9,0.0,1.0,283.0,701.0,1.0,0,416.0,1
1169,1169,0.01809725458133371,0.0,1.0,1.0,448.0,801.0,1.0,1,1891.0,1
1170,1170,0.3194816047387087,0.3,0.0,0.0,265.0,507.0,0.0,1,598.0,1
1171,1171,0.07511810523444751,0.1,1.0,1.0,463.0,527.0,1.0,1,1430.0,1
1172,1172,0.6976114166865289,0.7,0.0,0.0,365.0,986.0,0.0,1,439.0,1
1173,1173,-0.8835559011630718,-0.9,1.0,0.0,310.0,558.0,0.0,0,542.0,1
1174,1174,-0.06708376418754503,-0.1,0.0,1.0,498.0,770.0,1.0,0,382.0,1
1175,1175,-0.5795995401433314,-0.6,1.0,0.0,474.0,801.0,0.0,0,205.0,1
1176,1176,-0.3489114254329143,-0.3,0.0,1.0,311.0,617.0,1.0,0,552.0,1
1177,1177,-0.49865198602934657,-0.5,1.0,0.0,425.0,551.0,0.0,0,504.0,1
1178,1178,-0.7167027391358716,-0.7,1.0,0.0,292.0,602.0,0.0,0,726.0,1
1179,1179,-0.5518394713318813,-0.6,1.0,0.0,386.0,951.0,0.0,0,43.0,1
1180,1180,-0.7312072468793877,-0.7,0.0,1.0,414.0,714.0,1.0,0,182.0,1
1181,1181,-0.5405995869425808,-0.5,1.0,0.0,398.0,623.0,0.0,0,599.0,1
1182,1182,0.2949352933410442,0.3,0.0,0.0,284.0,945.0,1.0,0,461.0,0
1183,1183,0.10211668243521188,0.1,1.0,1.0,409.0,650.0,0.0,0,791.0,0
1184,1184,0.33482734085248966,0.3,0.0,0.0,300.0,942.0,0.0,1,18.0,1
1185,1185,0.7377228024556769,0.7,0.0,0.0,425.0,706.0,0.0,1,589.0,1
1186,1186,-0.8020954161768387,-0.8,0.0,1.0,415.0,936.0,1.0,0,149.0,1
1187,1187,0.2680929770535375,0.3,1.0,1.0,493.0,524.0,1.0,1,513.0,1
1188,1188,-0.5512685538042985,-0.6,1.0,0.0,251.0,645.0,0.0,0,764.0,1
1189,1189,0.047235874652464704,0.0,1.0,1.0,485.0,709.0,1.0,1,366.0,1
1190,1190,0.757361887988882,0.8,0.0,0.0,332.0,981.0,0.0,1,47.0,1
1191,1191,-0.03534127414051924,-0.0,0.0,1.0,359.0,912.0,1.0,0,229.0,1
1192,1192,0.7119237848117735,0.7,0.0,0.0,307.0,585.0,0.0,1,258.0,1
1193,1193,0.5040292188487682,0.5,0.0,0.0,303.0,736.0,0.0,1,361.0,1
1194,1194,-0.20250734472716336,-0.2,1.0,0.0,445.0,517.0,0.0,0,468.0,1
1195,1195,-0.07381921928092738,-0.1,0.0,1.0,381.0,664.0,0.0,1,135.0,0
1196,1196,0.34406055539612257,0.3,1.0,1.0,329.0,511.0,1.0,1,460.0,1
1197,1197,0.2670645272212554,0.3,1.0,1.0,410.0,829.0,1.0,1,371.0,1
1198,1198,-0.06335273344249692,-0.1,1.0,0.0,430.0,764.0,1.0,1,666.0,0
1199,1199,0.5737972103387151,0.6,0.0,0.0,305.0,965.0,0.0,1,210.0,1
1200,1200,-0.7911938261698733,-0.8,0.0,1.0,473.0,716.0,1.0,0,121.0,1
1201,1201,0.32848065987400255,0.3,1.0,1.0,381.0,831.0,1.0,1,468.0,1
1202,1202,0.7854610654493966,0.8,1.0,1.0,362.0,555.0,1.0,1,263.0,1
1203,1203,0.37292086810790914,0.4,1.0,1.0,284.0,613.0,1.0,1,493.0,1
1204,1204,-0.09133315495984895,-0.1,1.0,0.0,258.0,703.0,0.0,0,649.0,1
1205,1205,-0.2917200342846533,-0.3,0.0,1.0,477.0,934.0,1.0,0,469.0,1
1206,1206,0.11784876128095412,0.1,1.0,1.0,460.0,663.0,1.0,1,377.0,1
1207,1207,0.09356157200418347,0.1,1.0,1.0,286.0,980.0,1.0,1,674.0,1
1208,1208,-0.5990998539800894,-0.6,0.0,1.0,459.0,509.0,1.0,0,492.0,1
1209,1209,0.1443910670803955,0.1,0.0,0.0,299.0,824.0,0.0,1,477.0,1
1210,1210,-0.5317590124762829,-0.5,0.0,1.0,368.0,560.0,1.0,0,572.0,1
1211,1211,-0.329936988664814,-0.3,1.0,0.0,254.0,994.0,0.0,0,442.0,1
1212,1212,-0.6960143879240974,-0.7,0.0,1.0,259.0,958.0,1.0,0,113.0,1
1213,1213,0.8859784298763859,0.9,0.0,0.0,475.0,679.0,0.0,1,136.0,1
1214,1214,-0.10633464277033977,-0.1,1.0,0.0,391.0,958.0,0.0,0,341.0,1
1215,1215,-0.834437138145774,-0.8,0.0,1.0,387.0,943.0,1.0,0,80.0,1
1216,1216,-0.05866160295413447,-0.1,0.0,1.0,328.0,735.0,1.0,0,1057.0,1
1217,1217,0.7591472064817054,0.8,0.0,0.0,388.0,823.0,0.0,1,259.0,1
1218,1218,-0.4742153492052581,-0.5,0.0,1.0,418.0,790.0,1.0,0,212.0,1
1219,1219,0.822648669360294,0.8,1.0,1.0,397.0,820.0,1.0,1,123.0,1
1220,1220,-0.4315364422462961,-0.4,1.0,0.0,287.0,871.0,0.0,0,262.0,1
1221,1221,-0.49096844341469537,-0.5,0.0,1.0,266.0,577.0,1.0,0,437.0,1
1222,1222,-0.7178011027172715,-0.7,1.0,0.0,444.0,992.0,0.0,0,-36.0,1
1223,1223,0.22187898547864615,0.2,0.0,0.0,411.0,514.0,0.0,1,745.0,1
1224,1224,0.2577935839886981,0.3,0.0,0.0,402.0,516.0,0.0,1,762.0,1
1225,1225,0.27975620005957824,0.3,1.0,1.0,272.0,594.0,0.0,0,1224.0,0
1226,1226,0.35040493824901253,0.4,0.0,0.0,385.0,527.0,0.0,1,778.0,1
1227,1227,0.24855105004036016,0.2,1.0,1.0,293.0,609.0,1.0,1,438.0,1
1228,1228,0.47696483433342196,0.5,1.0,1.0,308.0,860.0,0.0,0,-8.0,0
1229,1229,0.41411865701529893,0.4,1.0,1.0,330.0,961.0,1.0,1,389.0,1
1230,1230,0.21383895333143832,0.2,0.0,0.0,464.0,738.0,0.0,1,388.0,1
1231,1231,-0.09848482266494507,-0.1,0.0,1.0,264.0,565.0,1.0,0,931.0,1
1232,1232,0.557628463471978,0.6,0.0,0.0,395.0,570.0,0.0,1,485.0,1
1233,1233,-0.11237933095528418,-0.1,0.0,1.0,395.0,748.0,1.0,0,797.0,1
1234,1234,0.29281219368881095,0.3,1.0,1.0,445.0,543.0,1.0,1,512.0,1
1235,1235,-0.5136048064606917,-0.5,1.0,0.0,483.0,623.0,0.0,0,244.0,1
1236,1236,-0.000646060106142321,-0.0,0.0,1.0,443.0,783.0,0.0,1,194.0,0
1237,1237,0.8410395131752709,0.8,0.0,0.0,291.0,510.0,0.0,1,389.0,1
1238,1238,0.840726002344038,0.8,1.0,1.0,419.0,912.0,1.0,1,199.0,1
1239,1239,0.30992834095537647,0.3,0.0,0.0,415.0,972.0,1.0,0,-27.0,0
1240,1240,0.6147501563666754,0.6,0.0,0.0,306.0,705.0,0.0,1,409.0,1
1241,1241,0.7733020326173529,0.8,0.0,0.0,312.0,947.0,0.0,1,171.0,1
1242,1242,0.6425502614305186,0.6,1.0,1.0,258.0,804.0,1.0,1,418.0,1
1243,1243,-0.6676153546121583,-0.7,1.0,0.0,433.0,597.0,0.0,0,320.0,1
1244,1244,-0.7135189439033807,-0.7,0.0,1.0,265.0,755.0,1.0,0,260.0,1
1245,1245,0.814188889452737,0.8,0.0,0.0,460.0,651.0,0.0,1,259.0,1
1246,1246,0.7708389510704351,0.8,1.0,1.0,467.0,948.0,1.0,1,-225.0,1
1247,1247,-0.21889123374972408,-0.2,1.0,0.0,347.0,936.0,1.0,1,97.0,0
1248,1248,0.7007524560857442,0.7,0.0,0.0,441.0,759.0,0.0,1,320.0,1
1249,1249,0.6083141768948789,0.6,0.0,0.0,378.0,841.0,0.0,1,521.0,1
1250,1250,0.19424426643958703,0.2,1.0,1.0,493.0,999.0,0.0,0,-42.0,0
1251,1251,-0.3167135024758856,-0.3,0.0,1.0,397.0,684.0,1.0,0,319.0,1
1252,1252,-0.3628998156192551,-0.4,0.0,1.0,448.0,907.0,1.0,0,145.0,1
1253,1253,-0.18574239354995425,-0.2,1.0,0.0,334.0,656.0,0.0,0,230.0,1
1254,1254,-0.06598182569601696,-0.1,1.0,0.0,413.0,767.0,0.0,0,530.0,1
1255,1255,0.6466161584714615,0.6,1.0,1.0,471.0,941.0,1.0,1,408.0,1
1256,1256,-0.2287739612347789,-0.2,0.0,1.0,374.0,605.0,1.0,0,641.0,1
1257,1257,0.5818298399715699,0.6,1.0,1.0,323.0,621.0,1.0,1,406.0,1
1258,1258,-0.5802958204405234,-0.6,0.0,1.0,417.0,715.0,1.0,0,208.0,1
1259,1259,0.3206732109674625,0.3,1.0,1.0,395.0,517.0,1.0,1,628.0,1
1260,1260,-0.8083511796093351,-0.8,0.0,1.0,254.0,863.0,1.0,0,193.0,1
1261,1261,-0.4378077605369913,-0.4,1.0,0.0,334.0,606.0,0.0,0,430.0,1
1262,1262,-0.814350144136252,-0.8,1.0,0.0,424.0,753.0,0.0,0,373.0,1
1263,1263,-5.811234794517173e-05,-0.0,0.0,1.0,318.0,985.0,0.0,1,177.0,0
1264,1264,-0.8241584433923298,-0.8,1.0,0.0,347.0,816.0,0.0,0,137.0,1
1265,1265,0.8355452721111462,0.8,1.0,1.0,268.0,871.0,1.0,1,131.0,1
1266,1266,0.08244984865086957,0.1,0.0,0.0,324.0,854.0,1.0,0,1762.0,0
1267,1267,0.30748580267378756,0.3,1.0,1.0,469.0,988.0,1.0,1,763.0,1
1268,1268,-0.11300633543122729,-0.1,1.0,0.0,394.0,512.0,0.0,0,664.0,1
1269,1269,0.7745709962528363,0.8,0.0,0.0,309.0,901.0,0.0,1,130.0,1
1270,1270,-0.18897267261755946,-0.2,0.0,1.0,274.0,529.0,1.0,0,687.0,1
1271,1271,-0.3342970699712694,-0.3,1.0,0.0,474.0,960.0,0.0,0,476.0,1
1272,1272,-0.250058320634298,-0.3,0.0,1.0,498.0,532.0,1.0,0,600.0,1
1273,1273,0.002357986130076095,0.0,0.0,0.0,364.0,509.0,1.0,0,677.0,0
1274,1274,-0.7110634499392943,-0.7,0.0,1.0,488.0,646.0,1.0,0,276.0,1
1275,1275,0.3977903572863949,0.4,0.0,0.0,442.0,502.0,0.0,1,1216.0,1
1276,1276,0.10754457383918437,0.1,0.0,0.0,294.0,532.0,1.0,0,734.0,0
1277,1277,0.5896357172811878,0.6,0.0,0.0,328.0,523.0,0.0,1,489.0,1
1278,1278,-0.6453679264365668,-0.6,0.0,1.0,359.0,980.0,1.0,0,341.0,1
1279,1279,-0.5684321748907614,-0.6,1.0,0.0,334.0,590.0,0.0,0,276.0,1
1280,1280,0.7681867173050875,0.8,1.0,1.0,417.0,655.0,1.0,1,258.0,1
1281,1281,0.32829778998832515,0.3,1.0,1.0,387.0,884.0,0.0,0,249.0,0
1282,1282,-0.258219550386251,-0.3,1.0,0.0,259.0,823.0,0.0,0,538.0,1
1283,1283,-0.5674889375354901,-0.6,0.0,1.0,303.0,974.0,1.0,0,293.0,1
1284,1284,-0.8318311179625526,-0.8,1.0,0.0,321.0,692.0,0.0,0,277.0,1
1285,1285,-0.4526185909354338,-0.5,0.0,1.0,396.0,515.0,1.0,0,709.0,1
1286,1286,0.2122218452442145,0.2,0.0,0.0,456.0,891.0,0.0,1,503.0,1
1287,1287,-0.4560600788811256,-0.5,0.0,1.0,459.0,768.0,1.0,0,303.0,1
1288,1288,-0.7029448868519701,-0.7,0.0,1.0,351.0,832.0,1.0,0,147.0,1
1289,1289,-0.4646554080638914,-0.5,0.0,1.0,442.0,827.0,1.0,0,521.0,1
1290,1290,-0.5942452998238131,-0.6,1.0,0.0,397.0,540.0,0.0,0,393.0,1
1291,1291,0.6715172941032236,0.7,0.0,0.0,357.0,504.0,0.0,1,589.0,1
1292,1292,-0.8828803097027107,-0.9,0.0,1.0,274.0,841.0,1.0,0,215.0,1
1293,1293,0.7042228438983426,0.7,1.0,1.0,428.0,684.0,1.0,1,588.0,1
1294,1294,-0.5686742186992402,-0.6,1.0,0.0,348.0,662.0,0.0,0,110.0,1
1295,1295,-0.7490881261617166,-0.7,0.0,1.0,328.0,730.0,1.0,0,462.0,1
1296,1296,-0.2632065842569423,-0.3,1.0,0.0,284.0,551.0,0.0,0,255.0,1
1297,1297,-0.24770113672879612,-0.2,0.0,1.0,405.0,761.0,1.0,0,334.0,1
1298,1298,-0.425488478293402,-0.4,1.0,0.0,474.0,887.0,0.0,0,279.0,1
1299,1299,0.3786554612369094,0.4,1.0,1.0,398.0,588.0,1.0,1,474.0,1
1300,1300,0.16724486555410023,0.2,1.0,1.0,325.0,519.0,1.0,1,1196.0,1
1301,1301,0.7086040645444224,0.7,0.0,0.0,331.0,607.0,0.0,1,312.0,1
1302,1302,0.7476484108278881,0.7,0.0,0.0,435.0,544.0,0.0,1,511.0,1
1303,1303,-0.7484448700769464,-0.7,0.0,1.0,496.0,529.0,1.0,0,295.0,1
1304,1304,0.3329613988213266,0.3,1.0,1.0,265.0,906.0,1.0,1,59.0,1
1305,1305,-0.02634305572494633,-0.0,1.0,0.0,256.0,551.0,1.0,1,543.0,0
1306,1306,0.19669740441056838,0.2,1.0,1.0,355.0,932.0,0.0,0,143.0,0
1307,1307,0.10351101992057277,0.1,1.0,1.0,374.0,811.0,1.0,1,985.0,1
1308,1308,0.08595978058349762,0.1,1.0,1.0,288.0,773.0,0.0,0,539.0,0
1309,1309,-0.03570724064792774,-0.0,0.0,1.0,424.0,747.0,1.0,0,709.0,1
1310,1310,0.7492200140179951,0.7,1.0,1.0,458.0,555.0,1.0,1,417.0,1
1311,1311,-0.02586245185445346,-0.0,0.0,1.0,437.0,856.0,1.0,0,257.0,1
1312,1312,0.4038989050115568,0.4,0.0,0.0,338.0,887.0,0.0,1,495.0,1
1313,1313,0.1896458902137662,0.2,1.0,1.0,350.0,928.0,1.0,1,262.0,1
1314,1314,-0.8801965493306058,-0.9,1.0,0.0,432.0,878.0,0.0,0,130.0,1
1315,1315,-0.45959095222844876,-0.5,1.0,0.0,280.0,982.0,0.0,0,78.0,1
1316,1316,-0.7472540954575736,-0.7,1.0,0.0,465.0,842.0,0.0,0,143.0,1
1317,1317,0.44642297820415233,0.4,0.0,0.0,392.0,969.0,0.0,1,419.0,1
1318,1318,-0.26519701215730196,-0.3,1.0,0.0,479.0,932.0,0.0,0,509.0,1
1319,1319,0.8292311201313768,0.8,1.0,1.0,451.0,714.0,1.0,1,235.0,1
1320,1320,-0.05614581414765363,-0.1,0.0,1.0,296.0,732.0,1.0,0,1002.0,1
1321,1321,0.04182552960628583,0.0,0.0,0.0,260.0,530.0,1.0,0,910.0,0
1322,1322,0.01978228141259053,0.0,0.0,0.0,345.0,727.0,1.0,0,1128.0,0
1323,1323,-0.02448630519335948,-0.0,0.0,1.0,369.0,653.0,0.0,1,448.0,0
1324,1324,-0.2145055393407369,-0.2,1.0,0.0,250.0,963.0,1.0,1,117.0,0
1325,1325,0.5007461347368213,0.5,0.0,0.0,359.0,676.0,0.0,1,335.0,1
1326,1326,-0.8031704751694894,-0.8,0.0,1.0,499.0,590.0,1.0,0,201.0,1
1327,1327,0.7126986006653687,0.7,1.0,1.0,345.0,621.0,1.0,1,314.0,1
1328,1328,-0.13554644945444472,-0.1,1.0,0.0,265.0,552.0,0.0,0,403.0,1
1329,1329,0.6947862357449349,0.7,1.0,1.0,335.0,590.0,1.0,1,315.0,1
1330,1330,0.6864358739195081,0.7,1.0,1.0,255.0,882.0,0.0,0,-47.0,0
1331,1331,-0.19590106179990918,-0.2,0.0,1.0,401.0,987.0,0.0,1,-18.0,0
1332,1332,-0.37448396596898526,-0.4,0.0,1.0,358.0,778.0,1.0,0,444.0,1
1333,1333,-0.1411688401772987,-0.1,1.0,0.0,258.0,980.0,0.0,0,1772.0,1
1334,1334,0.29443614294298726,0.3,1.0,1.0,442.0,769.0,1.0,1,179.0,1
1335,1335,0.2192864685022139,0.2,1.0,1.0,480.0,933.0,1.0,1,7.0,1
1336,1336,0.5071906164976937,0.5,1.0,1.0,313.0,565.0,1.0,1,362.0,1
1337,1337,-0.8156310813524642,-0.8,0.0,1.0,346.0,535.0,1.0,0,359.0,1
1338,1338,0.5118499742753219,0.5,0.0,0.0,291.0,621.0,0.0,1,388.0,1
1339,1339,-0.13511397804311553,-0.1,0.0,1.0,323.0,644.0,0.0,1,533.0,0
1340,1340,-0.20700664734916585,-0.2,0.0,1.0,481.0,850.0,1.0,0,699.0,1
1341,1341,-0.2756512232467284,-0.3,0.0,1.0,331.0,736.0,1.0,0,843.0,1
1342,1342,0.8109734682934057,0.8,0.0,0.0,371.0,765.0,0.0,1,174.0,1
1343,1343,0.5451722077598361,0.5,1.0,1.0,355.0,791.0,1.0,1,384.0,1
1344,1344,0.8548298899556962,0.9,1.0,1.0,272.0,835.0,1.0,1,273.0,1
1345,1345,-0.08105722292960527,-0.1,0.0,1.0,375.0,716.0,1.0,0,479.0,1
1346,1346,-0.5868917963360638,-0.6,0.0,1.0,280.0,547.0,1.0,0,513.0,1
1347,1347,0.25120500196580486,0.3,0.0,0.0,399.0,755.0,0.0,1,86.0,1
1348,1348,-0.3221789325591494,-0.3,0.0,1.0,492.0,903.0,1.0,0,155.0,1
1349,1349,-0.1118399277050447,-0.1,0.0,1.0,294.0,628.0,1.0,0,2578.0,1
1350,1350,0.547951221807481,0.5,0.0,0.0,269.0,584.0,0.0,1,287.0,1
1351,1351,0.8929396418735239,0.9,0.0,0.0,438.0,969.0,0.0,1,123.0,1
1352,1352,-0.43011511305657396,-0.4,1.0,0.0,422.0,895.0,0.0,0,313.0,1
1353,1353,0.372741648212339,0.4,0.0,0.0,428.0,962.0,0.0,1,450.0,1
1354,1354,0.8412477929536596,0.8,0.0,0.0,276.0,801.0,0.0,1,93.0,1
1355,1355,-0.16414733121830982,-0.2,1.0,0.0,346.0,654.0,0.0,0,1050.0,1
1356,1356,0.892094933040355,0.9,1.0,1.0,369.0,607.0,1.0,1,214.0,1
1357,1357,0.8949139070573541,0.9,1.0,1.0,306.0,712.0,1.0,1,212.0,1
1358,1358,0.33773259460320937,0.3,1.0,1.0,299.0,676.0,1.0,1,355.0,1
1359,1359,0.817562144757528,0.8,1.0,1.0,482.0,939.0,1.0,1,229.0,1
1360,1360,-0.0858645001679702,-0.1,0.0,1.0,373.0,638.0,0.0,1,2549.0,0
1361,1361,0.03557485478712974,0.0,0.0,0.0,389.0,618.0,0.0,1,1003.0,1
1362,1362,0.8463841256147034,0.8,0.0,0.0,474.0,578.0,0.0,1,218.0,1
1363,1363,0.6008790697825591,0.6,0.0,0.0,410.0,744.0,0.0,1,196.0,1
1364,1364,0.2622155486944263,0.3,0.0,0.0,451.0,781.0,1.0,0,338.0,0
1365,1365,-0.8683612314536511,-0.9,1.0,0.0,354.0,830.0,0.0,0,126.0,1
1366,1366,0.654339108558205,0.7,1.0,1.0,395.0,713.0,1.0,1,292.0,1
1367,1367,-0.4216274899911696,-0.4,0.0,1.0,355.0,711.0,1.0,0,144.0,1
1368,1368,-0.3382106116098844,-0.3,1.0,0.0,312.0,745.0,0.0,0,623.0,1
1369,1369,-0.3060553565145313,-0.3,0.0,1.0,370.0,736.0,1.0,0,444.0,1
1370,1370,0.20759906215121393,0.2,1.0,1.0,254.0,548.0,1.0,1,588.0,1
1371,1371,-0.5482678664043894,-0.5,0.0,1.0,289.0,718.0,1.0,0,103.0,1
1372,1372,0.6529784609764934,0.7,0.0,0.0,336.0,843.0,0.0,1,171.0,1
1373,1373,0.006230284580147294,0.0,1.0,1.0,483.0,940.0,1.0,1,147.0,1
1374,1374,0.13437704819511065,0.1,0.0,0.0,413.0,730.0,1.0,0,267.0,0
1375,1375,-0.036476372288523407,-0.0,0.0,1.0,362.0,533.0,1.0,0,785.0,1
1376,1376,0.45797652733942174,0.5,1.0,1.0,400.0,540.0,1.0,1,380.0,1
1377,1377,-0.49751767271984176,-0.5,0.0,1.0,471.0,835.0,1.0,0,434.0,1
1378,1378,-0.4682988464997055,-0.5,1.0,0.0,450.0,633.0,0.0,0,747.0,1
1379,1379,-0.516329873552666,-0.5,1.0,0.0,316.0,889.0,0.0,0,75.0,1
1380,1380,0.4848910069356426,0.5,1.0,1.0,363.0,608.0,1.0,1,769.0,1
1381,1381,0.07933611546985242,0.1,0.0,0.0,445.0,706.0,0.0,1,579.0,1
1382,1382,0.8119671408552808,0.8,1.0,1.0,267.0,603.0,1.0,1,340.0,1
1383,1383,-0.0795319710868102,-0.1,1.0,0.0,345.0,890.0,0.0,0,485.0,1
1384,1384,-0.2409073818967703,-0.2,1.0,0.0,406.0,573.0,0.0,0,721.0,1
1385,1385,-0.10127869171793857,-0.1,0.0,1.0,379.0,812.0,0.0,1,459.0,0
1386,1386,-0.766117346972939,-0.8,0.0,1.0,479.0,933.0,1.0,0,78.0,1
1387,1387,0.789954517685563,0.8,0.0,0.0,327.0,804.0,0.0,1,229.0,1
1388,1388,-0.5908082013556091,-0.6,1.0,0.0,489.0,908.0,0.0,0,113.0,1
1389,1389,0.3159288547539171,0.3,1.0,1.0,320.0,664.0,0.0,0,166.0,0
1390,1390,0.680157991102258,0.7,0.0,0.0,318.0,688.0,0.0,1,474.0,1
1391,1391,0.28062652646332487,0.3,0.0,0.0,469.0,828.0,1.0,0,153.0,0
1392,1392,0.07653297877877996,0.1,1.0,1.0,439.0,679.0,0.0,0,652.0,0
1393,1393,-0.36817323302843663,-0.4,0.0,1.0,352.0,821.0,1.0,0,667.0,1
1394,1394,-0.7598344768934732,-0.8,0.0,1.0,458.0,975.0,1.0,0,247.0,1
1395,1395,0.70360671341723,0.7,0.0,0.0,347.0,690.0,0.0,1,383.0,1
1396,1396,0.0940893134110482,0.1,0.0,0.0,294.0,908.0,0.0,1,148.0,1
1397,1397,-0.35397170058852334,-0.4,0.0,1.0,399.0,535.0,1.0,0,406.0,1
1398,1398,0.6648503213532503,0.7,0.0,0.0,447.0,510.0,0.0,1,763.0,1
1399,1399,0.04669314598321306,0.0,0.0,0.0,265.0,672.0,0.0,1,773.0,1
1400,1400,0.7727051563160231,0.8,1.0,1.0,331.0,777.0,1.0,1,172.0,1
1401,1401,0.8265519638348272,0.8,1.0,1.0,281.0,989.0,0.0,0,120.0,0
1402,1402,-0.8882876806562662,-0.9,0.0,1.0,445.0,972.0,1.0,0,203.0,1
1403,1403,-0.020272384840387514,-0.0,0.0,1.0,276.0,983.0,1.0,0,51.0,1
1404,1404,0.21756932594980205,0.2,0.0,0.0,493.0,953.0,0.0,1,644.0,1
1405,1405,0.570573734443114,0.6,1.0,1.0,379.0,873.0,1.0,1,568.0,1
1406,1406,-0.06581320528902623,-0.1,0.0,1.0,492.0,529.0,1.0,0,719.0,1
1407,1407,-0.8052696501336728,-0.8,1.0,0.0,266.0,591.0,0.0,0,533.0,1
1408,1408,-0.19688414291854706,-0.2,0.0,1.0,299.0,961.0,1.0,0,140.0,1
1409,1409,-0.23123014524574126,-0.2,0.0,1.0,382.0,663.0,1.0,0,375.0,1
1410,1410,0.2650149320147531,0.3,1.0,1.0,302.0,700.0,1.0,1,598.0,1
1411,1411,0.8906606825198401,0.9,1.0,1.0,414.0,837.0,1.0,1,129.0,1
1412,1412,0.5864599461032541,0.6,1.0,1.0,451.0,619.0,1.0,1,230.0,1
1413,1413,0.886460855135545,0.9,1.0,1.0,404.0,619.0,1.0,1,337.0,1
1414,1414,-0.2180776178806113,-0.2,0.0,1.0,370.0,943.0,1.0,0,307.0,1
1415,1415,0.8806697095859942,0.9,1.0,1.0,412.0,694.0,1.0,1,84.0,1
1416,1416,0.835036130844573,0.8,1.0,1.0,372.0,572.0,1.0,1,256.0,1
1417,1417,0.673352721405328,0.7,1.0,1.0,466.0,822.0,1.0,1,142.0,1
1418,1418,-0.5049840282673164,-0.5,0.0,1.0,262.0,618.0,1.0,0,660.0,1
1419,1419,0.6886893240085487,0.7,1.0,1.0,439.0,724.0,1.0,1,177.0,1
1420,1420,-0.8201400020391593,-0.8,1.0,0.0,284.0,595.0,0.0,0,441.0,1
1421,1421,0.007022625721939901,0.0,1.0,1.0,380.0,978.0,0.0,0,392.0,0
1422,1422,0.6548337917876851,0.7,0.0,0.0,434.0,799.0,0.0,1,167.0,1
1423,1423,0.3370089476638348,0.3,1.0,1.0,456.0,519.0,1.0,1,435.0,1
1424,1424,-0.06280837767170311,-0.1,1.0,0.0,397.0,927.0,0.0,0,476.0,1
1425,1425,-0.039254555315163864,-0.0,1.0,0.0,432.0,760.0,1.0,1,218.0,0
1426,1426,0.3556552309975215,0.4,0.0,0.0,431.0,818.0,0.0,1,241.0,1
1427,1427,-0.7432656088891613,-0.7,1.0,0.0,273.0,503.0,0.0,0,264.0,1
1428,1428,-0.305394899505703,-0.3,1.0,0.0,361.0,501.0,0.0,0,918.0,1
1429,1429,-0.42404956868687904,-0.4,0.0,1.0,437.0,605.0,1.0,0,448.0,1
1430,1430,0.7712510386071315,0.8,0.0,0.0,441.0,736.0,0.0,1,143.0,1
1431,1431,-0.20438601595336092,-0.2,1.0,0.0,474.0,663.0,0.0,0,483.0,1
1432,1432,-0.6670714332800175,-0.7,0.0,1.0,385.0,957.0,1.0,0,498.0,1
1433,1433,0.18294155263880352,0.2,0.0,0.0,302.0,986.0,0.0,1,992.0,1
1434,1434,-0.7927654484805924,-0.8,1.0,0.0,250.0,827.0,0.0,0,423.0,1
1435,1435,-0.41323429289697183,-0.4,0.0,1.0,424.0,689.0,1.0,0,1327.0,1
1436,1436,-0.8780260686380512,-0.9,1.0,0.0,479.0,765.0,0.0,0,216.0,1
1437,1437,0.13656158601072732,0.1,0.0,0.0,286.0,992.0,0.0,1,32.0,1
1438,1438,0.7192818252517209,0.7,0.0,0.0,337.0,833.0,0.0,1,140.0,1
1439,1439,0.6853127182022006,0.7,0.0,0.0,481.0,703.0,0.0,1,316.0,1
1440,1440,0.6834232334921405,0.7,1.0,1.0,344.0,812.0,1.0,1,204.0,1
1441,1441,0.19900655619550378,0.2,1.0,1.0,413.0,769.0,0.0,0,138.0,0
1442,1442,-0.5847696191890752,-0.6,1.0,0.0,476.0,944.0,0.0,0,140.0,1
1443,1443,-0.02741873668191508,-0.0,1.0,0.0,342.0,839.0,1.0,1,139.0,0
1444,1444,-0.7762033742853597,-0.8,0.0,1.0,415.0,702.0,1.0,0,173.0,1
1445,1445,-0.8901199047089456,-0.9,1.0,0.0,256.0,965.0,1.0,1,-111.0,0
1446,1446,-0.07727937939889318,-0.1,0.0,1.0,433.0,636.0,1.0,0,1341.0,1
1447,1447,0.41008491100941746,0.4,1.0,1.0,433.0,758.0,1.0,1,289.0,1
1448,1448,-0.7694053297054271,-0.8,0.0,1.0,388.0,714.0,1.0,0,118.0,1
1449,1449,-0.4005169555592963,-0.4,0.0,1.0,366.0,576.0,1.0,0,588.0,1
1450,1450,0.7968536602678314,0.8,0.0,0.0,286.0,675.0,0.0,1,109.0,1
1451,1451,0.22198104852048128,0.2,1.0,1.0,498.0,814.0,1.0,1,428.0,1
1452,1452,-0.2978700884548692,-0.3,1.0,0.0,294.0,746.0,0.0,0,130.0,1
1453,1453,0.6959401205439849,0.7,1.0,1.0,411.0,974.0,1.0,1,275.0,1
1454,1454,-0.43898000097041373,-0.4,0.0,1.0,365.0,527.0,1.0,0,628.0,1
1455,1455,-0.1996434777534244,-0.2,0.0,1.0,435.0,622.0,1.0,0,343.0,1
1456,1456,-0.18489112611491376,-0.2,1.0,0.0,273.0,861.0,1.0,1,406.0,0
1457,1457,-0.6840500731331473,-0.7,1.0,0.0,294.0,893.0,0.0,0,213.0,1
1458,1458,-0.02731535372634475,-0.0,1.0,0.0,340.0,862.0,0.0,0,508.0,1
1459,1459,-0.8679685332910557,-0.9,1.0,0.0,310.0,824.0,0.0,0,266.0,1
1460,1460,0.2837512134063235,0.3,0.0,0.0,322.0,970.0,0.0,1,1388.0,1
1461,1461,-0.2770466741012151,-0.3,0.0,1.0,461.0,919.0,1.0,0,550.0,1
1462,1462,-0.46051862514436487,-0.5,0.0,1.0,337.0,598.0,1.0,0,695.0,1
1463,1463,0.3122435567451457,0.3,1.0,1.0,455.0,768.0,1.0,1,127.0,1
1464,1464,-0.7374113211029538,-0.7,1.0,0.0,297.0,612.0,0.0,0,601.0,1
1465,1465,-0.6586403850910114,-0.7,0.0,1.0,408.0,575.0,1.0,0,527.0,1
1466,1466,0.02937765361601874,0.0,1.0,1.0,389.0,936.0,1.0,1,525.0,1
1467,1467,-0.43632673172457387,-0.4,1.0,0.0,442.0,528.0,0.0,0,350.0,1
1468,1468,0.5872374052951354,0.6,0.0,0.0,387.0,706.0,0.0,1,177.0,1
1469,1469,0.8854405934130868,0.9,0.0,0.0,320.0,884.0,0.0,1,116.0,1
1470,1470,0.36852655656155553,0.4,0.0,0.0,300.0,559.0,0.0,1,701.0,1
1471,1471,0.3833892170850556,0.4,0.0,0.0,321.0,916.0,0.0,1,433.0,1
1472,1472,-0.65396465046644,-0.7,1.0,0.0,370.0,604.0,0.0,0,136.0,1
1473,1473,0.22459957899288863,0.2,1.0,1.0,285.0,962.0,1.0,1,73.0,1
1474,1474,0.5328457285599301,0.5,0.0,0.0,496.0,679.0,0.0,1,425.0,1
1475,1475,0.39976201699046976,0.4,1.0,1.0,298.0,527.0,1.0,1,355.0,1
1476,1476,0.5018179455862136,0.5,1.0,1.0,414.0,792.0,1.0,1,194.0,1
1477,1477,-0.677913303707756,-0.7,1.0,0.0,318.0,717.0,0.0,0,755.0,1
1478,1478,-0.018254125612880978,-0.0,1.0,0.0,364.0,915.0,0.0,0,171.0,1
1479,1479,-0.012963789584619856,-0.0,1.0,0.0,368.0,847.0,1.0,1,345.0,0
1480,1480,-0.6276271966766243,-0.6,0.0,1.0,479.0,507.0,1.0,0,414.0,1
1481,1481,0.5918081559511928,0.6,1.0,1.0,363.0,796.0,1.0,1,211.0,1
1482,1482,-0.13956196326863812,-0.1,1.0,0.0,340.0,704.0,0.0,0,366.0,1
1483,1483,-0.7342261201158707,-0.7,1.0,0.0,408.0,684.0,0.0,0,218.0,1
1484,1484,0.39790515788084335,0.4,0.0,0.0,347.0,771.0,0.0,1,252.0,1
1485,1485,-0.5906681050559324,-0.6,1.0,0.0,307.0,991.0,0.0,0,-48.0,1
1486,1486,0.271095604472234,0.3,0.0,0.0,436.0,958.0,0.0,1,376.0,1
1487,1487,-0.40179182198067703,-0.4,0.0,1.0,472.0,533.0,1.0,0,735.0,1
1488,1488,0.8918486404517693,0.9,0.0,0.0,353.0,618.0,0.0,1,339.0,1
1489,1489,-0.7666650353973561,-0.8,1.0,0.0,418.0,609.0,0.0,0,523.0,1
1490,1490,-0.5691570474130816,-0.6,0.0,1.0,386.0,760.0,1.0,0,254.0,1
1491,1491,0.7123447976990546,0.7,0.0,0.0,288.0,786.0,0.0,1,176.0,1
1492,1492,-0.4969708515854811,-0.5,1.0,0.0,351.0,588.0,0.0,0,481.0,1
1493,1493,0.5448971547769194,0.5,1.0,1.0,361.0,686.0,1.0,1,173.0,1
