,trial,coherence,coherence_bin,green_side,correct_side,target_onset,checker_onset,decision,green_decision,decision_time,correct_decision
0,0,-0.29142722258667486,-0.3,0.0,1.0,329.0,694.0,1.0,0,757.0,1
1,1,-0.14396941425587995,-0.1,0.0,1.0,428.0,697.0,1.0,0,555.0,1
2,2,0.6767973456716204,0.7,1.0,1.0,357.0,806.0,1.0,1,407.0,1
3,3,-0.7188914431878601,-0.7,1.0,0.0,443.0,996.0,0.0,0,91.0,1
4,4,0.23800614417392796,0.2,0.0,0.0,358.0,759.0,0.0,1,293.0,1
5,5,0.884038171418568,0.9,1.0,1.0,343.0,601.0,1.0,1,366.0,1
6,6,0.5726273326182855,0.6,1.0,1.0,289.0,720.0,1.0,1,411.0,1
7,7,0.11479940201454009,0.1,1.0,1.0,352.0,675.0,1.0,1,2083.0,1
8,8,0.3716088179251281,0.4,1.0,1.0,366.0,633.0,1.0,1,511.0,1
9,9,0.24451725881346753,0.2,0.0,0.0,319.0,556.0,0.0,1,915.0,1
10,10,-0.34914167983143707,-0.3,1.0,0.0,292.0,997.0,0.0,0,181.0,1
11,11,-0.4275178154743249,-0.4,0.0,1.0,451.0,658.0,1.0,0,421.0,1
12,12,-0.25094517133386585,-0.3,0.0,1.0,415.0,841.0,1.0,0,144.0,1
13,13,0.5038042912209767,0.5,0.0,0.0,322.0,737.0,0.0,1,331.0,1
14,14,-0.15295480394354977,-0.2,1.0,0.0,467.0,755.0,0.0,0,698.0,1
15,15,0.47968517032645586,0.5,0.0,0.0,468.0,752.0,0.0,1,280.0,1
16,16,-0.756263658263467,-0.8,0.0,1.0,346.0,607.0,1.0,0,137.0,1
17,17,0.7807781128105374,0.8,1.0,1.0,276.0,519.0,1.0,1,335.0,1
18,18,-0.879745205426244,-0.9,1.0,0.0,328.0,586.0,0.0,0,206.0,1
19,19,0.6753100405353528,0.7,0.0,0.0,299.0,998.0,0.0,1,253.0,1
20,20,0.333545397380241,0.3,1.0,1.0,281.0,600.0,1.0,1,359.0,1
21,21,0.5774634135850015,0.6,1.0,1.0,269.0,818.0,1.0,1,433.0,1
22,22,-0.6557055778398978,-0.7,0.0,1.0,317.0,734.0,1.0,0,339.0,1
23,23,0.26651973732461165,0.3,1.0,1.0,269.0,834.0,1.0,1,557.0,1
24,24,0.6096233849842271,0.6,1.0,1.0,285.0,811.0,1.0,1,524.0,1
25,25,0.7111094658333544,0.7,0.0,0.0,405.0,657.0,0.0,1,358.0,1
26,26,0.6747178501770122,0.7,1.0,1.0,418.0,536.0,1.0,1,426.0,1
27,27,0.39498465385864423,0.4,1.0,1.0,268.0,899.0,1.0,1,543.0,1
28,28,0.6723579186283054,0.7,1.0,1.0,402.0,949.0,1.0,1,269.0,1
29,29,0.6705315589605384,0.7,0.0,0.0,315.0,537.0,0.0,1,598.0,1
30,30,0.3424050053942259,0.3,0.0,0.0,353.0,967.0,0.0,1,410.0,1
31,31,-0.20450500896598456,-0.2,1.0,0.0,382.0,693.0,0.0,0,265.0,1
32,32,-0.43150593146882443,-0.4,1.0,0.0,330.0,863.0,0.0,0,257.0,1
33,33,-0.5338642837139822,-0.5,0.0,1.0,459.0,973.0,1.0,0,238.0,1
34,34,0.8576737187774534,0.9,1.0,1.0,283.0,829.0,1.0,1,248.0,1
35,35,0.706497071663628,0.7,0.0,0.0,349.0,620.0,0.0,1,521.0,1
36,36,-0.12727697484834077,-0.1,1.0,0.0,262.0,540.0,0.0,0,498.0,1
37,37,-0.5138909179819448,-0.5,1.0,0.0,442.0,664.0,0.0,0,344.0,1
38,38,0.017439940554906053,0.0,0.0,0.0,329.0,544.0,1.0,0,797.0,0
39,39,-0.06061985438498041,-0.1,0.0,1.0,472.0,719.0,1.0,0,1029.0,1
40,40,0.8633414879248734,0.9,0.0,0.0,297.0,763.0,0.0,1,700.0,1
41,41,-0.7019906445404963,-0.7,1.0,0.0,375.0,516.0,0.0,0,549.0,1
42,42,0.003953833802141871,0.0,0.0,0.0,267.0,966.0,1.0,0,537.0,0
43,43,-0.003678106979971396,-0.0,0.0,1.0,250.0,829.0,0.0,1,431.0,0
44,44,-0.15889432155397798,-0.2,1.0,0.0,438.0,971.0,0.0,0,241.0,1
45,45,0.47438249076166883,0.5,1.0,1.0,305.0,634.0,1.0,1,321.0,1
46,46,-0.09933568272456761,-0.1,0.0,1.0,478.0,571.0,1.0,0,401.0,1
47,47,0.814480807658796,0.8,1.0,1.0,269.0,842.0,1.0,1,409.0,1
48,48,0.38536066510254796,0.4,0.0,0.0,277.0,832.0,0.0,1,831.0,1
49,49,0.4842983718024977,0.5,0.0,0.0,327.0,809.0,0.0,1,424.0,1
50,50,0.6495276205879496,0.6,1.0,1.0,307.0,701.0,1.0,1,322.0,1
51,51,0.1553857668858668,0.2,0.0,0.0,335.0,714.0,0.0,1,571.0,1
52,52,0.4034662179074672,0.4,1.0,1.0,377.0,910.0,1.0,1,1103.0,1
53,53,0.02264750717796349,0.0,0.0,0.0,473.0,759.0,0.0,1,798.0,1
54,54,0.1493263410866229,0.1,0.0,0.0,369.0,872.0,0.0,1,249.0,1
55,55,-0.10670559035307603,-0.1,1.0,0.0,348.0,657.0,0.0,0,1115.0,1
56,56,0.6553331312085563,0.7,0.0,0.0,250.0,838.0,0.0,1,562.0,1
57,57,-0.03581765505974088,-0.0,1.0,0.0,378.0,897.0,0.0,0,435.0,1
58,58,0.6497083093256278,0.6,0.0,0.0,344.0,841.0,0.0,1,405.0,1
59,59,0.8385880596499894,0.8,1.0,1.0,255.0,811.0,1.0,1,184.0,1
60,60,0.27723332223105734,0.3,0.0,0.0,438.0,607.0,0.0,1,775.0,1
61,61,-0.040900832138396126,-0.0,0.0,1.0,449.0,922.0,1.0,0,1509.0,1
62,62,-0.24813175295127243,-0.2,0.0,1.0,254.0,957.0,1.0,0,969.0,1
63,63,-0.5214725728560712,-0.5,1.0,0.0,285.0,706.0,0.0,0,309.0,1
64,64,-0.5414088859188316,-0.5,1.0,0.0,436.0,510.0,0.0,0,614.0,1
65,65,-0.73728815736829,-0.7,0.0,1.0,302.0,642.0,1.0,0,216.0,1
66,66,0.4965503132313508,0.5,1.0,1.0,395.0,509.0,1.0,1,546.0,1
67,67,0.4386811805301719,0.4,1.0,1.0,442.0,561.0,1.0,1,457.0,1
68,68,-0.1974195820224378,-0.2,1.0,0.0,281.0,819.0,0.0,0,380.0,1
69,69,0.43303484952956584,0.4,0.0,0.0,448.0,786.0,0.0,1,296.0,1
70,70,0.18890631644579392,0.2,1.0,1.0,494.0,647.0,1.0,1,459.0,1
71,71,-0.18817230127431184,-0.2,1.0,0.0,463.0,866.0,0.0,0,381.0,1
72,72,-0.5773635434101272,-0.6,1.0,0.0,435.0,581.0,0.0,0,664.0,1
73,73,-0.00028805037094814523,-0.0,1.0,0.0,343.0,578.0,1.0,1,909.0,0
74,74,0.3909091552964884,0.4,0.0,0.0,275.0,766.0,0.0,1,539.0,1
75,75,0.4188128677147195,0.4,1.0,1.0,440.0,771.0,1.0,1,189.0,1
76,76,-0.06327863722304283,-0.1,1.0,0.0,463.0,625.0,1.0,1,992.0,0
77,77,-0.7164548152421454,-0.7,0.0,1.0,294.0,578.0,1.0,0,508.0,1
78,78,-0.20630953146733244,-0.2,0.0,1.0,431.0,782.0,1.0,0,1317.0,1
79,79,0.2924244239011099,0.3,0.0,0.0,487.0,777.0,0.0,1,616.0,1
80,80,0.5738627739437571,0.6,1.0,1.0,380.0,928.0,1.0,1,322.0,1
81,81,-0.38025222440334105,-0.4,0.0,1.0,279.0,692.0,1.0,0,399.0,1
82,82,0.29701420009056656,0.3,0.0,0.0,272.0,874.0,0.0,1,1474.0,1
83,83,0.28819718532554794,0.3,1.0,1.0,458.0,651.0,1.0,1,361.0,1
84,84,0.3131974952781601,0.3,0.0,0.0,345.0,806.0,0.0,1,329.0,1
85,85,0.8384614475699538,0.8,0.0,0.0,367.0,620.0,0.0,1,363.0,1
86,86,-0.4833337020896666,-0.5,1.0,0.0,340.0,623.0,1.0,1,217.0,0
87,87,0.07651346372756662,0.1,0.0,0.0,348.0,811.0,0.0,1,201.0,1
88,88,-0.7334352649234035,-0.7,0.0,1.0,461.0,553.0,1.0,0,656.0,1
89,89,0.659703422830542,0.7,1.0,1.0,284.0,777.0,1.0,1,189.0,1
90,90,0.3763120474604337,0.4,0.0,0.0,265.0,717.0,0.0,1,418.0,1
91,91,0.2158105154127944,0.2,0.0,0.0,471.0,907.0,0.0,1,322.0,1
92,92,-0.8331879690155929,-0.8,1.0,0.0,485.0,633.0,0.0,0,602.0,1
93,93,-0.6913103720395894,-0.7,1.0,0.0,476.0,934.0,0.0,0,-50.0,1
94,94,0.24214652100974854,0.2,1.0,1.0,348.0,847.0,1.0,1,195.0,1
95,95,-0.09954273599825303,-0.1,1.0,0.0,495.0,783.0,0.0,0,292.0,1
96,96,0.13828896095358656,0.1,0.0,0.0,276.0,772.0,0.0,1,1482.0,1
97,97,0.27068931361896353,0.3,0.0,0.0,461.0,530.0,0.0,1,1269.0,1
98,98,-0.8209863106125754,-0.8,1.0,0.0,496.0,732.0,0.0,0,232.0,1
99,99,-0.13203727418340083,-0.1,1.0,0.0,343.0,901.0,0.0,0,856.0,1
100,100,0.28757515934902866,0.3,0.0,0.0,293.0,581.0,0.0,1,1106.0,1
101,101,-0.10009849887091771,-0.1,0.0,1.0,295.0,650.0,1.0,0,455.0,1
102,102,-0.20125110713684125,-0.2,0.0,1.0,298.0,983.0,1.0,0,-191.0,1
103,103,-0.45418199995437053,-0.5,1.0,0.0,347.0,840.0,0.0,0,113.0,1
104,104,0.5261274652374345,0.5,1.0,1.0,361.0,522.0,1.0,1,447.0,1
105,105,-0.7962619663182151,-0.8,0.0,1.0,289.0,502.0,1.0,0,299.0,1
106,106,-0.4434265982483386,-0.4,1.0,0.0,487.0,734.0,0.0,0,679.0,1
107,107,-0.4822981157764452,-0.5,1.0,0.0,375.0,565.0,0.0,0,600.0,1
108,108,0.8127951767466458,0.8,1.0,1.0,319.0,697.0,1.0,1,354.0,1
109,109,-0.2887624668498976,-0.3,1.0,0.0,286.0,925.0,1.0,1,479.0,0
110,110,0.8656624038802126,0.9,0.0,0.0,468.0,984.0,0.0,1,228.0,1
111,111,0.7274147756037094,0.7,1.0,1.0,282.0,614.0,1.0,1,294.0,1
112,112,0.8933673951204474,0.9,1.0,1.0,285.0,749.0,1.0,1,206.0,1
113,113,-0.7664423732399129,-0.8,0.0,1.0,362.0,562.0,1.0,0,416.0,1
114,114,-0.07808572483070819,-0.1,1.0,0.0,400.0,907.0,0.0,0,243.0,1
115,115,-0.7454776432993725,-0.7,0.0,1.0,378.0,667.0,1.0,0,355.0,1
116,116,-0.392009442700325,-0.4,1.0,0.0,286.0,682.0,0.0,0,82.0,1
117,117,-0.3573491262794598,-0.4,0.0,1.0,468.0,784.0,1.0,0,318.0,1
118,118,0.23256409320798765,0.2,0.0,0.0,292.0,512.0,0.0,1,816.0,1
119,119,-0.03798188974953709,-0.0,1.0,0.0,416.0,527.0,0.0,0,1297.0,1
120,120,-0.44255134979697514,-0.4,0.0,1.0,417.0,761.0,1.0,0,142.0,1
121,121,0.8163875916998543,0.8,1.0,1.0,368.0,996.0,1.0,1,116.0,1
122,122,-0.7131132304918131,-0.7,1.0,0.0,480.0,677.0,0.0,0,373.0,1
123,123,0.2954990739042477,0.3,1.0,1.0,437.0,910.0,1.0,1,603.0,1
124,124,0.729774644650011,0.7,1.0,1.0,389.0,667.0,1.0,1,374.0,1
125,125,0.41808734568528727,0.4,1.0,1.0,310.0,548.0,1.0,1,302.0,1
126,126,-0.8799258484068619,-0.9,0.0,1.0,286.0,967.0,1.0,0,317.0,1
127,127,-0.662270782172616,-0.7,1.0,0.0,464.0,505.0,0.0,0,441.0,1
128,128,0.4605420931104328,0.5,1.0,1.0,491.0,918.0,1.0,1,51.0,1
129,129,0.8421333077545917,0.8,0.0,0.0,452.0,537.0,0.0,1,391.0,1
130,130,-0.4834110296651418,-0.5,0.0,1.0,339.0,638.0,1.0,0,693.0,1
131,131,-0.4150357371318683,-0.4,1.0,0.0,429.0,553.0,0.0,0,858.0,1
132,132,-0.6472133409214416,-0.6,0.0,1.0,289.0,984.0,1.0,0,147.0,1
133,133,-0.18959014537797647,-0.2,0.0,1.0,373.0,945.0,1.0,0,932.0,1
134,134,-0.43704406178787386,-0.4,0.0,1.0,278.0,961.0,1.0,0,221.0,1
135,135,0.7055064565507448,0.7,1.0,1.0,396.0,949.0,1.0,1,315.0,1
136,136,0.43530328880714875,0.4,0.0,0.0,481.0,623.0,0.0,1,226.0,1
137,137,-0.668379699716644,-0.7,0.0,1.0,308.0,810.0,1.0,0,222.0,1
138,138,-0.4417484887472402,-0.4,1.0,0.0,468.0,896.0,0.0,0,486.0,1
139,139,0.15273248483225077,0.2,0.0,0.0,280.0,719.0,0.0,1,1371.0,1
140,140,0.3473832679476637,0.3,1.0,1.0,272.0,676.0,1.0,1,842.0,1
141,141,0.07644457692637552,0.1,1.0,1.0,324.0,684.0,0.0,0,642.0,0
142,142,-0.2809067226520985,-0.3,1.0,0.0,456.0,738.0,0.0,0,606.0,1
143,143,0.16847842433407145,0.2,0.0,0.0,450.0,905.0,0.0,1,625.0,1
144,144,-0.6037522072063461,-0.6,1.0,0.0,425.0,857.0,0.0,0,408.0,1
145,145,0.48477547207222227,0.5,1.0,1.0,381.0,868.0,1.0,1,381.0,1
146,146,0.08598389063291334,0.1,1.0,1.0,418.0,677.0,1.0,1,675.0,1
147,147,-0.053660125934578584,-0.1,0.0,1.0,336.0,773.0,1.0,0,451.0,1
148,148,0.24143785792352823,0.2,1.0,1.0,395.0,868.0,1.0,1,527.0,1
149,149,0.293067793368078,0.3,0.0,0.0,412.0,759.0,0.0,1,439.0,1
150,150,-0.5307620689946565,-0.5,0.0,1.0,336.0,527.0,1.0,0,587.0,1
151,151,-0.552193955578177,-0.6,1.0,0.0,287.0,830.0,0.0,0,763.0,1
152,152,-0.1499206467462173,-0.1,1.0,0.0,405.0,888.0,0.0,0,7.0,1
153,153,-0.4258829090327138,-0.4,1.0,0.0,436.0,607.0,0.0,0,217.0,1
154,154,0.5024260051032944,0.5,1.0,1.0,258.0,563.0,1.0,1,279.0,1
155,155,-0.18154199983203567,-0.2,0.0,1.0,452.0,704.0,1.0,0,424.0,1
156,156,0.850606084804789,0.9,0.0,0.0,403.0,992.0,0.0,1,25.0,1
157,157,0.796795852889613,0.8,0.0,0.0,489.0,892.0,0.0,1,249.0,1
158,158,0.48717122069672214,0.5,1.0,1.0,315.0,997.0,1.0,1,128.0,1
159,159,0.8167405718730588,0.8,0.0,0.0,342.0,741.0,0.0,1,297.0,1
160,160,-0.13370514202221706,-0.1,0.0,1.0,489.0,970.0,1.0,0,821.0,1
161,161,-0.3435673312544365,-0.3,1.0,0.0,382.0,805.0,0.0,0,283.0,1
162,162,0.6094119271571846,0.6,0.0,0.0,403.0,893.0,0.0,1,184.0,1
163,163,-0.4926973754568106,-0.5,1.0,0.0,271.0,923.0,0.0,0,56.0,1
164,164,0.2570154403986976,0.3,0.0,0.0,387.0,585.0,0.0,1,368.0,1
165,165,-0.499685771911799,-0.5,0.0,1.0,275.0,929.0,1.0,0,276.0,1
166,166,0.38000352261578263,0.4,0.0,0.0,495.0,825.0,0.0,1,230.0,1
167,167,-0.6997667793687568,-0.7,1.0,0.0,350.0,765.0,0.0,0,245.0,1
168,168,-0.33663885410191874,-0.3,0.0,1.0,382.0,739.0,1.0,0,249.0,1
169,169,0.4902442080032946,0.5,1.0,1.0,436.0,733.0,1.0,1,331.0,1
170,170,-0.3695184601175856,-0.4,1.0,0.0,315.0,900.0,0.0,0,235.0,1
171,171,-0.8114268148365164,-0.8,0.0,1.0,484.0,711.0,1.0,0,285.0,1
172,172,0.2685458158256927,0.3,0.0,0.0,290.0,724.0,0.0,1,596.0,1
173,173,0.5238492818943038,0.5,0.0,0.0,412.0,936.0,0.0,1,322.0,1
174,174,0.3356604402358291,0.3,1.0,1.0,404.0,674.0,1.0,1,332.0,1
175,175,0.5211228489858807,0.5,0.0,0.0,455.0,529.0,0.0,1,436.0,1
176,176,0.5685679625158814,0.6,1.0,1.0,293.0,869.0,1.0,1,1008.0,1
177,177,-0.4189886336123417,-0.4,0.0,1.0,424.0,958.0,1.0,0,338.0,1
178,178,0.5975364660343149,0.6,0.0,0.0,472.0,887.0,0.0,1,151.0,1
179,179,0.0549033839278219,0.1,1.0,1.0,387.0,543.0,0.0,0,450.0,0
180,180,0.22247382188211395,0.2,1.0,1.0,461.0,658.0,1.0,1,461.0,1
181,181,-0.773160064615092,-0.8,0.0,1.0,281.0,749.0,1.0,0,430.0,1
182,182,0.3635443373493482,0.4,1.0,1.0,422.0,770.0,1.0,1,238.0,1
183,183,-0.29989228011859614,-0.3,0.0,1.0,324.0,677.0,1.0,0,539.0,1
184,184,0.09262039003707634,0.1,0.0,0.0,295.0,568.0,0.0,1,857.0,1
185,185,0.2745158276096261,0.3,1.0,1.0,418.0,615.0,1.0,1,947.0,1
186,186,-0.6173140115280755,-0.6,0.0,1.0,271.0,533.0,1.0,0,476.0,1
187,187,0.6699252890944195,0.7,0.0,0.0,287.0,722.0,0.0,1,131.0,1
188,188,-0.38758849735419865,-0.4,0.0,1.0,405.0,527.0,1.0,0,438.0,1
189,189,0.7748128175133188,0.8,1.0,1.0,350.0,574.0,1.0,1,536.0,1
190,190,-0.8055855225018923,-0.8,1.0,0.0,369.0,869.0,0.0,0,272.0,1
191,191,0.6386936952887982,0.6,1.0,1.0,288.0,573.0,1.0,1,479.0,1
192,192,0.7312938026370955,0.7,1.0,1.0,251.0,504.0,1.0,1,545.0,1
193,193,-0.13273820184283391,-0.1,0.0,1.0,383.0,947.0,1.0,0,730.0,1
194,194,-0.8623440074089046,-0.9,0.0,1.0,419.0,594.0,1.0,0,417.0,1
195,195,0.5302452567029466,0.5,1.0,1.0,278.0,834.0,1.0,1,528.0,1
196,196,0.5624823715363653,0.6,0.0,0.0,278.0,917.0,0.0,1,195.0,1
197,197,-0.3727299804407018,-0.4,0.0,1.0,489.0,755.0,1.0,0,236.0,1
198,198,-0.47611238293285646,-0.5,0.0,1.0,307.0,886.0,0.0,1,47.0,0
199,199,-0.2421574515580165,-0.2,0.0,1.0,343.0,584.0,1.0,0,1033.0,1
200,200,-0.6537512869835018,-0.7,1.0,0.0,309.0,687.0,0.0,0,184.0,1
201,201,-0.5774891484110563,-0.6,1.0,0.0,271.0,638.0,0.0,0,431.0,1
202,202,-0.45910219061107743,-0.5,0.0,1.0,456.0,567.0,1.0,0,187.0,1
203,203,0.8935588806176685,0.9,1.0,1.0,332.0,620.0,1.0,1,198.0,1
204,204,0.6986762087272403,0.7,1.0,1.0,305.0,812.0,1.0,1,263.0,1
205,205,-0.5254821633049751,-0.5,0.0,1.0,471.0,696.0,1.0,0,183.0,1
206,206,0.8600648405935519,0.9,0.0,0.0,491.0,708.0,0.0,1,321.0,1
207,207,-0.030959699011892994,-0.0,0.0,1.0,442.0,787.0,1.0,0,701.0,1
208,208,0.4270526721142721,0.4,1.0,1.0,458.0,863.0,1.0,1,619.0,1
209,209,-0.43656536550867003,-0.4,0.0,1.0,304.0,980.0,1.0,0,576.0,1
210,210,-0.6017384362419802,-0.6,0.0,1.0,494.0,919.0,1.0,0,257.0,1
211,211,-0.327897172817447,-0.3,1.0,0.0,437.0,602.0,0.0,0,421.0,1
212,212,0.09534562738675323,0.1,1.0,1.0,380.0,937.0,1.0,1,413.0,1
213,213,-0.186123090152021,-0.2,0.0,1.0,431.0,529.0,1.0,0,690.0,1
214,214,0.7378383575976667,0.7,0.0,0.0,382.0,948.0,0.0,1,190.0,1
215,215,-0.46596414314687723,-0.5,1.0,0.0,469.0,677.0,0.0,0,434.0,1
216,216,-0.46415865186122585,-0.5,0.0,1.0,418.0,500.0,1.0,0,642.0,1
217,217,-0.7197869224432273,-0.7,1.0,0.0,299.0,721.0,0.0,0,330.0,1
218,218,-0.12361344922161732,-0.1,0.0,1.0,256.0,971.0,1.0,0,193.0,1
219,219,0.2561528702036876,0.3,1.0,1.0,417.0,864.0,1.0,1,279.0,1
220,220,0.8910805896075932,0.9,0.0,0.0,344.0,842.0,0.0,1,954.0,1
221,221,0.3075138174566353,0.3,1.0,1.0,407.0,533.0,1.0,1,600.0,1
222,222,0.15260825356267083,0.2,1.0,1.0,320.0,924.0,0.0,0,546.0,0
223,223,-0.7564567152446907,-0.8,1.0,0.0,376.0,565.0,0.0,0,349.0,1
224,224,-0.5188465932333539,-0.5,0.0,1.0,407.0,531.0,1.0,0,402.0,1
225,225,-0.6097181244322915,-0.6,1.0,0.0,303.0,802.0,0.0,0,245.0,1
226,226,0.7560337246627092,0.8,0.0,0.0,349.0,851.0,0.0,1,250.0,1
227,227,0.3063853333177168,0.3,1.0,1.0,327.0,755.0,1.0,1,378.0,1
228,228,0.4426810204777746,0.4,0.0,0.0,315.0,895.0,0.0,1,750.0,1
229,229,0.3391751037157794,0.3,1.0,1.0,384.0,772.0,1.0,1,394.0,1
230,230,-0.054116920405871904,-0.1,1.0,0.0,264.0,587.0,1.0,1,589.0,0
231,231,0.12212346107831829,0.1,0.0,0.0,312.0,752.0,0.0,1,476.0,1
232,232,0.8941692244123339,0.9,0.0,0.0,383.0,666.0,0.0,1,581.0,1
233,233,-0.3850015820097302,-0.4,0.0,1.0,334.0,860.0,1.0,0,596.0,1
234,234,-0.33334559995499424,-0.3,0.0,1.0,299.0,791.0,1.0,0,890.0,1
235,235,-0.6551052010651235,-0.7,1.0,0.0,384.0,854.0,0.0,0,162.0,1
236,236,-0.7633945420960302,-0.8,0.0,1.0,475.0,622.0,1.0,0,283.0,1
237,237,0.0373586146046293,0.0,1.0,1.0,311.0,855.0,1.0,1,24.0,1
238,238,0.4792486698012418,0.5,1.0,1.0,285.0,548.0,1.0,1,217.0,1
239,239,-0.4590021355829369,-0.5,0.0,1.0,332.0,775.0,1.0,0,363.0,1
240,240,-0.2813563088567802,-0.3,1.0,0.0,269.0,679.0,0.0,0,822.0,1
241,241,0.6337931767510477,0.6,0.0,0.0,449.0,691.0,0.0,1,380.0,1
242,242,-0.45464364500717475,-0.5,1.0,0.0,462.0,758.0,0.0,0,510.0,1
243,243,-0.7165593179098582,-0.7,0.0,1.0,452.0,878.0,1.0,0,180.0,1
244,244,0.8403950867931463,0.8,0.0,0.0,360.0,572.0,0.0,1,368.0,1
245,245,0.03672088565794529,0.0,1.0,1.0,394.0,836.0,1.0,1,220.0,1
246,246,0.297514079164631,0.3,0.0,0.0,349.0,796.0,0.0,1,1155.0,1
247,247,0.3203078788167205,0.3,1.0,1.0,475.0,551.0,1.0,1,574.0,1
248,248,-0.8407540693982829,-0.8,1.0,0.0,398.0,936.0,0.0,0,116.0,1
249,249,-0.47539000278607146,-0.5,1.0,0.0,384.0,882.0,0.0,0,164.0,1
250,250,0.39534322438226666,0.4,0.0,0.0,425.0,812.0,0.0,1,393.0,1
251,251,0.6226373256101526,0.6,1.0,1.0,314.0,781.0,1.0,1,185.0,1
252,252,0.8073463842575624,0.8,0.0,0.0,456.0,987.0,0.0,1,297.0,1
253,253,-0.5051537764347034,-0.5,1.0,0.0,474.0,711.0,0.0,0,265.0,1
254,254,0.7077789308816022,0.7,0.0,0.0,448.0,721.0,0.0,1,151.0,1
255,255,-0.11667171036747703,-0.1,1.0,0.0,295.0,931.0,0.0,0,554.0,1
256,256,0.6106609829297726,0.6,1.0,1.0,420.0,827.0,1.0,1,243.0,1
257,257,-0.4173097021653084,-0.4,1.0,0.0,408.0,603.0,0.0,0,549.0,1
258,258,-0.5796377424196495,-0.6,1.0,0.0,288.0,976.0,0.0,0,146.0,1
259,259,-0.18849172488679922,-0.2,0.0,1.0,497.0,807.0,1.0,0,466.0,1
260,260,-0.3187431404344697,-0.3,1.0,0.0,304.0,808.0,0.0,0,578.0,1
261,261,-0.4582973187451041,-0.5,0.0,1.0,282.0,863.0,0.0,1,815.0,0
262,262,0.19669876943263576,0.2,0.0,0.0,260.0,647.0,0.0,1,253.0,1
263,263,0.19181992079917232,0.2,0.0,0.0,480.0,569.0,0.0,1,921.0,1
264,264,-0.3459578991737793,-0.3,1.0,0.0,493.0,869.0,0.0,0,798.0,1
265,265,-0.7099698065181719,-0.7,0.0,1.0,412.0,697.0,1.0,0,461.0,1
266,266,-0.32831796079682485,-0.3,1.0,0.0,341.0,697.0,0.0,0,1212.0,1
267,267,-0.4611395367208976,-0.5,1.0,0.0,434.0,831.0,0.0,0,355.0,1
268,268,0.6290379462731303,0.6,1.0,1.0,496.0,636.0,1.0,1,378.0,1
269,269,0.41340241544897294,0.4,0.0,0.0,460.0,584.0,0.0,1,536.0,1
270,270,-0.8277854748328418,-0.8,1.0,0.0,498.0,999.0,1.0,1,-157.0,0
271,271,-0.6146714339086051,-0.6,1.0,0.0,311.0,695.0,0.0,0,464.0,1
272,272,-0.10870182658648875,-0.1,1.0,0.0,307.0,844.0,1.0,1,89.0,0
273,273,-0.32401943104828546,-0.3,0.0,1.0,465.0,640.0,1.0,0,975.0,1
274,274,0.010271271337405241,0.0,0.0,0.0,425.0,937.0,1.0,0,188.0,0
275,275,0.021509863492522707,0.0,1.0,1.0,299.0,605.0,1.0,1,896.0,1
276,276,0.32183156859478024,0.3,1.0,1.0,344.0,956.0,1.0,1,140.0,1
277,277,0.2367123158097203,0.2,1.0,1.0,419.0,612.0,1.0,1,379.0,1
278,278,-0.8205953664678969,-0.8,1.0,0.0,260.0,800.0,0.0,0,370.0,1
279,279,-0.7209874358503869,-0.7,0.0,1.0,469.0,892.0,1.0,0,399.0,1
280,280,-0.21993575039045699,-0.2,1.0,0.0,302.0,849.0,0.0,0,459.0,1
281,281,-0.03210461834815537,-0.0,1.0,0.0,261.0,997.0,1.0,1,212.0,0
282,282,0.41967195870081586,0.4,0.0,0.0,289.0,853.0,0.0,1,1408.0,1
283,283,-0.0767899299416771,-0.1,0.0,1.0,427.0,990.0,0.0,1,553.0,0
284,284,-0.00964388177645692,-0.0,1.0,0.0,372.0,728.0,1.0,1,610.0,0
285,285,0.27983142301050734,0.3,0.0,0.0,456.0,609.0,0.0,1,645.0,1
286,286,0.5241749569457766,0.5,1.0,1.0,492.0,743.0,1.0,1,305.0,1
287,287,0.2539923031056627,0.3,1.0,1.0,351.0,641.0,1.0,1,368.0,1
288,288,0.33911695323561475,0.3,0.0,0.0,434.0,754.0,0.0,1,1502.0,1
289,289,-0.38518324254366054,-0.4,1.0,0.0,462.0,746.0,1.0,1,452.0,0
290,290,-0.6920517659438213,-0.7,0.0,1.0,420.0,995.0,1.0,0,145.0,1
291,291,0.8052334326242124,0.8,0.0,0.0,421.0,890.0,0.0,1,89.0,1
292,292,-0.5379034622508243,-0.5,0.0,1.0,455.0,981.0,1.0,0,104.0,1
293,293,0.4797141604514138,0.5,1.0,1.0,263.0,551.0,1.0,1,466.0,1
294,294,-0.6807780748443846,-0.7,0.0,1.0,261.0,994.0,1.0,0,285.0,1
295,295,0.823779194894296,0.8,0.0,0.0,344.0,752.0,0.0,1,364.0,1
296,296,-0.6666148437706406,-0.7,0.0,1.0,434.0,963.0,1.0,0,283.0,1
297,297,-0.3186379680077557,-0.3,0.0,1.0,258.0,574.0,1.0,0,518.0,1
298,298,-0.6098960626517786,-0.6,0.0,1.0,274.0,559.0,1.0,0,347.0,1
299,299,-0.6823581368743495,-0.7,0.0,1.0,494.0,847.0,1.0,0,169.0,1
300,300,0.7157260359506671,0.7,0.0,0.0,325.0,910.0,0.0,1,225.0,1
301,301,-0.35835084267730266,-0.4,0.0,1.0,319.0,804.0,1.0,0,477.0,1
302,302,0.7235067004029031,0.7,1.0,1.0,405.0,530.0,1.0,1,445.0,1
303,303,0.24708472631571754,0.2,0.0,0.0,440.0,908.0,0.0,1,22.0,1
304,304,0.8784727807072358,0.9,1.0,1.0,385.0,681.0,1.0,1,144.0,1
305,305,-0.6706464196149025,-0.7,1.0,0.0,472.0,670.0,0.0,0,338.0,1
306,306,-0.17281740963845882,-0.2,0.0,1.0,407.0,962.0,1.0,0,101.0,1
307,307,-0.2657768971008875,-0.3,0.0,1.0,462.0,843.0,1.0,0,195.0,1
308,308,-0.2966342517884144,-0.3,1.0,0.0,477.0,881.0,0.0,0,692.0,1
309,309,0.42085946526796814,0.4,1.0,1.0,351.0,624.0,1.0,1,1315.0,1
310,310,-0.6695307029345835,-0.7,1.0,0.0,296.0,724.0,0.0,0,480.0,1
311,311,0.4646167335984043,0.5,1.0,1.0,462.0,630.0,1.0,1,508.0,1
312,312,-0.19405352522780517,-0.2,1.0,0.0,413.0,961.0,0.0,0,86.0,1
313,313,0.6910529821771471,0.7,1.0,1.0,404.0,558.0,1.0,1,438.0,1
314,314,0.34934965133033147,0.3,1.0,1.0,260.0,952.0,1.0,1,418.0,1
315,315,0.42138713602474465,0.4,0.0,0.0,346.0,747.0,0.0,1,637.0,1
316,316,0.5869910004304312,0.6,0.0,0.0,315.0,818.0,0.0,1,277.0,1
317,317,-0.1848637279643518,-0.2,0.0,1.0,355.0,867.0,1.0,0,488.0,1
318,318,-0.5020321388602118,-0.5,1.0,0.0,261.0,560.0,0.0,0,509.0,1
319,319,-0.2368575686897636,-0.2,1.0,0.0,420.0,874.0,0.0,0,296.0,1
320,320,0.8658198762298969,0.9,0.0,0.0,459.0,942.0,0.0,1,239.0,1
321,321,-0.04342127982275501,-0.0,0.0,1.0,420.0,824.0,0.0,1,496.0,0
322,322,0.554337406772823,0.6,1.0,1.0,441.0,885.0,1.0,1,-106.0,1
323,323,-0.7777407288355563,-0.8,0.0,1.0,364.0,505.0,1.0,0,621.0,1
324,324,-0.11986147099577127,-0.1,1.0,0.0,444.0,575.0,1.0,1,311.0,0
325,325,-0.34921348538872277,-0.3,1.0,0.0,458.0,830.0,0.0,0,812.0,1
326,326,0.48955036455379075,0.5,0.0,0.0,261.0,607.0,0.0,1,502.0,1
327,327,-0.5443511788362614,-0.5,0.0,1.0,294.0,623.0,1.0,0,143.0,1
328,328,0.7583279219991846,0.8,1.0,1.0,471.0,623.0,1.0,1,466.0,1
329,329,0.8613867328318617,0.9,0.0,0.0,399.0,773.0,0.0,1,258.0,1
330,330,-0.7753245971945582,-0.8,0.0,1.0,256.0,517.0,1.0,0,437.0,1
331,331,-0.837388215401447,-0.8,1.0,0.0,282.0,736.0,0.0,0,292.0,1
332,332,-0.006531274447171609,-0.0,0.0,1.0,489.0,810.0,1.0,0,881.0,1
333,333,-0.3720691408151032,-0.4,0.0,1.0,447.0,661.0,1.0,0,372.0,1
334,334,-0.16880233312845072,-0.2,1.0,0.0,354.0,682.0,0.0,0,564.0,1
335,335,0.019454018737227075,0.0,0.0,0.0,296.0,932.0,1.0,0,252.0,0
336,336,0.48032466170672394,0.5,0.0,0.0,377.0,858.0,0.0,1,635.0,1
337,337,0.8086826712133987,0.8,0.0,0.0,432.0,812.0,0.0,1,186.0,1
338,338,0.8626995844499922,0.9,0.0,0.0,288.0,608.0,0.0,1,374.0,1
339,339,0.7709665983776998,0.8,1.0,1.0,352.0,538.0,1.0,1,120.0,1
340,340,-0.09159267688641448,-0.1,0.0,1.0,405.0,638.0,1.0,0,907.0,1
341,341,0.48937148313574774,0.5,1.0,1.0,322.0,895.0,1.0,1,283.0,1
342,342,0.3327810904433358,0.3,0.0,0.0,334.0,705.0,0.0,1,491.0,1
343,343,0.36044403938399616,0.4,0.0,0.0,479.0,859.0,0.0,1,442.0,1
344,344,-0.6845964358589847,-0.7,0.0,1.0,436.0,696.0,1.0,0,268.0,1
345,345,0.1736957427035165,0.2,0.0,0.0,418.0,936.0,0.0,1,1006.0,1
346,346,0.20672957346389575,0.2,0.0,0.0,353.0,578.0,0.0,1,499.0,1
347,347,0.6760664672374673,0.7,0.0,0.0,476.0,640.0,0.0,1,484.0,1
348,348,-0.16844669648549293,-0.2,1.0,0.0,457.0,516.0,0.0,0,567.0,1
349,349,-0.22248060624908306,-0.2,1.0,0.0,332.0,972.0,0.0,0,46.0,1
350,350,-0.873544707673238,-0.9,0.0,1.0,253.0,666.0,1.0,0,331.0,1
351,351,-0.15885692155356856,-0.2,0.0,1.0,279.0,769.0,1.0,0,222.0,1
352,352,-0.07953921913234197,-0.1,1.0,0.0,490.0,561.0,0.0,0,519.0,1
353,353,0.7493703905374492,0.7,1.0,1.0,444.0,836.0,1.0,1,550.0,1
354,354,0.565648124580327,0.6,0.0,0.0,277.0,698.0,0.0,1,285.0,1
355,355,0.051253496030397416,0.1,1.0,1.0,481.0,593.0,1.0,1,526.0,1
356,356,0.04586758415276593,0.0,0.0,0.0,453.0,687.0,0.0,1,3610.0,1
357,357,0.2859309438632328,0.3,1.0,1.0,281.0,534.0,1.0,1,485.0,1
358,358,-0.5541477121652139,-0.6,1.0,0.0,472.0,528.0,0.0,0,400.0,1
359,359,0.8973644654819818,0.9,0.0,0.0,439.0,897.0,0.0,1,204.0,1
360,360,-0.19049036207664805,-0.2,0.0,1.0,370.0,586.0,1.0,0,1284.0,1
361,361,-0.4354007769731377,-0.4,1.0,0.0,449.0,517.0,0.0,0,494.0,1
362,362,0.27764947123060446,0.3,0.0,0.0,326.0,992.0,0.0,1,492.0,1
363,363,-0.26937477314073577,-0.3,0.0,1.0,378.0,965.0,1.0,0,567.0,1
364,364,-0.08054370872668537,-0.1,1.0,0.0,453.0,807.0,1.0,1,320.0,0
365,365,0.4324411173888719,0.4,1.0,1.0,454.0,779.0,1.0,1,617.0,1
366,366,-0.830464535007677,-0.8,1.0,0.0,299.0,695.0,0.0,0,226.0,1
367,367,0.2955768483922271,0.3,0.0,0.0,320.0,953.0,0.0,1,507.0,1
368,368,0.6899886295519649,0.7,0.0,0.0,363.0,562.0,0.0,1,415.0,1
369,369,-0.205881216605438,-0.2,0.0,1.0,293.0,582.0,1.0,0,505.0,1
370,370,-0.278885134258965,-0.3,0.0,1.0,385.0,732.0,1.0,0,503.0,1
371,371,0.7013953357564052,0.7,1.0,1.0,466.0,887.0,1.0,1,727.0,1
372,372,0.8465032430963834,0.8,1.0,1.0,398.0,829.0,1.0,1,363.0,1
373,373,0.5685135669019722,0.6,1.0,1.0,321.0,652.0,1.0,1,287.0,1
374,374,-0.1676089369647885,-0.2,1.0,0.0,446.0,847.0,0.0,0,667.0,1
375,375,0.6987401195150577,0.7,1.0,1.0,448.0,565.0,1.0,1,387.0,1
376,376,-0.01801010113689472,-0.0,0.0,1.0,449.0,760.0,1.0,0,821.0,1
377,377,-0.7458904943326342,-0.7,0.0,1.0,382.0,694.0,1.0,0,154.0,1
378,378,-0.1385591783882526,-0.1,1.0,0.0,339.0,739.0,0.0,0,692.0,1
379,379,0.45086614666714986,0.5,0.0,0.0,396.0,739.0,0.0,1,405.0,1
380,380,-0.5153306313397065,-0.5,1.0,0.0,432.0,801.0,0.0,0,547.0,1
381,381,0.7176007105119212,0.7,0.0,0.0,338.0,749.0,0.0,1,393.0,1
382,382,-0.36217107362199485,-0.4,1.0,0.0,467.0,815.0,0.0,0,358.0,1
383,383,0.5019869066503094,0.5,0.0,0.0,277.0,958.0,0.0,1,645.0,1
384,384,-0.45880100709798094,-0.5,0.0,1.0,478.0,799.0,1.0,0,93.0,1
385,385,0.4157266590494272,0.4,0.0,0.0,349.0,875.0,0.0,1,806.0,1
386,386,-0.6688316666621165,-0.7,1.0,0.0,464.0,861.0,0.0,0,165.0,1
387,387,0.4506306195056461,0.5,1.0,1.0,424.0,530.0,1.0,1,356.0,1
388,388,-0.7212836215972431,-0.7,1.0,0.0,455.0,702.0,0.0,0,163.0,1
389,389,0.6505217822670512,0.7,1.0,1.0,392.0,547.0,1.0,1,251.0,1
390,390,-0.8122198707321815,-0.8,1.0,0.0,331.0,622.0,0.0,0,497.0,1
391,391,0.6397086619564062,0.6,0.0,0.0,419.0,517.0,0.0,1,344.0,1
392,392,-0.8457102696429466,-0.8,1.0,0.0,283.0,604.0,0.0,0,313.0,1
393,393,-0.5585259363837777,-0.6,1.0,0.0,472.0,945.0,0.0,0,113.0,1
394,394,0.25305543896303695,0.3,0.0,0.0,450.0,793.0,0.0,1,587.0,1
395,395,0.045909822159314384,0.0,0.0,0.0,347.0,948.0,1.0,0,135.0,0
396,396,-0.0694140881167834,-0.1,0.0,1.0,316.0,992.0,1.0,0,42.0,1
397,397,-0.24245026644206646,-0.2,1.0,0.0,418.0,810.0,0.0,0,752.0,1
398,398,-0.12766917000464584,-0.1,0.0,1.0,445.0,993.0,1.0,0,422.0,1
399,399,0.2915415678842673,0.3,1.0,1.0,311.0,897.0,1.0,1,52.0,1
400,400,0.27130162540923186,0.3,0.0,0.0,442.0,610.0,0.0,1,1008.0,1
401,401,0.1361929784289807,0.1,0.0,0.0,386.0,751.0,0.0,1,1313.0,1
402,402,-0.2753606648519371,-0.3,1.0,0.0,380.0,713.0,0.0,0,467.0,1
403,403,0.6963065599572699,0.7,0.0,0.0,379.0,725.0,0.0,1,286.0,1
404,404,-0.7776905984312634,-0.8,1.0,0.0,331.0,538.0,0.0,0,211.0,1
405,405,0.10004518398788342,0.1,1.0,1.0,472.0,912.0,1.0,1,606.0,1
406,406,0.02245604842614457,0.0,1.0,1.0,287.0,885.0,1.0,1,148.0,1
407,407,0.6248495190059632,0.6,0.0,0.0,368.0,594.0,0.0,1,428.0,1
408,408,-0.5679424634997496,-0.6,0.0,1.0,300.0,522.0,1.0,0,788.0,1
409,409,0.4185472633727153,0.4,0.0,0.0,417.0,989.0,0.0,1,274.0,1
410,410,-0.15234023817007725,-0.2,0.0,1.0,477.0,943.0,1.0,0,1330.0,1
411,411,-0.8172504130269411,-0.8,0.0,1.0,293.0,803.0,1.0,0,324.0,1
412,412,0.38666742044834346,0.4,1.0,1.0,444.0,600.0,1.0,1,806.0,1
413,413,-0.04311849996116779,-0.0,1.0,0.0,312.0,606.0,0.0,0,952.0,1
414,414,-0.5827247101048336,-0.6,0.0,1.0,438.0,756.0,1.0,0,456.0,1
415,415,0.14312697019222143,0.1,0.0,0.0,428.0,931.0,0.0,1,131.0,1
416,416,0.3506999028257335,0.4,1.0,1.0,499.0,824.0,1.0,1,617.0,1
417,417,-0.04003862232927946,-0.0,1.0,0.0,433.0,975.0,1.0,1,112.0,0
418,418,-0.8478977025809357,-0.8,1.0,0.0,320.0,577.0,0.0,0,193.0,1
419,419,0.5405295715205932,0.5,1.0,1.0,477.0,825.0,1.0,1,378.0,1
420,420,-0.2621977994022263,-0.3,0.0,1.0,482.0,870.0,1.0,0,158.0,1
421,421,0.6302359341011744,0.6,1.0,1.0,267.0,952.0,1.0,1,61.0,1
422,422,0.7158523397687931,0.7,1.0,1.0,251.0,799.0,1.0,1,160.0,1
423,423,-0.42621378584599534,-0.4,0.0,1.0,450.0,988.0,1.0,0,242.0,1
424,424,0.268070727717581,0.3,0.0,0.0,336.0,748.0,0.0,1,916.0,1
425,425,-0.260957944388161,-0.3,1.0,0.0,369.0,827.0,0.0,0,624.0,1
426,426,0.09782563212004314,0.1,0.0,0.0,426.0,909.0,1.0,0,195.0,0
427,427,-0.15322354464365318,-0.2,0.0,1.0,396.0,548.0,1.0,0,566.0,1
428,428,0.06654992301325813,0.1,1.0,1.0,290.0,973.0,0.0,0,407.0,0
429,429,0.23630841690265625,0.2,0.0,0.0,296.0,789.0,0.0,1,1105.0,1
430,430,0.5745602986677935,0.6,0.0,0.0,370.0,573.0,0.0,1,667.0,1
431,431,-0.07986542604402924,-0.1,0.0,1.0,407.0,988.0,1.0,0,635.0,1
432,432,-0.35563497823085943,-0.4,1.0,0.0,480.0,902.0,0.0,0,278.0,1
433,433,0.8676011065556842,0.9,1.0,1.0,367.0,599.0,1.0,1,284.0,1
434,434,-0.15951680286688819,-0.2,1.0,0.0,262.0,973.0,0.0,0,595.0,1
435,435,0.03238635785322419,0.0,0.0,0.0,259.0,845.0,1.0,0,216.0,0
436,436,0.20767685420380844,0.2,1.0,1.0,491.0,580.0,1.0,1,449.0,1
437,437,-0.5376787828020513,-0.5,1.0,0.0,327.0,731.0,0.0,0,322.0,1
438,438,0.4998877204797213,0.5,0.0,0.0,337.0,693.0,0.0,1,1000.0,1
439,439,-0.7193723035872914,-0.7,0.0,1.0,499.0,892.0,1.0,0,79.0,1
440,440,0.03519523223769783,0.0,0.0,0.0,348.0,597.0,0.0,1,2365.0,1
441,441,-0.8696852580060682,-0.9,1.0,0.0,423.0,956.0,0.0,0,291.0,1
442,442,0.801856132004168,0.8,0.0,0.0,391.0,802.0,0.0,1,267.0,1
443,443,0.23905385745290164,0.2,0.0,0.0,473.0,691.0,0.0,1,796.0,1
444,444,-0.8163145352363582,-0.8,0.0,1.0,273.0,819.0,1.0,0,278.0,1
445,445,0.830608341356848,0.8,0.0,0.0,259.0,626.0,0.0,1,425.0,1
446,446,-0.4763088368589398,-0.5,1.0,0.0,407.0,516.0,0.0,0,597.0,1
447,447,0.8888530807280196,0.9,0.0,0.0,467.0,568.0,0.0,1,295.0,1
448,448,-0.8844936610261206,-0.9,1.0,0.0,394.0,940.0,0.0,0,86.0,1
449,449,-0.7448384806509879,-0.7,1.0,0.0,321.0,953.0,0.0,0,156.0,1
450,450,0.06566521680944692,0.1,0.0,0.0,492.0,927.0,0.0,1,281.0,1
451,451,0.8752593156532765,0.9,1.0,1.0,417.0,987.0,1.0,1,166.0,1
452,452,0.0478452806259424,0.0,1.0,1.0,370.0,646.0,0.0,0,614.0,0
453,453,0.452394554772498,0.5,1.0,1.0,431.0,762.0,1.0,1,287.0,1
454,454,-0.45242542481880044,-0.5,0.0,1.0,304.0,582.0,1.0,0,494.0,1
455,455,0.7224633583059149,0.7,0.0,0.0,393.0,546.0,0.0,1,261.0,1
456,456,-0.8825482353066729,-0.9,0.0,1.0,452.0,758.0,1.0,0,120.0,1
457,457,0.16552843303264952,0.2,0.0,0.0,287.0,585.0,0.0,1,1028.0,1
458,458,-0.8869855569618899,-0.9,0.0,1.0,329.0,926.0,1.0,0,185.0,1
459,459,-0.36977020183104226,-0.4,0.0,1.0,395.0,649.0,1.0,0,336.0,1
460,460,0.8385958196960434,0.8,1.0,1.0,263.0,514.0,1.0,1,553.0,1
461,461,-0.6534241345179757,-0.7,1.0,0.0,360.0,557.0,0.0,0,453.0,1
462,462,0.45378868983318166,0.5,1.0,1.0,355.0,817.0,0.0,0,358.0,0
463,463,0.3307229494586347,0.3,0.0,0.0,416.0,700.0,0.0,1,654.0,1
464,464,0.35766891186765204,0.4,1.0,1.0,431.0,635.0,1.0,1,404.0,1
465,465,0.754941155332083,0.8,1.0,1.0,497.0,893.0,1.0,1,320.0,1
466,466,0.1451116071739017,0.1,1.0,1.0,452.0,667.0,1.0,1,621.0,1
467,467,0.22903853551670272,0.2,1.0,1.0,494.0,550.0,1.0,1,276.0,1
468,468,-0.4262260659977784,-0.4,0.0,1.0,430.0,807.0,1.0,0,403.0,1
469,469,-0.5117575576933884,-0.5,0.0,1.0,308.0,537.0,1.0,0,575.0,1
470,470,0.43306182438979357,0.4,1.0,1.0,325.0,551.0,1.0,1,284.0,1
471,471,-0.12433768773740705,-0.1,1.0,0.0,481.0,773.0,1.0,1,406.0,0
472,472,0.6892266836754884,0.7,0.0,0.0,457.0,802.0,0.0,1,211.0,1
473,473,0.6638443152998855,0.7,0.0,0.0,389.0,830.0,0.0,1,231.0,1
474,474,-0.5056199824903875,-0.5,0.0,1.0,272.0,750.0,1.0,0,258.0,1
475,475,0.30324755201161435,0.3,0.0,0.0,357.0,953.0,0.0,1,900.0,1
476,476,0.2451851035742273,0.2,0.0,0.0,434.0,916.0,0.0,1,-30.0,1
477,477,0.3589765315395649,0.4,1.0,1.0,318.0,546.0,1.0,1,556.0,1
478,478,-0.07406243437843141,-0.1,1.0,0.0,295.0,978.0,0.0,0,407.0,1
479,479,0.5981630625077005,0.6,1.0,1.0,373.0,787.0,1.0,1,280.0,1
480,480,0.45305848846273145,0.5,1.0,1.0,393.0,648.0,1.0,1,299.0,1
481,481,-0.8835298744748373,-0.9,0.0,1.0,277.0,549.0,1.0,0,234.0,1
482,482,-0.8948729893628786,-0.9,0.0,1.0,311.0,947.0,1.0,0,122.0,1
483,483,-0.28861054389394436,-0.3,1.0,0.0,371.0,992.0,0.0,0,457.0,1
484,484,-0.6796320505468543,-0.7,1.0,0.0,289.0,709.0,0.0,0,232.0,1
485,485,-0.3391820135363839,-0.3,0.0,1.0,455.0,670.0,1.0,0,365.0,1
486,486,0.7993804072942786,0.8,0.0,0.0,385.0,844.0,0.0,1,771.0,1
487,487,0.5322586817905931,0.5,0.0,0.0,278.0,636.0,0.0,1,396.0,1
488,488,-0.1895122026769126,-0.2,0.0,1.0,278.0,675.0,1.0,0,597.0,1
489,489,0.4760783966688439,0.5,0.0,0.0,493.0,921.0,0.0,1,996.0,1
490,490,-0.3746125638945028,-0.4,1.0,0.0,278.0,614.0,0.0,0,278.0,1
491,491,0.3755540965462226,0.4,0.0,0.0,382.0,970.0,0.0,1,8.0,1
492,492,0.4848568912187713,0.5,0.0,0.0,452.0,951.0,0.0,1,177.0,1
493,493,0.5084356180961781,0.5,0.0,0.0,416.0,701.0,0.0,1,373.0,1
494,494,-0.12131347297458372,-0.1,0.0,1.0,305.0,998.0,1.0,0,377.0,1
495,495,0.5971742873819416,0.6,1.0,1.0,271.0,998.0,1.0,1,41.0,1
496,496,-0.22951829049675687,-0.2,1.0,0.0,396.0,783.0,1.0,1,801.0,0
497,497,0.2781052061961623,0.3,0.0,0.0,421.0,822.0,0.0,1,937.0,1
498,498,0.5894576460928803,0.6,0.0,0.0,481.0,563.0,0.0,1,326.0,1
499,499,0.4236789462214613,0.4,1.0,1.0,421.0,549.0,1.0,1,360.0,1
500,500,-0.13582335145153324,-0.1,1.0,0.0,293.0,833.0,1.0,1,474.0,0
501,501,-0.4080443738002539,-0.4,0.0,1.0,330.0,754.0,1.0,0,746.0,1
502,502,0.5061170925814932,0.5,1.0,1.0,450.0,563.0,1.0,1,327.0,1
503,503,-0.0006745158001344453,-0.0,1.0,0.0,270.0,807.0,1.0,1,473.0,0
504,504,0.3286538139741614,0.3,1.0,1.0,304.0,583.0,1.0,1,353.0,1
505,505,-0.7571827710257297,-0.8,1.0,0.0,388.0,511.0,0.0,0,501.0,1
506,506,0.660744693467913,0.7,0.0,0.0,255.0,694.0,0.0,1,361.0,1
507,507,0.5264355629665486,0.5,0.0,0.0,494.0,553.0,0.0,1,713.0,1
508,508,0.7535776002350317,0.8,0.0,0.0,446.0,719.0,0.0,1,705.0,1
509,509,-0.43780402113836253,-0.4,1.0,0.0,351.0,852.0,0.0,0,177.0,1
510,510,0.853572571346458,0.9,0.0,0.0,301.0,745.0,0.0,1,214.0,1
511,511,-0.5420449366171809,-0.5,1.0,0.0,382.0,717.0,0.0,0,771.0,1
512,512,-0.3113221232461165,-0.3,0.0,1.0,259.0,705.0,1.0,0,696.0,1
513,513,-0.37105508730820247,-0.4,1.0,0.0,400.0,990.0,0.0,0,1010.0,1
514,514,0.21959818198403147,0.2,1.0,1.0,344.0,598.0,1.0,1,418.0,1
515,515,-0.40369280863085566,-0.4,1.0,0.0,422.0,615.0,0.0,0,813.0,1
516,516,0.6158507524139633,0.6,0.0,0.0,364.0,857.0,0.0,1,189.0,1
517,517,-0.2649933337024267,-0.3,0.0,1.0,391.0,897.0,0.0,1,712.0,0
518,518,0.2142571428423229,0.2,1.0,1.0,451.0,756.0,0.0,0,143.0,0
519,519,0.8278523383214623,0.8,0.0,0.0,361.0,732.0,0.0,1,307.0,1
520,520,-0.8127488104097507,-0.8,1.0,0.0,353.0,739.0,0.0,0,208.0,1
521,521,0.3033269245763498,0.3,1.0,1.0,375.0,979.0,1.0,1,366.0,1
522,522,0.3055149506154168,0.3,0.0,0.0,403.0,757.0,1.0,0,470.0,0
523,523,-0.16769006945411247,-0.2,1.0,0.0,315.0,764.0,0.0,0,301.0,1
524,524,0.6884708818477098,0.7,1.0,1.0,262.0,569.0,1.0,1,409.0,1
525,525,-0.4543189876891464,-0.5,0.0,1.0,262.0,610.0,1.0,0,298.0,1
526,526,-0.7962091111413843,-0.8,0.0,1.0,365.0,930.0,1.0,0,55.0,1
527,527,0.435757825867506,0.4,0.0,0.0,385.0,740.0,0.0,1,715.0,1
528,528,-0.25957153021970436,-0.3,1.0,0.0,305.0,659.0,0.0,0,376.0,1
529,529,0.013674045928799061,0.0,1.0,1.0,281.0,985.0,0.0,0,594.0,0
530,530,-0.48864102800804965,-0.5,0.0,1.0,384.0,608.0,1.0,0,328.0,1
531,531,-0.01493913972659866,-0.0,1.0,0.0,326.0,939.0,1.0,1,555.0,0
532,532,0.6777633546009897,0.7,1.0,1.0,336.0,995.0,1.0,1,349.0,1
533,533,0.08595699088094144,0.1,1.0,1.0,423.0,785.0,1.0,1,32.0,1
534,534,0.34217845862167795,0.3,1.0,1.0,366.0,846.0,1.0,1,308.0,1
535,535,0.727667334948988,0.7,0.0,0.0,265.0,977.0,0.0,1,128.0,1
536,536,-0.4112305074757868,-0.4,0.0,1.0,362.0,521.0,1.0,0,487.0,1
537,537,-0.5054720483345521,-0.5,1.0,0.0,285.0,774.0,0.0,0,301.0,1
538,538,0.021519240393438,0.0,0.0,0.0,310.0,569.0,0.0,1,931.0,1
539,539,0.8092508412869687,0.8,0.0,0.0,351.0,928.0,0.0,1,261.0,1
540,540,0.0846027800704181,0.1,1.0,1.0,442.0,857.0,0.0,0,1411.0,0
541,541,0.4023893193819822,0.4,1.0,1.0,452.0,626.0,1.0,1,592.0,1
542,542,0.5947976777443643,0.6,1.0,1.0,455.0,723.0,1.0,1,332.0,1
543,543,-0.41684768781245746,-0.4,1.0,0.0,443.0,794.0,0.0,0,583.0,1
544,544,0.5956486566005604,0.6,0.0,0.0,311.0,994.0,0.0,1,405.0,1
545,545,0.364961938383216,0.4,1.0,1.0,280.0,576.0,1.0,1,584.0,1
546,546,-0.18548296082337612,-0.2,0.0,1.0,473.0,553.0,1.0,0,464.0,1
547,547,0.7038499811782349,0.7,0.0,0.0,475.0,652.0,0.0,1,253.0,1
548,548,-0.711382693221369,-0.7,1.0,0.0,257.0,900.0,0.0,0,343.0,1
549,549,-0.08013157952974914,-0.1,0.0,1.0,438.0,700.0,1.0,0,452.0,1
550,550,0.8043241298209035,0.8,0.0,0.0,372.0,962.0,1.0,0,-244.0,0
551,551,0.6981226540746502,0.7,1.0,1.0,256.0,501.0,1.0,1,323.0,1
552,552,0.3065953504765756,0.3,1.0,1.0,350.0,569.0,1.0,1,791.0,1
553,553,-0.5606581672728403,-0.6,1.0,0.0,370.0,988.0,0.0,0,712.0,1
554,554,0.3038949729944126,0.3,0.0,0.0,360.0,532.0,0.0,1,2418.0,1
555,555,0.5130578760303145,0.5,0.0,0.0,385.0,617.0,0.0,1,608.0,1
556,556,0.015106587409214334,0.0,1.0,1.0,442.0,677.0,1.0,1,311.0,1
557,557,-0.3644753726276928,-0.4,0.0,1.0,311.0,790.0,1.0,0,369.0,1
558,558,0.5088191747385687,0.5,1.0,1.0,331.0,567.0,1.0,1,372.0,1
559,559,-0.697463490162098,-0.7,1.0,0.0,499.0,505.0,0.0,0,366.0,1
560,560,0.842286059286799,0.8,1.0,1.0,472.0,968.0,1.0,1,90.0,1
561,561,-0.4319102752001245,-0.4,1.0,0.0,419.0,685.0,0.0,0,586.0,1
562,562,0.43754742445970185,0.4,1.0,1.0,318.0,716.0,1.0,1,216.0,1
563,563,-0.24281308649530609,-0.2,0.0,1.0,430.0,988.0,1.0,0,212.0,1
564,564,0.5041257529398949,0.5,1.0,1.0,293.0,647.0,1.0,1,270.0,1
565,565,0.3597641687388865,0.4,1.0,1.0,275.0,823.0,1.0,1,72.0,1
566,566,-0.5124795777723744,-0.5,0.0,1.0,304.0,992.0,1.0,0,314.0,1
567,567,-0.2706054905901073,-0.3,0.0,1.0,364.0,807.0,1.0,0,309.0,1
568,568,-0.23900341184635687,-0.2,1.0,0.0,304.0,931.0,0.0,0,435.0,1
569,569,-0.2981740970137692,-0.3,0.0,1.0,299.0,912.0,1.0,0,39.0,1
570,570,-0.68654428502938,-0.7,1.0,0.0,412.0,648.0,0.0,0,650.0,1
571,571,-0.010625571802703404,-0.0,1.0,0.0,370.0,851.0,0.0,0,619.0,1
572,572,0.7124230074668086,0.7,1.0,1.0,305.0,865.0,1.0,1,300.0,1
573,573,0.6021623387526723,0.6,0.0,0.0,311.0,954.0,0.0,1,315.0,1
574,574,0.4105668570494462,0.4,1.0,1.0,331.0,595.0,1.0,1,554.0,1
575,575,0.8144891820436923,0.8,1.0,1.0,402.0,998.0,1.0,1,180.0,1
576,576,-0.5533098058183862,-0.6,0.0,1.0,327.0,520.0,1.0,0,643.0,1
577,577,0.7474695160980224,0.7,0.0,0.0,373.0,757.0,0.0,1,190.0,1
578,578,-0.1539783683707483,-0.2,1.0,0.0,333.0,746.0,0.0,0,651.0,1
579,579,-0.44431646408345243,-0.4,0.0,1.0,478.0,720.0,1.0,0,642.0,1
580,580,-0.29385236245123103,-0.3,0.0,1.0,484.0,651.0,1.0,0,595.0,1
581,581,0.06741157392889618,0.1,1.0,1.0,311.0,512.0,0.0,0,577.0,0
582,582,-0.8136998933706386,-0.8,1.0,0.0,338.0,822.0,0.0,0,110.0,1
583,583,0.584135926291446,0.6,0.0,0.0,369.0,898.0,0.0,1,143.0,1
584,584,0.6497676807576239,0.6,0.0,0.0,292.0,509.0,0.0,1,469.0,1
585,585,-0.21587161738602345,-0.2,0.0,1.0,431.0,844.0,0.0,1,235.0,0
586,586,-0.34130848487760823,-0.3,1.0,0.0,317.0,863.0,0.0,0,100.0,1
587,587,0.7240443998405349,0.7,1.0,1.0,451.0,976.0,1.0,1,383.0,1
588,588,-0.6630495575628476,-0.7,1.0,0.0,321.0,964.0,0.0,0,185.0,1
589,589,-0.15435714691723446,-0.2,1.0,0.0,364.0,556.0,0.0,0,680.0,1
590,590,-0.6524362634047097,-0.7,0.0,1.0,382.0,724.0,1.0,0,264.0,1
591,591,-0.28557904064129513,-0.3,0.0,1.0,319.0,821.0,1.0,0,280.0,1
592,592,-0.472890959058622,-0.5,0.0,1.0,452.0,583.0,1.0,0,825.0,1
593,593,0.31767725247375156,0.3,1.0,1.0,474.0,969.0,1.0,1,317.0,1
594,594,-0.1065480613806783,-0.1,0.0,1.0,407.0,669.0,1.0,0,494.0,1
595,595,0.16323769879015748,0.2,1.0,1.0,486.0,531.0,1.0,1,1593.0,1
596,596,-0.8034561559049763,-0.8,0.0,1.0,432.0,526.0,1.0,0,422.0,1
597,597,0.27326678740069854,0.3,0.0,0.0,407.0,823.0,1.0,0,700.0,0
598,598,-0.8199031398224444,-0.8,1.0,0.0,441.0,553.0,0.0,0,406.0,1
599,599,0.13018779609394515,0.1,1.0,1.0,445.0,727.0,1.0,1,1468.0,1
600,600,0.524415565525152,0.5,1.0,1.0,452.0,981.0,1.0,1,537.0,1
601,601,0.894614843556126,0.9,1.0,1.0,338.0,552.0,1.0,1,240.0,1
602,602,0.49466379274745964,0.5,0.0,0.0,499.0,786.0,0.0,1,265.0,1
603,603,-0.4108804837531035,-0.4,0.0,1.0,325.0,964.0,1.0,0,291.0,1
604,604,0.3882516697479449,0.4,1.0,1.0,378.0,631.0,1.0,1,641.0,1
605,605,-0.21328367063229625,-0.2,0.0,1.0,251.0,714.0,1.0,0,625.0,1
606,606,0.18796436140134054,0.2,1.0,1.0,358.0,791.0,1.0,1,741.0,1
607,607,0.3992131175364019,0.4,1.0,1.0,444.0,560.0,1.0,1,386.0,1
608,608,0.3585044319476983,0.4,1.0,1.0,406.0,926.0,1.0,1,208.0,1
609,609,0.7736627455437161,0.8,1.0,1.0,277.0,806.0,1.0,1,367.0,1
610,610,0.5344608760642492,0.5,0.0,0.0,331.0,955.0,0.0,1,154.0,1
611,611,0.39103455365024986,0.4,0.0,0.0,452.0,534.0,0.0,1,724.0,1
612,612,0.4369983391182938,0.4,0.0,0.0,356.0,502.0,0.0,1,752.0,1
613,613,0.6183030703132716,0.6,0.0,0.0,381.0,811.0,0.0,1,458.0,1
614,614,0.34424430070319156,0.3,1.0,1.0,386.0,907.0,1.0,1,627.0,1
615,615,-0.3432816702977788,-0.3,0.0,1.0,359.0,520.0,1.0,0,1151.0,1
616,616,-0.06658364414737616,-0.1,1.0,0.0,400.0,954.0,0.0,0,586.0,1
617,617,0.15249770412516128,0.2,1.0,1.0,443.0,626.0,1.0,1,741.0,1
618,618,-0.44794185157194627,-0.4,0.0,1.0,325.0,617.0,1.0,0,468.0,1
619,619,-0.6812024746354295,-0.7,1.0,0.0,436.0,829.0,0.0,0,165.0,1
620,620,0.015630106125729237,0.0,1.0,1.0,449.0,792.0,1.0,1,1179.0,1
621,621,0.8928011321030883,0.9,0.0,0.0,457.0,611.0,0.0,1,1002.0,1
622,622,-0.7335223843178375,-0.7,1.0,0.0,268.0,829.0,0.0,0,123.0,1
623,623,0.0605486102694488,0.1,0.0,0.0,421.0,894.0,1.0,0,415.0,0
624,624,-0.2028031920309612,-0.2,0.0,1.0,464.0,528.0,1.0,0,1518.0,1
625,625,-0.8709071709058663,-0.9,1.0,0.0,408.0,591.0,0.0,0,221.0,1
626,626,0.4719279535606632,0.5,1.0,1.0,319.0,615.0,1.0,1,576.0,1
627,627,-0.20609366360634895,-0.2,1.0,0.0,374.0,962.0,0.0,0,54.0,1
628,628,0.06476443327554127,0.1,0.0,0.0,290.0,502.0,1.0,0,2498.0,0
629,629,-0.8733190975778611,-0.9,1.0,0.0,346.0,817.0,0.0,0,567.0,1
630,630,-0.6126353146569514,-0.6,1.0,0.0,394.0,516.0,0.0,0,600.0,1
631,631,0.3361485826375771,0.3,1.0,1.0,300.0,968.0,1.0,1,442.0,1
632,632,0.5576028032694372,0.6,1.0,1.0,436.0,792.0,1.0,1,462.0,1
633,633,-0.7392203052984359,-0.7,0.0,1.0,473.0,660.0,1.0,0,397.0,1
634,634,-0.6287176097002061,-0.6,1.0,0.0,466.0,589.0,0.0,0,365.0,1
635,635,0.8222160598090852,0.8,1.0,1.0,470.0,619.0,1.0,1,391.0,1
636,636,-0.09709349176477389,-0.1,0.0,1.0,373.0,999.0,0.0,1,338.0,0
637,637,0.2751570473815087,0.3,1.0,1.0,489.0,533.0,1.0,1,608.0,1
638,638,-0.859088201128017,-0.9,1.0,0.0,447.0,846.0,0.0,0,197.0,1
639,639,-0.4347209973400991,-0.4,0.0,1.0,434.0,591.0,1.0,0,455.0,1
640,640,0.3330683069731196,0.3,1.0,1.0,474.0,570.0,1.0,1,356.0,1
641,641,0.7027949493475792,0.7,0.0,0.0,375.0,713.0,0.0,1,452.0,1
642,642,-0.2861492944242269,-0.3,1.0,0.0,327.0,562.0,1.0,1,521.0,0
643,643,0.049250301419534015,0.0,1.0,1.0,444.0,561.0,1.0,1,2615.0,1
644,644,0.4317030543313024,0.4,0.0,0.0,338.0,967.0,1.0,0,-85.0,0
645,645,-0.4715694829483769,-0.5,1.0,0.0,251.0,793.0,0.0,0,356.0,1
646,646,0.6594228155741865,0.7,0.0,0.0,284.0,532.0,0.0,1,584.0,1
647,647,-0.529283199076068,-0.5,0.0,1.0,421.0,759.0,1.0,0,290.0,1
648,648,0.02182487570417324,0.0,0.0,0.0,353.0,565.0,0.0,1,652.0,1
649,649,0.6973300628920299,0.7,1.0,1.0,378.0,960.0,1.0,1,142.0,1
650,650,-0.1731363613197695,-0.2,1.0,0.0,264.0,618.0,0.0,0,1088.0,1
651,651,0.17634365126960028,0.2,0.0,0.0,301.0,936.0,0.0,1,453.0,1
652,652,-0.8871760346478531,-0.9,0.0,1.0,317.0,578.0,1.0,0,205.0,1
653,653,-0.24287120193433465,-0.2,1.0,0.0,370.0,524.0,0.0,0,1306.0,1
654,654,0.8223494843756264,0.8,0.0,0.0,455.0,690.0,0.0,1,425.0,1
655,655,0.47596932190019714,0.5,0.0,0.0,327.0,674.0,0.0,1,129.0,1
656,656,-0.15654192101282893,-0.2,0.0,1.0,335.0,724.0,1.0,0,491.0,1
657,657,-0.852749721499962,-0.9,1.0,0.0,347.0,926.0,0.0,0,317.0,1
658,658,0.7134604692880783,0.7,0.0,0.0,309.0,944.0,0.0,1,127.0,1
659,659,-0.03187779846721317,-0.0,1.0,0.0,352.0,954.0,1.0,1,354.0,0
660,660,-0.06951395045000441,-0.1,1.0,0.0,321.0,957.0,0.0,0,292.0,1
661,661,-0.7156131951788101,-0.7,1.0,0.0,317.0,987.0,0.0,0,76.0,1
662,662,-0.5918255237155268,-0.6,1.0,0.0,347.0,969.0,0.0,0,-176.0,1
663,663,-0.1347437125276323,-0.1,0.0,1.0,257.0,978.0,1.0,0,155.0,1
664,664,-0.5332156411543845,-0.5,0.0,1.0,485.0,875.0,1.0,0,430.0,1
665,665,0.4543376888341585,0.5,0.0,0.0,445.0,772.0,0.0,1,493.0,1
666,666,-0.29714144424363864,-0.3,1.0,0.0,407.0,628.0,1.0,1,225.0,0
667,667,0.6100936668903428,0.6,0.0,0.0,467.0,715.0,0.0,1,198.0,1
668,668,0.2815534139268091,0.3,1.0,1.0,323.0,849.0,1.0,1,148.0,1
669,669,0.0911750377412005,0.1,1.0,1.0,335.0,529.0,1.0,1,1136.0,1
670,670,-0.173363073305686,-0.2,0.0,1.0,315.0,863.0,1.0,0,752.0,1
671,671,-0.7107062387822477,-0.7,1.0,0.0,402.0,938.0,0.0,0,210.0,1
672,672,0.42650164448460026,0.4,0.0,0.0,313.0,623.0,0.0,1,354.0,1
673,673,-0.6124071088381848,-0.6,0.0,1.0,258.0,637.0,1.0,0,265.0,1
674,674,0.16787744774113256,0.2,1.0,1.0,346.0,827.0,1.0,1,1207.0,1
675,675,-0.7645552088860385,-0.8,0.0,1.0,442.0,970.0,1.0,0,478.0,1
676,676,-0.7024939578990516,-0.7,0.0,1.0,434.0,769.0,1.0,0,187.0,1
677,677,0.6849869652996675,0.7,1.0,1.0,405.0,904.0,1.0,1,231.0,1
678,678,-0.6646083574072679,-0.7,0.0,1.0,362.0,783.0,1.0,0,5.0,1
679,679,0.6733866892821351,0.7,0.0,0.0,452.0,635.0,0.0,1,383.0,1
680,680,-0.6659842570180408,-0.7,0.0,1.0,489.0,659.0,1.0,0,402.0,1
681,681,-0.8491534521429583,-0.8,1.0,0.0,496.0,790.0,0.0,0,344.0,1
682,682,-0.29374889314224395,-0.3,0.0,1.0,399.0,597.0,1.0,0,834.0,1
683,683,0.013340612390135287,0.0,1.0,1.0,435.0,509.0,1.0,1,1206.0,1
684,684,0.8897214096830955,0.9,1.0,1.0,297.0,817.0,1.0,1,96.0,1
685,685,-0.34342001342799255,-0.3,0.0,1.0,314.0,770.0,1.0,0,966.0,1
686,686,0.4644267251398432,0.5,0.0,0.0,275.0,930.0,0.0,1,575.0,1
687,687,-0.47584793409686915,-0.5,1.0,0.0,397.0,502.0,0.0,0,601.0,1
688,688,-0.40220128792449145,-0.4,1.0,0.0,394.0,696.0,0.0,0,450.0,1
689,689,-0.7888185061095263,-0.8,1.0,0.0,376.0,714.0,0.0,0,370.0,1
690,690,0.5878780097165063,0.6,1.0,1.0,466.0,652.0,1.0,1,412.0,1
691,691,-0.36590761711196873,-0.4,0.0,1.0,393.0,889.0,1.0,0,318.0,1
692,692,0.3035618102144372,0.3,1.0,1.0,330.0,617.0,1.0,1,713.0,1
693,693,-0.1502791097851417,-0.2,1.0,0.0,493.0,665.0,1.0,1,342.0,0
694,694,-0.847625022573656,-0.8,0.0,1.0,377.0,974.0,1.0,0,219.0,1
695,695,-0.23650648861504409,-0.2,1.0,0.0,462.0,516.0,0.0,0,332.0,1
696,696,0.4333168071139174,0.4,1.0,1.0,410.0,968.0,1.0,1,42.0,1
697,697,-0.693998016171957,-0.7,0.0,1.0,285.0,839.0,1.0,0,116.0,1
698,698,0.8075490158897215,0.8,0.0,0.0,264.0,942.0,0.0,1,594.0,1
699,699,-0.8490857578162372,-0.8,1.0,0.0,294.0,503.0,0.0,0,293.0,1
700,700,-0.25699781855048953,-0.3,1.0,0.0,312.0,553.0,0.0,0,1015.0,1
701,701,0.830117208876202,0.8,0.0,0.0,459.0,813.0,0.0,1,98.0,1
702,702,-0.7800467162444061,-0.8,1.0,0.0,374.0,519.0,0.0,0,517.0,1
703,703,-0.27349405022313056,-0.3,0.0,1.0,416.0,952.0,1.0,0,262.0,1
704,704,-0.1788628617344279,-0.2,0.0,1.0,373.0,880.0,1.0,0,747.0,1
705,705,-0.7887133061351608,-0.8,1.0,0.0,420.0,841.0,0.0,0,99.0,1
706,706,0.6080709914371202,0.6,1.0,1.0,443.0,739.0,1.0,1,278.0,1
707,707,-0.5181270366058588,-0.5,1.0,0.0,369.0,924.0,0.0,0,-83.0,1
708,708,-0.4777050539048109,-0.5,1.0,0.0,250.0,800.0,0.0,0,260.0,1
709,709,0.8041680087812598,0.8,1.0,1.0,294.0,727.0,1.0,1,179.0,1
710,710,0.5647001727866657,0.6,1.0,1.0,411.0,633.0,1.0,1,596.0,1
711,711,-0.6167326952322219,-0.6,1.0,0.0,335.0,845.0,0.0,0,280.0,1
712,712,0.06753415630924908,0.1,0.0,0.0,490.0,849.0,1.0,0,621.0,0
713,713,0.45212995832738045,0.5,1.0,1.0,472.0,996.0,1.0,1,412.0,1
714,714,0.02928659026476188,0.0,1.0,1.0,286.0,864.0,0.0,0,380.0,0
715,715,0.014453277231006867,0.0,1.0,1.0,339.0,676.0,1.0,1,1375.0,1
716,716,-0.861649859261498,-0.9,0.0,1.0,261.0,622.0,1.0,0,357.0,1
717,717,0.13535537621331872,0.1,1.0,1.0,274.0,894.0,1.0,1,242.0,1
718,718,0.32018712322702136,0.3,0.0,0.0,368.0,714.0,0.0,1,308.0,1
719,719,-0.7240461616508876,-0.7,0.0,1.0,427.0,813.0,1.0,0,660.0,1
720,720,-0.7642719747084572,-0.8,0.0,1.0,262.0,830.0,1.0,0,308.0,1
721,721,0.6377187247113815,0.6,0.0,0.0,498.0,652.0,0.0,1,660.0,1
722,722,0.7033469285993373,0.7,1.0,1.0,371.0,679.0,1.0,1,210.0,1
723,723,0.3434702058400766,0.3,1.0,1.0,319.0,954.0,1.0,1,477.0,1
724,724,-0.8114697513042268,-0.8,0.0,1.0,347.0,522.0,1.0,0,441.0,1
725,725,-0.23387264832826749,-0.2,0.0,1.0,274.0,769.0,0.0,1,267.0,0
726,726,-0.653121654100737,-0.7,0.0,1.0,347.0,854.0,1.0,0,329.0,1
727,727,-0.1507513458223455,-0.2,1.0,0.0,347.0,650.0,1.0,1,303.0,0
728,728,0.3049162815419818,0.3,1.0,1.0,404.0,503.0,1.0,1,703.0,1
729,729,-0.6727865889324695,-0.7,0.0,1.0,286.0,524.0,1.0,0,500.0,1
730,730,-0.5483308633325219,-0.5,1.0,0.0,456.0,871.0,0.0,0,203.0,1
731,731,0.16172505791231295,0.2,1.0,1.0,293.0,839.0,1.0,1,268.0,1
732,732,-0.5927398309829711,-0.6,0.0,1.0,417.0,682.0,1.0,0,181.0,1
733,733,0.8883096573954207,0.9,0.0,0.0,487.0,742.0,0.0,1,571.0,1
734,734,0.049176870536344786,0.0,1.0,1.0,278.0,505.0,0.0,0,577.0,0
735,735,0.19449876818715717,0.2,0.0,0.0,380.0,986.0,0.0,1,4.0,1
736,736,-0.45375840572376425,-0.5,0.0,1.0,295.0,540.0,1.0,0,535.0,1
737,737,0.23294330640463234,0.2,0.0,0.0,326.0,808.0,0.0,1,236.0,1
738,738,0.5214827166857011,0.5,1.0,1.0,488.0,874.0,1.0,1,268.0,1
739,739,0.3193408518960005,0.3,1.0,1.0,356.0,866.0,1.0,1,148.0,1
740,740,0.7573471176423033,0.8,0.0,0.0,342.0,589.0,0.0,1,359.0,1
741,741,0.09048852436009203,0.1,1.0,1.0,286.0,504.0,1.0,1,1060.0,1
742,742,-0.1744330707414663,-0.2,0.0,1.0,478.0,692.0,1.0,0,1440.0,1
743,743,-0.7240510046309911,-0.7,1.0,0.0,361.0,560.0,0.0,0,199.0,1
744,744,0.8495147174403407,0.8,1.0,1.0,353.0,663.0,1.0,1,334.0,1
745,745,-0.7042951297665706,-0.7,1.0,0.0,485.0,979.0,0.0,0,246.0,1
746,746,0.47268728244174063,0.5,1.0,1.0,375.0,820.0,1.0,1,735.0,1
747,747,-0.19913903769665986,-0.2,1.0,0.0,419.0,520.0,0.0,0,881.0,1
748,748,-0.04054031952988435,-0.0,1.0,0.0,350.0,907.0,1.0,1,293.0,0
749,749,-0.5782796498028174,-0.6,0.0,1.0,272.0,573.0,1.0,0,515.0,1
750,750,-0.8994838813216273,-0.9,0.0,1.0,344.0,980.0,1.0,0,416.0,1
751,751,0.8898766691136343,0.9,0.0,0.0,294.0,983.0,0.0,1,373.0,1
752,752,0.3726749255058296,0.4,0.0,0.0,479.0,609.0,0.0,1,602.0,1
753,753,-0.6285327766750821,-0.6,0.0,1.0,478.0,554.0,1.0,0,718.0,1
754,754,0.7791744773157662,0.8,1.0,1.0,411.0,585.0,1.0,1,354.0,1
755,755,0.13483241050115702,0.1,1.0,1.0,453.0,581.0,1.0,1,546.0,1
756,756,0.04603499406483946,0.0,0.0,0.0,366.0,950.0,0.0,1,734.0,1
757,757,-0.8344887642287386,-0.8,0.0,1.0,319.0,798.0,1.0,0,483.0,1
758,758,-0.898833068823031,-0.9,1.0,0.0,409.0,641.0,0.0,0,280.0,1
759,759,0.2902780420309067,0.3,1.0,1.0,356.0,519.0,1.0,1,295.0,1
760,760,-0.46050512794455883,-0.5,0.0,1.0,449.0,942.0,0.0,1,-111.0,0
761,761,0.007717933498069041,0.0,0.0,0.0,330.0,874.0,0.0,1,726.0,1
762,762,0.687618530336182,0.7,1.0,1.0,408.0,805.0,1.0,1,177.0,1
763,763,-0.08202434960349658,-0.1,1.0,0.0,315.0,999.0,0.0,0,446.0,1
764,764,-0.09196723075283242,-0.1,0.0,1.0,254.0,896.0,0.0,1,630.0,0
765,765,-0.11180065359124614,-0.1,0.0,1.0,283.0,865.0,1.0,0,-28.0,1
766,766,-0.4877893892867612,-0.5,1.0,0.0,354.0,723.0,0.0,0,683.0,1
767,767,0.013520254734313064,0.0,1.0,1.0,286.0,794.0,0.0,0,510.0,0
768,768,0.31883278041937235,0.3,0.0,0.0,355.0,741.0,0.0,1,434.0,1
769,769,-0.45626322687517573,-0.5,0.0,1.0,400.0,846.0,1.0,0,294.0,1
770,770,0.10756640091632674,0.1,1.0,1.0,391.0,540.0,1.0,1,1099.0,1
771,771,0.05118589893950998,0.1,1.0,1.0,294.0,628.0,0.0,0,1068.0,0
772,772,0.26792243290050977,0.3,0.0,0.0,251.0,960.0,1.0,0,49.0,0
773,773,0.07353246069621389,0.1,1.0,1.0,348.0,819.0,0.0,0,773.0,0
774,774,0.533806372388581,0.5,0.0,0.0,334.0,530.0,0.0,1,526.0,1
775,775,0.3765437728406783,0.4,1.0,1.0,478.0,901.0,1.0,1,461.0,1
776,776,-0.30277553963746806,-0.3,1.0,0.0,410.0,617.0,0.0,0,283.0,1
777,777,0.5138561483224419,0.5,0.0,0.0,347.0,553.0,0.0,1,310.0,1
778,778,0.23087628549953,0.2,0.0,0.0,485.0,657.0,0.0,1,668.0,1
779,779,0.11050760334401322,0.1,0.0,0.0,419.0,848.0,1.0,0,693.0,0
780,780,-0.058250030006054554,-0.1,0.0,1.0,388.0,785.0,1.0,0,1647.0,1
781,781,-0.12808752558205905,-0.1,1.0,0.0,496.0,950.0,0.0,0,984.0,1
782,782,-0.19169529188577694,-0.2,0.0,1.0,475.0,570.0,1.0,0,635.0,1
783,783,0.07360390755757529,0.1,0.0,0.0,420.0,855.0,0.0,1,585.0,1
784,784,-0.00015579884730876348,-0.0,0.0,1.0,264.0,986.0,1.0,0,530.0,1
785,785,-0.15664222778232084,-0.2,0.0,1.0,264.0,749.0,1.0,0,397.0,1
786,786,0.38432781430747387,0.4,1.0,1.0,328.0,940.0,1.0,1,132.0,1
787,787,-0.3068172696156508,-0.3,1.0,0.0,486.0,721.0,0.0,0,543.0,1
788,788,-0.8314174076609335,-0.8,1.0,0.0,466.0,856.0,0.0,0,198.0,1
789,789,0.3550704944267177,0.4,0.0,0.0,296.0,821.0,0.0,1,413.0,1
790,790,-0.11802671032750123,-0.1,1.0,0.0,357.0,618.0,0.0,0,465.0,1
791,791,-0.7812475058478199,-0.8,0.0,1.0,283.0,738.0,1.0,0,209.0,1
792,792,0.271332918669552,0.3,0.0,0.0,427.0,895.0,0.0,1,1668.0,1
793,793,0.34020327599021527,0.3,1.0,1.0,301.0,570.0,1.0,1,679.0,1
794,794,0.8955280350114766,0.9,0.0,0.0,388.0,995.0,0.0,1,167.0,1
795,795,0.4368650416440448,0.4,0.0,0.0,441.0,663.0,0.0,1,476.0,1
796,796,-0.6116727727182324,-0.6,1.0,0.0,449.0,684.0,0.0,0,367.0,1
797,797,-0.03803354568002437,-0.0,0.0,1.0,268.0,963.0,1.0,0,-131.0,1
798,798,-0.3055325137461399,-0.3,0.0,1.0,347.0,676.0,1.0,0,217.0,1
799,799,0.3194758417620299,0.3,1.0,1.0,372.0,559.0,1.0,1,269.0,1
800,800,-0.20565777451873435,-0.2,1.0,0.0,366.0,506.0,0.0,0,1388.0,1
801,801,0.7492710330843687,0.7,0.0,0.0,302.0,999.0,0.0,1,159.0,1
802,802,-0.5289245744077417,-0.5,0.0,1.0,496.0,574.0,1.0,0,490.0,1
803,803,-0.4933645954917654,-0.5,1.0,0.0,489.0,505.0,0.0,0,656.0,1
804,804,-0.41864196117915425,-0.4,1.0,0.0,493.0,519.0,0.0,0,578.0,1
805,805,-0.7955920534431462,-0.8,0.0,1.0,265.0,988.0,1.0,0,377.0,1
806,806,0.8548698559400371,0.9,1.0,1.0,383.0,935.0,1.0,1,382.0,1
807,807,-0.5261060773458477,-0.5,0.0,1.0,289.0,950.0,1.0,0,371.0,1
808,808,-0.5525281877964219,-0.6,1.0,0.0,406.0,859.0,1.0,1,-115.0,0
809,809,0.4400998557490209,0.4,0.0,0.0,382.0,909.0,0.0,1,1019.0,1
810,810,-0.3921520158852958,-0.4,1.0,0.0,493.0,628.0,0.0,0,1099.0,1
811,811,-0.18359597912169967,-0.2,0.0,1.0,356.0,953.0,1.0,0,161.0,1
812,812,-0.02674581617935068,-0.0,1.0,0.0,442.0,660.0,0.0,0,458.0,1
813,813,-0.28504486235390014,-0.3,1.0,0.0,475.0,656.0,0.0,0,339.0,1
814,814,-0.861100174141133,-0.9,1.0,0.0,480.0,756.0,0.0,0,194.0,1
815,815,-0.8111137888353362,-0.8,0.0,1.0,280.0,620.0,1.0,0,170.0,1
816,816,-0.13880510653094058,-0.1,0.0,1.0,418.0,811.0,1.0,0,1811.0,1
817,817,0.7083697800601995,0.7,1.0,1.0,348.0,973.0,1.0,1,269.0,1
818,818,0.21687024369588948,0.2,0.0,0.0,281.0,839.0,0.0,1,1580.0,1
819,819,-0.1833429096846113,-0.2,0.0,1.0,291.0,785.0,1.0,0,404.0,1
820,820,0.7230467658118808,0.7,0.0,0.0,443.0,564.0,0.0,1,473.0,1
821,821,-0.10154023283471703,-0.1,1.0,0.0,490.0,597.0,0.0,0,833.0,1
822,822,0.8506392317035735,0.9,0.0,0.0,415.0,668.0,0.0,1,267.0,1
823,823,-0.8557378000517785,-0.9,0.0,1.0,460.0,948.0,1.0,0,152.0,1
824,824,-0.02162539406778874,-0.0,0.0,1.0,274.0,798.0,1.0,0,448.0,1
825,825,0.2932901093285972,0.3,0.0,0.0,430.0,588.0,0.0,1,782.0,1
826,826,-0.24047915129513253,-0.2,1.0,0.0,456.0,672.0,0.0,0,322.0,1
827,827,-0.22993840746006666,-0.2,0.0,1.0,455.0,504.0,1.0,0,531.0,1
828,828,0.12930478228463504,0.1,1.0,1.0,498.0,867.0,1.0,1,355.0,1
829,829,0.22717962663294233,0.2,0.0,0.0,346.0,741.0,0.0,1,793.0,1
830,830,-0.1832951015743779,-0.2,0.0,1.0,294.0,947.0,1.0,0,329.0,1
831,831,-0.37155002692689676,-0.4,0.0,1.0,477.0,558.0,1.0,0,915.0,1
832,832,-0.15325565757679227,-0.2,0.0,1.0,379.0,797.0,1.0,0,704.0,1
833,833,0.2021290785497284,0.2,1.0,1.0,301.0,521.0,0.0,0,728.0,0
834,834,-0.02215861958552412,-0.0,1.0,0.0,327.0,583.0,0.0,0,1090.0,1
835,835,-0.8845781360983866,-0.9,0.0,1.0,413.0,846.0,1.0,0,81.0,1
836,836,-0.06932404124795355,-0.1,0.0,1.0,412.0,973.0,0.0,1,15.0,0
837,837,-0.1988333507820662,-0.2,1.0,0.0,408.0,752.0,0.0,0,450.0,1
838,838,-0.8074632334271978,-0.8,1.0,0.0,351.0,747.0,0.0,0,222.0,1
839,839,-0.5259644728837438,-0.5,1.0,0.0,463.0,733.0,0.0,0,474.0,1
840,840,-0.39755424910206816,-0.4,0.0,1.0,278.0,746.0,1.0,0,456.0,1
841,841,-0.38648706746084827,-0.4,0.0,1.0,342.0,916.0,1.0,0,332.0,1
842,842,0.308475113566132,0.3,1.0,1.0,433.0,814.0,1.0,1,563.0,1
843,843,0.8344537808389135,0.8,0.0,0.0,449.0,791.0,0.0,1,360.0,1
844,844,-0.7797392655025341,-0.8,1.0,0.0,320.0,834.0,0.0,0,126.0,1
845,845,-0.5266451924496504,-0.5,0.0,1.0,374.0,725.0,1.0,0,611.0,1
846,846,-0.055979308783415616,-0.1,1.0,0.0,269.0,880.0,0.0,0,371.0,1
847,847,0.7321015396883744,0.7,1.0,1.0,260.0,855.0,1.0,1,195.0,1
848,848,-0.2947242171482557,-0.3,1.0,0.0,328.0,810.0,0.0,0,442.0,1
849,849,-0.8110413422952073,-0.8,0.0,1.0,399.0,659.0,1.0,0,262.0,1
850,850,0.04112945920022626,0.0,1.0,1.0,281.0,646.0,1.0,1,393.0,1
851,851,0.3375445949979058,0.3,1.0,1.0,464.0,769.0,1.0,1,587.0,1
852,852,-0.4842512384683157,-0.5,1.0,0.0,445.0,586.0,0.0,0,169.0,1
853,853,-0.6544597693302641,-0.7,1.0,0.0,470.0,501.0,0.0,0,389.0,1
854,854,-0.10578209107903669,-0.1,0.0,1.0,415.0,702.0,1.0,0,873.0,1
855,855,0.7186721962624328,0.7,1.0,1.0,400.0,743.0,1.0,1,227.0,1
856,856,-0.8550385506325697,-0.9,1.0,0.0,418.0,732.0,0.0,0,260.0,1
857,857,0.7527264791695542,0.8,0.0,0.0,457.0,925.0,0.0,1,238.0,1
858,858,0.7844980987428368,0.8,0.0,0.0,441.0,664.0,0.0,1,805.0,1
859,859,0.5685764282116846,0.6,1.0,1.0,291.0,608.0,1.0,1,601.0,1
860,860,0.14566110654223208,0.1,1.0,1.0,336.0,867.0,0.0,0,617.0,0
861,861,0.8814436979787518,0.9,1.0,1.0,430.0,735.0,1.0,1,205.0,1
862,862,-0.8033502005341481,-0.8,0.0,1.0,437.0,700.0,1.0,0,273.0,1
863,863,0.4472681991516433,0.4,0.0,0.0,398.0,816.0,0.0,1,386.0,1
864,864,0.6841793947262057,0.7,1.0,1.0,265.0,686.0,1.0,1,389.0,1
865,865,-0.5839834853775766,-0.6,0.0,1.0,450.0,702.0,1.0,0,468.0,1
866,866,-0.7512475255127758,-0.8,1.0,0.0,279.0,629.0,0.0,0,392.0,1
867,867,-0.17651740924079062,-0.2,0.0,1.0,344.0,560.0,0.0,1,976.0,0
868,868,0.46345817098412223,0.5,0.0,0.0,434.0,984.0,0.0,1,432.0,1
869,869,0.36078267021099697,0.4,1.0,1.0,306.0,908.0,1.0,1,106.0,1
870,870,0.509314108690658,0.5,0.0,0.0,488.0,945.0,0.0,1,187.0,1
871,871,0.7557017712764013,0.8,0.0,0.0,340.0,628.0,0.0,1,482.0,1
872,872,0.0627335510703283,0.1,1.0,1.0,386.0,696.0,0.0,0,438.0,0
873,873,-0.2504780104367156,-0.3,1.0,0.0,262.0,615.0,1.0,1,273.0,0
874,874,-0.1544385141459198,-0.2,1.0,0.0,491.0,896.0,1.0,1,-37.0,0
875,875,0.46422365358175643,0.5,1.0,1.0,293.0,605.0,1.0,1,572.0,1
876,876,-0.20398383032308665,-0.2,0.0,1.0,257.0,549.0,1.0,0,514.0,1
877,877,0.8520190998823803,0.9,1.0,1.0,397.0,935.0,1.0,1,-32.0,1
878,878,-0.365582974020214,-0.4,0.0,1.0,362.0,503.0,1.0,0,315.0,1
879,879,0.8104234570228296,0.8,1.0,1.0,328.0,502.0,1.0,1,450.0,1
880,880,0.22600189364004752,0.2,1.0,1.0,334.0,974.0,0.0,0,352.0,0
881,881,-0.7212022400573841,-0.7,1.0,0.0,442.0,540.0,0.0,0,638.0,1
882,882,-0.6595079925443995,-0.7,1.0,0.0,466.0,533.0,0.0,0,411.0,1
883,883,-0.6684066659339234,-0.7,0.0,1.0,460.0,879.0,1.0,0,131.0,1
884,884,-0.4156723191209612,-0.4,1.0,0.0,278.0,801.0,0.0,0,541.0,1
885,885,-0.6247559284409093,-0.6,1.0,0.0,493.0,912.0,0.0,0,275.0,1
886,886,-0.08930313541315182,-0.1,1.0,0.0,490.0,751.0,1.0,1,949.0,0
887,887,-0.277528950136375,-0.3,0.0,1.0,445.0,925.0,1.0,0,310.0,1
888,888,0.718932517906777,0.7,1.0,1.0,480.0,555.0,1.0,1,395.0,1
889,889,-0.7147794140435728,-0.7,0.0,1.0,294.0,789.0,1.0,0,347.0,1
890,890,-0.8611586268293666,-0.9,1.0,0.0,323.0,513.0,0.0,0,214.0,1
891,891,0.5706320096357266,0.6,1.0,1.0,263.0,974.0,1.0,1,103.0,1
892,892,-0.41012732820639464,-0.4,0.0,1.0,490.0,677.0,1.0,0,93.0,1
893,893,0.7805800179128423,0.8,1.0,1.0,412.0,812.0,1.0,1,186.0,1
894,894,-0.06459199547717898,-0.1,0.0,1.0,369.0,747.0,0.0,1,1344.0,0
895,895,0.1654376778695582,0.2,0.0,0.0,417.0,733.0,1.0,0,440.0,0
896,896,0.04678618325876449,0.0,0.0,0.0,366.0,652.0,1.0,0,332.0,0
897,897,0.4898607291187228,0.5,0.0,0.0,337.0,630.0,0.0,1,463.0,1
898,898,-0.5586539441208485,-0.6,1.0,0.0,254.0,969.0,0.0,0,67.0,1
899,899,0.8569503349311572,0.9,0.0,0.0,466.0,784.0,0.0,1,350.0,1
900,900,-0.38712039176084767,-0.4,1.0,0.0,422.0,803.0,0.0,0,625.0,1
901,901,0.32134075672095086,0.3,0.0,0.0,410.0,890.0,0.0,1,640.0,1
902,902,0.07009408762983815,0.1,1.0,1.0,430.0,553.0,1.0,1,717.0,1
903,903,-0.35194831594943454,-0.4,0.0,1.0,475.0,607.0,1.0,0,558.0,1
904,904,0.7232569381184785,0.7,0.0,0.0,438.0,788.0,0.0,1,294.0,1
905,905,-0.1443495819105981,-0.1,0.0,1.0,477.0,532.0,1.0,0,1181.0,1
906,906,-0.7797638379072974,-0.8,1.0,0.0,458.0,559.0,0.0,0,483.0,1
907,907,0.14144545050705692,0.1,1.0,1.0,477.0,659.0,1.0,1,384.0,1
908,908,-0.17566876106838047,-0.2,0.0,1.0,479.0,611.0,1.0,0,480.0,1
909,909,-0.49688888729667974,-0.5,1.0,0.0,363.0,812.0,0.0,0,255.0,1
910,910,0.7168779667209545,0.7,1.0,1.0,343.0,587.0,1.0,1,360.0,1
911,911,0.6027705692771484,0.6,0.0,0.0,415.0,541.0,0.0,1,294.0,1
912,912,0.10596784368721235,0.1,1.0,1.0,357.0,946.0,0.0,0,127.0,0
913,913,0.8256795026259766,0.8,0.0,0.0,478.0,691.0,0.0,1,381.0,1
914,914,-0.8623221473375375,-0.9,0.0,1.0,255.0,926.0,1.0,0,119.0,1
915,915,0.38087099568171945,0.4,0.0,0.0,417.0,506.0,0.0,1,957.0,1
916,916,-0.06870264580640661,-0.1,1.0,0.0,443.0,949.0,0.0,0,418.0,1
917,917,0.8583880957773317,0.9,0.0,0.0,454.0,974.0,1.0,0,-88.0,0
918,918,0.6310240015435252,0.6,0.0,0.0,389.0,966.0,0.0,1,745.0,1
919,919,0.33281780254949933,0.3,0.0,0.0,430.0,542.0,0.0,1,688.0,1
920,920,-0.5182210811344137,-0.5,0.0,1.0,353.0,593.0,1.0,0,594.0,1
921,921,0.8679284001456155,0.9,1.0,1.0,305.0,529.0,1.0,1,256.0,1
922,922,0.8261930909319793,0.8,0.0,0.0,455.0,590.0,0.0,1,595.0,1
923,923,-0.8444469296275331,-0.8,1.0,0.0,419.0,962.0,0.0,0,119.0,1
924,924,-0.7024649416649339,-0.7,0.0,1.0,479.0,638.0,1.0,0,233.0,1
925,925,-0.06993266716647717,-0.1,1.0,0.0,286.0,844.0,0.0,0,330.0,1
926,926,-0.6581450876292664,-0.7,1.0,0.0,309.0,864.0,0.0,0,317.0,1
927,927,-0.5507824865509663,-0.6,0.0,1.0,283.0,927.0,1.0,0,320.0,1
928,928,-0.8955068743333936,-0.9,1.0,0.0,323.0,997.0,0.0,0,80.0,1
929,929,-0.28901469072794317,-0.3,0.0,1.0,458.0,832.0,1.0,0,-40.0,1
930,930,-0.83362761770385,-0.8,0.0,1.0,347.0,658.0,1.0,0,395.0,1
931,931,0.5343819208551946,0.5,0.0,0.0,415.0,941.0,0.0,1,344.0,1
932,932,0.2297933802756652,0.2,1.0,1.0,401.0,519.0,1.0,1,400.0,1
933,933,-0.3351320480170352,-0.3,1.0,0.0,348.0,518.0,0.0,0,644.0,1
934,934,0.4081485616614685,0.4,0.0,0.0,275.0,995.0,0.0,1,660.0,1
935,935,0.5289949536942192,0.5,0.0,0.0,369.0,938.0,0.0,1,473.0,1
936,936,0.7457162355939589,0.7,1.0,1.0,315.0,804.0,1.0,1,231.0,1
937,937,-0.06820481497037756,-0.1,0.0,1.0,418.0,732.0,1.0,0,570.0,1
938,938,-0.6255839239873333,-0.6,1.0,0.0,474.0,557.0,0.0,0,249.0,1
939,939,0.7922928188379622,0.8,1.0,1.0,466.0,710.0,1.0,1,324.0,1
940,940,-0.6808600575369315,-0.7,0.0,1.0,480.0,511.0,1.0,0,319.0,1
941,941,0.2163997418606437,0.2,1.0,1.0,354.0,785.0,1.0,1,1301.0,1
942,942,-0.8411710451061042,-0.8,0.0,1.0,312.0,607.0,1.0,0,501.0,1
943,943,-0.873330308278362,-0.9,1.0,0.0,361.0,843.0,0.0,0,136.0,1
944,944,0.717253041246967,0.7,1.0,1.0,383.0,719.0,1.0,1,338.0,1
945,945,-0.45976525550282293,-0.5,0.0,1.0,408.0,621.0,1.0,0,231.0,1
946,946,0.46689216487762353,0.5,1.0,1.0,439.0,507.0,1.0,1,374.0,1
947,947,0.37729998703098955,0.4,1.0,1.0,434.0,563.0,1.0,1,393.0,1
948,948,-0.8436746182656436,-0.8,0.0,1.0,394.0,549.0,1.0,0,307.0,1
949,949,0.8928195821726813,0.9,0.0,0.0,424.0,583.0,0.0,1,503.0,1
950,950,-0.29359451075333676,-0.3,0.0,1.0,456.0,560.0,1.0,0,1004.0,1
951,951,0.24723802245154014,0.2,0.0,0.0,289.0,517.0,0.0,1,854.0,1
952,952,-0.6563367941507272,-0.7,0.0,1.0,305.0,998.0,1.0,0,-153.0,1
953,953,0.6229302236616304,0.6,1.0,1.0,357.0,978.0,1.0,1,335.0,1
954,954,-0.5625253891440464,-0.6,1.0,0.0,465.0,665.0,0.0,0,250.0,1
955,955,0.5665067167484797,0.6,1.0,1.0,352.0,619.0,1.0,1,339.0,1
956,956,-0.2514364419310806,-0.3,1.0,0.0,336.0,686.0,0.0,0,518.0,1
957,957,-0.3257108533329973,-0.3,0.0,1.0,281.0,757.0,1.0,0,302.0,1
958,958,-0.37246370284494446,-0.4,0.0,1.0,397.0,532.0,1.0,0,631.0,1
959,959,0.8624219450419576,0.9,0.0,0.0,258.0,684.0,0.0,1,278.0,1
960,960,0.7939195913197566,0.8,1.0,1.0,464.0,530.0,1.0,1,256.0,1
961,961,0.047169071441205856,0.0,0.0,0.0,479.0,738.0,0.0,1,563.0,1
962,962,0.8690877123929309,0.9,1.0,1.0,392.0,658.0,1.0,1,340.0,1
963,963,0.2893349770449093,0.3,0.0,0.0,350.0,594.0,0.0,1,586.0,1
964,964,-0.7496574815583255,-0.7,1.0,0.0,451.0,741.0,0.0,0,508.0,1
965,965,-0.003784426692364229,-0.0,1.0,0.0,391.0,681.0,0.0,0,1868.0,1
966,966,-0.6846766248848397,-0.7,1.0,0.0,489.0,882.0,0.0,0,289.0,1
967,967,0.3885567345578361,0.4,0.0,0.0,378.0,553.0,0.0,1,979.0,1
968,968,-0.32008509426450504,-0.3,1.0,0.0,285.0,594.0,0.0,0,371.0,1
969,969,-0.19396788490072325,-0.2,0.0,1.0,360.0,775.0,1.0,0,575.0,1
970,970,0.5362273863842945,0.5,1.0,1.0,295.0,581.0,1.0,1,364.0,1
971,971,0.2899161074239055,0.3,0.0,0.0,401.0,713.0,0.0,1,306.0,1
972,972,0.14729398520091597,0.1,0.0,0.0,339.0,629.0,0.0,1,1012.0,1
973,973,-0.1370561666502148,-0.1,0.0,1.0,324.0,879.0,1.0,0,777.0,1
974,974,0.8261947357694587,0.8,1.0,1.0,496.0,757.0,1.0,1,277.0,1
975,975,0.003935823591078136,0.0,1.0,1.0,436.0,944.0,1.0,1,770.0,1
976,976,-0.18031216841584852,-0.2,1.0,0.0,264.0,965.0,0.0,0,411.0,1
977,977,0.6132867555641192,0.6,1.0,1.0,378.0,815.0,1.0,1,47.0,1
978,978,-0.12666562916803614,-0.1,0.0,1.0,286.0,792.0,1.0,0,382.0,1
979,979,0.829528363229591,0.8,1.0,1.0,371.0,826.0,1.0,1,153.0,1
980,980,0.4425461568843939,0.4,1.0,1.0,416.0,957.0,1.0,1,127.0,1
981,981,-0.09740168770405888,-0.1,1.0,0.0,374.0,673.0,0.0,0,873.0,1
982,982,-0.7261390385181565,-0.7,0.0,1.0,396.0,755.0,1.0,0,399.0,1
983,983,-0.5145961161374877,-0.5,0.0,1.0,343.0,863.0,0.0,1,-16.0,0
984,984,-0.4219327815589148,-0.4,0.0,1.0,452.0,720.0,1.0,0,478.0,1
985,985,-0.17504503756906908,-0.2,0.0,1.0,455.0,582.0,1.0,0,553.0,1
986,986,0.24212430205964652,0.2,1.0,1.0,470.0,553.0,1.0,1,517.0,1
987,987,-0.05301737470365053,-0.1,1.0,0.0,264.0,571.0,1.0,1,845.0,0
988,988,-0.03431737506236554,-0.0,1.0,0.0,397.0,723.0,0.0,0,640.0,1
989,989,0.8371074095249503,0.8,0.0,0.0,358.0,704.0,0.0,1,418.0,1
990,990,-0.4985631058308303,-0.5,0.0,1.0,306.0,706.0,1.0,0,208.0,1
991,991,-0.0016445244496814393,-0.0,1.0,0.0,459.0,601.0,0.0,0,2500.0,1
992,992,0.24122361497965195,0.2,1.0,1.0,330.0,932.0,1.0,1,358.0,1
993,993,-0.06463237154461365,-0.1,1.0,0.0,463.0,716.0,0.0,0,1061.0,1
994,994,0.41710711943609746,0.4,1.0,1.0,357.0,966.0,1.0,1,447.0,1
995,995,0.17899968276536937,0.2,0.0,0.0,385.0,699.0,0.0,1,1096.0,1
996,996,-0.3273182024811907,-0.3,1.0,0.0,365.0,612.0,0.0,0,323.0,1
997,997,-0.024235509194716842,-0.0,1.0,0.0,451.0,901.0,1.0,1,318.0,0
998,998,-0.5684497159903902,-0.6,0.0,1.0,441.0,608.0,1.0,0,201.0,1
999,999,0.6065007573135731,0.6,0.0,0.0,257.0,909.0,0.0,1,454.0,1
1000,1000,0.3200639350317037,0.3,0.0,0.0,404.0,559.0,0.0,1,1477.0,1
1001,1001,-0.5267358403775424,-0.5,0.0,1.0,432.0,855.0,1.0,0,253.0,1
1002,1002,0.7186618319663819,0.7,1.0,1.0,401.0,938.0,1.0,1,191.0,1
1003,1003,-0.07986366430353065,-0.1,0.0,1.0,299.0,867.0,1.0,0,194.0,1
1004,1004,0.5333201996933553,0.5,0.0,0.0,436.0,633.0,0.0,1,331.0,1
1005,1005,-0.3228726325393466,-0.3,1.0,0.0,398.0,605.0,0.0,0,507.0,1
1006,1006,-0.6180497639068387,-0.6,0.0,1.0,305.0,564.0,1.0,0,501.0,1
1007,1007,0.6347630846887561,0.6,0.0,0.0,420.0,870.0,0.0,1,440.0,1
1008,1008,-0.4094369944937468,-0.4,0.0,1.0,449.0,857.0,1.0,0,304.0,1
1009,1009,-0.05760520259391755,-0.1,0.0,1.0,266.0,790.0,0.0,1,2064.0,0
1010,1010,-0.816690729061746,-0.8,0.0,1.0,446.0,789.0,1.0,0,235.0,1
1011,1011,-0.21175584909458045,-0.2,0.0,1.0,459.0,826.0,1.0,0,495.0,1
1012,1012,-0.6192854562709925,-0.6,0.0,1.0,377.0,932.0,1.0,0,21.0,1
1013,1013,-0.7483171085357083,-0.7,1.0,0.0,274.0,933.0,1.0,1,3.0,0
1014,1014,0.6108991144123438,0.6,0.0,0.0,255.0,863.0,0.0,1,242.0,1
1015,1015,-0.41946116171864467,-0.4,0.0,1.0,335.0,843.0,1.0,0,642.0,1
1016,1016,-0.4914670333798596,-0.5,1.0,0.0,285.0,830.0,0.0,0,245.0,1
1017,1017,-0.42843547334730875,-0.4,0.0,1.0,406.0,786.0,1.0,0,58.0,1
1018,1018,0.8764234291265115,0.9,1.0,1.0,349.0,702.0,1.0,1,129.0,1
1019,1019,0.6552763514958347,0.7,0.0,0.0,376.0,915.0,0.0,1,509.0,1
1020,1020,-0.6692132157825663,-0.7,0.0,1.0,474.0,664.0,1.0,0,412.0,1
1021,1021,0.4649791901868151,0.5,1.0,1.0,473.0,788.0,1.0,1,289.0,1
1022,1022,0.4192145666701551,0.4,1.0,1.0,452.0,927.0,1.0,1,201.0,1
1023,1023,0.36834056564319095,0.4,1.0,1.0,490.0,797.0,1.0,1,593.0,1
1024,1024,0.3865047625995174,0.4,0.0,0.0,291.0,602.0,0.0,1,987.0,1
1025,1025,0.7033709768045692,0.7,0.0,0.0,384.0,745.0,0.0,1,321.0,1
1026,1026,-0.7487237148870717,-0.7,1.0,0.0,294.0,797.0,0.0,0,209.0,1
1027,1027,-0.02749508819678259,-0.0,0.0,1.0,393.0,996.0,1.0,0,731.0,1
1028,1028,-0.15388363343772882,-0.2,0.0,1.0,353.0,871.0,1.0,0,146.0,1
1029,1029,0.6415085392650294,0.6,0.0,0.0,492.0,627.0,0.0,1,181.0,1
1030,1030,-0.22254493686035914,-0.2,1.0,0.0,429.0,840.0,0.0,0,171.0,1
1031,1031,0.45593662650883704,0.5,1.0,1.0,355.0,958.0,1.0,1,57.0,1
1032,1032,-0.22007823740162769,-0.2,0.0,1.0,348.0,538.0,1.0,0,514.0,1
1033,1033,0.5926065076143737,0.6,0.0,0.0,418.0,894.0,0.0,1,288.0,1
1034,1034,-0.5827765746944891,-0.6,1.0,0.0,280.0,903.0,0.0,0,327.0,1
1035,1035,-0.7010457243248337,-0.7,0.0,1.0,430.0,562.0,1.0,0,538.0,1
1036,1036,-0.12126235781869132,-0.1,0.0,1.0,333.0,957.0,0.0,1,270.0,0
1037,1037,-0.8677152902156353,-0.9,1.0,0.0,299.0,895.0,0.0,0,136.0,1
1038,1038,-0.7372577506574628,-0.7,0.0,1.0,324.0,855.0,1.0,0,211.0,1
1039,1039,-0.8823594993387195,-0.9,1.0,0.0,448.0,535.0,0.0,0,417.0,1
1040,1040,0.08830010446167225,0.1,0.0,0.0,326.0,797.0,1.0,0,727.0,0
1041,1041,0.7654152608260371,0.8,0.0,0.0,290.0,739.0,0.0,1,401.0,1
1042,1042,0.15325869009623638,0.2,0.0,0.0,450.0,846.0,0.0,1,784.0,1
1043,1043,-0.1596421419241293,-0.2,0.0,1.0,386.0,765.0,0.0,1,299.0,0
1044,1044,0.21031313597937096,0.2,1.0,1.0,283.0,547.0,0.0,0,1200.0,0
1045,1045,-0.23748901430475422,-0.2,1.0,0.0,352.0,945.0,0.0,0,663.0,1
1046,1046,0.7239120127320323,0.7,1.0,1.0,349.0,606.0,1.0,1,455.0,1
1047,1047,0.5575519709746938,0.6,1.0,1.0,441.0,766.0,1.0,1,183.0,1
1048,1048,-0.5882274618990311,-0.6,0.0,1.0,481.0,769.0,1.0,0,340.0,1
1049,1049,0.7946749555425304,0.8,1.0,1.0,364.0,770.0,1.0,1,66.0,1
1050,1050,0.16999753348669155,0.2,0.0,0.0,408.0,875.0,0.0,1,367.0,1
1051,1051,0.043431206103968,0.0,1.0,1.0,498.0,764.0,1.0,1,18.0,1
1052,1052,0.567589952600854,0.6,1.0,1.0,330.0,966.0,1.0,1,444.0,1
1053,1053,-0.34051615435331606,-0.3,1.0,0.0,284.0,876.0,0.0,0,180.0,1
1054,1054,-0.013933691787413327,-0.0,0.0,1.0,327.0,800.0,1.0,0,953.0,1
1055,1055,-0.4225916885743734,-0.4,1.0,0.0,472.0,956.0,0.0,0,112.0,1
1056,1056,0.03779642376127024,0.0,1.0,1.0,308.0,704.0,1.0,1,328.0,1
1057,1057,-0.7815334154509951,-0.8,0.0,1.0,428.0,717.0,1.0,0,275.0,1
1058,1058,-0.5453732094780814,-0.5,0.0,1.0,253.0,833.0,1.0,0,434.0,1
1059,1059,0.2078415936100687,0.2,1.0,1.0,399.0,860.0,1.0,1,761.0,1
1060,1060,0.7666188037842833,0.8,0.0,0.0,348.0,786.0,0.0,1,216.0,1
1061,1061,-0.5752515409583567,-0.6,1.0,0.0,450.0,698.0,0.0,0,222.0,1
1062,1062,0.36488808102839665,0.4,1.0,1.0,472.0,989.0,1.0,1,239.0,1
1063,1063,0.4550320243724012,0.5,0.0,0.0,337.0,975.0,0.0,1,338.0,1
1064,1064,0.0799272593166358,0.1,1.0,1.0,389.0,952.0,1.0,1,179.0,1
1065,1065,-0.22577651559221446,-0.2,1.0,0.0,281.0,877.0,0.0,0,882.0,1
1066,1066,-0.8834110699592757,-0.9,0.0,1.0,492.0,736.0,1.0,0,312.0,1
1067,1067,-0.193015648168385,-0.2,0.0,1.0,341.0,678.0,1.0,0,581.0,1
1068,1068,0.7462503847789664,0.7,1.0,1.0,375.0,939.0,1.0,1,916.0,1
1069,1069,0.07818591582847745,0.1,0.0,0.0,358.0,699.0,1.0,0,663.0,0
1070,1070,-0.656892969405263,-0.7,0.0,1.0,478.0,695.0,1.0,0,387.0,1
1071,1071,-0.6216524183513799,-0.6,0.0,1.0,496.0,642.0,1.0,0,222.0,1
1072,1072,-0.145403672684297,-0.1,0.0,1.0,318.0,621.0,1.0,0,451.0,1
1073,1073,0.4004625565872414,0.4,0.0,0.0,367.0,501.0,0.0,1,1152.0,1
1074,1074,0.23871176166479458,0.2,1.0,1.0,336.0,904.0,1.0,1,70.0,1
1075,1075,0.30827408909745013,0.3,1.0,1.0,309.0,609.0,1.0,1,312.0,1
1076,1076,-0.026283717543543528,-0.0,1.0,0.0,448.0,633.0,1.0,1,899.0,0
1077,1077,0.5598789670038503,0.6,0.0,0.0,269.0,582.0,0.0,1,759.0,1
1078,1078,-0.10019588732937845,-0.1,1.0,0.0,397.0,532.0,1.0,1,721.0,0
1079,1079,-0.823524998992938,-0.8,0.0,1.0,385.0,994.0,1.0,0,11.0,1
1080,1080,-0.18260980029051976,-0.2,0.0,1.0,327.0,662.0,1.0,0,391.0,1
1081,1081,0.18137736393235515,0.2,1.0,1.0,384.0,733.0,0.0,0,543.0,0
1082,1082,-0.26682282058422513,-0.3,1.0,0.0,266.0,997.0,1.0,1,197.0,0
1083,1083,0.11415795859800115,0.1,1.0,1.0,364.0,705.0,1.0,1,101.0,1
1084,1084,-0.043504348675065474,-0.0,1.0,0.0,499.0,843.0,0.0,0,428.0,1
1085,1085,0.2823772588096628,0.3,0.0,0.0,471.0,856.0,0.0,1,493.0,1
1086,1086,0.8116074637720639,0.8,1.0,1.0,399.0,928.0,1.0,1,-127.0,1
1087,1087,-0.3541793378897141,-0.4,0.0,1.0,466.0,701.0,1.0,0,423.0,1
1088,1088,-0.5136996195338315,-0.5,0.0,1.0,293.0,699.0,1.0,0,118.0,1
1089,1089,-0.6266219248338485,-0.6,1.0,0.0,375.0,981.0,0.0,0,4.0,1
1090,1090,0.4777864665245307,0.5,1.0,1.0,482.0,617.0,1.0,1,571.0,1
1091,1091,-0.32939216902782,-0.3,1.0,0.0,421.0,852.0,1.0,1,357.0,0
1092,1092,-0.6170186435158727,-0.6,0.0,1.0,405.0,915.0,1.0,0,410.0,1
1093,1093,-0.2117740937560484,-0.2,0.0,1.0,427.0,864.0,0.0,1,749.0,0
1094,1094,-0.45781882336654384,-0.5,0.0,1.0,434.0,577.0,1.0,0,329.0,1
1095,1095,0.744321839000564,0.7,1.0,1.0,494.0,518.0,1.0,1,598.0,1
1096,1096,-0.18691518775340177,-0.2,0.0,1.0,475.0,968.0,0.0,1,207.0,0
1097,1097,0.4492275627077419,0.4,1.0,1.0,271.0,673.0,1.0,1,296.0,1
1098,1098,-0.5467067153178331,-0.5,1.0,0.0,402.0,650.0,0.0,0,278.0,1
1099,1099,-0.6077347794940681,-0.6,0.0,1.0,427.0,528.0,1.0,0,545.0,1
1100,1100,-0.354699739906545,-0.4,0.0,1.0,464.0,616.0,1.0,0,350.0,1
1101,1101,-0.82495502094989,-0.8,0.0,1.0,294.0,917.0,1.0,0,99.0,1
1102,1102,0.30003317275418573,0.3,0.0,0.0,351.0,547.0,0.0,1,502.0,1
1103,1103,0.0708157934380188,0.1,0.0,0.0,403.0,797.0,1.0,0,1540.0,0
1104,1104,0.6470634900126885,0.6,0.0,0.0,430.0,651.0,0.0,1,329.0,1
1105,1105,-0.07673496464337803,-0.1,1.0,0.0,297.0,778.0,1.0,1,1035.0,0
1106,1106,-0.3348342003818279,-0.3,1.0,0.0,428.0,651.0,1.0,1,181.0,0
1107,1107,-0.4586271019783517,-0.5,1.0,0.0,490.0,913.0,0.0,0,977.0,1
1108,1108,-0.26888531173816044,-0.3,0.0,1.0,352.0,882.0,1.0,0,586.0,1
1109,1109,-0.39751048492192886,-0.4,0.0,1.0,351.0,905.0,1.0,0,924.0,1
1110,1110,0.7929687918064224,0.8,0.0,0.0,394.0,792.0,0.0,1,414.0,1
1111,1111,-0.09767104113105252,-0.1,0.0,1.0,463.0,912.0,1.0,0,625.0,1
1112,1112,0.8061839257549451,0.8,1.0,1.0,288.0,826.0,1.0,1,206.0,1
1113,1113,0.5164984270329459,0.5,0.0,0.0,274.0,582.0,0.0,1,454.0,1
1114,1114,0.4660468860941388,0.5,0.0,0.0,409.0,674.0,0.0,1,907.0,1
1115,1115,-0.8175833766524329,-0.8,0.0,1.0,441.0,658.0,1.0,0,141.0,1
1116,1116,-0.30565753486300873,-0.3,0.0,1.0,480.0,611.0,1.0,0,479.0,1
1117,1117,0.8366707970134629,0.8,1.0,1.0,444.0,635.0,1.0,1,521.0,1
1118,1118,-0.6147562743731689,-0.6,0.0,1.0,448.0,660.0,1.0,0,452.0,1
1119,1119,-0.17559049657511083,-0.2,1.0,0.0,364.0,740.0,0.0,0,226.0,1
1120,1120,-0.7567925733372999,-0.8,0.0,1.0,497.0,550.0,1.0,0,263.0,1
1121,1121,0.39650715767274003,0.4,0.0,0.0,466.0,735.0,0.0,1,559.0,1
1122,1122,-0.2433247917497905,-0.2,1.0,0.0,280.0,884.0,0.0,0,446.0,1
1123,1123,0.3464666918192961,0.3,0.0,0.0,368.0,892.0,1.0,0,30.0,0
1124,1124,-0.2850279263901889,-0.3,1.0,0.0,363.0,930.0,0.0,0,847.0,1
1125,1125,-0.09097229025436382,-0.1,1.0,0.0,494.0,610.0,0.0,0,646.0,1
1126,1126,0.42093295464036784,0.4,0.0,0.0,328.0,615.0,0.0,1,457.0,1
1127,1127,0.14895104042126983,0.1,1.0,1.0,294.0,715.0,1.0,1,201.0,1
1128,1128,-0.7535037328872161,-0.8,0.0,1.0,377.0,875.0,1.0,0,158.0,1
1129,1129,0.6556799939078831,0.7,0.0,0.0,394.0,943.0,0.0,1,223.0,1
1130,1130,-0.5455212292841607,-0.5,0.0,1.0,251.0,572.0,1.0,0,447.0,1
1131,1131,-0.09561546332859061,-0.1,1.0,0.0,420.0,880.0,1.0,1,210.0,0
1132,1132,0.6416673344919049,0.6,1.0,1.0,269.0,557.0,1.0,1,564.0,1
1133,1133,-0.5981234281473271,-0.6,0.0,1.0,367.0,604.0,1.0,0,529.0,1
1134,1134,-0.5319258180957189,-0.5,1.0,0.0,272.0,543.0,0.0,0,495.0,1
1135,1135,-0.13410160458381626,-0.1,0.0,1.0,358.0,547.0,1.0,0,1325.0,1
1136,1136,-0.7870570974128224,-0.8,0.0,1.0,259.0,885.0,1.0,0,-64.0,1
1137,1137,0.3157745498392589,0.3,1.0,1.0,343.0,696.0,1.0,1,351.0,1
1138,1138,0.003974050504082727,0.0,0.0,0.0,415.0,831.0,0.0,1,1214.0,1
1139,1139,0.6006162479235865,0.6,0.0,0.0,317.0,840.0,0.0,1,243.0,1
1140,1140,0.2893057419575361,0.3,1.0,1.0,309.0,721.0,1.0,1,410.0,1
1141,1141,-0.2148907829594502,-0.2,0.0,1.0,324.0,921.0,1.0,0,415.0,1
1142,1142,0.5254561896256739,0.5,0.0,0.0,403.0,508.0,0.0,1,569.0,1
1143,1143,0.4386454669686496,0.4,1.0,1.0,262.0,690.0,1.0,1,908.0,1
1144,1144,-0.6307857539630217,-0.6,1.0,0.0,262.0,640.0,0.0,0,568.0,1
1145,1145,-0.12847343979288683,-0.1,0.0,1.0,260.0,851.0,1.0,0,109.0,1
1146,1146,-0.5464939904372339,-0.5,0.0,1.0,337.0,537.0,1.0,0,356.0,1
1147,1147,-0.8107986114922896,-0.8,1.0,0.0,427.0,671.0,0.0,0,542.0,1
1148,1148,0.23792978475032578,0.2,0.0,0.0,337.0,816.0,0.0,1,517.0,1
1149,1149,0.7954574486605318,0.8,1.0,1.0,309.0,833.0,1.0,1,148.0,1
1150,1150,0.3409412764608074,0.3,1.0,1.0,295.0,681.0,1.0,1,144.0,1
1151,1151,-0.052373233788583495,-0.1,0.0,1.0,482.0,514.0,1.0,0,524.0,1
1152,1152,0.8226738941345287,0.8,1.0,1.0,448.0,681.0,1.0,1,381.0,1
1153,1153,-0.6744590860976978,-0.7,0.0,1.0,325.0,883.0,1.0,0,92.0,1
1154,1154,-0.4925973124808857,-0.5,0.0,1.0,287.0,588.0,1.0,0,275.0,1
1155,1155,-0.2569447012138778,-0.3,0.0,1.0,379.0,613.0,1.0,0,508.0,1
1156,1156,-0.4650744107224227,-0.5,0.0,1.0,319.0,712.0,1.0,0,439.0,1
1157,1157,-0.004578695279748413,-0.0,0.0,1.0,450.0,937.0,0.0,1,703.0,0
1158,1158,0.7688968667467785,0.8,0.0,0.0,349.0,750.0,0.0,1,181.0,1
1159,1159,0.280839927816969,0.3,0.0,0.0,253.0,555.0,0.0,1,652.0,1
1160,1160,0.08176586817495057,0.1,0.0,0.0,360.0,922.0,0.0,1,1478.0,1
1161,1161,0.5869684386637798,0.6,0.0,0.0,276.0,718.0,0.0,1,336.0,1
1162,1162,0.1548508952495219,0.2,0.0,0.0,376.0,746.0,0.0,1,868.0,1
1163,1163,-0.6147149576327453,-0.6,0.0,1.0,335.0,967.0,1.0,0,348.0,1
1164,1164,0.014219735993055704,0.0,1.0,1.0,401.0,792.0,0.0,0,537.0,0
1165,1165,-0.3346379032119057,-0.3,1.0,0.0,401.0,502.0,0.0,0,847.0,1
1166,1166,0.6014227384257592,0.6,1.0,1.0,468.0,904.0,1.0,1,148.0,1
1167,1167,0.36802882054130215,0.4,0.0,0.0,428.0,616.0,0.0,1,1006.0,1
1168,1168,0.5707011307398328,0.6,0.0,0.0,466.0,614.0,0.0,1,200.0,1
1169,1169,0.09967168658011083,0.1,0.0,0.0,257.0,500.0,1.0,0,1263.0,0
1170,1170,0.4129049289597896,0.4,0.0,0.0,250.0,783.0,0.0,1,837.0,1
1171,1171,-0.6336111250518195,-0.6,0.0,1.0,397.0,725.0,1.0,0,228.0,1
1172,1172,0.20028769225954834,0.2,1.0,1.0,494.0,976.0,1.0,1,230.0,1
1173,1173,-0.10432655795073098,-0.1,1.0,0.0,280.0,717.0,1.0,1,953.0,0
1174,1174,-0.3990659134590596,-0.4,1.0,0.0,448.0,574.0,0.0,0,848.0,1
1175,1175,-0.8902975179725858,-0.9,0.0,1.0,356.0,617.0,1.0,0,317.0,1
1176,1176,-0.638832144213792,-0.6,0.0,1.0,455.0,527.0,1.0,0,558.0,1
1177,1177,-0.09785411136921385,-0.1,0.0,1.0,313.0,981.0,1.0,0,-164.0,1
1178,1178,0.13396908590677536,0.1,0.0,0.0,481.0,855.0,0.0,1,1244.0,1
1179,1179,0.14968187572857306,0.1,0.0,0.0,302.0,704.0,0.0,1,514.0,1
1180,1180,0.13205534572602018,0.1,1.0,1.0,266.0,933.0,1.0,1,121.0,1
1181,1181,-0.45213951474724967,-0.5,0.0,1.0,327.0,867.0,1.0,0,166.0,1
1182,1182,-0.4405689353077518,-0.4,1.0,0.0,292.0,941.0,0.0,0,217.0,1
1183,1183,-0.5812264850713711,-0.6,1.0,0.0,464.0,753.0,0.0,0,323.0,1
1184,1184,0.44863063701065287,0.4,0.0,0.0,254.0,787.0,0.0,1,599.0,1
1185,1185,-0.3734708493283787,-0.4,0.0,1.0,343.0,729.0,1.0,0,238.0,1
1186,1186,-0.32326800236860964,-0.3,0.0,1.0,471.0,750.0,1.0,0,179.0,1
1187,1187,0.6774905876714369,0.7,1.0,1.0,390.0,701.0,1.0,1,259.0,1
1188,1188,-0.5230638171248568,-0.5,1.0,0.0,309.0,507.0,0.0,0,314.0,1
1189,1189,-0.2384737165470069,-0.2,0.0,1.0,325.0,925.0,1.0,0,370.0,1
1190,1190,0.4918838910281721,0.5,0.0,0.0,349.0,542.0,0.0,1,569.0,1
1191,1191,0.08438451117440171,0.1,1.0,1.0,459.0,947.0,0.0,0,694.0,0
1192,1192,0.39009043922375597,0.4,0.0,0.0,396.0,909.0,0.0,1,815.0,1
1193,1193,0.8341296339423429,0.8,1.0,1.0,442.0,799.0,1.0,1,99.0,1
1194,1194,0.05400905385020205,0.1,0.0,0.0,413.0,630.0,0.0,1,1097.0,1
1195,1195,0.41183177158648976,0.4,1.0,1.0,416.0,759.0,1.0,1,85.0,1
1196,1196,0.15078302812275035,0.2,1.0,1.0,372.0,794.0,1.0,1,1244.0,1
1197,1197,-0.875870638359602,-0.9,0.0,1.0,469.0,740.0,1.0,0,561.0,1
1198,1198,-0.6824200167081523,-0.7,1.0,0.0,317.0,960.0,0.0,0,373.0,1
1199,1199,-0.42953826099329645,-0.4,1.0,0.0,416.0,960.0,0.0,0,494.0,1
1200,1200,0.29925145796014296,0.3,1.0,1.0,418.0,738.0,1.0,1,224.0,1
1201,1201,0.07046296057476709,0.1,0.0,0.0,269.0,837.0,0.0,1,724.0,1
1202,1202,-0.5534444227188547,-0.6,0.0,1.0,429.0,895.0,1.0,0,326.0,1
1203,1203,-0.8658395900280951,-0.9,1.0,0.0,350.0,603.0,0.0,0,427.0,1
1204,1204,-0.35545226844092603,-0.4,1.0,0.0,487.0,660.0,0.0,0,323.0,1
1205,1205,-0.8463696857661395,-0.8,1.0,0.0,492.0,554.0,0.0,0,284.0,1
1206,1206,0.3690760096729714,0.4,0.0,0.0,479.0,928.0,0.0,1,663.0,1
1207,1207,0.5892636216531107,0.6,0.0,0.0,337.0,518.0,0.0,1,455.0,1
1208,1208,0.691861717293811,0.7,0.0,0.0,316.0,704.0,0.0,1,1000.0,1
1209,1209,0.8956502807864254,0.9,1.0,1.0,256.0,805.0,1.0,1,219.0,1
1210,1210,-0.28452921648253415,-0.3,1.0,0.0,469.0,626.0,0.0,0,325.0,1
1211,1211,-0.430724785299356,-0.4,0.0,1.0,279.0,781.0,1.0,0,210.0,1
1212,1212,-0.6042295200971681,-0.6,1.0,0.0,374.0,957.0,0.0,0,189.0,1
1213,1213,0.06645141753461559,0.1,0.0,0.0,460.0,972.0,1.0,0,358.0,0
1214,1214,-0.8477311833629124,-0.8,0.0,1.0,468.0,803.0,1.0,0,239.0,1
1215,1215,0.15685946740760903,0.2,0.0,0.0,362.0,830.0,0.0,1,428.0,1
1216,1216,-0.23652694892387083,-0.2,1.0,0.0,286.0,753.0,0.0,0,531.0,1
1217,1217,-0.8561932911489929,-0.9,0.0,1.0,396.0,967.0,1.0,0,127.0,1
1218,1218,-0.05296761133868755,-0.1,1.0,0.0,467.0,987.0,0.0,0,196.0,1
1219,1219,-0.18617672248267414,-0.2,1.0,0.0,453.0,573.0,0.0,0,834.0,1
1220,1220,-0.3806672114762505,-0.4,0.0,1.0,487.0,998.0,1.0,0,215.0,1
1221,1221,0.5464494040858109,0.5,0.0,0.0,440.0,771.0,0.0,1,349.0,1
1222,1222,-0.0810083864937583,-0.1,1.0,0.0,410.0,698.0,0.0,0,472.0,1
1223,1223,-0.8188753351061285,-0.8,0.0,1.0,294.0,621.0,1.0,0,355.0,1
1224,1224,0.19848430745144097,0.2,1.0,1.0,263.0,698.0,1.0,1,609.0,1
1225,1225,0.5103210027414967,0.5,0.0,0.0,420.0,959.0,0.0,1,351.0,1
1226,1226,0.39859295945304896,0.4,0.0,0.0,334.0,798.0,0.0,1,298.0,1
1227,1227,-0.3098606884230267,-0.3,0.0,1.0,464.0,893.0,1.0,0,273.0,1
1228,1228,-0.44654910777707607,-0.4,1.0,0.0,250.0,812.0,0.0,0,288.0,1
1229,1229,0.27924413914976765,0.3,0.0,0.0,402.0,829.0,0.0,1,469.0,1
1230,1230,0.0073699030455935954,0.0,0.0,0.0,326.0,691.0,0.0,1,653.0,1
1231,1231,0.2681902352944886,0.3,0.0,0.0,460.0,921.0,0.0,1,99.0,1
1232,1232,-0.8525361228419442,-0.9,1.0,0.0,378.0,615.0,0.0,0,327.0,1
1233,1233,0.024333710936124686,0.0,0.0,0.0,258.0,658.0,1.0,0,1114.0,0
1234,1234,-0.08810586879482873,-0.1,0.0,1.0,434.0,613.0,0.0,1,1153.0,0
1235,1235,0.8233091349810723,0.8,1.0,1.0,296.0,975.0,1.0,1,279.0,1
1236,1236,-0.21707010366540302,-0.2,0.0,1.0,312.0,685.0,1.0,0,523.0,1
1237,1237,-0.5683531401895832,-0.6,0.0,1.0,318.0,937.0,1.0,0,245.0,1
1238,1238,-0.8494090674421166,-0.8,1.0,0.0,381.0,752.0,0.0,0,457.0,1
1239,1239,-0.36607797509218976,-0.4,0.0,1.0,320.0,542.0,1.0,0,558.0,1
1240,1240,-0.4718115733579871,-0.5,0.0,1.0,407.0,957.0,1.0,0,386.0,1
1241,1241,0.7322286349652981,0.7,1.0,1.0,498.0,832.0,1.0,1,310.0,1
1242,1242,-0.4059190322783406,-0.4,1.0,0.0,493.0,952.0,0.0,0,405.0,1
1243,1243,0.7040657867192678,0.7,1.0,1.0,359.0,598.0,1.0,1,443.0,1
1244,1244,0.6294766912709501,0.6,1.0,1.0,473.0,902.0,1.0,1,15.0,1
1245,1245,-0.030377192594491342,-0.0,1.0,0.0,334.0,835.0,0.0,0,1601.0,1
1246,1246,0.8126048396466973,0.8,1.0,1.0,291.0,506.0,1.0,1,483.0,1
1247,1247,-0.47439459166897696,-0.5,0.0,1.0,431.0,737.0,1.0,0,752.0,1
1248,1248,0.6413731034990738,0.6,1.0,1.0,274.0,646.0,1.0,1,550.0,1
1249,1249,-0.8092081478700601,-0.8,0.0,1.0,373.0,994.0,1.0,0,363.0,1
1250,1250,0.1727291840476729,0.2,0.0,0.0,419.0,887.0,0.0,1,1524.0,1
1251,1251,-0.5339121004561231,-0.5,1.0,0.0,434.0,877.0,0.0,0,109.0,1
1252,1252,-0.8360961658700046,-0.8,0.0,1.0,303.0,758.0,1.0,0,329.0,1
1253,1253,0.5125107457490065,0.5,0.0,0.0,260.0,883.0,0.0,1,567.0,1
1254,1254,0.28489202889043763,0.3,1.0,1.0,421.0,924.0,1.0,1,-285.0,1
1255,1255,-0.20450926308042205,-0.2,1.0,0.0,494.0,773.0,0.0,0,533.0,1
1256,1256,-0.7444876468524264,-0.7,0.0,1.0,364.0,611.0,1.0,0,255.0,1
1257,1257,0.14938834430952286,0.1,1.0,1.0,403.0,611.0,1.0,1,776.0,1
1258,1258,0.5663709653116608,0.6,1.0,1.0,430.0,698.0,1.0,1,272.0,1
1259,1259,-0.7735727907500857,-0.8,0.0,1.0,420.0,554.0,1.0,0,376.0,1
1260,1260,-0.2986652425245011,-0.3,1.0,0.0,395.0,807.0,0.0,0,578.0,1
1261,1261,-0.1332528508642783,-0.1,0.0,1.0,267.0,891.0,1.0,0,172.0,1
1262,1262,-0.17552434097719072,-0.2,1.0,0.0,353.0,799.0,1.0,1,1518.0,0
1263,1263,-0.43773103536342894,-0.4,1.0,0.0,392.0,837.0,1.0,1,81.0,0
1264,1264,0.5940528555671493,0.6,0.0,0.0,406.0,831.0,0.0,1,263.0,1
1265,1265,0.23490221318497417,0.2,1.0,1.0,362.0,968.0,1.0,1,60.0,1
1266,1266,-0.23218597873472213,-0.2,0.0,1.0,467.0,644.0,1.0,0,509.0,1
1267,1267,0.5431838489382416,0.5,0.0,0.0,297.0,794.0,0.0,1,679.0,1
1268,1268,0.6487451707634228,0.6,1.0,1.0,368.0,604.0,1.0,1,368.0,1
1269,1269,0.6867522773676761,0.7,1.0,1.0,306.0,509.0,1.0,1,305.0,1
1270,1270,-0.3617017793153853,-0.4,1.0,0.0,327.0,892.0,0.0,0,761.0,1
1271,1271,-0.4103556725966217,-0.4,0.0,1.0,346.0,775.0,1.0,0,419.0,1
1272,1272,-0.050794534536717895,-0.1,0.0,1.0,272.0,947.0,1.0,0,1101.0,1
1273,1273,-0.20034758225697957,-0.2,1.0,0.0,453.0,855.0,0.0,0,582.0,1
1274,1274,0.5510164302496378,0.6,0.0,0.0,477.0,560.0,0.0,1,533.0,1
1275,1275,-0.19773950956305042,-0.2,1.0,0.0,484.0,508.0,0.0,0,628.0,1
1276,1276,0.6230693279661487,0.6,0.0,0.0,342.0,926.0,0.0,1,292.0,1
1277,1277,-0.3227394609595965,-0.3,0.0,1.0,476.0,761.0,1.0,0,473.0,1
1278,1278,-0.23247643558353748,-0.2,1.0,0.0,377.0,754.0,0.0,0,419.0,1
1279,1279,0.4293893755003707,0.4,1.0,1.0,321.0,767.0,1.0,1,312.0,1
1280,1280,-0.16518681608995467,-0.2,1.0,0.0,255.0,833.0,0.0,0,732.0,1
1281,1281,0.046100707074966385,0.0,0.0,0.0,302.0,935.0,0.0,1,343.0,1
1282,1282,0.15204231591546302,0.2,0.0,0.0,306.0,720.0,1.0,0,654.0,0
1283,1283,-0.12609582245550266,-0.1,1.0,0.0,443.0,586.0,0.0,0,351.0,1
1284,1284,-0.3426135526871893,-0.3,0.0,1.0,461.0,740.0,1.0,0,279.0,1
1285,1285,0.5061106350951589,0.5,0.0,0.0,393.0,632.0,0.0,1,345.0,1
1286,1286,0.15248271165458227,0.2,0.0,0.0,374.0,580.0,0.0,1,596.0,1
1287,1287,-0.17709732290371194,-0.2,0.0,1.0,472.0,719.0,1.0,0,1349.0,1
1288,1288,-0.2884937554913548,-0.3,0.0,1.0,468.0,801.0,1.0,0,391.0,1
1289,1289,-0.7318339325653443,-0.7,1.0,0.0,256.0,974.0,0.0,0,310.0,1
1290,1290,0.7133092548355401,0.7,1.0,1.0,382.0,710.0,1.0,1,238.0,1
1291,1291,0.1859000494612001,0.2,0.0,0.0,322.0,724.0,0.0,1,514.0,1
1292,1292,-0.0812441021304412,-0.1,0.0,1.0,498.0,856.0,1.0,0,1926.0,1
1293,1293,0.49159997474916917,0.5,0.0,0.0,411.0,572.0,0.0,1,207.0,1
1294,1294,-0.708609372677864,-0.7,0.0,1.0,312.0,951.0,1.0,0,87.0,1
1295,1295,-0.8851386710954234,-0.9,1.0,0.0,343.0,889.0,0.0,0,438.0,1
1296,1296,0.2333969346104242,0.2,0.0,0.0,495.0,629.0,0.0,1,236.0,1
1297,1297,-0.6223802508091467,-0.6,1.0,0.0,316.0,802.0,0.0,0,242.0,1
1298,1298,0.8913430203733229,0.9,0.0,0.0,334.0,945.0,0.0,1,411.0,1
1299,1299,0.8600926308541433,0.9,0.0,0.0,323.0,936.0,0.0,1,81.0,1
1300,1300,-0.41626261818583155,-0.4,0.0,1.0,416.0,592.0,1.0,0,412.0,1
1301,1301,0.020716263261576384,0.0,0.0,0.0,498.0,702.0,0.0,1,1200.0,1
1302,1302,-0.2116543719925844,-0.2,1.0,0.0,364.0,670.0,0.0,0,666.0,1
1303,1303,-0.7062463049305399,-0.7,0.0,1.0,290.0,613.0,1.0,0,337.0,1
1304,1304,0.6506424701047328,0.7,1.0,1.0,412.0,693.0,1.0,1,315.0,1
1305,1305,-0.2019459595882639,-0.2,0.0,1.0,371.0,988.0,1.0,0,411.0,1
1306,1306,0.10278788326457489,0.1,0.0,0.0,451.0,670.0,0.0,1,599.0,1
1307,1307,0.09032195139917665,0.1,0.0,0.0,406.0,794.0,0.0,1,1460.0,1
1308,1308,0.37514053854639495,0.4,1.0,1.0,397.0,505.0,1.0,1,528.0,1
1309,1309,-0.46595860005835127,-0.5,0.0,1.0,409.0,791.0,1.0,0,530.0,1
1310,1310,0.7123665576139576,0.7,1.0,1.0,271.0,587.0,1.0,1,322.0,1
1311,1311,0.5247543183189843,0.5,1.0,1.0,493.0,771.0,1.0,1,126.0,1
1312,1312,-0.5822142386795155,-0.6,1.0,0.0,484.0,530.0,0.0,0,376.0,1
1313,1313,0.5654038758529297,0.6,0.0,0.0,438.0,734.0,0.0,1,458.0,1
1314,1314,0.3109730807217711,0.3,0.0,0.0,432.0,674.0,0.0,1,704.0,1
1315,1315,-0.21973387937733024,-0.2,0.0,1.0,392.0,930.0,1.0,0,458.0,1
1316,1316,0.8411040401044513,0.8,1.0,1.0,256.0,884.0,1.0,1,170.0,1
1317,1317,-0.5259926900457832,-0.5,1.0,0.0,435.0,673.0,0.0,0,492.0,1
1318,1318,-0.028589558844689944,-0.0,1.0,0.0,483.0,879.0,1.0,1,698.0,0
1319,1319,0.10474645306182861,0.1,0.0,0.0,422.0,883.0,0.0,1,925.0,1
1320,1320,0.32899967071947567,0.3,0.0,0.0,452.0,854.0,0.0,1,1184.0,1
1321,1321,-0.21264038227556292,-0.2,1.0,0.0,446.0,866.0,0.0,0,1018.0,1
1322,1322,-0.33485646274175696,-0.3,0.0,1.0,344.0,795.0,1.0,0,511.0,1
1323,1323,0.2668403242312828,0.3,0.0,0.0,437.0,810.0,0.0,1,563.0,1
1324,1324,-0.045545466570698134,-0.0,1.0,0.0,395.0,943.0,0.0,0,452.0,1
1325,1325,0.263104201403212,0.3,1.0,1.0,496.0,924.0,1.0,1,470.0,1
1326,1326,-0.5910152855815167,-0.6,0.0,1.0,437.0,974.0,1.0,0,-61.0,1
1327,1327,-0.1632268102465516,-0.2,0.0,1.0,486.0,522.0,1.0,0,492.0,1
1328,1328,0.23546627848767965,0.2,1.0,1.0,482.0,858.0,1.0,1,200.0,1
1329,1329,0.23646257913452196,0.2,0.0,0.0,484.0,787.0,0.0,1,819.0,1
1330,1330,0.7356614441956252,0.7,0.0,0.0,253.0,907.0,0.0,1,240.0,1
1331,1331,-0.10996596160450622,-0.1,0.0,1.0,405.0,649.0,1.0,0,1796.0,1
1332,1332,-0.12198613738350816,-0.1,0.0,1.0,438.0,500.0,1.0,0,972.0,1
1333,1333,-0.19769327331683195,-0.2,1.0,0.0,495.0,543.0,0.0,0,1452.0,1
1334,1334,-0.35280157646262655,-0.4,1.0,0.0,332.0,576.0,0.0,0,672.0,1
1335,1335,-0.48096020861189936,-0.5,1.0,0.0,381.0,825.0,0.0,0,244.0,1
1336,1336,-0.05432663614118993,-0.1,0.0,1.0,296.0,597.0,1.0,0,357.0,1
1337,1337,-0.7356013195671602,-0.7,1.0,0.0,377.0,851.0,0.0,0,262.0,1
1338,1338,-0.3437825435756099,-0.3,1.0,0.0,339.0,944.0,0.0,0,297.0,1
1339,1339,0.359791210598008,0.4,0.0,0.0,281.0,587.0,0.0,1,322.0,1
1340,1340,-0.5036659131839363,-0.5,1.0,0.0,452.0,759.0,0.0,0,729.0,1
1341,1341,0.31375585032581343,0.3,0.0,0.0,370.0,876.0,0.0,1,204.0,1
1342,1342,0.8785630560386136,0.9,0.0,0.0,367.0,847.0,0.0,1,186.0,1
1343,1343,-0.4385851384200416,-0.4,1.0,0.0,276.0,538.0,0.0,0,326.0,1
1344,1344,0.3138518850797728,0.3,1.0,1.0,276.0,561.0,1.0,1,723.0,1
1345,1345,-0.6009388023796778,-0.6,0.0,1.0,293.0,604.0,1.0,0,403.0,1
1346,1346,0.5633548236527167,0.6,1.0,1.0,426.0,791.0,1.0,1,483.0,1
1347,1347,0.08699571121940675,0.1,0.0,0.0,395.0,814.0,0.0,1,751.0,1
1348,1348,0.7832242311718592,0.8,0.0,0.0,402.0,686.0,0.0,1,242.0,1
1349,1349,-0.2379965024699049,-0.2,0.0,1.0,305.0,721.0,1.0,0,494.0,1
1350,1350,0.857117099305171,0.9,0.0,0.0,367.0,565.0,0.0,1,368.0,1
1351,1351,0.6332474931609863,0.6,1.0,1.0,299.0,722.0,1.0,1,109.0,1
1352,1352,-0.07157361270699658,-0.1,1.0,0.0,317.0,995.0,1.0,1,-52.0,0
1353,1353,-0.20210386718570517,-0.2,0.0,1.0,490.0,808.0,1.0,0,582.0,1
1354,1354,0.40729314322918875,0.4,0.0,0.0,381.0,912.0,0.0,1,247.0,1
1355,1355,0.5381699257520643,0.5,0.0,0.0,411.0,532.0,0.0,1,1227.0,1
1356,1356,-0.7040841662768688,-0.7,0.0,1.0,255.0,935.0,1.0,0,150.0,1
1357,1357,0.5090312573468098,0.5,0.0,0.0,303.0,955.0,0.0,1,352.0,1
1358,1358,0.5750182151516213,0.6,0.0,0.0,394.0,881.0,0.0,1,415.0,1
1359,1359,0.6730260383656251,0.7,1.0,1.0,297.0,956.0,1.0,1,247.0,1
1360,1360,0.6772999801481255,0.7,1.0,1.0,396.0,636.0,1.0,1,438.0,1
1361,1361,-0.10849361581253247,-0.1,1.0,0.0,351.0,616.0,0.0,0,873.0,1
1362,1362,0.6401533812508554,0.6,1.0,1.0,348.0,651.0,1.0,1,241.0,1
1363,1363,-0.48188594597214807,-0.5,0.0,1.0,295.0,753.0,1.0,0,142.0,1
1364,1364,-0.6718382734970317,-0.7,1.0,0.0,460.0,500.0,0.0,0,440.0,1
1365,1365,0.2327047345282972,0.2,0.0,0.0,287.0,986.0,0.0,1,167.0,1
1366,1366,0.13902987113016885,0.1,1.0,1.0,338.0,959.0,0.0,0,163.0,0
1367,1367,-0.1448780209161309,-0.1,0.0,1.0,487.0,801.0,1.0,0,1082.0,1
1368,1368,-0.46147233085372624,-0.5,1.0,0.0,343.0,976.0,0.0,0,281.0,1
1369,1369,-0.4237397482296433,-0.4,1.0,0.0,314.0,581.0,0.0,0,1165.0,1
1370,1370,-0.7854259660071815,-0.8,0.0,1.0,368.0,746.0,1.0,0,156.0,1
1371,1371,-0.8389255645384566,-0.8,0.0,1.0,476.0,579.0,1.0,0,295.0,1
1372,1372,0.8276487340864819,0.8,1.0,1.0,372.0,657.0,1.0,1,321.0,1
1373,1373,-0.3182045630312691,-0.3,0.0,1.0,444.0,825.0,1.0,0,291.0,1
1374,1374,-0.8270561815511299,-0.8,1.0,0.0,341.0,850.0,0.0,0,259.0,1
1375,1375,0.3249843024999811,0.3,0.0,0.0,371.0,838.0,0.0,1,831.0,1
1376,1376,0.7955107374296652,0.8,0.0,0.0,443.0,705.0,0.0,1,252.0,1
1377,1377,-0.4232758449305453,-0.4,1.0,0.0,409.0,718.0,0.0,0,243.0,1
1378,1378,-0.3352649908111359,-0.3,1.0,0.0,315.0,946.0,1.0,1,-1.0,0
1379,1379,-0.40909944493815775,-0.4,1.0,0.0,480.0,535.0,0.0,0,895.0,1
1380,1380,-0.5300159834967717,-0.5,1.0,0.0,319.0,505.0,0.0,0,516.0,1
1381,1381,-0.3695157072161176,-0.4,0.0,1.0,250.0,861.0,1.0,0,239.0,1
1382,1382,-0.16517263431455587,-0.2,1.0,0.0,313.0,814.0,0.0,0,563.0,1
1383,1383,-0.4144405387889897,-0.4,0.0,1.0,301.0,992.0,1.0,0,147.0,1
1384,1384,0.19484533501426082,0.2,0.0,0.0,453.0,850.0,0.0,1,357.0,1
1385,1385,-0.20012890958789098,-0.2,0.0,1.0,288.0,626.0,1.0,0,886.0,1
1386,1386,-0.06450374103905865,-0.1,0.0,1.0,295.0,522.0,1.0,0,1543.0,1
1387,1387,-0.814986057148927,-0.8,1.0,0.0,471.0,549.0,0.0,0,350.0,1
1388,1388,-0.428675349919757,-0.4,1.0,0.0,375.0,801.0,0.0,0,414.0,1
1389,1389,0.6831024953523476,0.7,0.0,0.0,256.0,822.0,0.0,1,32.0,1
1390,1390,0.3256292879897683,0.3,1.0,1.0,429.0,898.0,0.0,0,173.0,0
1391,1391,-0.31995194234838786,-0.3,0.0,1.0,433.0,750.0,1.0,0,527.0,1
1392,1392,-0.13040806580929865,-0.1,1.0,0.0,318.0,578.0,0.0,0,444.0,1
1393,1393,-0.6705047178494548,-0.7,1.0,0.0,302.0,692.0,0.0,0,326.0,1
1394,1394,0.6112416897181557,0.6,1.0,1.0,329.0,512.0,1.0,1,219.0,1
1395,1395,0.15316188716746282,0.2,1.0,1.0,456.0,862.0,1.0,1,222.0,1
1396,1396,-0.4892736905472705,-0.5,1.0,0.0,497.0,972.0,0.0,0,341.0,1
1397,1397,0.7728150992867687,0.8,0.0,0.0,276.0,552.0,0.0,1,312.0,1
1398,1398,0.5946304496122882,0.6,1.0,1.0,387.0,626.0,1.0,1,297.0,1
1399,1399,0.6942785041796621,0.7,0.0,0.0,384.0,760.0,0.0,1,536.0,1
1400,1400,0.7964896114080146,0.8,1.0,1.0,465.0,678.0,1.0,1,307.0,1
1401,1401,-0.45034523446245334,-0.5,1.0,0.0,419.0,676.0,0.0,0,745.0,1
1402,1402,-0.4257266449936929,-0.4,1.0,0.0,392.0,991.0,0.0,0,257.0,1
1403,1403,-0.1686663799873217,-0.2,1.0,0.0,334.0,732.0,0.0,0,154.0,1
1404,1404,-0.47328420144288486,-0.5,0.0,1.0,380.0,545.0,1.0,0,315.0,1
1405,1405,0.07057400053097318,0.1,1.0,1.0,266.0,582.0,1.0,1,442.0,1
1406,1406,0.6352081948897289,0.6,1.0,1.0,482.0,572.0,1.0,1,206.0,1
1407,1407,-0.7038223207042865,-0.7,0.0,1.0,447.0,790.0,1.0,0,143.0,1
1408,1408,0.30564293368906925,0.3,0.0,0.0,381.0,680.0,0.0,1,849.0,1
1409,1409,0.758861196334487,0.8,1.0,1.0,371.0,833.0,1.0,1,106.0,1
1410,1410,-0.7300815350861596,-0.7,0.0,1.0,381.0,933.0,1.0,0,336.0,1
1411,1411,0.37447611281945214,0.4,1.0,1.0,474.0,944.0,1.0,1,242.0,1
1412,1412,0.590608365041572,0.6,0.0,0.0,292.0,989.0,0.0,1,189.0,1
1413,1413,0.17540691835178157,0.2,1.0,1.0,329.0,943.0,1.0,1,598.0,1
1414,1414,-0.12220482011183764,-0.1,1.0,0.0,322.0,532.0,0.0,0,696.0,1
1415,1415,-0.2958898684407725,-0.3,1.0,0.0,440.0,939.0,0.0,0,231.0,1
1416,1416,-0.8292989860308968,-0.8,0.0,1.0,469.0,754.0,1.0,0,207.0,1
1417,1417,0.8265036448022426,0.8,0.0,0.0,264.0,962.0,0.0,1,164.0,1
1418,1418,-0.020667059844782232,-0.0,1.0,0.0,269.0,891.0,1.0,1,700.0,0
1419,1419,-0.47226066270143047,-0.5,1.0,0.0,392.0,710.0,0.0,0,618.0,1
1420,1420,-0.3948511128675075,-0.4,1.0,0.0,287.0,914.0,1.0,1,59.0,0
1421,1421,0.3683503729820524,0.4,1.0,1.0,466.0,666.0,1.0,1,328.0,1
1422,1422,-0.7662860634563247,-0.8,0.0,1.0,293.0,927.0,1.0,0,200.0,1
1423,1423,0.02197494506460429,0.0,1.0,1.0,274.0,643.0,0.0,0,923.0,0
1424,1424,-0.24871033831258882,-0.2,1.0,0.0,375.0,954.0,0.0,0,221.0,1
1425,1425,-0.3844143021746351,-0.4,0.0,1.0,285.0,505.0,1.0,0,340.0,1
1426,1426,-0.29693904267687965,-0.3,0.0,1.0,328.0,820.0,1.0,0,142.0,1
1427,1427,-0.6405848952367159,-0.6,1.0,0.0,370.0,833.0,1.0,1,-23.0,0
1428,1428,-0.695481220838683,-0.7,0.0,1.0,288.0,922.0,1.0,0,350.0,1
1429,1429,-0.5703200343387052,-0.6,1.0,0.0,261.0,523.0,0.0,0,336.0,1
1430,1430,0.6317720431891868,0.6,0.0,0.0,274.0,726.0,0.0,1,710.0,1
1431,1431,-0.5473667881286786,-0.5,1.0,0.0,293.0,801.0,0.0,0,236.0,1
1432,1432,0.5555979701700872,0.6,0.0,0.0,348.0,607.0,0.0,1,745.0,1
1433,1433,0.046318568451469755,0.0,0.0,0.0,440.0,808.0,1.0,0,482.0,0
1434,1434,0.3504320542553895,0.4,1.0,1.0,497.0,760.0,1.0,1,573.0,1
1435,1435,-0.2163347333502459,-0.2,0.0,1.0,410.0,843.0,1.0,0,357.0,1
1436,1436,-0.28567453571991086,-0.3,0.0,1.0,304.0,729.0,1.0,0,337.0,1
1437,1437,0.8900700153904798,0.9,0.0,0.0,357.0,877.0,0.0,1,256.0,1
1438,1438,0.5310107290031293,0.5,0.0,0.0,366.0,724.0,0.0,1,260.0,1
1439,1439,-0.8874385660904686,-0.9,0.0,1.0,297.0,749.0,1.0,0,144.0,1
1440,1440,-0.04779282662571738,-0.0,1.0,0.0,260.0,638.0,0.0,0,462.0,1
1441,1441,0.5439109693236467,0.5,0.0,0.0,463.0,810.0,0.0,1,197.0,1
1442,1442,-0.6593739950682168,-0.7,1.0,0.0,302.0,784.0,0.0,0,204.0,1
1443,1443,0.5054006037161366,0.5,1.0,1.0,471.0,567.0,1.0,1,372.0,1
1444,1444,0.36992736148688576,0.4,1.0,1.0,484.0,811.0,0.0,0,135.0,0
1445,1445,0.1034327879398792,0.1,0.0,0.0,428.0,650.0,0.0,1,722.0,1
1446,1446,-0.33106699339405343,-0.3,1.0,0.0,458.0,830.0,0.0,0,452.0,1
1447,1447,0.2908569603044556,0.3,1.0,1.0,431.0,825.0,1.0,1,584.0,1
1448,1448,-0.1966933538101887,-0.2,0.0,1.0,456.0,828.0,1.0,0,386.0,1
1449,1449,-0.34901226035932853,-0.3,0.0,1.0,477.0,628.0,1.0,0,515.0,1
1450,1450,0.6430627086092106,0.6,1.0,1.0,454.0,771.0,1.0,1,225.0,1
1451,1451,-0.3271263179013346,-0.3,0.0,1.0,281.0,776.0,1.0,0,373.0,1
1452,1452,0.3287811992103157,0.3,0.0,0.0,256.0,749.0,0.0,1,355.0,1
1453,1453,-0.6029191358565871,-0.6,0.0,1.0,392.0,625.0,1.0,0,353.0,1
1454,1454,0.7248165818479712,0.7,1.0,1.0,280.0,543.0,1.0,1,317.0,1
1455,1455,0.07633027236074619,0.1,0.0,0.0,384.0,585.0,0.0,1,2531.0,1
1456,1456,-0.03622629107361308,-0.0,0.0,1.0,336.0,762.0,0.0,1,382.0,0
1457,1457,0.4070411292200128,0.4,0.0,0.0,428.0,517.0,0.0,1,715.0,1
1458,1458,-0.52435985637226,-0.5,1.0,0.0,393.0,882.0,0.0,0,575.0,1
1459,1459,-0.7264178389678622,-0.7,0.0,1.0,484.0,616.0,1.0,0,240.0,1
1460,1460,0.6017252750942758,0.6,0.0,0.0,283.0,776.0,0.0,1,341.0,1
1461,1461,0.1860364253797132,0.2,0.0,0.0,458.0,641.0,0.0,1,1311.0,1
1462,1462,0.0960496625856585,0.1,0.0,0.0,415.0,782.0,1.0,0,663.0,0
1463,1463,-0.34582735655667496,-0.3,1.0,0.0,496.0,975.0,0.0,0,399.0,1
1464,1464,-0.883771733989205,-0.9,1.0,0.0,404.0,996.0,0.0,0,130.0,1
1465,1465,0.8926965141811295,0.9,1.0,1.0,435.0,859.0,1.0,1,146.0,1
1466,1466,0.8658598362565412,0.9,1.0,1.0,341.0,835.0,1.0,1,174.0,1
1467,1467,-0.6282600049317095,-0.6,0.0,1.0,396.0,954.0,1.0,0,270.0,1
1468,1468,0.4586442369218694,0.5,1.0,1.0,274.0,711.0,1.0,1,565.0,1
1469,1469,0.10446209544961171,0.1,1.0,1.0,452.0,595.0,1.0,1,973.0,1
1470,1470,0.2062735083809405,0.2,0.0,0.0,478.0,939.0,0.0,1,913.0,1
1471,1471,-0.8365589164026247,-0.8,1.0,0.0,415.0,744.0,0.0,0,111.0,1
1472,1472,-0.43577059421432407,-0.4,0.0,1.0,407.0,536.0,1.0,0,337.0,1
1473,1473,-0.46292402915052994,-0.5,0.0,1.0,423.0,507.0,1.0,0,850.0,1
1474,1474,-0.7310118913978607,-0.7,0.0,1.0,265.0,673.0,1.0,0,132.0,1
1475,1475,0.894482240252951,0.9,0.0,0.0,417.0,645.0,0.0,1,328.0,1
1476,1476,0.6204960598718657,0.6,0.0,0.0,498.0,509.0,0.0,1,723.0,1
1477,1477,0.8830531355434926,0.9,0.0,0.0,452.0,804.0,0.0,1,244.0,1
1478,1478,-0.3953908535045302,-0.4,0.0,1.0,275.0,587.0,1.0,0,378.0,1
1479,1479,0.0854951770546305,0.1,1.0,1.0,293.0,766.0,1.0,1,541.0,1
1480,1480,0.5106736021690529,0.5,1.0,1.0,412.0,692.0,1.0,1,276.0,1
1481,1481,-0.16047693792968265,-0.2,1.0,0.0,360.0,565.0,0.0,0,565.0,1
1482,1482,0.7438570388999525,0.7,1.0,1.0,402.0,934.0,1.0,1,4.0,1
1483,1483,0.7921748201426372,0.8,0.0,0.0,326.0,642.0,0.0,1,472.0,1
1484,1484,0.19746607654038517,0.2,0.0,0.0,274.0,909.0,0.0,1,457.0,1
1485,1485,0.030857035064479232,0.0,1.0,1.0,453.0,988.0,0.0,0,519.0,0
1486,1486,-0.7224769372940248,-0.7,0.0,1.0,330.0,831.0,1.0,0,249.0,1
1487,1487,0.3081365618505597,0.3,0.0,0.0,294.0,855.0,0.0,1,761.0,1
1488,1488,0.8749899918944487,0.9,1.0,1.0,492.0,580.0,1.0,1,278.0,1
1489,1489,-0.08271773026772222,-0.1,0.0,1.0,378.0,656.0,1.0,0,996.0,1
1490,1490,0.2166903981589513,0.2,1.0,1.0,365.0,729.0,0.0,0,706.0,0
1491,1491,-0.6132013266438621,-0.6,0.0,1.0,292.0,704.0,1.0,0,164.0,1
1492,1492,-0.541795296491335,-0.5,1.0,0.0,292.0,787.0,0.0,0,211.0,1
