,trial,coherence,coherence_bin,green_side,correct_side,target_onset,checker_onset,decision,green_decision,decision_time,correct_decision
0,0,-0.6171956733630177,-0.6,1.0,0.0,312.0,613.0,0.0,0,675.0,1
1,1,-0.4596305458506542,-0.5,0.0,1.0,397.0,965.0,1.0,0,248.0,1
2,2,0.47762575636417537,0.5,0.0,0.0,280.0,684.0,0.0,1,276.0,1
3,3,0.13418989377046076,0.1,0.0,0.0,417.0,916.0,1.0,0,2577.0,0
4,4,0.19510199413159934,0.2,0.0,0.0,350.0,920.0,0.0,1,340.0,1
5,5,-0.1106666349598815,-0.1,0.0,1.0,393.0,624.0,1.0,0,1253.0,1
6,6,0.5109297556100968,0.5,0.0,0.0,462.0,873.0,0.0,1,715.0,1
7,7,0.7016475443387481,0.7,0.0,0.0,446.0,956.0,0.0,1,608.0,1
8,8,-0.3219429813370138,-0.3,1.0,0.0,446.0,777.0,0.0,0,1817.0,1
9,9,-0.810128582567285,-0.8,1.0,0.0,280.0,541.0,0.0,0,699.0,1
10,10,-0.71805552534866,-0.7,1.0,0.0,343.0,965.0,0.0,0,1182.0,1
11,11,-0.5451938141542625,-0.5,1.0,0.0,428.0,705.0,0.0,0,507.0,1
12,12,-0.8239919774743735,-0.8,0.0,1.0,358.0,596.0,1.0,0,496.0,1
13,13,-0.46848989901239774,-0.5,0.0,1.0,317.0,679.0,1.0,0,794.0,1
14,14,-0.0529725247265197,-0.1,1.0,0.0,498.0,693.0,0.0,0,839.0,1
15,15,0.09840150811881121,0.1,1.0,1.0,479.0,666.0,1.0,1,665.0,1
16,16,-0.15158691604159968,-0.2,0.0,1.0,412.0,661.0,0.0,1,347.0,0
17,17,-0.4701170830699872,-0.5,0.0,1.0,341.0,941.0,1.0,0,1148.0,1
18,18,0.07104968969275671,0.1,0.0,0.0,375.0,996.0,0.0,1,1879.0,1
19,19,0.412861130145905,0.4,0.0,0.0,286.0,783.0,0.0,1,261.0,1
20,20,-0.7011732228502326,-0.7,1.0,0.0,403.0,808.0,0.0,0,269.0,1
21,21,-0.6379929094030488,-0.6,0.0,1.0,389.0,727.0,1.0,0,1034.0,1
22,22,0.6088864902421901,0.6,1.0,1.0,430.0,630.0,1.0,1,490.0,1
23,23,-0.3354902412208961,-0.3,1.0,0.0,255.0,826.0,0.0,0,199.0,1
24,24,0.05091942898609092,0.1,0.0,0.0,252.0,924.0,0.0,1,254.0,1
25,25,0.4407605613272153,0.4,1.0,1.0,364.0,950.0,1.0,1,576.0,1
26,26,0.7473895043968534,0.7,0.0,0.0,435.0,762.0,0.0,1,203.0,1
27,27,-0.574444115232604,-0.6,0.0,1.0,433.0,690.0,1.0,0,477.0,1
28,28,0.22376326994668527,0.2,1.0,1.0,471.0,691.0,1.0,1,1368.0,1
29,29,0.6308474206773248,0.6,0.0,0.0,394.0,573.0,0.0,1,293.0,1
30,30,0.04262726830520258,0.0,1.0,1.0,485.0,835.0,1.0,1,310.0,1
31,31,-0.30645294907980136,-0.3,0.0,1.0,476.0,651.0,1.0,0,1273.0,1
32,32,-0.7341236927788669,-0.7,1.0,0.0,482.0,966.0,0.0,0,692.0,1
33,33,-0.21734342771078197,-0.2,0.0,1.0,392.0,826.0,1.0,0,232.0,1
34,34,0.6279034751022529,0.6,1.0,1.0,321.0,531.0,1.0,1,918.0,1
35,35,-0.22089521026699388,-0.2,0.0,1.0,402.0,806.0,1.0,0,1582.0,1
36,36,-0.21159126761849745,-0.2,0.0,1.0,268.0,671.0,1.0,0,1901.0,1
37,37,0.03205320762297281,0.0,1.0,1.0,267.0,985.0,0.0,0,338.0,0
38,38,-0.47370622977740673,-0.5,0.0,1.0,419.0,512.0,1.0,0,779.0,1
39,39,0.20708769856570453,0.2,1.0,1.0,301.0,513.0,1.0,1,1116.0,1
40,40,-0.8547901461844472,-0.9,1.0,0.0,299.0,656.0,0.0,0,405.0,1
41,41,0.7015316491489391,0.7,0.0,0.0,376.0,776.0,0.0,1,458.0,1
42,42,-0.5710592131994907,-0.6,1.0,0.0,461.0,840.0,0.0,0,579.0,1
43,43,0.13864198336381495,0.1,0.0,0.0,365.0,975.0,0.0,1,480.0,1
44,44,0.40616223407118734,0.4,1.0,1.0,302.0,838.0,1.0,1,310.0,1
45,45,-0.27164556192795275,-0.3,1.0,0.0,434.0,859.0,0.0,0,1087.0,1
46,46,-0.814391368795579,-0.8,0.0,1.0,292.0,656.0,1.0,0,942.0,1
47,47,0.652703240784645,0.7,0.0,0.0,417.0,625.0,0.0,1,338.0,1
48,48,0.46147703491736347,0.5,1.0,1.0,498.0,640.0,1.0,1,682.0,1
49,49,-0.8257907584295522,-0.8,1.0,0.0,272.0,726.0,0.0,0,252.0,1
50,50,0.733188530785107,0.7,0.0,0.0,348.0,898.0,0.0,1,214.0,1
51,51,0.6062646182006265,0.6,1.0,1.0,346.0,938.0,1.0,1,266.0,1
52,52,0.4975262226746807,0.5,1.0,1.0,474.0,779.0,1.0,1,427.0,1
53,53,0.8208388812127715,0.8,0.0,0.0,345.0,506.0,0.0,1,429.0,1
54,54,0.8605203144131476,0.9,0.0,0.0,393.0,537.0,0.0,1,260.0,1
55,55,0.12121933913908067,0.1,1.0,1.0,250.0,877.0,1.0,1,533.0,1
56,56,-0.529196721835606,-0.5,1.0,0.0,328.0,785.0,0.0,0,347.0,1
57,57,0.5539537554811652,0.6,1.0,1.0,359.0,952.0,1.0,1,429.0,1
58,58,-0.530091931147407,-0.5,0.0,1.0,335.0,564.0,1.0,0,651.0,1
59,59,-0.8886503770740466,-0.9,1.0,0.0,415.0,948.0,0.0,0,247.0,1
60,60,-0.500697787115016,-0.5,0.0,1.0,355.0,717.0,1.0,0,1578.0,1
61,61,-0.8277006608616606,-0.8,0.0,1.0,467.0,969.0,1.0,0,884.0,1
62,62,0.8381699776421173,0.8,0.0,0.0,468.0,793.0,0.0,1,169.0,1
63,63,0.5252813219072757,0.5,0.0,0.0,266.0,713.0,0.0,1,411.0,1
64,64,-0.40993235443195647,-0.4,1.0,0.0,340.0,508.0,0.0,0,892.0,1
65,65,-0.334344143767517,-0.3,0.0,1.0,428.0,712.0,1.0,0,550.0,1
66,66,-0.667388630452847,-0.7,1.0,0.0,320.0,917.0,0.0,0,263.0,1
67,67,0.2954449685969701,0.3,1.0,1.0,491.0,503.0,1.0,1,616.0,1
68,68,-0.023749210084002548,-0.0,1.0,0.0,327.0,601.0,1.0,1,652.0,0
69,69,-0.5045658829847547,-0.5,0.0,1.0,482.0,821.0,1.0,0,527.0,1
70,70,-0.6385323580610271,-0.6,1.0,0.0,339.0,737.0,0.0,0,164.0,1
71,71,0.2650249313177365,0.3,0.0,0.0,441.0,589.0,0.0,1,830.0,1
72,72,-0.1682753413814586,-0.2,1.0,0.0,465.0,853.0,1.0,1,422.0,0
73,73,0.09821191204581814,0.1,0.0,0.0,499.0,740.0,1.0,0,661.0,0
74,74,-0.5191120872941423,-0.5,1.0,0.0,389.0,984.0,0.0,0,447.0,1
75,75,-0.8980877959002033,-0.9,1.0,0.0,262.0,695.0,0.0,0,233.0,1
76,76,0.6652541149649477,0.7,1.0,1.0,437.0,741.0,1.0,1,612.0,1
77,77,-0.4317393751395277,-0.4,1.0,0.0,257.0,595.0,0.0,0,738.0,1
78,78,-0.19604876570682428,-0.2,0.0,1.0,436.0,512.0,1.0,0,1762.0,1
79,79,-0.038668118205365865,-0.0,0.0,1.0,475.0,520.0,0.0,1,1105.0,0
80,80,-0.11678341432922501,-0.1,0.0,1.0,435.0,800.0,0.0,1,515.0,0
81,81,0.772949329260426,0.8,0.0,0.0,372.0,531.0,0.0,1,267.0,1
82,82,0.5109681569417969,0.5,1.0,1.0,295.0,981.0,1.0,1,404.0,1
83,83,-0.2884508221054344,-0.3,0.0,1.0,339.0,566.0,1.0,0,665.0,1
84,84,0.3311774640042787,0.3,1.0,1.0,476.0,725.0,1.0,1,1669.0,1
85,85,-0.7438171308058712,-0.7,0.0,1.0,270.0,664.0,1.0,0,746.0,1
86,86,0.10432584717870597,0.1,1.0,1.0,477.0,961.0,1.0,1,142.0,1
87,87,-0.7291833059579684,-0.7,1.0,0.0,461.0,979.0,0.0,0,1010.0,1
88,88,0.021436263104165576,0.0,0.0,0.0,322.0,745.0,0.0,1,153.0,1
89,89,-0.28011347848842905,-0.3,0.0,1.0,351.0,855.0,1.0,0,924.0,1
90,90,-0.6252173374556951,-0.6,0.0,1.0,370.0,595.0,1.0,0,1685.0,1
91,91,-0.4761714585863567,-0.5,1.0,0.0,474.0,606.0,0.0,0,990.0,1
92,92,-0.8084650973010051,-0.8,1.0,0.0,472.0,796.0,0.0,0,402.0,1
93,93,0.7924640227508836,0.8,0.0,0.0,321.0,795.0,0.0,1,244.0,1
94,94,-0.8014359074323733,-0.8,0.0,1.0,404.0,892.0,1.0,0,344.0,1
95,95,0.5890052996651386,0.6,0.0,0.0,288.0,890.0,0.0,1,62.0,1
96,96,-0.7276376518187285,-0.7,0.0,1.0,369.0,641.0,1.0,0,330.0,1
97,97,0.09909993971338282,0.1,0.0,0.0,336.0,644.0,1.0,0,320.0,0
98,98,-0.010930169371130227,-0.0,1.0,0.0,330.0,864.0,1.0,1,156.0,0
99,99,0.1639103408625856,0.2,0.0,0.0,421.0,538.0,1.0,0,1141.0,0
100,100,0.2034793103709801,0.2,0.0,0.0,459.0,578.0,0.0,1,293.0,1
101,101,-0.46119429317004823,-0.5,1.0,0.0,281.0,632.0,0.0,0,947.0,1
102,102,0.143071014742281,0.1,0.0,0.0,480.0,988.0,0.0,1,412.0,1
103,103,-0.5151134586708068,-0.5,1.0,0.0,362.0,842.0,1.0,1,506.0,0
104,104,-0.7687940573518928,-0.8,1.0,0.0,413.0,692.0,0.0,0,1085.0,1
105,105,-0.3108515371205587,-0.3,1.0,0.0,498.0,750.0,0.0,0,3092.0,1
106,106,0.5432083962331234,0.5,1.0,1.0,351.0,701.0,1.0,1,828.0,1
107,107,0.8508436371808571,0.9,1.0,1.0,341.0,997.0,1.0,1,232.0,1
108,108,-0.2969346540670138,-0.3,0.0,1.0,420.0,815.0,1.0,0,165.0,1
109,109,-0.5675756954758702,-0.6,1.0,0.0,486.0,952.0,0.0,0,732.0,1
110,110,0.8618838636564904,0.9,1.0,1.0,470.0,545.0,1.0,1,535.0,1
111,111,0.042584232150086776,0.0,0.0,0.0,255.0,906.0,0.0,1,29.0,1
112,112,0.036136158850281874,0.0,0.0,0.0,423.0,644.0,0.0,1,193.0,1
113,113,0.5305438783126318,0.5,0.0,0.0,261.0,850.0,0.0,1,79.0,1
114,114,0.18632573639173222,0.2,0.0,0.0,315.0,984.0,0.0,1,471.0,1
115,115,0.44386033939321157,0.4,0.0,0.0,307.0,684.0,0.0,1,409.0,1
116,116,-0.034386939823861984,-0.0,1.0,0.0,413.0,824.0,1.0,1,333.0,0
117,117,0.740076410499419,0.7,0.0,0.0,352.0,637.0,0.0,1,381.0,1
118,118,0.8686437841097127,0.9,1.0,1.0,288.0,840.0,1.0,1,262.0,1
119,119,0.45746591676453374,0.5,0.0,0.0,328.0,673.0,0.0,1,899.0,1
120,120,-0.0916728324782925,-0.1,0.0,1.0,421.0,675.0,0.0,1,314.0,0
121,121,0.35552057776866997,0.4,1.0,1.0,298.0,799.0,1.0,1,373.0,1
122,122,0.010925562711125103,0.0,1.0,1.0,454.0,772.0,1.0,1,1424.0,1
123,123,0.08019791524413533,0.1,0.0,0.0,269.0,838.0,0.0,1,553.0,1
124,124,0.39291111457837424,0.4,1.0,1.0,351.0,694.0,1.0,1,455.0,1
125,125,-0.2903763795857587,-0.3,1.0,0.0,397.0,997.0,0.0,0,146.0,1
126,126,-0.1531343379907486,-0.2,1.0,0.0,422.0,643.0,1.0,1,2065.0,0
127,127,-0.24310084545638055,-0.2,0.0,1.0,282.0,924.0,1.0,0,284.0,1
128,128,-0.2514032776679028,-0.3,0.0,1.0,256.0,998.0,1.0,0,646.0,1
129,129,-0.04694741159563742,-0.0,1.0,0.0,400.0,896.0,1.0,1,1244.0,0
130,130,-0.49827309254229535,-0.5,1.0,0.0,447.0,839.0,0.0,0,944.0,1
131,131,0.4711966385030647,0.5,0.0,0.0,339.0,556.0,0.0,1,1085.0,1
132,132,-0.10932367787449493,-0.1,1.0,0.0,364.0,917.0,1.0,1,889.0,0
133,133,0.6506358405734157,0.7,1.0,1.0,422.0,634.0,1.0,1,804.0,1
134,134,-0.3552058660403281,-0.4,0.0,1.0,340.0,554.0,1.0,0,1046.0,1
135,135,-0.281709546476107,-0.3,1.0,0.0,363.0,888.0,0.0,0,29.0,1
136,136,0.5543536540021407,0.6,0.0,0.0,395.0,981.0,0.0,1,104.0,1
137,137,-0.8086831977643446,-0.8,0.0,1.0,406.0,639.0,1.0,0,925.0,1
138,138,-0.8217217596359363,-0.8,0.0,1.0,326.0,508.0,1.0,0,656.0,1
139,139,0.06522558047590399,0.1,0.0,0.0,332.0,518.0,0.0,1,670.0,1
140,140,0.4497355890603735,0.4,1.0,1.0,337.0,678.0,1.0,1,565.0,1
141,141,-0.7308241614783579,-0.7,0.0,1.0,325.0,945.0,1.0,0,630.0,1
142,142,-0.687837704255293,-0.7,0.0,1.0,264.0,757.0,1.0,0,219.0,1
143,143,0.7769430636467031,0.8,0.0,0.0,336.0,896.0,0.0,1,118.0,1
144,144,-0.8291541856843311,-0.8,0.0,1.0,381.0,703.0,1.0,0,386.0,1
145,145,-0.48158215183957537,-0.5,0.0,1.0,366.0,688.0,0.0,1,946.0,0
146,146,-0.029223985398472374,-0.0,1.0,0.0,365.0,834.0,1.0,1,281.0,0
147,147,-0.33985894879653544,-0.3,1.0,0.0,387.0,660.0,0.0,0,1683.0,1
148,148,-0.3899850950606307,-0.4,1.0,0.0,402.0,943.0,0.0,0,5.0,1
149,149,-0.39658026906717914,-0.4,1.0,0.0,335.0,568.0,0.0,0,1337.0,1
150,150,0.8767144896589566,0.9,0.0,0.0,471.0,736.0,0.0,1,263.0,1
151,151,-0.6217056594176453,-0.6,0.0,1.0,452.0,728.0,1.0,0,850.0,1
152,152,-0.7536362723382997,-0.8,1.0,0.0,453.0,857.0,0.0,0,190.0,1
153,153,-0.4425358094885233,-0.4,0.0,1.0,310.0,789.0,1.0,0,631.0,1
154,154,0.5404504788115719,0.5,1.0,1.0,254.0,678.0,1.0,1,298.0,1
155,155,-0.31385059640379054,-0.3,0.0,1.0,308.0,602.0,1.0,0,770.0,1
156,156,0.8865792578494339,0.9,0.0,0.0,268.0,880.0,0.0,1,72.0,1
157,157,0.5773103265705618,0.6,1.0,1.0,378.0,672.0,1.0,1,310.0,1
158,158,0.019734286451699168,0.0,0.0,0.0,351.0,600.0,0.0,1,1009.0,1
159,159,0.8315337939214694,0.8,0.0,0.0,387.0,976.0,0.0,1,467.0,1
160,160,0.27873778300391316,0.3,1.0,1.0,250.0,692.0,1.0,1,328.0,1
161,161,-0.005653893857259118,-0.0,1.0,0.0,302.0,603.0,1.0,1,845.0,0
162,162,0.028473266193536073,0.0,1.0,1.0,317.0,721.0,1.0,1,642.0,1
163,163,-0.31676526528350957,-0.3,0.0,1.0,399.0,712.0,1.0,0,1769.0,1
164,164,-0.7189439073479906,-0.7,1.0,0.0,290.0,599.0,0.0,0,371.0,1
165,165,-0.42928225138571424,-0.4,1.0,0.0,460.0,931.0,1.0,1,9.0,0
166,166,-0.5750452976149603,-0.6,0.0,1.0,254.0,881.0,1.0,0,475.0,1
167,167,0.13270271579005366,0.1,0.0,0.0,414.0,557.0,0.0,1,1039.0,1
168,168,0.7497119289015352,0.7,0.0,0.0,335.0,854.0,0.0,1,121.0,1
169,169,-0.5026653185842996,-0.5,1.0,0.0,392.0,572.0,0.0,0,576.0,1
170,170,0.6330325249556051,0.6,0.0,0.0,471.0,911.0,0.0,1,198.0,1
171,171,0.15087459243080115,0.2,1.0,1.0,333.0,955.0,1.0,1,222.0,1
172,172,0.07094044377163333,0.1,1.0,1.0,337.0,627.0,0.0,0,1066.0,0
173,173,0.6926196426172938,0.7,1.0,1.0,391.0,851.0,1.0,1,468.0,1
174,174,0.7710112730506801,0.8,1.0,1.0,297.0,534.0,1.0,1,869.0,1
175,175,0.1000020770038682,0.1,0.0,0.0,482.0,674.0,0.0,1,454.0,1
176,176,-0.5833404137785091,-0.6,0.0,1.0,366.0,513.0,1.0,0,531.0,1
177,177,-0.38748208600471445,-0.4,1.0,0.0,359.0,819.0,0.0,0,632.0,1
178,178,0.5783889373083076,0.6,1.0,1.0,428.0,921.0,1.0,1,791.0,1
179,179,-0.46539456449768374,-0.5,1.0,0.0,252.0,555.0,0.0,0,993.0,1
180,180,0.3936260407028095,0.4,1.0,1.0,266.0,788.0,1.0,1,126.0,1
181,181,-0.8547587982333352,-0.9,0.0,1.0,493.0,752.0,1.0,0,895.0,1
182,182,-0.3783183764067116,-0.4,0.0,1.0,372.0,725.0,1.0,0,503.0,1
183,183,-0.7812177310141039,-0.8,0.0,1.0,407.0,646.0,1.0,0,407.0,1
184,184,-0.5005872758467311,-0.5,1.0,0.0,255.0,610.0,0.0,0,405.0,1
185,185,0.7111244627983558,0.7,0.0,0.0,267.0,915.0,0.0,1,-42.0,1
186,186,0.43246631882087805,0.4,0.0,0.0,392.0,870.0,0.0,1,748.0,1
187,187,-0.6757611817353408,-0.7,0.0,1.0,368.0,712.0,1.0,0,330.0,1
188,188,-0.1111488755683544,-0.1,0.0,1.0,460.0,784.0,1.0,0,796.0,1
189,189,-0.6902073283895954,-0.7,1.0,0.0,354.0,503.0,0.0,0,453.0,1
190,190,0.31663333551895756,0.3,1.0,1.0,368.0,993.0,1.0,1,259.0,1
191,191,-0.07968162445078986,-0.1,1.0,0.0,467.0,843.0,0.0,0,530.0,1
192,192,-0.4846955580925449,-0.5,1.0,0.0,303.0,669.0,0.0,0,558.0,1
193,193,0.6743626354174236,0.7,0.0,0.0,356.0,731.0,0.0,1,413.0,1
194,194,-0.02778930167749394,-0.0,1.0,0.0,445.0,557.0,1.0,1,988.0,0
195,195,0.8188376382664825,0.8,0.0,0.0,270.0,614.0,0.0,1,336.0,1
196,196,0.8122987287347728,0.8,0.0,0.0,428.0,819.0,0.0,1,733.0,1
197,197,0.19470518010681548,0.2,0.0,0.0,483.0,616.0,0.0,1,671.0,1
198,198,-0.0705164595486073,-0.1,1.0,0.0,429.0,680.0,0.0,0,331.0,1
199,199,0.7680341199696071,0.8,1.0,1.0,473.0,716.0,1.0,1,261.0,1
200,200,0.10298517724952527,0.1,0.0,0.0,342.0,973.0,0.0,1,-45.0,1
201,201,0.3063925659877266,0.3,1.0,1.0,395.0,996.0,1.0,1,249.0,1
202,202,0.8999449800777387,0.9,0.0,0.0,427.0,723.0,0.0,1,250.0,1
203,203,-0.5590504752029919,-0.6,0.0,1.0,356.0,545.0,1.0,0,589.0,1
204,204,0.2999773368970643,0.3,1.0,1.0,435.0,795.0,0.0,0,450.0,0
205,205,-0.2700342092626761,-0.3,1.0,0.0,434.0,989.0,1.0,1,67.0,0
206,206,0.32589164657690584,0.3,0.0,0.0,279.0,541.0,0.0,1,570.0,1
207,207,-0.5615785273563774,-0.6,0.0,1.0,357.0,793.0,0.0,1,170.0,0
208,208,0.588118450374841,0.6,0.0,0.0,356.0,806.0,0.0,1,328.0,1
209,209,0.5068416129168732,0.5,0.0,0.0,416.0,621.0,0.0,1,283.0,1
210,210,-0.5287994185125438,-0.5,0.0,1.0,442.0,569.0,1.0,0,769.0,1
211,211,-0.8820161722659079,-0.9,0.0,1.0,472.0,618.0,1.0,0,410.0,1
212,212,0.5132675796859113,0.5,0.0,0.0,427.0,901.0,0.0,1,592.0,1
213,213,0.3306221596528188,0.3,0.0,0.0,304.0,700.0,0.0,1,416.0,1
214,214,0.6482543234835157,0.6,1.0,1.0,431.0,660.0,1.0,1,819.0,1
215,215,-0.6433441794343824,-0.6,1.0,0.0,252.0,750.0,0.0,0,218.0,1
216,216,-0.5360056962868949,-0.5,0.0,1.0,455.0,713.0,1.0,0,482.0,1
217,217,0.741559463788171,0.7,0.0,0.0,402.0,755.0,0.0,1,113.0,1
218,218,0.4716787448686742,0.5,1.0,1.0,305.0,529.0,1.0,1,696.0,1
219,219,0.6081528442808396,0.6,1.0,1.0,329.0,905.0,1.0,1,416.0,1
220,220,0.7037517829646999,0.7,1.0,1.0,325.0,539.0,1.0,1,866.0,1
221,221,0.6364641299035524,0.6,1.0,1.0,357.0,597.0,1.0,1,336.0,1
222,222,-0.6975060437128483,-0.7,1.0,0.0,464.0,856.0,0.0,0,20.0,1
223,223,-0.8984180158564302,-0.9,1.0,0.0,458.0,956.0,0.0,0,506.0,1
224,224,-0.3449400906317994,-0.3,1.0,0.0,268.0,972.0,0.0,0,120.0,1
225,225,-0.49336560189202133,-0.5,1.0,0.0,285.0,886.0,0.0,0,849.0,1
226,226,0.8279602658472046,0.8,1.0,1.0,307.0,987.0,0.0,0,-44.0,0
227,227,-0.41267076077093073,-0.4,1.0,0.0,396.0,942.0,0.0,0,32.0,1
228,228,0.8287993230877698,0.8,0.0,0.0,336.0,741.0,0.0,1,223.0,1
229,229,0.5633536977001866,0.6,1.0,1.0,336.0,886.0,1.0,1,1068.0,1
230,230,0.5333005249065704,0.5,1.0,1.0,381.0,859.0,1.0,1,390.0,1
231,231,-0.4224117061954814,-0.4,0.0,1.0,272.0,782.0,1.0,0,1396.0,1
232,232,-0.5206030276912479,-0.5,0.0,1.0,361.0,513.0,1.0,0,536.0,1
233,233,0.09385578069271927,0.1,1.0,1.0,415.0,525.0,1.0,1,690.0,1
234,234,-0.762631790407617,-0.8,0.0,1.0,351.0,604.0,1.0,0,865.0,1
235,235,-0.40924440613538193,-0.4,1.0,0.0,282.0,820.0,1.0,1,748.0,0
236,236,0.7221300782323824,0.7,1.0,1.0,471.0,704.0,1.0,1,255.0,1
237,237,-0.007733491114022106,-0.0,0.0,1.0,363.0,787.0,0.0,1,1060.0,0
238,238,-0.7638948809561059,-0.8,0.0,1.0,400.0,887.0,1.0,0,423.0,1
239,239,-0.27343902149519805,-0.3,0.0,1.0,450.0,872.0,1.0,0,208.0,1
240,240,0.35912184928289703,0.4,1.0,1.0,451.0,884.0,1.0,1,525.0,1
241,241,0.4468348290675449,0.4,1.0,1.0,266.0,536.0,1.0,1,418.0,1
242,242,0.7958618092873667,0.8,1.0,1.0,492.0,671.0,1.0,1,387.0,1
243,243,0.6423324584110514,0.6,1.0,1.0,415.0,572.0,1.0,1,543.0,1
244,244,0.724109246587825,0.7,1.0,1.0,320.0,927.0,1.0,1,203.0,1
245,245,-0.49515498194327473,-0.5,0.0,1.0,389.0,773.0,1.0,0,498.0,1
246,246,-0.8881346277069693,-0.9,1.0,0.0,282.0,759.0,0.0,0,249.0,1
247,247,-0.036740098666734444,-0.0,1.0,0.0,312.0,957.0,1.0,1,21.0,0
248,248,0.2431619333460574,0.2,0.0,0.0,454.0,715.0,0.0,1,361.0,1
249,249,-0.7581316027225677,-0.8,0.0,1.0,430.0,553.0,1.0,0,457.0,1
250,250,0.2124908866594094,0.2,0.0,0.0,378.0,666.0,0.0,1,1686.0,1
251,251,-0.19854602335542693,-0.2,1.0,0.0,334.0,840.0,1.0,1,486.0,0
252,252,0.21762429301793007,0.2,1.0,1.0,355.0,718.0,1.0,1,387.0,1
253,253,0.6025811109079752,0.6,0.0,0.0,477.0,957.0,0.0,1,116.0,1
254,254,-0.11640962163277513,-0.1,0.0,1.0,470.0,709.0,0.0,1,441.0,0
255,255,0.25191187014769023,0.3,0.0,0.0,288.0,627.0,0.0,1,415.0,1
256,256,-0.8035454986846208,-0.8,1.0,0.0,491.0,992.0,0.0,0,127.0,1
257,257,-0.4028787664502959,-0.4,1.0,0.0,310.0,526.0,0.0,0,854.0,1
258,258,0.693368224528807,0.7,0.0,0.0,393.0,837.0,0.0,1,620.0,1
259,259,-0.5688864735649837,-0.6,1.0,0.0,458.0,985.0,1.0,1,107.0,0
260,260,-0.020865414640043323,-0.0,0.0,1.0,381.0,660.0,1.0,0,899.0,1
261,261,0.4292472881917385,0.4,1.0,1.0,449.0,732.0,1.0,1,889.0,1
262,262,-0.7686877579515984,-0.8,1.0,0.0,346.0,958.0,0.0,0,66.0,1
263,263,-0.8879419792423602,-0.9,1.0,0.0,331.0,995.0,0.0,0,744.0,1
264,264,0.8214669850802646,0.8,0.0,0.0,479.0,648.0,0.0,1,283.0,1
265,265,0.7465687785860896,0.7,1.0,1.0,412.0,749.0,1.0,1,709.0,1
266,266,-0.3326725818149755,-0.3,0.0,1.0,320.0,859.0,1.0,0,671.0,1
267,267,-0.8289600561999585,-0.8,0.0,1.0,469.0,682.0,1.0,0,489.0,1
268,268,-0.026892569869010674,-0.0,0.0,1.0,299.0,512.0,0.0,1,659.0,0
269,269,0.8052371420045471,0.8,1.0,1.0,385.0,877.0,1.0,1,198.0,1
270,270,-0.8428821018847745,-0.8,1.0,0.0,311.0,824.0,0.0,0,935.0,1
271,271,-0.6259923083232081,-0.6,0.0,1.0,262.0,798.0,1.0,0,450.0,1
272,272,0.21923635338881364,0.2,1.0,1.0,499.0,617.0,1.0,1,1354.0,1
273,273,-0.3786430236012659,-0.4,1.0,0.0,313.0,739.0,0.0,0,308.0,1
274,274,0.5268439362493468,0.5,0.0,0.0,316.0,767.0,0.0,1,197.0,1
275,275,0.14507559905668665,0.1,1.0,1.0,451.0,972.0,0.0,0,97.0,0
276,276,0.025460801128652788,0.0,0.0,0.0,388.0,700.0,0.0,1,1012.0,1
277,277,-0.6138160390822519,-0.6,0.0,1.0,293.0,587.0,1.0,0,680.0,1
278,278,0.4324935038696046,0.4,1.0,1.0,455.0,779.0,1.0,1,616.0,1
279,279,0.01036763283435227,0.0,0.0,0.0,335.0,985.0,0.0,1,210.0,1
280,280,-0.8636219117551321,-0.9,0.0,1.0,255.0,636.0,1.0,0,459.0,1
281,281,-0.683997665431345,-0.7,1.0,0.0,435.0,555.0,0.0,0,540.0,1
282,282,-0.07437503299853954,-0.1,1.0,0.0,473.0,662.0,0.0,0,985.0,1
283,283,-0.24431301144082007,-0.2,1.0,0.0,296.0,687.0,0.0,0,987.0,1
284,284,0.5649050089914759,0.6,0.0,0.0,316.0,795.0,0.0,1,389.0,1
285,285,-0.3729195928624579,-0.4,0.0,1.0,440.0,581.0,1.0,0,959.0,1
286,286,-0.21345261417705852,-0.2,1.0,0.0,376.0,589.0,1.0,1,1515.0,0
287,287,0.30294047197669516,0.3,1.0,1.0,417.0,614.0,1.0,1,569.0,1
288,288,-0.2729579252632798,-0.3,0.0,1.0,342.0,803.0,0.0,1,315.0,0
289,289,-0.012236311224976593,-0.0,1.0,0.0,484.0,689.0,1.0,1,527.0,0
290,290,-0.6850941680450444,-0.7,1.0,0.0,259.0,915.0,0.0,0,466.0,1
291,291,0.3342909630118066,0.3,0.0,0.0,322.0,558.0,0.0,1,820.0,1
292,292,0.1868167303558711,0.2,1.0,1.0,454.0,743.0,1.0,1,953.0,1
293,293,0.33730100652928463,0.3,1.0,1.0,395.0,905.0,1.0,1,320.0,1
294,294,-0.4906491181647327,-0.5,0.0,1.0,254.0,865.0,1.0,0,501.0,1
295,295,0.23165915782137303,0.2,0.0,0.0,309.0,730.0,0.0,1,271.0,1
296,296,-0.11016074471841442,-0.1,0.0,1.0,330.0,509.0,0.0,1,481.0,0
297,297,0.5981788933597779,0.6,0.0,0.0,388.0,520.0,0.0,1,312.0,1
298,298,0.06341639573847735,0.1,0.0,0.0,440.0,611.0,1.0,0,609.0,0
299,299,0.33654744739911335,0.3,0.0,0.0,379.0,559.0,0.0,1,882.0,1
300,300,-0.45735176564318125,-0.5,0.0,1.0,289.0,626.0,1.0,0,755.0,1
301,301,-0.0678614749092159,-0.1,1.0,0.0,403.0,669.0,1.0,1,808.0,0
302,302,0.892991028856878,0.9,1.0,1.0,437.0,952.0,1.0,1,241.0,1
303,303,-0.7127471391515557,-0.7,0.0,1.0,400.0,653.0,1.0,0,427.0,1
304,304,0.6853163212507166,0.7,1.0,1.0,265.0,802.0,1.0,1,253.0,1
305,305,-0.08447843882866868,-0.1,0.0,1.0,469.0,502.0,1.0,0,1199.0,1
306,306,0.6196686440961602,0.6,1.0,1.0,447.0,527.0,1.0,1,556.0,1
307,307,0.6242041721725021,0.6,0.0,0.0,359.0,977.0,0.0,1,534.0,1
308,308,-0.05547016364441071,-0.1,1.0,0.0,433.0,618.0,1.0,1,369.0,0
309,309,-0.4565584372588933,-0.5,1.0,0.0,454.0,861.0,0.0,0,1215.0,1
310,310,-0.2448585341137246,-0.2,0.0,1.0,387.0,770.0,1.0,0,433.0,1
311,311,-0.515214706644445,-0.5,1.0,0.0,308.0,874.0,0.0,0,688.0,1
312,312,-0.7817730657279721,-0.8,0.0,1.0,402.0,672.0,1.0,0,576.0,1
313,313,0.4100877473676726,0.4,0.0,0.0,322.0,558.0,0.0,1,720.0,1
314,314,0.09723123309674997,0.1,0.0,0.0,376.0,994.0,0.0,1,-160.0,1
315,315,-0.867223296325363,-0.9,1.0,0.0,438.0,847.0,0.0,0,305.0,1
316,316,0.8419429593622055,0.8,0.0,0.0,449.0,551.0,0.0,1,430.0,1
317,317,0.22527102624588713,0.2,0.0,0.0,491.0,718.0,0.0,1,1151.0,1
318,318,-0.30996226517002856,-0.3,1.0,0.0,342.0,832.0,0.0,0,206.0,1
319,319,0.8529183151749117,0.9,1.0,1.0,335.0,967.0,1.0,1,368.0,1
320,320,0.2539834820505008,0.3,1.0,1.0,401.0,683.0,1.0,1,656.0,1
321,321,-0.3556399463321238,-0.4,1.0,0.0,431.0,961.0,0.0,0,288.0,1
322,322,0.4223267735236943,0.4,0.0,0.0,285.0,960.0,0.0,1,215.0,1
323,323,-0.818316579040758,-0.8,0.0,1.0,467.0,811.0,1.0,0,742.0,1
324,324,-0.0839013681807188,-0.1,1.0,0.0,454.0,878.0,1.0,1,1518.0,0
325,325,0.8008103866210236,0.8,1.0,1.0,436.0,821.0,1.0,1,223.0,1
326,326,0.00472024415193717,0.0,1.0,1.0,473.0,936.0,1.0,1,441.0,1
327,327,0.17356059016587733,0.2,1.0,1.0,380.0,913.0,0.0,0,67.0,0
328,328,0.8287975442045613,0.8,1.0,1.0,443.0,701.0,1.0,1,266.0,1
329,329,0.5485771414045132,0.5,0.0,0.0,472.0,690.0,0.0,1,288.0,1
330,330,0.8433372001228453,0.8,0.0,0.0,295.0,591.0,0.0,1,424.0,1
331,331,-0.11200408606768708,-0.1,1.0,0.0,394.0,991.0,1.0,1,685.0,0
332,332,0.031833856918272674,0.0,1.0,1.0,297.0,988.0,1.0,1,635.0,1
333,333,-0.8026200574202816,-0.8,1.0,0.0,368.0,841.0,0.0,0,561.0,1
334,334,0.47679500802686337,0.5,1.0,1.0,258.0,703.0,1.0,1,359.0,1
335,335,-0.48400393673059544,-0.5,1.0,0.0,314.0,878.0,1.0,1,238.0,0
336,336,0.06463454294990645,0.1,1.0,1.0,421.0,599.0,1.0,1,760.0,1
337,337,0.3196917084138936,0.3,1.0,1.0,423.0,777.0,1.0,1,280.0,1
338,338,-0.42190386038093947,-0.4,0.0,1.0,293.0,848.0,1.0,0,349.0,1
339,339,-0.11960601226796708,-0.1,0.0,1.0,323.0,904.0,1.0,0,843.0,1
340,340,-0.8718359083756003,-0.9,1.0,0.0,256.0,937.0,0.0,0,97.0,1
341,341,0.3941344011686404,0.4,0.0,0.0,347.0,554.0,0.0,1,449.0,1
342,342,-0.6598495159701516,-0.7,0.0,1.0,495.0,903.0,1.0,0,492.0,1
343,343,-0.00902332381522497,-0.0,1.0,0.0,389.0,721.0,0.0,0,610.0,1
344,344,-0.5980691143266116,-0.6,1.0,0.0,401.0,932.0,0.0,0,537.0,1
345,345,-0.5280130220793995,-0.5,0.0,1.0,387.0,705.0,1.0,0,1228.0,1
346,346,0.2505750926763236,0.3,0.0,0.0,387.0,673.0,0.0,1,510.0,1
347,347,-0.03317233205584691,-0.0,1.0,0.0,472.0,819.0,1.0,1,1229.0,0
348,348,0.15204495759273884,0.2,1.0,1.0,315.0,521.0,1.0,1,464.0,1
349,349,-0.8086291411052546,-0.8,1.0,0.0,382.0,644.0,0.0,0,214.0,1
350,350,0.43698396060177636,0.4,1.0,1.0,312.0,878.0,1.0,1,410.0,1
351,351,-0.1486639951418085,-0.1,0.0,1.0,404.0,871.0,1.0,0,525.0,1
352,352,0.1105550231408382,0.1,1.0,1.0,318.0,880.0,1.0,1,922.0,1
353,353,-0.38072756023692167,-0.4,1.0,0.0,329.0,638.0,0.0,0,343.0,1
354,354,-0.4874568532403106,-0.5,0.0,1.0,487.0,953.0,0.0,1,-100.0,0
355,355,0.4087575494354446,0.4,1.0,1.0,382.0,920.0,1.0,1,138.0,1
356,356,-0.48540455975276325,-0.5,1.0,0.0,254.0,735.0,0.0,0,221.0,1
357,357,-0.6505087604283547,-0.7,1.0,0.0,392.0,845.0,0.0,0,603.0,1
358,358,0.33461648395499755,0.3,1.0,1.0,287.0,615.0,1.0,1,568.0,1
359,359,-0.7363594171176325,-0.7,1.0,0.0,363.0,970.0,1.0,1,-113.0,0
360,360,-0.2472331670633403,-0.2,0.0,1.0,392.0,522.0,1.0,0,516.0,1
361,361,-0.5746384439994601,-0.6,0.0,1.0,447.0,788.0,1.0,0,395.0,1
362,362,-0.8043513829832543,-0.8,1.0,0.0,286.0,561.0,0.0,0,703.0,1
363,363,-0.1654904718238076,-0.2,1.0,0.0,482.0,959.0,1.0,1,-21.0,0
364,364,0.7014851515685866,0.7,0.0,0.0,325.0,926.0,0.0,1,279.0,1
365,365,0.8156673033891918,0.8,1.0,1.0,275.0,645.0,1.0,1,520.0,1
366,366,-0.4254515915206717,-0.4,1.0,0.0,364.0,755.0,1.0,1,341.0,0
367,367,0.6230730634729699,0.6,0.0,0.0,368.0,998.0,0.0,1,894.0,1
368,368,0.3780704299018188,0.4,1.0,1.0,499.0,550.0,1.0,1,321.0,1
369,369,-0.613904092609044,-0.6,1.0,0.0,290.0,895.0,0.0,0,405.0,1
370,370,0.5955424308777052,0.6,0.0,0.0,289.0,794.0,1.0,0,417.0,0
371,371,0.8247064037302653,0.8,0.0,0.0,460.0,762.0,0.0,1,248.0,1
372,372,0.7874834425324034,0.8,0.0,0.0,453.0,899.0,0.0,1,418.0,1
373,373,0.6032010999771243,0.6,0.0,0.0,360.0,774.0,0.0,1,116.0,1
374,374,-0.06092992961748467,-0.1,1.0,0.0,418.0,887.0,1.0,1,615.0,0
375,375,0.6761320848270308,0.7,0.0,0.0,299.0,898.0,0.0,1,423.0,1
376,376,0.42129931127547626,0.4,0.0,0.0,287.0,884.0,0.0,1,169.0,1
377,377,-0.3145737654308728,-0.3,0.0,1.0,302.0,739.0,1.0,0,519.0,1
378,378,-0.4536065911328697,-0.5,0.0,1.0,446.0,918.0,1.0,0,816.0,1
379,379,0.3596666264396736,0.4,1.0,1.0,269.0,983.0,1.0,1,608.0,1
380,380,0.5678449763127683,0.6,1.0,1.0,488.0,908.0,1.0,1,224.0,1
381,381,-0.3226777510291693,-0.3,1.0,0.0,498.0,505.0,0.0,0,3927.0,1
382,382,-0.65106364088919,-0.7,1.0,0.0,489.0,606.0,0.0,0,785.0,1
383,383,-0.3905463812024822,-0.4,1.0,0.0,341.0,914.0,0.0,0,305.0,1
384,384,-0.6369704449200919,-0.6,0.0,1.0,453.0,884.0,1.0,0,453.0,1
385,385,0.04589552965533028,0.0,0.0,0.0,411.0,813.0,1.0,0,386.0,0
386,386,0.32186358950203553,0.3,1.0,1.0,322.0,862.0,1.0,1,816.0,1
387,387,-0.3637631139402908,-0.4,1.0,0.0,395.0,832.0,0.0,0,923.0,1
388,388,-0.6192725090619666,-0.6,0.0,1.0,480.0,569.0,1.0,0,681.0,1
389,389,0.747904073689767,0.7,1.0,1.0,417.0,802.0,1.0,1,471.0,1
390,390,-0.15303739782087267,-0.2,0.0,1.0,490.0,908.0,1.0,0,812.0,1
391,391,-0.7997497115901223,-0.8,1.0,0.0,448.0,947.0,0.0,0,235.0,1
392,392,0.6553071695008105,0.7,0.0,0.0,271.0,818.0,0.0,1,661.0,1
393,393,0.41986862174269446,0.4,1.0,1.0,431.0,814.0,1.0,1,235.0,1
394,394,0.8647261789399235,0.9,0.0,0.0,416.0,704.0,0.0,1,280.0,1
395,395,0.6988586585963174,0.7,0.0,0.0,427.0,596.0,0.0,1,377.0,1
396,396,0.028034423147582532,0.0,1.0,1.0,447.0,532.0,1.0,1,431.0,1
397,397,-0.7427369475403363,-0.7,0.0,1.0,433.0,929.0,1.0,0,448.0,1
398,398,0.30835033191275507,0.3,0.0,0.0,283.0,517.0,0.0,1,690.0,1
399,399,0.08852233144214294,0.1,1.0,1.0,299.0,655.0,1.0,1,236.0,1
400,400,0.6794949513369916,0.7,1.0,1.0,325.0,849.0,1.0,1,216.0,1
401,401,-0.4535624875663936,-0.5,1.0,0.0,345.0,882.0,0.0,0,193.0,1
402,402,-0.20732792635173725,-0.2,1.0,0.0,415.0,685.0,0.0,0,280.0,1
403,403,0.6208044048751479,0.6,1.0,1.0,445.0,820.0,1.0,1,525.0,1
404,404,-0.2570636461456003,-0.3,1.0,0.0,423.0,974.0,1.0,1,473.0,0
405,405,-0.6593520255707397,-0.7,1.0,0.0,314.0,609.0,0.0,0,307.0,1
406,406,-0.8504627968283114,-0.9,1.0,0.0,262.0,994.0,0.0,0,304.0,1
407,407,0.7732981071955428,0.8,1.0,1.0,372.0,756.0,1.0,1,262.0,1
408,408,0.3019675525380817,0.3,0.0,0.0,426.0,940.0,1.0,0,894.0,0
409,409,0.6381950619014521,0.6,1.0,1.0,381.0,690.0,1.0,1,229.0,1
410,410,0.602807296693454,0.6,1.0,1.0,486.0,762.0,1.0,1,692.0,1
411,411,-0.030942794547182517,-0.0,0.0,1.0,414.0,716.0,0.0,1,1160.0,0
412,412,-0.5051172643672744,-0.5,0.0,1.0,255.0,944.0,0.0,1,221.0,0
413,413,-0.06649332661819884,-0.1,1.0,0.0,379.0,953.0,1.0,1,298.0,0
414,414,0.05121365277801326,0.1,0.0,0.0,497.0,726.0,0.0,1,1097.0,1
415,415,0.2727193564694975,0.3,1.0,1.0,328.0,792.0,1.0,1,190.0,1
416,416,0.026836767422704688,0.0,0.0,0.0,464.0,504.0,1.0,0,2042.0,0
417,417,-0.8760068122599922,-0.9,0.0,1.0,368.0,798.0,1.0,0,504.0,1
418,418,0.0517851258568085,0.1,1.0,1.0,362.0,617.0,1.0,1,911.0,1
419,419,0.7713743025323999,0.8,0.0,0.0,379.0,874.0,0.0,1,267.0,1
420,420,-0.7493431281947862,-0.7,1.0,0.0,388.0,934.0,0.0,0,208.0,1
421,421,-0.7616457606886475,-0.8,1.0,0.0,364.0,736.0,0.0,0,680.0,1
422,422,0.8007890472527971,0.8,1.0,1.0,368.0,976.0,1.0,1,96.0,1
423,423,0.4174457638840977,0.4,0.0,0.0,303.0,589.0,0.0,1,388.0,1
424,424,-0.23307552168558265,-0.2,1.0,0.0,401.0,712.0,0.0,0,297.0,1
425,425,-0.28079277108358314,-0.3,1.0,0.0,451.0,908.0,1.0,1,121.0,0
426,426,-0.8708526723765944,-0.9,0.0,1.0,343.0,910.0,0.0,1,-123.0,0
427,427,-0.8684859900363141,-0.9,0.0,1.0,287.0,564.0,1.0,0,1089.0,1
428,428,-0.10914783691825047,-0.1,1.0,0.0,419.0,656.0,0.0,0,645.0,1
429,429,-0.4469394573555144,-0.4,1.0,0.0,461.0,607.0,0.0,0,1002.0,1
430,430,0.857098422984042,0.9,1.0,1.0,464.0,614.0,1.0,1,412.0,1
431,431,-0.16214948024502762,-0.2,0.0,1.0,279.0,861.0,0.0,1,560.0,0
432,432,-0.7134340335002538,-0.7,0.0,1.0,400.0,612.0,1.0,0,1248.0,1
433,433,0.3800234804534185,0.4,0.0,0.0,461.0,926.0,0.0,1,383.0,1
434,434,0.2705747529428316,0.3,0.0,0.0,478.0,662.0,0.0,1,610.0,1
435,435,0.8649950063166475,0.9,1.0,1.0,384.0,638.0,1.0,1,428.0,1
436,436,0.3020216225531961,0.3,1.0,1.0,361.0,990.0,1.0,1,1849.0,1
437,437,0.010374401173402492,0.0,0.0,0.0,299.0,515.0,0.0,1,426.0,1
438,438,-0.13777827290305067,-0.1,1.0,0.0,362.0,865.0,1.0,1,633.0,0
439,439,0.5354977083538631,0.5,1.0,1.0,302.0,526.0,1.0,1,582.0,1
440,440,-0.6896353973872247,-0.7,1.0,0.0,438.0,500.0,0.0,0,332.0,1
441,441,-0.03158901923152624,-0.0,0.0,1.0,474.0,786.0,0.0,1,1100.0,0
442,442,-0.8380789195928541,-0.8,1.0,0.0,399.0,502.0,0.0,0,709.0,1
443,443,0.5582201524510214,0.6,0.0,0.0,492.0,676.0,0.0,1,512.0,1
444,444,-0.42329885023670016,-0.4,1.0,0.0,309.0,931.0,1.0,1,750.0,0
445,445,-0.7851455386134434,-0.8,1.0,0.0,462.0,959.0,0.0,0,229.0,1
446,446,-0.3767624129519709,-0.4,0.0,1.0,346.0,815.0,1.0,0,1209.0,1
447,447,0.6100977094245478,0.6,0.0,0.0,420.0,939.0,0.0,1,231.0,1
448,448,-0.6605579892759125,-0.7,1.0,0.0,314.0,646.0,0.0,0,1450.0,1
449,449,-0.3225165425226766,-0.3,0.0,1.0,374.0,746.0,1.0,0,370.0,1
450,450,-0.38346771424078485,-0.4,1.0,0.0,437.0,524.0,0.0,0,839.0,1
451,451,0.38954022928605647,0.4,1.0,1.0,443.0,712.0,1.0,1,765.0,1
452,452,-0.297276092016888,-0.3,1.0,0.0,406.0,823.0,1.0,1,1861.0,0
453,453,0.7650413590780464,0.8,0.0,0.0,391.0,622.0,0.0,1,257.0,1
454,454,-0.20993193255006137,-0.2,0.0,1.0,416.0,890.0,1.0,0,464.0,1
455,455,0.5130278009994401,0.5,0.0,0.0,312.0,766.0,0.0,1,112.0,1
456,456,-0.4893984553658871,-0.5,0.0,1.0,303.0,582.0,1.0,0,825.0,1
457,457,-0.2905871398453159,-0.3,1.0,0.0,260.0,906.0,0.0,0,1574.0,1
458,458,-0.041166422271310066,-0.0,0.0,1.0,488.0,787.0,0.0,1,105.0,0
459,459,-0.5459914106135597,-0.5,0.0,1.0,475.0,944.0,1.0,0,51.0,1
460,460,-0.26902492291697666,-0.3,0.0,1.0,405.0,561.0,1.0,0,754.0,1
461,461,-0.05880549439728322,-0.1,1.0,0.0,325.0,688.0,0.0,0,167.0,1
462,462,-0.25215453324226234,-0.3,0.0,1.0,365.0,691.0,1.0,0,904.0,1
463,463,-0.02286257695068472,-0.0,1.0,0.0,401.0,828.0,1.0,1,-69.0,0
464,464,-0.04840167371492399,-0.0,0.0,1.0,276.0,917.0,1.0,0,617.0,1
465,465,0.23149916047288543,0.2,0.0,0.0,384.0,630.0,0.0,1,336.0,1
466,466,-0.37115144893204277,-0.4,0.0,1.0,294.0,598.0,1.0,0,748.0,1
467,467,-0.20810745248188245,-0.2,1.0,0.0,313.0,910.0,0.0,0,157.0,1
468,468,0.14886476908368074,0.1,0.0,0.0,378.0,631.0,0.0,1,481.0,1
469,469,-0.8790604571091428,-0.9,1.0,0.0,304.0,720.0,0.0,0,406.0,1
470,470,-0.8280699115707877,-0.8,1.0,0.0,313.0,553.0,0.0,0,514.0,1
471,471,0.6840354013750983,0.7,1.0,1.0,319.0,600.0,1.0,1,341.0,1
472,472,0.2945426828738823,0.3,1.0,1.0,327.0,890.0,1.0,1,493.0,1
473,473,0.27015897152222645,0.3,1.0,1.0,421.0,707.0,0.0,0,192.0,0
474,474,-0.34378839466916233,-0.3,0.0,1.0,396.0,628.0,1.0,0,526.0,1
475,475,-0.5348418683304306,-0.5,1.0,0.0,325.0,637.0,0.0,0,2498.0,1
476,476,-0.43004367572588403,-0.4,0.0,1.0,467.0,665.0,1.0,0,798.0,1
477,477,0.5186971414960179,0.5,0.0,0.0,432.0,862.0,0.0,1,226.0,1
478,478,-0.6091106944348248,-0.6,1.0,0.0,473.0,948.0,0.0,0,629.0,1
479,479,0.6093243915655863,0.6,1.0,1.0,484.0,783.0,1.0,1,573.0,1
480,480,-0.3151134586458887,-0.3,1.0,0.0,449.0,503.0,1.0,1,758.0,0
481,481,0.12471539713211077,0.1,0.0,0.0,462.0,587.0,0.0,1,321.0,1
482,482,0.6724913501960953,0.7,0.0,0.0,441.0,778.0,0.0,1,421.0,1
483,483,-0.7290710692864835,-0.7,0.0,1.0,477.0,996.0,1.0,0,267.0,1
484,484,-0.11125504966388422,-0.1,0.0,1.0,448.0,532.0,0.0,1,1080.0,0
485,485,0.75570336787295,0.8,1.0,1.0,387.0,615.0,1.0,1,388.0,1
486,486,0.23565797471444816,0.2,1.0,1.0,481.0,822.0,1.0,1,-43.0,1
487,487,-0.3028683979075846,-0.3,0.0,1.0,300.0,909.0,0.0,1,-29.0,0
488,488,0.5580362211008406,0.6,1.0,1.0,395.0,896.0,1.0,1,799.0,1
489,489,0.4623376744178683,0.5,0.0,0.0,498.0,907.0,0.0,1,45.0,1
490,490,-0.10906540128224795,-0.1,0.0,1.0,482.0,929.0,1.0,0,1159.0,1
491,491,-0.5551242507464262,-0.6,0.0,1.0,432.0,822.0,1.0,0,546.0,1
492,492,0.20831714781293142,0.2,1.0,1.0,413.0,906.0,1.0,1,371.0,1
493,493,0.017104401201662456,0.0,0.0,0.0,497.0,593.0,0.0,1,670.0,1
494,494,-0.47558799213608866,-0.5,1.0,0.0,264.0,866.0,1.0,1,640.0,0
495,495,0.22601394844854406,0.2,0.0,0.0,465.0,812.0,1.0,0,263.0,0
496,496,-0.5064303297800574,-0.5,1.0,0.0,299.0,844.0,0.0,0,957.0,1
497,497,-0.21886992462242338,-0.2,1.0,0.0,454.0,800.0,1.0,1,246.0,0
498,498,-0.29638449143361323,-0.3,0.0,1.0,373.0,694.0,1.0,0,493.0,1
499,499,-0.1534107232281744,-0.2,1.0,0.0,341.0,846.0,1.0,1,1233.0,0
500,500,0.6146594189092706,0.6,0.0,0.0,366.0,543.0,0.0,1,381.0,1
501,501,-0.676404087171583,-0.7,1.0,0.0,272.0,695.0,0.0,0,353.0,1
502,502,0.7618342912163744,0.8,0.0,0.0,363.0,607.0,0.0,1,720.0,1
503,503,-0.46309754867584446,-0.5,0.0,1.0,437.0,834.0,1.0,0,279.0,1
504,504,-0.493413271689401,-0.5,0.0,1.0,491.0,577.0,1.0,0,492.0,1
505,505,0.4368917232271473,0.4,1.0,1.0,435.0,941.0,1.0,1,144.0,1
506,506,0.20880968972378844,0.2,1.0,1.0,493.0,961.0,1.0,1,406.0,1
507,507,0.3703495217328473,0.4,0.0,0.0,314.0,555.0,0.0,1,251.0,1
508,508,-0.1981440085832784,-0.2,0.0,1.0,424.0,763.0,1.0,0,903.0,1
509,509,-0.47998546258634084,-0.5,1.0,0.0,343.0,715.0,1.0,1,1512.0,0
510,510,-0.19616695001610496,-0.2,0.0,1.0,476.0,793.0,0.0,1,461.0,0
511,511,-0.871944871499513,-0.9,0.0,1.0,258.0,989.0,1.0,0,843.0,1
512,512,0.17939291073862063,0.2,0.0,0.0,292.0,931.0,0.0,1,477.0,1
513,513,-0.49934851366433525,-0.5,1.0,0.0,481.0,892.0,0.0,0,497.0,1
514,514,-0.09789468892320452,-0.1,1.0,0.0,490.0,801.0,1.0,1,259.0,0
515,515,-0.7158189962490635,-0.7,0.0,1.0,488.0,993.0,1.0,0,119.0,1
516,516,0.7571104977726323,0.8,0.0,0.0,448.0,558.0,0.0,1,384.0,1
517,517,-0.05326655010738912,-0.1,1.0,0.0,294.0,629.0,0.0,0,707.0,1
518,518,0.367995836135076,0.4,1.0,1.0,484.0,820.0,1.0,1,526.0,1
519,519,-0.6571031174718265,-0.7,0.0,1.0,484.0,761.0,1.0,0,425.0,1
520,520,0.8411534670428965,0.8,0.0,0.0,376.0,623.0,0.0,1,231.0,1
521,521,0.023667388671018696,0.0,1.0,1.0,286.0,912.0,1.0,1,342.0,1
522,522,-0.2998617722788457,-0.3,0.0,1.0,479.0,975.0,0.0,1,866.0,0
523,523,0.3790823362451671,0.4,1.0,1.0,442.0,860.0,1.0,1,578.0,1
524,524,0.816549102934475,0.8,0.0,0.0,253.0,814.0,0.0,1,233.0,1
525,525,-0.627494493393123,-0.6,1.0,0.0,297.0,854.0,0.0,0,1339.0,1
526,526,0.49219802520545375,0.5,0.0,0.0,372.0,988.0,0.0,1,310.0,1
527,527,-0.336640127344879,-0.3,0.0,1.0,300.0,610.0,1.0,0,510.0,1
528,528,-0.13208010306228724,-0.1,1.0,0.0,372.0,500.0,1.0,1,738.0,0
529,529,-0.24941318554933356,-0.2,0.0,1.0,471.0,905.0,1.0,0,714.0,1
530,530,-0.46606716157773637,-0.5,1.0,0.0,456.0,532.0,0.0,0,822.0,1
531,531,-0.6066911274140774,-0.6,0.0,1.0,412.0,868.0,1.0,0,140.0,1
532,532,0.5667956697609032,0.6,0.0,0.0,382.0,684.0,0.0,1,304.0,1
533,533,0.8056902835153562,0.8,1.0,1.0,350.0,736.0,1.0,1,304.0,1
534,534,0.7138673800545402,0.7,0.0,0.0,301.0,759.0,0.0,1,260.0,1
535,535,0.14422107025531872,0.1,1.0,1.0,340.0,913.0,0.0,0,97.0,0
536,536,0.7351322766560023,0.7,0.0,0.0,360.0,974.0,0.0,1,16.0,1
537,537,0.6807434943278733,0.7,0.0,0.0,418.0,500.0,0.0,1,352.0,1
538,538,0.205854718459905,0.2,1.0,1.0,252.0,896.0,1.0,1,662.0,1
539,539,0.3787304408962059,0.4,1.0,1.0,292.0,661.0,1.0,1,1287.0,1
540,540,0.6104348305914816,0.6,1.0,1.0,385.0,648.0,1.0,1,497.0,1
541,541,0.7950048213044153,0.8,0.0,0.0,342.0,624.0,0.0,1,754.0,1
542,542,0.8809904783136892,0.9,1.0,1.0,488.0,595.0,1.0,1,487.0,1
543,543,-0.2823037258926223,-0.3,1.0,0.0,306.0,521.0,1.0,1,963.0,0
544,544,-0.5006210016973526,-0.5,0.0,1.0,256.0,590.0,1.0,0,424.0,1
545,545,-0.7193031000041769,-0.7,0.0,1.0,477.0,823.0,1.0,0,200.0,1
546,546,-0.7556442154106331,-0.8,0.0,1.0,475.0,571.0,1.0,0,444.0,1
547,547,-0.24211906823362717,-0.2,0.0,1.0,436.0,776.0,1.0,0,568.0,1
548,548,0.4618546643699578,0.5,0.0,0.0,376.0,595.0,0.0,1,459.0,1
549,549,0.3434412698641577,0.3,0.0,0.0,253.0,536.0,0.0,1,581.0,1
550,550,0.2725553269170965,0.3,0.0,0.0,287.0,911.0,0.0,1,-38.0,1
551,551,0.7580109312727988,0.8,1.0,1.0,303.0,831.0,1.0,1,406.0,1
552,552,0.8393422011271329,0.8,1.0,1.0,476.0,919.0,1.0,1,785.0,1
553,553,0.40337796499437084,0.4,0.0,0.0,317.0,748.0,0.0,1,335.0,1
554,554,0.6779202405376127,0.7,1.0,1.0,350.0,933.0,1.0,1,417.0,1
555,555,-0.3852564475874628,-0.4,0.0,1.0,348.0,501.0,1.0,0,461.0,1
556,556,0.1886400422331186,0.2,1.0,1.0,318.0,796.0,1.0,1,246.0,1
557,557,-0.6995876218569631,-0.7,0.0,1.0,350.0,606.0,1.0,0,524.0,1
558,558,-0.049608265319645684,-0.0,0.0,1.0,344.0,910.0,0.0,1,396.0,0
559,559,-0.2969893536783036,-0.3,0.0,1.0,302.0,641.0,0.0,1,2087.0,0
560,560,0.7392976947399471,0.7,1.0,1.0,422.0,896.0,1.0,1,532.0,1
561,561,-0.15039676137596658,-0.2,0.0,1.0,423.0,877.0,1.0,0,490.0,1
562,562,-0.11904372703379729,-0.1,1.0,0.0,257.0,835.0,1.0,1,568.0,0
563,563,0.5269925384487454,0.5,1.0,1.0,477.0,555.0,1.0,1,468.0,1
564,564,0.5595835446339635,0.6,1.0,1.0,495.0,520.0,1.0,1,835.0,1
565,565,0.4238390399247246,0.4,1.0,1.0,267.0,677.0,1.0,1,876.0,1
566,566,-0.006096994527521882,-0.0,0.0,1.0,298.0,745.0,0.0,1,217.0,0
567,567,0.11115857759650749,0.1,0.0,0.0,398.0,828.0,0.0,1,1514.0,1
568,568,-0.7508236464245674,-0.8,1.0,0.0,300.0,668.0,0.0,0,1042.0,1
569,569,0.8284428190862033,0.8,0.0,0.0,273.0,627.0,0.0,1,290.0,1
570,570,-0.4512428285663479,-0.5,0.0,1.0,436.0,729.0,1.0,0,605.0,1
571,571,0.23877875386022074,0.2,0.0,0.0,351.0,526.0,0.0,1,1033.0,1
572,572,-0.6656798297209686,-0.7,0.0,1.0,282.0,594.0,1.0,0,404.0,1
573,573,-0.6236306794667879,-0.6,1.0,0.0,364.0,722.0,0.0,0,174.0,1
574,574,-0.04757783564325291,-0.0,1.0,0.0,294.0,550.0,1.0,1,546.0,0
575,575,-0.3316059337726496,-0.3,1.0,0.0,475.0,936.0,0.0,0,129.0,1
576,576,0.17697308470674933,0.2,1.0,1.0,360.0,846.0,1.0,1,204.0,1
577,577,0.605313028489357,0.6,0.0,0.0,401.0,560.0,0.0,1,539.0,1
578,578,0.33188832967695425,0.3,0.0,0.0,287.0,629.0,0.0,1,2104.0,1
579,579,0.06479390732684487,0.1,1.0,1.0,377.0,608.0,1.0,1,1505.0,1
580,580,0.28612153786262173,0.3,0.0,0.0,413.0,772.0,0.0,1,1015.0,1
581,581,-0.6241603715980178,-0.6,0.0,1.0,432.0,763.0,1.0,0,965.0,1
582,582,0.47470625781735876,0.5,0.0,0.0,390.0,922.0,0.0,1,218.0,1
583,583,-0.5385226784609152,-0.5,1.0,0.0,264.0,730.0,0.0,0,346.0,1
584,584,-0.10016524627836498,-0.1,0.0,1.0,297.0,852.0,1.0,0,951.0,1
585,585,-0.43945459556338146,-0.4,0.0,1.0,253.0,833.0,1.0,0,454.0,1
586,586,-0.04258285972879672,-0.0,0.0,1.0,434.0,715.0,1.0,0,811.0,1
587,587,-0.5369525624139468,-0.5,1.0,0.0,418.0,709.0,0.0,0,663.0,1
588,588,-0.7191667655805097,-0.7,0.0,1.0,272.0,764.0,1.0,0,494.0,1
589,589,-0.366515697805315,-0.4,1.0,0.0,309.0,529.0,0.0,0,992.0,1
590,590,-0.5300829424461435,-0.5,0.0,1.0,300.0,671.0,1.0,0,599.0,1
591,591,-0.6208211058059798,-0.6,0.0,1.0,482.0,934.0,1.0,0,284.0,1
592,592,0.7353121373874255,0.7,1.0,1.0,404.0,833.0,1.0,1,303.0,1
593,593,-0.6033356710120347,-0.6,0.0,1.0,337.0,876.0,1.0,0,217.0,1
594,594,0.14448786281985349,0.1,1.0,1.0,346.0,845.0,1.0,1,149.0,1
595,595,-0.8622872457713432,-0.9,0.0,1.0,314.0,848.0,1.0,0,358.0,1
596,596,0.32849851966163335,0.3,0.0,0.0,357.0,624.0,0.0,1,749.0,1
597,597,-0.6889842496270016,-0.7,0.0,1.0,295.0,634.0,1.0,0,591.0,1
598,598,0.3249277391242439,0.3,0.0,0.0,405.0,915.0,0.0,1,310.0,1
599,599,0.8085632793094445,0.8,1.0,1.0,335.0,976.0,1.0,1,479.0,1
600,600,0.6019362332989203,0.6,1.0,1.0,476.0,969.0,1.0,1,105.0,1
601,601,-0.1013724438155531,-0.1,0.0,1.0,411.0,839.0,0.0,1,1170.0,0
602,602,-0.4117913435309048,-0.4,1.0,0.0,330.0,698.0,0.0,0,1132.0,1
603,603,0.4249395805848747,0.4,1.0,1.0,414.0,648.0,1.0,1,768.0,1
604,604,-0.8853617188941608,-0.9,0.0,1.0,292.0,643.0,1.0,0,425.0,1
605,605,-0.03965382560968156,-0.0,0.0,1.0,469.0,774.0,1.0,0,497.0,1
606,606,0.7385878252415542,0.7,1.0,1.0,495.0,557.0,1.0,1,428.0,1
607,607,0.8378656526845437,0.8,0.0,0.0,347.0,808.0,0.0,1,265.0,1
608,608,-0.2658502521066334,-0.3,1.0,0.0,269.0,533.0,0.0,0,1288.0,1
609,609,0.4295920085402699,0.4,1.0,1.0,404.0,798.0,1.0,1,1098.0,1
610,610,0.8853813432493253,0.9,1.0,1.0,375.0,605.0,1.0,1,340.0,1
611,611,0.616857647641632,0.6,0.0,0.0,254.0,534.0,0.0,1,402.0,1
612,612,-0.8571791077273477,-0.9,0.0,1.0,324.0,944.0,1.0,0,102.0,1
613,613,-0.08192023213107691,-0.1,0.0,1.0,470.0,804.0,1.0,0,716.0,1
614,614,0.22498108731335742,0.2,1.0,1.0,284.0,506.0,1.0,1,1330.0,1
615,615,-0.5334613045651522,-0.5,1.0,0.0,374.0,661.0,0.0,0,425.0,1
616,616,-0.8683794508698038,-0.9,1.0,0.0,360.0,596.0,0.0,0,674.0,1
617,617,0.06107068231739898,0.1,1.0,1.0,488.0,884.0,1.0,1,218.0,1
618,618,0.04053162168540292,0.0,0.0,0.0,324.0,910.0,1.0,0,1026.0,0
619,619,-0.6986191424306067,-0.7,0.0,1.0,448.0,739.0,1.0,0,393.0,1
620,620,0.5842611387794135,0.6,0.0,0.0,354.0,817.0,0.0,1,199.0,1
621,621,0.3626477564619558,0.4,1.0,1.0,318.0,983.0,1.0,1,1129.0,1
622,622,0.3140536621297113,0.3,0.0,0.0,290.0,640.0,0.0,1,390.0,1
623,623,0.7056265951099135,0.7,1.0,1.0,480.0,708.0,1.0,1,282.0,1
624,624,-0.044861185955037075,-0.0,1.0,0.0,401.0,961.0,1.0,1,1088.0,0
625,625,-0.17615616150160485,-0.2,0.0,1.0,364.0,831.0,0.0,1,405.0,0
626,626,-0.40068739990668145,-0.4,1.0,0.0,281.0,891.0,0.0,0,1698.0,1
627,627,-0.2512694307332173,-0.3,1.0,0.0,446.0,935.0,0.0,0,1109.0,1
628,628,-0.23504178708078516,-0.2,0.0,1.0,400.0,734.0,1.0,0,356.0,1
629,629,0.8391254109337948,0.8,1.0,1.0,324.0,682.0,1.0,1,444.0,1
630,630,0.8949079498821696,0.9,0.0,0.0,310.0,942.0,0.0,1,488.0,1
631,631,0.8105689889031541,0.8,1.0,1.0,388.0,581.0,1.0,1,301.0,1
632,632,-0.49967723055067187,-0.5,1.0,0.0,313.0,661.0,0.0,0,706.0,1
633,633,0.24758342154507107,0.2,1.0,1.0,497.0,672.0,1.0,1,481.0,1
634,634,-0.7661570654057235,-0.8,1.0,0.0,348.0,938.0,0.0,0,84.0,1
635,635,-0.051865137583331555,-0.1,1.0,0.0,450.0,781.0,0.0,0,339.0,1
636,636,-0.3738846222555029,-0.4,1.0,0.0,437.0,978.0,1.0,1,1435.0,0
637,637,-0.1815550866550545,-0.2,0.0,1.0,345.0,664.0,0.0,1,781.0,0
638,638,0.6192566647583307,0.6,1.0,1.0,303.0,878.0,1.0,1,389.0,1
639,639,0.5813893526221062,0.6,1.0,1.0,378.0,971.0,1.0,1,431.0,1
640,640,-0.6978277718058941,-0.7,0.0,1.0,399.0,687.0,1.0,0,504.0,1
641,641,0.06253037361412905,0.1,0.0,0.0,253.0,628.0,1.0,0,1589.0,0
642,642,-0.6970687887584417,-0.7,1.0,0.0,416.0,747.0,0.0,0,217.0,1
643,643,0.13718844306898748,0.1,1.0,1.0,331.0,846.0,1.0,1,193.0,1
644,644,-0.7567849308846034,-0.8,1.0,0.0,355.0,767.0,0.0,0,218.0,1
645,645,0.8100546328914896,0.8,0.0,0.0,382.0,904.0,0.0,1,124.0,1
646,646,-0.0695715918776596,-0.1,0.0,1.0,367.0,675.0,1.0,0,1488.0,1
647,647,0.48813348224155717,0.5,1.0,1.0,368.0,757.0,1.0,1,235.0,1
648,648,0.5567638772435287,0.6,1.0,1.0,323.0,937.0,1.0,1,490.0,1
649,649,-0.7238389876951379,-0.7,1.0,0.0,341.0,922.0,0.0,0,607.0,1
650,650,-0.5836734257574503,-0.6,0.0,1.0,341.0,977.0,1.0,0,362.0,1
651,651,0.2587113877919017,0.3,0.0,0.0,409.0,945.0,0.0,1,96.0,1
652,652,0.5431081548690738,0.5,1.0,1.0,428.0,653.0,1.0,1,559.0,1
653,653,0.3596622774335839,0.4,0.0,0.0,329.0,612.0,1.0,0,639.0,0
654,654,-0.4668980309395599,-0.5,1.0,0.0,318.0,961.0,0.0,0,2051.0,1
655,655,0.3732155538476444,0.4,1.0,1.0,328.0,990.0,1.0,1,412.0,1
656,656,0.1963514482837686,0.2,1.0,1.0,384.0,930.0,1.0,1,936.0,1
657,657,0.7561435393033372,0.8,0.0,0.0,282.0,533.0,0.0,1,415.0,1
658,658,-0.002993244862632416,-0.0,0.0,1.0,380.0,984.0,1.0,0,36.0,1
659,659,-0.2037065485406071,-0.2,0.0,1.0,409.0,857.0,0.0,1,254.0,0
660,660,-0.06523571680565154,-0.1,0.0,1.0,357.0,824.0,0.0,1,1389.0,0
661,661,-0.3655479070421145,-0.4,1.0,0.0,281.0,661.0,0.0,0,658.0,1
662,662,-0.5441803907339438,-0.5,1.0,0.0,441.0,551.0,0.0,0,1438.0,1
663,663,-0.8668372903872215,-0.9,1.0,0.0,278.0,613.0,0.0,0,479.0,1
664,664,-0.021999312324036513,-0.0,1.0,0.0,403.0,998.0,1.0,1,279.0,0
665,665,0.5177558389618587,0.5,0.0,0.0,385.0,958.0,1.0,0,177.0,0
666,666,0.6574645712705757,0.7,0.0,0.0,324.0,619.0,0.0,1,327.0,1
667,667,0.6181385060121075,0.6,0.0,0.0,359.0,783.0,0.0,1,958.0,1
668,668,0.13265375546790426,0.1,0.0,0.0,377.0,866.0,0.0,1,1667.0,1
669,669,-0.8231743696934112,-0.8,1.0,0.0,359.0,813.0,1.0,1,848.0,0
670,670,-0.560650042246466,-0.6,0.0,1.0,386.0,855.0,1.0,0,549.0,1
671,671,-0.091999567067365,-0.1,1.0,0.0,489.0,982.0,0.0,0,1689.0,1
672,672,0.7887671249683231,0.8,1.0,1.0,382.0,976.0,1.0,1,52.0,1
673,673,0.15595486424476535,0.2,0.0,0.0,435.0,952.0,0.0,1,233.0,1
674,674,0.0017326935641962526,0.0,1.0,1.0,488.0,677.0,1.0,1,1975.0,1
675,675,0.7253044462659121,0.7,0.0,0.0,375.0,977.0,0.0,1,448.0,1
676,676,-0.24168627293127554,-0.2,1.0,0.0,291.0,552.0,0.0,0,257.0,1
677,677,-0.35842723594741965,-0.4,1.0,0.0,336.0,686.0,0.0,0,298.0,1
678,678,-0.8977045735608482,-0.9,0.0,1.0,478.0,732.0,1.0,0,290.0,1
679,679,0.19288472972239779,0.2,1.0,1.0,261.0,839.0,1.0,1,550.0,1
680,680,0.17677369392900733,0.2,0.0,0.0,470.0,824.0,1.0,0,1436.0,0
681,681,0.34951616552899634,0.3,0.0,0.0,464.0,742.0,0.0,1,424.0,1
682,682,0.4139510906004392,0.4,0.0,0.0,259.0,877.0,0.0,1,234.0,1
683,683,-0.191520338516608,-0.2,1.0,0.0,269.0,786.0,0.0,0,365.0,1
684,684,0.4151037336541822,0.4,1.0,1.0,306.0,618.0,1.0,1,446.0,1
685,685,-0.16834783904577466,-0.2,0.0,1.0,467.0,654.0,1.0,0,829.0,1
686,686,-0.11262267676905136,-0.1,1.0,0.0,342.0,606.0,0.0,0,962.0,1
687,687,-0.4478231851207195,-0.4,1.0,0.0,374.0,935.0,0.0,0,271.0,1
688,688,0.23287105167529576,0.2,0.0,0.0,436.0,502.0,0.0,1,532.0,1
689,689,-0.8011915041317184,-0.8,0.0,1.0,450.0,903.0,1.0,0,217.0,1
690,690,0.4805352995484561,0.5,0.0,0.0,320.0,819.0,0.0,1,1141.0,1
691,691,0.8066559513317583,0.8,1.0,1.0,348.0,562.0,1.0,1,480.0,1
692,692,-0.2664732186590869,-0.3,0.0,1.0,469.0,636.0,0.0,1,425.0,0
693,693,0.5111817656195231,0.5,0.0,0.0,395.0,869.0,0.0,1,276.0,1
694,694,-0.26658811284749484,-0.3,1.0,0.0,437.0,627.0,1.0,1,936.0,0
695,695,-0.12465913276329765,-0.1,1.0,0.0,428.0,631.0,1.0,1,951.0,0
696,696,-0.6610298965712122,-0.7,1.0,0.0,304.0,620.0,0.0,0,906.0,1
697,697,0.12712647702276214,0.1,0.0,0.0,494.0,574.0,0.0,1,322.0,1
698,698,0.26434421531200536,0.3,0.0,0.0,287.0,822.0,0.0,1,311.0,1
699,699,0.1073508473676622,0.1,1.0,1.0,464.0,812.0,1.0,1,314.0,1
700,700,0.8839741790528107,0.9,1.0,1.0,330.0,578.0,1.0,1,542.0,1
701,701,-0.07715593668120024,-0.1,1.0,0.0,393.0,863.0,1.0,1,4.0,0
702,702,-0.5261598843671527,-0.5,1.0,0.0,418.0,594.0,0.0,0,958.0,1
703,703,-0.8150620869196634,-0.8,1.0,0.0,468.0,652.0,0.0,0,910.0,1
704,704,-0.4782504907676985,-0.5,0.0,1.0,446.0,733.0,1.0,0,591.0,1
705,705,0.5597727456471663,0.6,1.0,1.0,287.0,878.0,1.0,1,355.0,1
706,706,-0.7401540697132991,-0.7,1.0,0.0,491.0,788.0,0.0,0,381.0,1
707,707,0.26422496219768343,0.3,0.0,0.0,383.0,668.0,0.0,1,929.0,1
708,708,-0.0953182703441322,-0.1,0.0,1.0,384.0,571.0,0.0,1,745.0,0
709,709,-0.757495262127417,-0.8,0.0,1.0,284.0,992.0,1.0,0,224.0,1
710,710,0.7202100917627888,0.7,0.0,0.0,381.0,823.0,0.0,1,886.0,1
711,711,0.19969741865388546,0.2,0.0,0.0,325.0,903.0,0.0,1,202.0,1
712,712,0.39304832807829404,0.4,1.0,1.0,262.0,885.0,1.0,1,763.0,1
713,713,0.5959127912312182,0.6,0.0,0.0,424.0,986.0,0.0,1,490.0,1
714,714,-0.3193943244084284,-0.3,1.0,0.0,308.0,917.0,0.0,0,475.0,1
715,715,-0.12494254481303091,-0.1,0.0,1.0,355.0,699.0,0.0,1,376.0,0
716,716,-0.6611079079026458,-0.7,0.0,1.0,493.0,633.0,1.0,0,1074.0,1
717,717,-0.4545926229741342,-0.5,1.0,0.0,495.0,528.0,0.0,0,1617.0,1
718,718,-0.04039878855690682,-0.0,1.0,0.0,378.0,918.0,0.0,0,824.0,1
719,719,-0.7985786115955752,-0.8,1.0,0.0,350.0,820.0,0.0,0,960.0,1
720,720,-0.2271597536358747,-0.2,0.0,1.0,455.0,654.0,1.0,0,681.0,1
721,721,-0.3930407628461967,-0.4,1.0,0.0,436.0,541.0,0.0,0,463.0,1
722,722,0.01343922972915046,0.0,1.0,1.0,390.0,977.0,0.0,0,773.0,0
723,723,0.4254653481415208,0.4,1.0,1.0,418.0,630.0,1.0,1,382.0,1
724,724,-0.4394158253117418,-0.4,0.0,1.0,437.0,700.0,1.0,0,343.0,1
725,725,0.5579736706862338,0.6,0.0,0.0,360.0,549.0,0.0,1,411.0,1
726,726,0.0359854588250319,0.0,0.0,0.0,359.0,711.0,0.0,1,310.0,1
727,727,-0.3162363621012362,-0.3,1.0,0.0,466.0,729.0,0.0,0,245.0,1
728,728,0.3442930659417508,0.3,0.0,0.0,317.0,730.0,1.0,0,893.0,0
729,729,0.40136981191634147,0.4,0.0,0.0,295.0,670.0,0.0,1,465.0,1
730,730,0.2573063393515561,0.3,1.0,1.0,304.0,640.0,1.0,1,866.0,1
731,731,0.3252361172368722,0.3,0.0,0.0,333.0,690.0,0.0,1,297.0,1
732,732,0.3974780379514159,0.4,0.0,0.0,490.0,786.0,1.0,0,804.0,0
733,733,-0.6246750599291271,-0.6,0.0,1.0,484.0,990.0,1.0,0,1466.0,1
734,734,-0.6843542529279422,-0.7,0.0,1.0,400.0,643.0,1.0,0,827.0,1
735,735,-0.2098863110024407,-0.2,0.0,1.0,417.0,513.0,1.0,0,1140.0,1
736,736,0.3360546761609585,0.3,1.0,1.0,366.0,717.0,1.0,1,997.0,1
737,737,-0.06597244652139345,-0.1,0.0,1.0,468.0,714.0,1.0,0,298.0,1
738,738,-0.8717009675528239,-0.9,0.0,1.0,456.0,550.0,1.0,0,504.0,1
739,739,-0.450549723558415,-0.5,1.0,0.0,324.0,656.0,0.0,0,1680.0,1
740,740,-0.5688188815786863,-0.6,0.0,1.0,427.0,560.0,1.0,0,403.0,1
741,741,0.6383569438760638,0.6,1.0,1.0,481.0,632.0,1.0,1,407.0,1
742,742,-0.13454646092816402,-0.1,0.0,1.0,297.0,616.0,1.0,0,1127.0,1
743,743,0.4635617111035203,0.5,1.0,1.0,287.0,963.0,1.0,1,430.0,1
744,744,-0.6876862491844659,-0.7,1.0,0.0,404.0,971.0,0.0,0,795.0,1
745,745,0.0036649711583505162,0.0,1.0,1.0,490.0,828.0,1.0,1,892.0,1
746,746,-0.5631343773480374,-0.6,0.0,1.0,390.0,808.0,1.0,0,622.0,1
747,747,0.1712700277788749,0.2,0.0,0.0,255.0,655.0,0.0,1,410.0,1
748,748,-0.01835667760518167,-0.0,1.0,0.0,422.0,784.0,1.0,1,604.0,0
749,749,-0.06717432688459601,-0.1,1.0,0.0,485.0,984.0,0.0,0,731.0,1
750,750,-0.7340695063129035,-0.7,0.0,1.0,349.0,783.0,1.0,0,528.0,1
751,751,-0.49265249833978547,-0.5,1.0,0.0,397.0,617.0,0.0,0,606.0,1
752,752,0.696591756277675,0.7,0.0,0.0,422.0,506.0,0.0,1,392.0,1
753,753,0.2570985287209452,0.3,0.0,0.0,416.0,635.0,0.0,1,469.0,1
754,754,0.8172680682703929,0.8,0.0,0.0,351.0,650.0,0.0,1,119.0,1
755,755,-0.2748902036229014,-0.3,0.0,1.0,256.0,638.0,1.0,0,426.0,1
756,756,0.26883857947296497,0.3,0.0,0.0,260.0,595.0,0.0,1,1365.0,1
757,757,-0.2949056855199528,-0.3,1.0,0.0,256.0,791.0,0.0,0,763.0,1
758,758,-0.28720376146736937,-0.3,1.0,0.0,451.0,832.0,0.0,0,517.0,1
759,759,-0.5264036786964452,-0.5,0.0,1.0,477.0,554.0,1.0,0,549.0,1
760,760,0.2572881587408252,0.3,0.0,0.0,331.0,702.0,0.0,1,1417.0,1
761,761,0.1623715015628856,0.2,1.0,1.0,384.0,720.0,1.0,1,476.0,1
762,762,-0.8295642078557246,-0.8,1.0,0.0,448.0,542.0,0.0,0,510.0,1
763,763,-0.07084815584209436,-0.1,0.0,1.0,307.0,783.0,0.0,1,800.0,0
764,764,0.09040263115177116,0.1,1.0,1.0,277.0,632.0,0.0,0,291.0,0
765,765,-0.012941472250391883,-0.0,0.0,1.0,333.0,910.0,0.0,1,-83.0,0
766,766,-0.2053968572920436,-0.2,0.0,1.0,339.0,645.0,1.0,0,846.0,1
767,767,-0.25689986198938586,-0.3,0.0,1.0,395.0,959.0,1.0,0,566.0,1
768,768,0.034596804176854734,0.0,0.0,0.0,433.0,930.0,0.0,1,117.0,1
769,769,0.3490901014570321,0.3,1.0,1.0,379.0,509.0,1.0,1,652.0,1
770,770,-0.2602686883375943,-0.3,0.0,1.0,462.0,820.0,1.0,0,1888.0,1
771,771,0.06743935596021444,0.1,1.0,1.0,339.0,500.0,1.0,1,981.0,1
772,772,-0.6593217470534275,-0.7,1.0,0.0,321.0,666.0,0.0,0,393.0,1
773,773,0.4617645987149911,0.5,0.0,0.0,384.0,590.0,0.0,1,506.0,1
774,774,0.2683038943994488,0.3,1.0,1.0,480.0,869.0,1.0,1,561.0,1
775,775,0.1399028249321067,0.1,1.0,1.0,336.0,756.0,1.0,1,488.0,1
776,776,0.5404848835354333,0.5,1.0,1.0,366.0,912.0,1.0,1,202.0,1
777,777,-0.27979874222759227,-0.3,0.0,1.0,335.0,544.0,0.0,1,921.0,0
778,778,0.032731920023839955,0.0,1.0,1.0,386.0,836.0,1.0,1,568.0,1
779,779,0.29015368812987996,0.3,1.0,1.0,431.0,640.0,1.0,1,499.0,1
780,780,-0.4591841126717346,-0.5,1.0,0.0,280.0,910.0,0.0,0,610.0,1
781,781,-0.7088688791733477,-0.7,0.0,1.0,453.0,630.0,1.0,0,457.0,1
782,782,-0.15171925081567073,-0.2,1.0,0.0,385.0,728.0,1.0,1,237.0,0
783,783,-0.87418443207538,-0.9,1.0,0.0,374.0,811.0,0.0,0,205.0,1
784,784,-0.13048221272062865,-0.1,0.0,1.0,274.0,934.0,1.0,0,752.0,1
785,785,-0.5992179435237597,-0.6,1.0,0.0,404.0,736.0,0.0,0,700.0,1
786,786,-0.1444348713691418,-0.1,1.0,0.0,430.0,517.0,1.0,1,523.0,0
787,787,-0.6072767371475384,-0.6,0.0,1.0,301.0,554.0,1.0,0,485.0,1
788,788,0.44725646537068087,0.4,0.0,0.0,472.0,831.0,0.0,1,337.0,1
789,789,0.7064918832451,0.7,0.0,0.0,416.0,792.0,0.0,1,442.0,1
790,790,0.3107936018647207,0.3,1.0,1.0,403.0,783.0,1.0,1,424.0,1
791,791,0.38470864232733437,0.4,0.0,0.0,411.0,512.0,0.0,1,377.0,1
792,792,-0.6105822293705456,-0.6,0.0,1.0,399.0,946.0,1.0,0,485.0,1
793,793,0.06896093155004979,0.1,1.0,1.0,467.0,839.0,1.0,1,1174.0,1
794,794,-0.4151172351409396,-0.4,0.0,1.0,420.0,632.0,1.0,0,1008.0,1
795,795,-0.6939742278287675,-0.7,1.0,0.0,488.0,669.0,0.0,0,313.0,1
796,796,-0.7615689367138095,-0.8,0.0,1.0,252.0,701.0,1.0,0,557.0,1
797,797,-0.2898291244920689,-0.3,0.0,1.0,303.0,919.0,1.0,0,328.0,1
798,798,0.44715885288626367,0.4,0.0,0.0,462.0,626.0,0.0,1,692.0,1
799,799,0.4258723835692563,0.4,0.0,0.0,409.0,939.0,0.0,1,142.0,1
800,800,-0.5651044512934841,-0.6,1.0,0.0,492.0,606.0,0.0,0,312.0,1
801,801,-0.3302664268060087,-0.3,0.0,1.0,406.0,518.0,1.0,0,1276.0,1
802,802,0.46888568731646163,0.5,1.0,1.0,268.0,865.0,1.0,1,607.0,1
803,803,0.7193759868403943,0.7,1.0,1.0,269.0,904.0,1.0,1,187.0,1
804,804,-0.1318416253403829,-0.1,0.0,1.0,369.0,874.0,1.0,0,1547.0,1
805,805,0.3305258914976631,0.3,1.0,1.0,464.0,787.0,1.0,1,1239.0,1
806,806,0.1173668216368472,0.1,0.0,0.0,406.0,687.0,1.0,0,537.0,0
807,807,0.7336345361458213,0.7,1.0,1.0,449.0,939.0,1.0,1,-108.0,1
808,808,0.7427038017113791,0.7,0.0,0.0,388.0,766.0,0.0,1,386.0,1
809,809,0.044185943321426446,0.0,0.0,0.0,257.0,855.0,1.0,0,1588.0,0
810,810,-0.29713373266578713,-0.3,0.0,1.0,287.0,914.0,0.0,1,89.0,0
811,811,-0.07953568427965962,-0.1,1.0,0.0,314.0,561.0,1.0,1,725.0,0
812,812,-0.35961384782340067,-0.4,0.0,1.0,435.0,539.0,1.0,0,736.0,1
813,813,0.7103202281884525,0.7,0.0,0.0,441.0,903.0,0.0,1,476.0,1
814,814,0.3566970046366801,0.4,1.0,1.0,464.0,574.0,1.0,1,282.0,1
815,815,0.051992120604486325,0.1,1.0,1.0,481.0,742.0,1.0,1,667.0,1
816,816,-0.7956779780486762,-0.8,1.0,0.0,447.0,566.0,0.0,0,457.0,1
817,817,0.696879832209112,0.7,0.0,0.0,325.0,848.0,0.0,1,157.0,1
818,818,-0.6507073306413329,-0.7,0.0,1.0,256.0,797.0,1.0,0,547.0,1
819,819,-0.7036335617451911,-0.7,1.0,0.0,306.0,561.0,0.0,0,273.0,1
820,820,-0.01222823394622552,-0.0,1.0,0.0,327.0,741.0,0.0,0,722.0,1
821,821,0.3980729081268549,0.4,1.0,1.0,353.0,958.0,1.0,1,359.0,1
822,822,-0.7914356734922544,-0.8,1.0,0.0,389.0,592.0,0.0,0,509.0,1
823,823,0.5807375535947609,0.6,1.0,1.0,493.0,949.0,0.0,0,-42.0,0
824,824,0.4806507971930317,0.5,1.0,1.0,467.0,808.0,1.0,1,575.0,1
825,825,-0.27164800434908976,-0.3,0.0,1.0,321.0,924.0,1.0,0,765.0,1
826,826,0.6820567972746902,0.7,0.0,0.0,326.0,681.0,0.0,1,223.0,1
827,827,0.3773974089044604,0.4,1.0,1.0,490.0,699.0,1.0,1,381.0,1
828,828,0.7247788608169595,0.7,1.0,1.0,365.0,881.0,1.0,1,564.0,1
829,829,0.7280406581954552,0.7,1.0,1.0,410.0,911.0,1.0,1,119.0,1
830,830,0.5386208579573081,0.5,1.0,1.0,426.0,769.0,1.0,1,475.0,1
831,831,-0.5568423079766849,-0.6,0.0,1.0,485.0,746.0,1.0,0,1999.0,1
832,832,-0.4589067436260759,-0.5,1.0,0.0,266.0,749.0,0.0,0,405.0,1
833,833,-0.8250510310658837,-0.8,0.0,1.0,453.0,937.0,1.0,0,140.0,1
834,834,-0.21354974600801824,-0.2,0.0,1.0,314.0,620.0,1.0,0,2056.0,1
835,835,-0.13914097005468484,-0.1,0.0,1.0,400.0,563.0,0.0,1,1057.0,0
836,836,-0.46257013652171336,-0.5,1.0,0.0,393.0,734.0,0.0,0,963.0,1
837,837,0.08007925707176633,0.1,0.0,0.0,261.0,783.0,1.0,0,1276.0,0
838,838,-0.8985953172528576,-0.9,1.0,0.0,472.0,536.0,0.0,0,712.0,1
839,839,0.585841429902009,0.6,0.0,0.0,490.0,573.0,0.0,1,517.0,1
840,840,-0.2119477284078395,-0.2,0.0,1.0,284.0,631.0,1.0,0,2275.0,1
841,841,-0.8491839378163294,-0.8,0.0,1.0,383.0,575.0,1.0,0,672.0,1
842,842,-0.8456945765878472,-0.8,0.0,1.0,309.0,683.0,1.0,0,608.0,1
843,843,-0.2600502759000658,-0.3,0.0,1.0,418.0,968.0,0.0,1,354.0,0
844,844,0.36839908250805864,0.4,1.0,1.0,373.0,735.0,1.0,1,572.0,1
845,845,-0.7508838201374365,-0.8,1.0,0.0,399.0,913.0,0.0,0,128.0,1
846,846,-0.36859691292020635,-0.4,1.0,0.0,250.0,502.0,1.0,1,858.0,0
847,847,-0.21921405750851064,-0.2,1.0,0.0,460.0,899.0,0.0,0,381.0,1
848,848,-0.44561963477253325,-0.4,0.0,1.0,456.0,875.0,1.0,0,849.0,1
849,849,-0.1822930417516213,-0.2,1.0,0.0,470.0,568.0,0.0,0,752.0,1
850,850,0.6459990085319144,0.6,1.0,1.0,291.0,828.0,1.0,1,361.0,1
851,851,0.8108222043161429,0.8,1.0,1.0,441.0,580.0,1.0,1,469.0,1
852,852,-0.4624707253379297,-0.5,1.0,0.0,278.0,809.0,0.0,0,623.0,1
853,853,-0.5752317755439409,-0.6,0.0,1.0,385.0,797.0,1.0,0,438.0,1
854,854,0.3729405622088616,0.4,1.0,1.0,282.0,668.0,1.0,1,480.0,1
855,855,-0.5349362304828695,-0.5,0.0,1.0,399.0,958.0,1.0,0,573.0,1
856,856,-0.22616924841250885,-0.2,1.0,0.0,444.0,515.0,0.0,0,671.0,1
857,857,0.8721024566274401,0.9,1.0,1.0,361.0,968.0,1.0,1,41.0,1
858,858,-0.25242178168028606,-0.3,0.0,1.0,431.0,820.0,1.0,0,1419.0,1
859,859,-0.0614595639991633,-0.1,1.0,0.0,421.0,886.0,0.0,0,253.0,1
860,860,0.4995271535897049,0.5,0.0,0.0,314.0,919.0,0.0,1,357.0,1
861,861,-0.3632355774725191,-0.4,0.0,1.0,262.0,915.0,1.0,0,623.0,1
862,862,0.5528754976060418,0.6,0.0,0.0,487.0,821.0,0.0,1,292.0,1
863,863,0.6416075329896521,0.6,1.0,1.0,258.0,876.0,1.0,1,506.0,1
864,864,0.8323628520854399,0.8,1.0,1.0,413.0,868.0,1.0,1,309.0,1
865,865,-0.4923875147100201,-0.5,1.0,0.0,304.0,690.0,0.0,0,426.0,1
866,866,-0.8671759638625963,-0.9,1.0,0.0,451.0,703.0,0.0,0,236.0,1
867,867,-0.05037727997428687,-0.1,1.0,0.0,380.0,506.0,1.0,1,904.0,0
868,868,-0.18648830135724348,-0.2,0.0,1.0,306.0,814.0,0.0,1,80.0,0
869,869,-0.7493258774092579,-0.7,1.0,0.0,354.0,814.0,0.0,0,222.0,1
870,870,0.6445827739761131,0.6,0.0,0.0,437.0,506.0,0.0,1,507.0,1
871,871,-0.14827860254819547,-0.1,0.0,1.0,382.0,786.0,1.0,0,1612.0,1
872,872,0.3217868905290172,0.3,1.0,1.0,321.0,537.0,1.0,1,1092.0,1
873,873,0.08894628759597778,0.1,0.0,0.0,435.0,657.0,0.0,1,508.0,1
874,874,-0.5254219718062142,-0.5,0.0,1.0,482.0,905.0,0.0,1,223.0,0
875,875,-0.7547949062093925,-0.8,0.0,1.0,308.0,957.0,1.0,0,485.0,1
876,876,0.11978602022527818,0.1,1.0,1.0,428.0,643.0,1.0,1,689.0,1
877,877,-0.8392168362794368,-0.8,0.0,1.0,497.0,966.0,1.0,0,437.0,1
878,878,0.5117653205865585,0.5,0.0,0.0,423.0,988.0,0.0,1,59.0,1
879,879,0.7316947833351389,0.7,0.0,0.0,472.0,643.0,0.0,1,165.0,1
880,880,0.6470186440328026,0.6,0.0,0.0,270.0,849.0,0.0,1,251.0,1
881,881,-0.6885942545622739,-0.7,1.0,0.0,368.0,504.0,0.0,0,478.0,1
882,882,0.7642274922492879,0.8,0.0,0.0,382.0,796.0,0.0,1,512.0,1
883,883,-0.7962148826644541,-0.8,0.0,1.0,434.0,634.0,1.0,0,482.0,1
884,884,0.35725646184213977,0.4,1.0,1.0,254.0,861.0,1.0,1,335.0,1
885,885,-0.7154109017759367,-0.7,0.0,1.0,416.0,892.0,0.0,1,-18.0,0
886,886,0.6366738849061381,0.6,1.0,1.0,283.0,587.0,1.0,1,490.0,1
887,887,0.18206860854513407,0.2,1.0,1.0,362.0,628.0,0.0,0,2740.0,0
888,888,0.7621580093076356,0.8,1.0,1.0,433.0,562.0,1.0,1,765.0,1
889,889,-0.7792243411472204,-0.8,0.0,1.0,385.0,988.0,1.0,0,517.0,1
890,890,0.18072443522548076,0.2,0.0,0.0,302.0,898.0,1.0,0,1420.0,0
891,891,0.35912354616175846,0.4,0.0,0.0,385.0,805.0,0.0,1,230.0,1
892,892,0.7187992067512065,0.7,0.0,0.0,469.0,571.0,0.0,1,400.0,1
893,893,0.47673525599612654,0.5,1.0,1.0,299.0,680.0,1.0,1,731.0,1
894,894,-0.8622112023238783,-0.9,0.0,1.0,471.0,742.0,1.0,0,1097.0,1
895,895,0.1572194752310646,0.2,0.0,0.0,464.0,991.0,0.0,1,345.0,1
896,896,0.3818889304276244,0.4,0.0,0.0,309.0,593.0,0.0,1,458.0,1
897,897,0.6498088112780952,0.6,0.0,0.0,280.0,786.0,0.0,1,234.0,1
898,898,-0.2242377502129388,-0.2,1.0,0.0,301.0,831.0,0.0,0,668.0,1
899,899,0.4495911302525505,0.4,1.0,1.0,339.0,525.0,1.0,1,1366.0,1
900,900,0.1237824384959273,0.1,0.0,0.0,264.0,606.0,0.0,1,1600.0,1
901,901,-0.4524182149600706,-0.5,1.0,0.0,284.0,591.0,0.0,0,415.0,1
902,902,0.6166244448863715,0.6,0.0,0.0,393.0,600.0,0.0,1,357.0,1
903,903,-0.05586763205994827,-0.1,0.0,1.0,375.0,646.0,0.0,1,119.0,0
904,904,0.7736320801481941,0.8,0.0,0.0,299.0,739.0,0.0,1,662.0,1
905,905,-0.7940654960477835,-0.8,1.0,0.0,369.0,969.0,0.0,0,692.0,1
906,906,0.47394862151643313,0.5,1.0,1.0,350.0,922.0,1.0,1,48.0,1
907,907,-0.508915175114301,-0.5,1.0,0.0,307.0,780.0,0.0,0,573.0,1
908,908,-0.13680226924104721,-0.1,1.0,0.0,445.0,752.0,1.0,1,293.0,0
909,909,-0.3128326397627642,-0.3,0.0,1.0,394.0,752.0,1.0,0,404.0,1
910,910,0.45695805986522153,0.5,1.0,1.0,318.0,994.0,1.0,1,378.0,1
911,911,-0.8818832804671891,-0.9,1.0,0.0,285.0,784.0,0.0,0,201.0,1
912,912,0.6347557668599376,0.6,1.0,1.0,493.0,863.0,1.0,1,794.0,1
913,913,-0.3928331475526139,-0.4,0.0,1.0,304.0,864.0,1.0,0,512.0,1
914,914,-0.2731593551798829,-0.3,1.0,0.0,318.0,752.0,1.0,1,490.0,0
915,915,0.8040214336872734,0.8,1.0,1.0,281.0,559.0,1.0,1,410.0,1
916,916,0.6475322415798609,0.6,1.0,1.0,426.0,984.0,1.0,1,40.0,1
917,917,0.3710632017880352,0.4,0.0,0.0,453.0,738.0,0.0,1,669.0,1
918,918,-0.7717514057712431,-0.8,1.0,0.0,416.0,525.0,0.0,0,449.0,1
919,919,0.41519549519872634,0.4,0.0,0.0,410.0,515.0,0.0,1,1015.0,1
920,920,0.49461835571568014,0.5,0.0,0.0,394.0,726.0,0.0,1,320.0,1
921,921,0.8582311095625629,0.9,0.0,0.0,340.0,890.0,0.0,1,480.0,1
922,922,0.466373523072953,0.5,0.0,0.0,426.0,558.0,0.0,1,1136.0,1
923,923,-0.6049528350025848,-0.6,0.0,1.0,285.0,652.0,1.0,0,633.0,1
924,924,0.35440374384620477,0.4,1.0,1.0,428.0,576.0,1.0,1,406.0,1
925,925,-0.015323562550983216,-0.0,1.0,0.0,260.0,868.0,0.0,0,322.0,1
926,926,0.4971452028211022,0.5,1.0,1.0,406.0,712.0,1.0,1,922.0,1
927,927,-0.18234685022031394,-0.2,0.0,1.0,336.0,677.0,0.0,1,407.0,0
928,928,-0.03000275407610664,-0.0,0.0,1.0,351.0,847.0,0.0,1,402.0,0
929,929,0.2443071167401497,0.2,1.0,1.0,312.0,503.0,1.0,1,525.0,1
930,930,-0.8321400916340779,-0.8,0.0,1.0,252.0,916.0,1.0,0,662.0,1
931,931,-0.47938590524120545,-0.5,1.0,0.0,477.0,698.0,0.0,0,915.0,1
932,932,0.18572385614488385,0.2,1.0,1.0,286.0,637.0,1.0,1,447.0,1
933,933,0.40882223022346265,0.4,0.0,0.0,313.0,907.0,0.0,1,500.0,1
934,934,0.3851298359640726,0.4,1.0,1.0,375.0,722.0,1.0,1,213.0,1
935,935,0.8802277520770926,0.9,0.0,0.0,317.0,647.0,0.0,1,186.0,1
936,936,0.5616957322872481,0.6,0.0,0.0,491.0,603.0,0.0,1,196.0,1
937,937,0.33512210944086507,0.3,0.0,0.0,325.0,865.0,0.0,1,570.0,1
938,938,0.8530935280216329,0.9,0.0,0.0,464.0,906.0,0.0,1,140.0,1
939,939,-0.321583048954342,-0.3,1.0,0.0,397.0,887.0,0.0,0,416.0,1
940,940,-0.539297442496907,-0.5,0.0,1.0,325.0,855.0,1.0,0,760.0,1
941,941,0.4698236679975888,0.5,1.0,1.0,251.0,692.0,1.0,1,897.0,1
942,942,-0.6095108983564519,-0.6,1.0,0.0,427.0,578.0,0.0,0,765.0,1
943,943,-0.014666894838411881,-0.0,0.0,1.0,338.0,510.0,1.0,0,1102.0,1
944,944,-0.4993110588129059,-0.5,0.0,1.0,311.0,895.0,1.0,0,354.0,1
945,945,0.08592575696295046,0.1,0.0,0.0,363.0,547.0,0.0,1,490.0,1
946,946,-0.23044194241359905,-0.2,1.0,0.0,262.0,789.0,0.0,0,1449.0,1
947,947,-0.7281632849818229,-0.7,1.0,0.0,433.0,980.0,0.0,0,487.0,1
948,948,-0.038598303088339114,-0.0,1.0,0.0,431.0,915.0,1.0,1,694.0,0
949,949,-0.46587423425179525,-0.5,0.0,1.0,304.0,814.0,0.0,1,152.0,0
950,950,0.3753273348525409,0.4,0.0,0.0,375.0,729.0,0.0,1,426.0,1
951,951,-0.37926250157493724,-0.4,1.0,0.0,405.0,758.0,0.0,0,807.0,1
952,952,0.629438073137813,0.6,1.0,1.0,495.0,763.0,1.0,1,382.0,1
953,953,0.6558219994283855,0.7,0.0,0.0,467.0,932.0,0.0,1,221.0,1
954,954,0.15115948561824621,0.2,1.0,1.0,386.0,966.0,1.0,1,368.0,1
955,955,0.6987939844026264,0.7,1.0,1.0,315.0,847.0,1.0,1,388.0,1
956,956,-0.8774656295849796,-0.9,1.0,0.0,298.0,974.0,0.0,0,618.0,1
957,957,0.4488764438253824,0.4,0.0,0.0,338.0,690.0,0.0,1,762.0,1
958,958,0.24878812131682715,0.2,0.0,0.0,318.0,752.0,1.0,0,930.0,0
959,959,-0.6112745219614066,-0.6,1.0,0.0,267.0,661.0,1.0,1,1002.0,0
960,960,0.44795478802409006,0.4,0.0,0.0,370.0,786.0,0.0,1,414.0,1
961,961,0.008829531667401969,0.0,1.0,1.0,285.0,543.0,0.0,0,1072.0,0
962,962,-0.23167184705635835,-0.2,1.0,0.0,413.0,803.0,0.0,0,324.0,1
963,963,0.3649109480105287,0.4,0.0,0.0,448.0,996.0,0.0,1,-74.0,1
964,964,-0.1347961797778212,-0.1,1.0,0.0,305.0,936.0,0.0,0,1129.0,1
965,965,-0.439750643068356,-0.4,1.0,0.0,288.0,722.0,0.0,0,740.0,1
966,966,-0.29968994023288764,-0.3,0.0,1.0,308.0,930.0,1.0,0,32.0,1
967,967,0.45725870004415137,0.5,1.0,1.0,476.0,780.0,1.0,1,234.0,1
968,968,0.5120685155908403,0.5,0.0,0.0,292.0,747.0,0.0,1,231.0,1
969,969,-0.5651461656277483,-0.6,1.0,0.0,363.0,898.0,1.0,1,2009.0,0
970,970,0.14861362861690675,0.1,0.0,0.0,480.0,706.0,0.0,1,194.0,1
971,971,0.15798274772989818,0.2,0.0,0.0,427.0,975.0,0.0,1,948.0,1
972,972,0.1409511145731427,0.1,0.0,0.0,273.0,753.0,0.0,1,854.0,1
973,973,-0.14196733240688286,-0.1,0.0,1.0,309.0,780.0,1.0,0,351.0,1
974,974,0.058637983275082184,0.1,1.0,1.0,360.0,918.0,1.0,1,142.0,1
975,975,0.32156526320762524,0.3,1.0,1.0,262.0,791.0,1.0,1,427.0,1
976,976,-0.6204328023367738,-0.6,0.0,1.0,481.0,923.0,1.0,0,576.0,1
977,977,0.29489966948951485,0.3,1.0,1.0,393.0,505.0,1.0,1,802.0,1
978,978,-0.8921714027850014,-0.9,0.0,1.0,497.0,564.0,1.0,0,779.0,1
979,979,0.7725823820312844,0.8,0.0,0.0,435.0,836.0,0.0,1,139.0,1
980,980,-0.6569283564470606,-0.7,0.0,1.0,279.0,904.0,1.0,0,377.0,1
981,981,-0.031756599660765494,-0.0,1.0,0.0,299.0,705.0,1.0,1,3046.0,0
982,982,0.19894606074696763,0.2,0.0,0.0,277.0,751.0,1.0,0,422.0,0
983,983,0.7596473093123371,0.8,1.0,1.0,336.0,908.0,1.0,1,356.0,1
984,984,-0.5536955185727845,-0.6,0.0,1.0,437.0,658.0,1.0,0,625.0,1
985,985,-0.8048727451077489,-0.8,0.0,1.0,393.0,623.0,1.0,0,604.0,1
986,986,0.5786835233820479,0.6,1.0,1.0,444.0,553.0,1.0,1,363.0,1
987,987,0.41999678714976774,0.4,1.0,1.0,386.0,929.0,1.0,1,245.0,1
988,988,-0.8614502681072571,-0.9,0.0,1.0,455.0,580.0,1.0,0,485.0,1
989,989,0.41952657262540416,0.4,0.0,0.0,310.0,992.0,0.0,1,408.0,1
990,990,-0.6435672346068444,-0.6,0.0,1.0,296.0,791.0,1.0,0,503.0,1
991,991,0.4577543087071897,0.5,0.0,0.0,353.0,831.0,0.0,1,626.0,1
992,992,0.411890342699999,0.4,0.0,0.0,434.0,798.0,0.0,1,1938.0,1
993,993,-0.7757249973129996,-0.8,0.0,1.0,481.0,834.0,1.0,0,345.0,1
994,994,-0.664299936054921,-0.7,1.0,0.0,315.0,945.0,0.0,0,330.0,1
995,995,0.6810030742628091,0.7,0.0,0.0,498.0,603.0,0.0,1,349.0,1
996,996,0.6303978590941645,0.6,1.0,1.0,357.0,575.0,1.0,1,418.0,1
997,997,0.07431156119461035,0.1,1.0,1.0,381.0,980.0,1.0,1,319.0,1
998,998,-0.2881251444891407,-0.3,0.0,1.0,304.0,666.0,1.0,0,500.0,1
999,999,-0.5540704965826455,-0.6,0.0,1.0,324.0,721.0,1.0,0,325.0,1
1000,1000,-0.7353376407201012,-0.7,0.0,1.0,454.0,540.0,1.0,0,576.0,1
1001,1001,-0.8738250753188226,-0.9,0.0,1.0,300.0,923.0,1.0,0,587.0,1
1002,1002,-0.055965316704245205,-0.1,1.0,0.0,285.0,747.0,1.0,1,368.0,0
1003,1003,-0.29481975822465767,-0.3,0.0,1.0,347.0,852.0,1.0,0,851.0,1
1004,1004,-0.6212419017417239,-0.6,1.0,0.0,480.0,545.0,0.0,0,655.0,1
1005,1005,0.3117644119784627,0.3,0.0,0.0,384.0,909.0,0.0,1,127.0,1
1006,1006,-0.08165763873224063,-0.1,0.0,1.0,494.0,701.0,0.0,1,1415.0,0
1007,1007,-0.13883806956323141,-0.1,0.0,1.0,309.0,894.0,1.0,0,867.0,1
1008,1008,0.7602207727186397,0.8,0.0,0.0,269.0,755.0,0.0,1,156.0,1
1009,1009,0.159870728182823,0.2,1.0,1.0,493.0,664.0,0.0,0,1103.0,0
1010,1010,0.46209186348080633,0.5,0.0,0.0,475.0,935.0,0.0,1,10.0,1
1011,1011,-0.2678330490458306,-0.3,0.0,1.0,465.0,873.0,1.0,0,1422.0,1
1012,1012,0.46085939003920384,0.5,0.0,0.0,362.0,955.0,0.0,1,223.0,1
1013,1013,-0.5721080511820713,-0.6,0.0,1.0,415.0,538.0,1.0,0,867.0,1
1014,1014,-0.7826268478477535,-0.8,1.0,0.0,273.0,953.0,0.0,0,194.0,1
1015,1015,0.7166327967796532,0.7,1.0,1.0,395.0,940.0,1.0,1,265.0,1
1016,1016,-0.5592692599924406,-0.6,0.0,1.0,281.0,757.0,1.0,0,872.0,1
1017,1017,0.48377989772303687,0.5,1.0,1.0,355.0,787.0,1.0,1,308.0,1
1018,1018,0.2116417371738265,0.2,1.0,1.0,424.0,504.0,1.0,1,1192.0,1
1019,1019,0.3434383745067592,0.3,1.0,1.0,463.0,713.0,1.0,1,274.0,1
1020,1020,0.8716706846018784,0.9,0.0,0.0,316.0,807.0,0.0,1,137.0,1
1021,1021,0.5281192437664463,0.5,1.0,1.0,493.0,785.0,1.0,1,282.0,1
1022,1022,0.6692243607558802,0.7,1.0,1.0,456.0,815.0,1.0,1,469.0,1
1023,1023,0.39283774133303206,0.4,1.0,1.0,410.0,721.0,1.0,1,359.0,1
1024,1024,0.4062046651599188,0.4,1.0,1.0,424.0,839.0,1.0,1,897.0,1
1025,1025,-0.5195341458943545,-0.5,0.0,1.0,422.0,606.0,1.0,0,422.0,1
1026,1026,-0.341898744440864,-0.3,0.0,1.0,490.0,558.0,1.0,0,662.0,1
1027,1027,0.13325615831488358,0.1,1.0,1.0,309.0,900.0,1.0,1,2391.0,1
1028,1028,0.13075670548461094,0.1,1.0,1.0,410.0,816.0,1.0,1,734.0,1
1029,1029,0.743087400903463,0.7,0.0,0.0,376.0,714.0,0.0,1,300.0,1
1030,1030,0.8018582800738258,0.8,1.0,1.0,415.0,538.0,1.0,1,577.0,1
1031,1031,-0.4226906201457863,-0.4,0.0,1.0,485.0,956.0,0.0,1,709.0,0
1032,1032,-0.88641198323734,-0.9,0.0,1.0,373.0,535.0,1.0,0,732.0,1
1033,1033,-0.12285731153808965,-0.1,1.0,0.0,443.0,865.0,1.0,1,732.0,0
1034,1034,0.37116633073614513,0.4,1.0,1.0,434.0,512.0,1.0,1,1024.0,1
1035,1035,-0.4372898650287529,-0.4,1.0,0.0,477.0,580.0,0.0,0,423.0,1
1036,1036,-0.442069915447975,-0.4,1.0,0.0,434.0,982.0,0.0,0,444.0,1
1037,1037,0.8681918620471462,0.9,1.0,1.0,308.0,961.0,1.0,1,101.0,1
1038,1038,-0.20330646505313377,-0.2,0.0,1.0,349.0,754.0,1.0,0,567.0,1
1039,1039,0.3619764074887003,0.4,1.0,1.0,436.0,842.0,1.0,1,802.0,1
1040,1040,-0.7751440754512746,-0.8,1.0,0.0,426.0,642.0,0.0,0,942.0,1
1041,1041,-0.5816055332768086,-0.6,0.0,1.0,469.0,759.0,1.0,0,342.0,1
1042,1042,-0.8733246294820608,-0.9,0.0,1.0,475.0,706.0,1.0,0,59.0,1
1043,1043,0.3096860832187346,0.3,0.0,0.0,477.0,784.0,0.0,1,359.0,1
1044,1044,-0.4467486307358784,-0.4,0.0,1.0,276.0,622.0,1.0,0,702.0,1
1045,1045,-0.3167781085434671,-0.3,1.0,0.0,324.0,545.0,0.0,0,501.0,1
1046,1046,0.8868453253775525,0.9,1.0,1.0,324.0,959.0,1.0,1,197.0,1
1047,1047,-0.016124120034827216,-0.0,0.0,1.0,408.0,710.0,1.0,0,1022.0,1
1048,1048,0.29356739910617013,0.3,1.0,1.0,462.0,556.0,1.0,1,312.0,1
1049,1049,-0.27644937225900534,-0.3,1.0,0.0,411.0,925.0,0.0,0,2524.0,1
1050,1050,-0.09096595798698237,-0.1,1.0,0.0,406.0,786.0,0.0,0,758.0,1
1051,1051,0.518680289936441,0.5,0.0,0.0,341.0,948.0,0.0,1,721.0,1
1052,1052,-0.6639760926095839,-0.7,0.0,1.0,327.0,808.0,1.0,0,875.0,1
1053,1053,-0.8142277091018051,-0.8,0.0,1.0,375.0,691.0,1.0,0,364.0,1
1054,1054,0.2626354034529942,0.3,0.0,0.0,351.0,813.0,0.0,1,196.0,1
1055,1055,-0.6042701390067493,-0.6,0.0,1.0,408.0,534.0,1.0,0,1378.0,1
1056,1056,-0.2617654555303549,-0.3,1.0,0.0,399.0,631.0,1.0,1,780.0,0
1057,1057,0.731867747949739,0.7,1.0,1.0,471.0,843.0,1.0,1,196.0,1
1058,1058,0.7002153609809979,0.7,0.0,0.0,455.0,989.0,1.0,0,26.0,0
1059,1059,0.6845680872033725,0.7,0.0,0.0,438.0,987.0,0.0,1,55.0,1
1060,1060,-0.15307198967456592,-0.2,0.0,1.0,480.0,927.0,1.0,0,703.0,1
1061,1061,-0.48543413349108194,-0.5,0.0,1.0,491.0,966.0,1.0,0,393.0,1
1062,1062,0.4521001308742797,0.5,0.0,0.0,333.0,781.0,0.0,1,286.0,1
1063,1063,-0.520347569920844,-0.5,1.0,0.0,394.0,998.0,0.0,0,838.0,1
1064,1064,-0.13178075885015028,-0.1,1.0,0.0,472.0,642.0,0.0,0,896.0,1
1065,1065,0.7928895410510083,0.8,1.0,1.0,329.0,628.0,1.0,1,323.0,1
1066,1066,-0.3607962872936238,-0.4,1.0,0.0,400.0,614.0,0.0,0,656.0,1
1067,1067,-0.846198546559177,-0.8,0.0,1.0,487.0,827.0,1.0,0,116.0,1
1068,1068,-0.6083609843581572,-0.6,1.0,0.0,465.0,702.0,0.0,0,423.0,1
1069,1069,-0.1516428413691847,-0.2,0.0,1.0,436.0,595.0,1.0,0,1139.0,1
1070,1070,0.8912526185566566,0.9,1.0,1.0,306.0,594.0,1.0,1,770.0,1
1071,1071,-0.637010422734448,-0.6,1.0,0.0,329.0,855.0,0.0,0,476.0,1
1072,1072,0.3252406809948972,0.3,0.0,0.0,271.0,857.0,0.0,1,602.0,1
1073,1073,0.6156558408019425,0.6,0.0,0.0,298.0,588.0,0.0,1,374.0,1
1074,1074,-0.8906213084421406,-0.9,0.0,1.0,321.0,528.0,1.0,0,581.0,1
1075,1075,-0.778036627427714,-0.8,0.0,1.0,251.0,883.0,1.0,0,976.0,1
1076,1076,-0.14756595369012682,-0.1,1.0,0.0,329.0,810.0,1.0,1,2331.0,0
1077,1077,-0.2667270372257253,-0.3,1.0,0.0,483.0,833.0,1.0,1,184.0,0
1078,1078,-0.5661419715502871,-0.6,0.0,1.0,276.0,671.0,1.0,0,643.0,1
1079,1079,0.2502489518374168,0.3,0.0,0.0,337.0,944.0,0.0,1,219.0,1
1080,1080,0.8580693714971374,0.9,1.0,1.0,481.0,999.0,1.0,1,180.0,1
1081,1081,0.14821169133258494,0.1,0.0,0.0,420.0,582.0,0.0,1,368.0,1
1082,1082,-0.20897900529297242,-0.2,1.0,0.0,394.0,905.0,0.0,0,691.0,1
1083,1083,-0.2876205324959916,-0.3,0.0,1.0,314.0,628.0,1.0,0,908.0,1
1084,1084,-0.64838185211839,-0.6,0.0,1.0,491.0,881.0,1.0,0,478.0,1
1085,1085,0.346716145894835,0.3,1.0,1.0,431.0,580.0,1.0,1,569.0,1
1086,1086,0.6636431824628429,0.7,0.0,0.0,346.0,714.0,0.0,1,270.0,1
1087,1087,0.7060756232657744,0.7,0.0,0.0,383.0,896.0,0.0,1,111.0,1
1088,1088,-0.6338162255257893,-0.6,1.0,0.0,295.0,842.0,0.0,0,1013.0,1
1089,1089,0.8388226272167442,0.8,1.0,1.0,285.0,630.0,1.0,1,905.0,1
1090,1090,-0.5037553441135727,-0.5,0.0,1.0,478.0,625.0,1.0,0,1957.0,1
1091,1091,-0.868515433997671,-0.9,0.0,1.0,295.0,712.0,1.0,0,773.0,1
1092,1092,-0.7769264025036433,-0.8,0.0,1.0,313.0,962.0,1.0,0,335.0,1
1093,1093,0.7721112770027606,0.8,0.0,0.0,362.0,841.0,0.0,1,597.0,1
1094,1094,-0.7804525076922998,-0.8,0.0,1.0,485.0,971.0,1.0,0,724.0,1
1095,1095,0.19037599620929335,0.2,0.0,0.0,332.0,903.0,0.0,1,565.0,1
1096,1096,0.14620459653704543,0.1,0.0,0.0,413.0,807.0,0.0,1,1100.0,1
1097,1097,0.3972397556017536,0.4,0.0,0.0,348.0,733.0,0.0,1,409.0,1
1098,1098,-0.427062507975809,-0.4,0.0,1.0,282.0,687.0,1.0,0,521.0,1
1099,1099,-0.31510629483703734,-0.3,0.0,1.0,468.0,697.0,1.0,0,455.0,1
1100,1100,-0.10422871730360783,-0.1,1.0,0.0,326.0,939.0,1.0,1,2265.0,0
1101,1101,0.18023028150628828,0.2,1.0,1.0,385.0,894.0,1.0,1,461.0,1
1102,1102,0.6375971775887205,0.6,1.0,1.0,454.0,810.0,1.0,1,116.0,1
1103,1103,0.3045499187134252,0.3,1.0,1.0,436.0,938.0,1.0,1,136.0,1
1104,1104,0.8210885208144788,0.8,0.0,0.0,256.0,752.0,0.0,1,162.0,1
1105,1105,0.8209557498183496,0.8,0.0,0.0,462.0,950.0,0.0,1,98.0,1
1106,1106,0.8796052231609114,0.9,1.0,1.0,461.0,963.0,1.0,1,126.0,1
1107,1107,0.1167539991412091,0.1,0.0,0.0,276.0,744.0,0.0,1,1360.0,1
1108,1108,0.46901411893991296,0.5,0.0,0.0,437.0,623.0,0.0,1,1140.0,1
1109,1109,-0.7561541843461627,-0.8,1.0,0.0,338.0,738.0,0.0,0,344.0,1
1110,1110,0.04027641310156882,0.0,0.0,0.0,264.0,869.0,1.0,0,827.0,0
1111,1111,-0.06879923301646695,-0.1,1.0,0.0,317.0,892.0,1.0,1,1671.0,0
1112,1112,0.39304941232515034,0.4,1.0,1.0,381.0,733.0,1.0,1,386.0,1
1113,1113,-0.1029564351337604,-0.1,0.0,1.0,308.0,814.0,1.0,0,658.0,1
1114,1114,0.5051777595719588,0.5,0.0,0.0,347.0,801.0,0.0,1,602.0,1
1115,1115,0.8200260774214788,0.8,0.0,0.0,438.0,916.0,0.0,1,506.0,1
1116,1116,0.46081163842749395,0.5,0.0,0.0,257.0,763.0,0.0,1,430.0,1
1117,1117,-0.2278515297028647,-0.2,0.0,1.0,406.0,588.0,1.0,0,1176.0,1
1118,1118,-0.8234205758818617,-0.8,0.0,1.0,412.0,955.0,1.0,0,603.0,1
1119,1119,0.6469546710308157,0.6,0.0,0.0,472.0,826.0,0.0,1,182.0,1
1120,1120,0.8210704841797879,0.8,0.0,0.0,447.0,724.0,0.0,1,399.0,1
1121,1121,-0.65696673687202,-0.7,1.0,0.0,494.0,725.0,0.0,0,581.0,1
1122,1122,-0.8031186728909716,-0.8,0.0,1.0,405.0,555.0,1.0,0,440.0,1
1123,1123,-0.48178086712316504,-0.5,1.0,0.0,434.0,820.0,0.0,0,296.0,1
1124,1124,0.24421263785021063,0.2,0.0,0.0,320.0,776.0,0.0,1,644.0,1
1125,1125,-0.08268417430331154,-0.1,0.0,1.0,468.0,791.0,0.0,1,211.0,0
1126,1126,-0.5342816624210875,-0.5,0.0,1.0,444.0,510.0,1.0,0,1366.0,1
1127,1127,0.48111944061092504,0.5,1.0,1.0,458.0,654.0,1.0,1,288.0,1
1128,1128,0.04585285639294534,0.0,0.0,0.0,261.0,893.0,0.0,1,1096.0,1
1129,1129,-0.33672775411074074,-0.3,1.0,0.0,313.0,584.0,0.0,0,743.0,1
1130,1130,-0.39992940004842426,-0.4,1.0,0.0,382.0,851.0,0.0,0,177.0,1
1131,1131,0.36391361686385515,0.4,0.0,0.0,490.0,593.0,0.0,1,347.0,1
1132,1132,0.6598806632005715,0.7,0.0,0.0,372.0,707.0,0.0,1,411.0,1
1133,1133,0.5077122219921665,0.5,1.0,1.0,428.0,856.0,1.0,1,106.0,1
1134,1134,-0.2229330443855141,-0.2,0.0,1.0,306.0,960.0,1.0,0,94.0,1
1135,1135,0.4422782093411143,0.4,1.0,1.0,453.0,600.0,1.0,1,727.0,1
1136,1136,0.3284352872811295,0.3,1.0,1.0,367.0,553.0,1.0,1,530.0,1
1137,1137,0.8985348277126389,0.9,0.0,0.0,368.0,864.0,0.0,1,-52.0,1
1138,1138,-0.19770229966408082,-0.2,1.0,0.0,462.0,828.0,1.0,1,380.0,0
1139,1139,0.35490090404740704,0.4,1.0,1.0,383.0,587.0,1.0,1,940.0,1
1140,1140,-0.4756237848196085,-0.5,1.0,0.0,438.0,569.0,1.0,1,373.0,0
1141,1141,-0.3809761723294188,-0.4,1.0,0.0,267.0,770.0,1.0,1,193.0,0
1142,1142,-0.6431894825836086,-0.6,0.0,1.0,331.0,663.0,1.0,0,916.0,1
1143,1143,0.521969631743619,0.5,1.0,1.0,452.0,576.0,1.0,1,522.0,1
1144,1144,-0.37305447650574375,-0.4,0.0,1.0,320.0,602.0,1.0,0,1168.0,1
1145,1145,-0.8280538661384207,-0.8,1.0,0.0,369.0,729.0,0.0,0,922.0,1
1146,1146,-0.14935360679590992,-0.1,0.0,1.0,489.0,717.0,1.0,0,1304.0,1
1147,1147,0.2508715633208146,0.3,0.0,0.0,455.0,924.0,0.0,1,61.0,1
1148,1148,-0.17219724583030793,-0.2,0.0,1.0,299.0,598.0,1.0,0,2203.0,1
1149,1149,-0.7743867113417885,-0.8,0.0,1.0,487.0,907.0,1.0,0,456.0,1
1150,1150,-0.17136588294785382,-0.2,0.0,1.0,482.0,968.0,0.0,1,100.0,0
1151,1151,0.6954541672636058,0.7,0.0,0.0,390.0,563.0,0.0,1,307.0,1
1152,1152,-0.5709214068336957,-0.6,0.0,1.0,369.0,812.0,1.0,0,729.0,1
1153,1153,-0.8434182916380699,-0.8,0.0,1.0,318.0,507.0,1.0,0,335.0,1
1154,1154,-0.18668944343849014,-0.2,1.0,0.0,381.0,797.0,0.0,0,1752.0,1
1155,1155,0.7615562852269725,0.8,0.0,0.0,433.0,771.0,0.0,1,446.0,1
1156,1156,0.27848802357536784,0.3,0.0,0.0,477.0,890.0,0.0,1,163.0,1
1157,1157,-0.24292577858665887,-0.2,0.0,1.0,280.0,650.0,1.0,0,930.0,1
1158,1158,0.8558606933005156,0.9,0.0,0.0,300.0,569.0,0.0,1,231.0,1
1159,1159,0.8719581434163665,0.9,0.0,0.0,473.0,722.0,0.0,1,365.0,1
1160,1160,-0.38114750331366276,-0.4,0.0,1.0,298.0,827.0,0.0,1,1385.0,0
1161,1161,0.45401695774259754,0.5,1.0,1.0,338.0,958.0,1.0,1,374.0,1
1162,1162,0.33185019942306504,0.3,1.0,1.0,289.0,698.0,1.0,1,483.0,1
1163,1163,-0.7741689523620187,-0.8,0.0,1.0,440.0,679.0,1.0,0,241.0,1
1164,1164,-0.7425923510784334,-0.7,1.0,0.0,322.0,500.0,0.0,0,598.0,1
1165,1165,-0.4173255630088893,-0.4,0.0,1.0,428.0,723.0,1.0,0,1589.0,1
1166,1166,0.7314874452739685,0.7,0.0,0.0,315.0,949.0,0.0,1,26.0,1
1167,1167,-0.7311699741730169,-0.7,1.0,0.0,455.0,930.0,0.0,0,435.0,1
1168,1168,-0.7421388725306506,-0.7,0.0,1.0,382.0,529.0,1.0,0,739.0,1
1169,1169,0.7332680631660559,0.7,1.0,1.0,492.0,744.0,1.0,1,414.0,1
1170,1170,-0.5848816346140167,-0.6,0.0,1.0,300.0,878.0,1.0,0,302.0,1
1171,1171,0.026971545601346292,0.0,0.0,0.0,357.0,899.0,0.0,1,164.0,1
1172,1172,0.218167684995351,0.2,0.0,0.0,260.0,503.0,0.0,1,857.0,1
1173,1173,0.0237671464778888,0.0,1.0,1.0,437.0,778.0,0.0,0,125.0,0
1174,1174,-0.18576621673472293,-0.2,0.0,1.0,468.0,988.0,0.0,1,354.0,0
1175,1175,-0.8566800763917484,-0.9,1.0,0.0,464.0,615.0,0.0,0,561.0,1
1176,1176,-0.3184857858996293,-0.3,0.0,1.0,389.0,953.0,1.0,0,378.0,1
1177,1177,0.06676528161811879,0.1,1.0,1.0,496.0,667.0,1.0,1,1617.0,1
1178,1178,-0.002858106069574484,-0.0,0.0,1.0,454.0,892.0,1.0,0,364.0,1
1179,1179,-0.25801829891335193,-0.3,0.0,1.0,364.0,874.0,0.0,1,602.0,0
1180,1180,-0.10848507227612092,-0.1,1.0,0.0,283.0,735.0,1.0,1,162.0,0
1181,1181,-0.16406566186051086,-0.2,1.0,0.0,371.0,814.0,0.0,0,215.0,1
1182,1182,0.32262982830044995,0.3,1.0,1.0,430.0,978.0,1.0,1,572.0,1
1183,1183,-0.5065777165249935,-0.5,1.0,0.0,395.0,602.0,1.0,1,753.0,0
1184,1184,0.18594110227801097,0.2,1.0,1.0,316.0,910.0,1.0,1,194.0,1
1185,1185,-0.2378899246244065,-0.2,1.0,0.0,354.0,796.0,0.0,0,350.0,1
1186,1186,-0.16529375745945907,-0.2,0.0,1.0,337.0,608.0,1.0,0,1285.0,1
1187,1187,0.6016131667135486,0.6,1.0,1.0,448.0,616.0,1.0,1,366.0,1
1188,1188,-0.6605976858838293,-0.7,1.0,0.0,374.0,790.0,0.0,0,316.0,1
1189,1189,-0.8864832899060102,-0.9,0.0,1.0,282.0,656.0,1.0,0,322.0,1
1190,1190,0.11099811037686547,0.1,1.0,1.0,386.0,664.0,0.0,0,860.0,0
1191,1191,-0.8579218046703728,-0.9,1.0,0.0,311.0,790.0,0.0,0,159.0,1
1192,1192,-0.49474074241369265,-0.5,0.0,1.0,335.0,554.0,1.0,0,781.0,1
1193,1193,-0.6363740475394397,-0.6,1.0,0.0,442.0,699.0,0.0,0,499.0,1
1194,1194,-0.7863118736192893,-0.8,1.0,0.0,451.0,522.0,0.0,0,377.0,1
1195,1195,0.19857734751504663,0.2,0.0,0.0,436.0,884.0,0.0,1,460.0,1
1196,1196,-0.34007599840228153,-0.3,0.0,1.0,317.0,683.0,1.0,0,360.0,1
1197,1197,0.10811104345768918,0.1,1.0,1.0,367.0,545.0,1.0,1,908.0,1
1198,1198,-0.4464840961884264,-0.4,0.0,1.0,476.0,821.0,1.0,0,383.0,1
1199,1199,-0.6324422695208005,-0.6,0.0,1.0,315.0,789.0,1.0,0,186.0,1
1200,1200,0.8659182415338721,0.9,0.0,0.0,259.0,511.0,0.0,1,410.0,1
1201,1201,0.3261039670459752,0.3,0.0,0.0,472.0,697.0,0.0,1,441.0,1
1202,1202,-0.5092332504928706,-0.5,1.0,0.0,252.0,787.0,0.0,0,381.0,1
1203,1203,0.34091910416102633,0.3,0.0,0.0,461.0,551.0,0.0,1,448.0,1
1204,1204,0.707556436191617,0.7,0.0,0.0,321.0,881.0,0.0,1,288.0,1
1205,1205,0.5015961904234846,0.5,1.0,1.0,495.0,859.0,1.0,1,46.0,1
1206,1206,-0.2917375426685792,-0.3,1.0,0.0,295.0,706.0,1.0,1,899.0,0
1207,1207,-0.2953778575952316,-0.3,0.0,1.0,454.0,947.0,0.0,1,529.0,0
1208,1208,-0.824146540318824,-0.8,1.0,0.0,362.0,756.0,0.0,0,282.0,1
1209,1209,-0.0044537322219528885,-0.0,0.0,1.0,491.0,750.0,0.0,1,1339.0,0
1210,1210,0.08345541060234407,0.1,0.0,0.0,340.0,674.0,1.0,0,846.0,0
1211,1211,-0.5215194624132817,-0.5,0.0,1.0,433.0,748.0,1.0,0,869.0,1
1212,1212,0.3795742166791459,0.4,1.0,1.0,254.0,625.0,1.0,1,501.0,1
1213,1213,-0.754835014214344,-0.8,1.0,0.0,397.0,820.0,0.0,0,823.0,1
1214,1214,0.44678638960386585,0.4,0.0,0.0,258.0,819.0,0.0,1,243.0,1
1215,1215,-0.6050074381062696,-0.6,1.0,0.0,469.0,665.0,0.0,0,576.0,1
1216,1216,0.16651204608538672,0.2,0.0,0.0,439.0,821.0,1.0,0,420.0,0
1217,1217,0.15980885105102927,0.2,0.0,0.0,494.0,765.0,0.0,1,1631.0,1
1218,1218,0.6550216271055099,0.7,1.0,1.0,482.0,751.0,1.0,1,297.0,1
1219,1219,0.17001274387456344,0.2,0.0,0.0,415.0,532.0,0.0,1,403.0,1
1220,1220,-0.1743456685832181,-0.2,1.0,0.0,304.0,794.0,1.0,1,622.0,0
1221,1221,-0.09649130128426375,-0.1,0.0,1.0,362.0,646.0,0.0,1,1272.0,0
1222,1222,0.7635771145701734,0.8,0.0,0.0,332.0,658.0,0.0,1,870.0,1
1223,1223,-0.6814452193830104,-0.7,1.0,0.0,465.0,802.0,1.0,1,-47.0,0
1224,1224,-0.4065425981052568,-0.4,0.0,1.0,383.0,900.0,1.0,0,757.0,1
1225,1225,-0.5124285323772801,-0.5,0.0,1.0,469.0,618.0,1.0,0,473.0,1
1226,1226,-0.2648708857431984,-0.3,1.0,0.0,377.0,651.0,1.0,1,882.0,0
1227,1227,0.3951183398924424,0.4,1.0,1.0,493.0,911.0,1.0,1,206.0,1
1228,1228,0.6350620443279101,0.6,1.0,1.0,275.0,564.0,1.0,1,601.0,1
1229,1229,0.3663036358730113,0.4,0.0,0.0,329.0,614.0,0.0,1,647.0,1
1230,1230,0.18993177838120812,0.2,1.0,1.0,467.0,594.0,1.0,1,469.0,1
1231,1231,0.15673281310842635,0.2,1.0,1.0,394.0,991.0,1.0,1,775.0,1
1232,1232,0.7453733090316551,0.7,1.0,1.0,436.0,701.0,1.0,1,213.0,1
1233,1233,0.19556776444388813,0.2,0.0,0.0,468.0,923.0,0.0,1,209.0,1
1234,1234,0.815616914482841,0.8,0.0,0.0,433.0,528.0,0.0,1,499.0,1
1235,1235,0.762999387626165,0.8,1.0,1.0,269.0,636.0,1.0,1,495.0,1
1236,1236,0.12672983215819655,0.1,1.0,1.0,465.0,984.0,1.0,1,3431.0,1
1237,1237,0.3442358826245745,0.3,0.0,0.0,405.0,982.0,0.0,1,283.0,1
1238,1238,0.5857712295108791,0.6,0.0,0.0,459.0,868.0,0.0,1,153.0,1
1239,1239,0.8331138276732307,0.8,0.0,0.0,319.0,659.0,0.0,1,342.0,1
1240,1240,-0.29828729723794356,-0.3,1.0,0.0,317.0,945.0,0.0,0,1408.0,1
1241,1241,0.05694123391548267,0.1,0.0,0.0,373.0,944.0,0.0,1,23.0,1
1242,1242,-0.5676119601623368,-0.6,1.0,0.0,276.0,947.0,1.0,1,-13.0,0
1243,1243,0.75814273222497,0.8,1.0,1.0,409.0,803.0,1.0,1,328.0,1
1244,1244,-0.15363969664924637,-0.2,0.0,1.0,431.0,595.0,1.0,0,1024.0,1
1245,1245,-0.7199999542202542,-0.7,0.0,1.0,252.0,777.0,1.0,0,921.0,1
1246,1246,0.22333707694045535,0.2,1.0,1.0,254.0,867.0,1.0,1,459.0,1
1247,1247,0.5423539204689459,0.5,0.0,0.0,398.0,594.0,0.0,1,578.0,1
1248,1248,0.4695022679261053,0.5,1.0,1.0,399.0,841.0,1.0,1,290.0,1
1249,1249,0.5322493973174288,0.5,0.0,0.0,259.0,837.0,0.0,1,364.0,1
1250,1250,0.7926056820151895,0.8,1.0,1.0,275.0,910.0,1.0,1,375.0,1
1251,1251,-0.1271970497239715,-0.1,0.0,1.0,481.0,874.0,0.0,1,445.0,0
1252,1252,0.47715610966640243,0.5,1.0,1.0,304.0,580.0,1.0,1,716.0,1
1253,1253,0.09993504916725404,0.1,1.0,1.0,464.0,597.0,0.0,0,579.0,0
1254,1254,-0.28328376853131854,-0.3,0.0,1.0,444.0,737.0,1.0,0,1179.0,1
1255,1255,-0.3255234870980921,-0.3,1.0,0.0,442.0,565.0,0.0,0,823.0,1
1256,1256,-0.5942793922293239,-0.6,1.0,0.0,278.0,890.0,0.0,0,542.0,1
1257,1257,-0.7351369497354682,-0.7,0.0,1.0,353.0,574.0,1.0,0,653.0,1
1258,1258,0.8445353272521084,0.8,0.0,0.0,409.0,593.0,0.0,1,578.0,1
1259,1259,0.749160932669498,0.7,1.0,1.0,407.0,742.0,1.0,1,621.0,1
1260,1260,0.611108136690579,0.6,1.0,1.0,312.0,894.0,1.0,1,444.0,1
1261,1261,0.4661102642648126,0.5,0.0,0.0,255.0,533.0,0.0,1,542.0,1
1262,1262,-0.3736927327395325,-0.4,1.0,0.0,482.0,984.0,0.0,0,54.0,1
1263,1263,0.47895522031895965,0.5,1.0,1.0,273.0,946.0,1.0,1,251.0,1
1264,1264,-0.675352680895798,-0.7,0.0,1.0,421.0,866.0,1.0,0,493.0,1
1265,1265,0.09513534002349788,0.1,0.0,0.0,447.0,980.0,0.0,1,153.0,1
1266,1266,-0.16490821750430495,-0.2,0.0,1.0,473.0,683.0,1.0,0,1124.0,1
1267,1267,0.5487289692698029,0.5,0.0,0.0,265.0,940.0,0.0,1,135.0,1
1268,1268,0.34542984919571984,0.3,1.0,1.0,250.0,587.0,1.0,1,1333.0,1
1269,1269,0.4288531299127759,0.4,1.0,1.0,494.0,677.0,1.0,1,489.0,1
1270,1270,-0.7736227937245175,-0.8,1.0,0.0,293.0,987.0,0.0,0,580.0,1
1271,1271,-0.594804638457604,-0.6,0.0,1.0,267.0,849.0,1.0,0,324.0,1
1272,1272,0.8405166392633406,0.8,0.0,0.0,370.0,574.0,0.0,1,336.0,1
1273,1273,0.7207588653768057,0.7,1.0,1.0,479.0,793.0,1.0,1,108.0,1
1274,1274,-0.2251764984658502,-0.2,0.0,1.0,278.0,993.0,0.0,1,-21.0,0
1275,1275,0.23384474528786192,0.2,0.0,0.0,417.0,609.0,0.0,1,654.0,1
1276,1276,-0.8727571030903138,-0.9,0.0,1.0,362.0,882.0,1.0,0,236.0,1
1277,1277,0.824881984777219,0.8,0.0,0.0,351.0,533.0,0.0,1,496.0,1
1278,1278,-0.8613295964898292,-0.9,0.0,1.0,445.0,529.0,1.0,0,716.0,1
1279,1279,0.5897409786435502,0.6,0.0,0.0,383.0,659.0,0.0,1,278.0,1
1280,1280,0.19146417512380587,0.2,1.0,1.0,474.0,500.0,1.0,1,2066.0,1
1281,1281,-0.684002898591718,-0.7,1.0,0.0,299.0,518.0,0.0,0,373.0,1
1282,1282,0.0536270278273141,0.1,1.0,1.0,347.0,739.0,0.0,0,324.0,0
1283,1283,0.2915366358078667,0.3,0.0,0.0,443.0,897.0,0.0,1,1780.0,1
1284,1284,0.2981737368987297,0.3,0.0,0.0,461.0,735.0,0.0,1,714.0,1
1285,1285,-0.04424576642281486,-0.0,1.0,0.0,311.0,574.0,1.0,1,1025.0,0
1286,1286,-0.7296602206391776,-0.7,0.0,1.0,334.0,602.0,1.0,0,514.0,1
1287,1287,0.28890071927884964,0.3,0.0,0.0,337.0,694.0,0.0,1,759.0,1
1288,1288,0.7525425010508106,0.8,0.0,0.0,325.0,797.0,0.0,1,318.0,1
1289,1289,-0.26563704973587066,-0.3,0.0,1.0,267.0,595.0,0.0,1,178.0,0
1290,1290,0.580849365947299,0.6,1.0,1.0,456.0,593.0,1.0,1,391.0,1
1291,1291,0.43769279489381485,0.4,1.0,1.0,417.0,547.0,1.0,1,906.0,1
1292,1292,0.48832694147640965,0.5,1.0,1.0,371.0,882.0,1.0,1,497.0,1
1293,1293,-0.014148695576672199,-0.0,1.0,0.0,470.0,980.0,1.0,1,1870.0,0
1294,1294,-0.4410506909075263,-0.4,0.0,1.0,251.0,627.0,1.0,0,702.0,1
1295,1295,-0.8659864228431111,-0.9,1.0,0.0,294.0,931.0,0.0,0,115.0,1
1296,1296,-0.7129742187361392,-0.7,0.0,1.0,399.0,922.0,1.0,0,939.0,1
1297,1297,-0.29375561558444563,-0.3,1.0,0.0,483.0,676.0,0.0,0,381.0,1
1298,1298,-0.6989510631383088,-0.7,0.0,1.0,265.0,561.0,1.0,0,384.0,1
1299,1299,-0.3333201719995388,-0.3,0.0,1.0,297.0,989.0,1.0,0,34.0,1
1300,1300,-0.05865988569265923,-0.1,0.0,1.0,399.0,605.0,0.0,1,886.0,0
1301,1301,0.05075931112585452,0.1,0.0,0.0,281.0,779.0,0.0,1,730.0,1
1302,1302,-0.2798061651038204,-0.3,0.0,1.0,354.0,542.0,1.0,0,1034.0,1
1303,1303,-0.31980736600471593,-0.3,1.0,0.0,460.0,869.0,0.0,0,341.0,1
1304,1304,0.2442577842556911,0.2,1.0,1.0,411.0,611.0,1.0,1,978.0,1
1305,1305,-0.13724136442212453,-0.1,1.0,0.0,463.0,708.0,0.0,0,729.0,1
1306,1306,0.7907138098522798,0.8,1.0,1.0,392.0,771.0,1.0,1,377.0,1
1307,1307,0.02617850376526276,0.0,0.0,0.0,388.0,857.0,0.0,1,1045.0,1
1308,1308,0.5547308788330642,0.6,0.0,0.0,388.0,572.0,0.0,1,270.0,1
1309,1309,0.24986676607196967,0.2,1.0,1.0,405.0,875.0,1.0,1,200.0,1
1310,1310,-0.44393005638412236,-0.4,0.0,1.0,472.0,547.0,1.0,0,561.0,1
1311,1311,-0.4719593324244599,-0.5,1.0,0.0,429.0,836.0,0.0,0,335.0,1
1312,1312,0.47186061613677543,0.5,1.0,1.0,317.0,630.0,1.0,1,383.0,1
1313,1313,-0.5403331945150089,-0.5,0.0,1.0,297.0,725.0,1.0,0,378.0,1
1314,1314,-0.27532861945672027,-0.3,1.0,0.0,482.0,942.0,1.0,1,426.0,0
1315,1315,0.48804179105997825,0.5,0.0,0.0,298.0,719.0,0.0,1,423.0,1
1316,1316,0.6923483447008582,0.7,1.0,1.0,439.0,680.0,1.0,1,461.0,1
1317,1317,0.7825724051149284,0.8,1.0,1.0,460.0,855.0,1.0,1,245.0,1
1318,1318,-0.39934051427183814,-0.4,0.0,1.0,275.0,825.0,0.0,1,90.0,0
1319,1319,0.0014376911370855838,0.0,1.0,1.0,344.0,771.0,1.0,1,465.0,1
1320,1320,-0.8369206305203909,-0.8,1.0,0.0,426.0,808.0,0.0,0,306.0,1
1321,1321,-0.8925226140659003,-0.9,1.0,0.0,465.0,939.0,0.0,0,426.0,1
1322,1322,-0.27499364000426996,-0.3,0.0,1.0,254.0,950.0,1.0,0,516.0,1
1323,1323,0.7954012911105045,0.8,1.0,1.0,428.0,787.0,1.0,1,225.0,1
1324,1324,-0.18175838743232609,-0.2,0.0,1.0,353.0,652.0,0.0,1,805.0,0
1325,1325,-0.08570670654732016,-0.1,1.0,0.0,459.0,652.0,0.0,0,1169.0,1
1326,1326,0.5868144471017865,0.6,0.0,0.0,398.0,530.0,0.0,1,412.0,1
1327,1327,0.186843925092388,0.2,1.0,1.0,288.0,605.0,1.0,1,607.0,1
1328,1328,-0.14443562895823925,-0.1,0.0,1.0,370.0,501.0,1.0,0,759.0,1
1329,1329,-0.8212384532238547,-0.8,0.0,1.0,336.0,728.0,1.0,0,866.0,1
1330,1330,-0.1304502792956943,-0.1,1.0,0.0,329.0,735.0,0.0,0,1746.0,1
1331,1331,-0.8487457993985907,-0.8,0.0,1.0,320.0,843.0,1.0,0,467.0,1
1332,1332,0.03033135409887311,0.0,1.0,1.0,349.0,952.0,1.0,1,409.0,1
1333,1333,-0.5271288340061013,-0.5,1.0,0.0,291.0,955.0,0.0,0,944.0,1
1334,1334,0.660368880308389,0.7,0.0,0.0,381.0,957.0,0.0,1,-168.0,1
1335,1335,0.8066048755564305,0.8,0.0,0.0,437.0,761.0,0.0,1,552.0,1
1336,1336,0.72360648940166,0.7,1.0,1.0,291.0,586.0,1.0,1,583.0,1
1337,1337,0.25203743391141853,0.3,0.0,0.0,320.0,689.0,0.0,1,531.0,1
1338,1338,0.574712999526242,0.6,1.0,1.0,316.0,918.0,1.0,1,346.0,1
1339,1339,0.3840365980552939,0.4,1.0,1.0,422.0,503.0,1.0,1,1155.0,1
1340,1340,-0.7988473388529433,-0.8,0.0,1.0,359.0,849.0,1.0,0,1082.0,1
1341,1341,-0.5741791262868705,-0.6,0.0,1.0,405.0,807.0,1.0,0,658.0,1
1342,1342,-0.21583267772629777,-0.2,1.0,0.0,424.0,973.0,0.0,0,-57.0,1
1343,1343,-0.6527121217314837,-0.7,1.0,0.0,457.0,521.0,0.0,0,562.0,1
1344,1344,0.02970435524057846,0.0,0.0,0.0,296.0,638.0,0.0,1,296.0,1
1345,1345,-0.7911877885021438,-0.8,0.0,1.0,384.0,635.0,1.0,0,721.0,1
1346,1346,-0.6293722952834198,-0.6,0.0,1.0,393.0,992.0,1.0,0,285.0,1
1347,1347,0.4607380333634531,0.5,0.0,0.0,465.0,729.0,0.0,1,436.0,1
1348,1348,-0.8468894453008108,-0.8,1.0,0.0,295.0,791.0,0.0,0,374.0,1
1349,1349,-0.11841181222540809,-0.1,0.0,1.0,356.0,757.0,0.0,1,177.0,0
1350,1350,-0.4314766012793447,-0.4,1.0,0.0,376.0,722.0,0.0,0,562.0,1
1351,1351,-0.6258936567430038,-0.6,0.0,1.0,271.0,695.0,1.0,0,484.0,1
1352,1352,0.8698578099783124,0.9,0.0,0.0,332.0,580.0,0.0,1,478.0,1
1353,1353,-0.7663373893982934,-0.8,1.0,0.0,364.0,654.0,0.0,0,482.0,1
1354,1354,-0.10163151542590987,-0.1,1.0,0.0,275.0,532.0,1.0,1,563.0,0
1355,1355,0.4421211934555339,0.4,0.0,0.0,302.0,826.0,0.0,1,702.0,1
1356,1356,0.34102798632019027,0.3,1.0,1.0,391.0,980.0,1.0,1,79.0,1
1357,1357,0.2642490696021428,0.3,0.0,0.0,471.0,967.0,0.0,1,242.0,1
1358,1358,-0.02446813516188795,-0.0,0.0,1.0,463.0,662.0,0.0,1,1195.0,0
1359,1359,-0.8444950942067143,-0.8,0.0,1.0,350.0,573.0,1.0,0,627.0,1
1360,1360,-0.37856087460101184,-0.4,1.0,0.0,438.0,691.0,0.0,0,581.0,1
1361,1361,-0.8091545150006165,-0.8,0.0,1.0,487.0,632.0,1.0,0,521.0,1
1362,1362,0.1777272254209511,0.2,0.0,0.0,276.0,700.0,0.0,1,384.0,1
1363,1363,0.6560060036811587,0.7,0.0,0.0,389.0,588.0,0.0,1,1143.0,1
1364,1364,0.7856310608174525,0.8,1.0,1.0,287.0,705.0,1.0,1,478.0,1
1365,1365,0.5170864995712111,0.5,0.0,0.0,368.0,905.0,0.0,1,177.0,1
1366,1366,0.628606008184509,0.6,0.0,0.0,324.0,874.0,0.0,1,182.0,1
1367,1367,0.4527152749778841,0.5,0.0,0.0,259.0,788.0,0.0,1,363.0,1
1368,1368,-0.5122715079308978,-0.5,0.0,1.0,350.0,531.0,1.0,0,889.0,1
1369,1369,-0.6542877226966234,-0.7,0.0,1.0,415.0,735.0,1.0,0,450.0,1
1370,1370,0.2073740370895839,0.2,0.0,0.0,387.0,890.0,0.0,1,353.0,1
1371,1371,-0.3757618168878103,-0.4,1.0,0.0,305.0,653.0,0.0,0,1322.0,1
1372,1372,0.21131031992862515,0.2,1.0,1.0,381.0,971.0,1.0,1,578.0,1
1373,1373,0.8247864788459,0.8,1.0,1.0,254.0,677.0,1.0,1,479.0,1
1374,1374,0.3337927617579909,0.3,0.0,0.0,437.0,635.0,0.0,1,368.0,1
1375,1375,0.7567299495397498,0.8,1.0,1.0,278.0,574.0,1.0,1,508.0,1
1376,1376,0.19227129184028546,0.2,0.0,0.0,422.0,978.0,0.0,1,340.0,1
1377,1377,0.03142118137484173,0.0,0.0,0.0,320.0,702.0,1.0,0,668.0,0
1378,1378,-0.42945336853561494,-0.4,1.0,0.0,358.0,573.0,0.0,0,389.0,1
1379,1379,0.37893311415181297,0.4,0.0,0.0,440.0,963.0,0.0,1,67.0,1
1380,1380,0.6235677349425109,0.6,1.0,1.0,463.0,663.0,1.0,1,554.0,1
1381,1381,-0.4246670084792252,-0.4,0.0,1.0,282.0,633.0,1.0,0,575.0,1
1382,1382,0.4666302436940254,0.5,1.0,1.0,461.0,551.0,1.0,1,868.0,1
1383,1383,-0.5996109012707149,-0.6,1.0,0.0,269.0,531.0,0.0,0,960.0,1
1384,1384,-0.38960143883595055,-0.4,1.0,0.0,324.0,699.0,1.0,1,1577.0,0
1385,1385,-0.32207431228702754,-0.3,0.0,1.0,265.0,899.0,1.0,0,3836.0,1
1386,1386,-0.4960286757221187,-0.5,0.0,1.0,276.0,591.0,1.0,0,723.0,1
1387,1387,-0.27078393938776735,-0.3,1.0,0.0,362.0,535.0,1.0,1,1893.0,0
1388,1388,0.676129031527113,0.7,0.0,0.0,321.0,518.0,0.0,1,501.0,1
1389,1389,-0.5619588207124848,-0.6,0.0,1.0,410.0,879.0,1.0,0,641.0,1
1390,1390,-0.8387429452157662,-0.8,1.0,0.0,258.0,894.0,0.0,0,98.0,1
1391,1391,0.4974899732623205,0.5,0.0,0.0,389.0,991.0,0.0,1,860.0,1
1392,1392,0.1616626466812675,0.2,0.0,0.0,460.0,682.0,0.0,1,678.0,1
1393,1393,0.1503176201712365,0.2,1.0,1.0,305.0,638.0,1.0,1,767.0,1
1394,1394,0.32761012440316206,0.3,1.0,1.0,459.0,687.0,1.0,1,594.0,1
1395,1395,-0.8870941738491477,-0.9,1.0,0.0,250.0,664.0,0.0,0,426.0,1
1396,1396,0.8274760714975257,0.8,1.0,1.0,252.0,692.0,1.0,1,346.0,1
1397,1397,0.45968080855914384,0.5,1.0,1.0,259.0,719.0,1.0,1,542.0,1
1398,1398,0.8338730152704174,0.8,1.0,1.0,321.0,707.0,1.0,1,312.0,1
1399,1399,0.2608193549671719,0.3,0.0,0.0,355.0,536.0,0.0,1,509.0,1
1400,1400,0.598520464764606,0.6,1.0,1.0,415.0,734.0,1.0,1,911.0,1
1401,1401,0.7529612136789566,0.8,0.0,0.0,446.0,812.0,0.0,1,212.0,1
1402,1402,-0.7367887787051233,-0.7,0.0,1.0,356.0,944.0,1.0,0,70.0,1
1403,1403,0.8643828847331151,0.9,0.0,0.0,350.0,952.0,0.0,1,168.0,1
1404,1404,0.5565512855676639,0.6,1.0,1.0,469.0,590.0,1.0,1,291.0,1
1405,1405,0.181434639411319,0.2,1.0,1.0,428.0,897.0,1.0,1,805.0,1
1406,1406,-0.6910724566089063,-0.7,0.0,1.0,451.0,689.0,1.0,0,690.0,1
1407,1407,0.1187862674223975,0.1,1.0,1.0,496.0,719.0,1.0,1,2475.0,1
1408,1408,-0.8917529720626342,-0.9,1.0,0.0,274.0,854.0,0.0,0,152.0,1
1409,1409,0.7730174569144163,0.8,1.0,1.0,459.0,648.0,1.0,1,713.0,1
1410,1410,0.8854991997006508,0.9,1.0,1.0,335.0,597.0,1.0,1,408.0,1
1411,1411,-0.32242018020494334,-0.3,0.0,1.0,282.0,769.0,1.0,0,809.0,1
1412,1412,0.5053660713438232,0.5,1.0,1.0,406.0,739.0,1.0,1,425.0,1
1413,1413,0.39675290708723276,0.4,0.0,0.0,308.0,766.0,0.0,1,666.0,1
1414,1414,-0.6170908390179932,-0.6,1.0,0.0,347.0,944.0,0.0,0,819.0,1
1415,1415,-0.6416721867920947,-0.6,1.0,0.0,266.0,896.0,0.0,0,178.0,1
1416,1416,-0.32186699980893774,-0.3,0.0,1.0,417.0,613.0,1.0,0,740.0,1
1417,1417,0.002582778679528608,0.0,1.0,1.0,412.0,734.0,1.0,1,254.0,1
1418,1418,0.6971964302899697,0.7,0.0,0.0,306.0,869.0,0.0,1,155.0,1
1419,1419,0.04136657776062391,0.0,1.0,1.0,398.0,830.0,1.0,1,342.0,1
1420,1420,0.7873636247627543,0.8,0.0,0.0,381.0,651.0,0.0,1,248.0,1
1421,1421,0.7052561143121364,0.7,0.0,0.0,420.0,648.0,0.0,1,312.0,1
1422,1422,-0.029630498274131778,-0.0,1.0,0.0,486.0,527.0,1.0,1,627.0,0
1423,1423,-0.6230510618371978,-0.6,0.0,1.0,340.0,878.0,1.0,0,352.0,1
1424,1424,0.5116435291468712,0.5,1.0,1.0,411.0,741.0,1.0,1,418.0,1
1425,1425,0.1188131533192266,0.1,1.0,1.0,251.0,525.0,1.0,1,2304.0,1
1426,1426,0.5331816064415017,0.5,1.0,1.0,309.0,855.0,1.0,1,446.0,1
1427,1427,0.7855204510462767,0.8,0.0,0.0,489.0,889.0,0.0,1,342.0,1
1428,1428,-0.1863001913204565,-0.2,0.0,1.0,349.0,807.0,1.0,0,1024.0,1
1429,1429,-0.345682107911775,-0.3,0.0,1.0,330.0,702.0,1.0,0,878.0,1
1430,1430,0.29311686442840357,0.3,1.0,1.0,390.0,860.0,1.0,1,1210.0,1
1431,1431,0.2809983900810983,0.3,0.0,0.0,441.0,551.0,0.0,1,468.0,1
1432,1432,0.4828592870016343,0.5,0.0,0.0,476.0,729.0,0.0,1,385.0,1
1433,1433,0.33909749814400547,0.3,1.0,1.0,407.0,559.0,0.0,0,784.0,0
1434,1434,-0.2597840992177637,-0.3,1.0,0.0,496.0,871.0,0.0,0,2073.0,1
1435,1435,-0.5037612501630235,-0.5,1.0,0.0,414.0,734.0,0.0,0,252.0,1
1436,1436,-0.47148418440347933,-0.5,0.0,1.0,457.0,829.0,1.0,0,904.0,1
1437,1437,-0.7864880979350211,-0.8,0.0,1.0,394.0,890.0,1.0,0,246.0,1
1438,1438,-0.478424639818986,-0.5,0.0,1.0,482.0,721.0,1.0,0,887.0,1
1439,1439,-0.77463399114187,-0.8,1.0,0.0,273.0,960.0,0.0,0,167.0,1
1440,1440,0.25822107091690005,0.3,1.0,1.0,354.0,638.0,0.0,0,438.0,0
1441,1441,-0.4414863117061197,-0.4,0.0,1.0,357.0,917.0,1.0,0,356.0,1
1442,1442,0.3802025979095497,0.4,1.0,1.0,468.0,517.0,1.0,1,1095.0,1
1443,1443,-0.8311857954537945,-0.8,1.0,0.0,465.0,508.0,0.0,0,367.0,1
1444,1444,-0.4410721775278571,-0.4,1.0,0.0,435.0,791.0,0.0,0,594.0,1
1445,1445,-0.3369122507094422,-0.3,1.0,0.0,315.0,844.0,0.0,0,881.0,1
1446,1446,-0.23991713773853218,-0.2,0.0,1.0,346.0,972.0,1.0,0,52.0,1
1447,1447,0.2960921174439063,0.3,0.0,0.0,304.0,546.0,0.0,1,620.0,1
1448,1448,-0.10077222455940082,-0.1,1.0,0.0,344.0,634.0,1.0,1,2392.0,0
1449,1449,-0.7551302101595277,-0.8,0.0,1.0,332.0,903.0,1.0,0,25.0,1
1450,1450,-0.20004499423310407,-0.2,0.0,1.0,292.0,841.0,0.0,1,157.0,0
1451,1451,-0.748163538908422,-0.7,0.0,1.0,392.0,512.0,1.0,0,686.0,1
1452,1452,-0.7901244056324019,-0.8,1.0,0.0,403.0,631.0,0.0,0,336.0,1
1453,1453,0.6600479229925548,0.7,0.0,0.0,453.0,682.0,0.0,1,315.0,1
1454,1454,0.15259374663939151,0.2,0.0,0.0,329.0,615.0,0.0,1,456.0,1
1455,1455,0.23823964941944753,0.2,1.0,1.0,340.0,790.0,1.0,1,810.0,1
1456,1456,-0.8483990887995491,-0.8,1.0,0.0,373.0,943.0,0.0,0,414.0,1
1457,1457,0.8057301650510792,0.8,1.0,1.0,256.0,674.0,1.0,1,340.0,1
1458,1458,-0.09196898756206529,-0.1,0.0,1.0,385.0,664.0,0.0,1,1331.0,0
1459,1459,0.21947722568966566,0.2,1.0,1.0,310.0,686.0,1.0,1,554.0,1
1460,1460,0.5243429084651613,0.5,0.0,0.0,484.0,796.0,0.0,1,370.0,1
1461,1461,0.02529819483671425,0.0,1.0,1.0,449.0,969.0,1.0,1,422.0,1
1462,1462,-0.410584906464513,-0.4,1.0,0.0,328.0,809.0,0.0,0,1853.0,1
1463,1463,0.6080232820970709,0.6,1.0,1.0,310.0,773.0,1.0,1,337.0,1
1464,1464,-0.7422290524252859,-0.7,1.0,0.0,373.0,978.0,0.0,0,259.0,1
1465,1465,0.41291625323261283,0.4,1.0,1.0,374.0,919.0,1.0,1,127.0,1
1466,1466,0.6212246120986741,0.6,0.0,0.0,323.0,976.0,0.0,1,71.0,1
1467,1467,-0.12395563029079781,-0.1,1.0,0.0,292.0,894.0,1.0,1,74.0,0
1468,1468,-0.890674440155906,-0.9,1.0,0.0,481.0,585.0,0.0,0,624.0,1
1469,1469,0.8472417077933027,0.8,0.0,0.0,340.0,971.0,0.0,1,99.0,1
1470,1470,0.8098768148759504,0.8,0.0,0.0,452.0,782.0,0.0,1,566.0,1
1471,1471,0.6918001434126136,0.7,0.0,0.0,392.0,751.0,0.0,1,567.0,1
1472,1472,0.818382868089817,0.8,0.0,0.0,475.0,918.0,0.0,1,347.0,1
1473,1473,-0.6577604980884125,-0.7,0.0,1.0,381.0,969.0,1.0,0,280.0,1
1474,1474,-0.29987315001186465,-0.3,0.0,1.0,429.0,680.0,1.0,0,461.0,1
1475,1475,-0.1121391866565119,-0.1,1.0,0.0,487.0,539.0,0.0,0,1214.0,1
1476,1476,-0.2500923510903077,-0.3,0.0,1.0,361.0,936.0,1.0,0,553.0,1
1477,1477,0.4966977150703903,0.5,1.0,1.0,488.0,906.0,1.0,1,316.0,1
1478,1478,-0.2654426735600771,-0.3,1.0,0.0,458.0,769.0,1.0,1,933.0,0
1479,1479,0.24966170773914775,0.2,0.0,0.0,257.0,524.0,0.0,1,2619.0,1
1480,1480,0.8157708725895002,0.8,1.0,1.0,384.0,676.0,1.0,1,360.0,1
1481,1481,-0.5681953381816025,-0.6,1.0,0.0,284.0,596.0,0.0,0,460.0,1
1482,1482,-0.7784491761477009,-0.8,1.0,0.0,294.0,783.0,0.0,0,603.0,1
1483,1483,0.3190876799055161,0.3,0.0,0.0,299.0,517.0,0.0,1,454.0,1
1484,1484,0.6622499385893389,0.7,0.0,0.0,346.0,657.0,0.0,1,147.0,1
1485,1485,-0.46833595154231317,-0.5,0.0,1.0,268.0,564.0,1.0,0,928.0,1
1486,1486,0.5223228058291797,0.5,0.0,0.0,438.0,843.0,0.0,1,209.0,1
1487,1487,-0.052686662706881604,-0.1,1.0,0.0,330.0,930.0,1.0,1,400.0,0
1488,1488,-0.2842056613074987,-0.3,1.0,0.0,407.0,931.0,0.0,0,652.0,1
1489,1489,0.347461491658828,0.3,1.0,1.0,262.0,720.0,1.0,1,1108.0,1
1490,1490,0.6297371464777485,0.6,1.0,1.0,452.0,987.0,1.0,1,441.0,1
1491,1491,0.7590496327538753,0.8,1.0,1.0,464.0,716.0,1.0,1,470.0,1
