,trial,coherence,coherence_bin,green_side,correct_side,target_onset,checker_onset,decision,green_decision,decision_time,correct_decision
0,0,0.5511095715253064,0.6,1.0,1.0,449.0,529.0,1.0,1,352.0,1
1,1,0.043950578285089414,0.0,1.0,1.0,366.0,732.0,1.0,1,3902.0,1
2,2,0.5640714309806568,0.6,1.0,1.0,329.0,642.0,1.0,1,119.0,1
3,3,-0.12676686185738584,-0.1,1.0,0.0,297.0,515.0,0.0,0,958.0,1
4,4,-0.35008627910604895,-0.4,1.0,0.0,306.0,816.0,0.0,0,368.0,1
5,5,0.369818208220127,0.4,1.0,1.0,314.0,622.0,1.0,1,784.0,1
6,6,0.7990443437762073,0.8,1.0,1.0,349.0,987.0,1.0,1,204.0,1
7,7,0.2006321737421003,0.2,1.0,1.0,492.0,913.0,1.0,1,2125.0,1
8,8,-0.5991105167286361,-0.6,1.0,0.0,264.0,846.0,0.0,0,280.0,1
9,9,0.5727805620881431,0.6,0.0,0.0,442.0,554.0,0.0,1,344.0,1
10,10,-0.03210459964363721,-0.0,1.0,0.0,469.0,950.0,0.0,0,3481.0,1
11,11,0.6209909804853712,0.6,1.0,1.0,262.0,774.0,1.0,1,144.0,1
12,12,0.23253733495032425,0.2,0.0,0.0,385.0,958.0,0.0,1,297.0,1
13,13,0.7007028956105353,0.7,1.0,1.0,432.0,583.0,1.0,1,145.0,1
14,14,0.1993432531331777,0.2,0.0,0.0,277.0,866.0,0.0,1,647.0,1
15,15,-0.596326211344107,-0.6,1.0,0.0,468.0,693.0,0.0,0,319.0,1
16,16,-0.5464453567995459,-0.5,0.0,1.0,497.0,667.0,1.0,0,536.0,1
17,17,0.02909433774608461,0.0,1.0,1.0,464.0,928.0,1.0,1,2778.0,1
18,18,0.7737965877360516,0.8,0.0,0.0,438.0,698.0,0.0,1,284.0,1
19,19,0.478511303845775,0.5,1.0,1.0,408.0,860.0,1.0,1,322.0,1
20,20,-0.1678226407938025,-0.2,1.0,0.0,460.0,850.0,0.0,0,850.0,1
21,21,0.8085637190311185,0.8,1.0,1.0,288.0,783.0,1.0,1,379.0,1
22,22,0.08725029428485853,0.1,1.0,1.0,426.0,727.0,1.0,1,927.0,1
23,23,-0.43767431306433824,-0.4,0.0,1.0,318.0,548.0,1.0,0,494.0,1
24,24,-0.4031089457199609,-0.4,1.0,0.0,320.0,616.0,0.0,0,254.0,1
25,25,-0.5603576453067942,-0.6,1.0,0.0,376.0,819.0,0.0,0,125.0,1
26,26,0.24467255397884113,0.2,0.0,0.0,267.0,659.0,0.0,1,764.0,1
27,27,-0.4197716671272377,-0.4,1.0,0.0,438.0,738.0,0.0,0,284.0,1
28,28,0.4513427628026997,0.5,0.0,0.0,383.0,615.0,0.0,1,212.0,1
29,29,0.40828309785110173,0.4,1.0,1.0,381.0,573.0,1.0,1,396.0,1
30,30,-0.006326960667828563,-0.0,1.0,0.0,257.0,604.0,0.0,0,999.0,1
31,31,-0.8538579012991836,-0.9,1.0,0.0,382.0,922.0,0.0,0,276.0,1
32,32,-0.7137238850920378,-0.7,0.0,1.0,406.0,883.0,1.0,0,261.0,1
33,33,0.17325128736822204,0.2,1.0,1.0,393.0,657.0,1.0,1,1000.0,1
34,34,0.3491804744344146,0.3,1.0,1.0,258.0,602.0,1.0,1,380.0,1
35,35,0.16924444519473136,0.2,0.0,0.0,354.0,921.0,0.0,1,1355.0,1
36,36,-0.8022251744921265,-0.8,1.0,0.0,292.0,612.0,0.0,0,346.0,1
37,37,-0.7825308383745914,-0.8,0.0,1.0,345.0,847.0,1.0,0,158.0,1
38,38,0.2896031225725374,0.3,1.0,1.0,279.0,994.0,1.0,1,747.0,1
39,39,-0.5464689191169887,-0.5,1.0,0.0,297.0,734.0,0.0,0,469.0,1
40,40,0.3129497608108377,0.3,1.0,1.0,457.0,539.0,1.0,1,634.0,1
41,41,-0.3161524062243616,-0.3,0.0,1.0,431.0,665.0,1.0,0,474.0,1
42,42,0.3634359653640805,0.4,0.0,0.0,452.0,512.0,0.0,1,286.0,1
43,43,0.07920924375372518,0.1,1.0,1.0,255.0,708.0,1.0,1,4037.0,1
44,44,0.24588651032716313,0.2,1.0,1.0,483.0,837.0,1.0,1,750.0,1
45,45,0.7915576277853437,0.8,1.0,1.0,313.0,803.0,1.0,1,244.0,1
46,46,0.8784618134362038,0.9,1.0,1.0,485.0,682.0,1.0,1,223.0,1
47,47,-0.8067594718720823,-0.8,0.0,1.0,442.0,803.0,1.0,0,165.0,1
48,48,0.5912655426023815,0.6,1.0,1.0,377.0,882.0,1.0,1,381.0,1
49,49,-0.5731470443682922,-0.6,1.0,0.0,341.0,706.0,0.0,0,113.0,1
50,50,0.013054870893428161,0.0,1.0,1.0,379.0,967.0,0.0,0,1334.0,0
51,51,0.4233951853269623,0.4,0.0,0.0,395.0,949.0,0.0,1,196.0,1
52,52,-0.5329613053671689,-0.5,1.0,0.0,482.0,766.0,0.0,0,472.0,1
53,53,0.0831466129816889,0.1,1.0,1.0,401.0,940.0,1.0,1,909.0,1
54,54,-0.36078274526831466,-0.4,1.0,0.0,438.0,706.0,0.0,0,246.0,1
55,55,-0.06520083880081584,-0.1,1.0,0.0,373.0,952.0,0.0,0,285.0,1
56,56,-0.286840170137481,-0.3,0.0,1.0,261.0,955.0,1.0,0,324.0,1
57,57,-0.39070313938164825,-0.4,1.0,0.0,258.0,811.0,0.0,0,571.0,1
58,58,-0.4891729539344241,-0.5,0.0,1.0,469.0,742.0,1.0,0,459.0,1
59,59,0.08408559608257937,0.1,0.0,0.0,362.0,537.0,0.0,1,821.0,1
60,60,-0.4825686632216148,-0.5,1.0,0.0,382.0,789.0,0.0,0,399.0,1
61,61,-0.2844554705952883,-0.3,1.0,0.0,477.0,662.0,0.0,0,251.0,1
62,62,0.17491724685165766,0.2,0.0,0.0,374.0,776.0,0.0,1,380.0,1
63,63,0.11403545336336196,0.1,0.0,0.0,403.0,595.0,0.0,1,1052.0,1
64,64,-0.7414869068695845,-0.7,0.0,1.0,441.0,627.0,1.0,0,342.0,1
65,65,0.6103936342726285,0.6,0.0,0.0,267.0,998.0,0.0,1,125.0,1
66,66,0.08906046872190565,0.1,1.0,1.0,384.0,650.0,1.0,1,3966.0,1
67,67,-0.7943816883871012,-0.8,1.0,0.0,410.0,791.0,0.0,0,539.0,1
68,68,0.7089613263796378,0.7,1.0,1.0,477.0,662.0,1.0,1,181.0,1
69,69,0.07859114449006455,0.1,1.0,1.0,315.0,918.0,1.0,1,3767.0,1
70,70,0.20155222561487507,0.2,0.0,0.0,250.0,848.0,0.0,1,742.0,1
71,71,-0.03691709038929791,-0.0,0.0,1.0,271.0,809.0,1.0,0,3920.0,1
72,72,0.28669006488890136,0.3,1.0,1.0,348.0,590.0,1.0,1,392.0,1
73,73,0.6288245535328979,0.6,0.0,0.0,415.0,848.0,0.0,1,357.0,1
74,74,-0.8088403851254559,-0.8,0.0,1.0,456.0,577.0,1.0,0,277.0,1
75,75,0.6492002710207393,0.6,1.0,1.0,298.0,724.0,1.0,1,268.0,1
76,76,0.24048754423302265,0.2,0.0,0.0,270.0,725.0,0.0,1,355.0,1
77,77,0.47092639146239657,0.5,1.0,1.0,400.0,972.0,1.0,1,238.0,1
78,78,0.16330631607461032,0.2,1.0,1.0,300.0,888.0,1.0,1,1922.0,1
79,79,-0.6256961077840761,-0.6,0.0,1.0,340.0,552.0,1.0,0,478.0,1
80,80,-0.21064194075698262,-0.2,0.0,1.0,264.0,724.0,1.0,0,372.0,1
81,81,-0.44369114048053165,-0.4,0.0,1.0,314.0,830.0,1.0,0,386.0,1
82,82,-0.45844472178590623,-0.5,0.0,1.0,358.0,728.0,1.0,0,364.0,1
83,83,0.34005133693789646,0.3,1.0,1.0,265.0,708.0,1.0,1,487.0,1
84,84,-0.3667340451236393,-0.4,0.0,1.0,361.0,724.0,1.0,0,485.0,1
85,85,-0.6350839435240274,-0.6,0.0,1.0,441.0,899.0,1.0,0,360.0,1
86,86,-0.7050086176063715,-0.7,1.0,0.0,331.0,996.0,0.0,0,273.0,1
87,87,-0.19705437934781578,-0.2,1.0,0.0,270.0,579.0,0.0,0,421.0,1
88,88,-0.22739740261175767,-0.2,0.0,1.0,471.0,639.0,1.0,0,1030.0,1
89,89,0.16856743493745874,0.2,0.0,0.0,284.0,618.0,0.0,1,908.0,1
90,90,0.14868055248533707,0.1,0.0,0.0,496.0,918.0,0.0,1,236.0,1
91,91,-0.5285546207710301,-0.5,0.0,1.0,321.0,945.0,1.0,0,234.0,1
92,92,0.5158062165083955,0.5,0.0,0.0,305.0,664.0,0.0,1,331.0,1
93,93,-0.16978678292247384,-0.2,0.0,1.0,441.0,906.0,1.0,0,783.0,1
94,94,-0.5588773482614433,-0.6,0.0,1.0,324.0,602.0,1.0,0,544.0,1
95,95,-0.7645267077794726,-0.8,0.0,1.0,361.0,924.0,1.0,0,695.0,1
96,96,-0.48521324133939037,-0.5,1.0,0.0,299.0,815.0,0.0,0,276.0,1
97,97,-0.36536110492658325,-0.4,0.0,1.0,463.0,512.0,1.0,0,605.0,1
98,98,-0.3172272185631553,-0.3,0.0,1.0,373.0,713.0,1.0,0,364.0,1
99,99,-0.7719134450078384,-0.8,1.0,0.0,328.0,602.0,0.0,0,360.0,1
100,100,-0.1393022991026256,-0.1,1.0,0.0,447.0,858.0,0.0,0,395.0,1
101,101,0.03196016453663186,0.0,1.0,1.0,476.0,880.0,1.0,1,2244.0,1
102,102,0.010088192415077968,0.0,0.0,0.0,424.0,792.0,1.0,0,404.0,0
103,103,0.10235821387850408,0.1,1.0,1.0,422.0,830.0,1.0,1,478.0,1
104,104,0.7275596026355852,0.7,1.0,1.0,379.0,682.0,1.0,1,249.0,1
105,105,-0.1389881732058148,-0.1,1.0,0.0,481.0,777.0,0.0,0,1652.0,1
106,106,0.0781651967387168,0.1,0.0,0.0,486.0,547.0,0.0,1,1857.0,1
107,107,-0.5332087175369564,-0.5,0.0,1.0,271.0,634.0,1.0,0,595.0,1
108,108,-0.4596230070676254,-0.5,1.0,0.0,332.0,554.0,0.0,0,354.0,1
109,109,-0.26397291088629193,-0.3,1.0,0.0,443.0,855.0,0.0,0,1012.0,1
110,110,0.8330369972064394,0.8,0.0,0.0,374.0,968.0,0.0,1,178.0,1
111,111,-0.39357460044569403,-0.4,0.0,1.0,393.0,533.0,1.0,0,554.0,1
112,112,0.505600520020237,0.5,0.0,0.0,480.0,925.0,0.0,1,365.0,1
113,113,0.4284489654130631,0.4,0.0,0.0,314.0,601.0,0.0,1,675.0,1
114,114,0.659563966598636,0.7,1.0,1.0,280.0,713.0,1.0,1,197.0,1
115,115,0.7783135699062566,0.8,0.0,0.0,477.0,605.0,0.0,1,238.0,1
116,116,-0.32529428860360543,-0.3,1.0,0.0,415.0,684.0,0.0,0,151.0,1
117,117,0.2786467020190274,0.3,1.0,1.0,433.0,999.0,1.0,1,278.0,1
118,118,0.3694810077015135,0.4,0.0,0.0,348.0,756.0,0.0,1,306.0,1
119,119,0.8089298755389006,0.8,1.0,1.0,410.0,935.0,1.0,1,155.0,1
120,120,0.23040414654875352,0.2,1.0,1.0,280.0,850.0,1.0,1,1380.0,1
121,121,0.6234607145917995,0.6,1.0,1.0,447.0,632.0,1.0,1,231.0,1
122,122,-0.5134411806534646,-0.5,1.0,0.0,297.0,771.0,0.0,0,392.0,1
123,123,-0.7092077960985383,-0.7,0.0,1.0,276.0,528.0,1.0,0,436.0,1
124,124,0.12546701076698008,0.1,1.0,1.0,350.0,510.0,1.0,1,3750.0,1
125,125,0.12493645266994136,0.1,0.0,0.0,497.0,823.0,0.0,1,420.0,1
126,126,0.5903302989741331,0.6,1.0,1.0,374.0,598.0,1.0,1,288.0,1
127,127,-0.7924031517439328,-0.8,1.0,0.0,355.0,669.0,0.0,0,466.0,1
128,128,-0.394151189268084,-0.4,0.0,1.0,399.0,611.0,1.0,0,270.0,1
129,129,0.008735933521192063,0.0,0.0,0.0,310.0,679.0,0.0,1,1401.0,1
130,130,-0.6001257614986684,-0.6,0.0,1.0,407.0,541.0,1.0,0,352.0,1
131,131,-0.07760556903734028,-0.1,0.0,1.0,420.0,880.0,0.0,1,710.0,0
132,132,0.4713088858733484,0.5,1.0,1.0,495.0,581.0,1.0,1,364.0,1
133,133,-0.48443499348528024,-0.5,1.0,0.0,287.0,631.0,0.0,0,552.0,1
134,134,0.45600409694578425,0.5,0.0,0.0,493.0,581.0,0.0,1,656.0,1
135,135,0.609533679075703,0.6,1.0,1.0,408.0,927.0,1.0,1,245.0,1
136,136,0.8442801819463529,0.8,1.0,1.0,255.0,800.0,1.0,1,185.0,1
137,137,-0.7310087155087241,-0.7,0.0,1.0,354.0,763.0,1.0,0,453.0,1
138,138,0.8323641080866212,0.8,1.0,1.0,275.0,517.0,1.0,1,498.0,1
139,139,0.5779520027511648,0.6,0.0,0.0,303.0,746.0,0.0,1,111.0,1
140,140,0.5265263813685975,0.5,1.0,1.0,262.0,543.0,1.0,1,335.0,1
141,141,-0.6896677294142761,-0.7,1.0,0.0,347.0,815.0,0.0,0,258.0,1
142,142,-0.8657659586895508,-0.9,0.0,1.0,416.0,862.0,1.0,0,362.0,1
143,143,0.6992969283618583,0.7,1.0,1.0,292.0,715.0,1.0,1,333.0,1
144,144,-0.3504871893822594,-0.4,0.0,1.0,250.0,794.0,1.0,0,1076.0,1
145,145,-0.41938909868767493,-0.4,0.0,1.0,328.0,659.0,1.0,0,473.0,1
146,146,-0.44925648585843103,-0.4,1.0,0.0,320.0,996.0,0.0,0,274.0,1
147,147,-0.03844803400493679,-0.0,1.0,0.0,271.0,938.0,0.0,0,1051.0,1
148,148,0.8293700479391656,0.8,1.0,1.0,410.0,999.0,1.0,1,241.0,1
149,149,0.40310346296696264,0.4,1.0,1.0,282.0,871.0,1.0,1,487.0,1
150,150,-0.050930173963623204,-0.1,1.0,0.0,255.0,791.0,0.0,0,2184.0,1
151,151,0.6420953775381967,0.6,1.0,1.0,279.0,531.0,1.0,1,510.0,1
152,152,0.25603505239915114,0.3,0.0,0.0,339.0,550.0,0.0,1,611.0,1
153,153,0.8872112210026163,0.9,1.0,1.0,462.0,648.0,1.0,1,320.0,1
154,154,-0.3973826320873133,-0.4,1.0,0.0,356.0,778.0,0.0,0,536.0,1
155,155,0.6804347067048572,0.7,0.0,0.0,362.0,806.0,0.0,1,212.0,1
156,156,0.18290941778154524,0.2,1.0,1.0,265.0,972.0,1.0,1,2323.0,1
157,157,0.25538166228037873,0.3,0.0,0.0,298.0,535.0,0.0,1,727.0,1
158,158,0.2806467741209885,0.3,0.0,0.0,471.0,999.0,0.0,1,230.0,1
159,159,0.6923386838836737,0.7,1.0,1.0,269.0,821.0,1.0,1,150.0,1
160,160,-0.6132193133918644,-0.6,0.0,1.0,482.0,832.0,1.0,0,326.0,1
161,161,-0.28762791727544323,-0.3,1.0,0.0,381.0,846.0,0.0,0,373.0,1
162,162,-0.1125626330953563,-0.1,1.0,0.0,368.0,570.0,0.0,0,1122.0,1
163,163,0.12494856432164736,0.1,1.0,1.0,321.0,501.0,1.0,1,1398.0,1
164,164,0.8402013282440323,0.8,0.0,0.0,282.0,947.0,0.0,1,231.0,1
165,165,0.8533363996821876,0.9,0.0,0.0,310.0,866.0,0.0,1,224.0,1
166,166,-0.6090062793932149,-0.6,0.0,1.0,384.0,963.0,1.0,0,173.0,1
167,167,0.6910509261375869,0.7,1.0,1.0,451.0,584.0,1.0,1,315.0,1
168,168,0.31047038049278564,0.3,1.0,1.0,298.0,574.0,1.0,1,428.0,1
169,169,-0.34513194373080336,-0.3,0.0,1.0,430.0,786.0,1.0,0,184.0,1
170,170,-0.3713059859349923,-0.4,1.0,0.0,415.0,951.0,0.0,0,224.0,1
171,171,0.11004214571859394,0.1,0.0,0.0,344.0,902.0,0.0,1,314.0,1
172,172,-0.6162512873943286,-0.6,1.0,0.0,446.0,898.0,0.0,0,246.0,1
173,173,-0.5293644701932445,-0.5,0.0,1.0,445.0,816.0,1.0,0,379.0,1
174,174,-0.3727201698802616,-0.4,0.0,1.0,418.0,853.0,1.0,0,309.0,1
175,175,-0.8999359357003688,-0.9,1.0,0.0,410.0,536.0,0.0,0,454.0,1
176,176,0.3275879204448008,0.3,1.0,1.0,368.0,662.0,1.0,1,630.0,1
177,177,-0.011844928967714385,-0.0,0.0,1.0,401.0,959.0,0.0,1,3640.0,0
178,178,-0.683445915079333,-0.7,0.0,1.0,386.0,910.0,1.0,0,404.0,1
179,179,0.5382380316097767,0.5,0.0,0.0,309.0,511.0,0.0,1,530.0,1
180,180,0.8499016249501611,0.8,0.0,0.0,373.0,739.0,0.0,1,228.0,1
181,181,0.2654047261071045,0.3,0.0,0.0,395.0,864.0,0.0,1,621.0,1
182,182,-0.209681028725611,-0.2,1.0,0.0,485.0,586.0,0.0,0,1139.0,1
183,183,0.13848990086475343,0.1,1.0,1.0,294.0,628.0,1.0,1,1078.0,1
184,184,0.06985564253339249,0.1,1.0,1.0,268.0,713.0,1.0,1,1009.0,1
185,185,-0.5644094055502538,-0.6,0.0,1.0,297.0,735.0,1.0,0,118.0,1
186,186,-0.10135192881159294,-0.1,1.0,0.0,376.0,506.0,0.0,0,1718.0,1
187,187,0.20338167262389317,0.2,0.0,0.0,316.0,729.0,0.0,1,545.0,1
188,188,-0.551487194052093,-0.6,0.0,1.0,440.0,616.0,1.0,0,494.0,1
189,189,0.010108847834259915,0.0,0.0,0.0,299.0,689.0,1.0,0,842.0,0
190,190,0.3471718017991433,0.3,0.0,0.0,257.0,592.0,0.0,1,431.0,1
191,191,-0.5445580265669547,-0.5,1.0,0.0,317.0,619.0,0.0,0,524.0,1
192,192,0.03402120336797154,0.0,0.0,0.0,365.0,871.0,0.0,1,734.0,1
193,193,0.10644448809384566,0.1,1.0,1.0,317.0,526.0,1.0,1,1227.0,1
194,194,-0.06852678958914271,-0.1,0.0,1.0,354.0,808.0,1.0,0,3838.0,1
195,195,-0.42721194036040655,-0.4,1.0,0.0,377.0,619.0,0.0,0,574.0,1
196,196,0.6221640561904266,0.6,0.0,0.0,423.0,612.0,0.0,1,595.0,1
197,197,0.49459394955016023,0.5,0.0,0.0,404.0,822.0,0.0,1,384.0,1
198,198,0.13700842979208983,0.1,0.0,0.0,338.0,988.0,0.0,1,74.0,1
199,199,0.7050934405050925,0.7,0.0,0.0,398.0,684.0,0.0,1,378.0,1
200,200,0.2176303713140163,0.2,1.0,1.0,476.0,868.0,1.0,1,496.0,1
201,201,0.4595736791636683,0.5,0.0,0.0,351.0,897.0,0.0,1,132.0,1
202,202,0.5847680518133961,0.6,0.0,0.0,474.0,741.0,0.0,1,455.0,1
203,203,-0.5115219605541668,-0.5,0.0,1.0,397.0,710.0,1.0,0,473.0,1
204,204,-0.4579576050374649,-0.5,1.0,0.0,327.0,857.0,0.0,0,216.0,1
205,205,-0.5807887880072871,-0.6,1.0,0.0,416.0,700.0,0.0,0,264.0,1
206,206,-0.8070282640835539,-0.8,0.0,1.0,288.0,767.0,1.0,0,305.0,1
207,207,0.07056813931832673,0.1,1.0,1.0,430.0,940.0,1.0,1,470.0,1
208,208,0.5800860381447185,0.6,0.0,0.0,461.0,618.0,0.0,1,461.0,1
209,209,-0.5262662330094,-0.5,0.0,1.0,416.0,679.0,1.0,0,525.0,1
210,210,-0.1437884988300654,-0.1,1.0,0.0,475.0,970.0,0.0,0,265.0,1
211,211,-0.6898301033231546,-0.7,0.0,1.0,423.0,944.0,1.0,0,103.0,1
212,212,0.1984122762916546,0.2,1.0,1.0,298.0,950.0,1.0,1,472.0,1
213,213,-0.35870951214644486,-0.4,0.0,1.0,251.0,758.0,1.0,0,441.0,1
214,214,-0.26325690827445325,-0.3,1.0,0.0,492.0,824.0,0.0,0,874.0,1
215,215,-0.3651310558283407,-0.4,0.0,1.0,402.0,557.0,1.0,0,1151.0,1
216,216,-0.7283409064483545,-0.7,1.0,0.0,477.0,820.0,0.0,0,103.0,1
217,217,-0.6242626677355791,-0.6,0.0,1.0,411.0,704.0,1.0,0,395.0,1
218,218,-0.8525030096884323,-0.9,1.0,0.0,258.0,963.0,0.0,0,219.0,1
219,219,-0.29124014493534744,-0.3,1.0,0.0,443.0,620.0,0.0,0,427.0,1
220,220,-0.6734879435517236,-0.7,0.0,1.0,407.0,559.0,1.0,0,414.0,1
221,221,0.046326021552077434,0.0,1.0,1.0,278.0,635.0,0.0,0,4087.0,0
222,222,-0.5550540105168511,-0.6,1.0,0.0,428.0,579.0,0.0,0,323.0,1
223,223,-0.22602193395486514,-0.2,1.0,0.0,280.0,682.0,0.0,0,888.0,1
224,224,0.43626296795606934,0.4,0.0,0.0,340.0,565.0,0.0,1,425.0,1
225,225,-0.19577703621161868,-0.2,1.0,0.0,348.0,885.0,0.0,0,467.0,1
226,226,-0.05987739833611383,-0.1,0.0,1.0,467.0,901.0,1.0,0,3632.0,1
227,227,0.5466846914989555,0.5,0.0,0.0,493.0,931.0,0.0,1,196.0,1
228,228,-0.26038027536827135,-0.3,1.0,0.0,283.0,801.0,0.0,0,126.0,1
229,229,-0.06710990372234371,-0.1,0.0,1.0,397.0,996.0,1.0,0,327.0,1
230,230,0.41010722299854485,0.4,1.0,1.0,459.0,684.0,1.0,1,247.0,1
231,231,0.38125342649516025,0.4,0.0,0.0,318.0,545.0,0.0,1,717.0,1
232,232,0.6646330336371852,0.7,1.0,1.0,314.0,566.0,1.0,1,450.0,1
233,233,0.02978897989060858,0.0,0.0,0.0,409.0,835.0,0.0,1,426.0,1
234,234,-0.2110627172033207,-0.2,1.0,0.0,323.0,888.0,0.0,0,629.0,1
235,235,0.37752576350563627,0.4,1.0,1.0,399.0,649.0,1.0,1,1072.0,1
236,236,0.34324636961443444,0.3,0.0,0.0,335.0,538.0,0.0,1,457.0,1
237,237,0.36829666819486573,0.4,1.0,1.0,270.0,989.0,1.0,1,181.0,1
238,238,0.08381683003112717,0.1,0.0,0.0,308.0,749.0,0.0,1,793.0,1
239,239,0.558733021755767,0.6,1.0,1.0,433.0,545.0,1.0,1,522.0,1
240,240,-0.8297679072318184,-0.8,0.0,1.0,484.0,736.0,1.0,0,230.0,1
241,241,0.5295358296092282,0.5,0.0,0.0,466.0,587.0,0.0,1,387.0,1
242,242,0.7648550094475067,0.8,1.0,1.0,493.0,963.0,1.0,1,174.0,1
243,243,-0.15215472407771435,-0.2,0.0,1.0,417.0,945.0,1.0,0,578.0,1
244,244,-0.7302167424081916,-0.7,1.0,0.0,491.0,602.0,0.0,0,447.0,1
245,245,-0.3160532183073792,-0.3,0.0,1.0,477.0,875.0,1.0,0,528.0,1
246,246,-0.11633044618873523,-0.1,0.0,1.0,431.0,897.0,1.0,0,722.0,1
247,247,-0.6644062667183016,-0.7,0.0,1.0,260.0,958.0,1.0,0,252.0,1
248,248,-0.48309662916851387,-0.5,0.0,1.0,289.0,902.0,1.0,0,189.0,1
249,249,-0.4327745988438474,-0.4,0.0,1.0,367.0,507.0,1.0,0,386.0,1
250,250,0.5290775963062587,0.5,1.0,1.0,270.0,653.0,1.0,1,197.0,1
251,251,-0.23148820386363855,-0.2,1.0,0.0,352.0,729.0,0.0,0,949.0,1
252,252,-0.2711817880760442,-0.3,1.0,0.0,465.0,922.0,0.0,0,793.0,1
253,253,-0.8626360218643739,-0.9,0.0,1.0,317.0,994.0,1.0,0,169.0,1
254,254,-0.1521610433274666,-0.2,1.0,0.0,298.0,722.0,0.0,0,720.0,1
255,255,0.13354078218486054,0.1,1.0,1.0,372.0,668.0,1.0,1,1000.0,1
256,256,0.4149678507901534,0.4,0.0,0.0,436.0,660.0,0.0,1,784.0,1
257,257,0.5114675663153955,0.5,0.0,0.0,325.0,900.0,0.0,1,305.0,1
258,258,0.2590578507190443,0.3,1.0,1.0,482.0,587.0,1.0,1,561.0,1
259,259,-0.36922775355879334,-0.4,1.0,0.0,410.0,976.0,0.0,0,774.0,1
260,260,0.07610879385064784,0.1,1.0,1.0,292.0,543.0,0.0,0,4165.0,0
261,261,-0.2555569876022393,-0.3,0.0,1.0,472.0,795.0,1.0,0,303.0,1
262,262,-0.6255069207888448,-0.6,1.0,0.0,413.0,566.0,0.0,0,261.0,1
263,263,0.3406182003367456,0.3,0.0,0.0,472.0,848.0,0.0,1,50.0,1
264,264,-0.5684268631492055,-0.6,1.0,0.0,372.0,599.0,0.0,0,289.0,1
265,265,-0.42606175977652877,-0.4,0.0,1.0,436.0,674.0,1.0,0,560.0,1
266,266,-0.568053029472771,-0.6,0.0,1.0,291.0,582.0,1.0,0,227.0,1
267,267,0.5983321284225346,0.6,0.0,0.0,453.0,946.0,0.0,1,211.0,1
268,268,-0.8688559536773864,-0.9,0.0,1.0,387.0,708.0,1.0,0,245.0,1
269,269,0.12220700909061188,0.1,0.0,0.0,372.0,535.0,0.0,1,843.0,1
270,270,0.5491026280278396,0.5,0.0,0.0,395.0,586.0,0.0,1,559.0,1
271,271,0.8747586785852507,0.9,1.0,1.0,479.0,535.0,1.0,1,346.0,1
272,272,0.3514404369830516,0.4,1.0,1.0,405.0,827.0,1.0,1,268.0,1
273,273,0.08615227754687793,0.1,0.0,0.0,325.0,902.0,0.0,1,503.0,1
274,274,0.027311965778368696,0.0,1.0,1.0,334.0,564.0,1.0,1,2212.0,1
275,275,-0.5108065354424227,-0.5,1.0,0.0,301.0,890.0,0.0,0,769.0,1
276,276,0.33274047108785665,0.3,0.0,0.0,308.0,676.0,0.0,1,486.0,1
277,277,-0.4241049108376867,-0.4,0.0,1.0,412.0,662.0,1.0,0,516.0,1
278,278,-0.894431851480774,-0.9,1.0,0.0,488.0,840.0,0.0,0,152.0,1
279,279,0.4203678012269346,0.4,0.0,0.0,343.0,834.0,0.0,1,443.0,1
280,280,-0.45850695816656367,-0.5,1.0,0.0,367.0,927.0,0.0,0,256.0,1
281,281,-0.8526207357655283,-0.9,0.0,1.0,495.0,787.0,1.0,0,228.0,1
282,282,0.5776167358923808,0.6,1.0,1.0,377.0,786.0,1.0,1,357.0,1
283,283,-0.6816663885353932,-0.7,1.0,0.0,429.0,644.0,0.0,0,307.0,1
284,284,-0.6703761568719735,-0.7,0.0,1.0,365.0,839.0,1.0,0,336.0,1
285,285,0.17130520579977515,0.2,1.0,1.0,287.0,809.0,1.0,1,3714.0,1
286,286,-0.35815750332675056,-0.4,0.0,1.0,300.0,947.0,1.0,0,513.0,1
287,287,-0.8028499588514281,-0.8,1.0,0.0,291.0,613.0,0.0,0,516.0,1
288,288,0.3059459420825116,0.3,1.0,1.0,409.0,523.0,1.0,1,908.0,1
289,289,-0.4320150084311461,-0.4,1.0,0.0,462.0,817.0,0.0,0,101.0,1
290,290,-0.11713887990743732,-0.1,0.0,1.0,389.0,723.0,1.0,0,398.0,1
291,291,0.21880702794548157,0.2,0.0,0.0,318.0,511.0,0.0,1,621.0,1
292,292,0.8471358201853371,0.8,1.0,1.0,454.0,567.0,1.0,1,289.0,1
293,293,-0.43489066529011394,-0.4,0.0,1.0,312.0,867.0,1.0,0,321.0,1
294,294,0.3811297430782036,0.4,0.0,0.0,442.0,614.0,0.0,1,234.0,1
295,295,0.5069357571714147,0.5,0.0,0.0,433.0,809.0,0.0,1,158.0,1
296,296,0.8301996424421808,0.8,1.0,1.0,490.0,616.0,1.0,1,284.0,1
297,297,-0.07000771372096715,-0.1,0.0,1.0,354.0,553.0,1.0,0,453.0,1
298,298,-0.04542358204867747,-0.0,1.0,0.0,397.0,602.0,0.0,0,2661.0,1
299,299,0.5034871393487873,0.5,1.0,1.0,432.0,714.0,1.0,1,334.0,1
300,300,-0.8709461317524643,-0.9,1.0,0.0,476.0,717.0,0.0,0,257.0,1
301,301,-0.7620633313329614,-0.8,0.0,1.0,328.0,693.0,1.0,0,279.0,1
302,302,-0.19713761506023886,-0.2,0.0,1.0,331.0,937.0,1.0,0,462.0,1
303,303,-0.488295080675017,-0.5,1.0,0.0,311.0,965.0,0.0,0,184.0,1
304,304,-0.6609318729606154,-0.7,0.0,1.0,318.0,533.0,1.0,0,369.0,1
305,305,-0.5338258145461345,-0.5,0.0,1.0,440.0,760.0,1.0,0,930.0,1
306,306,-0.7417822978102937,-0.7,0.0,1.0,453.0,735.0,1.0,0,222.0,1
307,307,-0.6231189612226102,-0.6,0.0,1.0,262.0,670.0,1.0,0,278.0,1
308,308,0.7953170344522728,0.8,1.0,1.0,433.0,992.0,1.0,1,145.0,1
309,309,-0.675348660781036,-0.7,0.0,1.0,407.0,787.0,1.0,0,396.0,1
310,310,0.22305794833488501,0.2,0.0,0.0,365.0,661.0,0.0,1,2024.0,1
311,311,-0.018073758779877047,-0.0,1.0,0.0,318.0,767.0,0.0,0,3915.0,1
312,312,-0.5422886045347874,-0.5,1.0,0.0,396.0,949.0,0.0,0,365.0,1
313,313,0.21296722014732572,0.2,1.0,1.0,406.0,785.0,1.0,1,859.0,1
314,314,-0.011131818252274495,-0.0,0.0,1.0,315.0,625.0,0.0,1,4060.0,0
315,315,0.24760016678291386,0.2,1.0,1.0,329.0,506.0,1.0,1,625.0,1
316,316,0.4623494561332978,0.5,0.0,0.0,467.0,571.0,0.0,1,642.0,1
317,317,0.7501452536770558,0.8,1.0,1.0,419.0,648.0,1.0,1,313.0,1
318,318,-0.34762516926593345,-0.3,0.0,1.0,427.0,540.0,1.0,0,473.0,1
319,319,-0.45232864260481004,-0.5,1.0,0.0,352.0,726.0,0.0,0,162.0,1
320,320,-0.5466902755471028,-0.5,1.0,0.0,452.0,833.0,0.0,0,495.0,1
321,321,0.5693717040505956,0.6,1.0,1.0,466.0,687.0,1.0,1,527.0,1
322,322,0.802042485853037,0.8,0.0,0.0,456.0,586.0,0.0,1,228.0,1
323,323,0.499731275781058,0.5,1.0,1.0,421.0,914.0,1.0,1,435.0,1
324,324,-0.8350531247440789,-0.8,1.0,0.0,403.0,665.0,0.0,0,382.0,1
325,325,0.5056150887826888,0.5,1.0,1.0,399.0,711.0,1.0,1,280.0,1
326,326,-0.3055710729560992,-0.3,1.0,0.0,413.0,626.0,0.0,0,401.0,1
327,327,-0.2330404892723006,-0.2,1.0,0.0,327.0,982.0,0.0,0,411.0,1
328,328,-0.03910704072698501,-0.0,0.0,1.0,489.0,913.0,0.0,1,1388.0,0
329,329,-0.21905671853871778,-0.2,0.0,1.0,284.0,699.0,1.0,0,617.0,1
330,330,0.6338096879821192,0.6,1.0,1.0,495.0,854.0,1.0,1,371.0,1
331,331,0.17677740420561838,0.2,1.0,1.0,322.0,763.0,1.0,1,865.0,1
332,332,0.20278892064339316,0.2,1.0,1.0,369.0,753.0,1.0,1,678.0,1
333,333,0.2399727570233091,0.2,1.0,1.0,391.0,691.0,1.0,1,848.0,1
334,334,-0.023087710728645128,-0.0,0.0,1.0,391.0,797.0,0.0,1,1012.0,0
335,335,0.7950628921976949,0.8,1.0,1.0,267.0,836.0,1.0,1,297.0,1
336,336,0.8571567120191058,0.9,1.0,1.0,498.0,709.0,1.0,1,373.0,1
337,337,-0.2501004330858072,-0.3,1.0,0.0,319.0,562.0,0.0,0,729.0,1
338,338,0.827793370605704,0.8,1.0,1.0,403.0,561.0,1.0,1,266.0,1
339,339,0.7145886847945621,0.7,0.0,0.0,364.0,680.0,0.0,1,326.0,1
340,340,-0.8142384962561153,-0.8,0.0,1.0,436.0,841.0,1.0,0,123.0,1
341,341,-0.14527554173819002,-0.1,1.0,0.0,404.0,581.0,0.0,0,635.0,1
342,342,0.6575458962279234,0.7,0.0,0.0,361.0,780.0,0.0,1,649.0,1
343,343,-0.852802361602876,-0.9,1.0,0.0,495.0,824.0,0.0,0,221.0,1
344,344,-0.7024494850651088,-0.7,1.0,0.0,268.0,746.0,0.0,0,106.0,1
345,345,0.7504130396196981,0.8,1.0,1.0,342.0,752.0,1.0,1,246.0,1
346,346,-0.7339508716662987,-0.7,0.0,1.0,479.0,802.0,1.0,0,249.0,1
347,347,-0.7804702024626644,-0.8,0.0,1.0,309.0,827.0,1.0,0,244.0,1
348,348,-0.2539748173358951,-0.3,0.0,1.0,314.0,693.0,1.0,0,923.0,1
349,349,-0.6707044332527285,-0.7,1.0,0.0,482.0,606.0,0.0,0,362.0,1
350,350,0.029961921931374924,0.0,0.0,0.0,497.0,613.0,0.0,1,1270.0,1
351,351,-0.29054856464913326,-0.3,1.0,0.0,307.0,892.0,0.0,0,361.0,1
352,352,-0.7835148974890875,-0.8,0.0,1.0,419.0,983.0,1.0,0,358.0,1
353,353,-0.5867304037916312,-0.6,1.0,0.0,467.0,746.0,0.0,0,197.0,1
354,354,0.14407385163490394,0.1,1.0,1.0,424.0,965.0,1.0,1,621.0,1
355,355,0.12325666125054113,0.1,1.0,1.0,296.0,963.0,0.0,0,1741.0,0
356,356,0.5379485526324673,0.5,1.0,1.0,470.0,992.0,1.0,1,498.0,1
357,357,0.002360155173483758,0.0,0.0,0.0,346.0,511.0,0.0,1,4143.0,1
358,358,0.36648889307128585,0.4,1.0,1.0,408.0,908.0,1.0,1,344.0,1
359,359,0.029127253749969162,0.0,0.0,0.0,259.0,587.0,0.0,1,2424.0,1
360,360,-0.4070598816722443,-0.4,1.0,0.0,493.0,529.0,0.0,0,638.0,1
361,361,0.47526318638919907,0.5,1.0,1.0,492.0,652.0,1.0,1,406.0,1
362,362,-0.6165480288651872,-0.6,0.0,1.0,261.0,869.0,1.0,0,230.0,1
363,363,0.5729835167335572,0.6,0.0,0.0,368.0,535.0,0.0,1,367.0,1
364,364,0.43351853505850235,0.4,0.0,0.0,315.0,555.0,0.0,1,360.0,1
365,365,-0.09409825021422924,-0.1,1.0,0.0,298.0,899.0,0.0,0,1343.0,1
366,366,0.7177795072519154,0.7,1.0,1.0,432.0,845.0,1.0,1,163.0,1
367,367,-0.11964093755103877,-0.1,1.0,0.0,466.0,512.0,0.0,0,562.0,1
368,368,0.6718973591825638,0.7,1.0,1.0,495.0,799.0,1.0,1,176.0,1
369,369,0.31179023612349444,0.3,0.0,0.0,371.0,801.0,0.0,1,258.0,1
370,370,0.06795023760111985,0.1,1.0,1.0,383.0,912.0,1.0,1,1245.0,1
371,371,-0.0035025526381328165,-0.0,1.0,0.0,486.0,930.0,0.0,0,3584.0,1
372,372,-0.3207696905511316,-0.3,0.0,1.0,332.0,531.0,1.0,0,637.0,1
373,373,-0.6974708986962798,-0.7,0.0,1.0,251.0,545.0,1.0,0,594.0,1
374,374,0.3986354997312348,0.4,1.0,1.0,285.0,832.0,1.0,1,273.0,1
375,375,-0.054631062399157826,-0.1,1.0,0.0,363.0,836.0,0.0,0,911.0,1
376,376,-0.6057340121162909,-0.6,0.0,1.0,384.0,631.0,1.0,0,565.0,1
377,377,0.8215048875294616,0.8,1.0,1.0,447.0,506.0,1.0,1,387.0,1
378,378,-0.7297165230623552,-0.7,0.0,1.0,471.0,860.0,1.0,0,229.0,1
379,379,-0.8612214746535026,-0.9,1.0,0.0,330.0,738.0,0.0,0,162.0,1
380,380,-0.5560482537378202,-0.6,0.0,1.0,359.0,517.0,1.0,0,384.0,1
381,381,0.4668662063873378,0.5,0.0,0.0,259.0,516.0,0.0,1,425.0,1
382,382,0.10155696632992062,0.1,0.0,0.0,385.0,964.0,0.0,1,221.0,1
383,383,0.6850242632656917,0.7,0.0,0.0,287.0,944.0,0.0,1,299.0,1
384,384,0.29337717295116905,0.3,0.0,0.0,412.0,763.0,0.0,1,295.0,1
385,385,0.7224214380947925,0.7,1.0,1.0,373.0,864.0,1.0,1,383.0,1
386,386,0.1079586579287578,0.1,0.0,0.0,252.0,684.0,0.0,1,1284.0,1
387,387,0.048349421383575675,0.0,0.0,0.0,475.0,705.0,0.0,1,3820.0,1
388,388,-0.5351325154506701,-0.5,1.0,0.0,359.0,993.0,0.0,0,468.0,1
389,389,0.7684178505539606,0.8,1.0,1.0,364.0,533.0,1.0,1,233.0,1
390,390,0.07378729720407073,0.1,0.0,0.0,290.0,572.0,0.0,1,1898.0,1
391,391,-0.8947705655027973,-0.9,0.0,1.0,396.0,840.0,1.0,0,84.0,1
392,392,-0.727878659412333,-0.7,0.0,1.0,301.0,532.0,1.0,0,357.0,1
393,393,-0.6355691287541503,-0.6,0.0,1.0,489.0,788.0,1.0,0,243.0,1
394,394,0.07943922230351907,0.1,0.0,0.0,287.0,955.0,0.0,1,558.0,1
395,395,0.6404003450637544,0.6,1.0,1.0,280.0,741.0,1.0,1,309.0,1
396,396,0.8673552656695726,0.9,1.0,1.0,308.0,924.0,1.0,1,188.0,1
397,397,-0.8189129730942137,-0.8,1.0,0.0,354.0,773.0,0.0,0,163.0,1
398,398,-0.5770373458803029,-0.6,1.0,0.0,288.0,789.0,0.0,0,343.0,1
399,399,0.4833658982703971,0.5,1.0,1.0,360.0,743.0,1.0,1,237.0,1
400,400,0.8522039834734557,0.9,1.0,1.0,461.0,893.0,1.0,1,296.0,1
401,401,-0.0070174437002689105,-0.0,0.0,1.0,391.0,500.0,0.0,1,2569.0,0
402,402,0.3725132243508583,0.4,1.0,1.0,488.0,510.0,1.0,1,502.0,1
403,403,0.17732758723063136,0.2,1.0,1.0,251.0,859.0,1.0,1,250.0,1
404,404,0.32256969237474176,0.3,0.0,0.0,276.0,984.0,0.0,1,520.0,1
405,405,-0.784694922615437,-0.8,1.0,0.0,269.0,617.0,0.0,0,234.0,1
406,406,-0.19305670563322497,-0.2,0.0,1.0,419.0,970.0,1.0,0,651.0,1
407,407,0.5114505975635056,0.5,0.0,0.0,451.0,506.0,0.0,1,453.0,1
408,408,0.3576867983571058,0.4,1.0,1.0,269.0,567.0,1.0,1,344.0,1
409,409,0.3433774031844349,0.3,0.0,0.0,340.0,699.0,0.0,1,401.0,1
410,410,-0.7697798120653738,-0.8,1.0,0.0,432.0,666.0,0.0,0,42.0,1
411,411,-0.33018043712671263,-0.3,0.0,1.0,309.0,925.0,1.0,0,256.0,1
412,412,0.4253238659552395,0.4,0.0,0.0,486.0,744.0,0.0,1,430.0,1
413,413,-0.1476092986809755,-0.1,0.0,1.0,478.0,806.0,1.0,0,746.0,1
414,414,0.5565972221313792,0.6,0.0,0.0,440.0,860.0,0.0,1,280.0,1
415,415,-0.12059752977219662,-0.1,0.0,1.0,295.0,861.0,1.0,0,1484.0,1
416,416,-0.8320896248111793,-0.8,1.0,0.0,482.0,571.0,0.0,0,387.0,1
417,417,-0.835067318996107,-0.8,0.0,1.0,359.0,691.0,1.0,0,220.0,1
418,418,-0.07299999557320047,-0.1,0.0,1.0,419.0,835.0,1.0,0,1016.0,1
419,419,0.4851813341466783,0.5,0.0,0.0,294.0,821.0,0.0,1,435.0,1
420,420,-0.5822443734126888,-0.6,1.0,0.0,494.0,738.0,0.0,0,288.0,1
421,421,0.10116225603673634,0.1,0.0,0.0,472.0,565.0,0.0,1,1793.0,1
422,422,-0.8310250759333889,-0.8,0.0,1.0,443.0,628.0,1.0,0,349.0,1
423,423,0.3192108938911099,0.3,1.0,1.0,470.0,732.0,1.0,1,488.0,1
424,424,-0.8607418273323856,-0.9,0.0,1.0,295.0,970.0,1.0,0,215.0,1
425,425,0.5938255568877567,0.6,0.0,0.0,369.0,969.0,0.0,1,42.0,1
426,426,0.362417301417688,0.4,0.0,0.0,289.0,578.0,0.0,1,213.0,1
427,427,-0.6224235511422906,-0.6,0.0,1.0,289.0,815.0,1.0,0,266.0,1
428,428,0.6385356457964787,0.6,1.0,1.0,345.0,716.0,1.0,1,419.0,1
429,429,0.2190880520662043,0.2,1.0,1.0,359.0,712.0,1.0,1,969.0,1
430,430,-0.005331182812852608,-0.0,0.0,1.0,294.0,941.0,0.0,1,1715.0,0
431,431,-0.07868317318346407,-0.1,1.0,0.0,361.0,525.0,1.0,1,4114.0,0
432,432,0.056291478605767886,0.1,1.0,1.0,494.0,719.0,1.0,1,3787.0,1
433,433,0.4285329592512429,0.4,1.0,1.0,389.0,884.0,1.0,1,197.0,1
434,434,0.4213145139727231,0.4,0.0,0.0,464.0,671.0,0.0,1,495.0,1
435,435,0.4616679116148735,0.5,0.0,0.0,356.0,718.0,0.0,1,296.0,1
436,436,0.16260821684995996,0.2,0.0,0.0,352.0,905.0,0.0,1,753.0,1
437,437,-0.8347583561106191,-0.8,0.0,1.0,288.0,733.0,1.0,0,319.0,1
438,438,-0.3497145981765444,-0.3,1.0,0.0,487.0,533.0,0.0,0,410.0,1
439,439,-0.5233246397039472,-0.5,1.0,0.0,439.0,879.0,0.0,0,362.0,1
440,440,0.10504708336293789,0.1,0.0,0.0,334.0,705.0,0.0,1,2161.0,1
441,441,-0.29142146250579837,-0.3,1.0,0.0,357.0,922.0,0.0,0,801.0,1
442,442,0.014225768316737053,0.0,0.0,0.0,359.0,811.0,1.0,0,3830.0,0
443,443,-0.4744407531033993,-0.5,1.0,0.0,250.0,811.0,0.0,0,159.0,1
444,444,0.03156738342069898,0.0,0.0,0.0,359.0,933.0,0.0,1,48.0,1
445,445,0.7102037864471508,0.7,0.0,0.0,394.0,695.0,0.0,1,491.0,1
446,446,-0.6216142588449818,-0.6,0.0,1.0,413.0,913.0,1.0,0,634.0,1
447,447,-0.6485107715918793,-0.6,1.0,0.0,365.0,830.0,0.0,0,445.0,1
448,448,-0.4365574534850058,-0.4,0.0,1.0,278.0,674.0,1.0,0,328.0,1
449,449,0.8531915180455086,0.9,0.0,0.0,307.0,884.0,0.0,1,89.0,1
450,450,-0.3762648177061785,-0.4,1.0,0.0,350.0,731.0,0.0,0,429.0,1
451,451,0.6354078227567824,0.6,0.0,0.0,324.0,804.0,0.0,1,172.0,1
452,452,0.8784678488076797,0.9,1.0,1.0,465.0,712.0,1.0,1,213.0,1
453,453,-0.31430447316591636,-0.3,0.0,1.0,389.0,636.0,1.0,0,875.0,1
454,454,0.3721979285948839,0.4,1.0,1.0,464.0,899.0,1.0,1,127.0,1
455,455,0.8711728121774637,0.9,1.0,1.0,436.0,941.0,1.0,1,283.0,1
456,456,-0.35984759436892344,-0.4,1.0,0.0,308.0,848.0,0.0,0,414.0,1
457,457,0.19820987350868113,0.2,0.0,0.0,480.0,733.0,0.0,1,367.0,1
458,458,0.6184807706930732,0.6,0.0,0.0,437.0,667.0,0.0,1,276.0,1
459,459,0.11453806343121331,0.1,1.0,1.0,273.0,610.0,1.0,1,1257.0,1
460,460,0.8605945803120884,0.9,0.0,0.0,338.0,511.0,0.0,1,331.0,1
461,461,-0.7637453632164779,-0.8,0.0,1.0,481.0,515.0,1.0,0,484.0,1
462,462,-0.15330017547909558,-0.2,1.0,0.0,307.0,981.0,0.0,0,272.0,1
463,463,-0.5155387205620672,-0.5,0.0,1.0,451.0,603.0,1.0,0,576.0,1
464,464,-0.6893431375784593,-0.7,0.0,1.0,395.0,990.0,1.0,0,225.0,1
465,465,-0.07685181577755373,-0.1,1.0,0.0,346.0,598.0,0.0,0,1576.0,1
466,466,-0.4259884937299691,-0.4,0.0,1.0,438.0,898.0,1.0,0,484.0,1
467,467,0.5269943267372997,0.5,0.0,0.0,398.0,617.0,0.0,1,395.0,1
468,468,0.1115041621365046,0.1,0.0,0.0,481.0,722.0,0.0,1,697.0,1
469,469,-0.6004732244879663,-0.6,0.0,1.0,286.0,595.0,1.0,0,299.0,1
470,470,0.1331264431526652,0.1,0.0,0.0,336.0,943.0,0.0,1,631.0,1
471,471,-0.05038232927599284,-0.1,1.0,0.0,350.0,805.0,0.0,0,705.0,1
472,472,0.27695205158941294,0.3,0.0,0.0,266.0,972.0,0.0,1,372.0,1
473,473,0.6288631094775038,0.6,0.0,0.0,305.0,552.0,0.0,1,403.0,1
474,474,0.0742535481514287,0.1,0.0,0.0,377.0,680.0,0.0,1,1323.0,1
475,475,-0.4829025698036096,-0.5,1.0,0.0,310.0,926.0,0.0,0,334.0,1
476,476,-0.8787950814400451,-0.9,0.0,1.0,351.0,967.0,1.0,0,182.0,1
477,477,0.14256783159116282,0.1,1.0,1.0,423.0,579.0,1.0,1,728.0,1
478,478,-0.10150186457504462,-0.1,0.0,1.0,276.0,934.0,1.0,0,340.0,1
479,479,-0.3570651345372954,-0.4,1.0,0.0,481.0,783.0,0.0,0,326.0,1
480,480,-0.1515311520334801,-0.2,0.0,1.0,468.0,953.0,1.0,0,479.0,1
481,481,0.35068107236415325,0.4,0.0,0.0,430.0,744.0,0.0,1,166.0,1
482,482,-0.5581401196982879,-0.6,1.0,0.0,366.0,624.0,0.0,0,250.0,1
483,483,0.5321602896545655,0.5,0.0,0.0,465.0,829.0,0.0,1,186.0,1
484,484,0.0883255304789009,0.1,0.0,0.0,339.0,532.0,0.0,1,669.0,1
485,485,0.42345340339469784,0.4,0.0,0.0,357.0,881.0,0.0,1,122.0,1
486,486,-0.6747275012863954,-0.7,0.0,1.0,305.0,610.0,1.0,0,625.0,1
487,487,-0.42215736297794915,-0.4,1.0,0.0,373.0,703.0,0.0,0,354.0,1
488,488,-0.44435267605488965,-0.4,1.0,0.0,263.0,766.0,0.0,0,381.0,1
489,489,-0.3854117757019928,-0.4,1.0,0.0,443.0,628.0,0.0,0,359.0,1
490,490,-0.13483477865653426,-0.1,1.0,0.0,459.0,573.0,0.0,0,638.0,1
491,491,0.18728280263288444,0.2,1.0,1.0,272.0,983.0,1.0,1,695.0,1
492,492,0.8643634386001778,0.9,0.0,0.0,309.0,981.0,0.0,1,210.0,1
493,493,-0.02254168174740334,-0.0,1.0,0.0,493.0,747.0,0.0,0,660.0,1
494,494,-0.8007332967869402,-0.8,1.0,0.0,452.0,890.0,0.0,0,168.0,1
495,495,-0.7940504332495921,-0.8,1.0,0.0,421.0,902.0,0.0,0,157.0,1
496,496,-0.2927198041917206,-0.3,0.0,1.0,380.0,933.0,1.0,0,737.0,1
497,497,0.41387987667733184,0.4,1.0,1.0,310.0,632.0,1.0,1,308.0,1
498,498,0.5824926530539926,0.6,0.0,0.0,307.0,576.0,0.0,1,497.0,1
499,499,0.2923353482643024,0.3,1.0,1.0,261.0,703.0,1.0,1,236.0,1
500,500,0.318759162099436,0.3,1.0,1.0,255.0,670.0,1.0,1,375.0,1
501,501,-0.6739239501231531,-0.7,1.0,0.0,471.0,620.0,0.0,0,349.0,1
502,502,0.1478513741493549,0.1,1.0,1.0,476.0,870.0,1.0,1,464.0,1
503,503,-0.7946403989237818,-0.8,1.0,0.0,324.0,549.0,0.0,0,157.0,1
504,504,-0.23945428854557482,-0.2,0.0,1.0,434.0,811.0,1.0,0,595.0,1
505,505,0.8508641328343677,0.9,0.0,0.0,280.0,888.0,0.0,1,232.0,1
506,506,-0.5974192276530098,-0.6,1.0,0.0,428.0,779.0,0.0,0,313.0,1
507,507,-0.8021626272355796,-0.8,0.0,1.0,452.0,940.0,1.0,0,218.0,1
508,508,-0.6948097901971031,-0.7,0.0,1.0,494.0,546.0,1.0,0,340.0,1
509,509,0.6270374977861034,0.6,1.0,1.0,347.0,834.0,1.0,1,429.0,1
510,510,-0.5992880819640298,-0.6,1.0,0.0,351.0,654.0,0.0,0,275.0,1
511,511,0.7651833395339968,0.8,1.0,1.0,371.0,750.0,1.0,1,189.0,1
512,512,-0.16946266437292912,-0.2,1.0,0.0,485.0,732.0,0.0,0,2073.0,1
513,513,-0.36903310779399623,-0.4,1.0,0.0,465.0,887.0,0.0,0,808.0,1
514,514,0.46948928945151736,0.5,0.0,0.0,483.0,699.0,0.0,1,298.0,1
515,515,0.5249374988992518,0.5,1.0,1.0,388.0,779.0,1.0,1,393.0,1
516,516,-0.3884427668011834,-0.4,1.0,0.0,374.0,762.0,0.0,0,244.0,1
517,517,0.18489702492582916,0.2,0.0,0.0,295.0,942.0,0.0,1,173.0,1
518,518,0.7144426742036639,0.7,0.0,0.0,372.0,756.0,0.0,1,112.0,1
519,519,0.5278995578955795,0.5,0.0,0.0,424.0,698.0,0.0,1,298.0,1
520,520,-0.009152986872431934,-0.0,1.0,0.0,471.0,993.0,0.0,0,1036.0,1
521,521,0.77654397405313,0.8,0.0,0.0,355.0,611.0,0.0,1,494.0,1
522,522,-0.014909985982558549,-0.0,1.0,0.0,497.0,788.0,0.0,0,1165.0,1
523,523,-0.628112271348622,-0.6,1.0,0.0,344.0,702.0,0.0,0,454.0,1
524,524,-0.4620802695566552,-0.5,0.0,1.0,378.0,872.0,1.0,0,910.0,1
525,525,-0.10613284244068788,-0.1,1.0,0.0,324.0,990.0,0.0,0,676.0,1
526,526,-0.10261606786794564,-0.1,0.0,1.0,317.0,660.0,1.0,0,633.0,1
527,527,0.8884630356879096,0.9,0.0,0.0,458.0,520.0,0.0,1,282.0,1
528,528,0.08671532013944427,0.1,1.0,1.0,488.0,800.0,1.0,1,1982.0,1
529,529,-0.12205775047250345,-0.1,0.0,1.0,340.0,624.0,1.0,0,1356.0,1
530,530,-0.22158338680983392,-0.2,1.0,0.0,496.0,786.0,0.0,0,208.0,1
531,531,-0.5162651873215427,-0.5,0.0,1.0,302.0,705.0,1.0,0,333.0,1
532,532,0.5015661787375386,0.5,1.0,1.0,435.0,550.0,1.0,1,325.0,1
533,533,0.010912107022461592,0.0,0.0,0.0,376.0,837.0,0.0,1,3787.0,1
534,534,-0.638513508386551,-0.6,0.0,1.0,461.0,596.0,1.0,0,193.0,1
535,535,-0.04233610417353961,-0.0,0.0,1.0,397.0,814.0,0.0,1,849.0,0
536,536,0.7317384551862828,0.7,0.0,0.0,333.0,530.0,0.0,1,257.0,1
537,537,-0.7534699801105887,-0.8,1.0,0.0,293.0,753.0,0.0,0,274.0,1
538,538,-0.8844179377895637,-0.9,1.0,0.0,494.0,901.0,0.0,0,135.0,1
539,539,0.7914554536863759,0.8,1.0,1.0,379.0,876.0,1.0,1,245.0,1
540,540,-0.41800352596231255,-0.4,1.0,0.0,499.0,517.0,0.0,0,354.0,1
541,541,0.5440109746228524,0.5,0.0,0.0,366.0,632.0,0.0,1,382.0,1
542,542,0.1544295934241372,0.2,0.0,0.0,289.0,929.0,0.0,1,232.0,1
543,543,0.8453278295219352,0.8,0.0,0.0,272.0,574.0,0.0,1,554.0,1
544,544,-0.5256516418808326,-0.5,1.0,0.0,346.0,541.0,0.0,0,233.0,1
545,545,-0.3292115821729279,-0.3,0.0,1.0,268.0,561.0,1.0,0,1311.0,1
546,546,-0.5971766090982492,-0.6,0.0,1.0,283.0,676.0,1.0,0,491.0,1
547,547,0.1185255151205934,0.1,0.0,0.0,273.0,969.0,0.0,1,68.0,1
548,548,-0.12418696777581328,-0.1,0.0,1.0,333.0,758.0,1.0,0,749.0,1
549,549,-0.23662308864028292,-0.2,0.0,1.0,422.0,917.0,1.0,0,531.0,1
550,550,0.3908178721609771,0.4,1.0,1.0,291.0,553.0,1.0,1,396.0,1
551,551,0.4778030703807993,0.5,1.0,1.0,258.0,911.0,1.0,1,421.0,1
552,552,-0.04470853833651045,-0.0,0.0,1.0,409.0,717.0,1.0,0,704.0,1
553,553,0.2636858981993918,0.3,0.0,0.0,363.0,658.0,0.0,1,359.0,1
554,554,0.30574186589807206,0.3,1.0,1.0,459.0,742.0,1.0,1,399.0,1
555,555,0.2954303430940973,0.3,1.0,1.0,283.0,675.0,1.0,1,722.0,1
556,556,0.55551040776761,0.6,1.0,1.0,493.0,962.0,1.0,1,135.0,1
557,557,0.17089815810609899,0.2,0.0,0.0,279.0,671.0,0.0,1,370.0,1
558,558,-0.4709099946348106,-0.5,0.0,1.0,477.0,818.0,1.0,0,265.0,1
559,559,-0.14501301340668293,-0.1,0.0,1.0,358.0,700.0,1.0,0,222.0,1
560,560,-0.8198373653889559,-0.8,1.0,0.0,388.0,866.0,0.0,0,556.0,1
561,561,-0.8920255989463293,-0.9,1.0,0.0,411.0,523.0,0.0,0,226.0,1
562,562,0.4271520247505679,0.4,0.0,0.0,439.0,602.0,0.0,1,429.0,1
563,563,-0.5149591308217678,-0.5,0.0,1.0,367.0,913.0,1.0,0,260.0,1
564,564,0.5233474138472166,0.5,1.0,1.0,258.0,823.0,1.0,1,139.0,1
565,565,0.0007026599316729554,0.0,1.0,1.0,271.0,852.0,0.0,0,1277.0,0
566,566,-0.5821712165612187,-0.6,0.0,1.0,332.0,518.0,1.0,0,410.0,1
567,567,-0.5437996267121528,-0.5,0.0,1.0,346.0,926.0,1.0,0,198.0,1
568,568,-0.08288201723019828,-0.1,1.0,0.0,339.0,597.0,0.0,0,1024.0,1
569,569,0.5102854801431255,0.5,0.0,0.0,472.0,519.0,0.0,1,489.0,1
570,570,0.49728404365462076,0.5,0.0,0.0,336.0,649.0,0.0,1,245.0,1
571,571,0.1747464112110516,0.2,1.0,1.0,300.0,839.0,1.0,1,1731.0,1
572,572,0.3960467287728343,0.4,0.0,0.0,412.0,835.0,0.0,1,333.0,1
573,573,0.650160009910666,0.7,0.0,0.0,444.0,955.0,0.0,1,111.0,1
574,574,-0.6499084345397395,-0.6,1.0,0.0,261.0,583.0,0.0,0,366.0,1
575,575,0.2710771986118762,0.3,0.0,0.0,441.0,996.0,0.0,1,553.0,1
576,576,-0.7461997836391037,-0.7,1.0,0.0,312.0,633.0,0.0,0,305.0,1
577,577,0.1677121476530844,0.2,0.0,0.0,484.0,997.0,0.0,1,839.0,1
578,578,-0.8510207355438117,-0.9,1.0,0.0,466.0,742.0,0.0,0,162.0,1
579,579,-0.4272276458456037,-0.4,1.0,0.0,397.0,593.0,0.0,0,660.0,1
580,580,0.36086310317447035,0.4,1.0,1.0,272.0,528.0,1.0,1,600.0,1
581,581,0.4135603767381756,0.4,0.0,0.0,293.0,621.0,0.0,1,326.0,1
582,582,0.734322537201214,0.7,1.0,1.0,296.0,841.0,1.0,1,163.0,1
583,583,0.34945842624015844,0.3,1.0,1.0,327.0,647.0,1.0,1,576.0,1
584,584,0.3970785151654962,0.4,0.0,0.0,260.0,562.0,0.0,1,498.0,1
585,585,0.5894787388187838,0.6,1.0,1.0,442.0,792.0,1.0,1,206.0,1
586,586,0.8827337323815793,0.9,1.0,1.0,480.0,900.0,1.0,1,280.0,1
587,587,-0.5136856123194621,-0.5,0.0,1.0,479.0,827.0,1.0,0,274.0,1
588,588,-0.04021389719878887,-0.0,0.0,1.0,478.0,565.0,1.0,0,2397.0,1
589,589,-0.10654787239121244,-0.1,1.0,0.0,492.0,940.0,0.0,0,648.0,1
590,590,0.6722714073907071,0.7,1.0,1.0,374.0,848.0,1.0,1,258.0,1
591,591,-0.37894373407339543,-0.4,0.0,1.0,442.0,963.0,1.0,0,255.0,1
592,592,-0.5037961081374991,-0.5,1.0,0.0,324.0,665.0,0.0,0,481.0,1
593,593,-0.8848427034731959,-0.9,1.0,0.0,486.0,795.0,0.0,0,299.0,1
594,594,0.7253495348437423,0.7,0.0,0.0,322.0,907.0,0.0,1,131.0,1
595,595,0.5511161617988937,0.6,1.0,1.0,353.0,954.0,1.0,1,573.0,1
596,596,0.6321566126593224,0.6,1.0,1.0,422.0,504.0,1.0,1,334.0,1
597,597,-0.40781040651728445,-0.4,0.0,1.0,251.0,951.0,1.0,0,288.0,1
598,598,-0.7028530889364341,-0.7,1.0,0.0,347.0,549.0,0.0,0,574.0,1
599,599,0.35657472666905476,0.4,1.0,1.0,283.0,691.0,1.0,1,756.0,1
600,600,-0.6105468362402036,-0.6,0.0,1.0,355.0,776.0,1.0,0,299.0,1
601,601,-0.041526520999852545,-0.0,0.0,1.0,318.0,600.0,0.0,1,1032.0,0
602,602,-0.18107276418915919,-0.2,0.0,1.0,349.0,904.0,1.0,0,687.0,1
603,603,-0.4437447653551049,-0.4,1.0,0.0,372.0,526.0,0.0,0,662.0,1
604,604,0.013490331626729746,0.0,1.0,1.0,307.0,921.0,0.0,0,2082.0,0
605,605,-0.4876541511447748,-0.5,1.0,0.0,446.0,891.0,0.0,0,583.0,1
606,606,-0.3798750968078971,-0.4,1.0,0.0,499.0,866.0,0.0,0,605.0,1
607,607,0.43480038714947533,0.4,0.0,0.0,328.0,977.0,0.0,1,315.0,1
608,608,0.7452763005283766,0.7,1.0,1.0,332.0,887.0,1.0,1,281.0,1
609,609,-0.4468579805963883,-0.4,1.0,0.0,461.0,867.0,0.0,0,822.0,1
610,610,0.7694376515135969,0.8,1.0,1.0,259.0,866.0,1.0,1,75.0,1
611,611,0.3355034571321177,0.3,1.0,1.0,284.0,796.0,1.0,1,250.0,1
612,612,-0.4849585588380257,-0.5,0.0,1.0,427.0,843.0,1.0,0,450.0,1
613,613,0.8092079078466744,0.8,1.0,1.0,391.0,760.0,1.0,1,299.0,1
614,614,-0.5898825530466785,-0.6,1.0,0.0,404.0,591.0,0.0,0,485.0,1
615,615,-0.2677105750195524,-0.3,0.0,1.0,355.0,932.0,1.0,0,1103.0,1
616,616,0.3231909394361373,0.3,0.0,0.0,381.0,572.0,0.0,1,567.0,1
617,617,0.21661457441563414,0.2,1.0,1.0,487.0,660.0,1.0,1,573.0,1
618,618,0.07413885974018353,0.1,0.0,0.0,298.0,713.0,0.0,1,649.0,1
619,619,0.7797869830002061,0.8,0.0,0.0,493.0,840.0,0.0,1,307.0,1
620,620,0.316143359534495,0.3,1.0,1.0,391.0,504.0,1.0,1,575.0,1
621,621,0.1229303945201331,0.1,1.0,1.0,409.0,773.0,1.0,1,1478.0,1
622,622,0.7475352161910297,0.7,1.0,1.0,269.0,879.0,1.0,1,222.0,1
623,623,-0.028873126151215178,-0.0,1.0,0.0,288.0,635.0,0.0,0,537.0,1
624,624,-0.44995926916272805,-0.4,1.0,0.0,467.0,575.0,0.0,0,428.0,1
625,625,0.7661661281736633,0.8,1.0,1.0,370.0,996.0,1.0,1,104.0,1
626,626,0.605211716748086,0.6,1.0,1.0,424.0,626.0,1.0,1,310.0,1
627,627,-0.8444928289325935,-0.8,1.0,0.0,439.0,754.0,0.0,0,337.0,1
628,628,0.6415799867364841,0.6,1.0,1.0,442.0,768.0,1.0,1,180.0,1
629,629,0.6917387543675056,0.7,1.0,1.0,459.0,784.0,1.0,1,137.0,1
630,630,-0.7717521837747604,-0.8,1.0,0.0,410.0,561.0,0.0,0,329.0,1
631,631,-0.8454620951870123,-0.8,1.0,0.0,320.0,961.0,0.0,0,159.0,1
632,632,0.6112825198340276,0.6,1.0,1.0,433.0,829.0,1.0,1,258.0,1
633,633,0.014987625236923874,0.0,1.0,1.0,388.0,797.0,0.0,0,2805.0,0
634,634,0.24924522431691953,0.2,0.0,0.0,407.0,900.0,0.0,1,173.0,1
635,635,0.003947484851744232,0.0,0.0,0.0,494.0,900.0,0.0,1,1466.0,1
636,636,-0.8443894770532123,-0.8,0.0,1.0,314.0,991.0,1.0,0,235.0,1
637,637,0.09581199675105168,0.1,0.0,0.0,495.0,798.0,0.0,1,177.0,1
638,638,-0.8143324001008059,-0.8,0.0,1.0,288.0,639.0,1.0,0,323.0,1
639,639,-0.528905749964701,-0.5,0.0,1.0,271.0,760.0,1.0,0,399.0,1
640,640,0.8519134967274221,0.9,0.0,0.0,403.0,704.0,0.0,1,203.0,1
641,641,-0.8967365700825074,-0.9,0.0,1.0,287.0,796.0,1.0,0,307.0,1
642,642,0.737495186236233,0.7,1.0,1.0,294.0,653.0,1.0,1,333.0,1
643,643,0.6633622757142329,0.7,1.0,1.0,292.0,956.0,1.0,1,252.0,1
644,644,0.11022159165676648,0.1,0.0,0.0,473.0,870.0,0.0,1,557.0,1
645,645,0.4179567519690598,0.4,0.0,0.0,275.0,559.0,0.0,1,386.0,1
646,646,-0.040502016944179764,-0.0,1.0,0.0,312.0,805.0,0.0,0,3873.0,1
647,647,0.2533445071445505,0.3,1.0,1.0,494.0,579.0,1.0,1,217.0,1
648,648,0.17046664473190887,0.2,1.0,1.0,254.0,912.0,1.0,1,944.0,1
649,649,0.6445073967769238,0.6,1.0,1.0,349.0,800.0,1.0,1,291.0,1
650,650,-0.2658371160637396,-0.3,0.0,1.0,417.0,628.0,1.0,0,615.0,1
651,651,-0.11651974917017527,-0.1,0.0,1.0,391.0,831.0,1.0,0,1708.0,1
652,652,0.6529447701925232,0.7,1.0,1.0,404.0,845.0,1.0,1,381.0,1
653,653,-0.044426216773464255,-0.0,0.0,1.0,383.0,834.0,0.0,1,1893.0,0
654,654,0.28908524560743565,0.3,1.0,1.0,422.0,584.0,1.0,1,354.0,1
655,655,0.7151999431607795,0.7,0.0,0.0,442.0,648.0,0.0,1,380.0,1
656,656,0.630778991072498,0.6,0.0,0.0,364.0,744.0,0.0,1,382.0,1
657,657,-0.26112368116443074,-0.3,0.0,1.0,312.0,782.0,1.0,0,466.0,1
658,658,0.46437824160916896,0.5,1.0,1.0,330.0,710.0,1.0,1,260.0,1
659,659,-0.10825063751989938,-0.1,0.0,1.0,414.0,607.0,1.0,0,799.0,1
660,660,-0.3862406609446002,-0.4,1.0,0.0,273.0,858.0,0.0,0,369.0,1
661,661,-0.3712696773789568,-0.4,0.0,1.0,463.0,512.0,1.0,0,645.0,1
662,662,0.4536958384130102,0.5,1.0,1.0,264.0,732.0,1.0,1,274.0,1
663,663,-0.625038766288978,-0.6,1.0,0.0,296.0,595.0,0.0,0,299.0,1
664,664,-0.6452411162692031,-0.6,0.0,1.0,374.0,893.0,1.0,0,193.0,1
665,665,0.860614798730002,0.9,1.0,1.0,292.0,581.0,1.0,1,357.0,1
666,666,0.8630693250066038,0.9,0.0,0.0,450.0,784.0,0.0,1,276.0,1
667,667,-0.740676545091365,-0.7,1.0,0.0,402.0,914.0,0.0,0,294.0,1
668,668,-0.09127319929136868,-0.1,0.0,1.0,407.0,920.0,1.0,0,113.0,1
669,669,-0.0017898337911342876,-0.0,0.0,1.0,396.0,668.0,0.0,1,1906.0,0
670,670,0.19507121040546738,0.2,1.0,1.0,397.0,659.0,1.0,1,494.0,1
671,671,0.875632062621135,0.9,0.0,0.0,259.0,821.0,0.0,1,160.0,1
672,672,0.38815880488266397,0.4,0.0,0.0,466.0,667.0,0.0,1,427.0,1
673,673,-0.14441743483903668,-0.1,1.0,0.0,466.0,982.0,0.0,0,202.0,1
674,674,0.2988854041474013,0.3,1.0,1.0,326.0,645.0,1.0,1,379.0,1
675,675,0.4304478614757362,0.4,1.0,1.0,328.0,641.0,1.0,1,321.0,1
676,676,0.48443783432515286,0.5,1.0,1.0,476.0,639.0,1.0,1,295.0,1
677,677,0.04712001663083265,0.0,1.0,1.0,332.0,532.0,1.0,1,4136.0,1
678,678,-0.49838387249880023,-0.5,1.0,0.0,365.0,627.0,0.0,0,368.0,1
679,679,-0.2542028031501222,-0.3,1.0,0.0,356.0,522.0,0.0,0,422.0,1
680,680,-0.440106966980035,-0.4,1.0,0.0,336.0,645.0,0.0,0,589.0,1
681,681,-0.6874938773257322,-0.7,1.0,0.0,359.0,656.0,0.0,0,195.0,1
682,682,-0.0760966045648177,-0.1,1.0,0.0,322.0,583.0,0.0,0,1345.0,1
683,683,-0.028964019433161625,-0.0,1.0,0.0,465.0,551.0,0.0,0,1484.0,1
684,684,-0.6007232152481655,-0.6,1.0,0.0,478.0,746.0,0.0,0,526.0,1
685,685,0.8332298075366927,0.8,1.0,1.0,278.0,561.0,1.0,1,301.0,1
686,686,-0.11111714269116924,-0.1,0.0,1.0,362.0,642.0,0.0,1,956.0,0
687,687,-0.4010376439778073,-0.4,1.0,0.0,317.0,591.0,0.0,0,392.0,1
688,688,0.5540793260925151,0.6,1.0,1.0,344.0,567.0,1.0,1,529.0,1
689,689,0.5764383307079194,0.6,0.0,0.0,356.0,569.0,0.0,1,355.0,1
690,690,-0.5597005669082102,-0.6,0.0,1.0,294.0,635.0,1.0,0,431.0,1
691,691,0.21421895487332498,0.2,0.0,0.0,331.0,812.0,0.0,1,377.0,1
692,692,0.4287785410596082,0.4,0.0,0.0,413.0,863.0,0.0,1,-16.0,1
693,693,0.3002042075873631,0.3,1.0,1.0,426.0,816.0,1.0,1,998.0,1
694,694,0.0723834254030562,0.1,0.0,0.0,385.0,658.0,0.0,1,1587.0,1
695,695,0.6723710300229094,0.7,0.0,0.0,293.0,921.0,0.0,1,166.0,1
696,696,0.7137162844722301,0.7,0.0,0.0,466.0,805.0,0.0,1,229.0,1
697,697,-0.33131668452345575,-0.3,1.0,0.0,361.0,988.0,0.0,0,171.0,1
698,698,0.6536874692566533,0.7,0.0,0.0,278.0,735.0,0.0,1,187.0,1
699,699,-0.13509716000771244,-0.1,1.0,0.0,453.0,852.0,0.0,0,585.0,1
700,700,0.4707388865288483,0.5,1.0,1.0,377.0,556.0,1.0,1,407.0,1
701,701,-0.16706781323232245,-0.2,0.0,1.0,356.0,735.0,1.0,0,2119.0,1
702,702,0.6650833132979971,0.7,1.0,1.0,404.0,789.0,1.0,1,417.0,1
703,703,-0.3814643680539198,-0.4,1.0,0.0,386.0,942.0,0.0,0,972.0,1
704,704,0.3432869938586963,0.3,0.0,0.0,309.0,588.0,0.0,1,253.0,1
705,705,-0.6793097089264333,-0.7,1.0,0.0,443.0,842.0,0.0,0,435.0,1
706,706,-0.7364854459293888,-0.7,0.0,1.0,408.0,547.0,1.0,0,335.0,1
707,707,-0.07062722398504861,-0.1,0.0,1.0,427.0,988.0,0.0,1,55.0,0
708,708,0.7780644051904774,0.8,1.0,1.0,260.0,578.0,1.0,1,252.0,1
709,709,0.8929498649556958,0.9,0.0,0.0,459.0,637.0,0.0,1,394.0,1
710,710,0.046784408071046335,0.0,1.0,1.0,458.0,917.0,0.0,0,1365.0,0
711,711,-0.04035263328674599,-0.0,1.0,0.0,430.0,931.0,0.0,0,2219.0,1
712,712,0.356685801596646,0.4,0.0,0.0,267.0,506.0,0.0,1,387.0,1
713,713,0.12277358421069795,0.1,0.0,0.0,368.0,690.0,0.0,1,842.0,1
714,714,-0.6958360439967874,-0.7,0.0,1.0,262.0,777.0,1.0,0,271.0,1
715,715,-0.4348094699715067,-0.4,1.0,0.0,250.0,714.0,0.0,0,316.0,1
716,716,-0.832777691607898,-0.8,0.0,1.0,406.0,982.0,1.0,0,162.0,1
717,717,0.5174828175712752,0.5,1.0,1.0,385.0,857.0,1.0,1,148.0,1
718,718,-0.6121821533129367,-0.6,1.0,0.0,373.0,638.0,0.0,0,189.0,1
719,719,0.7428964805944297,0.7,0.0,0.0,385.0,558.0,0.0,1,257.0,1
720,720,0.6139819981660378,0.6,1.0,1.0,308.0,744.0,1.0,1,248.0,1
721,721,-0.5782033134845004,-0.6,1.0,0.0,489.0,706.0,0.0,0,215.0,1
722,722,0.41218171931900394,0.4,1.0,1.0,291.0,985.0,1.0,1,164.0,1
723,723,-0.846170079409835,-0.8,0.0,1.0,257.0,964.0,1.0,0,199.0,1
724,724,0.19995190007529862,0.2,0.0,0.0,350.0,650.0,0.0,1,650.0,1
725,725,-0.3082686308773117,-0.3,0.0,1.0,455.0,500.0,1.0,0,465.0,1
726,726,-0.7128377941999479,-0.7,0.0,1.0,313.0,550.0,1.0,0,547.0,1
727,727,0.793200968608852,0.8,0.0,0.0,490.0,868.0,0.0,1,142.0,1
728,728,-0.56035426694556,-0.6,0.0,1.0,423.0,913.0,1.0,0,194.0,1
729,729,0.507684044920058,0.5,1.0,1.0,363.0,860.0,1.0,1,357.0,1
730,730,-0.01561465534443729,-0.0,0.0,1.0,359.0,527.0,1.0,0,2734.0,1
731,731,0.09929435246550222,0.1,1.0,1.0,356.0,565.0,1.0,1,2249.0,1
732,732,-0.6122670658442146,-0.6,0.0,1.0,265.0,992.0,1.0,0,163.0,1
733,733,-0.1848601174211596,-0.2,1.0,0.0,329.0,768.0,0.0,0,313.0,1
734,734,-0.09036593956820493,-0.1,1.0,0.0,367.0,784.0,0.0,0,3349.0,1
735,735,-0.06526108678440812,-0.1,1.0,0.0,335.0,851.0,0.0,0,2834.0,1
736,736,0.6429144307410778,0.6,0.0,0.0,330.0,895.0,0.0,1,235.0,1
737,737,0.18745254462509042,0.2,1.0,1.0,344.0,644.0,1.0,1,642.0,1
738,738,-0.2873307637183924,-0.3,1.0,0.0,337.0,560.0,0.0,0,803.0,1
739,739,0.45697134095883574,0.5,0.0,0.0,445.0,591.0,0.0,1,524.0,1
740,740,-0.3674166026697766,-0.4,1.0,0.0,411.0,572.0,0.0,0,617.0,1
741,741,0.43320926952227345,0.4,0.0,0.0,440.0,542.0,0.0,1,548.0,1
742,742,-0.8045476463505239,-0.8,1.0,0.0,393.0,663.0,0.0,0,294.0,1
743,743,-0.23410112454641863,-0.2,1.0,0.0,300.0,954.0,0.0,0,1066.0,1
744,744,-0.23643235519846095,-0.2,0.0,1.0,465.0,631.0,1.0,0,634.0,1
745,745,0.7762127456731233,0.8,1.0,1.0,279.0,807.0,1.0,1,224.0,1
746,746,-0.06147484034700923,-0.1,0.0,1.0,395.0,537.0,0.0,1,2118.0,0
747,747,-0.7399293956480942,-0.7,1.0,0.0,312.0,910.0,0.0,0,268.0,1
748,748,0.3840249678947839,0.4,1.0,1.0,337.0,968.0,1.0,1,335.0,1
749,749,0.5584404670617685,0.6,1.0,1.0,486.0,968.0,1.0,1,326.0,1
750,750,0.688126789660381,0.7,0.0,0.0,372.0,668.0,0.0,1,210.0,1
751,751,0.0777565104385568,0.1,1.0,1.0,444.0,704.0,1.0,1,3852.0,1
752,752,-0.327554662722116,-0.3,1.0,0.0,442.0,987.0,0.0,0,191.0,1
753,753,-0.2623147815041329,-0.3,1.0,0.0,394.0,544.0,0.0,0,562.0,1
754,754,-0.7801770689512479,-0.8,1.0,0.0,337.0,750.0,0.0,0,173.0,1
755,755,0.4306829515822094,0.4,0.0,0.0,287.0,882.0,0.0,1,631.0,1
756,756,0.36951471894930876,0.4,0.0,0.0,482.0,502.0,0.0,1,446.0,1
757,757,0.8567391335558788,0.9,1.0,1.0,467.0,704.0,1.0,1,219.0,1
758,758,0.49251177446879824,0.5,0.0,0.0,484.0,821.0,0.0,1,235.0,1
759,759,-0.06742993479586379,-0.1,0.0,1.0,297.0,997.0,1.0,0,1936.0,1
760,760,0.35950650277484175,0.4,1.0,1.0,350.0,630.0,1.0,1,200.0,1
761,761,0.13566816727510245,0.1,1.0,1.0,399.0,797.0,1.0,1,464.0,1
762,762,-0.33511185455610903,-0.3,1.0,0.0,400.0,779.0,0.0,0,321.0,1
763,763,-0.5107801459126786,-0.5,1.0,0.0,254.0,692.0,0.0,0,314.0,1
764,764,0.4112088227046632,0.4,1.0,1.0,373.0,624.0,1.0,1,203.0,1
765,765,-0.04589369157310064,-0.0,1.0,0.0,294.0,597.0,0.0,0,2039.0,1
766,766,0.17084927561356344,0.2,1.0,1.0,269.0,690.0,1.0,1,1171.0,1
767,767,0.4371847347807699,0.4,1.0,1.0,488.0,997.0,1.0,1,255.0,1
768,768,-0.23091234883922884,-0.2,0.0,1.0,391.0,785.0,1.0,0,314.0,1
769,769,-0.03842246791252102,-0.0,1.0,0.0,407.0,544.0,0.0,0,1469.0,1
770,770,0.09385467107102152,0.1,1.0,1.0,272.0,962.0,1.0,1,1646.0,1
771,771,0.04974948051676498,0.0,1.0,1.0,339.0,987.0,0.0,0,3674.0,0
772,772,0.7611812234142045,0.8,0.0,0.0,471.0,947.0,0.0,1,172.0,1
773,773,0.3618239230194885,0.4,1.0,1.0,366.0,900.0,1.0,1,324.0,1
774,774,-0.4695727581530185,-0.5,0.0,1.0,476.0,743.0,1.0,0,701.0,1
775,775,0.08952653777426811,0.1,1.0,1.0,253.0,865.0,1.0,1,3612.0,1
776,776,-0.2811961501201897,-0.3,0.0,1.0,395.0,794.0,1.0,0,431.0,1
777,777,-0.19174427318646425,-0.2,0.0,1.0,350.0,704.0,1.0,0,406.0,1
778,778,-0.24743494900815732,-0.2,0.0,1.0,359.0,893.0,1.0,0,448.0,1
779,779,0.5228424720413923,0.5,1.0,1.0,358.0,593.0,1.0,1,459.0,1
780,780,0.6560359976132127,0.7,1.0,1.0,387.0,577.0,1.0,1,196.0,1
781,781,-0.574919106136536,-0.6,0.0,1.0,497.0,887.0,1.0,0,246.0,1
782,782,-0.37590770319114497,-0.4,1.0,0.0,410.0,562.0,0.0,0,728.0,1
783,783,0.09340007547314311,0.1,1.0,1.0,415.0,822.0,1.0,1,853.0,1
784,784,-0.11784013470341925,-0.1,1.0,0.0,324.0,964.0,0.0,0,142.0,1
785,785,-0.887932139162209,-0.9,0.0,1.0,470.0,541.0,1.0,0,189.0,1
786,786,-0.47765298670541506,-0.5,1.0,0.0,359.0,690.0,0.0,0,201.0,1
787,787,0.3439484319634648,0.3,0.0,0.0,383.0,506.0,0.0,1,911.0,1
788,788,0.7125103745072908,0.7,0.0,0.0,423.0,681.0,0.0,1,356.0,1
789,789,-0.2915476822463945,-0.3,1.0,0.0,312.0,597.0,0.0,0,541.0,1
790,790,-0.24948337151523625,-0.2,1.0,0.0,443.0,572.0,0.0,0,735.0,1
791,791,0.1257194522071291,0.1,0.0,0.0,451.0,953.0,0.0,1,356.0,1
792,792,-0.39124936478575045,-0.4,1.0,0.0,365.0,704.0,0.0,0,301.0,1
793,793,0.4298291440289198,0.4,0.0,0.0,466.0,610.0,0.0,1,484.0,1
794,794,-0.6144145374362799,-0.6,1.0,0.0,420.0,604.0,0.0,0,306.0,1
795,795,0.7502244386204201,0.8,1.0,1.0,362.0,930.0,1.0,1,228.0,1
796,796,-0.38794974104740976,-0.4,0.0,1.0,471.0,990.0,1.0,0,329.0,1
797,797,0.020082207666296648,0.0,0.0,0.0,338.0,793.0,0.0,1,2289.0,1
798,798,-0.8932139408281785,-0.9,1.0,0.0,268.0,871.0,0.0,0,161.0,1
799,799,0.19953592252489927,0.2,0.0,0.0,271.0,945.0,0.0,1,744.0,1
800,800,0.8410073950492291,0.8,1.0,1.0,353.0,598.0,1.0,1,249.0,1
801,801,0.4025405311079876,0.4,0.0,0.0,360.0,918.0,0.0,1,152.0,1
802,802,0.6601844596422878,0.7,0.0,0.0,349.0,676.0,0.0,1,325.0,1
803,803,-0.2642272346815524,-0.3,0.0,1.0,406.0,526.0,1.0,0,498.0,1
804,804,-0.34139225639619075,-0.3,0.0,1.0,319.0,770.0,1.0,0,231.0,1
805,805,0.7360936070727887,0.7,1.0,1.0,431.0,982.0,1.0,1,187.0,1
806,806,0.2996710188344961,0.3,0.0,0.0,272.0,667.0,0.0,1,251.0,1
807,807,0.06699140237544521,0.1,0.0,0.0,386.0,812.0,0.0,1,812.0,1
808,808,0.3853934070780264,0.4,1.0,1.0,251.0,774.0,1.0,1,495.0,1
809,809,-0.10584479677973035,-0.1,1.0,0.0,472.0,968.0,0.0,0,540.0,1
810,810,0.7606035580146094,0.8,1.0,1.0,271.0,865.0,1.0,1,274.0,1
811,811,0.38595041732302293,0.4,0.0,0.0,494.0,618.0,0.0,1,318.0,1
812,812,-0.38246427806500005,-0.4,1.0,0.0,290.0,771.0,0.0,0,229.0,1
813,813,0.1638240738982618,0.2,0.0,0.0,423.0,828.0,0.0,1,389.0,1
814,814,-0.7542189941518113,-0.8,1.0,0.0,485.0,885.0,0.0,0,280.0,1
815,815,-0.8764950265415766,-0.9,1.0,0.0,374.0,883.0,0.0,0,13.0,1
816,816,0.055254821857444125,0.1,0.0,0.0,476.0,869.0,0.0,1,245.0,1
817,817,0.07186675186673686,0.1,1.0,1.0,284.0,988.0,1.0,1,118.0,1
818,818,-0.23906283072479895,-0.2,0.0,1.0,403.0,743.0,1.0,0,584.0,1
819,819,0.058954667940324224,0.1,1.0,1.0,331.0,520.0,1.0,1,4149.0,1
820,820,0.249705924086299,0.2,0.0,0.0,382.0,791.0,0.0,1,137.0,1
821,821,0.6425682541733034,0.6,0.0,0.0,441.0,826.0,0.0,1,173.0,1
822,822,0.4547916471018033,0.5,0.0,0.0,406.0,935.0,0.0,1,409.0,1
823,823,0.07752059300281955,0.1,0.0,0.0,495.0,781.0,0.0,1,734.0,1
824,824,-0.4216218307304148,-0.4,1.0,0.0,440.0,643.0,0.0,0,677.0,1
825,825,0.21758547844327591,0.2,1.0,1.0,355.0,520.0,1.0,1,625.0,1
826,826,-0.5371817922313351,-0.5,0.0,1.0,363.0,940.0,1.0,0,307.0,1
827,827,-0.7537713728106958,-0.8,0.0,1.0,252.0,954.0,1.0,0,314.0,1
828,828,-0.20502215796336798,-0.2,0.0,1.0,369.0,705.0,1.0,0,3206.0,1
829,829,-0.7554026320197544,-0.8,0.0,1.0,395.0,742.0,1.0,0,283.0,1
830,830,-0.7964691266050093,-0.8,1.0,0.0,301.0,595.0,0.0,0,494.0,1
831,831,0.17838772924977986,0.2,0.0,0.0,319.0,757.0,0.0,1,814.0,1
832,832,-0.21989608948289385,-0.2,1.0,0.0,294.0,730.0,0.0,0,706.0,1
833,833,0.46500244028228044,0.5,1.0,1.0,322.0,542.0,1.0,1,536.0,1
834,834,-0.737260802537855,-0.7,0.0,1.0,478.0,514.0,1.0,0,458.0,1
835,835,0.03524869403413822,0.0,1.0,1.0,255.0,817.0,0.0,0,3928.0,0
836,836,-0.1611047832717517,-0.2,1.0,0.0,460.0,734.0,0.0,0,466.0,1
837,837,0.3590540580153839,0.4,0.0,0.0,449.0,990.0,0.0,1,361.0,1
838,838,-0.7169465503795718,-0.7,0.0,1.0,295.0,959.0,1.0,0,296.0,1
839,839,-0.11269608489370897,-0.1,1.0,0.0,487.0,630.0,0.0,0,773.0,1
840,840,0.7689848716005118,0.8,1.0,1.0,394.0,908.0,1.0,1,148.0,1
841,841,0.5973770667360051,0.6,1.0,1.0,274.0,902.0,1.0,1,134.0,1
842,842,-0.029997026266300186,-0.0,1.0,0.0,375.0,739.0,1.0,1,426.0,0
843,843,0.39673214078460994,0.4,0.0,0.0,325.0,688.0,0.0,1,467.0,1
844,844,-0.7099443569897341,-0.7,0.0,1.0,269.0,500.0,1.0,0,371.0,1
845,845,-0.25446140000126105,-0.3,1.0,0.0,382.0,729.0,0.0,0,369.0,1
846,846,0.009847806535928205,0.0,0.0,0.0,366.0,615.0,1.0,0,679.0,0
847,847,0.8041145592076252,0.8,1.0,1.0,455.0,908.0,1.0,1,277.0,1
848,848,-0.062404640861473015,-0.1,0.0,1.0,451.0,577.0,1.0,0,3042.0,1
849,849,0.39304423470337013,0.4,1.0,1.0,498.0,954.0,1.0,1,438.0,1
850,850,0.7963763283535404,0.8,1.0,1.0,295.0,578.0,1.0,1,337.0,1
851,851,-0.16927478546186014,-0.2,1.0,0.0,471.0,863.0,0.0,0,676.0,1
852,852,-0.5725497876788541,-0.6,1.0,0.0,497.0,676.0,0.0,0,707.0,1
853,853,0.7421293164112664,0.7,0.0,0.0,257.0,939.0,0.0,1,204.0,1
854,854,0.8265528169272461,0.8,0.0,0.0,428.0,582.0,0.0,1,310.0,1
855,855,0.8815832417496133,0.9,0.0,0.0,373.0,899.0,0.0,1,128.0,1
856,856,-0.5670510611750147,-0.6,1.0,0.0,377.0,762.0,0.0,0,201.0,1
857,857,0.6160041952360454,0.6,1.0,1.0,363.0,688.0,1.0,1,369.0,1
858,858,-0.17452611448838085,-0.2,0.0,1.0,442.0,716.0,0.0,1,2682.0,0
859,859,-0.10771335326194276,-0.1,1.0,0.0,480.0,896.0,0.0,0,2324.0,1
860,860,0.43251854361717024,0.4,0.0,0.0,439.0,689.0,0.0,1,352.0,1
861,861,0.6557435581870669,0.7,0.0,0.0,487.0,818.0,0.0,1,145.0,1
862,862,-0.3644571777506598,-0.4,0.0,1.0,474.0,574.0,1.0,0,472.0,1
863,863,0.1598614634150396,0.2,1.0,1.0,293.0,975.0,1.0,1,152.0,1
864,864,0.8700062905779363,0.9,1.0,1.0,271.0,574.0,1.0,1,145.0,1
865,865,-0.5785142037149661,-0.6,1.0,0.0,275.0,626.0,0.0,0,669.0,1
866,866,-0.49217649546314984,-0.5,1.0,0.0,300.0,646.0,0.0,0,334.0,1
867,867,-0.11461575131061763,-0.1,1.0,0.0,375.0,846.0,0.0,0,709.0,1
868,868,-0.8590367735242717,-0.9,0.0,1.0,432.0,614.0,1.0,0,254.0,1
869,869,0.44393056440922385,0.4,0.0,0.0,402.0,904.0,0.0,1,334.0,1
870,870,0.4082264953513729,0.4,1.0,1.0,484.0,702.0,1.0,1,234.0,1
871,871,-0.14276641045825844,-0.1,1.0,0.0,299.0,713.0,0.0,0,1638.0,1
872,872,0.7773377939694078,0.8,0.0,0.0,493.0,757.0,0.0,1,220.0,1
873,873,0.8402902969961438,0.8,0.0,0.0,454.0,892.0,0.0,1,244.0,1
874,874,0.11328515692810404,0.1,1.0,1.0,380.0,743.0,1.0,1,2217.0,1
875,875,-0.5753660524739493,-0.6,1.0,0.0,309.0,762.0,0.0,0,119.0,1
876,876,-0.8697853008458797,-0.9,1.0,0.0,274.0,589.0,0.0,0,257.0,1
877,877,0.7842064184758953,0.8,1.0,1.0,372.0,545.0,1.0,1,363.0,1
878,878,0.6458079908835611,0.6,1.0,1.0,383.0,675.0,1.0,1,282.0,1
879,879,-0.7388928728450453,-0.7,1.0,0.0,366.0,758.0,0.0,0,436.0,1
880,880,0.25186190222338334,0.3,1.0,1.0,419.0,593.0,1.0,1,848.0,1
881,881,-0.6259965344892664,-0.6,0.0,1.0,302.0,508.0,1.0,0,490.0,1
882,882,-0.5747940449266955,-0.6,1.0,0.0,342.0,918.0,0.0,0,200.0,1
883,883,-0.8133268875261321,-0.8,1.0,0.0,306.0,855.0,0.0,0,249.0,1
884,884,-0.05672150854735347,-0.1,0.0,1.0,403.0,839.0,0.0,1,3758.0,0
885,885,0.21582282434502031,0.2,0.0,0.0,264.0,538.0,0.0,1,988.0,1
886,886,0.865414242294893,0.9,1.0,1.0,414.0,806.0,1.0,1,210.0,1
887,887,0.34968520559960103,0.3,1.0,1.0,278.0,832.0,1.0,1,440.0,1
888,888,0.11558804589222638,0.1,1.0,1.0,323.0,807.0,0.0,0,1350.0,0
889,889,0.06226586365038822,0.1,0.0,0.0,287.0,859.0,0.0,1,774.0,1
890,890,-0.2648396016776291,-0.3,0.0,1.0,366.0,686.0,1.0,0,418.0,1
891,891,0.040389290655553856,0.0,1.0,1.0,312.0,802.0,1.0,1,2296.0,1
892,892,0.6505052301634869,0.7,1.0,1.0,412.0,918.0,1.0,1,180.0,1
893,893,-0.5935112995969272,-0.6,1.0,0.0,254.0,845.0,0.0,0,171.0,1
894,894,0.7008716493439963,0.7,0.0,0.0,313.0,581.0,0.0,1,236.0,1
895,895,-0.6518491511891009,-0.7,0.0,1.0,440.0,571.0,1.0,0,549.0,1
896,896,-0.6184025554671468,-0.6,1.0,0.0,482.0,653.0,0.0,0,435.0,1
897,897,0.8213733632249912,0.8,0.0,0.0,414.0,625.0,0.0,1,281.0,1
898,898,-0.5311086872287397,-0.5,1.0,0.0,347.0,517.0,0.0,0,316.0,1
899,899,-0.33164207300229565,-0.3,0.0,1.0,364.0,690.0,1.0,0,366.0,1
900,900,0.6624855569984868,0.7,0.0,0.0,279.0,696.0,0.0,1,125.0,1
901,901,-0.14639087828089759,-0.1,0.0,1.0,332.0,513.0,1.0,0,1405.0,1
902,902,0.3546352183093332,0.4,1.0,1.0,250.0,688.0,1.0,1,302.0,1
903,903,0.7630004691157292,0.8,1.0,1.0,339.0,594.0,1.0,1,207.0,1
904,904,-0.41404072793194435,-0.4,1.0,0.0,369.0,535.0,0.0,0,276.0,1
905,905,-0.36058952441868086,-0.4,1.0,0.0,383.0,816.0,0.0,0,481.0,1
906,906,-0.8090111358980958,-0.8,1.0,0.0,417.0,517.0,0.0,0,366.0,1
907,907,0.4006009989870637,0.4,1.0,1.0,430.0,980.0,1.0,1,470.0,1
908,908,-0.5528973713774277,-0.6,0.0,1.0,488.0,859.0,1.0,0,223.0,1
909,909,-0.8551941740526372,-0.9,1.0,0.0,423.0,542.0,0.0,0,445.0,1
910,910,0.4353514404147999,0.4,0.0,0.0,335.0,599.0,0.0,1,406.0,1
911,911,-0.8420966419478129,-0.8,1.0,0.0,448.0,623.0,0.0,0,329.0,1
912,912,0.6463485812413173,0.6,0.0,0.0,389.0,873.0,0.0,1,268.0,1
913,913,0.8357121858142323,0.8,0.0,0.0,282.0,805.0,0.0,1,203.0,1
914,914,0.19711762024524881,0.2,1.0,1.0,388.0,564.0,1.0,1,478.0,1
915,915,-0.8648417891934809,-0.9,0.0,1.0,396.0,913.0,1.0,0,141.0,1
916,916,-0.0600280812940035,-0.1,0.0,1.0,476.0,798.0,1.0,0,3376.0,1
917,917,0.8475138737682476,0.8,1.0,1.0,427.0,877.0,1.0,1,206.0,1
918,918,-0.8968119775692163,-0.9,0.0,1.0,353.0,899.0,1.0,0,128.0,1
919,919,-0.3235389868707873,-0.3,1.0,0.0,462.0,693.0,0.0,0,725.0,1
920,920,-0.786986054773319,-0.8,1.0,0.0,477.0,832.0,0.0,0,221.0,1
921,921,0.6511883111478095,0.7,0.0,0.0,316.0,631.0,0.0,1,593.0,1
922,922,-0.6696115702699154,-0.7,1.0,0.0,311.0,564.0,0.0,0,595.0,1
923,923,-0.7377894375744526,-0.7,1.0,0.0,351.0,763.0,0.0,0,236.0,1
924,924,-0.7971846119959862,-0.8,0.0,1.0,430.0,857.0,1.0,0,203.0,1
925,925,-0.4518065372884448,-0.5,0.0,1.0,253.0,767.0,1.0,0,310.0,1
926,926,-0.5266928716801964,-0.5,0.0,1.0,476.0,781.0,1.0,0,293.0,1
927,927,0.35070759007043717,0.4,1.0,1.0,390.0,778.0,1.0,1,162.0,1
928,928,0.4254121410288557,0.4,1.0,1.0,369.0,773.0,1.0,1,378.0,1
929,929,0.09592670474529363,0.1,1.0,1.0,284.0,962.0,1.0,1,144.0,1
930,930,0.18030312233142387,0.2,0.0,0.0,474.0,609.0,0.0,1,687.0,1
931,931,0.6305075076415755,0.6,0.0,0.0,384.0,904.0,0.0,1,332.0,1
932,932,0.17114944867388593,0.2,0.0,0.0,350.0,961.0,0.0,1,59.0,1
933,933,0.844537493397408,0.8,0.0,0.0,406.0,729.0,0.0,1,325.0,1
934,934,-0.35605471789209964,-0.4,1.0,0.0,265.0,757.0,0.0,0,408.0,1
935,935,-0.1188721092804409,-0.1,1.0,0.0,436.0,866.0,0.0,0,3368.0,1
936,936,0.7715336714809179,0.8,1.0,1.0,294.0,865.0,1.0,1,121.0,1
937,937,0.05831951911362243,0.1,1.0,1.0,472.0,645.0,1.0,1,3803.0,1
938,938,-0.5911375480343862,-0.6,1.0,0.0,308.0,711.0,0.0,0,281.0,1
939,939,-0.4638135337847118,-0.5,0.0,1.0,425.0,982.0,1.0,0,323.0,1
940,940,-0.8433299094484192,-0.8,0.0,1.0,336.0,692.0,1.0,0,362.0,1
941,941,-0.17934850587080975,-0.2,0.0,1.0,420.0,564.0,1.0,0,1156.0,1
942,942,-0.7859885415823471,-0.8,0.0,1.0,381.0,555.0,1.0,0,254.0,1
943,943,0.565917789063144,0.6,1.0,1.0,441.0,705.0,1.0,1,184.0,1
944,944,-0.8239037897049235,-0.8,0.0,1.0,379.0,965.0,1.0,0,436.0,1
945,945,0.7404342243493239,0.7,0.0,0.0,407.0,529.0,0.0,1,384.0,1
946,946,0.22655195235134784,0.2,1.0,1.0,385.0,900.0,1.0,1,255.0,1
947,947,0.3544244415735095,0.4,0.0,0.0,365.0,979.0,0.0,1,-94.0,1
948,948,0.4364027059247252,0.4,1.0,1.0,341.0,665.0,1.0,1,284.0,1
949,949,0.7702910929468801,0.8,0.0,0.0,466.0,985.0,0.0,1,159.0,1
950,950,-0.1729512374903236,-0.2,1.0,0.0,351.0,547.0,0.0,0,572.0,1
951,951,-0.7142102027174302,-0.7,1.0,0.0,481.0,567.0,0.0,0,342.0,1
952,952,0.005886065779229899,0.0,1.0,1.0,491.0,785.0,0.0,0,564.0,0
953,953,-0.7007103009228406,-0.7,0.0,1.0,487.0,876.0,1.0,0,277.0,1
954,954,0.4066538458675718,0.4,1.0,1.0,441.0,873.0,1.0,1,486.0,1
955,955,-0.7524044791613465,-0.8,0.0,1.0,398.0,934.0,1.0,0,318.0,1
956,956,0.8426712162687441,0.8,0.0,0.0,390.0,685.0,0.0,1,365.0,1
957,957,-0.170111158894112,-0.2,1.0,0.0,314.0,653.0,0.0,0,1383.0,1
958,958,-0.7323719366531616,-0.7,0.0,1.0,312.0,651.0,1.0,0,537.0,1
959,959,0.12393101123827333,0.1,1.0,1.0,388.0,664.0,1.0,1,1678.0,1
960,960,0.30802911000115685,0.3,0.0,0.0,420.0,880.0,0.0,1,290.0,1
961,961,0.28972669110151095,0.3,1.0,1.0,483.0,860.0,1.0,1,997.0,1
962,962,0.8311932393301621,0.8,0.0,0.0,274.0,529.0,0.0,1,287.0,1
963,963,0.5162798982362619,0.5,0.0,0.0,365.0,570.0,0.0,1,395.0,1
964,964,-0.6643666978631035,-0.7,0.0,1.0,348.0,895.0,1.0,0,307.0,1
965,965,-0.8644457442206455,-0.9,1.0,0.0,410.0,670.0,0.0,0,310.0,1
966,966,0.2773071597277311,0.3,0.0,0.0,358.0,529.0,0.0,1,583.0,1
967,967,-0.5605092266027779,-0.6,1.0,0.0,291.0,924.0,0.0,0,445.0,1
968,968,-0.1194692852280701,-0.1,1.0,0.0,356.0,638.0,0.0,0,436.0,1
969,969,-0.33536149982339525,-0.3,1.0,0.0,458.0,760.0,0.0,0,382.0,1
970,970,-0.7395349394517319,-0.7,1.0,0.0,383.0,966.0,0.0,0,561.0,1
971,971,0.32282782566688584,0.3,0.0,0.0,338.0,552.0,0.0,1,540.0,1
972,972,0.19792484730737525,0.2,1.0,1.0,317.0,708.0,1.0,1,305.0,1
973,973,0.6929980678096942,0.7,0.0,0.0,491.0,866.0,0.0,1,183.0,1
974,974,0.32930780746588983,0.3,0.0,0.0,305.0,943.0,0.0,1,132.0,1
975,975,-0.14475021787211695,-0.1,1.0,0.0,354.0,685.0,0.0,0,1681.0,1
976,976,-0.4107552324071832,-0.4,0.0,1.0,477.0,650.0,1.0,0,623.0,1
977,977,-0.8240576591271878,-0.8,1.0,0.0,448.0,656.0,0.0,0,386.0,1
978,978,0.536050250743744,0.5,0.0,0.0,373.0,877.0,0.0,1,260.0,1
979,979,-0.7603381176695648,-0.8,1.0,0.0,292.0,657.0,0.0,0,511.0,1
980,980,0.747637473635728,0.7,1.0,1.0,376.0,923.0,1.0,1,421.0,1
981,981,-0.7231642028878194,-0.7,0.0,1.0,288.0,985.0,1.0,0,137.0,1
982,982,0.40058166474781565,0.4,1.0,1.0,335.0,510.0,1.0,1,435.0,1
983,983,-0.43461139148208344,-0.4,0.0,1.0,250.0,759.0,1.0,0,311.0,1
984,984,-0.432223944799354,-0.4,1.0,0.0,357.0,822.0,0.0,0,741.0,1
985,985,0.35460206579342335,0.4,0.0,0.0,340.0,964.0,0.0,1,216.0,1
986,986,0.48301745582698896,0.5,1.0,1.0,487.0,912.0,1.0,1,331.0,1
987,987,0.3035137191447074,0.3,0.0,0.0,407.0,896.0,0.0,1,77.0,1
988,988,-0.5392710864476715,-0.5,1.0,0.0,267.0,543.0,0.0,0,370.0,1
989,989,0.6040812879163503,0.6,1.0,1.0,313.0,988.0,1.0,1,199.0,1
990,990,-0.42823615967598416,-0.4,0.0,1.0,254.0,576.0,1.0,0,430.0,1
991,991,0.7843420071303463,0.8,1.0,1.0,444.0,931.0,1.0,1,145.0,1
992,992,0.446694328273992,0.4,0.0,0.0,496.0,989.0,0.0,1,465.0,1
993,993,-0.38043107631999695,-0.4,1.0,0.0,481.0,668.0,0.0,0,371.0,1
994,994,0.2716973793410401,0.3,1.0,1.0,467.0,877.0,1.0,1,766.0,1
995,995,0.7996060123825911,0.8,0.0,0.0,425.0,903.0,0.0,1,122.0,1
996,996,0.0010048268667580684,0.0,0.0,0.0,299.0,661.0,0.0,1,2700.0,1
997,997,-0.6562725295316727,-0.7,1.0,0.0,375.0,835.0,0.0,0,350.0,1
998,998,0.2553024406901,0.3,0.0,0.0,252.0,652.0,0.0,1,756.0,1
999,999,-0.12340778581506628,-0.1,0.0,1.0,496.0,882.0,1.0,0,542.0,1
1000,1000,0.718386472547386,0.7,0.0,0.0,298.0,879.0,0.0,1,263.0,1
1001,1001,-0.8279572006232577,-0.8,1.0,0.0,477.0,817.0,0.0,0,286.0,1
1002,1002,0.04712085091704221,0.0,0.0,0.0,320.0,509.0,0.0,1,2231.0,1
1003,1003,0.02299015350011957,0.0,1.0,1.0,277.0,870.0,0.0,0,1043.0,0
1004,1004,0.89232537414726,0.9,1.0,1.0,452.0,580.0,1.0,1,328.0,1
1005,1005,0.0695577032329957,0.1,1.0,1.0,363.0,997.0,1.0,1,1150.0,1
1006,1006,0.8302583419088853,0.8,0.0,0.0,428.0,883.0,0.0,1,109.0,1
1007,1007,-0.7365890507538927,-0.7,1.0,0.0,345.0,871.0,0.0,0,434.0,1
1008,1008,0.40494913912049013,0.4,1.0,1.0,471.0,995.0,1.0,1,384.0,1
1009,1009,-0.801181968731123,-0.8,1.0,0.0,344.0,575.0,0.0,0,361.0,1
1010,1010,0.33067389724909824,0.3,0.0,0.0,392.0,765.0,0.0,1,103.0,1
1011,1011,-0.0922386950606956,-0.1,1.0,0.0,452.0,694.0,0.0,0,3154.0,1
1012,1012,-0.7061384396051799,-0.7,0.0,1.0,259.0,919.0,1.0,0,442.0,1
1013,1013,0.7335902586418904,0.7,0.0,0.0,426.0,502.0,0.0,1,382.0,1
1014,1014,0.6245297670519699,0.6,0.0,0.0,420.0,536.0,0.0,1,334.0,1
1015,1015,0.569002486919573,0.6,0.0,0.0,303.0,694.0,0.0,1,203.0,1
1016,1016,0.07380973526346069,0.1,1.0,1.0,295.0,541.0,0.0,0,1094.0,0
1017,1017,-0.45449050590694756,-0.5,1.0,0.0,338.0,881.0,0.0,0,181.0,1
1018,1018,-0.7082412595609249,-0.7,0.0,1.0,421.0,595.0,1.0,0,354.0,1
1019,1019,0.8247873727215863,0.8,1.0,1.0,291.0,693.0,1.0,1,196.0,1
1020,1020,-0.5430089214443197,-0.5,0.0,1.0,318.0,603.0,1.0,0,339.0,1
1021,1021,-0.07282583817359178,-0.1,0.0,1.0,460.0,554.0,0.0,1,2016.0,0
1022,1022,-0.5205939688753958,-0.5,1.0,0.0,350.0,870.0,0.0,0,160.0,1
1023,1023,-0.8913049247451142,-0.9,0.0,1.0,315.0,930.0,1.0,0,415.0,1
1024,1024,0.8998132378006437,0.9,1.0,1.0,282.0,905.0,1.0,1,113.0,1
1025,1025,-0.5315417324009151,-0.5,1.0,0.0,412.0,768.0,0.0,0,200.0,1
1026,1026,-0.2668168632724457,-0.3,0.0,1.0,479.0,883.0,1.0,0,328.0,1
1027,1027,-0.791188355822871,-0.8,0.0,1.0,263.0,893.0,1.0,0,164.0,1
1028,1028,-0.5554006985339188,-0.6,1.0,0.0,258.0,850.0,0.0,0,472.0,1
1029,1029,0.7697336749083951,0.8,1.0,1.0,276.0,895.0,1.0,1,139.0,1
1030,1030,-0.6836408740256276,-0.7,0.0,1.0,389.0,776.0,1.0,0,385.0,1
1031,1031,0.6880880973624585,0.7,0.0,0.0,346.0,608.0,0.0,1,506.0,1
1032,1032,0.5782463464763196,0.6,0.0,0.0,427.0,993.0,0.0,1,100.0,1
1033,1033,-0.43625298681143165,-0.4,0.0,1.0,354.0,544.0,1.0,0,662.0,1
1034,1034,-0.5491632911197211,-0.5,1.0,0.0,293.0,759.0,0.0,0,578.0,1
1035,1035,-0.07930988200686695,-0.1,1.0,0.0,259.0,675.0,0.0,0,3316.0,1
1036,1036,0.1345679560704801,0.1,1.0,1.0,357.0,953.0,1.0,1,920.0,1
1037,1037,0.03000602406146735,0.0,0.0,0.0,317.0,835.0,0.0,1,578.0,1
1038,1038,0.8513456639167246,0.9,1.0,1.0,319.0,641.0,1.0,1,190.0,1
1039,1039,0.3615926995033435,0.4,1.0,1.0,293.0,821.0,1.0,1,316.0,1
1040,1040,-0.0757603588354101,-0.1,0.0,1.0,306.0,748.0,1.0,0,2506.0,1
1041,1041,-0.17410183628392184,-0.2,0.0,1.0,325.0,694.0,1.0,0,411.0,1
1042,1042,-0.6453154599848507,-0.6,1.0,0.0,296.0,840.0,0.0,0,274.0,1
1043,1043,0.8292417813576863,0.8,1.0,1.0,269.0,794.0,1.0,1,297.0,1
1044,1044,-0.53336628286619,-0.5,0.0,1.0,478.0,523.0,1.0,0,399.0,1
1045,1045,-0.5231974812489302,-0.5,1.0,0.0,256.0,531.0,0.0,0,353.0,1
1046,1046,-0.7843581572442934,-0.8,1.0,0.0,493.0,799.0,0.0,0,168.0,1
1047,1047,-0.8642966428650725,-0.9,1.0,0.0,364.0,525.0,0.0,0,341.0,1
1048,1048,-0.4110674115193939,-0.4,1.0,0.0,472.0,920.0,0.0,0,398.0,1
1049,1049,-0.30328026905435523,-0.3,0.0,1.0,384.0,611.0,1.0,0,665.0,1
1050,1050,-0.8684329840400253,-0.9,1.0,0.0,313.0,800.0,0.0,0,387.0,1
1051,1051,0.0014932373707168267,0.0,1.0,1.0,275.0,699.0,1.0,1,4026.0,1
1052,1052,0.2127957934134902,0.2,0.0,0.0,336.0,611.0,0.0,1,323.0,1
1053,1053,0.4245098163231179,0.4,1.0,1.0,471.0,832.0,1.0,1,527.0,1
1054,1054,0.11642119962474495,0.1,1.0,1.0,252.0,811.0,1.0,1,1227.0,1
1055,1055,-0.12099043025555489,-0.1,1.0,0.0,484.0,580.0,0.0,0,416.0,1
1056,1056,0.14069450620468837,0.1,0.0,0.0,466.0,510.0,0.0,1,994.0,1
1057,1057,-0.6351092527906486,-0.6,0.0,1.0,466.0,718.0,1.0,0,196.0,1
1058,1058,0.4330739996624807,0.4,1.0,1.0,260.0,776.0,1.0,1,294.0,1
1059,1059,0.5844103841853469,0.6,1.0,1.0,485.0,556.0,1.0,1,299.0,1
1060,1060,0.5741078918193184,0.6,0.0,0.0,410.0,677.0,0.0,1,473.0,1
1061,1061,0.5067161676854383,0.5,1.0,1.0,261.0,727.0,1.0,1,332.0,1
1062,1062,-0.05141823291306691,-0.1,1.0,0.0,256.0,858.0,0.0,0,2166.0,1
1063,1063,0.13843976874472086,0.1,1.0,1.0,499.0,672.0,1.0,1,659.0,1
1064,1064,-0.5454842380325999,-0.5,0.0,1.0,333.0,979.0,1.0,0,68.0,1
1065,1065,0.4252772185044872,0.4,0.0,0.0,370.0,554.0,0.0,1,336.0,1
1066,1066,-0.5785937862456817,-0.6,1.0,0.0,284.0,942.0,0.0,0,504.0,1
1067,1067,-0.8688529979774483,-0.9,0.0,1.0,323.0,924.0,1.0,0,213.0,1
1068,1068,-0.7672999236451703,-0.8,1.0,0.0,330.0,501.0,0.0,0,369.0,1
1069,1069,0.3962549007316728,0.4,0.0,0.0,404.0,595.0,0.0,1,481.0,1
1070,1070,-0.8864509657772638,-0.9,0.0,1.0,462.0,560.0,1.0,0,418.0,1
1071,1071,0.7723421100972035,0.8,0.0,0.0,485.0,553.0,0.0,1,632.0,1
1072,1072,-0.8020878441292077,-0.8,0.0,1.0,320.0,630.0,1.0,0,610.0,1
1073,1073,0.012777625931100878,0.0,0.0,0.0,258.0,973.0,0.0,1,939.0,1
1074,1074,-0.5563487646289574,-0.6,0.0,1.0,387.0,818.0,1.0,0,315.0,1
1075,1075,0.11610579426113998,0.1,0.0,0.0,432.0,879.0,0.0,1,1389.0,1
1076,1076,0.7386903973502151,0.7,1.0,1.0,307.0,990.0,1.0,1,203.0,1
1077,1077,-0.7895147046529108,-0.8,0.0,1.0,407.0,843.0,1.0,0,300.0,1
1078,1078,0.41879894040305754,0.4,0.0,0.0,466.0,585.0,0.0,1,509.0,1
1079,1079,0.070327307848015,0.1,0.0,0.0,469.0,656.0,0.0,1,3575.0,1
1080,1080,0.5038965850641796,0.5,1.0,1.0,364.0,955.0,1.0,1,461.0,1
1081,1081,0.6256312838473398,0.6,1.0,1.0,426.0,828.0,1.0,1,136.0,1
1082,1082,-0.24172630507271553,-0.2,1.0,0.0,369.0,695.0,0.0,0,546.0,1
1083,1083,-0.41593351028657843,-0.4,0.0,1.0,421.0,611.0,1.0,0,478.0,1
1084,1084,-0.3659974852941863,-0.4,0.0,1.0,310.0,636.0,1.0,0,574.0,1
1085,1085,-0.1560056331516545,-0.2,0.0,1.0,423.0,804.0,1.0,0,1993.0,1
1086,1086,-0.4811064662879348,-0.5,1.0,0.0,412.0,864.0,0.0,0,224.0,1
1087,1087,-0.20018399749267513,-0.2,1.0,0.0,299.0,815.0,0.0,0,526.0,1
1088,1088,0.38449334909094157,0.4,0.0,0.0,410.0,773.0,0.0,1,287.0,1
1089,1089,0.8096425185845114,0.8,1.0,1.0,331.0,878.0,1.0,1,161.0,1
1090,1090,0.6852257303967663,0.7,1.0,1.0,330.0,617.0,1.0,1,333.0,1
1091,1091,-0.0015738605702609876,-0.0,1.0,0.0,391.0,627.0,0.0,0,3082.0,1
1092,1092,0.12683716837724723,0.1,0.0,0.0,293.0,868.0,0.0,1,179.0,1
1093,1093,-0.47519783976434027,-0.5,1.0,0.0,291.0,957.0,0.0,0,152.0,1
1094,1094,0.40653768004867963,0.4,0.0,0.0,383.0,984.0,0.0,1,-67.0,1
1095,1095,-0.8728863175026542,-0.9,1.0,0.0,406.0,848.0,0.0,0,206.0,1
1096,1096,-0.8026114883835099,-0.8,0.0,1.0,474.0,958.0,1.0,0,168.0,1
1097,1097,-0.502326509449298,-0.5,1.0,0.0,355.0,830.0,0.0,0,95.0,1
1098,1098,-0.051399347608634516,-0.1,0.0,1.0,276.0,698.0,0.0,1,4026.0,0
1099,1099,0.07948006188448908,0.1,1.0,1.0,497.0,507.0,1.0,1,466.0,1
1100,1100,-0.7513165654811169,-0.8,0.0,1.0,376.0,680.0,1.0,0,364.0,1
1101,1101,0.06801817378694497,0.1,1.0,1.0,278.0,995.0,1.0,1,3727.0,1
1102,1102,-0.28589734149085966,-0.3,1.0,0.0,458.0,807.0,0.0,0,845.0,1
1103,1103,-0.28050221896625605,-0.3,1.0,0.0,355.0,908.0,0.0,0,287.0,1
1104,1104,0.34790291393628114,0.3,1.0,1.0,402.0,623.0,1.0,1,425.0,1
1105,1105,0.1490710406549599,0.1,0.0,0.0,275.0,887.0,0.0,1,738.0,1
1106,1106,0.6486054786455256,0.6,0.0,0.0,453.0,878.0,0.0,1,249.0,1
1107,1107,-0.32809190671393207,-0.3,0.0,1.0,384.0,550.0,1.0,0,906.0,1
1108,1108,0.16031190999410294,0.2,0.0,0.0,463.0,652.0,0.0,1,415.0,1
1109,1109,-0.864436425121076,-0.9,1.0,0.0,429.0,758.0,0.0,0,153.0,1
1110,1110,0.21638754056407528,0.2,0.0,0.0,425.0,679.0,0.0,1,256.0,1
1111,1111,0.19101344689253785,0.2,1.0,1.0,286.0,500.0,1.0,1,1004.0,1
1112,1112,0.7091215562600767,0.7,0.0,0.0,419.0,797.0,0.0,1,284.0,1
1113,1113,-0.6819270540981733,-0.7,1.0,0.0,339.0,937.0,0.0,0,164.0,1
1114,1114,0.7044029732879563,0.7,0.0,0.0,299.0,527.0,0.0,1,234.0,1
1115,1115,-0.0873813967785555,-0.1,0.0,1.0,269.0,699.0,0.0,1,4032.0,0
1116,1116,-0.20912536558471284,-0.2,1.0,0.0,295.0,725.0,0.0,0,730.0,1
1117,1117,-0.1573211444765118,-0.2,0.0,1.0,394.0,860.0,1.0,0,3626.0,1
1118,1118,0.5397030597633704,0.5,0.0,0.0,355.0,712.0,0.0,1,333.0,1
1119,1119,0.7680382666243467,0.8,0.0,0.0,400.0,540.0,0.0,1,120.0,1
1120,1120,0.8435345941205915,0.8,0.0,0.0,320.0,918.0,0.0,1,402.0,1
1121,1121,-0.5999635827563468,-0.6,0.0,1.0,270.0,582.0,1.0,0,348.0,1
1122,1122,0.7579699123266238,0.8,0.0,0.0,360.0,849.0,0.0,1,201.0,1
1123,1123,-0.8969658397195406,-0.9,0.0,1.0,309.0,540.0,1.0,0,231.0,1
1124,1124,0.5182959827351826,0.5,0.0,0.0,490.0,720.0,0.0,1,350.0,1
1125,1125,-0.5783306122535387,-0.6,1.0,0.0,259.0,998.0,0.0,0,143.0,1
1126,1126,-0.4485862507486766,-0.4,1.0,0.0,303.0,702.0,0.0,0,435.0,1
1127,1127,0.39158582591403246,0.4,0.0,0.0,312.0,685.0,0.0,1,333.0,1
1128,1128,-0.08385721161615256,-0.1,1.0,0.0,489.0,642.0,0.0,0,529.0,1
1129,1129,-0.8475779260186441,-0.8,1.0,0.0,356.0,733.0,0.0,0,301.0,1
1130,1130,0.5989612477528666,0.6,0.0,0.0,392.0,730.0,0.0,1,228.0,1
1131,1131,0.5873426624843178,0.6,0.0,0.0,453.0,507.0,0.0,1,480.0,1
1132,1132,0.5636911015927396,0.6,1.0,1.0,499.0,530.0,1.0,1,461.0,1
1133,1133,0.291667604480074,0.3,0.0,0.0,309.0,903.0,0.0,1,358.0,1
1134,1134,-0.8947025786959706,-0.9,1.0,0.0,482.0,544.0,0.0,0,384.0,1
1135,1135,0.8588587752964166,0.9,0.0,0.0,355.0,684.0,0.0,1,251.0,1
1136,1136,-0.10303683727796287,-0.1,0.0,1.0,290.0,997.0,1.0,0,1163.0,1
1137,1137,0.8154470445258909,0.8,1.0,1.0,341.0,939.0,1.0,1,210.0,1
1138,1138,-0.5430891883567255,-0.5,0.0,1.0,469.0,791.0,1.0,0,400.0,1
1139,1139,0.883930703653555,0.9,1.0,1.0,358.0,815.0,1.0,1,187.0,1
1140,1140,-0.29844330812963393,-0.3,0.0,1.0,259.0,615.0,1.0,0,426.0,1
1141,1141,0.7406256535171069,0.7,1.0,1.0,263.0,641.0,1.0,1,266.0,1
1142,1142,0.3082056663480147,0.3,0.0,0.0,367.0,987.0,0.0,1,666.0,1
1143,1143,0.24066933884324493,0.2,0.0,0.0,382.0,835.0,0.0,1,273.0,1
1144,1144,-0.07478261382295115,-0.1,1.0,0.0,290.0,842.0,0.0,0,38.0,1
1145,1145,0.6165205295300892,0.6,1.0,1.0,342.0,944.0,1.0,1,254.0,1
1146,1146,0.02839411933448288,0.0,0.0,0.0,340.0,787.0,0.0,1,3873.0,1
1147,1147,0.7547721672290081,0.8,1.0,1.0,328.0,811.0,1.0,1,271.0,1
1148,1148,0.4761021744254589,0.5,1.0,1.0,322.0,755.0,1.0,1,343.0,1
1149,1149,0.33783202586009164,0.3,0.0,0.0,327.0,755.0,0.0,1,338.0,1
1150,1150,-0.23880115650673406,-0.2,1.0,0.0,350.0,688.0,0.0,0,322.0,1
1151,1151,0.8909582512018769,0.9,0.0,0.0,485.0,607.0,0.0,1,208.0,1
1152,1152,0.5578342772368631,0.6,0.0,0.0,356.0,915.0,0.0,1,169.0,1
1153,1153,0.8944374496739581,0.9,1.0,1.0,382.0,934.0,1.0,1,234.0,1
1154,1154,0.3162315311714686,0.3,1.0,1.0,466.0,559.0,1.0,1,405.0,1
1155,1155,-0.21738373744430628,-0.2,1.0,0.0,323.0,585.0,0.0,0,522.0,1
1156,1156,-0.8588396454727953,-0.9,1.0,0.0,437.0,835.0,0.0,0,378.0,1
1157,1157,0.16425636040697256,0.2,0.0,0.0,303.0,615.0,0.0,1,722.0,1
1158,1158,-0.2257386695656961,-0.2,1.0,0.0,443.0,909.0,0.0,0,1378.0,1
1159,1159,-0.3032743546476796,-0.3,0.0,1.0,298.0,835.0,1.0,0,347.0,1
1160,1160,-0.2779430738622125,-0.3,0.0,1.0,436.0,908.0,1.0,0,546.0,1
1161,1161,0.8131348855149921,0.8,0.0,0.0,419.0,994.0,0.0,1,107.0,1
1162,1162,0.6845786098260075,0.7,0.0,0.0,363.0,913.0,0.0,1,174.0,1
1163,1163,0.6930072568807563,0.7,0.0,0.0,267.0,603.0,0.0,1,310.0,1
1164,1164,-0.3791338531959446,-0.4,1.0,0.0,408.0,948.0,0.0,0,594.0,1
1165,1165,-0.6822028079854779,-0.7,1.0,0.0,293.0,512.0,0.0,0,495.0,1
1166,1166,0.49168011971910175,0.5,0.0,0.0,480.0,741.0,0.0,1,129.0,1
1167,1167,-0.030571183046640305,-0.0,0.0,1.0,411.0,739.0,1.0,0,3010.0,1
1168,1168,-0.18319046537047967,-0.2,1.0,0.0,306.0,565.0,0.0,0,749.0,1
1169,1169,-0.24772050504416088,-0.2,0.0,1.0,309.0,541.0,1.0,0,1500.0,1
1170,1170,-0.5492946833185494,-0.5,1.0,0.0,293.0,624.0,0.0,0,363.0,1
1171,1171,-0.4173204316520716,-0.4,0.0,1.0,317.0,845.0,1.0,0,228.0,1
1172,1172,0.12876625282702714,0.1,1.0,1.0,403.0,612.0,1.0,1,3195.0,1
1173,1173,0.5272852348327691,0.5,0.0,0.0,417.0,525.0,0.0,1,308.0,1
1174,1174,-0.21093850094885358,-0.2,0.0,1.0,292.0,854.0,1.0,0,294.0,1
1175,1175,0.0765704009191589,0.1,0.0,0.0,277.0,601.0,0.0,1,482.0,1
1176,1176,0.5798157366577071,0.6,0.0,0.0,470.0,738.0,0.0,1,222.0,1
1177,1177,0.8494538255107457,0.8,1.0,1.0,381.0,918.0,1.0,1,131.0,1
1178,1178,-0.34025864902109615,-0.3,0.0,1.0,495.0,688.0,1.0,0,397.0,1
1179,1179,0.8591856626318327,0.9,1.0,1.0,253.0,544.0,1.0,1,143.0,1
1180,1180,0.5417267820032573,0.5,0.0,0.0,333.0,623.0,0.0,1,354.0,1
1181,1181,0.2102595977976135,0.2,1.0,1.0,438.0,636.0,1.0,1,506.0,1
1182,1182,-0.6886962933804688,-0.7,0.0,1.0,329.0,898.0,1.0,0,683.0,1
1183,1183,-0.4631017326278329,-0.5,1.0,0.0,434.0,867.0,0.0,0,439.0,1
1184,1184,-0.48101422808609934,-0.5,0.0,1.0,325.0,939.0,1.0,0,326.0,1
1185,1185,-0.625498577677136,-0.6,1.0,0.0,292.0,812.0,0.0,0,136.0,1
1186,1186,-0.3812175948886659,-0.4,1.0,0.0,356.0,774.0,0.0,0,250.0,1
1187,1187,-0.7300512902766119,-0.7,1.0,0.0,338.0,726.0,0.0,0,306.0,1
1188,1188,-0.7070394687209416,-0.7,1.0,0.0,417.0,923.0,0.0,0,330.0,1
1189,1189,0.019357350061728562,0.0,1.0,1.0,383.0,784.0,1.0,1,1493.0,1
1190,1190,0.17296674202532902,0.2,1.0,1.0,321.0,869.0,1.0,1,1490.0,1
1191,1191,-0.1959090019132005,-0.2,0.0,1.0,443.0,506.0,1.0,0,1281.0,1
1192,1192,0.15828951975594296,0.2,0.0,0.0,486.0,620.0,0.0,1,484.0,1
1193,1193,-0.05149432626306194,-0.1,0.0,1.0,327.0,807.0,0.0,1,2686.0,0
1194,1194,0.20710919471007683,0.2,0.0,0.0,337.0,980.0,0.0,1,343.0,1
1195,1195,-0.8092803442771173,-0.8,1.0,0.0,376.0,706.0,0.0,0,308.0,1
1196,1196,-0.3412122166102727,-0.3,1.0,0.0,331.0,691.0,0.0,0,418.0,1
1197,1197,0.13815804561932754,0.1,1.0,1.0,252.0,622.0,1.0,1,1306.0,1
1198,1198,-0.4858018796378435,-0.5,1.0,0.0,368.0,786.0,0.0,0,286.0,1
1199,1199,-0.7970605899069588,-0.8,0.0,1.0,275.0,867.0,1.0,0,268.0,1
1200,1200,-0.1536408906718656,-0.2,0.0,1.0,255.0,646.0,1.0,0,1589.0,1
1201,1201,0.2389018939292532,0.2,0.0,0.0,431.0,845.0,0.0,1,264.0,1
1202,1202,0.8652705447842489,0.9,0.0,0.0,431.0,512.0,0.0,1,227.0,1
1203,1203,-0.798710974490265,-0.8,0.0,1.0,435.0,692.0,1.0,0,273.0,1
1204,1204,-0.7657535249580328,-0.8,0.0,1.0,343.0,753.0,1.0,0,324.0,1
1205,1205,0.8506706524790831,0.9,0.0,0.0,485.0,673.0,0.0,1,162.0,1
1206,1206,0.35417337032484963,0.4,1.0,1.0,282.0,587.0,1.0,1,841.0,1
1207,1207,-0.7297358014641635,-0.7,0.0,1.0,470.0,798.0,1.0,0,162.0,1
1208,1208,-0.799146800155996,-0.8,0.0,1.0,287.0,768.0,1.0,0,195.0,1
1209,1209,-0.4600173256140752,-0.5,0.0,1.0,451.0,626.0,1.0,0,433.0,1
1210,1210,0.617436118093328,0.6,0.0,0.0,469.0,991.0,0.0,1,150.0,1
1211,1211,-0.698394424509742,-0.7,1.0,0.0,421.0,832.0,0.0,0,247.0,1
1212,1212,-0.001206682121469238,-0.0,1.0,0.0,456.0,694.0,0.0,0,2330.0,1
1213,1213,-0.46884712297755554,-0.5,1.0,0.0,407.0,765.0,0.0,0,438.0,1
1214,1214,0.33212853072937343,0.3,0.0,0.0,315.0,582.0,0.0,1,373.0,1
1215,1215,-0.10813878888024409,-0.1,0.0,1.0,344.0,919.0,1.0,0,2457.0,1
1216,1216,0.6298018328241158,0.6,1.0,1.0,475.0,867.0,1.0,1,118.0,1
1217,1217,-0.0938478246791773,-0.1,0.0,1.0,414.0,969.0,1.0,0,1737.0,1
1218,1218,0.39521545406527403,0.4,0.0,0.0,376.0,952.0,0.0,1,332.0,1
1219,1219,0.4329968490470971,0.4,1.0,1.0,314.0,687.0,1.0,1,489.0,1
1220,1220,-0.08154480630462968,-0.1,0.0,1.0,321.0,863.0,0.0,1,3146.0,0
1221,1221,-0.15195568144664118,-0.2,0.0,1.0,497.0,919.0,1.0,0,3584.0,1
1222,1222,0.7926944642553205,0.8,1.0,1.0,335.0,749.0,1.0,1,226.0,1
1223,1223,0.08219572098005679,0.1,0.0,0.0,411.0,740.0,0.0,1,879.0,1
1224,1224,-0.8555504713770452,-0.9,0.0,1.0,468.0,655.0,1.0,0,227.0,1
1225,1225,0.6257609305638413,0.6,0.0,0.0,298.0,542.0,0.0,1,620.0,1
1226,1226,0.22577976939447375,0.2,1.0,1.0,334.0,506.0,1.0,1,450.0,1
1227,1227,-0.8864424392149447,-0.9,1.0,0.0,364.0,704.0,0.0,0,262.0,1
1228,1228,-0.6001825633782853,-0.6,1.0,0.0,264.0,816.0,0.0,0,340.0,1
1229,1229,0.7042248666485179,0.7,1.0,1.0,368.0,567.0,1.0,1,385.0,1
1230,1230,-0.1630017587241418,-0.2,1.0,0.0,295.0,760.0,0.0,0,1135.0,1
1231,1231,-0.5957269480803798,-0.6,0.0,1.0,433.0,782.0,1.0,0,455.0,1
1232,1232,0.23926586473004485,0.2,1.0,1.0,299.0,500.0,1.0,1,951.0,1
1233,1233,-0.8309103817406022,-0.8,1.0,0.0,334.0,501.0,0.0,0,545.0,1
1234,1234,-0.7079225984358246,-0.7,0.0,1.0,311.0,677.0,1.0,0,432.0,1
1235,1235,-0.553571406134901,-0.6,1.0,0.0,384.0,828.0,0.0,0,298.0,1
1236,1236,-0.22773414465479092,-0.2,1.0,0.0,347.0,720.0,0.0,0,973.0,1
1237,1237,-0.10317871817989,-0.1,1.0,0.0,323.0,817.0,0.0,0,2190.0,1
1238,1238,-0.7645001358144021,-0.8,0.0,1.0,309.0,683.0,1.0,0,228.0,1
1239,1239,0.7940559465219158,0.8,0.0,0.0,447.0,530.0,0.0,1,353.0,1
1240,1240,-0.7072677932444487,-0.7,1.0,0.0,418.0,682.0,0.0,0,420.0,1
1241,1241,0.2998959689311137,0.3,0.0,0.0,439.0,697.0,0.0,1,404.0,1
1242,1242,0.783119603153486,0.8,0.0,0.0,337.0,986.0,0.0,1,287.0,1
1243,1243,-0.5569837354181613,-0.6,0.0,1.0,419.0,568.0,1.0,0,413.0,1
1244,1244,-0.7521312950584867,-0.8,1.0,0.0,366.0,986.0,0.0,0,128.0,1
1245,1245,0.5087733717788593,0.5,0.0,0.0,253.0,577.0,0.0,1,600.0,1
1246,1246,0.7978542864522845,0.8,0.0,0.0,366.0,590.0,0.0,1,174.0,1
1247,1247,0.1905531450418444,0.2,0.0,0.0,442.0,847.0,0.0,1,471.0,1
1248,1248,-0.8382298790744267,-0.8,1.0,0.0,417.0,593.0,0.0,0,260.0,1
1249,1249,-0.5846498507403546,-0.6,1.0,0.0,275.0,615.0,0.0,0,250.0,1
1250,1250,0.3493456234427238,0.3,1.0,1.0,396.0,732.0,1.0,1,352.0,1
1251,1251,0.5774769060822843,0.6,0.0,0.0,322.0,708.0,0.0,1,310.0,1
1252,1252,0.04555533797763378,0.0,0.0,0.0,324.0,630.0,0.0,1,756.0,1
1253,1253,-0.763241353820528,-0.8,1.0,0.0,276.0,842.0,0.0,0,482.0,1
1254,1254,0.4993709877046998,0.5,0.0,0.0,374.0,833.0,0.0,1,333.0,1
1255,1255,-0.7996436922422494,-0.8,1.0,0.0,373.0,598.0,0.0,0,389.0,1
1256,1256,0.16408419028619015,0.2,1.0,1.0,463.0,804.0,1.0,1,843.0,1
1257,1257,0.21341988630443864,0.2,1.0,1.0,355.0,959.0,1.0,1,316.0,1
1258,1258,-0.7255635724571656,-0.7,0.0,1.0,300.0,658.0,1.0,0,272.0,1
1259,1259,0.33913293859715365,0.3,1.0,1.0,355.0,846.0,1.0,1,209.0,1
1260,1260,0.6650935496623892,0.7,1.0,1.0,431.0,812.0,1.0,1,487.0,1
1261,1261,0.6363628669882936,0.6,0.0,0.0,335.0,857.0,0.0,1,178.0,1
1262,1262,-0.48026186151376554,-0.5,0.0,1.0,256.0,685.0,1.0,0,729.0,1
1263,1263,0.3166031038404843,0.3,1.0,1.0,436.0,991.0,1.0,1,323.0,1
1264,1264,-0.701993837257615,-0.7,1.0,0.0,499.0,894.0,0.0,0,57.0,1
1265,1265,-0.30317008225591435,-0.3,1.0,0.0,495.0,717.0,0.0,0,598.0,1
1266,1266,-0.22596648005564635,-0.2,1.0,0.0,270.0,740.0,0.0,0,1170.0,1
1267,1267,0.8466314476089815,0.8,0.0,0.0,292.0,962.0,0.0,1,156.0,1
1268,1268,0.6866160512094929,0.7,1.0,1.0,372.0,957.0,1.0,1,341.0,1
1269,1269,-0.5566466015903149,-0.6,1.0,0.0,381.0,537.0,0.0,0,542.0,1
1270,1270,-0.21778469052351146,-0.2,1.0,0.0,341.0,808.0,0.0,0,331.0,1
1271,1271,0.14882269858697816,0.1,0.0,0.0,381.0,575.0,0.0,1,1124.0,1
1272,1272,-0.6665845302951237,-0.7,0.0,1.0,450.0,883.0,1.0,0,277.0,1
1273,1273,-0.7157152221965711,-0.7,0.0,1.0,450.0,771.0,1.0,0,409.0,1
1274,1274,-0.31911039951449716,-0.3,1.0,0.0,364.0,912.0,0.0,0,384.0,1
1275,1275,-0.47003366344203085,-0.5,1.0,0.0,422.0,670.0,0.0,0,998.0,1
1276,1276,-0.8678043173096732,-0.9,1.0,0.0,395.0,714.0,0.0,0,481.0,1
1277,1277,-0.024889391110178405,-0.0,0.0,1.0,449.0,704.0,0.0,1,3137.0,0
1278,1278,-0.7873346536610006,-0.8,1.0,0.0,276.0,626.0,0.0,0,338.0,1
1279,1279,-0.7935496302461758,-0.8,1.0,0.0,350.0,950.0,0.0,0,230.0,1
1280,1280,-0.5430836197466793,-0.5,1.0,0.0,264.0,909.0,0.0,0,117.0,1
1281,1281,0.8691280009503327,0.9,0.0,0.0,348.0,841.0,0.0,1,151.0,1
1282,1282,0.5751357138210168,0.6,0.0,0.0,290.0,878.0,0.0,1,102.0,1
1283,1283,0.4359378989637054,0.4,0.0,0.0,339.0,525.0,0.0,1,366.0,1
1284,1284,-0.4180637151326329,-0.4,0.0,1.0,427.0,965.0,1.0,0,318.0,1
1285,1285,-0.6654752212401028,-0.7,1.0,0.0,464.0,854.0,0.0,0,372.0,1
1286,1286,-0.8093794338270583,-0.8,0.0,1.0,424.0,623.0,1.0,0,283.0,1
1287,1287,0.043992849267678436,0.0,0.0,0.0,414.0,669.0,0.0,1,1997.0,1
1288,1288,-0.5707167576360316,-0.6,1.0,0.0,420.0,565.0,0.0,0,455.0,1
1289,1289,0.27098357680303764,0.3,0.0,0.0,483.0,857.0,0.0,1,910.0,1
1290,1290,0.056932543827606374,0.1,1.0,1.0,441.0,914.0,0.0,0,3645.0,0
1291,1291,-0.18747013399050705,-0.2,0.0,1.0,358.0,648.0,1.0,0,534.0,1
1292,1292,-0.44567063870487583,-0.4,0.0,1.0,474.0,552.0,1.0,0,524.0,1
1293,1293,-0.08074731747816133,-0.1,1.0,0.0,368.0,650.0,0.0,0,502.0,1
1294,1294,0.5248738109148942,0.5,1.0,1.0,304.0,895.0,1.0,1,311.0,1
1295,1295,-0.7041424038025904,-0.7,1.0,0.0,466.0,835.0,0.0,0,329.0,1
1296,1296,-0.3189714216725644,-0.3,0.0,1.0,325.0,813.0,1.0,0,662.0,1
1297,1297,0.3035112444953344,0.3,1.0,1.0,279.0,527.0,1.0,1,434.0,1
1298,1298,0.08569859870979124,0.1,0.0,0.0,447.0,961.0,0.0,1,502.0,1
1299,1299,-0.8277875730020378,-0.8,1.0,0.0,370.0,965.0,0.0,0,195.0,1
1300,1300,0.7998186227046186,0.8,1.0,1.0,322.0,806.0,1.0,1,392.0,1
1301,1301,-0.5558865434230404,-0.6,0.0,1.0,437.0,673.0,1.0,0,550.0,1
1302,1302,-0.6242119237183068,-0.6,0.0,1.0,471.0,845.0,0.0,1,-116.0,0
1303,1303,0.04529950969414964,0.0,1.0,1.0,263.0,614.0,0.0,0,483.0,0
1304,1304,0.027231877288144024,0.0,1.0,1.0,425.0,666.0,1.0,1,3909.0,1
1305,1305,0.703488407443673,0.7,0.0,0.0,356.0,970.0,0.0,1,224.0,1
1306,1306,-0.8756647548784087,-0.9,0.0,1.0,320.0,621.0,1.0,0,169.0,1
1307,1307,-0.703492629559847,-0.7,1.0,0.0,394.0,701.0,0.0,0,135.0,1
1308,1308,0.822184825504129,0.8,0.0,0.0,488.0,840.0,0.0,1,202.0,1
1309,1309,-0.8094888709076096,-0.8,0.0,1.0,426.0,822.0,1.0,0,112.0,1
1310,1310,-0.8472372517569685,-0.8,1.0,0.0,388.0,976.0,0.0,0,126.0,1
1311,1311,-0.8207926813144479,-0.8,1.0,0.0,418.0,832.0,0.0,0,170.0,1
1312,1312,-0.04264018384692625,-0.0,0.0,1.0,411.0,751.0,0.0,1,2018.0,0
1313,1313,0.8424412638084543,0.8,1.0,1.0,261.0,538.0,1.0,1,241.0,1
1314,1314,0.22681784643238279,0.2,1.0,1.0,488.0,948.0,1.0,1,474.0,1
1315,1315,0.7416341850289251,0.7,0.0,0.0,278.0,526.0,0.0,1,366.0,1
1316,1316,0.051702506696249095,0.1,0.0,0.0,429.0,926.0,0.0,1,1165.0,1
1317,1317,-0.30716738207450134,-0.3,1.0,0.0,280.0,690.0,0.0,0,560.0,1
1318,1318,0.14390500547217433,0.1,0.0,0.0,282.0,849.0,0.0,1,379.0,1
1319,1319,-0.6872198025722402,-0.7,0.0,1.0,287.0,902.0,1.0,0,181.0,1
1320,1320,-0.5350826781116297,-0.5,1.0,0.0,301.0,996.0,0.0,0,123.0,1
1321,1321,0.24884366324422758,0.2,1.0,1.0,311.0,531.0,1.0,1,1128.0,1
1322,1322,0.32001404803457956,0.3,1.0,1.0,405.0,771.0,1.0,1,834.0,1
1323,1323,0.5261275434844196,0.5,0.0,0.0,333.0,747.0,0.0,1,230.0,1
1324,1324,-0.244432713251308,-0.2,0.0,1.0,427.0,929.0,1.0,0,774.0,1
1325,1325,-0.8761788788693315,-0.9,0.0,1.0,450.0,765.0,1.0,0,205.0,1
1326,1326,-0.08238686425447816,-0.1,0.0,1.0,403.0,598.0,1.0,0,3259.0,1
1327,1327,0.47623064827358663,0.5,1.0,1.0,487.0,642.0,1.0,1,401.0,1
1328,1328,0.2801634980658011,0.3,0.0,0.0,283.0,577.0,0.0,1,320.0,1
1329,1329,0.5903864367790909,0.6,1.0,1.0,400.0,513.0,1.0,1,287.0,1
1330,1330,0.0864029906143281,0.1,0.0,0.0,315.0,687.0,0.0,1,558.0,1
1331,1331,0.857012042037281,0.9,1.0,1.0,435.0,651.0,1.0,1,324.0,1
1332,1332,0.5864419680907701,0.6,1.0,1.0,407.0,624.0,1.0,1,229.0,1
1333,1333,0.011428912544499736,0.0,0.0,0.0,264.0,754.0,0.0,1,1712.0,1
1334,1334,-0.7112618761402489,-0.7,0.0,1.0,416.0,668.0,1.0,0,336.0,1
1335,1335,0.2514877586858807,0.3,1.0,1.0,441.0,925.0,1.0,1,804.0,1
1336,1336,0.7144984514671658,0.7,0.0,0.0,255.0,999.0,0.0,1,226.0,1
1337,1337,-0.6029855820212964,-0.6,0.0,1.0,285.0,561.0,1.0,0,264.0,1
1338,1338,-0.7777809774379023,-0.8,0.0,1.0,387.0,777.0,1.0,0,276.0,1
1339,1339,-0.09577795976283232,-0.1,0.0,1.0,284.0,507.0,0.0,1,689.0,0
1340,1340,-0.503863587237233,-0.5,0.0,1.0,352.0,961.0,1.0,0,247.0,1
1341,1341,0.41706794244043166,0.4,1.0,1.0,463.0,809.0,1.0,1,318.0,1
1342,1342,0.8427189387480684,0.8,1.0,1.0,378.0,823.0,1.0,1,259.0,1
1343,1343,0.15437486604226736,0.2,1.0,1.0,325.0,910.0,1.0,1,485.0,1
1344,1344,-0.5254731239874679,-0.5,0.0,1.0,491.0,583.0,1.0,0,496.0,1
1345,1345,0.06232350932132169,0.1,0.0,0.0,342.0,932.0,0.0,1,1896.0,1
1346,1346,-0.21064520030363276,-0.2,1.0,0.0,496.0,886.0,0.0,0,528.0,1
1347,1347,0.20301246215068047,0.2,1.0,1.0,447.0,949.0,1.0,1,284.0,1
1348,1348,0.3608136155698388,0.4,1.0,1.0,435.0,541.0,1.0,1,724.0,1
1349,1349,-0.01918090362402236,-0.0,0.0,1.0,300.0,865.0,0.0,1,385.0,0
1350,1350,-0.3958330581050362,-0.4,0.0,1.0,307.0,930.0,1.0,0,413.0,1
1351,1351,0.7852501070493035,0.8,1.0,1.0,316.0,734.0,1.0,1,80.0,1
1352,1352,-0.5652321580083457,-0.6,1.0,0.0,350.0,649.0,0.0,0,371.0,1
1353,1353,0.3194293234568789,0.3,1.0,1.0,323.0,802.0,1.0,1,425.0,1
1354,1354,-0.75184864687233,-0.8,1.0,0.0,256.0,928.0,0.0,0,496.0,1
1355,1355,-0.6818005046680913,-0.7,0.0,1.0,288.0,524.0,1.0,0,208.0,1
1356,1356,0.33534269805387396,0.3,0.0,0.0,455.0,617.0,0.0,1,358.0,1
1357,1357,-0.3137946629814957,-0.3,0.0,1.0,264.0,502.0,1.0,0,634.0,1
1358,1358,-0.2970122732995012,-0.3,0.0,1.0,274.0,500.0,1.0,0,426.0,1
1359,1359,-0.08131572975777213,-0.1,1.0,0.0,399.0,900.0,0.0,0,3701.0,1
1360,1360,0.2555311201361551,0.3,1.0,1.0,412.0,698.0,1.0,1,1170.0,1
1361,1361,0.5937358393325366,0.6,0.0,0.0,357.0,930.0,0.0,1,403.0,1
1362,1362,-0.3067482220946075,-0.3,1.0,0.0,298.0,677.0,0.0,0,405.0,1
1363,1363,0.5941645738031737,0.6,1.0,1.0,412.0,823.0,1.0,1,225.0,1
1364,1364,-0.7687423456304519,-0.8,0.0,1.0,497.0,834.0,1.0,0,329.0,1
1365,1365,-0.10129179044031511,-0.1,1.0,0.0,410.0,931.0,0.0,0,399.0,1
1366,1366,0.6895938695469127,0.7,1.0,1.0,332.0,667.0,1.0,1,251.0,1
1367,1367,0.6669336092845412,0.7,0.0,0.0,426.0,958.0,0.0,1,156.0,1
1368,1368,0.3691103800542729,0.4,1.0,1.0,480.0,567.0,1.0,1,283.0,1
1369,1369,0.08633842219405774,0.1,0.0,0.0,328.0,572.0,0.0,1,680.0,1
1370,1370,0.6871323719493162,0.7,1.0,1.0,309.0,636.0,1.0,1,185.0,1
1371,1371,0.3146264927531731,0.3,0.0,0.0,330.0,818.0,0.0,1,162.0,1
1372,1372,0.8827403337125893,0.9,1.0,1.0,335.0,999.0,1.0,1,156.0,1
1373,1373,0.6243921753907181,0.6,0.0,0.0,390.0,832.0,0.0,1,288.0,1
1374,1374,0.767130484677757,0.8,0.0,0.0,388.0,816.0,0.0,1,206.0,1
1375,1375,-0.49270420241788926,-0.5,1.0,0.0,275.0,990.0,0.0,0,205.0,1
1376,1376,0.8799252586317946,0.9,1.0,1.0,412.0,852.0,1.0,1,206.0,1
1377,1377,0.11712496293039065,0.1,1.0,1.0,303.0,931.0,1.0,1,1866.0,1
1378,1378,0.2886353594793164,0.3,0.0,0.0,359.0,510.0,0.0,1,851.0,1
1379,1379,0.1776979884481572,0.2,1.0,1.0,268.0,983.0,1.0,1,1249.0,1
1380,1380,-0.5607061766730721,-0.6,0.0,1.0,302.0,646.0,1.0,0,262.0,1
1381,1381,-0.6378240354277176,-0.6,1.0,0.0,342.0,553.0,0.0,0,225.0,1
1382,1382,-0.5118306427880718,-0.5,0.0,1.0,438.0,794.0,1.0,0,358.0,1
1383,1383,-0.6862619196350404,-0.7,0.0,1.0,349.0,858.0,1.0,0,193.0,1
1384,1384,0.5642811935483204,0.6,0.0,0.0,461.0,592.0,0.0,1,417.0,1
1385,1385,0.5573454081272374,0.6,0.0,0.0,319.0,627.0,0.0,1,464.0,1
1386,1386,0.17664734533422777,0.2,0.0,0.0,305.0,779.0,0.0,1,796.0,1
1387,1387,0.3856417499584176,0.4,0.0,0.0,349.0,812.0,0.0,1,339.0,1
1388,1388,0.7210042890984708,0.7,1.0,1.0,265.0,726.0,1.0,1,399.0,1
1389,1389,-0.229482769001374,-0.2,1.0,0.0,453.0,572.0,0.0,0,575.0,1
1390,1390,0.5769150341737302,0.6,0.0,0.0,283.0,582.0,0.0,1,345.0,1
1391,1391,-0.8997179495602767,-0.9,1.0,0.0,458.0,956.0,0.0,0,96.0,1
1392,1392,-0.4258144584054732,-0.4,0.0,1.0,478.0,672.0,1.0,0,370.0,1
1393,1393,-0.6578052804033669,-0.7,0.0,1.0,482.0,830.0,1.0,0,268.0,1
1394,1394,-0.24367450791642298,-0.2,1.0,0.0,280.0,578.0,0.0,0,1212.0,1
1395,1395,0.22666020522160102,0.2,1.0,1.0,264.0,858.0,1.0,1,458.0,1
1396,1396,-0.6754842112486668,-0.7,1.0,0.0,252.0,917.0,0.0,0,221.0,1
1397,1397,0.2535670032892797,0.3,0.0,0.0,495.0,905.0,0.0,1,160.0,1
1398,1398,0.07918978940272559,0.1,1.0,1.0,422.0,711.0,1.0,1,857.0,1
1399,1399,-0.7131756718075329,-0.7,1.0,0.0,381.0,574.0,0.0,0,285.0,1
1400,1400,-0.22514290210416454,-0.2,0.0,1.0,293.0,808.0,1.0,0,949.0,1
1401,1401,0.8534075137798179,0.9,0.0,0.0,252.0,645.0,0.0,1,373.0,1
1402,1402,0.7188105921625879,0.7,1.0,1.0,319.0,901.0,1.0,1,160.0,1
1403,1403,-0.7085069535343222,-0.7,0.0,1.0,280.0,961.0,1.0,0,109.0,1
1404,1404,0.7262896858794791,0.7,0.0,0.0,273.0,615.0,0.0,1,292.0,1
1405,1405,-0.18772904353536612,-0.2,1.0,0.0,300.0,514.0,0.0,0,866.0,1
1406,1406,0.2467601309242481,0.2,1.0,1.0,289.0,700.0,1.0,1,471.0,1
1407,1407,-0.4518038464179446,-0.5,0.0,1.0,394.0,704.0,1.0,0,1242.0,1
1408,1408,0.6339651988752341,0.6,0.0,0.0,348.0,578.0,0.0,1,424.0,1
1409,1409,0.8874639703681223,0.9,0.0,0.0,378.0,814.0,0.0,1,228.0,1
1410,1410,-0.7402622758400306,-0.7,0.0,1.0,473.0,650.0,1.0,0,387.0,1
1411,1411,-0.47344967818582306,-0.5,1.0,0.0,415.0,582.0,0.0,0,453.0,1
1412,1412,-0.200315682272053,-0.2,0.0,1.0,453.0,967.0,1.0,0,480.0,1
1413,1413,0.13305875986647042,0.1,0.0,0.0,326.0,922.0,0.0,1,692.0,1
1414,1414,0.23600076707026763,0.2,0.0,0.0,438.0,689.0,0.0,1,363.0,1
1415,1415,0.8337732293464689,0.8,1.0,1.0,295.0,988.0,1.0,1,237.0,1
1416,1416,-0.4336166085178039,-0.4,0.0,1.0,345.0,530.0,1.0,0,525.0,1
1417,1417,-0.8747160062099858,-0.9,0.0,1.0,396.0,648.0,1.0,0,406.0,1
1418,1418,-0.5044547756326232,-0.5,0.0,1.0,479.0,827.0,1.0,0,364.0,1
1419,1419,-0.7222839911268818,-0.7,0.0,1.0,393.0,508.0,1.0,0,399.0,1
1420,1420,-0.5389687025917516,-0.5,0.0,1.0,460.0,916.0,1.0,0,524.0,1
1421,1421,-0.8132357270281726,-0.8,1.0,0.0,290.0,542.0,0.0,0,358.0,1
1422,1422,0.8799982500629836,0.9,1.0,1.0,317.0,737.0,1.0,1,216.0,1
1423,1423,-0.6829263409695028,-0.7,0.0,1.0,386.0,781.0,1.0,0,303.0,1
1424,1424,-0.6799702768028768,-0.7,1.0,0.0,388.0,827.0,0.0,0,205.0,1
1425,1425,-0.4042958169735068,-0.4,0.0,1.0,452.0,664.0,1.0,0,784.0,1
1426,1426,-0.07432676398260352,-0.1,1.0,0.0,356.0,951.0,0.0,0,2043.0,1
1427,1427,-0.7758517594532479,-0.8,1.0,0.0,358.0,814.0,0.0,0,248.0,1
1428,1428,-0.507445329543553,-0.5,0.0,1.0,429.0,902.0,1.0,0,99.0,1
1429,1429,0.7425349902061015,0.7,1.0,1.0,415.0,807.0,1.0,1,258.0,1
1430,1430,-0.020453041345485312,-0.0,1.0,0.0,302.0,559.0,0.0,0,4139.0,1
1431,1431,0.1484138661466371,0.1,0.0,0.0,451.0,598.0,0.0,1,1671.0,1
1432,1432,0.5354122316857574,0.5,0.0,0.0,451.0,526.0,0.0,1,213.0,1
1433,1433,0.43446301776470186,0.4,0.0,0.0,493.0,503.0,0.0,1,504.0,1
1434,1434,-0.3973578153915257,-0.4,0.0,1.0,256.0,649.0,1.0,0,465.0,1
1435,1435,0.5151850731640842,0.5,1.0,1.0,349.0,698.0,1.0,1,383.0,1
1436,1436,-0.5226952511381759,-0.5,0.0,1.0,305.0,680.0,1.0,0,825.0,1
1437,1437,-0.2288814084147699,-0.2,0.0,1.0,396.0,829.0,1.0,0,975.0,1
1438,1438,0.8450099756234503,0.8,1.0,1.0,491.0,510.0,1.0,1,239.0,1
1439,1439,-0.12624102058224418,-0.1,0.0,1.0,359.0,878.0,1.0,0,1143.0,1
1440,1440,0.692408730417405,0.7,0.0,0.0,458.0,731.0,0.0,1,251.0,1
1441,1441,-0.6473439525175064,-0.6,1.0,0.0,321.0,690.0,0.0,0,269.0,1
1442,1442,0.15331977440223843,0.2,1.0,1.0,353.0,972.0,1.0,1,1765.0,1
1443,1443,-0.14021535804021734,-0.1,1.0,0.0,313.0,919.0,0.0,0,388.0,1
1444,1444,0.4550960675721786,0.5,0.0,0.0,447.0,603.0,0.0,1,270.0,1
1445,1445,0.6704999592001785,0.7,0.0,0.0,357.0,675.0,0.0,1,68.0,1
1446,1446,0.45245802830788506,0.5,0.0,0.0,391.0,832.0,0.0,1,197.0,1
1447,1447,-0.778988047607384,-0.8,1.0,0.0,473.0,542.0,0.0,0,475.0,1
1448,1448,-0.8452469938206931,-0.8,0.0,1.0,434.0,726.0,1.0,0,140.0,1
1449,1449,-0.7317439118708419,-0.7,1.0,0.0,464.0,617.0,0.0,0,509.0,1
1450,1450,0.027225832676101014,0.0,0.0,0.0,387.0,718.0,0.0,1,3415.0,1
1451,1451,0.670119827172493,0.7,1.0,1.0,437.0,977.0,1.0,1,226.0,1
1452,1452,-0.6446260103993546,-0.6,0.0,1.0,396.0,736.0,1.0,0,318.0,1
1453,1453,0.03541238734811192,0.0,1.0,1.0,431.0,862.0,1.0,1,857.0,1
1454,1454,-0.3972238417965135,-0.4,1.0,0.0,467.0,973.0,0.0,0,350.0,1
1455,1455,-0.46091852617288265,-0.5,0.0,1.0,331.0,965.0,1.0,0,144.0,1
1456,1456,-0.768354046902223,-0.8,1.0,0.0,410.0,854.0,0.0,0,96.0,1
1457,1457,0.6891206754034104,0.7,1.0,1.0,475.0,576.0,1.0,1,349.0,1
1458,1458,-0.5071795067622451,-0.5,0.0,1.0,291.0,951.0,1.0,0,588.0,1
1459,1459,-0.3777295465041971,-0.4,0.0,1.0,334.0,766.0,1.0,0,350.0,1
1460,1460,-0.82742645936105,-0.8,0.0,1.0,488.0,949.0,1.0,0,193.0,1
1461,1461,0.7866062280574432,0.8,0.0,0.0,453.0,546.0,0.0,1,431.0,1
1462,1462,0.5956925826798379,0.6,1.0,1.0,369.0,930.0,1.0,1,431.0,1
1463,1463,0.571609309708684,0.6,0.0,0.0,366.0,881.0,0.0,1,303.0,1
1464,1464,0.5123314451378641,0.5,1.0,1.0,329.0,500.0,1.0,1,381.0,1
1465,1465,0.8522942118233442,0.9,0.0,0.0,430.0,618.0,0.0,1,192.0,1
1466,1466,-0.4982773797916015,-0.5,0.0,1.0,417.0,981.0,1.0,0,292.0,1
1467,1467,-0.8703416086338013,-0.9,0.0,1.0,427.0,581.0,1.0,0,202.0,1
1468,1468,0.44295865816674185,0.4,0.0,0.0,350.0,990.0,0.0,1,410.0,1
1469,1469,0.7651424784836708,0.8,0.0,0.0,300.0,632.0,0.0,1,308.0,1
1470,1470,-0.4589508639296373,-0.5,0.0,1.0,251.0,773.0,1.0,0,466.0,1
1471,1471,-0.42018935538875996,-0.4,0.0,1.0,454.0,757.0,1.0,0,159.0,1
1472,1472,0.3158211862268211,0.3,1.0,1.0,488.0,563.0,1.0,1,489.0,1
1473,1473,-0.7690478861740914,-0.8,0.0,1.0,426.0,899.0,1.0,0,245.0,1
1474,1474,-0.574138157392198,-0.6,0.0,1.0,268.0,622.0,1.0,0,410.0,1
1475,1475,0.25734775624617867,0.3,0.0,0.0,358.0,645.0,0.0,1,477.0,1
1476,1476,0.20545324361230188,0.2,0.0,0.0,279.0,879.0,0.0,1,192.0,1
1477,1477,-0.6977037971769533,-0.7,1.0,0.0,323.0,867.0,0.0,0,130.0,1
1478,1478,-0.5967943243393807,-0.6,1.0,0.0,268.0,777.0,0.0,0,415.0,1
1479,1479,0.7691496285841776,0.8,0.0,0.0,307.0,812.0,0.0,1,121.0,1
1480,1480,0.38655260426606175,0.4,0.0,0.0,441.0,996.0,0.0,1,453.0,1
1481,1481,0.15392535877582392,0.2,0.0,0.0,260.0,954.0,0.0,1,726.0,1
1482,1482,-0.8671470746614924,-0.9,0.0,1.0,363.0,576.0,1.0,0,261.0,1
1483,1483,0.4833886541339353,0.5,0.0,0.0,423.0,940.0,0.0,1,257.0,1
1484,1484,-0.7373413929050934,-0.7,0.0,1.0,299.0,561.0,1.0,0,280.0,1
1485,1485,-0.673879731715609,-0.7,1.0,0.0,328.0,830.0,0.0,0,182.0,1
1486,1486,0.4425832010508094,0.4,1.0,1.0,268.0,906.0,1.0,1,406.0,1
1487,1487,-0.31994909017738604,-0.3,1.0,0.0,352.0,510.0,0.0,0,388.0,1
1488,1488,-0.3720427667755625,-0.4,0.0,1.0,306.0,898.0,1.0,0,266.0,1
1489,1489,0.7464687148537249,0.7,0.0,0.0,403.0,559.0,0.0,1,448.0,1
1490,1490,-0.4412064308374395,-0.4,0.0,1.0,405.0,639.0,1.0,0,266.0,1
1491,1491,-0.10718833911767134,-0.1,0.0,1.0,413.0,911.0,1.0,0,236.0,1
