,trial,coherence,coherence_bin,green_side,correct_side,target_onset,checker_onset,decision,green_decision,decision_time,correct_decision
0,0,0.05887119228939297,0.1,1.0,1.0,343.0,854.0,1.0,1,163.0,1
1,1,0.4388290242273033,0.4,1.0,1.0,304.0,844.0,1.0,1,82.0,1
2,2,-0.4738217913979112,-0.5,1.0,0.0,470.0,879.0,1.0,1,-69.0,0
3,3,-0.7849673107215221,-0.8,0.0,1.0,318.0,728.0,1.0,0,134.0,1
4,4,0.5198122566201108,0.5,0.0,0.0,250.0,811.0,0.0,1,229.0,1
5,5,-0.28969948248270794,-0.3,0.0,1.0,408.0,679.0,1.0,0,293.0,1
6,6,-0.17744603701112494,-0.2,1.0,0.0,481.0,984.0,0.0,0,635.0,1
7,7,-0.5774793518035106,-0.6,1.0,0.0,379.0,767.0,0.0,0,354.0,1
8,8,0.7128292781256159,0.7,1.0,1.0,326.0,962.0,1.0,1,352.0,1
9,9,-0.6510153097742231,-0.7,1.0,0.0,470.0,866.0,0.0,0,164.0,1
10,10,0.29571780084800203,0.3,1.0,1.0,433.0,864.0,1.0,1,273.0,1
11,11,0.5430429324470157,0.5,1.0,1.0,479.0,829.0,1.0,1,122.0,1
12,12,0.18429254758051739,0.2,0.0,0.0,306.0,631.0,0.0,1,583.0,1
13,13,-0.6657852800122853,-0.7,0.0,1.0,259.0,785.0,1.0,0,136.0,1
14,14,0.850717699176691,0.9,1.0,1.0,464.0,885.0,1.0,1,151.0,1
15,15,0.43922350255456977,0.4,1.0,1.0,445.0,915.0,1.0,1,80.0,1
16,16,0.8017006538634267,0.8,1.0,1.0,379.0,983.0,1.0,1,118.0,1
17,17,0.02948169669716827,0.0,1.0,1.0,451.0,830.0,0.0,0,679.0,0
18,18,0.5554086285686234,0.6,0.0,0.0,456.0,566.0,0.0,1,298.0,1
19,19,-0.6170451229944978,-0.6,0.0,1.0,331.0,859.0,1.0,0,140.0,1
20,20,-0.6672131596436103,-0.7,0.0,1.0,398.0,905.0,1.0,0,147.0,1
21,21,-0.5205053373154794,-0.5,1.0,0.0,269.0,510.0,0.0,0,651.0,1
22,22,0.33968355302295905,0.3,0.0,0.0,319.0,959.0,0.0,1,202.0,1
23,23,0.34202634570429546,0.3,0.0,0.0,286.0,851.0,0.0,1,283.0,1
24,24,-0.679596819847344,-0.7,0.0,1.0,303.0,978.0,1.0,0,49.0,1
25,25,0.19545003217388734,0.2,1.0,1.0,265.0,670.0,1.0,1,285.0,1
26,26,-0.6095114208644243,-0.6,0.0,1.0,486.0,751.0,1.0,0,143.0,1
27,27,-0.37789635691889034,-0.4,1.0,0.0,295.0,902.0,0.0,0,173.0,1
28,28,-0.7454161422934578,-0.7,0.0,1.0,252.0,750.0,1.0,0,138.0,1
29,29,0.39344005095854484,0.4,1.0,1.0,491.0,864.0,1.0,1,45.0,1
30,30,-0.012716118220574502,-0.0,1.0,0.0,324.0,547.0,1.0,1,609.0,0
31,31,0.21036734500450704,0.2,1.0,1.0,352.0,823.0,1.0,1,235.0,1
32,32,0.24890413188798577,0.2,1.0,1.0,305.0,573.0,1.0,1,332.0,1
33,33,0.2011803186586304,0.2,0.0,0.0,315.0,770.0,0.0,1,205.0,1
34,34,0.4011327309975129,0.4,1.0,1.0,292.0,913.0,1.0,1,85.0,1
35,35,-0.053171073269097646,-0.1,1.0,0.0,338.0,994.0,0.0,0,228.0,1
36,36,0.7565501369303774,0.8,0.0,0.0,364.0,561.0,0.0,1,205.0,1
37,37,-0.28098324686292453,-0.3,1.0,0.0,416.0,694.0,0.0,0,510.0,1
38,38,-0.2817342408046094,-0.3,0.0,1.0,364.0,557.0,1.0,0,349.0,1
39,39,-0.08335962938679797,-0.1,1.0,0.0,464.0,606.0,0.0,0,430.0,1
40,40,-0.2267289254143693,-0.2,0.0,1.0,486.0,835.0,1.0,0,29.0,1
41,41,0.13175733207706541,0.1,1.0,1.0,372.0,710.0,1.0,1,138.0,1
42,42,-0.04298888923718991,-0.0,0.0,1.0,478.0,780.0,1.0,0,982.0,1
43,43,0.2196901845792859,0.2,0.0,0.0,426.0,769.0,0.0,1,255.0,1
44,44,0.01587386235186239,0.0,1.0,1.0,335.0,724.0,1.0,1,241.0,1
45,45,-0.24739523102933014,-0.2,1.0,0.0,495.0,686.0,0.0,0,529.0,1
46,46,0.18268663466063872,0.2,0.0,0.0,359.0,800.0,0.0,1,381.0,1
47,47,0.2027432231800329,0.2,1.0,1.0,354.0,532.0,1.0,1,334.0,1
48,48,-0.139442418329898,-0.1,1.0,0.0,475.0,932.0,0.0,0,1243.0,1
49,49,-0.8033316186341407,-0.8,1.0,0.0,371.0,893.0,0.0,0,166.0,1
50,50,-0.5954280380253582,-0.6,1.0,0.0,287.0,776.0,0.0,0,337.0,1
51,51,0.48338879378460875,0.5,0.0,0.0,273.0,552.0,0.0,1,545.0,1
52,52,-0.11790035239036367,-0.1,1.0,0.0,345.0,973.0,0.0,0,92.0,1
53,53,-0.4868538010858669,-0.5,0.0,1.0,463.0,769.0,1.0,0,178.0,1
54,54,-0.6415461534556988,-0.6,0.0,1.0,440.0,622.0,1.0,0,198.0,1
55,55,-0.8776750837362531,-0.9,1.0,0.0,402.0,531.0,0.0,0,427.0,1
56,56,0.45229428310059105,0.5,1.0,1.0,307.0,829.0,1.0,1,324.0,1
57,57,-0.4475182859156899,-0.4,0.0,1.0,428.0,934.0,1.0,0,208.0,1
58,58,0.08023923656340237,0.1,1.0,1.0,385.0,560.0,1.0,1,355.0,1
59,59,0.6965305376982308,0.7,1.0,1.0,399.0,869.0,1.0,1,82.0,1
60,60,-0.289120295680087,-0.3,0.0,1.0,271.0,687.0,1.0,0,142.0,1
61,61,-0.4951087385300333,-0.5,0.0,1.0,445.0,935.0,1.0,0,150.0,1
62,62,0.8173197597934562,0.8,1.0,1.0,424.0,918.0,1.0,1,-152.0,1
63,63,-0.6374872332570931,-0.6,1.0,0.0,365.0,928.0,0.0,0,97.0,1
64,64,-0.23772346546504852,-0.2,1.0,0.0,423.0,661.0,0.0,0,1456.0,1
65,65,0.5176937380199763,0.5,1.0,1.0,406.0,936.0,1.0,1,28.0,1
66,66,-0.1280673805756527,-0.1,1.0,0.0,373.0,702.0,0.0,0,315.0,1
67,67,-0.801514440869669,-0.8,0.0,1.0,381.0,548.0,1.0,0,151.0,1
68,68,0.05701699891214884,0.1,1.0,1.0,471.0,777.0,1.0,1,182.0,1
69,69,0.09091909643831886,0.1,1.0,1.0,305.0,865.0,1.0,1,710.0,1
70,70,-0.1835122550059266,-0.2,1.0,0.0,459.0,994.0,0.0,0,647.0,1
71,71,0.12647448149322027,0.1,1.0,1.0,294.0,688.0,1.0,1,358.0,1
72,72,0.6017254976950769,0.6,0.0,0.0,329.0,876.0,0.0,1,165.0,1
73,73,0.5715439392294211,0.6,1.0,1.0,372.0,974.0,1.0,1,484.0,1
74,74,-0.1365170473652898,-0.1,0.0,1.0,299.0,998.0,0.0,1,193.0,0
75,75,0.3042482358480224,0.3,0.0,0.0,317.0,630.0,0.0,1,293.0,1
76,76,0.31177140771976875,0.3,0.0,0.0,429.0,798.0,0.0,1,573.0,1
77,77,0.6700848194676222,0.7,0.0,0.0,486.0,797.0,0.0,1,237.0,1
78,78,-0.7341910422842878,-0.7,0.0,1.0,341.0,807.0,1.0,0,322.0,1
79,79,-0.6915708396688894,-0.7,1.0,0.0,281.0,995.0,1.0,1,-16.0,0
80,80,0.24713442721438794,0.2,1.0,1.0,449.0,600.0,1.0,1,551.0,1
81,81,-0.8437482031172636,-0.8,0.0,1.0,345.0,697.0,1.0,0,508.0,1
82,82,0.42190123579829375,0.4,1.0,1.0,410.0,689.0,1.0,1,121.0,1
83,83,-0.3733655827537098,-0.4,0.0,1.0,310.0,801.0,1.0,0,129.0,1
84,84,0.8933240170254354,0.9,1.0,1.0,441.0,966.0,1.0,1,113.0,1
85,85,0.49713134285776606,0.5,1.0,1.0,499.0,761.0,1.0,1,160.0,1
86,86,-0.5279773879394518,-0.5,1.0,0.0,316.0,919.0,0.0,0,95.0,1
87,87,-0.3622132308849566,-0.4,1.0,0.0,376.0,501.0,0.0,0,463.0,1
88,88,0.8062392145877201,0.8,0.0,0.0,393.0,776.0,0.0,1,201.0,1
89,89,-0.5256724364788579,-0.5,1.0,0.0,451.0,903.0,0.0,0,136.0,1
90,90,-0.11897816505486747,-0.1,0.0,1.0,476.0,675.0,1.0,0,969.0,1
91,91,-0.8107793979726313,-0.8,0.0,1.0,299.0,905.0,1.0,0,126.0,1
92,92,-0.5755348921066228,-0.6,0.0,1.0,304.0,518.0,1.0,0,308.0,1
93,93,0.7272712920099152,0.7,1.0,1.0,310.0,741.0,1.0,1,49.0,1
94,94,0.8314666673565215,0.8,0.0,0.0,341.0,616.0,0.0,1,283.0,1
95,95,0.576754422106084,0.6,0.0,0.0,419.0,645.0,0.0,1,336.0,1
96,96,-0.0346291562694111,-0.0,0.0,1.0,272.0,967.0,1.0,0,781.0,1
97,97,-0.2820308385121063,-0.3,1.0,0.0,374.0,777.0,0.0,0,299.0,1
98,98,0.11762540122914589,0.1,1.0,1.0,426.0,633.0,1.0,1,311.0,1
99,99,-0.3539087881804771,-0.4,0.0,1.0,313.0,853.0,1.0,0,114.0,1
100,100,-0.012521350596959802,-0.0,1.0,0.0,414.0,827.0,1.0,1,389.0,0
101,101,0.3121279077163338,0.3,1.0,1.0,264.0,683.0,1.0,1,173.0,1
102,102,0.15031743742556902,0.2,1.0,1.0,258.0,559.0,1.0,1,503.0,1
103,103,-0.6911661676049106,-0.7,1.0,0.0,433.0,933.0,0.0,0,224.0,1
104,104,0.0767340756967072,0.1,1.0,1.0,286.0,854.0,1.0,1,610.0,1
105,105,-0.1384192172151011,-0.1,0.0,1.0,404.0,996.0,1.0,0,1380.0,1
106,106,0.8102733833689185,0.8,0.0,0.0,456.0,783.0,0.0,1,221.0,1
107,107,-0.21786307059344967,-0.2,0.0,1.0,318.0,910.0,1.0,0,92.0,1
108,108,0.8751385271994853,0.9,1.0,1.0,274.0,662.0,1.0,1,284.0,1
109,109,0.1426288548161062,0.1,0.0,0.0,402.0,944.0,0.0,1,74.0,1
110,110,-0.5013467263886753,-0.5,1.0,0.0,476.0,988.0,0.0,0,126.0,1
111,111,-0.2575694847191705,-0.3,0.0,1.0,491.0,906.0,1.0,0,213.0,1
112,112,-0.27071128565068037,-0.3,0.0,1.0,280.0,550.0,1.0,0,370.0,1
113,113,-0.4580295368805169,-0.5,1.0,0.0,304.0,852.0,0.0,0,334.0,1
114,114,0.4162240366370137,0.4,1.0,1.0,269.0,705.0,1.0,1,216.0,1
115,115,-0.05694193071930498,-0.1,0.0,1.0,341.0,669.0,1.0,0,830.0,1
116,116,-0.841001367906563,-0.8,1.0,0.0,493.0,942.0,0.0,0,145.0,1
117,117,0.08703510298790829,0.1,1.0,1.0,434.0,500.0,1.0,1,676.0,1
118,118,0.7102244206787433,0.7,1.0,1.0,458.0,589.0,1.0,1,343.0,1
119,119,-0.8740156103716117,-0.9,1.0,0.0,482.0,948.0,0.0,0,120.0,1
120,120,-0.028425524919951872,-0.0,0.0,1.0,412.0,787.0,1.0,0,831.0,1
121,121,0.5030268072812935,0.5,0.0,0.0,280.0,924.0,0.0,1,176.0,1
122,122,-0.012495516587872402,-0.0,1.0,0.0,274.0,925.0,0.0,0,601.0,1
123,123,-0.5311649517495811,-0.5,1.0,0.0,453.0,819.0,0.0,0,78.0,1
124,124,-0.7552667250568245,-0.8,0.0,1.0,377.0,985.0,1.0,0,128.0,1
125,125,-0.07219968154784528,-0.1,1.0,0.0,320.0,624.0,0.0,0,486.0,1
126,126,-0.5665256905960699,-0.6,0.0,1.0,489.0,691.0,1.0,0,350.0,1
127,127,-0.7084372387793714,-0.7,0.0,1.0,363.0,604.0,1.0,0,113.0,1
128,128,0.07201846681769408,0.1,0.0,0.0,263.0,912.0,0.0,1,425.0,1
129,129,0.17441525209952735,0.2,0.0,0.0,367.0,935.0,0.0,1,108.0,1
130,130,-0.34629519060199065,-0.3,0.0,1.0,424.0,995.0,1.0,0,241.0,1
131,131,0.11362673059790651,0.1,0.0,0.0,471.0,924.0,1.0,0,-25.0,0
132,132,0.4740857290286692,0.5,1.0,1.0,392.0,608.0,1.0,1,750.0,1
133,133,0.8175381894179338,0.8,1.0,1.0,421.0,681.0,1.0,1,178.0,1
134,134,-0.6042009964545825,-0.6,0.0,1.0,345.0,629.0,1.0,0,96.0,1
135,135,0.29173402561189243,0.3,1.0,1.0,296.0,968.0,1.0,1,-144.0,1
136,136,0.032108253815062104,0.0,1.0,1.0,424.0,838.0,1.0,1,338.0,1
137,137,-0.34406929166577604,-0.3,0.0,1.0,423.0,825.0,1.0,0,102.0,1
138,138,-0.7911911947053663,-0.8,0.0,1.0,424.0,599.0,1.0,0,257.0,1
139,139,0.5036174816327538,0.5,0.0,0.0,337.0,917.0,0.0,1,106.0,1
140,140,0.208949897147796,0.2,1.0,1.0,463.0,523.0,1.0,1,674.0,1
141,141,0.7864739907981103,0.8,1.0,1.0,303.0,776.0,1.0,1,91.0,1
142,142,0.18650349118606424,0.2,1.0,1.0,306.0,960.0,1.0,1,314.0,1
143,143,0.23837588337761806,0.2,1.0,1.0,347.0,824.0,1.0,1,329.0,1
144,144,-0.8320609652682341,-0.8,0.0,1.0,362.0,580.0,1.0,0,208.0,1
145,145,-0.6496903883069485,-0.6,1.0,0.0,276.0,771.0,0.0,0,213.0,1
146,146,-0.7403642266173067,-0.7,0.0,1.0,404.0,507.0,1.0,0,289.0,1
147,147,-0.15650880871271955,-0.2,0.0,1.0,309.0,534.0,1.0,0,367.0,1
148,148,0.5989322681905956,0.6,0.0,0.0,477.0,582.0,0.0,1,201.0,1
149,149,0.5025154304919027,0.5,0.0,0.0,275.0,631.0,0.0,1,484.0,1
150,150,0.4709094422388923,0.5,1.0,1.0,322.0,573.0,1.0,1,325.0,1
151,151,-0.7445218365427018,-0.7,0.0,1.0,283.0,669.0,1.0,0,238.0,1
152,152,0.2340510006743194,0.2,1.0,1.0,434.0,654.0,1.0,1,392.0,1
153,153,0.8803498213996496,0.9,1.0,1.0,484.0,520.0,1.0,1,686.0,1
154,154,0.3090001568889097,0.3,1.0,1.0,301.0,874.0,1.0,1,155.0,1
155,155,-0.1714529284202606,-0.2,1.0,0.0,357.0,919.0,0.0,0,224.0,1
156,156,-0.7898560434605533,-0.8,1.0,0.0,327.0,887.0,0.0,0,126.0,1
157,157,-0.7943480835641539,-0.8,0.0,1.0,350.0,702.0,1.0,0,248.0,1
158,158,0.8197572518170807,0.8,1.0,1.0,408.0,711.0,1.0,1,181.0,1
159,159,0.7525894228651145,0.8,0.0,0.0,387.0,717.0,0.0,1,186.0,1
160,160,-0.1993374304287947,-0.2,1.0,0.0,284.0,776.0,0.0,0,580.0,1
161,161,-0.747884006597447,-0.7,1.0,0.0,335.0,988.0,0.0,0,167.0,1
162,162,0.5276349082593469,0.5,0.0,0.0,478.0,970.0,0.0,1,122.0,1
163,163,-0.6016810474423067,-0.6,1.0,0.0,342.0,521.0,0.0,0,297.0,1
164,164,-0.046062753039242565,-0.0,0.0,1.0,337.0,974.0,0.0,1,1129.0,0
165,165,0.8402838389216648,0.8,1.0,1.0,387.0,896.0,1.0,1,207.0,1
166,166,0.5413794838225744,0.5,1.0,1.0,449.0,516.0,1.0,1,175.0,1
167,167,-0.8367534362637943,-0.8,1.0,0.0,387.0,704.0,0.0,0,189.0,1
168,168,0.36839587956117803,0.4,0.0,0.0,477.0,813.0,0.0,1,770.0,1
169,169,-0.4280346591193431,-0.4,0.0,1.0,292.0,584.0,1.0,0,194.0,1
170,170,-0.1701557241565993,-0.2,1.0,0.0,263.0,795.0,0.0,0,432.0,1
171,171,-0.24143061784977804,-0.2,0.0,1.0,290.0,566.0,1.0,0,774.0,1
172,172,0.5407943339032154,0.5,1.0,1.0,433.0,637.0,1.0,1,240.0,1
173,173,0.7370009515571753,0.7,1.0,1.0,296.0,596.0,1.0,1,218.0,1
174,174,-0.14397467385263407,-0.1,0.0,1.0,336.0,987.0,1.0,0,287.0,1
175,175,-0.4792534639722878,-0.5,1.0,0.0,292.0,965.0,0.0,0,143.0,1
176,176,-0.22796233404545707,-0.2,1.0,0.0,344.0,827.0,0.0,0,199.0,1
177,177,0.7879661315239365,0.8,1.0,1.0,341.0,778.0,1.0,1,171.0,1
178,178,-0.6449773528243288,-0.6,0.0,1.0,399.0,606.0,1.0,0,405.0,1
179,179,0.689054216488919,0.7,0.0,0.0,399.0,976.0,1.0,0,5.0,0
180,180,0.5454192537981318,0.5,0.0,0.0,367.0,841.0,0.0,1,142.0,1
181,181,0.6237221667139358,0.6,0.0,0.0,279.0,783.0,0.0,1,118.0,1
182,182,-0.7448526753846869,-0.7,0.0,1.0,408.0,896.0,1.0,0,346.0,1
183,183,-0.8241410098414281,-0.8,1.0,0.0,368.0,523.0,0.0,0,279.0,1
184,184,0.47117162825274306,0.5,1.0,1.0,363.0,934.0,1.0,1,323.0,1
185,185,0.3878534157884158,0.4,0.0,0.0,468.0,755.0,0.0,1,327.0,1
186,186,0.25438223603505505,0.3,1.0,1.0,283.0,667.0,1.0,1,580.0,1
187,187,-0.8715403777238276,-0.9,0.0,1.0,393.0,653.0,1.0,0,164.0,1
188,188,-0.7690799049787442,-0.8,1.0,0.0,304.0,589.0,0.0,0,167.0,1
189,189,0.20192198753866608,0.2,0.0,0.0,464.0,969.0,0.0,1,367.0,1
190,190,0.4033712782329245,0.4,0.0,0.0,347.0,511.0,0.0,1,402.0,1
191,191,0.805646804374823,0.8,1.0,1.0,407.0,619.0,1.0,1,44.0,1
192,192,-0.7890033872409344,-0.8,1.0,0.0,463.0,521.0,0.0,0,296.0,1
193,193,0.3498786915368023,0.3,0.0,0.0,413.0,989.0,0.0,1,328.0,1
194,194,-0.11820677042871763,-0.1,1.0,0.0,478.0,632.0,0.0,0,690.0,1
195,195,0.10773415367178896,0.1,1.0,1.0,385.0,760.0,1.0,1,385.0,1
196,196,0.21999192302005588,0.2,0.0,0.0,480.0,919.0,0.0,1,541.0,1
197,197,-0.8004559885692223,-0.8,0.0,1.0,411.0,571.0,1.0,0,138.0,1
198,198,-0.6743581206605078,-0.7,1.0,0.0,341.0,865.0,0.0,0,144.0,1
199,199,-0.8142732524147235,-0.8,1.0,0.0,447.0,980.0,0.0,0,173.0,1
200,200,0.899518497114593,0.9,1.0,1.0,398.0,675.0,1.0,1,57.0,1
201,201,0.6999077982602425,0.7,1.0,1.0,448.0,562.0,1.0,1,200.0,1
202,202,-0.7102891053483772,-0.7,1.0,0.0,278.0,771.0,0.0,0,211.0,1
203,203,-0.6423496290507349,-0.6,0.0,1.0,280.0,751.0,1.0,0,169.0,1
204,204,0.6511277063063833,0.7,0.0,0.0,423.0,847.0,0.0,1,170.0,1
205,205,0.057373897846173194,0.1,1.0,1.0,294.0,817.0,1.0,1,239.0,1
206,206,0.2688234811130289,0.3,0.0,0.0,358.0,800.0,0.0,1,382.0,1
207,207,-0.7532876518871445,-0.8,0.0,1.0,280.0,649.0,1.0,0,421.0,1
208,208,0.7226913477074078,0.7,0.0,0.0,278.0,741.0,0.0,1,251.0,1
209,209,0.8264149354117724,0.8,1.0,1.0,387.0,517.0,1.0,1,186.0,1
210,210,-0.2005175694501795,-0.2,1.0,0.0,337.0,627.0,0.0,0,356.0,1
211,211,0.439189608993665,0.4,1.0,1.0,312.0,586.0,1.0,1,272.0,1
212,212,0.27015144291558035,0.3,0.0,0.0,376.0,590.0,0.0,1,764.0,1
213,213,-0.7223791356154897,-0.7,1.0,0.0,351.0,775.0,0.0,0,124.0,1
214,214,0.30125748224595694,0.3,0.0,0.0,411.0,878.0,0.0,1,361.0,1
215,215,0.20205670610885307,0.2,0.0,0.0,446.0,660.0,0.0,1,454.0,1
216,216,-0.38122679016125727,-0.4,0.0,1.0,423.0,790.0,1.0,0,277.0,1
217,217,0.7561911766819663,0.8,1.0,1.0,375.0,663.0,1.0,1,152.0,1
218,218,-0.22300903946604922,-0.2,0.0,1.0,450.0,660.0,1.0,0,340.0,1
219,219,-0.8817748989443445,-0.9,1.0,0.0,377.0,978.0,0.0,0,75.0,1
220,220,0.7580660993258544,0.8,0.0,0.0,276.0,907.0,0.0,1,107.0,1
221,221,-0.10127821888635424,-0.1,1.0,0.0,495.0,674.0,1.0,1,601.0,0
222,222,-0.8236004270334523,-0.8,1.0,0.0,253.0,928.0,0.0,0,209.0,1
223,223,-0.00724729958176773,-0.0,0.0,1.0,491.0,964.0,1.0,0,185.0,1
224,224,-0.039270833159311014,-0.0,0.0,1.0,482.0,546.0,0.0,1,2912.0,0
225,225,0.3933651141040654,0.4,0.0,0.0,443.0,763.0,0.0,1,304.0,1
226,226,0.8110347277448985,0.8,1.0,1.0,468.0,903.0,1.0,1,-41.0,1
227,227,0.45212389224610583,0.5,0.0,0.0,307.0,839.0,0.0,1,394.0,1
228,228,0.8462744013979216,0.8,0.0,0.0,457.0,574.0,0.0,1,199.0,1
229,229,-0.4317379056887055,-0.4,1.0,0.0,363.0,901.0,1.0,1,-4.0,0
230,230,-0.4592001471795287,-0.5,1.0,0.0,466.0,764.0,0.0,0,340.0,1
231,231,-0.3842830413767552,-0.4,1.0,0.0,296.0,575.0,0.0,0,339.0,1
232,232,-0.3399085711555968,-0.3,1.0,0.0,263.0,981.0,0.0,0,76.0,1
233,233,0.36788625108963136,0.4,1.0,1.0,499.0,966.0,1.0,1,505.0,1
234,234,-0.7700867771279205,-0.8,0.0,1.0,470.0,658.0,1.0,0,292.0,1
235,235,-0.061510860049247884,-0.1,1.0,0.0,460.0,538.0,1.0,1,752.0,0
236,236,-0.1915252460539365,-0.2,0.0,1.0,416.0,905.0,1.0,0,139.0,1
237,237,-0.7429521394041505,-0.7,1.0,0.0,282.0,719.0,0.0,0,159.0,1
238,238,-0.6338674183092805,-0.6,1.0,0.0,375.0,712.0,0.0,0,183.0,1
239,239,0.31960715894721925,0.3,1.0,1.0,292.0,886.0,1.0,1,102.0,1
240,240,-0.5370663784304555,-0.5,1.0,0.0,302.0,643.0,0.0,0,195.0,1
241,241,-0.7325553070019221,-0.7,0.0,1.0,482.0,718.0,1.0,0,280.0,1
242,242,0.028638470615797496,0.0,0.0,0.0,426.0,987.0,0.0,1,557.0,1
243,243,0.6930202065845193,0.7,1.0,1.0,327.0,673.0,1.0,1,110.0,1
244,244,0.3664839068192326,0.4,0.0,0.0,251.0,648.0,0.0,1,231.0,1
245,245,-0.5776416977967698,-0.6,0.0,1.0,261.0,534.0,1.0,0,435.0,1
246,246,0.41774320232546847,0.4,1.0,1.0,343.0,601.0,1.0,1,336.0,1
247,247,0.6814856220784019,0.7,1.0,1.0,365.0,616.0,1.0,1,139.0,1
248,248,0.5836179653360533,0.6,0.0,0.0,418.0,737.0,0.0,1,435.0,1
249,249,0.7005798318280719,0.7,0.0,0.0,278.0,595.0,0.0,1,287.0,1
250,250,-0.6651372075748794,-0.7,0.0,1.0,458.0,666.0,1.0,0,136.0,1
251,251,-0.6170198206097872,-0.6,0.0,1.0,269.0,870.0,1.0,0,101.0,1
252,252,0.3448775276339574,0.3,1.0,1.0,302.0,737.0,1.0,1,341.0,1
253,253,0.3045355594090563,0.3,0.0,0.0,419.0,745.0,0.0,1,636.0,1
254,254,0.2981984359824238,0.3,1.0,1.0,483.0,965.0,1.0,1,242.0,1
255,255,0.5449579436210267,0.5,0.0,0.0,364.0,529.0,0.0,1,247.0,1
256,256,0.6593074153100832,0.7,0.0,0.0,473.0,643.0,0.0,1,404.0,1
257,257,0.5835288817059873,0.6,1.0,1.0,408.0,979.0,1.0,1,193.0,1
258,258,0.106020374761573,0.1,1.0,1.0,476.0,584.0,1.0,1,630.0,1
259,259,0.3987259472322481,0.4,1.0,1.0,483.0,510.0,1.0,1,247.0,1
260,260,0.02611574829672536,0.0,0.0,0.0,397.0,686.0,1.0,0,1787.0,0
261,261,-0.6270739932203887,-0.6,0.0,1.0,362.0,707.0,1.0,0,181.0,1
262,262,0.8221906840352239,0.8,0.0,0.0,313.0,972.0,0.0,1,95.0,1
263,263,-0.6296708078450957,-0.6,1.0,0.0,473.0,553.0,0.0,0,244.0,1
264,264,-0.5526315068172155,-0.6,0.0,1.0,325.0,559.0,1.0,0,296.0,1
265,265,-0.3888787801955912,-0.4,0.0,1.0,262.0,807.0,1.0,0,431.0,1
266,266,0.330676882610036,0.3,0.0,0.0,435.0,996.0,0.0,1,129.0,1
267,267,0.4717933514467373,0.5,0.0,0.0,333.0,987.0,0.0,1,230.0,1
268,268,0.517293714412712,0.5,1.0,1.0,492.0,999.0,1.0,1,469.0,1
269,269,-0.08863387389721966,-0.1,0.0,1.0,333.0,769.0,1.0,0,778.0,1
270,270,0.5868541201548919,0.6,0.0,0.0,283.0,970.0,0.0,1,117.0,1
271,271,-0.7086744678372138,-0.7,0.0,1.0,357.0,980.0,1.0,0,153.0,1
272,272,-0.4805785587076806,-0.5,1.0,0.0,326.0,752.0,0.0,0,312.0,1
273,273,0.2243810865019279,0.2,1.0,1.0,368.0,625.0,1.0,1,527.0,1
274,274,0.8218828197252616,0.8,0.0,0.0,280.0,795.0,0.0,1,215.0,1
275,275,0.33984258332687445,0.3,0.0,0.0,356.0,964.0,0.0,1,250.0,1
276,276,0.15300787764495183,0.2,0.0,0.0,481.0,972.0,0.0,1,407.0,1
277,277,-0.3305825868544868,-0.3,1.0,0.0,364.0,894.0,0.0,0,92.0,1
278,278,-0.46239418821838213,-0.5,1.0,0.0,383.0,695.0,0.0,0,202.0,1
279,279,0.7544163216882086,0.8,1.0,1.0,259.0,607.0,1.0,1,174.0,1
280,280,-0.8238368463082933,-0.8,0.0,1.0,364.0,639.0,1.0,0,217.0,1
281,281,0.38418410342401443,0.4,0.0,0.0,492.0,962.0,0.0,1,146.0,1
282,282,0.2879990426176703,0.3,0.0,0.0,443.0,632.0,0.0,1,155.0,1
283,283,-0.7185697777312976,-0.7,1.0,0.0,459.0,755.0,0.0,0,236.0,1
284,284,-0.6622903249075833,-0.7,0.0,1.0,411.0,603.0,1.0,0,216.0,1
285,285,0.5379065464946012,0.5,1.0,1.0,432.0,602.0,1.0,1,256.0,1
286,286,-0.2629504741207711,-0.3,0.0,1.0,290.0,750.0,1.0,0,740.0,1
287,287,0.06127617183740863,0.1,1.0,1.0,413.0,812.0,1.0,1,115.0,1
288,288,-0.005097944247164254,-0.0,1.0,0.0,448.0,539.0,1.0,1,363.0,0
289,289,0.7427307369618635,0.7,1.0,1.0,338.0,988.0,1.0,1,34.0,1
290,290,-0.5704140105914155,-0.6,1.0,0.0,404.0,882.0,0.0,0,224.0,1
291,291,0.6757388152904872,0.7,1.0,1.0,454.0,512.0,1.0,1,214.0,1
292,292,0.6220154526173535,0.6,0.0,0.0,260.0,750.0,0.0,1,70.0,1
293,293,-0.2561766197402523,-0.3,1.0,0.0,494.0,632.0,0.0,0,434.0,1
294,294,-0.14557489664624845,-0.1,0.0,1.0,436.0,604.0,1.0,0,660.0,1
295,295,0.7941765587167361,0.8,1.0,1.0,423.0,506.0,1.0,1,131.0,1
296,296,-0.2592601110691467,-0.3,1.0,0.0,448.0,572.0,0.0,0,300.0,1
297,297,0.6114962810611161,0.6,1.0,1.0,327.0,578.0,1.0,1,245.0,1
298,298,-0.7715672868373022,-0.8,1.0,0.0,351.0,699.0,0.0,0,190.0,1
299,299,0.7471754136748462,0.7,1.0,1.0,270.0,989.0,1.0,1,-259.0,1
300,300,0.0806773943863619,0.1,1.0,1.0,250.0,583.0,0.0,0,687.0,0
301,301,-0.06128054626926038,-0.1,0.0,1.0,408.0,641.0,1.0,0,1601.0,1
302,302,-0.29504975707351977,-0.3,1.0,0.0,346.0,682.0,0.0,0,472.0,1
303,303,0.4549557941837984,0.5,1.0,1.0,260.0,630.0,1.0,1,380.0,1
304,304,-0.2576835094404317,-0.3,0.0,1.0,432.0,855.0,1.0,0,-237.0,1
305,305,-0.5860154808926155,-0.6,1.0,0.0,452.0,768.0,0.0,0,200.0,1
306,306,-0.17830156728175195,-0.2,1.0,0.0,420.0,686.0,0.0,0,194.0,1
307,307,0.20805880966037738,0.2,0.0,0.0,450.0,611.0,0.0,1,309.0,1
308,308,0.632231719536012,0.6,0.0,0.0,273.0,532.0,0.0,1,195.0,1
309,309,0.7003249098490908,0.7,0.0,0.0,384.0,734.0,0.0,1,182.0,1
310,310,0.6430589851169203,0.6,0.0,0.0,432.0,717.0,0.0,1,211.0,1
311,311,0.35394301878527845,0.4,0.0,0.0,263.0,912.0,0.0,1,175.0,1
312,312,0.8160895706006174,0.8,0.0,0.0,404.0,546.0,0.0,1,300.0,1
313,313,0.7553376436891971,0.8,0.0,0.0,496.0,911.0,0.0,1,123.0,1
314,314,0.3166703023742553,0.3,0.0,0.0,420.0,682.0,0.0,1,448.0,1
315,315,0.7863744594477425,0.8,1.0,1.0,459.0,839.0,1.0,1,142.0,1
316,316,0.10737891818426715,0.1,1.0,1.0,485.0,794.0,1.0,1,271.0,1
317,317,0.34144532211806544,0.3,0.0,0.0,458.0,901.0,0.0,1,361.0,1
318,318,0.730797516153313,0.7,0.0,0.0,252.0,811.0,0.0,1,237.0,1
319,319,0.46090468131120443,0.5,1.0,1.0,354.0,521.0,1.0,1,265.0,1
320,320,0.18168858017068923,0.2,0.0,0.0,372.0,826.0,0.0,1,522.0,1
321,321,-0.08032015055836095,-0.1,1.0,0.0,262.0,517.0,0.0,0,1471.0,1
322,322,0.6204804756408747,0.6,0.0,0.0,359.0,623.0,0.0,1,248.0,1
323,323,0.15514754470001801,0.2,0.0,0.0,282.0,606.0,0.0,1,612.0,1
324,324,0.03932943692240087,0.0,1.0,1.0,281.0,878.0,1.0,1,91.0,1
325,325,-0.502791945711561,-0.5,1.0,0.0,429.0,578.0,0.0,0,343.0,1
326,326,-0.19021416031484628,-0.2,0.0,1.0,413.0,637.0,1.0,0,530.0,1
327,327,-0.5426059884595708,-0.5,0.0,1.0,264.0,525.0,1.0,0,361.0,1
328,328,0.5876746230099591,0.6,1.0,1.0,472.0,762.0,1.0,1,156.0,1
329,329,0.17665185006730388,0.2,0.0,0.0,265.0,702.0,0.0,1,213.0,1
330,330,-0.8792218979664552,-0.9,0.0,1.0,338.0,821.0,1.0,0,41.0,1
331,331,-0.438475500072795,-0.4,1.0,0.0,342.0,822.0,0.0,0,266.0,1
332,332,0.7469407538192875,0.7,0.0,0.0,287.0,609.0,0.0,1,124.0,1
333,333,-0.8388550282211695,-0.8,0.0,1.0,483.0,767.0,1.0,0,240.0,1
334,334,0.21615756365521344,0.2,1.0,1.0,377.0,944.0,1.0,1,269.0,1
335,335,-0.7398393625006221,-0.7,1.0,0.0,414.0,890.0,0.0,0,246.0,1
336,336,-0.1812079310064002,-0.2,0.0,1.0,409.0,882.0,1.0,0,709.0,1
337,337,-0.8023792312274791,-0.8,0.0,1.0,435.0,786.0,1.0,0,689.0,1
338,338,-0.895541508972112,-0.9,0.0,1.0,410.0,756.0,1.0,0,114.0,1
339,339,0.060233280385247556,0.1,0.0,0.0,294.0,667.0,0.0,1,539.0,1
340,340,0.38017700881509386,0.4,0.0,0.0,409.0,995.0,0.0,1,76.0,1
341,341,0.3976203651535827,0.4,0.0,0.0,426.0,621.0,0.0,1,403.0,1
342,342,0.3421636367253421,0.3,0.0,0.0,359.0,934.0,0.0,1,-103.0,1
343,343,-0.8146725867470341,-0.8,0.0,1.0,462.0,989.0,1.0,0,209.0,1
344,344,-0.6768128344495378,-0.7,1.0,0.0,432.0,718.0,0.0,0,330.0,1
345,345,0.41483298662720725,0.4,0.0,0.0,314.0,604.0,0.0,1,352.0,1
346,346,0.1252490832754417,0.1,1.0,1.0,260.0,797.0,1.0,1,1583.0,1
347,347,0.2081326726666307,0.2,1.0,1.0,383.0,589.0,1.0,1,428.0,1
348,348,-0.39433792045961813,-0.4,1.0,0.0,497.0,714.0,0.0,0,309.0,1
349,349,-0.2521274972492452,-0.3,0.0,1.0,381.0,843.0,1.0,0,276.0,1
350,350,-0.8224726332630309,-0.8,0.0,1.0,416.0,696.0,1.0,0,158.0,1
351,351,-0.016762842662012445,-0.0,1.0,0.0,469.0,892.0,1.0,1,-171.0,0
352,352,0.05038479745255475,0.1,1.0,1.0,319.0,841.0,1.0,1,1530.0,1
353,353,0.8848008711054708,0.9,0.0,0.0,493.0,630.0,0.0,1,207.0,1
354,354,0.6732510546506342,0.7,1.0,1.0,492.0,845.0,1.0,1,163.0,1
355,355,-0.8039894529082771,-0.8,0.0,1.0,321.0,848.0,1.0,0,251.0,1
356,356,0.24819884572008333,0.2,0.0,0.0,396.0,525.0,0.0,1,499.0,1
357,357,0.3571625937356183,0.4,0.0,0.0,356.0,582.0,0.0,1,562.0,1
358,358,-0.8450270243109776,-0.8,1.0,0.0,475.0,745.0,0.0,0,130.0,1
359,359,0.5692176108442298,0.6,1.0,1.0,288.0,953.0,1.0,1,-161.0,1
360,360,0.8605916022297319,0.9,1.0,1.0,294.0,845.0,1.0,1,81.0,1
361,361,-0.1149360091199616,-0.1,1.0,0.0,416.0,843.0,0.0,0,391.0,1
362,362,0.31293156003930644,0.3,1.0,1.0,467.0,667.0,1.0,1,316.0,1
363,363,0.34386308205396465,0.3,0.0,0.0,494.0,737.0,0.0,1,99.0,1
364,364,0.20057919587950412,0.2,1.0,1.0,487.0,536.0,1.0,1,357.0,1
365,365,-0.8692740862505954,-0.9,1.0,0.0,498.0,707.0,0.0,0,225.0,1
366,366,-0.6724022579380758,-0.7,1.0,0.0,272.0,952.0,0.0,0,256.0,1
367,367,-0.5926950390493377,-0.6,0.0,1.0,323.0,597.0,1.0,0,320.0,1
368,368,0.3281148778694015,0.3,0.0,0.0,395.0,724.0,0.0,1,321.0,1
369,369,0.2619856814878604,0.3,1.0,1.0,446.0,531.0,1.0,1,393.0,1
370,370,0.47104895769285793,0.5,1.0,1.0,308.0,540.0,1.0,1,202.0,1
371,371,0.7271344073084044,0.7,0.0,0.0,345.0,637.0,0.0,1,258.0,1
372,372,0.010019995669448223,0.0,1.0,1.0,494.0,822.0,0.0,0,574.0,0
373,373,-0.4949596094934379,-0.5,0.0,1.0,314.0,619.0,1.0,0,197.0,1
374,374,0.29200652174061104,0.3,0.0,0.0,417.0,905.0,0.0,1,388.0,1
375,375,0.1709000199792584,0.2,1.0,1.0,380.0,712.0,1.0,1,258.0,1
376,376,-0.4049410859996174,-0.4,0.0,1.0,304.0,837.0,1.0,0,219.0,1
377,377,-0.14701675122103086,-0.1,1.0,0.0,386.0,961.0,0.0,0,273.0,1
378,378,-0.45888503048429496,-0.5,1.0,0.0,449.0,597.0,0.0,0,424.0,1
379,379,-0.2848676986515991,-0.3,0.0,1.0,420.0,966.0,1.0,0,-6.0,1
380,380,0.39417442302854966,0.4,0.0,0.0,287.0,798.0,0.0,1,135.0,1
381,381,0.541457710775075,0.5,0.0,0.0,367.0,931.0,0.0,1,342.0,1
382,382,0.012247868375097948,0.0,0.0,0.0,251.0,562.0,1.0,0,1947.0,0
383,383,0.8698332353392774,0.9,1.0,1.0,387.0,977.0,1.0,1,126.0,1
384,384,-0.627872254436401,-0.6,0.0,1.0,273.0,853.0,1.0,0,194.0,1
385,385,-0.5198566967545366,-0.5,1.0,0.0,433.0,652.0,0.0,0,475.0,1
386,386,0.06664196858970861,0.1,1.0,1.0,408.0,663.0,1.0,1,409.0,1
387,387,0.12925274066311243,0.1,1.0,1.0,408.0,836.0,1.0,1,416.0,1
388,388,-0.3617175144807794,-0.4,1.0,0.0,305.0,790.0,1.0,1,-55.0,0
389,389,0.8782094638998651,0.9,1.0,1.0,275.0,727.0,1.0,1,108.0,1
390,390,0.693247290543152,0.7,1.0,1.0,287.0,504.0,1.0,1,199.0,1
391,391,0.8912424593571971,0.9,0.0,0.0,464.0,954.0,0.0,1,162.0,1
392,392,0.6699891983210452,0.7,1.0,1.0,314.0,844.0,1.0,1,102.0,1
393,393,0.59832949141331,0.6,0.0,0.0,372.0,778.0,0.0,1,130.0,1
394,394,-0.12063344964882827,-0.1,0.0,1.0,370.0,587.0,1.0,0,343.0,1
395,395,0.44803383988891243,0.4,0.0,0.0,389.0,827.0,0.0,1,164.0,1
396,396,-0.8215881335481756,-0.8,1.0,0.0,494.0,576.0,0.0,0,410.0,1
397,397,0.12901175839237566,0.1,0.0,0.0,351.0,977.0,1.0,0,-48.0,0
398,398,-0.06528773620563566,-0.1,1.0,0.0,372.0,724.0,0.0,0,844.0,1
399,399,-0.4594322527111672,-0.5,0.0,1.0,263.0,582.0,1.0,0,255.0,1
400,400,-0.7608851751153847,-0.8,0.0,1.0,408.0,860.0,1.0,0,82.0,1
401,401,0.8648014568089172,0.9,1.0,1.0,450.0,765.0,1.0,1,75.0,1
402,402,-0.43458793223438746,-0.4,0.0,1.0,468.0,708.0,1.0,0,404.0,1
403,403,0.712143088147306,0.7,0.0,0.0,399.0,555.0,0.0,1,426.0,1
404,404,0.28925808318293356,0.3,1.0,1.0,456.0,639.0,1.0,1,295.0,1
405,405,-0.7834445432346635,-0.8,0.0,1.0,477.0,862.0,1.0,0,181.0,1
406,406,-0.2198239244618022,-0.2,0.0,1.0,467.0,716.0,1.0,0,407.0,1
407,407,-0.10777071887095957,-0.1,1.0,0.0,265.0,976.0,0.0,0,829.0,1
408,408,-0.14405697691145003,-0.1,1.0,0.0,350.0,660.0,0.0,0,410.0,1
409,409,-0.6524903867461366,-0.7,0.0,1.0,464.0,855.0,1.0,0,111.0,1
410,410,0.24906235191291748,0.2,1.0,1.0,454.0,533.0,1.0,1,403.0,1
411,411,-0.31932202271141075,-0.3,0.0,1.0,429.0,742.0,1.0,0,99.0,1
412,412,-0.5656832787843544,-0.6,0.0,1.0,280.0,811.0,1.0,0,269.0,1
413,413,-0.41447963594905773,-0.4,1.0,0.0,432.0,835.0,0.0,0,403.0,1
414,414,-0.22274978575657967,-0.2,1.0,0.0,261.0,712.0,0.0,0,477.0,1
415,415,-0.16573364843606486,-0.2,1.0,0.0,378.0,924.0,0.0,0,228.0,1
416,416,-0.31666856322688874,-0.3,0.0,1.0,448.0,522.0,1.0,0,440.0,1
417,417,-0.31792474217234146,-0.3,1.0,0.0,492.0,813.0,0.0,0,85.0,1
418,418,0.6216415221403163,0.6,1.0,1.0,271.0,516.0,1.0,1,323.0,1
419,419,-0.7432220184508351,-0.7,0.0,1.0,444.0,848.0,1.0,0,98.0,1
420,420,-0.3352609640927018,-0.3,0.0,1.0,308.0,703.0,1.0,0,239.0,1
421,421,-0.878695989582916,-0.9,1.0,0.0,295.0,729.0,0.0,0,136.0,1
422,422,-0.3131600894885662,-0.3,0.0,1.0,299.0,745.0,1.0,0,156.0,1
423,423,0.13842359527547965,0.1,0.0,0.0,487.0,576.0,1.0,0,317.0,0
424,424,-0.02809976959070637,-0.0,1.0,0.0,427.0,554.0,0.0,0,1329.0,1
425,425,0.2989216317970035,0.3,1.0,1.0,369.0,944.0,1.0,1,127.0,1
426,426,0.22553539693546376,0.2,1.0,1.0,389.0,775.0,1.0,1,586.0,1
427,427,0.7496500960009328,0.7,0.0,0.0,392.0,925.0,0.0,1,103.0,1
428,428,-0.3118230328183479,-0.3,0.0,1.0,389.0,904.0,1.0,0,227.0,1
429,429,0.22046930381540386,0.2,1.0,1.0,354.0,664.0,1.0,1,222.0,1
430,430,0.6127874789420155,0.6,1.0,1.0,483.0,768.0,1.0,1,299.0,1
431,431,-0.2971634784178956,-0.3,1.0,0.0,445.0,791.0,0.0,0,274.0,1
432,432,-0.27870277036014435,-0.3,1.0,0.0,451.0,764.0,0.0,0,385.0,1
433,433,0.5244684678845618,0.5,0.0,0.0,286.0,937.0,0.0,1,87.0,1
434,434,-0.7231360611887441,-0.7,0.0,1.0,269.0,902.0,1.0,0,129.0,1
435,435,-0.1459995933976559,-0.1,1.0,0.0,472.0,982.0,1.0,1,-64.0,0
436,436,-0.3738467144010307,-0.4,1.0,0.0,378.0,876.0,0.0,0,16.0,1
437,437,-0.33808142425365406,-0.3,0.0,1.0,461.0,764.0,1.0,0,455.0,1
438,438,0.2959832337531557,0.3,1.0,1.0,310.0,604.0,1.0,1,456.0,1
439,439,-0.25938498337557403,-0.3,1.0,0.0,270.0,570.0,0.0,0,640.0,1
440,440,-0.31461470474681963,-0.3,1.0,0.0,483.0,952.0,0.0,0,435.0,1
441,441,0.7243727299152333,0.7,1.0,1.0,437.0,637.0,1.0,1,206.0,1
442,442,0.4462337136099689,0.4,0.0,0.0,478.0,637.0,0.0,1,355.0,1
443,443,-0.05444700566033134,-0.1,1.0,0.0,305.0,965.0,0.0,0,160.0,1
444,444,0.3286331506303043,0.3,1.0,1.0,349.0,897.0,1.0,1,-216.0,1
445,445,-0.45564411175428865,-0.5,0.0,1.0,412.0,753.0,1.0,0,265.0,1
446,446,0.16910137287504845,0.2,1.0,1.0,411.0,876.0,1.0,1,173.0,1
447,447,0.5993928369665883,0.6,1.0,1.0,401.0,864.0,1.0,1,85.0,1
448,448,0.8127981121248281,0.8,1.0,1.0,448.0,792.0,1.0,1,90.0,1
449,449,0.04863025385980024,0.0,0.0,0.0,489.0,898.0,0.0,1,173.0,1
450,450,-0.46732542316684517,-0.5,1.0,0.0,315.0,878.0,0.0,0,157.0,1
451,451,-0.5473095647239761,-0.5,1.0,0.0,489.0,781.0,0.0,0,320.0,1
452,452,0.7220712661746774,0.7,1.0,1.0,438.0,883.0,1.0,1,39.0,1
453,453,0.8381185501302634,0.8,1.0,1.0,264.0,730.0,1.0,1,426.0,1
454,454,0.8108139159343662,0.8,0.0,0.0,481.0,696.0,0.0,1,83.0,1
455,455,-0.888647352290785,-0.9,0.0,1.0,439.0,872.0,1.0,0,99.0,1
456,456,0.7709672635482093,0.8,0.0,0.0,336.0,767.0,0.0,1,187.0,1
457,457,0.3498706026133759,0.3,1.0,1.0,321.0,802.0,1.0,1,127.0,1
458,458,-0.25342234631116345,-0.3,1.0,0.0,461.0,937.0,1.0,1,-8.0,0
459,459,0.42368078159702505,0.4,1.0,1.0,366.0,833.0,1.0,1,151.0,1
460,460,0.19709053666120202,0.2,1.0,1.0,421.0,976.0,1.0,1,273.0,1
461,461,0.49492662790368225,0.5,1.0,1.0,493.0,535.0,1.0,1,342.0,1
462,462,0.51390660498156,0.5,1.0,1.0,499.0,965.0,1.0,1,106.0,1
463,463,0.47972982961896926,0.5,1.0,1.0,350.0,880.0,1.0,1,140.0,1
464,464,0.6202008842428254,0.6,1.0,1.0,280.0,633.0,1.0,1,287.0,1
465,465,-0.16330634822904933,-0.2,1.0,0.0,419.0,841.0,0.0,0,570.0,1
466,466,-0.5167708692625483,-0.5,0.0,1.0,287.0,632.0,1.0,0,221.0,1
467,467,0.13427097564781942,0.1,1.0,1.0,251.0,776.0,1.0,1,133.0,1
468,468,0.04742177374472978,0.0,1.0,1.0,461.0,860.0,1.0,1,1359.0,1
469,469,0.5320178188982737,0.5,1.0,1.0,426.0,565.0,1.0,1,269.0,1
470,470,-0.885152852619872,-0.9,0.0,1.0,338.0,815.0,1.0,0,177.0,1
471,471,0.6922628341983886,0.7,0.0,0.0,342.0,825.0,0.0,1,143.0,1
472,472,0.14110236534230103,0.1,1.0,1.0,321.0,501.0,1.0,1,378.0,1
473,473,0.7390237215009191,0.7,1.0,1.0,457.0,560.0,1.0,1,253.0,1
474,474,0.7421337357189063,0.7,1.0,1.0,493.0,702.0,1.0,1,95.0,1
475,475,-0.7906665741274675,-0.8,1.0,0.0,310.0,585.0,0.0,0,275.0,1
476,476,0.09987673915650264,0.1,1.0,1.0,389.0,963.0,1.0,1,1028.0,1
477,477,0.35184220974532676,0.4,1.0,1.0,455.0,908.0,1.0,1,247.0,1
478,478,-0.7518172619599162,-0.8,0.0,1.0,383.0,544.0,1.0,0,323.0,1
479,479,-0.7144924683482059,-0.7,1.0,0.0,344.0,664.0,0.0,0,352.0,1
480,480,-0.4388893385973349,-0.4,0.0,1.0,367.0,908.0,1.0,0,175.0,1
481,481,0.11932519746645165,0.1,1.0,1.0,251.0,941.0,1.0,1,528.0,1
482,482,-0.7352895428737416,-0.7,1.0,0.0,256.0,590.0,0.0,0,324.0,1
483,483,-0.27683854119918594,-0.3,0.0,1.0,425.0,933.0,1.0,0,212.0,1
484,484,0.6079274224331007,0.6,0.0,0.0,291.0,941.0,0.0,1,168.0,1
485,485,-0.47247020925791194,-0.5,1.0,0.0,414.0,617.0,0.0,0,489.0,1
486,486,-0.15348429411511733,-0.2,0.0,1.0,361.0,677.0,1.0,0,662.0,1
487,487,0.2176936903465122,0.2,0.0,0.0,359.0,529.0,0.0,1,362.0,1
488,488,-0.8078771711333286,-0.8,0.0,1.0,338.0,776.0,1.0,0,186.0,1
489,489,-0.5007798611199451,-0.5,0.0,1.0,457.0,985.0,1.0,0,78.0,1
490,490,-0.23187040682218218,-0.2,0.0,1.0,479.0,603.0,1.0,0,218.0,1
491,491,0.5223428712919692,0.5,0.0,0.0,301.0,816.0,0.0,1,93.0,1
492,492,-0.5966540214377549,-0.6,0.0,1.0,295.0,896.0,1.0,0,139.0,1
493,493,0.28528544228534336,0.3,1.0,1.0,301.0,693.0,1.0,1,326.0,1
494,494,-0.5901070991116504,-0.6,1.0,0.0,304.0,806.0,0.0,0,150.0,1
495,495,-0.8793165697507708,-0.9,0.0,1.0,493.0,866.0,1.0,0,111.0,1
496,496,-0.03666037990368742,-0.0,0.0,1.0,471.0,520.0,0.0,1,509.0,0
497,497,-0.6056438489051175,-0.6,1.0,0.0,278.0,681.0,0.0,0,121.0,1
498,498,-0.40184855336525493,-0.4,1.0,0.0,305.0,812.0,0.0,0,263.0,1
499,499,0.6308379735535236,0.6,1.0,1.0,488.0,725.0,1.0,1,57.0,1
500,500,0.39500768525919294,0.4,0.0,0.0,287.0,873.0,0.0,1,80.0,1
501,501,-0.0006662500011067607,-0.0,0.0,1.0,354.0,922.0,1.0,0,634.0,1
502,502,-0.442811729202542,-0.4,1.0,0.0,316.0,675.0,0.0,0,289.0,1
503,503,-0.20519510018837495,-0.2,0.0,1.0,467.0,764.0,1.0,0,169.0,1
504,504,0.5111063332917166,0.5,1.0,1.0,371.0,580.0,1.0,1,329.0,1
505,505,0.7289261676931066,0.7,1.0,1.0,353.0,813.0,1.0,1,154.0,1
506,506,-0.8643919376083429,-0.9,0.0,1.0,430.0,654.0,1.0,0,246.0,1
507,507,0.7918331920790777,0.8,1.0,1.0,325.0,553.0,1.0,1,352.0,1
508,508,0.3858412513464472,0.4,0.0,0.0,258.0,555.0,0.0,1,537.0,1
509,509,0.8416182314605963,0.8,0.0,0.0,452.0,521.0,0.0,1,367.0,1
510,510,-0.32733315170944255,-0.3,1.0,0.0,452.0,724.0,0.0,0,404.0,1
511,511,-0.18366450962113468,-0.2,1.0,0.0,256.0,989.0,1.0,1,-45.0,0
512,512,0.8848169042684834,0.9,1.0,1.0,440.0,652.0,1.0,1,208.0,1
513,513,0.602305941536411,0.6,0.0,0.0,427.0,546.0,0.0,1,367.0,1
514,514,0.1260453313378288,0.1,1.0,1.0,410.0,957.0,1.0,1,813.0,1
515,515,0.8559338093091634,0.9,0.0,0.0,344.0,731.0,0.0,1,165.0,1
516,516,-0.6461684239344412,-0.6,1.0,0.0,420.0,882.0,0.0,0,138.0,1
517,517,-0.39712697112167217,-0.4,0.0,1.0,454.0,738.0,1.0,0,178.0,1
518,518,-0.47920482007801357,-0.5,1.0,0.0,381.0,625.0,0.0,0,334.0,1
519,519,-0.4391181089806763,-0.4,0.0,1.0,333.0,852.0,1.0,0,135.0,1
520,520,0.6318026324563987,0.6,1.0,1.0,325.0,686.0,1.0,1,209.0,1
521,521,-0.8971531851561082,-0.9,1.0,0.0,269.0,859.0,0.0,0,202.0,1
522,522,-0.7372702961127872,-0.7,1.0,0.0,401.0,854.0,0.0,0,265.0,1
523,523,0.14835221625477402,0.1,1.0,1.0,470.0,650.0,1.0,1,460.0,1
524,524,-0.7213582355850989,-0.7,1.0,0.0,274.0,769.0,0.0,0,227.0,1
525,525,0.5953176897889302,0.6,1.0,1.0,350.0,847.0,1.0,1,93.0,1
526,526,-0.8627495828430566,-0.9,0.0,1.0,381.0,782.0,1.0,0,117.0,1
527,527,-0.736909374788072,-0.7,1.0,0.0,378.0,593.0,0.0,0,209.0,1
528,528,0.40088635482926527,0.4,1.0,1.0,306.0,958.0,1.0,1,86.0,1
529,529,-0.40129198657074816,-0.4,1.0,0.0,387.0,662.0,0.0,0,381.0,1
530,530,0.3149957432873086,0.3,1.0,1.0,424.0,943.0,1.0,1,173.0,1
531,531,-0.8120202386138736,-0.8,0.0,1.0,270.0,598.0,1.0,0,422.0,1
532,532,-0.03326681726688385,-0.0,0.0,1.0,320.0,585.0,1.0,0,1005.0,1
533,533,0.821853871478394,0.8,0.0,0.0,465.0,700.0,0.0,1,165.0,1
534,534,-0.13783542411347383,-0.1,1.0,0.0,479.0,933.0,1.0,1,18.0,0
535,535,-0.3174374569749865,-0.3,1.0,0.0,458.0,842.0,0.0,0,470.0,1
536,536,0.06689071845662531,0.1,0.0,0.0,468.0,866.0,0.0,1,216.0,1
537,537,-0.8495428580902179,-0.8,0.0,1.0,319.0,986.0,1.0,0,95.0,1
538,538,-0.0025431283306837082,-0.0,0.0,1.0,364.0,998.0,1.0,0,-212.0,1
539,539,0.03702775588095719,0.0,0.0,0.0,498.0,757.0,0.0,1,795.0,1
540,540,-0.4129055974208356,-0.4,1.0,0.0,344.0,655.0,0.0,0,321.0,1
541,541,-0.28855089852108495,-0.3,1.0,0.0,410.0,602.0,0.0,0,258.0,1
542,542,-0.8527947889133014,-0.9,1.0,0.0,294.0,887.0,0.0,0,109.0,1
543,543,-0.4832001648649296,-0.5,0.0,1.0,308.0,848.0,1.0,0,54.0,1
544,544,0.4234434887015507,0.4,0.0,0.0,356.0,619.0,0.0,1,235.0,1
545,545,-0.03301731208023451,-0.0,1.0,0.0,396.0,862.0,0.0,0,232.0,1
546,546,0.27430328309316365,0.3,0.0,0.0,436.0,590.0,0.0,1,414.0,1
547,547,0.3054608402065767,0.3,1.0,1.0,368.0,532.0,1.0,1,380.0,1
548,548,-0.7751721840898441,-0.8,0.0,1.0,355.0,793.0,1.0,0,172.0,1
549,549,0.5479957691994782,0.5,1.0,1.0,312.0,829.0,1.0,1,299.0,1
550,550,-0.5656381066351079,-0.6,0.0,1.0,428.0,648.0,1.0,0,174.0,1
551,551,-0.8056737588019375,-0.8,1.0,0.0,356.0,734.0,0.0,0,240.0,1
552,552,0.6786364012919662,0.7,0.0,0.0,364.0,837.0,0.0,1,149.0,1
553,553,-0.04426336365166417,-0.0,0.0,1.0,392.0,767.0,0.0,1,1401.0,0
554,554,-0.045079069098163393,-0.0,0.0,1.0,330.0,720.0,1.0,0,690.0,1
555,555,-0.05159141931071398,-0.1,1.0,0.0,342.0,935.0,0.0,0,223.0,1
556,556,-0.4934642516515058,-0.5,1.0,0.0,286.0,878.0,0.0,0,146.0,1
557,557,0.11892604326567213,0.1,0.0,0.0,331.0,956.0,0.0,1,423.0,1
558,558,-0.6063899950760314,-0.6,0.0,1.0,338.0,583.0,1.0,0,279.0,1
559,559,0.7651032373552992,0.8,1.0,1.0,475.0,992.0,1.0,1,133.0,1
560,560,0.8747284775745455,0.9,0.0,0.0,347.0,963.0,0.0,1,30.0,1
561,561,-0.45690426793464517,-0.5,0.0,1.0,384.0,667.0,1.0,0,279.0,1
562,562,0.5728674853140633,0.6,0.0,0.0,283.0,993.0,0.0,1,134.0,1
563,563,0.3523937930477433,0.4,1.0,1.0,307.0,860.0,1.0,1,163.0,1
564,564,-0.632240973758831,-0.6,1.0,0.0,343.0,634.0,0.0,0,333.0,1
565,565,-0.7400779681784817,-0.7,1.0,0.0,464.0,751.0,0.0,0,155.0,1
566,566,0.8259606024121516,0.8,1.0,1.0,491.0,868.0,1.0,1,161.0,1
567,567,-0.8410964845401286,-0.8,0.0,1.0,408.0,812.0,1.0,0,180.0,1
568,568,0.008091684779405028,0.0,1.0,1.0,475.0,810.0,1.0,1,215.0,1
569,569,0.8385494780471369,0.8,1.0,1.0,342.0,528.0,1.0,1,160.0,1
570,570,-0.48425849194840226,-0.5,1.0,0.0,276.0,702.0,0.0,0,512.0,1
571,571,0.8596047067071263,0.9,1.0,1.0,344.0,902.0,1.0,1,74.0,1
572,572,-0.4847612756789358,-0.5,0.0,1.0,330.0,904.0,1.0,0,266.0,1
573,573,0.6981208830042022,0.7,0.0,0.0,319.0,916.0,0.0,1,145.0,1
574,574,-0.8412598032898593,-0.8,1.0,0.0,417.0,615.0,0.0,0,268.0,1
575,575,-0.30738554127778517,-0.3,1.0,0.0,468.0,507.0,0.0,0,635.0,1
576,576,0.21988922961764545,0.2,0.0,0.0,314.0,731.0,0.0,1,695.0,1
577,577,-0.040483233572026545,-0.0,1.0,0.0,288.0,566.0,1.0,1,486.0,0
578,578,0.6328376965109447,0.6,1.0,1.0,313.0,902.0,1.0,1,45.0,1
579,579,-0.3425487478670646,-0.3,1.0,0.0,373.0,666.0,0.0,0,371.0,1
580,580,-0.19859464342349498,-0.2,1.0,0.0,368.0,894.0,0.0,0,448.0,1
581,581,0.43605067763200955,0.4,1.0,1.0,435.0,938.0,1.0,1,217.0,1
582,582,0.7645060897338981,0.8,0.0,0.0,265.0,950.0,0.0,1,35.0,1
583,583,-0.16590824928484516,-0.2,1.0,0.0,428.0,543.0,0.0,0,1179.0,1
584,584,0.2815534993508896,0.3,0.0,0.0,355.0,846.0,0.0,1,149.0,1
585,585,-0.8044758696731654,-0.8,1.0,0.0,346.0,997.0,0.0,0,57.0,1
586,586,0.4528406956025247,0.5,1.0,1.0,355.0,776.0,1.0,1,159.0,1
587,587,-0.21802896403493977,-0.2,1.0,0.0,315.0,567.0,0.0,0,288.0,1
588,588,-0.8237226544064463,-0.8,0.0,1.0,439.0,797.0,1.0,0,164.0,1
589,589,-0.0096238642111387,-0.0,1.0,0.0,386.0,935.0,1.0,1,2139.0,0
590,590,-0.7500272464837623,-0.8,1.0,0.0,262.0,933.0,0.0,0,165.0,1
591,591,0.8456425999057952,0.8,0.0,0.0,345.0,619.0,0.0,1,326.0,1
592,592,0.8075622022703858,0.8,0.0,0.0,268.0,880.0,0.0,1,92.0,1
593,593,0.4728400651200312,0.5,0.0,0.0,458.0,680.0,0.0,1,422.0,1
594,594,0.8336835466289577,0.8,1.0,1.0,349.0,758.0,1.0,1,93.0,1
595,595,0.44466702606101827,0.4,0.0,0.0,445.0,504.0,0.0,1,361.0,1
596,596,0.577762256250992,0.6,1.0,1.0,289.0,978.0,1.0,1,63.0,1
597,597,0.30152544050819985,0.3,1.0,1.0,303.0,653.0,1.0,1,444.0,1
598,598,-0.6624123099743349,-0.7,0.0,1.0,315.0,672.0,1.0,0,73.0,1
599,599,-0.3229000388101364,-0.3,1.0,0.0,257.0,905.0,1.0,1,-12.0,0
600,600,-0.7950459842415174,-0.8,1.0,0.0,295.0,841.0,0.0,0,124.0,1
601,601,0.3618159091430472,0.4,1.0,1.0,375.0,669.0,1.0,1,206.0,1
602,602,-0.3361970395846996,-0.3,0.0,1.0,269.0,699.0,1.0,0,172.0,1
603,603,0.8791163351707415,0.9,1.0,1.0,327.0,681.0,1.0,1,172.0,1
604,604,0.4152789343268489,0.4,0.0,0.0,434.0,737.0,0.0,1,119.0,1
605,605,0.7171095475592671,0.7,0.0,0.0,364.0,860.0,0.0,1,196.0,1
606,606,0.014431992604936106,0.0,1.0,1.0,256.0,519.0,1.0,1,425.0,1
607,607,0.5404803435885063,0.5,0.0,0.0,438.0,921.0,0.0,1,71.0,1
608,608,-0.21090720043326217,-0.2,1.0,0.0,407.0,800.0,0.0,0,513.0,1
609,609,0.5980550835822008,0.6,1.0,1.0,499.0,798.0,1.0,1,-107.0,1
610,610,-0.09809973374422098,-0.1,1.0,0.0,286.0,944.0,0.0,0,90.0,1
611,611,0.775762930924312,0.8,0.0,0.0,252.0,765.0,0.0,1,163.0,1
612,612,-0.22858651527955798,-0.2,0.0,1.0,495.0,695.0,1.0,0,150.0,1
613,613,-0.7358087602603801,-0.7,0.0,1.0,257.0,702.0,1.0,0,161.0,1
614,614,0.03962693083673574,0.0,0.0,0.0,259.0,594.0,0.0,1,687.0,1
615,615,-0.1775446317728303,-0.2,1.0,0.0,387.0,983.0,1.0,1,60.0,0
616,616,0.3813962427515222,0.4,0.0,0.0,342.0,734.0,0.0,1,324.0,1
617,617,0.18006323802928026,0.2,0.0,0.0,251.0,617.0,0.0,1,422.0,1
618,618,0.4647752617699027,0.5,1.0,1.0,430.0,811.0,1.0,1,39.0,1
619,619,0.7799176580806103,0.8,1.0,1.0,463.0,807.0,1.0,1,240.0,1
620,620,-0.8126924810410802,-0.8,0.0,1.0,499.0,831.0,1.0,0,0.0,1
621,621,-0.1958099258862931,-0.2,1.0,0.0,466.0,851.0,0.0,0,1293.0,1
622,622,0.6282535919759445,0.6,1.0,1.0,326.0,998.0,1.0,1,96.0,1
623,623,-0.7000709376301275,-0.7,1.0,0.0,409.0,901.0,0.0,0,130.0,1
624,624,-0.2978009509496503,-0.3,1.0,0.0,435.0,987.0,0.0,0,118.0,1
625,625,-0.6642445462195773,-0.7,1.0,0.0,329.0,948.0,0.0,0,163.0,1
626,626,0.8917070434724516,0.9,0.0,0.0,273.0,631.0,0.0,1,286.0,1
627,627,-0.3660204014763575,-0.4,1.0,0.0,496.0,543.0,0.0,0,381.0,1
628,628,0.32404200235748337,0.3,1.0,1.0,437.0,708.0,1.0,1,205.0,1
629,629,0.6514553889139701,0.7,0.0,0.0,404.0,907.0,0.0,1,199.0,1
630,630,0.5148512017264738,0.5,1.0,1.0,498.0,522.0,1.0,1,560.0,1
631,631,-0.37469503684947836,-0.4,1.0,0.0,376.0,689.0,0.0,0,265.0,1
632,632,-0.7378406124474826,-0.7,0.0,1.0,286.0,762.0,1.0,0,122.0,1
633,633,-0.4083697331618263,-0.4,1.0,0.0,474.0,901.0,1.0,1,-55.0,0
634,634,-0.037188046170231415,-0.0,0.0,1.0,334.0,930.0,1.0,0,86.0,1
635,635,-0.18004617650538302,-0.2,0.0,1.0,254.0,927.0,1.0,0,169.0,1
636,636,0.8195089370435996,0.8,0.0,0.0,473.0,894.0,0.0,1,113.0,1
637,637,-0.8368714289551106,-0.8,1.0,0.0,356.0,758.0,0.0,0,246.0,1
638,638,0.16615824991072314,0.2,1.0,1.0,455.0,540.0,1.0,1,1075.0,1
639,639,-0.7434139496800729,-0.7,0.0,1.0,282.0,926.0,1.0,0,222.0,1
640,640,0.6225272855698646,0.6,1.0,1.0,438.0,719.0,1.0,1,303.0,1
641,641,-0.7559584051697088,-0.8,1.0,0.0,471.0,633.0,0.0,0,176.0,1
642,642,0.26430480937430134,0.3,1.0,1.0,326.0,768.0,1.0,1,266.0,1
643,643,-0.08353746839192011,-0.1,0.0,1.0,348.0,823.0,0.0,1,229.0,0
644,644,-0.2968560887459577,-0.3,0.0,1.0,356.0,562.0,1.0,0,532.0,1
645,645,0.37048699335905677,0.4,1.0,1.0,321.0,785.0,1.0,1,224.0,1
646,646,-0.7730942178365863,-0.8,1.0,0.0,285.0,766.0,0.0,0,199.0,1
647,647,0.7527974460810157,0.8,0.0,0.0,286.0,543.0,0.0,1,251.0,1
648,648,-0.22534274655788977,-0.2,1.0,0.0,497.0,965.0,0.0,0,228.0,1
649,649,-0.3834800077674867,-0.4,1.0,0.0,340.0,897.0,1.0,1,-157.0,0
650,650,0.3026243636799816,0.3,0.0,0.0,462.0,878.0,0.0,1,180.0,1
651,651,0.7023232280748163,0.7,0.0,0.0,349.0,802.0,0.0,1,239.0,1
652,652,-0.04666482302563002,-0.0,0.0,1.0,389.0,617.0,1.0,0,624.0,1
653,653,0.5777860471930071,0.6,0.0,0.0,422.0,803.0,0.0,1,245.0,1
654,654,0.7225698051571058,0.7,0.0,0.0,404.0,505.0,0.0,1,191.0,1
655,655,-0.6517438318852968,-0.7,1.0,0.0,412.0,757.0,0.0,0,261.0,1
656,656,0.6959506047281788,0.7,0.0,0.0,417.0,834.0,0.0,1,299.0,1
657,657,0.6942402384764345,0.7,0.0,0.0,392.0,713.0,0.0,1,175.0,1
658,658,0.24242881988673803,0.2,0.0,0.0,423.0,709.0,0.0,1,428.0,1
659,659,0.4338919715140489,0.4,1.0,1.0,427.0,504.0,1.0,1,429.0,1
660,660,-0.8635157497177581,-0.9,0.0,1.0,328.0,652.0,1.0,0,220.0,1
661,661,0.6454313574353306,0.6,0.0,0.0,456.0,858.0,0.0,1,96.0,1
662,662,-0.5530465161995909,-0.6,1.0,0.0,429.0,841.0,1.0,1,-110.0,0
663,663,-0.70356115734279,-0.7,1.0,0.0,424.0,839.0,1.0,1,-13.0,0
664,664,0.17465771412568543,0.2,1.0,1.0,423.0,680.0,1.0,1,237.0,1
665,665,0.5934885616139686,0.6,1.0,1.0,388.0,751.0,1.0,1,81.0,1
666,666,0.6057440570079758,0.6,1.0,1.0,290.0,606.0,1.0,1,264.0,1
667,667,0.8850950395212721,0.9,0.0,0.0,402.0,794.0,0.0,1,104.0,1
668,668,-0.49077614324179336,-0.5,0.0,1.0,377.0,732.0,1.0,0,231.0,1
669,669,-0.6710181147246279,-0.7,0.0,1.0,403.0,550.0,1.0,0,297.0,1
670,670,-0.8922125380870249,-0.9,0.0,1.0,311.0,511.0,1.0,0,268.0,1
671,671,-0.399783398963267,-0.4,0.0,1.0,380.0,577.0,1.0,0,393.0,1
672,672,0.4968169942846784,0.5,0.0,0.0,409.0,799.0,0.0,1,202.0,1
673,673,0.5567948925306853,0.6,0.0,0.0,394.0,578.0,0.0,1,268.0,1
674,674,-0.8078454569785053,-0.8,0.0,1.0,379.0,667.0,1.0,0,214.0,1
675,675,0.5460294901192996,0.5,1.0,1.0,365.0,646.0,1.0,1,189.0,1
676,676,0.17776182033660304,0.2,1.0,1.0,406.0,908.0,1.0,1,56.0,1
677,677,0.04654086011427194,0.0,1.0,1.0,308.0,732.0,1.0,1,990.0,1
678,678,-0.817376494817352,-0.8,0.0,1.0,313.0,745.0,1.0,0,192.0,1
679,679,0.13634409649068446,0.1,0.0,0.0,355.0,930.0,0.0,1,1015.0,1
680,680,0.22177505717604074,0.2,1.0,1.0,488.0,504.0,1.0,1,318.0,1
681,681,-0.5698793107112046,-0.6,1.0,0.0,464.0,689.0,0.0,0,237.0,1
682,682,0.09886219450703726,0.1,1.0,1.0,431.0,781.0,1.0,1,878.0,1
683,683,-0.6149831914327297,-0.6,1.0,0.0,366.0,747.0,0.0,0,157.0,1
684,684,-0.10788479015063568,-0.1,1.0,0.0,488.0,707.0,0.0,0,255.0,1
685,685,0.666025146826101,0.7,1.0,1.0,470.0,718.0,1.0,1,152.0,1
686,686,0.2359057190513515,0.2,0.0,0.0,469.0,942.0,0.0,1,219.0,1
687,687,0.5641827787122519,0.6,1.0,1.0,368.0,997.0,1.0,1,-205.0,1
688,688,0.8793090506384987,0.9,1.0,1.0,399.0,825.0,1.0,1,186.0,1
689,689,0.44337422923422565,0.4,1.0,1.0,317.0,978.0,1.0,1,-85.0,1
690,690,0.8373996743624735,0.8,1.0,1.0,490.0,783.0,1.0,1,77.0,1
691,691,-0.22480441748031843,-0.2,0.0,1.0,468.0,609.0,1.0,0,283.0,1
692,692,0.5934785283658247,0.6,0.0,0.0,290.0,730.0,0.0,1,270.0,1
693,693,-0.08087165487292336,-0.1,0.0,1.0,378.0,658.0,1.0,0,484.0,1
694,694,0.666719951073886,0.7,0.0,0.0,494.0,734.0,0.0,1,112.0,1
695,695,0.2587627630287269,0.3,0.0,0.0,333.0,610.0,0.0,1,507.0,1
696,696,0.20331879476945802,0.2,1.0,1.0,477.0,690.0,1.0,1,133.0,1
697,697,0.0365127123632466,0.0,1.0,1.0,463.0,550.0,1.0,1,287.0,1
698,698,-0.7372219052390835,-0.7,0.0,1.0,282.0,844.0,1.0,0,154.0,1
699,699,-0.7106033235169099,-0.7,0.0,1.0,367.0,554.0,1.0,0,379.0,1
700,700,-0.654028627273577,-0.7,1.0,0.0,455.0,699.0,0.0,0,256.0,1
701,701,-0.4483600423471047,-0.4,0.0,1.0,479.0,785.0,1.0,0,96.0,1
702,702,0.49972664558501034,0.5,1.0,1.0,444.0,551.0,1.0,1,275.0,1
703,703,-0.0794921532517806,-0.1,1.0,0.0,488.0,509.0,0.0,0,573.0,1
704,704,0.0008416926616108267,0.0,0.0,0.0,303.0,500.0,0.0,1,447.0,1
705,705,0.3291731467626128,0.3,0.0,0.0,440.0,592.0,0.0,1,398.0,1
706,706,-0.8808832404743033,-0.9,1.0,0.0,392.0,618.0,0.0,0,150.0,1
707,707,-0.8056139074335329,-0.8,0.0,1.0,392.0,656.0,1.0,0,112.0,1
708,708,0.27193461975994004,0.3,1.0,1.0,358.0,869.0,1.0,1,3.0,1
709,709,0.5241391590114958,0.5,0.0,0.0,298.0,754.0,0.0,1,118.0,1
710,710,0.3939962560351583,0.4,1.0,1.0,400.0,513.0,1.0,1,377.0,1
711,711,0.5555906899034554,0.6,1.0,1.0,306.0,956.0,1.0,1,368.0,1
712,712,-0.07859593759804351,-0.1,1.0,0.0,485.0,691.0,1.0,1,774.0,0
713,713,-0.23624503629858062,-0.2,1.0,0.0,282.0,700.0,0.0,0,538.0,1
714,714,-0.16585267411131777,-0.2,1.0,0.0,353.0,894.0,1.0,1,93.0,0
715,715,-0.5703856731904586,-0.6,0.0,1.0,426.0,822.0,1.0,0,272.0,1
716,716,-0.11134611347933276,-0.1,0.0,1.0,379.0,733.0,1.0,0,398.0,1
717,717,-0.8739274030494503,-0.9,1.0,0.0,481.0,710.0,0.0,0,159.0,1
718,718,0.566738312379152,0.6,1.0,1.0,468.0,877.0,1.0,1,165.0,1
719,719,-0.6924946697481452,-0.7,1.0,0.0,282.0,851.0,0.0,0,177.0,1
720,720,-0.6265768418783222,-0.6,1.0,0.0,417.0,568.0,0.0,0,275.0,1
721,721,-0.15619150418416283,-0.2,0.0,1.0,281.0,561.0,1.0,0,368.0,1
722,722,0.16144123626080853,0.2,1.0,1.0,434.0,796.0,1.0,1,200.0,1
723,723,0.2889601502030855,0.3,1.0,1.0,363.0,538.0,1.0,1,209.0,1
724,724,0.8668532520512603,0.9,0.0,0.0,254.0,696.0,0.0,1,190.0,1
725,725,0.6024047842932833,0.6,0.0,0.0,311.0,887.0,0.0,1,302.0,1
726,726,0.09693571135878487,0.1,1.0,1.0,343.0,685.0,1.0,1,622.0,1
727,727,-0.15512204804122587,-0.2,1.0,0.0,392.0,969.0,0.0,0,959.0,1
728,728,-0.7289958513872483,-0.7,0.0,1.0,272.0,628.0,1.0,0,160.0,1
729,729,-0.27731323520370565,-0.3,1.0,0.0,464.0,851.0,0.0,0,465.0,1
730,730,-0.06520453531523762,-0.1,1.0,0.0,479.0,814.0,1.0,1,-3.0,0
731,731,0.7388755889698563,0.7,1.0,1.0,373.0,592.0,1.0,1,355.0,1
732,732,0.20238508112350295,0.2,0.0,0.0,432.0,592.0,0.0,1,506.0,1
733,733,0.8617395400191451,0.9,0.0,0.0,274.0,665.0,0.0,1,311.0,1
734,734,0.4047182758012392,0.4,1.0,1.0,366.0,764.0,1.0,1,350.0,1
735,735,-0.4796175154222243,-0.5,0.0,1.0,380.0,822.0,1.0,0,178.0,1
736,736,-0.1709569737078318,-0.2,1.0,0.0,426.0,786.0,0.0,0,1028.0,1
737,737,-0.42490058788796,-0.4,0.0,1.0,370.0,890.0,1.0,0,100.0,1
738,738,0.7879424823959326,0.8,0.0,0.0,478.0,608.0,0.0,1,214.0,1
739,739,-0.3692501570681407,-0.4,0.0,1.0,481.0,706.0,1.0,0,73.0,1
740,740,0.5245360786290726,0.5,0.0,0.0,336.0,959.0,0.0,1,155.0,1
741,741,-0.296905287652791,-0.3,1.0,0.0,452.0,554.0,0.0,0,624.0,1
742,742,0.5964978253525345,0.6,0.0,0.0,376.0,998.0,0.0,1,506.0,1
743,743,0.558773828714581,0.6,1.0,1.0,460.0,648.0,1.0,1,332.0,1
744,744,-0.1770581754951669,-0.2,0.0,1.0,387.0,819.0,1.0,0,1214.0,1
745,745,-0.27585513322249167,-0.3,1.0,0.0,417.0,597.0,0.0,0,476.0,1
746,746,0.1353920362368063,0.1,0.0,0.0,450.0,558.0,0.0,1,352.0,1
747,747,-0.3779834484335395,-0.4,0.0,1.0,406.0,757.0,1.0,0,217.0,1
748,748,0.3556292896657324,0.4,0.0,0.0,306.0,666.0,0.0,1,358.0,1
749,749,-0.1716905587100387,-0.2,0.0,1.0,281.0,548.0,1.0,0,791.0,1
750,750,0.0468344861810549,0.0,1.0,1.0,400.0,555.0,1.0,1,745.0,1
751,751,0.056251413832420716,0.1,1.0,1.0,356.0,785.0,1.0,1,1079.0,1
752,752,0.4391529003502953,0.4,0.0,0.0,350.0,698.0,0.0,1,312.0,1
753,753,0.46730037445679196,0.5,1.0,1.0,480.0,720.0,1.0,1,260.0,1
754,754,-0.38045015681365,-0.4,0.0,1.0,388.0,856.0,1.0,0,186.0,1
755,755,-0.46152764212017783,-0.5,0.0,1.0,479.0,865.0,1.0,0,156.0,1
756,756,-0.8750535232916993,-0.9,0.0,1.0,494.0,960.0,1.0,0,126.0,1
757,757,0.5525262740720202,0.6,1.0,1.0,431.0,826.0,1.0,1,53.0,1
758,758,-0.29321235450161154,-0.3,1.0,0.0,341.0,886.0,0.0,0,293.0,1
759,759,0.26420265647442787,0.3,1.0,1.0,439.0,774.0,1.0,1,257.0,1
760,760,-0.19767937527496193,-0.2,0.0,1.0,255.0,900.0,1.0,0,185.0,1
761,761,-0.17909594350173597,-0.2,1.0,0.0,400.0,657.0,0.0,0,273.0,1
762,762,0.868177103558407,0.9,1.0,1.0,321.0,607.0,1.0,1,132.0,1
763,763,0.3689459260721394,0.4,0.0,0.0,448.0,608.0,0.0,1,364.0,1
764,764,0.24570198687685052,0.2,1.0,1.0,296.0,988.0,1.0,1,206.0,1
765,765,0.5683366693947957,0.6,0.0,0.0,416.0,962.0,0.0,1,72.0,1
766,766,0.04466447109131355,0.0,0.0,0.0,362.0,726.0,0.0,1,572.0,1
767,767,0.6203176221088521,0.6,1.0,1.0,461.0,956.0,1.0,1,23.0,1
768,768,0.8962344351354795,0.9,0.0,0.0,452.0,585.0,0.0,1,263.0,1
769,769,-0.09701512295957337,-0.1,1.0,0.0,419.0,863.0,0.0,0,618.0,1
770,770,-0.05137815321702777,-0.1,0.0,1.0,409.0,675.0,1.0,0,1356.0,1
771,771,-0.891588950747735,-0.9,0.0,1.0,329.0,672.0,1.0,0,269.0,1
772,772,0.8434272405345297,0.8,0.0,0.0,281.0,651.0,0.0,1,168.0,1
773,773,0.08202048122627736,0.1,1.0,1.0,464.0,831.0,1.0,1,315.0,1
774,774,0.807394022344112,0.8,0.0,0.0,343.0,691.0,0.0,1,86.0,1
775,775,0.4306218126284599,0.4,0.0,0.0,348.0,596.0,0.0,1,396.0,1
776,776,-0.1141953874923759,-0.1,1.0,0.0,283.0,586.0,0.0,0,591.0,1
777,777,0.053011233609891795,0.1,1.0,1.0,406.0,590.0,1.0,1,824.0,1
778,778,-0.20784260649859543,-0.2,1.0,0.0,410.0,742.0,0.0,0,288.0,1
779,779,0.2881957563668919,0.3,0.0,0.0,254.0,622.0,0.0,1,194.0,1
780,780,-0.7738233814992591,-0.8,0.0,1.0,387.0,850.0,1.0,0,133.0,1
781,781,-0.7969492118260517,-0.8,1.0,0.0,258.0,602.0,0.0,0,180.0,1
782,782,-0.33042724844823657,-0.3,0.0,1.0,325.0,589.0,1.0,0,426.0,1
783,783,0.5767682258516945,0.6,1.0,1.0,417.0,561.0,1.0,1,132.0,1
784,784,0.376383903242718,0.4,1.0,1.0,261.0,574.0,1.0,1,295.0,1
785,785,0.6596533974431747,0.7,1.0,1.0,311.0,506.0,1.0,1,333.0,1
786,786,0.40575085672746625,0.4,0.0,0.0,455.0,575.0,0.0,1,280.0,1
787,787,-0.318437484484945,-0.3,1.0,0.0,322.0,743.0,0.0,0,235.0,1
788,788,-0.48243085608808406,-0.5,0.0,1.0,280.0,735.0,1.0,0,215.0,1
789,789,-0.8312259892921171,-0.8,1.0,0.0,409.0,926.0,0.0,0,235.0,1
790,790,0.48607731330244663,0.5,0.0,0.0,434.0,618.0,0.0,1,228.0,1
791,791,-0.5830365219655105,-0.6,1.0,0.0,486.0,903.0,0.0,0,291.0,1
792,792,-0.3938449447647303,-0.4,0.0,1.0,369.0,726.0,1.0,0,465.0,1
793,793,-0.8936279007885733,-0.9,0.0,1.0,430.0,888.0,1.0,0,82.0,1
794,794,-0.4585541660723088,-0.5,1.0,0.0,326.0,985.0,0.0,0,169.0,1
795,795,0.13851044658636769,0.1,0.0,0.0,409.0,956.0,0.0,1,285.0,1
796,796,-0.28985585914101575,-0.3,1.0,0.0,359.0,701.0,0.0,0,500.0,1
797,797,-0.4668023866386139,-0.5,1.0,0.0,389.0,669.0,0.0,0,282.0,1
798,798,-0.7043902718621458,-0.7,0.0,1.0,340.0,965.0,1.0,0,55.0,1
799,799,0.6382275643261527,0.6,1.0,1.0,325.0,820.0,1.0,1,165.0,1
800,800,0.2583285392775704,0.3,1.0,1.0,267.0,597.0,1.0,1,406.0,1
801,801,0.17023064275624333,0.2,0.0,0.0,311.0,889.0,0.0,1,280.0,1
802,802,-0.14182893015712938,-0.1,0.0,1.0,395.0,760.0,1.0,0,275.0,1
803,803,-0.3341620784758299,-0.3,0.0,1.0,284.0,508.0,1.0,0,488.0,1
804,804,0.26638941768044033,0.3,0.0,0.0,300.0,794.0,0.0,1,506.0,1
805,805,-0.6245515000037563,-0.6,0.0,1.0,327.0,705.0,1.0,0,268.0,1
806,806,0.43890597468739834,0.4,1.0,1.0,345.0,601.0,1.0,1,434.0,1
807,807,0.3712593836173813,0.4,1.0,1.0,424.0,585.0,1.0,1,301.0,1
808,808,0.694996709829763,0.7,0.0,0.0,319.0,827.0,0.0,1,154.0,1
809,809,-0.6880032976005812,-0.7,0.0,1.0,287.0,897.0,1.0,0,26.0,1
810,810,-0.3218364008894661,-0.3,0.0,1.0,367.0,768.0,1.0,0,365.0,1
811,811,0.28216808064171006,0.3,0.0,0.0,473.0,837.0,0.0,1,70.0,1
812,812,0.7461854198106886,0.7,0.0,0.0,302.0,813.0,0.0,1,265.0,1
813,813,-0.44869104807848764,-0.4,0.0,1.0,367.0,847.0,1.0,0,176.0,1
814,814,0.858293939099016,0.9,1.0,1.0,425.0,827.0,1.0,1,198.0,1
815,815,-0.04690897820369455,-0.0,0.0,1.0,323.0,595.0,1.0,0,932.0,1
816,816,0.7870250972717222,0.8,0.0,0.0,316.0,989.0,0.0,1,225.0,1
817,817,-0.6152736776087607,-0.6,1.0,0.0,368.0,872.0,0.0,0,50.0,1
818,818,0.4772806868794258,0.5,1.0,1.0,410.0,975.0,1.0,1,305.0,1
819,819,0.826699522719032,0.8,0.0,0.0,315.0,758.0,0.0,1,157.0,1
820,820,0.43751116465802686,0.4,0.0,0.0,331.0,748.0,0.0,1,271.0,1
821,821,0.13479743254580312,0.1,1.0,1.0,356.0,710.0,1.0,1,554.0,1
822,822,-0.027242154875149915,-0.0,0.0,1.0,385.0,621.0,1.0,0,744.0,1
823,823,0.7474742439582632,0.7,0.0,0.0,382.0,629.0,0.0,1,289.0,1
824,824,-0.36215363407825774,-0.4,0.0,1.0,350.0,982.0,1.0,0,38.0,1
825,825,-0.3557558035482742,-0.4,1.0,0.0,467.0,778.0,0.0,0,265.0,1
826,826,0.4478462729522844,0.4,0.0,0.0,384.0,944.0,0.0,1,162.0,1
827,827,-0.29078582860551916,-0.3,0.0,1.0,279.0,909.0,1.0,0,172.0,1
828,828,-0.0740989475817988,-0.1,1.0,0.0,253.0,731.0,1.0,1,166.0,0
829,829,0.10724840040676409,0.1,1.0,1.0,276.0,556.0,1.0,1,538.0,1
830,830,-0.40879387353504154,-0.4,1.0,0.0,456.0,835.0,0.0,0,299.0,1
831,831,0.7924160250366415,0.8,1.0,1.0,257.0,929.0,1.0,1,64.0,1
832,832,0.11830196936690507,0.1,1.0,1.0,378.0,516.0,1.0,1,416.0,1
833,833,0.8450669234886289,0.8,0.0,0.0,326.0,909.0,0.0,1,155.0,1
834,834,0.6799025017635288,0.7,1.0,1.0,375.0,731.0,1.0,1,164.0,1
835,835,-0.8175476700601891,-0.8,1.0,0.0,321.0,843.0,0.0,0,146.0,1
836,836,-0.21373282536834237,-0.2,0.0,1.0,284.0,607.0,1.0,0,539.0,1
837,837,0.7277221010810929,0.7,0.0,0.0,407.0,867.0,0.0,1,196.0,1
838,838,0.6842148267132134,0.7,1.0,1.0,433.0,746.0,1.0,1,171.0,1
839,839,0.3512433437010668,0.4,1.0,1.0,471.0,611.0,1.0,1,318.0,1
840,840,-0.4155388805860553,-0.4,0.0,1.0,455.0,500.0,1.0,0,515.0,1
841,841,-0.7144907025741202,-0.7,0.0,1.0,259.0,811.0,1.0,0,230.0,1
842,842,-0.7122418671843105,-0.7,1.0,0.0,349.0,982.0,0.0,0,169.0,1
843,843,0.790314807002546,0.8,1.0,1.0,327.0,566.0,1.0,1,217.0,1
844,844,-0.24432382130015662,-0.2,1.0,0.0,407.0,881.0,0.0,0,322.0,1
845,845,-0.0005076065695887033,-0.0,1.0,0.0,485.0,564.0,1.0,1,971.0,0
846,846,-0.37718982979839666,-0.4,0.0,1.0,430.0,852.0,1.0,0,418.0,1
847,847,-0.4589614382036142,-0.5,0.0,1.0,463.0,693.0,1.0,0,404.0,1
848,848,-0.8606707471745688,-0.9,0.0,1.0,321.0,970.0,1.0,0,169.0,1
849,849,0.4626202793152453,0.5,1.0,1.0,386.0,582.0,1.0,1,292.0,1
850,850,0.22223138492660077,0.2,0.0,0.0,351.0,650.0,0.0,1,489.0,1
851,851,-0.316874115254712,-0.3,0.0,1.0,490.0,684.0,1.0,0,526.0,1
852,852,-0.5947164123185336,-0.6,0.0,1.0,336.0,656.0,1.0,0,178.0,1
853,853,0.2861130869711509,0.3,0.0,0.0,386.0,832.0,0.0,1,282.0,1
854,854,-0.1159740962564052,-0.1,1.0,0.0,312.0,960.0,0.0,0,678.0,1
855,855,-0.6194901838794693,-0.6,0.0,1.0,299.0,732.0,1.0,0,209.0,1
856,856,0.8099426636177006,0.8,1.0,1.0,353.0,732.0,1.0,1,135.0,1
857,857,-0.8343560492984288,-0.8,1.0,0.0,334.0,574.0,0.0,0,222.0,1
858,858,0.28954688864005507,0.3,0.0,0.0,395.0,779.0,0.0,1,326.0,1
859,859,0.3427901156228409,0.3,1.0,1.0,302.0,644.0,1.0,1,334.0,1
860,860,0.1803993855077225,0.2,0.0,0.0,402.0,936.0,0.0,1,292.0,1
861,861,0.2071420928024038,0.2,0.0,0.0,253.0,738.0,0.0,1,239.0,1
862,862,-0.6775191265399245,-0.7,0.0,1.0,471.0,856.0,1.0,0,163.0,1
863,863,-0.13266557557562242,-0.1,1.0,0.0,416.0,512.0,0.0,0,682.0,1
864,864,-0.0016454274808522795,-0.0,0.0,1.0,492.0,798.0,0.0,1,720.0,0
865,865,0.3098651247401135,0.3,1.0,1.0,397.0,651.0,1.0,1,122.0,1
866,866,0.33339125162097083,0.3,0.0,0.0,360.0,641.0,0.0,1,259.0,1
867,867,-0.2675826134666579,-0.3,1.0,0.0,337.0,649.0,0.0,0,544.0,1
868,868,-0.7569863061335796,-0.8,0.0,1.0,426.0,922.0,1.0,0,232.0,1
869,869,0.043965824008899146,0.0,1.0,1.0,316.0,581.0,1.0,1,813.0,1
870,870,0.0964039728468078,0.1,0.0,0.0,338.0,509.0,0.0,1,1203.0,1
871,871,-0.045868509703789306,-0.0,0.0,1.0,376.0,869.0,1.0,0,1165.0,1
872,872,0.8658210079032812,0.9,0.0,0.0,324.0,699.0,0.0,1,17.0,1
873,873,0.7196243032718012,0.7,1.0,1.0,345.0,727.0,1.0,1,68.0,1
874,874,0.46795798541171607,0.5,1.0,1.0,364.0,744.0,1.0,1,332.0,1
875,875,0.31957493772871526,0.3,1.0,1.0,349.0,994.0,1.0,1,-223.0,1
876,876,0.41969959063414863,0.4,0.0,0.0,467.0,519.0,0.0,1,354.0,1
877,877,0.1075645550103862,0.1,1.0,1.0,302.0,551.0,1.0,1,487.0,1
878,878,-0.2895641966962724,-0.3,0.0,1.0,305.0,609.0,1.0,0,416.0,1
879,879,0.830303558310774,0.8,1.0,1.0,479.0,737.0,1.0,1,124.0,1
880,880,-0.38903565373539273,-0.4,1.0,0.0,397.0,632.0,0.0,0,141.0,1
881,881,0.09859187023110882,0.1,0.0,0.0,288.0,949.0,0.0,1,473.0,1
882,882,-0.6335912983668613,-0.6,0.0,1.0,389.0,934.0,1.0,0,337.0,1
883,883,0.21081752641049112,0.2,0.0,0.0,419.0,533.0,0.0,1,568.0,1
884,884,0.3273098620787568,0.3,0.0,0.0,403.0,759.0,0.0,1,248.0,1
885,885,0.7312500736042019,0.7,0.0,0.0,425.0,897.0,0.0,1,148.0,1
886,886,-0.13261327030047843,-0.1,0.0,1.0,284.0,786.0,0.0,1,180.0,0
887,887,0.8819038417305861,0.9,1.0,1.0,391.0,886.0,1.0,1,63.0,1
888,888,-0.7489158354283749,-0.7,1.0,0.0,285.0,982.0,0.0,0,173.0,1
889,889,0.2795745311041232,0.3,0.0,0.0,285.0,831.0,0.0,1,1134.0,1
890,890,0.021278716292385758,0.0,1.0,1.0,472.0,531.0,1.0,1,737.0,1
891,891,0.2733132762147369,0.3,1.0,1.0,386.0,856.0,1.0,1,398.0,1
892,892,-0.728717949416331,-0.7,1.0,0.0,419.0,913.0,1.0,1,-172.0,0
893,893,-0.7865077122304753,-0.8,1.0,0.0,289.0,626.0,0.0,0,295.0,1
894,894,0.4987494379411327,0.5,1.0,1.0,406.0,936.0,1.0,1,138.0,1
895,895,0.40944043582902767,0.4,1.0,1.0,444.0,988.0,1.0,1,248.0,1
896,896,-0.6078027116328735,-0.6,0.0,1.0,379.0,612.0,1.0,0,169.0,1
897,897,0.2068638168422,0.2,1.0,1.0,314.0,773.0,1.0,1,203.0,1
898,898,-0.813107134179364,-0.8,0.0,1.0,287.0,776.0,1.0,0,27.0,1
899,899,0.05459404189729733,0.1,0.0,0.0,368.0,574.0,0.0,1,338.0,1
900,900,-0.5056086960992788,-0.5,1.0,0.0,440.0,950.0,0.0,0,300.0,1
901,901,0.8160398448436507,0.8,1.0,1.0,472.0,943.0,1.0,1,95.0,1
902,902,-0.3621379240392595,-0.4,1.0,0.0,468.0,978.0,0.0,0,184.0,1
903,903,-0.6597380074280641,-0.7,1.0,0.0,470.0,602.0,0.0,0,208.0,1
904,904,-0.10724777407745567,-0.1,0.0,1.0,470.0,681.0,1.0,0,299.0,1
905,905,-0.80426003215423,-0.8,0.0,1.0,299.0,661.0,1.0,0,330.0,1
906,906,-0.8688290673610711,-0.9,0.0,1.0,394.0,640.0,1.0,0,206.0,1
907,907,-0.01646162485664393,-0.0,0.0,1.0,414.0,884.0,0.0,1,1602.0,0
908,908,0.41494807913066933,0.4,1.0,1.0,422.0,594.0,1.0,1,274.0,1
909,909,0.27277002386407945,0.3,1.0,1.0,305.0,565.0,1.0,1,420.0,1
910,910,0.19894293546756658,0.2,1.0,1.0,434.0,512.0,1.0,1,264.0,1
911,911,-0.5438267170033793,-0.5,0.0,1.0,372.0,793.0,1.0,0,195.0,1
912,912,0.5564951762876417,0.6,1.0,1.0,460.0,947.0,1.0,1,143.0,1
913,913,0.7536500624901586,0.8,0.0,0.0,346.0,516.0,0.0,1,328.0,1
914,914,-0.2185569862845308,-0.2,1.0,0.0,402.0,870.0,0.0,0,198.0,1
915,915,0.26105530926598475,0.3,1.0,1.0,312.0,823.0,1.0,1,125.0,1
916,916,0.030588367331136235,0.0,0.0,0.0,394.0,582.0,0.0,1,1374.0,1
917,917,0.5153698323905079,0.5,0.0,0.0,494.0,515.0,0.0,1,441.0,1
918,918,0.2792606335481992,0.3,0.0,0.0,253.0,842.0,0.0,1,225.0,1
919,919,-0.4594850287455274,-0.5,1.0,0.0,335.0,670.0,0.0,0,435.0,1
920,920,0.5491294721334966,0.5,0.0,0.0,462.0,997.0,1.0,0,-79.0,0
921,921,-0.7691169274068863,-0.8,0.0,1.0,465.0,820.0,1.0,0,315.0,1
922,922,0.4985566655341599,0.5,1.0,1.0,381.0,902.0,1.0,1,37.0,1
923,923,0.1084670922757468,0.1,1.0,1.0,400.0,570.0,1.0,1,570.0,1
924,924,-0.496113848522992,-0.5,0.0,1.0,476.0,876.0,1.0,0,248.0,1
925,925,0.6378301713371598,0.6,0.0,0.0,265.0,777.0,0.0,1,118.0,1
926,926,0.622770205841951,0.6,0.0,0.0,330.0,733.0,0.0,1,247.0,1
927,927,0.17987039982820752,0.2,0.0,0.0,401.0,831.0,0.0,1,378.0,1
928,928,0.612958462477947,0.6,0.0,0.0,471.0,692.0,0.0,1,167.0,1
929,929,0.13174323115756736,0.1,0.0,0.0,416.0,664.0,0.0,1,1890.0,1
930,930,-0.42021993627531046,-0.4,1.0,0.0,253.0,635.0,0.0,0,322.0,1
931,931,-0.506141026926163,-0.5,0.0,1.0,379.0,547.0,1.0,0,274.0,1
932,932,0.06542940402560915,0.1,1.0,1.0,357.0,588.0,0.0,0,885.0,0
933,933,0.2862138823571664,0.3,1.0,1.0,307.0,818.0,1.0,1,145.0,1
934,934,0.8256257354008109,0.8,0.0,0.0,488.0,929.0,1.0,0,-17.0,0
935,935,-0.49050803450615393,-0.5,0.0,1.0,466.0,811.0,1.0,0,183.0,1
936,936,-0.20413843546643795,-0.2,1.0,0.0,312.0,968.0,1.0,1,-20.0,0
937,937,-0.16953834748779306,-0.2,0.0,1.0,329.0,536.0,1.0,0,825.0,1
938,938,0.0011105053580722224,0.0,1.0,1.0,380.0,567.0,0.0,0,1823.0,0
939,939,0.5827919561311451,0.6,1.0,1.0,306.0,604.0,1.0,1,210.0,1
940,940,0.38843522348880877,0.4,1.0,1.0,400.0,553.0,1.0,1,187.0,1
941,941,0.5963289798509038,0.6,0.0,0.0,277.0,908.0,0.0,1,35.0,1
942,942,0.11617126205214257,0.1,1.0,1.0,347.0,738.0,1.0,1,395.0,1
943,943,-0.6904381539985733,-0.7,1.0,0.0,362.0,898.0,0.0,0,130.0,1
944,944,-0.5695287893709771,-0.6,1.0,0.0,304.0,611.0,0.0,0,305.0,1
945,945,0.17797419191024588,0.2,0.0,0.0,496.0,976.0,0.0,1,798.0,1
946,946,-0.25737247325840706,-0.3,1.0,0.0,331.0,798.0,0.0,0,271.0,1
947,947,-0.6370826662693982,-0.6,1.0,0.0,367.0,841.0,0.0,0,72.0,1
948,948,0.6672216476536886,0.7,1.0,1.0,426.0,509.0,1.0,1,255.0,1
949,949,0.672098508537723,0.7,1.0,1.0,340.0,673.0,1.0,1,307.0,1
950,950,-0.26879782496534,-0.3,0.0,1.0,393.0,966.0,1.0,0,501.0,1
951,951,-0.06791064337909747,-0.1,0.0,1.0,475.0,805.0,1.0,0,860.0,1
952,952,-0.4980491555737469,-0.5,0.0,1.0,313.0,530.0,1.0,0,527.0,1
953,953,0.727306008238851,0.7,0.0,0.0,398.0,884.0,0.0,1,158.0,1
954,954,-0.41292768834094057,-0.4,0.0,1.0,338.0,568.0,1.0,0,214.0,1
955,955,0.7069877145462898,0.7,0.0,0.0,335.0,538.0,0.0,1,297.0,1
956,956,0.3065105895665695,0.3,0.0,0.0,481.0,589.0,0.0,1,550.0,1
957,957,-0.4585131995742907,-0.5,0.0,1.0,265.0,728.0,1.0,0,407.0,1
958,958,-0.03256441111475317,-0.0,0.0,1.0,360.0,775.0,1.0,0,405.0,1
959,959,0.7284111324280683,0.7,1.0,1.0,424.0,672.0,1.0,1,154.0,1
960,960,0.3747075283147935,0.4,0.0,0.0,353.0,634.0,0.0,1,433.0,1
961,961,0.7147476878357372,0.7,1.0,1.0,429.0,844.0,1.0,1,47.0,1
962,962,0.17600767904958647,0.2,0.0,0.0,448.0,698.0,0.0,1,454.0,1
963,963,-0.6985023296052538,-0.7,0.0,1.0,266.0,607.0,1.0,0,207.0,1
964,964,-0.24875562756610703,-0.2,1.0,0.0,402.0,615.0,0.0,0,443.0,1
965,965,-0.833127410401716,-0.8,1.0,0.0,336.0,794.0,1.0,1,10.0,0
966,966,0.3727594187877158,0.4,1.0,1.0,372.0,541.0,1.0,1,527.0,1
967,967,0.7595900932581195,0.8,1.0,1.0,481.0,832.0,1.0,1,177.0,1
968,968,-0.5687805942922812,-0.6,0.0,1.0,353.0,707.0,1.0,0,210.0,1
969,969,0.2098547467443238,0.2,0.0,0.0,289.0,552.0,0.0,1,529.0,1
970,970,0.0759050013506467,0.1,0.0,0.0,256.0,996.0,0.0,1,408.0,1
971,971,0.1994779791159752,0.2,1.0,1.0,370.0,617.0,1.0,1,243.0,1
972,972,0.393453040824843,0.4,0.0,0.0,489.0,541.0,0.0,1,350.0,1
973,973,-0.7602467180411213,-0.8,0.0,1.0,275.0,771.0,1.0,0,134.0,1
974,974,0.0602858705383974,0.1,1.0,1.0,446.0,638.0,1.0,1,726.0,1
975,975,-0.49148776806723005,-0.5,0.0,1.0,384.0,660.0,1.0,0,536.0,1
976,976,0.7113251812498466,0.7,0.0,0.0,401.0,914.0,0.0,1,115.0,1
977,977,0.7572414765897036,0.8,0.0,0.0,305.0,713.0,0.0,1,282.0,1
978,978,0.3367223846566677,0.3,0.0,0.0,358.0,595.0,0.0,1,387.0,1
979,979,0.4957333203771378,0.5,0.0,0.0,418.0,542.0,0.0,1,450.0,1
980,980,-0.31324721620253304,-0.3,0.0,1.0,392.0,862.0,1.0,0,286.0,1
981,981,0.28811058896993635,0.3,1.0,1.0,478.0,910.0,1.0,1,102.0,1
982,982,-0.8506669770903384,-0.9,0.0,1.0,377.0,909.0,1.0,0,-246.0,1
983,983,0.5173396679059709,0.5,1.0,1.0,398.0,667.0,1.0,1,145.0,1
984,984,0.5873914770239165,0.6,1.0,1.0,292.0,711.0,1.0,1,117.0,1
985,985,0.40427054276131613,0.4,1.0,1.0,337.0,579.0,1.0,1,384.0,1
986,986,0.06961330049148595,0.1,1.0,1.0,482.0,769.0,1.0,1,319.0,1
987,987,0.7414179690469574,0.7,1.0,1.0,313.0,926.0,1.0,1,11.0,1
988,988,0.5092599135691599,0.5,1.0,1.0,499.0,748.0,1.0,1,103.0,1
989,989,0.5071170437017386,0.5,1.0,1.0,477.0,851.0,1.0,1,102.0,1
990,990,0.8868561775475442,0.9,0.0,0.0,323.0,744.0,0.0,1,363.0,1
991,991,-0.5042137849345063,-0.5,0.0,1.0,353.0,593.0,1.0,0,234.0,1
992,992,-0.41828415276507547,-0.4,1.0,0.0,402.0,946.0,0.0,0,292.0,1
993,993,-0.7223407857244343,-0.7,0.0,1.0,311.0,612.0,1.0,0,327.0,1
994,994,0.4144077028144094,0.4,1.0,1.0,280.0,695.0,1.0,1,295.0,1
995,995,-0.1017434855501188,-0.1,0.0,1.0,440.0,777.0,0.0,1,1183.0,0
996,996,0.23235979008515473,0.2,1.0,1.0,436.0,776.0,1.0,1,68.0,1
997,997,-0.5595807336615579,-0.6,1.0,0.0,447.0,659.0,0.0,0,244.0,1
998,998,0.6620124555764634,0.7,0.0,0.0,393.0,844.0,0.0,1,253.0,1
999,999,-0.3591780112011418,-0.4,0.0,1.0,381.0,741.0,1.0,0,198.0,1
1000,1000,-0.5960870007059793,-0.6,1.0,0.0,327.0,890.0,0.0,0,183.0,1
1001,1001,0.6369681689875514,0.6,0.0,0.0,265.0,988.0,0.0,1,177.0,1
1002,1002,0.6888448637524757,0.7,0.0,0.0,493.0,755.0,0.0,1,312.0,1
1003,1003,0.29993509162075827,0.3,0.0,0.0,326.0,956.0,0.0,1,478.0,1
1004,1004,0.28196906888115236,0.3,0.0,0.0,317.0,788.0,0.0,1,195.0,1
1005,1005,0.28784227633099657,0.3,0.0,0.0,445.0,883.0,0.0,1,422.0,1
1006,1006,0.618896257774367,0.6,1.0,1.0,356.0,964.0,1.0,1,0.0,1
1007,1007,0.09499827353758838,0.1,0.0,0.0,410.0,873.0,0.0,1,1917.0,1
1008,1008,-0.27488556339701775,-0.3,0.0,1.0,387.0,888.0,1.0,0,295.0,1
1009,1009,-0.3222321738772107,-0.3,0.0,1.0,379.0,524.0,1.0,0,417.0,1
1010,1010,0.7001226259878005,0.7,1.0,1.0,480.0,656.0,1.0,1,134.0,1
1011,1011,-0.6081205137342003,-0.6,1.0,0.0,479.0,864.0,0.0,0,187.0,1
1012,1012,-0.5236872503761902,-0.5,0.0,1.0,450.0,536.0,1.0,0,324.0,1
1013,1013,-0.47144668745938684,-0.5,1.0,0.0,470.0,779.0,0.0,0,261.0,1
1014,1014,0.5983103079075905,0.6,1.0,1.0,480.0,769.0,1.0,1,61.0,1
1015,1015,-0.5158750393383924,-0.5,1.0,0.0,443.0,678.0,0.0,0,249.0,1
1016,1016,-0.3617273749311829,-0.4,1.0,0.0,477.0,937.0,1.0,1,-74.0,0
1017,1017,0.4997723318149586,0.5,0.0,0.0,326.0,566.0,0.0,1,318.0,1
1018,1018,0.6844679938179504,0.7,0.0,0.0,427.0,872.0,0.0,1,241.0,1
1019,1019,-0.5143901277017504,-0.5,0.0,1.0,320.0,766.0,1.0,0,164.0,1
1020,1020,0.5775348765624259,0.6,0.0,0.0,431.0,777.0,0.0,1,172.0,1
1021,1021,-0.6921086195783716,-0.7,0.0,1.0,479.0,932.0,1.0,0,189.0,1
1022,1022,-0.26564056270105196,-0.3,0.0,1.0,407.0,872.0,1.0,0,311.0,1
1023,1023,0.8327690124129375,0.8,0.0,0.0,410.0,837.0,0.0,1,173.0,1
1024,1024,-0.29588679776265614,-0.3,1.0,0.0,312.0,863.0,0.0,0,215.0,1
1025,1025,0.7863581097729336,0.8,0.0,0.0,447.0,694.0,0.0,1,169.0,1
1026,1026,-0.7096166328525355,-0.7,0.0,1.0,267.0,717.0,1.0,0,156.0,1
1027,1027,-0.21984621881335142,-0.2,0.0,1.0,281.0,557.0,1.0,0,392.0,1
1028,1028,0.3038894912768578,0.3,0.0,0.0,370.0,923.0,0.0,1,67.0,1
1029,1029,0.10134713160233566,0.1,0.0,0.0,356.0,562.0,0.0,1,952.0,1
1030,1030,0.41926906725911206,0.4,0.0,0.0,265.0,683.0,0.0,1,142.0,1
1031,1031,0.4665850928097587,0.5,0.0,0.0,452.0,836.0,0.0,1,192.0,1
1032,1032,-0.44776336003886225,-0.4,0.0,1.0,351.0,854.0,0.0,1,-115.0,0
1033,1033,0.6504705742716558,0.7,1.0,1.0,382.0,594.0,1.0,1,244.0,1
1034,1034,0.22981726493585708,0.2,1.0,1.0,408.0,753.0,1.0,1,279.0,1
1035,1035,0.216916860799102,0.2,1.0,1.0,313.0,560.0,1.0,1,337.0,1
1036,1036,-0.43454276957345583,-0.4,0.0,1.0,471.0,744.0,1.0,0,55.0,1
1037,1037,0.7114610445390902,0.7,1.0,1.0,482.0,825.0,1.0,1,133.0,1
1038,1038,0.46954137968644016,0.5,0.0,0.0,333.0,902.0,0.0,1,305.0,1
1039,1039,-0.42044512749206475,-0.4,0.0,1.0,425.0,716.0,1.0,0,89.0,1
1040,1040,0.5943298298793375,0.6,0.0,0.0,471.0,832.0,0.0,1,267.0,1
1041,1041,-0.33497586645731714,-0.3,1.0,0.0,323.0,896.0,0.0,0,341.0,1
1042,1042,0.6234411527787037,0.6,0.0,0.0,357.0,588.0,0.0,1,275.0,1
1043,1043,-0.34690777756374025,-0.3,1.0,0.0,283.0,844.0,0.0,0,313.0,1
1044,1044,0.7917457288619388,0.8,0.0,0.0,357.0,847.0,0.0,1,136.0,1
1045,1045,-0.10945891608454605,-0.1,1.0,0.0,454.0,523.0,0.0,0,1093.0,1
1046,1046,0.6957725536851346,0.7,0.0,0.0,342.0,936.0,0.0,1,-78.0,1
1047,1047,0.0144339917159092,0.0,0.0,0.0,331.0,730.0,0.0,1,1409.0,1
1048,1048,0.006511828639199524,0.0,1.0,1.0,289.0,841.0,1.0,1,310.0,1
1049,1049,-0.6894489670858989,-0.7,0.0,1.0,400.0,507.0,1.0,0,423.0,1
1050,1050,0.03415185721354563,0.0,0.0,0.0,285.0,942.0,0.0,1,973.0,1
1051,1051,-0.6187985068020485,-0.6,1.0,0.0,333.0,653.0,0.0,0,234.0,1
1052,1052,0.6931658953595693,0.7,1.0,1.0,445.0,523.0,1.0,1,322.0,1
1053,1053,0.2447338702998484,0.2,1.0,1.0,267.0,957.0,1.0,1,106.0,1
1054,1054,0.48684313390216627,0.5,0.0,0.0,304.0,526.0,0.0,1,400.0,1
1055,1055,-0.5707102840705447,-0.6,0.0,1.0,354.0,700.0,1.0,0,306.0,1
1056,1056,-0.27536683833132203,-0.3,0.0,1.0,376.0,586.0,1.0,0,338.0,1
1057,1057,-0.289280441660267,-0.3,0.0,1.0,428.0,505.0,1.0,0,447.0,1
1058,1058,0.6808169832236642,0.7,1.0,1.0,468.0,535.0,1.0,1,167.0,1
1059,1059,0.1683313925244,0.2,1.0,1.0,253.0,867.0,1.0,1,140.0,1
1060,1060,-0.15035295103322877,-0.2,1.0,0.0,334.0,816.0,0.0,0,1570.0,1
1061,1061,0.8074312295617802,0.8,1.0,1.0,290.0,851.0,1.0,1,229.0,1
1062,1062,0.31231832968947615,0.3,1.0,1.0,390.0,769.0,1.0,1,121.0,1
1063,1063,0.3694740631658008,0.4,0.0,0.0,314.0,787.0,0.0,1,289.0,1
1064,1064,0.8273126320316081,0.8,1.0,1.0,316.0,695.0,1.0,1,179.0,1
1065,1065,0.720528290883751,0.7,0.0,0.0,412.0,867.0,0.0,1,131.0,1
1066,1066,-0.14905754266187587,-0.1,0.0,1.0,399.0,514.0,1.0,0,3457.0,1
1067,1067,0.8707335023784121,0.9,0.0,0.0,350.0,984.0,0.0,1,156.0,1
1068,1068,-0.5816041736620929,-0.6,1.0,0.0,493.0,976.0,0.0,0,21.0,1
1069,1069,0.23464169389274392,0.2,1.0,1.0,449.0,792.0,1.0,1,-141.0,1
1070,1070,0.8732776392903073,0.9,0.0,0.0,357.0,974.0,0.0,1,89.0,1
1071,1071,-0.4368058531717711,-0.4,0.0,1.0,373.0,545.0,1.0,0,282.0,1
1072,1072,0.31389224295452534,0.3,1.0,1.0,306.0,581.0,1.0,1,473.0,1
1073,1073,-0.745220186498986,-0.7,0.0,1.0,383.0,653.0,1.0,0,434.0,1
1074,1074,-0.6037790300669623,-0.6,1.0,0.0,268.0,683.0,0.0,0,309.0,1
1075,1075,0.6264400396284758,0.6,0.0,0.0,302.0,718.0,0.0,1,200.0,1
1076,1076,-0.7378252701676132,-0.7,0.0,1.0,425.0,720.0,1.0,0,145.0,1
1077,1077,-0.6062865315137302,-0.6,0.0,1.0,357.0,978.0,1.0,0,75.0,1
1078,1078,0.6999286981094216,0.7,1.0,1.0,468.0,629.0,1.0,1,123.0,1
1079,1079,0.37202797786173625,0.4,0.0,0.0,472.0,687.0,0.0,1,191.0,1
1080,1080,0.23118084747618795,0.2,1.0,1.0,346.0,808.0,1.0,1,266.0,1
1081,1081,-0.5318121765794281,-0.5,1.0,0.0,273.0,665.0,0.0,0,322.0,1
1082,1082,-0.11016679264092477,-0.1,0.0,1.0,494.0,954.0,0.0,1,602.0,0
1083,1083,-0.5043535734259379,-0.5,0.0,1.0,486.0,946.0,1.0,0,288.0,1
1084,1084,-0.43134743779991225,-0.4,1.0,0.0,329.0,866.0,0.0,0,305.0,1
1085,1085,0.7938024255446,0.8,1.0,1.0,318.0,828.0,1.0,1,124.0,1
1086,1086,-0.4504918014626377,-0.5,1.0,0.0,467.0,942.0,0.0,0,191.0,1
1087,1087,0.050929585716838366,0.1,1.0,1.0,357.0,530.0,1.0,1,1373.0,1
1088,1088,-0.03897442874014212,-0.0,0.0,1.0,321.0,694.0,0.0,1,1515.0,0
1089,1089,-0.3309226658178127,-0.3,0.0,1.0,340.0,592.0,1.0,0,408.0,1
1090,1090,0.8213730761780184,0.8,1.0,1.0,408.0,861.0,1.0,1,161.0,1
1091,1091,0.1308426955777432,0.1,1.0,1.0,307.0,844.0,1.0,1,189.0,1
1092,1092,0.6824777209273082,0.7,1.0,1.0,417.0,990.0,1.0,1,-27.0,1
1093,1093,-0.12025339497533771,-0.1,0.0,1.0,491.0,732.0,1.0,0,207.0,1
1094,1094,-0.5259987504796033,-0.5,0.0,1.0,425.0,626.0,1.0,0,249.0,1
1095,1095,-0.6382388468501923,-0.6,1.0,0.0,279.0,500.0,0.0,0,181.0,1
1096,1096,0.8680722712092007,0.9,1.0,1.0,299.0,898.0,1.0,1,53.0,1
1097,1097,0.8234872657113071,0.8,0.0,0.0,432.0,565.0,0.0,1,223.0,1
1098,1098,-0.5510936265238924,-0.6,0.0,1.0,389.0,628.0,1.0,0,193.0,1
1099,1099,-0.03430149119054049,-0.0,0.0,1.0,414.0,874.0,0.0,1,542.0,0
1100,1100,0.712767407214853,0.7,1.0,1.0,409.0,565.0,1.0,1,266.0,1
1101,1101,-0.6652359935769507,-0.7,1.0,0.0,307.0,618.0,0.0,0,295.0,1
1102,1102,-0.4312729046110029,-0.4,0.0,1.0,290.0,956.0,1.0,0,254.0,1
1103,1103,-0.010536775322398939,-0.0,0.0,1.0,330.0,671.0,0.0,1,969.0,0
1104,1104,-0.6602287782483705,-0.7,0.0,1.0,433.0,741.0,1.0,0,216.0,1
1105,1105,0.5782929560974507,0.6,1.0,1.0,426.0,890.0,1.0,1,34.0,1
1106,1106,-0.4796388257431212,-0.5,1.0,0.0,271.0,731.0,0.0,0,518.0,1
1107,1107,0.009726929903849046,0.0,1.0,1.0,399.0,745.0,1.0,1,36.0,1
1108,1108,-0.41706492603296996,-0.4,0.0,1.0,300.0,756.0,1.0,0,144.0,1
1109,1109,0.8197846942924717,0.8,1.0,1.0,260.0,545.0,1.0,1,195.0,1
1110,1110,-0.26254504685430324,-0.3,1.0,0.0,496.0,756.0,0.0,0,388.0,1
1111,1111,-0.026996929881437426,-0.0,1.0,0.0,299.0,536.0,1.0,1,585.0,0
1112,1112,-0.5210329093524915,-0.5,1.0,0.0,334.0,932.0,0.0,0,144.0,1
1113,1113,0.29836193284333656,0.3,1.0,1.0,430.0,597.0,1.0,1,193.0,1
1114,1114,-0.49831984426720394,-0.5,0.0,1.0,324.0,625.0,1.0,0,131.0,1
1115,1115,-0.44042166783733566,-0.4,1.0,0.0,301.0,683.0,0.0,0,336.0,1
1116,1116,0.6629318356300585,0.7,1.0,1.0,353.0,867.0,1.0,1,240.0,1
1117,1117,-0.2861430498942432,-0.3,0.0,1.0,328.0,851.0,1.0,0,61.0,1
1118,1118,0.360357145180379,0.4,0.0,0.0,378.0,530.0,0.0,1,632.0,1
1119,1119,0.31207507623675046,0.3,0.0,0.0,398.0,546.0,0.0,1,496.0,1
1120,1120,0.3402193673336894,0.3,1.0,1.0,322.0,607.0,1.0,1,171.0,1
1121,1121,-0.2540171342047576,-0.3,0.0,1.0,279.0,715.0,1.0,0,146.0,1
1122,1122,0.3332567323946828,0.3,1.0,1.0,409.0,718.0,1.0,1,163.0,1
1123,1123,-0.038090794776835524,-0.0,0.0,1.0,487.0,684.0,1.0,0,1059.0,1
1124,1124,0.7524059152902333,0.8,1.0,1.0,295.0,963.0,1.0,1,92.0,1
1125,1125,0.26754246902873347,0.3,1.0,1.0,255.0,734.0,1.0,1,301.0,1
1126,1126,-0.7700220704878318,-0.8,0.0,1.0,446.0,689.0,1.0,0,335.0,1
1127,1127,-0.25709922890998427,-0.3,1.0,0.0,379.0,985.0,0.0,0,166.0,1
1128,1128,0.06959404201274622,0.1,0.0,0.0,293.0,906.0,0.0,1,901.0,1
1129,1129,0.7999539290843848,0.8,0.0,0.0,427.0,518.0,0.0,1,365.0,1
1130,1130,-0.11125244889209496,-0.1,0.0,1.0,381.0,868.0,1.0,0,231.0,1
1131,1131,0.496156634013042,0.5,1.0,1.0,310.0,797.0,1.0,1,163.0,1
1132,1132,0.2739934827176497,0.3,0.0,0.0,425.0,920.0,0.0,1,685.0,1
1133,1133,0.5228619827310838,0.5,0.0,0.0,486.0,816.0,0.0,1,268.0,1
1134,1134,-0.000850594149414241,-0.0,0.0,1.0,488.0,734.0,0.0,1,1078.0,0
1135,1135,0.03664271569606503,0.0,0.0,0.0,431.0,566.0,0.0,1,973.0,1
1136,1136,-0.6020568416249771,-0.6,1.0,0.0,378.0,974.0,0.0,0,88.0,1
1137,1137,0.381298673500288,0.4,0.0,0.0,343.0,534.0,0.0,1,713.0,1
1138,1138,-0.3861235100223428,-0.4,0.0,1.0,488.0,638.0,1.0,0,464.0,1
1139,1139,0.712236841277411,0.7,1.0,1.0,498.0,979.0,1.0,1,123.0,1
1140,1140,-0.8345225832273645,-0.8,0.0,1.0,332.0,832.0,1.0,0,136.0,1
1141,1141,0.5966089410830776,0.6,0.0,0.0,275.0,959.0,0.0,1,226.0,1
1142,1142,0.6993284368261253,0.7,0.0,0.0,279.0,675.0,0.0,1,296.0,1
1143,1143,0.3497483880009816,0.3,0.0,0.0,373.0,545.0,0.0,1,482.0,1
1144,1144,-0.8459181029405377,-0.8,0.0,1.0,477.0,709.0,1.0,0,184.0,1
1145,1145,-0.43400483251286,-0.4,1.0,0.0,283.0,962.0,0.0,0,365.0,1
1146,1146,-0.6827199316517186,-0.7,0.0,1.0,355.0,929.0,1.0,0,236.0,1
1147,1147,-0.3319372462380257,-0.3,0.0,1.0,356.0,745.0,1.0,0,289.0,1
1148,1148,-0.7461525803935002,-0.7,1.0,0.0,358.0,834.0,0.0,0,228.0,1
1149,1149,-0.3642569027108409,-0.4,0.0,1.0,331.0,688.0,1.0,0,421.0,1
1150,1150,-0.410263397154402,-0.4,1.0,0.0,263.0,938.0,0.0,0,359.0,1
1151,1151,-0.5419688753172577,-0.5,1.0,0.0,256.0,951.0,0.0,0,183.0,1
1152,1152,0.034811249257473476,0.0,0.0,0.0,369.0,622.0,0.0,1,769.0,1
1153,1153,-0.7573492881263657,-0.8,0.0,1.0,318.0,593.0,1.0,0,259.0,1
1154,1154,0.8248712201542524,0.8,0.0,0.0,337.0,782.0,0.0,1,121.0,1
1155,1155,-0.26936927666718347,-0.3,1.0,0.0,357.0,615.0,0.0,0,758.0,1
1156,1156,0.6311339809165794,0.6,0.0,0.0,435.0,920.0,0.0,1,165.0,1
1157,1157,0.02534021861143354,0.0,0.0,0.0,336.0,951.0,0.0,1,623.0,1
1158,1158,-0.5762102830434945,-0.6,0.0,1.0,460.0,796.0,1.0,0,274.0,1
1159,1159,-0.33873805466863416,-0.3,1.0,0.0,409.0,967.0,0.0,0,594.0,1
1160,1160,0.34278434802670754,0.3,1.0,1.0,401.0,920.0,1.0,1,179.0,1
1161,1161,-0.07778979766448668,-0.1,1.0,0.0,392.0,861.0,0.0,0,477.0,1
1162,1162,-0.6450751537879578,-0.6,1.0,0.0,302.0,696.0,0.0,0,312.0,1
1163,1163,-0.8998163349041856,-0.9,1.0,0.0,431.0,529.0,0.0,0,230.0,1
1164,1164,0.3332472828132004,0.3,1.0,1.0,397.0,979.0,1.0,1,-76.0,1
1165,1165,-0.5344667077084817,-0.5,0.0,1.0,333.0,626.0,1.0,0,191.0,1
1166,1166,0.694419085547957,0.7,1.0,1.0,402.0,772.0,1.0,1,166.0,1
1167,1167,0.10316615246219529,0.1,1.0,1.0,480.0,555.0,0.0,0,1125.0,0
1168,1168,0.6847627836272164,0.7,0.0,0.0,290.0,563.0,0.0,1,407.0,1
1169,1169,-0.09912433665221065,-0.1,0.0,1.0,451.0,744.0,1.0,0,855.0,1
1170,1170,0.3371281908887057,0.3,1.0,1.0,250.0,920.0,1.0,1,160.0,1
1171,1171,0.6672575607022876,0.7,0.0,0.0,274.0,584.0,0.0,1,192.0,1
1172,1172,0.5874077644629677,0.6,1.0,1.0,439.0,898.0,1.0,1,193.0,1
1173,1173,-0.0844519083270936,-0.1,0.0,1.0,377.0,752.0,1.0,0,1311.0,1
1174,1174,0.14747885314802478,0.1,1.0,1.0,442.0,887.0,1.0,1,-109.0,1
1175,1175,0.3771065131023571,0.4,1.0,1.0,251.0,746.0,1.0,1,153.0,1
1176,1176,-0.5600984363472856,-0.6,0.0,1.0,385.0,709.0,1.0,0,256.0,1
1177,1177,0.5112768201567012,0.5,1.0,1.0,251.0,571.0,1.0,1,208.0,1
1178,1178,0.39336222405422305,0.4,0.0,0.0,490.0,628.0,0.0,1,212.0,1
1179,1179,0.5825231428698087,0.6,1.0,1.0,486.0,930.0,1.0,1,34.0,1
1180,1180,0.1357632838440329,0.1,1.0,1.0,454.0,929.0,1.0,1,667.0,1
1181,1181,0.8403405220595487,0.8,1.0,1.0,478.0,569.0,1.0,1,423.0,1
1182,1182,0.4487170428911239,0.4,0.0,0.0,402.0,772.0,0.0,1,146.0,1
1183,1183,0.49698713681310014,0.5,1.0,1.0,445.0,637.0,1.0,1,148.0,1
1184,1184,0.8674359210274084,0.9,1.0,1.0,497.0,979.0,1.0,1,84.0,1
1185,1185,0.6616294806276092,0.7,0.0,0.0,478.0,691.0,0.0,1,181.0,1
1186,1186,-0.012099005791904482,-0.0,1.0,0.0,485.0,641.0,1.0,1,994.0,0
1187,1187,0.7935055360029492,0.8,1.0,1.0,297.0,574.0,1.0,1,449.0,1
1188,1188,-0.11687592945314795,-0.1,1.0,0.0,452.0,691.0,0.0,0,337.0,1
1189,1189,-0.2417057376816829,-0.2,0.0,1.0,405.0,798.0,1.0,0,237.0,1
1190,1190,-0.36838875529965476,-0.4,0.0,1.0,481.0,549.0,1.0,0,400.0,1
1191,1191,-0.07959583480424859,-0.1,0.0,1.0,250.0,615.0,0.0,1,1265.0,0
1192,1192,0.47386654504905346,0.5,0.0,0.0,491.0,880.0,0.0,1,299.0,1
1193,1193,-0.12177625890724242,-0.1,1.0,0.0,379.0,729.0,0.0,0,1332.0,1
1194,1194,-0.3357695675875074,-0.3,0.0,1.0,274.0,888.0,1.0,0,228.0,1
1195,1195,0.14368015129960054,0.1,0.0,0.0,376.0,736.0,0.0,1,368.0,1
1196,1196,0.6164619368055216,0.6,1.0,1.0,426.0,765.0,1.0,1,159.0,1
1197,1197,-0.10341612175398074,-0.1,1.0,0.0,384.0,860.0,0.0,0,636.0,1
1198,1198,0.6651103061484284,0.7,0.0,0.0,470.0,597.0,0.0,1,283.0,1
1199,1199,0.2359746264874164,0.2,0.0,0.0,311.0,923.0,0.0,1,866.0,1
1200,1200,-0.0393842182475157,-0.0,1.0,0.0,317.0,953.0,1.0,1,120.0,0
1201,1201,0.5444832571796424,0.5,0.0,0.0,301.0,840.0,0.0,1,109.0,1
1202,1202,-0.5348243913829354,-0.5,1.0,0.0,448.0,767.0,0.0,0,295.0,1
1203,1203,-0.31194065870303833,-0.3,0.0,1.0,496.0,977.0,1.0,0,97.0,1
1204,1204,-0.6600833176424917,-0.7,0.0,1.0,416.0,798.0,1.0,0,196.0,1
1205,1205,-0.006060121716807587,-0.0,0.0,1.0,489.0,716.0,1.0,0,1175.0,1
1206,1206,-0.5869633616378385,-0.6,0.0,1.0,417.0,767.0,1.0,0,286.0,1
1207,1207,-0.02306464043341072,-0.0,0.0,1.0,258.0,694.0,0.0,1,2848.0,0
1208,1208,-0.8087662611618868,-0.8,0.0,1.0,288.0,740.0,1.0,0,212.0,1
1209,1209,-0.2959729341319459,-0.3,1.0,0.0,252.0,832.0,0.0,0,226.0,1
1210,1210,-0.8236928369151217,-0.8,0.0,1.0,390.0,753.0,1.0,0,27.0,1
1211,1211,-0.3432908095558179,-0.3,1.0,0.0,427.0,630.0,0.0,0,283.0,1
1212,1212,-0.6687922236127938,-0.7,0.0,1.0,498.0,719.0,1.0,0,223.0,1
1213,1213,0.4451223254284665,0.4,0.0,0.0,454.0,628.0,0.0,1,308.0,1
1214,1214,-0.489719420200532,-0.5,1.0,0.0,309.0,656.0,0.0,0,575.0,1
1215,1215,0.215365119015121,0.2,1.0,1.0,371.0,734.0,1.0,1,205.0,1
1216,1216,0.2527980680693144,0.3,1.0,1.0,481.0,543.0,1.0,1,366.0,1
1217,1217,-0.13788524354388965,-0.1,0.0,1.0,470.0,991.0,1.0,0,359.0,1
1218,1218,-0.8705508652789277,-0.9,1.0,0.0,338.0,821.0,0.0,0,91.0,1
1219,1219,0.8094798326051346,0.8,0.0,0.0,270.0,818.0,0.0,1,162.0,1
1220,1220,0.8521764221910281,0.9,0.0,0.0,256.0,799.0,0.0,1,215.0,1
1221,1221,0.36542832087037425,0.4,0.0,0.0,363.0,669.0,0.0,1,328.0,1
1222,1222,0.72307525132376,0.7,1.0,1.0,448.0,682.0,1.0,1,90.0,1
1223,1223,0.12898932997423518,0.1,1.0,1.0,422.0,676.0,1.0,1,232.0,1
1224,1224,0.8232093327274966,0.8,1.0,1.0,284.0,573.0,1.0,1,193.0,1
1225,1225,-0.6109385328253129,-0.6,1.0,0.0,451.0,910.0,0.0,0,169.0,1
1226,1226,-0.06499732537208902,-0.1,1.0,0.0,400.0,784.0,0.0,0,2186.0,1
1227,1227,-0.8024527702912204,-0.8,1.0,0.0,275.0,606.0,0.0,0,239.0,1
1228,1228,0.3298762889162207,0.3,0.0,0.0,297.0,526.0,0.0,1,337.0,1
1229,1229,0.7692514466888415,0.8,1.0,1.0,342.0,617.0,1.0,1,131.0,1
1230,1230,0.05358382288860919,0.1,1.0,1.0,444.0,812.0,1.0,1,394.0,1
1231,1231,0.7436554132120542,0.7,1.0,1.0,417.0,698.0,1.0,1,55.0,1
1232,1232,-0.774961613456346,-0.8,0.0,1.0,256.0,874.0,1.0,0,50.0,1
1233,1233,0.15048471820922626,0.2,1.0,1.0,255.0,631.0,1.0,1,414.0,1
1234,1234,-0.6817848884984503,-0.7,0.0,1.0,339.0,527.0,1.0,0,334.0,1
1235,1235,0.5152119512646113,0.5,1.0,1.0,482.0,592.0,1.0,1,346.0,1
1236,1236,0.8699303811020508,0.9,1.0,1.0,250.0,954.0,1.0,1,146.0,1
1237,1237,-0.4199844286983702,-0.4,0.0,1.0,430.0,570.0,1.0,0,450.0,1
1238,1238,0.6905589914432423,0.7,1.0,1.0,369.0,888.0,1.0,1,33.0,1
1239,1239,-0.6491934269186744,-0.6,0.0,1.0,415.0,898.0,1.0,0,47.0,1
1240,1240,0.5556488702413617,0.6,1.0,1.0,264.0,821.0,1.0,1,125.0,1
1241,1241,-0.7680653855380897,-0.8,1.0,0.0,482.0,530.0,0.0,0,268.0,1
1242,1242,0.7050462680602511,0.7,1.0,1.0,251.0,515.0,1.0,1,534.0,1
1243,1243,-0.33010194146898564,-0.3,1.0,0.0,398.0,707.0,0.0,0,485.0,1
1244,1244,0.8877051043489089,0.9,1.0,1.0,321.0,529.0,1.0,1,300.0,1
1245,1245,0.7674356672093149,0.8,1.0,1.0,413.0,940.0,1.0,1,-203.0,1
1246,1246,0.7601913366456076,0.8,1.0,1.0,270.0,559.0,1.0,1,281.0,1
1247,1247,-0.8023458038130749,-0.8,1.0,0.0,401.0,616.0,0.0,0,263.0,1
1248,1248,0.7012471297921442,0.7,1.0,1.0,493.0,871.0,1.0,1,336.0,1
1249,1249,0.3458990874599116,0.3,1.0,1.0,283.0,742.0,1.0,1,395.0,1
1250,1250,0.18498125518149855,0.2,1.0,1.0,278.0,611.0,1.0,1,341.0,1
1251,1251,-0.7129590373957891,-0.7,0.0,1.0,358.0,888.0,1.0,0,154.0,1
1252,1252,-0.04731208910738205,-0.0,1.0,0.0,300.0,699.0,0.0,0,1871.0,1
1253,1253,0.6492536546394153,0.6,1.0,1.0,417.0,709.0,1.0,1,34.0,1
1254,1254,0.46594841545139387,0.5,0.0,0.0,368.0,994.0,0.0,1,188.0,1
1255,1255,-0.14800069802132032,-0.1,1.0,0.0,410.0,630.0,0.0,0,2020.0,1
1256,1256,-0.7064912655571521,-0.7,1.0,0.0,363.0,964.0,0.0,0,143.0,1
1257,1257,-0.4057349589292632,-0.4,0.0,1.0,337.0,780.0,1.0,0,243.0,1
1258,1258,-0.05474007963824168,-0.1,1.0,0.0,396.0,959.0,1.0,1,355.0,0
1259,1259,0.44412842503247985,0.4,1.0,1.0,383.0,956.0,1.0,1,281.0,1
1260,1260,-0.006233513435638716,-0.0,1.0,0.0,348.0,749.0,0.0,0,1383.0,1
1261,1261,0.1164977606978791,0.1,0.0,0.0,271.0,750.0,0.0,1,659.0,1
1262,1262,0.19300219218255898,0.2,1.0,1.0,418.0,718.0,1.0,1,354.0,1
1263,1263,0.05170404916801685,0.1,1.0,1.0,263.0,815.0,1.0,1,502.0,1
1264,1264,0.4801907551767993,0.5,1.0,1.0,330.0,621.0,1.0,1,119.0,1
1265,1265,-0.32404325079950214,-0.3,0.0,1.0,393.0,719.0,1.0,0,198.0,1
1266,1266,0.6692207484891265,0.7,0.0,0.0,262.0,834.0,0.0,1,374.0,1
1267,1267,-0.3845319274845689,-0.4,0.0,1.0,298.0,783.0,1.0,0,519.0,1
1268,1268,0.3245457535976629,0.3,1.0,1.0,390.0,532.0,1.0,1,308.0,1
1269,1269,-0.49104741867061413,-0.5,1.0,0.0,374.0,886.0,0.0,0,140.0,1
1270,1270,0.31856290751027305,0.3,0.0,0.0,317.0,811.0,0.0,1,182.0,1
1271,1271,-0.4304455582426911,-0.4,1.0,0.0,344.0,761.0,0.0,0,355.0,1
1272,1272,0.2436671510164391,0.2,0.0,0.0,362.0,890.0,0.0,1,468.0,1
1273,1273,0.14084955150354428,0.1,0.0,0.0,313.0,898.0,0.0,1,1089.0,1
1274,1274,0.7695911031679635,0.8,0.0,0.0,267.0,890.0,0.0,1,133.0,1
1275,1275,0.15458326470110906,0.2,1.0,1.0,286.0,598.0,1.0,1,346.0,1
1276,1276,0.7191280891846329,0.7,1.0,1.0,463.0,845.0,1.0,1,82.0,1
1277,1277,0.2832631830554725,0.3,1.0,1.0,496.0,718.0,1.0,1,136.0,1
1278,1278,0.517094496614264,0.5,1.0,1.0,297.0,780.0,1.0,1,353.0,1
1279,1279,0.37788476150314254,0.4,0.0,0.0,442.0,580.0,0.0,1,408.0,1
1280,1280,0.8350799424144607,0.8,1.0,1.0,331.0,687.0,1.0,1,302.0,1
1281,1281,-0.13802837353712705,-0.1,1.0,0.0,324.0,843.0,0.0,0,593.0,1
1282,1282,0.32188327108149994,0.3,1.0,1.0,439.0,763.0,1.0,1,298.0,1
1283,1283,-0.6765679923655012,-0.7,1.0,0.0,292.0,502.0,0.0,0,206.0,1
1284,1284,0.3554794460168521,0.4,0.0,0.0,366.0,876.0,0.0,1,158.0,1
1285,1285,0.27370229526165246,0.3,1.0,1.0,471.0,830.0,1.0,1,369.0,1
1286,1286,-0.15675464616236612,-0.2,0.0,1.0,391.0,522.0,1.0,0,577.0,1
1287,1287,0.7729176484547465,0.8,1.0,1.0,425.0,511.0,1.0,1,244.0,1
1288,1288,-0.44970061276026896,-0.4,1.0,0.0,299.0,812.0,0.0,0,309.0,1
1289,1289,-0.809655207869292,-0.8,1.0,0.0,351.0,643.0,0.0,0,186.0,1
1290,1290,0.43280568793363783,0.4,1.0,1.0,361.0,544.0,1.0,1,165.0,1
1291,1291,-0.47975316559377496,-0.5,0.0,1.0,443.0,721.0,1.0,0,246.0,1
1292,1292,0.6489839533213594,0.6,0.0,0.0,297.0,920.0,0.0,1,133.0,1
1293,1293,0.8356262278647045,0.8,1.0,1.0,326.0,584.0,1.0,1,60.0,1
1294,1294,-0.6063921604682213,-0.6,0.0,1.0,476.0,645.0,1.0,0,299.0,1
1295,1295,-0.12806196418940352,-0.1,1.0,0.0,396.0,555.0,0.0,0,729.0,1
1296,1296,0.8065595555231829,0.8,0.0,0.0,437.0,693.0,0.0,1,210.0,1
1297,1297,0.13038439176784034,0.1,0.0,0.0,346.0,636.0,0.0,1,308.0,1
1298,1298,0.772905049108685,0.8,0.0,0.0,253.0,665.0,0.0,1,192.0,1
1299,1299,-0.8744362971303268,-0.9,1.0,0.0,455.0,819.0,0.0,0,186.0,1
1300,1300,-0.6232922090294661,-0.6,0.0,1.0,368.0,959.0,1.0,0,183.0,1
1301,1301,-0.29110782333783014,-0.3,0.0,1.0,310.0,652.0,1.0,0,278.0,1
1302,1302,-0.1692051600494865,-0.2,0.0,1.0,417.0,628.0,1.0,0,425.0,1
1303,1303,-0.39952530162940714,-0.4,1.0,0.0,399.0,944.0,1.0,1,-63.0,0
1304,1304,-0.19652643128939573,-0.2,1.0,0.0,267.0,989.0,0.0,0,184.0,1
1305,1305,0.8858120120799039,0.9,0.0,0.0,421.0,832.0,0.0,1,177.0,1
1306,1306,-0.1893016460033068,-0.2,1.0,0.0,397.0,957.0,0.0,0,926.0,1
1307,1307,-0.3237493975175927,-0.3,1.0,0.0,270.0,800.0,0.0,0,640.0,1
1308,1308,-0.2010698179896253,-0.2,1.0,0.0,445.0,903.0,0.0,0,412.0,1
1309,1309,0.4015320905267342,0.4,0.0,0.0,340.0,865.0,0.0,1,115.0,1
1310,1310,0.42500825450088586,0.4,0.0,0.0,364.0,605.0,0.0,1,351.0,1
1311,1311,0.3496603706085829,0.3,0.0,0.0,470.0,731.0,0.0,1,369.0,1
1312,1312,-0.37120327042805634,-0.4,1.0,0.0,442.0,935.0,0.0,0,263.0,1
1313,1313,-0.15187985981426633,-0.2,1.0,0.0,446.0,917.0,0.0,0,767.0,1
1314,1314,0.7665806300841943,0.8,1.0,1.0,350.0,633.0,1.0,1,227.0,1
1315,1315,-0.8594079224129273,-0.9,0.0,1.0,294.0,715.0,1.0,0,131.0,1
1316,1316,0.05680429644756835,0.1,0.0,0.0,417.0,703.0,0.0,1,1290.0,1
1317,1317,-0.3531750219753601,-0.4,1.0,0.0,293.0,566.0,0.0,0,421.0,1
1318,1318,0.5934765246628088,0.6,0.0,0.0,259.0,819.0,0.0,1,272.0,1
1319,1319,-0.21384770399460373,-0.2,0.0,1.0,457.0,544.0,1.0,0,989.0,1
1320,1320,0.6139310151734995,0.6,1.0,1.0,482.0,703.0,1.0,1,225.0,1
1321,1321,-0.5235825458599521,-0.5,0.0,1.0,459.0,734.0,1.0,0,187.0,1
1322,1322,0.26132905555143726,0.3,0.0,0.0,479.0,686.0,0.0,1,315.0,1
1323,1323,-0.675680625506361,-0.7,1.0,0.0,282.0,588.0,0.0,0,230.0,1
1324,1324,-0.03262712686586777,-0.0,0.0,1.0,452.0,974.0,1.0,0,194.0,1
1325,1325,0.8212552933569882,0.8,1.0,1.0,335.0,887.0,1.0,1,88.0,1
1326,1326,0.005674530711791914,0.0,0.0,0.0,429.0,726.0,1.0,0,255.0,0
1327,1327,-0.7525819044215343,-0.8,1.0,0.0,412.0,779.0,0.0,0,169.0,1
1328,1328,0.2739671059781371,0.3,0.0,0.0,494.0,769.0,0.0,1,317.0,1
1329,1329,0.43264701464227373,0.4,0.0,0.0,388.0,725.0,0.0,1,157.0,1
1330,1330,0.7026685944147194,0.7,1.0,1.0,282.0,510.0,1.0,1,278.0,1
1331,1331,0.744463880495794,0.7,0.0,0.0,491.0,829.0,0.0,1,180.0,1
1332,1332,0.08993726951036107,0.1,0.0,0.0,489.0,595.0,0.0,1,456.0,1
1333,1333,-0.5032640648389184,-0.5,1.0,0.0,315.0,851.0,0.0,0,254.0,1
1334,1334,-0.19656102050464497,-0.2,0.0,1.0,306.0,965.0,0.0,1,279.0,0
1335,1335,0.1751103106388886,0.2,1.0,1.0,397.0,724.0,1.0,1,179.0,1
1336,1336,0.8047361815896045,0.8,0.0,0.0,287.0,840.0,0.0,1,143.0,1
1337,1337,0.6521009910400811,0.7,1.0,1.0,313.0,783.0,1.0,1,34.0,1
1338,1338,-0.16136327339747125,-0.2,0.0,1.0,278.0,703.0,1.0,0,129.0,1
1339,1339,0.24846624867780365,0.2,0.0,0.0,454.0,845.0,0.0,1,891.0,1
1340,1340,-0.5377163543705894,-0.5,1.0,0.0,300.0,517.0,0.0,0,303.0,1
1341,1341,0.5822820063378694,0.6,0.0,0.0,297.0,862.0,0.0,1,161.0,1
1342,1342,0.027723837307218946,0.0,1.0,1.0,365.0,811.0,1.0,1,34.0,1
1343,1343,-0.3724627384133409,-0.4,0.0,1.0,270.0,933.0,1.0,0,267.0,1
1344,1344,-0.6706645197604605,-0.7,1.0,0.0,396.0,728.0,0.0,0,346.0,1
1345,1345,-0.719886174356161,-0.7,0.0,1.0,489.0,658.0,1.0,0,153.0,1
1346,1346,-0.8086888716918784,-0.8,0.0,1.0,259.0,618.0,1.0,0,183.0,1
1347,1347,0.2401938112391796,0.2,1.0,1.0,380.0,503.0,1.0,1,687.0,1
1348,1348,-0.7473369077283951,-0.7,0.0,1.0,459.0,510.0,1.0,0,431.0,1
1349,1349,0.7326434849063784,0.7,1.0,1.0,433.0,906.0,1.0,1,91.0,1
1350,1350,-0.57764744510059,-0.6,0.0,1.0,427.0,665.0,1.0,0,128.0,1
1351,1351,-0.4289883151778852,-0.4,1.0,0.0,302.0,915.0,0.0,0,253.0,1
1352,1352,0.426041986748637,0.4,0.0,0.0,262.0,694.0,0.0,1,274.0,1
1353,1353,-0.15362463874754806,-0.2,0.0,1.0,435.0,783.0,0.0,1,12.0,0
1354,1354,-0.7826452270455617,-0.8,1.0,0.0,475.0,724.0,0.0,0,231.0,1
1355,1355,-0.2953989122790659,-0.3,1.0,0.0,352.0,736.0,0.0,0,362.0,1
1356,1356,0.8635552343961405,0.9,0.0,0.0,485.0,915.0,0.0,1,110.0,1
1357,1357,-0.2822230919288955,-0.3,0.0,1.0,386.0,853.0,1.0,0,-19.0,1
1358,1358,-0.10736466864081229,-0.1,0.0,1.0,421.0,796.0,1.0,0,1733.0,1
1359,1359,-0.27628058377229014,-0.3,0.0,1.0,437.0,638.0,1.0,0,275.0,1
1360,1360,-0.3599556975808673,-0.4,1.0,0.0,277.0,691.0,0.0,0,522.0,1
1361,1361,-0.42842403047179023,-0.4,1.0,0.0,429.0,786.0,0.0,0,55.0,1
1362,1362,0.6111822927139291,0.6,1.0,1.0,325.0,590.0,1.0,1,165.0,1
1363,1363,-0.41997165637501765,-0.4,0.0,1.0,442.0,730.0,1.0,0,578.0,1
1364,1364,0.847211126931554,0.8,1.0,1.0,413.0,518.0,1.0,1,279.0,1
1365,1365,-0.7786060106014471,-0.8,1.0,0.0,441.0,803.0,0.0,0,156.0,1
1366,1366,-0.49617395900304573,-0.5,0.0,1.0,341.0,528.0,1.0,0,401.0,1
1367,1367,-0.7611817316120394,-0.8,1.0,0.0,377.0,687.0,0.0,0,166.0,1
1368,1368,-0.33657429423676766,-0.3,0.0,1.0,469.0,568.0,1.0,0,693.0,1
1369,1369,0.0719472706977351,0.1,1.0,1.0,326.0,729.0,1.0,1,75.0,1
1370,1370,0.15905144688938655,0.2,0.0,0.0,290.0,749.0,0.0,1,871.0,1
1371,1371,0.2144044160586288,0.2,1.0,1.0,382.0,674.0,1.0,1,194.0,1
1372,1372,-0.1561234457249352,-0.2,0.0,1.0,354.0,855.0,1.0,0,831.0,1
1373,1373,-0.16855543082265012,-0.2,0.0,1.0,335.0,635.0,1.0,0,500.0,1
1374,1374,-0.7828917235294016,-0.8,1.0,0.0,446.0,824.0,0.0,0,180.0,1
1375,1375,-0.0011743323141718554,-0.0,1.0,0.0,416.0,570.0,0.0,0,384.0,1
1376,1376,0.8405352221224477,0.8,1.0,1.0,325.0,760.0,1.0,1,145.0,1
1377,1377,-0.7335575094688177,-0.7,1.0,0.0,438.0,704.0,0.0,0,308.0,1
1378,1378,-0.4067366175030808,-0.4,1.0,0.0,279.0,516.0,0.0,0,375.0,1
1379,1379,-0.7119486535481494,-0.7,1.0,0.0,381.0,623.0,0.0,0,286.0,1
1380,1380,-0.20260847365639412,-0.2,1.0,0.0,269.0,602.0,1.0,1,299.0,0
1381,1381,0.32734227043252806,0.3,0.0,0.0,384.0,510.0,0.0,1,276.0,1
1382,1382,0.30416179436910007,0.3,0.0,0.0,436.0,972.0,0.0,1,162.0,1
1383,1383,-0.1857913572066252,-0.2,1.0,0.0,440.0,621.0,0.0,0,1009.0,1
1384,1384,0.4283668570344109,0.4,1.0,1.0,407.0,673.0,1.0,1,60.0,1
1385,1385,0.07438993967336982,0.1,0.0,0.0,357.0,701.0,1.0,0,192.0,0
1386,1386,-0.15164490885729542,-0.2,0.0,1.0,306.0,560.0,0.0,1,1054.0,0
1387,1387,-0.7279558837262364,-0.7,1.0,0.0,252.0,902.0,0.0,0,136.0,1
1388,1388,0.2948103801536678,0.3,1.0,1.0,477.0,515.0,1.0,1,188.0,1
1389,1389,0.004170700323276932,0.0,0.0,0.0,484.0,704.0,1.0,0,602.0,0
1390,1390,0.28483063077533,0.3,0.0,0.0,319.0,942.0,0.0,1,279.0,1
1391,1391,0.8881938921237044,0.9,0.0,0.0,450.0,870.0,0.0,1,0.0,1
1392,1392,-0.5958135241191019,-0.6,1.0,0.0,298.0,947.0,0.0,0,5.0,1
1393,1393,0.39898890522857255,0.4,0.0,0.0,428.0,684.0,0.0,1,288.0,1
1394,1394,0.04527947064997628,0.0,0.0,0.0,483.0,599.0,0.0,1,638.0,1
1395,1395,-0.7869930800023877,-0.8,0.0,1.0,334.0,705.0,1.0,0,271.0,1
1396,1396,-0.14790469058747768,-0.1,0.0,1.0,359.0,518.0,1.0,0,1173.0,1
1397,1397,0.8431730612066691,0.8,1.0,1.0,382.0,758.0,1.0,1,190.0,1
1398,1398,0.13440658552821938,0.1,1.0,1.0,440.0,516.0,1.0,1,374.0,1
1399,1399,-0.3003719531048836,-0.3,0.0,1.0,258.0,503.0,1.0,0,519.0,1
1400,1400,0.35351398802186484,0.4,0.0,0.0,447.0,720.0,0.0,1,333.0,1
1401,1401,0.09786643982356802,0.1,0.0,0.0,362.0,699.0,0.0,1,449.0,1
1402,1402,-0.10564518591947925,-0.1,1.0,0.0,320.0,860.0,0.0,0,1600.0,1
1403,1403,-0.07732217536779862,-0.1,0.0,1.0,425.0,759.0,1.0,0,76.0,1
1404,1404,0.33930924567790977,0.3,1.0,1.0,479.0,770.0,1.0,1,811.0,1
1405,1405,-0.49535220486005727,-0.5,1.0,0.0,288.0,589.0,0.0,0,413.0,1
1406,1406,-0.48065737429592986,-0.5,1.0,0.0,324.0,557.0,0.0,0,349.0,1
1407,1407,-0.2597144377000712,-0.3,1.0,0.0,372.0,690.0,0.0,0,318.0,1
1408,1408,0.2507185670424873,0.3,0.0,0.0,364.0,776.0,0.0,1,110.0,1
1409,1409,-0.36020684416025217,-0.4,0.0,1.0,349.0,613.0,1.0,0,258.0,1
1410,1410,-0.22940260843595883,-0.2,1.0,0.0,351.0,754.0,0.0,0,375.0,1
1411,1411,-0.4549744479860373,-0.5,1.0,0.0,472.0,526.0,0.0,0,542.0,1
1412,1412,-0.4461142025826826,-0.4,1.0,0.0,387.0,773.0,0.0,0,160.0,1
1413,1413,-0.2926329301289785,-0.3,1.0,0.0,440.0,691.0,0.0,0,239.0,1
1414,1414,-0.8500964637174868,-0.9,0.0,1.0,379.0,932.0,1.0,0,69.0,1
1415,1415,-0.898957375306572,-0.9,0.0,1.0,448.0,505.0,1.0,0,377.0,1
1416,1416,-0.7308203013800117,-0.7,1.0,0.0,493.0,953.0,0.0,0,244.0,1
1417,1417,-0.8472993931859341,-0.8,0.0,1.0,338.0,660.0,1.0,0,232.0,1
1418,1418,0.7173940115779588,0.7,1.0,1.0,323.0,833.0,1.0,1,214.0,1
1419,1419,0.5346883705047288,0.5,1.0,1.0,325.0,840.0,1.0,1,105.0,1
1420,1420,-0.4152915674441397,-0.4,1.0,0.0,446.0,651.0,0.0,0,303.0,1
1421,1421,-0.6424871566714567,-0.6,0.0,1.0,472.0,839.0,1.0,0,129.0,1
1422,1422,-0.5489545330909253,-0.5,0.0,1.0,297.0,899.0,1.0,0,224.0,1
1423,1423,0.13252943855986776,0.1,1.0,1.0,404.0,588.0,1.0,1,238.0,1
1424,1424,0.04256284830875434,0.0,1.0,1.0,304.0,786.0,1.0,1,820.0,1
1425,1425,0.34647889241775254,0.3,1.0,1.0,491.0,920.0,1.0,1,399.0,1
1426,1426,0.4621515684987386,0.5,1.0,1.0,286.0,599.0,1.0,1,305.0,1
1427,1427,0.1955415806052364,0.2,0.0,0.0,258.0,997.0,0.0,1,885.0,1
1428,1428,-0.03488569674354258,-0.0,0.0,1.0,331.0,691.0,1.0,0,238.0,1
1429,1429,-0.5679308965101386,-0.6,1.0,0.0,255.0,523.0,0.0,0,222.0,1
1430,1430,-0.6675113433480768,-0.7,0.0,1.0,454.0,656.0,1.0,0,200.0,1
1431,1431,0.3919649523778047,0.4,0.0,0.0,273.0,634.0,0.0,1,383.0,1
1432,1432,-0.683274361874469,-0.7,1.0,0.0,315.0,940.0,1.0,1,-45.0,0
1433,1433,-0.3467643829172532,-0.3,0.0,1.0,406.0,762.0,1.0,0,52.0,1
1434,1434,-0.12198220999313047,-0.1,1.0,0.0,406.0,514.0,0.0,0,1290.0,1
1435,1435,0.31320609310990133,0.3,0.0,0.0,446.0,591.0,0.0,1,363.0,1
1436,1436,-0.21235211518613228,-0.2,0.0,1.0,284.0,899.0,1.0,0,167.0,1
1437,1437,-0.7307132766094369,-0.7,0.0,1.0,357.0,532.0,1.0,0,281.0,1
1438,1438,0.23753974635035335,0.2,0.0,0.0,338.0,826.0,0.0,1,296.0,1
1439,1439,0.09734907894460854,0.1,1.0,1.0,361.0,580.0,1.0,1,1699.0,1
1440,1440,-0.10595750724920094,-0.1,1.0,0.0,356.0,890.0,0.0,0,474.0,1
1441,1441,-0.14671780250877942,-0.1,1.0,0.0,340.0,930.0,0.0,0,470.0,1
1442,1442,0.30051349561318574,0.3,1.0,1.0,388.0,947.0,1.0,1,285.0,1
1443,1443,0.36887768204455706,0.4,0.0,0.0,270.0,716.0,0.0,1,344.0,1
1444,1444,0.7298144207915375,0.7,0.0,0.0,282.0,769.0,0.0,1,189.0,1
1445,1445,-0.006500890618601707,-0.0,1.0,0.0,410.0,562.0,1.0,1,888.0,0
1446,1446,0.17892084247549345,0.2,0.0,0.0,344.0,864.0,0.0,1,302.0,1
1447,1447,0.6482195971334369,0.6,0.0,0.0,416.0,572.0,0.0,1,232.0,1
1448,1448,-0.3168339797347285,-0.3,0.0,1.0,489.0,658.0,1.0,0,373.0,1
1449,1449,-0.06511404905886153,-0.1,0.0,1.0,303.0,630.0,1.0,0,1707.0,1
1450,1450,-0.5590449405334367,-0.6,1.0,0.0,428.0,927.0,0.0,0,345.0,1
1451,1451,-0.3651331039191752,-0.4,1.0,0.0,278.0,710.0,0.0,0,382.0,1
1452,1452,0.02939820018243533,0.0,1.0,1.0,382.0,540.0,1.0,1,328.0,1
1453,1453,0.7334176770834208,0.7,1.0,1.0,385.0,611.0,1.0,1,174.0,1
1454,1454,0.5221977342760843,0.5,0.0,0.0,445.0,561.0,0.0,1,364.0,1
1455,1455,0.1336896876391117,0.1,0.0,0.0,351.0,983.0,0.0,1,816.0,1
1456,1456,0.1030934056083116,0.1,1.0,1.0,483.0,619.0,1.0,1,248.0,1
1457,1457,0.8820101232098795,0.9,0.0,0.0,320.0,740.0,0.0,1,160.0,1
1458,1458,0.8677077772156326,0.9,1.0,1.0,484.0,767.0,1.0,1,129.0,1
1459,1459,-0.028218663977206404,-0.0,0.0,1.0,369.0,602.0,1.0,0,1999.0,1
1460,1460,0.10858907996745903,0.1,1.0,1.0,280.0,834.0,1.0,1,-74.0,1
1461,1461,0.3660748931729857,0.4,0.0,0.0,253.0,507.0,0.0,1,370.0,1
1462,1462,-0.2712366417035179,-0.3,1.0,0.0,299.0,809.0,1.0,1,-8.0,0
1463,1463,0.22861262199421672,0.2,1.0,1.0,477.0,506.0,1.0,1,467.0,1
1464,1464,-0.46876423476653206,-0.5,1.0,0.0,343.0,690.0,0.0,0,337.0,1
1465,1465,0.738896768920042,0.7,1.0,1.0,390.0,627.0,1.0,1,133.0,1
1466,1466,-0.29037564904370916,-0.3,1.0,0.0,334.0,976.0,0.0,0,150.0,1
1467,1467,0.4380303104101052,0.4,1.0,1.0,483.0,603.0,1.0,1,224.0,1
1468,1468,-0.20043468227392325,-0.2,1.0,0.0,451.0,503.0,0.0,0,716.0,1
1469,1469,-0.20262548995233542,-0.2,0.0,1.0,340.0,643.0,1.0,0,357.0,1
1470,1470,-0.7602438729845323,-0.8,1.0,0.0,411.0,515.0,0.0,0,294.0,1
1471,1471,0.4821139237301352,0.5,0.0,0.0,360.0,533.0,0.0,1,257.0,1
1472,1472,-0.09824280696825394,-0.1,1.0,0.0,467.0,879.0,0.0,0,154.0,1
1473,1473,-0.11963182990620791,-0.1,1.0,0.0,383.0,850.0,0.0,0,437.0,1
1474,1474,0.707721739936268,0.7,1.0,1.0,469.0,771.0,1.0,1,180.0,1
1475,1475,0.4367881044598093,0.4,1.0,1.0,346.0,984.0,1.0,1,130.0,1
1476,1476,-0.39389179944573116,-0.4,0.0,1.0,414.0,807.0,1.0,0,289.0,1
1477,1477,0.367148525912408,0.4,0.0,0.0,464.0,743.0,0.0,1,263.0,1
1478,1478,0.7953345874781638,0.8,1.0,1.0,297.0,771.0,1.0,1,232.0,1
1479,1479,0.6625146001965773,0.7,0.0,0.0,348.0,916.0,0.0,1,176.0,1
1480,1480,-0.3377886901105468,-0.3,0.0,1.0,463.0,828.0,1.0,0,109.0,1
1481,1481,0.5920368989126849,0.6,0.0,0.0,483.0,670.0,0.0,1,387.0,1
1482,1482,0.03035665616370342,0.0,0.0,0.0,287.0,561.0,1.0,0,512.0,0
1483,1483,-0.3327227903839466,-0.3,1.0,0.0,396.0,751.0,0.0,0,203.0,1
1484,1484,0.16836919649636062,0.2,1.0,1.0,432.0,501.0,1.0,1,677.0,1
1485,1485,0.2934003043256578,0.3,0.0,0.0,425.0,929.0,0.0,1,116.0,1
1486,1486,0.45644038397700293,0.5,0.0,0.0,391.0,958.0,0.0,1,61.0,1
1487,1487,0.7892324044268851,0.8,0.0,0.0,278.0,520.0,0.0,1,402.0,1
1488,1488,-0.19289644654049987,-0.2,0.0,1.0,487.0,883.0,1.0,0,380.0,1
1489,1489,-0.8406414352438059,-0.8,0.0,1.0,427.0,583.0,1.0,0,230.0,1
1490,1490,-0.8595886284441104,-0.9,0.0,1.0,445.0,849.0,1.0,0,-84.0,1
1491,1491,-0.8494750808809991,-0.8,1.0,0.0,474.0,958.0,0.0,0,168.0,1
1492,1492,-0.6805852316779546,-0.7,1.0,0.0,481.0,704.0,0.0,0,245.0,1
1493,1493,-0.6584863956004763,-0.7,0.0,1.0,426.0,934.0,1.0,0,180.0,1
1494,1494,0.15097013550200555,0.2,0.0,0.0,303.0,780.0,1.0,0,-83.0,0
1495,1495,0.634263812370978,0.6,1.0,1.0,330.0,794.0,1.0,1,116.0,1
