,trial,coherence,coherence_bin,green_side,correct_side,target_onset,checker_onset,decision,green_decision,decision_time,correct_decision
0,0,0.05647163485586748,0.1,0.0,0.0,438.0,830.0,0.0,1,822.0,1
1,1,-0.3744322884009077,-0.4,1.0,0.0,419.0,939.0,0.0,0,192.0,1
2,2,-0.3154768247631632,-0.3,1.0,0.0,419.0,527.0,0.0,0,464.0,1
3,3,-0.45224080237118297,-0.5,0.0,1.0,476.0,571.0,1.0,0,443.0,1
4,4,0.40822991094676275,0.4,1.0,1.0,458.0,790.0,1.0,1,372.0,1
5,5,0.02297756274297491,0.0,0.0,0.0,348.0,504.0,0.0,1,818.0,1
6,6,-0.7156514291602467,-0.7,1.0,0.0,411.0,991.0,0.0,0,248.0,1
7,7,0.7241353438297317,0.7,1.0,1.0,353.0,905.0,1.0,1,192.0,1
8,8,0.05335604974644814,0.1,1.0,1.0,456.0,903.0,0.0,0,1641.0,0
9,9,0.14017843930868523,0.1,1.0,1.0,447.0,631.0,1.0,1,2292.0,1
10,10,-0.4474330874918757,-0.4,0.0,1.0,475.0,724.0,1.0,0,481.0,1
11,11,-0.40248490753681876,-0.4,1.0,0.0,299.0,990.0,0.0,0,341.0,1
12,12,-0.6208070595634876,-0.6,0.0,1.0,288.0,878.0,1.0,0,164.0,1
13,13,0.535617094957009,0.5,1.0,1.0,388.0,569.0,1.0,1,243.0,1
14,14,0.2989433535341405,0.3,1.0,1.0,347.0,701.0,1.0,1,1002.0,1
15,15,-0.2113611246702255,-0.2,1.0,0.0,414.0,897.0,0.0,0,279.0,1
16,16,-0.5793589149571077,-0.6,0.0,1.0,424.0,851.0,1.0,0,225.0,1
17,17,0.6470946186049867,0.6,0.0,0.0,471.0,616.0,0.0,1,323.0,1
18,18,0.37262611075432883,0.4,0.0,0.0,341.0,513.0,0.0,1,426.0,1
19,19,0.5560818565947253,0.6,1.0,1.0,295.0,775.0,1.0,1,230.0,1
20,20,0.6775389446305725,0.7,1.0,1.0,471.0,580.0,1.0,1,259.0,1
21,21,0.6508813409310631,0.7,1.0,1.0,452.0,656.0,1.0,1,242.0,1
22,22,-0.24579586795289587,-0.2,0.0,1.0,296.0,524.0,1.0,0,390.0,1
23,23,-0.5106958881563415,-0.5,1.0,0.0,423.0,778.0,0.0,0,339.0,1
24,24,0.8314686169447333,0.8,1.0,1.0,257.0,821.0,1.0,1,182.0,1
25,25,-0.3589233079585873,-0.4,1.0,0.0,477.0,659.0,0.0,0,374.0,1
26,26,0.8680707793235162,0.9,1.0,1.0,276.0,874.0,1.0,1,260.0,1
27,27,0.5145395703393382,0.5,1.0,1.0,311.0,968.0,1.0,1,121.0,1
28,28,0.5649078344315689,0.6,1.0,1.0,433.0,746.0,1.0,1,221.0,1
29,29,-0.34936823374844816,-0.3,0.0,1.0,416.0,728.0,1.0,0,796.0,1
30,30,0.7045008942304439,0.7,1.0,1.0,391.0,725.0,1.0,1,54.0,1
31,31,0.14932516925909922,0.1,1.0,1.0,429.0,970.0,1.0,1,541.0,1
32,32,-0.6649585549611826,-0.7,0.0,1.0,488.0,622.0,1.0,0,200.0,1
33,33,0.05531633991819551,0.1,1.0,1.0,319.0,613.0,0.0,0,1098.0,0
34,34,0.24433630358277025,0.2,1.0,1.0,390.0,550.0,1.0,1,1530.0,1
35,35,0.05686850841239921,0.1,0.0,0.0,443.0,830.0,0.0,1,917.0,1
36,36,0.03659098426155738,0.0,0.0,0.0,401.0,615.0,0.0,1,914.0,1
37,37,0.7982231039870388,0.8,0.0,0.0,430.0,801.0,0.0,1,239.0,1
38,38,-0.8890979116795804,-0.9,1.0,0.0,401.0,871.0,0.0,0,338.0,1
39,39,-0.7431508255518173,-0.7,0.0,1.0,325.0,662.0,1.0,0,283.0,1
40,40,-0.32598300843256456,-0.3,0.0,1.0,496.0,645.0,1.0,0,559.0,1
41,41,0.13990766080272532,0.1,1.0,1.0,297.0,942.0,1.0,1,1781.0,1
42,42,-0.7955315078123865,-0.8,1.0,0.0,411.0,959.0,0.0,0,260.0,1
43,43,-0.39667563611461054,-0.4,0.0,1.0,356.0,606.0,1.0,0,268.0,1
44,44,0.20421660476471326,0.2,0.0,0.0,360.0,520.0,0.0,1,600.0,1
45,45,-0.4170672873627263,-0.4,1.0,0.0,265.0,644.0,0.0,0,271.0,1
46,46,-0.37892779449331393,-0.4,0.0,1.0,268.0,844.0,1.0,0,468.0,1
47,47,0.5582399853061374,0.6,1.0,1.0,286.0,629.0,1.0,1,245.0,1
48,48,-0.7424261292544049,-0.7,1.0,0.0,422.0,982.0,0.0,0,276.0,1
49,49,0.8636740709661165,0.9,1.0,1.0,406.0,755.0,1.0,1,289.0,1
50,50,-0.758113581840933,-0.8,1.0,0.0,471.0,874.0,0.0,0,175.0,1
51,51,-0.3145832849462046,-0.3,0.0,1.0,426.0,924.0,1.0,0,800.0,1
52,52,-0.49210385602650114,-0.5,0.0,1.0,482.0,549.0,1.0,0,289.0,1
53,53,0.6967786983007257,0.7,0.0,0.0,265.0,777.0,0.0,1,258.0,1
54,54,0.44060621557089996,0.4,0.0,0.0,318.0,927.0,0.0,1,125.0,1
55,55,0.4787438643955729,0.5,1.0,1.0,336.0,847.0,1.0,1,187.0,1
56,56,0.7316471828615435,0.7,1.0,1.0,283.0,768.0,1.0,1,399.0,1
57,57,-0.3397302544395664,-0.3,1.0,0.0,385.0,506.0,0.0,0,629.0,1
58,58,0.1824507600880626,0.2,0.0,0.0,390.0,927.0,0.0,1,143.0,1
59,59,-0.7225233260810715,-0.7,1.0,0.0,287.0,977.0,0.0,0,166.0,1
60,60,-0.7130371174924042,-0.7,0.0,1.0,457.0,601.0,1.0,0,362.0,1
61,61,0.11449679010551173,0.1,0.0,0.0,315.0,687.0,0.0,1,418.0,1
62,62,-0.7413155317465654,-0.7,0.0,1.0,441.0,946.0,1.0,0,343.0,1
63,63,0.1472872072453154,0.1,1.0,1.0,385.0,907.0,1.0,1,1128.0,1
64,64,0.04022319123435325,0.0,0.0,0.0,486.0,519.0,0.0,1,695.0,1
65,65,-0.5969041408774041,-0.6,0.0,1.0,324.0,677.0,1.0,0,349.0,1
66,66,0.3810709385573364,0.4,0.0,0.0,478.0,988.0,0.0,1,124.0,1
67,67,-0.7263496206896236,-0.7,1.0,0.0,498.0,766.0,0.0,0,426.0,1
68,68,0.897495635823396,0.9,1.0,1.0,390.0,811.0,1.0,1,119.0,1
69,69,0.46920979761698456,0.5,0.0,0.0,381.0,709.0,0.0,1,490.0,1
70,70,0.3408635738731064,0.3,1.0,1.0,486.0,617.0,1.0,1,347.0,1
71,71,-0.4823976936768646,-0.5,0.0,1.0,496.0,680.0,1.0,0,474.0,1
72,72,0.6603070213852266,0.7,0.0,0.0,317.0,866.0,0.0,1,57.0,1
73,73,0.004461657659848073,0.0,0.0,0.0,480.0,926.0,0.0,1,384.0,1
74,74,-0.5698029039709351,-0.6,1.0,0.0,285.0,929.0,0.0,0,146.0,1
75,75,0.29968489700093104,0.3,1.0,1.0,317.0,742.0,1.0,1,811.0,1
76,76,-0.49889267903160334,-0.5,1.0,0.0,368.0,555.0,0.0,0,477.0,1
77,77,-0.4739220160523735,-0.5,1.0,0.0,305.0,900.0,0.0,0,315.0,1
78,78,-0.37506181548174056,-0.4,0.0,1.0,370.0,856.0,1.0,0,404.0,1
79,79,0.7323038503096025,0.7,1.0,1.0,374.0,724.0,1.0,1,202.0,1
80,80,0.19000887386528686,0.2,0.0,0.0,396.0,863.0,0.0,1,321.0,1
81,81,-0.8801962428758852,-0.9,0.0,1.0,367.0,594.0,1.0,0,219.0,1
82,82,-0.7220743445008513,-0.7,1.0,0.0,485.0,522.0,0.0,0,213.0,1
83,83,-0.5503501631809724,-0.6,0.0,1.0,349.0,897.0,1.0,0,144.0,1
84,84,0.6225491339969301,0.6,0.0,0.0,498.0,748.0,0.0,1,384.0,1
85,85,-0.24085842531971247,-0.2,1.0,0.0,338.0,679.0,0.0,0,673.0,1
86,86,0.40415708590089905,0.4,1.0,1.0,432.0,965.0,1.0,1,173.0,1
87,87,-0.6416637514127806,-0.6,1.0,0.0,425.0,665.0,0.0,0,360.0,1
88,88,-0.39612279526751604,-0.4,0.0,1.0,386.0,723.0,1.0,0,271.0,1
89,89,-0.4335076083205886,-0.4,1.0,0.0,255.0,601.0,0.0,0,414.0,1
90,90,0.693291294878921,0.7,0.0,0.0,264.0,659.0,0.0,1,187.0,1
91,91,0.350256319995946,0.4,0.0,0.0,286.0,755.0,0.0,1,259.0,1
92,92,0.7199970607926415,0.7,1.0,1.0,484.0,830.0,1.0,1,406.0,1
93,93,0.8949116040533259,0.9,1.0,1.0,268.0,680.0,1.0,1,282.0,1
94,94,0.28860095604570335,0.3,1.0,1.0,340.0,525.0,1.0,1,685.0,1
95,95,-0.5444157556839331,-0.5,1.0,0.0,435.0,795.0,0.0,0,330.0,1
96,96,-0.5861198760124269,-0.6,1.0,0.0,331.0,515.0,0.0,0,434.0,1
97,97,0.06674337045619749,0.1,1.0,1.0,478.0,785.0,1.0,1,1687.0,1
98,98,-0.5718756696674243,-0.6,1.0,0.0,266.0,655.0,0.0,0,499.0,1
99,99,0.3080408353581442,0.3,1.0,1.0,359.0,741.0,1.0,1,160.0,1
100,100,-0.20019902865644623,-0.2,0.0,1.0,300.0,954.0,1.0,0,1006.0,1
101,101,-0.7832408632977718,-0.8,0.0,1.0,413.0,923.0,1.0,0,144.0,1
102,102,-0.6790664318390822,-0.7,0.0,1.0,443.0,667.0,1.0,0,390.0,1
103,103,-0.7253440743435378,-0.7,0.0,1.0,379.0,689.0,1.0,0,262.0,1
104,104,-0.20571154245630485,-0.2,0.0,1.0,388.0,772.0,1.0,0,360.0,1
105,105,-0.541970016057182,-0.5,1.0,0.0,285.0,731.0,0.0,0,354.0,1
106,106,-0.09036046349786109,-0.1,1.0,0.0,425.0,970.0,0.0,0,605.0,1
107,107,-0.11875096777187422,-0.1,1.0,0.0,285.0,724.0,0.0,0,1041.0,1
108,108,-0.09943103332350645,-0.1,1.0,0.0,422.0,504.0,0.0,0,444.0,1
109,109,-0.31556549566099323,-0.3,1.0,0.0,491.0,765.0,0.0,0,314.0,1
110,110,-0.502795811761185,-0.5,1.0,0.0,384.0,671.0,0.0,0,395.0,1
111,111,-0.6489463570993284,-0.6,1.0,0.0,330.0,617.0,0.0,0,343.0,1
112,112,0.17568145648024835,0.2,1.0,1.0,480.0,668.0,1.0,1,242.0,1
113,113,0.14646044503912659,0.1,0.0,0.0,480.0,600.0,0.0,1,960.0,1
114,114,-0.09906179910334556,-0.1,1.0,0.0,341.0,993.0,0.0,0,286.0,1
115,115,-0.8619548047821421,-0.9,0.0,1.0,480.0,586.0,1.0,0,334.0,1
116,116,-0.84459024529975,-0.8,1.0,0.0,439.0,759.0,0.0,0,222.0,1
117,117,-0.3640850195564561,-0.4,0.0,1.0,491.0,878.0,1.0,0,271.0,1
118,118,-0.40151200430233397,-0.4,1.0,0.0,419.0,938.0,0.0,0,193.0,1
119,119,0.8517504559314907,0.9,0.0,0.0,499.0,980.0,0.0,1,91.0,1
120,120,0.5172633740075857,0.5,1.0,1.0,299.0,835.0,1.0,1,136.0,1
121,121,0.20780371288321497,0.2,1.0,1.0,266.0,838.0,1.0,1,466.0,1
122,122,0.2630524608450583,0.3,1.0,1.0,398.0,967.0,1.0,1,1195.0,1
123,123,0.3721433837273008,0.4,0.0,0.0,355.0,700.0,0.0,1,325.0,1
124,124,-0.7043186754319258,-0.7,0.0,1.0,267.0,727.0,1.0,0,226.0,1
125,125,0.7238246726147431,0.7,1.0,1.0,332.0,746.0,1.0,1,222.0,1
126,126,0.2590523117630098,0.3,0.0,0.0,366.0,829.0,0.0,1,515.0,1
127,127,0.8894103162138997,0.9,0.0,0.0,494.0,875.0,0.0,1,171.0,1
128,128,0.4064336154411684,0.4,1.0,1.0,340.0,605.0,1.0,1,465.0,1
129,129,0.5445183874490463,0.5,1.0,1.0,411.0,720.0,1.0,1,309.0,1
130,130,-0.3437612109616133,-0.3,0.0,1.0,315.0,677.0,1.0,0,218.0,1
131,131,0.2449558319293489,0.2,0.0,0.0,409.0,900.0,0.0,1,221.0,1
132,132,-0.5381447271292972,-0.5,1.0,0.0,421.0,887.0,0.0,0,152.0,1
133,133,-0.7591353911856478,-0.8,1.0,0.0,356.0,915.0,0.0,0,189.0,1
134,134,-0.7607896823343305,-0.8,0.0,1.0,468.0,603.0,1.0,0,339.0,1
135,135,0.06318255590836241,0.1,1.0,1.0,453.0,944.0,0.0,0,243.0,0
136,136,-0.3634086067942589,-0.4,1.0,0.0,356.0,978.0,0.0,0,266.0,1
137,137,0.2270219906338572,0.2,0.0,0.0,356.0,509.0,0.0,1,585.0,1
138,138,0.6791620929853731,0.7,1.0,1.0,487.0,664.0,1.0,1,339.0,1
139,139,0.05689681863595031,0.1,0.0,0.0,366.0,880.0,0.0,1,484.0,1
140,140,-0.7595385922966966,-0.8,0.0,1.0,387.0,546.0,1.0,0,297.0,1
141,141,0.4683277029068401,0.5,1.0,1.0,271.0,706.0,1.0,1,783.0,1
142,142,0.6286251928126209,0.6,0.0,0.0,371.0,690.0,0.0,1,149.0,1
143,143,0.8432433823494035,0.8,1.0,1.0,429.0,974.0,1.0,1,237.0,1
144,144,0.8345125472494345,0.8,0.0,0.0,297.0,736.0,0.0,1,237.0,1
145,145,0.6935161847854149,0.7,0.0,0.0,497.0,680.0,0.0,1,263.0,1
146,146,0.11751302544153386,0.1,1.0,1.0,314.0,995.0,1.0,1,311.0,1
147,147,0.7417924637819092,0.7,1.0,1.0,335.0,622.0,1.0,1,203.0,1
148,148,-0.8339546786828935,-0.8,1.0,0.0,494.0,772.0,0.0,0,184.0,1
149,149,-0.23017874525644866,-0.2,1.0,0.0,331.0,828.0,0.0,0,461.0,1
150,150,0.49284864525518446,0.5,1.0,1.0,432.0,888.0,1.0,1,530.0,1
151,151,0.3328241650037721,0.3,0.0,0.0,372.0,597.0,0.0,1,511.0,1
152,152,-0.2404296294723488,-0.2,0.0,1.0,352.0,708.0,0.0,1,1260.0,0
153,153,-0.31178310443793733,-0.3,0.0,1.0,304.0,892.0,1.0,0,264.0,1
154,154,0.6627979198552222,0.7,1.0,1.0,493.0,574.0,1.0,1,463.0,1
155,155,0.1489796920928238,0.1,1.0,1.0,384.0,736.0,1.0,1,800.0,1
156,156,-0.26674448778578164,-0.3,1.0,0.0,332.0,923.0,0.0,0,295.0,1
157,157,0.523230993473848,0.5,0.0,0.0,356.0,597.0,0.0,1,177.0,1
158,158,0.2609777497216642,0.3,0.0,0.0,286.0,508.0,0.0,1,286.0,1
159,159,-0.8049709022594899,-0.8,1.0,0.0,479.0,806.0,0.0,0,215.0,1
160,160,0.08885939680051824,0.1,1.0,1.0,310.0,789.0,1.0,1,1581.0,1
161,161,-0.6218473400147746,-0.6,0.0,1.0,380.0,958.0,1.0,0,212.0,1
162,162,0.14337428470622327,0.1,1.0,1.0,458.0,509.0,1.0,1,683.0,1
163,163,0.4211629441139241,0.4,1.0,1.0,489.0,528.0,1.0,1,573.0,1
164,164,0.028027973683491414,0.0,0.0,0.0,445.0,555.0,0.0,1,930.0,1
165,165,-0.09495197053328785,-0.1,1.0,0.0,484.0,885.0,0.0,0,1611.0,1
166,166,-0.09384985919931377,-0.1,0.0,1.0,448.0,841.0,0.0,1,311.0,0
167,167,-0.8647149352403146,-0.9,0.0,1.0,413.0,889.0,1.0,0,228.0,1
168,168,-0.3499983361116916,-0.3,0.0,1.0,377.0,690.0,1.0,0,553.0,1
169,169,0.6368275799345456,0.6,1.0,1.0,292.0,858.0,1.0,1,100.0,1
170,170,-0.722921155636548,-0.7,0.0,1.0,304.0,999.0,1.0,0,187.0,1
171,171,-0.5972896299924111,-0.6,1.0,0.0,272.0,955.0,0.0,0,243.0,1
172,172,-0.06692380452873181,-0.1,1.0,0.0,302.0,812.0,0.0,0,1586.0,1
173,173,-0.2966130274397286,-0.3,0.0,1.0,275.0,719.0,1.0,0,1196.0,1
174,174,-0.5649558779024058,-0.6,0.0,1.0,257.0,686.0,1.0,0,307.0,1
175,175,-0.09703334245335626,-0.1,1.0,0.0,443.0,985.0,0.0,0,572.0,1
176,176,0.2515955932266626,0.3,0.0,0.0,426.0,597.0,0.0,1,637.0,1
177,177,0.4096310864246643,0.4,1.0,1.0,454.0,938.0,1.0,1,238.0,1
178,178,-0.17729283287117859,-0.2,0.0,1.0,355.0,861.0,1.0,0,614.0,1
179,179,-0.6123722662494551,-0.6,0.0,1.0,403.0,612.0,1.0,0,215.0,1
180,180,0.7279987204448007,0.7,1.0,1.0,273.0,522.0,1.0,1,255.0,1
181,181,0.7938799579173949,0.8,1.0,1.0,349.0,549.0,1.0,1,352.0,1
182,182,0.4703235233323696,0.5,1.0,1.0,434.0,879.0,1.0,1,167.0,1
183,183,-0.42277792106677536,-0.4,1.0,0.0,470.0,636.0,0.0,0,394.0,1
184,184,-0.6387886540701916,-0.6,0.0,1.0,461.0,944.0,1.0,0,75.0,1
185,185,-0.16704555477943206,-0.2,1.0,0.0,291.0,950.0,0.0,0,459.0,1
186,186,-0.5757210393236911,-0.6,0.0,1.0,416.0,779.0,1.0,0,165.0,1
187,187,0.7430993725964198,0.7,1.0,1.0,393.0,639.0,1.0,1,218.0,1
188,188,0.1973997778036053,0.2,0.0,0.0,458.0,513.0,0.0,1,379.0,1
189,189,-0.025274587992079378,-0.0,1.0,0.0,255.0,617.0,0.0,0,1328.0,1
190,190,-0.09395813129608066,-0.1,0.0,1.0,330.0,829.0,1.0,0,681.0,1
191,191,0.05141579148969089,0.1,1.0,1.0,459.0,646.0,0.0,0,3895.0,0
192,192,-0.7818129195421096,-0.8,0.0,1.0,255.0,866.0,1.0,0,169.0,1
193,193,-0.6993694192061943,-0.7,0.0,1.0,332.0,978.0,1.0,0,250.0,1
194,194,0.7862570569980206,0.8,1.0,1.0,375.0,587.0,1.0,1,238.0,1
195,195,0.09526831364462052,0.1,0.0,0.0,479.0,839.0,0.0,1,742.0,1
196,196,-0.12068482598696484,-0.1,0.0,1.0,304.0,547.0,0.0,1,1599.0,0
197,197,-0.09296919755537125,-0.1,1.0,0.0,492.0,754.0,0.0,0,1684.0,1
198,198,0.2959134753678566,0.3,0.0,0.0,307.0,760.0,0.0,1,273.0,1
199,199,-0.2706102994079561,-0.3,0.0,1.0,370.0,923.0,1.0,0,307.0,1
200,200,-0.427808765205309,-0.4,0.0,1.0,274.0,773.0,1.0,0,273.0,1
201,201,-0.4068836989495847,-0.4,1.0,0.0,292.0,677.0,0.0,0,291.0,1
202,202,-0.8773069643149869,-0.9,1.0,0.0,455.0,635.0,0.0,0,230.0,1
203,203,0.10969010899336429,0.1,0.0,0.0,323.0,814.0,0.0,1,753.0,1
204,204,0.4911371352378905,0.5,0.0,0.0,432.0,608.0,0.0,1,430.0,1
205,205,-0.686274205483635,-0.7,0.0,1.0,378.0,528.0,1.0,0,394.0,1
206,206,-0.6372577967758013,-0.6,1.0,0.0,386.0,595.0,0.0,0,449.0,1
207,207,0.44970894684394025,0.4,1.0,1.0,282.0,524.0,1.0,1,474.0,1
208,208,0.8164885677803931,0.8,1.0,1.0,372.0,906.0,1.0,1,212.0,1
209,209,0.6707005921077523,0.7,0.0,0.0,287.0,607.0,0.0,1,256.0,1
210,210,0.3716529134726162,0.4,1.0,1.0,389.0,767.0,1.0,1,514.0,1
211,211,0.6616454513651698,0.7,0.0,0.0,284.0,805.0,0.0,1,211.0,1
212,212,0.892548563489446,0.9,0.0,0.0,408.0,632.0,0.0,1,190.0,1
213,213,0.051776736786728894,0.1,1.0,1.0,402.0,775.0,1.0,1,3823.0,1
214,214,0.7157503939461684,0.7,1.0,1.0,255.0,869.0,1.0,1,196.0,1
215,215,-0.02972599436483514,-0.0,0.0,1.0,364.0,709.0,0.0,1,687.0,0
216,216,-0.6173119296856606,-0.6,1.0,0.0,315.0,945.0,0.0,0,200.0,1
217,217,-0.423349859558592,-0.4,0.0,1.0,440.0,614.0,1.0,0,696.0,1
218,218,-0.4114271557772406,-0.4,1.0,0.0,464.0,791.0,0.0,0,185.0,1
219,219,0.35242717850644,0.4,0.0,0.0,423.0,736.0,0.0,1,671.0,1
220,220,0.1102574001488329,0.1,1.0,1.0,390.0,780.0,1.0,1,630.0,1
221,221,-0.44010138374228086,-0.4,0.0,1.0,413.0,589.0,1.0,0,218.0,1
222,222,0.7030279227591788,0.7,1.0,1.0,281.0,570.0,1.0,1,709.0,1
223,223,-0.5061974263125453,-0.5,1.0,0.0,404.0,937.0,0.0,0,49.0,1
224,224,-0.34615545158014627,-0.3,1.0,0.0,447.0,883.0,0.0,0,580.0,1
225,225,0.861754699377495,0.9,0.0,0.0,255.0,680.0,0.0,1,305.0,1
226,226,-0.10289182726052648,-0.1,0.0,1.0,369.0,650.0,1.0,0,651.0,1
227,227,0.8025647673669428,0.8,0.0,0.0,354.0,867.0,0.0,1,89.0,1
228,228,0.5506563569233806,0.6,0.0,0.0,334.0,909.0,0.0,1,227.0,1
229,229,0.6544843527704428,0.7,1.0,1.0,461.0,936.0,1.0,1,553.0,1
230,230,0.4631963718541655,0.5,0.0,0.0,303.0,739.0,0.0,1,278.0,1
231,231,-0.16280128439536223,-0.2,1.0,0.0,440.0,563.0,0.0,0,867.0,1
232,232,-0.2436171522646038,-0.2,0.0,1.0,417.0,648.0,1.0,0,455.0,1
233,233,0.1382758986044511,0.1,0.0,0.0,264.0,790.0,0.0,1,256.0,1
234,234,0.7011521343753223,0.7,0.0,0.0,326.0,948.0,0.0,1,206.0,1
235,235,0.3531025637141191,0.4,1.0,1.0,416.0,954.0,1.0,1,600.0,1
236,236,0.3730444631906883,0.4,1.0,1.0,380.0,922.0,1.0,1,278.0,1
237,237,0.528365014542321,0.5,1.0,1.0,375.0,903.0,1.0,1,192.0,1
238,238,-0.34050593511362903,-0.3,1.0,0.0,374.0,731.0,0.0,0,375.0,1
239,239,-0.08499443481390678,-0.1,0.0,1.0,368.0,870.0,1.0,0,1772.0,1
240,240,-0.4148212741237982,-0.4,1.0,0.0,369.0,845.0,0.0,0,526.0,1
241,241,0.2792341589328692,0.3,1.0,1.0,257.0,608.0,1.0,1,415.0,1
242,242,-0.5310759957099574,-0.5,1.0,0.0,257.0,571.0,0.0,0,342.0,1
243,243,-0.30780121961289597,-0.3,0.0,1.0,489.0,913.0,1.0,0,258.0,1
244,244,-0.7622842261396288,-0.8,1.0,0.0,261.0,915.0,0.0,0,154.0,1
245,245,-0.41429599070597956,-0.4,0.0,1.0,339.0,922.0,1.0,0,159.0,1
246,246,-0.005085318744249112,-0.0,1.0,0.0,311.0,755.0,0.0,0,2144.0,1
247,247,-0.6442594138637052,-0.6,0.0,1.0,351.0,516.0,1.0,0,253.0,1
248,248,0.23013380315493392,0.2,0.0,0.0,324.0,500.0,0.0,1,556.0,1
249,249,-0.33914762603462056,-0.3,1.0,0.0,471.0,765.0,0.0,0,214.0,1
250,250,-0.35893174226821944,-0.4,0.0,1.0,341.0,659.0,1.0,0,430.0,1
251,251,-0.6382099777595518,-0.6,0.0,1.0,463.0,874.0,1.0,0,143.0,1
252,252,0.6903314825207857,0.7,0.0,0.0,379.0,723.0,0.0,1,168.0,1
253,253,0.5616042122571835,0.6,1.0,1.0,356.0,913.0,1.0,1,291.0,1
254,254,-0.5047697329349661,-0.5,0.0,1.0,334.0,993.0,1.0,0,253.0,1
255,255,-0.7375263244479419,-0.7,0.0,1.0,340.0,915.0,1.0,0,225.0,1
256,256,0.7070911356093047,0.7,0.0,0.0,422.0,752.0,0.0,1,186.0,1
257,257,-0.8347192754597198,-0.8,0.0,1.0,305.0,830.0,1.0,0,165.0,1
258,258,-0.22399899198887485,-0.2,0.0,1.0,362.0,799.0,1.0,0,409.0,1
259,259,0.8468832089199195,0.8,1.0,1.0,387.0,546.0,1.0,1,357.0,1
260,260,-0.15290679225762138,-0.2,0.0,1.0,255.0,588.0,0.0,1,2847.0,0
261,261,0.03651780079704048,0.0,0.0,0.0,283.0,782.0,0.0,1,625.0,1
262,262,-0.5707525940564884,-0.6,1.0,0.0,357.0,694.0,0.0,0,239.0,1
263,263,0.8620570644510129,0.9,1.0,1.0,321.0,937.0,1.0,1,152.0,1
264,264,-0.8958613748545743,-0.9,1.0,0.0,321.0,521.0,0.0,0,198.0,1
265,265,0.7705236225937152,0.8,0.0,0.0,283.0,635.0,0.0,1,322.0,1
266,266,0.8168010163237173,0.8,0.0,0.0,471.0,816.0,0.0,1,253.0,1
267,267,-0.5459779459902037,-0.5,0.0,1.0,465.0,728.0,1.0,0,427.0,1
268,268,-0.2798340236067465,-0.3,1.0,0.0,301.0,560.0,0.0,0,419.0,1
269,269,-0.5298477983088092,-0.5,0.0,1.0,491.0,514.0,1.0,0,295.0,1
270,270,-0.8503092832258756,-0.9,0.0,1.0,480.0,759.0,1.0,0,251.0,1
271,271,-0.1023669048921434,-0.1,0.0,1.0,410.0,583.0,0.0,1,737.0,0
272,272,0.36925032016505244,0.4,1.0,1.0,455.0,547.0,1.0,1,248.0,1
273,273,0.15535066382515816,0.2,1.0,1.0,443.0,580.0,1.0,1,2287.0,1
274,274,-0.5425869787266542,-0.5,1.0,0.0,470.0,906.0,0.0,0,304.0,1
275,275,0.5499816199731661,0.5,1.0,1.0,337.0,545.0,1.0,1,498.0,1
276,276,-0.538183041340815,-0.5,0.0,1.0,259.0,562.0,1.0,0,569.0,1
277,277,-0.0751897979210322,-0.1,1.0,0.0,299.0,540.0,0.0,0,571.0,1
278,278,-0.20614877821275768,-0.2,1.0,0.0,338.0,584.0,0.0,0,638.0,1
279,279,0.007220582064336067,0.0,0.0,0.0,319.0,520.0,0.0,1,801.0,1
280,280,-0.1165611042611927,-0.1,0.0,1.0,337.0,550.0,1.0,0,553.0,1
281,281,0.880393570543926,0.9,0.0,0.0,314.0,557.0,0.0,1,289.0,1
282,282,0.5006406794983437,0.5,0.0,0.0,404.0,992.0,0.0,1,294.0,1
283,283,-0.7524733880618584,-0.8,1.0,0.0,454.0,997.0,0.0,0,59.0,1
284,284,-0.8104447636014154,-0.8,1.0,0.0,285.0,565.0,0.0,0,300.0,1
285,285,0.3419676429810984,0.3,1.0,1.0,339.0,576.0,1.0,1,205.0,1
286,286,0.8923069445120299,0.9,0.0,0.0,302.0,649.0,0.0,1,119.0,1
287,287,-0.6334840566881658,-0.6,1.0,0.0,271.0,721.0,0.0,0,458.0,1
288,288,0.7116722022604239,0.7,1.0,1.0,357.0,727.0,1.0,1,166.0,1
289,289,0.16429875602754407,0.2,1.0,1.0,304.0,635.0,1.0,1,921.0,1
290,290,0.3704693468443464,0.4,0.0,0.0,453.0,561.0,0.0,1,436.0,1
291,291,0.2549922147464835,0.3,1.0,1.0,293.0,548.0,1.0,1,1329.0,1
292,292,0.20872508855060856,0.2,1.0,1.0,414.0,878.0,1.0,1,848.0,1
293,293,-0.7262590152856229,-0.7,1.0,0.0,342.0,676.0,0.0,0,502.0,1
294,294,0.001746036241048965,0.0,1.0,1.0,388.0,762.0,0.0,0,1270.0,0
295,295,-0.5443508780364338,-0.5,0.0,1.0,406.0,616.0,1.0,0,418.0,1
296,296,-0.23191202737978034,-0.2,0.0,1.0,268.0,551.0,1.0,0,551.0,1
297,297,-0.7854510220081978,-0.8,1.0,0.0,472.0,904.0,0.0,0,144.0,1
298,298,-0.02864384868759484,-0.0,0.0,1.0,411.0,805.0,0.0,1,344.0,0
299,299,0.7885384477280742,0.8,0.0,0.0,251.0,811.0,0.0,1,228.0,1
300,300,-0.8441333835060595,-0.8,1.0,0.0,365.0,970.0,0.0,0,35.0,1
301,301,0.38734048702339663,0.4,0.0,0.0,332.0,849.0,0.0,1,359.0,1
302,302,-0.05263329734360578,-0.1,1.0,0.0,342.0,873.0,1.0,1,3525.0,0
303,303,0.1156947091456616,0.1,0.0,0.0,298.0,648.0,0.0,1,574.0,1
304,304,0.09311070035633617,0.1,1.0,1.0,336.0,628.0,1.0,1,446.0,1
305,305,0.3919965095595158,0.4,1.0,1.0,302.0,796.0,1.0,1,402.0,1
306,306,-0.8691794790101645,-0.9,1.0,0.0,488.0,725.0,0.0,0,257.0,1
307,307,-0.656222610051366,-0.7,1.0,0.0,416.0,816.0,0.0,0,248.0,1
308,308,-0.588822354496239,-0.6,0.0,1.0,307.0,612.0,1.0,0,231.0,1
309,309,-0.20490792836811222,-0.2,1.0,0.0,276.0,700.0,0.0,0,324.0,1
310,310,-0.19718596138852784,-0.2,1.0,0.0,284.0,735.0,0.0,0,831.0,1
311,311,0.07741644686770066,0.1,0.0,0.0,285.0,820.0,0.0,1,835.0,1
312,312,-0.7204224853107534,-0.7,0.0,1.0,366.0,788.0,1.0,0,156.0,1
313,313,0.6067788886153297,0.6,0.0,0.0,481.0,984.0,0.0,1,65.0,1
314,314,0.3046641833509668,0.3,0.0,0.0,283.0,882.0,0.0,1,565.0,1
315,315,-0.046136677313140084,-0.0,1.0,0.0,499.0,682.0,0.0,0,499.0,1
316,316,0.06470918402003412,0.1,1.0,1.0,367.0,634.0,1.0,1,1689.0,1
317,317,-0.18707436885068296,-0.2,0.0,1.0,250.0,534.0,1.0,0,736.0,1
318,318,0.13737028915872773,0.1,1.0,1.0,474.0,794.0,1.0,1,1422.0,1
319,319,-0.5028580585093523,-0.5,1.0,0.0,301.0,900.0,0.0,0,259.0,1
320,320,-0.5590417695559644,-0.6,1.0,0.0,283.0,824.0,0.0,0,213.0,1
321,321,-0.5861206031409041,-0.6,1.0,0.0,267.0,761.0,0.0,0,312.0,1
322,322,0.7503666988658663,0.8,0.0,0.0,339.0,827.0,0.0,1,144.0,1
323,323,0.32746434946068603,0.3,1.0,1.0,321.0,737.0,1.0,1,252.0,1
324,324,-0.5414918635468735,-0.5,1.0,0.0,255.0,673.0,0.0,0,242.0,1
325,325,-0.3165428262969321,-0.3,1.0,0.0,394.0,902.0,0.0,0,304.0,1
326,326,-0.4146337263767043,-0.4,0.0,1.0,332.0,919.0,1.0,0,199.0,1
327,327,-0.5793297781320537,-0.6,1.0,0.0,403.0,779.0,0.0,0,358.0,1
328,328,0.6179670250035362,0.6,0.0,0.0,463.0,819.0,0.0,1,148.0,1
329,329,0.2768151949358474,0.3,1.0,1.0,474.0,772.0,1.0,1,954.0,1
330,330,0.26720824635532103,0.3,0.0,0.0,474.0,755.0,0.0,1,461.0,1
331,331,0.5051490065078555,0.5,0.0,0.0,346.0,917.0,0.0,1,147.0,1
332,332,0.07384328638356286,0.1,1.0,1.0,393.0,948.0,1.0,1,289.0,1
333,333,-0.41219538210103757,-0.4,1.0,0.0,296.0,502.0,0.0,0,552.0,1
334,334,0.07946457223110726,0.1,0.0,0.0,467.0,528.0,0.0,1,985.0,1
335,335,0.7107609444985171,0.7,0.0,0.0,391.0,500.0,0.0,1,299.0,1
336,336,-0.8671486698316027,-0.9,1.0,0.0,334.0,927.0,0.0,0,299.0,1
337,337,0.662147410443671,0.7,1.0,1.0,462.0,627.0,1.0,1,561.0,1
338,338,-0.1115368488050551,-0.1,1.0,0.0,292.0,781.0,0.0,0,577.0,1
339,339,-0.21209695997394995,-0.2,0.0,1.0,416.0,974.0,1.0,0,1480.0,1
340,340,0.7716388259896682,0.8,0.0,0.0,351.0,840.0,0.0,1,189.0,1
341,341,-0.08605173838593694,-0.1,0.0,1.0,250.0,710.0,1.0,0,730.0,1
342,342,-0.4663000692652092,-0.5,0.0,1.0,266.0,783.0,1.0,0,181.0,1
343,343,0.722627553801069,0.7,1.0,1.0,490.0,691.0,1.0,1,189.0,1
344,344,-0.7081724409933418,-0.7,1.0,0.0,405.0,512.0,0.0,0,423.0,1
345,345,-0.4506686483050946,-0.5,1.0,0.0,430.0,564.0,0.0,0,486.0,1
346,346,0.7824353177328557,0.8,1.0,1.0,494.0,804.0,1.0,1,472.0,1
347,347,-0.5303981797262608,-0.5,0.0,1.0,340.0,783.0,1.0,0,257.0,1
348,348,0.5140403108393018,0.5,1.0,1.0,462.0,932.0,1.0,1,166.0,1
349,349,0.8837427906711902,0.9,1.0,1.0,259.0,826.0,1.0,1,215.0,1
350,350,0.04044011255979385,0.0,0.0,0.0,313.0,749.0,1.0,0,798.0,0
351,351,-0.5815148104686885,-0.6,1.0,0.0,435.0,696.0,0.0,0,239.0,1
352,352,-0.23365718034162497,-0.2,0.0,1.0,459.0,716.0,1.0,0,505.0,1
353,353,-0.4629107217810362,-0.5,0.0,1.0,368.0,902.0,1.0,0,510.0,1
354,354,0.19525015948837832,0.2,1.0,1.0,472.0,576.0,1.0,1,1002.0,1
355,355,-0.4776492746205246,-0.5,1.0,0.0,303.0,657.0,0.0,0,360.0,1
356,356,-0.3890300883213045,-0.4,0.0,1.0,470.0,770.0,1.0,0,180.0,1
357,357,-0.32020513548550245,-0.3,0.0,1.0,286.0,692.0,1.0,0,162.0,1
358,358,-0.12399243891467593,-0.1,1.0,0.0,298.0,983.0,0.0,0,189.0,1
359,359,-0.5589548059209619,-0.6,1.0,0.0,468.0,564.0,0.0,0,488.0,1
360,360,0.6304130243502829,0.6,0.0,0.0,393.0,581.0,0.0,1,266.0,1
361,361,-0.41666405174357585,-0.4,1.0,0.0,467.0,918.0,0.0,0,275.0,1
362,362,0.37666040082475705,0.4,1.0,1.0,370.0,545.0,1.0,1,605.0,1
363,363,-0.6752564989734856,-0.7,0.0,1.0,413.0,635.0,1.0,0,222.0,1
364,364,-0.6156263555259816,-0.6,0.0,1.0,491.0,932.0,1.0,0,207.0,1
365,365,0.5106250246686651,0.5,0.0,0.0,271.0,636.0,0.0,1,443.0,1
366,366,0.6001089860954759,0.6,0.0,0.0,354.0,699.0,0.0,1,207.0,1
367,367,-0.5577936874469236,-0.6,1.0,0.0,397.0,867.0,0.0,0,266.0,1
368,368,0.05126462430292167,0.1,0.0,0.0,422.0,754.0,0.0,1,594.0,1
369,369,-0.5969193818119014,-0.6,0.0,1.0,434.0,791.0,1.0,0,105.0,1
370,370,-0.34550928854082097,-0.3,1.0,0.0,325.0,503.0,0.0,0,602.0,1
371,371,0.20565339296062224,0.2,0.0,0.0,267.0,937.0,0.0,1,216.0,1
372,372,-0.8349603665437709,-0.8,0.0,1.0,261.0,534.0,1.0,0,395.0,1
373,373,-0.743939485115596,-0.7,1.0,0.0,375.0,607.0,0.0,0,458.0,1
374,374,0.6074294782446573,0.6,1.0,1.0,332.0,571.0,1.0,1,217.0,1
375,375,0.6258883453091552,0.6,1.0,1.0,314.0,939.0,1.0,1,77.0,1
376,376,0.784499818269459,0.8,0.0,0.0,395.0,639.0,0.0,1,366.0,1
377,377,-0.07729283013919896,-0.1,0.0,1.0,318.0,965.0,0.0,1,1037.0,0
378,378,-0.2523480940445938,-0.3,1.0,0.0,438.0,646.0,0.0,0,836.0,1
379,379,0.23227146024242684,0.2,0.0,0.0,306.0,826.0,0.0,1,268.0,1
380,380,-0.22709048352523853,-0.2,0.0,1.0,379.0,908.0,1.0,0,283.0,1
381,381,0.8381452181495547,0.8,1.0,1.0,263.0,718.0,1.0,1,219.0,1
382,382,0.100338660925403,0.1,1.0,1.0,419.0,813.0,1.0,1,3768.0,1
383,383,-0.7332634479758446,-0.7,1.0,0.0,433.0,860.0,0.0,0,357.0,1
384,384,-0.7327994491006339,-0.7,0.0,1.0,489.0,849.0,1.0,0,122.0,1
385,385,0.7864848813957742,0.8,0.0,0.0,488.0,993.0,0.0,1,-151.0,1
386,386,-0.4152309611089087,-0.4,0.0,1.0,304.0,910.0,1.0,0,176.0,1
387,387,0.5403503744898582,0.5,1.0,1.0,369.0,963.0,1.0,1,268.0,1
388,388,-0.10578798864985073,-0.1,1.0,0.0,491.0,542.0,0.0,0,757.0,1
389,389,-0.7094549534110453,-0.7,0.0,1.0,272.0,927.0,1.0,0,171.0,1
390,390,0.3287844011724742,0.3,1.0,1.0,490.0,775.0,1.0,1,425.0,1
391,391,0.80166610428737,0.8,0.0,0.0,264.0,901.0,0.0,1,225.0,1
392,392,0.20344314439993927,0.2,0.0,0.0,479.0,739.0,0.0,1,322.0,1
393,393,0.3926907401017746,0.4,0.0,0.0,259.0,752.0,0.0,1,379.0,1
394,394,-0.6103543606578439,-0.6,0.0,1.0,371.0,519.0,1.0,0,490.0,1
395,395,-0.02182498421476875,-0.0,1.0,0.0,471.0,627.0,0.0,0,2732.0,1
396,396,-0.47393268902154756,-0.5,1.0,0.0,252.0,689.0,0.0,0,459.0,1
397,397,-0.44323168086920306,-0.4,0.0,1.0,348.0,663.0,1.0,0,469.0,1
398,398,0.5184574171334101,0.5,0.0,0.0,473.0,773.0,0.0,1,134.0,1
399,399,0.6141834186850718,0.6,1.0,1.0,437.0,830.0,1.0,1,333.0,1
400,400,-0.2527982017349396,-0.3,1.0,0.0,315.0,957.0,0.0,0,148.0,1
401,401,0.09360324834015332,0.1,1.0,1.0,324.0,810.0,1.0,1,756.0,1
402,402,-0.4517742498579434,-0.5,0.0,1.0,397.0,590.0,1.0,0,523.0,1
403,403,0.2411155661337835,0.2,1.0,1.0,315.0,704.0,1.0,1,841.0,1
404,404,0.19799421827904873,0.2,0.0,0.0,477.0,590.0,0.0,1,543.0,1
405,405,-0.8190637266104521,-0.8,1.0,0.0,272.0,509.0,0.0,0,549.0,1
406,406,0.1312692005725974,0.1,0.0,0.0,271.0,994.0,0.0,1,365.0,1
407,407,0.12730579859990476,0.1,0.0,0.0,416.0,986.0,0.0,1,1238.0,1
408,408,0.5744269213138694,0.6,0.0,0.0,418.0,863.0,0.0,1,229.0,1
409,409,-0.7767406219710615,-0.8,1.0,0.0,320.0,641.0,0.0,0,319.0,1
410,410,-0.46742804181288944,-0.5,1.0,0.0,446.0,550.0,0.0,0,484.0,1
411,411,-0.6985504145802959,-0.7,0.0,1.0,493.0,865.0,1.0,0,242.0,1
412,412,0.8005913559187009,0.8,0.0,0.0,270.0,510.0,0.0,1,410.0,1
413,413,-0.1082318503743076,-0.1,1.0,0.0,343.0,839.0,0.0,0,688.0,1
414,414,-0.6063558129297553,-0.6,1.0,0.0,312.0,810.0,0.0,0,218.0,1
415,415,0.41904796678276524,0.4,0.0,0.0,420.0,815.0,0.0,1,515.0,1
416,416,0.8559513787233076,0.9,1.0,1.0,270.0,706.0,1.0,1,284.0,1
417,417,0.6796298612922086,0.7,0.0,0.0,473.0,854.0,0.0,1,103.0,1
418,418,-0.7592598422338327,-0.8,1.0,0.0,412.0,602.0,0.0,0,266.0,1
419,419,0.7873054605966546,0.8,0.0,0.0,260.0,543.0,0.0,1,327.0,1
420,420,-0.22745842343944866,-0.2,1.0,0.0,339.0,925.0,0.0,0,896.0,1
421,421,0.24173645636945407,0.2,1.0,1.0,473.0,803.0,1.0,1,284.0,1
422,422,-0.5483432879363693,-0.5,0.0,1.0,265.0,512.0,1.0,0,573.0,1
423,423,0.8531425497286177,0.9,1.0,1.0,265.0,781.0,1.0,1,204.0,1
424,424,-0.20355694836939164,-0.2,0.0,1.0,452.0,982.0,1.0,0,426.0,1
425,425,-0.19224205693541996,-0.2,1.0,0.0,436.0,694.0,0.0,0,810.0,1
426,426,-0.49665512843122916,-0.5,1.0,0.0,478.0,672.0,0.0,0,180.0,1
427,427,-0.8676281780527771,-0.9,0.0,1.0,286.0,814.0,1.0,0,120.0,1
428,428,-0.06137111410185769,-0.1,0.0,1.0,430.0,751.0,0.0,1,1099.0,0
429,429,0.8658328210317817,0.9,0.0,0.0,269.0,609.0,0.0,1,222.0,1
430,430,-0.7097205091369149,-0.7,1.0,0.0,495.0,998.0,0.0,0,157.0,1
431,431,-0.3765451395216246,-0.4,1.0,0.0,399.0,783.0,0.0,0,278.0,1
432,432,-0.14975157133515427,-0.1,1.0,0.0,440.0,775.0,0.0,0,665.0,1
433,433,0.6388334696505494,0.6,0.0,0.0,405.0,988.0,0.0,1,-153.0,1
434,434,0.5728025408657663,0.6,0.0,0.0,252.0,602.0,0.0,1,236.0,1
435,435,0.2923400725537487,0.3,0.0,0.0,485.0,993.0,0.0,1,82.0,1
436,436,-0.21166098691765534,-0.2,1.0,0.0,310.0,991.0,0.0,0,89.0,1
437,437,-0.6383322246270198,-0.6,0.0,1.0,312.0,847.0,1.0,0,301.0,1
438,438,-0.7001112889250963,-0.7,0.0,1.0,349.0,579.0,1.0,0,482.0,1
439,439,-0.4820043888722608,-0.5,1.0,0.0,328.0,554.0,0.0,0,448.0,1
440,440,0.12117887814919948,0.1,1.0,1.0,330.0,630.0,1.0,1,2590.0,1
441,441,-0.4589020438175064,-0.5,1.0,0.0,456.0,870.0,0.0,0,374.0,1
442,442,-0.2601442910997741,-0.3,1.0,0.0,281.0,584.0,0.0,0,855.0,1
443,443,-0.7791087849333765,-0.8,1.0,0.0,261.0,771.0,0.0,0,288.0,1
444,444,-0.7327095535690764,-0.7,1.0,0.0,368.0,620.0,0.0,0,442.0,1
445,445,0.7483117511761012,0.7,1.0,1.0,378.0,822.0,1.0,1,190.0,1
446,446,0.7073078865176164,0.7,1.0,1.0,378.0,666.0,1.0,1,236.0,1
447,447,-0.6168104690838934,-0.6,0.0,1.0,349.0,564.0,1.0,0,337.0,1
448,448,-0.39708760795145925,-0.4,1.0,0.0,321.0,783.0,0.0,0,356.0,1
449,449,-0.8926163105235907,-0.9,0.0,1.0,317.0,622.0,1.0,0,161.0,1
450,450,-0.7612879744821661,-0.8,1.0,0.0,378.0,564.0,0.0,0,398.0,1
451,451,0.2609195700657071,0.3,1.0,1.0,393.0,961.0,1.0,1,186.0,1
452,452,0.8496557308192559,0.8,1.0,1.0,474.0,986.0,1.0,1,110.0,1
453,453,0.6898846818637842,0.7,0.0,0.0,478.0,707.0,0.0,1,205.0,1
454,454,-0.351222242526811,-0.4,1.0,0.0,412.0,629.0,0.0,0,629.0,1
455,455,0.8023713025830742,0.8,1.0,1.0,483.0,842.0,1.0,1,115.0,1
456,456,-0.3872657761149434,-0.4,1.0,0.0,490.0,502.0,0.0,0,328.0,1
457,457,0.3125523680177972,0.3,1.0,1.0,290.0,538.0,1.0,1,792.0,1
458,458,0.6707121905322285,0.7,0.0,0.0,457.0,892.0,0.0,1,51.0,1
459,459,0.3053373811977832,0.3,1.0,1.0,376.0,833.0,1.0,1,111.0,1
460,460,0.21204395750221272,0.2,1.0,1.0,376.0,687.0,1.0,1,867.0,1
461,461,0.7319472673725772,0.7,1.0,1.0,328.0,750.0,1.0,1,192.0,1
462,462,-0.47627921337332774,-0.5,0.0,1.0,359.0,831.0,1.0,0,200.0,1
463,463,0.4320291952008798,0.4,0.0,0.0,384.0,895.0,0.0,1,141.0,1
464,464,0.8182098185164005,0.8,0.0,0.0,364.0,611.0,0.0,1,185.0,1
465,465,-0.8146597775534695,-0.8,1.0,0.0,263.0,844.0,0.0,0,103.0,1
466,466,-0.17673841847420968,-0.2,0.0,1.0,274.0,526.0,1.0,0,710.0,1
467,467,-0.7071829062218965,-0.7,0.0,1.0,486.0,584.0,1.0,0,260.0,1
468,468,0.4431663706400061,0.4,0.0,0.0,432.0,647.0,0.0,1,231.0,1
469,469,0.8232990579060048,0.8,1.0,1.0,412.0,661.0,1.0,1,287.0,1
470,470,-0.693844210046578,-0.7,0.0,1.0,481.0,553.0,1.0,0,416.0,1
471,471,-0.324498426852333,-0.3,0.0,1.0,432.0,646.0,1.0,0,532.0,1
472,472,0.5992687521531638,0.6,0.0,0.0,329.0,806.0,0.0,1,185.0,1
473,473,-0.018573072919265576,-0.0,0.0,1.0,421.0,511.0,0.0,1,648.0,0
474,474,0.809936047532566,0.8,0.0,0.0,347.0,758.0,0.0,1,215.0,1
475,475,0.8556203368531813,0.9,0.0,0.0,290.0,562.0,0.0,1,418.0,1
476,476,-0.2559529310526897,-0.3,1.0,0.0,457.0,838.0,0.0,0,505.0,1
477,477,-0.2271351301764154,-0.2,0.0,1.0,287.0,810.0,1.0,0,683.0,1
478,478,-0.016794201605501824,-0.0,1.0,0.0,348.0,638.0,0.0,0,3364.0,1
479,479,0.3859085498945055,0.4,0.0,0.0,432.0,847.0,0.0,1,171.0,1
480,480,0.39142614942114495,0.4,0.0,0.0,360.0,645.0,0.0,1,495.0,1
481,481,0.5406619589250575,0.5,0.0,0.0,317.0,527.0,0.0,1,386.0,1
482,482,0.7240042101290965,0.7,1.0,1.0,277.0,752.0,1.0,1,581.0,1
483,483,-0.18066569857384773,-0.2,1.0,0.0,372.0,584.0,0.0,0,804.0,1
484,484,-0.8942794724375384,-0.9,0.0,1.0,291.0,830.0,1.0,0,159.0,1
485,485,-0.846998924283372,-0.8,1.0,0.0,330.0,855.0,0.0,0,95.0,1
486,486,-0.40446379428236595,-0.4,1.0,0.0,386.0,574.0,0.0,0,380.0,1
487,487,0.740096348136564,0.7,1.0,1.0,327.0,784.0,1.0,1,219.0,1
488,488,0.7146779700415461,0.7,0.0,0.0,411.0,762.0,0.0,1,207.0,1
489,489,-0.029921194681477692,-0.0,1.0,0.0,412.0,904.0,0.0,0,304.0,1
490,490,0.6181132781731508,0.6,0.0,0.0,462.0,933.0,0.0,1,135.0,1
491,491,0.34575550325645377,0.3,0.0,0.0,388.0,916.0,0.0,1,196.0,1
492,492,0.34433412251021844,0.3,1.0,1.0,250.0,697.0,1.0,1,303.0,1
493,493,0.14060078666837506,0.1,0.0,0.0,370.0,788.0,0.0,1,662.0,1
494,494,-0.6763790306805609,-0.7,1.0,0.0,387.0,718.0,0.0,0,235.0,1
495,495,0.3866654863876119,0.4,1.0,1.0,352.0,646.0,1.0,1,682.0,1
496,496,-0.3042519832336119,-0.3,1.0,0.0,459.0,969.0,0.0,0,242.0,1
497,497,-0.09206786886129115,-0.1,0.0,1.0,436.0,864.0,1.0,0,1850.0,1
498,498,-0.8741487373084907,-0.9,1.0,0.0,476.0,644.0,0.0,0,220.0,1
499,499,-0.41979189030589914,-0.4,0.0,1.0,496.0,847.0,1.0,0,167.0,1
500,500,-0.4594457374162184,-0.5,1.0,0.0,468.0,523.0,0.0,0,499.0,1
501,501,0.5691280696235873,0.6,0.0,0.0,443.0,917.0,0.0,1,80.0,1
502,502,0.5619665413016016,0.6,0.0,0.0,391.0,658.0,0.0,1,271.0,1
503,503,-0.2658691805734955,-0.3,1.0,0.0,284.0,636.0,0.0,0,550.0,1
504,504,0.7767424881116439,0.8,0.0,0.0,358.0,570.0,0.0,1,192.0,1
505,505,0.6033943496394151,0.6,1.0,1.0,466.0,519.0,1.0,1,325.0,1
506,506,0.8767524108751098,0.9,1.0,1.0,474.0,555.0,1.0,1,311.0,1
507,507,0.3341053338281258,0.3,1.0,1.0,294.0,860.0,1.0,1,306.0,1
508,508,-0.7710724113800707,-0.8,0.0,1.0,436.0,831.0,1.0,0,253.0,1
509,509,-0.7706392001484836,-0.8,0.0,1.0,292.0,501.0,1.0,0,207.0,1
510,510,-0.5007448308489342,-0.5,1.0,0.0,292.0,930.0,0.0,0,268.0,1
511,511,-0.2019961647439419,-0.2,1.0,0.0,266.0,510.0,0.0,0,804.0,1
512,512,-0.48679019244352856,-0.5,0.0,1.0,392.0,629.0,1.0,0,329.0,1
513,513,0.7808347443134301,0.8,1.0,1.0,499.0,683.0,1.0,1,258.0,1
514,514,0.3049150019369201,0.3,1.0,1.0,397.0,775.0,1.0,1,488.0,1
515,515,-0.13206743150125266,-0.1,0.0,1.0,486.0,759.0,1.0,0,1135.0,1
516,516,-0.007801536202790671,-0.0,0.0,1.0,442.0,872.0,0.0,1,346.0,0
517,517,-0.15386800024339198,-0.2,0.0,1.0,444.0,621.0,1.0,0,2355.0,1
518,518,-0.5603850826215064,-0.6,0.0,1.0,265.0,940.0,1.0,0,225.0,1
519,519,-0.15534370691784416,-0.2,1.0,0.0,262.0,909.0,0.0,0,469.0,1
520,520,0.07924720115250705,0.1,1.0,1.0,320.0,897.0,1.0,1,1073.0,1
521,521,-0.057899888147475154,-0.1,1.0,0.0,419.0,654.0,0.0,0,697.0,1
522,522,-0.194754968535076,-0.2,0.0,1.0,296.0,721.0,1.0,0,923.0,1
523,523,0.1188065543860165,0.1,0.0,0.0,463.0,517.0,0.0,1,750.0,1
524,524,0.5732091859197607,0.6,1.0,1.0,404.0,649.0,1.0,1,237.0,1
525,525,-0.7475832906851541,-0.7,1.0,0.0,485.0,793.0,0.0,0,72.0,1
526,526,0.64505167891719,0.6,1.0,1.0,401.0,601.0,1.0,1,418.0,1
527,527,-0.3741451285173264,-0.4,1.0,0.0,306.0,668.0,0.0,0,336.0,1
528,528,-0.13542644327467912,-0.1,1.0,0.0,449.0,618.0,0.0,0,753.0,1
529,529,0.08646142755316599,0.1,0.0,0.0,387.0,990.0,0.0,1,793.0,1
530,530,0.5454625130588905,0.5,1.0,1.0,271.0,717.0,1.0,1,282.0,1
531,531,-0.2471481617233493,-0.2,0.0,1.0,431.0,840.0,1.0,0,219.0,1
532,532,-0.5821308748252352,-0.6,0.0,1.0,403.0,729.0,1.0,0,368.0,1
533,533,-0.38027195217403165,-0.4,1.0,0.0,450.0,866.0,0.0,0,774.0,1
534,534,-0.8691364273902576,-0.9,0.0,1.0,274.0,747.0,1.0,0,259.0,1
535,535,-0.41132293872675535,-0.4,0.0,1.0,469.0,599.0,1.0,0,842.0,1
536,536,0.6517655465473188,0.7,0.0,0.0,489.0,617.0,0.0,1,234.0,1
537,537,-0.8770527140299283,-0.9,0.0,1.0,409.0,929.0,1.0,0,182.0,1
538,538,0.13670174677077374,0.1,0.0,0.0,475.0,682.0,0.0,1,303.0,1
539,539,-0.0946516853443009,-0.1,0.0,1.0,453.0,978.0,1.0,0,359.0,1
540,540,-0.6523429979607227,-0.7,1.0,0.0,279.0,877.0,0.0,0,174.0,1
541,541,0.324567488613828,0.3,0.0,0.0,444.0,866.0,0.0,1,260.0,1
542,542,0.028261280454013105,0.0,1.0,1.0,263.0,818.0,0.0,0,479.0,0
543,543,0.4583145970110115,0.5,1.0,1.0,490.0,856.0,1.0,1,364.0,1
544,544,-0.752848417389463,-0.8,1.0,0.0,444.0,947.0,0.0,0,249.0,1
545,545,0.03031194165725315,0.0,0.0,0.0,433.0,851.0,0.0,1,716.0,1
546,546,-0.03509983182581411,-0.0,0.0,1.0,498.0,716.0,0.0,1,576.0,0
547,547,-0.2973735873009088,-0.3,1.0,0.0,480.0,622.0,0.0,0,418.0,1
548,548,0.6309204534220786,0.6,1.0,1.0,252.0,647.0,1.0,1,381.0,1
549,549,0.2176151542660011,0.2,1.0,1.0,351.0,733.0,1.0,1,556.0,1
550,550,0.2826748042357584,0.3,0.0,0.0,483.0,911.0,0.0,1,476.0,1
551,551,0.4489541424070215,0.4,0.0,0.0,409.0,945.0,0.0,1,246.0,1
552,552,-0.5058576115667082,-0.5,1.0,0.0,362.0,843.0,0.0,0,365.0,1
553,553,-0.47384443299193985,-0.5,1.0,0.0,290.0,887.0,0.0,0,133.0,1
554,554,0.08751470272707051,0.1,1.0,1.0,302.0,706.0,1.0,1,3992.0,1
555,555,0.7008467513883748,0.7,1.0,1.0,290.0,719.0,1.0,1,201.0,1
556,556,-0.424817346421001,-0.4,1.0,0.0,379.0,501.0,0.0,0,580.0,1
557,557,0.3954217978643376,0.4,0.0,0.0,351.0,667.0,0.0,1,352.0,1
558,558,0.8151993465446233,0.8,0.0,0.0,343.0,908.0,0.0,1,239.0,1
559,559,0.45571498826021906,0.5,0.0,0.0,426.0,897.0,0.0,1,137.0,1
560,560,-0.5025943408786067,-0.5,1.0,0.0,417.0,817.0,0.0,0,166.0,1
561,561,0.45532028198097596,0.5,1.0,1.0,409.0,672.0,1.0,1,249.0,1
562,562,0.26879588514986275,0.3,0.0,0.0,251.0,698.0,0.0,1,231.0,1
563,563,-0.3579455461029609,-0.4,1.0,0.0,296.0,972.0,0.0,0,162.0,1
564,564,-0.7015314746774555,-0.7,1.0,0.0,407.0,540.0,0.0,0,403.0,1
565,565,0.8641621085032664,0.9,0.0,0.0,469.0,725.0,0.0,1,116.0,1
566,566,-0.09891325343558866,-0.1,0.0,1.0,433.0,827.0,1.0,0,3740.0,1
567,567,0.7987581317548295,0.8,0.0,0.0,391.0,639.0,0.0,1,260.0,1
568,568,-0.27958850770275456,-0.3,0.0,1.0,319.0,942.0,1.0,0,1459.0,1
569,569,0.11768941934042798,0.1,0.0,0.0,367.0,668.0,0.0,1,355.0,1
570,570,-0.47069321957178306,-0.5,0.0,1.0,394.0,577.0,1.0,0,569.0,1
571,571,-0.7693159350558549,-0.8,1.0,0.0,383.0,897.0,0.0,0,210.0,1
572,572,-0.13954665517076614,-0.1,0.0,1.0,270.0,699.0,1.0,0,1381.0,1
573,573,0.47172264402648956,0.5,0.0,0.0,371.0,766.0,0.0,1,253.0,1
574,574,-0.4728937000523272,-0.5,0.0,1.0,284.0,720.0,1.0,0,386.0,1
575,575,0.1472919673700711,0.1,1.0,1.0,461.0,772.0,1.0,1,1947.0,1
576,576,0.4222646597551808,0.4,0.0,0.0,317.0,784.0,0.0,1,319.0,1
577,577,0.7217790645470251,0.7,0.0,0.0,338.0,725.0,0.0,1,177.0,1
578,578,-0.7368680776487645,-0.7,0.0,1.0,326.0,587.0,1.0,0,367.0,1
579,579,0.19318978517954333,0.2,0.0,0.0,405.0,528.0,0.0,1,437.0,1
580,580,0.5500935446770733,0.6,1.0,1.0,328.0,715.0,1.0,1,197.0,1
581,581,-0.6526789336770176,-0.7,0.0,1.0,332.0,971.0,1.0,0,187.0,1
582,582,-0.8863842390260909,-0.9,1.0,0.0,333.0,883.0,0.0,0,104.0,1
583,583,-0.21336911933361957,-0.2,1.0,0.0,457.0,832.0,0.0,0,391.0,1
584,584,-0.6960790265887227,-0.7,1.0,0.0,346.0,589.0,0.0,0,375.0,1
585,585,-0.8618349286812494,-0.9,1.0,0.0,491.0,900.0,0.0,0,319.0,1
586,586,-0.47217773708059496,-0.5,1.0,0.0,292.0,892.0,0.0,0,206.0,1
587,587,-0.21962965819523195,-0.2,0.0,1.0,493.0,916.0,1.0,0,431.0,1
588,588,0.15538663547329323,0.2,1.0,1.0,441.0,554.0,1.0,1,1115.0,1
589,589,-0.7231272714385804,-0.7,1.0,0.0,389.0,506.0,0.0,0,325.0,1
590,590,-0.8464784229951369,-0.8,0.0,1.0,320.0,812.0,1.0,0,238.0,1
591,591,0.7481247856020458,0.7,1.0,1.0,453.0,519.0,1.0,1,508.0,1
592,592,0.08903892338392005,0.1,1.0,1.0,370.0,542.0,1.0,1,4088.0,1
593,593,-0.4255567425262806,-0.4,0.0,1.0,426.0,894.0,1.0,0,270.0,1
594,594,0.029296359885633394,0.0,1.0,1.0,441.0,936.0,1.0,1,1393.0,1
595,595,0.6905156221016545,0.7,1.0,1.0,409.0,663.0,1.0,1,308.0,1
596,596,0.14409035419904892,0.1,1.0,1.0,316.0,616.0,1.0,1,538.0,1
597,597,-0.13764667930029806,-0.1,1.0,0.0,320.0,675.0,0.0,0,775.0,1
598,598,0.6544813674177333,0.7,1.0,1.0,304.0,809.0,1.0,1,127.0,1
599,599,-0.7890784392413382,-0.8,1.0,0.0,403.0,613.0,0.0,0,224.0,1
600,600,0.2877476715977977,0.3,0.0,0.0,321.0,611.0,0.0,1,328.0,1
601,601,-0.4934287351006263,-0.5,0.0,1.0,308.0,612.0,1.0,0,350.0,1
602,602,-0.6004035210759546,-0.6,1.0,0.0,483.0,613.0,0.0,0,264.0,1
603,603,0.17173897270875205,0.2,0.0,0.0,411.0,527.0,0.0,1,502.0,1
604,604,0.23353779133450414,0.2,0.0,0.0,402.0,897.0,0.0,1,441.0,1
605,605,0.8035675773522665,0.8,0.0,0.0,395.0,502.0,0.0,1,333.0,1
606,606,0.4904822870531095,0.5,0.0,0.0,296.0,850.0,0.0,1,164.0,1
607,607,-0.8584058458710248,-0.9,1.0,0.0,396.0,885.0,0.0,0,169.0,1
608,608,-0.8795232378857233,-0.9,0.0,1.0,281.0,536.0,1.0,0,313.0,1
609,609,0.034725838437420165,0.0,1.0,1.0,492.0,654.0,1.0,1,3854.0,1
610,610,-0.44048195514846533,-0.4,0.0,1.0,258.0,720.0,1.0,0,412.0,1
611,611,0.1678438823420746,0.2,1.0,1.0,416.0,923.0,1.0,1,911.0,1
612,612,-0.6028228782625429,-0.6,1.0,0.0,355.0,699.0,0.0,0,206.0,1
613,613,-0.12156372302067353,-0.1,0.0,1.0,287.0,622.0,1.0,0,2651.0,1
614,614,0.17524430609561248,0.2,0.0,0.0,470.0,530.0,0.0,1,660.0,1
615,615,-0.023806007972951737,-0.0,1.0,0.0,401.0,616.0,0.0,0,2423.0,1
616,616,0.7245605423432485,0.7,0.0,0.0,450.0,842.0,0.0,1,108.0,1
617,617,0.15923321920608358,0.2,1.0,1.0,380.0,669.0,1.0,1,491.0,1
618,618,-0.4174457114908352,-0.4,0.0,1.0,494.0,888.0,1.0,0,768.0,1
619,619,0.7804341503384907,0.8,0.0,0.0,274.0,918.0,0.0,1,88.0,1
620,620,0.15107241333563948,0.2,0.0,0.0,310.0,776.0,0.0,1,114.0,1
621,621,-0.6576942772072287,-0.7,1.0,0.0,263.0,630.0,0.0,0,287.0,1
622,622,-0.6288934581527088,-0.6,0.0,1.0,425.0,559.0,1.0,0,406.0,1
623,623,0.14860715029271498,0.1,0.0,0.0,367.0,989.0,0.0,1,144.0,1
624,624,-0.5627447432442959,-0.6,0.0,1.0,301.0,669.0,1.0,0,230.0,1
625,625,0.6293428050541988,0.6,1.0,1.0,262.0,500.0,1.0,1,448.0,1
626,626,-0.28715214418699486,-0.3,1.0,0.0,372.0,824.0,0.0,0,444.0,1
627,627,0.8335220502947355,0.8,0.0,0.0,329.0,901.0,0.0,1,10.0,1
628,628,0.06490221966357101,0.1,0.0,0.0,387.0,591.0,0.0,1,542.0,1
629,629,-0.13697169866274406,-0.1,0.0,1.0,392.0,909.0,0.0,1,419.0,0
630,630,-0.38664045395244717,-0.4,0.0,1.0,487.0,602.0,1.0,0,441.0,1
631,631,0.005886162559594399,0.0,1.0,1.0,399.0,879.0,0.0,0,2452.0,0
632,632,0.8243049393013125,0.8,1.0,1.0,423.0,710.0,1.0,1,107.0,1
633,633,0.1083063267285932,0.1,0.0,0.0,286.0,593.0,0.0,1,621.0,1
634,634,0.8433215198361325,0.8,0.0,0.0,409.0,697.0,0.0,1,204.0,1
635,635,-0.8901992851297562,-0.9,1.0,0.0,415.0,998.0,0.0,0,47.0,1
636,636,0.11846630185249196,0.1,0.0,0.0,444.0,688.0,0.0,1,228.0,1
637,637,-0.7386150687458544,-0.7,1.0,0.0,447.0,752.0,0.0,0,451.0,1
638,638,-0.12980388613168792,-0.1,1.0,0.0,499.0,925.0,0.0,0,346.0,1
639,639,-0.2553120219617939,-0.3,0.0,1.0,465.0,920.0,1.0,0,275.0,1
640,640,0.02840745802774658,0.0,1.0,1.0,292.0,955.0,0.0,0,1123.0,0
641,641,-0.0602338330796206,-0.1,0.0,1.0,485.0,727.0,0.0,1,1078.0,0
642,642,0.6063038776185307,0.6,1.0,1.0,252.0,579.0,1.0,1,369.0,1
643,643,0.8327530511453151,0.8,1.0,1.0,490.0,892.0,1.0,1,88.0,1
644,644,0.6073896562524369,0.6,0.0,0.0,376.0,829.0,0.0,1,165.0,1
645,645,0.23280184920650127,0.2,1.0,1.0,453.0,848.0,1.0,1,1309.0,1
646,646,0.4551866066608624,0.5,1.0,1.0,258.0,500.0,1.0,1,532.0,1
647,647,0.5219826362976306,0.5,1.0,1.0,475.0,742.0,1.0,1,133.0,1
648,648,-0.0020416600070666258,-0.0,1.0,0.0,459.0,506.0,0.0,0,1395.0,1
649,649,0.6714362580323158,0.7,1.0,1.0,290.0,821.0,1.0,1,169.0,1
650,650,-0.17700593657360575,-0.2,1.0,0.0,358.0,930.0,0.0,0,292.0,1
651,651,-0.20397557427889024,-0.2,1.0,0.0,331.0,520.0,0.0,0,919.0,1
652,652,0.8181332255478347,0.8,0.0,0.0,467.0,898.0,0.0,1,155.0,1
653,653,-0.5271944823799835,-0.5,0.0,1.0,416.0,918.0,1.0,0,336.0,1
654,654,0.33967961602351127,0.3,0.0,0.0,441.0,631.0,0.0,1,568.0,1
655,655,-0.5281642174459351,-0.5,0.0,1.0,433.0,590.0,1.0,0,577.0,1
656,656,0.2486803690550431,0.2,0.0,0.0,253.0,958.0,0.0,1,279.0,1
657,657,-0.7068983199017033,-0.7,0.0,1.0,335.0,549.0,1.0,0,286.0,1
658,658,0.21841139819621758,0.2,0.0,0.0,360.0,730.0,0.0,1,450.0,1
659,659,0.46348237636605993,0.5,0.0,0.0,495.0,569.0,0.0,1,386.0,1
660,660,0.4731195535068674,0.5,1.0,1.0,264.0,537.0,1.0,1,399.0,1
661,661,-0.0905119004114796,-0.1,0.0,1.0,300.0,544.0,1.0,0,646.0,1
662,662,0.8585282264497004,0.9,1.0,1.0,495.0,823.0,1.0,1,172.0,1
663,663,0.37505974815395093,0.4,0.0,0.0,393.0,808.0,0.0,1,139.0,1
664,664,0.1970950362477285,0.2,0.0,0.0,352.0,938.0,0.0,1,90.0,1
665,665,0.8267042838523492,0.8,0.0,0.0,408.0,520.0,0.0,1,342.0,1
666,666,0.8220778084766379,0.8,1.0,1.0,386.0,541.0,1.0,1,513.0,1
667,667,0.31969477214739006,0.3,1.0,1.0,391.0,740.0,1.0,1,369.0,1
668,668,0.5634418166604379,0.6,1.0,1.0,251.0,531.0,1.0,1,368.0,1
669,669,-0.2305310823743234,-0.2,1.0,0.0,338.0,917.0,0.0,0,735.0,1
670,670,0.5950112722748101,0.6,1.0,1.0,383.0,975.0,1.0,1,122.0,1
671,671,0.8807613848034251,0.9,0.0,0.0,322.0,978.0,0.0,1,120.0,1
672,672,0.00915235967661887,0.0,0.0,0.0,313.0,977.0,0.0,1,680.0,1
673,673,-0.7428605991921536,-0.7,0.0,1.0,303.0,870.0,1.0,0,227.0,1
674,674,-0.8082476910837435,-0.8,0.0,1.0,304.0,606.0,1.0,0,290.0,1
675,675,0.37142161791704253,0.4,1.0,1.0,257.0,636.0,1.0,1,667.0,1
676,676,-0.1464672856536121,-0.1,1.0,0.0,472.0,751.0,0.0,0,607.0,1
677,677,-0.6128948804284208,-0.6,0.0,1.0,282.0,736.0,1.0,0,252.0,1
678,678,-0.895589778590207,-0.9,1.0,0.0,459.0,522.0,0.0,0,369.0,1
679,679,-0.5988324433709595,-0.6,0.0,1.0,416.0,514.0,1.0,0,500.0,1
680,680,-0.3732657594065525,-0.4,0.0,1.0,384.0,602.0,1.0,0,374.0,1
681,681,-0.8523642455350282,-0.9,1.0,0.0,453.0,539.0,0.0,0,398.0,1
682,682,0.06041092719632557,0.1,1.0,1.0,315.0,687.0,0.0,0,1188.0,0
683,683,-0.13076954480715852,-0.1,0.0,1.0,489.0,851.0,1.0,0,1030.0,1
684,684,0.8804689853670581,0.9,1.0,1.0,295.0,601.0,1.0,1,354.0,1
685,685,0.37752780846004785,0.4,0.0,0.0,376.0,816.0,0.0,1,248.0,1
686,686,-0.26892043180876046,-0.3,1.0,0.0,372.0,605.0,0.0,0,183.0,1
687,687,-0.6432684950138987,-0.6,0.0,1.0,441.0,711.0,1.0,0,558.0,1
688,688,0.8826380767320557,0.9,0.0,0.0,496.0,573.0,0.0,1,331.0,1
689,689,-0.48633506713541086,-0.5,1.0,0.0,448.0,724.0,0.0,0,328.0,1
690,690,0.24005343434847204,0.2,0.0,0.0,382.0,658.0,0.0,1,490.0,1
691,691,-0.8435119489338204,-0.8,0.0,1.0,416.0,705.0,1.0,0,469.0,1
692,692,0.22019245139729893,0.2,1.0,1.0,415.0,638.0,1.0,1,527.0,1
693,693,0.3584659401011886,0.4,1.0,1.0,278.0,554.0,1.0,1,608.0,1
694,694,-0.6876976181969711,-0.7,1.0,0.0,444.0,585.0,0.0,0,301.0,1
695,695,0.7468008120521362,0.7,1.0,1.0,316.0,989.0,1.0,1,145.0,1
696,696,0.37250221406049866,0.4,0.0,0.0,338.0,569.0,0.0,1,493.0,1
697,697,0.3957332889923614,0.4,1.0,1.0,394.0,995.0,1.0,1,101.0,1
698,698,-0.05229140496798679,-0.1,0.0,1.0,279.0,811.0,0.0,1,380.0,0
699,699,-0.5349929119459612,-0.5,1.0,0.0,326.0,507.0,0.0,0,247.0,1
700,700,-0.251876885074957,-0.3,0.0,1.0,289.0,782.0,1.0,0,1159.0,1
701,701,0.6733115103238615,0.7,1.0,1.0,499.0,943.0,1.0,1,98.0,1
702,702,-0.7574779398866712,-0.8,1.0,0.0,315.0,758.0,0.0,0,267.0,1
703,703,0.7255464118487743,0.7,1.0,1.0,482.0,532.0,1.0,1,306.0,1
704,704,-0.7620522449900722,-0.8,0.0,1.0,439.0,950.0,1.0,0,141.0,1
705,705,0.2565031413987947,0.3,1.0,1.0,328.0,971.0,1.0,1,431.0,1
706,706,-0.06554579510301395,-0.1,1.0,0.0,279.0,526.0,0.0,0,675.0,1
707,707,-0.6418678484777832,-0.6,0.0,1.0,325.0,569.0,1.0,0,366.0,1
708,708,-0.17534225102303513,-0.2,1.0,0.0,487.0,582.0,0.0,0,641.0,1
709,709,0.3436832562423092,0.3,1.0,1.0,257.0,643.0,1.0,1,430.0,1
710,710,-0.1538525979667249,-0.2,0.0,1.0,353.0,682.0,1.0,0,1385.0,1
711,711,-0.2821291973184378,-0.3,0.0,1.0,284.0,710.0,1.0,0,666.0,1
712,712,-0.09607439741127677,-0.1,1.0,0.0,490.0,547.0,0.0,0,723.0,1
713,713,0.5798936129483246,0.6,0.0,0.0,433.0,711.0,0.0,1,266.0,1
714,714,-0.039416523172875695,-0.0,1.0,0.0,379.0,796.0,0.0,0,785.0,1
715,715,0.24428076521617437,0.2,0.0,0.0,368.0,657.0,0.0,1,445.0,1
716,716,-0.5323914373787104,-0.5,1.0,0.0,344.0,906.0,0.0,0,320.0,1
717,717,-0.21252597379156823,-0.2,0.0,1.0,460.0,599.0,1.0,0,1611.0,1
718,718,0.22110893996796255,0.2,1.0,1.0,460.0,992.0,1.0,1,1168.0,1
719,719,-0.5346198994531808,-0.5,0.0,1.0,353.0,973.0,1.0,0,134.0,1
720,720,0.2935705023624039,0.3,0.0,0.0,313.0,566.0,0.0,1,381.0,1
721,721,0.06248023568190919,0.1,0.0,0.0,292.0,904.0,0.0,1,894.0,1
722,722,0.5272776852115583,0.5,0.0,0.0,472.0,986.0,0.0,1,102.0,1
723,723,-0.37934608901234446,-0.4,1.0,0.0,388.0,812.0,0.0,0,300.0,1
724,724,-0.32403180739407167,-0.3,1.0,0.0,361.0,719.0,0.0,0,370.0,1
725,725,-0.19194161856187675,-0.2,1.0,0.0,264.0,716.0,0.0,0,430.0,1
726,726,-0.637736923352147,-0.6,1.0,0.0,462.0,965.0,0.0,0,253.0,1
727,727,-0.5205818125747719,-0.5,0.0,1.0,315.0,604.0,1.0,0,441.0,1
728,728,-0.6948609661442702,-0.7,0.0,1.0,385.0,728.0,1.0,0,347.0,1
729,729,-0.5656083018296127,-0.6,1.0,0.0,445.0,767.0,0.0,0,278.0,1
730,730,-0.6973178870078143,-0.7,1.0,0.0,398.0,697.0,0.0,0,205.0,1
731,731,-0.8547793976146484,-0.9,0.0,1.0,366.0,568.0,1.0,0,366.0,1
732,732,-0.3427648427832023,-0.3,0.0,1.0,483.0,566.0,1.0,0,761.0,1
733,733,0.2627547545080605,0.3,0.0,0.0,383.0,556.0,0.0,1,451.0,1
734,734,0.24174234539200923,0.2,0.0,0.0,468.0,630.0,0.0,1,422.0,1
735,735,-0.5644947614287312,-0.6,0.0,1.0,408.0,873.0,1.0,0,299.0,1
736,736,-0.1622181977193029,-0.2,1.0,0.0,453.0,794.0,0.0,0,593.0,1
737,737,0.11787121286992341,0.1,0.0,0.0,368.0,833.0,0.0,1,459.0,1
738,738,0.2853233013838655,0.3,1.0,1.0,329.0,595.0,1.0,1,306.0,1
739,739,0.47488327440558586,0.5,0.0,0.0,427.0,582.0,0.0,1,141.0,1
740,740,-0.6098103716896686,-0.6,1.0,0.0,305.0,505.0,0.0,0,850.0,1
741,741,0.545614414082427,0.5,0.0,0.0,286.0,763.0,0.0,1,141.0,1
742,742,-0.19716283463944806,-0.2,0.0,1.0,374.0,920.0,0.0,1,-4.0,0
743,743,-0.8096817092103327,-0.8,0.0,1.0,280.0,906.0,1.0,0,264.0,1
744,744,0.5101406118807069,0.5,0.0,0.0,401.0,849.0,0.0,1,270.0,1
745,745,-0.46904159403798185,-0.5,1.0,0.0,268.0,629.0,0.0,0,543.0,1
746,746,-0.7464571578923497,-0.7,0.0,1.0,412.0,733.0,1.0,0,185.0,1
747,747,-0.1254049725666574,-0.1,1.0,0.0,337.0,724.0,0.0,0,419.0,1
748,748,0.8951480178686334,0.9,0.0,0.0,462.0,643.0,0.0,1,475.0,1
749,749,-0.6842278710401852,-0.7,1.0,0.0,409.0,933.0,0.0,0,138.0,1
750,750,-0.7432620816721398,-0.7,0.0,1.0,281.0,804.0,1.0,0,195.0,1
751,751,-0.16133790927453862,-0.2,0.0,1.0,479.0,686.0,0.0,1,1655.0,0
752,752,-0.3145272673702567,-0.3,1.0,0.0,259.0,943.0,0.0,0,268.0,1
753,753,-0.24573267671637766,-0.2,0.0,1.0,254.0,617.0,1.0,0,1719.0,1
754,754,0.507456177717213,0.5,1.0,1.0,490.0,579.0,1.0,1,471.0,1
755,755,-0.5185569935544732,-0.5,1.0,0.0,413.0,873.0,0.0,0,284.0,1
756,756,-0.6083179804544574,-0.6,1.0,0.0,250.0,744.0,0.0,0,306.0,1
757,757,-0.40571969929991625,-0.4,1.0,0.0,301.0,598.0,0.0,0,561.0,1
758,758,-0.7717787837047908,-0.8,1.0,0.0,281.0,500.0,0.0,0,469.0,1
759,759,0.7580668968691774,0.8,1.0,1.0,401.0,926.0,1.0,1,43.0,1
760,760,0.040321272618391024,0.0,0.0,0.0,375.0,533.0,0.0,1,1112.0,1
761,761,0.442419906907246,0.4,0.0,0.0,327.0,813.0,0.0,1,100.0,1
762,762,0.0996419528681659,0.1,1.0,1.0,360.0,871.0,1.0,1,429.0,1
763,763,0.3631536841703916,0.4,1.0,1.0,439.0,563.0,1.0,1,328.0,1
764,764,-0.0632999712743727,-0.1,0.0,1.0,319.0,978.0,1.0,0,483.0,1
765,765,0.19900859764354129,0.2,0.0,0.0,464.0,803.0,0.0,1,233.0,1
766,766,-0.07071594738996412,-0.1,0.0,1.0,487.0,669.0,0.0,1,2234.0,0
767,767,0.8631095993847647,0.9,1.0,1.0,427.0,577.0,1.0,1,196.0,1
768,768,0.018995089283787903,0.0,0.0,0.0,480.0,569.0,0.0,1,881.0,1
769,769,0.0743096583292937,0.1,0.0,0.0,491.0,851.0,0.0,1,458.0,1
770,770,-0.6810392792165338,-0.7,1.0,0.0,326.0,898.0,0.0,0,156.0,1
771,771,-0.3175802631691781,-0.3,1.0,0.0,467.0,610.0,0.0,0,533.0,1
772,772,0.8281792098724049,0.8,0.0,0.0,357.0,785.0,0.0,1,128.0,1
773,773,0.3441643367905366,0.3,0.0,0.0,425.0,923.0,0.0,1,42.0,1
774,774,-0.7684829850972347,-0.8,0.0,1.0,464.0,748.0,1.0,0,308.0,1
775,775,-0.1349848554843801,-0.1,1.0,0.0,361.0,764.0,0.0,0,435.0,1
776,776,0.7948933251118083,0.8,1.0,1.0,411.0,995.0,1.0,1,184.0,1
777,777,0.6947283839679487,0.7,1.0,1.0,311.0,538.0,1.0,1,261.0,1
778,778,0.28728671650340065,0.3,0.0,0.0,260.0,902.0,0.0,1,138.0,1
779,779,0.8994845844430169,0.9,0.0,0.0,400.0,932.0,0.0,1,188.0,1
780,780,0.10517982623519917,0.1,1.0,1.0,460.0,818.0,1.0,1,472.0,1
781,781,-0.7610551094125466,-0.8,0.0,1.0,490.0,613.0,1.0,0,377.0,1
782,782,-0.8688665688213622,-0.9,1.0,0.0,476.0,965.0,0.0,0,249.0,1
783,783,0.62710185823743,0.6,0.0,0.0,308.0,827.0,0.0,1,175.0,1
784,784,-0.6168856999000225,-0.6,0.0,1.0,478.0,540.0,1.0,0,212.0,1
785,785,-0.8038586962148184,-0.8,1.0,0.0,336.0,514.0,0.0,0,200.0,1
786,786,-0.5062411245101976,-0.5,0.0,1.0,341.0,841.0,1.0,0,318.0,1
787,787,0.40856413387895796,0.4,0.0,0.0,429.0,692.0,0.0,1,249.0,1
788,788,-0.6385186403988963,-0.6,0.0,1.0,421.0,797.0,1.0,0,162.0,1
789,789,0.061310426125636974,0.1,0.0,0.0,306.0,513.0,0.0,1,361.0,1
790,790,0.11899826125758228,0.1,1.0,1.0,367.0,579.0,0.0,0,4054.0,0
791,791,-0.34537100646265706,-0.3,1.0,0.0,480.0,616.0,0.0,0,754.0,1
792,792,-0.48428347813780115,-0.5,0.0,1.0,436.0,954.0,1.0,0,190.0,1
793,793,-0.7493859525877096,-0.7,1.0,0.0,257.0,659.0,0.0,0,314.0,1
794,794,0.5950371425925008,0.6,0.0,0.0,493.0,777.0,0.0,1,170.0,1
795,795,0.8974113949717711,0.9,1.0,1.0,332.0,721.0,1.0,1,177.0,1
796,796,0.10484927320454795,0.1,1.0,1.0,410.0,886.0,1.0,1,3704.0,1
797,797,0.7580008924197122,0.8,1.0,1.0,283.0,895.0,1.0,1,172.0,1
798,798,0.7047185917387845,0.7,0.0,0.0,413.0,568.0,0.0,1,459.0,1
799,799,0.7378667084608969,0.7,1.0,1.0,291.0,769.0,1.0,1,460.0,1
800,800,-0.36216327735125386,-0.4,1.0,0.0,389.0,936.0,0.0,0,145.0,1
801,801,0.7056605140612396,0.7,0.0,0.0,253.0,690.0,0.0,1,337.0,1
802,802,-0.3406392945904816,-0.3,1.0,0.0,393.0,763.0,0.0,0,214.0,1
803,803,0.7108479295257538,0.7,1.0,1.0,466.0,864.0,1.0,1,200.0,1
804,804,0.43224451702294664,0.4,1.0,1.0,334.0,848.0,1.0,1,468.0,1
805,805,0.1295232567743475,0.1,1.0,1.0,271.0,852.0,0.0,0,2697.0,0
806,806,0.7710669142926233,0.8,1.0,1.0,323.0,936.0,1.0,1,51.0,1
807,807,-0.586052595401152,-0.6,0.0,1.0,265.0,890.0,1.0,0,135.0,1
808,808,-0.25122218900216864,-0.3,0.0,1.0,371.0,554.0,1.0,0,445.0,1
809,809,-0.25587300537130997,-0.3,1.0,0.0,382.0,822.0,0.0,0,746.0,1
810,810,-0.14334442754348042,-0.1,0.0,1.0,443.0,527.0,1.0,0,980.0,1
811,811,-0.15404757322907559,-0.2,0.0,1.0,362.0,824.0,1.0,0,794.0,1
812,812,0.6420956282733107,0.6,1.0,1.0,422.0,895.0,1.0,1,183.0,1
813,813,-0.40191066870258424,-0.4,0.0,1.0,434.0,584.0,1.0,0,362.0,1
814,814,-0.6781224068481007,-0.7,1.0,0.0,399.0,762.0,0.0,0,269.0,1
815,815,0.4042486966162385,0.4,1.0,1.0,329.0,576.0,1.0,1,375.0,1
816,816,-0.7519667228652174,-0.8,1.0,0.0,469.0,611.0,0.0,0,300.0,1
817,817,-0.2603848116960773,-0.3,1.0,0.0,472.0,880.0,0.0,0,368.0,1
818,818,0.12851738413445812,0.1,1.0,1.0,310.0,815.0,1.0,1,1025.0,1
819,819,0.6651241018835145,0.7,0.0,0.0,283.0,730.0,0.0,1,217.0,1
820,820,0.8530918633114298,0.9,1.0,1.0,413.0,768.0,1.0,1,159.0,1
821,821,0.29341639872648495,0.3,1.0,1.0,433.0,802.0,1.0,1,645.0,1
822,822,0.6032038889262555,0.6,1.0,1.0,461.0,849.0,1.0,1,190.0,1
823,823,0.8826240463740015,0.9,1.0,1.0,475.0,681.0,1.0,1,454.0,1
824,824,-0.8236317534727471,-0.8,0.0,1.0,265.0,815.0,1.0,0,130.0,1
825,825,-0.011853320598218864,-0.0,1.0,0.0,297.0,779.0,0.0,0,1744.0,1
826,826,0.4753041122189493,0.5,1.0,1.0,343.0,777.0,1.0,1,310.0,1
827,827,0.6831613109632492,0.7,0.0,0.0,387.0,879.0,0.0,1,224.0,1
828,828,-0.34459652506926775,-0.3,1.0,0.0,337.0,846.0,0.0,0,287.0,1
829,829,-0.46751579895248924,-0.5,1.0,0.0,424.0,976.0,0.0,0,-40.0,1
830,830,0.36371400854831004,0.4,0.0,0.0,347.0,952.0,0.0,1,81.0,1
831,831,-0.25028581776190395,-0.3,0.0,1.0,471.0,994.0,1.0,0,425.0,1
832,832,-0.33978834055928175,-0.3,1.0,0.0,414.0,598.0,0.0,0,718.0,1
833,833,0.0910834630686278,0.1,1.0,1.0,387.0,984.0,1.0,1,1439.0,1
834,834,-0.3505576983234119,-0.4,0.0,1.0,329.0,879.0,1.0,0,392.0,1
835,835,-0.7425308895752065,-0.7,1.0,0.0,352.0,571.0,0.0,0,327.0,1
836,836,-0.21995874104353852,-0.2,1.0,0.0,311.0,898.0,0.0,0,451.0,1
837,837,-0.4263392258568793,-0.4,0.0,1.0,498.0,868.0,1.0,0,464.0,1
838,838,-0.06178974955434591,-0.1,0.0,1.0,320.0,685.0,0.0,1,1495.0,0
839,839,-0.5755419054901022,-0.6,0.0,1.0,451.0,560.0,1.0,0,409.0,1
840,840,-0.8254633071008465,-0.8,0.0,1.0,279.0,831.0,1.0,0,200.0,1
841,841,-0.029272182894288012,-0.0,1.0,0.0,322.0,835.0,0.0,0,243.0,1
842,842,0.43884148542276213,0.4,0.0,0.0,386.0,905.0,0.0,1,149.0,1
843,843,-0.46812095558984107,-0.5,0.0,1.0,476.0,614.0,1.0,0,540.0,1
844,844,-0.4169836999974202,-0.4,1.0,0.0,404.0,788.0,0.0,0,448.0,1
845,845,-0.05088465157734867,-0.1,1.0,0.0,376.0,596.0,0.0,0,388.0,1
846,846,-0.7807528197013933,-0.8,0.0,1.0,487.0,687.0,1.0,0,226.0,1
847,847,-0.8602456344150406,-0.9,1.0,0.0,494.0,615.0,0.0,0,471.0,1
848,848,0.4148610942420906,0.4,1.0,1.0,410.0,850.0,1.0,1,380.0,1
849,849,0.6963627237914095,0.7,1.0,1.0,472.0,609.0,1.0,1,389.0,1
850,850,-0.10694913586256782,-0.1,0.0,1.0,341.0,762.0,1.0,0,407.0,1
851,851,0.8960022725339684,0.9,1.0,1.0,288.0,883.0,1.0,1,189.0,1
852,852,-0.09714666382661663,-0.1,1.0,0.0,485.0,705.0,0.0,0,460.0,1
853,853,0.37347972283328923,0.4,0.0,0.0,255.0,689.0,0.0,1,86.0,1
854,854,0.30485308078862106,0.3,1.0,1.0,416.0,996.0,1.0,1,278.0,1
855,855,0.8912472987575123,0.9,1.0,1.0,359.0,619.0,1.0,1,422.0,1
856,856,0.4646019730474772,0.5,0.0,0.0,410.0,684.0,0.0,1,296.0,1
857,857,0.1711261744960345,0.2,1.0,1.0,409.0,634.0,1.0,1,987.0,1
858,858,-0.33918627087942876,-0.3,0.0,1.0,315.0,700.0,1.0,0,205.0,1
859,859,0.2180785587003925,0.2,1.0,1.0,425.0,893.0,1.0,1,-68.0,1
860,860,0.8980990640331047,0.9,1.0,1.0,343.0,678.0,1.0,1,169.0,1
861,861,0.3685886769982235,0.4,1.0,1.0,411.0,563.0,1.0,1,646.0,1
862,862,0.3020401996063179,0.3,0.0,0.0,326.0,624.0,0.0,1,310.0,1
863,863,-0.6410717014181995,-0.6,1.0,0.0,468.0,507.0,0.0,0,505.0,1
864,864,-0.8327647801565803,-0.8,1.0,0.0,483.0,874.0,0.0,0,203.0,1
865,865,-0.2461765632101941,-0.2,1.0,0.0,496.0,825.0,0.0,0,549.0,1
866,866,0.8747498088137234,0.9,0.0,0.0,438.0,740.0,0.0,1,372.0,1
867,867,0.35255551988027445,0.4,0.0,0.0,281.0,914.0,0.0,1,215.0,1
868,868,-0.1947524698043125,-0.2,0.0,1.0,440.0,566.0,1.0,0,864.0,1
869,869,-0.23247186419996657,-0.2,0.0,1.0,272.0,978.0,1.0,0,440.0,1
870,870,0.7724560913740383,0.8,1.0,1.0,306.0,993.0,1.0,1,81.0,1
871,871,0.8743313690893441,0.9,1.0,1.0,321.0,806.0,1.0,1,223.0,1
872,872,0.663577490106445,0.7,1.0,1.0,356.0,714.0,1.0,1,530.0,1
873,873,-0.6473373080694347,-0.6,0.0,1.0,331.0,514.0,1.0,0,505.0,1
874,874,-0.742562034217498,-0.7,1.0,0.0,483.0,557.0,0.0,0,390.0,1
875,875,-0.7640278775150278,-0.8,1.0,0.0,402.0,834.0,0.0,0,54.0,1
876,876,-0.8427892173726524,-0.8,1.0,0.0,296.0,759.0,0.0,0,255.0,1
877,877,0.038567382067307476,0.0,0.0,0.0,457.0,628.0,0.0,1,2315.0,1
878,878,-0.07153165578991216,-0.1,1.0,0.0,400.0,968.0,0.0,0,832.0,1
879,879,-0.523687603064676,-0.5,1.0,0.0,331.0,779.0,0.0,0,370.0,1
880,880,-0.4800221031286994,-0.5,0.0,1.0,291.0,763.0,1.0,0,296.0,1
881,881,-0.34215614412208994,-0.3,0.0,1.0,267.0,745.0,1.0,0,258.0,1
882,882,0.7617934361068711,0.8,0.0,0.0,346.0,765.0,0.0,1,179.0,1
883,883,0.08765173912134216,0.1,1.0,1.0,290.0,832.0,1.0,1,978.0,1
884,884,0.799710230640095,0.8,1.0,1.0,297.0,713.0,1.0,1,240.0,1
885,885,0.18680396802472077,0.2,0.0,0.0,324.0,555.0,0.0,1,251.0,1
886,886,0.42499095247241725,0.4,0.0,0.0,344.0,973.0,0.0,1,23.0,1
887,887,0.4748928621749374,0.5,1.0,1.0,421.0,660.0,1.0,1,289.0,1
888,888,-0.6883211508628162,-0.7,0.0,1.0,252.0,779.0,1.0,0,339.0,1
889,889,-0.5025895207520069,-0.5,1.0,0.0,399.0,942.0,0.0,0,109.0,1
890,890,-0.48438155991220083,-0.5,0.0,1.0,296.0,842.0,1.0,0,782.0,1
891,891,-0.7037641685658295,-0.7,0.0,1.0,316.0,647.0,1.0,0,287.0,1
892,892,0.48503278618092616,0.5,1.0,1.0,409.0,781.0,1.0,1,290.0,1
893,893,0.2884472199123368,0.3,0.0,0.0,485.0,926.0,0.0,1,79.0,1
894,894,0.07337279843095701,0.1,0.0,0.0,401.0,750.0,0.0,1,539.0,1
895,895,0.7814067536868513,0.8,1.0,1.0,352.0,915.0,1.0,1,153.0,1
896,896,0.34107558684823946,0.3,0.0,0.0,427.0,774.0,0.0,1,339.0,1
897,897,-0.5581030226991879,-0.6,0.0,1.0,411.0,547.0,1.0,0,392.0,1
898,898,0.3934040910446984,0.4,1.0,1.0,443.0,695.0,1.0,1,302.0,1
899,899,0.5343341646348369,0.5,1.0,1.0,397.0,878.0,1.0,1,195.0,1
900,900,-0.5824103082926755,-0.6,0.0,1.0,334.0,697.0,1.0,0,339.0,1
901,901,0.6676991070584094,0.7,0.0,0.0,296.0,873.0,0.0,1,191.0,1
902,902,-0.09872701196725453,-0.1,0.0,1.0,459.0,969.0,0.0,1,792.0,0
903,903,-0.3925624386169334,-0.4,0.0,1.0,453.0,846.0,1.0,0,311.0,1
904,904,-0.500756325872703,-0.5,1.0,0.0,252.0,566.0,0.0,0,292.0,1
905,905,0.7095251372409109,0.7,0.0,0.0,267.0,950.0,0.0,1,33.0,1
906,906,0.017591754887100408,0.0,1.0,1.0,302.0,627.0,1.0,1,1771.0,1
907,907,0.6085628326885987,0.6,1.0,1.0,466.0,522.0,1.0,1,292.0,1
908,908,-0.10157703585386146,-0.1,1.0,0.0,259.0,637.0,0.0,0,874.0,1
909,909,-0.6629159265327573,-0.7,0.0,1.0,349.0,859.0,1.0,0,182.0,1
910,910,0.2546584199569485,0.3,0.0,0.0,272.0,827.0,0.0,1,331.0,1
911,911,-0.3464910804459632,-0.3,0.0,1.0,465.0,573.0,1.0,0,512.0,1
912,912,0.31022117242246583,0.3,1.0,1.0,366.0,585.0,1.0,1,389.0,1
913,913,-0.8221598402496585,-0.8,1.0,0.0,317.0,968.0,0.0,0,285.0,1
914,914,0.4709907085792696,0.5,0.0,0.0,381.0,603.0,0.0,1,266.0,1
915,915,0.5778011943963463,0.6,1.0,1.0,334.0,573.0,1.0,1,383.0,1
916,916,-0.8726051205058549,-0.9,0.0,1.0,481.0,648.0,1.0,0,261.0,1
917,917,0.7186339555408264,0.7,1.0,1.0,297.0,619.0,1.0,1,394.0,1
918,918,-0.828837014401049,-0.8,1.0,0.0,359.0,562.0,0.0,0,619.0,1
919,919,0.07668637600005823,0.1,0.0,0.0,362.0,649.0,0.0,1,899.0,1
920,920,0.81727019578253,0.8,0.0,0.0,299.0,970.0,0.0,1,131.0,1
921,921,0.39417886874488983,0.4,0.0,0.0,311.0,847.0,0.0,1,312.0,1
922,922,-0.6361432235724602,-0.6,1.0,0.0,370.0,680.0,0.0,0,590.0,1
923,923,0.647609808960042,0.6,0.0,0.0,382.0,526.0,0.0,1,342.0,1
924,924,0.045580506011906,0.0,0.0,0.0,470.0,677.0,0.0,1,433.0,1
925,925,-0.184395242730659,-0.2,1.0,0.0,279.0,671.0,0.0,0,400.0,1
926,926,0.645458963255917,0.6,1.0,1.0,333.0,933.0,1.0,1,224.0,1
927,927,0.3965145446932158,0.4,0.0,0.0,344.0,828.0,0.0,1,248.0,1
928,928,-0.06518081834334444,-0.1,0.0,1.0,479.0,711.0,0.0,1,1130.0,0
929,929,-0.16043129137840562,-0.2,1.0,0.0,460.0,540.0,0.0,0,610.0,1
930,930,-0.500902883842738,-0.5,1.0,0.0,387.0,902.0,0.0,0,151.0,1
931,931,-0.8356716951705402,-0.8,1.0,0.0,435.0,513.0,0.0,0,272.0,1
932,932,-0.6189916856213771,-0.6,1.0,0.0,435.0,748.0,0.0,0,267.0,1
933,933,-0.4435866220640952,-0.4,0.0,1.0,465.0,851.0,1.0,0,484.0,1
934,934,-0.37741910161442915,-0.4,1.0,0.0,453.0,567.0,0.0,0,340.0,1
935,935,0.7474741820751042,0.7,1.0,1.0,453.0,785.0,1.0,1,242.0,1
936,936,-0.1793172083839324,-0.2,1.0,0.0,408.0,936.0,0.0,0,136.0,1
937,937,0.03929398267572837,0.0,0.0,0.0,364.0,585.0,0.0,1,411.0,1
938,938,0.07100720046684883,0.1,1.0,1.0,427.0,942.0,1.0,1,3631.0,1
939,939,0.15170952864152232,0.2,0.0,0.0,260.0,684.0,0.0,1,506.0,1
940,940,0.0928561841557427,0.1,1.0,1.0,481.0,650.0,0.0,0,679.0,0
941,941,0.6027200503844908,0.6,0.0,0.0,350.0,669.0,0.0,1,361.0,1
942,942,-0.47026383339961936,-0.5,0.0,1.0,450.0,609.0,1.0,0,311.0,1
943,943,-0.40827924425731665,-0.4,0.0,1.0,426.0,949.0,1.0,0,435.0,1
944,944,-0.42578399352756624,-0.4,1.0,0.0,303.0,753.0,0.0,0,394.0,1
945,945,0.437613499572196,0.4,0.0,0.0,322.0,821.0,0.0,1,207.0,1
946,946,0.7498331474664098,0.7,1.0,1.0,319.0,529.0,1.0,1,262.0,1
947,947,-0.6830835803391724,-0.7,1.0,0.0,410.0,905.0,0.0,0,85.0,1
948,948,-0.8765642538515348,-0.9,1.0,0.0,493.0,675.0,0.0,0,242.0,1
949,949,-0.0737674140664164,-0.1,1.0,0.0,420.0,970.0,0.0,0,1410.0,1
950,950,0.2800807355050293,0.3,0.0,0.0,308.0,584.0,0.0,1,358.0,1
951,951,0.2575103410193794,0.3,0.0,0.0,330.0,874.0,0.0,1,486.0,1
952,952,-0.03787908883693536,-0.0,1.0,0.0,389.0,879.0,0.0,0,1192.0,1
953,953,0.3465721124378024,0.3,0.0,0.0,421.0,603.0,0.0,1,346.0,1
954,954,-0.2979657890423758,-0.3,1.0,0.0,441.0,714.0,0.0,0,235.0,1
955,955,0.8761240031813909,0.9,0.0,0.0,460.0,835.0,0.0,1,185.0,1
956,956,0.3280588641031047,0.3,0.0,0.0,359.0,949.0,0.0,1,222.0,1
957,957,-0.16953641595906999,-0.2,0.0,1.0,325.0,700.0,1.0,0,1655.0,1
958,958,0.5861609146910564,0.6,1.0,1.0,259.0,773.0,1.0,1,308.0,1
959,959,-0.2002284935738472,-0.2,0.0,1.0,483.0,569.0,0.0,1,778.0,0
960,960,-0.2006830416708577,-0.2,0.0,1.0,293.0,709.0,1.0,0,568.0,1
961,961,0.5064202895780497,0.5,1.0,1.0,486.0,694.0,1.0,1,250.0,1
962,962,-0.5250069676001999,-0.5,0.0,1.0,322.0,855.0,1.0,0,273.0,1
963,963,-0.09541159475697458,-0.1,1.0,0.0,457.0,649.0,0.0,0,1354.0,1
964,964,-0.3847216793824675,-0.4,0.0,1.0,453.0,610.0,1.0,0,587.0,1
965,965,-0.14619231166246371,-0.1,1.0,0.0,383.0,548.0,0.0,0,489.0,1
966,966,-0.46301515291483175,-0.5,1.0,0.0,391.0,939.0,0.0,0,300.0,1
967,967,-0.803989916471385,-0.8,0.0,1.0,412.0,644.0,1.0,0,344.0,1
968,968,0.06636796530035394,0.1,0.0,0.0,369.0,805.0,0.0,1,626.0,1
969,969,0.18848444028821232,0.2,1.0,1.0,433.0,961.0,1.0,1,336.0,1
970,970,-0.7579379739577639,-0.8,1.0,0.0,461.0,656.0,0.0,0,193.0,1
971,971,-0.48544528924262265,-0.5,0.0,1.0,421.0,942.0,1.0,0,697.0,1
972,972,-0.41523716938156324,-0.4,0.0,1.0,463.0,924.0,1.0,0,543.0,1
973,973,-0.6990739535948349,-0.7,1.0,0.0,483.0,859.0,0.0,0,388.0,1
974,974,-0.057638227234729555,-0.1,0.0,1.0,328.0,928.0,1.0,0,464.0,1
975,975,0.14507414062395318,0.1,0.0,0.0,377.0,885.0,0.0,1,428.0,1
976,976,0.477030065341323,0.5,0.0,0.0,264.0,789.0,0.0,1,217.0,1
977,977,-0.7478921314408701,-0.7,0.0,1.0,326.0,768.0,1.0,0,236.0,1
978,978,-0.7697989958550894,-0.8,0.0,1.0,454.0,774.0,1.0,0,202.0,1
979,979,0.8437831639484209,0.8,0.0,0.0,305.0,804.0,0.0,1,161.0,1
980,980,0.08280927752139655,0.1,0.0,0.0,379.0,663.0,0.0,1,688.0,1
981,981,-0.44610378690559993,-0.4,1.0,0.0,323.0,704.0,0.0,0,363.0,1
982,982,0.42518612956540836,0.4,0.0,0.0,374.0,504.0,0.0,1,462.0,1
983,983,-0.6918472967311518,-0.7,0.0,1.0,362.0,802.0,1.0,0,196.0,1
984,984,0.4915596916979229,0.5,1.0,1.0,472.0,835.0,1.0,1,283.0,1
985,985,-0.08602863603827449,-0.1,0.0,1.0,411.0,966.0,1.0,0,3623.0,1
986,986,0.8529047712575176,0.9,0.0,0.0,411.0,518.0,0.0,1,261.0,1
987,987,0.37517715192296286,0.4,1.0,1.0,427.0,676.0,1.0,1,687.0,1
988,988,0.3861096460330572,0.4,0.0,0.0,302.0,508.0,0.0,1,440.0,1
989,989,-0.5814182603302718,-0.6,1.0,0.0,481.0,726.0,0.0,0,273.0,1
990,990,0.8168864502350902,0.8,1.0,1.0,382.0,565.0,1.0,1,513.0,1
991,991,0.44801555934876347,0.4,1.0,1.0,264.0,597.0,1.0,1,439.0,1
992,992,-0.11884690708585999,-0.1,1.0,0.0,382.0,840.0,0.0,0,338.0,1
993,993,0.07816453851716454,0.1,1.0,1.0,386.0,736.0,0.0,0,2388.0,0
994,994,0.10482031223988975,0.1,0.0,0.0,255.0,981.0,0.0,1,404.0,1
995,995,-0.294080228425323,-0.3,1.0,0.0,276.0,644.0,0.0,0,430.0,1
996,996,0.4515927486492991,0.5,0.0,0.0,488.0,702.0,0.0,1,260.0,1
997,997,-0.14042245691248034,-0.1,1.0,0.0,256.0,725.0,0.0,0,479.0,1
998,998,-0.5621903544845746,-0.6,0.0,1.0,376.0,509.0,1.0,0,225.0,1
999,999,-0.8482350210626488,-0.8,0.0,1.0,482.0,603.0,1.0,0,255.0,1
1000,1000,-0.7753375583894205,-0.8,1.0,0.0,327.0,518.0,0.0,0,515.0,1
1001,1001,0.8733572486365625,0.9,1.0,1.0,260.0,837.0,1.0,1,103.0,1
1002,1002,-0.46412003913893446,-0.5,0.0,1.0,438.0,706.0,1.0,0,156.0,1
1003,1003,-0.3067212187025633,-0.3,1.0,0.0,394.0,605.0,0.0,0,771.0,1
1004,1004,0.4546212100706214,0.5,1.0,1.0,306.0,895.0,1.0,1,249.0,1
1005,1005,-0.29107930238314095,-0.3,1.0,0.0,437.0,767.0,0.0,0,626.0,1
1006,1006,-0.6447023944132619,-0.6,0.0,1.0,260.0,876.0,1.0,0,194.0,1
1007,1007,0.5451135474187229,0.5,0.0,0.0,451.0,727.0,0.0,1,122.0,1
1008,1008,-0.5768272602227259,-0.6,1.0,0.0,343.0,714.0,0.0,0,483.0,1
1009,1009,-0.5748723225600036,-0.6,0.0,1.0,331.0,778.0,1.0,0,281.0,1
1010,1010,-0.09827993997926654,-0.1,1.0,0.0,457.0,712.0,0.0,0,1241.0,1
1011,1011,-0.31772714567849747,-0.3,1.0,0.0,271.0,728.0,0.0,0,141.0,1
1012,1012,0.3729785975726073,0.4,0.0,0.0,459.0,925.0,0.0,1,356.0,1
1013,1013,0.5897618883003849,0.6,1.0,1.0,265.0,951.0,1.0,1,284.0,1
1014,1014,-0.24153719833285237,-0.2,1.0,0.0,455.0,861.0,0.0,0,194.0,1
1015,1015,0.5667645482469826,0.6,1.0,1.0,490.0,980.0,1.0,1,170.0,1
1016,1016,0.7380207168707394,0.7,1.0,1.0,334.0,956.0,1.0,1,120.0,1
1017,1017,-0.36456302666124385,-0.4,1.0,0.0,378.0,518.0,0.0,0,614.0,1
1018,1018,-0.29648171393759426,-0.3,1.0,0.0,313.0,648.0,0.0,0,429.0,1
1019,1019,-0.7944537780291543,-0.8,0.0,1.0,277.0,927.0,1.0,0,216.0,1
1020,1020,0.5703767269546568,0.6,1.0,1.0,266.0,529.0,1.0,1,465.0,1
1021,1021,0.023098329076843838,0.0,0.0,0.0,326.0,956.0,0.0,1,458.0,1
1022,1022,-0.7685128942387481,-0.8,0.0,1.0,281.0,853.0,1.0,0,226.0,1
1023,1023,0.11795036990119312,0.1,1.0,1.0,458.0,525.0,1.0,1,677.0,1
1024,1024,-0.46122860082727574,-0.5,0.0,1.0,316.0,935.0,1.0,0,389.0,1
1025,1025,0.41475100602945714,0.4,1.0,1.0,287.0,954.0,1.0,1,109.0,1
1026,1026,0.6114932263295233,0.6,1.0,1.0,282.0,703.0,1.0,1,165.0,1
1027,1027,-0.26427930835279,-0.3,1.0,0.0,476.0,673.0,0.0,0,231.0,1
1028,1028,0.08903481466072061,0.1,0.0,0.0,328.0,924.0,0.0,1,388.0,1
1029,1029,0.2682621485226028,0.3,0.0,0.0,359.0,645.0,0.0,1,356.0,1
1030,1030,-0.5709290387940616,-0.6,1.0,0.0,498.0,506.0,0.0,0,366.0,1
1031,1031,0.42694056375623834,0.4,0.0,0.0,412.0,955.0,0.0,1,83.0,1
1032,1032,-0.8203363012409042,-0.8,1.0,0.0,383.0,510.0,0.0,0,577.0,1
1033,1033,-0.7194326728057463,-0.7,0.0,1.0,456.0,809.0,1.0,0,225.0,1
1034,1034,0.3530648223998386,0.4,0.0,0.0,467.0,679.0,0.0,1,214.0,1
1035,1035,0.5430012522257853,0.5,0.0,0.0,394.0,688.0,0.0,1,318.0,1
1036,1036,0.8473475032798873,0.8,0.0,0.0,291.0,872.0,0.0,1,167.0,1
1037,1037,-0.4147241688398996,-0.4,1.0,0.0,252.0,722.0,0.0,0,206.0,1
1038,1038,0.47747998880260634,0.5,0.0,0.0,376.0,886.0,0.0,1,128.0,1
1039,1039,-0.25117703239895695,-0.3,1.0,0.0,257.0,761.0,0.0,0,312.0,1
1040,1040,0.2086828518931797,0.2,1.0,1.0,380.0,952.0,1.0,1,378.0,1
1041,1041,0.2991155711401824,0.3,1.0,1.0,261.0,573.0,1.0,1,596.0,1
1042,1042,-0.48339795447248024,-0.5,1.0,0.0,447.0,998.0,0.0,0,345.0,1
1043,1043,-0.223670929637793,-0.2,1.0,0.0,256.0,801.0,0.0,0,863.0,1
1044,1044,0.4474751381279577,0.4,0.0,0.0,381.0,923.0,0.0,1,86.0,1
1045,1045,-0.6653521887611938,-0.7,1.0,0.0,316.0,909.0,0.0,0,335.0,1
1046,1046,0.44582132142424136,0.4,0.0,0.0,399.0,697.0,0.0,1,234.0,1
1047,1047,-0.3819513699105437,-0.4,1.0,0.0,267.0,710.0,0.0,0,593.0,1
1048,1048,0.7045775878625294,0.7,0.0,0.0,372.0,913.0,0.0,1,285.0,1
1049,1049,0.3313304978250925,0.3,0.0,0.0,408.0,509.0,0.0,1,523.0,1
1050,1050,-0.042663450993093766,-0.0,1.0,0.0,386.0,931.0,0.0,0,3163.0,1
1051,1051,0.22519946596679052,0.2,0.0,0.0,347.0,728.0,0.0,1,185.0,1
1052,1052,0.542555664944446,0.5,1.0,1.0,498.0,567.0,1.0,1,355.0,1
1053,1053,-0.7340710993048228,-0.7,1.0,0.0,432.0,888.0,0.0,0,140.0,1
1054,1054,-0.013903722705702615,-0.0,1.0,0.0,269.0,582.0,0.0,0,1589.0,1
1055,1055,-0.1926658246476911,-0.2,0.0,1.0,491.0,741.0,1.0,0,638.0,1
1056,1056,0.2563733928276931,0.3,1.0,1.0,429.0,546.0,1.0,1,665.0,1
1057,1057,0.8482637068752527,0.8,0.0,0.0,329.0,740.0,0.0,1,291.0,1
1058,1058,0.005002218132209468,0.0,0.0,0.0,484.0,959.0,0.0,1,457.0,1
1059,1059,-0.639300435827729,-0.6,0.0,1.0,402.0,568.0,1.0,0,580.0,1
1060,1060,0.6334382467840659,0.6,0.0,0.0,372.0,753.0,0.0,1,305.0,1
1061,1061,-0.48847759864123746,-0.5,1.0,0.0,437.0,733.0,0.0,0,530.0,1
1062,1062,-0.8817991381270769,-0.9,0.0,1.0,346.0,510.0,1.0,0,284.0,1
1063,1063,0.2548406084262457,0.3,0.0,0.0,352.0,632.0,0.0,1,236.0,1
1064,1064,0.5871372973588752,0.6,1.0,1.0,470.0,944.0,1.0,1,276.0,1
1065,1065,0.262992891807574,0.3,0.0,0.0,454.0,639.0,0.0,1,327.0,1
1066,1066,-0.8840918505280669,-0.9,0.0,1.0,341.0,790.0,1.0,0,309.0,1
1067,1067,-0.16880946652567452,-0.2,0.0,1.0,377.0,545.0,1.0,0,2728.0,1
1068,1068,-0.8716426512517242,-0.9,0.0,1.0,444.0,541.0,1.0,0,275.0,1
1069,1069,-0.26002871767480207,-0.3,1.0,0.0,367.0,862.0,0.0,0,291.0,1
1070,1070,0.2084151118733294,0.2,0.0,0.0,326.0,718.0,0.0,1,706.0,1
1071,1071,-0.5124335569885348,-0.5,1.0,0.0,402.0,936.0,0.0,0,82.0,1
1072,1072,-0.018863376799672094,-0.0,1.0,0.0,344.0,591.0,0.0,0,2305.0,1
1073,1073,0.07220541216287546,0.1,1.0,1.0,343.0,624.0,0.0,0,1303.0,0
1074,1074,0.5155056221624489,0.5,0.0,0.0,400.0,740.0,0.0,1,100.0,1
1075,1075,-0.7920709069336693,-0.8,1.0,0.0,369.0,618.0,0.0,0,173.0,1
1076,1076,0.04306581225269124,0.0,1.0,1.0,266.0,989.0,1.0,1,2465.0,1
1077,1077,0.5628210782837076,0.6,1.0,1.0,440.0,991.0,1.0,1,139.0,1
1078,1078,-0.6022099769469353,-0.6,1.0,0.0,323.0,707.0,0.0,0,290.0,1
1079,1079,-0.6551134221720796,-0.7,0.0,1.0,321.0,745.0,1.0,0,174.0,1
1080,1080,-0.3356719314865243,-0.3,1.0,0.0,403.0,581.0,0.0,0,716.0,1
1081,1081,-0.6141464637422253,-0.6,0.0,1.0,300.0,553.0,1.0,0,437.0,1
1082,1082,0.8084419786872993,0.8,1.0,1.0,307.0,636.0,1.0,1,387.0,1
1083,1083,0.6132553565772693,0.6,1.0,1.0,253.0,627.0,1.0,1,340.0,1
1084,1084,0.6872187172458405,0.7,0.0,0.0,449.0,783.0,0.0,1,268.0,1
1085,1085,0.059041245106036366,0.1,0.0,0.0,417.0,801.0,0.0,1,312.0,1
1086,1086,-0.6950642536266927,-0.7,1.0,0.0,352.0,832.0,0.0,0,156.0,1
1087,1087,-0.4311156883801133,-0.4,0.0,1.0,341.0,694.0,1.0,0,315.0,1
1088,1088,-0.6419351701687551,-0.6,0.0,1.0,453.0,866.0,1.0,0,281.0,1
1089,1089,0.010200766554182783,0.0,1.0,1.0,366.0,953.0,0.0,0,711.0,0
1090,1090,0.008371990989331834,0.0,1.0,1.0,275.0,900.0,0.0,0,2275.0,0
1091,1091,0.17862076307468067,0.2,1.0,1.0,306.0,552.0,1.0,1,852.0,1
1092,1092,0.39093029935083734,0.4,1.0,1.0,395.0,554.0,1.0,1,751.0,1
1093,1093,0.05955102689227121,0.1,1.0,1.0,313.0,873.0,1.0,1,964.0,1
1094,1094,0.7954773001811749,0.8,0.0,0.0,282.0,591.0,0.0,1,227.0,1
1095,1095,0.16738466434362487,0.2,0.0,0.0,288.0,682.0,0.0,1,390.0,1
1096,1096,-0.3177967312504494,-0.3,0.0,1.0,294.0,578.0,1.0,0,778.0,1
1097,1097,0.6673635492052242,0.7,1.0,1.0,277.0,899.0,1.0,1,294.0,1
1098,1098,0.29575040573999456,0.3,1.0,1.0,459.0,777.0,1.0,1,274.0,1
1099,1099,-0.2161659387877043,-0.2,1.0,0.0,347.0,550.0,0.0,0,663.0,1
1100,1100,-0.5249436253769956,-0.5,0.0,1.0,413.0,795.0,1.0,0,192.0,1
1101,1101,-0.6557587303517929,-0.7,0.0,1.0,484.0,710.0,1.0,0,146.0,1
1102,1102,0.43512432381591115,0.4,0.0,0.0,363.0,985.0,0.0,1,182.0,1
1103,1103,0.8695669373304146,0.9,1.0,1.0,331.0,856.0,1.0,1,293.0,1
1104,1104,0.4088133702645175,0.4,0.0,0.0,278.0,798.0,0.0,1,184.0,1
1105,1105,-0.5847726687330932,-0.6,1.0,0.0,375.0,731.0,0.0,0,434.0,1
1106,1106,0.3785905311312544,0.4,0.0,0.0,489.0,698.0,0.0,1,173.0,1
1107,1107,0.6338639928360518,0.6,1.0,1.0,342.0,709.0,1.0,1,379.0,1
1108,1108,0.3985293815574723,0.4,0.0,0.0,290.0,961.0,0.0,1,429.0,1
1109,1109,0.34140063326875036,0.3,0.0,0.0,397.0,627.0,0.0,1,356.0,1
1110,1110,0.4869845874572162,0.5,0.0,0.0,362.0,532.0,0.0,1,516.0,1
1111,1111,-0.5301372020412422,-0.5,1.0,0.0,293.0,841.0,0.0,0,286.0,1
1112,1112,0.36858445878913504,0.4,0.0,0.0,272.0,985.0,0.0,1,283.0,1
1113,1113,-0.30787871295421143,-0.3,0.0,1.0,421.0,732.0,1.0,0,217.0,1
1114,1114,-0.43403964584959137,-0.4,0.0,1.0,422.0,509.0,1.0,0,589.0,1
1115,1115,0.3673353886592502,0.4,0.0,0.0,294.0,849.0,0.0,1,317.0,1
1116,1116,0.34911925851627534,0.3,1.0,1.0,336.0,551.0,1.0,1,743.0,1
1117,1117,-0.16342688827106922,-0.2,1.0,0.0,462.0,969.0,0.0,0,189.0,1
1118,1118,-0.0056875147335266885,-0.0,1.0,0.0,494.0,908.0,0.0,0,2958.0,1
1119,1119,0.16898406871754623,0.2,0.0,0.0,420.0,941.0,0.0,1,389.0,1
1120,1120,0.718120783725888,0.7,0.0,0.0,482.0,781.0,0.0,1,197.0,1
1121,1121,0.658305603647617,0.7,0.0,0.0,383.0,869.0,0.0,1,168.0,1
1122,1122,0.025193854557134854,0.0,1.0,1.0,374.0,601.0,1.0,1,695.0,1
1123,1123,0.3302175556085124,0.3,1.0,1.0,433.0,796.0,1.0,1,321.0,1
1124,1124,-0.4985566433941429,-0.5,0.0,1.0,476.0,559.0,1.0,0,175.0,1
1125,1125,0.4206244993907394,0.4,1.0,1.0,371.0,928.0,1.0,1,301.0,1
1126,1126,0.12248354218368285,0.1,1.0,1.0,404.0,788.0,1.0,1,738.0,1
1127,1127,0.64959791265787,0.6,0.0,0.0,411.0,986.0,0.0,1,213.0,1
1128,1128,-0.16765438298988922,-0.2,1.0,0.0,350.0,772.0,0.0,0,248.0,1
1129,1129,-0.07080527543510495,-0.1,0.0,1.0,321.0,981.0,0.0,1,928.0,0
1130,1130,0.6725805298428574,0.7,0.0,0.0,432.0,749.0,0.0,1,199.0,1
1131,1131,-0.15711888795572548,-0.2,0.0,1.0,497.0,962.0,1.0,0,501.0,1
1132,1132,-0.8212334227514683,-0.8,1.0,0.0,369.0,752.0,0.0,0,399.0,1
1133,1133,-0.49030427617072514,-0.5,0.0,1.0,291.0,523.0,1.0,0,616.0,1
1134,1134,0.4052491778308579,0.4,1.0,1.0,446.0,703.0,1.0,1,151.0,1
1135,1135,-0.11959961112596196,-0.1,1.0,0.0,299.0,664.0,0.0,0,497.0,1
1136,1136,0.5357830460122034,0.5,0.0,0.0,366.0,882.0,0.0,1,192.0,1
1137,1137,0.358646381949007,0.4,0.0,0.0,266.0,942.0,0.0,1,252.0,1
1138,1138,-0.5531131178952634,-0.6,1.0,0.0,260.0,816.0,0.0,0,254.0,1
1139,1139,-0.41595671196054573,-0.4,0.0,1.0,362.0,748.0,1.0,0,270.0,1
1140,1140,-0.8267455987293411,-0.8,0.0,1.0,336.0,680.0,1.0,0,164.0,1
1141,1141,-0.20048869070104003,-0.2,1.0,0.0,274.0,716.0,0.0,0,470.0,1
1142,1142,0.7654031972344467,0.8,0.0,0.0,478.0,698.0,0.0,1,224.0,1
1143,1143,-0.8094383693742301,-0.8,0.0,1.0,429.0,899.0,1.0,0,132.0,1
1144,1144,0.629143633195015,0.6,0.0,0.0,381.0,669.0,0.0,1,220.0,1
1145,1145,0.7834548237520563,0.8,1.0,1.0,431.0,958.0,1.0,1,151.0,1
1146,1146,-0.014343833807289208,-0.0,0.0,1.0,399.0,727.0,0.0,1,2694.0,0
1147,1147,-0.20881301273871578,-0.2,1.0,0.0,397.0,555.0,0.0,0,458.0,1
1148,1148,0.021956641691961543,0.0,0.0,0.0,403.0,818.0,0.0,1,839.0,1
1149,1149,0.5206875380189627,0.5,1.0,1.0,409.0,754.0,1.0,1,337.0,1
1150,1150,-0.17581458255194282,-0.2,0.0,1.0,436.0,552.0,1.0,0,882.0,1
1151,1151,-0.2048294087232989,-0.2,1.0,0.0,356.0,614.0,0.0,0,320.0,1
1152,1152,0.5113938698650472,0.5,0.0,0.0,476.0,985.0,0.0,1,89.0,1
1153,1153,-0.5499282647994832,-0.5,0.0,1.0,378.0,699.0,1.0,0,323.0,1
1154,1154,-0.5445316272573104,-0.5,1.0,0.0,273.0,580.0,0.0,0,407.0,1
1155,1155,0.6052845378533879,0.6,0.0,0.0,394.0,511.0,0.0,1,335.0,1
1156,1156,0.4622166340086219,0.5,0.0,0.0,359.0,688.0,0.0,1,363.0,1
1157,1157,0.21402516858942688,0.2,0.0,0.0,284.0,889.0,0.0,1,247.0,1
1158,1158,-0.1634377322455871,-0.2,0.0,1.0,392.0,962.0,1.0,0,436.0,1
1159,1159,-0.4943662676837145,-0.5,0.0,1.0,372.0,956.0,0.0,1,-28.0,0
1160,1160,-0.4958339718250971,-0.5,1.0,0.0,253.0,807.0,0.0,0,380.0,1
1161,1161,0.7506722000989857,0.8,0.0,0.0,301.0,745.0,0.0,1,164.0,1
1162,1162,-0.6592510975626837,-0.7,1.0,0.0,486.0,627.0,0.0,0,367.0,1
1163,1163,0.3486365356637674,0.3,1.0,1.0,421.0,688.0,1.0,1,411.0,1
1164,1164,-0.8823760955908323,-0.9,1.0,0.0,392.0,526.0,0.0,0,382.0,1
1165,1165,-0.5262259536447605,-0.5,1.0,0.0,345.0,769.0,0.0,0,336.0,1
1166,1166,0.8558960823968175,0.9,0.0,0.0,271.0,930.0,0.0,1,189.0,1
1167,1167,0.8159117983866037,0.8,0.0,0.0,488.0,999.0,0.0,1,163.0,1
1168,1168,-0.3560205947739089,-0.4,1.0,0.0,276.0,899.0,0.0,0,235.0,1
1169,1169,0.29488289578900695,0.3,1.0,1.0,250.0,967.0,1.0,1,783.0,1
1170,1170,-0.03540004398259011,-0.0,0.0,1.0,257.0,662.0,1.0,0,771.0,1
1171,1171,0.09545989080815254,0.1,0.0,0.0,322.0,803.0,0.0,1,215.0,1
1172,1172,-0.7106753549059639,-0.7,0.0,1.0,376.0,515.0,1.0,0,339.0,1
1173,1173,-0.620816084587968,-0.6,0.0,1.0,494.0,696.0,1.0,0,180.0,1
1174,1174,0.1734709957209647,0.2,0.0,0.0,487.0,871.0,0.0,1,722.0,1
1175,1175,0.7580990782300493,0.8,1.0,1.0,385.0,638.0,1.0,1,147.0,1
1176,1176,-0.5390161927596548,-0.5,0.0,1.0,295.0,664.0,1.0,0,321.0,1
1177,1177,-0.8554083303580684,-0.9,1.0,0.0,377.0,574.0,0.0,0,399.0,1
1178,1178,0.3585229053410067,0.4,0.0,0.0,387.0,541.0,0.0,1,662.0,1
1179,1179,-0.7998630101056088,-0.8,1.0,0.0,341.0,988.0,0.0,0,321.0,1
1180,1180,-0.8449153586035155,-0.8,1.0,0.0,451.0,753.0,0.0,0,206.0,1
1181,1181,0.7523140486419423,0.8,1.0,1.0,347.0,956.0,1.0,1,137.0,1
1182,1182,0.3150288738046846,0.3,1.0,1.0,280.0,829.0,1.0,1,611.0,1
1183,1183,-0.7839800174116379,-0.8,0.0,1.0,480.0,556.0,1.0,0,444.0,1
1184,1184,0.1313879523526974,0.1,1.0,1.0,295.0,956.0,1.0,1,239.0,1
1185,1185,-0.6925469036914231,-0.7,1.0,0.0,297.0,658.0,0.0,0,275.0,1
1186,1186,0.3540924318616111,0.4,1.0,1.0,478.0,758.0,1.0,1,704.0,1
1187,1187,-0.6870547527344824,-0.7,1.0,0.0,388.0,810.0,0.0,0,182.0,1
1188,1188,0.006271372640430872,0.0,1.0,1.0,377.0,751.0,0.0,0,1532.0,0
1189,1189,-0.3115696718427854,-0.3,1.0,0.0,325.0,794.0,0.0,0,411.0,1
1190,1190,0.47501539905941514,0.5,0.0,0.0,460.0,680.0,0.0,1,320.0,1
1191,1191,-0.015412272395036952,-0.0,1.0,0.0,496.0,836.0,0.0,0,668.0,1
1192,1192,-0.0054241715204348395,-0.0,0.0,1.0,264.0,899.0,0.0,1,427.0,0
1193,1193,-0.4736050261415653,-0.5,0.0,1.0,292.0,769.0,1.0,0,249.0,1
1194,1194,0.234337354962607,0.2,1.0,1.0,421.0,990.0,1.0,1,2079.0,1
1195,1195,0.7243174063589218,0.7,0.0,0.0,381.0,939.0,0.0,1,210.0,1
1196,1196,-0.14646984857641565,-0.1,0.0,1.0,282.0,753.0,0.0,1,425.0,0
1197,1197,-0.4792626434898866,-0.5,0.0,1.0,363.0,911.0,1.0,0,256.0,1
1198,1198,-0.11255569740751892,-0.1,0.0,1.0,294.0,766.0,0.0,1,720.0,0
1199,1199,-0.752037847697077,-0.8,0.0,1.0,390.0,728.0,1.0,0,162.0,1
1200,1200,-0.6972873886411168,-0.7,1.0,0.0,483.0,750.0,0.0,0,137.0,1
1201,1201,-0.5994895670330895,-0.6,0.0,1.0,392.0,801.0,1.0,0,347.0,1
1202,1202,0.024128595284783505,0.0,0.0,0.0,356.0,521.0,0.0,1,373.0,1
1203,1203,0.46040679911161086,0.5,1.0,1.0,349.0,828.0,1.0,1,293.0,1
1204,1204,-0.3369998356472863,-0.3,1.0,0.0,344.0,652.0,0.0,0,634.0,1
1205,1205,-0.692306254935248,-0.7,1.0,0.0,398.0,578.0,0.0,0,294.0,1
1206,1206,0.6863472518125625,0.7,1.0,1.0,466.0,971.0,1.0,1,193.0,1
1207,1207,-0.4811260124170179,-0.5,0.0,1.0,458.0,649.0,1.0,0,353.0,1
1208,1208,-0.20589706588322487,-0.2,1.0,0.0,392.0,872.0,0.0,0,376.0,1
1209,1209,-0.5556483033404515,-0.6,0.0,1.0,362.0,955.0,1.0,0,463.0,1
1210,1210,0.6878913741734397,0.7,0.0,0.0,325.0,755.0,0.0,1,190.0,1
1211,1211,0.1874347982003951,0.2,1.0,1.0,427.0,973.0,1.0,1,660.0,1
1212,1212,0.201464582694442,0.2,1.0,1.0,363.0,887.0,1.0,1,960.0,1
1213,1213,-0.6114258214391153,-0.6,1.0,0.0,445.0,841.0,0.0,0,224.0,1
1214,1214,0.020153345819425184,0.0,1.0,1.0,468.0,785.0,0.0,0,1427.0,0
1215,1215,0.8056509342430126,0.8,1.0,1.0,471.0,656.0,1.0,1,123.0,1
1216,1216,0.5755220485400224,0.6,0.0,0.0,335.0,733.0,0.0,1,252.0,1
1217,1217,0.5347342406453129,0.5,0.0,0.0,432.0,854.0,0.0,1,154.0,1
1218,1218,-0.4905849938295232,-0.5,1.0,0.0,320.0,797.0,0.0,0,353.0,1
1219,1219,0.062021756399990635,0.1,0.0,0.0,261.0,929.0,0.0,1,150.0,1
1220,1220,0.5899038217417424,0.6,1.0,1.0,311.0,853.0,1.0,1,266.0,1
1221,1221,-0.022593111122627407,-0.0,0.0,1.0,262.0,707.0,0.0,1,371.0,0
1222,1222,-0.21017472890806832,-0.2,0.0,1.0,396.0,948.0,1.0,0,256.0,1
1223,1223,0.04903793023972136,0.0,0.0,0.0,431.0,895.0,0.0,1,674.0,1
1224,1224,-0.7476525199052082,-0.7,1.0,0.0,463.0,742.0,0.0,0,865.0,1
1225,1225,0.1788491118853227,0.2,0.0,0.0,499.0,616.0,0.0,1,535.0,1
1226,1226,-0.7971162033946868,-0.8,0.0,1.0,271.0,597.0,1.0,0,302.0,1
1227,1227,-0.5024695712553662,-0.5,1.0,0.0,404.0,620.0,0.0,0,436.0,1
1228,1228,0.3278152561000739,0.3,1.0,1.0,273.0,832.0,1.0,1,255.0,1
1229,1229,0.7336674805411959,0.7,0.0,0.0,410.0,781.0,0.0,1,239.0,1
1230,1230,0.22197777910197203,0.2,1.0,1.0,430.0,976.0,1.0,1,864.0,1
1231,1231,-0.059284170031780326,-0.1,0.0,1.0,357.0,770.0,0.0,1,483.0,0
1232,1232,0.5138159079353996,0.5,0.0,0.0,347.0,783.0,0.0,1,280.0,1
1233,1233,0.5702611169745974,0.6,0.0,0.0,368.0,674.0,0.0,1,148.0,1
1234,1234,-0.018855392744764332,-0.0,1.0,0.0,355.0,904.0,0.0,0,491.0,1
1235,1235,-0.8076540750536988,-0.8,1.0,0.0,494.0,871.0,0.0,0,185.0,1
1236,1236,-0.787423496409621,-0.8,0.0,1.0,330.0,994.0,1.0,0,236.0,1
1237,1237,-0.2296101960620176,-0.2,0.0,1.0,420.0,765.0,1.0,0,655.0,1
1238,1238,0.8180937708203454,0.8,1.0,1.0,461.0,823.0,1.0,1,166.0,1
1239,1239,0.40246863155028667,0.4,0.0,0.0,439.0,562.0,0.0,1,629.0,1
1240,1240,0.48068182778450186,0.5,0.0,0.0,362.0,956.0,0.0,1,72.0,1
1241,1241,-0.8334333844699174,-0.8,0.0,1.0,314.0,699.0,1.0,0,257.0,1
1242,1242,0.24825874736753561,0.2,1.0,1.0,282.0,627.0,1.0,1,961.0,1
1243,1243,0.09604414877830203,0.1,0.0,0.0,397.0,859.0,0.0,1,204.0,1
1244,1244,-0.641996960549188,-0.6,0.0,1.0,334.0,752.0,1.0,0,164.0,1
1245,1245,0.4102178905227595,0.4,0.0,0.0,343.0,937.0,0.0,1,50.0,1
1246,1246,0.5049813860165285,0.5,1.0,1.0,333.0,720.0,1.0,1,307.0,1
1247,1247,0.3854979723906612,0.4,0.0,0.0,286.0,822.0,0.0,1,242.0,1
1248,1248,-0.6067640107162495,-0.6,0.0,1.0,319.0,829.0,1.0,0,372.0,1
1249,1249,0.3663378021575153,0.4,0.0,0.0,326.0,712.0,0.0,1,282.0,1
1250,1250,0.07870863430994324,0.1,0.0,0.0,260.0,946.0,0.0,1,474.0,1
1251,1251,-0.8511080775779674,-0.9,0.0,1.0,325.0,607.0,1.0,0,338.0,1
1252,1252,-0.14862035336731483,-0.1,0.0,1.0,432.0,896.0,1.0,0,962.0,1
1253,1253,-0.8045670027894196,-0.8,1.0,0.0,355.0,985.0,0.0,0,150.0,1
1254,1254,-0.5573594622188809,-0.6,0.0,1.0,477.0,794.0,1.0,0,509.0,1
1255,1255,-0.6400742042695435,-0.6,1.0,0.0,287.0,673.0,0.0,0,340.0,1
1256,1256,0.6473534878166106,0.6,0.0,0.0,410.0,875.0,0.0,1,205.0,1
1257,1257,0.3570714665050524,0.4,1.0,1.0,431.0,934.0,1.0,1,535.0,1
1258,1258,0.6031299826761788,0.6,0.0,0.0,426.0,810.0,0.0,1,184.0,1
1259,1259,0.8227836124037898,0.8,1.0,1.0,464.0,735.0,1.0,1,241.0,1
1260,1260,-0.2023280082682175,-0.2,0.0,1.0,436.0,718.0,1.0,0,686.0,1
1261,1261,-0.07720384327133734,-0.1,0.0,1.0,273.0,877.0,1.0,0,3850.0,1
1262,1262,-0.1652930390791736,-0.2,0.0,1.0,254.0,777.0,1.0,0,669.0,1
1263,1263,-0.5339659810884618,-0.5,0.0,1.0,281.0,507.0,1.0,0,692.0,1
1264,1264,0.05435789692012194,0.1,1.0,1.0,319.0,645.0,1.0,1,556.0,1
1265,1265,-0.40388460667667314,-0.4,0.0,1.0,478.0,720.0,1.0,0,342.0,1
1266,1266,-0.4760078197951319,-0.5,0.0,1.0,405.0,744.0,1.0,0,211.0,1
1267,1267,0.3145127645963727,0.3,0.0,0.0,317.0,816.0,0.0,1,347.0,1
1268,1268,-0.04315513429220674,-0.0,1.0,0.0,350.0,876.0,0.0,0,1134.0,1
1269,1269,0.8411966484377525,0.8,0.0,0.0,308.0,870.0,0.0,1,82.0,1
1270,1270,-0.025447706530213998,-0.0,1.0,0.0,418.0,852.0,0.0,0,2390.0,1
1271,1271,0.6937536730794885,0.7,1.0,1.0,250.0,593.0,1.0,1,327.0,1
1272,1272,0.018593387098436054,0.0,1.0,1.0,296.0,574.0,0.0,0,2820.0,0
1273,1273,0.6445730183704844,0.6,1.0,1.0,369.0,923.0,1.0,1,348.0,1
1274,1274,-0.12049408314760157,-0.1,0.0,1.0,333.0,552.0,1.0,0,2165.0,1
1275,1275,0.794243049620304,0.8,1.0,1.0,327.0,694.0,1.0,1,199.0,1
1276,1276,0.5127014612354647,0.5,0.0,0.0,424.0,694.0,0.0,1,212.0,1
1277,1277,0.7019094284712434,0.7,0.0,0.0,305.0,711.0,0.0,1,364.0,1
1278,1278,-0.7408920098348699,-0.7,1.0,0.0,364.0,631.0,0.0,0,505.0,1
1279,1279,-0.09563589973998254,-0.1,0.0,1.0,459.0,525.0,0.0,1,606.0,0
1280,1280,0.7330465331716766,0.7,1.0,1.0,286.0,622.0,1.0,1,302.0,1
1281,1281,0.730824887377988,0.7,1.0,1.0,443.0,618.0,1.0,1,339.0,1
1282,1282,0.5177270361264158,0.5,0.0,0.0,440.0,653.0,0.0,1,297.0,1
1283,1283,-0.27434415670840373,-0.3,1.0,0.0,334.0,915.0,0.0,0,321.0,1
1284,1284,-0.5078838047148864,-0.5,0.0,1.0,428.0,708.0,1.0,0,264.0,1
1285,1285,-0.17595783227270556,-0.2,0.0,1.0,489.0,623.0,1.0,0,818.0,1
1286,1286,-0.04101349081255612,-0.0,1.0,0.0,363.0,619.0,0.0,0,758.0,1
1287,1287,0.3551906186534993,0.4,0.0,0.0,388.0,818.0,0.0,1,294.0,1
1288,1288,-0.47360157770654254,-0.5,0.0,1.0,476.0,689.0,1.0,0,605.0,1
1289,1289,0.5307041884509177,0.5,0.0,0.0,498.0,631.0,0.0,1,191.0,1
1290,1290,-0.7195789253473608,-0.7,1.0,0.0,324.0,556.0,0.0,0,480.0,1
1291,1291,0.827632033836393,0.8,0.0,0.0,494.0,680.0,0.0,1,276.0,1
1292,1292,0.15614530309719366,0.2,0.0,0.0,319.0,675.0,0.0,1,276.0,1
1293,1293,-0.3508734192364199,-0.4,1.0,0.0,414.0,943.0,0.0,0,243.0,1
1294,1294,-0.741556803654968,-0.7,1.0,0.0,378.0,583.0,0.0,0,249.0,1
1295,1295,0.24019259439159513,0.2,0.0,0.0,399.0,969.0,0.0,1,142.0,1
1296,1296,-0.1752190363735856,-0.2,0.0,1.0,356.0,738.0,1.0,0,446.0,1
1297,1297,0.5843276448981208,0.6,0.0,0.0,342.0,595.0,0.0,1,313.0,1
1298,1298,0.8806077436420113,0.9,1.0,1.0,398.0,686.0,1.0,1,176.0,1
1299,1299,-0.7895095975967744,-0.8,1.0,0.0,312.0,603.0,0.0,0,305.0,1
1300,1300,0.31449519490419797,0.3,1.0,1.0,472.0,657.0,1.0,1,441.0,1
1301,1301,-0.28899569161982563,-0.3,1.0,0.0,479.0,922.0,0.0,0,109.0,1
1302,1302,-0.2611723685586753,-0.3,1.0,0.0,486.0,514.0,0.0,0,610.0,1
1303,1303,-0.2472575206221087,-0.2,1.0,0.0,467.0,506.0,0.0,0,667.0,1
1304,1304,-0.025602468411185852,-0.0,0.0,1.0,451.0,614.0,0.0,1,995.0,0
1305,1305,-0.7782992371037571,-0.8,0.0,1.0,404.0,706.0,1.0,0,220.0,1
1306,1306,0.3252372372017859,0.3,1.0,1.0,427.0,765.0,1.0,1,448.0,1
1307,1307,0.3295229403337293,0.3,1.0,1.0,352.0,684.0,1.0,1,294.0,1
1308,1308,-0.7381045824300135,-0.7,0.0,1.0,394.0,728.0,1.0,0,278.0,1
1309,1309,0.03670398582561518,0.0,0.0,0.0,434.0,589.0,0.0,1,1627.0,1
1310,1310,-0.8258872064721998,-0.8,0.0,1.0,276.0,779.0,1.0,0,275.0,1
1311,1311,0.22843070257336973,0.2,1.0,1.0,337.0,832.0,1.0,1,2471.0,1
1312,1312,0.647669862699258,0.6,1.0,1.0,420.0,695.0,1.0,1,275.0,1
1313,1313,0.08659434601032834,0.1,0.0,0.0,402.0,617.0,0.0,1,371.0,1
1314,1314,0.17085859392467417,0.2,0.0,0.0,445.0,954.0,0.0,1,201.0,1
1315,1315,-0.5471126895077356,-0.5,0.0,1.0,382.0,666.0,1.0,0,252.0,1
1316,1316,-0.8843576269485761,-0.9,0.0,1.0,368.0,963.0,1.0,0,139.0,1
1317,1317,-0.39297810749555784,-0.4,1.0,0.0,434.0,669.0,0.0,0,397.0,1
1318,1318,0.11859500774951515,0.1,0.0,0.0,416.0,594.0,0.0,1,580.0,1
1319,1319,0.7146302176534233,0.7,0.0,0.0,353.0,758.0,0.0,1,149.0,1
1320,1320,0.8423483294135455,0.8,1.0,1.0,444.0,917.0,1.0,1,159.0,1
1321,1321,0.7695082575405251,0.8,0.0,0.0,320.0,630.0,0.0,1,220.0,1
1322,1322,-0.3086433797574043,-0.3,0.0,1.0,452.0,793.0,1.0,0,275.0,1
1323,1323,-0.28685263931588,-0.3,0.0,1.0,360.0,653.0,1.0,0,957.0,1
1324,1324,-0.5493175123633802,-0.5,0.0,1.0,309.0,901.0,1.0,0,170.0,1
1325,1325,0.15203644520799664,0.2,1.0,1.0,381.0,950.0,1.0,1,409.0,1
1326,1326,0.7193120540036354,0.7,0.0,0.0,318.0,560.0,0.0,1,262.0,1
1327,1327,-0.6012964361347645,-0.6,0.0,1.0,443.0,678.0,1.0,0,339.0,1
1328,1328,0.7836821362629255,0.8,0.0,0.0,420.0,816.0,0.0,1,114.0,1
1329,1329,-0.40370937409038615,-0.4,0.0,1.0,375.0,700.0,1.0,0,285.0,1
1330,1330,-0.4886327169322175,-0.5,0.0,1.0,483.0,648.0,1.0,0,329.0,1
1331,1331,0.03036145803040824,0.0,0.0,0.0,339.0,761.0,0.0,1,700.0,1
1332,1332,-0.3362470106403612,-0.3,0.0,1.0,413.0,865.0,1.0,0,432.0,1
1333,1333,-0.25675289667042167,-0.3,1.0,0.0,428.0,500.0,0.0,0,502.0,1
1334,1334,0.453355856918391,0.5,1.0,1.0,377.0,778.0,1.0,1,285.0,1
1335,1335,0.5313230287404082,0.5,1.0,1.0,409.0,547.0,1.0,1,444.0,1
1336,1336,-0.5059690314523979,-0.5,1.0,0.0,479.0,752.0,0.0,0,279.0,1
1337,1337,-0.22906736792159466,-0.2,1.0,0.0,435.0,814.0,0.0,0,671.0,1
1338,1338,-0.23303781355846653,-0.2,0.0,1.0,277.0,786.0,1.0,0,187.0,1
1339,1339,-0.22600416259858414,-0.2,0.0,1.0,289.0,829.0,1.0,0,482.0,1
1340,1340,-0.2897619108902303,-0.3,1.0,0.0,392.0,885.0,0.0,0,333.0,1
1341,1341,-0.8783782961763841,-0.9,0.0,1.0,350.0,502.0,1.0,0,308.0,1
1342,1342,-0.49477908219092387,-0.5,1.0,0.0,365.0,883.0,0.0,0,332.0,1
1343,1343,-0.3933112633132275,-0.4,1.0,0.0,283.0,785.0,0.0,0,482.0,1
1344,1344,-0.6763969268810559,-0.7,0.0,1.0,253.0,566.0,1.0,0,261.0,1
1345,1345,0.5652554104107236,0.6,0.0,0.0,395.0,583.0,0.0,1,352.0,1
1346,1346,0.33779981867480735,0.3,1.0,1.0,284.0,551.0,1.0,1,525.0,1
1347,1347,0.7510888672812658,0.8,1.0,1.0,266.0,607.0,1.0,1,217.0,1
1348,1348,-0.8439499758828914,-0.8,0.0,1.0,404.0,791.0,1.0,0,215.0,1
1349,1349,-0.5440666502958411,-0.5,1.0,0.0,255.0,546.0,0.0,0,619.0,1
1350,1350,-0.6884833673281038,-0.7,0.0,1.0,440.0,533.0,1.0,0,307.0,1
1351,1351,-0.3124772626635395,-0.3,1.0,0.0,479.0,836.0,0.0,0,215.0,1
1352,1352,0.09183537705326428,0.1,1.0,1.0,485.0,785.0,1.0,1,2500.0,1
1353,1353,-0.5672332150218355,-0.6,1.0,0.0,492.0,962.0,0.0,0,276.0,1
1354,1354,-0.8653472103579155,-0.9,1.0,0.0,361.0,687.0,0.0,0,192.0,1
1355,1355,0.73375651667286,0.7,0.0,0.0,277.0,880.0,0.0,1,113.0,1
1356,1356,0.8448830230481766,0.8,1.0,1.0,491.0,931.0,1.0,1,138.0,1
1357,1357,-0.5373807788950113,-0.5,0.0,1.0,389.0,726.0,1.0,0,135.0,1
1358,1358,-0.1365308041982609,-0.1,0.0,1.0,491.0,885.0,0.0,1,454.0,0
1359,1359,0.25625670622147745,0.3,0.0,0.0,384.0,852.0,0.0,1,364.0,1
1360,1360,-0.3731343363179801,-0.4,1.0,0.0,349.0,873.0,0.0,0,478.0,1
1361,1361,-0.6650974583349409,-0.7,1.0,0.0,259.0,901.0,0.0,0,260.0,1
1362,1362,0.6327489570934451,0.6,1.0,1.0,313.0,672.0,1.0,1,205.0,1
1363,1363,0.07309741534479441,0.1,1.0,1.0,439.0,987.0,0.0,0,294.0,0
1364,1364,0.8249125138860046,0.8,0.0,0.0,250.0,828.0,0.0,1,172.0,1
1365,1365,0.8000250239353578,0.8,0.0,0.0,409.0,660.0,0.0,1,181.0,1
1366,1366,-0.07802271838712316,-0.1,1.0,0.0,302.0,566.0,0.0,0,1522.0,1
1367,1367,-0.5043557541289818,-0.5,0.0,1.0,457.0,934.0,1.0,0,319.0,1
1368,1368,-0.3520336796807352,-0.4,0.0,1.0,316.0,895.0,1.0,0,619.0,1
1369,1369,-0.1812075302765963,-0.2,1.0,0.0,414.0,850.0,0.0,0,696.0,1
1370,1370,0.12654608921740784,0.1,1.0,1.0,499.0,826.0,1.0,1,605.0,1
1371,1371,-0.34038902825972595,-0.3,1.0,0.0,406.0,644.0,0.0,0,370.0,1
1372,1372,0.5350417242077076,0.5,1.0,1.0,287.0,878.0,1.0,1,625.0,1
1373,1373,0.43813602942491225,0.4,0.0,0.0,253.0,708.0,0.0,1,509.0,1
1374,1374,0.7615667477572233,0.8,1.0,1.0,380.0,596.0,1.0,1,234.0,1
1375,1375,-0.17942453496245847,-0.2,1.0,0.0,377.0,624.0,0.0,0,649.0,1
1376,1376,-0.8775665043082007,-0.9,1.0,0.0,393.0,658.0,0.0,0,299.0,1
1377,1377,0.602653747897168,0.6,0.0,0.0,455.0,648.0,0.0,1,277.0,1
1378,1378,0.33322496115136435,0.3,0.0,0.0,465.0,598.0,0.0,1,387.0,1
1379,1379,-0.7118353940770066,-0.7,0.0,1.0,429.0,960.0,1.0,0,141.0,1
1380,1380,-0.1834475643239607,-0.2,1.0,0.0,449.0,863.0,0.0,0,638.0,1
1381,1381,-0.17169475780896992,-0.2,0.0,1.0,269.0,647.0,1.0,0,754.0,1
1382,1382,0.540755850217386,0.5,0.0,0.0,288.0,621.0,0.0,1,611.0,1
1383,1383,-0.2719726865094778,-0.3,1.0,0.0,373.0,889.0,0.0,0,628.0,1
1384,1384,-0.08781860124959107,-0.1,1.0,0.0,395.0,570.0,0.0,0,2415.0,1
1385,1385,0.36389205867730745,0.4,0.0,0.0,417.0,985.0,0.0,1,638.0,1
1386,1386,-0.28230544182392114,-0.3,1.0,0.0,490.0,967.0,0.0,0,263.0,1
1387,1387,-0.586966329493141,-0.6,0.0,1.0,493.0,815.0,1.0,0,252.0,1
1388,1388,-0.6907795863008537,-0.7,0.0,1.0,414.0,852.0,1.0,0,154.0,1
1389,1389,0.5989227218365721,0.6,0.0,0.0,276.0,626.0,0.0,1,348.0,1
1390,1390,-0.44337862689892715,-0.4,0.0,1.0,407.0,955.0,1.0,0,158.0,1
1391,1391,0.4934704455076554,0.5,1.0,1.0,320.0,987.0,1.0,1,123.0,1
1392,1392,0.1601080206154658,0.2,0.0,0.0,391.0,815.0,0.0,1,144.0,1
1393,1393,0.7350776378606879,0.7,1.0,1.0,367.0,675.0,1.0,1,158.0,1
1394,1394,0.7090919925011906,0.7,1.0,1.0,379.0,762.0,1.0,1,429.0,1
1395,1395,-0.10899155887838596,-0.1,1.0,0.0,484.0,746.0,0.0,0,1230.0,1
1396,1396,-0.8633982906002673,-0.9,0.0,1.0,375.0,661.0,1.0,0,214.0,1
1397,1397,-0.010847388372079436,-0.0,1.0,0.0,381.0,998.0,0.0,0,391.0,1
1398,1398,0.6173383857467191,0.6,0.0,0.0,270.0,983.0,0.0,1,77.0,1
1399,1399,0.6384158524481235,0.6,0.0,0.0,309.0,788.0,0.0,1,233.0,1
1400,1400,0.5468767686966313,0.5,1.0,1.0,485.0,885.0,1.0,1,310.0,1
1401,1401,0.2597316635244561,0.3,1.0,1.0,488.0,657.0,1.0,1,955.0,1
1402,1402,-0.16686520476345923,-0.2,1.0,0.0,424.0,941.0,0.0,0,335.0,1
1403,1403,0.3032098898628629,0.3,0.0,0.0,316.0,640.0,0.0,1,704.0,1
1404,1404,-0.47560928182737294,-0.5,0.0,1.0,416.0,586.0,1.0,0,478.0,1
1405,1405,-0.6093546082661128,-0.6,0.0,1.0,276.0,789.0,1.0,0,205.0,1
1406,1406,0.712363095301917,0.7,1.0,1.0,426.0,915.0,1.0,1,229.0,1
1407,1407,-0.8480575169197763,-0.8,0.0,1.0,471.0,794.0,1.0,0,205.0,1
1408,1408,0.6361289872926029,0.6,0.0,0.0,313.0,914.0,0.0,1,133.0,1
1409,1409,-0.3385084944220963,-0.3,0.0,1.0,499.0,842.0,1.0,0,509.0,1
1410,1410,-0.4143165961381879,-0.4,0.0,1.0,452.0,621.0,1.0,0,457.0,1
1411,1411,0.5039040886627083,0.5,0.0,0.0,339.0,978.0,0.0,1,83.0,1
1412,1412,-0.15078457907969056,-0.2,0.0,1.0,260.0,888.0,0.0,1,2652.0,0
1413,1413,-0.10722034809452974,-0.1,1.0,0.0,466.0,733.0,0.0,0,711.0,1
1414,1414,-0.05875235202525475,-0.1,1.0,0.0,372.0,533.0,0.0,0,765.0,1
1415,1415,-0.6539279869752843,-0.7,1.0,0.0,378.0,616.0,0.0,0,326.0,1
1416,1416,0.8530833686420679,0.9,1.0,1.0,270.0,994.0,1.0,1,216.0,1
1417,1417,-0.8614071298169308,-0.9,1.0,0.0,483.0,976.0,0.0,0,131.0,1
1418,1418,-0.8044932012314545,-0.8,0.0,1.0,334.0,691.0,1.0,0,185.0,1
1419,1419,-0.22112920562175187,-0.2,0.0,1.0,320.0,671.0,1.0,0,519.0,1
1420,1420,-0.38547580886090904,-0.4,1.0,0.0,473.0,681.0,0.0,0,356.0,1
1421,1421,-0.2684377915435905,-0.3,0.0,1.0,309.0,924.0,1.0,0,277.0,1
1422,1422,-0.777498042409194,-0.8,1.0,0.0,386.0,987.0,0.0,0,157.0,1
1423,1423,-0.809725726427567,-0.8,1.0,0.0,342.0,945.0,0.0,0,243.0,1
1424,1424,-0.08228872774924456,-0.1,1.0,0.0,498.0,781.0,0.0,0,1541.0,1
1425,1425,-0.8444919660657407,-0.8,0.0,1.0,277.0,717.0,1.0,0,206.0,1
1426,1426,-0.4314442389220131,-0.4,0.0,1.0,297.0,869.0,1.0,0,634.0,1
1427,1427,0.7608220412320504,0.8,0.0,0.0,385.0,898.0,0.0,1,257.0,1
1428,1428,0.06397017837201657,0.1,1.0,1.0,293.0,984.0,1.0,1,2983.0,1
1429,1429,-0.7070989562742787,-0.7,1.0,0.0,444.0,815.0,0.0,0,401.0,1
1430,1430,0.4133955623281723,0.4,0.0,0.0,462.0,857.0,0.0,1,691.0,1
1431,1431,0.6733205189999166,0.7,1.0,1.0,424.0,787.0,1.0,1,189.0,1
1432,1432,0.5213978581276842,0.5,0.0,0.0,385.0,540.0,0.0,1,445.0,1
1433,1433,-0.668709010272456,-0.7,1.0,0.0,406.0,796.0,0.0,0,378.0,1
1434,1434,0.20383788198350838,0.2,0.0,0.0,250.0,978.0,0.0,1,182.0,1
1435,1435,-0.3254817645275079,-0.3,0.0,1.0,363.0,919.0,1.0,0,498.0,1
1436,1436,-0.1168165571442884,-0.1,0.0,1.0,381.0,901.0,1.0,0,1368.0,1
1437,1437,0.31565123144681795,0.3,0.0,0.0,251.0,832.0,0.0,1,167.0,1
1438,1438,0.5257348763811996,0.5,1.0,1.0,441.0,875.0,1.0,1,244.0,1
1439,1439,0.2531800774064402,0.3,1.0,1.0,328.0,936.0,1.0,1,226.0,1
1440,1440,0.23467108895007394,0.2,0.0,0.0,446.0,739.0,0.0,1,335.0,1
1441,1441,0.8321977272894395,0.8,1.0,1.0,383.0,516.0,1.0,1,251.0,1
1442,1442,0.15244182542202778,0.2,1.0,1.0,387.0,595.0,1.0,1,558.0,1
1443,1443,-0.05151498814062627,-0.1,0.0,1.0,389.0,875.0,0.0,1,636.0,0
1444,1444,-0.20096934977292125,-0.2,1.0,0.0,292.0,726.0,0.0,0,852.0,1
1445,1445,-0.06523860943028892,-0.1,1.0,0.0,299.0,955.0,0.0,0,996.0,1
1446,1446,-0.7214707592692216,-0.7,1.0,0.0,270.0,803.0,0.0,0,137.0,1
1447,1447,0.5443580973867542,0.5,0.0,0.0,341.0,808.0,0.0,1,291.0,1
1448,1448,-0.815330110466278,-0.8,0.0,1.0,433.0,917.0,1.0,0,170.0,1
1449,1449,0.21431056367879886,0.2,0.0,0.0,452.0,740.0,0.0,1,378.0,1
1450,1450,-0.031035020736596697,-0.0,1.0,0.0,436.0,570.0,0.0,0,2034.0,1
1451,1451,-0.19564795700888848,-0.2,1.0,0.0,385.0,849.0,0.0,0,526.0,1
1452,1452,0.5350376025244493,0.5,1.0,1.0,365.0,690.0,1.0,1,125.0,1
1453,1453,0.6076661857523497,0.6,1.0,1.0,255.0,715.0,1.0,1,300.0,1
1454,1454,-0.5102403311695841,-0.5,0.0,1.0,309.0,675.0,1.0,0,246.0,1
1455,1455,0.8443927288710126,0.8,0.0,0.0,499.0,566.0,0.0,1,245.0,1
1456,1456,-0.8897906763556473,-0.9,0.0,1.0,407.0,665.0,1.0,0,218.0,1
1457,1457,-0.32192394524764323,-0.3,1.0,0.0,271.0,752.0,0.0,0,467.0,1
1458,1458,-0.1952136200461223,-0.2,1.0,0.0,307.0,971.0,0.0,0,442.0,1
1459,1459,-0.13433325665812068,-0.1,1.0,0.0,267.0,964.0,0.0,0,529.0,1
1460,1460,0.8284402776244452,0.8,0.0,0.0,498.0,518.0,0.0,1,334.0,1
1461,1461,0.5862627545920639,0.6,0.0,0.0,259.0,836.0,0.0,1,85.0,1
1462,1462,0.4528930927229552,0.5,0.0,0.0,448.0,764.0,0.0,1,68.0,1
1463,1463,0.058328642904621586,0.1,1.0,1.0,472.0,767.0,1.0,1,3761.0,1
1464,1464,-0.1385052672069471,-0.1,0.0,1.0,441.0,806.0,1.0,0,2173.0,1
1465,1465,0.4551261904000389,0.5,1.0,1.0,419.0,645.0,1.0,1,236.0,1
1466,1466,0.5049192827090868,0.5,0.0,0.0,357.0,695.0,0.0,1,268.0,1
1467,1467,-0.6112897441281906,-0.6,1.0,0.0,374.0,708.0,0.0,0,498.0,1
1468,1468,-0.3788786115859959,-0.4,1.0,0.0,299.0,881.0,0.0,0,300.0,1
1469,1469,-0.4504086735491713,-0.5,0.0,1.0,413.0,949.0,1.0,0,188.0,1
1470,1470,-0.11901165809238123,-0.1,0.0,1.0,265.0,828.0,1.0,0,957.0,1
1471,1471,-0.3119060720177088,-0.3,1.0,0.0,461.0,762.0,0.0,0,687.0,1
1472,1472,-0.5931654855778874,-0.6,1.0,0.0,378.0,959.0,0.0,0,233.0,1
1473,1473,-0.591141834619239,-0.6,0.0,1.0,480.0,959.0,1.0,0,291.0,1
1474,1474,0.6614677180154217,0.7,0.0,0.0,499.0,761.0,0.0,1,130.0,1
1475,1475,-0.19899375077980697,-0.2,0.0,1.0,431.0,718.0,1.0,0,711.0,1
1476,1476,0.6207475764171787,0.6,1.0,1.0,360.0,705.0,1.0,1,325.0,1
1477,1477,-0.5238643025115737,-0.5,1.0,0.0,331.0,657.0,0.0,0,412.0,1
1478,1478,-0.008098792852402448,-0.0,1.0,0.0,254.0,781.0,1.0,1,1325.0,0
1479,1479,-0.15558452655054222,-0.2,0.0,1.0,499.0,970.0,0.0,1,341.0,0
1480,1480,0.403956124472589,0.4,1.0,1.0,311.0,500.0,1.0,1,549.0,1
1481,1481,0.730248855295191,0.7,0.0,0.0,419.0,644.0,0.0,1,287.0,1
1482,1482,0.07391190425933336,0.1,1.0,1.0,326.0,604.0,1.0,1,2560.0,1
1483,1483,-0.4042054025901334,-0.4,1.0,0.0,493.0,569.0,0.0,0,658.0,1
1484,1484,-0.8373983857800307,-0.8,0.0,1.0,316.0,630.0,1.0,0,254.0,1
1485,1485,0.8588823040761163,0.9,1.0,1.0,491.0,503.0,1.0,1,456.0,1
1486,1486,0.29271173781886983,0.3,1.0,1.0,370.0,615.0,1.0,1,445.0,1
1487,1487,0.23370383323244048,0.2,1.0,1.0,418.0,818.0,1.0,1,1134.0,1
1488,1488,-0.010243551651594185,-0.0,1.0,0.0,321.0,672.0,0.0,0,577.0,1
1489,1489,-0.13899437472081366,-0.1,0.0,1.0,370.0,687.0,1.0,0,2703.0,1
1490,1490,0.4589917060538896,0.5,0.0,0.0,343.0,527.0,0.0,1,360.0,1
1491,1491,-0.6724364910813114,-0.7,0.0,1.0,467.0,667.0,1.0,0,306.0,1
