,trial,coherence,coherence_bin,green_side,correct_side,target_onset,checker_onset,decision,green_decision,decision_time,correct_decision
0,0,0.36986721709228976,0.4,0.0,0.0,354.0,749.0,0.0,1,387.0,1
1,1,0.5795447266669488,0.6,1.0,1.0,377.0,833.0,1.0,1,170.0,1
2,2,-0.5796192875070388,-0.6,0.0,1.0,321.0,841.0,1.0,0,208.0,1
3,3,0.32618122176813447,0.3,0.0,0.0,303.0,626.0,0.0,1,851.0,1
4,4,0.01848011602491706,0.0,0.0,0.0,485.0,751.0,0.0,1,544.0,1
5,5,-0.2944581129173265,-0.3,0.0,1.0,393.0,597.0,1.0,0,680.0,1
6,6,0.8573843191043292,0.9,1.0,1.0,447.0,817.0,1.0,1,336.0,1
7,7,0.5939078981660316,0.6,0.0,0.0,353.0,744.0,0.0,1,343.0,1
8,8,-0.3302827728687373,-0.3,0.0,1.0,331.0,756.0,1.0,0,283.0,1
9,9,0.5478030203693872,0.5,1.0,1.0,326.0,547.0,1.0,1,577.0,1
10,10,0.5681106002562922,0.6,1.0,1.0,269.0,533.0,1.0,1,858.0,1
11,11,0.28601089241406885,0.3,0.0,0.0,277.0,632.0,0.0,1,1801.0,1
12,12,0.5262880775460798,0.5,0.0,0.0,397.0,507.0,0.0,1,606.0,1
13,13,0.6833994308871895,0.7,1.0,1.0,384.0,851.0,1.0,1,145.0,1
14,14,-0.7679823957882697,-0.8,1.0,0.0,296.0,514.0,0.0,0,390.0,1
15,15,0.45773370587277096,0.5,0.0,0.0,462.0,535.0,0.0,1,533.0,1
16,16,0.0036461464504844443,0.0,0.0,0.0,295.0,880.0,0.0,1,1575.0,1
17,17,-0.7797895860607268,-0.8,1.0,0.0,485.0,997.0,0.0,0,408.0,1
18,18,0.027684104286070044,0.0,1.0,1.0,399.0,823.0,0.0,0,1408.0,0
19,19,-0.400304307330069,-0.4,1.0,0.0,277.0,568.0,0.0,0,575.0,1
20,20,-0.41986674083065706,-0.4,1.0,0.0,362.0,764.0,0.0,0,324.0,1
21,21,0.625625627749188,0.6,1.0,1.0,411.0,961.0,0.0,0,88.0,0
22,22,0.4597224762198667,0.5,0.0,0.0,469.0,814.0,0.0,1,577.0,1
23,23,0.5244662619910262,0.5,0.0,0.0,390.0,767.0,0.0,1,273.0,1
24,24,0.7383704871512055,0.7,1.0,1.0,335.0,530.0,1.0,1,395.0,1
25,25,0.7746742454718353,0.8,1.0,1.0,320.0,540.0,1.0,1,520.0,1
26,26,-0.8118508071190352,-0.8,0.0,1.0,363.0,923.0,1.0,0,274.0,1
27,27,0.2687865081981141,0.3,0.0,0.0,305.0,786.0,0.0,1,749.0,1
28,28,0.7723851514968573,0.8,1.0,1.0,480.0,818.0,1.0,1,412.0,1
29,29,-0.63426020082088,-0.6,1.0,0.0,254.0,772.0,0.0,0,364.0,1
30,30,0.6423142005512995,0.6,1.0,1.0,345.0,702.0,1.0,1,333.0,1
31,31,0.7287411991868625,0.7,1.0,1.0,469.0,531.0,1.0,1,360.0,1
32,32,0.008297146492640017,0.0,0.0,0.0,259.0,604.0,1.0,0,487.0,0
33,33,0.5792186823473889,0.6,0.0,0.0,457.0,666.0,0.0,1,567.0,1
34,34,0.3045581336056816,0.3,0.0,0.0,353.0,804.0,0.0,1,433.0,1
35,35,-0.49375078325170235,-0.5,0.0,1.0,498.0,622.0,1.0,0,680.0,1
36,36,-0.17660925742001699,-0.2,0.0,1.0,274.0,766.0,0.0,1,-30.0,0
37,37,-0.3322868265968334,-0.3,1.0,0.0,329.0,719.0,0.0,0,132.0,1
38,38,-0.20068828369362524,-0.2,0.0,1.0,373.0,579.0,1.0,0,858.0,1
39,39,0.6666601980580941,0.7,0.0,0.0,309.0,816.0,0.0,1,345.0,1
40,40,0.04976745921286385,0.0,1.0,1.0,336.0,835.0,1.0,1,-81.0,1
41,41,0.44199118983697205,0.4,0.0,0.0,499.0,905.0,0.0,1,156.0,1
42,42,0.4036662205144391,0.4,0.0,0.0,429.0,954.0,0.0,1,557.0,1
43,43,0.6743300951545855,0.7,0.0,0.0,496.0,686.0,0.0,1,188.0,1
44,44,0.40894590164282996,0.4,0.0,0.0,341.0,730.0,0.0,1,309.0,1
45,45,0.4175805169758501,0.4,1.0,1.0,485.0,863.0,1.0,1,492.0,1
46,46,-0.5194796394877479,-0.5,1.0,0.0,251.0,924.0,0.0,0,125.0,1
47,47,0.4529611412754605,0.5,1.0,1.0,468.0,777.0,1.0,1,185.0,1
48,48,-0.8694808799100086,-0.9,0.0,1.0,429.0,605.0,1.0,0,606.0,1
49,49,-0.4666860055217509,-0.5,1.0,0.0,400.0,846.0,0.0,0,474.0,1
50,50,0.7608869565886337,0.8,1.0,1.0,378.0,936.0,1.0,1,176.0,1
51,51,-0.49246435148534823,-0.5,1.0,0.0,349.0,522.0,0.0,0,199.0,1
52,52,-0.15766499570912562,-0.2,1.0,0.0,377.0,596.0,1.0,1,1007.0,0
53,53,-0.49564534419807554,-0.5,0.0,1.0,338.0,772.0,1.0,0,230.0,1
54,54,0.3514747749660293,0.4,1.0,1.0,255.0,939.0,1.0,1,266.0,1
55,55,0.10710027482749551,0.1,1.0,1.0,326.0,754.0,0.0,0,70.0,0
56,56,0.5602331793088048,0.6,1.0,1.0,342.0,815.0,1.0,1,133.0,1
57,57,-0.28778711915590804,-0.3,0.0,1.0,341.0,859.0,1.0,0,730.0,1
58,58,0.03986093615453745,0.0,1.0,1.0,307.0,689.0,1.0,1,454.0,1
59,59,-0.1677905997130078,-0.2,0.0,1.0,289.0,856.0,1.0,0,2065.0,1
60,60,0.16462962637715883,0.2,0.0,0.0,437.0,962.0,0.0,1,-149.0,1
61,61,0.6763055772151157,0.7,0.0,0.0,450.0,826.0,0.0,1,344.0,1
62,62,0.06472217351176368,0.1,1.0,1.0,400.0,889.0,1.0,1,331.0,1
63,63,0.2887949236759054,0.3,0.0,0.0,474.0,807.0,0.0,1,469.0,1
64,64,-0.10615525188430963,-0.1,0.0,1.0,468.0,646.0,1.0,0,676.0,1
65,65,0.8075670601696022,0.8,1.0,1.0,407.0,646.0,1.0,1,437.0,1
66,66,0.5707738050339642,0.6,0.0,0.0,405.0,749.0,0.0,1,496.0,1
67,67,-0.7322484217921308,-0.7,0.0,1.0,349.0,831.0,1.0,0,390.0,1
68,68,0.15385119573411454,0.2,0.0,0.0,272.0,854.0,0.0,1,614.0,1
69,69,-0.28801875117653,-0.3,0.0,1.0,276.0,748.0,1.0,0,506.0,1
70,70,-0.18812495370568083,-0.2,1.0,0.0,320.0,789.0,0.0,0,1861.0,1
71,71,-0.006088635080855664,-0.0,0.0,1.0,266.0,563.0,0.0,1,731.0,0
72,72,-0.032830038942379125,-0.0,0.0,1.0,335.0,854.0,1.0,0,51.0,1
73,73,-0.07067284546711627,-0.1,0.0,1.0,266.0,798.0,1.0,0,1526.0,1
74,74,-0.4571543173569846,-0.5,1.0,0.0,293.0,979.0,0.0,0,428.0,1
75,75,-0.1589410830391227,-0.2,0.0,1.0,449.0,715.0,0.0,1,1116.0,0
76,76,-0.14812776901312996,-0.1,1.0,0.0,334.0,559.0,0.0,0,757.0,1
77,77,0.5194708106649079,0.5,0.0,0.0,311.0,669.0,0.0,1,790.0,1
78,78,0.8797685620227932,0.9,0.0,0.0,396.0,981.0,0.0,1,-127.0,1
79,79,0.6117322768402641,0.6,0.0,0.0,313.0,838.0,0.0,1,359.0,1
80,80,0.7691922791472746,0.8,1.0,1.0,418.0,808.0,1.0,1,234.0,1
81,81,-0.2046773585733761,-0.2,1.0,0.0,335.0,672.0,0.0,0,1233.0,1
82,82,0.004165194602471223,0.0,1.0,1.0,493.0,851.0,1.0,1,2176.0,1
83,83,0.4045383416620566,0.4,1.0,1.0,309.0,777.0,1.0,1,394.0,1
84,84,-0.7295254311079042,-0.7,1.0,0.0,304.0,722.0,0.0,0,504.0,1
85,85,0.8604205871997707,0.9,1.0,1.0,494.0,628.0,1.0,1,268.0,1
86,86,0.8952569864358412,0.9,1.0,1.0,388.0,842.0,1.0,1,320.0,1
87,87,0.058757645312753515,0.1,0.0,0.0,258.0,794.0,0.0,1,1588.0,1
88,88,-0.08971604086088214,-0.1,0.0,1.0,457.0,736.0,1.0,0,1587.0,1
89,89,-0.14626369015687357,-0.1,1.0,0.0,386.0,750.0,1.0,1,2134.0,0
90,90,-0.47827465974443467,-0.5,1.0,0.0,490.0,621.0,0.0,0,389.0,1
91,91,0.7125049524953261,0.7,1.0,1.0,274.0,905.0,0.0,0,191.0,0
92,92,0.4027641119877411,0.4,1.0,1.0,461.0,539.0,1.0,1,790.0,1
93,93,0.7064193656692362,0.7,0.0,0.0,377.0,537.0,0.0,1,416.0,1
94,94,0.4846875725085501,0.5,1.0,1.0,328.0,578.0,1.0,1,164.0,1
95,95,-0.08087558314415177,-0.1,0.0,1.0,364.0,708.0,1.0,0,628.0,1
96,96,0.8268149127635761,0.8,1.0,1.0,441.0,603.0,1.0,1,226.0,1
97,97,-0.29185123241314725,-0.3,0.0,1.0,282.0,596.0,1.0,0,2342.0,1
98,98,0.6915930608179118,0.7,1.0,1.0,310.0,722.0,1.0,1,348.0,1
99,99,-0.7406275334927909,-0.7,0.0,1.0,345.0,979.0,1.0,0,66.0,1
100,100,-0.853820873759741,-0.9,1.0,0.0,365.0,580.0,0.0,0,805.0,1
101,101,0.6211908248941124,0.6,1.0,1.0,314.0,987.0,1.0,1,-161.0,1
102,102,0.5551407183650211,0.6,0.0,0.0,251.0,859.0,1.0,0,-250.0,0
103,103,-0.7740488831524228,-0.8,0.0,1.0,443.0,626.0,1.0,0,321.0,1
104,104,-0.034743666987656296,-0.0,1.0,0.0,471.0,689.0,1.0,1,960.0,0
105,105,-0.10686463432577031,-0.1,1.0,0.0,481.0,653.0,1.0,1,316.0,0
106,106,0.07124472689345918,0.1,1.0,1.0,329.0,838.0,0.0,0,193.0,0
107,107,-0.15400142693434837,-0.2,0.0,1.0,457.0,702.0,1.0,0,1671.0,1
108,108,0.4215455044670594,0.4,1.0,1.0,453.0,908.0,1.0,1,129.0,1
109,109,-0.8388949828740755,-0.8,1.0,0.0,414.0,555.0,0.0,0,401.0,1
110,110,-0.4398449951456577,-0.4,1.0,0.0,454.0,867.0,0.0,0,839.0,1
111,111,0.7744995024512947,0.8,0.0,0.0,487.0,820.0,0.0,1,603.0,1
112,112,-0.2642789620255779,-0.3,0.0,1.0,287.0,518.0,1.0,0,505.0,1
113,113,0.37868911518086057,0.4,1.0,1.0,266.0,852.0,1.0,1,662.0,1
114,114,-0.2846000396364037,-0.3,1.0,0.0,376.0,797.0,0.0,0,577.0,1
115,115,0.25370496151834787,0.3,0.0,0.0,405.0,915.0,1.0,0,-150.0,0
116,116,0.6118982696092269,0.6,0.0,0.0,484.0,933.0,0.0,1,423.0,1
117,117,0.8565273327493174,0.9,0.0,0.0,382.0,612.0,0.0,1,466.0,1
118,118,-0.6049219594544171,-0.6,0.0,1.0,394.0,844.0,1.0,0,192.0,1
119,119,-0.8008505321641662,-0.8,0.0,1.0,345.0,949.0,1.0,0,216.0,1
120,120,-0.5089625925642692,-0.5,1.0,0.0,380.0,930.0,1.0,1,-30.0,0
121,121,-0.8704981752741344,-0.9,0.0,1.0,438.0,751.0,1.0,0,581.0,1
122,122,-0.28393276142193147,-0.3,1.0,0.0,426.0,702.0,0.0,0,542.0,1
123,123,-0.011045562687555743,-0.0,1.0,0.0,329.0,676.0,0.0,0,2215.0,1
124,124,-0.5792852219094622,-0.6,1.0,0.0,371.0,973.0,0.0,0,196.0,1
125,125,0.8027503422843495,0.8,0.0,0.0,369.0,821.0,0.0,1,220.0,1
126,126,-0.6933290433355269,-0.7,1.0,0.0,406.0,659.0,0.0,0,215.0,1
127,127,0.46624590828316903,0.5,1.0,1.0,384.0,574.0,1.0,1,322.0,1
128,128,0.10654294557305055,0.1,0.0,0.0,369.0,660.0,0.0,1,761.0,1
129,129,0.1129233264032653,0.1,1.0,1.0,492.0,707.0,1.0,1,1781.0,1
130,130,-0.47239677034005517,-0.5,0.0,1.0,390.0,531.0,1.0,0,549.0,1
131,131,-0.6129133854441915,-0.6,1.0,0.0,496.0,817.0,0.0,0,597.0,1
132,132,0.47659966936056153,0.5,1.0,1.0,494.0,851.0,1.0,1,245.0,1
133,133,-0.2714492958669523,-0.3,1.0,0.0,260.0,823.0,0.0,0,347.0,1
134,134,0.8421520757617699,0.8,0.0,0.0,440.0,791.0,0.0,1,189.0,1
135,135,0.2599562390785012,0.3,0.0,0.0,272.0,661.0,0.0,1,297.0,1
136,136,-0.4083732626456401,-0.4,0.0,1.0,391.0,993.0,1.0,0,636.0,1
137,137,0.3371315608590354,0.3,1.0,1.0,483.0,512.0,1.0,1,535.0,1
138,138,-0.4240248452308796,-0.4,1.0,0.0,400.0,822.0,0.0,0,428.0,1
139,139,-0.19542964783218497,-0.2,0.0,1.0,361.0,925.0,1.0,0,864.0,1
140,140,-0.2555838279957503,-0.3,0.0,1.0,256.0,858.0,1.0,0,526.0,1
141,141,0.8717866365596233,0.9,1.0,1.0,463.0,850.0,1.0,1,217.0,1
142,142,-0.09134882858158266,-0.1,0.0,1.0,298.0,729.0,0.0,1,503.0,0
143,143,0.6295832656929837,0.6,0.0,0.0,435.0,932.0,1.0,0,53.0,0
144,144,0.5305257377202451,0.5,1.0,1.0,273.0,623.0,1.0,1,674.0,1
145,145,-0.0518191114068679,-0.1,0.0,1.0,305.0,691.0,1.0,0,1174.0,1
146,146,-0.6956852535117678,-0.7,1.0,0.0,278.0,883.0,0.0,0,519.0,1
147,147,-0.11241086291334856,-0.1,1.0,0.0,442.0,699.0,1.0,1,789.0,0
148,148,0.45879829345745204,0.5,1.0,1.0,420.0,586.0,1.0,1,814.0,1
149,149,0.156285076862419,0.2,0.0,0.0,375.0,988.0,0.0,1,727.0,1
150,150,0.07893829194998658,0.1,1.0,1.0,446.0,757.0,1.0,1,1227.0,1
151,151,-0.38392548946118676,-0.4,0.0,1.0,423.0,963.0,1.0,0,964.0,1
152,152,-0.05471643871194354,-0.1,1.0,0.0,348.0,801.0,1.0,1,-109.0,0
153,153,0.2681354143015936,0.3,0.0,0.0,256.0,823.0,0.0,1,351.0,1
154,154,-0.2946223857774798,-0.3,1.0,0.0,269.0,602.0,0.0,0,1279.0,1
155,155,0.08051125006473714,0.1,0.0,0.0,299.0,640.0,0.0,1,1331.0,1
156,156,0.6361968178966692,0.6,1.0,1.0,490.0,708.0,1.0,1,472.0,1
157,157,-0.5457671286986034,-0.5,0.0,1.0,466.0,698.0,0.0,1,-54.0,0
158,158,-0.6406656685551497,-0.6,1.0,0.0,450.0,575.0,0.0,0,415.0,1
159,159,-0.29114877702112374,-0.3,0.0,1.0,360.0,543.0,1.0,0,577.0,1
160,160,-0.2989822960535483,-0.3,1.0,0.0,268.0,553.0,0.0,0,1169.0,1
161,161,-0.041514988985200896,-0.0,0.0,1.0,353.0,939.0,0.0,1,508.0,0
162,162,-0.8149874832800944,-0.8,0.0,1.0,460.0,723.0,1.0,0,127.0,1
163,163,-0.4243288603435997,-0.4,0.0,1.0,419.0,596.0,1.0,0,1245.0,1
164,164,0.23238185192773175,0.2,1.0,1.0,416.0,866.0,1.0,1,1148.0,1
165,165,-0.5028994099508071,-0.5,1.0,0.0,365.0,613.0,0.0,0,702.0,1
166,166,-0.7117901843416554,-0.7,0.0,1.0,402.0,802.0,1.0,0,646.0,1
167,167,0.3999750294402312,0.4,1.0,1.0,399.0,638.0,1.0,1,1243.0,1
168,168,0.5778254518022491,0.6,0.0,0.0,297.0,784.0,0.0,1,429.0,1
169,169,0.35015304082441656,0.4,1.0,1.0,289.0,744.0,1.0,1,-113.0,1
170,170,0.4352856791960219,0.4,0.0,0.0,271.0,742.0,0.0,1,217.0,1
171,171,0.6037670823190847,0.6,0.0,0.0,310.0,939.0,0.0,1,291.0,1
172,172,-0.549352537710363,-0.5,1.0,0.0,432.0,877.0,0.0,0,-129.0,1
173,173,0.16591558480148538,0.2,1.0,1.0,468.0,713.0,0.0,0,319.0,0
174,174,0.41122619705570174,0.4,1.0,1.0,336.0,532.0,1.0,1,502.0,1
175,175,0.37362591810845636,0.4,1.0,1.0,446.0,677.0,1.0,1,1107.0,1
176,176,0.3888215916821135,0.4,1.0,1.0,487.0,748.0,1.0,1,735.0,1
177,177,-0.40266031611872705,-0.4,0.0,1.0,411.0,898.0,1.0,0,381.0,1
178,178,0.7833259700386997,0.8,0.0,0.0,386.0,682.0,0.0,1,252.0,1
179,179,-0.3094153317169076,-0.3,1.0,0.0,291.0,964.0,0.0,0,615.0,1
180,180,-0.8884760198967485,-0.9,0.0,1.0,294.0,562.0,0.0,1,-46.0,0
181,181,0.5375987858883097,0.5,0.0,0.0,271.0,532.0,0.0,1,547.0,1
182,182,0.011713394834903523,0.0,0.0,0.0,360.0,857.0,0.0,1,283.0,1
183,183,-0.6731045464613941,-0.7,1.0,0.0,332.0,904.0,0.0,0,174.0,1
184,184,-0.816021072409668,-0.8,0.0,1.0,390.0,501.0,1.0,0,429.0,1
185,185,-0.5032492708088687,-0.5,0.0,1.0,445.0,570.0,1.0,0,95.0,1
186,186,-0.36056599454508476,-0.4,0.0,1.0,448.0,802.0,1.0,0,240.0,1
187,187,-0.006059009344412614,-0.0,1.0,0.0,397.0,748.0,1.0,1,345.0,0
188,188,-0.14622243203283836,-0.1,0.0,1.0,498.0,514.0,0.0,1,778.0,0
189,189,0.5319729382698012,0.5,0.0,0.0,499.0,680.0,0.0,1,361.0,1
190,190,0.1213697478788679,0.1,0.0,0.0,358.0,682.0,0.0,1,1310.0,1
191,191,0.1853848951553888,0.2,0.0,0.0,343.0,946.0,0.0,1,561.0,1
192,192,-0.3989589386422169,-0.4,1.0,0.0,460.0,886.0,0.0,0,284.0,1
193,193,-0.43038355330437933,-0.4,1.0,0.0,439.0,844.0,0.0,0,257.0,1
194,194,-0.6799602882957909,-0.7,1.0,0.0,474.0,555.0,0.0,0,191.0,1
195,195,-0.842640633917779,-0.8,1.0,0.0,299.0,910.0,0.0,0,211.0,1
196,196,-0.37917424002470157,-0.4,1.0,0.0,344.0,540.0,0.0,0,1116.0,1
197,197,0.6745925322663294,0.7,1.0,1.0,400.0,709.0,1.0,1,141.0,1
198,198,-0.6553196494525682,-0.7,0.0,1.0,277.0,667.0,1.0,0,386.0,1
199,199,-0.44045354222424854,-0.4,0.0,1.0,268.0,996.0,1.0,0,186.0,1
200,200,-0.8878814891204955,-0.9,1.0,0.0,332.0,901.0,0.0,0,377.0,1
201,201,-0.5876494200356148,-0.6,1.0,0.0,433.0,641.0,0.0,0,346.0,1
202,202,-0.0866670565093196,-0.1,1.0,0.0,306.0,882.0,1.0,1,622.0,0
203,203,0.4503024390610916,0.5,1.0,1.0,315.0,869.0,1.0,1,896.0,1
204,204,-0.8848304845585174,-0.9,1.0,0.0,334.0,686.0,0.0,0,300.0,1
205,205,0.06706093549548198,0.1,0.0,0.0,294.0,819.0,0.0,1,867.0,1
206,206,-0.5453475791115411,-0.5,1.0,0.0,476.0,518.0,0.0,0,486.0,1
207,207,-0.5429121138130252,-0.5,0.0,1.0,291.0,585.0,1.0,0,674.0,1
208,208,0.4710768761001817,0.5,1.0,1.0,416.0,656.0,1.0,1,338.0,1
209,209,-0.26184637389264864,-0.3,1.0,0.0,386.0,943.0,1.0,1,511.0,0
210,210,0.20803601124418447,0.2,0.0,0.0,474.0,967.0,0.0,1,-201.0,1
211,211,-0.5605807322929117,-0.6,1.0,0.0,287.0,688.0,0.0,0,405.0,1
212,212,-0.0838056572014857,-0.1,1.0,0.0,310.0,674.0,0.0,0,1666.0,1
213,213,0.8228742155707957,0.8,0.0,0.0,393.0,799.0,0.0,1,248.0,1
214,214,0.6298381863566352,0.6,1.0,1.0,471.0,512.0,1.0,1,527.0,1
215,215,0.2453575172133683,0.2,0.0,0.0,330.0,591.0,0.0,1,169.0,1
216,216,-0.745549040230557,-0.7,0.0,1.0,253.0,567.0,1.0,0,830.0,1
217,217,0.32616750369984737,0.3,0.0,0.0,373.0,818.0,0.0,1,409.0,1
218,218,-0.328328145198562,-0.3,1.0,0.0,381.0,727.0,0.0,0,412.0,1
219,219,0.6671773091145302,0.7,1.0,1.0,486.0,648.0,1.0,1,576.0,1
220,220,-0.11359560437644223,-0.1,1.0,0.0,359.0,574.0,0.0,0,967.0,1
221,221,-0.6144787820229596,-0.6,0.0,1.0,306.0,505.0,1.0,0,489.0,1
222,222,-0.05938788756485758,-0.1,1.0,0.0,426.0,594.0,1.0,1,900.0,0
223,223,0.37265455627559085,0.4,1.0,1.0,443.0,799.0,1.0,1,468.0,1
224,224,0.1305337686331688,0.1,1.0,1.0,253.0,633.0,0.0,0,574.0,0
225,225,-0.14681306341481315,-0.1,1.0,0.0,443.0,922.0,0.0,0,305.0,1
226,226,0.2541700945691482,0.3,1.0,1.0,312.0,651.0,1.0,1,1097.0,1
227,227,0.18773549295244385,0.2,0.0,0.0,254.0,819.0,0.0,1,377.0,1
228,228,-0.014046406471780903,-0.0,0.0,1.0,254.0,939.0,0.0,1,2447.0,0
229,229,-0.5220841338397147,-0.5,0.0,1.0,412.0,501.0,1.0,0,767.0,1
230,230,0.30379047571506856,0.3,0.0,0.0,375.0,963.0,0.0,1,552.0,1
231,231,-0.35516707942114834,-0.4,0.0,1.0,295.0,937.0,1.0,0,278.0,1
232,232,0.5121596840203037,0.5,1.0,1.0,352.0,768.0,1.0,1,290.0,1
233,233,-0.22069627416983761,-0.2,1.0,0.0,328.0,878.0,1.0,1,234.0,0
234,234,0.4266690018568807,0.4,1.0,1.0,337.0,887.0,1.0,1,346.0,1
235,235,-0.3495908052887907,-0.3,1.0,0.0,485.0,577.0,0.0,0,538.0,1
236,236,-0.24058237657502857,-0.2,1.0,0.0,274.0,735.0,0.0,0,711.0,1
237,237,-0.3736581837887675,-0.4,0.0,1.0,369.0,845.0,0.0,1,-54.0,0
238,238,-0.7433046116781742,-0.7,0.0,1.0,364.0,779.0,1.0,0,287.0,1
239,239,0.7974294743343243,0.8,0.0,0.0,420.0,697.0,0.0,1,453.0,1
240,240,0.32507639235098196,0.3,1.0,1.0,331.0,703.0,1.0,1,596.0,1
241,241,0.2539976938567766,0.3,1.0,1.0,317.0,864.0,1.0,1,739.0,1
242,242,0.6868263746168414,0.7,0.0,0.0,499.0,836.0,0.0,1,75.0,1
243,243,-0.24180348657495432,-0.2,1.0,0.0,352.0,841.0,0.0,0,827.0,1
244,244,-0.3486481997245434,-0.3,1.0,0.0,492.0,837.0,0.0,0,941.0,1
245,245,0.7382105512337093,0.7,0.0,0.0,288.0,500.0,0.0,1,342.0,1
246,246,-0.36040553096373396,-0.4,1.0,0.0,417.0,644.0,0.0,0,659.0,1
247,247,-0.8352004505553197,-0.8,0.0,1.0,381.0,674.0,1.0,0,265.0,1
248,248,-0.7464038833060734,-0.7,1.0,0.0,344.0,546.0,0.0,0,400.0,1
249,249,-0.36136612502491405,-0.4,1.0,0.0,314.0,778.0,0.0,0,368.0,1
250,250,0.553832000841653,0.6,1.0,1.0,494.0,598.0,1.0,1,348.0,1
251,251,0.16908385762719125,0.2,0.0,0.0,289.0,887.0,0.0,1,334.0,1
252,252,-0.3820815649845698,-0.4,1.0,0.0,406.0,843.0,0.0,0,501.0,1
253,253,0.5363496999291938,0.5,0.0,0.0,268.0,911.0,0.0,1,261.0,1
254,254,0.1801249584847383,0.2,1.0,1.0,361.0,599.0,1.0,1,350.0,1
255,255,-0.6218917315832089,-0.6,0.0,1.0,269.0,626.0,1.0,0,385.0,1
256,256,-0.23805751098206307,-0.2,0.0,1.0,435.0,568.0,1.0,0,1197.0,1
257,257,0.4737657387175399,0.5,0.0,0.0,455.0,939.0,0.0,1,36.0,1
258,258,0.33052442397841164,0.3,1.0,1.0,475.0,684.0,1.0,1,731.0,1
259,259,0.7619436711706914,0.8,1.0,1.0,274.0,523.0,1.0,1,253.0,1
260,260,-0.7381521811660998,-0.7,0.0,1.0,449.0,669.0,1.0,0,372.0,1
261,261,0.46471927860207163,0.5,1.0,1.0,377.0,767.0,1.0,1,246.0,1
262,262,-0.7694083317129613,-0.8,0.0,1.0,262.0,509.0,1.0,0,439.0,1
263,263,0.10774231679188684,0.1,0.0,0.0,388.0,962.0,0.0,1,850.0,1
264,264,-0.8850347831985379,-0.9,1.0,0.0,481.0,553.0,0.0,0,416.0,1
265,265,0.2655067779172412,0.3,0.0,0.0,339.0,970.0,1.0,0,101.0,0
266,266,0.039198061948874874,0.0,0.0,0.0,438.0,827.0,1.0,0,325.0,0
267,267,-0.42900871783547245,-0.4,0.0,1.0,328.0,907.0,1.0,0,95.0,1
268,268,-0.4839138945819367,-0.5,0.0,1.0,417.0,687.0,1.0,0,576.0,1
269,269,-0.3554825444771289,-0.4,1.0,0.0,257.0,729.0,0.0,0,454.0,1
270,270,0.23447832044943884,0.2,0.0,0.0,492.0,913.0,0.0,1,785.0,1
271,271,-0.7281612612871663,-0.7,0.0,1.0,277.0,814.0,1.0,0,319.0,1
272,272,-0.7236411797319876,-0.7,0.0,1.0,363.0,872.0,1.0,0,245.0,1
273,273,0.6401190981412886,0.6,1.0,1.0,411.0,813.0,1.0,1,716.0,1
274,274,-0.6274384353238458,-0.6,0.0,1.0,270.0,847.0,1.0,0,443.0,1
275,275,0.4102405326362736,0.4,0.0,0.0,318.0,779.0,0.0,1,283.0,1
276,276,0.5140135943132723,0.5,1.0,1.0,433.0,681.0,1.0,1,696.0,1
277,277,-0.861069048496557,-0.9,0.0,1.0,349.0,826.0,1.0,0,305.0,1
278,278,-0.2074728460372699,-0.2,0.0,1.0,358.0,673.0,1.0,0,389.0,1
279,279,0.4994726395089849,0.5,1.0,1.0,325.0,639.0,1.0,1,396.0,1
280,280,-0.7863601685270355,-0.8,1.0,0.0,397.0,760.0,0.0,0,483.0,1
281,281,-0.8262619166340556,-0.8,1.0,0.0,302.0,721.0,0.0,0,347.0,1
282,282,0.39279790641730206,0.4,0.0,0.0,271.0,664.0,0.0,1,935.0,1
283,283,-0.054726224904589005,-0.1,0.0,1.0,463.0,570.0,1.0,0,957.0,1
284,284,0.7419301365176337,0.7,0.0,0.0,263.0,532.0,0.0,1,335.0,1
285,285,-0.550556706643794,-0.6,0.0,1.0,346.0,505.0,1.0,0,429.0,1
286,286,-0.8709464909609155,-0.9,1.0,0.0,497.0,636.0,0.0,0,317.0,1
287,287,-0.6116934679494799,-0.6,1.0,0.0,330.0,845.0,0.0,0,125.0,1
288,288,-0.8701470301476708,-0.9,1.0,0.0,382.0,943.0,0.0,0,-345.0,1
289,289,0.5433170152952297,0.5,1.0,1.0,488.0,517.0,1.0,1,535.0,1
290,290,-0.6691177155381909,-0.7,1.0,0.0,377.0,975.0,0.0,0,298.0,1
291,291,-0.5546231390191554,-0.6,1.0,0.0,488.0,663.0,0.0,0,439.0,1
292,292,0.6924579524657056,0.7,1.0,1.0,335.0,728.0,1.0,1,337.0,1
293,293,0.7104022408160237,0.7,1.0,1.0,431.0,939.0,1.0,1,330.0,1
294,294,-0.22279620725734162,-0.2,1.0,0.0,271.0,682.0,0.0,0,1117.0,1
295,295,0.7283660805146751,0.7,0.0,0.0,288.0,985.0,0.0,1,187.0,1
296,296,-0.3751116291267783,-0.4,0.0,1.0,390.0,855.0,1.0,0,175.0,1
297,297,-0.5709684069354128,-0.6,0.0,1.0,302.0,760.0,1.0,0,288.0,1
298,298,0.30294678928410546,0.3,1.0,1.0,330.0,527.0,1.0,1,1503.0,1
299,299,-0.06950391710147064,-0.1,1.0,0.0,367.0,725.0,0.0,0,778.0,1
300,300,-0.7142518562020977,-0.7,0.0,1.0,336.0,864.0,1.0,0,160.0,1
301,301,-0.42688478155229675,-0.4,1.0,0.0,358.0,899.0,1.0,1,-97.0,0
302,302,0.2139194743085283,0.2,0.0,0.0,487.0,982.0,0.0,1,501.0,1
303,303,-0.6238819530121614,-0.6,0.0,1.0,497.0,553.0,1.0,0,320.0,1
304,304,-0.2767233540191225,-0.3,0.0,1.0,295.0,683.0,1.0,0,502.0,1
305,305,-0.7936791635955428,-0.8,0.0,1.0,325.0,680.0,1.0,0,365.0,1
306,306,-0.13482278562111272,-0.1,0.0,1.0,457.0,619.0,1.0,0,2324.0,1
307,307,0.627770303618388,0.6,1.0,1.0,459.0,822.0,1.0,1,339.0,1
308,308,0.8201949490642119,0.8,0.0,0.0,496.0,951.0,0.0,1,273.0,1
309,309,0.3384258899929914,0.3,1.0,1.0,485.0,674.0,1.0,1,391.0,1
310,310,0.7930406952944756,0.8,0.0,0.0,495.0,572.0,0.0,1,303.0,1
311,311,0.03836711721749342,0.0,1.0,1.0,408.0,524.0,0.0,0,4068.0,0
312,312,-0.7371112179436745,-0.7,0.0,1.0,304.0,873.0,1.0,0,263.0,1
313,313,0.8857359949050979,0.9,0.0,0.0,496.0,767.0,0.0,1,487.0,1
314,314,-0.8939551903387574,-0.9,1.0,0.0,318.0,571.0,0.0,0,171.0,1
315,315,-0.3110335953397382,-0.3,0.0,1.0,320.0,890.0,1.0,0,450.0,1
316,316,-0.5952940330471512,-0.6,1.0,0.0,251.0,606.0,0.0,0,313.0,1
317,317,-0.38829865157027876,-0.4,0.0,1.0,292.0,608.0,1.0,0,560.0,1
318,318,-0.1738686310949541,-0.2,0.0,1.0,488.0,880.0,0.0,1,-98.0,0
319,319,-0.4297536143188061,-0.4,0.0,1.0,448.0,720.0,1.0,0,162.0,1
320,320,0.17547025740056743,0.2,1.0,1.0,391.0,572.0,0.0,0,947.0,0
321,321,0.6928009862971246,0.7,0.0,0.0,339.0,508.0,0.0,1,323.0,1
322,322,0.5402343747125203,0.5,0.0,0.0,320.0,518.0,0.0,1,272.0,1
323,323,0.7185605035989214,0.7,0.0,0.0,383.0,943.0,0.0,1,54.0,1
324,324,0.8586898513950006,0.9,1.0,1.0,378.0,610.0,1.0,1,292.0,1
325,325,-0.328080178769251,-0.3,0.0,1.0,398.0,590.0,1.0,0,1002.0,1
326,326,-0.3212150421251676,-0.3,0.0,1.0,358.0,682.0,1.0,0,820.0,1
327,327,-0.4866941642024744,-0.5,0.0,1.0,309.0,556.0,1.0,0,445.0,1
328,328,-0.6462391803003724,-0.6,0.0,1.0,372.0,710.0,1.0,0,318.0,1
329,329,0.09605786454738563,0.1,0.0,0.0,284.0,883.0,0.0,1,313.0,1
330,330,-0.471362992732799,-0.5,0.0,1.0,477.0,866.0,1.0,0,447.0,1
331,331,-0.2917066944718506,-0.3,0.0,1.0,324.0,775.0,1.0,0,891.0,1
332,332,0.7888761458057553,0.8,1.0,1.0,251.0,917.0,1.0,1,12.0,1
333,333,-0.3651223517510538,-0.4,0.0,1.0,272.0,862.0,1.0,0,66.0,1
334,334,-0.8975321933461775,-0.9,1.0,0.0,318.0,959.0,0.0,0,273.0,1
335,335,0.5009644423235088,0.5,0.0,0.0,269.0,991.0,0.0,1,120.0,1
336,336,0.5984631883223647,0.6,1.0,1.0,431.0,975.0,1.0,1,204.0,1
337,337,-0.8508763480545729,-0.9,0.0,1.0,390.0,686.0,1.0,0,264.0,1
338,338,0.6629197926541487,0.7,0.0,0.0,348.0,609.0,0.0,1,513.0,1
339,339,0.668236186143245,0.7,1.0,1.0,468.0,804.0,1.0,1,68.0,1
340,340,0.7637435256220492,0.8,1.0,1.0,264.0,778.0,1.0,1,178.0,1
341,341,0.6592387097029572,0.7,0.0,0.0,345.0,617.0,0.0,1,708.0,1
342,342,-0.2490387992816273,-0.2,1.0,0.0,367.0,897.0,0.0,0,1056.0,1
343,343,-0.34499805895986135,-0.3,1.0,0.0,369.0,771.0,0.0,0,160.0,1
344,344,0.5455212743077461,0.5,1.0,1.0,482.0,667.0,1.0,1,421.0,1
345,345,0.2198114275461197,0.2,1.0,1.0,474.0,996.0,1.0,1,100.0,1
346,346,-0.4972437604481792,-0.5,0.0,1.0,392.0,818.0,0.0,1,90.0,0
347,347,0.6039981484740077,0.6,0.0,0.0,353.0,793.0,0.0,1,264.0,1
348,348,-0.6611337611791692,-0.7,1.0,0.0,305.0,915.0,0.0,0,350.0,1
349,349,-0.3656406789692236,-0.4,0.0,1.0,319.0,744.0,1.0,0,437.0,1
350,350,-0.4775287556529871,-0.5,0.0,1.0,384.0,677.0,1.0,0,439.0,1
351,351,0.13222655860792376,0.1,1.0,1.0,467.0,786.0,0.0,0,2547.0,0
352,352,-0.534871767200166,-0.5,0.0,1.0,299.0,979.0,1.0,0,402.0,1
353,353,-0.5741805418431578,-0.6,0.0,1.0,371.0,781.0,1.0,0,438.0,1
354,354,-0.008429357282188299,-0.0,1.0,0.0,367.0,553.0,0.0,0,870.0,1
355,355,-0.4658488191039702,-0.5,0.0,1.0,447.0,554.0,1.0,0,399.0,1
356,356,-0.17963231989773643,-0.2,1.0,0.0,379.0,950.0,0.0,0,911.0,1
357,357,0.2392542916360979,0.2,0.0,0.0,428.0,521.0,0.0,1,971.0,1
358,358,0.14017109502108716,0.1,0.0,0.0,253.0,542.0,0.0,1,755.0,1
359,359,-0.7132531554519351,-0.7,1.0,0.0,406.0,758.0,0.0,0,276.0,1
360,360,-0.5304503851879792,-0.5,0.0,1.0,402.0,757.0,1.0,0,881.0,1
361,361,-0.38156025063504884,-0.4,0.0,1.0,481.0,832.0,1.0,0,527.0,1
362,362,0.3323242020151692,0.3,0.0,0.0,344.0,890.0,0.0,1,216.0,1
363,363,-0.15496101072181323,-0.2,0.0,1.0,488.0,739.0,1.0,0,393.0,1
364,364,0.3245001248375935,0.3,0.0,0.0,347.0,731.0,0.0,1,792.0,1
365,365,-0.3460356939845156,-0.3,0.0,1.0,457.0,848.0,0.0,1,705.0,0
366,366,-0.43798196228618075,-0.4,1.0,0.0,260.0,645.0,0.0,0,275.0,1
367,367,0.6181739351212591,0.6,0.0,0.0,493.0,982.0,0.0,1,125.0,1
368,368,-0.16741675175623227,-0.2,1.0,0.0,455.0,763.0,0.0,0,842.0,1
369,369,-0.7399747740363111,-0.7,1.0,0.0,412.0,963.0,0.0,0,375.0,1
370,370,-0.10427604655170897,-0.1,1.0,0.0,278.0,584.0,1.0,1,1798.0,0
371,371,0.19012008270315583,0.2,1.0,1.0,261.0,854.0,1.0,1,965.0,1
372,372,-0.5225447662651823,-0.5,0.0,1.0,396.0,604.0,1.0,0,580.0,1
373,373,-0.016702802332674405,-0.0,0.0,1.0,393.0,784.0,0.0,1,703.0,0
374,374,0.6235374989727999,0.6,1.0,1.0,466.0,679.0,1.0,1,325.0,1
375,375,-0.8889672886018302,-0.9,1.0,0.0,493.0,520.0,0.0,0,727.0,1
376,376,-0.11191730584881665,-0.1,0.0,1.0,399.0,600.0,1.0,0,211.0,1
377,377,0.12372631593851724,0.1,1.0,1.0,339.0,937.0,1.0,1,464.0,1
378,378,-0.01736646919530882,-0.0,1.0,0.0,280.0,898.0,1.0,1,522.0,0
379,379,0.27536921287301175,0.3,0.0,0.0,332.0,919.0,0.0,1,309.0,1
380,380,0.7841823131751876,0.8,1.0,1.0,374.0,626.0,1.0,1,200.0,1
381,381,-0.7202489673501918,-0.7,1.0,0.0,338.0,762.0,0.0,0,440.0,1
382,382,-0.22488564147899337,-0.2,1.0,0.0,470.0,824.0,0.0,0,1086.0,1
383,383,-0.05448324645573199,-0.1,0.0,1.0,354.0,797.0,0.0,1,2339.0,0
384,384,-0.09427808750943467,-0.1,1.0,0.0,401.0,629.0,0.0,0,2640.0,1
385,385,0.6720482304019507,0.7,1.0,1.0,422.0,926.0,1.0,1,172.0,1
386,386,0.2603990535035986,0.3,0.0,0.0,398.0,576.0,0.0,1,636.0,1
387,387,-0.6423440887447907,-0.6,0.0,1.0,389.0,656.0,1.0,0,585.0,1
388,388,-0.8309740593011831,-0.8,0.0,1.0,270.0,803.0,1.0,0,277.0,1
389,389,-0.18955123971828824,-0.2,1.0,0.0,274.0,867.0,0.0,0,599.0,1
390,390,-0.873513426043257,-0.9,1.0,0.0,391.0,556.0,0.0,0,543.0,1
391,391,0.14586583399358866,0.1,1.0,1.0,303.0,967.0,1.0,1,1870.0,1
392,392,0.3962588509554309,0.4,0.0,0.0,454.0,749.0,0.0,1,457.0,1
393,393,-0.5669012793657442,-0.6,0.0,1.0,318.0,747.0,1.0,0,605.0,1
394,394,0.2771899349585928,0.3,0.0,0.0,459.0,659.0,0.0,1,172.0,1
395,395,-0.7952241620577101,-0.8,0.0,1.0,450.0,944.0,1.0,0,76.0,1
396,396,-0.5926861254818083,-0.6,1.0,0.0,395.0,672.0,0.0,0,473.0,1
397,397,0.5074468767730743,0.5,0.0,0.0,345.0,816.0,0.0,1,179.0,1
398,398,0.7330301106531415,0.7,0.0,0.0,388.0,674.0,0.0,1,288.0,1
399,399,0.3630353535633798,0.4,1.0,1.0,352.0,660.0,1.0,1,728.0,1
400,400,-0.09305532741324485,-0.1,0.0,1.0,354.0,644.0,0.0,1,352.0,0
401,401,0.7297852512490915,0.7,0.0,0.0,358.0,993.0,0.0,1,-41.0,1
402,402,0.5028519999702384,0.5,0.0,0.0,303.0,756.0,0.0,1,131.0,1
403,403,-0.7445360982701558,-0.7,1.0,0.0,434.0,770.0,0.0,0,326.0,1
404,404,-0.6505199501099128,-0.7,0.0,1.0,400.0,994.0,1.0,0,206.0,1
405,405,-0.022697234583486492,-0.0,0.0,1.0,306.0,985.0,0.0,1,-61.0,0
406,406,0.0486083884756483,0.0,0.0,0.0,374.0,763.0,0.0,1,1293.0,1
407,407,-0.1406362106947241,-0.1,0.0,1.0,281.0,636.0,0.0,1,133.0,0
408,408,-0.8730232150607146,-0.9,1.0,0.0,344.0,513.0,0.0,0,733.0,1
409,409,-0.7359849063027781,-0.7,0.0,1.0,344.0,730.0,1.0,0,366.0,1
410,410,-0.6335888295541332,-0.6,0.0,1.0,253.0,747.0,0.0,1,80.0,0
411,411,0.8624417495430418,0.9,0.0,0.0,343.0,524.0,0.0,1,263.0,1
412,412,0.29348513617055516,0.3,0.0,0.0,481.0,744.0,0.0,1,775.0,1
413,413,-0.5662197648698922,-0.6,0.0,1.0,336.0,623.0,1.0,0,1571.0,1
414,414,-0.24990448615300453,-0.2,0.0,1.0,268.0,706.0,1.0,0,306.0,1
415,415,-0.1587330721086747,-0.2,0.0,1.0,340.0,893.0,1.0,0,687.0,1
416,416,0.29898711526510857,0.3,1.0,1.0,420.0,628.0,1.0,1,512.0,1
417,417,0.8039553103308871,0.8,1.0,1.0,473.0,610.0,1.0,1,357.0,1
418,418,0.01320226202424446,0.0,0.0,0.0,314.0,592.0,0.0,1,2374.0,1
419,419,-0.6906146558073756,-0.7,1.0,0.0,363.0,816.0,0.0,0,371.0,1
420,420,0.6547392134811388,0.7,0.0,0.0,322.0,715.0,0.0,1,413.0,1
421,421,0.04227270776153835,0.0,1.0,1.0,312.0,613.0,0.0,0,915.0,0
422,422,-0.2303646862613271,-0.2,0.0,1.0,253.0,875.0,1.0,0,622.0,1
423,423,0.33848167435480214,0.3,0.0,0.0,272.0,964.0,0.0,1,-76.0,1
424,424,0.7756125750496937,0.8,1.0,1.0,452.0,511.0,1.0,1,387.0,1
425,425,0.19755171162774088,0.2,1.0,1.0,263.0,764.0,1.0,1,393.0,1
426,426,-0.10673984327828279,-0.1,1.0,0.0,462.0,952.0,0.0,0,566.0,1
427,427,0.3871763629787751,0.4,1.0,1.0,465.0,835.0,1.0,1,630.0,1
428,428,-0.24819253504720018,-0.2,1.0,0.0,293.0,564.0,0.0,0,593.0,1
429,429,-0.41031183525210285,-0.4,1.0,0.0,300.0,676.0,0.0,0,524.0,1
430,430,0.010664424959335839,0.0,1.0,1.0,294.0,995.0,1.0,1,1261.0,1
431,431,-0.3103033821224863,-0.3,0.0,1.0,407.0,681.0,1.0,0,452.0,1
432,432,0.7855428675838986,0.8,1.0,1.0,341.0,822.0,1.0,1,257.0,1
433,433,0.31773539672625073,0.3,0.0,0.0,321.0,561.0,0.0,1,1228.0,1
434,434,-0.17475763259028754,-0.2,1.0,0.0,276.0,888.0,0.0,0,496.0,1
435,435,-0.44652654798354297,-0.4,0.0,1.0,405.0,666.0,1.0,0,1029.0,1
436,436,0.2297252545664562,0.2,0.0,0.0,331.0,798.0,0.0,1,371.0,1
437,437,0.7388509926439658,0.7,1.0,1.0,413.0,524.0,1.0,1,303.0,1
438,438,-0.2776600692027328,-0.3,1.0,0.0,364.0,669.0,0.0,0,437.0,1
439,439,-0.05330456978693532,-0.1,0.0,1.0,436.0,997.0,0.0,1,637.0,0
440,440,0.5265869218347049,0.5,1.0,1.0,250.0,787.0,1.0,1,523.0,1
441,441,-0.10609421305441613,-0.1,1.0,0.0,384.0,692.0,0.0,0,194.0,1
442,442,-0.7808431812380889,-0.8,0.0,1.0,369.0,769.0,1.0,0,352.0,1
443,443,-0.33034676870544877,-0.3,1.0,0.0,380.0,564.0,0.0,0,276.0,1
444,444,0.7893148000372429,0.8,1.0,1.0,428.0,684.0,1.0,1,288.0,1
445,445,0.32173450870533415,0.3,1.0,1.0,429.0,651.0,1.0,1,280.0,1
446,446,-0.645520524593872,-0.6,0.0,1.0,387.0,848.0,1.0,0,665.0,1
447,447,-0.1362302356699867,-0.1,1.0,0.0,251.0,501.0,0.0,0,658.0,1
448,448,-0.6106475003630947,-0.6,0.0,1.0,442.0,687.0,1.0,0,411.0,1
449,449,-0.8024797876119795,-0.8,0.0,1.0,408.0,801.0,1.0,0,111.0,1
450,450,0.7582728455305691,0.8,1.0,1.0,475.0,919.0,1.0,1,186.0,1
451,451,0.3441889635855119,0.3,0.0,0.0,269.0,804.0,0.0,1,517.0,1
452,452,-0.35019870624977156,-0.4,1.0,0.0,489.0,631.0,0.0,0,520.0,1
453,453,0.5337902424623425,0.5,0.0,0.0,344.0,940.0,0.0,1,386.0,1
454,454,-0.5413889965962981,-0.5,1.0,0.0,430.0,961.0,0.0,0,129.0,1
455,455,0.7506782636631236,0.8,1.0,1.0,298.0,865.0,1.0,1,447.0,1
456,456,-0.6972597571833328,-0.7,1.0,0.0,344.0,668.0,0.0,0,748.0,1
457,457,0.724880301112646,0.7,0.0,0.0,294.0,655.0,0.0,1,221.0,1
458,458,0.8863617313458206,0.9,1.0,1.0,266.0,588.0,1.0,1,316.0,1
459,459,0.05380100646078767,0.1,0.0,0.0,379.0,807.0,0.0,1,994.0,1
460,460,-0.43008301356966183,-0.4,0.0,1.0,278.0,522.0,1.0,0,980.0,1
461,461,0.1363568484197385,0.1,0.0,0.0,381.0,934.0,0.0,1,1565.0,1
462,462,-0.8848973977062515,-0.9,0.0,1.0,389.0,923.0,1.0,0,478.0,1
463,463,0.554105119730412,0.6,0.0,0.0,320.0,982.0,1.0,0,68.0,0
464,464,0.6590535118021369,0.7,1.0,1.0,354.0,940.0,1.0,1,166.0,1
465,465,0.28944632322098374,0.3,1.0,1.0,407.0,759.0,1.0,1,434.0,1
466,466,0.8823981554005885,0.9,0.0,0.0,473.0,934.0,0.0,1,183.0,1
467,467,0.30284210252438337,0.3,1.0,1.0,435.0,723.0,1.0,1,422.0,1
468,468,-0.13918550752235548,-0.1,0.0,1.0,287.0,985.0,0.0,1,-92.0,0
469,469,0.24796721956365786,0.2,1.0,1.0,271.0,846.0,1.0,1,403.0,1
470,470,-0.2740009726288085,-0.3,1.0,0.0,436.0,732.0,0.0,0,202.0,1
471,471,-0.7244398794206515,-0.7,1.0,0.0,339.0,956.0,0.0,0,155.0,1
472,472,0.06286764705150039,0.1,0.0,0.0,257.0,598.0,0.0,1,985.0,1
473,473,-0.193012676532622,-0.2,0.0,1.0,405.0,801.0,1.0,0,854.0,1
474,474,0.1740486974360863,0.2,0.0,0.0,302.0,544.0,0.0,1,994.0,1
475,475,0.5532160748352942,0.6,0.0,0.0,256.0,727.0,0.0,1,287.0,1
476,476,0.14833767766930717,0.1,0.0,0.0,394.0,588.0,0.0,1,798.0,1
477,477,0.45170668453425245,0.5,1.0,1.0,492.0,721.0,1.0,1,157.0,1
478,478,-0.5756782843516788,-0.6,1.0,0.0,494.0,941.0,0.0,0,145.0,1
479,479,-0.2747888314561445,-0.3,0.0,1.0,386.0,583.0,1.0,0,801.0,1
480,480,0.8289181892199383,0.8,1.0,1.0,309.0,589.0,1.0,1,392.0,1
481,481,-0.574937758281504,-0.6,1.0,0.0,459.0,685.0,0.0,0,386.0,1
482,482,-0.8303940787182298,-0.8,0.0,1.0,430.0,942.0,1.0,0,388.0,1
483,483,-0.712305299841957,-0.7,0.0,1.0,307.0,548.0,1.0,0,325.0,1
484,484,-0.5426287770006297,-0.5,1.0,0.0,309.0,539.0,0.0,0,242.0,1
485,485,-0.09921690290137553,-0.1,0.0,1.0,340.0,795.0,0.0,1,55.0,0
486,486,0.6081665800936299,0.6,0.0,0.0,441.0,547.0,0.0,1,262.0,1
487,487,-0.1022383147575805,-0.1,0.0,1.0,447.0,832.0,1.0,0,61.0,1
488,488,0.5675350296056255,0.6,1.0,1.0,358.0,734.0,1.0,1,538.0,1
489,489,-0.6157863310395857,-0.6,1.0,0.0,350.0,877.0,0.0,0,253.0,1
490,490,0.6434956333773157,0.6,1.0,1.0,447.0,607.0,1.0,1,326.0,1
491,491,-0.6851273693568447,-0.7,1.0,0.0,259.0,724.0,0.0,0,517.0,1
492,492,-0.7111541023133443,-0.7,0.0,1.0,404.0,812.0,1.0,0,354.0,1
493,493,-0.12391886090816118,-0.1,1.0,0.0,305.0,665.0,0.0,0,890.0,1
494,494,0.6572736099044413,0.7,0.0,0.0,274.0,706.0,0.0,1,410.0,1
495,495,0.2855085809000323,0.3,0.0,0.0,306.0,861.0,0.0,1,863.0,1
496,496,-0.8998074183260566,-0.9,1.0,0.0,464.0,529.0,0.0,0,377.0,1
497,497,-0.2317590471589045,-0.2,0.0,1.0,285.0,650.0,1.0,0,1345.0,1
498,498,-0.7838978633110091,-0.8,0.0,1.0,449.0,814.0,1.0,0,247.0,1
499,499,0.4495763705508212,0.4,1.0,1.0,330.0,593.0,1.0,1,437.0,1
500,500,-0.46870847718452374,-0.5,0.0,1.0,264.0,570.0,1.0,0,1046.0,1
501,501,-0.23789965063867213,-0.2,0.0,1.0,411.0,892.0,0.0,1,-13.0,0
502,502,-0.47102482885681446,-0.5,0.0,1.0,441.0,510.0,1.0,0,879.0,1
503,503,0.31452393228470543,0.3,1.0,1.0,491.0,897.0,1.0,1,192.0,1
504,504,-0.04517046224798682,-0.0,1.0,0.0,423.0,928.0,0.0,0,2569.0,1
505,505,-0.2687439228508217,-0.3,0.0,1.0,332.0,764.0,1.0,0,654.0,1
506,506,0.3829942910587575,0.4,0.0,0.0,384.0,537.0,0.0,1,409.0,1
507,507,-0.2828082951473926,-0.3,0.0,1.0,340.0,628.0,1.0,0,462.0,1
508,508,-0.3131209012227819,-0.3,0.0,1.0,459.0,559.0,1.0,0,1952.0,1
509,509,-0.8794895264159156,-0.9,0.0,1.0,465.0,958.0,1.0,0,67.0,1
510,510,0.239709131037097,0.2,1.0,1.0,423.0,745.0,1.0,1,522.0,1
511,511,0.876875765079051,0.9,0.0,0.0,461.0,689.0,0.0,1,230.0,1
512,512,0.34385224541095416,0.3,0.0,0.0,270.0,953.0,0.0,1,297.0,1
513,513,-0.6428601722673442,-0.6,0.0,1.0,449.0,786.0,1.0,0,355.0,1
514,514,-0.4924528444109039,-0.5,1.0,0.0,257.0,654.0,0.0,0,319.0,1
515,515,-0.8744803877694385,-0.9,0.0,1.0,416.0,517.0,1.0,0,407.0,1
516,516,0.7427028918354664,0.7,1.0,1.0,393.0,781.0,1.0,1,346.0,1
517,517,-0.726161337496759,-0.7,1.0,0.0,402.0,677.0,0.0,0,341.0,1
518,518,0.7009601551744297,0.7,0.0,0.0,378.0,785.0,0.0,1,337.0,1
519,519,-0.4264670787796535,-0.4,1.0,0.0,285.0,651.0,0.0,0,474.0,1
520,520,-0.06495376902536565,-0.1,1.0,0.0,442.0,751.0,0.0,0,747.0,1
521,521,-0.4782857525345084,-0.5,0.0,1.0,490.0,707.0,1.0,0,443.0,1
522,522,0.784547925648671,0.8,1.0,1.0,291.0,797.0,1.0,1,122.0,1
523,523,-0.892968742023463,-0.9,0.0,1.0,284.0,593.0,1.0,0,243.0,1
524,524,-0.7926596815096182,-0.8,1.0,0.0,270.0,739.0,0.0,0,731.0,1
525,525,0.037422832940274486,0.0,1.0,1.0,318.0,960.0,1.0,1,602.0,1
526,526,-0.6621520689403791,-0.7,1.0,0.0,394.0,701.0,0.0,0,285.0,1
527,527,0.7143492723459713,0.7,1.0,1.0,277.0,906.0,1.0,1,647.0,1
528,528,0.565326141175105,0.6,1.0,1.0,322.0,637.0,1.0,1,401.0,1
529,529,-0.5152094455263212,-0.5,1.0,0.0,347.0,682.0,0.0,0,611.0,1
530,530,0.4229071567674533,0.4,1.0,1.0,490.0,543.0,1.0,1,617.0,1
531,531,-0.7259391284378232,-0.7,1.0,0.0,275.0,505.0,0.0,0,400.0,1
532,532,-0.4683273558143993,-0.5,1.0,0.0,297.0,902.0,0.0,0,341.0,1
533,533,0.7853191286474882,0.8,1.0,1.0,434.0,790.0,1.0,1,186.0,1
534,534,0.44027135425898634,0.4,1.0,1.0,492.0,921.0,1.0,1,117.0,1
535,535,-0.39743668952188693,-0.4,0.0,1.0,293.0,631.0,1.0,0,1856.0,1
536,536,0.4857058838252105,0.5,1.0,1.0,269.0,986.0,1.0,1,445.0,1
537,537,0.7724501648430507,0.8,1.0,1.0,417.0,599.0,1.0,1,224.0,1
538,538,-0.5200631686494495,-0.5,0.0,1.0,405.0,500.0,1.0,0,565.0,1
539,539,0.0946669623269848,0.1,0.0,0.0,308.0,835.0,1.0,0,1467.0,0
540,540,-0.4253778782243854,-0.4,1.0,0.0,296.0,511.0,0.0,0,463.0,1
541,541,0.4192205161655137,0.4,0.0,0.0,254.0,899.0,0.0,1,137.0,1
542,542,-0.49678146173071097,-0.5,1.0,0.0,355.0,664.0,0.0,0,481.0,1
543,543,0.6772244056954652,0.7,0.0,0.0,327.0,819.0,0.0,1,414.0,1
544,544,-0.1770575572625488,-0.2,0.0,1.0,370.0,937.0,1.0,0,293.0,1
545,545,0.5811090019915387,0.6,1.0,1.0,497.0,674.0,1.0,1,689.0,1
546,546,0.12698200702449125,0.1,1.0,1.0,263.0,655.0,1.0,1,1462.0,1
547,547,0.3392063147673158,0.3,1.0,1.0,456.0,503.0,1.0,1,741.0,1
548,548,-0.5555097477509138,-0.6,1.0,0.0,264.0,794.0,0.0,0,282.0,1
549,549,-0.6970692848816592,-0.7,0.0,1.0,363.0,722.0,1.0,0,495.0,1
550,550,0.13291678359565784,0.1,0.0,0.0,343.0,816.0,0.0,1,561.0,1
551,551,0.025814601863704767,0.0,0.0,0.0,357.0,599.0,0.0,1,684.0,1
552,552,0.5304629355773843,0.5,1.0,1.0,457.0,793.0,1.0,1,100.0,1
553,553,-0.39199782813974704,-0.4,0.0,1.0,262.0,500.0,1.0,0,678.0,1
554,554,0.7458782762483737,0.7,0.0,0.0,347.0,621.0,0.0,1,322.0,1
555,555,0.7628752212910123,0.8,1.0,1.0,446.0,820.0,1.0,1,94.0,1
556,556,0.5432848319302496,0.5,1.0,1.0,264.0,630.0,1.0,1,216.0,1
557,557,-0.05930625803153178,-0.1,1.0,0.0,363.0,707.0,0.0,0,980.0,1
558,558,-0.77022356902873,-0.8,0.0,1.0,314.0,654.0,1.0,0,312.0,1
559,559,-0.22623727520315273,-0.2,1.0,0.0,264.0,697.0,0.0,0,1079.0,1
560,560,-0.42529300283747445,-0.4,1.0,0.0,268.0,718.0,0.0,0,494.0,1
561,561,-0.8159711566808012,-0.8,0.0,1.0,329.0,835.0,0.0,1,-14.0,0
562,562,0.5746826869425404,0.6,0.0,0.0,298.0,887.0,0.0,1,355.0,1
563,563,-0.11296493157776333,-0.1,1.0,0.0,387.0,603.0,0.0,0,460.0,1
564,564,0.5736494667588637,0.6,0.0,0.0,415.0,898.0,0.0,1,317.0,1
565,565,-0.5265143579456852,-0.5,1.0,0.0,401.0,915.0,0.0,0,384.0,1
566,566,-0.09676965588922914,-0.1,0.0,1.0,311.0,895.0,0.0,1,1674.0,0
567,567,-0.09266781356469023,-0.1,0.0,1.0,448.0,837.0,1.0,0,2395.0,1
568,568,-0.3873136408917277,-0.4,0.0,1.0,391.0,941.0,0.0,1,28.0,0
569,569,-0.1949615835224452,-0.2,0.0,1.0,379.0,612.0,1.0,0,89.0,1
570,570,-0.6488663037412504,-0.6,0.0,1.0,316.0,601.0,1.0,0,353.0,1
571,571,-0.29067497934421815,-0.3,0.0,1.0,406.0,890.0,1.0,0,1234.0,1
572,572,0.5065564260427512,0.5,1.0,1.0,411.0,994.0,1.0,1,15.0,1
573,573,-0.2927900500294005,-0.3,0.0,1.0,342.0,736.0,1.0,0,442.0,1
574,574,0.03714353935492043,0.0,0.0,0.0,299.0,886.0,1.0,0,15.0,0
575,575,0.8173699221857732,0.8,0.0,0.0,281.0,686.0,0.0,1,43.0,1
576,576,0.05933585736811753,0.1,1.0,1.0,410.0,813.0,1.0,1,507.0,1
577,577,0.1338989814572792,0.1,0.0,0.0,437.0,715.0,0.0,1,688.0,1
578,578,0.21592338359280194,0.2,0.0,0.0,272.0,534.0,0.0,1,464.0,1
579,579,0.040819487094110096,0.0,1.0,1.0,281.0,684.0,1.0,1,1185.0,1
580,580,-0.29567318844877855,-0.3,1.0,0.0,477.0,705.0,0.0,0,598.0,1
581,581,0.29874238604291403,0.3,1.0,1.0,295.0,546.0,1.0,1,969.0,1
582,582,0.34976328441808946,0.3,0.0,0.0,442.0,505.0,0.0,1,433.0,1
583,583,-0.8197359435931142,-0.8,0.0,1.0,329.0,813.0,1.0,0,108.0,1
584,584,-0.24903117621333826,-0.2,0.0,1.0,396.0,892.0,1.0,0,162.0,1
585,585,0.8636870090882788,0.9,1.0,1.0,251.0,632.0,1.0,1,237.0,1
586,586,0.10845227646572264,0.1,1.0,1.0,433.0,982.0,0.0,0,955.0,0
587,587,0.6829337680101236,0.7,0.0,0.0,328.0,525.0,0.0,1,347.0,1
588,588,-0.6993546837525778,-0.7,1.0,0.0,485.0,727.0,0.0,0,238.0,1
589,589,0.4835361104473327,0.5,1.0,1.0,263.0,602.0,1.0,1,945.0,1
590,590,-0.5408144170740381,-0.5,1.0,0.0,450.0,733.0,0.0,0,237.0,1
591,591,-0.7564271775050939,-0.8,0.0,1.0,403.0,910.0,1.0,0,397.0,1
592,592,-0.6103459926180441,-0.6,0.0,1.0,378.0,858.0,1.0,0,394.0,1
593,593,-0.3948406448088311,-0.4,1.0,0.0,394.0,514.0,0.0,0,602.0,1
594,594,-0.42415306463017477,-0.4,1.0,0.0,259.0,507.0,0.0,0,544.0,1
595,595,0.1697829906562741,0.2,0.0,0.0,404.0,950.0,0.0,1,856.0,1
596,596,-0.32874281961178986,-0.3,1.0,0.0,294.0,789.0,0.0,0,327.0,1
597,597,-0.8644434726360584,-0.9,1.0,0.0,282.0,522.0,0.0,0,536.0,1
598,598,-0.12369031223853821,-0.1,1.0,0.0,400.0,557.0,0.0,0,1323.0,1
599,599,-0.7586671868312085,-0.8,1.0,0.0,267.0,734.0,0.0,0,439.0,1
600,600,0.6485977131863127,0.6,0.0,0.0,413.0,997.0,0.0,1,-50.0,1
601,601,-0.704248539258045,-0.7,1.0,0.0,366.0,856.0,0.0,0,528.0,1
602,602,0.09551730975390982,0.1,1.0,1.0,408.0,555.0,1.0,1,1697.0,1
603,603,-0.8826634111693051,-0.9,0.0,1.0,391.0,806.0,1.0,0,453.0,1
604,604,-0.2746984607070422,-0.3,1.0,0.0,413.0,768.0,0.0,0,1059.0,1
605,605,-0.22506623057705544,-0.2,0.0,1.0,429.0,650.0,1.0,0,621.0,1
606,606,0.5347971669281427,0.5,1.0,1.0,338.0,829.0,1.0,1,633.0,1
607,607,0.7899309951948675,0.8,0.0,0.0,449.0,825.0,1.0,0,16.0,0
608,608,-0.10373928825311973,-0.1,1.0,0.0,357.0,790.0,0.0,0,823.0,1
609,609,-0.06924944522295529,-0.1,0.0,1.0,261.0,643.0,0.0,1,816.0,0
610,610,0.80935050066775,0.8,1.0,1.0,401.0,571.0,1.0,1,288.0,1
611,611,0.45053961174970525,0.5,1.0,1.0,276.0,927.0,1.0,1,-13.0,1
612,612,-0.8524384503964912,-0.9,1.0,0.0,454.0,565.0,0.0,0,331.0,1
613,613,0.7951526049851355,0.8,1.0,1.0,278.0,588.0,1.0,1,264.0,1
614,614,0.16466996772396347,0.2,1.0,1.0,449.0,513.0,1.0,1,838.0,1
615,615,-0.14129917060327712,-0.1,1.0,0.0,386.0,584.0,0.0,0,1600.0,1
616,616,-0.31595955748634685,-0.3,0.0,1.0,306.0,580.0,1.0,0,1024.0,1
617,617,-0.8314092320479458,-0.8,1.0,0.0,324.0,989.0,0.0,0,127.0,1
618,618,0.26334837295952307,0.3,0.0,0.0,366.0,910.0,0.0,1,194.0,1
619,619,-0.28736651937535085,-0.3,1.0,0.0,428.0,685.0,0.0,0,667.0,1
620,620,-0.6783161842858714,-0.7,1.0,0.0,385.0,680.0,0.0,0,335.0,1
621,621,0.20236098419024617,0.2,1.0,1.0,493.0,633.0,1.0,1,534.0,1
622,622,-0.6986675237300564,-0.7,0.0,1.0,457.0,592.0,1.0,0,691.0,1
623,623,-0.6135081605402429,-0.6,1.0,0.0,378.0,551.0,0.0,0,211.0,1
624,624,0.5497184976705473,0.5,0.0,0.0,250.0,500.0,1.0,0,0.0,0
625,625,0.40333860745278594,0.4,1.0,1.0,499.0,822.0,1.0,1,419.0,1
626,626,-0.7783054705664467,-0.8,1.0,0.0,427.0,685.0,0.0,0,268.0,1
627,627,-0.1947593581451481,-0.2,1.0,0.0,484.0,868.0,1.0,1,-62.0,0
628,628,0.8905264388128614,0.9,0.0,0.0,436.0,935.0,0.0,1,449.0,1
629,629,0.22832950565620636,0.2,1.0,1.0,467.0,711.0,1.0,1,372.0,1
630,630,-0.8960024950250608,-0.9,1.0,0.0,323.0,640.0,0.0,0,797.0,1
631,631,0.4849582707187282,0.5,1.0,1.0,336.0,614.0,1.0,1,320.0,1
632,632,-0.7816893614780405,-0.8,1.0,0.0,451.0,946.0,0.0,0,843.0,1
633,633,-0.8764350421470654,-0.9,0.0,1.0,266.0,524.0,1.0,0,360.0,1
634,634,0.027417765882764566,0.0,0.0,0.0,452.0,887.0,0.0,1,531.0,1
635,635,-0.8611821042885285,-0.9,0.0,1.0,385.0,678.0,1.0,0,317.0,1
636,636,0.5458243318287385,0.5,1.0,1.0,356.0,727.0,1.0,1,287.0,1
637,637,-0.6956099177349562,-0.7,1.0,0.0,453.0,713.0,0.0,0,554.0,1
638,638,0.06848010372291025,0.1,1.0,1.0,487.0,957.0,0.0,0,626.0,0
639,639,-0.2836771137625419,-0.3,0.0,1.0,412.0,735.0,1.0,0,943.0,1
640,640,0.23406519658411817,0.2,0.0,0.0,350.0,548.0,0.0,1,332.0,1
641,641,-0.7535062842647713,-0.8,0.0,1.0,434.0,533.0,1.0,0,253.0,1
642,642,0.40330437056580204,0.4,1.0,1.0,300.0,946.0,1.0,1,374.0,1
643,643,0.5838211680570352,0.6,1.0,1.0,369.0,967.0,1.0,1,354.0,1
644,644,-0.23094111926547545,-0.2,1.0,0.0,254.0,595.0,1.0,1,-9.0,0
645,645,0.003021479281346995,0.0,0.0,0.0,291.0,705.0,0.0,1,154.0,1
646,646,0.5212470827090486,0.5,1.0,1.0,388.0,749.0,1.0,1,333.0,1
647,647,-0.6271257077919558,-0.6,0.0,1.0,414.0,967.0,1.0,0,479.0,1
648,648,-0.1578011351457388,-0.2,0.0,1.0,453.0,593.0,1.0,0,334.0,1
649,649,0.8243821466249567,0.8,0.0,0.0,488.0,542.0,0.0,1,630.0,1
650,650,0.5074507850971356,0.5,0.0,0.0,255.0,811.0,0.0,1,394.0,1
651,651,0.20597982274004367,0.2,1.0,1.0,282.0,942.0,1.0,1,436.0,1
652,652,0.3580142280770894,0.4,0.0,0.0,434.0,641.0,0.0,1,465.0,1
653,653,0.09374086744009857,0.1,1.0,1.0,324.0,934.0,0.0,0,382.0,0
654,654,-0.8531617480355477,-0.9,0.0,1.0,386.0,625.0,1.0,0,529.0,1
655,655,0.36782078593715795,0.4,0.0,0.0,480.0,854.0,0.0,1,266.0,1
656,656,0.4110012351911304,0.4,1.0,1.0,322.0,999.0,1.0,1,439.0,1
657,657,-0.16691346686904462,-0.2,0.0,1.0,477.0,548.0,1.0,0,355.0,1
658,658,0.849357038556764,0.8,1.0,1.0,483.0,918.0,1.0,1,319.0,1
659,659,-0.4753938033979317,-0.5,0.0,1.0,264.0,957.0,1.0,0,229.0,1
660,660,-0.08396913214405244,-0.1,1.0,0.0,254.0,947.0,1.0,1,2449.0,0
661,661,0.2744504923494048,0.3,1.0,1.0,342.0,511.0,1.0,1,287.0,1
662,662,0.8944567430693674,0.9,1.0,1.0,316.0,584.0,1.0,1,270.0,1
663,663,0.3998432788285796,0.4,0.0,0.0,256.0,597.0,0.0,1,487.0,1
664,664,0.02896345612392215,0.0,0.0,0.0,429.0,590.0,1.0,0,1281.0,0
665,665,0.8404569462581141,0.8,1.0,1.0,371.0,878.0,1.0,1,191.0,1
666,666,0.039938748882177966,0.0,0.0,0.0,459.0,825.0,1.0,0,916.0,0
667,667,0.7830530445754461,0.8,1.0,1.0,303.0,595.0,1.0,1,222.0,1
668,668,-0.8391867202167169,-0.8,0.0,1.0,287.0,989.0,1.0,0,224.0,1
669,669,-0.4710721209529192,-0.5,1.0,0.0,466.0,791.0,1.0,1,-197.0,0
670,670,-0.1502567098567541,-0.2,1.0,0.0,360.0,787.0,0.0,0,613.0,1
671,671,0.06188342265335989,0.1,0.0,0.0,395.0,794.0,1.0,0,1871.0,0
672,672,0.07570829938310453,0.1,1.0,1.0,253.0,514.0,0.0,0,1463.0,0
673,673,-0.045159066844683515,-0.0,1.0,0.0,499.0,953.0,0.0,0,-112.0,1
674,674,0.811334006795485,0.8,1.0,1.0,271.0,784.0,1.0,1,275.0,1
675,675,0.6950402590872303,0.7,0.0,0.0,289.0,673.0,0.0,1,408.0,1
676,676,-0.8614272473533943,-0.9,1.0,0.0,299.0,975.0,0.0,0,336.0,1
677,677,0.16758887012121704,0.2,0.0,0.0,476.0,967.0,0.0,1,127.0,1
678,678,0.10556894550648266,0.1,1.0,1.0,345.0,807.0,1.0,1,278.0,1
679,679,-0.5240381183348074,-0.5,1.0,0.0,372.0,694.0,0.0,0,644.0,1
680,680,-0.13501688512251986,-0.1,1.0,0.0,275.0,650.0,0.0,0,385.0,1
681,681,0.09066548418584364,0.1,0.0,0.0,315.0,992.0,1.0,0,3.0,0
682,682,-0.15407839212774632,-0.2,0.0,1.0,434.0,697.0,0.0,1,1429.0,0
683,683,0.8431279897988849,0.8,0.0,0.0,253.0,858.0,0.0,1,119.0,1
684,684,0.24296342854190345,0.2,1.0,1.0,399.0,985.0,1.0,1,-174.0,1
685,685,0.2182128485406497,0.2,0.0,0.0,414.0,776.0,0.0,1,300.0,1
686,686,-0.7810924349561875,-0.8,1.0,0.0,352.0,674.0,0.0,0,394.0,1
687,687,-0.8353105630318405,-0.8,1.0,0.0,426.0,504.0,0.0,0,630.0,1
688,688,0.6114260330378135,0.6,0.0,0.0,336.0,827.0,0.0,1,127.0,1
689,689,-0.6738984020054464,-0.7,1.0,0.0,480.0,945.0,0.0,0,155.0,1
690,690,-0.5930286990605809,-0.6,0.0,1.0,363.0,634.0,1.0,0,363.0,1
691,691,0.07736358893463069,0.1,0.0,0.0,486.0,771.0,1.0,0,463.0,0
692,692,-0.8767676029720451,-0.9,1.0,0.0,255.0,754.0,0.0,0,351.0,1
693,693,0.5401697925616001,0.5,0.0,0.0,394.0,561.0,0.0,1,495.0,1
694,694,0.5474671770298943,0.5,1.0,1.0,313.0,628.0,1.0,1,579.0,1
695,695,-0.6950422806555842,-0.7,1.0,0.0,255.0,835.0,0.0,0,970.0,1
696,696,0.5513388098528734,0.6,1.0,1.0,256.0,621.0,1.0,1,83.0,1
697,697,-0.6985101527867346,-0.7,1.0,0.0,413.0,694.0,0.0,0,533.0,1
698,698,0.7494925719792628,0.7,0.0,0.0,381.0,502.0,0.0,1,407.0,1
699,699,-0.024309608030604224,-0.0,1.0,0.0,382.0,670.0,0.0,0,668.0,1
700,700,-0.1788646986625505,-0.2,0.0,1.0,453.0,740.0,1.0,0,917.0,1
701,701,0.07746847361808007,0.1,0.0,0.0,301.0,661.0,0.0,1,758.0,1
702,702,-0.8443956146167225,-0.8,1.0,0.0,361.0,752.0,0.0,0,217.0,1
703,703,0.1757505204296611,0.2,0.0,0.0,295.0,805.0,0.0,1,1060.0,1
704,704,-0.21039206580760894,-0.2,0.0,1.0,410.0,535.0,0.0,1,1225.0,0
705,705,-0.32535260633413887,-0.3,0.0,1.0,329.0,896.0,1.0,0,75.0,1
706,706,-0.4654315573394598,-0.5,0.0,1.0,344.0,510.0,1.0,0,706.0,1
707,707,-0.5146774813875388,-0.5,0.0,1.0,421.0,937.0,1.0,0,142.0,1
708,708,-0.3919759462015976,-0.4,0.0,1.0,321.0,791.0,1.0,0,898.0,1
709,709,0.511555709280079,0.5,1.0,1.0,362.0,663.0,1.0,1,205.0,1
710,710,0.859556704627873,0.9,0.0,0.0,276.0,658.0,0.0,1,596.0,1
711,711,-0.8024565367427373,-0.8,1.0,0.0,471.0,731.0,0.0,0,388.0,1
712,712,0.17248586177454606,0.2,1.0,1.0,275.0,984.0,1.0,1,651.0,1
713,713,-0.8372269812377265,-0.8,0.0,1.0,447.0,657.0,1.0,0,336.0,1
714,714,0.5289296376486959,0.5,1.0,1.0,273.0,959.0,1.0,1,358.0,1
715,715,-0.8006579118754928,-0.8,0.0,1.0,339.0,608.0,1.0,0,303.0,1
716,716,-0.06657248436170338,-0.1,0.0,1.0,274.0,672.0,0.0,1,534.0,0
717,717,-0.2754793167893054,-0.3,0.0,1.0,460.0,764.0,1.0,0,806.0,1
718,718,0.20113472399072874,0.2,1.0,1.0,304.0,802.0,1.0,1,494.0,1
719,719,-0.47940783459935205,-0.5,0.0,1.0,449.0,644.0,1.0,0,407.0,1
720,720,0.4609973037426901,0.5,1.0,1.0,294.0,912.0,1.0,1,444.0,1
721,721,-0.5701194239200718,-0.6,0.0,1.0,263.0,512.0,1.0,0,735.0,1
722,722,0.2476007658090572,0.2,0.0,0.0,298.0,973.0,0.0,1,1219.0,1
723,723,0.47204416851607467,0.5,1.0,1.0,392.0,579.0,1.0,1,589.0,1
724,724,0.4199632429652099,0.4,0.0,0.0,406.0,805.0,0.0,1,369.0,1
725,725,0.6957945952365304,0.7,0.0,0.0,300.0,837.0,1.0,0,-27.0,0
726,726,0.5175700337364065,0.5,1.0,1.0,492.0,925.0,1.0,1,453.0,1
727,727,-0.7686477076318593,-0.8,1.0,0.0,380.0,827.0,0.0,0,273.0,1
728,728,0.3832283004615683,0.4,0.0,0.0,394.0,788.0,0.0,1,1108.0,1
729,729,0.5117693031033873,0.5,0.0,0.0,407.0,601.0,0.0,1,202.0,1
730,730,0.8592244643733457,0.9,0.0,0.0,445.0,893.0,0.0,1,122.0,1
731,731,0.1410080711326286,0.1,0.0,0.0,376.0,895.0,0.0,1,679.0,1
732,732,0.49184492636372024,0.5,1.0,1.0,375.0,675.0,1.0,1,440.0,1
733,733,0.5251739213661609,0.5,1.0,1.0,305.0,613.0,1.0,1,302.0,1
734,734,0.32852035676173486,0.3,1.0,1.0,386.0,933.0,1.0,1,-59.0,1
735,735,-0.7483333345333248,-0.7,1.0,0.0,354.0,608.0,0.0,0,408.0,1
736,736,0.2401841809110462,0.2,0.0,0.0,438.0,850.0,0.0,1,1452.0,1
737,737,0.4556146343845334,0.5,0.0,0.0,461.0,528.0,0.0,1,341.0,1
738,738,-0.7427643451365746,-0.7,1.0,0.0,448.0,615.0,0.0,0,507.0,1
739,739,0.23039143052822653,0.2,0.0,0.0,278.0,534.0,0.0,1,578.0,1
740,740,-0.8183573195309211,-0.8,0.0,1.0,389.0,530.0,1.0,0,671.0,1
741,741,0.7475882012667617,0.7,0.0,0.0,285.0,614.0,0.0,1,451.0,1
742,742,-0.6666542761427063,-0.7,1.0,0.0,315.0,543.0,0.0,0,352.0,1
743,743,-0.078975873962433,-0.1,1.0,0.0,336.0,703.0,0.0,0,781.0,1
744,744,-0.6262864011255682,-0.6,1.0,0.0,318.0,566.0,0.0,0,86.0,1
745,745,0.5389903505240757,0.5,0.0,0.0,379.0,954.0,0.0,1,377.0,1
746,746,0.506779160907168,0.5,1.0,1.0,258.0,514.0,1.0,1,418.0,1
747,747,0.7772510241823672,0.8,0.0,0.0,263.0,799.0,0.0,1,268.0,1
748,748,0.8015802123548553,0.8,1.0,1.0,496.0,771.0,1.0,1,173.0,1
749,749,-0.27511519841027476,-0.3,0.0,1.0,281.0,941.0,1.0,0,568.0,1
750,750,0.03089447422793523,0.0,1.0,1.0,407.0,515.0,1.0,1,908.0,1
751,751,-0.7960077013420894,-0.8,0.0,1.0,415.0,572.0,1.0,0,513.0,1
752,752,0.6506083662039003,0.7,1.0,1.0,353.0,548.0,1.0,1,339.0,1
753,753,-0.41045370337841924,-0.4,0.0,1.0,370.0,853.0,0.0,1,-213.0,0
754,754,0.8043655915154787,0.8,0.0,0.0,470.0,541.0,0.0,1,369.0,1
755,755,0.17288456949030417,0.2,1.0,1.0,351.0,961.0,1.0,1,238.0,1
756,756,-0.6074195361851036,-0.6,1.0,0.0,268.0,745.0,0.0,0,647.0,1
757,757,0.3175052017514003,0.3,0.0,0.0,290.0,956.0,0.0,1,284.0,1
758,758,0.647585847295901,0.6,0.0,0.0,376.0,813.0,0.0,1,451.0,1
759,759,-0.37027934514251126,-0.4,0.0,1.0,365.0,554.0,1.0,0,1601.0,1
760,760,-0.46498271589473933,-0.5,0.0,1.0,428.0,810.0,1.0,0,412.0,1
761,761,0.8643333602356195,0.9,1.0,1.0,416.0,894.0,1.0,1,320.0,1
762,762,-0.07424640764155532,-0.1,0.0,1.0,334.0,958.0,1.0,0,888.0,1
763,763,-0.2777141976070472,-0.3,0.0,1.0,312.0,686.0,0.0,1,722.0,0
764,764,-0.773406092851229,-0.8,1.0,0.0,268.0,655.0,0.0,0,317.0,1
765,765,-0.838099972138049,-0.8,1.0,0.0,373.0,619.0,0.0,0,268.0,1
766,766,0.6477217662086862,0.6,1.0,1.0,277.0,741.0,1.0,1,432.0,1
767,767,-0.11020766572900964,-0.1,1.0,0.0,355.0,555.0,0.0,0,900.0,1
768,768,0.07121122857565287,0.1,1.0,1.0,415.0,945.0,1.0,1,1400.0,1
769,769,-0.10483479930304473,-0.1,1.0,0.0,389.0,598.0,0.0,0,2133.0,1
770,770,-0.7521553208887605,-0.8,1.0,0.0,408.0,805.0,0.0,0,147.0,1
771,771,0.682057628427971,0.7,0.0,0.0,358.0,994.0,0.0,1,278.0,1
772,772,0.16422215065688028,0.2,1.0,1.0,318.0,734.0,0.0,0,398.0,0
773,773,0.6010147632856438,0.6,1.0,1.0,407.0,784.0,1.0,1,799.0,1
774,774,0.7796213875026038,0.8,0.0,0.0,459.0,707.0,0.0,1,64.0,1
775,775,-0.8034715729138333,-0.8,0.0,1.0,261.0,727.0,1.0,0,562.0,1
776,776,-0.04462190347818318,-0.0,1.0,0.0,327.0,871.0,1.0,1,2.0,0
777,777,-0.21158710818380155,-0.2,1.0,0.0,251.0,604.0,0.0,0,1165.0,1
778,778,0.1127876605906949,0.1,1.0,1.0,274.0,523.0,0.0,0,1563.0,0
779,779,-0.16609002811670148,-0.2,0.0,1.0,420.0,672.0,0.0,1,758.0,0
780,780,-0.7159552336867828,-0.7,1.0,0.0,401.0,716.0,0.0,0,353.0,1
781,781,0.018309366656777737,0.0,0.0,0.0,353.0,873.0,0.0,1,124.0,1
782,782,-0.8450833402621724,-0.8,0.0,1.0,401.0,626.0,1.0,0,353.0,1
783,783,-0.6218871072591146,-0.6,1.0,0.0,344.0,520.0,0.0,0,386.0,1
784,784,0.27802687397918857,0.3,1.0,1.0,436.0,591.0,1.0,1,683.0,1
785,785,-0.8940061156934855,-0.9,1.0,0.0,494.0,841.0,0.0,0,375.0,1
786,786,-0.3011846707597914,-0.3,0.0,1.0,426.0,600.0,1.0,0,1804.0,1
787,787,-0.07309103220850888,-0.1,0.0,1.0,423.0,766.0,0.0,1,721.0,0
788,788,0.08015107786947417,0.1,0.0,0.0,359.0,768.0,1.0,0,373.0,0
789,789,0.7184196755158522,0.7,0.0,0.0,254.0,858.0,0.0,1,-372.0,1
790,790,0.3379018824458869,0.3,1.0,1.0,365.0,742.0,1.0,1,853.0,1
791,791,0.04067180026378969,0.0,0.0,0.0,479.0,852.0,1.0,0,1019.0,0
792,792,0.5761115398615345,0.6,1.0,1.0,425.0,872.0,1.0,1,173.0,1
793,793,-0.5220047274865276,-0.5,1.0,0.0,367.0,876.0,0.0,0,397.0,1
794,794,0.38740457568324616,0.4,1.0,1.0,455.0,885.0,0.0,0,360.0,0
795,795,-0.17429893115961037,-0.2,0.0,1.0,374.0,796.0,1.0,0,1210.0,1
796,796,-0.6485876892790872,-0.6,0.0,1.0,310.0,948.0,1.0,0,402.0,1
797,797,-0.40017254782261397,-0.4,0.0,1.0,431.0,775.0,1.0,0,254.0,1
798,798,-0.04750738983776115,-0.0,0.0,1.0,349.0,510.0,1.0,0,1861.0,1
799,799,-0.05166823216071781,-0.1,0.0,1.0,493.0,885.0,1.0,0,312.0,1
800,800,-0.7284774766727309,-0.7,0.0,1.0,331.0,705.0,1.0,0,354.0,1
801,801,0.705990396263198,0.7,1.0,1.0,403.0,691.0,1.0,1,206.0,1
802,802,0.5143683295961797,0.5,0.0,0.0,310.0,506.0,0.0,1,984.0,1
803,803,-0.8546370332774904,-0.9,0.0,1.0,334.0,638.0,1.0,0,438.0,1
804,804,0.5708311126346967,0.6,1.0,1.0,493.0,795.0,1.0,1,242.0,1
805,805,0.3714323138667951,0.4,0.0,0.0,352.0,705.0,0.0,1,373.0,1
806,806,0.018562555064563835,0.0,1.0,1.0,268.0,663.0,1.0,1,1069.0,1
807,807,-0.492943586151568,-0.5,1.0,0.0,275.0,555.0,0.0,0,370.0,1
808,808,-0.8949075751129193,-0.9,1.0,0.0,435.0,847.0,0.0,0,418.0,1
809,809,0.7987718023073139,0.8,1.0,1.0,473.0,899.0,1.0,1,268.0,1
810,810,-0.31326415946987585,-0.3,0.0,1.0,334.0,718.0,1.0,0,708.0,1
811,811,0.18100587045249472,0.2,1.0,1.0,356.0,588.0,1.0,1,1966.0,1
812,812,-0.6606380262124081,-0.7,1.0,0.0,480.0,979.0,0.0,0,281.0,1
813,813,0.8786212814985718,0.9,1.0,1.0,484.0,777.0,1.0,1,269.0,1
814,814,-0.7370167729639165,-0.7,0.0,1.0,367.0,811.0,0.0,1,12.0,0
815,815,0.5556976208986238,0.6,0.0,0.0,404.0,729.0,0.0,1,317.0,1
816,816,0.07305129390329301,0.1,0.0,0.0,373.0,777.0,0.0,1,430.0,1
817,817,-0.6133251807045326,-0.6,1.0,0.0,497.0,523.0,0.0,0,320.0,1
818,818,0.3365910827092641,0.3,0.0,0.0,319.0,594.0,0.0,1,317.0,1
819,819,0.4918419443269332,0.5,1.0,1.0,312.0,784.0,1.0,1,284.0,1
820,820,0.30875752606239126,0.3,0.0,0.0,361.0,658.0,0.0,1,681.0,1
821,821,0.6692456717383221,0.7,1.0,1.0,317.0,984.0,1.0,1,149.0,1
822,822,-0.7546439388723595,-0.8,1.0,0.0,383.0,854.0,0.0,0,63.0,1
823,823,0.5080504151674531,0.5,1.0,1.0,455.0,773.0,1.0,1,662.0,1
824,824,-0.7706599800058015,-0.8,0.0,1.0,391.0,517.0,1.0,0,362.0,1
825,825,-0.35982436186042,-0.4,1.0,0.0,445.0,818.0,0.0,0,817.0,1
826,826,-0.8446717520429854,-0.8,0.0,1.0,301.0,689.0,1.0,0,600.0,1
827,827,0.8045157999283511,0.8,0.0,0.0,497.0,925.0,0.0,1,308.0,1
828,828,-0.7634371528631869,-0.8,0.0,1.0,420.0,764.0,1.0,0,66.0,1
829,829,0.8264206020648411,0.8,1.0,1.0,298.0,595.0,1.0,1,347.0,1
830,830,0.5414434700983365,0.5,0.0,0.0,283.0,504.0,0.0,1,603.0,1
831,831,-0.5019138645481531,-0.5,1.0,0.0,460.0,729.0,0.0,0,411.0,1
832,832,-0.6692338008513384,-0.7,1.0,0.0,490.0,670.0,0.0,0,370.0,1
833,833,0.33278824278008445,0.3,0.0,0.0,259.0,642.0,0.0,1,669.0,1
834,834,-0.25982593129341514,-0.3,1.0,0.0,311.0,901.0,0.0,0,388.0,1
835,835,-0.2052516309431065,-0.2,1.0,0.0,388.0,605.0,1.0,1,247.0,0
836,836,-0.3308504139058863,-0.3,0.0,1.0,415.0,786.0,1.0,0,469.0,1
837,837,-0.4392387419080049,-0.4,1.0,0.0,430.0,816.0,0.0,0,344.0,1
838,838,0.3920504751389501,0.4,1.0,1.0,476.0,557.0,1.0,1,437.0,1
839,839,0.6640543169142222,0.7,0.0,0.0,366.0,878.0,0.0,1,486.0,1
840,840,0.3844600139608553,0.4,1.0,1.0,402.0,788.0,1.0,1,260.0,1
841,841,0.542205591017712,0.5,1.0,1.0,259.0,936.0,1.0,1,-135.0,1
842,842,0.15684009729560333,0.2,1.0,1.0,281.0,549.0,1.0,1,1270.0,1
843,843,-0.8806016864610514,-0.9,1.0,0.0,413.0,738.0,0.0,0,289.0,1
844,844,-0.8844239702228174,-0.9,1.0,0.0,363.0,602.0,0.0,0,225.0,1
845,845,-0.4652049221919075,-0.5,1.0,0.0,446.0,921.0,0.0,0,853.0,1
846,846,-0.7557883986463774,-0.8,1.0,0.0,301.0,757.0,0.0,0,202.0,1
847,847,-0.8391587679402747,-0.8,1.0,0.0,485.0,854.0,0.0,0,151.0,1
848,848,-0.7778178072153066,-0.8,1.0,0.0,251.0,986.0,0.0,0,533.0,1
849,849,-0.8250273720155622,-0.8,0.0,1.0,440.0,752.0,1.0,0,48.0,1
850,850,0.5182973695243466,0.5,1.0,1.0,303.0,543.0,1.0,1,294.0,1
851,851,0.5130558594529725,0.5,0.0,0.0,306.0,879.0,0.0,1,455.0,1
852,852,0.6121725963697465,0.6,1.0,1.0,297.0,525.0,1.0,1,248.0,1
853,853,-0.19586788253450282,-0.2,0.0,1.0,460.0,795.0,1.0,0,295.0,1
854,854,-0.06677319557698624,-0.1,1.0,0.0,300.0,800.0,0.0,0,1390.0,1
855,855,0.07117296640828985,0.1,0.0,0.0,256.0,792.0,0.0,1,922.0,1
856,856,0.13311248546976884,0.1,1.0,1.0,288.0,941.0,1.0,1,1341.0,1
857,857,-0.6314311033939355,-0.6,1.0,0.0,431.0,584.0,0.0,0,385.0,1
858,858,0.8216347960876965,0.8,0.0,0.0,312.0,858.0,0.0,1,260.0,1
859,859,0.5712006485723052,0.6,0.0,0.0,250.0,999.0,0.0,1,221.0,1
860,860,0.7606334017237869,0.8,1.0,1.0,451.0,782.0,1.0,1,207.0,1
861,861,-0.7256844852989777,-0.7,0.0,1.0,274.0,908.0,1.0,0,478.0,1
862,862,0.6608421631211644,0.7,0.0,0.0,365.0,594.0,0.0,1,321.0,1
863,863,0.4206978657430992,0.4,1.0,1.0,452.0,722.0,1.0,1,606.0,1
864,864,-0.2499234966755599,-0.2,1.0,0.0,349.0,947.0,0.0,0,954.0,1
865,865,-0.3045150418073981,-0.3,0.0,1.0,294.0,716.0,1.0,0,1280.0,1
866,866,0.6283250976770086,0.6,0.0,0.0,406.0,798.0,0.0,1,46.0,1
867,867,-0.3765206128799874,-0.4,1.0,0.0,399.0,632.0,0.0,0,569.0,1
868,868,-0.0932997861203907,-0.1,1.0,0.0,251.0,546.0,0.0,0,353.0,1
869,869,0.5187722875448219,0.5,1.0,1.0,253.0,999.0,1.0,1,408.0,1
870,870,-0.8708315059506627,-0.9,1.0,0.0,357.0,825.0,0.0,0,608.0,1
871,871,-0.16893816032492837,-0.2,1.0,0.0,374.0,701.0,0.0,0,945.0,1
872,872,0.3777563714276123,0.4,1.0,1.0,311.0,908.0,1.0,1,281.0,1
873,873,-0.2443694567025766,-0.2,1.0,0.0,288.0,835.0,0.0,0,957.0,1
874,874,0.16062101611729818,0.2,0.0,0.0,375.0,741.0,0.0,1,1334.0,1
875,875,-0.4968161614813343,-0.5,1.0,0.0,290.0,876.0,0.0,0,374.0,1
876,876,-0.2505916482975552,-0.3,0.0,1.0,438.0,750.0,1.0,0,742.0,1
877,877,0.09386503764187948,0.1,1.0,1.0,341.0,868.0,1.0,1,1101.0,1
878,878,-0.36106210468178135,-0.4,0.0,1.0,332.0,692.0,1.0,0,1846.0,1
879,879,-0.18797352270501355,-0.2,0.0,1.0,368.0,620.0,1.0,0,432.0,1
880,880,0.39778909612818747,0.4,1.0,1.0,454.0,931.0,1.0,1,115.0,1
881,881,-0.6709908033522343,-0.7,0.0,1.0,349.0,918.0,1.0,0,173.0,1
882,882,0.5698209506110147,0.6,0.0,0.0,482.0,879.0,0.0,1,249.0,1
883,883,0.6759069027975696,0.7,0.0,0.0,368.0,680.0,0.0,1,672.0,1
884,884,0.7498552521828116,0.7,1.0,1.0,383.0,570.0,1.0,1,607.0,1
885,885,-0.4096327343885999,-0.4,1.0,0.0,366.0,871.0,0.0,0,473.0,1
886,886,0.2986501679992165,0.3,0.0,0.0,341.0,601.0,0.0,1,658.0,1
887,887,-0.3151541076375728,-0.3,1.0,0.0,263.0,634.0,0.0,0,403.0,1
888,888,-0.3788773674567173,-0.4,1.0,0.0,257.0,726.0,0.0,0,647.0,1
889,889,-0.4974528075136381,-0.5,0.0,1.0,281.0,506.0,1.0,0,1003.0,1
890,890,-0.6922254686323241,-0.7,1.0,0.0,484.0,689.0,0.0,0,407.0,1
891,891,-0.27692813568935937,-0.3,0.0,1.0,271.0,792.0,1.0,0,197.0,1
892,892,-0.8642311568778928,-0.9,1.0,0.0,467.0,704.0,0.0,0,159.0,1
893,893,-0.3585259556310215,-0.4,0.0,1.0,261.0,512.0,1.0,0,527.0,1
894,894,-0.0439285027231241,-0.0,1.0,0.0,386.0,713.0,1.0,1,1751.0,0
895,895,-0.13644134362079596,-0.1,1.0,0.0,402.0,508.0,0.0,0,710.0,1
896,896,-0.7860493086143937,-0.8,1.0,0.0,462.0,923.0,0.0,0,345.0,1
897,897,-0.8955424377392507,-0.9,1.0,0.0,423.0,835.0,0.0,0,182.0,1
898,898,-0.4948098818657918,-0.5,1.0,0.0,458.0,710.0,0.0,0,642.0,1
899,899,0.01101052114294454,0.0,0.0,0.0,284.0,970.0,0.0,1,76.0,1
900,900,-0.3823374825482242,-0.4,0.0,1.0,452.0,894.0,1.0,0,614.0,1
901,901,-0.5581000462318428,-0.6,0.0,1.0,414.0,922.0,1.0,0,244.0,1
902,902,-0.05608140406887141,-0.1,1.0,0.0,418.0,986.0,0.0,0,3006.0,1
903,903,-0.07973413203843294,-0.1,1.0,0.0,484.0,849.0,0.0,0,937.0,1
904,904,-0.610718801263595,-0.6,1.0,0.0,419.0,997.0,0.0,0,114.0,1
905,905,0.7892185242832056,0.8,1.0,1.0,389.0,617.0,1.0,1,304.0,1
906,906,-0.6796524433066461,-0.7,0.0,1.0,369.0,847.0,1.0,0,684.0,1
907,907,-0.4141122963032165,-0.4,1.0,0.0,317.0,959.0,0.0,0,234.0,1
908,908,0.8875408875536531,0.9,1.0,1.0,416.0,756.0,1.0,1,238.0,1
909,909,0.33886266840844004,0.3,1.0,1.0,360.0,686.0,1.0,1,334.0,1
910,910,0.15485018247826543,0.2,0.0,0.0,296.0,654.0,0.0,1,550.0,1
911,911,-0.38319865186019464,-0.4,1.0,0.0,444.0,890.0,0.0,0,456.0,1
912,912,-0.5728384989103439,-0.6,1.0,0.0,393.0,977.0,0.0,0,270.0,1
913,913,-0.3027087661611212,-0.3,0.0,1.0,420.0,756.0,1.0,0,754.0,1
914,914,-0.20778554879126,-0.2,0.0,1.0,265.0,914.0,1.0,0,241.0,1
915,915,0.6381233905395268,0.6,0.0,0.0,299.0,669.0,0.0,1,192.0,1
916,916,-0.006795687425818597,-0.0,1.0,0.0,310.0,917.0,0.0,0,1173.0,1
917,917,0.05558398931545594,0.1,0.0,0.0,320.0,663.0,1.0,0,777.0,0
918,918,0.7200032512417994,0.7,1.0,1.0,273.0,863.0,1.0,1,244.0,1
919,919,0.17738173600803997,0.2,0.0,0.0,409.0,544.0,0.0,1,567.0,1
920,920,0.5028555666084616,0.5,1.0,1.0,364.0,665.0,1.0,1,361.0,1
921,921,-0.7612204155212161,-0.8,1.0,0.0,413.0,823.0,0.0,0,174.0,1
922,922,0.4434255926516454,0.4,1.0,1.0,293.0,749.0,1.0,1,1088.0,1
923,923,-0.3882569656862441,-0.4,0.0,1.0,433.0,775.0,1.0,0,212.0,1
924,924,-0.5410293795581791,-0.5,0.0,1.0,401.0,966.0,1.0,0,213.0,1
925,925,-0.4161607030815579,-0.4,0.0,1.0,474.0,691.0,1.0,0,785.0,1
926,926,-0.07406562231059621,-0.1,0.0,1.0,438.0,576.0,0.0,1,386.0,0
927,927,0.1262475416715222,0.1,0.0,0.0,296.0,954.0,0.0,1,270.0,1
928,928,0.716654332207069,0.7,0.0,0.0,443.0,920.0,0.0,1,537.0,1
929,929,-0.49217386158080223,-0.5,1.0,0.0,448.0,839.0,0.0,0,293.0,1
930,930,-0.33570651624601877,-0.3,1.0,0.0,466.0,722.0,0.0,0,1172.0,1
931,931,-0.027386550430434364,-0.0,0.0,1.0,474.0,569.0,1.0,0,687.0,1
932,932,0.5100605225538183,0.5,1.0,1.0,467.0,820.0,1.0,1,613.0,1
933,933,-0.8627180768743254,-0.9,1.0,0.0,394.0,581.0,0.0,0,205.0,1
934,934,-0.08304912822718102,-0.1,0.0,1.0,278.0,976.0,1.0,0,586.0,1
935,935,0.602797994801111,0.6,1.0,1.0,406.0,973.0,1.0,1,241.0,1
936,936,-0.7520569027429408,-0.8,1.0,0.0,416.0,751.0,0.0,0,483.0,1
937,937,-0.8153871831765374,-0.8,1.0,0.0,496.0,863.0,0.0,0,221.0,1
938,938,-0.33203501747697806,-0.3,1.0,0.0,458.0,559.0,0.0,0,493.0,1
939,939,0.3573332670776147,0.4,0.0,0.0,419.0,911.0,0.0,1,30.0,1
940,940,0.5839194626390999,0.6,0.0,0.0,280.0,519.0,0.0,1,611.0,1
941,941,0.6755430003150574,0.7,0.0,0.0,280.0,520.0,0.0,1,490.0,1
942,942,0.07597124959704094,0.1,0.0,0.0,271.0,995.0,1.0,0,354.0,0
943,943,-0.21955403534807516,-0.2,0.0,1.0,477.0,632.0,1.0,0,1261.0,1
944,944,-0.7875462583942245,-0.8,0.0,1.0,447.0,852.0,1.0,0,341.0,1
945,945,0.5897041485249429,0.6,0.0,0.0,414.0,794.0,0.0,1,972.0,1
946,946,-0.7419002101775746,-0.7,0.0,1.0,487.0,703.0,1.0,0,860.0,1
947,947,0.042638974693538056,0.0,1.0,1.0,283.0,500.0,1.0,1,427.0,1
948,948,0.08119443492507006,0.1,1.0,1.0,358.0,913.0,1.0,1,1959.0,1
949,949,-0.07436298784512485,-0.1,0.0,1.0,296.0,915.0,0.0,1,259.0,0
950,950,-0.04822767393335714,-0.0,1.0,0.0,382.0,516.0,1.0,1,2292.0,0
951,951,0.6350820383570349,0.6,1.0,1.0,418.0,704.0,1.0,1,368.0,1
952,952,0.08593183853363551,0.1,1.0,1.0,337.0,941.0,1.0,1,-198.0,1
953,953,0.11536673057432234,0.1,0.0,0.0,259.0,680.0,0.0,1,481.0,1
954,954,-0.5481412601220126,-0.5,0.0,1.0,258.0,941.0,1.0,0,781.0,1
955,955,0.0030339235437393253,0.0,1.0,1.0,486.0,675.0,1.0,1,1449.0,1
956,956,-0.029202239359959137,-0.0,1.0,0.0,455.0,524.0,1.0,1,541.0,0
957,957,0.8401975386556847,0.8,1.0,1.0,259.0,618.0,1.0,1,123.0,1
958,958,-0.6229300014369488,-0.6,1.0,0.0,497.0,954.0,0.0,0,169.0,1
959,959,-0.027650518331035934,-0.0,1.0,0.0,258.0,967.0,1.0,1,-55.0,0
960,960,-0.5470279170174042,-0.5,0.0,1.0,352.0,845.0,1.0,0,343.0,1
961,961,0.6833916811213027,0.7,0.0,0.0,434.0,605.0,0.0,1,531.0,1
962,962,-0.2802242244746459,-0.3,1.0,0.0,380.0,863.0,0.0,0,857.0,1
963,963,0.276798219453643,0.3,1.0,1.0,413.0,972.0,1.0,1,485.0,1
964,964,-0.2821190362258137,-0.3,0.0,1.0,346.0,888.0,0.0,1,-64.0,0
965,965,-0.8764943338276668,-0.9,1.0,0.0,464.0,999.0,0.0,0,247.0,1
966,966,-0.6271684549682488,-0.6,0.0,1.0,416.0,738.0,1.0,0,366.0,1
967,967,0.17521292511086417,0.2,0.0,0.0,425.0,571.0,0.0,1,804.0,1
968,968,0.5266364227658461,0.5,1.0,1.0,413.0,780.0,1.0,1,407.0,1
969,969,-0.4863009230027055,-0.5,1.0,0.0,387.0,822.0,0.0,0,481.0,1
970,970,0.5154088180404083,0.5,1.0,1.0,377.0,833.0,1.0,1,250.0,1
971,971,0.6475196420599899,0.6,0.0,0.0,339.0,820.0,0.0,1,191.0,1
972,972,-0.5416315720681295,-0.5,1.0,0.0,356.0,522.0,0.0,0,392.0,1
973,973,-0.13342526495366203,-0.1,1.0,0.0,460.0,905.0,1.0,1,205.0,0
974,974,-0.647047247385565,-0.6,0.0,1.0,255.0,573.0,1.0,0,632.0,1
975,975,0.09316542970410113,0.1,1.0,1.0,485.0,956.0,1.0,1,1269.0,1
976,976,-0.6066114758003436,-0.6,0.0,1.0,475.0,948.0,1.0,0,217.0,1
977,977,0.39856247848368775,0.4,1.0,1.0,255.0,835.0,1.0,1,360.0,1
978,978,0.7464818687895135,0.7,1.0,1.0,297.0,766.0,1.0,1,347.0,1
979,979,-0.19097582536011193,-0.2,0.0,1.0,471.0,581.0,1.0,0,348.0,1
980,980,-0.6333236895320734,-0.6,0.0,1.0,356.0,996.0,0.0,1,-12.0,0
981,981,0.01959009960212421,0.0,1.0,1.0,318.0,598.0,0.0,0,1514.0,0
982,982,0.7173399168569604,0.7,1.0,1.0,420.0,847.0,1.0,1,323.0,1
983,983,0.6700148071317295,0.7,0.0,0.0,319.0,839.0,0.0,1,442.0,1
984,984,-0.18734875026741815,-0.2,1.0,0.0,333.0,943.0,0.0,0,154.0,1
985,985,-0.793406192579172,-0.8,1.0,0.0,262.0,672.0,0.0,0,126.0,1
986,986,0.19284249106319973,0.2,1.0,1.0,374.0,652.0,0.0,0,814.0,0
987,987,-0.17723001615133427,-0.2,1.0,0.0,345.0,855.0,0.0,0,580.0,1
988,988,-0.2578448576505109,-0.3,1.0,0.0,466.0,806.0,0.0,0,878.0,1
989,989,0.7378886767615794,0.7,1.0,1.0,354.0,815.0,1.0,1,231.0,1
990,990,0.1415149890084456,0.1,1.0,1.0,490.0,689.0,1.0,1,921.0,1
991,991,0.8147520913953706,0.8,0.0,0.0,435.0,905.0,0.0,1,110.0,1
992,992,0.5370341177432495,0.5,0.0,0.0,341.0,945.0,0.0,1,174.0,1
993,993,0.5018688187452468,0.5,0.0,0.0,433.0,737.0,0.0,1,340.0,1
994,994,0.552329846482115,0.6,1.0,1.0,310.0,507.0,1.0,1,1323.0,1
995,995,-0.6196714841440137,-0.6,0.0,1.0,406.0,925.0,1.0,0,209.0,1
996,996,-0.1587996113065122,-0.2,1.0,0.0,281.0,848.0,0.0,0,471.0,1
997,997,-0.7850839247731436,-0.8,1.0,0.0,363.0,903.0,0.0,0,164.0,1
998,998,0.06813179936239722,0.1,0.0,0.0,469.0,941.0,0.0,1,200.0,1
999,999,0.3367211921658714,0.3,1.0,1.0,402.0,945.0,1.0,1,413.0,1
1000,1000,-0.7379232290584745,-0.7,0.0,1.0,356.0,541.0,1.0,0,383.0,1
1001,1001,-0.646366438316093,-0.6,0.0,1.0,338.0,529.0,1.0,0,663.0,1
1002,1002,0.6203423036942454,0.6,1.0,1.0,317.0,883.0,1.0,1,500.0,1
1003,1003,0.3282153161363356,0.3,0.0,0.0,294.0,931.0,0.0,1,515.0,1
1004,1004,-0.7684007865329265,-0.8,1.0,0.0,264.0,962.0,0.0,0,214.0,1
1005,1005,0.5226419963142815,0.5,1.0,1.0,401.0,635.0,1.0,1,744.0,1
1006,1006,-0.8083550206052222,-0.8,0.0,1.0,372.0,870.0,1.0,0,-2.0,1
1007,1007,-0.3986350046411281,-0.4,0.0,1.0,349.0,551.0,1.0,0,120.0,1
1008,1008,-0.857593908278915,-0.9,0.0,1.0,353.0,593.0,1.0,0,224.0,1
1009,1009,0.34789514610375016,0.3,0.0,0.0,253.0,873.0,0.0,1,364.0,1
1010,1010,0.5366716375962753,0.5,1.0,1.0,484.0,965.0,1.0,1,101.0,1
1011,1011,-0.01226866644550717,-0.0,0.0,1.0,250.0,822.0,1.0,0,958.0,1
1012,1012,0.5559821636221259,0.6,0.0,0.0,474.0,902.0,1.0,0,64.0,0
1013,1013,0.11675476824657671,0.1,0.0,0.0,438.0,665.0,1.0,0,2127.0,0
1014,1014,0.2218835612573241,0.2,0.0,0.0,401.0,632.0,0.0,1,437.0,1
1015,1015,-0.10943619015074268,-0.1,0.0,1.0,265.0,798.0,0.0,1,167.0,0
1016,1016,0.3124208664659659,0.3,1.0,1.0,348.0,599.0,1.0,1,333.0,1
1017,1017,-0.40987697376437926,-0.4,0.0,1.0,476.0,561.0,1.0,0,783.0,1
1018,1018,-0.47152442954116297,-0.5,1.0,0.0,383.0,623.0,0.0,0,764.0,1
1019,1019,0.5876199171916577,0.6,0.0,0.0,463.0,874.0,0.0,1,353.0,1
1020,1020,0.13057737668685687,0.1,0.0,0.0,496.0,970.0,0.0,1,-106.0,1
1021,1021,-0.15121810991828677,-0.2,0.0,1.0,285.0,781.0,1.0,0,124.0,1
1022,1022,0.3781423619648482,0.4,0.0,0.0,474.0,522.0,0.0,1,394.0,1
1023,1023,0.7779145828237143,0.8,1.0,1.0,387.0,993.0,1.0,1,290.0,1
1024,1024,0.5440281095842495,0.5,1.0,1.0,440.0,694.0,1.0,1,716.0,1
1025,1025,0.7017324136996775,0.7,0.0,0.0,391.0,768.0,0.0,1,131.0,1
1026,1026,-0.2147084885452306,-0.2,0.0,1.0,265.0,511.0,1.0,0,2314.0,1
1027,1027,-0.032587762166101486,-0.0,1.0,0.0,434.0,823.0,1.0,1,2373.0,0
1028,1028,-0.3287572435250887,-0.3,1.0,0.0,475.0,737.0,0.0,0,478.0,1
1029,1029,0.3074482357734257,0.3,1.0,1.0,351.0,640.0,1.0,1,149.0,1
1030,1030,-0.15069115618492956,-0.2,0.0,1.0,367.0,875.0,0.0,1,658.0,0
1031,1031,-0.5807254007542605,-0.6,0.0,1.0,482.0,894.0,1.0,0,334.0,1
1032,1032,-0.09091973811138332,-0.1,1.0,0.0,423.0,724.0,0.0,0,1813.0,1
1033,1033,-0.61250663695421,-0.6,0.0,1.0,280.0,872.0,1.0,0,268.0,1
1034,1034,-0.5034939510432759,-0.5,0.0,1.0,356.0,995.0,0.0,1,-91.0,0
1035,1035,-0.33631545086059544,-0.3,1.0,0.0,407.0,800.0,0.0,0,293.0,1
1036,1036,-0.5697743327511882,-0.6,1.0,0.0,420.0,764.0,0.0,0,496.0,1
1037,1037,0.4064763457061106,0.4,0.0,0.0,326.0,953.0,0.0,1,-49.0,1
1038,1038,-0.4947029639083774,-0.5,0.0,1.0,401.0,858.0,1.0,0,661.0,1
1039,1039,0.5306849778587616,0.5,0.0,0.0,320.0,753.0,0.0,1,337.0,1
1040,1040,0.5766995599026771,0.6,0.0,0.0,285.0,858.0,0.0,1,537.0,1
1041,1041,0.26419065896035565,0.3,0.0,0.0,288.0,840.0,0.0,1,382.0,1
1042,1042,-0.6336208971796145,-0.6,0.0,1.0,429.0,522.0,1.0,0,359.0,1
1043,1043,-0.6520865468398813,-0.7,0.0,1.0,305.0,896.0,1.0,0,209.0,1
1044,1044,-0.2012855839506431,-0.2,0.0,1.0,390.0,541.0,1.0,0,2299.0,1
1045,1045,0.07789126226080312,0.1,0.0,0.0,258.0,889.0,0.0,1,703.0,1
1046,1046,0.6997094306333519,0.7,1.0,1.0,302.0,741.0,1.0,1,627.0,1
1047,1047,-0.7697871182179263,-0.8,0.0,1.0,346.0,855.0,1.0,0,159.0,1
1048,1048,0.013336739634871808,0.0,1.0,1.0,447.0,540.0,0.0,0,1733.0,0
1049,1049,-0.04176588636710654,-0.0,0.0,1.0,499.0,876.0,0.0,1,1275.0,0
1050,1050,0.7185547706425645,0.7,1.0,1.0,413.0,832.0,1.0,1,215.0,1
1051,1051,-0.27733431963401023,-0.3,0.0,1.0,252.0,720.0,1.0,0,1108.0,1
1052,1052,0.02307365207134915,0.0,1.0,1.0,494.0,989.0,0.0,0,1167.0,0
1053,1053,-0.12734357087267,-0.1,0.0,1.0,478.0,617.0,1.0,0,185.0,1
1054,1054,-0.7312256495221191,-0.7,1.0,0.0,422.0,559.0,0.0,0,399.0,1
1055,1055,0.877502270576841,0.9,1.0,1.0,438.0,841.0,1.0,1,231.0,1
1056,1056,-0.6997203198166778,-0.7,0.0,1.0,287.0,540.0,1.0,0,603.0,1
1057,1057,0.8189161996230888,0.8,0.0,0.0,455.0,630.0,0.0,1,655.0,1
1058,1058,-0.4038103720721283,-0.4,1.0,0.0,362.0,651.0,0.0,0,1007.0,1
1059,1059,-0.5258490622069358,-0.5,1.0,0.0,399.0,779.0,0.0,0,432.0,1
1060,1060,0.20614544561849313,0.2,0.0,0.0,427.0,610.0,0.0,1,293.0,1
1061,1061,0.15452294876608985,0.2,0.0,0.0,414.0,936.0,0.0,1,70.0,1
1062,1062,-0.25378988842178773,-0.3,1.0,0.0,437.0,632.0,0.0,0,601.0,1
1063,1063,0.04294631426588569,0.0,0.0,0.0,402.0,760.0,0.0,1,568.0,1
1064,1064,-0.8550959809472882,-0.9,0.0,1.0,385.0,615.0,1.0,0,380.0,1
1065,1065,-0.7229926921892822,-0.7,1.0,0.0,479.0,843.0,0.0,0,398.0,1
1066,1066,-0.3971762897236085,-0.4,1.0,0.0,407.0,907.0,0.0,0,206.0,1
1067,1067,-0.8800782441765252,-0.9,1.0,0.0,411.0,738.0,0.0,0,111.0,1
1068,1068,0.8376935473495536,0.8,0.0,0.0,396.0,923.0,0.0,1,171.0,1
1069,1069,0.8325785643892819,0.8,0.0,0.0,342.0,551.0,0.0,1,247.0,1
1070,1070,-0.6392909611794827,-0.6,1.0,0.0,297.0,848.0,0.0,0,195.0,1
1071,1071,0.5936493512346247,0.6,0.0,0.0,402.0,680.0,0.0,1,288.0,1
1072,1072,-0.4157404903295176,-0.4,0.0,1.0,366.0,556.0,1.0,0,288.0,1
1073,1073,0.5821495670217852,0.6,0.0,0.0,295.0,658.0,0.0,1,297.0,1
1074,1074,-0.7160362571834412,-0.7,0.0,1.0,388.0,551.0,1.0,0,501.0,1
1075,1075,-0.8579600429404821,-0.9,1.0,0.0,298.0,615.0,0.0,0,417.0,1
1076,1076,-0.8721156920107821,-0.9,1.0,0.0,366.0,550.0,0.0,0,524.0,1
1077,1077,0.760137485924646,0.8,0.0,0.0,461.0,887.0,0.0,1,192.0,1
1078,1078,0.28725879075834293,0.3,1.0,1.0,436.0,652.0,1.0,1,382.0,1
1079,1079,0.7347794898977512,0.7,0.0,0.0,255.0,775.0,0.0,1,290.0,1
1080,1080,0.47256635726770935,0.5,1.0,1.0,473.0,875.0,1.0,1,242.0,1
1081,1081,-0.5065865773237606,-0.5,1.0,0.0,289.0,870.0,0.0,0,231.0,1
1082,1082,0.2921289306441165,0.3,1.0,1.0,310.0,853.0,1.0,1,407.0,1
1083,1083,-0.2799860305908006,-0.3,0.0,1.0,434.0,720.0,1.0,0,956.0,1
1084,1084,-0.38799514378841327,-0.4,1.0,0.0,447.0,900.0,0.0,0,-117.0,1
1085,1085,-0.07745832092264648,-0.1,0.0,1.0,489.0,859.0,0.0,1,622.0,0
1086,1086,0.05505284632806118,0.1,1.0,1.0,464.0,571.0,0.0,0,795.0,0
1087,1087,0.5226117006252279,0.5,1.0,1.0,299.0,832.0,1.0,1,59.0,1
1088,1088,-0.41299780873984687,-0.4,0.0,1.0,465.0,893.0,1.0,0,122.0,1
1089,1089,0.8401927399687287,0.8,1.0,1.0,417.0,700.0,1.0,1,313.0,1
1090,1090,-0.7982676586336862,-0.8,0.0,1.0,346.0,985.0,1.0,0,449.0,1
1091,1091,-0.32377510532649456,-0.3,0.0,1.0,418.0,704.0,1.0,0,588.0,1
1092,1092,-0.8436381696198445,-0.8,0.0,1.0,327.0,890.0,1.0,0,393.0,1
1093,1093,0.8794352971133398,0.9,0.0,0.0,353.0,768.0,0.0,1,189.0,1
1094,1094,-0.43452302593281206,-0.4,0.0,1.0,445.0,870.0,1.0,0,335.0,1
1095,1095,0.8728453780766429,0.9,1.0,1.0,494.0,793.0,1.0,1,333.0,1
1096,1096,0.4968786135025566,0.5,0.0,0.0,251.0,618.0,0.0,1,551.0,1
1097,1097,-0.7653440825573561,-0.8,0.0,1.0,385.0,985.0,1.0,0,290.0,1
1098,1098,-0.37625907889818067,-0.4,1.0,0.0,437.0,756.0,0.0,0,447.0,1
1099,1099,0.17175673677959857,0.2,0.0,0.0,283.0,714.0,0.0,1,2173.0,1
1100,1100,0.7429399696342677,0.7,0.0,0.0,489.0,552.0,0.0,1,319.0,1
1101,1101,-0.07592372544113091,-0.1,0.0,1.0,409.0,978.0,1.0,0,333.0,1
1102,1102,-0.37927646395725756,-0.4,0.0,1.0,312.0,745.0,1.0,0,593.0,1
1103,1103,-0.23293510577303,-0.2,1.0,0.0,440.0,765.0,0.0,0,195.0,1
1104,1104,0.010311344189627758,0.0,1.0,1.0,425.0,813.0,0.0,0,1322.0,0
1105,1105,0.8657074673997235,0.9,1.0,1.0,492.0,705.0,1.0,1,213.0,1
1106,1106,-0.7800498803550177,-0.8,0.0,1.0,473.0,788.0,1.0,0,279.0,1
1107,1107,-0.39265512696865845,-0.4,1.0,0.0,482.0,861.0,0.0,0,287.0,1
1108,1108,0.3094421578279912,0.3,0.0,0.0,477.0,721.0,0.0,1,422.0,1
1109,1109,-0.07136205556752251,-0.1,1.0,0.0,277.0,960.0,1.0,1,2703.0,0
1110,1110,-0.43699590859153997,-0.4,0.0,1.0,440.0,561.0,1.0,0,479.0,1
1111,1111,0.36255095711628205,0.4,1.0,1.0,284.0,634.0,1.0,1,412.0,1
1112,1112,0.05185104266860363,0.1,1.0,1.0,439.0,630.0,1.0,1,621.0,1
1113,1113,-0.296140638681601,-0.3,0.0,1.0,439.0,817.0,1.0,0,234.0,1
1114,1114,0.3341572623922823,0.3,1.0,1.0,330.0,757.0,1.0,1,353.0,1
1115,1115,-0.5625079847774155,-0.6,1.0,0.0,428.0,721.0,0.0,0,741.0,1
1116,1116,0.6524978289615934,0.7,0.0,0.0,488.0,826.0,0.0,1,546.0,1
1117,1117,-0.5356899090984906,-0.5,0.0,1.0,410.0,539.0,1.0,0,691.0,1
1118,1118,-0.4492380923573158,-0.4,0.0,1.0,486.0,693.0,1.0,0,731.0,1
1119,1119,-0.008868627975153642,-0.0,0.0,1.0,439.0,903.0,0.0,1,438.0,0
1120,1120,-0.5723409629966716,-0.6,1.0,0.0,419.0,558.0,0.0,0,413.0,1
1121,1121,-0.6722498336358271,-0.7,1.0,0.0,443.0,890.0,0.0,0,397.0,1
1122,1122,-0.4866732092999798,-0.5,1.0,0.0,417.0,942.0,0.0,0,521.0,1
1123,1123,-0.23107760394543286,-0.2,1.0,0.0,441.0,972.0,1.0,1,-33.0,0
1124,1124,0.44947050804109,0.4,1.0,1.0,261.0,770.0,1.0,1,309.0,1
1125,1125,0.7444636782302886,0.7,1.0,1.0,464.0,773.0,1.0,1,153.0,1
1126,1126,0.5206247554425371,0.5,0.0,0.0,305.0,572.0,0.0,1,323.0,1
1127,1127,-0.8269724142252055,-0.8,1.0,0.0,452.0,663.0,0.0,0,255.0,1
1128,1128,0.19144762289074302,0.2,1.0,1.0,335.0,846.0,1.0,1,199.0,1
1129,1129,0.15904276979890908,0.2,0.0,0.0,413.0,925.0,0.0,1,392.0,1
1130,1130,-0.05009983963099318,-0.1,0.0,1.0,316.0,553.0,0.0,1,911.0,0
1131,1131,-0.14650945477938315,-0.1,0.0,1.0,375.0,710.0,1.0,0,945.0,1
1132,1132,-0.5430917915362254,-0.5,1.0,0.0,435.0,574.0,0.0,0,501.0,1
1133,1133,-0.5936044495133754,-0.6,1.0,0.0,334.0,969.0,0.0,0,327.0,1
1134,1134,0.7783562268140102,0.8,0.0,0.0,256.0,989.0,0.0,1,345.0,1
1135,1135,-0.37861698774577157,-0.4,0.0,1.0,436.0,746.0,1.0,0,608.0,1
1136,1136,0.8361585103287493,0.8,0.0,0.0,337.0,792.0,0.0,1,321.0,1
1137,1137,0.48042335105025613,0.5,0.0,0.0,411.0,697.0,0.0,1,472.0,1
1138,1138,-0.8484537055429477,-0.8,1.0,0.0,252.0,551.0,0.0,0,407.0,1
1139,1139,0.35799983670999047,0.4,1.0,1.0,448.0,720.0,1.0,1,332.0,1
1140,1140,-0.12613451123089103,-0.1,0.0,1.0,279.0,653.0,1.0,0,1088.0,1
1141,1141,0.351493076890974,0.4,0.0,0.0,367.0,736.0,0.0,1,477.0,1
1142,1142,-0.03896593759134348,-0.0,0.0,1.0,412.0,906.0,0.0,1,622.0,0
1143,1143,-0.1852877156285918,-0.2,0.0,1.0,281.0,881.0,1.0,0,1718.0,1
1144,1144,0.055658363679369494,0.1,0.0,0.0,319.0,853.0,0.0,1,1238.0,1
1145,1145,0.586369891419208,0.6,1.0,1.0,296.0,658.0,1.0,1,676.0,1
1146,1146,0.22221575475962962,0.2,1.0,1.0,408.0,686.0,1.0,1,536.0,1
1147,1147,0.5106438032472641,0.5,0.0,0.0,499.0,672.0,0.0,1,379.0,1
1148,1148,-0.7393424400333036,-0.7,1.0,0.0,388.0,548.0,0.0,0,274.0,1
1149,1149,0.2703156448696399,0.3,0.0,0.0,464.0,919.0,0.0,1,57.0,1
1150,1150,0.20509716364180453,0.2,1.0,1.0,256.0,539.0,1.0,1,1655.0,1
1151,1151,-0.1711918330943205,-0.2,1.0,0.0,362.0,900.0,1.0,1,78.0,0
1152,1152,0.6766416084997379,0.7,1.0,1.0,328.0,732.0,1.0,1,250.0,1
1153,1153,-0.3111713356408241,-0.3,1.0,0.0,391.0,961.0,0.0,0,138.0,1
1154,1154,-0.7687786873033109,-0.8,0.0,1.0,393.0,991.0,1.0,0,366.0,1
1155,1155,0.3281748873812441,0.3,0.0,0.0,433.0,834.0,0.0,1,63.0,1
1156,1156,0.3302994435054173,0.3,1.0,1.0,318.0,667.0,1.0,1,995.0,1
1157,1157,0.8651242355373973,0.9,0.0,0.0,253.0,849.0,0.0,1,188.0,1
1158,1158,0.3528200862349423,0.4,0.0,0.0,392.0,521.0,0.0,1,357.0,1
1159,1159,0.8744620651573954,0.9,0.0,0.0,355.0,874.0,0.0,1,231.0,1
1160,1160,0.5915471647111558,0.6,0.0,0.0,391.0,865.0,0.0,1,-76.0,1
1161,1161,-0.8080024864693887,-0.8,0.0,1.0,311.0,627.0,1.0,0,542.0,1
1162,1162,-0.8575704491283875,-0.9,1.0,0.0,476.0,732.0,0.0,0,272.0,1
1163,1163,-0.5861954308987953,-0.6,0.0,1.0,407.0,813.0,1.0,0,520.0,1
1164,1164,-0.753369423180125,-0.8,0.0,1.0,476.0,666.0,1.0,0,208.0,1
1165,1165,-0.7370092082606535,-0.7,0.0,1.0,373.0,837.0,0.0,1,-20.0,0
1166,1166,-0.23126081505627616,-0.2,0.0,1.0,455.0,903.0,1.0,0,892.0,1
1167,1167,0.5334316658993125,0.5,0.0,0.0,365.0,884.0,0.0,1,301.0,1
1168,1168,-0.031957957493162104,-0.0,1.0,0.0,267.0,544.0,0.0,0,1429.0,1
1169,1169,-0.5984562237562071,-0.6,0.0,1.0,476.0,636.0,1.0,0,418.0,1
1170,1170,-0.7840185833570846,-0.8,0.0,1.0,491.0,850.0,1.0,0,439.0,1
1171,1171,-0.2700479532743978,-0.3,0.0,1.0,343.0,535.0,1.0,0,892.0,1
1172,1172,0.13588085326961175,0.1,0.0,0.0,453.0,888.0,0.0,1,1949.0,1
1173,1173,-0.14425553472355268,-0.1,1.0,0.0,255.0,899.0,1.0,1,296.0,0
1174,1174,-0.30558850098228685,-0.3,1.0,0.0,323.0,628.0,0.0,0,489.0,1
1175,1175,0.24529171658579563,0.2,1.0,1.0,454.0,895.0,1.0,1,171.0,1
1176,1176,0.4168393865748802,0.4,0.0,0.0,306.0,945.0,0.0,1,489.0,1
1177,1177,-0.4134031057705228,-0.4,1.0,0.0,467.0,587.0,0.0,0,266.0,1
1178,1178,0.23526263119001023,0.2,1.0,1.0,320.0,991.0,1.0,1,-121.0,1
1179,1179,0.007943804582422387,0.0,1.0,1.0,270.0,827.0,1.0,1,773.0,1
1180,1180,-0.6797733945204366,-0.7,1.0,0.0,276.0,582.0,0.0,0,462.0,1
1181,1181,-0.415061256979515,-0.4,0.0,1.0,307.0,853.0,1.0,0,840.0,1
1182,1182,-0.8610693707921864,-0.9,1.0,0.0,470.0,722.0,0.0,0,288.0,1
1183,1183,-0.14030956129761807,-0.1,1.0,0.0,489.0,725.0,0.0,0,916.0,1
1184,1184,-0.24502287888414476,-0.2,0.0,1.0,330.0,629.0,1.0,0,801.0,1
1185,1185,-0.7594315428057418,-0.8,1.0,0.0,343.0,847.0,0.0,0,310.0,1
1186,1186,0.14708218601306122,0.1,0.0,0.0,369.0,979.0,0.0,1,602.0,1
1187,1187,-0.6962861437718536,-0.7,0.0,1.0,434.0,902.0,1.0,0,524.0,1
1188,1188,0.23761275454554032,0.2,0.0,0.0,302.0,729.0,0.0,1,1079.0,1
1189,1189,-0.6821560002677519,-0.7,0.0,1.0,494.0,818.0,1.0,0,278.0,1
1190,1190,-0.21309310322063835,-0.2,1.0,0.0,311.0,815.0,1.0,1,734.0,0
1191,1191,-0.15347329294597667,-0.2,0.0,1.0,457.0,593.0,1.0,0,630.0,1
1192,1192,-0.10725942647196918,-0.1,1.0,0.0,281.0,966.0,0.0,0,1753.0,1
1193,1193,-0.7730821349279253,-0.8,1.0,0.0,269.0,905.0,0.0,0,236.0,1
1194,1194,-0.3987372723928764,-0.4,0.0,1.0,489.0,532.0,1.0,0,599.0,1
1195,1195,0.050538015127133296,0.1,1.0,1.0,498.0,809.0,1.0,1,63.0,1
1196,1196,-0.7406949876717911,-0.7,1.0,0.0,406.0,851.0,0.0,0,303.0,1
1197,1197,0.3006409189893199,0.3,1.0,1.0,466.0,896.0,1.0,1,248.0,1
1198,1198,-0.6903261004376771,-0.7,0.0,1.0,285.0,817.0,1.0,0,378.0,1
1199,1199,0.6762979721115264,0.7,1.0,1.0,496.0,670.0,1.0,1,444.0,1
1200,1200,-0.5394903681570944,-0.5,1.0,0.0,336.0,997.0,0.0,0,367.0,1
1201,1201,0.8467716477012456,0.8,1.0,1.0,437.0,966.0,1.0,1,137.0,1
1202,1202,-0.47591500029300976,-0.5,0.0,1.0,482.0,701.0,1.0,0,417.0,1
1203,1203,-0.2237519793656988,-0.2,1.0,0.0,332.0,818.0,0.0,0,370.0,1
1204,1204,0.4492067554294231,0.4,0.0,0.0,387.0,718.0,0.0,1,685.0,1
1205,1205,-0.82452863786856,-0.8,1.0,0.0,385.0,578.0,0.0,0,557.0,1
1206,1206,0.4358063393127062,0.4,0.0,0.0,352.0,514.0,0.0,1,514.0,1
1207,1207,-0.04429327240831471,-0.0,0.0,1.0,423.0,930.0,0.0,1,1577.0,0
1208,1208,0.04674377620410164,0.0,1.0,1.0,392.0,842.0,0.0,0,1156.0,0
1209,1209,-0.7353765301592108,-0.7,1.0,0.0,307.0,905.0,0.0,0,318.0,1
1210,1210,0.5483586708897507,0.5,0.0,0.0,480.0,811.0,0.0,1,269.0,1
1211,1211,0.014525584857282059,0.0,0.0,0.0,378.0,906.0,0.0,1,416.0,1
1212,1212,0.28282468865223487,0.3,0.0,0.0,300.0,555.0,0.0,1,965.0,1
1213,1213,-0.32055381977314423,-0.3,1.0,0.0,347.0,790.0,0.0,0,433.0,1
1214,1214,-0.2311200481848027,-0.2,1.0,0.0,456.0,576.0,0.0,0,568.0,1
1215,1215,-0.7235752402800077,-0.7,0.0,1.0,357.0,912.0,1.0,0,221.0,1
1216,1216,-0.09135112723147487,-0.1,1.0,0.0,277.0,880.0,0.0,0,443.0,1
1217,1217,-0.3564796485385199,-0.4,0.0,1.0,288.0,601.0,1.0,0,2561.0,1
1218,1218,-0.8122165986278895,-0.8,0.0,1.0,255.0,854.0,1.0,0,311.0,1
1219,1219,-0.4406153929147682,-0.4,0.0,1.0,351.0,649.0,1.0,0,460.0,1
1220,1220,-0.21954064517419092,-0.2,1.0,0.0,372.0,514.0,0.0,0,774.0,1
1221,1221,0.5958673575856847,0.6,1.0,1.0,482.0,513.0,1.0,1,315.0,1
1222,1222,0.5477708847818678,0.5,1.0,1.0,299.0,976.0,1.0,1,35.0,1
1223,1223,-0.2853106673467045,-0.3,1.0,0.0,397.0,735.0,0.0,0,1458.0,1
1224,1224,0.7504629225323919,0.8,0.0,0.0,440.0,893.0,0.0,1,87.0,1
1225,1225,-0.8272203592135527,-0.8,0.0,1.0,407.0,859.0,1.0,0,174.0,1
1226,1226,0.4764931528137891,0.5,1.0,1.0,374.0,714.0,1.0,1,472.0,1
1227,1227,-0.35916632263664583,-0.4,1.0,0.0,345.0,701.0,0.0,0,634.0,1
1228,1228,-0.43754423897014183,-0.4,1.0,0.0,488.0,670.0,0.0,0,202.0,1
1229,1229,-0.2123971504119646,-0.2,0.0,1.0,331.0,689.0,1.0,0,700.0,1
1230,1230,-0.1864593833700816,-0.2,0.0,1.0,366.0,776.0,1.0,0,2128.0,1
1231,1231,-0.893479194565062,-0.9,0.0,1.0,389.0,889.0,1.0,0,122.0,1
1232,1232,0.0062338250619484725,0.0,0.0,0.0,491.0,631.0,0.0,1,218.0,1
1233,1233,0.31030273255114793,0.3,0.0,0.0,470.0,839.0,0.0,1,321.0,1
1234,1234,-0.8866455855378941,-0.9,0.0,1.0,296.0,606.0,1.0,0,688.0,1
1235,1235,0.542280461005841,0.5,1.0,1.0,252.0,792.0,1.0,1,356.0,1
1236,1236,0.7439136629646143,0.7,0.0,0.0,271.0,542.0,0.0,1,227.0,1
1237,1237,0.7448360877170425,0.7,0.0,0.0,330.0,528.0,0.0,1,512.0,1
1238,1238,-0.1710002236343362,-0.2,1.0,0.0,450.0,724.0,0.0,0,546.0,1
1239,1239,-0.8903982531452846,-0.9,1.0,0.0,329.0,640.0,0.0,0,271.0,1
1240,1240,-0.35932867629887977,-0.4,1.0,0.0,313.0,924.0,1.0,1,-37.0,0
1241,1241,0.597845140422221,0.6,1.0,1.0,455.0,680.0,1.0,1,395.0,1
1242,1242,0.7707786007050269,0.8,1.0,1.0,355.0,998.0,1.0,1,307.0,1
1243,1243,-0.24991382637408888,-0.2,1.0,0.0,473.0,708.0,0.0,0,469.0,1
1244,1244,-0.5651460786770375,-0.6,1.0,0.0,406.0,721.0,0.0,0,183.0,1
1245,1245,0.4120442258853426,0.4,0.0,0.0,433.0,586.0,0.0,1,381.0,1
1246,1246,-0.3784959003291588,-0.4,0.0,1.0,350.0,817.0,1.0,0,463.0,1
1247,1247,-0.08371150281680462,-0.1,0.0,1.0,410.0,908.0,1.0,0,-18.0,1
1248,1248,0.6545845463458465,0.7,1.0,1.0,347.0,816.0,1.0,1,237.0,1
1249,1249,0.7149665045024675,0.7,0.0,0.0,295.0,843.0,0.0,1,242.0,1
1250,1250,-0.18657436019064255,-0.2,0.0,1.0,469.0,894.0,0.0,1,227.0,0
1251,1251,0.15696215201848485,0.2,1.0,1.0,375.0,916.0,1.0,1,169.0,1
1252,1252,-0.5732251006258264,-0.6,1.0,0.0,327.0,564.0,0.0,0,219.0,1
1253,1253,0.7517972241754057,0.8,1.0,1.0,287.0,599.0,1.0,1,734.0,1
1254,1254,0.07451075820063024,0.1,0.0,0.0,438.0,571.0,0.0,1,1671.0,1
1255,1255,0.45805395381332226,0.5,0.0,0.0,315.0,738.0,0.0,1,407.0,1
1256,1256,-0.032420934686058556,-0.0,1.0,0.0,320.0,510.0,1.0,1,1600.0,0
1257,1257,-0.5961451196685601,-0.6,0.0,1.0,430.0,929.0,1.0,0,331.0,1
1258,1258,0.29637941535016166,0.3,0.0,0.0,388.0,699.0,0.0,1,943.0,1
1259,1259,-0.8022426791160966,-0.8,0.0,1.0,486.0,511.0,1.0,0,643.0,1
1260,1260,-0.7901280598179952,-0.8,1.0,0.0,446.0,515.0,0.0,0,389.0,1
1261,1261,-0.602332345233191,-0.6,0.0,1.0,348.0,739.0,1.0,0,243.0,1
1262,1262,-0.1516669259824579,-0.2,1.0,0.0,458.0,802.0,0.0,0,760.0,1
1263,1263,0.0730327436535172,0.1,0.0,0.0,353.0,823.0,0.0,1,784.0,1
1264,1264,0.1406017685923654,0.1,1.0,1.0,296.0,845.0,1.0,1,559.0,1
1265,1265,-0.17542276474963614,-0.2,0.0,1.0,371.0,849.0,0.0,1,560.0,0
1266,1266,0.13570198780777287,0.1,1.0,1.0,412.0,620.0,0.0,0,1138.0,0
1267,1267,0.6061203093545494,0.6,1.0,1.0,366.0,973.0,1.0,1,141.0,1
1268,1268,0.6750908251468811,0.7,1.0,1.0,431.0,883.0,1.0,1,326.0,1
1269,1269,-0.447199723860718,-0.4,1.0,0.0,415.0,919.0,0.0,0,436.0,1
1270,1270,-0.3455541055185605,-0.3,0.0,1.0,289.0,938.0,0.0,1,-417.0,0
1271,1271,0.4980146577545045,0.5,1.0,1.0,259.0,532.0,1.0,1,509.0,1
1272,1272,-0.6039911754349272,-0.6,1.0,0.0,382.0,586.0,0.0,0,392.0,1
1273,1273,0.1301724003360133,0.1,0.0,0.0,468.0,556.0,0.0,1,786.0,1
1274,1274,-0.28639192315683004,-0.3,0.0,1.0,326.0,731.0,1.0,0,543.0,1
1275,1275,-0.5397708130956815,-0.5,1.0,0.0,442.0,593.0,0.0,0,535.0,1
1276,1276,-0.5852514167932366,-0.6,0.0,1.0,375.0,752.0,1.0,0,213.0,1
1277,1277,0.40654223601115447,0.4,0.0,0.0,497.0,872.0,0.0,1,281.0,1
1278,1278,0.26512871984758835,0.3,0.0,0.0,485.0,914.0,0.0,1,641.0,1
1279,1279,0.05134554965864624,0.1,0.0,0.0,340.0,964.0,0.0,1,356.0,1
1280,1280,-0.031205417853814366,-0.0,1.0,0.0,444.0,776.0,1.0,1,420.0,0
1281,1281,0.7194981381951745,0.7,0.0,0.0,419.0,993.0,0.0,1,318.0,1
1282,1282,-0.6397740808508996,-0.6,1.0,0.0,483.0,852.0,0.0,0,435.0,1
1283,1283,-0.5283835409261466,-0.5,1.0,0.0,486.0,632.0,0.0,0,132.0,1
1284,1284,0.04521456371113741,0.0,0.0,0.0,480.0,733.0,0.0,1,517.0,1
1285,1285,-0.7923200840369679,-0.8,1.0,0.0,433.0,817.0,0.0,0,170.0,1
1286,1286,0.2439543603168849,0.2,1.0,1.0,482.0,767.0,0.0,0,481.0,0
1287,1287,0.27252843256838355,0.3,0.0,0.0,400.0,829.0,0.0,1,51.0,1
1288,1288,-0.33831677740890675,-0.3,1.0,0.0,376.0,809.0,0.0,0,325.0,1
1289,1289,-0.5819277454526338,-0.6,1.0,0.0,484.0,716.0,0.0,0,140.0,1
1290,1290,0.11208166141224696,0.1,1.0,1.0,254.0,766.0,1.0,1,880.0,1
1291,1291,0.8659208076225883,0.9,0.0,0.0,369.0,759.0,0.0,1,162.0,1
1292,1292,0.021194787646667268,0.0,0.0,0.0,314.0,623.0,0.0,1,883.0,1
1293,1293,0.222932559308331,0.2,0.0,0.0,450.0,809.0,0.0,1,371.0,1
1294,1294,0.46951950574985346,0.5,1.0,1.0,417.0,945.0,1.0,1,408.0,1
1295,1295,0.8103462719418418,0.8,0.0,0.0,364.0,666.0,0.0,1,290.0,1
1296,1296,0.08978126975035994,0.1,1.0,1.0,461.0,709.0,1.0,1,1640.0,1
1297,1297,0.8846400142181033,0.9,1.0,1.0,461.0,710.0,1.0,1,429.0,1
1298,1298,-0.8556434930193,-0.9,1.0,0.0,397.0,773.0,0.0,0,220.0,1
1299,1299,0.1849420145971573,0.2,0.0,0.0,304.0,611.0,0.0,1,905.0,1
1300,1300,0.20755486733248907,0.2,1.0,1.0,384.0,805.0,1.0,1,141.0,1
1301,1301,0.6034868382718482,0.6,1.0,1.0,307.0,981.0,1.0,1,152.0,1
1302,1302,-0.435866647599734,-0.4,0.0,1.0,266.0,854.0,1.0,0,100.0,1
1303,1303,0.21382790475088764,0.2,1.0,1.0,497.0,509.0,1.0,1,664.0,1
1304,1304,-0.052008442251793796,-0.1,0.0,1.0,268.0,683.0,1.0,0,199.0,1
1305,1305,-0.5862362978707895,-0.6,1.0,0.0,250.0,868.0,0.0,0,392.0,1
1306,1306,0.47909775125995735,0.5,0.0,0.0,281.0,680.0,0.0,1,599.0,1
1307,1307,-0.2610163004449215,-0.3,0.0,1.0,402.0,931.0,1.0,0,1947.0,1
1308,1308,-0.7966079866866803,-0.8,0.0,1.0,480.0,965.0,1.0,0,135.0,1
1309,1309,-0.7563678014413922,-0.8,1.0,0.0,411.0,613.0,0.0,0,456.0,1
1310,1310,0.8717272124150562,0.9,1.0,1.0,356.0,767.0,1.0,1,297.0,1
1311,1311,-0.06193302845006998,-0.1,0.0,1.0,254.0,636.0,1.0,0,2550.0,1
1312,1312,-0.8242117111105826,-0.8,1.0,0.0,314.0,667.0,0.0,0,169.0,1
1313,1313,0.1153723479611305,0.1,1.0,1.0,313.0,755.0,1.0,1,1382.0,1
1314,1314,0.8918103981955702,0.9,0.0,0.0,259.0,802.0,0.0,1,459.0,1
1315,1315,0.2911403864814869,0.3,1.0,1.0,448.0,635.0,1.0,1,367.0,1
1316,1316,0.24510224019925186,0.2,1.0,1.0,363.0,579.0,1.0,1,898.0,1
1317,1317,0.4909441663246382,0.5,1.0,1.0,355.0,893.0,1.0,1,322.0,1
1318,1318,0.1900432446620285,0.2,0.0,0.0,302.0,833.0,1.0,0,155.0,0
1319,1319,0.8350066838123779,0.8,0.0,0.0,298.0,755.0,0.0,1,187.0,1
1320,1320,0.15812285964890072,0.2,1.0,1.0,358.0,616.0,0.0,0,856.0,0
1321,1321,-0.25922879254596265,-0.3,1.0,0.0,365.0,748.0,1.0,1,107.0,0
1322,1322,0.309019906803497,0.3,1.0,1.0,455.0,796.0,1.0,1,819.0,1
1323,1323,0.8781775851388126,0.9,1.0,1.0,354.0,763.0,1.0,1,273.0,1
1324,1324,-0.10304807118647896,-0.1,1.0,0.0,374.0,884.0,0.0,0,892.0,1
1325,1325,0.2412517216276887,0.2,0.0,0.0,266.0,517.0,0.0,1,347.0,1
1326,1326,0.20629287025584386,0.2,0.0,0.0,460.0,516.0,0.0,1,434.0,1
1327,1327,0.5719895974599042,0.6,1.0,1.0,426.0,619.0,1.0,1,305.0,1
1328,1328,-0.05915259038278886,-0.1,1.0,0.0,493.0,962.0,0.0,0,805.0,1
1329,1329,0.47068130002153785,0.5,0.0,0.0,391.0,902.0,0.0,1,397.0,1
1330,1330,-0.08529148489271021,-0.1,0.0,1.0,485.0,525.0,1.0,0,2290.0,1
1331,1331,0.09788165744449684,0.1,1.0,1.0,381.0,767.0,1.0,1,1092.0,1
1332,1332,-0.6093949689299694,-0.6,1.0,0.0,476.0,616.0,0.0,0,538.0,1
1333,1333,0.6292491631896721,0.6,1.0,1.0,403.0,927.0,1.0,1,470.0,1
1334,1334,-0.32579952184151706,-0.3,0.0,1.0,429.0,696.0,1.0,0,665.0,1
1335,1335,-0.47563616178766593,-0.5,1.0,0.0,390.0,662.0,0.0,0,828.0,1
1336,1336,0.3071495890350372,0.3,0.0,0.0,419.0,507.0,0.0,1,434.0,1
1337,1337,0.575522637387541,0.6,0.0,0.0,319.0,614.0,0.0,1,577.0,1
1338,1338,-0.1959243279853824,-0.2,0.0,1.0,267.0,961.0,1.0,0,92.0,1
1339,1339,-0.7701958481771218,-0.8,0.0,1.0,310.0,831.0,1.0,0,319.0,1
1340,1340,-0.014987757142393088,-0.0,0.0,1.0,417.0,583.0,0.0,1,1600.0,0
1341,1341,0.19656857081588008,0.2,0.0,0.0,439.0,906.0,0.0,1,785.0,1
1342,1342,-0.8259505897981508,-0.8,1.0,0.0,319.0,939.0,0.0,0,142.0,1
1343,1343,0.09257189597735849,0.1,1.0,1.0,444.0,668.0,1.0,1,728.0,1
1344,1344,0.19170769058728376,0.2,0.0,0.0,433.0,749.0,0.0,1,18.0,1
1345,1345,0.4757738450292551,0.5,0.0,0.0,353.0,666.0,0.0,1,571.0,1
1346,1346,0.7575650305009375,0.8,0.0,0.0,298.0,845.0,0.0,1,77.0,1
1347,1347,-0.40592007277683195,-0.4,1.0,0.0,336.0,677.0,0.0,0,557.0,1
1348,1348,0.12213708201746332,0.1,0.0,0.0,328.0,996.0,0.0,1,456.0,1
1349,1349,-0.146382483217665,-0.1,0.0,1.0,354.0,522.0,0.0,1,2454.0,0
1350,1350,-0.1921893422316997,-0.2,0.0,1.0,307.0,595.0,1.0,0,1238.0,1
1351,1351,0.5071778602658957,0.5,0.0,0.0,367.0,641.0,0.0,1,572.0,1
1352,1352,-0.40735673894778196,-0.4,1.0,0.0,335.0,882.0,0.0,0,123.0,1
1353,1353,0.3837095368125968,0.4,0.0,0.0,440.0,538.0,0.0,1,702.0,1
1354,1354,-0.29219585827893346,-0.3,1.0,0.0,393.0,790.0,0.0,0,537.0,1
1355,1355,0.45531796774029465,0.5,0.0,0.0,483.0,899.0,0.0,1,128.0,1
1356,1356,-0.8013771886045745,-0.8,1.0,0.0,260.0,719.0,0.0,0,241.0,1
1357,1357,0.47129525785349224,0.5,1.0,1.0,312.0,642.0,1.0,1,176.0,1
1358,1358,-0.7281803330675114,-0.7,1.0,0.0,491.0,968.0,0.0,0,301.0,1
1359,1359,0.58225126635084,0.6,1.0,1.0,325.0,767.0,1.0,1,238.0,1
1360,1360,0.6317420802900434,0.6,1.0,1.0,408.0,801.0,1.0,1,131.0,1
1361,1361,0.3273419572949884,0.3,1.0,1.0,483.0,792.0,1.0,1,355.0,1
1362,1362,0.7805912093824213,0.8,1.0,1.0,480.0,963.0,1.0,1,27.0,1
1363,1363,-0.6649621699652069,-0.7,0.0,1.0,395.0,537.0,1.0,0,708.0,1
1364,1364,0.8777681746874396,0.9,1.0,1.0,466.0,989.0,1.0,1,265.0,1
1365,1365,0.3444828133229626,0.3,0.0,0.0,386.0,771.0,0.0,1,213.0,1
1366,1366,-0.8060907987947279,-0.8,1.0,0.0,361.0,886.0,0.0,0,263.0,1
1367,1367,-0.23555157265175397,-0.2,1.0,0.0,362.0,605.0,0.0,0,463.0,1
1368,1368,0.6542338798564443,0.7,0.0,0.0,357.0,550.0,0.0,1,333.0,1
1369,1369,0.6008889688180946,0.6,1.0,1.0,311.0,915.0,1.0,1,324.0,1
1370,1370,0.6585899322649532,0.7,0.0,0.0,417.0,822.0,0.0,1,121.0,1
1371,1371,-0.4377313105067215,-0.4,0.0,1.0,384.0,900.0,1.0,0,616.0,1
1372,1372,-0.16878978283655421,-0.2,0.0,1.0,275.0,668.0,1.0,0,1807.0,1
1373,1373,0.0917870232508109,0.1,0.0,0.0,485.0,914.0,0.0,1,71.0,1
1374,1374,0.7336630867623762,0.7,1.0,1.0,411.0,871.0,1.0,1,378.0,1
1375,1375,-0.041037031743295205,-0.0,0.0,1.0,295.0,697.0,0.0,1,358.0,0
1376,1376,0.02933490527457039,0.0,1.0,1.0,424.0,688.0,1.0,1,478.0,1
1377,1377,0.1916489218858658,0.2,1.0,1.0,255.0,806.0,1.0,1,2099.0,1
1378,1378,0.5209088564751801,0.5,1.0,1.0,295.0,907.0,1.0,1,98.0,1
1379,1379,0.3049538530965382,0.3,0.0,0.0,458.0,740.0,0.0,1,702.0,1
1380,1380,-0.8496439656163667,-0.8,1.0,0.0,397.0,670.0,0.0,0,433.0,1
1381,1381,-0.046338200610488434,-0.0,0.0,1.0,284.0,533.0,0.0,1,373.0,0
1382,1382,0.0724741741853483,0.1,0.0,0.0,257.0,519.0,0.0,1,864.0,1
1383,1383,-0.6973140078829004,-0.7,0.0,1.0,406.0,507.0,1.0,0,477.0,1
1384,1384,0.7836564179489683,0.8,1.0,1.0,402.0,955.0,1.0,1,63.0,1
1385,1385,-0.3802142494992957,-0.4,1.0,0.0,484.0,506.0,0.0,0,410.0,1
1386,1386,-0.6553694087756015,-0.7,0.0,1.0,483.0,851.0,0.0,1,-424.0,0
1387,1387,-0.685434167112321,-0.7,1.0,0.0,385.0,971.0,0.0,0,264.0,1
1388,1388,-0.5451665937044847,-0.5,1.0,0.0,277.0,582.0,0.0,0,261.0,1
1389,1389,-0.5638570816495888,-0.6,1.0,0.0,467.0,797.0,0.0,0,356.0,1
1390,1390,0.6881112390953131,0.7,0.0,0.0,467.0,894.0,0.0,1,199.0,1
1391,1391,-0.06707928773608496,-0.1,0.0,1.0,430.0,510.0,0.0,1,930.0,0
1392,1392,0.24342207459474408,0.2,1.0,1.0,389.0,745.0,1.0,1,426.0,1
1393,1393,0.6118816387483373,0.6,0.0,0.0,390.0,955.0,0.0,1,355.0,1
1394,1394,0.8034101911999495,0.8,0.0,0.0,481.0,821.0,0.0,1,38.0,1
1395,1395,-0.3245163015656869,-0.3,0.0,1.0,431.0,917.0,1.0,0,402.0,1
1396,1396,0.5078474225887272,0.5,1.0,1.0,417.0,700.0,1.0,1,253.0,1
1397,1397,-0.3882810264570735,-0.4,1.0,0.0,354.0,958.0,1.0,1,58.0,0
1398,1398,0.09319029384142175,0.1,0.0,0.0,459.0,897.0,0.0,1,1814.0,1
1399,1399,0.8568017066834831,0.9,1.0,1.0,368.0,629.0,1.0,1,203.0,1
1400,1400,-0.2818129189632542,-0.3,0.0,1.0,320.0,906.0,1.0,0,1774.0,1
1401,1401,0.8519616473478412,0.9,1.0,1.0,448.0,608.0,1.0,1,314.0,1
1402,1402,0.8041888955210136,0.8,0.0,0.0,311.0,859.0,0.0,1,450.0,1
1403,1403,0.19075952115829786,0.2,1.0,1.0,331.0,706.0,1.0,1,263.0,1
1404,1404,0.8091228105810938,0.8,0.0,0.0,436.0,601.0,0.0,1,303.0,1
1405,1405,-0.8070147298973916,-0.8,1.0,0.0,483.0,731.0,0.0,0,206.0,1
1406,1406,-0.3733815176251176,-0.4,1.0,0.0,381.0,548.0,0.0,0,471.0,1
1407,1407,-0.8074590747084455,-0.8,0.0,1.0,316.0,706.0,1.0,0,408.0,1
1408,1408,0.08867876108659134,0.1,1.0,1.0,375.0,833.0,1.0,1,1352.0,1
1409,1409,-0.7632885641943725,-0.8,0.0,1.0,381.0,670.0,1.0,0,229.0,1
1410,1410,-0.08450512293170842,-0.1,1.0,0.0,281.0,790.0,0.0,0,189.0,1
1411,1411,0.15575723471154246,0.2,1.0,1.0,448.0,810.0,1.0,1,462.0,1
1412,1412,0.852441721266748,0.9,1.0,1.0,289.0,578.0,1.0,1,873.0,1
1413,1413,0.8285345341693956,0.8,1.0,1.0,376.0,840.0,1.0,1,394.0,1
1414,1414,-0.7194438097387005,-0.7,0.0,1.0,291.0,966.0,1.0,0,423.0,1
1415,1415,-0.42806188711624665,-0.4,1.0,0.0,268.0,767.0,0.0,0,195.0,1
1416,1416,-0.6780997483347879,-0.7,0.0,1.0,310.0,500.0,1.0,0,550.0,1
1417,1417,0.6211265428344642,0.6,1.0,1.0,261.0,582.0,1.0,1,207.0,1
1418,1418,0.5115847169961879,0.5,0.0,0.0,326.0,733.0,0.0,1,761.0,1
1419,1419,-0.30992027493212226,-0.3,0.0,1.0,308.0,926.0,1.0,0,1566.0,1
1420,1420,-0.838646242506311,-0.8,0.0,1.0,443.0,578.0,1.0,0,189.0,1
1421,1421,0.3049513649958674,0.3,0.0,0.0,270.0,711.0,0.0,1,469.0,1
1422,1422,-0.5213210168215967,-0.5,0.0,1.0,442.0,895.0,1.0,0,423.0,1
1423,1423,-0.042951732149700494,-0.0,1.0,0.0,327.0,667.0,1.0,1,956.0,0
1424,1424,-0.2730533943792465,-0.3,1.0,0.0,370.0,857.0,0.0,0,983.0,1
1425,1425,-0.16697167681429192,-0.2,1.0,0.0,428.0,866.0,0.0,0,306.0,1
1426,1426,-0.40472194459076455,-0.4,0.0,1.0,370.0,905.0,1.0,0,755.0,1
1427,1427,-0.6295397053462474,-0.6,1.0,0.0,441.0,582.0,0.0,0,327.0,1
1428,1428,0.4136791305645934,0.4,1.0,1.0,389.0,708.0,1.0,1,473.0,1
1429,1429,-0.36680781382922456,-0.4,1.0,0.0,499.0,797.0,0.0,0,284.0,1
1430,1430,-0.745529878080607,-0.7,1.0,0.0,396.0,834.0,0.0,0,230.0,1
1431,1431,0.6061511572758694,0.6,0.0,0.0,404.0,658.0,0.0,1,338.0,1
1432,1432,0.18149886044665198,0.2,1.0,1.0,474.0,956.0,1.0,1,380.0,1
1433,1433,-0.37200751688179456,-0.4,1.0,0.0,352.0,585.0,0.0,0,723.0,1
1434,1434,-0.6978028490865396,-0.7,1.0,0.0,484.0,848.0,0.0,0,438.0,1
1435,1435,-0.7526303403978357,-0.8,0.0,1.0,430.0,628.0,1.0,0,242.0,1
1436,1436,-0.5204654305047363,-0.5,0.0,1.0,373.0,905.0,1.0,0,602.0,1
1437,1437,0.7726126547034698,0.8,1.0,1.0,339.0,625.0,1.0,1,276.0,1
1438,1438,0.20917833015821896,0.2,1.0,1.0,351.0,550.0,1.0,1,789.0,1
1439,1439,-0.8448325668006849,-0.8,0.0,1.0,434.0,528.0,1.0,0,658.0,1
1440,1440,0.5141431002068272,0.5,1.0,1.0,294.0,910.0,1.0,1,146.0,1
1441,1441,0.4754745163672026,0.5,0.0,0.0,313.0,535.0,0.0,1,162.0,1
1442,1442,-0.38821676769731284,-0.4,0.0,1.0,304.0,780.0,0.0,1,356.0,0
1443,1443,0.10316997469430877,0.1,1.0,1.0,314.0,788.0,1.0,1,278.0,1
1444,1444,0.8365733197514381,0.8,0.0,0.0,326.0,659.0,0.0,1,175.0,1
1445,1445,0.23844759999291087,0.2,1.0,1.0,337.0,824.0,1.0,1,1029.0,1
1446,1446,0.899701255840975,0.9,0.0,0.0,296.0,832.0,0.0,1,112.0,1
1447,1447,-0.4069733425600756,-0.4,1.0,0.0,279.0,830.0,0.0,0,271.0,1
1448,1448,-0.18552423616312308,-0.2,1.0,0.0,411.0,548.0,0.0,0,651.0,1
1449,1449,-0.4112016021653546,-0.4,0.0,1.0,295.0,783.0,1.0,0,482.0,1
1450,1450,0.5851978733696251,0.6,0.0,0.0,308.0,828.0,0.0,1,794.0,1
1451,1451,-0.7494180706824656,-0.7,1.0,0.0,365.0,698.0,0.0,0,597.0,1
1452,1452,0.5619597981243768,0.6,1.0,1.0,492.0,927.0,1.0,1,241.0,1
1453,1453,-0.12160019582830628,-0.1,1.0,0.0,252.0,716.0,0.0,0,1262.0,1
1454,1454,0.6338134849074747,0.6,1.0,1.0,415.0,640.0,1.0,1,285.0,1
1455,1455,0.810843905962345,0.8,0.0,0.0,469.0,845.0,0.0,1,466.0,1
1456,1456,0.8704315217666568,0.9,1.0,1.0,316.0,630.0,1.0,1,334.0,1
1457,1457,-0.057515930888660693,-0.1,1.0,0.0,446.0,896.0,0.0,0,628.0,1
1458,1458,-0.6922235101233897,-0.7,1.0,0.0,339.0,656.0,0.0,0,355.0,1
1459,1459,0.5112765718649296,0.5,1.0,1.0,337.0,826.0,1.0,1,77.0,1
1460,1460,0.7936503473732758,0.8,0.0,0.0,441.0,925.0,0.0,1,194.0,1
1461,1461,0.014362418235996821,0.0,1.0,1.0,263.0,978.0,0.0,0,99.0,0
1462,1462,0.5753067583705388,0.6,1.0,1.0,478.0,791.0,1.0,1,271.0,1
1463,1463,0.010381326623125964,0.0,1.0,1.0,264.0,870.0,0.0,0,846.0,0
1464,1464,-0.13186748272560422,-0.1,0.0,1.0,308.0,741.0,0.0,1,111.0,0
1465,1465,0.7849443495105785,0.8,1.0,1.0,438.0,841.0,1.0,1,391.0,1
1466,1466,0.21382321596782428,0.2,1.0,1.0,453.0,654.0,1.0,1,553.0,1
1467,1467,0.8104723069174787,0.8,1.0,1.0,375.0,573.0,1.0,1,462.0,1
1468,1468,-0.019119876062181906,-0.0,1.0,0.0,447.0,726.0,1.0,1,987.0,0
1469,1469,-0.615772709593986,-0.6,1.0,0.0,455.0,762.0,0.0,0,363.0,1
1470,1470,-0.6728454486867295,-0.7,1.0,0.0,287.0,673.0,0.0,0,550.0,1
1471,1471,0.8238065842734047,0.8,1.0,1.0,464.0,561.0,1.0,1,335.0,1
1472,1472,-0.8236809647398045,-0.8,1.0,0.0,261.0,562.0,0.0,0,357.0,1
1473,1473,-0.23662156750639207,-0.2,0.0,1.0,301.0,825.0,0.0,1,794.0,0
1474,1474,-0.17558436442914205,-0.2,1.0,0.0,460.0,738.0,0.0,0,382.0,1
1475,1475,-0.8558221930726986,-0.9,0.0,1.0,425.0,643.0,1.0,0,252.0,1
1476,1476,0.7006982229479347,0.7,0.0,0.0,370.0,854.0,0.0,1,416.0,1
1477,1477,0.10194188728446718,0.1,1.0,1.0,399.0,604.0,1.0,1,2607.0,1
1478,1478,-0.7190122726610805,-0.7,0.0,1.0,351.0,723.0,1.0,0,636.0,1
1479,1479,-0.36484426743577325,-0.4,1.0,0.0,318.0,510.0,0.0,0,922.0,1
1480,1480,0.23299922229836045,0.2,0.0,0.0,324.0,626.0,0.0,1,40.0,1
1481,1481,0.4248578942419411,0.4,1.0,1.0,434.0,944.0,1.0,1,102.0,1
1482,1482,-0.59494358170307,-0.6,1.0,0.0,377.0,889.0,0.0,0,474.0,1
1483,1483,-0.28304163867724363,-0.3,0.0,1.0,463.0,701.0,1.0,0,236.0,1
1484,1484,0.058469354966948606,0.1,1.0,1.0,313.0,958.0,0.0,0,79.0,0
1485,1485,-0.0240643096884936,-0.0,1.0,0.0,346.0,551.0,0.0,0,1663.0,1
1486,1486,0.024956342274491616,0.0,1.0,1.0,300.0,896.0,1.0,1,744.0,1
1487,1487,-0.40393058349828725,-0.4,1.0,0.0,300.0,690.0,0.0,0,700.0,1
1488,1488,0.20335210102745316,0.2,1.0,1.0,367.0,819.0,1.0,1,1464.0,1
1489,1489,-0.5056197616890856,-0.5,1.0,0.0,475.0,940.0,0.0,0,75.0,1
1490,1490,0.3555084760712178,0.4,0.0,0.0,274.0,708.0,0.0,1,188.0,1
1491,1491,-0.10763617395373448,-0.1,0.0,1.0,337.0,618.0,1.0,0,1195.0,1
