,trial,coherence,coherence_bin,green_side,correct_side,target_onset,checker_onset,decision,green_decision,decision_time,correct_decision
0,0,-0.7243746494345501,-0.7,0.0,1.0,274.0,654.0,1.0,0,292.0,1
1,1,0.6448882478932946,0.6,1.0,1.0,367.0,901.0,1.0,1,272.0,1
2,2,0.07692352859302065,0.1,0.0,0.0,260.0,839.0,0.0,1,341.0,1
3,3,-0.8219798029312627,-0.8,1.0,0.0,356.0,935.0,0.0,0,359.0,1
4,4,-0.7070104230472372,-0.7,1.0,0.0,283.0,698.0,0.0,0,379.0,1
5,5,-0.8775872396320159,-0.9,0.0,1.0,477.0,942.0,1.0,0,201.0,1
6,6,-0.4880496487254167,-0.5,1.0,0.0,325.0,986.0,1.0,1,-11.0,0
7,7,-0.587351062039682,-0.6,0.0,1.0,400.0,635.0,1.0,0,235.0,1
8,8,-0.8885838956913087,-0.9,0.0,1.0,399.0,799.0,1.0,0,302.0,1
9,9,-0.08991471605364854,-0.1,0.0,1.0,277.0,667.0,1.0,0,586.0,1
10,10,-0.7262008411944771,-0.7,0.0,1.0,405.0,532.0,1.0,0,333.0,1
11,11,-0.010315768993220176,-0.0,1.0,0.0,319.0,540.0,1.0,1,1411.0,0
12,12,0.47522020701025813,0.5,0.0,0.0,367.0,687.0,0.0,1,506.0,1
13,13,0.07922051280670428,0.1,0.0,0.0,453.0,723.0,1.0,0,294.0,0
14,14,-0.20091796537588213,-0.2,0.0,1.0,320.0,647.0,1.0,0,573.0,1
15,15,-0.6472932037712318,-0.6,0.0,1.0,260.0,882.0,1.0,0,48.0,1
16,16,0.0910743598450553,0.1,0.0,0.0,279.0,830.0,0.0,1,501.0,1
17,17,-0.8835711466358983,-0.9,1.0,0.0,355.0,781.0,0.0,0,274.0,1
18,18,-0.21050153543175143,-0.2,0.0,1.0,354.0,773.0,1.0,0,273.0,1
19,19,-0.8423207379551628,-0.8,0.0,1.0,306.0,675.0,1.0,0,289.0,1
20,20,-0.49978330145312305,-0.5,0.0,1.0,261.0,549.0,1.0,0,650.0,1
21,21,-0.1294830716276557,-0.1,1.0,0.0,285.0,603.0,0.0,0,942.0,1
22,22,-0.7423218843427808,-0.7,0.0,1.0,406.0,971.0,1.0,0,123.0,1
23,23,0.19853663823801704,0.2,1.0,1.0,467.0,537.0,1.0,1,496.0,1
24,24,0.7520856832925006,0.8,1.0,1.0,444.0,500.0,1.0,1,456.0,1
25,25,-0.4132251349870824,-0.4,1.0,0.0,256.0,812.0,0.0,0,902.0,1
26,26,0.06874620882691884,0.1,1.0,1.0,365.0,835.0,1.0,1,1740.0,1
27,27,0.14852887431146244,0.1,1.0,1.0,272.0,984.0,1.0,1,404.0,1
28,28,-0.2294297934449694,-0.2,0.0,1.0,336.0,638.0,1.0,0,466.0,1
29,29,0.03186852780785421,0.0,1.0,1.0,284.0,744.0,1.0,1,572.0,1
30,30,-0.08616933212830058,-0.1,1.0,0.0,364.0,993.0,0.0,0,233.0,1
31,31,-0.18284569014282215,-0.2,0.0,1.0,389.0,578.0,1.0,0,553.0,1
32,32,0.586409594889845,0.6,1.0,1.0,364.0,545.0,1.0,1,401.0,1
33,33,0.34023749351751975,0.3,0.0,0.0,267.0,587.0,0.0,1,576.0,1
34,34,0.6656812344798112,0.7,1.0,1.0,456.0,926.0,1.0,1,328.0,1
35,35,0.5461993935413759,0.5,0.0,0.0,250.0,960.0,0.0,1,320.0,1
36,36,0.8868187673462943,0.9,0.0,0.0,359.0,626.0,0.0,1,565.0,1
37,37,0.7388716845722977,0.7,0.0,0.0,476.0,762.0,0.0,1,252.0,1
38,38,0.7781832624577122,0.8,1.0,1.0,309.0,532.0,1.0,1,449.0,1
39,39,0.6905108347343286,0.7,0.0,0.0,306.0,880.0,0.0,1,184.0,1
40,40,-0.7211074721209261,-0.7,1.0,0.0,414.0,754.0,0.0,0,252.0,1
41,41,-0.6549309674425281,-0.7,1.0,0.0,364.0,741.0,0.0,0,295.0,1
42,42,0.4871802893513023,0.5,1.0,1.0,373.0,993.0,1.0,1,174.0,1
43,43,0.6930470798160396,0.7,0.0,0.0,380.0,613.0,0.0,1,437.0,1
44,44,-0.6932913019463083,-0.7,1.0,0.0,423.0,767.0,0.0,0,340.0,1
45,45,-0.8269933742774342,-0.8,0.0,1.0,462.0,835.0,1.0,0,113.0,1
46,46,-0.6296107370644585,-0.6,1.0,0.0,430.0,960.0,0.0,0,410.0,1
47,47,0.17863309931086924,0.2,0.0,0.0,330.0,903.0,0.0,1,817.0,1
48,48,-0.8692106306360557,-0.9,0.0,1.0,336.0,638.0,1.0,0,326.0,1
49,49,0.1475587664496233,0.1,0.0,0.0,335.0,629.0,1.0,0,1276.0,0
50,50,-0.7552457320094226,-0.8,1.0,0.0,372.0,501.0,0.0,0,727.0,1
51,51,-0.7638540478879667,-0.8,0.0,1.0,463.0,701.0,1.0,0,516.0,1
52,52,-0.493310433588097,-0.5,0.0,1.0,397.0,718.0,1.0,0,305.0,1
53,53,-0.06934709403325101,-0.1,0.0,1.0,293.0,927.0,0.0,1,1440.0,0
54,54,-0.8515489799401518,-0.9,0.0,1.0,344.0,620.0,1.0,0,376.0,1
55,55,0.08455687682424018,0.1,1.0,1.0,496.0,989.0,1.0,1,165.0,1
56,56,-0.87939615150714,-0.9,0.0,1.0,334.0,758.0,1.0,0,28.0,1
57,57,-0.12301401957905633,-0.1,0.0,1.0,292.0,581.0,1.0,0,507.0,1
58,58,-0.7932692627175276,-0.8,1.0,0.0,392.0,879.0,0.0,0,499.0,1
59,59,-0.33992662606113,-0.3,1.0,0.0,466.0,737.0,0.0,0,537.0,1
60,60,-0.04665215161932301,-0.0,1.0,0.0,401.0,684.0,0.0,0,865.0,1
61,61,-0.20741414415322246,-0.2,1.0,0.0,317.0,585.0,0.0,0,3088.0,1
62,62,-0.2878038435216854,-0.3,0.0,1.0,325.0,880.0,1.0,0,265.0,1
63,63,-0.18269593268094675,-0.2,1.0,0.0,320.0,914.0,1.0,1,86.0,0
64,64,0.2888840086927623,0.3,1.0,1.0,459.0,613.0,1.0,1,398.0,1
65,65,0.5231550555885399,0.5,1.0,1.0,250.0,534.0,1.0,1,536.0,1
66,66,-0.3622829743051844,-0.4,1.0,0.0,298.0,503.0,0.0,0,809.0,1
67,67,0.07930767503504388,0.1,1.0,1.0,399.0,773.0,1.0,1,358.0,1
68,68,0.41155945139852446,0.4,1.0,1.0,454.0,773.0,1.0,1,283.0,1
69,69,0.4821778042051924,0.5,0.0,0.0,492.0,939.0,0.0,1,189.0,1
70,70,0.6402917615369544,0.6,1.0,1.0,490.0,943.0,1.0,1,327.0,1
71,71,0.06024930437414988,0.1,1.0,1.0,356.0,864.0,0.0,0,270.0,0
72,72,0.7156491520186404,0.7,1.0,1.0,443.0,865.0,1.0,1,232.0,1
73,73,0.7994538664145142,0.8,1.0,1.0,427.0,692.0,1.0,1,371.0,1
74,74,0.29292902532086795,0.3,1.0,1.0,250.0,736.0,1.0,1,254.0,1
75,75,0.039526973527516995,0.0,0.0,0.0,411.0,530.0,0.0,1,799.0,1
76,76,-0.6811572981415173,-0.7,0.0,1.0,342.0,956.0,1.0,0,232.0,1
77,77,0.4963998243295661,0.5,0.0,0.0,488.0,764.0,0.0,1,598.0,1
78,78,0.4409177059391006,0.4,0.0,0.0,302.0,720.0,0.0,1,328.0,1
79,79,-0.864244829885592,-0.9,0.0,1.0,488.0,827.0,1.0,0,215.0,1
80,80,-0.7557469676515562,-0.8,1.0,0.0,461.0,973.0,0.0,0,156.0,1
81,81,0.438557739046903,0.4,0.0,0.0,432.0,580.0,0.0,1,1098.0,1
82,82,0.7155453799741177,0.7,0.0,0.0,484.0,676.0,0.0,1,360.0,1
83,83,-0.5107044798290927,-0.5,1.0,0.0,313.0,953.0,1.0,1,-6.0,0
84,84,0.271197072025832,0.3,0.0,0.0,498.0,739.0,0.0,1,1123.0,1
85,85,0.37479381438165305,0.4,0.0,0.0,495.0,809.0,0.0,1,446.0,1
86,86,-0.37281482049143977,-0.4,0.0,1.0,417.0,866.0,1.0,0,67.0,1
87,87,-0.5078950664855317,-0.5,0.0,1.0,349.0,947.0,1.0,0,294.0,1
88,88,0.7857021174694233,0.8,1.0,1.0,399.0,849.0,1.0,1,142.0,1
89,89,0.45310168516701277,0.5,0.0,0.0,296.0,775.0,0.0,1,369.0,1
90,90,0.014217768050311608,0.0,0.0,0.0,302.0,505.0,0.0,1,543.0,1
91,91,0.7634864369838777,0.8,1.0,1.0,343.0,526.0,1.0,1,301.0,1
92,92,-0.4228654724707982,-0.4,0.0,1.0,380.0,525.0,1.0,0,605.0,1
93,93,-0.5185851873007408,-0.5,0.0,1.0,399.0,814.0,1.0,0,157.0,1
94,94,-0.7997798914704044,-0.8,0.0,1.0,478.0,850.0,1.0,0,132.0,1
95,95,0.5615927098912435,0.6,0.0,0.0,462.0,757.0,0.0,1,461.0,1
96,96,-0.6800017568043973,-0.7,0.0,1.0,476.0,656.0,1.0,0,218.0,1
97,97,0.1758076272550998,0.2,0.0,0.0,315.0,845.0,0.0,1,410.0,1
98,98,-0.5785137649048968,-0.6,0.0,1.0,384.0,719.0,1.0,0,177.0,1
99,99,-0.4967945474854196,-0.5,0.0,1.0,354.0,728.0,1.0,0,388.0,1
100,100,0.5492604103683066,0.5,0.0,0.0,404.0,744.0,0.0,1,212.0,1
101,101,0.7793205903565631,0.8,1.0,1.0,358.0,881.0,1.0,1,411.0,1
102,102,-0.11020915504221107,-0.1,0.0,1.0,316.0,671.0,1.0,0,363.0,1
103,103,0.32420876390358166,0.3,1.0,1.0,397.0,689.0,1.0,1,1014.0,1
104,104,0.5555719227922898,0.6,1.0,1.0,385.0,943.0,1.0,1,702.0,1
105,105,-0.040513538359067125,-0.0,0.0,1.0,288.0,954.0,0.0,1,288.0,0
106,106,-0.7315422358594321,-0.7,1.0,0.0,307.0,778.0,0.0,0,415.0,1
107,107,0.03573129958087018,0.0,1.0,1.0,319.0,785.0,1.0,1,626.0,1
108,108,-0.6854004986363994,-0.7,0.0,1.0,497.0,541.0,1.0,0,522.0,1
109,109,-0.7701305531251644,-0.8,0.0,1.0,335.0,769.0,1.0,0,276.0,1
110,110,-0.8656566932989447,-0.9,0.0,1.0,435.0,995.0,1.0,0,100.0,1
111,111,-0.7457397141085631,-0.7,1.0,0.0,275.0,589.0,0.0,0,716.0,1
112,112,0.8164540155227947,0.8,0.0,0.0,389.0,502.0,0.0,1,439.0,1
113,113,0.3630374955265784,0.4,0.0,0.0,466.0,897.0,0.0,1,287.0,1
114,114,-0.19211235404580929,-0.2,0.0,1.0,487.0,646.0,1.0,0,1007.0,1
115,115,-0.8913399087019327,-0.9,0.0,1.0,443.0,644.0,1.0,0,393.0,1
116,116,-0.059372494292037725,-0.1,0.0,1.0,452.0,570.0,1.0,0,308.0,1
117,117,0.18657207510842067,0.2,0.0,0.0,398.0,713.0,0.0,1,449.0,1
118,118,0.24042058542873856,0.2,0.0,0.0,312.0,993.0,0.0,1,405.0,1
119,119,-0.8694489299368005,-0.9,1.0,0.0,443.0,555.0,0.0,0,402.0,1
120,120,-0.6911324176498191,-0.7,0.0,1.0,304.0,611.0,1.0,0,595.0,1
121,121,-0.8601707071209527,-0.9,1.0,0.0,499.0,756.0,0.0,0,315.0,1
122,122,-0.5833794282755744,-0.6,1.0,0.0,331.0,795.0,0.0,0,484.0,1
123,123,0.4702158231412502,0.5,0.0,0.0,296.0,563.0,0.0,1,1421.0,1
124,124,0.08549457853124343,0.1,1.0,1.0,292.0,854.0,1.0,1,234.0,1
125,125,-0.2035611154163881,-0.2,0.0,1.0,383.0,775.0,1.0,0,312.0,1
126,126,-0.1420224560723462,-0.1,1.0,0.0,255.0,655.0,0.0,0,2950.0,1
127,127,-0.5093741157493812,-0.5,1.0,0.0,368.0,616.0,0.0,0,446.0,1
128,128,-0.28723582761699773,-0.3,0.0,1.0,342.0,704.0,1.0,0,244.0,1
129,129,0.30896139073601214,0.3,1.0,1.0,336.0,705.0,1.0,1,489.0,1
130,130,-0.08641443308505137,-0.1,1.0,0.0,285.0,998.0,0.0,0,1057.0,1
131,131,-0.3518943205504521,-0.4,0.0,1.0,300.0,534.0,1.0,0,356.0,1
132,132,-0.5711910871893688,-0.6,1.0,0.0,415.0,878.0,0.0,0,357.0,1
133,133,-0.06237463026226553,-0.1,0.0,1.0,324.0,840.0,1.0,0,696.0,1
134,134,-0.6397194271301421,-0.6,1.0,0.0,471.0,838.0,0.0,0,241.0,1
135,135,-0.005904880810696511,-0.0,0.0,1.0,403.0,960.0,1.0,0,337.0,1
136,136,-0.0010933831751637202,-0.0,1.0,0.0,440.0,944.0,1.0,1,1696.0,0
137,137,0.7821051738177064,0.8,1.0,1.0,496.0,956.0,1.0,1,198.0,1
138,138,0.32045069661538006,0.3,1.0,1.0,394.0,774.0,1.0,1,372.0,1
139,139,0.5621712721441839,0.6,0.0,0.0,410.0,668.0,0.0,1,272.0,1
140,140,-0.1331170280457501,-0.1,0.0,1.0,375.0,727.0,1.0,0,1428.0,1
141,141,-0.15296713962877162,-0.2,0.0,1.0,445.0,850.0,1.0,0,415.0,1
142,142,0.22582312556502326,0.2,0.0,0.0,390.0,613.0,0.0,1,867.0,1
143,143,-0.35705134940512917,-0.4,1.0,0.0,475.0,835.0,0.0,0,370.0,1
144,144,-0.4038009105505361,-0.4,0.0,1.0,382.0,839.0,1.0,0,539.0,1
145,145,0.5396784884536013,0.5,1.0,1.0,366.0,890.0,1.0,1,174.0,1
146,146,-0.8673819213357814,-0.9,0.0,1.0,434.0,646.0,1.0,0,350.0,1
147,147,-0.6693613230422014,-0.7,0.0,1.0,318.0,781.0,1.0,0,331.0,1
148,148,0.5680380620154611,0.6,1.0,1.0,409.0,636.0,1.0,1,235.0,1
149,149,-0.4478071299687254,-0.4,0.0,1.0,353.0,914.0,1.0,0,213.0,1
150,150,0.26137166851709004,0.3,0.0,0.0,252.0,735.0,0.0,1,1563.0,1
151,151,0.4121952961477938,0.4,0.0,0.0,372.0,806.0,0.0,1,562.0,1
152,152,0.4283273490798193,0.4,1.0,1.0,374.0,713.0,1.0,1,463.0,1
153,153,-0.08613411484395428,-0.1,0.0,1.0,302.0,829.0,1.0,0,209.0,1
154,154,-0.18415986274708784,-0.2,0.0,1.0,251.0,746.0,1.0,0,163.0,1
155,155,-0.8376699038700216,-0.8,1.0,0.0,422.0,988.0,0.0,0,330.0,1
156,156,-0.8202637101520582,-0.8,0.0,1.0,285.0,750.0,1.0,0,245.0,1
157,157,0.09149668493150098,0.1,1.0,1.0,378.0,862.0,1.0,1,470.0,1
158,158,-0.3166053487084054,-0.3,0.0,1.0,493.0,557.0,1.0,0,470.0,1
159,159,-0.7802115130509336,-0.8,0.0,1.0,305.0,547.0,1.0,0,278.0,1
160,160,0.5256620297043971,0.5,1.0,1.0,443.0,530.0,1.0,1,587.0,1
161,161,-0.009302295760743706,-0.0,0.0,1.0,478.0,877.0,1.0,0,565.0,1
162,162,0.8917226306783091,0.9,1.0,1.0,309.0,839.0,1.0,1,12.0,1
163,163,-0.4773915857109981,-0.5,0.0,1.0,250.0,832.0,1.0,0,248.0,1
164,164,0.5499475683621918,0.5,0.0,0.0,319.0,971.0,0.0,1,90.0,1
165,165,0.3807666452882671,0.4,1.0,1.0,343.0,520.0,1.0,1,647.0,1
166,166,-0.865909875900018,-0.9,0.0,1.0,474.0,582.0,1.0,0,444.0,1
167,167,0.05653232142958864,0.1,1.0,1.0,275.0,916.0,0.0,0,1859.0,0
168,168,-0.5168378432699543,-0.5,0.0,1.0,307.0,604.0,1.0,0,309.0,1
169,169,0.47286196747890286,0.5,1.0,1.0,425.0,610.0,1.0,1,395.0,1
170,170,-0.2118966372115022,-0.2,1.0,0.0,434.0,607.0,0.0,0,839.0,1
171,171,-0.8635002384896143,-0.9,0.0,1.0,283.0,732.0,1.0,0,285.0,1
172,172,0.2183778702453708,0.2,1.0,1.0,409.0,772.0,0.0,0,259.0,0
173,173,-0.43553911606756596,-0.4,1.0,0.0,417.0,929.0,0.0,0,164.0,1
174,174,0.7376437166330524,0.7,0.0,0.0,326.0,684.0,0.0,1,250.0,1
175,175,0.34134084181558977,0.3,0.0,0.0,470.0,927.0,0.0,1,433.0,1
176,176,0.5448430361642632,0.5,1.0,1.0,302.0,731.0,1.0,1,487.0,1
177,177,0.21521170064209227,0.2,0.0,0.0,405.0,822.0,0.0,1,483.0,1
178,178,-0.3634415004138516,-0.4,1.0,0.0,329.0,935.0,0.0,0,996.0,1
179,179,-0.0410932972503657,-0.0,1.0,0.0,438.0,554.0,0.0,0,4008.0,1
180,180,0.009891311106216882,0.0,1.0,1.0,307.0,511.0,0.0,0,2082.0,0
181,181,0.8781001401515661,0.9,0.0,0.0,334.0,630.0,0.0,1,466.0,1
182,182,-0.10847133033059486,-0.1,0.0,1.0,447.0,599.0,1.0,0,674.0,1
183,183,0.052695748647849205,0.1,1.0,1.0,324.0,997.0,1.0,1,529.0,1
184,184,0.848936856984,0.8,0.0,0.0,350.0,955.0,0.0,1,295.0,1
185,185,0.12281142019644575,0.1,1.0,1.0,318.0,571.0,1.0,1,811.0,1
186,186,-0.5353497349712963,-0.5,0.0,1.0,454.0,548.0,1.0,0,358.0,1
187,187,-0.8406432186719588,-0.8,0.0,1.0,326.0,894.0,1.0,0,310.0,1
188,188,-0.28828500092867426,-0.3,1.0,0.0,313.0,831.0,0.0,0,1156.0,1
189,189,-0.6665657402119101,-0.7,0.0,1.0,281.0,825.0,1.0,0,314.0,1
190,190,-0.04568825328616677,-0.0,0.0,1.0,304.0,624.0,1.0,0,452.0,1
191,191,0.4325768591608915,0.4,0.0,0.0,486.0,660.0,0.0,1,324.0,1
192,192,-0.7612260922531995,-0.8,1.0,0.0,397.0,623.0,0.0,0,580.0,1
193,193,0.26751507649677186,0.3,0.0,0.0,262.0,529.0,0.0,1,579.0,1
194,194,-0.247212359111459,-0.2,1.0,0.0,492.0,567.0,0.0,0,631.0,1
195,195,-0.11389214443927709,-0.1,0.0,1.0,348.0,659.0,1.0,0,803.0,1
196,196,-0.10895952105950157,-0.1,0.0,1.0,459.0,744.0,1.0,0,307.0,1
197,197,-0.49931755502286784,-0.5,0.0,1.0,468.0,790.0,1.0,0,192.0,1
198,198,0.5608740958884176,0.6,0.0,0.0,426.0,626.0,0.0,1,458.0,1
199,199,0.3723548359031278,0.4,0.0,0.0,416.0,664.0,0.0,1,600.0,1
200,200,0.4113716724404054,0.4,0.0,0.0,338.0,636.0,0.0,1,506.0,1
201,201,-0.5297113737934434,-0.5,0.0,1.0,325.0,808.0,1.0,0,257.0,1
202,202,-0.8814789863093347,-0.9,0.0,1.0,281.0,858.0,1.0,0,101.0,1
203,203,-0.042853979013936505,-0.0,1.0,0.0,416.0,985.0,0.0,0,459.0,1
204,204,0.3656407813920405,0.4,0.0,0.0,300.0,860.0,0.0,1,700.0,1
205,205,0.12123119411589911,0.1,0.0,0.0,378.0,922.0,1.0,0,1740.0,0
206,206,0.6307722151666669,0.6,0.0,0.0,440.0,791.0,0.0,1,309.0,1
207,207,0.014918660519318228,0.0,0.0,0.0,258.0,559.0,1.0,0,1033.0,0
208,208,-0.3604241260869254,-0.4,1.0,0.0,450.0,737.0,0.0,0,1113.0,1
209,209,0.6145840245730229,0.6,0.0,0.0,493.0,855.0,0.0,1,202.0,1
210,210,-0.25921141579060925,-0.3,0.0,1.0,458.0,961.0,1.0,0,321.0,1
211,211,-0.004546308526032328,-0.0,1.0,0.0,304.0,618.0,0.0,0,1688.0,1
212,212,0.515707588839209,0.5,1.0,1.0,339.0,944.0,1.0,1,97.0,1
213,213,0.8492059602446852,0.8,0.0,0.0,419.0,545.0,0.0,1,336.0,1
214,214,0.19210153587364476,0.2,1.0,1.0,305.0,508.0,1.0,1,737.0,1
215,215,0.6403950629080565,0.6,0.0,0.0,417.0,586.0,0.0,1,417.0,1
216,216,0.8485808072732669,0.8,1.0,1.0,449.0,964.0,1.0,1,267.0,1
217,217,0.31360439217582126,0.3,0.0,0.0,255.0,672.0,0.0,1,1043.0,1
218,218,0.19297418943729172,0.2,0.0,0.0,271.0,582.0,0.0,1,797.0,1
219,219,-0.3056407626086217,-0.3,1.0,0.0,434.0,775.0,0.0,0,171.0,1
220,220,-0.43675246221360076,-0.4,1.0,0.0,447.0,765.0,0.0,0,298.0,1
221,221,-0.8597157625617974,-0.9,0.0,1.0,326.0,727.0,1.0,0,337.0,1
222,222,-0.696272297068526,-0.7,1.0,0.0,367.0,850.0,0.0,0,203.0,1
223,223,0.2927633134127964,0.3,1.0,1.0,491.0,718.0,1.0,1,241.0,1
224,224,0.004704073448761337,0.0,1.0,1.0,357.0,876.0,1.0,1,3767.0,1
225,225,-0.07480249979284859,-0.1,0.0,1.0,339.0,650.0,1.0,0,821.0,1
226,226,0.3296758409327697,0.3,1.0,1.0,264.0,978.0,1.0,1,228.0,1
227,227,0.4223261283393801,0.4,1.0,1.0,494.0,699.0,1.0,1,397.0,1
228,228,0.06627056854639002,0.1,1.0,1.0,463.0,905.0,1.0,1,422.0,1
229,229,-0.358117765317426,-0.4,0.0,1.0,373.0,766.0,1.0,0,591.0,1
230,230,-0.26468483739388926,-0.3,0.0,1.0,470.0,715.0,1.0,0,575.0,1
231,231,-0.04219692621551352,-0.0,1.0,0.0,415.0,784.0,0.0,0,591.0,1
232,232,-0.19136516103784074,-0.2,1.0,0.0,328.0,688.0,0.0,0,694.0,1
233,233,0.6502105157993244,0.7,1.0,1.0,458.0,648.0,1.0,1,554.0,1
234,234,0.7787706534569422,0.8,0.0,0.0,305.0,642.0,0.0,1,483.0,1
235,235,0.6887146407965355,0.7,1.0,1.0,369.0,862.0,1.0,1,329.0,1
236,236,-0.6078609331265818,-0.6,1.0,0.0,278.0,607.0,0.0,0,245.0,1
237,237,0.3062336983704014,0.3,0.0,0.0,381.0,604.0,0.0,1,465.0,1
238,238,0.1810147607748992,0.2,1.0,1.0,307.0,666.0,1.0,1,807.0,1
239,239,0.40857492531335404,0.4,1.0,1.0,475.0,778.0,1.0,1,997.0,1
240,240,0.407092328540568,0.4,1.0,1.0,337.0,764.0,1.0,1,149.0,1
241,241,-0.5953291459745047,-0.6,0.0,1.0,477.0,599.0,1.0,0,504.0,1
242,242,0.5922939530890684,0.6,0.0,0.0,391.0,782.0,0.0,1,197.0,1
243,243,0.338685497416778,0.3,0.0,0.0,448.0,969.0,0.0,1,313.0,1
244,244,-0.28866570164989835,-0.3,0.0,1.0,324.0,520.0,1.0,0,516.0,1
245,245,0.07026007543797674,0.1,1.0,1.0,387.0,793.0,1.0,1,1460.0,1
246,246,0.6665136516433098,0.7,0.0,0.0,394.0,539.0,0.0,1,767.0,1
247,247,0.7463204713755275,0.7,1.0,1.0,298.0,559.0,1.0,1,383.0,1
248,248,0.5420061114108231,0.5,1.0,1.0,344.0,542.0,1.0,1,594.0,1
249,249,-0.7871391160348924,-0.8,1.0,0.0,463.0,873.0,0.0,0,224.0,1
250,250,-0.2915030009496834,-0.3,0.0,1.0,463.0,823.0,1.0,0,354.0,1
251,251,0.4266822774374587,0.4,0.0,0.0,468.0,648.0,0.0,1,574.0,1
252,252,0.831895051663352,0.8,0.0,0.0,253.0,687.0,0.0,1,360.0,1
253,253,0.041206218625343016,0.0,1.0,1.0,348.0,670.0,0.0,0,2612.0,0
254,254,0.1970184402546905,0.2,0.0,0.0,309.0,603.0,0.0,1,868.0,1
255,255,0.38408385224252883,0.4,0.0,0.0,354.0,527.0,0.0,1,479.0,1
256,256,0.7877128611009575,0.8,1.0,1.0,291.0,635.0,1.0,1,544.0,1
257,257,-0.1691486227420893,-0.2,1.0,0.0,399.0,854.0,1.0,1,167.0,0
258,258,0.5955667571901041,0.6,0.0,0.0,404.0,517.0,0.0,1,559.0,1
259,259,-0.1270476354353951,-0.1,1.0,0.0,457.0,846.0,0.0,0,527.0,1
260,260,-0.5084935954597731,-0.5,0.0,1.0,335.0,898.0,1.0,0,187.0,1
261,261,-0.21102537957304013,-0.2,0.0,1.0,312.0,548.0,1.0,0,1480.0,1
262,262,0.5541885209922356,0.6,1.0,1.0,490.0,794.0,1.0,1,336.0,1
263,263,0.5751039818179088,0.6,0.0,0.0,475.0,820.0,0.0,1,575.0,1
264,264,0.44847827869421486,0.4,1.0,1.0,457.0,644.0,1.0,1,419.0,1
265,265,-0.143891176820099,-0.1,0.0,1.0,360.0,830.0,1.0,0,230.0,1
266,266,-0.3322426297139002,-0.3,0.0,1.0,280.0,659.0,1.0,0,441.0,1
267,267,-0.08189909227786552,-0.1,0.0,1.0,398.0,512.0,1.0,0,1110.0,1
268,268,0.07549401806818312,0.1,1.0,1.0,256.0,878.0,1.0,1,1306.0,1
269,269,0.2282078806706319,0.2,0.0,0.0,265.0,891.0,0.0,1,664.0,1
270,270,-0.8734041888041417,-0.9,1.0,0.0,338.0,997.0,0.0,0,455.0,1
271,271,-0.7205662179816347,-0.7,1.0,0.0,426.0,911.0,0.0,0,523.0,1
272,272,-0.3208927215084737,-0.3,1.0,0.0,465.0,503.0,0.0,0,1662.0,1
273,273,0.2763275208218591,0.3,1.0,1.0,465.0,925.0,1.0,1,430.0,1
274,274,0.032470781561548145,0.0,0.0,0.0,480.0,565.0,0.0,1,915.0,1
275,275,-0.6418507563983372,-0.6,1.0,0.0,331.0,655.0,0.0,0,294.0,1
276,276,-0.7583720973031809,-0.8,1.0,0.0,425.0,753.0,0.0,0,402.0,1
277,277,0.6625532438434806,0.7,0.0,0.0,359.0,948.0,0.0,1,393.0,1
278,278,0.8960850863272648,0.9,0.0,0.0,328.0,679.0,0.0,1,243.0,1
279,279,0.054332431586533114,0.1,1.0,1.0,492.0,880.0,0.0,0,818.0,0
280,280,0.06366271125659417,0.1,1.0,1.0,460.0,854.0,1.0,1,876.0,1
281,281,0.5085094577891557,0.5,0.0,0.0,264.0,736.0,1.0,0,190.0,0
282,282,0.08798821383618904,0.1,1.0,1.0,312.0,794.0,1.0,1,1294.0,1
283,283,0.79704511867321,0.8,0.0,0.0,310.0,982.0,1.0,0,-82.0,0
284,284,0.5825447018174209,0.6,0.0,0.0,383.0,678.0,0.0,1,419.0,1
285,285,0.2653175532373101,0.3,0.0,0.0,332.0,733.0,0.0,1,2745.0,1
286,286,-0.45965414024682505,-0.5,1.0,0.0,330.0,711.0,0.0,0,49.0,1
287,287,-0.6997167719512362,-0.7,0.0,1.0,434.0,574.0,1.0,0,452.0,1
288,288,-0.3917193391708129,-0.4,1.0,0.0,321.0,901.0,0.0,0,488.0,1
289,289,0.5251913183274851,0.5,1.0,1.0,341.0,577.0,1.0,1,352.0,1
290,290,-0.3843562389843861,-0.4,0.0,1.0,449.0,788.0,1.0,0,393.0,1
291,291,-0.28510861695122136,-0.3,0.0,1.0,307.0,810.0,1.0,0,183.0,1
292,292,0.5986677598808395,0.6,0.0,0.0,251.0,825.0,0.0,1,354.0,1
293,293,-0.4462334335940987,-0.4,0.0,1.0,431.0,544.0,1.0,0,345.0,1
294,294,-0.3463628437386045,-0.3,1.0,0.0,394.0,674.0,0.0,0,1192.0,1
295,295,0.3449781122340342,0.3,1.0,1.0,266.0,596.0,1.0,1,308.0,1
296,296,-0.10187569727670553,-0.1,1.0,0.0,293.0,998.0,0.0,0,1279.0,1
297,297,-0.5162714996307987,-0.5,1.0,0.0,306.0,954.0,0.0,0,560.0,1
298,298,0.5376565410680206,0.5,0.0,0.0,341.0,541.0,0.0,1,608.0,1
299,299,0.6992738816781393,0.7,0.0,0.0,314.0,862.0,0.0,1,224.0,1
300,300,0.34026463918323036,0.3,0.0,0.0,382.0,732.0,0.0,1,866.0,1
301,301,0.6169623126855651,0.6,0.0,0.0,460.0,595.0,0.0,1,295.0,1
302,302,0.48253252838087046,0.5,1.0,1.0,283.0,770.0,1.0,1,527.0,1
303,303,0.7713144337119914,0.8,1.0,1.0,390.0,976.0,1.0,1,184.0,1
304,304,-0.4002524252222401,-0.4,0.0,1.0,476.0,515.0,1.0,0,819.0,1
305,305,0.3567319210549248,0.4,1.0,1.0,339.0,652.0,1.0,1,919.0,1
306,306,-0.11893249102446624,-0.1,1.0,0.0,285.0,593.0,0.0,0,532.0,1
307,307,-0.777943480063697,-0.8,1.0,0.0,454.0,532.0,0.0,0,664.0,1
308,308,0.31084025004973326,0.3,1.0,1.0,418.0,793.0,1.0,1,499.0,1
309,309,-0.04655152600769963,-0.0,1.0,0.0,271.0,884.0,0.0,0,365.0,1
310,310,-0.6856106663627857,-0.7,0.0,1.0,428.0,877.0,1.0,0,135.0,1
311,311,-0.1323451273112063,-0.1,1.0,0.0,484.0,825.0,0.0,0,1731.0,1
312,312,0.7192828052445558,0.7,0.0,0.0,333.0,879.0,0.0,1,378.0,1
313,313,0.41653678742635203,0.4,1.0,1.0,296.0,854.0,1.0,1,250.0,1
314,314,0.07551540029711734,0.1,1.0,1.0,288.0,909.0,1.0,1,3313.0,1
315,315,-0.7920077860205892,-0.8,0.0,1.0,297.0,980.0,1.0,0,203.0,1
316,316,-0.046432990003091756,-0.0,1.0,0.0,479.0,576.0,0.0,0,985.0,1
317,317,0.7541195117314589,0.8,1.0,1.0,452.0,786.0,1.0,1,222.0,1
318,318,-0.7880344279557115,-0.8,0.0,1.0,386.0,849.0,1.0,0,345.0,1
319,319,0.11226176111106978,0.1,0.0,0.0,461.0,911.0,1.0,0,788.0,0
320,320,0.0595624746308232,0.1,0.0,0.0,482.0,861.0,1.0,0,1427.0,0
321,321,0.49657019074423625,0.5,1.0,1.0,310.0,556.0,1.0,1,804.0,1
322,322,-0.7177787315811168,-0.7,0.0,1.0,375.0,695.0,1.0,0,400.0,1
323,323,-0.7884819689509723,-0.8,0.0,1.0,275.0,788.0,1.0,0,187.0,1
324,324,0.26226931671725995,0.3,0.0,0.0,266.0,669.0,0.0,1,575.0,1
325,325,0.46951567128115956,0.5,1.0,1.0,260.0,982.0,1.0,1,568.0,1
326,326,0.5272409397394254,0.5,1.0,1.0,396.0,671.0,1.0,1,373.0,1
327,327,-0.8731798088210773,-0.9,1.0,0.0,445.0,745.0,0.0,0,470.0,1
328,328,0.4646272091012146,0.5,0.0,0.0,417.0,990.0,0.0,1,313.0,1
329,329,-0.2323131407676855,-0.2,1.0,0.0,361.0,589.0,0.0,0,1060.0,1
330,330,0.1363503067284616,0.1,0.0,0.0,398.0,748.0,0.0,1,834.0,1
331,331,-0.8522668357126342,-0.9,1.0,0.0,467.0,898.0,0.0,0,355.0,1
332,332,0.2981650445151135,0.3,0.0,0.0,303.0,913.0,0.0,1,284.0,1
333,333,-0.6730538453140336,-0.7,1.0,0.0,253.0,790.0,0.0,0,417.0,1
334,334,-0.559398445607902,-0.6,1.0,0.0,276.0,570.0,0.0,0,364.0,1
335,335,0.6311944876664045,0.6,0.0,0.0,262.0,966.0,0.0,1,232.0,1
336,336,0.5395555761687526,0.5,0.0,0.0,363.0,561.0,0.0,1,226.0,1
337,337,-0.24124493002083347,-0.2,0.0,1.0,297.0,753.0,1.0,0,330.0,1
338,338,-0.7177754330780182,-0.7,1.0,0.0,354.0,767.0,0.0,0,219.0,1
339,339,0.4652380932719845,0.5,0.0,0.0,437.0,792.0,0.0,1,311.0,1
340,340,0.5179952495516483,0.5,0.0,0.0,384.0,749.0,0.0,1,467.0,1
341,341,-0.4849588476965176,-0.5,1.0,0.0,422.0,543.0,0.0,0,835.0,1
342,342,-0.35795595188352314,-0.4,0.0,1.0,414.0,904.0,1.0,0,372.0,1
343,343,-0.5100188076731597,-0.5,0.0,1.0,278.0,515.0,1.0,0,657.0,1
344,344,0.1696369453429546,0.2,0.0,0.0,415.0,893.0,1.0,0,832.0,0
345,345,0.2064097700586235,0.2,0.0,0.0,333.0,779.0,1.0,0,358.0,0
346,346,-0.6619847647169862,-0.7,1.0,0.0,495.0,805.0,0.0,0,240.0,1
347,347,-0.32354526273420825,-0.3,0.0,1.0,252.0,649.0,1.0,0,369.0,1
348,348,0.008927600206304231,0.0,1.0,1.0,393.0,825.0,1.0,1,372.0,1
349,349,0.8772140619352183,0.9,1.0,1.0,348.0,965.0,1.0,1,267.0,1
350,350,-0.08574156733501093,-0.1,1.0,0.0,484.0,707.0,0.0,0,1089.0,1
351,351,-0.18429039794556035,-0.2,1.0,0.0,309.0,585.0,0.0,0,696.0,1
352,352,0.7488077148475382,0.7,0.0,0.0,436.0,943.0,0.0,1,131.0,1
353,353,0.37207738153810677,0.4,0.0,0.0,485.0,639.0,0.0,1,616.0,1
354,354,-0.3262445844318457,-0.3,0.0,1.0,349.0,537.0,1.0,0,584.0,1
355,355,0.5215473687754933,0.5,0.0,0.0,427.0,994.0,0.0,1,89.0,1
356,356,0.5430984278040966,0.5,1.0,1.0,386.0,953.0,1.0,1,491.0,1
357,357,-0.7669504288876099,-0.8,1.0,0.0,325.0,661.0,0.0,0,434.0,1
358,358,-0.0509249835792106,-0.1,0.0,1.0,384.0,925.0,1.0,0,551.0,1
359,359,0.5281383803884806,0.5,0.0,0.0,250.0,900.0,0.0,1,270.0,1
360,360,0.13034179961103087,0.1,1.0,1.0,372.0,967.0,0.0,0,1571.0,0
361,361,-0.750175718887157,-0.8,0.0,1.0,364.0,967.0,1.0,0,69.0,1
362,362,-0.8930600314950708,-0.9,1.0,0.0,365.0,820.0,0.0,0,635.0,1
363,363,-0.3000109704194033,-0.3,0.0,1.0,299.0,995.0,1.0,0,676.0,1
364,364,0.3661805332257807,0.4,0.0,0.0,466.0,963.0,0.0,1,191.0,1
365,365,0.4065176014272399,0.4,1.0,1.0,254.0,928.0,1.0,1,238.0,1
366,366,0.052074769035131196,0.1,0.0,0.0,481.0,708.0,0.0,1,681.0,1
367,367,0.7436481977632999,0.7,0.0,0.0,370.0,857.0,0.0,1,203.0,1
368,368,-0.0660896715982997,-0.1,0.0,1.0,385.0,627.0,0.0,1,1038.0,0
369,369,-0.22566261763156525,-0.2,0.0,1.0,350.0,727.0,1.0,0,243.0,1
370,370,0.8129046537684165,0.8,0.0,0.0,472.0,612.0,0.0,1,446.0,1
371,371,-0.3122497974064228,-0.3,0.0,1.0,476.0,840.0,1.0,0,534.0,1
372,372,-0.8980275648234005,-0.9,0.0,1.0,480.0,681.0,1.0,0,339.0,1
373,373,0.7436844277802735,0.7,1.0,1.0,353.0,591.0,1.0,1,536.0,1
374,374,0.6887298514577852,0.7,0.0,0.0,355.0,566.0,0.0,1,559.0,1
375,375,-0.5957042516948334,-0.6,1.0,0.0,359.0,521.0,0.0,0,690.0,1
376,376,-0.759962720038632,-0.8,1.0,0.0,361.0,961.0,0.0,0,328.0,1
377,377,0.22019942581458463,0.2,1.0,1.0,255.0,895.0,1.0,1,680.0,1
378,378,-0.6053300962605848,-0.6,0.0,1.0,329.0,564.0,1.0,0,597.0,1
379,379,-0.6692645519353059,-0.7,1.0,0.0,287.0,548.0,0.0,0,635.0,1
380,380,-0.11376865571096662,-0.1,0.0,1.0,469.0,649.0,1.0,0,342.0,1
381,381,0.6308709929984874,0.6,0.0,0.0,270.0,909.0,0.0,1,71.0,1
382,382,-0.6440677007389886,-0.6,1.0,0.0,387.0,923.0,0.0,0,260.0,1
383,383,-0.04102892575521189,-0.0,1.0,0.0,445.0,889.0,0.0,0,526.0,1
384,384,-0.7373691602449125,-0.7,1.0,0.0,288.0,600.0,0.0,0,542.0,1
385,385,-0.42951882568745053,-0.4,0.0,1.0,444.0,981.0,1.0,0,235.0,1
386,386,-0.22251838213733066,-0.2,1.0,0.0,316.0,530.0,0.0,0,1114.0,1
387,387,-0.5327935581132681,-0.5,1.0,0.0,264.0,623.0,0.0,0,343.0,1
388,388,0.8277187569821985,0.8,0.0,0.0,391.0,852.0,0.0,1,177.0,1
389,389,0.33485862278232703,0.3,0.0,0.0,377.0,999.0,0.0,1,1004.0,1
390,390,0.6647099712693324,0.7,0.0,0.0,445.0,794.0,0.0,1,381.0,1
391,391,0.4317724161422577,0.4,1.0,1.0,372.0,565.0,1.0,1,713.0,1
392,392,0.42249118900539007,0.4,1.0,1.0,274.0,774.0,1.0,1,232.0,1
393,393,-0.04477947240417679,-0.0,0.0,1.0,497.0,861.0,1.0,0,1332.0,1
394,394,0.6628505953302405,0.7,0.0,0.0,344.0,530.0,0.0,1,386.0,1
395,395,-0.7685084826670581,-0.8,1.0,0.0,442.0,833.0,0.0,0,265.0,1
396,396,-0.48669187802725766,-0.5,0.0,1.0,295.0,544.0,1.0,0,381.0,1
397,397,-0.612610734584764,-0.6,1.0,0.0,409.0,739.0,0.0,0,512.0,1
398,398,-0.23260923049912752,-0.2,0.0,1.0,450.0,967.0,1.0,0,-7.0,1
399,399,-0.10200725027227675,-0.1,0.0,1.0,485.0,692.0,1.0,0,533.0,1
400,400,-0.5262318889794163,-0.5,0.0,1.0,272.0,640.0,1.0,0,298.0,1
401,401,-0.3138105925077448,-0.3,1.0,0.0,494.0,548.0,0.0,0,1248.0,1
402,402,-0.20608248712167032,-0.2,1.0,0.0,417.0,923.0,0.0,0,1300.0,1
403,403,-0.7851607931942208,-0.8,1.0,0.0,481.0,854.0,0.0,0,55.0,1
404,404,-0.619442561484579,-0.6,0.0,1.0,474.0,600.0,1.0,0,366.0,1
405,405,0.7560850875167201,0.8,1.0,1.0,317.0,705.0,1.0,1,218.0,1
406,406,-0.24981582571336258,-0.2,1.0,0.0,422.0,953.0,0.0,0,335.0,1
407,407,-0.6629296631342771,-0.7,0.0,1.0,395.0,671.0,1.0,0,324.0,1
408,408,-0.10535984691746791,-0.1,0.0,1.0,320.0,940.0,1.0,0,690.0,1
409,409,-0.2956971894477832,-0.3,1.0,0.0,329.0,835.0,0.0,0,336.0,1
410,410,-0.648323126481458,-0.6,0.0,1.0,382.0,816.0,1.0,0,312.0,1
411,411,0.8006265128002771,0.8,0.0,0.0,364.0,508.0,0.0,1,718.0,1
412,412,0.5281817922036739,0.5,1.0,1.0,410.0,528.0,1.0,1,902.0,1
413,413,-0.6665752736656957,-0.7,0.0,1.0,387.0,934.0,1.0,0,399.0,1
414,414,0.6670229916646931,0.7,1.0,1.0,439.0,559.0,1.0,1,432.0,1
415,415,-0.5179372543403554,-0.5,0.0,1.0,472.0,627.0,1.0,0,1001.0,1
416,416,0.2701526753580886,0.3,1.0,1.0,307.0,913.0,1.0,1,340.0,1
417,417,0.6394326905686419,0.6,1.0,1.0,404.0,543.0,1.0,1,613.0,1
418,418,-0.2405409264086963,-0.2,1.0,0.0,261.0,515.0,0.0,0,1294.0,1
419,419,0.7652151929345065,0.8,0.0,0.0,421.0,910.0,0.0,1,129.0,1
420,420,-0.1875750403803087,-0.2,0.0,1.0,395.0,717.0,1.0,0,418.0,1
421,421,-0.6508714987757491,-0.7,0.0,1.0,338.0,802.0,1.0,0,330.0,1
422,422,-0.6035990844153283,-0.6,0.0,1.0,421.0,808.0,1.0,0,231.0,1
423,423,-0.025989071643656825,-0.0,0.0,1.0,280.0,619.0,0.0,1,661.0,0
424,424,-0.11841039236934936,-0.1,1.0,0.0,426.0,678.0,1.0,1,396.0,0
425,425,-0.5889297757858338,-0.6,1.0,0.0,408.0,856.0,0.0,0,406.0,1
426,426,0.7351539203879903,0.7,1.0,1.0,300.0,694.0,1.0,1,536.0,1
427,427,0.3356860185477183,0.3,1.0,1.0,497.0,634.0,1.0,1,359.0,1
428,428,-0.4865284493499599,-0.5,0.0,1.0,378.0,720.0,1.0,0,572.0,1
429,429,-0.4265138193088824,-0.4,0.0,1.0,330.0,636.0,1.0,0,514.0,1
430,430,0.6770500297834764,0.7,1.0,1.0,267.0,998.0,1.0,1,395.0,1
431,431,-0.8985119563846817,-0.9,0.0,1.0,456.0,981.0,1.0,0,113.0,1
432,432,0.3215609995660743,0.3,0.0,0.0,258.0,514.0,0.0,1,598.0,1
433,433,-0.12633534076744757,-0.1,0.0,1.0,379.0,701.0,1.0,0,1600.0,1
434,434,-0.2207018558452567,-0.2,1.0,0.0,266.0,542.0,0.0,0,1072.0,1
435,435,0.5850708850118033,0.6,0.0,0.0,398.0,651.0,0.0,1,681.0,1
436,436,-0.8970595180142017,-0.9,0.0,1.0,429.0,785.0,1.0,0,256.0,1
437,437,-0.2660286488203326,-0.3,1.0,0.0,295.0,854.0,0.0,0,1101.0,1
438,438,-0.4707532939962834,-0.5,0.0,1.0,331.0,890.0,1.0,0,339.0,1
439,439,-0.1750491580633613,-0.2,0.0,1.0,497.0,730.0,1.0,0,553.0,1
440,440,0.621210939118014,0.6,1.0,1.0,432.0,896.0,1.0,1,112.0,1
441,441,0.8285969111905093,0.8,0.0,0.0,442.0,864.0,0.0,1,144.0,1
442,442,0.45130261975961583,0.5,1.0,1.0,424.0,932.0,1.0,1,214.0,1
443,443,-0.33210632255885086,-0.3,0.0,1.0,296.0,831.0,1.0,0,213.0,1
444,444,0.7662289108798429,0.8,1.0,1.0,426.0,739.0,1.0,1,335.0,1
445,445,0.0662029853519357,0.1,1.0,1.0,305.0,825.0,1.0,1,1600.0,1
446,446,-0.8830670168886495,-0.9,1.0,0.0,329.0,854.0,0.0,0,17.0,1
447,447,0.5916178692123807,0.6,0.0,0.0,364.0,576.0,0.0,1,540.0,1
448,448,0.5074980693196828,0.5,1.0,1.0,420.0,568.0,1.0,1,362.0,1
449,449,-0.2654981510831689,-0.3,0.0,1.0,387.0,739.0,1.0,0,304.0,1
450,450,-0.36373889037936546,-0.4,1.0,0.0,398.0,592.0,0.0,0,660.0,1
451,451,-0.7344432187999757,-0.7,0.0,1.0,393.0,584.0,1.0,0,273.0,1
452,452,-0.6637162387508659,-0.7,1.0,0.0,461.0,766.0,0.0,0,273.0,1
453,453,0.5910093254721943,0.6,0.0,0.0,456.0,511.0,0.0,1,743.0,1
454,454,0.8381765602691512,0.8,1.0,1.0,456.0,566.0,1.0,1,398.0,1
455,455,-0.7004262451494289,-0.7,0.0,1.0,277.0,590.0,1.0,0,273.0,1
456,456,0.8489425314372171,0.8,1.0,1.0,280.0,702.0,1.0,1,338.0,1
457,457,0.28940640513539273,0.3,1.0,1.0,371.0,659.0,1.0,1,250.0,1
458,458,0.7017606867823173,0.7,1.0,1.0,324.0,581.0,1.0,1,435.0,1
459,459,0.8799192183540686,0.9,0.0,0.0,313.0,634.0,0.0,1,423.0,1
460,460,-0.11337687428239818,-0.1,1.0,0.0,470.0,637.0,0.0,0,3073.0,1
461,461,0.6491289305037736,0.6,0.0,0.0,312.0,697.0,0.0,1,511.0,1
462,462,0.16251369184785192,0.2,1.0,1.0,278.0,699.0,1.0,1,673.0,1
463,463,0.8329124579900175,0.8,0.0,0.0,413.0,669.0,0.0,1,318.0,1
464,464,-0.5504555293192901,-0.6,0.0,1.0,283.0,616.0,1.0,0,411.0,1
465,465,0.08123552972473091,0.1,1.0,1.0,451.0,557.0,1.0,1,1002.0,1
466,466,0.7156843401078316,0.7,1.0,1.0,392.0,834.0,1.0,1,314.0,1
467,467,0.38889218172901907,0.4,1.0,1.0,387.0,596.0,1.0,1,927.0,1
468,468,0.09293837169633867,0.1,0.0,0.0,431.0,894.0,0.0,1,415.0,1
469,469,-0.8001251388682536,-0.8,0.0,1.0,420.0,824.0,1.0,0,226.0,1
470,470,-0.3039280364065666,-0.3,1.0,0.0,343.0,969.0,0.0,0,378.0,1
471,471,0.41828044702406675,0.4,0.0,0.0,424.0,854.0,0.0,1,652.0,1
472,472,0.3351028851516623,0.3,1.0,1.0,311.0,778.0,1.0,1,381.0,1
473,473,-0.8491199752870178,-0.8,0.0,1.0,423.0,755.0,1.0,0,212.0,1
474,474,-0.8927566860349817,-0.9,1.0,0.0,346.0,908.0,0.0,0,296.0,1
475,475,-0.394489495751819,-0.4,1.0,0.0,373.0,721.0,0.0,0,316.0,1
476,476,0.4246579892876535,0.4,1.0,1.0,345.0,905.0,1.0,1,460.0,1
477,477,0.8680828311371339,0.9,1.0,1.0,484.0,537.0,1.0,1,689.0,1
478,478,0.04936451171369949,0.0,0.0,0.0,463.0,543.0,1.0,0,1564.0,0
479,479,-0.536717950435549,-0.5,0.0,1.0,474.0,652.0,1.0,0,434.0,1
480,480,-0.6167973472093561,-0.6,1.0,0.0,453.0,885.0,0.0,0,492.0,1
481,481,-0.6842779377171875,-0.7,0.0,1.0,363.0,851.0,1.0,0,236.0,1
482,482,0.24724575298556017,0.2,1.0,1.0,363.0,987.0,1.0,1,460.0,1
483,483,-0.7940094270918971,-0.8,1.0,0.0,335.0,869.0,0.0,0,256.0,1
484,484,-0.6553324389079682,-0.7,0.0,1.0,456.0,826.0,1.0,0,198.0,1
485,485,0.08655797380629948,0.1,0.0,0.0,275.0,781.0,1.0,0,594.0,0
486,486,0.4388366048425111,0.4,1.0,1.0,401.0,672.0,1.0,1,517.0,1
487,487,0.2643054016990961,0.3,0.0,0.0,475.0,704.0,0.0,1,1071.0,1
488,488,-0.7210289592829855,-0.7,0.0,1.0,303.0,925.0,1.0,0,112.0,1
489,489,0.331291344293391,0.3,1.0,1.0,358.0,624.0,1.0,1,318.0,1
490,490,-0.07919722420196107,-0.1,0.0,1.0,322.0,823.0,1.0,0,705.0,1
491,491,-0.8897720186018466,-0.9,1.0,0.0,322.0,829.0,0.0,0,259.0,1
492,492,0.7758039393444006,0.8,1.0,1.0,263.0,868.0,1.0,1,289.0,1
493,493,0.8409151324710199,0.8,1.0,1.0,378.0,535.0,1.0,1,467.0,1
494,494,-0.47448766596592057,-0.5,1.0,0.0,395.0,614.0,0.0,0,541.0,1
495,495,-0.38707823915999284,-0.4,1.0,0.0,328.0,967.0,0.0,0,655.0,1
496,496,-0.5269497073482516,-0.5,1.0,0.0,453.0,605.0,0.0,0,552.0,1
497,497,-0.2805451360056487,-0.3,0.0,1.0,369.0,662.0,1.0,0,819.0,1
498,498,-0.6540865829970913,-0.7,0.0,1.0,292.0,992.0,1.0,0,-144.0,1
499,499,0.1349441759297091,0.1,0.0,0.0,327.0,540.0,1.0,0,1053.0,0
500,500,-0.8849455496316413,-0.9,0.0,1.0,477.0,670.0,1.0,0,203.0,1
501,501,-0.12125535772189788,-0.1,0.0,1.0,495.0,723.0,1.0,0,112.0,1
502,502,0.7403095446702433,0.7,0.0,0.0,339.0,545.0,0.0,1,396.0,1
503,503,-0.4489364952843114,-0.4,0.0,1.0,371.0,607.0,1.0,0,302.0,1
504,504,-0.8589971065702502,-0.9,0.0,1.0,369.0,968.0,1.0,0,263.0,1
505,505,0.4713155447081311,0.5,0.0,0.0,313.0,864.0,0.0,1,293.0,1
506,506,-0.6951647009335244,-0.7,0.0,1.0,286.0,783.0,1.0,0,301.0,1
507,507,0.1999124784836931,0.2,0.0,0.0,494.0,623.0,0.0,1,1493.0,1
508,508,-0.5600905209241978,-0.6,1.0,0.0,494.0,694.0,0.0,0,552.0,1
509,509,-0.8130584673504982,-0.8,1.0,0.0,467.0,664.0,0.0,0,239.0,1
510,510,-0.7516928214587398,-0.8,0.0,1.0,333.0,864.0,1.0,0,193.0,1
511,511,0.035509618559024236,0.0,1.0,1.0,355.0,885.0,1.0,1,1960.0,1
512,512,0.022826910873548822,0.0,0.0,0.0,263.0,966.0,0.0,1,741.0,1
513,513,0.48930022383231886,0.5,1.0,1.0,339.0,601.0,1.0,1,240.0,1
514,514,-0.45310201120915655,-0.5,1.0,0.0,389.0,599.0,0.0,0,282.0,1
515,515,0.8624114653540801,0.9,1.0,1.0,340.0,553.0,1.0,1,457.0,1
516,516,-0.10885840771070776,-0.1,1.0,0.0,389.0,859.0,0.0,0,502.0,1
517,517,0.6476904310915325,0.6,0.0,0.0,329.0,549.0,0.0,1,482.0,1
518,518,-0.7295085051663056,-0.7,1.0,0.0,300.0,577.0,0.0,0,353.0,1
519,519,-0.5884558115731471,-0.6,1.0,0.0,422.0,910.0,0.0,0,298.0,1
520,520,0.4059705677460087,0.4,0.0,0.0,344.0,794.0,0.0,1,622.0,1
521,521,-0.2598518013907368,-0.3,0.0,1.0,404.0,778.0,1.0,0,328.0,1
522,522,0.34959501391685455,0.3,1.0,1.0,378.0,658.0,1.0,1,414.0,1
523,523,0.6487416482421388,0.6,1.0,1.0,494.0,852.0,1.0,1,344.0,1
524,524,-0.07386176754288654,-0.1,1.0,0.0,344.0,711.0,1.0,1,525.0,0
525,525,0.870890678692296,0.9,1.0,1.0,317.0,732.0,1.0,1,191.0,1
526,526,0.8781616406911902,0.9,0.0,0.0,317.0,606.0,0.0,1,807.0,1
527,527,-0.22584033785898971,-0.2,0.0,1.0,256.0,699.0,1.0,0,1235.0,1
528,528,0.15582645993112465,0.2,0.0,0.0,469.0,871.0,0.0,1,160.0,1
529,529,0.02238552929548565,0.0,0.0,0.0,496.0,622.0,1.0,0,1692.0,0
530,530,0.2669944942549053,0.3,1.0,1.0,427.0,700.0,1.0,1,413.0,1
531,531,-0.33778659356810314,-0.3,0.0,1.0,326.0,591.0,1.0,0,603.0,1
532,532,0.6958333085908684,0.7,0.0,0.0,475.0,934.0,0.0,1,291.0,1
533,533,0.45340593123948836,0.5,0.0,0.0,488.0,622.0,0.0,1,310.0,1
534,534,0.046476271608707265,0.0,1.0,1.0,474.0,921.0,1.0,1,225.0,1
535,535,-0.04870467424639746,-0.0,1.0,0.0,292.0,850.0,1.0,1,698.0,0
536,536,0.501941672157261,0.5,1.0,1.0,449.0,601.0,1.0,1,390.0,1
537,537,-0.8045959698657165,-0.8,1.0,0.0,277.0,862.0,0.0,0,261.0,1
538,538,-0.28713051970501513,-0.3,0.0,1.0,291.0,725.0,1.0,0,864.0,1
539,539,-0.10882379148019572,-0.1,0.0,1.0,359.0,874.0,1.0,0,147.0,1
540,540,0.1467441916179183,0.1,1.0,1.0,278.0,911.0,1.0,1,851.0,1
541,541,-0.19412705925207663,-0.2,0.0,1.0,426.0,547.0,1.0,0,1397.0,1
542,542,0.638308308558644,0.6,1.0,1.0,433.0,950.0,1.0,1,267.0,1
543,543,0.4638702766477171,0.5,0.0,0.0,382.0,837.0,0.0,1,121.0,1
544,544,-0.6460716688837214,-0.6,1.0,0.0,344.0,892.0,0.0,0,334.0,1
545,545,-0.6832817132323596,-0.7,1.0,0.0,366.0,728.0,0.0,0,526.0,1
546,546,-0.7556626522075295,-0.8,1.0,0.0,366.0,788.0,0.0,0,736.0,1
547,547,-0.028013129177433038,-0.0,0.0,1.0,483.0,655.0,1.0,0,432.0,1
548,548,-0.26136506169202456,-0.3,1.0,0.0,448.0,845.0,0.0,0,397.0,1
549,549,-0.5741851174226265,-0.6,0.0,1.0,262.0,915.0,1.0,0,393.0,1
550,550,0.14970213687454137,0.1,1.0,1.0,370.0,764.0,1.0,1,316.0,1
551,551,-0.7581198907174128,-0.8,1.0,0.0,252.0,515.0,0.0,0,713.0,1
552,552,0.42575632863471446,0.4,0.0,0.0,377.0,834.0,0.0,1,329.0,1
553,553,0.41482160542894253,0.4,0.0,0.0,388.0,611.0,0.0,1,581.0,1
554,554,0.015852834995177756,0.0,1.0,1.0,368.0,604.0,1.0,1,1828.0,1
555,555,0.8848656084862362,0.9,0.0,0.0,417.0,620.0,0.0,1,303.0,1
556,556,0.4866191622643029,0.5,1.0,1.0,351.0,905.0,1.0,1,394.0,1
557,557,0.3529110433929826,0.4,1.0,1.0,294.0,867.0,1.0,1,789.0,1
558,558,-0.7318622993005424,-0.7,1.0,0.0,341.0,818.0,0.0,0,201.0,1
559,559,-0.6408438216692001,-0.6,0.0,1.0,395.0,897.0,1.0,0,198.0,1
560,560,0.4048818491968177,0.4,1.0,1.0,281.0,938.0,1.0,1,221.0,1
561,561,-0.17090088022682637,-0.2,1.0,0.0,336.0,928.0,0.0,0,446.0,1
562,562,0.6872223450553187,0.7,0.0,0.0,324.0,594.0,0.0,1,472.0,1
563,563,-0.4305218342829276,-0.4,0.0,1.0,417.0,555.0,1.0,0,548.0,1
564,564,-0.4637010784680863,-0.5,0.0,1.0,261.0,723.0,1.0,0,406.0,1
565,565,-0.20683816181116177,-0.2,1.0,0.0,385.0,648.0,0.0,0,667.0,1
566,566,0.8222869394063504,0.8,0.0,0.0,281.0,556.0,0.0,1,613.0,1
567,567,-0.4626527506174755,-0.5,0.0,1.0,464.0,561.0,1.0,0,355.0,1
568,568,0.3345050433662441,0.3,1.0,1.0,330.0,958.0,1.0,1,252.0,1
569,569,0.41373217457657174,0.4,0.0,0.0,299.0,908.0,0.0,1,1313.0,1
570,570,0.48398797807685867,0.5,0.0,0.0,384.0,857.0,0.0,1,269.0,1
571,571,0.5544433413528674,0.6,1.0,1.0,453.0,778.0,1.0,1,179.0,1
572,572,0.7421816986186353,0.7,0.0,0.0,496.0,683.0,0.0,1,351.0,1
573,573,-0.43290015122156256,-0.4,1.0,0.0,471.0,838.0,0.0,0,1061.0,1
574,574,0.0378369123005462,0.0,0.0,0.0,378.0,844.0,0.0,1,288.0,1
575,575,0.7512007333418224,0.8,1.0,1.0,380.0,939.0,1.0,1,101.0,1
576,576,0.7056130989479491,0.7,0.0,0.0,287.0,899.0,0.0,1,154.0,1
577,577,-0.7686543644873646,-0.8,1.0,0.0,424.0,991.0,0.0,0,365.0,1
578,578,0.4737320674030957,0.5,0.0,0.0,410.0,576.0,0.0,1,824.0,1
579,579,0.8091110111277576,0.8,0.0,0.0,413.0,650.0,0.0,1,327.0,1
580,580,0.3658057747368956,0.4,0.0,0.0,473.0,553.0,0.0,1,944.0,1
581,581,0.6045767807021228,0.6,0.0,0.0,403.0,878.0,0.0,1,279.0,1
582,582,0.5845744227186956,0.6,1.0,1.0,314.0,865.0,1.0,1,331.0,1
583,583,0.0402362161426284,0.0,1.0,1.0,405.0,694.0,1.0,1,2561.0,1
584,584,0.7473603190932646,0.7,1.0,1.0,396.0,566.0,1.0,1,638.0,1
585,585,-0.0035930067659292186,-0.0,1.0,0.0,434.0,518.0,1.0,1,2328.0,0
586,586,-0.40576149277712364,-0.4,1.0,0.0,297.0,577.0,0.0,0,616.0,1
587,587,-0.3435594943156314,-0.3,1.0,0.0,341.0,518.0,0.0,0,971.0,1
588,588,0.5852488796029395,0.6,1.0,1.0,496.0,912.0,1.0,1,642.0,1
589,589,0.3696534550547895,0.4,0.0,0.0,411.0,833.0,0.0,1,456.0,1
590,590,0.10709574163756075,0.1,1.0,1.0,400.0,536.0,1.0,1,934.0,1
591,591,-0.06424816242544173,-0.1,1.0,0.0,319.0,823.0,0.0,0,258.0,1
592,592,-0.25560653312125226,-0.3,0.0,1.0,269.0,678.0,1.0,0,383.0,1
593,593,-0.6085080427687055,-0.6,1.0,0.0,253.0,987.0,0.0,0,210.0,1
594,594,0.09410914637531109,0.1,1.0,1.0,368.0,513.0,1.0,1,1029.0,1
595,595,0.7318193603477386,0.7,0.0,0.0,496.0,945.0,0.0,1,219.0,1
596,596,-0.29951286795586074,-0.3,0.0,1.0,414.0,993.0,1.0,0,463.0,1
597,597,-0.6833585044520724,-0.7,0.0,1.0,482.0,693.0,1.0,0,255.0,1
598,598,0.8989044351763592,0.9,0.0,0.0,315.0,775.0,0.0,1,340.0,1
599,599,-0.7607448689124922,-0.8,0.0,1.0,333.0,655.0,1.0,0,342.0,1
600,600,-0.13687843742978045,-0.1,0.0,1.0,449.0,668.0,1.0,0,263.0,1
601,601,0.044771608166129795,0.0,1.0,1.0,289.0,653.0,1.0,1,848.0,1
602,602,0.13633570477094448,0.1,0.0,0.0,358.0,711.0,0.0,1,341.0,1
603,603,-0.8881101821211872,-0.9,1.0,0.0,265.0,551.0,0.0,0,294.0,1
604,604,0.8866033445412588,0.9,0.0,0.0,282.0,735.0,0.0,1,243.0,1
605,605,-0.0027907601892745992,-0.0,1.0,0.0,336.0,622.0,1.0,1,1592.0,0
606,606,0.6147707779185004,0.6,1.0,1.0,448.0,673.0,1.0,1,279.0,1
607,607,0.5499077101734261,0.5,0.0,0.0,310.0,588.0,0.0,1,532.0,1
608,608,0.3210080631620761,0.3,1.0,1.0,297.0,587.0,1.0,1,1116.0,1
609,609,-0.8679437411346739,-0.9,0.0,1.0,290.0,949.0,1.0,0,-19.0,1
610,610,0.7286276239306179,0.7,0.0,0.0,320.0,946.0,0.0,1,24.0,1
611,611,0.8990734676064672,0.9,0.0,0.0,329.0,592.0,0.0,1,269.0,1
612,612,-0.7718517544730167,-0.8,0.0,1.0,453.0,932.0,1.0,0,165.0,1
613,613,0.6063611436885284,0.6,0.0,0.0,466.0,903.0,0.0,1,281.0,1
614,614,-0.6699310343780865,-0.7,1.0,0.0,469.0,545.0,0.0,0,426.0,1
615,615,0.4373785318839757,0.4,0.0,0.0,480.0,746.0,0.0,1,284.0,1
616,616,0.14665346170350768,0.1,1.0,1.0,394.0,775.0,1.0,1,1081.0,1
617,617,-0.675972888893967,-0.7,0.0,1.0,438.0,692.0,1.0,0,330.0,1
618,618,0.7505756716615065,0.8,1.0,1.0,328.0,836.0,1.0,1,76.0,1
619,619,-0.5191017416203306,-0.5,0.0,1.0,411.0,774.0,1.0,0,235.0,1
620,620,0.614932666155383,0.6,1.0,1.0,316.0,733.0,1.0,1,501.0,1
621,621,-0.7425888556660282,-0.7,1.0,0.0,472.0,690.0,0.0,0,278.0,1
622,622,0.3454010493306833,0.3,1.0,1.0,277.0,612.0,1.0,1,571.0,1
623,623,-0.6083247659549333,-0.6,0.0,1.0,338.0,988.0,1.0,0,-116.0,1
624,624,0.6517811144785618,0.7,0.0,0.0,445.0,565.0,0.0,1,410.0,1
625,625,0.005642166454946418,0.0,1.0,1.0,299.0,633.0,0.0,0,3638.0,0
626,626,0.8895379982409285,0.9,1.0,1.0,497.0,548.0,1.0,1,785.0,1
627,627,0.11626407774237524,0.1,0.0,0.0,477.0,829.0,0.0,1,4.0,1
628,628,0.8719798328360201,0.9,1.0,1.0,293.0,527.0,1.0,1,540.0,1
629,629,-0.6981505879872837,-0.7,0.0,1.0,338.0,740.0,1.0,0,192.0,1
630,630,-0.7017897992324431,-0.7,1.0,0.0,349.0,550.0,0.0,0,411.0,1
631,631,-0.024042007209777005,-0.0,1.0,0.0,367.0,939.0,1.0,1,1724.0,0
632,632,-0.7570400470235932,-0.8,1.0,0.0,467.0,701.0,0.0,0,372.0,1
633,633,-0.4819104992924586,-0.5,0.0,1.0,334.0,738.0,1.0,0,408.0,1
634,634,0.4098595898474736,0.4,0.0,0.0,356.0,535.0,0.0,1,839.0,1
635,635,0.2463673011634554,0.2,0.0,0.0,424.0,761.0,0.0,1,565.0,1
636,636,0.42046151875909,0.4,0.0,0.0,452.0,780.0,0.0,1,228.0,1
637,637,-0.8317135540769343,-0.8,1.0,0.0,444.0,849.0,0.0,0,167.0,1
638,638,0.004619492011646353,0.0,1.0,1.0,295.0,749.0,1.0,1,966.0,1
639,639,0.5442794895305264,0.5,1.0,1.0,357.0,825.0,1.0,1,218.0,1
640,640,-0.3273545409363984,-0.3,1.0,0.0,418.0,603.0,0.0,0,369.0,1
641,641,0.5381117690161824,0.5,1.0,1.0,418.0,858.0,1.0,1,344.0,1
642,642,0.061327143727315514,0.1,0.0,0.0,449.0,985.0,0.0,1,886.0,1
643,643,-0.02683574066254546,-0.0,0.0,1.0,384.0,993.0,0.0,1,-227.0,0
644,644,-0.8804892398215105,-0.9,0.0,1.0,445.0,807.0,1.0,0,198.0,1
645,645,0.7068979571366593,0.7,0.0,0.0,295.0,946.0,0.0,1,529.0,1
646,646,0.297191908804633,0.3,0.0,0.0,413.0,528.0,0.0,1,689.0,1
647,647,0.3829913404839397,0.4,1.0,1.0,390.0,903.0,1.0,1,557.0,1
648,648,0.3743208661915943,0.4,0.0,0.0,434.0,824.0,0.0,1,582.0,1
649,649,-0.6935817035004789,-0.7,1.0,0.0,375.0,668.0,0.0,0,277.0,1
650,650,-0.39549050786087236,-0.4,0.0,1.0,419.0,519.0,1.0,0,372.0,1
651,651,-0.8134422993957178,-0.8,1.0,0.0,496.0,934.0,0.0,0,300.0,1
652,652,-0.5089788066039483,-0.5,0.0,1.0,307.0,748.0,1.0,0,325.0,1
653,653,0.14361078940839167,0.1,1.0,1.0,429.0,672.0,1.0,1,619.0,1
654,654,0.15297743290676336,0.2,1.0,1.0,276.0,809.0,0.0,0,1505.0,0
655,655,-0.6062533692796331,-0.6,0.0,1.0,322.0,985.0,1.0,0,283.0,1
656,656,0.4531148242273747,0.5,0.0,0.0,397.0,863.0,0.0,1,530.0,1
657,657,0.25825433684761456,0.3,1.0,1.0,254.0,550.0,1.0,1,536.0,1
658,658,0.7835799592938916,0.8,1.0,1.0,423.0,739.0,1.0,1,178.0,1
659,659,0.8986059493523172,0.9,1.0,1.0,331.0,828.0,1.0,1,211.0,1
660,660,0.39741792794153896,0.4,1.0,1.0,393.0,837.0,1.0,1,270.0,1
661,661,-0.6852101632055918,-0.7,1.0,0.0,324.0,537.0,0.0,0,379.0,1
662,662,-0.7359103539518028,-0.7,0.0,1.0,296.0,922.0,1.0,0,192.0,1
663,663,0.41158676973596553,0.4,0.0,0.0,274.0,547.0,0.0,1,459.0,1
664,664,-0.21174882799249273,-0.2,1.0,0.0,376.0,508.0,0.0,0,416.0,1
665,665,-0.4485987936707376,-0.4,0.0,1.0,456.0,579.0,1.0,0,615.0,1
666,666,-0.7419771462546897,-0.7,0.0,1.0,318.0,721.0,1.0,0,91.0,1
667,667,0.22034042157771105,0.2,0.0,0.0,413.0,595.0,0.0,1,662.0,1
668,668,0.5594306848986924,0.6,1.0,1.0,269.0,529.0,1.0,1,1082.0,1
669,669,-0.3470362416930045,-0.3,0.0,1.0,360.0,541.0,1.0,0,329.0,1
670,670,0.8005044710212009,0.8,1.0,1.0,362.0,740.0,1.0,1,608.0,1
671,671,0.28610260997124215,0.3,0.0,0.0,271.0,717.0,0.0,1,622.0,1
672,672,0.5903624455439481,0.6,0.0,0.0,330.0,679.0,0.0,1,241.0,1
673,673,0.22483094759966737,0.2,0.0,0.0,490.0,854.0,0.0,1,426.0,1
674,674,-0.543168938387276,-0.5,1.0,0.0,443.0,668.0,0.0,0,209.0,1
675,675,-0.43872263545803963,-0.4,0.0,1.0,395.0,975.0,1.0,0,350.0,1
676,676,0.31171725051650967,0.3,0.0,0.0,364.0,900.0,0.0,1,316.0,1
677,677,0.7386990691697725,0.7,1.0,1.0,370.0,874.0,1.0,1,176.0,1
678,678,-0.8792557963832858,-0.9,1.0,0.0,459.0,793.0,0.0,0,208.0,1
679,679,0.45323861513478525,0.5,0.0,0.0,384.0,513.0,0.0,1,803.0,1
680,680,0.42922100534289165,0.4,0.0,0.0,375.0,517.0,0.0,1,1148.0,1
681,681,-0.09147701168727973,-0.1,1.0,0.0,419.0,642.0,1.0,1,859.0,0
682,682,-0.06128814406760508,-0.1,0.0,1.0,426.0,568.0,1.0,0,896.0,1
683,683,0.3744026461668585,0.4,1.0,1.0,439.0,769.0,1.0,1,252.0,1
684,684,0.19828103568969035,0.2,0.0,0.0,424.0,729.0,0.0,1,1307.0,1
685,685,0.8469544472466143,0.8,0.0,0.0,330.0,988.0,0.0,1,142.0,1
686,686,-0.17778742198099096,-0.2,1.0,0.0,467.0,697.0,0.0,0,1066.0,1
687,687,-0.10334291601247358,-0.1,0.0,1.0,277.0,730.0,1.0,0,813.0,1
688,688,0.5906176467851955,0.6,1.0,1.0,438.0,732.0,1.0,1,260.0,1
689,689,-0.4621248236200505,-0.5,0.0,1.0,322.0,822.0,1.0,0,166.0,1
690,690,0.2267587474281677,0.2,1.0,1.0,416.0,883.0,1.0,1,141.0,1
691,691,0.870370067975995,0.9,1.0,1.0,410.0,787.0,1.0,1,453.0,1
692,692,-0.7547597015609311,-0.8,0.0,1.0,350.0,821.0,1.0,0,269.0,1
693,693,-0.4044834825750177,-0.4,0.0,1.0,467.0,974.0,1.0,0,199.0,1
694,694,-0.5526943827433166,-0.6,0.0,1.0,478.0,867.0,1.0,0,535.0,1
695,695,-0.2801014037506022,-0.3,1.0,0.0,425.0,764.0,0.0,0,471.0,1
696,696,0.7212557751897967,0.7,0.0,0.0,473.0,768.0,0.0,1,229.0,1
697,697,0.8386145241016435,0.8,1.0,1.0,321.0,714.0,1.0,1,395.0,1
698,698,-0.10000584633870457,-0.1,0.0,1.0,462.0,574.0,1.0,0,894.0,1
699,699,-0.44283064888572976,-0.4,0.0,1.0,457.0,857.0,1.0,0,266.0,1
700,700,-0.7367563006016093,-0.7,0.0,1.0,420.0,724.0,1.0,0,406.0,1
701,701,0.5641765585796726,0.6,1.0,1.0,446.0,819.0,1.0,1,225.0,1
702,702,0.5024762399018193,0.5,1.0,1.0,341.0,647.0,1.0,1,592.0,1
703,703,-0.15776945934146847,-0.2,0.0,1.0,399.0,555.0,1.0,0,296.0,1
704,704,-0.6151327354417182,-0.6,1.0,0.0,252.0,612.0,0.0,0,826.0,1
705,705,0.09573813675581677,0.1,0.0,0.0,436.0,791.0,0.0,1,2163.0,1
706,706,-0.40777521279763707,-0.4,0.0,1.0,288.0,818.0,1.0,0,4.0,1
707,707,0.7130688551565526,0.7,1.0,1.0,449.0,632.0,1.0,1,429.0,1
708,708,-0.5815726828347784,-0.6,1.0,0.0,449.0,506.0,0.0,0,635.0,1
709,709,-0.43929918672189977,-0.4,1.0,0.0,327.0,753.0,0.0,0,540.0,1
710,710,-0.5432680961470371,-0.5,0.0,1.0,333.0,625.0,1.0,0,422.0,1
711,711,0.5282306669630065,0.5,1.0,1.0,489.0,596.0,1.0,1,415.0,1
712,712,-0.4778850928729234,-0.5,0.0,1.0,420.0,605.0,1.0,0,355.0,1
713,713,0.254621592506051,0.3,0.0,0.0,468.0,798.0,0.0,1,604.0,1
714,714,0.11446540946813222,0.1,1.0,1.0,263.0,661.0,1.0,1,566.0,1
715,715,0.014153632717180287,0.0,0.0,0.0,346.0,539.0,1.0,0,1095.0,0
716,716,0.575522530945246,0.6,0.0,0.0,270.0,655.0,0.0,1,465.0,1
717,717,0.8110114997740675,0.8,0.0,0.0,487.0,993.0,0.0,1,260.0,1
718,718,0.2036214786068612,0.2,0.0,0.0,254.0,914.0,0.0,1,982.0,1
719,719,0.7140236253805327,0.7,1.0,1.0,493.0,679.0,1.0,1,508.0,1
720,720,-0.8589052873478259,-0.9,0.0,1.0,340.0,567.0,1.0,0,623.0,1
721,721,0.413023916584239,0.4,0.0,0.0,324.0,741.0,0.0,1,1705.0,1
722,722,-0.1601747586129606,-0.2,1.0,0.0,427.0,647.0,0.0,0,1856.0,1
723,723,0.15558065376283692,0.2,0.0,0.0,348.0,739.0,0.0,1,443.0,1
724,724,-0.3918863544264638,-0.4,0.0,1.0,412.0,781.0,1.0,0,107.0,1
725,725,0.1628354942007154,0.2,0.0,0.0,445.0,613.0,0.0,1,572.0,1
726,726,0.5772460461265371,0.6,0.0,0.0,374.0,500.0,0.0,1,1406.0,1
727,727,0.5593030672215279,0.6,0.0,0.0,418.0,535.0,0.0,1,337.0,1
728,728,-0.3628467020000634,-0.4,0.0,1.0,459.0,721.0,1.0,0,290.0,1
729,729,-0.8286304584703882,-0.8,1.0,0.0,366.0,882.0,0.0,0,382.0,1
730,730,-0.5833658459822788,-0.6,1.0,0.0,264.0,707.0,0.0,0,239.0,1
731,731,-0.5897499252235876,-0.6,1.0,0.0,474.0,703.0,0.0,0,743.0,1
732,732,-0.8202745184858947,-0.8,0.0,1.0,345.0,903.0,1.0,0,112.0,1
733,733,-0.2723565406261298,-0.3,1.0,0.0,445.0,591.0,0.0,0,584.0,1
734,734,0.3260932880380837,0.3,1.0,1.0,412.0,675.0,1.0,1,433.0,1
735,735,0.5406970470697751,0.5,0.0,0.0,487.0,912.0,0.0,1,251.0,1
736,736,0.6289815675315006,0.6,0.0,0.0,413.0,870.0,0.0,1,307.0,1
737,737,-0.27130050105319525,-0.3,1.0,0.0,366.0,975.0,0.0,0,919.0,1
738,738,-0.1387822957018443,-0.1,0.0,1.0,371.0,550.0,1.0,0,339.0,1
739,739,0.0031334209224550547,0.0,1.0,1.0,277.0,687.0,1.0,1,566.0,1
740,740,0.6089802751178618,0.6,0.0,0.0,483.0,920.0,0.0,1,367.0,1
741,741,-0.5493835913345035,-0.5,0.0,1.0,331.0,665.0,1.0,0,514.0,1
742,742,-0.7301202382430385,-0.7,1.0,0.0,371.0,679.0,0.0,0,240.0,1
743,743,-0.07509522227921717,-0.1,0.0,1.0,393.0,924.0,1.0,0,263.0,1
744,744,0.08470802486137852,0.1,0.0,0.0,352.0,748.0,0.0,1,2130.0,1
745,745,0.6662191671245762,0.7,1.0,1.0,393.0,663.0,1.0,1,244.0,1
746,746,-0.19586727480801658,-0.2,0.0,1.0,366.0,661.0,1.0,0,703.0,1
747,747,0.09624300510754902,0.1,1.0,1.0,437.0,901.0,1.0,1,1992.0,1
748,748,-0.20218740425117931,-0.2,0.0,1.0,497.0,680.0,1.0,0,223.0,1
749,749,0.005359744252610876,0.0,1.0,1.0,359.0,836.0,1.0,1,5.0,1
750,750,0.8006951527038862,0.8,0.0,0.0,429.0,881.0,0.0,1,280.0,1
751,751,0.0206407413635179,0.0,1.0,1.0,336.0,858.0,0.0,0,796.0,0
752,752,-0.10453560221642633,-0.1,1.0,0.0,306.0,631.0,0.0,0,1333.0,1
753,753,0.7515133958624046,0.8,1.0,1.0,359.0,896.0,1.0,1,85.0,1
754,754,-0.04939816130063768,-0.0,1.0,0.0,472.0,671.0,0.0,0,1447.0,1
755,755,-0.2526065019590459,-0.3,0.0,1.0,332.0,751.0,1.0,0,707.0,1
756,756,0.7980168467984313,0.8,1.0,1.0,309.0,971.0,1.0,1,70.0,1
757,757,0.022220495969733745,0.0,1.0,1.0,290.0,968.0,0.0,0,372.0,0
758,758,-0.6364041828234979,-0.6,1.0,0.0,361.0,686.0,0.0,0,563.0,1
759,759,0.5318681842582275,0.5,1.0,1.0,351.0,761.0,1.0,1,248.0,1
760,760,-0.4083359082435478,-0.4,1.0,0.0,457.0,696.0,0.0,0,797.0,1
761,761,0.7715320672672888,0.8,0.0,0.0,268.0,955.0,0.0,1,317.0,1
762,762,0.7225545091469371,0.7,1.0,1.0,423.0,843.0,1.0,1,394.0,1
763,763,-0.16310232999499974,-0.2,0.0,1.0,411.0,633.0,0.0,1,106.0,0
764,764,-0.07596714584038144,-0.1,1.0,0.0,421.0,856.0,0.0,0,1113.0,1
765,765,0.4013987583486812,0.4,1.0,1.0,395.0,763.0,1.0,1,442.0,1
766,766,-0.8570414137990002,-0.9,1.0,0.0,487.0,942.0,0.0,0,231.0,1
767,767,-0.5627227170507727,-0.6,1.0,0.0,281.0,818.0,0.0,0,281.0,1
768,768,0.3029067592157578,0.3,1.0,1.0,273.0,820.0,1.0,1,397.0,1
769,769,-0.05207859111552915,-0.1,0.0,1.0,492.0,781.0,1.0,0,777.0,1
770,770,-0.33160660212477056,-0.3,1.0,0.0,277.0,619.0,0.0,0,1344.0,1
771,771,-0.6192615425836789,-0.6,1.0,0.0,419.0,868.0,0.0,0,213.0,1
772,772,-0.6685083059055528,-0.7,0.0,1.0,390.0,762.0,1.0,0,368.0,1
773,773,0.06505777911092547,0.1,1.0,1.0,395.0,616.0,1.0,1,1029.0,1
774,774,-0.12150160397146803,-0.1,0.0,1.0,265.0,591.0,1.0,0,1454.0,1
775,775,0.39435771647193174,0.4,1.0,1.0,331.0,965.0,1.0,1,404.0,1
776,776,-0.813846615089848,-0.8,1.0,0.0,341.0,666.0,0.0,0,293.0,1
777,777,0.3683174662286849,0.4,1.0,1.0,389.0,677.0,1.0,1,944.0,1
778,778,-0.21907032045784858,-0.2,0.0,1.0,272.0,748.0,1.0,0,940.0,1
779,779,-0.38747488988015677,-0.4,0.0,1.0,375.0,576.0,1.0,0,919.0,1
780,780,-0.859333714732505,-0.9,0.0,1.0,343.0,804.0,1.0,0,313.0,1
781,781,-0.5850990247207455,-0.6,1.0,0.0,414.0,533.0,0.0,0,363.0,1
782,782,0.11510824403087072,0.1,1.0,1.0,466.0,771.0,1.0,1,463.0,1
783,783,-0.03732773191552896,-0.0,0.0,1.0,453.0,606.0,1.0,0,771.0,1
784,784,0.11479530151624229,0.1,0.0,0.0,306.0,865.0,0.0,1,469.0,1
785,785,-0.018595570195196753,-0.0,0.0,1.0,263.0,815.0,1.0,0,1042.0,1
786,786,0.7980592229927789,0.8,1.0,1.0,475.0,629.0,1.0,1,376.0,1
787,787,-0.45446204424823533,-0.5,0.0,1.0,284.0,824.0,1.0,0,472.0,1
788,788,0.8593149725295807,0.9,1.0,1.0,420.0,683.0,1.0,1,557.0,1
789,789,-0.09804914629680594,-0.1,1.0,0.0,280.0,995.0,1.0,1,1355.0,0
790,790,0.7839949369393832,0.8,0.0,0.0,404.0,820.0,0.0,1,306.0,1
791,791,0.047285418720008465,0.0,1.0,1.0,424.0,780.0,1.0,1,436.0,1
792,792,0.6365223054305548,0.6,1.0,1.0,290.0,913.0,1.0,1,617.0,1
793,793,-0.8963425021401349,-0.9,1.0,0.0,472.0,990.0,0.0,0,538.0,1
794,794,-0.500715466031809,-0.5,0.0,1.0,321.0,887.0,1.0,0,302.0,1
795,795,-0.7843343112690851,-0.8,1.0,0.0,402.0,663.0,0.0,0,385.0,1
796,796,0.7496951608154484,0.7,0.0,0.0,367.0,885.0,0.0,1,308.0,1
797,797,-0.5299305789948863,-0.5,1.0,0.0,462.0,860.0,0.0,0,288.0,1
798,798,0.48083910768221105,0.5,1.0,1.0,437.0,961.0,1.0,1,-78.0,1
799,799,-0.8298293036618664,-0.8,0.0,1.0,285.0,685.0,1.0,0,480.0,1
800,800,0.6903550114502678,0.7,1.0,1.0,440.0,789.0,1.0,1,611.0,1
801,801,-0.2584881843435076,-0.3,1.0,0.0,283.0,691.0,0.0,0,756.0,1
802,802,-0.009567814387015705,-0.0,1.0,0.0,375.0,705.0,0.0,0,1450.0,1
803,803,-0.03330061423443187,-0.0,1.0,0.0,326.0,736.0,1.0,1,508.0,0
804,804,-0.6019834057587163,-0.6,0.0,1.0,455.0,546.0,1.0,0,549.0,1
805,805,0.03730939708229408,0.0,0.0,0.0,370.0,537.0,1.0,0,983.0,0
806,806,0.8699612230279518,0.9,0.0,0.0,461.0,807.0,0.0,1,112.0,1
807,807,-0.24888193655093016,-0.2,1.0,0.0,438.0,995.0,0.0,0,937.0,1
808,808,0.5669753106333523,0.6,0.0,0.0,465.0,695.0,0.0,1,220.0,1
809,809,-0.5494903122446673,-0.5,1.0,0.0,316.0,653.0,0.0,0,391.0,1
810,810,0.5610625872103511,0.6,1.0,1.0,256.0,514.0,1.0,1,700.0,1
811,811,-0.7162518992043826,-0.7,0.0,1.0,287.0,948.0,1.0,0,95.0,1
812,812,0.87215157432669,0.9,0.0,0.0,316.0,906.0,1.0,0,-92.0,0
813,813,-0.8295454020476081,-0.8,0.0,1.0,398.0,756.0,1.0,0,286.0,1
814,814,0.628437190739736,0.6,1.0,1.0,483.0,769.0,1.0,1,468.0,1
815,815,0.02219782806892312,0.0,1.0,1.0,441.0,965.0,1.0,1,334.0,1
816,816,-0.1681880582296862,-0.2,1.0,0.0,462.0,943.0,0.0,0,865.0,1
817,817,0.12872416410154341,0.1,0.0,0.0,256.0,743.0,0.0,1,241.0,1
818,818,-0.08817444793103857,-0.1,1.0,0.0,272.0,998.0,0.0,0,2140.0,1
819,819,-0.007352568261765002,-0.0,1.0,0.0,487.0,801.0,1.0,1,1292.0,0
820,820,0.7640959008757627,0.8,0.0,0.0,280.0,856.0,0.0,1,274.0,1
821,821,0.3069580454060924,0.3,0.0,0.0,310.0,792.0,0.0,1,1628.0,1
822,822,-0.3545407610204869,-0.4,1.0,0.0,489.0,874.0,0.0,0,567.0,1
823,823,-0.41871790270073406,-0.4,0.0,1.0,462.0,865.0,1.0,0,343.0,1
824,824,-0.31427713250575295,-0.3,0.0,1.0,364.0,895.0,1.0,0,151.0,1
825,825,-0.6717059125999743,-0.7,1.0,0.0,408.0,678.0,0.0,0,224.0,1
826,826,0.1598387088776051,0.2,1.0,1.0,370.0,725.0,1.0,1,155.0,1
827,827,0.49824270217549593,0.5,0.0,0.0,295.0,521.0,0.0,1,654.0,1
828,828,0.3740475663795323,0.4,1.0,1.0,479.0,645.0,1.0,1,706.0,1
829,829,-0.29236983768862657,-0.3,1.0,0.0,305.0,633.0,0.0,0,682.0,1
830,830,0.08966719863423878,0.1,0.0,0.0,480.0,853.0,1.0,0,1187.0,0
831,831,0.645356848818082,0.6,0.0,0.0,451.0,966.0,1.0,0,-47.0,0
832,832,-0.1307963936137445,-0.1,0.0,1.0,364.0,884.0,1.0,0,702.0,1
833,833,-0.26221122660305474,-0.3,1.0,0.0,297.0,869.0,0.0,0,274.0,1
834,834,-0.24384880856027635,-0.2,0.0,1.0,462.0,633.0,1.0,0,625.0,1
835,835,-0.4182374794818398,-0.4,1.0,0.0,454.0,500.0,0.0,0,606.0,1
836,836,-0.10962593644743612,-0.1,1.0,0.0,292.0,822.0,1.0,1,1236.0,0
837,837,0.7303687276477001,0.7,0.0,0.0,297.0,950.0,0.0,1,163.0,1
838,838,-0.7687947152289418,-0.8,1.0,0.0,469.0,655.0,0.0,0,506.0,1
839,839,0.43940467231512137,0.4,1.0,1.0,488.0,864.0,1.0,1,228.0,1
840,840,0.2167877611832082,0.2,0.0,0.0,284.0,541.0,0.0,1,1175.0,1
841,841,-0.6683218180693244,-0.7,0.0,1.0,392.0,688.0,1.0,0,340.0,1
842,842,0.7761652327847016,0.8,0.0,0.0,385.0,640.0,0.0,1,335.0,1
843,843,-0.8823398001274655,-0.9,1.0,0.0,254.0,600.0,0.0,0,476.0,1
844,844,-0.6433865485915029,-0.6,1.0,0.0,324.0,583.0,0.0,0,453.0,1
845,845,-0.8631040900692434,-0.9,1.0,0.0,251.0,827.0,0.0,0,92.0,1
846,846,-0.31027968980391696,-0.3,1.0,0.0,360.0,801.0,0.0,0,969.0,1
847,847,-0.4286499743330059,-0.4,0.0,1.0,359.0,803.0,1.0,0,788.0,1
848,848,0.7631553402094758,0.8,1.0,1.0,304.0,818.0,1.0,1,318.0,1
849,849,0.03879457319728441,0.0,0.0,0.0,266.0,631.0,0.0,1,643.0,1
850,850,0.13929449262695848,0.1,0.0,0.0,344.0,805.0,0.0,1,941.0,1
851,851,0.7772935890501876,0.8,0.0,0.0,338.0,915.0,0.0,1,107.0,1
852,852,-0.0028041613040237223,-0.0,0.0,1.0,449.0,999.0,1.0,0,1022.0,1
853,853,-0.8844112124478481,-0.9,1.0,0.0,372.0,562.0,0.0,0,666.0,1
854,854,-0.17197647635919766,-0.2,0.0,1.0,269.0,929.0,1.0,0,202.0,1
855,855,0.03972995636783905,0.0,0.0,0.0,358.0,630.0,1.0,0,672.0,0
856,856,0.05427600158447565,0.1,0.0,0.0,408.0,748.0,1.0,0,624.0,0
857,857,-0.6146009988746284,-0.6,0.0,1.0,385.0,619.0,1.0,0,256.0,1
858,858,-0.29848807124369736,-0.3,0.0,1.0,325.0,721.0,1.0,0,274.0,1
859,859,0.8810769193323477,0.9,1.0,1.0,468.0,687.0,1.0,1,355.0,1
860,860,0.5056246492449928,0.5,1.0,1.0,408.0,532.0,1.0,1,600.0,1
861,861,0.38041237257540106,0.4,1.0,1.0,463.0,933.0,1.0,1,384.0,1
862,862,-0.8598697253326163,-0.9,1.0,0.0,326.0,520.0,0.0,0,424.0,1
863,863,0.6239370806508399,0.6,1.0,1.0,496.0,591.0,1.0,1,463.0,1
864,864,-0.6396905690221284,-0.6,0.0,1.0,426.0,502.0,1.0,0,372.0,1
865,865,0.5506470760674441,0.6,1.0,1.0,273.0,924.0,1.0,1,333.0,1
866,866,0.371563114796552,0.4,0.0,0.0,297.0,993.0,0.0,1,230.0,1
867,867,0.8500735937414,0.9,0.0,0.0,279.0,958.0,0.0,1,23.0,1
868,868,0.8003020188189484,0.8,0.0,0.0,364.0,572.0,0.0,1,584.0,1
869,869,-0.41777637981909294,-0.4,1.0,0.0,266.0,557.0,0.0,0,737.0,1
870,870,-0.25080633377043926,-0.3,1.0,0.0,370.0,703.0,0.0,0,667.0,1
871,871,0.7177966485125039,0.7,0.0,0.0,454.0,730.0,0.0,1,286.0,1
872,872,0.5404447853257198,0.5,0.0,0.0,352.0,843.0,0.0,1,255.0,1
873,873,-0.5370669760232832,-0.5,1.0,0.0,346.0,526.0,0.0,0,368.0,1
874,874,0.4924531220481848,0.5,0.0,0.0,273.0,629.0,0.0,1,418.0,1
875,875,0.3235908798992161,0.3,0.0,0.0,352.0,970.0,1.0,0,-32.0,0
876,876,-0.410622098249156,-0.4,0.0,1.0,479.0,656.0,1.0,0,515.0,1
877,877,-0.6829066397848528,-0.7,0.0,1.0,281.0,505.0,1.0,0,494.0,1
878,878,-0.8972269212572196,-0.9,1.0,0.0,369.0,894.0,0.0,0,317.0,1
879,879,-0.5863013631968641,-0.6,0.0,1.0,397.0,806.0,1.0,0,217.0,1
880,880,0.642518957113113,0.6,0.0,0.0,291.0,585.0,0.0,1,604.0,1
881,881,0.42824274693543607,0.4,1.0,1.0,338.0,569.0,1.0,1,653.0,1
882,882,-0.22410678081080293,-0.2,1.0,0.0,457.0,644.0,0.0,0,859.0,1
883,883,0.28984453689557343,0.3,0.0,0.0,298.0,748.0,0.0,1,464.0,1
884,884,0.2343870589099385,0.2,1.0,1.0,304.0,937.0,1.0,1,649.0,1
885,885,-0.18208395097319863,-0.2,0.0,1.0,423.0,712.0,1.0,0,755.0,1
886,886,-0.01757641853922609,-0.0,1.0,0.0,485.0,708.0,1.0,1,297.0,0
887,887,-0.21539535036395752,-0.2,0.0,1.0,443.0,609.0,1.0,0,568.0,1
888,888,0.36776133271231026,0.4,0.0,0.0,454.0,899.0,1.0,0,-183.0,0
889,889,0.6378633838066484,0.6,1.0,1.0,322.0,765.0,1.0,1,323.0,1
890,890,-0.4732837460449263,-0.5,0.0,1.0,451.0,745.0,1.0,0,254.0,1
891,891,0.2630378502789078,0.3,1.0,1.0,252.0,772.0,1.0,1,886.0,1
892,892,0.705443357088131,0.7,1.0,1.0,364.0,560.0,1.0,1,586.0,1
893,893,-0.5347897929390526,-0.5,1.0,0.0,277.0,770.0,0.0,0,223.0,1
894,894,-0.09890898557591932,-0.1,0.0,1.0,416.0,653.0,1.0,0,671.0,1
895,895,0.3074053270095912,0.3,0.0,0.0,342.0,585.0,0.0,1,943.0,1
896,896,0.07069436604314949,0.1,1.0,1.0,400.0,784.0,1.0,1,696.0,1
897,897,0.2912795966293259,0.3,1.0,1.0,384.0,858.0,1.0,1,318.0,1
898,898,0.6724829850374775,0.7,1.0,1.0,483.0,769.0,1.0,1,558.0,1
899,899,-0.4685680519279823,-0.5,1.0,0.0,459.0,825.0,0.0,0,166.0,1
900,900,-0.4630442654344685,-0.5,1.0,0.0,263.0,607.0,0.0,0,310.0,1
901,901,-0.2390672820754033,-0.2,1.0,0.0,255.0,889.0,1.0,1,266.0,0
902,902,0.12869504987795277,0.1,1.0,1.0,325.0,564.0,1.0,1,311.0,1
903,903,-0.5387067153454037,-0.5,1.0,0.0,421.0,951.0,0.0,0,388.0,1
904,904,-0.3679419705545035,-0.4,0.0,1.0,366.0,953.0,1.0,0,231.0,1
905,905,0.5408993826092846,0.5,1.0,1.0,441.0,771.0,1.0,1,188.0,1
906,906,-0.09153492113200756,-0.1,1.0,0.0,283.0,887.0,1.0,1,-160.0,0
907,907,0.5955832228644516,0.6,0.0,0.0,303.0,538.0,0.0,1,499.0,1
908,908,-0.019406553794076853,-0.0,1.0,0.0,473.0,808.0,1.0,1,1159.0,0
909,909,-0.09735995360794836,-0.1,1.0,0.0,379.0,606.0,0.0,0,475.0,1
910,910,0.759016075118511,0.8,1.0,1.0,320.0,663.0,1.0,1,497.0,1
911,911,-0.08163543937943252,-0.1,0.0,1.0,351.0,994.0,1.0,0,45.0,1
912,912,-0.26955946338201353,-0.3,0.0,1.0,273.0,602.0,1.0,0,825.0,1
913,913,0.8859678058688335,0.9,1.0,1.0,389.0,551.0,1.0,1,720.0,1
914,914,0.667230659481047,0.7,0.0,0.0,284.0,874.0,0.0,1,182.0,1
915,915,-0.05722509717192714,-0.1,0.0,1.0,372.0,999.0,0.0,1,159.0,0
916,916,0.42359876471314617,0.4,1.0,1.0,335.0,567.0,1.0,1,1038.0,1
917,917,0.11599466531021319,0.1,1.0,1.0,396.0,596.0,1.0,1,768.0,1
918,918,0.8622127949754871,0.9,0.0,0.0,413.0,578.0,0.0,1,389.0,1
919,919,-0.7758316196097532,-0.8,1.0,0.0,324.0,972.0,0.0,0,304.0,1
920,920,-0.04508963818590139,-0.0,0.0,1.0,424.0,529.0,1.0,0,687.0,1
921,921,-0.4413536579945332,-0.4,0.0,1.0,282.0,778.0,1.0,0,300.0,1
922,922,-0.12387961787274315,-0.1,0.0,1.0,375.0,901.0,1.0,0,354.0,1
923,923,-0.3476311950835129,-0.3,1.0,0.0,296.0,659.0,0.0,0,815.0,1
924,924,0.07537973785505248,0.1,0.0,0.0,493.0,986.0,1.0,0,121.0,0
925,925,-0.30547929521834005,-0.3,0.0,1.0,355.0,610.0,1.0,0,625.0,1
926,926,-0.8432616107821261,-0.8,0.0,1.0,431.0,731.0,1.0,0,228.0,1
927,927,0.8382248262468913,0.8,0.0,0.0,425.0,687.0,0.0,1,728.0,1
928,928,-0.5793097413003238,-0.6,0.0,1.0,284.0,964.0,1.0,0,42.0,1
929,929,0.35023335862203264,0.4,1.0,1.0,431.0,960.0,1.0,1,389.0,1
930,930,-0.5922807903368424,-0.6,1.0,0.0,424.0,694.0,0.0,0,702.0,1
931,931,-0.8506943268671198,-0.9,1.0,0.0,474.0,947.0,0.0,0,359.0,1
932,932,0.5182025807739713,0.5,0.0,0.0,389.0,927.0,0.0,1,114.0,1
933,933,-0.5611655420503708,-0.6,1.0,0.0,379.0,607.0,0.0,0,884.0,1
934,934,0.030324486379244897,0.0,1.0,1.0,300.0,579.0,1.0,1,2191.0,1
935,935,0.8031096381711126,0.8,0.0,0.0,365.0,875.0,0.0,1,360.0,1
936,936,0.7334568958751281,0.7,1.0,1.0,381.0,660.0,1.0,1,589.0,1
937,937,0.07524813463101665,0.1,0.0,0.0,377.0,669.0,0.0,1,444.0,1
938,938,-0.22347405665340536,-0.2,0.0,1.0,376.0,618.0,0.0,1,596.0,0
939,939,0.32962118302200405,0.3,0.0,0.0,251.0,912.0,0.0,1,327.0,1
940,940,-0.5972855519557458,-0.6,1.0,0.0,326.0,586.0,0.0,0,978.0,1
941,941,-0.7637782722296329,-0.8,0.0,1.0,319.0,896.0,1.0,0,215.0,1
942,942,-0.595500965570809,-0.6,1.0,0.0,356.0,667.0,0.0,0,647.0,1
943,943,0.8391976229174091,0.8,1.0,1.0,351.0,770.0,1.0,1,319.0,1
944,944,-0.4738282941456171,-0.5,1.0,0.0,388.0,902.0,0.0,0,10.0,1
945,945,0.03460514273782889,0.0,0.0,0.0,390.0,907.0,0.0,1,293.0,1
946,946,-0.4029145553564461,-0.4,1.0,0.0,389.0,618.0,0.0,0,1663.0,1
947,947,0.5540042350481603,0.6,0.0,0.0,268.0,549.0,0.0,1,403.0,1
948,948,-0.6433350814812258,-0.6,1.0,0.0,484.0,911.0,0.0,0,295.0,1
949,949,-0.8380845753126798,-0.8,0.0,1.0,278.0,995.0,1.0,0,217.0,1
950,950,-0.08155539610907447,-0.1,0.0,1.0,422.0,845.0,1.0,0,473.0,1
951,951,0.7831187310570514,0.8,0.0,0.0,485.0,854.0,0.0,1,331.0,1
952,952,-0.5362752679179761,-0.5,0.0,1.0,475.0,600.0,1.0,0,465.0,1
953,953,-0.8110593246916541,-0.8,0.0,1.0,322.0,762.0,1.0,0,116.0,1
954,954,-0.2489690522478264,-0.2,1.0,0.0,404.0,863.0,0.0,0,1623.0,1
955,955,-0.3307652591258966,-0.3,1.0,0.0,464.0,836.0,0.0,0,190.0,1
956,956,-0.21528396708536024,-0.2,0.0,1.0,478.0,511.0,1.0,0,341.0,1
957,957,-0.4284905742757387,-0.4,1.0,0.0,358.0,965.0,0.0,0,777.0,1
958,958,-0.6520975221169663,-0.7,0.0,1.0,495.0,561.0,1.0,0,494.0,1
959,959,0.06957289458740068,0.1,0.0,0.0,484.0,616.0,0.0,1,580.0,1
960,960,-0.37537502458959493,-0.4,0.0,1.0,340.0,615.0,1.0,0,465.0,1
961,961,-0.035951153618127174,-0.0,0.0,1.0,258.0,894.0,0.0,1,378.0,0
962,962,0.6393867571235764,0.6,0.0,0.0,409.0,765.0,0.0,1,176.0,1
963,963,0.30883669310864537,0.3,1.0,1.0,496.0,858.0,1.0,1,206.0,1
964,964,-0.6864033928999058,-0.7,0.0,1.0,490.0,717.0,1.0,0,263.0,1
965,965,0.545700967817868,0.5,1.0,1.0,447.0,626.0,1.0,1,407.0,1
966,966,0.13568744279561284,0.1,1.0,1.0,364.0,697.0,1.0,1,1379.0,1
967,967,0.17678566073399338,0.2,1.0,1.0,486.0,717.0,1.0,1,727.0,1
968,968,-0.3985475780311406,-0.4,0.0,1.0,372.0,707.0,1.0,0,301.0,1
969,969,0.26647162158705895,0.3,1.0,1.0,259.0,631.0,1.0,1,720.0,1
970,970,0.3470051833500444,0.3,1.0,1.0,350.0,573.0,1.0,1,467.0,1
971,971,-0.14326132641333122,-0.1,0.0,1.0,362.0,873.0,1.0,0,315.0,1
972,972,0.08566509538380407,0.1,1.0,1.0,389.0,903.0,1.0,1,1368.0,1
973,973,-0.4202158185607701,-0.4,0.0,1.0,270.0,984.0,1.0,0,526.0,1
974,974,0.5549466034156408,0.6,1.0,1.0,353.0,865.0,1.0,1,252.0,1
975,975,-0.25417505488165826,-0.3,1.0,0.0,304.0,836.0,0.0,0,380.0,1
976,976,0.3716660254537255,0.4,1.0,1.0,369.0,766.0,1.0,1,545.0,1
977,977,-0.6353447414294344,-0.6,1.0,0.0,317.0,692.0,0.0,0,301.0,1
978,978,0.7974712762733102,0.8,0.0,0.0,259.0,555.0,0.0,1,456.0,1
979,979,0.5157811405785088,0.5,0.0,0.0,458.0,860.0,0.0,1,292.0,1
980,980,0.7483743244228355,0.7,1.0,1.0,496.0,646.0,1.0,1,358.0,1
981,981,0.36724503973157907,0.4,1.0,1.0,402.0,666.0,1.0,1,502.0,1
982,982,0.7979056010862161,0.8,1.0,1.0,352.0,546.0,1.0,1,242.0,1
983,983,-0.5722153656470508,-0.6,0.0,1.0,333.0,885.0,1.0,0,152.0,1
984,984,0.5165971503918901,0.5,0.0,0.0,333.0,556.0,0.0,1,1081.0,1
985,985,0.32112954740209976,0.3,1.0,1.0,406.0,674.0,1.0,1,440.0,1
986,986,-0.2447064368028703,-0.2,0.0,1.0,337.0,847.0,1.0,0,376.0,1
987,987,-0.09852531073050108,-0.1,1.0,0.0,368.0,903.0,1.0,1,1419.0,0
988,988,-0.6627866381830203,-0.7,0.0,1.0,317.0,599.0,1.0,0,344.0,1
989,989,-0.6055694574685135,-0.6,0.0,1.0,471.0,789.0,1.0,0,240.0,1
990,990,-0.0562244500885728,-0.1,1.0,0.0,401.0,599.0,1.0,1,470.0,0
991,991,0.8818404701514705,0.9,1.0,1.0,390.0,587.0,1.0,1,443.0,1
992,992,-0.3519200593322732,-0.4,0.0,1.0,476.0,575.0,1.0,0,739.0,1
993,993,-0.008281871833891397,-0.0,0.0,1.0,258.0,875.0,0.0,1,1727.0,0
994,994,-0.15093331774437702,-0.2,1.0,0.0,455.0,526.0,0.0,0,849.0,1
995,995,-0.22057175536475393,-0.2,1.0,0.0,475.0,690.0,0.0,0,1585.0,1
996,996,0.8167826108938853,0.8,1.0,1.0,300.0,676.0,1.0,1,804.0,1
997,997,0.6944590424439715,0.7,1.0,1.0,347.0,531.0,1.0,1,732.0,1
998,998,-0.12695857039086056,-0.1,0.0,1.0,360.0,559.0,1.0,0,1001.0,1
999,999,0.7316509446852134,0.7,0.0,0.0,329.0,859.0,0.0,1,202.0,1
1000,1000,-0.18689524020781223,-0.2,1.0,0.0,455.0,694.0,0.0,0,1511.0,1
1001,1001,0.5779937356500661,0.6,1.0,1.0,275.0,841.0,1.0,1,174.0,1
1002,1002,0.041975999126540486,0.0,1.0,1.0,462.0,824.0,1.0,1,414.0,1
1003,1003,-0.4871468957655449,-0.5,1.0,0.0,291.0,991.0,0.0,0,258.0,1
1004,1004,-0.5078242429200162,-0.5,0.0,1.0,259.0,655.0,1.0,0,146.0,1
1005,1005,-0.7392607952259043,-0.7,1.0,0.0,300.0,974.0,0.0,0,176.0,1
1006,1006,0.19718370440753763,0.2,0.0,0.0,381.0,664.0,0.0,1,655.0,1
1007,1007,-0.7822288509227063,-0.8,1.0,0.0,434.0,682.0,0.0,0,334.0,1
1008,1008,0.38083453430441605,0.4,0.0,0.0,447.0,890.0,0.0,1,243.0,1
1009,1009,-0.6549799177162113,-0.7,1.0,0.0,255.0,705.0,0.0,0,220.0,1
1010,1010,-0.5820466897317196,-0.6,1.0,0.0,451.0,793.0,0.0,0,276.0,1
1011,1011,0.6593920160799375,0.7,1.0,1.0,342.0,817.0,1.0,1,781.0,1
1012,1012,-0.26510644104073866,-0.3,1.0,0.0,483.0,752.0,0.0,0,665.0,1
1013,1013,0.2899446105068676,0.3,1.0,1.0,437.0,567.0,1.0,1,446.0,1
1014,1014,0.1547111846986119,0.2,1.0,1.0,266.0,854.0,1.0,1,1230.0,1
1015,1015,-0.16483051303383756,-0.2,1.0,0.0,429.0,883.0,0.0,0,1308.0,1
1016,1016,0.4679343418714087,0.5,1.0,1.0,302.0,734.0,1.0,1,404.0,1
1017,1017,-0.40148351865265236,-0.4,0.0,1.0,328.0,786.0,1.0,0,506.0,1
1018,1018,0.4653192850662796,0.5,0.0,0.0,427.0,619.0,0.0,1,514.0,1
1019,1019,-0.04276176763870276,-0.0,1.0,0.0,361.0,912.0,1.0,1,647.0,0
1020,1020,0.3026060222195265,0.3,0.0,0.0,277.0,661.0,0.0,1,332.0,1
1021,1021,-0.8179878456593377,-0.8,1.0,0.0,338.0,508.0,0.0,0,524.0,1
1022,1022,0.5281913043555014,0.5,0.0,0.0,344.0,864.0,0.0,1,612.0,1
1023,1023,0.6861257992855735,0.7,0.0,0.0,479.0,989.0,0.0,1,212.0,1
1024,1024,-0.012821803584627478,-0.0,1.0,0.0,387.0,568.0,1.0,1,1585.0,0
1025,1025,0.044388181339309773,0.0,0.0,0.0,483.0,782.0,0.0,1,215.0,1
1026,1026,0.07843632947123458,0.1,1.0,1.0,358.0,672.0,1.0,1,740.0,1
1027,1027,0.3350405494831764,0.3,0.0,0.0,371.0,858.0,0.0,1,201.0,1
1028,1028,-0.19184476416967,-0.2,0.0,1.0,498.0,861.0,1.0,0,621.0,1
1029,1029,0.3604847538366639,0.4,1.0,1.0,309.0,594.0,1.0,1,707.0,1
1030,1030,-0.3632451085849161,-0.4,0.0,1.0,345.0,603.0,1.0,0,392.0,1
1031,1031,-0.04383864201835108,-0.0,1.0,0.0,255.0,933.0,0.0,0,1172.0,1
1032,1032,-0.5173655941657496,-0.5,1.0,0.0,461.0,713.0,0.0,0,216.0,1
1033,1033,0.3778339644446148,0.4,1.0,1.0,283.0,893.0,1.0,1,164.0,1
1034,1034,0.15380314124368477,0.2,0.0,0.0,310.0,843.0,0.0,1,1487.0,1
1035,1035,-0.37656910355676776,-0.4,1.0,0.0,379.0,780.0,0.0,0,1151.0,1
1036,1036,0.8683761323974933,0.9,0.0,0.0,268.0,521.0,0.0,1,741.0,1
1037,1037,0.33583264519928024,0.3,1.0,1.0,392.0,696.0,1.0,1,162.0,1
1038,1038,0.42828645821579026,0.4,0.0,0.0,473.0,523.0,0.0,1,1084.0,1
1039,1039,0.184535983383317,0.2,0.0,0.0,324.0,974.0,0.0,1,802.0,1
1040,1040,-0.5821452021393693,-0.6,0.0,1.0,305.0,731.0,1.0,0,294.0,1
1041,1041,-0.24737359688476745,-0.2,0.0,1.0,490.0,755.0,1.0,0,235.0,1
1042,1042,0.20194695651059769,0.2,1.0,1.0,410.0,979.0,1.0,1,2271.0,1
1043,1043,0.8049336225975395,0.8,0.0,0.0,332.0,862.0,0.0,1,136.0,1
1044,1044,0.14792226388249452,0.1,0.0,0.0,385.0,998.0,0.0,1,697.0,1
1045,1045,0.11584465541015965,0.1,1.0,1.0,444.0,607.0,1.0,1,1549.0,1
1046,1046,-0.21885985886294235,-0.2,1.0,0.0,411.0,915.0,0.0,0,34.0,1
1047,1047,-0.3785086279826375,-0.4,0.0,1.0,360.0,615.0,1.0,0,415.0,1
1048,1048,-0.1944237258778464,-0.2,1.0,0.0,483.0,668.0,0.0,0,739.0,1
1049,1049,-0.5562762116803119,-0.6,0.0,1.0,329.0,889.0,1.0,0,222.0,1
1050,1050,-0.2576363096938673,-0.3,0.0,1.0,460.0,781.0,1.0,0,499.0,1
1051,1051,0.8909687684262181,0.9,0.0,0.0,440.0,909.0,0.0,1,291.0,1
1052,1052,-0.8669269135345008,-0.9,0.0,1.0,419.0,646.0,1.0,0,335.0,1
1053,1053,-0.3990823642149476,-0.4,1.0,0.0,441.0,821.0,0.0,0,588.0,1
1054,1054,-0.1257188897768039,-0.1,1.0,0.0,439.0,543.0,0.0,0,1668.0,1
1055,1055,0.661994721432413,0.7,0.0,0.0,388.0,736.0,0.0,1,196.0,1
1056,1056,-0.5595245530989688,-0.6,0.0,1.0,333.0,728.0,1.0,0,419.0,1
1057,1057,0.6259768881460172,0.6,0.0,0.0,482.0,694.0,0.0,1,304.0,1
1058,1058,0.12163295027149712,0.1,1.0,1.0,395.0,926.0,1.0,1,349.0,1
1059,1059,-0.28931304160024673,-0.3,0.0,1.0,329.0,869.0,1.0,0,522.0,1
1060,1060,-0.5176896416671803,-0.5,1.0,0.0,416.0,563.0,0.0,0,681.0,1
1061,1061,0.8362494940255197,0.8,0.0,0.0,265.0,740.0,0.0,1,295.0,1
1062,1062,-0.46930518897870527,-0.5,1.0,0.0,258.0,704.0,0.0,0,728.0,1
1063,1063,-0.0016915264660536389,-0.0,1.0,0.0,300.0,584.0,0.0,0,1816.0,1
1064,1064,-0.7865994812138515,-0.8,1.0,0.0,397.0,644.0,0.0,0,259.0,1
1065,1065,-0.3267528973835616,-0.3,0.0,1.0,340.0,513.0,1.0,0,877.0,1
1066,1066,-0.679692000267093,-0.7,1.0,0.0,372.0,977.0,0.0,0,121.0,1
1067,1067,0.6422446463666988,0.6,0.0,0.0,464.0,791.0,0.0,1,455.0,1
1068,1068,0.4270657468574349,0.4,1.0,1.0,409.0,580.0,1.0,1,401.0,1
1069,1069,0.13835099464101142,0.1,0.0,0.0,472.0,508.0,0.0,1,910.0,1
1070,1070,-0.5800524309149966,-0.6,1.0,0.0,261.0,640.0,0.0,0,519.0,1
1071,1071,-0.677810174067726,-0.7,1.0,0.0,285.0,800.0,0.0,0,245.0,1
1072,1072,0.08057077336570095,0.1,0.0,0.0,256.0,595.0,0.0,1,529.0,1
1073,1073,0.2020137258053748,0.2,0.0,0.0,454.0,731.0,0.0,1,2215.0,1
1074,1074,0.7612431793725806,0.8,0.0,0.0,293.0,604.0,0.0,1,353.0,1
1075,1075,-0.745766936226161,-0.7,1.0,0.0,340.0,904.0,0.0,0,256.0,1
1076,1076,0.8005622315587336,0.8,0.0,0.0,419.0,648.0,0.0,1,203.0,1
1077,1077,-0.2954072143520927,-0.3,0.0,1.0,467.0,905.0,1.0,0,408.0,1
1078,1078,0.872883550229873,0.9,0.0,0.0,316.0,593.0,0.0,1,301.0,1
1079,1079,-0.8608220250268649,-0.9,1.0,0.0,488.0,570.0,0.0,0,282.0,1
1080,1080,-0.8740105347127279,-0.9,1.0,0.0,267.0,791.0,0.0,0,282.0,1
1081,1081,0.36694980520184306,0.4,1.0,1.0,462.0,958.0,0.0,0,0.0,0
1082,1082,-0.8559731003991192,-0.9,0.0,1.0,346.0,915.0,1.0,0,209.0,1
1083,1083,0.8941940832803029,0.9,1.0,1.0,423.0,797.0,1.0,1,140.0,1
1084,1084,-0.3786762125698685,-0.4,1.0,0.0,335.0,690.0,0.0,0,375.0,1
1085,1085,-0.8777441952331574,-0.9,1.0,0.0,432.0,562.0,0.0,0,366.0,1
1086,1086,-0.07745677389637717,-0.1,1.0,0.0,331.0,629.0,0.0,0,1260.0,1
1087,1087,0.6756127473362122,0.7,0.0,0.0,493.0,968.0,0.0,1,189.0,1
1088,1088,-0.449935240022792,-0.4,1.0,0.0,465.0,719.0,0.0,0,196.0,1
1089,1089,-0.8908588330842988,-0.9,0.0,1.0,420.0,879.0,1.0,0,151.0,1
1090,1090,-0.6139554209142124,-0.6,1.0,0.0,328.0,990.0,0.0,0,602.0,1
1091,1091,-0.38809977360618264,-0.4,1.0,0.0,290.0,648.0,0.0,0,592.0,1
1092,1092,0.21287947679360297,0.2,1.0,1.0,370.0,826.0,1.0,1,314.0,1
1093,1093,0.33731859720841595,0.3,1.0,1.0,254.0,999.0,1.0,1,377.0,1
1094,1094,0.6899861748799566,0.7,1.0,1.0,372.0,580.0,1.0,1,658.0,1
1095,1095,-0.6999352174579523,-0.7,0.0,1.0,351.0,959.0,1.0,0,290.0,1
1096,1096,-0.3641743182672105,-0.4,0.0,1.0,279.0,552.0,1.0,0,379.0,1
1097,1097,-0.7338294223539923,-0.7,1.0,0.0,258.0,845.0,0.0,0,667.0,1
1098,1098,0.6392815361266887,0.6,1.0,1.0,329.0,558.0,1.0,1,353.0,1
1099,1099,0.35313931363801,0.4,1.0,1.0,479.0,744.0,1.0,1,747.0,1
1100,1100,0.0197073566519268,0.0,0.0,0.0,317.0,699.0,1.0,0,624.0,0
1101,1101,0.09750072828848833,0.1,0.0,0.0,336.0,808.0,0.0,1,936.0,1
1102,1102,0.7027788354247838,0.7,1.0,1.0,391.0,833.0,1.0,1,366.0,1
1103,1103,-0.09427190813315534,-0.1,0.0,1.0,460.0,841.0,1.0,0,149.0,1
1104,1104,-0.5277620680065492,-0.5,0.0,1.0,364.0,943.0,1.0,0,403.0,1
1105,1105,-0.22361291166013608,-0.2,0.0,1.0,282.0,971.0,1.0,0,127.0,1
1106,1106,0.09849298164197651,0.1,1.0,1.0,457.0,665.0,1.0,1,518.0,1
1107,1107,0.47514207596294356,0.5,1.0,1.0,347.0,931.0,1.0,1,282.0,1
1108,1108,0.6357286070381553,0.6,0.0,0.0,385.0,949.0,0.0,1,256.0,1
1109,1109,0.6459410759964902,0.6,1.0,1.0,499.0,889.0,1.0,1,402.0,1
1110,1110,0.4650329404210597,0.5,1.0,1.0,356.0,594.0,1.0,1,760.0,1
1111,1111,0.8468499174670915,0.8,0.0,0.0,279.0,551.0,0.0,1,500.0,1
1112,1112,-0.5335996069017306,-0.5,1.0,0.0,405.0,594.0,0.0,0,831.0,1
1113,1113,-0.020183445292534574,-0.0,0.0,1.0,321.0,896.0,0.0,1,23.0,0
1114,1114,-0.23104080380667658,-0.2,1.0,0.0,333.0,805.0,0.0,0,542.0,1
1115,1115,0.38166749229818986,0.4,1.0,1.0,384.0,787.0,1.0,1,169.0,1
1116,1116,0.0015313928198095184,0.0,1.0,1.0,452.0,615.0,1.0,1,1193.0,1
1117,1117,0.5931631824023648,0.6,0.0,0.0,276.0,592.0,0.0,1,592.0,1
1118,1118,0.03609011428011222,0.0,0.0,0.0,336.0,786.0,0.0,1,978.0,1
1119,1119,-0.6055673054766109,-0.6,0.0,1.0,374.0,796.0,1.0,0,380.0,1
1120,1120,0.8544754051938211,0.9,1.0,1.0,265.0,641.0,1.0,1,244.0,1
1121,1121,-0.32099493919650257,-0.3,0.0,1.0,405.0,541.0,1.0,0,214.0,1
1122,1122,-0.4924167971654995,-0.5,0.0,1.0,389.0,621.0,1.0,0,530.0,1
1123,1123,0.21680107591694642,0.2,1.0,1.0,408.0,504.0,1.0,1,1338.0,1
1124,1124,0.8818812082729567,0.9,0.0,0.0,334.0,787.0,0.0,1,369.0,1
1125,1125,-0.8379845420876604,-0.8,1.0,0.0,346.0,688.0,0.0,0,826.0,1
1126,1126,-0.28829582055740965,-0.3,1.0,0.0,286.0,867.0,0.0,0,1037.0,1
1127,1127,-0.4589218055998927,-0.5,0.0,1.0,379.0,714.0,1.0,0,267.0,1
1128,1128,0.5135071837138986,0.5,1.0,1.0,326.0,950.0,1.0,1,274.0,1
1129,1129,-0.012394340569193307,-0.0,1.0,0.0,296.0,659.0,0.0,0,565.0,1
1130,1130,0.8134930844323213,0.8,1.0,1.0,257.0,851.0,1.0,1,322.0,1
1131,1131,0.6621961873277943,0.7,1.0,1.0,438.0,591.0,1.0,1,851.0,1
1132,1132,0.03873581751902788,0.0,0.0,0.0,259.0,792.0,0.0,1,289.0,1
1133,1133,0.8863977917961529,0.9,0.0,0.0,480.0,801.0,0.0,1,289.0,1
1134,1134,-0.016599257841138915,-0.0,1.0,0.0,275.0,812.0,0.0,0,973.0,1
1135,1135,-0.31708854571346523,-0.3,0.0,1.0,485.0,974.0,1.0,0,71.0,1
1136,1136,-0.1768946208200589,-0.2,0.0,1.0,354.0,986.0,1.0,0,400.0,1
1137,1137,0.043686607257920396,0.0,0.0,0.0,422.0,609.0,1.0,0,539.0,0
1138,1138,0.0764552909511299,0.1,0.0,0.0,440.0,934.0,1.0,0,-54.0,0
1139,1139,0.6244948651819408,0.6,0.0,0.0,473.0,751.0,0.0,1,386.0,1
1140,1140,0.3696966070881046,0.4,0.0,0.0,486.0,822.0,0.0,1,542.0,1
1141,1141,-0.23141166604682673,-0.2,0.0,1.0,382.0,550.0,1.0,0,588.0,1
1142,1142,0.6133616730214532,0.6,0.0,0.0,490.0,589.0,0.0,1,381.0,1
1143,1143,-0.7801417998916484,-0.8,0.0,1.0,455.0,927.0,1.0,0,78.0,1
1144,1144,-0.5109373987552048,-0.5,1.0,0.0,365.0,854.0,0.0,0,611.0,1
1145,1145,-0.5840604575970332,-0.6,0.0,1.0,358.0,688.0,1.0,0,304.0,1
1146,1146,-0.36159271654016434,-0.4,0.0,1.0,326.0,820.0,1.0,0,584.0,1
1147,1147,-0.6122180207764156,-0.6,1.0,0.0,461.0,506.0,0.0,0,443.0,1
1148,1148,-0.8118192595109304,-0.8,1.0,0.0,490.0,570.0,0.0,0,860.0,1
1149,1149,0.7665767251421253,0.8,0.0,0.0,379.0,846.0,0.0,1,555.0,1
1150,1150,-0.8239644125130414,-0.8,0.0,1.0,496.0,777.0,1.0,0,157.0,1
1151,1151,0.06990278403205719,0.1,1.0,1.0,411.0,679.0,1.0,1,2480.0,1
1152,1152,-0.574306161023148,-0.6,0.0,1.0,465.0,823.0,1.0,0,452.0,1
1153,1153,0.20169297870952885,0.2,1.0,1.0,461.0,954.0,1.0,1,855.0,1
1154,1154,0.7327480319282956,0.7,1.0,1.0,256.0,798.0,1.0,1,366.0,1
1155,1155,0.5101349099960734,0.5,0.0,0.0,422.0,748.0,0.0,1,180.0,1
1156,1156,0.4346471799691233,0.4,0.0,0.0,288.0,876.0,0.0,1,236.0,1
1157,1157,-0.7367124708748629,-0.7,0.0,1.0,471.0,730.0,1.0,0,379.0,1
1158,1158,0.05006137819007028,0.1,0.0,0.0,326.0,565.0,1.0,0,829.0,0
1159,1159,0.0057100106853070765,0.0,1.0,1.0,376.0,627.0,1.0,1,3997.0,1
1160,1160,0.8772681144989242,0.9,1.0,1.0,346.0,954.0,1.0,1,70.0,1
1161,1161,0.3198631308189793,0.3,1.0,1.0,262.0,616.0,1.0,1,282.0,1
1162,1162,-0.5540084410718376,-0.6,0.0,1.0,475.0,701.0,1.0,0,194.0,1
1163,1163,-0.7431287461266763,-0.7,1.0,0.0,416.0,874.0,0.0,0,330.0,1
1164,1164,0.5554764335731058,0.6,1.0,1.0,358.0,850.0,1.0,1,232.0,1
1165,1165,-0.503699140513826,-0.5,1.0,0.0,374.0,703.0,0.0,0,1663.0,1
1166,1166,-0.2160122307038307,-0.2,0.0,1.0,319.0,808.0,1.0,0,333.0,1
1167,1167,0.20815459662660596,0.2,0.0,0.0,344.0,617.0,0.0,1,409.0,1
1168,1168,0.24048051537576043,0.2,1.0,1.0,270.0,894.0,1.0,1,2376.0,1
1169,1169,0.40512173988282807,0.4,0.0,0.0,448.0,768.0,0.0,1,94.0,1
1170,1170,-0.7054553394181563,-0.7,1.0,0.0,303.0,708.0,0.0,0,189.0,1
1171,1171,-0.5459790081263463,-0.5,0.0,1.0,388.0,806.0,1.0,0,306.0,1
1172,1172,0.2105370241562271,0.2,0.0,0.0,460.0,559.0,0.0,1,1371.0,1
1173,1173,0.4693129769542773,0.5,1.0,1.0,479.0,565.0,1.0,1,696.0,1
1174,1174,0.5966660096282491,0.6,0.0,0.0,346.0,634.0,0.0,1,400.0,1
1175,1175,0.755213719188694,0.8,1.0,1.0,291.0,744.0,1.0,1,345.0,1
1176,1176,-0.24857114984143758,-0.2,1.0,0.0,259.0,586.0,0.0,0,1255.0,1
1177,1177,0.4910786089102924,0.5,0.0,0.0,469.0,959.0,0.0,1,672.0,1
1178,1178,0.8001023574228038,0.8,0.0,0.0,347.0,999.0,0.0,1,264.0,1
1179,1179,-0.8088860582788967,-0.8,1.0,0.0,394.0,543.0,0.0,0,453.0,1
1180,1180,-0.4331864069050516,-0.4,1.0,0.0,340.0,564.0,0.0,0,726.0,1
1181,1181,0.8939160007297241,0.9,0.0,0.0,361.0,944.0,0.0,1,215.0,1
1182,1182,0.709015240613334,0.7,0.0,0.0,271.0,857.0,0.0,1,522.0,1
1183,1183,-0.8041073042026524,-0.8,1.0,0.0,331.0,595.0,0.0,0,324.0,1
1184,1184,0.6835124230458244,0.7,0.0,0.0,290.0,962.0,0.0,1,238.0,1
1185,1185,0.1945593936546991,0.2,0.0,0.0,390.0,824.0,0.0,1,546.0,1
1186,1186,-0.47964081848745815,-0.5,0.0,1.0,425.0,585.0,1.0,0,350.0,1
1187,1187,0.8567664517162826,0.9,1.0,1.0,355.0,637.0,1.0,1,218.0,1
1188,1188,0.23600068608726088,0.2,0.0,0.0,385.0,926.0,1.0,0,9.0,0
1189,1189,0.22226602594224054,0.2,1.0,1.0,484.0,855.0,1.0,1,331.0,1
1190,1190,-0.37398196164381936,-0.4,1.0,0.0,403.0,737.0,0.0,0,870.0,1
1191,1191,-0.6972767242749471,-0.7,0.0,1.0,464.0,862.0,1.0,0,204.0,1
1192,1192,0.10071223040341637,0.1,1.0,1.0,484.0,713.0,1.0,1,393.0,1
1193,1193,-0.6149033607191488,-0.6,1.0,0.0,390.0,951.0,0.0,0,279.0,1
1194,1194,-0.40383394223552094,-0.4,1.0,0.0,257.0,651.0,0.0,0,302.0,1
1195,1195,-0.46783120550443996,-0.5,1.0,0.0,477.0,521.0,0.0,0,902.0,1
1196,1196,-0.7203104747400737,-0.7,0.0,1.0,463.0,534.0,1.0,0,513.0,1
1197,1197,0.7015868554181738,0.7,1.0,1.0,314.0,732.0,1.0,1,224.0,1
1198,1198,0.6448563462125095,0.6,0.0,0.0,429.0,654.0,0.0,1,517.0,1
1199,1199,0.753776950896966,0.8,1.0,1.0,422.0,747.0,1.0,1,301.0,1
1200,1200,0.2250983520954467,0.2,0.0,0.0,291.0,789.0,0.0,1,310.0,1
1201,1201,-0.031135329452754212,-0.0,1.0,0.0,292.0,790.0,0.0,0,3918.0,1
1202,1202,0.4913573759917166,0.5,0.0,0.0,276.0,917.0,0.0,1,237.0,1
1203,1203,-0.04384348453345677,-0.0,1.0,0.0,497.0,601.0,0.0,0,1192.0,1
1204,1204,-0.26329524829596507,-0.3,1.0,0.0,433.0,904.0,0.0,0,93.0,1
1205,1205,-0.48774420869190843,-0.5,0.0,1.0,421.0,561.0,1.0,0,358.0,1
1206,1206,0.2447798230194328,0.2,0.0,0.0,325.0,549.0,0.0,1,1766.0,1
1207,1207,0.5468285094493245,0.5,1.0,1.0,424.0,606.0,1.0,1,540.0,1
1208,1208,-0.560156901154147,-0.6,0.0,1.0,440.0,798.0,1.0,0,62.0,1
1209,1209,-0.20480036274210967,-0.2,0.0,1.0,445.0,799.0,1.0,0,416.0,1
1210,1210,-0.47611769280129795,-0.5,1.0,0.0,383.0,735.0,0.0,0,412.0,1
1211,1211,0.35069517646852655,0.4,1.0,1.0,328.0,868.0,1.0,1,284.0,1
1212,1212,0.1682011630736947,0.2,0.0,0.0,429.0,758.0,0.0,1,583.0,1
1213,1213,-0.26171341836038164,-0.3,0.0,1.0,294.0,972.0,1.0,0,374.0,1
1214,1214,0.3946707166490958,0.4,1.0,1.0,336.0,935.0,1.0,1,399.0,1
1215,1215,-0.7585769729821676,-0.8,0.0,1.0,454.0,557.0,1.0,0,269.0,1
1216,1216,-0.38343136771590647,-0.4,1.0,0.0,403.0,987.0,0.0,0,400.0,1
1217,1217,0.7212531482948977,0.7,0.0,0.0,263.0,834.0,0.0,1,433.0,1
1218,1218,0.6204952056395342,0.6,0.0,0.0,367.0,724.0,0.0,1,409.0,1
1219,1219,-0.11607747583510797,-0.1,0.0,1.0,487.0,742.0,1.0,0,351.0,1
1220,1220,-0.35739487886289567,-0.4,0.0,1.0,393.0,789.0,1.0,0,218.0,1
1221,1221,-0.6533469323180607,-0.7,0.0,1.0,273.0,702.0,1.0,0,225.0,1
1222,1222,0.8306816280978727,0.8,1.0,1.0,430.0,936.0,1.0,1,384.0,1
1223,1223,-0.3507122126099841,-0.4,1.0,0.0,378.0,863.0,0.0,0,139.0,1
1224,1224,0.5433915356420008,0.5,1.0,1.0,494.0,608.0,1.0,1,528.0,1
1225,1225,-0.4882360770150844,-0.5,0.0,1.0,350.0,795.0,1.0,0,205.0,1
1226,1226,-0.6800436213476037,-0.7,0.0,1.0,479.0,806.0,1.0,0,175.0,1
1227,1227,0.005514185145162553,0.0,1.0,1.0,285.0,607.0,0.0,0,2408.0,0
1228,1228,0.07163791019102683,0.1,1.0,1.0,457.0,622.0,0.0,0,2231.0,0
1229,1229,-0.6583550456658371,-0.7,0.0,1.0,257.0,524.0,1.0,0,339.0,1
1230,1230,0.548550716308415,0.5,1.0,1.0,433.0,671.0,1.0,1,556.0,1
1231,1231,0.861537689796987,0.9,1.0,1.0,338.0,577.0,1.0,1,935.0,1
1232,1232,-0.24831716339930476,-0.2,1.0,0.0,420.0,996.0,0.0,0,434.0,1
1233,1233,-0.8145040931801717,-0.8,0.0,1.0,349.0,970.0,1.0,0,161.0,1
1234,1234,0.35897129602441236,0.4,1.0,1.0,330.0,942.0,1.0,1,298.0,1
1235,1235,-0.6334481000892864,-0.6,1.0,0.0,431.0,796.0,0.0,0,353.0,1
1236,1236,-0.5115275469042251,-0.5,1.0,0.0,349.0,687.0,0.0,0,824.0,1
1237,1237,-0.5246696818981438,-0.5,0.0,1.0,404.0,827.0,1.0,0,299.0,1
1238,1238,0.3855823932293584,0.4,0.0,0.0,361.0,641.0,0.0,1,398.0,1
1239,1239,-0.7768810792016893,-0.8,0.0,1.0,435.0,799.0,1.0,0,136.0,1
1240,1240,-0.2215019464807393,-0.2,1.0,0.0,355.0,946.0,0.0,0,339.0,1
1241,1241,-0.6737952653324567,-0.7,1.0,0.0,304.0,939.0,0.0,0,197.0,1
1242,1242,0.33292240498811154,0.3,0.0,0.0,325.0,832.0,0.0,1,393.0,1
1243,1243,-0.6434873911732424,-0.6,1.0,0.0,450.0,869.0,0.0,0,421.0,1
1244,1244,0.04767000487661288,0.0,0.0,0.0,398.0,900.0,0.0,1,462.0,1
1245,1245,-0.7625550537138954,-0.8,1.0,0.0,381.0,727.0,0.0,0,372.0,1
1246,1246,0.40420920990845677,0.4,1.0,1.0,443.0,708.0,1.0,1,229.0,1
1247,1247,-0.3972115542064306,-0.4,0.0,1.0,453.0,589.0,1.0,0,288.0,1
1248,1248,0.3407866449314215,0.3,1.0,1.0,433.0,758.0,1.0,1,1009.0,1
1249,1249,0.8114201356304912,0.8,1.0,1.0,288.0,607.0,1.0,1,265.0,1
1250,1250,0.37761490406417864,0.4,0.0,0.0,389.0,538.0,0.0,1,363.0,1
1251,1251,0.3362579985666331,0.3,1.0,1.0,274.0,840.0,1.0,1,296.0,1
1252,1252,0.19680983324489032,0.2,1.0,1.0,276.0,952.0,1.0,1,722.0,1
1253,1253,-0.22772974523812428,-0.2,0.0,1.0,312.0,541.0,1.0,0,987.0,1
1254,1254,0.8591588955300348,0.9,1.0,1.0,409.0,854.0,1.0,1,137.0,1
1255,1255,-0.7567216097269501,-0.8,0.0,1.0,450.0,567.0,1.0,0,353.0,1
1256,1256,0.5328576085944446,0.5,0.0,0.0,279.0,561.0,0.0,1,780.0,1
1257,1257,-0.6633841611937437,-0.7,0.0,1.0,371.0,540.0,1.0,0,169.0,1
1258,1258,-0.34633372459696754,-0.3,0.0,1.0,489.0,582.0,1.0,0,1119.0,1
1259,1259,-0.786436434727805,-0.8,1.0,0.0,343.0,871.0,0.0,0,76.0,1
1260,1260,-0.02502416186364076,-0.0,0.0,1.0,378.0,602.0,0.0,1,350.0,0
1261,1261,-0.06753570920096674,-0.1,0.0,1.0,468.0,839.0,1.0,0,1503.0,1
1262,1262,0.07447237429878939,0.1,1.0,1.0,443.0,853.0,1.0,1,794.0,1
1263,1263,0.7875445658080434,0.8,1.0,1.0,309.0,740.0,1.0,1,331.0,1
1264,1264,0.5208429963024869,0.5,0.0,0.0,311.0,750.0,0.0,1,279.0,1
1265,1265,-0.10004785978662867,-0.1,1.0,0.0,381.0,748.0,0.0,0,1111.0,1
1266,1266,-0.5277892033829291,-0.5,0.0,1.0,321.0,775.0,1.0,0,254.0,1
1267,1267,-0.4356651072067811,-0.4,1.0,0.0,344.0,867.0,0.0,0,119.0,1
1268,1268,0.09935116256404586,0.1,0.0,0.0,316.0,553.0,0.0,1,1141.0,1
1269,1269,-0.15776349531880451,-0.2,0.0,1.0,356.0,747.0,1.0,0,197.0,1
1270,1270,-0.4813893981630885,-0.5,1.0,0.0,487.0,971.0,0.0,0,222.0,1
1271,1271,0.3705152692923207,0.4,1.0,1.0,416.0,598.0,1.0,1,516.0,1
1272,1272,0.5490439265683583,0.5,1.0,1.0,388.0,606.0,1.0,1,556.0,1
1273,1273,-0.7164514752298703,-0.7,0.0,1.0,408.0,840.0,1.0,0,192.0,1
1274,1274,-0.06774464569712868,-0.1,0.0,1.0,340.0,636.0,0.0,1,324.0,0
1275,1275,0.24880342762691054,0.2,1.0,1.0,443.0,675.0,1.0,1,742.0,1
1276,1276,-0.4690857038245028,-0.5,0.0,1.0,457.0,642.0,1.0,0,451.0,1
1277,1277,0.24381583181686206,0.2,0.0,0.0,465.0,983.0,0.0,1,332.0,1
1278,1278,0.11108699989734083,0.1,0.0,0.0,382.0,977.0,0.0,1,1231.0,1
1279,1279,-0.43837761819913806,-0.4,1.0,0.0,331.0,714.0,0.0,0,535.0,1
1280,1280,-0.027784073528165365,-0.0,0.0,1.0,490.0,534.0,1.0,0,586.0,1
1281,1281,0.8680096304100992,0.9,0.0,0.0,384.0,875.0,0.0,1,331.0,1
1282,1282,0.2334627943169404,0.2,1.0,1.0,359.0,615.0,1.0,1,1146.0,1
1283,1283,0.008689851610095611,0.0,1.0,1.0,438.0,664.0,0.0,0,738.0,0
1284,1284,0.7106223486176143,0.7,1.0,1.0,426.0,933.0,1.0,1,321.0,1
1285,1285,0.3664390155939924,0.4,0.0,0.0,410.0,775.0,0.0,1,295.0,1
1286,1286,-0.2175241822959637,-0.2,0.0,1.0,453.0,522.0,1.0,0,455.0,1
1287,1287,-0.698341237702067,-0.7,1.0,0.0,390.0,924.0,0.0,0,136.0,1
1288,1288,0.01904950886819823,0.0,1.0,1.0,421.0,787.0,1.0,1,632.0,1
1289,1289,-0.7175219790688,-0.7,1.0,0.0,346.0,524.0,0.0,0,380.0,1
1290,1290,-0.12341389224437238,-0.1,1.0,0.0,425.0,517.0,0.0,0,1518.0,1
1291,1291,0.6592444764087487,0.7,0.0,0.0,442.0,542.0,0.0,1,366.0,1
1292,1292,-0.7910978782408541,-0.8,1.0,0.0,441.0,854.0,0.0,0,255.0,1
1293,1293,0.06508788148465139,0.1,1.0,1.0,391.0,621.0,1.0,1,658.0,1
1294,1294,-0.7437181115222897,-0.7,1.0,0.0,412.0,912.0,0.0,0,456.0,1
1295,1295,-0.7732104216498248,-0.8,0.0,1.0,461.0,773.0,1.0,0,316.0,1
1296,1296,0.35905606840705573,0.4,0.0,0.0,459.0,769.0,0.0,1,372.0,1
1297,1297,-0.6092640286107905,-0.6,0.0,1.0,305.0,735.0,1.0,0,130.0,1
1298,1298,0.027848021174218918,0.0,0.0,0.0,324.0,822.0,1.0,0,204.0,0
1299,1299,-0.8933492040871502,-0.9,1.0,0.0,410.0,610.0,0.0,0,590.0,1
1300,1300,-0.5352138220916707,-0.5,1.0,0.0,379.0,861.0,0.0,0,240.0,1
1301,1301,0.3696771471696739,0.4,0.0,0.0,318.0,796.0,1.0,0,176.0,0
1302,1302,0.16955873850972403,0.2,1.0,1.0,303.0,804.0,1.0,1,553.0,1
1303,1303,-0.14639852668652265,-0.1,0.0,1.0,322.0,980.0,1.0,0,678.0,1
1304,1304,0.1857910144518754,0.2,0.0,0.0,469.0,550.0,0.0,1,761.0,1
1305,1305,-0.21402565991793276,-0.2,1.0,0.0,295.0,979.0,0.0,0,276.0,1
1306,1306,0.8881501326719429,0.9,1.0,1.0,346.0,977.0,1.0,1,137.0,1
1307,1307,0.8925076929128563,0.9,1.0,1.0,463.0,640.0,1.0,1,387.0,1
1308,1308,0.6401589706015419,0.6,1.0,1.0,284.0,773.0,1.0,1,383.0,1
1309,1309,-0.1879583304240513,-0.2,1.0,0.0,489.0,958.0,0.0,0,493.0,1
1310,1310,-0.18852989401769438,-0.2,1.0,0.0,254.0,830.0,0.0,0,1926.0,1
1311,1311,0.611581770326958,0.6,0.0,0.0,474.0,567.0,0.0,1,429.0,1
1312,1312,0.3257773484683214,0.3,0.0,0.0,314.0,564.0,0.0,1,612.0,1
1313,1313,0.3054128305452751,0.3,0.0,0.0,455.0,988.0,0.0,1,1007.0,1
1314,1314,-0.8237794637782431,-0.8,0.0,1.0,262.0,762.0,1.0,0,276.0,1
1315,1315,-0.6740088955478853,-0.7,1.0,0.0,438.0,682.0,0.0,0,310.0,1
1316,1316,-0.20058530893853466,-0.2,0.0,1.0,474.0,777.0,1.0,0,369.0,1
1317,1317,0.3618260619358068,0.4,1.0,1.0,373.0,608.0,1.0,1,269.0,1
1318,1318,0.6978735522111791,0.7,0.0,0.0,307.0,650.0,0.0,1,323.0,1
1319,1319,0.18716363352472476,0.2,0.0,0.0,377.0,543.0,0.0,1,1080.0,1
1320,1320,-0.390839803184055,-0.4,1.0,0.0,367.0,994.0,0.0,0,499.0,1
1321,1321,0.5553561109853881,0.6,1.0,1.0,255.0,914.0,1.0,1,221.0,1
1322,1322,0.6145904206413882,0.6,1.0,1.0,431.0,654.0,1.0,1,295.0,1
1323,1323,0.5464984497722715,0.5,0.0,0.0,431.0,575.0,0.0,1,594.0,1
1324,1324,0.6147094049065319,0.6,1.0,1.0,438.0,900.0,1.0,1,182.0,1
1325,1325,0.4605384327885903,0.5,1.0,1.0,383.0,972.0,1.0,1,905.0,1
1326,1326,-0.8091475766954543,-0.8,1.0,0.0,308.0,693.0,0.0,0,439.0,1
1327,1327,-0.7256109417920013,-0.7,0.0,1.0,356.0,982.0,1.0,0,52.0,1
1328,1328,-0.07514291588051025,-0.1,1.0,0.0,318.0,535.0,0.0,0,837.0,1
1329,1329,0.61680264019484,0.6,1.0,1.0,467.0,621.0,1.0,1,142.0,1
1330,1330,0.6282519479869816,0.6,1.0,1.0,449.0,738.0,1.0,1,343.0,1
1331,1331,-0.7619113345866164,-0.8,1.0,0.0,321.0,738.0,0.0,0,431.0,1
1332,1332,-0.6077774818620725,-0.6,0.0,1.0,329.0,714.0,1.0,0,227.0,1
1333,1333,0.018938653258221305,0.0,1.0,1.0,356.0,871.0,1.0,1,713.0,1
1334,1334,-0.4678930409813408,-0.5,0.0,1.0,444.0,535.0,1.0,0,281.0,1
1335,1335,0.36466721029623195,0.4,1.0,1.0,378.0,556.0,1.0,1,346.0,1
1336,1336,-0.6317446766719657,-0.6,1.0,0.0,421.0,515.0,0.0,0,794.0,1
1337,1337,-0.8621778909035696,-0.9,1.0,0.0,363.0,678.0,0.0,0,369.0,1
1338,1338,0.048260544553273665,0.0,0.0,0.0,408.0,914.0,1.0,0,318.0,0
1339,1339,0.22767598794752486,0.2,0.0,0.0,348.0,728.0,0.0,1,2584.0,1
1340,1340,-0.7022005147113642,-0.7,0.0,1.0,278.0,531.0,1.0,0,401.0,1
1341,1341,0.5500680634057279,0.6,0.0,0.0,419.0,704.0,0.0,1,687.0,1
1342,1342,-0.3248918246172644,-0.3,1.0,0.0,282.0,590.0,0.0,0,938.0,1
1343,1343,0.46547085191643356,0.5,0.0,0.0,332.0,739.0,0.0,1,289.0,1
1344,1344,0.6615441091218991,0.7,1.0,1.0,478.0,719.0,1.0,1,223.0,1
1345,1345,-0.36036890390006115,-0.4,1.0,0.0,491.0,651.0,0.0,0,108.0,1
1346,1346,-0.7101719522837915,-0.7,0.0,1.0,466.0,600.0,1.0,0,254.0,1
1347,1347,-0.5867722539506455,-0.6,0.0,1.0,411.0,627.0,1.0,0,372.0,1
1348,1348,-0.05470131237318698,-0.1,0.0,1.0,276.0,768.0,1.0,0,616.0,1
1349,1349,0.3179760465598144,0.3,0.0,0.0,415.0,666.0,0.0,1,379.0,1
1350,1350,0.8218566923136003,0.8,0.0,0.0,268.0,701.0,0.0,1,521.0,1
1351,1351,0.006294867198782028,0.0,0.0,0.0,411.0,877.0,1.0,0,1162.0,0
1352,1352,-0.7487310217870538,-0.7,1.0,0.0,273.0,698.0,0.0,0,219.0,1
1353,1353,0.16494352626663178,0.2,0.0,0.0,313.0,715.0,0.0,1,902.0,1
1354,1354,0.6450611523603768,0.6,1.0,1.0,291.0,953.0,1.0,1,216.0,1
1355,1355,0.4430157176737338,0.4,0.0,0.0,318.0,587.0,0.0,1,655.0,1
1356,1356,-0.8357309567116551,-0.8,1.0,0.0,425.0,646.0,0.0,0,659.0,1
1357,1357,0.2192930424030647,0.2,1.0,1.0,282.0,739.0,1.0,1,219.0,1
1358,1358,-0.6355101138198926,-0.6,0.0,1.0,283.0,512.0,1.0,0,415.0,1
1359,1359,-0.3712920784232383,-0.4,0.0,1.0,367.0,749.0,1.0,0,254.0,1
1360,1360,-0.8784520836700854,-0.9,0.0,1.0,410.0,859.0,1.0,0,81.0,1
1361,1361,0.5022763284133868,0.5,1.0,1.0,335.0,965.0,1.0,1,620.0,1
1362,1362,-0.8508931397118941,-0.9,0.0,1.0,394.0,600.0,1.0,0,436.0,1
1363,1363,-0.8795553536660569,-0.9,0.0,1.0,483.0,776.0,1.0,0,141.0,1
1364,1364,0.23591063729553718,0.2,1.0,1.0,434.0,604.0,1.0,1,462.0,1
1365,1365,-0.8923820831818203,-0.9,0.0,1.0,488.0,673.0,1.0,0,459.0,1
1366,1366,0.5460299687102385,0.5,0.0,0.0,293.0,587.0,0.0,1,490.0,1
1367,1367,0.5540376295011545,0.6,1.0,1.0,415.0,896.0,1.0,1,269.0,1
1368,1368,-0.327811989761293,-0.3,1.0,0.0,478.0,883.0,0.0,0,229.0,1
1369,1369,-0.1639805047493217,-0.2,0.0,1.0,319.0,979.0,0.0,1,222.0,0
1370,1370,0.7486281389898944,0.7,1.0,1.0,271.0,915.0,1.0,1,294.0,1
1371,1371,0.08043617919782553,0.1,0.0,0.0,434.0,624.0,1.0,0,1152.0,0
1372,1372,0.4681541050843371,0.5,0.0,0.0,340.0,707.0,0.0,1,613.0,1
1373,1373,-0.6416635651198301,-0.6,0.0,1.0,271.0,966.0,1.0,0,243.0,1
1374,1374,0.3538021373277239,0.4,0.0,0.0,485.0,870.0,0.0,1,165.0,1
1375,1375,-0.17307993442011027,-0.2,0.0,1.0,351.0,852.0,1.0,0,497.0,1
1376,1376,-0.4629493859388472,-0.5,0.0,1.0,405.0,590.0,1.0,0,395.0,1
1377,1377,-0.8585501424517831,-0.9,0.0,1.0,457.0,585.0,1.0,0,318.0,1
1378,1378,0.5578385411121566,0.6,1.0,1.0,388.0,720.0,1.0,1,252.0,1
1379,1379,-0.6675102420251686,-0.7,1.0,0.0,284.0,638.0,0.0,0,528.0,1
1380,1380,-0.6266041757312943,-0.6,0.0,1.0,377.0,856.0,1.0,0,207.0,1
1381,1381,-0.04552035992537795,-0.0,0.0,1.0,379.0,720.0,1.0,0,691.0,1
1382,1382,-0.2278254949333418,-0.2,0.0,1.0,315.0,714.0,1.0,0,321.0,1
1383,1383,0.7972408627663666,0.8,0.0,0.0,427.0,969.0,0.0,1,304.0,1
1384,1384,-0.5630573952706324,-0.6,1.0,0.0,463.0,762.0,0.0,0,635.0,1
1385,1385,-0.7076574671260127,-0.7,1.0,0.0,352.0,531.0,0.0,0,497.0,1
1386,1386,-0.2791768650418226,-0.3,1.0,0.0,430.0,758.0,0.0,0,332.0,1
1387,1387,-0.4135222836432421,-0.4,1.0,0.0,444.0,851.0,0.0,0,205.0,1
1388,1388,-0.20515618784626,-0.2,1.0,0.0,332.0,831.0,0.0,0,527.0,1
1389,1389,0.7729962917936816,0.8,1.0,1.0,256.0,631.0,1.0,1,673.0,1
1390,1390,0.3388746462533895,0.3,0.0,0.0,325.0,918.0,1.0,0,367.0,0
1391,1391,0.07399348689300722,0.1,1.0,1.0,397.0,751.0,1.0,1,632.0,1
1392,1392,-0.14083261170137906,-0.1,1.0,0.0,256.0,575.0,0.0,0,659.0,1
1393,1393,0.25443876834565604,0.3,1.0,1.0,370.0,817.0,1.0,1,533.0,1
1394,1394,-0.6472903555420144,-0.6,1.0,0.0,287.0,911.0,0.0,0,422.0,1
1395,1395,-0.411088841068172,-0.4,0.0,1.0,494.0,887.0,1.0,0,269.0,1
1396,1396,0.8562142741352351,0.9,1.0,1.0,439.0,805.0,1.0,1,146.0,1
1397,1397,0.3351716461919688,0.3,0.0,0.0,306.0,884.0,0.0,1,520.0,1
1398,1398,-0.8029392440532944,-0.8,1.0,0.0,271.0,663.0,0.0,0,196.0,1
1399,1399,0.1901282573190487,0.2,1.0,1.0,427.0,954.0,1.0,1,909.0,1
1400,1400,-0.32756039960802874,-0.3,1.0,0.0,482.0,736.0,0.0,0,512.0,1
1401,1401,0.20806356804934178,0.2,0.0,0.0,423.0,645.0,0.0,1,672.0,1
1402,1402,0.1294248944430555,0.1,1.0,1.0,370.0,886.0,1.0,1,354.0,1
1403,1403,0.8534934926141465,0.9,1.0,1.0,285.0,764.0,1.0,1,201.0,1
1404,1404,0.6647604480597354,0.7,0.0,0.0,319.0,710.0,0.0,1,321.0,1
1405,1405,-0.8226899100719399,-0.8,0.0,1.0,411.0,643.0,1.0,0,346.0,1
1406,1406,-0.6477994859468459,-0.6,0.0,1.0,494.0,588.0,1.0,0,248.0,1
1407,1407,-0.028886698520919518,-0.0,0.0,1.0,390.0,776.0,1.0,0,1034.0,1
1408,1408,0.08462755165800817,0.1,0.0,0.0,400.0,531.0,0.0,1,909.0,1
1409,1409,-0.5290982321446975,-0.5,0.0,1.0,452.0,519.0,1.0,0,429.0,1
1410,1410,0.8269797750085756,0.8,0.0,0.0,348.0,685.0,0.0,1,277.0,1
1411,1411,-0.3150338615359245,-0.3,1.0,0.0,407.0,800.0,0.0,0,1043.0,1
1412,1412,-0.8589604020092353,-0.9,0.0,1.0,458.0,885.0,1.0,0,187.0,1
1413,1413,-0.4664951797520524,-0.5,1.0,0.0,461.0,563.0,0.0,0,886.0,1
1414,1414,0.07608359170064471,0.1,1.0,1.0,481.0,755.0,1.0,1,814.0,1
1415,1415,-0.12129852614226688,-0.1,0.0,1.0,467.0,580.0,1.0,0,533.0,1
1416,1416,-0.5727704865908823,-0.6,1.0,0.0,421.0,563.0,0.0,0,406.0,1
1417,1417,0.41670932023742,0.4,1.0,1.0,282.0,527.0,1.0,1,521.0,1
1418,1418,0.3199663723053999,0.3,1.0,1.0,260.0,852.0,1.0,1,218.0,1
1419,1419,0.1785728510749639,0.2,0.0,0.0,432.0,753.0,0.0,1,295.0,1
1420,1420,-0.46312889721921163,-0.5,0.0,1.0,298.0,877.0,1.0,0,125.0,1
1421,1421,0.07764455012388516,0.1,1.0,1.0,372.0,836.0,0.0,0,922.0,0
1422,1422,-0.8483515134623201,-0.8,0.0,1.0,326.0,765.0,1.0,0,119.0,1
1423,1423,-0.7583943675607361,-0.8,1.0,0.0,458.0,970.0,0.0,0,292.0,1
1424,1424,-0.30240582137615724,-0.3,1.0,0.0,468.0,555.0,0.0,0,887.0,1
1425,1425,-0.5728380319520101,-0.6,1.0,0.0,498.0,631.0,0.0,0,441.0,1
1426,1426,-0.08762990002532722,-0.1,1.0,0.0,486.0,919.0,0.0,0,675.0,1
1427,1427,-0.8201170936618264,-0.8,1.0,0.0,256.0,918.0,0.0,0,346.0,1
1428,1428,-0.24453670114524095,-0.2,1.0,0.0,391.0,734.0,0.0,0,515.0,1
1429,1429,0.42985812033086257,0.4,0.0,0.0,279.0,933.0,0.0,1,838.0,1
1430,1430,-0.5045508172099867,-0.5,0.0,1.0,475.0,553.0,1.0,0,182.0,1
1431,1431,-0.5006662503394927,-0.5,0.0,1.0,272.0,585.0,1.0,0,523.0,1
1432,1432,0.08381453934940242,0.1,0.0,0.0,458.0,941.0,0.0,1,71.0,1
1433,1433,-0.25407555064239773,-0.3,0.0,1.0,362.0,901.0,1.0,0,187.0,1
1434,1434,0.1904546894825564,0.2,1.0,1.0,428.0,949.0,0.0,0,43.0,0
1435,1435,-0.19267107245309179,-0.2,0.0,1.0,329.0,673.0,1.0,0,648.0,1
1436,1436,0.2755996891480891,0.3,1.0,1.0,263.0,531.0,1.0,1,846.0,1
1437,1437,-0.7876511973551177,-0.8,0.0,1.0,263.0,930.0,1.0,0,287.0,1
1438,1438,-0.025035480571410362,-0.0,0.0,1.0,316.0,740.0,0.0,1,944.0,0
1439,1439,0.4512846840553414,0.5,0.0,0.0,465.0,872.0,0.0,1,203.0,1
1440,1440,-0.5637568319053589,-0.6,0.0,1.0,490.0,937.0,1.0,0,243.0,1
1441,1441,0.7639011129989698,0.8,0.0,0.0,258.0,538.0,0.0,1,304.0,1
1442,1442,-0.46816319827815717,-0.5,0.0,1.0,278.0,824.0,1.0,0,318.0,1
1443,1443,-0.43191604560933455,-0.4,0.0,1.0,361.0,506.0,1.0,0,513.0,1
1444,1444,-0.6539367945006003,-0.7,0.0,1.0,371.0,766.0,1.0,0,123.0,1
1445,1445,0.23745571428824508,0.2,0.0,0.0,483.0,534.0,0.0,1,483.0,1
1446,1446,0.022197231417299013,0.0,0.0,0.0,429.0,819.0,0.0,1,1532.0,1
1447,1447,-0.7678859712610546,-0.8,0.0,1.0,417.0,856.0,1.0,0,207.0,1
1448,1448,-0.044126071795065225,-0.0,1.0,0.0,351.0,932.0,0.0,0,167.0,1
1449,1449,-0.5807821587584272,-0.6,1.0,0.0,267.0,799.0,0.0,0,494.0,1
1450,1450,-0.49466977388375655,-0.5,1.0,0.0,427.0,776.0,0.0,0,347.0,1
1451,1451,0.879819242286299,0.9,0.0,0.0,351.0,589.0,0.0,1,420.0,1
1452,1452,0.7803697439521832,0.8,0.0,0.0,299.0,570.0,0.0,1,451.0,1
1453,1453,-0.5437999935601703,-0.5,0.0,1.0,307.0,650.0,1.0,0,173.0,1
1454,1454,-0.392852762353309,-0.4,1.0,0.0,456.0,511.0,0.0,0,573.0,1
1455,1455,0.28054334258692293,0.3,0.0,0.0,438.0,683.0,0.0,1,1139.0,1
1456,1456,0.22789694285762352,0.2,1.0,1.0,313.0,664.0,1.0,1,1443.0,1
1457,1457,0.8238059230513436,0.8,1.0,1.0,474.0,782.0,1.0,1,134.0,1
1458,1458,-0.8785238903081263,-0.9,1.0,0.0,433.0,845.0,0.0,0,352.0,1
1459,1459,-0.7596325539655013,-0.8,0.0,1.0,319.0,900.0,1.0,0,141.0,1
1460,1460,0.5879026548802581,0.6,1.0,1.0,497.0,560.0,1.0,1,393.0,1
1461,1461,-0.42373206123902646,-0.4,1.0,0.0,372.0,657.0,0.0,0,941.0,1
1462,1462,-0.8915932676371503,-0.9,1.0,0.0,337.0,615.0,0.0,0,448.0,1
1463,1463,-0.0011607903139029263,-0.0,1.0,0.0,367.0,650.0,1.0,1,2013.0,0
1464,1464,-0.47892786224723166,-0.5,0.0,1.0,333.0,980.0,1.0,0,237.0,1
1465,1465,0.1956137345966461,0.2,0.0,0.0,318.0,674.0,0.0,1,1038.0,1
1466,1466,-0.5484528265960029,-0.5,1.0,0.0,441.0,595.0,0.0,0,484.0,1
1467,1467,-0.5555278152536675,-0.6,1.0,0.0,358.0,594.0,0.0,0,348.0,1
1468,1468,-0.26451854015168363,-0.3,1.0,0.0,471.0,805.0,0.0,0,804.0,1
1469,1469,0.342158301704489,0.3,1.0,1.0,292.0,743.0,1.0,1,745.0,1
1470,1470,-0.6094461096386498,-0.6,0.0,1.0,299.0,648.0,1.0,0,423.0,1
1471,1471,0.32128410969033216,0.3,1.0,1.0,273.0,618.0,1.0,1,439.0,1
1472,1472,-0.713852429653134,-0.7,0.0,1.0,440.0,535.0,1.0,0,485.0,1
1473,1473,-0.8559069602787848,-0.9,1.0,0.0,256.0,824.0,0.0,0,260.0,1
1474,1474,-0.8727484336744303,-0.9,0.0,1.0,387.0,528.0,1.0,0,325.0,1
1475,1475,-0.23691242928174328,-0.2,1.0,0.0,257.0,952.0,0.0,0,411.0,1
1476,1476,-0.23525781375728783,-0.2,1.0,0.0,447.0,837.0,0.0,0,396.0,1
1477,1477,0.8380098079692812,0.8,0.0,0.0,320.0,631.0,0.0,1,329.0,1
1478,1478,-0.49159196017906553,-0.5,0.0,1.0,307.0,882.0,1.0,0,141.0,1
1479,1479,-0.0058623245568876214,-0.0,0.0,1.0,258.0,606.0,1.0,0,736.0,1
1480,1480,0.8416322456420348,0.8,1.0,1.0,462.0,821.0,1.0,1,327.0,1
1481,1481,0.5876250740061767,0.6,1.0,1.0,250.0,834.0,1.0,1,206.0,1
1482,1482,-0.19768149811329927,-0.2,1.0,0.0,377.0,948.0,0.0,0,745.0,1
1483,1483,0.6409363099671447,0.6,0.0,0.0,293.0,984.0,0.0,1,573.0,1
1484,1484,-0.5774500106530058,-0.6,0.0,1.0,291.0,923.0,1.0,0,216.0,1
1485,1485,-0.420594320238173,-0.4,1.0,0.0,381.0,859.0,0.0,0,330.0,1
1486,1486,-0.23057626225901806,-0.2,1.0,0.0,250.0,993.0,0.0,0,1057.0,1
1487,1487,-0.41940796552978393,-0.4,0.0,1.0,276.0,602.0,1.0,0,272.0,1
1488,1488,-0.08527054447095317,-0.1,1.0,0.0,279.0,875.0,0.0,0,186.0,1
1489,1489,-0.3245585731466827,-0.3,1.0,0.0,412.0,636.0,0.0,0,952.0,1
1490,1490,0.09839229245854753,0.1,1.0,1.0,410.0,915.0,1.0,1,1485.0,1
