,trial,coherence,coherence_bin,green_side,correct_side,target_onset,checker_onset,decision,green_decision,decision_time,correct_decision
0,0,-0.2961216497039545,-0.3,1.0,0.0,303.0,896.0,0.0,0,301.0,1
1,1,-0.2765503640973407,-0.3,0.0,1.0,462.0,639.0,1.0,0,439.0,1
2,2,-0.4981954578631544,-0.5,0.0,1.0,345.0,995.0,1.0,0,160.0,1
3,3,0.16943541332813383,0.2,1.0,1.0,435.0,716.0,1.0,1,519.0,1
4,4,-0.8985524662041264,-0.9,1.0,0.0,498.0,941.0,0.0,0,71.0,1
5,5,-0.7207805839207805,-0.7,0.0,1.0,413.0,671.0,1.0,0,276.0,1
6,6,-0.27876453512222865,-0.3,0.0,1.0,364.0,501.0,1.0,0,665.0,1
7,7,0.37999891402896446,0.4,0.0,0.0,352.0,579.0,0.0,1,699.0,1
8,8,-0.1700496534090895,-0.2,0.0,1.0,263.0,505.0,1.0,0,282.0,1
9,9,-0.848180412756565,-0.8,0.0,1.0,313.0,976.0,1.0,0,141.0,1
10,10,-0.7726244598049508,-0.8,0.0,1.0,331.0,761.0,1.0,0,208.0,1
11,11,-0.3232647143963363,-0.3,1.0,0.0,349.0,818.0,0.0,0,493.0,1
12,12,-0.26628199237238936,-0.3,0.0,1.0,398.0,968.0,1.0,0,104.0,1
13,13,-0.34212565351914614,-0.3,0.0,1.0,448.0,529.0,1.0,0,613.0,1
14,14,-0.6684860881723715,-0.7,0.0,1.0,418.0,924.0,1.0,0,228.0,1
15,15,0.38423240014643845,0.4,0.0,0.0,397.0,770.0,0.0,1,563.0,1
16,16,-0.552316018180969,-0.6,1.0,0.0,362.0,701.0,0.0,0,287.0,1
17,17,-0.4090998258169265,-0.4,1.0,0.0,292.0,595.0,0.0,0,453.0,1
18,18,-0.6908165296195411,-0.7,0.0,1.0,273.0,723.0,1.0,0,204.0,1
19,19,-0.149391965501243,-0.1,1.0,0.0,499.0,793.0,0.0,0,508.0,1
20,20,-0.08389369021287407,-0.1,0.0,1.0,406.0,601.0,1.0,0,333.0,1
21,21,-0.7159256986712288,-0.7,0.0,1.0,473.0,850.0,1.0,0,97.0,1
22,22,0.0802191045543369,0.1,0.0,0.0,254.0,983.0,1.0,0,3763.0,0
23,23,0.4670812345678764,0.5,1.0,1.0,338.0,530.0,1.0,1,392.0,1
24,24,-0.08553028553024722,-0.1,1.0,0.0,378.0,750.0,0.0,0,462.0,1
25,25,0.7649858318937984,0.8,0.0,0.0,445.0,958.0,0.0,1,337.0,1
26,26,0.0810131573978008,0.1,0.0,0.0,376.0,624.0,0.0,1,910.0,1
27,27,0.756839302587705,0.8,0.0,0.0,324.0,810.0,0.0,1,256.0,1
28,28,-0.6285676234575626,-0.6,0.0,1.0,358.0,830.0,1.0,0,162.0,1
29,29,0.3200718332658433,0.3,1.0,1.0,350.0,793.0,1.0,1,477.0,1
30,30,0.847676812532617,0.8,0.0,0.0,365.0,619.0,0.0,1,186.0,1
31,31,-0.35168526261848854,-0.4,0.0,1.0,479.0,668.0,1.0,0,353.0,1
32,32,0.1951686214944589,0.2,1.0,1.0,443.0,566.0,1.0,1,1761.0,1
33,33,-0.20636110260412255,-0.2,0.0,1.0,350.0,818.0,1.0,0,152.0,1
34,34,-0.5292396305269068,-0.5,0.0,1.0,427.0,655.0,1.0,0,278.0,1
35,35,0.632740390605547,0.6,0.0,0.0,329.0,637.0,0.0,1,474.0,1
36,36,0.5345295948317662,0.5,0.0,0.0,342.0,503.0,0.0,1,265.0,1
37,37,0.038095319107446235,0.0,0.0,0.0,488.0,712.0,0.0,1,470.0,1
38,38,0.6110225362284997,0.6,1.0,1.0,258.0,704.0,1.0,1,248.0,1
39,39,0.6367945802461278,0.6,0.0,0.0,490.0,519.0,0.0,1,511.0,1
40,40,0.38554947383255456,0.4,1.0,1.0,446.0,543.0,1.0,1,511.0,1
41,41,-0.2224692495773971,-0.2,0.0,1.0,391.0,710.0,1.0,0,509.0,1
42,42,0.29989450471141976,0.3,1.0,1.0,266.0,984.0,1.0,1,160.0,1
43,43,0.1300469948345776,0.1,0.0,0.0,438.0,718.0,0.0,1,634.0,1
44,44,-0.7857431881401403,-0.8,0.0,1.0,290.0,767.0,1.0,0,273.0,1
45,45,0.6250288222956303,0.6,0.0,0.0,434.0,772.0,0.0,1,234.0,1
46,46,0.252499561313137,0.3,0.0,0.0,460.0,524.0,0.0,1,406.0,1
47,47,-0.5926339969048102,-0.6,1.0,0.0,338.0,898.0,0.0,0,124.0,1
48,48,-0.3046595123392575,-0.3,1.0,0.0,385.0,524.0,0.0,0,391.0,1
49,49,0.11439704370758397,0.1,1.0,1.0,407.0,725.0,1.0,1,468.0,1
50,50,0.10517680715652922,0.1,0.0,0.0,443.0,700.0,1.0,0,1507.0,0
51,51,0.789258650558761,0.8,0.0,0.0,431.0,696.0,0.0,1,213.0,1
52,52,-0.21808677639877772,-0.2,0.0,1.0,323.0,750.0,1.0,0,397.0,1
53,53,0.7468364851679202,0.7,1.0,1.0,385.0,553.0,1.0,1,282.0,1
54,54,-0.5951319535711423,-0.6,1.0,0.0,431.0,986.0,0.0,0,233.0,1
55,55,0.6591673064189697,0.7,0.0,0.0,434.0,572.0,0.0,1,134.0,1
56,56,0.8848590051923496,0.9,1.0,1.0,441.0,714.0,1.0,1,195.0,1
57,57,-0.49999182079907767,-0.5,0.0,1.0,289.0,545.0,1.0,0,356.0,1
58,58,0.6910613850141828,0.7,0.0,0.0,288.0,964.0,0.0,1,198.0,1
59,59,0.025478385299219974,0.0,0.0,0.0,320.0,605.0,1.0,0,1185.0,0
60,60,-0.47302926290316344,-0.5,0.0,1.0,458.0,868.0,1.0,0,104.0,1
61,61,0.31749490431861094,0.3,1.0,1.0,256.0,806.0,1.0,1,348.0,1
62,62,-0.26921939547490237,-0.3,0.0,1.0,274.0,588.0,1.0,0,278.0,1
63,63,-0.46120749528194915,-0.5,1.0,0.0,262.0,880.0,0.0,0,178.0,1
64,64,-0.5856915914509973,-0.6,1.0,0.0,393.0,806.0,0.0,0,201.0,1
65,65,-0.027759150522713938,-0.0,1.0,0.0,374.0,838.0,1.0,1,808.0,0
66,66,0.008375810113604554,0.0,1.0,1.0,384.0,772.0,1.0,1,984.0,1
67,67,-0.7630686701453471,-0.8,0.0,1.0,492.0,795.0,1.0,0,233.0,1
68,68,-0.4227900978774008,-0.4,0.0,1.0,284.0,697.0,1.0,0,289.0,1
69,69,-0.16848641356436,-0.2,1.0,0.0,487.0,723.0,0.0,0,1590.0,1
70,70,-0.7399030479636584,-0.7,0.0,1.0,348.0,639.0,1.0,0,253.0,1
71,71,-0.5288517417699886,-0.5,0.0,1.0,469.0,895.0,1.0,0,216.0,1
72,72,0.5905511656405878,0.6,0.0,0.0,346.0,879.0,0.0,1,235.0,1
73,73,0.8188566244149013,0.8,0.0,0.0,439.0,674.0,0.0,1,227.0,1
74,74,-0.2169650695642139,-0.2,0.0,1.0,410.0,735.0,1.0,0,385.0,1
75,75,-0.28297899375904956,-0.3,1.0,0.0,289.0,626.0,0.0,0,865.0,1
76,76,0.40963123507864474,0.4,1.0,1.0,476.0,766.0,1.0,1,248.0,1
77,77,0.00281110988201394,0.0,0.0,0.0,272.0,958.0,1.0,0,390.0,0
78,78,0.7263049274793886,0.7,1.0,1.0,487.0,527.0,1.0,1,1846.0,1
79,79,-0.026265478169116285,-0.0,1.0,0.0,317.0,989.0,0.0,0,844.0,1
80,80,0.5444925898776621,0.5,0.0,0.0,492.0,940.0,0.0,1,188.0,1
81,81,0.29851482413362185,0.3,1.0,1.0,470.0,932.0,1.0,1,198.0,1
82,82,-0.3505112046904877,-0.4,1.0,0.0,453.0,692.0,0.0,0,335.0,1
83,83,-0.05946381728082406,-0.1,0.0,1.0,278.0,897.0,1.0,0,385.0,1
84,84,-0.6598663564395103,-0.7,0.0,1.0,401.0,622.0,1.0,0,357.0,1
85,85,0.8330984056558836,0.8,0.0,0.0,306.0,816.0,0.0,1,338.0,1
86,86,-0.31064820198643117,-0.3,0.0,1.0,264.0,585.0,1.0,0,411.0,1
87,87,0.5377520521228035,0.5,0.0,0.0,288.0,643.0,0.0,1,179.0,1
88,88,-0.04682713773381153,-0.0,0.0,1.0,403.0,546.0,1.0,0,531.0,1
89,89,-0.26921902163294953,-0.3,1.0,0.0,263.0,633.0,0.0,0,834.0,1
90,90,-0.46064839624223425,-0.5,0.0,1.0,443.0,508.0,1.0,0,319.0,1
91,91,0.6823548489761194,0.7,0.0,0.0,385.0,645.0,0.0,1,250.0,1
92,92,-0.7434272680974121,-0.7,1.0,0.0,466.0,974.0,0.0,0,100.0,1
93,93,-0.49576910999444546,-0.5,1.0,0.0,306.0,699.0,0.0,0,425.0,1
94,94,-0.4792413862469092,-0.5,1.0,0.0,421.0,986.0,0.0,0,173.0,1
95,95,-0.23099525144039823,-0.2,0.0,1.0,319.0,990.0,1.0,0,431.0,1
96,96,-0.08394981722080719,-0.1,1.0,0.0,478.0,596.0,1.0,1,1076.0,0
97,97,0.1359547476613051,0.1,1.0,1.0,436.0,758.0,1.0,1,576.0,1
98,98,0.07022404399909399,0.1,1.0,1.0,386.0,699.0,1.0,1,655.0,1
99,99,0.8048602728058073,0.8,0.0,0.0,268.0,783.0,0.0,1,379.0,1
100,100,-0.28136820933831086,-0.3,1.0,0.0,250.0,578.0,0.0,0,312.0,1
101,101,-0.10216029400037863,-0.1,1.0,0.0,412.0,727.0,0.0,0,1121.0,1
102,102,-0.6519770659673338,-0.7,1.0,0.0,298.0,516.0,0.0,0,596.0,1
103,103,0.16369416245725155,0.2,0.0,0.0,449.0,889.0,0.0,1,322.0,1
104,104,0.5465139526390305,0.5,0.0,0.0,406.0,883.0,0.0,1,191.0,1
105,105,-0.7810859925216515,-0.8,1.0,0.0,484.0,949.0,0.0,0,157.0,1
106,106,0.2993696407662815,0.3,1.0,1.0,364.0,887.0,1.0,1,449.0,1
107,107,0.8786295994081247,0.9,1.0,1.0,421.0,866.0,1.0,1,293.0,1
108,108,-0.8282968083223703,-0.8,0.0,1.0,493.0,563.0,1.0,0,154.0,1
109,109,-0.6083798641055124,-0.6,1.0,0.0,460.0,628.0,0.0,0,492.0,1
110,110,0.6017975021142264,0.6,0.0,0.0,269.0,791.0,0.0,1,250.0,1
111,111,-0.8805008918465432,-0.9,0.0,1.0,388.0,713.0,1.0,0,139.0,1
112,112,0.16477314046264613,0.2,1.0,1.0,479.0,605.0,1.0,1,1326.0,1
113,113,-0.679945783684829,-0.7,1.0,0.0,265.0,914.0,0.0,0,141.0,1
114,114,0.7746872576090472,0.8,0.0,0.0,455.0,955.0,0.0,1,210.0,1
115,115,-0.7574841129789808,-0.8,0.0,1.0,343.0,897.0,1.0,0,90.0,1
116,116,0.6523017300063693,0.7,0.0,0.0,481.0,852.0,0.0,1,257.0,1
117,117,0.5298463297121533,0.5,0.0,0.0,341.0,903.0,0.0,1,246.0,1
118,118,0.8747942900607802,0.9,0.0,0.0,471.0,632.0,0.0,1,207.0,1
119,119,-0.31054600830206147,-0.3,1.0,0.0,290.0,982.0,0.0,0,378.0,1
120,120,0.22257639537292284,0.2,1.0,1.0,404.0,858.0,1.0,1,438.0,1
121,121,0.39777773267681094,0.4,0.0,0.0,494.0,946.0,0.0,1,640.0,1
122,122,-0.07652910952481717,-0.1,0.0,1.0,327.0,775.0,1.0,0,358.0,1
123,123,-0.5667981152416415,-0.6,0.0,1.0,424.0,663.0,1.0,0,363.0,1
124,124,-0.007567275352522218,-0.0,1.0,0.0,299.0,690.0,0.0,0,911.0,1
125,125,0.07425517020048611,0.1,0.0,0.0,473.0,648.0,0.0,1,3059.0,1
126,126,-0.3841758419408009,-0.4,0.0,1.0,262.0,695.0,1.0,0,213.0,1
127,127,0.1956787304440163,0.2,1.0,1.0,420.0,703.0,1.0,1,537.0,1
128,128,-0.04008173941015891,-0.0,1.0,0.0,419.0,862.0,1.0,1,749.0,0
129,129,0.42124004238631374,0.4,1.0,1.0,451.0,691.0,1.0,1,408.0,1
130,130,-0.5207626789630188,-0.5,0.0,1.0,296.0,951.0,1.0,0,153.0,1
131,131,0.5347628391449143,0.5,0.0,0.0,415.0,848.0,0.0,1,107.0,1
132,132,0.6778568894155864,0.7,1.0,1.0,427.0,901.0,1.0,1,222.0,1
133,133,0.2906997710813025,0.3,0.0,0.0,441.0,797.0,0.0,1,942.0,1
134,134,-0.29388139840338834,-0.3,1.0,0.0,405.0,771.0,0.0,0,244.0,1
135,135,-0.1624110775614529,-0.2,1.0,0.0,334.0,647.0,0.0,0,369.0,1
136,136,0.04493178301924328,0.0,0.0,0.0,308.0,919.0,0.0,1,1033.0,1
137,137,0.4298145630028799,0.4,1.0,1.0,488.0,952.0,1.0,1,660.0,1
138,138,-0.020790803338270658,-0.0,0.0,1.0,410.0,812.0,1.0,0,1188.0,1
139,139,0.07226523633738391,0.1,1.0,1.0,298.0,857.0,1.0,1,505.0,1
140,140,0.19945539015841562,0.2,0.0,0.0,418.0,917.0,0.0,1,555.0,1
141,141,0.3055366316004403,0.3,0.0,0.0,371.0,885.0,0.0,1,354.0,1
142,142,0.32948802078376416,0.3,1.0,1.0,378.0,978.0,1.0,1,274.0,1
143,143,-0.06154404096090138,-0.1,1.0,0.0,343.0,590.0,0.0,0,747.0,1
144,144,0.1785478545268443,0.2,0.0,0.0,341.0,577.0,0.0,1,1592.0,1
145,145,0.03337989078429615,0.0,0.0,0.0,495.0,786.0,1.0,0,609.0,0
146,146,-0.7122697162291404,-0.7,1.0,0.0,383.0,955.0,0.0,0,312.0,1
147,147,0.1534462513029019,0.2,1.0,1.0,252.0,762.0,1.0,1,526.0,1
148,148,0.7494790663236276,0.7,0.0,0.0,413.0,505.0,0.0,1,582.0,1
149,149,-0.6853066653958931,-0.7,0.0,1.0,333.0,879.0,1.0,0,188.0,1
150,150,0.3911015027368866,0.4,0.0,0.0,311.0,910.0,0.0,1,379.0,1
151,151,0.8666400562271902,0.9,1.0,1.0,301.0,716.0,1.0,1,273.0,1
152,152,-0.35609447848507403,-0.4,0.0,1.0,285.0,936.0,1.0,0,389.0,1
153,153,-0.39665682532068225,-0.4,0.0,1.0,497.0,554.0,1.0,0,509.0,1
154,154,-0.45371332809850634,-0.5,1.0,0.0,349.0,817.0,0.0,0,514.0,1
155,155,0.6132054777434804,0.6,0.0,0.0,417.0,883.0,0.0,1,100.0,1
156,156,0.7889964222402651,0.8,0.0,0.0,395.0,655.0,0.0,1,170.0,1
157,157,0.17386781065420587,0.2,0.0,0.0,261.0,852.0,1.0,0,1457.0,0
158,158,0.031906588411439785,0.0,0.0,0.0,379.0,687.0,0.0,1,3934.0,1
159,159,0.3296961277468341,0.3,0.0,0.0,369.0,986.0,0.0,1,705.0,1
160,160,-0.8220620275328376,-0.8,1.0,0.0,469.0,846.0,0.0,0,175.0,1
161,161,-0.09191437698172988,-0.1,1.0,0.0,367.0,913.0,1.0,1,700.0,0
162,162,-0.3159025554401411,-0.3,0.0,1.0,423.0,933.0,1.0,0,74.0,1
163,163,-0.011695408680320818,-0.0,1.0,0.0,359.0,942.0,1.0,1,1959.0,0
164,164,-0.7005657058584991,-0.7,1.0,0.0,441.0,835.0,0.0,0,54.0,1
165,165,0.6675955783779149,0.7,0.0,0.0,445.0,717.0,0.0,1,478.0,1
166,166,-0.8929136564146082,-0.9,1.0,0.0,293.0,847.0,0.0,0,240.0,1
167,167,-0.19597707361553973,-0.2,1.0,0.0,480.0,670.0,0.0,0,520.0,1
168,168,-0.02810262440609046,-0.0,1.0,0.0,449.0,585.0,1.0,1,676.0,0
169,169,0.2733771473324419,0.3,0.0,0.0,446.0,525.0,0.0,1,1429.0,1
170,170,0.4850417634267724,0.5,0.0,0.0,336.0,747.0,0.0,1,317.0,1
171,171,-0.023637704510010682,-0.0,1.0,0.0,265.0,522.0,0.0,0,4213.0,1
172,172,-0.4939124985941277,-0.5,0.0,1.0,402.0,758.0,1.0,0,320.0,1
173,173,-0.7179547852021572,-0.7,0.0,1.0,360.0,750.0,1.0,0,260.0,1
174,174,-0.6614505750342272,-0.7,1.0,0.0,406.0,619.0,0.0,0,335.0,1
175,175,0.4225209301208478,0.4,0.0,0.0,388.0,746.0,0.0,1,746.0,1
176,176,0.5528492140908788,0.6,1.0,1.0,355.0,522.0,1.0,1,593.0,1
177,177,-0.5567883000895897,-0.6,1.0,0.0,484.0,584.0,0.0,0,392.0,1
178,178,-0.019614549593830688,-0.0,1.0,0.0,287.0,938.0,1.0,1,1115.0,0
179,179,0.8300869313070639,0.8,1.0,1.0,286.0,920.0,1.0,1,194.0,1
180,180,-0.7486258463830932,-0.7,0.0,1.0,279.0,867.0,1.0,0,514.0,1
181,181,-0.3784597671534501,-0.4,1.0,0.0,281.0,720.0,0.0,0,399.0,1
182,182,0.715394590102081,0.7,0.0,0.0,327.0,510.0,0.0,1,383.0,1
183,183,0.2043361232447959,0.2,1.0,1.0,307.0,983.0,1.0,1,50.0,1
184,184,0.7865348554244845,0.8,1.0,1.0,457.0,573.0,1.0,1,540.0,1
185,185,0.25532048039407906,0.3,1.0,1.0,418.0,583.0,1.0,1,279.0,1
186,186,-0.8806428477036964,-0.9,0.0,1.0,383.0,958.0,1.0,0,189.0,1
187,187,-0.5714223092405606,-0.6,0.0,1.0,312.0,754.0,1.0,0,164.0,1
188,188,-0.8517802729800908,-0.9,0.0,1.0,426.0,662.0,1.0,0,322.0,1
189,189,0.13320594612592018,0.1,0.0,0.0,487.0,724.0,0.0,1,1599.0,1
190,190,0.6606735722975671,0.7,0.0,0.0,284.0,684.0,0.0,1,222.0,1
191,191,0.8726286929578247,0.9,0.0,0.0,433.0,616.0,0.0,1,371.0,1
192,192,-0.5777398225469869,-0.6,1.0,0.0,406.0,595.0,0.0,0,459.0,1
193,193,0.29513928696370384,0.3,1.0,1.0,426.0,821.0,1.0,1,413.0,1
194,194,-0.27832091747640963,-0.3,1.0,0.0,369.0,663.0,0.0,0,328.0,1
195,195,-0.5231839439863732,-0.5,0.0,1.0,363.0,940.0,1.0,0,87.0,1
196,196,0.8277425485689361,0.8,1.0,1.0,311.0,931.0,1.0,1,158.0,1
197,197,-0.5626394005489653,-0.6,0.0,1.0,315.0,864.0,1.0,0,251.0,1
198,198,-0.5263204247087465,-0.5,0.0,1.0,465.0,727.0,1.0,0,288.0,1
199,199,0.5551542061341382,0.6,0.0,0.0,449.0,549.0,0.0,1,862.0,1
200,200,-0.27550881457753496,-0.3,0.0,1.0,410.0,756.0,1.0,0,234.0,1
201,201,-0.0681284590875576,-0.1,1.0,0.0,318.0,792.0,0.0,0,940.0,1
202,202,-0.7358432836511022,-0.7,0.0,1.0,329.0,964.0,1.0,0,167.0,1
203,203,0.8816391591079248,0.9,1.0,1.0,366.0,508.0,1.0,1,476.0,1
204,204,-0.3368155136717894,-0.3,0.0,1.0,497.0,681.0,1.0,0,562.0,1
205,205,0.11766267680811626,0.1,0.0,0.0,451.0,568.0,0.0,1,821.0,1
206,206,-0.465136455290183,-0.5,0.0,1.0,304.0,620.0,1.0,0,206.0,1
207,207,-0.25944440877890396,-0.3,0.0,1.0,435.0,900.0,1.0,0,385.0,1
208,208,-0.8139842453687811,-0.8,1.0,0.0,423.0,909.0,0.0,0,228.0,1
209,209,0.4942193506818139,0.5,1.0,1.0,282.0,960.0,1.0,1,268.0,1
210,210,0.4392263250182805,0.4,0.0,0.0,261.0,530.0,0.0,1,399.0,1
211,211,0.6569898087407277,0.7,1.0,1.0,377.0,703.0,1.0,1,230.0,1
212,212,0.6793389492592764,0.7,0.0,0.0,409.0,691.0,0.0,1,320.0,1
213,213,-0.6028530134054702,-0.6,0.0,1.0,265.0,799.0,1.0,0,446.0,1
214,214,0.4727787926565822,0.5,1.0,1.0,451.0,748.0,1.0,1,351.0,1
215,215,0.3777736992666093,0.4,0.0,0.0,416.0,651.0,0.0,1,363.0,1
216,216,0.6326897211434267,0.6,0.0,0.0,396.0,985.0,0.0,1,169.0,1
217,217,0.8311341255030401,0.8,1.0,1.0,332.0,981.0,1.0,1,67.0,1
218,218,0.6641173406951358,0.7,0.0,0.0,345.0,912.0,0.0,1,163.0,1
219,219,-0.23220108049126265,-0.2,0.0,1.0,472.0,616.0,1.0,0,772.0,1
220,220,-0.7138812847981124,-0.7,1.0,0.0,258.0,595.0,0.0,0,407.0,1
221,221,-0.5102411147066779,-0.5,1.0,0.0,482.0,946.0,0.0,0,282.0,1
222,222,-0.42842922788222626,-0.4,1.0,0.0,332.0,902.0,0.0,0,506.0,1
223,223,0.22602425481249433,0.2,0.0,0.0,425.0,747.0,0.0,1,208.0,1
224,224,-0.1379993744877982,-0.1,1.0,0.0,340.0,679.0,0.0,0,811.0,1
225,225,-0.5010083523279996,-0.5,0.0,1.0,322.0,606.0,1.0,0,272.0,1
226,226,0.7626347725884509,0.8,0.0,0.0,366.0,907.0,0.0,1,827.0,1
227,227,-0.877620241495133,-0.9,1.0,0.0,301.0,903.0,0.0,0,86.0,1
228,228,-0.07484336091094779,-0.1,1.0,0.0,414.0,576.0,0.0,0,450.0,1
229,229,0.6954897875568503,0.7,1.0,1.0,380.0,765.0,1.0,1,235.0,1
230,230,0.3240978590045417,0.3,0.0,0.0,261.0,572.0,0.0,1,337.0,1
231,231,0.5595409749460346,0.6,0.0,0.0,446.0,877.0,0.0,1,427.0,1
232,232,0.7117878665485081,0.7,0.0,0.0,352.0,940.0,0.0,1,268.0,1
233,233,0.7834126997565115,0.8,0.0,0.0,416.0,826.0,0.0,1,108.0,1
234,234,0.8728576650788292,0.9,0.0,0.0,417.0,762.0,0.0,1,471.0,1
235,235,0.3791598786475511,0.4,0.0,0.0,358.0,568.0,0.0,1,564.0,1
236,236,0.8974441838073727,0.9,0.0,0.0,386.0,584.0,0.0,1,250.0,1
237,237,-0.011083070948973761,-0.0,0.0,1.0,443.0,759.0,1.0,0,608.0,1
238,238,0.5121282138044124,0.5,0.0,0.0,355.0,851.0,0.0,1,334.0,1
239,239,-0.3853471523037657,-0.4,0.0,1.0,439.0,518.0,1.0,0,333.0,1
240,240,-0.7519524799932701,-0.8,1.0,0.0,331.0,623.0,0.0,0,396.0,1
241,241,-0.49729876836065323,-0.5,1.0,0.0,257.0,946.0,0.0,0,177.0,1
242,242,0.34962792144057075,0.3,0.0,0.0,465.0,544.0,0.0,1,591.0,1
243,243,-0.8401855546492014,-0.8,0.0,1.0,338.0,583.0,1.0,0,189.0,1
244,244,-0.29452550781038433,-0.3,0.0,1.0,301.0,602.0,1.0,0,427.0,1
245,245,-0.6470312880172083,-0.6,0.0,1.0,259.0,709.0,1.0,0,382.0,1
246,246,0.3174536956328383,0.3,1.0,1.0,496.0,853.0,1.0,1,431.0,1
247,247,0.19134872405758652,0.2,1.0,1.0,268.0,678.0,1.0,1,344.0,1
248,248,0.3660668009193503,0.4,0.0,0.0,253.0,878.0,0.0,1,199.0,1
249,249,-0.16403506583768523,-0.2,1.0,0.0,420.0,950.0,0.0,0,160.0,1
250,250,-0.05644802499979018,-0.1,1.0,0.0,398.0,738.0,0.0,0,484.0,1
251,251,-0.17951695852269145,-0.2,0.0,1.0,327.0,792.0,1.0,0,861.0,1
252,252,0.4052900057724703,0.4,1.0,1.0,460.0,540.0,1.0,1,390.0,1
253,253,0.08084913489006995,0.1,0.0,0.0,271.0,840.0,1.0,0,289.0,0
254,254,0.7305427987193448,0.7,0.0,0.0,271.0,897.0,0.0,1,432.0,1
255,255,-0.4952746319820661,-0.5,0.0,1.0,330.0,981.0,1.0,0,109.0,1
256,256,0.6910086071556113,0.7,1.0,1.0,387.0,985.0,1.0,1,28.0,1
257,257,-0.8086855577446742,-0.8,1.0,0.0,414.0,893.0,0.0,0,93.0,1
258,258,-0.5417736683966332,-0.5,0.0,1.0,408.0,616.0,1.0,0,426.0,1
259,259,-0.8521742582341855,-0.9,1.0,0.0,365.0,926.0,0.0,0,219.0,1
260,260,0.32363884240996266,0.3,1.0,1.0,392.0,802.0,1.0,1,376.0,1
261,261,-0.7869417361630545,-0.8,1.0,0.0,265.0,526.0,0.0,0,359.0,1
262,262,-0.27995580257874775,-0.3,1.0,0.0,407.0,732.0,0.0,0,161.0,1
263,263,0.7910508543270777,0.8,1.0,1.0,308.0,509.0,1.0,1,493.0,1
264,264,-0.3488690807491861,-0.3,1.0,0.0,407.0,642.0,0.0,0,251.0,1
265,265,-0.352506506283388,-0.4,1.0,0.0,370.0,957.0,0.0,0,243.0,1
266,266,0.6697997031584372,0.7,0.0,0.0,374.0,978.0,0.0,1,418.0,1
267,267,-0.0769143829464155,-0.1,1.0,0.0,359.0,901.0,0.0,0,950.0,1
268,268,0.40313801120913373,0.4,1.0,1.0,444.0,702.0,1.0,1,894.0,1
269,269,-0.5177072845462121,-0.5,1.0,0.0,301.0,705.0,0.0,0,214.0,1
270,270,0.8267752630985089,0.8,1.0,1.0,328.0,916.0,1.0,1,86.0,1
271,271,0.8057380912365569,0.8,1.0,1.0,291.0,726.0,1.0,1,293.0,1
272,272,-0.6506168344329465,-0.7,0.0,1.0,390.0,757.0,1.0,0,263.0,1
273,273,0.8727096231766319,0.9,0.0,0.0,341.0,553.0,0.0,1,246.0,1
274,274,-0.4829705438186023,-0.5,1.0,0.0,269.0,847.0,0.0,0,284.0,1
275,275,-0.7344785113722453,-0.7,0.0,1.0,440.0,998.0,1.0,0,152.0,1
276,276,0.8955056085252048,0.9,0.0,0.0,302.0,845.0,0.0,1,203.0,1
277,277,0.1870342294912296,0.2,0.0,0.0,264.0,881.0,0.0,1,1875.0,1
278,278,0.33332274454275745,0.3,0.0,0.0,431.0,940.0,0.0,1,199.0,1
279,279,-0.6308772108659524,-0.6,0.0,1.0,358.0,900.0,1.0,0,312.0,1
280,280,-0.37879487252391586,-0.4,1.0,0.0,475.0,985.0,0.0,0,280.0,1
281,281,0.12919432143320442,0.1,1.0,1.0,471.0,999.0,1.0,1,180.0,1
282,282,-0.17738116826128747,-0.2,1.0,0.0,425.0,731.0,0.0,0,644.0,1
283,283,-0.1145339473996716,-0.1,1.0,0.0,404.0,939.0,1.0,1,377.0,0
284,284,0.23807231629210268,0.2,0.0,0.0,294.0,604.0,0.0,1,432.0,1
285,285,-0.1580095289378043,-0.2,0.0,1.0,250.0,834.0,1.0,0,406.0,1
286,286,0.2078208856799394,0.2,0.0,0.0,440.0,858.0,0.0,1,382.0,1
287,287,0.008331339046370845,0.0,0.0,0.0,299.0,978.0,0.0,1,393.0,1
288,288,0.4591154897086426,0.5,0.0,0.0,271.0,970.0,0.0,1,339.0,1
289,289,-0.1436195825429447,-0.1,0.0,1.0,442.0,972.0,1.0,0,26.0,1
290,290,0.13819697219977678,0.1,0.0,0.0,338.0,723.0,0.0,1,539.0,1
291,291,-0.3175959395165596,-0.3,1.0,0.0,470.0,941.0,0.0,0,269.0,1
292,292,0.020777008726292512,0.0,0.0,0.0,441.0,886.0,0.0,1,1483.0,1
293,293,0.5883710008645281,0.6,1.0,1.0,489.0,656.0,1.0,1,415.0,1
294,294,-0.010750715592549254,-0.0,0.0,1.0,467.0,591.0,1.0,0,1812.0,1
295,295,0.6304600129509973,0.6,1.0,1.0,379.0,557.0,1.0,1,524.0,1
296,296,0.17629983057272047,0.2,0.0,0.0,416.0,674.0,0.0,1,1280.0,1
297,297,-0.7149018670279149,-0.7,0.0,1.0,260.0,950.0,1.0,0,170.0,1
298,298,0.8296598823227458,0.8,0.0,0.0,459.0,567.0,0.0,1,374.0,1
299,299,0.8355279539435664,0.8,0.0,0.0,313.0,689.0,0.0,1,348.0,1
300,300,0.6096430516662629,0.6,1.0,1.0,447.0,847.0,1.0,1,136.0,1
301,301,-0.3041925194991377,-0.3,1.0,0.0,488.0,805.0,0.0,0,287.0,1
302,302,-0.3715765412250246,-0.4,0.0,1.0,418.0,633.0,1.0,0,429.0,1
303,303,0.35457296792614634,0.4,1.0,1.0,480.0,722.0,1.0,1,738.0,1
304,304,-0.16725036908534063,-0.2,1.0,0.0,476.0,781.0,0.0,0,373.0,1
305,305,0.7104622822392564,0.7,0.0,0.0,345.0,718.0,0.0,1,147.0,1
306,306,-0.09361300290864127,-0.1,1.0,0.0,264.0,753.0,0.0,0,1813.0,1
307,307,0.6519597735681605,0.7,1.0,1.0,264.0,801.0,1.0,1,585.0,1
308,308,0.6176239252458454,0.6,1.0,1.0,284.0,812.0,1.0,1,364.0,1
309,309,-0.8278498420938916,-0.8,0.0,1.0,329.0,949.0,1.0,0,252.0,1
310,310,0.4325654958151851,0.4,1.0,1.0,348.0,602.0,1.0,1,430.0,1
311,311,0.4378894141982669,0.4,1.0,1.0,262.0,779.0,1.0,1,249.0,1
312,312,0.2902962418781848,0.3,0.0,0.0,299.0,831.0,0.0,1,230.0,1
313,313,0.6849201096668739,0.7,1.0,1.0,416.0,571.0,1.0,1,283.0,1
314,314,0.2954075955329972,0.3,1.0,1.0,389.0,590.0,1.0,1,781.0,1
315,315,-0.14645193692860947,-0.1,1.0,0.0,398.0,601.0,0.0,0,1031.0,1
316,316,0.263300595959972,0.3,1.0,1.0,260.0,644.0,1.0,1,596.0,1
317,317,0.7665248574950899,0.8,0.0,0.0,422.0,607.0,0.0,1,211.0,1
318,318,0.608709887765459,0.6,0.0,0.0,394.0,604.0,0.0,1,202.0,1
319,319,0.7296810413441436,0.7,0.0,0.0,294.0,898.0,0.0,1,408.0,1
320,320,0.46982532513148934,0.5,0.0,0.0,445.0,817.0,0.0,1,188.0,1
321,321,0.8556209033419496,0.9,0.0,0.0,440.0,643.0,0.0,1,307.0,1
322,322,-0.6810773065891119,-0.7,0.0,1.0,367.0,562.0,1.0,0,301.0,1
323,323,0.3512748943585716,0.4,0.0,0.0,391.0,533.0,0.0,1,456.0,1
324,324,-0.7689108461610821,-0.8,0.0,1.0,309.0,685.0,1.0,0,386.0,1
325,325,-0.8168402208927467,-0.8,0.0,1.0,343.0,966.0,1.0,0,121.0,1
326,326,-0.8044581192538036,-0.8,0.0,1.0,413.0,650.0,1.0,0,257.0,1
327,327,0.1092570569058181,0.1,0.0,0.0,498.0,672.0,0.0,1,1100.0,1
328,328,0.2383979030940505,0.2,0.0,0.0,438.0,879.0,0.0,1,93.0,1
329,329,-0.7057371234615721,-0.7,0.0,1.0,369.0,521.0,1.0,0,480.0,1
330,330,0.812057286535469,0.8,1.0,1.0,271.0,532.0,1.0,1,617.0,1
331,331,0.8516869033752353,0.9,1.0,1.0,392.0,726.0,1.0,1,262.0,1
332,332,-0.13493753298483557,-0.1,0.0,1.0,434.0,523.0,1.0,0,733.0,1
333,333,-0.623280302475744,-0.6,0.0,1.0,471.0,974.0,1.0,0,195.0,1
334,334,-0.6535716669017873,-0.7,1.0,0.0,498.0,659.0,0.0,0,393.0,1
335,335,-0.7875704295313586,-0.8,1.0,0.0,258.0,596.0,0.0,0,186.0,1
336,336,0.5893677151028448,0.6,1.0,1.0,332.0,887.0,1.0,1,961.0,1
337,337,-0.5731299083103205,-0.6,0.0,1.0,426.0,506.0,1.0,0,278.0,1
338,338,-0.696108124338421,-0.7,1.0,0.0,494.0,621.0,0.0,0,125.0,1
339,339,0.04382071386420361,0.0,0.0,0.0,315.0,780.0,1.0,0,1215.0,0
340,340,-0.6716162836684869,-0.7,1.0,0.0,483.0,667.0,0.0,0,260.0,1
341,341,-0.5954094287452019,-0.6,1.0,0.0,321.0,899.0,0.0,0,180.0,1
342,342,-0.2991425938688256,-0.3,1.0,0.0,311.0,896.0,0.0,0,243.0,1
343,343,0.20465635608570365,0.2,1.0,1.0,407.0,678.0,1.0,1,435.0,1
344,344,-0.45088008142205366,-0.5,1.0,0.0,404.0,699.0,0.0,0,247.0,1
345,345,0.12171384683223307,0.1,0.0,0.0,482.0,733.0,0.0,1,965.0,1
346,346,0.4788749447452484,0.5,1.0,1.0,452.0,518.0,1.0,1,550.0,1
347,347,0.056693464884841505,0.1,0.0,0.0,315.0,790.0,0.0,1,1595.0,1
348,348,-0.42659392382572564,-0.4,0.0,1.0,392.0,600.0,1.0,0,298.0,1
349,349,0.5824960020730942,0.6,0.0,0.0,264.0,935.0,0.0,1,141.0,1
350,350,-0.7499756002678861,-0.7,0.0,1.0,464.0,816.0,1.0,0,110.0,1
351,351,-0.5743045194650446,-0.6,0.0,1.0,251.0,632.0,1.0,0,177.0,1
352,352,0.545895374176565,0.5,0.0,0.0,486.0,822.0,0.0,1,92.0,1
353,353,0.5193704517044649,0.5,1.0,1.0,426.0,950.0,1.0,1,124.0,1
354,354,-0.7819566160057083,-0.8,0.0,1.0,277.0,921.0,1.0,0,52.0,1
355,355,0.5034796612678417,0.5,1.0,1.0,399.0,833.0,1.0,1,328.0,1
356,356,-0.6148027811991548,-0.6,0.0,1.0,494.0,638.0,1.0,0,328.0,1
357,357,0.3958688795795654,0.4,1.0,1.0,413.0,740.0,1.0,1,457.0,1
358,358,-0.3004142061065527,-0.3,0.0,1.0,393.0,602.0,1.0,0,455.0,1
359,359,-0.05052881829386913,-0.1,0.0,1.0,351.0,801.0,1.0,0,1228.0,1
360,360,-0.05204189935387782,-0.1,1.0,0.0,458.0,855.0,1.0,1,677.0,0
361,361,-0.7620513410369888,-0.8,0.0,1.0,449.0,750.0,1.0,0,321.0,1
362,362,-0.6423784046680612,-0.6,0.0,1.0,288.0,952.0,1.0,0,200.0,1
363,363,0.37378630765730214,0.4,1.0,1.0,288.0,836.0,1.0,1,356.0,1
364,364,0.7236596201652824,0.7,0.0,0.0,481.0,668.0,0.0,1,251.0,1
365,365,0.09314611185214983,0.1,0.0,0.0,393.0,675.0,0.0,1,3052.0,1
366,366,0.8869530014325128,0.9,1.0,1.0,296.0,967.0,1.0,1,177.0,1
367,367,0.5878940393324216,0.6,0.0,0.0,470.0,966.0,1.0,0,-86.0,0
368,368,-0.8663362068631523,-0.9,0.0,1.0,286.0,936.0,1.0,0,448.0,1
369,369,0.31070552049723654,0.3,1.0,1.0,258.0,776.0,1.0,1,426.0,1
370,370,-0.8064456746678828,-0.8,1.0,0.0,456.0,639.0,0.0,0,475.0,1
371,371,-0.8413168984991327,-0.8,1.0,0.0,389.0,630.0,0.0,0,231.0,1
372,372,0.11066272740039673,0.1,1.0,1.0,486.0,755.0,1.0,1,889.0,1
373,373,0.8058101367424081,0.8,0.0,0.0,416.0,996.0,0.0,1,238.0,1
374,374,0.6416125137650869,0.6,0.0,0.0,484.0,760.0,0.0,1,306.0,1
375,375,0.00010063863510323401,0.0,1.0,1.0,287.0,977.0,1.0,1,716.0,1
376,376,0.3763004041824497,0.4,0.0,0.0,407.0,613.0,0.0,1,540.0,1
377,377,-0.7055721562952778,-0.7,0.0,1.0,376.0,616.0,1.0,0,458.0,1
378,378,-0.7063295445848684,-0.7,1.0,0.0,304.0,628.0,0.0,0,608.0,1
379,379,0.6938448072677511,0.7,0.0,0.0,334.0,688.0,0.0,1,178.0,1
380,380,-0.03510753815677614,-0.0,1.0,0.0,343.0,868.0,1.0,1,579.0,0
381,381,0.7890142346931298,0.8,0.0,0.0,380.0,787.0,0.0,1,323.0,1
382,382,0.15730829550737224,0.2,0.0,0.0,276.0,599.0,0.0,1,3555.0,1
383,383,-0.6395036987859146,-0.6,1.0,0.0,293.0,631.0,0.0,0,396.0,1
384,384,0.6009682881779702,0.6,1.0,1.0,264.0,797.0,1.0,1,169.0,1
385,385,-0.5833119450401707,-0.6,1.0,0.0,300.0,765.0,0.0,0,245.0,1
386,386,-0.12508312877729855,-0.1,1.0,0.0,400.0,939.0,1.0,1,951.0,0
387,387,0.4411528611278078,0.4,1.0,1.0,365.0,875.0,1.0,1,250.0,1
388,388,0.7795370839932673,0.8,1.0,1.0,298.0,933.0,1.0,1,219.0,1
389,389,-0.212141008401029,-0.2,0.0,1.0,306.0,610.0,1.0,0,384.0,1
390,390,0.6635626172339854,0.7,0.0,0.0,257.0,824.0,0.0,1,309.0,1
391,391,0.26490096241838545,0.3,1.0,1.0,362.0,578.0,1.0,1,530.0,1
392,392,0.12383220566194264,0.1,0.0,0.0,271.0,933.0,0.0,1,-84.0,1
393,393,0.4482154093864975,0.4,1.0,1.0,327.0,600.0,1.0,1,503.0,1
394,394,0.23512108778825114,0.2,1.0,1.0,320.0,572.0,1.0,1,628.0,1
395,395,0.026540004350721347,0.0,1.0,1.0,385.0,902.0,1.0,1,603.0,1
396,396,-0.11323801731583638,-0.1,1.0,0.0,454.0,852.0,1.0,1,484.0,0
397,397,0.37132046431279464,0.4,0.0,0.0,378.0,708.0,0.0,1,294.0,1
398,398,-0.36565219153132855,-0.4,1.0,0.0,454.0,795.0,0.0,0,541.0,1
399,399,-0.09036059896707116,-0.1,0.0,1.0,481.0,861.0,1.0,0,-72.0,1
400,400,0.4063751269956427,0.4,1.0,1.0,348.0,636.0,1.0,1,456.0,1
401,401,0.19100326348244334,0.2,1.0,1.0,414.0,987.0,1.0,1,269.0,1
402,402,0.8513793880942141,0.9,1.0,1.0,250.0,900.0,1.0,1,140.0,1
403,403,0.879912821520905,0.9,1.0,1.0,278.0,874.0,1.0,1,558.0,1
404,404,-0.5055343902483089,-0.5,0.0,1.0,416.0,697.0,1.0,0,207.0,1
405,405,0.4784789360187204,0.5,0.0,0.0,356.0,651.0,0.0,1,163.0,1
406,406,-0.2624081951055586,-0.3,1.0,0.0,287.0,916.0,0.0,0,597.0,1
407,407,0.5528788274709083,0.6,1.0,1.0,460.0,962.0,1.0,1,338.0,1
408,408,0.1718116504307995,0.2,1.0,1.0,254.0,792.0,1.0,1,554.0,1
409,409,0.568136743188112,0.6,1.0,1.0,463.0,610.0,1.0,1,457.0,1
410,410,-0.18684257948398542,-0.2,1.0,0.0,302.0,523.0,0.0,0,725.0,1
411,411,-0.7013248874485283,-0.7,1.0,0.0,436.0,736.0,0.0,0,268.0,1
412,412,0.03590236741017183,0.0,1.0,1.0,312.0,889.0,1.0,1,1189.0,1
413,413,-0.5047803936318689,-0.5,0.0,1.0,303.0,752.0,1.0,0,135.0,1
414,414,0.8598304446329125,0.9,1.0,1.0,393.0,702.0,1.0,1,245.0,1
415,415,-0.8856306986208802,-0.9,0.0,1.0,420.0,892.0,1.0,0,538.0,1
416,416,-0.22835551188117142,-0.2,0.0,1.0,480.0,660.0,1.0,0,560.0,1
417,417,-0.7296660905014082,-0.7,0.0,1.0,341.0,619.0,1.0,0,240.0,1
418,418,-0.19848235449166773,-0.2,1.0,0.0,277.0,776.0,0.0,0,847.0,1
419,419,0.35680378780269384,0.4,0.0,0.0,414.0,855.0,0.0,1,611.0,1
420,420,-0.5546239053473365,-0.6,1.0,0.0,382.0,939.0,0.0,0,199.0,1
421,421,-0.3878959385807458,-0.4,1.0,0.0,486.0,951.0,0.0,0,243.0,1
422,422,-0.7777523270743297,-0.8,0.0,1.0,352.0,539.0,1.0,0,309.0,1
423,423,0.7148530143654165,0.7,0.0,0.0,282.0,635.0,0.0,1,493.0,1
424,424,-0.5176244646486068,-0.5,0.0,1.0,288.0,647.0,1.0,0,315.0,1
425,425,-0.6933343495517466,-0.7,1.0,0.0,304.0,565.0,0.0,0,371.0,1
426,426,0.16874866644198339,0.2,0.0,0.0,298.0,798.0,0.0,1,284.0,1
427,427,0.4083111804054401,0.4,1.0,1.0,392.0,691.0,1.0,1,1017.0,1
428,428,-0.21055905456417467,-0.2,1.0,0.0,342.0,669.0,0.0,0,819.0,1
429,429,-0.3002996305355239,-0.3,1.0,0.0,250.0,589.0,0.0,0,701.0,1
430,430,-0.5041954124060233,-0.5,1.0,0.0,433.0,531.0,0.0,0,296.0,1
431,431,0.19873721171894376,0.2,0.0,0.0,373.0,666.0,0.0,1,2321.0,1
432,432,0.5555774083909873,0.6,1.0,1.0,273.0,889.0,1.0,1,398.0,1
433,433,-0.7888420093549371,-0.8,0.0,1.0,298.0,662.0,1.0,0,220.0,1
434,434,-0.34809876582727783,-0.3,0.0,1.0,328.0,946.0,1.0,0,126.0,1
435,435,-0.02633063218460574,-0.0,0.0,1.0,449.0,918.0,1.0,0,1563.0,1
436,436,0.24648499685119762,0.2,1.0,1.0,433.0,750.0,1.0,1,707.0,1
437,437,0.41343679307557724,0.4,0.0,0.0,270.0,977.0,0.0,1,353.0,1
438,438,-0.24528882953372888,-0.2,1.0,0.0,257.0,574.0,0.0,0,529.0,1
439,439,-0.4673974067528147,-0.5,0.0,1.0,323.0,682.0,1.0,0,385.0,1
440,440,-0.04749790749946681,-0.0,0.0,1.0,495.0,653.0,0.0,1,872.0,0
441,441,-0.275882228431913,-0.3,1.0,0.0,253.0,770.0,0.0,0,607.0,1
442,442,-0.4053297662250803,-0.4,0.0,1.0,260.0,636.0,1.0,0,284.0,1
443,443,0.38032601897575147,0.4,1.0,1.0,461.0,507.0,1.0,1,492.0,1
444,444,0.8225294240915261,0.8,0.0,0.0,426.0,579.0,0.0,1,345.0,1
445,445,0.8356273522707766,0.8,1.0,1.0,276.0,617.0,1.0,1,287.0,1
446,446,-0.520842200914782,-0.5,0.0,1.0,465.0,680.0,1.0,0,335.0,1
447,447,0.1677784674482926,0.2,1.0,1.0,381.0,696.0,1.0,1,433.0,1
448,448,0.18063587903353884,0.2,1.0,1.0,380.0,712.0,1.0,1,378.0,1
449,449,-0.011090529973607488,-0.0,0.0,1.0,448.0,599.0,1.0,0,783.0,1
450,450,0.5782311683196922,0.6,1.0,1.0,414.0,898.0,1.0,1,148.0,1
451,451,0.2618483676034319,0.3,1.0,1.0,342.0,645.0,1.0,1,393.0,1
452,452,0.537518065078164,0.5,0.0,0.0,341.0,704.0,0.0,1,725.0,1
453,453,0.8890122124100116,0.9,1.0,1.0,350.0,996.0,1.0,1,214.0,1
454,454,0.5672753958218987,0.6,1.0,1.0,339.0,956.0,1.0,1,135.0,1
455,455,-0.5211439850257418,-0.5,0.0,1.0,384.0,863.0,1.0,0,43.0,1
456,456,0.07135215577538256,0.1,1.0,1.0,292.0,874.0,1.0,1,714.0,1
457,457,0.2982791297561528,0.3,1.0,1.0,287.0,640.0,1.0,1,643.0,1
458,458,0.012583668998840003,0.0,1.0,1.0,324.0,892.0,1.0,1,294.0,1
459,459,-0.6927688216518882,-0.7,0.0,1.0,367.0,921.0,1.0,0,142.0,1
460,460,0.5578691220478104,0.6,0.0,0.0,436.0,973.0,0.0,1,151.0,1
461,461,0.8320999085237751,0.8,1.0,1.0,471.0,963.0,1.0,1,286.0,1
462,462,0.8791181641953881,0.9,0.0,0.0,278.0,779.0,0.0,1,203.0,1
463,463,0.754482722573461,0.8,0.0,0.0,317.0,735.0,0.0,1,48.0,1
464,464,-0.04350154398505279,-0.0,1.0,0.0,284.0,717.0,1.0,1,1069.0,0
465,465,-0.5725238117831557,-0.6,1.0,0.0,250.0,950.0,0.0,0,140.0,1
466,466,-0.48293946835813084,-0.5,1.0,0.0,422.0,861.0,0.0,0,307.0,1
467,467,0.144506022500979,0.1,1.0,1.0,258.0,771.0,1.0,1,401.0,1
468,468,-0.09249934905993007,-0.1,0.0,1.0,372.0,910.0,1.0,0,458.0,1
469,469,-0.6433996613635842,-0.6,0.0,1.0,421.0,597.0,1.0,0,302.0,1
470,470,-0.28472618591703114,-0.3,1.0,0.0,459.0,950.0,0.0,0,121.0,1
471,471,0.4967795845413455,0.5,1.0,1.0,350.0,891.0,1.0,1,279.0,1
472,472,0.31404275324182673,0.3,0.0,0.0,331.0,817.0,0.0,1,932.0,1
473,473,-0.23925950713470912,-0.2,1.0,0.0,434.0,577.0,0.0,0,699.0,1
474,474,0.47352114653780764,0.5,0.0,0.0,427.0,791.0,0.0,1,812.0,1
475,475,-0.6676084838046401,-0.7,0.0,1.0,385.0,587.0,1.0,0,228.0,1
476,476,0.2997070127711098,0.3,1.0,1.0,435.0,579.0,1.0,1,796.0,1
477,477,-0.21307827649677413,-0.2,1.0,0.0,336.0,979.0,0.0,0,225.0,1
478,478,0.03024831056612909,0.0,1.0,1.0,298.0,661.0,1.0,1,651.0,1
479,479,-0.5937791621798845,-0.6,1.0,0.0,469.0,710.0,0.0,0,351.0,1
480,480,-0.7003157593332593,-0.7,1.0,0.0,461.0,837.0,0.0,0,242.0,1
481,481,-0.32384396287404615,-0.3,0.0,1.0,417.0,616.0,1.0,0,407.0,1
482,482,0.831426364382062,0.8,1.0,1.0,380.0,728.0,1.0,1,1142.0,1
483,483,-0.1955427336565424,-0.2,0.0,1.0,373.0,742.0,1.0,0,935.0,1
484,484,-0.13497552557061177,-0.1,0.0,1.0,474.0,690.0,1.0,0,796.0,1
485,485,-0.6891787903148933,-0.7,1.0,0.0,258.0,538.0,0.0,0,254.0,1
486,486,-0.31687585869053925,-0.3,1.0,0.0,351.0,911.0,0.0,0,378.0,1
487,487,0.08506883976475133,0.1,0.0,0.0,475.0,980.0,1.0,0,-15.0,0
488,488,0.5321638596384083,0.5,0.0,0.0,305.0,959.0,1.0,0,-114.0,0
489,489,-0.7281320947890656,-0.7,0.0,1.0,271.0,865.0,1.0,0,214.0,1
490,490,0.7877815347498901,0.8,1.0,1.0,489.0,582.0,1.0,1,429.0,1
491,491,0.34020367868222035,0.3,0.0,0.0,369.0,598.0,0.0,1,603.0,1
492,492,-0.2907617877434234,-0.3,1.0,0.0,418.0,604.0,0.0,0,828.0,1
493,493,0.8972222332830709,0.9,1.0,1.0,468.0,569.0,1.0,1,253.0,1
494,494,-0.7631614593776159,-0.8,0.0,1.0,457.0,997.0,1.0,0,156.0,1
495,495,-0.009969549322005888,-0.0,0.0,1.0,286.0,695.0,1.0,0,949.0,1
496,496,-0.12076506961817746,-0.1,0.0,1.0,467.0,801.0,1.0,0,322.0,1
497,497,0.7609568673892718,0.8,0.0,0.0,455.0,801.0,0.0,1,74.0,1
498,498,-0.40970568004052993,-0.4,1.0,0.0,454.0,671.0,0.0,0,395.0,1
499,499,0.43405749081859046,0.4,1.0,1.0,271.0,989.0,1.0,1,240.0,1
500,500,-0.28609052571652327,-0.3,0.0,1.0,280.0,632.0,1.0,0,398.0,1
501,501,-0.33398244779549846,-0.3,1.0,0.0,440.0,843.0,0.0,0,597.0,1
502,502,-0.7948121961883903,-0.8,1.0,0.0,341.0,589.0,0.0,0,320.0,1
503,503,-0.09163217005271407,-0.1,1.0,0.0,378.0,522.0,0.0,0,2330.0,1
504,504,-0.5867132671907842,-0.6,0.0,1.0,354.0,590.0,1.0,0,256.0,1
505,505,0.34208175252174267,0.3,0.0,0.0,484.0,507.0,0.0,1,759.0,1
506,506,-0.48979869470037757,-0.5,1.0,0.0,337.0,807.0,0.0,0,396.0,1
507,507,-0.5285517121927339,-0.5,1.0,0.0,463.0,557.0,0.0,0,380.0,1
508,508,-0.20077927427683329,-0.2,0.0,1.0,355.0,867.0,1.0,0,348.0,1
509,509,-0.6298169421604178,-0.6,1.0,0.0,474.0,701.0,0.0,0,245.0,1
510,510,0.8097864489192276,0.8,1.0,1.0,391.0,771.0,1.0,1,178.0,1
511,511,-0.3511157882170529,-0.4,1.0,0.0,250.0,803.0,0.0,0,257.0,1
512,512,-0.36061725545302825,-0.4,0.0,1.0,326.0,501.0,1.0,0,523.0,1
513,513,-0.10764525362551558,-0.1,0.0,1.0,417.0,663.0,1.0,0,480.0,1
514,514,-0.5215275765766922,-0.5,1.0,0.0,274.0,661.0,0.0,0,395.0,1
515,515,-0.2782628096679842,-0.3,0.0,1.0,287.0,634.0,1.0,0,249.0,1
516,516,0.8157908674906499,0.8,1.0,1.0,374.0,855.0,1.0,1,201.0,1
517,517,0.49988692721942474,0.5,0.0,0.0,340.0,925.0,0.0,1,225.0,1
518,518,0.8719599225288096,0.9,1.0,1.0,255.0,747.0,1.0,1,378.0,1
519,519,0.8506860702483731,0.9,0.0,0.0,427.0,922.0,0.0,1,151.0,1
520,520,0.4538063082811109,0.5,1.0,1.0,331.0,770.0,1.0,1,329.0,1
521,521,-0.3568208219672835,-0.4,1.0,0.0,258.0,510.0,0.0,0,532.0,1
522,522,0.33562806809453216,0.3,1.0,1.0,336.0,936.0,1.0,1,458.0,1
523,523,-0.8627894775496975,-0.9,0.0,1.0,295.0,525.0,1.0,0,350.0,1
524,524,0.2952402003558886,0.3,1.0,1.0,268.0,610.0,1.0,1,612.0,1
525,525,0.28002120605558567,0.3,1.0,1.0,321.0,963.0,1.0,1,276.0,1
526,526,0.2090348005992554,0.2,1.0,1.0,252.0,860.0,1.0,1,1098.0,1
527,527,-0.5953131079810576,-0.6,0.0,1.0,394.0,639.0,1.0,0,167.0,1
528,528,-0.24303961255285556,-0.2,0.0,1.0,344.0,611.0,1.0,0,405.0,1
529,529,-0.5606288632873944,-0.6,0.0,1.0,441.0,708.0,1.0,0,241.0,1
530,530,0.8676999724266067,0.9,0.0,0.0,381.0,743.0,0.0,1,226.0,1
531,531,-0.19563273121077773,-0.2,0.0,1.0,347.0,867.0,1.0,0,16.0,1
532,532,-0.20182790941782147,-0.2,0.0,1.0,411.0,944.0,1.0,0,115.0,1
533,533,-0.5521812038502445,-0.6,1.0,0.0,470.0,814.0,0.0,0,176.0,1
534,534,0.45175107934607495,0.5,0.0,0.0,471.0,543.0,0.0,1,476.0,1
535,535,-0.6723551337099121,-0.7,0.0,1.0,344.0,999.0,1.0,0,337.0,1
536,536,-0.5859527740754047,-0.6,1.0,0.0,398.0,606.0,0.0,0,266.0,1
537,537,-0.8426334339322809,-0.8,1.0,0.0,422.0,720.0,0.0,0,218.0,1
538,538,0.2067376169468066,0.2,1.0,1.0,290.0,715.0,1.0,1,485.0,1
539,539,0.06624090419164985,0.1,0.0,0.0,261.0,846.0,1.0,0,523.0,0
540,540,0.7764303536079057,0.8,0.0,0.0,492.0,768.0,0.0,1,220.0,1
541,541,-0.5875423359778296,-0.6,0.0,1.0,471.0,863.0,1.0,0,226.0,1
542,542,-0.3259119813701463,-0.3,0.0,1.0,395.0,932.0,1.0,0,543.0,1
543,543,-0.4367391484356498,-0.4,1.0,0.0,408.0,717.0,0.0,0,285.0,1
544,544,-0.6504814150627554,-0.7,0.0,1.0,325.0,649.0,1.0,0,336.0,1
545,545,-0.8708682793824332,-0.9,1.0,0.0,386.0,680.0,0.0,0,204.0,1
546,546,-0.8431810074869971,-0.8,1.0,0.0,452.0,591.0,0.0,0,227.0,1
547,547,-0.8009251354153244,-0.8,1.0,0.0,420.0,760.0,0.0,0,190.0,1
548,548,0.04703657434690878,0.0,1.0,1.0,256.0,803.0,1.0,1,341.0,1
549,549,-0.7133205199881412,-0.7,1.0,0.0,442.0,636.0,0.0,0,342.0,1
550,550,-0.5372424370511788,-0.5,0.0,1.0,398.0,970.0,1.0,0,22.0,1
551,551,0.13506134001129333,0.1,0.0,0.0,453.0,692.0,0.0,1,2255.0,1
552,552,-0.07207747554711208,-0.1,1.0,0.0,420.0,646.0,1.0,1,2824.0,0
553,553,-0.7505609804167763,-0.8,1.0,0.0,439.0,942.0,0.0,0,139.0,1
554,554,0.2832646412005052,0.3,0.0,0.0,367.0,920.0,0.0,1,273.0,1
555,555,0.061088699014123504,0.1,1.0,1.0,449.0,887.0,1.0,1,714.0,1
556,556,-0.05998196637356379,-0.1,0.0,1.0,330.0,840.0,0.0,1,180.0,0
557,557,-0.0007152655318803935,-0.0,0.0,1.0,432.0,802.0,1.0,0,1016.0,1
558,558,-0.6667342775134116,-0.7,0.0,1.0,408.0,820.0,1.0,0,132.0,1
559,559,-0.579876515613038,-0.6,1.0,0.0,411.0,521.0,0.0,0,528.0,1
560,560,0.73770657125611,0.7,1.0,1.0,272.0,693.0,1.0,1,385.0,1
561,561,-0.7092837781852346,-0.7,1.0,0.0,339.0,930.0,0.0,0,131.0,1
562,562,-0.3284501009235762,-0.3,1.0,0.0,379.0,679.0,0.0,0,382.0,1
563,563,0.3695784401396537,0.4,0.0,0.0,356.0,819.0,0.0,1,385.0,1
564,564,-0.3237998249700984,-0.3,0.0,1.0,259.0,873.0,1.0,0,158.0,1
565,565,-0.7714209115586258,-0.8,0.0,1.0,489.0,673.0,1.0,0,248.0,1
566,566,-0.8871112821573568,-0.9,1.0,0.0,440.0,524.0,0.0,0,306.0,1
567,567,0.5092065308175976,0.5,1.0,1.0,368.0,816.0,1.0,1,196.0,1
568,568,0.7702920278462809,0.8,0.0,0.0,452.0,552.0,0.0,1,416.0,1
569,569,-0.7216213587517238,-0.7,0.0,1.0,382.0,872.0,1.0,0,246.0,1
570,570,0.81280909579378,0.8,0.0,0.0,432.0,787.0,0.0,1,91.0,1
571,571,-0.3271089906011452,-0.3,0.0,1.0,348.0,701.0,1.0,0,471.0,1
572,572,0.2264182096365549,0.2,0.0,0.0,410.0,767.0,0.0,1,493.0,1
573,573,0.30735787222270694,0.3,0.0,0.0,376.0,584.0,0.0,1,640.0,1
574,574,-0.7832898015946582,-0.8,1.0,0.0,320.0,609.0,0.0,0,151.0,1
575,575,0.19789347324282358,0.2,0.0,0.0,270.0,505.0,0.0,1,1065.0,1
576,576,0.8999802414707431,0.9,1.0,1.0,292.0,905.0,1.0,1,103.0,1
577,577,0.30101787074683195,0.3,1.0,1.0,466.0,951.0,1.0,1,213.0,1
578,578,-0.7590828087686233,-0.8,1.0,0.0,452.0,984.0,0.0,0,264.0,1
579,579,0.32065984308279616,0.3,0.0,0.0,277.0,852.0,0.0,1,561.0,1
580,580,0.8549218534702593,0.9,0.0,0.0,461.0,575.0,0.0,1,274.0,1
581,581,0.3450580550706789,0.3,1.0,1.0,368.0,922.0,1.0,1,280.0,1
582,582,-0.07451171969323289,-0.1,0.0,1.0,390.0,769.0,1.0,0,911.0,1
583,583,-0.7883938089813928,-0.8,1.0,0.0,443.0,880.0,0.0,0,127.0,1
584,584,-0.14290557205392762,-0.1,1.0,0.0,399.0,727.0,0.0,0,574.0,1
585,585,-0.10823267092161293,-0.1,1.0,0.0,261.0,732.0,0.0,0,717.0,1
586,586,0.22229694546331003,0.2,0.0,0.0,262.0,612.0,0.0,1,276.0,1
587,587,0.3631882603814355,0.4,0.0,0.0,384.0,592.0,0.0,1,524.0,1
588,588,0.5862316929615708,0.6,0.0,0.0,401.0,552.0,0.0,1,587.0,1
589,589,0.029293601877261044,0.0,0.0,0.0,256.0,630.0,0.0,1,3504.0,1
590,590,0.12399186064172285,0.1,1.0,1.0,475.0,596.0,1.0,1,339.0,1
591,591,0.6518480510148329,0.7,1.0,1.0,398.0,894.0,1.0,1,248.0,1
592,592,-0.8128986177386016,-0.8,1.0,0.0,318.0,810.0,0.0,0,242.0,1
593,593,0.0009199933382401104,0.0,0.0,0.0,367.0,850.0,1.0,0,1163.0,0
594,594,0.1597837395613798,0.2,1.0,1.0,469.0,717.0,1.0,1,484.0,1
595,595,-0.29371237428527086,-0.3,1.0,0.0,393.0,835.0,0.0,0,282.0,1
596,596,-0.6843196103568372,-0.7,0.0,1.0,355.0,603.0,1.0,0,292.0,1
597,597,0.41564372440176023,0.4,1.0,1.0,465.0,743.0,1.0,1,622.0,1
598,598,0.14907133397872585,0.1,0.0,0.0,430.0,965.0,0.0,1,315.0,1
599,599,0.7329403324018237,0.7,0.0,0.0,328.0,529.0,0.0,1,493.0,1
600,600,0.24146145027197397,0.2,0.0,0.0,300.0,664.0,0.0,1,306.0,1
601,601,0.09389919956114723,0.1,0.0,0.0,432.0,584.0,0.0,1,2154.0,1
602,602,-0.6695104178379373,-0.7,1.0,0.0,318.0,789.0,0.0,0,193.0,1
603,603,-0.6864862267091386,-0.7,1.0,0.0,457.0,617.0,0.0,0,326.0,1
604,604,-0.27351641425287987,-0.3,1.0,0.0,262.0,781.0,0.0,0,587.0,1
605,605,-0.3895815129045934,-0.4,1.0,0.0,397.0,855.0,0.0,0,308.0,1
606,606,0.5994475114711802,0.6,1.0,1.0,469.0,600.0,1.0,1,401.0,1
607,607,0.6041590223184298,0.6,1.0,1.0,334.0,926.0,1.0,1,150.0,1
608,608,-0.326696866391619,-0.3,1.0,0.0,308.0,750.0,0.0,0,302.0,1
609,609,-0.4188410005885425,-0.4,0.0,1.0,452.0,649.0,1.0,0,249.0,1
610,610,-0.1192588891554518,-0.1,0.0,1.0,326.0,668.0,1.0,0,346.0,1
611,611,-0.23959998335630828,-0.2,1.0,0.0,454.0,545.0,0.0,0,461.0,1
612,612,-0.5530600140630906,-0.6,0.0,1.0,487.0,660.0,1.0,0,273.0,1
613,613,-0.7704845806625856,-0.8,1.0,0.0,283.0,989.0,0.0,0,178.0,1
614,614,-0.35588638012913454,-0.4,1.0,0.0,304.0,985.0,0.0,0,231.0,1
615,615,0.07807564595203553,0.1,1.0,1.0,314.0,575.0,1.0,1,921.0,1
616,616,0.6412091451735061,0.6,0.0,0.0,378.0,583.0,0.0,1,599.0,1
617,617,-0.500867266582953,-0.5,0.0,1.0,415.0,515.0,1.0,0,280.0,1
618,618,0.16735790347235968,0.2,0.0,0.0,475.0,890.0,0.0,1,775.0,1
619,619,0.2649199084902153,0.3,1.0,1.0,373.0,959.0,1.0,1,338.0,1
620,620,-0.24239691380275175,-0.2,0.0,1.0,274.0,870.0,1.0,0,246.0,1
621,621,0.2883645675663856,0.3,1.0,1.0,465.0,735.0,1.0,1,310.0,1
622,622,-0.06472610331582362,-0.1,0.0,1.0,388.0,752.0,1.0,0,440.0,1
623,623,-0.5561416676091329,-0.6,1.0,0.0,378.0,778.0,0.0,0,214.0,1
624,624,0.8548197243651697,0.9,1.0,1.0,395.0,884.0,1.0,1,71.0,1
625,625,-0.6059933516420724,-0.6,1.0,0.0,260.0,766.0,0.0,0,264.0,1
626,626,0.15566042557938797,0.2,0.0,0.0,354.0,726.0,0.0,1,1010.0,1
627,627,-0.09358795153083177,-0.1,1.0,0.0,369.0,936.0,1.0,1,435.0,0
628,628,-0.08452473378041037,-0.1,1.0,0.0,475.0,790.0,0.0,0,2375.0,1
629,629,-0.03252204965302108,-0.0,1.0,0.0,345.0,809.0,1.0,1,386.0,0
630,630,0.3813552209566139,0.4,0.0,0.0,388.0,582.0,0.0,1,480.0,1
631,631,-0.5593638666523097,-0.6,1.0,0.0,272.0,593.0,0.0,0,405.0,1
632,632,-0.843685310400563,-0.8,0.0,1.0,420.0,565.0,1.0,0,215.0,1
633,633,0.12022546388510025,0.1,1.0,1.0,360.0,550.0,1.0,1,1100.0,1
634,634,0.26818792740892883,0.3,1.0,1.0,389.0,694.0,1.0,1,377.0,1
635,635,-0.6764505982066176,-0.7,0.0,1.0,354.0,890.0,1.0,0,616.0,1
636,636,-0.47366481159475377,-0.5,0.0,1.0,318.0,641.0,1.0,0,531.0,1
637,637,-0.24092891993380938,-0.2,0.0,1.0,289.0,858.0,1.0,0,133.0,1
638,638,-0.6632294448849637,-0.7,1.0,0.0,296.0,527.0,0.0,0,577.0,1
639,639,0.859684457347809,0.9,0.0,0.0,463.0,583.0,0.0,1,674.0,1
640,640,0.8946394671503085,0.9,0.0,0.0,382.0,941.0,0.0,1,247.0,1
641,641,0.13074791486735682,0.1,0.0,0.0,344.0,753.0,0.0,1,433.0,1
642,642,0.5645489119199315,0.6,1.0,1.0,459.0,923.0,1.0,1,338.0,1
643,643,-0.5151403898076561,-0.5,1.0,0.0,463.0,740.0,0.0,0,347.0,1
644,644,-0.06008960450096701,-0.1,1.0,0.0,410.0,789.0,1.0,1,791.0,0
645,645,0.8448143918345928,0.8,0.0,0.0,334.0,505.0,0.0,1,301.0,1
646,646,0.4653649374857124,0.5,0.0,0.0,440.0,827.0,0.0,1,313.0,1
647,647,0.8838759735556393,0.9,1.0,1.0,421.0,822.0,1.0,1,257.0,1
648,648,-0.8410774879482421,-0.8,1.0,0.0,444.0,814.0,0.0,0,102.0,1
649,649,-0.7408078422501255,-0.7,0.0,1.0,412.0,573.0,1.0,0,185.0,1
650,650,-0.24344300275020503,-0.2,0.0,1.0,323.0,524.0,1.0,0,733.0,1
651,651,-0.025448410679355993,-0.0,0.0,1.0,404.0,729.0,1.0,0,647.0,1
652,652,-0.13083905939374174,-0.1,1.0,0.0,480.0,554.0,0.0,0,596.0,1
653,653,-0.8209319809961722,-0.8,0.0,1.0,403.0,543.0,1.0,0,434.0,1
654,654,0.6244662027570337,0.6,0.0,0.0,261.0,740.0,0.0,1,339.0,1
655,655,0.2906438816030311,0.3,0.0,0.0,443.0,620.0,0.0,1,697.0,1
656,656,-0.6821767104580948,-0.7,0.0,1.0,492.0,873.0,1.0,0,175.0,1
657,657,0.16570402160681896,0.2,0.0,0.0,447.0,945.0,0.0,1,298.0,1
658,658,-0.8999470899244437,-0.9,0.0,1.0,480.0,701.0,1.0,0,249.0,1
659,659,-0.3202237633391104,-0.3,1.0,0.0,438.0,730.0,0.0,0,492.0,1
660,660,-0.10961840040466708,-0.1,0.0,1.0,467.0,862.0,1.0,0,731.0,1
661,661,0.026742700300445565,0.0,0.0,0.0,454.0,798.0,1.0,0,2418.0,0
662,662,-0.7985335350872039,-0.8,0.0,1.0,420.0,594.0,1.0,0,426.0,1
663,663,0.7603040303427614,0.8,1.0,1.0,389.0,964.0,1.0,1,167.0,1
664,664,0.8662214193594983,0.9,1.0,1.0,455.0,927.0,1.0,1,158.0,1
665,665,0.7539176446811254,0.8,1.0,1.0,330.0,891.0,1.0,1,349.0,1
666,666,-0.1924193978388301,-0.2,0.0,1.0,322.0,592.0,1.0,0,336.0,1
667,667,-0.2586695633707706,-0.3,1.0,0.0,285.0,659.0,0.0,0,756.0,1
668,668,0.33132345519354567,0.3,0.0,0.0,281.0,856.0,0.0,1,473.0,1
669,669,0.020007110149408147,0.0,1.0,1.0,447.0,519.0,1.0,1,874.0,1
670,670,-0.7594830718138967,-0.8,0.0,1.0,341.0,816.0,1.0,0,453.0,1
671,671,-0.41443010341522196,-0.4,0.0,1.0,252.0,848.0,1.0,0,310.0,1
672,672,-0.6489915993618176,-0.6,0.0,1.0,445.0,928.0,1.0,0,117.0,1
673,673,0.2137443320365392,0.2,0.0,0.0,388.0,681.0,0.0,1,701.0,1
674,674,0.3109052773963218,0.3,0.0,0.0,423.0,568.0,0.0,1,269.0,1
675,675,0.8244868701704965,0.8,0.0,0.0,284.0,594.0,0.0,1,412.0,1
676,676,-0.470423840246101,-0.5,1.0,0.0,401.0,716.0,0.0,0,363.0,1
677,677,-0.25645680390451175,-0.3,1.0,0.0,499.0,967.0,0.0,0,454.0,1
678,678,0.25384166530701135,0.3,1.0,1.0,438.0,746.0,1.0,1,406.0,1
679,679,0.1080779056229112,0.1,0.0,0.0,255.0,848.0,0.0,1,427.0,1
680,680,0.183179988703697,0.2,1.0,1.0,444.0,651.0,1.0,1,485.0,1
681,681,-0.13631561144103277,-0.1,1.0,0.0,285.0,569.0,0.0,0,1016.0,1
682,682,-0.8946347199461699,-0.9,0.0,1.0,339.0,528.0,1.0,0,423.0,1
683,683,-0.004940979518005539,-0.0,0.0,1.0,374.0,894.0,1.0,0,2702.0,1
684,684,-0.569565886043326,-0.6,0.0,1.0,465.0,585.0,1.0,0,310.0,1
685,685,0.17748970177705437,0.2,1.0,1.0,251.0,968.0,1.0,1,1081.0,1
686,686,-0.8494671903586412,-0.8,0.0,1.0,491.0,727.0,1.0,0,102.0,1
687,687,0.21612188570438173,0.2,1.0,1.0,355.0,948.0,1.0,1,137.0,1
688,688,-0.8882778259678623,-0.9,0.0,1.0,460.0,986.0,1.0,0,194.0,1
689,689,0.562617160288945,0.6,1.0,1.0,401.0,908.0,1.0,1,341.0,1
690,690,0.5911322586970463,0.6,1.0,1.0,293.0,812.0,1.0,1,245.0,1
691,691,0.04414447555727219,0.0,0.0,0.0,472.0,976.0,0.0,1,1402.0,1
692,692,-0.7934752395708923,-0.8,0.0,1.0,261.0,913.0,1.0,0,226.0,1
693,693,-0.19736130950538933,-0.2,0.0,1.0,427.0,994.0,1.0,0,339.0,1
694,694,-0.8745246459689481,-0.9,1.0,0.0,489.0,626.0,0.0,0,185.0,1
695,695,-0.3279382968127851,-0.3,1.0,0.0,299.0,803.0,0.0,0,388.0,1
696,696,-0.6967185508770174,-0.7,1.0,0.0,466.0,501.0,0.0,0,453.0,1
697,697,-0.5982219329494645,-0.6,0.0,1.0,436.0,931.0,1.0,0,473.0,1
698,698,0.512112161561599,0.5,0.0,0.0,343.0,941.0,0.0,1,336.0,1
699,699,-0.3666087495286424,-0.4,1.0,0.0,425.0,649.0,0.0,0,656.0,1
700,700,-0.8154379429837767,-0.8,0.0,1.0,408.0,550.0,1.0,0,272.0,1
701,701,0.3049672000311435,0.3,0.0,0.0,313.0,804.0,0.0,1,303.0,1
702,702,-0.10070333673733067,-0.1,0.0,1.0,403.0,898.0,1.0,0,219.0,1
703,703,0.5515343116983081,0.6,1.0,1.0,404.0,889.0,1.0,1,297.0,1
704,704,0.36696231802316326,0.4,1.0,1.0,322.0,785.0,1.0,1,383.0,1
705,705,0.05891218486998362,0.1,1.0,1.0,415.0,981.0,1.0,1,1384.0,1
706,706,0.09196245954901916,0.1,1.0,1.0,413.0,505.0,1.0,1,1032.0,1
707,707,-0.5276728730189251,-0.5,1.0,0.0,427.0,712.0,0.0,0,481.0,1
708,708,0.4472826815574672,0.4,1.0,1.0,492.0,757.0,1.0,1,271.0,1
709,709,-0.24753301982421083,-0.2,1.0,0.0,398.0,642.0,0.0,0,680.0,1
710,710,-0.8214423767400743,-0.8,0.0,1.0,438.0,724.0,1.0,0,308.0,1
711,711,-0.06801212449885774,-0.1,1.0,0.0,373.0,950.0,1.0,1,1667.0,0
712,712,-0.5323877591816495,-0.5,1.0,0.0,300.0,809.0,0.0,0,301.0,1
713,713,-0.5211552076839148,-0.5,1.0,0.0,388.0,644.0,0.0,0,598.0,1
714,714,-0.5364885982232557,-0.5,1.0,0.0,454.0,969.0,0.0,0,287.0,1
715,715,-0.8517564274749184,-0.9,1.0,0.0,272.0,973.0,0.0,0,125.0,1
716,716,0.4433832788505142,0.4,0.0,0.0,365.0,872.0,0.0,1,233.0,1
717,717,0.003512818765751602,0.0,1.0,1.0,285.0,536.0,1.0,1,309.0,1
718,718,0.7144166109965605,0.7,1.0,1.0,486.0,943.0,1.0,1,221.0,1
719,719,0.23418371102855995,0.2,1.0,1.0,462.0,906.0,1.0,1,612.0,1
720,720,0.22887880009661876,0.2,1.0,1.0,497.0,934.0,1.0,1,129.0,1
721,721,0.8465539160581267,0.8,0.0,0.0,276.0,671.0,0.0,1,363.0,1
722,722,0.4591679947886812,0.5,0.0,0.0,319.0,914.0,0.0,1,427.0,1
723,723,-0.4869858147996956,-0.5,1.0,0.0,480.0,814.0,0.0,0,366.0,1
724,724,0.48628898224703854,0.5,0.0,0.0,367.0,869.0,0.0,1,364.0,1
725,725,0.38821158539093925,0.4,1.0,1.0,434.0,937.0,1.0,1,279.0,1
726,726,0.8446323976514513,0.8,0.0,0.0,362.0,502.0,0.0,1,276.0,1
727,727,0.41272443614172605,0.4,1.0,1.0,278.0,774.0,1.0,1,228.0,1
728,728,-0.5342295051242772,-0.5,1.0,0.0,344.0,772.0,0.0,0,544.0,1
729,729,-0.3188598220065202,-0.3,0.0,1.0,303.0,912.0,1.0,0,345.0,1
730,730,-0.26578815058747407,-0.3,1.0,0.0,483.0,847.0,0.0,0,340.0,1
731,731,0.793212565758335,0.8,1.0,1.0,492.0,822.0,1.0,1,306.0,1
732,732,-0.47291565682911535,-0.5,1.0,0.0,327.0,674.0,0.0,0,229.0,1
733,733,-0.5929815318558054,-0.6,1.0,0.0,282.0,705.0,0.0,0,403.0,1
734,734,0.0002904593250738774,0.0,0.0,0.0,396.0,620.0,1.0,0,634.0,0
735,735,0.042704040242680374,0.0,0.0,0.0,334.0,796.0,0.0,1,590.0,1
736,736,0.1321551861220961,0.1,0.0,0.0,265.0,956.0,0.0,1,3259.0,1
737,737,0.19166921842977336,0.2,1.0,1.0,443.0,538.0,1.0,1,699.0,1
738,738,-0.6211282042793892,-0.6,0.0,1.0,408.0,609.0,1.0,0,433.0,1
739,739,-0.5487864291255355,-0.5,0.0,1.0,497.0,994.0,1.0,0,229.0,1
740,740,0.5303226568649376,0.5,1.0,1.0,291.0,828.0,1.0,1,281.0,1
741,741,0.76506303655702,0.8,1.0,1.0,491.0,983.0,1.0,1,216.0,1
742,742,0.5603965737944022,0.6,0.0,0.0,288.0,803.0,0.0,1,309.0,1
743,743,0.09689013999472684,0.1,1.0,1.0,406.0,596.0,1.0,1,288.0,1
744,744,-0.4905676079488786,-0.5,0.0,1.0,437.0,883.0,1.0,0,210.0,1
745,745,-0.36003311448427344,-0.4,0.0,1.0,340.0,628.0,1.0,0,442.0,1
746,746,0.726660300847504,0.7,0.0,0.0,350.0,716.0,0.0,1,134.0,1
747,747,0.726638526999941,0.7,1.0,1.0,421.0,953.0,1.0,1,466.0,1
748,748,-0.4151908049281117,-0.4,1.0,0.0,261.0,705.0,0.0,0,124.0,1
749,749,-0.4523865802062481,-0.5,0.0,1.0,445.0,756.0,1.0,0,349.0,1
750,750,-0.34915873319323076,-0.3,0.0,1.0,456.0,847.0,1.0,0,397.0,1
751,751,0.8282740862312709,0.8,0.0,0.0,253.0,602.0,0.0,1,225.0,1
752,752,-0.8370104103193857,-0.8,1.0,0.0,365.0,970.0,0.0,0,125.0,1
753,753,-0.7986816697010936,-0.8,0.0,1.0,394.0,961.0,1.0,0,295.0,1
754,754,-0.33277670566980044,-0.3,0.0,1.0,418.0,767.0,1.0,0,365.0,1
755,755,0.23455669404514212,0.2,1.0,1.0,379.0,769.0,1.0,1,582.0,1
756,756,0.09118042025284456,0.1,0.0,0.0,324.0,630.0,0.0,1,726.0,1
757,757,0.4651666249494343,0.5,0.0,0.0,315.0,738.0,0.0,1,527.0,1
758,758,0.365242494060405,0.4,1.0,1.0,405.0,705.0,1.0,1,220.0,1
759,759,0.43416587142344765,0.4,0.0,0.0,348.0,856.0,0.0,1,256.0,1
760,760,-0.27648406941738857,-0.3,1.0,0.0,287.0,584.0,0.0,0,519.0,1
761,761,-0.30023392379265323,-0.3,0.0,1.0,368.0,807.0,1.0,0,805.0,1
762,762,0.3385816350017917,0.3,0.0,0.0,317.0,619.0,0.0,1,624.0,1
763,763,-0.1758308048845053,-0.2,0.0,1.0,319.0,876.0,1.0,0,235.0,1
764,764,-0.1555138151928055,-0.2,1.0,0.0,493.0,738.0,0.0,0,359.0,1
765,765,-0.5443099772376128,-0.5,0.0,1.0,426.0,763.0,1.0,0,131.0,1
766,766,-0.3998344908345939,-0.4,0.0,1.0,300.0,651.0,1.0,0,169.0,1
767,767,-0.7556813872368886,-0.8,1.0,0.0,419.0,601.0,0.0,0,270.0,1
768,768,-0.2546102494430078,-0.3,1.0,0.0,464.0,733.0,0.0,0,293.0,1
769,769,-0.7542465405192715,-0.8,0.0,1.0,298.0,677.0,1.0,0,315.0,1
770,770,-0.22020473955251418,-0.2,0.0,1.0,354.0,694.0,1.0,0,592.0,1
771,771,0.8141236895994238,0.8,1.0,1.0,283.0,927.0,1.0,1,340.0,1
772,772,-0.44662824742620205,-0.4,1.0,0.0,266.0,752.0,0.0,0,152.0,1
773,773,0.32505241976771615,0.3,1.0,1.0,387.0,686.0,1.0,1,377.0,1
774,774,-0.8331737326819751,-0.8,1.0,0.0,350.0,611.0,0.0,0,229.0,1
775,775,0.8887302530271027,0.9,1.0,1.0,427.0,680.0,1.0,1,3233.0,1
776,776,-0.8816613109659274,-0.9,1.0,0.0,300.0,920.0,0.0,0,180.0,1
777,777,0.6086652542672079,0.6,0.0,0.0,430.0,863.0,0.0,1,167.0,1
778,778,0.23921798880235035,0.2,0.0,0.0,476.0,546.0,0.0,1,668.0,1
779,779,-0.012412974813043265,-0.0,1.0,0.0,362.0,588.0,1.0,1,1210.0,0
780,780,0.12080674330318686,0.1,1.0,1.0,286.0,550.0,1.0,1,524.0,1
781,781,0.5983106385797531,0.6,0.0,0.0,455.0,836.0,0.0,1,139.0,1
782,782,-0.2633974563914936,-0.3,1.0,0.0,345.0,628.0,0.0,0,327.0,1
783,783,-0.29817955520744777,-0.3,1.0,0.0,351.0,717.0,0.0,0,432.0,1
784,784,-0.13401671796081782,-0.1,0.0,1.0,471.0,561.0,1.0,0,348.0,1
785,785,-0.31756347851355926,-0.3,0.0,1.0,415.0,878.0,1.0,0,197.0,1
786,786,-0.44891265160072324,-0.4,1.0,0.0,463.0,777.0,0.0,0,330.0,1
787,787,0.46850403278563124,0.5,1.0,1.0,303.0,533.0,1.0,1,484.0,1
788,788,-0.868733610287382,-0.9,0.0,1.0,332.0,935.0,1.0,0,83.0,1
789,789,0.2872596372499475,0.3,0.0,0.0,312.0,557.0,0.0,1,251.0,1
790,790,-0.36243455456819484,-0.4,1.0,0.0,498.0,782.0,0.0,0,320.0,1
791,791,0.06937660926456268,0.1,1.0,1.0,296.0,902.0,1.0,1,1022.0,1
792,792,-0.06054417030137693,-0.1,0.0,1.0,269.0,882.0,1.0,0,409.0,1
793,793,0.2638164778687958,0.3,0.0,0.0,292.0,715.0,0.0,1,303.0,1
794,794,0.5616114541185929,0.6,1.0,1.0,332.0,843.0,1.0,1,285.0,1
795,795,0.5987436033101413,0.6,1.0,1.0,381.0,873.0,1.0,1,296.0,1
796,796,-0.7499150331432577,-0.7,1.0,0.0,325.0,861.0,0.0,0,164.0,1
797,797,-0.5370684294122025,-0.5,0.0,1.0,356.0,878.0,1.0,0,86.0,1
798,798,-0.8010218115281701,-0.8,0.0,1.0,296.0,628.0,1.0,0,246.0,1
799,799,-0.59904637416952,-0.6,1.0,0.0,440.0,566.0,0.0,0,424.0,1
800,800,0.265158263412684,0.3,0.0,0.0,348.0,659.0,0.0,1,623.0,1
801,801,0.342249528692984,0.3,1.0,1.0,486.0,786.0,1.0,1,548.0,1
802,802,-0.1125652561933953,-0.1,1.0,0.0,402.0,634.0,0.0,0,904.0,1
803,803,0.23588643801189402,0.2,1.0,1.0,375.0,923.0,1.0,1,102.0,1
804,804,-0.0045125468557473125,-0.0,0.0,1.0,373.0,884.0,1.0,0,453.0,1
805,805,0.5565331126028673,0.6,1.0,1.0,263.0,646.0,1.0,1,541.0,1
806,806,0.28648345561053257,0.3,0.0,0.0,470.0,655.0,0.0,1,315.0,1
807,807,-0.6898888994122275,-0.7,0.0,1.0,287.0,608.0,1.0,0,455.0,1
808,808,-0.013322999109136813,-0.0,1.0,0.0,347.0,609.0,1.0,1,1334.0,0
809,809,-0.4369922624770786,-0.4,0.0,1.0,298.0,768.0,1.0,0,364.0,1
810,810,-0.2040226195259418,-0.2,1.0,0.0,375.0,746.0,0.0,0,489.0,1
811,811,0.026795526886616794,0.0,0.0,0.0,376.0,510.0,0.0,1,794.0,1
812,812,0.5249791377143634,0.5,1.0,1.0,341.0,650.0,1.0,1,449.0,1
813,813,-0.5100032017317393,-0.5,0.0,1.0,436.0,521.0,1.0,0,413.0,1
814,814,0.2076060322838008,0.2,0.0,0.0,277.0,696.0,0.0,1,417.0,1
815,815,0.3959130387245461,0.4,1.0,1.0,364.0,505.0,1.0,1,441.0,1
816,816,0.6059165979560267,0.6,0.0,0.0,412.0,853.0,0.0,1,165.0,1
817,817,0.6991105774378868,0.7,0.0,0.0,250.0,522.0,0.0,1,268.0,1
818,818,0.05653376735610527,0.1,0.0,0.0,291.0,642.0,1.0,0,2687.0,0
819,819,-0.26770845284981526,-0.3,0.0,1.0,381.0,836.0,1.0,0,43.0,1
820,820,-0.8002883617093332,-0.8,0.0,1.0,294.0,809.0,1.0,0,347.0,1
821,821,-0.012671545222416092,-0.0,0.0,1.0,469.0,947.0,1.0,0,194.0,1
822,822,0.006809205435472032,0.0,0.0,0.0,408.0,917.0,1.0,0,65.0,0
823,823,0.8848050220077853,0.9,0.0,0.0,418.0,918.0,0.0,1,104.0,1
824,824,-0.21459496979112602,-0.2,1.0,0.0,365.0,533.0,0.0,0,1312.0,1
825,825,0.14768389781468783,0.1,0.0,0.0,397.0,725.0,0.0,1,758.0,1
826,826,0.030782351371813066,0.0,0.0,0.0,265.0,876.0,1.0,0,129.0,0
827,827,0.8126281337863092,0.8,1.0,1.0,316.0,620.0,1.0,1,284.0,1
828,828,0.63602928032265,0.6,1.0,1.0,422.0,750.0,1.0,1,168.0,1
829,829,0.6622729781658497,0.7,0.0,0.0,261.0,755.0,0.0,1,224.0,1
830,830,-0.5248490059130542,-0.5,0.0,1.0,386.0,903.0,1.0,0,171.0,1
831,831,0.33112707030069977,0.3,1.0,1.0,442.0,666.0,1.0,1,332.0,1
832,832,-0.6433213578372637,-0.6,0.0,1.0,276.0,535.0,1.0,0,279.0,1
833,833,0.7736797330379762,0.8,1.0,1.0,292.0,593.0,1.0,1,285.0,1
834,834,0.6112381186430785,0.6,1.0,1.0,273.0,544.0,1.0,1,423.0,1
835,835,-0.6028107678641421,-0.6,1.0,0.0,383.0,915.0,0.0,0,252.0,1
836,836,-0.6284824281941144,-0.6,1.0,0.0,357.0,623.0,0.0,0,220.0,1
837,837,-0.8996541059641849,-0.9,1.0,0.0,485.0,879.0,0.0,0,36.0,1
838,838,0.6577449628331803,0.7,0.0,0.0,420.0,754.0,0.0,1,296.0,1
839,839,0.27336235801286,0.3,0.0,0.0,397.0,601.0,0.0,1,942.0,1
840,840,0.5170096047927842,0.5,1.0,1.0,263.0,838.0,1.0,1,129.0,1
841,841,-0.39933319146689317,-0.4,0.0,1.0,296.0,687.0,1.0,0,187.0,1
842,842,0.6346533018152397,0.6,1.0,1.0,310.0,788.0,1.0,1,292.0,1
843,843,-0.09842226412035471,-0.1,0.0,1.0,386.0,917.0,1.0,0,517.0,1
844,844,-0.0038320550633471617,-0.0,1.0,0.0,447.0,682.0,1.0,1,791.0,0
845,845,-0.1595728803302433,-0.2,0.0,1.0,490.0,536.0,1.0,0,774.0,1
846,846,-0.10597619559368365,-0.1,1.0,0.0,306.0,545.0,0.0,0,1349.0,1
847,847,-0.018457457527717547,-0.0,0.0,1.0,303.0,967.0,1.0,0,3540.0,1
848,848,-0.348062176789677,-0.3,0.0,1.0,458.0,641.0,1.0,0,501.0,1
849,849,0.37500995723817476,0.4,1.0,1.0,423.0,917.0,1.0,1,420.0,1
850,850,0.4641496388342644,0.5,1.0,1.0,354.0,784.0,1.0,1,342.0,1
851,851,-0.2100881496964575,-0.2,0.0,1.0,280.0,609.0,1.0,0,981.0,1
852,852,0.7562515539360232,0.8,1.0,1.0,320.0,927.0,1.0,1,203.0,1
853,853,-0.16074464131432775,-0.2,0.0,1.0,498.0,953.0,1.0,0,119.0,1
854,854,-0.5216424680654486,-0.5,0.0,1.0,417.0,697.0,1.0,0,266.0,1
855,855,0.585231319687466,0.6,0.0,0.0,376.0,824.0,0.0,1,130.0,1
856,856,0.3969756066107365,0.4,0.0,0.0,379.0,691.0,0.0,1,250.0,1
857,857,0.4903117006690677,0.5,1.0,1.0,258.0,531.0,1.0,1,541.0,1
858,858,0.5488773244694495,0.5,1.0,1.0,487.0,926.0,1.0,1,227.0,1
859,859,0.8590722875825211,0.9,0.0,0.0,379.0,982.0,0.0,1,49.0,1
860,860,0.2222209263258773,0.2,1.0,1.0,346.0,689.0,1.0,1,475.0,1
861,861,-0.10694689233470855,-0.1,0.0,1.0,413.0,791.0,1.0,0,476.0,1
862,862,0.11585476326188171,0.1,1.0,1.0,457.0,734.0,1.0,1,669.0,1
863,863,0.7498982419120589,0.7,0.0,0.0,394.0,560.0,0.0,1,556.0,1
864,864,0.019210253582545134,0.0,1.0,1.0,277.0,869.0,0.0,0,854.0,0
865,865,-0.6313731278535042,-0.6,0.0,1.0,340.0,692.0,1.0,0,228.0,1
866,866,-0.3420147692753456,-0.3,1.0,0.0,391.0,785.0,0.0,0,224.0,1
867,867,0.19222806244014967,0.2,0.0,0.0,455.0,854.0,0.0,1,501.0,1
868,868,0.31299135292106717,0.3,0.0,0.0,331.0,942.0,0.0,1,487.0,1
869,869,-0.5408505062775979,-0.5,1.0,0.0,454.0,514.0,0.0,0,332.0,1
870,870,-0.474248390708162,-0.5,0.0,1.0,407.0,952.0,1.0,0,391.0,1
871,871,0.2542591814646781,0.3,1.0,1.0,288.0,597.0,1.0,1,575.0,1
872,872,0.8740261567963937,0.9,1.0,1.0,335.0,708.0,1.0,1,1157.0,1
873,873,0.7834029591059067,0.8,1.0,1.0,402.0,733.0,1.0,1,295.0,1
874,874,0.8601968515105479,0.9,1.0,1.0,416.0,830.0,1.0,1,94.0,1
875,875,-0.8342310318423913,-0.8,1.0,0.0,298.0,790.0,0.0,0,122.0,1
876,876,0.36008113187169666,0.4,0.0,0.0,334.0,838.0,0.0,1,368.0,1
877,877,-0.2860709180288733,-0.3,1.0,0.0,498.0,838.0,0.0,0,194.0,1
878,878,0.7178428521715751,0.7,1.0,1.0,427.0,987.0,1.0,1,86.0,1
879,879,0.34270130937588716,0.3,1.0,1.0,378.0,942.0,1.0,1,260.0,1
880,880,0.01323641265102371,0.0,1.0,1.0,344.0,779.0,0.0,0,177.0,0
881,881,-0.3742333756687187,-0.4,0.0,1.0,495.0,995.0,1.0,0,180.0,1
882,882,-0.4017120913840851,-0.4,1.0,0.0,373.0,649.0,0.0,0,318.0,1
883,883,0.3825562451895915,0.4,1.0,1.0,344.0,704.0,1.0,1,322.0,1
884,884,0.7508350500413382,0.8,0.0,0.0,305.0,863.0,0.0,1,502.0,1
885,885,-0.7666548378031668,-0.8,1.0,0.0,367.0,597.0,0.0,0,286.0,1
886,886,0.8996048044809853,0.9,0.0,0.0,284.0,818.0,0.0,1,288.0,1
887,887,-0.40053423082493145,-0.4,0.0,1.0,272.0,967.0,1.0,0,161.0,1
888,888,-0.09324735878750545,-0.1,1.0,0.0,342.0,981.0,1.0,1,7.0,0
889,889,-0.13154988715955773,-0.1,1.0,0.0,363.0,737.0,0.0,0,1310.0,1
890,890,-0.34480468912016127,-0.3,1.0,0.0,315.0,549.0,0.0,0,436.0,1
891,891,-0.5305688796652479,-0.5,1.0,0.0,357.0,534.0,0.0,0,199.0,1
892,892,0.5612197536604698,0.6,1.0,1.0,388.0,541.0,1.0,1,471.0,1
893,893,0.44002412642545463,0.4,1.0,1.0,392.0,550.0,1.0,1,478.0,1
894,894,-0.12525507693897941,-0.1,0.0,1.0,277.0,719.0,1.0,0,134.0,1
895,895,-0.6090200681343092,-0.6,1.0,0.0,403.0,599.0,0.0,0,148.0,1
896,896,-0.552095984081201,-0.6,0.0,1.0,430.0,955.0,1.0,0,295.0,1
897,897,-0.43508370287518644,-0.4,0.0,1.0,408.0,980.0,1.0,0,92.0,1
898,898,-0.32645118179315313,-0.3,0.0,1.0,432.0,688.0,1.0,0,210.0,1
899,899,-0.6885473418746286,-0.7,1.0,0.0,367.0,903.0,0.0,0,90.0,1
900,900,-0.41395889586539,-0.4,1.0,0.0,419.0,513.0,0.0,0,608.0,1
901,901,0.21121849056555064,0.2,0.0,0.0,387.0,528.0,0.0,1,825.0,1
902,902,0.5885426196739306,0.6,1.0,1.0,329.0,714.0,1.0,1,107.0,1
903,903,-0.7483694147956464,-0.7,0.0,1.0,296.0,636.0,1.0,0,308.0,1
904,904,-0.48011832791261494,-0.5,0.0,1.0,443.0,529.0,1.0,0,548.0,1
905,905,-0.8141515253572073,-0.8,1.0,0.0,346.0,730.0,0.0,0,214.0,1
906,906,-0.38041268992910016,-0.4,1.0,0.0,394.0,584.0,0.0,0,542.0,1
907,907,0.795964554121655,0.8,1.0,1.0,353.0,737.0,1.0,1,420.0,1
908,908,0.832497058443732,0.8,0.0,0.0,390.0,922.0,0.0,1,48.0,1
909,909,0.05127302162613445,0.1,1.0,1.0,292.0,781.0,1.0,1,287.0,1
910,910,-0.6164420205393945,-0.6,1.0,0.0,444.0,911.0,0.0,0,45.0,1
911,911,0.2728835393470471,0.3,0.0,0.0,354.0,978.0,0.0,1,288.0,1
912,912,-0.5705385843484212,-0.6,0.0,1.0,375.0,677.0,1.0,0,578.0,1
913,913,-0.4891123266176064,-0.5,0.0,1.0,419.0,931.0,1.0,0,240.0,1
914,914,-0.6318838945875309,-0.6,1.0,0.0,447.0,694.0,0.0,0,339.0,1
915,915,0.43971685912222924,0.4,1.0,1.0,363.0,655.0,1.0,1,322.0,1
916,916,0.49872338217710943,0.5,1.0,1.0,312.0,959.0,1.0,1,219.0,1
917,917,0.49769098221841535,0.5,0.0,0.0,379.0,556.0,0.0,1,595.0,1
918,918,0.6642318626663287,0.7,1.0,1.0,258.0,838.0,1.0,1,334.0,1
919,919,0.0019802731651374916,0.0,1.0,1.0,388.0,886.0,1.0,1,1596.0,1
920,920,0.8857034689498388,0.9,0.0,0.0,366.0,797.0,0.0,1,207.0,1
921,921,-0.16942536403165742,-0.2,0.0,1.0,400.0,543.0,1.0,0,647.0,1
922,922,-0.588024742004809,-0.6,1.0,0.0,310.0,929.0,0.0,0,231.0,1
923,923,0.00035495517206152183,0.0,0.0,0.0,371.0,538.0,1.0,0,1501.0,0
924,924,0.7193146749801332,0.7,0.0,0.0,380.0,885.0,0.0,1,195.0,1
925,925,-0.21884529670378494,-0.2,1.0,0.0,287.0,742.0,0.0,0,381.0,1
926,926,0.07904143359225768,0.1,1.0,1.0,406.0,676.0,1.0,1,1418.0,1
927,927,0.006340776332149911,0.0,0.0,0.0,382.0,794.0,1.0,0,1744.0,0
928,928,0.5221983779150782,0.5,0.0,0.0,441.0,894.0,0.0,1,415.0,1
929,929,0.2275057294054198,0.2,0.0,0.0,413.0,524.0,0.0,1,683.0,1
930,930,-0.831145984989927,-0.8,1.0,0.0,303.0,530.0,0.0,0,447.0,1
931,931,-0.3906808197942424,-0.4,1.0,0.0,442.0,682.0,0.0,0,266.0,1
932,932,0.7904979435249809,0.8,1.0,1.0,353.0,623.0,1.0,1,284.0,1
933,933,-0.15443174840862817,-0.2,0.0,1.0,328.0,798.0,1.0,0,284.0,1
934,934,-0.5405600114205329,-0.5,0.0,1.0,424.0,543.0,1.0,0,283.0,1
935,935,0.4501272697087323,0.5,0.0,0.0,401.0,825.0,0.0,1,734.0,1
936,936,0.8325091899205425,0.8,1.0,1.0,450.0,966.0,1.0,1,94.0,1
937,937,-0.5432330776018377,-0.5,0.0,1.0,414.0,920.0,1.0,0,236.0,1
938,938,0.7778384225267491,0.8,1.0,1.0,448.0,768.0,1.0,1,264.0,1
939,939,0.5948423101145633,0.6,1.0,1.0,468.0,710.0,1.0,1,142.0,1
940,940,-0.29452675193633704,-0.3,1.0,0.0,423.0,766.0,0.0,0,291.0,1
941,941,-0.8117112733289674,-0.8,1.0,0.0,419.0,693.0,0.0,0,158.0,1
942,942,-0.8494607916253709,-0.8,0.0,1.0,348.0,727.0,1.0,0,315.0,1
943,943,0.5253303774921464,0.5,1.0,1.0,376.0,890.0,1.0,1,374.0,1
944,944,-0.29748025362927644,-0.3,1.0,0.0,373.0,562.0,0.0,0,955.0,1
945,945,0.49096122092424765,0.5,0.0,0.0,339.0,841.0,0.0,1,500.0,1
946,946,0.15537519853440018,0.2,0.0,0.0,472.0,686.0,0.0,1,1042.0,1
947,947,-0.534407525091741,-0.5,0.0,1.0,301.0,580.0,1.0,0,509.0,1
948,948,0.3299828952950782,0.3,1.0,1.0,309.0,801.0,1.0,1,90.0,1
949,949,0.46339579087576166,0.5,0.0,0.0,318.0,601.0,0.0,1,341.0,1
950,950,-0.5763576079772259,-0.6,1.0,0.0,300.0,598.0,0.0,0,562.0,1
951,951,0.7471794219479394,0.7,0.0,0.0,404.0,714.0,0.0,1,142.0,1
952,952,0.8179221104430324,0.8,0.0,0.0,309.0,643.0,0.0,1,368.0,1
953,953,0.6954252531759243,0.7,0.0,0.0,296.0,502.0,0.0,1,352.0,1
954,954,0.4626531781416653,0.5,1.0,1.0,382.0,903.0,1.0,1,55.0,1
955,955,-0.71088146881616,-0.7,0.0,1.0,348.0,613.0,1.0,0,289.0,1
956,956,-0.24556207638954752,-0.2,0.0,1.0,266.0,916.0,1.0,0,438.0,1
957,957,-0.07830018307742403,-0.1,0.0,1.0,484.0,907.0,0.0,1,279.0,0
958,958,-0.3300105429623248,-0.3,0.0,1.0,424.0,604.0,1.0,0,302.0,1
959,959,-0.6599567790065548,-0.7,0.0,1.0,355.0,522.0,1.0,0,503.0,1
960,960,-0.38170236068253327,-0.4,0.0,1.0,415.0,826.0,1.0,0,319.0,1
961,961,-0.22192262242510608,-0.2,1.0,0.0,383.0,943.0,0.0,0,74.0,1
962,962,-0.4049962311130051,-0.4,0.0,1.0,336.0,943.0,1.0,0,71.0,1
963,963,0.5089233019911762,0.5,1.0,1.0,346.0,680.0,1.0,1,354.0,1
964,964,0.19462816600816135,0.2,0.0,0.0,374.0,739.0,0.0,1,697.0,1
965,965,-0.637601522303948,-0.6,0.0,1.0,321.0,526.0,1.0,0,293.0,1
966,966,0.861942866360991,0.9,0.0,0.0,282.0,522.0,0.0,1,326.0,1
967,967,0.7425480136927113,0.7,0.0,0.0,328.0,601.0,0.0,1,471.0,1
968,968,-0.11877490160597137,-0.1,0.0,1.0,437.0,774.0,1.0,0,199.0,1
969,969,0.20178045832375557,0.2,1.0,1.0,372.0,946.0,1.0,1,282.0,1
970,970,0.2530119873493685,0.3,1.0,1.0,262.0,798.0,1.0,1,460.0,1
971,971,-0.8518958559321562,-0.9,1.0,0.0,366.0,916.0,0.0,0,128.0,1
972,972,0.42501134311035693,0.4,0.0,0.0,288.0,656.0,0.0,1,346.0,1
973,973,0.8308504403127178,0.8,0.0,0.0,330.0,920.0,0.0,1,130.0,1
974,974,-0.8802040591190945,-0.9,0.0,1.0,423.0,873.0,1.0,0,124.0,1
975,975,0.6804718742058588,0.7,0.0,0.0,296.0,871.0,0.0,1,343.0,1
976,976,0.8554999775275612,0.9,1.0,1.0,384.0,728.0,1.0,1,188.0,1
977,977,-0.5865377061230183,-0.6,0.0,1.0,374.0,776.0,1.0,0,310.0,1
978,978,-0.2116162784047555,-0.2,0.0,1.0,415.0,904.0,1.0,0,141.0,1
979,979,0.7501633174894605,0.8,0.0,0.0,368.0,783.0,0.0,1,69.0,1
980,980,0.11443649554327029,0.1,0.0,0.0,301.0,579.0,0.0,1,180.0,1
981,981,-0.36760349704068096,-0.4,0.0,1.0,405.0,661.0,1.0,0,434.0,1
982,982,-0.25672956155180726,-0.3,1.0,0.0,465.0,677.0,0.0,0,398.0,1
983,983,0.8610141627688516,0.9,0.0,0.0,496.0,824.0,0.0,1,190.0,1
984,984,-0.12479903829984318,-0.1,1.0,0.0,269.0,876.0,0.0,0,375.0,1
985,985,-0.4236888031778491,-0.4,0.0,1.0,250.0,622.0,1.0,0,238.0,1
986,986,-0.4958311690265363,-0.5,0.0,1.0,297.0,680.0,1.0,0,163.0,1
987,987,-0.6728206838985191,-0.7,1.0,0.0,382.0,601.0,0.0,0,207.0,1
988,988,-0.7614528073882058,-0.8,0.0,1.0,473.0,580.0,1.0,0,347.0,1
989,989,0.2579355865563716,0.3,0.0,0.0,287.0,949.0,0.0,1,294.0,1
990,990,0.053373421374213637,0.1,1.0,1.0,278.0,571.0,1.0,1,2281.0,1
991,991,-0.27869336603993544,-0.3,1.0,0.0,378.0,682.0,0.0,0,480.0,1
992,992,0.6519951942103587,0.7,1.0,1.0,317.0,511.0,1.0,1,462.0,1
993,993,0.13753152605269203,0.1,1.0,1.0,419.0,729.0,1.0,1,442.0,1
994,994,0.8606394608100102,0.9,1.0,1.0,371.0,952.0,1.0,1,207.0,1
995,995,-0.511641676413799,-0.5,0.0,1.0,344.0,724.0,1.0,0,272.0,1
996,996,0.0936789288865505,0.1,0.0,0.0,289.0,812.0,0.0,1,2179.0,1
997,997,-0.4832859801667416,-0.5,0.0,1.0,330.0,508.0,1.0,0,482.0,1
998,998,0.6368050541527178,0.6,1.0,1.0,304.0,520.0,1.0,1,386.0,1
999,999,0.15069104224413932,0.2,1.0,1.0,264.0,854.0,1.0,1,112.0,1
1000,1000,-0.4348437019725905,-0.4,1.0,0.0,466.0,890.0,0.0,0,644.0,1
1001,1001,-0.5607088431674114,-0.6,1.0,0.0,488.0,790.0,0.0,0,402.0,1
1002,1002,-0.830576034559919,-0.8,1.0,0.0,300.0,659.0,0.0,0,271.0,1
1003,1003,-0.3960705732687233,-0.4,0.0,1.0,426.0,946.0,1.0,0,338.0,1
1004,1004,0.1276024610359966,0.1,1.0,1.0,498.0,893.0,1.0,1,499.0,1
1005,1005,-0.04839916940442479,-0.0,0.0,1.0,455.0,829.0,1.0,0,796.0,1
1006,1006,-0.21801144065000122,-0.2,1.0,0.0,297.0,962.0,0.0,0,581.0,1
1007,1007,-0.021474570938825654,-0.0,0.0,1.0,395.0,751.0,1.0,0,3854.0,1
1008,1008,0.5409553825038881,0.5,1.0,1.0,271.0,605.0,1.0,1,314.0,1
1009,1009,-0.4170748786337517,-0.4,1.0,0.0,383.0,947.0,0.0,0,260.0,1
1010,1010,-0.20690010343617993,-0.2,1.0,0.0,440.0,618.0,0.0,0,582.0,1
1011,1011,-0.05175592163320608,-0.1,1.0,0.0,473.0,765.0,0.0,0,282.0,1
1012,1012,0.11358078622778678,0.1,0.0,0.0,349.0,999.0,0.0,1,1382.0,1
1013,1013,0.25863443865408253,0.3,1.0,1.0,260.0,604.0,1.0,1,466.0,1
1014,1014,-0.26755792860165284,-0.3,0.0,1.0,272.0,660.0,1.0,0,428.0,1
1015,1015,-0.30208047355810685,-0.3,0.0,1.0,494.0,739.0,1.0,0,417.0,1
1016,1016,-0.13576861645513993,-0.1,0.0,1.0,409.0,788.0,1.0,0,433.0,1
1017,1017,0.06083927071963202,0.1,1.0,1.0,387.0,867.0,1.0,1,716.0,1
1018,1018,0.7355580949811812,0.7,1.0,1.0,479.0,896.0,1.0,1,155.0,1
1019,1019,-0.8764100108865048,-0.9,0.0,1.0,447.0,628.0,1.0,0,215.0,1
1020,1020,-0.37260091769476333,-0.4,1.0,0.0,309.0,734.0,0.0,0,237.0,1
1021,1021,0.3895739249425282,0.4,1.0,1.0,427.0,596.0,1.0,1,467.0,1
1022,1022,0.039587647587905006,0.0,0.0,0.0,386.0,992.0,1.0,0,-148.0,0
1023,1023,-0.49391359363728066,-0.5,0.0,1.0,390.0,830.0,1.0,0,230.0,1
1024,1024,-0.3183329401451822,-0.3,1.0,0.0,379.0,829.0,0.0,0,582.0,1
1025,1025,-0.4607465937008905,-0.5,1.0,0.0,371.0,611.0,0.0,0,348.0,1
1026,1026,0.35208970872289214,0.4,0.0,0.0,454.0,725.0,0.0,1,341.0,1
1027,1027,-0.5002345868974605,-0.5,1.0,0.0,368.0,554.0,0.0,0,218.0,1
1028,1028,-0.257387460097247,-0.3,0.0,1.0,463.0,979.0,1.0,0,118.0,1
1029,1029,0.17022916511481878,0.2,0.0,0.0,475.0,725.0,0.0,1,540.0,1
1030,1030,0.4437285127897196,0.4,0.0,0.0,276.0,529.0,0.0,1,625.0,1
1031,1031,0.646132527838246,0.6,1.0,1.0,373.0,745.0,1.0,1,1152.0,1
1032,1032,-0.2559575780983615,-0.3,0.0,1.0,271.0,622.0,1.0,0,607.0,1
1033,1033,-0.7234729611734239,-0.7,0.0,1.0,432.0,892.0,1.0,0,306.0,1
1034,1034,0.6891391483142265,0.7,0.0,0.0,323.0,731.0,0.0,1,156.0,1
1035,1035,-0.8177715711874645,-0.8,0.0,1.0,340.0,987.0,1.0,0,133.0,1
1036,1036,-0.40941466375843893,-0.4,0.0,1.0,274.0,793.0,1.0,0,23.0,1
1037,1037,-0.1371973077391383,-0.1,1.0,0.0,400.0,878.0,0.0,0,602.0,1
1038,1038,-0.7005284546238612,-0.7,0.0,1.0,306.0,555.0,1.0,0,559.0,1
1039,1039,-0.6359174855940368,-0.6,0.0,1.0,314.0,987.0,1.0,0,299.0,1
1040,1040,-0.3588589076065749,-0.4,1.0,0.0,272.0,807.0,0.0,0,561.0,1
1041,1041,0.3835878982486486,0.4,0.0,0.0,264.0,896.0,0.0,1,350.0,1
1042,1042,0.4069690353421208,0.4,1.0,1.0,466.0,882.0,1.0,1,362.0,1
1043,1043,0.49088142138270163,0.5,0.0,0.0,283.0,957.0,0.0,1,560.0,1
1044,1044,-0.5225885199480802,-0.5,0.0,1.0,262.0,828.0,1.0,0,350.0,1
1045,1045,-0.8115169615115413,-0.8,0.0,1.0,322.0,651.0,1.0,0,317.0,1
1046,1046,0.6084057508471484,0.6,0.0,0.0,308.0,788.0,0.0,1,184.0,1
1047,1047,-0.7617589984671282,-0.8,1.0,0.0,254.0,687.0,0.0,0,239.0,1
1048,1048,-0.5868351978976067,-0.6,1.0,0.0,411.0,711.0,0.0,0,458.0,1
1049,1049,-0.27462007510907505,-0.3,1.0,0.0,294.0,774.0,0.0,0,242.0,1
1050,1050,0.8058750535623643,0.8,1.0,1.0,380.0,626.0,1.0,1,384.0,1
1051,1051,0.6832270447698733,0.7,0.0,0.0,479.0,874.0,0.0,1,177.0,1
1052,1052,-0.1675669660372502,-0.2,0.0,1.0,449.0,781.0,1.0,0,800.0,1
1053,1053,0.05747768809335396,0.1,0.0,0.0,458.0,787.0,1.0,0,695.0,0
1054,1054,-0.5964730464652694,-0.6,1.0,0.0,331.0,529.0,0.0,0,500.0,1
1055,1055,0.4580221557076659,0.5,0.0,0.0,327.0,839.0,0.0,1,284.0,1
1056,1056,-0.5286137476820775,-0.5,0.0,1.0,457.0,835.0,1.0,0,178.0,1
1057,1057,-0.3755581065470869,-0.4,0.0,1.0,441.0,752.0,1.0,0,287.0,1
1058,1058,0.603251326849474,0.6,1.0,1.0,332.0,575.0,1.0,1,893.0,1
1059,1059,-0.7587909839905994,-0.8,0.0,1.0,381.0,892.0,1.0,0,277.0,1
1060,1060,0.3207129176224771,0.3,1.0,1.0,429.0,843.0,1.0,1,228.0,1
1061,1061,0.5092763529644425,0.5,1.0,1.0,486.0,644.0,1.0,1,480.0,1
1062,1062,0.21201837415917602,0.2,0.0,0.0,475.0,827.0,0.0,1,468.0,1
1063,1063,0.5344200288331101,0.5,1.0,1.0,334.0,917.0,1.0,1,489.0,1
1064,1064,0.7588799339968854,0.8,0.0,0.0,277.0,674.0,0.0,1,309.0,1
1065,1065,-0.556385589668243,-0.6,1.0,0.0,257.0,517.0,0.0,0,196.0,1
1066,1066,-0.4952071971686936,-0.5,1.0,0.0,255.0,816.0,0.0,0,149.0,1
1067,1067,0.4418523573613927,0.4,1.0,1.0,395.0,780.0,1.0,1,255.0,1
1068,1068,0.1968784882412581,0.2,0.0,0.0,385.0,619.0,0.0,1,786.0,1
1069,1069,-0.7296353958240371,-0.7,0.0,1.0,484.0,768.0,1.0,0,198.0,1
1070,1070,-0.6945935297883029,-0.7,1.0,0.0,324.0,865.0,0.0,0,111.0,1
1071,1071,0.5786326187104626,0.6,1.0,1.0,366.0,684.0,1.0,1,440.0,1
1072,1072,0.6815794291471765,0.7,0.0,0.0,411.0,750.0,0.0,1,309.0,1
1073,1073,-0.5428478721489568,-0.5,0.0,1.0,310.0,761.0,1.0,0,299.0,1
1074,1074,0.3065150282214709,0.3,0.0,0.0,314.0,729.0,0.0,1,407.0,1
1075,1075,0.8756085529139833,0.9,1.0,1.0,421.0,606.0,1.0,1,1733.0,1
1076,1076,0.20082553420703653,0.2,1.0,1.0,335.0,563.0,1.0,1,882.0,1
1077,1077,0.8711757620176684,0.9,1.0,1.0,383.0,929.0,1.0,1,208.0,1
1078,1078,0.27004801888048446,0.3,0.0,0.0,488.0,981.0,0.0,1,371.0,1
1079,1079,0.5933001146926996,0.6,1.0,1.0,250.0,548.0,1.0,1,702.0,1
1080,1080,0.4879314783014158,0.5,0.0,0.0,371.0,933.0,0.0,1,236.0,1
1081,1081,-0.1437702952447243,-0.1,1.0,0.0,409.0,752.0,0.0,0,929.0,1
1082,1082,-0.062499058898809356,-0.1,1.0,0.0,330.0,730.0,1.0,1,770.0,0
1083,1083,0.44516866706614955,0.4,0.0,0.0,353.0,930.0,0.0,1,317.0,1
1084,1084,-0.2202200447115088,-0.2,0.0,1.0,372.0,834.0,1.0,0,634.0,1
1085,1085,-0.6883911937075005,-0.7,0.0,1.0,344.0,633.0,1.0,0,333.0,1
1086,1086,-0.7724847145650608,-0.8,0.0,1.0,362.0,929.0,1.0,0,219.0,1
1087,1087,0.8007134511503445,0.8,1.0,1.0,263.0,726.0,1.0,1,131.0,1
1088,1088,-0.43071915167327296,-0.4,0.0,1.0,415.0,935.0,1.0,0,80.0,1
1089,1089,0.4106938250583959,0.4,0.0,0.0,290.0,645.0,0.0,1,395.0,1
1090,1090,0.553977468838024,0.6,1.0,1.0,331.0,579.0,1.0,1,300.0,1
1091,1091,0.5792818185611196,0.6,1.0,1.0,274.0,756.0,1.0,1,1020.0,1
1092,1092,-0.032161059930496005,-0.0,0.0,1.0,257.0,926.0,1.0,0,747.0,1
1093,1093,-0.8995517597183039,-0.9,1.0,0.0,378.0,873.0,0.0,0,179.0,1
1094,1094,0.7128863102643072,0.7,1.0,1.0,447.0,806.0,1.0,1,407.0,1
1095,1095,-0.6141524111492601,-0.6,1.0,0.0,470.0,574.0,0.0,0,386.0,1
1096,1096,-0.8903385960761325,-0.9,1.0,0.0,443.0,633.0,0.0,0,294.0,1
1097,1097,-0.19322680369142609,-0.2,0.0,1.0,398.0,668.0,1.0,0,544.0,1
1098,1098,-0.40294835024296893,-0.4,1.0,0.0,421.0,991.0,0.0,0,378.0,1
1099,1099,0.7643813183713396,0.8,1.0,1.0,358.0,578.0,1.0,1,354.0,1
1100,1100,0.324631872634232,0.3,0.0,0.0,251.0,975.0,0.0,1,104.0,1
1101,1101,-0.5360319210539961,-0.5,1.0,0.0,263.0,974.0,0.0,0,243.0,1
1102,1102,0.868773910204771,0.9,0.0,0.0,491.0,717.0,0.0,1,242.0,1
1103,1103,0.4659504937154414,0.5,0.0,0.0,404.0,922.0,0.0,1,344.0,1
1104,1104,-0.2967961032812947,-0.3,1.0,0.0,360.0,889.0,0.0,0,71.0,1
1105,1105,0.42420823458337253,0.4,0.0,0.0,450.0,786.0,0.0,1,164.0,1
1106,1106,-0.5477018950988761,-0.5,0.0,1.0,477.0,526.0,1.0,0,237.0,1
1107,1107,0.3779415214132552,0.4,0.0,0.0,376.0,985.0,0.0,1,369.0,1
1108,1108,0.3710602719759474,0.4,0.0,0.0,404.0,751.0,0.0,1,165.0,1
1109,1109,0.10450587246187781,0.1,0.0,0.0,370.0,681.0,1.0,0,619.0,0
1110,1110,-0.6726153905151749,-0.7,1.0,0.0,465.0,933.0,0.0,0,92.0,1
1111,1111,0.5915251692215816,0.6,0.0,0.0,420.0,593.0,0.0,1,587.0,1
1112,1112,0.520000544791316,0.5,1.0,1.0,488.0,791.0,1.0,1,411.0,1
1113,1113,-0.16470333798413395,-0.2,0.0,1.0,292.0,931.0,1.0,0,607.0,1
1114,1114,0.7923980341573696,0.8,1.0,1.0,389.0,925.0,1.0,1,716.0,1
1115,1115,0.862071762841227,0.9,0.0,0.0,297.0,562.0,0.0,1,381.0,1
1116,1116,-0.06216992953884892,-0.1,0.0,1.0,430.0,823.0,1.0,0,517.0,1
1117,1117,-0.70824313899961,-0.7,0.0,1.0,256.0,956.0,1.0,0,138.0,1
1118,1118,-0.8737300607176122,-0.9,0.0,1.0,369.0,730.0,1.0,0,311.0,1
1119,1119,0.8536858833565003,0.9,0.0,0.0,473.0,700.0,0.0,1,457.0,1
1120,1120,-0.10578358530687271,-0.1,0.0,1.0,314.0,670.0,1.0,0,1616.0,1
1121,1121,-0.36231244114964845,-0.4,1.0,0.0,347.0,707.0,0.0,0,486.0,1
1122,1122,0.4986491826488867,0.5,0.0,0.0,491.0,561.0,0.0,1,988.0,1
1123,1123,0.29910444157643556,0.3,0.0,0.0,326.0,893.0,0.0,1,231.0,1
1124,1124,0.5487879660549967,0.5,1.0,1.0,467.0,689.0,1.0,1,354.0,1
1125,1125,0.6035184930707748,0.6,0.0,0.0,395.0,903.0,0.0,1,282.0,1
1126,1126,-0.6981418082692754,-0.7,0.0,1.0,493.0,658.0,1.0,0,279.0,1
1127,1127,-0.47771532756624385,-0.5,0.0,1.0,325.0,958.0,1.0,0,67.0,1
1128,1128,0.8554615300737699,0.9,0.0,0.0,255.0,643.0,0.0,1,162.0,1
1129,1129,0.3589826503470629,0.4,1.0,1.0,398.0,722.0,1.0,1,600.0,1
1130,1130,-0.03699530926839589,-0.0,1.0,0.0,266.0,528.0,1.0,1,836.0,0
1131,1131,0.5969813915301382,0.6,1.0,1.0,405.0,857.0,1.0,1,18.0,1
1132,1132,0.47743121154753243,0.5,0.0,0.0,433.0,563.0,0.0,1,424.0,1
1133,1133,0.6667464783386626,0.7,0.0,0.0,457.0,956.0,0.0,1,147.0,1
1134,1134,0.13473817657917586,0.1,1.0,1.0,265.0,549.0,1.0,1,326.0,1
1135,1135,0.4517860682730267,0.5,1.0,1.0,336.0,773.0,1.0,1,411.0,1
1136,1136,-0.43899055879771853,-0.4,1.0,0.0,300.0,839.0,0.0,0,261.0,1
1137,1137,-0.8264518437735731,-0.8,0.0,1.0,282.0,508.0,1.0,0,290.0,1
1138,1138,0.16098072517795525,0.2,1.0,1.0,426.0,987.0,1.0,1,247.0,1
1139,1139,-0.6604401676883829,-0.7,0.0,1.0,467.0,702.0,1.0,0,211.0,1
1140,1140,0.7316490166776987,0.7,1.0,1.0,483.0,847.0,1.0,1,180.0,1
1141,1141,0.29611198178049214,0.3,1.0,1.0,385.0,516.0,1.0,1,389.0,1
1142,1142,-0.49883452396151934,-0.5,0.0,1.0,436.0,635.0,1.0,0,379.0,1
1143,1143,0.013042109602510621,0.0,1.0,1.0,324.0,635.0,0.0,0,1621.0,0
1144,1144,-0.843515125083166,-0.8,0.0,1.0,354.0,501.0,1.0,0,305.0,1
1145,1145,-0.8419094159346326,-0.8,1.0,0.0,441.0,541.0,0.0,0,348.0,1
1146,1146,0.5767689791342253,0.6,1.0,1.0,416.0,775.0,1.0,1,159.0,1
1147,1147,-0.29527219374421,-0.3,1.0,0.0,347.0,894.0,0.0,0,489.0,1
1148,1148,0.011481496571054128,0.0,0.0,0.0,461.0,588.0,1.0,0,1621.0,0
1149,1149,0.6549554735405639,0.7,1.0,1.0,459.0,759.0,1.0,1,362.0,1
1150,1150,0.7759416432543976,0.8,0.0,0.0,360.0,928.0,0.0,1,242.0,1
1151,1151,-0.48067269967534937,-0.5,0.0,1.0,319.0,946.0,1.0,0,295.0,1
1152,1152,0.21267114178432311,0.2,0.0,0.0,314.0,929.0,0.0,1,527.0,1
1153,1153,-0.43104479800454376,-0.4,1.0,0.0,425.0,500.0,0.0,0,585.0,1
1154,1154,-0.624125733565706,-0.6,1.0,0.0,312.0,620.0,0.0,0,218.0,1
1155,1155,0.5481360053524552,0.5,1.0,1.0,364.0,901.0,1.0,1,205.0,1
1156,1156,0.20924784223919912,0.2,1.0,1.0,300.0,801.0,1.0,1,509.0,1
1157,1157,-0.37894850922156886,-0.4,0.0,1.0,275.0,647.0,1.0,0,408.0,1
1158,1158,-0.783918728748044,-0.8,1.0,0.0,336.0,783.0,0.0,0,241.0,1
1159,1159,-0.014703031205640427,-0.0,0.0,1.0,487.0,999.0,1.0,0,404.0,1
1160,1160,0.876707414063903,0.9,1.0,1.0,272.0,839.0,1.0,1,429.0,1
1161,1161,0.667741805720727,0.7,0.0,0.0,325.0,569.0,0.0,1,416.0,1
1162,1162,-0.09584743408013185,-0.1,0.0,1.0,365.0,683.0,1.0,0,772.0,1
1163,1163,-0.8159025364746765,-0.8,1.0,0.0,345.0,899.0,0.0,0,226.0,1
1164,1164,-0.8037264571650802,-0.8,1.0,0.0,347.0,854.0,0.0,0,179.0,1
1165,1165,-0.46676122500123135,-0.5,0.0,1.0,397.0,987.0,1.0,0,236.0,1
1166,1166,0.8751119394564334,0.9,1.0,1.0,467.0,559.0,1.0,1,314.0,1
1167,1167,0.3760836153720616,0.4,0.0,0.0,440.0,635.0,0.0,1,715.0,1
1168,1168,0.25989615838012214,0.3,1.0,1.0,434.0,862.0,1.0,1,544.0,1
1169,1169,-0.5021935444723952,-0.5,0.0,1.0,267.0,984.0,1.0,0,169.0,1
1170,1170,0.41980797327754626,0.4,0.0,0.0,329.0,851.0,0.0,1,260.0,1
1171,1171,-0.30810499101568734,-0.3,0.0,1.0,283.0,535.0,1.0,0,542.0,1
1172,1172,0.5616423992580138,0.6,0.0,0.0,468.0,565.0,0.0,1,467.0,1
1173,1173,-0.37149534886253,-0.4,0.0,1.0,335.0,875.0,1.0,0,230.0,1
1174,1174,0.440009875983396,0.4,0.0,0.0,290.0,614.0,0.0,1,666.0,1
1175,1175,0.8857507810886344,0.9,0.0,0.0,471.0,996.0,0.0,1,63.0,1
1176,1176,-0.4336532251237465,-0.4,1.0,0.0,437.0,989.0,0.0,0,284.0,1
1177,1177,-0.3242950154088584,-0.3,0.0,1.0,483.0,951.0,1.0,0,236.0,1
1178,1178,-0.2596387674226266,-0.3,0.0,1.0,366.0,719.0,1.0,0,285.0,1
1179,1179,-0.36391115498272886,-0.4,1.0,0.0,371.0,923.0,0.0,0,106.0,1
1180,1180,-0.06099648701370852,-0.1,1.0,0.0,273.0,820.0,1.0,1,737.0,0
1181,1181,0.6364668007288471,0.6,0.0,0.0,450.0,620.0,0.0,1,280.0,1
1182,1182,0.07318285370180189,0.1,0.0,0.0,406.0,848.0,1.0,0,3296.0,0
1183,1183,0.7696450477811244,0.8,1.0,1.0,442.0,895.0,1.0,1,113.0,1
1184,1184,0.32037269691305703,0.3,1.0,1.0,431.0,563.0,1.0,1,396.0,1
1185,1185,0.018422928897227964,0.0,1.0,1.0,273.0,888.0,1.0,1,909.0,1
1186,1186,-0.38608366938310523,-0.4,1.0,0.0,276.0,892.0,0.0,0,182.0,1
1187,1187,0.8020168789366976,0.8,1.0,1.0,353.0,894.0,1.0,1,143.0,1
1188,1188,-0.05952311072151106,-0.1,0.0,1.0,402.0,762.0,1.0,0,476.0,1
1189,1189,-0.7802746348874473,-0.8,0.0,1.0,434.0,859.0,1.0,0,347.0,1
1190,1190,0.7484971887292028,0.7,1.0,1.0,385.0,917.0,1.0,1,-32.0,1
1191,1191,0.6061431643661498,0.6,0.0,0.0,375.0,781.0,0.0,1,584.0,1
1192,1192,-0.21307653680847805,-0.2,0.0,1.0,281.0,659.0,1.0,0,270.0,1
1193,1193,0.2948490656316557,0.3,1.0,1.0,435.0,584.0,1.0,1,311.0,1
1194,1194,-0.2997979125443041,-0.3,0.0,1.0,324.0,595.0,1.0,0,431.0,1
1195,1195,-0.30043397439967634,-0.3,0.0,1.0,329.0,937.0,1.0,0,494.0,1
1196,1196,-0.5243119986069398,-0.5,1.0,0.0,471.0,884.0,0.0,0,315.0,1
1197,1197,-0.87550644643575,-0.9,0.0,1.0,409.0,912.0,1.0,0,49.0,1
1198,1198,-0.2132433743611326,-0.2,0.0,1.0,471.0,523.0,1.0,0,556.0,1
1199,1199,-0.7357946058814832,-0.7,0.0,1.0,274.0,775.0,1.0,0,161.0,1
1200,1200,0.2548672392403696,0.3,0.0,0.0,286.0,931.0,0.0,1,433.0,1
1201,1201,-0.583744753631069,-0.6,0.0,1.0,419.0,879.0,1.0,0,292.0,1
1202,1202,0.2987437192376755,0.3,0.0,0.0,325.0,765.0,0.0,1,960.0,1
1203,1203,-0.6455628636745311,-0.6,0.0,1.0,324.0,646.0,1.0,0,310.0,1
1204,1204,0.08144771292869546,0.1,0.0,0.0,306.0,705.0,0.0,1,1319.0,1
1205,1205,-0.5306063144072966,-0.5,0.0,1.0,437.0,552.0,1.0,0,431.0,1
1206,1206,-0.27539512861553406,-0.3,1.0,0.0,438.0,762.0,0.0,0,300.0,1
1207,1207,-0.8298175140782689,-0.8,0.0,1.0,272.0,821.0,1.0,0,227.0,1
1208,1208,0.5771402175734638,0.6,0.0,0.0,393.0,998.0,0.0,1,209.0,1
1209,1209,-0.8614732470941504,-0.9,1.0,0.0,401.0,731.0,0.0,0,158.0,1
1210,1210,-0.5679530146767864,-0.6,1.0,0.0,359.0,758.0,0.0,0,163.0,1
1211,1211,0.7545849770719627,0.8,0.0,0.0,495.0,894.0,0.0,1,111.0,1
1212,1212,-0.735329949187366,-0.7,0.0,1.0,496.0,677.0,1.0,0,207.0,1
1213,1213,0.2710108087126434,0.3,0.0,0.0,449.0,595.0,0.0,1,736.0,1
1214,1214,-0.027407209475821537,-0.0,0.0,1.0,473.0,548.0,1.0,0,619.0,1
1215,1215,0.6088944370161676,0.6,1.0,1.0,498.0,868.0,1.0,1,214.0,1
1216,1216,-0.37478676857336757,-0.4,1.0,0.0,346.0,975.0,0.0,0,229.0,1
1217,1217,-0.028020537565281445,-0.0,1.0,0.0,486.0,594.0,1.0,1,980.0,0
1218,1218,-0.6762982364128108,-0.7,1.0,0.0,310.0,862.0,0.0,0,318.0,1
1219,1219,0.5789368039859383,0.6,0.0,0.0,442.0,516.0,0.0,1,462.0,1
1220,1220,0.030500770698687618,0.0,0.0,0.0,496.0,850.0,1.0,0,1114.0,0
1221,1221,0.7628895604996836,0.8,1.0,1.0,481.0,683.0,1.0,1,266.0,1
1222,1222,-0.2995063202513779,-0.3,1.0,0.0,404.0,927.0,0.0,0,169.0,1
1223,1223,0.4376038183065242,0.4,0.0,0.0,336.0,832.0,0.0,1,392.0,1
1224,1224,-0.44293399152431734,-0.4,0.0,1.0,294.0,598.0,1.0,0,238.0,1
1225,1225,-0.6749425217096358,-0.7,0.0,1.0,445.0,867.0,1.0,0,188.0,1
1226,1226,0.499818405359964,0.5,1.0,1.0,264.0,689.0,1.0,1,327.0,1
1227,1227,0.6977638551332815,0.7,0.0,0.0,400.0,564.0,0.0,1,236.0,1
1228,1228,0.7408870939634259,0.7,0.0,0.0,445.0,864.0,0.0,1,101.0,1
1229,1229,-0.8650049632186562,-0.9,0.0,1.0,432.0,594.0,1.0,0,374.0,1
1230,1230,-0.6216497217817039,-0.6,0.0,1.0,391.0,953.0,1.0,0,86.0,1
1231,1231,0.49158298632452835,0.5,1.0,1.0,317.0,625.0,1.0,1,218.0,1
1232,1232,0.7865676169741466,0.8,1.0,1.0,305.0,967.0,1.0,1,18.0,1
1233,1233,-0.42191804760707735,-0.4,0.0,1.0,336.0,774.0,1.0,0,290.0,1
1234,1234,-0.7751032699000446,-0.8,0.0,1.0,254.0,613.0,1.0,0,473.0,1
1235,1235,0.3887976410764885,0.4,1.0,1.0,317.0,858.0,1.0,1,215.0,1
1236,1236,-0.3238181634401064,-0.3,1.0,0.0,373.0,936.0,0.0,0,601.0,1
1237,1237,-0.7916972823900716,-0.8,0.0,1.0,316.0,922.0,1.0,0,232.0,1
1238,1238,-0.12318053088846936,-0.1,0.0,1.0,406.0,668.0,1.0,0,386.0,1
1239,1239,0.40560500330013805,0.4,1.0,1.0,418.0,797.0,1.0,1,355.0,1
1240,1240,0.06182552733488633,0.1,1.0,1.0,339.0,557.0,1.0,1,2234.0,1
1241,1241,0.3468730708662592,0.3,0.0,0.0,478.0,808.0,0.0,1,534.0,1
1242,1242,-0.15516328607222407,-0.2,1.0,0.0,317.0,555.0,0.0,0,608.0,1
1243,1243,0.13082451202825662,0.1,1.0,1.0,400.0,961.0,1.0,1,399.0,1
1244,1244,-0.7136213953408082,-0.7,1.0,0.0,436.0,910.0,0.0,0,224.0,1
1245,1245,0.461785144433725,0.5,1.0,1.0,334.0,563.0,1.0,1,393.0,1
1246,1246,0.14761495669011315,0.1,1.0,1.0,342.0,802.0,1.0,1,376.0,1
1247,1247,-0.5243485164468036,-0.5,0.0,1.0,274.0,910.0,1.0,0,266.0,1
1248,1248,-0.7840611260546446,-0.8,1.0,0.0,324.0,612.0,0.0,0,344.0,1
1249,1249,0.3276978239727616,0.3,0.0,0.0,255.0,915.0,0.0,1,1460.0,1
1250,1250,0.32954714461981005,0.3,1.0,1.0,277.0,905.0,1.0,1,548.0,1
1251,1251,-0.3175331363025171,-0.3,0.0,1.0,327.0,964.0,1.0,0,89.0,1
1252,1252,-0.6275062816772814,-0.6,0.0,1.0,466.0,955.0,1.0,0,219.0,1
1253,1253,0.610134141116684,0.6,0.0,0.0,327.0,650.0,0.0,1,1183.0,1
1254,1254,0.30701753924656716,0.3,1.0,1.0,430.0,543.0,1.0,1,557.0,1
1255,1255,-0.6194261028883109,-0.6,1.0,0.0,349.0,896.0,0.0,0,215.0,1
1256,1256,0.07379429588461606,0.1,0.0,0.0,357.0,665.0,1.0,0,2628.0,0
1257,1257,0.833123204555431,0.8,0.0,0.0,476.0,609.0,0.0,1,525.0,1
1258,1258,0.6604113770374981,0.7,1.0,1.0,269.0,841.0,1.0,1,180.0,1
1259,1259,0.262021712117687,0.3,1.0,1.0,253.0,748.0,1.0,1,309.0,1
1260,1260,0.1401745191689926,0.1,0.0,0.0,313.0,703.0,0.0,1,674.0,1
1261,1261,0.4905689399450649,0.5,1.0,1.0,445.0,537.0,1.0,1,768.0,1
1262,1262,-0.64496668167459,-0.6,0.0,1.0,458.0,699.0,1.0,0,253.0,1
1263,1263,0.6603190146811039,0.7,0.0,0.0,276.0,629.0,0.0,1,225.0,1
1264,1264,0.6145117003192663,0.6,0.0,0.0,282.0,731.0,0.0,1,407.0,1
1265,1265,-0.7748866560651165,-0.8,0.0,1.0,420.0,687.0,1.0,0,273.0,1
1266,1266,-0.26824914622484664,-0.3,0.0,1.0,336.0,873.0,1.0,0,421.0,1
1267,1267,-0.09644803295248427,-0.1,0.0,1.0,370.0,873.0,1.0,0,707.0,1
1268,1268,-0.1421987117550122,-0.1,1.0,0.0,456.0,650.0,0.0,0,404.0,1
1269,1269,0.008202310722682515,0.0,0.0,0.0,471.0,527.0,1.0,0,1522.0,0
1270,1270,0.412359220928768,0.4,0.0,0.0,265.0,594.0,0.0,1,681.0,1
1271,1271,-0.310105368519871,-0.3,1.0,0.0,446.0,786.0,0.0,0,248.0,1
1272,1272,0.32970556477140234,0.3,0.0,0.0,367.0,526.0,0.0,1,377.0,1
1273,1273,0.325675775234641,0.3,1.0,1.0,485.0,942.0,1.0,1,143.0,1
1274,1274,-0.26808127037092866,-0.3,1.0,0.0,388.0,782.0,0.0,0,250.0,1
1275,1275,0.4077848205736473,0.4,0.0,0.0,278.0,674.0,0.0,1,238.0,1
1276,1276,0.0007473988136318388,0.0,0.0,0.0,468.0,908.0,1.0,0,1224.0,0
1277,1277,-0.21068838590249273,-0.2,0.0,1.0,313.0,858.0,1.0,0,719.0,1
1278,1278,0.470418046647452,0.5,1.0,1.0,436.0,678.0,1.0,1,346.0,1
1279,1279,0.5386576335370562,0.5,1.0,1.0,493.0,684.0,1.0,1,203.0,1
1280,1280,0.6486245936697598,0.6,0.0,0.0,469.0,764.0,0.0,1,427.0,1
1281,1281,0.09698760565802844,0.1,1.0,1.0,348.0,944.0,1.0,1,878.0,1
1282,1282,0.008868960362431899,0.0,1.0,1.0,387.0,687.0,1.0,1,1116.0,1
1283,1283,-0.0006854394955894128,-0.0,0.0,1.0,325.0,810.0,1.0,0,685.0,1
1284,1284,-0.34460553765295676,-0.3,1.0,0.0,396.0,632.0,0.0,0,392.0,1
1285,1285,0.25275687098155475,0.3,0.0,0.0,308.0,699.0,0.0,1,1163.0,1
1286,1286,0.44144165044467487,0.4,1.0,1.0,411.0,686.0,1.0,1,583.0,1
1287,1287,-0.8247821899747622,-0.8,1.0,0.0,368.0,937.0,0.0,0,95.0,1
1288,1288,-0.058027019574415584,-0.1,0.0,1.0,471.0,948.0,1.0,0,221.0,1
1289,1289,-0.7668554755139271,-0.8,1.0,0.0,288.0,851.0,0.0,0,181.0,1
1290,1290,0.47450973118696804,0.5,1.0,1.0,321.0,503.0,1.0,1,346.0,1
1291,1291,-0.7532418443251186,-0.8,0.0,1.0,293.0,793.0,1.0,0,144.0,1
1292,1292,0.5216518220105061,0.5,1.0,1.0,273.0,826.0,1.0,1,361.0,1
1293,1293,0.4608134498762658,0.5,0.0,0.0,264.0,837.0,0.0,1,299.0,1
1294,1294,-0.514631422781146,-0.5,1.0,0.0,324.0,804.0,0.0,0,282.0,1
1295,1295,-0.8071996013777838,-0.8,0.0,1.0,299.0,561.0,1.0,0,280.0,1
1296,1296,-0.15288679610558042,-0.2,0.0,1.0,483.0,930.0,1.0,0,37.0,1
1297,1297,0.09129607843217158,0.1,0.0,0.0,390.0,519.0,0.0,1,721.0,1
1298,1298,-0.31280822961918275,-0.3,0.0,1.0,424.0,829.0,1.0,0,307.0,1
1299,1299,-0.08733377618281224,-0.1,0.0,1.0,369.0,797.0,1.0,0,1384.0,1
1300,1300,0.12428907890589447,0.1,1.0,1.0,468.0,722.0,1.0,1,400.0,1
1301,1301,0.8976891392479401,0.9,1.0,1.0,373.0,965.0,1.0,1,142.0,1
1302,1302,-0.48557462931901135,-0.5,1.0,0.0,287.0,569.0,0.0,0,404.0,1
1303,1303,0.43161206443510747,0.4,1.0,1.0,269.0,802.0,1.0,1,239.0,1
1304,1304,-0.16459973143244344,-0.2,0.0,1.0,367.0,834.0,1.0,0,379.0,1
1305,1305,-0.06834046091427903,-0.1,1.0,0.0,328.0,947.0,0.0,0,1215.0,1
1306,1306,-0.7810020013665347,-0.8,1.0,0.0,469.0,621.0,0.0,0,210.0,1
1307,1307,-0.1925156107069742,-0.2,0.0,1.0,476.0,980.0,1.0,0,304.0,1
1308,1308,0.6337634576152186,0.6,0.0,0.0,300.0,993.0,0.0,1,197.0,1
1309,1309,-0.8566129882682416,-0.9,1.0,0.0,330.0,726.0,0.0,0,254.0,1
1310,1310,-0.536893696156818,-0.5,0.0,1.0,374.0,633.0,1.0,0,353.0,1
1311,1311,0.37208420566847045,0.4,1.0,1.0,445.0,796.0,1.0,1,269.0,1
1312,1312,0.07748775759281434,0.1,1.0,1.0,317.0,707.0,1.0,1,766.0,1
1313,1313,0.8684185507718128,0.9,0.0,0.0,354.0,875.0,0.0,1,121.0,1
1314,1314,-0.01522120474241384,-0.0,0.0,1.0,458.0,567.0,0.0,1,3975.0,0
1315,1315,0.14939496662719576,0.1,0.0,0.0,334.0,520.0,0.0,1,1866.0,1
1316,1316,0.024967493409794095,0.0,0.0,0.0,488.0,805.0,1.0,0,1147.0,0
1317,1317,0.6816793149895944,0.7,1.0,1.0,300.0,925.0,1.0,1,125.0,1
1318,1318,0.7517106743787388,0.8,1.0,1.0,400.0,563.0,1.0,1,307.0,1
1319,1319,0.23683619960370061,0.2,1.0,1.0,411.0,538.0,1.0,1,671.0,1
1320,1320,-0.7569852281129964,-0.8,1.0,0.0,302.0,764.0,0.0,0,294.0,1
1321,1321,0.7130719453302744,0.7,1.0,1.0,457.0,913.0,1.0,1,130.0,1
1322,1322,0.5973649798329853,0.6,0.0,0.0,375.0,545.0,0.0,1,570.0,1
1323,1323,-0.43385460009877164,-0.4,1.0,0.0,457.0,903.0,0.0,0,190.0,1
1324,1324,0.13986228864796224,0.1,0.0,0.0,443.0,924.0,0.0,1,423.0,1
1325,1325,-0.72167586470346,-0.7,0.0,1.0,296.0,723.0,1.0,0,221.0,1
1326,1326,0.8760485558303915,0.9,1.0,1.0,263.0,920.0,1.0,1,327.0,1
1327,1327,-0.4744529576710334,-0.5,0.0,1.0,384.0,538.0,1.0,0,378.0,1
1328,1328,0.754647935690269,0.8,1.0,1.0,293.0,901.0,1.0,1,146.0,1
1329,1329,-0.7529119221603765,-0.8,0.0,1.0,464.0,933.0,1.0,0,213.0,1
1330,1330,0.2060426988158638,0.2,1.0,1.0,443.0,739.0,1.0,1,528.0,1
1331,1331,0.01938088095608137,0.0,1.0,1.0,377.0,528.0,1.0,1,1955.0,1
1332,1332,0.756737959206372,0.8,1.0,1.0,312.0,773.0,1.0,1,345.0,1
1333,1333,-0.5878009322046278,-0.6,1.0,0.0,315.0,903.0,0.0,0,202.0,1
1334,1334,-0.7166720419849232,-0.7,0.0,1.0,390.0,856.0,1.0,0,74.0,1
1335,1335,0.8410401277092311,0.8,1.0,1.0,479.0,966.0,1.0,1,225.0,1
1336,1336,-0.885328098619863,-0.9,1.0,0.0,380.0,532.0,0.0,0,298.0,1
1337,1337,0.7046054278852051,0.7,0.0,0.0,486.0,678.0,0.0,1,396.0,1
1338,1338,-0.22262402022458305,-0.2,1.0,0.0,306.0,826.0,0.0,0,238.0,1
1339,1339,0.27902974729616214,0.3,0.0,0.0,455.0,789.0,0.0,1,266.0,1
1340,1340,0.08164180911187502,0.1,0.0,0.0,342.0,857.0,1.0,0,401.0,0
1341,1341,0.31454503831941605,0.3,1.0,1.0,467.0,599.0,1.0,1,604.0,1
1342,1342,0.4332261978209214,0.4,1.0,1.0,299.0,653.0,1.0,1,278.0,1
1343,1343,0.2543052714126558,0.3,1.0,1.0,443.0,822.0,1.0,1,255.0,1
1344,1344,-0.24874416125184273,-0.2,0.0,1.0,416.0,980.0,1.0,0,194.0,1
1345,1345,-0.1759139416536103,-0.2,1.0,0.0,464.0,795.0,0.0,0,391.0,1
1346,1346,0.07546142082128116,0.1,0.0,0.0,316.0,997.0,0.0,1,877.0,1
1347,1347,-0.23327189036970764,-0.2,1.0,0.0,372.0,705.0,0.0,0,1143.0,1
1348,1348,0.25051640562752586,0.3,1.0,1.0,263.0,542.0,1.0,1,585.0,1
1349,1349,0.27016224367842934,0.3,1.0,1.0,293.0,802.0,1.0,1,635.0,1
1350,1350,-0.8257105149146864,-0.8,1.0,0.0,336.0,659.0,0.0,0,235.0,1
1351,1351,0.14974743992211803,0.1,1.0,1.0,296.0,606.0,1.0,1,658.0,1
1352,1352,0.5488669235136311,0.5,0.0,0.0,269.0,638.0,0.0,1,263.0,1
1353,1353,0.6018320809839742,0.6,0.0,0.0,409.0,896.0,0.0,1,235.0,1
1354,1354,-0.8449939273773557,-0.8,0.0,1.0,358.0,540.0,1.0,0,282.0,1
1355,1355,0.26704606659949015,0.3,1.0,1.0,405.0,778.0,1.0,1,547.0,1
1356,1356,-0.3958371775857644,-0.4,0.0,1.0,488.0,982.0,1.0,0,460.0,1
1357,1357,-0.11521655138976483,-0.1,1.0,0.0,342.0,659.0,1.0,1,2299.0,0
1358,1358,-0.4366801659851959,-0.4,0.0,1.0,445.0,786.0,1.0,0,629.0,1
1359,1359,-0.572969944005719,-0.6,1.0,0.0,405.0,776.0,0.0,0,249.0,1
1360,1360,0.828094346448308,0.8,1.0,1.0,406.0,668.0,1.0,1,256.0,1
1361,1361,-0.41752455412214284,-0.4,1.0,0.0,275.0,792.0,0.0,0,173.0,1
1362,1362,0.5852103938247349,0.6,1.0,1.0,449.0,686.0,1.0,1,245.0,1
1363,1363,0.0703066350935293,0.1,1.0,1.0,464.0,551.0,1.0,1,545.0,1
1364,1364,-0.2353264782767699,-0.2,0.0,1.0,293.0,982.0,1.0,0,245.0,1
1365,1365,-0.7763993241947711,-0.8,1.0,0.0,346.0,632.0,0.0,0,302.0,1
1366,1366,-0.35754838319639326,-0.4,1.0,0.0,444.0,858.0,0.0,0,268.0,1
1367,1367,0.2621430144342719,0.3,0.0,0.0,261.0,609.0,0.0,1,460.0,1
1368,1368,-0.6559330149947529,-0.7,1.0,0.0,326.0,763.0,0.0,0,281.0,1
1369,1369,0.5966364322238799,0.6,1.0,1.0,262.0,925.0,1.0,1,113.0,1
1370,1370,0.6296414923747348,0.6,0.0,0.0,477.0,505.0,0.0,1,638.0,1
1371,1371,-0.5612590261535364,-0.6,0.0,1.0,318.0,707.0,1.0,0,155.0,1
1372,1372,0.8565589024275503,0.9,0.0,0.0,483.0,555.0,0.0,1,262.0,1
1373,1373,0.7564802100250708,0.8,0.0,0.0,471.0,610.0,0.0,1,329.0,1
1374,1374,-0.8753291416107596,-0.9,0.0,1.0,384.0,943.0,1.0,0,143.0,1
1375,1375,0.19185661222504036,0.2,0.0,0.0,358.0,998.0,0.0,1,1044.0,1
1376,1376,-0.13692984746255332,-0.1,0.0,1.0,332.0,800.0,1.0,0,638.0,1
1377,1377,-0.7617657583647992,-0.8,0.0,1.0,430.0,850.0,1.0,0,80.0,1
1378,1378,-0.11448059348872497,-0.1,1.0,0.0,433.0,847.0,1.0,1,1070.0,0
1379,1379,-0.20233952585242942,-0.2,0.0,1.0,387.0,947.0,1.0,0,406.0,1
1380,1380,0.09791261718664279,0.1,0.0,0.0,267.0,978.0,1.0,0,3755.0,0
1381,1381,0.8073654320390601,0.8,0.0,0.0,371.0,944.0,0.0,1,1005.0,1
1382,1382,0.25026918654412145,0.3,1.0,1.0,267.0,880.0,1.0,1,573.0,1
1383,1383,-0.5825977483399332,-0.6,1.0,0.0,483.0,637.0,0.0,0,520.0,1
1384,1384,-0.2621905525674816,-0.3,0.0,1.0,322.0,935.0,1.0,0,-97.0,1
1385,1385,0.6423740198315394,0.6,0.0,0.0,314.0,798.0,0.0,1,498.0,1
1386,1386,0.09985481742042823,0.1,0.0,0.0,325.0,783.0,0.0,1,3322.0,1
1387,1387,0.12648550177481555,0.1,0.0,0.0,405.0,603.0,0.0,1,1092.0,1
1388,1388,0.2087258594304814,0.2,0.0,0.0,269.0,703.0,0.0,1,338.0,1
1389,1389,0.5247489675947873,0.5,0.0,0.0,459.0,917.0,0.0,1,284.0,1
1390,1390,-0.6274312871571561,-0.6,1.0,0.0,385.0,927.0,0.0,0,78.0,1
1391,1391,-0.2465510135257144,-0.2,1.0,0.0,463.0,502.0,0.0,0,525.0,1
1392,1392,-0.4788643606665237,-0.5,0.0,1.0,448.0,957.0,1.0,0,395.0,1
1393,1393,-0.3275280973025324,-0.3,0.0,1.0,472.0,676.0,1.0,0,362.0,1
1394,1394,-0.3683073743581413,-0.4,1.0,0.0,276.0,881.0,0.0,0,103.0,1
1395,1395,0.6084339359283829,0.6,1.0,1.0,396.0,995.0,1.0,1,119.0,1
1396,1396,0.285232570605768,0.3,0.0,0.0,372.0,939.0,0.0,1,789.0,1
1397,1397,-0.7960700558072257,-0.8,1.0,0.0,474.0,631.0,0.0,0,235.0,1
1398,1398,-0.09710852191317854,-0.1,0.0,1.0,376.0,540.0,1.0,0,504.0,1
1399,1399,0.1635329800824118,0.2,1.0,1.0,491.0,783.0,1.0,1,876.0,1
1400,1400,-0.46083593750457363,-0.5,1.0,0.0,294.0,775.0,0.0,0,121.0,1
1401,1401,0.6929362318379534,0.7,0.0,0.0,273.0,616.0,0.0,1,651.0,1
1402,1402,0.2655213007042191,0.3,0.0,0.0,395.0,776.0,0.0,1,899.0,1
1403,1403,-0.17524607249073465,-0.2,1.0,0.0,367.0,537.0,0.0,0,2456.0,1
1404,1404,0.6373525256281275,0.6,1.0,1.0,495.0,709.0,1.0,1,386.0,1
1405,1405,-0.7906594003137469,-0.8,0.0,1.0,412.0,610.0,1.0,0,278.0,1
1406,1406,-0.8934715323923922,-0.9,1.0,0.0,336.0,819.0,0.0,0,195.0,1
1407,1407,-0.1890002448614697,-0.2,1.0,0.0,355.0,921.0,0.0,0,754.0,1
1408,1408,0.11202832829407294,0.1,1.0,1.0,420.0,903.0,1.0,1,417.0,1
1409,1409,0.33152763932673,0.3,1.0,1.0,493.0,702.0,1.0,1,365.0,1
1410,1410,-0.4163565347454178,-0.4,1.0,0.0,279.0,954.0,0.0,0,307.0,1
1411,1411,0.559626843987234,0.6,1.0,1.0,256.0,838.0,1.0,1,896.0,1
1412,1412,0.5738413250125659,0.6,0.0,0.0,334.0,665.0,0.0,1,701.0,1
1413,1413,0.7134008280152052,0.7,1.0,1.0,407.0,919.0,1.0,1,54.0,1
1414,1414,0.7303903435442273,0.7,0.0,0.0,364.0,567.0,0.0,1,549.0,1
1415,1415,0.10062933750175251,0.1,0.0,0.0,468.0,915.0,0.0,1,737.0,1
1416,1416,-0.4140071773616506,-0.4,0.0,1.0,310.0,655.0,1.0,0,255.0,1
1417,1417,0.7630176222861161,0.8,1.0,1.0,260.0,720.0,1.0,1,260.0,1
1418,1418,-0.5086048476130212,-0.5,0.0,1.0,485.0,926.0,1.0,0,119.0,1
1419,1419,0.5777757523000439,0.6,0.0,0.0,278.0,938.0,0.0,1,294.0,1
1420,1420,0.1861636253654647,0.2,0.0,0.0,440.0,801.0,0.0,1,2079.0,1
1421,1421,0.4822759485166134,0.5,1.0,1.0,353.0,768.0,1.0,1,309.0,1
1422,1422,-0.3354951300990078,-0.3,0.0,1.0,282.0,843.0,1.0,0,235.0,1
1423,1423,-0.6375615603387625,-0.6,0.0,1.0,301.0,670.0,1.0,0,79.0,1
1424,1424,-0.2877177707519277,-0.3,1.0,0.0,404.0,830.0,0.0,0,466.0,1
1425,1425,0.8895277303561667,0.9,0.0,0.0,481.0,816.0,0.0,1,133.0,1
1426,1426,0.0287259456991511,0.0,0.0,0.0,330.0,521.0,0.0,1,1069.0,1
1427,1427,0.4836067225988808,0.5,1.0,1.0,472.0,562.0,1.0,1,316.0,1
1428,1428,-0.7596518756558535,-0.8,1.0,0.0,379.0,874.0,0.0,0,47.0,1
1429,1429,0.3285428590983882,0.3,1.0,1.0,452.0,948.0,1.0,1,390.0,1
1430,1430,-0.7006800743659698,-0.7,0.0,1.0,427.0,728.0,1.0,0,385.0,1
1431,1431,-0.6676872634451979,-0.7,0.0,1.0,385.0,716.0,1.0,0,109.0,1
1432,1432,-0.6217478385422581,-0.6,0.0,1.0,286.0,883.0,1.0,0,111.0,1
1433,1433,-0.2202611489803904,-0.2,0.0,1.0,380.0,987.0,1.0,0,173.0,1
1434,1434,-0.8671963453746636,-0.9,0.0,1.0,445.0,792.0,1.0,0,103.0,1
1435,1435,0.5071544247875138,0.5,0.0,0.0,384.0,753.0,0.0,1,253.0,1
1436,1436,-0.3106728759798807,-0.3,1.0,0.0,314.0,860.0,0.0,0,376.0,1
1437,1437,-0.31351939041961663,-0.3,0.0,1.0,362.0,545.0,1.0,0,593.0,1
1438,1438,0.2956077439012418,0.3,1.0,1.0,337.0,596.0,1.0,1,707.0,1
1439,1439,-0.2238453461318043,-0.2,1.0,0.0,481.0,744.0,0.0,0,1015.0,1
1440,1440,0.852591007454233,0.9,0.0,0.0,300.0,718.0,0.0,1,52.0,1
1441,1441,0.5694173804307446,0.6,1.0,1.0,453.0,899.0,1.0,1,128.0,1
1442,1442,0.09835372999993197,0.1,0.0,0.0,328.0,936.0,1.0,0,496.0,0
1443,1443,0.24753452838133116,0.2,1.0,1.0,256.0,797.0,1.0,1,497.0,1
1444,1444,0.7063276179353936,0.7,1.0,1.0,440.0,745.0,1.0,1,195.0,1
1445,1445,-0.8328432763582981,-0.8,0.0,1.0,491.0,510.0,1.0,0,249.0,1
1446,1446,0.2793504956105691,0.3,1.0,1.0,405.0,715.0,1.0,1,440.0,1
1447,1447,0.09023622005499621,0.1,1.0,1.0,366.0,766.0,1.0,1,668.0,1
1448,1448,-0.22141969476203383,-0.2,0.0,1.0,402.0,714.0,1.0,0,264.0,1
1449,1449,-0.5556920837325431,-0.6,0.0,1.0,276.0,734.0,1.0,0,390.0,1
1450,1450,0.1492753225078166,0.1,0.0,0.0,259.0,575.0,0.0,1,1266.0,1
1451,1451,-0.2468600763692539,-0.2,0.0,1.0,495.0,927.0,1.0,0,258.0,1
1452,1452,-0.3634173890770209,-0.4,1.0,0.0,260.0,780.0,0.0,0,500.0,1
1453,1453,0.6270072342898235,0.6,1.0,1.0,371.0,978.0,1.0,1,471.0,1
1454,1454,-0.3988176405126853,-0.4,1.0,0.0,295.0,773.0,0.0,0,532.0,1
1455,1455,0.7979143448381855,0.8,1.0,1.0,395.0,720.0,1.0,1,715.0,1
1456,1456,0.6948686713477309,0.7,0.0,0.0,269.0,770.0,0.0,1,191.0,1
1457,1457,0.32357260039192737,0.3,0.0,0.0,434.0,707.0,0.0,1,399.0,1
1458,1458,-0.18774412758307368,-0.2,0.0,1.0,329.0,510.0,1.0,0,481.0,1
1459,1459,0.7493807016666952,0.7,1.0,1.0,451.0,797.0,1.0,1,262.0,1
1460,1460,-0.0033598392880115346,-0.0,0.0,1.0,357.0,609.0,1.0,0,1314.0,1
1461,1461,0.80087350490897,0.8,0.0,0.0,446.0,593.0,0.0,1,201.0,1
1462,1462,-0.2549560414739517,-0.3,1.0,0.0,303.0,986.0,0.0,0,231.0,1
1463,1463,-0.8211531180365877,-0.8,0.0,1.0,439.0,784.0,1.0,0,207.0,1
1464,1464,0.332072126898061,0.3,0.0,0.0,394.0,985.0,0.0,1,251.0,1
1465,1465,-0.02008878075020215,-0.0,0.0,1.0,312.0,704.0,1.0,0,2334.0,1
1466,1466,0.13641542242024574,0.1,1.0,1.0,448.0,898.0,1.0,1,414.0,1
1467,1467,0.7095648901619499,0.7,0.0,0.0,319.0,510.0,0.0,1,331.0,1
1468,1468,-0.6042698977817516,-0.6,1.0,0.0,273.0,654.0,0.0,0,463.0,1
1469,1469,0.36349344272165596,0.4,0.0,0.0,378.0,632.0,0.0,1,410.0,1
1470,1470,-0.2576110327486204,-0.3,1.0,0.0,359.0,621.0,0.0,0,410.0,1
1471,1471,0.2827453921517683,0.3,0.0,0.0,481.0,626.0,0.0,1,393.0,1
1472,1472,0.25832348221715307,0.3,0.0,0.0,256.0,513.0,0.0,1,681.0,1
1473,1473,0.260098415662226,0.3,1.0,1.0,307.0,582.0,1.0,1,421.0,1
1474,1474,0.8868999346915475,0.9,1.0,1.0,484.0,648.0,1.0,1,758.0,1
1475,1475,-0.7021632013860037,-0.7,0.0,1.0,400.0,518.0,1.0,0,202.0,1
1476,1476,-0.6038094829938003,-0.6,1.0,0.0,408.0,679.0,0.0,0,313.0,1
1477,1477,0.835231007603395,0.8,0.0,0.0,390.0,895.0,0.0,1,145.0,1
1478,1478,0.8005405063991063,0.8,0.0,0.0,304.0,654.0,0.0,1,152.0,1
1479,1479,0.4017477585659167,0.4,0.0,0.0,274.0,850.0,0.0,1,86.0,1
1480,1480,-0.3713172011468633,-0.4,0.0,1.0,359.0,926.0,1.0,0,135.0,1
1481,1481,-0.7932847106131983,-0.8,0.0,1.0,302.0,721.0,1.0,0,217.0,1
1482,1482,0.8014217513961025,0.8,0.0,0.0,411.0,759.0,0.0,1,440.0,1
1483,1483,-0.8407762013084858,-0.8,0.0,1.0,476.0,714.0,1.0,0,220.0,1
1484,1484,-0.33708601017973716,-0.3,0.0,1.0,331.0,869.0,1.0,0,220.0,1
1485,1485,0.5542188244596745,0.6,0.0,0.0,325.0,808.0,0.0,1,177.0,1
1486,1486,0.8398619649527149,0.8,0.0,0.0,313.0,620.0,0.0,1,257.0,1
1487,1487,0.6129543569731831,0.6,0.0,0.0,452.0,725.0,0.0,1,423.0,1
1488,1488,-0.782492371817449,-0.8,1.0,0.0,476.0,555.0,0.0,0,209.0,1
1489,1489,-0.871611669612051,-0.9,0.0,1.0,373.0,664.0,1.0,0,343.0,1
1490,1490,0.5585931570631691,0.6,0.0,0.0,286.0,939.0,0.0,1,155.0,1
1491,1491,0.16357416835770267,0.2,1.0,1.0,325.0,550.0,1.0,1,725.0,1
1492,1492,-0.5887837933450976,-0.6,0.0,1.0,369.0,576.0,1.0,0,445.0,1
