,trial,coherence,coherence_bin,green_side,correct_side,target_onset,checker_onset,decision,green_decision,decision_time,correct_decision
0,0,0.2333692743955137,0.2,1.0,1.0,369.0,723.0,0.0,0,388.0,0
1,1,0.22684166456968013,0.2,1.0,1.0,251.0,987.0,1.0,1,142.0,1
2,2,0.7321553926658392,0.7,0.0,0.0,332.0,650.0,0.0,1,328.0,1
3,3,-0.8028867060959161,-0.8,1.0,0.0,400.0,879.0,0.0,0,81.0,1
4,4,0.24734385622027488,0.2,0.0,0.0,323.0,635.0,0.0,1,1362.0,1
5,5,0.19980600241984725,0.2,0.0,0.0,371.0,730.0,0.0,1,429.0,1
6,6,-0.4537349855811144,-0.5,1.0,0.0,429.0,581.0,0.0,0,610.0,1
7,7,0.15322801996129976,0.2,1.0,1.0,274.0,807.0,1.0,1,329.0,1
8,8,-0.21257655708247547,-0.2,0.0,1.0,376.0,764.0,1.0,0,100.0,1
9,9,-0.7273153849693128,-0.7,0.0,1.0,474.0,895.0,0.0,1,131.0,0
10,10,-0.30404533000684053,-0.3,0.0,1.0,314.0,805.0,1.0,0,361.0,1
11,11,0.011953341737434342,0.0,1.0,1.0,380.0,926.0,1.0,1,484.0,1
12,12,-0.7677097905912851,-0.8,1.0,0.0,460.0,794.0,0.0,0,216.0,1
13,13,0.059424160397096415,0.1,0.0,0.0,346.0,599.0,0.0,1,775.0,1
14,14,-0.6014667905920339,-0.6,0.0,1.0,427.0,608.0,1.0,0,215.0,1
15,15,0.7937706010170545,0.8,0.0,0.0,374.0,925.0,1.0,0,-9.0,0
16,16,-0.19503882415856233,-0.2,1.0,0.0,372.0,751.0,0.0,0,1267.0,1
17,17,0.6180600014319454,0.6,1.0,1.0,300.0,709.0,1.0,1,321.0,1
18,18,-0.6319734222090956,-0.6,0.0,1.0,377.0,999.0,1.0,0,54.0,1
19,19,0.45706737844555134,0.5,0.0,0.0,454.0,694.0,0.0,1,912.0,1
20,20,-0.1730633233368044,-0.2,0.0,1.0,353.0,567.0,1.0,0,700.0,1
21,21,-0.8678009343964244,-0.9,1.0,0.0,396.0,595.0,0.0,0,369.0,1
22,22,0.5304638052630407,0.5,0.0,0.0,372.0,760.0,0.0,1,218.0,1
23,23,0.2962397583458368,0.3,1.0,1.0,352.0,762.0,1.0,1,246.0,1
24,24,0.645620888647681,0.6,0.0,0.0,381.0,771.0,0.0,1,728.0,1
25,25,-0.0978780024858874,-0.1,0.0,1.0,386.0,811.0,0.0,1,533.0,0
26,26,-0.2755871224170465,-0.3,1.0,0.0,381.0,710.0,0.0,0,369.0,1
27,27,0.6497726661591489,0.6,0.0,0.0,335.0,990.0,0.0,1,285.0,1
28,28,0.2992937419646383,0.3,1.0,1.0,396.0,527.0,1.0,1,707.0,1
29,29,-0.09197708079866262,-0.1,0.0,1.0,474.0,555.0,1.0,0,1221.0,1
30,30,0.2878652394108553,0.3,1.0,1.0,294.0,551.0,1.0,1,945.0,1
31,31,-0.8334760650270142,-0.8,0.0,1.0,457.0,627.0,1.0,0,476.0,1
32,32,0.4899381559865307,0.5,0.0,0.0,257.0,937.0,0.0,1,36.0,1
33,33,-0.20302150789925477,-0.2,1.0,0.0,453.0,605.0,0.0,0,652.0,1
34,34,-0.32540826252506916,-0.3,0.0,1.0,322.0,542.0,1.0,0,826.0,1
35,35,0.8546089692544466,0.9,1.0,1.0,314.0,822.0,1.0,1,224.0,1
36,36,0.40144780907315225,0.4,0.0,0.0,444.0,893.0,0.0,1,-27.0,1
37,37,-0.487487736842762,-0.5,1.0,0.0,407.0,553.0,0.0,0,760.0,1
38,38,-0.6852057946288544,-0.7,0.0,1.0,392.0,739.0,1.0,0,369.0,1
39,39,-0.032567090304282176,-0.0,0.0,1.0,271.0,824.0,0.0,1,605.0,0
40,40,0.7462425038231869,0.7,1.0,1.0,404.0,510.0,1.0,1,496.0,1
41,41,0.004603333566077894,0.0,0.0,0.0,432.0,973.0,0.0,1,135.0,1
42,42,-0.3075471520081031,-0.3,1.0,0.0,469.0,775.0,0.0,0,286.0,1
43,43,0.08550354679135663,0.1,0.0,0.0,421.0,553.0,1.0,0,696.0,0
44,44,-0.8713421929279448,-0.9,1.0,0.0,273.0,847.0,0.0,0,310.0,1
45,45,-0.6702153521857293,-0.7,0.0,1.0,437.0,689.0,0.0,1,194.0,0
46,46,0.800005952951519,0.8,1.0,1.0,420.0,732.0,1.0,1,358.0,1
47,47,0.07525937591475473,0.1,0.0,0.0,448.0,797.0,1.0,0,295.0,0
48,48,0.8277035329738723,0.8,0.0,0.0,457.0,890.0,0.0,1,703.0,1
49,49,-0.5357118563821925,-0.5,0.0,1.0,371.0,729.0,1.0,0,150.0,1
50,50,0.02726770346745111,0.0,0.0,0.0,433.0,594.0,0.0,1,883.0,1
51,51,-0.1937942519745346,-0.2,1.0,0.0,348.0,617.0,0.0,0,715.0,1
52,52,0.0939512391446723,0.1,0.0,0.0,265.0,840.0,0.0,1,205.0,1
53,53,-0.7975682824305323,-0.8,1.0,0.0,465.0,574.0,0.0,0,761.0,1
54,54,-0.18883773749431731,-0.2,0.0,1.0,479.0,935.0,1.0,0,416.0,1
55,55,-0.7810330111000613,-0.8,0.0,1.0,307.0,551.0,1.0,0,522.0,1
56,56,0.8186753757100426,0.8,0.0,0.0,261.0,596.0,0.0,1,703.0,1
57,57,-0.5420756868392965,-0.5,0.0,1.0,459.0,762.0,1.0,0,229.0,1
58,58,-0.4570794892100617,-0.5,1.0,0.0,436.0,620.0,0.0,0,444.0,1
59,59,0.7362887893590008,0.7,0.0,0.0,426.0,951.0,0.0,1,283.0,1
60,60,-0.02266695707263655,-0.0,1.0,0.0,341.0,766.0,1.0,1,763.0,0
61,61,-0.6662164939310375,-0.7,1.0,0.0,349.0,926.0,0.0,0,565.0,1
62,62,0.7392542134300178,0.7,1.0,1.0,278.0,709.0,1.0,1,333.0,1
63,63,0.011512631377879612,0.0,0.0,0.0,292.0,707.0,0.0,1,221.0,1
64,64,-0.4386571286700976,-0.4,1.0,0.0,388.0,999.0,0.0,0,173.0,1
65,65,-0.12235862864053249,-0.1,0.0,1.0,390.0,814.0,0.0,1,376.0,0
66,66,-0.3156327825446501,-0.3,1.0,0.0,438.0,785.0,0.0,0,197.0,1
67,67,0.36186153643592023,0.4,1.0,1.0,489.0,885.0,1.0,1,176.0,1
68,68,0.6067251558718759,0.6,1.0,1.0,462.0,608.0,1.0,1,490.0,1
69,69,-0.7050630914802332,-0.7,0.0,1.0,484.0,941.0,1.0,0,475.0,1
70,70,0.16969250423759819,0.2,1.0,1.0,443.0,841.0,1.0,1,296.0,1
71,71,0.07614179091867579,0.1,1.0,1.0,270.0,781.0,0.0,0,289.0,0
72,72,0.3229707549657447,0.3,1.0,1.0,339.0,749.0,0.0,0,422.0,0
73,73,-0.8763838558608238,-0.9,0.0,1.0,320.0,579.0,1.0,0,391.0,1
74,74,0.38661694725600737,0.4,1.0,1.0,260.0,583.0,0.0,0,317.0,0
75,75,0.43618815660671795,0.4,1.0,1.0,393.0,865.0,1.0,1,332.0,1
76,76,0.532083357304639,0.5,1.0,1.0,483.0,922.0,1.0,1,155.0,1
77,77,0.8024466831816203,0.8,0.0,0.0,386.0,698.0,0.0,1,306.0,1
78,78,0.2773259734836794,0.3,1.0,1.0,332.0,558.0,0.0,0,460.0,0
79,79,0.653852644279956,0.7,1.0,1.0,465.0,524.0,1.0,1,541.0,1
80,80,0.5720023550408876,0.6,0.0,0.0,299.0,658.0,0.0,1,353.0,1
81,81,0.6421158759046789,0.6,0.0,0.0,442.0,532.0,0.0,1,586.0,1
82,82,0.25830008365137547,0.3,1.0,1.0,394.0,693.0,1.0,1,443.0,1
83,83,0.7313877257841291,0.7,1.0,1.0,468.0,593.0,1.0,1,469.0,1
84,84,0.21098336732731593,0.2,0.0,0.0,339.0,727.0,0.0,1,714.0,1
85,85,-0.48008568297518867,-0.5,1.0,0.0,373.0,643.0,0.0,0,354.0,1
86,86,0.2655677458108031,0.3,0.0,0.0,481.0,598.0,0.0,1,661.0,1
87,87,0.737115650951114,0.7,0.0,0.0,485.0,646.0,0.0,1,349.0,1
88,88,-0.4356833343820348,-0.4,0.0,1.0,421.0,707.0,1.0,0,382.0,1
89,89,0.7299814055853197,0.7,1.0,1.0,386.0,842.0,1.0,1,602.0,1
90,90,0.11882912072009433,0.1,0.0,0.0,456.0,782.0,0.0,1,732.0,1
91,91,-0.6758970071857695,-0.7,1.0,0.0,464.0,805.0,0.0,0,341.0,1
92,92,-0.4579316917704385,-0.5,0.0,1.0,401.0,989.0,1.0,0,-10.0,1
93,93,-0.10501841628262776,-0.1,1.0,0.0,354.0,865.0,0.0,0,101.0,1
94,94,-0.12930929807806524,-0.1,0.0,1.0,396.0,509.0,1.0,0,355.0,1
95,95,-0.2889826631324358,-0.3,0.0,1.0,259.0,715.0,1.0,0,666.0,1
96,96,0.4409885522837974,0.4,1.0,1.0,351.0,553.0,1.0,1,726.0,1
97,97,0.476137223948759,0.5,1.0,1.0,370.0,769.0,1.0,1,401.0,1
98,98,-0.6161836143634913,-0.6,1.0,0.0,272.0,932.0,0.0,0,16.0,1
99,99,-0.16446901595604457,-0.2,1.0,0.0,347.0,613.0,1.0,1,1220.0,0
100,100,-0.2860527641989966,-0.3,1.0,0.0,252.0,612.0,0.0,0,456.0,1
101,101,-0.34693882305546264,-0.3,1.0,0.0,430.0,595.0,0.0,0,685.0,1
102,102,-0.08417983626375991,-0.1,1.0,0.0,359.0,745.0,1.0,1,486.0,0
103,103,0.10812908952320022,0.1,0.0,0.0,388.0,801.0,1.0,0,221.0,0
104,104,-0.46526229096653116,-0.5,0.0,1.0,345.0,912.0,1.0,0,443.0,1
105,105,0.4432760629875937,0.4,0.0,0.0,385.0,852.0,0.0,1,193.0,1
106,106,0.4890564745015952,0.5,1.0,1.0,306.0,562.0,1.0,1,362.0,1
107,107,0.4853777438532082,0.5,1.0,1.0,443.0,829.0,1.0,1,378.0,1
108,108,0.011327728021843675,0.0,0.0,0.0,252.0,795.0,1.0,0,693.0,0
109,109,0.6854198258547958,0.7,0.0,0.0,408.0,640.0,0.0,1,712.0,1
110,110,-0.7704606166569845,-0.8,0.0,1.0,366.0,683.0,1.0,0,471.0,1
111,111,0.5517018023309358,0.6,0.0,0.0,456.0,939.0,0.0,1,65.0,1
112,112,0.3332912754232126,0.3,0.0,0.0,495.0,610.0,0.0,1,1025.0,1
113,113,-0.7963050451544893,-0.8,0.0,1.0,416.0,731.0,1.0,0,223.0,1
114,114,-0.04554297914693828,-0.0,0.0,1.0,467.0,990.0,1.0,0,373.0,1
115,115,-0.3600876651146906,-0.4,1.0,0.0,304.0,743.0,1.0,1,263.0,0
116,116,-0.5649700229644358,-0.6,0.0,1.0,302.0,830.0,1.0,0,698.0,1
117,117,-0.31052964646941117,-0.3,0.0,1.0,371.0,976.0,1.0,0,433.0,1
118,118,0.2772763372995778,0.3,1.0,1.0,289.0,993.0,1.0,1,358.0,1
119,119,0.41422080958537444,0.4,1.0,1.0,323.0,577.0,1.0,1,540.0,1
120,120,-0.5331140848457454,-0.5,0.0,1.0,459.0,942.0,0.0,1,229.0,0
121,121,-0.13838959022763608,-0.1,1.0,0.0,265.0,533.0,1.0,1,782.0,0
122,122,0.7065617212194516,0.7,0.0,0.0,350.0,948.0,0.0,1,362.0,1
123,123,-0.4223211814534822,-0.4,0.0,1.0,280.0,948.0,1.0,0,152.0,1
124,124,0.7461200251804244,0.7,0.0,0.0,372.0,844.0,0.0,1,314.0,1
125,125,-0.10401064127940352,-0.1,1.0,0.0,414.0,753.0,1.0,1,213.0,0
126,126,-0.3707533501139818,-0.4,0.0,1.0,440.0,717.0,0.0,1,823.0,0
127,127,-0.7607577209176228,-0.8,1.0,0.0,315.0,918.0,0.0,0,567.0,1
128,128,-0.6508407526448688,-0.7,0.0,1.0,461.0,762.0,1.0,0,187.0,1
129,129,-0.3098451026184924,-0.3,0.0,1.0,260.0,880.0,1.0,0,490.0,1
130,130,0.8106426078125525,0.8,0.0,0.0,266.0,717.0,0.0,1,747.0,1
131,131,-0.2796409407463408,-0.3,1.0,0.0,418.0,643.0,0.0,0,309.0,1
132,132,-0.00411064938834782,-0.0,0.0,1.0,341.0,667.0,0.0,1,462.0,0
133,133,0.4986418060036607,0.5,1.0,1.0,470.0,721.0,1.0,1,219.0,1
134,134,0.20249653399906842,0.2,0.0,0.0,493.0,832.0,0.0,1,315.0,1
135,135,0.1923654583052551,0.2,0.0,0.0,416.0,900.0,0.0,1,574.0,1
136,136,-0.6945817367005451,-0.7,1.0,0.0,410.0,667.0,0.0,0,433.0,1
137,137,-0.4649698183966572,-0.5,0.0,1.0,383.0,656.0,1.0,0,831.0,1
138,138,0.6002543528542449,0.6,1.0,1.0,432.0,758.0,1.0,1,920.0,1
139,139,0.824913955337682,0.8,0.0,0.0,390.0,521.0,0.0,1,1299.0,1
140,140,0.8752726412514623,0.9,0.0,0.0,259.0,826.0,0.0,1,255.0,1
141,141,-0.45424142311025184,-0.5,0.0,1.0,350.0,862.0,1.0,0,178.0,1
142,142,0.8123838919620411,0.8,1.0,1.0,428.0,953.0,1.0,1,99.0,1
143,143,-0.7784301369479925,-0.8,0.0,1.0,451.0,769.0,1.0,0,290.0,1
144,144,0.5250305949476967,0.5,0.0,0.0,264.0,862.0,0.0,1,464.0,1
145,145,-0.360165284662713,-0.4,0.0,1.0,260.0,835.0,1.0,0,245.0,1
146,146,-0.29961625907525824,-0.3,0.0,1.0,406.0,883.0,1.0,0,441.0,1
147,147,0.5468292307443242,0.5,1.0,1.0,452.0,656.0,1.0,1,292.0,1
148,148,-0.5137014335692252,-0.5,1.0,0.0,410.0,743.0,0.0,0,277.0,1
149,149,0.616547282291395,0.6,1.0,1.0,468.0,939.0,1.0,1,73.0,1
150,150,0.3177252770375131,0.3,0.0,0.0,260.0,510.0,0.0,1,1020.0,1
151,151,0.3480070226314197,0.3,0.0,0.0,461.0,664.0,0.0,1,425.0,1
152,152,-0.5975843594129941,-0.6,0.0,1.0,315.0,644.0,0.0,1,551.0,0
153,153,0.8952717297516747,0.9,0.0,0.0,365.0,745.0,0.0,1,500.0,1
154,154,0.09725831983242206,0.1,0.0,0.0,440.0,869.0,1.0,0,181.0,0
155,155,0.7516785607386373,0.8,1.0,1.0,475.0,512.0,1.0,1,1393.0,1
156,156,-0.8372233414820399,-0.8,1.0,0.0,461.0,714.0,0.0,0,215.0,1
157,157,0.6225413584744367,0.6,0.0,0.0,266.0,827.0,1.0,0,-53.0,0
158,158,0.33413709056932983,0.3,1.0,1.0,461.0,656.0,0.0,0,503.0,0
159,159,-0.5783144007398432,-0.6,1.0,0.0,295.0,511.0,0.0,0,544.0,1
160,160,0.8807585816518487,0.9,0.0,0.0,428.0,829.0,0.0,1,473.0,1
161,161,-0.8333425048464302,-0.8,1.0,0.0,398.0,981.0,0.0,0,211.0,1
162,162,-0.5959624143996356,-0.6,0.0,1.0,481.0,616.0,1.0,0,303.0,1
163,163,0.8436144765815009,0.8,0.0,0.0,337.0,585.0,0.0,1,428.0,1
164,164,-0.10236946005943315,-0.1,0.0,1.0,322.0,796.0,1.0,0,562.0,1
165,165,0.7059855332085959,0.7,0.0,0.0,300.0,813.0,0.0,1,207.0,1
166,166,0.48087830669865517,0.5,1.0,1.0,320.0,564.0,1.0,1,466.0,1
167,167,-0.5554094999019416,-0.6,1.0,0.0,485.0,972.0,0.0,0,243.0,1
168,168,-0.00808899733042745,-0.0,0.0,1.0,367.0,999.0,0.0,1,424.0,0
169,169,0.011137353194380362,0.0,0.0,0.0,488.0,936.0,1.0,0,166.0,0
170,170,-0.07831274122632859,-0.1,0.0,1.0,264.0,644.0,1.0,0,362.0,1
171,171,-0.705391828678824,-0.7,1.0,0.0,300.0,789.0,0.0,0,371.0,1
172,172,0.376324491196684,0.4,0.0,0.0,293.0,835.0,0.0,1,122.0,1
173,173,-0.6945815896369288,-0.7,1.0,0.0,486.0,725.0,0.0,0,469.0,1
174,174,0.3891553739649781,0.4,1.0,1.0,392.0,539.0,1.0,1,669.0,1
175,175,-0.04671500220234537,-0.0,1.0,0.0,270.0,751.0,0.0,0,1369.0,1
176,176,-0.040742302917324724,-0.0,0.0,1.0,307.0,972.0,1.0,0,151.0,1
177,177,-0.7875803480021746,-0.8,0.0,1.0,476.0,604.0,1.0,0,220.0,1
178,178,-0.6152375013015174,-0.6,0.0,1.0,369.0,672.0,1.0,0,169.0,1
179,179,-0.5568148125158008,-0.6,1.0,0.0,279.0,557.0,0.0,0,464.0,1
180,180,-0.09639111288198854,-0.1,1.0,0.0,462.0,509.0,0.0,0,909.0,1
181,181,-0.031769160413674835,-0.0,0.0,1.0,355.0,594.0,0.0,1,621.0,0
182,182,0.2395864835050393,0.2,1.0,1.0,460.0,733.0,1.0,1,477.0,1
183,183,-0.39773452438716583,-0.4,1.0,0.0,259.0,839.0,0.0,0,382.0,1
184,184,0.7535791563589439,0.8,1.0,1.0,416.0,739.0,1.0,1,205.0,1
185,185,0.41349410528816655,0.4,0.0,0.0,475.0,725.0,1.0,0,860.0,0
186,186,-0.6153848906599806,-0.6,0.0,1.0,349.0,909.0,1.0,0,-48.0,1
187,187,-0.7324751689237706,-0.7,1.0,0.0,447.0,998.0,0.0,0,-55.0,1
188,188,-0.45379878522791023,-0.5,1.0,0.0,415.0,725.0,0.0,0,290.0,1
189,189,-0.8246315627091237,-0.8,0.0,1.0,268.0,927.0,1.0,0,135.0,1
190,190,-0.5788678057919885,-0.6,1.0,0.0,318.0,844.0,0.0,0,738.0,1
191,191,0.02226187545959535,0.0,0.0,0.0,475.0,661.0,1.0,0,684.0,0
192,192,-0.25559867816022697,-0.3,0.0,1.0,329.0,552.0,1.0,0,459.0,1
193,193,-0.331504276156235,-0.3,0.0,1.0,302.0,962.0,1.0,0,546.0,1
194,194,0.19652393731749795,0.2,0.0,0.0,340.0,689.0,0.0,1,951.0,1
195,195,-0.2754992281151648,-0.3,1.0,0.0,328.0,667.0,0.0,0,625.0,1
196,196,0.5868846733026388,0.6,1.0,1.0,497.0,718.0,1.0,1,265.0,1
197,197,0.36741554025560774,0.4,1.0,1.0,336.0,798.0,1.0,1,296.0,1
198,198,0.4809835242304942,0.5,0.0,0.0,399.0,578.0,1.0,0,693.0,0
199,199,-0.19285410653320545,-0.2,1.0,0.0,269.0,760.0,1.0,1,321.0,0
200,200,0.8847984617157326,0.9,1.0,1.0,381.0,615.0,1.0,1,424.0,1
201,201,0.7610845166451966,0.8,1.0,1.0,481.0,832.0,1.0,1,147.0,1
202,202,0.5795982106294634,0.6,1.0,1.0,491.0,952.0,0.0,0,87.0,0
203,203,-0.10757208087470727,-0.1,1.0,0.0,359.0,848.0,0.0,0,133.0,1
204,204,-0.2614803870296657,-0.3,0.0,1.0,461.0,743.0,0.0,1,436.0,0
205,205,-0.40039926683467514,-0.4,0.0,1.0,454.0,761.0,1.0,0,285.0,1
206,206,-0.24164202075566632,-0.2,0.0,1.0,293.0,714.0,1.0,0,473.0,1
207,207,0.12169361843913695,0.1,1.0,1.0,295.0,651.0,1.0,1,394.0,1
208,208,0.49354164375549414,0.5,0.0,0.0,256.0,603.0,0.0,1,241.0,1
209,209,0.11426480946308615,0.1,0.0,0.0,467.0,548.0,0.0,1,415.0,1
210,210,-0.6419062725264917,-0.6,0.0,1.0,415.0,661.0,1.0,0,104.0,1
211,211,0.87345394595423,0.9,1.0,1.0,409.0,517.0,1.0,1,564.0,1
212,212,-0.19901883300737788,-0.2,1.0,0.0,339.0,777.0,1.0,1,74.0,0
213,213,-0.7049820667250293,-0.7,1.0,0.0,372.0,548.0,0.0,0,300.0,1
214,214,-0.30791095561389126,-0.3,1.0,0.0,496.0,734.0,0.0,0,1170.0,1
215,215,0.6332704424471961,0.6,1.0,1.0,376.0,798.0,1.0,1,296.0,1
216,216,0.6952889220805775,0.7,0.0,0.0,495.0,829.0,0.0,1,406.0,1
217,217,0.4585746320180796,0.5,0.0,0.0,493.0,636.0,0.0,1,861.0,1
218,218,-0.07350478361425938,-0.1,0.0,1.0,473.0,868.0,1.0,0,269.0,1
219,219,-0.05178551479365867,-0.1,0.0,1.0,464.0,694.0,0.0,1,742.0,0
220,220,-0.28175789478658875,-0.3,0.0,1.0,365.0,576.0,1.0,0,309.0,1
221,221,0.7912241669631189,0.8,0.0,0.0,448.0,659.0,0.0,1,693.0,1
222,222,-0.7538313869462171,-0.8,0.0,1.0,497.0,706.0,1.0,0,247.0,1
223,223,0.009167452857349323,0.0,0.0,0.0,293.0,940.0,1.0,0,617.0,0
224,224,-0.12438540366086448,-0.1,0.0,1.0,415.0,620.0,1.0,0,475.0,1
225,225,-0.7332422228117401,-0.7,0.0,1.0,317.0,770.0,1.0,0,163.0,1
226,226,-0.8891424060291268,-0.9,1.0,0.0,456.0,749.0,0.0,0,1055.0,1
227,227,-0.24817814635632185,-0.2,0.0,1.0,484.0,653.0,0.0,1,673.0,0
228,228,0.7687497319219684,0.8,0.0,0.0,382.0,933.0,0.0,1,175.0,1
229,229,-0.37300754250050117,-0.4,0.0,1.0,372.0,565.0,1.0,0,723.0,1
230,230,-0.6073966687546835,-0.6,0.0,1.0,277.0,696.0,1.0,0,257.0,1
231,231,0.23905580968022322,0.2,1.0,1.0,383.0,740.0,0.0,0,1337.0,0
232,232,-0.2708365984424881,-0.3,0.0,1.0,417.0,660.0,0.0,1,603.0,0
233,233,-0.40316327313137706,-0.4,0.0,1.0,299.0,610.0,1.0,0,411.0,1
234,234,-0.872892666659558,-0.9,1.0,0.0,345.0,572.0,0.0,0,503.0,1
235,235,0.6042816955308498,0.6,0.0,0.0,254.0,634.0,0.0,1,562.0,1
236,236,-0.7855644153095022,-0.8,0.0,1.0,494.0,628.0,1.0,0,488.0,1
237,237,-0.10444779198740961,-0.1,1.0,0.0,250.0,516.0,0.0,0,924.0,1
238,238,0.5196879882901905,0.5,0.0,0.0,273.0,994.0,1.0,0,353.0,0
239,239,0.2479400745548036,0.2,0.0,0.0,479.0,834.0,1.0,0,67.0,0
240,240,-0.11986088317043164,-0.1,0.0,1.0,486.0,692.0,0.0,1,562.0,0
241,241,-0.7024141372824655,-0.7,0.0,1.0,332.0,718.0,1.0,0,160.0,1
242,242,-0.09573313567928987,-0.1,1.0,0.0,338.0,819.0,0.0,0,43.0,1
243,243,-0.6455279987728624,-0.6,1.0,0.0,498.0,643.0,0.0,0,269.0,1
244,244,0.7006873485340227,0.7,1.0,1.0,301.0,966.0,1.0,1,73.0,1
245,245,-0.46809995256575593,-0.5,0.0,1.0,313.0,721.0,1.0,0,666.0,1
246,246,-0.08007037395541916,-0.1,1.0,0.0,442.0,997.0,0.0,0,301.0,1
247,247,0.4067023020507047,0.4,1.0,1.0,361.0,978.0,1.0,1,261.0,1
248,248,-0.7774308813580402,-0.8,1.0,0.0,394.0,639.0,0.0,0,197.0,1
249,249,0.1123403619255895,0.1,1.0,1.0,289.0,508.0,1.0,1,583.0,1
250,250,-0.4163670165447874,-0.4,0.0,1.0,425.0,942.0,1.0,0,93.0,1
251,251,0.7066760445782302,0.7,1.0,1.0,474.0,854.0,1.0,1,202.0,1
252,252,-0.05886278812537571,-0.1,0.0,1.0,324.0,564.0,1.0,0,632.0,1
253,253,-0.4385802054315775,-0.4,0.0,1.0,343.0,685.0,1.0,0,372.0,1
254,254,-0.3915611525226721,-0.4,1.0,0.0,320.0,949.0,1.0,1,401.0,0
255,255,0.4994498819726244,0.5,0.0,0.0,439.0,985.0,0.0,1,536.0,1
256,256,-0.521920932311396,-0.5,1.0,0.0,402.0,632.0,0.0,0,226.0,1
257,257,-0.406458540944623,-0.4,0.0,1.0,485.0,598.0,1.0,0,417.0,1
258,258,-0.5554371093225678,-0.6,0.0,1.0,461.0,508.0,1.0,0,881.0,1
259,259,0.26220913966641823,0.3,1.0,1.0,343.0,869.0,1.0,1,88.0,1
260,260,-0.5392017961525848,-0.5,1.0,0.0,373.0,834.0,0.0,0,943.0,1
261,261,-0.594890446258926,-0.6,0.0,1.0,358.0,979.0,1.0,0,443.0,1
262,262,0.33983408104333745,0.3,1.0,1.0,392.0,686.0,1.0,1,352.0,1
263,263,-0.11217859193949375,-0.1,1.0,0.0,469.0,892.0,1.0,1,249.0,0
264,264,-0.5407902076045122,-0.5,1.0,0.0,409.0,858.0,0.0,0,73.0,1
265,265,-0.32015420240070624,-0.3,1.0,0.0,480.0,679.0,0.0,0,371.0,1
266,266,-0.710169916108322,-0.7,1.0,0.0,280.0,682.0,0.0,0,428.0,1
267,267,0.40441854229839425,0.4,0.0,0.0,270.0,725.0,0.0,1,1815.0,1
268,268,0.7173565693104981,0.7,1.0,1.0,435.0,875.0,1.0,1,700.0,1
269,269,-0.22940507599969606,-0.2,1.0,0.0,251.0,783.0,0.0,0,446.0,1
270,270,0.13798977110092536,0.1,1.0,1.0,429.0,891.0,1.0,1,200.0,1
271,271,-0.794858844441958,-0.8,1.0,0.0,445.0,525.0,0.0,0,430.0,1
272,272,-0.5528739572104706,-0.6,0.0,1.0,326.0,753.0,1.0,0,111.0,1
273,273,-0.7667920102992887,-0.8,0.0,1.0,309.0,998.0,1.0,0,223.0,1
274,274,0.8531667453576363,0.9,0.0,0.0,470.0,566.0,0.0,1,354.0,1
275,275,0.7412025239910399,0.7,1.0,1.0,382.0,995.0,1.0,1,33.0,1
276,276,-0.41634863741688427,-0.4,1.0,0.0,250.0,524.0,0.0,0,736.0,1
277,277,-0.8907830248224307,-0.9,0.0,1.0,271.0,505.0,1.0,0,244.0,1
278,278,0.2921776751386723,0.3,1.0,1.0,278.0,566.0,1.0,1,1196.0,1
279,279,-0.8129322671422021,-0.8,0.0,1.0,310.0,924.0,1.0,0,86.0,1
280,280,-0.6483667595732676,-0.6,0.0,1.0,433.0,907.0,1.0,0,490.0,1
281,281,-0.6812802038211152,-0.7,1.0,0.0,441.0,855.0,0.0,0,354.0,1
282,282,-0.8803367311471937,-0.9,0.0,1.0,340.0,664.0,1.0,0,176.0,1
283,283,-0.20696063391935293,-0.2,1.0,0.0,455.0,516.0,0.0,0,929.0,1
284,284,-0.7916575313223649,-0.8,1.0,0.0,267.0,980.0,0.0,0,173.0,1
285,285,0.6883997622681387,0.7,0.0,0.0,278.0,762.0,0.0,1,470.0,1
286,286,0.8430299815054058,0.8,1.0,1.0,468.0,743.0,1.0,1,619.0,1
287,287,-0.02272822442253941,-0.0,1.0,0.0,324.0,996.0,1.0,1,280.0,0
288,288,0.8420053998551157,0.8,0.0,0.0,424.0,943.0,0.0,1,23.0,1
289,289,-0.8839249259216216,-0.9,0.0,1.0,337.0,674.0,1.0,0,319.0,1
290,290,-0.1004804887309021,-0.1,1.0,0.0,495.0,575.0,0.0,0,650.0,1
291,291,-0.2018826813356236,-0.2,1.0,0.0,457.0,868.0,1.0,1,455.0,0
292,292,-0.20877717409950625,-0.2,1.0,0.0,325.0,806.0,1.0,1,319.0,0
293,293,-0.7233138661835679,-0.7,1.0,0.0,477.0,507.0,0.0,0,756.0,1
294,294,-0.03992608808416209,-0.0,0.0,1.0,436.0,682.0,1.0,0,562.0,1
295,295,0.13967029656664576,0.1,1.0,1.0,259.0,956.0,1.0,1,895.0,1
296,296,0.21009568197171402,0.2,1.0,1.0,355.0,748.0,1.0,1,397.0,1
297,297,-0.7518517536109067,-0.8,0.0,1.0,420.0,834.0,1.0,0,196.0,1
298,298,-0.5371118544301459,-0.5,1.0,0.0,324.0,917.0,0.0,0,179.0,1
299,299,-0.41251398495656333,-0.4,0.0,1.0,289.0,819.0,0.0,1,902.0,0
300,300,0.5092706061988587,0.5,1.0,1.0,378.0,668.0,1.0,1,564.0,1
301,301,-0.0721768016775739,-0.1,1.0,0.0,351.0,552.0,0.0,0,687.0,1
302,302,0.4904426767110207,0.5,1.0,1.0,301.0,559.0,1.0,1,520.0,1
303,303,-0.8874165555952079,-0.9,0.0,1.0,302.0,532.0,1.0,0,486.0,1
304,304,-0.3733385883415482,-0.4,0.0,1.0,250.0,882.0,1.0,0,148.0,1
305,305,-0.3528030294222274,-0.4,1.0,0.0,290.0,678.0,0.0,0,342.0,1
306,306,0.22443486354281938,0.2,1.0,1.0,367.0,711.0,0.0,0,1182.0,0
307,307,-0.3497165206814109,-0.3,0.0,1.0,360.0,861.0,1.0,0,1109.0,1
308,308,0.07276177521086591,0.1,0.0,0.0,399.0,736.0,0.0,1,665.0,1
309,309,0.06619438839417524,0.1,0.0,0.0,316.0,802.0,1.0,0,542.0,0
310,310,0.05642809395400139,0.1,0.0,0.0,489.0,998.0,0.0,1,313.0,1
311,311,0.6860253262956885,0.7,0.0,0.0,250.0,567.0,0.0,1,1423.0,1
312,312,0.6223155283623302,0.6,0.0,0.0,472.0,865.0,0.0,1,293.0,1
313,313,-0.7899360502073937,-0.8,1.0,0.0,488.0,758.0,0.0,0,424.0,1
314,314,0.5844102995223254,0.6,1.0,1.0,399.0,536.0,1.0,1,925.0,1
315,315,-0.2905238551973207,-0.3,0.0,1.0,303.0,572.0,0.0,1,575.0,0
316,316,-0.265473815626591,-0.3,0.0,1.0,463.0,750.0,1.0,0,617.0,1
317,317,-0.5307603049971654,-0.5,1.0,0.0,358.0,686.0,0.0,0,346.0,1
318,318,0.3375893595907663,0.3,1.0,1.0,480.0,640.0,1.0,1,620.0,1
319,319,0.5728515734454759,0.6,1.0,1.0,261.0,709.0,1.0,1,370.0,1
320,320,0.4313128032910659,0.4,1.0,1.0,329.0,914.0,1.0,1,197.0,1
321,321,0.22841390496942504,0.2,0.0,0.0,257.0,849.0,1.0,0,264.0,0
322,322,-0.38277488015606886,-0.4,1.0,0.0,397.0,700.0,0.0,0,773.0,1
323,323,-0.27695470849174353,-0.3,1.0,0.0,339.0,712.0,0.0,0,649.0,1
324,324,0.16025692461774,0.2,0.0,0.0,449.0,959.0,0.0,1,352.0,1
325,325,0.7948664086514824,0.8,1.0,1.0,371.0,686.0,1.0,1,173.0,1
326,326,-0.3647203324659325,-0.4,0.0,1.0,390.0,718.0,1.0,0,282.0,1
327,327,-0.006811706931979966,-0.0,0.0,1.0,480.0,830.0,1.0,0,40.0,1
328,328,0.30671872435655556,0.3,1.0,1.0,321.0,760.0,0.0,0,679.0,0
329,329,0.8007531017819743,0.8,1.0,1.0,285.0,658.0,1.0,1,397.0,1
330,330,-0.07333420121788892,-0.1,0.0,1.0,251.0,723.0,1.0,0,826.0,1
331,331,-0.12617925331754598,-0.1,1.0,0.0,308.0,583.0,1.0,1,2849.0,0
332,332,-0.8737214763659158,-0.9,0.0,1.0,252.0,597.0,1.0,0,191.0,1
333,333,-0.5071362167495395,-0.5,1.0,0.0,365.0,786.0,0.0,0,309.0,1
334,334,0.32194468015960764,0.3,1.0,1.0,266.0,965.0,1.0,1,259.0,1
335,335,-0.45497550767603084,-0.5,0.0,1.0,493.0,956.0,1.0,0,71.0,1
336,336,-0.6693113449914605,-0.7,0.0,1.0,469.0,631.0,1.0,0,480.0,1
337,337,-0.5717024646358837,-0.6,0.0,1.0,313.0,806.0,1.0,0,1181.0,1
338,338,0.3191346154299889,0.3,0.0,0.0,360.0,988.0,0.0,1,462.0,1
339,339,0.22695968611504191,0.2,0.0,0.0,407.0,563.0,0.0,1,920.0,1
340,340,-0.8055617967243959,-0.8,1.0,0.0,328.0,502.0,0.0,0,550.0,1
341,341,-0.6783290271894951,-0.7,1.0,0.0,492.0,984.0,0.0,0,344.0,1
342,342,-0.46147190773505575,-0.5,1.0,0.0,351.0,519.0,0.0,0,500.0,1
343,343,-0.8408945102953322,-0.8,1.0,0.0,424.0,807.0,0.0,0,189.0,1
344,344,0.14924340551717663,0.1,0.0,0.0,462.0,850.0,1.0,0,328.0,0
345,345,0.714143640225061,0.7,1.0,1.0,268.0,781.0,1.0,1,181.0,1
346,346,-0.787694588941447,-0.8,1.0,0.0,253.0,571.0,0.0,0,556.0,1
347,347,-0.24101239770492522,-0.2,0.0,1.0,335.0,690.0,1.0,0,255.0,1
348,348,-0.3068145842167863,-0.3,1.0,0.0,447.0,863.0,0.0,0,210.0,1
349,349,0.08546869704770732,0.1,0.0,0.0,361.0,689.0,0.0,1,1070.0,1
350,350,0.6765274045202619,0.7,0.0,0.0,460.0,850.0,0.0,1,380.0,1
351,351,0.3203707314173879,0.3,1.0,1.0,432.0,800.0,1.0,1,488.0,1
352,352,-0.13040962808686873,-0.1,1.0,0.0,395.0,838.0,0.0,0,607.0,1
353,353,-0.6412430380022627,-0.6,0.0,1.0,295.0,972.0,1.0,0,363.0,1
354,354,0.4494719660393781,0.4,0.0,0.0,307.0,937.0,0.0,1,96.0,1
355,355,-0.7729759079455052,-0.8,1.0,0.0,446.0,896.0,0.0,0,278.0,1
356,356,-0.8020586129864243,-0.8,1.0,0.0,484.0,553.0,0.0,0,503.0,1
357,357,-0.5309888684082908,-0.5,0.0,1.0,374.0,606.0,1.0,0,430.0,1
358,358,-0.4543020786809983,-0.5,1.0,0.0,430.0,708.0,0.0,0,532.0,1
359,359,-0.7898018044158552,-0.8,1.0,0.0,409.0,914.0,1.0,1,-13.0,0
360,360,0.2971189077816113,0.3,0.0,0.0,269.0,628.0,0.0,1,1653.0,1
361,361,0.5121246143938015,0.5,1.0,1.0,309.0,820.0,1.0,1,271.0,1
362,362,0.3744896182986638,0.4,1.0,1.0,436.0,770.0,0.0,0,284.0,0
363,363,0.36114809947539694,0.4,0.0,0.0,339.0,683.0,0.0,1,418.0,1
364,364,-0.3277958228334913,-0.3,1.0,0.0,353.0,689.0,0.0,0,888.0,1
365,365,0.023477451761570234,0.0,1.0,1.0,390.0,505.0,0.0,0,1575.0,0
366,366,0.7949950373711715,0.8,1.0,1.0,448.0,785.0,1.0,1,167.0,1
367,367,-0.8958254782615555,-0.9,1.0,0.0,334.0,572.0,0.0,0,404.0,1
368,368,-0.5889408581697662,-0.6,1.0,0.0,293.0,943.0,0.0,0,1204.0,1
369,369,0.8216730962443107,0.8,0.0,0.0,316.0,904.0,1.0,0,30.0,0
370,370,0.7737131804231209,0.8,1.0,1.0,397.0,753.0,1.0,1,150.0,1
371,371,-0.5518683140663678,-0.6,0.0,1.0,497.0,807.0,1.0,0,516.0,1
372,372,0.15774341228296052,0.2,0.0,0.0,261.0,569.0,1.0,0,700.0,0
373,373,0.15704916046491213,0.2,0.0,0.0,371.0,664.0,0.0,1,725.0,1
374,374,0.7422697484147588,0.7,1.0,1.0,461.0,909.0,1.0,1,790.0,1
375,375,-0.2614754427154201,-0.3,1.0,0.0,468.0,835.0,1.0,1,357.0,0
376,376,0.8803528059917579,0.9,0.0,0.0,430.0,890.0,0.0,1,180.0,1
377,377,0.6635098892779913,0.7,1.0,1.0,429.0,677.0,1.0,1,324.0,1
378,378,0.7107196223347411,0.7,1.0,1.0,479.0,636.0,1.0,1,695.0,1
379,379,0.3999325714442147,0.4,0.0,0.0,352.0,673.0,0.0,1,535.0,1
380,380,0.26535077790544037,0.3,0.0,0.0,461.0,642.0,0.0,1,457.0,1
381,381,-0.6407858631706552,-0.6,1.0,0.0,311.0,868.0,0.0,0,511.0,1
382,382,0.09730416927053775,0.1,0.0,0.0,250.0,889.0,0.0,1,1121.0,1
383,383,0.13742548872855698,0.1,1.0,1.0,415.0,561.0,1.0,1,574.0,1
384,384,0.498380202874633,0.5,0.0,0.0,342.0,517.0,0.0,1,701.0,1
385,385,-0.6566664062817295,-0.7,1.0,0.0,367.0,977.0,0.0,0,36.0,1
386,386,-0.19254754499015247,-0.2,0.0,1.0,407.0,959.0,1.0,0,364.0,1
387,387,-0.49786290106183534,-0.5,0.0,1.0,404.0,617.0,1.0,0,429.0,1
388,388,-0.7096939596523101,-0.7,0.0,1.0,346.0,798.0,1.0,0,376.0,1
389,389,-0.717544234420977,-0.7,0.0,1.0,256.0,963.0,1.0,0,171.0,1
390,390,0.2813988671997224,0.3,1.0,1.0,379.0,684.0,1.0,1,1737.0,1
391,391,-0.6649711891709927,-0.7,0.0,1.0,493.0,763.0,1.0,0,544.0,1
392,392,0.40942648799644654,0.4,0.0,0.0,397.0,648.0,0.0,1,575.0,1
393,393,-0.29301887494720147,-0.3,0.0,1.0,486.0,614.0,1.0,0,510.0,1
394,394,0.5245012026777068,0.5,1.0,1.0,490.0,983.0,1.0,1,707.0,1
395,395,0.7671879567852528,0.8,0.0,0.0,442.0,511.0,0.0,1,427.0,1
396,396,-0.392099571703423,-0.4,1.0,0.0,353.0,701.0,0.0,0,316.0,1
397,397,0.8973455591293368,0.9,0.0,0.0,486.0,528.0,0.0,1,576.0,1
398,398,-0.7770057884984204,-0.8,1.0,0.0,440.0,736.0,0.0,0,334.0,1
399,399,-0.2893435444836222,-0.3,0.0,1.0,374.0,658.0,1.0,0,1398.0,1
400,400,-0.4360620617080533,-0.4,1.0,0.0,482.0,636.0,0.0,0,952.0,1
401,401,0.7744816794237078,0.8,1.0,1.0,420.0,988.0,0.0,0,42.0,0
402,402,0.47838534548431866,0.5,0.0,0.0,498.0,884.0,0.0,1,1198.0,1
403,403,0.2735709971293835,0.3,0.0,0.0,406.0,647.0,1.0,0,307.0,0
404,404,-0.45698943221242566,-0.5,1.0,0.0,350.0,801.0,0.0,0,329.0,1
405,405,0.28554330866548605,0.3,1.0,1.0,296.0,724.0,0.0,0,180.0,0
406,406,0.6557420115483071,0.7,1.0,1.0,492.0,712.0,1.0,1,136.0,1
407,407,0.09258102890265163,0.1,0.0,0.0,256.0,794.0,0.0,1,450.0,1
408,408,-0.6058328843544226,-0.6,1.0,0.0,325.0,962.0,0.0,0,223.0,1
409,409,0.22342386468227915,0.2,0.0,0.0,499.0,675.0,0.0,1,636.0,1
410,410,-0.46589943751093493,-0.5,0.0,1.0,283.0,706.0,1.0,0,361.0,1
411,411,0.6120279074700875,0.6,0.0,0.0,465.0,655.0,0.0,1,680.0,1
412,412,0.7703648751307196,0.8,1.0,1.0,438.0,704.0,1.0,1,238.0,1
413,413,0.06938816656691005,0.1,1.0,1.0,451.0,674.0,0.0,0,375.0,0
414,414,0.45401435079738983,0.5,0.0,0.0,369.0,824.0,1.0,0,77.0,0
415,415,0.06694828108451145,0.1,1.0,1.0,464.0,502.0,1.0,1,1224.0,1
416,416,-0.7939035993099349,-0.8,1.0,0.0,261.0,797.0,0.0,0,492.0,1
417,417,-0.05327454320440539,-0.1,1.0,0.0,456.0,902.0,1.0,1,762.0,0
418,418,0.8017987793537565,0.8,1.0,1.0,276.0,888.0,1.0,1,296.0,1
419,419,-0.6606800012042836,-0.7,0.0,1.0,496.0,905.0,1.0,0,499.0,1
420,420,-0.5225628985359124,-0.5,0.0,1.0,314.0,999.0,1.0,0,197.0,1
421,421,-0.1911054901963133,-0.2,1.0,0.0,466.0,550.0,0.0,0,774.0,1
422,422,-0.6039210596914171,-0.6,1.0,0.0,313.0,837.0,0.0,0,290.0,1
423,423,0.6189539963839917,0.6,1.0,1.0,447.0,989.0,1.0,1,214.0,1
424,424,-0.42076332105170455,-0.4,0.0,1.0,432.0,855.0,0.0,1,573.0,0
425,425,0.5365308389249833,0.5,0.0,0.0,421.0,536.0,0.0,1,663.0,1
426,426,0.08231877439763435,0.1,1.0,1.0,465.0,714.0,1.0,1,531.0,1
427,427,-0.15370746382685352,-0.2,0.0,1.0,307.0,869.0,1.0,0,334.0,1
428,428,0.400946453425325,0.4,1.0,1.0,459.0,986.0,1.0,1,385.0,1
429,429,-0.7691065593702889,-0.8,0.0,1.0,337.0,555.0,1.0,0,688.0,1
430,430,-0.11909325927024705,-0.1,1.0,0.0,331.0,751.0,1.0,1,478.0,0
431,431,0.7152609199487961,0.7,0.0,0.0,273.0,533.0,0.0,1,544.0,1
432,432,-0.16524473300759723,-0.2,0.0,1.0,478.0,845.0,1.0,0,257.0,1
433,433,0.38010645682807,0.4,1.0,1.0,470.0,646.0,1.0,1,274.0,1
434,434,-0.2927499113718224,-0.3,1.0,0.0,373.0,611.0,0.0,0,696.0,1
435,435,0.04633528979397561,0.0,0.0,0.0,379.0,739.0,0.0,1,792.0,1
436,436,-0.15124017739652784,-0.2,0.0,1.0,328.0,851.0,1.0,0,71.0,1
437,437,0.8936605250290471,0.9,0.0,0.0,294.0,617.0,0.0,1,359.0,1
438,438,0.5285434329210218,0.5,1.0,1.0,426.0,825.0,1.0,1,179.0,1
439,439,0.6100544269859934,0.6,0.0,0.0,339.0,624.0,0.0,1,387.0,1
440,440,-0.7567676118411103,-0.8,1.0,0.0,496.0,615.0,0.0,0,439.0,1
441,441,0.09468329951898657,0.1,0.0,0.0,322.0,942.0,1.0,0,186.0,0
442,442,-0.5662908406231577,-0.6,0.0,1.0,311.0,737.0,1.0,0,582.0,1
443,443,-0.7002295667575169,-0.7,0.0,1.0,427.0,653.0,1.0,0,310.0,1
444,444,0.4839727122939935,0.5,0.0,0.0,376.0,708.0,0.0,1,226.0,1
445,445,0.5611796942481707,0.6,0.0,0.0,259.0,730.0,0.0,1,381.0,1
446,446,0.7537337658901239,0.8,0.0,0.0,407.0,609.0,0.0,1,534.0,1
447,447,-0.5181431223013462,-0.5,0.0,1.0,461.0,567.0,1.0,0,322.0,1
448,448,0.3369631171626034,0.3,1.0,1.0,441.0,848.0,1.0,1,241.0,1
449,449,0.7188018836027302,0.7,0.0,0.0,331.0,573.0,0.0,1,626.0,1
450,450,-0.8758640081507975,-0.9,1.0,0.0,323.0,872.0,0.0,0,255.0,1
451,451,-0.4925654282062112,-0.5,0.0,1.0,288.0,892.0,1.0,0,-40.0,1
452,452,-0.028502011180358666,-0.0,0.0,1.0,358.0,943.0,1.0,0,229.0,1
453,453,0.27170580085865226,0.3,0.0,0.0,379.0,724.0,0.0,1,637.0,1
454,454,0.6507841491871219,0.7,0.0,0.0,463.0,597.0,0.0,1,370.0,1
455,455,0.11066639627756458,0.1,1.0,1.0,373.0,716.0,1.0,1,861.0,1
456,456,0.4171713106167191,0.4,0.0,0.0,420.0,878.0,0.0,1,622.0,1
457,457,0.2797053486799176,0.3,1.0,1.0,441.0,865.0,1.0,1,374.0,1
458,458,-0.36665788262333143,-0.4,1.0,0.0,268.0,853.0,0.0,0,289.0,1
459,459,-0.5584317709831268,-0.6,0.0,1.0,363.0,599.0,1.0,0,468.0,1
460,460,0.1627378573501176,0.2,1.0,1.0,285.0,585.0,1.0,1,520.0,1
461,461,0.3242301818515675,0.3,0.0,0.0,403.0,723.0,0.0,1,754.0,1
462,462,-0.2729601730215512,-0.3,0.0,1.0,268.0,695.0,1.0,0,417.0,1
463,463,0.7219752117795338,0.7,0.0,0.0,325.0,821.0,1.0,0,44.0,0
464,464,-0.4923623375141712,-0.5,0.0,1.0,424.0,924.0,1.0,0,172.0,1
465,465,-0.27975195432656597,-0.3,0.0,1.0,278.0,723.0,1.0,0,409.0,1
466,466,-0.844236556687325,-0.8,0.0,1.0,291.0,958.0,1.0,0,171.0,1
467,467,-0.05561101427370485,-0.1,1.0,0.0,253.0,586.0,1.0,1,581.0,0
468,468,-0.417674271916725,-0.4,0.0,1.0,315.0,585.0,1.0,0,180.0,1
469,469,-0.39473987912459096,-0.4,1.0,0.0,289.0,703.0,1.0,1,518.0,0
470,470,0.7052384545196936,0.7,1.0,1.0,339.0,618.0,1.0,1,373.0,1
471,471,-0.2439856421873825,-0.2,1.0,0.0,444.0,878.0,1.0,1,408.0,0
472,472,0.6698901167216192,0.7,1.0,1.0,438.0,919.0,1.0,1,173.0,1
473,473,0.7156284251981296,0.7,1.0,1.0,435.0,825.0,1.0,1,340.0,1
474,474,-0.7875610338532143,-0.8,1.0,0.0,442.0,818.0,0.0,0,410.0,1
475,475,0.16782248001456723,0.2,0.0,0.0,396.0,721.0,1.0,0,363.0,0
476,476,0.09172782003255242,0.1,1.0,1.0,456.0,754.0,0.0,0,480.0,0
477,477,0.38648333515350963,0.4,1.0,1.0,305.0,974.0,1.0,1,311.0,1
478,478,0.4965421950501069,0.5,1.0,1.0,468.0,976.0,1.0,1,286.0,1
479,479,0.8471426122762656,0.8,1.0,1.0,312.0,697.0,1.0,1,301.0,1
480,480,-0.3200879487441075,-0.3,1.0,0.0,294.0,808.0,0.0,0,208.0,1
481,481,-0.8768926690539713,-0.9,1.0,0.0,326.0,564.0,0.0,0,430.0,1
482,482,0.6141457470543711,0.6,1.0,1.0,479.0,964.0,1.0,1,177.0,1
483,483,-0.6813786710578881,-0.7,1.0,0.0,263.0,840.0,0.0,0,307.0,1
484,484,0.12626540737821557,0.1,0.0,0.0,265.0,866.0,1.0,0,-41.0,0
485,485,-0.5433844648822268,-0.5,1.0,0.0,360.0,798.0,0.0,0,252.0,1
486,486,0.6158666584696025,0.6,1.0,1.0,440.0,691.0,1.0,1,1119.0,1
487,487,-0.487488287335964,-0.5,1.0,0.0,337.0,662.0,0.0,0,331.0,1
488,488,-0.7379284559122428,-0.7,0.0,1.0,496.0,885.0,1.0,0,199.0,1
489,489,0.6996455183571385,0.7,1.0,1.0,334.0,797.0,1.0,1,369.0,1
490,490,-0.016713766425640153,-0.0,1.0,0.0,296.0,784.0,1.0,1,560.0,0
491,491,-0.2661796716156001,-0.3,1.0,0.0,397.0,739.0,0.0,0,244.0,1
492,492,-0.3646131669860879,-0.4,0.0,1.0,296.0,684.0,1.0,0,860.0,1
493,493,0.5350996640571523,0.5,1.0,1.0,365.0,843.0,1.0,1,302.0,1
494,494,-0.5024468346807995,-0.5,0.0,1.0,429.0,734.0,1.0,0,237.0,1
495,495,-0.2387941372220258,-0.2,1.0,0.0,340.0,983.0,0.0,0,227.0,1
496,496,0.25745680695949724,0.3,0.0,0.0,443.0,671.0,0.0,1,446.0,1
497,497,0.8714327693136664,0.9,0.0,0.0,400.0,675.0,0.0,1,575.0,1
498,498,-0.11470929446474831,-0.1,1.0,0.0,410.0,711.0,0.0,0,579.0,1
499,499,0.5019167895861313,0.5,1.0,1.0,475.0,679.0,1.0,1,526.0,1
500,500,0.6640195429057122,0.7,1.0,1.0,381.0,902.0,1.0,1,417.0,1
501,501,-0.45091792350832766,-0.5,0.0,1.0,397.0,678.0,1.0,0,285.0,1
502,502,-0.8437457562415122,-0.8,1.0,0.0,251.0,629.0,0.0,0,300.0,1
503,503,0.8541814987736617,0.9,0.0,0.0,268.0,731.0,0.0,1,541.0,1
504,504,-0.6136665448584491,-0.6,0.0,1.0,357.0,639.0,1.0,0,314.0,1
505,505,0.14980522705206478,0.1,0.0,0.0,422.0,529.0,0.0,1,999.0,1
506,506,-0.34132615138529154,-0.3,1.0,0.0,429.0,619.0,0.0,0,552.0,1
507,507,0.6680706549529002,0.7,1.0,1.0,462.0,951.0,1.0,1,327.0,1
508,508,-0.8302856362608947,-0.8,1.0,0.0,479.0,586.0,0.0,0,375.0,1
509,509,0.4304135157690817,0.4,1.0,1.0,335.0,501.0,1.0,1,534.0,1
510,510,0.5686452982564668,0.6,0.0,0.0,454.0,660.0,0.0,1,396.0,1
511,511,0.5481644546100369,0.5,1.0,1.0,471.0,980.0,1.0,1,1739.0,1
512,512,-0.7717545076878447,-0.8,1.0,0.0,280.0,648.0,0.0,0,232.0,1
513,513,0.29555152122209527,0.3,1.0,1.0,447.0,751.0,1.0,1,312.0,1
514,514,0.7972294919951469,0.8,1.0,1.0,492.0,754.0,1.0,1,194.0,1
515,515,-0.21827526393668517,-0.2,0.0,1.0,376.0,940.0,1.0,0,-16.0,1
516,516,-0.17126794073511986,-0.2,0.0,1.0,434.0,955.0,1.0,0,431.0,1
517,517,-0.2516005047975991,-0.3,0.0,1.0,347.0,914.0,1.0,0,879.0,1
518,518,-0.14817312096586543,-0.1,0.0,1.0,432.0,538.0,1.0,0,550.0,1
519,519,-0.5338593409839487,-0.5,0.0,1.0,379.0,534.0,1.0,0,437.0,1
520,520,0.4482474845159917,0.4,0.0,0.0,454.0,533.0,0.0,1,883.0,1
521,521,-0.3877511724979502,-0.4,0.0,1.0,335.0,904.0,1.0,0,661.0,1
522,522,0.1251862324423284,0.1,0.0,0.0,336.0,833.0,0.0,1,881.0,1
523,523,0.37014888734724793,0.4,1.0,1.0,274.0,673.0,1.0,1,383.0,1
524,524,0.8559500620648394,0.9,0.0,0.0,473.0,642.0,0.0,1,225.0,1
525,525,-0.6430147455018482,-0.6,1.0,0.0,464.0,533.0,0.0,0,813.0,1
526,526,-0.5117212428362297,-0.5,1.0,0.0,410.0,540.0,0.0,0,320.0,1
527,527,-0.6785247339185013,-0.7,1.0,0.0,250.0,789.0,0.0,0,331.0,1
528,528,-0.14199006957972216,-0.1,0.0,1.0,487.0,541.0,1.0,0,412.0,1
529,529,-0.3283399759448924,-0.3,0.0,1.0,307.0,563.0,1.0,0,390.0,1
530,530,0.19106555200031894,0.2,0.0,0.0,307.0,898.0,1.0,0,175.0,0
531,531,-0.03996596038395084,-0.0,1.0,0.0,482.0,677.0,0.0,0,271.0,1
532,532,0.7076764626146589,0.7,0.0,0.0,433.0,789.0,0.0,1,318.0,1
533,533,0.12631597879362666,0.1,0.0,0.0,358.0,741.0,0.0,1,241.0,1
534,534,-0.5593906296506445,-0.6,0.0,1.0,355.0,831.0,1.0,0,274.0,1
535,535,-0.8040271839166377,-0.8,0.0,1.0,477.0,619.0,1.0,0,294.0,1
536,536,0.7888390759046412,0.8,0.0,0.0,263.0,733.0,0.0,1,374.0,1
537,537,0.15191786736988344,0.2,0.0,0.0,304.0,703.0,0.0,1,353.0,1
538,538,-0.3988653901451088,-0.4,1.0,0.0,402.0,561.0,0.0,0,427.0,1
539,539,-0.19912930781129523,-0.2,1.0,0.0,338.0,546.0,0.0,0,2166.0,1
540,540,0.5020382430315381,0.5,0.0,0.0,469.0,703.0,0.0,1,548.0,1
541,541,-0.1527501758536186,-0.2,0.0,1.0,459.0,974.0,0.0,1,-103.0,0
542,542,0.669796726221909,0.7,0.0,0.0,301.0,905.0,0.0,1,344.0,1
543,543,-0.6661613748207769,-0.7,0.0,1.0,446.0,731.0,1.0,0,203.0,1
544,544,0.4491215200105877,0.4,0.0,0.0,426.0,968.0,1.0,0,-84.0,0
545,545,-0.7458631630746029,-0.7,1.0,0.0,311.0,737.0,0.0,0,442.0,1
546,546,0.2316199787778056,0.2,0.0,0.0,254.0,830.0,0.0,1,376.0,1
547,547,-0.3843033663548643,-0.4,0.0,1.0,317.0,555.0,1.0,0,938.0,1
548,548,-0.1298809845636404,-0.1,1.0,0.0,445.0,878.0,0.0,0,207.0,1
549,549,-0.653565077028596,-0.7,0.0,1.0,480.0,779.0,1.0,0,201.0,1
550,550,-0.060388588128829745,-0.1,0.0,1.0,261.0,823.0,0.0,1,1096.0,0
551,551,0.5652350863329331,0.6,1.0,1.0,480.0,737.0,1.0,1,293.0,1
552,552,-0.5625565815014606,-0.6,0.0,1.0,434.0,748.0,1.0,0,828.0,1
553,553,-0.311414125566182,-0.3,1.0,0.0,258.0,752.0,1.0,1,380.0,0
554,554,-0.07071116102291697,-0.1,0.0,1.0,490.0,574.0,1.0,0,546.0,1
555,555,0.7073864921217393,0.7,1.0,1.0,378.0,765.0,1.0,1,177.0,1
556,556,-0.5401493655364353,-0.5,0.0,1.0,496.0,841.0,1.0,0,303.0,1
557,557,0.49506470240300093,0.5,1.0,1.0,329.0,653.0,0.0,0,538.0,0
558,558,-0.25090292271542125,-0.3,0.0,1.0,327.0,769.0,1.0,0,954.0,1
559,559,-0.0601108487533879,-0.1,1.0,0.0,429.0,668.0,1.0,1,493.0,0
560,560,-0.7880177550897965,-0.8,0.0,1.0,294.0,773.0,1.0,0,193.0,1
561,561,-0.8104564933805306,-0.8,0.0,1.0,448.0,736.0,1.0,0,226.0,1
562,562,-0.2517924158182967,-0.3,1.0,0.0,440.0,889.0,0.0,0,51.0,1
563,563,0.014451165024040202,0.0,0.0,0.0,358.0,883.0,0.0,1,719.0,1
564,564,0.4102908969081306,0.4,0.0,0.0,365.0,936.0,0.0,1,329.0,1
565,565,0.030472431749601903,0.0,0.0,0.0,485.0,898.0,0.0,1,517.0,1
566,566,-0.11256968500016884,-0.1,0.0,1.0,448.0,559.0,1.0,0,423.0,1
567,567,0.3494512590877187,0.3,1.0,1.0,279.0,964.0,1.0,1,877.0,1
568,568,0.12786249200228983,0.1,1.0,1.0,306.0,765.0,0.0,0,389.0,0
569,569,-0.6621990384906743,-0.7,0.0,1.0,372.0,830.0,1.0,0,118.0,1
570,570,0.15269329283920208,0.2,0.0,0.0,291.0,569.0,1.0,0,490.0,0
571,571,-0.6953450447016903,-0.7,0.0,1.0,404.0,790.0,1.0,0,56.0,1
572,572,0.05514843428742222,0.1,0.0,0.0,333.0,629.0,1.0,0,1598.0,0
573,573,-0.7780358266511215,-0.8,1.0,0.0,264.0,911.0,0.0,0,115.0,1
574,574,-0.7016381566593328,-0.7,1.0,0.0,368.0,587.0,0.0,0,435.0,1
575,575,0.8296988057781064,0.8,1.0,1.0,390.0,713.0,1.0,1,327.0,1
576,576,-0.49458670666351623,-0.5,0.0,1.0,493.0,534.0,1.0,0,313.0,1
577,577,0.5561496421477249,0.6,0.0,0.0,379.0,936.0,0.0,1,495.0,1
578,578,0.3351310797535446,0.3,0.0,0.0,369.0,911.0,0.0,1,40.0,1
579,579,0.5358419156092572,0.5,0.0,0.0,333.0,656.0,0.0,1,601.0,1
580,580,0.007176864712463482,0.0,0.0,0.0,412.0,978.0,1.0,0,290.0,0
581,581,0.8338146222392523,0.8,1.0,1.0,295.0,862.0,1.0,1,193.0,1
582,582,0.7501629940609186,0.8,0.0,0.0,491.0,719.0,0.0,1,270.0,1
583,583,-0.1743503561850358,-0.2,0.0,1.0,399.0,650.0,1.0,0,511.0,1
584,584,-0.21973407339236106,-0.2,1.0,0.0,417.0,612.0,0.0,0,831.0,1
585,585,-0.46633213897443343,-0.5,0.0,1.0,375.0,965.0,1.0,0,680.0,1
586,586,-0.40288801124631,-0.4,1.0,0.0,441.0,742.0,0.0,0,527.0,1
587,587,0.7948552675438899,0.8,1.0,1.0,413.0,919.0,1.0,1,198.0,1
588,588,-0.016415220811013098,-0.0,0.0,1.0,386.0,654.0,0.0,1,300.0,0
589,589,0.6016863765640609,0.6,0.0,0.0,398.0,701.0,0.0,1,481.0,1
590,590,-0.6066290534911623,-0.6,0.0,1.0,278.0,652.0,1.0,0,290.0,1
591,591,-0.49494501933465695,-0.5,1.0,0.0,381.0,555.0,0.0,0,704.0,1
592,592,-0.38653714278148754,-0.4,0.0,1.0,389.0,882.0,1.0,0,419.0,1
593,593,-0.19699189606765088,-0.2,0.0,1.0,377.0,772.0,1.0,0,551.0,1
594,594,0.7226760285199733,0.7,1.0,1.0,440.0,710.0,1.0,1,160.0,1
595,595,0.6227413584066589,0.6,1.0,1.0,259.0,517.0,1.0,1,494.0,1
596,596,0.20941548136626598,0.2,0.0,0.0,492.0,762.0,1.0,0,266.0,0
597,597,-0.5737113726481324,-0.6,0.0,1.0,420.0,690.0,1.0,0,430.0,1
598,598,0.8511306693867083,0.9,0.0,0.0,401.0,682.0,0.0,1,207.0,1
599,599,0.8594998827936559,0.9,0.0,0.0,319.0,822.0,0.0,1,1259.0,1
600,600,-0.023254727057655522,-0.0,0.0,1.0,479.0,770.0,0.0,1,451.0,0
601,601,0.5081335038735194,0.5,0.0,0.0,415.0,777.0,0.0,1,398.0,1
602,602,0.5417735822090418,0.5,0.0,0.0,317.0,778.0,0.0,1,345.0,1
603,603,0.38075538406762865,0.4,0.0,0.0,322.0,761.0,0.0,1,1207.0,1
604,604,-0.7198506509828365,-0.7,1.0,0.0,329.0,753.0,0.0,0,228.0,1
605,605,-0.27054952126876075,-0.3,0.0,1.0,255.0,844.0,1.0,0,231.0,1
606,606,0.09983658001695384,0.1,0.0,0.0,475.0,808.0,1.0,0,457.0,0
607,607,-0.6117558504760312,-0.6,0.0,1.0,304.0,634.0,1.0,0,152.0,1
608,608,0.7550265525174192,0.8,1.0,1.0,332.0,600.0,1.0,1,1008.0,1
609,609,-0.756518526401625,-0.8,1.0,0.0,406.0,604.0,0.0,0,280.0,1
610,610,0.6538852212758471,0.7,1.0,1.0,356.0,875.0,1.0,1,289.0,1
611,611,0.12693096116528968,0.1,0.0,0.0,323.0,719.0,0.0,1,478.0,1
612,612,-0.21902320654592222,-0.2,1.0,0.0,357.0,693.0,0.0,0,520.0,1
613,613,0.13948462858161548,0.1,0.0,0.0,464.0,906.0,0.0,1,110.0,1
614,614,-0.596053246410003,-0.6,0.0,1.0,392.0,735.0,1.0,0,423.0,1
615,615,-0.35654166371375917,-0.4,1.0,0.0,315.0,630.0,0.0,0,1125.0,1
616,616,-0.14585383486239134,-0.1,0.0,1.0,282.0,714.0,0.0,1,424.0,0
617,617,-0.6588732306231309,-0.7,1.0,0.0,386.0,752.0,0.0,0,332.0,1
618,618,-0.19964539508444268,-0.2,0.0,1.0,430.0,822.0,0.0,1,388.0,0
619,619,0.5500927726507862,0.6,1.0,1.0,420.0,664.0,1.0,1,596.0,1
620,620,0.8217256833788879,0.8,0.0,0.0,368.0,933.0,0.0,1,579.0,1
621,621,-0.6201806961728309,-0.6,1.0,0.0,423.0,564.0,0.0,0,363.0,1
622,622,-0.2799132338364593,-0.3,0.0,1.0,317.0,652.0,1.0,0,451.0,1
623,623,0.4187004329107443,0.4,1.0,1.0,390.0,530.0,1.0,1,1430.0,1
624,624,0.6522589145538756,0.7,0.0,0.0,267.0,566.0,0.0,1,387.0,1
625,625,-0.8025639912504483,-0.8,1.0,0.0,493.0,711.0,0.0,0,336.0,1
626,626,0.742074013300064,0.7,0.0,0.0,355.0,632.0,0.0,1,413.0,1
627,627,-0.07010271957288494,-0.1,0.0,1.0,489.0,822.0,1.0,0,69.0,1
628,628,-0.33388031849060373,-0.3,0.0,1.0,288.0,695.0,1.0,0,237.0,1
629,629,0.0638835323292164,0.1,0.0,0.0,415.0,820.0,1.0,0,45.0,0
630,630,-0.28635537546271317,-0.3,0.0,1.0,423.0,809.0,0.0,1,408.0,0
631,631,-0.6637796250239286,-0.7,0.0,1.0,472.0,641.0,1.0,0,487.0,1
632,632,0.5203895503445771,0.5,0.0,0.0,275.0,612.0,0.0,1,453.0,1
633,633,-0.33631995117365254,-0.3,0.0,1.0,351.0,707.0,1.0,0,1162.0,1
634,634,0.32981526353411905,0.3,0.0,0.0,253.0,863.0,0.0,1,124.0,1
635,635,-0.6848031757233859,-0.7,1.0,0.0,343.0,616.0,0.0,0,391.0,1
636,636,-0.14963520088583926,-0.1,1.0,0.0,381.0,563.0,0.0,0,756.0,1
637,637,-0.7627283842686828,-0.8,1.0,0.0,400.0,660.0,0.0,0,190.0,1
638,638,-0.6643876434822685,-0.7,0.0,1.0,387.0,613.0,1.0,0,280.0,1
639,639,0.5322284699363394,0.5,0.0,0.0,252.0,811.0,0.0,1,437.0,1
640,640,0.21526750429557928,0.2,1.0,1.0,369.0,561.0,0.0,0,1240.0,0
641,641,-0.014714236266361702,-0.0,1.0,0.0,346.0,636.0,0.0,0,478.0,1
642,642,-0.41987191968544346,-0.4,0.0,1.0,281.0,657.0,1.0,0,402.0,1
643,643,-0.6777221974263863,-0.7,0.0,1.0,313.0,939.0,1.0,0,608.0,1
644,644,-0.4143378953921678,-0.4,1.0,0.0,399.0,865.0,0.0,0,226.0,1
645,645,-0.5925090143052639,-0.6,1.0,0.0,440.0,531.0,0.0,0,459.0,1
646,646,0.7687215766409815,0.8,1.0,1.0,374.0,886.0,1.0,1,210.0,1
647,647,-0.8919660356134937,-0.9,0.0,1.0,499.0,774.0,1.0,0,107.0,1
648,648,-0.33618842095939716,-0.3,1.0,0.0,279.0,873.0,0.0,0,358.0,1
649,649,0.07068700181058729,0.1,0.0,0.0,258.0,780.0,1.0,0,132.0,0
650,650,0.3159311923035154,0.3,0.0,0.0,492.0,511.0,0.0,1,527.0,1
651,651,-0.12902697390324558,-0.1,0.0,1.0,435.0,974.0,1.0,0,-59.0,1
652,652,0.5496971199376736,0.5,0.0,0.0,440.0,526.0,0.0,1,914.0,1
653,653,0.06008271817835786,0.1,1.0,1.0,312.0,853.0,1.0,1,685.0,1
654,654,-0.3434296255848902,-0.3,0.0,1.0,492.0,973.0,1.0,0,275.0,1
655,655,-0.6883617243856155,-0.7,1.0,0.0,297.0,513.0,0.0,0,400.0,1
656,656,-0.6358369484557805,-0.6,0.0,1.0,415.0,574.0,1.0,0,721.0,1
657,657,0.8925326982306633,0.9,1.0,1.0,336.0,962.0,0.0,0,162.0,0
658,658,0.763244316320402,0.8,0.0,0.0,477.0,668.0,0.0,1,125.0,1
659,659,0.2446974477292948,0.2,0.0,0.0,309.0,571.0,0.0,1,360.0,1
660,660,0.16704038927288634,0.2,0.0,0.0,443.0,516.0,0.0,1,1301.0,1
661,661,-0.09327106277766284,-0.1,1.0,0.0,425.0,759.0,0.0,0,746.0,1
662,662,-0.773592573992912,-0.8,0.0,1.0,492.0,565.0,1.0,0,413.0,1
663,663,0.49456459366876604,0.5,1.0,1.0,291.0,708.0,1.0,1,681.0,1
664,664,-0.8866900895851538,-0.9,0.0,1.0,378.0,615.0,1.0,0,187.0,1
665,665,0.20742382277576266,0.2,1.0,1.0,371.0,658.0,1.0,1,781.0,1
666,666,-0.6746769113477658,-0.7,0.0,1.0,348.0,755.0,1.0,0,637.0,1
667,667,0.3927586430273543,0.4,1.0,1.0,323.0,734.0,1.0,1,553.0,1
668,668,0.10353695616394776,0.1,0.0,0.0,459.0,503.0,0.0,1,618.0,1
669,669,0.7656141835181486,0.8,0.0,0.0,294.0,856.0,0.0,1,230.0,1
670,670,0.4607578558421809,0.5,0.0,0.0,329.0,657.0,0.0,1,284.0,1
671,671,-0.24490460125022206,-0.2,0.0,1.0,484.0,755.0,1.0,0,921.0,1
672,672,-0.1452827894254589,-0.1,1.0,0.0,495.0,823.0,0.0,0,472.0,1
673,673,0.2118785051410027,0.2,1.0,1.0,398.0,581.0,1.0,1,311.0,1
674,674,-0.6466612206248032,-0.6,1.0,0.0,287.0,551.0,0.0,0,422.0,1
675,675,0.3630965608735811,0.4,1.0,1.0,331.0,800.0,1.0,1,349.0,1
676,676,-0.8864431179977426,-0.9,0.0,1.0,442.0,617.0,1.0,0,291.0,1
677,677,-0.24176788094904167,-0.2,1.0,0.0,346.0,890.0,0.0,0,84.0,1
678,678,-0.13328343321920777,-0.1,1.0,0.0,364.0,877.0,0.0,0,359.0,1
679,679,-0.1128187590964792,-0.1,0.0,1.0,345.0,752.0,1.0,0,703.0,1
680,680,-0.8760920609182947,-0.9,0.0,1.0,337.0,859.0,1.0,0,304.0,1
681,681,-0.8471479734017748,-0.8,1.0,0.0,271.0,820.0,0.0,0,399.0,1
682,682,-0.27454038248939117,-0.3,1.0,0.0,462.0,542.0,0.0,0,756.0,1
683,683,0.3960769476669227,0.4,1.0,1.0,393.0,648.0,1.0,1,699.0,1
684,684,0.030942565219265417,0.0,1.0,1.0,288.0,529.0,0.0,0,1143.0,0
685,685,-0.606162982366981,-0.6,1.0,0.0,343.0,590.0,0.0,0,417.0,1
686,686,0.1699100459027304,0.2,1.0,1.0,309.0,847.0,1.0,1,234.0,1
687,687,0.7439996016959186,0.7,0.0,0.0,313.0,880.0,0.0,1,147.0,1
688,688,-0.6870163196625534,-0.7,1.0,0.0,312.0,795.0,0.0,0,303.0,1
689,689,-0.3231112983660859,-0.3,0.0,1.0,455.0,811.0,1.0,0,424.0,1
690,690,-0.8489151716414656,-0.8,1.0,0.0,471.0,638.0,0.0,0,431.0,1
691,691,0.8683376027083803,0.9,1.0,1.0,465.0,691.0,1.0,1,654.0,1
692,692,0.6921122863148813,0.7,1.0,1.0,320.0,680.0,1.0,1,340.0,1
693,693,0.15552431624161434,0.2,0.0,0.0,434.0,863.0,0.0,1,153.0,1
694,694,0.05159270356379364,0.1,0.0,0.0,387.0,719.0,0.0,1,444.0,1
695,695,0.657170994239569,0.7,0.0,0.0,280.0,585.0,0.0,1,615.0,1
696,696,0.7213865270676577,0.7,0.0,0.0,346.0,719.0,0.0,1,545.0,1
697,697,-0.10175879631892382,-0.1,1.0,0.0,327.0,624.0,0.0,0,529.0,1
698,698,0.09663287703759971,0.1,1.0,1.0,257.0,540.0,1.0,1,533.0,1
699,699,0.7810040378584552,0.8,1.0,1.0,385.0,997.0,0.0,0,-32.0,0
700,700,-0.19243757193398103,-0.2,1.0,0.0,493.0,562.0,0.0,0,525.0,1
701,701,0.12980632921811475,0.1,0.0,0.0,341.0,985.0,1.0,0,234.0,0
702,702,-0.8476831186133408,-0.8,1.0,0.0,321.0,962.0,0.0,0,897.0,1
703,703,0.5075954193952142,0.5,1.0,1.0,310.0,589.0,0.0,0,471.0,0
704,704,0.5983335672062967,0.6,0.0,0.0,288.0,828.0,0.0,1,174.0,1
705,705,-0.47549848064816164,-0.5,1.0,0.0,426.0,892.0,0.0,0,402.0,1
706,706,0.7237816549149546,0.7,0.0,0.0,349.0,994.0,0.0,1,187.0,1
707,707,-0.5979982503969516,-0.6,1.0,0.0,390.0,645.0,0.0,0,245.0,1
708,708,0.45545899678719615,0.5,1.0,1.0,446.0,851.0,1.0,1,763.0,1
709,709,0.863001624349251,0.9,1.0,1.0,464.0,584.0,1.0,1,532.0,1
710,710,0.26554617367772526,0.3,0.0,0.0,491.0,716.0,1.0,0,313.0,0
711,711,0.08543734710381545,0.1,0.0,0.0,449.0,951.0,0.0,1,720.0,1
712,712,0.8488132528991094,0.8,1.0,1.0,365.0,886.0,1.0,1,149.0,1
713,713,-0.799749601743167,-0.8,1.0,0.0,302.0,828.0,0.0,0,410.0,1
714,714,0.5279107677328821,0.5,0.0,0.0,416.0,599.0,0.0,1,545.0,1
715,715,-0.49476946608072436,-0.5,1.0,0.0,438.0,833.0,0.0,0,429.0,1
716,716,0.5941636796990523,0.6,0.0,0.0,279.0,691.0,1.0,0,230.0,0
717,717,0.08265237684796489,0.1,1.0,1.0,444.0,534.0,1.0,1,1052.0,1
718,718,-0.6752451406416371,-0.7,0.0,1.0,423.0,800.0,1.0,0,267.0,1
719,719,-0.7381865071561733,-0.7,0.0,1.0,416.0,619.0,1.0,0,395.0,1
720,720,-0.04225683558927207,-0.0,0.0,1.0,270.0,882.0,0.0,1,988.0,0
721,721,-0.060919998139905784,-0.1,0.0,1.0,356.0,614.0,0.0,1,890.0,0
722,722,-0.7016622083053408,-0.7,1.0,0.0,283.0,610.0,0.0,0,427.0,1
723,723,0.3160186388032461,0.3,0.0,0.0,461.0,807.0,1.0,0,62.0,0
724,724,-0.08564438709375677,-0.1,0.0,1.0,422.0,562.0,1.0,0,1376.0,1
725,725,-0.06981140006466036,-0.1,1.0,0.0,274.0,881.0,1.0,1,385.0,0
726,726,-0.4205066179379922,-0.4,1.0,0.0,319.0,571.0,1.0,1,800.0,0
727,727,-0.06905834990631055,-0.1,1.0,0.0,261.0,915.0,0.0,0,364.0,1
728,728,0.7116416785165308,0.7,0.0,0.0,377.0,762.0,0.0,1,301.0,1
729,729,0.8160388869737184,0.8,1.0,1.0,489.0,702.0,1.0,1,499.0,1
730,730,0.3436616227227557,0.3,1.0,1.0,309.0,918.0,1.0,1,343.0,1
731,731,-0.7773895708786691,-0.8,0.0,1.0,424.0,720.0,1.0,0,316.0,1
732,732,-0.1910243522509375,-0.2,1.0,0.0,460.0,544.0,1.0,1,386.0,0
733,733,0.5543830884513462,0.6,1.0,1.0,492.0,653.0,1.0,1,465.0,1
734,734,-0.7298771359888356,-0.7,0.0,1.0,366.0,669.0,1.0,0,575.0,1
735,735,-0.6352694814724934,-0.6,1.0,0.0,415.0,841.0,0.0,0,194.0,1
736,736,-0.17206227106674432,-0.2,1.0,0.0,491.0,845.0,1.0,1,204.0,0
737,737,0.7046387649067493,0.7,0.0,0.0,327.0,546.0,0.0,1,467.0,1
738,738,0.6680260580806577,0.7,0.0,0.0,282.0,860.0,0.0,1,318.0,1
739,739,-0.2673722514339557,-0.3,0.0,1.0,276.0,525.0,1.0,0,819.0,1
740,740,0.27666562388488936,0.3,1.0,1.0,316.0,849.0,1.0,1,475.0,1
741,741,0.8086387974136818,0.8,0.0,0.0,342.0,605.0,0.0,1,353.0,1
742,742,-0.15740397193385325,-0.2,1.0,0.0,303.0,622.0,0.0,0,465.0,1
743,743,-0.14413513086900864,-0.1,1.0,0.0,393.0,544.0,0.0,0,513.0,1
744,744,0.021843368522831308,0.0,0.0,0.0,381.0,569.0,0.0,1,540.0,1
745,745,0.3965784788355545,0.4,0.0,0.0,347.0,677.0,0.0,1,856.0,1
746,746,0.7561680298140806,0.8,0.0,0.0,274.0,917.0,0.0,1,129.0,1
747,747,0.3732386572210066,0.4,1.0,1.0,423.0,566.0,1.0,1,351.0,1
748,748,0.19096266994282207,0.2,0.0,0.0,272.0,514.0,1.0,0,684.0,0
749,749,0.569643243124235,0.6,0.0,0.0,356.0,679.0,0.0,1,495.0,1
750,750,0.17370327643236616,0.2,0.0,0.0,288.0,532.0,1.0,0,600.0,0
751,751,-0.7498684878343468,-0.7,1.0,0.0,388.0,541.0,0.0,0,481.0,1
752,752,0.5804910080756859,0.6,0.0,0.0,251.0,890.0,1.0,0,9.0,0
753,753,-0.5726328352635716,-0.6,0.0,1.0,309.0,531.0,1.0,0,540.0,1
754,754,-0.7650808933223769,-0.8,0.0,1.0,366.0,801.0,1.0,0,793.0,1
755,755,0.4235698970507801,0.4,1.0,1.0,376.0,711.0,1.0,1,443.0,1
756,756,-0.4021006315131691,-0.4,0.0,1.0,263.0,686.0,1.0,0,601.0,1
757,757,0.4740905826177292,0.5,0.0,0.0,319.0,680.0,0.0,1,491.0,1
758,758,-0.47924807033476496,-0.5,0.0,1.0,390.0,531.0,1.0,0,529.0,1
759,759,0.7416060261177969,0.7,0.0,0.0,344.0,629.0,0.0,1,317.0,1
760,760,-0.8486227893128127,-0.8,1.0,0.0,493.0,735.0,0.0,0,352.0,1
761,761,-0.21494116039231626,-0.2,0.0,1.0,250.0,866.0,1.0,0,304.0,1
762,762,-0.8898259928647095,-0.9,0.0,1.0,430.0,760.0,1.0,0,290.0,1
763,763,0.2653132382279878,0.3,1.0,1.0,358.0,785.0,1.0,1,557.0,1
764,764,-0.8160834311337445,-0.8,1.0,0.0,250.0,576.0,0.0,0,324.0,1
765,765,0.03196223927183106,0.0,0.0,0.0,466.0,930.0,1.0,0,324.0,0
766,766,-0.12985760191120088,-0.1,1.0,0.0,307.0,777.0,0.0,0,556.0,1
767,767,-0.4565802926138699,-0.5,0.0,1.0,387.0,610.0,1.0,0,963.0,1
768,768,0.5770441253013804,0.6,1.0,1.0,292.0,510.0,1.0,1,428.0,1
769,769,0.08118230861073783,0.1,0.0,0.0,273.0,755.0,1.0,0,882.0,0
770,770,-0.4469914006734385,-0.4,1.0,0.0,303.0,651.0,0.0,0,466.0,1
771,771,-0.6793034209062448,-0.7,1.0,0.0,267.0,873.0,0.0,0,310.0,1
772,772,0.5375338278784717,0.5,0.0,0.0,425.0,622.0,0.0,1,443.0,1
773,773,-0.39932637081581346,-0.4,1.0,0.0,461.0,523.0,0.0,0,436.0,1
774,774,0.20896958804990617,0.2,1.0,1.0,370.0,961.0,1.0,1,-31.0,1
775,775,0.5081803329982305,0.5,1.0,1.0,485.0,646.0,1.0,1,419.0,1
776,776,0.3966171272899154,0.4,1.0,1.0,498.0,817.0,1.0,1,425.0,1
777,777,-0.6741240760856493,-0.7,0.0,1.0,348.0,585.0,1.0,0,717.0,1
778,778,0.3532948810359605,0.4,0.0,0.0,303.0,506.0,0.0,1,1011.0,1
779,779,0.2514540699212543,0.3,1.0,1.0,273.0,545.0,0.0,0,662.0,0
780,780,0.030691780849942285,0.0,0.0,0.0,424.0,997.0,0.0,1,399.0,1
781,781,-0.8059360315643365,-0.8,1.0,0.0,322.0,766.0,0.0,0,222.0,1
782,782,0.1311403101941363,0.1,1.0,1.0,290.0,585.0,0.0,0,1355.0,0
783,783,-0.4340550649934207,-0.4,0.0,1.0,447.0,810.0,0.0,1,963.0,0
784,784,0.29328258757251124,0.3,1.0,1.0,265.0,803.0,1.0,1,532.0,1
785,785,-0.4781962357655991,-0.5,0.0,1.0,336.0,716.0,1.0,0,288.0,1
786,786,0.8894477055852185,0.9,1.0,1.0,330.0,566.0,1.0,1,814.0,1
787,787,0.8940766186039214,0.9,1.0,1.0,299.0,973.0,1.0,1,448.0,1
788,788,-0.8069033771960916,-0.8,0.0,1.0,316.0,540.0,1.0,0,484.0,1
789,789,-0.23519841291183363,-0.2,1.0,0.0,460.0,896.0,1.0,1,624.0,0
790,790,0.2717996983047176,0.3,1.0,1.0,304.0,582.0,1.0,1,434.0,1
791,791,0.5259734089727407,0.5,1.0,1.0,286.0,611.0,1.0,1,823.0,1
792,792,0.5307444693782587,0.5,0.0,0.0,387.0,769.0,0.0,1,644.0,1
793,793,-0.0187021842915035,-0.0,0.0,1.0,404.0,774.0,1.0,0,952.0,1
794,794,0.8054287690312872,0.8,1.0,1.0,387.0,803.0,1.0,1,510.0,1
795,795,0.3798383116042855,0.4,0.0,0.0,359.0,941.0,1.0,0,-80.0,0
796,796,0.5202571004887561,0.5,1.0,1.0,386.0,859.0,1.0,1,485.0,1
797,797,-0.4995461017054927,-0.5,1.0,0.0,430.0,524.0,0.0,0,1066.0,1
798,798,-0.4381033975253073,-0.4,1.0,0.0,337.0,964.0,0.0,0,99.0,1
799,799,0.47694387726070364,0.5,0.0,0.0,427.0,991.0,0.0,1,132.0,1
800,800,-0.6544110828617633,-0.7,1.0,0.0,350.0,798.0,0.0,0,272.0,1
801,801,-0.8358787927676418,-0.8,1.0,0.0,464.0,500.0,0.0,0,636.0,1
802,802,0.4848553004481918,0.5,1.0,1.0,252.0,997.0,1.0,1,201.0,1
803,803,-0.7570348918935171,-0.8,0.0,1.0,435.0,566.0,1.0,0,459.0,1
804,804,-0.21958669916378493,-0.2,1.0,0.0,349.0,679.0,0.0,0,202.0,1
805,805,0.1372519893425591,0.1,0.0,0.0,345.0,960.0,1.0,0,525.0,0
806,806,-0.6459628837146771,-0.6,0.0,1.0,461.0,968.0,1.0,0,131.0,1
807,807,0.8506473185220996,0.9,0.0,0.0,291.0,979.0,1.0,0,-40.0,0
808,808,0.12031369565586025,0.1,0.0,0.0,445.0,775.0,0.0,1,120.0,1
809,809,0.438039117900087,0.4,1.0,1.0,405.0,973.0,1.0,1,82.0,1
810,810,0.6596742581391032,0.7,0.0,0.0,441.0,818.0,0.0,1,161.0,1
811,811,-0.49967138351886614,-0.5,1.0,0.0,348.0,978.0,0.0,0,334.0,1
812,812,0.8946035128625219,0.9,1.0,1.0,385.0,927.0,1.0,1,118.0,1
813,813,0.616879572628554,0.6,1.0,1.0,297.0,752.0,1.0,1,1021.0,1
814,814,-0.3597173354771863,-0.4,0.0,1.0,418.0,868.0,1.0,0,154.0,1
815,815,-0.8075414580285722,-0.8,1.0,0.0,325.0,863.0,0.0,0,402.0,1
816,816,0.08597030626042745,0.1,1.0,1.0,445.0,899.0,0.0,0,1226.0,0
817,817,-0.544373246124263,-0.5,1.0,0.0,439.0,512.0,0.0,0,459.0,1
818,818,0.4476478999993748,0.4,1.0,1.0,401.0,852.0,1.0,1,77.0,1
819,819,0.4442291683578671,0.4,1.0,1.0,369.0,821.0,1.0,1,310.0,1
820,820,0.511112274808243,0.5,0.0,0.0,467.0,997.0,0.0,1,586.0,1
821,821,0.758454506015669,0.8,0.0,0.0,447.0,657.0,0.0,1,276.0,1
822,822,0.6586735987357707,0.7,0.0,0.0,295.0,881.0,0.0,1,34.0,1
823,823,0.273337752579062,0.3,0.0,0.0,391.0,743.0,0.0,1,956.0,1
824,824,0.7961348472169968,0.8,1.0,1.0,282.0,615.0,1.0,1,403.0,1
825,825,0.6817171480823893,0.7,1.0,1.0,253.0,659.0,1.0,1,288.0,1
826,826,-0.702630003138126,-0.7,0.0,1.0,463.0,998.0,1.0,0,39.0,1
827,827,0.37075731425964487,0.4,1.0,1.0,469.0,857.0,1.0,1,354.0,1
828,828,0.03608760410553624,0.0,1.0,1.0,310.0,653.0,1.0,1,697.0,1
829,829,-0.7967642250890296,-0.8,0.0,1.0,499.0,555.0,1.0,0,426.0,1
830,830,0.40539040599750387,0.4,0.0,0.0,256.0,594.0,1.0,0,880.0,0
831,831,0.7957351761107804,0.8,1.0,1.0,411.0,510.0,1.0,1,1019.0,1
832,832,0.23607484030846304,0.2,0.0,0.0,308.0,756.0,0.0,1,966.0,1
833,833,0.5400163449802876,0.5,1.0,1.0,343.0,545.0,1.0,1,482.0,1
834,834,0.1580047054707373,0.2,0.0,0.0,379.0,794.0,0.0,1,167.0,1
835,835,-0.48129043971442625,-0.5,1.0,0.0,342.0,995.0,0.0,0,433.0,1
836,836,-0.8122992942349652,-0.8,0.0,1.0,288.0,976.0,0.0,1,46.0,0
837,837,-0.7244494077794539,-0.7,1.0,0.0,381.0,960.0,0.0,0,299.0,1
838,838,-0.8232061262970656,-0.8,1.0,0.0,463.0,956.0,0.0,0,201.0,1
839,839,-0.5368481214600644,-0.5,0.0,1.0,406.0,914.0,0.0,1,340.0,0
840,840,0.24283952997136715,0.2,1.0,1.0,379.0,800.0,1.0,1,1291.0,1
841,841,0.03929829482076985,0.0,0.0,0.0,289.0,741.0,1.0,0,120.0,0
842,842,-0.20441515214752737,-0.2,0.0,1.0,253.0,642.0,1.0,0,635.0,1
843,843,0.831067899895798,0.8,0.0,0.0,405.0,787.0,0.0,1,228.0,1
844,844,-0.465986707019414,-0.5,0.0,1.0,492.0,756.0,1.0,0,372.0,1
845,845,-0.3374787889376505,-0.3,1.0,0.0,340.0,608.0,0.0,0,442.0,1
846,846,0.17587817536304573,0.2,0.0,0.0,302.0,699.0,0.0,1,429.0,1
847,847,0.09991041649268162,0.1,0.0,0.0,449.0,920.0,0.0,1,1.0,1
848,848,-0.6917523398305679,-0.7,1.0,0.0,345.0,939.0,0.0,0,196.0,1
849,849,-0.7585171564240663,-0.8,0.0,1.0,285.0,634.0,1.0,0,231.0,1
850,850,0.21981071942178876,0.2,1.0,1.0,466.0,841.0,0.0,0,333.0,0
851,851,-0.049317755312026645,-0.0,1.0,0.0,283.0,521.0,1.0,1,1686.0,0
852,852,0.8595509788383066,0.9,1.0,1.0,369.0,956.0,0.0,0,65.0,0
853,853,0.45299864313759797,0.5,1.0,1.0,498.0,612.0,1.0,1,240.0,1
854,854,0.7379370288504427,0.7,1.0,1.0,433.0,814.0,1.0,1,383.0,1
855,855,0.2394617906931319,0.2,0.0,0.0,359.0,817.0,0.0,1,194.0,1
856,856,0.8930817399204217,0.9,0.0,0.0,268.0,998.0,0.0,1,874.0,1
857,857,-0.7419913319250557,-0.7,0.0,1.0,278.0,508.0,1.0,0,224.0,1
858,858,-0.5829351803051086,-0.6,0.0,1.0,380.0,531.0,1.0,0,449.0,1
859,859,0.3031391659307524,0.3,0.0,0.0,275.0,898.0,0.0,1,2047.0,1
860,860,0.019551202120680955,0.0,0.0,0.0,395.0,530.0,1.0,0,445.0,0
861,861,-0.8855285314374763,-0.9,1.0,0.0,291.0,552.0,0.0,0,477.0,1
862,862,-0.3370147557475218,-0.3,0.0,1.0,346.0,905.0,1.0,0,-21.0,1
863,863,-0.6064836621081957,-0.6,1.0,0.0,494.0,569.0,0.0,0,607.0,1
864,864,-0.7154273614486207,-0.7,1.0,0.0,327.0,807.0,0.0,0,296.0,1
865,865,0.03826821385334078,0.0,1.0,1.0,328.0,800.0,0.0,0,592.0,0
866,866,0.28755587892269985,0.3,0.0,0.0,470.0,629.0,1.0,0,751.0,0
867,867,-0.7909872251235333,-0.8,1.0,0.0,425.0,649.0,0.0,0,186.0,1
868,868,0.6986889923076481,0.7,0.0,0.0,363.0,654.0,0.0,1,323.0,1
869,869,0.862981435171189,0.9,0.0,0.0,339.0,960.0,0.0,1,281.0,1
870,870,-0.39852577106025333,-0.4,0.0,1.0,389.0,642.0,1.0,0,269.0,1
871,871,0.6568784227495318,0.7,1.0,1.0,454.0,947.0,1.0,1,679.0,1
872,872,0.49749988442251303,0.5,1.0,1.0,434.0,523.0,1.0,1,523.0,1
873,873,0.8291109241317322,0.8,1.0,1.0,472.0,754.0,1.0,1,204.0,1
874,874,-0.6914862554197099,-0.7,1.0,0.0,464.0,859.0,0.0,0,107.0,1
875,875,0.2390168613284479,0.2,0.0,0.0,363.0,948.0,0.0,1,109.0,1
876,876,0.27097066446378937,0.3,1.0,1.0,465.0,579.0,1.0,1,1156.0,1
877,877,-0.7345760539281599,-0.7,0.0,1.0,358.0,891.0,1.0,0,161.0,1
878,878,0.4879119259978254,0.5,1.0,1.0,497.0,669.0,1.0,1,234.0,1
879,879,0.0015272106274565322,0.0,0.0,0.0,418.0,644.0,1.0,0,768.0,0
880,880,0.032932819899429866,0.0,0.0,0.0,280.0,569.0,1.0,0,711.0,0
881,881,0.685677009526846,0.7,0.0,0.0,483.0,935.0,0.0,1,522.0,1
882,882,0.7041932845795323,0.7,0.0,0.0,498.0,872.0,0.0,1,250.0,1
883,883,-0.899216314097662,-0.9,0.0,1.0,486.0,822.0,1.0,0,102.0,1
884,884,0.43938379016954443,0.4,1.0,1.0,369.0,795.0,1.0,1,686.0,1
885,885,0.3418789623577022,0.3,0.0,0.0,297.0,808.0,0.0,1,805.0,1
886,886,-0.14947104338821438,-0.1,0.0,1.0,448.0,913.0,1.0,0,429.0,1
887,887,0.47367943238536936,0.5,0.0,0.0,356.0,782.0,0.0,1,362.0,1
888,888,0.748263530701769,0.7,1.0,1.0,284.0,634.0,1.0,1,242.0,1
889,889,-0.02542485399592842,-0.0,0.0,1.0,366.0,817.0,1.0,0,687.0,1
890,890,-0.8282751737814092,-0.8,1.0,0.0,374.0,671.0,0.0,0,525.0,1
891,891,-0.15248505144811197,-0.2,0.0,1.0,348.0,944.0,0.0,1,248.0,0
892,892,0.87020062390199,0.9,1.0,1.0,429.0,814.0,1.0,1,457.0,1
893,893,0.19852666382221884,0.2,0.0,0.0,380.0,759.0,0.0,1,211.0,1
894,894,0.519583067566053,0.5,0.0,0.0,265.0,932.0,0.0,1,543.0,1
895,895,-0.7958380423383833,-0.8,1.0,0.0,287.0,889.0,0.0,0,394.0,1
896,896,0.5054592836180475,0.5,0.0,0.0,438.0,762.0,0.0,1,340.0,1
897,897,0.23604720117706657,0.2,1.0,1.0,416.0,817.0,1.0,1,647.0,1
898,898,-0.5765415030975125,-0.6,0.0,1.0,388.0,728.0,1.0,0,734.0,1
899,899,-0.32931803604878795,-0.3,1.0,0.0,309.0,523.0,0.0,0,768.0,1
900,900,0.6944766208808194,0.7,1.0,1.0,468.0,898.0,0.0,0,124.0,0
901,901,0.5779432780743919,0.6,0.0,0.0,396.0,764.0,0.0,1,420.0,1
902,902,-0.7298792390330224,-0.7,0.0,1.0,477.0,950.0,1.0,0,293.0,1
903,903,-0.4115692855409739,-0.4,0.0,1.0,452.0,702.0,1.0,0,376.0,1
904,904,-0.46360437116550274,-0.5,0.0,1.0,399.0,625.0,1.0,0,796.0,1
905,905,0.03241900999591529,0.0,0.0,0.0,362.0,845.0,0.0,1,323.0,1
906,906,-0.08713079268683865,-0.1,1.0,0.0,286.0,882.0,1.0,1,792.0,0
907,907,-0.5905297063451806,-0.6,0.0,1.0,494.0,804.0,1.0,0,642.0,1
908,908,0.700291946264708,0.7,0.0,0.0,256.0,594.0,0.0,1,770.0,1
909,909,0.05844384689061477,0.1,0.0,0.0,371.0,831.0,0.0,1,658.0,1
910,910,-0.5830589159171327,-0.6,0.0,1.0,446.0,605.0,1.0,0,599.0,1
911,911,-0.05806507960790319,-0.1,0.0,1.0,466.0,640.0,1.0,0,334.0,1
912,912,-0.7046409511821876,-0.7,1.0,0.0,255.0,609.0,0.0,0,216.0,1
913,913,-0.30896317551235897,-0.3,1.0,0.0,388.0,826.0,1.0,1,76.0,0
914,914,-0.2998905711905423,-0.3,0.0,1.0,429.0,720.0,1.0,0,341.0,1
915,915,0.33006487926026373,0.3,0.0,0.0,445.0,921.0,0.0,1,204.0,1
916,916,-0.4610417037669801,-0.5,0.0,1.0,304.0,727.0,1.0,0,639.0,1
917,917,0.6842961570496585,0.7,0.0,0.0,288.0,824.0,0.0,1,148.0,1
918,918,0.3140669928725778,0.3,0.0,0.0,299.0,696.0,0.0,1,715.0,1
919,919,-0.5791142260487449,-0.6,1.0,0.0,358.0,992.0,1.0,1,-40.0,0
920,920,-0.013927118627511947,-0.0,0.0,1.0,488.0,587.0,1.0,0,625.0,1
921,921,-0.367157529053019,-0.4,0.0,1.0,467.0,966.0,1.0,0,77.0,1
922,922,0.49516387018582086,0.5,1.0,1.0,270.0,992.0,1.0,1,208.0,1
923,923,0.5672345988373998,0.6,1.0,1.0,273.0,694.0,1.0,1,1733.0,1
924,924,0.5374802549491021,0.5,1.0,1.0,443.0,523.0,1.0,1,554.0,1
925,925,-0.5294610725182008,-0.5,1.0,0.0,329.0,922.0,1.0,1,19.0,0
926,926,0.09287770383297544,0.1,0.0,0.0,429.0,567.0,1.0,0,294.0,0
927,927,-0.04504577611701843,-0.0,0.0,1.0,425.0,621.0,1.0,0,404.0,1
928,928,0.21945794731396873,0.2,1.0,1.0,437.0,539.0,1.0,1,724.0,1
929,929,-0.8651284691053254,-0.9,1.0,0.0,419.0,809.0,0.0,0,292.0,1
930,930,0.41803576709659984,0.4,0.0,0.0,316.0,979.0,0.0,1,335.0,1
931,931,-0.13020123659009397,-0.1,0.0,1.0,282.0,535.0,0.0,1,1123.0,0
932,932,0.38235909070826246,0.4,1.0,1.0,491.0,950.0,1.0,1,139.0,1
933,933,-0.6617810576184273,-0.7,0.0,1.0,407.0,523.0,1.0,0,380.0,1
934,934,0.11172584010580733,0.1,0.0,0.0,423.0,550.0,0.0,1,547.0,1
935,935,0.7656609687583741,0.8,0.0,0.0,447.0,740.0,0.0,1,403.0,1
936,936,0.04152496951109086,0.0,0.0,0.0,275.0,797.0,0.0,1,488.0,1
937,937,-0.41504203059721356,-0.4,0.0,1.0,477.0,942.0,1.0,0,481.0,1
938,938,-0.5251181034705392,-0.5,1.0,0.0,462.0,575.0,0.0,0,563.0,1
939,939,-0.6243298863198331,-0.6,0.0,1.0,418.0,747.0,1.0,0,295.0,1
940,940,0.3861737992892592,0.4,1.0,1.0,329.0,895.0,1.0,1,816.0,1
941,941,-0.6837758727404946,-0.7,0.0,1.0,493.0,660.0,1.0,0,207.0,1
942,942,-0.04913195809074422,-0.0,0.0,1.0,253.0,654.0,0.0,1,793.0,0
943,943,-0.8062438876238007,-0.8,1.0,0.0,439.0,549.0,0.0,0,372.0,1
944,944,0.046184281310422515,0.0,0.0,0.0,265.0,638.0,1.0,0,1177.0,0
945,945,0.5012599172118822,0.5,1.0,1.0,328.0,633.0,1.0,1,349.0,1
946,946,-0.27685557608517797,-0.3,0.0,1.0,269.0,977.0,0.0,1,-6.0,0
947,947,0.07723957374033741,0.1,0.0,0.0,470.0,748.0,0.0,1,242.0,1
948,948,-0.5313923369322213,-0.5,1.0,0.0,357.0,714.0,0.0,0,479.0,1
949,949,-0.4059873464588854,-0.4,0.0,1.0,361.0,679.0,1.0,0,480.0,1
950,950,-0.4663688827576425,-0.5,1.0,0.0,395.0,765.0,0.0,0,280.0,1
951,951,-0.34060042172472826,-0.3,0.0,1.0,410.0,816.0,1.0,0,404.0,1
952,952,0.4510885545692521,0.5,0.0,0.0,297.0,828.0,0.0,1,115.0,1
953,953,0.35829688180636154,0.4,0.0,0.0,353.0,556.0,0.0,1,911.0,1
954,954,0.7263773789198397,0.7,0.0,0.0,464.0,507.0,0.0,1,619.0,1
955,955,0.2295982822487116,0.2,1.0,1.0,446.0,978.0,1.0,1,46.0,1
956,956,-0.4146520530105418,-0.4,0.0,1.0,413.0,729.0,1.0,0,318.0,1
957,957,0.09958061967832277,0.1,1.0,1.0,310.0,932.0,0.0,0,108.0,0
958,958,0.6869674804667861,0.7,0.0,0.0,293.0,704.0,0.0,1,543.0,1
959,959,-0.06139036737204706,-0.1,1.0,0.0,348.0,936.0,0.0,0,526.0,1
960,960,-0.41855374497260983,-0.4,1.0,0.0,430.0,526.0,0.0,0,1164.0,1
961,961,0.6560384319371612,0.7,0.0,0.0,478.0,503.0,0.0,1,529.0,1
962,962,-0.4185170766612338,-0.4,0.0,1.0,328.0,600.0,1.0,0,522.0,1
963,963,0.0778201378183967,0.1,0.0,0.0,346.0,925.0,0.0,1,449.0,1
964,964,-0.8284809349685399,-0.8,1.0,0.0,390.0,820.0,0.0,0,450.0,1
965,965,0.11280049222211275,0.1,1.0,1.0,349.0,825.0,0.0,0,116.0,0
966,966,-0.4351779951101471,-0.4,1.0,0.0,309.0,963.0,0.0,0,458.0,1
967,967,-0.06263458548279288,-0.1,0.0,1.0,379.0,766.0,1.0,0,1415.0,1
968,968,-0.4989321396622524,-0.5,0.0,1.0,362.0,605.0,1.0,0,453.0,1
969,969,0.3872536054142922,0.4,0.0,0.0,490.0,967.0,1.0,0,133.0,0
970,970,0.29808576049034674,0.3,1.0,1.0,472.0,528.0,1.0,1,570.0,1
971,971,-0.7244164849182659,-0.7,0.0,1.0,295.0,944.0,1.0,0,161.0,1
972,972,0.04079182839912132,0.0,0.0,0.0,374.0,934.0,1.0,0,62.0,0
973,973,-0.5431682341771276,-0.5,1.0,0.0,467.0,990.0,1.0,1,183.0,0
974,974,0.8837457004522594,0.9,1.0,1.0,382.0,576.0,1.0,1,312.0,1
975,975,0.8967469979806629,0.9,1.0,1.0,267.0,882.0,1.0,1,241.0,1
976,976,0.038227067577504825,0.0,0.0,0.0,375.0,959.0,1.0,0,126.0,0
977,977,0.1650324639652615,0.2,0.0,0.0,488.0,791.0,0.0,1,451.0,1
978,978,-0.395168891870187,-0.4,0.0,1.0,441.0,805.0,1.0,0,324.0,1
979,979,0.12377341515793205,0.1,0.0,0.0,379.0,915.0,0.0,1,316.0,1
980,980,0.045781747210864365,0.0,0.0,0.0,473.0,588.0,0.0,1,799.0,1
981,981,0.20637883057930406,0.2,0.0,0.0,405.0,816.0,1.0,0,509.0,0
982,982,0.7484398846237653,0.7,0.0,0.0,481.0,540.0,0.0,1,629.0,1
983,983,-0.4383633540101321,-0.4,0.0,1.0,365.0,909.0,1.0,0,556.0,1
984,984,-0.6702504193500727,-0.7,0.0,1.0,399.0,602.0,1.0,0,369.0,1
985,985,-0.22911220868561832,-0.2,0.0,1.0,491.0,938.0,1.0,0,681.0,1
986,986,0.03206951929395274,0.0,0.0,0.0,497.0,944.0,1.0,0,69.0,0
987,987,0.10329221012755119,0.1,0.0,0.0,427.0,818.0,0.0,1,135.0,1
988,988,-0.4818371330300617,-0.5,0.0,1.0,425.0,507.0,1.0,0,588.0,1
989,989,0.5874351896200146,0.6,1.0,1.0,339.0,537.0,1.0,1,534.0,1
990,990,-0.05609501996109456,-0.1,1.0,0.0,287.0,647.0,0.0,0,416.0,1
991,991,-0.08109624348416478,-0.1,1.0,0.0,355.0,889.0,1.0,1,776.0,0
992,992,-0.020577662350393267,-0.0,1.0,0.0,250.0,822.0,1.0,1,518.0,0
993,993,0.172792881593265,0.2,1.0,1.0,304.0,855.0,1.0,1,901.0,1
994,994,0.8354514292029721,0.8,0.0,0.0,453.0,642.0,1.0,0,635.0,0
995,995,-0.47486239571980216,-0.5,0.0,1.0,423.0,955.0,1.0,0,302.0,1
996,996,-0.33387725418764813,-0.3,0.0,1.0,278.0,933.0,1.0,0,249.0,1
997,997,-0.33487432286382646,-0.3,1.0,0.0,259.0,828.0,0.0,0,483.0,1
998,998,-0.2664826636563794,-0.3,1.0,0.0,290.0,577.0,0.0,0,1083.0,1
999,999,-0.5759171716439682,-0.6,1.0,0.0,318.0,810.0,0.0,0,192.0,1
1000,1000,0.5916701004508097,0.6,1.0,1.0,263.0,594.0,1.0,1,423.0,1
1001,1001,-0.35812184600453245,-0.4,1.0,0.0,453.0,890.0,0.0,0,217.0,1
1002,1002,0.006206328815474893,0.0,0.0,0.0,468.0,830.0,0.0,1,952.0,1
1003,1003,-0.03992646897040453,-0.0,1.0,0.0,417.0,911.0,1.0,1,352.0,0
1004,1004,0.615547554210491,0.6,0.0,0.0,346.0,673.0,0.0,1,471.0,1
1005,1005,0.15707561321276609,0.2,1.0,1.0,416.0,579.0,1.0,1,535.0,1
1006,1006,0.539456153573224,0.5,1.0,1.0,481.0,801.0,1.0,1,298.0,1
1007,1007,0.7727834667150261,0.8,0.0,0.0,413.0,993.0,0.0,1,864.0,1
1008,1008,-0.5425961191987478,-0.5,1.0,0.0,348.0,616.0,0.0,0,506.0,1
1009,1009,0.16126295657415268,0.2,1.0,1.0,346.0,950.0,1.0,1,104.0,1
1010,1010,0.8918147258056749,0.9,1.0,1.0,392.0,733.0,1.0,1,245.0,1
1011,1011,0.10382124995635278,0.1,0.0,0.0,460.0,828.0,1.0,0,32.0,0
1012,1012,-0.3584686318404411,-0.4,1.0,0.0,440.0,692.0,0.0,0,428.0,1
1013,1013,0.785473606944657,0.8,1.0,1.0,407.0,509.0,1.0,1,464.0,1
1014,1014,-0.25943519394433934,-0.3,1.0,0.0,286.0,817.0,0.0,0,437.0,1
1015,1015,-0.4094295657548396,-0.4,0.0,1.0,300.0,739.0,1.0,0,481.0,1
1016,1016,0.14590935972591834,0.1,1.0,1.0,470.0,637.0,0.0,0,593.0,0
1017,1017,-0.5062982695406313,-0.5,0.0,1.0,303.0,680.0,1.0,0,267.0,1
1018,1018,0.6349086329425156,0.6,1.0,1.0,455.0,537.0,1.0,1,478.0,1
1019,1019,-0.3918863309909818,-0.4,1.0,0.0,477.0,927.0,0.0,0,136.0,1
1020,1020,0.46844298186700206,0.5,1.0,1.0,322.0,586.0,1.0,1,1322.0,1
1021,1021,-0.6167274847522617,-0.6,0.0,1.0,272.0,718.0,1.0,0,330.0,1
1022,1022,-0.6283668648561296,-0.6,1.0,0.0,457.0,966.0,0.0,0,237.0,1
1023,1023,-0.4240638958524366,-0.4,1.0,0.0,381.0,957.0,0.0,0,92.0,1
1024,1024,0.1158909071352977,0.1,1.0,1.0,412.0,619.0,1.0,1,499.0,1
1025,1025,0.66239460455289,0.7,1.0,1.0,308.0,865.0,1.0,1,177.0,1
1026,1026,0.3491827298522495,0.3,1.0,1.0,365.0,981.0,0.0,0,284.0,0
1027,1027,-0.2752708283249954,-0.3,1.0,0.0,388.0,820.0,0.0,0,432.0,1
1028,1028,0.10251200176558395,0.1,0.0,0.0,310.0,617.0,0.0,1,1353.0,1
1029,1029,-0.02889521651782112,-0.0,1.0,0.0,257.0,844.0,1.0,1,729.0,0
1030,1030,0.07566719708198943,0.1,1.0,1.0,376.0,971.0,1.0,1,303.0,1
1031,1031,-0.5495257043997372,-0.5,1.0,0.0,280.0,566.0,0.0,0,634.0,1
1032,1032,0.8266551608002904,0.8,1.0,1.0,431.0,962.0,0.0,0,57.0,0
1033,1033,0.3547866081667638,0.4,1.0,1.0,329.0,944.0,1.0,1,-43.0,1
1034,1034,0.5656986929532476,0.6,1.0,1.0,255.0,535.0,1.0,1,510.0,1
1035,1035,-0.3375156709089129,-0.3,1.0,0.0,477.0,747.0,1.0,1,766.0,0
1036,1036,0.2698915387244044,0.3,0.0,0.0,349.0,848.0,0.0,1,613.0,1
1037,1037,-0.31570829866920425,-0.3,0.0,1.0,361.0,678.0,1.0,0,401.0,1
1038,1038,0.7594035821317991,0.8,1.0,1.0,317.0,685.0,1.0,1,248.0,1
1039,1039,0.29216952514616545,0.3,1.0,1.0,446.0,646.0,1.0,1,898.0,1
1040,1040,-0.0528051127770407,-0.1,0.0,1.0,383.0,718.0,0.0,1,1149.0,0
1041,1041,-0.19866140232581897,-0.2,1.0,0.0,371.0,869.0,0.0,0,210.0,1
1042,1042,0.23688344467235678,0.2,1.0,1.0,404.0,557.0,0.0,0,619.0,0
1043,1043,0.26124108525820866,0.3,1.0,1.0,276.0,533.0,1.0,1,351.0,1
1044,1044,0.14090262716774793,0.1,1.0,1.0,389.0,742.0,1.0,1,309.0,1
1045,1045,-0.4576435328851343,-0.5,0.0,1.0,422.0,843.0,1.0,0,135.0,1
1046,1046,-0.18629113332663794,-0.2,0.0,1.0,422.0,791.0,0.0,1,1037.0,0
1047,1047,-0.6896168014424234,-0.7,0.0,1.0,373.0,679.0,1.0,0,168.0,1
1048,1048,-0.3626148347802072,-0.4,1.0,0.0,442.0,530.0,0.0,0,498.0,1
1049,1049,0.08950294465676578,0.1,1.0,1.0,464.0,965.0,1.0,1,811.0,1
1050,1050,0.7476825250596372,0.7,0.0,0.0,428.0,532.0,0.0,1,440.0,1
1051,1051,-0.2173041104099399,-0.2,1.0,0.0,491.0,615.0,1.0,1,334.0,0
1052,1052,0.6487681866242517,0.6,1.0,1.0,449.0,928.0,1.0,1,113.0,1
1053,1053,0.18927852089737718,0.2,1.0,1.0,418.0,867.0,1.0,1,345.0,1
1054,1054,0.5326394659468942,0.5,1.0,1.0,472.0,553.0,1.0,1,455.0,1
1055,1055,-0.5705642379591178,-0.6,1.0,0.0,377.0,865.0,0.0,0,308.0,1
1056,1056,0.4204490887009048,0.4,1.0,1.0,335.0,878.0,1.0,1,507.0,1
1057,1057,0.1617525335072899,0.2,0.0,0.0,354.0,991.0,0.0,1,855.0,1
1058,1058,-0.15179533841194914,-0.2,1.0,0.0,353.0,543.0,0.0,0,544.0,1
1059,1059,-0.0547070752534915,-0.1,0.0,1.0,254.0,731.0,1.0,0,1555.0,1
1060,1060,-0.21225738276197015,-0.2,0.0,1.0,330.0,972.0,1.0,0,158.0,1
1061,1061,0.23039443666542436,0.2,1.0,1.0,473.0,641.0,1.0,1,426.0,1
1062,1062,-0.015087373388633973,-0.0,0.0,1.0,479.0,683.0,1.0,0,558.0,1
1063,1063,-0.3617090235728826,-0.4,0.0,1.0,367.0,871.0,1.0,0,1342.0,1
1064,1064,-0.10756419562936037,-0.1,1.0,0.0,355.0,832.0,1.0,1,433.0,0
1065,1065,-0.2830795556712514,-0.3,0.0,1.0,275.0,855.0,1.0,0,220.0,1
1066,1066,0.23090642354080393,0.2,0.0,0.0,294.0,728.0,0.0,1,828.0,1
1067,1067,0.813379842862035,0.8,1.0,1.0,361.0,723.0,1.0,1,256.0,1
1068,1068,-0.25119673560420874,-0.3,1.0,0.0,420.0,757.0,1.0,1,343.0,0
1069,1069,-0.04239821667714638,-0.0,1.0,0.0,470.0,780.0,0.0,0,370.0,1
1070,1070,-0.23655788029023683,-0.2,1.0,0.0,391.0,821.0,1.0,1,638.0,0
1071,1071,-0.13502210989503938,-0.1,0.0,1.0,288.0,639.0,1.0,0,943.0,1
1072,1072,0.2673258082067277,0.3,0.0,0.0,297.0,567.0,1.0,0,876.0,0
1073,1073,-0.5492765731474566,-0.5,1.0,0.0,451.0,883.0,1.0,1,106.0,0
1074,1074,0.8302004522872345,0.8,1.0,1.0,358.0,662.0,1.0,1,350.0,1
1075,1075,-0.48869555685549804,-0.5,1.0,0.0,337.0,670.0,0.0,0,183.0,1
1076,1076,-0.7847315602585039,-0.8,0.0,1.0,487.0,682.0,1.0,0,231.0,1
1077,1077,-0.7912153932911938,-0.8,0.0,1.0,251.0,833.0,1.0,0,266.0,1
1078,1078,-0.022159954537876225,-0.0,0.0,1.0,342.0,724.0,1.0,0,1054.0,1
1079,1079,-0.7256417144394207,-0.7,1.0,0.0,413.0,984.0,0.0,0,143.0,1
1080,1080,-0.03651091971153375,-0.0,0.0,1.0,464.0,565.0,0.0,1,761.0,0
1081,1081,-0.23998494543724536,-0.2,1.0,0.0,254.0,633.0,0.0,0,553.0,1
1082,1082,-0.5014684483961718,-0.5,1.0,0.0,316.0,623.0,0.0,0,331.0,1
1083,1083,-0.5780910215018703,-0.6,1.0,0.0,484.0,536.0,0.0,0,510.0,1
1084,1084,-0.8412937211676625,-0.8,1.0,0.0,381.0,708.0,0.0,0,321.0,1
1085,1085,0.6804427123200293,0.7,1.0,1.0,480.0,561.0,1.0,1,479.0,1
1086,1086,0.3314490969069116,0.3,0.0,0.0,407.0,514.0,1.0,0,2149.0,0
1087,1087,0.3121230061746675,0.3,1.0,1.0,488.0,539.0,1.0,1,973.0,1
1088,1088,0.6183020389576007,0.6,0.0,0.0,324.0,886.0,0.0,1,330.0,1
1089,1089,-0.27552060164025005,-0.3,1.0,0.0,336.0,636.0,0.0,0,1248.0,1
1090,1090,-0.10501229223878072,-0.1,0.0,1.0,313.0,728.0,1.0,0,179.0,1
1091,1091,0.29546694817547026,0.3,1.0,1.0,453.0,952.0,1.0,1,-205.0,1
1092,1092,0.3417441622136169,0.3,1.0,1.0,426.0,821.0,0.0,0,853.0,0
1093,1093,0.8627347862719913,0.9,1.0,1.0,340.0,735.0,1.0,1,205.0,1
1094,1094,-0.7186596283721709,-0.7,1.0,0.0,304.0,594.0,0.0,0,302.0,1
1095,1095,-0.8463812922042466,-0.8,0.0,1.0,258.0,946.0,1.0,0,306.0,1
1096,1096,-0.07879343275109452,-0.1,0.0,1.0,278.0,529.0,0.0,1,543.0,0
1097,1097,0.5367387079182492,0.5,1.0,1.0,317.0,600.0,1.0,1,493.0,1
1098,1098,0.7798142775881548,0.8,1.0,1.0,284.0,637.0,1.0,1,259.0,1
1099,1099,0.6152820199470633,0.6,0.0,0.0,417.0,885.0,0.0,1,238.0,1
1100,1100,0.31892070312440934,0.3,0.0,0.0,454.0,727.0,0.0,1,259.0,1
1101,1101,-0.1875699715196103,-0.2,0.0,1.0,464.0,678.0,0.0,1,218.0,0
1102,1102,0.4422264084413684,0.4,1.0,1.0,440.0,817.0,1.0,1,393.0,1
1103,1103,0.7138235968791303,0.7,0.0,0.0,301.0,855.0,0.0,1,564.0,1
1104,1104,0.11973249668608854,0.1,1.0,1.0,439.0,734.0,0.0,0,227.0,0
1105,1105,0.741328481647208,0.7,1.0,1.0,403.0,878.0,1.0,1,239.0,1
1106,1106,0.36097739026332853,0.4,1.0,1.0,260.0,913.0,1.0,1,57.0,1
1107,1107,0.7567709205738654,0.8,0.0,0.0,266.0,686.0,0.0,1,298.0,1
1108,1108,0.004935801050699684,0.0,1.0,1.0,404.0,592.0,0.0,0,664.0,0
1109,1109,0.7338328312145125,0.7,0.0,0.0,305.0,810.0,0.0,1,375.0,1
1110,1110,-0.2305838345033564,-0.2,1.0,0.0,454.0,631.0,0.0,0,575.0,1
1111,1111,0.8149908839400762,0.8,1.0,1.0,426.0,534.0,1.0,1,480.0,1
1112,1112,-0.317448829189783,-0.3,1.0,0.0,425.0,811.0,0.0,0,564.0,1
1113,1113,-0.12969018162854307,-0.1,1.0,0.0,422.0,981.0,1.0,1,767.0,0
1114,1114,0.0980182646363954,0.1,0.0,0.0,409.0,826.0,0.0,1,275.0,1
1115,1115,0.32107893492953254,0.3,0.0,0.0,419.0,864.0,0.0,1,437.0,1
1116,1116,0.3981682116340114,0.4,0.0,0.0,435.0,969.0,0.0,1,256.0,1
1117,1117,0.30524489949988987,0.3,1.0,1.0,447.0,799.0,1.0,1,704.0,1
1118,1118,0.8438528154434713,0.8,1.0,1.0,327.0,569.0,1.0,1,384.0,1
1119,1119,0.29659899833409253,0.3,1.0,1.0,301.0,536.0,1.0,1,623.0,1
1120,1120,0.39372152000508065,0.4,1.0,1.0,336.0,505.0,1.0,1,409.0,1
1121,1121,0.08374660328457972,0.1,0.0,0.0,312.0,910.0,1.0,0,668.0,0
1122,1122,-0.20709880893480836,-0.2,0.0,1.0,433.0,788.0,1.0,0,189.0,1
1123,1123,-0.7230248703915797,-0.7,0.0,1.0,413.0,574.0,1.0,0,463.0,1
1124,1124,0.673980485841951,0.7,0.0,0.0,474.0,755.0,0.0,1,261.0,1
1125,1125,0.8641038474035284,0.9,1.0,1.0,487.0,678.0,1.0,1,305.0,1
1126,1126,0.4605192813306954,0.5,0.0,0.0,367.0,838.0,0.0,1,655.0,1
1127,1127,0.8707530627268768,0.9,1.0,1.0,455.0,696.0,1.0,1,499.0,1
1128,1128,-0.648536383760449,-0.6,1.0,0.0,330.0,513.0,0.0,0,567.0,1
1129,1129,0.6561291430959258,0.7,1.0,1.0,276.0,609.0,1.0,1,245.0,1
1130,1130,0.17224159750484114,0.2,1.0,1.0,279.0,689.0,1.0,1,402.0,1
1131,1131,-0.5914884482217289,-0.6,1.0,0.0,257.0,762.0,0.0,0,311.0,1
1132,1132,-0.2152946806330207,-0.2,1.0,0.0,342.0,652.0,0.0,0,546.0,1
1133,1133,-0.07191258506706644,-0.1,0.0,1.0,438.0,979.0,1.0,0,-27.0,1
1134,1134,-0.8445655612432249,-0.8,0.0,1.0,309.0,542.0,1.0,0,429.0,1
1135,1135,0.7443428585215458,0.7,1.0,1.0,417.0,555.0,1.0,1,588.0,1
1136,1136,-0.17594938021238737,-0.2,1.0,0.0,364.0,691.0,0.0,0,675.0,1
1137,1137,0.33536509740669895,0.3,0.0,0.0,312.0,763.0,0.0,1,1085.0,1
1138,1138,-0.6511572989352522,-0.7,1.0,0.0,375.0,904.0,0.0,0,281.0,1
1139,1139,0.7560840177665807,0.8,0.0,0.0,446.0,741.0,0.0,1,293.0,1
1140,1140,0.806839727459571,0.8,0.0,0.0,443.0,642.0,0.0,1,1255.0,1
1141,1141,-0.5811992376134065,-0.6,1.0,0.0,293.0,734.0,0.0,0,353.0,1
1142,1142,0.8142892938419982,0.8,1.0,1.0,452.0,871.0,1.0,1,197.0,1
1143,1143,0.47129228318005756,0.5,0.0,0.0,488.0,970.0,0.0,1,62.0,1
1144,1144,0.12601610382084638,0.1,1.0,1.0,359.0,655.0,0.0,0,336.0,0
1145,1145,0.3345652048238973,0.3,1.0,1.0,321.0,650.0,1.0,1,879.0,1
1146,1146,0.7711430971774792,0.8,0.0,0.0,301.0,737.0,0.0,1,242.0,1
1147,1147,-0.7366897083593011,-0.7,1.0,0.0,481.0,735.0,0.0,0,174.0,1
1148,1148,0.6910383358692668,0.7,1.0,1.0,441.0,976.0,1.0,1,183.0,1
1149,1149,-0.8008544058026247,-0.8,1.0,0.0,407.0,981.0,0.0,0,292.0,1
1150,1150,0.6480685714132172,0.6,0.0,0.0,394.0,537.0,0.0,1,519.0,1
1151,1151,0.8098766383801742,0.8,1.0,1.0,375.0,836.0,1.0,1,259.0,1
1152,1152,0.4662077404763286,0.5,0.0,0.0,352.0,752.0,0.0,1,296.0,1
1153,1153,0.07970915904784515,0.1,1.0,1.0,334.0,623.0,1.0,1,523.0,1
1154,1154,-0.14033851595615654,-0.1,1.0,0.0,296.0,937.0,1.0,1,377.0,0
1155,1155,0.8680502729684935,0.9,1.0,1.0,425.0,593.0,1.0,1,372.0,1
1156,1156,-0.3444670939240084,-0.3,1.0,0.0,269.0,904.0,0.0,0,247.0,1
1157,1157,-0.37861900403441384,-0.4,1.0,0.0,381.0,852.0,0.0,0,57.0,1
1158,1158,-0.2242683987962093,-0.2,0.0,1.0,341.0,896.0,1.0,0,443.0,1
1159,1159,0.6063445661217465,0.6,0.0,0.0,340.0,532.0,0.0,1,598.0,1
1160,1160,0.5282768011331943,0.5,1.0,1.0,464.0,968.0,1.0,1,558.0,1
1161,1161,0.6102142879474258,0.6,0.0,0.0,312.0,572.0,0.0,1,526.0,1
1162,1162,0.4922891914828117,0.5,0.0,0.0,325.0,992.0,1.0,0,33.0,0
1163,1163,-0.13412624217189217,-0.1,0.0,1.0,383.0,984.0,0.0,1,63.0,0
1164,1164,0.5169731589153711,0.5,1.0,1.0,478.0,705.0,1.0,1,387.0,1
1165,1165,0.8748019308651559,0.9,1.0,1.0,356.0,878.0,1.0,1,16.0,1
1166,1166,-0.06569386165495672,-0.1,0.0,1.0,320.0,796.0,1.0,0,1544.0,1
1167,1167,-0.8443943249917697,-0.8,0.0,1.0,288.0,531.0,1.0,0,441.0,1
1168,1168,-0.6479053233278114,-0.6,0.0,1.0,340.0,613.0,1.0,0,577.0,1
1169,1169,0.7872608231035384,0.8,1.0,1.0,261.0,908.0,1.0,1,-69.0,1
1170,1170,-0.142970881633523,-0.1,0.0,1.0,284.0,739.0,1.0,0,207.0,1
1171,1171,-0.35836424278916457,-0.4,0.0,1.0,331.0,866.0,1.0,0,143.0,1
1172,1172,-0.5329292760158327,-0.5,0.0,1.0,281.0,992.0,1.0,0,387.0,1
1173,1173,0.1843192538176267,0.2,1.0,1.0,393.0,914.0,1.0,1,93.0,1
1174,1174,0.019329636493753855,0.0,0.0,0.0,284.0,794.0,0.0,1,552.0,1
1175,1175,-0.22070929385447002,-0.2,1.0,0.0,335.0,658.0,0.0,0,1237.0,1
1176,1176,-0.4966241989325623,-0.5,1.0,0.0,442.0,764.0,0.0,0,434.0,1
1177,1177,0.8214857042755334,0.8,0.0,0.0,411.0,753.0,0.0,1,356.0,1
1178,1178,0.3314072602793273,0.3,1.0,1.0,483.0,517.0,0.0,0,1370.0,0
1179,1179,-0.35163763858495123,-0.4,0.0,1.0,251.0,737.0,1.0,0,272.0,1
1180,1180,-0.03438521043881426,-0.0,0.0,1.0,497.0,639.0,0.0,1,834.0,0
1181,1181,-0.3734828760473984,-0.4,0.0,1.0,459.0,770.0,1.0,0,681.0,1
1182,1182,0.5108300318551579,0.5,0.0,0.0,282.0,760.0,0.0,1,598.0,1
1183,1183,0.3089162045227706,0.3,0.0,0.0,329.0,841.0,0.0,1,480.0,1
1184,1184,0.24493089626268316,0.2,1.0,1.0,273.0,517.0,1.0,1,590.0,1
1185,1185,0.3927375016242828,0.4,1.0,1.0,447.0,753.0,1.0,1,530.0,1
1186,1186,0.6546900229668607,0.7,1.0,1.0,382.0,639.0,1.0,1,339.0,1
1187,1187,0.48031717038752586,0.5,0.0,0.0,359.0,984.0,0.0,1,637.0,1
1188,1188,-0.12735346324472352,-0.1,1.0,0.0,321.0,925.0,1.0,1,204.0,0
1189,1189,-0.18781364000080736,-0.2,0.0,1.0,425.0,712.0,1.0,0,363.0,1
1190,1190,0.04943933503008857,0.0,1.0,1.0,421.0,991.0,1.0,1,658.0,1
1191,1191,0.6212391249228423,0.6,1.0,1.0,436.0,571.0,1.0,1,653.0,1
1192,1192,-0.6830362257798533,-0.7,1.0,0.0,391.0,736.0,0.0,0,453.0,1
1193,1193,0.12519580912056483,0.1,0.0,0.0,444.0,645.0,0.0,1,891.0,1
1194,1194,-0.7547252648644501,-0.8,0.0,1.0,258.0,627.0,1.0,0,345.0,1
1195,1195,-0.7494139355152599,-0.7,1.0,0.0,323.0,977.0,1.0,1,-30.0,0
1196,1196,-0.7837353686614845,-0.8,1.0,0.0,370.0,718.0,0.0,0,492.0,1
1197,1197,0.08241204312146133,0.1,0.0,0.0,412.0,684.0,1.0,0,264.0,0
1198,1198,-0.6401648551228567,-0.6,0.0,1.0,438.0,558.0,1.0,0,564.0,1
1199,1199,-0.4459785162466235,-0.4,1.0,0.0,317.0,830.0,0.0,0,253.0,1
1200,1200,0.36599695943544275,0.4,0.0,0.0,259.0,660.0,1.0,0,271.0,0
1201,1201,-0.48006310850648554,-0.5,0.0,1.0,310.0,977.0,1.0,0,343.0,1
1202,1202,0.30754073349889366,0.3,0.0,0.0,398.0,959.0,0.0,1,623.0,1
1203,1203,-0.3511159231232184,-0.4,0.0,1.0,257.0,825.0,1.0,0,168.0,1
1204,1204,-0.005959105556521238,-0.0,1.0,0.0,296.0,736.0,1.0,1,408.0,0
1205,1205,-0.7088486865601242,-0.7,0.0,1.0,417.0,991.0,1.0,0,282.0,1
1206,1206,0.8890743909491884,0.9,1.0,1.0,332.0,708.0,1.0,1,300.0,1
1207,1207,0.8750834297093465,0.9,1.0,1.0,478.0,875.0,0.0,0,-43.0,0
1208,1208,-0.10731635669525819,-0.1,0.0,1.0,331.0,578.0,1.0,0,271.0,1
1209,1209,0.5832757799216243,0.6,1.0,1.0,315.0,761.0,1.0,1,414.0,1
1210,1210,-0.6097372248640764,-0.6,1.0,0.0,361.0,747.0,0.0,0,352.0,1
1211,1211,-0.2816975167046688,-0.3,1.0,0.0,481.0,559.0,0.0,0,620.0,1
1212,1212,0.32913670952445695,0.3,0.0,0.0,461.0,538.0,0.0,1,681.0,1
1213,1213,-0.04698978486171512,-0.0,1.0,0.0,253.0,986.0,1.0,1,101.0,0
1214,1214,-0.773212310602528,-0.8,0.0,1.0,377.0,933.0,1.0,0,360.0,1
1215,1215,0.7035380877191283,0.7,0.0,0.0,308.0,556.0,0.0,1,446.0,1
1216,1216,0.432202581815314,0.4,0.0,0.0,374.0,816.0,0.0,1,500.0,1
1217,1217,0.0791433522400039,0.1,1.0,1.0,481.0,828.0,1.0,1,331.0,1
1218,1218,0.1071949989974047,0.1,1.0,1.0,274.0,623.0,0.0,0,493.0,0
1219,1219,0.4131807342360939,0.4,1.0,1.0,494.0,954.0,1.0,1,142.0,1
1220,1220,-0.11054315565750328,-0.1,1.0,0.0,480.0,757.0,1.0,1,313.0,0
1221,1221,0.23746683643994693,0.2,0.0,0.0,300.0,633.0,0.0,1,857.0,1
1222,1222,0.5962611095674376,0.6,0.0,0.0,493.0,792.0,0.0,1,855.0,1
1223,1223,-0.059540395181976735,-0.1,0.0,1.0,290.0,876.0,1.0,0,344.0,1
1224,1224,-0.15306003067785434,-0.2,1.0,0.0,497.0,513.0,0.0,0,540.0,1
1225,1225,0.08582588217108489,0.1,1.0,1.0,376.0,675.0,1.0,1,379.0,1
1226,1226,-0.2638795828568583,-0.3,0.0,1.0,299.0,960.0,0.0,1,-49.0,0
1227,1227,-0.05039989106698406,-0.1,1.0,0.0,432.0,777.0,1.0,1,241.0,0
1228,1228,-0.6893923848511201,-0.7,1.0,0.0,308.0,836.0,0.0,0,376.0,1
1229,1229,0.8215648662703389,0.8,0.0,0.0,493.0,801.0,0.0,1,306.0,1
1230,1230,0.5372582276743246,0.5,1.0,1.0,440.0,964.0,1.0,1,26.0,1
1231,1231,-0.03585268537487207,-0.0,0.0,1.0,384.0,565.0,1.0,0,661.0,1
1232,1232,0.31074807500442414,0.3,1.0,1.0,376.0,964.0,1.0,1,780.0,1
1233,1233,0.660186093715,0.7,0.0,0.0,483.0,980.0,0.0,1,147.0,1
1234,1234,0.7894190935414614,0.8,0.0,0.0,401.0,954.0,0.0,1,145.0,1
1235,1235,0.8823351066973594,0.9,1.0,1.0,303.0,908.0,1.0,1,149.0,1
1236,1236,-0.6239117592820642,-0.6,1.0,0.0,290.0,818.0,0.0,0,482.0,1
1237,1237,0.075494489111394,0.1,1.0,1.0,401.0,711.0,1.0,1,408.0,1
1238,1238,0.24999433991698494,0.2,1.0,1.0,299.0,824.0,1.0,1,657.0,1
1239,1239,0.7743721080463538,0.8,1.0,1.0,425.0,645.0,1.0,1,260.0,1
1240,1240,-0.6461914639663611,-0.6,0.0,1.0,353.0,990.0,1.0,0,157.0,1
1241,1241,0.39911978580513907,0.4,1.0,1.0,253.0,830.0,0.0,0,767.0,0
1242,1242,-0.49272101621727604,-0.5,0.0,1.0,289.0,613.0,1.0,0,188.0,1
1243,1243,-0.16419372941099297,-0.2,1.0,0.0,453.0,650.0,0.0,0,557.0,1
1244,1244,0.7583412082437845,0.8,0.0,0.0,450.0,776.0,0.0,1,404.0,1
1245,1245,0.5817828251132172,0.6,0.0,0.0,475.0,522.0,0.0,1,1063.0,1
1246,1246,0.2833566875306929,0.3,1.0,1.0,368.0,755.0,1.0,1,287.0,1
1247,1247,0.046258226347038356,0.0,0.0,0.0,452.0,558.0,0.0,1,1100.0,1
1248,1248,0.8642282150268413,0.9,1.0,1.0,268.0,981.0,1.0,1,331.0,1
1249,1249,-0.7037112844775476,-0.7,0.0,1.0,251.0,654.0,1.0,0,375.0,1
1250,1250,-0.16842339482681634,-0.2,1.0,0.0,433.0,577.0,0.0,0,610.0,1
1251,1251,-0.8052659593920982,-0.8,0.0,1.0,425.0,667.0,1.0,0,358.0,1
1252,1252,0.25325490350784474,0.3,1.0,1.0,422.0,635.0,1.0,1,543.0,1
1253,1253,-0.8416692360989699,-0.8,1.0,0.0,455.0,707.0,0.0,0,268.0,1
1254,1254,-0.3917407676386171,-0.4,1.0,0.0,487.0,816.0,0.0,0,287.0,1
1255,1255,0.8287334849458668,0.8,1.0,1.0,339.0,770.0,1.0,1,491.0,1
1256,1256,0.8336420896414866,0.8,0.0,0.0,458.0,558.0,0.0,1,374.0,1
1257,1257,0.20607564700261782,0.2,0.0,0.0,271.0,716.0,0.0,1,343.0,1
1258,1258,0.6734599185224849,0.7,1.0,1.0,321.0,552.0,1.0,1,487.0,1
1259,1259,0.5515497746026384,0.6,1.0,1.0,473.0,824.0,1.0,1,493.0,1
1260,1260,-0.625084090397029,-0.6,1.0,0.0,365.0,934.0,0.0,0,391.0,1
1261,1261,-0.41634676614097443,-0.4,0.0,1.0,339.0,793.0,1.0,0,198.0,1
1262,1262,0.29971653926627784,0.3,1.0,1.0,371.0,596.0,1.0,1,493.0,1
1263,1263,0.5627888018776509,0.6,0.0,0.0,450.0,920.0,0.0,1,90.0,1
1264,1264,-0.7308114511899187,-0.7,1.0,0.0,284.0,687.0,0.0,0,319.0,1
1265,1265,-0.01781674106436726,-0.0,0.0,1.0,355.0,686.0,0.0,1,779.0,0
1266,1266,0.580619995654949,0.6,1.0,1.0,298.0,798.0,1.0,1,394.0,1
1267,1267,0.1952234120623383,0.2,0.0,0.0,447.0,895.0,1.0,0,938.0,0
1268,1268,-0.2480354131183823,-0.2,0.0,1.0,366.0,559.0,1.0,0,375.0,1
1269,1269,0.5386116936973052,0.5,0.0,0.0,264.0,931.0,0.0,1,445.0,1
1270,1270,0.6848863469672642,0.7,0.0,0.0,471.0,799.0,0.0,1,190.0,1
1271,1271,-0.45565972146199607,-0.5,0.0,1.0,379.0,728.0,1.0,0,353.0,1
1272,1272,0.30534398034834054,0.3,1.0,1.0,362.0,686.0,1.0,1,532.0,1
1273,1273,-0.5521234131648216,-0.6,1.0,0.0,423.0,500.0,0.0,0,437.0,1
1274,1274,-0.10369569813237955,-0.1,1.0,0.0,285.0,761.0,0.0,0,404.0,1
1275,1275,0.6662206759837862,0.7,0.0,0.0,447.0,904.0,0.0,1,69.0,1
1276,1276,-0.7044680072171363,-0.7,0.0,1.0,451.0,926.0,1.0,0,123.0,1
1277,1277,-0.034330789306408094,-0.0,0.0,1.0,378.0,806.0,0.0,1,636.0,0
1278,1278,-0.16142271281621723,-0.2,1.0,0.0,359.0,614.0,0.0,0,517.0,1
1279,1279,0.11131313896872863,0.1,0.0,0.0,471.0,971.0,0.0,1,158.0,1
1280,1280,-0.8724338540418504,-0.9,1.0,0.0,289.0,746.0,0.0,0,225.0,1
1281,1281,0.24792990148083283,0.2,1.0,1.0,284.0,861.0,1.0,1,385.0,1
1282,1282,-0.7209176231075085,-0.7,1.0,0.0,333.0,748.0,0.0,0,499.0,1
1283,1283,0.7040673438334634,0.7,0.0,0.0,425.0,899.0,0.0,1,406.0,1
1284,1284,0.13950723386877606,0.1,1.0,1.0,290.0,546.0,1.0,1,534.0,1
1285,1285,-0.06867779733805346,-0.1,0.0,1.0,433.0,581.0,1.0,0,356.0,1
1286,1286,0.46261301368571817,0.5,1.0,1.0,439.0,746.0,1.0,1,285.0,1
1287,1287,0.4254032321453137,0.4,1.0,1.0,463.0,762.0,1.0,1,835.0,1
1288,1288,-0.18072736805951162,-0.2,0.0,1.0,379.0,684.0,1.0,0,957.0,1
1289,1289,-0.4875289452810581,-0.5,1.0,0.0,295.0,769.0,0.0,0,656.0,1
1290,1290,0.04559087987459853,0.0,0.0,0.0,485.0,858.0,1.0,0,37.0,0
1291,1291,-0.7715446690880068,-0.8,1.0,0.0,267.0,664.0,0.0,0,439.0,1
1292,1292,0.22724859115894314,0.2,0.0,0.0,276.0,997.0,1.0,0,-13.0,0
1293,1293,-0.4189605049423257,-0.4,0.0,1.0,436.0,968.0,1.0,0,146.0,1
1294,1294,0.5698086518621527,0.6,0.0,0.0,299.0,959.0,1.0,0,-258.0,0
1295,1295,-0.021194472563588973,-0.0,1.0,0.0,307.0,820.0,1.0,1,813.0,0
1296,1296,0.4108935041078515,0.4,0.0,0.0,325.0,946.0,0.0,1,379.0,1
1297,1297,-0.5919003256881665,-0.6,0.0,1.0,349.0,612.0,1.0,0,729.0,1
1298,1298,0.8564834810121212,0.9,0.0,0.0,403.0,969.0,0.0,1,258.0,1
1299,1299,0.7208273112705169,0.7,0.0,0.0,331.0,998.0,1.0,0,61.0,0
1300,1300,0.27243755725604524,0.3,1.0,1.0,280.0,947.0,1.0,1,213.0,1
1301,1301,-0.5158722178978898,-0.5,0.0,1.0,388.0,803.0,1.0,0,459.0,1
1302,1302,0.4556596560128029,0.5,0.0,0.0,359.0,523.0,1.0,0,368.0,0
1303,1303,-0.8926467985019232,-0.9,1.0,0.0,384.0,849.0,0.0,0,467.0,1
1304,1304,-0.044968685349878856,-0.0,1.0,0.0,388.0,987.0,0.0,0,1245.0,1
1305,1305,-0.3343439402331341,-0.3,1.0,0.0,407.0,656.0,0.0,0,437.0,1
1306,1306,0.04101918245631442,0.0,1.0,1.0,364.0,682.0,0.0,0,464.0,0
1307,1307,-0.14161639784426006,-0.1,1.0,0.0,490.0,909.0,0.0,0,661.0,1
1308,1308,-0.34813190835811725,-0.3,1.0,0.0,494.0,602.0,0.0,0,544.0,1
1309,1309,-0.2834739631301112,-0.3,0.0,1.0,275.0,712.0,1.0,0,743.0,1
1310,1310,0.3805860332657999,0.4,1.0,1.0,449.0,658.0,1.0,1,483.0,1
1311,1311,-0.0651200094753639,-0.1,0.0,1.0,281.0,507.0,0.0,1,722.0,0
1312,1312,0.16127053302015748,0.2,0.0,0.0,407.0,689.0,0.0,1,364.0,1
1313,1313,0.403039279066444,0.4,1.0,1.0,268.0,953.0,1.0,1,389.0,1
1314,1314,0.3939788755444661,0.4,0.0,0.0,297.0,994.0,0.0,1,339.0,1
1315,1315,-0.7335970869848005,-0.7,0.0,1.0,433.0,817.0,1.0,0,370.0,1
1316,1316,0.14239476228793302,0.1,1.0,1.0,308.0,699.0,0.0,0,573.0,0
1317,1317,0.08070832865185484,0.1,0.0,0.0,479.0,592.0,0.0,1,909.0,1
1318,1318,0.21808148434344987,0.2,1.0,1.0,359.0,725.0,0.0,0,876.0,0
1319,1319,-0.18828131337228382,-0.2,1.0,0.0,351.0,770.0,0.0,0,309.0,1
1320,1320,-0.45916714240359624,-0.5,0.0,1.0,483.0,663.0,1.0,0,254.0,1
1321,1321,-0.3934646250094913,-0.4,0.0,1.0,395.0,619.0,1.0,0,586.0,1
1322,1322,-0.38594751428727003,-0.4,1.0,0.0,281.0,984.0,0.0,0,65.0,1
1323,1323,0.715567366811282,0.7,1.0,1.0,269.0,840.0,1.0,1,691.0,1
1324,1324,0.8012683167766376,0.8,1.0,1.0,439.0,627.0,1.0,1,664.0,1
1325,1325,0.5153507980346311,0.5,1.0,1.0,333.0,749.0,1.0,1,358.0,1
1326,1326,-0.7509209550784277,-0.8,1.0,0.0,251.0,773.0,0.0,0,226.0,1
1327,1327,-0.32489765639058943,-0.3,1.0,0.0,403.0,977.0,0.0,0,520.0,1
1328,1328,0.6897288704570056,0.7,0.0,0.0,442.0,669.0,0.0,1,299.0,1
1329,1329,0.1317478382352143,0.1,1.0,1.0,335.0,827.0,1.0,1,588.0,1
1330,1330,0.7028775393870251,0.7,1.0,1.0,317.0,894.0,1.0,1,809.0,1
1331,1331,0.6771552280677423,0.7,1.0,1.0,340.0,807.0,1.0,1,283.0,1
1332,1332,-0.6578428135925513,-0.7,0.0,1.0,366.0,793.0,1.0,0,571.0,1
1333,1333,0.6692148708197722,0.7,1.0,1.0,491.0,686.0,1.0,1,353.0,1
1334,1334,0.4776491316402146,0.5,1.0,1.0,436.0,624.0,1.0,1,650.0,1
1335,1335,-0.36601834135771405,-0.4,0.0,1.0,310.0,787.0,1.0,0,1263.0,1
1336,1336,-0.5974910505046664,-0.6,0.0,1.0,369.0,515.0,1.0,0,376.0,1
1337,1337,-0.24848414783933115,-0.2,1.0,0.0,336.0,992.0,0.0,0,162.0,1
1338,1338,0.17162238779879269,0.2,1.0,1.0,293.0,739.0,1.0,1,478.0,1
1339,1339,-0.7476915984321922,-0.7,0.0,1.0,385.0,821.0,1.0,0,-16.0,1
1340,1340,0.6322077894744048,0.6,1.0,1.0,317.0,638.0,1.0,1,425.0,1
1341,1341,0.1435800645281181,0.1,0.0,0.0,416.0,553.0,0.0,1,1351.0,1
1342,1342,-0.8887592266919393,-0.9,0.0,1.0,441.0,777.0,1.0,0,212.0,1
1343,1343,0.7025785809006394,0.7,1.0,1.0,323.0,862.0,1.0,1,115.0,1
1344,1344,0.27476941879125405,0.3,0.0,0.0,274.0,708.0,0.0,1,318.0,1
1345,1345,-0.8927856136241837,-0.9,0.0,1.0,383.0,660.0,1.0,0,347.0,1
1346,1346,0.5615618181416332,0.6,0.0,0.0,407.0,654.0,0.0,1,319.0,1
1347,1347,0.8860052261095454,0.9,1.0,1.0,305.0,755.0,1.0,1,140.0,1
1348,1348,0.3456983664479486,0.3,1.0,1.0,252.0,733.0,1.0,1,425.0,1
1349,1349,0.3062718384494786,0.3,1.0,1.0,444.0,605.0,1.0,1,2241.0,1
1350,1350,-0.4695714553234137,-0.5,1.0,0.0,360.0,780.0,0.0,0,430.0,1
1351,1351,-0.7739111932725816,-0.8,0.0,1.0,256.0,897.0,1.0,0,267.0,1
1352,1352,0.13255109648510255,0.1,0.0,0.0,250.0,719.0,0.0,1,681.0,1
1353,1353,-0.45460674295687725,-0.5,1.0,0.0,312.0,943.0,0.0,0,105.0,1
1354,1354,0.8770067224557102,0.9,1.0,1.0,324.0,591.0,1.0,1,505.0,1
1355,1355,0.2904935821465081,0.3,1.0,1.0,282.0,759.0,1.0,1,319.0,1
1356,1356,-0.3246152164139313,-0.3,0.0,1.0,344.0,922.0,1.0,0,254.0,1
1357,1357,-0.44199167121813215,-0.4,0.0,1.0,358.0,530.0,1.0,0,682.0,1
1358,1358,0.4284978116381718,0.4,1.0,1.0,255.0,603.0,1.0,1,522.0,1
1359,1359,0.7974801200752076,0.8,1.0,1.0,376.0,715.0,1.0,1,249.0,1
1360,1360,0.4131294326367304,0.4,1.0,1.0,465.0,926.0,1.0,1,259.0,1
1361,1361,0.5145791479694696,0.5,1.0,1.0,273.0,540.0,1.0,1,517.0,1
1362,1362,0.8803947666734012,0.9,0.0,0.0,461.0,710.0,0.0,1,579.0,1
1363,1363,-0.021196910076337838,-0.0,1.0,0.0,455.0,908.0,1.0,1,717.0,0
1364,1364,0.16885411294035746,0.2,1.0,1.0,475.0,669.0,0.0,0,436.0,0
1365,1365,-0.3565935791027367,-0.4,0.0,1.0,474.0,824.0,1.0,0,692.0,1
1366,1366,0.015101557873168692,0.0,1.0,1.0,495.0,633.0,0.0,0,1042.0,0
1367,1367,-0.33886615249002494,-0.3,0.0,1.0,253.0,853.0,1.0,0,54.0,1
1368,1368,0.5818772049476554,0.6,0.0,0.0,485.0,821.0,0.0,1,454.0,1
1369,1369,0.8366243285689748,0.8,0.0,0.0,341.0,999.0,0.0,1,530.0,1
1370,1370,0.09194904043200858,0.1,0.0,0.0,458.0,763.0,1.0,0,399.0,0
1371,1371,-0.6214975350823778,-0.6,1.0,0.0,448.0,501.0,0.0,0,501.0,1
1372,1372,0.12045511776111495,0.1,0.0,0.0,308.0,907.0,1.0,0,255.0,0
1373,1373,0.5269327455403016,0.5,1.0,1.0,337.0,507.0,1.0,1,526.0,1
1374,1374,0.44145336933832613,0.4,0.0,0.0,447.0,646.0,0.0,1,897.0,1
1375,1375,-0.8748041915875119,-0.9,0.0,1.0,446.0,725.0,1.0,0,19.0,1
1376,1376,0.10970334556436512,0.1,1.0,1.0,318.0,913.0,0.0,0,469.0,0
1377,1377,-0.7552038278189939,-0.8,0.0,1.0,296.0,954.0,1.0,0,160.0,1
1378,1378,-0.1366928821266271,-0.1,1.0,0.0,481.0,685.0,0.0,0,294.0,1
1379,1379,0.46260483787322915,0.5,0.0,0.0,308.0,560.0,0.0,1,1062.0,1
1380,1380,-0.0542573753629475,-0.1,0.0,1.0,259.0,515.0,1.0,0,376.0,1
1381,1381,-0.8856771008407859,-0.9,1.0,0.0,296.0,958.0,0.0,0,206.0,1
1382,1382,-0.22491118470769733,-0.2,1.0,0.0,355.0,681.0,0.0,0,654.0,1
1383,1383,0.45400110834232266,0.5,1.0,1.0,379.0,651.0,1.0,1,430.0,1
1384,1384,0.2791332101323195,0.3,0.0,0.0,334.0,900.0,0.0,1,486.0,1
1385,1385,-0.015468918148989874,-0.0,0.0,1.0,491.0,783.0,1.0,0,336.0,1
1386,1386,-0.6161819703270699,-0.6,0.0,1.0,267.0,976.0,1.0,0,207.0,1
1387,1387,0.6935819271587026,0.7,0.0,0.0,434.0,978.0,1.0,0,-32.0,0
1388,1388,-0.4390736649893913,-0.4,0.0,1.0,421.0,879.0,0.0,1,240.0,0
1389,1389,0.11895902538237701,0.1,0.0,0.0,299.0,872.0,1.0,0,789.0,0
1390,1390,-0.6024682975800404,-0.6,1.0,0.0,328.0,755.0,0.0,0,207.0,1
1391,1391,0.7634410362483396,0.8,0.0,0.0,362.0,657.0,0.0,1,951.0,1
1392,1392,0.024182102968131614,0.0,1.0,1.0,373.0,927.0,1.0,1,-20.0,1
1393,1393,-0.6253567157054405,-0.6,1.0,0.0,499.0,715.0,0.0,0,306.0,1
1394,1394,0.3302467798775167,0.3,1.0,1.0,287.0,569.0,1.0,1,314.0,1
1395,1395,0.1007718026419483,0.1,1.0,1.0,258.0,859.0,0.0,0,273.0,0
1396,1396,0.7087200466965115,0.7,0.0,0.0,253.0,939.0,1.0,0,-62.0,0
1397,1397,0.27324732031953103,0.3,1.0,1.0,468.0,514.0,1.0,1,728.0,1
1398,1398,0.02385983665345337,0.0,0.0,0.0,406.0,746.0,1.0,0,738.0,0
1399,1399,-0.06356882328695024,-0.1,1.0,0.0,481.0,939.0,1.0,1,900.0,0
1400,1400,-0.46154007232583577,-0.5,0.0,1.0,493.0,630.0,1.0,0,567.0,1
1401,1401,-0.2237764328727908,-0.2,1.0,0.0,410.0,980.0,0.0,0,1350.0,1
1402,1402,-0.5520229211840109,-0.6,1.0,0.0,293.0,828.0,0.0,0,199.0,1
1403,1403,0.7714320026281373,0.8,0.0,0.0,465.0,945.0,0.0,1,550.0,1
1404,1404,0.4944683123503365,0.5,1.0,1.0,447.0,528.0,1.0,1,915.0,1
1405,1405,0.7973303777767938,0.8,1.0,1.0,474.0,799.0,1.0,1,307.0,1
1406,1406,0.5871137054976182,0.6,1.0,1.0,324.0,797.0,1.0,1,159.0,1
1407,1407,-0.5201575300463954,-0.5,1.0,0.0,336.0,606.0,0.0,0,718.0,1
1408,1408,0.8627579707311891,0.9,0.0,0.0,496.0,705.0,0.0,1,299.0,1
1409,1409,0.5243013343652535,0.5,1.0,1.0,358.0,670.0,1.0,1,252.0,1
1410,1410,-0.41944243631192085,-0.4,0.0,1.0,364.0,563.0,1.0,0,853.0,1
1411,1411,0.45050650369513223,0.5,0.0,0.0,407.0,507.0,0.0,1,526.0,1
1412,1412,0.37965036694111876,0.4,1.0,1.0,472.0,897.0,1.0,1,371.0,1
1413,1413,-0.4721788986408528,-0.5,1.0,0.0,304.0,964.0,0.0,0,212.0,1
1414,1414,-0.8136708871059293,-0.8,1.0,0.0,261.0,664.0,0.0,0,445.0,1
1415,1415,0.8172173340723506,0.8,1.0,1.0,380.0,928.0,0.0,0,192.0,0
1416,1416,-0.8092042286246407,-0.8,0.0,1.0,303.0,620.0,1.0,0,397.0,1
1417,1417,-0.2027315472950717,-0.2,0.0,1.0,327.0,828.0,1.0,0,235.0,1
1418,1418,0.8028419915500581,0.8,0.0,0.0,267.0,664.0,0.0,1,489.0,1
1419,1419,0.7155268806792271,0.7,0.0,0.0,394.0,666.0,0.0,1,450.0,1
1420,1420,0.7179403678779,0.7,1.0,1.0,310.0,694.0,1.0,1,336.0,1
1421,1421,0.6452528138879735,0.6,0.0,0.0,487.0,705.0,0.0,1,978.0,1
1422,1422,0.5835542791333551,0.6,1.0,1.0,439.0,873.0,1.0,1,358.0,1
1423,1423,0.515028448235013,0.5,0.0,0.0,447.0,759.0,0.0,1,284.0,1
1424,1424,0.2129676489671638,0.2,1.0,1.0,348.0,683.0,0.0,0,529.0,0
1425,1425,-0.5891517691988494,-0.6,0.0,1.0,418.0,905.0,1.0,0,1127.0,1
1426,1426,0.1623885693723205,0.2,1.0,1.0,421.0,977.0,1.0,1,82.0,1
1427,1427,-0.4580970417142114,-0.5,0.0,1.0,280.0,615.0,1.0,0,325.0,1
1428,1428,-0.7231410272876009,-0.7,0.0,1.0,259.0,629.0,1.0,0,562.0,1
1429,1429,-0.17317506565823526,-0.2,1.0,0.0,491.0,716.0,0.0,0,223.0,1
1430,1430,0.8045894685863008,0.8,1.0,1.0,258.0,631.0,1.0,1,281.0,1
1431,1431,-0.20129427689609458,-0.2,0.0,1.0,469.0,564.0,0.0,1,927.0,0
1432,1432,-0.7352882764888427,-0.7,1.0,0.0,408.0,681.0,0.0,0,321.0,1
1433,1433,0.6452060461278099,0.6,0.0,0.0,402.0,647.0,0.0,1,321.0,1
1434,1434,0.1926604994076534,0.2,1.0,1.0,328.0,586.0,1.0,1,826.0,1
1435,1435,0.6713284902649798,0.7,1.0,1.0,468.0,962.0,1.0,1,90.0,1
1436,1436,0.6801239391943826,0.7,0.0,0.0,297.0,757.0,0.0,1,436.0,1
1437,1437,0.2395959095782524,0.2,1.0,1.0,442.0,615.0,1.0,1,873.0,1
1438,1438,0.6678203430050581,0.7,0.0,0.0,280.0,718.0,0.0,1,362.0,1
1439,1439,0.31929646036881565,0.3,1.0,1.0,485.0,511.0,1.0,1,1004.0,1
1440,1440,-0.6669736457244588,-0.7,1.0,0.0,495.0,603.0,0.0,0,412.0,1
1441,1441,-0.016242921414327927,-0.0,1.0,0.0,469.0,649.0,0.0,0,422.0,1
1442,1442,0.7414254563133328,0.7,1.0,1.0,308.0,682.0,1.0,1,930.0,1
1443,1443,0.10875428164047529,0.1,0.0,0.0,487.0,630.0,0.0,1,713.0,1
1444,1444,-0.1797868096725631,-0.2,1.0,0.0,415.0,806.0,1.0,1,269.0,0
1445,1445,-0.3831936037791924,-0.4,1.0,0.0,250.0,831.0,0.0,0,299.0,1
1446,1446,0.10037259264588638,0.1,0.0,0.0,284.0,894.0,0.0,1,512.0,1
1447,1447,-0.817803355503638,-0.8,1.0,0.0,259.0,665.0,0.0,0,416.0,1
1448,1448,-0.34144590031984157,-0.3,1.0,0.0,407.0,792.0,0.0,0,101.0,1
1449,1449,0.5313805775355923,0.5,1.0,1.0,470.0,844.0,1.0,1,356.0,1
1450,1450,0.26462739222493437,0.3,1.0,1.0,459.0,994.0,1.0,1,87.0,1
1451,1451,-0.6839342775774608,-0.7,0.0,1.0,274.0,766.0,1.0,0,430.0,1
1452,1452,-0.026709146484081958,-0.0,1.0,0.0,388.0,817.0,1.0,1,315.0,0
1453,1453,0.4136436220035141,0.4,1.0,1.0,385.0,502.0,1.0,1,763.0,1
1454,1454,-0.26883258569318036,-0.3,0.0,1.0,478.0,978.0,0.0,1,934.0,0
1455,1455,0.7762567821146914,0.8,0.0,0.0,321.0,881.0,1.0,0,-42.0,0
1456,1456,-0.869834091855589,-0.9,1.0,0.0,300.0,888.0,1.0,1,82.0,0
1457,1457,0.7739748469388105,0.8,0.0,0.0,484.0,668.0,0.0,1,368.0,1
1458,1458,0.4661358450428378,0.5,0.0,0.0,458.0,556.0,0.0,1,1006.0,1
1459,1459,0.6627102199057059,0.7,1.0,1.0,480.0,553.0,1.0,1,347.0,1
1460,1460,-0.05197800369297567,-0.1,1.0,0.0,330.0,823.0,0.0,0,437.0,1
1461,1461,-0.24967154766147392,-0.2,0.0,1.0,252.0,543.0,1.0,0,485.0,1
1462,1462,-0.3218526275250917,-0.3,0.0,1.0,392.0,918.0,1.0,0,860.0,1
1463,1463,0.4525336061916697,0.5,1.0,1.0,348.0,545.0,1.0,1,417.0,1
1464,1464,0.3057551100233594,0.3,1.0,1.0,339.0,502.0,1.0,1,729.0,1
1465,1465,-0.33844323959927525,-0.3,1.0,0.0,467.0,668.0,0.0,0,505.0,1
1466,1466,0.3454097862355764,0.3,0.0,0.0,416.0,713.0,0.0,1,301.0,1
1467,1467,0.0027859007013831816,0.0,0.0,0.0,291.0,722.0,1.0,0,367.0,0
1468,1468,-0.055631527698515204,-0.1,0.0,1.0,371.0,735.0,1.0,0,234.0,1
1469,1469,0.2059767393545603,0.2,0.0,0.0,301.0,789.0,0.0,1,750.0,1
1470,1470,0.6808483590607449,0.7,0.0,0.0,461.0,784.0,0.0,1,325.0,1
1471,1471,0.06342190138378145,0.1,1.0,1.0,369.0,637.0,0.0,0,564.0,0
1472,1472,-0.4294819728827087,-0.4,1.0,0.0,495.0,994.0,0.0,0,191.0,1
1473,1473,0.32960145814076436,0.3,1.0,1.0,441.0,970.0,1.0,1,239.0,1
1474,1474,0.08144596477184118,0.1,1.0,1.0,386.0,807.0,0.0,0,237.0,0
1475,1475,0.44439680517864455,0.4,1.0,1.0,414.0,917.0,0.0,0,-61.0,0
1476,1476,0.8078389044232454,0.8,1.0,1.0,322.0,844.0,1.0,1,404.0,1
1477,1477,-0.18300261548555152,-0.2,1.0,0.0,418.0,515.0,1.0,1,737.0,0
1478,1478,0.6391100449859125,0.6,0.0,0.0,456.0,876.0,0.0,1,1308.0,1
1479,1479,-0.7347388102957708,-0.7,1.0,0.0,456.0,967.0,1.0,1,207.0,0
1480,1480,0.8394730468501296,0.8,1.0,1.0,289.0,864.0,1.0,1,117.0,1
1481,1481,-0.28125610098835874,-0.3,1.0,0.0,292.0,971.0,0.0,0,-13.0,1
1482,1482,0.4577018422290676,0.5,0.0,0.0,390.0,744.0,0.0,1,536.0,1
1483,1483,0.04807106592853139,0.0,0.0,0.0,481.0,942.0,0.0,1,397.0,1
1484,1484,0.3786413167042627,0.4,0.0,0.0,258.0,728.0,0.0,1,764.0,1
1485,1485,0.46934878744483755,0.5,0.0,0.0,353.0,931.0,1.0,0,-114.0,0
1486,1486,-0.8527949916041228,-0.9,0.0,1.0,310.0,507.0,1.0,0,773.0,1
1487,1487,-0.578742691906953,-0.6,0.0,1.0,365.0,847.0,1.0,0,198.0,1
1488,1488,0.1949210959142592,0.2,0.0,0.0,450.0,767.0,0.0,1,473.0,1
1489,1489,-0.4496140331825144,-0.4,1.0,0.0,326.0,928.0,0.0,0,196.0,1
1490,1490,-0.8678842800556631,-0.9,0.0,1.0,383.0,516.0,1.0,0,331.0,1
1491,1491,-0.4625476004916137,-0.5,0.0,1.0,364.0,860.0,1.0,0,36.0,1
1492,1492,0.05160662659626125,0.1,0.0,0.0,381.0,910.0,1.0,0,829.0,0
1493,1493,0.08213418358900093,0.1,0.0,0.0,328.0,702.0,1.0,0,700.0,0
