,trial,coherence,coherence_bin,green_side,correct_side,target_onset,checker_onset,decision,green_decision,decision_time,correct_decision
0,0,-0.39661800881051656,-0.4,1.0,0.0,289.0,975.0,0.0,0,546.0,1
1,1,-0.7015256033285266,-0.7,1.0,0.0,391.0,763.0,0.0,0,306.0,1
2,2,-0.7488286697837525,-0.7,0.0,1.0,490.0,641.0,1.0,0,449.0,1
3,3,-0.13497954392002776,-0.1,0.0,1.0,367.0,601.0,1.0,0,812.0,1
4,4,-0.5120545116653016,-0.5,1.0,0.0,361.0,868.0,0.0,0,341.0,1
5,5,-0.17180397243488765,-0.2,1.0,0.0,410.0,973.0,1.0,1,-53.0,0
6,6,-0.8862854861721882,-0.9,1.0,0.0,448.0,724.0,0.0,0,188.0,1
7,7,-0.27118765903386854,-0.3,0.0,1.0,276.0,957.0,0.0,1,17.0,0
8,8,0.7815721842946907,0.8,0.0,0.0,289.0,615.0,0.0,1,866.0,1
9,9,-0.2596536982343437,-0.3,1.0,0.0,403.0,554.0,0.0,0,433.0,1
10,10,-0.01968449527614413,-0.0,1.0,0.0,368.0,533.0,0.0,0,519.0,1
11,11,0.28709204186879267,0.3,0.0,0.0,469.0,901.0,0.0,1,220.0,1
12,12,0.5704868339518235,0.6,1.0,1.0,392.0,887.0,1.0,1,291.0,1
13,13,0.7691714390989238,0.8,1.0,1.0,369.0,669.0,1.0,1,1012.0,1
14,14,0.6170450047372756,0.6,0.0,0.0,266.0,883.0,0.0,1,311.0,1
15,15,-0.5148348326876244,-0.5,0.0,1.0,459.0,596.0,1.0,0,635.0,1
16,16,-0.6597644911867452,-0.7,0.0,1.0,387.0,967.0,0.0,1,-164.0,0
17,17,-0.586587926911398,-0.6,0.0,1.0,445.0,589.0,1.0,0,1116.0,1
18,18,0.16162995022263138,0.2,1.0,1.0,369.0,745.0,0.0,0,296.0,0
19,19,-0.15583200852341628,-0.2,0.0,1.0,487.0,588.0,0.0,1,685.0,0
20,20,-0.8681257034445531,-0.9,0.0,1.0,454.0,920.0,1.0,0,276.0,1
21,21,0.19861084847509025,0.2,1.0,1.0,338.0,939.0,1.0,1,123.0,1
22,22,-0.5877386361462609,-0.6,0.0,1.0,462.0,974.0,1.0,0,124.0,1
23,23,-0.8778729867326129,-0.9,0.0,1.0,340.0,903.0,1.0,0,187.0,1
24,24,-0.21603298313323782,-0.2,0.0,1.0,325.0,732.0,1.0,0,603.0,1
25,25,-0.002223769433539635,-0.0,0.0,1.0,461.0,907.0,1.0,0,492.0,1
26,26,-0.3752965898267756,-0.4,0.0,1.0,472.0,924.0,0.0,1,1074.0,0
27,27,-0.26589564757577255,-0.3,1.0,0.0,359.0,866.0,0.0,0,145.0,1
28,28,0.14034313915160512,0.1,1.0,1.0,283.0,521.0,0.0,0,626.0,0
29,29,-0.5106701807394816,-0.5,0.0,1.0,300.0,889.0,0.0,1,331.0,0
30,30,0.40308890728136293,0.4,1.0,1.0,452.0,637.0,0.0,0,621.0,0
31,31,0.40781389424773706,0.4,0.0,0.0,438.0,875.0,0.0,1,287.0,1
32,32,0.279771641013176,0.3,0.0,0.0,483.0,785.0,0.0,1,692.0,1
33,33,-0.16183256338250585,-0.2,0.0,1.0,445.0,534.0,0.0,1,251.0,0
34,34,-0.8547964823785191,-0.9,0.0,1.0,307.0,946.0,1.0,0,347.0,1
35,35,-0.36052033253011795,-0.4,1.0,0.0,315.0,784.0,0.0,0,441.0,1
36,36,0.3540926525733633,0.4,0.0,0.0,263.0,649.0,0.0,1,348.0,1
37,37,-0.6710499573347406,-0.7,0.0,1.0,272.0,568.0,1.0,0,670.0,1
38,38,-0.5724928796385969,-0.6,1.0,0.0,317.0,525.0,0.0,0,548.0,1
39,39,-0.004184876136771765,-0.0,0.0,1.0,481.0,997.0,0.0,1,82.0,0
40,40,-0.5547291463958509,-0.6,0.0,1.0,340.0,788.0,1.0,0,372.0,1
41,41,-0.53615082383907,-0.5,1.0,0.0,422.0,627.0,0.0,0,351.0,1
42,42,-0.7027120803437341,-0.7,0.0,1.0,438.0,700.0,1.0,0,442.0,1
43,43,-0.08895255285086734,-0.1,0.0,1.0,455.0,843.0,1.0,0,242.0,1
44,44,0.6082030931544163,0.6,1.0,1.0,482.0,808.0,1.0,1,620.0,1
45,45,-0.26695546829073225,-0.3,1.0,0.0,260.0,539.0,0.0,0,491.0,1
46,46,-0.48560286384926854,-0.5,0.0,1.0,306.0,565.0,0.0,1,599.0,0
47,47,-0.046106494773029194,-0.0,0.0,1.0,494.0,587.0,0.0,1,389.0,0
48,48,0.062387785812987095,0.1,1.0,1.0,496.0,510.0,0.0,0,2264.0,0
49,49,-0.7138354362220094,-0.7,0.0,1.0,344.0,952.0,1.0,0,294.0,1
50,50,-0.6353573671149015,-0.6,1.0,0.0,409.0,619.0,0.0,0,512.0,1
51,51,-0.35983365630686825,-0.4,1.0,0.0,420.0,661.0,0.0,0,619.0,1
52,52,0.7740148108896555,0.8,0.0,0.0,252.0,991.0,0.0,1,137.0,1
53,53,-0.31265824603123393,-0.3,1.0,0.0,456.0,527.0,0.0,0,837.0,1
54,54,-0.6372382133169023,-0.6,0.0,1.0,306.0,829.0,1.0,0,475.0,1
55,55,0.6963715068154582,0.7,0.0,0.0,302.0,775.0,0.0,1,623.0,1
56,56,0.3088085556115153,0.3,0.0,0.0,308.0,693.0,0.0,1,389.0,1
57,57,-0.049570052173103396,-0.0,0.0,1.0,253.0,930.0,0.0,1,147.0,0
58,58,0.4568518255465054,0.5,1.0,1.0,392.0,723.0,1.0,1,845.0,1
59,59,-0.2665516958770896,-0.3,1.0,0.0,280.0,660.0,0.0,0,740.0,1
60,60,0.6151490596084245,0.6,0.0,0.0,374.0,771.0,0.0,1,265.0,1
61,61,0.2596243889649098,0.3,0.0,0.0,405.0,590.0,0.0,1,765.0,1
62,62,0.14205157696524784,0.1,0.0,0.0,355.0,655.0,0.0,1,210.0,1
63,63,0.5567175951024083,0.6,0.0,0.0,472.0,807.0,0.0,1,291.0,1
64,64,0.48326546687821026,0.5,1.0,1.0,266.0,635.0,1.0,1,1079.0,1
65,65,-0.023627339587795393,-0.0,0.0,1.0,349.0,881.0,0.0,1,690.0,0
66,66,0.6038279317679239,0.6,0.0,0.0,275.0,971.0,1.0,0,-16.0,0
67,67,0.3864946842170748,0.4,0.0,0.0,396.0,724.0,0.0,1,410.0,1
68,68,-0.20437351367199252,-0.2,1.0,0.0,420.0,622.0,0.0,0,708.0,1
69,69,0.38908606166818716,0.4,1.0,1.0,288.0,956.0,1.0,1,706.0,1
70,70,-0.8525951904989131,-0.9,0.0,1.0,408.0,959.0,1.0,0,233.0,1
71,71,-0.566890118866326,-0.6,1.0,0.0,295.0,669.0,0.0,0,356.0,1
72,72,-0.38906032149122594,-0.4,1.0,0.0,270.0,943.0,0.0,0,387.0,1
73,73,-0.3235752148230451,-0.3,1.0,0.0,280.0,950.0,0.0,0,600.0,1
74,74,0.8357661161252602,0.8,0.0,0.0,392.0,962.0,0.0,1,206.0,1
75,75,0.8734064070405722,0.9,1.0,1.0,421.0,647.0,1.0,1,692.0,1
76,76,0.5150498710726586,0.5,0.0,0.0,281.0,895.0,0.0,1,44.0,1
77,77,-0.33449729282429674,-0.3,0.0,1.0,427.0,675.0,1.0,0,1018.0,1
78,78,-0.15871821872732772,-0.2,0.0,1.0,451.0,889.0,0.0,1,-20.0,0
79,79,-0.6520773508534339,-0.7,1.0,0.0,298.0,916.0,0.0,0,376.0,1
80,80,-0.34137858805238896,-0.3,0.0,1.0,404.0,818.0,1.0,0,278.0,1
81,81,0.8054992411565886,0.8,0.0,0.0,422.0,987.0,0.0,1,181.0,1
82,82,-0.4038942660780681,-0.4,1.0,0.0,298.0,519.0,0.0,0,493.0,1
83,83,-0.28958190516448656,-0.3,1.0,0.0,316.0,655.0,0.0,0,459.0,1
84,84,-0.21227689989671672,-0.2,0.0,1.0,269.0,713.0,1.0,0,468.0,1
85,85,0.15725057916242513,0.2,0.0,0.0,425.0,542.0,0.0,1,1113.0,1
86,86,-0.6793923111586656,-0.7,0.0,1.0,322.0,517.0,1.0,0,921.0,1
87,87,0.7190137967968985,0.7,1.0,1.0,281.0,771.0,1.0,1,228.0,1
88,88,0.1761310735066436,0.2,0.0,0.0,450.0,779.0,0.0,1,521.0,1
89,89,-0.20196491945379969,-0.2,1.0,0.0,320.0,995.0,1.0,1,15.0,0
90,90,-0.8917908319566193,-0.9,0.0,1.0,284.0,614.0,1.0,0,262.0,1
91,91,-0.22897672209921527,-0.2,1.0,0.0,436.0,780.0,0.0,0,404.0,1
92,92,-0.7975988202924545,-0.8,0.0,1.0,402.0,527.0,1.0,0,351.0,1
93,93,-0.5816887695269133,-0.6,0.0,1.0,342.0,802.0,1.0,0,656.0,1
94,94,-0.45487224824784145,-0.5,1.0,0.0,283.0,919.0,0.0,0,158.0,1
95,95,0.6383643509593838,0.6,0.0,0.0,490.0,783.0,0.0,1,157.0,1
96,96,-0.4458948085305586,-0.4,0.0,1.0,290.0,714.0,1.0,0,606.0,1
97,97,-0.2193588043429504,-0.2,1.0,0.0,310.0,685.0,0.0,0,1235.0,1
98,98,-0.5327710594527924,-0.5,1.0,0.0,447.0,613.0,0.0,0,310.0,1
99,99,0.6858699361554116,0.7,1.0,1.0,252.0,574.0,1.0,1,454.0,1
100,100,-0.39432129957525675,-0.4,1.0,0.0,270.0,612.0,0.0,0,318.0,1
101,101,0.08114370084694167,0.1,1.0,1.0,316.0,682.0,0.0,0,612.0,0
102,102,-0.834235357772778,-0.8,1.0,0.0,312.0,837.0,0.0,0,141.0,1
103,103,-0.8493624484893415,-0.8,0.0,1.0,315.0,703.0,1.0,0,882.0,1
104,104,-0.13701134295354445,-0.1,1.0,0.0,344.0,718.0,0.0,0,248.0,1
105,105,0.6303883723622398,0.6,1.0,1.0,345.0,912.0,1.0,1,253.0,1
106,106,0.8537235865080549,0.9,1.0,1.0,332.0,684.0,1.0,1,364.0,1
107,107,0.1456577309280943,0.1,0.0,0.0,450.0,784.0,0.0,1,46.0,1
108,108,-0.04692576223667566,-0.0,1.0,0.0,362.0,550.0,0.0,0,448.0,1
109,109,0.6179708603589918,0.6,0.0,0.0,391.0,838.0,0.0,1,91.0,1
110,110,-0.8941803208798771,-0.9,1.0,0.0,268.0,931.0,0.0,0,131.0,1
111,111,-0.36888491208243857,-0.4,0.0,1.0,287.0,571.0,1.0,0,362.0,1
112,112,0.8506022653328619,0.9,0.0,0.0,339.0,645.0,0.0,1,326.0,1
113,113,-0.5726045842850853,-0.6,1.0,0.0,443.0,629.0,0.0,0,378.0,1
114,114,-0.2944062485503741,-0.3,0.0,1.0,333.0,654.0,1.0,0,983.0,1
115,115,0.5711445446258944,0.6,1.0,1.0,332.0,587.0,1.0,1,191.0,1
116,116,-0.683662579464756,-0.7,1.0,0.0,454.0,650.0,0.0,0,316.0,1
117,117,-0.19299518319350695,-0.2,0.0,1.0,478.0,778.0,1.0,0,464.0,1
118,118,-0.8135690916967883,-0.8,1.0,0.0,445.0,586.0,0.0,0,389.0,1
119,119,0.5382438627582474,0.5,0.0,0.0,497.0,582.0,0.0,1,211.0,1
120,120,-0.3095145024687177,-0.3,0.0,1.0,257.0,562.0,1.0,0,621.0,1
121,121,-0.7772556896972698,-0.8,0.0,1.0,415.0,558.0,1.0,0,377.0,1
122,122,0.19575889201758134,0.2,0.0,0.0,487.0,532.0,0.0,1,1261.0,1
123,123,-0.6517908119867265,-0.7,1.0,0.0,252.0,697.0,0.0,0,301.0,1
124,124,0.7008672497674436,0.7,0.0,0.0,368.0,907.0,0.0,1,-65.0,1
125,125,0.610155189525219,0.6,0.0,0.0,286.0,763.0,0.0,1,231.0,1
126,126,0.8226978102613015,0.8,0.0,0.0,442.0,907.0,0.0,1,351.0,1
127,127,0.7947436491438017,0.8,1.0,1.0,351.0,690.0,1.0,1,319.0,1
128,128,0.7359464976055335,0.7,0.0,0.0,277.0,555.0,0.0,1,438.0,1
129,129,-0.6460569801413363,-0.6,0.0,1.0,462.0,827.0,1.0,0,661.0,1
130,130,-0.5114596794744423,-0.5,0.0,1.0,499.0,860.0,1.0,0,341.0,1
131,131,-0.5784722270321132,-0.6,1.0,0.0,413.0,607.0,0.0,0,830.0,1
132,132,-0.6609558804425388,-0.7,0.0,1.0,397.0,815.0,1.0,0,258.0,1
133,133,0.8651123397368304,0.9,0.0,0.0,310.0,605.0,0.0,1,605.0,1
134,134,-0.2503521430772101,-0.3,0.0,1.0,366.0,593.0,1.0,0,691.0,1
135,135,0.14255165390988978,0.1,0.0,0.0,369.0,816.0,0.0,1,335.0,1
136,136,0.21584842413924388,0.2,1.0,1.0,383.0,915.0,0.0,0,192.0,0
137,137,0.5801221654571674,0.6,1.0,1.0,406.0,510.0,1.0,1,534.0,1
138,138,-0.5751276947275334,-0.6,1.0,0.0,356.0,881.0,0.0,0,53.0,1
139,139,-0.26819021637109464,-0.3,0.0,1.0,435.0,638.0,1.0,0,587.0,1
140,140,0.003432866260509204,0.0,1.0,1.0,327.0,767.0,0.0,0,1066.0,0
141,141,0.32110908942835537,0.3,0.0,0.0,314.0,652.0,0.0,1,714.0,1
142,142,-0.15309619219251802,-0.2,0.0,1.0,291.0,849.0,1.0,0,760.0,1
143,143,0.8815751689541526,0.9,0.0,0.0,319.0,571.0,0.0,1,320.0,1
144,144,0.1524629102454732,0.2,0.0,0.0,270.0,638.0,0.0,1,362.0,1
145,145,-0.2950781798563119,-0.3,1.0,0.0,287.0,960.0,0.0,0,633.0,1
146,146,0.08491344463936301,0.1,1.0,1.0,269.0,537.0,0.0,0,554.0,0
147,147,-0.6235143283528264,-0.6,1.0,0.0,302.0,810.0,0.0,0,228.0,1
148,148,-0.11229923453807689,-0.1,0.0,1.0,295.0,566.0,0.0,1,1179.0,0
149,149,-0.4575839606625309,-0.5,1.0,0.0,418.0,923.0,0.0,0,109.0,1
150,150,-0.26364692701810244,-0.3,1.0,0.0,414.0,591.0,1.0,1,485.0,0
151,151,-0.49140052722868816,-0.5,1.0,0.0,398.0,735.0,0.0,0,117.0,1
152,152,0.6391272332546899,0.6,1.0,1.0,393.0,582.0,1.0,1,575.0,1
153,153,-0.24005360239910611,-0.2,1.0,0.0,381.0,853.0,0.0,0,596.0,1
154,154,-0.4568876857381754,-0.5,1.0,0.0,287.0,616.0,0.0,0,337.0,1
155,155,0.7779165200243249,0.8,1.0,1.0,373.0,772.0,1.0,1,515.0,1
156,156,-0.14494276210642565,-0.1,0.0,1.0,333.0,838.0,1.0,0,269.0,1
157,157,0.13089905852781725,0.1,0.0,0.0,251.0,949.0,0.0,1,-90.0,1
158,158,-0.8328020448651976,-0.8,0.0,1.0,272.0,512.0,1.0,0,476.0,1
159,159,0.8463549479022895,0.8,0.0,0.0,269.0,668.0,0.0,1,393.0,1
160,160,-0.35344099045329413,-0.4,0.0,1.0,499.0,513.0,0.0,1,518.0,0
161,161,-0.850782010113181,-0.9,0.0,1.0,398.0,764.0,1.0,0,138.0,1
162,162,-0.8137655216565096,-0.8,0.0,1.0,456.0,754.0,1.0,0,350.0,1
163,163,-0.5256667727685191,-0.5,0.0,1.0,348.0,613.0,1.0,0,309.0,1
164,164,0.6912359710311647,0.7,0.0,0.0,256.0,986.0,0.0,1,378.0,1
165,165,-0.14727947424389076,-0.1,0.0,1.0,488.0,588.0,0.0,1,544.0,0
166,166,0.13224790654796703,0.1,0.0,0.0,290.0,884.0,1.0,0,566.0,0
167,167,0.027921020932998974,0.0,0.0,0.0,491.0,864.0,0.0,1,185.0,1
168,168,0.6608983645810215,0.7,1.0,1.0,349.0,769.0,0.0,0,132.0,0
169,169,-0.8629084439075689,-0.9,1.0,0.0,396.0,986.0,0.0,0,168.0,1
170,170,0.3384230679431043,0.3,1.0,1.0,283.0,688.0,1.0,1,1319.0,1
171,171,-0.6874344315377676,-0.7,0.0,1.0,288.0,547.0,1.0,0,595.0,1
172,172,-0.2883569654769703,-0.3,0.0,1.0,384.0,775.0,1.0,0,1241.0,1
173,173,0.7455323596674636,0.7,1.0,1.0,336.0,783.0,1.0,1,241.0,1
174,174,0.6914599743212883,0.7,0.0,0.0,312.0,599.0,0.0,1,409.0,1
175,175,-0.6918149877353341,-0.7,0.0,1.0,296.0,874.0,1.0,0,310.0,1
176,176,0.5400988748647438,0.5,1.0,1.0,256.0,813.0,1.0,1,441.0,1
177,177,0.13408182653145928,0.1,0.0,0.0,291.0,666.0,0.0,1,373.0,1
178,178,0.061090468793101094,0.1,0.0,0.0,488.0,997.0,0.0,1,295.0,1
179,179,0.5137525189750943,0.5,0.0,0.0,367.0,869.0,0.0,1,154.0,1
180,180,0.4990924601398602,0.5,0.0,0.0,293.0,727.0,0.0,1,200.0,1
181,181,-0.3128917727786913,-0.3,1.0,0.0,378.0,633.0,0.0,0,449.0,1
182,182,-0.17325184382252357,-0.2,1.0,0.0,284.0,792.0,1.0,1,194.0,0
183,183,-0.20381838304336652,-0.2,0.0,1.0,253.0,579.0,0.0,1,2288.0,0
184,184,0.7823874813263941,0.8,0.0,0.0,417.0,777.0,0.0,1,306.0,1
185,185,-0.3251374294952537,-0.3,1.0,0.0,326.0,713.0,0.0,0,251.0,1
186,186,-0.6779437748981385,-0.7,0.0,1.0,322.0,804.0,0.0,1,164.0,0
187,187,-0.09520364850962337,-0.1,1.0,0.0,363.0,584.0,0.0,0,273.0,1
188,188,0.0949629772501478,0.1,0.0,0.0,468.0,857.0,0.0,1,745.0,1
189,189,-0.7433414146056381,-0.7,1.0,0.0,351.0,556.0,0.0,0,463.0,1
190,190,-0.6507297912690435,-0.7,0.0,1.0,355.0,843.0,1.0,0,262.0,1
191,191,-0.3966820251631218,-0.4,0.0,1.0,381.0,813.0,1.0,0,1016.0,1
192,192,-0.209880959779706,-0.2,1.0,0.0,447.0,915.0,0.0,0,148.0,1
193,193,-0.7753098733451393,-0.8,0.0,1.0,389.0,892.0,1.0,0,429.0,1
194,194,-0.5190973976093851,-0.5,0.0,1.0,402.0,857.0,1.0,0,301.0,1
195,195,0.1526075293658965,0.2,1.0,1.0,283.0,914.0,0.0,0,543.0,0
196,196,0.4812424458812211,0.5,1.0,1.0,471.0,562.0,0.0,0,397.0,0
197,197,-0.09650374563536135,-0.1,0.0,1.0,312.0,638.0,0.0,1,2150.0,0
198,198,0.8896730322919074,0.9,1.0,1.0,459.0,973.0,0.0,0,-42.0,0
199,199,0.052920497310011916,0.1,1.0,1.0,271.0,882.0,1.0,1,387.0,1
200,200,0.14716599239553296,0.1,1.0,1.0,289.0,985.0,0.0,0,-34.0,0
201,201,-0.27145947192229203,-0.3,1.0,0.0,495.0,622.0,0.0,0,573.0,1
202,202,0.516112352759781,0.5,0.0,0.0,483.0,790.0,0.0,1,247.0,1
203,203,-0.20554478203673643,-0.2,0.0,1.0,440.0,692.0,0.0,1,148.0,0
204,204,0.10609790198641134,0.1,0.0,0.0,327.0,961.0,0.0,1,322.0,1
205,205,-0.28894558289666616,-0.3,1.0,0.0,350.0,625.0,0.0,0,885.0,1
206,206,0.10944695248571767,0.1,0.0,0.0,367.0,970.0,0.0,1,-87.0,1
207,207,0.3590951290950454,0.4,0.0,0.0,253.0,726.0,0.0,1,341.0,1
208,208,0.021476864783786187,0.0,1.0,1.0,456.0,558.0,0.0,0,636.0,0
209,209,-0.8781861778255143,-0.9,0.0,1.0,361.0,950.0,1.0,0,489.0,1
210,210,-0.2815179298602961,-0.3,0.0,1.0,274.0,550.0,1.0,0,456.0,1
211,211,0.42058168203506463,0.4,1.0,1.0,468.0,546.0,1.0,1,846.0,1
212,212,-0.6267310691327806,-0.6,1.0,0.0,388.0,778.0,0.0,0,284.0,1
213,213,-0.09539384192733347,-0.1,0.0,1.0,325.0,698.0,0.0,1,1457.0,0
214,214,0.8974843850285897,0.9,0.0,0.0,400.0,694.0,0.0,1,76.0,1
215,215,0.1602965351102702,0.2,0.0,0.0,437.0,797.0,0.0,1,1016.0,1
216,216,0.3020874070924572,0.3,1.0,1.0,318.0,612.0,0.0,0,490.0,0
217,217,-0.8992526946985189,-0.9,1.0,0.0,473.0,781.0,0.0,0,256.0,1
218,218,0.40735329975290335,0.4,1.0,1.0,380.0,602.0,1.0,1,1068.0,1
219,219,-0.8669459454376867,-0.9,1.0,0.0,422.0,876.0,0.0,0,422.0,1
220,220,0.1685298470357922,0.2,1.0,1.0,435.0,554.0,0.0,0,361.0,0
221,221,-0.02659606745738763,-0.0,0.0,1.0,301.0,860.0,1.0,0,349.0,1
222,222,-0.1586021075692825,-0.2,0.0,1.0,484.0,813.0,1.0,0,373.0,1
223,223,0.8714804333014342,0.9,1.0,1.0,317.0,629.0,1.0,1,514.0,1
224,224,0.07737200643325004,0.1,1.0,1.0,321.0,966.0,0.0,0,53.0,0
225,225,0.8404665560007633,0.8,1.0,1.0,437.0,529.0,1.0,1,524.0,1
226,226,-0.16586675339485624,-0.2,0.0,1.0,382.0,997.0,1.0,0,571.0,1
227,227,-0.5093452406590318,-0.5,0.0,1.0,341.0,528.0,0.0,1,521.0,0
228,228,-0.3035834228389652,-0.3,0.0,1.0,339.0,663.0,0.0,1,298.0,0
229,229,0.5775519459742854,0.6,0.0,0.0,386.0,830.0,0.0,1,124.0,1
230,230,0.4955229939060123,0.5,0.0,0.0,305.0,592.0,0.0,1,473.0,1
231,231,-0.8917450017454982,-0.9,1.0,0.0,369.0,575.0,0.0,0,416.0,1
232,232,-0.30392861938768867,-0.3,1.0,0.0,492.0,525.0,0.0,0,613.0,1
233,233,-0.857531450221821,-0.9,0.0,1.0,452.0,950.0,1.0,0,78.0,1
234,234,-0.6941760719065798,-0.7,1.0,0.0,494.0,571.0,0.0,0,575.0,1
235,235,-0.6727972706060473,-0.7,1.0,0.0,337.0,741.0,0.0,0,402.0,1
236,236,0.871307669294849,0.9,0.0,0.0,476.0,652.0,0.0,1,302.0,1
237,237,0.5088501730273746,0.5,0.0,0.0,258.0,953.0,0.0,1,309.0,1
238,238,-0.33445067275203166,-0.3,1.0,0.0,259.0,837.0,0.0,0,144.0,1
239,239,0.5523391345764684,0.6,1.0,1.0,413.0,791.0,0.0,0,156.0,0
240,240,-0.2842866810293684,-0.3,0.0,1.0,466.0,945.0,1.0,0,199.0,1
241,241,0.450493321047002,0.5,0.0,0.0,371.0,549.0,0.0,1,510.0,1
242,242,-0.5222304461746624,-0.5,1.0,0.0,394.0,725.0,0.0,0,371.0,1
243,243,0.3639584107548527,0.4,0.0,0.0,304.0,532.0,1.0,0,544.0,0
244,244,0.35972610482304235,0.4,0.0,0.0,352.0,999.0,0.0,1,319.0,1
245,245,0.869471254307593,0.9,0.0,0.0,331.0,619.0,0.0,1,420.0,1
246,246,-0.33328963584388294,-0.3,1.0,0.0,457.0,669.0,0.0,0,874.0,1
247,247,0.3590121353305241,0.4,1.0,1.0,433.0,540.0,1.0,1,867.0,1
248,248,-0.21994052938243736,-0.2,1.0,0.0,397.0,711.0,0.0,0,342.0,1
249,249,0.6393072360314577,0.6,0.0,0.0,402.0,995.0,0.0,1,183.0,1
250,250,0.5551470181735795,0.6,0.0,0.0,305.0,981.0,0.0,1,204.0,1
251,251,-0.42178577774662934,-0.4,1.0,0.0,489.0,834.0,0.0,0,377.0,1
252,252,-0.2180262570799426,-0.2,0.0,1.0,273.0,852.0,1.0,0,315.0,1
253,253,0.8929914158286979,0.9,1.0,1.0,422.0,785.0,1.0,1,353.0,1
254,254,0.6910685079436684,0.7,0.0,0.0,260.0,530.0,0.0,1,450.0,1
255,255,0.5627252041912624,0.6,1.0,1.0,254.0,549.0,1.0,1,467.0,1
256,256,-0.5572555934146732,-0.6,1.0,0.0,397.0,706.0,0.0,0,297.0,1
257,257,0.7484199150716192,0.7,0.0,0.0,299.0,965.0,0.0,1,256.0,1
258,258,-0.7318247724757679,-0.7,1.0,0.0,268.0,961.0,0.0,0,211.0,1
259,259,0.8714324545103326,0.9,0.0,0.0,270.0,834.0,0.0,1,356.0,1
260,260,0.057411602633342884,0.1,0.0,0.0,326.0,579.0,0.0,1,1195.0,1
261,261,0.3999540375456264,0.4,1.0,1.0,447.0,653.0,1.0,1,430.0,1
262,262,-0.28937846994606975,-0.3,1.0,0.0,395.0,647.0,0.0,0,1178.0,1
263,263,0.473487142435563,0.5,0.0,0.0,365.0,945.0,0.0,1,160.0,1
264,264,0.07307743966437819,0.1,1.0,1.0,346.0,827.0,0.0,0,637.0,0
265,265,-0.26532045912530455,-0.3,0.0,1.0,430.0,888.0,1.0,0,152.0,1
266,266,0.7402478740441293,0.7,0.0,0.0,286.0,887.0,0.0,1,187.0,1
267,267,0.23827395283232045,0.2,1.0,1.0,281.0,918.0,1.0,1,311.0,1
268,268,-0.723526219690227,-0.7,0.0,1.0,310.0,916.0,1.0,0,174.0,1
269,269,-0.09261777799395488,-0.1,0.0,1.0,466.0,523.0,1.0,0,1161.0,1
270,270,0.26272616960003636,0.3,1.0,1.0,435.0,886.0,1.0,1,559.0,1
271,271,0.09526646565150376,0.1,0.0,0.0,292.0,860.0,0.0,1,328.0,1
272,272,0.29601000974335634,0.3,0.0,0.0,319.0,791.0,0.0,1,160.0,1
273,273,-0.8698595290734035,-0.9,1.0,0.0,483.0,537.0,0.0,0,400.0,1
274,274,-0.7956700795218711,-0.8,0.0,1.0,271.0,689.0,1.0,0,700.0,1
275,275,0.7676706058528552,0.8,1.0,1.0,331.0,933.0,1.0,1,816.0,1
276,276,0.5729154228641246,0.6,1.0,1.0,308.0,903.0,0.0,0,139.0,0
277,277,0.6670323526935907,0.7,0.0,0.0,349.0,790.0,0.0,1,381.0,1
278,278,0.7193231761600553,0.7,1.0,1.0,335.0,552.0,1.0,1,403.0,1
279,279,-0.06567584678361826,-0.1,0.0,1.0,325.0,905.0,1.0,0,10.0,1
280,280,-0.8576537902852365,-0.9,1.0,0.0,337.0,779.0,0.0,0,404.0,1
281,281,0.7023929126418952,0.7,0.0,0.0,458.0,911.0,0.0,1,371.0,1
282,282,0.8059818654054377,0.8,1.0,1.0,355.0,938.0,0.0,0,67.0,0
283,283,0.6819351083864383,0.7,0.0,0.0,342.0,582.0,0.0,1,266.0,1
284,284,0.8329797442784647,0.8,0.0,0.0,320.0,589.0,0.0,1,281.0,1
285,285,0.527873547578572,0.5,1.0,1.0,280.0,674.0,1.0,1,596.0,1
286,286,0.5071030934930795,0.5,0.0,0.0,448.0,523.0,0.0,1,669.0,1
287,287,0.6923934581819798,0.7,1.0,1.0,272.0,637.0,0.0,0,411.0,0
288,288,0.13238588082314207,0.1,1.0,1.0,386.0,502.0,0.0,0,2052.0,0
289,289,-0.48789374286289305,-0.5,1.0,0.0,263.0,726.0,0.0,0,461.0,1
290,290,0.01605406999435499,0.0,0.0,0.0,496.0,808.0,1.0,0,3646.0,0
291,291,-0.8912940398007093,-0.9,0.0,1.0,404.0,937.0,1.0,0,339.0,1
292,292,0.1832448239361869,0.2,1.0,1.0,488.0,995.0,0.0,0,547.0,0
293,293,-0.10459519554115826,-0.1,0.0,1.0,440.0,981.0,1.0,0,1549.0,1
294,294,0.4451578681288869,0.4,1.0,1.0,260.0,721.0,0.0,0,459.0,0
295,295,0.2238821471774678,0.2,1.0,1.0,300.0,588.0,0.0,0,542.0,0
296,296,-0.24494350193766778,-0.2,0.0,1.0,472.0,772.0,1.0,0,1046.0,1
297,297,0.5126186680929478,0.5,1.0,1.0,277.0,754.0,1.0,1,489.0,1
298,298,0.13229120328928567,0.1,0.0,0.0,373.0,798.0,0.0,1,179.0,1
299,299,-0.11041821085699544,-0.1,1.0,0.0,338.0,806.0,1.0,1,396.0,0
300,300,-0.07664916915098074,-0.1,0.0,1.0,258.0,662.0,1.0,0,720.0,1
301,301,-0.7255344605166582,-0.7,0.0,1.0,309.0,903.0,1.0,0,18.0,1
302,302,-0.2398049292244273,-0.2,0.0,1.0,291.0,590.0,0.0,1,669.0,0
303,303,0.2751142792956168,0.3,1.0,1.0,341.0,705.0,1.0,1,254.0,1
304,304,0.45438777070442316,0.5,1.0,1.0,282.0,652.0,1.0,1,606.0,1
305,305,0.8082597270283228,0.8,1.0,1.0,466.0,528.0,1.0,1,426.0,1
306,306,-0.7256626584734098,-0.7,0.0,1.0,422.0,800.0,1.0,0,588.0,1
307,307,0.3147984752105025,0.3,1.0,1.0,261.0,977.0,1.0,1,242.0,1
308,308,0.7681417964539489,0.8,0.0,0.0,486.0,509.0,0.0,1,835.0,1
309,309,-0.1731288507109986,-0.2,1.0,0.0,349.0,584.0,0.0,0,257.0,1
310,310,0.4801024288334691,0.5,0.0,0.0,322.0,891.0,0.0,1,367.0,1
311,311,0.7794377891769612,0.8,1.0,1.0,324.0,797.0,0.0,0,69.0,0
312,312,-0.33420071563826237,-0.3,0.0,1.0,497.0,568.0,1.0,0,465.0,1
313,313,-0.5867866892979157,-0.6,1.0,0.0,332.0,700.0,0.0,0,218.0,1
314,314,0.14664499400544673,0.1,1.0,1.0,345.0,818.0,0.0,0,567.0,0
315,315,0.354366254452425,0.4,1.0,1.0,385.0,885.0,0.0,0,330.0,0
316,316,-0.7400228685416999,-0.7,1.0,0.0,280.0,582.0,0.0,0,548.0,1
317,317,0.5746084079799704,0.6,1.0,1.0,334.0,510.0,1.0,1,456.0,1
318,318,0.11355539885979382,0.1,1.0,1.0,265.0,634.0,0.0,0,1521.0,0
319,319,-0.6829512554483712,-0.7,0.0,1.0,338.0,721.0,1.0,0,281.0,1
320,320,-0.05388386189775829,-0.1,0.0,1.0,304.0,731.0,0.0,1,545.0,0
321,321,0.1209136455506582,0.1,0.0,0.0,453.0,720.0,1.0,0,1337.0,0
322,322,-0.3406603074949015,-0.3,1.0,0.0,471.0,794.0,1.0,1,265.0,0
323,323,0.5017539691383707,0.5,0.0,0.0,318.0,960.0,0.0,1,412.0,1
324,324,-0.25523285749558833,-0.3,1.0,0.0,310.0,643.0,0.0,0,527.0,1
325,325,0.23883970532127263,0.2,1.0,1.0,354.0,874.0,0.0,0,352.0,0
326,326,0.10826784805102896,0.1,0.0,0.0,452.0,932.0,1.0,0,206.0,0
327,327,0.8076917006875707,0.8,1.0,1.0,455.0,561.0,1.0,1,454.0,1
328,328,0.8670378794527592,0.9,1.0,1.0,318.0,989.0,1.0,1,593.0,1
329,329,0.8830163798291314,0.9,1.0,1.0,417.0,927.0,1.0,1,386.0,1
330,330,-0.6505100738803216,-0.7,0.0,1.0,308.0,615.0,1.0,0,777.0,1
331,331,0.3444240457503155,0.3,1.0,1.0,310.0,791.0,1.0,1,599.0,1
332,332,0.3281299995545487,0.3,1.0,1.0,279.0,562.0,0.0,0,2329.0,0
333,333,0.1662260130773291,0.2,0.0,0.0,469.0,785.0,0.0,1,666.0,1
334,334,-0.5681443451227848,-0.6,1.0,0.0,356.0,510.0,0.0,0,714.0,1
335,335,-0.640503649173034,-0.6,0.0,1.0,425.0,686.0,1.0,0,539.0,1
336,336,0.2600764659735867,0.3,1.0,1.0,439.0,621.0,0.0,0,1070.0,0
337,337,0.6656360336277977,0.7,1.0,1.0,256.0,861.0,1.0,1,313.0,1
338,338,0.20232627908314982,0.2,0.0,0.0,445.0,786.0,1.0,0,169.0,0
339,339,-0.6916199980476625,-0.7,0.0,1.0,477.0,749.0,1.0,0,494.0,1
340,340,-0.5667445087432632,-0.6,1.0,0.0,359.0,728.0,0.0,0,383.0,1
341,341,-0.8777906488943237,-0.9,1.0,0.0,479.0,841.0,0.0,0,410.0,1
342,342,0.7472007695779207,0.7,0.0,0.0,399.0,603.0,0.0,1,598.0,1
343,343,0.3988561503359048,0.4,0.0,0.0,352.0,891.0,0.0,1,107.0,1
344,344,-0.2779732074485932,-0.3,1.0,0.0,276.0,832.0,0.0,0,622.0,1
345,345,-0.6929656559277315,-0.7,0.0,1.0,349.0,727.0,1.0,0,664.0,1
346,346,-0.649093419169571,-0.6,0.0,1.0,454.0,826.0,0.0,1,180.0,0
347,347,-0.42233089863060214,-0.4,1.0,0.0,292.0,878.0,0.0,0,200.0,1
348,348,0.502645006232071,0.5,0.0,0.0,266.0,677.0,0.0,1,387.0,1
349,349,-0.4697640265205933,-0.5,0.0,1.0,373.0,635.0,1.0,0,562.0,1
350,350,0.4830331084460989,0.5,0.0,0.0,324.0,572.0,0.0,1,574.0,1
351,351,0.7517753893139464,0.8,1.0,1.0,404.0,653.0,1.0,1,333.0,1
352,352,0.2177912858059986,0.2,1.0,1.0,299.0,580.0,0.0,0,441.0,0
353,353,0.4993434543053935,0.5,0.0,0.0,484.0,930.0,0.0,1,126.0,1
354,354,0.3108076993454171,0.3,0.0,0.0,345.0,564.0,0.0,1,491.0,1
355,355,-0.31412590740108526,-0.3,1.0,0.0,476.0,765.0,0.0,0,279.0,1
356,356,0.5557325643741319,0.6,1.0,1.0,327.0,595.0,1.0,1,1238.0,1
357,357,-0.5941176268714752,-0.6,1.0,0.0,351.0,705.0,0.0,0,234.0,1
358,358,-0.2032448915328151,-0.2,0.0,1.0,476.0,876.0,1.0,0,-102.0,1
359,359,-0.04889263617238537,-0.0,1.0,0.0,358.0,866.0,0.0,0,226.0,1
360,360,-0.40383616086176605,-0.4,1.0,0.0,258.0,756.0,0.0,0,506.0,1
361,361,-0.7960173914755401,-0.8,1.0,0.0,341.0,793.0,0.0,0,126.0,1
362,362,-0.6709405704432072,-0.7,0.0,1.0,412.0,976.0,1.0,0,252.0,1
363,363,0.44880769597631354,0.4,0.0,0.0,359.0,976.0,0.0,1,-195.0,1
364,364,0.27424576343738083,0.3,1.0,1.0,359.0,661.0,1.0,1,970.0,1
365,365,-0.7902887154423075,-0.8,0.0,1.0,470.0,663.0,1.0,0,387.0,1
366,366,0.8994293428371877,0.9,0.0,0.0,384.0,807.0,0.0,1,389.0,1
367,367,-0.19179984342483614,-0.2,0.0,1.0,347.0,965.0,0.0,1,58.0,0
368,368,-0.26804374402142306,-0.3,1.0,0.0,388.0,630.0,0.0,0,602.0,1
369,369,-0.8911541714277647,-0.9,0.0,1.0,375.0,961.0,1.0,0,134.0,1
370,370,0.3781369265919562,0.4,0.0,0.0,257.0,950.0,0.0,1,1133.0,1
371,371,0.8676671938236723,0.9,0.0,0.0,440.0,586.0,0.0,1,434.0,1
372,372,-0.25967270570872836,-0.3,0.0,1.0,341.0,964.0,0.0,1,215.0,0
373,373,0.05348619797548326,0.1,1.0,1.0,287.0,662.0,0.0,0,521.0,0
374,374,-0.3298669312792615,-0.3,0.0,1.0,479.0,936.0,1.0,0,325.0,1
375,375,-0.6711564108683518,-0.7,1.0,0.0,379.0,673.0,0.0,0,288.0,1
376,376,-0.1242269941811105,-0.1,1.0,0.0,290.0,709.0,0.0,0,271.0,1
377,377,-0.39861477134294243,-0.4,1.0,0.0,479.0,645.0,0.0,0,606.0,1
378,378,-0.8800091514156377,-0.9,1.0,0.0,317.0,829.0,0.0,0,354.0,1
379,379,0.0820657772811183,0.1,0.0,0.0,301.0,607.0,1.0,0,672.0,0
380,380,0.34497306398754646,0.3,1.0,1.0,408.0,721.0,1.0,1,521.0,1
381,381,0.4350947290252888,0.4,1.0,1.0,466.0,730.0,1.0,1,764.0,1
382,382,-0.6344175670665422,-0.6,0.0,1.0,356.0,773.0,1.0,0,521.0,1
383,383,-0.5831489331876218,-0.6,0.0,1.0,474.0,986.0,1.0,0,160.0,1
384,384,-0.0739306668590719,-0.1,0.0,1.0,353.0,913.0,0.0,1,264.0,0
385,385,0.08404883416406528,0.1,0.0,0.0,253.0,991.0,0.0,1,786.0,1
386,386,-0.022637906097721316,-0.0,1.0,0.0,431.0,599.0,1.0,1,600.0,0
387,387,0.799797592003119,0.8,1.0,1.0,262.0,784.0,1.0,1,474.0,1
388,388,-0.7317439193903841,-0.7,0.0,1.0,294.0,978.0,1.0,0,-12.0,1
389,389,0.8963847435240339,0.9,1.0,1.0,478.0,979.0,1.0,1,613.0,1
390,390,-0.0035626454918019634,-0.0,1.0,0.0,318.0,617.0,1.0,1,415.0,0
391,391,-0.6024603683575509,-0.6,0.0,1.0,304.0,997.0,1.0,0,739.0,1
392,392,0.760463388690786,0.8,0.0,0.0,328.0,679.0,0.0,1,223.0,1
393,393,-0.22552740033083896,-0.2,0.0,1.0,488.0,746.0,1.0,0,446.0,1
394,394,0.65879418638757,0.7,1.0,1.0,434.0,903.0,1.0,1,543.0,1
395,395,-0.6206857950941007,-0.6,0.0,1.0,412.0,806.0,1.0,0,542.0,1
396,396,0.3198331821298842,0.3,0.0,0.0,476.0,699.0,0.0,1,275.0,1
397,397,0.6711366153484261,0.7,0.0,0.0,398.0,842.0,0.0,1,600.0,1
398,398,-0.08892621617931185,-0.1,1.0,0.0,440.0,846.0,0.0,0,274.0,1
399,399,0.4217382529697312,0.4,1.0,1.0,398.0,809.0,0.0,0,843.0,0
400,400,-0.868916411595187,-0.9,0.0,1.0,377.0,972.0,0.0,1,51.0,0
401,401,-0.5776369041761549,-0.6,0.0,1.0,492.0,776.0,1.0,0,442.0,1
402,402,-0.38604166573473264,-0.4,1.0,0.0,381.0,596.0,0.0,0,663.0,1
403,403,-0.4191676098433205,-0.4,0.0,1.0,442.0,764.0,1.0,0,314.0,1
404,404,0.8981882788108478,0.9,0.0,0.0,338.0,696.0,0.0,1,266.0,1
405,405,0.407871030382437,0.4,0.0,0.0,339.0,676.0,0.0,1,835.0,1
406,406,-0.8697006866649675,-0.9,1.0,0.0,382.0,932.0,0.0,0,526.0,1
407,407,0.3563733735765763,0.4,1.0,1.0,475.0,560.0,1.0,1,2015.0,1
408,408,0.6826180764211359,0.7,1.0,1.0,294.0,971.0,1.0,1,435.0,1
409,409,-0.6789798171938157,-0.7,0.0,1.0,282.0,852.0,1.0,0,126.0,1
410,410,0.6463017445116727,0.6,0.0,0.0,468.0,660.0,0.0,1,182.0,1
411,411,-0.4388180095989733,-0.4,1.0,0.0,374.0,972.0,0.0,0,134.0,1
412,412,-0.07455030028099363,-0.1,0.0,1.0,476.0,878.0,0.0,1,26.0,0
413,413,-0.4273765833622248,-0.4,0.0,1.0,258.0,763.0,1.0,0,569.0,1
414,414,0.7568441024283058,0.8,1.0,1.0,326.0,841.0,1.0,1,153.0,1
415,415,-0.7533418376969605,-0.8,0.0,1.0,322.0,800.0,1.0,0,418.0,1
416,416,0.13934116492175141,0.1,0.0,0.0,450.0,914.0,0.0,1,6.0,1
417,417,0.08665824884019724,0.1,0.0,0.0,294.0,834.0,0.0,1,202.0,1
418,418,-0.45416105089620273,-0.5,0.0,1.0,279.0,780.0,1.0,0,391.0,1
419,419,-0.16053208440694733,-0.2,1.0,0.0,271.0,907.0,1.0,1,462.0,0
420,420,-0.7572689493874347,-0.8,1.0,0.0,430.0,754.0,0.0,0,556.0,1
421,421,-0.5541310921291273,-0.6,1.0,0.0,347.0,801.0,0.0,0,162.0,1
422,422,0.29040357986735754,0.3,0.0,0.0,252.0,556.0,0.0,1,732.0,1
423,423,-0.14122838224078793,-0.1,0.0,1.0,312.0,671.0,1.0,0,787.0,1
424,424,0.3699187243115677,0.4,1.0,1.0,288.0,895.0,0.0,0,117.0,0
425,425,0.08181073742372025,0.1,0.0,0.0,390.0,850.0,0.0,1,150.0,1
426,426,-0.8708373603653735,-0.9,1.0,0.0,382.0,894.0,0.0,0,164.0,1
427,427,-0.12103416405486345,-0.1,0.0,1.0,472.0,654.0,1.0,0,394.0,1
428,428,-0.6793995308779707,-0.7,1.0,0.0,473.0,721.0,0.0,0,486.0,1
429,429,-0.10688306961989802,-0.1,1.0,0.0,423.0,691.0,0.0,0,586.0,1
430,430,-0.744441786454025,-0.7,1.0,0.0,443.0,997.0,0.0,0,140.0,1
431,431,0.35661425028036386,0.4,1.0,1.0,309.0,532.0,1.0,1,1099.0,1
432,432,-0.530773695105925,-0.5,1.0,0.0,300.0,724.0,0.0,0,396.0,1
433,433,-0.6170026201258586,-0.6,1.0,0.0,468.0,766.0,0.0,0,146.0,1
434,434,-0.6841302091813324,-0.7,0.0,1.0,309.0,886.0,1.0,0,-95.0,1
435,435,-0.3571200536045087,-0.4,1.0,0.0,381.0,890.0,0.0,0,239.0,1
436,436,-0.39159095473021155,-0.4,0.0,1.0,343.0,804.0,1.0,0,573.0,1
437,437,0.8263544112443714,0.8,0.0,0.0,324.0,822.0,0.0,1,34.0,1
438,438,-0.7286205056369682,-0.7,1.0,0.0,438.0,623.0,0.0,0,409.0,1
439,439,0.2238345292379983,0.2,0.0,0.0,335.0,672.0,0.0,1,923.0,1
440,440,0.23568058646480672,0.2,1.0,1.0,337.0,865.0,0.0,0,278.0,0
441,441,-0.13307124459476316,-0.1,0.0,1.0,297.0,567.0,0.0,1,436.0,0
442,442,-0.6478141262145098,-0.6,1.0,0.0,479.0,977.0,0.0,0,64.0,1
443,443,0.45858614118638574,0.5,1.0,1.0,325.0,716.0,1.0,1,599.0,1
444,444,0.6402863599755751,0.6,0.0,0.0,296.0,537.0,0.0,1,587.0,1
445,445,-0.41493699295490544,-0.4,0.0,1.0,377.0,949.0,0.0,1,24.0,0
446,446,0.2219505858819003,0.2,1.0,1.0,258.0,932.0,1.0,1,1030.0,1
447,447,0.05500533770738425,0.1,0.0,0.0,267.0,516.0,1.0,0,617.0,0
448,448,-0.2839024815957175,-0.3,0.0,1.0,461.0,942.0,0.0,1,57.0,0
449,449,-0.1918285278115821,-0.2,1.0,0.0,324.0,712.0,0.0,0,364.0,1
450,450,-0.6652963536149931,-0.7,1.0,0.0,271.0,781.0,0.0,0,508.0,1
451,451,-0.15706604937822588,-0.2,1.0,0.0,433.0,552.0,0.0,0,625.0,1
452,452,-0.07465237568307448,-0.1,0.0,1.0,290.0,892.0,0.0,1,358.0,0
453,453,0.7713218194921522,0.8,1.0,1.0,396.0,607.0,1.0,1,707.0,1
454,454,0.8277726969275402,0.8,1.0,1.0,414.0,968.0,1.0,1,128.0,1
455,455,0.8912717990768112,0.9,1.0,1.0,268.0,635.0,1.0,1,387.0,1
456,456,-0.3578899741770557,-0.4,1.0,0.0,384.0,562.0,0.0,0,614.0,1
457,457,0.41079682760471414,0.4,1.0,1.0,418.0,970.0,1.0,1,92.0,1
458,458,-0.839470972069873,-0.8,1.0,0.0,377.0,632.0,0.0,0,331.0,1
459,459,0.6350150707531502,0.6,0.0,0.0,448.0,594.0,0.0,1,448.0,1
460,460,0.1913711326523836,0.2,0.0,0.0,359.0,592.0,0.0,1,459.0,1
461,461,0.7968062703433133,0.8,1.0,1.0,304.0,608.0,1.0,1,558.0,1
462,462,0.7788698794392034,0.8,0.0,0.0,290.0,818.0,0.0,1,292.0,1
463,463,0.38248006368747023,0.4,0.0,0.0,445.0,613.0,0.0,1,282.0,1
464,464,0.578505824353943,0.6,0.0,0.0,367.0,699.0,0.0,1,424.0,1
465,465,-0.7772855887334749,-0.8,0.0,1.0,305.0,891.0,1.0,0,404.0,1
466,466,0.7099637344054103,0.7,1.0,1.0,413.0,968.0,1.0,1,659.0,1
467,467,0.1987005630385804,0.2,0.0,0.0,337.0,921.0,0.0,1,-8.0,1
468,468,-0.37052366720286845,-0.4,1.0,0.0,493.0,761.0,0.0,0,416.0,1
469,469,-0.11857892005130277,-0.1,1.0,0.0,384.0,795.0,0.0,0,1181.0,1
470,470,0.3948676409238815,0.4,1.0,1.0,302.0,927.0,0.0,0,71.0,0
471,471,-0.814852400571393,-0.8,0.0,1.0,292.0,908.0,1.0,0,300.0,1
472,472,-0.3057896758360128,-0.3,0.0,1.0,490.0,911.0,1.0,0,349.0,1
473,473,-0.6353321569129098,-0.6,0.0,1.0,466.0,787.0,1.0,0,347.0,1
474,474,-0.7838559945666016,-0.8,0.0,1.0,314.0,695.0,1.0,0,641.0,1
475,475,0.1315197826079414,0.1,0.0,0.0,291.0,735.0,0.0,1,334.0,1
476,476,-0.06357885327041912,-0.1,0.0,1.0,342.0,794.0,1.0,0,654.0,1
477,477,0.03143897916673766,0.0,1.0,1.0,334.0,629.0,1.0,1,1457.0,1
478,478,-0.3495919079112221,-0.3,1.0,0.0,368.0,895.0,0.0,0,467.0,1
479,479,0.2217193582803595,0.2,0.0,0.0,489.0,589.0,0.0,1,632.0,1
480,480,-0.2824613393395957,-0.3,1.0,0.0,420.0,824.0,0.0,0,186.0,1
481,481,0.7737377252776646,0.8,0.0,0.0,281.0,757.0,0.0,1,112.0,1
482,482,0.734554637021204,0.7,0.0,0.0,327.0,892.0,0.0,1,401.0,1
483,483,0.7390959157795732,0.7,1.0,1.0,259.0,798.0,1.0,1,363.0,1
484,484,0.008575449497701837,0.0,0.0,0.0,291.0,589.0,1.0,0,640.0,0
485,485,-0.6040198497844886,-0.6,0.0,1.0,295.0,932.0,0.0,1,443.0,0
486,486,0.5948654583369312,0.6,0.0,0.0,326.0,616.0,0.0,1,348.0,1
487,487,-0.22926588657679858,-0.2,1.0,0.0,415.0,857.0,0.0,0,1158.0,1
488,488,0.38755020974351273,0.4,0.0,0.0,492.0,530.0,0.0,1,458.0,1
489,489,-0.23007263660960164,-0.2,1.0,0.0,430.0,865.0,0.0,0,245.0,1
490,490,0.569133655282062,0.6,0.0,0.0,438.0,958.0,0.0,1,144.0,1
491,491,0.22298572683326057,0.2,0.0,0.0,346.0,697.0,0.0,1,267.0,1
492,492,-0.7191577567328359,-0.7,1.0,0.0,484.0,839.0,0.0,0,207.0,1
493,493,-0.5251772477088745,-0.5,0.0,1.0,492.0,982.0,1.0,0,76.0,1
494,494,-0.14487043055493398,-0.1,0.0,1.0,392.0,937.0,0.0,1,121.0,0
495,495,0.5429058804969945,0.5,0.0,0.0,358.0,652.0,0.0,1,630.0,1
496,496,0.23023369837102325,0.2,0.0,0.0,403.0,648.0,0.0,1,419.0,1
497,497,-0.6459239341558534,-0.6,1.0,0.0,377.0,658.0,0.0,0,485.0,1
498,498,-0.7482780504587958,-0.7,0.0,1.0,381.0,885.0,1.0,0,544.0,1
499,499,-0.4493726912545139,-0.4,0.0,1.0,325.0,814.0,1.0,0,11.0,1
500,500,0.8533841115200692,0.9,1.0,1.0,386.0,720.0,1.0,1,914.0,1
501,501,-0.8956141736589864,-0.9,0.0,1.0,378.0,848.0,1.0,0,144.0,1
502,502,0.7140160592464438,0.7,1.0,1.0,368.0,587.0,1.0,1,445.0,1
503,503,0.6774912635925235,0.7,0.0,0.0,420.0,535.0,0.0,1,515.0,1
504,504,0.4795421227684037,0.5,1.0,1.0,297.0,706.0,1.0,1,777.0,1
505,505,-0.8366653391233072,-0.8,0.0,1.0,425.0,992.0,1.0,0,183.0,1
506,506,-0.557692218223895,-0.6,0.0,1.0,452.0,742.0,1.0,0,736.0,1
507,507,-0.2509184592458017,-0.3,1.0,0.0,398.0,848.0,1.0,1,284.0,0
508,508,0.10148763843223796,0.1,1.0,1.0,271.0,743.0,1.0,1,636.0,1
509,509,0.08795556011117256,0.1,1.0,1.0,272.0,515.0,0.0,0,1113.0,0
510,510,-0.29690566072434066,-0.3,0.0,1.0,296.0,724.0,0.0,1,430.0,0
511,511,0.2625396483863426,0.3,1.0,1.0,380.0,789.0,0.0,0,691.0,0
512,512,-0.6040396845715714,-0.6,0.0,1.0,431.0,899.0,0.0,1,-30.0,0
513,513,0.7993072253545556,0.8,1.0,1.0,267.0,982.0,1.0,1,381.0,1
514,514,-0.40349663084063986,-0.4,0.0,1.0,392.0,664.0,1.0,0,494.0,1
515,515,-0.11731213631181203,-0.1,0.0,1.0,315.0,620.0,0.0,1,685.0,0
516,516,0.556239495506348,0.6,1.0,1.0,303.0,828.0,0.0,0,449.0,0
517,517,-0.2214060530201175,-0.2,0.0,1.0,411.0,753.0,0.0,1,986.0,0
518,518,-0.6054821811319421,-0.6,1.0,0.0,379.0,566.0,0.0,0,335.0,1
519,519,-0.8575922343118105,-0.9,1.0,0.0,280.0,737.0,0.0,0,113.0,1
520,520,0.8805036122179112,0.9,1.0,1.0,414.0,842.0,1.0,1,414.0,1
521,521,0.7240699896541088,0.7,1.0,1.0,279.0,526.0,1.0,1,355.0,1
522,522,0.29298410728768964,0.3,0.0,0.0,267.0,699.0,0.0,1,354.0,1
523,523,0.20085936551692918,0.2,0.0,0.0,342.0,996.0,0.0,1,82.0,1
524,524,-0.1505638187577546,-0.2,0.0,1.0,276.0,827.0,0.0,1,147.0,0
525,525,-0.09236591103535596,-0.1,1.0,0.0,319.0,987.0,0.0,0,734.0,1
526,526,-0.5507306238058538,-0.6,0.0,1.0,397.0,861.0,1.0,0,402.0,1
527,527,0.5327378252351974,0.5,0.0,0.0,459.0,690.0,0.0,1,431.0,1
528,528,-0.6425425409854622,-0.6,0.0,1.0,339.0,859.0,1.0,0,362.0,1
529,529,0.1289790354681163,0.1,1.0,1.0,463.0,974.0,0.0,0,-97.0,0
530,530,-0.3903805025909022,-0.4,1.0,0.0,316.0,915.0,0.0,0,219.0,1
531,531,0.5660580620701549,0.6,1.0,1.0,489.0,990.0,0.0,0,31.0,0
532,532,0.3833450311691141,0.4,1.0,1.0,451.0,792.0,0.0,0,177.0,0
533,533,0.39594993663203326,0.4,1.0,1.0,250.0,670.0,1.0,1,1150.0,1
534,534,-0.1359145269497989,-0.1,0.0,1.0,374.0,838.0,1.0,0,708.0,1
535,535,0.1395531176198609,0.1,1.0,1.0,294.0,846.0,1.0,1,1030.0,1
536,536,0.6519340461928519,0.7,1.0,1.0,256.0,764.0,1.0,1,410.0,1
537,537,-0.6219313532576054,-0.6,1.0,0.0,393.0,655.0,0.0,0,382.0,1
538,538,0.3618128769904233,0.4,0.0,0.0,419.0,719.0,0.0,1,122.0,1
539,539,0.1855831645596292,0.2,0.0,0.0,452.0,725.0,0.0,1,1663.0,1
540,540,-0.7913028095558156,-0.8,1.0,0.0,367.0,628.0,0.0,0,575.0,1
541,541,-0.09210551018563806,-0.1,0.0,1.0,255.0,985.0,0.0,1,-90.0,0
542,542,-0.34664500111720253,-0.3,1.0,0.0,444.0,569.0,0.0,0,687.0,1
543,543,0.07275921806991992,0.1,0.0,0.0,403.0,768.0,0.0,1,469.0,1
544,544,0.7076370064540337,0.7,0.0,0.0,415.0,611.0,0.0,1,234.0,1
545,545,-0.07230449005306183,-0.1,0.0,1.0,336.0,921.0,1.0,0,803.0,1
546,546,0.06338347535994437,0.1,1.0,1.0,286.0,929.0,1.0,1,1945.0,1
547,547,-0.01111767950927478,-0.0,1.0,0.0,278.0,721.0,1.0,1,1451.0,0
548,548,0.4139816590541586,0.4,1.0,1.0,337.0,966.0,1.0,1,-73.0,1
549,549,0.8457433862509706,0.8,0.0,0.0,365.0,516.0,0.0,1,369.0,1
550,550,-0.16321775875364786,-0.2,1.0,0.0,318.0,989.0,0.0,0,293.0,1
551,551,-0.7988728471473299,-0.8,1.0,0.0,441.0,953.0,0.0,0,396.0,1
552,552,0.5112746375188163,0.5,1.0,1.0,288.0,529.0,1.0,1,613.0,1
553,553,-0.4600325601276203,-0.5,1.0,0.0,395.0,867.0,0.0,0,48.0,1
554,554,0.8319457596992271,0.8,0.0,0.0,292.0,513.0,0.0,1,595.0,1
555,555,-0.32930157589297493,-0.3,0.0,1.0,289.0,990.0,1.0,0,631.0,1
556,556,-0.8704730448165897,-0.9,1.0,0.0,380.0,740.0,0.0,0,400.0,1
557,557,0.8307539707294006,0.8,0.0,0.0,341.0,768.0,0.0,1,341.0,1
558,558,0.8613123864035387,0.9,0.0,0.0,486.0,885.0,0.0,1,109.0,1
559,559,0.8991042026139343,0.9,1.0,1.0,276.0,594.0,1.0,1,290.0,1
560,560,-0.37275942194064837,-0.4,1.0,0.0,449.0,700.0,0.0,0,601.0,1
561,561,-0.1636492964321118,-0.2,0.0,1.0,251.0,860.0,1.0,0,1129.0,1
562,562,-0.7205455555280508,-0.7,0.0,1.0,297.0,578.0,1.0,0,435.0,1
563,563,-0.29929743340693826,-0.3,1.0,0.0,360.0,826.0,0.0,0,394.0,1
564,564,0.5064061473372633,0.5,0.0,0.0,482.0,872.0,0.0,1,336.0,1
565,565,0.694595628073082,0.7,0.0,0.0,498.0,856.0,0.0,1,436.0,1
566,566,-0.11943679508976013,-0.1,1.0,0.0,261.0,634.0,0.0,0,575.0,1
567,567,-0.8037935234423109,-0.8,0.0,1.0,426.0,637.0,1.0,0,207.0,1
568,568,0.825352139001838,0.8,0.0,0.0,303.0,872.0,0.0,1,-35.0,1
569,569,0.5107160845429494,0.5,1.0,1.0,475.0,780.0,1.0,1,245.0,1
570,570,0.6924944324602128,0.7,1.0,1.0,436.0,676.0,1.0,1,408.0,1
571,571,-0.7403937417651493,-0.7,1.0,0.0,340.0,927.0,0.0,0,373.0,1
572,572,-0.7189922354011484,-0.7,0.0,1.0,311.0,583.0,1.0,0,646.0,1
573,573,0.3888262440544873,0.4,0.0,0.0,401.0,881.0,0.0,1,908.0,1
574,574,-0.1502764079617135,-0.2,1.0,0.0,281.0,874.0,0.0,0,445.0,1
575,575,-0.5528983061286303,-0.6,1.0,0.0,493.0,889.0,0.0,0,678.0,1
576,576,-0.49082379261572334,-0.5,0.0,1.0,445.0,622.0,1.0,0,723.0,1
577,577,0.6849577526371465,0.7,0.0,0.0,427.0,914.0,0.0,1,59.0,1
578,578,-0.8729223116525683,-0.9,1.0,0.0,312.0,953.0,0.0,0,-155.0,1
579,579,-0.8814079478968757,-0.9,1.0,0.0,492.0,982.0,0.0,0,166.0,1
580,580,0.8977881650731424,0.9,0.0,0.0,306.0,666.0,0.0,1,248.0,1
581,581,-0.8494441739627322,-0.8,0.0,1.0,457.0,787.0,1.0,0,476.0,1
582,582,-0.11565004072764107,-0.1,0.0,1.0,476.0,642.0,0.0,1,712.0,0
583,583,0.268018658910291,0.3,1.0,1.0,461.0,878.0,0.0,0,551.0,0
584,584,0.6626644642517351,0.7,1.0,1.0,479.0,973.0,1.0,1,728.0,1
585,585,-0.13914014522734597,-0.1,1.0,0.0,431.0,973.0,0.0,0,136.0,1
586,586,-0.42798805195901196,-0.4,1.0,0.0,454.0,940.0,1.0,1,-24.0,0
587,587,-0.03905462467751175,-0.0,0.0,1.0,468.0,750.0,1.0,0,112.0,1
588,588,0.2749857077701473,0.3,0.0,0.0,351.0,811.0,0.0,1,888.0,1
589,589,-0.7368305327586412,-0.7,0.0,1.0,306.0,629.0,1.0,0,315.0,1
590,590,-0.48396019480627456,-0.5,1.0,0.0,332.0,807.0,0.0,0,81.0,1
591,591,-0.7787270034890516,-0.8,0.0,1.0,368.0,545.0,1.0,0,277.0,1
592,592,0.40199999998325586,0.4,0.0,0.0,274.0,875.0,0.0,1,211.0,1
593,593,-0.5791176149622209,-0.6,0.0,1.0,252.0,881.0,1.0,0,287.0,1
594,594,-0.7221358672845726,-0.7,0.0,1.0,491.0,907.0,1.0,0,762.0,1
595,595,0.322086915086644,0.3,0.0,0.0,358.0,876.0,0.0,1,266.0,1
596,596,-0.7576768199768109,-0.8,0.0,1.0,400.0,641.0,1.0,0,589.0,1
597,597,0.6586963709356798,0.7,0.0,0.0,286.0,793.0,0.0,1,161.0,1
598,598,-0.19769975695826525,-0.2,0.0,1.0,267.0,686.0,1.0,0,717.0,1
599,599,-0.48601133130847235,-0.5,1.0,0.0,265.0,829.0,0.0,0,216.0,1
600,600,0.4077410662825781,0.4,0.0,0.0,484.0,738.0,0.0,1,218.0,1
601,601,0.29185651416808456,0.3,0.0,0.0,367.0,614.0,0.0,1,199.0,1
602,602,0.8175159290241137,0.8,1.0,1.0,392.0,899.0,1.0,1,259.0,1
603,603,0.8578582594863119,0.9,1.0,1.0,430.0,954.0,1.0,1,446.0,1
604,604,0.39055111046510416,0.4,0.0,0.0,323.0,688.0,0.0,1,329.0,1
605,605,-0.29639233839430823,-0.3,0.0,1.0,409.0,618.0,0.0,1,423.0,0
606,606,0.5400169791360226,0.5,0.0,0.0,425.0,595.0,0.0,1,420.0,1
607,607,0.28716466801816354,0.3,1.0,1.0,292.0,511.0,1.0,1,1027.0,1
608,608,-0.5559444927194683,-0.6,0.0,1.0,391.0,973.0,1.0,0,236.0,1
609,609,-0.5529595054416787,-0.6,0.0,1.0,253.0,990.0,1.0,0,127.0,1
610,610,0.029325849708624174,0.0,0.0,0.0,291.0,915.0,1.0,0,1284.0,0
611,611,0.026712831096513345,0.0,0.0,0.0,416.0,525.0,0.0,1,719.0,1
612,612,-0.21996456558929556,-0.2,0.0,1.0,277.0,603.0,1.0,0,1360.0,1
613,613,0.35777373352685216,0.4,0.0,0.0,315.0,643.0,0.0,1,462.0,1
614,614,-0.8843862615661117,-0.9,0.0,1.0,418.0,558.0,1.0,0,364.0,1
615,615,-0.11936208658113845,-0.1,1.0,0.0,359.0,863.0,0.0,0,468.0,1
616,616,0.381395334272821,0.4,0.0,0.0,282.0,737.0,0.0,1,231.0,1
617,617,0.4963600776728073,0.5,1.0,1.0,259.0,545.0,0.0,0,1276.0,0
618,618,-0.006337450857707094,-0.0,1.0,0.0,430.0,946.0,0.0,0,74.0,1
619,619,0.37230665614416625,0.4,0.0,0.0,274.0,539.0,0.0,1,797.0,1
620,620,0.493521394675451,0.5,0.0,0.0,257.0,697.0,0.0,1,326.0,1
621,621,0.3595408162303487,0.4,0.0,0.0,309.0,517.0,0.0,1,474.0,1
622,622,-0.793792388539826,-0.8,0.0,1.0,442.0,690.0,1.0,0,368.0,1
623,623,0.16927225363678444,0.2,0.0,0.0,496.0,532.0,0.0,1,862.0,1
624,624,-0.8413578921951345,-0.8,0.0,1.0,451.0,715.0,1.0,0,264.0,1
625,625,0.2940253347392846,0.3,1.0,1.0,300.0,908.0,0.0,0,272.0,0
626,626,0.4953692438730969,0.5,1.0,1.0,306.0,502.0,1.0,1,712.0,1
627,627,0.6587373231723209,0.7,0.0,0.0,379.0,642.0,0.0,1,339.0,1
628,628,-0.002467387532136933,-0.0,0.0,1.0,267.0,968.0,0.0,1,-155.0,0
629,629,0.5474623844405985,0.5,1.0,1.0,383.0,979.0,1.0,1,208.0,1
630,630,0.7511012927138406,0.8,0.0,0.0,313.0,881.0,0.0,1,696.0,1
631,631,-0.8399155437235218,-0.8,0.0,1.0,444.0,714.0,1.0,0,712.0,1
632,632,0.22465058499579083,0.2,0.0,0.0,270.0,930.0,0.0,1,370.0,1
633,633,-0.29403620838189914,-0.3,1.0,0.0,358.0,617.0,0.0,0,355.0,1
634,634,0.1983100170287796,0.2,1.0,1.0,488.0,723.0,0.0,0,579.0,0
635,635,0.3798707630829504,0.4,1.0,1.0,263.0,516.0,0.0,0,581.0,0
636,636,0.20836517147575384,0.2,1.0,1.0,332.0,684.0,0.0,0,534.0,0
637,637,-0.05780126114451756,-0.1,1.0,0.0,451.0,811.0,0.0,0,378.0,1
638,638,0.864219359023023,0.9,0.0,0.0,461.0,892.0,0.0,1,57.0,1
639,639,0.8406930186173581,0.8,0.0,0.0,377.0,646.0,0.0,1,457.0,1
640,640,-0.2606179976231019,-0.3,0.0,1.0,493.0,627.0,0.0,1,480.0,0
641,641,-0.6041027277117839,-0.6,0.0,1.0,318.0,870.0,0.0,1,282.0,0
642,642,-0.7887389300235461,-0.8,1.0,0.0,330.0,647.0,0.0,0,363.0,1
643,643,-0.385075138354251,-0.4,0.0,1.0,418.0,739.0,1.0,0,1133.0,1
644,644,0.3798994328671549,0.4,1.0,1.0,321.0,996.0,0.0,0,233.0,0
645,645,0.5322854528634758,0.5,1.0,1.0,318.0,864.0,1.0,1,228.0,1
646,646,-0.07194647018704836,-0.1,0.0,1.0,423.0,622.0,0.0,1,295.0,0
647,647,0.39250996633303104,0.4,0.0,0.0,276.0,565.0,0.0,1,279.0,1
648,648,0.6279693758881894,0.6,0.0,0.0,437.0,982.0,0.0,1,21.0,1
649,649,-0.7777529767194712,-0.8,1.0,0.0,268.0,905.0,0.0,0,287.0,1
650,650,0.8690422161864829,0.9,0.0,0.0,479.0,789.0,0.0,1,192.0,1
651,651,-0.509633237083748,-0.5,0.0,1.0,403.0,566.0,1.0,0,391.0,1
652,652,-0.6567991350552292,-0.7,0.0,1.0,311.0,626.0,1.0,0,1213.0,1
653,653,-0.39758743729007073,-0.4,0.0,1.0,403.0,592.0,1.0,0,1005.0,1
654,654,-0.07611602756541158,-0.1,0.0,1.0,317.0,720.0,0.0,1,263.0,0
655,655,0.11348770332660385,0.1,0.0,0.0,406.0,512.0,0.0,1,522.0,1
656,656,-0.8579197680180655,-0.9,0.0,1.0,437.0,619.0,1.0,0,584.0,1
657,657,-0.6026673291475731,-0.6,1.0,0.0,352.0,536.0,0.0,0,302.0,1
658,658,0.21069261271804052,0.2,0.0,0.0,291.0,997.0,0.0,1,-48.0,1
659,659,0.6177047470765836,0.6,0.0,0.0,281.0,895.0,0.0,1,234.0,1
660,660,-0.17242952144031343,-0.2,0.0,1.0,401.0,748.0,1.0,0,671.0,1
661,661,0.1971282004256335,0.2,1.0,1.0,375.0,514.0,0.0,0,541.0,0
662,662,0.8058011158037118,0.8,1.0,1.0,475.0,830.0,1.0,1,345.0,1
663,663,0.6037263122523931,0.6,1.0,1.0,426.0,662.0,1.0,1,352.0,1
664,664,0.2959455085192785,0.3,0.0,0.0,389.0,556.0,0.0,1,255.0,1
665,665,-0.3952327909361967,-0.4,1.0,0.0,298.0,985.0,0.0,0,-63.0,1
666,666,0.8980584925658915,0.9,1.0,1.0,396.0,773.0,1.0,1,241.0,1
667,667,-0.6894115027969454,-0.7,1.0,0.0,307.0,863.0,0.0,0,170.0,1
668,668,0.6493331006632127,0.6,1.0,1.0,386.0,847.0,1.0,1,177.0,1
669,669,0.8085735735255596,0.8,0.0,0.0,493.0,906.0,0.0,1,191.0,1
670,670,-0.2691308205938674,-0.3,0.0,1.0,426.0,816.0,0.0,1,1128.0,0
671,671,0.8058283505151494,0.8,1.0,1.0,340.0,876.0,1.0,1,554.0,1
672,672,-0.5343786702269799,-0.5,0.0,1.0,424.0,813.0,1.0,0,743.0,1
673,673,0.29083307092808874,0.3,0.0,0.0,495.0,697.0,0.0,1,478.0,1
674,674,0.6016431818495313,0.6,0.0,0.0,313.0,559.0,0.0,1,258.0,1
675,675,0.2595553030684917,0.3,0.0,0.0,255.0,616.0,0.0,1,449.0,1
676,676,0.21452265207779286,0.2,1.0,1.0,259.0,632.0,0.0,0,419.0,0
677,677,0.8007657075867608,0.8,0.0,0.0,451.0,752.0,0.0,1,457.0,1
678,678,-0.5094245828929596,-0.5,1.0,0.0,353.0,765.0,0.0,0,292.0,1
679,679,0.3390063792961807,0.3,0.0,0.0,354.0,926.0,0.0,1,100.0,1
680,680,0.6264818809860665,0.6,0.0,0.0,261.0,784.0,0.0,1,555.0,1
681,681,-0.822578974277418,-0.8,1.0,0.0,334.0,853.0,0.0,0,513.0,1
682,682,-0.5162673240662745,-0.5,0.0,1.0,479.0,864.0,0.0,1,827.0,0
683,683,-0.10176414967397807,-0.1,1.0,0.0,399.0,653.0,0.0,0,1028.0,1
684,684,-0.42091832270816715,-0.4,1.0,0.0,418.0,866.0,0.0,0,516.0,1
685,685,-0.21381765346139747,-0.2,1.0,0.0,452.0,940.0,0.0,0,1688.0,1
686,686,-0.2266180165891637,-0.2,0.0,1.0,442.0,834.0,0.0,1,204.0,0
687,687,-0.6954825414811961,-0.7,1.0,0.0,341.0,922.0,0.0,0,57.0,1
688,688,-0.26709943110311707,-0.3,1.0,0.0,299.0,673.0,1.0,1,408.0,0
689,689,-0.5991241424285629,-0.6,0.0,1.0,462.0,885.0,1.0,0,263.0,1
690,690,-0.5178259016226696,-0.5,1.0,0.0,457.0,775.0,0.0,0,568.0,1
691,691,-0.8293211477729238,-0.8,0.0,1.0,302.0,704.0,1.0,0,824.0,1
692,692,0.7784959780714903,0.8,0.0,0.0,374.0,534.0,0.0,1,422.0,1
693,693,0.4806762850952778,0.5,1.0,1.0,323.0,833.0,1.0,1,464.0,1
694,694,0.14152154859111132,0.1,1.0,1.0,266.0,758.0,0.0,0,1516.0,0
695,695,-0.34243525984202206,-0.3,0.0,1.0,254.0,738.0,1.0,0,988.0,1
696,696,0.1860054594113688,0.2,1.0,1.0,474.0,614.0,0.0,0,722.0,0
697,697,-0.548718997672392,-0.5,1.0,0.0,396.0,546.0,0.0,0,428.0,1
698,698,-0.7301754635169374,-0.7,0.0,1.0,377.0,873.0,1.0,0,350.0,1
699,699,-0.14277876477283735,-0.1,0.0,1.0,469.0,707.0,1.0,0,174.0,1
700,700,-0.22504088862129756,-0.2,0.0,1.0,453.0,535.0,0.0,1,842.0,0
701,701,-0.5162194017870889,-0.5,0.0,1.0,469.0,992.0,0.0,1,9.0,0
702,702,0.515559044432856,0.5,1.0,1.0,257.0,904.0,1.0,1,409.0,1
703,703,0.013595364980948155,0.0,0.0,0.0,416.0,581.0,0.0,1,843.0,1
704,704,-0.7024894162018348,-0.7,1.0,0.0,357.0,862.0,0.0,0,381.0,1
705,705,0.20249767739768443,0.2,0.0,0.0,333.0,705.0,0.0,1,342.0,1
706,706,0.4239050471685385,0.4,1.0,1.0,453.0,662.0,1.0,1,405.0,1
707,707,-0.4025294540086263,-0.4,1.0,0.0,355.0,976.0,0.0,0,119.0,1
708,708,-0.37671852017711227,-0.4,1.0,0.0,392.0,864.0,0.0,0,194.0,1
709,709,-0.4398607376301055,-0.4,0.0,1.0,312.0,841.0,1.0,0,587.0,1
710,710,-0.5020311045880839,-0.5,1.0,0.0,400.0,657.0,0.0,0,443.0,1
711,711,-0.1277060631055411,-0.1,1.0,0.0,452.0,560.0,0.0,0,488.0,1
712,712,-0.40721021974528165,-0.4,0.0,1.0,324.0,712.0,1.0,0,464.0,1
713,713,0.6353526968499937,0.6,0.0,0.0,328.0,741.0,0.0,1,191.0,1
714,714,-0.4528521432033499,-0.5,0.0,1.0,271.0,934.0,1.0,0,205.0,1
715,715,-0.5432345427878784,-0.5,0.0,1.0,497.0,663.0,1.0,0,590.0,1
716,716,0.05007576628736632,0.1,1.0,1.0,427.0,527.0,0.0,0,596.0,0
717,717,0.6264947480549273,0.6,1.0,1.0,401.0,693.0,1.0,1,306.0,1
718,718,0.42039378358881174,0.4,1.0,1.0,274.0,985.0,0.0,0,1271.0,0
719,719,-0.5555634087247022,-0.6,1.0,0.0,436.0,772.0,0.0,0,532.0,1
720,720,0.4243261220299145,0.4,0.0,0.0,250.0,554.0,0.0,1,376.0,1
721,721,-0.12899603624757205,-0.1,0.0,1.0,433.0,856.0,0.0,1,461.0,0
722,722,0.290280186999634,0.3,1.0,1.0,422.0,752.0,0.0,0,536.0,0
723,723,-0.8249090941509687,-0.8,0.0,1.0,331.0,660.0,1.0,0,509.0,1
724,724,0.027050830660326652,0.0,0.0,0.0,448.0,712.0,0.0,1,430.0,1
725,725,0.8328601466761839,0.8,0.0,0.0,499.0,586.0,0.0,1,345.0,1
726,726,0.2637083296830326,0.3,1.0,1.0,471.0,849.0,0.0,0,250.0,0
727,727,0.4147302320727265,0.4,0.0,0.0,470.0,904.0,0.0,1,366.0,1
728,728,0.32139065068001027,0.3,0.0,0.0,453.0,754.0,0.0,1,523.0,1
729,729,-0.04098610032727401,-0.0,1.0,0.0,359.0,699.0,0.0,0,392.0,1
730,730,-0.45051595957661517,-0.5,1.0,0.0,350.0,733.0,0.0,0,477.0,1
731,731,0.2250503150710944,0.2,1.0,1.0,346.0,772.0,0.0,0,232.0,0
732,732,-0.4885454213309656,-0.5,0.0,1.0,452.0,874.0,1.0,0,204.0,1
733,733,0.5240541937704076,0.5,0.0,0.0,306.0,891.0,0.0,1,203.0,1
734,734,0.17837234073805186,0.2,1.0,1.0,389.0,835.0,0.0,0,616.0,0
735,735,0.8354824588223851,0.8,0.0,0.0,488.0,751.0,0.0,1,311.0,1
736,736,0.45727023572733694,0.5,0.0,0.0,399.0,633.0,0.0,1,598.0,1
737,737,0.47162464888107636,0.5,0.0,0.0,376.0,993.0,0.0,1,41.0,1
738,738,0.5874861297037463,0.6,1.0,1.0,275.0,516.0,0.0,0,1119.0,0
739,739,-0.4803709718843531,-0.5,0.0,1.0,486.0,640.0,1.0,0,884.0,1
740,740,-0.6807653185626272,-0.7,1.0,0.0,311.0,527.0,0.0,0,642.0,1
741,741,0.8115767975706397,0.8,1.0,1.0,250.0,569.0,1.0,1,811.0,1
742,742,0.13501965065828914,0.1,1.0,1.0,395.0,894.0,0.0,0,261.0,0
743,743,-0.08922170875847468,-0.1,1.0,0.0,296.0,631.0,0.0,0,433.0,1
744,744,-0.4591495796654862,-0.5,0.0,1.0,434.0,876.0,0.0,1,850.0,0
745,745,-0.7566704668285589,-0.8,1.0,0.0,432.0,576.0,0.0,0,482.0,1
746,746,0.6949610603959216,0.7,1.0,1.0,451.0,930.0,0.0,0,-91.0,0
747,747,0.5434411676372591,0.5,0.0,0.0,273.0,709.0,0.0,1,708.0,1
748,748,0.011397844803199941,0.0,0.0,0.0,319.0,988.0,0.0,1,53.0,1
749,749,0.3076424383611239,0.3,0.0,0.0,413.0,577.0,0.0,1,1640.0,1
750,750,0.5426196063533794,0.5,0.0,0.0,382.0,873.0,0.0,1,395.0,1
751,751,-0.8060908320756293,-0.8,0.0,1.0,412.0,938.0,1.0,0,170.0,1
752,752,-0.6699518411597486,-0.7,1.0,0.0,464.0,664.0,0.0,0,342.0,1
753,753,0.6756201249995902,0.7,0.0,0.0,321.0,979.0,1.0,0,230.0,0
754,754,0.2791502306817396,0.3,0.0,0.0,250.0,631.0,0.0,1,189.0,1
755,755,-0.6310275456427551,-0.6,1.0,0.0,410.0,753.0,0.0,0,257.0,1
756,756,0.695246021676787,0.7,0.0,0.0,299.0,589.0,0.0,1,422.0,1
757,757,0.11425285335810897,0.1,1.0,1.0,266.0,548.0,0.0,0,846.0,0
758,758,-0.31378390951988666,-0.3,0.0,1.0,468.0,858.0,1.0,0,454.0,1
759,759,0.87904982601205,0.9,0.0,0.0,292.0,912.0,0.0,1,226.0,1
760,760,-0.16852546084674025,-0.2,0.0,1.0,456.0,710.0,1.0,0,384.0,1
761,761,0.8822113547709439,0.9,0.0,0.0,304.0,712.0,0.0,1,294.0,1
762,762,0.5830771941901046,0.6,0.0,0.0,438.0,689.0,0.0,1,413.0,1
763,763,0.8956386452359474,0.9,0.0,0.0,418.0,918.0,0.0,1,74.0,1
764,764,-0.2267207014046474,-0.2,0.0,1.0,496.0,603.0,0.0,1,721.0,0
765,765,-0.5428348122807702,-0.5,1.0,0.0,463.0,508.0,0.0,0,669.0,1
766,766,-0.44336843578004936,-0.4,0.0,1.0,374.0,998.0,0.0,1,-262.0,0
767,767,-0.5060012955301083,-0.5,0.0,1.0,265.0,720.0,1.0,0,315.0,1
768,768,0.7419426219591526,0.7,0.0,0.0,359.0,628.0,0.0,1,493.0,1
769,769,0.6271261904266826,0.6,1.0,1.0,345.0,885.0,0.0,0,-50.0,0
770,770,-0.6092301615021618,-0.6,0.0,1.0,497.0,578.0,1.0,0,555.0,1
771,771,-0.747533025909167,-0.7,1.0,0.0,326.0,559.0,0.0,0,505.0,1
772,772,-0.23817387700328974,-0.2,0.0,1.0,258.0,968.0,0.0,1,134.0,0
773,773,0.8307733138551755,0.8,0.0,0.0,412.0,591.0,0.0,1,347.0,1
774,774,-0.20727138720166427,-0.2,0.0,1.0,417.0,831.0,1.0,0,432.0,1
775,775,0.3234687154392274,0.3,1.0,1.0,440.0,607.0,1.0,1,1193.0,1
776,776,0.5606065317544707,0.6,1.0,1.0,316.0,994.0,0.0,0,-40.0,0
777,777,0.23507319418802297,0.2,0.0,0.0,306.0,942.0,0.0,1,152.0,1
778,778,-0.05454125995935,-0.1,0.0,1.0,395.0,851.0,0.0,1,4.0,0
779,779,0.1507656107726164,0.2,1.0,1.0,436.0,876.0,1.0,1,468.0,1
780,780,0.8720240348761715,0.9,1.0,1.0,473.0,553.0,1.0,1,384.0,1
781,781,-0.2021297323605602,-0.2,1.0,0.0,402.0,841.0,0.0,0,337.0,1
782,782,0.20390006698606233,0.2,0.0,0.0,307.0,597.0,0.0,1,566.0,1
783,783,0.18932428278227864,0.2,1.0,1.0,288.0,958.0,0.0,0,-6.0,0
784,784,0.2520294496339063,0.3,0.0,0.0,262.0,770.0,0.0,1,538.0,1
785,785,0.8143261276059942,0.8,0.0,0.0,253.0,714.0,0.0,1,333.0,1
786,786,0.8938643569874151,0.9,1.0,1.0,371.0,508.0,1.0,1,841.0,1
787,787,0.09908579867882872,0.1,0.0,0.0,375.0,657.0,0.0,1,318.0,1
788,788,-0.6493485512664993,-0.6,0.0,1.0,254.0,929.0,1.0,0,157.0,1
789,789,0.5711185437708924,0.6,1.0,1.0,387.0,979.0,0.0,0,94.0,0
790,790,-0.22527976406525474,-0.2,1.0,0.0,339.0,508.0,0.0,0,893.0,1
791,791,0.3314362807620118,0.3,1.0,1.0,403.0,507.0,0.0,0,750.0,0
792,792,-0.3531888380709661,-0.4,0.0,1.0,431.0,867.0,1.0,0,1482.0,1
793,793,0.06310676484402511,0.1,0.0,0.0,421.0,538.0,0.0,1,481.0,1
794,794,0.1933259625167153,0.2,1.0,1.0,289.0,641.0,1.0,1,430.0,1
795,795,0.895909651334596,0.9,1.0,1.0,488.0,509.0,1.0,1,493.0,1
796,796,-0.3224239753685285,-0.3,0.0,1.0,476.0,758.0,1.0,0,256.0,1
797,797,0.5865658970124211,0.6,0.0,0.0,397.0,589.0,0.0,1,354.0,1
798,798,0.19378444055300037,0.2,0.0,0.0,309.0,969.0,0.0,1,22.0,1
799,799,-0.6381194845793079,-0.6,0.0,1.0,369.0,580.0,1.0,0,431.0,1
800,800,0.011791841109725532,0.0,0.0,0.0,460.0,856.0,0.0,1,364.0,1
801,801,0.20473072233495093,0.2,0.0,0.0,329.0,744.0,0.0,1,1147.0,1
802,802,-0.5493070905659512,-0.5,0.0,1.0,399.0,990.0,0.0,1,111.0,0
803,803,-0.8713308514424082,-0.9,0.0,1.0,345.0,522.0,1.0,0,543.0,1
804,804,-0.5369989798850433,-0.5,0.0,1.0,337.0,991.0,1.0,0,322.0,1
805,805,0.5911779106835787,0.6,1.0,1.0,407.0,951.0,1.0,1,472.0,1
806,806,-0.4543198428536668,-0.5,1.0,0.0,329.0,658.0,0.0,0,943.0,1
807,807,0.2582190220701458,0.3,1.0,1.0,395.0,576.0,1.0,1,589.0,1
808,808,-0.2727178194800869,-0.3,1.0,0.0,265.0,771.0,0.0,0,164.0,1
809,809,-0.4293953885727053,-0.4,1.0,0.0,372.0,768.0,0.0,0,790.0,1
810,810,-0.817443004730422,-0.8,0.0,1.0,376.0,657.0,1.0,0,357.0,1
811,811,-0.38666647272231125,-0.4,1.0,0.0,395.0,725.0,0.0,0,490.0,1
812,812,-0.7283853074781221,-0.7,0.0,1.0,272.0,876.0,1.0,0,102.0,1
813,813,0.564943446200915,0.6,1.0,1.0,442.0,833.0,1.0,1,385.0,1
814,814,0.6117390952701233,0.6,1.0,1.0,307.0,538.0,1.0,1,465.0,1
815,815,-0.390875704304523,-0.4,1.0,0.0,498.0,896.0,0.0,0,606.0,1
816,816,0.6948079080352471,0.7,0.0,0.0,478.0,700.0,0.0,1,752.0,1
817,817,-0.8590513668794407,-0.9,1.0,0.0,376.0,623.0,0.0,0,381.0,1
818,818,-0.44050194271879517,-0.4,1.0,0.0,453.0,741.0,0.0,0,1176.0,1
819,819,0.5095797139748616,0.5,1.0,1.0,495.0,523.0,1.0,1,1052.0,1
820,820,0.8769844050192542,0.9,0.0,0.0,461.0,647.0,0.0,1,462.0,1
821,821,-0.0425932071320152,-0.0,1.0,0.0,292.0,899.0,0.0,0,1889.0,1
822,822,0.5470271012476767,0.5,0.0,0.0,434.0,679.0,0.0,1,447.0,1
823,823,-0.6831752626562464,-0.7,1.0,0.0,487.0,770.0,0.0,0,373.0,1
824,824,0.6039865529455722,0.6,0.0,0.0,495.0,555.0,0.0,1,770.0,1
825,825,-0.20805965805746207,-0.2,1.0,0.0,415.0,547.0,0.0,0,758.0,1
826,826,0.3649448773903453,0.4,1.0,1.0,326.0,856.0,1.0,1,388.0,1
827,827,0.2879320107175892,0.3,0.0,0.0,384.0,864.0,0.0,1,262.0,1
828,828,0.8148183921364519,0.8,1.0,1.0,335.0,857.0,1.0,1,298.0,1
829,829,-0.33490659790236277,-0.3,0.0,1.0,364.0,746.0,1.0,0,260.0,1
830,830,0.5376867439559719,0.5,1.0,1.0,446.0,707.0,1.0,1,487.0,1
831,831,-0.13873536811599374,-0.1,0.0,1.0,441.0,889.0,1.0,0,490.0,1
832,832,0.8018039787488441,0.8,0.0,0.0,327.0,984.0,0.0,1,139.0,1
833,833,-0.7913371051229945,-0.8,1.0,0.0,421.0,762.0,0.0,0,267.0,1
834,834,0.12785584105256464,0.1,0.0,0.0,306.0,948.0,0.0,1,126.0,1
835,835,0.8104306333126831,0.8,0.0,0.0,456.0,793.0,0.0,1,181.0,1
836,836,0.5576709721731888,0.6,1.0,1.0,309.0,933.0,1.0,1,608.0,1
837,837,-0.5679594219046409,-0.6,1.0,0.0,331.0,724.0,0.0,0,395.0,1
838,838,-0.8014117201010754,-0.8,0.0,1.0,308.0,749.0,1.0,0,463.0,1
839,839,-0.7621544967266003,-0.8,1.0,0.0,321.0,737.0,0.0,0,302.0,1
840,840,-0.5904678251976259,-0.6,0.0,1.0,291.0,592.0,1.0,0,867.0,1
841,841,-0.5302547056423557,-0.5,0.0,1.0,379.0,980.0,0.0,1,51.0,0
842,842,0.3607293323258164,0.4,1.0,1.0,363.0,802.0,1.0,1,465.0,1
843,843,0.5101536072055571,0.5,1.0,1.0,490.0,859.0,0.0,0,581.0,0
844,844,0.08875533295770333,0.1,0.0,0.0,258.0,967.0,1.0,0,35.0,0
845,845,0.45859978143796665,0.5,0.0,0.0,349.0,596.0,0.0,1,655.0,1
846,846,0.8264638315387044,0.8,0.0,0.0,289.0,728.0,0.0,1,843.0,1
847,847,-0.06363445643730914,-0.1,0.0,1.0,296.0,569.0,0.0,1,1265.0,0
848,848,-0.1398321886072742,-0.1,0.0,1.0,485.0,818.0,0.0,1,517.0,0
849,849,0.1136532017296431,0.1,1.0,1.0,475.0,661.0,0.0,0,774.0,0
850,850,-0.3643733184673119,-0.4,0.0,1.0,382.0,540.0,1.0,0,748.0,1
851,851,0.8240184110445538,0.8,1.0,1.0,343.0,841.0,1.0,1,336.0,1
852,852,0.27287892782626477,0.3,0.0,0.0,431.0,743.0,0.0,1,176.0,1
853,853,-0.5843782927172063,-0.6,1.0,0.0,354.0,983.0,0.0,0,113.0,1
854,854,0.8984013093726376,0.9,1.0,1.0,275.0,850.0,1.0,1,185.0,1
855,855,0.16852263415593283,0.2,0.0,0.0,336.0,778.0,0.0,1,276.0,1
856,856,0.09206643796500069,0.1,1.0,1.0,277.0,517.0,1.0,1,496.0,1
857,857,0.5590046511537808,0.6,0.0,0.0,493.0,854.0,0.0,1,33.0,1
858,858,0.0052905429127184656,0.0,0.0,0.0,389.0,531.0,0.0,1,420.0,1
859,859,-0.7533085646561579,-0.8,1.0,0.0,458.0,558.0,0.0,0,394.0,1
860,860,0.17366024427510018,0.2,1.0,1.0,381.0,987.0,0.0,0,22.0,0
861,861,0.6495247667794234,0.6,1.0,1.0,277.0,991.0,1.0,1,1712.0,1
862,862,-0.4990911176971691,-0.5,1.0,0.0,429.0,818.0,0.0,0,403.0,1
863,863,-0.5469224064983347,-0.5,0.0,1.0,338.0,979.0,1.0,0,303.0,1
864,864,-0.29386356564194294,-0.3,0.0,1.0,444.0,787.0,1.0,0,439.0,1
865,865,0.07541331716643296,0.1,0.0,0.0,394.0,715.0,1.0,0,741.0,0
866,866,0.027578099307923654,0.0,1.0,1.0,320.0,501.0,0.0,0,579.0,0
867,867,0.7832129319597073,0.8,0.0,0.0,271.0,722.0,0.0,1,407.0,1
868,868,0.15001470644648018,0.2,1.0,1.0,486.0,748.0,1.0,1,266.0,1
869,869,-0.8978924391561245,-0.9,1.0,0.0,461.0,948.0,0.0,0,1.0,1
870,870,-0.19882609558064723,-0.2,1.0,0.0,328.0,679.0,0.0,0,563.0,1
871,871,0.39473017640599106,0.4,0.0,0.0,487.0,555.0,0.0,1,1118.0,1
872,872,-0.6537228663877839,-0.7,1.0,0.0,499.0,502.0,0.0,0,699.0,1
873,873,-0.8264541237497177,-0.8,1.0,0.0,392.0,907.0,0.0,0,91.0,1
874,874,-0.534942294290641,-0.5,1.0,0.0,379.0,781.0,0.0,0,180.0,1
875,875,-0.09681653464820728,-0.1,1.0,0.0,352.0,614.0,0.0,0,394.0,1
876,876,0.05885250150821897,0.1,0.0,0.0,479.0,821.0,0.0,1,820.0,1
877,877,-0.39805062250481327,-0.4,0.0,1.0,470.0,676.0,1.0,0,674.0,1
878,878,-0.024191507810477075,-0.0,0.0,1.0,406.0,629.0,0.0,1,655.0,0
879,879,0.2736948291072453,0.3,1.0,1.0,391.0,875.0,1.0,1,214.0,1
880,880,-0.3642856417763187,-0.4,1.0,0.0,302.0,862.0,0.0,0,276.0,1
881,881,0.6173856589105103,0.6,0.0,0.0,256.0,685.0,0.0,1,529.0,1
882,882,0.48731809649822677,0.5,1.0,1.0,323.0,958.0,0.0,0,459.0,0
883,883,-0.8649727683150041,-0.9,0.0,1.0,390.0,735.0,1.0,0,305.0,1
884,884,0.050617940284245155,0.1,1.0,1.0,334.0,518.0,0.0,0,428.0,0
885,885,-0.6701010339124966,-0.7,1.0,0.0,435.0,701.0,0.0,0,294.0,1
886,886,-0.7779136340895738,-0.8,1.0,0.0,295.0,800.0,0.0,0,425.0,1
887,887,-0.7120078171532211,-0.7,1.0,0.0,451.0,954.0,0.0,0,5.0,1
888,888,0.03363137985870657,0.0,0.0,0.0,331.0,618.0,0.0,1,1061.0,1
889,889,0.05532036674632024,0.1,1.0,1.0,272.0,689.0,0.0,0,389.0,0
890,890,-0.8034800515480822,-0.8,1.0,0.0,415.0,722.0,0.0,0,403.0,1
891,891,0.4879713554538069,0.5,1.0,1.0,492.0,794.0,1.0,1,774.0,1
892,892,-0.7282794393101708,-0.7,1.0,0.0,496.0,973.0,0.0,0,151.0,1
893,893,0.19987394147255355,0.2,0.0,0.0,344.0,554.0,0.0,1,1182.0,1
894,894,-0.01188936697160281,-0.0,1.0,0.0,265.0,786.0,0.0,0,169.0,1
895,895,0.21123295169414924,0.2,1.0,1.0,445.0,537.0,1.0,1,1078.0,1
896,896,-0.7115712529797151,-0.7,0.0,1.0,475.0,571.0,1.0,0,364.0,1
897,897,0.40934951204512504,0.4,0.0,0.0,323.0,603.0,0.0,1,444.0,1
898,898,0.07886440111812454,0.1,1.0,1.0,308.0,705.0,0.0,0,347.0,0
899,899,0.46439027376064235,0.5,0.0,0.0,418.0,684.0,1.0,0,528.0,0
900,900,0.7954616284185411,0.8,0.0,0.0,374.0,540.0,0.0,1,436.0,1
901,901,-0.18815712968064968,-0.2,0.0,1.0,364.0,968.0,1.0,0,208.0,1
902,902,0.6452395703954926,0.6,0.0,0.0,364.0,995.0,0.0,1,611.0,1
903,903,-0.7439150926696296,-0.7,0.0,1.0,457.0,802.0,1.0,0,91.0,1
904,904,-0.5434105224147183,-0.5,1.0,0.0,347.0,560.0,0.0,0,323.0,1
905,905,0.8728203528504112,0.9,1.0,1.0,433.0,878.0,0.0,0,109.0,0
906,906,0.22130997881442382,0.2,1.0,1.0,338.0,786.0,0.0,0,246.0,0
907,907,-0.44346641882299825,-0.4,1.0,0.0,396.0,881.0,0.0,0,423.0,1
908,908,-0.3040844574890246,-0.3,1.0,0.0,298.0,577.0,0.0,0,385.0,1
909,909,-0.7598023020926455,-0.8,0.0,1.0,375.0,905.0,1.0,0,250.0,1
910,910,-0.50399803310253,-0.5,1.0,0.0,362.0,658.0,0.0,0,470.0,1
911,911,-0.602774493816183,-0.6,0.0,1.0,446.0,685.0,1.0,0,229.0,1
912,912,0.6195734976337833,0.6,1.0,1.0,425.0,636.0,1.0,1,289.0,1
913,913,0.03483195768361502,0.0,1.0,1.0,286.0,550.0,0.0,0,694.0,0
914,914,0.567267584758279,0.6,0.0,0.0,440.0,755.0,0.0,1,465.0,1
915,915,-0.39314139971313744,-0.4,0.0,1.0,412.0,745.0,1.0,0,243.0,1
916,916,0.36199976897072006,0.4,0.0,0.0,380.0,865.0,0.0,1,215.0,1
917,917,0.6315393538879289,0.6,0.0,0.0,257.0,663.0,0.0,1,340.0,1
918,918,-0.12790003593366683,-0.1,0.0,1.0,495.0,784.0,1.0,0,1091.0,1
919,919,-0.21091462382849346,-0.2,0.0,1.0,316.0,921.0,0.0,1,193.0,0
920,920,-0.8876484181303905,-0.9,1.0,0.0,470.0,828.0,0.0,0,442.0,1
921,921,-0.08602666022475869,-0.1,0.0,1.0,419.0,849.0,0.0,1,732.0,0
922,922,0.3447005800064836,0.3,1.0,1.0,389.0,587.0,1.0,1,844.0,1
923,923,0.7220247816363506,0.7,0.0,0.0,492.0,841.0,0.0,1,257.0,1
924,924,0.5096875086086213,0.5,0.0,0.0,313.0,660.0,0.0,1,1437.0,1
925,925,-0.8571514423718493,-0.9,1.0,0.0,411.0,759.0,0.0,0,370.0,1
926,926,0.03522114141958077,0.0,0.0,0.0,401.0,614.0,0.0,1,915.0,1
927,927,-0.7656118449379286,-0.8,1.0,0.0,383.0,661.0,0.0,0,426.0,1
928,928,0.439621965759864,0.4,1.0,1.0,257.0,521.0,1.0,1,682.0,1
929,929,0.15483918049589074,0.2,1.0,1.0,256.0,739.0,1.0,1,265.0,1
930,930,-0.8030231734556684,-0.8,0.0,1.0,356.0,997.0,1.0,0,427.0,1
931,931,0.10735379775400056,0.1,0.0,0.0,316.0,632.0,1.0,0,1192.0,0
932,932,-0.21097504769452935,-0.2,0.0,1.0,468.0,781.0,1.0,0,871.0,1
933,933,0.3582341069283487,0.4,0.0,0.0,299.0,700.0,0.0,1,551.0,1
934,934,-0.5983721502401858,-0.6,1.0,0.0,403.0,540.0,0.0,0,567.0,1
935,935,0.4835715264609498,0.5,0.0,0.0,277.0,844.0,0.0,1,109.0,1
936,936,-0.808275588983669,-0.8,1.0,0.0,361.0,811.0,0.0,0,148.0,1
937,937,0.6537038632067741,0.7,0.0,0.0,411.0,595.0,0.0,1,514.0,1
938,938,-0.8661715843751597,-0.9,0.0,1.0,484.0,559.0,1.0,0,317.0,1
939,939,0.5931170671346403,0.6,0.0,0.0,484.0,611.0,0.0,1,405.0,1
940,940,0.708169645597169,0.7,0.0,0.0,479.0,601.0,0.0,1,670.0,1
941,941,-0.22632478965893532,-0.2,0.0,1.0,326.0,858.0,1.0,0,326.0,1
942,942,0.41493531321858634,0.4,1.0,1.0,308.0,551.0,1.0,1,501.0,1
943,943,0.16735758956658764,0.2,0.0,0.0,369.0,907.0,0.0,1,464.0,1
944,944,0.8420072930833497,0.8,0.0,0.0,404.0,842.0,0.0,1,104.0,1
945,945,0.5473219068693419,0.5,1.0,1.0,434.0,541.0,1.0,1,665.0,1
946,946,-0.19967936569741118,-0.2,0.0,1.0,299.0,971.0,1.0,0,360.0,1
947,947,-0.8879286502449691,-0.9,0.0,1.0,308.0,726.0,1.0,0,186.0,1
948,948,0.201821446972149,0.2,0.0,0.0,456.0,533.0,0.0,1,381.0,1
949,949,0.25681230614947126,0.3,1.0,1.0,293.0,501.0,0.0,0,396.0,0
950,950,0.239542965459275,0.2,1.0,1.0,304.0,980.0,0.0,0,756.0,0
951,951,0.6887180023885836,0.7,1.0,1.0,386.0,597.0,1.0,1,557.0,1
952,952,-0.21315309443102692,-0.2,1.0,0.0,397.0,929.0,0.0,0,324.0,1
953,953,0.4933086522308837,0.5,0.0,0.0,263.0,807.0,0.0,1,280.0,1
954,954,-0.6162814580259216,-0.6,1.0,0.0,444.0,727.0,0.0,0,309.0,1
955,955,-0.03173322763616859,-0.0,1.0,0.0,423.0,734.0,0.0,0,453.0,1
956,956,-0.7000404164034755,-0.7,1.0,0.0,255.0,896.0,0.0,0,439.0,1
957,957,-0.751878203928245,-0.8,1.0,0.0,302.0,967.0,0.0,0,131.0,1
958,958,0.32292763008258507,0.3,0.0,0.0,289.0,601.0,0.0,1,310.0,1
959,959,-0.09486401007029777,-0.1,0.0,1.0,424.0,925.0,1.0,0,161.0,1
960,960,0.8285700667171437,0.8,0.0,0.0,458.0,601.0,0.0,1,501.0,1
961,961,-0.07199859336704495,-0.1,0.0,1.0,429.0,774.0,1.0,0,507.0,1
962,962,0.3234097076655228,0.3,1.0,1.0,442.0,983.0,0.0,0,-65.0,0
963,963,0.3322241394849671,0.3,1.0,1.0,285.0,669.0,0.0,0,956.0,0
964,964,-0.6104560993446366,-0.6,1.0,0.0,465.0,546.0,0.0,0,819.0,1
965,965,0.2894675005293309,0.3,1.0,1.0,327.0,629.0,1.0,1,334.0,1
966,966,-0.5026604370646491,-0.5,1.0,0.0,270.0,519.0,0.0,0,441.0,1
967,967,0.08946164980866778,0.1,1.0,1.0,460.0,908.0,1.0,1,1012.0,1
968,968,0.12625768333562448,0.1,0.0,0.0,350.0,991.0,0.0,1,29.0,1
969,969,-0.13965839176397754,-0.1,0.0,1.0,479.0,647.0,1.0,0,304.0,1
970,970,-0.7603058905842365,-0.8,0.0,1.0,430.0,853.0,0.0,1,-33.0,0
971,971,0.7988160229259395,0.8,0.0,0.0,282.0,655.0,0.0,1,573.0,1
972,972,0.7747454008750486,0.8,1.0,1.0,314.0,653.0,1.0,1,183.0,1
973,973,-0.16824355888539344,-0.2,0.0,1.0,390.0,823.0,0.0,1,637.0,0
974,974,-0.8988519821390549,-0.9,0.0,1.0,454.0,851.0,1.0,0,85.0,1
975,975,-0.6246399663255946,-0.6,0.0,1.0,477.0,900.0,0.0,1,-47.0,0
976,976,0.653327035862023,0.7,0.0,0.0,365.0,961.0,0.0,1,94.0,1
977,977,-0.6497237657479016,-0.6,0.0,1.0,454.0,705.0,1.0,0,521.0,1
978,978,0.5028954741836454,0.5,0.0,0.0,422.0,669.0,0.0,1,359.0,1
979,979,0.03954588626017508,0.0,1.0,1.0,451.0,643.0,1.0,1,1176.0,1
980,980,0.6479372827388105,0.6,0.0,0.0,338.0,618.0,0.0,1,624.0,1
981,981,-0.525638727396682,-0.5,1.0,0.0,281.0,693.0,0.0,0,336.0,1
982,982,0.33558500876745045,0.3,1.0,1.0,276.0,673.0,1.0,1,331.0,1
983,983,0.45252878121980633,0.5,1.0,1.0,418.0,520.0,0.0,0,842.0,0
984,984,-0.36467946954366937,-0.4,0.0,1.0,251.0,878.0,0.0,1,221.0,0
985,985,0.14841692350883273,0.1,0.0,0.0,459.0,635.0,0.0,1,826.0,1
986,986,-0.8179425954700883,-0.8,0.0,1.0,261.0,937.0,1.0,0,452.0,1
987,987,0.35176773093541225,0.4,1.0,1.0,261.0,760.0,0.0,0,189.0,0
988,988,-0.6994510670634707,-0.7,0.0,1.0,348.0,509.0,1.0,0,473.0,1
989,989,-0.7651064343255385,-0.8,1.0,0.0,334.0,987.0,0.0,0,209.0,1
990,990,-0.23397412852094734,-0.2,1.0,0.0,283.0,517.0,0.0,0,340.0,1
991,991,-0.718308723921696,-0.7,0.0,1.0,273.0,971.0,0.0,1,156.0,0
992,992,-0.6200731559443553,-0.6,0.0,1.0,447.0,621.0,1.0,0,1052.0,1
993,993,0.5945386407729033,0.6,0.0,0.0,381.0,895.0,0.0,1,234.0,1
994,994,-0.26657436249643984,-0.3,1.0,0.0,439.0,503.0,0.0,0,498.0,1
995,995,-0.42095275575050634,-0.4,0.0,1.0,343.0,635.0,1.0,0,562.0,1
996,996,0.7454999291368206,0.7,0.0,0.0,443.0,708.0,0.0,1,299.0,1
997,997,-0.0670933500002705,-0.1,1.0,0.0,409.0,552.0,0.0,0,409.0,1
998,998,-0.5097856001937147,-0.5,0.0,1.0,277.0,905.0,1.0,0,118.0,1
999,999,0.374996021985437,0.4,1.0,1.0,341.0,731.0,1.0,1,488.0,1
1000,1000,0.5456145654574104,0.5,1.0,1.0,308.0,591.0,1.0,1,491.0,1
1001,1001,-0.08464454843661207,-0.1,0.0,1.0,362.0,516.0,0.0,1,922.0,0
1002,1002,0.6565632741991166,0.7,0.0,0.0,470.0,773.0,0.0,1,177.0,1
1003,1003,-0.5819589907576291,-0.6,1.0,0.0,311.0,501.0,0.0,0,858.0,1
1004,1004,0.16639640772188302,0.2,1.0,1.0,494.0,916.0,0.0,0,10.0,0
1005,1005,-0.08035015725947525,-0.1,1.0,0.0,494.0,741.0,0.0,0,735.0,1
1006,1006,0.8577249012644143,0.9,1.0,1.0,461.0,713.0,1.0,1,556.0,1
1007,1007,-0.8438219624303355,-0.8,0.0,1.0,287.0,580.0,1.0,0,403.0,1
1008,1008,-0.07893498856514325,-0.1,0.0,1.0,410.0,810.0,0.0,1,740.0,0
1009,1009,-0.682571971705352,-0.7,1.0,0.0,455.0,625.0,0.0,0,550.0,1
1010,1010,-0.5320906429107919,-0.5,0.0,1.0,307.0,757.0,1.0,0,736.0,1
1011,1011,0.4424553573585909,0.4,0.0,0.0,331.0,595.0,0.0,1,514.0,1
1012,1012,-0.12000966635651422,-0.1,1.0,0.0,492.0,854.0,1.0,1,244.0,0
1013,1013,0.10879299723111446,0.1,1.0,1.0,388.0,621.0,1.0,1,691.0,1
1014,1014,-0.04368384463610231,-0.0,0.0,1.0,453.0,689.0,0.0,1,828.0,0
1015,1015,-0.36983571574694096,-0.4,1.0,0.0,381.0,892.0,0.0,0,1207.0,1
1016,1016,0.8997839532700355,0.9,0.0,0.0,318.0,982.0,0.0,1,0.0,1
1017,1017,-0.19125291075345097,-0.2,1.0,0.0,282.0,621.0,0.0,0,247.0,1
1018,1018,-0.23060456919867334,-0.2,0.0,1.0,258.0,703.0,0.0,1,299.0,0
1019,1019,0.21917009313941416,0.2,1.0,1.0,399.0,742.0,0.0,0,389.0,0
1020,1020,0.019743236561965416,0.0,1.0,1.0,359.0,979.0,0.0,0,152.0,0
1021,1021,-0.751309274603039,-0.8,1.0,0.0,349.0,681.0,0.0,0,520.0,1
1022,1022,0.7945009267313904,0.8,0.0,0.0,314.0,854.0,0.0,1,182.0,1
1023,1023,-0.023433103369911668,-0.0,0.0,1.0,348.0,612.0,0.0,1,2910.0,0
1024,1024,-0.20994044545405333,-0.2,1.0,0.0,437.0,881.0,0.0,0,392.0,1
1025,1025,-0.07849207803318636,-0.1,1.0,0.0,290.0,839.0,0.0,0,171.0,1
1026,1026,-0.33925455335516275,-0.3,1.0,0.0,271.0,573.0,0.0,0,656.0,1
1027,1027,-0.3494853996559327,-0.3,0.0,1.0,343.0,732.0,1.0,0,495.0,1
1028,1028,0.8727739884206772,0.9,0.0,0.0,431.0,778.0,1.0,0,141.0,0
1029,1029,-0.47851288307466094,-0.5,0.0,1.0,370.0,667.0,0.0,1,793.0,0
1030,1030,0.04103594956755707,0.0,1.0,1.0,455.0,957.0,0.0,0,258.0,0
1031,1031,-0.3961510042648908,-0.4,0.0,1.0,341.0,501.0,1.0,0,478.0,1
1032,1032,0.09988848484883939,0.1,1.0,1.0,290.0,519.0,1.0,1,1601.0,1
1033,1033,-0.25661237028129014,-0.3,1.0,0.0,371.0,832.0,0.0,0,197.0,1
1034,1034,0.8462188971251224,0.8,1.0,1.0,487.0,732.0,1.0,1,131.0,1
1035,1035,0.8922294027638494,0.9,0.0,0.0,499.0,591.0,0.0,1,340.0,1
1036,1036,-0.7403713578060618,-0.7,1.0,0.0,318.0,834.0,0.0,0,218.0,1
1037,1037,0.537302051942593,0.5,1.0,1.0,383.0,941.0,1.0,1,736.0,1
1038,1038,-0.352001646968085,-0.4,1.0,0.0,436.0,724.0,1.0,1,680.0,0
1039,1039,-0.3193867284620917,-0.3,1.0,0.0,385.0,814.0,0.0,0,351.0,1
1040,1040,-0.6483911825891859,-0.6,1.0,0.0,284.0,530.0,0.0,0,386.0,1
1041,1041,0.320032895906044,0.3,1.0,1.0,384.0,743.0,0.0,0,343.0,0
1042,1042,0.5165463147500157,0.5,0.0,0.0,356.0,931.0,0.0,1,53.0,1
1043,1043,-0.057868746630005075,-0.1,1.0,0.0,378.0,630.0,0.0,0,762.0,1
1044,1044,0.8555948919653641,0.9,0.0,0.0,315.0,811.0,0.0,1,434.0,1
1045,1045,-0.49247838587799625,-0.5,1.0,0.0,347.0,820.0,0.0,0,453.0,1
1046,1046,-0.8260323993203239,-0.8,0.0,1.0,479.0,619.0,1.0,0,402.0,1
1047,1047,0.8362904771415703,0.8,1.0,1.0,295.0,794.0,1.0,1,581.0,1
1048,1048,-0.256548768361589,-0.3,1.0,0.0,409.0,660.0,0.0,0,1361.0,1
1049,1049,0.3004617106614401,0.3,0.0,0.0,368.0,907.0,0.0,1,415.0,1
1050,1050,-0.4676466439365788,-0.5,0.0,1.0,314.0,652.0,1.0,0,294.0,1
1051,1051,0.1783323796911379,0.2,1.0,1.0,471.0,981.0,0.0,0,408.0,0
1052,1052,-0.08873380760333083,-0.1,0.0,1.0,499.0,760.0,0.0,1,361.0,0
1053,1053,0.19647570990564256,0.2,1.0,1.0,272.0,669.0,1.0,1,479.0,1
1054,1054,-0.38601664654577117,-0.4,0.0,1.0,374.0,513.0,1.0,0,543.0,1
1055,1055,0.6565814739329264,0.7,0.0,0.0,285.0,807.0,0.0,1,458.0,1
1056,1056,0.03279483920073467,0.0,0.0,0.0,280.0,727.0,1.0,0,263.0,0
1057,1057,0.8337435755552666,0.8,1.0,1.0,352.0,782.0,1.0,1,366.0,1
1058,1058,0.07013390135540576,0.1,0.0,0.0,378.0,506.0,0.0,1,436.0,1
1059,1059,0.8626270170633511,0.9,1.0,1.0,317.0,767.0,1.0,1,196.0,1
1060,1060,0.8237965368899166,0.8,1.0,1.0,454.0,943.0,1.0,1,493.0,1
1061,1061,0.06748718863277348,0.1,1.0,1.0,404.0,993.0,1.0,1,943.0,1
1062,1062,0.3387658719169092,0.3,1.0,1.0,407.0,749.0,1.0,1,964.0,1
1063,1063,-0.5757016161292414,-0.6,0.0,1.0,309.0,750.0,1.0,0,311.0,1
1064,1064,0.8924651328219827,0.9,0.0,0.0,347.0,870.0,0.0,1,1093.0,1
1065,1065,-0.29494397538401274,-0.3,1.0,0.0,474.0,781.0,0.0,0,485.0,1
1066,1066,-0.7012563566709721,-0.7,1.0,0.0,271.0,553.0,0.0,0,326.0,1
1067,1067,-0.366661019252991,-0.4,1.0,0.0,396.0,922.0,0.0,0,372.0,1
1068,1068,0.15232773151437418,0.2,1.0,1.0,391.0,966.0,1.0,1,303.0,1
1069,1069,-0.3091741260256302,-0.3,1.0,0.0,436.0,754.0,0.0,0,340.0,1
1070,1070,0.7302681502232774,0.7,1.0,1.0,396.0,736.0,1.0,1,498.0,1
1071,1071,0.8815752923550563,0.9,1.0,1.0,334.0,920.0,0.0,0,156.0,0
1072,1072,0.2690405041994509,0.3,1.0,1.0,280.0,857.0,1.0,1,543.0,1
1073,1073,-0.17651133729339508,-0.2,1.0,0.0,383.0,626.0,0.0,0,801.0,1
1074,1074,-0.41067407265432054,-0.4,1.0,0.0,307.0,866.0,0.0,0,407.0,1
1075,1075,0.3927704103913042,0.4,0.0,0.0,481.0,913.0,1.0,0,66.0,0
1076,1076,-0.6965333763339059,-0.7,1.0,0.0,414.0,711.0,0.0,0,275.0,1
1077,1077,-0.29579151142171756,-0.3,1.0,0.0,265.0,553.0,0.0,0,342.0,1
1078,1078,0.2665043994737796,0.3,1.0,1.0,490.0,516.0,1.0,1,754.0,1
1079,1079,0.4404291692073231,0.4,0.0,0.0,250.0,548.0,0.0,1,682.0,1
1080,1080,0.8605788206408812,0.9,1.0,1.0,363.0,530.0,1.0,1,697.0,1
1081,1081,-0.5950919756676545,-0.6,1.0,0.0,328.0,776.0,0.0,0,96.0,1
1082,1082,0.6662958275463081,0.7,1.0,1.0,432.0,700.0,1.0,1,518.0,1
1083,1083,-0.12199951723747049,-0.1,1.0,0.0,451.0,881.0,0.0,0,128.0,1
1084,1084,-0.5734751030004557,-0.6,0.0,1.0,489.0,862.0,0.0,1,229.0,0
1085,1085,0.7262110579172393,0.7,0.0,0.0,458.0,902.0,0.0,1,610.0,1
1086,1086,0.41119017994590645,0.4,1.0,1.0,298.0,595.0,0.0,0,567.0,0
1087,1087,-0.46517497803913815,-0.5,0.0,1.0,416.0,724.0,1.0,0,790.0,1
1088,1088,0.1543438196962602,0.2,1.0,1.0,314.0,748.0,0.0,0,558.0,0
1089,1089,-0.7967411997150315,-0.8,1.0,0.0,438.0,722.0,0.0,0,270.0,1
1090,1090,0.7949014058346874,0.8,1.0,1.0,396.0,570.0,1.0,1,424.0,1
1091,1091,0.2515617291981399,0.3,0.0,0.0,458.0,523.0,0.0,1,759.0,1
1092,1092,-0.8673996183380005,-0.9,1.0,0.0,366.0,787.0,0.0,0,447.0,1
1093,1093,0.09834733347736069,0.1,0.0,0.0,490.0,629.0,1.0,0,741.0,0
1094,1094,0.26463972362815535,0.3,1.0,1.0,402.0,666.0,1.0,1,322.0,1
1095,1095,0.27670146481172886,0.3,0.0,0.0,463.0,763.0,1.0,0,194.0,0
1096,1096,-0.37999999352293135,-0.4,0.0,1.0,488.0,636.0,0.0,1,606.0,0
1097,1097,0.43982910886034865,0.4,0.0,0.0,461.0,711.0,0.0,1,308.0,1
1098,1098,0.777346737865653,0.8,0.0,0.0,340.0,654.0,0.0,1,476.0,1
1099,1099,-0.793740934867199,-0.8,0.0,1.0,298.0,712.0,1.0,0,540.0,1
1100,1100,-0.4386162442341129,-0.4,0.0,1.0,408.0,542.0,1.0,0,850.0,1
1101,1101,-0.45901595678738966,-0.5,0.0,1.0,450.0,613.0,1.0,0,657.0,1
1102,1102,-0.4094955402418487,-0.4,1.0,0.0,259.0,640.0,0.0,0,471.0,1
1103,1103,-0.36503108046579735,-0.4,0.0,1.0,306.0,897.0,1.0,0,127.0,1
1104,1104,0.5027680576670094,0.5,0.0,0.0,358.0,568.0,0.0,1,614.0,1
1105,1105,-0.47202988973166,-0.5,0.0,1.0,394.0,973.0,0.0,1,-17.0,0
1106,1106,0.07343412462628618,0.1,1.0,1.0,410.0,740.0,0.0,0,510.0,0
1107,1107,0.5234184258381401,0.5,0.0,0.0,288.0,535.0,0.0,1,387.0,1
1108,1108,-0.8614653809755375,-0.9,1.0,0.0,495.0,561.0,0.0,0,524.0,1
1109,1109,0.13388173029676953,0.1,1.0,1.0,365.0,944.0,0.0,0,1441.0,0
1110,1110,-0.8748553262141336,-0.9,0.0,1.0,446.0,647.0,1.0,0,367.0,1
1111,1111,-0.19433934458036717,-0.2,0.0,1.0,454.0,551.0,1.0,0,565.0,1
1112,1112,-0.057966277371874875,-0.1,1.0,0.0,352.0,608.0,0.0,0,2060.0,1
1113,1113,0.7922971874411383,0.8,1.0,1.0,447.0,650.0,1.0,1,323.0,1
1114,1114,0.40389205671818396,0.4,1.0,1.0,424.0,824.0,1.0,1,402.0,1
1115,1115,-0.5958886996125694,-0.6,0.0,1.0,410.0,598.0,1.0,0,462.0,1
1116,1116,0.6552170038322022,0.7,0.0,0.0,481.0,508.0,0.0,1,491.0,1
1117,1117,-0.13249275771720048,-0.1,1.0,0.0,453.0,647.0,1.0,1,710.0,0
1118,1118,0.05464587994763548,0.1,1.0,1.0,380.0,552.0,0.0,0,1608.0,0
1119,1119,-0.3315779675394983,-0.3,0.0,1.0,436.0,981.0,0.0,1,-37.0,0
1120,1120,0.3512813029553633,0.4,1.0,1.0,489.0,726.0,1.0,1,215.0,1
1121,1121,0.4863828817964114,0.5,1.0,1.0,418.0,564.0,1.0,1,448.0,1
1122,1122,-0.5016531683114589,-0.5,0.0,1.0,341.0,652.0,1.0,0,337.0,1
1123,1123,0.4009820485321466,0.4,0.0,0.0,347.0,661.0,0.0,1,412.0,1
1124,1124,-0.017683406107275146,-0.0,0.0,1.0,268.0,564.0,1.0,0,528.0,1
1125,1125,0.32493957202874457,0.3,0.0,0.0,384.0,607.0,0.0,1,469.0,1
1126,1126,0.8522097007367243,0.9,1.0,1.0,253.0,846.0,1.0,1,171.0,1
1127,1127,0.333768981209679,0.3,0.0,0.0,378.0,580.0,0.0,1,602.0,1
1128,1128,0.7013612609024241,0.7,1.0,1.0,365.0,906.0,1.0,1,269.0,1
1129,1129,-0.4126984910310237,-0.4,0.0,1.0,424.0,870.0,1.0,0,1416.0,1
1130,1130,-0.4084295325861932,-0.4,0.0,1.0,379.0,958.0,1.0,0,-97.0,1
1131,1131,0.8084939549585436,0.8,0.0,0.0,333.0,952.0,0.0,1,225.0,1
1132,1132,-0.24696957784903906,-0.2,1.0,0.0,361.0,748.0,0.0,0,391.0,1
1133,1133,-0.28664837257589715,-0.3,0.0,1.0,415.0,718.0,0.0,1,277.0,0
1134,1134,-0.7421381990786905,-0.7,1.0,0.0,450.0,823.0,0.0,0,217.0,1
1135,1135,0.5008350804375333,0.5,1.0,1.0,426.0,573.0,1.0,1,481.0,1
1136,1136,0.05428756734734741,0.1,0.0,0.0,266.0,672.0,1.0,0,592.0,0
1137,1137,0.04816059575817411,0.0,0.0,0.0,254.0,959.0,0.0,1,337.0,1
1138,1138,-0.23879825151198875,-0.2,0.0,1.0,409.0,591.0,0.0,1,660.0,0
1139,1139,-0.2710307365472612,-0.3,0.0,1.0,340.0,569.0,0.0,1,1081.0,0
1140,1140,-0.26160914415724634,-0.3,0.0,1.0,406.0,964.0,1.0,0,530.0,1
1141,1141,-0.11017604960628247,-0.1,0.0,1.0,484.0,616.0,1.0,0,930.0,1
1142,1142,0.8981500667515471,0.9,0.0,0.0,457.0,915.0,0.0,1,38.0,1
1143,1143,0.6307533871322696,0.6,0.0,0.0,422.0,900.0,0.0,1,228.0,1
1144,1144,-0.6547474570822112,-0.7,0.0,1.0,257.0,978.0,1.0,0,305.0,1
1145,1145,0.5019386003817715,0.5,0.0,0.0,375.0,758.0,0.0,1,717.0,1
1146,1146,-0.5869152265592144,-0.6,0.0,1.0,437.0,501.0,1.0,0,492.0,1
1147,1147,0.18372039367533233,0.2,1.0,1.0,288.0,577.0,1.0,1,575.0,1
1148,1148,-0.7420986651121917,-0.7,0.0,1.0,282.0,910.0,1.0,0,208.0,1
1149,1149,0.43483730671905263,0.4,1.0,1.0,490.0,984.0,1.0,1,866.0,1
1150,1150,-0.7663885590153137,-0.8,0.0,1.0,355.0,954.0,1.0,0,351.0,1
1151,1151,0.752035380798994,0.8,0.0,0.0,296.0,525.0,0.0,1,1109.0,1
1152,1152,0.7277092884328317,0.7,0.0,0.0,426.0,555.0,0.0,1,369.0,1
1153,1153,-0.8428289544815278,-0.8,1.0,0.0,395.0,819.0,0.0,0,286.0,1
1154,1154,-0.6051906241588545,-0.6,1.0,0.0,405.0,664.0,0.0,0,161.0,1
1155,1155,0.4311198391420247,0.4,1.0,1.0,489.0,769.0,0.0,0,282.0,0
1156,1156,0.37468562202330646,0.4,1.0,1.0,482.0,679.0,0.0,0,259.0,0
1157,1157,-0.46326021326368305,-0.5,1.0,0.0,341.0,542.0,0.0,0,637.0,1
1158,1158,0.34968042818165557,0.3,0.0,0.0,286.0,871.0,0.0,1,333.0,1
1159,1159,0.3787507883674267,0.4,1.0,1.0,314.0,646.0,1.0,1,1480.0,1
1160,1160,0.8637438756143406,0.9,1.0,1.0,491.0,906.0,1.0,1,253.0,1
1161,1161,0.6100694596280328,0.6,1.0,1.0,432.0,930.0,1.0,1,58.0,1
1162,1162,-0.7785829753112231,-0.8,0.0,1.0,327.0,695.0,1.0,0,368.0,1
1163,1163,0.2514183322093465,0.3,0.0,0.0,385.0,533.0,0.0,1,512.0,1
1164,1164,-0.6129486556876635,-0.6,1.0,0.0,384.0,599.0,0.0,0,457.0,1
1165,1165,-0.6799161554918792,-0.7,0.0,1.0,440.0,700.0,1.0,0,230.0,1
1166,1166,-0.5174883091233335,-0.5,1.0,0.0,324.0,842.0,0.0,0,104.0,1
1167,1167,0.4930209684531043,0.5,0.0,0.0,477.0,647.0,0.0,1,466.0,1
1168,1168,-0.062163514795278374,-0.1,0.0,1.0,302.0,616.0,1.0,0,312.0,1
1169,1169,-0.3942874551329023,-0.4,1.0,0.0,346.0,953.0,1.0,1,521.0,0
1170,1170,-0.7430698644794995,-0.7,1.0,0.0,382.0,993.0,0.0,0,-25.0,1
1171,1171,0.6181754434904477,0.6,0.0,0.0,272.0,620.0,0.0,1,778.0,1
1172,1172,0.42133607052043376,0.4,0.0,0.0,296.0,947.0,0.0,1,107.0,1
1173,1173,-0.6955511989961357,-0.7,1.0,0.0,335.0,641.0,0.0,0,434.0,1
1174,1174,0.8393550150392103,0.8,1.0,1.0,433.0,643.0,1.0,1,384.0,1
1175,1175,0.6006313591295461,0.6,1.0,1.0,290.0,988.0,0.0,0,-28.0,0
1176,1176,-0.5721146670512927,-0.6,0.0,1.0,497.0,559.0,1.0,0,624.0,1
1177,1177,0.5391792321212486,0.5,0.0,0.0,361.0,577.0,0.0,1,632.0,1
1178,1178,-0.49802995102550807,-0.5,0.0,1.0,357.0,675.0,1.0,0,438.0,1
1179,1179,-0.8285947500848367,-0.8,0.0,1.0,479.0,890.0,1.0,0,241.0,1
1180,1180,-0.48460488657299233,-0.5,0.0,1.0,297.0,597.0,1.0,0,406.0,1
1181,1181,0.877677360850056,0.9,0.0,0.0,322.0,706.0,0.0,1,462.0,1
1182,1182,-0.45480501278493723,-0.5,0.0,1.0,324.0,988.0,1.0,0,328.0,1
1183,1183,-0.4357020482421885,-0.4,1.0,0.0,458.0,568.0,0.0,0,554.0,1
1184,1184,-0.6739876219420722,-0.7,1.0,0.0,277.0,851.0,0.0,0,132.0,1
1185,1185,0.8882489553391689,0.9,0.0,0.0,348.0,665.0,0.0,1,167.0,1
1186,1186,0.7848055743232695,0.8,0.0,0.0,434.0,575.0,0.0,1,611.0,1
1187,1187,-0.5271110965311369,-0.5,0.0,1.0,471.0,811.0,1.0,0,818.0,1
1188,1188,-0.7023198114458175,-0.7,0.0,1.0,270.0,605.0,1.0,0,415.0,1
1189,1189,0.3638995319612156,0.4,1.0,1.0,492.0,713.0,1.0,1,615.0,1
1190,1190,-0.48662952598822473,-0.5,1.0,0.0,468.0,516.0,0.0,0,596.0,1
1191,1191,0.6553490625984418,0.7,1.0,1.0,493.0,848.0,1.0,1,9.0,1
1192,1192,0.637730372780751,0.6,0.0,0.0,382.0,794.0,0.0,1,284.0,1
1193,1193,0.3774644800328776,0.4,1.0,1.0,290.0,768.0,1.0,1,732.0,1
1194,1194,0.28543362446192166,0.3,1.0,1.0,373.0,585.0,1.0,1,512.0,1
1195,1195,-0.01834099218868923,-0.0,1.0,0.0,367.0,887.0,0.0,0,1096.0,1
1196,1196,0.810401459781534,0.8,1.0,1.0,472.0,630.0,1.0,1,1258.0,1
1197,1197,-0.507866961901112,-0.5,0.0,1.0,333.0,704.0,1.0,0,363.0,1
1198,1198,-0.4575029320947092,-0.5,1.0,0.0,347.0,932.0,1.0,1,-19.0,0
1199,1199,0.23984603256995063,0.2,0.0,0.0,397.0,853.0,0.0,1,100.0,1
1200,1200,-0.5627052577095003,-0.6,1.0,0.0,266.0,765.0,0.0,0,99.0,1
1201,1201,-0.6611854257249485,-0.7,0.0,1.0,469.0,683.0,1.0,0,388.0,1
1202,1202,-0.7615119606454518,-0.8,0.0,1.0,330.0,919.0,1.0,0,41.0,1
1203,1203,0.6647135791422111,0.7,0.0,0.0,384.0,551.0,0.0,1,525.0,1
1204,1204,0.6649839578664477,0.7,0.0,0.0,413.0,779.0,0.0,1,268.0,1
1205,1205,-0.7835219606367932,-0.8,1.0,0.0,337.0,715.0,0.0,0,288.0,1
1206,1206,-0.7690581174176105,-0.8,0.0,1.0,483.0,540.0,1.0,0,737.0,1
1207,1207,-0.1705304416044956,-0.2,1.0,0.0,329.0,889.0,0.0,0,142.0,1
1208,1208,-0.826445018056597,-0.8,1.0,0.0,343.0,871.0,0.0,0,416.0,1
1209,1209,0.014981553431278605,0.0,0.0,0.0,418.0,823.0,0.0,1,289.0,1
1210,1210,-0.535123499147802,-0.5,0.0,1.0,439.0,744.0,0.0,1,7.0,0
1211,1211,0.5141506541754087,0.5,1.0,1.0,298.0,785.0,1.0,1,437.0,1
1212,1212,0.39558190463832277,0.4,0.0,0.0,376.0,631.0,0.0,1,443.0,1
1213,1213,-0.43851003493066143,-0.4,1.0,0.0,344.0,665.0,0.0,0,721.0,1
1214,1214,0.5279149305725525,0.5,1.0,1.0,417.0,663.0,1.0,1,520.0,1
1215,1215,0.2835544003194542,0.3,0.0,0.0,295.0,500.0,0.0,1,825.0,1
1216,1216,-0.832007761180516,-0.8,1.0,0.0,320.0,695.0,0.0,0,295.0,1
1217,1217,0.7695113732013154,0.8,0.0,0.0,477.0,581.0,0.0,1,592.0,1
1218,1218,0.33056347096101,0.3,1.0,1.0,313.0,807.0,1.0,1,260.0,1
1219,1219,-0.029662593804799964,-0.0,0.0,1.0,472.0,523.0,1.0,0,555.0,1
1220,1220,0.48136503679496767,0.5,1.0,1.0,311.0,890.0,1.0,1,249.0,1
1221,1221,-0.48799709596811797,-0.5,0.0,1.0,329.0,723.0,1.0,0,118.0,1
1222,1222,-0.25432883646055193,-0.3,1.0,0.0,440.0,869.0,0.0,0,481.0,1
1223,1223,-0.4923112194951249,-0.5,0.0,1.0,308.0,792.0,1.0,0,250.0,1
1224,1224,0.01700313264976805,0.0,0.0,0.0,406.0,583.0,1.0,0,761.0,0
1225,1225,0.7665536930699811,0.8,1.0,1.0,251.0,796.0,1.0,1,223.0,1
1226,1226,-0.1766773554137142,-0.2,0.0,1.0,300.0,791.0,1.0,0,499.0,1
1227,1227,0.7195406271017358,0.7,0.0,0.0,387.0,900.0,0.0,1,193.0,1
1228,1228,-0.6892233622716833,-0.7,0.0,1.0,419.0,679.0,1.0,0,462.0,1
1229,1229,-0.22969388726155304,-0.2,1.0,0.0,391.0,631.0,0.0,0,318.0,1
1230,1230,-0.2722361560914389,-0.3,0.0,1.0,493.0,588.0,1.0,0,1689.0,1
1231,1231,0.38228159124103345,0.4,1.0,1.0,309.0,695.0,0.0,0,536.0,0
1232,1232,0.734624577033198,0.7,0.0,0.0,464.0,572.0,0.0,1,1074.0,1
1233,1233,0.515944671229784,0.5,1.0,1.0,366.0,813.0,1.0,1,271.0,1
1234,1234,-0.7185132695170328,-0.7,1.0,0.0,416.0,626.0,0.0,0,348.0,1
1235,1235,0.5723107850718824,0.6,1.0,1.0,276.0,512.0,1.0,1,822.0,1
1236,1236,-0.4771719106813487,-0.5,0.0,1.0,448.0,715.0,1.0,0,317.0,1
1237,1237,0.6780655171750657,0.7,1.0,1.0,318.0,957.0,1.0,1,245.0,1
1238,1238,0.36882184749675495,0.4,1.0,1.0,310.0,894.0,1.0,1,56.0,1
1239,1239,0.5663373505489854,0.6,1.0,1.0,365.0,964.0,1.0,1,351.0,1
1240,1240,0.25890340992547356,0.3,1.0,1.0,353.0,888.0,0.0,0,999.0,0
1241,1241,0.3070405028505835,0.3,0.0,0.0,350.0,671.0,0.0,1,579.0,1
1242,1242,-0.2883950776973808,-0.3,1.0,0.0,426.0,786.0,1.0,1,578.0,0
1243,1243,-0.059601365294574715,-0.1,0.0,1.0,397.0,658.0,0.0,1,1085.0,0
1244,1244,0.003126981624462566,0.0,1.0,1.0,430.0,532.0,0.0,0,738.0,0
1245,1245,-0.504537093868258,-0.5,0.0,1.0,347.0,617.0,1.0,0,346.0,1
1246,1246,0.4881861475797441,0.5,0.0,0.0,490.0,657.0,0.0,1,503.0,1
1247,1247,0.834617351450767,0.8,1.0,1.0,445.0,628.0,1.0,1,237.0,1
1248,1248,-0.7411582830190074,-0.7,1.0,0.0,443.0,886.0,1.0,1,101.0,0
1249,1249,0.5350062502959426,0.5,1.0,1.0,255.0,977.0,1.0,1,648.0,1
1250,1250,-0.5586408280241799,-0.6,1.0,0.0,485.0,614.0,0.0,0,451.0,1
1251,1251,-0.02489521878199097,-0.0,1.0,0.0,308.0,549.0,0.0,0,353.0,1
1252,1252,0.5507360811400722,0.6,1.0,1.0,291.0,686.0,1.0,1,843.0,1
1253,1253,0.3305744994937264,0.3,0.0,0.0,487.0,954.0,0.0,1,269.0,1
1254,1254,0.8995709023046227,0.9,0.0,0.0,469.0,771.0,0.0,1,130.0,1
1255,1255,0.1624616413232084,0.2,0.0,0.0,324.0,949.0,0.0,1,317.0,1
1256,1256,0.3459116391651563,0.3,1.0,1.0,439.0,585.0,1.0,1,586.0,1
1257,1257,0.3820640542092869,0.4,0.0,0.0,293.0,726.0,0.0,1,291.0,1
1258,1258,0.292734568151373,0.3,1.0,1.0,493.0,542.0,0.0,0,615.0,0
1259,1259,-0.8305755432500682,-0.8,1.0,0.0,256.0,943.0,0.0,0,31.0,1
1260,1260,-0.3064792289660845,-0.3,1.0,0.0,267.0,715.0,0.0,0,428.0,1
1261,1261,-0.7584005118303697,-0.8,0.0,1.0,352.0,902.0,1.0,0,456.0,1
1262,1262,0.015698600900011073,0.0,0.0,0.0,483.0,889.0,0.0,1,308.0,1
1263,1263,0.041494454284874194,0.0,1.0,1.0,453.0,630.0,0.0,0,1637.0,0
1264,1264,-0.6618124435468125,-0.7,1.0,0.0,474.0,799.0,0.0,0,677.0,1
1265,1265,0.41507307397453397,0.4,0.0,0.0,399.0,654.0,0.0,1,367.0,1
1266,1266,-0.22648712594055376,-0.2,1.0,0.0,313.0,822.0,0.0,0,645.0,1
1267,1267,-0.4681759534914566,-0.5,0.0,1.0,429.0,699.0,1.0,0,342.0,1
1268,1268,0.7770260760543829,0.8,0.0,0.0,277.0,854.0,0.0,1,539.0,1
1269,1269,-0.6189672340238991,-0.6,0.0,1.0,418.0,722.0,1.0,0,430.0,1
1270,1270,-0.14839631216313154,-0.1,0.0,1.0,494.0,702.0,1.0,0,1524.0,1
1271,1271,-0.11550085871384375,-0.1,0.0,1.0,336.0,902.0,1.0,0,672.0,1
1272,1272,0.707554602703122,0.7,0.0,0.0,417.0,533.0,0.0,1,430.0,1
1273,1273,-0.7221805407104089,-0.7,1.0,0.0,338.0,939.0,0.0,0,473.0,1
1274,1274,-0.7216681291145158,-0.7,1.0,0.0,336.0,592.0,0.0,0,402.0,1
1275,1275,-0.10980584761959289,-0.1,0.0,1.0,271.0,988.0,1.0,0,-249.0,1
1276,1276,0.0552859569097337,0.1,1.0,1.0,459.0,519.0,0.0,0,682.0,0
1277,1277,-0.7152987583582858,-0.7,1.0,0.0,418.0,847.0,0.0,0,185.0,1
1278,1278,0.5073090970064417,0.5,0.0,0.0,475.0,830.0,0.0,1,765.0,1
1279,1279,0.46963229088573166,0.5,1.0,1.0,255.0,934.0,0.0,0,51.0,0
1280,1280,0.4009825814617013,0.4,1.0,1.0,376.0,578.0,1.0,1,666.0,1
1281,1281,0.12308543393872029,0.1,1.0,1.0,300.0,642.0,1.0,1,328.0,1
1282,1282,-0.6056285324197307,-0.6,1.0,0.0,377.0,628.0,0.0,0,565.0,1
1283,1283,0.784930229171746,0.8,0.0,0.0,365.0,524.0,0.0,1,561.0,1
1284,1284,0.5021859618895842,0.5,0.0,0.0,271.0,775.0,0.0,1,254.0,1
1285,1285,-0.5640912994059661,-0.6,1.0,0.0,440.0,998.0,0.0,0,322.0,1
1286,1286,-0.2022824235809132,-0.2,0.0,1.0,428.0,690.0,1.0,0,232.0,1
1287,1287,-0.7423488089035325,-0.7,0.0,1.0,461.0,693.0,1.0,0,436.0,1
1288,1288,-0.6945108787942537,-0.7,0.0,1.0,305.0,533.0,1.0,0,1052.0,1
1289,1289,-0.6784611927674693,-0.7,1.0,0.0,426.0,874.0,0.0,0,230.0,1
1290,1290,0.3326339765207563,0.3,0.0,0.0,324.0,809.0,0.0,1,717.0,1
1291,1291,-0.3055962786440105,-0.3,1.0,0.0,357.0,615.0,0.0,0,728.0,1
1292,1292,-0.22352124890721015,-0.2,1.0,0.0,453.0,524.0,0.0,0,683.0,1
1293,1293,-0.09986433548924778,-0.1,1.0,0.0,279.0,848.0,0.0,0,123.0,1
1294,1294,-0.49579909574230735,-0.5,1.0,0.0,331.0,538.0,0.0,0,461.0,1
1295,1295,0.8023023751160837,0.8,0.0,0.0,345.0,885.0,0.0,1,340.0,1
1296,1296,-0.017683717512139818,-0.0,0.0,1.0,280.0,684.0,0.0,1,516.0,0
1297,1297,-0.26477215169145374,-0.3,0.0,1.0,280.0,790.0,0.0,1,120.0,0
1298,1298,0.36692515829856676,0.4,0.0,0.0,428.0,832.0,0.0,1,360.0,1
1299,1299,-0.16069780655407828,-0.2,0.0,1.0,311.0,995.0,0.0,1,344.0,0
1300,1300,0.614578891556434,0.6,1.0,1.0,475.0,633.0,1.0,1,322.0,1
1301,1301,0.4177240993195038,0.4,0.0,0.0,400.0,500.0,0.0,1,730.0,1
1302,1302,-0.12278984668413162,-0.1,0.0,1.0,442.0,646.0,1.0,0,442.0,1
1303,1303,-0.38470919742743015,-0.4,0.0,1.0,374.0,620.0,1.0,0,876.0,1
1304,1304,0.048876946975580204,0.0,1.0,1.0,493.0,811.0,0.0,0,426.0,0
1305,1305,-0.32869935258953464,-0.3,1.0,0.0,345.0,998.0,0.0,0,57.0,1
1306,1306,0.009083469767982688,0.0,0.0,0.0,434.0,850.0,1.0,0,236.0,0
1307,1307,0.8784941762555215,0.9,1.0,1.0,431.0,927.0,1.0,1,322.0,1
1308,1308,0.2384986824777725,0.2,1.0,1.0,380.0,658.0,1.0,1,642.0,1
1309,1309,-0.1284825136148472,-0.1,0.0,1.0,351.0,512.0,1.0,0,1397.0,1
1310,1310,-0.8130277000415344,-0.8,1.0,0.0,398.0,708.0,0.0,0,264.0,1
1311,1311,-0.7794031300689499,-0.8,1.0,0.0,315.0,618.0,0.0,0,297.0,1
1312,1312,-0.5146789770606994,-0.5,0.0,1.0,340.0,668.0,1.0,0,692.0,1
1313,1313,0.23001879557990834,0.2,0.0,0.0,285.0,995.0,0.0,1,1750.0,1
1314,1314,0.03345506872583082,0.0,0.0,0.0,447.0,977.0,0.0,1,336.0,1
1315,1315,-0.8226811617192936,-0.8,1.0,0.0,287.0,522.0,0.0,0,721.0,1
1316,1316,-0.06112153680622845,-0.1,1.0,0.0,331.0,822.0,0.0,0,337.0,1
1317,1317,-0.3037846702409649,-0.3,0.0,1.0,399.0,656.0,1.0,0,905.0,1
1318,1318,0.7117228258005864,0.7,1.0,1.0,451.0,892.0,1.0,1,1017.0,1
1319,1319,0.20552022682923277,0.2,1.0,1.0,373.0,704.0,1.0,1,633.0,1
1320,1320,0.8506424671083782,0.9,1.0,1.0,307.0,670.0,1.0,1,243.0,1
1321,1321,-0.7326950523635509,-0.7,1.0,0.0,380.0,939.0,1.0,1,-209.0,0
1322,1322,0.3319087891255056,0.3,1.0,1.0,394.0,633.0,0.0,0,443.0,0
1323,1323,0.2790614450519421,0.3,1.0,1.0,399.0,564.0,1.0,1,1187.0,1
1324,1324,-0.06796638467533178,-0.1,1.0,0.0,355.0,782.0,0.0,0,463.0,1
1325,1325,0.05215064765338706,0.1,0.0,0.0,426.0,776.0,0.0,1,798.0,1
1326,1326,-0.3429554678700467,-0.3,0.0,1.0,449.0,931.0,1.0,0,390.0,1
1327,1327,-0.6808576696070416,-0.7,1.0,0.0,293.0,723.0,0.0,0,294.0,1
1328,1328,-0.1074690007301502,-0.1,0.0,1.0,396.0,586.0,1.0,0,348.0,1
1329,1329,-0.05123985262352193,-0.1,0.0,1.0,433.0,909.0,1.0,0,538.0,1
1330,1330,0.2048720240969527,0.2,1.0,1.0,375.0,777.0,1.0,1,808.0,1
1331,1331,-0.07717841684775029,-0.1,0.0,1.0,280.0,932.0,0.0,1,258.0,0
1332,1332,0.27320878427544903,0.3,1.0,1.0,439.0,506.0,0.0,0,1425.0,0
1333,1333,0.4234441458932071,0.4,1.0,1.0,303.0,589.0,1.0,1,488.0,1
1334,1334,-0.17049253297718303,-0.2,0.0,1.0,403.0,811.0,0.0,1,86.0,0
1335,1335,-0.5384728880894487,-0.5,0.0,1.0,491.0,795.0,0.0,1,204.0,0
1336,1336,0.057820776478350266,0.1,1.0,1.0,256.0,617.0,0.0,0,807.0,0
1337,1337,-0.6727551013942796,-0.7,1.0,0.0,294.0,929.0,0.0,0,257.0,1
1338,1338,0.809658045237286,0.8,1.0,1.0,499.0,950.0,1.0,1,491.0,1
1339,1339,-0.3841340285242837,-0.4,0.0,1.0,324.0,508.0,1.0,0,618.0,1
1340,1340,0.06928169914713078,0.1,0.0,0.0,452.0,848.0,0.0,1,260.0,1
1341,1341,0.5724758696673692,0.6,0.0,0.0,387.0,974.0,0.0,1,169.0,1
1342,1342,0.5624804730284853,0.6,0.0,0.0,286.0,837.0,0.0,1,227.0,1
1343,1343,-0.03841533725815505,-0.0,0.0,1.0,343.0,783.0,0.0,1,234.0,0
1344,1344,0.5710888688318149,0.6,0.0,0.0,453.0,668.0,0.0,1,289.0,1
1345,1345,0.7819762304647319,0.8,0.0,0.0,408.0,575.0,0.0,1,357.0,1
1346,1346,-0.07572010114465866,-0.1,0.0,1.0,264.0,605.0,1.0,0,861.0,1
1347,1347,0.237469642612805,0.2,1.0,1.0,394.0,552.0,1.0,1,834.0,1
1348,1348,-0.31261598158144,-0.3,0.0,1.0,461.0,879.0,1.0,0,410.0,1
1349,1349,-0.07782215763685685,-0.1,0.0,1.0,285.0,681.0,0.0,1,414.0,0
1350,1350,0.7678423054646225,0.8,0.0,0.0,473.0,738.0,0.0,1,309.0,1
1351,1351,0.7213777708364136,0.7,1.0,1.0,470.0,710.0,1.0,1,260.0,1
1352,1352,-0.8949888817124252,-0.9,1.0,0.0,287.0,854.0,0.0,0,279.0,1
1353,1353,-0.8389743058624343,-0.8,1.0,0.0,389.0,694.0,0.0,0,297.0,1
1354,1354,-0.3222036040992128,-0.3,1.0,0.0,420.0,780.0,0.0,0,110.0,1
1355,1355,-0.644993185239546,-0.6,0.0,1.0,306.0,682.0,0.0,1,222.0,0
1356,1356,0.27954235315713516,0.3,1.0,1.0,465.0,664.0,1.0,1,761.0,1
1357,1357,0.676338827781691,0.7,0.0,0.0,289.0,510.0,0.0,1,371.0,1
1358,1358,-0.24992422551471272,-0.2,0.0,1.0,295.0,630.0,1.0,0,875.0,1
1359,1359,-0.8636456708306451,-0.9,0.0,1.0,306.0,984.0,0.0,1,-200.0,0
1360,1360,0.31781113241434766,0.3,0.0,0.0,394.0,791.0,0.0,1,245.0,1
1361,1361,0.43300705004629514,0.4,0.0,0.0,327.0,534.0,0.0,1,519.0,1
1362,1362,0.8065913396976648,0.8,0.0,0.0,369.0,956.0,0.0,1,255.0,1
1363,1363,-0.41180214311821023,-0.4,0.0,1.0,488.0,885.0,1.0,0,357.0,1
1364,1364,0.2248227998294846,0.2,1.0,1.0,413.0,611.0,1.0,1,406.0,1
1365,1365,-0.7837539144959538,-0.8,0.0,1.0,275.0,526.0,1.0,0,529.0,1
1366,1366,-0.37129791314089744,-0.4,0.0,1.0,495.0,547.0,1.0,0,998.0,1
1367,1367,-0.4200983970588034,-0.4,1.0,0.0,437.0,525.0,0.0,0,698.0,1
1368,1368,0.7533757818991272,0.8,1.0,1.0,450.0,530.0,1.0,1,410.0,1
1369,1369,-0.8237588859216886,-0.8,1.0,0.0,391.0,588.0,0.0,0,441.0,1
1370,1370,-0.4652625277353523,-0.5,0.0,1.0,436.0,538.0,1.0,0,856.0,1
1371,1371,-0.8700243626779796,-0.9,1.0,0.0,427.0,788.0,0.0,0,645.0,1
1372,1372,0.7881270553365501,0.8,1.0,1.0,279.0,540.0,1.0,1,531.0,1
1373,1373,-0.2583595463118594,-0.3,1.0,0.0,408.0,716.0,0.0,0,186.0,1
1374,1374,-0.8341589797924314,-0.8,0.0,1.0,291.0,783.0,1.0,0,96.0,1
1375,1375,-0.1785988992572688,-0.2,1.0,0.0,453.0,638.0,0.0,0,309.0,1
1376,1376,-0.7850226943578832,-0.8,1.0,0.0,428.0,901.0,0.0,0,171.0,1
1377,1377,-0.8061986874821394,-0.8,0.0,1.0,265.0,656.0,1.0,0,979.0,1
1378,1378,-0.28291393149325383,-0.3,1.0,0.0,366.0,723.0,1.0,1,401.0,0
1379,1379,-0.20660544888869503,-0.2,0.0,1.0,398.0,588.0,0.0,1,634.0,0
1380,1380,-0.4129228672723287,-0.4,1.0,0.0,281.0,846.0,0.0,0,153.0,1
1381,1381,0.8164838123176933,0.8,1.0,1.0,478.0,962.0,1.0,1,230.0,1
1382,1382,-0.1980996303034429,-0.2,1.0,0.0,478.0,652.0,0.0,0,530.0,1
1383,1383,-0.8865024961432182,-0.9,1.0,0.0,283.0,974.0,0.0,0,503.0,1
1384,1384,-0.736199579997351,-0.7,0.0,1.0,336.0,879.0,1.0,0,245.0,1
1385,1385,-0.13073138379722948,-0.1,0.0,1.0,479.0,646.0,0.0,1,465.0,0
1386,1386,-0.4446167419563631,-0.4,0.0,1.0,330.0,916.0,1.0,0,1054.0,1
1387,1387,-0.3771965378390052,-0.4,1.0,0.0,315.0,930.0,0.0,0,35.0,1
1388,1388,0.18201841295543375,0.2,1.0,1.0,446.0,614.0,0.0,0,430.0,0
1389,1389,-0.5484612284519568,-0.5,1.0,0.0,491.0,783.0,0.0,0,346.0,1
1390,1390,-0.08786346459757688,-0.1,0.0,1.0,273.0,623.0,0.0,1,2364.0,0
1391,1391,0.654187044847988,0.7,0.0,0.0,457.0,565.0,0.0,1,318.0,1
1392,1392,0.368299189642027,0.4,0.0,0.0,421.0,509.0,0.0,1,440.0,1
1393,1393,-0.5566701923480448,-0.6,1.0,0.0,366.0,582.0,0.0,0,682.0,1
1394,1394,0.43419437322715304,0.4,0.0,0.0,274.0,940.0,0.0,1,726.0,1
1395,1395,0.2941582394198575,0.3,1.0,1.0,281.0,604.0,1.0,1,805.0,1
1396,1396,0.45831122730793783,0.5,0.0,0.0,375.0,615.0,0.0,1,650.0,1
1397,1397,-0.09437609167585304,-0.1,1.0,0.0,425.0,785.0,0.0,0,420.0,1
1398,1398,0.7074106014465361,0.7,1.0,1.0,437.0,620.0,1.0,1,403.0,1
1399,1399,0.10087665058264894,0.1,0.0,0.0,311.0,940.0,0.0,1,-1.0,1
1400,1400,-0.6380008665560002,-0.6,1.0,0.0,271.0,968.0,0.0,0,111.0,1
1401,1401,-0.42859779808639803,-0.4,1.0,0.0,408.0,558.0,0.0,0,444.0,1
1402,1402,0.5194788971137182,0.5,0.0,0.0,431.0,956.0,0.0,1,153.0,1
1403,1403,0.27484219867618254,0.3,1.0,1.0,423.0,912.0,1.0,1,295.0,1
1404,1404,-0.374304241221623,-0.4,1.0,0.0,276.0,663.0,0.0,0,331.0,1
1405,1405,-0.3814562955929829,-0.4,1.0,0.0,438.0,778.0,0.0,0,204.0,1
1406,1406,-0.14237064712657532,-0.1,0.0,1.0,305.0,584.0,0.0,1,581.0,0
1407,1407,0.11773785607162368,0.1,1.0,1.0,286.0,908.0,1.0,1,136.0,1
1408,1408,-0.6917695863375635,-0.7,0.0,1.0,316.0,726.0,1.0,0,318.0,1
1409,1409,-0.6620516301751518,-0.7,0.0,1.0,379.0,803.0,1.0,0,488.0,1
1410,1410,0.056390279618467654,0.1,0.0,0.0,425.0,676.0,1.0,0,1399.0,0
1411,1411,-0.3651369426430998,-0.4,0.0,1.0,452.0,940.0,1.0,0,398.0,1
1412,1412,0.4292112993324101,0.4,1.0,1.0,282.0,515.0,1.0,1,533.0,1
1413,1413,-0.46903521047536717,-0.5,0.0,1.0,436.0,972.0,1.0,0,212.0,1
1414,1414,-0.5726396619364007,-0.6,0.0,1.0,301.0,800.0,1.0,0,329.0,1
1415,1415,-0.38524519868105167,-0.4,1.0,0.0,293.0,629.0,0.0,0,1648.0,1
1416,1416,0.22511934386815302,0.2,1.0,1.0,391.0,507.0,1.0,1,732.0,1
1417,1417,0.8570269544192138,0.9,0.0,0.0,301.0,725.0,0.0,1,274.0,1
1418,1418,-0.09748633954398167,-0.1,0.0,1.0,313.0,723.0,0.0,1,394.0,0
1419,1419,0.6594314269357476,0.7,1.0,1.0,497.0,576.0,1.0,1,477.0,1
1420,1420,0.1735596452649767,0.2,0.0,0.0,452.0,502.0,0.0,1,366.0,1
1421,1421,-0.3575591087111676,-0.4,1.0,0.0,305.0,741.0,0.0,0,204.0,1
1422,1422,0.21822164198156246,0.2,1.0,1.0,390.0,560.0,1.0,1,650.0,1
1423,1423,-0.8248115700678218,-0.8,1.0,0.0,365.0,523.0,0.0,0,532.0,1
1424,1424,0.42200545846360604,0.4,1.0,1.0,357.0,540.0,1.0,1,553.0,1
1425,1425,-0.07731959642023856,-0.1,0.0,1.0,390.0,697.0,0.0,1,623.0,0
1426,1426,0.7315802915217314,0.7,0.0,0.0,460.0,785.0,0.0,1,115.0,1
1427,1427,0.6820409892461649,0.7,1.0,1.0,259.0,593.0,1.0,1,1048.0,1
1428,1428,0.6270264223469874,0.6,1.0,1.0,273.0,621.0,1.0,1,506.0,1
1429,1429,0.8808891143821026,0.9,0.0,0.0,487.0,983.0,0.0,1,70.0,1
1430,1430,-0.10961944237020183,-0.1,0.0,1.0,296.0,978.0,0.0,1,1306.0,0
1431,1431,0.5890347924366647,0.6,0.0,0.0,489.0,533.0,0.0,1,928.0,1
1432,1432,0.3694429700233076,0.4,1.0,1.0,436.0,953.0,0.0,0,81.0,0
1433,1433,-0.4191678908395076,-0.4,0.0,1.0,326.0,618.0,1.0,0,1096.0,1
1434,1434,-0.4526660491308057,-0.5,1.0,0.0,376.0,607.0,0.0,0,257.0,1
1435,1435,0.19682546714782745,0.2,0.0,0.0,258.0,799.0,0.0,1,33.0,1
1436,1436,0.8880483609660305,0.9,1.0,1.0,441.0,882.0,1.0,1,147.0,1
1437,1437,-0.5908405707913487,-0.6,1.0,0.0,485.0,620.0,0.0,0,245.0,1
1438,1438,-0.14580415594451268,-0.1,1.0,0.0,298.0,840.0,0.0,0,62.0,1
1439,1439,-0.8881897748368353,-0.9,0.0,1.0,445.0,936.0,1.0,0,169.0,1
1440,1440,0.7038450784325413,0.7,1.0,1.0,260.0,619.0,1.0,1,441.0,1
1441,1441,-0.7010579506904819,-0.7,0.0,1.0,333.0,864.0,1.0,0,273.0,1
1442,1442,0.08989693690964828,0.1,0.0,0.0,460.0,766.0,1.0,0,294.0,0
1443,1443,0.2728132152992814,0.3,1.0,1.0,498.0,611.0,1.0,1,501.0,1
1444,1444,0.035873069072782315,0.0,0.0,0.0,487.0,937.0,0.0,1,206.0,1
1445,1445,0.6867523568484329,0.7,1.0,1.0,485.0,857.0,1.0,1,398.0,1
1446,1446,0.4578001046827126,0.5,1.0,1.0,424.0,646.0,1.0,1,740.0,1
1447,1447,-0.1817185519386526,-0.2,0.0,1.0,306.0,856.0,0.0,1,18.0,0
1448,1448,0.33216105168846954,0.3,1.0,1.0,333.0,678.0,1.0,1,219.0,1
1449,1449,-0.1997294503930266,-0.2,0.0,1.0,456.0,628.0,1.0,0,816.0,1
1450,1450,0.7746552982619691,0.8,1.0,1.0,400.0,610.0,1.0,1,570.0,1
1451,1451,-0.890916499908056,-0.9,0.0,1.0,376.0,790.0,1.0,0,634.0,1
1452,1452,0.5207343151248435,0.5,0.0,0.0,407.0,515.0,0.0,1,478.0,1
1453,1453,-0.5454028299139417,-0.5,1.0,0.0,281.0,695.0,0.0,0,724.0,1
1454,1454,-0.8447436570925045,-0.8,0.0,1.0,452.0,680.0,1.0,0,368.0,1
1455,1455,0.44596840713721175,0.4,0.0,0.0,327.0,858.0,0.0,1,105.0,1
1456,1456,-0.79138542549244,-0.8,1.0,0.0,471.0,615.0,0.0,0,714.0,1
1457,1457,0.8229892806946905,0.8,0.0,0.0,261.0,960.0,0.0,1,189.0,1
1458,1458,0.35658270377847,0.4,0.0,0.0,340.0,564.0,0.0,1,216.0,1
1459,1459,0.7489127324027175,0.7,1.0,1.0,492.0,774.0,1.0,1,394.0,1
1460,1460,0.5609859233999196,0.6,1.0,1.0,402.0,896.0,1.0,1,222.0,1
1461,1461,-0.2946212343470378,-0.3,1.0,0.0,381.0,853.0,0.0,0,146.0,1
1462,1462,0.2863945826634712,0.3,1.0,1.0,478.0,994.0,1.0,1,198.0,1
1463,1463,0.567008290316433,0.6,0.0,0.0,360.0,561.0,0.0,1,739.0,1
1464,1464,0.1216699374012361,0.1,0.0,0.0,329.0,507.0,0.0,1,434.0,1
1465,1465,-0.15424028848186766,-0.2,0.0,1.0,251.0,898.0,1.0,0,561.0,1
1466,1466,-0.7947027238667034,-0.8,1.0,0.0,431.0,550.0,0.0,0,259.0,1
1467,1467,-0.6441252981409287,-0.6,0.0,1.0,443.0,924.0,1.0,0,353.0,1
1468,1468,0.8020860224851375,0.8,0.0,0.0,423.0,689.0,0.0,1,258.0,1
1469,1469,-0.4268753660236362,-0.4,1.0,0.0,352.0,862.0,0.0,0,276.0,1
1470,1470,-0.37391863679618453,-0.4,0.0,1.0,416.0,880.0,1.0,0,214.0,1
1471,1471,-0.40633635150720765,-0.4,1.0,0.0,426.0,636.0,0.0,0,468.0,1
1472,1472,-0.09381072186153139,-0.1,0.0,1.0,274.0,598.0,1.0,0,578.0,1
1473,1473,-0.8779280855242729,-0.9,1.0,0.0,282.0,890.0,0.0,0,178.0,1
1474,1474,0.7125500894937663,0.7,1.0,1.0,338.0,616.0,1.0,1,476.0,1
1475,1475,-0.4521514637899881,-0.5,0.0,1.0,451.0,682.0,1.0,0,597.0,1
1476,1476,0.2676931427261354,0.3,1.0,1.0,483.0,653.0,0.0,0,424.0,0
1477,1477,-0.6692714897823809,-0.7,1.0,0.0,422.0,819.0,0.0,0,259.0,1
1478,1478,0.5516007399660124,0.6,1.0,1.0,452.0,810.0,1.0,1,628.0,1
1479,1479,0.7623057926929525,0.8,0.0,0.0,294.0,663.0,0.0,1,473.0,1
1480,1480,-0.7907400492904679,-0.8,1.0,0.0,429.0,784.0,0.0,0,157.0,1
1481,1481,-0.6182380130521894,-0.6,0.0,1.0,300.0,833.0,1.0,0,387.0,1
1482,1482,0.45308683594076105,0.5,0.0,0.0,418.0,518.0,0.0,1,634.0,1
1483,1483,0.2517273440461142,0.3,0.0,0.0,333.0,894.0,0.0,1,193.0,1
1484,1484,-0.795377330667605,-0.8,0.0,1.0,281.0,902.0,1.0,0,237.0,1
1485,1485,0.8022910153976482,0.8,0.0,0.0,317.0,807.0,0.0,1,86.0,1
1486,1486,0.3897094447733397,0.4,1.0,1.0,301.0,676.0,0.0,0,1063.0,0
1487,1487,-0.02860277833012348,-0.0,0.0,1.0,389.0,787.0,1.0,0,1164.0,1
1488,1488,-0.3364213547889725,-0.3,1.0,0.0,253.0,926.0,0.0,0,661.0,1
1489,1489,0.5108912332217354,0.5,0.0,0.0,255.0,526.0,0.0,1,369.0,1
1490,1490,0.4357493962978146,0.4,1.0,1.0,355.0,785.0,1.0,1,210.0,1
1491,1491,-0.19638704406438856,-0.2,0.0,1.0,445.0,828.0,0.0,1,1127.0,0
1492,1492,0.2434761215242075,0.2,1.0,1.0,438.0,521.0,0.0,0,901.0,0
1493,1493,0.44584029460056984,0.4,1.0,1.0,368.0,669.0,1.0,1,873.0,1
