,trial,coherence,coherence_bin,green_side,correct_side,target_onset,checker_onset,decision,green_decision,decision_time,correct_decision
0,0,-0.36777671603742024,-0.4,0.0,1.0,276.0,510.0,1.0,0,304.0,1
1,1,-0.2426458773962723,-0.2,0.0,1.0,443.0,672.0,1.0,0,265.0,1
2,2,-0.04356323425076758,-0.0,1.0,0.0,345.0,553.0,0.0,0,962.0,1
3,3,0.8553772519585182,0.9,1.0,1.0,315.0,529.0,1.0,1,186.0,1
4,4,0.19066780464774424,0.2,0.0,0.0,390.0,959.0,0.0,1,451.0,1
5,5,-0.4819391795994675,-0.5,1.0,0.0,418.0,636.0,0.0,0,586.0,1
6,6,-0.6144293757202679,-0.6,0.0,1.0,485.0,505.0,1.0,0,560.0,1
7,7,0.45927738912321525,0.5,0.0,0.0,424.0,843.0,0.0,1,233.0,1
8,8,-0.2854682895731451,-0.3,0.0,1.0,292.0,732.0,1.0,0,276.0,1
9,9,-0.29979158028284036,-0.3,1.0,0.0,437.0,714.0,0.0,0,409.0,1
10,10,0.873130814533842,0.9,0.0,0.0,314.0,806.0,0.0,1,240.0,1
11,11,0.19037852533309552,0.2,1.0,1.0,384.0,768.0,0.0,0,58.0,0
12,12,0.8356307279774972,0.8,1.0,1.0,370.0,807.0,1.0,1,183.0,1
13,13,0.22413051975765585,0.2,1.0,1.0,359.0,778.0,1.0,1,303.0,1
14,14,-0.1957906036900069,-0.2,1.0,0.0,439.0,761.0,0.0,0,450.0,1
15,15,-0.18606542858571984,-0.2,0.0,1.0,363.0,704.0,1.0,0,423.0,1
16,16,0.2485465500852878,0.2,1.0,1.0,260.0,794.0,1.0,1,296.0,1
17,17,-0.30101669452789503,-0.3,1.0,0.0,484.0,656.0,0.0,0,420.0,1
18,18,-0.030994501292516352,-0.0,1.0,0.0,418.0,739.0,1.0,1,783.0,0
19,19,-0.7697144602097871,-0.8,1.0,0.0,289.0,591.0,0.0,0,270.0,1
20,20,-0.1129042327611518,-0.1,0.0,1.0,378.0,757.0,1.0,0,295.0,1
21,21,-0.30125095348632247,-0.3,0.0,1.0,307.0,597.0,1.0,0,256.0,1
22,22,-0.13488721758005995,-0.1,1.0,0.0,388.0,761.0,0.0,0,261.0,1
23,23,-0.43367024361931406,-0.4,0.0,1.0,455.0,773.0,1.0,0,342.0,1
24,24,-0.5222762549960723,-0.5,0.0,1.0,491.0,742.0,1.0,0,227.0,1
25,25,0.16767102307272574,0.2,1.0,1.0,267.0,782.0,1.0,1,161.0,1
26,26,-0.6191553098255296,-0.6,1.0,0.0,269.0,948.0,0.0,0,113.0,1
27,27,-0.013899883336527474,-0.0,0.0,1.0,368.0,771.0,0.0,1,3861.0,0
28,28,-0.2598817018152001,-0.3,1.0,0.0,378.0,761.0,0.0,0,371.0,1
29,29,-0.36778293911144433,-0.4,0.0,1.0,395.0,664.0,1.0,0,321.0,1
30,30,-0.573865010997967,-0.6,1.0,0.0,284.0,501.0,0.0,0,545.0,1
31,31,-0.4591809255586487,-0.5,0.0,1.0,347.0,635.0,1.0,0,278.0,1
32,32,-0.5987502859931241,-0.6,1.0,0.0,434.0,814.0,0.0,0,312.0,1
33,33,0.7845774961245499,0.8,0.0,0.0,297.0,592.0,0.0,1,521.0,1
34,34,0.5650889759419523,0.6,0.0,0.0,298.0,624.0,0.0,1,408.0,1
35,35,-0.2199951367659022,-0.2,1.0,0.0,442.0,844.0,0.0,0,224.0,1
36,36,0.2806355916817377,0.3,1.0,1.0,482.0,544.0,1.0,1,374.0,1
37,37,-0.2881041780056729,-0.3,1.0,0.0,265.0,600.0,0.0,0,465.0,1
38,38,-0.43216231087654994,-0.4,0.0,1.0,293.0,801.0,1.0,0,206.0,1
39,39,-0.3362933803216107,-0.3,0.0,1.0,378.0,992.0,1.0,0,290.0,1
40,40,0.3243697245714715,0.3,1.0,1.0,325.0,914.0,1.0,1,-19.0,1
41,41,0.5519304037981893,0.6,1.0,1.0,250.0,854.0,1.0,1,146.0,1
42,42,0.4348752996712576,0.4,1.0,1.0,344.0,888.0,1.0,1,338.0,1
43,43,-0.7217975034639872,-0.7,0.0,1.0,383.0,965.0,1.0,0,112.0,1
44,44,0.07236866890450211,0.1,1.0,1.0,377.0,700.0,1.0,1,683.0,1
45,45,-0.5095859269844689,-0.5,1.0,0.0,409.0,977.0,0.0,0,64.0,1
46,46,0.4962438872510061,0.5,0.0,0.0,281.0,852.0,0.0,1,607.0,1
47,47,-0.6878386782304717,-0.7,0.0,1.0,323.0,912.0,1.0,0,145.0,1
48,48,0.20031294527693444,0.2,0.0,0.0,265.0,814.0,0.0,1,571.0,1
49,49,-0.4009407709128257,-0.4,1.0,0.0,340.0,915.0,0.0,0,205.0,1
50,50,-0.8782545028166335,-0.9,1.0,0.0,344.0,716.0,0.0,0,140.0,1
51,51,0.11023376086223446,0.1,0.0,0.0,424.0,736.0,0.0,1,1080.0,1
52,52,-0.033961794062349115,-0.0,0.0,1.0,359.0,843.0,1.0,0,268.0,1
53,53,0.8355944266571694,0.8,1.0,1.0,412.0,710.0,1.0,1,238.0,1
54,54,-0.30911630461826034,-0.3,0.0,1.0,379.0,501.0,1.0,0,320.0,1
55,55,-0.026333947098173716,-0.0,1.0,0.0,440.0,703.0,0.0,0,517.0,1
56,56,0.2367346092311836,0.2,0.0,0.0,367.0,604.0,0.0,1,649.0,1
57,57,-0.5061831562318136,-0.5,1.0,0.0,491.0,653.0,0.0,0,266.0,1
58,58,-0.7219288087509304,-0.7,1.0,0.0,283.0,755.0,0.0,0,252.0,1
59,59,-0.2918421663711249,-0.3,0.0,1.0,416.0,693.0,1.0,0,411.0,1
60,60,-0.47337233986339206,-0.5,0.0,1.0,288.0,879.0,1.0,0,123.0,1
61,61,-0.08025490209548847,-0.1,1.0,0.0,358.0,545.0,0.0,0,1207.0,1
62,62,0.40422188435306794,0.4,0.0,0.0,327.0,921.0,0.0,1,282.0,1
63,63,-0.8722110435144966,-0.9,0.0,1.0,492.0,729.0,1.0,0,109.0,1
64,64,-0.33611715260517006,-0.3,1.0,0.0,431.0,724.0,0.0,0,385.0,1
65,65,0.8863218312589257,0.9,1.0,1.0,445.0,699.0,1.0,1,166.0,1
66,66,-0.1271829070911802,-0.1,0.0,1.0,432.0,599.0,1.0,0,1229.0,1
67,67,-0.34109861576739986,-0.3,1.0,0.0,330.0,978.0,0.0,0,222.0,1
68,68,-0.41170578662853524,-0.4,1.0,0.0,476.0,796.0,0.0,0,168.0,1
69,69,-0.7520544316235172,-0.8,0.0,1.0,275.0,798.0,1.0,0,127.0,1
70,70,-0.4189999363464491,-0.4,0.0,1.0,330.0,623.0,1.0,0,267.0,1
71,71,-0.4267068626656344,-0.4,1.0,0.0,343.0,687.0,0.0,0,490.0,1
72,72,0.04089194462429813,0.0,0.0,0.0,269.0,696.0,0.0,1,2985.0,1
73,73,-0.3217701965186055,-0.3,0.0,1.0,273.0,964.0,1.0,0,433.0,1
74,74,-0.4122109991671177,-0.4,0.0,1.0,453.0,597.0,1.0,0,300.0,1
75,75,-0.6643419733066848,-0.7,1.0,0.0,414.0,961.0,0.0,0,55.0,1
76,76,-0.13105518177557762,-0.1,1.0,0.0,445.0,753.0,0.0,0,342.0,1
77,77,0.8867014710312312,0.9,0.0,0.0,258.0,998.0,0.0,1,314.0,1
78,78,0.1832724376155378,0.2,1.0,1.0,402.0,892.0,1.0,1,276.0,1
79,79,-0.7882745522655745,-0.8,0.0,1.0,251.0,856.0,1.0,0,183.0,1
80,80,0.3769031298364146,0.4,0.0,0.0,488.0,539.0,0.0,1,413.0,1
81,81,0.8470069442514544,0.8,0.0,0.0,318.0,582.0,0.0,1,310.0,1
82,82,0.48492995424268137,0.5,1.0,1.0,367.0,555.0,1.0,1,208.0,1
83,83,-0.2169707836453294,-0.2,1.0,0.0,268.0,613.0,0.0,0,589.0,1
84,84,-0.1424870456080919,-0.1,0.0,1.0,278.0,688.0,1.0,0,204.0,1
85,85,-0.5159299874865017,-0.5,0.0,1.0,304.0,605.0,1.0,0,351.0,1
86,86,0.734097936921657,0.7,1.0,1.0,423.0,759.0,1.0,1,358.0,1
87,87,-0.5802683927872234,-0.6,1.0,0.0,388.0,702.0,0.0,0,350.0,1
88,88,-0.047803326063270424,-0.0,1.0,0.0,407.0,833.0,0.0,0,610.0,1
89,89,0.5383854946786845,0.5,0.0,0.0,359.0,860.0,0.0,1,231.0,1
90,90,0.8884021486129662,0.9,1.0,1.0,377.0,640.0,1.0,1,243.0,1
91,91,-0.5191078250702015,-0.5,0.0,1.0,317.0,839.0,1.0,0,264.0,1
92,92,0.26745142231329055,0.3,0.0,0.0,421.0,893.0,0.0,1,546.0,1
93,93,0.7261794784012267,0.7,1.0,1.0,420.0,519.0,1.0,1,311.0,1
94,94,-0.5938399948141669,-0.6,1.0,0.0,442.0,511.0,0.0,0,437.0,1
95,95,-0.23113757436504356,-0.2,0.0,1.0,397.0,986.0,1.0,0,417.0,1
96,96,-0.559495516289964,-0.6,1.0,0.0,264.0,887.0,0.0,0,159.0,1
97,97,-0.5417802717861733,-0.5,1.0,0.0,307.0,845.0,0.0,0,158.0,1
98,98,-0.8378823131309081,-0.8,0.0,1.0,386.0,982.0,1.0,0,82.0,1
99,99,-0.3442523040160248,-0.3,1.0,0.0,272.0,840.0,0.0,0,378.0,1
100,100,0.5952933631089871,0.6,0.0,0.0,337.0,689.0,0.0,1,174.0,1
101,101,0.451914655779979,0.5,0.0,0.0,419.0,580.0,0.0,1,241.0,1
102,102,0.3664695730498547,0.4,0.0,0.0,472.0,677.0,0.0,1,361.0,1
103,103,0.20816236640087016,0.2,0.0,0.0,422.0,870.0,0.0,1,328.0,1
104,104,-0.6803990395047252,-0.7,0.0,1.0,266.0,970.0,1.0,0,194.0,1
105,105,0.4862539504594404,0.5,1.0,1.0,489.0,961.0,1.0,1,390.0,1
106,106,0.036260735757235873,0.0,0.0,0.0,494.0,829.0,0.0,1,1017.0,1
107,107,-0.5190529295212816,-0.5,1.0,0.0,281.0,936.0,0.0,0,223.0,1
108,108,-0.09040372827157417,-0.1,1.0,0.0,324.0,833.0,0.0,0,573.0,1
109,109,-0.3601208173644178,-0.4,1.0,0.0,365.0,852.0,0.0,0,493.0,1
110,110,-0.45072310963934814,-0.5,0.0,1.0,294.0,939.0,1.0,0,207.0,1
111,111,0.4396701751302551,0.4,0.0,0.0,343.0,804.0,0.0,1,153.0,1
112,112,0.4851573232950318,0.5,0.0,0.0,432.0,994.0,0.0,1,374.0,1
113,113,0.4321019085343011,0.4,0.0,0.0,311.0,874.0,0.0,1,235.0,1
114,114,-0.2942111453976357,-0.3,0.0,1.0,395.0,864.0,1.0,0,221.0,1
115,115,0.4471661503982888,0.4,0.0,0.0,407.0,911.0,0.0,1,272.0,1
116,116,0.3351333015235024,0.3,0.0,0.0,334.0,944.0,0.0,1,32.0,1
117,117,-0.6283952517054665,-0.6,0.0,1.0,363.0,558.0,1.0,0,279.0,1
118,118,-0.4657861789160027,-0.5,1.0,0.0,344.0,690.0,0.0,0,286.0,1
119,119,0.1973190808290325,0.2,1.0,1.0,436.0,629.0,1.0,1,645.0,1
120,120,0.7152896134805863,0.7,1.0,1.0,295.0,714.0,1.0,1,141.0,1
121,121,0.7977725303535698,0.8,1.0,1.0,293.0,596.0,1.0,1,301.0,1
122,122,0.744110962641182,0.7,1.0,1.0,334.0,519.0,1.0,1,157.0,1
123,123,-0.5534277332306156,-0.6,0.0,1.0,272.0,962.0,1.0,0,126.0,1
124,124,-0.5642337907031137,-0.6,0.0,1.0,381.0,889.0,1.0,0,160.0,1
125,125,-0.38548763945629116,-0.4,1.0,0.0,298.0,866.0,0.0,0,386.0,1
126,126,0.34594996132047584,0.3,0.0,0.0,393.0,938.0,0.0,1,379.0,1
127,127,-0.06793842342537104,-0.1,0.0,1.0,286.0,718.0,1.0,0,346.0,1
128,128,0.24918787633906636,0.2,0.0,0.0,274.0,687.0,0.0,1,579.0,1
129,129,-0.5259994429798216,-0.5,1.0,0.0,413.0,963.0,0.0,0,44.0,1
130,130,-0.2214748848632555,-0.2,0.0,1.0,309.0,712.0,1.0,0,389.0,1
131,131,0.6170415722291026,0.6,1.0,1.0,497.0,710.0,1.0,1,223.0,1
132,132,-0.8079189963661451,-0.8,1.0,0.0,325.0,553.0,0.0,0,442.0,1
133,133,-0.13727139878392325,-0.1,0.0,1.0,425.0,527.0,1.0,0,518.0,1
134,134,0.10719542276098981,0.1,1.0,1.0,481.0,515.0,1.0,1,1444.0,1
135,135,0.11497352304225361,0.1,0.0,0.0,349.0,659.0,0.0,1,942.0,1
136,136,-0.40070410891721103,-0.4,0.0,1.0,377.0,748.0,1.0,0,475.0,1
137,137,0.30404067981297145,0.3,1.0,1.0,310.0,738.0,1.0,1,372.0,1
138,138,-0.00857521931462668,-0.0,1.0,0.0,475.0,849.0,1.0,1,336.0,0
139,139,-0.370688060544065,-0.4,1.0,0.0,482.0,847.0,0.0,0,231.0,1
140,140,-0.014688906632083887,-0.0,1.0,0.0,254.0,930.0,1.0,1,826.0,0
141,141,-0.42151689296926137,-0.4,1.0,0.0,408.0,904.0,0.0,0,178.0,1
142,142,-0.2609182037576938,-0.3,0.0,1.0,433.0,638.0,1.0,0,499.0,1
143,143,0.5342448657669115,0.5,0.0,0.0,303.0,541.0,0.0,1,386.0,1
144,144,-0.3262631100546971,-0.3,0.0,1.0,471.0,849.0,1.0,0,110.0,1
145,145,0.22844299999885231,0.2,1.0,1.0,404.0,745.0,1.0,1,221.0,1
146,146,0.31753312652743915,0.3,0.0,0.0,347.0,766.0,0.0,1,297.0,1
147,147,0.2808990442804281,0.3,1.0,1.0,351.0,834.0,1.0,1,325.0,1
148,148,-0.003226854451142791,-0.0,1.0,0.0,399.0,630.0,1.0,1,691.0,0
149,149,-0.7914211807088496,-0.8,0.0,1.0,429.0,908.0,1.0,0,123.0,1
150,150,-0.49439519732821824,-0.5,0.0,1.0,332.0,809.0,1.0,0,209.0,1
151,151,-0.7812718814620649,-0.8,1.0,0.0,354.0,518.0,0.0,0,248.0,1
152,152,0.292887539221805,0.3,1.0,1.0,450.0,697.0,1.0,1,483.0,1
153,153,-0.45967004550836427,-0.5,0.0,1.0,339.0,945.0,1.0,0,396.0,1
154,154,0.17024808569986127,0.2,0.0,0.0,282.0,652.0,0.0,1,326.0,1
155,155,0.08715466247359016,0.1,0.0,0.0,479.0,678.0,0.0,1,823.0,1
156,156,-0.8648972877812061,-0.9,0.0,1.0,289.0,808.0,1.0,0,283.0,1
157,157,-0.5789218813284029,-0.6,1.0,0.0,447.0,749.0,0.0,0,314.0,1
158,158,-0.19333503209485658,-0.2,1.0,0.0,494.0,789.0,0.0,0,267.0,1
159,159,-0.126322929156917,-0.1,0.0,1.0,298.0,882.0,1.0,0,700.0,1
160,160,0.14312534348840222,0.1,1.0,1.0,449.0,547.0,1.0,1,304.0,1
161,161,-0.6278084048496151,-0.6,0.0,1.0,394.0,953.0,1.0,0,193.0,1
162,162,-0.71046097243446,-0.7,0.0,1.0,327.0,977.0,1.0,0,176.0,1
163,163,0.24451045279667138,0.2,0.0,0.0,331.0,760.0,0.0,1,359.0,1
164,164,-0.6632365996609056,-0.7,0.0,1.0,255.0,991.0,1.0,0,44.0,1
165,165,0.38442848187815304,0.4,0.0,0.0,378.0,527.0,0.0,1,795.0,1
166,166,0.1757118827505907,0.2,0.0,0.0,289.0,584.0,0.0,1,1047.0,1
167,167,0.8768898472145804,0.9,0.0,0.0,404.0,651.0,0.0,1,525.0,1
168,168,0.435740672453797,0.4,1.0,1.0,408.0,925.0,1.0,1,197.0,1
169,169,-0.12579628447065316,-0.1,0.0,1.0,268.0,728.0,1.0,0,1134.0,1
170,170,0.8569148342553271,0.9,0.0,0.0,446.0,738.0,0.0,1,246.0,1
171,171,-0.34872938118545804,-0.3,0.0,1.0,270.0,933.0,1.0,0,207.0,1
172,172,0.059153759090029845,0.1,0.0,0.0,300.0,887.0,0.0,1,253.0,1
173,173,0.6283549080674252,0.6,1.0,1.0,406.0,809.0,1.0,1,135.0,1
174,174,0.2930890895660895,0.3,0.0,0.0,483.0,975.0,0.0,1,282.0,1
175,175,0.6121079072043719,0.6,0.0,0.0,487.0,868.0,0.0,1,165.0,1
176,176,-0.2618158279786402,-0.3,1.0,0.0,485.0,664.0,0.0,0,611.0,1
177,177,0.6888259948559147,0.7,1.0,1.0,370.0,515.0,1.0,1,315.0,1
178,178,-0.7373951764039092,-0.7,1.0,0.0,409.0,666.0,0.0,0,155.0,1
179,179,0.1732132585852556,0.2,1.0,1.0,418.0,788.0,1.0,1,254.0,1
180,180,0.3584313445722188,0.4,0.0,0.0,300.0,581.0,0.0,1,909.0,1
181,181,-0.4867953795222233,-0.5,0.0,1.0,423.0,675.0,1.0,0,272.0,1
182,182,0.36869897592450707,0.4,1.0,1.0,310.0,668.0,1.0,1,312.0,1
183,183,-0.03946339359141515,-0.0,0.0,1.0,272.0,918.0,1.0,0,1630.0,1
184,184,-0.04471736943506177,-0.0,0.0,1.0,446.0,788.0,1.0,0,316.0,1
185,185,0.7888933154393346,0.8,1.0,1.0,439.0,696.0,1.0,1,105.0,1
186,186,0.830123706214862,0.8,1.0,1.0,497.0,615.0,1.0,1,258.0,1
187,187,0.5635179040325718,0.6,0.0,0.0,369.0,519.0,0.0,1,342.0,1
188,188,0.8703743060508554,0.9,0.0,0.0,393.0,933.0,0.0,1,234.0,1
189,189,-0.32251800018578436,-0.3,1.0,0.0,328.0,800.0,0.0,0,232.0,1
190,190,0.06088771173093854,0.1,0.0,0.0,403.0,756.0,1.0,0,1061.0,0
191,191,0.4931994876248115,0.5,0.0,0.0,386.0,633.0,0.0,1,291.0,1
192,192,0.1862189732950349,0.2,0.0,0.0,488.0,651.0,0.0,1,931.0,1
193,193,0.4142755155350689,0.4,1.0,1.0,469.0,812.0,1.0,1,399.0,1
194,194,-0.4406797748382569,-0.4,0.0,1.0,479.0,849.0,1.0,0,322.0,1
195,195,0.7065307173393246,0.7,1.0,1.0,452.0,679.0,1.0,1,239.0,1
196,196,-0.7440350608461805,-0.7,1.0,0.0,348.0,865.0,0.0,0,207.0,1
197,197,-0.08983547175097628,-0.1,0.0,1.0,482.0,713.0,1.0,0,1315.0,1
198,198,0.35344219632668217,0.4,1.0,1.0,330.0,724.0,1.0,1,486.0,1
199,199,-0.3495326985981614,-0.3,1.0,0.0,331.0,754.0,0.0,0,225.0,1
200,200,-0.36188302512899717,-0.4,1.0,0.0,283.0,617.0,0.0,0,390.0,1
201,201,-0.3689268486038081,-0.4,0.0,1.0,264.0,803.0,1.0,0,273.0,1
202,202,0.08771980555725623,0.1,0.0,0.0,437.0,531.0,0.0,1,1072.0,1
203,203,-0.38403956347202595,-0.4,1.0,0.0,276.0,583.0,0.0,0,241.0,1
204,204,0.7861631383211457,0.8,0.0,0.0,344.0,871.0,0.0,1,425.0,1
205,205,-0.5440591131802799,-0.5,1.0,0.0,330.0,630.0,0.0,0,320.0,1
206,206,0.16768151862127312,0.2,1.0,1.0,287.0,602.0,1.0,1,391.0,1
207,207,-0.08835076449383472,-0.1,1.0,0.0,286.0,579.0,0.0,0,455.0,1
208,208,0.6854706081518583,0.7,0.0,0.0,356.0,619.0,0.0,1,335.0,1
209,209,-0.6112738361247348,-0.6,1.0,0.0,425.0,778.0,0.0,0,237.0,1
210,210,0.6432910988076083,0.6,1.0,1.0,432.0,528.0,1.0,1,270.0,1
211,211,0.4201499997989936,0.4,0.0,0.0,412.0,817.0,0.0,1,321.0,1
212,212,0.6006343137902262,0.6,0.0,0.0,405.0,724.0,0.0,1,361.0,1
213,213,-0.20999476647017257,-0.2,1.0,0.0,313.0,843.0,0.0,0,134.0,1
214,214,0.47169835104910496,0.5,0.0,0.0,252.0,920.0,0.0,1,328.0,1
215,215,0.16171163551568235,0.2,0.0,0.0,335.0,623.0,0.0,1,632.0,1
216,216,-0.02857071418583179,-0.0,0.0,1.0,357.0,530.0,1.0,0,603.0,1
217,217,0.4247324900278998,0.4,0.0,0.0,427.0,649.0,0.0,1,654.0,1
218,218,0.5789153915711408,0.6,0.0,0.0,370.0,908.0,0.0,1,182.0,1
219,219,-0.4475080609003516,-0.4,0.0,1.0,276.0,521.0,1.0,0,423.0,1
220,220,0.5116958810209832,0.5,1.0,1.0,494.0,783.0,1.0,1,423.0,1
221,221,-0.4366632248659051,-0.4,0.0,1.0,407.0,843.0,1.0,0,440.0,1
222,222,0.4207275987135034,0.4,1.0,1.0,283.0,741.0,1.0,1,336.0,1
223,223,-0.8962943469616648,-0.9,0.0,1.0,446.0,542.0,1.0,0,362.0,1
224,224,0.8498112641572736,0.8,1.0,1.0,418.0,962.0,0.0,0,0.0,0
225,225,-0.8755259522105355,-0.9,1.0,0.0,317.0,780.0,0.0,0,213.0,1
226,226,0.834419118236078,0.8,0.0,0.0,482.0,846.0,0.0,1,302.0,1
227,227,-0.516879867808914,-0.5,1.0,0.0,282.0,615.0,0.0,0,333.0,1
228,228,0.8819579594124557,0.9,1.0,1.0,344.0,670.0,1.0,1,196.0,1
229,229,-0.3151770110574825,-0.3,0.0,1.0,302.0,712.0,1.0,0,326.0,1
230,230,-0.6378461356195404,-0.6,1.0,0.0,264.0,615.0,0.0,0,251.0,1
231,231,-0.6523998928040383,-0.7,0.0,1.0,392.0,991.0,1.0,0,187.0,1
232,232,-0.357255706414062,-0.4,1.0,0.0,268.0,850.0,0.0,0,212.0,1
233,233,0.5201881932862064,0.5,0.0,0.0,398.0,599.0,0.0,1,653.0,1
234,234,0.6442506470334272,0.6,0.0,0.0,335.0,639.0,0.0,1,406.0,1
235,235,0.8664559441928777,0.9,0.0,0.0,454.0,574.0,0.0,1,182.0,1
236,236,0.7968739292343753,0.8,1.0,1.0,486.0,627.0,1.0,1,107.0,1
237,237,0.8240925248338536,0.8,1.0,1.0,377.0,564.0,1.0,1,229.0,1
238,238,-0.19394502130773172,-0.2,1.0,0.0,473.0,833.0,0.0,0,484.0,1
239,239,0.8189057931829925,0.8,1.0,1.0,341.0,815.0,1.0,1,104.0,1
240,240,-0.3763992526334834,-0.4,0.0,1.0,341.0,525.0,1.0,0,434.0,1
241,241,0.13394431547792574,0.1,1.0,1.0,452.0,715.0,1.0,1,293.0,1
242,242,-0.7466601224939077,-0.7,0.0,1.0,283.0,698.0,1.0,0,179.0,1
243,243,0.544472408634506,0.5,1.0,1.0,310.0,510.0,1.0,1,300.0,1
244,244,0.8478324970754813,0.8,1.0,1.0,253.0,719.0,1.0,1,138.0,1
245,245,0.7434989408631244,0.7,0.0,0.0,336.0,742.0,0.0,1,222.0,1
246,246,-0.0523061961325334,-0.1,0.0,1.0,395.0,914.0,1.0,0,1701.0,1
247,247,-0.05096675594161981,-0.1,1.0,0.0,363.0,677.0,0.0,0,680.0,1
248,248,0.3432567936522667,0.3,1.0,1.0,320.0,986.0,1.0,1,244.0,1
249,249,0.8150570692434626,0.8,0.0,0.0,490.0,729.0,0.0,1,211.0,1
250,250,0.266159990722587,0.3,1.0,1.0,459.0,509.0,1.0,1,532.0,1
251,251,0.18373407470874292,0.2,1.0,1.0,332.0,920.0,1.0,1,208.0,1
252,252,-0.43888561615930594,-0.4,1.0,0.0,362.0,611.0,0.0,0,527.0,1
253,253,-0.7457445105535407,-0.7,0.0,1.0,250.0,839.0,1.0,0,221.0,1
254,254,-0.6726218585139974,-0.7,1.0,0.0,257.0,777.0,0.0,0,136.0,1
255,255,-0.4780806144749538,-0.5,0.0,1.0,276.0,753.0,1.0,0,161.0,1
256,256,0.10281049815472254,0.1,1.0,1.0,427.0,896.0,1.0,1,147.0,1
257,257,0.826170057848603,0.8,1.0,1.0,390.0,895.0,1.0,1,65.0,1
258,258,0.7184985986931057,0.7,0.0,0.0,326.0,526.0,0.0,1,268.0,1
259,259,0.15924324109273702,0.2,1.0,1.0,369.0,500.0,1.0,1,401.0,1
260,260,0.5452127468188023,0.5,1.0,1.0,499.0,995.0,1.0,1,256.0,1
261,261,0.2808881347237736,0.3,1.0,1.0,490.0,918.0,1.0,1,252.0,1
262,262,0.4081996876488142,0.4,1.0,1.0,274.0,942.0,1.0,1,294.0,1
263,263,-0.2604518017871479,-0.3,0.0,1.0,349.0,971.0,1.0,0,100.0,1
264,264,-0.7969033864264731,-0.8,0.0,1.0,398.0,663.0,1.0,0,219.0,1
265,265,-0.8200764104123149,-0.8,0.0,1.0,341.0,976.0,1.0,0,13.0,1
266,266,-0.34431864240956467,-0.3,1.0,0.0,311.0,887.0,0.0,0,222.0,1
267,267,-0.7249655254440914,-0.7,0.0,1.0,487.0,785.0,1.0,0,128.0,1
268,268,-0.559576839871146,-0.6,1.0,0.0,389.0,757.0,0.0,0,264.0,1
269,269,-0.37642642505236457,-0.4,1.0,0.0,309.0,902.0,0.0,0,159.0,1
270,270,0.8758278015907205,0.9,1.0,1.0,334.0,961.0,1.0,1,65.0,1
271,271,0.7661865616979905,0.8,1.0,1.0,293.0,653.0,1.0,1,134.0,1
272,272,0.7721871490166553,0.8,0.0,0.0,454.0,863.0,0.0,1,183.0,1
273,273,-0.6311125808389577,-0.6,1.0,0.0,346.0,831.0,0.0,0,163.0,1
274,274,0.5364490604054563,0.5,0.0,0.0,328.0,812.0,0.0,1,680.0,1
275,275,-0.858154721053193,-0.9,0.0,1.0,498.0,743.0,1.0,0,119.0,1
276,276,0.12817636030551738,0.1,0.0,0.0,480.0,785.0,0.0,1,565.0,1
277,277,0.15685146015749807,0.2,0.0,0.0,297.0,723.0,0.0,1,1070.0,1
278,278,0.8692569090068537,0.9,0.0,0.0,335.0,555.0,0.0,1,410.0,1
279,279,0.8884935062857559,0.9,0.0,0.0,380.0,887.0,0.0,1,413.0,1
280,280,-0.6189459573282452,-0.6,0.0,1.0,446.0,744.0,1.0,0,230.0,1
281,281,-0.05404037670989359,-0.1,1.0,0.0,255.0,574.0,0.0,0,911.0,1
282,282,0.06828061340523284,0.1,1.0,1.0,457.0,832.0,1.0,1,381.0,1
283,283,0.5254799202285657,0.5,0.0,0.0,480.0,928.0,0.0,1,282.0,1
284,284,0.8485733166805202,0.8,1.0,1.0,445.0,567.0,1.0,1,188.0,1
285,285,0.4925486548421486,0.5,1.0,1.0,398.0,672.0,1.0,1,640.0,1
286,286,-0.81251889024293,-0.8,0.0,1.0,407.0,985.0,1.0,0,138.0,1
287,287,-0.7872787254397111,-0.8,1.0,0.0,455.0,554.0,0.0,0,381.0,1
288,288,-0.1554812024426626,-0.2,1.0,0.0,384.0,552.0,0.0,0,424.0,1
289,289,0.41335476633912227,0.4,1.0,1.0,271.0,587.0,1.0,1,422.0,1
290,290,-0.5744828988952676,-0.6,0.0,1.0,255.0,738.0,1.0,0,177.0,1
291,291,0.2524283802818036,0.3,0.0,0.0,380.0,783.0,0.0,1,657.0,1
292,292,0.5078267706916803,0.5,0.0,0.0,474.0,520.0,0.0,1,436.0,1
293,293,-0.1553865176143192,-0.2,0.0,1.0,261.0,708.0,1.0,0,1041.0,1
294,294,-0.4002723125243284,-0.4,0.0,1.0,410.0,738.0,1.0,0,362.0,1
295,295,0.12623487123043942,0.1,0.0,0.0,378.0,822.0,0.0,1,990.0,1
296,296,0.07116006993997837,0.1,1.0,1.0,374.0,706.0,1.0,1,730.0,1
297,297,-0.23416741885241188,-0.2,0.0,1.0,270.0,718.0,1.0,0,342.0,1
298,298,0.06554668363751837,0.1,0.0,0.0,274.0,723.0,0.0,1,2873.0,1
299,299,-0.319166950403284,-0.3,1.0,0.0,420.0,672.0,0.0,0,558.0,1
300,300,0.8870900271713505,0.9,0.0,0.0,366.0,541.0,0.0,1,303.0,1
301,301,0.08114532562466825,0.1,0.0,0.0,315.0,969.0,0.0,1,1106.0,1
302,302,-0.01031373696001403,-0.0,0.0,1.0,269.0,893.0,0.0,1,788.0,0
303,303,0.43507619256226804,0.4,0.0,0.0,313.0,678.0,0.0,1,429.0,1
304,304,-0.03198150347038364,-0.0,1.0,0.0,251.0,863.0,0.0,0,536.0,1
305,305,0.045317089399679156,0.0,1.0,1.0,401.0,924.0,1.0,1,135.0,1
306,306,0.7088318474268794,0.7,0.0,0.0,271.0,717.0,0.0,1,502.0,1
307,307,-0.25411144788620543,-0.3,1.0,0.0,304.0,543.0,0.0,0,433.0,1
308,308,0.7843581888458674,0.8,1.0,1.0,426.0,792.0,1.0,1,242.0,1
309,309,-0.5037548460661674,-0.5,1.0,0.0,471.0,677.0,0.0,0,462.0,1
310,310,-0.5324148388944516,-0.5,1.0,0.0,297.0,635.0,0.0,0,288.0,1
311,311,0.25561534147333786,0.3,0.0,0.0,315.0,814.0,0.0,1,171.0,1
312,312,-0.4232468249721294,-0.4,0.0,1.0,251.0,994.0,1.0,0,305.0,1
313,313,0.23194122735604916,0.2,0.0,0.0,310.0,882.0,0.0,1,1708.0,1
314,314,-0.6244751401206544,-0.6,0.0,1.0,266.0,855.0,1.0,0,159.0,1
315,315,0.40765428644166424,0.4,1.0,1.0,394.0,930.0,1.0,1,146.0,1
316,316,-0.511332897197317,-0.5,0.0,1.0,312.0,535.0,1.0,0,513.0,1
317,317,0.4566411721061251,0.5,0.0,0.0,450.0,716.0,0.0,1,564.0,1
318,318,-0.12446705037375139,-0.1,0.0,1.0,339.0,540.0,1.0,0,1311.0,1
319,319,-0.7049713559293527,-0.7,0.0,1.0,253.0,555.0,1.0,0,262.0,1
320,320,0.23122091831006297,0.2,0.0,0.0,391.0,528.0,0.0,1,751.0,1
321,321,-0.6115264313555451,-0.6,0.0,1.0,336.0,637.0,1.0,0,297.0,1
322,322,0.5386261778340397,0.5,1.0,1.0,272.0,988.0,1.0,1,140.0,1
323,323,-0.32403688196180835,-0.3,1.0,0.0,418.0,777.0,0.0,0,405.0,1
324,324,0.8344125782901483,0.8,1.0,1.0,469.0,571.0,1.0,1,280.0,1
325,325,-0.7083186024338487,-0.7,1.0,0.0,459.0,732.0,0.0,0,239.0,1
326,326,-0.23227058028748349,-0.2,0.0,1.0,448.0,904.0,1.0,0,88.0,1
327,327,0.33164672165467357,0.3,0.0,0.0,329.0,548.0,0.0,1,883.0,1
328,328,-0.7701717065044066,-0.8,0.0,1.0,417.0,586.0,1.0,0,267.0,1
329,329,0.122403706618882,0.1,1.0,1.0,343.0,946.0,1.0,1,221.0,1
330,330,0.7974615189507571,0.8,1.0,1.0,422.0,548.0,1.0,1,420.0,1
331,331,0.09909703510563195,0.1,1.0,1.0,305.0,865.0,1.0,1,560.0,1
332,332,0.4956115083105105,0.5,1.0,1.0,367.0,560.0,1.0,1,323.0,1
333,333,-0.6485608324953969,-0.6,0.0,1.0,379.0,568.0,1.0,0,183.0,1
334,334,-0.2684557052129971,-0.3,0.0,1.0,348.0,513.0,1.0,0,599.0,1
335,335,-0.4159897645108954,-0.4,1.0,0.0,412.0,692.0,0.0,0,326.0,1
336,336,-0.5808688057708145,-0.6,1.0,0.0,497.0,746.0,0.0,0,147.0,1
337,337,-0.4635866181679291,-0.5,1.0,0.0,275.0,589.0,0.0,0,316.0,1
338,338,-0.7222367675068809,-0.7,0.0,1.0,323.0,859.0,1.0,0,98.0,1
339,339,-0.3726191864293398,-0.4,1.0,0.0,331.0,828.0,0.0,0,251.0,1
340,340,-0.8031713375303549,-0.8,1.0,0.0,291.0,863.0,0.0,0,56.0,1
341,341,-0.8411280401034218,-0.8,0.0,1.0,371.0,912.0,1.0,0,127.0,1
342,342,-0.7055120545580843,-0.7,1.0,0.0,365.0,763.0,0.0,0,122.0,1
343,343,-0.8536974573339363,-0.9,1.0,0.0,252.0,858.0,0.0,0,180.0,1
344,344,0.0408049909447078,0.0,1.0,1.0,397.0,660.0,0.0,0,2273.0,0
345,345,0.01844465640383519,0.0,0.0,0.0,496.0,950.0,0.0,1,614.0,1
346,346,-0.13909964958976961,-0.1,1.0,0.0,256.0,577.0,0.0,0,1027.0,1
347,347,-0.46653809897786075,-0.5,0.0,1.0,471.0,951.0,1.0,0,178.0,1
348,348,-0.8081000135343701,-0.8,0.0,1.0,272.0,790.0,1.0,0,188.0,1
349,349,0.6945331654572097,0.7,0.0,0.0,442.0,973.0,0.0,1,295.0,1
350,350,0.7836064256371137,0.8,1.0,1.0,389.0,617.0,1.0,1,224.0,1
351,351,-0.7452719436929623,-0.7,0.0,1.0,427.0,900.0,1.0,0,143.0,1
352,352,0.03343478684542667,0.0,0.0,0.0,330.0,663.0,0.0,1,1007.0,1
353,353,-0.6735653224149816,-0.7,1.0,0.0,407.0,579.0,0.0,0,194.0,1
354,354,0.1408786277995765,0.1,1.0,1.0,276.0,536.0,1.0,1,398.0,1
355,355,-0.8686790046262447,-0.9,1.0,0.0,373.0,858.0,0.0,0,159.0,1
356,356,-0.7951591554492945,-0.8,1.0,0.0,390.0,642.0,0.0,0,188.0,1
357,357,0.004926238988793075,0.0,1.0,1.0,473.0,774.0,0.0,0,1063.0,0
358,358,-0.8334541813943169,-0.8,1.0,0.0,353.0,955.0,0.0,0,212.0,1
359,359,-0.6593542805729725,-0.7,0.0,1.0,312.0,625.0,1.0,0,483.0,1
360,360,0.05930729986812677,0.1,1.0,1.0,481.0,828.0,1.0,1,461.0,1
361,361,-0.22765611406804687,-0.2,0.0,1.0,447.0,759.0,1.0,0,574.0,1
362,362,0.28511267342925384,0.3,1.0,1.0,435.0,754.0,1.0,1,331.0,1
363,363,-0.7349942002425961,-0.7,1.0,0.0,371.0,810.0,0.0,0,209.0,1
364,364,-0.7057644779999688,-0.7,1.0,0.0,462.0,965.0,0.0,0,153.0,1
365,365,-0.5932317986974307,-0.6,0.0,1.0,343.0,946.0,1.0,0,191.0,1
366,366,0.33648218435963606,0.3,1.0,1.0,476.0,780.0,1.0,1,394.0,1
367,367,0.2573198137179028,0.3,0.0,0.0,253.0,719.0,0.0,1,458.0,1
368,368,-0.622233677728038,-0.6,1.0,0.0,427.0,844.0,0.0,0,149.0,1
369,369,0.001971345721103468,0.0,1.0,1.0,492.0,764.0,1.0,1,384.0,1
370,370,0.2690715501547508,0.3,0.0,0.0,280.0,623.0,0.0,1,327.0,1
371,371,0.6249107018912564,0.6,0.0,0.0,264.0,606.0,0.0,1,470.0,1
372,372,0.3675980651169163,0.4,1.0,1.0,343.0,805.0,1.0,1,512.0,1
373,373,0.21648123696434396,0.2,1.0,1.0,285.0,909.0,1.0,1,336.0,1
374,374,0.18832824708825402,0.2,0.0,0.0,293.0,783.0,0.0,1,1074.0,1
375,375,0.7136741666765264,0.7,0.0,0.0,329.0,844.0,0.0,1,-53.0,1
376,376,0.2494023796822603,0.2,0.0,0.0,411.0,877.0,0.0,1,512.0,1
377,377,-0.8054011486506369,-0.8,0.0,1.0,366.0,760.0,1.0,0,184.0,1
378,378,-0.5388126622510871,-0.5,0.0,1.0,361.0,849.0,1.0,0,100.0,1
379,379,0.10951310592038677,0.1,0.0,0.0,384.0,921.0,0.0,1,635.0,1
380,380,0.6363289563135218,0.6,1.0,1.0,256.0,648.0,1.0,1,126.0,1
381,381,-0.6819623100380818,-0.7,1.0,0.0,479.0,823.0,0.0,0,168.0,1
382,382,0.41645013952231136,0.4,0.0,0.0,410.0,908.0,0.0,1,352.0,1
383,383,-0.2436925037183698,-0.2,0.0,1.0,366.0,707.0,1.0,0,317.0,1
384,384,0.052626274154842445,0.1,0.0,0.0,405.0,941.0,0.0,1,3654.0,1
385,385,-0.6534659253876124,-0.7,0.0,1.0,300.0,542.0,1.0,0,298.0,1
386,386,0.4615636266661617,0.5,0.0,0.0,488.0,754.0,0.0,1,258.0,1
387,387,0.6547108792618971,0.7,0.0,0.0,381.0,665.0,0.0,1,434.0,1
388,388,0.5732898716153553,0.6,1.0,1.0,262.0,948.0,1.0,1,130.0,1
389,389,0.1929410071095129,0.2,0.0,0.0,418.0,507.0,0.0,1,465.0,1
390,390,-0.40910897411335506,-0.4,0.0,1.0,312.0,995.0,1.0,0,223.0,1
391,391,-0.7688015629880158,-0.8,1.0,0.0,429.0,556.0,0.0,0,385.0,1
392,392,0.627694052715802,0.6,0.0,0.0,419.0,597.0,0.0,1,534.0,1
393,393,-0.33489552014561075,-0.3,0.0,1.0,295.0,538.0,1.0,0,487.0,1
394,394,-0.36831351415770963,-0.4,1.0,0.0,342.0,912.0,0.0,0,256.0,1
395,395,0.46823637812842656,0.5,0.0,0.0,365.0,855.0,0.0,1,570.0,1
396,396,0.3739938435504814,0.4,1.0,1.0,435.0,605.0,1.0,1,250.0,1
397,397,-0.23677245010148662,-0.2,1.0,0.0,404.0,992.0,0.0,0,304.0,1
398,398,0.2422648099365735,0.2,1.0,1.0,393.0,899.0,1.0,1,298.0,1
399,399,-0.8861185358715725,-0.9,1.0,0.0,289.0,713.0,0.0,0,248.0,1
400,400,0.8974793769856847,0.9,1.0,1.0,279.0,967.0,1.0,1,124.0,1
401,401,-0.3554564140727039,-0.4,1.0,0.0,428.0,847.0,0.0,0,155.0,1
402,402,0.2230560554655313,0.2,0.0,0.0,408.0,628.0,0.0,1,504.0,1
403,403,-0.06822625567602969,-0.1,1.0,0.0,456.0,913.0,0.0,0,481.0,1
404,404,-0.22661531493489395,-0.2,1.0,0.0,319.0,999.0,1.0,1,-148.0,0
405,405,-0.8383896952576753,-0.8,0.0,1.0,334.0,531.0,1.0,0,265.0,1
406,406,0.8905961149091003,0.9,0.0,0.0,454.0,504.0,0.0,1,682.0,1
407,407,-0.7402523394076073,-0.7,0.0,1.0,470.0,935.0,1.0,0,195.0,1
408,408,0.8320718159610564,0.8,1.0,1.0,463.0,844.0,1.0,1,233.0,1
409,409,0.29440462905114206,0.3,1.0,1.0,329.0,771.0,1.0,1,300.0,1
410,410,0.5810673123282287,0.6,0.0,0.0,386.0,675.0,0.0,1,429.0,1
411,411,-0.29792056325920413,-0.3,0.0,1.0,494.0,601.0,1.0,0,355.0,1
412,412,0.161184076956585,0.2,1.0,1.0,254.0,798.0,1.0,1,508.0,1
413,413,0.8652903697993816,0.9,0.0,0.0,344.0,965.0,0.0,1,521.0,1
414,414,-0.31261426592380004,-0.3,0.0,1.0,273.0,920.0,1.0,0,137.0,1
415,415,-0.7630439993082246,-0.8,0.0,1.0,447.0,534.0,1.0,0,309.0,1
416,416,0.5147598787017117,0.5,0.0,0.0,481.0,825.0,0.0,1,184.0,1
417,417,0.24266397941711293,0.2,0.0,0.0,440.0,927.0,0.0,1,293.0,1
418,418,-0.022957400859644372,-0.0,1.0,0.0,448.0,532.0,0.0,0,660.0,1
419,419,0.6901040631932492,0.7,1.0,1.0,272.0,901.0,1.0,1,317.0,1
420,420,0.3310565672248015,0.3,0.0,0.0,392.0,951.0,1.0,0,27.0,0
421,421,-0.7091213725932821,-0.7,0.0,1.0,453.0,704.0,1.0,0,283.0,1
422,422,-0.2884704014775351,-0.3,1.0,0.0,493.0,683.0,0.0,0,494.0,1
423,423,0.7292059161450929,0.7,0.0,0.0,375.0,783.0,0.0,1,212.0,1
424,424,-0.20502228658081645,-0.2,0.0,1.0,458.0,750.0,1.0,0,532.0,1
425,425,0.44237687324816355,0.4,0.0,0.0,399.0,999.0,0.0,1,652.0,1
426,426,-0.48726637661008687,-0.5,1.0,0.0,414.0,909.0,0.0,0,287.0,1
427,427,0.12930959054873925,0.1,0.0,0.0,451.0,989.0,0.0,1,1910.0,1
428,428,-0.46923546898735546,-0.5,1.0,0.0,269.0,965.0,0.0,0,126.0,1
429,429,0.1610965758572861,0.2,0.0,0.0,263.0,664.0,0.0,1,683.0,1
430,430,-0.8841044705338899,-0.9,0.0,1.0,283.0,756.0,1.0,0,231.0,1
431,431,-0.27287531565901557,-0.3,1.0,0.0,354.0,650.0,0.0,0,266.0,1
432,432,0.0003663476299760049,0.0,1.0,1.0,330.0,923.0,0.0,0,297.0,0
433,433,-0.6347195139154633,-0.6,0.0,1.0,490.0,893.0,1.0,0,157.0,1
434,434,0.4252463550571802,0.4,1.0,1.0,456.0,787.0,1.0,1,267.0,1
435,435,-0.8958388616753197,-0.9,1.0,0.0,270.0,724.0,0.0,0,266.0,1
436,436,-0.5038911789698467,-0.5,1.0,0.0,400.0,982.0,0.0,0,288.0,1
437,437,-0.24714782070064967,-0.2,1.0,0.0,495.0,676.0,0.0,0,389.0,1
438,438,-0.6905819287826028,-0.7,1.0,0.0,474.0,967.0,0.0,0,69.0,1
439,439,0.07903012656092434,0.1,1.0,1.0,250.0,586.0,1.0,1,1284.0,1
440,440,-0.702337223548402,-0.7,1.0,0.0,314.0,815.0,0.0,0,221.0,1
441,441,0.15119417430155846,0.2,0.0,0.0,284.0,676.0,0.0,1,950.0,1
442,442,0.20085474086512523,0.2,1.0,1.0,471.0,846.0,1.0,1,253.0,1
443,443,-0.3078686929936656,-0.3,0.0,1.0,296.0,596.0,1.0,0,658.0,1
444,444,-0.8601553172377359,-0.9,1.0,0.0,433.0,721.0,0.0,0,296.0,1
445,445,-0.45376536928527705,-0.5,0.0,1.0,469.0,714.0,1.0,0,217.0,1
446,446,0.0009388774767543628,0.0,1.0,1.0,487.0,606.0,1.0,1,487.0,1
447,447,-0.07101082067577091,-0.1,0.0,1.0,270.0,926.0,1.0,0,324.0,1
448,448,0.2919694019646587,0.3,0.0,0.0,362.0,965.0,0.0,1,213.0,1
449,449,0.06129571441846904,0.1,0.0,0.0,385.0,670.0,1.0,0,1285.0,0
450,450,-0.04936612451205036,-0.0,0.0,1.0,460.0,558.0,1.0,0,482.0,1
451,451,0.08620747387345307,0.1,0.0,0.0,489.0,702.0,0.0,1,2379.0,1
452,452,0.8392228725564203,0.8,1.0,1.0,442.0,543.0,1.0,1,235.0,1
453,453,0.3531935839163681,0.4,1.0,1.0,293.0,865.0,1.0,1,372.0,1
454,454,-0.4213391355639741,-0.4,1.0,0.0,273.0,890.0,0.0,0,507.0,1
455,455,-0.49154089478665614,-0.5,1.0,0.0,346.0,510.0,0.0,0,384.0,1
456,456,-0.8883156353501147,-0.9,0.0,1.0,278.0,949.0,1.0,0,173.0,1
457,457,0.2339895612956745,0.2,1.0,1.0,381.0,795.0,1.0,1,444.0,1
458,458,-0.25270697169124134,-0.3,0.0,1.0,463.0,571.0,1.0,0,626.0,1
459,459,-0.18521529484383092,-0.2,0.0,1.0,484.0,892.0,1.0,0,274.0,1
460,460,0.17553416673102518,0.2,0.0,0.0,444.0,514.0,0.0,1,842.0,1
461,461,-0.7025795487160602,-0.7,0.0,1.0,496.0,809.0,1.0,0,465.0,1
462,462,0.49098638542161643,0.5,1.0,1.0,439.0,735.0,1.0,1,426.0,1
463,463,-0.7305353704986517,-0.7,1.0,0.0,479.0,634.0,0.0,0,167.0,1
464,464,-0.31101947866741153,-0.3,1.0,0.0,401.0,743.0,0.0,0,626.0,1
465,465,0.41906673078740997,0.4,1.0,1.0,446.0,803.0,1.0,1,381.0,1
466,466,-0.6327539883290986,-0.6,1.0,0.0,272.0,833.0,0.0,0,215.0,1
467,467,0.3380410364916925,0.3,0.0,0.0,428.0,996.0,0.0,1,546.0,1
468,468,-0.048426550695892634,-0.0,0.0,1.0,473.0,750.0,1.0,0,227.0,1
469,469,0.3481541563163223,0.3,1.0,1.0,319.0,546.0,1.0,1,425.0,1
470,470,-0.8435612179930876,-0.8,0.0,1.0,313.0,670.0,1.0,0,167.0,1
471,471,0.8653679562446311,0.9,0.0,0.0,308.0,688.0,0.0,1,284.0,1
472,472,-0.15775028543760605,-0.2,1.0,0.0,295.0,596.0,0.0,0,479.0,1
473,473,-0.7044429181106353,-0.7,0.0,1.0,402.0,871.0,1.0,0,197.0,1
474,474,0.44965431405713263,0.4,0.0,0.0,425.0,745.0,0.0,1,530.0,1
475,475,-0.6650555186216447,-0.7,1.0,0.0,300.0,654.0,0.0,0,526.0,1
476,476,-0.3893707459337057,-0.4,1.0,0.0,337.0,889.0,0.0,0,144.0,1
477,477,0.2077696315199703,0.2,0.0,0.0,361.0,834.0,0.0,1,385.0,1
478,478,-0.6450909313890136,-0.6,1.0,0.0,496.0,748.0,0.0,0,266.0,1
479,479,0.050362404165737895,0.1,0.0,0.0,257.0,984.0,0.0,1,79.0,1
480,480,-0.314296652522563,-0.3,0.0,1.0,319.0,551.0,1.0,0,570.0,1
481,481,0.47211517600092934,0.5,1.0,1.0,308.0,564.0,1.0,1,308.0,1
482,482,0.2693085518853652,0.3,0.0,0.0,394.0,842.0,0.0,1,604.0,1
483,483,-0.08846033313093682,-0.1,0.0,1.0,496.0,548.0,1.0,0,826.0,1
484,484,0.4780439620513045,0.5,1.0,1.0,327.0,748.0,1.0,1,185.0,1
485,485,-0.5730828478304764,-0.6,0.0,1.0,471.0,542.0,1.0,0,457.0,1
486,486,0.2878635247582687,0.3,0.0,0.0,255.0,693.0,0.0,1,422.0,1
487,487,0.11016414159376609,0.1,0.0,0.0,252.0,592.0,0.0,1,2526.0,1
488,488,-0.44895154666406617,-0.4,1.0,0.0,416.0,805.0,0.0,0,139.0,1
489,489,0.6064558307200162,0.6,1.0,1.0,293.0,966.0,1.0,1,171.0,1
490,490,0.7078073515597262,0.7,1.0,1.0,442.0,509.0,1.0,1,319.0,1
491,491,-0.744358353178095,-0.7,0.0,1.0,336.0,514.0,1.0,0,380.0,1
492,492,0.6973344547149879,0.7,1.0,1.0,269.0,506.0,1.0,1,235.0,1
493,493,0.5802352000125669,0.6,0.0,0.0,416.0,883.0,0.0,1,121.0,1
494,494,-0.5800881249927285,-0.6,1.0,0.0,357.0,515.0,0.0,0,418.0,1
495,495,-0.5431980909484758,-0.5,0.0,1.0,445.0,901.0,1.0,0,334.0,1
496,496,0.5028464301653873,0.5,1.0,1.0,283.0,608.0,1.0,1,199.0,1
497,497,0.013532558215965551,0.0,0.0,0.0,476.0,886.0,1.0,0,378.0,0
498,498,0.6402495911906986,0.6,0.0,0.0,406.0,914.0,0.0,1,140.0,1
499,499,0.07478615714623071,0.1,0.0,0.0,325.0,713.0,0.0,1,782.0,1
500,500,-0.7205966735752704,-0.7,1.0,0.0,499.0,865.0,0.0,0,146.0,1
501,501,-0.054327316014213034,-0.1,0.0,1.0,476.0,973.0,1.0,0,231.0,1
502,502,-0.6745459362052819,-0.7,0.0,1.0,303.0,994.0,1.0,0,163.0,1
503,503,-0.44436142446917387,-0.4,0.0,1.0,492.0,555.0,1.0,0,493.0,1
504,504,0.767062027018998,0.8,0.0,0.0,354.0,935.0,0.0,1,261.0,1
505,505,0.2936426383817162,0.3,0.0,0.0,284.0,502.0,0.0,1,764.0,1
506,506,-0.3833946643464625,-0.4,1.0,0.0,456.0,534.0,0.0,0,260.0,1
507,507,-0.29020071717192075,-0.3,1.0,0.0,353.0,717.0,0.0,0,400.0,1
508,508,-0.8891841068921644,-0.9,1.0,0.0,347.0,921.0,0.0,0,112.0,1
509,509,-0.5978647042838086,-0.6,0.0,1.0,260.0,618.0,1.0,0,462.0,1
510,510,0.07151520612651696,0.1,1.0,1.0,277.0,879.0,1.0,1,904.0,1
511,511,0.5149657019979476,0.5,1.0,1.0,364.0,715.0,1.0,1,161.0,1
512,512,0.5293473591731087,0.5,0.0,0.0,300.0,620.0,0.0,1,490.0,1
513,513,0.26291529105956035,0.3,0.0,0.0,308.0,856.0,0.0,1,546.0,1
514,514,-0.08971274846196675,-0.1,1.0,0.0,340.0,607.0,0.0,0,993.0,1
515,515,0.29440364364858207,0.3,1.0,1.0,322.0,868.0,1.0,1,250.0,1
516,516,0.8771672031071659,0.9,0.0,0.0,388.0,611.0,0.0,1,291.0,1
517,517,-0.4857367277732202,-0.5,0.0,1.0,257.0,755.0,1.0,0,128.0,1
518,518,-0.7017876732694495,-0.7,1.0,0.0,369.0,942.0,0.0,0,29.0,1
519,519,0.5032068306832785,0.5,0.0,0.0,465.0,744.0,0.0,1,241.0,1
520,520,0.18487443960177996,0.2,0.0,0.0,444.0,965.0,0.0,1,551.0,1
521,521,-0.3501840379900687,-0.4,0.0,1.0,406.0,876.0,1.0,0,418.0,1
522,522,0.827170895109229,0.8,0.0,0.0,310.0,826.0,0.0,1,284.0,1
523,523,-0.042816552842547706,-0.0,0.0,1.0,424.0,744.0,1.0,0,1562.0,1
524,524,-0.8603891630214519,-0.9,1.0,0.0,351.0,597.0,0.0,0,232.0,1
525,525,0.006844967774066957,0.0,1.0,1.0,279.0,532.0,1.0,1,809.0,1
526,526,-0.3689123547148059,-0.4,0.0,1.0,355.0,543.0,1.0,0,392.0,1
527,527,-0.3467110003456403,-0.3,1.0,0.0,451.0,874.0,0.0,0,95.0,1
528,528,0.8069873221180929,0.8,0.0,0.0,297.0,964.0,0.0,1,149.0,1
529,529,-0.35198804423788976,-0.4,0.0,1.0,457.0,950.0,1.0,0,193.0,1
530,530,-0.17096988485833997,-0.2,0.0,1.0,292.0,528.0,1.0,0,470.0,1
531,531,-0.6621836378060681,-0.7,1.0,0.0,264.0,574.0,0.0,0,222.0,1
532,532,0.5874564286877259,0.6,1.0,1.0,387.0,754.0,1.0,1,209.0,1
533,533,-0.21202733450456457,-0.2,1.0,0.0,338.0,831.0,0.0,0,321.0,1
534,534,0.844799711135905,0.8,0.0,0.0,394.0,580.0,0.0,1,326.0,1
535,535,-0.654360062935566,-0.7,0.0,1.0,469.0,970.0,1.0,0,91.0,1
536,536,0.43770267399095186,0.4,1.0,1.0,421.0,588.0,1.0,1,331.0,1
537,537,-0.29770079872885413,-0.3,0.0,1.0,420.0,801.0,1.0,0,279.0,1
538,538,-0.225095883222174,-0.2,1.0,0.0,280.0,989.0,0.0,0,191.0,1
539,539,-0.7341098959786261,-0.7,1.0,0.0,491.0,731.0,0.0,0,178.0,1
540,540,-0.6272602096953819,-0.6,1.0,0.0,499.0,655.0,0.0,0,216.0,1
541,541,0.5042075628013317,0.5,0.0,0.0,377.0,874.0,0.0,1,359.0,1
542,542,-0.7594266364539539,-0.8,0.0,1.0,465.0,835.0,1.0,0,260.0,1
543,543,-0.07261661870501535,-0.1,0.0,1.0,256.0,568.0,0.0,1,466.0,0
544,544,-0.8319353025610154,-0.8,0.0,1.0,428.0,779.0,1.0,0,153.0,1
545,545,-0.05707550827108898,-0.1,0.0,1.0,496.0,727.0,1.0,0,287.0,1
546,546,0.8770928308733711,0.9,0.0,0.0,329.0,551.0,0.0,1,460.0,1
547,547,0.7075620617483652,0.7,0.0,0.0,457.0,938.0,0.0,1,225.0,1
548,548,-0.25487477382475976,-0.3,0.0,1.0,486.0,661.0,1.0,0,543.0,1
549,549,0.06280518877910168,0.1,1.0,1.0,446.0,886.0,1.0,1,708.0,1
550,550,-0.7142585730765684,-0.7,1.0,0.0,363.0,913.0,0.0,0,214.0,1
551,551,-0.4087283295973626,-0.4,1.0,0.0,461.0,505.0,0.0,0,504.0,1
552,552,0.4294628081407702,0.4,0.0,0.0,392.0,670.0,0.0,1,668.0,1
553,553,-0.47708790395680384,-0.5,1.0,0.0,443.0,758.0,0.0,0,259.0,1
554,554,0.32563141044612365,0.3,0.0,0.0,294.0,584.0,0.0,1,492.0,1
555,555,0.642069856828264,0.6,0.0,0.0,273.0,823.0,0.0,1,334.0,1
556,556,-0.1406472012846589,-0.1,0.0,1.0,321.0,768.0,1.0,0,391.0,1
557,557,0.3118799129799902,0.3,0.0,0.0,469.0,840.0,0.0,1,291.0,1
558,558,-0.44547383091446596,-0.4,1.0,0.0,392.0,628.0,0.0,0,280.0,1
559,559,0.7203310332034786,0.7,1.0,1.0,283.0,614.0,1.0,1,243.0,1
560,560,0.4502604340016322,0.5,1.0,1.0,380.0,931.0,1.0,1,149.0,1
561,561,-0.32373219875684234,-0.3,1.0,0.0,497.0,870.0,0.0,0,333.0,1
562,562,0.020186787804811535,0.0,0.0,0.0,250.0,628.0,1.0,0,962.0,0
563,563,0.6003348792661068,0.6,1.0,1.0,499.0,804.0,1.0,1,37.0,1
564,564,-0.261735526404017,-0.3,1.0,0.0,306.0,594.0,0.0,0,340.0,1
565,565,-0.6870232426597659,-0.7,0.0,1.0,485.0,564.0,1.0,0,311.0,1
566,566,-0.3031988583603159,-0.3,1.0,0.0,264.0,582.0,0.0,0,324.0,1
567,567,0.0851070682068743,0.1,0.0,0.0,474.0,875.0,0.0,1,1161.0,1
568,568,0.4351243459855857,0.4,0.0,0.0,378.0,881.0,0.0,1,161.0,1
569,569,0.7349450561650056,0.7,0.0,0.0,275.0,724.0,0.0,1,231.0,1
570,570,-0.6003911684958081,-0.6,1.0,0.0,468.0,673.0,0.0,0,429.0,1
571,571,-0.8791067586666649,-0.9,0.0,1.0,379.0,665.0,1.0,0,116.0,1
572,572,-0.06941938369949696,-0.1,0.0,1.0,350.0,814.0,1.0,0,416.0,1
573,573,0.5903684146533835,0.6,1.0,1.0,282.0,753.0,1.0,1,175.0,1
574,574,-0.04842098644874315,-0.0,0.0,1.0,327.0,923.0,1.0,0,2490.0,1
575,575,-0.7194609232283389,-0.7,1.0,0.0,420.0,738.0,0.0,0,142.0,1
576,576,-0.6403505738113279,-0.6,0.0,1.0,436.0,524.0,1.0,0,420.0,1
577,577,-0.13722804593272753,-0.1,1.0,0.0,332.0,689.0,0.0,0,709.0,1
578,578,0.7705097531455948,0.8,0.0,0.0,426.0,778.0,0.0,1,206.0,1
579,579,0.3471541586123409,0.3,0.0,0.0,497.0,718.0,0.0,1,345.0,1
580,580,0.38302682750561445,0.4,0.0,0.0,278.0,864.0,0.0,1,388.0,1
581,581,-0.5290482346520016,-0.5,0.0,1.0,484.0,778.0,1.0,0,558.0,1
582,582,0.06856877222575486,0.1,0.0,0.0,431.0,742.0,0.0,1,677.0,1
583,583,-0.8749764339978922,-0.9,0.0,1.0,344.0,966.0,1.0,0,90.0,1
584,584,-0.18864519789828904,-0.2,1.0,0.0,300.0,557.0,0.0,0,613.0,1
585,585,0.08032005312752255,0.1,0.0,0.0,411.0,622.0,0.0,1,617.0,1
586,586,-0.27489654770111216,-0.3,0.0,1.0,418.0,923.0,1.0,0,329.0,1
587,587,0.7087211233852061,0.7,1.0,1.0,256.0,956.0,1.0,1,118.0,1
588,588,0.4723815150247751,0.5,1.0,1.0,363.0,890.0,1.0,1,117.0,1
589,589,-0.007497357870198784,-0.0,1.0,0.0,460.0,789.0,0.0,0,301.0,1
590,590,-0.8826263596245713,-0.9,1.0,0.0,315.0,987.0,0.0,0,158.0,1
591,591,0.15979178780236192,0.2,0.0,0.0,497.0,507.0,0.0,1,1496.0,1
592,592,0.7447677343975915,0.7,1.0,1.0,471.0,933.0,1.0,1,86.0,1
593,593,0.8307475405904784,0.8,0.0,0.0,441.0,705.0,0.0,1,294.0,1
594,594,0.247496701045132,0.2,1.0,1.0,288.0,588.0,1.0,1,574.0,1
595,595,-0.5799342892937557,-0.6,0.0,1.0,344.0,644.0,1.0,0,502.0,1
596,596,0.23852162401799937,0.2,0.0,0.0,366.0,993.0,0.0,1,761.0,1
597,597,-0.4317101732436569,-0.4,1.0,0.0,287.0,976.0,0.0,0,127.0,1
598,598,0.8471321978008276,0.8,1.0,1.0,292.0,848.0,1.0,1,230.0,1
599,599,0.03545788404765993,0.0,0.0,0.0,341.0,865.0,1.0,0,3794.0,0
600,600,-0.8846789917515953,-0.9,0.0,1.0,363.0,513.0,1.0,0,344.0,1
601,601,-0.8460678304032477,-0.8,1.0,0.0,445.0,916.0,0.0,0,99.0,1
602,602,-0.2594990532750724,-0.3,1.0,0.0,276.0,740.0,0.0,0,444.0,1
603,603,-0.6527249959298208,-0.7,1.0,0.0,329.0,642.0,0.0,0,179.0,1
604,604,0.7547048111179603,0.8,1.0,1.0,293.0,588.0,1.0,1,319.0,1
605,605,-0.21941143283120024,-0.2,0.0,1.0,419.0,998.0,1.0,0,733.0,1
606,606,0.8871331095961169,0.9,1.0,1.0,376.0,915.0,1.0,1,189.0,1
607,607,-0.5190399040623397,-0.5,0.0,1.0,324.0,860.0,1.0,0,96.0,1
608,608,0.4184336757208508,0.4,0.0,0.0,329.0,619.0,0.0,1,402.0,1
609,609,0.034075551273021865,0.0,1.0,1.0,451.0,612.0,1.0,1,587.0,1
610,610,0.5407668624473251,0.5,0.0,0.0,333.0,988.0,0.0,1,209.0,1
611,611,0.647729542108595,0.6,1.0,1.0,267.0,575.0,1.0,1,338.0,1
612,612,0.3718669961700035,0.4,1.0,1.0,367.0,554.0,1.0,1,629.0,1
613,613,-0.0675622129204454,-0.1,1.0,0.0,454.0,758.0,0.0,0,158.0,1
614,614,-0.728435033744996,-0.7,1.0,0.0,468.0,552.0,0.0,0,250.0,1
615,615,-0.5123950430144393,-0.5,0.0,1.0,434.0,532.0,1.0,0,474.0,1
616,616,0.7287568862362678,0.7,0.0,0.0,418.0,987.0,0.0,1,145.0,1
617,617,-0.6413264328637982,-0.6,0.0,1.0,324.0,767.0,1.0,0,89.0,1
618,618,-0.8063476221522219,-0.8,0.0,1.0,444.0,870.0,1.0,0,346.0,1
619,619,-0.7451123413182463,-0.7,1.0,0.0,261.0,678.0,0.0,0,331.0,1
620,620,0.5526654120773541,0.6,0.0,0.0,400.0,712.0,0.0,1,488.0,1
621,621,0.7718670207409345,0.8,0.0,0.0,336.0,564.0,0.0,1,860.0,1
622,622,0.19883679094093176,0.2,1.0,1.0,397.0,596.0,1.0,1,567.0,1
623,623,0.4652318365351723,0.5,0.0,0.0,470.0,627.0,0.0,1,703.0,1
624,624,0.4809829630342023,0.5,0.0,0.0,332.0,863.0,0.0,1,275.0,1
625,625,0.024915905752803558,0.0,1.0,1.0,358.0,781.0,1.0,1,711.0,1
626,626,-0.7663902342962392,-0.8,0.0,1.0,268.0,700.0,1.0,0,152.0,1
627,627,0.6861025939672317,0.7,0.0,0.0,307.0,522.0,0.0,1,641.0,1
628,628,-0.27937372385062653,-0.3,0.0,1.0,410.0,795.0,1.0,0,445.0,1
629,629,0.5488313609930345,0.5,0.0,0.0,320.0,662.0,0.0,1,588.0,1
630,630,-0.8925241293691174,-0.9,1.0,0.0,378.0,834.0,0.0,0,138.0,1
631,631,-0.2768269248984764,-0.3,1.0,0.0,392.0,517.0,0.0,0,521.0,1
632,632,0.5265988626599437,0.5,0.0,0.0,375.0,611.0,0.0,1,204.0,1
633,633,-0.898207029323851,-0.9,0.0,1.0,379.0,847.0,1.0,0,234.0,1
634,634,0.5177752182531482,0.5,1.0,1.0,339.0,533.0,1.0,1,328.0,1
635,635,0.6990414567689348,0.7,0.0,0.0,390.0,783.0,0.0,1,727.0,1
636,636,-0.30532542541841456,-0.3,1.0,0.0,439.0,843.0,0.0,0,358.0,1
637,637,0.36365747257207814,0.4,1.0,1.0,395.0,618.0,1.0,1,277.0,1
638,638,0.351124385739204,0.4,0.0,0.0,465.0,913.0,0.0,1,312.0,1
639,639,0.007115338464690368,0.0,0.0,0.0,392.0,850.0,0.0,1,798.0,1
640,640,0.10964503873172704,0.1,0.0,0.0,264.0,526.0,0.0,1,1680.0,1
641,641,0.14082813127760663,0.1,1.0,1.0,424.0,557.0,1.0,1,749.0,1
642,642,0.12984980975597005,0.1,0.0,0.0,307.0,900.0,0.0,1,403.0,1
643,643,0.2099737839281729,0.2,1.0,1.0,310.0,576.0,1.0,1,524.0,1
644,644,-0.8850762411716021,-0.9,1.0,0.0,298.0,801.0,0.0,0,171.0,1
645,645,0.39412986220312585,0.4,0.0,0.0,323.0,592.0,0.0,1,415.0,1
646,646,-0.3089144177794202,-0.3,1.0,0.0,319.0,775.0,0.0,0,336.0,1
647,647,0.20682539368762443,0.2,1.0,1.0,287.0,903.0,1.0,1,110.0,1
648,648,0.4737348061820087,0.5,0.0,0.0,491.0,874.0,0.0,1,245.0,1
649,649,0.829753222972054,0.8,0.0,0.0,325.0,502.0,0.0,1,813.0,1
650,650,-0.36022485231651213,-0.4,1.0,0.0,325.0,860.0,0.0,0,245.0,1
651,651,0.6368259657136218,0.6,1.0,1.0,343.0,650.0,1.0,1,357.0,1
652,652,0.5980106448420454,0.6,1.0,1.0,340.0,973.0,1.0,1,187.0,1
653,653,-0.054231304402610925,-0.1,0.0,1.0,385.0,529.0,1.0,0,576.0,1
654,654,0.3421170515941311,0.3,1.0,1.0,363.0,594.0,1.0,1,473.0,1
655,655,0.3366915420942683,0.3,1.0,1.0,284.0,615.0,1.0,1,491.0,1
656,656,0.44371154043841055,0.4,1.0,1.0,333.0,636.0,1.0,1,221.0,1
657,657,0.7324875187038457,0.7,0.0,0.0,368.0,742.0,0.0,1,260.0,1
658,658,-0.2417574667274066,-0.2,0.0,1.0,386.0,955.0,1.0,0,339.0,1
659,659,-0.5355381366762635,-0.5,1.0,0.0,333.0,611.0,0.0,0,346.0,1
660,660,-0.38279640858833475,-0.4,1.0,0.0,445.0,959.0,0.0,0,116.0,1
661,661,-0.059449150231344894,-0.1,0.0,1.0,448.0,538.0,1.0,0,764.0,1
662,662,-0.4296461782570213,-0.4,0.0,1.0,290.0,511.0,1.0,0,439.0,1
663,663,0.2504229858788013,0.3,0.0,0.0,297.0,521.0,0.0,1,1092.0,1
664,664,0.6429547009143485,0.6,0.0,0.0,267.0,946.0,0.0,1,137.0,1
665,665,0.14953353430469496,0.1,0.0,0.0,423.0,658.0,0.0,1,3399.0,1
666,666,-0.48136990872611446,-0.5,1.0,0.0,290.0,800.0,0.0,0,160.0,1
667,667,0.7963111993093176,0.8,1.0,1.0,373.0,841.0,1.0,1,136.0,1
668,668,0.6846812093001752,0.7,1.0,1.0,299.0,670.0,1.0,1,261.0,1
669,669,-0.7120281288329661,-0.7,1.0,0.0,355.0,676.0,0.0,0,109.0,1
670,670,0.12343866444576423,0.1,0.0,0.0,352.0,505.0,0.0,1,873.0,1
671,671,-0.07399026521538721,-0.1,1.0,0.0,345.0,987.0,0.0,0,658.0,1
672,672,0.21635354744339785,0.2,1.0,1.0,497.0,595.0,1.0,1,258.0,1
673,673,0.4459567630789948,0.4,1.0,1.0,385.0,717.0,1.0,1,218.0,1
674,674,-0.8239900104741398,-0.8,0.0,1.0,401.0,529.0,1.0,0,340.0,1
675,675,0.46209793858719184,0.5,0.0,0.0,382.0,577.0,0.0,1,371.0,1
676,676,0.7669458686112159,0.8,0.0,0.0,294.0,887.0,0.0,1,129.0,1
677,677,0.541883876554404,0.5,1.0,1.0,471.0,907.0,1.0,1,202.0,1
678,678,0.4887267254932842,0.5,0.0,0.0,486.0,641.0,0.0,1,273.0,1
679,679,-0.5005238053100787,-0.5,1.0,0.0,293.0,667.0,0.0,0,240.0,1
680,680,-0.44827245373323465,-0.4,1.0,0.0,297.0,968.0,0.0,0,185.0,1
681,681,0.8530768692426448,0.9,0.0,0.0,434.0,920.0,0.0,1,386.0,1
682,682,-0.7025945485097378,-0.7,0.0,1.0,258.0,511.0,1.0,0,431.0,1
683,683,-0.3291266379994734,-0.3,0.0,1.0,274.0,683.0,1.0,0,393.0,1
684,684,0.3259856099365336,0.3,0.0,0.0,413.0,957.0,0.0,1,360.0,1
685,685,-0.7478305990685626,-0.7,0.0,1.0,406.0,744.0,1.0,0,150.0,1
686,686,-0.09580519008589072,-0.1,1.0,0.0,498.0,716.0,0.0,0,706.0,1
687,687,-0.3771703963044779,-0.4,1.0,0.0,326.0,773.0,0.0,0,131.0,1
688,688,0.05251954120556468,0.1,1.0,1.0,416.0,750.0,1.0,1,1004.0,1
689,689,0.7650983251899669,0.8,1.0,1.0,482.0,519.0,1.0,1,219.0,1
690,690,-0.6269876659007163,-0.6,0.0,1.0,398.0,677.0,1.0,0,225.0,1
691,691,-0.07834877759186076,-0.1,1.0,0.0,369.0,981.0,1.0,1,-230.0,0
692,692,-0.08266508520566107,-0.1,0.0,1.0,284.0,539.0,1.0,0,727.0,1
693,693,-0.753170241489867,-0.8,1.0,0.0,410.0,526.0,0.0,0,294.0,1
694,694,0.515148957236799,0.5,1.0,1.0,283.0,834.0,1.0,1,143.0,1
695,695,0.15452790872700495,0.2,0.0,0.0,499.0,958.0,0.0,1,253.0,1
696,696,0.6374559225691806,0.6,1.0,1.0,435.0,569.0,1.0,1,456.0,1
697,697,0.5673493794596488,0.6,0.0,0.0,310.0,571.0,0.0,1,659.0,1
698,698,-0.5566564311221714,-0.6,0.0,1.0,446.0,930.0,1.0,0,174.0,1
699,699,-0.23404986642956727,-0.2,1.0,0.0,476.0,600.0,0.0,0,534.0,1
700,700,0.03352727993033755,0.0,0.0,0.0,440.0,744.0,0.0,1,586.0,1
701,701,0.17084751965343636,0.2,1.0,1.0,499.0,812.0,1.0,1,119.0,1
702,702,-0.630821573726033,-0.6,1.0,0.0,460.0,616.0,0.0,0,454.0,1
703,703,0.8949625432636142,0.9,0.0,0.0,475.0,722.0,0.0,1,243.0,1
704,704,0.7975292023776029,0.8,1.0,1.0,445.0,981.0,1.0,1,34.0,1
705,705,0.09458800557418123,0.1,0.0,0.0,415.0,717.0,0.0,1,2148.0,1
706,706,-0.6003376615331268,-0.6,0.0,1.0,382.0,829.0,1.0,0,59.0,1
707,707,0.7231072846718968,0.7,0.0,0.0,268.0,950.0,0.0,1,292.0,1
708,708,0.7474205079654016,0.7,0.0,0.0,313.0,746.0,0.0,1,391.0,1
709,709,0.7907768974639534,0.8,1.0,1.0,480.0,688.0,1.0,1,192.0,1
710,710,0.5499752253812485,0.5,0.0,0.0,330.0,771.0,0.0,1,319.0,1
711,711,-0.46647165492159515,-0.5,0.0,1.0,253.0,653.0,1.0,0,144.0,1
712,712,-0.4124763282413409,-0.4,1.0,0.0,301.0,935.0,0.0,0,154.0,1
713,713,0.1507907362831712,0.2,1.0,1.0,465.0,769.0,1.0,1,496.0,1
714,714,-0.3794753949449188,-0.4,1.0,0.0,262.0,575.0,0.0,0,243.0,1
715,715,0.6349743385514736,0.6,0.0,0.0,315.0,941.0,0.0,1,444.0,1
716,716,0.7818980672986596,0.8,1.0,1.0,316.0,894.0,1.0,1,210.0,1
717,717,0.4752282872232937,0.5,1.0,1.0,487.0,803.0,1.0,1,270.0,1
718,718,-0.6893598049832128,-0.7,1.0,0.0,346.0,525.0,0.0,0,279.0,1
719,719,-0.6422319992496255,-0.6,0.0,1.0,371.0,952.0,1.0,0,237.0,1
720,720,0.5845762515808103,0.6,1.0,1.0,303.0,699.0,1.0,1,308.0,1
721,721,0.013889152676564653,0.0,1.0,1.0,297.0,756.0,0.0,0,267.0,0
722,722,0.5171496759269695,0.5,0.0,0.0,430.0,908.0,0.0,1,352.0,1
723,723,0.45270471972167126,0.5,0.0,0.0,428.0,753.0,0.0,1,449.0,1
724,724,0.6316393712208385,0.6,1.0,1.0,407.0,597.0,1.0,1,576.0,1
725,725,0.8872649959089319,0.9,1.0,1.0,391.0,960.0,1.0,1,239.0,1
726,726,0.6912873569394179,0.7,1.0,1.0,261.0,634.0,1.0,1,185.0,1
727,727,0.8682861799724674,0.9,0.0,0.0,279.0,668.0,0.0,1,203.0,1
728,728,0.1376922839801623,0.1,1.0,1.0,423.0,831.0,1.0,1,246.0,1
729,729,0.7055916174854527,0.7,1.0,1.0,288.0,827.0,1.0,1,105.0,1
730,730,0.17734132543101244,0.2,0.0,0.0,321.0,961.0,0.0,1,1038.0,1
731,731,-0.3123939409050549,-0.3,0.0,1.0,457.0,960.0,1.0,0,293.0,1
732,732,0.5814612215249341,0.6,0.0,0.0,293.0,964.0,0.0,1,153.0,1
733,733,0.7268738484602925,0.7,0.0,0.0,464.0,880.0,0.0,1,176.0,1
734,734,-0.6323912513895414,-0.6,0.0,1.0,445.0,917.0,1.0,0,58.0,1
735,735,-0.4008410793202301,-0.4,1.0,0.0,454.0,826.0,0.0,0,130.0,1
736,736,0.002463858179034606,0.0,0.0,0.0,363.0,889.0,1.0,0,218.0,0
737,737,-0.28510182826040786,-0.3,0.0,1.0,257.0,966.0,1.0,0,907.0,1
738,738,-0.8112842575434507,-0.8,0.0,1.0,313.0,784.0,1.0,0,173.0,1
739,739,-0.07743709044946279,-0.1,0.0,1.0,254.0,568.0,1.0,0,448.0,1
740,740,0.051468754425732954,0.1,1.0,1.0,370.0,917.0,1.0,1,2383.0,1
741,741,0.3434973529097477,0.3,0.0,0.0,337.0,562.0,0.0,1,571.0,1
742,742,-0.5978670553295204,-0.6,0.0,1.0,273.0,671.0,1.0,0,226.0,1
743,743,-0.6229632181222235,-0.6,0.0,1.0,292.0,644.0,1.0,0,274.0,1
744,744,0.327199668553828,0.3,1.0,1.0,401.0,760.0,1.0,1,319.0,1
745,745,0.07209266898180267,0.1,0.0,0.0,436.0,916.0,0.0,1,1278.0,1
746,746,0.6783677242601572,0.7,0.0,0.0,465.0,695.0,0.0,1,420.0,1
747,747,-0.20642422846913222,-0.2,1.0,0.0,472.0,757.0,0.0,0,241.0,1
748,748,0.5441479188277271,0.5,0.0,0.0,385.0,598.0,0.0,1,567.0,1
749,749,-0.6799798697974411,-0.7,0.0,1.0,494.0,647.0,1.0,0,419.0,1
750,750,-0.48784501356864535,-0.5,1.0,0.0,403.0,975.0,0.0,0,652.0,1
751,751,0.8227127844711194,0.8,0.0,0.0,458.0,917.0,0.0,1,275.0,1
752,752,-0.7252452723683357,-0.7,1.0,0.0,321.0,630.0,0.0,0,189.0,1
753,753,-0.7950617947935777,-0.8,1.0,0.0,411.0,861.0,0.0,0,168.0,1
754,754,-0.6028670026753844,-0.6,1.0,0.0,267.0,613.0,0.0,0,400.0,1
755,755,0.36361581387502306,0.4,1.0,1.0,259.0,618.0,1.0,1,363.0,1
756,756,-0.37699553915518125,-0.4,1.0,0.0,419.0,917.0,0.0,0,204.0,1
757,757,-0.7595213447532773,-0.8,1.0,0.0,340.0,773.0,0.0,0,237.0,1
758,758,-0.5650255513022788,-0.6,1.0,0.0,312.0,943.0,0.0,0,165.0,1
759,759,0.16370244938517764,0.2,0.0,0.0,323.0,859.0,0.0,1,378.0,1
760,760,-0.5434083925785727,-0.5,1.0,0.0,410.0,945.0,0.0,0,85.0,1
761,761,0.7089150862249413,0.7,0.0,0.0,314.0,947.0,0.0,1,199.0,1
762,762,0.12237105293259354,0.1,1.0,1.0,399.0,984.0,1.0,1,117.0,1
763,763,0.16240350228736367,0.2,1.0,1.0,368.0,532.0,1.0,1,780.0,1
764,764,-0.3738561135608791,-0.4,0.0,1.0,251.0,681.0,1.0,0,428.0,1
765,765,0.8249667280016802,0.8,0.0,0.0,454.0,997.0,0.0,1,189.0,1
766,766,-0.054909967309709096,-0.1,1.0,0.0,428.0,590.0,0.0,0,782.0,1
767,767,0.8463995647939201,0.8,0.0,0.0,367.0,918.0,0.0,1,555.0,1
768,768,-0.8221121828599931,-0.8,1.0,0.0,420.0,578.0,0.0,0,312.0,1
769,769,-0.7812590547009207,-0.8,1.0,0.0,342.0,621.0,0.0,0,427.0,1
770,770,-0.1844798341340721,-0.2,0.0,1.0,258.0,804.0,1.0,0,1418.0,1
771,771,0.34608950179659426,0.3,0.0,0.0,358.0,703.0,0.0,1,729.0,1
772,772,-0.11446817050136693,-0.1,0.0,1.0,385.0,538.0,1.0,0,677.0,1
773,773,0.37557480495391193,0.4,1.0,1.0,452.0,631.0,1.0,1,487.0,1
774,774,-0.10715621476262449,-0.1,1.0,0.0,270.0,645.0,0.0,0,725.0,1
775,775,0.37324766896569306,0.4,1.0,1.0,315.0,771.0,1.0,1,204.0,1
776,776,-0.5725174477950625,-0.6,1.0,0.0,479.0,832.0,0.0,0,59.0,1
777,777,-0.49297818218316797,-0.5,1.0,0.0,294.0,915.0,0.0,0,291.0,1
778,778,0.29388943430976255,0.3,1.0,1.0,475.0,734.0,1.0,1,931.0,1
779,779,0.05873335979755445,0.1,1.0,1.0,317.0,898.0,1.0,1,1455.0,1
780,780,0.3485264458942722,0.3,0.0,0.0,309.0,905.0,0.0,1,296.0,1
781,781,-0.8406952994125805,-0.8,1.0,0.0,448.0,861.0,0.0,0,121.0,1
782,782,-0.04072135603145366,-0.0,1.0,0.0,254.0,537.0,0.0,0,1499.0,1
783,783,-0.4997094377135643,-0.5,1.0,0.0,480.0,599.0,0.0,0,351.0,1
784,784,-0.7781982864408511,-0.8,0.0,1.0,429.0,819.0,1.0,0,242.0,1
785,785,0.7474074140242496,0.7,1.0,1.0,294.0,543.0,1.0,1,333.0,1
786,786,-0.47470513869988296,-0.5,1.0,0.0,493.0,592.0,0.0,0,345.0,1
787,787,-0.34857547504007513,-0.3,0.0,1.0,344.0,633.0,1.0,0,463.0,1
788,788,-0.46320666002495986,-0.5,1.0,0.0,471.0,637.0,0.0,0,352.0,1
789,789,0.6794196582235034,0.7,0.0,0.0,437.0,799.0,0.0,1,344.0,1
790,790,0.022676037452461384,0.0,0.0,0.0,425.0,853.0,0.0,1,1072.0,1
791,791,-0.3391561424353138,-0.3,1.0,0.0,485.0,711.0,0.0,0,384.0,1
792,792,-0.38866929796362226,-0.4,0.0,1.0,412.0,565.0,1.0,0,363.0,1
793,793,-0.6216421252248137,-0.6,1.0,0.0,353.0,686.0,0.0,0,271.0,1
794,794,-0.17270529080835995,-0.2,1.0,0.0,354.0,909.0,0.0,0,897.0,1
795,795,-0.2668516540400977,-0.3,0.0,1.0,480.0,699.0,1.0,0,421.0,1
796,796,0.2502270243702257,0.3,0.0,0.0,310.0,697.0,0.0,1,523.0,1
797,797,-0.26311883718974427,-0.3,0.0,1.0,443.0,681.0,1.0,0,466.0,1
798,798,0.1925980738407017,0.2,1.0,1.0,481.0,587.0,1.0,1,542.0,1
799,799,0.3204241010055823,0.3,0.0,0.0,394.0,823.0,0.0,1,323.0,1
800,800,0.11149726181294406,0.1,0.0,0.0,319.0,678.0,0.0,1,893.0,1
801,801,0.31956267529423166,0.3,0.0,0.0,480.0,610.0,0.0,1,590.0,1
802,802,-0.06096701815452743,-0.1,1.0,0.0,412.0,885.0,0.0,0,2063.0,1
803,803,0.872420693401435,0.9,1.0,1.0,425.0,557.0,1.0,1,278.0,1
804,804,0.49065291857946114,0.5,1.0,1.0,425.0,648.0,1.0,1,507.0,1
805,805,0.6708976955113092,0.7,0.0,0.0,344.0,515.0,0.0,1,301.0,1
806,806,0.8721975878520648,0.9,0.0,0.0,491.0,699.0,0.0,1,570.0,1
807,807,-0.5740757913811335,-0.6,1.0,0.0,445.0,636.0,0.0,0,219.0,1
808,808,-0.41294994142048663,-0.4,0.0,1.0,414.0,965.0,1.0,0,501.0,1
809,809,-0.35322511158829695,-0.4,1.0,0.0,375.0,996.0,0.0,0,119.0,1
810,810,-0.04047904100297939,-0.0,1.0,0.0,260.0,885.0,0.0,0,605.0,1
811,811,0.4565129008169754,0.5,0.0,0.0,322.0,950.0,0.0,1,378.0,1
812,812,-0.7395781353856575,-0.7,0.0,1.0,336.0,641.0,1.0,0,273.0,1
813,813,-0.3429842316131214,-0.3,0.0,1.0,252.0,966.0,1.0,0,122.0,1
814,814,0.3032388972937822,0.3,1.0,1.0,258.0,664.0,1.0,1,638.0,1
815,815,-0.611963078637831,-0.6,0.0,1.0,251.0,518.0,1.0,0,361.0,1
816,816,0.7437636814288052,0.7,0.0,0.0,345.0,757.0,0.0,1,288.0,1
817,817,0.7943528983964722,0.8,0.0,0.0,455.0,664.0,0.0,1,271.0,1
818,818,-0.7296906803612963,-0.7,1.0,0.0,453.0,829.0,0.0,0,178.0,1
819,819,-0.8066279408542472,-0.8,0.0,1.0,489.0,660.0,1.0,0,91.0,1
820,820,0.08416254098236475,0.1,1.0,1.0,259.0,916.0,1.0,1,325.0,1
821,821,-0.6966879248654574,-0.7,0.0,1.0,284.0,923.0,1.0,0,133.0,1
822,822,0.8700565292817907,0.9,1.0,1.0,457.0,811.0,1.0,1,102.0,1
823,823,-0.13418494782494472,-0.1,0.0,1.0,284.0,709.0,1.0,0,707.0,1
824,824,0.7841615758818198,0.8,1.0,1.0,352.0,750.0,1.0,1,208.0,1
825,825,-0.45740038873404687,-0.5,0.0,1.0,319.0,648.0,1.0,0,313.0,1
826,826,-0.5228559648844249,-0.5,1.0,0.0,329.0,919.0,0.0,0,252.0,1
827,827,-0.581537466419868,-0.6,0.0,1.0,405.0,579.0,1.0,0,136.0,1
828,828,-0.3765886740082859,-0.4,0.0,1.0,268.0,875.0,1.0,0,407.0,1
829,829,0.8524754353701792,0.9,1.0,1.0,404.0,848.0,1.0,1,288.0,1
830,830,-0.8396835573922321,-0.8,1.0,0.0,272.0,658.0,0.0,0,270.0,1
831,831,0.17673719094151308,0.2,0.0,0.0,253.0,526.0,0.0,1,561.0,1
832,832,-0.08544398423779864,-0.1,0.0,1.0,371.0,702.0,1.0,0,2067.0,1
833,833,-0.3495544118537959,-0.3,0.0,1.0,411.0,739.0,1.0,0,390.0,1
834,834,-0.6011639318383297,-0.6,1.0,0.0,478.0,644.0,0.0,0,428.0,1
835,835,-0.7440461087778274,-0.7,0.0,1.0,251.0,591.0,1.0,0,238.0,1
836,836,0.2279160696226431,0.2,1.0,1.0,269.0,916.0,1.0,1,405.0,1
837,837,0.7949834016117415,0.8,0.0,0.0,408.0,710.0,0.0,1,402.0,1
838,838,-0.09380046850652413,-0.1,1.0,0.0,487.0,911.0,0.0,0,602.0,1
839,839,-0.2999282290884633,-0.3,0.0,1.0,313.0,748.0,1.0,0,179.0,1
840,840,-0.5470854375167145,-0.5,0.0,1.0,255.0,980.0,1.0,0,95.0,1
841,841,0.38801193727618266,0.4,1.0,1.0,353.0,888.0,1.0,1,119.0,1
842,842,-0.119024514413678,-0.1,1.0,0.0,262.0,619.0,0.0,0,1159.0,1
843,843,-0.5280236441138888,-0.5,1.0,0.0,429.0,594.0,0.0,0,337.0,1
844,844,0.6990812725939258,0.7,1.0,1.0,302.0,760.0,1.0,1,298.0,1
845,845,0.34035424703203987,0.3,1.0,1.0,358.0,624.0,1.0,1,208.0,1
846,846,-0.017687213662481494,-0.0,1.0,0.0,430.0,985.0,0.0,0,1235.0,1
847,847,-0.27741444857875674,-0.3,0.0,1.0,332.0,787.0,1.0,0,301.0,1
848,848,0.5457850299537418,0.5,1.0,1.0,280.0,991.0,1.0,1,129.0,1
849,849,0.6210318208991378,0.6,0.0,0.0,259.0,892.0,0.0,1,69.0,1
850,850,-0.5155959063173801,-0.5,0.0,1.0,411.0,761.0,1.0,0,428.0,1
851,851,0.026843946640676797,0.0,0.0,0.0,264.0,688.0,0.0,1,1958.0,1
852,852,0.10024142234457278,0.1,0.0,0.0,287.0,605.0,0.0,1,1148.0,1
853,853,-0.8642741862318734,-0.9,1.0,0.0,477.0,873.0,0.0,0,130.0,1
854,854,0.5173079029930546,0.5,1.0,1.0,293.0,805.0,1.0,1,192.0,1
855,855,0.5976483240569411,0.6,1.0,1.0,432.0,665.0,1.0,1,333.0,1
856,856,-0.3765557770731711,-0.4,0.0,1.0,390.0,676.0,1.0,0,374.0,1
857,857,-0.2967527224407982,-0.3,0.0,1.0,283.0,721.0,1.0,0,436.0,1
858,858,0.4225179336556485,0.4,1.0,1.0,297.0,681.0,1.0,1,202.0,1
859,859,0.36559745546963474,0.4,1.0,1.0,366.0,993.0,1.0,1,101.0,1
860,860,-0.7955813998168468,-0.8,1.0,0.0,454.0,971.0,0.0,0,135.0,1
861,861,-0.5482592824219569,-0.5,1.0,0.0,417.0,967.0,0.0,0,176.0,1
862,862,-0.05303144768937784,-0.1,0.0,1.0,264.0,733.0,1.0,0,3653.0,1
863,863,0.6542551973948679,0.7,0.0,0.0,401.0,792.0,0.0,1,347.0,1
864,864,0.43296521159746104,0.4,1.0,1.0,383.0,606.0,1.0,1,231.0,1
865,865,0.5082812917832585,0.5,0.0,0.0,333.0,915.0,0.0,1,472.0,1
866,866,0.3905123716523785,0.4,0.0,0.0,459.0,595.0,0.0,1,686.0,1
867,867,0.18784392902739622,0.2,1.0,1.0,443.0,955.0,1.0,1,782.0,1
868,868,-0.46166821156572824,-0.5,1.0,0.0,276.0,703.0,0.0,0,221.0,1
869,869,-0.16007946575059884,-0.2,1.0,0.0,264.0,516.0,0.0,0,2080.0,1
870,870,0.1387949188580152,0.1,1.0,1.0,371.0,697.0,1.0,1,352.0,1
871,871,-0.0668401209640126,-0.1,0.0,1.0,254.0,937.0,1.0,0,439.0,1
872,872,-0.30884403315209796,-0.3,0.0,1.0,339.0,792.0,1.0,0,479.0,1
873,873,0.3432761877100786,0.3,1.0,1.0,390.0,998.0,1.0,1,62.0,1
874,874,0.04033338769268657,0.0,1.0,1.0,434.0,693.0,0.0,0,533.0,0
875,875,-0.4107845069203608,-0.4,0.0,1.0,422.0,697.0,1.0,0,291.0,1
876,876,0.3198435252830666,0.3,1.0,1.0,474.0,892.0,1.0,1,324.0,1
877,877,0.051733097171266174,0.1,1.0,1.0,421.0,974.0,1.0,1,515.0,1
878,878,-0.5543022195549763,-0.6,0.0,1.0,492.0,895.0,1.0,0,113.0,1
879,879,-0.08808590802600136,-0.1,0.0,1.0,307.0,858.0,1.0,0,2035.0,1
880,880,-0.5949644142376904,-0.6,1.0,0.0,400.0,597.0,0.0,0,263.0,1
881,881,0.6383409281097366,0.6,1.0,1.0,418.0,772.0,1.0,1,330.0,1
882,882,0.5424998664313648,0.5,0.0,0.0,312.0,899.0,0.0,1,179.0,1
883,883,0.23702548447709726,0.2,1.0,1.0,498.0,948.0,1.0,1,694.0,1
884,884,-0.7902507890886433,-0.8,1.0,0.0,280.0,531.0,0.0,0,329.0,1
885,885,0.21985721759331722,0.2,0.0,0.0,458.0,640.0,0.0,1,392.0,1
886,886,-0.0011324944374697665,-0.0,0.0,1.0,374.0,761.0,1.0,0,3795.0,1
887,887,-0.6538199543449944,-0.7,0.0,1.0,353.0,604.0,1.0,0,343.0,1
888,888,0.5094524367923622,0.5,0.0,0.0,318.0,513.0,0.0,1,519.0,1
889,889,0.008236854158469309,0.0,1.0,1.0,303.0,696.0,1.0,1,301.0,1
890,890,0.8247928004668984,0.8,0.0,0.0,464.0,784.0,0.0,1,152.0,1
891,891,0.8570895580373096,0.9,1.0,1.0,321.0,690.0,1.0,1,99.0,1
892,892,-0.064621849667306,-0.1,1.0,0.0,427.0,691.0,0.0,0,1802.0,1
893,893,0.7590384589325369,0.8,0.0,0.0,399.0,638.0,0.0,1,153.0,1
894,894,0.688662415169634,0.7,0.0,0.0,481.0,588.0,0.0,1,561.0,1
895,895,-0.29352168138257984,-0.3,1.0,0.0,364.0,821.0,0.0,0,215.0,1
896,896,0.5318363208255247,0.5,0.0,0.0,282.0,658.0,0.0,1,530.0,1
897,897,0.3464632992531561,0.3,1.0,1.0,462.0,525.0,1.0,1,483.0,1
898,898,0.07232190192253862,0.1,0.0,0.0,494.0,532.0,0.0,1,3084.0,1
899,899,-0.6164593501574167,-0.6,0.0,1.0,281.0,753.0,1.0,0,436.0,1
900,900,-0.48091645919356146,-0.5,1.0,0.0,281.0,537.0,0.0,0,632.0,1
901,901,0.13365163833329297,0.1,1.0,1.0,270.0,836.0,1.0,1,654.0,1
902,902,0.5949133099811831,0.6,0.0,0.0,471.0,988.0,0.0,1,141.0,1
903,903,-0.010530071671168595,-0.0,1.0,0.0,367.0,860.0,0.0,0,863.0,1
904,904,0.32477606539567694,0.3,0.0,0.0,404.0,579.0,0.0,1,1077.0,1
905,905,0.8383435396985682,0.8,1.0,1.0,336.0,812.0,1.0,1,222.0,1
906,906,0.010049799399213466,0.0,1.0,1.0,436.0,904.0,1.0,1,140.0,1
907,907,0.5976894133319849,0.6,0.0,0.0,301.0,576.0,0.0,1,243.0,1
908,908,0.7748690934158514,0.8,1.0,1.0,469.0,602.0,1.0,1,329.0,1
909,909,-0.7582257526733385,-0.8,1.0,0.0,490.0,539.0,0.0,0,251.0,1
910,910,-0.3825363595739325,-0.4,0.0,1.0,394.0,649.0,1.0,0,717.0,1
911,911,0.6547618824088418,0.7,0.0,0.0,268.0,873.0,0.0,1,99.0,1
912,912,0.6972854046816505,0.7,0.0,0.0,396.0,977.0,0.0,1,97.0,1
913,913,-0.42796589048225947,-0.4,1.0,0.0,382.0,783.0,0.0,0,355.0,1
914,914,-0.29355538616061116,-0.3,0.0,1.0,390.0,822.0,1.0,0,138.0,1
915,915,0.2549020849233946,0.3,1.0,1.0,429.0,623.0,1.0,1,878.0,1
916,916,0.6736257544507035,0.7,0.0,0.0,300.0,949.0,0.0,1,101.0,1
917,917,0.7490096465386126,0.7,0.0,0.0,468.0,969.0,0.0,1,43.0,1
918,918,-0.5993051310638663,-0.6,0.0,1.0,341.0,551.0,1.0,0,418.0,1
919,919,-0.36657091638290773,-0.4,1.0,0.0,274.0,761.0,0.0,0,175.0,1
920,920,-0.2139817493265691,-0.2,0.0,1.0,287.0,625.0,1.0,0,598.0,1
921,921,0.5297710264200396,0.5,1.0,1.0,319.0,690.0,1.0,1,311.0,1
922,922,0.293799420365774,0.3,0.0,0.0,285.0,715.0,0.0,1,520.0,1
923,923,0.7251437252145391,0.7,1.0,1.0,271.0,920.0,1.0,1,169.0,1
924,924,0.2558375842979682,0.3,0.0,0.0,429.0,606.0,0.0,1,405.0,1
925,925,0.5024195076105414,0.5,1.0,1.0,419.0,633.0,1.0,1,488.0,1
926,926,0.1595213019700611,0.2,0.0,0.0,423.0,878.0,0.0,1,399.0,1
927,927,0.45199160917636927,0.5,1.0,1.0,389.0,964.0,1.0,1,327.0,1
928,928,-0.47293741903922193,-0.5,1.0,0.0,400.0,808.0,0.0,0,252.0,1
929,929,0.8239479947116214,0.8,0.0,0.0,496.0,928.0,0.0,1,216.0,1
930,930,-0.6892544192961635,-0.7,1.0,0.0,494.0,584.0,0.0,0,302.0,1
931,931,-0.8876048946946191,-0.9,1.0,0.0,262.0,833.0,0.0,0,195.0,1
932,932,-0.0029584673125676586,-0.0,1.0,0.0,289.0,654.0,1.0,1,2817.0,0
933,933,-0.2872957998230289,-0.3,0.0,1.0,344.0,639.0,1.0,0,527.0,1
934,934,-0.20699252481795583,-0.2,0.0,1.0,348.0,858.0,1.0,0,994.0,1
935,935,0.48050324070695505,0.5,1.0,1.0,287.0,642.0,1.0,1,241.0,1
936,936,-0.3997072616407076,-0.4,1.0,0.0,460.0,617.0,0.0,0,323.0,1
937,937,-0.17907881775496526,-0.2,0.0,1.0,363.0,965.0,1.0,0,672.0,1
938,938,0.7339331647475346,0.7,1.0,1.0,290.0,650.0,1.0,1,200.0,1
939,939,-0.23756443938734484,-0.2,1.0,0.0,487.0,910.0,0.0,0,253.0,1
940,940,-0.7233118216640194,-0.7,0.0,1.0,461.0,786.0,1.0,0,233.0,1
941,941,-0.3681242904139107,-0.4,0.0,1.0,377.0,584.0,1.0,0,429.0,1
942,942,0.838509341270104,0.8,0.0,0.0,326.0,694.0,0.0,1,540.0,1
943,943,-0.5693695299828712,-0.6,0.0,1.0,474.0,748.0,1.0,0,338.0,1
944,944,-0.6314718041934784,-0.6,0.0,1.0,393.0,545.0,1.0,0,282.0,1
945,945,-0.8040395674565006,-0.8,1.0,0.0,265.0,986.0,0.0,0,139.0,1
946,946,-0.6847707457101245,-0.7,0.0,1.0,351.0,834.0,1.0,0,115.0,1
947,947,-0.5848756414433082,-0.6,0.0,1.0,274.0,965.0,1.0,0,241.0,1
948,948,0.518121436274095,0.5,1.0,1.0,285.0,676.0,1.0,1,369.0,1
949,949,0.5138936401985931,0.5,0.0,0.0,400.0,553.0,0.0,1,887.0,1
950,950,-0.4073562249671575,-0.4,1.0,0.0,335.0,655.0,0.0,0,370.0,1
951,951,-0.38165682668027856,-0.4,0.0,1.0,329.0,647.0,1.0,0,594.0,1
952,952,-0.014737034454981535,-0.0,0.0,1.0,387.0,890.0,1.0,0,3723.0,1
953,953,0.7320941417027905,0.7,1.0,1.0,418.0,756.0,1.0,1,166.0,1
954,954,-0.2555104540541071,-0.3,1.0,0.0,385.0,817.0,0.0,0,288.0,1
955,955,0.13185702290556833,0.1,0.0,0.0,375.0,603.0,0.0,1,722.0,1
956,956,0.46080620494611224,0.5,1.0,1.0,255.0,619.0,1.0,1,326.0,1
957,957,-0.544763377868551,-0.5,0.0,1.0,417.0,992.0,1.0,0,171.0,1
958,958,-0.7655219669696433,-0.8,0.0,1.0,458.0,873.0,1.0,0,189.0,1
959,959,0.6650649160280212,0.7,0.0,0.0,405.0,587.0,0.0,1,388.0,1
960,960,-0.336379245641265,-0.3,0.0,1.0,464.0,605.0,1.0,0,581.0,1
961,961,0.49410552195213675,0.5,1.0,1.0,448.0,916.0,1.0,1,276.0,1
962,962,-0.2576240107058265,-0.3,0.0,1.0,316.0,928.0,1.0,0,266.0,1
963,963,0.6608444429889656,0.7,0.0,0.0,325.0,677.0,0.0,1,268.0,1
964,964,0.7912250771481771,0.8,1.0,1.0,462.0,982.0,0.0,0,-194.0,0
965,965,0.45068759104685985,0.5,0.0,0.0,309.0,766.0,0.0,1,215.0,1
966,966,-0.6568449098644425,-0.7,1.0,0.0,271.0,967.0,0.0,0,162.0,1
967,967,0.7371983658310789,0.7,0.0,0.0,361.0,957.0,0.0,1,202.0,1
968,968,0.09745620216627071,0.1,0.0,0.0,336.0,813.0,0.0,1,471.0,1
969,969,-0.13294148149593799,-0.1,1.0,0.0,366.0,781.0,0.0,0,253.0,1
970,970,-0.19268084361607407,-0.2,1.0,0.0,270.0,836.0,0.0,0,394.0,1
971,971,0.11022027894544595,0.1,1.0,1.0,334.0,907.0,1.0,1,-91.0,1
972,972,-0.7856966352756725,-0.8,0.0,1.0,313.0,711.0,1.0,0,106.0,1
973,973,-0.020161829129032194,-0.0,1.0,0.0,255.0,686.0,0.0,0,3899.0,1
974,974,-0.07154120600311142,-0.1,0.0,1.0,359.0,511.0,1.0,0,860.0,1
975,975,-0.5989545086576509,-0.6,0.0,1.0,266.0,696.0,1.0,0,318.0,1
976,976,-0.7249055142997248,-0.7,0.0,1.0,258.0,637.0,1.0,0,205.0,1
977,977,-0.6509178625258795,-0.7,1.0,0.0,389.0,521.0,0.0,0,300.0,1
978,978,-0.8503159379761108,-0.9,1.0,0.0,396.0,637.0,0.0,0,247.0,1
979,979,0.5202470600658086,0.5,0.0,0.0,484.0,676.0,0.0,1,440.0,1
980,980,-0.39553151098826755,-0.4,1.0,0.0,258.0,633.0,0.0,0,229.0,1
981,981,0.3868338076734449,0.4,1.0,1.0,361.0,734.0,1.0,1,245.0,1
982,982,0.05555622944157679,0.1,0.0,0.0,477.0,590.0,0.0,1,1753.0,1
983,983,-0.3970316351484042,-0.4,0.0,1.0,349.0,598.0,1.0,0,163.0,1
984,984,-0.591485076381393,-0.6,0.0,1.0,318.0,593.0,1.0,0,319.0,1
985,985,-0.7112783213969401,-0.7,0.0,1.0,406.0,592.0,1.0,0,282.0,1
986,986,0.1101874925369214,0.1,1.0,1.0,479.0,746.0,1.0,1,1855.0,1
987,987,0.21136457469896996,0.2,1.0,1.0,304.0,943.0,1.0,1,343.0,1
988,988,-0.6202402590562555,-0.6,0.0,1.0,317.0,508.0,1.0,0,495.0,1
989,989,-0.5080319077235205,-0.5,0.0,1.0,474.0,554.0,1.0,0,322.0,1
990,990,-0.8122442281729312,-0.8,0.0,1.0,317.0,515.0,1.0,0,378.0,1
991,991,-0.784547978807142,-0.8,1.0,0.0,405.0,719.0,0.0,0,296.0,1
992,992,-0.3179421416508468,-0.3,0.0,1.0,395.0,993.0,1.0,0,432.0,1
993,993,0.6288279862415961,0.6,0.0,0.0,479.0,847.0,0.0,1,334.0,1
994,994,0.15942136407343022,0.2,0.0,0.0,301.0,530.0,0.0,1,679.0,1
995,995,0.3859016392910387,0.4,1.0,1.0,470.0,702.0,1.0,1,188.0,1
996,996,0.49708640209389754,0.5,0.0,0.0,314.0,715.0,0.0,1,411.0,1
997,997,-0.6342705695873794,-0.6,0.0,1.0,458.0,590.0,1.0,0,252.0,1
998,998,0.7180377699293133,0.7,1.0,1.0,266.0,802.0,1.0,1,102.0,1
999,999,0.8907291510014056,0.9,1.0,1.0,490.0,560.0,1.0,1,330.0,1
1000,1000,-0.17922103964628555,-0.2,0.0,1.0,463.0,506.0,1.0,0,731.0,1
1001,1001,0.3131117814850105,0.3,0.0,0.0,313.0,857.0,0.0,1,240.0,1
1002,1002,0.5807387432606058,0.6,1.0,1.0,269.0,954.0,1.0,1,117.0,1
1003,1003,0.31234040290983855,0.3,1.0,1.0,445.0,913.0,1.0,1,552.0,1
1004,1004,-0.8929128459908208,-0.9,0.0,1.0,278.0,784.0,1.0,0,128.0,1
1005,1005,0.6492241312281742,0.6,0.0,0.0,356.0,803.0,0.0,1,241.0,1
1006,1006,0.502758539945649,0.5,1.0,1.0,411.0,807.0,1.0,1,232.0,1
1007,1007,-0.4313504207975913,-0.4,0.0,1.0,385.0,558.0,1.0,0,367.0,1
1008,1008,-0.017633525952533757,-0.0,1.0,0.0,447.0,563.0,0.0,0,1950.0,1
1009,1009,-0.8232195016352521,-0.8,0.0,1.0,296.0,550.0,1.0,0,294.0,1
1010,1010,-0.6694582031996522,-0.7,1.0,0.0,295.0,740.0,0.0,0,125.0,1
1011,1011,0.6785976376008159,0.7,0.0,0.0,287.0,992.0,0.0,1,131.0,1
1012,1012,0.13666604573737262,0.1,1.0,1.0,410.0,678.0,1.0,1,412.0,1
1013,1013,-0.6483262407203222,-0.6,0.0,1.0,254.0,667.0,1.0,0,179.0,1
1014,1014,0.32898999911894966,0.3,0.0,0.0,270.0,628.0,0.0,1,382.0,1
1015,1015,0.5027533278728754,0.5,0.0,0.0,280.0,961.0,0.0,1,439.0,1
1016,1016,0.5511682689604182,0.6,1.0,1.0,259.0,934.0,0.0,0,-93.0,0
1017,1017,0.2939742824472741,0.3,1.0,1.0,386.0,844.0,1.0,1,710.0,1
1018,1018,-0.03548927926101164,-0.0,0.0,1.0,255.0,591.0,1.0,0,1804.0,1
1019,1019,-0.5741665540582556,-0.6,0.0,1.0,409.0,619.0,1.0,0,282.0,1
1020,1020,0.03516373221558933,0.0,0.0,0.0,469.0,628.0,1.0,0,683.0,0
1021,1021,-0.12823981136898455,-0.1,0.0,1.0,292.0,691.0,1.0,0,997.0,1
1022,1022,0.6573332608811019,0.7,1.0,1.0,373.0,930.0,1.0,1,197.0,1
1023,1023,-0.4288595134977677,-0.4,1.0,0.0,421.0,899.0,0.0,0,340.0,1
1024,1024,-0.49143648501661635,-0.5,1.0,0.0,275.0,798.0,0.0,0,297.0,1
1025,1025,0.6663560296522367,0.7,0.0,0.0,324.0,767.0,0.0,1,259.0,1
1026,1026,0.6002053874159349,0.6,0.0,0.0,383.0,596.0,0.0,1,421.0,1
1027,1027,-0.23572600184808556,-0.2,0.0,1.0,426.0,920.0,1.0,0,374.0,1
1028,1028,0.3251946212846265,0.3,1.0,1.0,481.0,944.0,1.0,1,95.0,1
1029,1029,0.5213453086868248,0.5,0.0,0.0,363.0,723.0,0.0,1,374.0,1
1030,1030,-0.3947957672869762,-0.4,0.0,1.0,466.0,693.0,1.0,0,481.0,1
1031,1031,-0.6083641166315583,-0.6,0.0,1.0,454.0,793.0,1.0,0,223.0,1
1032,1032,-0.40212722748126256,-0.4,0.0,1.0,253.0,691.0,1.0,0,356.0,1
1033,1033,-0.7554002260699839,-0.8,0.0,1.0,272.0,910.0,1.0,0,218.0,1
1034,1034,-0.5337351919743956,-0.5,1.0,0.0,370.0,715.0,0.0,0,195.0,1
1035,1035,-0.6267371087089648,-0.6,0.0,1.0,400.0,937.0,1.0,0,93.0,1
1036,1036,-0.594491539257163,-0.6,1.0,0.0,310.0,647.0,0.0,0,243.0,1
1037,1037,-0.2267115664658529,-0.2,0.0,1.0,330.0,609.0,1.0,0,281.0,1
1038,1038,0.8405895661952848,0.8,0.0,0.0,329.0,754.0,0.0,1,267.0,1
1039,1039,0.8404696310014669,0.8,1.0,1.0,269.0,732.0,1.0,1,209.0,1
1040,1040,-0.6248195072932572,-0.6,0.0,1.0,402.0,709.0,1.0,0,249.0,1
1041,1041,0.19314014007005376,0.2,1.0,1.0,342.0,665.0,1.0,1,423.0,1
1042,1042,-0.014910618280398857,-0.0,1.0,0.0,477.0,789.0,1.0,1,1324.0,0
1043,1043,-0.05514142617962292,-0.1,1.0,0.0,378.0,633.0,0.0,0,1039.0,1
1044,1044,0.8951008600476659,0.9,0.0,0.0,483.0,684.0,0.0,1,333.0,1
1045,1045,-0.30764109504227843,-0.3,1.0,0.0,295.0,636.0,0.0,0,259.0,1
1046,1046,-0.8111979977674488,-0.8,0.0,1.0,452.0,784.0,1.0,0,244.0,1
1047,1047,-0.8034241719279503,-0.8,0.0,1.0,313.0,674.0,1.0,0,153.0,1
1048,1048,-0.6050676995099157,-0.6,1.0,0.0,254.0,793.0,0.0,0,193.0,1
1049,1049,0.5831676359035111,0.6,1.0,1.0,358.0,863.0,1.0,1,269.0,1
1050,1050,-0.07537581099694401,-0.1,1.0,0.0,457.0,841.0,0.0,0,692.0,1
1051,1051,-0.7132243015192528,-0.7,1.0,0.0,261.0,751.0,0.0,0,98.0,1
1052,1052,0.6446018043889113,0.6,1.0,1.0,431.0,907.0,1.0,1,192.0,1
1053,1053,0.709237769168077,0.7,1.0,1.0,264.0,967.0,1.0,1,259.0,1
1054,1054,-0.28939311952298186,-0.3,0.0,1.0,368.0,592.0,1.0,0,410.0,1
1055,1055,-0.8579511463691007,-0.9,1.0,0.0,434.0,770.0,0.0,0,146.0,1
1056,1056,-0.4244240180947406,-0.4,1.0,0.0,283.0,700.0,0.0,0,297.0,1
1057,1057,0.7306670938083416,0.7,1.0,1.0,265.0,809.0,1.0,1,36.0,1
1058,1058,0.4201121096742181,0.4,1.0,1.0,446.0,975.0,1.0,1,349.0,1
1059,1059,0.3302366234427173,0.3,1.0,1.0,321.0,955.0,1.0,1,324.0,1
1060,1060,-0.8065563073137291,-0.8,0.0,1.0,334.0,707.0,1.0,0,179.0,1
1061,1061,0.5098944062699508,0.5,0.0,0.0,310.0,820.0,0.0,1,150.0,1
1062,1062,-0.3994212970547586,-0.4,1.0,0.0,460.0,754.0,0.0,0,236.0,1
1063,1063,0.4808477536300969,0.5,1.0,1.0,484.0,600.0,1.0,1,426.0,1
1064,1064,0.8829212284268758,0.9,1.0,1.0,299.0,606.0,1.0,1,205.0,1
1065,1065,0.8747108247901331,0.9,1.0,1.0,373.0,854.0,1.0,1,193.0,1
1066,1066,-0.6665309075385276,-0.7,1.0,0.0,491.0,784.0,0.0,0,195.0,1
1067,1067,-0.12735625865833178,-0.1,1.0,0.0,459.0,996.0,0.0,0,65.0,1
1068,1068,0.2208784087942567,0.2,1.0,1.0,310.0,721.0,1.0,1,419.0,1
1069,1069,-0.7176491738440366,-0.7,0.0,1.0,473.0,992.0,1.0,0,145.0,1
1070,1070,0.8415119579663356,0.8,1.0,1.0,271.0,976.0,1.0,1,43.0,1
1071,1071,0.8972935857978991,0.9,0.0,0.0,368.0,540.0,0.0,1,292.0,1
1072,1072,0.4193648363012735,0.4,1.0,1.0,360.0,685.0,1.0,1,455.0,1
1073,1073,0.683564967535028,0.7,1.0,1.0,358.0,806.0,1.0,1,156.0,1
1074,1074,0.6319302295421326,0.6,0.0,0.0,462.0,810.0,0.0,1,98.0,1
1075,1075,0.8925555110632312,0.9,1.0,1.0,323.0,569.0,1.0,1,238.0,1
1076,1076,0.1408763125137874,0.1,1.0,1.0,417.0,546.0,1.0,1,437.0,1
1077,1077,0.1444956398681777,0.1,0.0,0.0,268.0,551.0,0.0,1,671.0,1
1078,1078,-0.617691599131319,-0.6,1.0,0.0,336.0,772.0,0.0,0,312.0,1
1079,1079,-0.49703612712684625,-0.5,1.0,0.0,398.0,712.0,0.0,0,260.0,1
1080,1080,0.42726681418169477,0.4,0.0,0.0,261.0,626.0,0.0,1,493.0,1
1081,1081,-0.838086810071772,-0.8,0.0,1.0,435.0,581.0,1.0,0,544.0,1
1082,1082,0.12320937946080346,0.1,1.0,1.0,335.0,969.0,1.0,1,256.0,1
1083,1083,0.12752776406337485,0.1,1.0,1.0,254.0,689.0,1.0,1,337.0,1
1084,1084,-0.7286444111307964,-0.7,0.0,1.0,455.0,888.0,1.0,0,137.0,1
1085,1085,-0.7060851079386546,-0.7,0.0,1.0,443.0,592.0,1.0,0,415.0,1
1086,1086,-0.7666825534226822,-0.8,1.0,0.0,396.0,931.0,0.0,0,33.0,1
1087,1087,-0.519283089441557,-0.5,1.0,0.0,394.0,689.0,0.0,0,377.0,1
1088,1088,-0.710895384118751,-0.7,1.0,0.0,467.0,953.0,0.0,0,130.0,1
1089,1089,0.04677792011468229,0.0,0.0,0.0,432.0,985.0,0.0,1,623.0,1
1090,1090,0.05453535325617642,0.1,0.0,0.0,443.0,514.0,0.0,1,1143.0,1
1091,1091,0.87481780345356,0.9,1.0,1.0,345.0,867.0,1.0,1,138.0,1
1092,1092,0.12838769452433707,0.1,0.0,0.0,425.0,617.0,0.0,1,1048.0,1
1093,1093,-0.013983992073780205,-0.0,1.0,0.0,391.0,640.0,0.0,0,509.0,1
1094,1094,-0.28435415008531173,-0.3,0.0,1.0,351.0,838.0,1.0,0,611.0,1
1095,1095,-0.329391197833539,-0.3,1.0,0.0,499.0,878.0,0.0,0,343.0,1
1096,1096,-0.8611621184373092,-0.9,0.0,1.0,374.0,806.0,1.0,0,180.0,1
1097,1097,0.8279213317282471,0.8,0.0,0.0,386.0,670.0,0.0,1,574.0,1
1098,1098,0.3944546583836813,0.4,1.0,1.0,388.0,615.0,1.0,1,347.0,1
1099,1099,0.8985131372246643,0.9,1.0,1.0,379.0,898.0,1.0,1,93.0,1
1100,1100,-0.5758572499843276,-0.6,0.0,1.0,452.0,984.0,1.0,0,74.0,1
1101,1101,-0.5642267223811019,-0.6,0.0,1.0,266.0,820.0,1.0,0,304.0,1
1102,1102,-0.37762800115677875,-0.4,1.0,0.0,468.0,604.0,0.0,0,68.0,1
1103,1103,-0.409735602836473,-0.4,0.0,1.0,389.0,665.0,1.0,0,296.0,1
1104,1104,-0.26736919394473624,-0.3,1.0,0.0,428.0,737.0,0.0,0,245.0,1
1105,1105,0.3148192699673996,0.3,1.0,1.0,453.0,516.0,1.0,1,621.0,1
1106,1106,-0.04299890275984897,-0.0,0.0,1.0,311.0,757.0,1.0,0,1492.0,1
1107,1107,-0.42338708842959616,-0.4,0.0,1.0,476.0,914.0,1.0,0,580.0,1
1108,1108,0.6172669230301523,0.6,0.0,0.0,400.0,757.0,0.0,1,243.0,1
1109,1109,-0.4822461446255378,-0.5,0.0,1.0,307.0,538.0,1.0,0,565.0,1
1110,1110,0.7444955746555232,0.7,0.0,0.0,416.0,813.0,0.0,1,171.0,1
1111,1111,-0.01282464043692777,-0.0,0.0,1.0,326.0,646.0,1.0,0,808.0,1
1112,1112,0.5768676089523334,0.6,0.0,0.0,478.0,667.0,0.0,1,265.0,1
1113,1113,-0.5139597754418994,-0.5,1.0,0.0,280.0,942.0,0.0,0,168.0,1
1114,1114,-0.35654668395590516,-0.4,1.0,0.0,338.0,576.0,0.0,0,246.0,1
1115,1115,0.6593419687474779,0.7,0.0,0.0,391.0,899.0,0.0,1,380.0,1
1116,1116,0.8374696134060357,0.8,0.0,0.0,319.0,547.0,0.0,1,254.0,1
1117,1117,-0.49613342065743854,-0.5,1.0,0.0,400.0,957.0,0.0,0,213.0,1
1118,1118,0.4437944519744773,0.4,1.0,1.0,324.0,698.0,1.0,1,378.0,1
1119,1119,0.3525838113771099,0.4,1.0,1.0,451.0,567.0,1.0,1,382.0,1
1120,1120,0.5718931429176198,0.6,0.0,0.0,354.0,947.0,0.0,1,219.0,1
1121,1121,-0.5709998149644657,-0.6,1.0,0.0,389.0,874.0,0.0,0,187.0,1
1122,1122,0.13504381873743954,0.1,0.0,0.0,372.0,966.0,0.0,1,372.0,1
1123,1123,0.4926907506752133,0.5,1.0,1.0,257.0,512.0,1.0,1,461.0,1
1124,1124,-0.19749191044847703,-0.2,1.0,0.0,382.0,972.0,0.0,0,386.0,1
1125,1125,-0.038025677972922334,-0.0,1.0,0.0,374.0,648.0,0.0,0,2518.0,1
1126,1126,-0.49336847852600435,-0.5,1.0,0.0,455.0,920.0,0.0,0,295.0,1
1127,1127,0.5160197439986912,0.5,0.0,0.0,491.0,596.0,0.0,1,323.0,1
1128,1128,0.046537357889126274,0.0,0.0,0.0,386.0,583.0,0.0,1,801.0,1
1129,1129,-0.653999814536309,-0.7,1.0,0.0,374.0,506.0,0.0,0,390.0,1
1130,1130,-0.8773490759504392,-0.9,1.0,0.0,463.0,970.0,0.0,0,167.0,1
1131,1131,-0.49244486266843296,-0.5,1.0,0.0,353.0,626.0,0.0,0,471.0,1
1132,1132,0.4947627894705672,0.5,0.0,0.0,344.0,945.0,0.0,1,181.0,1
1133,1133,0.706480449857504,0.7,1.0,1.0,264.0,935.0,1.0,1,91.0,1
1134,1134,0.839279313999388,0.8,1.0,1.0,491.0,735.0,1.0,1,224.0,1
1135,1135,0.017216278406650964,0.0,1.0,1.0,407.0,851.0,0.0,0,212.0,0
1136,1136,-0.5077320966491701,-0.5,1.0,0.0,377.0,612.0,0.0,0,431.0,1
1137,1137,-0.05389922902576849,-0.1,1.0,0.0,377.0,770.0,0.0,0,853.0,1
1138,1138,-0.2761683438727728,-0.3,1.0,0.0,331.0,933.0,0.0,0,376.0,1
1139,1139,-0.15066817188052084,-0.2,0.0,1.0,408.0,615.0,1.0,0,1497.0,1
1140,1140,0.6154155446365942,0.6,0.0,0.0,365.0,537.0,0.0,1,678.0,1
1141,1141,0.6796475619949337,0.7,0.0,0.0,277.0,736.0,0.0,1,227.0,1
1142,1142,0.008527173357297801,0.0,1.0,1.0,329.0,645.0,1.0,1,616.0,1
1143,1143,-0.6179722399131495,-0.6,0.0,1.0,354.0,577.0,1.0,0,289.0,1
1144,1144,-0.305874683124962,-0.3,1.0,0.0,301.0,780.0,0.0,0,469.0,1
1145,1145,0.002300540704313181,0.0,0.0,0.0,409.0,983.0,0.0,1,988.0,1
1146,1146,0.7998648190632546,0.8,1.0,1.0,417.0,803.0,1.0,1,120.0,1
1147,1147,-0.8126207547656616,-0.8,0.0,1.0,387.0,741.0,1.0,0,232.0,1
1148,1148,0.4102106392645236,0.4,1.0,1.0,375.0,832.0,1.0,1,623.0,1
1149,1149,-0.23506964937034835,-0.2,0.0,1.0,469.0,720.0,1.0,0,741.0,1
1150,1150,-0.05036947490672017,-0.1,0.0,1.0,322.0,676.0,1.0,0,1882.0,1
1151,1151,0.7628685131955063,0.8,1.0,1.0,417.0,883.0,1.0,1,100.0,1
1152,1152,-0.07917778144134435,-0.1,0.0,1.0,393.0,717.0,1.0,0,370.0,1
1153,1153,0.5712567144745905,0.6,1.0,1.0,377.0,997.0,1.0,1,286.0,1
1154,1154,0.4523378764282534,0.5,0.0,0.0,315.0,830.0,0.0,1,285.0,1
1155,1155,0.11643831258239679,0.1,1.0,1.0,491.0,614.0,1.0,1,725.0,1
1156,1156,0.16054165362681883,0.2,1.0,1.0,455.0,647.0,1.0,1,528.0,1
1157,1157,0.20260772568647523,0.2,1.0,1.0,339.0,785.0,1.0,1,346.0,1
1158,1158,0.2750003042888728,0.3,1.0,1.0,475.0,670.0,1.0,1,505.0,1
1159,1159,0.41995882712589083,0.4,1.0,1.0,267.0,973.0,1.0,1,440.0,1
1160,1160,0.060786837824368445,0.1,0.0,0.0,341.0,943.0,0.0,1,1036.0,1
1161,1161,0.08984235040962052,0.1,1.0,1.0,321.0,597.0,1.0,1,422.0,1
1162,1162,0.43591686853209344,0.4,0.0,0.0,482.0,872.0,0.0,1,156.0,1
1163,1163,-0.850006690628826,-0.9,1.0,0.0,396.0,684.0,0.0,0,320.0,1
1164,1164,-0.06371023053120406,-0.1,0.0,1.0,428.0,770.0,1.0,0,1342.0,1
1165,1165,-0.6010693899184005,-0.6,1.0,0.0,476.0,719.0,0.0,0,185.0,1
1166,1166,0.8172401720613832,0.8,0.0,0.0,475.0,712.0,0.0,1,163.0,1
1167,1167,-0.27857245254285523,-0.3,1.0,0.0,380.0,523.0,0.0,0,417.0,1
1168,1168,0.4867229281202464,0.5,1.0,1.0,310.0,694.0,1.0,1,316.0,1
1169,1169,0.2478014598338042,0.2,1.0,1.0,389.0,822.0,1.0,1,319.0,1
1170,1170,0.11493041582053942,0.1,1.0,1.0,282.0,640.0,1.0,1,858.0,1
1171,1171,0.38704964028248423,0.4,1.0,1.0,455.0,715.0,1.0,1,340.0,1
1172,1172,0.7478682347037756,0.7,0.0,0.0,372.0,939.0,0.0,1,199.0,1
1173,1173,-0.5929793508363688,-0.6,1.0,0.0,276.0,784.0,0.0,0,210.0,1
1174,1174,-0.5127127698775571,-0.5,0.0,1.0,370.0,838.0,1.0,0,332.0,1
1175,1175,0.007490373407452067,0.0,1.0,1.0,255.0,663.0,0.0,0,792.0,0
1176,1176,0.8396129579152211,0.8,0.0,0.0,357.0,800.0,0.0,1,163.0,1
1177,1177,-0.22375192220783313,-0.2,0.0,1.0,399.0,510.0,1.0,0,461.0,1
1178,1178,0.20645530943978152,0.2,1.0,1.0,403.0,704.0,1.0,1,613.0,1
1179,1179,-0.6263584459238272,-0.6,0.0,1.0,470.0,960.0,1.0,0,120.0,1
1180,1180,-0.8511534701364275,-0.9,0.0,1.0,422.0,644.0,1.0,0,154.0,1
1181,1181,0.5954541188094581,0.6,0.0,0.0,273.0,736.0,0.0,1,461.0,1
1182,1182,0.895266419821858,0.9,1.0,1.0,311.0,761.0,1.0,1,138.0,1
1183,1183,0.2663554032387182,0.3,0.0,0.0,443.0,849.0,0.0,1,458.0,1
1184,1184,0.5568662579297662,0.6,1.0,1.0,267.0,578.0,1.0,1,345.0,1
1185,1185,0.7462229610470935,0.7,1.0,1.0,477.0,716.0,1.0,1,367.0,1
1186,1186,0.08976318851394494,0.1,1.0,1.0,375.0,676.0,1.0,1,789.0,1
1187,1187,0.5353399472510728,0.5,1.0,1.0,325.0,927.0,1.0,1,258.0,1
1188,1188,0.5166557366559587,0.5,1.0,1.0,316.0,984.0,1.0,1,20.0,1
1189,1189,0.2009453020605022,0.2,1.0,1.0,325.0,738.0,1.0,1,547.0,1
1190,1190,0.5288406001454712,0.5,0.0,0.0,315.0,796.0,0.0,1,209.0,1
1191,1191,-0.5612775285043468,-0.6,1.0,0.0,433.0,723.0,0.0,0,394.0,1
1192,1192,0.5217860239185522,0.5,0.0,0.0,440.0,519.0,0.0,1,771.0,1
1193,1193,0.5558624384561438,0.6,0.0,0.0,438.0,822.0,0.0,1,660.0,1
1194,1194,-0.5011005036685499,-0.5,0.0,1.0,498.0,807.0,1.0,0,365.0,1
1195,1195,-0.2567752948522949,-0.3,0.0,1.0,378.0,622.0,1.0,0,380.0,1
1196,1196,-0.8391911643269537,-0.8,0.0,1.0,422.0,658.0,1.0,0,290.0,1
1197,1197,0.7487969680989904,0.7,1.0,1.0,387.0,891.0,1.0,1,212.0,1
1198,1198,0.3080161390779953,0.3,0.0,0.0,479.0,517.0,0.0,1,644.0,1
1199,1199,0.049361258588261236,0.0,1.0,1.0,454.0,552.0,1.0,1,864.0,1
1200,1200,-0.2760663383833054,-0.3,0.0,1.0,440.0,895.0,1.0,0,1025.0,1
1201,1201,0.4871571677948173,0.5,1.0,1.0,402.0,765.0,1.0,1,283.0,1
1202,1202,-0.526532005179314,-0.5,1.0,0.0,350.0,730.0,0.0,0,280.0,1
1203,1203,0.7687672393097605,0.8,0.0,0.0,492.0,811.0,0.0,1,197.0,1
1204,1204,-0.5303029268303965,-0.5,1.0,0.0,256.0,939.0,0.0,0,135.0,1
1205,1205,0.3542042520947305,0.4,0.0,0.0,280.0,792.0,0.0,1,378.0,1
1206,1206,0.6795966085277355,0.7,1.0,1.0,437.0,760.0,1.0,1,373.0,1
1207,1207,0.3869134775215596,0.4,1.0,1.0,441.0,867.0,1.0,1,192.0,1
1208,1208,-0.3696376237903445,-0.4,1.0,0.0,429.0,647.0,0.0,0,514.0,1
1209,1209,-0.7051029875097813,-0.7,0.0,1.0,341.0,688.0,1.0,0,201.0,1
1210,1210,-0.3100961315137034,-0.3,1.0,0.0,453.0,822.0,0.0,0,155.0,1
1211,1211,0.6516177526956145,0.7,0.0,0.0,333.0,613.0,0.0,1,364.0,1
1212,1212,0.22447862135833152,0.2,0.0,0.0,460.0,840.0,0.0,1,270.0,1
1213,1213,-0.4521299746365874,-0.5,0.0,1.0,268.0,603.0,1.0,0,199.0,1
1214,1214,0.06262316332821594,0.1,1.0,1.0,281.0,536.0,1.0,1,513.0,1
1215,1215,0.807127395299534,0.8,0.0,0.0,382.0,775.0,0.0,1,343.0,1
1216,1216,0.09889341844767985,0.1,0.0,0.0,256.0,763.0,0.0,1,731.0,1
1217,1217,-0.49884422529617756,-0.5,0.0,1.0,265.0,948.0,1.0,0,107.0,1
1218,1218,-0.06401395061553383,-0.1,1.0,0.0,356.0,560.0,0.0,0,514.0,1
1219,1219,-0.2503972533212183,-0.3,0.0,1.0,267.0,630.0,1.0,0,423.0,1
1220,1220,-0.553760686170121,-0.6,1.0,0.0,395.0,525.0,0.0,0,430.0,1
1221,1221,-0.6109111825933564,-0.6,0.0,1.0,464.0,601.0,1.0,0,165.0,1
1222,1222,0.13014323204191036,0.1,0.0,0.0,455.0,751.0,0.0,1,1414.0,1
1223,1223,0.5693467934259199,0.6,0.0,0.0,255.0,543.0,0.0,1,382.0,1
1224,1224,0.5074286449186655,0.5,0.0,0.0,498.0,864.0,0.0,1,238.0,1
1225,1225,0.3154958188154232,0.3,0.0,0.0,378.0,647.0,0.0,1,295.0,1
1226,1226,0.7393536776182174,0.7,0.0,0.0,292.0,849.0,0.0,1,479.0,1
1227,1227,0.876432248250438,0.9,0.0,0.0,261.0,782.0,0.0,1,147.0,1
1228,1228,0.052323687923951034,0.1,1.0,1.0,310.0,740.0,0.0,0,1080.0,0
1229,1229,-0.7237233575480713,-0.7,1.0,0.0,463.0,690.0,0.0,0,267.0,1
1230,1230,-0.38910852654562267,-0.4,1.0,0.0,457.0,765.0,0.0,0,388.0,1
1231,1231,0.4038079152679449,0.4,1.0,1.0,325.0,708.0,1.0,1,257.0,1
1232,1232,0.3777711996814469,0.4,0.0,0.0,383.0,624.0,0.0,1,353.0,1
1233,1233,-0.8060591887268377,-0.8,1.0,0.0,303.0,750.0,0.0,0,357.0,1
1234,1234,0.41186092785009054,0.4,0.0,0.0,358.0,906.0,0.0,1,526.0,1
1235,1235,-0.42658368248539646,-0.4,1.0,0.0,321.0,767.0,0.0,0,452.0,1
1236,1236,-0.1166711319369017,-0.1,1.0,0.0,427.0,690.0,0.0,0,613.0,1
1237,1237,-0.23413996694859096,-0.2,1.0,0.0,354.0,623.0,0.0,0,653.0,1
1238,1238,0.04848682519554581,0.0,0.0,0.0,407.0,628.0,0.0,1,1295.0,1
1239,1239,0.17275803338174234,0.2,0.0,0.0,394.0,639.0,0.0,1,747.0,1
1240,1240,-0.04959293727755287,-0.0,1.0,0.0,494.0,991.0,0.0,0,-5.0,1
1241,1241,-0.7140456036889912,-0.7,1.0,0.0,348.0,672.0,0.0,0,320.0,1
1242,1242,0.26474306278504944,0.3,1.0,1.0,434.0,892.0,1.0,1,214.0,1
1243,1243,-0.5863112598105056,-0.6,1.0,0.0,382.0,896.0,0.0,0,72.0,1
1244,1244,-0.7083193040759022,-0.7,1.0,0.0,290.0,643.0,0.0,0,147.0,1
1245,1245,-0.8223178647656654,-0.8,1.0,0.0,302.0,558.0,0.0,0,420.0,1
1246,1246,-0.6158538557636328,-0.6,1.0,0.0,291.0,625.0,0.0,0,164.0,1
1247,1247,-0.4897604397267597,-0.5,0.0,1.0,487.0,845.0,1.0,0,228.0,1
1248,1248,-0.7983473197701335,-0.8,1.0,0.0,398.0,986.0,0.0,0,96.0,1
1249,1249,0.19459605088617338,0.2,1.0,1.0,491.0,838.0,1.0,1,301.0,1
1250,1250,-0.08846746488663004,-0.1,1.0,0.0,376.0,814.0,0.0,0,2050.0,1
1251,1251,-0.707181803420911,-0.7,0.0,1.0,304.0,879.0,1.0,0,107.0,1
1252,1252,0.03346393448438023,0.0,0.0,0.0,462.0,938.0,0.0,1,970.0,1
1253,1253,0.04006578448231879,0.0,1.0,1.0,464.0,820.0,1.0,1,766.0,1
1254,1254,-0.5491438545234535,-0.5,0.0,1.0,315.0,823.0,1.0,0,192.0,1
1255,1255,-0.7359528786350742,-0.7,0.0,1.0,438.0,685.0,1.0,0,247.0,1
1256,1256,0.45572495336775354,0.5,0.0,0.0,371.0,766.0,0.0,1,223.0,1
1257,1257,0.37968973646791737,0.4,1.0,1.0,440.0,750.0,1.0,1,470.0,1
1258,1258,-0.08116692517414503,-0.1,1.0,0.0,296.0,725.0,0.0,0,409.0,1
1259,1259,-0.09145876024356636,-0.1,1.0,0.0,459.0,820.0,0.0,0,1831.0,1
1260,1260,-0.03471039192762748,-0.0,0.0,1.0,437.0,716.0,1.0,0,2177.0,1
1261,1261,-0.8431473496846233,-0.8,1.0,0.0,421.0,542.0,0.0,0,217.0,1
1262,1262,0.4671791689420023,0.5,0.0,0.0,256.0,619.0,0.0,1,405.0,1
1263,1263,-0.6841793676923635,-0.7,1.0,0.0,428.0,614.0,0.0,0,258.0,1
1264,1264,0.4505225986179381,0.5,1.0,1.0,292.0,811.0,1.0,1,197.0,1
1265,1265,-0.18530191179288835,-0.2,0.0,1.0,391.0,796.0,1.0,0,573.0,1
1266,1266,0.7420983522533905,0.7,1.0,1.0,259.0,758.0,1.0,1,303.0,1
1267,1267,0.015763815041437534,0.0,1.0,1.0,256.0,547.0,1.0,1,3077.0,1
1268,1268,0.031076004911348876,0.0,0.0,0.0,276.0,909.0,0.0,1,1155.0,1
1269,1269,0.7866110241500422,0.8,0.0,0.0,410.0,684.0,0.0,1,276.0,1
1270,1270,0.6921261982238939,0.7,0.0,0.0,421.0,840.0,0.0,1,369.0,1
1271,1271,-0.20953284452501653,-0.2,1.0,0.0,429.0,586.0,0.0,0,655.0,1
1272,1272,0.6815818325122632,0.7,0.0,0.0,273.0,763.0,0.0,1,344.0,1
1273,1273,-0.8271312235457465,-0.8,1.0,0.0,300.0,605.0,0.0,0,535.0,1
1274,1274,-0.11592733955452117,-0.1,1.0,0.0,414.0,739.0,0.0,0,437.0,1
1275,1275,-0.14292567882614882,-0.1,0.0,1.0,438.0,924.0,1.0,0,358.0,1
1276,1276,0.38616999082604775,0.4,0.0,0.0,287.0,807.0,0.0,1,416.0,1
1277,1277,0.5976367678100204,0.6,0.0,0.0,496.0,523.0,0.0,1,541.0,1
1278,1278,-0.5412114866446611,-0.5,0.0,1.0,278.0,624.0,1.0,0,218.0,1
1279,1279,0.3451236874253468,0.3,1.0,1.0,444.0,985.0,1.0,1,31.0,1
1280,1280,-0.0514785147517387,-0.1,1.0,0.0,437.0,655.0,0.0,0,1278.0,1
1281,1281,0.18326516174877872,0.2,0.0,0.0,331.0,716.0,0.0,1,473.0,1
1282,1282,-0.8908237206904568,-0.9,0.0,1.0,405.0,928.0,1.0,0,-33.0,1
1283,1283,0.6255647882415868,0.6,1.0,1.0,414.0,538.0,1.0,1,328.0,1
1284,1284,-0.27311558871147545,-0.3,0.0,1.0,366.0,792.0,1.0,0,372.0,1
1285,1285,-0.24423914556915183,-0.2,1.0,0.0,393.0,588.0,0.0,0,519.0,1
1286,1286,0.5042744394163613,0.5,1.0,1.0,379.0,965.0,1.0,1,176.0,1
1287,1287,-0.16798012000887663,-0.2,0.0,1.0,420.0,639.0,1.0,0,681.0,1
1288,1288,-0.061668443184398125,-0.1,0.0,1.0,314.0,899.0,1.0,0,1837.0,1
1289,1289,-0.8483568696039173,-0.8,1.0,0.0,414.0,719.0,0.0,0,217.0,1
1290,1290,-0.6570077770243988,-0.7,0.0,1.0,415.0,810.0,1.0,0,205.0,1
1291,1291,-0.6597130558791156,-0.7,0.0,1.0,421.0,990.0,1.0,0,219.0,1
1292,1292,-0.7559495473839707,-0.8,0.0,1.0,262.0,568.0,1.0,0,710.0,1
1293,1293,-0.4695831520912568,-0.5,0.0,1.0,495.0,713.0,1.0,0,282.0,1
1294,1294,-0.04151090681080116,-0.0,1.0,0.0,340.0,710.0,0.0,0,890.0,1
1295,1295,0.2302625619474713,0.2,1.0,1.0,480.0,642.0,1.0,1,278.0,1
1296,1296,-0.2089297341309595,-0.2,1.0,0.0,267.0,652.0,0.0,0,211.0,1
1297,1297,0.8968014535469327,0.9,0.0,0.0,419.0,925.0,0.0,1,786.0,1
1298,1298,0.7302061593117452,0.7,1.0,1.0,462.0,639.0,1.0,1,179.0,1
1299,1299,0.00881911468919272,0.0,1.0,1.0,263.0,961.0,0.0,0,6.0,0
1300,1300,-0.6744905258888783,-0.7,0.0,1.0,485.0,900.0,1.0,0,135.0,1
1301,1301,-0.20733327375789035,-0.2,1.0,0.0,355.0,633.0,0.0,0,392.0,1
1302,1302,0.22779466816386906,0.2,0.0,0.0,389.0,608.0,0.0,1,863.0,1
1303,1303,-0.41411778686759465,-0.4,1.0,0.0,399.0,651.0,0.0,0,240.0,1
1304,1304,-0.6785709047297231,-0.7,0.0,1.0,455.0,810.0,1.0,0,155.0,1
1305,1305,-0.5843517312337392,-0.6,1.0,0.0,480.0,682.0,0.0,0,428.0,1
1306,1306,-0.6051784973281598,-0.6,1.0,0.0,353.0,559.0,0.0,0,748.0,1
1307,1307,-0.2148609659347963,-0.2,1.0,0.0,326.0,762.0,0.0,0,542.0,1
1308,1308,-0.7984132025483041,-0.8,0.0,1.0,337.0,590.0,1.0,0,103.0,1
1309,1309,-0.11016017988772375,-0.1,0.0,1.0,309.0,595.0,1.0,0,676.0,1
1310,1310,0.26500592880926555,0.3,0.0,0.0,260.0,673.0,0.0,1,797.0,1
1311,1311,0.12323338627996006,0.1,1.0,1.0,455.0,727.0,1.0,1,568.0,1
1312,1312,-0.3045075325367842,-0.3,0.0,1.0,384.0,506.0,1.0,0,460.0,1
1313,1313,-0.7137757024918008,-0.7,0.0,1.0,345.0,526.0,1.0,0,409.0,1
1314,1314,0.18021754524613443,0.2,0.0,0.0,462.0,871.0,0.0,1,377.0,1
1315,1315,-0.8402406392154054,-0.8,1.0,0.0,396.0,828.0,0.0,0,96.0,1
1316,1316,0.49990884688305093,0.5,0.0,0.0,290.0,806.0,0.0,1,444.0,1
1317,1317,0.7480027094978353,0.7,0.0,0.0,301.0,638.0,0.0,1,151.0,1
1318,1318,-0.33237876039706715,-0.3,0.0,1.0,392.0,837.0,1.0,0,181.0,1
1319,1319,-0.566833152476843,-0.6,1.0,0.0,260.0,593.0,0.0,0,447.0,1
1320,1320,0.6651923267864653,0.7,0.0,0.0,483.0,804.0,0.0,1,153.0,1
1321,1321,-0.3168330042788242,-0.3,0.0,1.0,293.0,509.0,1.0,0,498.0,1
1322,1322,-0.4436724390514897,-0.4,0.0,1.0,274.0,610.0,1.0,0,406.0,1
1323,1323,0.8357104933401703,0.8,1.0,1.0,317.0,885.0,1.0,1,228.0,1
1324,1324,0.6421332320513907,0.6,1.0,1.0,485.0,835.0,1.0,1,140.0,1
1325,1325,0.7860284922395347,0.8,1.0,1.0,388.0,659.0,1.0,1,253.0,1
1326,1326,-0.3463580914245098,-0.3,0.0,1.0,421.0,903.0,1.0,0,236.0,1
1327,1327,0.11408552915675851,0.1,1.0,1.0,452.0,632.0,1.0,1,726.0,1
1328,1328,0.20750692022013817,0.2,0.0,0.0,270.0,749.0,0.0,1,841.0,1
1329,1329,0.1452546643594418,0.1,1.0,1.0,483.0,777.0,1.0,1,320.0,1
1330,1330,-0.5568835967739623,-0.6,1.0,0.0,286.0,807.0,0.0,0,227.0,1
1331,1331,-0.3019459884473742,-0.3,0.0,1.0,446.0,570.0,1.0,0,424.0,1
1332,1332,0.29013948498001774,0.3,1.0,1.0,482.0,898.0,1.0,1,300.0,1
1333,1333,-0.584948649370759,-0.6,0.0,1.0,419.0,785.0,1.0,0,156.0,1
1334,1334,-0.6607974558149756,-0.7,0.0,1.0,319.0,658.0,1.0,0,303.0,1
1335,1335,-0.059413731023726934,-0.1,1.0,0.0,474.0,891.0,1.0,1,1115.0,0
1336,1336,-0.12846459345866768,-0.1,0.0,1.0,252.0,893.0,1.0,0,125.0,1
1337,1337,0.018229424966352825,0.0,0.0,0.0,386.0,667.0,0.0,1,1857.0,1
1338,1338,0.436246227426084,0.4,1.0,1.0,476.0,986.0,1.0,1,108.0,1
1339,1339,0.5361866270290779,0.5,1.0,1.0,396.0,694.0,1.0,1,450.0,1
1340,1340,0.06094057699869393,0.1,1.0,1.0,434.0,836.0,1.0,1,3730.0,1
1341,1341,0.06333480764228194,0.1,0.0,0.0,450.0,967.0,0.0,1,2713.0,1
1342,1342,-0.7010684221972653,-0.7,0.0,1.0,423.0,556.0,1.0,0,291.0,1
1343,1343,-0.6571837466153194,-0.7,1.0,0.0,253.0,757.0,0.0,0,280.0,1
1344,1344,-0.05575696450987455,-0.1,0.0,1.0,317.0,898.0,1.0,0,1345.0,1
1345,1345,0.26811638536440785,0.3,0.0,0.0,261.0,783.0,0.0,1,-24.0,1
1346,1346,-0.3523907602316235,-0.4,0.0,1.0,354.0,517.0,1.0,0,379.0,1
1347,1347,0.6272597240948022,0.6,1.0,1.0,325.0,768.0,1.0,1,197.0,1
1348,1348,-0.6947602559088757,-0.7,0.0,1.0,276.0,894.0,1.0,0,360.0,1
1349,1349,0.012159667784742645,0.0,1.0,1.0,446.0,522.0,0.0,0,2942.0,0
1350,1350,0.8960068232920425,0.9,0.0,0.0,422.0,528.0,0.0,1,530.0,1
1351,1351,-0.7569655830158601,-0.8,1.0,0.0,273.0,639.0,0.0,0,198.0,1
1352,1352,0.399615201437327,0.4,0.0,0.0,364.0,742.0,0.0,1,394.0,1
1353,1353,0.37786335428015605,0.4,0.0,0.0,353.0,945.0,0.0,1,312.0,1
1354,1354,-0.36587642022731415,-0.4,0.0,1.0,320.0,746.0,1.0,0,464.0,1
1355,1355,-0.24528718529454208,-0.2,1.0,0.0,411.0,826.0,0.0,0,143.0,1
1356,1356,-0.3580058806272858,-0.4,0.0,1.0,298.0,597.0,1.0,0,545.0,1
1357,1357,-0.6194897692778023,-0.6,1.0,0.0,328.0,579.0,0.0,0,283.0,1
1358,1358,-0.17455193440414574,-0.2,0.0,1.0,274.0,813.0,1.0,0,343.0,1
1359,1359,0.23547716089339843,0.2,1.0,1.0,499.0,608.0,1.0,1,353.0,1
1360,1360,-0.8021013051751553,-0.8,1.0,0.0,380.0,673.0,0.0,0,207.0,1
1361,1361,-0.034195897089318805,-0.0,1.0,0.0,476.0,921.0,0.0,0,423.0,1
1362,1362,0.3874492822882779,0.4,0.0,0.0,421.0,882.0,0.0,1,187.0,1
1363,1363,0.4284814866413754,0.4,0.0,0.0,453.0,632.0,0.0,1,395.0,1
1364,1364,0.741701468111614,0.7,0.0,0.0,421.0,633.0,0.0,1,366.0,1
1365,1365,-0.27334976530236543,-0.3,1.0,0.0,459.0,694.0,0.0,0,247.0,1
1366,1366,-0.785441814902058,-0.8,1.0,0.0,333.0,695.0,0.0,0,162.0,1
1367,1367,0.16795552468934483,0.2,0.0,0.0,315.0,989.0,0.0,1,616.0,1
1368,1368,-0.46165349185823396,-0.5,0.0,1.0,294.0,581.0,1.0,0,445.0,1
1369,1369,0.24450535157797548,0.2,0.0,0.0,294.0,825.0,0.0,1,331.0,1
1370,1370,0.6849267435635361,0.7,1.0,1.0,334.0,657.0,1.0,1,279.0,1
1371,1371,-0.14210225114472508,-0.1,1.0,0.0,485.0,777.0,0.0,0,388.0,1
1372,1372,-0.38724249504983566,-0.4,0.0,1.0,492.0,875.0,1.0,0,233.0,1
1373,1373,0.6237557749483275,0.6,1.0,1.0,270.0,851.0,1.0,1,159.0,1
1374,1374,0.8625442756657754,0.9,0.0,0.0,402.0,717.0,0.0,1,251.0,1
1375,1375,0.42566959856303177,0.4,1.0,1.0,470.0,612.0,1.0,1,348.0,1
1376,1376,0.15350829238433195,0.2,1.0,1.0,266.0,607.0,1.0,1,767.0,1
1377,1377,0.5388484478432588,0.5,1.0,1.0,372.0,657.0,1.0,1,401.0,1
1378,1378,-0.01781721351978527,-0.0,0.0,1.0,281.0,731.0,1.0,0,568.0,1
1379,1379,-0.3722201632447846,-0.4,0.0,1.0,421.0,754.0,1.0,0,295.0,1
1380,1380,-0.08776420562421972,-0.1,0.0,1.0,308.0,571.0,1.0,0,431.0,1
1381,1381,-0.7560044339585098,-0.8,1.0,0.0,405.0,539.0,0.0,0,326.0,1
1382,1382,0.2646882279590196,0.3,1.0,1.0,283.0,731.0,1.0,1,226.0,1
1383,1383,-0.25611654898554526,-0.3,0.0,1.0,398.0,595.0,1.0,0,527.0,1
1384,1384,-0.32567291887758243,-0.3,0.0,1.0,258.0,599.0,1.0,0,393.0,1
1385,1385,-0.3601617975536847,-0.4,0.0,1.0,254.0,867.0,1.0,0,159.0,1
1386,1386,-0.6842736374945118,-0.7,0.0,1.0,364.0,507.0,1.0,0,329.0,1
1387,1387,0.6259908167057086,0.6,0.0,0.0,352.0,889.0,0.0,1,209.0,1
1388,1388,0.20930823950095523,0.2,1.0,1.0,339.0,924.0,1.0,1,487.0,1
1389,1389,-0.5917246312512923,-0.6,1.0,0.0,479.0,536.0,0.0,0,675.0,1
1390,1390,-0.7694281387161295,-0.8,0.0,1.0,370.0,828.0,1.0,0,222.0,1
1391,1391,0.1735625502833017,0.2,0.0,0.0,316.0,833.0,0.0,1,291.0,1
1392,1392,0.023645626468490666,0.0,1.0,1.0,344.0,803.0,0.0,0,803.0,0
1393,1393,-0.34257180829542344,-0.3,0.0,1.0,455.0,793.0,1.0,0,322.0,1
1394,1394,0.18522098197322745,0.2,0.0,0.0,409.0,762.0,0.0,1,449.0,1
1395,1395,-0.14329516698405265,-0.1,1.0,0.0,261.0,770.0,0.0,0,349.0,1
1396,1396,0.20900993287671754,0.2,0.0,0.0,422.0,521.0,0.0,1,1147.0,1
1397,1397,0.7858135200529152,0.8,1.0,1.0,422.0,919.0,1.0,1,129.0,1
1398,1398,0.7411930027678234,0.7,1.0,1.0,486.0,752.0,1.0,1,192.0,1
1399,1399,0.5452162881455495,0.5,1.0,1.0,330.0,863.0,1.0,1,147.0,1
1400,1400,0.2179103175419671,0.2,1.0,1.0,470.0,936.0,1.0,1,304.0,1
1401,1401,-0.8045556854946391,-0.8,1.0,0.0,475.0,613.0,0.0,0,272.0,1
1402,1402,-0.41866878680126074,-0.4,0.0,1.0,441.0,816.0,1.0,0,223.0,1
1403,1403,-0.061437981658498675,-0.1,1.0,0.0,266.0,863.0,0.0,0,851.0,1
1404,1404,0.39899227052373953,0.4,1.0,1.0,452.0,956.0,1.0,1,242.0,1
1405,1405,-0.4209254480785962,-0.4,0.0,1.0,380.0,785.0,1.0,0,125.0,1
1406,1406,-0.37965736388210747,-0.4,0.0,1.0,340.0,782.0,1.0,0,408.0,1
1407,1407,0.7977909672469491,0.8,0.0,0.0,321.0,934.0,0.0,1,325.0,1
1408,1408,-0.6747225531004326,-0.7,1.0,0.0,404.0,524.0,0.0,0,192.0,1
1409,1409,0.8141542679810875,0.8,1.0,1.0,470.0,604.0,1.0,1,226.0,1
1410,1410,0.7236364980860245,0.7,1.0,1.0,273.0,590.0,1.0,1,237.0,1
1411,1411,0.7763273630579527,0.8,1.0,1.0,275.0,823.0,1.0,1,192.0,1
1412,1412,0.4823696794393145,0.5,1.0,1.0,451.0,581.0,1.0,1,468.0,1
1413,1413,0.09628626868452173,0.1,0.0,0.0,294.0,679.0,0.0,1,1467.0,1
1414,1414,0.7359734699416821,0.7,0.0,0.0,420.0,813.0,0.0,1,197.0,1
1415,1415,0.8573467828522515,0.9,1.0,1.0,383.0,846.0,1.0,1,161.0,1
1416,1416,0.652349477889517,0.7,1.0,1.0,480.0,825.0,1.0,1,235.0,1
1417,1417,0.6050885244855729,0.6,0.0,0.0,327.0,558.0,0.0,1,675.0,1
1418,1418,-0.8977011440847591,-0.9,1.0,0.0,411.0,736.0,0.0,0,243.0,1
1419,1419,0.25415524813480783,0.3,0.0,0.0,487.0,705.0,0.0,1,668.0,1
1420,1420,0.7326669002504619,0.7,0.0,0.0,372.0,991.0,0.0,1,107.0,1
1421,1421,-0.533278506429712,-0.5,1.0,0.0,430.0,861.0,0.0,0,249.0,1
1422,1422,-0.20346438223808838,-0.2,1.0,0.0,287.0,557.0,0.0,0,656.0,1
1423,1423,0.5043531397690192,0.5,1.0,1.0,350.0,662.0,1.0,1,328.0,1
1424,1424,0.5843573302181723,0.6,1.0,1.0,307.0,979.0,1.0,1,284.0,1
1425,1425,-0.028618119903949246,-0.0,0.0,1.0,268.0,905.0,1.0,0,267.0,1
1426,1426,0.19776093540276063,0.2,0.0,0.0,320.0,853.0,0.0,1,337.0,1
1427,1427,-0.7350991499336516,-0.7,0.0,1.0,393.0,988.0,1.0,0,179.0,1
1428,1428,0.41224823317184833,0.4,1.0,1.0,395.0,546.0,1.0,1,229.0,1
1429,1429,0.4332314845607447,0.4,0.0,0.0,330.0,823.0,0.0,1,197.0,1
1430,1430,0.21143707250306065,0.2,0.0,0.0,427.0,547.0,0.0,1,946.0,1
1431,1431,-0.7433595504591692,-0.7,0.0,1.0,467.0,935.0,1.0,0,258.0,1
1432,1432,-0.21449834817042424,-0.2,1.0,0.0,312.0,716.0,0.0,0,452.0,1
1433,1433,-0.415399094077645,-0.4,0.0,1.0,281.0,870.0,1.0,0,139.0,1
1434,1434,0.4147480995711271,0.4,1.0,1.0,337.0,767.0,1.0,1,476.0,1
1435,1435,0.7871235376445177,0.8,1.0,1.0,308.0,690.0,1.0,1,172.0,1
1436,1436,-0.3117845440802105,-0.3,1.0,0.0,268.0,683.0,0.0,0,169.0,1
1437,1437,-0.04246761093749962,-0.0,1.0,0.0,408.0,544.0,0.0,0,2038.0,1
1438,1438,0.43468823686739466,0.4,1.0,1.0,350.0,920.0,1.0,1,120.0,1
1439,1439,-0.44979023827737086,-0.4,0.0,1.0,473.0,595.0,1.0,0,552.0,1
1440,1440,0.7287509291723441,0.7,0.0,0.0,462.0,712.0,0.0,1,446.0,1
1441,1441,-0.2763762112769004,-0.3,1.0,0.0,353.0,752.0,0.0,0,125.0,1
1442,1442,-0.17730185261590414,-0.2,1.0,0.0,255.0,842.0,0.0,0,683.0,1
1443,1443,-0.5457114212190576,-0.5,1.0,0.0,449.0,706.0,0.0,0,275.0,1
1444,1444,-0.29400164092035463,-0.3,1.0,0.0,486.0,939.0,0.0,0,555.0,1
1445,1445,0.10702139191649851,0.1,0.0,0.0,330.0,761.0,0.0,1,1109.0,1
1446,1446,0.2298188060559393,0.2,1.0,1.0,438.0,885.0,1.0,1,457.0,1
1447,1447,-0.7378385041609905,-0.7,0.0,1.0,304.0,797.0,1.0,0,219.0,1
1448,1448,0.15347479174161316,0.2,1.0,1.0,299.0,645.0,1.0,1,406.0,1
1449,1449,-0.6259033380412564,-0.6,0.0,1.0,428.0,515.0,1.0,0,537.0,1
1450,1450,-0.6469316266100552,-0.6,0.0,1.0,491.0,952.0,1.0,0,197.0,1
1451,1451,0.3173263127506015,0.3,1.0,1.0,314.0,505.0,1.0,1,471.0,1
1452,1452,0.4520668815295009,0.5,1.0,1.0,442.0,614.0,1.0,1,424.0,1
1453,1453,0.8676379079853397,0.9,0.0,0.0,367.0,947.0,0.0,1,366.0,1
1454,1454,0.39634412066173896,0.4,1.0,1.0,456.0,912.0,1.0,1,142.0,1
1455,1455,-0.5073895802059234,-0.5,1.0,0.0,430.0,965.0,0.0,0,375.0,1
1456,1456,0.7898987584013438,0.8,1.0,1.0,445.0,973.0,1.0,1,32.0,1
1457,1457,0.6486331428712316,0.6,1.0,1.0,460.0,713.0,1.0,1,257.0,1
1458,1458,0.39797125085351415,0.4,0.0,0.0,355.0,672.0,0.0,1,523.0,1
1459,1459,-0.4485043106643067,-0.4,1.0,0.0,483.0,718.0,0.0,0,259.0,1
1460,1460,-0.08350295029554178,-0.1,1.0,0.0,261.0,965.0,0.0,0,1194.0,1
1461,1461,0.10369498584070158,0.1,0.0,0.0,498.0,741.0,0.0,1,791.0,1
1462,1462,0.539097286960056,0.5,1.0,1.0,385.0,888.0,1.0,1,77.0,1
1463,1463,-0.589275055178922,-0.6,0.0,1.0,465.0,868.0,1.0,0,337.0,1
1464,1464,0.10769887392443789,0.1,0.0,0.0,253.0,892.0,0.0,1,315.0,1
1465,1465,0.3804542140260666,0.4,0.0,0.0,288.0,519.0,0.0,1,623.0,1
1466,1466,0.7864939148330735,0.8,0.0,0.0,394.0,571.0,0.0,1,655.0,1
1467,1467,0.2888373127339382,0.3,1.0,1.0,283.0,902.0,1.0,1,225.0,1
1468,1468,-0.5891694977841728,-0.6,0.0,1.0,427.0,825.0,1.0,0,208.0,1
1469,1469,-0.5651868425284712,-0.6,0.0,1.0,425.0,690.0,1.0,0,175.0,1
1470,1470,0.8611593132518819,0.9,1.0,1.0,445.0,501.0,1.0,1,474.0,1
1471,1471,0.4667094641972426,0.5,0.0,0.0,267.0,741.0,0.0,1,512.0,1
1472,1472,-0.6568222028448122,-0.7,1.0,0.0,330.0,811.0,0.0,0,209.0,1
1473,1473,-0.0642778043122828,-0.1,0.0,1.0,404.0,636.0,1.0,0,1500.0,1
1474,1474,0.20227067122867137,0.2,0.0,0.0,392.0,874.0,0.0,1,494.0,1
1475,1475,0.22113587205826513,0.2,0.0,0.0,482.0,604.0,0.0,1,564.0,1
1476,1476,0.8323925927130845,0.8,0.0,0.0,366.0,859.0,0.0,1,145.0,1
1477,1477,0.41607930032075047,0.4,0.0,0.0,269.0,921.0,0.0,1,330.0,1
1478,1478,-0.10834004051009605,-0.1,0.0,1.0,376.0,576.0,1.0,0,578.0,1
1479,1479,-0.35721143290471347,-0.4,1.0,0.0,339.0,994.0,0.0,0,197.0,1
1480,1480,-0.1018586456542897,-0.1,1.0,0.0,357.0,984.0,0.0,0,759.0,1
1481,1481,0.09616096674521457,0.1,1.0,1.0,376.0,855.0,1.0,1,429.0,1
1482,1482,0.017147865817371044,0.0,1.0,1.0,277.0,812.0,1.0,1,831.0,1
1483,1483,0.03188495968450156,0.0,0.0,0.0,430.0,649.0,0.0,1,1851.0,1
1484,1484,-0.6173655886104193,-0.6,0.0,1.0,372.0,539.0,1.0,0,349.0,1
1485,1485,0.7406547334505361,0.7,1.0,1.0,280.0,949.0,1.0,1,51.0,1
1486,1486,0.3358174019160679,0.3,0.0,0.0,498.0,550.0,0.0,1,562.0,1
1487,1487,0.7235241449696562,0.7,1.0,1.0,257.0,671.0,1.0,1,362.0,1
1488,1488,-0.06463687710063515,-0.1,0.0,1.0,380.0,828.0,1.0,0,422.0,1
1489,1489,0.6467022427669326,0.6,0.0,0.0,447.0,872.0,0.0,1,411.0,1
1490,1490,-0.8895968433763349,-0.9,0.0,1.0,331.0,764.0,1.0,0,125.0,1
1491,1491,0.3267390787204453,0.3,1.0,1.0,385.0,512.0,1.0,1,603.0,1
1492,1492,0.4184320423814515,0.4,1.0,1.0,275.0,599.0,1.0,1,376.0,1
