,trial,coherence,coherence_bin,green_side,correct_side,target_onset,checker_onset,decision,green_decision,decision_time,correct_decision
0,0,-0.7027911923098289,-0.7,0.0,1.0,311.0,504.0,1.0,0,555.0,1
1,1,0.8537095204917308,0.9,1.0,1.0,328.0,699.0,1.0,1,363.0,1
2,2,0.005121037247471927,0.0,0.0,0.0,308.0,983.0,0.0,1,-11.0,1
3,3,-0.4007082789524158,-0.4,1.0,0.0,342.0,843.0,1.0,1,-15.0,0
4,4,-0.5632771953758012,-0.6,1.0,0.0,254.0,593.0,0.0,0,153.0,1
5,5,-0.10519996959569666,-0.1,0.0,1.0,492.0,572.0,1.0,0,456.0,1
6,6,-0.6781044109731333,-0.7,0.0,1.0,384.0,905.0,1.0,0,311.0,1
7,7,0.830515093488757,0.8,1.0,1.0,299.0,564.0,1.0,1,287.0,1
8,8,0.23201298716206897,0.2,0.0,0.0,312.0,747.0,0.0,1,291.0,1
9,9,-0.5256985424329941,-0.5,0.0,1.0,339.0,958.0,1.0,0,263.0,1
10,10,0.43346811131955965,0.4,0.0,0.0,268.0,814.0,0.0,1,278.0,1
11,11,0.3569014175518356,0.4,0.0,0.0,428.0,903.0,0.0,1,419.0,1
12,12,0.619467109507536,0.6,1.0,1.0,254.0,914.0,1.0,1,62.0,1
13,13,0.41944689564277227,0.4,1.0,1.0,421.0,560.0,1.0,1,609.0,1
14,14,0.5380222720384199,0.5,0.0,0.0,267.0,782.0,0.0,1,341.0,1
15,15,0.7413540631719592,0.7,1.0,1.0,393.0,857.0,0.0,0,-80.0,0
16,16,-0.2664416795976333,-0.3,0.0,1.0,277.0,595.0,1.0,0,828.0,1
17,17,0.6974123388157113,0.7,1.0,1.0,388.0,997.0,0.0,0,-245.0,0
18,18,-0.671730045860746,-0.7,1.0,0.0,282.0,631.0,0.0,0,417.0,1
19,19,-0.23641555485277632,-0.2,0.0,1.0,425.0,999.0,1.0,0,646.0,1
20,20,-0.8377470021422628,-0.8,0.0,1.0,332.0,918.0,1.0,0,360.0,1
21,21,-0.3813270012253953,-0.4,0.0,1.0,391.0,920.0,1.0,0,319.0,1
22,22,-0.4635562029681086,-0.5,0.0,1.0,428.0,923.0,1.0,0,349.0,1
23,23,-0.09999502133624083,-0.1,1.0,0.0,352.0,536.0,0.0,0,792.0,1
24,24,0.2886007782801069,0.3,0.0,0.0,409.0,808.0,0.0,1,493.0,1
25,25,-0.6712649590541684,-0.7,0.0,1.0,339.0,541.0,1.0,0,540.0,1
26,26,-0.7841046727705001,-0.8,0.0,1.0,324.0,516.0,1.0,0,460.0,1
27,27,0.05142697214232517,0.1,1.0,1.0,479.0,922.0,1.0,1,209.0,1
28,28,0.10924172208055005,0.1,1.0,1.0,321.0,754.0,1.0,1,845.0,1
29,29,0.5939480800742173,0.6,0.0,0.0,311.0,627.0,0.0,1,302.0,1
30,30,-0.5182037769574297,-0.5,0.0,1.0,300.0,965.0,1.0,0,415.0,1
31,31,-0.23833903860994432,-0.2,0.0,1.0,476.0,877.0,1.0,0,497.0,1
32,32,0.44470798705950265,0.4,1.0,1.0,314.0,996.0,0.0,0,-40.0,0
33,33,0.5189613351985668,0.5,0.0,0.0,395.0,915.0,0.0,1,20.0,1
34,34,0.4180398968130842,0.4,0.0,0.0,482.0,690.0,0.0,1,758.0,1
35,35,0.8972974664336028,0.9,1.0,1.0,477.0,998.0,1.0,1,335.0,1
36,36,-0.5994059110811267,-0.6,1.0,0.0,341.0,651.0,0.0,0,478.0,1
37,37,0.5149855869836021,0.5,1.0,1.0,261.0,651.0,1.0,1,268.0,1
38,38,0.7656687433285859,0.8,1.0,1.0,400.0,636.0,1.0,1,644.0,1
39,39,0.7856710602752629,0.8,0.0,0.0,426.0,795.0,0.0,1,359.0,1
40,40,0.1254308635381579,0.1,0.0,0.0,410.0,775.0,1.0,0,85.0,0
41,41,0.5012126378743306,0.5,0.0,0.0,273.0,854.0,0.0,1,293.0,1
42,42,0.889015218531917,0.9,1.0,1.0,288.0,516.0,1.0,1,496.0,1
43,43,0.3781488793567126,0.4,0.0,0.0,390.0,657.0,0.0,1,423.0,1
44,44,0.15598255610973644,0.2,1.0,1.0,288.0,924.0,1.0,1,558.0,1
45,45,0.8275179525875539,0.8,1.0,1.0,274.0,988.0,1.0,1,288.0,1
46,46,0.1640399512529923,0.2,0.0,0.0,430.0,871.0,0.0,1,539.0,1
47,47,-0.246698635875362,-0.2,0.0,1.0,357.0,766.0,1.0,0,387.0,1
48,48,-0.3331878552579658,-0.3,0.0,1.0,330.0,977.0,1.0,0,543.0,1
49,49,0.5936160990314633,0.6,0.0,0.0,384.0,757.0,0.0,1,339.0,1
50,50,0.5045393215931976,0.5,0.0,0.0,397.0,510.0,0.0,1,573.0,1
51,51,-0.655062385773541,-0.7,1.0,0.0,350.0,894.0,0.0,0,156.0,1
52,52,-0.8368772537622812,-0.8,1.0,0.0,416.0,567.0,0.0,0,457.0,1
53,53,0.6495723825961467,0.6,0.0,0.0,495.0,663.0,0.0,1,382.0,1
54,54,-0.6642629870020529,-0.7,1.0,0.0,395.0,753.0,0.0,0,212.0,1
55,55,0.8519024858718492,0.9,1.0,1.0,281.0,991.0,1.0,1,138.0,1
56,56,0.2191701548037649,0.2,0.0,0.0,387.0,674.0,0.0,1,879.0,1
57,57,-0.4207496433551286,-0.4,0.0,1.0,461.0,638.0,1.0,0,251.0,1
58,58,-0.5749631386381249,-0.6,1.0,0.0,383.0,788.0,0.0,0,209.0,1
59,59,0.5125686162782598,0.5,0.0,0.0,313.0,926.0,0.0,1,591.0,1
60,60,0.3214168513025043,0.3,1.0,1.0,284.0,972.0,1.0,1,204.0,1
61,61,0.772399358629653,0.8,1.0,1.0,439.0,946.0,1.0,1,-45.0,1
62,62,-0.809272860570255,-0.8,1.0,0.0,325.0,761.0,0.0,0,244.0,1
63,63,-0.060125984967626445,-0.1,1.0,0.0,358.0,962.0,1.0,1,180.0,0
64,64,0.2648746241053469,0.3,1.0,1.0,422.0,962.0,1.0,1,96.0,1
65,65,-0.8895582643181098,-0.9,1.0,0.0,308.0,907.0,0.0,0,45.0,1
66,66,-0.7792626920886342,-0.8,1.0,0.0,372.0,780.0,0.0,0,148.0,1
67,67,-0.31247976301257985,-0.3,1.0,0.0,298.0,558.0,0.0,0,404.0,1
68,68,0.43350606840031813,0.4,0.0,0.0,496.0,835.0,0.0,1,269.0,1
69,69,0.3042146706983705,0.3,1.0,1.0,377.0,892.0,1.0,1,121.0,1
70,70,-0.06454254095255496,-0.1,0.0,1.0,399.0,705.0,1.0,0,726.0,1
71,71,-0.7542194363885102,-0.8,0.0,1.0,450.0,822.0,1.0,0,208.0,1
72,72,0.5384362560637578,0.5,0.0,0.0,267.0,688.0,0.0,1,435.0,1
73,73,-0.4900801234477226,-0.5,0.0,1.0,489.0,669.0,1.0,0,342.0,1
74,74,-0.12046228450507646,-0.1,1.0,0.0,282.0,851.0,0.0,0,197.0,1
75,75,0.8353835867704159,0.8,1.0,1.0,396.0,668.0,1.0,1,226.0,1
76,76,-0.2710240280119597,-0.3,0.0,1.0,470.0,761.0,1.0,0,189.0,1
77,77,-0.4855619978268599,-0.5,0.0,1.0,284.0,550.0,1.0,0,456.0,1
78,78,-0.4754420462567716,-0.5,0.0,1.0,448.0,590.0,1.0,0,312.0,1
79,79,-0.6741233537187532,-0.7,0.0,1.0,416.0,636.0,1.0,0,238.0,1
80,80,-0.4379055604636558,-0.4,1.0,0.0,253.0,967.0,0.0,0,230.0,1
81,81,-0.2837802865411696,-0.3,1.0,0.0,374.0,591.0,0.0,0,795.0,1
82,82,-0.6080306351941762,-0.6,0.0,1.0,443.0,969.0,1.0,0,198.0,1
83,83,-0.39532179163452585,-0.4,1.0,0.0,358.0,619.0,0.0,0,413.0,1
84,84,0.12516479699312255,0.1,1.0,1.0,409.0,978.0,1.0,1,203.0,1
85,85,0.0852842359987559,0.1,0.0,0.0,472.0,726.0,1.0,0,82.0,0
86,86,-0.7229873229273343,-0.7,0.0,1.0,448.0,616.0,1.0,0,626.0,1
87,87,-0.5692852803991294,-0.6,1.0,0.0,460.0,978.0,0.0,0,362.0,1
88,88,0.09999788110247476,0.1,1.0,1.0,499.0,749.0,1.0,1,382.0,1
89,89,-0.3384506835020695,-0.3,0.0,1.0,374.0,545.0,1.0,0,1041.0,1
90,90,0.2264189406361533,0.2,0.0,0.0,457.0,937.0,1.0,0,-84.0,0
91,91,0.2941293001670998,0.3,1.0,1.0,348.0,951.0,1.0,1,371.0,1
92,92,0.5999566282876784,0.6,0.0,0.0,307.0,783.0,0.0,1,240.0,1
93,93,0.05586786891913231,0.1,0.0,0.0,462.0,893.0,0.0,1,1235.0,1
94,94,-0.17397706407926017,-0.2,0.0,1.0,468.0,984.0,1.0,0,398.0,1
95,95,0.8965612496533456,0.9,1.0,1.0,395.0,823.0,1.0,1,102.0,1
96,96,0.5086227673862308,0.5,0.0,0.0,372.0,903.0,0.0,1,305.0,1
97,97,0.0817897512679121,0.1,0.0,0.0,305.0,722.0,1.0,0,273.0,0
98,98,-0.2839780428970262,-0.3,1.0,0.0,430.0,627.0,0.0,0,313.0,1
99,99,0.6752544592558235,0.7,0.0,0.0,259.0,940.0,0.0,1,261.0,1
100,100,-0.6979450606193753,-0.7,1.0,0.0,324.0,502.0,0.0,0,534.0,1
101,101,-0.5160310664046523,-0.5,0.0,1.0,444.0,612.0,1.0,0,464.0,1
102,102,-0.08356075360509063,-0.1,0.0,1.0,435.0,751.0,0.0,1,274.0,0
103,103,-0.5167095458035211,-0.5,1.0,0.0,435.0,800.0,0.0,0,235.0,1
104,104,0.5823776909285058,0.6,0.0,0.0,391.0,609.0,0.0,1,360.0,1
105,105,-0.7377484700756398,-0.7,0.0,1.0,431.0,814.0,1.0,0,215.0,1
106,106,0.1141385969442309,0.1,1.0,1.0,305.0,694.0,1.0,1,1401.0,1
107,107,0.1155424939898021,0.1,1.0,1.0,384.0,549.0,1.0,1,377.0,1
108,108,0.8329421737316937,0.8,0.0,0.0,374.0,754.0,0.0,1,212.0,1
109,109,-0.541201192745502,-0.5,0.0,1.0,331.0,785.0,1.0,0,354.0,1
110,110,-0.3150249759207703,-0.3,1.0,0.0,499.0,949.0,1.0,1,352.0,0
111,111,0.34573618775607684,0.3,0.0,0.0,292.0,637.0,0.0,1,321.0,1
112,112,0.19457940846399968,0.2,0.0,0.0,389.0,937.0,0.0,1,444.0,1
113,113,0.761811987456284,0.8,1.0,1.0,443.0,560.0,1.0,1,267.0,1
114,114,-0.6790853662108338,-0.7,1.0,0.0,327.0,942.0,0.0,0,361.0,1
115,115,0.8768487212516355,0.9,1.0,1.0,451.0,993.0,1.0,1,-4.0,1
116,116,-0.5216220789697525,-0.5,0.0,1.0,425.0,757.0,1.0,0,278.0,1
117,117,-0.15714315099025478,-0.2,0.0,1.0,443.0,797.0,1.0,0,430.0,1
118,118,-0.3937253481155394,-0.4,1.0,0.0,286.0,619.0,0.0,0,975.0,1
119,119,0.8071399824389162,0.8,0.0,0.0,370.0,569.0,0.0,1,471.0,1
120,120,-0.3261463625375669,-0.3,0.0,1.0,399.0,664.0,1.0,0,377.0,1
121,121,0.199076044083082,0.2,1.0,1.0,313.0,940.0,1.0,1,737.0,1
122,122,-0.08049107968326075,-0.1,0.0,1.0,321.0,922.0,1.0,0,277.0,1
123,123,-0.027500027416454964,-0.0,1.0,0.0,352.0,837.0,0.0,0,21.0,1
124,124,-0.869338610510591,-0.9,0.0,1.0,492.0,932.0,1.0,0,186.0,1
125,125,-0.10007204614091836,-0.1,1.0,0.0,328.0,929.0,0.0,0,623.0,1
126,126,-0.6563455387362513,-0.7,0.0,1.0,373.0,526.0,1.0,0,381.0,1
127,127,-0.7292943875089287,-0.7,0.0,1.0,401.0,617.0,1.0,0,432.0,1
128,128,0.8595977257057142,0.9,0.0,0.0,293.0,707.0,0.0,1,320.0,1
129,129,-0.8349123431341225,-0.8,1.0,0.0,296.0,778.0,0.0,0,246.0,1
130,130,-0.22824952283337052,-0.2,0.0,1.0,400.0,775.0,1.0,0,395.0,1
131,131,-0.09544860612140171,-0.1,0.0,1.0,489.0,561.0,1.0,0,710.0,1
132,132,0.7303248697701018,0.7,0.0,0.0,288.0,910.0,0.0,1,232.0,1
133,133,0.07959937295839581,0.1,0.0,0.0,438.0,921.0,1.0,0,371.0,0
134,134,0.470589472113241,0.5,0.0,0.0,301.0,880.0,0.0,1,389.0,1
135,135,0.7016097191212595,0.7,1.0,1.0,491.0,754.0,1.0,1,395.0,1
136,136,-0.6341286369527476,-0.6,0.0,1.0,489.0,831.0,1.0,0,130.0,1
137,137,0.8439423593878778,0.8,0.0,0.0,446.0,690.0,0.0,1,374.0,1
138,138,0.7343482640179567,0.7,0.0,0.0,288.0,764.0,0.0,1,128.0,1
139,139,-0.48456588853578697,-0.5,0.0,1.0,328.0,895.0,1.0,0,357.0,1
140,140,-0.17041968764204685,-0.2,0.0,1.0,283.0,821.0,1.0,0,376.0,1
141,141,0.5090411625839139,0.5,0.0,0.0,304.0,678.0,0.0,1,518.0,1
142,142,0.057006299469946176,0.1,0.0,0.0,418.0,955.0,0.0,1,707.0,1
143,143,0.3198571998676535,0.3,1.0,1.0,394.0,550.0,1.0,1,406.0,1
144,144,0.04864934920432007,0.0,0.0,0.0,382.0,692.0,1.0,0,726.0,0
145,145,0.3583233505333173,0.4,1.0,1.0,447.0,764.0,1.0,1,379.0,1
146,146,0.10691031995377764,0.1,1.0,1.0,307.0,726.0,1.0,1,577.0,1
147,147,-0.2795588562788891,-0.3,0.0,1.0,462.0,899.0,1.0,0,549.0,1
148,148,-0.25168841800535546,-0.3,0.0,1.0,399.0,987.0,0.0,1,44.0,0
149,149,0.5240938176539253,0.5,0.0,0.0,384.0,657.0,0.0,1,369.0,1
150,150,0.405423818455218,0.4,1.0,1.0,317.0,736.0,1.0,1,277.0,1
151,151,-0.29168198182051364,-0.3,0.0,1.0,315.0,582.0,1.0,0,503.0,1
152,152,-0.6779221208161502,-0.7,0.0,1.0,480.0,899.0,1.0,0,231.0,1
153,153,-0.48265685315371637,-0.5,0.0,1.0,372.0,778.0,0.0,1,-60.0,0
154,154,0.6167548991932993,0.6,0.0,0.0,271.0,511.0,0.0,1,708.0,1
155,155,0.8693055191645295,0.9,1.0,1.0,326.0,573.0,1.0,1,551.0,1
156,156,-0.4443733349451569,-0.4,1.0,0.0,335.0,870.0,0.0,0,265.0,1
157,157,0.36885097407629097,0.4,1.0,1.0,441.0,817.0,1.0,1,302.0,1
158,158,-0.3900098048682523,-0.4,0.0,1.0,495.0,552.0,1.0,0,483.0,1
159,159,0.09533004390061472,0.1,0.0,0.0,356.0,765.0,0.0,1,419.0,1
160,160,-0.425998577172811,-0.4,1.0,0.0,402.0,569.0,0.0,0,229.0,1
161,161,0.7775353480780632,0.8,0.0,0.0,481.0,635.0,0.0,1,454.0,1
162,162,0.4785902140480035,0.5,0.0,0.0,293.0,802.0,0.0,1,375.0,1
163,163,0.7318848509153629,0.7,1.0,1.0,372.0,870.0,1.0,1,138.0,1
164,164,-0.24797330597354472,-0.2,1.0,0.0,280.0,939.0,1.0,1,251.0,0
165,165,0.5615498225343613,0.6,0.0,0.0,373.0,907.0,0.0,1,190.0,1
166,166,0.33421898119607796,0.3,0.0,0.0,312.0,841.0,0.0,1,127.0,1
167,167,0.1872371526388198,0.2,1.0,1.0,253.0,628.0,0.0,0,699.0,0
168,168,0.42104731315614974,0.4,0.0,0.0,340.0,998.0,0.0,1,332.0,1
169,169,-0.27644759747787984,-0.3,1.0,0.0,410.0,759.0,0.0,0,-19.0,1
170,170,-0.6666343715337495,-0.7,1.0,0.0,382.0,648.0,0.0,0,380.0,1
171,171,-0.8686604716339662,-0.9,0.0,1.0,473.0,775.0,1.0,0,142.0,1
172,172,0.38899234182795983,0.4,1.0,1.0,291.0,983.0,1.0,1,56.0,1
173,173,0.20013240707377677,0.2,0.0,0.0,491.0,646.0,1.0,0,593.0,0
174,174,-0.07180301867701167,-0.1,0.0,1.0,481.0,770.0,1.0,0,2039.0,1
175,175,-0.1216244929241399,-0.1,1.0,0.0,357.0,978.0,0.0,0,135.0,1
176,176,0.18792390324196206,0.2,1.0,1.0,255.0,613.0,1.0,1,732.0,1
177,177,0.7836139184373064,0.8,0.0,0.0,404.0,734.0,0.0,1,222.0,1
178,178,-0.17265429147303235,-0.2,0.0,1.0,397.0,868.0,1.0,0,1585.0,1
179,179,0.022599320642565313,0.0,0.0,0.0,498.0,651.0,0.0,1,341.0,1
180,180,0.5638531620362534,0.6,0.0,0.0,461.0,713.0,0.0,1,246.0,1
181,181,0.10667709900405187,0.1,0.0,0.0,424.0,984.0,1.0,0,52.0,0
182,182,-0.759540410090709,-0.8,1.0,0.0,485.0,765.0,0.0,0,140.0,1
183,183,0.42574515547739356,0.4,0.0,0.0,495.0,668.0,0.0,1,697.0,1
184,184,0.03622067798607398,0.0,1.0,1.0,398.0,977.0,0.0,0,215.0,0
185,185,-0.2947300660658466,-0.3,1.0,0.0,452.0,896.0,0.0,0,222.0,1
186,186,0.29278969215225314,0.3,1.0,1.0,442.0,619.0,1.0,1,419.0,1
187,187,0.5039290781076217,0.5,0.0,0.0,398.0,541.0,0.0,1,421.0,1
188,188,-0.026810525110728123,-0.0,0.0,1.0,320.0,852.0,0.0,1,888.0,0
189,189,-0.4740126673786338,-0.5,1.0,0.0,421.0,572.0,0.0,0,427.0,1
190,190,-0.24318667470650268,-0.2,0.0,1.0,492.0,590.0,1.0,0,1028.0,1
191,191,-0.030924342571794328,-0.0,0.0,1.0,404.0,982.0,1.0,0,34.0,1
192,192,-0.5865763114051183,-0.6,0.0,1.0,417.0,504.0,1.0,0,529.0,1
193,193,0.8105256713776617,0.8,0.0,0.0,403.0,644.0,0.0,1,503.0,1
194,194,0.570873106164007,0.6,1.0,1.0,319.0,699.0,1.0,1,312.0,1
195,195,0.32101919569137116,0.3,0.0,0.0,441.0,846.0,0.0,1,273.0,1
196,196,-0.27882305374539285,-0.3,1.0,0.0,493.0,680.0,1.0,1,527.0,0
197,197,-0.6842683183446601,-0.7,1.0,0.0,438.0,507.0,0.0,0,355.0,1
198,198,-0.5217250292800917,-0.5,1.0,0.0,365.0,959.0,0.0,0,386.0,1
199,199,0.8421307487979498,0.8,1.0,1.0,313.0,998.0,1.0,1,79.0,1
200,200,0.0009538769471191255,0.0,1.0,1.0,387.0,996.0,1.0,1,217.0,1
201,201,-0.5443532413580645,-0.5,1.0,0.0,334.0,721.0,1.0,1,125.0,0
202,202,0.8256502793001087,0.8,1.0,1.0,410.0,646.0,1.0,1,544.0,1
203,203,0.702171755782855,0.7,1.0,1.0,437.0,866.0,1.0,1,147.0,1
204,204,0.1794442484989872,0.2,0.0,0.0,495.0,778.0,0.0,1,757.0,1
205,205,-0.31787560825966477,-0.3,0.0,1.0,345.0,640.0,1.0,0,355.0,1
206,206,-0.003747122118984314,-0.0,1.0,0.0,466.0,574.0,1.0,1,610.0,0
207,207,0.07437665302419938,0.1,1.0,1.0,274.0,943.0,1.0,1,223.0,1
208,208,0.560327026767275,0.6,0.0,0.0,254.0,883.0,0.0,1,423.0,1
209,209,0.8946329214311283,0.9,1.0,1.0,481.0,845.0,1.0,1,124.0,1
210,210,-0.5598206727821391,-0.6,0.0,1.0,457.0,747.0,1.0,0,256.0,1
211,211,-0.6633921119136994,-0.7,0.0,1.0,368.0,698.0,1.0,0,494.0,1
212,212,-0.34687604116549364,-0.3,0.0,1.0,315.0,663.0,1.0,0,702.0,1
213,213,0.725281737229022,0.7,0.0,0.0,399.0,936.0,0.0,1,155.0,1
214,214,-0.7484062897873123,-0.7,0.0,1.0,360.0,818.0,1.0,0,292.0,1
215,215,0.4899492726169904,0.5,1.0,1.0,252.0,806.0,1.0,1,222.0,1
216,216,-0.45163980428441924,-0.5,0.0,1.0,332.0,748.0,1.0,0,660.0,1
217,217,-0.4329685339255595,-0.4,0.0,1.0,470.0,680.0,1.0,0,730.0,1
218,218,-0.8414542811643456,-0.8,0.0,1.0,255.0,821.0,1.0,0,194.0,1
219,219,-0.8908964087916811,-0.9,0.0,1.0,272.0,940.0,1.0,0,228.0,1
220,220,0.5050933585503324,0.5,0.0,0.0,370.0,658.0,0.0,1,192.0,1
221,221,-0.330625524139903,-0.3,0.0,1.0,342.0,814.0,1.0,0,164.0,1
222,222,0.31363422461766366,0.3,1.0,1.0,395.0,715.0,1.0,1,230.0,1
223,223,-0.3572141829937442,-0.4,0.0,1.0,454.0,741.0,1.0,0,325.0,1
224,224,0.18936495674469123,0.2,0.0,0.0,360.0,864.0,0.0,1,126.0,1
225,225,0.27972559593385704,0.3,1.0,1.0,347.0,644.0,1.0,1,459.0,1
226,226,-0.12379158771256282,-0.1,0.0,1.0,438.0,988.0,1.0,0,124.0,1
227,227,-0.5610829616450952,-0.6,1.0,0.0,420.0,886.0,0.0,0,-16.0,1
228,228,0.11279494980848292,0.1,0.0,0.0,418.0,577.0,1.0,0,1105.0,0
229,229,-0.8487088946765304,-0.8,1.0,0.0,404.0,668.0,0.0,0,428.0,1
230,230,0.6191442848630654,0.6,0.0,0.0,494.0,502.0,0.0,1,624.0,1
231,231,0.7402576269646094,0.7,1.0,1.0,484.0,692.0,1.0,1,324.0,1
232,232,0.18755746692542308,0.2,1.0,1.0,270.0,641.0,1.0,1,719.0,1
233,233,0.7697361152727104,0.8,0.0,0.0,391.0,865.0,0.0,1,324.0,1
234,234,0.5479089466235171,0.5,1.0,1.0,392.0,660.0,1.0,1,408.0,1
235,235,-0.863114010047245,-0.9,1.0,0.0,450.0,815.0,0.0,0,-5.0,1
236,236,0.6140236125077262,0.6,1.0,1.0,475.0,767.0,1.0,1,308.0,1
237,237,0.11455304190725146,0.1,0.0,0.0,452.0,624.0,0.0,1,554.0,1
238,238,-0.06833867028283325,-0.1,1.0,0.0,488.0,517.0,0.0,0,685.0,1
239,239,0.21211888152918335,0.2,1.0,1.0,480.0,791.0,1.0,1,439.0,1
240,240,0.32025989019816936,0.3,1.0,1.0,486.0,788.0,1.0,1,276.0,1
241,241,0.8012549619392227,0.8,1.0,1.0,380.0,637.0,1.0,1,373.0,1
242,242,0.3580186522604264,0.4,0.0,0.0,279.0,991.0,1.0,0,20.0,0
243,243,-0.7362616164734705,-0.7,1.0,0.0,341.0,579.0,0.0,0,280.0,1
244,244,-0.5535837378276693,-0.6,1.0,0.0,272.0,522.0,0.0,0,516.0,1
245,245,0.1087794338793665,0.1,0.0,0.0,451.0,779.0,0.0,1,250.0,1
246,246,-0.2980612210870327,-0.3,1.0,0.0,376.0,968.0,0.0,0,626.0,1
247,247,0.6175594690684784,0.6,0.0,0.0,419.0,880.0,0.0,1,141.0,1
248,248,0.8901912492265113,0.9,0.0,0.0,353.0,665.0,0.0,1,262.0,1
249,249,-0.3192933517097669,-0.3,1.0,0.0,286.0,535.0,0.0,0,799.0,1
250,250,0.6524164998815573,0.7,0.0,0.0,398.0,674.0,0.0,1,258.0,1
251,251,0.5010844862010894,0.5,1.0,1.0,438.0,730.0,1.0,1,202.0,1
252,252,-0.3642799398924622,-0.4,0.0,1.0,291.0,722.0,1.0,0,297.0,1
253,253,0.21324029149712154,0.2,0.0,0.0,459.0,742.0,1.0,0,819.0,0
254,254,0.6665061015547437,0.7,1.0,1.0,285.0,909.0,1.0,1,276.0,1
255,255,-0.7867695663683812,-0.8,0.0,1.0,385.0,583.0,1.0,0,482.0,1
256,256,0.4148840675830071,0.4,0.0,0.0,410.0,759.0,0.0,1,491.0,1
257,257,0.6425164080706732,0.6,1.0,1.0,278.0,684.0,1.0,1,488.0,1
258,258,-0.5336508074733041,-0.5,1.0,0.0,455.0,506.0,0.0,0,319.0,1
259,259,0.2348541130519387,0.2,0.0,0.0,369.0,796.0,0.0,1,425.0,1
260,260,0.05415914671137689,0.1,1.0,1.0,454.0,924.0,1.0,1,92.0,1
261,261,0.26014556206362005,0.3,1.0,1.0,369.0,658.0,1.0,1,613.0,1
262,262,-0.6564893253691673,-0.7,1.0,0.0,312.0,846.0,0.0,0,312.0,1
263,263,0.7760594725218904,0.8,0.0,0.0,283.0,714.0,0.0,1,443.0,1
264,264,0.11143875141313508,0.1,1.0,1.0,337.0,524.0,0.0,0,599.0,0
265,265,0.22970119519779708,0.2,1.0,1.0,445.0,658.0,1.0,1,197.0,1
266,266,0.7177003168038069,0.7,1.0,1.0,354.0,950.0,1.0,1,206.0,1
267,267,-0.1433981585559757,-0.1,1.0,0.0,275.0,697.0,0.0,0,238.0,1
268,268,-0.32192328122460223,-0.3,1.0,0.0,367.0,662.0,0.0,0,171.0,1
269,269,0.13664950678089227,0.1,1.0,1.0,463.0,550.0,0.0,0,1707.0,0
270,270,-0.588847447039075,-0.6,1.0,0.0,349.0,831.0,0.0,0,150.0,1
271,271,0.5493415090213819,0.5,1.0,1.0,391.0,685.0,1.0,1,434.0,1
272,272,0.3478107802285605,0.3,1.0,1.0,451.0,820.0,1.0,1,589.0,1
273,273,-0.6797707867571747,-0.7,1.0,0.0,456.0,724.0,0.0,0,150.0,1
274,274,0.5219709171803747,0.5,1.0,1.0,487.0,566.0,1.0,1,217.0,1
275,275,0.6020795014821766,0.6,1.0,1.0,427.0,682.0,1.0,1,241.0,1
276,276,0.49396984018015455,0.5,1.0,1.0,463.0,581.0,1.0,1,416.0,1
277,277,-0.2164001411890688,-0.2,0.0,1.0,463.0,976.0,1.0,0,531.0,1
278,278,-0.7030913805574801,-0.7,0.0,1.0,449.0,649.0,1.0,0,472.0,1
279,279,-0.027457675185541097,-0.0,0.0,1.0,452.0,748.0,0.0,1,420.0,0
280,280,-0.07517551652629739,-0.1,0.0,1.0,460.0,700.0,1.0,0,670.0,1
281,281,0.5688307220558367,0.6,1.0,1.0,440.0,977.0,1.0,1,133.0,1
282,282,0.5681923263223042,0.6,1.0,1.0,264.0,899.0,1.0,1,707.0,1
283,283,-0.7623756107142412,-0.8,1.0,0.0,297.0,645.0,0.0,0,288.0,1
284,284,-0.17048434127036838,-0.2,0.0,1.0,400.0,554.0,1.0,0,436.0,1
285,285,-0.6897001082477594,-0.7,0.0,1.0,271.0,785.0,1.0,0,324.0,1
286,286,-0.775023216126711,-0.8,1.0,0.0,254.0,847.0,0.0,0,109.0,1
287,287,-0.45852441158092844,-0.5,1.0,0.0,332.0,573.0,0.0,0,525.0,1
288,288,0.8487719006371407,0.8,0.0,0.0,320.0,841.0,0.0,1,59.0,1
289,289,0.1877319349207326,0.2,1.0,1.0,298.0,809.0,1.0,1,843.0,1
290,290,0.8864847659820388,0.9,1.0,1.0,434.0,763.0,1.0,1,173.0,1
291,291,-0.10433654389808089,-0.1,0.0,1.0,314.0,610.0,1.0,0,2526.0,1
292,292,-0.18081542415521867,-0.2,1.0,0.0,404.0,785.0,0.0,0,671.0,1
293,293,0.0439400856206702,0.0,1.0,1.0,293.0,897.0,1.0,1,260.0,1
294,294,-0.0894263811153716,-0.1,0.0,1.0,345.0,557.0,1.0,0,1798.0,1
295,295,0.4190095574488245,0.4,0.0,0.0,492.0,855.0,0.0,1,243.0,1
296,296,0.5771221779421641,0.6,1.0,1.0,315.0,626.0,1.0,1,359.0,1
297,297,0.7290038519179204,0.7,0.0,0.0,411.0,643.0,0.0,1,316.0,1
298,298,0.6095958563583076,0.6,0.0,0.0,260.0,731.0,0.0,1,259.0,1
299,299,0.13436252814756988,0.1,0.0,0.0,452.0,852.0,0.0,1,326.0,1
300,300,-0.10678662669168226,-0.1,1.0,0.0,368.0,775.0,0.0,0,157.0,1
301,301,-0.4046577031321402,-0.4,1.0,0.0,350.0,880.0,0.0,0,200.0,1
302,302,-0.5307033131735239,-0.5,1.0,0.0,311.0,861.0,0.0,0,178.0,1
303,303,0.3203353884272174,0.3,0.0,0.0,472.0,606.0,0.0,1,592.0,1
304,304,0.7616979892221231,0.8,0.0,0.0,286.0,626.0,0.0,1,168.0,1
305,305,0.11498936658997716,0.1,0.0,0.0,361.0,577.0,0.0,1,892.0,1
306,306,0.20187742173232104,0.2,0.0,0.0,357.0,854.0,0.0,1,439.0,1
307,307,-0.35015222884871133,-0.4,1.0,0.0,369.0,776.0,0.0,0,135.0,1
308,308,0.4581526064989082,0.5,1.0,1.0,344.0,893.0,1.0,1,313.0,1
309,309,0.6054514327134194,0.6,0.0,0.0,450.0,754.0,0.0,1,286.0,1
310,310,0.07794094185740952,0.1,1.0,1.0,417.0,659.0,1.0,1,804.0,1
311,311,0.061351717417063245,0.1,0.0,0.0,256.0,554.0,0.0,1,980.0,1
312,312,0.8866688785556168,0.9,0.0,0.0,314.0,881.0,0.0,1,175.0,1
313,313,-0.12831650449213794,-0.1,0.0,1.0,367.0,599.0,0.0,1,924.0,0
314,314,-0.3970216470888831,-0.4,1.0,0.0,367.0,970.0,0.0,0,73.0,1
315,315,0.8092787724804386,0.8,1.0,1.0,363.0,953.0,1.0,1,84.0,1
316,316,0.12239267307637858,0.1,0.0,0.0,457.0,708.0,0.0,1,755.0,1
317,317,-0.16781989146749554,-0.2,0.0,1.0,331.0,808.0,1.0,0,501.0,1
318,318,-0.6237098534432398,-0.6,0.0,1.0,367.0,592.0,1.0,0,441.0,1
319,319,-0.4911477791092865,-0.5,1.0,0.0,412.0,618.0,0.0,0,340.0,1
320,320,0.7663972870526102,0.8,1.0,1.0,274.0,835.0,1.0,1,221.0,1
321,321,-0.47285577177725097,-0.5,0.0,1.0,326.0,937.0,1.0,0,-73.0,1
322,322,-0.08187096566265506,-0.1,1.0,0.0,409.0,504.0,0.0,0,697.0,1
323,323,0.008561787489222206,0.0,0.0,0.0,309.0,773.0,1.0,0,1158.0,0
324,324,0.29491833151330293,0.3,0.0,0.0,343.0,837.0,0.0,1,780.0,1
325,325,0.763486006813907,0.8,1.0,1.0,305.0,867.0,1.0,1,148.0,1
326,326,-0.7341972530810167,-0.7,0.0,1.0,316.0,595.0,1.0,0,559.0,1
327,327,0.7789428562848281,0.8,1.0,1.0,390.0,956.0,1.0,1,164.0,1
328,328,-0.7628916014529779,-0.8,1.0,0.0,337.0,745.0,0.0,0,178.0,1
329,329,0.27867013838636223,0.3,0.0,0.0,402.0,786.0,0.0,1,742.0,1
330,330,0.7027746976373542,0.7,0.0,0.0,260.0,927.0,0.0,1,223.0,1
331,331,0.32118090745480166,0.3,1.0,1.0,406.0,606.0,1.0,1,698.0,1
332,332,0.5740528301257052,0.6,0.0,0.0,397.0,517.0,0.0,1,476.0,1
333,333,0.004288899998990847,0.0,1.0,1.0,426.0,790.0,0.0,0,214.0,0
334,334,0.09501744946441548,0.1,0.0,0.0,382.0,763.0,1.0,0,725.0,0
335,335,0.6572750411731682,0.7,1.0,1.0,490.0,553.0,1.0,1,407.0,1
336,336,-0.4101900134156526,-0.4,1.0,0.0,272.0,912.0,0.0,0,216.0,1
337,337,0.4399155635111952,0.4,0.0,0.0,497.0,888.0,0.0,1,325.0,1
338,338,-0.07137233538532306,-0.1,0.0,1.0,332.0,506.0,1.0,0,872.0,1
339,339,0.33655550724067684,0.3,1.0,1.0,288.0,766.0,0.0,0,236.0,0
340,340,-0.7413367978194306,-0.7,0.0,1.0,342.0,915.0,1.0,0,33.0,1
341,341,-0.4707500074266426,-0.5,1.0,0.0,417.0,958.0,0.0,0,705.0,1
342,342,0.44365137731868887,0.4,1.0,1.0,295.0,932.0,1.0,1,-37.0,1
343,343,-0.19421383316646534,-0.2,0.0,1.0,371.0,885.0,1.0,0,294.0,1
344,344,0.6988036111733514,0.7,0.0,0.0,474.0,915.0,0.0,1,231.0,1
345,345,-0.3403985446357052,-0.3,1.0,0.0,394.0,604.0,0.0,0,212.0,1
346,346,-0.7595693285034277,-0.8,0.0,1.0,465.0,842.0,1.0,0,83.0,1
347,347,-0.1152413087891142,-0.1,1.0,0.0,258.0,916.0,1.0,1,-4.0,0
348,348,-0.33930913919238403,-0.3,0.0,1.0,458.0,761.0,1.0,0,291.0,1
349,349,0.1270404431218174,0.1,1.0,1.0,328.0,645.0,0.0,0,1307.0,0
350,350,-0.17315611439919898,-0.2,1.0,0.0,424.0,867.0,1.0,1,29.0,0
351,351,0.38260313510011035,0.4,0.0,0.0,344.0,972.0,0.0,1,1344.0,1
352,352,-0.33711880779733094,-0.3,0.0,1.0,250.0,984.0,1.0,0,346.0,1
353,353,-0.6560418523594178,-0.7,1.0,0.0,340.0,973.0,0.0,0,247.0,1
354,354,0.06680726269620418,0.1,0.0,0.0,274.0,714.0,1.0,0,452.0,0
355,355,-0.3572806688904835,-0.4,1.0,0.0,408.0,657.0,0.0,0,465.0,1
356,356,0.6361022669764423,0.6,1.0,1.0,307.0,842.0,1.0,1,221.0,1
357,357,-0.029159713957649824,-0.0,0.0,1.0,467.0,970.0,1.0,0,143.0,1
358,358,0.49711265055800113,0.5,0.0,0.0,272.0,923.0,0.0,1,205.0,1
359,359,-0.29959039122649145,-0.3,1.0,0.0,286.0,762.0,0.0,0,432.0,1
360,360,0.7865616521177957,0.8,0.0,0.0,448.0,706.0,0.0,1,296.0,1
361,361,-0.2812006882951441,-0.3,0.0,1.0,385.0,709.0,0.0,1,116.0,0
362,362,-0.39061330350520684,-0.4,0.0,1.0,349.0,648.0,1.0,0,593.0,1
363,363,-0.08842320546878268,-0.1,1.0,0.0,395.0,918.0,0.0,0,-83.0,1
364,364,-0.25434770518814465,-0.3,0.0,1.0,340.0,791.0,1.0,0,569.0,1
365,365,0.5400508854843212,0.5,0.0,0.0,265.0,979.0,0.0,1,46.0,1
366,366,0.03554435709277903,0.0,1.0,1.0,415.0,828.0,0.0,0,207.0,0
367,367,0.7182040427491702,0.7,1.0,1.0,300.0,857.0,1.0,1,463.0,1
368,368,-0.8557467235058934,-0.9,0.0,1.0,323.0,933.0,1.0,0,144.0,1
369,369,0.1982994320176762,0.2,1.0,1.0,391.0,897.0,1.0,1,482.0,1
370,370,-0.4761834455060709,-0.5,0.0,1.0,355.0,723.0,1.0,0,342.0,1
371,371,0.1996294351509481,0.2,1.0,1.0,272.0,792.0,1.0,1,76.0,1
372,372,0.45504489021358274,0.5,1.0,1.0,410.0,707.0,1.0,1,353.0,1
373,373,-0.40777800449176077,-0.4,1.0,0.0,318.0,932.0,0.0,0,260.0,1
374,374,-0.48594769523455983,-0.5,1.0,0.0,267.0,703.0,0.0,0,370.0,1
375,375,0.2184479145953605,0.2,0.0,0.0,465.0,622.0,1.0,0,313.0,0
376,376,-0.014856581248174794,-0.0,1.0,0.0,253.0,979.0,0.0,0,48.0,1
377,377,0.8972043095306673,0.9,1.0,1.0,382.0,500.0,1.0,1,418.0,1
378,378,0.6999554733455767,0.7,0.0,0.0,282.0,579.0,0.0,1,319.0,1
379,379,-0.4801812483503218,-0.5,0.0,1.0,477.0,520.0,1.0,0,703.0,1
380,380,-0.8941045449609774,-0.9,0.0,1.0,286.0,949.0,1.0,0,75.0,1
381,381,-0.0419303086364301,-0.0,0.0,1.0,322.0,789.0,1.0,0,1199.0,1
382,382,-0.11328572722452512,-0.1,1.0,0.0,479.0,699.0,0.0,0,962.0,1
383,383,-0.7015327655523357,-0.7,1.0,0.0,434.0,924.0,0.0,0,82.0,1
384,384,-0.4420437263840991,-0.4,0.0,1.0,307.0,972.0,1.0,0,501.0,1
385,385,0.6026192624315388,0.6,1.0,1.0,367.0,701.0,1.0,1,202.0,1
386,386,-0.4092673068725629,-0.4,0.0,1.0,464.0,764.0,1.0,0,482.0,1
387,387,-0.4449840652180545,-0.4,1.0,0.0,376.0,649.0,0.0,0,255.0,1
388,388,-0.00516590678789508,-0.0,1.0,0.0,337.0,701.0,1.0,1,562.0,0
389,389,0.885809687844101,0.9,1.0,1.0,285.0,676.0,1.0,1,269.0,1
390,390,-0.47370238114248,-0.5,0.0,1.0,276.0,985.0,1.0,0,249.0,1
391,391,0.7602400418998522,0.8,0.0,0.0,309.0,781.0,0.0,1,310.0,1
392,392,0.1957601952426412,0.2,1.0,1.0,493.0,609.0,1.0,1,588.0,1
393,393,-0.1079061228864947,-0.1,1.0,0.0,375.0,884.0,0.0,0,981.0,1
394,394,0.23258674919601263,0.2,1.0,1.0,254.0,754.0,0.0,0,-8.0,0
395,395,0.6717952234821886,0.7,0.0,0.0,486.0,932.0,0.0,1,152.0,1
396,396,-0.7243544472253833,-0.7,1.0,0.0,334.0,545.0,0.0,0,421.0,1
397,397,-0.1999144303272572,-0.2,0.0,1.0,406.0,579.0,1.0,0,1055.0,1
398,398,-0.7487429506649464,-0.7,1.0,0.0,260.0,839.0,0.0,0,141.0,1
399,399,0.8089296851617099,0.8,0.0,0.0,472.0,914.0,0.0,1,134.0,1
400,400,0.6888264444072311,0.7,1.0,1.0,473.0,854.0,0.0,0,43.0,0
401,401,0.780118894439234,0.8,1.0,1.0,480.0,542.0,1.0,1,348.0,1
402,402,0.2427994512625159,0.2,0.0,0.0,479.0,961.0,0.0,1,600.0,1
403,403,0.20169388343054717,0.2,0.0,0.0,435.0,561.0,0.0,1,294.0,1
404,404,0.23962850943421443,0.2,1.0,1.0,433.0,534.0,1.0,1,713.0,1
405,405,-0.3509709128308315,-0.4,0.0,1.0,356.0,687.0,1.0,0,487.0,1
406,406,0.1448662674939395,0.1,1.0,1.0,491.0,534.0,1.0,1,435.0,1
407,407,0.7304001898233367,0.7,1.0,1.0,322.0,846.0,1.0,1,252.0,1
408,408,-0.05847787387237924,-0.1,0.0,1.0,425.0,968.0,1.0,0,397.0,1
409,409,0.411913662108469,0.4,0.0,0.0,385.0,806.0,0.0,1,239.0,1
410,410,0.035912125681381135,0.0,0.0,0.0,458.0,565.0,1.0,0,1297.0,0
411,411,0.26850377448175566,0.3,0.0,0.0,305.0,552.0,0.0,1,403.0,1
412,412,-0.030852658223653462,-0.0,0.0,1.0,319.0,920.0,0.0,1,541.0,0
413,413,-0.7138625563608452,-0.7,1.0,0.0,373.0,893.0,0.0,0,324.0,1
414,414,0.021539111255040044,0.0,1.0,1.0,488.0,647.0,1.0,1,935.0,1
415,415,-0.22106534558920865,-0.2,1.0,0.0,259.0,552.0,0.0,0,169.0,1
416,416,-0.17093456101593207,-0.2,1.0,0.0,381.0,992.0,0.0,0,97.0,1
417,417,0.8667088625650284,0.9,0.0,0.0,469.0,565.0,0.0,1,216.0,1
418,418,0.33506528594113594,0.3,1.0,1.0,308.0,960.0,1.0,1,262.0,1
419,419,0.878389303320099,0.9,0.0,0.0,471.0,816.0,0.0,1,503.0,1
420,420,0.13308507008136206,0.1,1.0,1.0,413.0,846.0,1.0,1,951.0,1
421,421,-0.3006914110621426,-0.3,0.0,1.0,403.0,976.0,1.0,0,231.0,1
422,422,-0.7237684422953076,-0.7,0.0,1.0,488.0,635.0,1.0,0,387.0,1
423,423,-0.6979242047912768,-0.7,1.0,0.0,429.0,749.0,0.0,0,162.0,1
424,424,0.8618455712345946,0.9,0.0,0.0,418.0,914.0,0.0,1,158.0,1
425,425,-0.7364467643959686,-0.7,1.0,0.0,252.0,953.0,1.0,1,-65.0,0
426,426,0.5407327972262109,0.5,1.0,1.0,269.0,578.0,1.0,1,303.0,1
427,427,-0.8222928953209913,-0.8,1.0,0.0,364.0,769.0,0.0,0,67.0,1
428,428,0.5700474875757698,0.6,0.0,0.0,362.0,613.0,0.0,1,485.0,1
429,429,0.5148906837126396,0.5,1.0,1.0,476.0,683.0,1.0,1,331.0,1
430,430,-0.8776347502987172,-0.9,0.0,1.0,488.0,639.0,1.0,0,223.0,1
431,431,-0.6987237917154407,-0.7,1.0,0.0,266.0,729.0,0.0,0,295.0,1
432,432,-0.5751416870576391,-0.6,1.0,0.0,387.0,884.0,0.0,0,259.0,1
433,433,-0.7895781653901296,-0.8,1.0,0.0,253.0,528.0,0.0,0,359.0,1
434,434,-0.08289852221404637,-0.1,1.0,0.0,398.0,519.0,1.0,1,1103.0,0
435,435,-0.5148323584326139,-0.5,1.0,0.0,276.0,633.0,0.0,0,281.0,1
436,436,-0.7151566934854512,-0.7,1.0,0.0,306.0,975.0,0.0,0,279.0,1
437,437,-0.29990018262261353,-0.3,0.0,1.0,258.0,913.0,1.0,0,949.0,1
438,438,-0.21819871027702364,-0.2,0.0,1.0,268.0,751.0,1.0,0,881.0,1
439,439,-0.8833795185443367,-0.9,1.0,0.0,422.0,927.0,0.0,0,111.0,1
440,440,-0.043854798910360815,-0.0,1.0,0.0,334.0,792.0,0.0,0,854.0,1
441,441,0.8847108623785346,0.9,0.0,0.0,286.0,886.0,0.0,1,138.0,1
442,442,0.16120293153294207,0.2,0.0,0.0,426.0,889.0,0.0,1,525.0,1
443,443,-0.8146496631893736,-0.8,1.0,0.0,272.0,973.0,0.0,0,5.0,1
444,444,0.6392320677172253,0.6,0.0,0.0,453.0,732.0,0.0,1,255.0,1
445,445,-0.615901471551018,-0.6,0.0,1.0,382.0,607.0,1.0,0,371.0,1
446,446,0.44100932292487227,0.4,0.0,0.0,405.0,667.0,0.0,1,438.0,1
447,447,0.8331821596180421,0.8,1.0,1.0,435.0,676.0,1.0,1,279.0,1
448,448,-0.05283934413907243,-0.1,0.0,1.0,375.0,795.0,1.0,0,600.0,1
449,449,-0.5305818427917821,-0.5,0.0,1.0,477.0,776.0,1.0,0,177.0,1
450,450,-0.3608081445603709,-0.4,1.0,0.0,281.0,785.0,0.0,0,414.0,1
451,451,0.29614876715396277,0.3,1.0,1.0,298.0,841.0,1.0,1,341.0,1
452,452,0.7172708530731932,0.7,0.0,0.0,263.0,527.0,0.0,1,530.0,1
453,453,0.04440598849278499,0.0,1.0,1.0,372.0,838.0,0.0,0,1090.0,0
454,454,0.33669843475772965,0.3,0.0,0.0,401.0,881.0,0.0,1,218.0,1
455,455,-0.5100883205227615,-0.5,1.0,0.0,439.0,966.0,0.0,0,175.0,1
456,456,0.6649600658157567,0.7,1.0,1.0,394.0,705.0,1.0,1,241.0,1
457,457,-0.7478546735319425,-0.7,1.0,0.0,470.0,936.0,0.0,0,-126.0,1
458,458,0.012859920522912627,0.0,0.0,0.0,322.0,881.0,1.0,0,777.0,0
459,459,-0.20051483557075522,-0.2,1.0,0.0,388.0,978.0,0.0,0,394.0,1
460,460,-0.6174531644355332,-0.6,0.0,1.0,349.0,667.0,1.0,0,654.0,1
461,461,-0.24418712341267923,-0.2,1.0,0.0,481.0,778.0,1.0,1,471.0,0
462,462,0.6894906085755593,0.7,0.0,0.0,314.0,803.0,0.0,1,283.0,1
463,463,0.1306162229649398,0.1,0.0,0.0,261.0,727.0,0.0,1,442.0,1
464,464,-0.49932036288558657,-0.5,1.0,0.0,411.0,633.0,0.0,0,646.0,1
465,465,-0.6328330601786472,-0.6,0.0,1.0,471.0,729.0,1.0,0,150.0,1
466,466,-0.7066310731662495,-0.7,1.0,0.0,351.0,932.0,0.0,0,477.0,1
467,467,0.6591405958377962,0.7,0.0,0.0,468.0,596.0,0.0,1,356.0,1
468,468,0.7548837416034407,0.8,0.0,0.0,367.0,763.0,0.0,1,320.0,1
469,469,-0.3360462358909966,-0.3,0.0,1.0,270.0,569.0,1.0,0,751.0,1
470,470,0.6842269529008634,0.7,1.0,1.0,445.0,687.0,1.0,1,498.0,1
471,471,0.4582997103717624,0.5,0.0,0.0,413.0,515.0,0.0,1,572.0,1
472,472,0.7989738379089987,0.8,1.0,1.0,411.0,946.0,1.0,1,153.0,1
473,473,-0.3912731660130171,-0.4,0.0,1.0,494.0,814.0,1.0,0,492.0,1
474,474,-0.2630938923756547,-0.3,1.0,0.0,328.0,868.0,0.0,0,944.0,1
475,475,0.8374869014190346,0.8,1.0,1.0,379.0,909.0,1.0,1,132.0,1
476,476,0.857604987923486,0.9,1.0,1.0,468.0,791.0,1.0,1,601.0,1
477,477,0.6799281623936927,0.7,1.0,1.0,478.0,747.0,1.0,1,45.0,1
478,478,0.8845630210756635,0.9,0.0,0.0,416.0,658.0,0.0,1,296.0,1
479,479,0.6295678235294065,0.6,0.0,0.0,486.0,636.0,0.0,1,418.0,1
480,480,-0.5082585002210098,-0.5,0.0,1.0,300.0,885.0,1.0,0,135.0,1
481,481,0.25776985818068765,0.3,0.0,0.0,270.0,963.0,1.0,0,-23.0,0
482,482,0.06749325254673766,0.1,1.0,1.0,281.0,751.0,1.0,1,1058.0,1
483,483,0.15264118948725158,0.2,0.0,0.0,337.0,948.0,0.0,1,25.0,1
484,484,-0.6118644945960907,-0.6,0.0,1.0,413.0,809.0,1.0,0,318.0,1
485,485,0.06242177610781885,0.1,1.0,1.0,413.0,603.0,1.0,1,2084.0,1
486,486,-0.6321700510354853,-0.6,0.0,1.0,292.0,932.0,1.0,0,146.0,1
487,487,0.33168187254266746,0.3,0.0,0.0,429.0,718.0,0.0,1,693.0,1
488,488,-0.5567366093502017,-0.6,0.0,1.0,250.0,931.0,1.0,0,559.0,1
489,489,-0.3165102346363745,-0.3,0.0,1.0,368.0,750.0,1.0,0,462.0,1
490,490,-0.44706399851093287,-0.4,0.0,1.0,359.0,505.0,1.0,0,396.0,1
491,491,-0.33970987869188074,-0.3,1.0,0.0,255.0,691.0,0.0,0,724.0,1
492,492,0.5226233256851086,0.5,1.0,1.0,294.0,909.0,1.0,1,-133.0,1
493,493,0.4355234451994684,0.4,0.0,0.0,401.0,657.0,0.0,1,592.0,1
494,494,-0.15436576552041914,-0.2,1.0,0.0,270.0,508.0,0.0,0,1472.0,1
495,495,-0.6731459158917525,-0.7,1.0,0.0,414.0,897.0,0.0,0,159.0,1
496,496,0.44873210574590494,0.4,1.0,1.0,399.0,870.0,1.0,1,81.0,1
497,497,0.5937762073850957,0.6,0.0,0.0,480.0,637.0,0.0,1,503.0,1
498,498,-0.8752985960665554,-0.9,0.0,1.0,328.0,551.0,1.0,0,561.0,1
499,499,0.7889555569869827,0.8,0.0,0.0,286.0,748.0,0.0,1,206.0,1
500,500,0.8367180752425231,0.8,0.0,0.0,309.0,886.0,0.0,1,85.0,1
501,501,0.6928184555022753,0.7,1.0,1.0,427.0,507.0,1.0,1,356.0,1
502,502,-0.8736622824061966,-0.9,0.0,1.0,367.0,685.0,1.0,0,328.0,1
503,503,0.47164727862375166,0.5,0.0,0.0,251.0,861.0,0.0,1,228.0,1
504,504,0.11056661738237772,0.1,1.0,1.0,451.0,508.0,1.0,1,771.0,1
505,505,-0.7442836095602583,-0.7,0.0,1.0,454.0,765.0,1.0,0,401.0,1
506,506,0.003971333740825034,0.0,1.0,1.0,412.0,834.0,1.0,1,494.0,1
507,507,0.14042319815610382,0.1,1.0,1.0,457.0,764.0,1.0,1,709.0,1
508,508,-0.28825489911156454,-0.3,0.0,1.0,258.0,729.0,1.0,0,623.0,1
509,509,-0.4402458393740719,-0.4,1.0,0.0,455.0,614.0,0.0,0,331.0,1
510,510,-0.14867721644261367,-0.1,1.0,0.0,266.0,547.0,0.0,0,277.0,1
511,511,0.502898291526726,0.5,0.0,0.0,304.0,620.0,0.0,1,496.0,1
512,512,-0.8043039762861521,-0.8,0.0,1.0,299.0,583.0,1.0,0,278.0,1
513,513,-0.2914079483459364,-0.3,0.0,1.0,323.0,763.0,1.0,0,464.0,1
514,514,-0.02680871544750263,-0.0,0.0,1.0,441.0,862.0,1.0,0,327.0,1
515,515,0.4446571522204469,0.4,0.0,0.0,304.0,689.0,0.0,1,517.0,1
516,516,-0.7123568868859038,-0.7,1.0,0.0,461.0,659.0,0.0,0,310.0,1
517,517,-0.10792605650616438,-0.1,1.0,0.0,419.0,520.0,1.0,1,1181.0,0
518,518,0.696862745749825,0.7,1.0,1.0,291.0,763.0,1.0,1,206.0,1
519,519,0.039251800290629135,0.0,1.0,1.0,409.0,633.0,0.0,0,948.0,0
520,520,-0.6568607925629757,-0.7,1.0,0.0,494.0,535.0,0.0,0,261.0,1
521,521,0.6389300980435727,0.6,0.0,0.0,423.0,928.0,0.0,1,189.0,1
522,522,-0.4020121752541955,-0.4,0.0,1.0,417.0,614.0,1.0,0,329.0,1
523,523,0.8937931158416407,0.9,0.0,0.0,342.0,964.0,0.0,1,34.0,1
524,524,-0.8907585260265536,-0.9,1.0,0.0,403.0,820.0,0.0,0,67.0,1
525,525,-0.8257326790078244,-0.8,0.0,1.0,483.0,799.0,1.0,0,428.0,1
526,526,0.6107803080942468,0.6,0.0,0.0,293.0,913.0,0.0,1,124.0,1
527,527,0.7624012455881147,0.8,1.0,1.0,291.0,781.0,1.0,1,398.0,1
528,528,0.6557002513481528,0.7,0.0,0.0,352.0,548.0,0.0,1,350.0,1
529,529,0.36997572036346027,0.4,0.0,0.0,260.0,507.0,0.0,1,553.0,1
530,530,0.6711762637940412,0.7,0.0,0.0,373.0,950.0,0.0,1,347.0,1
531,531,0.3186848570356612,0.3,1.0,1.0,453.0,606.0,1.0,1,461.0,1
532,532,0.8516670007255457,0.9,0.0,0.0,382.0,510.0,0.0,1,548.0,1
533,533,0.04801824123989107,0.0,0.0,0.0,313.0,737.0,0.0,1,1290.0,1
534,534,-0.12635675036172478,-0.1,1.0,0.0,271.0,662.0,0.0,0,567.0,1
535,535,-0.46010158011129926,-0.5,1.0,0.0,319.0,948.0,0.0,0,293.0,1
536,536,0.052981468457591885,0.1,1.0,1.0,427.0,914.0,0.0,0,-41.0,0
537,537,-0.8596790078943418,-0.9,1.0,0.0,405.0,658.0,0.0,0,277.0,1
538,538,0.28616878931384526,0.3,1.0,1.0,477.0,910.0,1.0,1,533.0,1
539,539,0.8292451563595008,0.8,1.0,1.0,351.0,889.0,1.0,1,50.0,1
540,540,0.7261441514063628,0.7,1.0,1.0,355.0,751.0,1.0,1,234.0,1
541,541,-0.309211544535,-0.3,0.0,1.0,458.0,970.0,1.0,0,182.0,1
542,542,0.4164626623859461,0.4,1.0,1.0,335.0,911.0,1.0,1,224.0,1
543,543,0.26596425073421515,0.3,1.0,1.0,296.0,978.0,1.0,1,126.0,1
544,544,-0.6262361635934957,-0.6,0.0,1.0,266.0,840.0,1.0,0,244.0,1
545,545,0.7607549525839773,0.8,0.0,0.0,441.0,895.0,0.0,1,104.0,1
546,546,0.2264326537986675,0.2,1.0,1.0,481.0,735.0,1.0,1,294.0,1
547,547,0.2935415792537407,0.3,0.0,0.0,272.0,748.0,0.0,1,450.0,1
548,548,-0.4308268074801772,-0.4,0.0,1.0,427.0,572.0,1.0,0,281.0,1
549,549,-0.10975352611621014,-0.1,0.0,1.0,319.0,548.0,1.0,0,1733.0,1
550,550,0.1522111737299795,0.2,1.0,1.0,386.0,941.0,1.0,1,143.0,1
551,551,-0.2621391344782269,-0.3,1.0,0.0,473.0,647.0,0.0,0,420.0,1
552,552,-0.49350449466106977,-0.5,0.0,1.0,413.0,981.0,1.0,0,176.0,1
553,553,0.6941496785139712,0.7,0.0,0.0,339.0,765.0,0.0,1,216.0,1
554,554,-0.5500555720423024,-0.6,0.0,1.0,445.0,604.0,1.0,0,551.0,1
555,555,0.7649397094670202,0.8,0.0,0.0,331.0,903.0,0.0,1,186.0,1
556,556,0.03155474688396476,0.0,1.0,1.0,363.0,878.0,1.0,1,309.0,1
557,557,0.8281015856461204,0.8,0.0,0.0,264.0,649.0,0.0,1,227.0,1
558,558,-0.3650091457221457,-0.4,1.0,0.0,321.0,859.0,0.0,0,30.0,1
559,559,0.6459685342763305,0.6,1.0,1.0,265.0,974.0,1.0,1,161.0,1
560,560,0.6418622780346032,0.6,1.0,1.0,472.0,987.0,1.0,1,391.0,1
561,561,-0.59852412740347,-0.6,0.0,1.0,485.0,549.0,1.0,0,326.0,1
562,562,0.004016761024382642,0.0,1.0,1.0,371.0,758.0,1.0,1,651.0,1
563,563,-0.48729832060994377,-0.5,1.0,0.0,283.0,755.0,0.0,0,232.0,1
564,564,-0.8482337870030515,-0.8,0.0,1.0,493.0,671.0,1.0,0,316.0,1
565,565,0.037001361426336254,0.0,0.0,0.0,432.0,937.0,1.0,0,1741.0,0
566,566,0.42281094777221695,0.4,1.0,1.0,426.0,796.0,1.0,1,258.0,1
567,567,-0.6027525045190689,-0.6,0.0,1.0,453.0,749.0,1.0,0,378.0,1
568,568,0.7207997002959202,0.7,0.0,0.0,267.0,992.0,0.0,1,231.0,1
569,569,-0.5960444774223281,-0.6,0.0,1.0,315.0,589.0,1.0,0,396.0,1
570,570,0.24578275996324195,0.2,1.0,1.0,277.0,954.0,1.0,1,139.0,1
571,571,-0.558430644184522,-0.6,1.0,0.0,255.0,647.0,0.0,0,368.0,1
572,572,0.3413329303131899,0.3,0.0,0.0,308.0,647.0,0.0,1,835.0,1
573,573,-0.7040316978153838,-0.7,1.0,0.0,473.0,627.0,0.0,0,480.0,1
574,574,0.32694344291894206,0.3,1.0,1.0,277.0,948.0,1.0,1,385.0,1
575,575,-0.8965742489573995,-0.9,1.0,0.0,301.0,980.0,0.0,0,69.0,1
576,576,-0.705680672995354,-0.7,0.0,1.0,403.0,503.0,1.0,0,734.0,1
577,577,-0.5614446151285262,-0.6,0.0,1.0,342.0,728.0,1.0,0,240.0,1
578,578,-0.4682395913787004,-0.5,1.0,0.0,335.0,672.0,0.0,0,553.0,1
579,579,-0.8033644185545582,-0.8,1.0,0.0,321.0,611.0,0.0,0,128.0,1
580,580,-0.26070620271252387,-0.3,0.0,1.0,309.0,673.0,1.0,0,1308.0,1
581,581,0.29312072599616756,0.3,1.0,1.0,275.0,973.0,1.0,1,372.0,1
582,582,-0.6454521288123555,-0.6,1.0,0.0,269.0,845.0,0.0,0,196.0,1
583,583,-0.4423875710100537,-0.4,1.0,0.0,459.0,527.0,0.0,0,304.0,1
584,584,-0.3152934508235521,-0.3,0.0,1.0,284.0,898.0,1.0,0,128.0,1
585,585,-0.16120897470146534,-0.2,1.0,0.0,436.0,648.0,0.0,0,486.0,1
586,586,0.18363796861989512,0.2,0.0,0.0,388.0,974.0,0.0,1,68.0,1
587,587,0.8942019216475684,0.9,1.0,1.0,350.0,801.0,1.0,1,109.0,1
588,588,0.5253754714079782,0.5,0.0,0.0,404.0,963.0,0.0,1,53.0,1
589,589,0.44096746807028697,0.4,1.0,1.0,350.0,919.0,1.0,1,11.0,1
590,590,0.08081928033022212,0.1,1.0,1.0,261.0,845.0,0.0,0,44.0,0
591,591,-0.018826212506339535,-0.0,1.0,0.0,289.0,832.0,1.0,1,349.0,0
592,592,-0.6260230355799212,-0.6,1.0,0.0,442.0,692.0,0.0,0,266.0,1
593,593,-0.5995853043079944,-0.6,0.0,1.0,362.0,907.0,1.0,0,361.0,1
594,594,0.8014877769288341,0.8,0.0,0.0,355.0,638.0,0.0,1,277.0,1
595,595,-0.299458274565103,-0.3,1.0,0.0,285.0,668.0,0.0,0,217.0,1
596,596,-0.7145822155179178,-0.7,1.0,0.0,395.0,924.0,0.0,0,131.0,1
597,597,-0.5538289611700413,-0.6,1.0,0.0,274.0,702.0,0.0,0,484.0,1
598,598,0.8746437428439914,0.9,0.0,0.0,286.0,956.0,0.0,1,158.0,1
599,599,0.13802177393966397,0.1,1.0,1.0,305.0,688.0,1.0,1,347.0,1
600,600,-0.8994185151040475,-0.9,0.0,1.0,306.0,888.0,1.0,0,186.0,1
601,601,0.11303812051411788,0.1,1.0,1.0,330.0,619.0,1.0,1,741.0,1
602,602,0.06631872068810418,0.1,1.0,1.0,300.0,740.0,0.0,0,900.0,0
603,603,-0.6506604412666902,-0.7,0.0,1.0,302.0,776.0,1.0,0,142.0,1
604,604,-0.14953508370352875,-0.1,1.0,0.0,315.0,821.0,0.0,0,264.0,1
605,605,-0.7449410676305636,-0.7,0.0,1.0,274.0,654.0,1.0,0,702.0,1
606,606,0.32712749799197216,0.3,1.0,1.0,281.0,786.0,1.0,1,183.0,1
607,607,0.6480314973865496,0.6,0.0,0.0,463.0,535.0,0.0,1,312.0,1
608,608,0.5028668110408768,0.5,0.0,0.0,427.0,587.0,0.0,1,306.0,1
609,609,-0.313666107652541,-0.3,0.0,1.0,367.0,921.0,1.0,0,622.0,1
610,610,-0.030852172080106266,-0.0,0.0,1.0,428.0,620.0,1.0,0,722.0,1
611,611,0.06080004079898904,0.1,1.0,1.0,496.0,557.0,1.0,1,287.0,1
612,612,0.14408102310338122,0.1,1.0,1.0,419.0,853.0,0.0,0,-122.0,0
613,613,0.4081396575497397,0.4,0.0,0.0,393.0,501.0,0.0,1,376.0,1
614,614,-0.781920903087759,-0.8,0.0,1.0,468.0,588.0,1.0,0,394.0,1
615,615,-0.7091481788727737,-0.7,0.0,1.0,478.0,821.0,1.0,0,161.0,1
616,616,-0.22340340892336708,-0.2,1.0,0.0,367.0,956.0,1.0,1,-43.0,0
617,617,-0.8893518435736654,-0.9,0.0,1.0,354.0,964.0,1.0,0,112.0,1
618,618,-0.7802047144254032,-0.8,0.0,1.0,456.0,774.0,1.0,0,160.0,1
619,619,-0.49358283382134494,-0.5,1.0,0.0,265.0,859.0,0.0,0,146.0,1
620,620,-0.061960342140442215,-0.1,1.0,0.0,370.0,831.0,0.0,0,219.0,1
621,621,0.12630638655670456,0.1,1.0,1.0,284.0,571.0,1.0,1,1185.0,1
622,622,-0.16145943277950225,-0.2,0.0,1.0,445.0,835.0,1.0,0,760.0,1
623,623,0.26569889014488457,0.3,1.0,1.0,489.0,697.0,1.0,1,544.0,1
624,624,-0.2860148943455635,-0.3,1.0,0.0,314.0,963.0,0.0,0,853.0,1
625,625,-0.46018391114933754,-0.5,0.0,1.0,394.0,833.0,1.0,0,193.0,1
626,626,0.7404306104408266,0.7,0.0,0.0,437.0,878.0,0.0,1,115.0,1
627,627,-0.3252089573246937,-0.3,0.0,1.0,355.0,662.0,1.0,0,343.0,1
628,628,0.03678795688328884,0.0,1.0,1.0,355.0,524.0,0.0,0,1681.0,0
629,629,0.6354324850288323,0.6,0.0,0.0,408.0,685.0,0.0,1,157.0,1
630,630,-0.13930885718443897,-0.1,1.0,0.0,357.0,943.0,0.0,0,-30.0,1
631,631,-0.44420734830841574,-0.4,0.0,1.0,346.0,998.0,1.0,0,126.0,1
632,632,0.35033255747413483,0.4,0.0,0.0,282.0,774.0,0.0,1,364.0,1
633,633,-0.8857681850451841,-0.9,0.0,1.0,499.0,951.0,1.0,0,100.0,1
634,634,0.31709784468192026,0.3,0.0,0.0,308.0,852.0,0.0,1,120.0,1
635,635,0.10161247520056882,0.1,0.0,0.0,357.0,722.0,0.0,1,531.0,1
636,636,0.5574342528757247,0.6,0.0,0.0,409.0,690.0,0.0,1,321.0,1
637,637,-0.3504806294285312,-0.4,0.0,1.0,291.0,580.0,1.0,0,379.0,1
638,638,-0.061000687587117186,-0.1,0.0,1.0,329.0,820.0,1.0,0,481.0,1
639,639,0.1379568358226403,0.1,0.0,0.0,321.0,512.0,1.0,0,1507.0,0
640,640,0.6310996278852298,0.6,0.0,0.0,251.0,875.0,0.0,1,254.0,1
641,641,0.18568922550961464,0.2,1.0,1.0,483.0,770.0,1.0,1,347.0,1
642,642,-0.32293270631911486,-0.3,0.0,1.0,477.0,540.0,1.0,0,703.0,1
643,643,0.2485914242519064,0.2,1.0,1.0,480.0,675.0,1.0,1,855.0,1
644,644,-0.5941645357247963,-0.6,0.0,1.0,430.0,781.0,1.0,0,179.0,1
645,645,-0.18356525787694178,-0.2,1.0,0.0,412.0,815.0,1.0,1,273.0,0
646,646,-0.5512184135180522,-0.6,0.0,1.0,333.0,765.0,1.0,0,292.0,1
647,647,-0.33175564754010245,-0.3,0.0,1.0,302.0,676.0,1.0,0,532.0,1
648,648,-0.22628978978534553,-0.2,1.0,0.0,476.0,610.0,0.0,0,314.0,1
649,649,0.280827474109966,0.3,1.0,1.0,459.0,727.0,1.0,1,144.0,1
650,650,0.5756563955045214,0.6,0.0,0.0,450.0,530.0,0.0,1,450.0,1
651,651,0.048084075363548084,0.0,1.0,1.0,481.0,575.0,1.0,1,724.0,1
652,652,-0.6004590576069173,-0.6,1.0,0.0,419.0,853.0,0.0,0,108.0,1
653,653,0.5169132700068152,0.5,1.0,1.0,453.0,852.0,1.0,1,205.0,1
654,654,-0.7324213148119598,-0.7,0.0,1.0,331.0,563.0,1.0,0,406.0,1
655,655,0.7122006174892593,0.7,0.0,0.0,428.0,897.0,0.0,1,245.0,1
656,656,-0.6413110931572428,-0.6,1.0,0.0,426.0,775.0,0.0,0,219.0,1
657,657,-0.8499731781652959,-0.8,0.0,1.0,339.0,665.0,1.0,0,276.0,1
658,658,0.5426569481609943,0.5,0.0,0.0,329.0,939.0,0.0,1,212.0,1
659,659,-0.6597807839591938,-0.7,0.0,1.0,433.0,873.0,1.0,0,224.0,1
660,660,0.3543795769939885,0.4,1.0,1.0,313.0,837.0,1.0,1,150.0,1
661,661,-0.7200406449085547,-0.7,0.0,1.0,455.0,740.0,1.0,0,355.0,1
662,662,0.4593913480060522,0.5,1.0,1.0,251.0,685.0,1.0,1,304.0,1
663,663,0.8442397637597375,0.8,0.0,0.0,413.0,947.0,0.0,1,390.0,1
664,664,-0.26538839776837686,-0.3,0.0,1.0,436.0,752.0,1.0,0,242.0,1
665,665,-0.31959529798010244,-0.3,1.0,0.0,360.0,613.0,0.0,0,377.0,1
666,666,-0.7791799528736401,-0.8,1.0,0.0,328.0,661.0,0.0,0,301.0,1
667,667,0.8630819579675854,0.9,1.0,1.0,376.0,652.0,1.0,1,172.0,1
668,668,-0.7218717750753804,-0.7,0.0,1.0,437.0,524.0,1.0,0,399.0,1
669,669,0.8763360860185953,0.9,0.0,0.0,404.0,544.0,0.0,1,392.0,1
670,670,0.6623221486960623,0.7,1.0,1.0,391.0,944.0,1.0,1,175.0,1
671,671,-0.3492273682493201,-0.3,0.0,1.0,277.0,862.0,1.0,0,591.0,1
672,672,0.35304122098257296,0.4,1.0,1.0,371.0,602.0,1.0,1,567.0,1
673,673,-0.06413244977559307,-0.1,1.0,0.0,350.0,513.0,0.0,0,947.0,1
674,674,0.013717904977713524,0.0,0.0,0.0,322.0,723.0,1.0,0,425.0,0
675,675,0.32687084937421795,0.3,1.0,1.0,452.0,873.0,1.0,1,505.0,1
676,676,0.3075729549937404,0.3,0.0,0.0,349.0,641.0,0.0,1,300.0,1
677,677,-0.8373323677644346,-0.8,0.0,1.0,455.0,588.0,1.0,0,317.0,1
678,678,0.007255076023811258,0.0,1.0,1.0,495.0,779.0,1.0,1,356.0,1
679,679,-0.624604065238098,-0.6,0.0,1.0,358.0,809.0,1.0,0,173.0,1
680,680,0.7820608478366774,0.8,1.0,1.0,337.0,587.0,1.0,1,536.0,1
681,681,0.007921151573792251,0.0,0.0,0.0,492.0,803.0,0.0,1,1365.0,1
682,682,0.45319238876847734,0.5,1.0,1.0,338.0,579.0,1.0,1,403.0,1
683,683,-0.1658992405326779,-0.2,1.0,0.0,326.0,882.0,1.0,1,2.0,0
684,684,0.0006329724811066084,0.0,0.0,0.0,463.0,942.0,1.0,0,75.0,0
685,685,-0.52899536340998,-0.5,1.0,0.0,453.0,985.0,0.0,0,52.0,1
686,686,-0.5692867112117798,-0.6,1.0,0.0,298.0,656.0,0.0,0,366.0,1
687,687,0.0929928837668712,0.1,0.0,0.0,369.0,580.0,1.0,0,1441.0,0
688,688,0.6694513893565358,0.7,0.0,0.0,314.0,762.0,0.0,1,244.0,1
689,689,-0.3143929247691316,-0.3,1.0,0.0,497.0,958.0,0.0,0,165.0,1
690,690,-0.7141679246359746,-0.7,0.0,1.0,272.0,667.0,1.0,0,301.0,1
691,691,-0.2684950646085893,-0.3,0.0,1.0,317.0,794.0,1.0,0,359.0,1
692,692,-0.1726079428451145,-0.2,1.0,0.0,422.0,781.0,0.0,0,297.0,1
693,693,-0.08287520248257763,-0.1,0.0,1.0,268.0,576.0,1.0,0,576.0,1
694,694,0.06336573866060657,0.1,1.0,1.0,338.0,775.0,0.0,0,67.0,0
695,695,-0.8835720917726606,-0.9,0.0,1.0,389.0,791.0,1.0,0,110.0,1
696,696,-0.040249235859644905,-0.0,1.0,0.0,383.0,735.0,1.0,1,532.0,0
697,697,0.5330154860951889,0.5,1.0,1.0,280.0,995.0,1.0,1,65.0,1
698,698,0.5501353817349047,0.6,0.0,0.0,456.0,893.0,0.0,1,401.0,1
699,699,-0.0017024150077399325,-0.0,1.0,0.0,425.0,845.0,1.0,1,-120.0,0
700,700,0.3209109516065517,0.3,1.0,1.0,295.0,667.0,1.0,1,758.0,1
701,701,-0.5041109047199046,-0.5,0.0,1.0,313.0,632.0,1.0,0,285.0,1
702,702,0.27323095500927164,0.3,1.0,1.0,469.0,706.0,1.0,1,1245.0,1
703,703,-0.09357012708701717,-0.1,0.0,1.0,263.0,657.0,1.0,0,330.0,1
704,704,-0.8959323532519307,-0.9,1.0,0.0,408.0,635.0,0.0,0,587.0,1
705,705,-0.3242323285574972,-0.3,1.0,0.0,468.0,561.0,0.0,0,311.0,1
706,706,0.19834043902169418,0.2,1.0,1.0,257.0,949.0,1.0,1,514.0,1
707,707,0.8582214577727868,0.9,1.0,1.0,372.0,627.0,1.0,1,501.0,1
708,708,0.19163148014992315,0.2,1.0,1.0,369.0,731.0,1.0,1,1280.0,1
709,709,-0.8183045019818465,-0.8,0.0,1.0,441.0,805.0,1.0,0,174.0,1
710,710,0.47491351803983084,0.5,0.0,0.0,291.0,508.0,0.0,1,441.0,1
711,711,-0.734563493679564,-0.7,0.0,1.0,497.0,643.0,1.0,0,240.0,1
712,712,0.5890064389311661,0.6,1.0,1.0,342.0,632.0,1.0,1,566.0,1
713,713,-0.13539268558731465,-0.1,1.0,0.0,428.0,547.0,1.0,1,1275.0,0
714,714,0.7455248534810431,0.7,0.0,0.0,384.0,844.0,0.0,1,242.0,1
715,715,0.6908037232048755,0.7,1.0,1.0,414.0,536.0,1.0,1,580.0,1
716,716,-0.18904396111856758,-0.2,0.0,1.0,458.0,545.0,1.0,0,1097.0,1
717,717,-0.6414911689134839,-0.6,0.0,1.0,491.0,662.0,1.0,0,217.0,1
718,718,-0.7245146992608711,-0.7,0.0,1.0,304.0,839.0,1.0,0,227.0,1
719,719,-0.5416230650962849,-0.5,0.0,1.0,466.0,611.0,1.0,0,433.0,1
720,720,0.11200109724792673,0.1,1.0,1.0,273.0,570.0,1.0,1,977.0,1
721,721,0.8630646431503629,0.9,1.0,1.0,308.0,809.0,1.0,1,473.0,1
722,722,-0.3656965719487788,-0.4,1.0,0.0,498.0,590.0,0.0,0,1382.0,1
723,723,-0.7955153790868434,-0.8,1.0,0.0,434.0,566.0,0.0,0,260.0,1
724,724,-0.686666161468148,-0.7,1.0,0.0,370.0,603.0,0.0,0,227.0,1
725,725,-0.09203528473759215,-0.1,1.0,0.0,368.0,918.0,1.0,1,94.0,0
726,726,-0.11420118220678266,-0.1,0.0,1.0,269.0,868.0,1.0,0,663.0,1
727,727,0.616218568040482,0.6,0.0,0.0,320.0,945.0,0.0,1,335.0,1
728,728,-0.35524242496003067,-0.4,0.0,1.0,452.0,539.0,1.0,0,389.0,1
729,729,-0.34123662798138976,-0.3,1.0,0.0,357.0,874.0,0.0,0,199.0,1
730,730,0.86247630841547,0.9,1.0,1.0,269.0,541.0,1.0,1,340.0,1
731,731,-0.16390496657399445,-0.2,0.0,1.0,385.0,840.0,1.0,0,925.0,1
732,732,-0.01592768985497317,-0.0,1.0,0.0,476.0,532.0,1.0,1,422.0,0
733,733,0.8774993861103623,0.9,1.0,1.0,305.0,932.0,1.0,1,113.0,1
734,734,-0.36342512321950016,-0.4,1.0,0.0,310.0,623.0,1.0,1,667.0,0
735,735,-0.4115636959871681,-0.4,0.0,1.0,355.0,869.0,1.0,0,346.0,1
736,736,-0.7199571445121037,-0.7,0.0,1.0,442.0,812.0,1.0,0,156.0,1
737,737,0.26306738194912593,0.3,0.0,0.0,420.0,724.0,0.0,1,646.0,1
738,738,-0.2821326707552032,-0.3,0.0,1.0,422.0,549.0,1.0,0,669.0,1
739,739,0.1787661300565767,0.2,1.0,1.0,393.0,710.0,1.0,1,257.0,1
740,740,0.7536370597973902,0.8,1.0,1.0,272.0,741.0,1.0,1,607.0,1
741,741,0.5170144074568771,0.5,0.0,0.0,321.0,580.0,0.0,1,399.0,1
742,742,0.41188595419429486,0.4,0.0,0.0,401.0,942.0,0.0,1,427.0,1
743,743,0.36390441984561883,0.4,1.0,1.0,276.0,965.0,1.0,1,329.0,1
744,744,-0.825809511069158,-0.8,1.0,0.0,302.0,726.0,0.0,0,372.0,1
745,745,-0.25335332901522556,-0.3,1.0,0.0,403.0,897.0,0.0,0,220.0,1
746,746,-0.8210406469940257,-0.8,0.0,1.0,468.0,951.0,1.0,0,351.0,1
747,747,-0.34553383923805614,-0.3,0.0,1.0,297.0,613.0,1.0,0,510.0,1
748,748,0.7289975853486069,0.7,1.0,1.0,490.0,997.0,1.0,1,253.0,1
749,749,-0.6468754276158692,-0.6,1.0,0.0,386.0,686.0,0.0,0,418.0,1
750,750,-0.123740089726454,-0.1,1.0,0.0,448.0,864.0,0.0,0,248.0,1
751,751,-0.3831952994330937,-0.4,1.0,0.0,452.0,812.0,0.0,0,416.0,1
752,752,0.39488069935787984,0.4,1.0,1.0,332.0,894.0,1.0,1,164.0,1
753,753,0.301410713657264,0.3,1.0,1.0,272.0,884.0,0.0,0,254.0,0
754,754,0.7346122114073451,0.7,0.0,0.0,273.0,751.0,1.0,0,316.0,0
755,755,-0.2282030412285102,-0.2,0.0,1.0,320.0,522.0,1.0,0,628.0,1
756,756,-0.510558596497509,-0.5,0.0,1.0,291.0,899.0,1.0,0,340.0,1
757,757,0.20397633410668725,0.2,0.0,0.0,414.0,543.0,0.0,1,833.0,1
758,758,0.4038705856633603,0.4,1.0,1.0,413.0,677.0,1.0,1,390.0,1
759,759,0.12225159433624333,0.1,0.0,0.0,446.0,654.0,1.0,0,550.0,0
760,760,-0.2546890366965521,-0.3,1.0,0.0,317.0,987.0,1.0,1,56.0,0
761,761,-0.2850401291472422,-0.3,1.0,0.0,348.0,643.0,0.0,0,449.0,1
762,762,0.0471155212658102,0.0,1.0,1.0,265.0,871.0,1.0,1,1384.0,1
763,763,0.6303900122010734,0.6,0.0,0.0,475.0,894.0,0.0,1,211.0,1
764,764,-0.7712941477530897,-0.8,0.0,1.0,492.0,840.0,1.0,0,208.0,1
765,765,-0.6998338939201723,-0.7,0.0,1.0,424.0,617.0,1.0,0,609.0,1
766,766,0.44102028533352444,0.4,0.0,0.0,421.0,522.0,0.0,1,307.0,1
767,767,0.7724773540297839,0.8,1.0,1.0,326.0,884.0,1.0,1,210.0,1
768,768,0.39022652977528016,0.4,0.0,0.0,270.0,864.0,0.0,1,1016.0,1
769,769,0.06108647822967617,0.1,1.0,1.0,262.0,978.0,0.0,0,50.0,0
770,770,-0.15984303497421237,-0.2,0.0,1.0,404.0,851.0,1.0,0,365.0,1
771,771,0.4873702202025675,0.5,0.0,0.0,280.0,929.0,0.0,1,171.0,1
772,772,-0.5140486856523683,-0.5,0.0,1.0,274.0,600.0,1.0,0,486.0,1
773,773,0.600285197585339,0.6,1.0,1.0,270.0,787.0,1.0,1,513.0,1
774,774,-0.5340353102756707,-0.5,1.0,0.0,353.0,612.0,0.0,0,275.0,1
775,775,-0.6396236243918615,-0.6,0.0,1.0,320.0,596.0,1.0,0,384.0,1
776,776,0.27550640830955164,0.3,0.0,0.0,384.0,966.0,0.0,1,400.0,1
777,777,0.6314366881848282,0.6,1.0,1.0,387.0,689.0,1.0,1,254.0,1
778,778,-0.544930642286148,-0.5,1.0,0.0,487.0,507.0,0.0,0,776.0,1
779,779,0.5630674572527613,0.6,0.0,0.0,416.0,799.0,0.0,1,205.0,1
780,780,-0.3699827328198134,-0.4,1.0,0.0,260.0,698.0,0.0,0,432.0,1
781,781,-0.238982358417011,-0.2,1.0,0.0,277.0,764.0,0.0,0,989.0,1
782,782,-0.7684057510526575,-0.8,0.0,1.0,360.0,883.0,1.0,0,207.0,1
783,783,-0.57308176013495,-0.6,1.0,0.0,332.0,594.0,0.0,0,304.0,1
784,784,-0.5780562488670686,-0.6,1.0,0.0,443.0,798.0,0.0,0,249.0,1
785,785,0.5336515254843225,0.5,1.0,1.0,413.0,631.0,1.0,1,176.0,1
786,786,-0.6822595766507847,-0.7,0.0,1.0,474.0,614.0,1.0,0,172.0,1
787,787,-0.10654872479779698,-0.1,1.0,0.0,366.0,948.0,1.0,1,216.0,0
788,788,-0.6120255323848773,-0.6,1.0,0.0,415.0,926.0,0.0,0,129.0,1
789,789,0.6508751392319835,0.7,1.0,1.0,310.0,933.0,1.0,1,427.0,1
790,790,0.780542849160443,0.8,1.0,1.0,480.0,879.0,1.0,1,331.0,1
791,791,0.23973531888002986,0.2,0.0,0.0,452.0,789.0,0.0,1,489.0,1
792,792,-0.672291088142375,-0.7,0.0,1.0,261.0,576.0,1.0,0,313.0,1
793,793,0.420323133096668,0.4,1.0,1.0,367.0,969.0,1.0,1,24.0,1
794,794,0.23259304216902466,0.2,0.0,0.0,271.0,543.0,0.0,1,376.0,1
795,795,-0.12062936697759741,-0.1,0.0,1.0,462.0,596.0,1.0,0,442.0,1
796,796,0.6973633610409519,0.7,0.0,0.0,481.0,858.0,0.0,1,201.0,1
797,797,0.6462289193331362,0.6,0.0,0.0,459.0,956.0,0.0,1,115.0,1
798,798,0.32424776476864536,0.3,0.0,0.0,364.0,835.0,1.0,0,351.0,0
799,799,-0.6686374053028885,-0.7,1.0,0.0,361.0,585.0,0.0,0,234.0,1
800,800,-0.8804425716282727,-0.9,0.0,1.0,293.0,830.0,1.0,0,367.0,1
801,801,-0.15282654735091694,-0.2,0.0,1.0,336.0,607.0,1.0,0,407.0,1
802,802,-0.6709835793931995,-0.7,0.0,1.0,483.0,928.0,1.0,0,99.0,1
803,803,0.6144410391728591,0.6,1.0,1.0,486.0,667.0,1.0,1,147.0,1
804,804,0.8755647285299947,0.9,0.0,0.0,306.0,534.0,0.0,1,260.0,1
805,805,0.4936407719057708,0.5,1.0,1.0,307.0,655.0,1.0,1,328.0,1
806,806,0.7499692126642618,0.7,0.0,0.0,450.0,737.0,0.0,1,173.0,1
807,807,0.1103811440897241,0.1,1.0,1.0,273.0,650.0,1.0,1,367.0,1
808,808,0.19950443269378815,0.2,0.0,0.0,484.0,867.0,1.0,0,159.0,0
809,809,0.28874172732862247,0.3,0.0,0.0,468.0,699.0,0.0,1,383.0,1
810,810,-0.8858961863087078,-0.9,1.0,0.0,414.0,815.0,0.0,0,131.0,1
811,811,0.13959005758662058,0.1,1.0,1.0,441.0,518.0,1.0,1,1221.0,1
812,812,-0.10155854835361722,-0.1,1.0,0.0,417.0,574.0,1.0,1,1069.0,0
813,813,-0.3591660130880293,-0.4,0.0,1.0,492.0,929.0,1.0,0,-111.0,1
814,814,0.8922527903123566,0.9,1.0,1.0,428.0,961.0,1.0,1,141.0,1
815,815,-0.01840025635057385,-0.0,0.0,1.0,411.0,961.0,1.0,0,278.0,1
816,816,-0.8345454398547021,-0.8,0.0,1.0,417.0,747.0,1.0,0,296.0,1
817,817,0.0739510416487551,0.1,0.0,0.0,374.0,697.0,1.0,0,559.0,0
818,818,0.554888862538237,0.6,1.0,1.0,275.0,769.0,1.0,1,326.0,1
819,819,0.8884491469745185,0.9,1.0,1.0,324.0,930.0,1.0,1,286.0,1
820,820,-0.6661306037763719,-0.7,0.0,1.0,270.0,655.0,1.0,0,445.0,1
821,821,-0.6023188479016037,-0.6,1.0,0.0,324.0,969.0,0.0,0,77.0,1
822,822,-0.5177268843660641,-0.5,0.0,1.0,368.0,964.0,1.0,0,148.0,1
823,823,0.12586527777485046,0.1,1.0,1.0,367.0,942.0,0.0,0,-89.0,0
824,824,0.8357274250809333,0.8,0.0,0.0,427.0,869.0,0.0,1,134.0,1
825,825,-0.25296742475462186,-0.3,0.0,1.0,333.0,877.0,1.0,0,630.0,1
826,826,0.3826031113557028,0.4,1.0,1.0,405.0,954.0,1.0,1,261.0,1
827,827,-0.49150341038003525,-0.5,1.0,0.0,285.0,899.0,0.0,0,256.0,1
828,828,-0.8171861622862238,-0.8,0.0,1.0,415.0,758.0,1.0,0,257.0,1
829,829,-0.09324152697446275,-0.1,0.0,1.0,268.0,691.0,1.0,0,801.0,1
830,830,-0.6238363220328733,-0.6,0.0,1.0,320.0,797.0,1.0,0,173.0,1
831,831,-0.03327366124240683,-0.0,1.0,0.0,360.0,631.0,1.0,1,939.0,0
832,832,-0.2636064429738082,-0.3,0.0,1.0,309.0,802.0,1.0,0,729.0,1
833,833,-0.6934867468197476,-0.7,1.0,0.0,443.0,587.0,0.0,0,330.0,1
834,834,0.19545356873169706,0.2,1.0,1.0,386.0,521.0,0.0,0,313.0,0
835,835,0.13917001068159462,0.1,0.0,0.0,443.0,642.0,0.0,1,1475.0,1
836,836,0.7328342563885789,0.7,1.0,1.0,266.0,592.0,1.0,1,352.0,1
837,837,0.7381408024245052,0.7,0.0,0.0,350.0,940.0,0.0,1,170.0,1
838,838,0.25637163660107076,0.3,1.0,1.0,262.0,535.0,1.0,1,393.0,1
839,839,-0.44847767800725974,-0.4,1.0,0.0,490.0,947.0,0.0,0,203.0,1
840,840,0.4545853041965301,0.5,0.0,0.0,420.0,500.0,0.0,1,610.0,1
841,841,-0.7410530832765817,-0.7,1.0,0.0,266.0,796.0,0.0,0,128.0,1
842,842,-0.6196052786336623,-0.6,0.0,1.0,469.0,643.0,1.0,0,198.0,1
843,843,-0.5675307413823949,-0.6,1.0,0.0,330.0,836.0,0.0,0,444.0,1
844,844,0.1412193877797715,0.1,1.0,1.0,305.0,983.0,0.0,0,-98.0,0
845,845,0.36418507825258717,0.4,0.0,0.0,320.0,840.0,0.0,1,420.0,1
846,846,0.7472075386981513,0.7,1.0,1.0,378.0,968.0,0.0,0,-106.0,0
847,847,0.20862451813824945,0.2,1.0,1.0,319.0,526.0,1.0,1,295.0,1
848,848,0.4170004227967484,0.4,1.0,1.0,481.0,670.0,1.0,1,439.0,1
849,849,0.8304505353172563,0.8,1.0,1.0,419.0,816.0,1.0,1,265.0,1
850,850,-0.7000969238021924,-0.7,0.0,1.0,480.0,829.0,1.0,0,121.0,1
851,851,-0.12066753404104757,-0.1,1.0,0.0,266.0,735.0,1.0,1,269.0,0
852,852,0.254254450598722,0.3,1.0,1.0,284.0,770.0,1.0,1,446.0,1
853,853,-0.13923485142310232,-0.1,1.0,0.0,297.0,740.0,0.0,0,1463.0,1
854,854,-0.3268471598133027,-0.3,0.0,1.0,270.0,923.0,1.0,0,887.0,1
855,855,0.41755664318920116,0.4,1.0,1.0,436.0,758.0,1.0,1,276.0,1
856,856,-0.8556100756942413,-0.9,0.0,1.0,378.0,931.0,1.0,0,261.0,1
857,857,-0.07230229636144825,-0.1,1.0,0.0,257.0,878.0,1.0,1,505.0,0
858,858,-0.6015479122041214,-0.6,0.0,1.0,470.0,844.0,1.0,0,236.0,1
859,859,-0.7467405357638393,-0.7,0.0,1.0,314.0,834.0,1.0,0,52.0,1
860,860,0.332132898630742,0.3,0.0,0.0,288.0,620.0,0.0,1,422.0,1
861,861,0.5073382939909395,0.5,1.0,1.0,351.0,784.0,1.0,1,425.0,1
862,862,-0.44236055759106124,-0.4,0.0,1.0,342.0,538.0,1.0,0,500.0,1
863,863,-0.2409452091881098,-0.2,0.0,1.0,443.0,849.0,1.0,0,588.0,1
864,864,-0.7249138854288419,-0.7,1.0,0.0,412.0,875.0,0.0,0,203.0,1
865,865,0.897683099090368,0.9,0.0,0.0,464.0,913.0,0.0,1,163.0,1
866,866,0.8664006504163254,0.9,0.0,0.0,392.0,876.0,0.0,1,172.0,1
867,867,0.5322979152581208,0.5,1.0,1.0,258.0,996.0,0.0,0,-34.0,0
868,868,-0.8201051601792413,-0.8,1.0,0.0,269.0,786.0,0.0,0,85.0,1
869,869,-0.23525618194514064,-0.2,1.0,0.0,313.0,807.0,0.0,0,40.0,1
870,870,-0.8988821725415108,-0.9,0.0,1.0,337.0,672.0,1.0,0,461.0,1
871,871,-0.8655286724814335,-0.9,0.0,1.0,286.0,748.0,1.0,0,286.0,1
872,872,-0.3170589261638863,-0.3,0.0,1.0,380.0,617.0,1.0,0,953.0,1
873,873,-0.12096366639031397,-0.1,0.0,1.0,457.0,610.0,1.0,0,483.0,1
874,874,0.8993665234477431,0.9,1.0,1.0,489.0,545.0,1.0,1,226.0,1
875,875,0.4436870629610471,0.4,1.0,1.0,408.0,844.0,1.0,1,188.0,1
876,876,0.872551351495522,0.9,0.0,0.0,333.0,996.0,0.0,1,71.0,1
877,877,0.7257212532531275,0.7,0.0,0.0,281.0,968.0,0.0,1,181.0,1
878,878,0.31371761793016206,0.3,1.0,1.0,361.0,670.0,1.0,1,339.0,1
879,879,0.8598480053276479,0.9,1.0,1.0,420.0,556.0,1.0,1,474.0,1
880,880,-0.5664812270002517,-0.6,0.0,1.0,306.0,640.0,1.0,0,614.0,1
881,881,-0.2752022195739914,-0.3,0.0,1.0,306.0,951.0,1.0,0,313.0,1
882,882,0.8201483365671579,0.8,0.0,0.0,493.0,533.0,0.0,1,364.0,1
883,883,-0.3642179310500756,-0.4,0.0,1.0,460.0,576.0,1.0,0,414.0,1
884,884,0.015580471070607227,0.0,0.0,0.0,346.0,897.0,1.0,0,1337.0,0
885,885,-0.7730792466266649,-0.8,1.0,0.0,498.0,917.0,0.0,0,345.0,1
886,886,0.6057784961945146,0.6,1.0,1.0,301.0,629.0,1.0,1,480.0,1
887,887,0.3443378340941191,0.3,0.0,0.0,484.0,900.0,0.0,1,616.0,1
888,888,-0.4993601247138127,-0.5,0.0,1.0,388.0,592.0,1.0,0,300.0,1
889,889,0.8878376300530023,0.9,1.0,1.0,370.0,517.0,1.0,1,423.0,1
890,890,-0.24801419833427574,-0.2,0.0,1.0,345.0,985.0,0.0,1,20.0,0
891,891,0.6809907137467585,0.7,1.0,1.0,338.0,629.0,1.0,1,413.0,1
892,892,-0.05585702231736378,-0.1,0.0,1.0,380.0,917.0,0.0,1,373.0,0
893,893,0.3201897029492652,0.3,0.0,0.0,428.0,964.0,0.0,1,1368.0,1
894,894,-0.5292309991357982,-0.5,1.0,0.0,275.0,881.0,1.0,1,-56.0,0
895,895,-0.5654306983967023,-0.6,1.0,0.0,264.0,517.0,0.0,0,309.0,1
896,896,-0.31949212424474205,-0.3,0.0,1.0,259.0,986.0,1.0,0,305.0,1
897,897,0.5209050733286474,0.5,1.0,1.0,290.0,854.0,1.0,1,576.0,1
898,898,0.6938698477489836,0.7,0.0,0.0,274.0,886.0,0.0,1,90.0,1
899,899,-0.08125199496753965,-0.1,0.0,1.0,381.0,801.0,1.0,0,688.0,1
900,900,0.47901514216049124,0.5,1.0,1.0,345.0,626.0,1.0,1,419.0,1
901,901,-0.3090871110930751,-0.3,0.0,1.0,332.0,589.0,1.0,0,879.0,1
902,902,-0.6752233035352576,-0.7,0.0,1.0,406.0,897.0,1.0,0,227.0,1
903,903,0.04628806470524405,0.0,1.0,1.0,397.0,813.0,1.0,1,1070.0,1
904,904,-0.7742561052715342,-0.8,1.0,0.0,498.0,948.0,0.0,0,194.0,1
905,905,0.854677563555929,0.9,1.0,1.0,410.0,738.0,1.0,1,82.0,1
906,906,0.36045342699301386,0.4,1.0,1.0,498.0,690.0,1.0,1,382.0,1
907,907,-0.44199902747807235,-0.4,1.0,0.0,361.0,935.0,0.0,0,364.0,1
908,908,-0.1596083402201095,-0.2,0.0,1.0,293.0,551.0,1.0,0,1546.0,1
909,909,0.46152211472826743,0.5,1.0,1.0,295.0,836.0,1.0,1,439.0,1
910,910,0.24422105317573728,0.2,0.0,0.0,255.0,715.0,0.0,1,760.0,1
911,911,0.006076827359097647,0.0,0.0,0.0,361.0,780.0,1.0,0,1369.0,0
912,912,0.10675780590774042,0.1,0.0,0.0,311.0,902.0,0.0,1,347.0,1
913,913,-0.23984991581179316,-0.2,1.0,0.0,427.0,530.0,0.0,0,913.0,1
914,914,-0.5690488908348632,-0.6,1.0,0.0,485.0,715.0,0.0,0,270.0,1
915,915,0.6137233844498943,0.6,0.0,0.0,253.0,926.0,0.0,1,291.0,1
916,916,-0.30179697086570456,-0.3,1.0,0.0,425.0,733.0,0.0,0,232.0,1
917,917,-0.30406930992805403,-0.3,0.0,1.0,298.0,716.0,1.0,0,286.0,1
918,918,0.5975088460119092,0.6,0.0,0.0,486.0,639.0,0.0,1,345.0,1
919,919,-0.544772907834714,-0.5,1.0,0.0,433.0,988.0,0.0,0,29.0,1
920,920,-0.8314364795674365,-0.8,0.0,1.0,337.0,512.0,1.0,0,441.0,1
921,921,-0.6453079763905818,-0.6,0.0,1.0,355.0,623.0,1.0,0,372.0,1
922,922,-0.7305814888205826,-0.7,0.0,1.0,350.0,503.0,1.0,0,617.0,1
923,923,-0.5188655296191307,-0.5,0.0,1.0,267.0,728.0,1.0,0,515.0,1
924,924,0.6074674119374627,0.6,1.0,1.0,253.0,956.0,1.0,1,1.0,1
925,925,0.09592941863706561,0.1,0.0,0.0,357.0,825.0,0.0,1,798.0,1
926,926,-0.08700360695207843,-0.1,1.0,0.0,352.0,921.0,1.0,1,247.0,0
927,927,-0.05638652102943553,-0.1,1.0,0.0,336.0,886.0,1.0,1,28.0,0
928,928,-0.28579213868909314,-0.3,0.0,1.0,464.0,971.0,1.0,0,565.0,1
929,929,0.7118981882957219,0.7,1.0,1.0,476.0,537.0,1.0,1,527.0,1
930,930,0.4729083964105739,0.5,1.0,1.0,440.0,985.0,1.0,1,145.0,1
931,931,0.20957756215099554,0.2,0.0,0.0,464.0,627.0,0.0,1,199.0,1
932,932,0.24151282983315026,0.2,1.0,1.0,355.0,653.0,1.0,1,672.0,1
933,933,-0.19977438848477735,-0.2,1.0,0.0,355.0,712.0,1.0,1,353.0,0
934,934,0.8402046980659171,0.8,0.0,0.0,433.0,514.0,0.0,1,433.0,1
935,935,-0.058625676704538,-0.1,1.0,0.0,375.0,670.0,1.0,1,525.0,0
936,936,-0.6065179426490215,-0.6,1.0,0.0,440.0,896.0,0.0,0,134.0,1
937,937,-0.15372225176849075,-0.2,1.0,0.0,490.0,916.0,1.0,1,474.0,0
938,938,-0.802790348272601,-0.8,0.0,1.0,442.0,832.0,1.0,0,206.0,1
939,939,-0.2506905200986972,-0.3,1.0,0.0,481.0,795.0,0.0,0,364.0,1
940,940,0.73063102305011,0.7,1.0,1.0,384.0,969.0,1.0,1,127.0,1
941,941,-0.8812246612767914,-0.9,0.0,1.0,267.0,823.0,1.0,0,330.0,1
942,942,-0.042171579803481296,-0.0,1.0,0.0,375.0,743.0,0.0,0,872.0,1
943,943,-0.7065722712545948,-0.7,1.0,0.0,390.0,908.0,0.0,0,242.0,1
944,944,0.830309054559086,0.8,0.0,0.0,363.0,767.0,0.0,1,360.0,1
945,945,-0.5274811231991401,-0.5,0.0,1.0,334.0,777.0,1.0,0,149.0,1
946,946,-0.7533159761374909,-0.8,1.0,0.0,453.0,840.0,0.0,0,87.0,1
947,947,-0.21662542525428907,-0.2,0.0,1.0,299.0,991.0,0.0,1,-70.0,0
948,948,-0.5488030000445117,-0.5,1.0,0.0,343.0,876.0,0.0,0,161.0,1
949,949,-0.2341624992231125,-0.2,1.0,0.0,432.0,649.0,1.0,1,669.0,0
950,950,-0.4567724841002449,-0.5,0.0,1.0,380.0,896.0,1.0,0,124.0,1
951,951,0.344851672794635,0.3,0.0,0.0,422.0,570.0,0.0,1,338.0,1
952,952,0.6722665989090669,0.7,0.0,0.0,423.0,686.0,0.0,1,291.0,1
953,953,0.6952327176473977,0.7,1.0,1.0,429.0,945.0,1.0,1,-214.0,1
954,954,0.1575356961622033,0.2,1.0,1.0,344.0,708.0,1.0,1,448.0,1
955,955,0.8645128510054477,0.9,0.0,0.0,497.0,690.0,0.0,1,303.0,1
956,956,-0.7751806494203969,-0.8,1.0,0.0,298.0,645.0,0.0,0,377.0,1
957,957,-0.005811792617019695,-0.0,1.0,0.0,328.0,863.0,0.0,0,29.0,1
958,958,-0.6391992830147719,-0.6,0.0,1.0,497.0,887.0,1.0,0,116.0,1
959,959,-0.2968636793141949,-0.3,1.0,0.0,420.0,789.0,0.0,0,191.0,1
960,960,0.6209361493335047,0.6,1.0,1.0,498.0,505.0,1.0,1,657.0,1
961,961,0.4804124818991905,0.5,1.0,1.0,256.0,632.0,1.0,1,512.0,1
962,962,-0.5114014551023625,-0.5,0.0,1.0,353.0,728.0,1.0,0,669.0,1
963,963,0.3826185931914422,0.4,1.0,1.0,443.0,578.0,1.0,1,409.0,1
964,964,-0.47282505489544085,-0.5,0.0,1.0,264.0,855.0,1.0,0,141.0,1
965,965,0.16462899948444198,0.2,0.0,0.0,407.0,973.0,0.0,1,1250.0,1
966,966,-0.3225175363994405,-0.3,0.0,1.0,367.0,687.0,1.0,0,366.0,1
967,967,-0.13838612089788327,-0.1,0.0,1.0,296.0,621.0,1.0,0,663.0,1
968,968,0.10392398870722686,0.1,1.0,1.0,252.0,716.0,1.0,1,252.0,1
969,969,0.6749914303131995,0.7,1.0,1.0,369.0,594.0,1.0,1,417.0,1
970,970,0.38293453583354975,0.4,0.0,0.0,467.0,600.0,0.0,1,363.0,1
971,971,-0.7267069417204077,-0.7,1.0,0.0,484.0,657.0,0.0,0,529.0,1
972,972,-0.46704843165433624,-0.5,1.0,0.0,298.0,950.0,1.0,1,12.0,0
973,973,0.4246740637434926,0.4,0.0,0.0,403.0,990.0,0.0,1,147.0,1
974,974,-0.19918851832693518,-0.2,1.0,0.0,336.0,638.0,0.0,0,366.0,1
975,975,0.8767211176160165,0.9,1.0,1.0,438.0,659.0,1.0,1,193.0,1
976,976,-0.6410073016611202,-0.6,0.0,1.0,386.0,957.0,1.0,0,197.0,1
977,977,0.6204541691646915,0.6,0.0,0.0,386.0,711.0,0.0,1,373.0,1
978,978,0.873466282956812,0.9,1.0,1.0,440.0,786.0,1.0,1,324.0,1
979,979,0.47989748345174454,0.5,0.0,0.0,281.0,557.0,0.0,1,422.0,1
980,980,0.6232973681906163,0.6,1.0,1.0,414.0,602.0,1.0,1,254.0,1
981,981,0.8657397183768322,0.9,1.0,1.0,348.0,612.0,1.0,1,230.0,1
982,982,0.48366257037172,0.5,1.0,1.0,409.0,924.0,1.0,1,147.0,1
983,983,0.6636318770426984,0.7,0.0,0.0,382.0,507.0,0.0,1,371.0,1
984,984,0.19728436051711407,0.2,1.0,1.0,325.0,777.0,1.0,1,308.0,1
985,985,0.3180790993096122,0.3,1.0,1.0,459.0,628.0,1.0,1,783.0,1
986,986,-0.028605790114137886,-0.0,0.0,1.0,310.0,791.0,0.0,1,389.0,0
987,987,0.008997999106699184,0.0,1.0,1.0,416.0,555.0,0.0,0,679.0,0
988,988,-0.871593933984718,-0.9,1.0,0.0,470.0,677.0,0.0,0,243.0,1
989,989,-0.7048595575307309,-0.7,1.0,0.0,263.0,900.0,0.0,0,67.0,1
990,990,-0.6200245238287605,-0.6,1.0,0.0,372.0,695.0,0.0,0,153.0,1
991,991,0.3855601422327738,0.4,1.0,1.0,309.0,802.0,1.0,1,359.0,1
992,992,0.2432628903720776,0.2,1.0,1.0,315.0,738.0,1.0,1,177.0,1
993,993,-0.0469197198354816,-0.0,0.0,1.0,423.0,518.0,1.0,0,669.0,1
994,994,0.37003312862876203,0.4,1.0,1.0,328.0,623.0,1.0,1,379.0,1
995,995,0.4694992606562033,0.5,0.0,0.0,305.0,892.0,0.0,1,-77.0,1
996,996,0.5124655075068661,0.5,0.0,0.0,456.0,844.0,0.0,1,290.0,1
997,997,0.22995609509191606,0.2,1.0,1.0,333.0,933.0,0.0,0,4.0,0
998,998,0.16327994238133214,0.2,0.0,0.0,367.0,893.0,1.0,0,750.0,0
999,999,-0.4798875356566344,-0.5,0.0,1.0,266.0,775.0,1.0,0,439.0,1
1000,1000,0.22789219129687754,0.2,0.0,0.0,323.0,675.0,0.0,1,712.0,1
1001,1001,0.8461737129860257,0.8,1.0,1.0,323.0,580.0,1.0,1,207.0,1
1002,1002,-0.8748862264527693,-0.9,0.0,1.0,492.0,796.0,1.0,0,422.0,1
1003,1003,-0.859820339330828,-0.9,1.0,0.0,257.0,817.0,0.0,0,146.0,1
1004,1004,-0.14061834793714945,-0.1,1.0,0.0,484.0,775.0,0.0,0,661.0,1
1005,1005,0.6748287810475188,0.7,1.0,1.0,260.0,664.0,1.0,1,526.0,1
1006,1006,0.09501313398869249,0.1,1.0,1.0,465.0,801.0,0.0,0,344.0,0
1007,1007,-0.5367195401168767,-0.5,0.0,1.0,451.0,929.0,1.0,0,300.0,1
1008,1008,0.6143952156021252,0.6,0.0,0.0,391.0,829.0,0.0,1,410.0,1
1009,1009,0.1738922742047161,0.2,1.0,1.0,291.0,594.0,1.0,1,435.0,1
1010,1010,-0.16462199527184362,-0.2,0.0,1.0,412.0,669.0,0.0,1,499.0,0
1011,1011,-0.7773777928675388,-0.8,0.0,1.0,422.0,689.0,1.0,0,319.0,1
1012,1012,-0.5387304226123599,-0.5,0.0,1.0,287.0,887.0,1.0,0,166.0,1
1013,1013,-0.4963135008589226,-0.5,0.0,1.0,436.0,982.0,1.0,0,322.0,1
1014,1014,-0.43715666684011395,-0.4,1.0,0.0,306.0,636.0,0.0,0,368.0,1
1015,1015,-0.069361709782649,-0.1,0.0,1.0,332.0,758.0,1.0,0,570.0,1
1016,1016,0.3088498171732631,0.3,0.0,0.0,455.0,547.0,0.0,1,788.0,1
1017,1017,-0.18630226581273535,-0.2,1.0,0.0,391.0,679.0,0.0,0,230.0,1
1018,1018,-0.2561288375606491,-0.3,0.0,1.0,323.0,769.0,0.0,1,198.0,0
1019,1019,-0.5599426692462243,-0.6,1.0,0.0,342.0,911.0,0.0,0,277.0,1
1020,1020,0.2952669047994053,0.3,1.0,1.0,280.0,504.0,1.0,1,696.0,1
1021,1021,0.17918885064687784,0.2,1.0,1.0,277.0,815.0,1.0,1,868.0,1
1022,1022,0.6378079146788816,0.6,1.0,1.0,421.0,883.0,1.0,1,196.0,1
1023,1023,-0.4881139816932358,-0.5,1.0,0.0,374.0,775.0,0.0,0,471.0,1
1024,1024,-0.5876599423935326,-0.6,0.0,1.0,388.0,782.0,1.0,0,130.0,1
1025,1025,-0.8801553228338947,-0.9,1.0,0.0,452.0,798.0,0.0,0,60.0,1
1026,1026,0.46132086688938456,0.5,0.0,0.0,330.0,623.0,0.0,1,157.0,1
1027,1027,-0.8521423790748358,-0.9,0.0,1.0,403.0,621.0,1.0,0,266.0,1
1028,1028,-0.8305976677640609,-0.8,0.0,1.0,322.0,882.0,1.0,0,246.0,1
1029,1029,0.16308789335766838,0.2,0.0,0.0,437.0,837.0,0.0,1,126.0,1
1030,1030,0.22612221502483687,0.2,0.0,0.0,271.0,649.0,0.0,1,330.0,1
1031,1031,-0.2044919660226986,-0.2,1.0,0.0,258.0,583.0,0.0,0,589.0,1
1032,1032,-0.07903613641029006,-0.1,1.0,0.0,335.0,918.0,1.0,1,557.0,0
1033,1033,-0.8602879411416653,-0.9,1.0,0.0,426.0,599.0,0.0,0,285.0,1
1034,1034,0.845881898805047,0.8,1.0,1.0,277.0,993.0,1.0,1,60.0,1
1035,1035,0.7503637663229329,0.8,1.0,1.0,392.0,504.0,1.0,1,834.0,1
1036,1036,0.5155566236985071,0.5,0.0,0.0,460.0,925.0,0.0,1,385.0,1
1037,1037,-0.8908334252133057,-0.9,0.0,1.0,376.0,850.0,1.0,0,414.0,1
1038,1038,-0.3121141741114728,-0.3,1.0,0.0,309.0,801.0,0.0,0,1030.0,1
1039,1039,0.21171121366076406,0.2,0.0,0.0,339.0,720.0,0.0,1,361.0,1
1040,1040,-0.6854118861574179,-0.7,0.0,1.0,321.0,621.0,1.0,0,228.0,1
1041,1041,-0.679063849096163,-0.7,0.0,1.0,378.0,593.0,1.0,0,169.0,1
1042,1042,0.8191036725087163,0.8,1.0,1.0,338.0,559.0,1.0,1,513.0,1
1043,1043,-0.6334580315120196,-0.6,0.0,1.0,422.0,982.0,1.0,0,746.0,1
1044,1044,-0.8735541037626395,-0.9,1.0,0.0,367.0,562.0,0.0,0,461.0,1
1045,1045,-0.2616929899157425,-0.3,1.0,0.0,359.0,977.0,0.0,0,134.0,1
1046,1046,0.6896845614711279,0.7,0.0,0.0,485.0,569.0,0.0,1,606.0,1
1047,1047,-0.8776828855419843,-0.9,1.0,0.0,422.0,679.0,0.0,0,379.0,1
1048,1048,-0.6244914046272214,-0.6,1.0,0.0,491.0,557.0,0.0,0,262.0,1
1049,1049,-0.8127347376011687,-0.8,1.0,0.0,250.0,756.0,0.0,0,214.0,1
1050,1050,0.14904496788974508,0.1,1.0,1.0,422.0,819.0,1.0,1,419.0,1
1051,1051,0.5025228022786893,0.5,0.0,0.0,418.0,915.0,1.0,0,127.0,0
1052,1052,-0.7246919250567808,-0.7,1.0,0.0,381.0,802.0,0.0,0,167.0,1
1053,1053,-0.7481654084449556,-0.7,0.0,1.0,409.0,721.0,1.0,0,290.0,1
1054,1054,0.14255602169431503,0.1,1.0,1.0,387.0,744.0,1.0,1,229.0,1
1055,1055,0.4311599176292854,0.4,1.0,1.0,312.0,706.0,1.0,1,892.0,1
1056,1056,-0.2863023853234361,-0.3,0.0,1.0,385.0,785.0,1.0,0,430.0,1
1057,1057,-0.2834155801843612,-0.3,0.0,1.0,313.0,618.0,1.0,0,209.0,1
1058,1058,0.11166071104576536,0.1,0.0,0.0,412.0,527.0,0.0,1,491.0,1
1059,1059,0.38287205310759675,0.4,0.0,0.0,357.0,634.0,0.0,1,449.0,1
1060,1060,-0.6362993787308904,-0.6,1.0,0.0,279.0,970.0,0.0,0,211.0,1
1061,1061,0.13066539364612717,0.1,0.0,0.0,283.0,635.0,0.0,1,272.0,1
1062,1062,0.625377710696636,0.6,0.0,0.0,462.0,669.0,0.0,1,339.0,1
1063,1063,0.1304040859707688,0.1,0.0,0.0,483.0,672.0,0.0,1,205.0,1
1064,1064,-0.47268013461274366,-0.5,0.0,1.0,365.0,907.0,1.0,0,418.0,1
1065,1065,0.1358549814593032,0.1,0.0,0.0,314.0,546.0,0.0,1,770.0,1
1066,1066,-0.7952915176854556,-0.8,1.0,0.0,491.0,975.0,0.0,0,104.0,1
1067,1067,-0.6542650286139531,-0.7,1.0,0.0,259.0,754.0,0.0,0,117.0,1
1068,1068,0.7909397184915138,0.8,1.0,1.0,291.0,761.0,1.0,1,128.0,1
1069,1069,-0.6125974921244071,-0.6,1.0,0.0,284.0,519.0,0.0,0,327.0,1
1070,1070,-0.4778359326247835,-0.5,0.0,1.0,482.0,512.0,1.0,0,426.0,1
1071,1071,0.14555132680168492,0.1,1.0,1.0,491.0,908.0,1.0,1,1091.0,1
1072,1072,-0.8161551748145334,-0.8,1.0,0.0,348.0,836.0,0.0,0,16.0,1
1073,1073,0.03779268005191161,0.0,0.0,0.0,252.0,768.0,0.0,1,520.0,1
1074,1074,-0.5642788957698843,-0.6,1.0,0.0,316.0,702.0,0.0,0,162.0,1
1075,1075,-0.5743098959203559,-0.6,1.0,0.0,388.0,633.0,0.0,0,499.0,1
1076,1076,0.3820836908487696,0.4,1.0,1.0,357.0,972.0,1.0,1,501.0,1
1077,1077,-0.7065189602477238,-0.7,1.0,0.0,434.0,683.0,0.0,0,243.0,1
1078,1078,-0.6582123648547951,-0.7,0.0,1.0,412.0,749.0,1.0,0,399.0,1
1079,1079,-0.2457418235496499,-0.2,0.0,1.0,262.0,769.0,1.0,0,1059.0,1
1080,1080,0.1970714957911467,0.2,0.0,0.0,426.0,650.0,0.0,1,384.0,1
1081,1081,-0.2007977700233632,-0.2,0.0,1.0,297.0,901.0,1.0,0,362.0,1
1082,1082,-0.22659022296814202,-0.2,0.0,1.0,433.0,719.0,1.0,0,308.0,1
1083,1083,0.4111896289569622,0.4,1.0,1.0,296.0,673.0,1.0,1,311.0,1
1084,1084,0.10793425607409224,0.1,1.0,1.0,446.0,867.0,1.0,1,837.0,1
1085,1085,0.40079331295518805,0.4,0.0,0.0,447.0,914.0,0.0,1,789.0,1
1086,1086,0.4547615766260068,0.5,1.0,1.0,444.0,539.0,1.0,1,317.0,1
1087,1087,0.13768328049815193,0.1,1.0,1.0,273.0,980.0,1.0,1,107.0,1
1088,1088,-0.21802181590598702,-0.2,0.0,1.0,393.0,993.0,1.0,0,284.0,1
1089,1089,-0.8575422552994882,-0.9,1.0,0.0,388.0,961.0,1.0,1,-119.0,0
1090,1090,0.3925347170755059,0.4,0.0,0.0,360.0,663.0,0.0,1,377.0,1
1091,1091,-0.4159719640064466,-0.4,0.0,1.0,272.0,678.0,1.0,0,390.0,1
1092,1092,-0.8875918792967629,-0.9,0.0,1.0,253.0,552.0,1.0,0,715.0,1
1093,1093,0.40702140053896596,0.4,0.0,0.0,310.0,599.0,0.0,1,331.0,1
1094,1094,0.1413934524106345,0.1,1.0,1.0,369.0,543.0,1.0,1,1098.0,1
1095,1095,0.05804350737494801,0.1,0.0,0.0,465.0,739.0,1.0,0,726.0,0
1096,1096,-0.6902682066028456,-0.7,0.0,1.0,314.0,572.0,1.0,0,854.0,1
1097,1097,0.57805702155574,0.6,0.0,0.0,348.0,720.0,0.0,1,192.0,1
1098,1098,0.8515858673330671,0.9,0.0,0.0,430.0,837.0,0.0,1,273.0,1
1099,1099,0.5369694347341339,0.5,1.0,1.0,296.0,607.0,1.0,1,687.0,1
1100,1100,-0.7072238084474237,-0.7,0.0,1.0,437.0,900.0,1.0,0,263.0,1
1101,1101,0.4039293637944473,0.4,0.0,0.0,335.0,507.0,0.0,1,788.0,1
1102,1102,-0.43954384622922293,-0.4,1.0,0.0,406.0,675.0,0.0,0,179.0,1
1103,1103,-0.07687628017490566,-0.1,0.0,1.0,279.0,844.0,1.0,0,447.0,1
1104,1104,0.21360749533013845,0.2,1.0,1.0,301.0,645.0,1.0,1,364.0,1
1105,1105,-0.5963022322474922,-0.6,1.0,0.0,298.0,685.0,0.0,0,367.0,1
1106,1106,0.08236607349288105,0.1,0.0,0.0,438.0,800.0,1.0,0,272.0,0
1107,1107,0.8251956071081324,0.8,0.0,0.0,479.0,958.0,0.0,1,153.0,1
1108,1108,0.859981598503304,0.9,1.0,1.0,343.0,872.0,1.0,1,145.0,1
1109,1109,0.7704003359595509,0.8,0.0,0.0,358.0,671.0,0.0,1,291.0,1
1110,1110,0.3571457346294816,0.4,0.0,0.0,474.0,745.0,0.0,1,601.0,1
1111,1111,-0.5648806231905625,-0.6,0.0,1.0,379.0,917.0,1.0,0,94.0,1
1112,1112,-0.05660604468314834,-0.1,1.0,0.0,255.0,864.0,1.0,1,821.0,0
1113,1113,-0.2524096940233693,-0.3,1.0,0.0,369.0,572.0,0.0,0,269.0,1
1114,1114,0.12821383861855173,0.1,0.0,0.0,424.0,924.0,0.0,1,382.0,1
1115,1115,-0.8139239466890534,-0.8,1.0,0.0,365.0,983.0,0.0,0,-48.0,1
1116,1116,0.2581017800429707,0.3,0.0,0.0,261.0,722.0,0.0,1,327.0,1
1117,1117,-0.7218516505737385,-0.7,0.0,1.0,421.0,549.0,1.0,0,390.0,1
1118,1118,0.3471148693525813,0.3,0.0,0.0,347.0,578.0,0.0,1,555.0,1
1119,1119,0.5242432144095187,0.5,1.0,1.0,472.0,507.0,1.0,1,491.0,1
1120,1120,-0.5880321357138332,-0.6,0.0,1.0,411.0,928.0,1.0,0,151.0,1
1121,1121,0.5884433951666149,0.6,1.0,1.0,324.0,553.0,1.0,1,563.0,1
1122,1122,0.15165561197730193,0.2,1.0,1.0,273.0,662.0,0.0,0,375.0,0
1123,1123,-0.73051893658788,-0.7,0.0,1.0,311.0,827.0,1.0,0,352.0,1
1124,1124,0.6130931848568145,0.6,0.0,0.0,400.0,828.0,0.0,1,382.0,1
1125,1125,0.7308296725910745,0.7,1.0,1.0,306.0,930.0,1.0,1,194.0,1
1126,1126,-0.3336783477067118,-0.3,0.0,1.0,289.0,516.0,1.0,0,695.0,1
1127,1127,0.5476310074071301,0.5,1.0,1.0,378.0,601.0,1.0,1,511.0,1
1128,1128,-0.013795148086301667,-0.0,1.0,0.0,416.0,547.0,1.0,1,977.0,0
1129,1129,-0.8604530552801598,-0.9,1.0,0.0,471.0,586.0,0.0,0,203.0,1
1130,1130,-0.5281742650782645,-0.5,1.0,0.0,271.0,926.0,0.0,0,733.0,1
1131,1131,-0.31313657718177845,-0.3,0.0,1.0,357.0,980.0,1.0,0,153.0,1
1132,1132,0.8599786559303763,0.9,0.0,0.0,293.0,974.0,0.0,1,93.0,1
1133,1133,-0.5033094290714427,-0.5,0.0,1.0,352.0,975.0,1.0,0,363.0,1
1134,1134,-0.20880712084606656,-0.2,0.0,1.0,469.0,837.0,0.0,1,994.0,0
1135,1135,-0.05596721592651477,-0.1,1.0,0.0,385.0,544.0,0.0,0,1111.0,1
1136,1136,0.6636639547269637,0.7,1.0,1.0,267.0,604.0,1.0,1,279.0,1
1137,1137,0.5480918038171233,0.5,0.0,0.0,434.0,785.0,0.0,1,261.0,1
1138,1138,-0.6276056661548735,-0.6,1.0,0.0,475.0,784.0,0.0,0,351.0,1
1139,1139,0.549439864132249,0.5,0.0,0.0,359.0,600.0,0.0,1,371.0,1
1140,1140,-0.3740290587669206,-0.4,1.0,0.0,332.0,705.0,0.0,0,173.0,1
1141,1141,-0.1440586749493663,-0.1,0.0,1.0,297.0,914.0,1.0,0,399.0,1
1142,1142,-0.10066013935740481,-0.1,0.0,1.0,275.0,821.0,1.0,0,724.0,1
1143,1143,0.1389433025705341,0.1,1.0,1.0,408.0,945.0,1.0,1,897.0,1
1144,1144,0.4366168404591432,0.4,0.0,0.0,409.0,799.0,0.0,1,392.0,1
1145,1145,0.07508202160906985,0.1,0.0,0.0,260.0,637.0,0.0,1,883.0,1
1146,1146,-0.6865327689960591,-0.7,1.0,0.0,284.0,843.0,0.0,0,293.0,1
1147,1147,0.3658354759025405,0.4,0.0,0.0,468.0,973.0,0.0,1,289.0,1
1148,1148,-0.6515034790565501,-0.7,1.0,0.0,305.0,532.0,0.0,0,473.0,1
1149,1149,-0.3628050392766292,-0.4,0.0,1.0,452.0,917.0,1.0,0,-49.0,1
1150,1150,-0.5238776875105187,-0.5,0.0,1.0,448.0,564.0,1.0,0,458.0,1
1151,1151,-0.0718596984321005,-0.1,1.0,0.0,391.0,643.0,1.0,1,496.0,0
1152,1152,-0.7991719615995957,-0.8,0.0,1.0,394.0,806.0,1.0,0,60.0,1
1153,1153,0.8176889871857892,0.8,0.0,0.0,322.0,722.0,0.0,1,306.0,1
1154,1154,-0.11418776879326253,-0.1,0.0,1.0,294.0,807.0,1.0,0,449.0,1
1155,1155,0.6996798785212553,0.7,0.0,0.0,281.0,802.0,0.0,1,337.0,1
1156,1156,0.5353858791793903,0.5,1.0,1.0,468.0,604.0,1.0,1,388.0,1
1157,1157,0.41053106250394855,0.4,1.0,1.0,287.0,681.0,1.0,1,322.0,1
1158,1158,-0.12606311723300423,-0.1,1.0,0.0,266.0,505.0,0.0,0,1419.0,1
1159,1159,0.24042928370996985,0.2,0.0,0.0,417.0,607.0,0.0,1,556.0,1
1160,1160,0.3793140761022681,0.4,1.0,1.0,409.0,993.0,0.0,0,-52.0,0
1161,1161,-0.8736454698915843,-0.9,1.0,0.0,421.0,525.0,0.0,0,434.0,1
1162,1162,-0.6607386985971616,-0.7,1.0,0.0,328.0,668.0,0.0,0,304.0,1
1163,1163,-0.294173710730001,-0.3,0.0,1.0,409.0,596.0,1.0,0,215.0,1
1164,1164,0.6284973262263488,0.6,1.0,1.0,343.0,601.0,1.0,1,346.0,1
1165,1165,0.4823972155375541,0.5,0.0,0.0,265.0,823.0,0.0,1,502.0,1
1166,1166,0.09334055351666193,0.1,1.0,1.0,313.0,874.0,1.0,1,623.0,1
1167,1167,-0.059418598544649814,-0.1,0.0,1.0,436.0,843.0,1.0,0,541.0,1
1168,1168,-0.24166813677861754,-0.2,1.0,0.0,399.0,560.0,0.0,0,511.0,1
1169,1169,-0.8868870892796741,-0.9,0.0,1.0,480.0,822.0,1.0,0,308.0,1
1170,1170,0.862400957391617,0.9,0.0,0.0,368.0,671.0,0.0,1,181.0,1
1171,1171,0.029246365848190847,0.0,1.0,1.0,387.0,939.0,0.0,0,-76.0,0
1172,1172,-0.19884010594517953,-0.2,1.0,0.0,363.0,577.0,0.0,0,540.0,1
1173,1173,-0.3763658960775572,-0.4,1.0,0.0,484.0,903.0,0.0,0,113.0,1
1174,1174,0.8338145703628385,0.8,1.0,1.0,450.0,569.0,1.0,1,271.0,1
1175,1175,0.8211712647395261,0.8,1.0,1.0,364.0,518.0,1.0,1,448.0,1
1176,1176,0.7477603742782085,0.7,1.0,1.0,400.0,864.0,1.0,1,216.0,1
1177,1177,-0.33586973885359706,-0.3,1.0,0.0,472.0,939.0,0.0,0,539.0,1
1178,1178,0.7650266464452057,0.8,0.0,0.0,284.0,956.0,0.0,1,220.0,1
1179,1179,-0.8972917173417982,-0.9,0.0,1.0,463.0,521.0,1.0,0,636.0,1
1180,1180,-0.006421501493907522,-0.0,1.0,0.0,454.0,691.0,1.0,1,1315.0,0
1181,1181,0.4624263342190912,0.5,1.0,1.0,476.0,542.0,1.0,1,722.0,1
1182,1182,0.667267468953337,0.7,0.0,0.0,390.0,928.0,0.0,1,42.0,1
1183,1183,-0.7805612001582811,-0.8,1.0,0.0,343.0,885.0,0.0,0,72.0,1
1184,1184,-0.7638322234834878,-0.8,0.0,1.0,375.0,648.0,1.0,0,627.0,1
1185,1185,-0.38448754501951576,-0.4,1.0,0.0,393.0,701.0,1.0,1,96.0,0
1186,1186,0.8353275189929018,0.8,0.0,0.0,443.0,645.0,0.0,1,302.0,1
1187,1187,0.6082337932927165,0.6,0.0,0.0,376.0,592.0,0.0,1,342.0,1
1188,1188,0.7250434089590198,0.7,0.0,0.0,439.0,501.0,0.0,1,480.0,1
1189,1189,-0.3048921396052444,-0.3,1.0,0.0,284.0,814.0,0.0,0,522.0,1
1190,1190,-0.11818437970607842,-0.1,1.0,0.0,348.0,769.0,0.0,0,603.0,1
1191,1191,-0.5983966483611227,-0.6,0.0,1.0,363.0,923.0,1.0,0,114.0,1
1192,1192,-0.2872757184336663,-0.3,0.0,1.0,471.0,510.0,1.0,0,719.0,1
1193,1193,-0.4189047898793049,-0.4,0.0,1.0,445.0,536.0,1.0,0,1169.0,1
1194,1194,0.19983703906720296,0.2,0.0,0.0,265.0,916.0,0.0,1,209.0,1
1195,1195,-0.32255371191871063,-0.3,0.0,1.0,362.0,901.0,1.0,0,177.0,1
1196,1196,0.7977342843779581,0.8,1.0,1.0,472.0,546.0,1.0,1,382.0,1
1197,1197,-0.5262930246112453,-0.5,1.0,0.0,414.0,968.0,0.0,0,248.0,1
1198,1198,0.22231356736560215,0.2,0.0,0.0,314.0,538.0,0.0,1,798.0,1
1199,1199,0.43583513968360676,0.4,0.0,0.0,481.0,997.0,0.0,1,322.0,1
1200,1200,0.8296597221534899,0.8,1.0,1.0,396.0,885.0,1.0,1,89.0,1
1201,1201,-0.3510976647258234,-0.4,0.0,1.0,399.0,735.0,1.0,0,546.0,1
1202,1202,-0.5095920261560276,-0.5,0.0,1.0,326.0,995.0,1.0,0,329.0,1
1203,1203,-0.5388942034696313,-0.5,0.0,1.0,340.0,929.0,1.0,0,91.0,1
1204,1204,0.24613201024058207,0.2,0.0,0.0,297.0,519.0,0.0,1,274.0,1
1205,1205,0.41525519211002704,0.4,0.0,0.0,374.0,607.0,0.0,1,389.0,1
1206,1206,-0.6756879438348414,-0.7,0.0,1.0,425.0,570.0,1.0,0,165.0,1
1207,1207,0.8144292055244483,0.8,1.0,1.0,299.0,974.0,1.0,1,67.0,1
1208,1208,0.12944317820911955,0.1,0.0,0.0,450.0,722.0,0.0,1,648.0,1
1209,1209,0.8791648854452384,0.9,1.0,1.0,275.0,853.0,1.0,1,252.0,1
1210,1210,-0.4835825787916522,-0.5,0.0,1.0,399.0,656.0,1.0,0,245.0,1
1211,1211,-0.6055102727497816,-0.6,1.0,0.0,331.0,988.0,0.0,0,-59.0,1
1212,1212,-0.11173797239943173,-0.1,1.0,0.0,306.0,578.0,0.0,0,906.0,1
1213,1213,0.5632973293703413,0.6,1.0,1.0,442.0,535.0,1.0,1,313.0,1
1214,1214,-0.8568754818866836,-0.9,0.0,1.0,453.0,651.0,1.0,0,326.0,1
1215,1215,-0.2220000164510143,-0.2,1.0,0.0,366.0,991.0,1.0,1,653.0,0
1216,1216,0.5436117119349458,0.5,1.0,1.0,440.0,616.0,1.0,1,274.0,1
1217,1217,-0.12902031896014998,-0.1,0.0,1.0,307.0,820.0,1.0,0,513.0,1
1218,1218,-0.7174312923113577,-0.7,1.0,0.0,402.0,884.0,0.0,0,474.0,1
1219,1219,0.7851068971542036,0.8,0.0,0.0,252.0,774.0,0.0,1,314.0,1
1220,1220,0.5967301891085034,0.6,1.0,1.0,484.0,518.0,1.0,1,278.0,1
1221,1221,-0.14599499514599357,-0.1,0.0,1.0,279.0,962.0,0.0,1,369.0,0
1222,1222,0.12654400458557358,0.1,1.0,1.0,398.0,877.0,1.0,1,1025.0,1
1223,1223,0.024249610133582067,0.0,0.0,0.0,484.0,525.0,1.0,0,2061.0,0
1224,1224,0.8673860926678406,0.9,1.0,1.0,378.0,941.0,1.0,1,151.0,1
1225,1225,0.5683050481724939,0.6,1.0,1.0,423.0,571.0,1.0,1,456.0,1
1226,1226,0.08341922316931338,0.1,0.0,0.0,447.0,532.0,0.0,1,1001.0,1
1227,1227,0.8134690647340238,0.8,1.0,1.0,319.0,591.0,1.0,1,390.0,1
1228,1228,-0.6783678203360751,-0.7,1.0,0.0,323.0,589.0,0.0,0,368.0,1
1229,1229,-0.1567281766874714,-0.2,1.0,0.0,339.0,877.0,0.0,0,454.0,1
1230,1230,-0.09045981730193942,-0.1,1.0,0.0,425.0,794.0,0.0,0,351.0,1
1231,1231,0.24937913788743316,0.2,0.0,0.0,491.0,951.0,1.0,0,58.0,0
1232,1232,0.3908740462251933,0.4,0.0,0.0,369.0,867.0,0.0,1,304.0,1
1233,1233,-0.181671104384433,-0.2,1.0,0.0,289.0,584.0,0.0,0,447.0,1
1234,1234,0.7982021202986397,0.8,1.0,1.0,440.0,750.0,1.0,1,240.0,1
1235,1235,0.8983501290295896,0.9,1.0,1.0,465.0,826.0,1.0,1,319.0,1
1236,1236,0.02355856885589802,0.0,0.0,0.0,307.0,722.0,0.0,1,511.0,1
1237,1237,0.7358186653764377,0.7,1.0,1.0,288.0,697.0,1.0,1,285.0,1
1238,1238,-0.35626998410269184,-0.4,1.0,0.0,342.0,655.0,0.0,0,983.0,1
1239,1239,-0.22278626047143668,-0.2,0.0,1.0,400.0,665.0,1.0,0,415.0,1
1240,1240,0.7058102697067733,0.7,1.0,1.0,472.0,963.0,1.0,1,-65.0,1
1241,1241,0.5768077113811202,0.6,0.0,0.0,352.0,924.0,0.0,1,304.0,1
1242,1242,0.5872478675977116,0.6,1.0,1.0,434.0,854.0,1.0,1,282.0,1
1243,1243,-0.40414441937905704,-0.4,0.0,1.0,405.0,678.0,1.0,0,497.0,1
1244,1244,-0.7049733222851298,-0.7,0.0,1.0,310.0,940.0,1.0,0,110.0,1
1245,1245,0.06440261125219049,0.1,1.0,1.0,423.0,658.0,1.0,1,1189.0,1
1246,1246,0.7272804146619826,0.7,1.0,1.0,483.0,509.0,1.0,1,328.0,1
1247,1247,-0.02730233438752183,-0.0,0.0,1.0,287.0,739.0,1.0,0,1094.0,1
1248,1248,-0.3646568355277542,-0.4,0.0,1.0,364.0,720.0,1.0,0,456.0,1
1249,1249,0.275077204968322,0.3,0.0,0.0,281.0,971.0,0.0,1,528.0,1
1250,1250,-0.353247154624979,-0.4,1.0,0.0,351.0,520.0,0.0,0,489.0,1
1251,1251,0.3727060200582909,0.4,1.0,1.0,259.0,739.0,1.0,1,132.0,1
1252,1252,-0.45196796475701556,-0.5,0.0,1.0,378.0,581.0,1.0,0,791.0,1
1253,1253,-0.01976181235479524,-0.0,1.0,0.0,400.0,751.0,1.0,1,369.0,0
1254,1254,0.6076131892667306,0.6,1.0,1.0,381.0,997.0,1.0,1,112.0,1
1255,1255,-0.37643514273263334,-0.4,1.0,0.0,419.0,760.0,0.0,0,941.0,1
1256,1256,0.5568864488449793,0.6,1.0,1.0,480.0,638.0,1.0,1,342.0,1
1257,1257,-0.10650133900462766,-0.1,1.0,0.0,415.0,530.0,1.0,1,835.0,0
1258,1258,0.47271297730702433,0.5,0.0,0.0,471.0,664.0,0.0,1,685.0,1
1259,1259,-0.8496155825170223,-0.8,0.0,1.0,259.0,759.0,1.0,0,172.0,1
1260,1260,0.6406869270612717,0.6,0.0,0.0,486.0,884.0,0.0,1,710.0,1
1261,1261,-0.7640857838626339,-0.8,1.0,0.0,459.0,910.0,0.0,0,161.0,1
1262,1262,-0.34438418049210795,-0.3,1.0,0.0,366.0,832.0,0.0,0,-48.0,1
1263,1263,0.8723274257467976,0.9,0.0,0.0,465.0,899.0,0.0,1,246.0,1
1264,1264,0.3425876929674362,0.3,1.0,1.0,251.0,974.0,1.0,1,305.0,1
1265,1265,0.13031201991538144,0.1,1.0,1.0,301.0,587.0,1.0,1,772.0,1
1266,1266,0.5271466276619569,0.5,1.0,1.0,371.0,733.0,1.0,1,416.0,1
1267,1267,-0.07514829565399617,-0.1,0.0,1.0,335.0,657.0,1.0,0,608.0,1
1268,1268,0.7574945317333971,0.8,1.0,1.0,436.0,861.0,1.0,1,253.0,1
1269,1269,-0.2543495537738448,-0.3,1.0,0.0,312.0,521.0,0.0,0,527.0,1
1270,1270,0.6243041508101567,0.6,1.0,1.0,315.0,997.0,1.0,1,48.0,1
1271,1271,-0.05228880068978248,-0.1,0.0,1.0,310.0,862.0,1.0,0,868.0,1
1272,1272,0.799064250839152,0.8,1.0,1.0,314.0,606.0,1.0,1,470.0,1
1273,1273,-0.6772437550234157,-0.7,1.0,0.0,320.0,852.0,0.0,0,268.0,1
1274,1274,-0.0778688456378277,-0.1,1.0,0.0,338.0,561.0,1.0,1,501.0,0
1275,1275,-0.30468352643355556,-0.3,1.0,0.0,483.0,502.0,0.0,0,465.0,1
1276,1276,-0.3024856019451857,-0.3,0.0,1.0,402.0,579.0,1.0,0,619.0,1
1277,1277,0.5544107540088411,0.6,1.0,1.0,287.0,934.0,1.0,1,189.0,1
1278,1278,0.2583288086529284,0.3,0.0,0.0,328.0,902.0,0.0,1,250.0,1
1279,1279,-0.03916263256869479,-0.0,1.0,0.0,484.0,982.0,0.0,0,1354.0,1
1280,1280,-0.8491653501698878,-0.8,0.0,1.0,386.0,576.0,1.0,0,238.0,1
1281,1281,0.24484835847472486,0.2,1.0,1.0,313.0,663.0,1.0,1,724.0,1
1282,1282,0.692701498666152,0.7,1.0,1.0,284.0,902.0,1.0,1,194.0,1
1283,1283,-0.6641836154683544,-0.7,1.0,0.0,416.0,791.0,0.0,0,163.0,1
1284,1284,0.6606907290611986,0.7,1.0,1.0,488.0,994.0,1.0,1,188.0,1
1285,1285,0.8750314142022263,0.9,1.0,1.0,344.0,827.0,1.0,1,159.0,1
1286,1286,-0.26017898087493774,-0.3,1.0,0.0,422.0,674.0,0.0,0,304.0,1
1287,1287,0.060858229198593516,0.1,1.0,1.0,366.0,951.0,0.0,0,363.0,0
1288,1288,0.5558214750106604,0.6,1.0,1.0,275.0,879.0,1.0,1,246.0,1
1289,1289,0.24549550328833647,0.2,1.0,1.0,391.0,886.0,1.0,1,303.0,1
1290,1290,0.5171466955219536,0.5,1.0,1.0,475.0,730.0,1.0,1,155.0,1
1291,1291,0.44960916603980594,0.4,0.0,0.0,263.0,773.0,0.0,1,584.0,1
1292,1292,-0.4715409812043288,-0.5,1.0,0.0,285.0,575.0,0.0,0,490.0,1
1293,1293,0.765883332117138,0.8,0.0,0.0,395.0,841.0,0.0,1,134.0,1
1294,1294,0.7882925096211694,0.8,1.0,1.0,423.0,950.0,1.0,1,47.0,1
1295,1295,0.49452854445885286,0.5,1.0,1.0,269.0,500.0,1.0,1,641.0,1
1296,1296,-0.23527734237284048,-0.2,1.0,0.0,349.0,849.0,0.0,0,542.0,1
1297,1297,0.8468188732178384,0.8,1.0,1.0,493.0,658.0,1.0,1,359.0,1
1298,1298,0.2169354593511127,0.2,1.0,1.0,412.0,508.0,1.0,1,500.0,1
1299,1299,-0.4778011584459201,-0.5,0.0,1.0,457.0,748.0,1.0,0,285.0,1
1300,1300,-0.46505505972101724,-0.5,0.0,1.0,497.0,585.0,1.0,0,478.0,1
1301,1301,0.02407841906632313,0.0,1.0,1.0,413.0,750.0,1.0,1,357.0,1
1302,1302,-0.11553982492010417,-0.1,0.0,1.0,267.0,752.0,1.0,0,561.0,1
1303,1303,0.4201194467167234,0.4,0.0,0.0,475.0,958.0,0.0,1,537.0,1
1304,1304,-0.3807688235722353,-0.4,1.0,0.0,370.0,742.0,0.0,0,228.0,1
1305,1305,-0.04484097434617551,-0.0,0.0,1.0,483.0,924.0,1.0,0,203.0,1
1306,1306,-0.2869254637265606,-0.3,1.0,0.0,466.0,990.0,0.0,0,404.0,1
1307,1307,-0.5576435946060142,-0.6,0.0,1.0,328.0,945.0,1.0,0,77.0,1
1308,1308,0.04035941847884594,0.0,0.0,0.0,256.0,691.0,0.0,1,983.0,1
1309,1309,-0.23078868733035574,-0.2,1.0,0.0,387.0,801.0,0.0,0,262.0,1
1310,1310,0.016951161123997083,0.0,0.0,0.0,320.0,562.0,1.0,0,1268.0,0
1311,1311,0.47046985157376187,0.5,1.0,1.0,331.0,856.0,1.0,1,243.0,1
1312,1312,-0.7098789275781384,-0.7,1.0,0.0,336.0,742.0,0.0,0,192.0,1
1313,1313,0.4112764000367205,0.4,0.0,0.0,385.0,766.0,0.0,1,319.0,1
1314,1314,0.856448297090202,0.9,0.0,0.0,490.0,705.0,0.0,1,325.0,1
1315,1315,-0.6545363730495365,-0.7,1.0,0.0,452.0,855.0,0.0,0,193.0,1
1316,1316,0.2528634720127835,0.3,0.0,0.0,356.0,718.0,0.0,1,726.0,1
1317,1317,-0.7607331536237261,-0.8,1.0,0.0,456.0,718.0,0.0,0,386.0,1
1318,1318,0.4449907305397903,0.4,1.0,1.0,349.0,665.0,1.0,1,366.0,1
1319,1319,0.48573770317859444,0.5,1.0,1.0,452.0,658.0,1.0,1,330.0,1
1320,1320,0.6520340481869681,0.7,1.0,1.0,380.0,815.0,1.0,1,585.0,1
1321,1321,0.03253359953862023,0.0,0.0,0.0,432.0,881.0,1.0,0,617.0,0
1322,1322,-0.4279718858010523,-0.4,1.0,0.0,495.0,579.0,0.0,0,376.0,1
1323,1323,0.10297967338309777,0.1,0.0,0.0,399.0,532.0,0.0,1,1529.0,1
1324,1324,0.6789897012161553,0.7,1.0,1.0,398.0,905.0,1.0,1,187.0,1
1325,1325,0.4778179682614835,0.5,1.0,1.0,479.0,657.0,1.0,1,304.0,1
1326,1326,-0.7242752868102478,-0.7,0.0,1.0,482.0,530.0,1.0,0,468.0,1
1327,1327,0.05576110882141583,0.1,0.0,0.0,472.0,969.0,1.0,0,549.0,0
1328,1328,-0.8198930000058418,-0.8,1.0,0.0,442.0,689.0,0.0,0,319.0,1
1329,1329,-0.17843403086039689,-0.2,1.0,0.0,447.0,888.0,0.0,0,1115.0,1
1330,1330,-0.13496947750525123,-0.1,0.0,1.0,432.0,722.0,1.0,0,496.0,1
1331,1331,0.14805695349924897,0.1,0.0,0.0,368.0,635.0,0.0,1,957.0,1
1332,1332,-0.06861800885543423,-0.1,0.0,1.0,407.0,552.0,1.0,0,851.0,1
1333,1333,0.4988677213135665,0.5,0.0,0.0,455.0,990.0,0.0,1,255.0,1
1334,1334,-0.7589544600866021,-0.8,0.0,1.0,289.0,759.0,1.0,0,452.0,1
1335,1335,-0.5888463373404164,-0.6,0.0,1.0,297.0,886.0,1.0,0,77.0,1
1336,1336,-0.5247736308183755,-0.5,1.0,0.0,415.0,932.0,0.0,0,243.0,1
1337,1337,0.8028025916023444,0.8,1.0,1.0,379.0,934.0,1.0,1,187.0,1
1338,1338,-0.2277275526501109,-0.2,1.0,0.0,361.0,897.0,0.0,0,472.0,1
1339,1339,-0.6160545078839661,-0.6,1.0,0.0,349.0,858.0,0.0,0,183.0,1
1340,1340,0.012624286049731426,0.0,0.0,0.0,421.0,869.0,1.0,0,980.0,0
1341,1341,0.08842211923740884,0.1,0.0,0.0,309.0,637.0,0.0,1,794.0,1
1342,1342,0.7682952923594274,0.8,0.0,0.0,254.0,507.0,0.0,1,549.0,1
1343,1343,-0.2805939055388035,-0.3,0.0,1.0,362.0,947.0,1.0,0,351.0,1
1344,1344,0.8094181494832035,0.8,0.0,0.0,420.0,957.0,0.0,1,173.0,1
1345,1345,-0.7087110513291196,-0.7,0.0,1.0,485.0,915.0,1.0,0,240.0,1
1346,1346,0.4033542927716648,0.4,0.0,0.0,309.0,946.0,0.0,1,1215.0,1
1347,1347,-0.5266521105906696,-0.5,1.0,0.0,307.0,910.0,0.0,0,253.0,1
1348,1348,0.21079486664531866,0.2,1.0,1.0,462.0,502.0,1.0,1,736.0,1
1349,1349,-0.3890144833227318,-0.4,0.0,1.0,402.0,862.0,1.0,0,256.0,1
1350,1350,0.8772302355568194,0.9,1.0,1.0,472.0,678.0,1.0,1,320.0,1
1351,1351,0.07613759216067928,0.1,1.0,1.0,356.0,593.0,1.0,1,681.0,1
1352,1352,0.5360582179124235,0.5,0.0,0.0,460.0,518.0,0.0,1,452.0,1
1353,1353,-0.8581996718636741,-0.9,0.0,1.0,497.0,527.0,1.0,0,496.0,1
1354,1354,-0.5097758451910381,-0.5,1.0,0.0,350.0,863.0,0.0,0,187.0,1
1355,1355,0.16032181572044213,0.2,1.0,1.0,293.0,695.0,1.0,1,362.0,1
1356,1356,0.6043745272230642,0.6,0.0,0.0,356.0,693.0,0.0,1,171.0,1
1357,1357,-0.7398312587649164,-0.7,1.0,0.0,375.0,813.0,0.0,0,212.0,1
1358,1358,0.03235181850263158,0.0,0.0,0.0,301.0,914.0,0.0,1,615.0,1
1359,1359,-0.2713062770825241,-0.3,0.0,1.0,442.0,920.0,1.0,0,468.0,1
1360,1360,0.5844488598567891,0.6,0.0,0.0,478.0,731.0,0.0,1,231.0,1
1361,1361,-0.672565984265755,-0.7,1.0,0.0,380.0,777.0,0.0,0,213.0,1
1362,1362,-0.5787105188624073,-0.6,1.0,0.0,349.0,643.0,0.0,0,368.0,1
1363,1363,-0.5680923522469048,-0.6,0.0,1.0,474.0,586.0,1.0,0,630.0,1
1364,1364,0.21452260270920076,0.2,0.0,0.0,328.0,695.0,0.0,1,477.0,1
1365,1365,0.1756779541933592,0.2,0.0,0.0,411.0,651.0,0.0,1,408.0,1
1366,1366,-0.3488598670765396,-0.3,0.0,1.0,366.0,837.0,1.0,0,197.0,1
1367,1367,-0.6934538438096979,-0.7,1.0,0.0,285.0,622.0,0.0,0,293.0,1
1368,1368,-0.27438529779850906,-0.3,1.0,0.0,292.0,687.0,0.0,0,511.0,1
1369,1369,-0.8377528593782425,-0.8,1.0,0.0,435.0,969.0,0.0,0,156.0,1
1370,1370,0.7876014199751699,0.8,0.0,0.0,410.0,597.0,0.0,1,403.0,1
1371,1371,0.09068926711197389,0.1,0.0,0.0,336.0,674.0,1.0,0,610.0,0
1372,1372,0.853038395779465,0.9,1.0,1.0,474.0,597.0,1.0,1,309.0,1
1373,1373,-0.4186042093394837,-0.4,1.0,0.0,256.0,829.0,0.0,0,705.0,1
1374,1374,-0.7208997367214733,-0.7,0.0,1.0,319.0,843.0,1.0,0,178.0,1
1375,1375,-0.7346048941731081,-0.7,0.0,1.0,388.0,886.0,1.0,0,46.0,1
1376,1376,-0.619508425425784,-0.6,0.0,1.0,495.0,810.0,1.0,0,95.0,1
1377,1377,-0.474252190392512,-0.5,1.0,0.0,335.0,515.0,0.0,0,400.0,1
1378,1378,-0.29973303697197684,-0.3,1.0,0.0,496.0,773.0,0.0,0,321.0,1
1379,1379,0.11232427000043577,0.1,0.0,0.0,265.0,635.0,0.0,1,920.0,1
1380,1380,-0.4119065668439904,-0.4,1.0,0.0,422.0,866.0,0.0,0,322.0,1
1381,1381,0.30216727128671217,0.3,1.0,1.0,282.0,685.0,1.0,1,233.0,1
1382,1382,-0.5449845121456567,-0.5,0.0,1.0,319.0,885.0,1.0,0,136.0,1
1383,1383,-0.14330859610886604,-0.1,1.0,0.0,396.0,800.0,1.0,1,744.0,0
1384,1384,-0.1593412379451189,-0.2,0.0,1.0,302.0,925.0,1.0,0,83.0,1
1385,1385,-0.32633207316613433,-0.3,0.0,1.0,302.0,925.0,1.0,0,203.0,1
1386,1386,0.40634415649620126,0.4,0.0,0.0,279.0,901.0,0.0,1,150.0,1
1387,1387,-0.7252777948442479,-0.7,0.0,1.0,394.0,600.0,1.0,0,246.0,1
1388,1388,0.4652135468366526,0.5,1.0,1.0,256.0,871.0,1.0,1,243.0,1
1389,1389,0.11912867691041906,0.1,1.0,1.0,318.0,700.0,1.0,1,382.0,1
1390,1390,-0.5968904992837281,-0.6,1.0,0.0,344.0,592.0,0.0,0,604.0,1
1391,1391,0.18892672361600982,0.2,0.0,0.0,436.0,881.0,1.0,0,1063.0,0
1392,1392,0.5474431440552815,0.5,0.0,0.0,318.0,571.0,0.0,1,411.0,1
1393,1393,0.45743107319617404,0.5,1.0,1.0,425.0,637.0,1.0,1,198.0,1
1394,1394,-0.174008711591764,-0.2,0.0,1.0,366.0,713.0,1.0,0,941.0,1
1395,1395,-0.5959664697790552,-0.6,1.0,0.0,376.0,693.0,0.0,0,211.0,1
1396,1396,0.1747341512067634,0.2,1.0,1.0,258.0,531.0,1.0,1,561.0,1
1397,1397,-0.3474697360239979,-0.3,1.0,0.0,285.0,611.0,0.0,0,434.0,1
1398,1398,0.424480306945623,0.4,1.0,1.0,486.0,900.0,1.0,1,314.0,1
1399,1399,-0.7671088732232643,-0.8,1.0,0.0,276.0,514.0,0.0,0,350.0,1
1400,1400,0.5809558214496172,0.6,0.0,0.0,446.0,936.0,0.0,1,88.0,1
1401,1401,0.3620759581890881,0.4,0.0,0.0,309.0,786.0,0.0,1,1155.0,1
1402,1402,-0.6900046124965964,-0.7,1.0,0.0,426.0,630.0,0.0,0,414.0,1
1403,1403,0.07563279575796644,0.1,1.0,1.0,317.0,981.0,0.0,0,552.0,0
1404,1404,-0.09628546624448431,-0.1,0.0,1.0,273.0,848.0,1.0,0,9.0,1
1405,1405,0.8736594150108482,0.9,0.0,0.0,345.0,620.0,0.0,1,245.0,1
1406,1406,0.7339155207744644,0.7,0.0,0.0,386.0,861.0,0.0,1,373.0,1
1407,1407,-0.5781793446610413,-0.6,1.0,0.0,268.0,571.0,0.0,0,251.0,1
1408,1408,0.46832092037086015,0.5,0.0,0.0,310.0,548.0,0.0,1,322.0,1
1409,1409,-0.5052168971385564,-0.5,1.0,0.0,460.0,893.0,0.0,0,197.0,1
1410,1410,-0.22826576637382257,-0.2,0.0,1.0,275.0,575.0,1.0,0,400.0,1
1411,1411,0.7605575481332613,0.8,1.0,1.0,403.0,811.0,1.0,1,116.0,1
1412,1412,0.04140116572232866,0.0,1.0,1.0,353.0,862.0,1.0,1,1545.0,1
1413,1413,0.7304367704034652,0.7,0.0,0.0,396.0,860.0,0.0,1,244.0,1
1414,1414,0.792629822402965,0.8,0.0,0.0,340.0,988.0,0.0,1,142.0,1
1415,1415,-0.49527305768011015,-0.5,1.0,0.0,312.0,551.0,0.0,0,477.0,1
1416,1416,-0.42914148997619045,-0.4,1.0,0.0,433.0,929.0,0.0,0,138.0,1
1417,1417,0.49786994863645606,0.5,1.0,1.0,298.0,871.0,1.0,1,481.0,1
1418,1418,-0.16534816792299345,-0.2,0.0,1.0,488.0,750.0,1.0,0,382.0,1
1419,1419,-0.029163268141379484,-0.0,1.0,0.0,293.0,829.0,1.0,1,548.0,0
1420,1420,-0.3113721133609859,-0.3,0.0,1.0,335.0,612.0,1.0,0,613.0,1
1421,1421,-0.41778734904610465,-0.4,0.0,1.0,332.0,959.0,1.0,0,139.0,1
1422,1422,0.29768078759985117,0.3,1.0,1.0,268.0,933.0,1.0,1,439.0,1
1423,1423,-0.4414867558683267,-0.4,0.0,1.0,327.0,739.0,1.0,0,524.0,1
1424,1424,0.3081204804582379,0.3,1.0,1.0,311.0,704.0,1.0,1,285.0,1
1425,1425,0.7381190342002663,0.7,1.0,1.0,489.0,978.0,1.0,1,173.0,1
1426,1426,-0.04709855041812472,-0.0,0.0,1.0,356.0,746.0,1.0,0,688.0,1
1427,1427,-0.2630597431569557,-0.3,1.0,0.0,469.0,614.0,0.0,0,357.0,1
1428,1428,-0.4657966013504046,-0.5,1.0,0.0,424.0,612.0,0.0,0,234.0,1
1429,1429,-0.8526183995301733,-0.9,0.0,1.0,369.0,891.0,0.0,1,-70.0,0
1430,1430,-0.10610801486020993,-0.1,1.0,0.0,478.0,959.0,0.0,0,-77.0,1
1431,1431,-0.7464529506538433,-0.7,0.0,1.0,483.0,876.0,1.0,0,41.0,1
1432,1432,-0.787461458292935,-0.8,0.0,1.0,339.0,817.0,1.0,0,214.0,1
1433,1433,0.25671700269281195,0.3,1.0,1.0,265.0,751.0,1.0,1,214.0,1
1434,1434,0.2994597065802812,0.3,0.0,0.0,296.0,601.0,0.0,1,613.0,1
1435,1435,0.468115786683028,0.5,1.0,1.0,493.0,959.0,1.0,1,918.0,1
1436,1436,0.061978224888124656,0.1,0.0,0.0,331.0,624.0,1.0,0,865.0,0
1437,1437,0.7795718456579371,0.8,0.0,0.0,420.0,754.0,0.0,1,346.0,1
1438,1438,0.4546677502360109,0.5,1.0,1.0,315.0,630.0,1.0,1,385.0,1
1439,1439,0.6710947841905387,0.7,1.0,1.0,299.0,520.0,1.0,1,501.0,1
1440,1440,-0.4045954243801741,-0.4,1.0,0.0,251.0,914.0,0.0,0,145.0,1
1441,1441,-0.4950837020635333,-0.5,0.0,1.0,338.0,516.0,1.0,0,376.0,1
1442,1442,-0.4422886738939201,-0.4,1.0,0.0,254.0,734.0,0.0,0,222.0,1
1443,1443,0.37788644661702764,0.4,1.0,1.0,469.0,646.0,1.0,1,395.0,1
1444,1444,-0.7495846851695633,-0.7,1.0,0.0,450.0,840.0,0.0,0,320.0,1
1445,1445,0.1858277015336539,0.2,1.0,1.0,297.0,702.0,1.0,1,541.0,1
1446,1446,0.3459783974202514,0.3,0.0,0.0,310.0,620.0,0.0,1,450.0,1
1447,1447,0.30001011889131346,0.3,0.0,0.0,430.0,657.0,0.0,1,283.0,1
1448,1448,0.8788089881147422,0.9,0.0,0.0,475.0,726.0,0.0,1,339.0,1
1449,1449,0.5198503667944604,0.5,0.0,0.0,495.0,985.0,0.0,1,130.0,1
1450,1450,-0.3158623836040543,-0.3,1.0,0.0,359.0,630.0,0.0,0,911.0,1
1451,1451,-0.003660731644607118,-0.0,0.0,1.0,453.0,807.0,1.0,0,850.0,1
1452,1452,-0.8694918146846451,-0.9,1.0,0.0,304.0,580.0,0.0,0,306.0,1
1453,1453,0.7381174865671255,0.7,1.0,1.0,346.0,694.0,1.0,1,490.0,1
1454,1454,-0.43527009063249494,-0.4,0.0,1.0,343.0,981.0,1.0,0,-94.0,1
1455,1455,-0.6093370038385337,-0.6,1.0,0.0,257.0,784.0,0.0,0,199.0,1
1456,1456,0.42631388715964313,0.4,0.0,0.0,276.0,733.0,0.0,1,291.0,1
1457,1457,-0.7676316514853468,-0.8,1.0,0.0,424.0,617.0,0.0,0,339.0,1
1458,1458,0.6210315301381758,0.6,0.0,0.0,296.0,843.0,0.0,1,421.0,1
1459,1459,-0.33239234790621897,-0.3,1.0,0.0,254.0,578.0,0.0,0,708.0,1
1460,1460,0.2969599940991129,0.3,1.0,1.0,444.0,872.0,1.0,1,224.0,1
1461,1461,0.13259504478702955,0.1,0.0,0.0,342.0,722.0,1.0,0,396.0,0
1462,1462,0.5402889122666131,0.5,1.0,1.0,368.0,796.0,1.0,1,356.0,1
1463,1463,0.3560250210070558,0.4,0.0,0.0,315.0,566.0,0.0,1,939.0,1
1464,1464,-0.7568273379752801,-0.8,1.0,0.0,354.0,513.0,0.0,0,343.0,1
1465,1465,-0.7575006771515893,-0.8,0.0,1.0,416.0,507.0,1.0,0,377.0,1
1466,1466,0.08970963560289069,0.1,0.0,0.0,453.0,586.0,0.0,1,411.0,1
1467,1467,-0.6893375361703503,-0.7,0.0,1.0,462.0,711.0,1.0,0,417.0,1
1468,1468,0.5420461788280991,0.5,0.0,0.0,469.0,748.0,0.0,1,303.0,1
1469,1469,-0.011103587513196844,-0.0,1.0,0.0,426.0,603.0,1.0,1,1151.0,0
1470,1470,-0.6171009542756567,-0.6,1.0,0.0,402.0,681.0,0.0,0,227.0,1
1471,1471,0.3489363074962003,0.3,0.0,0.0,407.0,776.0,0.0,1,937.0,1
1472,1472,0.7570364768678791,0.8,1.0,1.0,306.0,692.0,1.0,1,262.0,1
1473,1473,0.5265205578763766,0.5,0.0,0.0,329.0,663.0,0.0,1,428.0,1
1474,1474,-0.8541747028048848,-0.9,0.0,1.0,498.0,729.0,1.0,0,283.0,1
1475,1475,0.6533050256575642,0.7,1.0,1.0,487.0,852.0,1.0,1,311.0,1
1476,1476,0.762731441557804,0.8,1.0,1.0,272.0,951.0,1.0,1,297.0,1
1477,1477,0.15428478004180401,0.2,1.0,1.0,346.0,817.0,0.0,0,1777.0,0
1478,1478,0.6226881802175225,0.6,1.0,1.0,489.0,606.0,1.0,1,265.0,1
1479,1479,0.8972077460192139,0.9,0.0,0.0,315.0,623.0,0.0,1,312.0,1
1480,1480,0.7711062505781546,0.8,0.0,0.0,346.0,738.0,0.0,1,156.0,1
1481,1481,0.21905022102492555,0.2,1.0,1.0,403.0,588.0,1.0,1,999.0,1
1482,1482,0.7402086075942645,0.7,1.0,1.0,480.0,975.0,1.0,1,205.0,1
1483,1483,0.5522329364577606,0.6,1.0,1.0,492.0,795.0,1.0,1,163.0,1
1484,1484,-0.8907315567476201,-0.9,0.0,1.0,402.0,846.0,1.0,0,112.0,1
1485,1485,-0.2856244328308565,-0.3,1.0,0.0,378.0,605.0,0.0,0,867.0,1
1486,1486,0.8825764432614228,0.9,0.0,0.0,349.0,980.0,0.0,1,41.0,1
1487,1487,-0.4074924730539849,-0.4,0.0,1.0,484.0,648.0,1.0,0,408.0,1
1488,1488,-0.3811398495748308,-0.4,1.0,0.0,484.0,596.0,0.0,0,600.0,1
1489,1489,-0.7712462482612272,-0.8,0.0,1.0,360.0,988.0,1.0,0,42.0,1
1490,1490,-0.8559114079874071,-0.9,0.0,1.0,374.0,539.0,1.0,0,527.0,1
1491,1491,0.2238039048660011,0.2,1.0,1.0,427.0,746.0,1.0,1,197.0,1
1492,1492,-0.29380890040787044,-0.3,0.0,1.0,453.0,560.0,1.0,0,697.0,1
1493,1493,-0.19695321462743254,-0.2,0.0,1.0,458.0,720.0,1.0,0,1252.0,1
1494,1494,0.4184266974286527,0.4,0.0,0.0,330.0,669.0,0.0,1,461.0,1
