,trial,coherence,coherence_bin,green_side,correct_side,target_onset,checker_onset,decision,green_decision,decision_time,correct_decision
0,0,0.11640950502254832,0.1,1.0,1.0,476.0,988.0,1.0,1,1076.0,1
1,1,0.8162885809328312,0.8,0.0,0.0,479.0,912.0,0.0,1,189.0,1
2,2,0.5550261706234941,0.6,0.0,0.0,433.0,607.0,0.0,1,240.0,1
3,3,-0.1396691346205684,-0.1,0.0,1.0,328.0,940.0,1.0,0,1772.0,1
4,4,-0.42523874873775985,-0.4,0.0,1.0,287.0,706.0,1.0,0,247.0,1
5,5,0.5889651955377834,0.6,1.0,1.0,330.0,810.0,1.0,1,540.0,1
6,6,0.5880937993554168,0.6,1.0,1.0,366.0,847.0,1.0,1,237.0,1
7,7,0.018611603200275106,0.0,1.0,1.0,479.0,667.0,1.0,1,2754.0,1
8,8,0.5526086319832136,0.6,1.0,1.0,440.0,635.0,1.0,1,335.0,1
9,9,0.15596829296015813,0.2,1.0,1.0,274.0,665.0,1.0,1,851.0,1
10,10,0.7062302769741812,0.7,1.0,1.0,330.0,707.0,1.0,1,393.0,1
11,11,0.4014355340341561,0.4,0.0,0.0,445.0,584.0,0.0,1,771.0,1
12,12,-0.27676502620142485,-0.3,0.0,1.0,491.0,570.0,1.0,0,409.0,1
13,13,-0.4510272341044036,-0.5,1.0,0.0,488.0,763.0,0.0,0,509.0,1
14,14,-0.8510513514581755,-0.9,1.0,0.0,457.0,940.0,0.0,0,83.0,1
15,15,-0.4595829584714942,-0.5,1.0,0.0,454.0,961.0,0.0,0,385.0,1
16,16,-0.3588404138192486,-0.4,0.0,1.0,370.0,932.0,1.0,0,278.0,1
17,17,-0.5193688686330735,-0.5,1.0,0.0,464.0,526.0,0.0,0,600.0,1
18,18,-0.8636498195193967,-0.9,0.0,1.0,485.0,885.0,1.0,0,170.0,1
19,19,0.40810900904689695,0.4,1.0,1.0,254.0,938.0,1.0,1,348.0,1
20,20,0.4225393395862208,0.4,0.0,0.0,476.0,817.0,0.0,1,427.0,1
21,21,0.6123619427773451,0.6,0.0,0.0,322.0,636.0,0.0,1,612.0,1
22,22,-0.2790761856435845,-0.3,1.0,0.0,493.0,741.0,0.0,0,1376.0,1
23,23,-0.01541034589479684,-0.0,0.0,1.0,385.0,762.0,0.0,1,1693.0,0
24,24,0.8149945790055532,0.8,1.0,1.0,420.0,890.0,1.0,1,240.0,1
25,25,0.2745604824754949,0.3,0.0,0.0,276.0,753.0,0.0,1,381.0,1
26,26,-0.3776087834263575,-0.4,0.0,1.0,353.0,536.0,1.0,0,721.0,1
27,27,0.14600703931443737,0.1,1.0,1.0,450.0,803.0,1.0,1,867.0,1
28,28,0.8470764833726095,0.8,0.0,0.0,350.0,661.0,0.0,1,219.0,1
29,29,0.15108343412181935,0.2,1.0,1.0,482.0,593.0,1.0,1,665.0,1
30,30,0.779108960871603,0.8,0.0,0.0,348.0,796.0,0.0,1,366.0,1
31,31,0.23473882737450535,0.2,0.0,0.0,421.0,615.0,0.0,1,664.0,1
32,32,-0.6609229458920304,-0.7,0.0,1.0,291.0,621.0,1.0,0,238.0,1
33,33,-0.5167617168589733,-0.5,0.0,1.0,354.0,617.0,1.0,0,339.0,1
34,34,0.2133790967330894,0.2,1.0,1.0,275.0,829.0,1.0,1,1306.0,1
35,35,0.36305144680630497,0.4,1.0,1.0,415.0,687.0,1.0,1,198.0,1
36,36,0.6874534892070016,0.7,1.0,1.0,474.0,769.0,1.0,1,267.0,1
37,37,0.8431821408091856,0.8,1.0,1.0,337.0,746.0,1.0,1,307.0,1
38,38,0.18718336298423843,0.2,0.0,0.0,362.0,941.0,0.0,1,547.0,1
39,39,0.8294839605054282,0.8,1.0,1.0,342.0,810.0,1.0,1,208.0,1
40,40,-0.039278535038396956,-0.0,0.0,1.0,265.0,807.0,1.0,0,3268.0,1
41,41,0.7607412018687999,0.8,1.0,1.0,426.0,624.0,1.0,1,480.0,1
42,42,-0.26025232786148844,-0.3,1.0,0.0,498.0,991.0,0.0,0,1581.0,1
43,43,0.6770709175255866,0.7,0.0,0.0,296.0,798.0,0.0,1,186.0,1
44,44,0.663354197635578,0.7,0.0,0.0,425.0,642.0,0.0,1,443.0,1
45,45,0.6300239810613742,0.6,0.0,0.0,418.0,685.0,0.0,1,397.0,1
46,46,-0.5285327130664377,-0.5,0.0,1.0,361.0,863.0,1.0,0,206.0,1
47,47,-0.5958801520072896,-0.6,0.0,1.0,437.0,634.0,1.0,0,389.0,1
48,48,-0.8612733984878083,-0.9,1.0,0.0,407.0,555.0,0.0,0,408.0,1
49,49,-0.30508726800675146,-0.3,1.0,0.0,334.0,615.0,0.0,0,1231.0,1
50,50,0.3186768556465044,0.3,1.0,1.0,479.0,740.0,1.0,1,1251.0,1
51,51,0.5126120638888271,0.5,0.0,0.0,382.0,613.0,0.0,1,55.0,1
52,52,0.6553547989883527,0.7,1.0,1.0,255.0,759.0,1.0,1,236.0,1
53,53,-0.6588853262628007,-0.7,0.0,1.0,347.0,586.0,1.0,0,817.0,1
54,54,0.15017779373670048,0.2,0.0,0.0,440.0,927.0,0.0,1,1243.0,1
55,55,0.029466138457910573,0.0,1.0,1.0,312.0,535.0,1.0,1,1393.0,1
56,56,-0.48781989131075115,-0.5,0.0,1.0,453.0,582.0,1.0,0,385.0,1
57,57,0.24453159140830028,0.2,1.0,1.0,407.0,889.0,1.0,1,1034.0,1
58,58,-0.6368646818258854,-0.6,0.0,1.0,284.0,646.0,1.0,0,420.0,1
59,59,0.36467468920450996,0.4,0.0,0.0,379.0,650.0,0.0,1,271.0,1
60,60,-0.3153001384979953,-0.3,0.0,1.0,272.0,591.0,1.0,0,667.0,1
61,61,-0.7636457867709934,-0.8,0.0,1.0,254.0,583.0,1.0,0,463.0,1
62,62,-0.7907111289366002,-0.8,0.0,1.0,441.0,747.0,1.0,0,332.0,1
63,63,0.29215193123553485,0.3,1.0,1.0,455.0,568.0,1.0,1,527.0,1
64,64,-0.6254841153651083,-0.6,1.0,0.0,293.0,695.0,0.0,0,222.0,1
65,65,-0.6618894064096186,-0.7,1.0,0.0,297.0,787.0,0.0,0,246.0,1
66,66,0.19450151116022252,0.2,1.0,1.0,376.0,656.0,1.0,1,598.0,1
67,67,0.1168572419579671,0.1,0.0,0.0,338.0,894.0,0.0,1,3768.0,1
68,68,0.22195355577309728,0.2,0.0,0.0,417.0,998.0,0.0,1,2775.0,1
69,69,0.4278082972982814,0.4,0.0,0.0,405.0,775.0,0.0,1,300.0,1
70,70,0.06214002627028714,0.1,1.0,1.0,276.0,791.0,1.0,1,3883.0,1
71,71,0.6057929022593841,0.6,0.0,0.0,326.0,999.0,0.0,1,175.0,1
72,72,-0.32626511176271866,-0.3,0.0,1.0,411.0,856.0,1.0,0,503.0,1
73,73,-0.5343437540276885,-0.5,0.0,1.0,371.0,973.0,1.0,0,306.0,1
74,74,-0.7925846748753728,-0.8,1.0,0.0,310.0,862.0,0.0,0,238.0,1
75,75,-0.2602194175049741,-0.3,1.0,0.0,394.0,964.0,1.0,1,2.0,0
76,76,-0.4904875979955665,-0.5,1.0,0.0,346.0,985.0,0.0,0,519.0,1
77,77,-0.4230697687637309,-0.4,1.0,0.0,255.0,533.0,0.0,0,692.0,1
78,78,0.4939880166576879,0.5,0.0,0.0,451.0,543.0,0.0,1,606.0,1
79,79,0.22757613001169108,0.2,0.0,0.0,308.0,818.0,0.0,1,344.0,1
80,80,0.3782365100710653,0.4,0.0,0.0,340.0,989.0,0.0,1,351.0,1
81,81,0.74354801748036,0.7,0.0,0.0,277.0,981.0,0.0,1,212.0,1
82,82,0.6473998172065604,0.6,0.0,0.0,421.0,802.0,0.0,1,327.0,1
83,83,0.07299651029609677,0.1,1.0,1.0,452.0,869.0,1.0,1,589.0,1
84,84,0.6186463903769212,0.6,1.0,1.0,383.0,919.0,1.0,1,88.0,1
85,85,-0.851714786238769,-0.9,0.0,1.0,390.0,748.0,1.0,0,302.0,1
86,86,0.3659694987798209,0.4,1.0,1.0,324.0,804.0,1.0,1,802.0,1
87,87,0.655094820634725,0.7,0.0,0.0,316.0,742.0,0.0,1,252.0,1
88,88,0.16029168030088148,0.2,0.0,0.0,325.0,585.0,0.0,1,470.0,1
89,89,0.4420173519237601,0.4,1.0,1.0,470.0,511.0,1.0,1,319.0,1
90,90,-0.33645194058811634,-0.3,1.0,0.0,482.0,945.0,0.0,0,1163.0,1
91,91,0.18753319171238692,0.2,0.0,0.0,268.0,867.0,0.0,1,2025.0,1
92,92,-0.508516328832829,-0.5,1.0,0.0,317.0,568.0,0.0,0,1035.0,1
93,93,-0.39077709473128497,-0.4,0.0,1.0,312.0,734.0,1.0,0,534.0,1
94,94,0.6987652064360809,0.7,0.0,0.0,277.0,513.0,0.0,1,490.0,1
95,95,-0.2670475326892342,-0.3,1.0,0.0,499.0,530.0,0.0,0,1691.0,1
96,96,-0.7194834797899922,-0.7,0.0,1.0,272.0,830.0,1.0,0,418.0,1
97,97,0.038586024682986886,0.0,1.0,1.0,301.0,737.0,1.0,1,732.0,1
98,98,-0.6499554699463884,-0.6,0.0,1.0,419.0,642.0,1.0,0,219.0,1
99,99,0.24717155144827496,0.2,0.0,0.0,261.0,884.0,0.0,1,1155.0,1
100,100,0.4218593985390454,0.4,1.0,1.0,337.0,763.0,1.0,1,140.0,1
101,101,-0.22665380109202216,-0.2,1.0,0.0,253.0,621.0,0.0,0,3026.0,1
102,102,-0.6714237915432781,-0.7,1.0,0.0,292.0,861.0,0.0,0,377.0,1
103,103,-0.7275663058071362,-0.7,0.0,1.0,354.0,727.0,1.0,0,209.0,1
104,104,0.12364519416666153,0.1,1.0,1.0,457.0,944.0,1.0,1,1029.0,1
105,105,0.8429996311701066,0.8,1.0,1.0,427.0,998.0,1.0,1,45.0,1
106,106,0.7228911646248234,0.7,1.0,1.0,405.0,893.0,1.0,1,542.0,1
107,107,0.8120004809189311,0.8,0.0,0.0,337.0,813.0,0.0,1,290.0,1
108,108,0.857572054683967,0.9,0.0,0.0,297.0,759.0,0.0,1,194.0,1
109,109,-0.49535934851686536,-0.5,0.0,1.0,419.0,512.0,1.0,0,449.0,1
110,110,0.5617224674881099,0.6,0.0,0.0,310.0,762.0,0.0,1,378.0,1
111,111,0.4606612117094161,0.5,0.0,0.0,435.0,885.0,0.0,1,140.0,1
112,112,-0.44335624473907986,-0.4,0.0,1.0,324.0,934.0,1.0,0,322.0,1
113,113,-0.42903559103605104,-0.4,0.0,1.0,365.0,528.0,1.0,0,687.0,1
114,114,0.2390937479205829,0.2,0.0,0.0,415.0,898.0,0.0,1,347.0,1
115,115,-0.18253481274369787,-0.2,0.0,1.0,391.0,625.0,1.0,0,1214.0,1
116,116,0.4986027353112398,0.5,0.0,0.0,466.0,504.0,0.0,1,450.0,1
117,117,0.5837176750907621,0.6,1.0,1.0,319.0,571.0,1.0,1,550.0,1
118,118,-0.6225528652897154,-0.6,0.0,1.0,384.0,555.0,1.0,0,301.0,1
119,119,-0.5304353572393651,-0.5,0.0,1.0,328.0,995.0,1.0,0,297.0,1
120,120,0.45854372235334007,0.5,0.0,0.0,367.0,898.0,0.0,1,165.0,1
121,121,-0.47945194813495484,-0.5,1.0,0.0,252.0,672.0,0.0,0,556.0,1
122,122,0.5685438381315956,0.6,0.0,0.0,385.0,690.0,0.0,1,185.0,1
123,123,0.6087054388533927,0.6,0.0,0.0,370.0,924.0,0.0,1,126.0,1
124,124,-0.6344154368863839,-0.6,1.0,0.0,494.0,845.0,0.0,0,481.0,1
125,125,0.663594578696267,0.7,0.0,0.0,467.0,591.0,0.0,1,422.0,1
126,126,-0.34633666610075264,-0.3,0.0,1.0,328.0,830.0,1.0,0,412.0,1
127,127,0.6007713463748593,0.6,0.0,0.0,316.0,965.0,0.0,1,289.0,1
128,128,0.14052103152159912,0.1,1.0,1.0,464.0,946.0,1.0,1,3590.0,1
129,129,0.4424494933736106,0.4,1.0,1.0,299.0,676.0,1.0,1,255.0,1
130,130,-0.06612165063429398,-0.1,0.0,1.0,474.0,877.0,1.0,0,1869.0,1
131,131,0.8718436305847691,0.9,1.0,1.0,277.0,987.0,1.0,1,226.0,1
132,132,0.47373639310352134,0.5,0.0,0.0,484.0,995.0,0.0,1,251.0,1
133,133,0.8372723408927173,0.8,0.0,0.0,306.0,878.0,0.0,1,226.0,1
134,134,0.25006888781139536,0.3,1.0,1.0,297.0,849.0,1.0,1,504.0,1
135,135,-0.02445213013093339,-0.0,1.0,0.0,458.0,960.0,0.0,0,3582.0,1
136,136,-0.7898205078497375,-0.8,0.0,1.0,404.0,534.0,1.0,0,432.0,1
137,137,0.4475153930893908,0.4,0.0,0.0,350.0,836.0,0.0,1,254.0,1
138,138,-0.124789011315936,-0.1,0.0,1.0,459.0,666.0,1.0,0,595.0,1
139,139,0.844062649069368,0.8,1.0,1.0,359.0,841.0,1.0,1,80.0,1
140,140,-0.5325040192357418,-0.5,0.0,1.0,325.0,788.0,1.0,0,227.0,1
141,141,-0.37396831749034587,-0.4,1.0,0.0,292.0,670.0,0.0,0,348.0,1
142,142,0.06231124379658182,0.1,1.0,1.0,391.0,528.0,1.0,1,921.0,1
143,143,-0.6489553001828744,-0.6,0.0,1.0,459.0,672.0,1.0,0,419.0,1
144,144,0.8009785400060695,0.8,1.0,1.0,455.0,740.0,1.0,1,195.0,1
145,145,-0.5986973517741939,-0.6,0.0,1.0,305.0,816.0,1.0,0,489.0,1
146,146,0.011373464842849623,0.0,1.0,1.0,376.0,962.0,1.0,1,1022.0,1
147,147,0.2935623552093075,0.3,1.0,1.0,322.0,969.0,1.0,1,439.0,1
148,148,0.10534750455403541,0.1,0.0,0.0,283.0,723.0,0.0,1,3504.0,1
149,149,0.6409850894850967,0.6,1.0,1.0,464.0,577.0,1.0,1,489.0,1
150,150,-0.0030532118312871503,-0.0,1.0,0.0,428.0,820.0,0.0,0,1212.0,1
151,151,0.533988497640982,0.5,1.0,1.0,479.0,927.0,1.0,1,234.0,1
152,152,-0.6341602360229435,-0.6,1.0,0.0,312.0,847.0,0.0,0,321.0,1
153,153,-0.4296776481928046,-0.4,0.0,1.0,330.0,958.0,1.0,0,302.0,1
154,154,-0.17060473964261313,-0.2,1.0,0.0,353.0,750.0,0.0,0,567.0,1
155,155,-0.7136943091116914,-0.7,1.0,0.0,494.0,661.0,0.0,0,425.0,1
156,156,-0.4299373851280921,-0.4,0.0,1.0,395.0,851.0,1.0,0,494.0,1
157,157,-0.10496099937428205,-0.1,0.0,1.0,437.0,783.0,1.0,0,2860.0,1
158,158,-0.35644900101291377,-0.4,0.0,1.0,286.0,925.0,1.0,0,419.0,1
159,159,0.6271757885731856,0.6,0.0,0.0,358.0,610.0,0.0,1,192.0,1
160,160,-0.22701563394657387,-0.2,1.0,0.0,360.0,597.0,1.0,1,533.0,0
161,161,0.44780248496224206,0.4,0.0,0.0,461.0,836.0,0.0,1,923.0,1
162,162,-0.7355378047075859,-0.7,1.0,0.0,486.0,736.0,0.0,0,358.0,1
163,163,0.16630850472715364,0.2,1.0,1.0,288.0,712.0,1.0,1,260.0,1
164,164,-0.5017660294807087,-0.5,0.0,1.0,446.0,803.0,1.0,0,331.0,1
165,165,-0.4305434782431469,-0.4,0.0,1.0,497.0,706.0,1.0,0,447.0,1
166,166,0.6233073182241639,0.6,1.0,1.0,491.0,937.0,1.0,1,262.0,1
167,167,0.5095801247541017,0.5,0.0,0.0,397.0,804.0,0.0,1,229.0,1
168,168,0.15905847009590401,0.2,1.0,1.0,450.0,888.0,1.0,1,392.0,1
169,169,-0.07411140567243313,-0.1,1.0,0.0,349.0,667.0,0.0,0,2394.0,1
170,170,-0.42767634608348054,-0.4,0.0,1.0,499.0,584.0,1.0,0,447.0,1
171,171,-0.03275606809990028,-0.0,0.0,1.0,440.0,620.0,1.0,0,1480.0,1
172,172,0.22205522515679743,0.2,0.0,0.0,336.0,517.0,0.0,1,1057.0,1
173,173,0.6682469882686662,0.7,0.0,0.0,366.0,856.0,0.0,1,788.0,1
174,174,0.15374852678274553,0.2,1.0,1.0,325.0,722.0,1.0,1,2733.0,1
175,175,0.36515050269399374,0.4,1.0,1.0,280.0,507.0,1.0,1,323.0,1
176,176,-0.8691385605306465,-0.9,0.0,1.0,398.0,836.0,1.0,0,216.0,1
177,177,-0.38308435938869667,-0.4,1.0,0.0,424.0,906.0,0.0,0,520.0,1
178,178,0.4379133740856568,0.4,0.0,0.0,344.0,675.0,0.0,1,571.0,1
179,179,0.4264584743218215,0.4,0.0,0.0,297.0,897.0,0.0,1,216.0,1
180,180,-0.45514526988571974,-0.5,1.0,0.0,450.0,684.0,0.0,0,1196.0,1
181,181,0.8008591229874019,0.8,0.0,0.0,327.0,772.0,0.0,1,1051.0,1
182,182,-0.3597351146966036,-0.4,0.0,1.0,293.0,655.0,1.0,0,392.0,1
183,183,-0.10533681492314184,-0.1,1.0,0.0,338.0,975.0,0.0,0,407.0,1
184,184,0.21532537719667155,0.2,0.0,0.0,446.0,517.0,0.0,1,387.0,1
185,185,0.8884612481557784,0.9,0.0,0.0,499.0,982.0,0.0,1,289.0,1
186,186,-0.29931963910852755,-0.3,1.0,0.0,355.0,714.0,0.0,0,621.0,1
187,187,0.3165085998558129,0.3,1.0,1.0,351.0,640.0,1.0,1,569.0,1
188,188,0.2702868213747408,0.3,1.0,1.0,359.0,551.0,1.0,1,280.0,1
189,189,0.8441905197836009,0.8,1.0,1.0,258.0,963.0,1.0,1,259.0,1
190,190,0.02499749824782649,0.0,1.0,1.0,496.0,963.0,1.0,1,1341.0,1
191,191,-0.6882724982324198,-0.7,1.0,0.0,266.0,767.0,0.0,0,387.0,1
192,192,0.2718604959012666,0.3,1.0,1.0,443.0,583.0,1.0,1,1204.0,1
193,193,0.7855352507867704,0.8,1.0,1.0,311.0,791.0,1.0,1,268.0,1
194,194,0.215780135183944,0.2,0.0,0.0,359.0,719.0,0.0,1,742.0,1
195,195,0.6817192432854416,0.7,1.0,1.0,320.0,650.0,1.0,1,1450.0,1
196,196,0.8177928585161401,0.8,0.0,0.0,272.0,593.0,0.0,1,355.0,1
197,197,0.5021150633114143,0.5,0.0,0.0,382.0,684.0,0.0,1,224.0,1
198,198,-0.5927729675677322,-0.6,1.0,0.0,406.0,987.0,0.0,0,317.0,1
199,199,0.837545899704296,0.8,1.0,1.0,299.0,696.0,1.0,1,725.0,1
200,200,-0.057106830451996604,-0.1,1.0,0.0,347.0,879.0,0.0,0,2474.0,1
201,201,-0.6895773317831899,-0.7,0.0,1.0,339.0,982.0,1.0,0,249.0,1
202,202,-0.3489892127650639,-0.3,0.0,1.0,416.0,601.0,1.0,0,933.0,1
203,203,-0.2560509684021067,-0.3,1.0,0.0,381.0,806.0,0.0,0,363.0,1
204,204,-0.7583973557966286,-0.8,1.0,0.0,261.0,845.0,0.0,0,394.0,1
205,205,0.412009598000994,0.4,1.0,1.0,410.0,745.0,1.0,1,575.0,1
206,206,0.5884952180149362,0.6,0.0,0.0,409.0,966.0,0.0,1,215.0,1
207,207,0.39008647865073554,0.4,1.0,1.0,287.0,930.0,1.0,1,283.0,1
208,208,0.6069831342016395,0.6,0.0,0.0,470.0,807.0,0.0,1,333.0,1
209,209,0.3358200762122384,0.3,1.0,1.0,441.0,909.0,1.0,1,200.0,1
210,210,0.8979100691467762,0.9,1.0,1.0,384.0,730.0,1.0,1,226.0,1
211,211,-0.4114049688946189,-0.4,0.0,1.0,311.0,867.0,1.0,0,382.0,1
212,212,0.6703995890868736,0.7,1.0,1.0,262.0,900.0,1.0,1,98.0,1
213,213,0.07704332431671146,0.1,1.0,1.0,414.0,692.0,1.0,1,514.0,1
214,214,0.7538306821039708,0.8,0.0,0.0,266.0,927.0,0.0,1,167.0,1
215,215,0.5014362459843934,0.5,0.0,0.0,496.0,949.0,0.0,1,315.0,1
216,216,-0.726090536921804,-0.7,0.0,1.0,346.0,714.0,1.0,0,410.0,1
217,217,0.1705481499863436,0.2,0.0,0.0,465.0,846.0,0.0,1,3489.0,1
218,218,0.6337780344404295,0.6,0.0,0.0,465.0,737.0,0.0,1,228.0,1
219,219,-0.8937772163411478,-0.9,0.0,1.0,496.0,584.0,1.0,0,430.0,1
220,220,-0.1952240700583907,-0.2,1.0,0.0,385.0,785.0,0.0,0,1150.0,1
221,221,-0.6748827430303311,-0.7,0.0,1.0,485.0,823.0,1.0,0,302.0,1
222,222,-0.7970294021987182,-0.8,1.0,0.0,305.0,745.0,0.0,0,250.0,1
223,223,0.8391815247587159,0.8,0.0,0.0,408.0,624.0,0.0,1,428.0,1
224,224,-0.014104621180886845,-0.0,1.0,0.0,461.0,777.0,1.0,1,3762.0,0
225,225,0.6770540768389054,0.7,1.0,1.0,309.0,697.0,1.0,1,534.0,1
226,226,-0.5507101804479743,-0.6,0.0,1.0,316.0,898.0,1.0,0,346.0,1
227,227,0.7909923963355557,0.8,1.0,1.0,327.0,522.0,1.0,1,661.0,1
228,228,0.48492514615896953,0.5,0.0,0.0,258.0,886.0,0.0,1,446.0,1
229,229,0.6673876617815376,0.7,0.0,0.0,363.0,664.0,0.0,1,173.0,1
230,230,-0.2838683369459487,-0.3,0.0,1.0,358.0,589.0,1.0,0,523.0,1
231,231,0.12520425766669396,0.1,1.0,1.0,344.0,602.0,1.0,1,534.0,1
232,232,0.8063140053729544,0.8,0.0,0.0,328.0,507.0,0.0,1,225.0,1
233,233,-0.8222866601443319,-0.8,1.0,0.0,328.0,847.0,0.0,0,555.0,1
234,234,-0.044990072035942186,-0.0,0.0,1.0,411.0,510.0,0.0,1,4079.0,0
235,235,0.27805595087858836,0.3,0.0,0.0,407.0,578.0,0.0,1,755.0,1
236,236,-0.3560653334207168,-0.4,1.0,0.0,272.0,552.0,0.0,0,476.0,1
237,237,-0.02937113250380874,-0.0,1.0,0.0,480.0,893.0,0.0,0,837.0,1
238,238,0.4813208739578779,0.5,1.0,1.0,384.0,900.0,1.0,1,366.0,1
239,239,0.1079316687647679,0.1,1.0,1.0,257.0,871.0,1.0,1,262.0,1
240,240,0.3593701072281187,0.4,1.0,1.0,439.0,809.0,1.0,1,292.0,1
241,241,0.4224569761055047,0.4,0.0,0.0,478.0,845.0,0.0,1,157.0,1
242,242,-0.13811538276863433,-0.1,1.0,0.0,290.0,908.0,0.0,0,3802.0,1
243,243,-0.3039983043556922,-0.3,1.0,0.0,491.0,859.0,0.0,0,490.0,1
244,244,-0.21234971466045127,-0.2,0.0,1.0,334.0,558.0,1.0,0,2278.0,1
245,245,0.13732107748891298,0.1,0.0,0.0,480.0,874.0,0.0,1,1826.0,1
246,246,-0.22882296196464436,-0.2,0.0,1.0,423.0,631.0,1.0,0,1266.0,1
247,247,-0.11553577979471852,-0.1,1.0,0.0,445.0,747.0,0.0,0,2958.0,1
248,248,0.5174787410999723,0.5,1.0,1.0,264.0,971.0,1.0,1,265.0,1
249,249,-0.5891707204265286,-0.6,0.0,1.0,357.0,559.0,1.0,0,344.0,1
250,250,0.6566310691131511,0.7,1.0,1.0,455.0,595.0,1.0,1,720.0,1
251,251,-0.7572845362941121,-0.8,1.0,0.0,486.0,973.0,0.0,0,321.0,1
252,252,0.5950254831370944,0.6,0.0,0.0,440.0,729.0,0.0,1,471.0,1
253,253,-0.6313716928382853,-0.6,1.0,0.0,278.0,685.0,0.0,0,217.0,1
254,254,-0.35964619246109664,-0.4,0.0,1.0,482.0,521.0,1.0,0,687.0,1
255,255,-0.28088419067014425,-0.3,0.0,1.0,360.0,877.0,1.0,0,773.0,1
256,256,-0.5380699855997728,-0.5,0.0,1.0,413.0,649.0,1.0,0,298.0,1
257,257,0.8807988618361356,0.9,1.0,1.0,265.0,744.0,1.0,1,351.0,1
258,258,-0.44349478430442635,-0.4,0.0,1.0,417.0,998.0,1.0,0,275.0,1
259,259,0.3643400392730739,0.4,0.0,0.0,278.0,976.0,0.0,1,726.0,1
260,260,0.44717523830742134,0.4,1.0,1.0,308.0,759.0,1.0,1,283.0,1
261,261,0.7371316491196364,0.7,1.0,1.0,371.0,963.0,1.0,1,226.0,1
262,262,-0.6045175346506777,-0.6,0.0,1.0,382.0,626.0,1.0,0,452.0,1
263,263,-0.08260512271473353,-0.1,0.0,1.0,388.0,714.0,1.0,0,3398.0,1
264,264,-0.7565331717558177,-0.8,0.0,1.0,408.0,542.0,1.0,0,370.0,1
265,265,0.0038230237883762896,0.0,1.0,1.0,391.0,630.0,1.0,1,2049.0,1
266,266,0.04344802282438687,0.0,1.0,1.0,299.0,838.0,1.0,1,773.0,1
267,267,-0.7309931857465427,-0.7,0.0,1.0,368.0,634.0,1.0,0,318.0,1
268,268,0.02061640945817389,0.0,1.0,1.0,480.0,856.0,1.0,1,764.0,1
269,269,0.39343642220990793,0.4,1.0,1.0,383.0,900.0,1.0,1,177.0,1
270,270,0.5399094393813545,0.5,1.0,1.0,474.0,837.0,1.0,1,129.0,1
271,271,0.8951732163008254,0.9,0.0,0.0,292.0,670.0,0.0,1,398.0,1
272,272,0.4137790571088499,0.4,0.0,0.0,254.0,503.0,0.0,1,653.0,1
273,273,-0.6944283467512897,-0.7,1.0,0.0,288.0,858.0,0.0,0,274.0,1
274,274,-0.2397024348134622,-0.2,0.0,1.0,310.0,847.0,1.0,0,643.0,1
275,275,-0.6422494041031717,-0.6,1.0,0.0,458.0,676.0,0.0,0,456.0,1
276,276,-0.15295893562029605,-0.2,1.0,0.0,258.0,831.0,0.0,0,291.0,1
277,277,-0.7016128473628278,-0.7,1.0,0.0,433.0,648.0,0.0,0,369.0,1
278,278,0.44593410035464875,0.4,0.0,0.0,263.0,992.0,0.0,1,325.0,1
279,279,0.2649090930450545,0.3,1.0,1.0,469.0,676.0,1.0,1,225.0,1
280,280,0.4889992170319232,0.5,1.0,1.0,373.0,870.0,1.0,1,287.0,1
281,281,-0.39594676082288194,-0.4,0.0,1.0,487.0,529.0,1.0,0,444.0,1
282,282,-0.23143504589418662,-0.2,1.0,0.0,491.0,848.0,0.0,0,1881.0,1
283,283,-0.14772389969715016,-0.1,1.0,0.0,434.0,557.0,0.0,0,1109.0,1
284,284,-0.2533627119791809,-0.3,1.0,0.0,275.0,724.0,0.0,0,1151.0,1
285,285,0.19864875424714568,0.2,0.0,0.0,327.0,686.0,0.0,1,667.0,1
286,286,0.5810383052132427,0.6,1.0,1.0,462.0,720.0,1.0,1,408.0,1
287,287,-0.45282489800221554,-0.5,1.0,0.0,494.0,599.0,0.0,0,787.0,1
288,288,0.39226991215289597,0.4,1.0,1.0,386.0,734.0,1.0,1,520.0,1
289,289,0.335352143266631,0.3,1.0,1.0,353.0,955.0,1.0,1,412.0,1
290,290,0.5398611750765715,0.5,0.0,0.0,333.0,983.0,0.0,1,294.0,1
291,291,-0.14265462467824408,-0.1,0.0,1.0,425.0,767.0,1.0,0,778.0,1
292,292,-0.7017406967927792,-0.7,1.0,0.0,468.0,976.0,0.0,0,236.0,1
293,293,-0.8348575054596059,-0.8,1.0,0.0,377.0,822.0,0.0,0,221.0,1
294,294,-0.5914969704322465,-0.6,0.0,1.0,337.0,702.0,1.0,0,171.0,1
295,295,-0.5482917560553078,-0.5,0.0,1.0,330.0,601.0,1.0,0,279.0,1
296,296,0.1842524072532873,0.2,0.0,0.0,465.0,627.0,0.0,1,2198.0,1
297,297,0.7663075780026546,0.8,1.0,1.0,331.0,599.0,1.0,1,180.0,1
298,298,0.620199137017469,0.6,1.0,1.0,486.0,896.0,1.0,1,288.0,1
299,299,0.02428904728286929,0.0,0.0,0.0,480.0,894.0,0.0,1,1456.0,1
300,300,0.26196739814920356,0.3,1.0,1.0,440.0,879.0,1.0,1,521.0,1
301,301,0.5822383567297921,0.6,0.0,0.0,427.0,818.0,0.0,1,1735.0,1
302,302,-0.49298388340379795,-0.5,1.0,0.0,266.0,648.0,0.0,0,386.0,1
303,303,0.004247656881182671,0.0,0.0,0.0,300.0,566.0,0.0,1,2784.0,1
304,304,0.7056158933608282,0.7,1.0,1.0,363.0,512.0,1.0,1,465.0,1
305,305,0.11360712105987447,0.1,1.0,1.0,254.0,675.0,1.0,1,1221.0,1
306,306,0.3811685504099508,0.4,0.0,0.0,354.0,698.0,0.0,1,158.0,1
307,307,0.20350147726642887,0.2,1.0,1.0,332.0,512.0,1.0,1,2886.0,1
308,308,0.13009326343721772,0.1,0.0,0.0,348.0,526.0,0.0,1,966.0,1
309,309,-0.7388244894974513,-0.7,0.0,1.0,463.0,892.0,1.0,0,255.0,1
310,310,-0.6034992479760155,-0.6,0.0,1.0,348.0,981.0,1.0,0,251.0,1
311,311,-0.7906934256915683,-0.8,1.0,0.0,469.0,873.0,0.0,0,328.0,1
312,312,-0.30581578206516846,-0.3,0.0,1.0,449.0,924.0,1.0,0,1707.0,1
313,313,-0.11634073887702334,-0.1,0.0,1.0,342.0,668.0,1.0,0,3120.0,1
314,314,0.4585492593179882,0.5,1.0,1.0,498.0,613.0,1.0,1,1099.0,1
315,315,-0.44364312466139694,-0.4,1.0,0.0,431.0,572.0,0.0,0,1067.0,1
316,316,-0.7086027206574602,-0.7,0.0,1.0,413.0,958.0,1.0,0,179.0,1
317,317,-0.4320346059955054,-0.4,1.0,0.0,308.0,972.0,0.0,0,240.0,1
318,318,0.1606195048228135,0.2,1.0,1.0,262.0,649.0,1.0,1,369.0,1
319,319,0.06620098365632487,0.1,0.0,0.0,281.0,977.0,0.0,1,1322.0,1
320,320,0.3295336534478269,0.3,0.0,0.0,307.0,722.0,0.0,1,851.0,1
321,321,-0.5118422644870068,-0.5,1.0,0.0,304.0,894.0,0.0,0,242.0,1
322,322,-0.485373488582537,-0.5,1.0,0.0,383.0,890.0,0.0,0,117.0,1
323,323,0.5112399486135139,0.5,0.0,0.0,335.0,898.0,0.0,1,287.0,1
324,324,0.269136706123699,0.3,0.0,0.0,414.0,551.0,0.0,1,665.0,1
325,325,-0.04557445893679757,-0.0,0.0,1.0,368.0,526.0,1.0,0,2346.0,1
326,326,0.46277157400309565,0.5,0.0,0.0,450.0,901.0,0.0,1,579.0,1
327,327,0.35885726184693933,0.4,0.0,0.0,310.0,795.0,0.0,1,335.0,1
328,328,0.01165419789927502,0.0,1.0,1.0,300.0,941.0,1.0,1,359.0,1
329,329,-0.8931173546284353,-0.9,1.0,0.0,264.0,588.0,0.0,0,178.0,1
330,330,0.6964623092225429,0.7,1.0,1.0,305.0,659.0,1.0,1,516.0,1
331,331,-0.7264387888208333,-0.7,1.0,0.0,365.0,736.0,0.0,0,219.0,1
332,332,0.28608171614754563,0.3,0.0,0.0,290.0,856.0,0.0,1,184.0,1
333,333,0.25577137967094365,0.3,0.0,0.0,259.0,896.0,0.0,1,1635.0,1
334,334,-0.8178016110516356,-0.8,1.0,0.0,456.0,832.0,0.0,0,122.0,1
335,335,-0.6220633118962288,-0.6,0.0,1.0,421.0,591.0,1.0,0,308.0,1
336,336,-0.8530613307323256,-0.9,0.0,1.0,348.0,885.0,1.0,0,387.0,1
337,337,-0.5048521697216473,-0.5,1.0,0.0,340.0,796.0,0.0,0,274.0,1
338,338,0.5005499306080002,0.5,0.0,0.0,456.0,683.0,0.0,1,401.0,1
339,339,-0.6840967534446761,-0.7,1.0,0.0,381.0,617.0,0.0,0,782.0,1
340,340,0.22768487350109268,0.2,0.0,0.0,449.0,873.0,0.0,1,868.0,1
341,341,0.4301069972851027,0.4,0.0,0.0,357.0,912.0,0.0,1,741.0,1
342,342,0.17027371303898364,0.2,0.0,0.0,259.0,881.0,1.0,0,50.0,0
343,343,-0.7907941971882168,-0.8,0.0,1.0,459.0,946.0,1.0,0,275.0,1
344,344,0.14056291854510572,0.1,1.0,1.0,405.0,983.0,1.0,1,612.0,1
345,345,0.8042739137572911,0.8,0.0,0.0,371.0,882.0,0.0,1,327.0,1
346,346,-0.032763545061223365,-0.0,1.0,0.0,424.0,678.0,1.0,1,1928.0,0
347,347,-0.19156226151238287,-0.2,0.0,1.0,313.0,849.0,1.0,0,208.0,1
348,348,0.43852895722487595,0.4,0.0,0.0,251.0,925.0,0.0,1,304.0,1
349,349,0.15951585411382296,0.2,1.0,1.0,311.0,659.0,1.0,1,1120.0,1
350,350,-0.49996736817405846,-0.5,0.0,1.0,422.0,702.0,1.0,0,386.0,1
351,351,0.8082280081046781,0.8,1.0,1.0,333.0,522.0,1.0,1,85.0,1
352,352,-0.2102406025152993,-0.2,0.0,1.0,274.0,775.0,1.0,0,331.0,1
353,353,-0.8187623634115903,-0.8,1.0,0.0,495.0,644.0,0.0,0,401.0,1
354,354,0.2955231675891995,0.3,0.0,0.0,286.0,586.0,0.0,1,708.0,1
355,355,0.7854228849609922,0.8,0.0,0.0,264.0,851.0,0.0,1,385.0,1
356,356,-0.580861707453989,-0.6,1.0,0.0,367.0,698.0,0.0,0,195.0,1
357,357,0.4213655021596291,0.4,1.0,1.0,489.0,890.0,1.0,1,251.0,1
358,358,-0.327695469562431,-0.3,1.0,0.0,495.0,538.0,0.0,0,997.0,1
359,359,-0.3508349473923815,-0.4,1.0,0.0,447.0,535.0,0.0,0,558.0,1
360,360,-0.274405912685623,-0.3,1.0,0.0,437.0,588.0,0.0,0,1145.0,1
361,361,-0.6530487907293575,-0.7,1.0,0.0,346.0,832.0,0.0,0,452.0,1
362,362,-0.7097646776441343,-0.7,0.0,1.0,295.0,650.0,1.0,0,705.0,1
363,363,0.7312308605221435,0.7,1.0,1.0,262.0,895.0,1.0,1,303.0,1
364,364,-0.32926983415624167,-0.3,1.0,0.0,455.0,920.0,0.0,0,705.0,1
365,365,-0.033822308426319614,-0.0,1.0,0.0,301.0,506.0,1.0,1,903.0,0
366,366,-0.04669442302702953,-0.0,0.0,1.0,385.0,681.0,1.0,0,3574.0,1
367,367,-0.05425030769990968,-0.1,1.0,0.0,417.0,877.0,1.0,1,2286.0,0
368,368,-0.15527162512504633,-0.2,1.0,0.0,357.0,867.0,0.0,0,586.0,1
369,369,-0.1633354788873691,-0.2,1.0,0.0,369.0,883.0,0.0,0,958.0,1
370,370,0.5839861948165889,0.6,1.0,1.0,494.0,525.0,1.0,1,471.0,1
371,371,-0.28569202751509093,-0.3,0.0,1.0,359.0,736.0,1.0,0,525.0,1
372,372,-0.4568630730528328,-0.5,1.0,0.0,379.0,972.0,0.0,0,479.0,1
373,373,0.43049361764342897,0.4,0.0,0.0,442.0,894.0,0.0,1,524.0,1
374,374,-0.1276625684737691,-0.1,1.0,0.0,277.0,800.0,0.0,0,643.0,1
375,375,0.25735164462167204,0.3,1.0,1.0,461.0,910.0,1.0,1,149.0,1
376,376,0.1793826319007078,0.2,1.0,1.0,360.0,920.0,1.0,1,530.0,1
377,377,0.56557181879751,0.6,0.0,0.0,378.0,830.0,0.0,1,302.0,1
378,378,-0.5146215259550456,-0.5,0.0,1.0,426.0,846.0,1.0,0,148.0,1
379,379,-0.8192564569213862,-0.8,0.0,1.0,281.0,867.0,1.0,0,62.0,1
380,380,-0.7416979959373585,-0.7,1.0,0.0,293.0,791.0,0.0,0,326.0,1
381,381,0.4618295316518334,0.5,0.0,0.0,412.0,667.0,0.0,1,451.0,1
382,382,-0.37346623872018725,-0.4,0.0,1.0,278.0,872.0,1.0,0,550.0,1
383,383,0.854022112705019,0.9,1.0,1.0,273.0,846.0,1.0,1,171.0,1
384,384,0.41525389559674586,0.4,0.0,0.0,478.0,755.0,0.0,1,297.0,1
385,385,-0.10969357488809428,-0.1,1.0,0.0,474.0,730.0,0.0,0,986.0,1
386,386,-0.12240310422636802,-0.1,0.0,1.0,478.0,877.0,1.0,0,1515.0,1
387,387,-0.09093899053828802,-0.1,0.0,1.0,441.0,678.0,1.0,0,2171.0,1
388,388,-0.1807322133278264,-0.2,1.0,0.0,408.0,715.0,0.0,0,537.0,1
389,389,-0.736192641067513,-0.7,0.0,1.0,403.0,731.0,1.0,0,206.0,1
390,390,-0.10130972701947982,-0.1,0.0,1.0,385.0,610.0,1.0,0,1315.0,1
391,391,-0.22736379610079593,-0.2,0.0,1.0,464.0,713.0,1.0,0,693.0,1
392,392,-0.7332087937863837,-0.7,1.0,0.0,253.0,652.0,0.0,0,675.0,1
393,393,-0.3864991944243483,-0.4,1.0,0.0,481.0,526.0,0.0,0,593.0,1
394,394,0.06716156196763812,0.1,0.0,0.0,305.0,936.0,0.0,1,489.0,1
395,395,-0.7601913230989163,-0.8,1.0,0.0,480.0,522.0,0.0,0,458.0,1
396,396,0.42747811147906856,0.4,0.0,0.0,434.0,887.0,0.0,1,369.0,1
397,397,0.4749954115337732,0.5,0.0,0.0,296.0,864.0,0.0,1,230.0,1
398,398,-0.8517390081699405,-0.9,0.0,1.0,276.0,971.0,1.0,0,223.0,1
399,399,0.26331082158558405,0.3,0.0,0.0,400.0,587.0,0.0,1,643.0,1
400,400,-0.36607304221195447,-0.4,0.0,1.0,354.0,781.0,1.0,0,145.0,1
401,401,-0.2248891284861746,-0.2,1.0,0.0,270.0,582.0,0.0,0,1948.0,1
402,402,0.3913198199917617,0.4,1.0,1.0,274.0,541.0,1.0,1,525.0,1
403,403,0.8131610381524895,0.8,0.0,0.0,385.0,988.0,0.0,1,347.0,1
404,404,0.5899501152311365,0.6,0.0,0.0,410.0,773.0,0.0,1,197.0,1
405,405,-0.1969844790674482,-0.2,0.0,1.0,346.0,975.0,1.0,0,669.0,1
406,406,-0.8487545112099608,-0.8,1.0,0.0,362.0,857.0,0.0,0,341.0,1
407,407,0.4653817455358523,0.5,1.0,1.0,287.0,933.0,1.0,1,680.0,1
408,408,0.8666813018972915,0.9,0.0,0.0,304.0,748.0,0.0,1,108.0,1
409,409,-0.5726706363031464,-0.6,1.0,0.0,317.0,929.0,0.0,0,234.0,1
410,410,0.06481364011967361,0.1,0.0,0.0,275.0,819.0,0.0,1,46.0,1
411,411,-0.050324322413943134,-0.1,1.0,0.0,279.0,829.0,0.0,0,3892.0,1
412,412,-0.7817725358351513,-0.8,1.0,0.0,354.0,858.0,0.0,0,228.0,1
413,413,-0.1328234781381793,-0.1,1.0,0.0,463.0,738.0,0.0,0,3799.0,1
414,414,-0.4784422023881697,-0.5,0.0,1.0,337.0,525.0,1.0,0,488.0,1
415,415,-0.3136728145528084,-0.3,0.0,1.0,346.0,973.0,1.0,0,281.0,1
416,416,-0.4961429370347609,-0.5,1.0,0.0,277.0,610.0,0.0,0,753.0,1
417,417,-0.04874732315710406,-0.0,0.0,1.0,324.0,816.0,1.0,0,3860.0,1
418,418,0.6850132308191478,0.7,0.0,0.0,414.0,843.0,0.0,1,303.0,1
419,419,-0.035073545534099804,-0.0,1.0,0.0,499.0,808.0,0.0,0,353.0,1
420,420,0.7938933261646358,0.8,1.0,1.0,307.0,859.0,1.0,1,294.0,1
421,421,0.2598389212838782,0.3,1.0,1.0,327.0,914.0,1.0,1,309.0,1
422,422,0.6115660599060383,0.6,0.0,0.0,271.0,814.0,0.0,1,345.0,1
423,423,0.6962309861514558,0.7,1.0,1.0,466.0,623.0,1.0,1,461.0,1
424,424,0.41289563146968244,0.4,0.0,0.0,259.0,626.0,0.0,1,365.0,1
425,425,-0.6608124816263736,-0.7,0.0,1.0,337.0,731.0,1.0,0,402.0,1
426,426,-0.45278295114193706,-0.5,0.0,1.0,421.0,589.0,1.0,0,240.0,1
427,427,0.7405117559869973,0.7,0.0,0.0,359.0,956.0,0.0,1,145.0,1
428,428,0.2884765860419217,0.3,0.0,0.0,384.0,681.0,0.0,1,405.0,1
429,429,0.4555252317416246,0.5,0.0,0.0,430.0,928.0,0.0,1,212.0,1
430,430,-0.21183188721657664,-0.2,0.0,1.0,459.0,883.0,1.0,0,548.0,1
431,431,-0.054573162818260856,-0.1,0.0,1.0,490.0,845.0,0.0,1,3665.0,0
432,432,-0.701925967452542,-0.7,1.0,0.0,444.0,964.0,0.0,0,192.0,1
433,433,-0.5310633607696614,-0.5,0.0,1.0,426.0,730.0,1.0,0,344.0,1
434,434,-0.10797764962132328,-0.1,0.0,1.0,290.0,818.0,1.0,0,912.0,1
435,435,0.584142111256205,0.6,0.0,0.0,479.0,832.0,0.0,1,389.0,1
436,436,-0.7868688191279833,-0.8,1.0,0.0,411.0,951.0,0.0,0,388.0,1
437,437,-0.6919707352243909,-0.7,1.0,0.0,417.0,966.0,0.0,0,317.0,1
438,438,0.251094550156456,0.3,0.0,0.0,252.0,869.0,0.0,1,339.0,1
439,439,-0.5903334165229508,-0.6,1.0,0.0,323.0,686.0,0.0,0,271.0,1
440,440,0.45721554566794087,0.5,1.0,1.0,334.0,899.0,1.0,1,187.0,1
441,441,-0.551991827879363,-0.6,1.0,0.0,412.0,762.0,0.0,0,556.0,1
442,442,0.39424386436288417,0.4,1.0,1.0,250.0,920.0,1.0,1,280.0,1
443,443,0.3521997827515043,0.4,1.0,1.0,302.0,716.0,1.0,1,342.0,1
444,444,0.20830923302540982,0.2,1.0,1.0,307.0,792.0,1.0,1,711.0,1
445,445,0.11865229936923194,0.1,1.0,1.0,371.0,840.0,1.0,1,3419.0,1
446,446,-0.27531412548529843,-0.3,1.0,0.0,483.0,698.0,0.0,0,369.0,1
447,447,-0.3312841113114471,-0.3,1.0,0.0,368.0,597.0,0.0,0,725.0,1
448,448,-0.575195904802208,-0.6,1.0,0.0,333.0,552.0,0.0,0,315.0,1
449,449,-0.8021886281844576,-0.8,1.0,0.0,438.0,638.0,0.0,0,234.0,1
450,450,-0.2251098073470903,-0.2,1.0,0.0,333.0,608.0,0.0,0,1569.0,1
451,451,0.5031125731225218,0.5,0.0,0.0,459.0,650.0,0.0,1,291.0,1
452,452,0.17702363560939494,0.2,1.0,1.0,268.0,873.0,1.0,1,1159.0,1
453,453,0.6542975853645229,0.7,0.0,0.0,344.0,898.0,0.0,1,218.0,1
454,454,-0.4304948099020953,-0.4,1.0,0.0,429.0,515.0,0.0,0,586.0,1
455,455,-0.7669569733849981,-0.8,0.0,1.0,361.0,921.0,1.0,0,318.0,1
456,456,0.708179676432212,0.7,0.0,0.0,391.0,786.0,0.0,1,193.0,1
457,457,-0.294573838839566,-0.3,0.0,1.0,274.0,634.0,1.0,0,482.0,1
458,458,0.025109787162148733,0.0,1.0,1.0,355.0,981.0,1.0,1,774.0,1
459,459,0.02120542426023675,0.0,0.0,0.0,259.0,987.0,0.0,1,2654.0,1
460,460,0.4402730302184267,0.4,0.0,0.0,300.0,958.0,0.0,1,322.0,1
461,461,0.012099906559217444,0.0,1.0,1.0,483.0,959.0,1.0,1,418.0,1
462,462,-0.5203138325659709,-0.5,0.0,1.0,395.0,884.0,1.0,0,181.0,1
463,463,-0.36463182506184655,-0.4,1.0,0.0,365.0,805.0,0.0,0,370.0,1
464,464,-0.5462757398017115,-0.5,0.0,1.0,374.0,702.0,1.0,0,254.0,1
465,465,0.6466235256787086,0.6,0.0,0.0,289.0,756.0,0.0,1,375.0,1
466,466,0.7529107530592251,0.8,0.0,0.0,461.0,550.0,0.0,1,479.0,1
467,467,0.4300567310926676,0.4,0.0,0.0,323.0,531.0,0.0,1,616.0,1
468,468,-0.14180705229336898,-0.1,1.0,0.0,345.0,511.0,0.0,0,744.0,1
469,469,0.13487444911583546,0.1,0.0,0.0,261.0,773.0,0.0,1,986.0,1
470,470,-0.4074061572218131,-0.4,0.0,1.0,368.0,883.0,1.0,0,199.0,1
471,471,0.686295600832954,0.7,1.0,1.0,466.0,882.0,1.0,1,312.0,1
472,472,-0.12036582287275455,-0.1,1.0,0.0,477.0,755.0,0.0,0,1148.0,1
473,473,0.1811478213095482,0.2,1.0,1.0,482.0,668.0,1.0,1,700.0,1
474,474,0.04759792168015331,0.0,0.0,0.0,319.0,621.0,0.0,1,2520.0,1
475,475,0.6889169818725956,0.7,1.0,1.0,329.0,500.0,1.0,1,471.0,1
476,476,-0.37723342227928947,-0.4,0.0,1.0,376.0,888.0,1.0,0,436.0,1
477,477,-0.5231700024168116,-0.5,1.0,0.0,309.0,984.0,0.0,0,297.0,1
478,478,-0.27861235678009033,-0.3,0.0,1.0,380.0,599.0,1.0,0,611.0,1
479,479,-0.8895962988350955,-0.9,1.0,0.0,371.0,763.0,0.0,0,216.0,1
480,480,-0.08532170015869078,-0.1,0.0,1.0,368.0,995.0,1.0,0,737.0,1
481,481,-0.5422032871175093,-0.5,1.0,0.0,493.0,739.0,0.0,0,398.0,1
482,482,-0.642059952454026,-0.6,1.0,0.0,311.0,592.0,0.0,0,377.0,1
483,483,0.5420162095760465,0.5,0.0,0.0,274.0,887.0,0.0,1,1019.0,1
484,484,0.17746615788509035,0.2,1.0,1.0,480.0,548.0,1.0,1,1242.0,1
485,485,0.8052731140330623,0.8,1.0,1.0,285.0,791.0,1.0,1,434.0,1
486,486,-0.7456708987818639,-0.7,0.0,1.0,303.0,885.0,1.0,0,162.0,1
487,487,-0.34935721708553324,-0.3,1.0,0.0,319.0,772.0,0.0,0,1029.0,1
488,488,-0.4086058763589294,-0.4,1.0,0.0,318.0,666.0,0.0,0,746.0,1
489,489,-0.36164200555181425,-0.4,0.0,1.0,276.0,713.0,1.0,0,601.0,1
490,490,-0.25220901326358025,-0.3,0.0,1.0,412.0,930.0,1.0,0,438.0,1
491,491,-0.608886452949286,-0.6,1.0,0.0,446.0,774.0,0.0,0,540.0,1
492,492,-0.26641288376990235,-0.3,1.0,0.0,419.0,873.0,0.0,0,478.0,1
493,493,0.1925181249719815,0.2,0.0,0.0,278.0,853.0,0.0,1,399.0,1
494,494,0.8922900518450126,0.9,0.0,0.0,359.0,947.0,0.0,1,274.0,1
495,495,0.5206898609555893,0.5,1.0,1.0,392.0,759.0,1.0,1,179.0,1
496,496,0.13261377085534554,0.1,1.0,1.0,419.0,620.0,1.0,1,881.0,1
497,497,0.4474508954077313,0.4,0.0,0.0,334.0,778.0,0.0,1,798.0,1
498,498,-0.7285106382639871,-0.7,1.0,0.0,384.0,796.0,0.0,0,390.0,1
499,499,0.613348170601233,0.6,0.0,0.0,282.0,911.0,0.0,1,707.0,1
500,500,0.06877006101235683,0.1,0.0,0.0,261.0,871.0,0.0,1,2308.0,1
501,501,-0.2670159207656342,-0.3,0.0,1.0,490.0,952.0,1.0,0,618.0,1
502,502,-0.6100594021372543,-0.6,1.0,0.0,250.0,925.0,0.0,0,405.0,1
503,503,0.7181547356985817,0.7,0.0,0.0,313.0,914.0,0.0,1,223.0,1
504,504,0.5611312991120118,0.6,1.0,1.0,370.0,750.0,1.0,1,300.0,1
505,505,0.6065677205519789,0.6,1.0,1.0,461.0,639.0,1.0,1,530.0,1
506,506,0.3508020757552458,0.4,0.0,0.0,302.0,971.0,0.0,1,447.0,1
507,507,0.22878443655220593,0.2,0.0,0.0,304.0,585.0,0.0,1,611.0,1
508,508,0.755049524183555,0.8,1.0,1.0,381.0,946.0,1.0,1,173.0,1
509,509,-0.5022183465667877,-0.5,1.0,0.0,330.0,902.0,0.0,0,398.0,1
510,510,0.7327791720156099,0.7,1.0,1.0,417.0,762.0,1.0,1,101.0,1
511,511,-0.4169840155656355,-0.4,0.0,1.0,429.0,808.0,1.0,0,203.0,1
512,512,0.7711222282410778,0.8,1.0,1.0,484.0,649.0,1.0,1,267.0,1
513,513,0.8028058444438214,0.8,1.0,1.0,271.0,902.0,1.0,1,-43.0,1
514,514,0.16869195189817432,0.2,0.0,0.0,407.0,664.0,0.0,1,1319.0,1
515,515,0.5561794502183176,0.6,1.0,1.0,296.0,592.0,1.0,1,312.0,1
516,516,0.2528455854420627,0.3,1.0,1.0,366.0,531.0,1.0,1,1073.0,1
517,517,-0.17302203687663054,-0.2,1.0,0.0,418.0,915.0,0.0,0,387.0,1
518,518,0.6702593278907926,0.7,0.0,0.0,344.0,904.0,0.0,1,332.0,1
519,519,-0.30128845722840847,-0.3,1.0,0.0,251.0,818.0,0.0,0,1131.0,1
520,520,0.019207547265255198,0.0,1.0,1.0,405.0,561.0,1.0,1,4034.0,1
521,521,-0.25149883964643915,-0.3,0.0,1.0,416.0,762.0,1.0,0,392.0,1
522,522,0.044157043684515895,0.0,1.0,1.0,282.0,861.0,1.0,1,1047.0,1
523,523,-0.8110130065120313,-0.8,1.0,0.0,338.0,753.0,0.0,0,509.0,1
524,524,0.7707121862675103,0.8,1.0,1.0,286.0,642.0,1.0,1,372.0,1
525,525,-0.38467060142781884,-0.4,1.0,0.0,426.0,781.0,0.0,0,683.0,1
526,526,-0.07484253373692273,-0.1,0.0,1.0,464.0,873.0,1.0,0,723.0,1
527,527,0.20928746575545543,0.2,1.0,1.0,356.0,520.0,1.0,1,1174.0,1
528,528,-0.04827913853402177,-0.0,1.0,0.0,437.0,730.0,0.0,0,583.0,1
529,529,0.06228214727327874,0.1,0.0,0.0,424.0,581.0,0.0,1,1675.0,1
530,530,0.858981768593195,0.9,1.0,1.0,305.0,869.0,1.0,1,216.0,1
531,531,-0.8926464466784191,-0.9,0.0,1.0,407.0,604.0,1.0,0,339.0,1
532,532,0.01381177261094435,0.0,1.0,1.0,319.0,947.0,1.0,1,534.0,1
533,533,0.8691620453902363,0.9,1.0,1.0,367.0,588.0,1.0,1,395.0,1
534,534,0.7230418096509873,0.7,0.0,0.0,333.0,904.0,0.0,1,243.0,1
535,535,-0.8867856522914093,-0.9,1.0,0.0,484.0,603.0,0.0,0,293.0,1
536,536,0.8136019758939358,0.8,1.0,1.0,387.0,985.0,1.0,1,158.0,1
537,537,0.0019471446023514583,0.0,1.0,1.0,477.0,752.0,1.0,1,3771.0,1
538,538,-0.8387362173758582,-0.8,0.0,1.0,371.0,966.0,1.0,0,143.0,1
539,539,-0.5378477241196866,-0.5,0.0,1.0,391.0,537.0,1.0,0,612.0,1
540,540,0.3201335805978943,0.3,1.0,1.0,325.0,894.0,1.0,1,411.0,1
541,541,-0.37515321363546517,-0.4,1.0,0.0,387.0,632.0,0.0,0,531.0,1
542,542,0.8676964778096145,0.9,0.0,0.0,433.0,767.0,0.0,1,360.0,1
543,543,-0.2329498926160588,-0.2,0.0,1.0,261.0,657.0,1.0,0,342.0,1
544,544,0.8606131679374159,0.9,0.0,0.0,438.0,710.0,0.0,1,342.0,1
545,545,-0.2549083585990576,-0.3,0.0,1.0,272.0,555.0,1.0,0,1303.0,1
546,546,-0.49923164240254553,-0.5,1.0,0.0,487.0,615.0,0.0,0,858.0,1
547,547,-0.4797036603685852,-0.5,0.0,1.0,468.0,585.0,1.0,0,1137.0,1
548,548,0.00766072422128361,0.0,1.0,1.0,357.0,815.0,1.0,1,238.0,1
549,549,0.8582352257603457,0.9,1.0,1.0,258.0,802.0,1.0,1,410.0,1
550,550,-0.7068009729695974,-0.7,1.0,0.0,356.0,760.0,0.0,0,284.0,1
551,551,-0.7137553347176521,-0.7,0.0,1.0,281.0,617.0,1.0,0,442.0,1
552,552,-0.026940144430280588,-0.0,1.0,0.0,279.0,996.0,1.0,1,465.0,0
553,553,0.09446766395404615,0.1,0.0,0.0,434.0,585.0,0.0,1,3031.0,1
554,554,0.32409970037487235,0.3,0.0,0.0,348.0,533.0,0.0,1,429.0,1
555,555,-0.6953779618546407,-0.7,0.0,1.0,326.0,550.0,1.0,0,494.0,1
556,556,-0.0014282711364626,-0.0,0.0,1.0,384.0,503.0,0.0,1,2863.0,0
557,557,0.5209262956267037,0.5,1.0,1.0,484.0,834.0,1.0,1,702.0,1
558,558,-0.140724064732471,-0.1,0.0,1.0,353.0,802.0,1.0,0,1905.0,1
559,559,-0.46393434476734186,-0.5,0.0,1.0,279.0,812.0,1.0,0,409.0,1
560,560,-0.8782986891258799,-0.9,1.0,0.0,454.0,605.0,0.0,0,421.0,1
561,561,-0.362083290045795,-0.4,1.0,0.0,313.0,808.0,0.0,0,499.0,1
562,562,0.7401253898081163,0.7,0.0,0.0,450.0,996.0,0.0,1,514.0,1
563,563,0.19079051124770985,0.2,1.0,1.0,280.0,695.0,1.0,1,3115.0,1
564,564,0.4916089167892016,0.5,1.0,1.0,321.0,893.0,1.0,1,196.0,1
565,565,0.6244818276455492,0.6,1.0,1.0,327.0,681.0,1.0,1,1032.0,1
566,566,-0.6839802299039112,-0.7,0.0,1.0,290.0,610.0,1.0,0,350.0,1
567,567,-0.6552950491848311,-0.7,1.0,0.0,395.0,920.0,0.0,0,385.0,1
568,568,-0.8097659255758536,-0.8,1.0,0.0,285.0,536.0,0.0,0,259.0,1
569,569,0.05050915860347216,0.1,0.0,0.0,396.0,649.0,0.0,1,1015.0,1
570,570,-0.29201207249259287,-0.3,0.0,1.0,307.0,691.0,1.0,0,252.0,1
571,571,0.38014336708584484,0.4,0.0,0.0,397.0,541.0,0.0,1,542.0,1
572,572,-0.38018451826772837,-0.4,1.0,0.0,464.0,699.0,0.0,0,427.0,1
573,573,-0.6265551288968088,-0.6,0.0,1.0,254.0,970.0,1.0,0,186.0,1
574,574,-0.15520401150656893,-0.2,1.0,0.0,434.0,568.0,0.0,0,618.0,1
575,575,-0.7266823337512864,-0.7,1.0,0.0,461.0,900.0,0.0,0,639.0,1
576,576,0.6149178549360815,0.6,1.0,1.0,487.0,664.0,1.0,1,659.0,1
577,577,0.710995364259757,0.7,0.0,0.0,478.0,961.0,0.0,1,231.0,1
578,578,-0.5579582501280775,-0.6,1.0,0.0,351.0,855.0,0.0,0,444.0,1
579,579,0.2026612225051848,0.2,1.0,1.0,316.0,766.0,1.0,1,728.0,1
580,580,-0.47491900709742624,-0.5,1.0,0.0,324.0,869.0,0.0,0,557.0,1
581,581,-0.7083893888806236,-0.7,1.0,0.0,480.0,602.0,0.0,0,308.0,1
582,582,-0.7788462049481805,-0.8,1.0,0.0,358.0,817.0,0.0,0,235.0,1
583,583,-0.011942389140592646,-0.0,1.0,0.0,415.0,565.0,1.0,1,4020.0,0
584,584,0.5658373384231127,0.6,0.0,0.0,458.0,680.0,0.0,1,942.0,1
585,585,-0.7696077626385992,-0.8,0.0,1.0,299.0,935.0,1.0,0,186.0,1
586,586,-0.3451178169645478,-0.3,1.0,0.0,379.0,645.0,0.0,0,746.0,1
587,587,-0.1552959562261732,-0.2,1.0,0.0,408.0,640.0,0.0,0,722.0,1
588,588,-0.7257247760492542,-0.7,1.0,0.0,375.0,870.0,0.0,0,355.0,1
589,589,-0.05514781585085349,-0.1,0.0,1.0,276.0,546.0,1.0,0,3698.0,1
590,590,-0.47432271079025473,-0.5,0.0,1.0,422.0,887.0,1.0,0,1161.0,1
591,591,-0.17585793689853113,-0.2,0.0,1.0,286.0,947.0,1.0,0,467.0,1
592,592,-0.8430599062719581,-0.8,0.0,1.0,291.0,592.0,1.0,0,597.0,1
593,593,0.29067119762712423,0.3,0.0,0.0,278.0,902.0,0.0,1,250.0,1
594,594,-0.6496192675794017,-0.6,1.0,0.0,468.0,509.0,0.0,0,533.0,1
595,595,0.4786313695081489,0.5,1.0,1.0,292.0,736.0,1.0,1,882.0,1
596,596,-0.008204961038667413,-0.0,0.0,1.0,482.0,942.0,1.0,0,1316.0,1
597,597,0.6077026381565332,0.6,0.0,0.0,306.0,990.0,0.0,1,374.0,1
598,598,0.8393444749563325,0.8,1.0,1.0,391.0,903.0,1.0,1,246.0,1
599,599,0.018890567489579957,0.0,0.0,0.0,269.0,959.0,1.0,0,2482.0,0
600,600,0.1796539541896237,0.2,1.0,1.0,262.0,627.0,1.0,1,691.0,1
601,601,0.3391485121704275,0.3,1.0,1.0,376.0,538.0,1.0,1,636.0,1
602,602,-0.13442507911144752,-0.1,0.0,1.0,346.0,829.0,1.0,0,955.0,1
603,603,0.3566525851658081,0.4,0.0,0.0,281.0,805.0,0.0,1,294.0,1
604,604,-0.27082811879126967,-0.3,1.0,0.0,257.0,904.0,0.0,0,399.0,1
605,605,0.08705185022885287,0.1,1.0,1.0,339.0,595.0,1.0,1,1186.0,1
606,606,0.6924334415398051,0.7,1.0,1.0,431.0,950.0,1.0,1,259.0,1
607,607,-0.23549817439430298,-0.2,0.0,1.0,464.0,757.0,1.0,0,609.0,1
608,608,-0.454700716051675,-0.5,0.0,1.0,462.0,557.0,1.0,0,411.0,1
609,609,-0.16420756842428763,-0.2,0.0,1.0,404.0,783.0,1.0,0,653.0,1
610,610,0.657011758836772,0.7,0.0,0.0,492.0,925.0,0.0,1,333.0,1
611,611,0.07464846203453246,0.1,0.0,0.0,317.0,869.0,0.0,1,354.0,1
612,612,-0.01261516818637698,-0.0,0.0,1.0,450.0,817.0,1.0,0,783.0,1
613,613,-0.360484080145425,-0.4,1.0,0.0,288.0,952.0,0.0,0,230.0,1
614,614,0.4829922023845262,0.5,1.0,1.0,413.0,880.0,1.0,1,317.0,1
615,615,0.16727545780560782,0.2,0.0,0.0,424.0,824.0,0.0,1,2022.0,1
616,616,0.7480495060456306,0.7,1.0,1.0,366.0,997.0,1.0,1,227.0,1
617,617,0.7714320355867251,0.8,0.0,0.0,302.0,602.0,0.0,1,556.0,1
618,618,-0.41481741141659034,-0.4,1.0,0.0,494.0,873.0,0.0,0,373.0,1
619,619,0.785578486597604,0.8,1.0,1.0,471.0,841.0,1.0,1,118.0,1
620,620,-0.5957426853240932,-0.6,0.0,1.0,494.0,888.0,1.0,0,368.0,1
621,621,0.6609320576034247,0.7,0.0,0.0,477.0,694.0,0.0,1,219.0,1
622,622,-0.8925185012893984,-0.9,1.0,0.0,341.0,579.0,0.0,0,330.0,1
623,623,0.8066040483602476,0.8,1.0,1.0,440.0,711.0,1.0,1,299.0,1
624,624,-0.25944298583008696,-0.3,0.0,1.0,273.0,786.0,1.0,0,281.0,1
625,625,-0.1065925699149255,-0.1,1.0,0.0,408.0,972.0,0.0,0,1710.0,1
626,626,-0.10301819597166173,-0.1,0.0,1.0,299.0,529.0,1.0,0,602.0,1
627,627,0.5761240547861374,0.6,0.0,0.0,269.0,757.0,0.0,1,794.0,1
628,628,-0.5350995044401822,-0.5,1.0,0.0,283.0,571.0,0.0,0,206.0,1
629,629,0.4343906867514761,0.4,1.0,1.0,269.0,681.0,1.0,1,520.0,1
630,630,-0.2503358358107519,-0.3,0.0,1.0,457.0,624.0,1.0,0,1969.0,1
631,631,0.11973862997467977,0.1,1.0,1.0,379.0,847.0,1.0,1,654.0,1
632,632,-0.8429226755818493,-0.8,0.0,1.0,305.0,867.0,1.0,0,398.0,1
633,633,0.8800966034363676,0.9,0.0,0.0,489.0,567.0,0.0,1,354.0,1
634,634,-0.366395032946514,-0.4,0.0,1.0,285.0,669.0,1.0,0,126.0,1
635,635,-0.790294819203679,-0.8,0.0,1.0,468.0,884.0,1.0,0,148.0,1
636,636,-0.5888773334938029,-0.6,1.0,0.0,254.0,549.0,0.0,0,637.0,1
637,637,0.6664651586446385,0.7,0.0,0.0,497.0,714.0,0.0,1,359.0,1
638,638,-0.35683557029275836,-0.4,1.0,0.0,339.0,555.0,0.0,0,926.0,1
639,639,-0.8400052801043879,-0.8,0.0,1.0,260.0,526.0,1.0,0,394.0,1
640,640,0.21134868341336965,0.2,1.0,1.0,269.0,542.0,1.0,1,729.0,1
641,641,-0.6262568384139555,-0.6,0.0,1.0,365.0,523.0,1.0,0,562.0,1
642,642,0.18774671736271242,0.2,0.0,0.0,263.0,722.0,0.0,1,1235.0,1
643,643,0.6997063809506899,0.7,1.0,1.0,368.0,815.0,1.0,1,77.0,1
644,644,0.07588058755681748,0.1,1.0,1.0,403.0,758.0,1.0,1,1049.0,1
645,645,0.12168717847914678,0.1,1.0,1.0,326.0,554.0,1.0,1,610.0,1
646,646,0.6843453584111189,0.7,1.0,1.0,310.0,562.0,1.0,1,448.0,1
647,647,-0.5067879681586873,-0.5,1.0,0.0,452.0,638.0,0.0,0,610.0,1
648,648,0.5992191344688816,0.6,1.0,1.0,478.0,884.0,1.0,1,158.0,1
649,649,-0.43687679688512326,-0.4,0.0,1.0,304.0,681.0,1.0,0,515.0,1
650,650,-0.1593746442829853,-0.2,1.0,0.0,419.0,607.0,1.0,1,304.0,0
651,651,-0.33886234878445787,-0.3,0.0,1.0,498.0,559.0,1.0,0,483.0,1
652,652,-0.42213804029851787,-0.4,1.0,0.0,381.0,746.0,0.0,0,843.0,1
653,653,-0.7828609844559632,-0.8,1.0,0.0,275.0,764.0,0.0,0,271.0,1
654,654,0.12315382919075157,0.1,0.0,0.0,431.0,548.0,0.0,1,1151.0,1
655,655,-0.24119623254300349,-0.2,1.0,0.0,485.0,800.0,0.0,0,885.0,1
656,656,0.7478545907081185,0.7,1.0,1.0,424.0,900.0,1.0,1,76.0,1
657,657,-0.3325974006057356,-0.3,1.0,0.0,428.0,625.0,0.0,0,1367.0,1
658,658,-0.10542882322752456,-0.1,0.0,1.0,369.0,907.0,1.0,0,1044.0,1
659,659,-0.4013187936908323,-0.4,0.0,1.0,322.0,591.0,1.0,0,967.0,1
660,660,-0.3555258320175049,-0.4,1.0,0.0,402.0,877.0,0.0,0,341.0,1
661,661,-0.8071173103716422,-0.8,1.0,0.0,403.0,818.0,0.0,0,489.0,1
662,662,-0.3607300402171949,-0.4,1.0,0.0,383.0,661.0,0.0,0,866.0,1
663,663,-0.787244064490625,-0.8,1.0,0.0,320.0,525.0,0.0,0,645.0,1
664,664,0.6779193647360028,0.7,0.0,0.0,396.0,784.0,0.0,1,270.0,1
665,665,0.6891012332152043,0.7,0.0,0.0,423.0,688.0,0.0,1,549.0,1
666,666,0.1766794963340551,0.2,1.0,1.0,320.0,778.0,1.0,1,332.0,1
667,667,0.3744989857495348,0.4,0.0,0.0,349.0,724.0,0.0,1,377.0,1
668,668,0.0919331088679326,0.1,0.0,0.0,346.0,857.0,1.0,0,57.0,0
669,669,0.10584974759803345,0.1,1.0,1.0,268.0,819.0,1.0,1,373.0,1
670,670,0.0002611545020851924,0.0,0.0,0.0,309.0,944.0,0.0,1,3747.0,1
671,671,-0.45794032879117696,-0.5,0.0,1.0,481.0,909.0,1.0,0,290.0,1
672,672,0.3770507552042254,0.4,0.0,0.0,447.0,814.0,0.0,1,519.0,1
673,673,0.21216945222031158,0.2,1.0,1.0,358.0,536.0,1.0,1,696.0,1
674,674,-0.6992853511340381,-0.7,1.0,0.0,291.0,715.0,0.0,0,674.0,1
675,675,-0.595285510560552,-0.6,1.0,0.0,328.0,877.0,0.0,0,335.0,1
676,676,-0.8018796334618546,-0.8,1.0,0.0,303.0,819.0,0.0,0,268.0,1
677,677,-0.6794703146973721,-0.7,1.0,0.0,317.0,757.0,0.0,0,436.0,1
678,678,0.2620247774937331,0.3,1.0,1.0,305.0,770.0,1.0,1,265.0,1
679,679,-0.5006038689299248,-0.5,0.0,1.0,405.0,732.0,1.0,0,473.0,1
680,680,-0.8484564289172846,-0.8,0.0,1.0,387.0,772.0,1.0,0,421.0,1
681,681,0.7931315945891187,0.8,1.0,1.0,264.0,982.0,1.0,1,444.0,1
682,682,0.2355093458127585,0.2,0.0,0.0,259.0,760.0,0.0,1,1061.0,1
683,683,-0.17332145608670613,-0.2,0.0,1.0,476.0,514.0,1.0,0,2530.0,1
684,684,0.8226807485033717,0.8,0.0,0.0,271.0,733.0,0.0,1,356.0,1
685,685,-0.3652102206045811,-0.4,0.0,1.0,444.0,512.0,1.0,0,504.0,1
686,686,0.6139380853537958,0.6,1.0,1.0,276.0,633.0,1.0,1,421.0,1
687,687,0.8840656168687079,0.9,1.0,1.0,284.0,855.0,1.0,1,111.0,1
688,688,0.327977980756352,0.3,1.0,1.0,309.0,854.0,1.0,1,327.0,1
689,689,-0.3070713656930065,-0.3,1.0,0.0,437.0,598.0,0.0,0,845.0,1
690,690,0.4484294848119067,0.4,0.0,0.0,349.0,812.0,0.0,1,369.0,1
691,691,-0.5280548666022243,-0.5,1.0,0.0,496.0,776.0,0.0,0,468.0,1
692,692,-0.8214277764732991,-0.8,0.0,1.0,432.0,846.0,1.0,0,392.0,1
693,693,0.6549522198704688,0.7,0.0,0.0,295.0,703.0,0.0,1,772.0,1
694,694,0.5918052727679121,0.6,1.0,1.0,469.0,802.0,1.0,1,479.0,1
695,695,-0.2773606187866686,-0.3,0.0,1.0,344.0,626.0,1.0,0,400.0,1
696,696,-0.03718176392579364,-0.0,1.0,0.0,351.0,658.0,0.0,0,2461.0,1
697,697,0.1590703447798748,0.2,0.0,0.0,304.0,929.0,0.0,1,467.0,1
698,698,-0.6474562711505187,-0.6,0.0,1.0,337.0,701.0,1.0,0,512.0,1
699,699,-0.10075047114872182,-0.1,0.0,1.0,410.0,655.0,1.0,0,1325.0,1
700,700,0.3009081027923842,0.3,1.0,1.0,388.0,553.0,1.0,1,1079.0,1
701,701,0.29272578705698915,0.3,1.0,1.0,256.0,554.0,1.0,1,690.0,1
702,702,-0.6236179801572022,-0.6,1.0,0.0,288.0,898.0,0.0,0,294.0,1
703,703,-0.755428415686638,-0.8,1.0,0.0,295.0,781.0,0.0,0,324.0,1
704,704,0.4577036682868686,0.5,0.0,0.0,255.0,766.0,0.0,1,209.0,1
705,705,0.6707309253083903,0.7,0.0,0.0,303.0,702.0,0.0,1,225.0,1
706,706,0.4783296288537623,0.5,0.0,0.0,457.0,536.0,0.0,1,277.0,1
707,707,-0.3910985942664491,-0.4,1.0,0.0,335.0,591.0,0.0,0,884.0,1
708,708,-0.19697482456807425,-0.2,0.0,1.0,275.0,585.0,1.0,0,1310.0,1
709,709,0.7347448330382741,0.7,1.0,1.0,494.0,995.0,1.0,1,111.0,1
710,710,-0.7186005026532795,-0.7,1.0,0.0,393.0,574.0,0.0,0,503.0,1
711,711,-0.4672275269019814,-0.5,1.0,0.0,461.0,690.0,0.0,0,879.0,1
712,712,0.6891600169669635,0.7,0.0,0.0,483.0,534.0,0.0,1,683.0,1
713,713,-0.0008038699976076202,-0.0,1.0,0.0,272.0,920.0,1.0,1,18.0,0
714,714,-0.25607278291895963,-0.3,0.0,1.0,476.0,995.0,1.0,0,349.0,1
715,715,-0.6680320191322681,-0.7,1.0,0.0,489.0,791.0,0.0,0,280.0,1
716,716,-0.648558330663758,-0.6,0.0,1.0,277.0,919.0,1.0,0,224.0,1
717,717,-0.7088074341766625,-0.7,1.0,0.0,282.0,988.0,0.0,0,200.0,1
718,718,-0.5957695222532327,-0.6,0.0,1.0,269.0,850.0,1.0,0,71.0,1
719,719,-0.20735431851406627,-0.2,1.0,0.0,338.0,982.0,0.0,0,440.0,1
720,720,0.13627232336863393,0.1,1.0,1.0,472.0,585.0,1.0,1,923.0,1
721,721,-0.8536317252909256,-0.9,1.0,0.0,420.0,744.0,0.0,0,126.0,1
722,722,0.1791870376050816,0.2,1.0,1.0,377.0,864.0,1.0,1,1209.0,1
723,723,-0.3499688088494104,-0.3,0.0,1.0,374.0,844.0,1.0,0,542.0,1
724,724,0.053089764207235546,0.1,1.0,1.0,405.0,858.0,1.0,1,747.0,1
725,725,-0.12303876220715604,-0.1,0.0,1.0,335.0,847.0,1.0,0,2278.0,1
726,726,0.6266593972866313,0.6,0.0,0.0,481.0,853.0,0.0,1,206.0,1
727,727,0.28338522331951277,0.3,1.0,1.0,380.0,556.0,1.0,1,584.0,1
728,728,0.6227170777546437,0.6,0.0,0.0,360.0,967.0,0.0,1,783.0,1
729,729,0.007608719992138968,0.0,0.0,0.0,263.0,726.0,0.0,1,3251.0,1
730,730,-0.8722150744421698,-0.9,1.0,0.0,263.0,823.0,0.0,0,84.0,1
731,731,-0.4189631099143979,-0.4,0.0,1.0,357.0,781.0,1.0,0,392.0,1
732,732,0.6891562941431814,0.7,0.0,0.0,370.0,819.0,0.0,1,231.0,1
733,733,-0.6272657022028677,-0.6,1.0,0.0,490.0,939.0,0.0,0,251.0,1
734,734,0.018907598230026856,0.0,0.0,0.0,431.0,808.0,1.0,0,391.0,0
735,735,0.02211169230000265,0.0,0.0,0.0,420.0,759.0,1.0,0,3661.0,0
736,736,0.7300076471657929,0.7,0.0,0.0,484.0,958.0,0.0,1,248.0,1
737,737,0.8071800869416906,0.8,1.0,1.0,319.0,927.0,1.0,1,224.0,1
738,738,-0.7601363679550666,-0.8,0.0,1.0,412.0,510.0,1.0,0,368.0,1
739,739,0.5148385618575518,0.5,1.0,1.0,404.0,845.0,1.0,1,211.0,1
740,740,-0.8308123012560503,-0.8,1.0,0.0,464.0,928.0,1.0,1,8.0,0
741,741,0.745692838759808,0.7,1.0,1.0,442.0,866.0,1.0,1,222.0,1
742,742,-0.8626797214823438,-0.9,1.0,0.0,383.0,863.0,0.0,0,424.0,1
743,743,-0.46882805881163103,-0.5,0.0,1.0,473.0,928.0,1.0,0,309.0,1
744,744,0.41326283668396313,0.4,0.0,0.0,377.0,843.0,0.0,1,330.0,1
745,745,0.06811307206410444,0.1,0.0,0.0,437.0,560.0,0.0,1,3113.0,1
746,746,-0.4997610405866229,-0.5,0.0,1.0,358.0,598.0,1.0,0,374.0,1
747,747,-0.24997932270321155,-0.2,0.0,1.0,471.0,734.0,1.0,0,575.0,1
748,748,0.32687602681037997,0.3,1.0,1.0,394.0,861.0,1.0,1,355.0,1
749,749,0.5156666622722076,0.5,0.0,0.0,437.0,507.0,0.0,1,546.0,1
750,750,0.30807398482144654,0.3,1.0,1.0,360.0,590.0,1.0,1,840.0,1
751,751,0.6189755536869946,0.6,0.0,0.0,459.0,857.0,0.0,1,164.0,1
752,752,0.4206812226526456,0.4,1.0,1.0,481.0,533.0,1.0,1,526.0,1
753,753,0.5866178875258318,0.6,0.0,0.0,373.0,547.0,0.0,1,500.0,1
754,754,-0.30282942779904987,-0.3,0.0,1.0,435.0,747.0,1.0,0,358.0,1
755,755,0.05973021835428005,0.1,0.0,0.0,337.0,756.0,0.0,1,1487.0,1
756,756,-0.20985411430945755,-0.2,1.0,0.0,449.0,507.0,0.0,0,474.0,1
757,757,0.5482096989340978,0.5,0.0,0.0,489.0,679.0,0.0,1,842.0,1
758,758,0.5942153408168206,0.6,1.0,1.0,497.0,913.0,1.0,1,310.0,1
759,759,0.13891928704616052,0.1,0.0,0.0,303.0,631.0,0.0,1,1186.0,1
760,760,0.4075503867032354,0.4,0.0,0.0,449.0,692.0,0.0,1,1259.0,1
761,761,-0.5050279853098618,-0.5,0.0,1.0,250.0,918.0,1.0,0,212.0,1
762,762,0.48071008227271206,0.5,0.0,0.0,379.0,807.0,0.0,1,404.0,1
763,763,-0.5007519693778058,-0.5,1.0,0.0,414.0,542.0,0.0,0,1084.0,1
764,764,0.5451691005900413,0.5,1.0,1.0,258.0,535.0,1.0,1,417.0,1
765,765,-0.4919917368796818,-0.5,0.0,1.0,266.0,585.0,1.0,0,419.0,1
766,766,0.769032669253768,0.8,0.0,0.0,380.0,810.0,0.0,1,160.0,1
767,767,-0.5008061634632822,-0.5,0.0,1.0,461.0,980.0,1.0,0,219.0,1
768,768,0.457148017371089,0.5,0.0,0.0,481.0,573.0,0.0,1,606.0,1
769,769,-0.336799276210059,-0.3,0.0,1.0,424.0,587.0,1.0,0,569.0,1
770,770,0.39032900020261174,0.4,1.0,1.0,472.0,500.0,1.0,1,298.0,1
771,771,0.5419118842881355,0.5,0.0,0.0,422.0,867.0,0.0,1,121.0,1
772,772,0.10400125319136799,0.1,0.0,0.0,250.0,957.0,0.0,1,2093.0,1
773,773,0.36986355111168734,0.4,0.0,0.0,380.0,507.0,0.0,1,1163.0,1
774,774,-0.7203608934278491,-0.7,0.0,1.0,277.0,532.0,1.0,0,571.0,1
775,775,0.7909999177665016,0.8,1.0,1.0,323.0,608.0,1.0,1,169.0,1
776,776,-0.05398249810326672,-0.1,0.0,1.0,309.0,803.0,1.0,0,208.0,1
777,777,0.28130083652326554,0.3,1.0,1.0,266.0,955.0,1.0,1,269.0,1
778,778,-0.6695299464196498,-0.7,0.0,1.0,390.0,912.0,1.0,0,208.0,1
779,779,-0.7228092390403,-0.7,1.0,0.0,367.0,554.0,0.0,0,829.0,1
780,780,-0.33816332644063984,-0.3,1.0,0.0,301.0,782.0,0.0,0,407.0,1
781,781,0.5759706799744976,0.6,1.0,1.0,370.0,723.0,1.0,1,207.0,1
782,782,0.7858123671403093,0.8,1.0,1.0,352.0,910.0,1.0,1,168.0,1
783,783,-0.3859748029403186,-0.4,0.0,1.0,269.0,785.0,1.0,0,226.0,1
784,784,0.4673758833535354,0.5,0.0,0.0,314.0,941.0,0.0,1,225.0,1
785,785,-0.6936231981545291,-0.7,1.0,0.0,333.0,513.0,0.0,0,604.0,1
786,786,0.6402269712926939,0.6,1.0,1.0,268.0,572.0,1.0,1,440.0,1
787,787,-0.7771191915417363,-0.8,1.0,0.0,486.0,760.0,0.0,0,204.0,1
788,788,-0.19312632833045484,-0.2,1.0,0.0,354.0,976.0,0.0,0,800.0,1
789,789,-0.5422979943419097,-0.5,0.0,1.0,401.0,511.0,1.0,0,288.0,1
790,790,-0.5581316443795123,-0.6,1.0,0.0,409.0,571.0,0.0,0,500.0,1
791,791,-0.5633224869793385,-0.6,1.0,0.0,410.0,752.0,0.0,0,328.0,1
792,792,-0.7953865840379697,-0.8,1.0,0.0,496.0,912.0,0.0,0,492.0,1
793,793,-0.09118049827261743,-0.1,1.0,0.0,385.0,940.0,0.0,0,2535.0,1
794,794,0.7584348012580898,0.8,1.0,1.0,439.0,909.0,1.0,1,302.0,1
795,795,0.47355767856247544,0.5,0.0,0.0,410.0,719.0,0.0,1,221.0,1
796,796,0.7427246173910976,0.7,1.0,1.0,273.0,815.0,1.0,1,432.0,1
797,797,-0.03449622121914375,-0.0,0.0,1.0,462.0,980.0,0.0,1,-82.0,0
798,798,-0.6143052559323682,-0.6,1.0,0.0,291.0,537.0,0.0,0,312.0,1
799,799,-0.17924699270973143,-0.2,0.0,1.0,431.0,765.0,1.0,0,404.0,1
800,800,-0.041867482135513834,-0.0,0.0,1.0,335.0,913.0,1.0,0,3122.0,1
801,801,-0.3104241403596084,-0.3,0.0,1.0,480.0,751.0,1.0,0,1699.0,1
802,802,0.8854529900792573,0.9,0.0,0.0,455.0,914.0,0.0,1,141.0,1
803,803,0.37871827940177594,0.4,0.0,0.0,327.0,639.0,0.0,1,324.0,1
804,804,-0.19980220981320584,-0.2,1.0,0.0,289.0,879.0,0.0,0,1322.0,1
805,805,-0.1032872475884925,-0.1,1.0,0.0,317.0,971.0,0.0,0,3222.0,1
806,806,0.7796032061939454,0.8,1.0,1.0,263.0,584.0,1.0,1,463.0,1
807,807,-0.8661791888584106,-0.9,1.0,0.0,279.0,977.0,0.0,0,204.0,1
808,808,-0.8402296587985508,-0.8,0.0,1.0,469.0,567.0,1.0,0,614.0,1
809,809,-0.1646713667586579,-0.2,1.0,0.0,304.0,658.0,0.0,0,1278.0,1
810,810,0.09799253695337429,0.1,0.0,0.0,321.0,625.0,0.0,1,834.0,1
811,811,0.8179869349809482,0.8,0.0,0.0,288.0,733.0,0.0,1,269.0,1
812,812,-0.5692401977544266,-0.6,0.0,1.0,320.0,646.0,1.0,0,544.0,1
813,813,-0.3599117943341925,-0.4,1.0,0.0,282.0,551.0,0.0,0,1787.0,1
814,814,0.19291680676536826,0.2,0.0,0.0,309.0,836.0,0.0,1,495.0,1
815,815,-0.24185493334625197,-0.2,0.0,1.0,295.0,792.0,1.0,0,683.0,1
816,816,0.3552440150512405,0.4,1.0,1.0,365.0,803.0,1.0,1,402.0,1
817,817,-0.3434072130973109,-0.3,0.0,1.0,369.0,593.0,1.0,0,1358.0,1
818,818,0.010459082786520635,0.0,1.0,1.0,498.0,564.0,0.0,0,1328.0,0
819,819,0.2429430015339783,0.2,1.0,1.0,281.0,968.0,1.0,1,381.0,1
820,820,0.8056262415758783,0.8,1.0,1.0,336.0,744.0,1.0,1,330.0,1
821,821,0.40988685227372745,0.4,0.0,0.0,492.0,570.0,0.0,1,718.0,1
822,822,0.47158040443879556,0.5,1.0,1.0,431.0,812.0,1.0,1,337.0,1
823,823,-0.6489670730052773,-0.6,0.0,1.0,429.0,719.0,1.0,0,332.0,1
824,824,0.8631644123339673,0.9,1.0,1.0,403.0,730.0,1.0,1,-43.0,1
825,825,0.7459061004114039,0.7,0.0,0.0,405.0,793.0,0.0,1,132.0,1
826,826,0.4381690981069287,0.4,1.0,1.0,358.0,696.0,1.0,1,276.0,1
827,827,-0.3665428061248379,-0.4,0.0,1.0,471.0,508.0,1.0,0,531.0,1
828,828,0.20455503865420466,0.2,1.0,1.0,259.0,885.0,1.0,1,346.0,1
829,829,0.6405851481190016,0.6,1.0,1.0,488.0,642.0,1.0,1,480.0,1
830,830,-0.5293962722623671,-0.5,1.0,0.0,423.0,508.0,0.0,0,589.0,1
831,831,-0.05517213449753122,-0.1,1.0,0.0,362.0,928.0,0.0,0,3710.0,1
832,832,0.3902632674728076,0.4,0.0,0.0,392.0,657.0,0.0,1,691.0,1
833,833,-0.8811897457325591,-0.9,1.0,0.0,345.0,916.0,0.0,0,169.0,1
834,834,0.5959562895037839,0.6,1.0,1.0,256.0,949.0,1.0,1,125.0,1
835,835,-0.7023719160612809,-0.7,0.0,1.0,494.0,914.0,1.0,0,522.0,1
836,836,-0.45049238841471884,-0.5,1.0,0.0,330.0,609.0,0.0,0,551.0,1
837,837,0.00567941733563726,0.0,1.0,1.0,353.0,849.0,1.0,1,848.0,1
838,838,-0.39494828025057716,-0.4,0.0,1.0,417.0,956.0,1.0,0,517.0,1
839,839,0.39560730170849945,0.4,0.0,0.0,384.0,768.0,0.0,1,138.0,1
840,840,0.043482825029469985,0.0,0.0,0.0,497.0,556.0,0.0,1,1977.0,1
841,841,0.33490339824213444,0.3,0.0,0.0,375.0,596.0,0.0,1,619.0,1
842,842,-0.5884104644174879,-0.6,0.0,1.0,442.0,683.0,1.0,0,345.0,1
843,843,-0.8411561638316588,-0.8,0.0,1.0,411.0,683.0,1.0,0,426.0,1
844,844,-0.06255030017055108,-0.1,1.0,0.0,388.0,974.0,0.0,0,2748.0,1
845,845,0.45052365382746296,0.5,1.0,1.0,439.0,631.0,1.0,1,340.0,1
846,846,-0.42849726408002226,-0.4,1.0,0.0,446.0,784.0,0.0,0,390.0,1
847,847,-0.06062304914838468,-0.1,0.0,1.0,343.0,928.0,1.0,0,1739.0,1
848,848,0.6935872327932059,0.7,1.0,1.0,462.0,744.0,1.0,1,194.0,1
849,849,0.34315655274285894,0.3,1.0,1.0,426.0,771.0,1.0,1,133.0,1
850,850,-0.8192001841547419,-0.8,0.0,1.0,331.0,524.0,1.0,0,1315.0,1
851,851,-0.6994290610450784,-0.7,0.0,1.0,313.0,649.0,1.0,0,288.0,1
852,852,0.15106012781404143,0.2,0.0,0.0,378.0,791.0,0.0,1,1851.0,1
853,853,0.8995409931865933,0.9,0.0,0.0,486.0,852.0,0.0,1,222.0,1
854,854,0.8844486612230814,0.9,1.0,1.0,469.0,727.0,1.0,1,384.0,1
855,855,0.593127134964245,0.6,0.0,0.0,251.0,921.0,0.0,1,148.0,1
856,856,-0.7453014406164022,-0.7,0.0,1.0,385.0,577.0,1.0,0,358.0,1
857,857,-0.4854350178523899,-0.5,1.0,0.0,420.0,607.0,0.0,0,853.0,1
858,858,0.14291074267377823,0.1,0.0,0.0,442.0,963.0,0.0,1,2915.0,1
859,859,-0.4684140146114806,-0.5,1.0,0.0,344.0,822.0,0.0,0,394.0,1
860,860,-0.14347550967823486,-0.1,0.0,1.0,461.0,823.0,1.0,0,1376.0,1
861,861,-0.710867078138196,-0.7,1.0,0.0,384.0,744.0,0.0,0,322.0,1
862,862,0.7176289037340814,0.7,0.0,0.0,295.0,662.0,0.0,1,373.0,1
863,863,0.3220536602356189,0.3,0.0,0.0,285.0,825.0,0.0,1,440.0,1
864,864,-0.24575504020901784,-0.2,1.0,0.0,325.0,731.0,0.0,0,634.0,1
865,865,0.7285961967618152,0.7,1.0,1.0,378.0,947.0,1.0,1,185.0,1
866,866,0.5853018793877452,0.6,1.0,1.0,343.0,748.0,1.0,1,189.0,1
867,867,0.41445968866173455,0.4,1.0,1.0,463.0,521.0,1.0,1,1126.0,1
868,868,-0.7285068638807092,-0.7,0.0,1.0,358.0,759.0,1.0,0,343.0,1
869,869,-0.4416428850022127,-0.4,0.0,1.0,339.0,625.0,1.0,0,386.0,1
870,870,0.22417334133344846,0.2,1.0,1.0,306.0,955.0,1.0,1,729.0,1
871,871,0.46981205724537556,0.5,0.0,0.0,460.0,803.0,0.0,1,257.0,1
872,872,-0.8528207412841977,-0.9,1.0,0.0,420.0,740.0,0.0,0,250.0,1
873,873,-0.36287500935857353,-0.4,0.0,1.0,467.0,862.0,1.0,0,471.0,1
874,874,-0.8083330368569723,-0.8,0.0,1.0,463.0,987.0,1.0,0,80.0,1
875,875,-0.08161405238204444,-0.1,1.0,0.0,402.0,910.0,1.0,1,2058.0,0
876,876,0.7607572060475415,0.8,1.0,1.0,305.0,826.0,1.0,1,229.0,1
877,877,-0.8137580202726973,-0.8,0.0,1.0,476.0,698.0,1.0,0,376.0,1
878,878,0.7290308103149322,0.7,1.0,1.0,496.0,750.0,1.0,1,214.0,1
879,879,-0.3510657449176168,-0.4,0.0,1.0,370.0,865.0,1.0,0,215.0,1
880,880,-0.6693001880626692,-0.7,0.0,1.0,489.0,781.0,1.0,0,300.0,1
881,881,0.14526622779994314,0.1,0.0,0.0,401.0,791.0,0.0,1,248.0,1
882,882,0.8091957419914163,0.8,1.0,1.0,299.0,782.0,1.0,1,169.0,1
883,883,0.641320195195129,0.6,0.0,0.0,260.0,697.0,0.0,1,403.0,1
884,884,-0.47154854780262895,-0.5,1.0,0.0,482.0,726.0,0.0,0,322.0,1
885,885,-0.20733207457893554,-0.2,1.0,0.0,370.0,809.0,0.0,0,921.0,1
886,886,0.5372783332896026,0.5,0.0,0.0,471.0,849.0,0.0,1,260.0,1
887,887,0.2662427833219606,0.3,0.0,0.0,401.0,996.0,0.0,1,473.0,1
888,888,-0.019546246842119697,-0.0,1.0,0.0,408.0,777.0,1.0,1,3325.0,0
889,889,-0.41788582010333647,-0.4,1.0,0.0,404.0,708.0,0.0,0,358.0,1
890,890,-0.08280901993522438,-0.1,1.0,0.0,450.0,852.0,1.0,1,3698.0,0
891,891,-0.6888245156961619,-0.7,1.0,0.0,442.0,867.0,0.0,0,161.0,1
892,892,0.3449846732651368,0.3,1.0,1.0,417.0,611.0,1.0,1,312.0,1
893,893,-0.6989590507362349,-0.7,1.0,0.0,385.0,597.0,0.0,0,548.0,1
894,894,-0.6197384472236087,-0.6,0.0,1.0,498.0,785.0,1.0,0,187.0,1
895,895,-0.8759114202328548,-0.9,0.0,1.0,445.0,877.0,1.0,0,258.0,1
896,896,0.19286629459911164,0.2,1.0,1.0,347.0,619.0,1.0,1,984.0,1
897,897,-0.2548801646064701,-0.3,0.0,1.0,376.0,588.0,1.0,0,656.0,1
898,898,0.4331599248246202,0.4,1.0,1.0,446.0,812.0,1.0,1,522.0,1
899,899,0.6913504262738442,0.7,0.0,0.0,496.0,868.0,0.0,1,306.0,1
900,900,0.30863900663798216,0.3,1.0,1.0,358.0,798.0,1.0,1,394.0,1
901,901,-0.7112790219118765,-0.7,0.0,1.0,324.0,560.0,1.0,0,576.0,1
902,902,-0.02604082082243031,-0.0,0.0,1.0,360.0,883.0,0.0,1,3757.0,0
903,903,0.8750297380308046,0.9,1.0,1.0,421.0,560.0,1.0,1,159.0,1
904,904,-0.32965453313526794,-0.3,0.0,1.0,352.0,998.0,1.0,0,250.0,1
905,905,0.28528462207669236,0.3,1.0,1.0,410.0,946.0,1.0,1,454.0,1
906,906,0.37399072998506455,0.4,0.0,0.0,366.0,673.0,0.0,1,471.0,1
907,907,-0.8295985236166463,-0.8,0.0,1.0,413.0,794.0,1.0,0,153.0,1
908,908,0.7045230114457578,0.7,0.0,0.0,443.0,508.0,0.0,1,599.0,1
909,909,0.04625344071153914,0.0,1.0,1.0,259.0,614.0,1.0,1,427.0,1
910,910,0.8628176897591159,0.9,0.0,0.0,360.0,584.0,0.0,1,136.0,1
911,911,-0.7113296298571167,-0.7,1.0,0.0,316.0,722.0,0.0,0,362.0,1
912,912,0.8160382601248374,0.8,1.0,1.0,444.0,781.0,1.0,1,165.0,1
913,913,-0.25028965666866687,-0.3,0.0,1.0,439.0,784.0,1.0,0,1377.0,1
914,914,-0.5552755431872628,-0.6,1.0,0.0,256.0,532.0,0.0,0,382.0,1
915,915,0.26947153209120656,0.3,0.0,0.0,290.0,531.0,0.0,1,1679.0,1
916,916,0.06275018280765743,0.1,0.0,0.0,311.0,861.0,1.0,0,228.0,0
917,917,-0.1581402364462272,-0.2,0.0,1.0,334.0,935.0,1.0,0,2231.0,1
918,918,-0.613288873038679,-0.6,0.0,1.0,370.0,545.0,1.0,0,485.0,1
919,919,0.23221787743615463,0.2,1.0,1.0,456.0,789.0,1.0,1,245.0,1
920,920,0.3450493715343478,0.3,0.0,0.0,402.0,708.0,0.0,1,490.0,1
921,921,-0.40355281829483697,-0.4,0.0,1.0,487.0,778.0,1.0,0,425.0,1
922,922,-0.8835825874646069,-0.9,1.0,0.0,407.0,759.0,0.0,0,194.0,1
923,923,-0.03952230958651237,-0.0,1.0,0.0,474.0,604.0,0.0,0,2622.0,1
924,924,-0.5686920421890974,-0.6,0.0,1.0,481.0,833.0,1.0,0,316.0,1
925,925,0.4534196055490979,0.5,1.0,1.0,449.0,792.0,1.0,1,359.0,1
926,926,-0.04092348578189664,-0.0,0.0,1.0,358.0,983.0,1.0,0,1229.0,1
927,927,-0.370183678870156,-0.4,0.0,1.0,468.0,661.0,1.0,0,441.0,1
928,928,0.23515122839872415,0.2,0.0,0.0,329.0,666.0,0.0,1,1305.0,1
929,929,0.6641723184659981,0.7,1.0,1.0,489.0,941.0,1.0,1,170.0,1
930,930,-0.2893506502030391,-0.3,0.0,1.0,481.0,569.0,1.0,0,560.0,1
931,931,-0.45288858301782076,-0.5,0.0,1.0,473.0,685.0,1.0,0,532.0,1
932,932,-0.7972403429782436,-0.8,1.0,0.0,425.0,646.0,0.0,0,239.0,1
933,933,-0.11486784190274679,-0.1,1.0,0.0,397.0,776.0,0.0,0,3827.0,1
934,934,0.09566312847145109,0.1,1.0,1.0,401.0,501.0,1.0,1,1378.0,1
935,935,0.4908590402389147,0.5,1.0,1.0,296.0,819.0,1.0,1,345.0,1
936,936,0.14254217969827454,0.1,1.0,1.0,442.0,612.0,1.0,1,1656.0,1
937,937,-0.5245579782435239,-0.5,0.0,1.0,307.0,707.0,1.0,0,196.0,1
938,938,-0.8983168766597531,-0.9,0.0,1.0,487.0,506.0,1.0,0,467.0,1
939,939,-0.02621776601133763,-0.0,1.0,0.0,475.0,931.0,1.0,1,2094.0,0
940,940,0.6645170269901531,0.7,0.0,0.0,283.0,871.0,0.0,1,266.0,1
941,941,-0.03235947207102019,-0.0,1.0,0.0,254.0,622.0,1.0,1,2634.0,0
942,942,-0.6641682971898601,-0.7,1.0,0.0,394.0,894.0,0.0,0,202.0,1
943,943,-0.20770534486193004,-0.2,1.0,0.0,438.0,937.0,0.0,0,335.0,1
944,944,-0.21449881320371667,-0.2,1.0,0.0,314.0,728.0,0.0,0,778.0,1
945,945,0.4893092489466856,0.5,0.0,0.0,254.0,748.0,0.0,1,348.0,1
946,946,-0.2224885700433512,-0.2,1.0,0.0,258.0,976.0,0.0,0,1086.0,1
947,947,-0.6588719815982543,-0.7,0.0,1.0,259.0,554.0,1.0,0,367.0,1
948,948,0.7025054409319501,0.7,1.0,1.0,330.0,823.0,1.0,1,507.0,1
949,949,0.1962790598501657,0.2,0.0,0.0,370.0,669.0,0.0,1,1051.0,1
950,950,0.7353691332463091,0.7,0.0,0.0,450.0,938.0,0.0,1,192.0,1
951,951,-0.6511302203609898,-0.7,0.0,1.0,470.0,846.0,1.0,0,134.0,1
952,952,-0.09553926961457426,-0.1,0.0,1.0,436.0,561.0,1.0,0,653.0,1
953,953,0.7910143926341696,0.8,1.0,1.0,451.0,954.0,1.0,1,645.0,1
954,954,-0.4305121542687576,-0.4,1.0,0.0,402.0,988.0,0.0,0,430.0,1
955,955,-0.13082473904761027,-0.1,1.0,0.0,367.0,905.0,1.0,1,798.0,0
956,956,0.2271547639928485,0.2,1.0,1.0,328.0,524.0,1.0,1,1888.0,1
957,957,0.5887102566278094,0.6,0.0,0.0,292.0,869.0,0.0,1,239.0,1
958,958,0.4415350029508508,0.4,0.0,0.0,319.0,536.0,0.0,1,885.0,1
959,959,-0.8639570817229945,-0.9,1.0,0.0,465.0,720.0,0.0,0,365.0,1
960,960,-0.28772298539698604,-0.3,0.0,1.0,323.0,909.0,1.0,0,328.0,1
961,961,-0.7916743098408515,-0.8,0.0,1.0,312.0,507.0,1.0,0,251.0,1
962,962,-0.04205898515096196,-0.0,0.0,1.0,399.0,844.0,0.0,1,1277.0,0
963,963,0.2448111581616771,0.2,0.0,0.0,364.0,756.0,0.0,1,490.0,1
964,964,0.30538022060492687,0.3,1.0,1.0,315.0,812.0,1.0,1,503.0,1
965,965,0.007914983648972362,0.0,0.0,0.0,290.0,839.0,0.0,1,3871.0,1
966,966,-0.6197149469848915,-0.6,0.0,1.0,492.0,940.0,1.0,0,178.0,1
967,967,-0.08999733843518876,-0.1,0.0,1.0,345.0,830.0,1.0,0,3025.0,1
968,968,-0.899998683138762,-0.9,0.0,1.0,351.0,761.0,1.0,0,238.0,1
969,969,-0.7686605484670601,-0.8,0.0,1.0,487.0,693.0,1.0,0,230.0,1
970,970,0.2901647676643345,0.3,0.0,0.0,350.0,621.0,0.0,1,1499.0,1
971,971,0.1524299090142499,0.2,0.0,0.0,402.0,939.0,0.0,1,269.0,1
972,972,-0.18587308211380438,-0.2,0.0,1.0,431.0,517.0,1.0,0,2192.0,1
973,973,-0.37539943338003035,-0.4,0.0,1.0,382.0,658.0,1.0,0,590.0,1
974,974,0.5032124971829467,0.5,0.0,0.0,491.0,671.0,0.0,1,498.0,1
975,975,0.8884438791333881,0.9,0.0,0.0,428.0,877.0,0.0,1,85.0,1
976,976,-0.10309592631506237,-0.1,0.0,1.0,389.0,612.0,1.0,0,1469.0,1
977,977,-0.04293906445160678,-0.0,0.0,1.0,355.0,674.0,1.0,0,3971.0,1
978,978,0.09504933742613164,0.1,0.0,0.0,445.0,757.0,0.0,1,2168.0,1
979,979,0.5864097379446108,0.6,0.0,0.0,349.0,809.0,0.0,1,332.0,1
980,980,-0.7598912641764233,-0.8,1.0,0.0,331.0,526.0,0.0,0,643.0,1
981,981,-0.7902084093020114,-0.8,0.0,1.0,320.0,988.0,1.0,0,332.0,1
982,982,-0.5223257978837204,-0.5,0.0,1.0,416.0,820.0,1.0,0,324.0,1
983,983,0.13617498458813848,0.1,1.0,1.0,374.0,506.0,1.0,1,2300.0,1
984,984,0.00190164765667733,0.0,0.0,0.0,266.0,537.0,0.0,1,4197.0,1
985,985,0.6838030611071427,0.7,0.0,0.0,372.0,584.0,0.0,1,1134.0,1
986,986,-0.5242979743823002,-0.5,1.0,0.0,461.0,598.0,0.0,0,341.0,1
987,987,0.4592620880444206,0.5,0.0,0.0,274.0,650.0,0.0,1,516.0,1
988,988,-0.8006084060174886,-0.8,1.0,0.0,325.0,577.0,0.0,0,358.0,1
989,989,0.25497572644740807,0.3,1.0,1.0,310.0,889.0,1.0,1,741.0,1
990,990,-0.2502206548243945,-0.3,0.0,1.0,463.0,978.0,1.0,0,689.0,1
991,991,-0.8996339503014004,-0.9,1.0,0.0,316.0,621.0,0.0,0,453.0,1
992,992,0.5635415955223396,0.6,0.0,0.0,400.0,606.0,0.0,1,384.0,1
993,993,0.5843546743196445,0.6,1.0,1.0,433.0,547.0,1.0,1,480.0,1
994,994,-0.4274646241037108,-0.4,1.0,0.0,260.0,519.0,0.0,0,411.0,1
995,995,-0.2729956478654406,-0.3,0.0,1.0,436.0,739.0,1.0,0,595.0,1
996,996,0.11025120789517528,0.1,0.0,0.0,477.0,724.0,0.0,1,839.0,1
997,997,0.053641401589131665,0.1,0.0,0.0,358.0,967.0,0.0,1,635.0,1
998,998,0.4834998693595495,0.5,1.0,1.0,250.0,718.0,1.0,1,752.0,1
999,999,0.7240434609474141,0.7,1.0,1.0,336.0,790.0,1.0,1,114.0,1
1000,1000,-0.4864786609889967,-0.5,1.0,0.0,358.0,872.0,0.0,0,640.0,1
1001,1001,-0.6154287569376053,-0.6,0.0,1.0,492.0,985.0,1.0,0,263.0,1
1002,1002,0.5696959130419487,0.6,1.0,1.0,355.0,649.0,1.0,1,276.0,1
1003,1003,-0.7171523665783984,-0.7,0.0,1.0,339.0,648.0,1.0,0,353.0,1
1004,1004,0.7310050068867212,0.7,0.0,0.0,252.0,644.0,0.0,1,494.0,1
1005,1005,-0.04381854151034481,-0.0,0.0,1.0,288.0,721.0,1.0,0,3351.0,1
1006,1006,0.7750818813094279,0.8,1.0,1.0,432.0,600.0,1.0,1,628.0,1
1007,1007,-0.3101489661161829,-0.3,0.0,1.0,364.0,841.0,1.0,0,425.0,1
1008,1008,0.046337482969436294,0.0,0.0,0.0,407.0,566.0,1.0,0,4027.0,0
1009,1009,0.5127092384178858,0.5,1.0,1.0,495.0,733.0,1.0,1,192.0,1
1010,1010,-0.46094355077888605,-0.5,0.0,1.0,331.0,932.0,0.0,1,-203.0,0
1011,1011,0.3755952697366457,0.4,1.0,1.0,367.0,981.0,1.0,1,392.0,1
1012,1012,-0.024242901361847924,-0.0,0.0,1.0,266.0,792.0,1.0,0,3552.0,1
1013,1013,-0.16195207630434472,-0.2,1.0,0.0,283.0,825.0,0.0,0,852.0,1
1014,1014,0.4104445558536821,0.4,0.0,0.0,383.0,566.0,0.0,1,651.0,1
1015,1015,0.5668644998702784,0.6,1.0,1.0,440.0,587.0,1.0,1,263.0,1
1016,1016,-0.7115560567440133,-0.7,0.0,1.0,426.0,947.0,1.0,0,137.0,1
1017,1017,-0.33268091805390354,-0.3,0.0,1.0,300.0,550.0,1.0,0,370.0,1
1018,1018,-0.5655521970384422,-0.6,0.0,1.0,405.0,796.0,1.0,0,269.0,1
1019,1019,-0.8048170256114657,-0.8,1.0,0.0,410.0,853.0,0.0,0,97.0,1
1020,1020,-0.6074224765255604,-0.6,1.0,0.0,477.0,635.0,0.0,0,578.0,1
1021,1021,0.7643454955869232,0.8,0.0,0.0,483.0,657.0,0.0,1,430.0,1
1022,1022,0.8397565622456776,0.8,1.0,1.0,327.0,535.0,1.0,1,548.0,1
1023,1023,0.05808931622066993,0.1,0.0,0.0,287.0,734.0,0.0,1,2319.0,1
1024,1024,0.07422591177098281,0.1,1.0,1.0,261.0,708.0,1.0,1,2411.0,1
1025,1025,0.32953934246127525,0.3,0.0,0.0,292.0,759.0,0.0,1,209.0,1
1026,1026,-0.7510287800094901,-0.8,1.0,0.0,326.0,702.0,0.0,0,262.0,1
1027,1027,0.318793148019766,0.3,0.0,0.0,424.0,823.0,0.0,1,493.0,1
1028,1028,-0.14313909457027407,-0.1,0.0,1.0,388.0,509.0,1.0,0,433.0,1
1029,1029,-0.38752073094652784,-0.4,1.0,0.0,477.0,515.0,0.0,0,908.0,1
1030,1030,0.1387283913804861,0.1,0.0,0.0,307.0,788.0,0.0,1,365.0,1
1031,1031,0.7044364160722746,0.7,1.0,1.0,422.0,587.0,1.0,1,381.0,1
1032,1032,-0.10636851853832363,-0.1,1.0,0.0,314.0,993.0,0.0,0,533.0,1
1033,1033,0.8707030890282467,0.9,0.0,0.0,457.0,787.0,0.0,1,286.0,1
1034,1034,-0.10352940501235508,-0.1,0.0,1.0,425.0,597.0,1.0,0,2148.0,1
1035,1035,-0.5625705792096117,-0.6,1.0,0.0,269.0,830.0,0.0,0,881.0,1
1036,1036,0.8150870439971268,0.8,0.0,0.0,285.0,542.0,0.0,1,1093.0,1
1037,1037,0.5718595305792952,0.6,0.0,0.0,312.0,722.0,0.0,1,536.0,1
1038,1038,-0.32853965473673963,-0.3,1.0,0.0,493.0,954.0,0.0,0,973.0,1
1039,1039,-0.48235415627340755,-0.5,0.0,1.0,477.0,826.0,1.0,0,397.0,1
1040,1040,0.0027121774840710433,0.0,0.0,0.0,372.0,874.0,1.0,0,374.0,0
1041,1041,-0.39172763104999464,-0.4,0.0,1.0,289.0,634.0,1.0,0,537.0,1
1042,1042,0.6858544466920861,0.7,1.0,1.0,314.0,752.0,1.0,1,204.0,1
1043,1043,-0.8087150965840173,-0.8,1.0,0.0,416.0,964.0,0.0,0,370.0,1
1044,1044,0.2616546665295464,0.3,1.0,1.0,350.0,665.0,1.0,1,335.0,1
1045,1045,-0.01708730670974601,-0.0,0.0,1.0,339.0,997.0,1.0,0,1114.0,1
1046,1046,0.2398810607234364,0.2,0.0,0.0,346.0,991.0,0.0,1,623.0,1
1047,1047,0.2908088487061732,0.3,1.0,1.0,421.0,591.0,1.0,1,1598.0,1
1048,1048,0.095191199737517,0.1,0.0,0.0,429.0,921.0,0.0,1,1310.0,1
1049,1049,0.5444891813627087,0.5,0.0,0.0,365.0,701.0,0.0,1,564.0,1
1050,1050,-0.6481502914602773,-0.6,0.0,1.0,299.0,876.0,1.0,0,125.0,1
1051,1051,0.6967246173436438,0.7,0.0,0.0,367.0,992.0,0.0,1,211.0,1
1052,1052,-0.8912479200293152,-0.9,0.0,1.0,254.0,769.0,1.0,0,417.0,1
1053,1053,0.6527624043433989,0.7,0.0,0.0,288.0,884.0,0.0,1,398.0,1
1054,1054,-0.4438202070763909,-0.4,0.0,1.0,499.0,803.0,1.0,0,288.0,1
1055,1055,-0.793737392177301,-0.8,0.0,1.0,358.0,930.0,1.0,0,472.0,1
1056,1056,0.5305364798268123,0.5,1.0,1.0,340.0,836.0,1.0,1,114.0,1
1057,1057,0.3199829417986598,0.3,0.0,0.0,374.0,645.0,0.0,1,561.0,1
1058,1058,0.3589281900460509,0.4,0.0,0.0,298.0,572.0,0.0,1,960.0,1
1059,1059,0.6268223342300993,0.6,1.0,1.0,383.0,576.0,1.0,1,1121.0,1
1060,1060,-0.47256083977933677,-0.5,0.0,1.0,435.0,783.0,1.0,0,232.0,1
1061,1061,0.20025997468137213,0.2,1.0,1.0,371.0,986.0,1.0,1,423.0,1
1062,1062,0.34763709790058683,0.3,0.0,0.0,314.0,803.0,0.0,1,833.0,1
1063,1063,-0.3498885569143788,-0.3,1.0,0.0,464.0,766.0,0.0,0,860.0,1
1064,1064,-0.3899989437369932,-0.4,1.0,0.0,262.0,519.0,0.0,0,489.0,1
1065,1065,-0.4090905573928107,-0.4,0.0,1.0,253.0,937.0,1.0,0,450.0,1
1066,1066,0.1652708232793353,0.2,1.0,1.0,391.0,730.0,1.0,1,809.0,1
1067,1067,0.7157935702926835,0.7,0.0,0.0,264.0,909.0,0.0,1,-43.0,1
1068,1068,0.752278226692877,0.8,0.0,0.0,464.0,972.0,0.0,1,584.0,1
1069,1069,0.02510884813906422,0.0,0.0,0.0,253.0,835.0,0.0,1,3912.0,1
1070,1070,-0.8647087796078681,-0.9,1.0,0.0,283.0,725.0,0.0,0,222.0,1
1071,1071,-0.5151776082841177,-0.5,1.0,0.0,416.0,664.0,0.0,0,300.0,1
1072,1072,0.33495028818445827,0.3,0.0,0.0,482.0,812.0,0.0,1,1626.0,1
1073,1073,0.20084486587153483,0.2,0.0,0.0,434.0,950.0,0.0,1,536.0,1
1074,1074,0.6514879803603627,0.7,0.0,0.0,382.0,728.0,0.0,1,280.0,1
1075,1075,-0.17415221141679893,-0.2,0.0,1.0,299.0,505.0,1.0,0,896.0,1
1076,1076,-0.6927988932546324,-0.7,1.0,0.0,307.0,683.0,0.0,0,290.0,1
1077,1077,-0.7032153362933535,-0.7,0.0,1.0,269.0,758.0,1.0,0,353.0,1
1078,1078,0.4157885479604727,0.4,0.0,0.0,399.0,970.0,0.0,1,101.0,1
1079,1079,0.09491191680115008,0.1,1.0,1.0,322.0,643.0,1.0,1,4035.0,1
1080,1080,0.6519812430451041,0.7,1.0,1.0,356.0,960.0,1.0,1,74.0,1
1081,1081,-0.17788028821531043,-0.2,0.0,1.0,435.0,899.0,1.0,0,356.0,1
1082,1082,-0.7809048900905057,-0.8,0.0,1.0,264.0,563.0,1.0,0,373.0,1
1083,1083,-0.8168522679629283,-0.8,1.0,0.0,304.0,934.0,0.0,0,312.0,1
1084,1084,-0.15080517612089117,-0.2,1.0,0.0,481.0,811.0,0.0,0,108.0,1
1085,1085,-0.8589598647806884,-0.9,0.0,1.0,450.0,645.0,1.0,0,205.0,1
1086,1086,-0.013096346590665386,-0.0,0.0,1.0,273.0,555.0,1.0,0,692.0,1
1087,1087,-0.23529190158448055,-0.2,0.0,1.0,447.0,858.0,1.0,0,905.0,1
1088,1088,-0.7420379297311455,-0.7,1.0,0.0,471.0,537.0,0.0,0,262.0,1
1089,1089,0.6399610846157749,0.6,0.0,0.0,378.0,778.0,0.0,1,194.0,1
1090,1090,-0.6990719484883003,-0.7,0.0,1.0,401.0,884.0,1.0,0,265.0,1
1091,1091,0.6256722787287269,0.6,0.0,0.0,466.0,888.0,0.0,1,156.0,1
1092,1092,0.1706553031133552,0.2,1.0,1.0,360.0,801.0,1.0,1,339.0,1
1093,1093,0.6581165388674027,0.7,0.0,0.0,496.0,722.0,0.0,1,522.0,1
1094,1094,-0.05986118042021782,-0.1,0.0,1.0,297.0,558.0,1.0,0,495.0,1
1095,1095,0.7064406109481863,0.7,1.0,1.0,495.0,776.0,1.0,1,169.0,1
1096,1096,-0.5440432035431118,-0.5,1.0,0.0,270.0,720.0,0.0,0,620.0,1
1097,1097,-0.7709396184679961,-0.8,1.0,0.0,315.0,733.0,0.0,0,262.0,1
1098,1098,0.016676540719447797,0.0,1.0,1.0,258.0,664.0,1.0,1,678.0,1
1099,1099,-0.002750197753440875,-0.0,1.0,0.0,452.0,735.0,1.0,1,3813.0,0
1100,1100,-0.20814289371161798,-0.2,0.0,1.0,384.0,975.0,1.0,0,341.0,1
1101,1101,-0.06503701354031544,-0.1,1.0,0.0,425.0,772.0,0.0,0,893.0,1
1102,1102,-0.842789090012706,-0.8,1.0,0.0,318.0,821.0,0.0,0,391.0,1
1103,1103,0.7111912839737379,0.7,1.0,1.0,464.0,851.0,1.0,1,195.0,1
1104,1104,-0.6338952312932076,-0.6,1.0,0.0,466.0,998.0,0.0,0,296.0,1
1105,1105,0.14374980777433255,0.1,0.0,0.0,328.0,772.0,0.0,1,670.0,1
1106,1106,-0.7852943987674045,-0.8,1.0,0.0,259.0,618.0,0.0,0,533.0,1
1107,1107,0.888952657713188,0.9,1.0,1.0,478.0,575.0,1.0,1,517.0,1
1108,1108,0.42701663353281505,0.4,0.0,0.0,276.0,831.0,0.0,1,503.0,1
1109,1109,0.7783515396062647,0.8,0.0,0.0,464.0,796.0,0.0,1,340.0,1
1110,1110,0.5693441515278591,0.6,0.0,0.0,414.0,571.0,0.0,1,595.0,1
1111,1111,-0.4105945903771358,-0.4,0.0,1.0,299.0,673.0,1.0,0,478.0,1
1112,1112,-0.17855188155002588,-0.2,0.0,1.0,252.0,739.0,1.0,0,979.0,1
1113,1113,-0.2387024972148647,-0.2,0.0,1.0,448.0,725.0,1.0,0,897.0,1
1114,1114,0.7281949666948665,0.7,0.0,0.0,255.0,909.0,0.0,1,556.0,1
1115,1115,0.8133967479446301,0.8,1.0,1.0,395.0,700.0,1.0,1,455.0,1
1116,1116,-0.4309752864288673,-0.4,1.0,0.0,259.0,636.0,0.0,0,645.0,1
1117,1117,0.8008077432486628,0.8,1.0,1.0,422.0,978.0,1.0,1,160.0,1
1118,1118,-0.25845121081583566,-0.3,1.0,0.0,373.0,957.0,0.0,0,200.0,1
1119,1119,-0.44979866675583363,-0.4,0.0,1.0,322.0,729.0,1.0,0,499.0,1
1120,1120,-0.5038015283251864,-0.5,1.0,0.0,322.0,585.0,0.0,0,263.0,1
1121,1121,-0.7007346171939712,-0.7,1.0,0.0,475.0,851.0,0.0,0,204.0,1
1122,1122,-0.42489795098301875,-0.4,1.0,0.0,390.0,877.0,0.0,0,233.0,1
1123,1123,0.4314173548647794,0.4,1.0,1.0,358.0,751.0,1.0,1,211.0,1
1124,1124,0.02632097662462074,0.0,0.0,0.0,338.0,720.0,0.0,1,2982.0,1
1125,1125,0.700134880721725,0.7,1.0,1.0,385.0,558.0,1.0,1,747.0,1
1126,1126,-0.3597650012430712,-0.4,1.0,0.0,434.0,535.0,0.0,0,561.0,1
1127,1127,0.12387716709892704,0.1,1.0,1.0,478.0,590.0,1.0,1,1462.0,1
1128,1128,0.45182998114630435,0.5,1.0,1.0,359.0,654.0,1.0,1,447.0,1
1129,1129,0.19633717189892608,0.2,0.0,0.0,372.0,830.0,0.0,1,1268.0,1
1130,1130,-0.7822817379062705,-0.8,0.0,1.0,481.0,617.0,1.0,0,352.0,1
1131,1131,-0.8179987498851807,-0.8,0.0,1.0,422.0,889.0,1.0,0,99.0,1
1132,1132,0.35468831456985683,0.4,0.0,0.0,269.0,561.0,0.0,1,1210.0,1
1133,1133,0.8477385180991622,0.8,0.0,0.0,338.0,904.0,0.0,1,198.0,1
1134,1134,-0.35560349305520833,-0.4,1.0,0.0,296.0,742.0,0.0,0,422.0,1
1135,1135,-0.724466885278564,-0.7,1.0,0.0,426.0,622.0,0.0,0,482.0,1
1136,1136,-0.1549276656074301,-0.2,0.0,1.0,339.0,656.0,1.0,0,545.0,1
1137,1137,0.7648378522483593,0.8,0.0,0.0,440.0,786.0,0.0,1,254.0,1
1138,1138,0.6222682694875395,0.6,1.0,1.0,289.0,672.0,1.0,1,359.0,1
1139,1139,0.3530930191315246,0.4,1.0,1.0,337.0,995.0,1.0,1,598.0,1
1140,1140,-0.524867313664068,-0.5,1.0,0.0,345.0,987.0,0.0,0,158.0,1
1141,1141,-0.8331715897975629,-0.8,0.0,1.0,484.0,519.0,1.0,0,597.0,1
1142,1142,0.09120609126312762,0.1,1.0,1.0,308.0,596.0,1.0,1,1246.0,1
1143,1143,0.1745569861949715,0.2,1.0,1.0,312.0,990.0,1.0,1,118.0,1
1144,1144,0.7490017978431182,0.7,1.0,1.0,274.0,925.0,1.0,1,171.0,1
1145,1145,-0.6108625846839222,-0.6,1.0,0.0,309.0,660.0,0.0,0,841.0,1
1146,1146,-0.41292822050994304,-0.4,0.0,1.0,352.0,808.0,1.0,0,480.0,1
1147,1147,-0.5265983228228984,-0.5,0.0,1.0,285.0,579.0,1.0,0,326.0,1
1148,1148,0.15795679360112735,0.2,0.0,0.0,314.0,517.0,0.0,1,379.0,1
1149,1149,0.4723589851530804,0.5,1.0,1.0,395.0,743.0,1.0,1,502.0,1
1150,1150,0.548636097217278,0.5,1.0,1.0,283.0,812.0,1.0,1,205.0,1
1151,1151,-0.3449523301801317,-0.3,1.0,0.0,489.0,521.0,0.0,0,720.0,1
1152,1152,0.8924863291890593,0.9,0.0,0.0,396.0,994.0,1.0,0,-10.0,0
1153,1153,-0.544042735901306,-0.5,0.0,1.0,363.0,769.0,1.0,0,208.0,1
1154,1154,-0.5826734070941455,-0.6,0.0,1.0,325.0,520.0,1.0,0,555.0,1
1155,1155,0.017160803277730285,0.0,1.0,1.0,431.0,808.0,1.0,1,571.0,1
1156,1156,0.4375407660368086,0.4,0.0,0.0,465.0,775.0,0.0,1,270.0,1
1157,1157,0.006579469486901468,0.0,0.0,0.0,459.0,774.0,0.0,1,3767.0,1
1158,1158,0.5586812307185861,0.6,1.0,1.0,329.0,563.0,1.0,1,168.0,1
1159,1159,-0.4394066731912523,-0.4,1.0,0.0,290.0,679.0,0.0,0,451.0,1
1160,1160,0.1444144366541641,0.1,1.0,1.0,405.0,540.0,1.0,1,1185.0,1
1161,1161,-0.15841122889649173,-0.2,0.0,1.0,302.0,528.0,1.0,0,1210.0,1
1162,1162,-0.5008348329270795,-0.5,1.0,0.0,497.0,799.0,0.0,0,164.0,1
1163,1163,0.1327639842421081,0.1,1.0,1.0,361.0,859.0,1.0,1,520.0,1
1164,1164,-0.29672953532307234,-0.3,0.0,1.0,380.0,549.0,1.0,0,461.0,1
1165,1165,-0.4415174211785504,-0.4,1.0,0.0,460.0,637.0,0.0,0,613.0,1
1166,1166,0.10247811346168845,0.1,1.0,1.0,271.0,782.0,1.0,1,2157.0,1
1167,1167,0.7377689930332102,0.7,1.0,1.0,391.0,721.0,1.0,1,258.0,1
1168,1168,0.5006913494153867,0.5,1.0,1.0,440.0,528.0,1.0,1,672.0,1
1169,1169,-0.10200615391774015,-0.1,1.0,0.0,333.0,905.0,0.0,0,3452.0,1
1170,1170,-0.3846892426664601,-0.4,0.0,1.0,395.0,513.0,1.0,0,652.0,1
1171,1171,0.5704309959584074,0.6,0.0,0.0,346.0,905.0,0.0,1,319.0,1
1172,1172,-0.3928052890229694,-0.4,0.0,1.0,475.0,812.0,1.0,0,443.0,1
1173,1173,-0.7136906072536064,-0.7,0.0,1.0,432.0,506.0,1.0,0,892.0,1
1174,1174,-0.0685237821385074,-0.1,0.0,1.0,470.0,814.0,1.0,0,1726.0,1
1175,1175,0.345612380102852,0.3,0.0,0.0,404.0,596.0,0.0,1,620.0,1
1176,1176,0.2637838607073645,0.3,1.0,1.0,315.0,976.0,1.0,1,29.0,1
1177,1177,-0.8114435276599985,-0.8,0.0,1.0,440.0,799.0,1.0,0,261.0,1
1178,1178,0.30034619751536507,0.3,1.0,1.0,474.0,986.0,1.0,1,660.0,1
1179,1179,-0.06869697596870661,-0.1,0.0,1.0,463.0,814.0,1.0,0,2013.0,1
1180,1180,0.30960742248074447,0.3,1.0,1.0,394.0,699.0,1.0,1,727.0,1
1181,1181,-0.44953976709918975,-0.4,1.0,0.0,292.0,529.0,0.0,0,939.0,1
1182,1182,-0.09738401432564558,-0.1,1.0,0.0,369.0,898.0,1.0,1,933.0,0
1183,1183,-0.6634487513361857,-0.7,0.0,1.0,267.0,689.0,1.0,0,494.0,1
1184,1184,-0.32824876998334607,-0.3,1.0,0.0,395.0,977.0,0.0,0,148.0,1
1185,1185,-0.6429293457053067,-0.6,1.0,0.0,283.0,903.0,0.0,0,204.0,1
1186,1186,-0.8944949822241457,-0.9,0.0,1.0,281.0,769.0,1.0,0,250.0,1
1187,1187,0.30115283619258093,0.3,0.0,0.0,467.0,804.0,0.0,1,229.0,1
1188,1188,0.4872184310160418,0.5,0.0,0.0,418.0,721.0,0.0,1,721.0,1
1189,1189,-0.03714382124401994,-0.0,0.0,1.0,467.0,974.0,1.0,0,829.0,1
1190,1190,-0.031078532477872733,-0.0,1.0,0.0,336.0,630.0,0.0,0,1754.0,1
1191,1191,-0.182382255804433,-0.2,1.0,0.0,490.0,583.0,0.0,0,1767.0,1
1192,1192,0.651113014438447,0.7,0.0,0.0,360.0,922.0,0.0,1,218.0,1
1193,1193,-0.263791637050671,-0.3,0.0,1.0,416.0,759.0,1.0,0,635.0,1
1194,1194,0.5530405637526615,0.6,0.0,0.0,309.0,945.0,0.0,1,296.0,1
1195,1195,0.48076408867910236,0.5,0.0,0.0,345.0,762.0,0.0,1,583.0,1
1196,1196,0.7977423665766151,0.8,0.0,0.0,264.0,912.0,0.0,1,184.0,1
1197,1197,0.7512063255946414,0.8,0.0,0.0,404.0,597.0,0.0,1,459.0,1
1198,1198,0.5605915283905979,0.6,0.0,0.0,283.0,769.0,0.0,1,208.0,1
1199,1199,-0.10277728836374456,-0.1,1.0,0.0,334.0,580.0,0.0,0,4086.0,1
1200,1200,-0.5451301010514943,-0.5,1.0,0.0,450.0,994.0,0.0,0,316.0,1
1201,1201,-0.35177422520369384,-0.4,1.0,0.0,324.0,976.0,0.0,0,830.0,1
1202,1202,0.5008177519334712,0.5,0.0,0.0,252.0,660.0,0.0,1,528.0,1
1203,1203,0.6559519592394315,0.7,0.0,0.0,448.0,656.0,0.0,1,306.0,1
1204,1204,-0.3206574193450592,-0.3,1.0,0.0,310.0,792.0,0.0,0,288.0,1
1205,1205,-0.7712356294422411,-0.8,1.0,0.0,308.0,832.0,0.0,0,210.0,1
1206,1206,0.07538016723525987,0.1,0.0,0.0,440.0,874.0,0.0,1,416.0,1
1207,1207,0.6894871027216057,0.7,0.0,0.0,426.0,505.0,0.0,1,279.0,1
1208,1208,-0.12179734539224396,-0.1,1.0,0.0,367.0,929.0,0.0,0,3704.0,1
1209,1209,0.5426049316530638,0.5,0.0,0.0,282.0,790.0,0.0,1,878.0,1
1210,1210,-0.17616332582399263,-0.2,0.0,1.0,419.0,908.0,1.0,0,1283.0,1
1211,1211,0.8307324727242943,0.8,0.0,0.0,401.0,879.0,0.0,1,240.0,1
1212,1212,-0.8078860148230341,-0.8,0.0,1.0,375.0,899.0,1.0,0,356.0,1
1213,1213,0.6541877662243613,0.7,0.0,0.0,304.0,789.0,0.0,1,367.0,1
1214,1214,-0.1470927150075727,-0.1,0.0,1.0,485.0,719.0,1.0,0,486.0,1
1215,1215,-0.23222032289342132,-0.2,1.0,0.0,373.0,731.0,0.0,0,726.0,1
1216,1216,-0.3960086886207562,-0.4,1.0,0.0,362.0,955.0,0.0,0,223.0,1
1217,1217,-0.38692401758861406,-0.4,1.0,0.0,371.0,810.0,0.0,0,1989.0,1
1218,1218,-0.7821710217421219,-0.8,0.0,1.0,313.0,899.0,1.0,0,398.0,1
1219,1219,-0.02625772783219371,-0.0,0.0,1.0,287.0,917.0,1.0,0,1066.0,1
1220,1220,-0.48641441131684054,-0.5,0.0,1.0,253.0,771.0,1.0,0,396.0,1
1221,1221,-0.5270062624240418,-0.5,0.0,1.0,396.0,903.0,1.0,0,211.0,1
1222,1222,0.8643186477461519,0.9,1.0,1.0,428.0,899.0,1.0,1,133.0,1
1223,1223,0.273205992783048,0.3,0.0,0.0,481.0,535.0,0.0,1,564.0,1
1224,1224,-0.4315410489778122,-0.4,1.0,0.0,346.0,507.0,0.0,0,767.0,1
1225,1225,-0.07276301918314398,-0.1,1.0,0.0,361.0,964.0,0.0,0,1715.0,1
1226,1226,0.012003220371135992,0.0,0.0,0.0,251.0,559.0,0.0,1,1290.0,1
1227,1227,0.28948282985782614,0.3,1.0,1.0,411.0,939.0,1.0,1,40.0,1
1228,1228,-0.010432860274457889,-0.0,1.0,0.0,328.0,700.0,0.0,0,402.0,1
1229,1229,-0.743951006393208,-0.7,0.0,1.0,324.0,564.0,1.0,0,602.0,1
1230,1230,0.656405720401347,0.7,0.0,0.0,494.0,638.0,0.0,1,328.0,1
1231,1231,-0.24026208394248882,-0.2,1.0,0.0,286.0,750.0,0.0,0,2464.0,1
1232,1232,0.4010189209622631,0.4,1.0,1.0,322.0,759.0,1.0,1,659.0,1
1233,1233,-0.22641113001546043,-0.2,0.0,1.0,426.0,587.0,1.0,0,207.0,1
1234,1234,0.45151373734912836,0.5,0.0,0.0,435.0,818.0,0.0,1,197.0,1
1235,1235,-0.8559969347472589,-0.9,0.0,1.0,441.0,956.0,1.0,0,203.0,1
1236,1236,0.7070011116019191,0.7,0.0,0.0,483.0,570.0,0.0,1,637.0,1
1237,1237,-0.7261133682036025,-0.7,1.0,0.0,265.0,934.0,0.0,0,161.0,1
1238,1238,0.6891492752608511,0.7,1.0,1.0,268.0,754.0,1.0,1,348.0,1
1239,1239,0.11677805299355593,0.1,0.0,0.0,439.0,554.0,0.0,1,2857.0,1
1240,1240,0.3633282885387533,0.4,1.0,1.0,349.0,722.0,1.0,1,229.0,1
1241,1241,-0.4160039159931866,-0.4,0.0,1.0,381.0,503.0,1.0,0,626.0,1
1242,1242,0.3847692713877847,0.4,1.0,1.0,417.0,916.0,1.0,1,287.0,1
1243,1243,-0.2914003300125668,-0.3,0.0,1.0,337.0,828.0,1.0,0,465.0,1
1244,1244,-0.43477394479076,-0.4,0.0,1.0,349.0,669.0,1.0,0,842.0,1
1245,1245,-0.44392103828809343,-0.4,1.0,0.0,363.0,824.0,0.0,0,353.0,1
1246,1246,-0.35806498621617533,-0.4,1.0,0.0,470.0,863.0,0.0,0,427.0,1
1247,1247,0.6338585892148559,0.6,1.0,1.0,477.0,678.0,1.0,1,495.0,1
1248,1248,0.12945733001112047,0.1,0.0,0.0,274.0,982.0,1.0,0,-36.0,0
1249,1249,0.6339744006934033,0.6,0.0,0.0,281.0,670.0,0.0,1,289.0,1
1250,1250,-0.4593077230479118,-0.5,0.0,1.0,296.0,680.0,1.0,0,504.0,1
1251,1251,-0.1409044289753837,-0.1,1.0,0.0,394.0,918.0,0.0,0,2438.0,1
1252,1252,-0.026704862207976077,-0.0,1.0,0.0,401.0,692.0,1.0,1,867.0,0
1253,1253,-0.022462682493414432,-0.0,0.0,1.0,364.0,835.0,1.0,0,3801.0,1
1254,1254,-0.81540176986915,-0.8,1.0,0.0,252.0,874.0,0.0,0,274.0,1
1255,1255,-0.7139423654595527,-0.7,0.0,1.0,467.0,594.0,1.0,0,319.0,1
1256,1256,0.8421301349336018,0.8,0.0,0.0,434.0,537.0,0.0,1,219.0,1
1257,1257,0.5370482447918158,0.5,0.0,0.0,401.0,718.0,0.0,1,131.0,1
1258,1258,0.1057587480320058,0.1,0.0,0.0,322.0,521.0,0.0,1,857.0,1
1259,1259,-0.3598351496445372,-0.4,1.0,0.0,446.0,962.0,0.0,0,612.0,1
1260,1260,0.8013879110862859,0.8,0.0,0.0,269.0,989.0,0.0,1,152.0,1
1261,1261,-0.4904906697553007,-0.5,1.0,0.0,257.0,733.0,0.0,0,410.0,1
1262,1262,0.8959870981559711,0.9,0.0,0.0,332.0,713.0,0.0,1,675.0,1
1263,1263,0.3781000585355555,0.4,1.0,1.0,279.0,776.0,1.0,1,665.0,1
1264,1264,-0.14238874748223085,-0.1,1.0,0.0,257.0,827.0,0.0,0,2486.0,1
1265,1265,0.7208904138599831,0.7,0.0,0.0,417.0,695.0,0.0,1,668.0,1
1266,1266,-0.22094750686477393,-0.2,0.0,1.0,365.0,813.0,1.0,0,1232.0,1
1267,1267,0.6036733558781296,0.6,1.0,1.0,309.0,651.0,1.0,1,370.0,1
1268,1268,0.7151639268366946,0.7,1.0,1.0,345.0,555.0,1.0,1,420.0,1
1269,1269,0.08693831924731299,0.1,1.0,1.0,463.0,909.0,1.0,1,1158.0,1
1270,1270,0.2044168888540686,0.2,1.0,1.0,480.0,891.0,1.0,1,449.0,1
1271,1271,0.5737162745294438,0.6,1.0,1.0,342.0,742.0,1.0,1,266.0,1
1272,1272,-0.4601275602702978,-0.5,1.0,0.0,435.0,658.0,0.0,0,797.0,1
1273,1273,-0.7986473275250262,-0.8,1.0,0.0,493.0,770.0,0.0,0,287.0,1
1274,1274,-0.3719990223960824,-0.4,1.0,0.0,261.0,536.0,0.0,0,1093.0,1
1275,1275,0.6304312199015888,0.6,1.0,1.0,287.0,527.0,1.0,1,356.0,1
1276,1276,-0.2699854506926903,-0.3,1.0,0.0,423.0,710.0,0.0,0,817.0,1
1277,1277,-0.8137743734418159,-0.8,0.0,1.0,387.0,591.0,1.0,0,302.0,1
1278,1278,-0.5347546271423007,-0.5,0.0,1.0,398.0,936.0,1.0,0,56.0,1
1279,1279,0.2156144098027627,0.2,0.0,0.0,269.0,826.0,0.0,1,1305.0,1
1280,1280,0.5996064845556833,0.6,0.0,0.0,466.0,728.0,0.0,1,366.0,1
1281,1281,-0.6126275945876307,-0.6,0.0,1.0,487.0,734.0,1.0,0,199.0,1
1282,1282,-0.48634191937533194,-0.5,0.0,1.0,487.0,676.0,1.0,0,797.0,1
1283,1283,0.7933663309978972,0.8,1.0,1.0,470.0,833.0,1.0,1,377.0,1
1284,1284,-0.0007177873983937877,-0.0,0.0,1.0,417.0,956.0,0.0,1,747.0,0
1285,1285,0.4193576678342551,0.4,1.0,1.0,338.0,876.0,1.0,1,256.0,1
1286,1286,0.6493925720487544,0.6,0.0,0.0,357.0,755.0,0.0,1,238.0,1
1287,1287,-0.3582189047293013,-0.4,0.0,1.0,392.0,636.0,1.0,0,292.0,1
1288,1288,-0.7006602315544799,-0.7,1.0,0.0,434.0,652.0,0.0,0,464.0,1
1289,1289,0.7918225815647716,0.8,0.0,0.0,436.0,855.0,0.0,1,409.0,1
1290,1290,-0.7332732016503052,-0.7,0.0,1.0,485.0,525.0,1.0,0,220.0,1
1291,1291,0.5261606779936449,0.5,0.0,0.0,398.0,617.0,0.0,1,325.0,1
1292,1292,0.633454914256328,0.6,1.0,1.0,437.0,787.0,1.0,1,196.0,1
1293,1293,0.4838008066978766,0.5,1.0,1.0,277.0,658.0,1.0,1,265.0,1
1294,1294,0.8655048805070517,0.9,1.0,1.0,271.0,559.0,1.0,1,290.0,1
1295,1295,0.8380731267740807,0.8,0.0,0.0,343.0,862.0,0.0,1,115.0,1
1296,1296,0.3988986360232295,0.4,0.0,0.0,401.0,939.0,0.0,1,650.0,1
1297,1297,-0.45132215474240456,-0.5,1.0,0.0,400.0,883.0,0.0,0,277.0,1
1298,1298,-0.8456446452996895,-0.8,0.0,1.0,429.0,544.0,1.0,0,1047.0,1
1299,1299,0.8521377222563619,0.9,0.0,0.0,404.0,531.0,0.0,1,325.0,1
1300,1300,-0.7523500791298252,-0.8,1.0,0.0,356.0,965.0,0.0,0,279.0,1
1301,1301,-0.023620612330225166,-0.0,1.0,0.0,255.0,578.0,1.0,1,4167.0,0
1302,1302,0.4433290692525097,0.4,1.0,1.0,280.0,669.0,1.0,1,371.0,1
1303,1303,-0.5678826015936163,-0.6,0.0,1.0,468.0,632.0,1.0,0,330.0,1
1304,1304,-0.5084865593915939,-0.5,0.0,1.0,447.0,869.0,1.0,0,384.0,1
1305,1305,0.40489526833453404,0.4,1.0,1.0,351.0,790.0,1.0,1,239.0,1
1306,1306,0.6716017631507535,0.7,0.0,0.0,477.0,764.0,0.0,1,239.0,1
1307,1307,-0.7224689104134888,-0.7,1.0,0.0,348.0,542.0,0.0,0,670.0,1
1308,1308,-0.5982204306633604,-0.6,0.0,1.0,253.0,800.0,1.0,0,467.0,1
1309,1309,0.14321889723242787,0.1,1.0,1.0,417.0,569.0,1.0,1,544.0,1
1310,1310,-0.7039538734980142,-0.7,1.0,0.0,456.0,602.0,0.0,0,272.0,1
1311,1311,0.3945715984831618,0.4,0.0,0.0,440.0,596.0,0.0,1,504.0,1
1312,1312,-0.36283790388066284,-0.4,0.0,1.0,439.0,856.0,1.0,0,515.0,1
1313,1313,0.3924050380911771,0.4,1.0,1.0,344.0,784.0,1.0,1,162.0,1
1314,1314,-0.7509883190181993,-0.8,0.0,1.0,255.0,568.0,1.0,0,327.0,1
1315,1315,-0.06846556558579153,-0.1,1.0,0.0,418.0,694.0,1.0,1,668.0,0
1316,1316,0.2374839609689413,0.2,0.0,0.0,310.0,866.0,0.0,1,1254.0,1
1317,1317,-0.6975159689642279,-0.7,0.0,1.0,310.0,999.0,1.0,0,351.0,1
1318,1318,-0.005374477505795561,-0.0,0.0,1.0,345.0,603.0,0.0,1,3692.0,0
1319,1319,0.1209849606611767,0.1,1.0,1.0,374.0,733.0,1.0,1,683.0,1
1320,1320,-0.1385001505523602,-0.1,1.0,0.0,424.0,793.0,0.0,0,3433.0,1
1321,1321,0.09832766436135221,0.1,1.0,1.0,341.0,817.0,1.0,1,1962.0,1
1322,1322,0.054544666906198525,0.1,1.0,1.0,370.0,865.0,1.0,1,205.0,1
1323,1323,0.12364204474479046,0.1,0.0,0.0,394.0,637.0,0.0,1,1149.0,1
1324,1324,-0.5962019194258801,-0.6,1.0,0.0,415.0,907.0,0.0,0,148.0,1
1325,1325,0.2895260555965552,0.3,0.0,0.0,251.0,822.0,0.0,1,177.0,1
1326,1326,0.38266447013889004,0.4,0.0,0.0,447.0,884.0,0.0,1,539.0,1
1327,1327,0.5524673013679183,0.6,1.0,1.0,263.0,932.0,1.0,1,325.0,1
1328,1328,0.6150221248710036,0.6,0.0,0.0,441.0,616.0,0.0,1,713.0,1
1329,1329,-0.10462232076173872,-0.1,0.0,1.0,460.0,583.0,1.0,0,1767.0,1
1330,1330,-0.0496652414812474,-0.0,1.0,0.0,312.0,849.0,0.0,0,2959.0,1
1331,1331,-0.48735773053757137,-0.5,1.0,0.0,374.0,529.0,0.0,0,447.0,1
1332,1332,-0.8226664762163384,-0.8,0.0,1.0,351.0,804.0,1.0,0,205.0,1
1333,1333,-0.10980221876402663,-0.1,1.0,0.0,254.0,508.0,1.0,1,1158.0,0
1334,1334,0.24913263366744987,0.2,1.0,1.0,337.0,676.0,1.0,1,1137.0,1
1335,1335,-0.17602886282121943,-0.2,0.0,1.0,429.0,618.0,1.0,0,543.0,1
1336,1336,0.2219471290985694,0.2,0.0,0.0,319.0,572.0,0.0,1,339.0,1
1337,1337,-0.8331123165907122,-0.8,1.0,0.0,448.0,787.0,0.0,0,375.0,1
1338,1338,-0.09531309971317004,-0.1,1.0,0.0,300.0,998.0,0.0,0,442.0,1
1339,1339,-0.8105334577056282,-0.8,1.0,0.0,397.0,919.0,0.0,0,114.0,1
1340,1340,-0.2983810814426533,-0.3,0.0,1.0,344.0,874.0,1.0,0,-58.0,1
1341,1341,-0.11311771091755751,-0.1,1.0,0.0,399.0,784.0,0.0,0,1847.0,1
1342,1342,0.7998233734366246,0.8,0.0,0.0,362.0,755.0,0.0,1,293.0,1
1343,1343,0.42240659860674257,0.4,0.0,0.0,451.0,866.0,0.0,1,323.0,1
1344,1344,0.36950196150105763,0.4,1.0,1.0,360.0,907.0,1.0,1,333.0,1
1345,1345,0.5958730720990179,0.6,1.0,1.0,281.0,588.0,1.0,1,411.0,1
1346,1346,-0.21427255996546823,-0.2,0.0,1.0,319.0,945.0,1.0,0,646.0,1
1347,1347,-0.44577901370768175,-0.4,0.0,1.0,405.0,957.0,1.0,0,228.0,1
1348,1348,0.18065573906110688,0.2,1.0,1.0,310.0,690.0,1.0,1,510.0,1
1349,1349,0.11398861588705989,0.1,1.0,1.0,408.0,863.0,1.0,1,1299.0,1
1350,1350,-0.16734690696556842,-0.2,1.0,0.0,351.0,588.0,0.0,0,1011.0,1
1351,1351,-0.6270618392897748,-0.6,1.0,0.0,404.0,562.0,0.0,0,664.0,1
1352,1352,0.36087705783201074,0.4,0.0,0.0,467.0,918.0,0.0,1,535.0,1
1353,1353,0.42706935008754365,0.4,0.0,0.0,408.0,951.0,0.0,1,411.0,1
1354,1354,0.43580320393620775,0.4,1.0,1.0,365.0,825.0,1.0,1,240.0,1
1355,1355,-0.6055226117376598,-0.6,0.0,1.0,339.0,695.0,1.0,0,106.0,1
1356,1356,0.03672640327690824,0.0,0.0,0.0,459.0,719.0,1.0,0,902.0,0
1357,1357,0.5219266969154143,0.5,1.0,1.0,316.0,716.0,1.0,1,338.0,1
1358,1358,0.6700322131571143,0.7,1.0,1.0,271.0,813.0,1.0,1,36.0,1
1359,1359,0.2383583568037878,0.2,0.0,0.0,261.0,773.0,0.0,1,986.0,1
1360,1360,0.3642600600928413,0.4,1.0,1.0,393.0,538.0,1.0,1,429.0,1
1361,1361,-0.8048068646524879,-0.8,0.0,1.0,362.0,947.0,1.0,0,311.0,1
1362,1362,-0.07613567724480597,-0.1,0.0,1.0,440.0,635.0,1.0,0,575.0,1
1363,1363,0.1605258766369967,0.2,1.0,1.0,437.0,820.0,1.0,1,1373.0,1
1364,1364,0.35622290414092916,0.4,1.0,1.0,496.0,760.0,1.0,1,474.0,1
1365,1365,-0.8787833984307761,-0.9,1.0,0.0,396.0,533.0,0.0,0,491.0,1
1366,1366,-0.34858750400692207,-0.3,0.0,1.0,336.0,732.0,1.0,0,472.0,1
1367,1367,0.774037438343052,0.8,0.0,0.0,298.0,954.0,0.0,1,138.0,1
1368,1368,0.5382183007928242,0.5,0.0,0.0,259.0,617.0,0.0,1,364.0,1
1369,1369,0.4884503127596652,0.5,0.0,0.0,411.0,579.0,0.0,1,370.0,1
1370,1370,-0.5287137283243967,-0.5,0.0,1.0,377.0,739.0,1.0,0,284.0,1
1371,1371,0.430440861497278,0.4,0.0,0.0,371.0,863.0,0.0,1,406.0,1
1372,1372,0.5387992210806806,0.5,0.0,0.0,365.0,728.0,0.0,1,307.0,1
1373,1373,0.24068605854715208,0.2,0.0,0.0,425.0,863.0,0.0,1,502.0,1
1374,1374,0.3388928326450772,0.3,1.0,1.0,495.0,833.0,1.0,1,972.0,1
1375,1375,0.5285824977034558,0.5,0.0,0.0,384.0,975.0,0.0,1,451.0,1
1376,1376,0.46839213818614367,0.5,1.0,1.0,327.0,761.0,1.0,1,402.0,1
1377,1377,-0.5715997352424746,-0.6,0.0,1.0,364.0,919.0,1.0,0,197.0,1
1378,1378,0.6442369938949392,0.6,1.0,1.0,495.0,542.0,1.0,1,353.0,1
1379,1379,0.3190609117212405,0.3,0.0,0.0,313.0,594.0,0.0,1,633.0,1
1380,1380,0.8036559495347905,0.8,0.0,0.0,438.0,720.0,0.0,1,262.0,1
1381,1381,-0.7522804133846803,-0.8,0.0,1.0,316.0,650.0,1.0,0,314.0,1
1382,1382,-0.015451687998959907,-0.0,1.0,0.0,318.0,842.0,0.0,0,1030.0,1
1383,1383,-0.4160762306637767,-0.4,1.0,0.0,432.0,547.0,0.0,0,581.0,1
1384,1384,-0.49050984726398555,-0.5,1.0,0.0,453.0,978.0,0.0,0,549.0,1
1385,1385,0.8978103362755819,0.9,0.0,0.0,438.0,721.0,0.0,1,1021.0,1
1386,1386,-0.8689990850989241,-0.9,0.0,1.0,454.0,558.0,1.0,0,128.0,1
1387,1387,0.6806711505596589,0.7,1.0,1.0,305.0,688.0,1.0,1,477.0,1
1388,1388,0.8459790203864644,0.8,1.0,1.0,487.0,603.0,1.0,1,200.0,1
1389,1389,-0.7244647875053827,-0.7,0.0,1.0,365.0,749.0,1.0,0,496.0,1
1390,1390,-0.2647032490747392,-0.3,0.0,1.0,418.0,555.0,1.0,0,487.0,1
1391,1391,0.48683642995806664,0.5,1.0,1.0,487.0,963.0,1.0,1,90.0,1
1392,1392,0.41096025671288927,0.4,1.0,1.0,256.0,682.0,1.0,1,252.0,1
1393,1393,-0.3543448055398045,-0.4,0.0,1.0,273.0,685.0,1.0,0,362.0,1
1394,1394,0.7486692861094321,0.7,0.0,0.0,408.0,702.0,0.0,1,170.0,1
1395,1395,0.1386470504379428,0.1,1.0,1.0,417.0,825.0,1.0,1,728.0,1
1396,1396,0.5264971916587337,0.5,0.0,0.0,444.0,594.0,0.0,1,302.0,1
1397,1397,0.13185868837320236,0.1,0.0,0.0,365.0,756.0,0.0,1,2429.0,1
1398,1398,0.49747586688960166,0.5,1.0,1.0,412.0,594.0,1.0,1,194.0,1
1399,1399,-0.29903569875115976,-0.3,1.0,0.0,380.0,710.0,0.0,0,460.0,1
1400,1400,-0.14596546872455574,-0.1,0.0,1.0,458.0,706.0,1.0,0,1976.0,1
1401,1401,-0.752839572893726,-0.8,0.0,1.0,480.0,851.0,1.0,0,309.0,1
1402,1402,-0.7665560537094358,-0.8,1.0,0.0,288.0,845.0,0.0,0,687.0,1
1403,1403,-0.7514575841780811,-0.8,0.0,1.0,275.0,764.0,1.0,0,261.0,1
1404,1404,-0.6278386188775609,-0.6,1.0,0.0,273.0,573.0,0.0,0,314.0,1
1405,1405,0.8186560513528883,0.8,1.0,1.0,348.0,913.0,1.0,1,179.0,1
1406,1406,0.7027156461740452,0.7,1.0,1.0,374.0,686.0,1.0,1,220.0,1
1407,1407,0.8941855027071827,0.9,1.0,1.0,376.0,607.0,1.0,1,157.0,1
1408,1408,-0.12352723695218082,-0.1,1.0,0.0,412.0,525.0,1.0,1,4063.0,0
1409,1409,0.5768387327392507,0.6,1.0,1.0,324.0,616.0,1.0,1,560.0,1
1410,1410,-0.6709047878231287,-0.7,1.0,0.0,402.0,942.0,0.0,0,526.0,1
1411,1411,-0.5229335440532643,-0.5,0.0,1.0,286.0,541.0,1.0,0,463.0,1
1412,1412,-0.5264486632878953,-0.5,0.0,1.0,400.0,552.0,1.0,0,358.0,1
1413,1413,-0.1513478303457706,-0.2,1.0,0.0,324.0,863.0,0.0,0,1293.0,1
1414,1414,0.6275442131146199,0.6,0.0,0.0,438.0,948.0,0.0,1,274.0,1
1415,1415,0.37565809550095974,0.4,0.0,0.0,305.0,631.0,0.0,1,694.0,1
1416,1416,0.29458113861777935,0.3,1.0,1.0,295.0,579.0,1.0,1,586.0,1
1417,1417,-0.12367686372010833,-0.1,0.0,1.0,263.0,758.0,1.0,0,2179.0,1
1418,1418,-0.06649593696301415,-0.1,1.0,0.0,279.0,628.0,0.0,0,4093.0,1
1419,1419,-0.21120545364405852,-0.2,1.0,0.0,384.0,900.0,0.0,0,1226.0,1
1420,1420,0.139846778674234,0.1,1.0,1.0,386.0,930.0,1.0,1,104.0,1
1421,1421,0.2844372249086512,0.3,1.0,1.0,263.0,754.0,1.0,1,533.0,1
1422,1422,0.008140747980497132,0.0,1.0,1.0,454.0,800.0,0.0,0,3506.0,0
1423,1423,0.23478416420927883,0.2,1.0,1.0,334.0,628.0,1.0,1,868.0,1
1424,1424,-0.19920434234364748,-0.2,0.0,1.0,289.0,984.0,1.0,0,777.0,1
1425,1425,0.21111516228091742,0.2,1.0,1.0,369.0,636.0,1.0,1,1015.0,1
1426,1426,0.234955542605788,0.2,0.0,0.0,255.0,675.0,0.0,1,780.0,1
1427,1427,-0.49778648055229185,-0.5,1.0,0.0,409.0,694.0,0.0,0,487.0,1
1428,1428,0.2537165374177083,0.3,0.0,0.0,310.0,638.0,0.0,1,262.0,1
1429,1429,0.6677347621120101,0.7,1.0,1.0,426.0,820.0,1.0,1,344.0,1
1430,1430,0.5548850449585031,0.6,0.0,0.0,353.0,984.0,0.0,1,263.0,1
1431,1431,0.8950059850088309,0.9,1.0,1.0,464.0,917.0,1.0,1,89.0,1
1432,1432,0.7840103241213833,0.8,1.0,1.0,497.0,606.0,1.0,1,377.0,1
1433,1433,0.027275044414246552,0.0,1.0,1.0,413.0,957.0,1.0,1,460.0,1
1434,1434,-0.7444566754262799,-0.7,1.0,0.0,298.0,673.0,0.0,0,189.0,1
1435,1435,-0.6383119361249167,-0.6,0.0,1.0,491.0,644.0,1.0,0,545.0,1
1436,1436,0.5543541134341955,0.6,1.0,1.0,437.0,743.0,1.0,1,410.0,1
1437,1437,0.7092363225902519,0.7,1.0,1.0,476.0,968.0,1.0,1,636.0,1
1438,1438,0.6550095980962555,0.7,1.0,1.0,342.0,905.0,1.0,1,423.0,1
1439,1439,-0.859303478315009,-0.9,1.0,0.0,255.0,650.0,0.0,0,265.0,1
1440,1440,0.5290927376057696,0.5,0.0,0.0,293.0,728.0,0.0,1,469.0,1
1441,1441,0.8499648790436761,0.8,0.0,0.0,487.0,810.0,0.0,1,213.0,1
1442,1442,-0.2756079692599387,-0.3,0.0,1.0,461.0,928.0,1.0,0,281.0,1
1443,1443,0.7818590036966787,0.8,0.0,0.0,279.0,997.0,0.0,1,194.0,1
1444,1444,-0.6149588474413519,-0.6,0.0,1.0,389.0,551.0,1.0,0,480.0,1
1445,1445,0.23223875373742764,0.2,0.0,0.0,399.0,688.0,0.0,1,223.0,1
1446,1446,-0.19608275900062933,-0.2,1.0,0.0,485.0,847.0,0.0,0,468.0,1
1447,1447,0.8732853529162231,0.9,0.0,0.0,301.0,671.0,0.0,1,478.0,1
1448,1448,0.7711588894159852,0.8,0.0,0.0,301.0,974.0,0.0,1,135.0,1
1449,1449,-0.7291152088194336,-0.7,0.0,1.0,267.0,851.0,1.0,0,682.0,1
1450,1450,-0.1715084658796472,-0.2,0.0,1.0,277.0,504.0,1.0,0,1369.0,1
1451,1451,0.8336391807449365,0.8,1.0,1.0,256.0,832.0,1.0,1,322.0,1
1452,1452,0.8699815301954928,0.9,0.0,0.0,318.0,758.0,0.0,1,154.0,1
1453,1453,0.6130946398106921,0.6,1.0,1.0,258.0,824.0,1.0,1,488.0,1
1454,1454,-0.39539145035772305,-0.4,0.0,1.0,274.0,558.0,1.0,0,628.0,1
1455,1455,0.7777953880223899,0.8,1.0,1.0,451.0,907.0,1.0,1,442.0,1
1456,1456,-0.10684417456354489,-0.1,1.0,0.0,441.0,943.0,0.0,0,926.0,1
1457,1457,0.5648412836980107,0.6,1.0,1.0,359.0,927.0,1.0,1,744.0,1
1458,1458,0.1569541403357303,0.2,1.0,1.0,368.0,593.0,1.0,1,789.0,1
1459,1459,0.6759793847521053,0.7,0.0,0.0,479.0,584.0,0.0,1,607.0,1
1460,1460,-0.8268830592785197,-0.8,0.0,1.0,313.0,707.0,1.0,0,170.0,1
1461,1461,-0.8609509673299897,-0.9,1.0,0.0,392.0,919.0,0.0,0,319.0,1
1462,1462,-0.7730535891423613,-0.8,0.0,1.0,264.0,931.0,1.0,0,595.0,1
1463,1463,-0.8901237508780688,-0.9,0.0,1.0,457.0,879.0,1.0,0,154.0,1
1464,1464,-0.5656255676457136,-0.6,0.0,1.0,267.0,584.0,1.0,0,369.0,1
1465,1465,0.6901874997232768,0.7,1.0,1.0,263.0,814.0,1.0,1,273.0,1
1466,1466,-0.0064548692500948635,-0.0,0.0,1.0,432.0,599.0,0.0,1,789.0,0
1467,1467,-0.7629659399289266,-0.8,0.0,1.0,482.0,558.0,1.0,0,300.0,1
1468,1468,-0.7275279320626653,-0.7,0.0,1.0,460.0,655.0,1.0,0,375.0,1
1469,1469,-0.17885437562391737,-0.2,1.0,0.0,301.0,516.0,0.0,0,603.0,1
1470,1470,-0.839355638353738,-0.8,1.0,0.0,483.0,974.0,0.0,0,233.0,1
1471,1471,-0.38008059590226095,-0.4,0.0,1.0,319.0,833.0,1.0,0,238.0,1
1472,1472,-0.31274945819563493,-0.3,0.0,1.0,411.0,927.0,1.0,0,322.0,1
1473,1473,0.05513418173205764,0.1,0.0,0.0,258.0,964.0,0.0,1,3778.0,1
1474,1474,-0.51359141434724,-0.5,0.0,1.0,449.0,840.0,1.0,0,291.0,1
1475,1475,0.5223984602961597,0.5,1.0,1.0,268.0,926.0,1.0,1,146.0,1
1476,1476,-0.3163207839674391,-0.3,1.0,0.0,288.0,993.0,0.0,0,899.0,1
1477,1477,-0.23132237868611172,-0.2,1.0,0.0,319.0,931.0,0.0,0,600.0,1
1478,1478,0.8683795675434086,0.9,0.0,0.0,305.0,584.0,0.0,1,201.0,1
1479,1479,-0.21575495641158893,-0.2,0.0,1.0,326.0,945.0,1.0,0,1109.0,1
1480,1480,-0.763699620020885,-0.8,1.0,0.0,287.0,801.0,0.0,0,332.0,1
1481,1481,0.8690044015844066,0.9,0.0,0.0,275.0,695.0,0.0,1,180.0,1
1482,1482,-0.381061019627872,-0.4,1.0,0.0,425.0,998.0,0.0,0,477.0,1
1483,1483,0.7703555464921835,0.8,0.0,0.0,373.0,720.0,0.0,1,347.0,1
1484,1484,0.12992894015562795,0.1,0.0,0.0,488.0,661.0,0.0,1,1471.0,1
1485,1485,-0.20840470726004912,-0.2,1.0,0.0,347.0,821.0,0.0,0,702.0,1
1486,1486,-0.8446749832898874,-0.8,1.0,0.0,263.0,680.0,0.0,0,247.0,1
1487,1487,-0.19819798713688175,-0.2,0.0,1.0,404.0,837.0,1.0,0,479.0,1
1488,1488,-0.4487979896134719,-0.4,0.0,1.0,477.0,876.0,1.0,0,287.0,1
1489,1489,-0.16517927712239722,-0.2,1.0,0.0,291.0,972.0,0.0,0,3737.0,1
