,trial,coherence,coherence_bin,green_side,correct_side,target_onset,checker_onset,decision,green_decision,decision_time,correct_decision
0,0,0.27808313476248714,0.3,0.0,0.0,335.0,505.0,1.0,0,1520.0,0
1,1,0.22358198972492682,0.2,1.0,1.0,329.0,679.0,0.0,0,282.0,0
2,2,-0.5566054989965367,-0.6,1.0,0.0,415.0,801.0,1.0,1,314.0,0
3,3,0.834964798249226,0.8,1.0,1.0,267.0,818.0,1.0,1,215.0,1
4,4,-0.5882376869793602,-0.6,0.0,1.0,272.0,569.0,1.0,0,519.0,1
5,5,-0.5242326834008746,-0.5,1.0,0.0,446.0,617.0,0.0,0,487.0,1
6,6,-0.4395492196015083,-0.4,0.0,1.0,399.0,699.0,1.0,0,252.0,1
7,7,-0.758710318949076,-0.8,1.0,0.0,279.0,740.0,0.0,0,1161.0,1
8,8,0.8125639564721651,0.8,1.0,1.0,318.0,948.0,1.0,1,-166.0,1
9,9,0.16276531146157402,0.2,0.0,0.0,407.0,908.0,0.0,1,555.0,1
10,10,-0.6842161785740596,-0.7,0.0,1.0,362.0,597.0,1.0,0,721.0,1
11,11,0.3256041526120953,0.3,0.0,0.0,350.0,604.0,0.0,1,556.0,1
12,12,0.2627673274925043,0.3,0.0,0.0,294.0,737.0,0.0,1,419.0,1
13,13,-0.7630428658612843,-0.8,0.0,1.0,497.0,613.0,1.0,0,310.0,1
14,14,0.2084125381235854,0.2,1.0,1.0,262.0,720.0,1.0,1,298.0,1
15,15,-0.8494298222145851,-0.8,1.0,0.0,336.0,809.0,0.0,0,195.0,1
16,16,-0.2363043221615927,-0.2,1.0,0.0,448.0,685.0,1.0,1,337.0,0
17,17,-0.8234661849151245,-0.8,1.0,0.0,302.0,665.0,0.0,0,253.0,1
18,18,0.6320183385277504,0.6,1.0,1.0,284.0,907.0,1.0,1,139.0,1
19,19,-0.413189057125228,-0.4,0.0,1.0,409.0,712.0,1.0,0,349.0,1
20,20,-0.7582378334411798,-0.8,0.0,1.0,299.0,948.0,1.0,0,573.0,1
21,21,0.7998243269075923,0.8,1.0,1.0,451.0,876.0,1.0,1,73.0,1
22,22,0.2909927926192214,0.3,1.0,1.0,319.0,587.0,1.0,1,314.0,1
23,23,0.5462774901288608,0.5,1.0,1.0,458.0,572.0,1.0,1,240.0,1
24,24,0.43159331615918684,0.4,1.0,1.0,497.0,917.0,1.0,1,186.0,1
25,25,-0.07955394537095195,-0.1,0.0,1.0,342.0,959.0,1.0,0,9.0,1
26,26,0.8575337715226218,0.9,1.0,1.0,254.0,511.0,1.0,1,535.0,1
27,27,0.3072178897131982,0.3,0.0,0.0,320.0,616.0,0.0,1,2274.0,1
28,28,0.8058817310355247,0.8,0.0,0.0,470.0,666.0,0.0,1,444.0,1
29,29,-0.2545097417569302,-0.3,1.0,0.0,405.0,834.0,0.0,0,331.0,1
30,30,0.5701208840099793,0.6,1.0,1.0,280.0,952.0,1.0,1,268.0,1
31,31,0.10493128094323512,0.1,0.0,0.0,472.0,844.0,0.0,1,644.0,1
32,32,0.3388892939086475,0.3,0.0,0.0,449.0,882.0,1.0,0,79.0,0
33,33,-0.7688193928670638,-0.8,0.0,1.0,273.0,737.0,1.0,0,240.0,1
34,34,-0.4514689497769405,-0.5,1.0,0.0,421.0,543.0,0.0,0,976.0,1
35,35,-0.8047813385747158,-0.8,1.0,0.0,466.0,803.0,0.0,0,231.0,1
36,36,0.33049200837427384,0.3,0.0,0.0,486.0,649.0,0.0,1,525.0,1
37,37,0.5799342271722226,0.6,0.0,0.0,282.0,884.0,0.0,1,114.0,1
38,38,-0.45985049774149084,-0.5,0.0,1.0,345.0,560.0,1.0,0,915.0,1
39,39,-0.645591820147652,-0.6,1.0,0.0,458.0,893.0,0.0,0,249.0,1
40,40,0.3158322131304173,0.3,1.0,1.0,347.0,722.0,1.0,1,71.0,1
41,41,-0.0870247244530189,-0.1,0.0,1.0,276.0,969.0,1.0,0,465.0,1
42,42,-0.7594928721558335,-0.8,0.0,1.0,307.0,560.0,1.0,0,293.0,1
43,43,-0.5877733149553437,-0.6,1.0,0.0,466.0,586.0,0.0,0,1098.0,1
44,44,0.5971142971438802,0.6,1.0,1.0,315.0,935.0,1.0,1,70.0,1
45,45,0.7207371409064417,0.7,0.0,0.0,447.0,914.0,0.0,1,149.0,1
46,46,0.40098030908909277,0.4,1.0,1.0,366.0,940.0,1.0,1,474.0,1
47,47,0.3862387281170686,0.4,0.0,0.0,318.0,691.0,0.0,1,301.0,1
48,48,0.43079565824896127,0.4,0.0,0.0,279.0,687.0,0.0,1,454.0,1
49,49,0.7563213474413705,0.8,0.0,0.0,425.0,740.0,0.0,1,445.0,1
50,50,0.6743207195900226,0.7,1.0,1.0,361.0,932.0,1.0,1,167.0,1
51,51,0.4831020125654094,0.5,1.0,1.0,407.0,860.0,1.0,1,193.0,1
52,52,0.3443887863625609,0.3,1.0,1.0,365.0,674.0,1.0,1,431.0,1
53,53,0.7734018769985321,0.8,1.0,1.0,314.0,606.0,1.0,1,350.0,1
54,54,0.7859748001448746,0.8,1.0,1.0,257.0,872.0,1.0,1,201.0,1
55,55,0.7534836674928868,0.8,0.0,0.0,481.0,690.0,0.0,1,339.0,1
56,56,0.517891439001975,0.5,0.0,0.0,324.0,965.0,1.0,0,61.0,0
57,57,0.7287894230847697,0.7,0.0,0.0,496.0,934.0,0.0,1,340.0,1
58,58,-0.7782342976848762,-0.8,1.0,0.0,463.0,817.0,0.0,0,170.0,1
59,59,0.6378195628995865,0.6,1.0,1.0,420.0,709.0,1.0,1,131.0,1
60,60,0.7468295617103596,0.7,1.0,1.0,415.0,924.0,1.0,1,41.0,1
61,61,0.17920610715722318,0.2,0.0,0.0,265.0,525.0,0.0,1,550.0,1
62,62,-0.868254736689411,-0.9,0.0,1.0,443.0,821.0,1.0,0,96.0,1
63,63,0.7306385659638363,0.7,1.0,1.0,297.0,968.0,1.0,1,-35.0,1
64,64,0.7441553800408479,0.7,0.0,0.0,311.0,820.0,0.0,1,539.0,1
65,65,0.49852434137345913,0.5,1.0,1.0,362.0,906.0,1.0,1,132.0,1
66,66,-0.3215295879019676,-0.3,0.0,1.0,370.0,645.0,1.0,0,1405.0,1
67,67,0.5803148754377782,0.6,0.0,0.0,471.0,813.0,0.0,1,906.0,1
68,68,-0.7888813030052402,-0.8,1.0,0.0,331.0,706.0,0.0,0,573.0,1
69,69,-0.7258913184824904,-0.7,0.0,1.0,326.0,743.0,1.0,0,41.0,1
70,70,0.8010081781078863,0.8,0.0,0.0,491.0,585.0,0.0,1,844.0,1
71,71,-0.6275339001987212,-0.6,0.0,1.0,469.0,862.0,1.0,0,99.0,1
72,72,-0.6773030518476078,-0.7,0.0,1.0,250.0,603.0,1.0,0,307.0,1
73,73,-0.19798729505831925,-0.2,1.0,0.0,447.0,584.0,0.0,0,309.0,1
74,74,-0.3924404539269758,-0.4,1.0,0.0,364.0,704.0,0.0,0,492.0,1
75,75,0.30612713044977624,0.3,0.0,0.0,356.0,737.0,0.0,1,227.0,1
76,76,-0.4814638337262771,-0.5,1.0,0.0,433.0,898.0,0.0,0,349.0,1
77,77,-0.8277816814719724,-0.8,1.0,0.0,390.0,583.0,0.0,0,677.0,1
78,78,0.7369221135438714,0.7,1.0,1.0,461.0,894.0,1.0,1,165.0,1
79,79,0.6767236629615277,0.7,1.0,1.0,273.0,526.0,1.0,1,371.0,1
80,80,0.3486442048563211,0.3,0.0,0.0,456.0,620.0,1.0,0,254.0,0
81,81,-0.5235888217915878,-0.5,1.0,0.0,450.0,967.0,0.0,0,253.0,1
82,82,0.4359135143594871,0.4,1.0,1.0,333.0,578.0,1.0,1,319.0,1
83,83,0.5723409154702069,0.6,1.0,1.0,273.0,577.0,1.0,1,510.0,1
84,84,-0.8545954016712691,-0.9,0.0,1.0,475.0,834.0,1.0,0,-49.0,1
85,85,0.261145115369808,0.3,0.0,0.0,291.0,750.0,1.0,0,359.0,0
86,86,-0.8950222776535611,-0.9,1.0,0.0,337.0,822.0,0.0,0,41.0,1
87,87,-0.08453387815516522,-0.1,0.0,1.0,289.0,878.0,1.0,0,223.0,1
88,88,0.3582659405465317,0.4,0.0,0.0,417.0,550.0,0.0,1,1053.0,1
89,89,-0.8211523964150109,-0.8,0.0,1.0,436.0,734.0,1.0,0,180.0,1
90,90,0.8994826099203809,0.9,0.0,0.0,436.0,861.0,0.0,1,273.0,1
91,91,-0.4819058018911271,-0.5,0.0,1.0,276.0,904.0,1.0,0,-160.0,1
92,92,0.10797960337537027,0.1,1.0,1.0,354.0,589.0,1.0,1,257.0,1
93,93,0.23959040244034424,0.2,0.0,0.0,319.0,720.0,1.0,0,511.0,0
94,94,-0.21171028332424557,-0.2,1.0,0.0,299.0,947.0,1.0,1,914.0,0
95,95,0.2424545897381497,0.2,0.0,0.0,482.0,586.0,1.0,0,262.0,0
96,96,-0.519969569863497,-0.5,0.0,1.0,399.0,988.0,1.0,0,-247.0,1
97,97,-0.6684205596603725,-0.7,1.0,0.0,308.0,542.0,0.0,0,1920.0,1
98,98,-0.42574784089325024,-0.4,0.0,1.0,421.0,620.0,1.0,0,159.0,1
99,99,0.5711617867079611,0.6,0.0,0.0,445.0,900.0,0.0,1,725.0,1
100,100,-0.5903510472082314,-0.6,1.0,0.0,341.0,668.0,0.0,0,531.0,1
101,101,-0.4682978709087223,-0.5,0.0,1.0,461.0,776.0,1.0,0,83.0,1
102,102,-0.3722198387279013,-0.4,0.0,1.0,383.0,834.0,1.0,0,523.0,1
103,103,-0.31336706116993507,-0.3,1.0,0.0,388.0,532.0,1.0,1,430.0,0
104,104,-0.10875889426091956,-0.1,1.0,0.0,452.0,894.0,1.0,1,564.0,0
105,105,0.20876167559320769,0.2,1.0,1.0,281.0,895.0,1.0,1,124.0,1
106,106,0.13009492439197523,0.1,0.0,0.0,433.0,687.0,0.0,1,200.0,1
107,107,-0.44460896098895186,-0.4,1.0,0.0,364.0,643.0,1.0,1,293.0,0
108,108,-0.658549678185682,-0.7,1.0,0.0,276.0,762.0,1.0,1,252.0,0
109,109,0.4555558494796238,0.5,0.0,0.0,477.0,552.0,0.0,1,291.0,1
110,110,0.5138645091678965,0.5,0.0,0.0,478.0,940.0,1.0,0,22.0,0
111,111,0.38347008196196153,0.4,0.0,0.0,443.0,570.0,0.0,1,757.0,1
112,112,0.21298937377970317,0.2,1.0,1.0,425.0,740.0,1.0,1,95.0,1
113,113,0.7418880280579149,0.7,0.0,0.0,447.0,556.0,0.0,1,287.0,1
114,114,0.7047364261801733,0.7,0.0,0.0,313.0,868.0,0.0,1,349.0,1
115,115,-0.28522191781606043,-0.3,0.0,1.0,336.0,689.0,1.0,0,165.0,1
116,116,0.8064720862033868,0.8,0.0,0.0,462.0,657.0,0.0,1,361.0,1
117,117,0.6543522978477513,0.7,1.0,1.0,448.0,917.0,1.0,1,25.0,1
118,118,0.7979580114427111,0.8,1.0,1.0,336.0,672.0,1.0,1,122.0,1
119,119,0.41939991398129817,0.4,1.0,1.0,293.0,997.0,0.0,0,0.0,0
120,120,-0.1628712758451072,-0.2,1.0,0.0,495.0,822.0,0.0,0,343.0,1
121,121,-0.1065488413162674,-0.1,0.0,1.0,486.0,713.0,1.0,0,661.0,1
122,122,0.8846346798191035,0.9,1.0,1.0,391.0,558.0,1.0,1,531.0,1
123,123,-0.19139254751329138,-0.2,1.0,0.0,385.0,644.0,1.0,1,541.0,0
124,124,0.25125413659666307,0.3,1.0,1.0,363.0,756.0,1.0,1,171.0,1
125,125,0.37077383780559325,0.4,1.0,1.0,405.0,532.0,1.0,1,393.0,1
126,126,-0.1752599386400635,-0.2,0.0,1.0,400.0,921.0,1.0,0,689.0,1
127,127,0.4478920747216629,0.4,1.0,1.0,399.0,712.0,1.0,1,19.0,1
128,128,-0.415217247584789,-0.4,1.0,0.0,341.0,507.0,0.0,0,582.0,1
129,129,-0.7816332188569771,-0.8,1.0,0.0,328.0,622.0,0.0,0,350.0,1
130,130,0.7062881461555569,0.7,1.0,1.0,491.0,919.0,1.0,1,110.0,1
131,131,-0.12730376009849076,-0.1,0.0,1.0,480.0,983.0,1.0,0,-33.0,1
132,132,0.7394666448676007,0.7,0.0,0.0,325.0,622.0,0.0,1,793.0,1
133,133,0.228521007835912,0.2,0.0,0.0,310.0,736.0,0.0,1,414.0,1
134,134,0.2982321319490947,0.3,0.0,0.0,361.0,767.0,0.0,1,202.0,1
135,135,0.1372061791769562,0.1,0.0,0.0,339.0,944.0,1.0,0,-13.0,0
136,136,0.45317314912203444,0.5,1.0,1.0,274.0,667.0,1.0,1,789.0,1
137,137,0.24868178987729983,0.2,0.0,0.0,487.0,681.0,0.0,1,602.0,1
138,138,0.7423365369656524,0.7,1.0,1.0,263.0,863.0,1.0,1,24.0,1
139,139,-0.032254709786111,-0.0,1.0,0.0,299.0,956.0,0.0,0,-5.0,1
140,140,0.36306477639220314,0.4,0.0,0.0,484.0,900.0,1.0,0,366.0,0
141,141,-0.47756942085846066,-0.5,0.0,1.0,285.0,697.0,1.0,0,288.0,1
142,142,0.3472593142136179,0.3,1.0,1.0,354.0,647.0,1.0,1,309.0,1
143,143,0.4327175954041028,0.4,0.0,0.0,322.0,582.0,0.0,1,556.0,1
144,144,-0.11618043525779898,-0.1,1.0,0.0,476.0,930.0,0.0,0,234.0,1
145,145,0.8319465783981089,0.8,1.0,1.0,365.0,743.0,1.0,1,232.0,1
146,146,-0.6018005601569141,-0.6,1.0,0.0,283.0,729.0,0.0,0,418.0,1
147,147,0.1808745200894465,0.2,0.0,0.0,295.0,964.0,1.0,0,-189.0,0
148,148,0.5807963587513093,0.6,0.0,0.0,477.0,597.0,0.0,1,636.0,1
149,149,0.4807839057448525,0.5,0.0,0.0,300.0,693.0,0.0,1,277.0,1
150,150,-0.6760658359324948,-0.7,1.0,0.0,491.0,748.0,1.0,1,91.0,0
151,151,0.869590920572307,0.9,1.0,1.0,296.0,661.0,1.0,1,153.0,1
152,152,0.1690101807227956,0.2,0.0,0.0,267.0,795.0,1.0,0,18.0,0
153,153,0.04577670592487193,0.0,1.0,1.0,279.0,991.0,1.0,1,600.0,1
154,154,0.7687451703471478,0.8,1.0,1.0,446.0,830.0,1.0,1,424.0,1
155,155,-0.7855745828369395,-0.8,1.0,0.0,409.0,715.0,0.0,0,526.0,1
156,156,0.7505472846525162,0.8,0.0,0.0,342.0,892.0,0.0,1,956.0,1
157,157,0.5682970458841708,0.6,1.0,1.0,423.0,967.0,1.0,1,-30.0,1
158,158,0.48420345572892864,0.5,0.0,0.0,268.0,957.0,0.0,1,385.0,1
159,159,-0.6214926486831189,-0.6,0.0,1.0,251.0,717.0,1.0,0,122.0,1
160,160,-0.4202233393628068,-0.4,1.0,0.0,294.0,596.0,0.0,0,430.0,1
161,161,-0.14683354376694613,-0.1,0.0,1.0,492.0,816.0,1.0,0,1042.0,1
162,162,-0.32206160939929496,-0.3,0.0,1.0,317.0,554.0,1.0,0,359.0,1
163,163,0.47452222003207833,0.5,0.0,0.0,322.0,546.0,0.0,1,392.0,1
164,164,0.839003907254735,0.8,0.0,0.0,369.0,556.0,0.0,1,545.0,1
165,165,0.8864194396566981,0.9,0.0,0.0,373.0,922.0,0.0,1,545.0,1
166,166,0.6242067885617107,0.6,0.0,0.0,396.0,651.0,0.0,1,453.0,1
167,167,-0.5219906560511596,-0.5,0.0,1.0,404.0,615.0,1.0,0,501.0,1
168,168,-0.8416352020070063,-0.8,1.0,0.0,342.0,829.0,0.0,0,1009.0,1
169,169,-0.29117445526778574,-0.3,1.0,0.0,490.0,537.0,1.0,1,1603.0,0
170,170,0.40467946719312076,0.4,1.0,1.0,443.0,541.0,1.0,1,306.0,1
171,171,-0.07196758208537857,-0.1,1.0,0.0,266.0,571.0,1.0,1,303.0,0
172,172,0.4251478703096264,0.4,1.0,1.0,474.0,530.0,1.0,1,566.0,1
173,173,0.6389862261760967,0.6,1.0,1.0,382.0,684.0,1.0,1,494.0,1
174,174,0.05030751573269576,0.1,1.0,1.0,327.0,928.0,1.0,1,345.0,1
175,175,0.880194983443983,0.9,1.0,1.0,400.0,929.0,1.0,1,141.0,1
176,176,-0.43299178456077064,-0.4,0.0,1.0,407.0,861.0,0.0,1,42.0,0
177,177,0.274453034275692,0.3,1.0,1.0,389.0,757.0,1.0,1,214.0,1
178,178,-0.7648013192295288,-0.8,0.0,1.0,360.0,859.0,1.0,0,321.0,1
179,179,0.828593724088052,0.8,1.0,1.0,353.0,959.0,1.0,1,198.0,1
180,180,-0.18648553728076034,-0.2,1.0,0.0,357.0,669.0,1.0,1,414.0,0
181,181,0.3262152501357639,0.3,1.0,1.0,371.0,969.0,1.0,1,-170.0,1
182,182,0.4064107999032004,0.4,1.0,1.0,269.0,777.0,1.0,1,134.0,1
183,183,0.834223218059503,0.8,0.0,0.0,446.0,829.0,0.0,1,355.0,1
184,184,0.5133429343361843,0.5,0.0,0.0,264.0,736.0,0.0,1,530.0,1
185,185,-0.1818569397944374,-0.2,0.0,1.0,355.0,509.0,1.0,0,246.0,1
186,186,-0.2959105747135171,-0.3,1.0,0.0,271.0,546.0,1.0,1,503.0,0
187,187,0.19654072081671525,0.2,0.0,0.0,280.0,979.0,0.0,1,-189.0,1
188,188,-0.0826571142225897,-0.1,1.0,0.0,285.0,901.0,1.0,1,-16.0,0
189,189,0.5609988239834321,0.6,1.0,1.0,475.0,606.0,1.0,1,519.0,1
190,190,-0.1390099717621861,-0.1,1.0,0.0,417.0,757.0,0.0,0,556.0,1
191,191,0.724750036519843,0.7,1.0,1.0,350.0,602.0,1.0,1,498.0,1
192,192,0.02680174974116012,0.0,0.0,0.0,406.0,951.0,1.0,0,643.0,0
193,193,-0.45977806588198816,-0.5,0.0,1.0,363.0,707.0,1.0,0,570.0,1
194,194,0.6667771906558672,0.7,1.0,1.0,322.0,680.0,1.0,1,338.0,1
195,195,-0.21517762011970976,-0.2,0.0,1.0,273.0,785.0,1.0,0,502.0,1
196,196,-0.014710180438368692,-0.0,1.0,0.0,304.0,768.0,1.0,1,268.0,0
197,197,0.4797736632182049,0.5,1.0,1.0,334.0,703.0,1.0,1,183.0,1
198,198,0.7935871615492766,0.8,0.0,0.0,368.0,883.0,0.0,1,99.0,1
199,199,0.13750547505366806,0.1,1.0,1.0,371.0,584.0,1.0,1,265.0,1
200,200,0.03301818584670668,0.0,0.0,0.0,340.0,512.0,1.0,0,398.0,0
201,201,-0.5572022602101396,-0.6,0.0,1.0,403.0,829.0,1.0,0,508.0,1
202,202,-0.2898453205465801,-0.3,1.0,0.0,434.0,670.0,1.0,1,856.0,0
203,203,-0.6399768728122355,-0.6,0.0,1.0,389.0,645.0,1.0,0,166.0,1
204,204,0.7520444444450906,0.8,0.0,0.0,385.0,742.0,0.0,1,303.0,1
205,205,-0.8071258898569045,-0.8,1.0,0.0,473.0,752.0,0.0,0,345.0,1
206,206,0.5978365136944522,0.6,0.0,0.0,359.0,872.0,0.0,1,949.0,1
207,207,-0.2358507359803802,-0.2,0.0,1.0,497.0,835.0,1.0,0,358.0,1
208,208,-0.4803857576354384,-0.5,0.0,1.0,281.0,611.0,1.0,0,488.0,1
209,209,-0.802789958087742,-0.8,0.0,1.0,315.0,808.0,1.0,0,137.0,1
210,210,-0.308261636194438,-0.3,0.0,1.0,401.0,910.0,1.0,0,409.0,1
211,211,-0.8816963009719347,-0.9,0.0,1.0,413.0,698.0,1.0,0,159.0,1
212,212,0.01630128216940996,0.0,1.0,1.0,428.0,571.0,1.0,1,1681.0,1
213,213,-0.732754518469519,-0.7,0.0,1.0,481.0,847.0,1.0,0,122.0,1
214,214,-0.3394681187110141,-0.3,0.0,1.0,337.0,778.0,1.0,0,155.0,1
215,215,-0.09230537182851395,-0.1,0.0,1.0,325.0,563.0,0.0,1,462.0,0
216,216,-0.8250884091632745,-0.8,1.0,0.0,330.0,678.0,0.0,0,512.0,1
217,217,0.22120395551147254,0.2,0.0,0.0,478.0,993.0,1.0,0,569.0,0
218,218,0.2909935384908936,0.3,1.0,1.0,421.0,634.0,1.0,1,435.0,1
219,219,0.14255024974603414,0.1,1.0,1.0,345.0,754.0,1.0,1,151.0,1
220,220,-0.47549492997876697,-0.5,0.0,1.0,483.0,752.0,1.0,0,295.0,1
221,221,-0.10660202864564261,-0.1,1.0,0.0,376.0,862.0,0.0,0,202.0,1
222,222,-0.07422699236562313,-0.1,1.0,0.0,464.0,511.0,1.0,1,1505.0,0
223,223,0.44715088862948316,0.4,0.0,0.0,312.0,829.0,0.0,1,879.0,1
224,224,-0.5655728684342655,-0.6,0.0,1.0,298.0,605.0,1.0,0,347.0,1
225,225,0.3469320511855908,0.3,1.0,1.0,378.0,780.0,1.0,1,412.0,1
226,226,-0.8818825577498102,-0.9,1.0,0.0,488.0,525.0,0.0,0,467.0,1
227,227,0.5834411951233088,0.6,0.0,0.0,469.0,663.0,0.0,1,358.0,1
228,228,0.7574704345118967,0.8,1.0,1.0,362.0,697.0,1.0,1,501.0,1
229,229,-0.2921237298274879,-0.3,0.0,1.0,396.0,990.0,1.0,0,214.0,1
230,230,-0.5702354537248464,-0.6,0.0,1.0,287.0,926.0,1.0,0,-33.0,1
231,231,-0.7196248765687348,-0.7,0.0,1.0,377.0,665.0,1.0,0,168.0,1
232,232,-0.32394572284287404,-0.3,1.0,0.0,397.0,511.0,0.0,0,552.0,1
233,233,-0.7220038806091668,-0.7,1.0,0.0,431.0,629.0,0.0,0,720.0,1
234,234,0.3766572770355615,0.4,0.0,0.0,264.0,808.0,0.0,1,48.0,1
235,235,-0.15130250477581453,-0.2,0.0,1.0,327.0,603.0,1.0,0,1040.0,1
236,236,-0.5792848674258296,-0.6,0.0,1.0,409.0,905.0,1.0,0,216.0,1
237,237,0.7012204504339966,0.7,0.0,0.0,361.0,519.0,0.0,1,530.0,1
238,238,0.03986830697600319,0.0,1.0,1.0,315.0,927.0,1.0,1,-62.0,1
239,239,0.5033427299145997,0.5,0.0,0.0,377.0,874.0,0.0,1,409.0,1
240,240,0.25290694439743444,0.3,1.0,1.0,455.0,754.0,1.0,1,201.0,1
241,241,0.4466311052801365,0.4,0.0,0.0,415.0,568.0,1.0,0,407.0,0
242,242,0.4190612717104948,0.4,0.0,0.0,344.0,962.0,0.0,1,814.0,1
243,243,0.3419212801345949,0.3,1.0,1.0,407.0,889.0,1.0,1,314.0,1
244,244,0.4167187274813441,0.4,1.0,1.0,443.0,676.0,1.0,1,471.0,1
245,245,-0.20604136820883412,-0.2,0.0,1.0,333.0,905.0,1.0,0,682.0,1
246,246,-0.03092043610936157,-0.0,0.0,1.0,439.0,661.0,1.0,0,490.0,1
247,247,0.6637325583786192,0.7,0.0,0.0,408.0,580.0,0.0,1,342.0,1
248,248,0.8129214033063844,0.8,0.0,0.0,342.0,530.0,0.0,1,488.0,1
249,249,0.14122266125952676,0.1,0.0,0.0,428.0,915.0,1.0,0,27.0,0
250,250,0.8029548304264645,0.8,1.0,1.0,424.0,555.0,1.0,1,361.0,1
251,251,0.40366674839975103,0.4,1.0,1.0,366.0,666.0,1.0,1,438.0,1
252,252,-0.3000730108872839,-0.3,1.0,0.0,283.0,724.0,0.0,0,923.0,1
253,253,0.33697599792505606,0.3,0.0,0.0,253.0,903.0,1.0,0,-26.0,0
254,254,-0.6389549159118022,-0.6,0.0,1.0,392.0,730.0,1.0,0,148.0,1
255,255,-0.4194835189477793,-0.4,1.0,0.0,484.0,520.0,0.0,0,516.0,1
256,256,-0.791514954198184,-0.8,1.0,0.0,310.0,793.0,0.0,0,427.0,1
257,257,-0.8759285811251034,-0.9,1.0,0.0,446.0,676.0,0.0,0,498.0,1
258,258,0.4715306750927418,0.5,1.0,1.0,255.0,985.0,0.0,0,-80.0,0
259,259,-0.330283252434172,-0.3,0.0,1.0,260.0,741.0,1.0,0,609.0,1
260,260,-0.8843659462142827,-0.9,0.0,1.0,318.0,791.0,1.0,0,221.0,1
261,261,-0.32334099131749605,-0.3,1.0,0.0,482.0,708.0,0.0,0,480.0,1
262,262,-0.34898995313226666,-0.3,1.0,0.0,399.0,667.0,0.0,0,1244.0,1
263,263,-0.09100761853246075,-0.1,0.0,1.0,440.0,825.0,0.0,1,1095.0,0
264,264,-0.7117129176883092,-0.7,0.0,1.0,427.0,970.0,1.0,0,53.0,1
265,265,0.06314856840612904,0.1,0.0,0.0,476.0,501.0,1.0,0,343.0,0
266,266,-0.34408304907747367,-0.3,0.0,1.0,296.0,925.0,1.0,0,39.0,1
267,267,-0.10917499015349574,-0.1,0.0,1.0,325.0,510.0,1.0,0,255.0,1
268,268,0.09316186442199281,0.1,0.0,0.0,282.0,694.0,1.0,0,134.0,0
269,269,0.5514347768975688,0.6,0.0,0.0,457.0,929.0,0.0,1,104.0,1
270,270,-0.16465062844088862,-0.2,0.0,1.0,403.0,718.0,1.0,0,429.0,1
271,271,0.6438153507689971,0.6,1.0,1.0,440.0,520.0,1.0,1,380.0,1
272,272,0.017608101690066658,0.0,1.0,1.0,489.0,792.0,1.0,1,119.0,1
273,273,0.38083592898239427,0.4,0.0,0.0,427.0,639.0,0.0,1,214.0,1
274,274,-0.6651007295804388,-0.7,1.0,0.0,433.0,533.0,0.0,0,704.0,1
275,275,0.6123972699892709,0.6,1.0,1.0,358.0,942.0,1.0,1,40.0,1
276,276,0.8444326869796538,0.8,0.0,0.0,293.0,925.0,0.0,1,432.0,1
277,277,-0.2832901284508046,-0.3,0.0,1.0,257.0,899.0,0.0,1,754.0,0
278,278,-0.4703298397516759,-0.5,0.0,1.0,399.0,964.0,1.0,0,397.0,1
279,279,0.6363218704600287,0.6,1.0,1.0,462.0,899.0,1.0,1,49.0,1
280,280,0.06027124492829938,0.1,1.0,1.0,384.0,683.0,1.0,1,123.0,1
281,281,0.5067371386878797,0.5,1.0,1.0,298.0,552.0,1.0,1,380.0,1
282,282,-0.6416076769666882,-0.6,0.0,1.0,402.0,665.0,1.0,0,183.0,1
283,283,-0.6728238946807157,-0.7,0.0,1.0,273.0,781.0,1.0,0,36.0,1
284,284,0.018330743964321883,0.0,0.0,0.0,431.0,892.0,1.0,0,437.0,0
285,285,-0.32294463142289154,-0.3,0.0,1.0,454.0,771.0,1.0,0,695.0,1
286,286,-0.6658257146888202,-0.7,1.0,0.0,315.0,812.0,1.0,1,63.0,0
287,287,0.7067362759065668,0.7,1.0,1.0,450.0,799.0,1.0,1,111.0,1
288,288,0.35434648595565765,0.4,0.0,0.0,293.0,613.0,0.0,1,684.0,1
289,289,-0.40558647334646364,-0.4,1.0,0.0,397.0,520.0,0.0,0,373.0,1
290,290,-0.05523170191372506,-0.1,0.0,1.0,389.0,776.0,1.0,0,115.0,1
291,291,0.17229546133846518,0.2,1.0,1.0,290.0,544.0,1.0,1,776.0,1
292,292,0.8789767057245846,0.9,0.0,0.0,275.0,711.0,0.0,1,154.0,1
293,293,-0.7115785212913449,-0.7,0.0,1.0,473.0,991.0,1.0,0,-194.0,1
294,294,0.01608009082247941,0.0,0.0,0.0,393.0,964.0,1.0,0,193.0,0
295,295,0.14765937626744863,0.1,1.0,1.0,365.0,879.0,1.0,1,86.0,1
296,296,0.63921438781543,0.6,0.0,0.0,402.0,958.0,0.0,1,150.0,1
297,297,0.043672510354371474,0.0,1.0,1.0,347.0,852.0,1.0,1,221.0,1
298,298,-0.8052350313776134,-0.8,1.0,0.0,338.0,912.0,0.0,0,160.0,1
299,299,0.4333094312687086,0.4,1.0,1.0,345.0,603.0,0.0,0,162.0,0
300,300,0.5171900884930231,0.5,1.0,1.0,407.0,776.0,1.0,1,217.0,1
301,301,-0.13751898651995798,-0.1,0.0,1.0,289.0,714.0,1.0,0,347.0,1
302,302,0.4393035983813304,0.4,1.0,1.0,391.0,689.0,1.0,1,290.0,1
303,303,0.3664606647373988,0.4,1.0,1.0,444.0,821.0,1.0,1,425.0,1
304,304,-0.40945233919722007,-0.4,0.0,1.0,481.0,780.0,1.0,0,459.0,1
305,305,-0.14676058297143135,-0.1,1.0,0.0,422.0,926.0,0.0,0,82.0,1
306,306,0.8621097001517365,0.9,0.0,0.0,293.0,898.0,0.0,1,269.0,1
307,307,-0.32736700981768263,-0.3,1.0,0.0,334.0,606.0,0.0,0,870.0,1
308,308,0.7715886141526801,0.8,1.0,1.0,394.0,534.0,1.0,1,352.0,1
309,309,-0.6959474771698841,-0.7,1.0,0.0,479.0,828.0,0.0,0,603.0,1
310,310,0.6536710438852854,0.7,1.0,1.0,325.0,645.0,1.0,1,210.0,1
311,311,-0.8434706938039087,-0.8,1.0,0.0,259.0,917.0,1.0,1,44.0,0
312,312,0.5673702337230458,0.6,0.0,0.0,297.0,955.0,1.0,0,-52.0,0
313,313,0.32744364292740047,0.3,0.0,0.0,480.0,867.0,1.0,0,103.0,0
314,314,0.47138528552430936,0.5,0.0,0.0,410.0,655.0,0.0,1,995.0,1
315,315,0.5017423133540436,0.5,1.0,1.0,324.0,868.0,1.0,1,408.0,1
316,316,-0.21510028530478909,-0.2,0.0,1.0,344.0,893.0,1.0,0,103.0,1
317,317,0.0877736559863379,0.1,0.0,0.0,430.0,821.0,0.0,1,169.0,1
318,318,0.2125351640796479,0.2,1.0,1.0,393.0,891.0,1.0,1,236.0,1
319,319,0.6922100498261358,0.7,0.0,0.0,257.0,910.0,1.0,0,-7.0,0
320,320,0.6547982522711465,0.7,0.0,0.0,347.0,650.0,0.0,1,1113.0,1
321,321,-0.6581327869183553,-0.7,0.0,1.0,264.0,827.0,1.0,0,359.0,1
322,322,-0.7978438282857926,-0.8,0.0,1.0,441.0,544.0,1.0,0,1215.0,1
323,323,-0.3709966339666939,-0.4,0.0,1.0,269.0,730.0,1.0,0,981.0,1
324,324,-0.6814807513242724,-0.7,0.0,1.0,467.0,880.0,1.0,0,223.0,1
325,325,-0.3328303229965651,-0.3,1.0,0.0,337.0,503.0,0.0,0,760.0,1
326,326,0.22141374340887,0.2,0.0,0.0,306.0,856.0,0.0,1,28.0,1
327,327,0.7563155308002937,0.8,0.0,0.0,281.0,836.0,0.0,1,153.0,1
328,328,0.14899717374220878,0.1,1.0,1.0,347.0,792.0,1.0,1,421.0,1
329,329,-0.2656213475308514,-0.3,1.0,0.0,498.0,931.0,1.0,1,-29.0,0
330,330,-0.7122376695402096,-0.7,1.0,0.0,329.0,853.0,0.0,0,238.0,1
331,331,0.3055966632966919,0.3,1.0,1.0,433.0,838.0,1.0,1,159.0,1
332,332,0.056230899327549544,0.1,1.0,1.0,285.0,857.0,1.0,1,278.0,1
333,333,0.5461577491316633,0.5,0.0,0.0,253.0,735.0,0.0,1,242.0,1
334,334,0.0907986418661435,0.1,1.0,1.0,296.0,646.0,1.0,1,1088.0,1
335,335,-0.6737939386993076,-0.7,0.0,1.0,324.0,950.0,1.0,0,416.0,1
336,336,0.771947613549305,0.8,0.0,0.0,305.0,557.0,0.0,1,448.0,1
337,337,-0.3353438510782909,-0.3,1.0,0.0,441.0,890.0,1.0,1,389.0,0
338,338,-0.4491628384011972,-0.4,0.0,1.0,405.0,507.0,1.0,0,318.0,1
339,339,-0.677832671339881,-0.7,0.0,1.0,303.0,807.0,1.0,0,450.0,1
340,340,0.7759056229488787,0.8,1.0,1.0,342.0,659.0,1.0,1,349.0,1
341,341,-0.3655839622272874,-0.4,1.0,0.0,446.0,842.0,0.0,0,412.0,1
342,342,-0.22829197608879614,-0.2,1.0,0.0,442.0,831.0,1.0,1,-23.0,0
343,343,0.09195763698886739,0.1,1.0,1.0,388.0,938.0,1.0,1,4.0,1
344,344,-0.5540289853441202,-0.6,0.0,1.0,275.0,677.0,1.0,0,398.0,1
345,345,-0.7847541464889594,-0.8,1.0,0.0,482.0,917.0,0.0,0,131.0,1
346,346,-0.7673686553685135,-0.8,1.0,0.0,335.0,562.0,0.0,0,453.0,1
347,347,-0.07422101454540353,-0.1,1.0,0.0,261.0,695.0,1.0,1,34.0,0
348,348,0.7507267438143496,0.8,0.0,0.0,390.0,989.0,1.0,0,-159.0,0
349,349,-0.6118678361874919,-0.6,0.0,1.0,354.0,508.0,1.0,0,328.0,1
350,350,0.4340547503700173,0.4,1.0,1.0,379.0,750.0,1.0,1,301.0,1
351,351,-0.263407653969425,-0.3,0.0,1.0,460.0,709.0,1.0,0,531.0,1
352,352,0.768389920739743,0.8,0.0,0.0,424.0,643.0,0.0,1,363.0,1
353,353,0.30772227886592785,0.3,1.0,1.0,401.0,522.0,1.0,1,1077.0,1
354,354,-0.35774130955346617,-0.4,0.0,1.0,465.0,921.0,1.0,0,254.0,1
355,355,-0.09790682102373116,-0.1,1.0,0.0,473.0,932.0,1.0,1,85.0,0
356,356,-0.2663809078797854,-0.3,1.0,0.0,362.0,703.0,0.0,0,375.0,1
357,357,0.42174918960253815,0.4,0.0,0.0,353.0,616.0,1.0,0,341.0,0
358,358,-0.14851735511496822,-0.1,0.0,1.0,378.0,612.0,1.0,0,310.0,1
359,359,0.04235855669872479,0.0,1.0,1.0,420.0,668.0,1.0,1,332.0,1
360,360,0.15799156445847407,0.2,0.0,0.0,469.0,576.0,0.0,1,1165.0,1
361,361,-0.7693963201443064,-0.8,0.0,1.0,364.0,739.0,1.0,0,287.0,1
362,362,0.7661629711083914,0.8,1.0,1.0,422.0,851.0,1.0,1,347.0,1
363,363,0.6757990686849477,0.7,0.0,0.0,292.0,942.0,1.0,0,36.0,0
364,364,-0.2603142070750998,-0.3,1.0,0.0,491.0,876.0,1.0,1,1103.0,0
365,365,0.4151076247402471,0.4,0.0,0.0,492.0,681.0,0.0,1,497.0,1
366,366,0.8963302634106515,0.9,0.0,0.0,471.0,960.0,1.0,0,-41.0,0
367,367,0.24577714669030304,0.2,1.0,1.0,474.0,767.0,1.0,1,339.0,1
368,368,0.07729400769221928,0.1,1.0,1.0,402.0,977.0,0.0,0,21.0,0
369,369,0.501455988264568,0.5,0.0,0.0,377.0,658.0,1.0,0,805.0,0
370,370,0.75871327177571,0.8,0.0,0.0,394.0,823.0,0.0,1,143.0,1
371,371,-0.43309198869492266,-0.4,1.0,0.0,382.0,572.0,0.0,0,466.0,1
372,372,0.04976264668996688,0.0,1.0,1.0,296.0,971.0,1.0,1,843.0,1
373,373,-0.6936359610848892,-0.7,1.0,0.0,382.0,675.0,0.0,0,303.0,1
374,374,-0.23207403783964664,-0.2,1.0,0.0,437.0,637.0,0.0,0,356.0,1
375,375,-0.06011559475338768,-0.1,1.0,0.0,252.0,615.0,1.0,1,353.0,0
376,376,0.17774185603133785,0.2,0.0,0.0,389.0,596.0,0.0,1,565.0,1
377,377,0.6231942136796235,0.6,0.0,0.0,465.0,862.0,1.0,0,-57.0,0
378,378,0.04483663814239092,0.0,1.0,1.0,490.0,880.0,1.0,1,100.0,1
379,379,-0.2284328285078968,-0.2,1.0,0.0,374.0,616.0,0.0,0,380.0,1
380,380,0.5019020915001128,0.5,1.0,1.0,323.0,695.0,1.0,1,182.0,1
381,381,0.40100376918587044,0.4,1.0,1.0,493.0,680.0,1.0,1,87.0,1
382,382,-0.7523060053206984,-0.8,0.0,1.0,385.0,808.0,1.0,0,307.0,1
383,383,-0.6190368844894545,-0.6,1.0,0.0,365.0,699.0,0.0,0,316.0,1
384,384,-0.023842739448794892,-0.0,0.0,1.0,375.0,508.0,1.0,0,1007.0,1
385,385,-0.03765348839476412,-0.0,0.0,1.0,322.0,969.0,0.0,1,429.0,0
386,386,0.045088920876072414,0.0,1.0,1.0,446.0,830.0,1.0,1,64.0,1
387,387,-0.5246060635063795,-0.5,0.0,1.0,368.0,519.0,1.0,0,253.0,1
388,388,0.5551839432908928,0.6,0.0,0.0,360.0,824.0,0.0,1,446.0,1
389,389,-0.28949869809529927,-0.3,0.0,1.0,427.0,699.0,1.0,0,264.0,1
390,390,0.5850243849726074,0.6,0.0,0.0,350.0,672.0,0.0,1,588.0,1
391,391,-0.4728590726562821,-0.5,1.0,0.0,386.0,646.0,1.0,1,368.0,0
392,392,0.03628122837555192,0.0,0.0,0.0,312.0,926.0,1.0,0,-48.0,0
393,393,0.2094416653010066,0.2,0.0,0.0,281.0,620.0,1.0,0,479.0,0
394,394,0.866530000283601,0.9,0.0,0.0,298.0,584.0,0.0,1,558.0,1
395,395,0.09357157312090159,0.1,0.0,0.0,265.0,964.0,1.0,0,-319.0,0
396,396,-0.7116161780380885,-0.7,1.0,0.0,490.0,609.0,0.0,0,441.0,1
397,397,0.510328597627541,0.5,0.0,0.0,278.0,629.0,0.0,1,443.0,1
398,398,0.8032398329183116,0.8,1.0,1.0,497.0,765.0,1.0,1,158.0,1
399,399,-0.41527083534302306,-0.4,1.0,0.0,461.0,664.0,0.0,0,365.0,1
400,400,0.451600510039896,0.5,0.0,0.0,392.0,546.0,1.0,0,582.0,0
401,401,0.8102635839686984,0.8,0.0,0.0,276.0,519.0,0.0,1,375.0,1
402,402,0.691453040261082,0.7,1.0,1.0,289.0,902.0,1.0,1,99.0,1
403,403,0.2627369445216853,0.3,1.0,1.0,369.0,903.0,0.0,0,288.0,0
404,404,-0.7595837109890602,-0.8,0.0,1.0,332.0,955.0,1.0,0,-147.0,1
405,405,-0.46929955490579045,-0.5,1.0,0.0,256.0,795.0,0.0,0,929.0,1
406,406,-0.8829530055267027,-0.9,1.0,0.0,355.0,750.0,0.0,0,505.0,1
407,407,-0.16124846084593825,-0.2,0.0,1.0,414.0,780.0,0.0,1,206.0,0
408,408,0.15990594527306923,0.2,1.0,1.0,268.0,822.0,1.0,1,30.0,1
409,409,0.14429391845626338,0.1,0.0,0.0,300.0,783.0,0.0,1,437.0,1
410,410,-0.8603163594917924,-0.9,0.0,1.0,423.0,988.0,1.0,0,229.0,1
411,411,0.40517320711279525,0.4,0.0,0.0,415.0,838.0,0.0,1,1017.0,1
412,412,-0.7708939117525038,-0.8,1.0,0.0,400.0,865.0,0.0,0,395.0,1
413,413,-0.0011914411803890523,-0.0,1.0,0.0,289.0,594.0,1.0,1,277.0,0
414,414,0.547826342889914,0.5,0.0,0.0,274.0,561.0,0.0,1,465.0,1
415,415,-0.2757961616538813,-0.3,1.0,0.0,354.0,641.0,0.0,0,205.0,1
416,416,-0.8054923102481747,-0.8,1.0,0.0,267.0,820.0,0.0,0,433.0,1
417,417,-0.8789906169630651,-0.9,1.0,0.0,497.0,982.0,0.0,0,431.0,1
418,418,-0.4778916952399519,-0.5,0.0,1.0,347.0,903.0,1.0,0,-30.0,1
419,419,0.06243033300286638,0.1,0.0,0.0,377.0,715.0,1.0,0,228.0,0
420,420,-0.4776597856580272,-0.5,0.0,1.0,446.0,991.0,1.0,0,393.0,1
421,421,0.6858608724069896,0.7,1.0,1.0,363.0,962.0,1.0,1,285.0,1
422,422,0.7314551571515341,0.7,1.0,1.0,254.0,808.0,1.0,1,48.0,1
423,423,0.167611245070168,0.2,0.0,0.0,351.0,722.0,0.0,1,407.0,1
424,424,-0.7598310513824467,-0.8,0.0,1.0,387.0,932.0,1.0,0,31.0,1
425,425,-0.8629367198807824,-0.9,0.0,1.0,469.0,928.0,1.0,0,-17.0,1
426,426,-0.5942747830267794,-0.6,1.0,0.0,290.0,979.0,0.0,0,491.0,1
427,427,-0.3275947689516864,-0.3,0.0,1.0,488.0,893.0,1.0,0,169.0,1
428,428,0.453970636157799,0.5,1.0,1.0,347.0,705.0,1.0,1,148.0,1
429,429,-0.4343063354179679,-0.4,0.0,1.0,399.0,967.0,1.0,0,-126.0,1
430,430,-0.7133998847479307,-0.7,0.0,1.0,325.0,528.0,1.0,0,357.0,1
431,431,0.8532517402454468,0.9,1.0,1.0,465.0,589.0,1.0,1,266.0,1
432,432,-0.7250598471314932,-0.7,1.0,0.0,478.0,698.0,0.0,0,584.0,1
433,433,-0.5421193670156463,-0.5,0.0,1.0,354.0,600.0,1.0,0,666.0,1
434,434,-0.7745114676523401,-0.8,1.0,0.0,462.0,805.0,0.0,0,173.0,1
435,435,-0.39266182346584877,-0.4,1.0,0.0,488.0,752.0,1.0,1,120.0,0
436,436,0.1976698099823596,0.2,0.0,0.0,404.0,945.0,1.0,0,131.0,0
437,437,-0.8557838443934159,-0.9,0.0,1.0,424.0,736.0,1.0,0,30.0,1
438,438,-0.5885210342398919,-0.6,1.0,0.0,476.0,773.0,0.0,0,421.0,1
439,439,0.8719526438356039,0.9,1.0,1.0,394.0,520.0,1.0,1,346.0,1
440,440,-0.4177433685581789,-0.4,0.0,1.0,433.0,606.0,1.0,0,351.0,1
441,441,-0.19690226174342007,-0.2,1.0,0.0,465.0,985.0,0.0,0,550.0,1
442,442,0.7998297294029239,0.8,1.0,1.0,427.0,792.0,1.0,1,81.0,1
443,443,0.2304558443239303,0.2,0.0,0.0,308.0,870.0,0.0,1,152.0,1
444,444,0.41998288585373766,0.4,0.0,0.0,302.0,752.0,1.0,0,336.0,0
445,445,0.18013505778397942,0.2,0.0,0.0,481.0,984.0,1.0,0,15.0,0
446,446,0.6875197943031625,0.7,0.0,0.0,350.0,723.0,0.0,1,497.0,1
447,447,0.09082353713699354,0.1,0.0,0.0,482.0,823.0,1.0,0,205.0,0
448,448,-0.38422581585772153,-0.4,1.0,0.0,489.0,807.0,0.0,0,234.0,1
449,449,0.06537490858595574,0.1,0.0,0.0,403.0,565.0,1.0,0,552.0,0
450,450,0.37619924958884743,0.4,0.0,0.0,415.0,883.0,0.0,1,32.0,1
451,451,0.1352172193889648,0.1,0.0,0.0,304.0,939.0,1.0,0,267.0,0
452,452,-0.7105496832273038,-0.7,0.0,1.0,464.0,850.0,1.0,0,406.0,1
453,453,-0.511192814324422,-0.5,0.0,1.0,448.0,668.0,1.0,0,434.0,1
454,454,-0.15345078586060268,-0.2,1.0,0.0,254.0,828.0,1.0,1,58.0,0
455,455,0.14980536684756462,0.1,0.0,0.0,348.0,601.0,1.0,0,361.0,0
456,456,0.17302011632455583,0.2,1.0,1.0,374.0,802.0,1.0,1,224.0,1
457,457,0.7324366952186742,0.7,0.0,0.0,328.0,798.0,0.0,1,394.0,1
458,458,-0.7498448192942567,-0.7,1.0,0.0,258.0,975.0,0.0,0,527.0,1
459,459,0.44378562499178986,0.4,0.0,0.0,444.0,690.0,0.0,1,826.0,1
460,460,-0.34642767590745716,-0.3,0.0,1.0,490.0,640.0,1.0,0,460.0,1
461,461,-0.5808537950642609,-0.6,1.0,0.0,453.0,581.0,0.0,0,546.0,1
462,462,-0.3262514079459531,-0.3,0.0,1.0,389.0,824.0,1.0,0,357.0,1
463,463,0.259847719296148,0.3,0.0,0.0,255.0,822.0,0.0,1,33.0,1
464,464,-0.37277930347665533,-0.4,1.0,0.0,327.0,993.0,1.0,1,-60.0,0
465,465,-0.4417859346996964,-0.4,1.0,0.0,477.0,723.0,0.0,0,190.0,1
466,466,0.7072674684479764,0.7,1.0,1.0,315.0,762.0,1.0,1,163.0,1
467,467,-0.5617209445830713,-0.6,1.0,0.0,497.0,600.0,0.0,0,693.0,1
468,468,0.6532508742979716,0.7,0.0,0.0,443.0,973.0,0.0,1,174.0,1
469,469,-0.37431562212843494,-0.4,1.0,0.0,450.0,551.0,0.0,0,599.0,1
470,470,-0.5013795415078024,-0.5,1.0,0.0,446.0,524.0,1.0,1,290.0,0
471,471,0.20928646358241443,0.2,1.0,1.0,296.0,988.0,0.0,0,226.0,0
472,472,-0.6420085510468045,-0.6,0.0,1.0,274.0,669.0,1.0,0,217.0,1
473,473,0.23208871371339168,0.2,1.0,1.0,423.0,905.0,1.0,1,272.0,1
474,474,-0.08551108964691179,-0.1,0.0,1.0,499.0,856.0,1.0,0,95.0,1
475,475,0.7184993398943825,0.7,1.0,1.0,351.0,526.0,1.0,1,433.0,1
476,476,0.7536990980380346,0.8,1.0,1.0,278.0,500.0,1.0,1,482.0,1
477,477,-0.5637479291759819,-0.6,1.0,0.0,407.0,983.0,1.0,1,270.0,0
478,478,0.08271512401564363,0.1,0.0,0.0,282.0,799.0,1.0,0,319.0,0
479,479,-0.846009704276872,-0.8,1.0,0.0,414.0,590.0,0.0,0,696.0,1
480,480,0.32591237363229164,0.3,1.0,1.0,448.0,617.0,1.0,1,665.0,1
481,481,-0.8776009239335916,-0.9,0.0,1.0,328.0,775.0,1.0,0,477.0,1
482,482,0.872890775864608,0.9,0.0,0.0,366.0,604.0,0.0,1,250.0,1
483,483,0.06703432720018265,0.1,0.0,0.0,451.0,537.0,0.0,1,432.0,1
484,484,0.6632627010817512,0.7,1.0,1.0,334.0,932.0,1.0,1,154.0,1
485,485,0.037203763847287186,0.0,0.0,0.0,271.0,878.0,1.0,0,451.0,0
486,486,0.19123682483114102,0.2,1.0,1.0,423.0,937.0,0.0,0,270.0,0
487,487,-0.09081907864718197,-0.1,1.0,0.0,279.0,964.0,1.0,1,97.0,0
488,488,0.4959589768617477,0.5,0.0,0.0,456.0,925.0,0.0,1,539.0,1
489,489,0.7110885957743446,0.7,1.0,1.0,309.0,936.0,1.0,1,85.0,1
490,490,0.27513070185726185,0.3,0.0,0.0,254.0,512.0,1.0,0,434.0,0
491,491,0.8674060516718242,0.9,1.0,1.0,373.0,854.0,1.0,1,83.0,1
492,492,0.04105380774169354,0.0,1.0,1.0,457.0,587.0,0.0,0,426.0,0
493,493,-0.27860103207172493,-0.3,1.0,0.0,420.0,631.0,0.0,0,699.0,1
494,494,-0.6075859314124175,-0.6,1.0,0.0,398.0,521.0,0.0,0,341.0,1
495,495,-0.6752129500616806,-0.7,0.0,1.0,451.0,685.0,1.0,0,234.0,1
496,496,0.7052961457189136,0.7,1.0,1.0,266.0,896.0,1.0,1,48.0,1
497,497,-0.8029812228179108,-0.8,1.0,0.0,262.0,879.0,0.0,0,259.0,1
498,498,-0.04488087136214469,-0.0,0.0,1.0,310.0,594.0,1.0,0,716.0,1
499,499,-0.5386090568273426,-0.5,1.0,0.0,258.0,820.0,0.0,0,342.0,1
500,500,-0.09965858168181874,-0.1,0.0,1.0,398.0,588.0,1.0,0,404.0,1
501,501,0.33580095230216866,0.3,0.0,0.0,468.0,686.0,0.0,1,706.0,1
502,502,0.7847899772978834,0.8,0.0,0.0,331.0,751.0,1.0,0,-22.0,0
503,503,-0.39663036982131805,-0.4,1.0,0.0,274.0,748.0,1.0,1,248.0,0
504,504,-0.8787169803057256,-0.9,0.0,1.0,435.0,522.0,1.0,0,383.0,1
505,505,-0.17731475495407123,-0.2,0.0,1.0,259.0,840.0,1.0,0,171.0,1
506,506,-0.8469577913063318,-0.8,0.0,1.0,441.0,772.0,1.0,0,187.0,1
507,507,-0.017864972803912194,-0.0,1.0,0.0,461.0,713.0,0.0,0,176.0,1
508,508,0.8392487349752117,0.8,1.0,1.0,498.0,625.0,1.0,1,217.0,1
509,509,-0.0773091987158191,-0.1,0.0,1.0,483.0,724.0,1.0,0,1673.0,1
510,510,0.4677690598712768,0.5,0.0,0.0,251.0,626.0,0.0,1,683.0,1
511,511,-0.7782444396116295,-0.8,1.0,0.0,356.0,723.0,0.0,0,881.0,1
512,512,0.18382026359321568,0.2,1.0,1.0,443.0,640.0,1.0,1,247.0,1
513,513,0.2942701932755295,0.3,0.0,0.0,364.0,690.0,0.0,1,296.0,1
514,514,-0.18188580412698896,-0.2,0.0,1.0,347.0,840.0,0.0,1,413.0,0
515,515,-0.7157286531601452,-0.7,0.0,1.0,409.0,549.0,1.0,0,352.0,1
516,516,-0.23850646011394527,-0.2,1.0,0.0,494.0,841.0,1.0,1,-15.0,0
517,517,0.3248883433722559,0.3,0.0,0.0,486.0,671.0,0.0,1,213.0,1
518,518,-0.012350270713605283,-0.0,0.0,1.0,453.0,655.0,1.0,0,302.0,1
519,519,-0.6458905811149971,-0.6,0.0,1.0,392.0,847.0,1.0,0,281.0,1
520,520,0.08807100790042499,0.1,0.0,0.0,470.0,934.0,1.0,0,-204.0,0
521,521,-0.7636387292625085,-0.8,0.0,1.0,446.0,572.0,1.0,0,402.0,1
522,522,0.35316773569195103,0.4,1.0,1.0,499.0,678.0,1.0,1,433.0,1
523,523,0.17705570603717657,0.2,0.0,0.0,493.0,561.0,1.0,0,626.0,0
524,524,-0.8199480401763393,-0.8,1.0,0.0,257.0,844.0,0.0,0,179.0,1
525,525,-0.3774251775919285,-0.4,1.0,0.0,404.0,931.0,0.0,0,-25.0,1
526,526,-0.6597040571085239,-0.7,1.0,0.0,298.0,862.0,1.0,1,70.0,0
527,527,-0.3260084938203345,-0.3,1.0,0.0,499.0,859.0,1.0,1,252.0,0
528,528,-0.12210727183086556,-0.1,0.0,1.0,433.0,634.0,1.0,0,383.0,1
529,529,-0.30307525130603585,-0.3,0.0,1.0,423.0,717.0,1.0,0,340.0,1
530,530,0.26940534919201176,0.3,1.0,1.0,469.0,803.0,1.0,1,128.0,1
531,531,0.4411297716816954,0.4,1.0,1.0,436.0,810.0,1.0,1,504.0,1
532,532,0.10276650226187678,0.1,0.0,0.0,376.0,510.0,1.0,0,454.0,0
533,533,0.48782217850108733,0.5,0.0,0.0,445.0,958.0,0.0,1,177.0,1
534,534,0.048244235069066166,0.0,1.0,1.0,296.0,788.0,1.0,1,976.0,1
535,535,-0.37884792486716456,-0.4,0.0,1.0,264.0,568.0,1.0,0,628.0,1
536,536,0.032504274521042764,0.0,1.0,1.0,366.0,658.0,1.0,1,226.0,1
537,537,0.04049867371139959,0.0,1.0,1.0,404.0,997.0,1.0,1,329.0,1
538,538,-0.12248444161017347,-0.1,0.0,1.0,474.0,824.0,1.0,0,1372.0,1
539,539,0.46042225765927103,0.5,1.0,1.0,414.0,717.0,1.0,1,259.0,1
540,540,0.6032414294489409,0.6,0.0,0.0,445.0,802.0,0.0,1,513.0,1
541,541,0.36620930093212223,0.4,0.0,0.0,386.0,944.0,0.0,1,490.0,1
542,542,-0.018254187763371288,-0.0,1.0,0.0,284.0,653.0,0.0,0,603.0,1
543,543,0.1328936301027156,0.1,0.0,0.0,357.0,879.0,1.0,0,464.0,0
544,544,0.7631913706638217,0.8,1.0,1.0,302.0,538.0,1.0,1,320.0,1
545,545,-0.5909180209526823,-0.6,0.0,1.0,302.0,643.0,1.0,0,535.0,1
546,546,0.07226559766926488,0.1,0.0,0.0,352.0,916.0,0.0,1,612.0,1
547,547,-0.6192609195208763,-0.6,0.0,1.0,456.0,542.0,1.0,0,142.0,1
548,548,0.8728850821989419,0.9,1.0,1.0,317.0,511.0,1.0,1,672.0,1
549,549,0.5205783524329434,0.5,1.0,1.0,255.0,573.0,1.0,1,322.0,1
550,550,0.2860987796639366,0.3,0.0,0.0,279.0,737.0,0.0,1,404.0,1
551,551,0.41390114067197337,0.4,0.0,0.0,266.0,757.0,0.0,1,507.0,1
552,552,0.7376036553670974,0.7,0.0,0.0,427.0,645.0,0.0,1,208.0,1
553,553,-0.23558296963849912,-0.2,0.0,1.0,494.0,724.0,1.0,0,532.0,1
554,554,-0.13028977702857536,-0.1,1.0,0.0,418.0,826.0,0.0,0,876.0,1
555,555,0.18224719893645347,0.2,1.0,1.0,406.0,655.0,1.0,1,449.0,1
556,556,0.4149933878671638,0.4,1.0,1.0,491.0,899.0,1.0,1,80.0,1
557,557,-0.6384236707319544,-0.6,0.0,1.0,395.0,645.0,1.0,0,790.0,1
558,558,0.7296873186890499,0.7,1.0,1.0,281.0,527.0,1.0,1,392.0,1
559,559,0.3309645910459159,0.3,0.0,0.0,311.0,621.0,0.0,1,508.0,1
560,560,0.4902247235672884,0.5,0.0,0.0,420.0,522.0,0.0,1,648.0,1
561,561,0.7360893583102169,0.7,1.0,1.0,440.0,534.0,1.0,1,626.0,1
562,562,0.7245708447549227,0.7,1.0,1.0,333.0,586.0,1.0,1,221.0,1
563,563,-0.5046191462034755,-0.5,1.0,0.0,277.0,965.0,0.0,0,18.0,1
564,564,-0.8384538697160286,-0.8,1.0,0.0,257.0,664.0,0.0,0,469.0,1
565,565,-0.2596917789976956,-0.3,0.0,1.0,438.0,973.0,1.0,0,39.0,1
566,566,0.7342182825616627,0.7,1.0,1.0,269.0,904.0,1.0,1,147.0,1
567,567,0.47614276142036205,0.5,1.0,1.0,482.0,572.0,1.0,1,246.0,1
568,568,0.21139564359729957,0.2,1.0,1.0,457.0,837.0,1.0,1,1536.0,1
569,569,-0.5802657287948142,-0.6,0.0,1.0,327.0,684.0,1.0,0,239.0,1
570,570,0.6604078534900907,0.7,1.0,1.0,255.0,878.0,1.0,1,157.0,1
571,571,0.1583231146361418,0.2,1.0,1.0,281.0,967.0,1.0,1,82.0,1
572,572,0.007299042142926759,0.0,1.0,1.0,279.0,696.0,1.0,1,445.0,1
573,573,-0.5011563188937285,-0.5,0.0,1.0,259.0,843.0,1.0,0,328.0,1
574,574,-0.23950801109115694,-0.2,1.0,0.0,264.0,642.0,0.0,0,814.0,1
575,575,-0.5381441953587924,-0.5,0.0,1.0,346.0,876.0,1.0,0,58.0,1
576,576,0.8057636702642416,0.8,0.0,0.0,430.0,540.0,1.0,0,650.0,0
577,577,-0.404944056570362,-0.4,0.0,1.0,492.0,588.0,1.0,0,380.0,1
578,578,0.2786841356476705,0.3,1.0,1.0,432.0,939.0,1.0,1,-11.0,1
579,579,-0.6242568138041378,-0.6,1.0,0.0,390.0,979.0,0.0,0,201.0,1
580,580,-0.3445773981728839,-0.3,0.0,1.0,498.0,540.0,1.0,0,482.0,1
581,581,-0.258457098206061,-0.3,1.0,0.0,444.0,681.0,1.0,1,325.0,0
582,582,-0.4126789098055848,-0.4,1.0,0.0,495.0,566.0,0.0,0,609.0,1
583,583,-0.18144454128833198,-0.2,0.0,1.0,264.0,970.0,0.0,1,176.0,0
584,584,-0.2465426397110677,-0.2,1.0,0.0,321.0,761.0,0.0,0,1338.0,1
585,585,-0.5408276667777718,-0.5,1.0,0.0,373.0,905.0,1.0,1,2.0,0
586,586,0.8586915594073173,0.9,0.0,0.0,251.0,507.0,0.0,1,462.0,1
587,587,-0.6779223531967542,-0.7,1.0,0.0,490.0,591.0,0.0,0,549.0,1
588,588,0.7560317111243727,0.8,1.0,1.0,385.0,595.0,1.0,1,510.0,1
589,589,-0.127874268729259,-0.1,1.0,0.0,363.0,666.0,1.0,1,651.0,0
590,590,-0.19744941396383675,-0.2,0.0,1.0,350.0,828.0,1.0,0,502.0,1
591,591,0.2931799182397413,0.3,0.0,0.0,417.0,985.0,1.0,0,308.0,0
592,592,-0.04916815565721888,-0.0,0.0,1.0,391.0,689.0,0.0,1,570.0,0
593,593,0.6300777203419189,0.6,1.0,1.0,292.0,767.0,1.0,1,711.0,1
594,594,-0.0734100149166168,-0.1,0.0,1.0,425.0,963.0,1.0,0,842.0,1
595,595,-0.32069441442457347,-0.3,0.0,1.0,467.0,845.0,1.0,0,388.0,1
596,596,-0.052976105673869234,-0.1,1.0,0.0,425.0,782.0,0.0,0,903.0,1
597,597,-0.44757130474392,-0.4,0.0,1.0,375.0,547.0,1.0,0,548.0,1
598,598,0.4597362845799323,0.5,0.0,0.0,335.0,966.0,0.0,1,89.0,1
599,599,0.533320769366794,0.5,0.0,0.0,289.0,504.0,0.0,1,827.0,1
600,600,-0.2143279714417693,-0.2,0.0,1.0,252.0,634.0,1.0,0,334.0,1
601,601,-0.20954997828792432,-0.2,1.0,0.0,254.0,701.0,1.0,1,405.0,0
602,602,-0.6315774360915201,-0.6,0.0,1.0,319.0,601.0,1.0,0,270.0,1
603,603,0.2757331274339988,0.3,0.0,0.0,455.0,975.0,0.0,1,-120.0,1
604,604,-0.07047697035265366,-0.1,0.0,1.0,450.0,832.0,1.0,0,128.0,1
605,605,0.42105226633479653,0.4,1.0,1.0,496.0,611.0,1.0,1,333.0,1
606,606,-0.01473057104221387,-0.0,1.0,0.0,448.0,615.0,1.0,1,837.0,0
607,607,0.758095454968419,0.8,1.0,1.0,354.0,689.0,1.0,1,377.0,1
608,608,0.5395493945221804,0.5,1.0,1.0,325.0,685.0,1.0,1,390.0,1
609,609,-0.8030556077065905,-0.8,0.0,1.0,336.0,518.0,1.0,0,236.0,1
610,610,0.020667125267481712,0.0,0.0,0.0,268.0,877.0,0.0,1,295.0,1
611,611,-0.15372908454189937,-0.2,0.0,1.0,439.0,865.0,1.0,0,106.0,1
612,612,0.13317596665639708,0.1,1.0,1.0,284.0,509.0,1.0,1,447.0,1
613,613,0.6805881348772135,0.7,0.0,0.0,406.0,566.0,0.0,1,468.0,1
614,614,-0.8571733700870988,-0.9,1.0,0.0,437.0,608.0,0.0,0,455.0,1
615,615,0.2152163885211601,0.2,1.0,1.0,293.0,576.0,1.0,1,541.0,1
616,616,0.17652965198649662,0.2,0.0,0.0,269.0,572.0,1.0,0,129.0,0
617,617,0.10856394740771125,0.1,1.0,1.0,367.0,551.0,1.0,1,1302.0,1
618,618,0.5989084269739983,0.6,1.0,1.0,264.0,806.0,1.0,1,110.0,1
619,619,0.8984230652178539,0.9,0.0,0.0,499.0,728.0,0.0,1,273.0,1
620,620,0.3184060004462147,0.3,1.0,1.0,271.0,910.0,1.0,1,219.0,1
621,621,-0.166756047886923,-0.2,1.0,0.0,334.0,894.0,0.0,0,1312.0,1
622,622,0.4102492421070615,0.4,0.0,0.0,257.0,839.0,0.0,1,84.0,1
623,623,0.4531808072448701,0.5,1.0,1.0,357.0,838.0,1.0,1,295.0,1
624,624,-0.4982067227700303,-0.5,0.0,1.0,295.0,786.0,1.0,0,209.0,1
625,625,-0.7523246336072177,-0.8,1.0,0.0,481.0,732.0,1.0,1,267.0,0
626,626,-0.7581044759074491,-0.8,1.0,0.0,250.0,589.0,1.0,1,571.0,0
627,627,0.10741604659268555,0.1,0.0,0.0,490.0,545.0,1.0,0,265.0,0
628,628,-0.6428030091992689,-0.6,0.0,1.0,390.0,667.0,0.0,1,313.0,0
629,629,0.3264601333238991,0.3,1.0,1.0,409.0,986.0,1.0,1,95.0,1
630,630,0.47682510473758943,0.5,0.0,0.0,378.0,778.0,0.0,1,394.0,1
631,631,0.7234731050029252,0.7,0.0,0.0,471.0,896.0,1.0,0,-37.0,0
632,632,0.049496940158298086,0.0,0.0,0.0,306.0,548.0,1.0,0,986.0,0
633,633,-0.14738872365105504,-0.1,0.0,1.0,405.0,886.0,1.0,0,99.0,1
634,634,-0.3710679695230785,-0.4,1.0,0.0,424.0,819.0,0.0,0,107.0,1
635,635,0.7451617582852531,0.7,0.0,0.0,355.0,672.0,0.0,1,313.0,1
636,636,0.3225807490939471,0.3,1.0,1.0,283.0,629.0,1.0,1,358.0,1
637,637,-0.15900056747470914,-0.2,0.0,1.0,397.0,725.0,1.0,0,358.0,1
638,638,0.7903100858060529,0.8,0.0,0.0,330.0,940.0,1.0,0,210.0,0
639,639,-0.5620912376450631,-0.6,1.0,0.0,337.0,619.0,0.0,0,1364.0,1
640,640,-0.8836734410533724,-0.9,0.0,1.0,324.0,757.0,1.0,0,369.0,1
641,641,-0.7689620042595982,-0.8,1.0,0.0,275.0,637.0,0.0,0,428.0,1
642,642,0.7901171115471607,0.8,0.0,0.0,380.0,573.0,0.0,1,347.0,1
643,643,-0.4182649103142993,-0.4,0.0,1.0,433.0,682.0,1.0,0,165.0,1
644,644,0.8598013621564261,0.9,0.0,0.0,496.0,784.0,0.0,1,770.0,1
645,645,-0.7169831447203042,-0.7,1.0,0.0,460.0,747.0,0.0,0,483.0,1
646,646,-0.5308337926766981,-0.5,1.0,0.0,433.0,921.0,0.0,0,346.0,1
647,647,0.009652101986308281,0.0,0.0,0.0,475.0,720.0,1.0,0,195.0,0
648,648,0.3008895860960238,0.3,1.0,1.0,486.0,906.0,0.0,0,368.0,0
649,649,-0.6962301487224042,-0.7,0.0,1.0,317.0,855.0,1.0,0,228.0,1
650,650,0.04110082402361426,0.0,0.0,0.0,496.0,935.0,0.0,1,-51.0,1
651,651,-0.44781177459917665,-0.4,1.0,0.0,332.0,537.0,0.0,0,601.0,1
652,652,-0.14720104719565674,-0.1,0.0,1.0,494.0,534.0,1.0,0,532.0,1
653,653,0.43909025794397405,0.4,0.0,0.0,455.0,677.0,0.0,1,228.0,1
654,654,-0.49324490526165776,-0.5,0.0,1.0,436.0,975.0,1.0,0,309.0,1
655,655,0.07433645036390035,0.1,1.0,1.0,343.0,588.0,1.0,1,549.0,1
656,656,-0.4307418266370737,-0.4,0.0,1.0,277.0,953.0,1.0,0,210.0,1
657,657,0.6959561451428867,0.7,1.0,1.0,351.0,899.0,1.0,1,60.0,1
658,658,-0.624421084942907,-0.6,1.0,0.0,405.0,512.0,0.0,0,783.0,1
659,659,-0.20929527028855333,-0.2,1.0,0.0,476.0,656.0,0.0,0,388.0,1
660,660,0.686025746208944,0.7,0.0,0.0,457.0,740.0,0.0,1,483.0,1
661,661,-0.6982698547508799,-0.7,1.0,0.0,447.0,669.0,1.0,1,314.0,0
662,662,0.8677043666380521,0.9,1.0,1.0,467.0,780.0,1.0,1,93.0,1
663,663,-0.16766235632686943,-0.2,1.0,0.0,487.0,581.0,1.0,1,422.0,0
664,664,-0.34209060863742635,-0.3,0.0,1.0,489.0,521.0,1.0,0,680.0,1
665,665,-0.8539696600554927,-0.9,1.0,0.0,460.0,947.0,0.0,0,1273.0,1
666,666,-0.5170598984399295,-0.5,0.0,1.0,410.0,590.0,1.0,0,100.0,1
667,667,-0.6161562449798272,-0.6,1.0,0.0,371.0,500.0,0.0,0,369.0,1
668,668,-0.2190395425266819,-0.2,0.0,1.0,455.0,912.0,1.0,0,-37.0,1
669,669,0.4180642823907509,0.4,1.0,1.0,269.0,537.0,1.0,1,634.0,1
670,670,0.8764434889335634,0.9,1.0,1.0,328.0,872.0,1.0,1,10.0,1
671,671,-0.3349009702416518,-0.3,0.0,1.0,260.0,579.0,1.0,0,341.0,1
672,672,-0.1456469122423899,-0.1,1.0,0.0,414.0,758.0,1.0,1,118.0,0
673,673,-0.6724945730334231,-0.7,1.0,0.0,476.0,922.0,0.0,0,1242.0,1
674,674,-0.11483961994046554,-0.1,0.0,1.0,416.0,942.0,0.0,1,92.0,0
675,675,-0.5050777160475419,-0.5,1.0,0.0,429.0,872.0,0.0,0,119.0,1
676,676,0.3634352081330089,0.4,1.0,1.0,284.0,723.0,1.0,1,883.0,1
677,677,0.2453401974469348,0.2,0.0,0.0,435.0,864.0,1.0,0,161.0,0
678,678,-0.6702486833482083,-0.7,0.0,1.0,424.0,504.0,1.0,0,292.0,1
679,679,-0.6542097031838412,-0.7,1.0,0.0,405.0,950.0,0.0,0,405.0,1
680,680,-0.5001233590000621,-0.5,1.0,0.0,427.0,960.0,1.0,1,13.0,0
681,681,-0.018675363588661065,-0.0,0.0,1.0,254.0,631.0,1.0,0,275.0,1
682,682,-0.865956860245074,-0.9,0.0,1.0,329.0,931.0,1.0,0,130.0,1
683,683,0.10407434666586812,0.1,1.0,1.0,379.0,568.0,1.0,1,803.0,1
684,684,-0.16085374213867698,-0.2,1.0,0.0,490.0,956.0,1.0,1,194.0,0
685,685,-0.731007617928449,-0.7,1.0,0.0,391.0,777.0,0.0,0,542.0,1
686,686,0.34651053013748745,0.3,1.0,1.0,406.0,892.0,1.0,1,-8.0,1
687,687,-0.8456856106634877,-0.8,0.0,1.0,353.0,904.0,1.0,0,303.0,1
688,688,0.5093231993448047,0.5,0.0,0.0,337.0,622.0,0.0,1,671.0,1
689,689,-0.8943833541346252,-0.9,0.0,1.0,452.0,639.0,1.0,0,359.0,1
690,690,-0.2344681339118353,-0.2,0.0,1.0,319.0,632.0,1.0,0,289.0,1
691,691,-0.5994211117547852,-0.6,0.0,1.0,271.0,940.0,1.0,0,1089.0,1
692,692,0.3847053229623766,0.4,0.0,0.0,261.0,662.0,0.0,1,557.0,1
693,693,0.42130834796757577,0.4,0.0,0.0,332.0,593.0,0.0,1,925.0,1
694,694,-0.7949579058726178,-0.8,1.0,0.0,312.0,692.0,0.0,0,336.0,1
695,695,0.14452834538587,0.1,1.0,1.0,362.0,881.0,1.0,1,187.0,1
696,696,0.061181389340065895,0.1,1.0,1.0,385.0,500.0,1.0,1,1205.0,1
697,697,-0.33565480377897805,-0.3,1.0,0.0,388.0,978.0,1.0,1,24.0,0
698,698,0.509546162172695,0.5,1.0,1.0,341.0,590.0,1.0,1,419.0,1
699,699,0.6482178307623666,0.6,1.0,1.0,403.0,775.0,0.0,0,-38.0,0
700,700,0.1405277764425873,0.1,0.0,0.0,377.0,754.0,0.0,1,429.0,1
701,701,-0.22113411624061474,-0.2,0.0,1.0,448.0,625.0,1.0,0,597.0,1
702,702,0.27628485877002185,0.3,1.0,1.0,339.0,573.0,1.0,1,348.0,1
703,703,-0.584019811160515,-0.6,0.0,1.0,468.0,671.0,1.0,0,251.0,1
704,704,0.45428272543478043,0.5,1.0,1.0,284.0,630.0,1.0,1,136.0,1
705,705,-0.08822482464330528,-0.1,1.0,0.0,274.0,772.0,1.0,1,104.0,0
706,706,0.1290464454730783,0.1,1.0,1.0,483.0,537.0,1.0,1,430.0,1
707,707,0.7628102485472777,0.8,1.0,1.0,297.0,771.0,1.0,1,202.0,1
708,708,-0.6090534699861951,-0.6,0.0,1.0,325.0,909.0,1.0,0,286.0,1
709,709,-0.6982714761361974,-0.7,1.0,0.0,363.0,987.0,0.0,0,520.0,1
710,710,0.4373318325759953,0.4,1.0,1.0,265.0,944.0,1.0,1,231.0,1
711,711,0.46956667744045244,0.5,0.0,0.0,311.0,957.0,1.0,0,52.0,0
712,712,-0.4152923885260358,-0.4,1.0,0.0,472.0,718.0,0.0,0,380.0,1
713,713,0.04382970882404558,0.0,1.0,1.0,386.0,908.0,1.0,1,296.0,1
714,714,0.056870043829862826,0.1,1.0,1.0,392.0,552.0,1.0,1,496.0,1
715,715,-0.831203234032785,-0.8,0.0,1.0,277.0,545.0,1.0,0,238.0,1
716,716,0.4070267888085143,0.4,1.0,1.0,251.0,509.0,1.0,1,170.0,1
717,717,-0.7152981241100249,-0.7,1.0,0.0,415.0,815.0,1.0,1,200.0,0
718,718,-0.3157992791404475,-0.3,1.0,0.0,400.0,955.0,1.0,1,-125.0,0
719,719,-0.7373929033422345,-0.7,0.0,1.0,345.0,568.0,1.0,0,227.0,1
720,720,0.06412908688817653,0.1,0.0,0.0,257.0,729.0,1.0,0,284.0,0
721,721,0.21942942464248427,0.2,0.0,0.0,333.0,678.0,0.0,1,369.0,1
722,722,0.7597142854614568,0.8,1.0,1.0,464.0,595.0,1.0,1,391.0,1
723,723,-0.06255242004590322,-0.1,1.0,0.0,289.0,621.0,1.0,1,350.0,0
724,724,-0.5386531242867107,-0.5,0.0,1.0,369.0,979.0,1.0,0,2.0,1
725,725,0.16308921144480248,0.2,0.0,0.0,437.0,677.0,1.0,0,546.0,0
726,726,0.15172476878674612,0.2,1.0,1.0,435.0,654.0,0.0,0,361.0,0
727,727,0.18322477029851514,0.2,0.0,0.0,380.0,828.0,1.0,0,142.0,0
728,728,0.8490804862584206,0.8,0.0,0.0,375.0,940.0,1.0,0,-15.0,0
729,729,-0.8584632605659285,-0.9,1.0,0.0,424.0,807.0,0.0,0,219.0,1
730,730,0.8597680289036814,0.9,0.0,0.0,452.0,565.0,0.0,1,293.0,1
731,731,-0.13999329105425096,-0.1,1.0,0.0,281.0,918.0,1.0,1,121.0,0
732,732,0.5950511197977254,0.6,1.0,1.0,302.0,773.0,1.0,1,85.0,1
733,733,0.359363892440978,0.4,0.0,0.0,388.0,508.0,0.0,1,734.0,1
734,734,0.2579232217089983,0.3,1.0,1.0,280.0,570.0,1.0,1,450.0,1
735,735,-0.3092208822390696,-0.3,0.0,1.0,452.0,713.0,1.0,0,205.0,1
736,736,0.21666779692600746,0.2,0.0,0.0,308.0,720.0,1.0,0,762.0,0
737,737,0.48887877294901216,0.5,1.0,1.0,368.0,707.0,1.0,1,305.0,1
738,738,-0.039000581511665966,-0.0,1.0,0.0,491.0,828.0,0.0,0,521.0,1
739,739,0.7767791032672972,0.8,1.0,1.0,284.0,957.0,1.0,1,139.0,1
740,740,-0.5238366610001819,-0.5,1.0,0.0,325.0,614.0,0.0,0,401.0,1
741,741,0.8609636574719072,0.9,1.0,1.0,331.0,578.0,1.0,1,391.0,1
742,742,0.7363481344267017,0.7,1.0,1.0,489.0,631.0,1.0,1,260.0,1
743,743,-0.4830028418537727,-0.5,0.0,1.0,300.0,851.0,1.0,0,19.0,1
744,744,-0.868832682013668,-0.9,0.0,1.0,432.0,706.0,1.0,0,382.0,1
745,745,0.0822012715192223,0.1,1.0,1.0,358.0,944.0,1.0,1,-122.0,1
746,746,-0.8825752605643145,-0.9,0.0,1.0,320.0,563.0,1.0,0,257.0,1
747,747,0.3349156280952915,0.3,0.0,0.0,438.0,666.0,1.0,0,326.0,0
748,748,-0.40805777684047795,-0.4,0.0,1.0,288.0,869.0,1.0,0,23.0,1
749,749,-0.5559031134109218,-0.6,1.0,0.0,357.0,500.0,0.0,0,613.0,1
750,750,0.12879831543457854,0.1,1.0,1.0,407.0,767.0,1.0,1,156.0,1
751,751,0.20605210656892148,0.2,0.0,0.0,390.0,756.0,0.0,1,274.0,1
752,752,-0.25313955037907065,-0.3,1.0,0.0,458.0,719.0,0.0,0,1303.0,1
753,753,-0.5106972365600233,-0.5,0.0,1.0,261.0,830.0,0.0,1,249.0,0
754,754,0.0966013470444903,0.1,0.0,0.0,387.0,565.0,1.0,0,108.0,0
755,755,-0.579477285458414,-0.6,0.0,1.0,423.0,987.0,1.0,0,660.0,1
756,756,0.5821481621832715,0.6,0.0,0.0,452.0,554.0,0.0,1,564.0,1
757,757,0.721451442664301,0.7,1.0,1.0,493.0,725.0,1.0,1,62.0,1
758,758,-0.2973052256962134,-0.3,0.0,1.0,355.0,647.0,1.0,0,388.0,1
759,759,0.22675989287416132,0.2,0.0,0.0,459.0,522.0,1.0,0,519.0,0
760,760,0.3641681820557038,0.4,1.0,1.0,382.0,663.0,1.0,1,195.0,1
761,761,0.7537801002420695,0.8,1.0,1.0,436.0,606.0,1.0,1,518.0,1
762,762,-0.7590461314351997,-0.8,0.0,1.0,464.0,845.0,1.0,0,301.0,1
763,763,0.7294426809130542,0.7,0.0,0.0,479.0,622.0,0.0,1,249.0,1
764,764,-0.6086661327205867,-0.6,1.0,0.0,486.0,649.0,0.0,0,495.0,1
765,765,0.8341184817199515,0.8,1.0,1.0,432.0,841.0,1.0,1,137.0,1
766,766,-0.8612470219277552,-0.9,0.0,1.0,316.0,779.0,1.0,0,195.0,1
767,767,-0.12516631350733054,-0.1,1.0,0.0,434.0,510.0,1.0,1,1316.0,0
768,768,0.12627514888791913,0.1,0.0,0.0,455.0,901.0,1.0,0,-86.0,0
769,769,0.6520136847574313,0.7,0.0,0.0,268.0,870.0,1.0,0,-68.0,0
770,770,0.4505772297950833,0.5,1.0,1.0,311.0,677.0,1.0,1,92.0,1
771,771,0.46906736068247346,0.5,1.0,1.0,287.0,676.0,1.0,1,217.0,1
772,772,0.14053482397925776,0.1,0.0,0.0,445.0,514.0,0.0,1,811.0,1
773,773,0.6995618015399007,0.7,1.0,1.0,375.0,901.0,1.0,1,404.0,1
774,774,-0.6692408421292078,-0.7,0.0,1.0,336.0,860.0,1.0,0,354.0,1
775,775,0.23270652690138538,0.2,0.0,0.0,316.0,925.0,1.0,0,319.0,0
776,776,-0.7006282235299142,-0.7,1.0,0.0,445.0,959.0,0.0,0,216.0,1
777,777,-0.6585912650416225,-0.7,0.0,1.0,404.0,549.0,1.0,0,497.0,1
778,778,0.6901302415923297,0.7,0.0,0.0,496.0,740.0,0.0,1,94.0,1
779,779,-0.18144877779942148,-0.2,0.0,1.0,459.0,803.0,1.0,0,198.0,1
780,780,-0.682695773843375,-0.7,1.0,0.0,320.0,863.0,0.0,0,357.0,1
781,781,-0.3246996062307015,-0.3,1.0,0.0,446.0,755.0,0.0,0,269.0,1
782,782,-0.17954634529743407,-0.2,1.0,0.0,358.0,901.0,0.0,0,11.0,1
783,783,0.7301990008542122,0.7,0.0,0.0,396.0,732.0,1.0,0,102.0,0
784,784,0.4953411236632058,0.5,1.0,1.0,377.0,928.0,1.0,1,285.0,1
785,785,-0.48810063950796,-0.5,1.0,0.0,461.0,786.0,1.0,1,723.0,0
786,786,-0.5559561622958606,-0.6,0.0,1.0,288.0,632.0,1.0,0,140.0,1
787,787,0.3839683403558095,0.4,0.0,0.0,463.0,625.0,1.0,0,442.0,0
788,788,-0.8453456559204868,-0.8,1.0,0.0,327.0,988.0,1.0,1,-25.0,0
789,789,0.31259142893781633,0.3,1.0,1.0,318.0,801.0,1.0,1,251.0,1
790,790,-0.8493238113393506,-0.8,1.0,0.0,282.0,660.0,0.0,0,608.0,1
791,791,-0.7676508669700355,-0.8,1.0,0.0,429.0,948.0,0.0,0,13.0,1
792,792,-0.4528036400864003,-0.5,1.0,0.0,350.0,560.0,0.0,0,1270.0,1
793,793,0.26544046225232154,0.3,0.0,0.0,412.0,836.0,0.0,1,342.0,1
794,794,-0.4837466647007169,-0.5,0.0,1.0,347.0,564.0,1.0,0,159.0,1
795,795,-0.19220287350551923,-0.2,0.0,1.0,378.0,653.0,1.0,0,499.0,1
796,796,-0.8072584483779827,-0.8,0.0,1.0,352.0,813.0,0.0,1,55.0,0
797,797,0.56954506716977,0.6,1.0,1.0,487.0,886.0,1.0,1,-3.0,1
798,798,0.1675056203331443,0.2,1.0,1.0,349.0,654.0,1.0,1,567.0,1
799,799,0.08860608546712034,0.1,1.0,1.0,297.0,604.0,1.0,1,159.0,1
800,800,0.6439549355716915,0.6,1.0,1.0,330.0,571.0,1.0,1,379.0,1
801,801,0.0649080860529303,0.1,1.0,1.0,277.0,727.0,1.0,1,356.0,1
802,802,-0.29752103765742766,-0.3,0.0,1.0,368.0,934.0,1.0,0,-92.0,1
803,803,0.1147498028174444,0.1,0.0,0.0,392.0,901.0,0.0,1,147.0,1
804,804,-0.8261701733299279,-0.8,0.0,1.0,287.0,567.0,1.0,0,356.0,1
805,805,0.8013818182844455,0.8,1.0,1.0,475.0,806.0,1.0,1,119.0,1
806,806,-0.4913322108431849,-0.5,1.0,0.0,421.0,749.0,0.0,0,650.0,1
807,807,0.6966464437189993,0.7,0.0,0.0,461.0,901.0,0.0,1,278.0,1
808,808,-0.7086647969496453,-0.7,0.0,1.0,338.0,917.0,1.0,0,225.0,1
809,809,-0.7919161377577999,-0.8,1.0,0.0,272.0,873.0,0.0,0,525.0,1
810,810,-0.572612948340486,-0.6,0.0,1.0,497.0,765.0,1.0,0,238.0,1
811,811,-0.040205881798492604,-0.0,0.0,1.0,303.0,891.0,1.0,0,356.0,1
812,812,-0.4459507884672082,-0.4,0.0,1.0,473.0,658.0,1.0,0,1059.0,1
813,813,-0.06260654062484461,-0.1,0.0,1.0,268.0,898.0,1.0,0,294.0,1
814,814,-0.8712259300849137,-0.9,0.0,1.0,413.0,864.0,1.0,0,253.0,1
815,815,0.5786486130651177,0.6,0.0,0.0,370.0,920.0,1.0,0,190.0,0
816,816,0.11884913634736771,0.1,1.0,1.0,258.0,852.0,1.0,1,660.0,1
817,817,-0.28024502074214497,-0.3,1.0,0.0,379.0,514.0,1.0,1,1857.0,0
818,818,-0.8552672991128742,-0.9,0.0,1.0,439.0,897.0,1.0,0,214.0,1
819,819,-0.2656878850749983,-0.3,0.0,1.0,444.0,980.0,1.0,0,366.0,1
820,820,-0.8593236782366132,-0.9,1.0,0.0,286.0,841.0,0.0,0,33.0,1
821,821,0.36105430821716034,0.4,1.0,1.0,260.0,617.0,1.0,1,173.0,1
822,822,0.89671864079604,0.9,0.0,0.0,279.0,890.0,0.0,1,311.0,1
823,823,-0.02680726387564114,-0.0,1.0,0.0,391.0,753.0,1.0,1,1556.0,0
824,824,0.3631054566598063,0.4,0.0,0.0,487.0,518.0,0.0,1,675.0,1
825,825,0.6757508164623459,0.7,0.0,0.0,301.0,975.0,0.0,1,154.0,1
826,826,-0.8602315715811061,-0.9,1.0,0.0,274.0,788.0,0.0,0,368.0,1
827,827,-0.5868481330679687,-0.6,1.0,0.0,362.0,623.0,0.0,0,355.0,1
828,828,-0.3473840260441372,-0.3,0.0,1.0,333.0,515.0,1.0,0,342.0,1
829,829,-0.0783770422066089,-0.1,1.0,0.0,282.0,974.0,1.0,1,1224.0,0
830,830,-0.8394031796784938,-0.8,0.0,1.0,427.0,898.0,1.0,0,-75.0,1
831,831,-0.6405298007229814,-0.6,0.0,1.0,343.0,508.0,1.0,0,259.0,1
832,832,0.13329126866916374,0.1,0.0,0.0,386.0,686.0,1.0,0,1288.0,0
833,833,-0.08073560813852887,-0.1,1.0,0.0,488.0,534.0,0.0,0,408.0,1
834,834,0.36733557473407286,0.4,0.0,0.0,353.0,661.0,1.0,0,246.0,0
835,835,0.8074963359928887,0.8,0.0,0.0,331.0,814.0,0.0,1,625.0,1
836,836,-0.8205037399853362,-0.8,1.0,0.0,356.0,531.0,0.0,0,563.0,1
837,837,-0.5034270743368656,-0.5,0.0,1.0,385.0,824.0,1.0,0,-9.0,1
838,838,0.3648645513375507,0.4,1.0,1.0,268.0,735.0,1.0,1,517.0,1
839,839,0.30007326614334573,0.3,1.0,1.0,462.0,705.0,1.0,1,383.0,1
840,840,0.1577485127361843,0.2,1.0,1.0,391.0,844.0,1.0,1,915.0,1
841,841,-0.14158532616134378,-0.1,0.0,1.0,344.0,879.0,0.0,1,-23.0,0
842,842,0.5979795898531749,0.6,0.0,0.0,360.0,584.0,0.0,1,406.0,1
843,843,-0.45796565986460996,-0.5,0.0,1.0,345.0,775.0,1.0,0,310.0,1
844,844,-0.3649283449180196,-0.4,0.0,1.0,276.0,554.0,1.0,0,500.0,1
845,845,-0.787396136373871,-0.8,0.0,1.0,483.0,585.0,1.0,0,282.0,1
846,846,-0.06676800300162633,-0.1,0.0,1.0,414.0,630.0,1.0,0,196.0,1
847,847,0.8427466449616962,0.8,1.0,1.0,263.0,919.0,1.0,1,-132.0,1
848,848,0.8007840955458924,0.8,0.0,0.0,382.0,967.0,1.0,0,81.0,0
849,849,-0.19322594563101958,-0.2,1.0,0.0,254.0,777.0,0.0,0,149.0,1
850,850,-0.17749920762699456,-0.2,0.0,1.0,327.0,638.0,1.0,0,175.0,1
851,851,-0.7788455008296109,-0.8,1.0,0.0,266.0,813.0,0.0,0,371.0,1
852,852,-0.18246401573550441,-0.2,1.0,0.0,258.0,638.0,1.0,1,714.0,0
853,853,0.024381366347463795,0.0,0.0,0.0,369.0,769.0,1.0,0,812.0,0
854,854,0.26762004268062756,0.3,0.0,0.0,411.0,656.0,0.0,1,283.0,1
855,855,0.12673103530884766,0.1,1.0,1.0,445.0,707.0,1.0,1,428.0,1
856,856,0.8139379680454698,0.8,1.0,1.0,264.0,575.0,1.0,1,321.0,1
857,857,-0.5474419272649911,-0.5,0.0,1.0,277.0,921.0,1.0,0,-78.0,1
858,858,-0.29827064648808865,-0.3,1.0,0.0,286.0,522.0,1.0,1,642.0,0
859,859,-0.5110858774032907,-0.5,0.0,1.0,374.0,600.0,1.0,0,616.0,1
860,860,-0.5301647811146566,-0.5,0.0,1.0,322.0,876.0,1.0,0,232.0,1
861,861,0.12092922756467128,0.1,0.0,0.0,321.0,782.0,1.0,0,777.0,0
862,862,0.7101543132026905,0.7,0.0,0.0,395.0,699.0,0.0,1,356.0,1
863,863,-0.32493333808223646,-0.3,1.0,0.0,364.0,648.0,0.0,0,588.0,1
864,864,-0.5604152668078157,-0.6,1.0,0.0,425.0,784.0,0.0,0,911.0,1
865,865,-0.05716440068160966,-0.1,0.0,1.0,440.0,500.0,1.0,0,480.0,1
866,866,-0.6924459115484713,-0.7,0.0,1.0,293.0,951.0,1.0,0,576.0,1
867,867,-0.255490255800343,-0.3,1.0,0.0,428.0,593.0,1.0,1,719.0,0
868,868,0.6455578641578853,0.6,1.0,1.0,297.0,918.0,1.0,1,-25.0,1
869,869,-0.8496114216492995,-0.8,1.0,0.0,400.0,556.0,0.0,0,544.0,1
870,870,0.11945262127100109,0.1,0.0,0.0,322.0,745.0,1.0,0,93.0,0
871,871,-0.5122873865347178,-0.5,1.0,0.0,422.0,665.0,0.0,0,273.0,1
872,872,0.7283318035642593,0.7,0.0,0.0,408.0,890.0,0.0,1,312.0,1
873,873,0.6290658808865025,0.6,0.0,0.0,408.0,520.0,0.0,1,382.0,1
874,874,0.6079856807308927,0.6,1.0,1.0,455.0,968.0,1.0,1,117.0,1
875,875,0.023620308541507762,0.0,0.0,0.0,288.0,508.0,0.0,1,654.0,1
876,876,0.183978642488701,0.2,1.0,1.0,405.0,634.0,1.0,1,451.0,1
877,877,-0.463743248801367,-0.5,1.0,0.0,496.0,856.0,1.0,1,128.0,0
878,878,0.3784907737439759,0.4,1.0,1.0,305.0,637.0,1.0,1,418.0,1
879,879,-0.049521800784981806,-0.0,0.0,1.0,482.0,609.0,1.0,0,859.0,1
880,880,-0.5404557886664441,-0.5,0.0,1.0,318.0,647.0,1.0,0,135.0,1
881,881,0.2194472417680916,0.2,0.0,0.0,387.0,885.0,1.0,0,-62.0,0
882,882,0.19636099413101415,0.2,1.0,1.0,347.0,988.0,1.0,1,155.0,1
883,883,-0.6252998900059665,-0.6,0.0,1.0,373.0,614.0,1.0,0,133.0,1
884,884,0.3365020774412161,0.3,0.0,0.0,421.0,514.0,0.0,1,935.0,1
885,885,0.7114937363868715,0.7,0.0,0.0,262.0,620.0,0.0,1,358.0,1
886,886,-0.888250871512973,-0.9,1.0,0.0,438.0,503.0,0.0,0,769.0,1
887,887,-0.29833110777302174,-0.3,1.0,0.0,253.0,560.0,0.0,0,817.0,1
888,888,0.19053041550560768,0.2,0.0,0.0,450.0,670.0,0.0,1,390.0,1
889,889,0.8245005844682077,0.8,0.0,0.0,350.0,871.0,1.0,0,-181.0,0
890,890,0.5775751250675459,0.6,1.0,1.0,262.0,501.0,1.0,1,567.0,1
891,891,0.553526025104765,0.6,1.0,1.0,499.0,962.0,1.0,1,-81.0,1
892,892,0.7310647974210721,0.7,1.0,1.0,406.0,787.0,1.0,1,157.0,1
893,893,0.7094885061789858,0.7,1.0,1.0,402.0,645.0,1.0,1,133.0,1
894,894,-0.8340816135153559,-0.8,1.0,0.0,480.0,910.0,1.0,1,60.0,0
895,895,-0.08337790093504638,-0.1,0.0,1.0,274.0,789.0,0.0,1,537.0,0
896,896,-0.29591913538108916,-0.3,1.0,0.0,463.0,996.0,1.0,1,-169.0,0
897,897,-0.368489370398854,-0.4,1.0,0.0,274.0,856.0,1.0,1,160.0,0
898,898,0.24149712193320594,0.2,1.0,1.0,303.0,705.0,1.0,1,692.0,1
899,899,-0.06635408118147057,-0.1,0.0,1.0,341.0,642.0,1.0,0,37.0,1
900,900,-0.07054102474079516,-0.1,1.0,0.0,483.0,802.0,1.0,1,305.0,0
901,901,-0.3314314750491416,-0.3,1.0,0.0,438.0,635.0,0.0,0,787.0,1
902,902,0.38618980510289236,0.4,0.0,0.0,451.0,980.0,1.0,0,49.0,0
903,903,0.07339416941938415,0.1,1.0,1.0,291.0,528.0,1.0,1,1071.0,1
904,904,0.15908683018799719,0.2,0.0,0.0,298.0,975.0,1.0,0,57.0,0
905,905,-0.6978799092228106,-0.7,0.0,1.0,267.0,531.0,1.0,0,252.0,1
906,906,-0.06267582744145628,-0.1,0.0,1.0,489.0,916.0,0.0,1,25.0,0
907,907,0.44855833878503104,0.4,0.0,0.0,294.0,895.0,0.0,1,541.0,1
908,908,0.7448732666193113,0.7,0.0,0.0,341.0,769.0,0.0,1,260.0,1
909,909,-0.4326747036471352,-0.4,1.0,0.0,428.0,664.0,0.0,0,1458.0,1
910,910,0.3904906800497713,0.4,0.0,0.0,266.0,998.0,0.0,1,846.0,1
911,911,0.7429261674854509,0.7,0.0,0.0,334.0,820.0,0.0,1,626.0,1
912,912,0.4015376849633546,0.4,0.0,0.0,293.0,961.0,0.0,1,416.0,1
913,913,-0.8308613498491564,-0.8,1.0,0.0,373.0,616.0,0.0,0,441.0,1
914,914,0.47941009675519874,0.5,1.0,1.0,257.0,718.0,1.0,1,105.0,1
915,915,-0.13232164208800656,-0.1,1.0,0.0,333.0,769.0,1.0,1,128.0,0
916,916,0.6255763438217768,0.6,0.0,0.0,413.0,623.0,0.0,1,554.0,1
917,917,-0.8225774374039473,-0.8,1.0,0.0,382.0,939.0,0.0,0,209.0,1
918,918,0.12595455284690338,0.1,0.0,0.0,321.0,781.0,1.0,0,978.0,0
919,919,0.24737313386281812,0.2,0.0,0.0,440.0,748.0,1.0,0,-18.0,0
920,920,0.2742070933984587,0.3,0.0,0.0,262.0,713.0,1.0,0,295.0,0
921,921,-0.8367536373288007,-0.8,0.0,1.0,310.0,763.0,1.0,0,187.0,1
922,922,0.8180140250274605,0.8,1.0,1.0,396.0,683.0,1.0,1,181.0,1
923,923,-0.26548215328300173,-0.3,0.0,1.0,372.0,701.0,1.0,0,-73.0,1
924,924,0.8894393316418944,0.9,0.0,0.0,417.0,583.0,0.0,1,230.0,1
925,925,0.7501392017130152,0.8,1.0,1.0,349.0,682.0,1.0,1,229.0,1
926,926,-0.3951572619544411,-0.4,1.0,0.0,445.0,842.0,0.0,0,383.0,1
927,927,-0.6794478804120526,-0.7,0.0,1.0,466.0,862.0,1.0,0,42.0,1
928,928,0.7674145347326596,0.8,0.0,0.0,498.0,933.0,0.0,1,219.0,1
929,929,0.3938551298320664,0.4,1.0,1.0,279.0,631.0,1.0,1,250.0,1
930,930,-0.08957770146733335,-0.1,0.0,1.0,324.0,934.0,1.0,0,462.0,1
931,931,-0.32936900959018034,-0.3,1.0,0.0,499.0,811.0,0.0,0,210.0,1
932,932,0.2261755238003088,0.2,0.0,0.0,250.0,902.0,0.0,1,8.0,1
933,933,-0.45204942360523276,-0.5,0.0,1.0,304.0,914.0,0.0,1,92.0,0
934,934,0.5030046882476708,0.5,1.0,1.0,428.0,517.0,1.0,1,445.0,1
935,935,-0.49958604880879515,-0.5,0.0,1.0,373.0,525.0,1.0,0,402.0,1
936,936,-0.6964554517492545,-0.7,1.0,0.0,327.0,943.0,1.0,1,-20.0,0
937,937,-0.07712399581544915,-0.1,0.0,1.0,385.0,638.0,0.0,1,797.0,0
938,938,0.506090158803106,0.5,1.0,1.0,283.0,801.0,1.0,1,306.0,1
939,939,-0.6232804224870685,-0.6,0.0,1.0,493.0,944.0,1.0,0,143.0,1
940,940,0.820418308918141,0.8,0.0,0.0,290.0,679.0,0.0,1,611.0,1
941,941,-0.6899478002639051,-0.7,0.0,1.0,443.0,981.0,1.0,0,176.0,1
942,942,0.2253138942516849,0.2,1.0,1.0,497.0,612.0,1.0,1,251.0,1
943,943,-0.17094012080861465,-0.2,1.0,0.0,434.0,670.0,1.0,1,586.0,0
944,944,0.6757154504503015,0.7,0.0,0.0,301.0,515.0,0.0,1,474.0,1
945,945,0.06730397570486102,0.1,1.0,1.0,391.0,644.0,1.0,1,145.0,1
946,946,-0.8215880261794404,-0.8,1.0,0.0,390.0,780.0,0.0,0,580.0,1
947,947,0.10787156672223219,0.1,0.0,0.0,262.0,729.0,1.0,0,999.0,0
948,948,0.16032707320093464,0.2,1.0,1.0,389.0,538.0,1.0,1,463.0,1
949,949,0.19474154651693942,0.2,0.0,0.0,390.0,758.0,0.0,1,1022.0,1
950,950,0.1073718259060038,0.1,0.0,0.0,384.0,618.0,1.0,0,458.0,0
951,951,-0.06252601782538492,-0.1,0.0,1.0,405.0,565.0,1.0,0,1020.0,1
952,952,-0.3934213873325225,-0.4,0.0,1.0,296.0,684.0,1.0,0,150.0,1
953,953,0.1971839514624235,0.2,1.0,1.0,361.0,506.0,1.0,1,323.0,1
954,954,-0.2071662581233228,-0.2,0.0,1.0,396.0,903.0,1.0,0,341.0,1
955,955,0.10414014630638702,0.1,0.0,0.0,277.0,641.0,1.0,0,372.0,0
956,956,-0.6468628971712658,-0.6,1.0,0.0,295.0,545.0,1.0,1,380.0,0
957,957,0.7278851971782313,0.7,0.0,0.0,297.0,993.0,0.0,1,360.0,1
958,958,-0.7636802877126108,-0.8,0.0,1.0,401.0,888.0,1.0,0,-199.0,1
959,959,-0.703283085550397,-0.7,1.0,0.0,448.0,609.0,0.0,0,613.0,1
960,960,0.5023679345384168,0.5,0.0,0.0,446.0,605.0,0.0,1,1009.0,1
961,961,0.7369620935401257,0.7,1.0,1.0,346.0,999.0,1.0,1,235.0,1
962,962,-0.1852381350872473,-0.2,1.0,0.0,454.0,611.0,1.0,1,845.0,0
963,963,-0.1760239558903468,-0.2,1.0,0.0,425.0,753.0,0.0,0,632.0,1
964,964,0.6994927876569493,0.7,1.0,1.0,465.0,761.0,1.0,1,164.0,1
965,965,0.5706810798874121,0.6,1.0,1.0,256.0,823.0,1.0,1,311.0,1
966,966,-0.13382050335552242,-0.1,0.0,1.0,471.0,644.0,1.0,0,1015.0,1
967,967,-0.07202058809288836,-0.1,0.0,1.0,323.0,965.0,0.0,1,12.0,0
968,968,-0.5606424514293182,-0.6,1.0,0.0,497.0,507.0,0.0,0,846.0,1
969,969,-0.06741081012182404,-0.1,1.0,0.0,403.0,917.0,1.0,1,50.0,0
970,970,-0.4080517601842759,-0.4,1.0,0.0,355.0,951.0,1.0,1,-36.0,0
971,971,-0.13126907754242634,-0.1,0.0,1.0,464.0,855.0,1.0,0,501.0,1
972,972,0.827705312979785,0.8,1.0,1.0,349.0,912.0,1.0,1,9.0,1
973,973,-0.5914251302236287,-0.6,0.0,1.0,443.0,961.0,1.0,0,466.0,1
974,974,-0.6491121513024123,-0.6,1.0,0.0,414.0,814.0,0.0,0,182.0,1
975,975,0.7805263716163761,0.8,0.0,0.0,317.0,640.0,0.0,1,253.0,1
976,976,0.6345648177374444,0.6,0.0,0.0,371.0,847.0,0.0,1,422.0,1
977,977,0.1669283976231174,0.2,1.0,1.0,293.0,612.0,1.0,1,1105.0,1
978,978,0.2171442851420634,0.2,0.0,0.0,477.0,936.0,1.0,0,1487.0,0
979,979,0.07258354374651865,0.1,0.0,0.0,326.0,618.0,1.0,0,506.0,0
980,980,-0.7322253331010747,-0.7,1.0,0.0,265.0,732.0,0.0,0,923.0,1
981,981,0.19521433433377589,0.2,1.0,1.0,259.0,594.0,1.0,1,377.0,1
982,982,0.8612343340456251,0.9,0.0,0.0,417.0,653.0,0.0,1,320.0,1
983,983,-0.1881872446668884,-0.2,1.0,0.0,300.0,740.0,0.0,0,250.0,1
984,984,-0.6876015487069531,-0.7,0.0,1.0,361.0,502.0,1.0,0,557.0,1
985,985,-0.21657213811476372,-0.2,0.0,1.0,412.0,571.0,1.0,0,567.0,1
986,986,0.2241778979696899,0.2,1.0,1.0,475.0,772.0,1.0,1,53.0,1
987,987,0.21460235353644885,0.2,1.0,1.0,296.0,606.0,1.0,1,358.0,1
988,988,-0.46631127017152313,-0.5,1.0,0.0,466.0,545.0,0.0,0,639.0,1
989,989,0.11443774842080734,0.1,0.0,0.0,384.0,695.0,0.0,1,1081.0,1
990,990,-0.7503100647384512,-0.8,0.0,1.0,381.0,919.0,1.0,0,290.0,1
991,991,0.7837333412368978,0.8,0.0,0.0,309.0,830.0,0.0,1,351.0,1
992,992,-0.49416260640689863,-0.5,0.0,1.0,262.0,633.0,1.0,0,125.0,1
993,993,-0.8469760690125174,-0.8,0.0,1.0,362.0,679.0,1.0,0,119.0,1
994,994,-0.42222194090177095,-0.4,1.0,0.0,407.0,974.0,1.0,1,39.0,0
995,995,0.6976900918257033,0.7,1.0,1.0,480.0,957.0,1.0,1,93.0,1
996,996,-0.6600975685703878,-0.7,0.0,1.0,471.0,844.0,1.0,0,355.0,1
997,997,0.48800286156773176,0.5,1.0,1.0,310.0,856.0,1.0,1,214.0,1
998,998,-0.009234350412617442,-0.0,0.0,1.0,347.0,600.0,1.0,0,1413.0,1
999,999,-0.7629350680238182,-0.8,1.0,0.0,450.0,825.0,0.0,0,205.0,1
1000,1000,0.14239352430732055,0.1,0.0,0.0,467.0,554.0,0.0,1,589.0,1
1001,1001,-0.041727306259000896,-0.0,0.0,1.0,415.0,765.0,1.0,0,160.0,1
1002,1002,-0.8684161827532343,-0.9,0.0,1.0,302.0,557.0,1.0,0,211.0,1
1003,1003,-0.7562621891628242,-0.8,0.0,1.0,431.0,631.0,1.0,0,168.0,1
1004,1004,0.1569172440308827,0.2,1.0,1.0,473.0,817.0,1.0,1,260.0,1
1005,1005,-0.4865257642150977,-0.5,0.0,1.0,380.0,933.0,1.0,0,117.0,1
1006,1006,0.5900609671255278,0.6,1.0,1.0,382.0,544.0,1.0,1,524.0,1
1007,1007,0.1572678324429274,0.2,0.0,0.0,291.0,501.0,1.0,0,228.0,0
1008,1008,-0.4169920539881979,-0.4,1.0,0.0,477.0,500.0,0.0,0,813.0,1
1009,1009,0.8776376697559439,0.9,0.0,0.0,476.0,860.0,0.0,1,534.0,1
1010,1010,-0.013539803217742508,-0.0,0.0,1.0,476.0,811.0,0.0,1,273.0,0
1011,1011,0.40095160670974994,0.4,0.0,0.0,425.0,528.0,0.0,1,267.0,1
1012,1012,-0.8520647890658206,-0.9,1.0,0.0,296.0,894.0,0.0,0,150.0,1
1013,1013,0.1497473144607694,0.1,1.0,1.0,296.0,595.0,1.0,1,89.0,1
1014,1014,0.12543635141589304,0.1,0.0,0.0,457.0,597.0,1.0,0,326.0,0
1015,1015,-0.8651947652242624,-0.9,1.0,0.0,412.0,858.0,0.0,0,540.0,1
1016,1016,-0.6076170095849605,-0.6,1.0,0.0,259.0,912.0,1.0,1,-1.0,0
1017,1017,0.01742946816591895,0.0,1.0,1.0,284.0,875.0,0.0,0,1081.0,0
1018,1018,0.745526835104593,0.7,1.0,1.0,278.0,778.0,1.0,1,374.0,1
1019,1019,0.36529489357500877,0.4,1.0,1.0,373.0,858.0,1.0,1,139.0,1
1020,1020,0.22884525759236396,0.2,0.0,0.0,390.0,589.0,1.0,0,491.0,0
1021,1021,0.7912900229300358,0.8,0.0,0.0,385.0,606.0,0.0,1,379.0,1
1022,1022,0.3358014754898663,0.3,0.0,0.0,483.0,517.0,0.0,1,650.0,1
1023,1023,-0.23067602504221774,-0.2,0.0,1.0,404.0,877.0,1.0,0,419.0,1
1024,1024,-0.6851295396229302,-0.7,1.0,0.0,447.0,822.0,0.0,0,311.0,1
1025,1025,0.8488001443321181,0.8,0.0,0.0,382.0,853.0,0.0,1,235.0,1
1026,1026,0.5977755288897194,0.6,1.0,1.0,251.0,729.0,1.0,1,280.0,1
1027,1027,-0.8644686608548159,-0.9,0.0,1.0,380.0,962.0,1.0,0,138.0,1
1028,1028,0.6471374488091178,0.6,0.0,0.0,399.0,649.0,0.0,1,642.0,1
1029,1029,0.04555946409415901,0.0,1.0,1.0,371.0,726.0,0.0,0,743.0,0
1030,1030,0.8069354548025777,0.8,0.0,0.0,275.0,787.0,1.0,0,-22.0,0
1031,1031,0.5943266066093983,0.6,1.0,1.0,317.0,810.0,1.0,1,333.0,1
1032,1032,0.24841482883596366,0.2,0.0,0.0,266.0,550.0,0.0,1,644.0,1
1033,1033,-0.609023362134089,-0.6,1.0,0.0,367.0,573.0,0.0,0,620.0,1
1034,1034,0.016343545973399487,0.0,0.0,0.0,386.0,756.0,1.0,0,88.0,0
1035,1035,0.17824334217737448,0.2,0.0,0.0,401.0,940.0,1.0,0,259.0,0
1036,1036,0.230237837437954,0.2,1.0,1.0,391.0,732.0,1.0,1,417.0,1
1037,1037,-0.7848810217069493,-0.8,1.0,0.0,309.0,648.0,0.0,0,363.0,1
1038,1038,0.11142322178770236,0.1,1.0,1.0,255.0,666.0,1.0,1,369.0,1
1039,1039,0.6380389223604751,0.6,1.0,1.0,473.0,723.0,1.0,1,134.0,1
1040,1040,0.16548714118255037,0.2,0.0,0.0,354.0,813.0,0.0,1,403.0,1
1041,1041,0.26351155580735475,0.3,1.0,1.0,316.0,853.0,1.0,1,791.0,1
1042,1042,0.8730652857440157,0.9,1.0,1.0,413.0,535.0,1.0,1,352.0,1
1043,1043,0.41951970930963534,0.4,0.0,0.0,298.0,886.0,1.0,0,-74.0,0
1044,1044,-0.5905466192302831,-0.6,0.0,1.0,312.0,853.0,0.0,1,225.0,0
1045,1045,0.7926428851505337,0.8,0.0,0.0,406.0,897.0,0.0,1,847.0,1
1046,1046,0.025686118490518606,0.0,1.0,1.0,457.0,834.0,1.0,1,139.0,1
1047,1047,0.018163800295249333,0.0,1.0,1.0,422.0,660.0,0.0,0,548.0,0
1048,1048,0.023197693169453082,0.0,1.0,1.0,257.0,882.0,0.0,0,131.0,0
1049,1049,0.17796403940197847,0.2,0.0,0.0,277.0,755.0,1.0,0,858.0,0
1050,1050,-0.5953980750867678,-0.6,1.0,0.0,428.0,711.0,0.0,0,681.0,1
1051,1051,0.5707443470437151,0.6,0.0,0.0,445.0,786.0,0.0,1,379.0,1
1052,1052,-0.37256896693239105,-0.4,0.0,1.0,406.0,660.0,1.0,0,374.0,1
1053,1053,-0.8843349169253767,-0.9,0.0,1.0,425.0,812.0,1.0,0,193.0,1
1054,1054,0.8035484902200914,0.8,1.0,1.0,370.0,539.0,1.0,1,371.0,1
1055,1055,0.35557680252755,0.4,0.0,0.0,291.0,569.0,0.0,1,730.0,1
1056,1056,0.7844878224404653,0.8,0.0,0.0,482.0,672.0,0.0,1,506.0,1
1057,1057,0.1649668107231118,0.2,0.0,0.0,332.0,864.0,1.0,0,674.0,0
1058,1058,0.8208667499217513,0.8,0.0,0.0,278.0,730.0,0.0,1,512.0,1
1059,1059,0.839159100473781,0.8,1.0,1.0,482.0,712.0,1.0,1,136.0,1
1060,1060,-0.40787776503964607,-0.4,0.0,1.0,418.0,548.0,1.0,0,474.0,1
1061,1061,-0.0030179767657626533,-0.0,0.0,1.0,348.0,720.0,0.0,1,562.0,0
1062,1062,-0.6808092506333969,-0.7,1.0,0.0,334.0,978.0,1.0,1,68.0,0
1063,1063,0.26225731993181645,0.3,0.0,0.0,318.0,545.0,1.0,0,817.0,0
1064,1064,-0.8830600897320312,-0.9,0.0,1.0,480.0,554.0,1.0,0,156.0,1
1065,1065,0.22935749873165456,0.2,1.0,1.0,291.0,790.0,1.0,1,399.0,1
1066,1066,0.440635156483855,0.4,1.0,1.0,476.0,560.0,1.0,1,314.0,1
1067,1067,0.898401018478436,0.9,0.0,0.0,449.0,559.0,0.0,1,322.0,1
1068,1068,-0.41682913061471116,-0.4,1.0,0.0,257.0,684.0,1.0,1,489.0,0
1069,1069,0.25795926032179073,0.3,1.0,1.0,412.0,747.0,1.0,1,671.0,1
1070,1070,0.6417244549112481,0.6,0.0,0.0,365.0,844.0,1.0,0,-19.0,0
1071,1071,-0.27668670762487013,-0.3,1.0,0.0,396.0,887.0,0.0,0,77.0,1
1072,1072,-0.45463091100137293,-0.5,1.0,0.0,279.0,533.0,0.0,0,858.0,1
1073,1073,-0.8012834018481999,-0.8,1.0,0.0,314.0,983.0,1.0,1,-47.0,0
1074,1074,-0.0033054618095930133,-0.0,1.0,0.0,433.0,742.0,1.0,1,835.0,0
1075,1075,0.08186945283382685,0.1,1.0,1.0,292.0,987.0,1.0,1,31.0,1
1076,1076,0.364933474342234,0.4,1.0,1.0,347.0,842.0,1.0,1,121.0,1
1077,1077,-0.3006054550883085,-0.3,0.0,1.0,328.0,747.0,1.0,0,365.0,1
1078,1078,-0.7661593801065975,-0.8,0.0,1.0,414.0,734.0,1.0,0,172.0,1
1079,1079,0.5210845192667072,0.5,1.0,1.0,282.0,548.0,1.0,1,580.0,1
1080,1080,-0.24044811027894963,-0.2,1.0,0.0,446.0,765.0,1.0,1,1059.0,0
1081,1081,-0.6543554218151798,-0.7,1.0,0.0,320.0,662.0,0.0,0,378.0,1
1082,1082,-0.32978481581705976,-0.3,1.0,0.0,456.0,921.0,0.0,0,373.0,1
1083,1083,0.3841629115006894,0.4,1.0,1.0,386.0,688.0,1.0,1,186.0,1
1084,1084,0.6100735692927838,0.6,0.0,0.0,479.0,979.0,0.0,1,202.0,1
1085,1085,0.29007093734059197,0.3,0.0,0.0,358.0,734.0,0.0,1,118.0,1
1086,1086,-0.45828763835820163,-0.5,0.0,1.0,251.0,543.0,1.0,0,526.0,1
1087,1087,0.8887872260981372,0.9,0.0,0.0,270.0,894.0,0.0,1,336.0,1
1088,1088,-0.058918684780298936,-0.1,0.0,1.0,258.0,826.0,1.0,0,276.0,1
1089,1089,-0.14117438815052452,-0.1,0.0,1.0,373.0,752.0,1.0,0,225.0,1
1090,1090,-0.11576554167209774,-0.1,0.0,1.0,421.0,683.0,1.0,0,416.0,1
1091,1091,-0.204050287092725,-0.2,0.0,1.0,414.0,644.0,1.0,0,602.0,1
1092,1092,-0.041188577813598415,-0.0,1.0,0.0,430.0,858.0,1.0,1,462.0,0
1093,1093,-0.002151057176122295,-0.0,1.0,0.0,371.0,771.0,1.0,1,688.0,0
1094,1094,0.7905596281891348,0.8,1.0,1.0,463.0,948.0,1.0,1,-1.0,1
1095,1095,-0.27146679044416033,-0.3,0.0,1.0,348.0,740.0,1.0,0,192.0,1
1096,1096,0.13639666785659277,0.1,1.0,1.0,378.0,852.0,0.0,0,180.0,0
1097,1097,-0.5422845163267612,-0.5,1.0,0.0,423.0,544.0,0.0,0,1013.0,1
1098,1098,0.7049511924935675,0.7,1.0,1.0,358.0,982.0,1.0,1,240.0,1
1099,1099,0.06077420943785372,0.1,0.0,0.0,305.0,683.0,1.0,0,622.0,0
1100,1100,-0.09765749531474766,-0.1,1.0,0.0,289.0,937.0,0.0,0,224.0,1
1101,1101,-0.5020781400027345,-0.5,0.0,1.0,372.0,566.0,1.0,0,432.0,1
1102,1102,-0.784542967687417,-0.8,0.0,1.0,441.0,574.0,1.0,0,255.0,1
1103,1103,-0.889331471666117,-0.9,1.0,0.0,491.0,858.0,0.0,0,831.0,1
1104,1104,0.05907343940524312,0.1,1.0,1.0,351.0,917.0,1.0,1,152.0,1
1105,1105,-0.5513107295454069,-0.6,1.0,0.0,427.0,741.0,1.0,1,2.0,0
1106,1106,0.21056655806951852,0.2,1.0,1.0,255.0,794.0,1.0,1,311.0,1
1107,1107,0.25115132136090434,0.3,1.0,1.0,398.0,831.0,1.0,1,-39.0,1
1108,1108,-0.0060003921368828594,-0.0,1.0,0.0,363.0,861.0,0.0,0,296.0,1
1109,1109,-0.25209107639595063,-0.3,1.0,0.0,472.0,775.0,1.0,1,123.0,0
1110,1110,-0.48327442977385787,-0.5,0.0,1.0,355.0,520.0,1.0,0,395.0,1
1111,1111,-0.5127367626548608,-0.5,1.0,0.0,389.0,940.0,1.0,1,731.0,0
1112,1112,-0.2592633286887629,-0.3,1.0,0.0,408.0,770.0,0.0,0,1022.0,1
1113,1113,0.22515488130096772,0.2,1.0,1.0,277.0,836.0,1.0,1,117.0,1
1114,1114,-0.7922133612925178,-0.8,0.0,1.0,457.0,814.0,1.0,0,19.0,1
1115,1115,0.7423571403150556,0.7,0.0,0.0,330.0,801.0,0.0,1,709.0,1
1116,1116,0.055155740692861444,0.1,0.0,0.0,374.0,866.0,0.0,1,120.0,1
1117,1117,0.5672860753629657,0.6,0.0,0.0,411.0,712.0,0.0,1,357.0,1
1118,1118,-0.2308682917271193,-0.2,0.0,1.0,350.0,606.0,1.0,0,254.0,1
1119,1119,0.2785094624493877,0.3,1.0,1.0,407.0,730.0,1.0,1,243.0,1
1120,1120,-0.8570427680359514,-0.9,0.0,1.0,278.0,683.0,1.0,0,259.0,1
1121,1121,0.6176856813272665,0.6,1.0,1.0,307.0,858.0,1.0,1,15.0,1
1122,1122,-0.5901864538659969,-0.6,1.0,0.0,313.0,939.0,0.0,0,178.0,1
1123,1123,0.3048199221029736,0.3,0.0,0.0,444.0,732.0,0.0,1,164.0,1
1124,1124,0.49041056143384376,0.5,0.0,0.0,496.0,931.0,0.0,1,593.0,1
1125,1125,-0.7930784051183777,-0.8,1.0,0.0,446.0,771.0,1.0,1,93.0,0
1126,1126,-0.15402584852169932,-0.2,1.0,0.0,435.0,825.0,1.0,1,140.0,0
1127,1127,0.29733826172060784,0.3,0.0,0.0,411.0,755.0,0.0,1,634.0,1
1128,1128,-0.057288723166740496,-0.1,0.0,1.0,491.0,765.0,1.0,0,204.0,1
1129,1129,0.5595672268626163,0.6,0.0,0.0,258.0,694.0,0.0,1,328.0,1
1130,1130,-0.16092733416256078,-0.2,0.0,1.0,354.0,693.0,1.0,0,653.0,1
1131,1131,-0.23342872437433015,-0.2,1.0,0.0,253.0,797.0,1.0,1,-20.0,0
1132,1132,-0.05737212425256755,-0.1,1.0,0.0,422.0,819.0,1.0,1,19.0,0
1133,1133,-0.04926332690511759,-0.0,0.0,1.0,364.0,802.0,0.0,1,144.0,0
1134,1134,-0.8818824193988927,-0.9,0.0,1.0,322.0,986.0,1.0,0,122.0,1
1135,1135,0.37733837245339863,0.4,1.0,1.0,444.0,702.0,1.0,1,404.0,1
1136,1136,-0.5065390254863429,-0.5,1.0,0.0,256.0,841.0,0.0,0,563.0,1
1137,1137,-0.22019855836776792,-0.2,1.0,0.0,473.0,690.0,1.0,1,487.0,0
1138,1138,0.33317991368130195,0.3,1.0,1.0,350.0,652.0,1.0,1,198.0,1
1139,1139,-0.569776782337277,-0.6,0.0,1.0,440.0,560.0,1.0,0,480.0,1
1140,1140,0.5583781136635785,0.6,1.0,1.0,418.0,571.0,1.0,1,341.0,1
1141,1141,-0.478268102443735,-0.5,0.0,1.0,498.0,503.0,1.0,0,599.0,1
1142,1142,-0.7432087041640685,-0.7,1.0,0.0,414.0,933.0,1.0,1,-137.0,0
1143,1143,0.42240445557318484,0.4,1.0,1.0,391.0,992.0,1.0,1,167.0,1
1144,1144,0.2119470307514445,0.2,1.0,1.0,289.0,925.0,1.0,1,-64.0,1
1145,1145,-0.5239563158106297,-0.5,0.0,1.0,445.0,645.0,1.0,0,480.0,1
1146,1146,0.433271401192035,0.4,1.0,1.0,458.0,695.0,1.0,1,407.0,1
1147,1147,-0.13566529677793893,-0.1,0.0,1.0,354.0,640.0,1.0,0,436.0,1
1148,1148,-0.6012119458136633,-0.6,1.0,0.0,325.0,535.0,0.0,0,1100.0,1
1149,1149,-0.030106927498675273,-0.0,0.0,1.0,485.0,936.0,1.0,0,-51.0,1
1150,1150,0.3125354529086285,0.3,0.0,0.0,398.0,978.0,1.0,0,1194.0,0
1151,1151,-0.43056659757966814,-0.4,0.0,1.0,453.0,745.0,1.0,0,282.0,1
1152,1152,-0.611956930197457,-0.6,0.0,1.0,251.0,798.0,1.0,0,111.0,1
1153,1153,-0.6305614073459807,-0.6,1.0,0.0,254.0,636.0,0.0,0,790.0,1
1154,1154,-0.3600007458005142,-0.4,0.0,1.0,260.0,748.0,1.0,0,182.0,1
1155,1155,-0.6398414862802655,-0.6,0.0,1.0,256.0,997.0,1.0,0,87.0,1
1156,1156,0.6950911541475969,0.7,1.0,1.0,305.0,951.0,1.0,1,254.0,1
1157,1157,0.82355147410692,0.8,0.0,0.0,274.0,815.0,1.0,0,-159.0,0
1158,1158,-0.06744334236325777,-0.1,0.0,1.0,497.0,649.0,1.0,0,374.0,1
1159,1159,0.02055627810983318,0.0,1.0,1.0,494.0,675.0,1.0,1,351.0,1
1160,1160,-0.21734738811020504,-0.2,1.0,0.0,330.0,879.0,0.0,0,761.0,1
1161,1161,-0.7980099498841111,-0.8,1.0,0.0,452.0,664.0,0.0,0,414.0,1
1162,1162,-0.7174602362668918,-0.7,0.0,1.0,319.0,631.0,1.0,0,330.0,1
1163,1163,0.5236333069610123,0.5,0.0,0.0,305.0,905.0,0.0,1,140.0,1
1164,1164,0.5368940029245245,0.5,1.0,1.0,376.0,991.0,1.0,1,273.0,1
1165,1165,0.6371299941628134,0.6,1.0,1.0,255.0,688.0,1.0,1,27.0,1
1166,1166,-0.04945869762004562,-0.0,1.0,0.0,353.0,657.0,1.0,1,370.0,0
1167,1167,0.41109769154550146,0.4,0.0,0.0,424.0,936.0,1.0,0,-170.0,0
1168,1168,0.15646633339931093,0.2,0.0,0.0,453.0,684.0,1.0,0,243.0,0
1169,1169,-0.03618161189831448,-0.0,0.0,1.0,416.0,910.0,1.0,0,-26.0,1
1170,1170,-0.11405944120693501,-0.1,1.0,0.0,490.0,502.0,1.0,1,1078.0,0
1171,1171,-0.6816890722799499,-0.7,1.0,0.0,450.0,775.0,0.0,0,285.0,1
1172,1172,-0.38538767868691903,-0.4,0.0,1.0,425.0,502.0,1.0,0,853.0,1
1173,1173,-0.8360628170378713,-0.8,0.0,1.0,479.0,630.0,1.0,0,171.0,1
1174,1174,-0.4933531351551999,-0.5,1.0,0.0,403.0,522.0,1.0,1,905.0,0
1175,1175,0.2781920792486753,0.3,0.0,0.0,338.0,707.0,1.0,0,25.0,0
1176,1176,-0.6150220295315381,-0.6,1.0,0.0,344.0,601.0,0.0,0,515.0,1
1177,1177,-0.07002093899160877,-0.1,0.0,1.0,368.0,648.0,1.0,0,324.0,1
1178,1178,0.23862797601021868,0.2,1.0,1.0,327.0,646.0,1.0,1,217.0,1
1179,1179,0.2700998523176247,0.3,1.0,1.0,265.0,572.0,1.0,1,493.0,1
1180,1180,0.7298035961448471,0.7,0.0,0.0,309.0,527.0,1.0,0,784.0,0
1181,1181,-0.6919704604784984,-0.7,1.0,0.0,382.0,513.0,0.0,0,675.0,1
1182,1182,0.40959357280336206,0.4,0.0,0.0,256.0,897.0,0.0,1,67.0,1
1183,1183,0.7688394221731739,0.8,0.0,0.0,470.0,519.0,0.0,1,541.0,1
1184,1184,-0.5689206999337684,-0.6,1.0,0.0,282.0,579.0,0.0,0,439.0,1
1185,1185,0.6006921746736632,0.6,0.0,0.0,321.0,908.0,0.0,1,781.0,1
1186,1186,-0.1239829907403287,-0.1,0.0,1.0,489.0,913.0,0.0,1,548.0,0
1187,1187,0.7928662460608696,0.8,0.0,0.0,392.0,625.0,0.0,1,343.0,1
1188,1188,-0.27471297647756776,-0.3,0.0,1.0,475.0,600.0,1.0,0,375.0,1
1189,1189,-0.7585715328519207,-0.8,0.0,1.0,477.0,888.0,1.0,0,225.0,1
1190,1190,0.6751925960919093,0.7,1.0,1.0,357.0,836.0,1.0,1,127.0,1
1191,1191,-0.7920171619180908,-0.8,1.0,0.0,347.0,627.0,0.0,0,216.0,1
1192,1192,-0.5981117102254018,-0.6,1.0,0.0,303.0,725.0,0.0,0,752.0,1
1193,1193,0.7222562418620536,0.7,0.0,0.0,443.0,823.0,0.0,1,194.0,1
1194,1194,-0.18649000745652766,-0.2,0.0,1.0,490.0,886.0,1.0,0,704.0,1
1195,1195,0.8969685559985275,0.9,0.0,0.0,434.0,857.0,1.0,0,-31.0,0
1196,1196,-0.6547593976232668,-0.7,1.0,0.0,307.0,715.0,1.0,1,188.0,0
1197,1197,0.8242566474755365,0.8,1.0,1.0,273.0,862.0,1.0,1,425.0,1
1198,1198,-0.374238208574422,-0.4,0.0,1.0,356.0,998.0,1.0,0,-34.0,1
1199,1199,0.41471790319765367,0.4,0.0,0.0,404.0,777.0,1.0,0,139.0,0
1200,1200,0.7037600409970198,0.7,1.0,1.0,391.0,666.0,1.0,1,313.0,1
1201,1201,0.33213588768186175,0.3,0.0,0.0,482.0,512.0,1.0,0,346.0,0
1202,1202,0.491957030343375,0.5,1.0,1.0,452.0,893.0,1.0,1,-95.0,1
1203,1203,-0.790849764009763,-0.8,1.0,0.0,357.0,539.0,0.0,0,344.0,1
1204,1204,-0.090978534342398,-0.1,0.0,1.0,414.0,670.0,1.0,0,516.0,1
1205,1205,0.713242295059828,0.7,0.0,0.0,378.0,590.0,0.0,1,752.0,1
1206,1206,-0.6803579380518837,-0.7,1.0,0.0,356.0,554.0,0.0,0,660.0,1
1207,1207,-0.2505625812352068,-0.3,1.0,0.0,382.0,604.0,1.0,1,394.0,0
1208,1208,-0.8405586988244598,-0.8,0.0,1.0,437.0,567.0,1.0,0,406.0,1
1209,1209,0.0013196541193997158,0.0,0.0,0.0,307.0,849.0,0.0,1,1104.0,1
1210,1210,-0.7762189270987304,-0.8,0.0,1.0,314.0,841.0,1.0,0,125.0,1
1211,1211,0.4430565893400523,0.4,1.0,1.0,366.0,622.0,1.0,1,792.0,1
1212,1212,-0.3726653500462601,-0.4,1.0,0.0,442.0,769.0,1.0,1,99.0,0
1213,1213,-0.39461378802913705,-0.4,1.0,0.0,356.0,710.0,0.0,0,154.0,1
1214,1214,-0.4188522503884126,-0.4,1.0,0.0,360.0,802.0,0.0,0,778.0,1
1215,1215,-0.1936525846585373,-0.2,1.0,0.0,456.0,927.0,1.0,1,17.0,0
1216,1216,0.382196016340172,0.4,1.0,1.0,414.0,833.0,1.0,1,-147.0,1
1217,1217,0.7893381455249612,0.8,1.0,1.0,446.0,833.0,1.0,1,91.0,1
1218,1218,-0.5591236608656954,-0.6,0.0,1.0,442.0,510.0,1.0,0,508.0,1
1219,1219,0.09824118835406748,0.1,1.0,1.0,481.0,563.0,1.0,1,426.0,1
1220,1220,0.48970916960818933,0.5,1.0,1.0,303.0,995.0,1.0,1,412.0,1
1221,1221,-0.7108109870577342,-0.7,0.0,1.0,399.0,630.0,1.0,0,211.0,1
1222,1222,0.09697992872170458,0.1,0.0,0.0,355.0,919.0,1.0,0,46.0,0
1223,1223,-0.7070872615882342,-0.7,1.0,0.0,385.0,657.0,0.0,0,268.0,1
1224,1224,0.3119312969820155,0.3,1.0,1.0,351.0,937.0,1.0,1,592.0,1
1225,1225,-0.6869230962674482,-0.7,1.0,0.0,314.0,791.0,0.0,0,465.0,1
1226,1226,0.8371087423616309,0.8,0.0,0.0,339.0,571.0,0.0,1,370.0,1
1227,1227,0.25000966180858597,0.3,1.0,1.0,464.0,542.0,1.0,1,194.0,1
1228,1228,0.6928059033999542,0.7,0.0,0.0,331.0,924.0,0.0,1,245.0,1
1229,1229,0.47505774810158574,0.5,1.0,1.0,335.0,837.0,1.0,1,868.0,1
1230,1230,0.2739525694065573,0.3,1.0,1.0,404.0,876.0,1.0,1,140.0,1
1231,1231,0.05614038236589025,0.1,1.0,1.0,433.0,605.0,0.0,0,362.0,0
1232,1232,0.40961144209119793,0.4,0.0,0.0,479.0,696.0,1.0,0,265.0,0
1233,1233,0.8036295428254684,0.8,1.0,1.0,323.0,519.0,1.0,1,768.0,1
1234,1234,0.7257575789889151,0.7,1.0,1.0,286.0,988.0,1.0,1,-254.0,1
1235,1235,0.32824798496365337,0.3,1.0,1.0,361.0,955.0,1.0,1,214.0,1
1236,1236,0.3175458609066032,0.3,0.0,0.0,301.0,922.0,1.0,0,-13.0,0
1237,1237,-0.8517731587569018,-0.9,0.0,1.0,371.0,753.0,1.0,0,886.0,1
1238,1238,0.42190949626324314,0.4,1.0,1.0,334.0,751.0,1.0,1,255.0,1
1239,1239,0.29092518280804713,0.3,0.0,0.0,392.0,598.0,1.0,0,360.0,0
1240,1240,0.12444489842499407,0.1,1.0,1.0,262.0,715.0,1.0,1,283.0,1
1241,1241,-0.31866900196139514,-0.3,1.0,0.0,255.0,965.0,0.0,0,1100.0,1
1242,1242,-0.19461487362860563,-0.2,0.0,1.0,343.0,851.0,1.0,0,236.0,1
1243,1243,0.4123141594253751,0.4,1.0,1.0,261.0,916.0,1.0,1,173.0,1
1244,1244,-0.7388760092471189,-0.7,0.0,1.0,391.0,827.0,1.0,0,202.0,1
1245,1245,-0.05838732452252049,-0.1,0.0,1.0,270.0,888.0,0.0,1,252.0,0
1246,1246,0.6049461383378293,0.6,1.0,1.0,414.0,939.0,1.0,1,277.0,1
1247,1247,-0.7530860539278533,-0.8,1.0,0.0,423.0,672.0,0.0,0,175.0,1
1248,1248,-0.853046634332202,-0.9,0.0,1.0,456.0,961.0,1.0,0,233.0,1
1249,1249,0.18946457050164456,0.2,0.0,0.0,276.0,825.0,0.0,1,429.0,1
1250,1250,0.8595491040849436,0.9,0.0,0.0,298.0,510.0,0.0,1,752.0,1
1251,1251,-0.23010128075056469,-0.2,0.0,1.0,287.0,691.0,1.0,0,202.0,1
1252,1252,-0.04766797313614435,-0.0,0.0,1.0,255.0,958.0,1.0,0,47.0,1
1253,1253,0.007547717341399585,0.0,0.0,0.0,347.0,908.0,0.0,1,135.0,1
1254,1254,-0.5296064144598012,-0.5,1.0,0.0,320.0,727.0,0.0,0,1373.0,1
1255,1255,-0.14716797506885637,-0.1,0.0,1.0,402.0,556.0,1.0,0,272.0,1
1256,1256,0.15331619156778376,0.2,0.0,0.0,352.0,984.0,0.0,1,1164.0,1
1257,1257,0.09570924129291292,0.1,1.0,1.0,252.0,786.0,1.0,1,892.0,1
1258,1258,0.7493835893102386,0.7,1.0,1.0,465.0,950.0,1.0,1,105.0,1
1259,1259,-0.3792059311128855,-0.4,1.0,0.0,481.0,589.0,0.0,0,710.0,1
1260,1260,0.5618178927944245,0.6,1.0,1.0,312.0,644.0,1.0,1,324.0,1
1261,1261,-0.8002006523086813,-0.8,0.0,1.0,352.0,700.0,1.0,0,368.0,1
1262,1262,0.49641430931136166,0.5,0.0,0.0,331.0,889.0,0.0,1,800.0,1
1263,1263,0.7953895716717879,0.8,1.0,1.0,384.0,531.0,1.0,1,685.0,1
1264,1264,0.8444513723277017,0.8,1.0,1.0,347.0,527.0,1.0,1,726.0,1
1265,1265,0.6434529770962502,0.6,1.0,1.0,285.0,727.0,1.0,1,628.0,1
1266,1266,-0.5888643218250511,-0.6,0.0,1.0,409.0,835.0,0.0,1,66.0,0
1267,1267,0.8529650861687154,0.9,1.0,1.0,487.0,560.0,1.0,1,423.0,1
1268,1268,-0.1970122522329838,-0.2,0.0,1.0,380.0,895.0,1.0,0,785.0,1
1269,1269,0.3261181754023893,0.3,1.0,1.0,435.0,642.0,1.0,1,363.0,1
1270,1270,0.5330494441467838,0.5,1.0,1.0,446.0,863.0,1.0,1,401.0,1
1271,1271,-0.7367459198251012,-0.7,0.0,1.0,272.0,873.0,1.0,0,75.0,1
1272,1272,-0.00652236783113791,-0.0,0.0,1.0,342.0,763.0,1.0,0,235.0,1
1273,1273,0.12513458970743574,0.1,0.0,0.0,334.0,861.0,1.0,0,705.0,0
1274,1274,0.12665375692879943,0.1,1.0,1.0,252.0,534.0,1.0,1,914.0,1
1275,1275,0.6875118334365516,0.7,1.0,1.0,269.0,507.0,1.0,1,524.0,1
1276,1276,0.22654211861490203,0.2,0.0,0.0,453.0,639.0,0.0,1,988.0,1
1277,1277,-0.8987745911690569,-0.9,1.0,0.0,453.0,702.0,0.0,0,355.0,1
1278,1278,0.857968464203874,0.9,0.0,0.0,413.0,647.0,0.0,1,310.0,1
1279,1279,0.32183940518754894,0.3,0.0,0.0,271.0,777.0,0.0,1,1642.0,1
1280,1280,-0.5580385180620608,-0.6,0.0,1.0,430.0,619.0,1.0,0,231.0,1
1281,1281,-0.20067365709043972,-0.2,1.0,0.0,311.0,976.0,1.0,1,-147.0,0
1282,1282,0.5991744643583982,0.6,1.0,1.0,357.0,900.0,1.0,1,-77.0,1
1283,1283,-0.02819028279001279,-0.0,1.0,0.0,273.0,615.0,1.0,1,1212.0,0
1284,1284,0.42728181867958315,0.4,0.0,0.0,260.0,668.0,0.0,1,472.0,1
1285,1285,0.7858548800537376,0.8,0.0,0.0,465.0,533.0,0.0,1,542.0,1
1286,1286,-0.6766206107326302,-0.7,0.0,1.0,284.0,820.0,1.0,0,496.0,1
1287,1287,-0.21552293433360115,-0.2,1.0,0.0,418.0,514.0,1.0,1,538.0,0
1288,1288,-0.5515832070353155,-0.6,1.0,0.0,461.0,691.0,1.0,1,318.0,0
1289,1289,0.36664476517637434,0.4,0.0,0.0,409.0,618.0,0.0,1,593.0,1
1290,1290,-0.25572951946404265,-0.3,0.0,1.0,487.0,623.0,1.0,0,550.0,1
1291,1291,0.36833556247675914,0.4,0.0,0.0,485.0,718.0,0.0,1,787.0,1
1292,1292,0.5499133412602516,0.5,0.0,0.0,454.0,865.0,0.0,1,521.0,1
1293,1293,-0.6626566889845849,-0.7,0.0,1.0,391.0,604.0,1.0,0,275.0,1
1294,1294,-0.2529863107497302,-0.3,1.0,0.0,311.0,869.0,1.0,1,1440.0,0
1295,1295,-0.036405035120843365,-0.0,0.0,1.0,370.0,696.0,1.0,0,184.0,1
1296,1296,-0.34130353985106854,-0.3,0.0,1.0,379.0,918.0,1.0,0,333.0,1
1297,1297,0.11239820021440161,0.1,0.0,0.0,275.0,843.0,1.0,0,672.0,0
1298,1298,0.04806308481712962,0.0,0.0,0.0,457.0,840.0,1.0,0,-87.0,0
1299,1299,-0.407794397860854,-0.4,1.0,0.0,487.0,884.0,0.0,0,529.0,1
1300,1300,0.33611487098845283,0.3,1.0,1.0,333.0,825.0,1.0,1,252.0,1
1301,1301,-0.27400923434410585,-0.3,0.0,1.0,289.0,638.0,1.0,0,223.0,1
1302,1302,-0.26504427534966657,-0.3,0.0,1.0,374.0,637.0,1.0,0,359.0,1
1303,1303,-0.2417271624419398,-0.2,0.0,1.0,458.0,508.0,1.0,0,354.0,1
1304,1304,-0.6685569597578858,-0.7,0.0,1.0,393.0,910.0,1.0,0,177.0,1
1305,1305,0.8060641276519193,0.8,1.0,1.0,422.0,966.0,1.0,1,252.0,1
1306,1306,-0.3225990541450737,-0.3,1.0,0.0,459.0,955.0,0.0,0,306.0,1
1307,1307,-0.8234577011017082,-0.8,0.0,1.0,391.0,551.0,1.0,0,648.0,1
1308,1308,-0.5003018924018539,-0.5,0.0,1.0,402.0,625.0,1.0,0,523.0,1
1309,1309,-0.18771105741272187,-0.2,1.0,0.0,443.0,645.0,1.0,1,1452.0,0
1310,1310,-0.655784951203808,-0.7,1.0,0.0,317.0,522.0,0.0,0,701.0,1
1311,1311,-0.7397528161542959,-0.7,1.0,0.0,434.0,667.0,0.0,0,859.0,1
1312,1312,-0.8363215290762164,-0.8,1.0,0.0,406.0,757.0,1.0,1,507.0,0
1313,1313,0.5457802349250761,0.5,1.0,1.0,276.0,793.0,0.0,0,361.0,0
1314,1314,-0.021911344491941653,-0.0,1.0,0.0,392.0,769.0,1.0,1,649.0,0
1315,1315,0.07406159312444971,0.1,1.0,1.0,499.0,758.0,1.0,1,923.0,1
1316,1316,-0.11143888584859074,-0.1,1.0,0.0,415.0,864.0,1.0,1,191.0,0
1317,1317,-0.4617764936718107,-0.5,0.0,1.0,403.0,500.0,1.0,0,507.0,1
1318,1318,-0.026891856201110564,-0.0,1.0,0.0,317.0,861.0,1.0,1,902.0,0
1319,1319,-0.6399472407230573,-0.6,1.0,0.0,436.0,825.0,1.0,1,149.0,0
1320,1320,-0.3743451854115525,-0.4,0.0,1.0,377.0,765.0,1.0,0,938.0,1
1321,1321,0.3686525100312007,0.4,0.0,0.0,314.0,513.0,0.0,1,603.0,1
1322,1322,-0.40877388696612704,-0.4,0.0,1.0,267.0,695.0,1.0,0,698.0,1
1323,1323,-0.716502639773769,-0.7,0.0,1.0,497.0,757.0,0.0,1,56.0,0
1324,1324,-0.39316498602999206,-0.4,1.0,0.0,425.0,567.0,0.0,0,1028.0,1
1325,1325,0.38483161984562,0.4,0.0,0.0,467.0,786.0,1.0,0,567.0,0
1326,1326,-0.10694507271346387,-0.1,1.0,0.0,398.0,781.0,0.0,0,481.0,1
1327,1327,-0.3033567793819817,-0.3,1.0,0.0,469.0,687.0,1.0,1,824.0,0
1328,1328,0.7649432957520855,0.8,1.0,1.0,436.0,656.0,1.0,1,408.0,1
1329,1329,-0.6599441626733473,-0.7,0.0,1.0,296.0,660.0,1.0,0,254.0,1
1330,1330,0.09519400522412291,0.1,1.0,1.0,343.0,683.0,1.0,1,374.0,1
1331,1331,0.25593061153090646,0.3,1.0,1.0,333.0,814.0,1.0,1,183.0,1
1332,1332,-0.5267375257871008,-0.5,0.0,1.0,366.0,939.0,1.0,0,-15.0,1
1333,1333,0.6087372881124548,0.6,0.0,0.0,265.0,676.0,0.0,1,679.0,1
1334,1334,-0.33239344593353026,-0.3,0.0,1.0,346.0,724.0,1.0,0,130.0,1
1335,1335,0.21627025009469103,0.2,1.0,1.0,297.0,902.0,0.0,0,21.0,0
1336,1336,0.15747147615035428,0.2,0.0,0.0,272.0,567.0,0.0,1,2311.0,1
1337,1337,0.4204768003877294,0.4,1.0,1.0,297.0,769.0,1.0,1,304.0,1
1338,1338,0.610742235081151,0.6,1.0,1.0,470.0,785.0,1.0,1,225.0,1
1339,1339,-0.6917400143242487,-0.7,0.0,1.0,471.0,683.0,1.0,0,376.0,1
1340,1340,-0.7580161967422547,-0.8,0.0,1.0,407.0,614.0,1.0,0,199.0,1
1341,1341,0.42728429684794433,0.4,1.0,1.0,442.0,825.0,1.0,1,163.0,1
1342,1342,-0.12091636469643263,-0.1,1.0,0.0,495.0,858.0,0.0,0,257.0,1
1343,1343,-0.42453664292681625,-0.4,0.0,1.0,454.0,865.0,1.0,0,61.0,1
1344,1344,-0.20959895437674902,-0.2,0.0,1.0,403.0,862.0,1.0,0,65.0,1
1345,1345,0.5068330820801282,0.5,0.0,0.0,305.0,549.0,0.0,1,766.0,1
1346,1346,0.4745903199140772,0.5,0.0,0.0,355.0,543.0,0.0,1,402.0,1
1347,1347,-0.16304383669137634,-0.2,0.0,1.0,358.0,869.0,1.0,0,373.0,1
1348,1348,0.393237635253714,0.4,0.0,0.0,371.0,600.0,1.0,0,289.0,0
1349,1349,0.3058846446608735,0.3,0.0,0.0,261.0,923.0,1.0,0,-114.0,0
1350,1350,0.006711076571480956,0.0,1.0,1.0,382.0,704.0,0.0,0,1004.0,0
1351,1351,-0.2756183506638944,-0.3,1.0,0.0,447.0,562.0,0.0,0,871.0,1
1352,1352,-0.350794217115482,-0.4,0.0,1.0,343.0,807.0,1.0,0,-10.0,1
1353,1353,0.13063715363287243,0.1,0.0,0.0,310.0,820.0,0.0,1,580.0,1
1354,1354,-0.8170408773513749,-0.8,0.0,1.0,340.0,593.0,1.0,0,357.0,1
1355,1355,0.1876872099166783,0.2,0.0,0.0,335.0,968.0,0.0,1,407.0,1
1356,1356,-0.757458989478154,-0.8,0.0,1.0,361.0,672.0,1.0,0,407.0,1
1357,1357,-0.03417143681100798,-0.0,1.0,0.0,350.0,777.0,0.0,0,363.0,1
1358,1358,0.006746572110353677,0.0,1.0,1.0,400.0,659.0,0.0,0,581.0,0
1359,1359,-0.630113663771279,-0.6,0.0,1.0,306.0,749.0,1.0,0,245.0,1
1360,1360,-0.8405924657068446,-0.8,1.0,0.0,309.0,549.0,0.0,0,262.0,1
1361,1361,0.3795017645838449,0.4,0.0,0.0,410.0,745.0,1.0,0,965.0,0
1362,1362,-0.7590218955600212,-0.8,1.0,0.0,451.0,762.0,0.0,0,287.0,1
1363,1363,-0.3187419628812119,-0.3,1.0,0.0,370.0,718.0,0.0,0,272.0,1
1364,1364,0.376244185432809,0.4,1.0,1.0,486.0,670.0,1.0,1,264.0,1
1365,1365,0.22420734201682235,0.2,0.0,0.0,303.0,726.0,1.0,0,471.0,0
1366,1366,0.30427271778844334,0.3,0.0,0.0,328.0,758.0,0.0,1,234.0,1
1367,1367,-0.1724908175868647,-0.2,0.0,1.0,494.0,597.0,1.0,0,239.0,1
1368,1368,-0.3407170770861432,-0.3,1.0,0.0,434.0,664.0,0.0,0,342.0,1
1369,1369,-0.6204045160389449,-0.6,0.0,1.0,363.0,726.0,1.0,0,721.0,1
1370,1370,-0.15982585458959442,-0.2,0.0,1.0,257.0,930.0,1.0,0,23.0,1
1371,1371,-0.0884101098266854,-0.1,1.0,0.0,480.0,512.0,1.0,1,408.0,0
1372,1372,-0.3846485416447518,-0.4,1.0,0.0,345.0,920.0,0.0,0,745.0,1
1373,1373,-0.4824194153620553,-0.5,0.0,1.0,497.0,576.0,1.0,0,537.0,1
1374,1374,-0.42321707390246077,-0.4,1.0,0.0,428.0,667.0,0.0,0,615.0,1
1375,1375,-0.47597632012220187,-0.5,0.0,1.0,414.0,699.0,1.0,0,117.0,1
1376,1376,-0.8429257154692562,-0.8,1.0,0.0,270.0,670.0,0.0,0,310.0,1
1377,1377,0.7684792074737655,0.8,1.0,1.0,310.0,722.0,1.0,1,218.0,1
1378,1378,-0.046591719846223456,-0.0,0.0,1.0,389.0,600.0,1.0,0,161.0,1
1379,1379,0.6083185677779962,0.6,1.0,1.0,307.0,687.0,1.0,1,576.0,1
1380,1380,-0.898159956412359,-0.9,0.0,1.0,364.0,645.0,1.0,0,241.0,1
1381,1381,-0.21163999504029474,-0.2,1.0,0.0,256.0,841.0,1.0,1,303.0,0
1382,1382,-0.35987690224903335,-0.4,0.0,1.0,294.0,559.0,1.0,0,647.0,1
1383,1383,0.6527575059103824,0.7,0.0,0.0,431.0,898.0,0.0,1,371.0,1
1384,1384,-0.04869131029943774,-0.0,0.0,1.0,335.0,709.0,1.0,0,56.0,1
1385,1385,-0.6342790566606216,-0.6,1.0,0.0,408.0,861.0,0.0,0,251.0,1
1386,1386,0.0029539088544924264,0.0,0.0,0.0,281.0,869.0,1.0,0,200.0,0
1387,1387,-0.8875795314418309,-0.9,0.0,1.0,442.0,551.0,1.0,0,387.0,1
1388,1388,-0.7593162683681156,-0.8,0.0,1.0,459.0,747.0,1.0,0,194.0,1
1389,1389,0.02503575584955564,0.0,1.0,1.0,272.0,796.0,1.0,1,662.0,1
1390,1390,0.021690046029725685,0.0,1.0,1.0,436.0,587.0,1.0,1,507.0,1
1391,1391,0.6938256152349412,0.7,0.0,0.0,314.0,547.0,0.0,1,499.0,1
1392,1392,0.10296527098845287,0.1,1.0,1.0,478.0,533.0,1.0,1,399.0,1
1393,1393,0.11265191376267747,0.1,1.0,1.0,386.0,834.0,1.0,1,-80.0,1
1394,1394,0.5542507750803866,0.6,0.0,0.0,335.0,626.0,0.0,1,1139.0,1
1395,1395,-0.726130340892864,-0.7,0.0,1.0,310.0,953.0,1.0,0,157.0,1
1396,1396,0.4590217342618669,0.5,1.0,1.0,467.0,585.0,1.0,1,408.0,1
1397,1397,-0.79930664708276,-0.8,0.0,1.0,456.0,935.0,1.0,0,-81.0,1
1398,1398,0.10871022342970649,0.1,0.0,0.0,317.0,974.0,0.0,1,29.0,1
1399,1399,0.27489363613514406,0.3,1.0,1.0,413.0,758.0,1.0,1,159.0,1
1400,1400,0.21428340807417323,0.2,0.0,0.0,274.0,737.0,0.0,1,199.0,1
1401,1401,-0.09599141705427083,-0.1,0.0,1.0,489.0,755.0,0.0,1,616.0,0
1402,1402,0.8667069707508993,0.9,1.0,1.0,420.0,896.0,1.0,1,124.0,1
1403,1403,-0.29177602895509336,-0.3,1.0,0.0,345.0,639.0,0.0,0,1786.0,1
1404,1404,-0.05943869875281216,-0.1,0.0,1.0,420.0,673.0,1.0,0,197.0,1
1405,1405,-0.04766162173910604,-0.0,1.0,0.0,347.0,723.0,1.0,1,400.0,0
1406,1406,-0.4479812019503992,-0.4,0.0,1.0,352.0,924.0,1.0,0,14.0,1
1407,1407,0.1962852063099182,0.2,0.0,0.0,480.0,811.0,0.0,1,559.0,1
1408,1408,0.16821108362769965,0.2,0.0,0.0,454.0,904.0,1.0,0,82.0,0
1409,1409,-0.29197268162709367,-0.3,0.0,1.0,309.0,634.0,1.0,0,447.0,1
1410,1410,0.39257950202442415,0.4,0.0,0.0,380.0,742.0,0.0,1,118.0,1
1411,1411,0.13654295517256954,0.1,1.0,1.0,428.0,815.0,1.0,1,217.0,1
1412,1412,-0.3324189509377542,-0.3,0.0,1.0,459.0,610.0,1.0,0,241.0,1
1413,1413,-0.142235778728092,-0.1,1.0,0.0,494.0,637.0,0.0,0,599.0,1
1414,1414,0.04019074194100514,0.0,0.0,0.0,379.0,791.0,1.0,0,440.0,0
1415,1415,0.4657518410215037,0.5,0.0,0.0,305.0,915.0,0.0,1,440.0,1
1416,1416,0.17769730271978823,0.2,0.0,0.0,350.0,998.0,0.0,1,332.0,1
1417,1417,-0.3192259740272463,-0.3,0.0,1.0,489.0,949.0,1.0,0,252.0,1
1418,1418,0.8501631667543391,0.9,0.0,0.0,316.0,541.0,0.0,1,543.0,1
1419,1419,0.8358448506262622,0.8,0.0,0.0,339.0,587.0,0.0,1,414.0,1
1420,1420,0.19914787910958254,0.2,0.0,0.0,454.0,731.0,0.0,1,1035.0,1
1421,1421,-0.019602579355220695,-0.0,1.0,0.0,325.0,573.0,1.0,1,522.0,0
1422,1422,-0.17000891691910214,-0.2,0.0,1.0,250.0,520.0,1.0,0,380.0,1
1423,1423,0.12482364357180076,0.1,0.0,0.0,444.0,669.0,1.0,0,387.0,0
1424,1424,-0.4968510683936711,-0.5,1.0,0.0,280.0,842.0,0.0,0,158.0,1
1425,1425,0.24679047642019392,0.2,1.0,1.0,497.0,818.0,1.0,1,285.0,1
1426,1426,0.2948171132408822,0.3,0.0,0.0,436.0,773.0,0.0,1,341.0,1
1427,1427,0.2008983217844208,0.2,0.0,0.0,444.0,555.0,1.0,0,411.0,0
1428,1428,-0.4437155195913861,-0.4,0.0,1.0,339.0,724.0,1.0,0,67.0,1
1429,1429,-0.2309318948466237,-0.2,1.0,0.0,419.0,657.0,0.0,0,514.0,1
1430,1430,0.1739335525864415,0.2,0.0,0.0,456.0,757.0,1.0,0,187.0,0
1431,1431,-0.8424647057604556,-0.8,1.0,0.0,459.0,989.0,1.0,1,2.0,0
1432,1432,0.23199012258376783,0.2,0.0,0.0,401.0,894.0,0.0,1,185.0,1
1433,1433,0.07712400880313885,0.1,1.0,1.0,367.0,805.0,1.0,1,468.0,1
1434,1434,0.26084644798740075,0.3,1.0,1.0,485.0,880.0,1.0,1,65.0,1
1435,1435,-0.3180127947894483,-0.3,1.0,0.0,380.0,720.0,1.0,1,810.0,0
1436,1436,-0.5689632679186785,-0.6,0.0,1.0,455.0,652.0,1.0,0,453.0,1
1437,1437,-0.13524444379510814,-0.1,1.0,0.0,352.0,546.0,1.0,1,302.0,0
1438,1438,-0.2809426510850155,-0.3,0.0,1.0,383.0,637.0,1.0,0,530.0,1
1439,1439,0.4635145325577784,0.5,0.0,0.0,259.0,581.0,0.0,1,1070.0,1
1440,1440,-0.0471825193087535,-0.0,0.0,1.0,449.0,916.0,1.0,0,25.0,1
1441,1441,-0.010131731754849937,-0.0,1.0,0.0,339.0,869.0,1.0,1,52.0,0
1442,1442,-0.796021022906286,-0.8,0.0,1.0,485.0,978.0,1.0,0,37.0,1
1443,1443,-0.5816798947845234,-0.6,0.0,1.0,259.0,933.0,1.0,0,138.0,1
1444,1444,0.6850816943543466,0.7,0.0,0.0,405.0,716.0,1.0,0,59.0,0
1445,1445,-0.43370020311216223,-0.4,0.0,1.0,422.0,696.0,1.0,0,732.0,1
1446,1446,-0.63900741562824,-0.6,0.0,1.0,301.0,650.0,1.0,0,309.0,1
1447,1447,0.5408966076792215,0.5,0.0,0.0,321.0,791.0,1.0,0,88.0,0
1448,1448,0.5054323148090164,0.5,1.0,1.0,460.0,864.0,1.0,1,56.0,1
1449,1449,-0.12626003549761422,-0.1,1.0,0.0,400.0,826.0,1.0,1,314.0,0
1450,1450,-0.07344252894032388,-0.1,1.0,0.0,486.0,818.0,1.0,1,1376.0,0
1451,1451,0.25673971008928487,0.3,0.0,0.0,391.0,866.0,1.0,0,-157.0,0
1452,1452,-0.045067852057163904,-0.0,1.0,0.0,252.0,579.0,0.0,0,1049.0,1
1453,1453,0.7606724142499636,0.8,0.0,0.0,378.0,820.0,0.0,1,182.0,1
1454,1454,-0.2694215332889782,-0.3,1.0,0.0,494.0,893.0,0.0,0,193.0,1
1455,1455,0.3256878775742248,0.3,1.0,1.0,441.0,633.0,1.0,1,376.0,1
1456,1456,-0.6436792974969721,-0.6,0.0,1.0,431.0,693.0,1.0,0,216.0,1
1457,1457,-0.021324219344984963,-0.0,1.0,0.0,357.0,747.0,1.0,1,906.0,0
1458,1458,0.07352047099057202,0.1,1.0,1.0,408.0,904.0,1.0,1,408.0,1
1459,1459,-0.7940469906547601,-0.8,1.0,0.0,419.0,567.0,0.0,0,364.0,1
1460,1460,0.5259904685981757,0.5,0.0,0.0,272.0,500.0,0.0,1,738.0,1
1461,1461,0.30070469618561,0.3,1.0,1.0,314.0,648.0,1.0,1,578.0,1
1462,1462,-0.41328365018657887,-0.4,1.0,0.0,257.0,912.0,0.0,0,431.0,1
1463,1463,0.29823339971504914,0.3,1.0,1.0,370.0,935.0,1.0,1,-55.0,1
1464,1464,-0.21958476859436005,-0.2,1.0,0.0,439.0,920.0,1.0,1,1.0,0
1465,1465,0.8912425184053775,0.9,0.0,0.0,325.0,675.0,0.0,1,330.0,1
1466,1466,-0.79375466089243,-0.8,0.0,1.0,438.0,791.0,1.0,0,-39.0,1
1467,1467,0.5555601932441302,0.6,1.0,1.0,386.0,585.0,1.0,1,349.0,1
1468,1468,-0.35317444481336346,-0.4,0.0,1.0,444.0,794.0,1.0,0,252.0,1
1469,1469,-0.47205006033767766,-0.5,1.0,0.0,273.0,769.0,0.0,0,348.0,1
1470,1470,-0.39678320974149106,-0.4,0.0,1.0,285.0,742.0,1.0,0,293.0,1
1471,1471,-0.010141410016334396,-0.0,0.0,1.0,498.0,834.0,0.0,1,688.0,0
1472,1472,-0.001119976046721538,-0.0,1.0,0.0,409.0,651.0,1.0,1,530.0,0
1473,1473,0.39301786471977873,0.4,1.0,1.0,361.0,862.0,1.0,1,277.0,1
1474,1474,0.2711304188644582,0.3,0.0,0.0,251.0,662.0,0.0,1,207.0,1
1475,1475,0.1177913087363639,0.1,1.0,1.0,297.0,685.0,1.0,1,288.0,1
1476,1476,-0.6741332588199853,-0.7,1.0,0.0,304.0,536.0,0.0,0,560.0,1
1477,1477,-0.07346842581922897,-0.1,0.0,1.0,364.0,869.0,1.0,0,17.0,1
1478,1478,0.45509982763212153,0.5,1.0,1.0,405.0,790.0,1.0,1,135.0,1
1479,1479,0.8466773603530372,0.8,1.0,1.0,425.0,894.0,0.0,0,-9.0,0
1480,1480,0.6273112558364474,0.6,0.0,0.0,340.0,801.0,0.0,1,179.0,1
1481,1481,0.37368089073644806,0.4,1.0,1.0,275.0,918.0,1.0,1,147.0,1
1482,1482,0.05191227891961381,0.1,0.0,0.0,338.0,836.0,1.0,0,76.0,0
1483,1483,0.6009366992183901,0.6,1.0,1.0,299.0,948.0,1.0,1,293.0,1
1484,1484,-0.10918243485318246,-0.1,0.0,1.0,437.0,737.0,1.0,0,276.0,1
1485,1485,-0.28912028346583196,-0.3,1.0,0.0,404.0,641.0,0.0,0,915.0,1
1486,1486,0.6596385359780265,0.7,1.0,1.0,337.0,869.0,1.0,1,34.0,1
1487,1487,0.1385457536891338,0.1,1.0,1.0,325.0,514.0,0.0,0,1011.0,0
1488,1488,0.01560696422379837,0.0,0.0,0.0,443.0,813.0,0.0,1,1634.0,1
1489,1489,-0.30883409706946796,-0.3,0.0,1.0,401.0,541.0,1.0,0,178.0,1
1490,1490,-0.6924062505032984,-0.7,1.0,0.0,325.0,750.0,0.0,0,245.0,1
1491,1491,0.36412834262091354,0.4,0.0,0.0,413.0,851.0,0.0,1,626.0,1
1492,1492,-0.07907904440351077,-0.1,0.0,1.0,499.0,639.0,1.0,0,742.0,1
1493,1493,-0.8088812714009207,-0.8,0.0,1.0,270.0,698.0,1.0,0,302.0,1
1494,1494,-0.8729874865782637,-0.9,1.0,0.0,308.0,968.0,0.0,0,314.0,1
