,trial,coherence,coherence_bin,green_side,correct_side,target_onset,checker_onset,decision,green_decision,decision_time,correct_decision
0,0,0.20992788253927774,0.2,0.0,0.0,482.0,627.0,1.0,0,2141.0,0
1,1,-0.6686267701184143,-0.7,1.0,0.0,293.0,574.0,0.0,0,863.0,1
2,2,-0.8026199418043025,-0.8,1.0,0.0,301.0,578.0,0.0,0,771.0,1
3,3,0.8866901408354934,0.9,0.0,0.0,485.0,900.0,1.0,0,15.0,0
4,4,0.21083377487653088,0.2,0.0,0.0,361.0,773.0,0.0,1,946.0,1
5,5,-0.27770455087381807,-0.3,0.0,1.0,257.0,643.0,1.0,0,170.0,1
6,6,0.2922989507879489,0.3,1.0,1.0,356.0,763.0,0.0,0,451.0,0
7,7,-0.4529697654677826,-0.5,1.0,0.0,401.0,854.0,0.0,0,375.0,1
8,8,-0.43730416075140616,-0.4,0.0,1.0,443.0,848.0,1.0,0,289.0,1
9,9,0.7051955337669354,0.7,0.0,0.0,384.0,743.0,0.0,1,583.0,1
10,10,-0.014814507891163231,-0.0,0.0,1.0,425.0,889.0,1.0,0,516.0,1
11,11,-0.6803710963191495,-0.7,0.0,1.0,422.0,699.0,1.0,0,799.0,1
12,12,-0.2655169727161827,-0.3,0.0,1.0,416.0,897.0,1.0,0,227.0,1
13,13,-0.3914165522991909,-0.4,0.0,1.0,284.0,664.0,1.0,0,222.0,1
14,14,-0.1838126506203921,-0.2,0.0,1.0,314.0,906.0,1.0,0,190.0,1
15,15,-0.5438628530023224,-0.5,0.0,1.0,399.0,734.0,1.0,0,67.0,1
16,16,-0.39497788137753065,-0.4,0.0,1.0,258.0,855.0,1.0,0,-13.0,1
17,17,-0.6010525839446188,-0.6,1.0,0.0,374.0,822.0,0.0,0,344.0,1
18,18,-0.8603380495272333,-0.9,1.0,0.0,290.0,990.0,0.0,0,200.0,1
19,19,0.6450516956067044,0.6,1.0,1.0,455.0,807.0,1.0,1,438.0,1
20,20,0.3741856220423051,0.4,0.0,0.0,260.0,545.0,0.0,1,815.0,1
21,21,-0.26294016830534417,-0.3,0.0,1.0,396.0,639.0,1.0,0,625.0,1
22,22,0.6571761882304467,0.7,0.0,0.0,420.0,664.0,0.0,1,436.0,1
23,23,0.4649461087678991,0.5,0.0,0.0,286.0,976.0,0.0,1,278.0,1
24,24,-0.09480063312776932,-0.1,0.0,1.0,463.0,742.0,1.0,0,495.0,1
25,25,0.09474482436238219,0.1,1.0,1.0,333.0,552.0,1.0,1,515.0,1
26,26,0.7497461301629239,0.7,1.0,1.0,387.0,526.0,1.0,1,447.0,1
27,27,-0.8847498852625237,-0.9,0.0,1.0,370.0,966.0,1.0,0,24.0,1
28,28,0.620600706147865,0.6,1.0,1.0,415.0,525.0,1.0,1,550.0,1
29,29,-0.16229024316347296,-0.2,1.0,0.0,332.0,976.0,1.0,1,292.0,0
30,30,-0.27643049067362857,-0.3,1.0,0.0,260.0,965.0,0.0,0,555.0,1
31,31,-0.4293067494519922,-0.4,1.0,0.0,405.0,527.0,0.0,0,498.0,1
32,32,-0.7180627591608018,-0.7,0.0,1.0,272.0,543.0,1.0,0,445.0,1
33,33,-0.6045586949156778,-0.6,0.0,1.0,360.0,698.0,1.0,0,352.0,1
34,34,0.39393073515907295,0.4,1.0,1.0,450.0,882.0,1.0,1,108.0,1
35,35,-0.6131854454468347,-0.6,0.0,1.0,446.0,730.0,1.0,0,654.0,1
36,36,-0.6155436627970007,-0.6,1.0,0.0,417.0,603.0,0.0,0,340.0,1
37,37,-0.45361228977496953,-0.5,0.0,1.0,268.0,566.0,1.0,0,366.0,1
38,38,-0.4512115478842763,-0.5,1.0,0.0,336.0,697.0,0.0,0,397.0,1
39,39,0.8747996285311223,0.9,1.0,1.0,367.0,872.0,1.0,1,141.0,1
40,40,0.20820288476729976,0.2,1.0,1.0,338.0,761.0,1.0,1,401.0,1
41,41,-0.26727286649784243,-0.3,0.0,1.0,474.0,987.0,1.0,0,529.0,1
42,42,-0.11420712446379822,-0.1,1.0,0.0,385.0,811.0,0.0,0,294.0,1
43,43,-0.5049155633356401,-0.5,1.0,0.0,495.0,980.0,1.0,1,-75.0,0
44,44,0.41458240206327013,0.4,1.0,1.0,253.0,638.0,1.0,1,699.0,1
45,45,-0.043065310834999315,-0.0,1.0,0.0,475.0,831.0,1.0,1,344.0,0
46,46,-0.2587141183957141,-0.3,1.0,0.0,297.0,930.0,1.0,1,243.0,0
47,47,-0.01422873605088637,-0.0,1.0,0.0,496.0,810.0,0.0,0,434.0,1
48,48,0.3249867513483332,0.3,0.0,0.0,315.0,539.0,1.0,0,1426.0,0
49,49,0.8432934581030084,0.8,1.0,1.0,402.0,651.0,1.0,1,367.0,1
50,50,0.16191044674018673,0.2,0.0,0.0,493.0,743.0,0.0,1,134.0,1
51,51,-0.8732079733498657,-0.9,1.0,0.0,305.0,668.0,0.0,0,427.0,1
52,52,0.05325248383468206,0.1,0.0,0.0,289.0,985.0,0.0,1,506.0,1
53,53,0.5827836694297354,0.6,0.0,0.0,338.0,976.0,0.0,1,16.0,1
54,54,-0.7286147897592246,-0.7,1.0,0.0,404.0,978.0,0.0,0,388.0,1
55,55,-0.4450830918228931,-0.4,1.0,0.0,403.0,687.0,0.0,0,400.0,1
56,56,-0.2965836631369331,-0.3,0.0,1.0,281.0,542.0,0.0,1,1067.0,0
57,57,-0.3048086951986715,-0.3,1.0,0.0,271.0,778.0,0.0,0,351.0,1
58,58,0.40173228953216455,0.4,0.0,0.0,413.0,634.0,0.0,1,583.0,1
59,59,0.10551672687924352,0.1,0.0,0.0,481.0,836.0,1.0,0,793.0,0
60,60,0.7155065492168265,0.7,0.0,0.0,384.0,923.0,0.0,1,1073.0,1
61,61,-0.5748881286456884,-0.6,1.0,0.0,274.0,744.0,0.0,0,472.0,1
62,62,-0.7546938414189774,-0.8,0.0,1.0,262.0,792.0,1.0,0,66.0,1
63,63,0.20901888615313735,0.2,0.0,0.0,282.0,560.0,1.0,0,728.0,0
64,64,0.6727820592696364,0.7,0.0,0.0,281.0,958.0,0.0,1,321.0,1
65,65,-0.2323353030169526,-0.2,1.0,0.0,416.0,925.0,0.0,0,339.0,1
66,66,-0.1853146604770225,-0.2,0.0,1.0,375.0,516.0,1.0,0,849.0,1
67,67,0.6601237802906975,0.7,0.0,0.0,497.0,643.0,0.0,1,280.0,1
68,68,0.8277037547734144,0.8,1.0,1.0,263.0,692.0,1.0,1,265.0,1
69,69,-0.03612379873704019,-0.0,1.0,0.0,427.0,543.0,1.0,1,960.0,0
70,70,0.7656023793089705,0.8,1.0,1.0,493.0,786.0,1.0,1,141.0,1
71,71,-0.5198312202761732,-0.5,1.0,0.0,400.0,816.0,0.0,0,594.0,1
72,72,-0.4687143905639119,-0.5,1.0,0.0,266.0,880.0,1.0,1,104.0,0
73,73,-0.829346656868682,-0.8,1.0,0.0,392.0,720.0,0.0,0,388.0,1
74,74,-0.5246038255756488,-0.5,0.0,1.0,298.0,851.0,1.0,0,321.0,1
75,75,0.30725049473318566,0.3,1.0,1.0,337.0,527.0,1.0,1,1126.0,1
76,76,-0.7062753938583028,-0.7,1.0,0.0,437.0,646.0,0.0,0,537.0,1
77,77,0.8749465192371518,0.9,0.0,0.0,376.0,960.0,1.0,0,-146.0,0
78,78,0.8349088218838211,0.8,0.0,0.0,291.0,501.0,0.0,1,498.0,1
79,79,-0.07237592742127852,-0.1,1.0,0.0,358.0,586.0,0.0,0,886.0,1
80,80,-0.6499312516055413,-0.6,0.0,1.0,383.0,618.0,1.0,0,269.0,1
81,81,0.0812933027158822,0.1,0.0,0.0,499.0,759.0,1.0,0,812.0,0
82,82,-0.7867425439555057,-0.8,1.0,0.0,453.0,601.0,0.0,0,446.0,1
83,83,0.5577353088005429,0.6,1.0,1.0,324.0,718.0,1.0,1,408.0,1
84,84,-0.28750414591001905,-0.3,1.0,0.0,408.0,883.0,0.0,0,489.0,1
85,85,0.6565182327020561,0.7,0.0,0.0,356.0,861.0,0.0,1,673.0,1
86,86,-0.3270127268785612,-0.3,0.0,1.0,476.0,587.0,1.0,0,417.0,1
87,87,0.5392177430373187,0.5,0.0,0.0,401.0,776.0,0.0,1,473.0,1
88,88,-0.37851624895538827,-0.4,0.0,1.0,386.0,630.0,1.0,0,324.0,1
89,89,0.6073721823965529,0.6,0.0,0.0,346.0,644.0,0.0,1,500.0,1
90,90,0.2631534554696894,0.3,1.0,1.0,259.0,608.0,1.0,1,613.0,1
91,91,-0.5646149505706695,-0.6,1.0,0.0,323.0,541.0,0.0,0,586.0,1
92,92,-0.6046809141011233,-0.6,0.0,1.0,441.0,698.0,1.0,0,441.0,1
93,93,0.18381132212881368,0.2,1.0,1.0,479.0,962.0,1.0,1,-111.0,1
94,94,0.0003399299447658377,0.0,1.0,1.0,333.0,764.0,1.0,1,753.0,1
95,95,0.16156818061936928,0.2,0.0,0.0,279.0,724.0,0.0,1,807.0,1
96,96,0.4345111982092732,0.4,1.0,1.0,251.0,937.0,1.0,1,262.0,1
97,97,-0.013763932068739604,-0.0,1.0,0.0,336.0,731.0,1.0,1,363.0,0
98,98,0.4223311444550474,0.4,0.0,0.0,392.0,900.0,0.0,1,438.0,1
99,99,-0.6538500331563206,-0.7,1.0,0.0,430.0,512.0,0.0,0,268.0,1
100,100,-0.1879906380879668,-0.2,0.0,1.0,253.0,635.0,1.0,0,282.0,1
101,101,-0.10816068979518312,-0.1,0.0,1.0,338.0,687.0,1.0,0,515.0,1
102,102,0.010315795997177246,0.0,0.0,0.0,425.0,904.0,0.0,1,251.0,1
103,103,-0.5092765847515346,-0.5,0.0,1.0,258.0,889.0,1.0,0,63.0,1
104,104,-0.5367069501726236,-0.5,1.0,0.0,297.0,584.0,0.0,0,359.0,1
105,105,0.23883629059170286,0.2,1.0,1.0,316.0,567.0,1.0,1,337.0,1
106,106,0.6225665340004066,0.6,0.0,0.0,462.0,848.0,0.0,1,590.0,1
107,107,-0.3856310732583933,-0.4,0.0,1.0,325.0,537.0,1.0,0,528.0,1
108,108,-0.435335842428524,-0.4,1.0,0.0,334.0,697.0,0.0,0,579.0,1
109,109,-0.42085079100445805,-0.4,0.0,1.0,380.0,861.0,1.0,0,69.0,1
110,110,-0.6726152125985714,-0.7,1.0,0.0,463.0,945.0,0.0,0,272.0,1
111,111,0.09763839635176874,0.1,0.0,0.0,300.0,899.0,0.0,1,1441.0,1
112,112,0.07041050300812057,0.1,0.0,0.0,418.0,723.0,1.0,0,1609.0,0
113,113,-0.817181395735223,-0.8,0.0,1.0,369.0,731.0,1.0,0,170.0,1
114,114,-0.07796903107133213,-0.1,0.0,1.0,433.0,574.0,1.0,0,353.0,1
115,115,0.41312550368676726,0.4,1.0,1.0,359.0,529.0,0.0,0,772.0,0
116,116,-0.8189569189609988,-0.8,0.0,1.0,260.0,595.0,1.0,0,405.0,1
117,117,-0.5859080139717081,-0.6,0.0,1.0,341.0,678.0,1.0,0,411.0,1
118,118,0.7104628412419117,0.7,1.0,1.0,395.0,949.0,1.0,1,296.0,1
119,119,-0.8206586770587175,-0.8,1.0,0.0,316.0,550.0,0.0,0,474.0,1
120,120,0.1753797654126309,0.2,1.0,1.0,404.0,552.0,1.0,1,494.0,1
121,121,0.12331818854066035,0.1,1.0,1.0,475.0,759.0,1.0,1,276.0,1
122,122,0.09166559959850162,0.1,0.0,0.0,265.0,592.0,1.0,0,303.0,0
123,123,-0.6861559033185871,-0.7,0.0,1.0,425.0,618.0,1.0,0,407.0,1
124,124,0.42173940725997927,0.4,1.0,1.0,450.0,643.0,1.0,1,487.0,1
125,125,0.3178301838088301,0.3,0.0,0.0,364.0,653.0,0.0,1,1513.0,1
126,126,-0.04605345835011665,-0.0,1.0,0.0,428.0,829.0,0.0,0,373.0,1
127,127,-0.06089794413671146,-0.1,0.0,1.0,276.0,741.0,1.0,0,73.0,1
128,128,0.8305872550402787,0.8,0.0,0.0,337.0,601.0,0.0,1,422.0,1
129,129,-0.3259850363696788,-0.3,1.0,0.0,262.0,951.0,0.0,0,1087.0,1
130,130,-0.7506662567097846,-0.8,0.0,1.0,305.0,746.0,1.0,0,169.0,1
131,131,-0.013800706887226677,-0.0,1.0,0.0,463.0,733.0,0.0,0,574.0,1
132,132,-0.6656119098997026,-0.7,0.0,1.0,283.0,655.0,1.0,0,682.0,1
133,133,0.3730402136070726,0.4,1.0,1.0,338.0,877.0,1.0,1,435.0,1
134,134,0.8940636838748454,0.9,0.0,0.0,282.0,978.0,0.0,1,210.0,1
135,135,0.6258975484919244,0.6,0.0,0.0,363.0,898.0,1.0,0,69.0,0
136,136,-0.23439794677046089,-0.2,0.0,1.0,489.0,916.0,1.0,0,1555.0,1
137,137,0.7000146472045808,0.7,1.0,1.0,463.0,687.0,1.0,1,310.0,1
138,138,-0.8205238294095761,-0.8,0.0,1.0,483.0,933.0,1.0,0,164.0,1
139,139,0.8915782700110811,0.9,1.0,1.0,441.0,700.0,1.0,1,359.0,1
140,140,-0.6045891404979462,-0.6,1.0,0.0,434.0,836.0,0.0,0,360.0,1
141,141,-0.4138504107325024,-0.4,1.0,0.0,496.0,697.0,0.0,0,567.0,1
142,142,-0.004958241236373229,-0.0,1.0,0.0,259.0,942.0,0.0,0,379.0,1
143,143,-0.2246212668158255,-0.2,1.0,0.0,285.0,849.0,0.0,0,246.0,1
144,144,-0.6343272427453108,-0.6,1.0,0.0,424.0,996.0,0.0,0,250.0,1
145,145,-0.6873126511725116,-0.7,0.0,1.0,438.0,887.0,1.0,0,105.0,1
146,146,0.034767252605302446,0.0,0.0,0.0,484.0,949.0,1.0,0,-63.0,0
147,147,0.6138831404946733,0.6,0.0,0.0,273.0,568.0,0.0,1,859.0,1
148,148,-0.1490164872938956,-0.1,0.0,1.0,416.0,650.0,1.0,0,494.0,1
149,149,0.00999384414260518,0.0,0.0,0.0,426.0,745.0,0.0,1,839.0,1
150,150,-0.7983166793307563,-0.8,0.0,1.0,495.0,832.0,1.0,0,83.0,1
151,151,-0.5242983635216805,-0.5,0.0,1.0,264.0,655.0,1.0,0,311.0,1
152,152,0.6532749864451833,0.7,1.0,1.0,468.0,841.0,1.0,1,361.0,1
153,153,-0.20373843893334231,-0.2,0.0,1.0,414.0,709.0,1.0,0,467.0,1
154,154,0.3611118574547939,0.4,0.0,0.0,359.0,940.0,1.0,0,-19.0,0
155,155,-0.16139156923232767,-0.2,0.0,1.0,280.0,507.0,1.0,0,223.0,1
156,156,0.04843586787230081,0.0,0.0,0.0,433.0,755.0,1.0,0,2342.0,0
157,157,0.8381331784225864,0.8,1.0,1.0,259.0,782.0,1.0,1,179.0,1
158,158,-0.35627433050762936,-0.4,1.0,0.0,358.0,813.0,0.0,0,209.0,1
159,159,-0.1215670541464332,-0.1,0.0,1.0,384.0,519.0,1.0,0,847.0,1
160,160,-0.6009346468615231,-0.6,0.0,1.0,329.0,996.0,1.0,0,395.0,1
161,161,0.7447865342909646,0.7,1.0,1.0,498.0,994.0,1.0,1,248.0,1
162,162,-0.5053340591808748,-0.5,0.0,1.0,265.0,541.0,1.0,0,384.0,1
163,163,-0.799393927104467,-0.8,1.0,0.0,416.0,680.0,0.0,0,224.0,1
164,164,0.653731581558289,0.7,0.0,0.0,419.0,898.0,1.0,0,-77.0,0
165,165,0.5241933137093359,0.5,1.0,1.0,338.0,570.0,1.0,1,482.0,1
166,166,-0.4014556720047542,-0.4,1.0,0.0,258.0,682.0,0.0,0,690.0,1
167,167,0.6179416201536058,0.6,0.0,0.0,297.0,714.0,0.0,1,489.0,1
168,168,0.3958533188481822,0.4,0.0,0.0,453.0,777.0,1.0,0,190.0,0
169,169,-0.09847827306868417,-0.1,0.0,1.0,395.0,685.0,1.0,0,670.0,1
170,170,0.5297899084323369,0.5,1.0,1.0,394.0,691.0,1.0,1,545.0,1
171,171,-0.13611579449353317,-0.1,0.0,1.0,392.0,621.0,1.0,0,297.0,1
172,172,-0.6519403762724109,-0.7,0.0,1.0,349.0,599.0,1.0,0,642.0,1
173,173,-0.6865858805901501,-0.7,0.0,1.0,275.0,765.0,1.0,0,240.0,1
174,174,0.06325311204855333,0.1,0.0,0.0,259.0,928.0,0.0,1,113.0,1
175,175,0.23812019740730983,0.2,1.0,1.0,415.0,617.0,1.0,1,488.0,1
176,176,0.5955011703185294,0.6,0.0,0.0,281.0,972.0,0.0,1,387.0,1
177,177,-0.5226710590596815,-0.5,0.0,1.0,393.0,725.0,1.0,0,342.0,1
178,178,-0.4404013347389622,-0.4,0.0,1.0,493.0,778.0,1.0,0,549.0,1
179,179,0.21168026593865508,0.2,1.0,1.0,294.0,907.0,1.0,1,139.0,1
180,180,-0.8305523993620383,-0.8,0.0,1.0,263.0,807.0,1.0,0,120.0,1
181,181,0.242874538471613,0.2,0.0,0.0,470.0,504.0,1.0,0,406.0,0
182,182,-0.08138799292958177,-0.1,0.0,1.0,271.0,574.0,1.0,0,285.0,1
183,183,-0.24602530975319614,-0.2,1.0,0.0,299.0,994.0,0.0,0,347.0,1
184,184,0.7564748626450498,0.8,1.0,1.0,344.0,687.0,1.0,1,669.0,1
185,185,0.447213313936235,0.4,1.0,1.0,424.0,995.0,0.0,0,-109.0,0
186,186,-0.40085298866558317,-0.4,1.0,0.0,388.0,510.0,0.0,0,602.0,1
187,187,-0.5397112521154945,-0.5,1.0,0.0,350.0,979.0,0.0,0,411.0,1
188,188,0.24810694102763475,0.2,0.0,0.0,272.0,600.0,0.0,1,878.0,1
189,189,0.7526236560487539,0.8,1.0,1.0,305.0,554.0,1.0,1,461.0,1
190,190,-0.005039400751214451,-0.0,0.0,1.0,264.0,952.0,1.0,0,194.0,1
191,191,-0.26985219779551783,-0.3,0.0,1.0,331.0,878.0,1.0,0,101.0,1
192,192,0.059687145880960024,0.1,1.0,1.0,439.0,951.0,1.0,1,420.0,1
193,193,0.8187972243563745,0.8,0.0,0.0,262.0,547.0,0.0,1,651.0,1
194,194,0.09081049309083833,0.1,1.0,1.0,371.0,918.0,0.0,0,511.0,0
195,195,0.38835962917297884,0.4,0.0,0.0,428.0,809.0,0.0,1,623.0,1
196,196,0.8631191547891738,0.9,0.0,0.0,327.0,627.0,0.0,1,476.0,1
197,197,-0.712511511510521,-0.7,1.0,0.0,482.0,687.0,0.0,0,281.0,1
198,198,0.8636172046611356,0.9,1.0,1.0,265.0,503.0,1.0,1,242.0,1
199,199,0.2998232393616188,0.3,1.0,1.0,355.0,985.0,1.0,1,-190.0,1
200,200,-0.13850987295448225,-0.1,1.0,0.0,449.0,896.0,0.0,0,505.0,1
201,201,-0.19512478385774923,-0.2,0.0,1.0,357.0,646.0,1.0,0,457.0,1
202,202,0.20897129048115348,0.2,0.0,0.0,399.0,752.0,1.0,0,429.0,0
203,203,-0.19884558127583218,-0.2,1.0,0.0,281.0,904.0,1.0,1,-5.0,0
204,204,-0.7569837710106853,-0.8,1.0,0.0,483.0,596.0,0.0,0,461.0,1
205,205,-0.15707500036956423,-0.2,0.0,1.0,294.0,660.0,1.0,0,486.0,1
206,206,-0.3379038270792959,-0.3,0.0,1.0,329.0,901.0,1.0,0,170.0,1
207,207,-0.35100589240658453,-0.4,1.0,0.0,334.0,553.0,0.0,0,773.0,1
208,208,0.712768754353513,0.7,1.0,1.0,303.0,576.0,1.0,1,501.0,1
209,209,0.34810836621281604,0.3,1.0,1.0,431.0,998.0,1.0,1,1351.0,1
210,210,0.17667617949586745,0.2,1.0,1.0,381.0,906.0,1.0,1,393.0,1
211,211,-0.8492256920818579,-0.8,0.0,1.0,311.0,887.0,1.0,0,232.0,1
212,212,0.6620650817186421,0.7,1.0,1.0,479.0,833.0,1.0,1,348.0,1
213,213,-0.027927907309133304,-0.0,1.0,0.0,424.0,847.0,0.0,0,939.0,1
214,214,-0.8947657807103491,-0.9,1.0,0.0,373.0,988.0,0.0,0,69.0,1
215,215,-0.35140357807700306,-0.4,0.0,1.0,495.0,933.0,1.0,0,-38.0,1
216,216,0.03900291439424142,0.0,1.0,1.0,441.0,592.0,1.0,1,507.0,1
217,217,-0.3576963901974398,-0.4,0.0,1.0,398.0,593.0,1.0,0,429.0,1
218,218,-0.8027492883941699,-0.8,1.0,0.0,412.0,959.0,1.0,1,149.0,0
219,219,0.08830004755253229,0.1,1.0,1.0,490.0,596.0,0.0,0,674.0,0
220,220,-0.05434455289010143,-0.1,0.0,1.0,272.0,794.0,1.0,0,544.0,1
221,221,-0.31554792927997766,-0.3,1.0,0.0,437.0,742.0,0.0,0,371.0,1
222,222,0.21982900996566668,0.2,1.0,1.0,457.0,602.0,1.0,1,671.0,1
223,223,-0.43502411590468265,-0.4,0.0,1.0,273.0,813.0,1.0,0,364.0,1
224,224,0.6347693200355217,0.6,0.0,0.0,487.0,804.0,0.0,1,349.0,1
225,225,-0.6280801600067782,-0.6,1.0,0.0,266.0,830.0,0.0,0,184.0,1
226,226,-0.4542363372402031,-0.5,0.0,1.0,448.0,852.0,1.0,0,0.0,1
227,227,0.05415751368226163,0.1,0.0,0.0,304.0,828.0,0.0,1,918.0,1
228,228,0.08195576592756648,0.1,0.0,0.0,386.0,801.0,1.0,0,373.0,0
229,229,0.4042654380624927,0.4,1.0,1.0,302.0,906.0,1.0,1,132.0,1
230,230,-0.6512678486343211,-0.7,0.0,1.0,433.0,597.0,1.0,0,350.0,1
231,231,-0.40937869656501696,-0.4,0.0,1.0,398.0,835.0,1.0,0,7.0,1
232,232,-0.7758175920617968,-0.8,1.0,0.0,420.0,753.0,0.0,0,387.0,1
233,233,-0.18788359577704872,-0.2,1.0,0.0,414.0,582.0,0.0,0,1714.0,1
234,234,-0.17136168789485018,-0.2,1.0,0.0,452.0,938.0,1.0,1,570.0,0
235,235,0.7461865533615749,0.7,1.0,1.0,455.0,807.0,1.0,1,278.0,1
236,236,-0.8733861128785868,-0.9,0.0,1.0,261.0,999.0,1.0,0,370.0,1
237,237,-0.2979253212364853,-0.3,1.0,0.0,457.0,765.0,0.0,0,178.0,1
238,238,-0.25410427478740705,-0.3,1.0,0.0,382.0,551.0,0.0,0,417.0,1
239,239,-0.807328738336876,-0.8,1.0,0.0,283.0,567.0,0.0,0,280.0,1
240,240,-0.8917693829515058,-0.9,1.0,0.0,349.0,719.0,0.0,0,432.0,1
241,241,-0.3847894273857616,-0.4,0.0,1.0,486.0,911.0,1.0,0,53.0,1
242,242,0.6290574804707995,0.6,0.0,0.0,252.0,724.0,0.0,1,304.0,1
243,243,0.5733019508296467,0.6,1.0,1.0,407.0,877.0,1.0,1,256.0,1
244,244,0.2346437092276762,0.2,0.0,0.0,356.0,696.0,0.0,1,1218.0,1
245,245,0.7975156898200871,0.8,1.0,1.0,257.0,943.0,1.0,1,340.0,1
246,246,-0.3764031308587371,-0.4,1.0,0.0,330.0,644.0,0.0,0,516.0,1
247,247,0.15940900258457147,0.2,0.0,0.0,451.0,841.0,1.0,0,968.0,0
248,248,-0.19972255401097794,-0.2,1.0,0.0,386.0,922.0,0.0,0,142.0,1
249,249,-0.5896921175829359,-0.6,1.0,0.0,436.0,515.0,0.0,0,449.0,1
250,250,-0.38355815902522394,-0.4,1.0,0.0,369.0,902.0,1.0,1,389.0,0
251,251,0.5446989434140278,0.5,0.0,0.0,348.0,665.0,0.0,1,557.0,1
252,252,-0.04392090925103698,-0.0,0.0,1.0,284.0,805.0,0.0,1,331.0,0
253,253,0.1632881739564772,0.2,1.0,1.0,342.0,803.0,0.0,0,445.0,0
254,254,0.3685174022433523,0.4,1.0,1.0,296.0,517.0,1.0,1,677.0,1
255,255,-0.49876287737980113,-0.5,0.0,1.0,474.0,657.0,1.0,0,479.0,1
256,256,0.6577512229763544,0.7,1.0,1.0,464.0,853.0,1.0,1,143.0,1
257,257,0.10064012024062052,0.1,1.0,1.0,266.0,815.0,0.0,0,959.0,0
258,258,-0.32133162260550074,-0.3,0.0,1.0,335.0,780.0,1.0,0,145.0,1
259,259,-0.5308957716900375,-0.5,1.0,0.0,274.0,648.0,0.0,0,298.0,1
260,260,-0.49781148030871886,-0.5,1.0,0.0,301.0,641.0,0.0,0,338.0,1
261,261,0.4549334216209474,0.5,1.0,1.0,465.0,618.0,1.0,1,437.0,1
262,262,-0.8120307857454857,-0.8,1.0,0.0,433.0,873.0,0.0,0,354.0,1
263,263,0.39883495508852607,0.4,1.0,1.0,263.0,839.0,0.0,0,338.0,0
264,264,-0.30104419041311803,-0.3,1.0,0.0,412.0,518.0,0.0,0,590.0,1
265,265,0.30283984004747533,0.3,1.0,1.0,467.0,614.0,1.0,1,799.0,1
266,266,-0.4351271029346631,-0.4,1.0,0.0,311.0,777.0,0.0,0,412.0,1
267,267,0.5232608877158841,0.5,0.0,0.0,375.0,902.0,1.0,0,293.0,0
268,268,-0.8545518289943972,-0.9,1.0,0.0,341.0,600.0,0.0,0,539.0,1
269,269,-0.18833553077095444,-0.2,0.0,1.0,265.0,655.0,1.0,0,940.0,1
270,270,0.6468644510126064,0.6,0.0,0.0,465.0,988.0,1.0,0,-93.0,0
271,271,-0.04670681022727485,-0.0,0.0,1.0,377.0,924.0,0.0,1,369.0,0
272,272,0.13488094090622538,0.1,0.0,0.0,393.0,507.0,0.0,1,890.0,1
273,273,-0.8673336935718164,-0.9,1.0,0.0,328.0,925.0,0.0,0,267.0,1
274,274,0.8376228704251084,0.8,1.0,1.0,475.0,889.0,1.0,1,236.0,1
275,275,-0.3911223354715887,-0.4,1.0,0.0,375.0,960.0,0.0,0,605.0,1
276,276,-0.8739428026628772,-0.9,1.0,0.0,475.0,826.0,0.0,0,479.0,1
277,277,-0.43548338218427746,-0.4,1.0,0.0,267.0,782.0,0.0,0,441.0,1
278,278,0.0061940266421948165,0.0,1.0,1.0,480.0,524.0,0.0,0,556.0,0
279,279,0.34732671466877607,0.3,0.0,0.0,394.0,838.0,1.0,0,698.0,0
280,280,0.4112690838696137,0.4,0.0,0.0,452.0,859.0,0.0,1,399.0,1
281,281,0.13862322702912377,0.1,0.0,0.0,397.0,552.0,0.0,1,841.0,1
282,282,0.2842956167304428,0.3,1.0,1.0,373.0,714.0,1.0,1,423.0,1
283,283,0.2665373565836272,0.3,0.0,0.0,495.0,806.0,0.0,1,259.0,1
284,284,-0.11598578891765066,-0.1,1.0,0.0,428.0,936.0,1.0,1,86.0,0
285,285,-0.45593762629830176,-0.5,1.0,0.0,343.0,699.0,0.0,0,518.0,1
286,286,-0.1670977651310095,-0.2,1.0,0.0,318.0,566.0,0.0,0,726.0,1
287,287,0.3381222633885467,0.3,0.0,0.0,375.0,840.0,0.0,1,395.0,1
288,288,0.4271972305728794,0.4,1.0,1.0,449.0,699.0,1.0,1,642.0,1
289,289,0.4720521727301631,0.5,1.0,1.0,497.0,729.0,1.0,1,384.0,1
290,290,-0.2235915220592931,-0.2,1.0,0.0,256.0,501.0,1.0,1,513.0,0
291,291,0.0418241756900779,0.0,0.0,0.0,267.0,695.0,1.0,0,798.0,0
292,292,0.802976188245956,0.8,1.0,1.0,391.0,669.0,1.0,1,420.0,1
293,293,0.6912270649795059,0.7,1.0,1.0,345.0,655.0,1.0,1,510.0,1
294,294,0.7153354650975393,0.7,0.0,0.0,270.0,989.0,0.0,1,141.0,1
295,295,0.47105831630018036,0.5,1.0,1.0,439.0,605.0,1.0,1,436.0,1
296,296,0.853794894905148,0.9,1.0,1.0,428.0,743.0,1.0,1,359.0,1
297,297,-0.17866987894153197,-0.2,0.0,1.0,389.0,792.0,1.0,0,269.0,1
298,298,-0.7306548329842071,-0.7,1.0,0.0,444.0,989.0,0.0,0,197.0,1
299,299,0.23291637204372695,0.2,0.0,0.0,431.0,928.0,0.0,1,571.0,1
300,300,-0.13094009410457141,-0.1,0.0,1.0,392.0,593.0,1.0,0,445.0,1
301,301,0.8890336714334305,0.9,0.0,0.0,439.0,682.0,0.0,1,609.0,1
302,302,-0.5901990049491791,-0.6,0.0,1.0,456.0,853.0,1.0,0,141.0,1
303,303,-0.5675253752560996,-0.6,1.0,0.0,482.0,941.0,0.0,0,187.0,1
304,304,-0.447403510625336,-0.4,0.0,1.0,457.0,617.0,1.0,0,306.0,1
305,305,-0.36536845497002235,-0.4,1.0,0.0,279.0,965.0,0.0,0,696.0,1
306,306,-0.34689279403052375,-0.3,1.0,0.0,413.0,646.0,0.0,0,621.0,1
307,307,0.4251121585545473,0.4,0.0,0.0,478.0,509.0,0.0,1,453.0,1
308,308,-0.1501579712027088,-0.2,1.0,0.0,425.0,906.0,0.0,0,779.0,1
309,309,-0.6472525162785584,-0.6,0.0,1.0,262.0,789.0,1.0,0,469.0,1
310,310,0.04910719818513265,0.0,1.0,1.0,348.0,701.0,1.0,1,581.0,1
311,311,0.04676261897992495,0.0,0.0,0.0,325.0,974.0,1.0,0,-69.0,0
312,312,-0.02327399609083103,-0.0,0.0,1.0,258.0,808.0,1.0,0,404.0,1
313,313,-0.8821610392494373,-0.9,0.0,1.0,359.0,746.0,1.0,0,225.0,1
314,314,0.7894887871309294,0.8,0.0,0.0,487.0,567.0,0.0,1,726.0,1
315,315,-0.10799053591717223,-0.1,0.0,1.0,299.0,987.0,1.0,0,564.0,1
316,316,0.7487363553988219,0.7,1.0,1.0,392.0,666.0,1.0,1,332.0,1
317,317,-0.45784076786872024,-0.5,0.0,1.0,489.0,982.0,1.0,0,39.0,1
318,318,0.20601585988914917,0.2,0.0,0.0,496.0,588.0,1.0,0,406.0,0
319,319,-0.37208704455803465,-0.4,0.0,1.0,392.0,949.0,0.0,1,-21.0,0
320,320,0.23268799857653277,0.2,0.0,0.0,368.0,674.0,0.0,1,1278.0,1
321,321,0.6625289843683807,0.7,1.0,1.0,255.0,663.0,1.0,1,652.0,1
322,322,-0.08997629594000178,-0.1,0.0,1.0,436.0,710.0,1.0,0,324.0,1
323,323,0.4861085782497302,0.5,1.0,1.0,429.0,917.0,0.0,0,-6.0,0
324,324,-0.5656834070073404,-0.6,0.0,1.0,265.0,881.0,1.0,0,244.0,1
325,325,0.334830206683573,0.3,0.0,0.0,384.0,569.0,0.0,1,1367.0,1
326,326,0.8286476432381943,0.8,1.0,1.0,376.0,690.0,1.0,1,624.0,1
327,327,0.6263540469101937,0.6,0.0,0.0,333.0,770.0,0.0,1,617.0,1
328,328,-0.007200856716472193,-0.0,0.0,1.0,350.0,876.0,1.0,0,704.0,1
329,329,0.7310084167215692,0.7,0.0,0.0,398.0,696.0,0.0,1,1686.0,1
330,330,0.763979259578259,0.8,1.0,1.0,430.0,965.0,1.0,1,65.0,1
331,331,0.24837883224323287,0.2,1.0,1.0,351.0,669.0,1.0,1,880.0,1
332,332,0.07309700664774021,0.1,1.0,1.0,293.0,777.0,0.0,0,350.0,0
333,333,0.7039418390290183,0.7,0.0,0.0,297.0,662.0,0.0,1,511.0,1
334,334,0.09814371667891908,0.1,1.0,1.0,492.0,549.0,0.0,0,709.0,0
335,335,0.5842467256256615,0.6,0.0,0.0,333.0,717.0,0.0,1,330.0,1
336,336,-0.2389970360897542,-0.2,1.0,0.0,320.0,542.0,0.0,0,398.0,1
337,337,0.41001887538107396,0.4,0.0,0.0,389.0,900.0,1.0,0,81.0,0
338,338,0.31904438273555236,0.3,0.0,0.0,327.0,595.0,0.0,1,1358.0,1
339,339,-0.5130673560621222,-0.5,1.0,0.0,413.0,513.0,0.0,0,574.0,1
340,340,-0.21310513772310113,-0.2,1.0,0.0,451.0,767.0,0.0,0,652.0,1
341,341,0.872398244508333,0.9,1.0,1.0,422.0,748.0,1.0,1,240.0,1
342,342,0.0526841520061373,0.1,0.0,0.0,333.0,597.0,0.0,1,920.0,1
343,343,-0.8322058138951283,-0.8,1.0,0.0,403.0,636.0,0.0,0,401.0,1
344,344,-0.055184233128331095,-0.1,0.0,1.0,424.0,682.0,1.0,0,1034.0,1
345,345,0.24612495331408157,0.2,1.0,1.0,407.0,816.0,1.0,1,67.0,1
346,346,-0.5658823259109234,-0.6,1.0,0.0,306.0,722.0,0.0,0,242.0,1
347,347,-0.1785050458597024,-0.2,0.0,1.0,283.0,614.0,1.0,0,483.0,1
348,348,0.17471895701347895,0.2,0.0,0.0,354.0,833.0,0.0,1,603.0,1
349,349,-0.5804548161758059,-0.6,0.0,1.0,350.0,839.0,1.0,0,361.0,1
350,350,0.2758964387767183,0.3,1.0,1.0,260.0,733.0,1.0,1,1067.0,1
351,351,-0.26287124106156146,-0.3,1.0,0.0,386.0,548.0,0.0,0,536.0,1
352,352,-0.024311333459155704,-0.0,0.0,1.0,308.0,967.0,1.0,0,355.0,1
353,353,-0.7869480009403295,-0.8,0.0,1.0,254.0,892.0,1.0,0,164.0,1
354,354,-0.6006285767784123,-0.6,0.0,1.0,260.0,522.0,1.0,0,278.0,1
355,355,0.054614592317602795,0.1,1.0,1.0,369.0,735.0,1.0,1,246.0,1
356,356,0.7584877200028141,0.8,0.0,0.0,398.0,672.0,0.0,1,530.0,1
357,357,0.35508061472578245,0.4,0.0,0.0,491.0,666.0,0.0,1,423.0,1
358,358,-0.1755563222390688,-0.2,0.0,1.0,424.0,674.0,1.0,0,1072.0,1
359,359,-0.8364564707754963,-0.8,1.0,0.0,295.0,728.0,0.0,0,287.0,1
360,360,0.08949542765696761,0.1,0.0,0.0,288.0,645.0,1.0,0,807.0,0
361,361,-0.07322092386048396,-0.1,0.0,1.0,440.0,868.0,1.0,0,262.0,1
362,362,-0.0057355609437225175,-0.0,0.0,1.0,442.0,807.0,1.0,0,131.0,1
363,363,-0.7733174204303239,-0.8,0.0,1.0,486.0,825.0,1.0,0,459.0,1
364,364,-0.5640426561943732,-0.6,1.0,0.0,440.0,602.0,0.0,0,438.0,1
365,365,0.42750009066156813,0.4,1.0,1.0,469.0,949.0,1.0,1,252.0,1
366,366,0.08126827661240621,0.1,1.0,1.0,269.0,914.0,1.0,1,277.0,1
367,367,0.5119698114757393,0.5,1.0,1.0,483.0,755.0,1.0,1,822.0,1
368,368,0.780005640778492,0.8,0.0,0.0,341.0,629.0,0.0,1,510.0,1
369,369,0.09860436169589137,0.1,1.0,1.0,377.0,774.0,0.0,0,489.0,0
370,370,0.2765736102008082,0.3,0.0,0.0,494.0,720.0,0.0,1,926.0,1
371,371,0.6097652897764677,0.6,1.0,1.0,396.0,709.0,1.0,1,255.0,1
372,372,0.814295417326775,0.8,1.0,1.0,341.0,799.0,1.0,1,550.0,1
373,373,-0.13005028834102828,-0.1,1.0,0.0,433.0,756.0,1.0,1,91.0,0
374,374,-0.60408618133224,-0.6,1.0,0.0,263.0,898.0,0.0,0,389.0,1
375,375,-0.8343553054867703,-0.8,0.0,1.0,422.0,705.0,1.0,0,333.0,1
376,376,-0.790151741808457,-0.8,1.0,0.0,298.0,643.0,0.0,0,499.0,1
377,377,-0.5404316118658794,-0.5,0.0,1.0,369.0,537.0,1.0,0,404.0,1
378,378,-0.7819805883728522,-0.8,1.0,0.0,352.0,961.0,0.0,0,77.0,1
379,379,-0.573115917664957,-0.6,0.0,1.0,445.0,779.0,1.0,0,226.0,1
380,380,-0.8203372473566207,-0.8,0.0,1.0,446.0,534.0,1.0,0,1020.0,1
381,381,0.4724071078994604,0.5,0.0,0.0,407.0,758.0,0.0,1,1225.0,1
382,382,-0.7501276083449788,-0.8,1.0,0.0,392.0,601.0,0.0,0,537.0,1
383,383,0.14773846539317803,0.1,0.0,0.0,255.0,717.0,1.0,0,428.0,0
384,384,-0.2415222754756574,-0.2,1.0,0.0,274.0,961.0,1.0,1,405.0,0
385,385,-0.6156900255047021,-0.6,0.0,1.0,305.0,999.0,1.0,0,-114.0,1
386,386,-0.1271727000124786,-0.1,1.0,0.0,369.0,524.0,1.0,1,427.0,0
387,387,0.8954450708008034,0.9,0.0,0.0,321.0,601.0,0.0,1,818.0,1
388,388,0.38076732286973114,0.4,0.0,0.0,371.0,755.0,0.0,1,434.0,1
389,389,0.823994477789345,0.8,1.0,1.0,274.0,613.0,1.0,1,513.0,1
390,390,-0.42568001532126004,-0.4,1.0,0.0,272.0,508.0,1.0,1,360.0,0
391,391,0.6357571668108793,0.6,1.0,1.0,367.0,622.0,1.0,1,261.0,1
392,392,0.7336467130383605,0.7,0.0,0.0,373.0,720.0,0.0,1,667.0,1
393,393,0.17401538507092063,0.2,1.0,1.0,419.0,695.0,1.0,1,316.0,1
394,394,-0.2503914926021723,-0.3,0.0,1.0,361.0,782.0,1.0,0,437.0,1
395,395,0.03536088488291522,0.0,1.0,1.0,386.0,842.0,1.0,1,582.0,1
396,396,-0.7895281011387549,-0.8,1.0,0.0,369.0,951.0,0.0,0,50.0,1
397,397,-0.7888683229402873,-0.8,1.0,0.0,284.0,655.0,0.0,0,281.0,1
398,398,-0.8406215637550126,-0.8,0.0,1.0,346.0,734.0,1.0,0,210.0,1
399,399,0.012443599396266158,0.0,0.0,0.0,478.0,936.0,1.0,0,6.0,0
400,400,-0.7619383619267678,-0.8,0.0,1.0,390.0,975.0,1.0,0,105.0,1
401,401,0.3754989285546896,0.4,0.0,0.0,320.0,982.0,0.0,1,448.0,1
402,402,0.574557829716838,0.6,1.0,1.0,371.0,892.0,1.0,1,7.0,1
403,403,-0.7280389277507779,-0.7,0.0,1.0,367.0,607.0,1.0,0,116.0,1
404,404,-0.23963874666837892,-0.2,0.0,1.0,345.0,824.0,1.0,0,821.0,1
405,405,0.15881225164873014,0.2,0.0,0.0,426.0,550.0,0.0,1,1344.0,1
406,406,0.8948199321536069,0.9,1.0,1.0,347.0,745.0,1.0,1,278.0,1
407,407,-0.6026484963636451,-0.6,0.0,1.0,401.0,860.0,1.0,0,269.0,1
408,408,-0.259183958769877,-0.3,1.0,0.0,483.0,554.0,0.0,0,933.0,1
409,409,-0.5189082008884041,-0.5,1.0,0.0,280.0,675.0,0.0,0,505.0,1
410,410,0.013028067170387625,0.0,1.0,1.0,264.0,928.0,0.0,0,8.0,0
411,411,0.8857857044962135,0.9,0.0,0.0,425.0,711.0,0.0,1,434.0,1
412,412,-0.8109717223501428,-0.8,1.0,0.0,250.0,734.0,0.0,0,586.0,1
413,413,-0.1941970283612574,-0.2,1.0,0.0,315.0,605.0,1.0,1,880.0,0
414,414,0.011564901523046234,0.0,1.0,1.0,442.0,505.0,1.0,1,553.0,1
415,415,-0.6195648537266719,-0.6,1.0,0.0,279.0,734.0,0.0,0,367.0,1
416,416,0.04031775904297519,0.0,0.0,0.0,313.0,888.0,1.0,0,219.0,0
417,417,-0.5797904370842779,-0.6,1.0,0.0,281.0,672.0,0.0,0,207.0,1
418,418,0.8830810887236765,0.9,1.0,1.0,276.0,576.0,1.0,1,388.0,1
419,419,-0.6309963363680513,-0.6,1.0,0.0,305.0,719.0,0.0,0,186.0,1
420,420,-0.8693856969127111,-0.9,1.0,0.0,374.0,885.0,0.0,0,81.0,1
421,421,0.805157091443557,0.8,0.0,0.0,279.0,739.0,0.0,1,442.0,1
422,422,0.07707034651019484,0.1,1.0,1.0,463.0,666.0,1.0,1,801.0,1
423,423,-0.7688613184525366,-0.8,1.0,0.0,389.0,720.0,0.0,0,361.0,1
424,424,-0.6054421889563829,-0.6,0.0,1.0,416.0,562.0,1.0,0,462.0,1
425,425,-0.6652966096563917,-0.7,0.0,1.0,326.0,808.0,1.0,0,356.0,1
426,426,0.7961196391871422,0.8,0.0,0.0,348.0,663.0,0.0,1,349.0,1
427,427,-0.837134580901503,-0.8,0.0,1.0,255.0,816.0,1.0,0,209.0,1
428,428,-0.10445179727272502,-0.1,0.0,1.0,451.0,674.0,1.0,0,1505.0,1
429,429,0.8463974754800935,0.8,0.0,0.0,484.0,785.0,0.0,1,731.0,1
430,430,-0.044514001719800134,-0.0,1.0,0.0,293.0,870.0,1.0,1,317.0,0
431,431,-0.23759865531222146,-0.2,1.0,0.0,256.0,831.0,1.0,1,183.0,0
432,432,0.24343640694987057,0.2,0.0,0.0,456.0,706.0,0.0,1,708.0,1
433,433,-0.4118874131643041,-0.4,0.0,1.0,315.0,781.0,1.0,0,274.0,1
434,434,-0.33183091556991573,-0.3,1.0,0.0,445.0,572.0,0.0,0,933.0,1
435,435,-0.3922171999807963,-0.4,1.0,0.0,296.0,503.0,0.0,0,761.0,1
436,436,-0.8086128212984829,-0.8,1.0,0.0,459.0,988.0,0.0,0,73.0,1
437,437,-0.4185031222200104,-0.4,0.0,1.0,386.0,607.0,1.0,0,437.0,1
438,438,-0.03254570831111714,-0.0,0.0,1.0,278.0,697.0,1.0,0,585.0,1
439,439,-0.5556394297847767,-0.6,0.0,1.0,432.0,660.0,1.0,0,338.0,1
440,440,0.0006009027875958362,0.0,0.0,0.0,376.0,581.0,0.0,1,903.0,1
441,441,-0.6152454976978201,-0.6,1.0,0.0,319.0,528.0,0.0,0,593.0,1
442,442,0.3475053915392593,0.3,1.0,1.0,327.0,890.0,1.0,1,243.0,1
443,443,0.31621116523724,0.3,1.0,1.0,294.0,575.0,1.0,1,281.0,1
444,444,-0.4574237643138575,-0.5,0.0,1.0,362.0,571.0,1.0,0,597.0,1
445,445,-0.656501527898479,-0.7,1.0,0.0,380.0,589.0,0.0,0,351.0,1
446,446,-0.3852021093210831,-0.4,0.0,1.0,386.0,796.0,1.0,0,78.0,1
447,447,0.5188106230745723,0.5,1.0,1.0,253.0,587.0,1.0,1,420.0,1
448,448,0.42416787505591247,0.4,1.0,1.0,356.0,649.0,0.0,0,1335.0,0
449,449,-0.13403019338754674,-0.1,0.0,1.0,289.0,779.0,1.0,0,2.0,1
450,450,0.8059399064277394,0.8,0.0,0.0,280.0,540.0,0.0,1,480.0,1
451,451,0.3811177695853726,0.4,0.0,0.0,471.0,509.0,0.0,1,490.0,1
452,452,-0.8186868021861446,-0.8,0.0,1.0,449.0,535.0,1.0,0,326.0,1
453,453,-0.7206634662103372,-0.7,0.0,1.0,334.0,660.0,1.0,0,486.0,1
454,454,-0.2839510026755838,-0.3,1.0,0.0,297.0,964.0,1.0,1,239.0,0
455,455,0.20015600597917482,0.2,1.0,1.0,256.0,830.0,1.0,1,334.0,1
456,456,-0.07285576216175593,-0.1,1.0,0.0,398.0,949.0,1.0,1,143.0,0
457,457,0.44135367072789944,0.4,0.0,0.0,301.0,669.0,0.0,1,1150.0,1
458,458,-0.534297046113051,-0.5,1.0,0.0,298.0,624.0,0.0,0,348.0,1
459,459,-0.2702242343146758,-0.3,0.0,1.0,352.0,741.0,1.0,0,687.0,1
460,460,0.7959250995232482,0.8,1.0,1.0,297.0,832.0,1.0,1,501.0,1
461,461,-0.038456910167623204,-0.0,0.0,1.0,487.0,967.0,1.0,0,796.0,1
462,462,0.04117383365386085,0.0,0.0,0.0,342.0,964.0,1.0,0,1154.0,0
463,463,-0.058625701604928526,-0.1,1.0,0.0,309.0,803.0,1.0,1,348.0,0
464,464,-0.09191995739159542,-0.1,0.0,1.0,294.0,798.0,1.0,0,148.0,1
465,465,0.8247972190245644,0.8,1.0,1.0,292.0,938.0,0.0,0,-170.0,0
466,466,0.03169508730391646,0.0,0.0,0.0,306.0,727.0,0.0,1,657.0,1
467,467,-0.33173264168013583,-0.3,0.0,1.0,371.0,739.0,1.0,0,250.0,1
468,468,-0.8411013151355679,-0.8,1.0,0.0,443.0,588.0,0.0,0,429.0,1
469,469,-0.1292984887965094,-0.1,1.0,0.0,390.0,964.0,1.0,1,126.0,0
470,470,-0.1887954061697502,-0.2,1.0,0.0,497.0,969.0,1.0,1,104.0,0
471,471,-0.11816460657720995,-0.1,1.0,0.0,459.0,737.0,1.0,1,444.0,0
472,472,0.6739333969666127,0.7,1.0,1.0,420.0,931.0,0.0,0,49.0,0
473,473,-0.7335660707553266,-0.7,0.0,1.0,301.0,705.0,1.0,0,284.0,1
474,474,-0.15646348434369017,-0.2,1.0,0.0,432.0,786.0,0.0,0,852.0,1
475,475,-0.6217134701898053,-0.6,1.0,0.0,487.0,923.0,0.0,0,450.0,1
476,476,-0.3218509790906433,-0.3,1.0,0.0,260.0,995.0,0.0,0,345.0,1
477,477,-0.06674271462564685,-0.1,1.0,0.0,329.0,854.0,0.0,0,217.0,1
478,478,-0.3075549347297213,-0.3,1.0,0.0,292.0,622.0,0.0,0,596.0,1
479,479,0.5403203617386595,0.5,1.0,1.0,302.0,688.0,1.0,1,390.0,1
480,480,-0.17328681042866556,-0.2,1.0,0.0,389.0,679.0,1.0,1,552.0,0
481,481,0.6881736421393546,0.7,0.0,0.0,465.0,622.0,0.0,1,163.0,1
482,482,-0.5897945892968792,-0.6,0.0,1.0,362.0,901.0,1.0,0,127.0,1
483,483,-0.6461346099989101,-0.6,1.0,0.0,439.0,536.0,0.0,0,545.0,1
484,484,-0.25823522244453334,-0.3,0.0,1.0,463.0,969.0,0.0,1,388.0,0
485,485,-0.07637024122488956,-0.1,0.0,1.0,497.0,689.0,0.0,1,454.0,0
486,486,0.8161956503374604,0.8,1.0,1.0,297.0,795.0,1.0,1,378.0,1
487,487,0.7626116327194555,0.8,1.0,1.0,279.0,565.0,1.0,1,486.0,1
488,488,-0.1924886817609074,-0.2,1.0,0.0,458.0,783.0,0.0,0,549.0,1
489,489,0.7316761180536199,0.7,0.0,0.0,282.0,581.0,0.0,1,297.0,1
490,490,0.7049328312631798,0.7,0.0,0.0,316.0,721.0,0.0,1,803.0,1
491,491,-0.5084709304313659,-0.5,1.0,0.0,470.0,984.0,1.0,1,6.0,0
492,492,0.4825161038904183,0.5,0.0,0.0,398.0,944.0,1.0,0,68.0,0
493,493,-0.014085702849992554,-0.0,0.0,1.0,418.0,533.0,1.0,0,259.0,1
494,494,0.7569678749465664,0.8,1.0,1.0,408.0,857.0,1.0,1,245.0,1
495,495,0.014970888997118514,0.0,1.0,1.0,444.0,934.0,0.0,0,142.0,0
496,496,0.25530621640407747,0.3,0.0,0.0,264.0,749.0,0.0,1,447.0,1
497,497,-0.7648393819721322,-0.8,0.0,1.0,267.0,635.0,1.0,0,188.0,1
498,498,-0.4584064635040063,-0.5,0.0,1.0,405.0,976.0,1.0,0,269.0,1
499,499,-0.4504201338348366,-0.5,1.0,0.0,344.0,708.0,0.0,0,458.0,1
500,500,-0.3893451252355471,-0.4,0.0,1.0,254.0,788.0,1.0,0,358.0,1
501,501,-0.7906290288732335,-0.8,1.0,0.0,400.0,712.0,0.0,0,368.0,1
502,502,0.44266303194281476,0.4,0.0,0.0,346.0,701.0,0.0,1,453.0,1
503,503,-0.539113558119956,-0.5,0.0,1.0,497.0,847.0,1.0,0,226.0,1
504,504,0.00019350649827176714,0.0,1.0,1.0,488.0,678.0,1.0,1,264.0,1
505,505,-0.6714221741163227,-0.7,1.0,0.0,293.0,916.0,0.0,0,121.0,1
506,506,-0.47976183194599925,-0.5,0.0,1.0,287.0,956.0,1.0,0,57.0,1
507,507,0.32548885636682956,0.3,0.0,0.0,275.0,604.0,0.0,1,2021.0,1
508,508,-0.826807287502498,-0.8,1.0,0.0,252.0,673.0,0.0,0,245.0,1
509,509,-0.07269686667837372,-0.1,1.0,0.0,438.0,567.0,0.0,0,945.0,1
510,510,-0.08918769277110439,-0.1,1.0,0.0,378.0,938.0,0.0,0,554.0,1
511,511,0.531120586345769,0.5,0.0,0.0,447.0,646.0,0.0,1,607.0,1
512,512,0.7067727543201768,0.7,1.0,1.0,448.0,717.0,1.0,1,435.0,1
513,513,-0.8799124788583127,-0.9,1.0,0.0,359.0,554.0,0.0,0,407.0,1
514,514,-0.14636144569081722,-0.1,0.0,1.0,454.0,832.0,1.0,0,144.0,1
515,515,-0.7021651838059236,-0.7,1.0,0.0,265.0,884.0,0.0,0,641.0,1
516,516,-0.4867134608933662,-0.5,0.0,1.0,358.0,670.0,1.0,0,402.0,1
517,517,0.2892193487796165,0.3,0.0,0.0,435.0,575.0,0.0,1,1490.0,1
518,518,-0.7284243099910986,-0.7,1.0,0.0,420.0,964.0,0.0,0,306.0,1
519,519,0.3321753223398355,0.3,0.0,0.0,254.0,856.0,1.0,0,140.0,0
520,520,0.6739897780435063,0.7,1.0,1.0,424.0,959.0,1.0,1,197.0,1
521,521,-0.29036428645080825,-0.3,1.0,0.0,449.0,572.0,0.0,0,389.0,1
522,522,0.01783349624200503,0.0,0.0,0.0,449.0,939.0,1.0,0,272.0,0
523,523,0.3600581858499313,0.4,0.0,0.0,266.0,559.0,0.0,1,625.0,1
524,524,-0.42691746965236205,-0.4,0.0,1.0,371.0,907.0,1.0,0,32.0,1
525,525,0.23599698245411116,0.2,1.0,1.0,258.0,547.0,1.0,1,355.0,1
526,526,0.5549731619107984,0.6,0.0,0.0,419.0,913.0,0.0,1,148.0,1
527,527,-0.21176694208529923,-0.2,0.0,1.0,379.0,762.0,1.0,0,179.0,1
528,528,-0.4049980058399107,-0.4,0.0,1.0,335.0,784.0,1.0,0,131.0,1
529,529,0.6195325370551249,0.6,0.0,0.0,417.0,651.0,0.0,1,662.0,1
530,530,-0.28280524380340066,-0.3,1.0,0.0,444.0,579.0,0.0,0,377.0,1
531,531,-0.5345666481961258,-0.5,0.0,1.0,285.0,608.0,1.0,0,387.0,1
532,532,0.3182691078849783,0.3,0.0,0.0,429.0,949.0,0.0,1,702.0,1
533,533,0.8136690479062091,0.8,0.0,0.0,276.0,747.0,0.0,1,727.0,1
534,534,0.530101507547002,0.5,1.0,1.0,495.0,557.0,1.0,1,288.0,1
535,535,-0.6054827896527246,-0.6,0.0,1.0,330.0,676.0,1.0,0,164.0,1
536,536,-0.17017052640096697,-0.2,1.0,0.0,378.0,974.0,0.0,0,208.0,1
537,537,-0.2714638802472409,-0.3,0.0,1.0,405.0,787.0,0.0,1,88.0,0
538,538,-0.8006450246731825,-0.8,0.0,1.0,402.0,991.0,1.0,0,-153.0,1
539,539,0.7670938186243049,0.8,0.0,0.0,288.0,567.0,0.0,1,875.0,1
540,540,0.6150772610680367,0.6,0.0,0.0,498.0,980.0,1.0,0,-78.0,0
541,541,0.14815591638101522,0.1,1.0,1.0,365.0,871.0,1.0,1,84.0,1
542,542,-0.548356582001214,-0.5,0.0,1.0,417.0,610.0,1.0,0,463.0,1
543,543,-0.5863308118994488,-0.6,1.0,0.0,310.0,735.0,0.0,0,105.0,1
544,544,-0.03317362740091112,-0.0,0.0,1.0,278.0,627.0,1.0,0,455.0,1
545,545,-0.650873321497074,-0.7,0.0,1.0,473.0,797.0,1.0,0,310.0,1
546,546,0.017880327359873438,0.0,0.0,0.0,333.0,857.0,0.0,1,1160.0,1
547,547,-0.39002876286767185,-0.4,0.0,1.0,323.0,864.0,1.0,0,843.0,1
548,548,0.5060723779559771,0.5,0.0,0.0,307.0,897.0,1.0,0,66.0,0
549,549,-0.1973416389613123,-0.2,0.0,1.0,324.0,601.0,1.0,0,655.0,1
550,550,0.5208016119690372,0.5,1.0,1.0,314.0,904.0,1.0,1,312.0,1
551,551,0.6978145312071865,0.7,0.0,0.0,479.0,676.0,0.0,1,885.0,1
552,552,-0.663913713165027,-0.7,0.0,1.0,495.0,692.0,1.0,0,403.0,1
553,553,-0.5199264595545263,-0.5,0.0,1.0,496.0,833.0,1.0,0,201.0,1
554,554,-0.6730202637438416,-0.7,0.0,1.0,383.0,930.0,1.0,0,107.0,1
555,555,0.8249495286575931,0.8,0.0,0.0,376.0,702.0,0.0,1,792.0,1
556,556,-0.5763368871522122,-0.6,0.0,1.0,252.0,696.0,1.0,0,192.0,1
557,557,0.09335630616068646,0.1,0.0,0.0,402.0,866.0,0.0,1,522.0,1
558,558,0.36980270651667857,0.4,0.0,0.0,421.0,684.0,0.0,1,1005.0,1
559,559,-0.5673435455199126,-0.6,1.0,0.0,423.0,977.0,0.0,0,250.0,1
560,560,0.7204268409564137,0.7,0.0,0.0,251.0,503.0,0.0,1,726.0,1
561,561,-0.22173803596612007,-0.2,1.0,0.0,377.0,931.0,0.0,0,142.0,1
562,562,-0.6986327427657301,-0.7,0.0,1.0,378.0,800.0,1.0,0,392.0,1
563,563,0.3476677496636392,0.3,0.0,0.0,407.0,953.0,1.0,0,-40.0,0
564,564,0.8781249001348929,0.9,0.0,0.0,340.0,982.0,0.0,1,328.0,1
565,565,-0.037311440423172915,-0.0,1.0,0.0,379.0,521.0,0.0,0,1150.0,1
566,566,0.03159041268484297,0.0,1.0,1.0,293.0,917.0,1.0,1,190.0,1
567,567,-0.23756318935005416,-0.2,0.0,1.0,402.0,728.0,1.0,0,450.0,1
568,568,-0.03301240180337506,-0.0,0.0,1.0,284.0,632.0,1.0,0,264.0,1
569,569,-0.7726973575057743,-0.8,1.0,0.0,318.0,623.0,0.0,0,619.0,1
570,570,-0.8976129220635213,-0.9,1.0,0.0,494.0,786.0,0.0,0,220.0,1
571,571,-0.19225005592247113,-0.2,1.0,0.0,310.0,636.0,0.0,0,884.0,1
572,572,-0.14372894227151511,-0.1,1.0,0.0,258.0,640.0,0.0,0,822.0,1
573,573,-0.27543436392937826,-0.3,0.0,1.0,480.0,967.0,1.0,0,133.0,1
574,574,0.07149186573097488,0.1,0.0,0.0,299.0,552.0,0.0,1,1769.0,1
575,575,0.4947361383206036,0.5,0.0,0.0,394.0,828.0,0.0,1,428.0,1
576,576,-0.461982038521202,-0.5,0.0,1.0,347.0,617.0,1.0,0,366.0,1
577,577,-0.7617729533914694,-0.8,0.0,1.0,406.0,526.0,1.0,0,398.0,1
578,578,0.509738260869023,0.5,1.0,1.0,443.0,678.0,1.0,1,689.0,1
579,579,0.6311568143670506,0.6,0.0,0.0,435.0,682.0,0.0,1,1043.0,1
580,580,0.5992998748092176,0.6,1.0,1.0,472.0,808.0,1.0,1,380.0,1
581,581,-0.3686212739592617,-0.4,0.0,1.0,365.0,585.0,1.0,0,320.0,1
582,582,-0.09916429669184623,-0.1,1.0,0.0,351.0,756.0,0.0,0,353.0,1
583,583,0.822683724520293,0.8,0.0,0.0,252.0,687.0,0.0,1,791.0,1
584,584,0.5441078300232006,0.5,1.0,1.0,320.0,612.0,1.0,1,658.0,1
585,585,0.43187844696439626,0.4,0.0,0.0,472.0,970.0,0.0,1,188.0,1
586,586,0.47810287882800784,0.5,1.0,1.0,292.0,590.0,1.0,1,408.0,1
587,587,-0.46230450952774227,-0.5,0.0,1.0,481.0,791.0,1.0,0,118.0,1
588,588,0.23856045057370057,0.2,1.0,1.0,335.0,703.0,1.0,1,252.0,1
589,589,0.623728326270239,0.6,1.0,1.0,478.0,839.0,1.0,1,263.0,1
590,590,0.3732193713209754,0.4,0.0,0.0,480.0,589.0,0.0,1,1641.0,1
591,591,0.18837850442388027,0.2,0.0,0.0,461.0,582.0,1.0,0,607.0,0
592,592,0.007937528511511194,0.0,0.0,0.0,291.0,995.0,1.0,0,564.0,0
593,593,-0.4445926853895101,-0.4,1.0,0.0,297.0,609.0,0.0,0,744.0,1
594,594,0.42715082389796655,0.4,1.0,1.0,463.0,593.0,1.0,1,234.0,1
595,595,0.886640683453556,0.9,1.0,1.0,418.0,521.0,1.0,1,361.0,1
596,596,-0.316488696849237,-0.3,0.0,1.0,428.0,803.0,1.0,0,299.0,1
597,597,0.13056975961496875,0.1,1.0,1.0,430.0,675.0,1.0,1,175.0,1
598,598,-0.499381376301653,-0.5,0.0,1.0,389.0,770.0,1.0,0,251.0,1
599,599,-0.5180185437963919,-0.5,1.0,0.0,336.0,685.0,0.0,0,259.0,1
600,600,-0.33122368575303496,-0.3,1.0,0.0,289.0,603.0,0.0,0,478.0,1
601,601,-0.18810677344741022,-0.2,1.0,0.0,421.0,825.0,0.0,0,4.0,1
602,602,-0.48949096887511306,-0.5,0.0,1.0,380.0,733.0,1.0,0,217.0,1
603,603,0.8382325276084798,0.8,0.0,0.0,299.0,737.0,1.0,0,34.0,0
604,604,0.01699254688159224,0.0,0.0,0.0,445.0,810.0,0.0,1,365.0,1
605,605,-0.6889864518570027,-0.7,0.0,1.0,271.0,820.0,1.0,0,159.0,1
606,606,-0.8481875649233548,-0.8,0.0,1.0,410.0,632.0,1.0,0,358.0,1
607,607,-0.44236466435514105,-0.4,0.0,1.0,385.0,570.0,1.0,0,555.0,1
608,608,-0.5300727635193825,-0.5,1.0,0.0,370.0,720.0,0.0,0,300.0,1
609,609,-0.894542596203248,-0.9,0.0,1.0,446.0,835.0,1.0,0,209.0,1
610,610,0.13453852640765362,0.1,0.0,0.0,305.0,516.0,1.0,0,469.0,0
611,611,0.1102113114911577,0.1,0.0,0.0,456.0,840.0,0.0,1,594.0,1
612,612,-0.8049853326868549,-0.8,0.0,1.0,359.0,848.0,1.0,0,273.0,1
613,613,0.5130951256315389,0.5,0.0,0.0,415.0,969.0,0.0,1,-24.0,1
614,614,-0.867863009126511,-0.9,0.0,1.0,253.0,816.0,1.0,0,141.0,1
615,615,-0.884114920798814,-0.9,1.0,0.0,255.0,606.0,0.0,0,679.0,1
616,616,-0.4505352412739557,-0.5,0.0,1.0,289.0,747.0,1.0,0,1134.0,1
617,617,-0.8352228628289444,-0.8,1.0,0.0,481.0,630.0,0.0,0,319.0,1
618,618,0.6946588384073565,0.7,0.0,0.0,337.0,939.0,0.0,1,814.0,1
619,619,0.24891871809225152,0.2,1.0,1.0,307.0,836.0,1.0,1,677.0,1
620,620,0.7414628799275395,0.7,0.0,0.0,321.0,990.0,1.0,0,-21.0,0
621,621,0.8635393742680707,0.9,0.0,0.0,488.0,851.0,0.0,1,451.0,1
622,622,-0.6008698267385794,-0.6,1.0,0.0,438.0,913.0,0.0,0,89.0,1
623,623,-0.8913935683631101,-0.9,0.0,1.0,276.0,917.0,1.0,0,177.0,1
624,624,0.7174574873722549,0.7,0.0,0.0,307.0,688.0,0.0,1,495.0,1
625,625,0.2076908344606868,0.2,1.0,1.0,401.0,697.0,1.0,1,702.0,1
626,626,0.205513547580373,0.2,0.0,0.0,378.0,989.0,0.0,1,153.0,1
627,627,0.3971744118408328,0.4,0.0,0.0,335.0,582.0,1.0,0,743.0,0
628,628,0.6818278455929435,0.7,0.0,0.0,359.0,899.0,0.0,1,212.0,1
629,629,0.34984960042220925,0.3,1.0,1.0,273.0,594.0,1.0,1,383.0,1
630,630,-0.4323473954910995,-0.4,0.0,1.0,491.0,722.0,1.0,0,517.0,1
631,631,-0.3507040397795884,-0.4,0.0,1.0,359.0,679.0,1.0,0,262.0,1
632,632,-0.20248077752461002,-0.2,0.0,1.0,340.0,907.0,1.0,0,133.0,1
633,633,0.06954651695860747,0.1,0.0,0.0,404.0,963.0,0.0,1,-7.0,1
634,634,0.8281347972456407,0.8,1.0,1.0,413.0,918.0,1.0,1,99.0,1
635,635,-0.7799750447839201,-0.8,0.0,1.0,457.0,547.0,1.0,0,416.0,1
636,636,0.2655047032197769,0.3,0.0,0.0,397.0,754.0,0.0,1,539.0,1
637,637,0.22647953728095016,0.2,0.0,0.0,481.0,880.0,1.0,0,399.0,0
638,638,-0.3226770294556687,-0.3,1.0,0.0,322.0,729.0,0.0,0,719.0,1
639,639,0.41878760065452403,0.4,0.0,0.0,293.0,600.0,1.0,0,1097.0,0
640,640,0.5827686016163923,0.6,1.0,1.0,312.0,731.0,1.0,1,667.0,1
641,641,-0.4674715383375247,-0.5,1.0,0.0,297.0,982.0,0.0,0,501.0,1
642,642,-0.8663619039793357,-0.9,0.0,1.0,258.0,589.0,1.0,0,683.0,1
643,643,-0.8310032091209174,-0.8,1.0,0.0,377.0,769.0,0.0,0,254.0,1
644,644,0.5062242229231232,0.5,1.0,1.0,475.0,578.0,1.0,1,407.0,1
645,645,-0.4835387408328156,-0.5,1.0,0.0,378.0,717.0,0.0,0,485.0,1
646,646,-0.05764835501677912,-0.1,1.0,0.0,335.0,755.0,0.0,0,1120.0,1
647,647,0.4999803385203275,0.5,1.0,1.0,276.0,604.0,1.0,1,660.0,1
648,648,-0.5815302955781481,-0.6,1.0,0.0,294.0,891.0,0.0,0,315.0,1
649,649,-0.7135530028416239,-0.7,0.0,1.0,339.0,558.0,1.0,0,803.0,1
650,650,-0.0017822301267679252,-0.0,1.0,0.0,285.0,543.0,0.0,0,582.0,1
651,651,-0.5016566227428362,-0.5,1.0,0.0,341.0,644.0,0.0,0,205.0,1
652,652,0.7318753625190179,0.7,0.0,0.0,375.0,895.0,1.0,0,50.0,0
653,653,0.8753213211744798,0.9,1.0,1.0,359.0,918.0,1.0,1,173.0,1
654,654,-0.5198593836691536,-0.5,1.0,0.0,277.0,936.0,0.0,0,7.0,1
655,655,0.6384647519501211,0.6,1.0,1.0,446.0,778.0,1.0,1,246.0,1
656,656,-0.24911376026637133,-0.2,1.0,0.0,266.0,581.0,0.0,0,493.0,1
657,657,0.41181164113144153,0.4,0.0,0.0,456.0,716.0,1.0,0,318.0,0
658,658,-0.6433354455071941,-0.6,1.0,0.0,407.0,535.0,0.0,0,548.0,1
659,659,-0.4059595945318888,-0.4,1.0,0.0,403.0,633.0,0.0,0,874.0,1
660,660,-0.8934843080424818,-0.9,1.0,0.0,251.0,775.0,0.0,0,334.0,1
661,661,0.47083166798417164,0.5,1.0,1.0,380.0,963.0,1.0,1,137.0,1
662,662,-0.5416222988468922,-0.5,0.0,1.0,440.0,759.0,1.0,0,291.0,1
663,663,-0.018996942675268635,-0.0,1.0,0.0,483.0,703.0,1.0,1,554.0,0
664,664,0.5398139620625958,0.5,1.0,1.0,260.0,500.0,1.0,1,810.0,1
665,665,0.543906069169607,0.5,0.0,0.0,254.0,588.0,1.0,0,688.0,0
666,666,0.42749417696651737,0.4,0.0,0.0,353.0,537.0,0.0,1,520.0,1
667,667,-0.04373128081068178,-0.0,0.0,1.0,315.0,752.0,1.0,0,33.0,1
668,668,0.14740987748153145,0.1,0.0,0.0,364.0,589.0,0.0,1,447.0,1
669,669,-0.19857616158605307,-0.2,0.0,1.0,311.0,670.0,1.0,0,559.0,1
670,670,-0.6640265151850815,-0.7,0.0,1.0,370.0,642.0,1.0,0,88.0,1
671,671,-0.3848533670055392,-0.4,1.0,0.0,345.0,559.0,0.0,0,686.0,1
672,672,0.13679437471376776,0.1,1.0,1.0,297.0,528.0,1.0,1,595.0,1
673,673,-0.24075038679772187,-0.2,1.0,0.0,304.0,965.0,1.0,1,111.0,0
674,674,0.8999668636181454,0.9,0.0,0.0,277.0,779.0,0.0,1,434.0,1
675,675,0.6825584077745818,0.7,1.0,1.0,290.0,747.0,1.0,1,153.0,1
676,676,-0.24100557607768147,-0.2,1.0,0.0,448.0,589.0,0.0,0,243.0,1
677,677,0.08098696331537003,0.1,1.0,1.0,259.0,603.0,1.0,1,1178.0,1
678,678,0.35703045279052603,0.4,0.0,0.0,388.0,500.0,1.0,0,562.0,0
679,679,-0.789365590204724,-0.8,0.0,1.0,287.0,595.0,1.0,0,308.0,1
680,680,-0.7966219359589511,-0.8,0.0,1.0,371.0,508.0,1.0,0,531.0,1
681,681,0.42377575989889193,0.4,0.0,0.0,410.0,698.0,0.0,1,872.0,1
682,682,0.6464210876402504,0.6,0.0,0.0,376.0,933.0,0.0,1,541.0,1
683,683,-0.5131246839137298,-0.5,1.0,0.0,257.0,757.0,0.0,0,326.0,1
684,684,0.14701077814645036,0.1,0.0,0.0,320.0,948.0,1.0,0,1232.0,0
685,685,-0.21372353462001215,-0.2,1.0,0.0,370.0,944.0,0.0,0,156.0,1
686,686,-0.39732805970755036,-0.4,1.0,0.0,379.0,534.0,0.0,0,757.0,1
687,687,-0.8249720868454321,-0.8,1.0,0.0,397.0,658.0,0.0,0,435.0,1
688,688,-0.15414356602919732,-0.2,0.0,1.0,288.0,825.0,1.0,0,37.0,1
689,689,0.6856496755367566,0.7,1.0,1.0,256.0,654.0,1.0,1,370.0,1
690,690,-0.18027736241868664,-0.2,1.0,0.0,319.0,531.0,0.0,0,500.0,1
691,691,-0.7410131967229503,-0.7,1.0,0.0,347.0,643.0,0.0,0,430.0,1
692,692,-0.8110254353054683,-0.8,0.0,1.0,469.0,765.0,1.0,0,306.0,1
693,693,0.6036463581029167,0.6,1.0,1.0,307.0,699.0,1.0,1,404.0,1
694,694,-0.16178265245030854,-0.2,1.0,0.0,439.0,528.0,0.0,0,513.0,1
695,695,0.27597892833641613,0.3,0.0,0.0,452.0,937.0,1.0,0,471.0,0
696,696,-0.00015307790772023377,-0.0,0.0,1.0,350.0,721.0,1.0,0,449.0,1
697,697,0.46782545349161897,0.5,0.0,0.0,292.0,699.0,0.0,1,789.0,1
698,698,-0.04367614314998303,-0.0,0.0,1.0,281.0,831.0,0.0,1,438.0,0
699,699,0.3332565514015683,0.3,1.0,1.0,286.0,511.0,0.0,0,383.0,0
700,700,-0.8758972221911698,-0.9,1.0,0.0,421.0,617.0,0.0,0,372.0,1
701,701,0.5715903607576017,0.6,0.0,0.0,400.0,780.0,1.0,0,30.0,0
702,702,0.39101157755610727,0.4,0.0,0.0,450.0,870.0,0.0,1,1250.0,1
703,703,-0.7886962048531257,-0.8,0.0,1.0,253.0,680.0,1.0,0,237.0,1
704,704,0.8535114088628099,0.9,0.0,0.0,351.0,696.0,0.0,1,543.0,1
705,705,-0.4396814938138312,-0.4,1.0,0.0,283.0,734.0,0.0,0,373.0,1
706,706,-0.07450305113684363,-0.1,0.0,1.0,383.0,914.0,0.0,1,-137.0,0
707,707,0.8934352788206285,0.9,1.0,1.0,419.0,729.0,1.0,1,232.0,1
708,708,0.527086417459152,0.5,0.0,0.0,276.0,613.0,0.0,1,491.0,1
709,709,0.7610783512555551,0.8,1.0,1.0,481.0,806.0,1.0,1,83.0,1
710,710,0.7416766014954271,0.7,0.0,0.0,460.0,723.0,0.0,1,477.0,1
711,711,-0.512188478399314,-0.5,1.0,0.0,366.0,941.0,0.0,0,253.0,1
712,712,-0.39643484529846984,-0.4,0.0,1.0,429.0,878.0,1.0,0,23.0,1
713,713,0.5415857703337003,0.5,1.0,1.0,292.0,511.0,1.0,1,537.0,1
714,714,-0.0373967065420413,-0.0,1.0,0.0,322.0,788.0,0.0,0,340.0,1
715,715,-0.6025106491598216,-0.6,1.0,0.0,369.0,519.0,0.0,0,602.0,1
716,716,-0.49604962502704325,-0.5,0.0,1.0,419.0,560.0,1.0,0,591.0,1
717,717,0.4521201366032427,0.5,1.0,1.0,324.0,980.0,1.0,1,16.0,1
718,718,0.8959318372507118,0.9,1.0,1.0,365.0,679.0,1.0,1,346.0,1
719,719,-0.052936062286048746,-0.1,1.0,0.0,353.0,864.0,0.0,0,233.0,1
720,720,0.2232766248264607,0.2,0.0,0.0,448.0,977.0,1.0,0,175.0,0
721,721,0.28350633093332067,0.3,1.0,1.0,312.0,729.0,0.0,0,189.0,0
722,722,0.42230486838202197,0.4,0.0,0.0,469.0,515.0,0.0,1,676.0,1
723,723,0.8447269012093824,0.8,0.0,0.0,446.0,735.0,0.0,1,589.0,1
724,724,0.5116942312856433,0.5,0.0,0.0,490.0,529.0,0.0,1,911.0,1
725,725,0.0183228353031889,0.0,1.0,1.0,293.0,516.0,1.0,1,511.0,1
726,726,0.7456369453414905,0.7,1.0,1.0,333.0,695.0,1.0,1,202.0,1
727,727,-0.28718915298411307,-0.3,0.0,1.0,441.0,551.0,1.0,0,688.0,1
728,728,0.24146721758820433,0.2,0.0,0.0,329.0,847.0,1.0,0,624.0,0
729,729,-0.33620876888192086,-0.3,0.0,1.0,411.0,976.0,1.0,0,333.0,1
730,730,0.5814137509476164,0.6,0.0,0.0,476.0,893.0,1.0,0,381.0,0
731,731,0.37470145613005934,0.4,1.0,1.0,367.0,642.0,1.0,1,171.0,1
732,732,-0.005003221886419884,-0.0,0.0,1.0,284.0,710.0,0.0,1,496.0,0
733,733,0.069295694202553,0.1,0.0,0.0,409.0,631.0,1.0,0,750.0,0
734,734,-0.09011060868548526,-0.1,0.0,1.0,349.0,787.0,1.0,0,214.0,1
735,735,-0.669201169930607,-0.7,1.0,0.0,286.0,569.0,0.0,0,505.0,1
736,736,0.0723729565569573,0.1,1.0,1.0,429.0,599.0,1.0,1,322.0,1
737,737,0.47312029039206493,0.5,1.0,1.0,387.0,685.0,1.0,1,758.0,1
738,738,-0.5051059663027699,-0.5,0.0,1.0,309.0,934.0,1.0,0,-113.0,1
739,739,0.5784380245820911,0.6,1.0,1.0,389.0,911.0,1.0,1,150.0,1
740,740,0.8769132054089793,0.9,0.0,0.0,365.0,863.0,0.0,1,372.0,1
741,741,0.8709116811130636,0.9,1.0,1.0,477.0,506.0,1.0,1,337.0,1
742,742,-0.19560327461240623,-0.2,0.0,1.0,443.0,958.0,1.0,0,29.0,1
743,743,-0.34555497202399266,-0.3,1.0,0.0,391.0,812.0,0.0,0,457.0,1
744,744,0.13828074254597855,0.1,0.0,0.0,268.0,501.0,1.0,0,1461.0,0
745,745,-0.139118740389218,-0.1,1.0,0.0,301.0,713.0,0.0,0,246.0,1
746,746,-0.3026871346750952,-0.3,0.0,1.0,421.0,554.0,1.0,0,1005.0,1
747,747,0.15206914642314617,0.2,0.0,0.0,254.0,519.0,1.0,0,1057.0,0
748,748,0.4205401830936214,0.4,1.0,1.0,354.0,998.0,0.0,0,-182.0,0
749,749,-0.7889435839589555,-0.8,1.0,0.0,375.0,588.0,0.0,0,317.0,1
750,750,0.7788967650554427,0.8,0.0,0.0,441.0,567.0,0.0,1,462.0,1
751,751,-0.37062676753146195,-0.4,0.0,1.0,288.0,797.0,1.0,0,525.0,1
752,752,-0.7253936554659701,-0.7,0.0,1.0,296.0,801.0,1.0,0,243.0,1
753,753,0.3908284389456972,0.4,1.0,1.0,396.0,530.0,1.0,1,324.0,1
754,754,0.3407453381835913,0.3,0.0,0.0,451.0,773.0,0.0,1,746.0,1
755,755,-0.7891508646601363,-0.8,0.0,1.0,419.0,927.0,1.0,0,14.0,1
756,756,-0.27629167548314093,-0.3,1.0,0.0,250.0,994.0,1.0,1,-14.0,0
757,757,-0.6084585672566756,-0.6,0.0,1.0,354.0,546.0,1.0,0,390.0,1
758,758,0.19466337766095887,0.2,1.0,1.0,480.0,565.0,0.0,0,265.0,0
759,759,0.07590535886988747,0.1,1.0,1.0,296.0,675.0,1.0,1,289.0,1
760,760,-0.7554600248154331,-0.8,1.0,0.0,446.0,985.0,0.0,0,219.0,1
761,761,-0.03756274504661172,-0.0,1.0,0.0,431.0,809.0,0.0,0,600.0,1
762,762,-0.830002145165355,-0.8,1.0,0.0,387.0,723.0,0.0,0,430.0,1
763,763,0.290725604799808,0.3,1.0,1.0,371.0,553.0,1.0,1,466.0,1
764,764,0.2417961194703958,0.2,0.0,0.0,470.0,707.0,1.0,0,1843.0,0
765,765,0.21717394380083965,0.2,0.0,0.0,274.0,862.0,0.0,1,374.0,1
766,766,0.38281244096670164,0.4,1.0,1.0,410.0,651.0,1.0,1,399.0,1
767,767,0.17600390896683715,0.2,0.0,0.0,337.0,800.0,1.0,0,63.0,0
768,768,0.47748799321941127,0.5,0.0,0.0,368.0,813.0,0.0,1,379.0,1
769,769,-0.06663660661688942,-0.1,1.0,0.0,271.0,749.0,0.0,0,80.0,1
770,770,0.15340878558491033,0.2,1.0,1.0,262.0,970.0,0.0,0,208.0,0
771,771,0.2899064226241962,0.3,0.0,0.0,409.0,547.0,1.0,0,464.0,0
772,772,-0.804536885134283,-0.8,0.0,1.0,342.0,746.0,1.0,0,82.0,1
773,773,0.5012716445430826,0.5,1.0,1.0,294.0,879.0,1.0,1,267.0,1
774,774,0.5548780653592883,0.6,1.0,1.0,479.0,942.0,1.0,1,539.0,1
775,775,-0.33648213098055313,-0.3,1.0,0.0,360.0,625.0,0.0,0,725.0,1
776,776,0.8865648967681728,0.9,0.0,0.0,331.0,502.0,0.0,1,697.0,1
777,777,0.7663133943865402,0.8,1.0,1.0,344.0,896.0,1.0,1,590.0,1
778,778,-0.25275228668087535,-0.3,0.0,1.0,482.0,908.0,1.0,0,80.0,1
779,779,-0.42259793175628785,-0.4,0.0,1.0,300.0,656.0,1.0,0,434.0,1
780,780,0.23348764135068023,0.2,1.0,1.0,323.0,542.0,1.0,1,465.0,1
781,781,0.8273508146806677,0.8,0.0,0.0,340.0,960.0,0.0,1,200.0,1
782,782,-0.5565840305053802,-0.6,1.0,0.0,274.0,753.0,0.0,0,913.0,1
783,783,0.06175530330496304,0.1,1.0,1.0,262.0,572.0,1.0,1,1036.0,1
784,784,-0.764826880695089,-0.8,0.0,1.0,264.0,665.0,1.0,0,241.0,1
785,785,0.5544003971792836,0.6,0.0,0.0,452.0,648.0,0.0,1,450.0,1
786,786,-0.13961300413011657,-0.1,0.0,1.0,442.0,709.0,1.0,0,359.0,1
787,787,-0.7425490089050274,-0.7,0.0,1.0,314.0,989.0,1.0,0,217.0,1
788,788,-0.2703508790139709,-0.3,1.0,0.0,373.0,804.0,0.0,0,113.0,1
789,789,-0.21747069005641428,-0.2,1.0,0.0,358.0,683.0,0.0,0,379.0,1
790,790,-0.8187417863141896,-0.8,0.0,1.0,432.0,945.0,1.0,0,283.0,1
791,791,0.5132869284113702,0.5,1.0,1.0,361.0,994.0,1.0,1,315.0,1
792,792,0.7750283903955807,0.8,1.0,1.0,459.0,608.0,1.0,1,193.0,1
793,793,0.1695964952549841,0.2,0.0,0.0,425.0,606.0,0.0,1,719.0,1
794,794,-0.7946446576410519,-0.8,0.0,1.0,392.0,856.0,1.0,0,222.0,1
795,795,-0.5747000929496526,-0.6,0.0,1.0,460.0,676.0,1.0,0,234.0,1
796,796,-0.030856570457336252,-0.0,0.0,1.0,458.0,528.0,1.0,0,1404.0,1
797,797,-0.024853617284312235,-0.0,0.0,1.0,421.0,559.0,1.0,0,740.0,1
798,798,-0.8928086720072129,-0.9,0.0,1.0,397.0,532.0,1.0,0,391.0,1
799,799,0.6284563656495633,0.6,1.0,1.0,338.0,702.0,1.0,1,380.0,1
800,800,-0.21541394789160795,-0.2,0.0,1.0,341.0,829.0,1.0,0,40.0,1
801,801,0.006221469622210485,0.0,1.0,1.0,281.0,614.0,0.0,0,705.0,0
802,802,0.7087246913427182,0.7,0.0,0.0,418.0,827.0,0.0,1,205.0,1
803,803,-0.3279319991254698,-0.3,0.0,1.0,350.0,924.0,1.0,0,286.0,1
804,804,0.7004526365936562,0.7,0.0,0.0,345.0,945.0,1.0,0,60.0,0
805,805,-0.28069917751368956,-0.3,0.0,1.0,326.0,684.0,1.0,0,470.0,1
806,806,-0.08438438769257395,-0.1,1.0,0.0,495.0,919.0,1.0,1,-54.0,0
807,807,0.7066776309358606,0.7,0.0,0.0,277.0,691.0,0.0,1,632.0,1
808,808,0.848552056602046,0.8,0.0,0.0,383.0,923.0,0.0,1,154.0,1
809,809,-0.6801398983785087,-0.7,1.0,0.0,448.0,792.0,0.0,0,80.0,1
810,810,-0.770003898194067,-0.8,0.0,1.0,340.0,706.0,1.0,0,164.0,1
811,811,-0.7497611537114159,-0.7,0.0,1.0,463.0,597.0,1.0,0,490.0,1
812,812,-0.5271405081166247,-0.5,0.0,1.0,273.0,534.0,1.0,0,363.0,1
813,813,-0.2972023776525172,-0.3,0.0,1.0,380.0,544.0,1.0,0,236.0,1
814,814,0.2619147108038963,0.3,0.0,0.0,253.0,852.0,0.0,1,825.0,1
815,815,-0.259688641251444,-0.3,0.0,1.0,373.0,913.0,1.0,0,134.0,1
816,816,-0.5441307131570736,-0.5,1.0,0.0,471.0,681.0,0.0,0,638.0,1
817,817,-0.6019024391928625,-0.6,1.0,0.0,286.0,753.0,0.0,0,241.0,1
818,818,0.37039600711606513,0.4,1.0,1.0,359.0,894.0,1.0,1,917.0,1
819,819,0.8115330425761133,0.8,1.0,1.0,332.0,907.0,1.0,1,291.0,1
820,820,0.6940972171247927,0.7,1.0,1.0,252.0,549.0,1.0,1,259.0,1
821,821,-0.0922805128655515,-0.1,1.0,0.0,319.0,811.0,1.0,1,150.0,0
822,822,-0.563316370394225,-0.6,0.0,1.0,319.0,729.0,1.0,0,272.0,1
823,823,-0.7597056393116034,-0.8,1.0,0.0,433.0,630.0,0.0,0,337.0,1
824,824,-0.2404332299142049,-0.2,1.0,0.0,317.0,835.0,1.0,1,358.0,0
825,825,-0.6335264562461446,-0.6,1.0,0.0,470.0,611.0,0.0,0,759.0,1
826,826,0.6598068925104025,0.7,0.0,0.0,461.0,872.0,0.0,1,387.0,1
827,827,-0.03562057393401563,-0.0,0.0,1.0,251.0,536.0,1.0,0,443.0,1
828,828,0.44999647490170924,0.4,1.0,1.0,273.0,708.0,1.0,1,1289.0,1
829,829,0.17033650381245302,0.2,1.0,1.0,440.0,559.0,1.0,1,411.0,1
830,830,-0.23083922224087783,-0.2,1.0,0.0,263.0,945.0,1.0,1,602.0,0
831,831,0.28205597675616534,0.3,0.0,0.0,359.0,699.0,1.0,0,1032.0,0
832,832,-0.4145188954486084,-0.4,1.0,0.0,376.0,714.0,0.0,0,380.0,1
833,833,0.31074800995530827,0.3,0.0,0.0,409.0,956.0,0.0,1,295.0,1
834,834,-0.16331068040255647,-0.2,0.0,1.0,392.0,850.0,1.0,0,598.0,1
835,835,-0.2158059647418118,-0.2,0.0,1.0,350.0,998.0,1.0,0,32.0,1
836,836,0.2406509302576908,0.2,1.0,1.0,254.0,513.0,1.0,1,863.0,1
837,837,0.17041422229404002,0.2,0.0,0.0,362.0,563.0,1.0,0,735.0,0
838,838,-0.15461685186998453,-0.2,0.0,1.0,394.0,618.0,1.0,0,258.0,1
839,839,0.7467360274820297,0.7,1.0,1.0,492.0,519.0,1.0,1,939.0,1
840,840,0.1399958577336623,0.1,1.0,1.0,488.0,540.0,0.0,0,162.0,0
841,841,0.5840368535234092,0.6,1.0,1.0,306.0,981.0,1.0,1,553.0,1
842,842,0.6798739201420639,0.7,1.0,1.0,274.0,624.0,1.0,1,532.0,1
843,843,0.1239740989641479,0.1,0.0,0.0,374.0,621.0,1.0,0,475.0,0
844,844,0.25486400388142527,0.3,1.0,1.0,359.0,993.0,1.0,1,-2.0,1
845,845,0.7171399173038108,0.7,0.0,0.0,250.0,655.0,0.0,1,725.0,1
846,846,0.1703399027221687,0.2,1.0,1.0,252.0,920.0,0.0,0,218.0,0
847,847,0.7985222478953432,0.8,1.0,1.0,471.0,838.0,1.0,1,341.0,1
848,848,0.5996190907746531,0.6,0.0,0.0,422.0,607.0,0.0,1,471.0,1
849,849,-0.5535204080561682,-0.6,1.0,0.0,452.0,677.0,0.0,0,281.0,1
850,850,0.07013355531575005,0.1,1.0,1.0,397.0,864.0,0.0,0,469.0,0
851,851,-0.5491753022623542,-0.5,1.0,0.0,414.0,941.0,0.0,0,615.0,1
852,852,0.09792850120692498,0.1,1.0,1.0,277.0,575.0,0.0,0,578.0,0
853,853,0.8521356017766236,0.9,0.0,0.0,409.0,590.0,0.0,1,511.0,1
854,854,-0.31579262849888723,-0.3,1.0,0.0,461.0,741.0,0.0,0,428.0,1
855,855,-0.84847419312199,-0.8,0.0,1.0,494.0,906.0,1.0,0,230.0,1
856,856,0.2021320159467147,0.2,0.0,0.0,466.0,802.0,0.0,1,502.0,1
857,857,-0.007268335628001998,-0.0,0.0,1.0,453.0,644.0,0.0,1,683.0,0
858,858,0.4953998308686284,0.5,1.0,1.0,359.0,713.0,1.0,1,288.0,1
859,859,0.5468156834467072,0.5,1.0,1.0,312.0,964.0,1.0,1,264.0,1
860,860,-0.7739250908726172,-0.8,0.0,1.0,487.0,746.0,1.0,0,57.0,1
861,861,-0.2131262188206028,-0.2,0.0,1.0,325.0,762.0,1.0,0,233.0,1
862,862,0.058344589007118586,0.1,0.0,0.0,441.0,604.0,1.0,0,235.0,0
863,863,-0.8498301895539031,-0.8,0.0,1.0,394.0,539.0,1.0,0,467.0,1
864,864,0.28069919209102057,0.3,1.0,1.0,387.0,630.0,0.0,0,1373.0,0
865,865,0.4962893601388191,0.5,1.0,1.0,334.0,919.0,0.0,0,17.0,0
866,866,0.13976494922800875,0.1,0.0,0.0,461.0,700.0,1.0,0,789.0,0
867,867,0.7902725682228117,0.8,1.0,1.0,358.0,697.0,1.0,1,385.0,1
868,868,0.012129528662204514,0.0,0.0,0.0,394.0,832.0,1.0,0,54.0,0
869,869,0.3393935927232715,0.3,1.0,1.0,401.0,687.0,1.0,1,502.0,1
870,870,-0.39372313894195654,-0.4,0.0,1.0,403.0,974.0,1.0,0,-57.0,1
871,871,-0.45247072530594573,-0.5,0.0,1.0,392.0,719.0,1.0,0,279.0,1
872,872,0.4359865091985119,0.4,1.0,1.0,440.0,643.0,1.0,1,547.0,1
873,873,0.7326168619694341,0.7,0.0,0.0,292.0,858.0,0.0,1,260.0,1
874,874,0.8986133395684343,0.9,0.0,0.0,416.0,594.0,0.0,1,500.0,1
875,875,0.8529975911751709,0.9,0.0,0.0,342.0,518.0,0.0,1,770.0,1
876,876,-0.826613480603318,-0.8,1.0,0.0,393.0,904.0,0.0,0,433.0,1
877,877,-0.45313219443321767,-0.5,0.0,1.0,299.0,929.0,1.0,0,152.0,1
878,878,0.7786009510463879,0.8,1.0,1.0,353.0,871.0,1.0,1,426.0,1
879,879,-0.5367397502436118,-0.5,1.0,0.0,339.0,578.0,0.0,0,283.0,1
880,880,0.6162413012846298,0.6,0.0,0.0,475.0,850.0,0.0,1,425.0,1
881,881,-0.738364930205825,-0.7,0.0,1.0,327.0,806.0,1.0,0,287.0,1
882,882,0.2987352424921689,0.3,1.0,1.0,307.0,763.0,1.0,1,270.0,1
883,883,0.16259466679918966,0.2,1.0,1.0,481.0,697.0,1.0,1,552.0,1
884,884,0.4582223572380487,0.5,0.0,0.0,418.0,580.0,1.0,0,722.0,0
885,885,0.10110502932580123,0.1,1.0,1.0,351.0,976.0,1.0,1,173.0,1
886,886,-0.8412510365235011,-0.8,0.0,1.0,460.0,836.0,1.0,0,234.0,1
887,887,-0.18299917118716347,-0.2,0.0,1.0,250.0,894.0,1.0,0,236.0,1
888,888,0.251031589043584,0.3,1.0,1.0,484.0,532.0,1.0,1,654.0,1
889,889,0.8675127693547299,0.9,1.0,1.0,403.0,703.0,1.0,1,194.0,1
890,890,0.6206104750082607,0.6,1.0,1.0,355.0,815.0,1.0,1,270.0,1
891,891,0.16945310669093672,0.2,0.0,0.0,420.0,693.0,1.0,0,507.0,0
892,892,0.76157720261961,0.8,1.0,1.0,302.0,740.0,1.0,1,1138.0,1
893,893,-0.45294736442555644,-0.5,1.0,0.0,345.0,640.0,0.0,0,585.0,1
894,894,0.07677377853842926,0.1,0.0,0.0,266.0,921.0,1.0,0,-47.0,0
895,895,0.11960251251254983,0.1,0.0,0.0,376.0,740.0,0.0,1,724.0,1
896,896,-0.672569131298098,-0.7,1.0,0.0,394.0,758.0,1.0,1,568.0,0
897,897,0.12024454057997802,0.1,0.0,0.0,326.0,532.0,1.0,0,472.0,0
898,898,0.2862622137339411,0.3,0.0,0.0,321.0,711.0,0.0,1,838.0,1
899,899,0.2212521769066208,0.2,0.0,0.0,398.0,905.0,1.0,0,557.0,0
900,900,-0.6010604235130714,-0.6,0.0,1.0,266.0,847.0,1.0,0,1077.0,1
901,901,-0.40882921066397315,-0.4,0.0,1.0,472.0,724.0,1.0,0,184.0,1
902,902,0.698190370236022,0.7,1.0,1.0,324.0,922.0,1.0,1,254.0,1
903,903,0.1338261466879579,0.1,0.0,0.0,384.0,712.0,0.0,1,474.0,1
904,904,0.324026020078671,0.3,1.0,1.0,338.0,952.0,1.0,1,-120.0,1
905,905,0.7098202645085866,0.7,1.0,1.0,280.0,569.0,1.0,1,381.0,1
906,906,-0.3662259474639602,-0.4,0.0,1.0,300.0,901.0,1.0,0,179.0,1
907,907,-0.6013018488062057,-0.6,0.0,1.0,288.0,930.0,1.0,0,262.0,1
908,908,0.39253171269081666,0.4,1.0,1.0,482.0,846.0,1.0,1,232.0,1
909,909,0.5359818639759287,0.5,1.0,1.0,288.0,775.0,1.0,1,127.0,1
910,910,-0.31597646678307423,-0.3,0.0,1.0,451.0,547.0,1.0,0,192.0,1
911,911,-0.7501480667699091,-0.8,1.0,0.0,410.0,658.0,0.0,0,482.0,1
912,912,0.5473849407978176,0.5,0.0,0.0,262.0,551.0,0.0,1,517.0,1
913,913,0.6456873726196305,0.6,0.0,0.0,480.0,761.0,1.0,0,89.0,0
914,914,0.3589985353765227,0.4,0.0,0.0,472.0,531.0,0.0,1,637.0,1
915,915,0.6917558822107203,0.7,0.0,0.0,488.0,631.0,0.0,1,321.0,1
916,916,-0.6757707744170199,-0.7,1.0,0.0,283.0,581.0,0.0,0,386.0,1
917,917,0.7105180975908124,0.7,0.0,0.0,449.0,918.0,0.0,1,383.0,1
918,918,-0.20184983939767653,-0.2,0.0,1.0,423.0,661.0,1.0,0,566.0,1
919,919,0.8230291217186411,0.8,1.0,1.0,479.0,794.0,1.0,1,377.0,1
920,920,0.23054832811606285,0.2,0.0,0.0,323.0,995.0,1.0,0,102.0,0
921,921,-0.7574479194794678,-0.8,0.0,1.0,471.0,877.0,1.0,0,172.0,1
922,922,-0.16116985151198637,-0.2,0.0,1.0,314.0,699.0,1.0,0,1367.0,1
923,923,0.3366509145392095,0.3,0.0,0.0,363.0,957.0,0.0,1,650.0,1
924,924,0.8123083207306084,0.8,0.0,0.0,250.0,566.0,0.0,1,824.0,1
925,925,-0.0359876128192671,-0.0,1.0,0.0,298.0,917.0,1.0,1,255.0,0
926,926,0.8698534436216449,0.9,0.0,0.0,493.0,813.0,0.0,1,134.0,1
927,927,-0.2880192628130621,-0.3,0.0,1.0,301.0,870.0,1.0,0,79.0,1
928,928,-0.2746505172018491,-0.3,1.0,0.0,404.0,797.0,0.0,0,569.0,1
929,929,0.8963573631641782,0.9,0.0,0.0,332.0,534.0,0.0,1,354.0,1
930,930,0.8413687631943242,0.8,0.0,0.0,318.0,627.0,0.0,1,655.0,1
931,931,0.8681992233890393,0.9,1.0,1.0,262.0,688.0,1.0,1,320.0,1
932,932,-0.15484861325375887,-0.2,1.0,0.0,402.0,876.0,0.0,0,522.0,1
933,933,-0.07964476132931841,-0.1,0.0,1.0,261.0,767.0,1.0,0,932.0,1
934,934,0.36795458410219706,0.4,1.0,1.0,358.0,865.0,1.0,1,467.0,1
935,935,-0.46359320447302865,-0.5,0.0,1.0,390.0,986.0,1.0,0,114.0,1
936,936,-0.2914934544008353,-0.3,0.0,1.0,444.0,707.0,1.0,0,609.0,1
937,937,0.22744192231770055,0.2,0.0,0.0,460.0,951.0,0.0,1,239.0,1
938,938,0.619333416323545,0.6,0.0,0.0,317.0,600.0,0.0,1,803.0,1
939,939,0.009323799281943379,0.0,0.0,0.0,445.0,883.0,0.0,1,182.0,1
940,940,-0.3181661075029508,-0.3,1.0,0.0,387.0,567.0,0.0,0,766.0,1
941,941,-0.8093211716314413,-0.8,1.0,0.0,363.0,641.0,0.0,0,276.0,1
942,942,-0.7279051827584664,-0.7,0.0,1.0,300.0,855.0,1.0,0,105.0,1
943,943,-0.6188476844089987,-0.6,1.0,0.0,271.0,509.0,0.0,0,440.0,1
944,944,0.1787054386982715,0.2,1.0,1.0,472.0,893.0,1.0,1,175.0,1
945,945,-0.24430623671434315,-0.2,0.0,1.0,378.0,828.0,1.0,0,54.0,1
946,946,-0.5719530205599641,-0.6,1.0,0.0,479.0,562.0,0.0,0,579.0,1
947,947,-0.851917539552498,-0.9,0.0,1.0,327.0,916.0,1.0,0,127.0,1
948,948,0.39480479917912115,0.4,1.0,1.0,417.0,973.0,1.0,1,590.0,1
949,949,0.33081450099363463,0.3,0.0,0.0,390.0,893.0,1.0,0,597.0,0
950,950,0.8551968122141994,0.9,0.0,0.0,381.0,762.0,0.0,1,597.0,1
951,951,-0.3073513023069062,-0.3,1.0,0.0,447.0,780.0,0.0,0,813.0,1
952,952,0.6263595901734392,0.6,0.0,0.0,411.0,835.0,0.0,1,394.0,1
953,953,-0.32657744153717916,-0.3,1.0,0.0,264.0,814.0,0.0,0,742.0,1
954,954,0.6121668770407819,0.6,1.0,1.0,303.0,619.0,1.0,1,328.0,1
955,955,-0.8329791486093798,-0.8,1.0,0.0,292.0,716.0,0.0,0,212.0,1
956,956,-0.6504656507777022,-0.7,1.0,0.0,465.0,605.0,0.0,0,620.0,1
957,957,-0.2239224079531944,-0.2,0.0,1.0,276.0,563.0,1.0,0,411.0,1
958,958,0.18942428061059668,0.2,1.0,1.0,486.0,979.0,1.0,1,115.0,1
959,959,-0.19513854237961625,-0.2,1.0,0.0,488.0,783.0,0.0,0,399.0,1
960,960,0.8131401244138005,0.8,1.0,1.0,316.0,809.0,1.0,1,115.0,1
961,961,0.2970240273676449,0.3,0.0,0.0,386.0,945.0,0.0,1,559.0,1
962,962,0.258896454694013,0.3,1.0,1.0,347.0,781.0,1.0,1,562.0,1
963,963,0.553637792549771,0.6,0.0,0.0,373.0,876.0,0.0,1,371.0,1
964,964,-0.5598960743939579,-0.6,0.0,1.0,412.0,582.0,1.0,0,426.0,1
965,965,0.8428991973590644,0.8,1.0,1.0,284.0,752.0,1.0,1,434.0,1
966,966,0.015069871070041319,0.0,1.0,1.0,272.0,748.0,1.0,1,340.0,1
967,967,0.04642553520108028,0.0,0.0,0.0,276.0,855.0,1.0,0,109.0,0
968,968,-0.3459948683032362,-0.3,1.0,0.0,388.0,531.0,0.0,0,501.0,1
969,969,-0.03827984502172033,-0.0,0.0,1.0,276.0,782.0,1.0,0,1222.0,1
970,970,-0.2407492904956302,-0.2,0.0,1.0,365.0,833.0,1.0,0,182.0,1
971,971,-0.842159808805538,-0.8,0.0,1.0,495.0,668.0,1.0,0,357.0,1
972,972,0.12832602815036742,0.1,1.0,1.0,478.0,932.0,0.0,0,150.0,0
973,973,-0.8386993392700016,-0.8,0.0,1.0,474.0,629.0,1.0,0,477.0,1
974,974,0.6964106381008158,0.7,0.0,0.0,405.0,877.0,1.0,0,28.0,0
975,975,0.0409703064930701,0.0,1.0,1.0,465.0,862.0,0.0,0,563.0,0
976,976,0.7419877553184063,0.7,0.0,0.0,342.0,845.0,0.0,1,563.0,1
977,977,0.5430887729315738,0.5,1.0,1.0,359.0,502.0,1.0,1,229.0,1
978,978,0.1074583658724545,0.1,1.0,1.0,350.0,839.0,1.0,1,121.0,1
979,979,0.5488699437353127,0.5,0.0,0.0,425.0,890.0,0.0,1,405.0,1
980,980,-0.5039138017437097,-0.5,0.0,1.0,324.0,775.0,1.0,0,201.0,1
981,981,-0.16688476433833244,-0.2,0.0,1.0,378.0,801.0,1.0,0,361.0,1
982,982,0.09089786890734142,0.1,0.0,0.0,391.0,914.0,1.0,0,1245.0,0
983,983,0.06710246627839467,0.1,1.0,1.0,270.0,955.0,1.0,1,445.0,1
984,984,-0.0778332155815813,-0.1,1.0,0.0,273.0,547.0,0.0,0,510.0,1
985,985,0.6955622909456091,0.7,1.0,1.0,445.0,851.0,1.0,1,154.0,1
986,986,-0.486337839305724,-0.5,1.0,0.0,469.0,514.0,0.0,0,507.0,1
987,987,0.1070076312564544,0.1,1.0,1.0,319.0,682.0,0.0,0,2889.0,0
988,988,-0.06893028248004474,-0.1,1.0,0.0,449.0,797.0,0.0,0,874.0,1
989,989,-0.2839112928998294,-0.3,0.0,1.0,459.0,526.0,0.0,1,645.0,0
990,990,-0.7900664380275438,-0.8,0.0,1.0,259.0,737.0,1.0,0,264.0,1
991,991,0.8792831018584312,0.9,0.0,0.0,260.0,713.0,0.0,1,527.0,1
992,992,0.6573948941564479,0.7,1.0,1.0,499.0,715.0,1.0,1,566.0,1
993,993,0.35551981512839304,0.4,1.0,1.0,403.0,739.0,1.0,1,1338.0,1
994,994,-0.31525911281357344,-0.3,1.0,0.0,291.0,604.0,0.0,0,635.0,1
995,995,0.6979516422199988,0.7,0.0,0.0,357.0,548.0,0.0,1,1715.0,1
996,996,0.2479203639256774,0.2,0.0,0.0,367.0,572.0,1.0,0,551.0,0
997,997,0.11102915703151572,0.1,1.0,1.0,452.0,971.0,1.0,1,1127.0,1
998,998,-0.6520154258286328,-0.7,1.0,0.0,391.0,500.0,0.0,0,299.0,1
999,999,-0.1360953345630116,-0.1,0.0,1.0,279.0,858.0,1.0,0,103.0,1
1000,1000,0.06693417234045396,0.1,1.0,1.0,312.0,788.0,1.0,1,130.0,1
1001,1001,0.047687484971256966,0.0,0.0,0.0,449.0,685.0,1.0,0,696.0,0
1002,1002,-0.7885522809781592,-0.8,0.0,1.0,475.0,925.0,1.0,0,140.0,1
1003,1003,-0.7792512852189176,-0.8,0.0,1.0,499.0,538.0,1.0,0,533.0,1
1004,1004,-0.7293611232948264,-0.7,0.0,1.0,272.0,514.0,1.0,0,684.0,1
1005,1005,-0.14541663590921705,-0.1,1.0,0.0,390.0,986.0,1.0,1,624.0,0
1006,1006,0.8948057927914977,0.9,1.0,1.0,470.0,720.0,1.0,1,270.0,1
1007,1007,0.42145369158726076,0.4,0.0,0.0,482.0,835.0,0.0,1,313.0,1
1008,1008,0.7194502410038351,0.7,0.0,0.0,338.0,967.0,0.0,1,35.0,1
1009,1009,-0.3120425676177885,-0.3,1.0,0.0,489.0,625.0,1.0,1,1506.0,0
1010,1010,0.23945298986809516,0.2,0.0,0.0,295.0,736.0,0.0,1,489.0,1
1011,1011,0.3729724484771687,0.4,0.0,0.0,266.0,901.0,0.0,1,143.0,1
1012,1012,-0.36724972506583864,-0.4,0.0,1.0,497.0,829.0,1.0,0,214.0,1
1013,1013,-0.042241217829673494,-0.0,1.0,0.0,265.0,759.0,0.0,0,86.0,1
1014,1014,0.8124714681539887,0.8,0.0,0.0,294.0,690.0,0.0,1,516.0,1
1015,1015,-0.7635216948717589,-0.8,0.0,1.0,426.0,919.0,1.0,0,325.0,1
1016,1016,-0.7732143472645956,-0.8,0.0,1.0,490.0,517.0,1.0,0,443.0,1
1017,1017,0.757533612884609,0.8,0.0,0.0,437.0,699.0,0.0,1,494.0,1
1018,1018,-0.5343075244848712,-0.5,0.0,1.0,260.0,512.0,1.0,0,618.0,1
1019,1019,0.4349956938748524,0.4,1.0,1.0,492.0,901.0,1.0,1,97.0,1
1020,1020,-0.43846954978359265,-0.4,0.0,1.0,445.0,879.0,1.0,0,86.0,1
1021,1021,-0.22133216039445303,-0.2,1.0,0.0,405.0,699.0,1.0,1,276.0,0
1022,1022,-0.4726314889690001,-0.5,0.0,1.0,480.0,645.0,1.0,0,265.0,1
1023,1023,-0.08913354593074085,-0.1,1.0,0.0,315.0,558.0,0.0,0,497.0,1
1024,1024,-0.2931944807757697,-0.3,1.0,0.0,425.0,628.0,0.0,0,927.0,1
1025,1025,0.25851799937169584,0.3,0.0,0.0,447.0,786.0,1.0,0,1347.0,0
1026,1026,0.2309218437199997,0.2,1.0,1.0,288.0,562.0,0.0,0,1260.0,0
1027,1027,0.30052908677841284,0.3,1.0,1.0,411.0,841.0,0.0,0,538.0,0
1028,1028,-0.8466232889616275,-0.8,0.0,1.0,325.0,694.0,1.0,0,381.0,1
1029,1029,0.393044845485338,0.4,1.0,1.0,307.0,973.0,1.0,1,30.0,1
1030,1030,0.5855136428776017,0.6,1.0,1.0,445.0,683.0,1.0,1,212.0,1
1031,1031,-0.8153526223623893,-0.8,0.0,1.0,352.0,815.0,1.0,0,213.0,1
1032,1032,-0.5146414814642347,-0.5,1.0,0.0,297.0,834.0,0.0,0,399.0,1
1033,1033,0.2691640124932101,0.3,0.0,0.0,404.0,732.0,1.0,0,434.0,0
1034,1034,0.798073345440374,0.8,1.0,1.0,344.0,611.0,1.0,1,1105.0,1
1035,1035,-0.8640349656236115,-0.9,1.0,0.0,453.0,673.0,0.0,0,194.0,1
1036,1036,0.7766505364949218,0.8,1.0,1.0,441.0,899.0,1.0,1,310.0,1
1037,1037,0.8224474771021645,0.8,0.0,0.0,492.0,815.0,0.0,1,823.0,1
1038,1038,0.2633724317610989,0.3,0.0,0.0,257.0,666.0,0.0,1,397.0,1
1039,1039,-0.8991154456547459,-0.9,0.0,1.0,373.0,574.0,1.0,0,423.0,1
1040,1040,0.33891383064620817,0.3,0.0,0.0,405.0,609.0,1.0,0,166.0,0
1041,1041,0.1174170759461276,0.1,1.0,1.0,347.0,967.0,1.0,1,-64.0,1
1042,1042,-0.169867338498627,-0.2,1.0,0.0,264.0,751.0,0.0,0,715.0,1
1043,1043,0.8794402183938478,0.9,1.0,1.0,278.0,947.0,0.0,0,-25.0,0
1044,1044,-0.059492261562751114,-0.1,0.0,1.0,468.0,699.0,1.0,0,223.0,1
1045,1045,0.11097286897193459,0.1,1.0,1.0,401.0,613.0,0.0,0,486.0,0
1046,1046,0.5937267897717992,0.6,1.0,1.0,489.0,521.0,1.0,1,560.0,1
1047,1047,0.8498691929332208,0.8,1.0,1.0,339.0,571.0,1.0,1,470.0,1
1048,1048,0.33947493129720374,0.3,0.0,0.0,275.0,638.0,1.0,0,1147.0,0
1049,1049,-0.5469167644293014,-0.5,0.0,1.0,309.0,507.0,1.0,0,584.0,1
1050,1050,-0.36085289213688887,-0.4,0.0,1.0,354.0,649.0,1.0,0,487.0,1
1051,1051,0.8832619983941091,0.9,1.0,1.0,448.0,560.0,1.0,1,382.0,1
1052,1052,-0.06959978361937547,-0.1,1.0,0.0,480.0,779.0,0.0,0,891.0,1
1053,1053,-0.6052705213662078,-0.6,0.0,1.0,407.0,976.0,1.0,0,207.0,1
1054,1054,-0.8757876736545902,-0.9,0.0,1.0,366.0,912.0,1.0,0,22.0,1
1055,1055,0.4202986122656206,0.4,0.0,0.0,426.0,830.0,0.0,1,534.0,1
1056,1056,0.3173532363900461,0.3,1.0,1.0,341.0,751.0,1.0,1,358.0,1
1057,1057,-0.3048008343622681,-0.3,1.0,0.0,316.0,940.0,0.0,0,184.0,1
1058,1058,0.0969493118200464,0.1,1.0,1.0,410.0,560.0,1.0,1,660.0,1
1059,1059,0.15219153010760855,0.2,1.0,1.0,404.0,991.0,1.0,1,335.0,1
1060,1060,0.7109944144847905,0.7,0.0,0.0,492.0,765.0,0.0,1,753.0,1
1061,1061,0.7385226586752661,0.7,0.0,0.0,486.0,572.0,0.0,1,342.0,1
1062,1062,0.44155521220514704,0.4,1.0,1.0,457.0,712.0,1.0,1,341.0,1
1063,1063,-0.7624515153706993,-0.8,1.0,0.0,432.0,607.0,0.0,0,321.0,1
1064,1064,-0.4998853803898739,-0.5,1.0,0.0,447.0,557.0,0.0,0,626.0,1
1065,1065,0.7532156685271524,0.8,0.0,0.0,342.0,971.0,0.0,1,447.0,1
1066,1066,-0.5620805293798705,-0.6,1.0,0.0,457.0,712.0,0.0,0,711.0,1
1067,1067,0.7821666657141882,0.8,1.0,1.0,332.0,860.0,1.0,1,238.0,1
1068,1068,0.426233137953418,0.4,1.0,1.0,257.0,781.0,1.0,1,842.0,1
1069,1069,-0.20302911567093773,-0.2,1.0,0.0,482.0,708.0,0.0,0,430.0,1
1070,1070,-0.8836253179570208,-0.9,1.0,0.0,260.0,729.0,0.0,0,401.0,1
1071,1071,-0.6345198718808959,-0.6,0.0,1.0,259.0,520.0,1.0,0,501.0,1
1072,1072,-0.34190100839898774,-0.3,0.0,1.0,377.0,969.0,1.0,0,-66.0,1
1073,1073,0.7358424869247718,0.7,0.0,0.0,446.0,519.0,0.0,1,1085.0,1
1074,1074,-0.15876481594704905,-0.2,0.0,1.0,359.0,551.0,0.0,1,880.0,0
1075,1075,0.8329869683666747,0.8,0.0,0.0,345.0,943.0,0.0,1,112.0,1
1076,1076,-0.37432754847129446,-0.4,1.0,0.0,261.0,575.0,0.0,0,414.0,1
1077,1077,-0.7323374579172797,-0.7,0.0,1.0,486.0,848.0,1.0,0,246.0,1
1078,1078,-0.48533686149081456,-0.5,0.0,1.0,257.0,852.0,1.0,0,181.0,1
1079,1079,0.21247666954691702,0.2,0.0,0.0,450.0,504.0,1.0,0,666.0,0
1080,1080,-0.21688694670625697,-0.2,1.0,0.0,276.0,682.0,1.0,1,482.0,0
1081,1081,0.7540745582714993,0.8,0.0,0.0,337.0,742.0,0.0,1,481.0,1
1082,1082,0.4442364043167569,0.4,1.0,1.0,413.0,647.0,1.0,1,720.0,1
1083,1083,0.5930856110885939,0.6,1.0,1.0,460.0,948.0,1.0,1,282.0,1
1084,1084,0.5927120018127351,0.6,1.0,1.0,483.0,503.0,1.0,1,694.0,1
1085,1085,-0.8421626901061052,-0.8,1.0,0.0,391.0,799.0,0.0,0,320.0,1
1086,1086,0.387667136168624,0.4,0.0,0.0,354.0,921.0,1.0,0,235.0,0
1087,1087,-0.5511819905628825,-0.6,0.0,1.0,409.0,884.0,1.0,0,337.0,1
1088,1088,0.40898687255229815,0.4,0.0,0.0,418.0,877.0,0.0,1,265.0,1
1089,1089,0.3241982981262578,0.3,0.0,0.0,396.0,959.0,0.0,1,1235.0,1
1090,1090,0.4748648879919418,0.5,1.0,1.0,393.0,513.0,1.0,1,364.0,1
1091,1091,-0.432458173565184,-0.4,0.0,1.0,300.0,761.0,1.0,0,389.0,1
1092,1092,-0.13174267486834756,-0.1,1.0,0.0,284.0,746.0,1.0,1,430.0,0
1093,1093,-0.6318990969292608,-0.6,0.0,1.0,465.0,762.0,1.0,0,333.0,1
1094,1094,0.6669746028316449,0.7,0.0,0.0,361.0,739.0,0.0,1,370.0,1
1095,1095,0.3621169543375685,0.4,0.0,0.0,408.0,845.0,0.0,1,557.0,1
1096,1096,-0.8001372113908642,-0.8,1.0,0.0,394.0,803.0,0.0,0,723.0,1
1097,1097,0.6552949829343645,0.7,1.0,1.0,412.0,909.0,1.0,1,59.0,1
1098,1098,0.10696011958087481,0.1,1.0,1.0,370.0,629.0,0.0,0,581.0,0
1099,1099,0.3689881885797409,0.4,0.0,0.0,452.0,611.0,0.0,1,327.0,1
1100,1100,0.7649809823692616,0.8,0.0,0.0,257.0,954.0,0.0,1,229.0,1
1101,1101,0.5326635775767724,0.5,0.0,0.0,460.0,941.0,1.0,0,89.0,0
1102,1102,-0.3857635320092033,-0.4,0.0,1.0,356.0,574.0,1.0,0,570.0,1
1103,1103,-0.837440012242833,-0.8,1.0,0.0,356.0,637.0,0.0,0,517.0,1
1104,1104,-0.002963350307132573,-0.0,0.0,1.0,447.0,733.0,0.0,1,1090.0,0
1105,1105,0.09337058291442091,0.1,0.0,0.0,277.0,989.0,1.0,0,184.0,0
1106,1106,0.27353029402310025,0.3,0.0,0.0,452.0,831.0,1.0,0,227.0,0
1107,1107,-0.5662824475442794,-0.6,0.0,1.0,375.0,584.0,1.0,0,581.0,1
1108,1108,-0.8929051963084235,-0.9,1.0,0.0,336.0,710.0,0.0,0,334.0,1
1109,1109,-0.4106089617968531,-0.4,0.0,1.0,370.0,600.0,1.0,0,590.0,1
1110,1110,0.744835431624827,0.7,0.0,0.0,254.0,560.0,0.0,1,566.0,1
1111,1111,-0.06520898812234444,-0.1,1.0,0.0,273.0,566.0,0.0,0,561.0,1
1112,1112,0.5112664991966721,0.5,0.0,0.0,391.0,734.0,0.0,1,305.0,1
1113,1113,-0.20675265527872566,-0.2,0.0,1.0,324.0,838.0,1.0,0,488.0,1
1114,1114,-0.5696297339796346,-0.6,1.0,0.0,410.0,922.0,0.0,0,468.0,1
1115,1115,-0.1324814362443848,-0.1,0.0,1.0,280.0,608.0,1.0,0,612.0,1
1116,1116,-0.3125934805077073,-0.3,0.0,1.0,343.0,771.0,1.0,0,346.0,1
1117,1117,-0.36799341679889874,-0.4,0.0,1.0,279.0,795.0,1.0,0,256.0,1
1118,1118,0.2235114074910659,0.2,0.0,0.0,343.0,828.0,0.0,1,809.0,1
1119,1119,0.47301998275543344,0.5,1.0,1.0,489.0,522.0,1.0,1,449.0,1
1120,1120,0.7851389408339607,0.8,1.0,1.0,413.0,722.0,1.0,1,435.0,1
1121,1121,0.8456880559635739,0.8,1.0,1.0,389.0,952.0,1.0,1,149.0,1
1122,1122,-0.6130784872743071,-0.6,1.0,0.0,327.0,818.0,0.0,0,675.0,1
1123,1123,0.4213192155969928,0.4,0.0,0.0,262.0,552.0,0.0,1,896.0,1
1124,1124,0.8951547033810116,0.9,0.0,0.0,447.0,966.0,0.0,1,147.0,1
1125,1125,0.7502670857541943,0.8,1.0,1.0,366.0,799.0,1.0,1,465.0,1
1126,1126,-0.8049802505188082,-0.8,0.0,1.0,399.0,965.0,1.0,0,476.0,1
1127,1127,-0.7686724589307126,-0.8,0.0,1.0,312.0,868.0,1.0,0,150.0,1
1128,1128,-0.8882619945496827,-0.9,0.0,1.0,326.0,859.0,1.0,0,325.0,1
1129,1129,-0.3773732703266143,-0.4,1.0,0.0,419.0,877.0,0.0,0,654.0,1
1130,1130,0.785640158061344,0.8,1.0,1.0,430.0,852.0,1.0,1,158.0,1
1131,1131,0.5127671223361089,0.5,0.0,0.0,405.0,866.0,0.0,1,199.0,1
1132,1132,0.5990616890137835,0.6,0.0,0.0,448.0,501.0,0.0,1,1021.0,1
1133,1133,-0.4163907969817742,-0.4,1.0,0.0,287.0,698.0,0.0,0,135.0,1
1134,1134,0.5491502243643663,0.5,0.0,0.0,471.0,581.0,0.0,1,558.0,1
1135,1135,-0.7408471672662977,-0.7,0.0,1.0,319.0,768.0,1.0,0,553.0,1
1136,1136,0.2156044679589687,0.2,1.0,1.0,453.0,915.0,1.0,1,222.0,1
1137,1137,0.2357646807203294,0.2,0.0,0.0,438.0,575.0,1.0,0,527.0,0
1138,1138,0.6471559946943694,0.6,1.0,1.0,273.0,726.0,1.0,1,281.0,1
1139,1139,0.46114216886472137,0.5,0.0,0.0,317.0,812.0,0.0,1,601.0,1
1140,1140,-0.06879224976677045,-0.1,1.0,0.0,315.0,664.0,0.0,0,1291.0,1
1141,1141,0.005938487753364474,0.0,0.0,0.0,344.0,883.0,1.0,0,193.0,0
1142,1142,0.7672974561422073,0.8,0.0,0.0,336.0,649.0,0.0,1,615.0,1
1143,1143,0.6694844584335639,0.7,1.0,1.0,413.0,502.0,1.0,1,435.0,1
1144,1144,-0.43664535697277257,-0.4,1.0,0.0,313.0,712.0,0.0,0,225.0,1
1145,1145,0.1410654051928638,0.1,1.0,1.0,332.0,650.0,1.0,1,548.0,1
1146,1146,-0.5554568023651933,-0.6,0.0,1.0,276.0,690.0,1.0,0,204.0,1
1147,1147,-0.7147259341256431,-0.7,0.0,1.0,305.0,719.0,1.0,0,466.0,1
1148,1148,0.42269969406577224,0.4,0.0,0.0,475.0,758.0,1.0,0,517.0,0
1149,1149,-0.5714221510954045,-0.6,1.0,0.0,431.0,763.0,0.0,0,446.0,1
1150,1150,-0.8526956430967653,-0.9,1.0,0.0,311.0,764.0,0.0,0,375.0,1
1151,1151,0.7907506086599806,0.8,1.0,1.0,305.0,677.0,1.0,1,478.0,1
1152,1152,0.6092602941586295,0.6,0.0,0.0,445.0,752.0,1.0,0,173.0,0
1153,1153,-0.8233487234752381,-0.8,0.0,1.0,420.0,721.0,1.0,0,239.0,1
1154,1154,-0.6845901697667018,-0.7,0.0,1.0,298.0,519.0,1.0,0,443.0,1
1155,1155,0.09801264455104353,0.1,1.0,1.0,409.0,764.0,0.0,0,2297.0,0
1156,1156,0.7918495790043433,0.8,1.0,1.0,472.0,561.0,1.0,1,337.0,1
1157,1157,0.14833955332921522,0.1,1.0,1.0,403.0,703.0,1.0,1,354.0,1
1158,1158,0.8386177782050767,0.8,1.0,1.0,346.0,786.0,1.0,1,168.0,1
1159,1159,-0.05945351837370261,-0.1,1.0,0.0,332.0,868.0,1.0,1,390.0,0
1160,1160,-0.8255960445112489,-0.8,0.0,1.0,483.0,750.0,1.0,0,267.0,1
1161,1161,0.09208885986557436,0.1,1.0,1.0,308.0,751.0,1.0,1,811.0,1
1162,1162,-0.6971886341452342,-0.7,1.0,0.0,412.0,588.0,0.0,0,830.0,1
1163,1163,0.7346647947721104,0.7,0.0,0.0,295.0,645.0,0.0,1,350.0,1
1164,1164,-0.8513905879506812,-0.9,1.0,0.0,344.0,981.0,0.0,0,115.0,1
1165,1165,-0.5498908737778088,-0.5,0.0,1.0,460.0,848.0,1.0,0,412.0,1
1166,1166,0.11416338179177765,0.1,0.0,0.0,412.0,560.0,1.0,0,1028.0,0
1167,1167,0.5634193456488804,0.6,0.0,0.0,296.0,682.0,0.0,1,672.0,1
1168,1168,0.43306521026866684,0.4,0.0,0.0,482.0,534.0,0.0,1,984.0,1
1169,1169,0.14370049943744567,0.1,0.0,0.0,476.0,947.0,1.0,0,277.0,0
1170,1170,-0.2949121445540509,-0.3,1.0,0.0,330.0,598.0,0.0,0,502.0,1
1171,1171,0.4618509609784168,0.5,0.0,0.0,376.0,973.0,1.0,0,191.0,0
1172,1172,0.22699638255329624,0.2,1.0,1.0,322.0,625.0,1.0,1,473.0,1
1173,1173,0.6080216203785581,0.6,1.0,1.0,490.0,755.0,1.0,1,335.0,1
1174,1174,-0.15397843948033285,-0.2,0.0,1.0,356.0,659.0,1.0,0,155.0,1
1175,1175,0.024444506707424707,0.0,1.0,1.0,305.0,643.0,0.0,0,692.0,0
1176,1176,0.05741104906212413,0.1,0.0,0.0,498.0,766.0,0.0,1,446.0,1
1177,1177,0.6758139226387908,0.7,1.0,1.0,457.0,624.0,1.0,1,439.0,1
1178,1178,0.8695411839479174,0.9,1.0,1.0,440.0,863.0,1.0,1,367.0,1
1179,1179,-0.7443930307292597,-0.7,0.0,1.0,480.0,561.0,1.0,0,439.0,1
1180,1180,-0.2232466219918703,-0.2,0.0,1.0,287.0,572.0,1.0,0,611.0,1
1181,1181,-0.5368878681577607,-0.5,0.0,1.0,255.0,988.0,1.0,0,-43.0,1
1182,1182,0.09202294580054837,0.1,0.0,0.0,293.0,975.0,1.0,0,-188.0,0
1183,1183,-0.3937793849257577,-0.4,1.0,0.0,463.0,584.0,0.0,0,703.0,1
1184,1184,0.4895440759465607,0.5,1.0,1.0,401.0,705.0,0.0,0,244.0,0
1185,1185,0.4584255930277731,0.5,1.0,1.0,342.0,500.0,1.0,1,278.0,1
1186,1186,0.03965011125738771,0.0,1.0,1.0,315.0,797.0,1.0,1,598.0,1
1187,1187,-0.1038176474633864,-0.1,1.0,0.0,407.0,895.0,0.0,0,298.0,1
1188,1188,0.8200029779338108,0.8,1.0,1.0,403.0,525.0,1.0,1,562.0,1
1189,1189,-0.35644412152269356,-0.4,1.0,0.0,480.0,718.0,0.0,0,742.0,1
1190,1190,-0.6271973543064882,-0.6,1.0,0.0,445.0,697.0,0.0,0,398.0,1
1191,1191,0.08062736215370869,0.1,1.0,1.0,403.0,624.0,1.0,1,753.0,1
1192,1192,0.18162746798552043,0.2,0.0,0.0,260.0,893.0,1.0,0,417.0,0
1193,1193,-0.5069149668109922,-0.5,0.0,1.0,367.0,700.0,1.0,0,303.0,1
1194,1194,0.7335418756373021,0.7,0.0,0.0,292.0,864.0,1.0,0,64.0,0
1195,1195,0.0713054619104112,0.1,1.0,1.0,445.0,614.0,1.0,1,541.0,1
1196,1196,-0.3204253368378792,-0.3,1.0,0.0,405.0,957.0,0.0,0,98.0,1
1197,1197,0.2558387757296844,0.3,1.0,1.0,403.0,857.0,1.0,1,180.0,1
1198,1198,0.38696009092724293,0.4,1.0,1.0,493.0,707.0,1.0,1,320.0,1
1199,1199,0.25644029344391905,0.3,1.0,1.0,415.0,648.0,0.0,0,777.0,0
1200,1200,-0.4591452027411726,-0.5,0.0,1.0,284.0,709.0,1.0,0,447.0,1
1201,1201,0.6290773610633152,0.6,0.0,0.0,259.0,783.0,0.0,1,528.0,1
1202,1202,0.16179729262177178,0.2,1.0,1.0,486.0,821.0,1.0,1,183.0,1
1203,1203,0.8533816501388288,0.9,1.0,1.0,453.0,834.0,1.0,1,333.0,1
1204,1204,0.8131443163330444,0.8,1.0,1.0,320.0,566.0,1.0,1,544.0,1
1205,1205,-0.004735757383115491,-0.0,1.0,0.0,471.0,693.0,1.0,1,966.0,0
1206,1206,0.4788198946179679,0.5,0.0,0.0,300.0,999.0,1.0,0,-79.0,0
1207,1207,-0.2547357705006752,-0.3,0.0,1.0,384.0,568.0,1.0,0,468.0,1
1208,1208,-0.7365155312485345,-0.7,1.0,0.0,357.0,760.0,0.0,0,363.0,1
1209,1209,-0.20103169399607745,-0.2,0.0,1.0,468.0,807.0,1.0,0,675.0,1
1210,1210,0.6120509067584351,0.6,1.0,1.0,406.0,710.0,1.0,1,404.0,1
1211,1211,-0.04024609995691342,-0.0,0.0,1.0,263.0,917.0,1.0,0,0.0,1
1212,1212,0.7921165729056981,0.8,0.0,0.0,282.0,905.0,1.0,0,3.0,0
1213,1213,0.6528771123599103,0.7,1.0,1.0,380.0,543.0,1.0,1,607.0,1
1214,1214,0.6794769483260742,0.7,0.0,0.0,367.0,907.0,0.0,1,726.0,1
1215,1215,0.12473637347834032,0.1,1.0,1.0,320.0,877.0,0.0,0,203.0,0
1216,1216,0.7797636798026338,0.8,0.0,0.0,483.0,529.0,0.0,1,698.0,1
1217,1217,0.17587379031409356,0.2,1.0,1.0,418.0,663.0,1.0,1,759.0,1
1218,1218,-0.8428924497426943,-0.8,0.0,1.0,277.0,980.0,1.0,0,-147.0,1
1219,1219,-0.6296406131837986,-0.6,1.0,0.0,481.0,631.0,0.0,0,698.0,1
1220,1220,-0.12157297438648063,-0.1,0.0,1.0,307.0,942.0,1.0,0,371.0,1
1221,1221,0.7220530239618331,0.7,1.0,1.0,284.0,761.0,1.0,1,695.0,1
1222,1222,0.4495465516079772,0.4,1.0,1.0,356.0,675.0,0.0,0,599.0,0
1223,1223,-0.45298170514308067,-0.5,1.0,0.0,419.0,822.0,0.0,0,669.0,1
1224,1224,-0.10960274377504353,-0.1,0.0,1.0,449.0,803.0,0.0,1,88.0,0
1225,1225,-0.438045628705855,-0.4,1.0,0.0,495.0,798.0,0.0,0,407.0,1
1226,1226,0.2579389027066289,0.3,0.0,0.0,397.0,608.0,1.0,0,515.0,0
1227,1227,0.316481134996493,0.3,1.0,1.0,267.0,763.0,1.0,1,300.0,1
1228,1228,0.8228121744328897,0.8,0.0,0.0,393.0,756.0,0.0,1,441.0,1
1229,1229,-0.6155025721600157,-0.6,0.0,1.0,302.0,953.0,1.0,0,145.0,1
1230,1230,-0.4488411896582849,-0.4,1.0,0.0,295.0,925.0,0.0,0,350.0,1
1231,1231,0.07730956222736574,0.1,0.0,0.0,410.0,603.0,0.0,1,1117.0,1
1232,1232,0.8208533697205033,0.8,1.0,1.0,333.0,813.0,1.0,1,414.0,1
1233,1233,0.8695711919480865,0.9,0.0,0.0,286.0,648.0,0.0,1,306.0,1
1234,1234,0.15257135811318945,0.2,0.0,0.0,281.0,794.0,1.0,0,825.0,0
1235,1235,0.10789394146564046,0.1,1.0,1.0,261.0,912.0,1.0,1,17.0,1
1236,1236,-0.013203622662520953,-0.0,1.0,0.0,265.0,777.0,0.0,0,558.0,1
1237,1237,-0.8682510948129392,-0.9,1.0,0.0,457.0,856.0,0.0,0,167.0,1
1238,1238,0.19795763079582296,0.2,0.0,0.0,444.0,680.0,0.0,1,2096.0,1
1239,1239,0.03505839370779906,0.0,0.0,0.0,337.0,617.0,1.0,0,446.0,0
1240,1240,0.6936733557701221,0.7,1.0,1.0,413.0,891.0,1.0,1,106.0,1
1241,1241,-0.007711868778560005,-0.0,0.0,1.0,414.0,943.0,1.0,0,143.0,1
1242,1242,-0.8043495077073425,-0.8,0.0,1.0,479.0,799.0,1.0,0,292.0,1
1243,1243,-0.12974849548867762,-0.1,1.0,0.0,477.0,672.0,1.0,1,441.0,0
1244,1244,0.2818470598711066,0.3,1.0,1.0,301.0,925.0,1.0,1,-36.0,1
1245,1245,-0.06510480119628237,-0.1,0.0,1.0,267.0,690.0,0.0,1,433.0,0
1246,1246,0.03439736086904999,0.0,0.0,0.0,332.0,683.0,1.0,0,1065.0,0
1247,1247,-0.1428934542391046,-0.1,0.0,1.0,396.0,773.0,1.0,0,391.0,1
1248,1248,0.1462080567529468,0.1,1.0,1.0,305.0,938.0,0.0,0,1167.0,0
1249,1249,0.07300398084325588,0.1,1.0,1.0,339.0,545.0,0.0,0,716.0,0
1250,1250,-0.24299007942138062,-0.2,0.0,1.0,291.0,790.0,1.0,0,139.0,1
1251,1251,0.38374603397316387,0.4,1.0,1.0,386.0,730.0,1.0,1,394.0,1
1252,1252,-0.7814700820376168,-0.8,1.0,0.0,481.0,809.0,0.0,0,530.0,1
1253,1253,-0.7227813535318601,-0.7,1.0,0.0,460.0,831.0,0.0,0,49.0,1
1254,1254,0.11525937429924016,0.1,0.0,0.0,467.0,539.0,1.0,0,544.0,0
1255,1255,-0.09548480949211058,-0.1,1.0,0.0,295.0,802.0,1.0,1,413.0,0
1256,1256,-0.8290993366403494,-0.8,1.0,0.0,438.0,801.0,0.0,0,221.0,1
1257,1257,-0.20833899875440376,-0.2,0.0,1.0,356.0,968.0,1.0,0,126.0,1
1258,1258,-0.8436983374502955,-0.8,1.0,0.0,428.0,821.0,0.0,0,171.0,1
1259,1259,0.8523344194421886,0.9,0.0,0.0,416.0,862.0,0.0,1,402.0,1
1260,1260,-0.5455798076407083,-0.5,0.0,1.0,270.0,710.0,1.0,0,350.0,1
1261,1261,0.8930576497619823,0.9,1.0,1.0,372.0,773.0,1.0,1,455.0,1
1262,1262,0.7971863492177828,0.8,0.0,0.0,415.0,711.0,0.0,1,494.0,1
1263,1263,0.7808931949076655,0.8,1.0,1.0,424.0,956.0,1.0,1,130.0,1
1264,1264,-0.6895101610309229,-0.7,0.0,1.0,319.0,840.0,1.0,0,131.0,1
1265,1265,0.06714762960631993,0.1,1.0,1.0,347.0,857.0,1.0,1,936.0,1
1266,1266,-0.6397470663475928,-0.6,1.0,0.0,250.0,937.0,0.0,0,213.0,1
1267,1267,-0.5720633563373556,-0.6,1.0,0.0,482.0,623.0,0.0,0,425.0,1
1268,1268,0.11246061986987799,0.1,0.0,0.0,425.0,870.0,1.0,0,885.0,0
1269,1269,-0.19303480524194838,-0.2,1.0,0.0,498.0,686.0,0.0,0,396.0,1
1270,1270,-0.5256351896335139,-0.5,0.0,1.0,468.0,519.0,1.0,0,483.0,1
1271,1271,0.20706892418188516,0.2,0.0,0.0,423.0,739.0,0.0,1,1188.0,1
1272,1272,-0.626069275426907,-0.6,1.0,0.0,306.0,525.0,0.0,0,539.0,1
1273,1273,-0.4830306483010608,-0.5,1.0,0.0,318.0,907.0,1.0,1,-155.0,0
1274,1274,0.2474624318700721,0.2,1.0,1.0,335.0,702.0,1.0,1,573.0,1
1275,1275,-0.279739332650737,-0.3,0.0,1.0,474.0,899.0,1.0,0,877.0,1
1276,1276,-0.8563023632869434,-0.9,0.0,1.0,268.0,978.0,1.0,0,114.0,1
1277,1277,0.47210324886163735,0.5,0.0,0.0,311.0,717.0,0.0,1,542.0,1
1278,1278,0.335215663080927,0.3,0.0,0.0,482.0,865.0,0.0,1,213.0,1
1279,1279,-0.3350870994591293,-0.3,0.0,1.0,348.0,881.0,1.0,0,81.0,1
1280,1280,0.08541415840708344,0.1,0.0,0.0,317.0,603.0,0.0,1,660.0,1
1281,1281,0.03286266571101182,0.0,0.0,0.0,316.0,956.0,1.0,0,1268.0,0
1282,1282,-0.7049269717050515,-0.7,0.0,1.0,496.0,825.0,1.0,0,239.0,1
1283,1283,-0.7779270674769251,-0.8,0.0,1.0,475.0,650.0,1.0,0,405.0,1
1284,1284,-0.052388511843330376,-0.1,1.0,0.0,487.0,777.0,0.0,0,356.0,1
1285,1285,-0.06528742133111365,-0.1,0.0,1.0,411.0,924.0,1.0,0,135.0,1
1286,1286,0.05277797701133147,0.1,0.0,0.0,376.0,792.0,1.0,0,152.0,0
1287,1287,-0.587173332334638,-0.6,1.0,0.0,495.0,850.0,0.0,0,505.0,1
1288,1288,0.03716830240609348,0.0,1.0,1.0,427.0,928.0,1.0,1,205.0,1
1289,1289,0.05654471399323646,0.1,1.0,1.0,358.0,667.0,0.0,0,675.0,0
1290,1290,-0.5770799631838395,-0.6,1.0,0.0,498.0,879.0,0.0,0,673.0,1
1291,1291,-0.17107461028053994,-0.2,1.0,0.0,499.0,735.0,0.0,0,476.0,1
1292,1292,0.6105246269619643,0.6,1.0,1.0,338.0,799.0,1.0,1,283.0,1
1293,1293,0.154160027395006,0.2,0.0,0.0,422.0,734.0,0.0,1,374.0,1
1294,1294,0.16772684072116395,0.2,0.0,0.0,456.0,892.0,1.0,0,852.0,0
1295,1295,0.3490534436241365,0.3,0.0,0.0,310.0,973.0,0.0,1,437.0,1
1296,1296,0.7567541967938106,0.8,1.0,1.0,289.0,599.0,1.0,1,442.0,1
1297,1297,-0.11308724420929706,-0.1,0.0,1.0,433.0,579.0,1.0,0,928.0,1
1298,1298,-0.7369297257167483,-0.7,1.0,0.0,454.0,556.0,1.0,1,330.0,0
1299,1299,0.43091277716691134,0.4,0.0,0.0,325.0,796.0,0.0,1,279.0,1
1300,1300,0.046657354524925476,0.0,1.0,1.0,342.0,884.0,0.0,0,284.0,0
1301,1301,0.10360755384222797,0.1,0.0,0.0,423.0,565.0,0.0,1,732.0,1
1302,1302,0.06402544251783071,0.1,1.0,1.0,433.0,597.0,1.0,1,580.0,1
1303,1303,-0.7602121856772864,-0.8,1.0,0.0,308.0,561.0,0.0,0,551.0,1
1304,1304,-0.09323276367391253,-0.1,1.0,0.0,470.0,761.0,0.0,0,449.0,1
1305,1305,0.8507786732823001,0.9,0.0,0.0,445.0,950.0,0.0,1,195.0,1
1306,1306,-0.6046285580833619,-0.6,1.0,0.0,274.0,886.0,0.0,0,240.0,1
1307,1307,0.40078429209441613,0.4,1.0,1.0,462.0,845.0,1.0,1,433.0,1
1308,1308,0.28437999867893826,0.3,1.0,1.0,378.0,967.0,1.0,1,595.0,1
1309,1309,-0.024015126191241354,-0.0,1.0,0.0,397.0,832.0,1.0,1,151.0,0
1310,1310,-0.6527525593943864,-0.7,1.0,0.0,347.0,618.0,0.0,0,255.0,1
1311,1311,-0.022787276946155788,-0.0,0.0,1.0,374.0,950.0,1.0,0,-124.0,1
1312,1312,0.11398005239523401,0.1,0.0,0.0,357.0,555.0,0.0,1,1098.0,1
1313,1313,0.14340398612195038,0.1,1.0,1.0,399.0,593.0,1.0,1,478.0,1
1314,1314,-0.8764582147310712,-0.9,1.0,0.0,400.0,940.0,0.0,0,50.0,1
1315,1315,0.567510659307627,0.6,0.0,0.0,440.0,529.0,0.0,1,461.0,1
1316,1316,0.3909507295682978,0.4,0.0,0.0,393.0,625.0,0.0,1,632.0,1
1317,1317,-0.6706589465186772,-0.7,0.0,1.0,447.0,709.0,1.0,0,264.0,1
1318,1318,0.7591179808714134,0.8,1.0,1.0,350.0,594.0,1.0,1,566.0,1
1319,1319,-0.004811172177559109,-0.0,1.0,0.0,385.0,861.0,0.0,0,104.0,1
1320,1320,-0.6655882888878054,-0.7,0.0,1.0,262.0,563.0,1.0,0,385.0,1
1321,1321,0.7252445184341448,0.7,0.0,0.0,388.0,525.0,0.0,1,997.0,1
1322,1322,-0.5813379780986447,-0.6,0.0,1.0,396.0,816.0,1.0,0,198.0,1
1323,1323,-0.1486003665921971,-0.1,0.0,1.0,297.0,651.0,1.0,0,632.0,1
1324,1324,0.7708797237388275,0.8,1.0,1.0,387.0,805.0,1.0,1,268.0,1
1325,1325,0.7659292140547905,0.8,0.0,0.0,370.0,759.0,1.0,0,91.0,0
1326,1326,-0.12388081459739131,-0.1,0.0,1.0,272.0,677.0,1.0,0,451.0,1
1327,1327,0.5971060226173878,0.6,0.0,0.0,297.0,649.0,0.0,1,484.0,1
1328,1328,0.5952103918631634,0.6,1.0,1.0,374.0,919.0,1.0,1,17.0,1
1329,1329,-0.1541580156230704,-0.2,1.0,0.0,355.0,654.0,1.0,1,411.0,0
1330,1330,0.8069988814598866,0.8,1.0,1.0,263.0,571.0,1.0,1,346.0,1
1331,1331,-0.1439429839473465,-0.1,1.0,0.0,250.0,719.0,1.0,1,1121.0,0
1332,1332,-0.7505631848579091,-0.8,0.0,1.0,382.0,919.0,1.0,0,49.0,1
1333,1333,-0.37550305462154265,-0.4,0.0,1.0,308.0,957.0,0.0,1,205.0,0
1334,1334,-0.4555426246921126,-0.5,0.0,1.0,294.0,778.0,1.0,0,508.0,1
1335,1335,0.7375238676400632,0.7,0.0,0.0,410.0,549.0,0.0,1,641.0,1
1336,1336,-0.06607122562432677,-0.1,0.0,1.0,295.0,827.0,1.0,0,438.0,1
1337,1337,-0.27093378188298467,-0.3,0.0,1.0,336.0,821.0,1.0,0,73.0,1
1338,1338,-0.6074662637563534,-0.6,0.0,1.0,446.0,747.0,1.0,0,447.0,1
1339,1339,0.8584892419281459,0.9,1.0,1.0,362.0,537.0,1.0,1,351.0,1
1340,1340,-0.28480086853152076,-0.3,1.0,0.0,417.0,560.0,0.0,0,633.0,1
1341,1341,-0.40560071631458755,-0.4,0.0,1.0,297.0,522.0,0.0,1,701.0,0
1342,1342,-0.07478846311432685,-0.1,1.0,0.0,410.0,627.0,0.0,0,703.0,1
1343,1343,0.4535348590681566,0.5,1.0,1.0,297.0,565.0,1.0,1,418.0,1
1344,1344,0.347105520228317,0.3,1.0,1.0,259.0,726.0,1.0,1,365.0,1
1345,1345,0.4180989593628178,0.4,1.0,1.0,266.0,926.0,1.0,1,218.0,1
1346,1346,-0.06960324188767386,-0.1,1.0,0.0,264.0,537.0,1.0,1,519.0,0
1347,1347,-0.4932262215163063,-0.5,0.0,1.0,361.0,817.0,1.0,0,572.0,1
1348,1348,0.16357867860820197,0.2,1.0,1.0,360.0,952.0,1.0,1,-2.0,1
1349,1349,0.35466508249772344,0.4,1.0,1.0,465.0,811.0,1.0,1,374.0,1
1350,1350,-0.26963917755095657,-0.3,1.0,0.0,446.0,640.0,0.0,0,1044.0,1
1351,1351,-0.04528206339125995,-0.0,0.0,1.0,320.0,828.0,1.0,0,92.0,1
1352,1352,-0.03079728463231879,-0.0,0.0,1.0,481.0,720.0,1.0,0,449.0,1
1353,1353,-0.7200975245068872,-0.7,1.0,0.0,328.0,639.0,0.0,0,333.0,1
1354,1354,-0.47995882694796016,-0.5,0.0,1.0,348.0,786.0,1.0,0,176.0,1
1355,1355,0.091748883020764,0.1,0.0,0.0,329.0,919.0,1.0,0,2.0,0
1356,1356,0.3092147746177586,0.3,0.0,0.0,462.0,991.0,1.0,0,-23.0,0
1357,1357,0.6566537009335437,0.7,1.0,1.0,280.0,981.0,1.0,1,259.0,1
1358,1358,0.03215397236825457,0.0,1.0,1.0,470.0,585.0,1.0,1,685.0,1
1359,1359,0.19066709975951868,0.2,1.0,1.0,409.0,561.0,1.0,1,630.0,1
1360,1360,-0.49463841049848706,-0.5,0.0,1.0,359.0,722.0,1.0,0,329.0,1
1361,1361,0.21113872150219282,0.2,1.0,1.0,295.0,838.0,1.0,1,477.0,1
1362,1362,-0.2070538117785673,-0.2,0.0,1.0,306.0,537.0,1.0,0,237.0,1
1363,1363,0.34200925269604465,0.3,0.0,0.0,316.0,694.0,0.0,1,450.0,1
1364,1364,0.41293419390623776,0.4,1.0,1.0,480.0,602.0,1.0,1,908.0,1
1365,1365,0.601116153020841,0.6,1.0,1.0,283.0,861.0,1.0,1,406.0,1
1366,1366,0.30434345489993675,0.3,0.0,0.0,433.0,748.0,0.0,1,349.0,1
1367,1367,0.487458497069701,0.5,1.0,1.0,266.0,523.0,1.0,1,1011.0,1
1368,1368,-0.39237039274701124,-0.4,1.0,0.0,321.0,735.0,0.0,0,394.0,1
1369,1369,-0.6348954623445145,-0.6,1.0,0.0,393.0,998.0,0.0,0,99.0,1
1370,1370,-0.2409573883100875,-0.2,0.0,1.0,481.0,955.0,1.0,0,134.0,1
1371,1371,0.6092117681378603,0.6,1.0,1.0,444.0,542.0,1.0,1,354.0,1
1372,1372,-0.6944039531389807,-0.7,0.0,1.0,415.0,594.0,1.0,0,361.0,1
1373,1373,0.6791479964813562,0.7,1.0,1.0,398.0,953.0,1.0,1,209.0,1
1374,1374,-0.40532876488289377,-0.4,0.0,1.0,304.0,661.0,1.0,0,365.0,1
1375,1375,0.08719987294929954,0.1,0.0,0.0,287.0,730.0,1.0,0,1253.0,0
1376,1376,-0.5421825095540969,-0.5,0.0,1.0,375.0,685.0,1.0,0,60.0,1
1377,1377,0.6039620055233476,0.6,0.0,0.0,401.0,587.0,0.0,1,302.0,1
1378,1378,0.5710182091820041,0.6,0.0,0.0,287.0,636.0,0.0,1,537.0,1
1379,1379,-0.14417740033468684,-0.1,0.0,1.0,353.0,774.0,1.0,0,233.0,1
1380,1380,0.6403565421120753,0.6,1.0,1.0,402.0,501.0,1.0,1,657.0,1
1381,1381,0.03253474701461412,0.0,0.0,0.0,291.0,723.0,1.0,0,486.0,0
1382,1382,-0.7856011630406967,-0.8,0.0,1.0,464.0,865.0,1.0,0,191.0,1
1383,1383,-0.5780794665616482,-0.6,0.0,1.0,492.0,509.0,1.0,0,509.0,1
1384,1384,-0.7148345267252302,-0.7,0.0,1.0,465.0,561.0,1.0,0,574.0,1
1385,1385,0.8799307557642458,0.9,0.0,0.0,433.0,533.0,0.0,1,724.0,1
1386,1386,-0.8113216112456643,-0.8,0.0,1.0,332.0,979.0,1.0,0,199.0,1
1387,1387,0.06475517498741168,0.1,0.0,0.0,394.0,828.0,1.0,0,258.0,0
1388,1388,-0.5342898730993523,-0.5,0.0,1.0,371.0,780.0,1.0,0,349.0,1
1389,1389,0.49346499830520296,0.5,0.0,0.0,458.0,700.0,0.0,1,1302.0,1
1390,1390,0.6862361584009876,0.7,1.0,1.0,492.0,595.0,1.0,1,443.0,1
1391,1391,0.43767455661387145,0.4,0.0,0.0,455.0,879.0,0.0,1,526.0,1
1392,1392,-0.059497531150242255,-0.1,0.0,1.0,461.0,874.0,1.0,0,845.0,1
1393,1393,-0.6475653159745889,-0.6,1.0,0.0,388.0,571.0,0.0,0,411.0,1
1394,1394,-0.30361997203987323,-0.3,0.0,1.0,420.0,653.0,1.0,0,497.0,1
1395,1395,-0.6548178271214646,-0.7,1.0,0.0,417.0,992.0,0.0,0,321.0,1
1396,1396,-0.36401925414670333,-0.4,1.0,0.0,420.0,989.0,1.0,1,181.0,0
1397,1397,-0.4072342989854356,-0.4,1.0,0.0,360.0,681.0,0.0,0,749.0,1
1398,1398,0.6149987271682761,0.6,0.0,0.0,352.0,550.0,1.0,0,758.0,0
1399,1399,-0.6461953122951161,-0.6,1.0,0.0,467.0,508.0,0.0,0,375.0,1
1400,1400,0.5180683309567767,0.5,1.0,1.0,322.0,951.0,1.0,1,157.0,1
1401,1401,0.3996011560496405,0.4,1.0,1.0,251.0,706.0,1.0,1,263.0,1
1402,1402,-0.15727940101524218,-0.2,0.0,1.0,328.0,983.0,1.0,0,329.0,1
1403,1403,-0.31028063189107535,-0.3,1.0,0.0,416.0,836.0,0.0,0,328.0,1
1404,1404,0.7284054046125285,0.7,1.0,1.0,492.0,637.0,1.0,1,341.0,1
1405,1405,-0.28221131031331415,-0.3,1.0,0.0,461.0,890.0,0.0,0,259.0,1
1406,1406,0.3497520211191144,0.3,1.0,1.0,442.0,729.0,1.0,1,389.0,1
1407,1407,0.7620769910858024,0.8,1.0,1.0,358.0,751.0,1.0,1,531.0,1
1408,1408,0.36167560490402073,0.4,0.0,0.0,368.0,574.0,0.0,1,288.0,1
1409,1409,0.8139373877064303,0.8,0.0,0.0,498.0,699.0,0.0,1,393.0,1
1410,1410,0.3249668371651201,0.3,1.0,1.0,346.0,958.0,1.0,1,326.0,1
1411,1411,0.6990747458729784,0.7,1.0,1.0,313.0,816.0,1.0,1,161.0,1
1412,1412,0.5907309320834938,0.6,1.0,1.0,273.0,960.0,1.0,1,157.0,1
1413,1413,0.06607251542741899,0.1,0.0,0.0,402.0,978.0,0.0,1,960.0,1
1414,1414,0.7139867321533958,0.7,1.0,1.0,401.0,994.0,1.0,1,405.0,1
1415,1415,-0.6830722942988192,-0.7,0.0,1.0,484.0,909.0,1.0,0,137.0,1
1416,1416,0.8394488349667774,0.8,1.0,1.0,490.0,667.0,1.0,1,363.0,1
1417,1417,-0.03470102268909969,-0.0,1.0,0.0,394.0,757.0,1.0,1,199.0,0
1418,1418,0.14329997989929966,0.1,1.0,1.0,383.0,615.0,1.0,1,1462.0,1
1419,1419,0.579680947960557,0.6,0.0,0.0,431.0,681.0,0.0,1,828.0,1
1420,1420,0.2785608488378496,0.3,1.0,1.0,302.0,963.0,1.0,1,5.0,1
1421,1421,-0.7989517292988928,-0.8,0.0,1.0,460.0,915.0,1.0,0,105.0,1
1422,1422,-0.6645362926051827,-0.7,1.0,0.0,468.0,990.0,0.0,0,112.0,1
1423,1423,0.20750857253621968,0.2,1.0,1.0,434.0,707.0,1.0,1,339.0,1
1424,1424,-0.7462547345296948,-0.7,1.0,0.0,446.0,819.0,0.0,0,585.0,1
1425,1425,0.4919634860647665,0.5,1.0,1.0,437.0,781.0,1.0,1,512.0,1
1426,1426,-0.15924300164462668,-0.2,0.0,1.0,447.0,688.0,1.0,0,195.0,1
1427,1427,-0.8013298417529476,-0.8,1.0,0.0,324.0,534.0,0.0,0,352.0,1
1428,1428,-0.7329574542170778,-0.7,1.0,0.0,306.0,817.0,0.0,0,347.0,1
1429,1429,0.06210956318727523,0.1,1.0,1.0,303.0,887.0,1.0,1,750.0,1
1430,1430,-0.2071576824728656,-0.2,0.0,1.0,372.0,880.0,1.0,0,158.0,1
1431,1431,-0.8825219683611647,-0.9,0.0,1.0,292.0,824.0,1.0,0,184.0,1
1432,1432,0.48637370765129184,0.5,0.0,0.0,468.0,797.0,0.0,1,595.0,1
1433,1433,0.7670581843873877,0.8,0.0,0.0,278.0,854.0,0.0,1,628.0,1
1434,1434,0.17240750511644076,0.2,0.0,0.0,390.0,648.0,1.0,0,482.0,0
1435,1435,0.4861278418186289,0.5,0.0,0.0,306.0,935.0,0.0,1,979.0,1
1436,1436,-0.20798638547209913,-0.2,1.0,0.0,359.0,657.0,0.0,0,384.0,1
1437,1437,0.856208176717557,0.9,1.0,1.0,282.0,986.0,1.0,1,-88.0,1
1438,1438,0.6532887370625898,0.7,1.0,1.0,400.0,749.0,1.0,1,371.0,1
1439,1439,0.2334381932879256,0.2,0.0,0.0,472.0,969.0,0.0,1,659.0,1
1440,1440,-0.35386677669767985,-0.4,0.0,1.0,418.0,679.0,1.0,0,723.0,1
1441,1441,0.8322142294031803,0.8,0.0,0.0,314.0,996.0,0.0,1,90.0,1
1442,1442,0.15624502251868744,0.2,1.0,1.0,302.0,700.0,1.0,1,648.0,1
1443,1443,0.8355846547055411,0.8,0.0,0.0,260.0,993.0,1.0,0,-3.0,0
1444,1444,-0.1495382252932731,-0.1,0.0,1.0,458.0,832.0,1.0,0,480.0,1
1445,1445,-0.379565656388118,-0.4,0.0,1.0,337.0,707.0,1.0,0,236.0,1
1446,1446,0.1351673252441371,0.1,0.0,0.0,344.0,958.0,0.0,1,1168.0,1
1447,1447,-0.36920646299191906,-0.4,1.0,0.0,251.0,771.0,0.0,0,338.0,1
1448,1448,0.7105525384118675,0.7,1.0,1.0,447.0,683.0,1.0,1,510.0,1
1449,1449,-0.10296387828410214,-0.1,0.0,1.0,336.0,995.0,1.0,0,149.0,1
1450,1450,-0.7409548663836393,-0.7,1.0,0.0,333.0,960.0,0.0,0,-53.0,1
1451,1451,-0.7905192661241167,-0.8,0.0,1.0,279.0,569.0,1.0,0,442.0,1
1452,1452,0.38304774794429586,0.4,0.0,0.0,274.0,991.0,0.0,1,425.0,1
1453,1453,-0.6545860641411784,-0.7,0.0,1.0,494.0,665.0,1.0,0,321.0,1
1454,1454,0.48324062497586395,0.5,1.0,1.0,498.0,579.0,1.0,1,503.0,1
1455,1455,-0.21065225755484096,-0.2,0.0,1.0,262.0,687.0,0.0,1,761.0,0
1456,1456,0.8476967558187868,0.8,1.0,1.0,444.0,859.0,1.0,1,277.0,1
1457,1457,-0.14772351797762395,-0.1,0.0,1.0,327.0,507.0,1.0,0,1006.0,1
1458,1458,0.5408018365606265,0.5,1.0,1.0,414.0,772.0,1.0,1,644.0,1
1459,1459,0.8178709419791151,0.8,1.0,1.0,490.0,945.0,1.0,1,215.0,1
1460,1460,0.42919673257170243,0.4,1.0,1.0,494.0,944.0,0.0,0,632.0,0
1461,1461,0.10720768087616273,0.1,0.0,0.0,484.0,785.0,0.0,1,661.0,1
1462,1462,0.787218959636785,0.8,1.0,1.0,253.0,835.0,1.0,1,382.0,1
1463,1463,-0.11826557056583853,-0.1,0.0,1.0,281.0,771.0,1.0,0,318.0,1
1464,1464,-0.5421480944601289,-0.5,0.0,1.0,420.0,779.0,1.0,0,161.0,1
1465,1465,0.8311566406659329,0.8,1.0,1.0,326.0,782.0,1.0,1,312.0,1
1466,1466,-0.15214733950619852,-0.2,0.0,1.0,331.0,817.0,1.0,0,142.0,1
1467,1467,0.7415596102875638,0.7,0.0,0.0,347.0,819.0,0.0,1,684.0,1
1468,1468,0.7913085904978593,0.8,0.0,0.0,459.0,512.0,0.0,1,639.0,1
1469,1469,0.24637349814748577,0.2,0.0,0.0,328.0,705.0,0.0,1,347.0,1
1470,1470,-0.8330831365819015,-0.8,1.0,0.0,441.0,855.0,0.0,0,194.0,1
1471,1471,0.20541592634441408,0.2,1.0,1.0,476.0,790.0,1.0,1,644.0,1
1472,1472,0.08803931444031043,0.1,0.0,0.0,360.0,945.0,0.0,1,195.0,1
1473,1473,-0.26755537721466693,-0.3,1.0,0.0,327.0,964.0,1.0,1,209.0,0
1474,1474,-0.49704144876270123,-0.5,0.0,1.0,431.0,872.0,1.0,0,87.0,1
1475,1475,-0.6318466618461116,-0.6,1.0,0.0,488.0,736.0,1.0,1,326.0,0
1476,1476,-0.5964530359087226,-0.6,1.0,0.0,298.0,806.0,1.0,1,-34.0,0
1477,1477,0.6537373678908106,0.7,1.0,1.0,335.0,865.0,1.0,1,740.0,1
1478,1478,-0.17779730156182905,-0.2,1.0,0.0,399.0,795.0,0.0,0,616.0,1
1479,1479,0.5462203798692474,0.5,1.0,1.0,411.0,662.0,1.0,1,357.0,1
1480,1480,-0.22140594367041244,-0.2,0.0,1.0,261.0,808.0,1.0,0,141.0,1
1481,1481,0.8633965113874805,0.9,1.0,1.0,395.0,784.0,1.0,1,561.0,1
1482,1482,-0.1348533497700095,-0.1,1.0,0.0,399.0,528.0,0.0,0,943.0,1
1483,1483,0.8802669845587251,0.9,1.0,1.0,462.0,719.0,1.0,1,589.0,1
1484,1484,0.6268973692158927,0.6,1.0,1.0,443.0,648.0,1.0,1,289.0,1
1485,1485,-0.615464772554259,-0.6,0.0,1.0,377.0,574.0,1.0,0,449.0,1
1486,1486,0.73278784554443,0.7,0.0,0.0,421.0,604.0,0.0,1,815.0,1
1487,1487,0.8981314499139191,0.9,1.0,1.0,289.0,500.0,1.0,1,411.0,1
1488,1488,-0.16422173364508397,-0.2,0.0,1.0,331.0,889.0,1.0,0,40.0,1
1489,1489,-0.6207955196298891,-0.6,1.0,0.0,389.0,532.0,0.0,0,799.0,1
1490,1490,0.1287202818521903,0.1,0.0,0.0,438.0,523.0,1.0,0,659.0,0
1491,1491,0.6728140325154729,0.7,0.0,0.0,482.0,904.0,0.0,1,174.0,1
1492,1492,0.7230713301236361,0.7,1.0,1.0,284.0,876.0,1.0,1,380.0,1
1493,1493,-0.4608556073640934,-0.5,0.0,1.0,262.0,627.0,1.0,0,461.0,1
