,trial,coherence,coherence_bin,green_side,correct_side,target_onset,checker_onset,decision,green_decision,decision_time,correct_decision
0,0,-0.43002376138033044,-0.4,0.0,1.0,343.0,755.0,1.0,0,242.0,1
1,1,0.6849549575302932,0.7,0.0,0.0,268.0,833.0,0.0,1,309.0,1
2,2,-0.5497943289716674,-0.5,0.0,1.0,386.0,549.0,1.0,0,725.0,1
3,3,0.1381896418816696,0.1,0.0,0.0,333.0,719.0,0.0,1,748.0,1
4,4,0.7867741626338359,0.8,0.0,0.0,283.0,580.0,0.0,1,1037.0,1
5,5,0.34303514808581415,0.3,1.0,1.0,489.0,656.0,1.0,1,505.0,1
6,6,-0.6983400058610889,-0.7,0.0,1.0,261.0,949.0,1.0,0,120.0,1
7,7,-0.47782029070276805,-0.5,0.0,1.0,422.0,626.0,1.0,0,1612.0,1
8,8,-0.2438710722694154,-0.2,1.0,0.0,294.0,606.0,0.0,0,1720.0,1
9,9,0.2962610396896884,0.3,0.0,0.0,335.0,789.0,0.0,1,616.0,1
10,10,-0.5033035302443017,-0.5,0.0,1.0,317.0,685.0,1.0,0,538.0,1
11,11,0.3245956476939563,0.3,0.0,0.0,413.0,816.0,0.0,1,441.0,1
12,12,0.5042009346110893,0.5,1.0,1.0,373.0,830.0,1.0,1,457.0,1
13,13,-0.8796092080938487,-0.9,1.0,0.0,329.0,962.0,0.0,0,1239.0,1
14,14,-0.27443361498104435,-0.3,0.0,1.0,488.0,575.0,1.0,0,417.0,1
15,15,-0.13750496738853124,-0.1,1.0,0.0,449.0,680.0,1.0,1,1031.0,0
16,16,-0.09248805487080525,-0.1,0.0,1.0,383.0,714.0,0.0,1,393.0,0
17,17,0.10345055347106402,0.1,1.0,1.0,302.0,522.0,1.0,1,776.0,1
18,18,0.8263568602561712,0.8,0.0,0.0,453.0,577.0,0.0,1,390.0,1
19,19,0.6973947818589473,0.7,0.0,0.0,378.0,796.0,0.0,1,396.0,1
20,20,-0.8050425661650287,-0.8,0.0,1.0,450.0,614.0,1.0,0,476.0,1
21,21,0.5090562626049643,0.5,0.0,0.0,344.0,866.0,0.0,1,580.0,1
22,22,0.23106999522786464,0.2,0.0,0.0,391.0,545.0,1.0,0,754.0,0
23,23,0.3556943074292257,0.4,1.0,1.0,360.0,977.0,0.0,0,-157.0,0
24,24,-0.26614416599263524,-0.3,1.0,0.0,295.0,958.0,1.0,1,1007.0,0
25,25,-0.7292194754207098,-0.7,1.0,0.0,291.0,682.0,0.0,0,207.0,1
26,26,-0.8275587339383358,-0.8,0.0,1.0,367.0,775.0,1.0,0,88.0,1
27,27,-0.044122162127887776,-0.0,0.0,1.0,370.0,987.0,0.0,1,193.0,0
28,28,0.8022468902734791,0.8,0.0,0.0,254.0,611.0,0.0,1,425.0,1
29,29,0.03674990458311311,0.0,1.0,1.0,427.0,560.0,1.0,1,663.0,1
30,30,-0.3379891787364784,-0.3,1.0,0.0,445.0,584.0,0.0,0,1461.0,1
31,31,0.0566771942490476,0.1,1.0,1.0,313.0,577.0,1.0,1,380.0,1
32,32,0.702781801294467,0.7,0.0,0.0,315.0,829.0,0.0,1,296.0,1
33,33,-0.2021343272973417,-0.2,1.0,0.0,380.0,587.0,1.0,1,1363.0,0
34,34,-0.5464718021888922,-0.5,1.0,0.0,425.0,732.0,0.0,0,223.0,1
35,35,0.6456545849156866,0.6,0.0,0.0,448.0,935.0,0.0,1,207.0,1
36,36,-0.4334507469473435,-0.4,0.0,1.0,328.0,820.0,1.0,0,372.0,1
37,37,-0.42702723608821835,-0.4,0.0,1.0,355.0,951.0,1.0,0,224.0,1
38,38,0.602342581623707,0.6,0.0,0.0,474.0,877.0,0.0,1,339.0,1
39,39,-0.5416434553487226,-0.5,1.0,0.0,361.0,874.0,0.0,0,455.0,1
40,40,0.14885040371498215,0.1,1.0,1.0,258.0,778.0,1.0,1,104.0,1
41,41,0.5397217791572023,0.5,1.0,1.0,299.0,524.0,1.0,1,917.0,1
42,42,0.6242207517570376,0.6,0.0,0.0,414.0,525.0,0.0,1,651.0,1
43,43,-0.33037480330671243,-0.3,0.0,1.0,495.0,643.0,1.0,0,612.0,1
44,44,0.8765713347517398,0.9,1.0,1.0,463.0,882.0,1.0,1,145.0,1
45,45,0.33700035796110017,0.3,0.0,0.0,291.0,975.0,0.0,1,304.0,1
46,46,0.3626281130858998,0.4,0.0,0.0,382.0,900.0,1.0,0,1128.0,0
47,47,-0.26653991960395396,-0.3,1.0,0.0,321.0,782.0,0.0,0,1087.0,1
48,48,0.7466529299761843,0.7,1.0,1.0,400.0,884.0,1.0,1,316.0,1
49,49,0.8748890583548924,0.9,0.0,0.0,377.0,714.0,0.0,1,779.0,1
50,50,0.5978434029577223,0.6,1.0,1.0,493.0,835.0,1.0,1,182.0,1
51,51,0.36300536194852373,0.4,1.0,1.0,316.0,704.0,1.0,1,540.0,1
52,52,0.8437329635389755,0.8,1.0,1.0,498.0,796.0,1.0,1,536.0,1
53,53,-0.12661232709178494,-0.1,0.0,1.0,370.0,974.0,1.0,0,676.0,1
54,54,-0.5416693933641339,-0.5,1.0,0.0,433.0,981.0,0.0,0,1606.0,1
55,55,-0.8944893098172164,-0.9,0.0,1.0,448.0,568.0,1.0,0,504.0,1
56,56,0.628037273834073,0.6,0.0,0.0,267.0,761.0,0.0,1,132.0,1
57,57,-0.6293985026114864,-0.6,1.0,0.0,464.0,620.0,0.0,0,1006.0,1
58,58,0.48755810673411093,0.5,1.0,1.0,441.0,522.0,1.0,1,557.0,1
59,59,-0.643454245615408,-0.6,1.0,0.0,444.0,636.0,0.0,0,310.0,1
60,60,0.12275582944031138,0.1,1.0,1.0,495.0,962.0,1.0,1,1053.0,1
61,61,-0.554188478970554,-0.6,1.0,0.0,258.0,709.0,0.0,0,263.0,1
62,62,0.0221388523730921,0.0,1.0,1.0,330.0,958.0,1.0,1,692.0,1
63,63,0.8853337090902235,0.9,1.0,1.0,295.0,747.0,1.0,1,428.0,1
64,64,0.3671086935489042,0.4,1.0,1.0,489.0,898.0,1.0,1,173.0,1
65,65,0.47110738883285064,0.5,1.0,1.0,397.0,702.0,1.0,1,781.0,1
66,66,-0.18448498259787427,-0.2,1.0,0.0,441.0,924.0,1.0,1,605.0,0
67,67,-0.10903830189593,-0.1,0.0,1.0,360.0,808.0,1.0,0,-88.0,1
68,68,0.8930733311973998,0.9,0.0,0.0,299.0,919.0,0.0,1,502.0,1
69,69,-0.1306752452970894,-0.1,1.0,0.0,393.0,567.0,1.0,1,800.0,0
70,70,0.5160088455913362,0.5,1.0,1.0,410.0,783.0,1.0,1,187.0,1
71,71,0.23542887073515184,0.2,0.0,0.0,494.0,512.0,0.0,1,1274.0,1
72,72,0.3097921122870587,0.3,1.0,1.0,360.0,760.0,1.0,1,260.0,1
73,73,-0.8297898446406273,-0.8,0.0,1.0,394.0,555.0,1.0,0,721.0,1
74,74,-0.07399112941334374,-0.1,1.0,0.0,436.0,543.0,0.0,0,1291.0,1
75,75,0.18287400092208828,0.2,1.0,1.0,430.0,962.0,1.0,1,338.0,1
76,76,-0.6279222886545883,-0.6,1.0,0.0,401.0,536.0,0.0,0,733.0,1
77,77,0.8999670856789611,0.9,1.0,1.0,306.0,572.0,1.0,1,1022.0,1
78,78,0.5468603640390205,0.5,1.0,1.0,421.0,976.0,1.0,1,383.0,1
79,79,0.5318555303987417,0.5,0.0,0.0,362.0,907.0,0.0,1,121.0,1
80,80,0.47186363976204426,0.5,1.0,1.0,295.0,675.0,1.0,1,620.0,1
81,81,0.8154014889965208,0.8,0.0,0.0,328.0,790.0,0.0,1,402.0,1
82,82,-0.46205746577072687,-0.5,1.0,0.0,296.0,585.0,0.0,0,469.0,1
83,83,0.752639201001276,0.8,1.0,1.0,413.0,724.0,1.0,1,43.0,1
84,84,0.6049977592998569,0.6,0.0,0.0,383.0,902.0,0.0,1,505.0,1
85,85,0.8700793505748646,0.9,1.0,1.0,453.0,786.0,1.0,1,361.0,1
86,86,-0.7886308379842218,-0.8,0.0,1.0,495.0,592.0,1.0,0,783.0,1
87,87,-0.0008710597856095292,-0.0,0.0,1.0,368.0,897.0,1.0,0,455.0,1
88,88,0.13515911971909367,0.1,1.0,1.0,284.0,506.0,0.0,0,1220.0,0
89,89,-0.8073445517865709,-0.8,1.0,0.0,454.0,809.0,0.0,0,507.0,1
90,90,-0.09991828648135492,-0.1,0.0,1.0,307.0,693.0,1.0,0,480.0,1
91,91,0.060949860266320766,0.1,1.0,1.0,365.0,957.0,1.0,1,1558.0,1
92,92,-0.17746056633468243,-0.2,0.0,1.0,415.0,520.0,1.0,0,655.0,1
93,93,-0.6680180952206111,-0.7,1.0,0.0,371.0,934.0,0.0,0,305.0,1
94,94,-0.032979297683518816,-0.0,1.0,0.0,250.0,606.0,1.0,1,734.0,0
95,95,0.5005505652672623,0.5,0.0,0.0,404.0,670.0,0.0,1,636.0,1
96,96,0.8668653583764568,0.9,0.0,0.0,455.0,899.0,0.0,1,736.0,1
97,97,0.27441393685128623,0.3,0.0,0.0,418.0,532.0,0.0,1,1280.0,1
98,98,0.3340784652468868,0.3,0.0,0.0,321.0,597.0,0.0,1,352.0,1
99,99,0.6243003618102784,0.6,0.0,0.0,474.0,597.0,0.0,1,739.0,1
100,100,-0.2653857866997309,-0.3,1.0,0.0,426.0,527.0,0.0,0,367.0,1
101,101,0.8218127793716171,0.8,1.0,1.0,449.0,905.0,1.0,1,126.0,1
102,102,0.4838130027542228,0.5,1.0,1.0,303.0,765.0,1.0,1,292.0,1
103,103,-0.7238875016220603,-0.7,1.0,0.0,495.0,752.0,0.0,0,523.0,1
104,104,-0.5644207792638669,-0.6,1.0,0.0,475.0,538.0,0.0,0,907.0,1
105,105,0.3887619233614742,0.4,1.0,1.0,496.0,912.0,0.0,0,152.0,0
106,106,-0.5880242154983915,-0.6,1.0,0.0,268.0,707.0,0.0,0,485.0,1
107,107,-0.1639517327377118,-0.2,0.0,1.0,429.0,624.0,1.0,0,367.0,1
108,108,-0.6946690790770399,-0.7,1.0,0.0,366.0,872.0,0.0,0,182.0,1
109,109,0.4366645945508817,0.4,0.0,0.0,461.0,578.0,0.0,1,951.0,1
110,110,0.27865829670432263,0.3,1.0,1.0,289.0,851.0,1.0,1,230.0,1
111,111,-0.05202969488726705,-0.1,1.0,0.0,388.0,850.0,0.0,0,2492.0,1
112,112,-0.5396529739913203,-0.5,0.0,1.0,472.0,767.0,0.0,1,-129.0,0
113,113,-0.03465950375213367,-0.0,0.0,1.0,391.0,992.0,0.0,1,867.0,0
114,114,0.34731398258032165,0.3,1.0,1.0,424.0,579.0,1.0,1,557.0,1
115,115,0.41102969088114005,0.4,0.0,0.0,359.0,698.0,0.0,1,533.0,1
116,116,-0.29332703459895704,-0.3,1.0,0.0,404.0,816.0,0.0,0,2120.0,1
117,117,-0.8602286591097255,-0.9,0.0,1.0,417.0,714.0,1.0,0,289.0,1
118,118,-0.6054189428803209,-0.6,0.0,1.0,396.0,982.0,1.0,0,512.0,1
119,119,0.7456865235812565,0.7,0.0,0.0,362.0,816.0,0.0,1,242.0,1
120,120,0.17989484440860182,0.2,0.0,0.0,452.0,897.0,0.0,1,291.0,1
121,121,0.5199861533173021,0.5,1.0,1.0,346.0,982.0,1.0,1,762.0,1
122,122,0.34637212607627077,0.3,0.0,0.0,381.0,773.0,0.0,1,1026.0,1
123,123,0.8819338061220386,0.9,1.0,1.0,375.0,693.0,1.0,1,382.0,1
124,124,0.8312390570104543,0.8,1.0,1.0,393.0,690.0,1.0,1,327.0,1
125,125,0.6129514845922074,0.6,1.0,1.0,351.0,863.0,1.0,1,76.0,1
126,126,0.8316734522166406,0.8,1.0,1.0,339.0,834.0,1.0,1,267.0,1
127,127,0.24791164501377316,0.2,1.0,1.0,389.0,926.0,1.0,1,475.0,1
128,128,-0.622138274845843,-0.6,1.0,0.0,284.0,564.0,0.0,0,712.0,1
129,129,-0.7481950443516693,-0.7,0.0,1.0,366.0,870.0,1.0,0,204.0,1
130,130,0.38154434794176806,0.4,1.0,1.0,299.0,528.0,1.0,1,503.0,1
131,131,-0.08191171148854892,-0.1,0.0,1.0,483.0,890.0,1.0,0,417.0,1
132,132,0.7819849844931354,0.8,0.0,0.0,442.0,556.0,0.0,1,542.0,1
133,133,-0.556740488059152,-0.6,1.0,0.0,492.0,907.0,0.0,0,831.0,1
134,134,-0.5425733911009232,-0.5,1.0,0.0,367.0,633.0,0.0,0,380.0,1
135,135,0.3396305034582162,0.3,0.0,0.0,304.0,900.0,0.0,1,-384.0,1
136,136,0.7657360562550032,0.8,0.0,0.0,268.0,979.0,0.0,1,583.0,1
137,137,0.4670772335312968,0.5,0.0,0.0,295.0,921.0,0.0,1,184.0,1
138,138,-0.1730324538816963,-0.2,1.0,0.0,426.0,901.0,0.0,0,553.0,1
139,139,0.8107935866056405,0.8,1.0,1.0,404.0,851.0,1.0,1,235.0,1
140,140,-0.2777541947883023,-0.3,1.0,0.0,255.0,842.0,1.0,1,653.0,0
141,141,-0.5055838860614105,-0.5,0.0,1.0,256.0,871.0,1.0,0,493.0,1
142,142,0.6461443270532853,0.6,0.0,0.0,397.0,976.0,0.0,1,117.0,1
143,143,0.7163519185604753,0.7,0.0,0.0,498.0,804.0,1.0,0,328.0,0
144,144,0.37309325997231035,0.4,1.0,1.0,486.0,527.0,1.0,1,617.0,1
145,145,0.78681704355393,0.8,1.0,1.0,302.0,945.0,1.0,1,303.0,1
146,146,-0.04420240048054769,-0.0,0.0,1.0,315.0,927.0,1.0,0,518.0,1
147,147,0.5441330124217297,0.5,0.0,0.0,447.0,703.0,0.0,1,380.0,1
148,148,0.7155795508107455,0.7,1.0,1.0,420.0,624.0,1.0,1,256.0,1
149,149,-0.35978464572282176,-0.4,1.0,0.0,368.0,833.0,0.0,0,639.0,1
150,150,-0.8422688529751678,-0.8,0.0,1.0,275.0,652.0,1.0,0,523.0,1
151,151,-0.6472510899230157,-0.6,1.0,0.0,351.0,956.0,0.0,0,433.0,1
152,152,0.576521603326443,0.6,1.0,1.0,276.0,531.0,1.0,1,673.0,1
153,153,-0.869455591174096,-0.9,1.0,0.0,446.0,955.0,0.0,0,689.0,1
154,154,-0.01827336979323002,-0.0,1.0,0.0,335.0,606.0,1.0,1,999.0,0
155,155,0.6717899426151118,0.7,1.0,1.0,433.0,841.0,1.0,1,186.0,1
156,156,0.4564322788593774,0.5,0.0,0.0,410.0,731.0,0.0,1,749.0,1
157,157,-0.513432418484485,-0.5,1.0,0.0,329.0,837.0,0.0,0,414.0,1
158,158,-0.5827468027318214,-0.6,0.0,1.0,391.0,701.0,1.0,0,428.0,1
159,159,0.5073996924633687,0.5,0.0,0.0,254.0,763.0,1.0,0,463.0,0
160,160,0.06944575315067558,0.1,1.0,1.0,284.0,865.0,0.0,0,761.0,0
161,161,0.7252236207404127,0.7,1.0,1.0,469.0,545.0,1.0,1,506.0,1
162,162,0.673505749320156,0.7,0.0,0.0,285.0,976.0,1.0,0,89.0,0
163,163,0.18472455811793675,0.2,1.0,1.0,469.0,771.0,1.0,1,280.0,1
164,164,-0.34185726817722584,-0.3,0.0,1.0,280.0,762.0,1.0,0,658.0,1
165,165,0.36176139714097266,0.4,1.0,1.0,342.0,881.0,1.0,1,897.0,1
166,166,-0.5638441005759531,-0.6,0.0,1.0,344.0,754.0,1.0,0,932.0,1
167,167,0.056904393758805405,0.1,1.0,1.0,259.0,871.0,0.0,0,1710.0,0
168,168,-0.364187357538983,-0.4,0.0,1.0,464.0,819.0,1.0,0,507.0,1
169,169,-0.32940035242601906,-0.3,1.0,0.0,303.0,801.0,0.0,0,906.0,1
170,170,-0.16257240386531047,-0.2,0.0,1.0,296.0,800.0,1.0,0,934.0,1
171,171,0.7993944731471424,0.8,1.0,1.0,420.0,524.0,1.0,1,596.0,1
172,172,-0.1670001736361989,-0.2,1.0,0.0,419.0,650.0,1.0,1,891.0,0
173,173,0.6953289645764119,0.7,0.0,0.0,445.0,744.0,1.0,0,241.0,0
174,174,-0.18212851848269485,-0.2,0.0,1.0,327.0,937.0,0.0,1,1286.0,0
175,175,0.8973661092947093,0.9,0.0,0.0,393.0,729.0,0.0,1,588.0,1
176,176,-0.7691902155739433,-0.8,0.0,1.0,442.0,903.0,1.0,0,235.0,1
177,177,0.3098894005065497,0.3,1.0,1.0,471.0,677.0,1.0,1,492.0,1
178,178,0.8811829325962058,0.9,1.0,1.0,330.0,788.0,1.0,1,392.0,1
179,179,0.2707611033649028,0.3,0.0,0.0,350.0,512.0,0.0,1,1008.0,1
180,180,-0.0683521394137695,-0.1,0.0,1.0,479.0,793.0,1.0,0,1108.0,1
181,181,-0.8616540306677402,-0.9,0.0,1.0,423.0,750.0,1.0,0,257.0,1
182,182,-0.037818269815966365,-0.0,0.0,1.0,376.0,927.0,0.0,1,1247.0,0
183,183,0.2076598355069471,0.2,0.0,0.0,361.0,862.0,0.0,1,397.0,1
184,184,-0.1407197310376287,-0.1,1.0,0.0,293.0,552.0,0.0,0,625.0,1
185,185,-0.5964086267890224,-0.6,1.0,0.0,341.0,608.0,0.0,0,291.0,1
186,186,0.6213611050705757,0.6,1.0,1.0,387.0,671.0,1.0,1,462.0,1
187,187,-0.038713881490527347,-0.0,0.0,1.0,343.0,972.0,1.0,0,585.0,1
188,188,-0.8636583727208761,-0.9,0.0,1.0,294.0,618.0,1.0,0,498.0,1
189,189,-0.4894736145242959,-0.5,1.0,0.0,449.0,668.0,0.0,0,1043.0,1
190,190,0.40305715309987333,0.4,0.0,0.0,393.0,811.0,0.0,1,616.0,1
191,191,0.7533382090000652,0.8,1.0,1.0,377.0,514.0,1.0,1,459.0,1
192,192,-0.07472925765446992,-0.1,1.0,0.0,479.0,560.0,1.0,1,861.0,0
193,193,0.8487371413279025,0.8,1.0,1.0,270.0,961.0,1.0,1,79.0,1
194,194,-0.6863386396256892,-0.7,1.0,0.0,437.0,983.0,0.0,0,300.0,1
195,195,-0.22311004836715354,-0.2,0.0,1.0,313.0,880.0,1.0,0,97.0,1
196,196,-0.11962141976669671,-0.1,0.0,1.0,250.0,925.0,0.0,1,705.0,0
197,197,-0.3145470248343982,-0.3,1.0,0.0,367.0,511.0,1.0,1,1492.0,0
198,198,-0.80946365611842,-0.8,0.0,1.0,293.0,719.0,1.0,0,488.0,1
199,199,-0.07870992665719079,-0.1,0.0,1.0,338.0,969.0,1.0,0,163.0,1
200,200,0.6588060240824679,0.7,1.0,1.0,490.0,563.0,1.0,1,527.0,1
201,201,0.09444667553565789,0.1,1.0,1.0,350.0,937.0,1.0,1,2333.0,1
202,202,-0.8311868450259331,-0.8,1.0,0.0,317.0,855.0,0.0,0,348.0,1
203,203,0.0657555403138802,0.1,0.0,0.0,494.0,672.0,0.0,1,2264.0,1
204,204,-0.7810188603724326,-0.8,1.0,0.0,318.0,589.0,0.0,0,373.0,1
205,205,-0.11555585455277873,-0.1,1.0,0.0,321.0,715.0,0.0,0,594.0,1
206,206,-0.13880098343064795,-0.1,1.0,0.0,471.0,819.0,0.0,0,1490.0,1
207,207,0.4423605882063596,0.4,0.0,0.0,494.0,676.0,0.0,1,800.0,1
208,208,0.5429755361034584,0.5,0.0,0.0,284.0,584.0,0.0,1,852.0,1
209,209,-0.6151247369128994,-0.6,1.0,0.0,415.0,678.0,0.0,0,277.0,1
210,210,0.6753248977570326,0.7,0.0,0.0,423.0,952.0,0.0,1,375.0,1
211,211,0.08359523188131446,0.1,1.0,1.0,324.0,604.0,0.0,0,1352.0,0
212,212,-0.5198866170267253,-0.5,1.0,0.0,334.0,669.0,0.0,0,267.0,1
213,213,0.1574045574195565,0.2,1.0,1.0,251.0,859.0,1.0,1,500.0,1
214,214,0.7080407188219059,0.7,1.0,1.0,411.0,973.0,0.0,0,16.0,0
215,215,-0.2759002968000427,-0.3,0.0,1.0,288.0,665.0,1.0,0,1257.0,1
216,216,0.3842692148406429,0.4,0.0,0.0,384.0,617.0,0.0,1,859.0,1
217,217,0.47299669618215534,0.5,0.0,0.0,365.0,844.0,0.0,1,1471.0,1
218,218,-0.5020160905560234,-0.5,0.0,1.0,419.0,676.0,1.0,0,595.0,1
219,219,0.031966142061191194,0.0,0.0,0.0,307.0,730.0,0.0,1,373.0,1
220,220,0.049014727991848805,0.0,0.0,0.0,385.0,879.0,1.0,0,526.0,0
221,221,0.2433198189658886,0.2,0.0,0.0,407.0,829.0,0.0,1,1184.0,1
222,222,-0.8374791817175179,-0.8,1.0,0.0,477.0,694.0,0.0,0,909.0,1
223,223,-0.7906558270896639,-0.8,0.0,1.0,306.0,982.0,1.0,0,752.0,1
224,224,-0.13585826722325323,-0.1,0.0,1.0,385.0,715.0,1.0,0,800.0,1
225,225,0.5246301452724532,0.5,0.0,0.0,323.0,512.0,0.0,1,975.0,1
226,226,0.47232757943733017,0.5,0.0,0.0,461.0,742.0,0.0,1,387.0,1
227,227,-0.5228067061334555,-0.5,0.0,1.0,381.0,582.0,1.0,0,1157.0,1
228,228,-0.431061852487789,-0.4,1.0,0.0,363.0,575.0,0.0,0,722.0,1
229,229,0.4495588872027866,0.4,0.0,0.0,263.0,566.0,1.0,0,781.0,0
230,230,0.6834740508884151,0.7,1.0,1.0,321.0,788.0,1.0,1,781.0,1
231,231,-0.006620032694045874,-0.0,0.0,1.0,479.0,570.0,0.0,1,461.0,0
232,232,-0.41768938066118255,-0.4,0.0,1.0,256.0,761.0,1.0,0,203.0,1
233,233,-0.1043449799114805,-0.1,1.0,0.0,362.0,901.0,0.0,0,2827.0,1
234,234,0.15974133521069056,0.2,0.0,0.0,372.0,886.0,1.0,0,122.0,0
235,235,-0.8846547934068159,-0.9,1.0,0.0,432.0,872.0,0.0,0,136.0,1
236,236,-0.16668187560377468,-0.2,1.0,0.0,303.0,785.0,1.0,1,902.0,0
237,237,-0.7486163321110524,-0.7,0.0,1.0,310.0,914.0,1.0,0,536.0,1
238,238,-0.4403474931504634,-0.4,1.0,0.0,417.0,899.0,0.0,0,844.0,1
239,239,-0.7481727709811696,-0.7,0.0,1.0,406.0,873.0,1.0,0,571.0,1
240,240,-0.2856787301705307,-0.3,1.0,0.0,432.0,841.0,1.0,1,1027.0,0
241,241,-0.22814852939504326,-0.2,1.0,0.0,487.0,697.0,0.0,0,696.0,1
242,242,-0.005159756613563604,-0.0,1.0,0.0,487.0,984.0,0.0,0,319.0,1
243,243,-0.4426422343548217,-0.4,1.0,0.0,328.0,524.0,0.0,0,1418.0,1
244,244,-0.48232554104246955,-0.5,0.0,1.0,275.0,767.0,1.0,0,398.0,1
245,245,0.16982661913514485,0.2,0.0,0.0,434.0,855.0,1.0,0,-119.0,0
246,246,0.5456691706983944,0.5,1.0,1.0,491.0,677.0,1.0,1,392.0,1
247,247,0.4869527552196543,0.5,0.0,0.0,295.0,763.0,0.0,1,722.0,1
248,248,-0.3276196757536525,-0.3,0.0,1.0,329.0,710.0,1.0,0,441.0,1
249,249,0.28087736077008907,0.3,0.0,0.0,435.0,997.0,0.0,1,2028.0,1
250,250,0.1448842856013589,0.1,0.0,0.0,329.0,920.0,0.0,1,651.0,1
251,251,0.1294682075302659,0.1,0.0,0.0,353.0,892.0,0.0,1,625.0,1
252,252,0.7218264328374876,0.7,0.0,0.0,478.0,869.0,0.0,1,293.0,1
253,253,-0.44450316215540825,-0.4,0.0,1.0,325.0,869.0,0.0,1,206.0,0
254,254,-0.11926458761599656,-0.1,1.0,0.0,277.0,868.0,1.0,1,575.0,0
255,255,-0.3830941525783511,-0.4,1.0,0.0,381.0,752.0,0.0,0,1017.0,1
256,256,-0.8449288616695968,-0.8,1.0,0.0,330.0,899.0,1.0,1,-99.0,0
257,257,0.11767846076779354,0.1,0.0,0.0,495.0,611.0,0.0,1,844.0,1
258,258,-0.03953298019667939,-0.0,1.0,0.0,287.0,761.0,0.0,0,162.0,1
259,259,0.09926734814743332,0.1,1.0,1.0,400.0,689.0,1.0,1,241.0,1
260,260,-0.7651838391417276,-0.8,0.0,1.0,299.0,688.0,1.0,0,383.0,1
261,261,0.8243714764339941,0.8,1.0,1.0,424.0,575.0,1.0,1,311.0,1
262,262,0.35190419646298643,0.4,0.0,0.0,439.0,557.0,0.0,1,334.0,1
263,263,0.7043518900460451,0.7,0.0,0.0,382.0,593.0,0.0,1,635.0,1
264,264,0.32871191056672056,0.3,0.0,0.0,493.0,794.0,1.0,0,313.0,0
265,265,0.5566900537539973,0.6,1.0,1.0,407.0,864.0,1.0,1,269.0,1
266,266,-0.876778561212028,-0.9,1.0,0.0,436.0,635.0,0.0,0,399.0,1
267,267,-0.20861538398221136,-0.2,1.0,0.0,446.0,625.0,0.0,0,1199.0,1
268,268,0.20355187024630805,0.2,0.0,0.0,487.0,642.0,1.0,0,3701.0,0
269,269,0.12140430758105014,0.1,1.0,1.0,411.0,742.0,1.0,1,1057.0,1
270,270,0.1006801851126845,0.1,0.0,0.0,305.0,900.0,1.0,0,2305.0,0
271,271,0.4650078717652669,0.5,0.0,0.0,491.0,773.0,0.0,1,646.0,1
272,272,0.24262945674347935,0.2,1.0,1.0,457.0,601.0,1.0,1,1792.0,1
273,273,0.857132586392429,0.9,1.0,1.0,461.0,726.0,1.0,1,383.0,1
274,274,0.6839274584836638,0.7,1.0,1.0,413.0,987.0,1.0,1,30.0,1
275,275,0.660627113552987,0.7,1.0,1.0,272.0,640.0,1.0,1,378.0,1
276,276,-0.5444235246389049,-0.5,1.0,0.0,308.0,876.0,0.0,0,1706.0,1
277,277,0.2836764514911355,0.3,0.0,0.0,365.0,747.0,0.0,1,958.0,1
278,278,-0.4044563006820401,-0.4,1.0,0.0,445.0,553.0,0.0,0,602.0,1
279,279,0.20282673309502208,0.2,1.0,1.0,394.0,552.0,1.0,1,494.0,1
280,280,-0.08914707582951775,-0.1,1.0,0.0,415.0,599.0,0.0,0,2736.0,1
281,281,0.22070351159641988,0.2,0.0,0.0,413.0,996.0,0.0,1,41.0,1
282,282,0.34695344235973946,0.3,0.0,0.0,386.0,549.0,0.0,1,405.0,1
283,283,-0.8646483800143691,-0.9,0.0,1.0,423.0,936.0,1.0,0,111.0,1
284,284,0.2611751991884429,0.3,1.0,1.0,395.0,698.0,1.0,1,527.0,1
285,285,0.3697254963516773,0.4,0.0,0.0,301.0,578.0,0.0,1,431.0,1
286,286,-0.07240909401130968,-0.1,0.0,1.0,293.0,537.0,1.0,0,700.0,1
287,287,-0.07394131822996852,-0.1,0.0,1.0,455.0,684.0,1.0,0,421.0,1
288,288,0.35827477229981797,0.4,0.0,0.0,299.0,707.0,0.0,1,534.0,1
289,289,-0.779682468102574,-0.8,1.0,0.0,458.0,794.0,0.0,0,328.0,1
290,290,0.24916709812819093,0.2,0.0,0.0,449.0,861.0,0.0,1,1130.0,1
291,291,-0.5194566356088388,-0.5,0.0,1.0,470.0,861.0,1.0,0,289.0,1
292,292,-0.8432799461926086,-0.8,1.0,0.0,262.0,584.0,0.0,0,454.0,1
293,293,-0.8317380247062607,-0.8,0.0,1.0,316.0,699.0,1.0,0,755.0,1
294,294,-0.7869115517649573,-0.8,0.0,1.0,474.0,841.0,1.0,0,375.0,1
295,295,0.09822427195298233,0.1,0.0,0.0,447.0,726.0,0.0,1,217.0,1
296,296,0.13719768510440622,0.1,1.0,1.0,404.0,527.0,1.0,1,1929.0,1
297,297,0.6635384648852788,0.7,0.0,0.0,454.0,870.0,0.0,1,566.0,1
298,298,-0.7259897393070209,-0.7,1.0,0.0,422.0,821.0,0.0,0,277.0,1
299,299,0.2261801647744227,0.2,0.0,0.0,299.0,557.0,0.0,1,1634.0,1
300,300,0.15551523725434901,0.2,0.0,0.0,313.0,752.0,1.0,0,555.0,0
301,301,0.6534247166749118,0.7,0.0,0.0,418.0,919.0,0.0,1,343.0,1
302,302,0.6842485274719884,0.7,0.0,0.0,365.0,846.0,0.0,1,189.0,1
303,303,-0.7381483114369158,-0.7,0.0,1.0,342.0,827.0,1.0,0,51.0,1
304,304,-0.2088711600211104,-0.2,0.0,1.0,315.0,948.0,0.0,1,87.0,0
305,305,-0.8503456477327774,-0.9,1.0,0.0,480.0,689.0,0.0,0,311.0,1
306,306,0.8468512950897765,0.8,0.0,0.0,467.0,515.0,0.0,1,968.0,1
307,307,0.8651849570254831,0.9,1.0,1.0,279.0,814.0,1.0,1,457.0,1
308,308,-0.22650824615800225,-0.2,0.0,1.0,435.0,885.0,1.0,0,600.0,1
309,309,-0.24346405990309117,-0.2,1.0,0.0,279.0,526.0,1.0,1,1655.0,0
310,310,0.19804627040758482,0.2,0.0,0.0,346.0,831.0,0.0,1,423.0,1
311,311,-0.47773231829193147,-0.5,1.0,0.0,448.0,935.0,1.0,1,1527.0,0
312,312,0.2725409133718205,0.3,0.0,0.0,354.0,577.0,0.0,1,389.0,1
313,313,0.8131673214767191,0.8,1.0,1.0,411.0,729.0,1.0,1,320.0,1
314,314,0.151604780722166,0.2,1.0,1.0,250.0,853.0,1.0,1,297.0,1
315,315,-0.7255106457576691,-0.7,0.0,1.0,287.0,544.0,1.0,0,479.0,1
316,316,0.007316111087567134,0.0,0.0,0.0,300.0,954.0,1.0,0,46.0,0
317,317,0.5809227746343676,0.6,0.0,0.0,301.0,735.0,0.0,1,314.0,1
318,318,-0.4319580536360477,-0.4,1.0,0.0,499.0,677.0,1.0,1,654.0,0
319,319,0.4413334597593169,0.4,1.0,1.0,392.0,649.0,1.0,1,19.0,1
320,320,0.15902356686328967,0.2,0.0,0.0,295.0,820.0,1.0,0,495.0,0
321,321,-0.46546772074614456,-0.5,0.0,1.0,280.0,749.0,1.0,0,631.0,1
322,322,0.023888720151035603,0.0,0.0,0.0,364.0,939.0,1.0,0,147.0,0
323,323,0.7480381179246379,0.7,1.0,1.0,474.0,543.0,1.0,1,363.0,1
324,324,-0.28293317779377936,-0.3,1.0,0.0,443.0,979.0,0.0,0,1088.0,1
325,325,0.8668688411119113,0.9,0.0,0.0,357.0,712.0,0.0,1,241.0,1
326,326,-0.4057583017591574,-0.4,1.0,0.0,254.0,763.0,0.0,0,323.0,1
327,327,0.530750155609527,0.5,0.0,0.0,319.0,927.0,0.0,1,1034.0,1
328,328,0.04983969798740684,0.0,0.0,0.0,324.0,974.0,1.0,0,252.0,0
329,329,-0.8388625002705813,-0.8,1.0,0.0,442.0,528.0,0.0,0,520.0,1
330,330,-0.8005845652898678,-0.8,0.0,1.0,301.0,819.0,1.0,0,560.0,1
331,331,-0.7857302436785292,-0.8,1.0,0.0,320.0,628.0,0.0,0,452.0,1
332,332,0.16985922978971824,0.2,0.0,0.0,336.0,952.0,0.0,1,572.0,1
333,333,0.5540313949388703,0.6,1.0,1.0,290.0,983.0,1.0,1,-33.0,1
334,334,-0.851755491024221,-0.9,0.0,1.0,375.0,959.0,1.0,0,226.0,1
335,335,0.760175964838138,0.8,0.0,0.0,467.0,982.0,1.0,0,321.0,0
336,336,0.10696420714189225,0.1,0.0,0.0,396.0,806.0,1.0,0,578.0,0
337,337,0.8352365279355519,0.8,0.0,0.0,453.0,588.0,0.0,1,639.0,1
338,338,-0.6067793019983694,-0.6,0.0,1.0,408.0,576.0,1.0,0,726.0,1
339,339,-0.7710069171877091,-0.8,0.0,1.0,387.0,696.0,1.0,0,707.0,1
340,340,0.27909929690040747,0.3,1.0,1.0,439.0,891.0,1.0,1,490.0,1
341,341,-0.6780701205996726,-0.7,0.0,1.0,382.0,682.0,1.0,0,936.0,1
342,342,-0.6730660097582277,-0.7,0.0,1.0,334.0,663.0,1.0,0,393.0,1
343,343,0.5196434207408623,0.5,0.0,0.0,268.0,603.0,0.0,1,269.0,1
344,344,-0.08246580212062116,-0.1,0.0,1.0,450.0,782.0,0.0,1,538.0,0
345,345,-0.2793890095256475,-0.3,0.0,1.0,355.0,920.0,1.0,0,945.0,1
346,346,0.22307089393077717,0.2,1.0,1.0,431.0,808.0,0.0,0,101.0,0
347,347,0.5572988549975874,0.6,0.0,0.0,434.0,560.0,0.0,1,366.0,1
348,348,0.7924621910680237,0.8,0.0,0.0,312.0,888.0,0.0,1,70.0,1
349,349,0.7663702481051223,0.8,1.0,1.0,421.0,813.0,1.0,1,526.0,1
350,350,0.0653986433124869,0.1,0.0,0.0,414.0,880.0,1.0,0,876.0,0
351,351,-0.86543701015296,-0.9,0.0,1.0,280.0,574.0,1.0,0,596.0,1
352,352,0.294886821172231,0.3,0.0,0.0,345.0,876.0,0.0,1,129.0,1
353,353,-0.45839313560792794,-0.5,1.0,0.0,309.0,709.0,0.0,0,362.0,1
354,354,-0.8182395327619911,-0.8,1.0,0.0,396.0,890.0,0.0,0,124.0,1
355,355,-0.5093662465038216,-0.5,0.0,1.0,400.0,922.0,0.0,1,158.0,0
356,356,-0.7256957802151932,-0.7,1.0,0.0,498.0,682.0,0.0,0,660.0,1
357,357,-0.3564442357791542,-0.4,1.0,0.0,443.0,502.0,0.0,0,645.0,1
358,358,-0.032449386690621695,-0.0,0.0,1.0,392.0,600.0,1.0,0,658.0,1
359,359,0.21374176323605687,0.2,1.0,1.0,306.0,915.0,1.0,1,329.0,1
360,360,-0.6400105611169484,-0.6,1.0,0.0,460.0,851.0,0.0,0,359.0,1
361,361,0.01917761779053062,0.0,0.0,0.0,285.0,586.0,0.0,1,1159.0,1
362,362,0.1926264492599511,0.2,0.0,0.0,491.0,795.0,0.0,1,1114.0,1
363,363,0.43014465054611806,0.4,0.0,0.0,399.0,801.0,0.0,1,510.0,1
364,364,0.7622828452228153,0.8,1.0,1.0,433.0,732.0,1.0,1,525.0,1
365,365,0.10523590691658569,0.1,1.0,1.0,268.0,732.0,1.0,1,680.0,1
366,366,-0.6220847324187817,-0.6,0.0,1.0,460.0,681.0,1.0,0,369.0,1
367,367,-0.09165864112220123,-0.1,0.0,1.0,314.0,989.0,0.0,1,1087.0,0
368,368,0.8506060293933116,0.9,1.0,1.0,270.0,915.0,1.0,1,135.0,1
369,369,-0.5715324327451597,-0.6,0.0,1.0,314.0,601.0,1.0,0,465.0,1
370,370,-0.27406000644568906,-0.3,0.0,1.0,448.0,629.0,1.0,0,453.0,1
371,371,-0.25753130038598393,-0.3,1.0,0.0,271.0,606.0,1.0,1,1183.0,0
372,372,0.6046465525839829,0.6,1.0,1.0,324.0,759.0,1.0,1,157.0,1
373,373,0.14732193771569102,0.1,1.0,1.0,440.0,681.0,1.0,1,739.0,1
374,374,0.6371236394898038,0.6,1.0,1.0,279.0,584.0,1.0,1,617.0,1
375,375,0.48683395370946003,0.5,1.0,1.0,252.0,917.0,1.0,1,81.0,1
376,376,-0.235975741981709,-0.2,1.0,0.0,487.0,976.0,1.0,1,2177.0,0
377,377,0.4495393208751207,0.4,1.0,1.0,409.0,550.0,1.0,1,541.0,1
378,378,0.8897066466984526,0.9,0.0,0.0,334.0,865.0,0.0,1,571.0,1
379,379,0.19112034658358124,0.2,1.0,1.0,480.0,851.0,1.0,1,239.0,1
380,380,-0.621739165595601,-0.6,0.0,1.0,253.0,751.0,1.0,0,366.0,1
381,381,-0.29679615518507907,-0.3,1.0,0.0,481.0,655.0,0.0,0,1554.0,1
382,382,-0.6981202255943836,-0.7,1.0,0.0,295.0,565.0,0.0,0,980.0,1
383,383,0.5330645953093246,0.5,1.0,1.0,455.0,839.0,1.0,1,476.0,1
384,384,-0.00868467511415294,-0.0,1.0,0.0,424.0,567.0,1.0,1,679.0,0
385,385,0.7848634487074916,0.8,1.0,1.0,356.0,829.0,1.0,1,435.0,1
386,386,-0.7693712254735118,-0.8,0.0,1.0,336.0,696.0,1.0,0,328.0,1
387,387,0.638422614950272,0.6,1.0,1.0,278.0,994.0,0.0,0,-32.0,0
388,388,0.05301497451405646,0.1,0.0,0.0,301.0,971.0,1.0,0,648.0,0
389,389,-0.14659662339284385,-0.1,0.0,1.0,264.0,886.0,1.0,0,1210.0,1
390,390,-0.2068448369954775,-0.2,0.0,1.0,260.0,969.0,0.0,1,1521.0,0
391,391,0.7355064610389782,0.7,0.0,0.0,468.0,750.0,0.0,1,272.0,1
392,392,-0.6464374345823687,-0.6,0.0,1.0,484.0,823.0,1.0,0,503.0,1
393,393,0.6474584652040666,0.6,0.0,0.0,290.0,730.0,0.0,1,330.0,1
394,394,-0.507609113478779,-0.5,0.0,1.0,362.0,830.0,1.0,0,698.0,1
395,395,0.13277301053793023,0.1,1.0,1.0,485.0,921.0,1.0,1,444.0,1
396,396,-0.5065899499274044,-0.5,1.0,0.0,278.0,915.0,1.0,1,297.0,0
397,397,-0.10894253753832595,-0.1,1.0,0.0,472.0,576.0,1.0,1,612.0,0
398,398,0.8795602735884688,0.9,1.0,1.0,259.0,841.0,1.0,1,330.0,1
399,399,-0.5680410059507404,-0.6,0.0,1.0,294.0,812.0,1.0,0,324.0,1
400,400,0.3978459272363942,0.4,1.0,1.0,361.0,546.0,1.0,1,403.0,1
401,401,0.3017099910434259,0.3,0.0,0.0,445.0,507.0,0.0,1,818.0,1
402,402,0.2211105461381485,0.2,0.0,0.0,459.0,561.0,1.0,0,460.0,0
403,403,-0.3004585749326516,-0.3,0.0,1.0,485.0,843.0,1.0,0,792.0,1
404,404,0.22961356873319383,0.2,0.0,0.0,410.0,770.0,0.0,1,760.0,1
405,405,-0.8508614283678828,-0.9,1.0,0.0,493.0,839.0,0.0,0,248.0,1
406,406,-0.2623142040245311,-0.3,0.0,1.0,389.0,684.0,1.0,0,297.0,1
407,407,-0.4857130973724159,-0.5,1.0,0.0,449.0,612.0,0.0,0,669.0,1
408,408,0.08840687618196919,0.1,1.0,1.0,313.0,838.0,1.0,1,309.0,1
409,409,0.880243075738376,0.9,1.0,1.0,347.0,774.0,1.0,1,499.0,1
410,410,0.2814872132060581,0.3,1.0,1.0,464.0,997.0,0.0,0,-51.0,0
411,411,-0.008590247574604915,-0.0,0.0,1.0,254.0,990.0,1.0,0,6.0,1
412,412,0.1518721537756974,0.2,0.0,0.0,415.0,658.0,1.0,0,2397.0,0
413,413,0.1568404524125403,0.2,1.0,1.0,351.0,966.0,1.0,1,193.0,1
414,414,0.14563142319532563,0.1,0.0,0.0,479.0,761.0,0.0,1,780.0,1
415,415,-0.771829247943622,-0.8,0.0,1.0,299.0,559.0,1.0,0,432.0,1
416,416,0.18153651946158378,0.2,1.0,1.0,371.0,561.0,1.0,1,948.0,1
417,417,-0.3373786874868189,-0.3,1.0,0.0,386.0,847.0,1.0,1,337.0,0
418,418,-0.538087185382988,-0.5,0.0,1.0,298.0,718.0,1.0,0,234.0,1
419,419,0.4665418677699392,0.5,1.0,1.0,359.0,587.0,1.0,1,544.0,1
420,420,-0.7465693915911825,-0.7,1.0,0.0,355.0,797.0,0.0,0,188.0,1
421,421,0.5040125435382238,0.5,0.0,0.0,361.0,688.0,0.0,1,741.0,1
422,422,-0.8098762099754482,-0.8,0.0,1.0,358.0,973.0,1.0,0,429.0,1
423,423,0.5876723340510396,0.6,0.0,0.0,310.0,795.0,0.0,1,645.0,1
424,424,-0.6012243448370049,-0.6,0.0,1.0,373.0,818.0,1.0,0,189.0,1
425,425,-0.8943811862895685,-0.9,1.0,0.0,370.0,605.0,0.0,0,865.0,1
426,426,0.005614380046191525,0.0,0.0,0.0,259.0,989.0,1.0,0,592.0,0
427,427,-0.08668332105802246,-0.1,0.0,1.0,427.0,664.0,1.0,0,699.0,1
428,428,-0.5371518245286724,-0.5,0.0,1.0,301.0,830.0,1.0,0,359.0,1
429,429,-0.5693104870830872,-0.6,0.0,1.0,447.0,629.0,1.0,0,354.0,1
430,430,-0.8309072380643203,-0.8,0.0,1.0,350.0,513.0,1.0,0,587.0,1
431,431,-0.5477133879227696,-0.5,0.0,1.0,413.0,792.0,1.0,0,255.0,1
432,432,0.053378594236635823,0.1,0.0,0.0,474.0,913.0,0.0,1,403.0,1
433,433,-0.5007312114199711,-0.5,0.0,1.0,498.0,833.0,1.0,0,779.0,1
434,434,0.5036278436157832,0.5,1.0,1.0,482.0,784.0,1.0,1,1124.0,1
435,435,-0.07980753733459123,-0.1,0.0,1.0,272.0,877.0,1.0,0,231.0,1
436,436,-0.11116642238784091,-0.1,1.0,0.0,256.0,776.0,0.0,0,258.0,1
437,437,-0.4630082186619616,-0.5,1.0,0.0,326.0,975.0,0.0,0,319.0,1
438,438,0.7864313081438364,0.8,1.0,1.0,426.0,971.0,1.0,1,-27.0,1
439,439,0.7000884050118167,0.7,1.0,1.0,448.0,751.0,1.0,1,231.0,1
440,440,0.3109076022306977,0.3,0.0,0.0,252.0,606.0,0.0,1,782.0,1
441,441,-0.4032625952565788,-0.4,0.0,1.0,314.0,864.0,1.0,0,202.0,1
442,442,0.09145049889675472,0.1,0.0,0.0,498.0,980.0,1.0,0,102.0,0
443,443,-0.8094837690020076,-0.8,1.0,0.0,429.0,712.0,0.0,0,299.0,1
444,444,0.743738154333237,0.7,0.0,0.0,399.0,671.0,0.0,1,330.0,1
445,445,-0.4666998281861913,-0.5,1.0,0.0,395.0,886.0,0.0,0,569.0,1
446,446,0.27996338580263014,0.3,1.0,1.0,290.0,952.0,1.0,1,1048.0,1
447,447,0.6658645610492088,0.7,0.0,0.0,313.0,940.0,0.0,1,467.0,1
448,448,-0.21657255904403705,-0.2,0.0,1.0,423.0,556.0,1.0,0,1001.0,1
449,449,-0.15873738420932715,-0.2,0.0,1.0,382.0,674.0,0.0,1,1494.0,0
450,450,-0.2811758931526116,-0.3,1.0,0.0,492.0,684.0,0.0,0,694.0,1
451,451,0.6091266181704075,0.6,1.0,1.0,353.0,623.0,1.0,1,694.0,1
452,452,-0.38796119106619253,-0.4,0.0,1.0,259.0,962.0,1.0,0,199.0,1
453,453,-0.26605227962927014,-0.3,0.0,1.0,335.0,661.0,1.0,0,304.0,1
454,454,0.21277570138558366,0.2,1.0,1.0,453.0,911.0,1.0,1,486.0,1
455,455,0.11628313443351856,0.1,1.0,1.0,380.0,575.0,1.0,1,875.0,1
456,456,0.7586282042128506,0.8,1.0,1.0,452.0,621.0,1.0,1,727.0,1
457,457,0.8481065579150616,0.8,0.0,0.0,422.0,964.0,0.0,1,414.0,1
458,458,-0.005985764529738535,-0.0,1.0,0.0,441.0,587.0,1.0,1,2762.0,0
459,459,-0.3213371716686232,-0.3,0.0,1.0,301.0,504.0,1.0,0,1195.0,1
460,460,-0.7359939693591181,-0.7,0.0,1.0,323.0,517.0,1.0,0,1080.0,1
461,461,-0.1511371579606655,-0.2,1.0,0.0,474.0,791.0,0.0,0,115.0,1
462,462,-0.10761082178024639,-0.1,0.0,1.0,386.0,555.0,1.0,0,329.0,1
463,463,0.5543254305759514,0.6,0.0,0.0,418.0,579.0,0.0,1,703.0,1
464,464,-0.3590359696838248,-0.4,1.0,0.0,449.0,874.0,0.0,0,247.0,1
465,465,0.4034989274557671,0.4,0.0,0.0,344.0,859.0,1.0,0,367.0,0
466,466,0.42987573714787464,0.4,1.0,1.0,498.0,624.0,1.0,1,288.0,1
467,467,-0.22510087757913422,-0.2,0.0,1.0,434.0,666.0,1.0,0,1600.0,1
468,468,-0.8362278639093136,-0.8,1.0,0.0,498.0,909.0,0.0,0,133.0,1
469,469,0.7667178223471051,0.8,1.0,1.0,357.0,730.0,1.0,1,483.0,1
470,470,0.07900348483875852,0.1,0.0,0.0,456.0,565.0,1.0,0,449.0,0
471,471,-0.8083752106661123,-0.8,0.0,1.0,447.0,987.0,1.0,0,136.0,1
472,472,0.8192709466273488,0.8,1.0,1.0,418.0,660.0,1.0,1,382.0,1
473,473,0.7506195056635999,0.8,0.0,0.0,346.0,612.0,0.0,1,542.0,1
474,474,-0.8718805842083631,-0.9,0.0,1.0,339.0,821.0,1.0,0,130.0,1
475,475,-0.19263184180273274,-0.2,0.0,1.0,416.0,948.0,1.0,0,1276.0,1
476,476,-0.5968880616041343,-0.6,1.0,0.0,320.0,676.0,0.0,0,374.0,1
477,477,0.48938481116527777,0.5,1.0,1.0,354.0,850.0,1.0,1,826.0,1
478,478,-0.3340151912483329,-0.3,0.0,1.0,387.0,989.0,0.0,1,-36.0,0
479,479,0.6587523029114047,0.7,1.0,1.0,292.0,725.0,1.0,1,143.0,1
480,480,0.8199654014616043,0.8,0.0,0.0,394.0,634.0,0.0,1,292.0,1
481,481,-0.37661509690431727,-0.4,1.0,0.0,299.0,516.0,0.0,0,325.0,1
482,482,0.11813467955118029,0.1,0.0,0.0,463.0,745.0,0.0,1,472.0,1
483,483,-0.2966059179522035,-0.3,0.0,1.0,309.0,700.0,0.0,1,1301.0,0
484,484,-0.2506143924130476,-0.3,1.0,0.0,301.0,862.0,0.0,0,1327.0,1
485,485,-0.746541520455716,-0.7,1.0,0.0,333.0,506.0,0.0,0,531.0,1
486,486,0.09458141512646767,0.1,0.0,0.0,271.0,519.0,0.0,1,700.0,1
487,487,-0.4853271925000174,-0.5,1.0,0.0,382.0,822.0,0.0,0,396.0,1
488,488,0.15625287284042255,0.2,1.0,1.0,365.0,560.0,1.0,1,1415.0,1
489,489,0.10056282770981284,0.1,0.0,0.0,296.0,676.0,0.0,1,358.0,1
490,490,-0.17794062549422085,-0.2,1.0,0.0,488.0,728.0,0.0,0,334.0,1
491,491,-0.31012260457483165,-0.3,0.0,1.0,398.0,519.0,1.0,0,863.0,1
492,492,0.3151634305327403,0.3,1.0,1.0,442.0,830.0,1.0,1,588.0,1
493,493,-0.7975962286882972,-0.8,1.0,0.0,283.0,546.0,0.0,0,251.0,1
494,494,-0.21950936974777324,-0.2,0.0,1.0,330.0,927.0,1.0,0,683.0,1
495,495,0.7214412762499948,0.7,0.0,0.0,345.0,963.0,0.0,1,82.0,1
496,496,0.7005351467740654,0.7,1.0,1.0,460.0,718.0,1.0,1,462.0,1
497,497,0.09002591358893475,0.1,0.0,0.0,331.0,796.0,0.0,1,1683.0,1
498,498,0.8410960005954476,0.8,0.0,0.0,469.0,956.0,0.0,1,315.0,1
499,499,-0.5975388415578535,-0.6,0.0,1.0,460.0,597.0,1.0,0,393.0,1
500,500,-0.5285914445002763,-0.5,0.0,1.0,452.0,944.0,1.0,0,484.0,1
501,501,-0.8849598126274048,-0.9,0.0,1.0,466.0,619.0,1.0,0,605.0,1
502,502,-0.5619404295229995,-0.6,0.0,1.0,463.0,850.0,1.0,0,37.0,1
503,503,-0.6418110725076924,-0.6,0.0,1.0,477.0,627.0,1.0,0,226.0,1
504,504,0.5096622844113489,0.5,0.0,0.0,363.0,629.0,0.0,1,758.0,1
505,505,-0.8366050585770188,-0.8,0.0,1.0,314.0,653.0,1.0,0,433.0,1
506,506,-0.2798079088490626,-0.3,1.0,0.0,410.0,601.0,0.0,0,619.0,1
507,507,-0.14578792936083296,-0.1,0.0,1.0,442.0,836.0,1.0,0,142.0,1
508,508,0.3659002381383548,0.4,1.0,1.0,390.0,613.0,1.0,1,627.0,1
509,509,0.04533542633798171,0.0,0.0,0.0,398.0,640.0,1.0,0,942.0,0
510,510,-0.5946873386058225,-0.6,1.0,0.0,280.0,656.0,0.0,0,144.0,1
511,511,0.3729437267926591,0.4,0.0,0.0,262.0,863.0,0.0,1,575.0,1
512,512,-0.2006685932188037,-0.2,0.0,1.0,396.0,598.0,0.0,1,816.0,0
513,513,0.30674467852380405,0.3,1.0,1.0,429.0,854.0,1.0,1,257.0,1
514,514,-0.37301295555843816,-0.4,1.0,0.0,292.0,680.0,1.0,1,218.0,0
515,515,0.12699014926832308,0.1,0.0,0.0,269.0,703.0,0.0,1,258.0,1
516,516,-0.6777954629485464,-0.7,1.0,0.0,484.0,578.0,0.0,0,888.0,1
517,517,0.28433209981489116,0.3,1.0,1.0,390.0,775.0,1.0,1,925.0,1
518,518,0.593417998303904,0.6,1.0,1.0,412.0,546.0,1.0,1,232.0,1
519,519,0.23661765729206075,0.2,1.0,1.0,490.0,603.0,1.0,1,677.0,1
520,520,-0.7754860218473908,-0.8,0.0,1.0,292.0,918.0,1.0,0,720.0,1
521,521,-0.27651423643485906,-0.3,0.0,1.0,345.0,907.0,1.0,0,788.0,1
522,522,-0.152591876107825,-0.2,1.0,0.0,284.0,600.0,0.0,0,936.0,1
523,523,-0.2882774311154126,-0.3,1.0,0.0,462.0,530.0,0.0,0,668.0,1
524,524,0.20676650017873432,0.2,1.0,1.0,400.0,856.0,1.0,1,224.0,1
525,525,-0.012482386923151956,-0.0,1.0,0.0,299.0,944.0,0.0,0,547.0,1
526,526,0.02765187123770252,0.0,0.0,0.0,328.0,841.0,0.0,1,301.0,1
527,527,-0.6128191336958285,-0.6,1.0,0.0,295.0,696.0,0.0,0,669.0,1
528,528,-0.7802835009638122,-0.8,0.0,1.0,419.0,692.0,1.0,0,519.0,1
529,529,-0.799183160202336,-0.8,0.0,1.0,452.0,885.0,1.0,0,143.0,1
530,530,0.0747301820306685,0.1,1.0,1.0,303.0,838.0,1.0,1,99.0,1
531,531,-0.24268105816595698,-0.2,1.0,0.0,326.0,574.0,0.0,0,430.0,1
532,532,0.6106509443661751,0.6,1.0,1.0,325.0,854.0,1.0,1,291.0,1
533,533,-0.7683581559261973,-0.8,1.0,0.0,473.0,789.0,0.0,0,398.0,1
534,534,-0.8405821863014091,-0.8,0.0,1.0,299.0,565.0,1.0,0,466.0,1
535,535,-0.2183122096695469,-0.2,0.0,1.0,274.0,658.0,1.0,0,338.0,1
536,536,-0.5516730982878291,-0.6,0.0,1.0,411.0,911.0,1.0,0,598.0,1
537,537,0.022708721860566605,0.0,1.0,1.0,316.0,973.0,1.0,1,2631.0,1
538,538,-0.47310784992039895,-0.5,0.0,1.0,339.0,876.0,1.0,0,615.0,1
539,539,-0.003336139663872917,-0.0,0.0,1.0,392.0,614.0,1.0,0,624.0,1
540,540,0.2812894574870838,0.3,1.0,1.0,419.0,916.0,1.0,1,505.0,1
541,541,0.7760905673735298,0.8,1.0,1.0,256.0,508.0,1.0,1,286.0,1
542,542,0.0881104576069256,0.1,1.0,1.0,424.0,899.0,0.0,0,427.0,0
543,543,0.5459961093204942,0.5,1.0,1.0,470.0,530.0,1.0,1,570.0,1
544,544,0.48988298295850774,0.5,1.0,1.0,312.0,690.0,1.0,1,908.0,1
545,545,-0.6865345191175606,-0.7,1.0,0.0,403.0,945.0,0.0,0,42.0,1
546,546,0.29851626844030876,0.3,0.0,0.0,436.0,946.0,0.0,1,358.0,1
547,547,0.519206398072617,0.5,0.0,0.0,487.0,796.0,0.0,1,297.0,1
548,548,-0.6772307266624517,-0.7,1.0,0.0,431.0,703.0,0.0,0,816.0,1
549,549,-0.2251951133881548,-0.2,0.0,1.0,485.0,977.0,1.0,0,1198.0,1
550,550,-0.05776293765528717,-0.1,0.0,1.0,386.0,804.0,1.0,0,330.0,1
551,551,0.5927804087933785,0.6,1.0,1.0,272.0,758.0,1.0,1,430.0,1
552,552,0.5261855097751661,0.5,0.0,0.0,375.0,569.0,0.0,1,1316.0,1
553,553,-0.2310591230725113,-0.2,0.0,1.0,365.0,678.0,1.0,0,467.0,1
554,554,0.007667137915535305,0.0,1.0,1.0,444.0,703.0,0.0,0,393.0,0
555,555,-0.31456313684212245,-0.3,0.0,1.0,342.0,666.0,1.0,0,592.0,1
556,556,0.13533429404554453,0.1,1.0,1.0,295.0,885.0,1.0,1,630.0,1
557,557,0.5140237476770327,0.5,1.0,1.0,331.0,563.0,1.0,1,636.0,1
558,558,-0.5401518129920186,-0.5,0.0,1.0,472.0,587.0,1.0,0,1011.0,1
559,559,0.018237758471101095,0.0,0.0,0.0,364.0,932.0,0.0,1,134.0,1
560,560,0.6040124243151769,0.6,1.0,1.0,346.0,524.0,1.0,1,620.0,1
561,561,0.07692112510155946,0.1,0.0,0.0,266.0,683.0,1.0,0,491.0,0
562,562,-0.472766399370947,-0.5,1.0,0.0,353.0,624.0,0.0,0,823.0,1
563,563,-0.5069468349175399,-0.5,0.0,1.0,267.0,551.0,1.0,0,612.0,1
564,564,0.5428801214646394,0.5,0.0,0.0,283.0,899.0,0.0,1,178.0,1
565,565,-0.4576566365007709,-0.5,1.0,0.0,290.0,748.0,0.0,0,332.0,1
566,566,0.35523460670916374,0.4,0.0,0.0,309.0,744.0,1.0,0,77.0,0
567,567,0.5585038062826783,0.6,1.0,1.0,325.0,967.0,1.0,1,288.0,1
568,568,0.28752436706938156,0.3,0.0,0.0,395.0,844.0,0.0,1,591.0,1
569,569,0.5287683975417025,0.5,0.0,0.0,293.0,814.0,0.0,1,173.0,1
570,570,-0.8322853418795465,-0.8,0.0,1.0,389.0,689.0,1.0,0,472.0,1
571,571,0.8407856826567061,0.8,0.0,0.0,330.0,577.0,0.0,1,393.0,1
572,572,-0.4378854385915229,-0.4,0.0,1.0,253.0,799.0,1.0,0,248.0,1
573,573,0.27258979959458907,0.3,1.0,1.0,405.0,610.0,1.0,1,885.0,1
574,574,-0.8606592637960115,-0.9,0.0,1.0,428.0,992.0,1.0,0,340.0,1
575,575,-0.10358126206073026,-0.1,1.0,0.0,310.0,561.0,0.0,0,979.0,1
576,576,0.4698621653606615,0.5,0.0,0.0,259.0,528.0,0.0,1,793.0,1
577,577,0.045567261775355306,0.0,1.0,1.0,448.0,919.0,1.0,1,333.0,1
578,578,0.14066121455220937,0.1,0.0,0.0,385.0,899.0,1.0,0,556.0,0
579,579,-0.3993608658225203,-0.4,0.0,1.0,376.0,823.0,1.0,0,681.0,1
580,580,-0.2178871600592256,-0.2,1.0,0.0,455.0,557.0,0.0,0,528.0,1
581,581,-0.7983476064551582,-0.8,0.0,1.0,453.0,570.0,1.0,0,997.0,1
582,582,-0.21466371436071985,-0.2,1.0,0.0,464.0,513.0,0.0,0,713.0,1
583,583,0.4235053644347332,0.4,0.0,0.0,315.0,566.0,0.0,1,459.0,1
584,584,-0.8099198919671408,-0.8,1.0,0.0,356.0,826.0,0.0,0,578.0,1
585,585,0.15315027831668682,0.2,1.0,1.0,322.0,561.0,1.0,1,487.0,1
586,586,-0.5068248720258717,-0.5,0.0,1.0,289.0,762.0,1.0,0,259.0,1
587,587,-0.807718904644636,-0.8,0.0,1.0,488.0,710.0,1.0,0,492.0,1
588,588,0.40082758733693635,0.4,1.0,1.0,460.0,832.0,1.0,1,488.0,1
589,589,0.2172437987831145,0.2,0.0,0.0,322.0,609.0,1.0,0,569.0,0
590,590,0.5338691796149427,0.5,1.0,1.0,437.0,806.0,0.0,0,357.0,0
591,591,-0.872958595921873,-0.9,0.0,1.0,253.0,801.0,1.0,0,526.0,1
592,592,0.33337341303294676,0.3,0.0,0.0,284.0,949.0,1.0,0,57.0,0
593,593,-0.639969021697612,-0.6,0.0,1.0,422.0,659.0,1.0,0,629.0,1
594,594,0.3324882684981133,0.3,0.0,0.0,300.0,527.0,0.0,1,703.0,1
595,595,0.4651460629215899,0.5,0.0,0.0,328.0,624.0,0.0,1,888.0,1
596,596,-0.6051253940464554,-0.6,0.0,1.0,464.0,553.0,1.0,0,353.0,1
597,597,0.7070018001363841,0.7,0.0,0.0,292.0,693.0,0.0,1,635.0,1
598,598,-0.6487355935937429,-0.6,0.0,1.0,472.0,685.0,1.0,0,453.0,1
599,599,-0.09212726946737981,-0.1,1.0,0.0,343.0,930.0,1.0,1,67.0,0
600,600,-0.5956438856621823,-0.6,0.0,1.0,398.0,837.0,1.0,0,555.0,1
601,601,-0.29201221180388015,-0.3,0.0,1.0,377.0,882.0,1.0,0,201.0,1
602,602,0.4313794558462102,0.4,0.0,0.0,405.0,978.0,0.0,1,1227.0,1
603,603,0.35961079939417206,0.4,0.0,0.0,320.0,652.0,0.0,1,338.0,1
604,604,-0.5345681607437138,-0.5,1.0,0.0,369.0,786.0,0.0,0,395.0,1
605,605,0.3344906101030095,0.3,0.0,0.0,338.0,782.0,0.0,1,2490.0,1
606,606,0.019048246813182734,0.0,1.0,1.0,449.0,706.0,0.0,0,685.0,0
607,607,-0.49842561560312737,-0.5,1.0,0.0,288.0,879.0,0.0,0,543.0,1
608,608,0.6106055746276405,0.6,1.0,1.0,344.0,686.0,1.0,1,610.0,1
609,609,-0.7880910753196431,-0.8,1.0,0.0,426.0,809.0,0.0,0,325.0,1
610,610,-0.8275830899302045,-0.8,1.0,0.0,358.0,827.0,0.0,0,465.0,1
611,611,-0.7136781704386903,-0.7,1.0,0.0,282.0,851.0,0.0,0,267.0,1
612,612,0.51707709238727,0.5,1.0,1.0,471.0,575.0,1.0,1,644.0,1
613,613,-0.5024666688645969,-0.5,1.0,0.0,334.0,555.0,1.0,1,-49.0,0
614,614,0.23150181042752027,0.2,1.0,1.0,402.0,993.0,1.0,1,1375.0,1
615,615,-0.6975261686027009,-0.7,0.0,1.0,327.0,654.0,1.0,0,609.0,1
616,616,-0.5169249989723964,-0.5,0.0,1.0,307.0,508.0,1.0,0,705.0,1
617,617,0.7396171034457418,0.7,1.0,1.0,317.0,798.0,1.0,1,25.0,1
618,618,-0.20098325729380961,-0.2,0.0,1.0,466.0,658.0,1.0,0,1346.0,1
619,619,-0.39908940443711804,-0.4,1.0,0.0,411.0,745.0,0.0,0,514.0,1
620,620,-0.2614011237495918,-0.3,0.0,1.0,295.0,563.0,1.0,0,1652.0,1
621,621,-0.4204087811771174,-0.4,1.0,0.0,471.0,531.0,1.0,1,398.0,0
622,622,0.07721439936250574,0.1,1.0,1.0,315.0,714.0,1.0,1,851.0,1
623,623,0.4598659030493094,0.5,0.0,0.0,380.0,533.0,1.0,0,577.0,0
624,624,0.5611627227565433,0.6,0.0,0.0,314.0,833.0,0.0,1,143.0,1
625,625,-0.4895716821918059,-0.5,1.0,0.0,431.0,728.0,0.0,0,401.0,1
626,626,-0.392245452295487,-0.4,0.0,1.0,285.0,542.0,0.0,1,1493.0,0
627,627,-0.16929893942783614,-0.2,0.0,1.0,351.0,825.0,1.0,0,54.0,1
628,628,-0.059104844394428646,-0.1,0.0,1.0,359.0,900.0,1.0,0,961.0,1
629,629,-0.28362767118464605,-0.3,0.0,1.0,323.0,998.0,1.0,0,619.0,1
630,630,-0.6539741644470929,-0.7,1.0,0.0,411.0,910.0,1.0,1,369.0,0
631,631,-0.3619889141414063,-0.4,0.0,1.0,478.0,847.0,1.0,0,1095.0,1
632,632,0.7682647873545386,0.8,0.0,0.0,415.0,914.0,0.0,1,421.0,1
633,633,0.5935087139438923,0.6,1.0,1.0,415.0,607.0,1.0,1,868.0,1
634,634,-0.7182133920335667,-0.7,1.0,0.0,261.0,982.0,0.0,0,107.0,1
635,635,-0.30823505926205763,-0.3,0.0,1.0,390.0,706.0,1.0,0,314.0,1
636,636,0.3531486867357524,0.4,1.0,1.0,408.0,975.0,1.0,1,427.0,1
637,637,-0.019863428684929962,-0.0,1.0,0.0,394.0,660.0,1.0,1,676.0,0
638,638,0.34152108699741823,0.3,0.0,0.0,444.0,972.0,0.0,1,324.0,1
639,639,0.41939205110816313,0.4,1.0,1.0,260.0,666.0,1.0,1,884.0,1
640,640,-0.8607609790619287,-0.9,1.0,0.0,422.0,622.0,0.0,0,376.0,1
641,641,-0.7869400148241334,-0.8,0.0,1.0,434.0,544.0,1.0,0,622.0,1
642,642,0.6142590987069573,0.6,1.0,1.0,459.0,967.0,1.0,1,854.0,1
643,643,0.4228004600565126,0.4,0.0,0.0,373.0,680.0,0.0,1,347.0,1
644,644,0.8887632326552691,0.9,1.0,1.0,320.0,711.0,1.0,1,519.0,1
645,645,0.041514318144423634,0.0,1.0,1.0,347.0,918.0,1.0,1,295.0,1
646,646,0.630299077868626,0.6,0.0,0.0,298.0,737.0,0.0,1,1055.0,1
647,647,-0.44855289455804614,-0.4,1.0,0.0,345.0,778.0,0.0,0,557.0,1
648,648,0.49549278997588797,0.5,0.0,0.0,408.0,727.0,0.0,1,925.0,1
649,649,-0.7067602023176859,-0.7,0.0,1.0,488.0,879.0,1.0,0,283.0,1
650,650,-0.031476433051545016,-0.0,0.0,1.0,403.0,640.0,0.0,1,387.0,0
651,651,-0.7757285225132777,-0.8,1.0,0.0,376.0,727.0,0.0,0,417.0,1
652,652,-0.6361193094678517,-0.6,0.0,1.0,253.0,796.0,1.0,0,621.0,1
653,653,-0.20759418195065105,-0.2,0.0,1.0,444.0,510.0,1.0,0,786.0,1
654,654,-0.6892970015950066,-0.7,0.0,1.0,414.0,872.0,1.0,0,104.0,1
655,655,-0.1693607689771508,-0.2,1.0,0.0,351.0,553.0,0.0,0,716.0,1
656,656,0.6244832329791129,0.6,0.0,0.0,453.0,946.0,0.0,1,211.0,1
657,657,-0.6750726266916929,-0.7,0.0,1.0,284.0,856.0,1.0,0,440.0,1
658,658,0.5691693278409934,0.6,1.0,1.0,296.0,646.0,1.0,1,508.0,1
659,659,-0.780241507238284,-0.8,1.0,0.0,304.0,549.0,0.0,0,547.0,1
660,660,0.014941355723849359,0.0,1.0,1.0,348.0,944.0,1.0,1,288.0,1
661,661,-0.2702152853846831,-0.3,0.0,1.0,321.0,888.0,1.0,0,1161.0,1
662,662,-0.8523020390285333,-0.9,1.0,0.0,251.0,789.0,0.0,0,330.0,1
663,663,0.6640942302760219,0.7,0.0,0.0,371.0,668.0,0.0,1,391.0,1
664,664,-0.7626779996899908,-0.8,0.0,1.0,491.0,749.0,1.0,0,1260.0,1
665,665,0.22318852581799098,0.2,0.0,0.0,466.0,551.0,1.0,0,1393.0,0
666,666,0.7664761183994925,0.8,0.0,0.0,273.0,595.0,0.0,1,382.0,1
667,667,-0.5819321095206588,-0.6,0.0,1.0,346.0,882.0,1.0,0,362.0,1
668,668,-0.25045109692955647,-0.3,1.0,0.0,294.0,811.0,0.0,0,1165.0,1
669,669,-0.0809158269261645,-0.1,0.0,1.0,460.0,818.0,1.0,0,342.0,1
670,670,-0.25355582433082646,-0.3,1.0,0.0,300.0,558.0,0.0,0,862.0,1
671,671,0.10755095524709424,0.1,1.0,1.0,336.0,710.0,0.0,0,564.0,0
672,672,0.3244820104062661,0.3,0.0,0.0,466.0,571.0,0.0,1,323.0,1
673,673,0.37839572521180165,0.4,1.0,1.0,267.0,990.0,1.0,1,273.0,1
674,674,0.7554253576200746,0.8,1.0,1.0,429.0,653.0,1.0,1,518.0,1
675,675,-0.6687826098706029,-0.7,0.0,1.0,307.0,820.0,1.0,0,343.0,1
676,676,-0.08251819845606456,-0.1,0.0,1.0,359.0,808.0,1.0,0,503.0,1
677,677,0.6892296817777727,0.7,0.0,0.0,445.0,522.0,0.0,1,523.0,1
678,678,-0.7220394390692954,-0.7,0.0,1.0,476.0,896.0,1.0,0,798.0,1
679,679,-0.10091224360027395,-0.1,0.0,1.0,475.0,929.0,1.0,0,426.0,1
680,680,0.22803483280268477,0.2,0.0,0.0,332.0,582.0,0.0,1,786.0,1
681,681,-0.09522509964025783,-0.1,0.0,1.0,451.0,761.0,1.0,0,518.0,1
682,682,0.4629975525854183,0.5,0.0,0.0,311.0,819.0,0.0,1,270.0,1
683,683,-0.8350313833056143,-0.8,1.0,0.0,332.0,752.0,0.0,0,156.0,1
684,684,0.3026928339048446,0.3,0.0,0.0,455.0,630.0,0.0,1,395.0,1
685,685,0.48246271910675154,0.5,0.0,0.0,469.0,528.0,0.0,1,443.0,1
686,686,0.5711168465541728,0.6,0.0,0.0,451.0,921.0,0.0,1,1248.0,1
687,687,-0.4547184451928725,-0.5,1.0,0.0,297.0,584.0,0.0,0,519.0,1
688,688,0.3787725111609147,0.4,0.0,0.0,252.0,642.0,0.0,1,926.0,1
689,689,-0.10371812721001572,-0.1,0.0,1.0,479.0,564.0,0.0,1,677.0,0
690,690,-0.6043562736901744,-0.6,0.0,1.0,363.0,878.0,1.0,0,429.0,1
691,691,0.09957783518805075,0.1,1.0,1.0,323.0,564.0,1.0,1,1523.0,1
692,692,0.40241221684176864,0.4,1.0,1.0,475.0,940.0,1.0,1,415.0,1
693,693,0.680463577073842,0.7,1.0,1.0,432.0,853.0,1.0,1,145.0,1
694,694,-0.02520684967853115,-0.0,1.0,0.0,340.0,963.0,0.0,0,787.0,1
695,695,-0.3038070857403611,-0.3,1.0,0.0,386.0,550.0,1.0,1,934.0,0
696,696,-0.44691791898079347,-0.4,1.0,0.0,452.0,809.0,1.0,1,469.0,0
697,697,0.2988481531292807,0.3,0.0,0.0,467.0,823.0,0.0,1,220.0,1
698,698,-0.35913466592503773,-0.4,0.0,1.0,287.0,962.0,1.0,0,281.0,1
699,699,-0.7348899277253808,-0.7,0.0,1.0,372.0,968.0,1.0,0,100.0,1
700,700,-0.056208630920593694,-0.1,1.0,0.0,282.0,538.0,1.0,1,1730.0,0
701,701,0.8119313314874591,0.8,1.0,1.0,380.0,886.0,1.0,1,394.0,1
702,702,-0.5648517865214515,-0.6,1.0,0.0,318.0,929.0,0.0,0,1193.0,1
703,703,0.6225517471662968,0.6,0.0,0.0,430.0,961.0,0.0,1,99.0,1
704,704,0.6840582724450656,0.7,0.0,0.0,394.0,542.0,0.0,1,384.0,1
705,705,0.437757229202156,0.4,0.0,0.0,413.0,854.0,0.0,1,333.0,1
706,706,-0.2625119486597083,-0.3,1.0,0.0,440.0,786.0,0.0,0,594.0,1
707,707,-0.6557502267642588,-0.7,0.0,1.0,476.0,791.0,1.0,0,433.0,1
708,708,0.7926693851909962,0.8,0.0,0.0,446.0,898.0,0.0,1,266.0,1
709,709,0.08851601187355074,0.1,1.0,1.0,436.0,721.0,0.0,0,773.0,0
710,710,-0.8998166170648468,-0.9,1.0,0.0,323.0,623.0,0.0,0,454.0,1
711,711,-0.30033655343919985,-0.3,0.0,1.0,293.0,531.0,1.0,0,776.0,1
712,712,-0.21435116302626567,-0.2,1.0,0.0,290.0,929.0,1.0,1,241.0,0
713,713,0.22440801699362944,0.2,0.0,0.0,446.0,879.0,1.0,0,915.0,0
714,714,-0.23190398380292643,-0.2,1.0,0.0,378.0,617.0,0.0,0,995.0,1
715,715,-0.2325991424872822,-0.2,1.0,0.0,294.0,644.0,0.0,0,272.0,1
716,716,-0.16683717038161727,-0.2,0.0,1.0,365.0,874.0,1.0,0,461.0,1
717,717,-0.8283013705662656,-0.8,0.0,1.0,250.0,601.0,1.0,0,219.0,1
718,718,0.6431166348592005,0.6,0.0,0.0,475.0,690.0,0.0,1,305.0,1
719,719,0.13456439589437375,0.1,0.0,0.0,456.0,512.0,0.0,1,2652.0,1
720,720,0.45833257035450614,0.5,1.0,1.0,452.0,741.0,1.0,1,397.0,1
721,721,-0.6934647093260604,-0.7,1.0,0.0,385.0,583.0,0.0,0,522.0,1
722,722,0.8296032422868468,0.8,0.0,0.0,492.0,610.0,0.0,1,588.0,1
723,723,-0.6049267037753783,-0.6,1.0,0.0,384.0,945.0,0.0,0,641.0,1
724,724,-0.05625942955857355,-0.1,0.0,1.0,391.0,642.0,1.0,0,807.0,1
725,725,0.44824867807691804,0.4,1.0,1.0,290.0,972.0,1.0,1,678.0,1
726,726,0.6910973595549422,0.7,0.0,0.0,253.0,756.0,0.0,1,471.0,1
727,727,-0.12673696460320905,-0.1,1.0,0.0,402.0,519.0,0.0,0,1539.0,1
728,728,-0.1105842331254222,-0.1,0.0,1.0,376.0,525.0,1.0,0,869.0,1
729,729,-0.2560328539908381,-0.3,1.0,0.0,355.0,930.0,0.0,0,505.0,1
730,730,0.2792430879584299,0.3,1.0,1.0,376.0,775.0,1.0,1,589.0,1
731,731,-0.7240847804496303,-0.7,0.0,1.0,350.0,642.0,1.0,0,1158.0,1
732,732,0.3715451811258058,0.4,1.0,1.0,412.0,914.0,1.0,1,564.0,1
733,733,0.7873095818620081,0.8,1.0,1.0,288.0,717.0,1.0,1,195.0,1
734,734,0.7049401979635058,0.7,0.0,0.0,427.0,714.0,0.0,1,369.0,1
735,735,0.8169314769714794,0.8,0.0,0.0,483.0,744.0,0.0,1,243.0,1
736,736,-0.1649378062835295,-0.2,1.0,0.0,391.0,856.0,1.0,1,603.0,0
737,737,0.0032809873820401902,0.0,0.0,0.0,295.0,897.0,1.0,0,358.0,0
738,738,-0.2530033465124859,-0.3,1.0,0.0,450.0,975.0,0.0,0,585.0,1
739,739,-0.24643364611529017,-0.2,0.0,1.0,275.0,916.0,1.0,0,349.0,1
740,740,-0.7856425117827462,-0.8,0.0,1.0,415.0,882.0,1.0,0,263.0,1
741,741,0.06357674131703916,0.1,1.0,1.0,486.0,819.0,0.0,0,405.0,0
742,742,0.322477084095551,0.3,0.0,0.0,399.0,743.0,0.0,1,1328.0,1
743,743,-0.3286087240614822,-0.3,1.0,0.0,365.0,763.0,1.0,1,332.0,0
744,744,-0.7027857193339784,-0.7,0.0,1.0,371.0,599.0,1.0,0,400.0,1
745,745,0.8849327366796703,0.9,0.0,0.0,324.0,681.0,0.0,1,405.0,1
746,746,0.5568814834211265,0.6,1.0,1.0,255.0,764.0,1.0,1,261.0,1
747,747,0.5622547698821517,0.6,0.0,0.0,366.0,856.0,0.0,1,328.0,1
748,748,-0.22429112367974102,-0.2,1.0,0.0,320.0,576.0,0.0,0,764.0,1
749,749,0.6991701160051887,0.7,0.0,0.0,472.0,571.0,0.0,1,457.0,1
750,750,-0.28570306398043854,-0.3,0.0,1.0,346.0,803.0,1.0,0,381.0,1
751,751,0.8746586116667024,0.9,1.0,1.0,466.0,591.0,1.0,1,553.0,1
752,752,0.7279644818328593,0.7,1.0,1.0,372.0,634.0,1.0,1,384.0,1
753,753,0.3401053526424166,0.3,0.0,0.0,371.0,664.0,0.0,1,345.0,1
754,754,0.6631036747730351,0.7,0.0,0.0,437.0,812.0,0.0,1,391.0,1
755,755,-0.759458870902063,-0.8,1.0,0.0,439.0,785.0,0.0,0,296.0,1
756,756,-0.3857403924232957,-0.4,1.0,0.0,304.0,694.0,0.0,0,1562.0,1
757,757,0.11970738686370541,0.1,1.0,1.0,401.0,774.0,1.0,1,245.0,1
758,758,0.7019208053790668,0.7,0.0,0.0,258.0,693.0,0.0,1,869.0,1
759,759,0.17481821862838032,0.2,1.0,1.0,344.0,632.0,1.0,1,1414.0,1
760,760,0.16801051736420358,0.2,0.0,0.0,314.0,601.0,0.0,1,455.0,1
761,761,0.7480017916992333,0.7,1.0,1.0,463.0,516.0,1.0,1,361.0,1
762,762,-0.640815713827289,-0.6,0.0,1.0,256.0,559.0,1.0,0,685.0,1
763,763,-0.821385751506619,-0.8,0.0,1.0,279.0,894.0,1.0,0,107.0,1
764,764,0.8478983381988766,0.8,1.0,1.0,313.0,769.0,1.0,1,318.0,1
765,765,-0.5045872521517532,-0.5,1.0,0.0,346.0,557.0,0.0,0,367.0,1
766,766,-0.5800416677981598,-0.6,1.0,0.0,313.0,831.0,0.0,0,406.0,1
767,767,0.18797521132147488,0.2,0.0,0.0,440.0,659.0,0.0,1,681.0,1
768,768,0.3364756675172741,0.3,1.0,1.0,386.0,682.0,0.0,0,542.0,0
769,769,-0.3436673506691076,-0.3,0.0,1.0,435.0,987.0,1.0,0,158.0,1
770,770,0.8214744960729695,0.8,1.0,1.0,302.0,788.0,1.0,1,790.0,1
771,771,-0.25664081425616536,-0.3,1.0,0.0,280.0,762.0,1.0,1,1398.0,0
772,772,-0.0326350259539554,-0.0,0.0,1.0,389.0,708.0,1.0,0,273.0,1
773,773,-0.4755725082108027,-0.5,1.0,0.0,253.0,872.0,0.0,0,365.0,1
774,774,-0.2897189142959856,-0.3,1.0,0.0,492.0,952.0,0.0,0,966.0,1
775,775,-0.21193270685448906,-0.2,0.0,1.0,475.0,651.0,1.0,0,224.0,1
776,776,-0.6870669067375024,-0.7,0.0,1.0,399.0,974.0,0.0,1,127.0,0
777,777,-0.4961356907057567,-0.5,0.0,1.0,350.0,639.0,1.0,0,641.0,1
778,778,0.5394070586365739,0.5,0.0,0.0,261.0,999.0,0.0,1,190.0,1
779,779,-0.8829407413949876,-0.9,0.0,1.0,352.0,513.0,1.0,0,485.0,1
780,780,0.6916483705438096,0.7,0.0,0.0,316.0,692.0,0.0,1,442.0,1
781,781,0.8528236177357876,0.9,0.0,0.0,389.0,666.0,0.0,1,555.0,1
782,782,-0.7016088568192604,-0.7,1.0,0.0,307.0,815.0,0.0,0,158.0,1
783,783,-0.09777790672382014,-0.1,1.0,0.0,475.0,948.0,0.0,0,67.0,1
784,784,0.5909016558930512,0.6,0.0,0.0,399.0,740.0,0.0,1,421.0,1
785,785,-0.5854364388820517,-0.6,1.0,0.0,486.0,642.0,0.0,0,702.0,1
786,786,-0.35812363834786853,-0.4,0.0,1.0,499.0,954.0,0.0,1,677.0,0
787,787,0.5626583238102038,0.6,1.0,1.0,364.0,734.0,1.0,1,252.0,1
788,788,-0.4717834322149307,-0.5,1.0,0.0,439.0,769.0,0.0,0,572.0,1
789,789,-0.6305293824120752,-0.6,0.0,1.0,305.0,633.0,1.0,0,452.0,1
790,790,-0.161300081887907,-0.2,0.0,1.0,407.0,881.0,0.0,1,252.0,0
791,791,0.6189433372477203,0.6,1.0,1.0,494.0,617.0,1.0,1,429.0,1
792,792,0.2838498863864992,0.3,0.0,0.0,453.0,783.0,0.0,1,1344.0,1
793,793,0.16015538272430196,0.2,1.0,1.0,291.0,608.0,1.0,1,1411.0,1
794,794,-0.3001553970123695,-0.3,1.0,0.0,443.0,561.0,1.0,1,766.0,0
795,795,0.1721258605672925,0.2,1.0,1.0,430.0,858.0,1.0,1,482.0,1
796,796,-0.34882897434970583,-0.3,1.0,0.0,477.0,808.0,0.0,0,345.0,1
797,797,-0.8037476408808615,-0.8,1.0,0.0,452.0,747.0,0.0,0,211.0,1
798,798,0.5919969945999467,0.6,1.0,1.0,335.0,535.0,1.0,1,830.0,1
799,799,-0.8714063917953551,-0.9,1.0,0.0,335.0,844.0,0.0,0,631.0,1
800,800,-0.8726797325064471,-0.9,1.0,0.0,301.0,757.0,0.0,0,242.0,1
801,801,-0.6670960981302092,-0.7,0.0,1.0,253.0,529.0,1.0,0,268.0,1
802,802,0.7784265855239393,0.8,0.0,0.0,418.0,512.0,0.0,1,510.0,1
803,803,-0.29269634126046995,-0.3,1.0,0.0,391.0,623.0,0.0,0,176.0,1
804,804,0.6166720400672178,0.6,0.0,0.0,273.0,727.0,0.0,1,700.0,1
805,805,0.28607574670922886,0.3,1.0,1.0,478.0,595.0,1.0,1,317.0,1
806,806,0.879995828244302,0.9,0.0,0.0,402.0,746.0,0.0,1,672.0,1
807,807,-0.24518032494317465,-0.2,0.0,1.0,434.0,589.0,1.0,0,507.0,1
808,808,-0.8157673837815055,-0.8,1.0,0.0,310.0,529.0,0.0,0,341.0,1
809,809,-0.7273582579360993,-0.7,0.0,1.0,310.0,945.0,1.0,0,195.0,1
810,810,0.32138973496992207,0.3,0.0,0.0,359.0,985.0,0.0,1,1226.0,1
811,811,-0.4663910978744746,-0.5,0.0,1.0,409.0,901.0,1.0,0,410.0,1
812,812,-0.849126042418977,-0.8,0.0,1.0,397.0,593.0,1.0,0,740.0,1
813,813,0.25626887614569493,0.3,0.0,0.0,311.0,564.0,0.0,1,725.0,1
814,814,-0.5388873359111614,-0.5,0.0,1.0,382.0,935.0,1.0,0,633.0,1
815,815,0.2799148496697911,0.3,0.0,0.0,292.0,627.0,0.0,1,1051.0,1
816,816,-0.5964247201474286,-0.6,1.0,0.0,406.0,774.0,0.0,0,380.0,1
817,817,-0.8440627774782706,-0.8,1.0,0.0,265.0,781.0,0.0,0,374.0,1
818,818,-0.11134101088505621,-0.1,0.0,1.0,410.0,780.0,0.0,1,610.0,0
819,819,-0.8590302466935065,-0.9,1.0,0.0,303.0,766.0,0.0,0,181.0,1
820,820,-0.08823848952709923,-0.1,1.0,0.0,472.0,679.0,1.0,1,1019.0,0
821,821,0.25898324368880565,0.3,0.0,0.0,329.0,686.0,0.0,1,645.0,1
822,822,-0.3532543797990543,-0.4,0.0,1.0,265.0,647.0,0.0,1,348.0,0
823,823,0.03428216559241759,0.0,0.0,0.0,477.0,878.0,1.0,0,205.0,0
824,824,0.13175607944898193,0.1,0.0,0.0,436.0,943.0,1.0,0,571.0,0
825,825,-0.18133684073172718,-0.2,0.0,1.0,496.0,625.0,1.0,0,2859.0,1
826,826,-0.6211812681884263,-0.6,0.0,1.0,264.0,755.0,1.0,0,91.0,1
827,827,-0.6384996148048814,-0.6,1.0,0.0,271.0,721.0,0.0,0,558.0,1
828,828,-0.203646053917801,-0.2,1.0,0.0,312.0,506.0,0.0,0,1212.0,1
829,829,0.5865426685096126,0.6,1.0,1.0,401.0,804.0,1.0,1,355.0,1
830,830,0.10305863195848419,0.1,0.0,0.0,432.0,795.0,0.0,1,623.0,1
831,831,0.04865214653057148,0.0,0.0,0.0,343.0,633.0,1.0,0,1344.0,0
832,832,-0.6581074625318165,-0.7,0.0,1.0,489.0,972.0,1.0,0,139.0,1
833,833,-0.22281295184150063,-0.2,1.0,0.0,387.0,936.0,0.0,0,147.0,1
834,834,-0.6239204559255552,-0.6,1.0,0.0,279.0,833.0,0.0,0,838.0,1
835,835,-0.2397617144679024,-0.2,1.0,0.0,251.0,902.0,0.0,0,317.0,1
836,836,-0.017795905583933735,-0.0,0.0,1.0,335.0,557.0,1.0,0,1878.0,1
837,837,0.8836042221680945,0.9,0.0,0.0,396.0,675.0,0.0,1,369.0,1
838,838,-0.027877483177605855,-0.0,1.0,0.0,421.0,803.0,1.0,1,606.0,0
839,839,-0.493618739162787,-0.5,0.0,1.0,490.0,729.0,1.0,0,611.0,1
840,840,-0.1887503999830752,-0.2,1.0,0.0,446.0,875.0,1.0,1,489.0,0
841,841,-0.6456846613136062,-0.6,0.0,1.0,334.0,643.0,1.0,0,533.0,1
842,842,0.03886656653803766,0.0,1.0,1.0,338.0,992.0,1.0,1,460.0,1
843,843,-0.20708425213556436,-0.2,0.0,1.0,450.0,572.0,1.0,0,988.0,1
844,844,-0.4111845867227743,-0.4,1.0,0.0,309.0,989.0,0.0,0,492.0,1
845,845,-0.11319102750839027,-0.1,0.0,1.0,264.0,728.0,1.0,0,438.0,1
846,846,0.8622572512679373,0.9,1.0,1.0,414.0,849.0,1.0,1,357.0,1
847,847,-0.14455408324631525,-0.1,1.0,0.0,267.0,899.0,1.0,1,174.0,0
848,848,0.5999399795736721,0.6,0.0,0.0,251.0,702.0,0.0,1,897.0,1
849,849,-0.6561184815474757,-0.7,0.0,1.0,434.0,716.0,1.0,0,350.0,1
850,850,-0.22065734314242158,-0.2,1.0,0.0,350.0,807.0,0.0,0,933.0,1
851,851,0.3333002028012019,0.3,1.0,1.0,372.0,620.0,1.0,1,548.0,1
852,852,0.02203328902707069,0.0,0.0,0.0,411.0,811.0,0.0,1,748.0,1
853,853,0.5934650849195474,0.6,1.0,1.0,397.0,957.0,1.0,1,26.0,1
854,854,-0.12581635540812508,-0.1,0.0,1.0,351.0,637.0,1.0,0,1342.0,1
855,855,0.36343717030570677,0.4,1.0,1.0,411.0,614.0,1.0,1,765.0,1
856,856,0.6213170948780292,0.6,1.0,1.0,486.0,517.0,1.0,1,887.0,1
857,857,0.3520864099110971,0.4,0.0,0.0,316.0,670.0,0.0,1,2244.0,1
858,858,0.11557785174856694,0.1,1.0,1.0,447.0,950.0,1.0,1,153.0,1
859,859,0.5326787822599873,0.5,1.0,1.0,376.0,556.0,1.0,1,578.0,1
860,860,-0.761950293175711,-0.8,1.0,0.0,490.0,623.0,0.0,0,677.0,1
861,861,0.46021625499868046,0.5,0.0,0.0,466.0,885.0,0.0,1,499.0,1
862,862,-0.388081493308126,-0.4,0.0,1.0,388.0,984.0,1.0,0,538.0,1
863,863,0.27347606674773417,0.3,0.0,0.0,380.0,912.0,0.0,1,128.0,1
864,864,0.7980466434153043,0.8,0.0,0.0,374.0,735.0,0.0,1,451.0,1
865,865,0.4830269013129599,0.5,1.0,1.0,400.0,650.0,1.0,1,260.0,1
866,866,0.6224517022001145,0.6,0.0,0.0,282.0,789.0,0.0,1,229.0,1
867,867,0.6938725541610901,0.7,1.0,1.0,310.0,506.0,1.0,1,854.0,1
868,868,-0.43385853827827914,-0.4,0.0,1.0,361.0,832.0,1.0,0,907.0,1
869,869,-0.5700985953088247,-0.6,1.0,0.0,362.0,923.0,0.0,0,195.0,1
870,870,-0.6532557016396542,-0.7,0.0,1.0,427.0,506.0,1.0,0,467.0,1
871,871,0.5085119811051734,0.5,0.0,0.0,279.0,513.0,0.0,1,368.0,1
872,872,0.20882519917844256,0.2,0.0,0.0,310.0,674.0,0.0,1,696.0,1
873,873,0.25049824807858456,0.3,1.0,1.0,298.0,844.0,1.0,1,868.0,1
874,874,0.17040612825479295,0.2,1.0,1.0,283.0,986.0,0.0,0,681.0,0
875,875,-0.8945183304569009,-0.9,1.0,0.0,372.0,784.0,0.0,0,384.0,1
876,876,0.36041759410843366,0.4,0.0,0.0,408.0,536.0,0.0,1,566.0,1
877,877,-0.1601315631692919,-0.2,1.0,0.0,273.0,884.0,0.0,0,883.0,1
878,878,0.579681207775176,0.6,0.0,0.0,342.0,871.0,0.0,1,507.0,1
879,879,0.3219033257063556,0.3,1.0,1.0,380.0,879.0,1.0,1,311.0,1
880,880,0.03626812108581434,0.0,0.0,0.0,343.0,908.0,0.0,1,49.0,1
881,881,-0.8784799827823718,-0.9,0.0,1.0,381.0,963.0,1.0,0,746.0,1
882,882,-0.8977101176163769,-0.9,0.0,1.0,488.0,908.0,1.0,0,114.0,1
883,883,0.018631127873927955,0.0,0.0,0.0,312.0,819.0,0.0,1,779.0,1
884,884,0.041749823650870654,0.0,1.0,1.0,387.0,789.0,1.0,1,1674.0,1
885,885,0.8855248449159295,0.9,1.0,1.0,479.0,743.0,1.0,1,318.0,1
886,886,-0.7765217610585896,-0.8,1.0,0.0,280.0,714.0,0.0,0,436.0,1
887,887,-0.2067657055494877,-0.2,0.0,1.0,283.0,867.0,1.0,0,1610.0,1
888,888,0.7586547510794571,0.8,0.0,0.0,373.0,634.0,0.0,1,513.0,1
889,889,-0.20856533221289586,-0.2,0.0,1.0,358.0,601.0,1.0,0,391.0,1
890,890,-0.39937313599504254,-0.4,0.0,1.0,463.0,925.0,1.0,0,362.0,1
891,891,-0.8167796302488807,-0.8,1.0,0.0,375.0,645.0,0.0,0,640.0,1
892,892,0.6846193782684725,0.7,1.0,1.0,300.0,597.0,1.0,1,343.0,1
893,893,-0.4943608082674041,-0.5,1.0,0.0,450.0,560.0,0.0,0,990.0,1
894,894,0.0760489493880554,0.1,1.0,1.0,449.0,918.0,1.0,1,-137.0,1
895,895,0.8271069268043659,0.8,0.0,0.0,363.0,982.0,0.0,1,235.0,1
896,896,-0.19312005319665826,-0.2,1.0,0.0,254.0,785.0,0.0,0,391.0,1
897,897,0.46833698872459084,0.5,1.0,1.0,459.0,876.0,1.0,1,185.0,1
898,898,0.8489280794597812,0.8,1.0,1.0,411.0,523.0,1.0,1,576.0,1
899,899,-0.567607978666711,-0.6,1.0,0.0,329.0,586.0,0.0,0,355.0,1
900,900,-0.2651053305408484,-0.3,1.0,0.0,297.0,813.0,1.0,1,10.0,0
901,901,0.5913141352444337,0.6,1.0,1.0,392.0,634.0,1.0,1,1124.0,1
902,902,-0.6567555530602498,-0.7,1.0,0.0,492.0,658.0,0.0,0,510.0,1
903,903,0.59345068445161,0.6,1.0,1.0,315.0,710.0,1.0,1,55.0,1
904,904,0.6044106468466518,0.6,0.0,0.0,380.0,897.0,0.0,1,233.0,1
905,905,-0.707175477340587,-0.7,0.0,1.0,458.0,970.0,1.0,0,272.0,1
906,906,-0.5924848461509729,-0.6,0.0,1.0,314.0,929.0,1.0,0,737.0,1
907,907,0.07096505151461008,0.1,0.0,0.0,377.0,690.0,0.0,1,1573.0,1
908,908,-0.37440112981153884,-0.4,0.0,1.0,404.0,692.0,1.0,0,414.0,1
909,909,-0.03953506444899857,-0.0,0.0,1.0,390.0,578.0,1.0,0,1742.0,1
910,910,0.6092420331758382,0.6,0.0,0.0,399.0,744.0,0.0,1,397.0,1
911,911,0.6525301338569308,0.7,1.0,1.0,314.0,870.0,1.0,1,236.0,1
912,912,-0.13660961960527296,-0.1,0.0,1.0,328.0,973.0,1.0,0,499.0,1
913,913,0.6770826518271061,0.7,0.0,0.0,326.0,870.0,0.0,1,164.0,1
914,914,0.6921521746497933,0.7,1.0,1.0,381.0,947.0,1.0,1,392.0,1
915,915,-0.40780668688685656,-0.4,1.0,0.0,260.0,884.0,0.0,0,1166.0,1
916,916,0.8224035503559713,0.8,0.0,0.0,430.0,736.0,0.0,1,274.0,1
917,917,0.44542661573325726,0.4,0.0,0.0,255.0,621.0,0.0,1,394.0,1
918,918,-0.4048620477288663,-0.4,0.0,1.0,288.0,755.0,1.0,0,377.0,1
919,919,0.7617328654365702,0.8,0.0,0.0,399.0,986.0,0.0,1,475.0,1
920,920,-0.6656689084317164,-0.7,1.0,0.0,351.0,851.0,0.0,0,628.0,1
921,921,-0.5678857455402067,-0.6,0.0,1.0,337.0,862.0,1.0,0,61.0,1
922,922,-0.5386116737865739,-0.5,1.0,0.0,350.0,572.0,0.0,0,818.0,1
923,923,-0.4598124879114066,-0.5,1.0,0.0,330.0,894.0,0.0,0,1306.0,1
924,924,0.12180298807155732,0.1,0.0,0.0,485.0,784.0,1.0,0,961.0,0
925,925,0.6807217455130185,0.7,1.0,1.0,320.0,562.0,1.0,1,708.0,1
926,926,0.041621641172862045,0.0,0.0,0.0,307.0,637.0,1.0,0,806.0,0
927,927,0.410351059104043,0.4,0.0,0.0,306.0,954.0,0.0,1,260.0,1
928,928,0.785405609342022,0.8,0.0,0.0,328.0,527.0,0.0,1,895.0,1
929,929,-0.3514905801784308,-0.4,1.0,0.0,443.0,760.0,0.0,0,797.0,1
930,930,-0.7987832205562838,-0.8,0.0,1.0,369.0,517.0,1.0,0,544.0,1
931,931,-0.41515232904644983,-0.4,0.0,1.0,401.0,949.0,1.0,0,410.0,1
932,932,0.3517018892017084,0.4,0.0,0.0,395.0,544.0,0.0,1,701.0,1
933,933,-0.06965512009415431,-0.1,1.0,0.0,297.0,931.0,1.0,1,482.0,0
934,934,-0.61365761875704,-0.6,0.0,1.0,445.0,999.0,1.0,0,156.0,1
935,935,-0.41992421747100644,-0.4,1.0,0.0,263.0,606.0,1.0,1,731.0,0
936,936,-0.5239327683984689,-0.5,1.0,0.0,293.0,748.0,0.0,0,889.0,1
937,937,0.7741574386939202,0.8,1.0,1.0,266.0,911.0,1.0,1,893.0,1
938,938,0.8106094878285109,0.8,1.0,1.0,495.0,683.0,1.0,1,352.0,1
939,939,-0.23997822905159294,-0.2,1.0,0.0,414.0,993.0,0.0,0,113.0,1
940,940,0.5840686871222153,0.6,0.0,0.0,283.0,846.0,0.0,1,171.0,1
941,941,0.6825521789727348,0.7,1.0,1.0,327.0,962.0,1.0,1,451.0,1
942,942,-0.20817298430389042,-0.2,1.0,0.0,313.0,752.0,0.0,0,735.0,1
943,943,0.24357238160638517,0.2,1.0,1.0,489.0,800.0,0.0,0,1101.0,0
944,944,-0.20669893200793588,-0.2,1.0,0.0,397.0,924.0,0.0,0,59.0,1
945,945,-0.6997056959994952,-0.7,1.0,0.0,482.0,910.0,0.0,0,558.0,1
946,946,0.779592299351057,0.8,0.0,0.0,323.0,548.0,0.0,1,869.0,1
947,947,0.11653014046969157,0.1,1.0,1.0,480.0,914.0,1.0,1,1576.0,1
948,948,-0.5458560116787012,-0.5,1.0,0.0,317.0,635.0,0.0,0,458.0,1
949,949,-0.4128006947136621,-0.4,1.0,0.0,365.0,533.0,0.0,0,3472.0,1
950,950,0.8242749649977023,0.8,0.0,0.0,438.0,969.0,0.0,1,253.0,1
951,951,0.14730560231114664,0.1,1.0,1.0,274.0,541.0,1.0,1,1165.0,1
952,952,-0.10431981170784865,-0.1,0.0,1.0,436.0,711.0,1.0,0,513.0,1
953,953,0.33935189985333036,0.3,1.0,1.0,277.0,518.0,1.0,1,705.0,1
954,954,-0.2233887976418656,-0.2,1.0,0.0,470.0,870.0,0.0,0,2000.0,1
955,955,0.555682254087804,0.6,1.0,1.0,301.0,998.0,1.0,1,161.0,1
956,956,-0.6721191563125044,-0.7,0.0,1.0,372.0,777.0,1.0,0,201.0,1
957,957,0.38485075805036695,0.4,1.0,1.0,499.0,794.0,1.0,1,417.0,1
958,958,-0.5521472292408552,-0.6,0.0,1.0,279.0,659.0,1.0,0,342.0,1
959,959,0.6885354855113636,0.7,1.0,1.0,393.0,522.0,1.0,1,675.0,1
960,960,-0.029395232826866735,-0.0,1.0,0.0,410.0,906.0,0.0,0,1094.0,1
961,961,0.6580393923455569,0.7,1.0,1.0,310.0,531.0,1.0,1,799.0,1
962,962,-0.771048856719822,-0.8,1.0,0.0,381.0,596.0,0.0,0,1993.0,1
963,963,0.24567638967502814,0.2,0.0,0.0,401.0,910.0,0.0,1,599.0,1
964,964,0.2896428847209772,0.3,1.0,1.0,497.0,507.0,1.0,1,616.0,1
965,965,-0.4791685962264916,-0.5,0.0,1.0,468.0,872.0,1.0,0,250.0,1
966,966,0.7033919437688109,0.7,0.0,0.0,254.0,862.0,0.0,1,354.0,1
967,967,0.6167987153460209,0.6,1.0,1.0,435.0,933.0,1.0,1,152.0,1
968,968,-0.6435024028235545,-0.6,1.0,0.0,279.0,914.0,0.0,0,227.0,1
969,969,-0.7291678368524257,-0.7,0.0,1.0,474.0,643.0,1.0,0,613.0,1
970,970,0.3600281257475174,0.4,1.0,1.0,264.0,908.0,1.0,1,358.0,1
971,971,0.12584744064698505,0.1,1.0,1.0,257.0,502.0,1.0,1,931.0,1
972,972,-0.3790210126514949,-0.4,1.0,0.0,268.0,970.0,0.0,0,712.0,1
973,973,0.8454173939956248,0.8,1.0,1.0,357.0,639.0,1.0,1,314.0,1
974,974,0.3276770736237199,0.3,1.0,1.0,352.0,784.0,1.0,1,364.0,1
975,975,0.40515984026782126,0.4,1.0,1.0,337.0,831.0,0.0,0,472.0,0
976,976,0.18971071698789188,0.2,1.0,1.0,335.0,692.0,1.0,1,1973.0,1
977,977,0.6702584475360133,0.7,1.0,1.0,255.0,645.0,1.0,1,390.0,1
978,978,0.7610806723943963,0.8,0.0,0.0,380.0,549.0,0.0,1,691.0,1
979,979,0.17284713764713067,0.2,0.0,0.0,377.0,962.0,1.0,0,251.0,0
980,980,-0.2746440455360466,-0.3,0.0,1.0,427.0,910.0,1.0,0,1803.0,1
981,981,-0.28932537953048043,-0.3,1.0,0.0,313.0,920.0,1.0,1,147.0,0
982,982,-0.8228331436351787,-0.8,0.0,1.0,258.0,891.0,1.0,0,121.0,1
983,983,-0.8896727203260439,-0.9,0.0,1.0,397.0,880.0,1.0,0,383.0,1
984,984,-0.017291764097635554,-0.0,1.0,0.0,397.0,758.0,0.0,0,645.0,1
985,985,0.2281507913110098,0.2,0.0,0.0,304.0,567.0,0.0,1,299.0,1
986,986,0.1993691514232071,0.2,0.0,0.0,296.0,942.0,0.0,1,242.0,1
987,987,-0.48905796902430787,-0.5,1.0,0.0,279.0,588.0,0.0,0,383.0,1
988,988,0.135549559345424,0.1,0.0,0.0,408.0,856.0,0.0,1,476.0,1
989,989,-0.1725722313137148,-0.2,0.0,1.0,364.0,522.0,1.0,0,2424.0,1
990,990,0.48196277691557754,0.5,0.0,0.0,311.0,675.0,0.0,1,804.0,1
991,991,0.2225544777080416,0.2,1.0,1.0,340.0,770.0,1.0,1,1590.0,1
992,992,-0.6164072988096247,-0.6,0.0,1.0,276.0,632.0,1.0,0,362.0,1
993,993,0.5017335383236144,0.5,0.0,0.0,250.0,533.0,0.0,1,777.0,1
994,994,-0.019893328273434263,-0.0,0.0,1.0,414.0,502.0,1.0,0,1084.0,1
995,995,0.01697893780533266,0.0,0.0,0.0,382.0,602.0,1.0,0,976.0,0
996,996,-0.11887799904927177,-0.1,0.0,1.0,257.0,733.0,0.0,1,510.0,0
997,997,0.840736374595494,0.8,0.0,0.0,270.0,551.0,0.0,1,929.0,1
998,998,0.13530946943320832,0.1,1.0,1.0,348.0,687.0,1.0,1,545.0,1
999,999,-0.707808091742377,-0.7,0.0,1.0,392.0,955.0,1.0,0,313.0,1
1000,1000,0.4208339734543244,0.4,0.0,0.0,393.0,768.0,0.0,1,559.0,1
1001,1001,-0.7379638094653296,-0.7,0.0,1.0,401.0,643.0,1.0,0,386.0,1
1002,1002,0.62349697016142,0.6,0.0,0.0,419.0,515.0,0.0,1,836.0,1
1003,1003,0.8925899340189373,0.9,0.0,0.0,448.0,877.0,0.0,1,275.0,1
1004,1004,0.07696727851623075,0.1,1.0,1.0,465.0,743.0,0.0,0,492.0,0
1005,1005,-0.022262462080138712,-0.0,0.0,1.0,358.0,810.0,1.0,0,1702.0,1
1006,1006,-0.4981416672200073,-0.5,1.0,0.0,451.0,979.0,0.0,0,220.0,1
1007,1007,-0.5295093664677463,-0.5,1.0,0.0,312.0,747.0,0.0,0,321.0,1
1008,1008,-0.38022867354707646,-0.4,1.0,0.0,337.0,924.0,0.0,0,679.0,1
1009,1009,0.2497074582642772,0.2,1.0,1.0,408.0,874.0,1.0,1,258.0,1
1010,1010,-0.008435349517181723,-0.0,1.0,0.0,302.0,882.0,1.0,1,266.0,0
1011,1011,-0.08334189240046652,-0.1,1.0,0.0,283.0,756.0,1.0,1,471.0,0
1012,1012,0.30741307846182864,0.3,1.0,1.0,283.0,813.0,1.0,1,74.0,1
1013,1013,0.3104934987416542,0.3,1.0,1.0,278.0,511.0,1.0,1,491.0,1
1014,1014,0.5858216268033688,0.6,1.0,1.0,481.0,516.0,1.0,1,343.0,1
1015,1015,-0.49811117272234146,-0.5,1.0,0.0,434.0,711.0,0.0,0,385.0,1
1016,1016,-0.5496383068555928,-0.5,1.0,0.0,346.0,598.0,0.0,0,686.0,1
1017,1017,-0.038910332092545796,-0.0,1.0,0.0,362.0,876.0,0.0,0,462.0,1
1018,1018,0.564722622524113,0.6,1.0,1.0,329.0,816.0,1.0,1,295.0,1
1019,1019,0.31210595409149,0.3,0.0,0.0,482.0,637.0,0.0,1,1151.0,1
1020,1020,0.42509692087369977,0.4,1.0,1.0,494.0,505.0,1.0,1,711.0,1
1021,1021,-0.28187606369197704,-0.3,0.0,1.0,393.0,574.0,0.0,1,893.0,0
1022,1022,-0.365311683714154,-0.4,1.0,0.0,402.0,605.0,1.0,1,1543.0,0
1023,1023,-0.1805646115225762,-0.2,1.0,0.0,338.0,785.0,0.0,0,597.0,1
1024,1024,0.07758248529784895,0.1,0.0,0.0,270.0,755.0,1.0,0,945.0,0
1025,1025,-0.3913413496038277,-0.4,1.0,0.0,309.0,950.0,0.0,0,491.0,1
1026,1026,-0.02598440832576976,-0.0,1.0,0.0,268.0,711.0,1.0,1,501.0,0
1027,1027,-0.12317976643758577,-0.1,0.0,1.0,280.0,571.0,1.0,0,699.0,1
1028,1028,0.6130296814589654,0.6,0.0,0.0,492.0,940.0,0.0,1,438.0,1
1029,1029,0.7296129467795859,0.7,0.0,0.0,288.0,659.0,0.0,1,403.0,1
1030,1030,0.1965668941594828,0.2,1.0,1.0,363.0,641.0,1.0,1,916.0,1
1031,1031,-0.4937418281732156,-0.5,0.0,1.0,382.0,738.0,1.0,0,380.0,1
1032,1032,-0.5163452378696398,-0.5,0.0,1.0,298.0,927.0,1.0,0,295.0,1
1033,1033,0.6388945199775492,0.6,1.0,1.0,473.0,723.0,1.0,1,434.0,1
1034,1034,0.38384377102586764,0.4,1.0,1.0,449.0,866.0,1.0,1,105.0,1
1035,1035,0.1643372023356634,0.2,0.0,0.0,425.0,504.0,1.0,0,1181.0,0
1036,1036,-0.681349071353629,-0.7,0.0,1.0,285.0,578.0,1.0,0,427.0,1
1037,1037,0.15454960216539437,0.2,0.0,0.0,403.0,998.0,0.0,1,759.0,1
1038,1038,0.20982807247880098,0.2,0.0,0.0,351.0,774.0,0.0,1,285.0,1
1039,1039,0.057731619939204726,0.1,0.0,0.0,460.0,798.0,1.0,0,302.0,0
1040,1040,0.646358328539229,0.6,0.0,0.0,483.0,729.0,0.0,1,1148.0,1
1041,1041,0.4078037114251366,0.4,1.0,1.0,272.0,862.0,1.0,1,406.0,1
1042,1042,-0.5709592055147448,-0.6,0.0,1.0,373.0,528.0,1.0,0,709.0,1
1043,1043,0.00280832348650617,0.0,1.0,1.0,338.0,887.0,1.0,1,475.0,1
1044,1044,0.24300791263069754,0.2,0.0,0.0,389.0,782.0,0.0,1,799.0,1
1045,1045,-0.030710586778843085,-0.0,1.0,0.0,396.0,565.0,1.0,1,709.0,0
1046,1046,0.8241683708657833,0.8,1.0,1.0,497.0,974.0,1.0,1,389.0,1
1047,1047,0.1989327940523301,0.2,1.0,1.0,448.0,506.0,1.0,1,896.0,1
1048,1048,-0.8401984061590022,-0.8,1.0,0.0,311.0,803.0,0.0,0,1646.0,1
1049,1049,-0.33436759091546797,-0.3,0.0,1.0,262.0,535.0,1.0,0,1153.0,1
1050,1050,-0.797723400610295,-0.8,0.0,1.0,407.0,983.0,1.0,0,290.0,1
1051,1051,-0.7443856418295898,-0.7,0.0,1.0,304.0,714.0,1.0,0,422.0,1
1052,1052,0.7459959703973783,0.7,0.0,0.0,254.0,827.0,0.0,1,259.0,1
1053,1053,0.6849779424954167,0.7,0.0,0.0,370.0,743.0,0.0,1,427.0,1
1054,1054,-0.12424451593602348,-0.1,0.0,1.0,413.0,836.0,1.0,0,731.0,1
1055,1055,-0.05174064159272096,-0.1,1.0,0.0,427.0,670.0,1.0,1,383.0,0
1056,1056,-0.5573595892926924,-0.6,0.0,1.0,331.0,645.0,1.0,0,634.0,1
1057,1057,-0.6137385195994031,-0.6,1.0,0.0,486.0,902.0,0.0,0,632.0,1
1058,1058,0.5555393090508945,0.6,0.0,0.0,358.0,786.0,0.0,1,206.0,1
1059,1059,0.859350857138835,0.9,1.0,1.0,415.0,863.0,1.0,1,202.0,1
1060,1060,-0.35525191464063277,-0.4,0.0,1.0,474.0,535.0,1.0,0,261.0,1
1061,1061,-0.22145292928678528,-0.2,1.0,0.0,285.0,603.0,0.0,0,612.0,1
1062,1062,0.39164194303696764,0.4,1.0,1.0,414.0,662.0,1.0,1,944.0,1
1063,1063,0.8887697028368645,0.9,1.0,1.0,256.0,716.0,1.0,1,288.0,1
1064,1064,0.37721010634225294,0.4,0.0,0.0,339.0,723.0,0.0,1,1718.0,1
1065,1065,0.0418950720104273,0.0,1.0,1.0,337.0,997.0,0.0,0,916.0,0
1066,1066,0.17269987212083404,0.2,1.0,1.0,285.0,669.0,1.0,1,1136.0,1
1067,1067,0.009560641650058987,0.0,1.0,1.0,298.0,716.0,1.0,1,336.0,1
1068,1068,0.1095877322676887,0.1,0.0,0.0,266.0,882.0,1.0,0,132.0,0
1069,1069,-0.7468020882957881,-0.7,0.0,1.0,336.0,540.0,1.0,0,454.0,1
1070,1070,-0.6475088549992284,-0.6,0.0,1.0,402.0,969.0,1.0,0,279.0,1
1071,1071,0.5374287372483947,0.5,0.0,0.0,455.0,919.0,0.0,1,306.0,1
1072,1072,-0.09331716900393883,-0.1,0.0,1.0,387.0,662.0,1.0,0,1221.0,1
1073,1073,0.8286188717708772,0.8,0.0,0.0,258.0,825.0,0.0,1,337.0,1
1074,1074,-0.7392469588879709,-0.7,0.0,1.0,286.0,812.0,1.0,0,102.0,1
1075,1075,-0.6275057425833643,-0.6,1.0,0.0,359.0,718.0,0.0,0,1003.0,1
1076,1076,0.8392960570256408,0.8,1.0,1.0,485.0,558.0,1.0,1,1017.0,1
1077,1077,-0.08637261635931304,-0.1,0.0,1.0,455.0,522.0,1.0,0,693.0,1
1078,1078,0.06387894638035807,0.1,0.0,0.0,327.0,566.0,0.0,1,827.0,1
1079,1079,0.10675314940877578,0.1,1.0,1.0,477.0,517.0,1.0,1,756.0,1
1080,1080,-0.010561399296549423,-0.0,1.0,0.0,474.0,543.0,1.0,1,1163.0,0
1081,1081,-0.2801909875599464,-0.3,1.0,0.0,360.0,722.0,0.0,0,698.0,1
1082,1082,0.6222678804022713,0.6,1.0,1.0,420.0,965.0,1.0,1,335.0,1
1083,1083,0.35690925315658506,0.4,1.0,1.0,451.0,895.0,0.0,0,-6.0,0
1084,1084,-0.24826360978399242,-0.2,0.0,1.0,495.0,860.0,1.0,0,995.0,1
1085,1085,0.004673830190076167,0.0,1.0,1.0,450.0,716.0,1.0,1,934.0,1
1086,1086,-0.23205760205920312,-0.2,1.0,0.0,492.0,879.0,0.0,0,99.0,1
1087,1087,0.7412081668670495,0.7,1.0,1.0,312.0,508.0,1.0,1,360.0,1
1088,1088,-0.1481836072936491,-0.1,1.0,0.0,452.0,794.0,0.0,0,1604.0,1
1089,1089,-0.43880388252166935,-0.4,1.0,0.0,396.0,701.0,0.0,0,443.0,1
1090,1090,0.28442391537322054,0.3,0.0,0.0,253.0,916.0,0.0,1,531.0,1
1091,1091,-0.35456114766554625,-0.4,1.0,0.0,315.0,524.0,0.0,0,711.0,1
1092,1092,-0.13288372829131467,-0.1,0.0,1.0,323.0,805.0,1.0,0,622.0,1
1093,1093,0.13158188795323678,0.1,1.0,1.0,384.0,823.0,1.0,1,273.0,1
1094,1094,0.3698365665936577,0.4,0.0,0.0,250.0,670.0,0.0,1,720.0,1
1095,1095,-0.050912695940106945,-0.1,0.0,1.0,311.0,954.0,1.0,0,695.0,1
1096,1096,0.740129485722305,0.7,1.0,1.0,327.0,949.0,1.0,1,704.0,1
1097,1097,-0.38663144411595296,-0.4,0.0,1.0,314.0,657.0,1.0,0,349.0,1
1098,1098,0.044847226534721174,0.0,1.0,1.0,360.0,757.0,1.0,1,523.0,1
1099,1099,0.32342155386632376,0.3,1.0,1.0,319.0,547.0,1.0,1,394.0,1
1100,1100,-0.42889035056301983,-0.4,1.0,0.0,379.0,804.0,0.0,0,267.0,1
1101,1101,-0.793643034883065,-0.8,1.0,0.0,257.0,637.0,0.0,0,986.0,1
1102,1102,0.18432764977338467,0.2,0.0,0.0,278.0,903.0,0.0,1,989.0,1
1103,1103,-0.6443674798574404,-0.6,1.0,0.0,375.0,672.0,0.0,0,763.0,1
1104,1104,0.40962737652719794,0.4,0.0,0.0,256.0,542.0,0.0,1,762.0,1
1105,1105,-0.5219352112150155,-0.5,0.0,1.0,313.0,676.0,1.0,0,501.0,1
1106,1106,-0.3055375161444125,-0.3,0.0,1.0,401.0,702.0,1.0,0,1197.0,1
1107,1107,0.2594974360173884,0.3,0.0,0.0,457.0,654.0,1.0,0,639.0,0
1108,1108,0.8302114751780977,0.8,1.0,1.0,389.0,692.0,1.0,1,679.0,1
1109,1109,-0.731992567725174,-0.7,1.0,0.0,336.0,915.0,0.0,0,329.0,1
1110,1110,0.14837369584782578,0.1,0.0,0.0,299.0,748.0,0.0,1,803.0,1
1111,1111,-0.7205727497236392,-0.7,1.0,0.0,344.0,600.0,0.0,0,946.0,1
1112,1112,-0.7174371655900036,-0.7,1.0,0.0,497.0,557.0,0.0,0,456.0,1
1113,1113,-0.8150302163752042,-0.8,1.0,0.0,346.0,823.0,0.0,0,301.0,1
1114,1114,-0.2718524795060784,-0.3,1.0,0.0,428.0,507.0,0.0,0,1735.0,1
1115,1115,0.775976569355295,0.8,0.0,0.0,482.0,955.0,0.0,1,333.0,1
1116,1116,0.8272473815930818,0.8,1.0,1.0,443.0,834.0,1.0,1,293.0,1
1117,1117,0.650551596214782,0.7,0.0,0.0,478.0,857.0,0.0,1,255.0,1
1118,1118,-0.8835666184539027,-0.9,1.0,0.0,439.0,587.0,0.0,0,454.0,1
1119,1119,0.5912113081710705,0.6,1.0,1.0,316.0,529.0,1.0,1,555.0,1
1120,1120,0.12183237273156011,0.1,0.0,0.0,265.0,589.0,0.0,1,1696.0,1
1121,1121,-0.7721872347521956,-0.8,0.0,1.0,382.0,571.0,1.0,0,527.0,1
1122,1122,0.45596489051238154,0.5,1.0,1.0,401.0,511.0,1.0,1,618.0,1
1123,1123,0.389587996411218,0.4,1.0,1.0,438.0,770.0,1.0,1,1682.0,1
1124,1124,0.5305541187649397,0.5,0.0,0.0,370.0,991.0,1.0,0,-101.0,0
1125,1125,0.7185053425235738,0.7,1.0,1.0,485.0,926.0,1.0,1,339.0,1
1126,1126,-0.8951927133267877,-0.9,1.0,0.0,368.0,812.0,0.0,0,330.0,1
1127,1127,0.6235913488284092,0.6,0.0,0.0,254.0,573.0,0.0,1,283.0,1
1128,1128,-0.5177122837873318,-0.5,0.0,1.0,338.0,752.0,1.0,0,680.0,1
1129,1129,0.7091424734103325,0.7,0.0,0.0,470.0,604.0,0.0,1,566.0,1
1130,1130,0.666136555304602,0.7,1.0,1.0,347.0,547.0,1.0,1,536.0,1
1131,1131,-0.3047651882162945,-0.3,0.0,1.0,472.0,701.0,1.0,0,807.0,1
1132,1132,0.7005706033638167,0.7,1.0,1.0,489.0,776.0,1.0,1,115.0,1
1133,1133,0.582554105357073,0.6,1.0,1.0,439.0,867.0,1.0,1,34.0,1
1134,1134,-0.3791167782236635,-0.4,0.0,1.0,463.0,630.0,1.0,0,327.0,1
1135,1135,-0.698910376808816,-0.7,1.0,0.0,361.0,930.0,0.0,0,479.0,1
1136,1136,-0.24740617452606706,-0.2,0.0,1.0,420.0,998.0,1.0,0,352.0,1
1137,1137,-0.03803806752686645,-0.0,0.0,1.0,399.0,771.0,1.0,0,440.0,1
1138,1138,0.8498415647272229,0.8,0.0,0.0,306.0,652.0,0.0,1,502.0,1
1139,1139,-0.10478257699176041,-0.1,1.0,0.0,321.0,632.0,0.0,0,627.0,1
1140,1140,0.34779584152393916,0.3,1.0,1.0,469.0,643.0,0.0,0,108.0,0
1141,1141,-0.8795144284607582,-0.9,0.0,1.0,250.0,959.0,1.0,0,231.0,1
1142,1142,-0.006131424282505349,-0.0,1.0,0.0,312.0,986.0,0.0,0,982.0,1
1143,1143,0.6539422188558771,0.7,1.0,1.0,475.0,906.0,1.0,1,219.0,1
1144,1144,-0.0881088889457623,-0.1,0.0,1.0,255.0,544.0,1.0,0,491.0,1
1145,1145,0.31154558535458754,0.3,0.0,0.0,300.0,911.0,0.0,1,349.0,1
1146,1146,-0.7092674724027646,-0.7,0.0,1.0,471.0,881.0,1.0,0,468.0,1
1147,1147,-0.20207224198439577,-0.2,0.0,1.0,493.0,709.0,1.0,0,708.0,1
1148,1148,-0.5309559073087817,-0.5,0.0,1.0,259.0,535.0,1.0,0,496.0,1
1149,1149,-0.7638245923501114,-0.8,0.0,1.0,488.0,863.0,1.0,0,549.0,1
1150,1150,0.1919423431142343,0.2,0.0,0.0,362.0,994.0,0.0,1,34.0,1
1151,1151,0.5021214113865572,0.5,1.0,1.0,300.0,637.0,1.0,1,333.0,1
1152,1152,0.5903569782428045,0.6,1.0,1.0,339.0,774.0,1.0,1,147.0,1
1153,1153,-0.5305855882665614,-0.5,0.0,1.0,270.0,699.0,1.0,0,471.0,1
1154,1154,0.3009740375376365,0.3,0.0,0.0,264.0,759.0,0.0,1,347.0,1
1155,1155,0.23499151809708418,0.2,1.0,1.0,471.0,855.0,1.0,1,1154.0,1
1156,1156,-0.17546148942877016,-0.2,1.0,0.0,365.0,574.0,1.0,1,591.0,0
1157,1157,0.6406185724140293,0.6,0.0,0.0,477.0,967.0,0.0,1,86.0,1
1158,1158,0.48626801957827415,0.5,0.0,0.0,271.0,816.0,0.0,1,43.0,1
1159,1159,0.02013295425291428,0.0,1.0,1.0,259.0,555.0,1.0,1,1006.0,1
1160,1160,0.007132517589362286,0.0,1.0,1.0,422.0,505.0,1.0,1,723.0,1
1161,1161,-0.011084126797268778,-0.0,1.0,0.0,461.0,927.0,1.0,1,192.0,0
1162,1162,0.3691242196552348,0.4,0.0,0.0,321.0,578.0,0.0,1,701.0,1
1163,1163,0.13966597444529805,0.1,1.0,1.0,408.0,679.0,1.0,1,353.0,1
1164,1164,0.46691552423753035,0.5,0.0,0.0,455.0,831.0,0.0,1,484.0,1
1165,1165,-0.8000994727141623,-0.8,1.0,0.0,473.0,823.0,0.0,0,134.0,1
1166,1166,0.129099591846921,0.1,1.0,1.0,477.0,589.0,1.0,1,534.0,1
1167,1167,0.08454777174118833,0.1,0.0,0.0,420.0,786.0,0.0,1,324.0,1
1168,1168,0.6549936527513399,0.7,0.0,0.0,268.0,913.0,0.0,1,289.0,1
1169,1169,-0.15980054341399974,-0.2,0.0,1.0,388.0,589.0,1.0,0,963.0,1
1170,1170,0.35656343448770456,0.4,1.0,1.0,438.0,774.0,1.0,1,208.0,1
1171,1171,-0.42725613959477143,-0.4,1.0,0.0,473.0,503.0,0.0,0,964.0,1
1172,1172,0.30450175104708743,0.3,1.0,1.0,387.0,732.0,1.0,1,391.0,1
1173,1173,-0.6903453783359985,-0.7,1.0,0.0,274.0,713.0,0.0,0,543.0,1
1174,1174,0.7514599090731743,0.8,0.0,0.0,428.0,611.0,0.0,1,321.0,1
1175,1175,-0.6005227931484788,-0.6,0.0,1.0,410.0,750.0,1.0,0,450.0,1
1176,1176,0.7150368672489157,0.7,1.0,1.0,459.0,928.0,1.0,1,263.0,1
1177,1177,-0.33991146543848394,-0.3,1.0,0.0,351.0,909.0,0.0,0,300.0,1
1178,1178,0.05185725175507938,0.1,0.0,0.0,373.0,885.0,0.0,1,1012.0,1
1179,1179,0.37663439076797867,0.4,1.0,1.0,336.0,902.0,1.0,1,442.0,1
1180,1180,-0.08769974770888156,-0.1,0.0,1.0,272.0,539.0,0.0,1,699.0,0
1181,1181,0.739516847449666,0.7,0.0,0.0,257.0,580.0,0.0,1,333.0,1
1182,1182,0.7357027706468636,0.7,0.0,0.0,303.0,637.0,0.0,1,480.0,1
1183,1183,-0.10529254618171524,-0.1,0.0,1.0,283.0,809.0,1.0,0,528.0,1
1184,1184,0.422754550819778,0.4,0.0,0.0,408.0,759.0,1.0,0,353.0,0
1185,1185,0.37416488757777466,0.4,1.0,1.0,377.0,908.0,1.0,1,-165.0,1
1186,1186,0.44058768260130077,0.4,0.0,0.0,418.0,753.0,0.0,1,399.0,1
1187,1187,0.41375927714186334,0.4,0.0,0.0,345.0,657.0,1.0,0,838.0,0
1188,1188,0.02558510150711446,0.0,0.0,0.0,361.0,569.0,1.0,0,1590.0,0
1189,1189,0.8430249231550594,0.8,1.0,1.0,408.0,703.0,1.0,1,419.0,1
1190,1190,-0.5387576643916239,-0.5,0.0,1.0,404.0,994.0,1.0,0,912.0,1
1191,1191,-0.309401435782487,-0.3,1.0,0.0,419.0,858.0,0.0,0,253.0,1
1192,1192,0.1707108380002612,0.2,0.0,0.0,327.0,926.0,0.0,1,577.0,1
1193,1193,-0.8994838795064625,-0.9,0.0,1.0,425.0,556.0,1.0,0,369.0,1
1194,1194,-0.10238001205504099,-0.1,0.0,1.0,424.0,529.0,0.0,1,957.0,0
1195,1195,0.14315821614838764,0.1,1.0,1.0,415.0,865.0,0.0,0,340.0,0
1196,1196,0.1776528842761228,0.2,1.0,1.0,399.0,713.0,1.0,1,838.0,1
1197,1197,-0.2007680102823607,-0.2,0.0,1.0,438.0,899.0,1.0,0,433.0,1
1198,1198,0.5048365785746131,0.5,1.0,1.0,494.0,664.0,1.0,1,452.0,1
1199,1199,-0.6178203493656373,-0.6,0.0,1.0,352.0,901.0,1.0,0,287.0,1
1200,1200,-0.15845933105084564,-0.2,1.0,0.0,375.0,649.0,1.0,1,1436.0,0
1201,1201,0.13205082508347943,0.1,1.0,1.0,420.0,723.0,1.0,1,1417.0,1
1202,1202,0.6274784957874234,0.6,0.0,0.0,389.0,986.0,1.0,0,-115.0,0
1203,1203,0.009024076471403797,0.0,1.0,1.0,313.0,935.0,1.0,1,-28.0,1
1204,1204,0.3886855641091319,0.4,1.0,1.0,386.0,733.0,1.0,1,241.0,1
1205,1205,-0.5330048853059546,-0.5,1.0,0.0,312.0,528.0,0.0,0,850.0,1
1206,1206,-0.23015811460247637,-0.2,0.0,1.0,290.0,500.0,1.0,0,840.0,1
1207,1207,0.21463566051604788,0.2,1.0,1.0,471.0,940.0,1.0,1,39.0,1
1208,1208,0.6809109333933162,0.7,1.0,1.0,326.0,851.0,1.0,1,413.0,1
1209,1209,0.4290309380177243,0.4,1.0,1.0,364.0,507.0,1.0,1,369.0,1
1210,1210,0.5819376042541514,0.6,0.0,0.0,498.0,969.0,0.0,1,343.0,1
1211,1211,-0.2849772204356865,-0.3,1.0,0.0,338.0,851.0,0.0,0,2021.0,1
1212,1212,-0.3603036402127451,-0.4,0.0,1.0,414.0,537.0,0.0,1,989.0,0
1213,1213,0.1453437350336798,0.1,1.0,1.0,310.0,614.0,1.0,1,406.0,1
1214,1214,0.6602896951164788,0.7,1.0,1.0,356.0,671.0,1.0,1,483.0,1
1215,1215,0.47764991568530546,0.5,0.0,0.0,319.0,707.0,0.0,1,1164.0,1
1216,1216,0.08380847195290042,0.1,0.0,0.0,342.0,990.0,0.0,1,298.0,1
1217,1217,-0.6413843271205523,-0.6,1.0,0.0,409.0,989.0,0.0,0,192.0,1
1218,1218,0.3584870140046986,0.4,1.0,1.0,264.0,866.0,1.0,1,800.0,1
1219,1219,-0.6738277551724225,-0.7,1.0,0.0,264.0,756.0,0.0,0,1360.0,1
1220,1220,-0.8795829985780755,-0.9,1.0,0.0,396.0,768.0,0.0,0,1326.0,1
1221,1221,-0.3565731914127891,-0.4,1.0,0.0,425.0,650.0,0.0,0,585.0,1
1222,1222,0.42635450975284883,0.4,0.0,0.0,381.0,912.0,0.0,1,557.0,1
1223,1223,0.8527437870693565,0.9,1.0,1.0,374.0,894.0,1.0,1,272.0,1
1224,1224,-0.4635188198641752,-0.5,0.0,1.0,405.0,976.0,0.0,1,449.0,0
1225,1225,-0.7283844236826872,-0.7,0.0,1.0,491.0,665.0,1.0,0,964.0,1
1226,1226,-0.2326907584917388,-0.2,0.0,1.0,396.0,843.0,0.0,1,781.0,0
1227,1227,-0.6498751958172013,-0.6,1.0,0.0,415.0,530.0,0.0,0,725.0,1
1228,1228,0.07261170346864276,0.1,1.0,1.0,267.0,844.0,1.0,1,989.0,1
1229,1229,-0.7173886191281602,-0.7,0.0,1.0,271.0,705.0,1.0,0,884.0,1
1230,1230,0.5176414544601456,0.5,0.0,0.0,467.0,661.0,0.0,1,1052.0,1
1231,1231,-0.20927582303252468,-0.2,1.0,0.0,348.0,703.0,1.0,1,249.0,0
1232,1232,-0.8930673608499943,-0.9,1.0,0.0,261.0,641.0,0.0,0,708.0,1
1233,1233,0.16758122205461412,0.2,0.0,0.0,253.0,892.0,0.0,1,485.0,1
1234,1234,-0.6345021087046852,-0.6,1.0,0.0,444.0,914.0,1.0,1,182.0,0
1235,1235,-0.7871147405385993,-0.8,0.0,1.0,363.0,994.0,1.0,0,183.0,1
1236,1236,-0.5502069905697942,-0.6,0.0,1.0,315.0,804.0,1.0,0,171.0,1
1237,1237,0.04773226361019567,0.0,1.0,1.0,479.0,822.0,1.0,1,809.0,1
1238,1238,-0.7977199582510849,-0.8,1.0,0.0,301.0,908.0,0.0,0,-79.0,1
1239,1239,-0.7475746758889509,-0.7,1.0,0.0,484.0,925.0,0.0,0,101.0,1
1240,1240,-0.1983076347582935,-0.2,1.0,0.0,499.0,649.0,1.0,1,852.0,0
1241,1241,-0.7906477410964958,-0.8,1.0,0.0,293.0,678.0,0.0,0,309.0,1
1242,1242,0.2815747816624362,0.3,1.0,1.0,409.0,585.0,1.0,1,576.0,1
1243,1243,0.02012698136088631,0.0,0.0,0.0,466.0,536.0,1.0,0,1998.0,0
1244,1244,-0.5396195339008412,-0.5,0.0,1.0,324.0,815.0,1.0,0,851.0,1
1245,1245,0.4644501390513952,0.5,1.0,1.0,412.0,576.0,1.0,1,842.0,1
1246,1246,-0.47220081756100885,-0.5,1.0,0.0,499.0,505.0,0.0,0,1516.0,1
1247,1247,0.23633451020414664,0.2,1.0,1.0,412.0,785.0,1.0,1,123.0,1
1248,1248,-0.08259772009388666,-0.1,1.0,0.0,308.0,519.0,0.0,0,1313.0,1
1249,1249,0.8165923436150041,0.8,1.0,1.0,451.0,583.0,1.0,1,456.0,1
1250,1250,0.08235790242298813,0.1,0.0,0.0,496.0,669.0,0.0,1,855.0,1
1251,1251,-0.8806680921554497,-0.9,0.0,1.0,369.0,810.0,1.0,0,241.0,1
1252,1252,-0.06105369504626745,-0.1,0.0,1.0,339.0,881.0,0.0,1,80.0,0
1253,1253,0.49790960724758204,0.5,0.0,0.0,495.0,524.0,0.0,1,971.0,1
1254,1254,0.451524077726403,0.5,1.0,1.0,444.0,852.0,1.0,1,384.0,1
1255,1255,-0.06432419668959977,-0.1,0.0,1.0,260.0,876.0,1.0,0,1474.0,1
1256,1256,-0.20811770540989716,-0.2,1.0,0.0,457.0,744.0,1.0,1,969.0,0
1257,1257,-0.3695237816857765,-0.4,1.0,0.0,312.0,855.0,0.0,0,863.0,1
1258,1258,0.3887636588220936,0.4,1.0,1.0,337.0,514.0,1.0,1,1369.0,1
1259,1259,-0.13070432231720208,-0.1,1.0,0.0,333.0,804.0,0.0,0,233.0,1
1260,1260,-0.6205900438780203,-0.6,1.0,0.0,291.0,648.0,0.0,0,491.0,1
1261,1261,-0.47170731271960215,-0.5,0.0,1.0,387.0,925.0,0.0,1,168.0,0
1262,1262,-0.7305311907233284,-0.7,0.0,1.0,329.0,999.0,1.0,0,182.0,1
1263,1263,0.6140947560928248,0.6,1.0,1.0,298.0,636.0,1.0,1,406.0,1
1264,1264,0.541730045542696,0.5,1.0,1.0,280.0,946.0,1.0,1,674.0,1
1265,1265,0.3752388122112441,0.4,1.0,1.0,386.0,945.0,1.0,1,239.0,1
1266,1266,-0.828260585162005,-0.8,1.0,0.0,258.0,711.0,0.0,0,441.0,1
1267,1267,-0.5592014753813712,-0.6,0.0,1.0,486.0,673.0,1.0,0,311.0,1
1268,1268,-0.8773092861115274,-0.9,0.0,1.0,434.0,649.0,1.0,0,397.0,1
1269,1269,0.5417415722212743,0.5,0.0,0.0,335.0,570.0,0.0,1,1055.0,1
1270,1270,0.8897863008076635,0.9,1.0,1.0,306.0,558.0,1.0,1,526.0,1
1271,1271,0.1419619381832068,0.1,0.0,0.0,309.0,606.0,0.0,1,405.0,1
1272,1272,0.7892559178818505,0.8,0.0,0.0,273.0,888.0,0.0,1,709.0,1
1273,1273,0.7014246006955401,0.7,1.0,1.0,292.0,612.0,1.0,1,316.0,1
1274,1274,0.21527349092039805,0.2,1.0,1.0,493.0,850.0,1.0,1,2407.0,1
1275,1275,0.8658935362799968,0.9,0.0,0.0,343.0,740.0,0.0,1,587.0,1
1276,1276,-0.4078147918347278,-0.4,1.0,0.0,371.0,975.0,1.0,1,404.0,0
1277,1277,0.8946598734769883,0.9,1.0,1.0,314.0,738.0,1.0,1,528.0,1
1278,1278,-0.026234914617811467,-0.0,1.0,0.0,327.0,931.0,1.0,1,962.0,0
1279,1279,0.38986308776830325,0.4,0.0,0.0,335.0,988.0,0.0,1,527.0,1
1280,1280,-0.0067896203903512475,-0.0,0.0,1.0,298.0,915.0,0.0,1,927.0,0
1281,1281,0.3372319360420567,0.3,1.0,1.0,442.0,787.0,1.0,1,201.0,1
1282,1282,-0.19693697248197173,-0.2,1.0,0.0,302.0,963.0,0.0,0,335.0,1
1283,1283,0.4328124583107741,0.4,1.0,1.0,313.0,763.0,1.0,1,864.0,1
1284,1284,0.10282174886853379,0.1,1.0,1.0,459.0,874.0,1.0,1,1357.0,1
1285,1285,-0.05811412409558847,-0.1,0.0,1.0,377.0,768.0,1.0,0,385.0,1
1286,1286,-0.8026512173211716,-0.8,1.0,0.0,470.0,514.0,0.0,0,866.0,1
1287,1287,-0.021502947463440503,-0.0,0.0,1.0,483.0,506.0,0.0,1,541.0,0
1288,1288,-0.2155162134957277,-0.2,1.0,0.0,268.0,776.0,0.0,0,676.0,1
1289,1289,-0.5455176416241767,-0.5,1.0,0.0,300.0,950.0,0.0,0,60.0,1
1290,1290,0.5055958316001788,0.5,0.0,0.0,444.0,634.0,0.0,1,522.0,1
1291,1291,0.23397688387451032,0.2,1.0,1.0,301.0,943.0,1.0,1,196.0,1
1292,1292,-0.17351347355246172,-0.2,1.0,0.0,384.0,532.0,1.0,1,414.0,0
1293,1293,-0.006190030942245794,-0.0,0.0,1.0,495.0,509.0,1.0,0,1456.0,1
1294,1294,-0.3216907390551098,-0.3,1.0,0.0,282.0,574.0,0.0,0,1274.0,1
1295,1295,-0.007829404553619912,-0.0,0.0,1.0,340.0,821.0,0.0,1,1849.0,0
1296,1296,0.6056423046078366,0.6,0.0,0.0,402.0,939.0,0.0,1,69.0,1
1297,1297,-0.12513385179887282,-0.1,1.0,0.0,282.0,944.0,1.0,1,844.0,0
1298,1298,0.00691903652063286,0.0,1.0,1.0,280.0,876.0,1.0,1,824.0,1
1299,1299,-0.4714021423687345,-0.5,0.0,1.0,250.0,888.0,1.0,0,212.0,1
1300,1300,-0.43931324178751374,-0.4,1.0,0.0,392.0,909.0,0.0,0,169.0,1
1301,1301,0.5225363180038328,0.5,0.0,0.0,325.0,896.0,0.0,1,559.0,1
1302,1302,-0.8535647061442206,-0.9,0.0,1.0,321.0,712.0,1.0,0,137.0,1
1303,1303,-0.19593538597513793,-0.2,0.0,1.0,427.0,977.0,1.0,0,126.0,1
1304,1304,0.07568100372551534,0.1,1.0,1.0,406.0,694.0,1.0,1,1750.0,1
1305,1305,0.4237847726381906,0.4,1.0,1.0,282.0,741.0,1.0,1,707.0,1
1306,1306,-0.12529318726818062,-0.1,0.0,1.0,445.0,980.0,1.0,0,2315.0,1
1307,1307,-0.5948560591153088,-0.6,1.0,0.0,449.0,519.0,0.0,0,562.0,1
1308,1308,-0.7307325222450642,-0.7,1.0,0.0,310.0,924.0,0.0,0,686.0,1
1309,1309,-0.5873459422110373,-0.6,1.0,0.0,297.0,647.0,0.0,0,776.0,1
1310,1310,0.28091026272396225,0.3,1.0,1.0,409.0,869.0,0.0,0,392.0,0
1311,1311,-0.38988303145897785,-0.4,1.0,0.0,389.0,602.0,0.0,0,1089.0,1
1312,1312,-0.33047803014566157,-0.3,0.0,1.0,267.0,820.0,1.0,0,403.0,1
1313,1313,0.7788445350723269,0.8,0.0,0.0,418.0,590.0,0.0,1,472.0,1
1314,1314,-0.19893563308348117,-0.2,1.0,0.0,273.0,850.0,0.0,0,1067.0,1
1315,1315,-0.7993470184248661,-0.8,0.0,1.0,367.0,809.0,0.0,1,474.0,0
1316,1316,0.750361090883488,0.8,1.0,1.0,406.0,627.0,0.0,0,187.0,0
1317,1317,0.41778851981890053,0.4,1.0,1.0,352.0,588.0,0.0,0,340.0,0
1318,1318,0.7528992533760582,0.8,1.0,1.0,310.0,783.0,1.0,1,517.0,1
1319,1319,-0.8654432356959848,-0.9,0.0,1.0,386.0,786.0,1.0,0,428.0,1
1320,1320,-0.09097049143989944,-0.1,1.0,0.0,262.0,995.0,1.0,1,3.0,0
1321,1321,-0.23148544422590522,-0.2,1.0,0.0,404.0,839.0,1.0,1,917.0,0
1322,1322,0.6302129069974792,0.6,1.0,1.0,439.0,608.0,1.0,1,633.0,1
1323,1323,-0.7927100386467002,-0.8,0.0,1.0,310.0,789.0,1.0,0,461.0,1
1324,1324,-0.29589982728266784,-0.3,0.0,1.0,406.0,925.0,1.0,0,-161.0,1
1325,1325,-0.6796333385028931,-0.7,0.0,1.0,302.0,756.0,1.0,0,412.0,1
1326,1326,0.897659657087614,0.9,1.0,1.0,269.0,522.0,1.0,1,379.0,1
1327,1327,0.7373505140903104,0.7,0.0,0.0,384.0,577.0,0.0,1,509.0,1
1328,1328,0.01936726992089699,0.0,1.0,1.0,263.0,987.0,1.0,1,890.0,1
1329,1329,-0.7940523647714824,-0.8,0.0,1.0,294.0,849.0,1.0,0,187.0,1
1330,1330,-0.21259787291611631,-0.2,0.0,1.0,397.0,932.0,1.0,0,-9.0,1
1331,1331,0.3139400997532594,0.3,0.0,0.0,445.0,652.0,0.0,1,2343.0,1
1332,1332,0.668646986698262,0.7,1.0,1.0,428.0,889.0,1.0,1,393.0,1
1333,1333,-0.17649062419294792,-0.2,0.0,1.0,343.0,872.0,1.0,0,1165.0,1
1334,1334,-0.12386495767569627,-0.1,1.0,0.0,451.0,866.0,1.0,1,1783.0,0
1335,1335,0.2291477327690371,0.2,1.0,1.0,303.0,978.0,1.0,1,1049.0,1
1336,1336,-0.36795492792478424,-0.4,0.0,1.0,363.0,530.0,1.0,0,1537.0,1
1337,1337,-0.8279247208948899,-0.8,1.0,0.0,422.0,764.0,0.0,0,584.0,1
1338,1338,-0.7563739193542389,-0.8,1.0,0.0,385.0,799.0,0.0,0,206.0,1
1339,1339,-0.7534066316583208,-0.8,1.0,0.0,338.0,516.0,0.0,0,1586.0,1
1340,1340,-0.009790522544419478,-0.0,0.0,1.0,488.0,706.0,1.0,0,1726.0,1
1341,1341,0.7412791446223111,0.7,1.0,1.0,498.0,661.0,1.0,1,351.0,1
1342,1342,-0.3418301298887292,-0.3,0.0,1.0,307.0,836.0,1.0,0,777.0,1
1343,1343,-0.10836239182112684,-0.1,1.0,0.0,490.0,777.0,1.0,1,653.0,0
1344,1344,-0.8008234449460646,-0.8,0.0,1.0,264.0,656.0,1.0,0,380.0,1
1345,1345,0.14786800558424107,0.1,0.0,0.0,327.0,511.0,0.0,1,502.0,1
1346,1346,0.2069630548894884,0.2,0.0,0.0,261.0,776.0,0.0,1,233.0,1
1347,1347,0.8003545214129865,0.8,1.0,1.0,274.0,993.0,1.0,1,273.0,1
1348,1348,0.7170495572685521,0.7,0.0,0.0,467.0,748.0,0.0,1,575.0,1
1349,1349,0.21482846278598366,0.2,1.0,1.0,291.0,654.0,1.0,1,955.0,1
1350,1350,-0.03437656889207308,-0.0,1.0,0.0,452.0,527.0,1.0,1,671.0,0
1351,1351,0.3347396428096622,0.3,0.0,0.0,462.0,987.0,0.0,1,251.0,1
1352,1352,0.5222441442224416,0.5,0.0,0.0,468.0,639.0,0.0,1,233.0,1
1353,1353,-0.6142947804358677,-0.6,0.0,1.0,398.0,889.0,1.0,0,143.0,1
1354,1354,-0.2170744179640578,-0.2,1.0,0.0,305.0,645.0,0.0,0,570.0,1
1355,1355,0.488202579827952,0.5,0.0,0.0,342.0,900.0,0.0,1,498.0,1
1356,1356,-0.4774237999003278,-0.5,0.0,1.0,423.0,817.0,1.0,0,440.0,1
1357,1357,-0.477952327956748,-0.5,1.0,0.0,427.0,615.0,0.0,0,668.0,1
1358,1358,-0.18140417567629685,-0.2,0.0,1.0,447.0,736.0,1.0,0,697.0,1
1359,1359,0.37004651574113623,0.4,1.0,1.0,370.0,831.0,1.0,1,209.0,1
1360,1360,-0.671877420293771,-0.7,0.0,1.0,385.0,874.0,1.0,0,431.0,1
1361,1361,0.056390241054743884,0.1,0.0,0.0,311.0,774.0,0.0,1,385.0,1
1362,1362,-0.318113613194292,-0.3,1.0,0.0,342.0,833.0,0.0,0,475.0,1
1363,1363,0.23501780187418697,0.2,0.0,0.0,347.0,950.0,1.0,0,1183.0,0
1364,1364,0.8730427782237119,0.9,1.0,1.0,455.0,632.0,1.0,1,453.0,1
1365,1365,0.23500690828862092,0.2,0.0,0.0,329.0,664.0,0.0,1,507.0,1
1366,1366,-0.4085583186272489,-0.4,0.0,1.0,379.0,881.0,1.0,0,540.0,1
1367,1367,-0.4651461600992162,-0.5,1.0,0.0,446.0,509.0,0.0,0,2015.0,1
1368,1368,-0.35645528702376506,-0.4,0.0,1.0,448.0,788.0,1.0,0,294.0,1
1369,1369,0.011122555084182917,0.0,0.0,0.0,352.0,580.0,1.0,0,398.0,0
1370,1370,-0.7459619787555467,-0.7,1.0,0.0,466.0,962.0,0.0,0,362.0,1
1371,1371,0.49848557288467765,0.5,0.0,0.0,343.0,616.0,0.0,1,981.0,1
1372,1372,-0.04022668704937293,-0.0,1.0,0.0,396.0,709.0,0.0,0,805.0,1
1373,1373,0.8947956288968503,0.9,0.0,0.0,370.0,634.0,0.0,1,586.0,1
1374,1374,0.39182236705631535,0.4,0.0,0.0,333.0,731.0,1.0,0,786.0,0
1375,1375,0.36713751418405194,0.4,1.0,1.0,386.0,683.0,1.0,1,731.0,1
1376,1376,-0.3220957519475718,-0.3,0.0,1.0,251.0,859.0,1.0,0,-40.0,1
1377,1377,-0.7820882072973131,-0.8,0.0,1.0,438.0,901.0,1.0,0,141.0,1
1378,1378,0.34815663356536686,0.3,0.0,0.0,413.0,791.0,0.0,1,1466.0,1
1379,1379,0.8632934520349652,0.9,1.0,1.0,388.0,867.0,1.0,1,355.0,1
1380,1380,-0.4846485520434821,-0.5,1.0,0.0,253.0,842.0,0.0,0,695.0,1
1381,1381,0.8037115249887682,0.8,1.0,1.0,270.0,992.0,1.0,1,548.0,1
1382,1382,-0.7481597238098421,-0.7,0.0,1.0,399.0,508.0,1.0,0,493.0,1
1383,1383,-0.58417870956772,-0.6,0.0,1.0,264.0,724.0,1.0,0,552.0,1
1384,1384,-0.12851664345688973,-0.1,0.0,1.0,456.0,988.0,1.0,0,1756.0,1
1385,1385,0.28781139187284166,0.3,1.0,1.0,261.0,769.0,0.0,0,380.0,0
1386,1386,0.058614457192904035,0.1,1.0,1.0,267.0,784.0,1.0,1,839.0,1
1387,1387,0.813158413432672,0.8,1.0,1.0,407.0,996.0,1.0,1,297.0,1
1388,1388,-0.7979464985883851,-0.8,0.0,1.0,456.0,981.0,1.0,0,133.0,1
1389,1389,-0.09281689666777282,-0.1,0.0,1.0,261.0,955.0,0.0,1,-16.0,0
1390,1390,0.2614056461295088,0.3,1.0,1.0,373.0,560.0,1.0,1,467.0,1
1391,1391,-0.6676048540125578,-0.7,1.0,0.0,306.0,620.0,0.0,0,524.0,1
1392,1392,-0.2656512351965373,-0.3,1.0,0.0,336.0,714.0,0.0,0,970.0,1
1393,1393,0.282417893398342,0.3,0.0,0.0,347.0,802.0,0.0,1,1141.0,1
1394,1394,-0.09648932781453656,-0.1,1.0,0.0,470.0,615.0,1.0,1,1415.0,0
1395,1395,0.09100431760018624,0.1,0.0,0.0,456.0,913.0,0.0,1,461.0,1
1396,1396,-0.2096847411511189,-0.2,1.0,0.0,253.0,645.0,1.0,1,862.0,0
1397,1397,-0.30759776012908,-0.3,1.0,0.0,265.0,706.0,0.0,0,89.0,1
1398,1398,-0.07242096340784576,-0.1,0.0,1.0,490.0,801.0,0.0,1,1289.0,0
1399,1399,-0.8786080363238769,-0.9,1.0,0.0,312.0,720.0,0.0,0,1258.0,1
1400,1400,0.4006440855418162,0.4,1.0,1.0,297.0,795.0,1.0,1,628.0,1
1401,1401,0.7034357421366514,0.7,0.0,0.0,293.0,501.0,0.0,1,696.0,1
1402,1402,0.8015758222442949,0.8,1.0,1.0,263.0,799.0,1.0,1,-2.0,1
1403,1403,0.807912885259244,0.8,1.0,1.0,483.0,658.0,1.0,1,609.0,1
1404,1404,-0.06604237850206973,-0.1,0.0,1.0,380.0,668.0,0.0,1,882.0,0
1405,1405,0.8286206596610913,0.8,1.0,1.0,362.0,529.0,1.0,1,389.0,1
1406,1406,-0.3239149785792593,-0.3,1.0,0.0,280.0,819.0,0.0,0,1151.0,1
1407,1407,-0.5354923175739756,-0.5,1.0,0.0,397.0,933.0,0.0,0,-230.0,1
1408,1408,0.5592056124755272,0.6,1.0,1.0,358.0,866.0,1.0,1,886.0,1
1409,1409,0.23097048229549533,0.2,1.0,1.0,311.0,839.0,1.0,1,130.0,1
1410,1410,0.3832736626022789,0.4,0.0,0.0,296.0,614.0,0.0,1,340.0,1
1411,1411,-0.3297306683742024,-0.3,1.0,0.0,483.0,682.0,0.0,0,745.0,1
1412,1412,-0.19534587489710753,-0.2,0.0,1.0,420.0,792.0,1.0,0,138.0,1
1413,1413,-0.5669646694407123,-0.6,0.0,1.0,399.0,828.0,1.0,0,553.0,1
1414,1414,-0.22745310092233761,-0.2,1.0,0.0,252.0,875.0,1.0,1,813.0,0
1415,1415,0.5645617046531729,0.6,1.0,1.0,351.0,713.0,1.0,1,486.0,1
1416,1416,-0.5506707295748194,-0.6,0.0,1.0,273.0,664.0,1.0,0,963.0,1
1417,1417,0.6353142515316844,0.6,0.0,0.0,375.0,623.0,0.0,1,732.0,1
1418,1418,0.7733162487272113,0.8,0.0,0.0,372.0,743.0,0.0,1,305.0,1
1419,1419,-0.6012825849719318,-0.6,1.0,0.0,268.0,763.0,0.0,0,499.0,1
1420,1420,-0.8901227237309263,-0.9,1.0,0.0,430.0,854.0,0.0,0,506.0,1
1421,1421,0.8498288549942138,0.8,0.0,0.0,341.0,803.0,0.0,1,226.0,1
1422,1422,-0.26813261741802175,-0.3,1.0,0.0,336.0,775.0,0.0,0,1389.0,1
1423,1423,-0.25668161277133095,-0.3,0.0,1.0,252.0,870.0,0.0,1,188.0,0
1424,1424,-0.05469332512197178,-0.1,1.0,0.0,284.0,901.0,1.0,1,315.0,0
1425,1425,-0.6736891699686693,-0.7,0.0,1.0,469.0,708.0,1.0,0,443.0,1
1426,1426,0.29821059291743535,0.3,1.0,1.0,419.0,934.0,1.0,1,317.0,1
1427,1427,0.09140204532061291,0.1,1.0,1.0,358.0,545.0,0.0,0,887.0,0
1428,1428,0.8325451214782905,0.8,1.0,1.0,461.0,846.0,1.0,1,423.0,1
1429,1429,-0.36174000846747967,-0.4,1.0,0.0,459.0,523.0,0.0,0,1668.0,1
1430,1430,-0.807013100567844,-0.8,1.0,0.0,336.0,532.0,0.0,0,1122.0,1
1431,1431,-0.2978630646204008,-0.3,0.0,1.0,254.0,552.0,1.0,0,1674.0,1
1432,1432,0.6402358724691685,0.6,1.0,1.0,381.0,569.0,1.0,1,530.0,1
1433,1433,-0.7981500560951925,-0.8,1.0,0.0,344.0,753.0,0.0,0,243.0,1
1434,1434,0.04505664939793741,0.0,0.0,0.0,393.0,937.0,1.0,0,530.0,0
1435,1435,-0.47193825536651696,-0.5,0.0,1.0,367.0,523.0,1.0,0,330.0,1
1436,1436,0.6056561830603068,0.6,0.0,0.0,266.0,871.0,0.0,1,233.0,1
1437,1437,-0.3931167607519549,-0.4,0.0,1.0,445.0,655.0,1.0,0,580.0,1
1438,1438,0.8483701054693268,0.8,0.0,0.0,432.0,878.0,0.0,1,230.0,1
1439,1439,0.11304340549168301,0.1,0.0,0.0,348.0,642.0,0.0,1,1060.0,1
1440,1440,0.24289053581954734,0.2,1.0,1.0,440.0,838.0,0.0,0,-108.0,0
1441,1441,0.5180570680076769,0.5,0.0,0.0,453.0,995.0,0.0,1,462.0,1
1442,1442,0.7876340428858565,0.8,1.0,1.0,388.0,794.0,1.0,1,308.0,1
1443,1443,0.7478919996890879,0.7,0.0,0.0,361.0,696.0,0.0,1,623.0,1
1444,1444,0.789174721338345,0.8,1.0,1.0,410.0,879.0,1.0,1,311.0,1
1445,1445,-0.03358610048902411,-0.0,1.0,0.0,268.0,850.0,0.0,0,522.0,1
1446,1446,-0.7771523610226155,-0.8,0.0,1.0,437.0,725.0,1.0,0,188.0,1
1447,1447,-0.09533326003809495,-0.1,0.0,1.0,362.0,933.0,0.0,1,815.0,0
1448,1448,-0.21432530622705515,-0.2,0.0,1.0,435.0,962.0,1.0,0,983.0,1
1449,1449,-0.6566756103342554,-0.7,1.0,0.0,484.0,601.0,0.0,0,375.0,1
1450,1450,-0.2934708370060306,-0.3,0.0,1.0,431.0,645.0,1.0,0,234.0,1
1451,1451,0.224922477611032,0.2,1.0,1.0,339.0,946.0,1.0,1,75.0,1
1452,1452,0.1667628681647918,0.2,1.0,1.0,275.0,749.0,1.0,1,2456.0,1
1453,1453,0.7257418018174117,0.7,0.0,0.0,339.0,584.0,0.0,1,417.0,1
1454,1454,-0.3468642910633043,-0.3,1.0,0.0,370.0,626.0,0.0,0,684.0,1
1455,1455,0.3187432658124246,0.3,0.0,0.0,387.0,876.0,0.0,1,347.0,1
1456,1456,0.17128902140901026,0.2,0.0,0.0,398.0,535.0,1.0,0,1367.0,0
1457,1457,-0.8003735843639355,-0.8,0.0,1.0,364.0,617.0,1.0,0,249.0,1
1458,1458,-0.8228759405675478,-0.8,1.0,0.0,275.0,649.0,0.0,0,666.0,1
1459,1459,0.8457930818703839,0.8,1.0,1.0,425.0,531.0,1.0,1,444.0,1
1460,1460,0.4258766645583999,0.4,0.0,0.0,487.0,666.0,0.0,1,417.0,1
1461,1461,0.4527661699273654,0.5,0.0,0.0,296.0,532.0,0.0,1,462.0,1
1462,1462,-0.39336078682108855,-0.4,1.0,0.0,258.0,960.0,1.0,1,202.0,0
1463,1463,0.5416575230671407,0.5,1.0,1.0,478.0,955.0,1.0,1,737.0,1
1464,1464,-0.42431560829455855,-0.4,1.0,0.0,438.0,717.0,0.0,0,335.0,1
1465,1465,0.2402373290846943,0.2,1.0,1.0,473.0,921.0,1.0,1,1626.0,1
1466,1466,0.2547799837240584,0.3,0.0,0.0,253.0,636.0,0.0,1,751.0,1
1467,1467,0.1370058751105444,0.1,0.0,0.0,280.0,886.0,0.0,1,174.0,1
1468,1468,-0.801988648673117,-0.8,0.0,1.0,392.0,580.0,1.0,0,888.0,1
1469,1469,-0.7934465216009609,-0.8,1.0,0.0,321.0,993.0,0.0,0,166.0,1
1470,1470,0.6642823654820763,0.7,0.0,0.0,457.0,824.0,0.0,1,519.0,1
1471,1471,-0.33657825306349376,-0.3,0.0,1.0,435.0,678.0,1.0,0,1017.0,1
1472,1472,-0.8978491384742306,-0.9,1.0,0.0,316.0,736.0,0.0,0,118.0,1
1473,1473,0.779973178599881,0.8,0.0,0.0,381.0,711.0,0.0,1,1268.0,1
1474,1474,-0.12064749666085484,-0.1,0.0,1.0,270.0,576.0,1.0,0,2404.0,1
1475,1475,0.37750733617727306,0.4,0.0,0.0,329.0,799.0,0.0,1,602.0,1
1476,1476,-0.7231890923485611,-0.7,0.0,1.0,427.0,582.0,1.0,0,1051.0,1
1477,1477,-0.2753504030279791,-0.3,0.0,1.0,463.0,833.0,1.0,0,294.0,1
1478,1478,0.5732833278095174,0.6,0.0,0.0,312.0,945.0,0.0,1,613.0,1
1479,1479,-0.40360235952374696,-0.4,0.0,1.0,398.0,805.0,1.0,0,1057.0,1
1480,1480,0.5211717960271437,0.5,1.0,1.0,466.0,801.0,1.0,1,793.0,1
1481,1481,0.4055861201068639,0.4,1.0,1.0,338.0,544.0,1.0,1,848.0,1
1482,1482,0.29286449082875265,0.3,1.0,1.0,336.0,978.0,0.0,0,266.0,0
1483,1483,-0.8539138441195243,-0.9,0.0,1.0,452.0,636.0,1.0,0,782.0,1
1484,1484,0.7897613794688004,0.8,1.0,1.0,319.0,878.0,1.0,1,443.0,1
1485,1485,-0.3486567991398073,-0.3,0.0,1.0,458.0,786.0,0.0,1,656.0,0
1486,1486,0.8312128202743884,0.8,0.0,0.0,455.0,927.0,0.0,1,838.0,1
1487,1487,-0.598125046204979,-0.6,1.0,0.0,394.0,629.0,0.0,0,607.0,1
1488,1488,0.17619569234411714,0.2,0.0,0.0,304.0,885.0,0.0,1,691.0,1
1489,1489,0.3584983932479492,0.4,0.0,0.0,295.0,711.0,1.0,0,584.0,0
1490,1490,0.865035114471351,0.9,0.0,0.0,489.0,665.0,0.0,1,496.0,1
