,trial,coherence,coherence_bin,green_side,correct_side,target_onset,checker_onset,decision,green_decision,decision_time,correct_decision
0,0,-0.5551121335716338,-0.6,0.0,1.0,382.0,919.0,1.0,0,599.0,1
1,1,-0.1440254621826389,-0.1,0.0,1.0,328.0,658.0,0.0,1,634.0,0
2,2,-0.17059380080567788,-0.2,0.0,1.0,316.0,517.0,0.0,1,1047.0,0
3,3,-0.12345554354204202,-0.1,0.0,1.0,394.0,704.0,0.0,1,422.0,0
4,4,-0.034303895654055006,-0.0,1.0,0.0,401.0,719.0,0.0,0,460.0,1
5,5,-0.14330769019265444,-0.1,1.0,0.0,279.0,718.0,0.0,0,233.0,1
6,6,-0.6444591531873822,-0.6,0.0,1.0,315.0,618.0,1.0,0,577.0,1
7,7,-0.39809363040126244,-0.4,1.0,0.0,357.0,947.0,0.0,0,876.0,1
8,8,-0.8344541271735529,-0.8,0.0,1.0,430.0,514.0,1.0,0,316.0,1
9,9,-0.7461400197277467,-0.7,1.0,0.0,289.0,926.0,0.0,0,-165.0,1
10,10,-0.3099867621541844,-0.3,1.0,0.0,436.0,950.0,0.0,0,344.0,1
11,11,-0.5364796220394685,-0.5,1.0,0.0,335.0,668.0,0.0,0,287.0,1
12,12,-0.6500300513434983,-0.7,1.0,0.0,457.0,770.0,0.0,0,253.0,1
13,13,-0.46987351210495454,-0.5,1.0,0.0,289.0,940.0,0.0,0,361.0,1
14,14,0.7052899927073478,0.7,1.0,1.0,292.0,899.0,0.0,0,-11.0,0
15,15,0.36578489031293826,0.4,0.0,0.0,251.0,582.0,0.0,1,497.0,1
16,16,-0.5961977938152887,-0.6,1.0,0.0,412.0,761.0,0.0,0,387.0,1
17,17,0.4736765679607019,0.5,1.0,1.0,484.0,762.0,1.0,1,1644.0,1
18,18,0.4804227152972588,0.5,0.0,0.0,316.0,654.0,0.0,1,1000.0,1
19,19,0.302406770388841,0.3,0.0,0.0,263.0,526.0,0.0,1,711.0,1
20,20,0.6691399985453131,0.7,1.0,1.0,407.0,823.0,1.0,1,520.0,1
21,21,-0.8725757478458894,-0.9,0.0,1.0,367.0,822.0,1.0,0,401.0,1
22,22,0.5542821931902703,0.6,1.0,1.0,299.0,605.0,1.0,1,356.0,1
23,23,0.8595649486240323,0.9,0.0,0.0,283.0,890.0,0.0,1,287.0,1
24,24,0.19225118871586366,0.2,0.0,0.0,415.0,511.0,0.0,1,664.0,1
25,25,0.7886483271061727,0.8,1.0,1.0,457.0,678.0,1.0,1,305.0,1
26,26,-0.5045620866372623,-0.5,1.0,0.0,441.0,651.0,0.0,0,498.0,1
27,27,0.5868044090324486,0.6,1.0,1.0,461.0,656.0,1.0,1,333.0,1
28,28,-0.8220531798633953,-0.8,1.0,0.0,317.0,692.0,0.0,0,121.0,1
29,29,0.2280887122080545,0.2,1.0,1.0,263.0,870.0,0.0,0,107.0,0
30,30,0.02894488516169913,0.0,0.0,0.0,393.0,514.0,0.0,1,503.0,1
31,31,-0.260143100651708,-0.3,0.0,1.0,331.0,706.0,1.0,0,563.0,1
32,32,0.5488609085327812,0.5,0.0,0.0,477.0,848.0,0.0,1,785.0,1
33,33,-0.3575354199345975,-0.4,1.0,0.0,496.0,556.0,0.0,0,448.0,1
34,34,0.7778740324133416,0.8,1.0,1.0,400.0,765.0,1.0,1,225.0,1
35,35,-0.22274685971734054,-0.2,0.0,1.0,442.0,728.0,1.0,0,200.0,1
36,36,-0.44029813982568083,-0.4,1.0,0.0,309.0,567.0,0.0,0,524.0,1
37,37,0.8218770208159293,0.8,0.0,0.0,407.0,862.0,0.0,1,171.0,1
38,38,0.6466442887025289,0.6,0.0,0.0,447.0,749.0,0.0,1,424.0,1
39,39,0.4827861586134886,0.5,0.0,0.0,403.0,568.0,0.0,1,859.0,1
40,40,-0.7289680462894506,-0.7,1.0,0.0,483.0,954.0,0.0,0,113.0,1
41,41,-0.6025497619889311,-0.6,0.0,1.0,338.0,702.0,1.0,0,740.0,1
42,42,-0.6730000435093696,-0.7,0.0,1.0,392.0,666.0,1.0,0,742.0,1
43,43,-0.7234589905515987,-0.7,0.0,1.0,363.0,916.0,1.0,0,141.0,1
44,44,0.5067500361133658,0.5,0.0,0.0,296.0,821.0,0.0,1,363.0,1
45,45,0.47499426636102526,0.5,1.0,1.0,443.0,901.0,0.0,0,336.0,0
46,46,-0.041277022393980345,-0.0,0.0,1.0,422.0,547.0,0.0,1,771.0,0
47,47,-0.4359117820365092,-0.4,0.0,1.0,411.0,601.0,1.0,0,308.0,1
48,48,0.044861389183163625,0.0,1.0,1.0,348.0,919.0,1.0,1,83.0,1
49,49,0.6520269523314935,0.7,1.0,1.0,429.0,830.0,1.0,1,1851.0,1
50,50,-0.30210464767306655,-0.3,1.0,0.0,386.0,525.0,0.0,0,639.0,1
51,51,-0.14256087184169153,-0.1,0.0,1.0,300.0,694.0,1.0,0,436.0,1
52,52,0.7505405030741418,0.8,1.0,1.0,365.0,948.0,1.0,1,517.0,1
53,53,-0.013927808519124119,-0.0,0.0,1.0,439.0,850.0,0.0,1,771.0,0
54,54,-0.8207498902104002,-0.8,0.0,1.0,305.0,928.0,0.0,1,257.0,0
55,55,0.496409964628466,0.5,1.0,1.0,448.0,771.0,1.0,1,891.0,1
56,56,-0.6781119634357087,-0.7,1.0,0.0,305.0,918.0,0.0,0,147.0,1
57,57,-0.7187327592491123,-0.7,0.0,1.0,472.0,570.0,1.0,0,328.0,1
58,58,0.059678327207650095,0.1,0.0,0.0,488.0,560.0,0.0,1,1512.0,1
59,59,-0.475357974216167,-0.5,1.0,0.0,432.0,776.0,0.0,0,232.0,1
60,60,0.07315196254219336,0.1,0.0,0.0,476.0,958.0,0.0,1,696.0,1
61,61,0.17295601061661647,0.2,0.0,0.0,386.0,849.0,0.0,1,165.0,1
62,62,0.7947149520376445,0.8,0.0,0.0,362.0,549.0,0.0,1,519.0,1
63,63,0.24101929193848293,0.2,1.0,1.0,368.0,774.0,0.0,0,328.0,0
64,64,0.6526701177959876,0.7,1.0,1.0,397.0,677.0,1.0,1,266.0,1
65,65,0.4851710745758874,0.5,1.0,1.0,309.0,659.0,1.0,1,952.0,1
66,66,-0.378124618713935,-0.4,1.0,0.0,489.0,930.0,0.0,0,771.0,1
67,67,-0.444098616880742,-0.4,1.0,0.0,447.0,872.0,0.0,0,281.0,1
68,68,0.38821494995406336,0.4,1.0,1.0,369.0,964.0,0.0,0,517.0,0
69,69,0.8035285193916119,0.8,0.0,0.0,476.0,648.0,0.0,1,426.0,1
70,70,0.12166644192856768,0.1,1.0,1.0,268.0,610.0,1.0,1,1082.0,1
71,71,-0.012070395042571014,-0.0,0.0,1.0,455.0,846.0,0.0,1,159.0,0
72,72,0.10421677714483268,0.1,0.0,0.0,497.0,694.0,0.0,1,429.0,1
73,73,0.13320570916314922,0.1,0.0,0.0,496.0,513.0,0.0,1,741.0,1
74,74,0.750755311392809,0.8,0.0,0.0,435.0,873.0,0.0,1,352.0,1
75,75,-0.07033747478600949,-0.1,0.0,1.0,277.0,809.0,1.0,0,424.0,1
76,76,-0.711746473273698,-0.7,0.0,1.0,345.0,936.0,1.0,0,9.0,1
77,77,0.7906153682813172,0.8,1.0,1.0,431.0,896.0,1.0,1,193.0,1
78,78,0.2730477503590324,0.3,0.0,0.0,265.0,766.0,0.0,1,619.0,1
79,79,0.19543471251524924,0.2,0.0,0.0,251.0,596.0,0.0,1,703.0,1
80,80,0.2014852466030409,0.2,1.0,1.0,468.0,760.0,0.0,0,1382.0,0
81,81,0.31294945336772095,0.3,1.0,1.0,263.0,573.0,1.0,1,334.0,1
82,82,-0.530463591825252,-0.5,1.0,0.0,362.0,761.0,0.0,0,397.0,1
83,83,0.5893522496590752,0.6,0.0,0.0,451.0,572.0,0.0,1,537.0,1
84,84,0.5896911386689848,0.6,1.0,1.0,301.0,814.0,1.0,1,95.0,1
85,85,-0.7294598006256671,-0.7,1.0,0.0,363.0,637.0,0.0,0,500.0,1
86,86,0.2749974740961151,0.3,0.0,0.0,312.0,769.0,0.0,1,469.0,1
87,87,0.41414449327711156,0.4,0.0,0.0,418.0,810.0,0.0,1,222.0,1
88,88,-0.8653182552750466,-0.9,1.0,0.0,442.0,881.0,0.0,0,287.0,1
89,89,0.30504732631205134,0.3,1.0,1.0,301.0,779.0,0.0,0,490.0,0
90,90,0.3051394979846892,0.3,0.0,0.0,374.0,904.0,0.0,1,642.0,1
91,91,0.7515096009049035,0.8,1.0,1.0,434.0,677.0,1.0,1,489.0,1
92,92,0.4718025360424022,0.5,0.0,0.0,491.0,516.0,0.0,1,683.0,1
93,93,0.44455019004928664,0.4,0.0,0.0,412.0,888.0,0.0,1,150.0,1
94,94,-0.31157055398907385,-0.3,0.0,1.0,480.0,648.0,1.0,0,652.0,1
95,95,0.7122148731564998,0.7,1.0,1.0,379.0,837.0,1.0,1,244.0,1
96,96,-0.047122442436201784,-0.0,0.0,1.0,279.0,836.0,0.0,1,505.0,0
97,97,0.8683983666702487,0.9,1.0,1.0,251.0,917.0,1.0,1,122.0,1
98,98,0.48090863775364856,0.5,0.0,0.0,260.0,811.0,0.0,1,289.0,1
99,99,0.7266664274716182,0.7,1.0,1.0,282.0,808.0,1.0,1,960.0,1
100,100,-0.5439201235093454,-0.5,0.0,1.0,394.0,504.0,1.0,0,442.0,1
101,101,0.8162768555994387,0.8,0.0,0.0,332.0,608.0,0.0,1,290.0,1
102,102,0.6365819779247558,0.6,0.0,0.0,462.0,846.0,0.0,1,892.0,1
103,103,-0.22509935882663268,-0.2,1.0,0.0,400.0,516.0,0.0,0,794.0,1
104,104,0.14166380341737483,0.1,1.0,1.0,308.0,704.0,0.0,0,748.0,0
105,105,0.7951641154008521,0.8,1.0,1.0,398.0,598.0,1.0,1,644.0,1
106,106,-0.4641640141431693,-0.5,1.0,0.0,293.0,544.0,0.0,0,763.0,1
107,107,-0.8597006932134035,-0.9,1.0,0.0,370.0,505.0,0.0,0,355.0,1
108,108,-0.13181321838372395,-0.1,1.0,0.0,360.0,798.0,0.0,0,672.0,1
109,109,-0.4690852563508153,-0.5,0.0,1.0,399.0,599.0,1.0,0,742.0,1
110,110,0.24364212432633037,0.2,1.0,1.0,256.0,800.0,1.0,1,564.0,1
111,111,0.6517542609958055,0.7,0.0,0.0,325.0,990.0,0.0,1,15.0,1
112,112,-0.6015053571824878,-0.6,1.0,0.0,290.0,951.0,0.0,0,109.0,1
113,113,-0.10677655483750925,-0.1,1.0,0.0,463.0,598.0,0.0,0,479.0,1
114,114,-0.6288753233060698,-0.6,1.0,0.0,294.0,701.0,0.0,0,325.0,1
115,115,-0.1758187668141028,-0.2,1.0,0.0,385.0,601.0,0.0,0,524.0,1
116,116,0.5405500688952792,0.5,0.0,0.0,275.0,786.0,0.0,1,789.0,1
117,117,-0.7065879279243421,-0.7,1.0,0.0,327.0,981.0,0.0,0,82.0,1
118,118,-0.0073207394708892926,-0.0,0.0,1.0,417.0,525.0,0.0,1,698.0,0
119,119,-0.3701837663483697,-0.4,1.0,0.0,271.0,937.0,1.0,1,272.0,0
120,120,-0.831360239608506,-0.8,1.0,0.0,496.0,601.0,0.0,0,343.0,1
121,121,-0.26569658321257905,-0.3,1.0,0.0,253.0,580.0,0.0,0,467.0,1
122,122,0.8958686000194521,0.9,1.0,1.0,285.0,920.0,1.0,1,65.0,1
123,123,-0.7812994841627886,-0.8,1.0,0.0,297.0,574.0,0.0,0,479.0,1
124,124,0.6926172332980517,0.7,0.0,0.0,320.0,971.0,0.0,1,-21.0,1
125,125,-0.8600254131696284,-0.9,0.0,1.0,391.0,728.0,1.0,0,221.0,1
126,126,0.8990468392278322,0.9,1.0,1.0,317.0,718.0,1.0,1,415.0,1
127,127,0.5818760083412801,0.6,1.0,1.0,476.0,902.0,1.0,1,742.0,1
128,128,0.8178409576224127,0.8,0.0,0.0,499.0,583.0,0.0,1,358.0,1
129,129,-0.366552700865196,-0.4,0.0,1.0,259.0,743.0,1.0,0,548.0,1
130,130,-0.3575391378161743,-0.4,0.0,1.0,429.0,910.0,1.0,0,371.0,1
131,131,0.7145488359081694,0.7,0.0,0.0,281.0,674.0,0.0,1,365.0,1
132,132,-0.3446442486873331,-0.3,1.0,0.0,285.0,593.0,0.0,0,1042.0,1
133,133,-0.41411122921264937,-0.4,0.0,1.0,464.0,930.0,0.0,1,336.0,0
134,134,-0.7238106383477287,-0.7,1.0,0.0,293.0,568.0,0.0,0,259.0,1
135,135,0.4905075050368962,0.5,1.0,1.0,451.0,886.0,1.0,1,293.0,1
136,136,0.42825418467713605,0.4,1.0,1.0,486.0,713.0,1.0,1,431.0,1
137,137,0.31082332711985516,0.3,1.0,1.0,471.0,786.0,1.0,1,243.0,1
138,138,-0.1815130348481554,-0.2,1.0,0.0,293.0,987.0,0.0,0,-110.0,1
139,139,-0.10364234676745643,-0.1,1.0,0.0,497.0,991.0,0.0,0,312.0,1
140,140,0.7553359061204569,0.8,0.0,0.0,329.0,678.0,0.0,1,343.0,1
141,141,-0.5488507301858421,-0.5,1.0,0.0,395.0,811.0,1.0,1,134.0,0
142,142,-0.5597714745386475,-0.6,1.0,0.0,289.0,955.0,0.0,0,286.0,1
143,143,0.17062340295193146,0.2,0.0,0.0,360.0,545.0,0.0,1,555.0,1
144,144,0.2653017313866929,0.3,1.0,1.0,477.0,524.0,0.0,0,509.0,0
145,145,-0.7578402000036172,-0.8,1.0,0.0,299.0,710.0,0.0,0,251.0,1
146,146,0.4382703078617215,0.4,1.0,1.0,282.0,621.0,1.0,1,637.0,1
147,147,0.8510388270807702,0.9,0.0,0.0,414.0,629.0,0.0,1,547.0,1
148,148,-0.8331082061434599,-0.8,1.0,0.0,399.0,602.0,0.0,0,539.0,1
149,149,-0.38046684626031735,-0.4,0.0,1.0,373.0,504.0,1.0,0,783.0,1
150,150,0.8857834280067277,0.9,0.0,0.0,470.0,687.0,0.0,1,273.0,1
151,151,0.10412285125854537,0.1,0.0,0.0,347.0,983.0,0.0,1,880.0,1
152,152,0.4732184476227411,0.5,0.0,0.0,305.0,824.0,0.0,1,461.0,1
153,153,0.4066207820579594,0.4,0.0,0.0,450.0,942.0,0.0,1,178.0,1
154,154,-0.24710391475305382,-0.2,0.0,1.0,256.0,973.0,1.0,0,771.0,1
155,155,-0.43100571178142066,-0.4,0.0,1.0,412.0,860.0,1.0,0,418.0,1
156,156,0.6127911727092935,0.6,1.0,1.0,297.0,523.0,1.0,1,870.0,1
157,157,0.18871214897513122,0.2,1.0,1.0,443.0,504.0,1.0,1,313.0,1
158,158,-0.7604411973869194,-0.8,0.0,1.0,291.0,950.0,1.0,0,349.0,1
159,159,-0.07416701724246055,-0.1,0.0,1.0,463.0,820.0,1.0,0,87.0,1
160,160,0.11916754321302558,0.1,0.0,0.0,399.0,915.0,0.0,1,416.0,1
161,161,-0.592834564899388,-0.6,1.0,0.0,421.0,619.0,0.0,0,160.0,1
162,162,0.3866228341889434,0.4,0.0,0.0,309.0,929.0,0.0,1,242.0,1
163,163,-0.027601303808234334,-0.0,0.0,1.0,329.0,608.0,1.0,0,1333.0,1
164,164,0.08855681458535059,0.1,1.0,1.0,339.0,815.0,1.0,1,336.0,1
165,165,-0.8234059400172147,-0.8,1.0,0.0,301.0,924.0,0.0,0,135.0,1
166,166,0.4990310111121644,0.5,1.0,1.0,374.0,840.0,1.0,1,556.0,1
167,167,0.5262590759637605,0.5,0.0,0.0,376.0,971.0,0.0,1,473.0,1
168,168,-0.8045535712711652,-0.8,0.0,1.0,286.0,747.0,1.0,0,107.0,1
169,169,-0.4202869134709149,-0.4,0.0,1.0,361.0,685.0,1.0,0,454.0,1
170,170,0.3255619023170827,0.3,0.0,0.0,445.0,598.0,0.0,1,467.0,1
171,171,0.5999030267760536,0.6,0.0,0.0,284.0,713.0,0.0,1,173.0,1
172,172,0.35432275362064336,0.4,1.0,1.0,394.0,844.0,0.0,0,122.0,0
173,173,-0.8548665051668902,-0.9,0.0,1.0,395.0,993.0,1.0,0,162.0,1
174,174,0.6335395852612561,0.6,0.0,0.0,424.0,500.0,0.0,1,606.0,1
175,175,0.36373881393395,0.4,1.0,1.0,453.0,946.0,0.0,0,711.0,0
176,176,-0.8356752982217881,-0.8,0.0,1.0,426.0,705.0,1.0,0,249.0,1
177,177,-0.5088040078623064,-0.5,1.0,0.0,446.0,852.0,0.0,0,222.0,1
178,178,-0.10409059279767885,-0.1,1.0,0.0,422.0,501.0,0.0,0,417.0,1
179,179,0.00937957323569838,0.0,0.0,0.0,383.0,771.0,1.0,0,246.0,0
180,180,-0.6954303433296027,-0.7,0.0,1.0,370.0,892.0,1.0,0,358.0,1
181,181,-0.24024449820461846,-0.2,0.0,1.0,476.0,753.0,1.0,0,911.0,1
182,182,0.3218899110077146,0.3,0.0,0.0,391.0,933.0,1.0,0,416.0,0
183,183,-0.37915351586752777,-0.4,1.0,0.0,399.0,692.0,0.0,0,729.0,1
184,184,-0.13612841665564834,-0.1,0.0,1.0,301.0,580.0,1.0,0,569.0,1
185,185,-0.10424350659983794,-0.1,1.0,0.0,355.0,763.0,0.0,0,162.0,1
186,186,0.8082640625974998,0.8,0.0,0.0,445.0,813.0,0.0,1,172.0,1
187,187,-0.8226439351772135,-0.8,1.0,0.0,341.0,565.0,0.0,0,424.0,1
188,188,0.7141713054950841,0.7,1.0,1.0,378.0,944.0,0.0,0,28.0,0
189,189,0.1431283707423302,0.1,1.0,1.0,483.0,527.0,1.0,1,970.0,1
190,190,0.8032330157938906,0.8,0.0,0.0,346.0,812.0,1.0,0,12.0,0
191,191,0.6635807281679297,0.7,0.0,0.0,447.0,970.0,0.0,1,413.0,1
192,192,0.7687636546683084,0.8,0.0,0.0,359.0,773.0,0.0,1,218.0,1
193,193,0.34469112880234964,0.3,0.0,0.0,312.0,963.0,0.0,1,185.0,1
194,194,-0.5877043481543704,-0.6,1.0,0.0,414.0,888.0,0.0,0,308.0,1
195,195,-0.5512364035621484,-0.6,0.0,1.0,499.0,871.0,1.0,0,240.0,1
196,196,0.027705859616157458,0.0,1.0,1.0,448.0,968.0,0.0,0,514.0,0
197,197,-0.27322920320129884,-0.3,0.0,1.0,314.0,654.0,0.0,1,432.0,0
198,198,-0.178873080845814,-0.2,1.0,0.0,462.0,627.0,0.0,0,911.0,1
199,199,-0.3600522312213408,-0.4,1.0,0.0,260.0,857.0,0.0,0,333.0,1
200,200,0.2681914496053853,0.3,0.0,0.0,307.0,942.0,0.0,1,451.0,1
201,201,-0.27496825260223956,-0.3,0.0,1.0,279.0,686.0,1.0,0,535.0,1
202,202,0.5188323708786452,0.5,0.0,0.0,429.0,841.0,0.0,1,1000.0,1
203,203,-0.8294516274121005,-0.8,1.0,0.0,345.0,757.0,0.0,0,448.0,1
204,204,0.08749672877669568,0.1,1.0,1.0,364.0,722.0,1.0,1,724.0,1
205,205,0.3293463765574992,0.3,0.0,0.0,303.0,854.0,0.0,1,603.0,1
206,206,-0.6313169742034574,-0.6,0.0,1.0,294.0,822.0,1.0,0,244.0,1
207,207,-0.8332217868680133,-0.8,1.0,0.0,350.0,760.0,0.0,0,400.0,1
208,208,0.3352100669875441,0.3,1.0,1.0,302.0,664.0,1.0,1,354.0,1
209,209,0.6800037245963776,0.7,0.0,0.0,441.0,707.0,0.0,1,602.0,1
210,210,0.8446858438195674,0.8,0.0,0.0,304.0,716.0,0.0,1,320.0,1
211,211,0.8677647048170217,0.9,1.0,1.0,295.0,819.0,1.0,1,266.0,1
212,212,0.8631342950260602,0.9,0.0,0.0,483.0,579.0,0.0,1,408.0,1
213,213,0.8949134589808155,0.9,0.0,0.0,367.0,986.0,0.0,1,357.0,1
214,214,0.4917179257545613,0.5,0.0,0.0,282.0,631.0,0.0,1,237.0,1
215,215,-0.1714798672151404,-0.2,1.0,0.0,295.0,716.0,0.0,0,249.0,1
216,216,-0.26875102514348836,-0.3,1.0,0.0,364.0,860.0,0.0,0,296.0,1
217,217,-0.8240679863874639,-0.8,1.0,0.0,462.0,751.0,0.0,0,357.0,1
218,218,-0.44674640113096153,-0.4,0.0,1.0,314.0,928.0,1.0,0,-62.0,1
219,219,0.723448689827075,0.7,1.0,1.0,471.0,760.0,1.0,1,359.0,1
220,220,-0.036466192494854166,-0.0,0.0,1.0,427.0,545.0,1.0,0,448.0,1
221,221,-0.07294859789183417,-0.1,1.0,0.0,475.0,662.0,0.0,0,123.0,1
222,222,0.06467865021299235,0.1,1.0,1.0,429.0,887.0,0.0,0,444.0,0
223,223,0.47549241592870695,0.5,1.0,1.0,446.0,624.0,1.0,1,420.0,1
224,224,0.5659717157013867,0.6,0.0,0.0,426.0,515.0,0.0,1,549.0,1
225,225,-0.6522793424857343,-0.7,1.0,0.0,439.0,885.0,0.0,0,166.0,1
226,226,0.4471462752715675,0.4,0.0,0.0,331.0,692.0,0.0,1,-13.0,1
227,227,0.6130298359808272,0.6,0.0,0.0,383.0,595.0,0.0,1,412.0,1
228,228,-0.6814446988270113,-0.7,0.0,1.0,475.0,978.0,1.0,0,577.0,1
229,229,0.3558073080163485,0.4,1.0,1.0,327.0,526.0,1.0,1,807.0,1
230,230,-0.7558499213247338,-0.8,1.0,0.0,252.0,915.0,0.0,0,143.0,1
231,231,-0.5967649399159202,-0.6,0.0,1.0,471.0,939.0,0.0,1,50.0,0
232,232,-0.37203147067808073,-0.4,1.0,0.0,420.0,976.0,0.0,0,204.0,1
233,233,0.5764747288937503,0.6,0.0,0.0,310.0,943.0,0.0,1,117.0,1
234,234,0.8963700601668761,0.9,0.0,0.0,318.0,656.0,0.0,1,636.0,1
235,235,-0.1754476341518515,-0.2,0.0,1.0,493.0,842.0,0.0,1,195.0,0
236,236,-0.7540662196367152,-0.8,0.0,1.0,385.0,630.0,1.0,0,925.0,1
237,237,-0.2725839043684699,-0.3,1.0,0.0,285.0,572.0,0.0,0,563.0,1
238,238,0.7680081491329765,0.8,1.0,1.0,277.0,599.0,1.0,1,574.0,1
239,239,-0.13873130789604748,-0.1,0.0,1.0,497.0,979.0,0.0,1,-136.0,0
240,240,0.4067394538526775,0.4,1.0,1.0,382.0,531.0,1.0,1,547.0,1
241,241,-0.7162973357886184,-0.7,1.0,0.0,373.0,527.0,0.0,0,630.0,1
242,242,0.1427069848110184,0.1,0.0,0.0,351.0,971.0,0.0,1,98.0,1
243,243,-0.861115250498267,-0.9,0.0,1.0,433.0,940.0,1.0,0,57.0,1
244,244,0.4216287904153161,0.4,0.0,0.0,277.0,659.0,0.0,1,644.0,1
245,245,-0.7729936672305531,-0.8,0.0,1.0,359.0,631.0,1.0,0,320.0,1
246,246,-0.45227087735325033,-0.5,1.0,0.0,377.0,902.0,0.0,0,-79.0,1
247,247,0.8577472615613994,0.9,0.0,0.0,376.0,751.0,0.0,1,143.0,1
248,248,0.4116633925586234,0.4,0.0,0.0,273.0,793.0,0.0,1,514.0,1
249,249,0.7650719501323237,0.8,0.0,0.0,288.0,768.0,0.0,1,554.0,1
250,250,-0.09434094874780685,-0.1,1.0,0.0,391.0,502.0,0.0,0,1187.0,1
251,251,-0.43344743005179825,-0.4,0.0,1.0,362.0,726.0,1.0,0,132.0,1
252,252,-0.037966058405192404,-0.0,0.0,1.0,364.0,739.0,0.0,1,507.0,0
253,253,-0.46466820080473603,-0.5,0.0,1.0,411.0,636.0,1.0,0,1133.0,1
254,254,0.7070687484256318,0.7,1.0,1.0,323.0,682.0,1.0,1,515.0,1
255,255,-0.6860080031061675,-0.7,0.0,1.0,290.0,998.0,1.0,0,452.0,1
256,256,-0.30382789093661455,-0.3,1.0,0.0,392.0,767.0,0.0,0,221.0,1
257,257,0.2704799358419375,0.3,0.0,0.0,428.0,877.0,0.0,1,805.0,1
258,258,0.6434609276039697,0.6,1.0,1.0,400.0,504.0,1.0,1,506.0,1
259,259,-0.17896353197361636,-0.2,1.0,0.0,364.0,862.0,0.0,0,44.0,1
260,260,-0.028129616930965384,-0.0,1.0,0.0,375.0,620.0,1.0,1,795.0,0
261,261,0.13807342558877334,0.1,0.0,0.0,351.0,743.0,0.0,1,1506.0,1
262,262,-0.8558742494033371,-0.9,0.0,1.0,451.0,503.0,1.0,0,596.0,1
263,263,-0.5371961503484348,-0.5,1.0,0.0,261.0,808.0,0.0,0,251.0,1
264,264,-0.49408692282073047,-0.5,1.0,0.0,402.0,627.0,0.0,0,691.0,1
265,265,0.6477810565180829,0.6,1.0,1.0,426.0,623.0,1.0,1,581.0,1
266,266,-0.5652336268274449,-0.6,0.0,1.0,281.0,933.0,1.0,0,336.0,1
267,267,-0.7773150011094572,-0.8,0.0,1.0,424.0,552.0,1.0,0,304.0,1
268,268,-0.18825352901522208,-0.2,0.0,1.0,488.0,518.0,0.0,1,494.0,0
269,269,0.5200150148627717,0.5,0.0,0.0,391.0,747.0,0.0,1,422.0,1
270,270,-0.5286326121129494,-0.5,1.0,0.0,394.0,733.0,0.0,0,53.0,1
271,271,0.6307257713078233,0.6,1.0,1.0,398.0,502.0,1.0,1,340.0,1
272,272,-0.6422337211930491,-0.6,1.0,0.0,251.0,968.0,0.0,0,21.0,1
273,273,0.45693487625893037,0.5,1.0,1.0,344.0,523.0,1.0,1,473.0,1
274,274,0.35825529980435367,0.4,0.0,0.0,347.0,986.0,0.0,1,7.0,1
275,275,0.4108023931889214,0.4,1.0,1.0,268.0,891.0,1.0,1,311.0,1
276,276,0.8704726268649564,0.9,1.0,1.0,343.0,668.0,1.0,1,469.0,1
277,277,0.10386426441365304,0.1,1.0,1.0,285.0,646.0,0.0,0,919.0,0
278,278,0.43551932140238747,0.4,1.0,1.0,400.0,925.0,0.0,0,995.0,0
279,279,-0.6172729665277621,-0.6,0.0,1.0,476.0,607.0,1.0,0,417.0,1
280,280,-0.20392022985956015,-0.2,0.0,1.0,395.0,868.0,1.0,0,1017.0,1
281,281,-0.4255581525957172,-0.4,0.0,1.0,256.0,978.0,0.0,1,656.0,0
282,282,-0.013700009258332368,-0.0,0.0,1.0,499.0,615.0,1.0,0,2006.0,1
283,283,0.1999567337397511,0.2,0.0,0.0,321.0,854.0,0.0,1,-5.0,1
284,284,0.4186749452699351,0.4,0.0,0.0,303.0,984.0,0.0,1,243.0,1
285,285,0.7370673168892802,0.7,0.0,0.0,408.0,991.0,0.0,1,91.0,1
286,286,0.6210403323146673,0.6,1.0,1.0,374.0,835.0,1.0,1,281.0,1
287,287,-0.681430781308793,-0.7,0.0,1.0,443.0,967.0,1.0,0,280.0,1
288,288,0.4571891340167932,0.5,1.0,1.0,307.0,844.0,1.0,1,359.0,1
289,289,0.19579757559740718,0.2,0.0,0.0,455.0,788.0,0.0,1,467.0,1
290,290,0.45871285258282335,0.5,0.0,0.0,488.0,570.0,0.0,1,612.0,1
291,291,0.2023158872263079,0.2,0.0,0.0,288.0,772.0,0.0,1,560.0,1
292,292,-0.05661046409134951,-0.1,1.0,0.0,336.0,741.0,1.0,1,393.0,0
293,293,-0.0793918416868723,-0.1,1.0,0.0,337.0,543.0,0.0,0,390.0,1
294,294,0.41095150502101785,0.4,1.0,1.0,300.0,887.0,1.0,1,473.0,1
295,295,-0.505688631918294,-0.5,0.0,1.0,426.0,812.0,1.0,0,472.0,1
296,296,0.8685171583329295,0.9,1.0,1.0,298.0,866.0,1.0,1,286.0,1
297,297,0.08219390095966972,0.1,1.0,1.0,388.0,881.0,0.0,0,11.0,0
298,298,-0.5947442515183627,-0.6,1.0,0.0,380.0,637.0,0.0,0,613.0,1
299,299,-0.18735400030823257,-0.2,1.0,0.0,464.0,628.0,0.0,0,708.0,1
300,300,0.6738703035091381,0.7,1.0,1.0,280.0,766.0,1.0,1,394.0,1
301,301,0.3407714145121622,0.3,1.0,1.0,424.0,646.0,1.0,1,800.0,1
302,302,-0.405610095815126,-0.4,1.0,0.0,429.0,686.0,0.0,0,375.0,1
303,303,-0.780337441553789,-0.8,0.0,1.0,498.0,580.0,1.0,0,332.0,1
304,304,0.06914745868154026,0.1,1.0,1.0,259.0,885.0,1.0,1,586.0,1
305,305,-0.24450537281174312,-0.2,0.0,1.0,267.0,785.0,1.0,0,538.0,1
306,306,-0.4785708131693462,-0.5,0.0,1.0,255.0,606.0,1.0,0,989.0,1
307,307,-0.03877578627336764,-0.0,1.0,0.0,390.0,686.0,0.0,0,564.0,1
308,308,0.6997688303962563,0.7,1.0,1.0,341.0,992.0,0.0,0,307.0,0
309,309,-0.34587204865749976,-0.3,0.0,1.0,325.0,911.0,1.0,0,1104.0,1
310,310,-0.33698069028257294,-0.3,1.0,0.0,259.0,736.0,0.0,0,365.0,1
311,311,0.7574435598771375,0.8,1.0,1.0,365.0,590.0,1.0,1,515.0,1
312,312,-0.41089437135678175,-0.4,0.0,1.0,253.0,867.0,1.0,0,680.0,1
313,313,0.7567095251184243,0.8,1.0,1.0,490.0,635.0,1.0,1,465.0,1
314,314,0.45708745505747184,0.5,1.0,1.0,471.0,816.0,1.0,1,423.0,1
315,315,0.0189972568482224,0.0,0.0,0.0,415.0,893.0,1.0,0,542.0,0
316,316,0.2954540203771284,0.3,0.0,0.0,287.0,667.0,0.0,1,656.0,1
317,317,-0.7211990873477779,-0.7,1.0,0.0,361.0,811.0,0.0,0,98.0,1
318,318,-0.23593891315961424,-0.2,0.0,1.0,328.0,964.0,0.0,1,78.0,0
319,319,0.6434169557853796,0.6,0.0,0.0,472.0,559.0,0.0,1,389.0,1
320,320,-0.3140506986453616,-0.3,1.0,0.0,478.0,655.0,1.0,1,947.0,0
321,321,0.4922234742288837,0.5,1.0,1.0,311.0,851.0,1.0,1,358.0,1
322,322,0.5528032928792531,0.6,0.0,0.0,252.0,742.0,0.0,1,406.0,1
323,323,0.39393173761528455,0.4,1.0,1.0,473.0,853.0,1.0,1,584.0,1
324,324,-0.24951419532177244,-0.2,1.0,0.0,275.0,606.0,0.0,0,239.0,1
325,325,-0.4421838053602956,-0.4,1.0,0.0,493.0,876.0,0.0,0,201.0,1
326,326,-0.36678280630779436,-0.4,1.0,0.0,412.0,984.0,0.0,0,124.0,1
327,327,-0.4207342904350016,-0.4,1.0,0.0,447.0,875.0,0.0,0,-42.0,1
328,328,0.22854728765269383,0.2,1.0,1.0,370.0,692.0,0.0,0,608.0,0
329,329,-0.8388211241673291,-0.8,0.0,1.0,456.0,808.0,1.0,0,16.0,1
330,330,-0.38944589786727246,-0.4,0.0,1.0,369.0,603.0,1.0,0,678.0,1
331,331,-0.3557595354520646,-0.4,0.0,1.0,284.0,531.0,0.0,1,965.0,0
332,332,-0.43601327543934204,-0.4,0.0,1.0,252.0,808.0,1.0,0,1110.0,1
333,333,-0.36437070859414655,-0.4,0.0,1.0,369.0,557.0,0.0,1,1264.0,0
334,334,-0.6168880043345789,-0.6,1.0,0.0,282.0,829.0,0.0,0,439.0,1
335,335,0.6913109257808899,0.7,0.0,0.0,402.0,765.0,0.0,1,353.0,1
336,336,0.25821343475057035,0.3,1.0,1.0,486.0,555.0,0.0,0,749.0,0
337,337,0.3639592749864714,0.4,1.0,1.0,434.0,500.0,1.0,1,1386.0,1
338,338,0.7750368572576184,0.8,0.0,0.0,424.0,640.0,0.0,1,666.0,1
339,339,0.06846787695099077,0.1,0.0,0.0,434.0,715.0,0.0,1,391.0,1
340,340,-0.8426726010684723,-0.8,1.0,0.0,407.0,543.0,0.0,0,290.0,1
341,341,-0.8875768813875723,-0.9,0.0,1.0,415.0,522.0,1.0,0,223.0,1
342,342,-0.35944864684163513,-0.4,1.0,0.0,406.0,585.0,0.0,0,919.0,1
343,343,0.6572704821337824,0.7,0.0,0.0,259.0,936.0,0.0,1,525.0,1
344,344,-0.4262936383228915,-0.4,1.0,0.0,376.0,780.0,0.0,0,364.0,1
345,345,0.8884388142622773,0.9,1.0,1.0,397.0,689.0,1.0,1,414.0,1
346,346,-0.5507444008935735,-0.6,0.0,1.0,262.0,656.0,1.0,0,342.0,1
347,347,0.08696175342101398,0.1,1.0,1.0,286.0,903.0,1.0,1,51.0,1
348,348,-0.7718772133389269,-0.8,0.0,1.0,344.0,894.0,1.0,0,212.0,1
349,349,0.3846327555235217,0.4,1.0,1.0,483.0,751.0,0.0,0,586.0,0
350,350,0.06842557189989307,0.1,1.0,1.0,262.0,570.0,0.0,0,628.0,0
351,351,0.08986796450293355,0.1,0.0,0.0,356.0,842.0,0.0,1,392.0,1
352,352,0.6639483782561001,0.7,0.0,0.0,402.0,976.0,0.0,1,202.0,1
353,353,-0.2754893006661234,-0.3,0.0,1.0,395.0,538.0,1.0,0,417.0,1
354,354,-0.6055575233365154,-0.6,1.0,0.0,322.0,866.0,0.0,0,682.0,1
355,355,0.5343648821978505,0.5,1.0,1.0,368.0,943.0,1.0,1,19.0,1
356,356,-0.5173763909188435,-0.5,1.0,0.0,464.0,533.0,0.0,0,823.0,1
357,357,-0.26809769059502153,-0.3,0.0,1.0,256.0,606.0,1.0,0,928.0,1
358,358,0.4379100613243895,0.4,0.0,0.0,306.0,520.0,0.0,1,444.0,1
359,359,0.41937406775215724,0.4,0.0,0.0,384.0,931.0,0.0,1,-45.0,1
360,360,-0.3364075295350768,-0.3,0.0,1.0,341.0,919.0,0.0,1,300.0,0
361,361,0.6786617852536471,0.7,0.0,0.0,426.0,762.0,0.0,1,332.0,1
362,362,0.019477453572208647,0.0,0.0,0.0,324.0,762.0,0.0,1,374.0,1
363,363,-0.24218794436097146,-0.2,1.0,0.0,364.0,889.0,0.0,0,227.0,1
364,364,-0.6245372814235798,-0.6,1.0,0.0,467.0,696.0,0.0,0,447.0,1
365,365,-0.4874952798766301,-0.5,0.0,1.0,434.0,505.0,1.0,0,641.0,1
366,366,0.4614830479501605,0.5,0.0,0.0,460.0,671.0,0.0,1,279.0,1
367,367,0.7654046100201856,0.8,1.0,1.0,271.0,747.0,1.0,1,532.0,1
368,368,0.7161277598718304,0.7,0.0,0.0,477.0,622.0,0.0,1,421.0,1
369,369,0.7282535635819428,0.7,1.0,1.0,292.0,551.0,1.0,1,497.0,1
370,370,-0.06972673855584643,-0.1,0.0,1.0,292.0,635.0,1.0,0,813.0,1
371,371,0.4162722446882333,0.4,1.0,1.0,463.0,800.0,1.0,1,517.0,1
372,372,0.7989540098631359,0.8,0.0,0.0,376.0,955.0,0.0,1,49.0,1
373,373,-0.38777077435023755,-0.4,0.0,1.0,406.0,513.0,1.0,0,941.0,1
374,374,-0.6812136516926441,-0.7,1.0,0.0,453.0,710.0,0.0,0,237.0,1
375,375,0.774126196530229,0.8,0.0,0.0,428.0,648.0,0.0,1,394.0,1
376,376,-0.5921672197239858,-0.6,0.0,1.0,353.0,591.0,1.0,0,776.0,1
377,377,-0.24172148488374634,-0.2,0.0,1.0,476.0,944.0,0.0,1,110.0,0
378,378,0.04196558556563512,0.0,0.0,0.0,483.0,645.0,0.0,1,782.0,1
379,379,0.28697702018377746,0.3,0.0,0.0,389.0,677.0,0.0,1,1034.0,1
380,380,-0.5956743401868219,-0.6,1.0,0.0,492.0,561.0,0.0,0,477.0,1
381,381,0.06186175414366235,0.1,0.0,0.0,483.0,848.0,0.0,1,299.0,1
382,382,0.030960359537909654,0.0,0.0,0.0,262.0,621.0,0.0,1,497.0,1
383,383,-0.42114439843122864,-0.4,0.0,1.0,494.0,775.0,1.0,0,321.0,1
384,384,0.39231759240400155,0.4,1.0,1.0,344.0,514.0,1.0,1,1652.0,1
385,385,-0.7447968736354822,-0.7,0.0,1.0,396.0,938.0,1.0,0,356.0,1
386,386,0.3480077057072709,0.3,1.0,1.0,289.0,516.0,1.0,1,505.0,1
387,387,0.4363804628590001,0.4,0.0,0.0,393.0,713.0,0.0,1,854.0,1
388,388,0.8248309197494973,0.8,0.0,0.0,342.0,535.0,0.0,1,383.0,1
389,389,0.09270841114207962,0.1,1.0,1.0,274.0,994.0,0.0,0,12.0,0
390,390,-0.01779318608123348,-0.0,1.0,0.0,429.0,603.0,0.0,0,1188.0,1
391,391,-0.8517163897614596,-0.9,0.0,1.0,378.0,715.0,1.0,0,467.0,1
392,392,0.6348230565636414,0.6,1.0,1.0,466.0,829.0,1.0,1,475.0,1
393,393,0.8333613445473694,0.8,1.0,1.0,489.0,826.0,1.0,1,385.0,1
394,394,-0.07837516399701461,-0.1,1.0,0.0,390.0,534.0,0.0,0,456.0,1
395,395,-0.7945031446591978,-0.8,1.0,0.0,312.0,778.0,0.0,0,140.0,1
396,396,-0.1616628812608234,-0.2,0.0,1.0,378.0,782.0,0.0,1,440.0,0
397,397,-0.11660535777859327,-0.1,0.0,1.0,274.0,531.0,1.0,0,535.0,1
398,398,0.6958626799986755,0.7,0.0,0.0,369.0,669.0,0.0,1,452.0,1
399,399,-0.673468228943924,-0.7,0.0,1.0,250.0,928.0,1.0,0,282.0,1
400,400,-0.5024233937853162,-0.5,1.0,0.0,320.0,837.0,0.0,0,243.0,1
401,401,0.819306472607141,0.8,0.0,0.0,320.0,660.0,0.0,1,590.0,1
402,402,0.008132236730710396,0.0,0.0,0.0,431.0,771.0,0.0,1,1658.0,1
403,403,-0.09845490616303432,-0.1,0.0,1.0,491.0,741.0,1.0,0,538.0,1
404,404,0.4325574285120951,0.4,0.0,0.0,342.0,867.0,0.0,1,551.0,1
405,405,-0.6295746727622695,-0.6,1.0,0.0,332.0,946.0,0.0,0,92.0,1
406,406,0.3700605883714184,0.4,0.0,0.0,392.0,544.0,0.0,1,464.0,1
407,407,-0.5018004931161929,-0.5,0.0,1.0,475.0,630.0,1.0,0,725.0,1
408,408,0.2432881211365091,0.2,0.0,0.0,366.0,574.0,0.0,1,370.0,1
409,409,0.4596899016270547,0.5,1.0,1.0,355.0,761.0,1.0,1,294.0,1
410,410,0.44263470229317436,0.4,1.0,1.0,368.0,952.0,1.0,1,770.0,1
411,411,-0.8889004213303344,-0.9,1.0,0.0,447.0,953.0,0.0,0,190.0,1
412,412,0.6345462085436314,0.6,0.0,0.0,437.0,683.0,0.0,1,450.0,1
413,413,0.7705743383637312,0.8,0.0,0.0,401.0,942.0,0.0,1,257.0,1
414,414,0.8848290183394444,0.9,0.0,0.0,295.0,630.0,0.0,1,465.0,1
415,415,-0.7061403488628718,-0.7,1.0,0.0,270.0,783.0,0.0,0,297.0,1
416,416,-0.6204993984773635,-0.6,0.0,1.0,483.0,749.0,1.0,0,1838.0,1
417,417,0.4573133786697655,0.5,1.0,1.0,317.0,565.0,1.0,1,1038.0,1
418,418,-0.2101069814459754,-0.2,1.0,0.0,405.0,665.0,1.0,1,850.0,0
419,419,0.4323870787293932,0.4,1.0,1.0,407.0,762.0,0.0,0,181.0,0
420,420,0.7583574343146801,0.8,0.0,0.0,327.0,570.0,0.0,1,583.0,1
421,421,0.6937360956681745,0.7,1.0,1.0,316.0,919.0,0.0,0,-125.0,0
422,422,0.32729719548482594,0.3,1.0,1.0,470.0,765.0,1.0,1,305.0,1
423,423,-0.4817913292713896,-0.5,1.0,0.0,392.0,672.0,0.0,0,216.0,1
424,424,0.582902420393742,0.6,0.0,0.0,269.0,503.0,0.0,1,338.0,1
425,425,-0.4482615948834945,-0.4,1.0,0.0,330.0,619.0,0.0,0,181.0,1
426,426,-0.5839710365146539,-0.6,0.0,1.0,392.0,880.0,1.0,0,268.0,1
427,427,-0.1568296940606786,-0.2,0.0,1.0,394.0,679.0,0.0,1,707.0,0
428,428,-0.6049316305481682,-0.6,0.0,1.0,309.0,570.0,1.0,0,381.0,1
429,429,0.6948086566681119,0.7,1.0,1.0,342.0,835.0,0.0,0,573.0,0
430,430,-0.6000828704274628,-0.6,1.0,0.0,381.0,870.0,0.0,0,119.0,1
431,431,0.614387043246473,0.6,1.0,1.0,263.0,829.0,1.0,1,278.0,1
432,432,0.4533786598772439,0.5,0.0,0.0,483.0,805.0,0.0,1,252.0,1
433,433,-0.23071915123856357,-0.2,0.0,1.0,358.0,554.0,1.0,0,578.0,1
434,434,-0.39925780622029183,-0.4,1.0,0.0,316.0,893.0,1.0,1,141.0,0
435,435,-0.3838745211218225,-0.4,0.0,1.0,335.0,912.0,1.0,0,333.0,1
436,436,0.5623156930502321,0.6,1.0,1.0,271.0,525.0,1.0,1,684.0,1
437,437,-0.7488529918385964,-0.7,1.0,0.0,384.0,966.0,0.0,0,120.0,1
438,438,-0.6691562090149507,-0.7,0.0,1.0,329.0,942.0,1.0,0,1089.0,1
439,439,0.02867406310584475,0.0,1.0,1.0,369.0,988.0,0.0,0,113.0,0
440,440,0.2985734701495898,0.3,1.0,1.0,453.0,853.0,1.0,1,264.0,1
441,441,0.602663965845906,0.6,1.0,1.0,448.0,974.0,1.0,1,-72.0,1
442,442,-0.7785510188977439,-0.8,0.0,1.0,347.0,714.0,1.0,0,189.0,1
443,443,-0.5489131612699117,-0.5,0.0,1.0,384.0,568.0,1.0,0,478.0,1
444,444,-0.8123245051061863,-0.8,0.0,1.0,301.0,830.0,1.0,0,169.0,1
445,445,-0.10302573643505442,-0.1,1.0,0.0,457.0,577.0,0.0,0,806.0,1
446,446,0.77844047970127,0.8,0.0,0.0,305.0,764.0,0.0,1,381.0,1
447,447,0.47736696801477974,0.5,1.0,1.0,307.0,571.0,1.0,1,772.0,1
448,448,0.523869285287016,0.5,1.0,1.0,375.0,538.0,1.0,1,277.0,1
449,449,-0.7568889710661286,-0.8,0.0,1.0,406.0,634.0,1.0,0,380.0,1
450,450,0.07621990411838653,0.1,1.0,1.0,363.0,702.0,0.0,0,635.0,0
451,451,-0.00335565182003017,-0.0,0.0,1.0,493.0,512.0,0.0,1,765.0,0
452,452,-0.4003457019518015,-0.4,0.0,1.0,345.0,675.0,1.0,0,800.0,1
453,453,0.28050395603298683,0.3,0.0,0.0,454.0,507.0,0.0,1,499.0,1
454,454,-0.22920185732094955,-0.2,0.0,1.0,349.0,612.0,1.0,0,1029.0,1
455,455,-0.8252361911907115,-0.8,1.0,0.0,268.0,846.0,0.0,0,366.0,1
456,456,0.858511792941619,0.9,1.0,1.0,275.0,973.0,1.0,1,122.0,1
457,457,-0.8205862579696,-0.8,1.0,0.0,495.0,901.0,0.0,0,224.0,1
458,458,0.3421567492630603,0.3,1.0,1.0,355.0,504.0,1.0,1,871.0,1
459,459,0.675347575388746,0.7,1.0,1.0,310.0,785.0,1.0,1,55.0,1
460,460,0.6241733256768621,0.6,1.0,1.0,389.0,573.0,1.0,1,678.0,1
461,461,0.7332967348554743,0.7,1.0,1.0,494.0,984.0,1.0,1,162.0,1
462,462,0.0754256368530174,0.1,1.0,1.0,427.0,606.0,1.0,1,957.0,1
463,463,0.5689455372735083,0.6,0.0,0.0,447.0,508.0,0.0,1,595.0,1
464,464,0.6626375322464991,0.7,0.0,0.0,284.0,588.0,0.0,1,228.0,1
465,465,0.17864349264900736,0.2,0.0,0.0,395.0,900.0,0.0,1,395.0,1
466,466,-0.06231058818021662,-0.1,0.0,1.0,268.0,511.0,0.0,1,421.0,0
467,467,-0.4583761232531794,-0.5,1.0,0.0,257.0,930.0,0.0,0,513.0,1
468,468,0.04874118392169702,0.0,0.0,0.0,304.0,670.0,0.0,1,446.0,1
469,469,-0.4844207792554205,-0.5,0.0,1.0,414.0,635.0,0.0,1,291.0,0
470,470,0.45951094950178006,0.5,0.0,0.0,435.0,735.0,0.0,1,320.0,1
471,471,-0.20300453714066213,-0.2,0.0,1.0,318.0,562.0,1.0,0,710.0,1
472,472,-0.8792748020476409,-0.9,1.0,0.0,365.0,947.0,0.0,0,-12.0,1
473,473,-0.6412418725175723,-0.6,0.0,1.0,262.0,656.0,1.0,0,212.0,1
474,474,-0.3483018859043877,-0.3,0.0,1.0,499.0,865.0,1.0,0,136.0,1
475,475,0.529100605816243,0.5,0.0,0.0,341.0,942.0,0.0,1,587.0,1
476,476,0.6688981292275612,0.7,1.0,1.0,448.0,910.0,1.0,1,42.0,1
477,477,0.37736989662399856,0.4,0.0,0.0,295.0,940.0,0.0,1,195.0,1
478,478,-0.6211664762421634,-0.6,0.0,1.0,349.0,635.0,1.0,0,356.0,1
479,479,-0.3696181788589239,-0.4,1.0,0.0,330.0,614.0,0.0,0,566.0,1
480,480,0.5659759378464532,0.6,0.0,0.0,283.0,532.0,0.0,1,665.0,1
481,481,0.596548942047146,0.6,0.0,0.0,288.0,509.0,0.0,1,1143.0,1
482,482,0.5786698573363492,0.6,1.0,1.0,253.0,834.0,1.0,1,1023.0,1
483,483,0.1632486271527408,0.2,1.0,1.0,314.0,983.0,0.0,0,-77.0,0
484,484,0.280249407976339,0.3,1.0,1.0,493.0,672.0,1.0,1,815.0,1
485,485,-0.6963666964708249,-0.7,0.0,1.0,428.0,721.0,1.0,0,521.0,1
486,486,-0.6544377215202042,-0.7,0.0,1.0,273.0,762.0,1.0,0,705.0,1
487,487,-0.887950063345991,-0.9,0.0,1.0,412.0,749.0,1.0,0,109.0,1
488,488,-0.7427314601884386,-0.7,0.0,1.0,350.0,589.0,1.0,0,581.0,1
489,489,0.5353327803327622,0.5,1.0,1.0,492.0,958.0,1.0,1,600.0,1
490,490,0.546084402986376,0.5,1.0,1.0,345.0,953.0,1.0,1,582.0,1
491,491,0.7963062702564941,0.8,0.0,0.0,460.0,605.0,0.0,1,515.0,1
492,492,0.30760808295471576,0.3,0.0,0.0,456.0,503.0,0.0,1,491.0,1
493,493,-0.17288784757548747,-0.2,0.0,1.0,287.0,678.0,0.0,1,1435.0,0
494,494,-0.46673684873801,-0.5,1.0,0.0,494.0,784.0,0.0,0,222.0,1
495,495,-0.860042900910091,-0.9,0.0,1.0,331.0,703.0,1.0,0,476.0,1
496,496,0.14301022268211805,0.1,1.0,1.0,299.0,605.0,0.0,0,256.0,0
497,497,-0.8227108862520308,-0.8,0.0,1.0,436.0,526.0,1.0,0,608.0,1
498,498,-0.6810327438819395,-0.7,1.0,0.0,452.0,965.0,0.0,0,223.0,1
499,499,-0.1828885875743569,-0.2,0.0,1.0,372.0,990.0,1.0,0,588.0,1
500,500,0.2112761268791744,0.2,0.0,0.0,371.0,818.0,0.0,1,701.0,1
501,501,-0.13094290798975694,-0.1,1.0,0.0,383.0,812.0,0.0,0,375.0,1
502,502,0.5504214436026006,0.6,1.0,1.0,342.0,665.0,0.0,0,483.0,0
503,503,0.7027584723056562,0.7,1.0,1.0,303.0,872.0,1.0,1,465.0,1
504,504,-0.7137253704550112,-0.7,1.0,0.0,284.0,535.0,0.0,0,441.0,1
505,505,-0.3419324681970708,-0.3,0.0,1.0,479.0,732.0,0.0,1,629.0,0
506,506,0.12283402512491726,0.1,1.0,1.0,493.0,554.0,1.0,1,183.0,1
507,507,0.3544591914206786,0.4,1.0,1.0,386.0,948.0,0.0,0,326.0,0
508,508,-0.7299982492993937,-0.7,0.0,1.0,304.0,821.0,1.0,0,1055.0,1
509,509,0.2915092279122672,0.3,0.0,0.0,449.0,732.0,0.0,1,469.0,1
510,510,-0.29526441812868975,-0.3,0.0,1.0,422.0,992.0,1.0,0,-64.0,1
511,511,0.6853325997796197,0.7,1.0,1.0,409.0,897.0,0.0,0,-176.0,0
512,512,0.025655691962418015,0.0,0.0,0.0,251.0,633.0,0.0,1,676.0,1
513,513,0.7358082574928574,0.7,0.0,0.0,479.0,595.0,0.0,1,566.0,1
514,514,0.2603479806454366,0.3,1.0,1.0,355.0,767.0,0.0,0,238.0,0
515,515,0.2401563534337724,0.2,0.0,0.0,344.0,692.0,0.0,1,934.0,1
516,516,-0.8738982922499583,-0.9,1.0,0.0,273.0,819.0,0.0,0,108.0,1
517,517,-0.10694609628882545,-0.1,1.0,0.0,286.0,727.0,0.0,0,1107.0,1
518,518,-0.45888554914858365,-0.5,1.0,0.0,308.0,917.0,0.0,0,425.0,1
519,519,0.20368597889873252,0.2,0.0,0.0,395.0,653.0,0.0,1,502.0,1
520,520,-0.028767561336478065,-0.0,0.0,1.0,282.0,699.0,0.0,1,799.0,0
521,521,-0.0866124921359519,-0.1,0.0,1.0,433.0,980.0,0.0,1,257.0,0
522,522,-0.07734301939642574,-0.1,0.0,1.0,294.0,993.0,0.0,1,3.0,0
523,523,-0.8268738308526749,-0.8,1.0,0.0,369.0,675.0,0.0,0,456.0,1
524,524,0.6610385078158406,0.7,1.0,1.0,497.0,876.0,0.0,0,767.0,0
525,525,-0.47592468739831867,-0.5,0.0,1.0,428.0,890.0,1.0,0,222.0,1
526,526,0.7621640407043723,0.8,1.0,1.0,499.0,647.0,1.0,1,324.0,1
527,527,-0.010861245615456983,-0.0,0.0,1.0,432.0,506.0,0.0,1,1332.0,0
528,528,-0.4206749010042164,-0.4,1.0,0.0,411.0,826.0,0.0,0,803.0,1
529,529,-0.7450401575653802,-0.7,0.0,1.0,452.0,577.0,1.0,0,311.0,1
530,530,0.7052789507605278,0.7,1.0,1.0,303.0,847.0,1.0,1,800.0,1
531,531,-0.44402361516790023,-0.4,0.0,1.0,305.0,963.0,1.0,0,602.0,1
532,532,0.8124087831096106,0.8,0.0,0.0,393.0,955.0,0.0,1,312.0,1
533,533,-0.27765584799972887,-0.3,1.0,0.0,314.0,776.0,0.0,0,540.0,1
534,534,0.4004431290020064,0.4,0.0,0.0,483.0,952.0,0.0,1,295.0,1
535,535,0.4690026298820341,0.5,0.0,0.0,443.0,767.0,0.0,1,550.0,1
536,536,0.5226690298656632,0.5,1.0,1.0,256.0,994.0,1.0,1,240.0,1
537,537,0.09243642883009151,0.1,0.0,0.0,326.0,843.0,0.0,1,401.0,1
538,538,-0.883498212572072,-0.9,1.0,0.0,401.0,869.0,0.0,0,390.0,1
539,539,0.5003654098370586,0.5,0.0,0.0,324.0,727.0,0.0,1,609.0,1
540,540,0.2926778729477627,0.3,0.0,0.0,264.0,900.0,0.0,1,306.0,1
541,541,0.5535440831254138,0.6,0.0,0.0,495.0,952.0,0.0,1,193.0,1
542,542,0.0007336458384379352,0.0,0.0,0.0,491.0,901.0,0.0,1,1048.0,1
543,543,-0.14679020498607875,-0.1,0.0,1.0,494.0,874.0,1.0,0,1312.0,1
544,544,-0.1805433160784583,-0.2,0.0,1.0,431.0,575.0,1.0,0,734.0,1
545,545,0.15823125374143954,0.2,1.0,1.0,352.0,915.0,0.0,0,333.0,0
546,546,0.19244654596885968,0.2,0.0,0.0,290.0,705.0,0.0,1,435.0,1
547,547,-0.5043636694381,-0.5,1.0,0.0,335.0,602.0,0.0,0,283.0,1
548,548,0.5180336995014397,0.5,0.0,0.0,365.0,764.0,0.0,1,471.0,1
549,549,-0.18498489235719373,-0.2,0.0,1.0,401.0,628.0,1.0,0,491.0,1
550,550,0.21705328558103443,0.2,1.0,1.0,294.0,520.0,1.0,1,726.0,1
551,551,0.5471876414529745,0.5,1.0,1.0,359.0,858.0,0.0,0,423.0,0
552,552,0.7819991003387831,0.8,0.0,0.0,432.0,834.0,0.0,1,264.0,1
553,553,-0.22878364044149568,-0.2,1.0,0.0,396.0,646.0,0.0,0,388.0,1
554,554,0.5559292506459724,0.6,1.0,1.0,412.0,707.0,0.0,0,811.0,0
555,555,0.17934670821663568,0.2,1.0,1.0,474.0,563.0,1.0,1,883.0,1
556,556,-0.4148453095925339,-0.4,0.0,1.0,384.0,928.0,1.0,0,598.0,1
557,557,0.23453604236654269,0.2,0.0,0.0,450.0,512.0,0.0,1,778.0,1
558,558,0.31772248233148803,0.3,0.0,0.0,424.0,970.0,0.0,1,546.0,1
559,559,0.840463555833176,0.8,0.0,0.0,465.0,937.0,0.0,1,198.0,1
560,560,0.39193485956227103,0.4,1.0,1.0,266.0,513.0,0.0,0,901.0,0
561,561,-0.6415970761567711,-0.6,0.0,1.0,294.0,658.0,0.0,1,338.0,0
562,562,-0.44968800448710666,-0.4,1.0,0.0,343.0,908.0,0.0,0,139.0,1
563,563,-0.28784459972634246,-0.3,0.0,1.0,435.0,516.0,1.0,0,539.0,1
564,564,0.029331537521806172,0.0,1.0,1.0,382.0,631.0,0.0,0,407.0,0
565,565,-0.7608654139566382,-0.8,0.0,1.0,432.0,673.0,1.0,0,405.0,1
566,566,-0.1891131518306408,-0.2,0.0,1.0,340.0,616.0,1.0,0,314.0,1
567,567,-0.5083809012412652,-0.5,0.0,1.0,398.0,749.0,1.0,0,853.0,1
568,568,0.4854252927685384,0.5,1.0,1.0,449.0,667.0,1.0,1,714.0,1
569,569,-0.21956803754172094,-0.2,1.0,0.0,375.0,620.0,0.0,0,735.0,1
570,570,-0.2467260448881894,-0.2,1.0,0.0,343.0,509.0,0.0,0,828.0,1
571,571,-0.7226043608496785,-0.7,0.0,1.0,499.0,663.0,1.0,0,128.0,1
572,572,-0.11598762951238684,-0.1,1.0,0.0,394.0,657.0,0.0,0,489.0,1
573,573,-0.8875731387095698,-0.9,1.0,0.0,347.0,761.0,0.0,0,302.0,1
574,574,0.1565956386904258,0.2,0.0,0.0,470.0,632.0,0.0,1,468.0,1
575,575,-0.6302731223458957,-0.6,1.0,0.0,320.0,554.0,0.0,0,336.0,1
576,576,-0.7583471018277237,-0.8,1.0,0.0,282.0,945.0,0.0,0,333.0,1
577,577,0.20675968805654443,0.2,1.0,1.0,488.0,583.0,0.0,0,799.0,0
578,578,0.018064000510037426,0.0,1.0,1.0,378.0,818.0,1.0,1,1044.0,1
579,579,-0.36601589049677363,-0.4,1.0,0.0,429.0,727.0,0.0,0,774.0,1
580,580,0.15535847383726742,0.2,0.0,0.0,310.0,705.0,0.0,1,715.0,1
581,581,0.6376257374792614,0.6,0.0,0.0,260.0,909.0,0.0,1,-79.0,1
582,582,-0.7908185419762862,-0.8,0.0,1.0,414.0,947.0,1.0,0,279.0,1
583,583,0.5398545094036461,0.5,1.0,1.0,287.0,741.0,1.0,1,252.0,1
584,584,-0.8111839272009697,-0.8,0.0,1.0,389.0,949.0,1.0,0,322.0,1
585,585,-0.8481562984928673,-0.8,1.0,0.0,324.0,916.0,0.0,0,-140.0,1
586,586,0.04239787536170847,0.0,0.0,0.0,320.0,997.0,0.0,1,73.0,1
587,587,0.8684043499490187,0.9,1.0,1.0,318.0,997.0,1.0,1,115.0,1
588,588,0.13866328050046894,0.1,0.0,0.0,334.0,801.0,0.0,1,485.0,1
589,589,-0.5836975447249104,-0.6,1.0,0.0,335.0,977.0,0.0,0,528.0,1
590,590,0.1873230702773595,0.2,0.0,0.0,482.0,998.0,0.0,1,810.0,1
591,591,0.06184288120632353,0.1,0.0,0.0,299.0,844.0,0.0,1,477.0,1
592,592,-0.42695305065984085,-0.4,0.0,1.0,462.0,986.0,1.0,0,242.0,1
593,593,-0.7923641411947374,-0.8,0.0,1.0,498.0,905.0,1.0,0,487.0,1
594,594,0.6418623649642269,0.6,1.0,1.0,315.0,551.0,1.0,1,654.0,1
595,595,-0.3962311440871351,-0.4,1.0,0.0,250.0,653.0,0.0,0,757.0,1
596,596,0.17765664002536308,0.2,0.0,0.0,271.0,723.0,0.0,1,236.0,1
597,597,-0.030151837306545137,-0.0,1.0,0.0,266.0,966.0,0.0,0,218.0,1
598,598,0.3919969395683961,0.4,0.0,0.0,468.0,780.0,0.0,1,352.0,1
599,599,0.5122359992025615,0.5,0.0,0.0,411.0,827.0,0.0,1,272.0,1
600,600,-0.4032523909513244,-0.4,0.0,1.0,443.0,811.0,1.0,0,456.0,1
601,601,-0.6769558395050759,-0.7,0.0,1.0,385.0,535.0,1.0,0,890.0,1
602,602,0.48474540551867185,0.5,0.0,0.0,382.0,828.0,0.0,1,160.0,1
603,603,-0.23867746344777718,-0.2,1.0,0.0,399.0,659.0,0.0,0,412.0,1
604,604,0.6064307539635819,0.6,0.0,0.0,308.0,613.0,0.0,1,749.0,1
605,605,0.2470314504050818,0.2,1.0,1.0,384.0,885.0,1.0,1,1251.0,1
606,606,-0.8647053063593753,-0.9,0.0,1.0,440.0,533.0,1.0,0,437.0,1
607,607,0.0068270273714230445,0.0,0.0,0.0,337.0,729.0,0.0,1,504.0,1
608,608,-0.11481017877310307,-0.1,0.0,1.0,416.0,583.0,0.0,1,931.0,0
609,609,0.04732355951331457,0.0,1.0,1.0,308.0,782.0,0.0,0,310.0,0
610,610,-0.26140965665289073,-0.3,1.0,0.0,407.0,709.0,0.0,0,524.0,1
611,611,-0.20723200296613364,-0.2,0.0,1.0,277.0,756.0,0.0,1,317.0,0
612,612,0.27832380184183403,0.3,0.0,0.0,407.0,855.0,1.0,0,298.0,0
613,613,0.8779946974332219,0.9,1.0,1.0,359.0,596.0,1.0,1,245.0,1
614,614,0.27573676867483965,0.3,1.0,1.0,346.0,925.0,1.0,1,259.0,1
615,615,-0.476277769284503,-0.5,0.0,1.0,473.0,625.0,0.0,1,292.0,0
616,616,0.11456022144454436,0.1,1.0,1.0,313.0,946.0,1.0,1,531.0,1
617,617,0.21453526242946042,0.2,1.0,1.0,294.0,575.0,0.0,0,681.0,0
618,618,-0.5774098298557686,-0.6,0.0,1.0,421.0,642.0,1.0,0,617.0,1
619,619,0.8198195258886728,0.8,1.0,1.0,353.0,680.0,1.0,1,407.0,1
620,620,0.7391189692809216,0.7,0.0,0.0,453.0,825.0,0.0,1,302.0,1
621,621,0.7877800084704428,0.8,0.0,0.0,324.0,863.0,0.0,1,173.0,1
622,622,-0.40423777363860897,-0.4,0.0,1.0,273.0,538.0,1.0,0,649.0,1
623,623,0.4674540010377123,0.5,0.0,0.0,421.0,638.0,0.0,1,481.0,1
624,624,0.41444399592483394,0.4,0.0,0.0,340.0,706.0,0.0,1,194.0,1
625,625,-0.18304753598915335,-0.2,0.0,1.0,296.0,808.0,0.0,1,206.0,0
626,626,0.7232103336398549,0.7,1.0,1.0,451.0,822.0,1.0,1,357.0,1
627,627,0.6524941227485995,0.7,1.0,1.0,342.0,812.0,1.0,1,106.0,1
628,628,-0.1825892800446376,-0.2,0.0,1.0,314.0,510.0,0.0,1,566.0,0
629,629,0.808698803721326,0.8,1.0,1.0,431.0,828.0,1.0,1,171.0,1
630,630,-0.7094517536246487,-0.7,0.0,1.0,443.0,590.0,1.0,0,537.0,1
631,631,-0.6578167539213131,-0.7,0.0,1.0,435.0,577.0,1.0,0,258.0,1
632,632,0.4364736164149349,0.4,1.0,1.0,394.0,742.0,1.0,1,1084.0,1
633,633,0.10578597552651325,0.1,1.0,1.0,377.0,830.0,0.0,0,3.0,0
634,634,-0.6189817958466779,-0.6,1.0,0.0,337.0,771.0,0.0,0,322.0,1
635,635,0.29349266604282553,0.3,0.0,0.0,434.0,993.0,0.0,1,483.0,1
636,636,-0.4689953238955062,-0.5,0.0,1.0,312.0,566.0,1.0,0,892.0,1
637,637,-0.2533795589383906,-0.3,1.0,0.0,268.0,939.0,0.0,0,353.0,1
638,638,0.5564651722069772,0.6,0.0,0.0,495.0,544.0,0.0,1,451.0,1
639,639,0.49445949224175056,0.5,1.0,1.0,338.0,947.0,1.0,1,375.0,1
640,640,0.39394612356145686,0.4,0.0,0.0,329.0,614.0,0.0,1,667.0,1
641,641,-0.6956590376442602,-0.7,0.0,1.0,322.0,860.0,1.0,0,648.0,1
642,642,0.15447481115230277,0.2,0.0,0.0,491.0,923.0,0.0,1,456.0,1
643,643,-0.5917675766201875,-0.6,0.0,1.0,485.0,999.0,0.0,1,-54.0,0
644,644,-0.4202621295994438,-0.4,1.0,0.0,461.0,942.0,0.0,0,237.0,1
645,645,-0.8818152511365798,-0.9,0.0,1.0,498.0,536.0,1.0,0,456.0,1
646,646,0.35913088477104094,0.4,0.0,0.0,368.0,600.0,0.0,1,492.0,1
647,647,-0.8982706780863128,-0.9,0.0,1.0,396.0,530.0,1.0,0,564.0,1
648,648,-0.719021953816321,-0.7,1.0,0.0,399.0,942.0,0.0,0,309.0,1
649,649,-0.2694414966540587,-0.3,0.0,1.0,260.0,652.0,1.0,0,548.0,1
650,650,0.845567836780145,0.8,0.0,0.0,357.0,705.0,0.0,1,468.0,1
651,651,0.48838465268773723,0.5,1.0,1.0,347.0,881.0,1.0,1,62.0,1
652,652,0.7875189997087234,0.8,1.0,1.0,266.0,616.0,1.0,1,478.0,1
653,653,0.6390344853492559,0.6,0.0,0.0,400.0,690.0,0.0,1,440.0,1
654,654,0.5013350926289867,0.5,0.0,0.0,295.0,757.0,0.0,1,548.0,1
655,655,-0.5365134415949024,-0.5,0.0,1.0,445.0,574.0,1.0,0,361.0,1
656,656,-0.7262174257767303,-0.7,1.0,0.0,278.0,802.0,0.0,0,490.0,1
657,657,-0.46128756379447033,-0.5,1.0,0.0,351.0,903.0,0.0,0,96.0,1
658,658,0.23095592818690214,0.2,1.0,1.0,282.0,637.0,1.0,1,651.0,1
659,659,-0.6213568458059913,-0.6,0.0,1.0,345.0,596.0,1.0,0,929.0,1
660,660,-0.387251530313348,-0.4,0.0,1.0,311.0,633.0,1.0,0,2316.0,1
661,661,-0.5828186258912554,-0.6,1.0,0.0,263.0,648.0,0.0,0,269.0,1
662,662,-0.2711190152188494,-0.3,1.0,0.0,348.0,750.0,0.0,0,562.0,1
663,663,-0.8994951994553462,-0.9,1.0,0.0,384.0,854.0,0.0,0,232.0,1
664,664,0.7226086059147802,0.7,1.0,1.0,283.0,980.0,0.0,0,27.0,0
665,665,-0.4674142612890204,-0.5,0.0,1.0,485.0,645.0,1.0,0,480.0,1
666,666,-0.7974344570483175,-0.8,0.0,1.0,276.0,901.0,1.0,0,753.0,1
667,667,-0.7422149326539947,-0.7,1.0,0.0,319.0,915.0,0.0,0,206.0,1
668,668,0.19856873921489016,0.2,1.0,1.0,421.0,543.0,1.0,1,826.0,1
669,669,-0.7614105686259083,-0.8,1.0,0.0,446.0,816.0,1.0,1,478.0,0
670,670,0.5406343193707773,0.5,0.0,0.0,325.0,776.0,0.0,1,199.0,1
671,671,0.20088526638940463,0.2,1.0,1.0,461.0,693.0,1.0,1,786.0,1
672,672,0.32531313764771064,0.3,0.0,0.0,349.0,919.0,0.0,1,992.0,1
673,673,-0.28680295824774316,-0.3,1.0,0.0,431.0,663.0,0.0,0,536.0,1
674,674,0.6713947843492453,0.7,0.0,0.0,274.0,891.0,0.0,1,315.0,1
675,675,0.034540934309659876,0.0,1.0,1.0,363.0,531.0,0.0,0,486.0,0
676,676,0.09604873471279651,0.1,1.0,1.0,435.0,705.0,0.0,0,200.0,0
677,677,-0.05080816899238205,-0.1,1.0,0.0,309.0,720.0,0.0,0,351.0,1
678,678,-0.6724415044006635,-0.7,0.0,1.0,427.0,909.0,1.0,0,274.0,1
679,679,0.06403564600196576,0.1,1.0,1.0,290.0,552.0,1.0,1,538.0,1
680,680,-0.3249556453056962,-0.3,1.0,0.0,326.0,996.0,0.0,0,1048.0,1
681,681,-0.0032663769458711744,-0.0,1.0,0.0,252.0,688.0,0.0,0,860.0,1
682,682,0.7613973350973485,0.8,0.0,0.0,338.0,715.0,0.0,1,677.0,1
683,683,-0.5226541034110241,-0.5,0.0,1.0,295.0,987.0,1.0,0,458.0,1
684,684,0.10243533150337802,0.1,1.0,1.0,474.0,596.0,1.0,1,560.0,1
685,685,-0.3639666401593651,-0.4,1.0,0.0,345.0,724.0,0.0,0,711.0,1
686,686,0.05999987969158571,0.1,1.0,1.0,468.0,757.0,0.0,0,505.0,0
687,687,0.08319170741888893,0.1,1.0,1.0,442.0,744.0,0.0,0,964.0,0
688,688,-0.1487761935365276,-0.1,0.0,1.0,358.0,861.0,0.0,1,281.0,0
689,689,-0.08551533096293373,-0.1,0.0,1.0,322.0,544.0,1.0,0,574.0,1
690,690,-0.7051962347259003,-0.7,0.0,1.0,376.0,997.0,1.0,0,157.0,1
691,691,0.6929289804365332,0.7,1.0,1.0,386.0,591.0,1.0,1,463.0,1
692,692,0.31144431887452606,0.3,0.0,0.0,410.0,528.0,0.0,1,592.0,1
693,693,-0.784719187670201,-0.8,1.0,0.0,418.0,809.0,0.0,0,393.0,1
694,694,0.28594334637051,0.3,1.0,1.0,453.0,832.0,1.0,1,285.0,1
695,695,-0.47953189035952976,-0.5,1.0,0.0,407.0,998.0,0.0,0,145.0,1
696,696,-0.19598509719230173,-0.2,0.0,1.0,296.0,615.0,1.0,0,869.0,1
697,697,-0.5605717286528145,-0.6,1.0,0.0,325.0,683.0,0.0,0,232.0,1
698,698,-0.6549638216627715,-0.7,0.0,1.0,492.0,939.0,1.0,0,189.0,1
699,699,0.753447792376105,0.8,1.0,1.0,259.0,822.0,1.0,1,469.0,1
700,700,0.44370114376935044,0.4,1.0,1.0,453.0,603.0,0.0,0,324.0,0
701,701,0.6952069646385214,0.7,1.0,1.0,463.0,891.0,1.0,1,316.0,1
702,702,0.24720716948005983,0.2,0.0,0.0,488.0,854.0,0.0,1,458.0,1
703,703,0.8664498255681455,0.9,0.0,0.0,337.0,798.0,0.0,1,165.0,1
704,704,0.6906691162964335,0.7,1.0,1.0,366.0,730.0,1.0,1,644.0,1
705,705,0.21293507936359235,0.2,0.0,0.0,271.0,824.0,0.0,1,135.0,1
706,706,-0.21117138562368354,-0.2,1.0,0.0,359.0,984.0,0.0,0,517.0,1
707,707,0.0059823829841624265,0.0,0.0,0.0,252.0,652.0,0.0,1,346.0,1
708,708,0.40188993256952277,0.4,0.0,0.0,462.0,878.0,0.0,1,120.0,1
709,709,-0.6125643980531089,-0.6,0.0,1.0,374.0,937.0,1.0,0,159.0,1
710,710,0.2769008971267727,0.3,1.0,1.0,444.0,974.0,1.0,1,132.0,1
711,711,-0.21815912739694931,-0.2,1.0,0.0,445.0,505.0,0.0,0,690.0,1
712,712,0.2914674810226273,0.3,1.0,1.0,408.0,716.0,0.0,0,566.0,0
713,713,0.8995273108039848,0.9,0.0,0.0,333.0,850.0,0.0,1,67.0,1
714,714,-0.782277008318088,-0.8,1.0,0.0,261.0,598.0,0.0,0,421.0,1
715,715,-0.04629114229527931,-0.0,0.0,1.0,494.0,639.0,0.0,1,447.0,0
716,716,-0.7073139784437865,-0.7,1.0,0.0,331.0,719.0,0.0,0,310.0,1
717,717,0.4504097882607564,0.5,1.0,1.0,455.0,795.0,0.0,0,460.0,0
718,718,0.8684118600653928,0.9,1.0,1.0,432.0,904.0,1.0,1,524.0,1
719,719,0.8535734849731546,0.9,1.0,1.0,277.0,636.0,1.0,1,627.0,1
720,720,0.7388156741753261,0.7,0.0,0.0,478.0,910.0,0.0,1,222.0,1
721,721,-0.5105388029898723,-0.5,1.0,0.0,327.0,849.0,0.0,0,434.0,1
722,722,0.685709195782401,0.7,0.0,0.0,356.0,693.0,0.0,1,521.0,1
723,723,0.2623409004955931,0.3,0.0,0.0,425.0,699.0,0.0,1,1016.0,1
724,724,-0.3867892315549306,-0.4,0.0,1.0,453.0,727.0,1.0,0,340.0,1
725,725,0.3664615763336311,0.4,1.0,1.0,362.0,747.0,1.0,1,421.0,1
726,726,0.2022784669222123,0.2,0.0,0.0,498.0,973.0,0.0,1,279.0,1
727,727,-0.20955746791498053,-0.2,1.0,0.0,441.0,755.0,0.0,0,334.0,1
728,728,-0.45785676006292053,-0.5,1.0,0.0,459.0,503.0,0.0,0,538.0,1
729,729,-0.6488951374284164,-0.6,1.0,0.0,484.0,563.0,0.0,0,233.0,1
730,730,0.24832227732658196,0.2,1.0,1.0,459.0,843.0,0.0,0,198.0,0
731,731,0.7719807421792461,0.8,0.0,0.0,417.0,861.0,0.0,1,52.0,1
732,732,-0.16943643136674957,-0.2,1.0,0.0,315.0,622.0,0.0,0,623.0,1
733,733,0.19213029970772,0.2,1.0,1.0,442.0,676.0,1.0,1,722.0,1
734,734,0.854088123850543,0.9,0.0,0.0,304.0,845.0,0.0,1,371.0,1
735,735,0.035523222409239885,0.0,0.0,0.0,473.0,699.0,0.0,1,548.0,1
736,736,-0.22511038396689464,-0.2,0.0,1.0,260.0,896.0,0.0,1,904.0,0
737,737,0.07574132941361034,0.1,1.0,1.0,346.0,945.0,0.0,0,469.0,0
738,738,0.01607232353791721,0.0,1.0,1.0,303.0,997.0,0.0,0,-30.0,0
739,739,0.849949788218966,0.8,1.0,1.0,314.0,806.0,1.0,1,260.0,1
740,740,-0.5677571509202277,-0.6,1.0,0.0,295.0,612.0,0.0,0,483.0,1
741,741,0.7761270057483797,0.8,0.0,0.0,461.0,609.0,0.0,1,190.0,1
742,742,-0.2743619239150046,-0.3,1.0,0.0,278.0,550.0,0.0,0,962.0,1
743,743,-0.5369326189061456,-0.5,0.0,1.0,278.0,538.0,1.0,0,514.0,1
744,744,0.8469879911745545,0.8,0.0,0.0,387.0,891.0,0.0,1,242.0,1
745,745,-0.7776680962475585,-0.8,0.0,1.0,323.0,958.0,1.0,0,699.0,1
746,746,-0.388595170678114,-0.4,1.0,0.0,470.0,837.0,0.0,0,443.0,1
747,747,-0.6394023814995947,-0.6,1.0,0.0,379.0,726.0,0.0,0,275.0,1
748,748,0.5004689120373073,0.5,0.0,0.0,259.0,745.0,0.0,1,656.0,1
749,749,0.47537423501967224,0.5,0.0,0.0,304.0,656.0,0.0,1,390.0,1
750,750,-0.7746422404845895,-0.8,1.0,0.0,429.0,503.0,0.0,0,698.0,1
751,751,-0.6475892129546243,-0.6,1.0,0.0,279.0,591.0,0.0,0,650.0,1
752,752,0.5386827886581745,0.5,0.0,0.0,300.0,754.0,0.0,1,286.0,1
753,753,0.6634033507245035,0.7,1.0,1.0,438.0,661.0,1.0,1,511.0,1
754,754,-0.6547529339636963,-0.7,1.0,0.0,350.0,780.0,0.0,0,370.0,1
755,755,-0.02281434024008866,-0.0,1.0,0.0,365.0,790.0,0.0,0,255.0,1
756,756,0.4741373004084958,0.5,0.0,0.0,280.0,828.0,0.0,1,822.0,1
757,757,0.3146095320596002,0.3,0.0,0.0,397.0,943.0,0.0,1,70.0,1
758,758,0.25101403470762473,0.3,1.0,1.0,420.0,982.0,0.0,0,278.0,0
759,759,0.3005464036881341,0.3,0.0,0.0,364.0,894.0,0.0,1,542.0,1
760,760,0.7179265208623994,0.7,1.0,1.0,294.0,847.0,1.0,1,399.0,1
761,761,-0.8882487571313246,-0.9,0.0,1.0,411.0,947.0,1.0,0,532.0,1
762,762,-0.4380262276800885,-0.4,1.0,0.0,313.0,653.0,0.0,0,394.0,1
763,763,0.6268428097637736,0.6,1.0,1.0,323.0,899.0,0.0,0,88.0,0
764,764,-0.04870478082412788,-0.0,0.0,1.0,326.0,618.0,0.0,1,906.0,0
765,765,-0.12778893442903516,-0.1,0.0,1.0,346.0,861.0,1.0,0,283.0,1
766,766,-0.8710824693549065,-0.9,1.0,0.0,401.0,987.0,0.0,0,382.0,1
767,767,0.3098519511397301,0.3,0.0,0.0,406.0,775.0,0.0,1,359.0,1
768,768,-0.1906263366710914,-0.2,1.0,0.0,302.0,875.0,0.0,0,43.0,1
769,769,-0.8246024638188298,-0.8,0.0,1.0,497.0,725.0,1.0,0,558.0,1
770,770,-0.22493415606885425,-0.2,1.0,0.0,458.0,930.0,0.0,0,222.0,1
771,771,0.6803617263719547,0.7,0.0,0.0,369.0,688.0,0.0,1,303.0,1
772,772,-0.555337440746643,-0.6,1.0,0.0,482.0,944.0,0.0,0,504.0,1
773,773,-0.8424652404777055,-0.8,0.0,1.0,417.0,680.0,1.0,0,523.0,1
774,774,-0.43193791822308153,-0.4,0.0,1.0,457.0,807.0,0.0,1,346.0,0
775,775,0.6670345539575783,0.7,1.0,1.0,492.0,903.0,1.0,1,285.0,1
776,776,-0.6530887213081742,-0.7,0.0,1.0,321.0,842.0,1.0,0,547.0,1
777,777,-0.8735426196774667,-0.9,0.0,1.0,261.0,964.0,1.0,0,285.0,1
778,778,0.6243840276110565,0.6,1.0,1.0,422.0,506.0,1.0,1,592.0,1
779,779,-0.891282547312725,-0.9,1.0,0.0,375.0,588.0,0.0,0,367.0,1
780,780,0.3573634835053875,0.4,1.0,1.0,467.0,837.0,1.0,1,266.0,1
781,781,-0.17692263076832515,-0.2,0.0,1.0,321.0,561.0,1.0,0,328.0,1
782,782,0.5734783779275382,0.6,1.0,1.0,408.0,970.0,1.0,1,-38.0,1
783,783,0.5534104419492721,0.6,1.0,1.0,430.0,759.0,1.0,1,381.0,1
784,784,0.19530949510189732,0.2,0.0,0.0,353.0,632.0,0.0,1,945.0,1
785,785,-0.7188485299933811,-0.7,0.0,1.0,312.0,975.0,1.0,0,1323.0,1
786,786,0.7905172399377526,0.8,1.0,1.0,475.0,925.0,1.0,1,240.0,1
787,787,-0.8529633875606438,-0.9,1.0,0.0,279.0,612.0,0.0,0,129.0,1
788,788,0.5226496766794634,0.5,1.0,1.0,439.0,601.0,1.0,1,930.0,1
789,789,0.6656234853912509,0.7,1.0,1.0,352.0,856.0,1.0,1,132.0,1
790,790,-0.5852041563811491,-0.6,0.0,1.0,458.0,543.0,1.0,0,599.0,1
791,791,0.5961263819819455,0.6,0.0,0.0,391.0,528.0,0.0,1,461.0,1
792,792,-0.2874450903120762,-0.3,1.0,0.0,479.0,924.0,0.0,0,267.0,1
793,793,0.5857680976370917,0.6,0.0,0.0,360.0,795.0,0.0,1,235.0,1
794,794,0.38750652702759847,0.4,0.0,0.0,421.0,501.0,0.0,1,648.0,1
795,795,0.35260119010009083,0.4,1.0,1.0,481.0,984.0,1.0,1,905.0,1
796,796,-0.033127952177659736,-0.0,0.0,1.0,280.0,627.0,1.0,0,333.0,1
797,797,-0.8983643763150032,-0.9,1.0,0.0,477.0,592.0,0.0,0,291.0,1
798,798,0.3482786412040403,0.3,1.0,1.0,300.0,655.0,1.0,1,475.0,1
799,799,-0.20524296819210852,-0.2,0.0,1.0,306.0,546.0,0.0,1,928.0,0
800,800,-0.5932889722433934,-0.6,0.0,1.0,349.0,685.0,1.0,0,246.0,1
801,801,-0.03891359562644092,-0.0,1.0,0.0,396.0,697.0,0.0,0,917.0,1
802,802,-0.5031176333051428,-0.5,0.0,1.0,492.0,528.0,1.0,0,600.0,1
803,803,0.5334374745339895,0.5,1.0,1.0,283.0,736.0,1.0,1,401.0,1
804,804,0.3161749920911495,0.3,0.0,0.0,367.0,933.0,0.0,1,710.0,1
805,805,0.08354209716611727,0.1,1.0,1.0,492.0,536.0,1.0,1,1042.0,1
806,806,-0.03323979757315565,-0.0,0.0,1.0,448.0,625.0,0.0,1,657.0,0
807,807,0.03543352884689244,0.0,0.0,0.0,424.0,989.0,0.0,1,297.0,1
808,808,-0.10170000426294601,-0.1,0.0,1.0,399.0,995.0,1.0,0,296.0,1
809,809,0.5630863968560383,0.6,1.0,1.0,342.0,672.0,1.0,1,506.0,1
810,810,0.2139993567174382,0.2,0.0,0.0,268.0,541.0,0.0,1,411.0,1
811,811,0.15454832182549605,0.2,1.0,1.0,311.0,718.0,1.0,1,991.0,1
812,812,0.36533368773459707,0.4,0.0,0.0,453.0,519.0,0.0,1,538.0,1
813,813,-0.38364707789186314,-0.4,0.0,1.0,399.0,600.0,1.0,0,1171.0,1
814,814,-0.42486002908895604,-0.4,1.0,0.0,322.0,509.0,0.0,0,859.0,1
815,815,0.0010605779943365645,0.0,0.0,0.0,381.0,649.0,0.0,1,540.0,1
816,816,-0.3270089548910641,-0.3,1.0,0.0,338.0,987.0,0.0,0,885.0,1
817,817,-0.4384903567501162,-0.4,1.0,0.0,432.0,561.0,0.0,0,317.0,1
818,818,-0.2775654439898375,-0.3,1.0,0.0,314.0,640.0,0.0,0,366.0,1
819,819,-0.12589278213586208,-0.1,1.0,0.0,431.0,756.0,0.0,0,323.0,1
820,820,-0.48947251012585474,-0.5,1.0,0.0,449.0,698.0,0.0,0,293.0,1
821,821,0.7386492880895507,0.7,0.0,0.0,316.0,621.0,0.0,1,253.0,1
822,822,0.5998929480251723,0.6,0.0,0.0,458.0,832.0,0.0,1,250.0,1
823,823,-0.5283429478920982,-0.5,1.0,0.0,484.0,749.0,0.0,0,427.0,1
824,824,-0.45057358485319066,-0.5,0.0,1.0,342.0,880.0,1.0,0,1398.0,1
825,825,0.30437002920660683,0.3,1.0,1.0,498.0,530.0,1.0,1,622.0,1
826,826,-0.14074965456849187,-0.1,0.0,1.0,358.0,790.0,0.0,1,372.0,0
827,827,0.2707940317085945,0.3,0.0,0.0,455.0,902.0,0.0,1,363.0,1
828,828,0.046629414613482245,0.0,1.0,1.0,284.0,603.0,1.0,1,553.0,1
829,829,-0.8919770340362674,-0.9,1.0,0.0,379.0,604.0,0.0,0,317.0,1
830,830,-0.8623567718341546,-0.9,0.0,1.0,473.0,941.0,1.0,0,276.0,1
831,831,0.8092209000335869,0.8,0.0,0.0,486.0,759.0,0.0,1,355.0,1
832,832,0.1584561555071381,0.2,1.0,1.0,469.0,804.0,1.0,1,347.0,1
833,833,-0.1472979185874974,-0.1,0.0,1.0,390.0,546.0,0.0,1,934.0,0
834,834,-0.6847488367777066,-0.7,0.0,1.0,316.0,880.0,1.0,0,464.0,1
835,835,-0.4159632248264287,-0.4,0.0,1.0,341.0,818.0,0.0,1,421.0,0
836,836,-0.6185199508433126,-0.6,0.0,1.0,473.0,712.0,0.0,1,365.0,0
837,837,0.8650839407974323,0.9,1.0,1.0,262.0,900.0,1.0,1,238.0,1
838,838,0.2203336399512651,0.2,0.0,0.0,303.0,680.0,0.0,1,377.0,1
839,839,-0.3192425112956865,-0.3,1.0,0.0,423.0,723.0,0.0,0,414.0,1
840,840,0.3735363812978113,0.4,1.0,1.0,283.0,874.0,0.0,0,293.0,0
841,841,0.5303647697019404,0.5,1.0,1.0,340.0,895.0,0.0,0,-45.0,0
842,842,-0.2564209328633893,-0.3,0.0,1.0,288.0,571.0,0.0,1,831.0,0
843,843,0.2053372566114774,0.2,1.0,1.0,451.0,978.0,0.0,0,-49.0,0
844,844,-0.6846687885301735,-0.7,0.0,1.0,475.0,739.0,1.0,0,316.0,1
845,845,0.06999997429853921,0.1,1.0,1.0,374.0,621.0,0.0,0,585.0,0
846,846,-0.48815397221365214,-0.5,0.0,1.0,339.0,799.0,1.0,0,282.0,1
847,847,-0.7818030628206044,-0.8,1.0,0.0,339.0,646.0,0.0,0,445.0,1
848,848,-0.17489938211868605,-0.2,1.0,0.0,338.0,885.0,0.0,0,817.0,1
849,849,0.6427324195756278,0.6,0.0,0.0,397.0,933.0,0.0,1,20.0,1
850,850,-0.4296305775510962,-0.4,1.0,0.0,344.0,977.0,0.0,0,319.0,1
851,851,-0.01648406026834215,-0.0,0.0,1.0,350.0,797.0,0.0,1,283.0,0
852,852,0.5173957823828609,0.5,1.0,1.0,381.0,738.0,1.0,1,801.0,1
853,853,0.008846053572475032,0.0,0.0,0.0,493.0,516.0,0.0,1,1141.0,1
854,854,-0.43256407113502016,-0.4,0.0,1.0,430.0,871.0,1.0,0,259.0,1
855,855,0.5740644761775492,0.6,0.0,0.0,334.0,990.0,0.0,1,316.0,1
856,856,0.4480138768003462,0.4,1.0,1.0,270.0,673.0,1.0,1,297.0,1
857,857,-0.4450575272864943,-0.4,1.0,0.0,266.0,643.0,0.0,0,381.0,1
858,858,-0.714816942771151,-0.7,0.0,1.0,439.0,538.0,1.0,0,533.0,1
859,859,0.13946284520512064,0.1,1.0,1.0,361.0,682.0,0.0,0,557.0,0
860,860,0.6051831545144083,0.6,1.0,1.0,376.0,730.0,1.0,1,634.0,1
861,861,0.028392534903693867,0.0,1.0,1.0,467.0,621.0,0.0,0,312.0,0
862,862,-0.6698492917962842,-0.7,0.0,1.0,297.0,850.0,1.0,0,1023.0,1
863,863,-0.7875631629415271,-0.8,0.0,1.0,261.0,534.0,1.0,0,555.0,1
864,864,-0.16396495365584507,-0.2,1.0,0.0,427.0,929.0,0.0,0,384.0,1
865,865,-0.5897272163463914,-0.6,1.0,0.0,303.0,535.0,0.0,0,742.0,1
866,866,-0.4221973081241941,-0.4,1.0,0.0,255.0,978.0,0.0,0,117.0,1
867,867,0.7475736702415797,0.7,0.0,0.0,396.0,862.0,0.0,1,212.0,1
868,868,0.8999920512203069,0.9,0.0,0.0,447.0,955.0,0.0,1,68.0,1
869,869,0.49396683043736067,0.5,0.0,0.0,336.0,742.0,0.0,1,422.0,1
870,870,-0.5654948148032153,-0.6,0.0,1.0,341.0,606.0,0.0,1,493.0,0
871,871,-0.1436217098386695,-0.1,0.0,1.0,361.0,803.0,1.0,0,366.0,1
872,872,0.6920762745112555,0.7,1.0,1.0,349.0,869.0,1.0,1,282.0,1
873,873,0.01811487546069046,0.0,1.0,1.0,495.0,843.0,0.0,0,472.0,0
874,874,0.5102101843914392,0.5,0.0,0.0,390.0,724.0,0.0,1,496.0,1
875,875,0.14037624440086394,0.1,1.0,1.0,324.0,678.0,1.0,1,1058.0,1
876,876,0.88778222167543,0.9,1.0,1.0,360.0,667.0,1.0,1,543.0,1
877,877,0.07284738825068882,0.1,0.0,0.0,410.0,994.0,1.0,0,536.0,0
878,878,0.17588778563720486,0.2,0.0,0.0,321.0,924.0,0.0,1,465.0,1
879,879,0.7232978456447955,0.7,1.0,1.0,304.0,956.0,1.0,1,160.0,1
880,880,-0.5130777438463681,-0.5,1.0,0.0,310.0,576.0,0.0,0,454.0,1
881,881,0.5110744508782269,0.5,0.0,0.0,408.0,516.0,0.0,1,406.0,1
882,882,0.5935111021792671,0.6,0.0,0.0,333.0,835.0,0.0,1,172.0,1
883,883,-0.33866396925172715,-0.3,0.0,1.0,356.0,908.0,0.0,1,246.0,0
884,884,0.05136608535260112,0.1,0.0,0.0,437.0,696.0,0.0,1,357.0,1
885,885,0.7507813570554259,0.8,0.0,0.0,384.0,829.0,0.0,1,327.0,1
886,886,-0.39938753477616273,-0.4,1.0,0.0,441.0,906.0,0.0,0,263.0,1
887,887,0.8596967545265911,0.9,0.0,0.0,388.0,512.0,0.0,1,810.0,1
888,888,0.6264598760413552,0.6,1.0,1.0,471.0,891.0,1.0,1,568.0,1
889,889,-0.8219906472362024,-0.8,1.0,0.0,391.0,866.0,0.0,0,143.0,1
890,890,-0.6753658681913106,-0.7,0.0,1.0,276.0,832.0,1.0,0,982.0,1
891,891,-0.791809446325739,-0.8,1.0,0.0,296.0,636.0,0.0,0,468.0,1
892,892,-0.34391018451949473,-0.3,0.0,1.0,442.0,650.0,1.0,0,658.0,1
893,893,-0.7292072110833054,-0.7,0.0,1.0,260.0,751.0,1.0,0,249.0,1
894,894,0.13355510295169537,0.1,0.0,0.0,369.0,791.0,0.0,1,430.0,1
895,895,0.09874124992209599,0.1,1.0,1.0,262.0,508.0,0.0,0,440.0,0
896,896,-0.6349837550675241,-0.6,0.0,1.0,394.0,895.0,1.0,0,821.0,1
897,897,-0.4130773634275778,-0.4,0.0,1.0,337.0,677.0,0.0,1,236.0,0
898,898,0.0066296373515156715,0.0,1.0,1.0,347.0,586.0,1.0,1,497.0,1
899,899,-0.7589076741602334,-0.8,1.0,0.0,401.0,815.0,0.0,0,574.0,1
900,900,0.07406096698591047,0.1,0.0,0.0,482.0,938.0,1.0,0,1500.0,0
901,901,0.3909388107692965,0.4,1.0,1.0,424.0,761.0,1.0,1,795.0,1
902,902,-0.6161451496559965,-0.6,1.0,0.0,491.0,996.0,0.0,0,323.0,1
903,903,0.055172515415315315,0.1,0.0,0.0,287.0,609.0,0.0,1,964.0,1
904,904,-0.2991391464704428,-0.3,0.0,1.0,427.0,831.0,1.0,0,832.0,1
905,905,-0.4452404184790858,-0.4,0.0,1.0,473.0,865.0,0.0,1,142.0,0
906,906,-0.5932008733971699,-0.6,1.0,0.0,282.0,835.0,1.0,1,-57.0,0
907,907,-0.6173720070551151,-0.6,0.0,1.0,381.0,598.0,0.0,1,401.0,0
908,908,0.7777275779053144,0.8,1.0,1.0,326.0,886.0,1.0,1,538.0,1
909,909,-0.13722742215392814,-0.1,0.0,1.0,355.0,878.0,1.0,0,1407.0,1
910,910,-0.5464492703864424,-0.5,0.0,1.0,411.0,561.0,1.0,0,608.0,1
911,911,0.6002917266347222,0.6,0.0,0.0,472.0,513.0,0.0,1,565.0,1
912,912,0.8557647638341327,0.9,0.0,0.0,421.0,620.0,0.0,1,409.0,1
913,913,0.5260579268848248,0.5,0.0,0.0,450.0,969.0,0.0,1,511.0,1
914,914,-0.44682900319391455,-0.4,1.0,0.0,303.0,857.0,0.0,0,270.0,1
915,915,0.5282899815586352,0.5,0.0,0.0,307.0,513.0,0.0,1,720.0,1
916,916,0.759790162021064,0.8,1.0,1.0,388.0,754.0,1.0,1,198.0,1
917,917,0.7457116045144806,0.7,0.0,0.0,264.0,640.0,0.0,1,566.0,1
918,918,-0.40744052616898774,-0.4,1.0,0.0,260.0,501.0,0.0,0,449.0,1
919,919,-0.6969777056262267,-0.7,0.0,1.0,268.0,991.0,1.0,0,321.0,1
920,920,-0.6282946292641334,-0.6,0.0,1.0,270.0,872.0,1.0,0,278.0,1
921,921,0.468773220783106,0.5,0.0,0.0,430.0,831.0,0.0,1,309.0,1
922,922,-0.14561224427838826,-0.1,0.0,1.0,429.0,757.0,0.0,1,704.0,0
923,923,0.6669197934380547,0.7,1.0,1.0,474.0,515.0,1.0,1,591.0,1
924,924,-0.778577940643071,-0.8,0.0,1.0,420.0,832.0,1.0,0,368.0,1
925,925,-0.8544381016718419,-0.9,1.0,0.0,399.0,694.0,0.0,0,307.0,1
926,926,0.4259618157362547,0.4,1.0,1.0,250.0,989.0,1.0,1,1211.0,1
927,927,-0.5918824120413491,-0.6,0.0,1.0,476.0,554.0,1.0,0,600.0,1
928,928,0.8669265114118548,0.9,1.0,1.0,351.0,564.0,1.0,1,445.0,1
929,929,-0.5959764618294547,-0.6,0.0,1.0,359.0,810.0,1.0,0,171.0,1
930,930,0.49611178219067054,0.5,0.0,0.0,415.0,947.0,0.0,1,568.0,1
931,931,0.20711465798232098,0.2,0.0,0.0,319.0,717.0,0.0,1,894.0,1
932,932,0.8777461391591247,0.9,1.0,1.0,446.0,580.0,1.0,1,504.0,1
933,933,0.8476284165414819,0.8,0.0,0.0,419.0,994.0,0.0,1,217.0,1
934,934,-0.7672981034185291,-0.8,0.0,1.0,352.0,893.0,1.0,0,695.0,1
935,935,-0.03520345377356937,-0.0,1.0,0.0,484.0,711.0,0.0,0,365.0,1
936,936,-0.21518326626690754,-0.2,0.0,1.0,480.0,525.0,0.0,1,2905.0,0
937,937,-0.48370690595356974,-0.5,1.0,0.0,350.0,723.0,0.0,0,327.0,1
938,938,-0.7612301891179215,-0.8,0.0,1.0,256.0,513.0,1.0,0,421.0,1
939,939,0.17575829988509206,0.2,0.0,0.0,441.0,501.0,0.0,1,808.0,1
940,940,0.47225361387754916,0.5,0.0,0.0,479.0,766.0,0.0,1,295.0,1
941,941,0.8179883998990581,0.8,1.0,1.0,270.0,744.0,1.0,1,556.0,1
942,942,-0.898456711756427,-0.9,0.0,1.0,395.0,833.0,1.0,0,422.0,1
943,943,-0.5475491725820331,-0.5,1.0,0.0,485.0,632.0,0.0,0,243.0,1
944,944,0.5336605378260143,0.5,1.0,1.0,350.0,602.0,0.0,0,728.0,0
945,945,-0.34635409205458145,-0.3,0.0,1.0,326.0,521.0,1.0,0,583.0,1
946,946,0.26848858293676037,0.3,0.0,0.0,467.0,726.0,0.0,1,377.0,1
947,947,0.5811752672125196,0.6,0.0,0.0,310.0,981.0,0.0,1,429.0,1
948,948,0.40144527300302235,0.4,0.0,0.0,318.0,882.0,1.0,0,30.0,0
949,949,-0.5787259253754193,-0.6,0.0,1.0,268.0,901.0,1.0,0,151.0,1
950,950,-0.19968370782784217,-0.2,0.0,1.0,253.0,690.0,0.0,1,987.0,0
951,951,0.4275944370025112,0.4,0.0,0.0,391.0,782.0,0.0,1,407.0,1
952,952,0.3496637735177569,0.3,1.0,1.0,266.0,776.0,1.0,1,448.0,1
953,953,-0.6623763711337826,-0.7,0.0,1.0,339.0,696.0,1.0,0,105.0,1
954,954,0.05192011218616521,0.1,0.0,0.0,479.0,519.0,0.0,1,542.0,1
955,955,-0.828052288058765,-0.8,1.0,0.0,347.0,999.0,0.0,0,254.0,1
956,956,0.29899279959453107,0.3,1.0,1.0,266.0,696.0,0.0,0,1108.0,0
957,957,-0.5527330501694516,-0.6,1.0,0.0,328.0,635.0,0.0,0,287.0,1
958,958,-0.3195179860353773,-0.3,1.0,0.0,265.0,950.0,0.0,0,255.0,1
959,959,0.5786539490926023,0.6,0.0,0.0,478.0,933.0,0.0,1,209.0,1
960,960,0.34976726811184033,0.3,0.0,0.0,486.0,627.0,0.0,1,747.0,1
961,961,-0.18317977907713823,-0.2,1.0,0.0,443.0,653.0,0.0,0,464.0,1
962,962,0.28345824275828646,0.3,1.0,1.0,454.0,946.0,1.0,1,-60.0,1
963,963,-0.700349007276673,-0.7,1.0,0.0,449.0,722.0,0.0,0,519.0,1
964,964,0.12363833528251733,0.1,0.0,0.0,410.0,712.0,0.0,1,428.0,1
965,965,-0.8704129075710579,-0.9,0.0,1.0,284.0,733.0,1.0,0,1073.0,1
966,966,-0.3519292196907392,-0.4,1.0,0.0,308.0,818.0,0.0,0,274.0,1
967,967,0.15880215930962638,0.2,1.0,1.0,441.0,690.0,0.0,0,839.0,0
968,968,0.6146770935446134,0.6,1.0,1.0,322.0,932.0,1.0,1,196.0,1
969,969,0.45192457962578547,0.5,1.0,1.0,433.0,868.0,0.0,0,-1.0,0
970,970,-0.04427027196064226,-0.0,1.0,0.0,310.0,984.0,1.0,1,206.0,0
971,971,0.4767652383924429,0.5,0.0,0.0,485.0,754.0,0.0,1,281.0,1
972,972,-0.3193843062075603,-0.3,1.0,0.0,253.0,955.0,0.0,0,122.0,1
973,973,-0.12240592183406418,-0.1,1.0,0.0,413.0,868.0,1.0,1,889.0,0
974,974,0.29079892646251315,0.3,0.0,0.0,315.0,723.0,0.0,1,642.0,1
975,975,-0.3854359690699459,-0.4,0.0,1.0,410.0,818.0,1.0,0,282.0,1
976,976,-0.47427741898664577,-0.5,1.0,0.0,285.0,535.0,0.0,0,520.0,1
977,977,-0.24742865082652477,-0.2,1.0,0.0,257.0,801.0,0.0,0,482.0,1
978,978,0.4998001422761137,0.5,1.0,1.0,428.0,642.0,1.0,1,370.0,1
979,979,0.5885867491009728,0.6,0.0,0.0,422.0,573.0,0.0,1,405.0,1
980,980,0.43930717805332054,0.4,0.0,0.0,312.0,936.0,0.0,1,202.0,1
981,981,-0.15795278933532575,-0.2,1.0,0.0,285.0,683.0,0.0,0,702.0,1
982,982,0.3807350274649185,0.4,1.0,1.0,370.0,663.0,0.0,0,677.0,0
983,983,-0.2732338887651129,-0.3,1.0,0.0,369.0,804.0,0.0,0,247.0,1
984,984,0.8795724083335953,0.9,1.0,1.0,332.0,922.0,1.0,1,126.0,1
985,985,0.48779472216668573,0.5,1.0,1.0,356.0,890.0,1.0,1,44.0,1
986,986,-0.021800357058460507,-0.0,0.0,1.0,472.0,659.0,0.0,1,389.0,0
987,987,-0.8763989867561649,-0.9,0.0,1.0,302.0,959.0,1.0,0,219.0,1
988,988,0.04250325044846748,0.0,1.0,1.0,423.0,997.0,0.0,0,130.0,0
989,989,0.8124536202257281,0.8,1.0,1.0,295.0,857.0,1.0,1,558.0,1
990,990,0.6946612780987004,0.7,0.0,0.0,462.0,859.0,0.0,1,289.0,1
991,991,-0.5023952048830417,-0.5,0.0,1.0,354.0,968.0,1.0,0,198.0,1
992,992,-0.019928813352440677,-0.0,0.0,1.0,443.0,759.0,0.0,1,1598.0,0
993,993,-0.1870353000829582,-0.2,0.0,1.0,336.0,786.0,0.0,1,1028.0,0
994,994,-0.5210923430724126,-0.5,1.0,0.0,424.0,957.0,0.0,0,249.0,1
995,995,0.49453947392187747,0.5,0.0,0.0,290.0,698.0,0.0,1,412.0,1
996,996,0.820862128609157,0.8,1.0,1.0,435.0,656.0,1.0,1,509.0,1
997,997,0.18741198144329985,0.2,0.0,0.0,451.0,642.0,0.0,1,507.0,1
998,998,0.14796669490838388,0.1,1.0,1.0,465.0,551.0,0.0,0,604.0,0
999,999,-0.03979778587994087,-0.0,1.0,0.0,413.0,789.0,0.0,0,318.0,1
1000,1000,-0.3796998240054855,-0.4,0.0,1.0,411.0,967.0,0.0,1,-118.0,0
1001,1001,-0.1432393474315391,-0.1,1.0,0.0,346.0,970.0,0.0,0,114.0,1
1002,1002,0.5145872385281313,0.5,0.0,0.0,365.0,507.0,0.0,1,418.0,1
1003,1003,-0.643087498954161,-0.6,1.0,0.0,439.0,760.0,0.0,0,401.0,1
1004,1004,-0.40689909109901756,-0.4,1.0,0.0,441.0,814.0,0.0,0,225.0,1
1005,1005,0.5328846063760332,0.5,0.0,0.0,426.0,787.0,0.0,1,337.0,1
1006,1006,0.34043262861429013,0.3,1.0,1.0,492.0,821.0,1.0,1,107.0,1
1007,1007,0.8192021550451817,0.8,1.0,1.0,426.0,613.0,0.0,0,741.0,0
1008,1008,-0.0032535019634959417,-0.0,0.0,1.0,312.0,832.0,1.0,0,266.0,1
1009,1009,0.27951737267702736,0.3,1.0,1.0,288.0,505.0,0.0,0,537.0,0
1010,1010,-0.6144992422075615,-0.6,0.0,1.0,382.0,671.0,1.0,0,787.0,1
1011,1011,0.6497690555380377,0.6,1.0,1.0,322.0,852.0,1.0,1,746.0,1
1012,1012,0.0432581590734642,0.0,0.0,0.0,257.0,898.0,0.0,1,675.0,1
1013,1013,-0.5006183499256345,-0.5,0.0,1.0,458.0,530.0,1.0,0,732.0,1
1014,1014,-0.691882391418127,-0.7,0.0,1.0,341.0,959.0,1.0,0,110.0,1
1015,1015,0.6519701298403814,0.7,1.0,1.0,414.0,734.0,1.0,1,1112.0,1
1016,1016,0.7899244604212224,0.8,0.0,0.0,413.0,774.0,0.0,1,253.0,1
1017,1017,-0.6644954463094861,-0.7,0.0,1.0,425.0,534.0,1.0,0,381.0,1
1018,1018,-0.31498974925359213,-0.3,0.0,1.0,492.0,613.0,1.0,0,655.0,1
1019,1019,-0.6203687966624748,-0.6,1.0,0.0,472.0,615.0,0.0,0,283.0,1
1020,1020,-0.6300211789725823,-0.6,1.0,0.0,389.0,526.0,0.0,0,375.0,1
1021,1021,-0.19443626937941583,-0.2,0.0,1.0,255.0,612.0,0.0,1,573.0,0
1022,1022,0.06328345730571339,0.1,1.0,1.0,498.0,917.0,1.0,1,305.0,1
1023,1023,-0.6479378405618486,-0.6,1.0,0.0,488.0,562.0,0.0,0,700.0,1
1024,1024,0.51684644691874,0.5,0.0,0.0,263.0,540.0,0.0,1,627.0,1
1025,1025,0.8395977921114709,0.8,0.0,0.0,462.0,863.0,0.0,1,285.0,1
1026,1026,0.08826374367613254,0.1,0.0,0.0,439.0,928.0,0.0,1,173.0,1
1027,1027,-0.21991236295957628,-0.2,0.0,1.0,452.0,703.0,1.0,0,575.0,1
1028,1028,-0.33587570738000827,-0.3,1.0,0.0,263.0,976.0,0.0,0,81.0,1
1029,1029,-0.42869838878036065,-0.4,1.0,0.0,293.0,778.0,0.0,0,199.0,1
1030,1030,-0.039862936938383275,-0.0,1.0,0.0,320.0,627.0,1.0,1,623.0,0
1031,1031,-0.5615639806473596,-0.6,1.0,0.0,272.0,641.0,0.0,0,457.0,1
1032,1032,-0.17124370601063388,-0.2,1.0,0.0,320.0,723.0,0.0,0,717.0,1
1033,1033,-0.1745473864885374,-0.2,0.0,1.0,279.0,715.0,0.0,1,446.0,0
1034,1034,-0.4982577257471236,-0.5,1.0,0.0,447.0,681.0,0.0,0,352.0,1
1035,1035,0.23487425478810786,0.2,1.0,1.0,409.0,887.0,0.0,0,164.0,0
1036,1036,-0.2423055688171626,-0.2,0.0,1.0,394.0,579.0,1.0,0,2537.0,1
1037,1037,-0.3500797388350212,-0.4,0.0,1.0,420.0,668.0,1.0,0,882.0,1
1038,1038,0.7928768518981021,0.8,1.0,1.0,363.0,981.0,1.0,1,466.0,1
1039,1039,-0.2047245924936152,-0.2,1.0,0.0,417.0,961.0,0.0,0,362.0,1
1040,1040,-0.26911860079389927,-0.3,1.0,0.0,317.0,899.0,0.0,0,244.0,1
1041,1041,0.4663621226133029,0.5,0.0,0.0,442.0,526.0,0.0,1,392.0,1
1042,1042,-0.7355714508685895,-0.7,0.0,1.0,418.0,646.0,1.0,0,346.0,1
1043,1043,-0.5042377010968946,-0.5,0.0,1.0,280.0,977.0,1.0,0,343.0,1
1044,1044,-0.31703996326303074,-0.3,1.0,0.0,468.0,938.0,0.0,0,184.0,1
1045,1045,0.828852329067861,0.8,1.0,1.0,469.0,549.0,1.0,1,572.0,1
1046,1046,-0.4046623504440911,-0.4,1.0,0.0,493.0,696.0,0.0,0,691.0,1
1047,1047,0.8201901324088333,0.8,1.0,1.0,424.0,619.0,1.0,1,417.0,1
1048,1048,-0.8297666288550791,-0.8,1.0,0.0,300.0,769.0,0.0,0,81.0,1
1049,1049,-0.6417742849787088,-0.6,1.0,0.0,329.0,671.0,0.0,0,250.0,1
1050,1050,0.5331303060200597,0.5,0.0,0.0,304.0,995.0,0.0,1,1.0,1
1051,1051,-0.7043789886934172,-0.7,1.0,0.0,362.0,624.0,0.0,0,504.0,1
1052,1052,0.2768774116099325,0.3,1.0,1.0,300.0,807.0,1.0,1,293.0,1
1053,1053,0.842853498283607,0.8,1.0,1.0,384.0,655.0,1.0,1,371.0,1
1054,1054,0.06652671728155668,0.1,1.0,1.0,350.0,864.0,1.0,1,276.0,1
1055,1055,-0.7219345645167399,-0.7,1.0,0.0,491.0,876.0,0.0,0,413.0,1
1056,1056,0.10840320098314538,0.1,1.0,1.0,450.0,619.0,1.0,1,831.0,1
1057,1057,0.3300836990400241,0.3,1.0,1.0,283.0,903.0,0.0,0,294.0,0
1058,1058,-0.3546673116171105,-0.4,1.0,0.0,472.0,836.0,0.0,0,172.0,1
1059,1059,0.23714072982739054,0.2,1.0,1.0,324.0,874.0,0.0,0,122.0,0
1060,1060,0.8725744814903492,0.9,0.0,0.0,399.0,823.0,0.0,1,348.0,1
1061,1061,-0.23779736547345343,-0.2,0.0,1.0,481.0,525.0,1.0,0,314.0,1
1062,1062,-0.2778108046414044,-0.3,1.0,0.0,413.0,745.0,0.0,0,192.0,1
1063,1063,-0.7266636141941617,-0.7,1.0,0.0,422.0,763.0,1.0,1,25.0,0
1064,1064,-0.3101478158358102,-0.3,0.0,1.0,389.0,720.0,0.0,1,771.0,0
1065,1065,-0.1565998631496769,-0.2,0.0,1.0,436.0,761.0,0.0,1,443.0,0
1066,1066,0.2212312805562736,0.2,0.0,0.0,425.0,774.0,0.0,1,1131.0,1
1067,1067,-0.3206321371748855,-0.3,1.0,0.0,455.0,791.0,0.0,0,284.0,1
1068,1068,0.6552637235085595,0.7,1.0,1.0,461.0,978.0,1.0,1,311.0,1
1069,1069,-0.013705583920876951,-0.0,1.0,0.0,459.0,812.0,0.0,0,169.0,1
1070,1070,-0.2884612639010766,-0.3,1.0,0.0,433.0,732.0,0.0,0,285.0,1
1071,1071,-0.6171395923665908,-0.6,0.0,1.0,473.0,715.0,1.0,0,242.0,1
1072,1072,0.43305231020928747,0.4,1.0,1.0,369.0,903.0,0.0,0,748.0,0
1073,1073,0.8867617721052642,0.9,1.0,1.0,346.0,546.0,1.0,1,358.0,1
1074,1074,-0.5402357773624626,-0.5,1.0,0.0,368.0,824.0,0.0,0,428.0,1
1075,1075,0.47127706961740345,0.5,1.0,1.0,434.0,755.0,0.0,0,421.0,0
1076,1076,-0.2671627627669686,-0.3,1.0,0.0,435.0,516.0,0.0,0,789.0,1
1077,1077,-0.5339014711535157,-0.5,1.0,0.0,271.0,663.0,0.0,0,416.0,1
1078,1078,0.27073327612157716,0.3,1.0,1.0,366.0,970.0,0.0,0,164.0,0
1079,1079,0.1719660230993102,0.2,1.0,1.0,485.0,653.0,1.0,1,382.0,1
1080,1080,0.1847334422563517,0.2,0.0,0.0,252.0,693.0,0.0,1,685.0,1
1081,1081,-0.8755915287692714,-0.9,0.0,1.0,321.0,629.0,1.0,0,480.0,1
1082,1082,-0.35000771374065676,-0.4,0.0,1.0,330.0,525.0,0.0,1,1215.0,0
1083,1083,-0.6383752016180739,-0.6,0.0,1.0,381.0,851.0,1.0,0,1278.0,1
1084,1084,-0.6031695637918579,-0.6,1.0,0.0,376.0,539.0,0.0,0,555.0,1
1085,1085,-0.5619952708774347,-0.6,1.0,0.0,409.0,617.0,0.0,0,304.0,1
1086,1086,-0.5413758701696545,-0.5,1.0,0.0,472.0,524.0,0.0,0,814.0,1
1087,1087,-0.6676230194732133,-0.7,0.0,1.0,370.0,893.0,1.0,0,267.0,1
1088,1088,0.6516357114727426,0.7,1.0,1.0,371.0,577.0,1.0,1,732.0,1
1089,1089,-0.40263907298987706,-0.4,0.0,1.0,484.0,510.0,1.0,0,546.0,1
1090,1090,0.20173653805281433,0.2,1.0,1.0,383.0,899.0,0.0,0,488.0,0
1091,1091,-0.26035343702036806,-0.3,1.0,0.0,407.0,577.0,0.0,0,186.0,1
1092,1092,-0.32410564222229576,-0.3,1.0,0.0,380.0,992.0,0.0,0,338.0,1
1093,1093,0.8652414485982102,0.9,0.0,0.0,338.0,626.0,0.0,1,746.0,1
1094,1094,0.7972918095740419,0.8,1.0,1.0,323.0,562.0,1.0,1,405.0,1
1095,1095,-0.37151497468797534,-0.4,0.0,1.0,495.0,885.0,1.0,0,420.0,1
1096,1096,0.3598749970099743,0.4,0.0,0.0,475.0,696.0,0.0,1,759.0,1
1097,1097,-0.32147678966375315,-0.3,0.0,1.0,345.0,577.0,1.0,0,918.0,1
1098,1098,0.2544365508671621,0.3,0.0,0.0,396.0,711.0,0.0,1,703.0,1
1099,1099,0.18720652613985223,0.2,0.0,0.0,409.0,650.0,0.0,1,1121.0,1
1100,1100,0.5927968676955128,0.6,0.0,0.0,452.0,869.0,0.0,1,179.0,1
1101,1101,0.7877794169352149,0.8,0.0,0.0,364.0,820.0,0.0,1,406.0,1
1102,1102,0.208607110205426,0.2,0.0,0.0,445.0,606.0,1.0,0,949.0,0
1103,1103,-0.7217946634172827,-0.7,0.0,1.0,271.0,573.0,1.0,0,686.0,1
1104,1104,-0.7456295446553833,-0.7,1.0,0.0,329.0,987.0,0.0,0,274.0,1
1105,1105,0.791698708275922,0.8,0.0,0.0,404.0,740.0,0.0,1,176.0,1
1106,1106,0.713247356383992,0.7,0.0,0.0,386.0,736.0,0.0,1,408.0,1
1107,1107,0.5876590745932452,0.6,1.0,1.0,455.0,744.0,1.0,1,361.0,1
1108,1108,-0.6278916849410638,-0.6,0.0,1.0,381.0,824.0,1.0,0,625.0,1
1109,1109,-0.043478646030951196,-0.0,0.0,1.0,284.0,781.0,1.0,0,1095.0,1
1110,1110,0.6435809264253339,0.6,0.0,0.0,386.0,830.0,0.0,1,344.0,1
1111,1111,0.8707378292766063,0.9,0.0,0.0,378.0,759.0,0.0,1,273.0,1
1112,1112,0.619565194977373,0.6,0.0,0.0,334.0,882.0,0.0,1,24.0,1
1113,1113,-0.005880958666167446,-0.0,1.0,0.0,330.0,882.0,0.0,0,28.0,1
1114,1114,-0.02327420414464154,-0.0,1.0,0.0,307.0,776.0,1.0,1,537.0,0
1115,1115,-0.7112098174962775,-0.7,1.0,0.0,377.0,686.0,0.0,0,297.0,1
1116,1116,0.17567181636056028,0.2,0.0,0.0,440.0,684.0,0.0,1,426.0,1
1117,1117,0.1744817862579956,0.2,1.0,1.0,491.0,804.0,1.0,1,755.0,1
1118,1118,0.06999007326368856,0.1,0.0,0.0,343.0,920.0,1.0,0,667.0,0
1119,1119,0.49414071693293116,0.5,0.0,0.0,386.0,789.0,0.0,1,315.0,1
1120,1120,-0.6335027126742507,-0.6,0.0,1.0,271.0,783.0,1.0,0,186.0,1
1121,1121,0.2666604083854093,0.3,1.0,1.0,366.0,886.0,0.0,0,108.0,0
1122,1122,-0.7378201318103705,-0.7,0.0,1.0,464.0,966.0,1.0,0,240.0,1
1123,1123,0.29994241672970345,0.3,0.0,0.0,484.0,789.0,0.0,1,697.0,1
1124,1124,-0.4704816636986739,-0.5,1.0,0.0,398.0,742.0,0.0,0,320.0,1
1125,1125,-0.040222079407995937,-0.0,0.0,1.0,333.0,792.0,1.0,0,35.0,1
1126,1126,0.02483742050431781,0.0,0.0,0.0,457.0,963.0,1.0,0,380.0,0
1127,1127,-0.7481133352693459,-0.7,1.0,0.0,286.0,606.0,0.0,0,518.0,1
1128,1128,0.6891045166481141,0.7,1.0,1.0,418.0,749.0,1.0,1,343.0,1
1129,1129,0.7438634451457234,0.7,0.0,0.0,284.0,792.0,0.0,1,244.0,1
1130,1130,0.4344918263910934,0.4,1.0,1.0,279.0,732.0,1.0,1,329.0,1
1131,1131,-0.4606321499865109,-0.5,0.0,1.0,449.0,614.0,1.0,0,657.0,1
1132,1132,0.03595314300157426,0.0,1.0,1.0,305.0,993.0,0.0,0,292.0,0
1133,1133,0.04447023846304632,0.0,1.0,1.0,377.0,837.0,0.0,0,536.0,0
1134,1134,0.5686026078121352,0.6,1.0,1.0,383.0,504.0,1.0,1,563.0,1
1135,1135,-0.19366636645340374,-0.2,1.0,0.0,366.0,987.0,1.0,1,57.0,0
1136,1136,-0.7733651212445821,-0.8,0.0,1.0,371.0,576.0,1.0,0,693.0,1
1137,1137,-0.7859246642136399,-0.8,1.0,0.0,457.0,757.0,0.0,0,596.0,1
1138,1138,-0.2900584708533165,-0.3,1.0,0.0,262.0,776.0,0.0,0,502.0,1
1139,1139,-0.5921991878304198,-0.6,1.0,0.0,486.0,980.0,0.0,0,284.0,1
1140,1140,0.8415214444954281,0.8,1.0,1.0,303.0,676.0,1.0,1,391.0,1
1141,1141,-0.195005563358714,-0.2,0.0,1.0,280.0,918.0,0.0,1,42.0,0
1142,1142,0.09369556649115673,0.1,0.0,0.0,370.0,522.0,0.0,1,738.0,1
1143,1143,-0.5826610986015597,-0.6,0.0,1.0,305.0,595.0,1.0,0,540.0,1
1144,1144,-0.38479129816920143,-0.4,0.0,1.0,250.0,619.0,0.0,1,571.0,0
1145,1145,0.8431302541628448,0.8,0.0,0.0,462.0,720.0,0.0,1,358.0,1
1146,1146,0.22616167020844646,0.2,1.0,1.0,374.0,742.0,1.0,1,464.0,1
1147,1147,0.13191428191352872,0.1,0.0,0.0,478.0,825.0,0.0,1,477.0,1
1148,1148,-0.7884399767336951,-0.8,0.0,1.0,390.0,684.0,1.0,0,226.0,1
1149,1149,-0.8955284480153889,-0.9,1.0,0.0,353.0,990.0,0.0,0,127.0,1
1150,1150,0.0902436884519,0.1,0.0,0.0,464.0,686.0,0.0,1,430.0,1
1151,1151,0.1739042097149145,0.2,1.0,1.0,470.0,937.0,0.0,0,143.0,0
1152,1152,0.8244783611140768,0.8,0.0,0.0,452.0,848.0,0.0,1,270.0,1
1153,1153,-0.5695875892802906,-0.6,1.0,0.0,417.0,956.0,0.0,0,87.0,1
1154,1154,0.7061479829017953,0.7,1.0,1.0,449.0,689.0,1.0,1,322.0,1
1155,1155,0.45423693005662613,0.5,0.0,0.0,449.0,620.0,0.0,1,331.0,1
1156,1156,-0.3610053268802228,-0.4,0.0,1.0,348.0,969.0,0.0,1,-37.0,0
1157,1157,-0.7435601426567843,-0.7,1.0,0.0,432.0,895.0,0.0,0,363.0,1
1158,1158,0.3616308628522956,0.4,0.0,0.0,323.0,567.0,0.0,1,940.0,1
1159,1159,-0.428897863531918,-0.4,0.0,1.0,444.0,997.0,1.0,0,289.0,1
1160,1160,-0.7545579477175447,-0.8,0.0,1.0,487.0,516.0,0.0,1,107.0,0
1161,1161,0.4853285729660767,0.5,1.0,1.0,391.0,588.0,1.0,1,351.0,1
1162,1162,-0.46326654959390595,-0.5,1.0,0.0,306.0,920.0,0.0,0,554.0,1
1163,1163,-0.20430413488645593,-0.2,0.0,1.0,353.0,820.0,0.0,1,517.0,0
1164,1164,-0.03259610285092629,-0.0,1.0,0.0,289.0,515.0,0.0,0,626.0,1
1165,1165,-0.01839957299961137,-0.0,0.0,1.0,419.0,955.0,0.0,1,916.0,0
1166,1166,-0.3745501847176367,-0.4,1.0,0.0,445.0,602.0,0.0,0,703.0,1
1167,1167,0.5304479682151647,0.5,1.0,1.0,320.0,562.0,1.0,1,838.0,1
1168,1168,-0.5566278582588609,-0.6,0.0,1.0,388.0,667.0,1.0,0,215.0,1
1169,1169,0.14337163419770838,0.1,0.0,0.0,404.0,845.0,0.0,1,91.0,1
1170,1170,-0.15859886905638554,-0.2,1.0,0.0,435.0,506.0,0.0,0,489.0,1
1171,1171,0.6095014784289526,0.6,0.0,0.0,417.0,687.0,0.0,1,406.0,1
1172,1172,-0.698817680376795,-0.7,1.0,0.0,492.0,634.0,0.0,0,134.0,1
1173,1173,-0.5026639686549006,-0.5,1.0,0.0,440.0,536.0,0.0,0,594.0,1
1174,1174,-0.3461768669519455,-0.3,1.0,0.0,452.0,529.0,0.0,0,549.0,1
1175,1175,-0.555869840579877,-0.6,0.0,1.0,488.0,508.0,1.0,0,354.0,1
1176,1176,-0.24305633016342043,-0.2,1.0,0.0,452.0,659.0,0.0,0,469.0,1
1177,1177,-0.5018573504740156,-0.5,0.0,1.0,440.0,752.0,1.0,0,218.0,1
1178,1178,-0.8454630648452528,-0.8,0.0,1.0,374.0,768.0,1.0,0,418.0,1
1179,1179,0.45119036956332625,0.5,0.0,0.0,463.0,873.0,0.0,1,204.0,1
1180,1180,0.21336134132582163,0.2,1.0,1.0,325.0,506.0,1.0,1,689.0,1
1181,1181,0.8538102269856137,0.9,1.0,1.0,252.0,586.0,1.0,1,412.0,1
1182,1182,-0.6426423868806148,-0.6,0.0,1.0,303.0,507.0,1.0,0,400.0,1
1183,1183,-0.3724501717276456,-0.4,0.0,1.0,280.0,934.0,1.0,0,696.0,1
1184,1184,-0.8485469509696127,-0.8,0.0,1.0,320.0,653.0,1.0,0,327.0,1
1185,1185,-0.843419241585981,-0.8,1.0,0.0,466.0,772.0,0.0,0,322.0,1
1186,1186,-0.6314323087027441,-0.6,1.0,0.0,494.0,981.0,0.0,0,545.0,1
1187,1187,-0.12535921670599104,-0.1,0.0,1.0,498.0,770.0,0.0,1,752.0,0
1188,1188,0.5559399898360887,0.6,0.0,0.0,273.0,540.0,0.0,1,767.0,1
1189,1189,0.698353080449548,0.7,0.0,0.0,434.0,771.0,0.0,1,195.0,1
1190,1190,0.7516942330525137,0.8,0.0,0.0,477.0,685.0,0.0,1,598.0,1
1191,1191,-0.6476514870335859,-0.6,1.0,0.0,429.0,958.0,0.0,0,93.0,1
1192,1192,0.12858263617234977,0.1,1.0,1.0,329.0,664.0,0.0,0,1797.0,0
1193,1193,-0.0688496453982349,-0.1,0.0,1.0,346.0,666.0,0.0,1,688.0,0
1194,1194,0.5246345916859793,0.5,0.0,0.0,397.0,570.0,0.0,1,633.0,1
1195,1195,0.7995854876410523,0.8,1.0,1.0,334.0,717.0,1.0,1,349.0,1
1196,1196,0.6626207370046558,0.7,1.0,1.0,493.0,861.0,0.0,0,806.0,0
1197,1197,0.2806076995204537,0.3,1.0,1.0,391.0,903.0,1.0,1,856.0,1
1198,1198,-0.27758182440154633,-0.3,1.0,0.0,299.0,976.0,0.0,0,165.0,1
1199,1199,-0.24452204201043137,-0.2,0.0,1.0,263.0,902.0,0.0,1,935.0,0
1200,1200,0.3288682683586456,0.3,0.0,0.0,460.0,750.0,0.0,1,270.0,1
1201,1201,0.5042175804514527,0.5,0.0,0.0,454.0,870.0,0.0,1,956.0,1
1202,1202,0.1236024660130165,0.1,0.0,0.0,383.0,989.0,0.0,1,318.0,1
1203,1203,-0.24302671903789297,-0.2,0.0,1.0,389.0,576.0,1.0,0,585.0,1
1204,1204,-0.6472026659188659,-0.6,0.0,1.0,388.0,699.0,1.0,0,783.0,1
1205,1205,0.1426067432911312,0.1,0.0,0.0,260.0,800.0,0.0,1,500.0,1
1206,1206,0.884848444366014,0.9,0.0,0.0,302.0,825.0,0.0,1,103.0,1
1207,1207,0.6268948858394882,0.6,1.0,1.0,275.0,537.0,1.0,1,698.0,1
1208,1208,0.009347921247424451,0.0,1.0,1.0,477.0,843.0,0.0,0,800.0,0
1209,1209,-0.36487899661420564,-0.4,0.0,1.0,451.0,551.0,1.0,0,788.0,1
1210,1210,0.7007209002659655,0.7,1.0,1.0,254.0,876.0,1.0,1,330.0,1
1211,1211,-0.40351958307673436,-0.4,0.0,1.0,328.0,714.0,1.0,0,728.0,1
1212,1212,0.39875493755241453,0.4,1.0,1.0,493.0,664.0,1.0,1,653.0,1
1213,1213,-0.08003635864468872,-0.1,1.0,0.0,481.0,588.0,0.0,0,511.0,1
1214,1214,-0.700719065198476,-0.7,0.0,1.0,409.0,982.0,1.0,0,129.0,1
1215,1215,-0.5982263620827657,-0.6,1.0,0.0,466.0,962.0,0.0,0,42.0,1
1216,1216,-0.836003563242353,-0.8,0.0,1.0,338.0,970.0,1.0,0,-178.0,1
1217,1217,0.30578426698931416,0.3,0.0,0.0,314.0,672.0,0.0,1,244.0,1
1218,1218,-0.7318955775729136,-0.7,1.0,0.0,463.0,965.0,0.0,0,-68.0,1
1219,1219,-0.13859070940530238,-0.1,0.0,1.0,262.0,913.0,1.0,0,215.0,1
1220,1220,-0.008151596174523434,-0.0,1.0,0.0,495.0,777.0,0.0,0,418.0,1
1221,1221,-0.8911991869993076,-0.9,1.0,0.0,378.0,618.0,0.0,0,494.0,1
1222,1222,0.8695988588666338,0.9,0.0,0.0,490.0,622.0,0.0,1,338.0,1
1223,1223,-0.741646408422731,-0.7,1.0,0.0,359.0,599.0,0.0,0,422.0,1
1224,1224,-0.7034196887690032,-0.7,1.0,0.0,461.0,605.0,0.0,0,314.0,1
1225,1225,-0.1704297040298408,-0.2,0.0,1.0,414.0,991.0,0.0,1,385.0,0
1226,1226,0.45619991926517833,0.5,0.0,0.0,259.0,895.0,0.0,1,186.0,1
1227,1227,0.4971938781698385,0.5,1.0,1.0,284.0,752.0,1.0,1,214.0,1
1228,1228,0.3461245497543558,0.3,1.0,1.0,469.0,809.0,0.0,0,542.0,0
1229,1229,0.11056628594770934,0.1,0.0,0.0,475.0,545.0,0.0,1,460.0,1
1230,1230,-0.044814871875969,-0.0,0.0,1.0,490.0,717.0,1.0,0,583.0,1
1231,1231,-0.8025016129176162,-0.8,0.0,1.0,447.0,906.0,1.0,0,367.0,1
1232,1232,-0.3576282140253009,-0.4,1.0,0.0,268.0,907.0,0.0,0,305.0,1
1233,1233,-0.20903382555182004,-0.2,1.0,0.0,436.0,727.0,0.0,0,687.0,1
1234,1234,-0.7423823007165039,-0.7,0.0,1.0,287.0,896.0,1.0,0,57.0,1
1235,1235,-0.662517332408235,-0.7,0.0,1.0,368.0,619.0,1.0,0,433.0,1
1236,1236,-0.6008630163215987,-0.6,0.0,1.0,397.0,721.0,1.0,0,962.0,1
1237,1237,0.8594036315238928,0.9,0.0,0.0,261.0,704.0,0.0,1,135.0,1
1238,1238,0.22774607404687186,0.2,0.0,0.0,419.0,919.0,0.0,1,222.0,1
1239,1239,0.6748205357597769,0.7,1.0,1.0,281.0,752.0,1.0,1,1147.0,1
1240,1240,-0.1266603456677019,-0.1,0.0,1.0,446.0,708.0,1.0,0,906.0,1
1241,1241,-0.5319395443505367,-0.5,1.0,0.0,433.0,549.0,0.0,0,358.0,1
1242,1242,-0.464993770051846,-0.5,0.0,1.0,251.0,723.0,1.0,0,626.0,1
1243,1243,-0.715004659385538,-0.7,0.0,1.0,342.0,598.0,1.0,0,480.0,1
1244,1244,-0.053059557941426916,-0.1,1.0,0.0,395.0,936.0,1.0,1,299.0,0
1245,1245,-0.1913421724001143,-0.2,0.0,1.0,289.0,994.0,0.0,1,557.0,0
1246,1246,-0.5905106854410214,-0.6,1.0,0.0,289.0,988.0,0.0,0,213.0,1
1247,1247,0.08978013732145829,0.1,1.0,1.0,409.0,614.0,0.0,0,377.0,0
1248,1248,0.3764723568125038,0.4,1.0,1.0,379.0,936.0,0.0,0,925.0,0
1249,1249,-0.5187461876569068,-0.5,1.0,0.0,277.0,818.0,0.0,0,445.0,1
1250,1250,0.16499606174890247,0.2,0.0,0.0,336.0,991.0,0.0,1,373.0,1
1251,1251,-0.32555364015264854,-0.3,1.0,0.0,317.0,764.0,0.0,0,419.0,1
1252,1252,-0.7631127287902618,-0.8,0.0,1.0,406.0,707.0,1.0,0,347.0,1
1253,1253,0.3790408134257167,0.4,1.0,1.0,421.0,508.0,1.0,1,2201.0,1
1254,1254,0.39862055403806196,0.4,0.0,0.0,425.0,656.0,0.0,1,739.0,1
1255,1255,-0.6213420685292392,-0.6,0.0,1.0,355.0,926.0,1.0,0,539.0,1
1256,1256,-0.054834730211101745,-0.1,0.0,1.0,294.0,843.0,1.0,0,463.0,1
1257,1257,0.7938510183476223,0.8,0.0,0.0,277.0,612.0,0.0,1,211.0,1
1258,1258,0.7943152988003731,0.8,0.0,0.0,371.0,740.0,0.0,1,269.0,1
1259,1259,0.8630242121365027,0.9,0.0,0.0,452.0,765.0,0.0,1,213.0,1
1260,1260,-0.7950713956133734,-0.8,1.0,0.0,412.0,945.0,1.0,1,-117.0,0
1261,1261,-0.05667693752322267,-0.1,0.0,1.0,445.0,701.0,0.0,1,914.0,0
1262,1262,-0.3893230285596466,-0.4,1.0,0.0,489.0,643.0,0.0,0,648.0,1
1263,1263,-0.12444988983810479,-0.1,0.0,1.0,303.0,537.0,0.0,1,420.0,0
1264,1264,-0.4588946362585048,-0.5,0.0,1.0,395.0,973.0,1.0,0,532.0,1
1265,1265,0.41844455354824295,0.4,0.0,0.0,446.0,546.0,0.0,1,1008.0,1
1266,1266,0.871861287682597,0.9,0.0,0.0,303.0,817.0,0.0,1,200.0,1
1267,1267,0.3090540091672952,0.3,1.0,1.0,384.0,582.0,1.0,1,514.0,1
1268,1268,0.27284004153210495,0.3,1.0,1.0,369.0,687.0,1.0,1,814.0,1
1269,1269,0.32761694257206,0.3,1.0,1.0,346.0,585.0,0.0,0,129.0,0
1270,1270,-0.7040711775467567,-0.7,0.0,1.0,374.0,678.0,1.0,0,198.0,1
1271,1271,0.515648513354468,0.5,0.0,0.0,295.0,546.0,0.0,1,1049.0,1
1272,1272,0.30774064956453306,0.3,0.0,0.0,453.0,707.0,0.0,1,60.0,1
1273,1273,0.38092731753256326,0.4,1.0,1.0,468.0,639.0,0.0,0,1513.0,0
1274,1274,-0.6331234882557655,-0.6,1.0,0.0,425.0,893.0,0.0,0,322.0,1
1275,1275,0.08007001591271456,0.1,1.0,1.0,399.0,887.0,0.0,0,484.0,0
1276,1276,0.10430671189271157,0.1,1.0,1.0,311.0,600.0,0.0,0,729.0,0
1277,1277,0.25532797704670884,0.3,1.0,1.0,318.0,683.0,0.0,0,729.0,0
1278,1278,-0.4387747287106864,-0.4,1.0,0.0,257.0,983.0,0.0,0,80.0,1
1279,1279,0.8616918959562948,0.9,1.0,1.0,495.0,693.0,1.0,1,432.0,1
1280,1280,-0.2299057199188833,-0.2,1.0,0.0,382.0,576.0,0.0,0,642.0,1
1281,1281,0.42479130073576676,0.4,1.0,1.0,265.0,995.0,0.0,0,140.0,0
1282,1282,0.38506809790472263,0.4,0.0,0.0,351.0,770.0,0.0,1,59.0,1
1283,1283,0.188533789610427,0.2,0.0,0.0,258.0,817.0,0.0,1,135.0,1
1284,1284,-0.7351043676380751,-0.7,0.0,1.0,467.0,967.0,1.0,0,276.0,1
1285,1285,-0.30506380871912464,-0.3,1.0,0.0,450.0,758.0,0.0,0,1022.0,1
1286,1286,-0.6335287430311136,-0.6,1.0,0.0,452.0,780.0,0.0,0,318.0,1
1287,1287,-0.8644444884062651,-0.9,1.0,0.0,321.0,551.0,0.0,0,398.0,1
1288,1288,0.6911706397965879,0.7,1.0,1.0,282.0,681.0,1.0,1,487.0,1
1289,1289,-0.1459694338794364,-0.1,1.0,0.0,301.0,693.0,0.0,0,466.0,1
1290,1290,0.05743672895066698,0.1,0.0,0.0,457.0,839.0,1.0,0,124.0,0
1291,1291,0.830095067584434,0.8,1.0,1.0,353.0,740.0,1.0,1,307.0,1
1292,1292,0.3810978971525535,0.4,1.0,1.0,428.0,541.0,1.0,1,1421.0,1
1293,1293,-0.3621043312799156,-0.4,0.0,1.0,499.0,769.0,0.0,1,2062.0,0
1294,1294,-0.42585172640445346,-0.4,0.0,1.0,344.0,688.0,1.0,0,368.0,1
1295,1295,0.18335734471673548,0.2,0.0,0.0,419.0,893.0,0.0,1,228.0,1
1296,1296,0.7730701881222876,0.8,1.0,1.0,391.0,586.0,1.0,1,603.0,1
1297,1297,-0.8207328977710764,-0.8,1.0,0.0,375.0,801.0,0.0,0,194.0,1
1298,1298,0.6933141966762041,0.7,0.0,0.0,402.0,601.0,0.0,1,437.0,1
1299,1299,-0.01562545052686526,-0.0,1.0,0.0,369.0,606.0,0.0,0,885.0,1
1300,1300,-0.5671077429307128,-0.6,0.0,1.0,432.0,691.0,1.0,0,427.0,1
1301,1301,0.43922879368686474,0.4,1.0,1.0,363.0,932.0,1.0,1,405.0,1
1302,1302,-0.3504771160215914,-0.4,1.0,0.0,394.0,733.0,0.0,0,223.0,1
1303,1303,-0.5646410255400859,-0.6,0.0,1.0,390.0,923.0,1.0,0,197.0,1
1304,1304,0.4558323163365704,0.5,1.0,1.0,452.0,664.0,1.0,1,614.0,1
1305,1305,-0.3019232283424471,-0.3,1.0,0.0,329.0,576.0,0.0,0,725.0,1
1306,1306,-0.7489337861144533,-0.7,0.0,1.0,452.0,977.0,1.0,0,121.0,1
1307,1307,0.4216126849577465,0.4,1.0,1.0,362.0,622.0,1.0,1,746.0,1
1308,1308,0.002621177732991753,0.0,1.0,1.0,316.0,550.0,0.0,0,964.0,0
1309,1309,-0.1872148833896331,-0.2,1.0,0.0,413.0,792.0,0.0,0,555.0,1
1310,1310,-0.446328537450054,-0.4,1.0,0.0,310.0,596.0,0.0,0,344.0,1
1311,1311,-0.12841689478771923,-0.1,0.0,1.0,465.0,912.0,0.0,1,203.0,0
1312,1312,-0.6409279793418863,-0.6,1.0,0.0,294.0,757.0,0.0,0,379.0,1
1313,1313,-0.06950696829386416,-0.1,1.0,0.0,438.0,608.0,1.0,1,824.0,0
1314,1314,-0.1387971656111492,-0.1,1.0,0.0,280.0,538.0,0.0,0,462.0,1
1315,1315,-0.19542772267108766,-0.2,0.0,1.0,325.0,981.0,1.0,0,254.0,1
1316,1316,-0.01883645566651626,-0.0,0.0,1.0,251.0,555.0,0.0,1,694.0,0
1317,1317,0.6923024335212088,0.7,1.0,1.0,484.0,876.0,0.0,0,-730.0,0
1318,1318,0.07959359406451283,0.1,1.0,1.0,381.0,962.0,1.0,1,1047.0,1
1319,1319,-0.3006707028040235,-0.3,1.0,0.0,339.0,898.0,1.0,1,33.0,0
1320,1320,-0.8237646748887735,-0.8,1.0,0.0,304.0,526.0,0.0,0,430.0,1
1321,1321,0.38822544201595155,0.4,0.0,0.0,275.0,647.0,1.0,0,428.0,0
1322,1322,0.5621952411288994,0.6,1.0,1.0,423.0,821.0,0.0,0,296.0,0
1323,1323,0.48486316766179993,0.5,1.0,1.0,452.0,731.0,1.0,1,657.0,1
1324,1324,-0.1358374492470772,-0.1,0.0,1.0,339.0,608.0,0.0,1,-47.0,0
1325,1325,0.703915053519545,0.7,0.0,0.0,469.0,810.0,0.0,1,301.0,1
1326,1326,-0.1744809567981095,-0.2,1.0,0.0,346.0,973.0,0.0,0,1261.0,1
1327,1327,0.5509553426560324,0.6,0.0,0.0,320.0,861.0,0.0,1,79.0,1
1328,1328,-0.0696278424379887,-0.1,1.0,0.0,338.0,803.0,0.0,0,49.0,1
1329,1329,-0.3505319490423823,-0.4,1.0,0.0,475.0,640.0,0.0,0,325.0,1
1330,1330,0.04091539790940446,0.0,0.0,0.0,480.0,950.0,1.0,0,2820.0,0
1331,1331,0.28979039100761306,0.3,1.0,1.0,411.0,669.0,0.0,0,420.0,0
1332,1332,-0.32211400796019685,-0.3,1.0,0.0,422.0,571.0,0.0,0,827.0,1
1333,1333,-0.12382400373733571,-0.1,1.0,0.0,475.0,807.0,0.0,0,168.0,1
1334,1334,0.8471107014098603,0.8,0.0,0.0,422.0,988.0,0.0,1,320.0,1
1335,1335,0.8993153614518757,0.9,0.0,0.0,375.0,930.0,0.0,1,55.0,1
1336,1336,-0.7009066840313276,-0.7,1.0,0.0,441.0,998.0,0.0,0,251.0,1
1337,1337,-0.689387953119293,-0.7,0.0,1.0,355.0,576.0,1.0,0,389.0,1
1338,1338,-0.3387184317095083,-0.3,1.0,0.0,301.0,958.0,0.0,0,11.0,1
1339,1339,-0.09156852655377234,-0.1,0.0,1.0,354.0,668.0,0.0,1,418.0,0
1340,1340,-0.2644785378911373,-0.3,1.0,0.0,470.0,784.0,0.0,0,286.0,1
1341,1341,0.7578323637388694,0.8,0.0,0.0,355.0,758.0,0.0,1,527.0,1
1342,1342,0.48561211469972554,0.5,1.0,1.0,277.0,639.0,1.0,1,1214.0,1
1343,1343,0.11101073621497115,0.1,1.0,1.0,444.0,938.0,0.0,0,-2.0,0
1344,1344,0.029427442935296533,0.0,0.0,0.0,468.0,899.0,0.0,1,1463.0,1
1345,1345,-0.1467511713641586,-0.1,1.0,0.0,253.0,847.0,0.0,0,310.0,1
1346,1346,-0.4855585817136206,-0.5,0.0,1.0,356.0,558.0,1.0,0,796.0,1
1347,1347,-0.7106887286148067,-0.7,1.0,0.0,443.0,849.0,0.0,0,288.0,1
1348,1348,-0.2621227558399696,-0.3,1.0,0.0,325.0,534.0,0.0,0,991.0,1
1349,1349,-0.8083128202272202,-0.8,1.0,0.0,303.0,679.0,0.0,0,198.0,1
1350,1350,-0.5247259840804435,-0.5,1.0,0.0,253.0,611.0,0.0,0,706.0,1
1351,1351,0.8450157026090134,0.8,0.0,0.0,258.0,854.0,0.0,1,188.0,1
1352,1352,-0.5482745953825285,-0.5,1.0,0.0,477.0,882.0,1.0,1,-49.0,0
1353,1353,-0.034367064551950266,-0.0,0.0,1.0,324.0,808.0,0.0,1,468.0,0
1354,1354,-0.12139864826467284,-0.1,0.0,1.0,263.0,785.0,0.0,1,32.0,0
1355,1355,-0.8928490447851357,-0.9,0.0,1.0,323.0,889.0,1.0,0,258.0,1
1356,1356,0.244205356322157,0.2,0.0,0.0,440.0,690.0,0.0,1,1140.0,1
1357,1357,-0.2612532690349211,-0.3,1.0,0.0,413.0,722.0,0.0,0,465.0,1
1358,1358,-0.042154209332912584,-0.0,0.0,1.0,377.0,934.0,0.0,1,59.0,0
1359,1359,0.7001381229392488,0.7,1.0,1.0,342.0,867.0,1.0,1,251.0,1
1360,1360,-0.6954785266272985,-0.7,0.0,1.0,362.0,863.0,1.0,0,905.0,1
1361,1361,0.11822968214284868,0.1,0.0,0.0,386.0,943.0,1.0,0,11.0,0
1362,1362,-0.304263134641785,-0.3,0.0,1.0,312.0,647.0,1.0,0,341.0,1
1363,1363,0.4408333222712507,0.4,0.0,0.0,372.0,575.0,0.0,1,663.0,1
1364,1364,0.8018898144374554,0.8,1.0,1.0,443.0,740.0,1.0,1,267.0,1
1365,1365,0.17414227847270858,0.2,1.0,1.0,469.0,521.0,1.0,1,510.0,1
1366,1366,0.712543771013391,0.7,0.0,0.0,365.0,640.0,0.0,1,385.0,1
1367,1367,-0.27400183581765136,-0.3,1.0,0.0,471.0,766.0,0.0,0,463.0,1
1368,1368,0.02767985922219285,0.0,0.0,0.0,378.0,575.0,0.0,1,1097.0,1
1369,1369,-0.11266215388887668,-0.1,1.0,0.0,250.0,653.0,0.0,0,457.0,1
1370,1370,0.0475835702921269,0.0,1.0,1.0,364.0,724.0,0.0,0,212.0,0
1371,1371,-0.8178466900082769,-0.8,1.0,0.0,323.0,915.0,0.0,0,262.0,1
1372,1372,0.13310887837348295,0.1,1.0,1.0,328.0,969.0,0.0,0,133.0,0
1373,1373,-0.8298032435934256,-0.8,1.0,0.0,387.0,700.0,0.0,0,343.0,1
1374,1374,-0.405705004108939,-0.4,0.0,1.0,483.0,549.0,1.0,0,1008.0,1
1375,1375,-0.7848694583141548,-0.8,1.0,0.0,479.0,565.0,0.0,0,386.0,1
1376,1376,0.5253219855102657,0.5,1.0,1.0,370.0,743.0,1.0,1,727.0,1
1377,1377,-0.33070510353975346,-0.3,0.0,1.0,439.0,779.0,1.0,0,392.0,1
1378,1378,-0.4353106969539089,-0.4,0.0,1.0,359.0,895.0,1.0,0,676.0,1
1379,1379,-0.10744920197942442,-0.1,1.0,0.0,397.0,585.0,0.0,0,488.0,1
1380,1380,0.11814829919958625,0.1,1.0,1.0,346.0,620.0,0.0,0,554.0,0
1381,1381,-0.7526092626244003,-0.8,1.0,0.0,418.0,729.0,0.0,0,193.0,1
1382,1382,-0.7726754638283353,-0.8,0.0,1.0,462.0,614.0,0.0,1,564.0,0
1383,1383,0.21223083569575418,0.2,1.0,1.0,417.0,664.0,0.0,0,229.0,0
1384,1384,0.1096166446577519,0.1,1.0,1.0,485.0,568.0,1.0,1,387.0,1
1385,1385,-0.2857195049245861,-0.3,0.0,1.0,429.0,582.0,0.0,1,2089.0,0
1386,1386,-0.008575092218017888,-0.0,1.0,0.0,306.0,705.0,0.0,0,529.0,1
1387,1387,-0.4557762296803584,-0.5,1.0,0.0,392.0,670.0,0.0,0,348.0,1
1388,1388,-0.02641522563157983,-0.0,0.0,1.0,446.0,993.0,0.0,1,351.0,0
1389,1389,-0.4378221489047403,-0.4,0.0,1.0,291.0,796.0,1.0,0,763.0,1
1390,1390,0.6513795576166314,0.7,1.0,1.0,328.0,971.0,0.0,0,541.0,0
1391,1391,-0.100464126305992,-0.1,1.0,0.0,307.0,782.0,1.0,1,551.0,0
1392,1392,0.8458042724474749,0.8,0.0,0.0,393.0,561.0,0.0,1,426.0,1
1393,1393,-0.2834727742590333,-0.3,0.0,1.0,412.0,924.0,1.0,0,584.0,1
1394,1394,-0.4823876436126801,-0.5,1.0,0.0,381.0,870.0,1.0,1,1409.0,0
1395,1395,0.5808829457768451,0.6,1.0,1.0,405.0,814.0,1.0,1,411.0,1
1396,1396,0.17813172923507536,0.2,0.0,0.0,429.0,890.0,1.0,0,461.0,0
1397,1397,0.42254384598950023,0.4,1.0,1.0,487.0,711.0,1.0,1,2302.0,1
1398,1398,-0.6144048634490553,-0.6,0.0,1.0,497.0,964.0,1.0,0,309.0,1
1399,1399,0.6154594278938997,0.6,0.0,0.0,303.0,654.0,0.0,1,363.0,1
1400,1400,0.7389678006542463,0.7,0.0,0.0,284.0,985.0,0.0,1,161.0,1
1401,1401,0.8464694377951928,0.8,1.0,1.0,481.0,583.0,1.0,1,416.0,1
1402,1402,-0.7579417916285957,-0.8,0.0,1.0,379.0,863.0,1.0,0,598.0,1
1403,1403,-0.005504347745298843,-0.0,1.0,0.0,400.0,886.0,0.0,0,34.0,1
1404,1404,0.478183221971359,0.5,1.0,1.0,473.0,701.0,1.0,1,336.0,1
1405,1405,0.3213056768847503,0.3,1.0,1.0,298.0,731.0,1.0,1,281.0,1
1406,1406,-0.35795577575806026,-0.4,0.0,1.0,297.0,739.0,1.0,0,374.0,1
1407,1407,-0.2792917501480354,-0.3,1.0,0.0,314.0,532.0,0.0,0,324.0,1
1408,1408,0.07718208605022658,0.1,1.0,1.0,415.0,788.0,0.0,0,127.0,0
1409,1409,-0.08225593823312094,-0.1,1.0,0.0,251.0,517.0,0.0,0,1222.0,1
1410,1410,0.3647034460338531,0.4,1.0,1.0,344.0,887.0,1.0,1,329.0,1
1411,1411,-0.5991150423854892,-0.6,1.0,0.0,499.0,636.0,0.0,0,365.0,1
1412,1412,0.7573018104267083,0.8,1.0,1.0,499.0,917.0,1.0,1,554.0,1
1413,1413,-0.06189106950607404,-0.1,0.0,1.0,377.0,861.0,0.0,1,302.0,0
1414,1414,-0.21820360014154072,-0.2,1.0,0.0,355.0,721.0,0.0,0,534.0,1
1415,1415,-0.12915182397311387,-0.1,1.0,0.0,292.0,736.0,0.0,0,262.0,1
1416,1416,0.08002277543190295,0.1,1.0,1.0,313.0,521.0,0.0,0,336.0,0
1417,1417,-0.6350149658476855,-0.6,0.0,1.0,279.0,791.0,1.0,0,620.0,1
1418,1418,0.6670743749742877,0.7,0.0,0.0,460.0,659.0,0.0,1,731.0,1
1419,1419,0.8122024643318563,0.8,0.0,0.0,314.0,783.0,0.0,1,303.0,1
1420,1420,0.8664159176644711,0.9,0.0,0.0,332.0,894.0,0.0,1,324.0,1
1421,1421,0.2377125277073181,0.2,1.0,1.0,314.0,697.0,1.0,1,339.0,1
1422,1422,0.15664415476942983,0.2,0.0,0.0,430.0,758.0,0.0,1,272.0,1
1423,1423,0.7098849863852491,0.7,1.0,1.0,265.0,644.0,1.0,1,501.0,1
1424,1424,-0.6442266782877992,-0.6,1.0,0.0,482.0,934.0,0.0,0,354.0,1
1425,1425,-0.7486219425455842,-0.7,0.0,1.0,389.0,660.0,1.0,0,431.0,1
1426,1426,-0.3774140222385223,-0.4,1.0,0.0,395.0,754.0,0.0,0,321.0,1
1427,1427,-0.7597162066583159,-0.8,0.0,1.0,283.0,760.0,1.0,0,457.0,1
1428,1428,0.40282742133078486,0.4,0.0,0.0,392.0,792.0,0.0,1,436.0,1
1429,1429,-0.8127577597265255,-0.8,1.0,0.0,284.0,936.0,0.0,0,20.0,1
1430,1430,0.6265743622442265,0.6,0.0,0.0,301.0,886.0,0.0,1,223.0,1
1431,1431,0.44810314653642347,0.4,1.0,1.0,345.0,958.0,1.0,1,497.0,1
1432,1432,-0.6481805537166971,-0.6,1.0,0.0,352.0,897.0,0.0,0,311.0,1
1433,1433,0.5542734933779906,0.6,1.0,1.0,468.0,728.0,1.0,1,84.0,1
1434,1434,-0.21639606638310904,-0.2,1.0,0.0,304.0,582.0,0.0,0,184.0,1
1435,1435,-0.7475404751813461,-0.7,1.0,0.0,430.0,924.0,0.0,0,206.0,1
1436,1436,0.1259348557959471,0.1,0.0,0.0,254.0,690.0,0.0,1,616.0,1
1437,1437,-0.2098049300138919,-0.2,1.0,0.0,269.0,740.0,0.0,0,941.0,1
1438,1438,-0.053092169398329836,-0.1,1.0,0.0,431.0,755.0,0.0,0,454.0,1
1439,1439,0.5576062842503368,0.6,1.0,1.0,473.0,876.0,1.0,1,371.0,1
1440,1440,0.11825994167043408,0.1,0.0,0.0,447.0,601.0,0.0,1,542.0,1
1441,1441,0.1039317428943004,0.1,1.0,1.0,327.0,686.0,0.0,0,827.0,0
1442,1442,-0.19664439914189502,-0.2,1.0,0.0,436.0,931.0,0.0,0,353.0,1
1443,1443,-0.5315861555868577,-0.5,1.0,0.0,263.0,918.0,0.0,0,249.0,1
1444,1444,0.6035426225305697,0.6,0.0,0.0,477.0,503.0,0.0,1,980.0,1
1445,1445,-0.23346926638260712,-0.2,1.0,0.0,366.0,616.0,0.0,0,568.0,1
1446,1446,0.5718843214951287,0.6,0.0,0.0,282.0,980.0,0.0,1,68.0,1
1447,1447,0.8772673837592272,0.9,0.0,0.0,294.0,554.0,0.0,1,432.0,1
1448,1448,0.0984512848762733,0.1,1.0,1.0,452.0,591.0,0.0,0,417.0,0
1449,1449,-0.10467332267413487,-0.1,1.0,0.0,334.0,577.0,1.0,1,379.0,0
1450,1450,0.5462468188214261,0.5,0.0,0.0,346.0,563.0,0.0,1,441.0,1
1451,1451,0.772935336844239,0.8,1.0,1.0,256.0,937.0,1.0,1,117.0,1
1452,1452,-0.7584866817863958,-0.8,0.0,1.0,335.0,750.0,1.0,0,515.0,1
1453,1453,0.5420833396404611,0.5,1.0,1.0,380.0,770.0,1.0,1,870.0,1
1454,1454,0.6538000733778365,0.7,1.0,1.0,353.0,820.0,1.0,1,577.0,1
1455,1455,-0.7710071876903647,-0.8,1.0,0.0,452.0,817.0,0.0,0,131.0,1
1456,1456,-0.8715177208121446,-0.9,0.0,1.0,286.0,722.0,1.0,0,312.0,1
1457,1457,-0.1531759312791866,-0.2,1.0,0.0,352.0,915.0,0.0,0,763.0,1
1458,1458,-0.09580728988376996,-0.1,0.0,1.0,369.0,649.0,1.0,0,522.0,1
1459,1459,0.09283376159724055,0.1,0.0,0.0,433.0,810.0,1.0,0,167.0,0
1460,1460,-0.25920688691855187,-0.3,0.0,1.0,358.0,895.0,1.0,0,897.0,1
1461,1461,-0.38826468380547063,-0.4,1.0,0.0,279.0,613.0,0.0,0,368.0,1
1462,1462,0.41694412959250393,0.4,1.0,1.0,312.0,645.0,1.0,1,273.0,1
1463,1463,-0.1653856955987899,-0.2,1.0,0.0,291.0,869.0,0.0,0,1420.0,1
1464,1464,-0.5018808361668372,-0.5,1.0,0.0,251.0,678.0,0.0,0,421.0,1
1465,1465,-0.5854002488873851,-0.6,0.0,1.0,441.0,876.0,1.0,0,253.0,1
1466,1466,0.010976054945383229,0.0,1.0,1.0,293.0,818.0,0.0,0,209.0,0
1467,1467,-0.06536350079624498,-0.1,1.0,0.0,414.0,962.0,0.0,0,-46.0,1
1468,1468,-0.7846316783665666,-0.8,0.0,1.0,447.0,866.0,1.0,0,357.0,1
1469,1469,0.1774368647219936,0.2,1.0,1.0,476.0,701.0,0.0,0,1023.0,0
1470,1470,-0.044711224047875975,-0.0,1.0,0.0,264.0,555.0,1.0,1,531.0,0
1471,1471,-0.7032471397607714,-0.7,1.0,0.0,347.0,626.0,0.0,0,177.0,1
1472,1472,0.043003774884809665,0.0,0.0,0.0,360.0,718.0,1.0,0,462.0,0
1473,1473,0.06186840761738366,0.1,0.0,0.0,487.0,747.0,0.0,1,366.0,1
1474,1474,0.23187501378166442,0.2,1.0,1.0,443.0,524.0,1.0,1,293.0,1
1475,1475,0.10709378542083126,0.1,0.0,0.0,366.0,735.0,0.0,1,1809.0,1
1476,1476,-0.10723097063557818,-0.1,0.0,1.0,379.0,521.0,0.0,1,530.0,0
1477,1477,0.42705825093664107,0.4,1.0,1.0,363.0,805.0,1.0,1,612.0,1
1478,1478,0.11301757555020198,0.1,0.0,0.0,407.0,637.0,0.0,1,596.0,1
1479,1479,-0.20637100349160165,-0.2,1.0,0.0,334.0,572.0,0.0,0,554.0,1
1480,1480,-0.47646123936723456,-0.5,1.0,0.0,297.0,891.0,0.0,0,202.0,1
1481,1481,0.16492049953222232,0.2,1.0,1.0,299.0,725.0,0.0,0,246.0,0
1482,1482,-0.749329052384041,-0.7,1.0,0.0,393.0,965.0,0.0,0,382.0,1
1483,1483,0.4869520375477593,0.5,1.0,1.0,451.0,513.0,1.0,1,1246.0,1
1484,1484,0.7537811360207741,0.8,0.0,0.0,305.0,544.0,0.0,1,411.0,1
1485,1485,-0.7712667470331969,-0.8,1.0,0.0,380.0,718.0,0.0,0,422.0,1
1486,1486,-0.8608024340838063,-0.9,1.0,0.0,365.0,831.0,0.0,0,144.0,1
1487,1487,-0.6133615267301902,-0.6,0.0,1.0,314.0,620.0,1.0,0,276.0,1
1488,1488,-0.07327622937695522,-0.1,1.0,0.0,366.0,657.0,0.0,0,607.0,1
1489,1489,-0.3192497630884533,-0.3,1.0,0.0,306.0,649.0,0.0,0,365.0,1
1490,1490,0.6119701242800316,0.6,1.0,1.0,446.0,881.0,1.0,1,463.0,1
1491,1491,0.7209402616429951,0.7,1.0,1.0,304.0,964.0,0.0,0,-8.0,0
1492,1492,0.22377681941602467,0.2,0.0,0.0,375.0,978.0,1.0,0,327.0,0
