,trial,coherence,coherence_bin,green_side,correct_side,target_onset,checker_onset,decision,green_decision,decision_time,correct_decision
0,0,-0.24090357388824502,-0.2,1.0,0.0,418.0,927.0,1.0,1,2145.0,0
1,1,-0.5442714219019305,-0.5,1.0,0.0,273.0,574.0,0.0,0,183.0,1
2,2,-0.3369337160499848,-0.3,1.0,0.0,264.0,753.0,0.0,0,193.0,1
3,3,-0.6900294704829512,-0.7,0.0,1.0,395.0,608.0,1.0,0,477.0,1
4,4,0.7268647788623631,0.7,1.0,1.0,342.0,557.0,1.0,1,411.0,1
5,5,-0.25882252147952356,-0.3,0.0,1.0,286.0,515.0,1.0,0,529.0,1
6,6,0.4874499738897301,0.5,1.0,1.0,275.0,601.0,1.0,1,774.0,1
7,7,0.8634786048705815,0.9,0.0,0.0,494.0,577.0,0.0,1,539.0,1
8,8,0.007620810164989056,0.0,1.0,1.0,415.0,513.0,1.0,1,632.0,1
9,9,0.6102770219082864,0.6,1.0,1.0,473.0,834.0,1.0,1,143.0,1
10,10,0.6805278575282453,0.7,1.0,1.0,349.0,610.0,1.0,1,321.0,1
11,11,0.438732168493673,0.4,0.0,0.0,448.0,723.0,0.0,1,619.0,1
12,12,0.5440871416867471,0.5,0.0,0.0,263.0,562.0,0.0,1,265.0,1
13,13,0.8920827104565044,0.9,1.0,1.0,438.0,666.0,1.0,1,576.0,1
14,14,0.6515531153390247,0.7,1.0,1.0,412.0,623.0,1.0,1,215.0,1
15,15,-0.8933213574320855,-0.9,0.0,1.0,468.0,800.0,1.0,0,222.0,1
16,16,0.23055898330559466,0.2,0.0,0.0,436.0,736.0,0.0,1,368.0,1
17,17,-0.04769303729265384,-0.0,0.0,1.0,291.0,560.0,0.0,1,2039.0,0
18,18,-0.21621899031760416,-0.2,1.0,0.0,288.0,542.0,0.0,0,530.0,1
19,19,-0.5807641352898509,-0.6,1.0,0.0,252.0,927.0,0.0,0,271.0,1
20,20,-0.3088643720903136,-0.3,1.0,0.0,479.0,985.0,0.0,0,166.0,1
21,21,-0.4258881137221638,-0.4,1.0,0.0,402.0,950.0,0.0,0,108.0,1
22,22,0.7698221153369044,0.8,1.0,1.0,446.0,500.0,1.0,1,484.0,1
23,23,0.5762964876730717,0.6,0.0,0.0,278.0,536.0,0.0,1,716.0,1
24,24,0.6795420735446344,0.7,0.0,0.0,323.0,579.0,0.0,1,668.0,1
25,25,0.577758556241586,0.6,0.0,0.0,431.0,536.0,0.0,1,563.0,1
26,26,0.6891864587919608,0.7,1.0,1.0,333.0,804.0,1.0,1,73.0,1
27,27,-0.05580512919274938,-0.1,1.0,0.0,253.0,718.0,0.0,0,389.0,1
28,28,-0.30967538907705994,-0.3,1.0,0.0,479.0,840.0,0.0,0,701.0,1
29,29,0.33397489218158183,0.3,1.0,1.0,358.0,956.0,1.0,1,866.0,1
30,30,-0.1623404507892613,-0.2,0.0,1.0,327.0,538.0,1.0,0,585.0,1
31,31,0.1470777371555242,0.1,1.0,1.0,328.0,842.0,0.0,0,90.0,0
32,32,0.8712354350509454,0.9,1.0,1.0,339.0,574.0,1.0,1,277.0,1
33,33,0.6088358028078266,0.6,0.0,0.0,380.0,550.0,0.0,1,390.0,1
34,34,0.1154419110751922,0.1,1.0,1.0,297.0,792.0,0.0,0,321.0,0
35,35,-0.27694486059339507,-0.3,1.0,0.0,275.0,896.0,0.0,0,29.0,1
36,36,-0.5141107787039223,-0.5,0.0,1.0,349.0,786.0,1.0,0,275.0,1
37,37,0.18513091218212996,0.2,0.0,0.0,416.0,753.0,0.0,1,541.0,1
38,38,0.39359298728616443,0.4,0.0,0.0,418.0,978.0,0.0,1,84.0,1
39,39,-0.47882733990360765,-0.5,0.0,1.0,381.0,569.0,1.0,0,570.0,1
40,40,-0.024442437379816773,-0.0,0.0,1.0,284.0,686.0,1.0,0,280.0,1
41,41,-0.13297545586740567,-0.1,1.0,0.0,439.0,815.0,0.0,0,1286.0,1
42,42,0.09188045032508019,0.1,1.0,1.0,322.0,624.0,1.0,1,534.0,1
43,43,0.16243610758870097,0.2,0.0,0.0,399.0,945.0,0.0,1,376.0,1
44,44,-0.7606430725752807,-0.8,1.0,0.0,289.0,860.0,0.0,0,401.0,1
45,45,0.7324634919249938,0.7,0.0,0.0,283.0,516.0,0.0,1,591.0,1
46,46,0.4578321381456064,0.5,0.0,0.0,342.0,549.0,0.0,1,1499.0,1
47,47,-0.6713888814540079,-0.7,0.0,1.0,274.0,946.0,1.0,0,450.0,1
48,48,-0.4465598851951618,-0.4,1.0,0.0,487.0,842.0,0.0,0,541.0,1
49,49,0.08422663965289168,0.1,0.0,0.0,490.0,543.0,0.0,1,1907.0,1
50,50,-0.8707972360900789,-0.9,0.0,1.0,258.0,895.0,1.0,0,187.0,1
51,51,-0.34938287771715726,-0.3,0.0,1.0,303.0,903.0,1.0,0,184.0,1
52,52,-0.23656709801478115,-0.2,1.0,0.0,407.0,582.0,0.0,0,961.0,1
53,53,0.6951450654737227,0.7,0.0,0.0,458.0,642.0,0.0,1,290.0,1
54,54,-0.3233608896098886,-0.3,0.0,1.0,276.0,982.0,1.0,0,132.0,1
55,55,0.5543617291046558,0.6,0.0,0.0,377.0,538.0,0.0,1,1045.0,1
56,56,0.7469845158828939,0.7,1.0,1.0,436.0,659.0,1.0,1,355.0,1
57,57,0.6308092201386247,0.6,0.0,0.0,293.0,720.0,0.0,1,237.0,1
58,58,0.486942637654849,0.5,0.0,0.0,449.0,815.0,0.0,1,346.0,1
59,59,0.12662541915626602,0.1,0.0,0.0,402.0,662.0,1.0,0,586.0,0
60,60,0.5596087878164627,0.6,0.0,0.0,432.0,896.0,0.0,1,322.0,1
61,61,-0.2263409124844884,-0.2,1.0,0.0,338.0,752.0,0.0,0,510.0,1
62,62,-0.4750947890485786,-0.5,1.0,0.0,274.0,891.0,0.0,0,145.0,1
63,63,0.6804592160121931,0.7,1.0,1.0,396.0,652.0,1.0,1,302.0,1
64,64,0.05379513009053649,0.1,0.0,0.0,252.0,777.0,0.0,1,1911.0,1
65,65,0.46792033320199644,0.5,1.0,1.0,283.0,637.0,1.0,1,570.0,1
66,66,0.06744718024112906,0.1,0.0,0.0,413.0,859.0,0.0,1,288.0,1
67,67,-0.46343754259197506,-0.5,0.0,1.0,352.0,511.0,1.0,0,627.0,1
68,68,0.14193965565552336,0.1,1.0,1.0,255.0,852.0,1.0,1,283.0,1
69,69,-0.8586621929827136,-0.9,1.0,0.0,312.0,680.0,0.0,0,238.0,1
70,70,0.6944443620710549,0.7,1.0,1.0,284.0,753.0,1.0,1,403.0,1
71,71,0.7618970180407884,0.8,1.0,1.0,428.0,528.0,1.0,1,334.0,1
72,72,0.5010529632367707,0.5,0.0,0.0,467.0,783.0,0.0,1,260.0,1
73,73,0.04006030140292027,0.0,1.0,1.0,251.0,942.0,0.0,0,1017.0,0
74,74,-0.2244384486305422,-0.2,0.0,1.0,480.0,903.0,1.0,0,1057.0,1
75,75,-0.49740555450308804,-0.5,1.0,0.0,456.0,591.0,0.0,0,403.0,1
76,76,0.01805058328049225,0.0,0.0,0.0,426.0,580.0,0.0,1,964.0,1
77,77,0.41822817713816296,0.4,0.0,0.0,436.0,990.0,0.0,1,1224.0,1
78,78,-0.049533546261981254,-0.0,0.0,1.0,356.0,679.0,1.0,0,1305.0,1
79,79,0.5081898123925032,0.5,0.0,0.0,441.0,536.0,0.0,1,413.0,1
80,80,-0.6238307595962053,-0.6,0.0,1.0,323.0,995.0,1.0,0,522.0,1
81,81,-0.48194168529368603,-0.5,1.0,0.0,353.0,638.0,0.0,0,699.0,1
82,82,0.7807022210536015,0.8,0.0,0.0,322.0,888.0,0.0,1,230.0,1
83,83,0.12713221092784266,0.1,0.0,0.0,460.0,518.0,0.0,1,602.0,1
84,84,-0.6872964546972815,-0.7,0.0,1.0,363.0,526.0,1.0,0,301.0,1
85,85,0.7494808894592654,0.7,0.0,0.0,341.0,676.0,0.0,1,423.0,1
86,86,0.1157410152324011,0.1,1.0,1.0,342.0,608.0,1.0,1,540.0,1
87,87,-0.832625348874219,-0.8,0.0,1.0,492.0,648.0,1.0,0,390.0,1
88,88,-0.16034743645816596,-0.2,1.0,0.0,447.0,669.0,0.0,0,784.0,1
89,89,-0.6651791696505887,-0.7,1.0,0.0,367.0,671.0,0.0,0,332.0,1
90,90,0.6181619796088439,0.6,1.0,1.0,370.0,856.0,1.0,1,364.0,1
91,91,-0.29153718743589907,-0.3,0.0,1.0,400.0,642.0,1.0,0,568.0,1
92,92,-0.6551767311002135,-0.7,1.0,0.0,478.0,725.0,0.0,0,627.0,1
93,93,0.6499496356067193,0.6,0.0,0.0,467.0,966.0,0.0,1,127.0,1
94,94,0.7216946459934227,0.7,0.0,0.0,310.0,528.0,0.0,1,442.0,1
95,95,-0.6130292670980859,-0.6,1.0,0.0,392.0,545.0,0.0,0,413.0,1
96,96,0.05999283255626742,0.1,1.0,1.0,260.0,518.0,1.0,1,1482.0,1
97,97,-0.32895557179671375,-0.3,0.0,1.0,396.0,631.0,1.0,0,603.0,1
98,98,-0.48986225070437245,-0.5,0.0,1.0,387.0,923.0,1.0,0,400.0,1
99,99,-0.7898316687517347,-0.8,1.0,0.0,385.0,516.0,0.0,0,359.0,1
100,100,-0.6330640933497276,-0.6,1.0,0.0,282.0,622.0,0.0,0,546.0,1
101,101,0.2764059947948384,0.3,0.0,0.0,477.0,761.0,0.0,1,692.0,1
102,102,0.8311053055246548,0.8,1.0,1.0,459.0,678.0,1.0,1,623.0,1
103,103,-0.4073234987125752,-0.4,0.0,1.0,382.0,826.0,1.0,0,432.0,1
104,104,0.6782739126711245,0.7,0.0,0.0,371.0,911.0,0.0,1,508.0,1
105,105,0.363226836580823,0.4,0.0,0.0,301.0,601.0,0.0,1,698.0,1
106,106,0.23290242014116103,0.2,0.0,0.0,409.0,830.0,0.0,1,251.0,1
107,107,0.8095447346643444,0.8,0.0,0.0,366.0,934.0,0.0,1,150.0,1
108,108,-0.04983956938657508,-0.0,1.0,0.0,320.0,542.0,0.0,0,1068.0,1
109,109,-0.1767921708268948,-0.2,1.0,0.0,310.0,905.0,0.0,0,285.0,1
110,110,-0.5947029257304068,-0.6,0.0,1.0,352.0,793.0,1.0,0,225.0,1
111,111,0.675030521948066,0.7,1.0,1.0,430.0,917.0,1.0,1,273.0,1
112,112,-0.3409821912643396,-0.3,1.0,0.0,366.0,651.0,0.0,0,703.0,1
113,113,-0.1851174747724239,-0.2,1.0,0.0,491.0,760.0,0.0,0,99.0,1
114,114,0.8730916624786597,0.9,1.0,1.0,270.0,737.0,1.0,1,283.0,1
115,115,0.7328382872152147,0.7,0.0,0.0,326.0,624.0,0.0,1,280.0,1
116,116,-0.08024378624568851,-0.1,1.0,0.0,326.0,776.0,0.0,0,518.0,1
117,117,0.254982741913501,0.3,0.0,0.0,391.0,848.0,0.0,1,521.0,1
118,118,0.29489881914869487,0.3,1.0,1.0,320.0,615.0,1.0,1,805.0,1
119,119,0.23371280851996856,0.2,0.0,0.0,432.0,535.0,0.0,1,2313.0,1
120,120,0.08969669812804926,0.1,1.0,1.0,388.0,730.0,1.0,1,1562.0,1
121,121,0.5256891286969446,0.5,0.0,0.0,436.0,723.0,0.0,1,391.0,1
122,122,0.750828322895562,0.8,0.0,0.0,313.0,535.0,0.0,1,472.0,1
123,123,0.2798957768654692,0.3,0.0,0.0,436.0,852.0,0.0,1,2132.0,1
124,124,-0.5228607409906629,-0.5,1.0,0.0,386.0,983.0,0.0,0,311.0,1
125,125,-0.8344867233456964,-0.8,0.0,1.0,278.0,601.0,1.0,0,311.0,1
126,126,0.5974920606348163,0.6,0.0,0.0,400.0,771.0,0.0,1,719.0,1
127,127,-0.668898982356289,-0.7,0.0,1.0,373.0,780.0,1.0,0,617.0,1
128,128,0.25373345734468644,0.3,1.0,1.0,378.0,976.0,1.0,1,1366.0,1
129,129,0.5485474505876246,0.5,1.0,1.0,471.0,931.0,1.0,1,318.0,1
130,130,0.4691353527595511,0.5,0.0,0.0,326.0,536.0,0.0,1,448.0,1
131,131,0.11534540127146442,0.1,1.0,1.0,444.0,601.0,1.0,1,565.0,1
132,132,-0.4599723370079533,-0.5,1.0,0.0,404.0,624.0,0.0,0,292.0,1
133,133,-0.15030520441016382,-0.2,1.0,0.0,452.0,778.0,0.0,0,270.0,1
134,134,0.6700844468839736,0.7,0.0,0.0,481.0,613.0,0.0,1,786.0,1
135,135,0.57544660155701,0.6,0.0,0.0,267.0,750.0,0.0,1,353.0,1
136,136,0.3665763729305179,0.4,1.0,1.0,437.0,525.0,1.0,1,708.0,1
137,137,-0.7588212934367397,-0.8,1.0,0.0,395.0,838.0,0.0,0,467.0,1
138,138,0.14771081397268226,0.1,1.0,1.0,484.0,881.0,1.0,1,1545.0,1
139,139,-0.2062039919338009,-0.2,0.0,1.0,355.0,787.0,1.0,0,348.0,1
140,140,-0.5145780806147418,-0.5,1.0,0.0,425.0,522.0,0.0,0,213.0,1
141,141,0.5660532402498352,0.6,1.0,1.0,483.0,533.0,1.0,1,354.0,1
142,142,0.6981219562752102,0.7,0.0,0.0,497.0,588.0,0.0,1,605.0,1
143,143,-0.4271621611282948,-0.4,0.0,1.0,356.0,686.0,1.0,0,348.0,1
144,144,0.35565407235291546,0.4,0.0,0.0,373.0,939.0,0.0,1,298.0,1
145,145,0.2322480292541783,0.2,1.0,1.0,397.0,624.0,1.0,1,1409.0,1
146,146,0.3795760384780672,0.4,0.0,0.0,259.0,886.0,0.0,1,645.0,1
147,147,0.5149383291764588,0.5,1.0,1.0,314.0,596.0,1.0,1,670.0,1
148,148,0.23455506658183778,0.2,1.0,1.0,365.0,600.0,1.0,1,785.0,1
149,149,-0.6763015813133959,-0.7,0.0,1.0,427.0,948.0,1.0,0,55.0,1
150,150,0.4220161985527656,0.4,1.0,1.0,451.0,648.0,1.0,1,571.0,1
151,151,-0.4110391316189453,-0.4,0.0,1.0,270.0,911.0,1.0,0,699.0,1
152,152,0.3126301478251122,0.3,1.0,1.0,342.0,860.0,1.0,1,1368.0,1
153,153,0.23075624222867963,0.2,0.0,0.0,445.0,826.0,0.0,1,429.0,1
154,154,0.8819087699793641,0.9,1.0,1.0,328.0,831.0,1.0,1,271.0,1
155,155,0.37920358160849277,0.4,0.0,0.0,476.0,942.0,0.0,1,372.0,1
156,156,-0.26740888357198267,-0.3,1.0,0.0,496.0,633.0,0.0,0,401.0,1
157,157,0.6557447393370633,0.7,1.0,1.0,430.0,850.0,1.0,1,430.0,1
158,158,0.8671297075874805,0.9,1.0,1.0,417.0,848.0,1.0,1,255.0,1
159,159,0.8544586091799368,0.9,0.0,0.0,366.0,801.0,0.0,1,313.0,1
160,160,0.2106751329135873,0.2,1.0,1.0,410.0,574.0,1.0,1,1026.0,1
161,161,0.8315343701151238,0.8,0.0,0.0,318.0,952.0,0.0,1,230.0,1
162,162,-0.8639457202282109,-0.9,0.0,1.0,267.0,898.0,0.0,1,-5.0,0
163,163,-0.11167622632385243,-0.1,0.0,1.0,483.0,592.0,1.0,0,1605.0,1
164,164,0.7282264801386887,0.7,0.0,0.0,421.0,810.0,0.0,1,289.0,1
165,165,-0.720505836758737,-0.7,1.0,0.0,346.0,743.0,0.0,0,101.0,1
166,166,0.08920293557085901,0.1,1.0,1.0,363.0,940.0,0.0,0,1817.0,0
167,167,0.41453332176819047,0.4,0.0,0.0,270.0,850.0,0.0,1,710.0,1
168,168,-0.008939613979246475,-0.0,1.0,0.0,342.0,968.0,0.0,0,850.0,1
169,169,0.41570437839820784,0.4,0.0,0.0,250.0,850.0,0.0,1,100.0,1
170,170,0.5426327892315742,0.5,1.0,1.0,281.0,991.0,1.0,1,318.0,1
171,171,0.20790123921174042,0.2,0.0,0.0,389.0,901.0,1.0,0,280.0,0
172,172,-0.8291007979867161,-0.8,1.0,0.0,275.0,958.0,0.0,0,197.0,1
173,173,0.20218084460726737,0.2,0.0,0.0,392.0,892.0,0.0,1,436.0,1
174,174,-0.8102543743268671,-0.8,0.0,1.0,259.0,638.0,1.0,0,423.0,1
175,175,-0.09591690862536717,-0.1,1.0,0.0,493.0,585.0,0.0,0,582.0,1
176,176,-0.5555045347488219,-0.6,0.0,1.0,373.0,841.0,1.0,0,566.0,1
177,177,-0.7536580769097438,-0.8,1.0,0.0,433.0,790.0,0.0,0,157.0,1
178,178,-0.6504880531999847,-0.7,0.0,1.0,274.0,620.0,1.0,0,296.0,1
179,179,0.19301910674514045,0.2,0.0,0.0,498.0,588.0,0.0,1,2244.0,1
180,180,0.4630803966041338,0.5,0.0,0.0,344.0,514.0,0.0,1,1592.0,1
181,181,-0.4289891790974953,-0.4,1.0,0.0,425.0,988.0,1.0,1,27.0,0
182,182,0.4235574912741341,0.4,0.0,0.0,490.0,969.0,0.0,1,481.0,1
183,183,-0.6950094190616746,-0.7,0.0,1.0,255.0,768.0,1.0,0,197.0,1
184,184,0.5701362810426284,0.6,1.0,1.0,391.0,739.0,1.0,1,760.0,1
185,185,-0.14778662104902673,-0.1,1.0,0.0,452.0,953.0,0.0,0,155.0,1
186,186,-0.5844088925596547,-0.6,1.0,0.0,287.0,506.0,0.0,0,447.0,1
187,187,0.6546686397845306,0.7,0.0,0.0,359.0,613.0,0.0,1,408.0,1
188,188,-0.38935822297547606,-0.4,1.0,0.0,436.0,890.0,0.0,0,694.0,1
189,189,0.303650394887231,0.3,1.0,1.0,388.0,748.0,1.0,1,774.0,1
190,190,-0.6703736146995545,-0.7,0.0,1.0,466.0,920.0,1.0,0,394.0,1
191,191,-0.506393614863921,-0.5,0.0,1.0,429.0,864.0,1.0,0,567.0,1
192,192,-0.8322103461982382,-0.8,1.0,0.0,319.0,937.0,0.0,0,-16.0,1
193,193,0.7522205973767883,0.8,0.0,0.0,301.0,646.0,0.0,1,293.0,1
194,194,-0.4631049629302754,-0.5,1.0,0.0,408.0,699.0,0.0,0,593.0,1
195,195,0.16510858169607234,0.2,0.0,0.0,343.0,602.0,0.0,1,485.0,1
196,196,0.5452577569263991,0.5,1.0,1.0,464.0,557.0,1.0,1,519.0,1
197,197,-0.5835184790707122,-0.6,0.0,1.0,278.0,876.0,1.0,0,456.0,1
198,198,-0.6548785172924205,-0.7,1.0,0.0,383.0,539.0,0.0,0,378.0,1
199,199,0.8910787574913211,0.9,0.0,0.0,419.0,830.0,0.0,1,411.0,1
200,200,0.00492552567681559,0.0,0.0,0.0,446.0,776.0,0.0,1,668.0,1
201,201,-0.672736538011691,-0.7,0.0,1.0,373.0,869.0,1.0,0,258.0,1
202,202,0.4735766401333904,0.5,1.0,1.0,320.0,952.0,1.0,1,828.0,1
203,203,-0.614351430989647,-0.6,1.0,0.0,462.0,909.0,0.0,0,109.0,1
204,204,-0.571370458374258,-0.6,1.0,0.0,405.0,684.0,0.0,0,221.0,1
205,205,0.04982220595911857,0.0,1.0,1.0,355.0,515.0,1.0,1,1600.0,1
206,206,-0.10608238657101088,-0.1,0.0,1.0,266.0,780.0,0.0,1,2334.0,0
207,207,0.34369399300926673,0.3,0.0,0.0,481.0,997.0,0.0,1,542.0,1
208,208,-0.0705467916581668,-0.1,1.0,0.0,399.0,777.0,0.0,0,684.0,1
209,209,0.8157479597856784,0.8,0.0,0.0,313.0,603.0,0.0,1,694.0,1
210,210,0.052020300554721954,0.1,0.0,0.0,361.0,678.0,1.0,0,481.0,0
211,211,0.2626317220688684,0.3,1.0,1.0,384.0,563.0,1.0,1,443.0,1
212,212,-0.7904838649590323,-0.8,0.0,1.0,374.0,966.0,1.0,0,100.0,1
213,213,0.881544180810418,0.9,1.0,1.0,488.0,699.0,1.0,1,313.0,1
214,214,-0.12381199105675478,-0.1,1.0,0.0,372.0,820.0,1.0,1,928.0,0
215,215,-0.8563336773010976,-0.9,1.0,0.0,278.0,787.0,0.0,0,135.0,1
216,216,-0.5803280808015601,-0.6,0.0,1.0,368.0,886.0,1.0,0,196.0,1
217,217,0.6869778562808063,0.7,1.0,1.0,463.0,684.0,1.0,1,333.0,1
218,218,-0.3881898795171609,-0.4,1.0,0.0,474.0,869.0,0.0,0,167.0,1
219,219,-0.4451747562373617,-0.4,1.0,0.0,386.0,608.0,0.0,0,466.0,1
220,220,-0.2791425087369679,-0.3,1.0,0.0,371.0,521.0,0.0,0,508.0,1
221,221,-0.5241483707407241,-0.5,0.0,1.0,405.0,931.0,1.0,0,224.0,1
222,222,-0.7489807145398486,-0.7,0.0,1.0,387.0,569.0,1.0,0,344.0,1
223,223,0.658334790298747,0.7,0.0,0.0,437.0,767.0,0.0,1,356.0,1
224,224,-0.33015533917364837,-0.3,0.0,1.0,279.0,785.0,1.0,0,236.0,1
225,225,0.6276769684317672,0.6,1.0,1.0,355.0,882.0,1.0,1,323.0,1
226,226,-0.8302568794590077,-0.8,1.0,0.0,344.0,743.0,0.0,0,213.0,1
227,227,0.2412434373537512,0.2,1.0,1.0,269.0,587.0,1.0,1,344.0,1
228,228,-0.6072585734385711,-0.6,0.0,1.0,464.0,592.0,1.0,0,284.0,1
229,229,-0.6939968622321369,-0.7,1.0,0.0,291.0,699.0,0.0,0,1150.0,1
230,230,0.8575899524889955,0.9,1.0,1.0,296.0,535.0,1.0,1,239.0,1
231,231,-0.18118061436321498,-0.2,1.0,0.0,270.0,868.0,0.0,0,262.0,1
232,232,-0.43807121406400074,-0.4,1.0,0.0,325.0,782.0,0.0,0,493.0,1
233,233,0.8100782579614271,0.8,1.0,1.0,317.0,822.0,1.0,1,171.0,1
234,234,0.18074340541139045,0.2,0.0,0.0,299.0,618.0,0.0,1,753.0,1
235,235,-0.8611346730993222,-0.9,0.0,1.0,277.0,728.0,1.0,0,385.0,1
236,236,-0.8901107524876236,-0.9,1.0,0.0,260.0,757.0,0.0,0,513.0,1
237,237,-0.3415686637393276,-0.3,1.0,0.0,498.0,866.0,0.0,0,356.0,1
238,238,-0.7292104097635493,-0.7,1.0,0.0,484.0,644.0,0.0,0,442.0,1
239,239,-0.4847651603635278,-0.5,0.0,1.0,337.0,774.0,1.0,0,209.0,1
240,240,-0.8479664850736917,-0.8,0.0,1.0,464.0,927.0,1.0,0,39.0,1
241,241,-0.36011833100957047,-0.4,1.0,0.0,443.0,843.0,0.0,0,44.0,1
242,242,0.5553398662133783,0.6,1.0,1.0,304.0,637.0,1.0,1,339.0,1
243,243,-0.7515355067002838,-0.8,0.0,1.0,442.0,732.0,1.0,0,206.0,1
244,244,0.05808160550507091,0.1,1.0,1.0,424.0,966.0,0.0,0,170.0,0
245,245,-0.21543517565726644,-0.2,1.0,0.0,382.0,789.0,0.0,0,169.0,1
246,246,0.5815089154394785,0.6,0.0,0.0,359.0,852.0,0.0,1,1999.0,1
247,247,0.06925591308951085,0.1,1.0,1.0,390.0,768.0,1.0,1,422.0,1
248,248,-0.10175786030697365,-0.1,1.0,0.0,350.0,618.0,0.0,0,1652.0,1
249,249,0.8927462146338355,0.9,0.0,0.0,351.0,824.0,0.0,1,175.0,1
250,250,0.6239980890511477,0.6,1.0,1.0,460.0,836.0,1.0,1,944.0,1
251,251,-0.6289155493346241,-0.6,0.0,1.0,275.0,983.0,1.0,0,232.0,1
252,252,0.40159857095373985,0.4,1.0,1.0,402.0,982.0,1.0,1,-84.0,1
253,253,-0.35073014319580176,-0.4,0.0,1.0,259.0,945.0,1.0,0,46.0,1
254,254,0.43510843269880917,0.4,0.0,0.0,301.0,769.0,0.0,1,430.0,1
255,255,0.41908695197405954,0.4,1.0,1.0,471.0,624.0,1.0,1,465.0,1
256,256,-0.07719921270050933,-0.1,0.0,1.0,455.0,692.0,1.0,0,683.0,1
257,257,-0.6759961852806553,-0.7,0.0,1.0,433.0,538.0,1.0,0,399.0,1
258,258,0.7853547131497262,0.8,0.0,0.0,412.0,950.0,0.0,1,488.0,1
259,259,-0.06036906961274313,-0.1,1.0,0.0,463.0,840.0,0.0,0,1027.0,1
260,260,0.0655194891775257,0.1,1.0,1.0,287.0,922.0,0.0,0,171.0,0
261,261,-0.32443477275316157,-0.3,0.0,1.0,473.0,937.0,1.0,0,450.0,1
262,262,0.01977961629297198,0.0,1.0,1.0,464.0,761.0,0.0,0,3295.0,0
263,263,0.7511604027088722,0.8,0.0,0.0,269.0,653.0,0.0,1,408.0,1
264,264,0.43713304196790104,0.4,0.0,0.0,336.0,903.0,0.0,1,271.0,1
265,265,0.42696198483036285,0.4,0.0,0.0,483.0,737.0,0.0,1,340.0,1
266,266,0.5768480960141295,0.6,1.0,1.0,317.0,697.0,1.0,1,306.0,1
267,267,0.3413650305538417,0.3,0.0,0.0,437.0,964.0,0.0,1,489.0,1
268,268,-0.23603348289060289,-0.2,1.0,0.0,355.0,800.0,0.0,0,295.0,1
269,269,0.36765567763415496,0.4,1.0,1.0,343.0,782.0,1.0,1,655.0,1
270,270,0.5355937108062315,0.5,1.0,1.0,499.0,935.0,1.0,1,436.0,1
271,271,0.7083368170594285,0.7,0.0,0.0,387.0,811.0,0.0,1,272.0,1
272,272,0.01905101905177531,0.0,1.0,1.0,291.0,860.0,0.0,0,69.0,0
273,273,0.5325441790328512,0.5,1.0,1.0,491.0,671.0,1.0,1,428.0,1
274,274,-0.8819613354395083,-0.9,0.0,1.0,461.0,651.0,1.0,0,358.0,1
275,275,0.09742843260404754,0.1,1.0,1.0,426.0,565.0,1.0,1,369.0,1
276,276,0.4648087772639681,0.5,0.0,0.0,357.0,621.0,0.0,1,262.0,1
277,277,0.2208257713251517,0.2,0.0,0.0,443.0,787.0,1.0,0,150.0,0
278,278,0.5148447940416775,0.5,1.0,1.0,343.0,922.0,1.0,1,265.0,1
279,279,0.2303638737409669,0.2,0.0,0.0,270.0,987.0,0.0,1,503.0,1
280,280,0.8657753122714879,0.9,0.0,0.0,470.0,924.0,0.0,1,216.0,1
281,281,0.5629423410846494,0.6,1.0,1.0,281.0,630.0,1.0,1,329.0,1
282,282,-0.7114895812611427,-0.7,1.0,0.0,277.0,709.0,0.0,0,134.0,1
283,283,-0.8936284432576063,-0.9,1.0,0.0,261.0,701.0,0.0,0,208.0,1
284,284,-0.46596553024469145,-0.5,1.0,0.0,485.0,831.0,0.0,0,184.0,1
285,285,-0.6535487512067949,-0.7,0.0,1.0,479.0,949.0,1.0,0,242.0,1
286,286,0.16007366990218397,0.2,0.0,0.0,451.0,820.0,0.0,1,719.0,1
287,287,0.025311909650697517,0.0,0.0,0.0,258.0,598.0,1.0,0,274.0,0
288,288,-0.746871210902654,-0.7,1.0,0.0,421.0,900.0,0.0,0,309.0,1
289,289,0.4746678930236613,0.5,0.0,0.0,365.0,798.0,0.0,1,707.0,1
290,290,0.6239862852186179,0.6,0.0,0.0,290.0,582.0,0.0,1,448.0,1
291,291,0.3612149888601578,0.4,0.0,0.0,316.0,623.0,0.0,1,351.0,1
292,292,0.43040959245101396,0.4,1.0,1.0,337.0,578.0,1.0,1,525.0,1
293,293,0.3456955151606719,0.3,0.0,0.0,485.0,696.0,0.0,1,329.0,1
294,294,0.7802788031278874,0.8,1.0,1.0,309.0,950.0,1.0,1,-49.0,1
295,295,0.16238902916415976,0.2,0.0,0.0,491.0,512.0,1.0,0,2347.0,0
296,296,0.587661455642131,0.6,0.0,0.0,459.0,987.0,0.0,1,274.0,1
297,297,0.03374735656679617,0.0,1.0,1.0,272.0,834.0,1.0,1,1604.0,1
298,298,-0.8674301833063206,-0.9,0.0,1.0,265.0,778.0,1.0,0,187.0,1
299,299,-0.5231530275124597,-0.5,0.0,1.0,436.0,998.0,1.0,0,796.0,1
300,300,-0.5145680769100451,-0.5,1.0,0.0,364.0,575.0,0.0,0,321.0,1
301,301,-0.514410933311482,-0.5,1.0,0.0,499.0,593.0,0.0,0,248.0,1
302,302,0.27043575767245576,0.3,1.0,1.0,251.0,677.0,1.0,1,1312.0,1
303,303,-0.034378004158982955,-0.0,0.0,1.0,417.0,775.0,0.0,1,1158.0,0
304,304,-0.4087202235266036,-0.4,1.0,0.0,411.0,983.0,0.0,0,276.0,1
305,305,0.15899934246177538,0.2,0.0,0.0,465.0,703.0,0.0,1,2432.0,1
306,306,-0.8520064292197211,-0.9,1.0,0.0,395.0,674.0,0.0,0,181.0,1
307,307,0.08438648169418461,0.1,1.0,1.0,258.0,589.0,1.0,1,2553.0,1
308,308,0.5180695392857592,0.5,1.0,1.0,462.0,870.0,1.0,1,178.0,1
309,309,-0.21910286183783723,-0.2,1.0,0.0,350.0,641.0,0.0,0,2739.0,1
310,310,-0.13202491981528575,-0.1,0.0,1.0,282.0,664.0,1.0,0,404.0,1
311,311,0.628994183359615,0.6,1.0,1.0,276.0,796.0,1.0,1,418.0,1
312,312,-0.8310235437835639,-0.8,0.0,1.0,370.0,915.0,1.0,0,145.0,1
313,313,0.413740633836455,0.4,1.0,1.0,312.0,735.0,1.0,1,253.0,1
314,314,0.5505083473288316,0.6,1.0,1.0,298.0,670.0,1.0,1,452.0,1
315,315,0.14546462500674717,0.1,0.0,0.0,494.0,900.0,0.0,1,336.0,1
316,316,0.6031933672943989,0.6,0.0,0.0,350.0,831.0,0.0,1,379.0,1
317,317,0.608541821365992,0.6,1.0,1.0,273.0,762.0,1.0,1,825.0,1
318,318,-0.3534113657405493,-0.4,1.0,0.0,495.0,871.0,0.0,0,374.0,1
319,319,0.8455811881543965,0.8,1.0,1.0,354.0,891.0,1.0,1,205.0,1
320,320,-0.1154078261423106,-0.1,1.0,0.0,339.0,916.0,0.0,0,235.0,1
321,321,-0.5147990699991567,-0.5,1.0,0.0,351.0,958.0,0.0,0,91.0,1
322,322,0.7520116197364085,0.8,0.0,0.0,260.0,601.0,0.0,1,209.0,1
323,323,0.5643624542354199,0.6,1.0,1.0,303.0,508.0,1.0,1,329.0,1
324,324,0.1629451468510893,0.2,1.0,1.0,434.0,600.0,0.0,0,566.0,0
325,325,-0.16770186952804145,-0.2,1.0,0.0,426.0,894.0,0.0,0,350.0,1
326,326,-0.2710405909863325,-0.3,1.0,0.0,337.0,746.0,0.0,0,597.0,1
327,327,-0.599619130058954,-0.6,0.0,1.0,362.0,749.0,1.0,0,579.0,1
328,328,-0.6425931473560753,-0.6,0.0,1.0,456.0,918.0,1.0,0,306.0,1
329,329,0.2913051728894748,0.3,1.0,1.0,453.0,632.0,1.0,1,615.0,1
330,330,0.09527546477257609,0.1,0.0,0.0,486.0,787.0,0.0,1,1437.0,1
331,331,0.16185878932328512,0.2,1.0,1.0,485.0,815.0,1.0,1,430.0,1
332,332,-0.7325527300918036,-0.7,0.0,1.0,457.0,723.0,1.0,0,110.0,1
333,333,-0.10548219726711927,-0.1,1.0,0.0,426.0,826.0,0.0,0,698.0,1
334,334,-0.8579451062046539,-0.9,0.0,1.0,422.0,560.0,1.0,0,338.0,1
335,335,0.4508306781860193,0.5,0.0,0.0,469.0,588.0,0.0,1,473.0,1
336,336,-0.7224510229629105,-0.7,0.0,1.0,398.0,608.0,1.0,0,324.0,1
337,337,-0.4056476119761562,-0.4,0.0,1.0,458.0,876.0,1.0,0,76.0,1
338,338,-0.8342306595261255,-0.8,0.0,1.0,313.0,521.0,1.0,0,716.0,1
339,339,0.5869949761999348,0.6,1.0,1.0,477.0,996.0,1.0,1,167.0,1
340,340,-0.657185958828994,-0.7,0.0,1.0,401.0,837.0,1.0,0,182.0,1
341,341,0.8278987970524608,0.8,0.0,0.0,394.0,991.0,0.0,1,155.0,1
342,342,-0.3911470247314103,-0.4,1.0,0.0,433.0,739.0,0.0,0,958.0,1
343,343,-0.7619107552582134,-0.8,0.0,1.0,485.0,984.0,1.0,0,61.0,1
344,344,-0.8725410454015687,-0.9,1.0,0.0,366.0,639.0,0.0,0,235.0,1
345,345,-0.5479290524498908,-0.5,0.0,1.0,333.0,779.0,1.0,0,158.0,1
346,346,-0.10667051799867455,-0.1,1.0,0.0,311.0,647.0,0.0,0,262.0,1
347,347,-0.3912061163786692,-0.4,1.0,0.0,449.0,690.0,0.0,0,161.0,1
348,348,0.08787386312953482,0.1,0.0,0.0,488.0,796.0,0.0,1,186.0,1
349,349,0.3865206644307274,0.4,1.0,1.0,288.0,863.0,1.0,1,569.0,1
350,350,0.7517709374898524,0.8,1.0,1.0,286.0,705.0,1.0,1,259.0,1
351,351,0.449934100850815,0.4,1.0,1.0,459.0,641.0,1.0,1,490.0,1
352,352,0.8752609049660273,0.9,1.0,1.0,424.0,761.0,1.0,1,285.0,1
353,353,-0.26391407662869737,-0.3,1.0,0.0,391.0,866.0,0.0,0,433.0,1
354,354,0.2735379162079178,0.3,1.0,1.0,464.0,923.0,1.0,1,1703.0,1
355,355,0.1322211592172452,0.1,0.0,0.0,469.0,524.0,0.0,1,367.0,1
356,356,-0.2918118433766973,-0.3,1.0,0.0,473.0,603.0,0.0,0,324.0,1
357,357,0.7327610409307664,0.7,1.0,1.0,313.0,651.0,1.0,1,326.0,1
358,358,0.8141080607380548,0.8,0.0,0.0,395.0,628.0,0.0,1,437.0,1
359,359,-0.15415321519065384,-0.2,0.0,1.0,279.0,837.0,1.0,0,404.0,1
360,360,0.6626970928753005,0.7,0.0,0.0,357.0,970.0,0.0,1,143.0,1
361,361,-0.7272625889010993,-0.7,0.0,1.0,338.0,687.0,1.0,0,345.0,1
362,362,0.5480571209044268,0.5,1.0,1.0,341.0,940.0,1.0,1,329.0,1
363,363,0.5523058788321847,0.6,1.0,1.0,258.0,503.0,1.0,1,929.0,1
364,364,-0.64422366241215,-0.6,1.0,0.0,317.0,622.0,0.0,0,441.0,1
365,365,-0.2069998442046318,-0.2,0.0,1.0,337.0,786.0,0.0,1,217.0,0
366,366,-0.8482173877041843,-0.8,0.0,1.0,350.0,750.0,1.0,0,430.0,1
367,367,0.622845990230995,0.6,1.0,1.0,339.0,732.0,1.0,1,349.0,1
368,368,0.2470859397203894,0.2,0.0,0.0,491.0,863.0,0.0,1,376.0,1
369,369,0.8717080505702778,0.9,0.0,0.0,351.0,768.0,0.0,1,361.0,1
370,370,0.4684929491326598,0.5,1.0,1.0,357.0,999.0,1.0,1,194.0,1
371,371,-0.3396362902491693,-0.3,1.0,0.0,331.0,693.0,0.0,0,556.0,1
372,372,-0.21390498730128193,-0.2,0.0,1.0,391.0,909.0,1.0,0,350.0,1
373,373,-0.005270254512848793,-0.0,1.0,0.0,436.0,917.0,1.0,1,247.0,0
374,374,-0.7607649062335341,-0.8,1.0,0.0,364.0,685.0,0.0,0,131.0,1
375,375,0.6823038283857531,0.7,1.0,1.0,373.0,550.0,1.0,1,287.0,1
376,376,-0.11306450754997377,-0.1,0.0,1.0,300.0,786.0,1.0,0,244.0,1
377,377,-0.12291474617779663,-0.1,0.0,1.0,404.0,948.0,1.0,0,2978.0,1
378,378,-0.04435420668168877,-0.0,1.0,0.0,293.0,708.0,1.0,1,599.0,0
379,379,0.17088320220310316,0.2,1.0,1.0,286.0,537.0,1.0,1,747.0,1
380,380,0.8800354745652456,0.9,1.0,1.0,371.0,636.0,1.0,1,333.0,1
381,381,0.3994280053871003,0.4,1.0,1.0,498.0,841.0,1.0,1,421.0,1
382,382,-0.6970535608058661,-0.7,1.0,0.0,438.0,730.0,0.0,0,312.0,1
383,383,0.14436160432032963,0.1,1.0,1.0,312.0,709.0,1.0,1,829.0,1
384,384,0.380927185356731,0.4,0.0,0.0,478.0,578.0,0.0,1,434.0,1
385,385,-0.23455764272947166,-0.2,1.0,0.0,400.0,681.0,0.0,0,1039.0,1
386,386,0.030720207051087467,0.0,1.0,1.0,301.0,640.0,1.0,1,699.0,1
387,387,-0.32752325044615516,-0.3,1.0,0.0,497.0,940.0,0.0,0,223.0,1
388,388,-0.12266247556116472,-0.1,0.0,1.0,426.0,799.0,1.0,0,525.0,1
389,389,0.14142414023227368,0.1,0.0,0.0,298.0,994.0,0.0,1,1418.0,1
390,390,0.47838433617300236,0.5,0.0,0.0,429.0,661.0,0.0,1,310.0,1
391,391,-0.4039779444892095,-0.4,1.0,0.0,474.0,857.0,0.0,0,159.0,1
392,392,0.14440481855836762,0.1,1.0,1.0,482.0,552.0,1.0,1,2216.0,1
393,393,0.6156823002510144,0.6,0.0,0.0,404.0,643.0,0.0,1,373.0,1
394,394,-0.29215809038415386,-0.3,1.0,0.0,365.0,984.0,0.0,0,491.0,1
395,395,0.6837400371020365,0.7,0.0,0.0,465.0,873.0,0.0,1,172.0,1
396,396,-0.7875665335440933,-0.8,0.0,1.0,258.0,590.0,1.0,0,502.0,1
397,397,-0.3096743750960822,-0.3,0.0,1.0,445.0,620.0,1.0,0,715.0,1
398,398,-0.4088446112015184,-0.4,0.0,1.0,304.0,793.0,1.0,0,323.0,1
399,399,-0.45901777118607634,-0.5,0.0,1.0,344.0,698.0,1.0,0,548.0,1
400,400,-0.4318397671692227,-0.4,1.0,0.0,351.0,918.0,0.0,0,911.0,1
401,401,0.787264872512781,0.8,1.0,1.0,489.0,646.0,1.0,1,425.0,1
402,402,-0.2044544289191924,-0.2,1.0,0.0,484.0,669.0,0.0,0,577.0,1
403,403,0.09938214358904585,0.1,1.0,1.0,265.0,807.0,1.0,1,158.0,1
404,404,-0.6673815832778675,-0.7,1.0,0.0,454.0,894.0,0.0,0,152.0,1
405,405,0.16511867320004436,0.2,0.0,0.0,435.0,733.0,0.0,1,1732.0,1
406,406,-0.29752858341445865,-0.3,0.0,1.0,488.0,645.0,1.0,0,677.0,1
407,407,-0.27146454765150596,-0.3,0.0,1.0,278.0,652.0,1.0,0,510.0,1
408,408,-0.24631848959935243,-0.2,1.0,0.0,444.0,755.0,0.0,0,671.0,1
409,409,0.4174934440375545,0.4,1.0,1.0,375.0,937.0,1.0,1,548.0,1
410,410,-0.25558721924991057,-0.3,0.0,1.0,452.0,605.0,1.0,0,533.0,1
411,411,-0.40106543306286435,-0.4,0.0,1.0,403.0,686.0,1.0,0,451.0,1
412,412,0.706935601631309,0.7,1.0,1.0,269.0,857.0,1.0,1,214.0,1
413,413,0.18905492451212946,0.2,0.0,0.0,395.0,656.0,0.0,1,369.0,1
414,414,-0.5267993443691863,-0.5,0.0,1.0,402.0,799.0,1.0,0,219.0,1
415,415,0.23985976325854053,0.2,1.0,1.0,354.0,856.0,0.0,0,290.0,0
416,416,0.10495964925961732,0.1,1.0,1.0,355.0,585.0,1.0,1,1740.0,1
417,417,-0.4035060500892953,-0.4,1.0,0.0,463.0,859.0,0.0,0,8.0,1
418,418,0.16079304045470033,0.2,0.0,0.0,252.0,675.0,0.0,1,313.0,1
419,419,0.7595311802140795,0.8,1.0,1.0,281.0,924.0,1.0,1,115.0,1
420,420,0.7496639146387843,0.7,0.0,0.0,312.0,905.0,0.0,1,483.0,1
421,421,0.09325008839729088,0.1,1.0,1.0,421.0,996.0,1.0,1,233.0,1
422,422,0.1371931338679121,0.1,0.0,0.0,416.0,639.0,0.0,1,675.0,1
423,423,-0.4987002358494645,-0.5,1.0,0.0,421.0,897.0,0.0,0,512.0,1
424,424,0.607227371599553,0.6,0.0,0.0,424.0,865.0,0.0,1,81.0,1
425,425,0.6956758618766462,0.7,0.0,0.0,295.0,722.0,0.0,1,293.0,1
426,426,0.51458283663653,0.5,1.0,1.0,493.0,665.0,1.0,1,432.0,1
427,427,0.501169597719756,0.5,1.0,1.0,391.0,718.0,1.0,1,411.0,1
428,428,-0.4914006729437945,-0.5,1.0,0.0,411.0,818.0,0.0,0,331.0,1
429,429,-0.16424847102013918,-0.2,1.0,0.0,396.0,541.0,0.0,0,1143.0,1
430,430,0.0949108622022461,0.1,1.0,1.0,474.0,928.0,1.0,1,1318.0,1
431,431,-0.6372416172749558,-0.6,1.0,0.0,416.0,882.0,0.0,0,112.0,1
432,432,0.5531936338219811,0.6,0.0,0.0,475.0,823.0,0.0,1,202.0,1
433,433,-0.6899428171982994,-0.7,0.0,1.0,470.0,702.0,1.0,0,388.0,1
434,434,-0.7921234281735562,-0.8,0.0,1.0,429.0,951.0,1.0,0,190.0,1
435,435,0.013147681214670026,0.0,1.0,1.0,361.0,617.0,1.0,1,3702.0,1
436,436,0.37215638458814404,0.4,1.0,1.0,445.0,512.0,0.0,0,753.0,0
437,437,0.3347648210280846,0.3,1.0,1.0,321.0,577.0,1.0,1,622.0,1
438,438,-0.44965063474556183,-0.4,0.0,1.0,271.0,530.0,1.0,0,949.0,1
439,439,7.909794286198313e-05,0.0,0.0,0.0,363.0,635.0,1.0,0,802.0,0
440,440,-0.22614573948691663,-0.2,0.0,1.0,389.0,635.0,1.0,0,266.0,1
441,441,-0.4829244724982564,-0.5,0.0,1.0,372.0,552.0,1.0,0,486.0,1
442,442,-0.28821943258148897,-0.3,1.0,0.0,290.0,717.0,0.0,0,563.0,1
443,443,-0.5288077329089731,-0.5,1.0,0.0,268.0,671.0,0.0,0,391.0,1
444,444,0.28524013572555484,0.3,0.0,0.0,479.0,764.0,0.0,1,207.0,1
445,445,0.12644090773578542,0.1,1.0,1.0,495.0,522.0,1.0,1,853.0,1
446,446,0.48692521286711143,0.5,1.0,1.0,394.0,695.0,1.0,1,371.0,1
447,447,0.3717294440343778,0.4,0.0,0.0,352.0,911.0,1.0,0,107.0,0
448,448,-0.8742664942856145,-0.9,0.0,1.0,499.0,816.0,1.0,0,275.0,1
449,449,0.4816390470845163,0.5,1.0,1.0,478.0,599.0,1.0,1,273.0,1
450,450,0.37914491525138005,0.4,0.0,0.0,368.0,776.0,1.0,0,356.0,0
451,451,-0.8350376159523912,-0.8,1.0,0.0,437.0,897.0,0.0,0,126.0,1
452,452,-0.35529915788134625,-0.4,1.0,0.0,442.0,524.0,0.0,0,514.0,1
453,453,-0.2773582917665174,-0.3,1.0,0.0,381.0,945.0,0.0,0,194.0,1
454,454,-0.7743650824837469,-0.8,1.0,0.0,402.0,947.0,0.0,0,131.0,1
455,455,0.7026673046294775,0.7,0.0,0.0,413.0,624.0,0.0,1,393.0,1
456,456,0.8018838871441961,0.8,1.0,1.0,425.0,556.0,1.0,1,819.0,1
457,457,-0.21397475587144332,-0.2,1.0,0.0,377.0,595.0,0.0,0,1078.0,1
458,458,0.5939554380716149,0.6,0.0,0.0,315.0,877.0,0.0,1,388.0,1
459,459,-0.6576421697662674,-0.7,1.0,0.0,491.0,859.0,0.0,0,80.0,1
460,460,-0.8186337229640246,-0.8,0.0,1.0,261.0,760.0,1.0,0,199.0,1
461,461,-0.05948422097581507,-0.1,0.0,1.0,407.0,939.0,1.0,0,3124.0,1
462,462,0.23138901392350186,0.2,0.0,0.0,313.0,670.0,0.0,1,577.0,1
463,463,-0.09018064038958606,-0.1,1.0,0.0,378.0,649.0,0.0,0,643.0,1
464,464,0.7491291348166239,0.7,0.0,0.0,369.0,526.0,0.0,1,535.0,1
465,465,0.6365612642133248,0.6,1.0,1.0,323.0,936.0,1.0,1,441.0,1
466,466,-0.6957036087731824,-0.7,1.0,0.0,259.0,518.0,0.0,0,513.0,1
467,467,0.40503136880745105,0.4,1.0,1.0,357.0,680.0,1.0,1,533.0,1
468,468,-0.642074419196855,-0.6,0.0,1.0,356.0,738.0,1.0,0,306.0,1
469,469,0.8632011009137822,0.9,0.0,0.0,491.0,650.0,0.0,1,309.0,1
470,470,0.1407464233139487,0.1,1.0,1.0,438.0,917.0,1.0,1,365.0,1
471,471,0.6236978262137644,0.6,1.0,1.0,430.0,880.0,1.0,1,330.0,1
472,472,0.8931059166504315,0.9,0.0,0.0,355.0,875.0,0.0,1,170.0,1
473,473,0.7500120854783187,0.8,1.0,1.0,496.0,690.0,1.0,1,374.0,1
474,474,0.6188509830159522,0.6,1.0,1.0,258.0,948.0,1.0,1,154.0,1
475,475,-0.1344755482831348,-0.1,1.0,0.0,293.0,967.0,0.0,0,90.0,1
476,476,-0.5039680550387274,-0.5,1.0,0.0,261.0,546.0,0.0,0,543.0,1
477,477,0.8340638129883798,0.8,0.0,0.0,327.0,504.0,0.0,1,729.0,1
478,478,0.43935408849356017,0.4,1.0,1.0,379.0,667.0,1.0,1,494.0,1
479,479,-0.6443188543970213,-0.6,1.0,0.0,305.0,594.0,0.0,0,671.0,1
480,480,-0.1789337284377085,-0.2,1.0,0.0,493.0,604.0,0.0,0,413.0,1
481,481,0.21893537255264428,0.2,0.0,0.0,410.0,679.0,0.0,1,1471.0,1
482,482,-0.08445375664172594,-0.1,0.0,1.0,296.0,600.0,0.0,1,1084.0,0
483,483,0.5560892126353009,0.6,0.0,0.0,360.0,939.0,0.0,1,-19.0,1
484,484,0.28912145423230606,0.3,1.0,1.0,414.0,504.0,1.0,1,762.0,1
485,485,0.5497662497783421,0.5,0.0,0.0,343.0,981.0,0.0,1,316.0,1
486,486,-0.2149181997425602,-0.2,0.0,1.0,454.0,944.0,1.0,0,1442.0,1
487,487,-0.03356093046222974,-0.0,1.0,0.0,276.0,688.0,0.0,0,746.0,1
488,488,-0.040680085037134495,-0.0,0.0,1.0,253.0,556.0,0.0,1,791.0,0
489,489,-0.19808355551624068,-0.2,0.0,1.0,419.0,770.0,1.0,0,1361.0,1
490,490,0.6758600952875206,0.7,0.0,0.0,458.0,556.0,0.0,1,466.0,1
491,491,0.12831335983300762,0.1,0.0,0.0,435.0,694.0,1.0,0,201.0,0
492,492,0.35653644926438444,0.4,1.0,1.0,335.0,799.0,1.0,1,316.0,1
493,493,-0.7815825564989581,-0.8,0.0,1.0,347.0,951.0,1.0,0,152.0,1
494,494,0.1563859641875044,0.2,0.0,0.0,420.0,699.0,0.0,1,1471.0,1
495,495,0.7580734329147477,0.8,1.0,1.0,370.0,940.0,1.0,1,340.0,1
496,496,-0.42702526176273625,-0.4,0.0,1.0,427.0,865.0,1.0,0,2088.0,1
497,497,-0.1844402094870664,-0.2,1.0,0.0,451.0,643.0,0.0,0,506.0,1
498,498,0.6302858837611672,0.6,1.0,1.0,273.0,911.0,1.0,1,346.0,1
499,499,0.8201053326981332,0.8,0.0,0.0,302.0,860.0,0.0,1,158.0,1
500,500,0.15594556362452583,0.2,0.0,0.0,253.0,837.0,0.0,1,630.0,1
501,501,0.47151802134468157,0.5,0.0,0.0,253.0,647.0,0.0,1,420.0,1
502,502,0.4823207601419536,0.5,1.0,1.0,415.0,735.0,1.0,1,200.0,1
503,503,0.5448923034606609,0.5,0.0,0.0,269.0,699.0,0.0,1,602.0,1
504,504,-0.8101436065219895,-0.8,0.0,1.0,481.0,507.0,1.0,0,382.0,1
505,505,-0.748597848939986,-0.7,0.0,1.0,389.0,944.0,1.0,0,207.0,1
506,506,-0.8486240504621654,-0.8,1.0,0.0,397.0,670.0,0.0,0,203.0,1
507,507,-0.3054254793299698,-0.3,0.0,1.0,425.0,511.0,1.0,0,704.0,1
508,508,0.4977865060900125,0.5,1.0,1.0,282.0,801.0,1.0,1,227.0,1
509,509,-0.25971877383222897,-0.3,1.0,0.0,301.0,526.0,0.0,0,413.0,1
510,510,-0.7814467480397487,-0.8,0.0,1.0,276.0,536.0,1.0,0,328.0,1
511,511,-0.8744051074829022,-0.9,0.0,1.0,359.0,758.0,1.0,0,193.0,1
512,512,0.23153272376004874,0.2,1.0,1.0,311.0,998.0,1.0,1,-9.0,1
513,513,-0.30982507164224127,-0.3,1.0,0.0,297.0,509.0,0.0,0,1054.0,1
514,514,0.17346907787630605,0.2,1.0,1.0,430.0,690.0,1.0,1,950.0,1
515,515,-0.38720887449766395,-0.4,0.0,1.0,416.0,695.0,1.0,0,519.0,1
516,516,-0.7305826114947211,-0.7,0.0,1.0,404.0,799.0,1.0,0,127.0,1
517,517,-0.10588171498611754,-0.1,0.0,1.0,268.0,866.0,1.0,0,246.0,1
518,518,0.1845939189733664,0.2,1.0,1.0,263.0,664.0,1.0,1,413.0,1
519,519,-0.7632566002558381,-0.8,1.0,0.0,342.0,791.0,0.0,0,127.0,1
520,520,-0.06973732634661578,-0.1,0.0,1.0,495.0,631.0,0.0,1,574.0,0
521,521,-0.2637579142498018,-0.3,1.0,0.0,420.0,626.0,0.0,0,1334.0,1
522,522,0.3335052103161148,0.3,1.0,1.0,457.0,712.0,1.0,1,1531.0,1
523,523,-0.7181797593404249,-0.7,0.0,1.0,373.0,500.0,1.0,0,457.0,1
524,524,0.6162761615487539,0.6,0.0,0.0,387.0,729.0,0.0,1,164.0,1
525,525,0.03097832820452251,0.0,0.0,0.0,348.0,671.0,1.0,0,381.0,0
526,526,0.4532290747208577,0.5,0.0,0.0,412.0,591.0,0.0,1,307.0,1
527,527,0.40960132047965503,0.4,0.0,0.0,328.0,740.0,0.0,1,582.0,1
528,528,0.7408792753393564,0.7,0.0,0.0,407.0,587.0,0.0,1,366.0,1
529,529,-0.2687321790394116,-0.3,0.0,1.0,309.0,855.0,1.0,0,446.0,1
530,530,0.05835578204868863,0.1,0.0,0.0,330.0,848.0,0.0,1,2042.0,1
531,531,0.58429777597227,0.6,0.0,0.0,388.0,940.0,0.0,1,352.0,1
532,532,-0.3592140276293616,-0.4,0.0,1.0,369.0,968.0,1.0,0,283.0,1
533,533,-0.007246867872103491,-0.0,1.0,0.0,375.0,929.0,0.0,0,156.0,1
534,534,-0.5469066102998885,-0.5,0.0,1.0,348.0,694.0,1.0,0,468.0,1
535,535,0.6131506089486142,0.6,0.0,0.0,312.0,678.0,0.0,1,240.0,1
536,536,0.5827720439003797,0.6,0.0,0.0,383.0,802.0,0.0,1,205.0,1
537,537,-0.3448059445875523,-0.3,0.0,1.0,378.0,923.0,1.0,0,319.0,1
538,538,-0.552305269705679,-0.6,1.0,0.0,317.0,898.0,0.0,0,45.0,1
539,539,0.8933356338262152,0.9,1.0,1.0,328.0,567.0,1.0,1,255.0,1
540,540,0.0676385462512119,0.1,0.0,0.0,301.0,789.0,0.0,1,180.0,1
541,541,-0.5255659821786138,-0.5,0.0,1.0,495.0,677.0,1.0,0,238.0,1
542,542,-0.5992365555448858,-0.6,0.0,1.0,441.0,603.0,1.0,0,456.0,1
543,543,-0.6454586903877402,-0.6,1.0,0.0,364.0,857.0,0.0,0,929.0,1
544,544,-0.12621591268354748,-0.1,0.0,1.0,379.0,684.0,1.0,0,1087.0,1
545,545,-0.5033438218841865,-0.5,1.0,0.0,257.0,604.0,0.0,0,589.0,1
546,546,-0.5386864405321283,-0.5,0.0,1.0,482.0,988.0,1.0,0,180.0,1
547,547,0.7603211787378455,0.8,0.0,0.0,293.0,599.0,0.0,1,538.0,1
548,548,0.051680121352474906,0.1,0.0,0.0,432.0,829.0,1.0,0,899.0,0
549,549,0.8237016508261424,0.8,1.0,1.0,250.0,512.0,1.0,1,348.0,1
550,550,0.05844285065296961,0.1,1.0,1.0,344.0,827.0,1.0,1,39.0,1
551,551,0.8869863061560476,0.9,0.0,0.0,344.0,958.0,0.0,1,98.0,1
552,552,-0.28073709703892835,-0.3,1.0,0.0,295.0,656.0,0.0,0,829.0,1
553,553,-0.05634626694149536,-0.1,0.0,1.0,478.0,759.0,0.0,1,823.0,0
554,554,0.7809471369927327,0.8,1.0,1.0,276.0,564.0,1.0,1,520.0,1
555,555,-0.0853944287737951,-0.1,1.0,0.0,328.0,668.0,0.0,0,324.0,1
556,556,-0.2684975094392732,-0.3,0.0,1.0,318.0,668.0,1.0,0,484.0,1
557,557,-0.022691524776293215,-0.0,1.0,0.0,283.0,699.0,0.0,0,1108.0,1
558,558,-0.1524427799091138,-0.2,0.0,1.0,351.0,934.0,1.0,0,725.0,1
559,559,-0.8079210359371252,-0.8,1.0,0.0,496.0,997.0,0.0,0,147.0,1
560,560,-0.6716050090750049,-0.7,1.0,0.0,290.0,896.0,0.0,0,474.0,1
561,561,0.09346351449451262,0.1,1.0,1.0,451.0,761.0,1.0,1,358.0,1
562,562,0.11567223208531086,0.1,1.0,1.0,440.0,905.0,1.0,1,3165.0,1
563,563,0.4291956740835271,0.4,0.0,0.0,402.0,804.0,0.0,1,434.0,1
564,564,-0.7712391945060675,-0.8,0.0,1.0,456.0,526.0,1.0,0,638.0,1
565,565,-0.6925243970163977,-0.7,1.0,0.0,437.0,958.0,0.0,0,465.0,1
566,566,0.523706441180468,0.5,0.0,0.0,268.0,754.0,0.0,1,408.0,1
567,567,0.12098236643326665,0.1,0.0,0.0,389.0,922.0,1.0,0,109.0,0
568,568,-0.6856593031099418,-0.7,0.0,1.0,441.0,640.0,1.0,0,499.0,1
569,569,-0.8406281291875071,-0.8,1.0,0.0,372.0,936.0,0.0,0,242.0,1
570,570,0.2075681149680012,0.2,1.0,1.0,258.0,522.0,1.0,1,1520.0,1
571,571,-0.49270373172289644,-0.5,1.0,0.0,329.0,998.0,0.0,0,163.0,1
572,572,-0.6315673698265796,-0.6,0.0,1.0,422.0,807.0,1.0,0,151.0,1
573,573,-0.531889140220438,-0.5,1.0,0.0,357.0,839.0,0.0,0,324.0,1
574,574,-0.8042652782377128,-0.8,0.0,1.0,490.0,520.0,1.0,0,300.0,1
575,575,0.14226643166555297,0.1,1.0,1.0,379.0,700.0,1.0,1,691.0,1
576,576,-0.025089486922629356,-0.0,0.0,1.0,497.0,788.0,1.0,0,455.0,1
577,577,0.27705720629932584,0.3,0.0,0.0,447.0,932.0,0.0,1,131.0,1
578,578,-0.5774227604180158,-0.6,0.0,1.0,387.0,522.0,1.0,0,611.0,1
579,579,-0.7390736918193234,-0.7,0.0,1.0,348.0,570.0,1.0,0,432.0,1
580,580,0.28158843578596027,0.3,0.0,0.0,310.0,998.0,1.0,0,2.0,0
581,581,0.16124833216818002,0.2,0.0,0.0,390.0,570.0,0.0,1,540.0,1
582,582,0.864326101498084,0.9,1.0,1.0,342.0,792.0,1.0,1,336.0,1
583,583,0.8629466681312138,0.9,1.0,1.0,471.0,679.0,1.0,1,290.0,1
584,584,0.8357831818833231,0.8,1.0,1.0,382.0,624.0,1.0,1,294.0,1
585,585,-0.47133805626386666,-0.5,0.0,1.0,382.0,743.0,1.0,0,305.0,1
586,586,-0.17524086201217115,-0.2,1.0,0.0,255.0,743.0,0.0,0,442.0,1
587,587,-0.17641042930034012,-0.2,0.0,1.0,303.0,550.0,1.0,0,517.0,1
588,588,0.8443410851113616,0.8,1.0,1.0,298.0,722.0,1.0,1,290.0,1
589,589,-0.4256654639898586,-0.4,1.0,0.0,421.0,880.0,0.0,0,339.0,1
590,590,-0.06578105426409009,-0.1,1.0,0.0,495.0,921.0,0.0,0,74.0,1
591,591,0.8124909718500258,0.8,0.0,0.0,250.0,603.0,0.0,1,4147.0,1
592,592,0.288006542475962,0.3,1.0,1.0,268.0,523.0,1.0,1,739.0,1
593,593,0.11839861128537443,0.1,1.0,1.0,452.0,611.0,0.0,0,2367.0,0
594,594,0.33871661058923397,0.3,1.0,1.0,353.0,785.0,1.0,1,452.0,1
595,595,0.26840393503380355,0.3,1.0,1.0,398.0,667.0,1.0,1,1215.0,1
596,596,0.748313456902025,0.7,0.0,0.0,284.0,890.0,0.0,1,286.0,1
597,597,-0.15417931683513975,-0.2,0.0,1.0,364.0,702.0,1.0,0,224.0,1
598,598,-0.569310111286013,-0.6,1.0,0.0,431.0,812.0,0.0,0,227.0,1
599,599,0.6105804038027304,0.6,1.0,1.0,465.0,944.0,1.0,1,381.0,1
600,600,-0.45158736690926476,-0.5,1.0,0.0,341.0,723.0,0.0,0,126.0,1
601,601,-0.630968101066056,-0.6,0.0,1.0,428.0,789.0,1.0,0,273.0,1
602,602,-0.37425316896906835,-0.4,0.0,1.0,303.0,864.0,1.0,0,223.0,1
603,603,-0.8306815590279795,-0.8,1.0,0.0,315.0,552.0,0.0,0,373.0,1
604,604,0.8835167201939088,0.9,0.0,0.0,272.0,637.0,0.0,1,321.0,1
605,605,0.2658924695726853,0.3,1.0,1.0,376.0,935.0,1.0,1,789.0,1
606,606,-0.12308593512937638,-0.1,0.0,1.0,412.0,682.0,1.0,0,576.0,1
607,607,0.5139719504330881,0.5,0.0,0.0,368.0,596.0,0.0,1,376.0,1
608,608,0.5525895119214211,0.6,0.0,0.0,406.0,971.0,0.0,1,203.0,1
609,609,-0.0792060991674326,-0.1,1.0,0.0,468.0,871.0,0.0,0,411.0,1
610,610,-0.6363135008053002,-0.6,1.0,0.0,339.0,694.0,0.0,0,417.0,1
611,611,0.19424669095896008,0.2,0.0,0.0,437.0,847.0,0.0,1,1456.0,1
612,612,-0.4502662662795873,-0.5,1.0,0.0,447.0,855.0,0.0,0,58.0,1
613,613,-0.027668034966209953,-0.0,1.0,0.0,284.0,862.0,1.0,1,1004.0,0
614,614,-0.7900901825029244,-0.8,0.0,1.0,314.0,892.0,1.0,0,214.0,1
615,615,0.5639562862796615,0.6,0.0,0.0,399.0,766.0,0.0,1,365.0,1
616,616,0.2724720512201725,0.3,1.0,1.0,349.0,810.0,1.0,1,591.0,1
617,617,0.37684117992563915,0.4,0.0,0.0,416.0,878.0,0.0,1,246.0,1
618,618,-0.20579705221932199,-0.2,1.0,0.0,315.0,812.0,0.0,0,383.0,1
619,619,-0.1857735497538756,-0.2,0.0,1.0,496.0,548.0,1.0,0,446.0,1
620,620,0.3679715467674761,0.4,1.0,1.0,349.0,907.0,0.0,0,154.0,0
621,621,0.06377102951601954,0.1,1.0,1.0,272.0,918.0,1.0,1,380.0,1
622,622,0.30115084706856143,0.3,0.0,0.0,325.0,885.0,0.0,1,670.0,1
623,623,0.613576945258023,0.6,1.0,1.0,364.0,672.0,1.0,1,394.0,1
624,624,-0.3361905222819095,-0.3,1.0,0.0,375.0,654.0,0.0,0,271.0,1
625,625,-0.7547664351268635,-0.8,1.0,0.0,313.0,638.0,0.0,0,229.0,1
626,626,-0.10746078989411889,-0.1,1.0,0.0,292.0,635.0,0.0,0,1193.0,1
627,627,0.4831140645669306,0.5,0.0,0.0,409.0,656.0,0.0,1,265.0,1
628,628,-0.14810689258013243,-0.1,1.0,0.0,368.0,745.0,1.0,1,177.0,0
629,629,0.2353781647861407,0.2,0.0,0.0,274.0,864.0,0.0,1,1242.0,1
630,630,0.40439760260346225,0.4,1.0,1.0,329.0,906.0,1.0,1,225.0,1
631,631,0.8097237735210742,0.8,1.0,1.0,285.0,960.0,1.0,1,295.0,1
632,632,-0.5238550020286379,-0.5,0.0,1.0,425.0,704.0,1.0,0,241.0,1
633,633,-0.5574390664386011,-0.6,1.0,0.0,395.0,982.0,0.0,0,-7.0,1
634,634,0.8040141864423705,0.8,1.0,1.0,339.0,877.0,1.0,1,174.0,1
635,635,-0.2598734872031526,-0.3,1.0,0.0,476.0,841.0,0.0,0,-37.0,1
636,636,-0.6482241344451307,-0.6,1.0,0.0,356.0,746.0,0.0,0,558.0,1
637,637,0.594750131465032,0.6,0.0,0.0,320.0,975.0,0.0,1,65.0,1
638,638,0.21004093575563976,0.2,1.0,1.0,348.0,669.0,1.0,1,673.0,1
639,639,0.2869570281039123,0.3,0.0,0.0,446.0,525.0,0.0,1,919.0,1
640,640,0.1161915348700232,0.1,1.0,1.0,379.0,642.0,1.0,1,579.0,1
641,641,-0.8029580738853055,-0.8,0.0,1.0,403.0,738.0,1.0,0,169.0,1
642,642,-0.44112451404031355,-0.4,0.0,1.0,352.0,666.0,1.0,0,572.0,1
643,643,-0.10351110718323919,-0.1,1.0,0.0,274.0,713.0,1.0,1,583.0,0
644,644,-0.19600091948899379,-0.2,1.0,0.0,456.0,899.0,0.0,0,275.0,1
645,645,0.5042546094325363,0.5,1.0,1.0,352.0,923.0,1.0,1,245.0,1
646,646,-0.5139145159456158,-0.5,0.0,1.0,378.0,895.0,1.0,0,367.0,1
647,647,-0.7643092330483318,-0.8,1.0,0.0,252.0,927.0,0.0,0,101.0,1
648,648,0.584960893961234,0.6,1.0,1.0,357.0,606.0,1.0,1,447.0,1
649,649,-0.5652552912431009,-0.6,1.0,0.0,282.0,667.0,0.0,0,361.0,1
650,650,-0.5950510800624584,-0.6,0.0,1.0,267.0,593.0,1.0,0,340.0,1
651,651,0.07629389289292265,0.1,1.0,1.0,375.0,630.0,1.0,1,1715.0,1
652,652,-0.48019645885807155,-0.5,1.0,0.0,369.0,625.0,0.0,0,286.0,1
653,653,-0.08346972609078895,-0.1,1.0,0.0,499.0,803.0,0.0,0,1418.0,1
654,654,0.4109678971249838,0.4,1.0,1.0,464.0,510.0,1.0,1,536.0,1
655,655,-0.8181530932980585,-0.8,1.0,0.0,471.0,595.0,0.0,0,254.0,1
656,656,0.6085246555637861,0.6,0.0,0.0,422.0,746.0,0.0,1,412.0,1
657,657,-0.4921519044734473,-0.5,1.0,0.0,440.0,863.0,0.0,0,477.0,1
658,658,-0.14333158818627678,-0.1,0.0,1.0,292.0,623.0,1.0,0,195.0,1
659,659,0.6047229834980122,0.6,0.0,0.0,445.0,660.0,0.0,1,1545.0,1
660,660,-0.11116348473920745,-0.1,1.0,0.0,423.0,640.0,0.0,0,797.0,1
661,661,0.34999505312375756,0.3,0.0,0.0,268.0,512.0,0.0,1,580.0,1
662,662,-0.7450359925149213,-0.7,1.0,0.0,397.0,920.0,0.0,0,203.0,1
663,663,-0.44686120991020806,-0.4,0.0,1.0,343.0,878.0,0.0,1,729.0,0
664,664,-0.4482378568645346,-0.4,0.0,1.0,334.0,976.0,1.0,0,120.0,1
665,665,-0.12825872820760154,-0.1,0.0,1.0,416.0,931.0,0.0,1,163.0,0
666,666,0.6948868111035796,0.7,1.0,1.0,405.0,552.0,1.0,1,443.0,1
667,667,-0.4455189631848835,-0.4,1.0,0.0,386.0,646.0,0.0,0,448.0,1
668,668,-0.14256974824584767,-0.1,1.0,0.0,285.0,909.0,0.0,0,456.0,1
669,669,-0.2657472730120477,-0.3,1.0,0.0,364.0,621.0,0.0,0,205.0,1
670,670,0.8321793139776573,0.8,0.0,0.0,362.0,835.0,0.0,1,453.0,1
671,671,-0.4963619624378562,-0.5,0.0,1.0,477.0,763.0,1.0,0,130.0,1
672,672,0.04836953055885773,0.0,0.0,0.0,377.0,775.0,1.0,0,218.0,0
673,673,-0.7056845302072388,-0.7,1.0,0.0,261.0,959.0,0.0,0,60.0,1
674,674,0.34164958558633185,0.3,0.0,0.0,290.0,733.0,0.0,1,347.0,1
675,675,-0.11778404825013289,-0.1,0.0,1.0,373.0,661.0,1.0,0,1366.0,1
676,676,-0.7998950221468726,-0.8,1.0,0.0,389.0,655.0,0.0,0,276.0,1
677,677,0.24591042533934682,0.2,1.0,1.0,289.0,997.0,1.0,1,274.0,1
678,678,0.3875452807616312,0.4,0.0,0.0,422.0,529.0,0.0,1,989.0,1
679,679,0.41304218689856,0.4,0.0,0.0,487.0,923.0,0.0,1,420.0,1
680,680,-0.7404562432802085,-0.7,0.0,1.0,297.0,885.0,1.0,0,328.0,1
681,681,0.8935711581668647,0.9,1.0,1.0,495.0,853.0,1.0,1,532.0,1
682,682,-0.04640784834512279,-0.0,0.0,1.0,305.0,659.0,1.0,0,1116.0,1
683,683,0.8273849477396059,0.8,0.0,0.0,310.0,991.0,0.0,1,89.0,1
684,684,0.5371585832342091,0.5,1.0,1.0,324.0,717.0,1.0,1,239.0,1
685,685,0.20628547329611868,0.2,1.0,1.0,471.0,860.0,0.0,0,-21.0,0
686,686,-0.1824103636384693,-0.2,1.0,0.0,437.0,868.0,0.0,0,455.0,1
687,687,0.6485911948001256,0.6,0.0,0.0,434.0,988.0,1.0,0,-2.0,0
688,688,0.18542270483825563,0.2,1.0,1.0,308.0,930.0,1.0,1,762.0,1
689,689,0.7902237183217359,0.8,1.0,1.0,350.0,956.0,1.0,1,94.0,1
690,690,0.06522667184568653,0.1,1.0,1.0,476.0,611.0,0.0,0,3223.0,0
691,691,-0.16269910833976986,-0.2,0.0,1.0,408.0,695.0,1.0,0,287.0,1
692,692,-0.33078711066100297,-0.3,1.0,0.0,301.0,589.0,0.0,0,1490.0,1
693,693,-0.5286631082198768,-0.5,0.0,1.0,421.0,503.0,1.0,0,696.0,1
694,694,0.26484894746535315,0.3,1.0,1.0,409.0,517.0,1.0,1,524.0,1
695,695,0.7519981720636456,0.8,1.0,1.0,271.0,566.0,1.0,1,473.0,1
696,696,-0.04859808855359704,-0.0,0.0,1.0,433.0,999.0,0.0,1,2588.0,0
697,697,0.01359088192664859,0.0,1.0,1.0,326.0,784.0,1.0,1,40.0,1
698,698,-0.7227652489947953,-0.7,1.0,0.0,499.0,841.0,0.0,0,500.0,1
699,699,0.24001453972266729,0.2,0.0,0.0,359.0,596.0,0.0,1,575.0,1
700,700,-0.03177483300493,-0.0,1.0,0.0,483.0,891.0,0.0,0,786.0,1
701,701,-0.12589458956954924,-0.1,1.0,0.0,297.0,603.0,0.0,0,270.0,1
702,702,0.23065186547200256,0.2,0.0,0.0,438.0,889.0,0.0,1,203.0,1
703,703,0.737147528358065,0.7,0.0,0.0,268.0,588.0,0.0,1,424.0,1
704,704,0.5257221954363877,0.5,0.0,0.0,347.0,704.0,0.0,1,579.0,1
705,705,-0.3051159336308259,-0.3,1.0,0.0,307.0,753.0,0.0,0,260.0,1
706,706,-0.24857741171817072,-0.2,0.0,1.0,440.0,965.0,1.0,0,825.0,1
707,707,-0.24563110459400728,-0.2,0.0,1.0,259.0,791.0,1.0,0,570.0,1
708,708,0.19349356960959063,0.2,0.0,0.0,455.0,576.0,0.0,1,569.0,1
709,709,0.49813265702255494,0.5,1.0,1.0,483.0,819.0,1.0,1,168.0,1
710,710,0.3793698303924792,0.4,0.0,0.0,392.0,849.0,0.0,1,249.0,1
711,711,0.33035608085079027,0.3,1.0,1.0,477.0,588.0,1.0,1,1615.0,1
712,712,-0.24363571584989352,-0.2,1.0,0.0,343.0,792.0,0.0,0,315.0,1
713,713,0.1066948409208287,0.1,1.0,1.0,392.0,663.0,1.0,1,1585.0,1
714,714,0.5305762232878618,0.5,1.0,1.0,315.0,704.0,1.0,1,601.0,1
715,715,-0.6205885154716864,-0.6,0.0,1.0,391.0,574.0,1.0,0,525.0,1
716,716,0.311532568628495,0.3,1.0,1.0,440.0,974.0,1.0,1,136.0,1
717,717,0.7079460818230633,0.7,0.0,0.0,361.0,761.0,0.0,1,388.0,1
718,718,0.03929409064423495,0.0,0.0,0.0,430.0,725.0,0.0,1,205.0,1
719,719,-0.03792998403056147,-0.0,1.0,0.0,461.0,836.0,0.0,0,243.0,1
720,720,-0.44259056543284275,-0.4,0.0,1.0,370.0,594.0,1.0,0,466.0,1
721,721,-0.037447820091237594,-0.0,0.0,1.0,426.0,814.0,1.0,0,300.0,1
722,722,0.4340255072102276,0.4,0.0,0.0,460.0,686.0,0.0,1,444.0,1
723,723,0.5543420343596158,0.6,0.0,0.0,379.0,924.0,0.0,1,307.0,1
724,724,-0.8000021850350858,-0.8,1.0,0.0,269.0,965.0,0.0,0,376.0,1
725,725,0.5722925850109796,0.6,1.0,1.0,498.0,593.0,1.0,1,449.0,1
726,726,-0.5331275342770186,-0.5,1.0,0.0,348.0,644.0,0.0,0,578.0,1
727,727,0.2661606625581402,0.3,1.0,1.0,337.0,694.0,1.0,1,659.0,1
728,728,0.6641283477564327,0.7,0.0,0.0,352.0,594.0,0.0,1,524.0,1
729,729,0.6106786161583727,0.6,0.0,0.0,487.0,739.0,0.0,1,924.0,1
730,730,-0.033545203964762016,-0.0,0.0,1.0,322.0,595.0,1.0,0,613.0,1
731,731,-0.6591500734530193,-0.7,1.0,0.0,418.0,816.0,0.0,0,406.0,1
732,732,0.1380147159470898,0.1,1.0,1.0,368.0,520.0,1.0,1,1152.0,1
733,733,-0.2996326471507471,-0.3,1.0,0.0,494.0,778.0,0.0,0,328.0,1
734,734,0.15017784801394718,0.2,0.0,0.0,387.0,808.0,0.0,1,665.0,1
735,735,-0.404813323744664,-0.4,0.0,1.0,346.0,962.0,1.0,0,292.0,1
736,736,0.7420753574359086,0.7,0.0,0.0,461.0,758.0,0.0,1,291.0,1
737,737,0.4590065971619802,0.5,0.0,0.0,458.0,880.0,0.0,1,142.0,1
738,738,0.5780572002788577,0.6,1.0,1.0,415.0,648.0,1.0,1,487.0,1
739,739,-0.2011036651558039,-0.2,1.0,0.0,337.0,904.0,0.0,0,589.0,1
740,740,-0.39266687396968847,-0.4,1.0,0.0,497.0,832.0,0.0,0,201.0,1
741,741,0.21120048281171722,0.2,1.0,1.0,339.0,836.0,1.0,1,535.0,1
742,742,0.8163552916431779,0.8,0.0,0.0,326.0,526.0,0.0,1,468.0,1
743,743,0.059036459203724134,0.1,0.0,0.0,473.0,917.0,1.0,0,1610.0,0
744,744,-0.6668292111676574,-0.7,0.0,1.0,490.0,760.0,1.0,0,330.0,1
745,745,0.04444046008059499,0.0,0.0,0.0,431.0,706.0,1.0,0,423.0,0
746,746,-0.5412920404174464,-0.5,0.0,1.0,460.0,744.0,1.0,0,336.0,1
747,747,-0.32566205970803974,-0.3,1.0,0.0,369.0,825.0,0.0,0,426.0,1
748,748,-0.5889683347487256,-0.6,0.0,1.0,350.0,589.0,1.0,0,401.0,1
749,749,-0.657804419721003,-0.7,1.0,0.0,336.0,648.0,0.0,0,456.0,1
750,750,-0.4920351790255606,-0.5,0.0,1.0,492.0,955.0,1.0,0,953.0,1
751,751,0.7350130973280334,0.7,1.0,1.0,369.0,778.0,1.0,1,123.0,1
752,752,0.5550655146024209,0.6,1.0,1.0,496.0,949.0,1.0,1,355.0,1
753,753,-0.6395928998757214,-0.6,1.0,0.0,355.0,690.0,0.0,0,365.0,1
754,754,-0.10956740105068541,-0.1,0.0,1.0,306.0,527.0,1.0,0,1657.0,1
755,755,-0.0880679960748828,-0.1,0.0,1.0,464.0,768.0,1.0,0,1028.0,1
756,756,-0.8726389553099826,-0.9,1.0,0.0,369.0,542.0,0.0,0,229.0,1
757,757,0.8003790641700675,0.8,1.0,1.0,494.0,923.0,1.0,1,103.0,1
758,758,0.2651658288102511,0.3,1.0,1.0,416.0,949.0,1.0,1,165.0,1
759,759,0.7324076260179909,0.7,1.0,1.0,374.0,677.0,1.0,1,609.0,1
760,760,-0.24772538851686865,-0.2,0.0,1.0,426.0,651.0,1.0,0,803.0,1
761,761,0.8130208127534236,0.8,0.0,0.0,477.0,648.0,0.0,1,265.0,1
762,762,-0.1697515922371463,-0.2,1.0,0.0,414.0,642.0,0.0,0,1264.0,1
763,763,0.4689948218188368,0.5,0.0,0.0,490.0,943.0,0.0,1,387.0,1
764,764,0.03091423295107909,0.0,1.0,1.0,256.0,731.0,0.0,0,993.0,0
765,765,0.42309425194169614,0.4,1.0,1.0,389.0,516.0,1.0,1,585.0,1
766,766,-0.6393630260482803,-0.6,1.0,0.0,353.0,959.0,0.0,0,308.0,1
767,767,0.205426982085804,0.2,1.0,1.0,318.0,691.0,1.0,1,1021.0,1
768,768,0.4918010405969456,0.5,0.0,0.0,358.0,790.0,0.0,1,372.0,1
769,769,0.8279415171253491,0.8,0.0,0.0,461.0,772.0,0.0,1,227.0,1
770,770,0.08203393245411073,0.1,1.0,1.0,277.0,801.0,1.0,1,192.0,1
771,771,0.7568219653913898,0.8,1.0,1.0,287.0,652.0,1.0,1,231.0,1
772,772,-0.5372840087724526,-0.5,0.0,1.0,420.0,581.0,1.0,0,459.0,1
773,773,-0.15189672712742774,-0.2,1.0,0.0,274.0,935.0,0.0,0,141.0,1
774,774,-0.031861638747038956,-0.0,1.0,0.0,477.0,504.0,1.0,1,1169.0,0
775,775,-0.07508202234580708,-0.1,0.0,1.0,273.0,593.0,1.0,0,3324.0,1
776,776,-0.7376076537730004,-0.7,0.0,1.0,431.0,778.0,1.0,0,191.0,1
777,777,-0.15163406675746116,-0.2,0.0,1.0,288.0,636.0,1.0,0,1626.0,1
778,778,-0.059495570494168426,-0.1,1.0,0.0,481.0,946.0,0.0,0,293.0,1
779,779,-0.126424214815412,-0.1,0.0,1.0,444.0,829.0,1.0,0,457.0,1
780,780,0.44282250629837294,0.4,1.0,1.0,311.0,765.0,1.0,1,334.0,1
781,781,-0.1915220724350708,-0.2,1.0,0.0,346.0,951.0,0.0,0,1673.0,1
782,782,0.8381584278225925,0.8,0.0,0.0,339.0,668.0,0.0,1,673.0,1
783,783,-0.8240093406658531,-0.8,1.0,0.0,436.0,717.0,0.0,0,227.0,1
784,784,0.2751377058730434,0.3,0.0,0.0,469.0,790.0,0.0,1,1171.0,1
785,785,0.4128339409075693,0.4,0.0,0.0,413.0,650.0,0.0,1,627.0,1
786,786,0.5453725027724569,0.5,0.0,0.0,255.0,992.0,0.0,1,253.0,1
787,787,-0.5830577425408279,-0.6,1.0,0.0,453.0,966.0,0.0,0,401.0,1
788,788,0.7227535750781583,0.7,0.0,0.0,405.0,925.0,0.0,1,180.0,1
789,789,0.0004328418681242008,0.0,1.0,1.0,403.0,987.0,0.0,0,630.0,0
790,790,0.21052646406886233,0.2,0.0,0.0,385.0,854.0,0.0,1,591.0,1
791,791,0.24221454846236712,0.2,1.0,1.0,489.0,504.0,1.0,1,1727.0,1
792,792,-0.4669072947056861,-0.5,0.0,1.0,294.0,875.0,1.0,0,411.0,1
793,793,0.4097699162912293,0.4,1.0,1.0,408.0,521.0,1.0,1,1031.0,1
794,794,-0.18541968533351505,-0.2,0.0,1.0,387.0,562.0,1.0,0,1341.0,1
795,795,0.6097401462005144,0.6,0.0,0.0,369.0,945.0,0.0,1,16.0,1
796,796,-0.3276427927423651,-0.3,1.0,0.0,265.0,568.0,0.0,0,327.0,1
797,797,0.2908640933454333,0.3,0.0,0.0,391.0,536.0,0.0,1,783.0,1
798,798,-0.687518324895813,-0.7,0.0,1.0,455.0,571.0,1.0,0,324.0,1
799,799,-0.14335707751084703,-0.1,1.0,0.0,440.0,956.0,0.0,0,914.0,1
800,800,0.7971050810659716,0.8,1.0,1.0,458.0,829.0,1.0,1,113.0,1
801,801,-0.6741995342551147,-0.7,1.0,0.0,494.0,767.0,0.0,0,519.0,1
802,802,-0.3293996154818216,-0.3,1.0,0.0,401.0,641.0,0.0,0,928.0,1
803,803,-0.5075192051779669,-0.5,1.0,0.0,426.0,618.0,0.0,0,606.0,1
804,804,-0.6603174521544796,-0.7,1.0,0.0,435.0,729.0,0.0,0,456.0,1
805,805,-0.7422293029167117,-0.7,1.0,0.0,422.0,697.0,0.0,0,261.0,1
806,806,0.4784846193568516,0.5,1.0,1.0,397.0,754.0,1.0,1,259.0,1
807,807,0.8352249639846195,0.8,1.0,1.0,256.0,533.0,1.0,1,331.0,1
808,808,0.18553003156110515,0.2,0.0,0.0,484.0,572.0,0.0,1,864.0,1
809,809,0.6882234353342335,0.7,1.0,1.0,455.0,656.0,1.0,1,349.0,1
810,810,0.4026015011516152,0.4,0.0,0.0,291.0,931.0,0.0,1,1048.0,1
811,811,-0.8347531865931098,-0.8,1.0,0.0,370.0,864.0,0.0,0,206.0,1
812,812,-0.735303158250303,-0.7,1.0,0.0,426.0,983.0,0.0,0,1.0,1
813,813,-0.23834587388295492,-0.2,0.0,1.0,471.0,804.0,1.0,0,385.0,1
814,814,0.8050788103410534,0.8,1.0,1.0,394.0,708.0,1.0,1,358.0,1
815,815,0.1213484887164008,0.1,1.0,1.0,369.0,814.0,1.0,1,787.0,1
816,816,-0.2932924067081665,-0.3,0.0,1.0,419.0,806.0,1.0,0,445.0,1
817,817,0.28640348844752583,0.3,0.0,0.0,275.0,649.0,0.0,1,676.0,1
818,818,-0.5751281099290104,-0.6,0.0,1.0,398.0,684.0,1.0,0,848.0,1
819,819,0.3464813330739359,0.3,0.0,0.0,452.0,937.0,0.0,1,121.0,1
820,820,-0.07159413783302282,-0.1,0.0,1.0,326.0,955.0,0.0,1,709.0,0
821,821,0.37827049201590424,0.4,1.0,1.0,453.0,710.0,1.0,1,1007.0,1
822,822,-0.153346495361519,-0.2,1.0,0.0,285.0,980.0,0.0,0,235.0,1
823,823,-0.06824587763970036,-0.1,1.0,0.0,336.0,705.0,0.0,0,789.0,1
824,824,0.2471868412447492,0.2,0.0,0.0,304.0,572.0,0.0,1,564.0,1
825,825,-0.44228565855426893,-0.4,1.0,0.0,276.0,782.0,0.0,0,212.0,1
826,826,-0.5074513266681089,-0.5,1.0,0.0,368.0,902.0,0.0,0,530.0,1
827,827,-0.7737216633496271,-0.8,0.0,1.0,476.0,791.0,1.0,0,443.0,1
828,828,0.49122877542983134,0.5,1.0,1.0,296.0,796.0,1.0,1,498.0,1
829,829,0.0664842031947459,0.1,1.0,1.0,425.0,622.0,1.0,1,893.0,1
830,830,-0.10390078833314975,-0.1,1.0,0.0,418.0,937.0,0.0,0,2745.0,1
831,831,0.7507103727915668,0.8,0.0,0.0,340.0,567.0,0.0,1,313.0,1
832,832,-0.8445368332303619,-0.8,1.0,0.0,487.0,646.0,0.0,0,307.0,1
833,833,-0.18857965235507257,-0.2,1.0,0.0,473.0,760.0,0.0,0,457.0,1
834,834,0.3991499855834618,0.4,1.0,1.0,321.0,960.0,1.0,1,459.0,1
835,835,0.7754264861082164,0.8,1.0,1.0,336.0,817.0,1.0,1,527.0,1
836,836,-0.5203638170586958,-0.5,1.0,0.0,456.0,558.0,0.0,0,1056.0,1
837,837,-0.8234112071431403,-0.8,1.0,0.0,483.0,823.0,0.0,0,464.0,1
838,838,-0.7619795359710693,-0.8,0.0,1.0,263.0,620.0,1.0,0,557.0,1
839,839,0.7337607865262495,0.7,0.0,0.0,250.0,625.0,0.0,1,455.0,1
840,840,0.40929809923005556,0.4,0.0,0.0,251.0,656.0,0.0,1,283.0,1
841,841,-0.2684454944451059,-0.3,1.0,0.0,446.0,821.0,0.0,0,103.0,1
842,842,0.26541422212411103,0.3,1.0,1.0,497.0,970.0,1.0,1,193.0,1
843,843,0.6856520116997334,0.7,1.0,1.0,443.0,942.0,1.0,1,405.0,1
844,844,0.11436634812961677,0.1,0.0,0.0,345.0,640.0,0.0,1,665.0,1
845,845,0.16758490945953308,0.2,0.0,0.0,315.0,647.0,0.0,1,648.0,1
846,846,0.3528298476836279,0.4,0.0,0.0,474.0,888.0,0.0,1,398.0,1
847,847,-0.015032166064738561,-0.0,0.0,1.0,310.0,563.0,1.0,0,507.0,1
848,848,0.1536706168432228,0.2,0.0,0.0,277.0,661.0,0.0,1,512.0,1
849,849,-0.343931614309257,-0.3,1.0,0.0,320.0,743.0,0.0,0,647.0,1
850,850,0.6717333433510774,0.7,0.0,0.0,314.0,892.0,0.0,1,184.0,1
851,851,0.09343287831715219,0.1,1.0,1.0,268.0,535.0,1.0,1,687.0,1
852,852,-0.2360370225256403,-0.2,0.0,1.0,378.0,562.0,1.0,0,460.0,1
853,853,0.0926664696753825,0.1,1.0,1.0,297.0,647.0,1.0,1,366.0,1
854,854,-0.525541609509415,-0.5,0.0,1.0,407.0,835.0,1.0,0,238.0,1
855,855,-0.290866039708889,-0.3,1.0,0.0,277.0,869.0,0.0,0,744.0,1
856,856,0.8771473232954784,0.9,1.0,1.0,481.0,924.0,1.0,1,255.0,1
857,857,0.3553937736133207,0.4,1.0,1.0,299.0,972.0,1.0,1,609.0,1
858,858,-0.3149432178221172,-0.3,0.0,1.0,423.0,781.0,1.0,0,146.0,1
859,859,0.101746299457805,0.1,0.0,0.0,437.0,822.0,1.0,0,191.0,0
860,860,0.18716218253997308,0.2,0.0,0.0,485.0,763.0,0.0,1,562.0,1
861,861,-0.15621231350579468,-0.2,1.0,0.0,425.0,614.0,0.0,0,381.0,1
862,862,-0.5898892893213087,-0.6,1.0,0.0,330.0,847.0,0.0,0,93.0,1
863,863,-0.41677920478213226,-0.4,1.0,0.0,462.0,927.0,0.0,0,151.0,1
864,864,-0.0965566544401949,-0.1,0.0,1.0,277.0,698.0,1.0,0,645.0,1
865,865,-0.29625571568541154,-0.3,0.0,1.0,337.0,710.0,1.0,0,533.0,1
866,866,0.21286931928122066,0.2,1.0,1.0,419.0,866.0,1.0,1,3715.0,1
867,867,-0.3162248317326777,-0.3,0.0,1.0,344.0,779.0,1.0,0,617.0,1
868,868,-0.39985892837963044,-0.4,0.0,1.0,457.0,565.0,1.0,0,1118.0,1
869,869,-0.7454371603661306,-0.7,0.0,1.0,422.0,516.0,1.0,0,402.0,1
870,870,-0.56912687250033,-0.6,1.0,0.0,458.0,957.0,0.0,0,405.0,1
871,871,-0.33341679823340276,-0.3,0.0,1.0,436.0,568.0,1.0,0,656.0,1
872,872,-0.6138960092030736,-0.6,1.0,0.0,378.0,759.0,0.0,0,423.0,1
873,873,-0.2644031804896566,-0.3,1.0,0.0,311.0,884.0,0.0,0,805.0,1
874,874,-0.5044364570360553,-0.5,1.0,0.0,476.0,591.0,0.0,0,423.0,1
875,875,-0.43787410406017857,-0.4,1.0,0.0,383.0,808.0,0.0,0,89.0,1
876,876,0.6723094037289824,0.7,0.0,0.0,476.0,643.0,0.0,1,331.0,1
877,877,0.3723328086348928,0.4,1.0,1.0,442.0,668.0,1.0,1,360.0,1
878,878,-0.6978761187456045,-0.7,1.0,0.0,325.0,537.0,0.0,0,598.0,1
879,879,-0.290551665313056,-0.3,0.0,1.0,482.0,770.0,1.0,0,718.0,1
880,880,0.2952790125494703,0.3,1.0,1.0,288.0,715.0,1.0,1,307.0,1
881,881,0.5515892931394121,0.6,1.0,1.0,329.0,651.0,1.0,1,390.0,1
882,882,-0.8673417494157186,-0.9,0.0,1.0,419.0,665.0,1.0,0,306.0,1
883,883,-0.18260361384782142,-0.2,0.0,1.0,431.0,655.0,1.0,0,324.0,1
884,884,0.030674739986720434,0.0,0.0,0.0,275.0,887.0,0.0,1,508.0,1
885,885,-0.12661287578460356,-0.1,0.0,1.0,496.0,719.0,1.0,0,1965.0,1
886,886,0.7612002624800643,0.8,1.0,1.0,295.0,611.0,1.0,1,454.0,1
887,887,-0.5865224842823966,-0.6,0.0,1.0,407.0,852.0,1.0,0,681.0,1
888,888,0.12259169595450115,0.1,0.0,0.0,341.0,668.0,0.0,1,441.0,1
889,889,0.43278838554769583,0.4,0.0,0.0,339.0,829.0,0.0,1,282.0,1
890,890,-0.5682044902864476,-0.6,0.0,1.0,425.0,688.0,1.0,0,327.0,1
891,891,0.06240272698981886,0.1,0.0,0.0,458.0,597.0,0.0,1,455.0,1
892,892,-0.5757357085831916,-0.6,1.0,0.0,412.0,692.0,0.0,0,116.0,1
893,893,0.048503876099308285,0.0,1.0,1.0,418.0,512.0,1.0,1,440.0,1
894,894,0.038619862600457466,0.0,1.0,1.0,437.0,969.0,1.0,1,64.0,1
895,895,0.15492085864631122,0.2,0.0,0.0,464.0,902.0,0.0,1,344.0,1
896,896,-0.06785194335482214,-0.1,1.0,0.0,306.0,565.0,1.0,1,309.0,0
897,897,0.3201978422143107,0.3,1.0,1.0,482.0,501.0,1.0,1,437.0,1
898,898,-0.13019995552772734,-0.1,0.0,1.0,373.0,866.0,1.0,0,521.0,1
899,899,-0.8553939437147405,-0.9,1.0,0.0,493.0,924.0,0.0,0,263.0,1
900,900,-0.3963728116535937,-0.4,1.0,0.0,298.0,607.0,0.0,0,105.0,1
901,901,-0.2712918453002021,-0.3,0.0,1.0,291.0,991.0,1.0,0,468.0,1
902,902,0.1502192295600283,0.2,1.0,1.0,314.0,837.0,1.0,1,439.0,1
903,903,-0.38357054175514416,-0.4,0.0,1.0,494.0,924.0,1.0,0,102.0,1
904,904,-0.7613599221137661,-0.8,1.0,0.0,341.0,838.0,0.0,0,101.0,1
905,905,0.7083157539367585,0.7,1.0,1.0,298.0,855.0,1.0,1,497.0,1
906,906,-0.3820679996293683,-0.4,0.0,1.0,371.0,526.0,1.0,0,883.0,1
907,907,-0.5945865043151528,-0.6,0.0,1.0,365.0,663.0,1.0,0,302.0,1
908,908,-0.10232013698016162,-0.1,1.0,0.0,314.0,697.0,0.0,0,409.0,1
909,909,-0.720699478619067,-0.7,0.0,1.0,432.0,533.0,1.0,0,475.0,1
910,910,0.5550266716746911,0.6,0.0,0.0,340.0,660.0,0.0,1,230.0,1
911,911,-0.16639069139404694,-0.2,1.0,0.0,420.0,762.0,0.0,0,278.0,1
912,912,0.1367561648585739,0.1,1.0,1.0,384.0,786.0,1.0,1,1950.0,1
913,913,0.018912046413360528,0.0,1.0,1.0,498.0,541.0,0.0,0,3561.0,0
914,914,-0.8828545396664476,-0.9,1.0,0.0,355.0,996.0,0.0,0,319.0,1
915,915,0.8394367653487683,0.8,0.0,0.0,355.0,697.0,0.0,1,208.0,1
916,916,0.7120653627567045,0.7,1.0,1.0,471.0,866.0,1.0,1,443.0,1
917,917,0.27606310124282374,0.3,1.0,1.0,296.0,634.0,1.0,1,550.0,1
918,918,0.41471671790672804,0.4,0.0,0.0,480.0,583.0,0.0,1,377.0,1
919,919,0.4256831731257559,0.4,1.0,1.0,458.0,718.0,1.0,1,504.0,1
920,920,0.4890789849885441,0.5,1.0,1.0,414.0,909.0,1.0,1,227.0,1
921,921,-0.6430851153610357,-0.6,1.0,0.0,345.0,642.0,0.0,0,1223.0,1
922,922,-0.27259126984032755,-0.3,0.0,1.0,462.0,616.0,1.0,0,382.0,1
923,923,0.7113822707530607,0.7,0.0,0.0,315.0,550.0,0.0,1,645.0,1
924,924,-0.0822019089993905,-0.1,1.0,0.0,390.0,505.0,1.0,1,535.0,0
925,925,-0.3873641401386396,-0.4,1.0,0.0,377.0,904.0,0.0,0,179.0,1
926,926,0.6412472884154955,0.6,0.0,0.0,380.0,837.0,0.0,1,93.0,1
927,927,-0.4381409504090649,-0.4,0.0,1.0,497.0,637.0,1.0,0,306.0,1
928,928,0.14755586608453053,0.1,1.0,1.0,284.0,852.0,1.0,1,504.0,1
929,929,-0.6661529041485859,-0.7,1.0,0.0,400.0,601.0,0.0,0,279.0,1
930,930,-0.8556505586433684,-0.9,1.0,0.0,338.0,776.0,0.0,0,196.0,1
931,931,0.4141290496656579,0.4,0.0,0.0,374.0,952.0,0.0,1,344.0,1
932,932,0.4711209060630853,0.5,1.0,1.0,256.0,759.0,1.0,1,305.0,1
933,933,0.4221442949121471,0.4,0.0,0.0,272.0,897.0,0.0,1,1001.0,1
934,934,0.4500236365992404,0.5,0.0,0.0,393.0,989.0,0.0,1,128.0,1
935,935,0.1708266860043196,0.2,1.0,1.0,286.0,791.0,0.0,0,773.0,0
936,936,0.3930598589011717,0.4,1.0,1.0,265.0,728.0,1.0,1,887.0,1
937,937,0.6139215929305174,0.6,0.0,0.0,303.0,790.0,0.0,1,547.0,1
938,938,0.0189670470626222,0.0,1.0,1.0,341.0,643.0,0.0,0,1176.0,0
939,939,0.4431956357959733,0.4,0.0,0.0,314.0,786.0,0.0,1,340.0,1
940,940,-0.8888002900852104,-0.9,0.0,1.0,407.0,944.0,1.0,0,149.0,1
941,941,-0.05304324450412856,-0.1,0.0,1.0,311.0,881.0,0.0,1,758.0,0
942,942,0.6099383566174527,0.6,1.0,1.0,304.0,566.0,1.0,1,410.0,1
943,943,0.3705591905379443,0.4,1.0,1.0,434.0,814.0,1.0,1,252.0,1
944,944,-0.6315707061420006,-0.6,0.0,1.0,470.0,710.0,1.0,0,430.0,1
945,945,-0.6281471982343036,-0.6,1.0,0.0,370.0,992.0,0.0,0,288.0,1
946,946,0.32225621476978683,0.3,1.0,1.0,368.0,959.0,1.0,1,473.0,1
947,947,0.7421100485763789,0.7,0.0,0.0,343.0,581.0,0.0,1,346.0,1
948,948,0.6573650960281147,0.7,0.0,0.0,424.0,588.0,0.0,1,1318.0,1
949,949,-0.446104876703337,-0.4,1.0,0.0,414.0,655.0,0.0,0,571.0,1
950,950,-0.04408049756209609,-0.0,0.0,1.0,325.0,859.0,1.0,0,996.0,1
951,951,-0.8410509483780124,-0.8,1.0,0.0,470.0,911.0,0.0,0,109.0,1
952,952,-0.07396780350939436,-0.1,0.0,1.0,259.0,652.0,1.0,0,469.0,1
953,953,-0.1883052641276156,-0.2,0.0,1.0,384.0,518.0,1.0,0,1888.0,1
954,954,-0.4026474867561911,-0.4,1.0,0.0,471.0,514.0,0.0,0,345.0,1
955,955,-0.6759929694618092,-0.7,0.0,1.0,308.0,523.0,1.0,0,499.0,1
956,956,-0.0471056614290859,-0.0,1.0,0.0,404.0,804.0,1.0,1,612.0,0
957,957,0.576976971744548,0.6,1.0,1.0,389.0,818.0,1.0,1,223.0,1
958,958,-0.3343199498131598,-0.3,1.0,0.0,288.0,981.0,0.0,0,91.0,1
959,959,-0.5216098638881099,-0.5,0.0,1.0,286.0,782.0,1.0,0,392.0,1
960,960,-0.7604872035273651,-0.8,1.0,0.0,379.0,568.0,0.0,0,513.0,1
961,961,-0.22064816140645505,-0.2,0.0,1.0,258.0,651.0,1.0,0,571.0,1
962,962,0.8022301859894353,0.8,0.0,0.0,281.0,596.0,0.0,1,883.0,1
963,963,0.8418719189876088,0.8,1.0,1.0,352.0,669.0,1.0,1,239.0,1
964,964,0.3637453430733327,0.4,1.0,1.0,419.0,758.0,1.0,1,233.0,1
965,965,0.18558674167220623,0.2,0.0,0.0,338.0,640.0,0.0,1,1242.0,1
966,966,-0.502003901993914,-0.5,0.0,1.0,474.0,564.0,1.0,0,312.0,1
967,967,-0.5397381482271195,-0.5,1.0,0.0,470.0,571.0,0.0,0,369.0,1
968,968,-0.6649125043661853,-0.7,1.0,0.0,322.0,887.0,0.0,0,351.0,1
969,969,0.43181305759716515,0.4,0.0,0.0,310.0,664.0,0.0,1,536.0,1
970,970,0.29070227621842626,0.3,0.0,0.0,466.0,903.0,1.0,0,-59.0,0
971,971,0.5702270697394732,0.6,0.0,0.0,313.0,587.0,0.0,1,350.0,1
972,972,-0.6401034545568283,-0.6,0.0,1.0,280.0,672.0,1.0,0,648.0,1
973,973,-0.04279235763346645,-0.0,0.0,1.0,269.0,694.0,1.0,0,617.0,1
974,974,-0.5958402550200674,-0.6,1.0,0.0,332.0,756.0,0.0,0,552.0,1
975,975,0.5516096290474514,0.6,0.0,0.0,302.0,826.0,0.0,1,362.0,1
976,976,-0.3127188608413851,-0.3,0.0,1.0,487.0,752.0,1.0,0,921.0,1
977,977,-0.7454004620619703,-0.7,0.0,1.0,428.0,878.0,1.0,0,144.0,1
978,978,0.4925396603306643,0.5,1.0,1.0,312.0,873.0,1.0,1,125.0,1
979,979,-0.28326310096843466,-0.3,1.0,0.0,358.0,799.0,0.0,0,2023.0,1
980,980,0.675858602204091,0.7,0.0,0.0,347.0,690.0,0.0,1,363.0,1
981,981,0.8304127540361151,0.8,1.0,1.0,303.0,764.0,1.0,1,493.0,1
982,982,0.5352695827894275,0.5,0.0,0.0,280.0,855.0,0.0,1,175.0,1
983,983,-0.8567063653196257,-0.9,1.0,0.0,493.0,701.0,0.0,0,156.0,1
984,984,-0.32798663387407023,-0.3,1.0,0.0,439.0,965.0,0.0,0,196.0,1
985,985,-0.6222494539643104,-0.6,0.0,1.0,391.0,849.0,1.0,0,400.0,1
986,986,0.6637580472251635,0.7,1.0,1.0,450.0,565.0,1.0,1,505.0,1
987,987,-0.5071307855772669,-0.5,0.0,1.0,489.0,965.0,1.0,0,416.0,1
988,988,-0.5590766774941895,-0.6,1.0,0.0,311.0,597.0,0.0,0,1222.0,1
989,989,-0.5794311721421688,-0.6,0.0,1.0,422.0,656.0,1.0,0,382.0,1
990,990,0.44153897582606094,0.4,1.0,1.0,432.0,942.0,1.0,1,466.0,1
991,991,-0.4084343386556646,-0.4,0.0,1.0,263.0,544.0,1.0,0,783.0,1
992,992,0.4666469992562382,0.5,0.0,0.0,478.0,791.0,0.0,1,161.0,1
993,993,-0.3261866121263265,-0.3,1.0,0.0,375.0,877.0,0.0,0,528.0,1
994,994,-0.5525396572644972,-0.6,0.0,1.0,428.0,714.0,1.0,0,248.0,1
995,995,-0.7179954767013114,-0.7,1.0,0.0,293.0,837.0,0.0,0,290.0,1
996,996,-0.6819277066445689,-0.7,0.0,1.0,295.0,868.0,1.0,0,127.0,1
997,997,-0.8698725506736972,-0.9,0.0,1.0,285.0,928.0,1.0,0,207.0,1
998,998,0.10088118427881054,0.1,0.0,0.0,268.0,718.0,1.0,0,194.0,0
999,999,-0.0647233471434383,-0.1,1.0,0.0,456.0,560.0,0.0,0,754.0,1
1000,1000,0.33689862636868895,0.3,1.0,1.0,343.0,745.0,1.0,1,392.0,1
1001,1001,0.2734387860590949,0.3,0.0,0.0,383.0,901.0,0.0,1,2806.0,1
1002,1002,0.11157889484417105,0.1,0.0,0.0,316.0,554.0,1.0,0,310.0,0
1003,1003,0.7336906510874016,0.7,1.0,1.0,383.0,535.0,1.0,1,362.0,1
1004,1004,-0.46589445204997065,-0.5,0.0,1.0,423.0,533.0,1.0,0,564.0,1
1005,1005,0.5209262624110503,0.5,1.0,1.0,366.0,870.0,1.0,1,204.0,1
1006,1006,0.30636450086655465,0.3,1.0,1.0,377.0,680.0,1.0,1,603.0,1
1007,1007,0.833738457474147,0.8,0.0,0.0,492.0,919.0,0.0,1,289.0,1
1008,1008,0.24770792245111128,0.2,1.0,1.0,359.0,857.0,1.0,1,1074.0,1
1009,1009,0.5420882439533597,0.5,0.0,0.0,403.0,987.0,0.0,1,400.0,1
1010,1010,-0.7027192166433118,-0.7,0.0,1.0,347.0,739.0,1.0,0,204.0,1
1011,1011,-0.656172484149415,-0.7,1.0,0.0,433.0,592.0,0.0,0,365.0,1
1012,1012,0.31870448335657164,0.3,1.0,1.0,481.0,503.0,1.0,1,776.0,1
1013,1013,0.40000180552467,0.4,0.0,0.0,311.0,529.0,0.0,1,560.0,1
1014,1014,0.6577279882148676,0.7,0.0,0.0,362.0,664.0,0.0,1,294.0,1
1015,1015,0.3280774638739262,0.3,1.0,1.0,455.0,679.0,1.0,1,796.0,1
1016,1016,-0.34688205582558385,-0.3,0.0,1.0,346.0,756.0,1.0,0,548.0,1
1017,1017,-0.4728784377551909,-0.5,0.0,1.0,255.0,816.0,1.0,0,629.0,1
1018,1018,0.010287737433281707,0.0,1.0,1.0,349.0,645.0,0.0,0,576.0,0
1019,1019,0.606326369694005,0.6,0.0,0.0,469.0,685.0,0.0,1,506.0,1
1020,1020,-0.1017363046200096,-0.1,0.0,1.0,397.0,554.0,1.0,0,1489.0,1
1021,1021,-0.44515401650118785,-0.4,1.0,0.0,261.0,937.0,0.0,0,292.0,1
1022,1022,-0.5528159955441303,-0.6,0.0,1.0,459.0,797.0,1.0,0,444.0,1
1023,1023,0.3451142065430638,0.3,0.0,0.0,282.0,932.0,0.0,1,36.0,1
1024,1024,-0.6408817042715884,-0.6,0.0,1.0,379.0,516.0,1.0,0,445.0,1
1025,1025,0.2493726886369444,0.2,1.0,1.0,463.0,951.0,1.0,1,326.0,1
1026,1026,0.8262213627766263,0.8,1.0,1.0,342.0,681.0,1.0,1,547.0,1
1027,1027,0.08414505487209611,0.1,1.0,1.0,302.0,795.0,1.0,1,363.0,1
1028,1028,-0.6158538634897661,-0.6,1.0,0.0,449.0,582.0,0.0,0,339.0,1
1029,1029,0.21099353692360034,0.2,1.0,1.0,342.0,685.0,1.0,1,363.0,1
1030,1030,-0.5805986713210328,-0.6,0.0,1.0,401.0,961.0,1.0,0,418.0,1
1031,1031,0.061071482572371716,0.1,1.0,1.0,301.0,745.0,1.0,1,334.0,1
1032,1032,-0.38107770611760405,-0.4,0.0,1.0,441.0,625.0,1.0,0,304.0,1
1033,1033,0.8668040542417789,0.9,0.0,0.0,273.0,767.0,0.0,1,350.0,1
1034,1034,0.39969192553306276,0.4,1.0,1.0,439.0,794.0,1.0,1,507.0,1
1035,1035,-0.5314560659264406,-0.5,0.0,1.0,385.0,817.0,1.0,0,258.0,1
1036,1036,-0.6019669163043869,-0.6,0.0,1.0,341.0,636.0,1.0,0,313.0,1
1037,1037,0.11297396752778244,0.1,1.0,1.0,301.0,733.0,1.0,1,1706.0,1
1038,1038,0.46700483503939283,0.5,0.0,0.0,386.0,904.0,0.0,1,70.0,1
1039,1039,0.0987682786134958,0.1,1.0,1.0,417.0,645.0,0.0,0,568.0,0
1040,1040,0.0776158709808139,0.1,1.0,1.0,312.0,951.0,1.0,1,517.0,1
1041,1041,-0.10568240008351037,-0.1,1.0,0.0,454.0,642.0,0.0,0,264.0,1
1042,1042,-0.8154034989988318,-0.8,0.0,1.0,417.0,908.0,1.0,0,225.0,1
1043,1043,0.22477947726251613,0.2,0.0,0.0,342.0,665.0,0.0,1,693.0,1
1044,1044,-0.5812352067789794,-0.6,0.0,1.0,250.0,601.0,1.0,0,249.0,1
1045,1045,-0.3536971324131398,-0.4,1.0,0.0,482.0,636.0,0.0,0,202.0,1
1046,1046,-0.07449103797958623,-0.1,0.0,1.0,497.0,875.0,1.0,0,508.0,1
1047,1047,-0.1847893144914199,-0.2,1.0,0.0,328.0,801.0,1.0,1,2221.0,0
1048,1048,-0.020478179786648787,-0.0,1.0,0.0,364.0,703.0,1.0,1,403.0,0
1049,1049,0.42591673370264227,0.4,1.0,1.0,347.0,831.0,1.0,1,182.0,1
1050,1050,0.7823477906200588,0.8,0.0,0.0,414.0,897.0,0.0,1,189.0,1
1051,1051,-0.16880362619499822,-0.2,1.0,0.0,337.0,898.0,0.0,0,275.0,1
1052,1052,0.22957988174904298,0.2,1.0,1.0,272.0,919.0,1.0,1,589.0,1
1053,1053,-0.7332970218970336,-0.7,0.0,1.0,448.0,931.0,1.0,0,181.0,1
1054,1054,-0.17215076111423977,-0.2,1.0,0.0,434.0,820.0,0.0,0,416.0,1
1055,1055,0.36760408331556615,0.4,1.0,1.0,395.0,642.0,1.0,1,553.0,1
1056,1056,-0.038531521878443664,-0.0,0.0,1.0,323.0,814.0,1.0,0,603.0,1
1057,1057,-0.6140283709323643,-0.6,0.0,1.0,453.0,753.0,1.0,0,234.0,1
1058,1058,-0.24630813877322422,-0.2,1.0,0.0,478.0,565.0,0.0,0,2887.0,1
1059,1059,-0.8717959476115601,-0.9,1.0,0.0,320.0,662.0,0.0,0,398.0,1
1060,1060,0.2923488777613287,0.3,1.0,1.0,380.0,674.0,1.0,1,766.0,1
1061,1061,0.23846734245363466,0.2,0.0,0.0,357.0,521.0,0.0,1,1832.0,1
1062,1062,-0.7605774405813437,-0.8,0.0,1.0,416.0,742.0,1.0,0,442.0,1
1063,1063,-0.6374506605116618,-0.6,1.0,0.0,446.0,911.0,0.0,0,313.0,1
1064,1064,-0.22692093367333588,-0.2,0.0,1.0,270.0,522.0,1.0,0,798.0,1
1065,1065,0.37429996216247907,0.4,1.0,1.0,251.0,670.0,1.0,1,869.0,1
1066,1066,-0.32267341915086745,-0.3,1.0,0.0,338.0,998.0,0.0,0,184.0,1
1067,1067,0.19301750312376187,0.2,1.0,1.0,458.0,902.0,1.0,1,2000.0,1
1068,1068,-0.32304097950685484,-0.3,0.0,1.0,406.0,846.0,1.0,0,478.0,1
1069,1069,-0.5006616245935547,-0.5,1.0,0.0,273.0,691.0,0.0,0,246.0,1
1070,1070,0.8229155265727209,0.8,0.0,0.0,280.0,627.0,0.0,1,463.0,1
1071,1071,-0.5155841671631753,-0.5,0.0,1.0,485.0,585.0,1.0,0,340.0,1
1072,1072,-0.45549895535340645,-0.5,1.0,0.0,293.0,946.0,0.0,0,131.0,1
1073,1073,-0.3404703442580269,-0.3,1.0,0.0,296.0,767.0,0.0,0,817.0,1
1074,1074,-0.5613423883846318,-0.6,1.0,0.0,379.0,787.0,0.0,0,144.0,1
1075,1075,0.7752394678432925,0.8,1.0,1.0,330.0,986.0,1.0,1,244.0,1
1076,1076,0.661790938576926,0.7,1.0,1.0,483.0,997.0,1.0,1,600.0,1
1077,1077,0.30333462285464907,0.3,1.0,1.0,403.0,882.0,1.0,1,5.0,1
1078,1078,0.392638933138057,0.4,1.0,1.0,323.0,768.0,1.0,1,139.0,1
1079,1079,-0.12459430118510695,-0.1,1.0,0.0,393.0,859.0,0.0,0,668.0,1
1080,1080,0.6435170979346668,0.6,1.0,1.0,471.0,706.0,1.0,1,263.0,1
1081,1081,-0.41305241658577224,-0.4,1.0,0.0,418.0,649.0,0.0,0,223.0,1
1082,1082,0.10474836040260438,0.1,0.0,0.0,371.0,621.0,0.0,1,558.0,1
1083,1083,-0.06087169236970302,-0.1,0.0,1.0,286.0,974.0,0.0,1,510.0,0
1084,1084,0.161934597467856,0.2,0.0,0.0,320.0,541.0,0.0,1,939.0,1
1085,1085,0.02719826109245793,0.0,0.0,0.0,338.0,795.0,1.0,0,257.0,0
1086,1086,-0.44373948656813855,-0.4,1.0,0.0,328.0,702.0,0.0,0,270.0,1
1087,1087,-0.6453449496540211,-0.6,1.0,0.0,272.0,823.0,0.0,0,105.0,1
1088,1088,-0.8160277556488084,-0.8,0.0,1.0,362.0,594.0,1.0,0,424.0,1
1089,1089,-0.6363241107300521,-0.6,0.0,1.0,316.0,735.0,1.0,0,689.0,1
1090,1090,0.3803798253027221,0.4,0.0,0.0,333.0,868.0,0.0,1,569.0,1
1091,1091,0.25571786948714303,0.3,0.0,0.0,383.0,972.0,0.0,1,795.0,1
1092,1092,-0.07003917835269224,-0.1,1.0,0.0,408.0,857.0,0.0,0,105.0,1
1093,1093,-0.4805812551585618,-0.5,1.0,0.0,472.0,577.0,0.0,0,371.0,1
1094,1094,-0.6272165718710266,-0.6,1.0,0.0,286.0,528.0,0.0,0,226.0,1
1095,1095,0.5048028831380639,0.5,1.0,1.0,362.0,667.0,1.0,1,321.0,1
1096,1096,0.5262829278683941,0.5,0.0,0.0,259.0,728.0,0.0,1,233.0,1
1097,1097,0.19911754715034136,0.2,0.0,0.0,333.0,745.0,0.0,1,1662.0,1
1098,1098,-0.5444559355712986,-0.5,0.0,1.0,299.0,907.0,1.0,0,164.0,1
1099,1099,0.1543552758354373,0.2,0.0,0.0,378.0,824.0,0.0,1,268.0,1
1100,1100,-0.5791757376359814,-0.6,1.0,0.0,443.0,728.0,0.0,0,499.0,1
1101,1101,0.305098770256956,0.3,0.0,0.0,483.0,607.0,0.0,1,300.0,1
1102,1102,-0.3557183570997129,-0.4,1.0,0.0,276.0,862.0,0.0,0,452.0,1
1103,1103,0.12820328400132108,0.1,1.0,1.0,370.0,783.0,1.0,1,3847.0,1
1104,1104,-0.49888731837071115,-0.5,1.0,0.0,255.0,848.0,0.0,0,147.0,1
1105,1105,0.39877449707341117,0.4,1.0,1.0,343.0,922.0,1.0,1,215.0,1
1106,1106,0.7160665315055746,0.7,0.0,0.0,300.0,954.0,0.0,1,406.0,1
1107,1107,0.046474161220687704,0.0,1.0,1.0,486.0,740.0,1.0,1,494.0,1
1108,1108,0.23707778913331012,0.2,1.0,1.0,436.0,780.0,1.0,1,144.0,1
1109,1109,-0.4671770222977423,-0.5,1.0,0.0,404.0,910.0,0.0,0,146.0,1
1110,1110,0.010293644540718239,0.0,0.0,0.0,327.0,759.0,0.0,1,204.0,1
1111,1111,-0.7637401951216523,-0.8,1.0,0.0,357.0,699.0,0.0,0,224.0,1
1112,1112,-0.4882486381913955,-0.5,1.0,0.0,358.0,665.0,0.0,0,467.0,1
1113,1113,0.5846376605851559,0.6,1.0,1.0,277.0,910.0,1.0,1,133.0,1
1114,1114,0.7745318522879289,0.8,1.0,1.0,394.0,610.0,1.0,1,126.0,1
1115,1115,-0.8776941858631674,-0.9,0.0,1.0,251.0,779.0,1.0,0,240.0,1
1116,1116,-0.037736110587357485,-0.0,0.0,1.0,394.0,792.0,1.0,0,724.0,1
1117,1117,-0.005502159777514448,-0.0,0.0,1.0,395.0,711.0,0.0,1,534.0,0
1118,1118,-0.6072235307145655,-0.6,0.0,1.0,462.0,628.0,1.0,0,260.0,1
1119,1119,-0.2586506851669085,-0.3,0.0,1.0,412.0,837.0,1.0,0,1091.0,1
1120,1120,0.7549444933243913,0.8,1.0,1.0,491.0,575.0,1.0,1,434.0,1
1121,1121,0.36415092330504806,0.4,1.0,1.0,274.0,903.0,1.0,1,123.0,1
1122,1122,-0.6457906253623602,-0.6,0.0,1.0,442.0,580.0,1.0,0,528.0,1
1123,1123,-0.10711649978177007,-0.1,1.0,0.0,277.0,811.0,0.0,0,452.0,1
1124,1124,-0.26068856428098197,-0.3,1.0,0.0,399.0,797.0,0.0,0,1514.0,1
1125,1125,-0.28794757842245167,-0.3,0.0,1.0,405.0,506.0,1.0,0,609.0,1
1126,1126,-0.27087385805612096,-0.3,1.0,0.0,286.0,855.0,0.0,0,1419.0,1
1127,1127,-0.701307220878498,-0.7,0.0,1.0,443.0,915.0,1.0,0,32.0,1
1128,1128,0.08025106102353396,0.1,1.0,1.0,381.0,712.0,1.0,1,617.0,1
1129,1129,0.6529078355552805,0.7,1.0,1.0,409.0,518.0,1.0,1,673.0,1
1130,1130,0.7837668022091452,0.8,0.0,0.0,334.0,849.0,0.0,1,177.0,1
1131,1131,-0.7247582196319868,-0.7,1.0,0.0,423.0,522.0,0.0,0,375.0,1
1132,1132,-0.09743410361400318,-0.1,0.0,1.0,331.0,638.0,1.0,0,3011.0,1
1133,1133,-0.2905223883188097,-0.3,0.0,1.0,324.0,959.0,1.0,0,867.0,1
1134,1134,-0.8477000063950814,-0.8,1.0,0.0,254.0,593.0,0.0,0,433.0,1
1135,1135,-0.8633996440986462,-0.9,1.0,0.0,390.0,950.0,0.0,0,60.0,1
1136,1136,0.1278369630644819,0.1,0.0,0.0,492.0,591.0,0.0,1,517.0,1
1137,1137,-0.7278585908559675,-0.7,1.0,0.0,410.0,986.0,0.0,0,364.0,1
1138,1138,0.5856412524151778,0.6,1.0,1.0,480.0,745.0,1.0,1,225.0,1
1139,1139,-0.8550080214501921,-0.9,1.0,0.0,287.0,823.0,0.0,0,360.0,1
1140,1140,-0.10414651377284534,-0.1,0.0,1.0,325.0,803.0,1.0,0,212.0,1
1141,1141,0.6489011899213898,0.6,0.0,0.0,307.0,721.0,0.0,1,472.0,1
1142,1142,-0.6171591052572452,-0.6,0.0,1.0,482.0,506.0,1.0,0,862.0,1
1143,1143,-0.835430198204473,-0.8,0.0,1.0,263.0,830.0,1.0,0,297.0,1
1144,1144,0.8060460645598096,0.8,0.0,0.0,396.0,934.0,0.0,1,310.0,1
1145,1145,-0.3634553719314271,-0.4,0.0,1.0,426.0,569.0,1.0,0,595.0,1
1146,1146,-0.2260593660716248,-0.2,0.0,1.0,431.0,818.0,1.0,0,111.0,1
1147,1147,-0.8807775317949956,-0.9,0.0,1.0,407.0,756.0,1.0,0,557.0,1
1148,1148,-0.08052996356768882,-0.1,0.0,1.0,309.0,861.0,1.0,0,510.0,1
1149,1149,-0.2093678219349534,-0.2,1.0,0.0,449.0,508.0,0.0,0,1473.0,1
1150,1150,0.4594203146789423,0.5,1.0,1.0,404.0,574.0,1.0,1,432.0,1
1151,1151,0.6934902750707727,0.7,0.0,0.0,465.0,535.0,0.0,1,370.0,1
1152,1152,-0.47501260956192654,-0.5,1.0,0.0,484.0,862.0,0.0,0,644.0,1
1153,1153,0.35559253585537787,0.4,0.0,0.0,372.0,835.0,0.0,1,873.0,1
1154,1154,0.2119432787246044,0.2,1.0,1.0,281.0,881.0,1.0,1,298.0,1
1155,1155,0.564969624350448,0.6,0.0,0.0,433.0,587.0,0.0,1,500.0,1
1156,1156,-0.6493417883938936,-0.6,1.0,0.0,461.0,950.0,0.0,0,249.0,1
1157,1157,0.5607722259262106,0.6,1.0,1.0,424.0,731.0,1.0,1,265.0,1
1158,1158,-0.05131049056330095,-0.1,1.0,0.0,432.0,594.0,0.0,0,1294.0,1
1159,1159,0.7385966956962021,0.7,1.0,1.0,338.0,993.0,1.0,1,99.0,1
1160,1160,0.04101026844047917,0.0,1.0,1.0,296.0,839.0,1.0,1,245.0,1
1161,1161,0.45105654758366354,0.5,1.0,1.0,435.0,596.0,1.0,1,449.0,1
1162,1162,-0.8257037452856777,-0.8,0.0,1.0,440.0,572.0,1.0,0,378.0,1
1163,1163,-0.4543313111201636,-0.5,1.0,0.0,264.0,812.0,0.0,0,354.0,1
1164,1164,0.8174531623654641,0.8,0.0,0.0,407.0,961.0,0.0,1,322.0,1
1165,1165,-0.8278972959390756,-0.8,0.0,1.0,402.0,969.0,1.0,0,229.0,1
1166,1166,-0.7859613714678622,-0.8,0.0,1.0,483.0,966.0,0.0,1,-9.0,0
1167,1167,0.052437485466139466,0.1,0.0,0.0,388.0,919.0,1.0,0,273.0,0
1168,1168,0.08322326117373047,0.1,1.0,1.0,413.0,973.0,1.0,1,2084.0,1
1169,1169,-0.844016423526319,-0.8,1.0,0.0,398.0,866.0,0.0,0,56.0,1
1170,1170,-0.5406120775698446,-0.5,0.0,1.0,370.0,885.0,1.0,0,145.0,1
1171,1171,-0.14382755550754356,-0.1,1.0,0.0,326.0,581.0,0.0,0,293.0,1
1172,1172,0.20883602848198046,0.2,1.0,1.0,482.0,783.0,1.0,1,505.0,1
1173,1173,0.710901305912094,0.7,0.0,0.0,488.0,556.0,0.0,1,296.0,1
1174,1174,-0.7190159501055035,-0.7,1.0,0.0,257.0,612.0,0.0,0,351.0,1
1175,1175,-0.7252296848843481,-0.7,1.0,0.0,254.0,731.0,0.0,0,775.0,1
1176,1176,0.8986242358338506,0.9,1.0,1.0,446.0,788.0,1.0,1,216.0,1
1177,1177,0.7486795306536104,0.7,1.0,1.0,462.0,628.0,1.0,1,370.0,1
1178,1178,-0.27817432165699685,-0.3,1.0,0.0,306.0,690.0,0.0,0,574.0,1
1179,1179,-0.033688326773762545,-0.0,1.0,0.0,395.0,726.0,0.0,0,349.0,1
1180,1180,0.15274187980415965,0.2,1.0,1.0,365.0,849.0,1.0,1,286.0,1
1181,1181,-0.7867353803727082,-0.8,1.0,0.0,339.0,590.0,0.0,0,1061.0,1
1182,1182,0.5063385762965563,0.5,1.0,1.0,304.0,798.0,1.0,1,478.0,1
1183,1183,-0.7893398908541389,-0.8,1.0,0.0,486.0,686.0,0.0,0,388.0,1
1184,1184,0.7513801668599273,0.8,0.0,0.0,262.0,860.0,0.0,1,238.0,1
1185,1185,0.525054372913894,0.5,1.0,1.0,492.0,516.0,1.0,1,512.0,1
1186,1186,0.2612449996098495,0.3,0.0,0.0,476.0,875.0,0.0,1,209.0,1
1187,1187,0.3711341607868871,0.4,0.0,0.0,460.0,745.0,0.0,1,205.0,1
1188,1188,0.5825561939040399,0.6,1.0,1.0,357.0,788.0,1.0,1,375.0,1
1189,1189,0.02949011385758371,0.0,1.0,1.0,409.0,716.0,1.0,1,695.0,1
1190,1190,0.46771929714687166,0.5,1.0,1.0,465.0,627.0,1.0,1,558.0,1
1191,1191,-0.24502853470752373,-0.2,1.0,0.0,334.0,735.0,0.0,0,521.0,1
1192,1192,0.8819776847894615,0.9,0.0,0.0,331.0,899.0,0.0,1,250.0,1
1193,1193,0.48062306426513535,0.5,1.0,1.0,430.0,538.0,1.0,1,402.0,1
1194,1194,0.08681902613083237,0.1,0.0,0.0,317.0,947.0,0.0,1,1186.0,1
1195,1195,-0.29113982583099485,-0.3,1.0,0.0,448.0,510.0,0.0,0,1172.0,1
1196,1196,0.49398756216960493,0.5,0.0,0.0,254.0,709.0,0.0,1,387.0,1
1197,1197,-0.34962294575930297,-0.3,1.0,0.0,452.0,677.0,0.0,0,641.0,1
1198,1198,-0.17673062347321777,-0.2,1.0,0.0,311.0,722.0,0.0,0,3247.0,1
1199,1199,-0.4914796147222505,-0.5,1.0,0.0,483.0,547.0,0.0,0,420.0,1
1200,1200,-0.815250018747404,-0.8,0.0,1.0,344.0,816.0,1.0,0,250.0,1
1201,1201,0.717627739483773,0.7,0.0,0.0,276.0,787.0,0.0,1,367.0,1
1202,1202,-0.4508028131587752,-0.5,0.0,1.0,484.0,534.0,1.0,0,542.0,1
1203,1203,0.75785467561097,0.8,0.0,0.0,398.0,825.0,0.0,1,447.0,1
1204,1204,-0.41293290226729923,-0.4,1.0,0.0,479.0,917.0,0.0,0,354.0,1
1205,1205,-0.71265844568497,-0.7,1.0,0.0,380.0,855.0,0.0,0,115.0,1
1206,1206,0.6048484258527961,0.6,1.0,1.0,382.0,732.0,1.0,1,386.0,1
1207,1207,0.4229371190086596,0.4,1.0,1.0,386.0,879.0,1.0,1,335.0,1
1208,1208,0.5557817934029302,0.6,0.0,0.0,310.0,823.0,0.0,1,247.0,1
1209,1209,0.1633180436180265,0.2,1.0,1.0,379.0,515.0,0.0,0,1786.0,0
1210,1210,-0.19920975629282411,-0.2,1.0,0.0,382.0,712.0,0.0,0,176.0,1
1211,1211,-0.8437541603671824,-0.8,1.0,0.0,413.0,863.0,0.0,0,234.0,1
1212,1212,-0.5725365845407873,-0.6,1.0,0.0,336.0,819.0,0.0,0,265.0,1
1213,1213,-0.7369276444373345,-0.7,1.0,0.0,269.0,867.0,0.0,0,174.0,1
1214,1214,-0.858933576329329,-0.9,0.0,1.0,321.0,655.0,1.0,0,184.0,1
1215,1215,0.3247661748605132,0.3,1.0,1.0,423.0,873.0,1.0,1,154.0,1
1216,1216,0.4549198181109214,0.5,0.0,0.0,328.0,626.0,0.0,1,336.0,1
1217,1217,-0.5106002696787251,-0.5,0.0,1.0,448.0,956.0,1.0,0,266.0,1
1218,1218,0.3508612520530837,0.4,0.0,0.0,286.0,714.0,0.0,1,940.0,1
1219,1219,-0.5066901765675351,-0.5,1.0,0.0,480.0,838.0,0.0,0,292.0,1
1220,1220,-0.20006985543842748,-0.2,1.0,0.0,495.0,606.0,0.0,0,339.0,1
1221,1221,0.7976603773612593,0.8,0.0,0.0,292.0,520.0,0.0,1,378.0,1
1222,1222,0.6457415721206542,0.6,0.0,0.0,298.0,883.0,0.0,1,139.0,1
1223,1223,0.19768684623958876,0.2,0.0,0.0,372.0,812.0,0.0,1,1126.0,1
1224,1224,-0.03410579602128527,-0.0,0.0,1.0,355.0,892.0,1.0,0,1543.0,1
1225,1225,-0.44520916083784606,-0.4,1.0,0.0,413.0,595.0,0.0,0,432.0,1
1226,1226,0.5820743794651294,0.6,0.0,0.0,496.0,763.0,0.0,1,1341.0,1
1227,1227,-0.5490729259233553,-0.5,1.0,0.0,497.0,813.0,0.0,0,250.0,1
1228,1228,-0.3410359111727207,-0.3,1.0,0.0,361.0,706.0,0.0,0,473.0,1
1229,1229,-0.04316238637082348,-0.0,1.0,0.0,337.0,725.0,0.0,0,2498.0,1
1230,1230,-0.35791522048094715,-0.4,1.0,0.0,258.0,743.0,0.0,0,249.0,1
1231,1231,0.2872672570129934,0.3,0.0,0.0,379.0,777.0,0.0,1,1834.0,1
1232,1232,-0.48636499642514425,-0.5,1.0,0.0,410.0,839.0,0.0,0,181.0,1
1233,1233,-0.5189096261933959,-0.5,1.0,0.0,482.0,954.0,0.0,0,474.0,1
1234,1234,-0.09139564733116035,-0.1,0.0,1.0,318.0,622.0,0.0,1,1480.0,0
1235,1235,0.5849904967329106,0.6,0.0,0.0,458.0,995.0,0.0,1,467.0,1
1236,1236,-0.41970497755882546,-0.4,0.0,1.0,416.0,536.0,1.0,0,1158.0,1
1237,1237,0.16224940962831613,0.2,0.0,0.0,318.0,760.0,0.0,1,862.0,1
1238,1238,0.14053886558984685,0.1,0.0,0.0,331.0,535.0,0.0,1,854.0,1
1239,1239,-0.22044441786513658,-0.2,0.0,1.0,300.0,882.0,1.0,0,398.0,1
1240,1240,-0.5602202822730002,-0.6,1.0,0.0,252.0,677.0,0.0,0,151.0,1
1241,1241,0.5065277978984056,0.5,0.0,0.0,393.0,966.0,0.0,1,141.0,1
1242,1242,-0.6843514099232618,-0.7,1.0,0.0,408.0,900.0,0.0,0,172.0,1
1243,1243,-0.37448425832142074,-0.4,0.0,1.0,275.0,924.0,1.0,0,661.0,1
1244,1244,-0.48623170193565357,-0.5,0.0,1.0,387.0,733.0,1.0,0,350.0,1
1245,1245,0.47799652472302945,0.5,0.0,0.0,424.0,574.0,0.0,1,752.0,1
1246,1246,-0.4860885413393124,-0.5,0.0,1.0,365.0,773.0,1.0,0,402.0,1
1247,1247,0.048324573699234596,0.0,1.0,1.0,390.0,993.0,1.0,1,1277.0,1
1248,1248,-0.578658940694388,-0.6,0.0,1.0,498.0,703.0,1.0,0,229.0,1
1249,1249,-0.45708242704356317,-0.5,1.0,0.0,343.0,819.0,0.0,0,248.0,1
1250,1250,-0.47912196810815416,-0.5,0.0,1.0,353.0,991.0,1.0,0,186.0,1
1251,1251,0.5384427255302376,0.5,1.0,1.0,281.0,649.0,1.0,1,240.0,1
1252,1252,0.32558744279034657,0.3,0.0,0.0,398.0,882.0,0.0,1,140.0,1
1253,1253,0.679413116412192,0.7,1.0,1.0,364.0,678.0,1.0,1,258.0,1
1254,1254,-0.7181007942145697,-0.7,0.0,1.0,405.0,912.0,1.0,0,93.0,1
1255,1255,-0.6133508633179932,-0.6,1.0,0.0,447.0,524.0,0.0,0,699.0,1
1256,1256,0.7312785608971014,0.7,1.0,1.0,399.0,543.0,1.0,1,438.0,1
1257,1257,-0.8720879783709433,-0.9,1.0,0.0,321.0,794.0,0.0,0,455.0,1
1258,1258,-0.7495732044592197,-0.7,1.0,0.0,251.0,754.0,0.0,0,585.0,1
1259,1259,0.3325144762799538,0.3,1.0,1.0,318.0,793.0,1.0,1,379.0,1
1260,1260,0.6924025681901628,0.7,0.0,0.0,266.0,633.0,0.0,1,521.0,1
1261,1261,0.40313587616732194,0.4,1.0,1.0,250.0,906.0,1.0,1,394.0,1
1262,1262,-0.4886035840165344,-0.5,1.0,0.0,424.0,945.0,0.0,0,351.0,1
1263,1263,0.13320243474702054,0.1,0.0,0.0,477.0,504.0,0.0,1,649.0,1
1264,1264,0.6923176190724251,0.7,0.0,0.0,265.0,515.0,0.0,1,360.0,1
1265,1265,0.3864293716069719,0.4,0.0,0.0,447.0,857.0,0.0,1,146.0,1
1266,1266,0.41368900139637577,0.4,1.0,1.0,466.0,805.0,1.0,1,159.0,1
1267,1267,0.17170035528678895,0.2,0.0,0.0,478.0,566.0,0.0,1,1196.0,1
1268,1268,-0.21145272426225792,-0.2,0.0,1.0,333.0,532.0,1.0,0,1395.0,1
1269,1269,-0.3202025139500555,-0.3,1.0,0.0,465.0,711.0,0.0,0,524.0,1
1270,1270,0.8238788348555502,0.8,0.0,0.0,378.0,648.0,0.0,1,354.0,1
1271,1271,0.016846963366593526,0.0,0.0,0.0,444.0,948.0,1.0,0,1408.0,0
1272,1272,0.6980016312446743,0.7,0.0,0.0,333.0,933.0,0.0,1,164.0,1
1273,1273,0.3895307884251543,0.4,0.0,0.0,299.0,753.0,0.0,1,798.0,1
1274,1274,0.42390865436090974,0.4,0.0,0.0,376.0,707.0,0.0,1,437.0,1
1275,1275,-0.6980755030375005,-0.7,0.0,1.0,444.0,600.0,1.0,0,206.0,1
1276,1276,0.12139006217362003,0.1,1.0,1.0,455.0,904.0,1.0,1,1141.0,1
1277,1277,0.8363993000285198,0.8,0.0,0.0,293.0,971.0,0.0,1,206.0,1
1278,1278,-0.28404422187870915,-0.3,1.0,0.0,406.0,609.0,0.0,0,305.0,1
1279,1279,0.36729146592960615,0.4,1.0,1.0,465.0,813.0,1.0,1,272.0,1
1280,1280,0.09448860261279712,0.1,1.0,1.0,421.0,679.0,1.0,1,870.0,1
1281,1281,-0.8691035449773367,-0.9,0.0,1.0,371.0,808.0,1.0,0,111.0,1
1282,1282,0.8052032036092324,0.8,1.0,1.0,339.0,505.0,1.0,1,666.0,1
1283,1283,0.7493620608873438,0.7,0.0,0.0,423.0,729.0,0.0,1,228.0,1
1284,1284,0.05475398323168901,0.1,1.0,1.0,264.0,745.0,0.0,0,1161.0,0
1285,1285,-0.5498293885327847,-0.5,0.0,1.0,369.0,986.0,1.0,0,475.0,1
1286,1286,0.14787046049270847,0.1,0.0,0.0,255.0,926.0,0.0,1,2299.0,1
1287,1287,-0.6100403898364444,-0.6,0.0,1.0,467.0,655.0,1.0,0,328.0,1
1288,1288,0.21438097633742037,0.2,0.0,0.0,306.0,776.0,0.0,1,698.0,1
1289,1289,-0.6824631801653454,-0.7,1.0,0.0,408.0,656.0,0.0,0,206.0,1
1290,1290,0.4360989853257399,0.4,0.0,0.0,461.0,592.0,0.0,1,627.0,1
1291,1291,-0.6238217548633027,-0.6,0.0,1.0,425.0,511.0,1.0,0,454.0,1
1292,1292,-0.48343800551894256,-0.5,1.0,0.0,438.0,760.0,0.0,0,402.0,1
1293,1293,0.8520578469049004,0.9,1.0,1.0,357.0,919.0,1.0,1,174.0,1
1294,1294,0.0400340125311196,0.0,0.0,0.0,435.0,691.0,0.0,1,1114.0,1
1295,1295,0.3315014088844951,0.3,0.0,0.0,327.0,800.0,0.0,1,1163.0,1
1296,1296,-0.41540080352065356,-0.4,0.0,1.0,470.0,870.0,1.0,0,850.0,1
1297,1297,0.11125271391754421,0.1,0.0,0.0,329.0,563.0,0.0,1,1098.0,1
1298,1298,-0.49994694953309404,-0.5,1.0,0.0,421.0,913.0,0.0,0,196.0,1
1299,1299,-0.5318651190684964,-0.5,0.0,1.0,292.0,514.0,1.0,0,654.0,1
1300,1300,-0.1790897777157,-0.2,0.0,1.0,434.0,829.0,0.0,1,637.0,0
1301,1301,-0.816584043183272,-0.8,1.0,0.0,387.0,685.0,0.0,0,158.0,1
1302,1302,0.516243486584916,0.5,1.0,1.0,489.0,688.0,1.0,1,1723.0,1
1303,1303,-0.002576849413389537,-0.0,1.0,0.0,497.0,880.0,1.0,1,143.0,0
1304,1304,-0.12241232230259402,-0.1,0.0,1.0,290.0,604.0,0.0,1,1546.0,0
1305,1305,-0.43743889439348094,-0.4,1.0,0.0,300.0,604.0,0.0,0,786.0,1
1306,1306,-0.5818952116170564,-0.6,0.0,1.0,309.0,530.0,1.0,0,771.0,1
1307,1307,0.7935626938401276,0.8,0.0,0.0,350.0,825.0,0.0,1,435.0,1
1308,1308,-0.7075248396485857,-0.7,1.0,0.0,257.0,733.0,0.0,0,150.0,1
1309,1309,-0.47493561305647247,-0.5,0.0,1.0,352.0,761.0,1.0,0,267.0,1
1310,1310,-0.3396185392096256,-0.3,1.0,0.0,337.0,910.0,0.0,0,23.0,1
1311,1311,0.7648870262406667,0.8,1.0,1.0,289.0,739.0,1.0,1,452.0,1
1312,1312,0.03818956664493012,0.0,1.0,1.0,457.0,600.0,1.0,1,423.0,1
1313,1313,-0.3448026027916329,-0.3,1.0,0.0,276.0,738.0,0.0,0,236.0,1
1314,1314,-0.19761653367151022,-0.2,0.0,1.0,468.0,559.0,1.0,0,353.0,1
1315,1315,0.5981607070694132,0.6,0.0,0.0,370.0,644.0,0.0,1,236.0,1
1316,1316,0.4027232131963897,0.4,1.0,1.0,355.0,640.0,1.0,1,375.0,1
1317,1317,0.8597085522039477,0.9,1.0,1.0,320.0,659.0,1.0,1,261.0,1
1318,1318,0.5341830799789645,0.5,1.0,1.0,443.0,821.0,1.0,1,446.0,1
1319,1319,-0.8461170698716688,-0.8,0.0,1.0,382.0,553.0,1.0,0,315.0,1
1320,1320,0.6268316233183305,0.6,1.0,1.0,326.0,674.0,1.0,1,710.0,1
1321,1321,0.6496817241015626,0.6,1.0,1.0,259.0,791.0,1.0,1,310.0,1
1322,1322,0.1427043566374765,0.1,1.0,1.0,493.0,909.0,1.0,1,2218.0,1
1323,1323,0.7683127955043415,0.8,1.0,1.0,498.0,918.0,1.0,1,144.0,1
1324,1324,0.4720064002787484,0.5,1.0,1.0,405.0,590.0,1.0,1,835.0,1
1325,1325,0.22837050677035686,0.2,1.0,1.0,484.0,929.0,1.0,1,1757.0,1
1326,1326,-0.007102957883168504,-0.0,0.0,1.0,270.0,921.0,0.0,1,369.0,0
1327,1327,0.12970276063532593,0.1,0.0,0.0,481.0,718.0,0.0,1,771.0,1
1328,1328,-0.5253271511561487,-0.5,0.0,1.0,499.0,928.0,0.0,1,63.0,0
1329,1329,0.4851836423513739,0.5,0.0,0.0,453.0,934.0,0.0,1,163.0,1
1330,1330,0.7374628990634905,0.7,0.0,0.0,305.0,654.0,0.0,1,221.0,1
1331,1331,0.6175466742728274,0.6,1.0,1.0,477.0,785.0,1.0,1,228.0,1
1332,1332,-0.11670680974048164,-0.1,1.0,0.0,430.0,503.0,0.0,0,1337.0,1
1333,1333,-0.5125741683766798,-0.5,1.0,0.0,422.0,595.0,0.0,0,333.0,1
1334,1334,-0.6793166139065328,-0.7,1.0,0.0,381.0,500.0,0.0,0,319.0,1
1335,1335,-0.3393610786424269,-0.3,1.0,0.0,472.0,762.0,0.0,0,256.0,1
1336,1336,-0.5903382939377381,-0.6,0.0,1.0,269.0,812.0,1.0,0,409.0,1
1337,1337,0.21836915536605062,0.2,0.0,0.0,451.0,954.0,0.0,1,575.0,1
1338,1338,-0.5368131303025423,-0.5,1.0,0.0,433.0,611.0,0.0,0,396.0,1
1339,1339,-0.08124460060872063,-0.1,0.0,1.0,429.0,928.0,1.0,0,2333.0,1
1340,1340,0.22161577831194512,0.2,0.0,0.0,253.0,527.0,0.0,1,750.0,1
1341,1341,0.07761883973475803,0.1,0.0,0.0,493.0,953.0,0.0,1,1274.0,1
1342,1342,-0.05370612578718781,-0.1,0.0,1.0,307.0,554.0,1.0,0,609.0,1
1343,1343,-0.09866801632779498,-0.1,0.0,1.0,328.0,815.0,0.0,1,1447.0,0
1344,1344,-0.14576146962020164,-0.1,1.0,0.0,457.0,547.0,1.0,1,2146.0,0
1345,1345,-0.31826498623668176,-0.3,0.0,1.0,279.0,706.0,1.0,0,485.0,1
1346,1346,-0.4719084181263546,-0.5,1.0,0.0,360.0,603.0,0.0,0,317.0,1
1347,1347,0.30985442962056,0.3,0.0,0.0,327.0,753.0,0.0,1,720.0,1
1348,1348,0.5239947334648357,0.5,0.0,0.0,256.0,665.0,0.0,1,1109.0,1
1349,1349,-0.15976387484814636,-0.2,0.0,1.0,412.0,870.0,0.0,1,198.0,0
1350,1350,0.1913552266553754,0.2,0.0,0.0,435.0,947.0,0.0,1,348.0,1
1351,1351,0.6621702325856295,0.7,1.0,1.0,497.0,705.0,1.0,1,318.0,1
1352,1352,-0.18374718637854637,-0.2,1.0,0.0,471.0,669.0,0.0,0,870.0,1
1353,1353,-0.5109926680518078,-0.5,0.0,1.0,305.0,720.0,1.0,0,375.0,1
1354,1354,0.1915653773055953,0.2,0.0,0.0,388.0,589.0,0.0,1,2433.0,1
1355,1355,0.3273903550825049,0.3,0.0,0.0,449.0,640.0,0.0,1,611.0,1
1356,1356,0.6931442224560248,0.7,0.0,0.0,396.0,936.0,0.0,1,158.0,1
1357,1357,-0.46857034236582185,-0.5,0.0,1.0,367.0,758.0,1.0,0,315.0,1
1358,1358,-0.7998681614789124,-0.8,1.0,0.0,325.0,503.0,0.0,0,382.0,1
1359,1359,0.5995596873434706,0.6,0.0,0.0,436.0,908.0,0.0,1,476.0,1
1360,1360,-0.7355785097322743,-0.7,0.0,1.0,463.0,874.0,1.0,0,543.0,1
1361,1361,0.672512699137693,0.7,0.0,0.0,483.0,778.0,0.0,1,339.0,1
1362,1362,0.41315380108048727,0.4,1.0,1.0,459.0,845.0,1.0,1,536.0,1
1363,1363,0.2258312271807278,0.2,1.0,1.0,425.0,912.0,1.0,1,773.0,1
1364,1364,0.10234230402526567,0.1,0.0,0.0,497.0,504.0,0.0,1,439.0,1
1365,1365,0.7775552497234971,0.8,0.0,0.0,316.0,513.0,0.0,1,311.0,1
1366,1366,-0.6831689904416157,-0.7,0.0,1.0,491.0,707.0,1.0,0,552.0,1
1367,1367,-0.26833451353128046,-0.3,1.0,0.0,307.0,548.0,0.0,0,315.0,1
1368,1368,0.6509844964814805,0.7,1.0,1.0,352.0,972.0,1.0,1,176.0,1
1369,1369,0.42980730583352045,0.4,1.0,1.0,351.0,571.0,1.0,1,908.0,1
1370,1370,0.8444931779244381,0.8,0.0,0.0,386.0,575.0,0.0,1,2109.0,1
1371,1371,0.8844251596277909,0.9,1.0,1.0,469.0,803.0,1.0,1,148.0,1
1372,1372,0.528086752628579,0.5,1.0,1.0,277.0,724.0,1.0,1,489.0,1
1373,1373,-0.09382389728130758,-0.1,0.0,1.0,339.0,744.0,0.0,1,327.0,0
1374,1374,-0.19806304359846538,-0.2,1.0,0.0,276.0,533.0,0.0,0,991.0,1
1375,1375,0.22815794762319885,0.2,0.0,0.0,340.0,775.0,0.0,1,355.0,1
1376,1376,-0.06237517658742464,-0.1,0.0,1.0,362.0,955.0,0.0,1,543.0,0
1377,1377,0.2569705679886759,0.3,0.0,0.0,359.0,557.0,0.0,1,704.0,1
1378,1378,0.7540888978035939,0.8,0.0,0.0,499.0,974.0,0.0,1,227.0,1
1379,1379,0.18084170891722395,0.2,1.0,1.0,494.0,679.0,0.0,0,617.0,0
1380,1380,-0.12471898146893023,-0.1,0.0,1.0,343.0,725.0,1.0,0,322.0,1
1381,1381,-0.6082189482860565,-0.6,0.0,1.0,474.0,642.0,1.0,0,384.0,1
1382,1382,-0.44088054695557427,-0.4,1.0,0.0,415.0,843.0,0.0,0,792.0,1
1383,1383,-0.32593248625765125,-0.3,0.0,1.0,463.0,902.0,1.0,0,215.0,1
1384,1384,-0.3086319071308763,-0.3,0.0,1.0,275.0,858.0,1.0,0,337.0,1
1385,1385,-0.8360319747754082,-0.8,0.0,1.0,402.0,541.0,1.0,0,557.0,1
1386,1386,0.6321082357616697,0.6,0.0,0.0,404.0,940.0,0.0,1,146.0,1
1387,1387,0.4681986923320042,0.5,0.0,0.0,267.0,932.0,0.0,1,161.0,1
1388,1388,-0.022191716000295347,-0.0,0.0,1.0,483.0,547.0,1.0,0,580.0,1
1389,1389,-0.003939199368862889,-0.0,0.0,1.0,380.0,880.0,1.0,0,1130.0,1
1390,1390,0.6215273182495323,0.6,1.0,1.0,397.0,947.0,1.0,1,186.0,1
1391,1391,-0.6371974148882966,-0.6,0.0,1.0,256.0,530.0,1.0,0,624.0,1
1392,1392,-0.7922900296920594,-0.8,1.0,0.0,386.0,577.0,0.0,0,467.0,1
1393,1393,0.05560375778786497,0.1,1.0,1.0,347.0,639.0,1.0,1,1534.0,1
1394,1394,0.4700992007113872,0.5,0.0,0.0,458.0,673.0,0.0,1,509.0,1
1395,1395,0.18367302057265145,0.2,0.0,0.0,391.0,597.0,0.0,1,452.0,1
1396,1396,0.37434294534035006,0.4,1.0,1.0,412.0,555.0,1.0,1,473.0,1
1397,1397,-0.5747440824377474,-0.6,1.0,0.0,456.0,699.0,0.0,0,465.0,1
1398,1398,0.6825437905782691,0.7,1.0,1.0,438.0,696.0,1.0,1,386.0,1
1399,1399,0.6987665550904335,0.7,1.0,1.0,260.0,512.0,1.0,1,398.0,1
1400,1400,0.8834201792868733,0.9,1.0,1.0,332.0,731.0,1.0,1,837.0,1
1401,1401,-0.20247027838132925,-0.2,1.0,0.0,427.0,532.0,0.0,0,671.0,1
1402,1402,0.12061725785836719,0.1,0.0,0.0,326.0,721.0,0.0,1,263.0,1
1403,1403,-0.5018081567251129,-0.5,0.0,1.0,290.0,786.0,1.0,0,394.0,1
1404,1404,-0.279021393350426,-0.3,1.0,0.0,324.0,651.0,0.0,0,1045.0,1
1405,1405,-0.6784565764061403,-0.7,0.0,1.0,397.0,883.0,1.0,0,160.0,1
1406,1406,0.3947671493181907,0.4,0.0,0.0,348.0,732.0,0.0,1,1780.0,1
1407,1407,-0.026765144177998246,-0.0,1.0,0.0,404.0,567.0,1.0,1,289.0,0
1408,1408,0.001471842660745848,0.0,0.0,0.0,387.0,798.0,0.0,1,685.0,1
1409,1409,0.3599787450168682,0.4,0.0,0.0,293.0,516.0,0.0,1,601.0,1
1410,1410,-0.26615207468740787,-0.3,1.0,0.0,477.0,563.0,0.0,0,780.0,1
1411,1411,-0.47848071606125603,-0.5,0.0,1.0,263.0,749.0,1.0,0,68.0,1
1412,1412,0.4625178414486838,0.5,1.0,1.0,465.0,692.0,1.0,1,253.0,1
1413,1413,0.0983969080554008,0.1,0.0,0.0,443.0,821.0,0.0,1,1326.0,1
1414,1414,0.2767740010378047,0.3,1.0,1.0,263.0,821.0,1.0,1,446.0,1
1415,1415,0.38997821218686923,0.4,0.0,0.0,292.0,900.0,0.0,1,338.0,1
1416,1416,0.47021485891071546,0.5,0.0,0.0,397.0,890.0,0.0,1,413.0,1
1417,1417,0.5277566927296361,0.5,0.0,0.0,426.0,512.0,0.0,1,692.0,1
1418,1418,0.4729826308416726,0.5,0.0,0.0,435.0,510.0,0.0,1,475.0,1
1419,1419,-0.4967637635139017,-0.5,1.0,0.0,260.0,827.0,0.0,0,393.0,1
1420,1420,0.4502527054756841,0.5,0.0,0.0,367.0,757.0,0.0,1,436.0,1
1421,1421,0.6219777974667605,0.6,1.0,1.0,361.0,940.0,1.0,1,269.0,1
1422,1422,-0.3674802201081866,-0.4,0.0,1.0,257.0,992.0,1.0,0,471.0,1
1423,1423,-0.718206964511563,-0.7,0.0,1.0,317.0,510.0,1.0,0,373.0,1
1424,1424,-0.44185659577987224,-0.4,0.0,1.0,423.0,714.0,1.0,0,633.0,1
1425,1425,0.8948752630422631,0.9,1.0,1.0,414.0,826.0,1.0,1,190.0,1
1426,1426,-0.04310387162455598,-0.0,0.0,1.0,495.0,557.0,1.0,0,1648.0,1
1427,1427,-0.5765666843237731,-0.6,0.0,1.0,352.0,992.0,1.0,0,206.0,1
1428,1428,-0.5982561707535659,-0.6,1.0,0.0,313.0,703.0,0.0,0,204.0,1
1429,1429,-0.04849105043182067,-0.0,0.0,1.0,474.0,880.0,1.0,0,296.0,1
1430,1430,0.48897086282323243,0.5,0.0,0.0,396.0,877.0,0.0,1,157.0,1
1431,1431,-0.4362695002984802,-0.4,0.0,1.0,263.0,788.0,1.0,0,159.0,1
1432,1432,-0.8223581877754141,-0.8,1.0,0.0,362.0,968.0,0.0,0,230.0,1
1433,1433,0.2591513848517363,0.3,1.0,1.0,359.0,982.0,1.0,1,139.0,1
1434,1434,0.813785383969298,0.8,0.0,0.0,465.0,851.0,0.0,1,354.0,1
1435,1435,-0.29241655029841607,-0.3,1.0,0.0,376.0,757.0,0.0,0,1477.0,1
1436,1436,0.6070405094946599,0.6,1.0,1.0,484.0,995.0,1.0,1,391.0,1
1437,1437,0.33819106660379916,0.3,0.0,0.0,305.0,682.0,0.0,1,293.0,1
1438,1438,-0.728939861116546,-0.7,0.0,1.0,340.0,912.0,1.0,0,128.0,1
1439,1439,0.6333541542132678,0.6,0.0,0.0,416.0,839.0,0.0,1,535.0,1
1440,1440,-0.4558992076779813,-0.5,0.0,1.0,452.0,635.0,1.0,0,283.0,1
1441,1441,-0.2187412720221975,-0.2,1.0,0.0,360.0,981.0,0.0,0,229.0,1
1442,1442,0.8038157553872515,0.8,0.0,0.0,468.0,736.0,0.0,1,226.0,1
1443,1443,0.5340105263429206,0.5,0.0,0.0,344.0,553.0,0.0,1,403.0,1
1444,1444,0.08594651556254052,0.1,0.0,0.0,320.0,830.0,0.0,1,1810.0,1
1445,1445,-0.7856308389223198,-0.8,0.0,1.0,343.0,966.0,1.0,0,121.0,1
1446,1446,0.3114512227170644,0.3,1.0,1.0,408.0,559.0,1.0,1,623.0,1
1447,1447,0.3271614190229154,0.3,1.0,1.0,384.0,628.0,1.0,1,738.0,1
1448,1448,0.4477023030716246,0.4,0.0,0.0,368.0,512.0,0.0,1,500.0,1
1449,1449,-0.657308916394441,-0.7,1.0,0.0,454.0,746.0,0.0,0,260.0,1
1450,1450,-0.12466663715810822,-0.1,1.0,0.0,485.0,819.0,0.0,0,1916.0,1
1451,1451,-0.6088991405146658,-0.6,1.0,0.0,490.0,815.0,0.0,0,135.0,1
1452,1452,0.6048559727518478,0.6,1.0,1.0,438.0,719.0,1.0,1,743.0,1
1453,1453,-0.6861211100090339,-0.7,0.0,1.0,444.0,779.0,1.0,0,467.0,1
1454,1454,-0.7240592850861444,-0.7,0.0,1.0,425.0,922.0,1.0,0,133.0,1
1455,1455,-0.27562435103789007,-0.3,0.0,1.0,303.0,530.0,1.0,0,807.0,1
1456,1456,0.028629313935222944,0.0,1.0,1.0,333.0,607.0,0.0,0,1340.0,0
1457,1457,0.28629332830017284,0.3,0.0,0.0,439.0,570.0,1.0,0,611.0,0
1458,1458,0.6327818681738601,0.6,1.0,1.0,289.0,668.0,1.0,1,253.0,1
1459,1459,-0.7803247728090276,-0.8,1.0,0.0,381.0,509.0,0.0,0,1880.0,1
1460,1460,-0.0670741881556648,-0.1,1.0,0.0,374.0,538.0,0.0,0,658.0,1
1461,1461,-0.4855730550965502,-0.5,1.0,0.0,411.0,906.0,0.0,0,223.0,1
1462,1462,-0.6978404423293645,-0.7,1.0,0.0,362.0,689.0,0.0,0,459.0,1
1463,1463,-0.6214268913583223,-0.6,1.0,0.0,265.0,759.0,0.0,0,166.0,1
1464,1464,-0.5316830353381992,-0.5,1.0,0.0,413.0,824.0,0.0,0,353.0,1
1465,1465,0.1258968813203708,0.1,1.0,1.0,383.0,512.0,1.0,1,605.0,1
1466,1466,0.6759757899570219,0.7,1.0,1.0,449.0,996.0,0.0,0,-25.0,0
1467,1467,-0.5257392438371713,-0.5,1.0,0.0,387.0,710.0,0.0,0,193.0,1
1468,1468,-0.4929445146859664,-0.5,1.0,0.0,324.0,965.0,0.0,0,511.0,1
1469,1469,0.5558797033716673,0.6,0.0,0.0,499.0,897.0,0.0,1,514.0,1
1470,1470,0.29835362455796177,0.3,0.0,0.0,402.0,673.0,0.0,1,455.0,1
1471,1471,0.3448153823065109,0.3,1.0,1.0,490.0,691.0,1.0,1,359.0,1
1472,1472,-0.11981707629674132,-0.1,1.0,0.0,305.0,838.0,0.0,0,587.0,1
1473,1473,0.5405094340773898,0.5,0.0,0.0,261.0,791.0,0.0,1,168.0,1
1474,1474,-0.21329792254025748,-0.2,0.0,1.0,337.0,683.0,1.0,0,310.0,1
1475,1475,0.8384307853032565,0.8,0.0,0.0,332.0,895.0,0.0,1,413.0,1
1476,1476,0.49406774731161274,0.5,0.0,0.0,455.0,675.0,0.0,1,340.0,1
1477,1477,0.6636742054246249,0.7,0.0,0.0,431.0,938.0,0.0,1,331.0,1
1478,1478,-0.3979867169362955,-0.4,1.0,0.0,397.0,740.0,0.0,0,163.0,1
1479,1479,-0.8213646790955127,-0.8,0.0,1.0,460.0,609.0,1.0,0,321.0,1
1480,1480,-0.6520600822690554,-0.7,1.0,0.0,470.0,842.0,0.0,0,608.0,1
1481,1481,-0.7234218739038046,-0.7,0.0,1.0,461.0,860.0,1.0,0,519.0,1
1482,1482,-0.8691768159884811,-0.9,0.0,1.0,440.0,670.0,1.0,0,310.0,1
1483,1483,-0.876230732034986,-0.9,0.0,1.0,307.0,674.0,1.0,0,589.0,1
1484,1484,-0.490032710861639,-0.5,0.0,1.0,395.0,817.0,1.0,0,758.0,1
1485,1485,-0.8598251503729635,-0.9,0.0,1.0,470.0,748.0,1.0,0,242.0,1
1486,1486,0.7780947294984585,0.8,1.0,1.0,375.0,835.0,1.0,1,290.0,1
1487,1487,0.7030433475017001,0.7,0.0,0.0,440.0,514.0,0.0,1,336.0,1
1488,1488,0.15442432144681895,0.2,1.0,1.0,394.0,883.0,1.0,1,-27.0,1
1489,1489,-0.5957502834270327,-0.6,0.0,1.0,434.0,972.0,1.0,0,84.0,1
1490,1490,-0.4758355718376736,-0.5,1.0,0.0,372.0,544.0,0.0,0,444.0,1
1491,1491,0.844818296483162,0.8,1.0,1.0,287.0,569.0,1.0,1,364.0,1
1492,1492,0.4896614292554241,0.5,0.0,0.0,478.0,914.0,0.0,1,188.0,1
