,trial,coherence,coherence_bin,green_side,correct_side,target_onset,checker_onset,decision,green_decision,decision_time,correct_decision
0,0,-0.15397380482198653,-0.2,0.0,1.0,377.0,727.0,0.0,1,776.0,0
1,1,-0.26047591105701606,-0.3,1.0,0.0,264.0,863.0,0.0,0,163.0,1
2,2,-0.4098712642492172,-0.4,1.0,0.0,419.0,539.0,0.0,0,522.0,1
3,3,0.04588438427609276,0.0,0.0,0.0,382.0,803.0,1.0,0,795.0,0
4,4,-0.23313579205642054,-0.2,1.0,0.0,321.0,701.0,0.0,0,878.0,1
5,5,0.3649362796869783,0.4,1.0,1.0,409.0,755.0,1.0,1,1256.0,1
6,6,0.75715401617919,0.8,1.0,1.0,443.0,849.0,1.0,1,408.0,1
7,7,0.2155329526016524,0.2,1.0,1.0,300.0,865.0,0.0,0,-75.0,0
8,8,-0.12093861221178637,-0.1,1.0,0.0,374.0,894.0,0.0,0,282.0,1
9,9,-0.5174414795685067,-0.5,1.0,0.0,397.0,714.0,0.0,0,179.0,1
10,10,0.8353729665799526,0.8,1.0,1.0,498.0,579.0,1.0,1,413.0,1
11,11,-0.054807568046122856,-0.1,0.0,1.0,494.0,682.0,0.0,1,744.0,0
12,12,-0.1721672278100268,-0.2,0.0,1.0,369.0,638.0,0.0,1,1913.0,0
13,13,-0.03195901543734658,-0.0,1.0,0.0,468.0,659.0,1.0,1,433.0,0
14,14,-0.7389336217827597,-0.7,1.0,0.0,296.0,671.0,0.0,0,263.0,1
15,15,0.2511304132846882,0.3,1.0,1.0,454.0,861.0,1.0,1,985.0,1
16,16,0.29791207650851625,0.3,0.0,0.0,473.0,870.0,0.0,1,97.0,1
17,17,0.17170833058349222,0.2,1.0,1.0,394.0,850.0,0.0,0,406.0,0
18,18,0.12354818220351105,0.1,0.0,0.0,411.0,782.0,0.0,1,277.0,1
19,19,0.1977244551557057,0.2,0.0,0.0,298.0,869.0,0.0,1,633.0,1
20,20,-0.30543500746127294,-0.3,0.0,1.0,340.0,646.0,1.0,0,504.0,1
21,21,0.13428360672476114,0.1,1.0,1.0,402.0,724.0,1.0,1,394.0,1
22,22,-0.11241238916705398,-0.1,1.0,0.0,428.0,811.0,1.0,1,481.0,0
23,23,-0.3358366603609034,-0.3,1.0,0.0,312.0,555.0,0.0,0,883.0,1
24,24,0.37076157484346794,0.4,1.0,1.0,305.0,616.0,1.0,1,449.0,1
25,25,-0.21170038700128058,-0.2,1.0,0.0,367.0,930.0,0.0,0,223.0,1
26,26,0.24025546840647427,0.2,1.0,1.0,372.0,848.0,1.0,1,200.0,1
27,27,0.11641001567446907,0.1,0.0,0.0,417.0,505.0,0.0,1,478.0,1
28,28,0.4352650052736883,0.4,0.0,0.0,286.0,992.0,0.0,1,842.0,1
29,29,-0.1638890240675489,-0.2,0.0,1.0,341.0,723.0,0.0,1,1276.0,0
30,30,0.07373779772987543,0.1,1.0,1.0,498.0,703.0,0.0,0,429.0,0
31,31,-0.0232317789987031,-0.0,1.0,0.0,499.0,777.0,1.0,1,424.0,0
32,32,0.4898477587089426,0.5,1.0,1.0,455.0,717.0,1.0,1,718.0,1
33,33,0.33605307808345797,0.3,1.0,1.0,494.0,632.0,1.0,1,414.0,1
34,34,-0.13210015961407084,-0.1,0.0,1.0,272.0,998.0,1.0,0,210.0,1
35,35,0.3226777086653966,0.3,0.0,0.0,425.0,532.0,0.0,1,473.0,1
36,36,0.7215275969360452,0.7,0.0,0.0,483.0,721.0,0.0,1,346.0,1
37,37,-0.7883176474128952,-0.8,0.0,1.0,403.0,584.0,1.0,0,573.0,1
38,38,0.27716939000048135,0.3,0.0,0.0,278.0,862.0,0.0,1,740.0,1
39,39,-0.4942653598445414,-0.5,1.0,0.0,303.0,945.0,0.0,0,222.0,1
40,40,0.8039963819543966,0.8,1.0,1.0,493.0,923.0,0.0,0,354.0,0
41,41,0.1517644431551911,0.2,0.0,0.0,440.0,813.0,0.0,1,847.0,1
42,42,0.8769316120335703,0.9,0.0,0.0,269.0,613.0,0.0,1,348.0,1
43,43,-0.8641528031341114,-0.9,0.0,1.0,336.0,773.0,1.0,0,661.0,1
44,44,0.8596647316772345,0.9,0.0,0.0,356.0,604.0,0.0,1,270.0,1
45,45,-0.7692561001292785,-0.8,0.0,1.0,405.0,624.0,1.0,0,561.0,1
46,46,-0.27215008094562376,-0.3,0.0,1.0,447.0,929.0,1.0,0,1984.0,1
47,47,0.7633761827124675,0.8,0.0,0.0,365.0,683.0,0.0,1,422.0,1
48,48,-0.33641229949047946,-0.3,0.0,1.0,472.0,528.0,1.0,0,700.0,1
49,49,0.6030474506124713,0.6,0.0,0.0,306.0,841.0,0.0,1,133.0,1
50,50,-0.6992057384628946,-0.7,1.0,0.0,464.0,519.0,0.0,0,567.0,1
51,51,0.4533159492655402,0.5,1.0,1.0,479.0,654.0,1.0,1,1037.0,1
52,52,-0.4573137507562493,-0.5,1.0,0.0,339.0,860.0,0.0,0,291.0,1
53,53,0.17300798494085223,0.2,1.0,1.0,308.0,924.0,1.0,1,528.0,1
54,54,-0.46455978165444806,-0.5,1.0,0.0,385.0,886.0,0.0,0,279.0,1
55,55,0.14274540388858903,0.1,1.0,1.0,379.0,735.0,1.0,1,646.0,1
56,56,-0.127506060177484,-0.1,0.0,1.0,371.0,876.0,1.0,0,403.0,1
57,57,0.5935804506995263,0.6,0.0,0.0,281.0,629.0,0.0,1,270.0,1
58,58,-0.278417901776424,-0.3,1.0,0.0,449.0,867.0,0.0,0,164.0,1
59,59,0.4669266400286224,0.5,0.0,0.0,361.0,653.0,0.0,1,426.0,1
60,60,0.25620753963476395,0.3,1.0,1.0,258.0,761.0,1.0,1,631.0,1
61,61,0.35975877031731607,0.4,1.0,1.0,335.0,638.0,1.0,1,1007.0,1
62,62,0.15051766462084737,0.2,1.0,1.0,437.0,891.0,0.0,0,762.0,0
63,63,-0.2781257131171371,-0.3,1.0,0.0,291.0,623.0,0.0,0,1166.0,1
64,64,-0.08735331804939539,-0.1,1.0,0.0,373.0,847.0,1.0,1,200.0,0
65,65,-0.54453507292941,-0.5,1.0,0.0,435.0,608.0,0.0,0,857.0,1
66,66,0.10626892086844475,0.1,1.0,1.0,365.0,552.0,1.0,1,553.0,1
67,67,0.819783744255976,0.8,1.0,1.0,379.0,764.0,1.0,1,337.0,1
68,68,-0.3635375674366018,-0.4,1.0,0.0,459.0,577.0,0.0,0,344.0,1
69,69,-0.5381003041785506,-0.5,0.0,1.0,447.0,748.0,1.0,0,345.0,1
70,70,0.5723786025513257,0.6,1.0,1.0,499.0,822.0,1.0,1,259.0,1
71,71,0.41408032645338644,0.4,0.0,0.0,454.0,970.0,0.0,1,196.0,1
72,72,-0.17768112202908515,-0.2,0.0,1.0,384.0,770.0,0.0,1,866.0,0
73,73,0.8703007129748456,0.9,0.0,0.0,267.0,992.0,0.0,1,11.0,1
74,74,0.5283174035189057,0.5,1.0,1.0,317.0,969.0,1.0,1,1004.0,1
75,75,-0.7920430952746652,-0.8,1.0,0.0,399.0,912.0,0.0,0,149.0,1
76,76,-0.869742265374567,-0.9,0.0,1.0,492.0,624.0,1.0,0,454.0,1
77,77,0.6677470238343882,0.7,0.0,0.0,331.0,889.0,0.0,1,430.0,1
78,78,0.8428651302904625,0.8,1.0,1.0,391.0,580.0,1.0,1,569.0,1
79,79,0.8074255593864254,0.8,0.0,0.0,450.0,674.0,0.0,1,356.0,1
80,80,-0.5281730836800458,-0.5,0.0,1.0,275.0,962.0,1.0,0,363.0,1
81,81,-0.08881580294623859,-0.1,1.0,0.0,361.0,697.0,1.0,1,642.0,0
82,82,0.07417475121491623,0.1,0.0,0.0,442.0,687.0,0.0,1,1141.0,1
83,83,0.34437516259491996,0.3,0.0,0.0,424.0,756.0,0.0,1,130.0,1
84,84,0.2811212602564387,0.3,1.0,1.0,448.0,872.0,1.0,1,690.0,1
85,85,-0.18511061746760116,-0.2,0.0,1.0,393.0,791.0,1.0,0,506.0,1
86,86,0.49708720664318673,0.5,1.0,1.0,341.0,755.0,1.0,1,374.0,1
87,87,-0.7569217408352653,-0.8,1.0,0.0,494.0,954.0,0.0,0,322.0,1
88,88,0.293319637441947,0.3,1.0,1.0,298.0,981.0,0.0,0,-209.0,0
89,89,-0.3149583933213477,-0.3,0.0,1.0,283.0,590.0,0.0,1,197.0,0
90,90,0.8024409532191615,0.8,0.0,0.0,444.0,947.0,0.0,1,279.0,1
91,91,0.7802583221687959,0.8,1.0,1.0,384.0,910.0,1.0,1,136.0,1
92,92,-0.16208049285709158,-0.2,0.0,1.0,339.0,796.0,1.0,0,305.0,1
93,93,0.33943803284088025,0.3,0.0,0.0,265.0,779.0,0.0,1,546.0,1
94,94,-0.05867250347585429,-0.1,1.0,0.0,280.0,770.0,0.0,0,600.0,1
95,95,-0.8892510192415397,-0.9,1.0,0.0,490.0,664.0,0.0,0,606.0,1
96,96,-0.7620765239733928,-0.8,1.0,0.0,272.0,605.0,0.0,0,333.0,1
97,97,-0.6497086254701229,-0.6,0.0,1.0,412.0,873.0,0.0,1,145.0,0
98,98,0.582466323214411,0.6,1.0,1.0,473.0,590.0,1.0,1,417.0,1
99,99,0.3540449349184013,0.4,1.0,1.0,432.0,534.0,0.0,0,1074.0,0
100,100,-0.6196029872946647,-0.6,1.0,0.0,348.0,899.0,0.0,0,293.0,1
101,101,-0.8395641333552188,-0.8,0.0,1.0,289.0,901.0,1.0,0,210.0,1
102,102,0.1093484382076707,0.1,1.0,1.0,406.0,597.0,1.0,1,557.0,1
103,103,0.8657744729724594,0.9,1.0,1.0,347.0,835.0,1.0,1,248.0,1
104,104,-0.07211709145568768,-0.1,1.0,0.0,325.0,859.0,1.0,1,826.0,0
105,105,-0.5974298334953583,-0.6,1.0,0.0,296.0,681.0,0.0,0,473.0,1
106,106,-0.07210835876076105,-0.1,1.0,0.0,425.0,617.0,0.0,0,1228.0,1
107,107,0.5622116124730282,0.6,0.0,0.0,296.0,971.0,0.0,1,-217.0,1
108,108,0.6405495841462275,0.6,1.0,1.0,370.0,692.0,1.0,1,1098.0,1
109,109,-0.7047151535094096,-0.7,0.0,1.0,398.0,630.0,1.0,0,512.0,1
110,110,-0.6696771063352569,-0.7,1.0,0.0,491.0,688.0,0.0,0,671.0,1
111,111,-0.02571484700402349,-0.0,0.0,1.0,431.0,877.0,0.0,1,1132.0,0
112,112,-0.20393333074023068,-0.2,1.0,0.0,468.0,956.0,0.0,0,246.0,1
113,113,-0.4557185256362558,-0.5,1.0,0.0,377.0,990.0,0.0,0,-7.0,1
114,114,0.3248214896797791,0.3,1.0,1.0,447.0,572.0,0.0,0,3161.0,0
115,115,0.16395045254892293,0.2,0.0,0.0,268.0,621.0,0.0,1,311.0,1
116,116,0.0587617044247436,0.1,1.0,1.0,357.0,664.0,0.0,0,279.0,0
117,117,0.07378040145296638,0.1,1.0,1.0,291.0,807.0,1.0,1,1522.0,1
118,118,0.5352475045581183,0.5,0.0,0.0,279.0,503.0,0.0,1,898.0,1
119,119,-0.8279920758884195,-0.8,1.0,0.0,448.0,703.0,0.0,0,759.0,1
120,120,-0.2993097186567545,-0.3,0.0,1.0,425.0,625.0,1.0,0,480.0,1
121,121,0.8412571247940649,0.8,1.0,1.0,262.0,579.0,1.0,1,629.0,1
122,122,0.4450003509489956,0.4,1.0,1.0,446.0,522.0,1.0,1,912.0,1
123,123,-0.8236855251710438,-0.8,0.0,1.0,350.0,572.0,1.0,0,278.0,1
124,124,0.7805229536904107,0.8,0.0,0.0,428.0,664.0,0.0,1,308.0,1
125,125,-0.5896192755840093,-0.6,0.0,1.0,339.0,902.0,0.0,1,-41.0,0
126,126,-0.11366654433703627,-0.1,0.0,1.0,472.0,823.0,1.0,0,455.0,1
127,127,-0.2243781042106372,-0.2,0.0,1.0,415.0,733.0,1.0,0,812.0,1
128,128,0.3240333743910516,0.3,0.0,0.0,496.0,518.0,0.0,1,686.0,1
129,129,-0.3932729212131656,-0.4,1.0,0.0,451.0,694.0,1.0,1,555.0,0
130,130,0.7629105781909581,0.8,0.0,0.0,416.0,838.0,0.0,1,126.0,1
131,131,0.04855300829677178,0.0,1.0,1.0,475.0,886.0,0.0,0,409.0,0
132,132,-0.6121581257835849,-0.6,0.0,1.0,279.0,868.0,1.0,0,343.0,1
133,133,0.678263047655126,0.7,1.0,1.0,415.0,791.0,1.0,1,734.0,1
134,134,0.2708831793428953,0.3,0.0,0.0,426.0,876.0,1.0,0,88.0,0
135,135,-0.06081212143706327,-0.1,0.0,1.0,365.0,670.0,0.0,1,535.0,0
136,136,0.6880550299404443,0.7,0.0,0.0,435.0,794.0,0.0,1,481.0,1
137,137,0.4537842974672107,0.5,1.0,1.0,255.0,783.0,1.0,1,682.0,1
138,138,-0.7070696395713174,-0.7,0.0,1.0,407.0,992.0,0.0,1,301.0,0
139,139,-0.19193681538883245,-0.2,0.0,1.0,390.0,902.0,1.0,0,178.0,1
140,140,-0.4364806202214352,-0.4,1.0,0.0,441.0,896.0,0.0,0,463.0,1
141,141,0.484601341698225,0.5,0.0,0.0,436.0,935.0,0.0,1,129.0,1
142,142,0.5727262691039331,0.6,0.0,0.0,370.0,953.0,0.0,1,307.0,1
143,143,-0.1298791384115825,-0.1,0.0,1.0,418.0,546.0,1.0,0,546.0,1
144,144,-0.22902393938998056,-0.2,0.0,1.0,333.0,562.0,0.0,1,525.0,0
145,145,-0.34273825134659763,-0.3,1.0,0.0,311.0,890.0,0.0,0,209.0,1
146,146,0.462312528056985,0.5,1.0,1.0,488.0,613.0,1.0,1,759.0,1
147,147,-0.8304106693719361,-0.8,1.0,0.0,456.0,649.0,0.0,0,215.0,1
148,148,0.39988930869720696,0.4,0.0,0.0,395.0,535.0,0.0,1,820.0,1
149,149,-0.3576641216976527,-0.4,0.0,1.0,427.0,901.0,1.0,0,622.0,1
150,150,0.7040794369416145,0.7,1.0,1.0,461.0,796.0,1.0,1,723.0,1
151,151,-0.2031334641772301,-0.2,1.0,0.0,304.0,835.0,1.0,1,741.0,0
152,152,0.05156607065038166,0.1,0.0,0.0,331.0,653.0,1.0,0,266.0,0
153,153,-0.07294187783225115,-0.1,1.0,0.0,344.0,582.0,0.0,0,864.0,1
154,154,0.18974184859836052,0.2,1.0,1.0,409.0,526.0,1.0,1,885.0,1
155,155,-0.1893754537517366,-0.2,1.0,0.0,436.0,932.0,0.0,0,572.0,1
156,156,-0.126647813663603,-0.1,1.0,0.0,315.0,813.0,0.0,0,2142.0,1
157,157,0.7174849847964672,0.7,0.0,0.0,348.0,788.0,0.0,1,84.0,1
158,158,0.6123982247948111,0.6,1.0,1.0,475.0,773.0,1.0,1,532.0,1
159,159,-0.09064635334142646,-0.1,1.0,0.0,468.0,895.0,1.0,1,1117.0,0
160,160,-0.7468110274442749,-0.7,0.0,1.0,392.0,743.0,0.0,1,285.0,0
161,161,-0.3966804943457799,-0.4,1.0,0.0,419.0,849.0,0.0,0,172.0,1
162,162,-0.29547332936095994,-0.3,0.0,1.0,269.0,877.0,0.0,1,1304.0,0
163,163,-0.8542922665145858,-0.9,1.0,0.0,279.0,554.0,0.0,0,387.0,1
164,164,0.12394045196856951,0.1,0.0,0.0,339.0,964.0,0.0,1,-103.0,1
165,165,-0.5907189351261697,-0.6,1.0,0.0,448.0,939.0,0.0,0,153.0,1
166,166,-0.8687740744427287,-0.9,0.0,1.0,482.0,913.0,1.0,0,-15.0,1
167,167,-0.39793441932164586,-0.4,0.0,1.0,315.0,697.0,1.0,0,508.0,1
168,168,0.6389556279696732,0.6,0.0,0.0,356.0,596.0,0.0,1,358.0,1
169,169,0.23931199982331808,0.2,0.0,0.0,346.0,909.0,0.0,1,345.0,1
170,170,0.44042416114164096,0.4,0.0,0.0,332.0,933.0,0.0,1,185.0,1
171,171,0.3031940201632607,0.3,1.0,1.0,425.0,828.0,1.0,1,377.0,1
172,172,0.7952133553001041,0.8,0.0,0.0,406.0,596.0,0.0,1,198.0,1
173,173,0.17983775836002158,0.2,0.0,0.0,482.0,761.0,0.0,1,397.0,1
174,174,-0.2733218576415041,-0.3,0.0,1.0,492.0,992.0,0.0,1,256.0,0
175,175,0.521985300159033,0.5,0.0,0.0,377.0,800.0,0.0,1,603.0,1
176,176,0.165434252551255,0.2,0.0,0.0,330.0,659.0,0.0,1,1181.0,1
177,177,-0.6120190595509071,-0.6,1.0,0.0,492.0,703.0,0.0,0,295.0,1
178,178,-0.10671653389711955,-0.1,0.0,1.0,445.0,510.0,0.0,1,1095.0,0
179,179,0.7964046446072003,0.8,1.0,1.0,484.0,777.0,1.0,1,429.0,1
180,180,0.523013578829972,0.5,1.0,1.0,476.0,976.0,1.0,1,168.0,1
181,181,0.482144646903539,0.5,0.0,0.0,265.0,885.0,0.0,1,220.0,1
182,182,0.5424012258836269,0.5,1.0,1.0,498.0,568.0,1.0,1,424.0,1
183,183,0.49189630998793155,0.5,1.0,1.0,341.0,571.0,0.0,0,708.0,0
184,184,-0.12687693508500053,-0.1,0.0,1.0,267.0,783.0,0.0,1,190.0,0
185,185,0.15156070983476277,0.2,1.0,1.0,441.0,962.0,0.0,0,137.0,0
186,186,-0.07767097096274089,-0.1,1.0,0.0,471.0,743.0,0.0,0,416.0,1
187,187,0.8703660476105689,0.9,0.0,0.0,424.0,851.0,0.0,1,375.0,1
188,188,-0.03433912074663259,-0.0,1.0,0.0,322.0,857.0,0.0,0,961.0,1
189,189,-0.5231719933133594,-0.5,1.0,0.0,335.0,898.0,0.0,0,667.0,1
190,190,-0.638865777599587,-0.6,0.0,1.0,347.0,908.0,1.0,0,725.0,1
191,191,-0.5960747272724511,-0.6,1.0,0.0,364.0,919.0,0.0,0,127.0,1
192,192,0.050811585657191904,0.1,1.0,1.0,423.0,601.0,0.0,0,1316.0,0
193,193,0.6659769755277777,0.7,1.0,1.0,391.0,612.0,1.0,1,897.0,1
194,194,-0.5805320860777008,-0.6,0.0,1.0,313.0,969.0,1.0,0,328.0,1
195,195,0.765278570594324,0.8,0.0,0.0,452.0,619.0,0.0,1,389.0,1
196,196,0.506065965442602,0.5,1.0,1.0,332.0,620.0,1.0,1,1388.0,1
197,197,-0.6914011431214764,-0.7,1.0,0.0,315.0,892.0,0.0,0,373.0,1
198,198,0.8041277028947335,0.8,0.0,0.0,287.0,995.0,0.0,1,168.0,1
199,199,-0.7624643880978965,-0.8,1.0,0.0,298.0,525.0,0.0,0,437.0,1
200,200,0.26279882929666953,0.3,1.0,1.0,470.0,781.0,1.0,1,839.0,1
201,201,0.026912251601159398,0.0,0.0,0.0,355.0,995.0,0.0,1,330.0,1
202,202,-0.36710922730354056,-0.4,1.0,0.0,346.0,660.0,0.0,0,754.0,1
203,203,-0.09315302375676626,-0.1,1.0,0.0,312.0,505.0,0.0,0,783.0,1
204,204,0.02401044869783653,0.0,0.0,0.0,399.0,889.0,0.0,1,412.0,1
205,205,-0.7775325381580782,-0.8,0.0,1.0,305.0,761.0,1.0,0,384.0,1
206,206,-0.20421992714223713,-0.2,1.0,0.0,317.0,748.0,0.0,0,195.0,1
207,207,-0.8344945141196031,-0.8,1.0,0.0,288.0,877.0,0.0,0,195.0,1
208,208,0.7972242834441884,0.8,1.0,1.0,378.0,954.0,1.0,1,288.0,1
209,209,0.5847590354248927,0.6,1.0,1.0,443.0,794.0,1.0,1,453.0,1
210,210,-0.6934060404544918,-0.7,0.0,1.0,373.0,902.0,1.0,0,1205.0,1
211,211,0.8007469013855407,0.8,1.0,1.0,462.0,767.0,1.0,1,271.0,1
212,212,-0.7936860389591209,-0.8,0.0,1.0,467.0,844.0,1.0,0,429.0,1
213,213,0.34232610156246623,0.3,0.0,0.0,315.0,640.0,0.0,1,345.0,1
214,214,0.1676557056210103,0.2,1.0,1.0,404.0,951.0,0.0,0,-25.0,0
215,215,-0.10606380888335432,-0.1,0.0,1.0,444.0,533.0,0.0,1,1393.0,0
216,216,-0.09348943955502054,-0.1,1.0,0.0,268.0,730.0,0.0,0,92.0,1
217,217,0.05329991862765637,0.1,0.0,0.0,259.0,971.0,0.0,1,-140.0,1
218,218,-0.36161471317344995,-0.4,1.0,0.0,377.0,560.0,1.0,1,563.0,0
219,219,-0.5851521151173205,-0.6,0.0,1.0,313.0,733.0,1.0,0,274.0,1
220,220,0.888437892279263,0.9,0.0,0.0,373.0,996.0,0.0,1,-59.0,1
221,221,-0.4423284240697916,-0.4,1.0,0.0,264.0,520.0,0.0,0,456.0,1
222,222,-0.3617439504844595,-0.4,1.0,0.0,400.0,754.0,0.0,0,956.0,1
223,223,-0.5070720564275923,-0.5,1.0,0.0,420.0,772.0,0.0,0,308.0,1
224,224,-0.6941280630010608,-0.7,0.0,1.0,371.0,777.0,1.0,0,342.0,1
225,225,0.8060929715485924,0.8,1.0,1.0,394.0,751.0,1.0,1,285.0,1
226,226,0.5567460619077776,0.6,1.0,1.0,287.0,528.0,1.0,1,865.0,1
227,227,0.7554364592165842,0.8,0.0,0.0,314.0,908.0,0.0,1,268.0,1
228,228,0.8269792535100592,0.8,1.0,1.0,400.0,943.0,1.0,1,347.0,1
229,229,0.474255754735328,0.5,0.0,0.0,339.0,885.0,0.0,1,206.0,1
230,230,0.3181421450792642,0.3,1.0,1.0,464.0,660.0,1.0,1,1256.0,1
231,231,0.868300132021235,0.9,1.0,1.0,350.0,599.0,1.0,1,411.0,1
232,232,0.243054743281779,0.2,1.0,1.0,258.0,689.0,0.0,0,863.0,0
233,233,-0.018897824599507396,-0.0,0.0,1.0,499.0,591.0,1.0,0,760.0,1
234,234,0.6976133120808147,0.7,1.0,1.0,437.0,974.0,1.0,1,-41.0,1
235,235,-0.10914235558958318,-0.1,1.0,0.0,407.0,500.0,0.0,0,653.0,1
236,236,-0.4092488467243531,-0.4,1.0,0.0,363.0,850.0,0.0,0,497.0,1
237,237,-0.23308151885648554,-0.2,0.0,1.0,430.0,844.0,1.0,0,286.0,1
238,238,0.8932878777523238,0.9,1.0,1.0,374.0,682.0,1.0,1,484.0,1
239,239,0.46832298955808416,0.5,1.0,1.0,293.0,718.0,1.0,1,479.0,1
240,240,-0.7444066740396182,-0.7,0.0,1.0,419.0,593.0,1.0,0,518.0,1
241,241,-0.8825526556576936,-0.9,1.0,0.0,390.0,815.0,0.0,0,305.0,1
242,242,0.7863429829420338,0.8,0.0,0.0,445.0,810.0,0.0,1,515.0,1
243,243,-0.04583298735702479,-0.0,1.0,0.0,475.0,672.0,0.0,0,403.0,1
244,244,-0.00010624395938563236,-0.0,1.0,0.0,388.0,992.0,0.0,0,480.0,1
245,245,0.22292769173490223,0.2,0.0,0.0,255.0,535.0,0.0,1,1040.0,1
246,246,-0.6763584468269821,-0.7,0.0,1.0,346.0,886.0,1.0,0,368.0,1
247,247,-0.6575256371877072,-0.7,1.0,0.0,258.0,604.0,0.0,0,668.0,1
248,248,0.33810927344063024,0.3,1.0,1.0,361.0,546.0,1.0,1,523.0,1
249,249,0.8301736460640109,0.8,1.0,1.0,358.0,731.0,1.0,1,321.0,1
250,250,-0.03193199336535091,-0.0,0.0,1.0,433.0,576.0,0.0,1,281.0,0
251,251,0.38084431470991265,0.4,1.0,1.0,334.0,512.0,1.0,1,724.0,1
252,252,-0.6396369783658233,-0.6,0.0,1.0,321.0,610.0,1.0,0,879.0,1
253,253,-0.12650922329304115,-0.1,0.0,1.0,284.0,882.0,1.0,0,354.0,1
254,254,0.754191370221034,0.8,0.0,0.0,470.0,637.0,0.0,1,403.0,1
255,255,-0.11927351477467751,-0.1,0.0,1.0,392.0,632.0,0.0,1,446.0,0
256,256,0.7775854905838272,0.8,0.0,0.0,374.0,654.0,0.0,1,392.0,1
257,257,0.427205722124283,0.4,0.0,0.0,285.0,719.0,0.0,1,576.0,1
258,258,0.10486712320759117,0.1,1.0,1.0,410.0,879.0,0.0,0,761.0,0
259,259,0.29267736057354543,0.3,1.0,1.0,254.0,962.0,0.0,0,74.0,0
260,260,0.03316490492752178,0.0,0.0,0.0,322.0,527.0,0.0,1,1181.0,1
261,261,0.1357615372948341,0.1,1.0,1.0,443.0,990.0,0.0,0,777.0,0
262,262,0.34417600144103033,0.3,1.0,1.0,355.0,786.0,0.0,0,289.0,0
263,263,0.6065321833435066,0.6,0.0,0.0,281.0,719.0,0.0,1,330.0,1
264,264,-0.8407620594582546,-0.8,0.0,1.0,294.0,845.0,1.0,0,261.0,1
265,265,0.5356809204569503,0.5,1.0,1.0,458.0,693.0,1.0,1,509.0,1
266,266,-0.06207545779283563,-0.1,1.0,0.0,411.0,511.0,1.0,1,658.0,0
267,267,0.730248527950602,0.7,1.0,1.0,408.0,882.0,1.0,1,370.0,1
268,268,0.4807047491708506,0.5,0.0,0.0,466.0,818.0,1.0,0,96.0,0
269,269,0.4150065894305003,0.4,0.0,0.0,457.0,528.0,0.0,1,395.0,1
270,270,0.306174742817119,0.3,0.0,0.0,305.0,808.0,0.0,1,357.0,1
271,271,0.30348306533840297,0.3,0.0,0.0,327.0,847.0,0.0,1,586.0,1
272,272,-0.2857117176677808,-0.3,1.0,0.0,308.0,849.0,0.0,0,653.0,1
273,273,0.0019064947035619673,0.0,1.0,1.0,376.0,793.0,0.0,0,951.0,0
274,274,0.7489575551740012,0.7,1.0,1.0,307.0,540.0,1.0,1,843.0,1
275,275,-0.5825325119839089,-0.6,0.0,1.0,421.0,785.0,1.0,0,374.0,1
276,276,-0.18425063036332012,-0.2,1.0,0.0,338.0,619.0,0.0,0,473.0,1
277,277,0.536600330798425,0.5,1.0,1.0,281.0,773.0,1.0,1,406.0,1
278,278,0.10824104067075291,0.1,1.0,1.0,396.0,862.0,1.0,1,672.0,1
279,279,-0.2964584456332976,-0.3,0.0,1.0,303.0,671.0,1.0,0,806.0,1
280,280,0.5794887611289022,0.6,1.0,1.0,259.0,591.0,1.0,1,560.0,1
281,281,-0.3307929473742599,-0.3,0.0,1.0,416.0,859.0,0.0,1,155.0,0
282,282,0.12275674011248239,0.1,1.0,1.0,415.0,956.0,0.0,0,269.0,0
283,283,0.1195456472755948,0.1,0.0,0.0,268.0,715.0,0.0,1,207.0,1
284,284,0.3582971177353561,0.4,1.0,1.0,283.0,733.0,1.0,1,1064.0,1
285,285,0.33557255378961626,0.3,1.0,1.0,262.0,778.0,1.0,1,550.0,1
286,286,0.32454671618000697,0.3,0.0,0.0,368.0,798.0,0.0,1,184.0,1
287,287,0.38458825257254736,0.4,1.0,1.0,295.0,804.0,0.0,0,371.0,0
288,288,-0.20531512206503,-0.2,0.0,1.0,340.0,635.0,0.0,1,255.0,0
289,289,-0.20784168248646406,-0.2,1.0,0.0,375.0,902.0,0.0,0,1573.0,1
290,290,0.528861573053515,0.5,0.0,0.0,307.0,963.0,0.0,1,70.0,1
291,291,0.011317036202939668,0.0,1.0,1.0,406.0,884.0,0.0,0,370.0,0
292,292,0.8760381750260656,0.9,0.0,0.0,360.0,907.0,0.0,1,83.0,1
293,293,0.44747559880743737,0.4,0.0,0.0,345.0,950.0,0.0,1,-95.0,1
294,294,0.26679744314228426,0.3,1.0,1.0,483.0,625.0,1.0,1,742.0,1
295,295,0.44950466583694626,0.4,0.0,0.0,483.0,678.0,0.0,1,449.0,1
296,296,0.37737561770415906,0.4,1.0,1.0,455.0,550.0,1.0,1,415.0,1
297,297,0.1881582188089671,0.2,1.0,1.0,277.0,924.0,0.0,0,129.0,0
298,298,-0.1760750213108121,-0.2,1.0,0.0,277.0,546.0,0.0,0,417.0,1
299,299,0.17209152045447362,0.2,0.0,0.0,351.0,984.0,0.0,1,195.0,1
300,300,0.4681225935085328,0.5,0.0,0.0,365.0,903.0,0.0,1,172.0,1
301,301,-0.8662387352057311,-0.9,1.0,0.0,293.0,706.0,0.0,0,341.0,1
302,302,-0.6972616358780481,-0.7,1.0,0.0,338.0,568.0,0.0,0,604.0,1
303,303,-0.6337263351199454,-0.6,0.0,1.0,354.0,577.0,0.0,1,1369.0,0
304,304,0.06167724522063578,0.1,1.0,1.0,345.0,969.0,1.0,1,306.0,1
305,305,0.46621239678708226,0.5,0.0,0.0,472.0,920.0,0.0,1,-92.0,1
306,306,0.08447469497952098,0.1,1.0,1.0,336.0,936.0,0.0,0,868.0,0
307,307,-0.5036106684114727,-0.5,1.0,0.0,437.0,580.0,0.0,0,743.0,1
308,308,0.28779719774451495,0.3,0.0,0.0,434.0,918.0,0.0,1,408.0,1
309,309,0.32264628919129457,0.3,0.0,0.0,433.0,975.0,0.0,1,792.0,1
310,310,-0.5661082436918158,-0.6,0.0,1.0,490.0,680.0,1.0,0,1790.0,1
311,311,-0.761458346992896,-0.8,1.0,0.0,301.0,514.0,0.0,0,515.0,1
312,312,0.10181835220565982,0.1,0.0,0.0,446.0,904.0,0.0,1,260.0,1
313,313,-0.7290551798192003,-0.7,0.0,1.0,359.0,847.0,1.0,0,274.0,1
314,314,-0.49499068802927854,-0.5,1.0,0.0,425.0,929.0,0.0,0,96.0,1
315,315,-0.8953894474532854,-0.9,1.0,0.0,356.0,984.0,1.0,1,10.0,0
316,316,0.2998535979369953,0.3,1.0,1.0,282.0,993.0,0.0,0,185.0,0
317,317,-0.3038851299966544,-0.3,0.0,1.0,444.0,721.0,0.0,1,755.0,0
318,318,0.25628517753296276,0.3,0.0,0.0,393.0,806.0,0.0,1,121.0,1
319,319,0.7333495471389125,0.7,0.0,0.0,375.0,936.0,0.0,1,169.0,1
320,320,0.051591160003961134,0.1,0.0,0.0,419.0,983.0,0.0,1,128.0,1
321,321,-0.12993096393714443,-0.1,1.0,0.0,487.0,899.0,0.0,0,-66.0,1
322,322,-0.657010894618899,-0.7,1.0,0.0,287.0,512.0,0.0,0,351.0,1
323,323,-0.10879294349294388,-0.1,1.0,0.0,327.0,998.0,0.0,0,575.0,1
324,324,0.6644140261227564,0.7,1.0,1.0,387.0,595.0,1.0,1,758.0,1
325,325,-0.8192153717580442,-0.8,1.0,0.0,481.0,907.0,0.0,0,2.0,1
326,326,0.8110307345442952,0.8,0.0,0.0,394.0,682.0,0.0,1,604.0,1
327,327,0.07850079315894776,0.1,1.0,1.0,469.0,599.0,0.0,0,362.0,0
328,328,0.4937997816689076,0.5,1.0,1.0,290.0,823.0,1.0,1,497.0,1
329,329,0.5264358270640633,0.5,0.0,0.0,369.0,565.0,0.0,1,536.0,1
330,330,0.10570167998939584,0.1,1.0,1.0,494.0,541.0,1.0,1,565.0,1
331,331,0.5675800374179073,0.6,0.0,0.0,420.0,961.0,0.0,1,289.0,1
332,332,-0.5869691691219063,-0.6,1.0,0.0,285.0,532.0,0.0,0,573.0,1
333,333,0.788459319469892,0.8,1.0,1.0,337.0,620.0,1.0,1,503.0,1
334,334,-0.37824265780559874,-0.4,0.0,1.0,442.0,711.0,0.0,1,497.0,0
335,335,0.24109441827728995,0.2,0.0,0.0,475.0,811.0,0.0,1,514.0,1
336,336,-0.29888496968489975,-0.3,0.0,1.0,355.0,879.0,1.0,0,526.0,1
337,337,-0.7704033874035463,-0.8,0.0,1.0,392.0,748.0,1.0,0,310.0,1
338,338,0.6179723214468745,0.6,1.0,1.0,485.0,508.0,1.0,1,567.0,1
339,339,-0.4482242990195899,-0.4,0.0,1.0,442.0,532.0,1.0,0,936.0,1
340,340,-0.36600698214526217,-0.4,1.0,0.0,318.0,557.0,0.0,0,405.0,1
341,341,-0.7250267380056825,-0.7,0.0,1.0,356.0,760.0,1.0,0,474.0,1
342,342,-0.079627610625983,-0.1,0.0,1.0,431.0,959.0,0.0,1,430.0,0
343,343,0.24374915728995583,0.2,0.0,0.0,299.0,931.0,0.0,1,30.0,1
344,344,-0.6959220981937827,-0.7,0.0,1.0,310.0,623.0,1.0,0,397.0,1
345,345,0.47683860266144895,0.5,1.0,1.0,368.0,947.0,1.0,1,105.0,1
346,346,0.848540473076728,0.8,1.0,1.0,402.0,743.0,1.0,1,305.0,1
347,347,-0.061902325431706484,-0.1,0.0,1.0,348.0,653.0,1.0,0,389.0,1
348,348,-0.5600142428396582,-0.6,0.0,1.0,413.0,944.0,1.0,0,163.0,1
349,349,0.4215785002706053,0.4,0.0,0.0,289.0,929.0,0.0,1,472.0,1
350,350,0.71340197412334,0.7,0.0,0.0,385.0,754.0,0.0,1,511.0,1
351,351,-0.5678069480908616,-0.6,1.0,0.0,271.0,816.0,0.0,0,373.0,1
352,352,-0.13634925660832153,-0.1,0.0,1.0,451.0,657.0,1.0,0,522.0,1
353,353,0.848268740889761,0.8,0.0,0.0,447.0,927.0,0.0,1,376.0,1
354,354,0.7849811650143906,0.8,0.0,0.0,269.0,816.0,0.0,1,155.0,1
355,355,0.4450262397650159,0.4,0.0,0.0,409.0,941.0,0.0,1,770.0,1
356,356,-0.05982273169732011,-0.1,1.0,0.0,422.0,502.0,0.0,0,606.0,1
357,357,0.516095712505218,0.5,0.0,0.0,470.0,969.0,0.0,1,691.0,1
358,358,0.5975988570106631,0.6,0.0,0.0,324.0,789.0,0.0,1,117.0,1
359,359,-0.33323080506919356,-0.3,0.0,1.0,285.0,671.0,1.0,0,964.0,1
360,360,-0.5796197834903805,-0.6,1.0,0.0,466.0,565.0,0.0,0,429.0,1
361,361,0.6588127281642994,0.7,1.0,1.0,430.0,507.0,1.0,1,703.0,1
362,362,0.5438971274800625,0.5,1.0,1.0,347.0,592.0,1.0,1,631.0,1
363,363,0.7737569453830614,0.8,1.0,1.0,330.0,524.0,1.0,1,546.0,1
364,364,-0.08537939431119068,-0.1,0.0,1.0,476.0,611.0,0.0,1,2453.0,0
365,365,-0.4501294312531772,-0.5,1.0,0.0,254.0,640.0,0.0,0,336.0,1
366,366,-0.7707097474331811,-0.8,1.0,0.0,453.0,513.0,0.0,0,464.0,1
367,367,-0.7214041590755373,-0.7,1.0,0.0,374.0,609.0,0.0,0,327.0,1
368,368,-0.7907061590523727,-0.8,1.0,0.0,471.0,656.0,0.0,0,513.0,1
369,369,0.6168290243722939,0.6,1.0,1.0,418.0,926.0,1.0,1,326.0,1
370,370,0.7053647072346921,0.7,0.0,0.0,359.0,837.0,0.0,1,564.0,1
371,371,-0.4798715594978055,-0.5,0.0,1.0,432.0,654.0,1.0,0,344.0,1
372,372,0.4047064950266327,0.4,0.0,0.0,369.0,610.0,0.0,1,401.0,1
373,373,0.11157932110176627,0.1,0.0,0.0,453.0,504.0,0.0,1,683.0,1
374,374,-0.4965966080609561,-0.5,0.0,1.0,469.0,947.0,0.0,1,-26.0,0
375,375,-0.02644843820191034,-0.0,1.0,0.0,399.0,858.0,0.0,0,73.0,1
376,376,-0.22261631612149213,-0.2,0.0,1.0,406.0,587.0,1.0,0,547.0,1
377,377,0.29900952621798693,0.3,1.0,1.0,469.0,647.0,0.0,0,964.0,0
378,378,0.8244343442663337,0.8,1.0,1.0,380.0,910.0,1.0,1,400.0,1
379,379,0.6507418041081602,0.7,0.0,0.0,341.0,982.0,0.0,1,187.0,1
380,380,0.8422652354738477,0.8,1.0,1.0,402.0,839.0,0.0,0,29.0,0
381,381,-0.8482262099511203,-0.8,0.0,1.0,488.0,615.0,1.0,0,627.0,1
382,382,-0.08418515860274867,-0.1,0.0,1.0,453.0,539.0,1.0,0,798.0,1
383,383,-0.31523514811412257,-0.3,0.0,1.0,342.0,500.0,1.0,0,518.0,1
384,384,-0.2487578729936507,-0.2,0.0,1.0,284.0,600.0,1.0,0,796.0,1
385,385,0.04123474724342491,0.0,0.0,0.0,413.0,973.0,0.0,1,54.0,1
386,386,-0.4800945525436088,-0.5,0.0,1.0,438.0,776.0,1.0,0,1086.0,1
387,387,0.5228676765917496,0.5,0.0,0.0,419.0,848.0,0.0,1,463.0,1
388,388,0.16953677686371138,0.2,1.0,1.0,476.0,512.0,0.0,0,1132.0,0
389,389,0.6394388414941853,0.6,0.0,0.0,397.0,913.0,0.0,1,280.0,1
390,390,-0.6816781946157761,-0.7,0.0,1.0,366.0,887.0,1.0,0,567.0,1
391,391,0.6540998268975645,0.7,0.0,0.0,406.0,654.0,0.0,1,520.0,1
392,392,-0.15824108630323186,-0.2,1.0,0.0,367.0,837.0,0.0,0,-14.0,1
393,393,-0.043518733582220914,-0.0,1.0,0.0,337.0,838.0,0.0,0,75.0,1
394,394,0.3202336782492142,0.3,0.0,0.0,445.0,783.0,0.0,1,312.0,1
395,395,-0.8834221735384797,-0.9,0.0,1.0,391.0,940.0,1.0,0,159.0,1
396,396,0.6269733155425555,0.6,1.0,1.0,436.0,785.0,1.0,1,469.0,1
397,397,-0.025615898450604302,-0.0,0.0,1.0,494.0,874.0,0.0,1,212.0,0
398,398,0.2271723755948013,0.2,0.0,0.0,441.0,869.0,1.0,0,150.0,0
399,399,0.2319617687112564,0.2,1.0,1.0,257.0,517.0,1.0,1,716.0,1
400,400,0.6023168010340535,0.6,1.0,1.0,370.0,613.0,1.0,1,547.0,1
401,401,-0.449169624750125,-0.4,0.0,1.0,274.0,801.0,1.0,0,685.0,1
402,402,0.15255768746600495,0.2,0.0,0.0,495.0,765.0,0.0,1,410.0,1
403,403,0.6394944724773833,0.6,0.0,0.0,275.0,996.0,0.0,1,489.0,1
404,404,-0.18557826881388884,-0.2,0.0,1.0,403.0,616.0,0.0,1,21.0,0
405,405,0.6773878405539914,0.7,0.0,0.0,468.0,717.0,0.0,1,175.0,1
406,406,0.04145789278666179,0.0,1.0,1.0,309.0,744.0,0.0,0,667.0,0
407,407,0.7678775707466142,0.8,1.0,1.0,352.0,793.0,1.0,1,325.0,1
408,408,0.8580187677809091,0.9,1.0,1.0,256.0,527.0,1.0,1,717.0,1
409,409,0.3901138573312056,0.4,1.0,1.0,312.0,934.0,1.0,1,1134.0,1
410,410,-0.8658599340370416,-0.9,0.0,1.0,461.0,835.0,1.0,0,574.0,1
411,411,0.661887646898958,0.7,0.0,0.0,340.0,986.0,1.0,0,-116.0,0
412,412,0.2148055005796724,0.2,1.0,1.0,315.0,580.0,1.0,1,1435.0,1
413,413,-0.569917269243424,-0.6,1.0,0.0,396.0,704.0,0.0,0,430.0,1
414,414,0.42990363323523584,0.4,1.0,1.0,479.0,929.0,1.0,1,432.0,1
415,415,0.016509302745179144,0.0,0.0,0.0,304.0,917.0,1.0,0,409.0,0
416,416,-0.27307175874195866,-0.3,1.0,0.0,391.0,525.0,0.0,0,694.0,1
417,417,0.054304030605316744,0.1,1.0,1.0,466.0,710.0,1.0,1,834.0,1
418,418,0.8834566301833423,0.9,1.0,1.0,465.0,607.0,1.0,1,668.0,1
419,419,0.3070442202669966,0.3,0.0,0.0,263.0,584.0,0.0,1,393.0,1
420,420,-0.04301960316529474,-0.0,0.0,1.0,498.0,990.0,0.0,1,502.0,0
421,421,0.8785920401963362,0.9,0.0,0.0,406.0,769.0,0.0,1,255.0,1
422,422,0.6779157310850507,0.7,0.0,0.0,412.0,834.0,0.0,1,814.0,1
423,423,-0.133389071757127,-0.1,0.0,1.0,427.0,657.0,0.0,1,766.0,0
424,424,-0.45273996893431473,-0.5,1.0,0.0,390.0,675.0,0.0,0,695.0,1
425,425,-0.2228752170706767,-0.2,1.0,0.0,411.0,779.0,0.0,0,1060.0,1
426,426,-0.7095876929202122,-0.7,0.0,1.0,424.0,970.0,1.0,0,296.0,1
427,427,-0.713323377366215,-0.7,1.0,0.0,385.0,817.0,0.0,0,338.0,1
428,428,0.8261877849092986,0.8,0.0,0.0,291.0,815.0,0.0,1,394.0,1
429,429,0.89541829481048,0.9,1.0,1.0,315.0,949.0,1.0,1,376.0,1
430,430,-0.2313701164027362,-0.2,1.0,0.0,460.0,784.0,0.0,0,236.0,1
431,431,0.4277197577971056,0.4,0.0,0.0,256.0,614.0,1.0,0,480.0,0
432,432,0.6839810827432308,0.7,0.0,0.0,429.0,929.0,0.0,1,502.0,1
433,433,0.1532025158578737,0.2,1.0,1.0,380.0,645.0,0.0,0,615.0,0
434,434,-0.05114366621606026,-0.1,1.0,0.0,423.0,881.0,0.0,0,716.0,1
435,435,-0.7599955919474551,-0.8,0.0,1.0,398.0,819.0,1.0,0,3.0,1
436,436,0.3429300984164113,0.3,1.0,1.0,333.0,905.0,1.0,1,1902.0,1
437,437,0.6093719092471165,0.6,0.0,0.0,443.0,806.0,0.0,1,201.0,1
438,438,0.3278750662048334,0.3,0.0,0.0,368.0,940.0,0.0,1,-38.0,1
439,439,-0.2560778497287671,-0.3,0.0,1.0,437.0,650.0,0.0,1,383.0,0
440,440,-0.4243599273640409,-0.4,0.0,1.0,270.0,839.0,1.0,0,831.0,1
441,441,0.25949231500404524,0.3,1.0,1.0,401.0,801.0,1.0,1,848.0,1
442,442,-0.2205332672609227,-0.2,0.0,1.0,273.0,687.0,0.0,1,170.0,0
443,443,0.3969825507242487,0.4,0.0,0.0,345.0,580.0,0.0,1,455.0,1
444,444,-0.03057510169283184,-0.0,0.0,1.0,256.0,877.0,1.0,0,267.0,1
445,445,0.8420951891816596,0.8,1.0,1.0,305.0,751.0,1.0,1,464.0,1
446,446,0.18754860369869097,0.2,1.0,1.0,375.0,678.0,0.0,0,1027.0,0
447,447,0.6773568284882096,0.7,1.0,1.0,264.0,513.0,1.0,1,713.0,1
448,448,0.16737041895685534,0.2,1.0,1.0,345.0,545.0,1.0,1,560.0,1
449,449,-0.6574717799519839,-0.7,0.0,1.0,319.0,865.0,0.0,1,-44.0,0
450,450,0.44403628548561647,0.4,1.0,1.0,292.0,737.0,1.0,1,371.0,1
451,451,0.4832553883247285,0.5,1.0,1.0,448.0,929.0,1.0,1,533.0,1
452,452,0.069066710529881,0.1,1.0,1.0,411.0,737.0,1.0,1,232.0,1
453,453,0.7301120619332649,0.7,1.0,1.0,387.0,939.0,1.0,1,194.0,1
454,454,-0.8582831155527365,-0.9,1.0,0.0,358.0,590.0,0.0,0,692.0,1
455,455,0.7549286217648153,0.8,1.0,1.0,259.0,839.0,1.0,1,292.0,1
456,456,0.7175479638768384,0.7,0.0,0.0,466.0,994.0,0.0,1,360.0,1
457,457,0.8355961307869294,0.8,1.0,1.0,439.0,945.0,1.0,1,576.0,1
458,458,-0.2744758262077036,-0.3,1.0,0.0,419.0,903.0,0.0,0,-52.0,1
459,459,0.7421800731710594,0.7,1.0,1.0,255.0,635.0,1.0,1,340.0,1
460,460,0.08347790161990587,0.1,1.0,1.0,274.0,555.0,0.0,0,1571.0,0
461,461,0.16430333566557265,0.2,0.0,0.0,387.0,925.0,0.0,1,378.0,1
462,462,0.3208606339980332,0.3,1.0,1.0,437.0,541.0,1.0,1,1022.0,1
463,463,-0.5610763817420774,-0.6,1.0,0.0,395.0,758.0,0.0,0,277.0,1
464,464,-0.2199240981685444,-0.2,1.0,0.0,286.0,975.0,0.0,0,169.0,1
465,465,-0.3398477575754264,-0.3,1.0,0.0,256.0,943.0,0.0,0,1011.0,1
466,466,0.44632375716416994,0.4,1.0,1.0,301.0,709.0,1.0,1,930.0,1
467,467,0.7315045617614754,0.7,0.0,0.0,484.0,612.0,0.0,1,454.0,1
468,468,-0.6742304864014367,-0.7,1.0,0.0,429.0,657.0,0.0,0,684.0,1
469,469,-0.7379360628499041,-0.7,0.0,1.0,312.0,858.0,0.0,1,180.0,0
470,470,0.25544071144521563,0.3,1.0,1.0,253.0,755.0,0.0,0,902.0,0
471,471,-0.47552739443095526,-0.5,0.0,1.0,308.0,682.0,1.0,0,920.0,1
472,472,0.6186520173752711,0.6,0.0,0.0,329.0,964.0,0.0,1,167.0,1
473,473,0.11103061775918899,0.1,1.0,1.0,401.0,940.0,0.0,0,209.0,0
474,474,-0.7941648193387367,-0.8,0.0,1.0,442.0,880.0,1.0,0,578.0,1
475,475,0.32500358067501767,0.3,0.0,0.0,461.0,522.0,0.0,1,727.0,1
476,476,-0.05615878438770061,-0.1,1.0,0.0,348.0,821.0,0.0,0,461.0,1
477,477,0.07440679800526595,0.1,1.0,1.0,252.0,881.0,1.0,1,277.0,1
478,478,0.3511496917578737,0.4,1.0,1.0,458.0,885.0,0.0,0,337.0,0
479,479,0.8526549254089147,0.9,0.0,0.0,344.0,575.0,0.0,1,331.0,1
480,480,0.7807827006277842,0.8,1.0,1.0,314.0,858.0,1.0,1,318.0,1
481,481,0.8868822471068715,0.9,1.0,1.0,279.0,503.0,1.0,1,488.0,1
482,482,-0.5206932912752078,-0.5,0.0,1.0,371.0,537.0,1.0,0,672.0,1
483,483,0.1326900515354178,0.1,0.0,0.0,257.0,833.0,0.0,1,670.0,1
484,484,-0.13787650898029424,-0.1,1.0,0.0,474.0,935.0,0.0,0,561.0,1
485,485,0.4358878082548475,0.4,0.0,0.0,265.0,808.0,0.0,1,217.0,1
486,486,-0.01902999912179426,-0.0,1.0,0.0,469.0,652.0,0.0,0,319.0,1
487,487,0.46035838902682447,0.5,0.0,0.0,422.0,567.0,0.0,1,811.0,1
488,488,-0.2532005744215049,-0.3,0.0,1.0,449.0,781.0,0.0,1,550.0,0
489,489,0.6294081244838704,0.6,1.0,1.0,366.0,887.0,0.0,0,17.0,0
490,490,0.32361194016792594,0.3,1.0,1.0,362.0,860.0,1.0,1,578.0,1
491,491,0.3522402920497253,0.4,1.0,1.0,440.0,621.0,0.0,0,439.0,0
492,492,-0.07117791261571682,-0.1,1.0,0.0,476.0,848.0,0.0,0,196.0,1
493,493,-0.24701988356204052,-0.2,1.0,0.0,371.0,990.0,0.0,0,199.0,1
494,494,0.7568992418608392,0.8,0.0,0.0,264.0,615.0,0.0,1,311.0,1
495,495,0.2619189156296925,0.3,1.0,1.0,483.0,905.0,0.0,0,202.0,0
496,496,-0.2996431781924793,-0.3,0.0,1.0,382.0,812.0,1.0,0,616.0,1
497,497,0.6116887269416619,0.6,1.0,1.0,272.0,941.0,1.0,1,577.0,1
498,498,-0.38002245403969426,-0.4,1.0,0.0,255.0,835.0,0.0,0,800.0,1
499,499,-0.8573920302221975,-0.9,0.0,1.0,492.0,796.0,1.0,0,222.0,1
500,500,-0.7527254528154179,-0.8,1.0,0.0,459.0,675.0,0.0,0,346.0,1
501,501,-0.14746286113052653,-0.1,0.0,1.0,449.0,730.0,0.0,1,1121.0,0
502,502,-0.7932852130815288,-0.8,0.0,1.0,300.0,534.0,1.0,0,356.0,1
503,503,0.28405170922473977,0.3,1.0,1.0,433.0,810.0,0.0,0,1997.0,0
504,504,0.018090514441097105,0.0,1.0,1.0,353.0,530.0,0.0,0,707.0,0
505,505,-0.46479367117316106,-0.5,0.0,1.0,454.0,619.0,1.0,0,437.0,1
506,506,-0.65449725404037,-0.7,1.0,0.0,252.0,938.0,0.0,0,150.0,1
507,507,0.47392558180277733,0.5,0.0,0.0,369.0,685.0,0.0,1,1066.0,1
508,508,-0.3571186670496024,-0.4,1.0,0.0,479.0,800.0,0.0,0,441.0,1
509,509,0.42393542369847614,0.4,0.0,0.0,460.0,964.0,1.0,0,-134.0,0
510,510,-0.811481291400413,-0.8,0.0,1.0,374.0,938.0,1.0,0,208.0,1
511,511,0.6166259479924295,0.6,0.0,0.0,366.0,613.0,0.0,1,301.0,1
512,512,-0.07801820757065059,-0.1,1.0,0.0,301.0,642.0,0.0,0,287.0,1
513,513,0.11450931190279767,0.1,0.0,0.0,491.0,725.0,0.0,1,854.0,1
514,514,-0.39199632454409494,-0.4,0.0,1.0,354.0,731.0,1.0,0,715.0,1
515,515,-0.7987922639387617,-0.8,0.0,1.0,493.0,905.0,1.0,0,1072.0,1
516,516,-0.3425857800888974,-0.3,0.0,1.0,396.0,627.0,1.0,0,597.0,1
517,517,-0.056942774788803274,-0.1,0.0,1.0,497.0,700.0,0.0,1,1153.0,0
518,518,0.4749006567255071,0.5,1.0,1.0,373.0,838.0,0.0,0,599.0,0
519,519,-0.8875117054906027,-0.9,0.0,1.0,302.0,994.0,1.0,0,624.0,1
520,520,0.5895010997122937,0.6,0.0,0.0,259.0,555.0,0.0,1,416.0,1
521,521,0.4117038561048557,0.4,1.0,1.0,357.0,645.0,1.0,1,248.0,1
522,522,0.33637635534260435,0.3,1.0,1.0,259.0,942.0,1.0,1,2019.0,1
523,523,-0.6010453935780125,-0.6,0.0,1.0,274.0,923.0,1.0,0,303.0,1
524,524,-0.5200028112178956,-0.5,0.0,1.0,279.0,660.0,1.0,0,621.0,1
525,525,-0.26052577047641723,-0.3,0.0,1.0,379.0,754.0,1.0,0,557.0,1
526,526,0.24259047149658108,0.2,0.0,0.0,458.0,574.0,0.0,1,408.0,1
527,527,0.6318029713294225,0.6,1.0,1.0,476.0,872.0,1.0,1,142.0,1
528,528,0.20279155771905766,0.2,1.0,1.0,278.0,598.0,0.0,0,244.0,0
529,529,0.32901877648367217,0.3,1.0,1.0,273.0,519.0,0.0,0,1628.0,0
530,530,0.7952743317279506,0.8,0.0,0.0,290.0,579.0,0.0,1,441.0,1
531,531,-0.6623810525348311,-0.7,0.0,1.0,341.0,817.0,1.0,0,262.0,1
532,532,-0.3663607570126558,-0.4,0.0,1.0,433.0,844.0,1.0,0,1413.0,1
533,533,-0.244832684797605,-0.2,0.0,1.0,373.0,635.0,0.0,1,552.0,0
534,534,0.18072030004394402,0.2,0.0,0.0,404.0,714.0,1.0,0,1002.0,0
535,535,-0.7549753933846068,-0.8,0.0,1.0,323.0,918.0,1.0,0,169.0,1
536,536,0.8136497172268177,0.8,1.0,1.0,448.0,524.0,1.0,1,418.0,1
537,537,0.4092926422745561,0.4,1.0,1.0,376.0,854.0,1.0,1,440.0,1
538,538,-0.7826070116185359,-0.8,1.0,0.0,383.0,790.0,0.0,0,447.0,1
539,539,0.7771594540010277,0.8,0.0,0.0,458.0,826.0,0.0,1,56.0,1
540,540,0.005096297931972749,0.0,1.0,1.0,315.0,624.0,0.0,0,781.0,0
541,541,0.7502724355880587,0.8,0.0,0.0,310.0,695.0,0.0,1,285.0,1
542,542,-0.26258065713541767,-0.3,0.0,1.0,290.0,922.0,1.0,0,198.0,1
543,543,-0.1609476350523925,-0.2,0.0,1.0,255.0,658.0,0.0,1,607.0,0
544,544,0.2336154759199246,0.2,0.0,0.0,270.0,551.0,0.0,1,1139.0,1
545,545,-0.3920032637189097,-0.4,0.0,1.0,329.0,990.0,1.0,0,351.0,1
546,546,0.058119634357767014,0.1,0.0,0.0,340.0,922.0,0.0,1,808.0,1
547,547,-0.5832820765268197,-0.6,0.0,1.0,320.0,835.0,1.0,0,205.0,1
548,548,-0.3795012144529296,-0.4,0.0,1.0,338.0,834.0,1.0,0,398.0,1
549,549,0.12173048712065981,0.1,0.0,0.0,299.0,618.0,0.0,1,423.0,1
550,550,0.27836447270319853,0.3,1.0,1.0,409.0,526.0,1.0,1,635.0,1
551,551,0.41405036004328155,0.4,0.0,0.0,435.0,693.0,0.0,1,252.0,1
552,552,-0.6528126743582702,-0.7,1.0,0.0,470.0,769.0,0.0,0,411.0,1
553,553,0.34313024036034745,0.3,1.0,1.0,351.0,684.0,0.0,0,195.0,0
554,554,-0.6368471721744355,-0.6,1.0,0.0,335.0,688.0,0.0,0,307.0,1
555,555,0.8507909083237443,0.9,1.0,1.0,377.0,940.0,1.0,1,73.0,1
556,556,-0.8694824707838819,-0.9,0.0,1.0,450.0,796.0,1.0,0,594.0,1
557,557,0.6101971502193854,0.6,1.0,1.0,499.0,847.0,1.0,1,604.0,1
558,558,-0.416691063260824,-0.4,1.0,0.0,263.0,628.0,0.0,0,289.0,1
559,559,0.7842685489509827,0.8,1.0,1.0,313.0,584.0,1.0,1,513.0,1
560,560,-0.19134206288346234,-0.2,0.0,1.0,428.0,657.0,0.0,1,1625.0,0
561,561,-0.7395288560616354,-0.7,1.0,0.0,273.0,668.0,0.0,0,559.0,1
562,562,-0.4140262790406739,-0.4,1.0,0.0,380.0,931.0,0.0,0,29.0,1
563,563,-0.2935970197239688,-0.3,1.0,0.0,488.0,705.0,0.0,0,677.0,1
564,564,-0.03527038331072996,-0.0,1.0,0.0,269.0,600.0,0.0,0,1251.0,1
565,565,0.5989758536647597,0.6,1.0,1.0,275.0,857.0,1.0,1,858.0,1
566,566,0.07163936307861662,0.1,1.0,1.0,331.0,673.0,0.0,0,296.0,0
567,567,-0.5429117223538886,-0.5,0.0,1.0,499.0,981.0,1.0,0,390.0,1
568,568,-0.4222419748735371,-0.4,0.0,1.0,276.0,886.0,1.0,0,1148.0,1
569,569,-0.11531061580707791,-0.1,0.0,1.0,437.0,582.0,0.0,1,741.0,0
570,570,-0.057304971467949994,-0.1,1.0,0.0,366.0,687.0,0.0,0,1117.0,1
571,571,0.04034702230501441,0.0,0.0,0.0,339.0,753.0,0.0,1,968.0,1
572,572,-0.8836315576967877,-0.9,0.0,1.0,290.0,910.0,1.0,0,580.0,1
573,573,-0.8607796988215105,-0.9,1.0,0.0,481.0,791.0,0.0,0,268.0,1
574,574,-0.6805855520961944,-0.7,1.0,0.0,266.0,636.0,0.0,0,398.0,1
575,575,-0.2181954189960862,-0.2,1.0,0.0,480.0,960.0,0.0,0,290.0,1
576,576,0.601528374757044,0.6,0.0,0.0,448.0,598.0,0.0,1,584.0,1
577,577,-0.8631065495742916,-0.9,1.0,0.0,347.0,584.0,0.0,0,369.0,1
578,578,-0.2783603115417167,-0.3,1.0,0.0,353.0,886.0,0.0,0,481.0,1
579,579,-0.5477144523139098,-0.5,0.0,1.0,384.0,598.0,1.0,0,498.0,1
580,580,-0.4040249175958353,-0.4,0.0,1.0,372.0,898.0,1.0,0,110.0,1
581,581,0.32845784491117,0.3,0.0,0.0,470.0,676.0,0.0,1,284.0,1
582,582,0.4871368862714308,0.5,0.0,0.0,373.0,538.0,0.0,1,269.0,1
583,583,0.5302006696802358,0.5,1.0,1.0,445.0,924.0,1.0,1,291.0,1
584,584,-0.36668547610936586,-0.4,1.0,0.0,447.0,577.0,0.0,0,536.0,1
585,585,0.20063545491120316,0.2,1.0,1.0,328.0,780.0,1.0,1,452.0,1
586,586,-0.7256198526266124,-0.7,1.0,0.0,256.0,701.0,0.0,0,303.0,1
587,587,0.05682625502052008,0.1,1.0,1.0,404.0,817.0,1.0,1,1859.0,1
588,588,0.47952342191617714,0.5,1.0,1.0,422.0,690.0,1.0,1,878.0,1
589,589,-0.7777053186468986,-0.8,1.0,0.0,345.0,506.0,0.0,0,379.0,1
590,590,-0.482727991728395,-0.5,1.0,0.0,259.0,924.0,0.0,0,247.0,1
591,591,-0.19944771763779423,-0.2,1.0,0.0,418.0,790.0,1.0,1,622.0,0
592,592,-0.30065926200003934,-0.3,1.0,0.0,264.0,765.0,0.0,0,121.0,1
593,593,-0.13108065687794745,-0.1,0.0,1.0,390.0,827.0,0.0,1,743.0,0
594,594,-0.05071944350104918,-0.1,0.0,1.0,476.0,625.0,1.0,0,719.0,1
595,595,0.1950466000017429,0.2,0.0,0.0,479.0,567.0,0.0,1,434.0,1
596,596,-0.6331571697333742,-0.6,1.0,0.0,407.0,725.0,0.0,0,278.0,1
597,597,0.7529752784378857,0.8,1.0,1.0,289.0,621.0,1.0,1,790.0,1
598,598,0.3702394053288419,0.4,0.0,0.0,494.0,845.0,0.0,1,421.0,1
599,599,0.4907910515966477,0.5,1.0,1.0,428.0,691.0,1.0,1,1021.0,1
600,600,0.04091030848223243,0.0,0.0,0.0,308.0,696.0,0.0,1,386.0,1
601,601,-0.601775113929848,-0.6,1.0,0.0,335.0,547.0,0.0,0,358.0,1
602,602,0.3654108407717799,0.4,1.0,1.0,381.0,698.0,1.0,1,391.0,1
603,603,0.8253697167450033,0.8,0.0,0.0,438.0,886.0,0.0,1,216.0,1
604,604,0.45650363091586155,0.5,0.0,0.0,342.0,652.0,0.0,1,426.0,1
605,605,-0.15663798480409585,-0.2,1.0,0.0,283.0,639.0,0.0,0,378.0,1
606,606,0.7489759660358216,0.7,0.0,0.0,452.0,560.0,0.0,1,428.0,1
607,607,0.8319900990937664,0.8,0.0,0.0,260.0,754.0,0.0,1,206.0,1
608,608,0.6664746483792868,0.7,1.0,1.0,308.0,727.0,1.0,1,505.0,1
609,609,-0.2145728057520725,-0.2,0.0,1.0,404.0,795.0,1.0,0,281.0,1
610,610,-0.2742093910862119,-0.3,1.0,0.0,375.0,783.0,0.0,0,402.0,1
611,611,-0.4296321369500967,-0.4,0.0,1.0,375.0,529.0,1.0,0,836.0,1
612,612,-0.3017621339789952,-0.3,0.0,1.0,294.0,685.0,1.0,0,711.0,1
613,613,-0.2737698680471363,-0.3,1.0,0.0,258.0,823.0,0.0,0,-101.0,1
614,614,-0.30330632400788693,-0.3,1.0,0.0,419.0,810.0,0.0,0,481.0,1
615,615,0.8701747892267725,0.9,0.0,0.0,280.0,515.0,0.0,1,615.0,1
616,616,-0.3826527520334324,-0.4,0.0,1.0,337.0,647.0,1.0,0,1296.0,1
617,617,-0.03750979642699104,-0.0,0.0,1.0,359.0,526.0,0.0,1,2725.0,0
618,618,0.10806805346988158,0.1,0.0,0.0,280.0,888.0,0.0,1,572.0,1
619,619,-0.6184197654554546,-0.6,1.0,0.0,294.0,858.0,0.0,0,58.0,1
620,620,0.007256329471154177,0.0,1.0,1.0,434.0,795.0,1.0,1,391.0,1
621,621,0.3194662690922646,0.3,0.0,0.0,461.0,825.0,0.0,1,124.0,1
622,622,-0.24017790177677611,-0.2,0.0,1.0,259.0,882.0,0.0,1,359.0,0
623,623,-0.5870610153520812,-0.6,1.0,0.0,364.0,800.0,0.0,0,396.0,1
624,624,-0.5733503917783781,-0.6,0.0,1.0,378.0,944.0,1.0,0,1338.0,1
625,625,-0.46170963194552866,-0.5,1.0,0.0,494.0,717.0,0.0,0,669.0,1
626,626,0.24328802424580498,0.2,1.0,1.0,371.0,581.0,0.0,0,558.0,0
627,627,0.6596271221378552,0.7,1.0,1.0,360.0,737.0,1.0,1,473.0,1
628,628,-0.36780874879314485,-0.4,0.0,1.0,365.0,584.0,1.0,0,981.0,1
629,629,0.15293633697962938,0.2,0.0,0.0,300.0,862.0,0.0,1,468.0,1
630,630,0.8625521901923668,0.9,0.0,0.0,363.0,719.0,0.0,1,418.0,1
631,631,0.11983666064685561,0.1,1.0,1.0,266.0,592.0,0.0,0,432.0,0
632,632,-0.056225198432072854,-0.1,1.0,0.0,359.0,663.0,0.0,0,888.0,1
633,633,0.8703794627368769,0.9,1.0,1.0,285.0,680.0,0.0,0,175.0,0
634,634,0.8211309466514366,0.8,1.0,1.0,443.0,562.0,1.0,1,1345.0,1
635,635,-0.29901290145449133,-0.3,0.0,1.0,251.0,786.0,1.0,0,1023.0,1
636,636,0.011023202531647569,0.0,1.0,1.0,431.0,621.0,0.0,0,188.0,0
637,637,-0.18116255873301645,-0.2,1.0,0.0,485.0,802.0,0.0,0,503.0,1
638,638,0.7502469462630711,0.8,1.0,1.0,355.0,592.0,1.0,1,423.0,1
639,639,-0.2712185036515843,-0.3,1.0,0.0,317.0,707.0,0.0,0,916.0,1
640,640,0.5381332177015677,0.5,1.0,1.0,318.0,736.0,1.0,1,406.0,1
641,641,0.360390577052247,0.4,0.0,0.0,380.0,874.0,0.0,1,156.0,1
642,642,0.5103094945336245,0.5,0.0,0.0,280.0,550.0,0.0,1,920.0,1
643,643,0.5726196336814969,0.6,0.0,0.0,437.0,835.0,0.0,1,68.0,1
644,644,-0.0310505238657649,-0.0,1.0,0.0,409.0,583.0,1.0,1,648.0,0
645,645,-0.5542333325783151,-0.6,1.0,0.0,341.0,653.0,0.0,0,586.0,1
646,646,0.635156746709625,0.6,0.0,0.0,441.0,669.0,0.0,1,390.0,1
647,647,0.007034023143105306,0.0,1.0,1.0,253.0,946.0,0.0,0,391.0,0
648,648,-0.5043952901745794,-0.5,1.0,0.0,396.0,503.0,0.0,0,371.0,1
649,649,-0.6965593120738489,-0.7,0.0,1.0,449.0,877.0,1.0,0,214.0,1
650,650,-0.16459199942614422,-0.2,0.0,1.0,370.0,636.0,1.0,0,644.0,1
651,651,0.7003824198311511,0.7,1.0,1.0,341.0,645.0,1.0,1,494.0,1
652,652,0.544427734393847,0.5,0.0,0.0,352.0,902.0,0.0,1,56.0,1
653,653,-0.383246236946704,-0.4,0.0,1.0,419.0,695.0,1.0,0,366.0,1
654,654,0.058059962994818304,0.1,1.0,1.0,396.0,784.0,1.0,1,330.0,1
655,655,0.19466237069611625,0.2,0.0,0.0,328.0,684.0,0.0,1,698.0,1
656,656,0.7689939434426151,0.8,0.0,0.0,352.0,623.0,0.0,1,355.0,1
657,657,-0.14629927660425068,-0.1,0.0,1.0,445.0,774.0,1.0,0,311.0,1
658,658,0.8292210801564867,0.8,0.0,0.0,258.0,539.0,0.0,1,633.0,1
659,659,-0.21292371998664195,-0.2,0.0,1.0,289.0,693.0,1.0,0,748.0,1
660,660,0.6283846925371456,0.6,0.0,0.0,440.0,983.0,0.0,1,617.0,1
661,661,-0.3674989774298354,-0.4,0.0,1.0,295.0,815.0,1.0,0,700.0,1
662,662,-0.0007723869495664948,-0.0,0.0,1.0,450.0,732.0,0.0,1,58.0,0
663,663,-0.3164716230321456,-0.3,0.0,1.0,424.0,633.0,1.0,0,663.0,1
664,664,0.8255850722072146,0.8,1.0,1.0,261.0,773.0,1.0,1,246.0,1
665,665,0.27854880817493,0.3,0.0,0.0,411.0,606.0,0.0,1,543.0,1
666,666,0.7551463772203101,0.8,0.0,0.0,351.0,850.0,0.0,1,549.0,1
667,667,-0.44799731654367597,-0.4,0.0,1.0,367.0,651.0,1.0,0,1752.0,1
668,668,-0.40328221230568795,-0.4,0.0,1.0,295.0,900.0,0.0,1,865.0,0
669,669,0.6557343713192775,0.7,0.0,0.0,409.0,740.0,0.0,1,161.0,1
670,670,0.534686140922744,0.5,0.0,0.0,463.0,539.0,0.0,1,428.0,1
671,671,0.593200580554541,0.6,0.0,0.0,447.0,972.0,0.0,1,101.0,1
672,672,0.4529537330645893,0.5,1.0,1.0,311.0,708.0,1.0,1,281.0,1
673,673,-0.20635775872561646,-0.2,0.0,1.0,422.0,886.0,1.0,0,522.0,1
674,674,0.27071286862121313,0.3,1.0,1.0,412.0,755.0,1.0,1,383.0,1
675,675,0.7333946056794464,0.7,0.0,0.0,371.0,980.0,0.0,1,-101.0,1
676,676,0.3801477270272665,0.4,0.0,0.0,327.0,726.0,0.0,1,267.0,1
677,677,-0.14111896530154533,-0.1,0.0,1.0,393.0,575.0,1.0,0,672.0,1
678,678,0.269571149908456,0.3,1.0,1.0,320.0,550.0,1.0,1,400.0,1
679,679,-0.13061052428755526,-0.1,0.0,1.0,335.0,750.0,0.0,1,665.0,0
680,680,0.4980916792170612,0.5,1.0,1.0,350.0,707.0,1.0,1,93.0,1
681,681,-0.6252526904487952,-0.6,0.0,1.0,337.0,932.0,1.0,0,351.0,1
682,682,0.5401878004107296,0.5,1.0,1.0,329.0,612.0,1.0,1,429.0,1
683,683,-0.042317050661072164,-0.0,0.0,1.0,344.0,859.0,0.0,1,237.0,0
684,684,-0.05163524799160435,-0.1,0.0,1.0,483.0,542.0,1.0,0,475.0,1
685,685,0.39783915470326703,0.4,0.0,0.0,453.0,741.0,0.0,1,206.0,1
686,686,-0.867818913218535,-0.9,0.0,1.0,294.0,904.0,1.0,0,452.0,1
687,687,0.006765869796935831,0.0,1.0,1.0,499.0,808.0,0.0,0,343.0,0
688,688,0.002870870226829192,0.0,1.0,1.0,321.0,822.0,0.0,0,7.0,0
689,689,0.3700187755075536,0.4,1.0,1.0,407.0,676.0,1.0,1,697.0,1
690,690,-0.3755031394615499,-0.4,0.0,1.0,494.0,600.0,1.0,0,326.0,1
691,691,0.7790376067059473,0.8,0.0,0.0,320.0,909.0,0.0,1,-9.0,1
692,692,0.44132836166410494,0.4,0.0,0.0,251.0,514.0,0.0,1,555.0,1
693,693,0.8465615355767265,0.8,0.0,0.0,404.0,891.0,0.0,1,145.0,1
694,694,0.13865326368436948,0.1,1.0,1.0,264.0,999.0,1.0,1,577.0,1
695,695,-0.5172124865797638,-0.5,0.0,1.0,360.0,754.0,0.0,1,426.0,0
696,696,-0.8012124485510382,-0.8,1.0,0.0,313.0,661.0,0.0,0,386.0,1
697,697,-0.3776216506896378,-0.4,1.0,0.0,410.0,603.0,0.0,0,647.0,1
698,698,-0.6712554958149564,-0.7,1.0,0.0,265.0,892.0,0.0,0,153.0,1
699,699,-0.11473422058996718,-0.1,0.0,1.0,297.0,803.0,1.0,0,450.0,1
700,700,-0.11489257318568236,-0.1,1.0,0.0,277.0,846.0,0.0,0,187.0,1
701,701,0.23008049138804265,0.2,0.0,0.0,320.0,636.0,0.0,1,854.0,1
702,702,0.33879234121057944,0.3,0.0,0.0,475.0,612.0,0.0,1,503.0,1
703,703,0.6595592576698778,0.7,0.0,0.0,487.0,767.0,0.0,1,456.0,1
704,704,0.3180621924092065,0.3,0.0,0.0,379.0,915.0,0.0,1,316.0,1
705,705,0.5609377370543948,0.6,0.0,0.0,356.0,977.0,0.0,1,217.0,1
706,706,0.5974548165469443,0.6,1.0,1.0,470.0,737.0,1.0,1,363.0,1
707,707,0.2635683336856697,0.3,1.0,1.0,377.0,530.0,1.0,1,793.0,1
708,708,0.504131356108341,0.5,0.0,0.0,453.0,541.0,0.0,1,306.0,1
709,709,0.4888481259542986,0.5,1.0,1.0,481.0,534.0,1.0,1,1095.0,1
710,710,-0.5477834731413143,-0.5,1.0,0.0,254.0,797.0,0.0,0,229.0,1
711,711,-0.36298478349945984,-0.4,1.0,0.0,255.0,534.0,0.0,0,941.0,1
712,712,-0.3681078646964365,-0.4,0.0,1.0,412.0,810.0,1.0,0,288.0,1
713,713,-0.7594421186722703,-0.8,0.0,1.0,376.0,595.0,1.0,0,359.0,1
714,714,0.4465140581090704,0.4,1.0,1.0,274.0,740.0,1.0,1,936.0,1
715,715,-0.0835197825189199,-0.1,1.0,0.0,498.0,622.0,0.0,0,580.0,1
716,716,-0.32003422660059655,-0.3,0.0,1.0,305.0,831.0,0.0,1,484.0,0
717,717,-0.6766660431985049,-0.7,0.0,1.0,357.0,859.0,1.0,0,284.0,1
718,718,0.15251233766011574,0.2,1.0,1.0,400.0,918.0,1.0,1,752.0,1
719,719,-0.41884807345311076,-0.4,1.0,0.0,258.0,752.0,0.0,0,300.0,1
720,720,0.43094936745975476,0.4,1.0,1.0,461.0,823.0,1.0,1,536.0,1
721,721,0.8661379678741529,0.9,0.0,0.0,448.0,836.0,0.0,1,356.0,1
722,722,-0.7389180910514085,-0.7,1.0,0.0,374.0,649.0,0.0,0,487.0,1
723,723,0.4640033997806098,0.5,1.0,1.0,424.0,776.0,0.0,0,170.0,0
724,724,0.3501187033952461,0.4,0.0,0.0,270.0,739.0,0.0,1,901.0,1
725,725,-0.8488457666727957,-0.8,1.0,0.0,310.0,916.0,0.0,0,384.0,1
726,726,0.4063052550356735,0.4,0.0,0.0,271.0,646.0,0.0,1,573.0,1
727,727,0.6663207721413144,0.7,0.0,0.0,369.0,950.0,0.0,1,481.0,1
728,728,0.4533445102754553,0.5,1.0,1.0,489.0,734.0,1.0,1,407.0,1
729,729,0.7221451847640242,0.7,0.0,0.0,379.0,919.0,0.0,1,622.0,1
730,730,-0.12400644356135504,-0.1,1.0,0.0,364.0,956.0,0.0,0,250.0,1
731,731,0.5343140549931221,0.5,1.0,1.0,421.0,799.0,1.0,1,670.0,1
732,732,-0.7199553598348065,-0.7,0.0,1.0,398.0,781.0,1.0,0,321.0,1
733,733,0.20225608223874703,0.2,0.0,0.0,366.0,870.0,0.0,1,84.0,1
734,734,-0.6699184798709085,-0.7,0.0,1.0,421.0,592.0,1.0,0,347.0,1
735,735,-0.14635441587083375,-0.1,0.0,1.0,426.0,638.0,1.0,0,766.0,1
736,736,0.3393001924044611,0.3,1.0,1.0,460.0,511.0,0.0,0,489.0,0
737,737,0.8235193399746835,0.8,1.0,1.0,252.0,577.0,1.0,1,481.0,1
738,738,0.8224197276389756,0.8,0.0,0.0,433.0,859.0,0.0,1,188.0,1
739,739,0.7450234808594912,0.7,0.0,0.0,354.0,712.0,0.0,1,564.0,1
740,740,0.867512562964614,0.9,1.0,1.0,450.0,569.0,1.0,1,401.0,1
741,741,-0.6734474617937989,-0.7,0.0,1.0,297.0,659.0,1.0,0,444.0,1
742,742,-0.01994168145835984,-0.0,0.0,1.0,276.0,556.0,0.0,1,1308.0,0
743,743,0.6774805194256527,0.7,1.0,1.0,284.0,555.0,1.0,1,501.0,1
744,744,-0.3625086145370796,-0.4,1.0,0.0,442.0,564.0,0.0,0,724.0,1
745,745,-0.18948427845079818,-0.2,0.0,1.0,293.0,940.0,1.0,0,-43.0,1
746,746,-0.09650541331218121,-0.1,1.0,0.0,365.0,652.0,0.0,0,403.0,1
747,747,-0.5184071848516317,-0.5,1.0,0.0,302.0,617.0,0.0,0,541.0,1
748,748,0.05678378758028224,0.1,1.0,1.0,306.0,923.0,1.0,1,361.0,1
749,749,0.6674857272887872,0.7,1.0,1.0,277.0,908.0,1.0,1,415.0,1
750,750,-0.8616424897266601,-0.9,0.0,1.0,290.0,933.0,1.0,0,227.0,1
751,751,-0.16609653463476903,-0.2,1.0,0.0,451.0,735.0,0.0,0,394.0,1
752,752,0.0755284936884767,0.1,1.0,1.0,437.0,639.0,1.0,1,474.0,1
753,753,0.5626715015750848,0.6,1.0,1.0,331.0,902.0,0.0,0,97.0,0
754,754,-0.17179943203701775,-0.2,1.0,0.0,310.0,925.0,0.0,0,285.0,1
755,755,-0.08745989535914367,-0.1,0.0,1.0,302.0,813.0,0.0,1,55.0,0
756,756,0.03158648806557485,0.0,0.0,0.0,290.0,682.0,0.0,1,688.0,1
757,757,0.5354158557486152,0.5,0.0,0.0,311.0,762.0,0.0,1,387.0,1
758,758,-0.8208536219627478,-0.8,1.0,0.0,268.0,832.0,0.0,0,520.0,1
759,759,-0.7116406275045829,-0.7,0.0,1.0,351.0,985.0,1.0,0,304.0,1
760,760,-0.050141630597964615,-0.1,1.0,0.0,323.0,964.0,0.0,0,443.0,1
761,761,-0.8899229464758087,-0.9,1.0,0.0,414.0,700.0,0.0,0,566.0,1
762,762,-0.6598672702153525,-0.7,1.0,0.0,297.0,900.0,0.0,0,133.0,1
763,763,0.252810210555667,0.3,0.0,0.0,313.0,937.0,0.0,1,1080.0,1
764,764,-0.5932443781601275,-0.6,0.0,1.0,446.0,790.0,1.0,0,504.0,1
765,765,-0.08622293093291211,-0.1,1.0,0.0,369.0,905.0,0.0,0,486.0,1
766,766,-0.7470873712928465,-0.7,1.0,0.0,367.0,671.0,0.0,0,482.0,1
767,767,-0.8434604892880779,-0.8,1.0,0.0,344.0,822.0,0.0,0,104.0,1
768,768,0.3399814090919321,0.3,1.0,1.0,257.0,935.0,1.0,1,1118.0,1
769,769,0.665284233758498,0.7,0.0,0.0,447.0,973.0,1.0,0,30.0,0
770,770,-0.277829695449882,-0.3,0.0,1.0,325.0,696.0,1.0,0,429.0,1
771,771,0.1618329042040335,0.2,1.0,1.0,370.0,882.0,0.0,0,58.0,0
772,772,0.5089423373167631,0.5,1.0,1.0,405.0,964.0,1.0,1,1211.0,1
773,773,-0.8486257109994033,-0.8,1.0,0.0,370.0,902.0,0.0,0,118.0,1
774,774,0.12957284525085433,0.1,0.0,0.0,327.0,589.0,0.0,1,1064.0,1
775,775,-0.2179550356890757,-0.2,0.0,1.0,257.0,807.0,0.0,1,666.0,0
776,776,-0.8103979324885683,-0.8,1.0,0.0,366.0,714.0,0.0,0,620.0,1
777,777,-0.774421955475962,-0.8,1.0,0.0,362.0,951.0,0.0,0,517.0,1
778,778,-0.796506710370843,-0.8,1.0,0.0,485.0,780.0,0.0,0,405.0,1
779,779,0.39164977106733645,0.4,1.0,1.0,288.0,682.0,1.0,1,390.0,1
780,780,-0.010092379668727225,-0.0,0.0,1.0,314.0,675.0,1.0,0,841.0,1
781,781,0.30558171676254375,0.3,1.0,1.0,332.0,683.0,1.0,1,735.0,1
782,782,-0.2514490708778184,-0.3,0.0,1.0,256.0,602.0,1.0,0,942.0,1
783,783,-0.7011796940664323,-0.7,0.0,1.0,444.0,707.0,1.0,0,779.0,1
784,784,0.14613366328742738,0.1,0.0,0.0,270.0,687.0,0.0,1,323.0,1
785,785,0.3364443176847617,0.3,1.0,1.0,429.0,973.0,1.0,1,498.0,1
786,786,-0.10975208327310582,-0.1,0.0,1.0,474.0,528.0,0.0,1,458.0,0
787,787,-0.7570606067237496,-0.8,0.0,1.0,304.0,628.0,1.0,0,478.0,1
788,788,0.4599123099917023,0.5,1.0,1.0,254.0,597.0,1.0,1,639.0,1
789,789,-0.03699715829703265,-0.0,0.0,1.0,335.0,811.0,0.0,1,174.0,0
790,790,0.7707472863387467,0.8,1.0,1.0,370.0,865.0,1.0,1,585.0,1
791,791,-0.6759176704810631,-0.7,1.0,0.0,390.0,687.0,0.0,0,273.0,1
792,792,0.04087151577128523,0.0,1.0,1.0,403.0,570.0,0.0,0,667.0,0
793,793,-0.05154711023010361,-0.1,1.0,0.0,352.0,580.0,0.0,0,418.0,1
794,794,0.22682823463327162,0.2,0.0,0.0,423.0,619.0,0.0,1,708.0,1
795,795,0.5198865381710706,0.5,1.0,1.0,463.0,943.0,0.0,0,894.0,0
796,796,0.726009972424802,0.7,1.0,1.0,287.0,792.0,1.0,1,451.0,1
797,797,-0.5249759351107135,-0.5,1.0,0.0,338.0,898.0,0.0,0,754.0,1
798,798,-0.5777461270664743,-0.6,0.0,1.0,307.0,816.0,0.0,1,847.0,0
799,799,0.7054848111807518,0.7,1.0,1.0,305.0,663.0,1.0,1,422.0,1
800,800,-0.7919248214747249,-0.8,1.0,0.0,468.0,873.0,0.0,0,529.0,1
801,801,-0.4318723583553755,-0.4,1.0,0.0,406.0,562.0,0.0,0,692.0,1
802,802,0.018710810508353548,0.0,1.0,1.0,461.0,894.0,0.0,0,475.0,0
803,803,0.2974620430139866,0.3,0.0,0.0,405.0,625.0,0.0,1,470.0,1
804,804,-0.18629477697778873,-0.2,0.0,1.0,449.0,663.0,1.0,0,788.0,1
805,805,0.4940574910216985,0.5,0.0,0.0,486.0,888.0,0.0,1,206.0,1
806,806,-0.6646736884656665,-0.7,0.0,1.0,353.0,770.0,1.0,0,437.0,1
807,807,0.054157793931743026,0.1,1.0,1.0,356.0,907.0,0.0,0,357.0,0
808,808,-0.7721115441451158,-0.8,0.0,1.0,359.0,989.0,0.0,1,-18.0,0
809,809,0.12272872113602895,0.1,1.0,1.0,468.0,736.0,1.0,1,416.0,1
810,810,-0.047459601857701816,-0.0,0.0,1.0,369.0,991.0,0.0,1,630.0,0
811,811,0.1562397090226152,0.2,1.0,1.0,275.0,818.0,1.0,1,607.0,1
812,812,-0.3025686152861662,-0.3,1.0,0.0,392.0,629.0,0.0,0,569.0,1
813,813,0.14318150177911992,0.1,0.0,0.0,454.0,562.0,0.0,1,464.0,1
814,814,0.4654525480944377,0.5,0.0,0.0,277.0,863.0,0.0,1,430.0,1
815,815,0.6205968241549965,0.6,0.0,0.0,472.0,932.0,1.0,0,276.0,0
816,816,0.5865673832119688,0.6,1.0,1.0,482.0,987.0,0.0,0,-39.0,0
817,817,-0.7270109967477834,-0.7,0.0,1.0,396.0,872.0,1.0,0,192.0,1
818,818,0.5049966614182068,0.5,0.0,0.0,363.0,941.0,0.0,1,316.0,1
819,819,-0.8058194795626843,-0.8,1.0,0.0,424.0,838.0,0.0,0,68.0,1
820,820,-0.10847958742656161,-0.1,1.0,0.0,438.0,905.0,0.0,0,-33.0,1
821,821,-0.05724426895807877,-0.1,0.0,1.0,495.0,833.0,1.0,0,22.0,1
822,822,-0.8166486507029195,-0.8,0.0,1.0,273.0,573.0,1.0,0,554.0,1
823,823,0.6699424864653126,0.7,0.0,0.0,428.0,855.0,0.0,1,227.0,1
824,824,0.20101452705311817,0.2,1.0,1.0,473.0,681.0,1.0,1,596.0,1
825,825,0.14849154304627288,0.1,0.0,0.0,454.0,887.0,0.0,1,319.0,1
826,826,-0.8294201879035982,-0.8,0.0,1.0,339.0,743.0,1.0,0,368.0,1
827,827,0.3841018064048042,0.4,1.0,1.0,477.0,846.0,1.0,1,157.0,1
828,828,-0.7758664781880851,-0.8,1.0,0.0,289.0,673.0,0.0,0,208.0,1
829,829,-0.39582367964984877,-0.4,1.0,0.0,313.0,974.0,0.0,0,423.0,1
830,830,-0.3919810768945,-0.4,0.0,1.0,452.0,970.0,1.0,0,108.0,1
831,831,-0.08749468908440516,-0.1,1.0,0.0,491.0,878.0,0.0,0,51.0,1
832,832,0.8402247342665349,0.8,0.0,0.0,320.0,640.0,0.0,1,480.0,1
833,833,-0.8302913374587023,-0.8,0.0,1.0,325.0,844.0,1.0,0,251.0,1
834,834,-0.023634426312511447,-0.0,0.0,1.0,270.0,770.0,0.0,1,880.0,0
835,835,0.4653698293619234,0.5,0.0,0.0,266.0,817.0,0.0,1,127.0,1
836,836,0.6064611897511466,0.6,0.0,0.0,492.0,804.0,0.0,1,344.0,1
837,837,0.07386801034557133,0.1,1.0,1.0,366.0,736.0,1.0,1,1388.0,1
838,838,0.1766852283914716,0.2,0.0,0.0,369.0,909.0,0.0,1,302.0,1
839,839,0.32497083847784636,0.3,0.0,0.0,383.0,988.0,0.0,1,69.0,1
840,840,0.09841666252135461,0.1,1.0,1.0,303.0,919.0,1.0,1,578.0,1
841,841,0.860718200200275,0.9,1.0,1.0,250.0,920.0,1.0,1,140.0,1
842,842,-0.5188713238770943,-0.5,0.0,1.0,308.0,768.0,1.0,0,434.0,1
843,843,0.5254242226644631,0.5,0.0,0.0,393.0,909.0,0.0,1,28.0,1
844,844,0.37117692184550843,0.4,0.0,0.0,469.0,683.0,0.0,1,558.0,1
845,845,0.3693415635336553,0.4,1.0,1.0,317.0,720.0,1.0,1,333.0,1
846,846,0.8451934390496586,0.8,0.0,0.0,311.0,900.0,0.0,1,299.0,1
847,847,0.041936869836710855,0.0,1.0,1.0,439.0,788.0,1.0,1,3773.0,1
848,848,0.4247103056266578,0.4,1.0,1.0,432.0,607.0,1.0,1,1111.0,1
849,849,0.8361114021315773,0.8,0.0,0.0,458.0,788.0,0.0,1,-16.0,1
850,850,0.23512024511725416,0.2,1.0,1.0,461.0,587.0,1.0,1,2492.0,1
851,851,-0.030364836263872652,-0.0,1.0,0.0,471.0,812.0,0.0,0,737.0,1
852,852,-0.3538743299661812,-0.4,0.0,1.0,419.0,695.0,1.0,0,636.0,1
853,853,0.1275750128925418,0.1,1.0,1.0,489.0,526.0,1.0,1,3985.0,1
854,854,-0.3967423235289397,-0.4,1.0,0.0,336.0,837.0,0.0,0,47.0,1
855,855,-0.7270581757959538,-0.7,0.0,1.0,281.0,624.0,1.0,0,475.0,1
856,856,0.1224187930449564,0.1,1.0,1.0,455.0,979.0,0.0,0,266.0,0
857,857,0.6287996441050353,0.6,0.0,0.0,288.0,860.0,0.0,1,272.0,1
858,858,-0.3308150790684933,-0.3,1.0,0.0,420.0,527.0,0.0,0,453.0,1
859,859,0.7464905191293248,0.7,1.0,1.0,357.0,943.0,1.0,1,620.0,1
860,860,0.8692384937871244,0.9,1.0,1.0,402.0,540.0,1.0,1,428.0,1
861,861,0.37412330559511575,0.4,1.0,1.0,415.0,858.0,0.0,0,327.0,0
862,862,-0.3965550723724848,-0.4,1.0,0.0,497.0,609.0,0.0,0,574.0,1
863,863,-0.05882700663583218,-0.1,1.0,0.0,454.0,522.0,1.0,1,904.0,0
864,864,-0.10697942713771524,-0.1,1.0,0.0,350.0,756.0,1.0,1,734.0,0
865,865,0.6178977533582489,0.6,0.0,0.0,445.0,661.0,0.0,1,364.0,1
866,866,0.2105377861678105,0.2,0.0,0.0,431.0,975.0,0.0,1,224.0,1
867,867,0.8610172888346811,0.9,1.0,1.0,484.0,881.0,1.0,1,285.0,1
868,868,-0.6701246041660596,-0.7,0.0,1.0,270.0,648.0,1.0,0,612.0,1
869,869,0.10405938003210047,0.1,0.0,0.0,399.0,762.0,0.0,1,329.0,1
870,870,0.12907282215684102,0.1,1.0,1.0,395.0,503.0,1.0,1,1092.0,1
871,871,0.4244076551326684,0.4,1.0,1.0,385.0,548.0,1.0,1,787.0,1
872,872,-0.4184471370236132,-0.4,1.0,0.0,416.0,769.0,0.0,0,125.0,1
873,873,0.4840783916831809,0.5,0.0,0.0,355.0,852.0,0.0,1,453.0,1
874,874,0.4858719238401913,0.5,0.0,0.0,284.0,912.0,0.0,1,294.0,1
875,875,0.39988605713457004,0.4,0.0,0.0,265.0,890.0,0.0,1,145.0,1
876,876,-0.5163920536902505,-0.5,1.0,0.0,272.0,568.0,0.0,0,470.0,1
877,877,-0.5395008294171402,-0.5,1.0,0.0,305.0,926.0,0.0,0,-101.0,1
878,878,-0.2879776133755698,-0.3,1.0,0.0,332.0,594.0,0.0,0,524.0,1
879,879,-0.6849509626414648,-0.7,0.0,1.0,348.0,918.0,1.0,0,694.0,1
880,880,-0.3638583943345882,-0.4,1.0,0.0,380.0,767.0,1.0,1,173.0,0
881,881,0.01380997618178259,0.0,0.0,0.0,330.0,721.0,0.0,1,2489.0,1
882,882,-0.6096189630181947,-0.6,0.0,1.0,354.0,629.0,1.0,0,767.0,1
883,883,-0.6479323510821378,-0.6,0.0,1.0,450.0,651.0,1.0,0,549.0,1
884,884,0.6030203436946694,0.6,0.0,0.0,315.0,572.0,0.0,1,253.0,1
885,885,-0.7110799581154678,-0.7,0.0,1.0,263.0,585.0,1.0,0,432.0,1
886,886,0.8959386363206664,0.9,0.0,0.0,281.0,951.0,0.0,1,38.0,1
887,887,0.4630000875452366,0.5,0.0,0.0,408.0,736.0,0.0,1,476.0,1
888,888,0.704263149890933,0.7,1.0,1.0,479.0,997.0,1.0,1,284.0,1
889,889,0.3890673088412707,0.4,1.0,1.0,436.0,584.0,1.0,1,800.0,1
890,890,0.04998480886000911,0.0,0.0,0.0,254.0,891.0,0.0,1,135.0,1
891,891,0.8589077811962936,0.9,1.0,1.0,282.0,688.0,1.0,1,420.0,1
892,892,-0.752613852724555,-0.8,0.0,1.0,425.0,857.0,1.0,0,218.0,1
893,893,0.40184073672618725,0.4,1.0,1.0,475.0,868.0,0.0,0,367.0,0
894,894,-0.6051241553863549,-0.6,1.0,0.0,363.0,878.0,0.0,0,179.0,1
895,895,-0.23175940675147122,-0.2,1.0,0.0,497.0,950.0,0.0,0,283.0,1
896,896,-0.6385111549101383,-0.6,1.0,0.0,324.0,853.0,0.0,0,443.0,1
897,897,0.04803353998706017,0.0,1.0,1.0,420.0,639.0,0.0,0,641.0,0
898,898,-0.6636983901654576,-0.7,0.0,1.0,334.0,520.0,1.0,0,426.0,1
899,899,-0.6031564879616163,-0.6,0.0,1.0,344.0,958.0,0.0,1,568.0,0
900,900,-0.5788228727366118,-0.6,0.0,1.0,402.0,640.0,1.0,0,378.0,1
901,901,0.830575658522747,0.8,0.0,0.0,373.0,906.0,0.0,1,21.0,1
902,902,-0.5708218160156013,-0.6,1.0,0.0,407.0,702.0,0.0,0,511.0,1
903,903,0.8191301330159572,0.8,0.0,0.0,459.0,646.0,0.0,1,435.0,1
904,904,-0.17291411156558145,-0.2,0.0,1.0,428.0,562.0,0.0,1,310.0,0
905,905,0.09794524951085937,0.1,1.0,1.0,275.0,970.0,1.0,1,595.0,1
906,906,-0.328418358220409,-0.3,1.0,0.0,486.0,873.0,0.0,0,21.0,1
907,907,0.3020372872842144,0.3,0.0,0.0,430.0,915.0,0.0,1,935.0,1
908,908,0.4485471410499734,0.4,0.0,0.0,456.0,723.0,0.0,1,541.0,1
909,909,0.8552169336030214,0.9,0.0,0.0,272.0,642.0,0.0,1,626.0,1
910,910,0.7534297275908753,0.8,0.0,0.0,408.0,747.0,0.0,1,105.0,1
911,911,0.2448713274564439,0.2,1.0,1.0,270.0,819.0,0.0,0,21.0,0
912,912,-0.31767258692036326,-0.3,1.0,0.0,492.0,723.0,0.0,0,815.0,1
913,913,0.5503340467163101,0.6,0.0,0.0,441.0,580.0,0.0,1,479.0,1
914,914,0.7984482485779317,0.8,1.0,1.0,273.0,909.0,1.0,1,108.0,1
915,915,0.286048736751389,0.3,0.0,0.0,362.0,694.0,0.0,1,824.0,1
916,916,0.5013548815599375,0.5,0.0,0.0,346.0,982.0,0.0,1,112.0,1
917,917,-0.8771589082657403,-0.9,1.0,0.0,415.0,721.0,0.0,0,74.0,1
918,918,0.03411168357382521,0.0,0.0,0.0,346.0,607.0,0.0,1,1217.0,1
919,919,-0.5190235640591496,-0.5,0.0,1.0,262.0,778.0,1.0,0,780.0,1
920,920,0.4166439343912133,0.4,1.0,1.0,343.0,841.0,1.0,1,816.0,1
921,921,0.8579245200595719,0.9,0.0,0.0,402.0,953.0,0.0,1,505.0,1
922,922,0.571607599374505,0.6,0.0,0.0,373.0,700.0,0.0,1,167.0,1
923,923,0.3017222672676442,0.3,0.0,0.0,416.0,701.0,0.0,1,653.0,1
924,924,0.037062394758278105,0.0,1.0,1.0,381.0,966.0,0.0,0,1723.0,0
925,925,0.6789168167439322,0.7,0.0,0.0,322.0,907.0,1.0,0,411.0,0
926,926,-0.2567041425806441,-0.3,1.0,0.0,445.0,633.0,0.0,0,482.0,1
927,927,0.41626617308550273,0.4,1.0,1.0,253.0,524.0,1.0,1,623.0,1
928,928,-0.5827292455876467,-0.6,0.0,1.0,481.0,615.0,1.0,0,1184.0,1
929,929,0.33655052383293504,0.3,0.0,0.0,452.0,908.0,1.0,0,-50.0,0
930,930,0.7455779126666492,0.7,0.0,0.0,489.0,968.0,0.0,1,23.0,1
931,931,0.021811111887163892,0.0,0.0,0.0,430.0,868.0,0.0,1,362.0,1
932,932,0.8094044055111512,0.8,1.0,1.0,452.0,701.0,1.0,1,247.0,1
933,933,0.4545538169068565,0.5,0.0,0.0,253.0,951.0,0.0,1,216.0,1
934,934,0.49911112920590794,0.5,0.0,0.0,494.0,671.0,0.0,1,345.0,1
935,935,-0.21675082034694726,-0.2,0.0,1.0,463.0,988.0,1.0,0,979.0,1
936,936,-0.04371363031992326,-0.0,0.0,1.0,472.0,934.0,0.0,1,844.0,0
937,937,0.8272902354850936,0.8,0.0,0.0,274.0,825.0,0.0,1,31.0,1
938,938,0.49425176725964326,0.5,0.0,0.0,421.0,575.0,0.0,1,184.0,1
939,939,0.8154194861969429,0.8,0.0,0.0,294.0,951.0,0.0,1,105.0,1
940,940,0.0889103262754114,0.1,0.0,0.0,377.0,565.0,1.0,0,548.0,0
941,941,0.01616464862885436,0.0,1.0,1.0,437.0,925.0,0.0,0,-32.0,0
942,942,-0.7689049904462373,-0.8,0.0,1.0,343.0,837.0,1.0,0,200.0,1
943,943,0.10598850467323484,0.1,0.0,0.0,457.0,552.0,0.0,1,471.0,1
944,944,0.5579242766140949,0.6,0.0,0.0,478.0,724.0,0.0,1,668.0,1
945,945,-0.34012317093982913,-0.3,1.0,0.0,309.0,657.0,0.0,0,194.0,1
946,946,0.7897862128195,0.8,1.0,1.0,302.0,939.0,1.0,1,269.0,1
947,947,-0.4696116944840263,-0.5,1.0,0.0,416.0,613.0,0.0,0,1011.0,1
948,948,0.37178665155177015,0.4,0.0,0.0,257.0,510.0,0.0,1,423.0,1
949,949,-0.3781843151146276,-0.4,1.0,0.0,412.0,743.0,0.0,0,275.0,1
950,950,0.36395862464964923,0.4,1.0,1.0,400.0,782.0,1.0,1,398.0,1
951,951,-0.15508370198320054,-0.2,0.0,1.0,359.0,870.0,0.0,1,161.0,0
952,952,-0.7011826887686894,-0.7,1.0,0.0,450.0,517.0,0.0,0,353.0,1
953,953,0.6877856095544238,0.7,0.0,0.0,468.0,554.0,0.0,1,418.0,1
954,954,0.5217391708711406,0.5,1.0,1.0,449.0,919.0,0.0,0,-68.0,0
955,955,0.6297035899228344,0.6,0.0,0.0,370.0,669.0,0.0,1,371.0,1
956,956,-0.7860631513322969,-0.8,0.0,1.0,486.0,666.0,1.0,0,478.0,1
957,957,0.6736736186616313,0.7,1.0,1.0,413.0,558.0,1.0,1,779.0,1
958,958,-0.47337119843653885,-0.5,0.0,1.0,370.0,905.0,1.0,0,1045.0,1
959,959,0.6324482574294502,0.6,1.0,1.0,447.0,985.0,1.0,1,858.0,1
960,960,0.031226183160656173,0.0,0.0,0.0,474.0,550.0,0.0,1,1036.0,1
961,961,-0.8344579478175539,-0.8,0.0,1.0,313.0,688.0,1.0,0,369.0,1
962,962,-0.5965196101873456,-0.6,1.0,0.0,364.0,514.0,0.0,0,632.0,1
963,963,-0.1765516882653101,-0.2,1.0,0.0,431.0,546.0,0.0,0,1283.0,1
964,964,-0.4390086159471794,-0.4,1.0,0.0,350.0,679.0,0.0,0,171.0,1
965,965,-0.6968817057145604,-0.7,0.0,1.0,452.0,759.0,1.0,0,169.0,1
966,966,0.3876561083178641,0.4,1.0,1.0,395.0,899.0,1.0,1,366.0,1
967,967,-0.7519408485070814,-0.8,1.0,0.0,466.0,954.0,0.0,0,270.0,1
968,968,-0.7398172899029548,-0.7,0.0,1.0,308.0,755.0,1.0,0,227.0,1
969,969,-0.887126791333437,-0.9,1.0,0.0,285.0,908.0,0.0,0,537.0,1
970,970,0.6353605290349419,0.6,0.0,0.0,289.0,830.0,0.0,1,681.0,1
971,971,-0.28331016352926164,-0.3,1.0,0.0,441.0,572.0,0.0,0,897.0,1
972,972,0.7331135384538966,0.7,0.0,0.0,291.0,856.0,0.0,1,213.0,1
973,973,0.6921025857406621,0.7,1.0,1.0,331.0,935.0,1.0,1,154.0,1
974,974,0.6716753244787618,0.7,0.0,0.0,364.0,973.0,1.0,0,3.0,0
975,975,0.20490640662571236,0.2,0.0,0.0,353.0,760.0,1.0,0,1187.0,0
976,976,-0.3959420284752465,-0.4,0.0,1.0,454.0,915.0,1.0,0,621.0,1
977,977,0.5243906785122615,0.5,0.0,0.0,404.0,654.0,0.0,1,352.0,1
978,978,-0.20926278048190794,-0.2,0.0,1.0,440.0,872.0,0.0,1,358.0,0
979,979,0.6099361866341156,0.6,1.0,1.0,447.0,648.0,1.0,1,655.0,1
980,980,0.5276260417268309,0.5,0.0,0.0,301.0,688.0,0.0,1,261.0,1
981,981,-0.3004440073282736,-0.3,1.0,0.0,383.0,797.0,0.0,0,100.0,1
982,982,0.25805393915267516,0.3,0.0,0.0,333.0,632.0,0.0,1,385.0,1
983,983,-0.12686357413889804,-0.1,1.0,0.0,492.0,526.0,0.0,0,972.0,1
984,984,-0.7874144752238024,-0.8,0.0,1.0,492.0,797.0,1.0,0,591.0,1
985,985,0.2127302831072676,0.2,0.0,0.0,467.0,631.0,1.0,0,662.0,0
986,986,-0.1685314459727929,-0.2,0.0,1.0,280.0,802.0,1.0,0,178.0,1
987,987,-0.3382443009136761,-0.3,1.0,0.0,455.0,674.0,0.0,0,901.0,1
988,988,-0.2007892085650973,-0.2,0.0,1.0,384.0,531.0,0.0,1,465.0,0
989,989,-0.8166943425084834,-0.8,0.0,1.0,495.0,856.0,1.0,0,379.0,1
990,990,-0.6728741831140875,-0.7,1.0,0.0,328.0,700.0,0.0,0,112.0,1
991,991,0.31217839039891737,0.3,1.0,1.0,308.0,929.0,0.0,0,123.0,0
992,992,-0.023236080794144076,-0.0,0.0,1.0,301.0,566.0,0.0,1,483.0,0
993,993,0.4019190206044164,0.4,1.0,1.0,450.0,767.0,0.0,0,463.0,0
994,994,-0.5665035087797576,-0.6,1.0,0.0,466.0,929.0,0.0,0,705.0,1
995,995,0.05038852603566624,0.1,1.0,1.0,459.0,724.0,0.0,0,517.0,0
996,996,-0.8053580353143424,-0.8,1.0,0.0,265.0,506.0,0.0,0,299.0,1
997,997,-0.35465909466993184,-0.4,1.0,0.0,256.0,996.0,0.0,0,228.0,1
998,998,-0.1461943586993394,-0.1,0.0,1.0,377.0,855.0,0.0,1,808.0,0
999,999,-0.11152999402715658,-0.1,1.0,0.0,460.0,614.0,0.0,0,1396.0,1
1000,1000,-0.052830567516095495,-0.1,1.0,0.0,263.0,972.0,0.0,0,15.0,1
1001,1001,0.6972619275719908,0.7,0.0,0.0,283.0,732.0,0.0,1,265.0,1
1002,1002,0.46730983378818614,0.5,1.0,1.0,344.0,577.0,1.0,1,539.0,1
1003,1003,0.40902144235399296,0.4,0.0,0.0,327.0,823.0,0.0,1,440.0,1
1004,1004,0.5604215135932792,0.6,1.0,1.0,443.0,947.0,1.0,1,280.0,1
1005,1005,-0.31290608599765957,-0.3,1.0,0.0,429.0,654.0,0.0,0,317.0,1
1006,1006,0.6833479323446227,0.7,1.0,1.0,352.0,812.0,1.0,1,396.0,1
1007,1007,-0.6132044145598974,-0.6,0.0,1.0,283.0,517.0,1.0,0,880.0,1
1008,1008,-0.6287694466843332,-0.6,0.0,1.0,375.0,753.0,1.0,0,762.0,1
1009,1009,-0.5485530960159721,-0.5,0.0,1.0,324.0,910.0,1.0,0,16.0,1
1010,1010,0.3692469848987562,0.4,1.0,1.0,432.0,695.0,0.0,0,153.0,0
1011,1011,0.22616023653458106,0.2,1.0,1.0,480.0,690.0,1.0,1,380.0,1
1012,1012,0.558477783372816,0.6,1.0,1.0,337.0,733.0,1.0,1,580.0,1
1013,1013,0.7811616345293461,0.8,1.0,1.0,352.0,824.0,1.0,1,264.0,1
1014,1014,-0.18417805996166503,-0.2,1.0,0.0,474.0,998.0,0.0,0,168.0,1
1015,1015,-0.18292882621389783,-0.2,0.0,1.0,308.0,806.0,1.0,0,786.0,1
1016,1016,-0.5344031505519364,-0.5,0.0,1.0,487.0,770.0,1.0,0,173.0,1
1017,1017,-0.33172563113248776,-0.3,1.0,0.0,473.0,542.0,0.0,0,655.0,1
1018,1018,-0.39394959648776007,-0.4,1.0,0.0,418.0,743.0,0.0,0,389.0,1
1019,1019,-0.5574011453472258,-0.6,1.0,0.0,264.0,589.0,0.0,0,637.0,1
1020,1020,-0.8596808883484319,-0.9,0.0,1.0,488.0,610.0,1.0,0,582.0,1
1021,1021,-0.7971428554252753,-0.8,1.0,0.0,432.0,602.0,0.0,0,356.0,1
1022,1022,-0.3266293720338962,-0.3,0.0,1.0,269.0,519.0,0.0,1,522.0,0
1023,1023,0.16416963794502004,0.2,0.0,0.0,402.0,629.0,0.0,1,229.0,1
1024,1024,0.4977695977281341,0.5,0.0,0.0,469.0,826.0,0.0,1,385.0,1
1025,1025,0.7133002805096086,0.7,0.0,0.0,432.0,570.0,0.0,1,318.0,1
1026,1026,0.11777527265086751,0.1,1.0,1.0,387.0,751.0,0.0,0,732.0,0
1027,1027,0.0913173096090647,0.1,0.0,0.0,476.0,735.0,0.0,1,1019.0,1
1028,1028,-0.1387820432010357,-0.1,1.0,0.0,474.0,765.0,1.0,1,1151.0,0
1029,1029,-0.8136609887676491,-0.8,1.0,0.0,454.0,789.0,0.0,0,257.0,1
1030,1030,0.5839081376107244,0.6,1.0,1.0,452.0,695.0,1.0,1,453.0,1
1031,1031,0.13422770503186932,0.1,0.0,0.0,420.0,702.0,0.0,1,1148.0,1
1032,1032,-0.724557203245222,-0.7,0.0,1.0,314.0,594.0,1.0,0,242.0,1
1033,1033,-0.1562206271198915,-0.2,1.0,0.0,454.0,682.0,0.0,0,124.0,1
1034,1034,-0.6671103047957453,-0.7,1.0,0.0,436.0,584.0,0.0,0,560.0,1
1035,1035,0.14174253460222486,0.1,0.0,0.0,419.0,712.0,0.0,1,1009.0,1
1036,1036,0.7082943029721861,0.7,1.0,1.0,496.0,657.0,1.0,1,357.0,1
1037,1037,0.7409396726802052,0.7,0.0,0.0,298.0,551.0,0.0,1,361.0,1
1038,1038,0.05902088150106133,0.1,0.0,0.0,399.0,927.0,0.0,1,1494.0,1
1039,1039,-0.2536041163578868,-0.3,1.0,0.0,486.0,845.0,0.0,0,249.0,1
1040,1040,0.8229470495753751,0.8,1.0,1.0,427.0,748.0,1.0,1,295.0,1
1041,1041,0.4189436906072549,0.4,0.0,0.0,445.0,820.0,0.0,1,245.0,1
1042,1042,-0.49567636251531627,-0.5,1.0,0.0,407.0,631.0,0.0,0,392.0,1
1043,1043,-0.05162592177913272,-0.1,1.0,0.0,254.0,999.0,0.0,0,67.0,1
1044,1044,0.8422109529620773,0.8,0.0,0.0,343.0,802.0,0.0,1,425.0,1
1045,1045,-0.3860850339496412,-0.4,0.0,1.0,427.0,541.0,0.0,1,532.0,0
1046,1046,-0.8321740518682127,-0.8,1.0,0.0,480.0,972.0,0.0,0,338.0,1
1047,1047,0.4890083357268248,0.5,0.0,0.0,361.0,884.0,0.0,1,155.0,1
1048,1048,0.32582577986039796,0.3,1.0,1.0,370.0,931.0,1.0,1,199.0,1
1049,1049,0.8436973458942781,0.8,1.0,1.0,344.0,598.0,1.0,1,358.0,1
1050,1050,0.2585070018860941,0.3,1.0,1.0,278.0,561.0,1.0,1,1301.0,1
1051,1051,0.8898728175871821,0.9,1.0,1.0,303.0,562.0,1.0,1,345.0,1
1052,1052,-0.6393050236910474,-0.6,0.0,1.0,453.0,543.0,1.0,0,884.0,1
1053,1053,-0.5175640299818765,-0.5,1.0,0.0,288.0,770.0,0.0,0,172.0,1
1054,1054,-0.07472213082568879,-0.1,0.0,1.0,363.0,744.0,0.0,1,403.0,0
1055,1055,-0.0017466034186774948,-0.0,0.0,1.0,354.0,700.0,0.0,1,1526.0,0
1056,1056,0.6440666529577178,0.6,0.0,0.0,476.0,743.0,0.0,1,391.0,1
1057,1057,-0.5461265499074117,-0.5,1.0,0.0,364.0,934.0,0.0,0,382.0,1
1058,1058,0.809230198445248,0.8,1.0,1.0,290.0,549.0,1.0,1,571.0,1
1059,1059,0.8008370463069489,0.8,0.0,0.0,388.0,605.0,0.0,1,357.0,1
1060,1060,-0.5996090212930458,-0.6,1.0,0.0,289.0,809.0,0.0,0,592.0,1
1061,1061,-0.15669412564147833,-0.2,0.0,1.0,273.0,671.0,0.0,1,256.0,0
1062,1062,-0.6077017150272015,-0.6,0.0,1.0,482.0,602.0,1.0,0,1186.0,1
1063,1063,0.30495970701153474,0.3,0.0,0.0,482.0,592.0,0.0,1,306.0,1
1064,1064,-0.8180169248928224,-0.8,1.0,0.0,422.0,558.0,0.0,0,410.0,1
1065,1065,-0.7937462766203573,-0.8,1.0,0.0,295.0,646.0,0.0,0,609.0,1
1066,1066,-0.8239456208439786,-0.8,1.0,0.0,391.0,818.0,0.0,0,191.0,1
1067,1067,0.22999119975431503,0.2,1.0,1.0,391.0,946.0,1.0,1,533.0,1
1068,1068,-0.7916004908921245,-0.8,1.0,0.0,306.0,526.0,0.0,0,408.0,1
1069,1069,0.3766140626432356,0.4,1.0,1.0,319.0,584.0,1.0,1,507.0,1
1070,1070,-0.4768321137244068,-0.5,0.0,1.0,342.0,723.0,1.0,0,1055.0,1
1071,1071,0.5014879882742039,0.5,0.0,0.0,361.0,609.0,0.0,1,500.0,1
1072,1072,-0.7002761708561329,-0.7,1.0,0.0,403.0,524.0,0.0,0,873.0,1
1073,1073,0.11607787069734632,0.1,0.0,0.0,444.0,943.0,1.0,0,373.0,0
1074,1074,0.7739714444816553,0.8,0.0,0.0,440.0,637.0,0.0,1,423.0,1
1075,1075,0.5034210342442748,0.5,0.0,0.0,407.0,960.0,0.0,1,443.0,1
1076,1076,0.8426325420897663,0.8,1.0,1.0,442.0,981.0,1.0,1,307.0,1
1077,1077,0.6507417789192801,0.7,1.0,1.0,453.0,516.0,1.0,1,741.0,1
1078,1078,0.4786132712541443,0.5,1.0,1.0,297.0,920.0,1.0,1,423.0,1
1079,1079,-0.6483993525186996,-0.6,0.0,1.0,261.0,868.0,1.0,0,321.0,1
1080,1080,-0.4700213018675972,-0.5,1.0,0.0,493.0,621.0,0.0,0,476.0,1
1081,1081,0.6326710881646321,0.6,1.0,1.0,330.0,571.0,1.0,1,729.0,1
1082,1082,0.4514281482589405,0.5,0.0,0.0,487.0,559.0,0.0,1,304.0,1
1083,1083,-0.7792153357526578,-0.8,1.0,0.0,446.0,891.0,0.0,0,653.0,1
1084,1084,0.19563454560062576,0.2,1.0,1.0,304.0,910.0,1.0,1,506.0,1
1085,1085,-0.8921410950770206,-0.9,1.0,0.0,431.0,902.0,0.0,0,137.0,1
1086,1086,0.39380793219463694,0.4,1.0,1.0,431.0,819.0,1.0,1,720.0,1
1087,1087,0.8916347340852552,0.9,1.0,1.0,498.0,877.0,1.0,1,295.0,1
1088,1088,0.5822492307806569,0.6,0.0,0.0,270.0,635.0,0.0,1,445.0,1
1089,1089,-0.044889561364788166,-0.0,1.0,0.0,371.0,893.0,0.0,0,1316.0,1
1090,1090,0.44642437266883805,0.4,1.0,1.0,382.0,616.0,1.0,1,912.0,1
1091,1091,0.26072957796580953,0.3,0.0,0.0,395.0,812.0,0.0,1,763.0,1
1092,1092,-0.48527952205121216,-0.5,0.0,1.0,366.0,837.0,1.0,0,557.0,1
1093,1093,-0.45843136301547216,-0.5,0.0,1.0,321.0,549.0,1.0,0,440.0,1
1094,1094,0.5259600949775888,0.5,0.0,0.0,288.0,709.0,0.0,1,873.0,1
1095,1095,0.29850464397386445,0.3,0.0,0.0,441.0,681.0,0.0,1,198.0,1
1096,1096,0.4613693689420416,0.5,0.0,0.0,433.0,788.0,0.0,1,359.0,1
1097,1097,0.8827831020722617,0.9,1.0,1.0,351.0,956.0,0.0,0,103.0,0
1098,1098,0.7650024628342534,0.8,0.0,0.0,364.0,651.0,0.0,1,275.0,1
1099,1099,-0.26067423658968536,-0.3,1.0,0.0,287.0,927.0,0.0,0,366.0,1
1100,1100,-0.35696101811481484,-0.4,0.0,1.0,495.0,784.0,1.0,0,821.0,1
1101,1101,-0.08733733175412695,-0.1,0.0,1.0,410.0,903.0,1.0,0,487.0,1
1102,1102,-0.16247950037151448,-0.2,1.0,0.0,300.0,535.0,0.0,0,835.0,1
1103,1103,-0.18689311799216957,-0.2,0.0,1.0,351.0,836.0,1.0,0,853.0,1
1104,1104,-0.8183277279904511,-0.8,0.0,1.0,339.0,699.0,1.0,0,622.0,1
1105,1105,-0.8280078675769826,-0.8,1.0,0.0,272.0,974.0,0.0,0,124.0,1
1106,1106,0.21807369964269185,0.2,1.0,1.0,432.0,983.0,1.0,1,555.0,1
1107,1107,-0.567499572289517,-0.6,0.0,1.0,348.0,517.0,1.0,0,675.0,1
1108,1108,0.6506302180693956,0.7,0.0,0.0,332.0,642.0,0.0,1,36.0,1
1109,1109,-0.0831426729287219,-0.1,1.0,0.0,432.0,669.0,0.0,0,529.0,1
1110,1110,-0.2801721498846067,-0.3,0.0,1.0,284.0,759.0,1.0,0,317.0,1
1111,1111,0.004150019906197122,0.0,1.0,1.0,250.0,934.0,0.0,0,-154.0,0
1112,1112,0.35266094581119856,0.4,1.0,1.0,482.0,866.0,1.0,1,1132.0,1
1113,1113,-0.7987939621801554,-0.8,0.0,1.0,379.0,507.0,1.0,0,634.0,1
1114,1114,-0.782858240510602,-0.8,0.0,1.0,348.0,590.0,1.0,0,282.0,1
1115,1115,0.18528710476817378,0.2,1.0,1.0,475.0,671.0,1.0,1,544.0,1
1116,1116,-0.14573665901377786,-0.1,1.0,0.0,308.0,759.0,0.0,0,343.0,1
1117,1117,0.2564465771927257,0.3,0.0,0.0,454.0,621.0,0.0,1,785.0,1
1118,1118,-0.587332211049213,-0.6,1.0,0.0,421.0,687.0,0.0,0,292.0,1
1119,1119,0.6795029372076947,0.7,1.0,1.0,272.0,810.0,1.0,1,288.0,1
1120,1120,-0.5586493349567259,-0.6,1.0,0.0,271.0,595.0,0.0,0,344.0,1
1121,1121,0.616019608076306,0.6,0.0,0.0,456.0,982.0,0.0,1,182.0,1
1122,1122,0.5634625801181258,0.6,1.0,1.0,480.0,775.0,1.0,1,155.0,1
1123,1123,0.7345813307852903,0.7,1.0,1.0,456.0,545.0,1.0,1,409.0,1
1124,1124,-0.3756577050322759,-0.4,0.0,1.0,434.0,647.0,1.0,0,539.0,1
1125,1125,0.7560756651926958,0.8,1.0,1.0,477.0,657.0,1.0,1,336.0,1
1126,1126,0.7605621453336723,0.8,1.0,1.0,409.0,846.0,1.0,1,305.0,1
1127,1127,0.04243864075313075,0.0,0.0,0.0,459.0,789.0,1.0,0,912.0,0
1128,1128,-0.4721425381734342,-0.5,0.0,1.0,301.0,639.0,1.0,0,980.0,1
1129,1129,0.19234574016851258,0.2,1.0,1.0,264.0,947.0,1.0,1,-21.0,1
1130,1130,0.5469524342254143,0.5,0.0,0.0,476.0,926.0,0.0,1,218.0,1
1131,1131,0.33733096569413645,0.3,0.0,0.0,467.0,799.0,0.0,1,344.0,1
1132,1132,-0.6592796217555683,-0.7,0.0,1.0,360.0,717.0,1.0,0,673.0,1
1133,1133,0.5111137919431291,0.5,0.0,0.0,422.0,926.0,0.0,1,-38.0,1
1134,1134,-0.8109131480473475,-0.8,1.0,0.0,406.0,967.0,0.0,0,57.0,1
1135,1135,-0.8696980062895271,-0.9,1.0,0.0,250.0,651.0,0.0,0,269.0,1
1136,1136,0.8236198606006672,0.8,0.0,0.0,431.0,717.0,0.0,1,622.0,1
1137,1137,0.43955497545269584,0.4,1.0,1.0,467.0,706.0,1.0,1,407.0,1
1138,1138,0.7842040683967179,0.8,1.0,1.0,292.0,708.0,1.0,1,280.0,1
1139,1139,-0.23338151844707578,-0.2,1.0,0.0,397.0,991.0,0.0,0,1162.0,1
1140,1140,-0.3710774484504271,-0.4,0.0,1.0,402.0,864.0,0.0,1,214.0,0
1141,1141,-0.8344712973864641,-0.8,1.0,0.0,300.0,813.0,0.0,0,287.0,1
1142,1142,0.6110714365385822,0.6,0.0,0.0,459.0,681.0,0.0,1,290.0,1
1143,1143,0.1412824192070007,0.1,0.0,0.0,321.0,962.0,1.0,0,497.0,0
1144,1144,0.7322878978770005,0.7,1.0,1.0,322.0,554.0,1.0,1,494.0,1
1145,1145,0.4419402079281104,0.4,0.0,0.0,495.0,926.0,0.0,1,559.0,1
1146,1146,-0.23609193633798242,-0.2,1.0,0.0,460.0,571.0,0.0,0,359.0,1
1147,1147,0.5973264411942641,0.6,0.0,0.0,310.0,699.0,0.0,1,231.0,1
1148,1148,-0.299511523744318,-0.3,1.0,0.0,279.0,752.0,0.0,0,319.0,1
1149,1149,-0.4329977617419029,-0.4,0.0,1.0,385.0,927.0,0.0,1,278.0,0
1150,1150,-0.5148661972133711,-0.5,1.0,0.0,497.0,598.0,0.0,0,455.0,1
1151,1151,0.08387965563398081,0.1,1.0,1.0,280.0,667.0,1.0,1,503.0,1
1152,1152,0.7948271974376139,0.8,0.0,0.0,282.0,890.0,0.0,1,338.0,1
1153,1153,-0.36466684163953156,-0.4,1.0,0.0,376.0,764.0,0.0,0,100.0,1
1154,1154,-0.8066062794471124,-0.8,1.0,0.0,452.0,941.0,0.0,0,-23.0,1
1155,1155,-0.6728411926308165,-0.7,1.0,0.0,380.0,766.0,0.0,0,364.0,1
1156,1156,-0.14446914384881382,-0.1,0.0,1.0,480.0,967.0,1.0,0,393.0,1
1157,1157,0.6622034555627857,0.7,1.0,1.0,427.0,981.0,0.0,0,142.0,0
1158,1158,0.7141243197031081,0.7,0.0,0.0,276.0,892.0,0.0,1,212.0,1
1159,1159,-0.7359614756050776,-0.7,0.0,1.0,278.0,944.0,1.0,0,378.0,1
1160,1160,-0.20617839218150824,-0.2,1.0,0.0,418.0,963.0,0.0,0,79.0,1
1161,1161,0.15065709774150127,0.2,1.0,1.0,433.0,636.0,0.0,0,871.0,0
1162,1162,-0.44810930466677523,-0.4,0.0,1.0,489.0,991.0,1.0,0,160.0,1
1163,1163,0.5342192149708199,0.5,0.0,0.0,265.0,705.0,0.0,1,190.0,1
1164,1164,0.8199628100946056,0.8,1.0,1.0,387.0,972.0,1.0,1,321.0,1
1165,1165,0.563358707801399,0.6,1.0,1.0,494.0,752.0,0.0,0,314.0,0
1166,1166,-0.5342124907110835,-0.5,0.0,1.0,461.0,680.0,1.0,0,339.0,1
1167,1167,-0.4668546579171265,-0.5,1.0,0.0,357.0,556.0,0.0,0,707.0,1
1168,1168,-0.4824337976692517,-0.5,0.0,1.0,345.0,953.0,1.0,0,212.0,1
1169,1169,-0.8837702389259892,-0.9,1.0,0.0,449.0,658.0,0.0,0,313.0,1
1170,1170,-0.46577784382198595,-0.5,0.0,1.0,455.0,917.0,1.0,0,508.0,1
1171,1171,0.773051898529142,0.8,0.0,0.0,304.0,906.0,0.0,1,370.0,1
1172,1172,-0.05912673421770831,-0.1,0.0,1.0,451.0,561.0,1.0,0,838.0,1
1173,1173,0.5167382509669077,0.5,0.0,0.0,369.0,694.0,0.0,1,347.0,1
1174,1174,-0.017462650606020147,-0.0,0.0,1.0,478.0,850.0,0.0,1,802.0,0
1175,1175,0.7764233549690757,0.8,1.0,1.0,485.0,748.0,1.0,1,497.0,1
1176,1176,-0.3115966744050491,-0.3,1.0,0.0,465.0,750.0,0.0,0,365.0,1
1177,1177,-0.2277336644904664,-0.2,1.0,0.0,265.0,717.0,0.0,0,408.0,1
1178,1178,0.39215627982157575,0.4,1.0,1.0,466.0,802.0,1.0,1,342.0,1
1179,1179,-0.8448247316936686,-0.8,0.0,1.0,253.0,949.0,0.0,1,-62.0,0
1180,1180,-0.05268492327282137,-0.1,1.0,0.0,251.0,974.0,1.0,1,455.0,0
1181,1181,0.12456068621301253,0.1,0.0,0.0,490.0,960.0,1.0,0,-150.0,0
1182,1182,-0.3078373393873617,-0.3,0.0,1.0,474.0,767.0,0.0,1,309.0,0
1183,1183,-0.4140722086425301,-0.4,1.0,0.0,491.0,780.0,0.0,0,469.0,1
1184,1184,0.3372239851008302,0.3,1.0,1.0,266.0,573.0,0.0,0,711.0,0
1185,1185,0.6538661275577314,0.7,0.0,0.0,427.0,571.0,0.0,1,462.0,1
1186,1186,-0.111698268543997,-0.1,0.0,1.0,414.0,505.0,1.0,0,881.0,1
1187,1187,-0.21531506388334476,-0.2,1.0,0.0,470.0,804.0,0.0,0,556.0,1
1188,1188,0.6153497951958763,0.6,1.0,1.0,498.0,698.0,1.0,1,194.0,1
1189,1189,0.0626414032147713,0.1,0.0,0.0,452.0,997.0,0.0,1,331.0,1
1190,1190,-0.3465813015534618,-0.3,0.0,1.0,366.0,509.0,1.0,0,695.0,1
1191,1191,0.5870896302315985,0.6,1.0,1.0,493.0,833.0,0.0,0,334.0,0
1192,1192,0.8099277357015374,0.8,0.0,0.0,352.0,884.0,0.0,1,324.0,1
1193,1193,-0.28372185178951637,-0.3,1.0,0.0,474.0,572.0,1.0,1,784.0,0
1194,1194,0.08662793804635338,0.1,1.0,1.0,306.0,571.0,1.0,1,1093.0,1
1195,1195,0.2671689588859688,0.3,1.0,1.0,297.0,658.0,1.0,1,775.0,1
1196,1196,0.4298706607312329,0.4,1.0,1.0,434.0,713.0,0.0,0,503.0,0
1197,1197,0.2798020565536906,0.3,0.0,0.0,377.0,756.0,0.0,1,377.0,1
1198,1198,-0.2470486808039154,-0.2,0.0,1.0,350.0,600.0,1.0,0,880.0,1
1199,1199,-0.6501962543931405,-0.7,0.0,1.0,441.0,815.0,1.0,0,434.0,1
1200,1200,-0.5318498619382982,-0.5,0.0,1.0,461.0,528.0,1.0,0,1081.0,1
1201,1201,0.5673966107565903,0.6,1.0,1.0,418.0,828.0,1.0,1,324.0,1
1202,1202,0.14292177766718017,0.1,1.0,1.0,291.0,966.0,0.0,0,53.0,0
1203,1203,-0.08760325406093783,-0.1,0.0,1.0,311.0,718.0,0.0,1,851.0,0
1204,1204,0.22854332889836282,0.2,1.0,1.0,427.0,534.0,0.0,0,799.0,0
1205,1205,0.798795159030094,0.8,0.0,0.0,310.0,508.0,0.0,1,382.0,1
1206,1206,-0.8172708181070683,-0.8,0.0,1.0,419.0,632.0,1.0,0,769.0,1
1207,1207,0.2215389659244954,0.2,1.0,1.0,314.0,998.0,1.0,1,148.0,1
1208,1208,0.011430950665027084,0.0,0.0,0.0,263.0,523.0,0.0,1,324.0,1
1209,1209,-0.44161931161565354,-0.4,0.0,1.0,292.0,873.0,0.0,1,565.0,0
1210,1210,-0.3035072514972138,-0.3,0.0,1.0,434.0,827.0,1.0,0,1189.0,1
1211,1211,-0.8016308775378986,-0.8,1.0,0.0,454.0,839.0,0.0,0,417.0,1
1212,1212,-0.3168243007302567,-0.3,1.0,0.0,419.0,898.0,0.0,0,113.0,1
1213,1213,-0.4298657713231983,-0.4,0.0,1.0,313.0,916.0,1.0,0,531.0,1
1214,1214,0.21090599881177907,0.2,1.0,1.0,377.0,867.0,0.0,0,146.0,0
1215,1215,-0.08715759039544757,-0.1,0.0,1.0,374.0,718.0,1.0,0,278.0,1
1216,1216,0.8377607076790082,0.8,1.0,1.0,252.0,953.0,1.0,1,185.0,1
1217,1217,0.628700360748664,0.6,1.0,1.0,381.0,827.0,1.0,1,412.0,1
1218,1218,-0.12215985703672372,-0.1,1.0,0.0,296.0,589.0,1.0,1,595.0,0
1219,1219,0.7458775105576952,0.7,1.0,1.0,277.0,585.0,1.0,1,478.0,1
1220,1220,0.5236210195473122,0.5,0.0,0.0,398.0,610.0,0.0,1,442.0,1
1221,1221,0.03243221442744182,0.0,0.0,0.0,435.0,670.0,0.0,1,935.0,1
1222,1222,-0.8697456029688853,-0.9,1.0,0.0,387.0,849.0,0.0,0,274.0,1
1223,1223,-0.333524919334131,-0.3,1.0,0.0,446.0,725.0,0.0,0,419.0,1
1224,1224,0.39438060875814973,0.4,1.0,1.0,312.0,688.0,1.0,1,1100.0,1
1225,1225,0.6266039081733773,0.6,1.0,1.0,260.0,742.0,1.0,1,438.0,1
1226,1226,0.6416765271203019,0.6,1.0,1.0,367.0,790.0,1.0,1,553.0,1
1227,1227,0.658736399764995,0.7,1.0,1.0,279.0,703.0,1.0,1,348.0,1
1228,1228,-0.16853979182634593,-0.2,0.0,1.0,486.0,898.0,1.0,0,86.0,1
1229,1229,0.820309293126741,0.8,1.0,1.0,317.0,896.0,1.0,1,277.0,1
1230,1230,-0.3442951003112834,-0.3,1.0,0.0,410.0,672.0,0.0,0,458.0,1
1231,1231,-0.4321069410846433,-0.4,0.0,1.0,486.0,879.0,1.0,0,275.0,1
1232,1232,0.21988426021146712,0.2,0.0,0.0,288.0,949.0,1.0,0,33.0,0
1233,1233,0.4850871826781876,0.5,1.0,1.0,309.0,757.0,1.0,1,464.0,1
1234,1234,-0.819567499413833,-0.8,0.0,1.0,365.0,578.0,1.0,0,497.0,1
1235,1235,-0.6464096047188119,-0.6,0.0,1.0,275.0,872.0,1.0,0,43.0,1
1236,1236,-0.554284281335647,-0.6,1.0,0.0,392.0,549.0,0.0,0,389.0,1
1237,1237,-0.4645114341767379,-0.5,1.0,0.0,345.0,523.0,0.0,0,362.0,1
1238,1238,0.2723349519988473,0.3,0.0,0.0,437.0,802.0,0.0,1,551.0,1
1239,1239,-0.3575671747872504,-0.4,1.0,0.0,361.0,851.0,0.0,0,668.0,1
1240,1240,0.7253180067689556,0.7,1.0,1.0,494.0,982.0,1.0,1,264.0,1
1241,1241,-0.4075973000068999,-0.4,0.0,1.0,391.0,857.0,1.0,0,312.0,1
1242,1242,-0.8918143640529104,-0.9,1.0,0.0,286.0,827.0,0.0,0,187.0,1
1243,1243,0.2528266729327845,0.3,0.0,0.0,450.0,506.0,0.0,1,2154.0,1
1244,1244,0.4956590327042302,0.5,1.0,1.0,358.0,714.0,1.0,1,768.0,1
1245,1245,-0.4882700989020399,-0.5,0.0,1.0,392.0,849.0,0.0,1,499.0,0
1246,1246,-0.08243096516150017,-0.1,1.0,0.0,301.0,851.0,0.0,0,318.0,1
1247,1247,0.515729375401169,0.5,0.0,0.0,306.0,828.0,0.0,1,116.0,1
1248,1248,0.06706610477517783,0.1,0.0,0.0,483.0,603.0,0.0,1,474.0,1
1249,1249,-0.7083517281221741,-0.7,0.0,1.0,460.0,755.0,1.0,0,495.0,1
1250,1250,-0.2807200107682154,-0.3,0.0,1.0,427.0,653.0,1.0,0,460.0,1
1251,1251,-0.4576688122545793,-0.5,1.0,0.0,361.0,964.0,0.0,0,115.0,1
1252,1252,0.4293945357859593,0.4,1.0,1.0,362.0,586.0,1.0,1,502.0,1
1253,1253,0.08344051520550311,0.1,0.0,0.0,341.0,707.0,0.0,1,132.0,1
1254,1254,0.4384871058080432,0.4,0.0,0.0,343.0,557.0,0.0,1,1120.0,1
1255,1255,-0.468538334292829,-0.5,0.0,1.0,287.0,642.0,1.0,0,411.0,1
1256,1256,0.8571436137248566,0.9,1.0,1.0,306.0,761.0,1.0,1,513.0,1
1257,1257,0.06776925725366334,0.1,0.0,0.0,371.0,591.0,0.0,1,538.0,1
1258,1258,0.6441195123442093,0.6,1.0,1.0,322.0,793.0,1.0,1,225.0,1
1259,1259,-0.11775325140799264,-0.1,0.0,1.0,359.0,762.0,0.0,1,879.0,0
1260,1260,-0.8194511878913897,-0.8,0.0,1.0,334.0,906.0,1.0,0,560.0,1
1261,1261,0.6119730443632342,0.6,0.0,0.0,476.0,762.0,0.0,1,492.0,1
1262,1262,0.2706640902177061,0.3,0.0,0.0,301.0,721.0,0.0,1,348.0,1
1263,1263,0.6437250926786272,0.6,0.0,0.0,272.0,727.0,0.0,1,131.0,1
1264,1264,-0.012564624054981266,-0.0,1.0,0.0,268.0,878.0,0.0,0,1024.0,1
1265,1265,0.6123371711697002,0.6,0.0,0.0,382.0,616.0,0.0,1,582.0,1
1266,1266,0.16315762646636423,0.2,1.0,1.0,260.0,720.0,1.0,1,1810.0,1
1267,1267,0.7433249827912768,0.7,1.0,1.0,448.0,543.0,0.0,0,629.0,0
1268,1268,0.19290135300335842,0.2,0.0,0.0,260.0,830.0,0.0,1,320.0,1
1269,1269,-0.8447711104938066,-0.8,1.0,0.0,396.0,923.0,0.0,0,141.0,1
1270,1270,0.5742021693830462,0.6,0.0,0.0,323.0,916.0,0.0,1,451.0,1
1271,1271,-0.6969955383975388,-0.7,0.0,1.0,408.0,860.0,0.0,1,32.0,0
1272,1272,0.5435079025667314,0.5,1.0,1.0,393.0,663.0,1.0,1,514.0,1
1273,1273,-0.09360064850131389,-0.1,0.0,1.0,377.0,614.0,0.0,1,1149.0,0
1274,1274,0.6973893849867522,0.7,1.0,1.0,337.0,888.0,1.0,1,215.0,1
1275,1275,-0.40393390765619497,-0.4,1.0,0.0,428.0,735.0,0.0,0,547.0,1
1276,1276,-0.7618683334558083,-0.8,1.0,0.0,348.0,931.0,0.0,0,401.0,1
1277,1277,0.4102806341737023,0.4,1.0,1.0,460.0,866.0,0.0,0,274.0,0
1278,1278,0.7484260804234709,0.7,0.0,0.0,305.0,549.0,0.0,1,426.0,1
1279,1279,0.5452317282876523,0.5,1.0,1.0,495.0,665.0,1.0,1,780.0,1
1280,1280,0.37070561655390344,0.4,1.0,1.0,366.0,576.0,1.0,1,388.0,1
1281,1281,-0.5044440990401209,-0.5,1.0,0.0,498.0,686.0,0.0,0,206.0,1
1282,1282,-0.07158384718220667,-0.1,1.0,0.0,393.0,950.0,1.0,1,687.0,0
1283,1283,0.18401619553549475,0.2,1.0,1.0,294.0,655.0,1.0,1,181.0,1
1284,1284,0.481184967180493,0.5,1.0,1.0,415.0,935.0,0.0,0,-40.0,0
1285,1285,-0.4659283520193323,-0.5,0.0,1.0,429.0,758.0,1.0,0,573.0,1
1286,1286,0.6402689760521451,0.6,0.0,0.0,410.0,749.0,0.0,1,181.0,1
1287,1287,0.26722772719077714,0.3,0.0,0.0,250.0,558.0,0.0,1,522.0,1
1288,1288,0.39476654684738033,0.4,1.0,1.0,269.0,832.0,1.0,1,479.0,1
1289,1289,0.819402951799531,0.8,0.0,0.0,363.0,591.0,0.0,1,546.0,1
1290,1290,0.8789131869419146,0.9,1.0,1.0,345.0,505.0,1.0,1,660.0,1
1291,1291,0.6742618785471218,0.7,1.0,1.0,372.0,656.0,1.0,1,442.0,1
1292,1292,-0.8517983752658224,-0.9,1.0,0.0,279.0,633.0,0.0,0,198.0,1
1293,1293,0.22354793137341156,0.2,1.0,1.0,481.0,523.0,0.0,0,1406.0,0
1294,1294,-0.6418936369805988,-0.6,1.0,0.0,274.0,808.0,0.0,0,168.0,1
1295,1295,0.427394135621039,0.4,1.0,1.0,450.0,825.0,0.0,0,775.0,0
1296,1296,0.41749704687916067,0.4,1.0,1.0,453.0,744.0,0.0,0,1303.0,0
1297,1297,-0.21644205971511976,-0.2,1.0,0.0,348.0,540.0,0.0,0,502.0,1
1298,1298,0.39728479254485183,0.4,1.0,1.0,278.0,649.0,1.0,1,593.0,1
1299,1299,-0.19387078875660813,-0.2,0.0,1.0,456.0,809.0,0.0,1,955.0,0
1300,1300,0.24541261071712006,0.2,0.0,0.0,328.0,927.0,0.0,1,255.0,1
1301,1301,0.8096809568771125,0.8,0.0,0.0,329.0,866.0,0.0,1,345.0,1
1302,1302,0.14358087779118633,0.1,0.0,0.0,415.0,561.0,0.0,1,594.0,1
1303,1303,0.4133394253636332,0.4,1.0,1.0,458.0,836.0,1.0,1,686.0,1
1304,1304,-0.7454792019786719,-0.7,1.0,0.0,322.0,867.0,0.0,0,151.0,1
1305,1305,-0.7356067977588582,-0.7,0.0,1.0,360.0,681.0,1.0,0,429.0,1
1306,1306,0.7392310159877645,0.7,1.0,1.0,452.0,936.0,1.0,1,332.0,1
1307,1307,-0.2386806579369236,-0.2,1.0,0.0,427.0,703.0,1.0,1,790.0,0
1308,1308,0.3097815560048892,0.3,0.0,0.0,363.0,515.0,0.0,1,452.0,1
1309,1309,-0.6904046175749304,-0.7,1.0,0.0,320.0,782.0,0.0,0,488.0,1
1310,1310,-0.7837651308773175,-0.8,0.0,1.0,493.0,718.0,1.0,0,509.0,1
1311,1311,-0.32114437126925566,-0.3,0.0,1.0,375.0,980.0,0.0,1,-145.0,0
1312,1312,0.10745811947348705,0.1,1.0,1.0,284.0,721.0,0.0,0,235.0,0
1313,1313,0.6047176047403281,0.6,1.0,1.0,420.0,754.0,1.0,1,446.0,1
1314,1314,-0.7895208455609235,-0.8,0.0,1.0,421.0,749.0,1.0,0,650.0,1
1315,1315,-0.5200935084659113,-0.5,0.0,1.0,350.0,698.0,1.0,0,322.0,1
1316,1316,0.3852369734439117,0.4,0.0,0.0,382.0,717.0,0.0,1,331.0,1
1317,1317,0.5727240112977391,0.6,1.0,1.0,370.0,967.0,0.0,0,83.0,0
1318,1318,-0.31863194324162925,-0.3,1.0,0.0,261.0,674.0,0.0,0,285.0,1
1319,1319,0.2837804419506652,0.3,0.0,0.0,387.0,958.0,0.0,1,615.0,1
1320,1320,0.6422584443334572,0.6,1.0,1.0,368.0,527.0,1.0,1,535.0,1
1321,1321,-0.1613918488994801,-0.2,1.0,0.0,266.0,532.0,0.0,0,732.0,1
1322,1322,0.8227399936728209,0.8,0.0,0.0,421.0,566.0,0.0,1,513.0,1
1323,1323,-0.22794316299734796,-0.2,0.0,1.0,366.0,867.0,0.0,1,27.0,0
1324,1324,-0.1167225208988637,-0.1,1.0,0.0,372.0,622.0,0.0,0,296.0,1
1325,1325,0.5511698858121742,0.6,0.0,0.0,384.0,708.0,0.0,1,628.0,1
1326,1326,-0.5532993800808579,-0.6,1.0,0.0,292.0,725.0,0.0,0,283.0,1
1327,1327,0.4475645431378451,0.4,0.0,0.0,278.0,764.0,0.0,1,328.0,1
1328,1328,-0.18202108540517659,-0.2,1.0,0.0,305.0,584.0,0.0,0,631.0,1
1329,1329,-0.35232185373872094,-0.4,1.0,0.0,384.0,961.0,0.0,0,535.0,1
1330,1330,-0.6395061028103499,-0.6,0.0,1.0,376.0,519.0,1.0,0,705.0,1
1331,1331,0.13332278114047347,0.1,0.0,0.0,271.0,521.0,0.0,1,738.0,1
1332,1332,0.007905819429171568,0.0,0.0,0.0,444.0,955.0,0.0,1,101.0,1
1333,1333,-0.5462822506514384,-0.5,1.0,0.0,290.0,762.0,0.0,0,468.0,1
1334,1334,0.7417726647117621,0.7,0.0,0.0,336.0,862.0,0.0,1,502.0,1
1335,1335,0.2841986002695266,0.3,0.0,0.0,468.0,980.0,0.0,1,92.0,1
1336,1336,-0.09780276107010055,-0.1,0.0,1.0,352.0,662.0,0.0,1,926.0,0
1337,1337,0.39094140086242735,0.4,1.0,1.0,482.0,698.0,1.0,1,180.0,1
1338,1338,-0.5162721970929192,-0.5,1.0,0.0,268.0,971.0,0.0,0,-9.0,1
1339,1339,-0.02285450683557999,-0.0,1.0,0.0,310.0,627.0,1.0,1,893.0,0
1340,1340,-0.8871239173215897,-0.9,0.0,1.0,455.0,781.0,1.0,0,144.0,1
1341,1341,0.37416379466134997,0.4,1.0,1.0,407.0,682.0,1.0,1,661.0,1
1342,1342,-0.8412812495096812,-0.8,1.0,0.0,392.0,797.0,0.0,0,301.0,1
1343,1343,-0.16184204971664473,-0.2,1.0,0.0,414.0,877.0,0.0,0,159.0,1
1344,1344,-0.25663974641662357,-0.3,0.0,1.0,290.0,676.0,1.0,0,634.0,1
1345,1345,-0.6092785832442686,-0.6,1.0,0.0,449.0,909.0,0.0,0,672.0,1
1346,1346,-0.3860008531208068,-0.4,0.0,1.0,399.0,873.0,0.0,1,138.0,0
1347,1347,-0.7843159496610471,-0.8,1.0,0.0,403.0,730.0,0.0,0,327.0,1
1348,1348,0.20934508648975714,0.2,1.0,1.0,466.0,614.0,1.0,1,700.0,1
1349,1349,0.8301071931370269,0.8,1.0,1.0,386.0,710.0,1.0,1,364.0,1
1350,1350,0.4415789537378906,0.4,1.0,1.0,384.0,767.0,1.0,1,349.0,1
1351,1351,-0.7217232689817052,-0.7,1.0,0.0,400.0,923.0,0.0,0,147.0,1
1352,1352,0.7853351711000772,0.8,1.0,1.0,440.0,706.0,1.0,1,434.0,1
1353,1353,-0.29505697204967285,-0.3,0.0,1.0,459.0,699.0,1.0,0,522.0,1
1354,1354,-0.5701468221264923,-0.6,0.0,1.0,367.0,762.0,1.0,0,281.0,1
1355,1355,0.1541091451423039,0.2,1.0,1.0,316.0,809.0,1.0,1,485.0,1
1356,1356,-0.773636344099542,-0.8,0.0,1.0,402.0,914.0,1.0,0,844.0,1
1357,1357,-0.2879642024744107,-0.3,0.0,1.0,331.0,996.0,0.0,1,203.0,0
1358,1358,0.8045295981375874,0.8,1.0,1.0,368.0,702.0,1.0,1,330.0,1
1359,1359,-0.19030354596131704,-0.2,0.0,1.0,378.0,579.0,0.0,1,613.0,0
1360,1360,-0.46007474904318535,-0.5,1.0,0.0,288.0,541.0,0.0,0,321.0,1
1361,1361,0.4267510357642986,0.4,0.0,0.0,362.0,935.0,0.0,1,653.0,1
1362,1362,0.5751851945381322,0.6,1.0,1.0,391.0,746.0,1.0,1,363.0,1
1363,1363,-0.21882901682693023,-0.2,0.0,1.0,474.0,639.0,1.0,0,567.0,1
1364,1364,-0.3140449347042078,-0.3,0.0,1.0,366.0,941.0,1.0,0,123.0,1
1365,1365,0.5605980905383007,0.6,1.0,1.0,331.0,967.0,1.0,1,292.0,1
1366,1366,-0.7229182707866513,-0.7,1.0,0.0,463.0,716.0,0.0,0,351.0,1
1367,1367,0.11203022928982309,0.1,0.0,0.0,370.0,891.0,0.0,1,289.0,1
1368,1368,0.12458739185814804,0.1,1.0,1.0,382.0,769.0,1.0,1,849.0,1
1369,1369,0.13642244603425102,0.1,1.0,1.0,399.0,798.0,0.0,0,413.0,0
1370,1370,0.044255123235490745,0.0,0.0,0.0,308.0,927.0,0.0,1,165.0,1
1371,1371,0.4301609346460836,0.4,1.0,1.0,379.0,996.0,0.0,0,-5.0,0
1372,1372,0.22839537872112958,0.2,0.0,0.0,364.0,685.0,0.0,1,221.0,1
1373,1373,0.3400399485419926,0.3,1.0,1.0,326.0,604.0,0.0,0,430.0,0
1374,1374,-0.051030786789453386,-0.1,1.0,0.0,336.0,870.0,0.0,0,714.0,1
1375,1375,-0.3699056176446647,-0.4,0.0,1.0,433.0,840.0,1.0,0,607.0,1
1376,1376,0.4758343600150071,0.5,0.0,0.0,281.0,707.0,0.0,1,262.0,1
1377,1377,0.0011857512971638062,0.0,0.0,0.0,485.0,710.0,0.0,1,515.0,1
1378,1378,0.6191160821744609,0.6,0.0,0.0,290.0,978.0,0.0,1,2.0,1
1379,1379,-0.29196163430021915,-0.3,1.0,0.0,443.0,531.0,0.0,0,436.0,1
1380,1380,0.7820258549756062,0.8,0.0,0.0,354.0,906.0,0.0,1,270.0,1
1381,1381,-0.8273528138614471,-0.8,1.0,0.0,401.0,622.0,0.0,0,267.0,1
1382,1382,0.5936218226515605,0.6,0.0,0.0,497.0,535.0,0.0,1,678.0,1
1383,1383,-0.3206928180208195,-0.3,1.0,0.0,457.0,873.0,0.0,0,200.0,1
1384,1384,-0.4188639633515428,-0.4,1.0,0.0,446.0,645.0,0.0,0,179.0,1
1385,1385,0.26717264021830267,0.3,0.0,0.0,385.0,576.0,0.0,1,969.0,1
1386,1386,0.7583942647065886,0.8,1.0,1.0,369.0,711.0,1.0,1,360.0,1
1387,1387,0.8730154917025718,0.9,0.0,0.0,427.0,684.0,0.0,1,349.0,1
1388,1388,0.8853261319652949,0.9,1.0,1.0,395.0,635.0,1.0,1,420.0,1
1389,1389,-0.7481901259865233,-0.7,1.0,0.0,452.0,962.0,0.0,0,136.0,1
1390,1390,0.23403399647052903,0.2,0.0,0.0,264.0,820.0,0.0,1,976.0,1
1391,1391,-0.06776296995280551,-0.1,0.0,1.0,482.0,648.0,0.0,1,470.0,0
1392,1392,-0.16866129091500348,-0.2,0.0,1.0,330.0,823.0,1.0,0,577.0,1
1393,1393,0.15579367754555473,0.2,1.0,1.0,307.0,899.0,0.0,0,144.0,0
1394,1394,0.3811344232583166,0.4,1.0,1.0,349.0,877.0,1.0,1,254.0,1
1395,1395,-0.7603734694066311,-0.8,0.0,1.0,382.0,563.0,1.0,0,925.0,1
1396,1396,-0.1255614260594322,-0.1,1.0,0.0,314.0,523.0,0.0,0,763.0,1
1397,1397,-0.0931947821066631,-0.1,0.0,1.0,317.0,579.0,0.0,1,444.0,0
1398,1398,-0.47869545258526564,-0.5,0.0,1.0,326.0,567.0,1.0,0,867.0,1
1399,1399,-0.004987331520838856,-0.0,0.0,1.0,273.0,950.0,0.0,1,1027.0,0
1400,1400,0.2521966414775495,0.3,1.0,1.0,306.0,818.0,0.0,0,366.0,0
1401,1401,-0.6257451725743277,-0.6,0.0,1.0,364.0,765.0,1.0,0,461.0,1
1402,1402,-0.5099097203091865,-0.5,1.0,0.0,373.0,599.0,0.0,0,498.0,1
1403,1403,-0.28840497945694266,-0.3,1.0,0.0,366.0,982.0,0.0,0,32.0,1
1404,1404,-0.7916148123600738,-0.8,0.0,1.0,449.0,681.0,1.0,0,480.0,1
1405,1405,-0.030588521204411134,-0.0,0.0,1.0,415.0,551.0,0.0,1,914.0,0
1406,1406,-0.46398533725384977,-0.5,1.0,0.0,388.0,954.0,0.0,0,-12.0,1
1407,1407,0.891945032446953,0.9,1.0,1.0,295.0,895.0,1.0,1,580.0,1
1408,1408,0.4221053684745696,0.4,1.0,1.0,435.0,805.0,0.0,0,260.0,0
1409,1409,-0.0129459455416443,-0.0,0.0,1.0,428.0,994.0,1.0,0,948.0,1
1410,1410,-0.1673815592162623,-0.2,1.0,0.0,373.0,506.0,0.0,0,281.0,1
1411,1411,-0.2870827953777487,-0.3,0.0,1.0,432.0,812.0,1.0,0,656.0,1
1412,1412,-0.3272502470409595,-0.3,0.0,1.0,253.0,904.0,0.0,1,443.0,0
1413,1413,0.7540856712999268,0.8,1.0,1.0,375.0,720.0,1.0,1,735.0,1
1414,1414,-0.10060727070786035,-0.1,0.0,1.0,358.0,569.0,0.0,1,633.0,0
1415,1415,-0.3037801998047932,-0.3,0.0,1.0,281.0,876.0,1.0,0,293.0,1
1416,1416,0.06347464425986304,0.1,0.0,0.0,474.0,739.0,0.0,1,577.0,1
1417,1417,0.07211924250553015,0.1,1.0,1.0,323.0,593.0,0.0,0,454.0,0
1418,1418,-0.8588273541153,-0.9,0.0,1.0,263.0,588.0,1.0,0,459.0,1
1419,1419,0.5862615018379688,0.6,1.0,1.0,323.0,917.0,1.0,1,450.0,1
1420,1420,-0.6152327324801383,-0.6,1.0,0.0,285.0,602.0,0.0,0,573.0,1
1421,1421,0.29137796619217327,0.3,0.0,0.0,287.0,992.0,0.0,1,671.0,1
1422,1422,-0.8875562701304837,-0.9,0.0,1.0,491.0,649.0,1.0,0,780.0,1
1423,1423,0.09006976046078885,0.1,0.0,0.0,439.0,662.0,0.0,1,609.0,1
1424,1424,0.40636054652216635,0.4,0.0,0.0,415.0,942.0,0.0,1,73.0,1
1425,1425,0.27182314198034374,0.3,0.0,0.0,496.0,626.0,0.0,1,828.0,1
1426,1426,0.8288352392112491,0.8,0.0,0.0,395.0,772.0,0.0,1,223.0,1
1427,1427,0.5473865455898078,0.5,0.0,0.0,339.0,713.0,0.0,1,418.0,1
1428,1428,0.8734870871882806,0.9,1.0,1.0,325.0,981.0,1.0,1,364.0,1
1429,1429,-0.6387408136447581,-0.6,0.0,1.0,403.0,884.0,1.0,0,283.0,1
1430,1430,-0.8425124178134006,-0.8,0.0,1.0,315.0,811.0,1.0,0,414.0,1
1431,1431,0.8967704938971109,0.9,1.0,1.0,287.0,899.0,1.0,1,224.0,1
1432,1432,0.8324527368534361,0.8,0.0,0.0,306.0,992.0,0.0,1,192.0,1
1433,1433,0.6006114296396009,0.6,1.0,1.0,440.0,890.0,0.0,0,170.0,0
1434,1434,0.43241266597432115,0.4,0.0,0.0,316.0,931.0,0.0,1,133.0,1
1435,1435,0.7528380028753195,0.8,0.0,0.0,422.0,999.0,0.0,1,229.0,1
1436,1436,0.4059136052268745,0.4,0.0,0.0,413.0,779.0,0.0,1,218.0,1
1437,1437,-0.8844683158196475,-0.9,0.0,1.0,439.0,759.0,1.0,0,122.0,1
1438,1438,0.6285482544838,0.6,0.0,0.0,409.0,746.0,0.0,1,415.0,1
1439,1439,-0.00634979842320782,-0.0,0.0,1.0,416.0,549.0,0.0,1,345.0,0
1440,1440,-0.6544983958113779,-0.7,0.0,1.0,468.0,629.0,1.0,0,753.0,1
1441,1441,0.8038973824743031,0.8,0.0,0.0,416.0,655.0,0.0,1,239.0,1
1442,1442,-0.6612505379479326,-0.7,1.0,0.0,492.0,540.0,0.0,0,388.0,1
1443,1443,-0.6803447936669598,-0.7,1.0,0.0,349.0,970.0,0.0,0,301.0,1
1444,1444,0.8901691259883097,0.9,1.0,1.0,442.0,863.0,1.0,1,475.0,1
1445,1445,-0.6737478248143096,-0.7,1.0,0.0,286.0,541.0,0.0,0,213.0,1
1446,1446,0.4926194258371074,0.5,0.0,0.0,385.0,884.0,0.0,1,301.0,1
1447,1447,0.4846660401948625,0.5,0.0,0.0,474.0,549.0,0.0,1,607.0,1
1448,1448,0.28345299067353336,0.3,1.0,1.0,398.0,579.0,1.0,1,573.0,1
1449,1449,-0.48504611814089205,-0.5,0.0,1.0,458.0,866.0,1.0,0,1636.0,1
1450,1450,0.6867584534450072,0.7,1.0,1.0,350.0,983.0,0.0,0,-23.0,0
1451,1451,0.6100174274705114,0.6,0.0,0.0,368.0,653.0,0.0,1,299.0,1
1452,1452,0.14546365310777098,0.1,1.0,1.0,301.0,505.0,1.0,1,1414.0,1
1453,1453,0.6056556335230391,0.6,1.0,1.0,370.0,653.0,1.0,1,217.0,1
1454,1454,-0.7576149712032623,-0.8,1.0,0.0,347.0,917.0,0.0,0,146.0,1
1455,1455,-0.8949195790946322,-0.9,0.0,1.0,473.0,768.0,1.0,0,599.0,1
1456,1456,-0.3608313876877567,-0.4,0.0,1.0,443.0,912.0,1.0,0,285.0,1
1457,1457,0.8624768777642918,0.9,0.0,0.0,451.0,508.0,0.0,1,1101.0,1
1458,1458,0.2244807244027608,0.2,0.0,0.0,257.0,785.0,0.0,1,208.0,1
1459,1459,0.4644598155808587,0.5,1.0,1.0,495.0,910.0,1.0,1,695.0,1
1460,1460,-0.8626232164928396,-0.9,1.0,0.0,437.0,532.0,0.0,0,401.0,1
1461,1461,0.48879893503513927,0.5,1.0,1.0,301.0,725.0,1.0,1,534.0,1
1462,1462,0.34935656316507824,0.3,0.0,0.0,273.0,819.0,0.0,1,728.0,1
1463,1463,-0.49879943948346356,-0.5,0.0,1.0,311.0,579.0,1.0,0,1300.0,1
1464,1464,-0.7715673636431475,-0.8,1.0,0.0,405.0,836.0,0.0,0,289.0,1
1465,1465,-0.8212282792192582,-0.8,0.0,1.0,492.0,961.0,0.0,1,77.0,0
1466,1466,-0.009975794992721498,-0.0,1.0,0.0,346.0,662.0,1.0,1,592.0,0
1467,1467,-0.6810087084171058,-0.7,0.0,1.0,389.0,909.0,1.0,0,382.0,1
1468,1468,-0.28734115278425143,-0.3,1.0,0.0,415.0,837.0,0.0,0,208.0,1
1469,1469,-0.08451815096431459,-0.1,0.0,1.0,338.0,783.0,1.0,0,979.0,1
1470,1470,0.8491349186270906,0.8,1.0,1.0,371.0,930.0,1.0,1,309.0,1
1471,1471,0.6120797520093445,0.6,1.0,1.0,303.0,649.0,0.0,0,358.0,0
1472,1472,0.8961196199952849,0.9,0.0,0.0,455.0,973.0,0.0,1,-108.0,1
1473,1473,-0.8323426661777775,-0.8,1.0,0.0,339.0,963.0,0.0,0,88.0,1
1474,1474,-0.3741629869042473,-0.4,0.0,1.0,468.0,605.0,0.0,1,547.0,0
1475,1475,0.47937783149146307,0.5,0.0,0.0,285.0,516.0,0.0,1,299.0,1
1476,1476,-0.5092875161605519,-0.5,0.0,1.0,442.0,696.0,1.0,0,352.0,1
1477,1477,-0.048570980416008824,-0.0,0.0,1.0,498.0,505.0,0.0,1,497.0,0
1478,1478,0.6476247216140297,0.6,0.0,0.0,435.0,848.0,0.0,1,227.0,1
1479,1479,0.2812869936664738,0.3,0.0,0.0,416.0,521.0,0.0,1,593.0,1
1480,1480,-0.4658392267697163,-0.5,1.0,0.0,365.0,995.0,0.0,0,380.0,1
1481,1481,-0.5422462436357729,-0.5,1.0,0.0,299.0,505.0,0.0,0,866.0,1
1482,1482,-0.3467299443797519,-0.3,0.0,1.0,280.0,771.0,1.0,0,2929.0,1
1483,1483,-0.3521898299511197,-0.4,1.0,0.0,415.0,545.0,0.0,0,1110.0,1
1484,1484,0.8030431113410098,0.8,1.0,1.0,320.0,603.0,1.0,1,667.0,1
1485,1485,0.6962211648331343,0.7,1.0,1.0,422.0,555.0,1.0,1,423.0,1
1486,1486,0.4528554622976514,0.5,1.0,1.0,430.0,687.0,1.0,1,233.0,1
1487,1487,0.6513721461333938,0.7,1.0,1.0,425.0,754.0,1.0,1,611.0,1
1488,1488,0.7057762963789379,0.7,1.0,1.0,498.0,739.0,1.0,1,593.0,1
1489,1489,0.435017109771498,0.4,1.0,1.0,394.0,756.0,1.0,1,460.0,1
1490,1490,0.38787019724750793,0.4,0.0,0.0,347.0,962.0,0.0,1,-29.0,1
1491,1491,0.03943398296271816,0.0,0.0,0.0,450.0,826.0,1.0,0,574.0,0
1492,1492,0.01659766009640551,0.0,0.0,0.0,374.0,743.0,1.0,0,343.0,0
1493,1493,0.4842030637772138,0.5,0.0,0.0,413.0,714.0,0.0,1,373.0,1
1494,1494,0.32140871553841277,0.3,0.0,0.0,338.0,993.0,0.0,1,-41.0,1
