,trial,coherence,coherence_bin,green_side,correct_side,target_onset,checker_onset,decision,green_decision,decision_time,correct_decision
0,0,-0.8168334576589115,-0.8,0.0,1.0,451.0,705.0,1.0,0,424.0,1
1,1,-0.3244620631052729,-0.3,1.0,0.0,416.0,964.0,0.0,0,550.0,1
2,2,-0.31580824701257937,-0.3,1.0,0.0,432.0,980.0,1.0,1,768.0,0
3,3,-0.7935935201370197,-0.8,1.0,0.0,486.0,907.0,0.0,0,537.0,1
4,4,0.5411476499842344,0.5,0.0,0.0,251.0,527.0,0.0,1,1002.0,1
5,5,-0.7632780085295466,-0.8,0.0,1.0,340.0,897.0,1.0,0,323.0,1
6,6,0.44822783594901183,0.4,1.0,1.0,402.0,783.0,1.0,1,185.0,1
7,7,0.8429259762962421,0.8,1.0,1.0,301.0,508.0,1.0,1,431.0,1
8,8,-0.4493963997626241,-0.4,0.0,1.0,366.0,802.0,1.0,0,132.0,1
9,9,-0.6460812258463117,-0.6,1.0,0.0,339.0,540.0,0.0,0,531.0,1
10,10,-0.3316451712236984,-0.3,0.0,1.0,427.0,624.0,1.0,0,2049.0,1
11,11,0.8486716328014846,0.8,0.0,0.0,286.0,864.0,0.0,1,510.0,1
12,12,-0.7738307566642488,-0.8,1.0,0.0,493.0,841.0,0.0,0,636.0,1
13,13,-0.175353483522373,-0.2,0.0,1.0,285.0,978.0,1.0,0,347.0,1
14,14,-0.4020215107441556,-0.4,0.0,1.0,274.0,647.0,0.0,1,579.0,0
15,15,-0.6046479732825457,-0.6,0.0,1.0,350.0,839.0,1.0,0,271.0,1
16,16,0.3016048751557846,0.3,0.0,0.0,331.0,703.0,0.0,1,686.0,1
17,17,0.6426631188580915,0.6,1.0,1.0,361.0,888.0,1.0,1,21.0,1
18,18,-0.13191943834530673,-0.1,1.0,0.0,477.0,858.0,0.0,0,675.0,1
19,19,0.4263588792433878,0.4,0.0,0.0,441.0,605.0,0.0,1,1464.0,1
20,20,0.05037444154671866,0.1,0.0,0.0,442.0,895.0,1.0,0,1993.0,0
21,21,-0.1799983207014575,-0.2,1.0,0.0,409.0,517.0,0.0,0,914.0,1
22,22,-0.6693125508816442,-0.7,0.0,1.0,484.0,651.0,1.0,0,725.0,1
23,23,-0.8865247719715603,-0.9,0.0,1.0,342.0,969.0,1.0,0,239.0,1
24,24,-0.5009487168206821,-0.5,0.0,1.0,453.0,899.0,1.0,0,238.0,1
25,25,0.7396030595596182,0.7,0.0,0.0,278.0,667.0,0.0,1,505.0,1
26,26,0.8451090081852489,0.8,0.0,0.0,308.0,980.0,0.0,1,102.0,1
27,27,0.776540325315474,0.8,0.0,0.0,470.0,783.0,0.0,1,217.0,1
28,28,0.7304198470331024,0.7,1.0,1.0,394.0,520.0,1.0,1,686.0,1
29,29,0.6025206342807027,0.6,0.0,0.0,455.0,833.0,0.0,1,522.0,1
30,30,-0.8873234041632821,-0.9,1.0,0.0,445.0,538.0,0.0,0,747.0,1
31,31,-0.19098860600909995,-0.2,1.0,0.0,251.0,613.0,1.0,1,816.0,0
32,32,-0.5861868142712718,-0.6,1.0,0.0,468.0,729.0,0.0,0,753.0,1
33,33,0.16676219388201263,0.2,0.0,0.0,316.0,799.0,0.0,1,155.0,1
34,34,0.8858405599058586,0.9,0.0,0.0,327.0,921.0,0.0,1,182.0,1
35,35,-0.5007885121445675,-0.5,0.0,1.0,274.0,804.0,1.0,0,662.0,1
36,36,0.730420556805995,0.7,0.0,0.0,327.0,893.0,0.0,1,410.0,1
37,37,0.48804625360429454,0.5,0.0,0.0,320.0,841.0,0.0,1,629.0,1
38,38,0.785191279883973,0.8,0.0,0.0,440.0,838.0,0.0,1,492.0,1
39,39,-0.8679507918037089,-0.9,0.0,1.0,430.0,662.0,1.0,0,458.0,1
40,40,0.19756135611622716,0.2,0.0,0.0,426.0,725.0,0.0,1,619.0,1
41,41,0.4756969738238862,0.5,0.0,0.0,476.0,821.0,0.0,1,453.0,1
42,42,0.6201971702444601,0.6,0.0,0.0,446.0,803.0,0.0,1,971.0,1
43,43,0.7761738372558388,0.8,0.0,0.0,391.0,657.0,0.0,1,632.0,1
44,44,0.07356292416903976,0.1,0.0,0.0,456.0,745.0,1.0,0,29.0,0
45,45,0.32414524617734763,0.3,0.0,0.0,290.0,920.0,0.0,1,990.0,1
46,46,-0.17783477133203962,-0.2,1.0,0.0,264.0,986.0,0.0,0,530.0,1
47,47,0.5766822601185894,0.6,0.0,0.0,412.0,956.0,0.0,1,1602.0,1
48,48,-0.5109325094894563,-0.5,0.0,1.0,265.0,933.0,1.0,0,522.0,1
49,49,-0.5054459149620573,-0.5,0.0,1.0,272.0,773.0,1.0,0,425.0,1
50,50,-0.43852710411807516,-0.4,0.0,1.0,265.0,550.0,1.0,0,475.0,1
51,51,0.7420743246038121,0.7,1.0,1.0,470.0,693.0,1.0,1,367.0,1
52,52,0.5929179381068906,0.6,0.0,0.0,318.0,856.0,0.0,1,226.0,1
53,53,0.16273834751976712,0.2,1.0,1.0,420.0,507.0,1.0,1,673.0,1
54,54,0.6522718226002936,0.7,1.0,1.0,348.0,875.0,1.0,1,167.0,1
55,55,-0.8740130580820814,-0.9,0.0,1.0,438.0,773.0,1.0,0,279.0,1
56,56,0.840642327097117,0.8,1.0,1.0,307.0,885.0,1.0,1,168.0,1
57,57,0.5508655797002934,0.6,1.0,1.0,368.0,831.0,1.0,1,701.0,1
58,58,-0.8895277283863204,-0.9,0.0,1.0,450.0,697.0,1.0,0,673.0,1
59,59,0.835940291938284,0.8,1.0,1.0,457.0,983.0,1.0,1,230.0,1
60,60,0.3010105130919528,0.3,0.0,0.0,252.0,546.0,1.0,0,452.0,0
61,61,-0.5489273879436387,-0.5,1.0,0.0,455.0,924.0,1.0,1,161.0,0
62,62,0.33392783936631487,0.3,0.0,0.0,337.0,736.0,0.0,1,497.0,1
63,63,0.4623212768002588,0.5,1.0,1.0,300.0,717.0,1.0,1,283.0,1
64,64,0.8933503873220209,0.9,1.0,1.0,371.0,979.0,1.0,1,250.0,1
65,65,0.07388217135224484,0.1,0.0,0.0,367.0,779.0,1.0,0,534.0,0
66,66,0.6388001425563458,0.6,0.0,0.0,494.0,638.0,0.0,1,508.0,1
67,67,-0.31490816021402135,-0.3,1.0,0.0,326.0,809.0,1.0,1,45.0,0
68,68,0.7122577616996818,0.7,1.0,1.0,316.0,536.0,1.0,1,638.0,1
69,69,-0.40669037867784036,-0.4,0.0,1.0,431.0,648.0,1.0,0,361.0,1
70,70,-0.8691390284182179,-0.9,0.0,1.0,326.0,989.0,1.0,0,255.0,1
71,71,-0.12162102762048232,-0.1,1.0,0.0,333.0,509.0,1.0,1,1038.0,0
72,72,-0.16492915307294942,-0.2,0.0,1.0,405.0,694.0,1.0,0,891.0,1
73,73,0.3466455555083202,0.3,1.0,1.0,314.0,745.0,1.0,1,661.0,1
74,74,-0.6424728383412153,-0.6,1.0,0.0,483.0,523.0,0.0,0,334.0,1
75,75,0.6736449040343934,0.7,0.0,0.0,266.0,514.0,0.0,1,450.0,1
76,76,-0.30408857028369496,-0.3,0.0,1.0,408.0,998.0,1.0,0,264.0,1
77,77,-0.8923197964219277,-0.9,0.0,1.0,282.0,541.0,1.0,0,687.0,1
78,78,-0.2205026702734263,-0.2,1.0,0.0,460.0,780.0,0.0,0,760.0,1
79,79,-0.26831358424761687,-0.3,0.0,1.0,254.0,567.0,0.0,1,1229.0,0
80,80,0.6886165571215178,0.7,0.0,0.0,372.0,997.0,0.0,1,331.0,1
81,81,0.841406271675233,0.8,0.0,0.0,308.0,605.0,1.0,0,97.0,0
82,82,-0.3713106985215643,-0.4,0.0,1.0,311.0,506.0,1.0,0,1913.0,1
83,83,0.8869682131337518,0.9,0.0,0.0,343.0,975.0,0.0,1,202.0,1
84,84,0.7638786984479383,0.8,1.0,1.0,410.0,770.0,1.0,1,300.0,1
85,85,0.617801845949559,0.6,1.0,1.0,274.0,903.0,1.0,1,213.0,1
86,86,-0.2826930467575791,-0.3,1.0,0.0,303.0,990.0,0.0,0,267.0,1
87,87,0.5017373991832598,0.5,1.0,1.0,409.0,604.0,1.0,1,617.0,1
88,88,0.7990580874512826,0.8,0.0,0.0,442.0,860.0,0.0,1,258.0,1
89,89,0.39472920754083385,0.4,1.0,1.0,358.0,806.0,1.0,1,466.0,1
90,90,-0.6768776199146798,-0.7,0.0,1.0,472.0,522.0,1.0,0,466.0,1
91,91,-0.2916335110348667,-0.3,0.0,1.0,470.0,916.0,0.0,1,724.0,0
92,92,-0.22057843804838972,-0.2,0.0,1.0,405.0,548.0,1.0,0,1277.0,1
93,93,-0.5187531617402852,-0.5,0.0,1.0,418.0,742.0,1.0,0,340.0,1
94,94,-0.3962103685891365,-0.4,0.0,1.0,473.0,883.0,1.0,0,434.0,1
95,95,0.777024821647733,0.8,0.0,0.0,285.0,628.0,0.0,1,317.0,1
96,96,-0.28792199949887665,-0.3,0.0,1.0,337.0,667.0,1.0,0,766.0,1
97,97,-0.4995032999498999,-0.5,1.0,0.0,354.0,718.0,0.0,0,238.0,1
98,98,0.03745398420198709,0.0,0.0,0.0,311.0,823.0,0.0,1,1336.0,1
99,99,0.4315838570417482,0.4,1.0,1.0,497.0,783.0,1.0,1,330.0,1
100,100,-0.19664012340622894,-0.2,0.0,1.0,453.0,831.0,1.0,0,1426.0,1
101,101,0.5039811017932859,0.5,1.0,1.0,389.0,724.0,1.0,1,447.0,1
102,102,-0.13595890607437555,-0.1,1.0,0.0,306.0,922.0,0.0,0,872.0,1
103,103,-0.46042289632559547,-0.5,1.0,0.0,494.0,955.0,1.0,1,101.0,0
104,104,0.5001112968149425,0.5,0.0,0.0,290.0,551.0,0.0,1,959.0,1
105,105,0.10020747821374287,0.1,1.0,1.0,487.0,501.0,1.0,1,1232.0,1
106,106,-0.851427313638565,-0.9,1.0,0.0,487.0,556.0,0.0,0,687.0,1
107,107,0.7146997136555714,0.7,1.0,1.0,321.0,973.0,1.0,1,216.0,1
108,108,0.2313651113317693,0.2,0.0,0.0,470.0,614.0,1.0,0,556.0,0
109,109,0.39001865191507445,0.4,0.0,0.0,355.0,702.0,0.0,1,433.0,1
110,110,0.2422371641086719,0.2,1.0,1.0,261.0,911.0,1.0,1,988.0,1
111,111,0.29725683909825673,0.3,1.0,1.0,433.0,898.0,1.0,1,229.0,1
112,112,-0.7838112759971038,-0.8,0.0,1.0,311.0,584.0,1.0,0,435.0,1
113,113,0.7058171429615584,0.7,0.0,0.0,321.0,973.0,0.0,1,256.0,1
114,114,-0.1844113406025606,-0.2,0.0,1.0,266.0,650.0,1.0,0,444.0,1
115,115,0.43746768593179175,0.4,0.0,0.0,321.0,937.0,0.0,1,282.0,1
116,116,0.36099326585835356,0.4,1.0,1.0,271.0,576.0,1.0,1,523.0,1
117,117,-0.5160646637974098,-0.5,0.0,1.0,373.0,744.0,1.0,0,763.0,1
118,118,0.7909551554964992,0.8,1.0,1.0,404.0,956.0,1.0,1,80.0,1
119,119,-0.6050002068239142,-0.6,0.0,1.0,362.0,852.0,1.0,0,476.0,1
120,120,-0.7743044020462906,-0.8,1.0,0.0,480.0,698.0,0.0,0,442.0,1
121,121,0.26795900386862026,0.3,1.0,1.0,317.0,704.0,1.0,1,899.0,1
122,122,0.13518780807071107,0.1,1.0,1.0,494.0,701.0,1.0,1,445.0,1
123,123,0.25743717716978,0.3,1.0,1.0,344.0,903.0,1.0,1,533.0,1
124,124,-0.24594676365670864,-0.2,0.0,1.0,390.0,603.0,1.0,0,787.0,1
125,125,-0.844166982366611,-0.8,1.0,0.0,363.0,757.0,0.0,0,230.0,1
126,126,0.514628344478908,0.5,0.0,0.0,428.0,942.0,0.0,1,320.0,1
127,127,-0.7259286360454178,-0.7,0.0,1.0,424.0,815.0,1.0,0,401.0,1
128,128,0.6322726575544432,0.6,1.0,1.0,470.0,587.0,1.0,1,693.0,1
129,129,0.6601072144024714,0.7,1.0,1.0,336.0,610.0,1.0,1,304.0,1
130,130,0.03739720069588548,0.0,0.0,0.0,459.0,752.0,1.0,0,1699.0,0
131,131,-0.5052250104536105,-0.5,1.0,0.0,350.0,547.0,0.0,0,523.0,1
132,132,0.8890173438095254,0.9,1.0,1.0,329.0,897.0,1.0,1,434.0,1
133,133,0.40845370234344014,0.4,0.0,0.0,367.0,845.0,0.0,1,368.0,1
134,134,0.18275978228659684,0.2,0.0,0.0,412.0,904.0,0.0,1,224.0,1
135,135,0.3893240108115249,0.4,0.0,0.0,374.0,668.0,0.0,1,798.0,1
136,136,-0.7095932245225041,-0.7,1.0,0.0,399.0,712.0,0.0,0,579.0,1
137,137,-0.8248105917774355,-0.8,0.0,1.0,323.0,912.0,1.0,0,175.0,1
138,138,0.3168877323489506,0.3,1.0,1.0,422.0,623.0,1.0,1,265.0,1
139,139,-0.018623288457705778,-0.0,0.0,1.0,398.0,935.0,1.0,0,387.0,1
140,140,0.22142654622152336,0.2,0.0,0.0,450.0,567.0,0.0,1,453.0,1
141,141,-0.03428702216118029,-0.0,1.0,0.0,476.0,606.0,1.0,1,718.0,0
142,142,-0.5255706005789409,-0.5,0.0,1.0,472.0,860.0,1.0,0,458.0,1
143,143,-0.7957287719753899,-0.8,0.0,1.0,417.0,662.0,1.0,0,351.0,1
144,144,-0.07271461831279269,-0.1,0.0,1.0,417.0,572.0,0.0,1,1121.0,0
145,145,-0.5029804172040643,-0.5,0.0,1.0,296.0,985.0,1.0,0,-81.0,1
146,146,-0.6803755632644914,-0.7,1.0,0.0,314.0,705.0,0.0,0,621.0,1
147,147,-0.8529650786104124,-0.9,1.0,0.0,496.0,920.0,0.0,0,224.0,1
148,148,0.3135290897360613,0.3,0.0,0.0,294.0,765.0,1.0,0,741.0,0
149,149,-0.41990418257872625,-0.4,1.0,0.0,458.0,878.0,0.0,0,804.0,1
150,150,0.1291123715041812,0.1,0.0,0.0,309.0,947.0,1.0,0,264.0,0
151,151,-0.25814534878200635,-0.3,1.0,0.0,365.0,561.0,0.0,0,1024.0,1
152,152,-0.013930274129912101,-0.0,1.0,0.0,375.0,522.0,1.0,1,603.0,0
153,153,-0.15183610584705887,-0.2,0.0,1.0,431.0,848.0,1.0,0,711.0,1
154,154,-0.0033346531650213507,-0.0,0.0,1.0,488.0,874.0,1.0,0,758.0,1
155,155,0.6208778816465349,0.6,1.0,1.0,349.0,825.0,1.0,1,336.0,1
156,156,0.8239634785059794,0.8,0.0,0.0,337.0,563.0,0.0,1,480.0,1
157,157,-0.2872267225711459,-0.3,0.0,1.0,295.0,807.0,1.0,0,288.0,1
158,158,0.0157033539997099,0.0,0.0,0.0,497.0,927.0,1.0,0,226.0,0
159,159,0.5910032769253187,0.6,1.0,1.0,429.0,526.0,1.0,1,1215.0,1
160,160,-0.5547657275545009,-0.6,0.0,1.0,434.0,704.0,1.0,0,252.0,1
161,161,-0.7692569553689521,-0.8,1.0,0.0,296.0,715.0,0.0,0,379.0,1
162,162,-0.343486122720596,-0.3,0.0,1.0,447.0,829.0,1.0,0,744.0,1
163,163,-0.024700852680769714,-0.0,0.0,1.0,276.0,843.0,1.0,0,541.0,1
164,164,-0.8602668578434743,-0.9,1.0,0.0,499.0,820.0,0.0,0,131.0,1
165,165,0.854598619684889,0.9,1.0,1.0,409.0,901.0,1.0,1,260.0,1
166,166,-0.05163607819781213,-0.1,1.0,0.0,496.0,711.0,0.0,0,1423.0,1
167,167,0.2618861812623602,0.3,0.0,0.0,456.0,512.0,0.0,1,1122.0,1
168,168,0.6666171562476416,0.7,0.0,0.0,311.0,735.0,0.0,1,804.0,1
169,169,-0.1108890972984038,-0.1,0.0,1.0,463.0,504.0,1.0,0,543.0,1
170,170,-0.7327916306873604,-0.7,0.0,1.0,352.0,592.0,1.0,0,566.0,1
171,171,-0.20596046083699215,-0.2,0.0,1.0,255.0,787.0,1.0,0,468.0,1
172,172,0.5301339873053202,0.5,0.0,0.0,482.0,692.0,0.0,1,866.0,1
173,173,0.8406887358338414,0.8,1.0,1.0,351.0,852.0,1.0,1,257.0,1
174,174,0.28317388560517853,0.3,0.0,0.0,330.0,785.0,0.0,1,625.0,1
175,175,-0.7089729270477003,-0.7,1.0,0.0,314.0,823.0,0.0,0,183.0,1
176,176,-0.4197065197739255,-0.4,1.0,0.0,364.0,605.0,0.0,0,901.0,1
177,177,0.0794870336794885,0.1,1.0,1.0,317.0,824.0,1.0,1,1689.0,1
178,178,0.7632989494554013,0.8,1.0,1.0,396.0,614.0,1.0,1,470.0,1
179,179,0.36252773518304593,0.4,0.0,0.0,320.0,630.0,0.0,1,2150.0,1
180,180,-0.286783067579068,-0.3,0.0,1.0,423.0,907.0,1.0,0,670.0,1
181,181,0.7883084745147618,0.8,0.0,0.0,392.0,862.0,0.0,1,316.0,1
182,182,-0.753740993854524,-0.8,1.0,0.0,306.0,713.0,0.0,0,621.0,1
183,183,-0.6441385486662741,-0.6,0.0,1.0,399.0,749.0,1.0,0,252.0,1
184,184,0.7823871680620064,0.8,0.0,0.0,465.0,616.0,0.0,1,1389.0,1
185,185,-0.7645562489029766,-0.8,0.0,1.0,294.0,958.0,1.0,0,248.0,1
186,186,-0.6694155150094068,-0.7,0.0,1.0,309.0,960.0,1.0,0,121.0,1
187,187,-0.6569399593483718,-0.7,0.0,1.0,432.0,664.0,1.0,0,744.0,1
188,188,0.05967187543660568,0.1,0.0,0.0,460.0,632.0,0.0,1,718.0,1
189,189,0.3996842611560233,0.4,0.0,0.0,487.0,591.0,0.0,1,342.0,1
190,190,-0.04450949215315647,-0.0,0.0,1.0,322.0,909.0,1.0,0,669.0,1
191,191,0.07170645818205268,0.1,1.0,1.0,312.0,904.0,1.0,1,2034.0,1
192,192,-0.8979037171510362,-0.9,1.0,0.0,251.0,838.0,0.0,0,691.0,1
193,193,-0.024193788130756455,-0.0,0.0,1.0,460.0,759.0,1.0,0,151.0,1
194,194,-0.6264604243135429,-0.6,0.0,1.0,295.0,540.0,1.0,0,435.0,1
195,195,-0.03521346735642761,-0.0,0.0,1.0,448.0,949.0,1.0,0,2023.0,1
196,196,0.7862756495006752,0.8,0.0,0.0,386.0,563.0,0.0,1,541.0,1
197,197,0.43451857276471106,0.4,1.0,1.0,273.0,774.0,1.0,1,633.0,1
198,198,0.8013481803800461,0.8,0.0,0.0,416.0,624.0,0.0,1,1410.0,1
199,199,0.8718786470310799,0.9,1.0,1.0,341.0,771.0,1.0,1,518.0,1
200,200,-0.6174559015682086,-0.6,0.0,1.0,362.0,580.0,1.0,0,278.0,1
201,201,0.1654243000366128,0.2,0.0,0.0,436.0,547.0,0.0,1,1677.0,1
202,202,-0.5859854746994935,-0.6,1.0,0.0,423.0,781.0,0.0,0,496.0,1
203,203,0.07127724529645907,0.1,1.0,1.0,298.0,777.0,1.0,1,355.0,1
204,204,0.1086247331560034,0.1,1.0,1.0,420.0,657.0,1.0,1,3923.0,1
205,205,-0.5552488513439438,-0.6,1.0,0.0,258.0,527.0,0.0,0,755.0,1
206,206,0.41701310002414027,0.4,1.0,1.0,317.0,676.0,1.0,1,767.0,1
207,207,-0.40812936598331795,-0.4,1.0,0.0,487.0,562.0,1.0,1,431.0,0
208,208,-0.6040806846634104,-0.6,1.0,0.0,463.0,719.0,0.0,0,768.0,1
209,209,-0.4151334274910436,-0.4,0.0,1.0,385.0,808.0,1.0,0,247.0,1
210,210,-0.7876741726764517,-0.8,0.0,1.0,483.0,967.0,1.0,0,140.0,1
211,211,-0.4221285637725267,-0.4,0.0,1.0,368.0,589.0,1.0,0,873.0,1
212,212,-0.43768019793796326,-0.4,1.0,0.0,492.0,788.0,0.0,0,1520.0,1
213,213,0.3074670047906348,0.3,1.0,1.0,459.0,527.0,1.0,1,1014.0,1
214,214,0.8918835595774911,0.9,1.0,1.0,479.0,841.0,1.0,1,320.0,1
215,215,-0.11014369053061401,-0.1,1.0,0.0,379.0,621.0,0.0,0,1060.0,1
216,216,0.6698922569321438,0.7,1.0,1.0,468.0,626.0,1.0,1,426.0,1
217,217,-0.28058214865941455,-0.3,0.0,1.0,263.0,561.0,1.0,0,606.0,1
218,218,-0.6256748418957043,-0.6,0.0,1.0,329.0,647.0,1.0,0,504.0,1
219,219,-0.1988110859235841,-0.2,0.0,1.0,480.0,583.0,0.0,1,897.0,0
220,220,0.7797787649968161,0.8,0.0,0.0,282.0,970.0,0.0,1,478.0,1
221,221,-0.37719994697766834,-0.4,0.0,1.0,265.0,758.0,1.0,0,467.0,1
222,222,0.37828468458288544,0.4,1.0,1.0,456.0,739.0,1.0,1,425.0,1
223,223,0.032622857979539344,0.0,1.0,1.0,347.0,744.0,0.0,0,629.0,0
224,224,0.7233689805532689,0.7,0.0,0.0,488.0,720.0,0.0,1,182.0,1
225,225,-0.25293168028595525,-0.3,1.0,0.0,289.0,876.0,0.0,0,85.0,1
226,226,0.8868745571131881,0.9,1.0,1.0,399.0,928.0,1.0,1,373.0,1
227,227,-0.16812404812028248,-0.2,0.0,1.0,367.0,648.0,0.0,1,815.0,0
228,228,-0.6540293344794842,-0.7,1.0,0.0,390.0,759.0,0.0,0,681.0,1
229,229,-0.8275334289483611,-0.8,0.0,1.0,448.0,984.0,1.0,0,798.0,1
230,230,0.6009895854026771,0.6,0.0,0.0,399.0,791.0,0.0,1,110.0,1
231,231,-0.7797415864334449,-0.8,0.0,1.0,467.0,870.0,1.0,0,363.0,1
232,232,0.4293465444533925,0.4,1.0,1.0,368.0,609.0,1.0,1,793.0,1
233,233,-0.3909064077911224,-0.4,1.0,0.0,317.0,810.0,0.0,0,403.0,1
234,234,-0.4766111962868313,-0.5,0.0,1.0,292.0,982.0,1.0,0,576.0,1
235,235,-0.27592145852043004,-0.3,1.0,0.0,275.0,755.0,1.0,1,740.0,0
236,236,0.8979950599387049,0.9,0.0,0.0,459.0,677.0,0.0,1,334.0,1
237,237,0.8139142565744174,0.8,0.0,0.0,391.0,940.0,0.0,1,309.0,1
238,238,0.4749032057883539,0.5,0.0,0.0,287.0,834.0,0.0,1,399.0,1
239,239,-0.021142484582715726,-0.0,1.0,0.0,350.0,638.0,0.0,0,1862.0,1
240,240,-0.034911910052189854,-0.0,1.0,0.0,333.0,833.0,1.0,1,1014.0,0
241,241,0.42572631982856424,0.4,1.0,1.0,309.0,524.0,1.0,1,957.0,1
242,242,-0.3589971952151496,-0.4,1.0,0.0,373.0,642.0,1.0,1,935.0,0
243,243,0.8076302243203551,0.8,0.0,0.0,405.0,771.0,0.0,1,384.0,1
244,244,0.21138020456102902,0.2,0.0,0.0,432.0,548.0,1.0,0,1000.0,0
245,245,0.25608273631851286,0.3,1.0,1.0,396.0,535.0,1.0,1,829.0,1
246,246,0.25253781686116816,0.3,0.0,0.0,253.0,892.0,0.0,1,-5.0,1
247,247,0.4693734659871699,0.5,0.0,0.0,330.0,934.0,0.0,1,476.0,1
248,248,-0.6334663217404939,-0.6,1.0,0.0,444.0,711.0,0.0,0,465.0,1
249,249,-0.19008802355088672,-0.2,1.0,0.0,268.0,661.0,0.0,0,741.0,1
250,250,0.1033965166016978,0.1,1.0,1.0,390.0,834.0,1.0,1,166.0,1
251,251,0.736143708764997,0.7,0.0,0.0,364.0,642.0,0.0,1,984.0,1
252,252,-0.40118120674886915,-0.4,0.0,1.0,320.0,740.0,1.0,0,460.0,1
253,253,0.3166411539379549,0.3,0.0,0.0,316.0,854.0,0.0,1,520.0,1
254,254,0.41703979831880467,0.4,1.0,1.0,257.0,880.0,1.0,1,593.0,1
255,255,-0.8911208257336697,-0.9,1.0,0.0,425.0,642.0,0.0,0,373.0,1
256,256,-0.5388740195996011,-0.5,0.0,1.0,286.0,818.0,1.0,0,286.0,1
257,257,-0.10400542205542007,-0.1,1.0,0.0,469.0,792.0,0.0,0,779.0,1
258,258,0.1731427412600849,0.2,0.0,0.0,279.0,880.0,0.0,1,201.0,1
259,259,0.725645216220456,0.7,1.0,1.0,406.0,981.0,1.0,1,383.0,1
260,260,-0.08785022460867142,-0.1,1.0,0.0,311.0,971.0,0.0,0,758.0,1
261,261,-0.6423589277091153,-0.6,0.0,1.0,275.0,708.0,1.0,0,537.0,1
262,262,-0.8232408385039824,-0.8,1.0,0.0,353.0,730.0,0.0,0,557.0,1
263,263,0.554673970583453,0.6,1.0,1.0,480.0,695.0,1.0,1,295.0,1
264,264,0.7782454120055541,0.8,1.0,1.0,454.0,742.0,1.0,1,214.0,1
265,265,-0.676526991400561,-0.7,0.0,1.0,475.0,851.0,1.0,0,374.0,1
266,266,0.5769447267059326,0.6,0.0,0.0,437.0,858.0,0.0,1,785.0,1
267,267,0.5102410212105001,0.5,1.0,1.0,358.0,629.0,1.0,1,813.0,1
268,268,0.5452881809065903,0.5,0.0,0.0,354.0,781.0,0.0,1,125.0,1
269,269,-0.18826252006407596,-0.2,1.0,0.0,331.0,941.0,0.0,0,1438.0,1
270,270,-0.1752157342853281,-0.2,1.0,0.0,416.0,503.0,0.0,0,1151.0,1
271,271,0.0949180831996389,0.1,1.0,1.0,292.0,795.0,1.0,1,493.0,1
272,272,0.09113622599545645,0.1,0.0,0.0,294.0,856.0,1.0,0,200.0,0
273,273,-0.2800578258927108,-0.3,0.0,1.0,396.0,876.0,0.0,1,438.0,0
274,274,0.8128878371554898,0.8,0.0,0.0,405.0,642.0,0.0,1,643.0,1
275,275,-0.5887069100512656,-0.6,0.0,1.0,371.0,651.0,1.0,0,578.0,1
276,276,0.6869563188608866,0.7,0.0,0.0,306.0,920.0,0.0,1,124.0,1
277,277,-0.12912415970834112,-0.1,0.0,1.0,435.0,880.0,1.0,0,365.0,1
278,278,0.7795391556068009,0.8,0.0,0.0,282.0,906.0,0.0,1,542.0,1
279,279,0.547936797395672,0.5,0.0,0.0,345.0,990.0,1.0,0,-115.0,0
280,280,0.5649779423575271,0.6,1.0,1.0,411.0,871.0,1.0,1,348.0,1
281,281,-0.4345293571050247,-0.4,1.0,0.0,464.0,658.0,0.0,0,418.0,1
282,282,0.2694391814745972,0.3,1.0,1.0,378.0,532.0,1.0,1,580.0,1
283,283,-0.3413467215395559,-0.3,1.0,0.0,331.0,967.0,0.0,0,502.0,1
284,284,0.10771681806261169,0.1,1.0,1.0,273.0,684.0,1.0,1,753.0,1
285,285,-0.13145981681355035,-0.1,1.0,0.0,419.0,952.0,0.0,0,209.0,1
286,286,-0.1603025395705444,-0.2,1.0,0.0,390.0,963.0,1.0,1,187.0,0
287,287,0.18421802432950074,0.2,1.0,1.0,377.0,852.0,1.0,1,291.0,1
288,288,-0.2803021683591548,-0.3,1.0,0.0,420.0,678.0,1.0,1,952.0,0
289,289,-0.010523867993427971,-0.0,1.0,0.0,485.0,750.0,1.0,1,465.0,0
290,290,0.16604985003737738,0.2,1.0,1.0,289.0,653.0,1.0,1,1148.0,1
291,291,0.7700061935513186,0.8,0.0,0.0,410.0,617.0,0.0,1,753.0,1
292,292,-0.025095476045839282,-0.0,0.0,1.0,274.0,877.0,1.0,0,329.0,1
293,293,-0.286769709417946,-0.3,1.0,0.0,332.0,571.0,0.0,0,1217.0,1
294,294,0.3519066384406141,0.4,0.0,0.0,498.0,711.0,0.0,1,601.0,1
295,295,0.5258988638521466,0.5,0.0,0.0,312.0,969.0,0.0,1,1079.0,1
296,296,0.2602509526944382,0.3,1.0,1.0,267.0,558.0,1.0,1,2005.0,1
297,297,0.29642892453270064,0.3,0.0,0.0,272.0,811.0,0.0,1,1687.0,1
298,298,0.639160319106821,0.6,1.0,1.0,459.0,837.0,1.0,1,434.0,1
299,299,-0.10458001958653806,-0.1,0.0,1.0,359.0,576.0,1.0,0,865.0,1
300,300,0.48454583439919896,0.5,0.0,0.0,469.0,517.0,0.0,1,764.0,1
301,301,-0.6052523560007625,-0.6,1.0,0.0,353.0,830.0,0.0,0,407.0,1
302,302,-0.5839701364677783,-0.6,1.0,0.0,272.0,503.0,0.0,0,925.0,1
303,303,0.4303389389783375,0.4,1.0,1.0,396.0,651.0,1.0,1,353.0,1
304,304,0.09247345501405413,0.1,1.0,1.0,446.0,708.0,1.0,1,146.0,1
305,305,0.7815225030792247,0.8,1.0,1.0,408.0,690.0,1.0,1,332.0,1
306,306,0.7625713968924291,0.8,0.0,0.0,334.0,573.0,0.0,1,783.0,1
307,307,0.24808783033279236,0.2,0.0,0.0,498.0,709.0,0.0,1,1633.0,1
308,308,0.4505235335925831,0.5,0.0,0.0,331.0,815.0,0.0,1,484.0,1
309,309,0.2348806326276044,0.2,1.0,1.0,484.0,518.0,1.0,1,478.0,1
310,310,-0.8590599250984726,-0.9,0.0,1.0,289.0,691.0,1.0,0,420.0,1
311,311,-0.38855027748333026,-0.4,0.0,1.0,342.0,636.0,1.0,0,312.0,1
312,312,0.12358958643867479,0.1,0.0,0.0,413.0,946.0,0.0,1,481.0,1
313,313,0.17379724348344083,0.2,0.0,0.0,469.0,871.0,0.0,1,610.0,1
314,314,-0.35094499743785024,-0.4,0.0,1.0,309.0,583.0,1.0,0,548.0,1
315,315,-0.4954587731402023,-0.5,1.0,0.0,385.0,550.0,0.0,0,595.0,1
316,316,0.6851707865418503,0.7,1.0,1.0,392.0,542.0,1.0,1,626.0,1
317,317,-0.1663339291163618,-0.2,0.0,1.0,473.0,720.0,1.0,0,527.0,1
318,318,0.8062152636549947,0.8,0.0,0.0,395.0,932.0,0.0,1,673.0,1
319,319,0.06014355666068183,0.1,0.0,0.0,496.0,939.0,0.0,1,1045.0,1
320,320,-0.17757924065341224,-0.2,0.0,1.0,302.0,988.0,1.0,0,510.0,1
321,321,0.8321684705406603,0.8,0.0,0.0,494.0,541.0,0.0,1,435.0,1
322,322,-0.7762765306242914,-0.8,1.0,0.0,482.0,890.0,0.0,0,648.0,1
323,323,0.6538826205443223,0.7,0.0,0.0,401.0,816.0,0.0,1,403.0,1
324,324,-0.39276167670673057,-0.4,1.0,0.0,401.0,651.0,0.0,0,1128.0,1
325,325,0.8809846967098559,0.9,1.0,1.0,310.0,920.0,1.0,1,540.0,1
326,326,-0.8289883747189541,-0.8,1.0,0.0,300.0,714.0,0.0,0,366.0,1
327,327,-0.29212200231752106,-0.3,0.0,1.0,444.0,555.0,1.0,0,951.0,1
328,328,-0.7184775677409857,-0.7,0.0,1.0,421.0,521.0,1.0,0,848.0,1
329,329,-0.04942930140691948,-0.0,1.0,0.0,334.0,892.0,1.0,1,524.0,0
330,330,-0.056367058307068785,-0.1,0.0,1.0,266.0,554.0,0.0,1,1780.0,0
331,331,0.8553237716924867,0.9,1.0,1.0,270.0,638.0,1.0,1,602.0,1
332,332,0.5849422618155827,0.6,1.0,1.0,451.0,841.0,1.0,1,158.0,1
333,333,0.5793177220887663,0.6,1.0,1.0,259.0,959.0,1.0,1,462.0,1
334,334,0.1378476816851767,0.1,0.0,0.0,424.0,862.0,1.0,0,464.0,0
335,335,0.10733368815009159,0.1,0.0,0.0,480.0,593.0,0.0,1,637.0,1
336,336,0.6150956543000957,0.6,1.0,1.0,457.0,913.0,1.0,1,360.0,1
337,337,0.1979272715185839,0.2,1.0,1.0,263.0,928.0,1.0,1,1159.0,1
338,338,-0.5964104876825839,-0.6,1.0,0.0,335.0,699.0,0.0,0,916.0,1
339,339,-0.3065373163395839,-0.3,0.0,1.0,317.0,783.0,1.0,0,550.0,1
340,340,-0.16771693258757114,-0.2,1.0,0.0,367.0,565.0,1.0,1,1048.0,0
341,341,-0.7652216284886311,-0.8,1.0,0.0,464.0,774.0,0.0,0,622.0,1
342,342,-0.5708972786953943,-0.6,1.0,0.0,361.0,519.0,0.0,0,1200.0,1
343,343,-0.5104643328870708,-0.5,1.0,0.0,448.0,699.0,0.0,0,393.0,1
344,344,-0.7377961514729441,-0.7,1.0,0.0,402.0,674.0,0.0,0,184.0,1
345,345,-0.32796170248166545,-0.3,1.0,0.0,374.0,642.0,0.0,0,594.0,1
346,346,0.8574883273732324,0.9,0.0,0.0,375.0,680.0,0.0,1,735.0,1
347,347,-0.26264952927551466,-0.3,1.0,0.0,413.0,575.0,0.0,0,802.0,1
348,348,0.7011750936923321,0.7,0.0,0.0,271.0,955.0,0.0,1,414.0,1
349,349,0.7302141391448637,0.7,0.0,0.0,335.0,994.0,0.0,1,351.0,1
350,350,-0.46940762362796873,-0.5,0.0,1.0,306.0,881.0,1.0,0,213.0,1
351,351,0.7043043331795008,0.7,0.0,0.0,279.0,873.0,0.0,1,558.0,1
352,352,-0.189336307671087,-0.2,0.0,1.0,433.0,624.0,1.0,0,1143.0,1
353,353,0.6060154544079045,0.6,0.0,0.0,270.0,803.0,0.0,1,497.0,1
354,354,-0.03010719525715999,-0.0,0.0,1.0,258.0,962.0,1.0,0,2310.0,1
355,355,0.30912686186103044,0.3,0.0,0.0,402.0,678.0,0.0,1,1930.0,1
356,356,0.3027429502809439,0.3,1.0,1.0,491.0,753.0,1.0,1,596.0,1
357,357,0.11226421870039227,0.1,0.0,0.0,417.0,951.0,0.0,1,732.0,1
358,358,-0.0914099562942291,-0.1,1.0,0.0,410.0,849.0,1.0,1,421.0,0
359,359,0.13446475549508274,0.1,1.0,1.0,458.0,653.0,1.0,1,1159.0,1
360,360,0.7050552324252289,0.7,0.0,0.0,350.0,831.0,0.0,1,269.0,1
361,361,-0.6057325577879267,-0.6,1.0,0.0,407.0,629.0,0.0,0,614.0,1
362,362,0.8685988518944522,0.9,0.0,0.0,479.0,944.0,0.0,1,347.0,1
363,363,-0.5797289377896426,-0.6,0.0,1.0,443.0,503.0,1.0,0,554.0,1
364,364,-0.6578708162396024,-0.7,1.0,0.0,458.0,898.0,1.0,1,274.0,0
365,365,0.8083886187135497,0.8,1.0,1.0,366.0,872.0,1.0,1,182.0,1
366,366,0.7767017865114575,0.8,1.0,1.0,392.0,559.0,1.0,1,559.0,1
367,367,0.37440933660671505,0.4,1.0,1.0,299.0,544.0,1.0,1,1147.0,1
368,368,0.5415877264696666,0.5,0.0,0.0,356.0,787.0,0.0,1,667.0,1
369,369,-0.1454203760810273,-0.1,1.0,0.0,376.0,845.0,0.0,0,1009.0,1
370,370,-0.5391276790181445,-0.5,1.0,0.0,365.0,905.0,0.0,0,110.0,1
371,371,0.10531838523190273,0.1,1.0,1.0,311.0,566.0,1.0,1,593.0,1
372,372,0.738367467436506,0.7,1.0,1.0,497.0,528.0,1.0,1,495.0,1
373,373,0.7457536771993213,0.7,1.0,1.0,268.0,794.0,1.0,1,248.0,1
374,374,-0.2607789443758587,-0.3,1.0,0.0,362.0,790.0,1.0,1,1238.0,0
375,375,-0.21157927152058198,-0.2,0.0,1.0,335.0,829.0,1.0,0,626.0,1
376,376,-0.10055709503435428,-0.1,1.0,0.0,470.0,569.0,0.0,0,401.0,1
377,377,0.7372025428970225,0.7,0.0,0.0,250.0,926.0,0.0,1,254.0,1
378,378,0.49815852030124674,0.5,1.0,1.0,402.0,921.0,0.0,0,477.0,0
379,379,0.5833718574596222,0.6,0.0,0.0,481.0,755.0,0.0,1,714.0,1
380,380,-0.2375824330020775,-0.2,0.0,1.0,277.0,735.0,1.0,0,198.0,1
381,381,-0.3824699320814714,-0.4,1.0,0.0,482.0,820.0,0.0,0,258.0,1
382,382,-0.19405519615220834,-0.2,1.0,0.0,395.0,777.0,1.0,1,338.0,0
383,383,0.2975145227375967,0.3,0.0,0.0,331.0,962.0,0.0,1,367.0,1
384,384,-0.8250952403541373,-0.8,0.0,1.0,422.0,640.0,1.0,0,548.0,1
385,385,-0.8519322885741815,-0.9,0.0,1.0,305.0,775.0,1.0,0,330.0,1
386,386,0.14029028988965553,0.1,0.0,0.0,435.0,617.0,1.0,0,898.0,0
387,387,-0.7122856549152748,-0.7,1.0,0.0,481.0,536.0,0.0,0,873.0,1
388,388,0.8943579802906442,0.9,1.0,1.0,380.0,588.0,1.0,1,392.0,1
389,389,0.19974434483012427,0.2,1.0,1.0,343.0,722.0,1.0,1,405.0,1
390,390,-0.027308374891253928,-0.0,0.0,1.0,488.0,522.0,0.0,1,1800.0,0
391,391,0.4009465961005926,0.4,1.0,1.0,445.0,764.0,1.0,1,1641.0,1
392,392,-0.057191255449368206,-0.1,1.0,0.0,439.0,779.0,1.0,1,292.0,0
393,393,0.7936789642274108,0.8,0.0,0.0,326.0,815.0,0.0,1,349.0,1
394,394,-0.8559314715291182,-0.9,0.0,1.0,337.0,590.0,1.0,0,423.0,1
395,395,-0.7814412016900876,-0.8,1.0,0.0,425.0,614.0,0.0,0,621.0,1
396,396,-0.48761673964639035,-0.5,1.0,0.0,427.0,840.0,0.0,0,643.0,1
397,397,0.663961188547037,0.7,0.0,0.0,331.0,510.0,0.0,1,449.0,1
398,398,0.7172331982944969,0.7,1.0,1.0,462.0,880.0,1.0,1,418.0,1
399,399,0.5690842084646669,0.6,1.0,1.0,487.0,865.0,1.0,1,1038.0,1
400,400,-0.1173874836857689,-0.1,0.0,1.0,362.0,558.0,0.0,1,710.0,0
401,401,0.31940906619680953,0.3,1.0,1.0,368.0,510.0,1.0,1,1092.0,1
402,402,-0.8123744978533602,-0.8,0.0,1.0,307.0,879.0,1.0,0,554.0,1
403,403,-0.8778676439513989,-0.9,0.0,1.0,334.0,905.0,1.0,0,321.0,1
404,404,0.7448356032034017,0.7,0.0,0.0,331.0,693.0,0.0,1,516.0,1
405,405,0.38991090025029107,0.4,0.0,0.0,410.0,669.0,0.0,1,611.0,1
406,406,0.4452427622501144,0.4,1.0,1.0,332.0,638.0,1.0,1,670.0,1
407,407,-0.13295180232084225,-0.1,1.0,0.0,414.0,594.0,1.0,1,532.0,0
408,408,0.5763820947660973,0.6,1.0,1.0,486.0,718.0,1.0,1,236.0,1
409,409,-0.8961932058396708,-0.9,0.0,1.0,307.0,623.0,1.0,0,350.0,1
410,410,-0.1466588833471414,-0.1,0.0,1.0,461.0,726.0,1.0,0,1703.0,1
411,411,-0.5959200313838999,-0.6,0.0,1.0,264.0,883.0,0.0,1,443.0,0
412,412,0.10460388613461491,0.1,0.0,0.0,455.0,600.0,1.0,0,485.0,0
413,413,-0.36623735126413004,-0.4,0.0,1.0,483.0,940.0,1.0,0,1157.0,1
414,414,-0.8167547831972859,-0.8,0.0,1.0,289.0,858.0,1.0,0,243.0,1
415,415,-0.24552322882374955,-0.2,0.0,1.0,262.0,953.0,1.0,0,225.0,1
416,416,0.16742717262756324,0.2,0.0,0.0,272.0,740.0,0.0,1,298.0,1
417,417,0.5062092697724773,0.5,0.0,0.0,460.0,521.0,0.0,1,859.0,1
418,418,0.18206804796364795,0.2,1.0,1.0,422.0,730.0,1.0,1,348.0,1
419,419,-0.07114261959115642,-0.1,0.0,1.0,463.0,567.0,0.0,1,720.0,0
420,420,0.32717327710399113,0.3,0.0,0.0,271.0,549.0,0.0,1,560.0,1
421,421,-0.6603272933893982,-0.7,1.0,0.0,406.0,796.0,0.0,0,548.0,1
422,422,0.674733985223991,0.7,0.0,0.0,276.0,932.0,0.0,1,202.0,1
423,423,0.16231548187345435,0.2,1.0,1.0,490.0,979.0,1.0,1,431.0,1
424,424,0.8731065610480123,0.9,0.0,0.0,326.0,749.0,0.0,1,275.0,1
425,425,-0.2608219732144481,-0.3,1.0,0.0,356.0,809.0,0.0,0,1775.0,1
426,426,-0.4908794836815844,-0.5,1.0,0.0,278.0,728.0,0.0,0,994.0,1
427,427,0.8164508195472954,0.8,1.0,1.0,455.0,503.0,1.0,1,912.0,1
428,428,0.05176693326370296,0.1,0.0,0.0,388.0,985.0,0.0,1,527.0,1
429,429,0.8597006317201604,0.9,1.0,1.0,338.0,668.0,1.0,1,214.0,1
430,430,-0.8333488762462372,-0.8,0.0,1.0,443.0,753.0,1.0,0,234.0,1
431,431,-0.42486395826647855,-0.4,1.0,0.0,280.0,574.0,0.0,0,1136.0,1
432,432,0.08413231521270959,0.1,0.0,0.0,445.0,691.0,0.0,1,254.0,1
433,433,-0.6569784912973906,-0.7,1.0,0.0,316.0,530.0,0.0,0,1184.0,1
434,434,-0.7650999090811017,-0.8,1.0,0.0,330.0,979.0,0.0,0,331.0,1
435,435,-0.4533731649086079,-0.5,1.0,0.0,251.0,530.0,0.0,0,849.0,1
436,436,-0.22019742994056946,-0.2,1.0,0.0,404.0,654.0,1.0,1,402.0,0
437,437,-0.5370491410554377,-0.5,1.0,0.0,271.0,636.0,0.0,0,543.0,1
438,438,-0.251045776766595,-0.3,1.0,0.0,321.0,672.0,1.0,1,597.0,0
439,439,-0.020152932180468097,-0.0,0.0,1.0,338.0,518.0,0.0,1,544.0,0
440,440,0.347354262161352,0.3,1.0,1.0,408.0,541.0,1.0,1,1331.0,1
441,441,-0.4795055207498195,-0.5,0.0,1.0,271.0,933.0,1.0,0,266.0,1
442,442,-0.7568339591789536,-0.8,1.0,0.0,299.0,684.0,0.0,0,577.0,1
443,443,0.48472014389419116,0.5,1.0,1.0,306.0,509.0,1.0,1,1005.0,1
444,444,-0.6694418186876286,-0.7,1.0,0.0,414.0,526.0,0.0,0,490.0,1
445,445,-0.6950836061094303,-0.7,1.0,0.0,344.0,695.0,0.0,0,631.0,1
446,446,-0.29704541943021956,-0.3,1.0,0.0,341.0,899.0,0.0,0,410.0,1
447,447,-0.8151064146871406,-0.8,1.0,0.0,393.0,994.0,0.0,0,113.0,1
448,448,0.2401064246551311,0.2,0.0,0.0,460.0,860.0,0.0,1,290.0,1
449,449,0.26805961276927215,0.3,0.0,0.0,471.0,942.0,0.0,1,687.0,1
450,450,-0.5338671417481833,-0.5,1.0,0.0,287.0,965.0,0.0,0,708.0,1
451,451,0.8789354365552676,0.9,0.0,0.0,490.0,803.0,0.0,1,457.0,1
452,452,-0.10291217511718986,-0.1,0.0,1.0,250.0,573.0,1.0,0,747.0,1
453,453,0.3697769203854012,0.4,1.0,1.0,256.0,906.0,1.0,1,598.0,1
454,454,-0.5490799080235305,-0.5,1.0,0.0,319.0,860.0,0.0,0,401.0,1
455,455,-0.7610340157231225,-0.8,1.0,0.0,495.0,737.0,0.0,0,578.0,1
456,456,-0.7960763648055408,-0.8,0.0,1.0,495.0,850.0,1.0,0,315.0,1
457,457,-0.020023407220925105,-0.0,1.0,0.0,251.0,997.0,1.0,1,32.0,0
458,458,0.4600739437598079,0.5,0.0,0.0,274.0,606.0,0.0,1,1970.0,1
459,459,-0.3852683629212956,-0.4,1.0,0.0,330.0,986.0,0.0,0,224.0,1
460,460,0.1575001036051752,0.2,1.0,1.0,460.0,631.0,1.0,1,849.0,1
461,461,-0.4056060115208454,-0.4,1.0,0.0,297.0,722.0,0.0,0,871.0,1
462,462,0.49661198717518984,0.5,0.0,0.0,437.0,946.0,0.0,1,1647.0,1
463,463,0.8114831009727222,0.8,1.0,1.0,421.0,679.0,1.0,1,360.0,1
464,464,0.6645493363374065,0.7,0.0,0.0,336.0,856.0,0.0,1,358.0,1
465,465,0.0713771513869601,0.1,0.0,0.0,487.0,878.0,1.0,0,-115.0,0
466,466,-0.589617816741589,-0.6,0.0,1.0,497.0,737.0,1.0,0,1056.0,1
467,467,0.12035999441079348,0.1,1.0,1.0,380.0,995.0,1.0,1,665.0,1
468,468,-0.5467140981027003,-0.5,0.0,1.0,480.0,675.0,1.0,0,265.0,1
469,469,0.46681599092985937,0.5,1.0,1.0,427.0,661.0,1.0,1,682.0,1
470,470,0.8153554693021957,0.8,1.0,1.0,426.0,920.0,1.0,1,164.0,1
471,471,0.7345960403944632,0.7,0.0,0.0,301.0,901.0,0.0,1,248.0,1
472,472,-0.23134895995752747,-0.2,0.0,1.0,476.0,527.0,1.0,0,387.0,1
473,473,-0.8026170951205434,-0.8,0.0,1.0,403.0,822.0,1.0,0,665.0,1
474,474,-0.6374515640604236,-0.6,0.0,1.0,321.0,908.0,0.0,1,431.0,0
475,475,0.8849147891181018,0.9,1.0,1.0,262.0,886.0,1.0,1,142.0,1
476,476,0.4364124982311207,0.4,1.0,1.0,337.0,830.0,1.0,1,453.0,1
477,477,-0.036091277211374506,-0.0,0.0,1.0,334.0,826.0,0.0,1,440.0,0
478,478,-0.48273796498540583,-0.5,1.0,0.0,415.0,909.0,0.0,0,1416.0,1
479,479,0.15345376684551904,0.2,1.0,1.0,496.0,792.0,1.0,1,1372.0,1
480,480,-0.5951239735230001,-0.6,1.0,0.0,413.0,650.0,0.0,0,407.0,1
481,481,-0.5080245611239049,-0.5,1.0,0.0,412.0,851.0,0.0,0,347.0,1
482,482,0.47779311230564725,0.5,0.0,0.0,364.0,560.0,0.0,1,1596.0,1
483,483,-0.6738987364391427,-0.7,0.0,1.0,334.0,736.0,1.0,0,290.0,1
484,484,0.5028376155175182,0.5,1.0,1.0,301.0,854.0,1.0,1,675.0,1
485,485,-0.6428004707297669,-0.6,0.0,1.0,390.0,902.0,1.0,0,188.0,1
486,486,-0.12392490097070152,-0.1,1.0,0.0,382.0,699.0,1.0,1,659.0,0
487,487,0.6640467071395549,0.7,0.0,0.0,397.0,805.0,0.0,1,588.0,1
488,488,0.36857907050531924,0.4,1.0,1.0,342.0,716.0,1.0,1,562.0,1
489,489,-0.12663673898579908,-0.1,1.0,0.0,361.0,705.0,1.0,1,1024.0,0
490,490,0.8249622029460585,0.8,1.0,1.0,417.0,756.0,1.0,1,377.0,1
491,491,-0.6901367151430134,-0.7,0.0,1.0,283.0,753.0,1.0,0,464.0,1
492,492,0.6083714277727089,0.6,1.0,1.0,272.0,821.0,1.0,1,297.0,1
493,493,-0.866480338344356,-0.9,0.0,1.0,382.0,616.0,1.0,0,552.0,1
494,494,-0.053609518387180866,-0.1,1.0,0.0,484.0,963.0,1.0,1,643.0,0
495,495,0.5997841047891371,0.6,1.0,1.0,251.0,808.0,1.0,1,251.0,1
496,496,0.7033159041252032,0.7,1.0,1.0,390.0,870.0,1.0,1,380.0,1
497,497,-0.5322699475566594,-0.5,0.0,1.0,292.0,927.0,1.0,0,371.0,1
498,498,0.5579745175205751,0.6,1.0,1.0,434.0,649.0,1.0,1,927.0,1
499,499,0.3741100015785085,0.4,0.0,0.0,471.0,887.0,0.0,1,302.0,1
500,500,0.43372721807074177,0.4,1.0,1.0,312.0,667.0,1.0,1,361.0,1
501,501,0.09380350510565616,0.1,0.0,0.0,287.0,619.0,0.0,1,504.0,1
502,502,0.04285034812542465,0.0,1.0,1.0,276.0,649.0,0.0,0,1415.0,0
503,503,0.21746731773832384,0.2,0.0,0.0,251.0,523.0,0.0,1,406.0,1
504,504,0.18149510715030315,0.2,1.0,1.0,413.0,518.0,1.0,1,819.0,1
505,505,-0.5843788630820632,-0.6,1.0,0.0,262.0,894.0,0.0,0,544.0,1
506,506,0.15540193968805116,0.2,0.0,0.0,410.0,960.0,1.0,0,1460.0,0
507,507,0.13158050071017702,0.1,0.0,0.0,461.0,950.0,0.0,1,829.0,1
508,508,0.22385267755741134,0.2,0.0,0.0,296.0,972.0,0.0,1,482.0,1
509,509,0.28676170173870175,0.3,1.0,1.0,371.0,791.0,1.0,1,538.0,1
510,510,-0.4681845500465745,-0.5,0.0,1.0,316.0,827.0,1.0,0,227.0,1
511,511,0.7338872817463612,0.7,1.0,1.0,395.0,975.0,0.0,0,10.0,0
512,512,0.5897017196593272,0.6,0.0,0.0,498.0,943.0,0.0,1,499.0,1
513,513,-0.4994217451685599,-0.5,0.0,1.0,395.0,852.0,1.0,0,403.0,1
514,514,-0.2617974836073528,-0.3,0.0,1.0,274.0,855.0,1.0,0,91.0,1
515,515,0.6328786496628044,0.6,1.0,1.0,271.0,633.0,1.0,1,606.0,1
516,516,0.5387639756652999,0.5,0.0,0.0,337.0,897.0,0.0,1,796.0,1
517,517,0.8791734739540639,0.9,0.0,0.0,437.0,933.0,0.0,1,140.0,1
518,518,0.3586982437245435,0.4,1.0,1.0,279.0,930.0,1.0,1,201.0,1
519,519,-0.6079100888724044,-0.6,0.0,1.0,271.0,850.0,1.0,0,699.0,1
520,520,0.4757201302745263,0.5,1.0,1.0,335.0,547.0,1.0,1,1158.0,1
521,521,0.3974997690947236,0.4,0.0,0.0,360.0,942.0,0.0,1,438.0,1
522,522,0.09147839159100624,0.1,0.0,0.0,355.0,933.0,1.0,0,252.0,0
523,523,-0.40068431853148445,-0.4,1.0,0.0,399.0,707.0,0.0,0,474.0,1
524,524,0.843610407146595,0.8,0.0,0.0,284.0,580.0,0.0,1,816.0,1
525,525,-0.6438401529004936,-0.6,0.0,1.0,315.0,557.0,1.0,0,1098.0,1
526,526,-0.5505430780468734,-0.6,1.0,0.0,396.0,718.0,0.0,0,856.0,1
527,527,0.8742267027407894,0.9,1.0,1.0,450.0,915.0,1.0,1,175.0,1
528,528,0.5427290076795196,0.5,1.0,1.0,253.0,781.0,1.0,1,816.0,1
529,529,-0.5244464368344286,-0.5,0.0,1.0,325.0,788.0,1.0,0,747.0,1
530,530,-0.8297072149419186,-0.8,0.0,1.0,475.0,578.0,1.0,0,657.0,1
531,531,0.36342485225084153,0.4,0.0,0.0,447.0,979.0,0.0,1,274.0,1
532,532,-0.4198968804911672,-0.4,0.0,1.0,253.0,823.0,1.0,0,724.0,1
533,533,-0.6823555994385029,-0.7,0.0,1.0,298.0,762.0,1.0,0,560.0,1
534,534,-0.641992389300569,-0.6,1.0,0.0,368.0,762.0,0.0,0,390.0,1
535,535,0.3860164322218341,0.4,0.0,0.0,329.0,937.0,0.0,1,354.0,1
536,536,0.47707990816289814,0.5,0.0,0.0,450.0,839.0,0.0,1,441.0,1
537,537,0.6440261477205885,0.6,1.0,1.0,338.0,510.0,1.0,1,1122.0,1
538,538,-0.08901289995442097,-0.1,1.0,0.0,439.0,956.0,1.0,1,395.0,0
539,539,0.6727000331513541,0.7,1.0,1.0,492.0,869.0,1.0,1,249.0,1
540,540,0.08790430810234273,0.1,0.0,0.0,379.0,605.0,1.0,0,916.0,0
541,541,0.6438845353955146,0.6,0.0,0.0,491.0,853.0,0.0,1,636.0,1
542,542,-0.018490907481789387,-0.0,1.0,0.0,474.0,757.0,1.0,1,349.0,0
543,543,-0.5339242015495105,-0.5,0.0,1.0,354.0,707.0,1.0,0,439.0,1
544,544,0.2711516631343055,0.3,1.0,1.0,367.0,710.0,1.0,1,543.0,1
545,545,0.742832106599261,0.7,1.0,1.0,297.0,719.0,1.0,1,374.0,1
546,546,0.6443399687076933,0.6,1.0,1.0,352.0,998.0,1.0,1,280.0,1
547,547,0.7240386301084493,0.7,1.0,1.0,351.0,626.0,1.0,1,773.0,1
548,548,-0.27724470461289796,-0.3,1.0,0.0,435.0,938.0,1.0,1,147.0,0
549,549,0.8132996522796069,0.8,0.0,0.0,426.0,899.0,0.0,1,395.0,1
550,550,-0.1368107955639949,-0.1,0.0,1.0,347.0,594.0,1.0,0,459.0,1
551,551,0.32177708001623573,0.3,0.0,0.0,499.0,720.0,0.0,1,341.0,1
552,552,0.4145295562319514,0.4,1.0,1.0,457.0,887.0,1.0,1,446.0,1
553,553,0.7260635946103379,0.7,0.0,0.0,281.0,890.0,0.0,1,669.0,1
554,554,-0.3935742412822071,-0.4,0.0,1.0,302.0,855.0,1.0,0,273.0,1
555,555,0.508880754317785,0.5,1.0,1.0,259.0,532.0,1.0,1,609.0,1
556,556,0.45748279365772804,0.5,1.0,1.0,269.0,774.0,1.0,1,477.0,1
557,557,-0.21949306606252972,-0.2,0.0,1.0,494.0,942.0,1.0,0,284.0,1
558,558,0.7646408990267931,0.8,0.0,0.0,299.0,727.0,0.0,1,724.0,1
559,559,-0.6884536719977908,-0.7,0.0,1.0,286.0,742.0,1.0,0,932.0,1
560,560,-0.7241199454768572,-0.7,0.0,1.0,391.0,943.0,1.0,0,396.0,1
561,561,-0.35390691464876145,-0.4,1.0,0.0,390.0,588.0,0.0,0,1052.0,1
562,562,-0.3143025478001963,-0.3,0.0,1.0,306.0,649.0,1.0,0,325.0,1
563,563,-0.5963521674156239,-0.6,0.0,1.0,422.0,959.0,1.0,0,519.0,1
564,564,-0.3029375578210751,-0.3,0.0,1.0,287.0,761.0,1.0,0,522.0,1
565,565,0.22453901386092923,0.2,1.0,1.0,361.0,997.0,0.0,0,92.0,0
566,566,0.20546892032215813,0.2,1.0,1.0,342.0,610.0,1.0,1,1018.0,1
567,567,0.21766802406300767,0.2,0.0,0.0,471.0,933.0,1.0,0,366.0,0
568,568,0.5070386217993951,0.5,1.0,1.0,300.0,946.0,1.0,1,434.0,1
569,569,-0.058513532804443824,-0.1,0.0,1.0,416.0,617.0,1.0,0,637.0,1
570,570,0.20754717312968374,0.2,1.0,1.0,381.0,812.0,1.0,1,317.0,1
571,571,0.6244639686192636,0.6,1.0,1.0,432.0,951.0,1.0,1,157.0,1
572,572,-0.33089211772718363,-0.3,1.0,0.0,264.0,991.0,1.0,1,765.0,0
573,573,-0.7053049463833906,-0.7,0.0,1.0,414.0,900.0,1.0,0,166.0,1
574,574,0.6061364444315446,0.6,1.0,1.0,368.0,901.0,1.0,1,391.0,1
575,575,0.43791683943130166,0.4,1.0,1.0,430.0,762.0,1.0,1,678.0,1
576,576,-0.061649995421220405,-0.1,1.0,0.0,271.0,919.0,1.0,1,710.0,0
577,577,0.5346091325154497,0.5,0.0,0.0,482.0,698.0,0.0,1,600.0,1
578,578,0.448103683727623,0.4,1.0,1.0,461.0,801.0,1.0,1,258.0,1
579,579,0.0413308565132573,0.0,0.0,0.0,375.0,749.0,1.0,0,916.0,0
580,580,0.5808983968134586,0.6,0.0,0.0,448.0,646.0,1.0,0,1086.0,0
581,581,0.5277472214972273,0.5,0.0,0.0,457.0,828.0,0.0,1,695.0,1
582,582,-0.27953055035353,-0.3,0.0,1.0,293.0,829.0,1.0,0,548.0,1
583,583,-0.727968167223571,-0.7,1.0,0.0,357.0,687.0,0.0,0,406.0,1
584,584,0.47358212289115886,0.5,1.0,1.0,346.0,990.0,1.0,1,124.0,1
585,585,0.24603654843564204,0.2,1.0,1.0,400.0,715.0,1.0,1,515.0,1
586,586,0.6524362699089826,0.7,1.0,1.0,456.0,598.0,1.0,1,426.0,1
587,587,-0.49720603876646596,-0.5,0.0,1.0,397.0,636.0,1.0,0,637.0,1
588,588,0.6371035946206945,0.6,1.0,1.0,403.0,807.0,1.0,1,440.0,1
589,589,0.10544510137721186,0.1,0.0,0.0,451.0,827.0,1.0,0,612.0,0
590,590,0.41379945937520024,0.4,0.0,0.0,495.0,756.0,0.0,1,1349.0,1
591,591,0.2242075435533738,0.2,0.0,0.0,296.0,519.0,0.0,1,2045.0,1
592,592,-0.7945580282008308,-0.8,0.0,1.0,490.0,685.0,1.0,0,475.0,1
593,593,0.24955938857397852,0.2,1.0,1.0,487.0,583.0,1.0,1,1060.0,1
594,594,0.1364845288593196,0.1,1.0,1.0,425.0,880.0,1.0,1,1045.0,1
595,595,-0.8108574809872412,-0.8,1.0,0.0,490.0,528.0,0.0,0,382.0,1
596,596,-0.657343097128088,-0.7,0.0,1.0,466.0,996.0,1.0,0,268.0,1
597,597,0.5631143614030126,0.6,0.0,0.0,260.0,536.0,0.0,1,324.0,1
598,598,0.15438415780640036,0.2,1.0,1.0,378.0,716.0,0.0,0,546.0,0
599,599,-0.2274755446820964,-0.2,0.0,1.0,400.0,588.0,1.0,0,1162.0,1
600,600,0.8065730491442747,0.8,1.0,1.0,478.0,975.0,1.0,1,567.0,1
601,601,0.5496807794526203,0.5,1.0,1.0,309.0,674.0,1.0,1,597.0,1
602,602,0.6443947544368541,0.6,1.0,1.0,265.0,935.0,1.0,1,360.0,1
603,603,0.825851219092307,0.8,0.0,0.0,472.0,723.0,0.0,1,485.0,1
604,604,0.8823358237604316,0.9,0.0,0.0,316.0,927.0,0.0,1,337.0,1
605,605,-0.8526677048044267,-0.9,1.0,0.0,394.0,657.0,0.0,0,759.0,1
606,606,0.33028066603106054,0.3,1.0,1.0,458.0,672.0,1.0,1,530.0,1
607,607,-0.347591419034355,-0.3,0.0,1.0,275.0,771.0,1.0,0,354.0,1
608,608,-0.8511697594559856,-0.9,0.0,1.0,338.0,967.0,1.0,0,185.0,1
609,609,0.44898341469076,0.4,0.0,0.0,355.0,782.0,0.0,1,333.0,1
610,610,-0.042826363046262195,-0.0,1.0,0.0,489.0,529.0,0.0,0,842.0,1
611,611,0.893314069517991,0.9,0.0,0.0,419.0,774.0,0.0,1,157.0,1
612,612,-0.5871590838305991,-0.6,1.0,0.0,260.0,953.0,1.0,1,107.0,0
613,613,0.6114646183844564,0.6,1.0,1.0,273.0,593.0,1.0,1,494.0,1
614,614,0.4110972712890829,0.4,0.0,0.0,400.0,937.0,0.0,1,663.0,1
615,615,0.2405245313373453,0.2,1.0,1.0,484.0,690.0,0.0,0,1466.0,0
616,616,0.7492627897681506,0.7,0.0,0.0,300.0,608.0,0.0,1,392.0,1
617,617,-0.6519394512599452,-0.7,0.0,1.0,433.0,651.0,1.0,0,126.0,1
618,618,0.42865103036391383,0.4,1.0,1.0,350.0,871.0,1.0,1,209.0,1
619,619,0.2957216418964278,0.3,0.0,0.0,455.0,906.0,1.0,0,309.0,0
620,620,-0.47651586913585336,-0.5,1.0,0.0,261.0,701.0,0.0,0,858.0,1
621,621,0.31916821710406496,0.3,1.0,1.0,410.0,623.0,1.0,1,647.0,1
622,622,-0.08358804432758149,-0.1,1.0,0.0,353.0,664.0,1.0,1,2213.0,0
623,623,0.801889244603386,0.8,1.0,1.0,355.0,998.0,1.0,1,167.0,1
624,624,-0.6311573249186148,-0.6,0.0,1.0,279.0,859.0,1.0,0,262.0,1
625,625,-0.09722810895157163,-0.1,1.0,0.0,308.0,991.0,1.0,1,1041.0,0
626,626,-0.8677552315120266,-0.9,1.0,0.0,381.0,545.0,0.0,0,394.0,1
627,627,-0.02148058221632576,-0.0,0.0,1.0,428.0,782.0,0.0,1,290.0,0
628,628,-0.6394151213379085,-0.6,1.0,0.0,324.0,731.0,0.0,0,435.0,1
629,629,-0.35756488316558876,-0.4,0.0,1.0,401.0,974.0,1.0,0,255.0,1
630,630,0.2527864811505883,0.3,1.0,1.0,290.0,723.0,1.0,1,787.0,1
631,631,-0.08693340223745172,-0.1,1.0,0.0,328.0,715.0,0.0,0,397.0,1
632,632,-0.5272537545384512,-0.5,1.0,0.0,253.0,552.0,0.0,0,1225.0,1
633,633,0.7086195990164451,0.7,0.0,0.0,275.0,602.0,0.0,1,843.0,1
634,634,0.37466378916401044,0.4,0.0,0.0,315.0,854.0,1.0,0,421.0,0
635,635,-0.872113965376911,-0.9,0.0,1.0,313.0,657.0,1.0,0,230.0,1
636,636,-0.4176797360991653,-0.4,0.0,1.0,379.0,822.0,1.0,0,519.0,1
637,637,0.4283042432765559,0.4,0.0,0.0,408.0,803.0,0.0,1,349.0,1
638,638,-0.2154055307680064,-0.2,0.0,1.0,472.0,876.0,1.0,0,412.0,1
639,639,0.709087965612642,0.7,0.0,0.0,315.0,581.0,0.0,1,884.0,1
640,640,0.14965800111220207,0.1,0.0,0.0,404.0,769.0,1.0,0,7.0,0
641,641,0.027920447534757087,0.0,1.0,1.0,400.0,984.0,1.0,1,296.0,1
642,642,0.33415468439341767,0.3,0.0,0.0,251.0,989.0,1.0,0,-40.0,0
643,643,0.19633587620289583,0.2,0.0,0.0,262.0,624.0,0.0,1,884.0,1
644,644,0.431008912932488,0.4,0.0,0.0,363.0,513.0,0.0,1,504.0,1
645,645,-0.4040837819945021,-0.4,0.0,1.0,304.0,988.0,0.0,1,128.0,0
646,646,-0.6859372435083396,-0.7,1.0,0.0,361.0,952.0,0.0,0,527.0,1
647,647,-0.07208324640302277,-0.1,1.0,0.0,406.0,998.0,0.0,0,696.0,1
648,648,-0.8082215238631062,-0.8,0.0,1.0,319.0,710.0,1.0,0,441.0,1
649,649,-0.6008066744267451,-0.6,1.0,0.0,485.0,665.0,0.0,0,740.0,1
650,650,0.28683147840422707,0.3,1.0,1.0,338.0,534.0,1.0,1,458.0,1
651,651,-0.6421251279537492,-0.6,0.0,1.0,400.0,785.0,1.0,0,495.0,1
652,652,-0.026812651075744154,-0.0,1.0,0.0,330.0,934.0,1.0,1,1236.0,0
653,653,-0.46507119210094977,-0.5,0.0,1.0,306.0,802.0,1.0,0,352.0,1
654,654,0.4300713298487172,0.4,0.0,0.0,424.0,735.0,0.0,1,231.0,1
655,655,0.43775749326103097,0.4,1.0,1.0,273.0,545.0,1.0,1,722.0,1
656,656,-0.6600156023529451,-0.7,0.0,1.0,285.0,949.0,1.0,0,426.0,1
657,657,-0.17993052011354516,-0.2,1.0,0.0,361.0,540.0,0.0,0,709.0,1
658,658,0.12624804856486727,0.1,0.0,0.0,259.0,518.0,0.0,1,843.0,1
659,659,-0.12432525774558822,-0.1,0.0,1.0,359.0,640.0,1.0,0,621.0,1
660,660,0.4259595868485023,0.4,1.0,1.0,350.0,500.0,1.0,1,1160.0,1
661,661,-0.09142567187539052,-0.1,1.0,0.0,324.0,932.0,1.0,1,324.0,0
662,662,-0.8883852483263258,-0.9,1.0,0.0,306.0,646.0,0.0,0,638.0,1
663,663,-0.7912035826384736,-0.8,0.0,1.0,308.0,537.0,1.0,0,635.0,1
664,664,0.16704991040824269,0.2,1.0,1.0,391.0,933.0,1.0,1,516.0,1
665,665,0.6499382496533207,0.6,1.0,1.0,419.0,631.0,1.0,1,850.0,1
666,666,0.2273860209346953,0.2,1.0,1.0,494.0,706.0,1.0,1,320.0,1
667,667,0.844427730860814,0.8,1.0,1.0,285.0,847.0,1.0,1,258.0,1
668,668,0.7025285188551548,0.7,1.0,1.0,469.0,579.0,1.0,1,412.0,1
669,669,-0.05478948278725815,-0.1,1.0,0.0,280.0,879.0,1.0,1,851.0,0
670,670,0.05228198565050224,0.1,0.0,0.0,282.0,684.0,1.0,0,544.0,0
671,671,0.6649382472728024,0.7,0.0,0.0,497.0,904.0,0.0,1,389.0,1
672,672,-0.24044122523758427,-0.2,1.0,0.0,467.0,839.0,1.0,1,464.0,0
673,673,-0.2086248260291641,-0.2,0.0,1.0,383.0,741.0,1.0,0,616.0,1
674,674,0.28712347564178586,0.3,1.0,1.0,285.0,646.0,1.0,1,459.0,1
675,675,0.27336159608050725,0.3,1.0,1.0,456.0,814.0,1.0,1,850.0,1
676,676,0.5620600921064235,0.6,1.0,1.0,493.0,941.0,1.0,1,436.0,1
677,677,0.653957417238869,0.7,0.0,0.0,296.0,893.0,0.0,1,491.0,1
678,678,-0.7699618271596733,-0.8,1.0,0.0,289.0,826.0,0.0,0,715.0,1
679,679,0.5605061683348541,0.6,1.0,1.0,451.0,938.0,1.0,1,231.0,1
680,680,-0.16498477680647405,-0.2,0.0,1.0,358.0,722.0,1.0,0,420.0,1
681,681,-0.4904611952920506,-0.5,0.0,1.0,405.0,724.0,1.0,0,601.0,1
682,682,-0.28952334387300127,-0.3,0.0,1.0,499.0,997.0,1.0,0,-16.0,1
683,683,0.27189441686924376,0.3,1.0,1.0,270.0,508.0,1.0,1,392.0,1
684,684,-0.32482880414289017,-0.3,0.0,1.0,296.0,861.0,1.0,0,943.0,1
685,685,-0.5235686606711152,-0.5,1.0,0.0,302.0,746.0,0.0,0,832.0,1
686,686,0.3749013835577518,0.4,0.0,0.0,339.0,682.0,0.0,1,1109.0,1
687,687,0.02140543579040266,0.0,1.0,1.0,313.0,943.0,1.0,1,844.0,1
688,688,-0.6302468805794423,-0.6,0.0,1.0,297.0,797.0,1.0,0,456.0,1
689,689,-0.22590326210352618,-0.2,1.0,0.0,368.0,591.0,1.0,1,571.0,0
690,690,-0.7573246498865798,-0.8,0.0,1.0,411.0,906.0,1.0,0,1313.0,1
691,691,0.494541529412757,0.5,1.0,1.0,468.0,880.0,1.0,1,992.0,1
692,692,0.7651460715895043,0.8,1.0,1.0,253.0,518.0,1.0,1,489.0,1
693,693,-0.03721713662669879,-0.0,1.0,0.0,289.0,728.0,1.0,1,323.0,0
694,694,0.87965719191079,0.9,0.0,0.0,495.0,690.0,0.0,1,635.0,1
695,695,0.16989101321970612,0.2,1.0,1.0,321.0,727.0,1.0,1,912.0,1
696,696,-0.6746673272870922,-0.7,0.0,1.0,487.0,584.0,1.0,0,399.0,1
697,697,-0.4202049387298481,-0.4,0.0,1.0,468.0,730.0,1.0,0,512.0,1
698,698,0.5927840323718906,0.6,0.0,0.0,327.0,899.0,0.0,1,944.0,1
699,699,0.6309820031026608,0.6,1.0,1.0,370.0,630.0,1.0,1,770.0,1
700,700,-0.5521625536477224,-0.6,1.0,0.0,297.0,537.0,0.0,0,686.0,1
701,701,0.2176564615259008,0.2,1.0,1.0,312.0,923.0,1.0,1,195.0,1
702,702,-0.5784441069099013,-0.6,0.0,1.0,305.0,898.0,1.0,0,427.0,1
703,703,0.280782294845075,0.3,0.0,0.0,326.0,549.0,1.0,0,1185.0,0
704,704,0.8230411037494733,0.8,0.0,0.0,254.0,986.0,0.0,1,100.0,1
705,705,0.7261179244244759,0.7,0.0,0.0,461.0,939.0,1.0,0,-50.0,0
706,706,0.6855455710309796,0.7,0.0,0.0,364.0,524.0,0.0,1,932.0,1
707,707,-0.11260940554872767,-0.1,1.0,0.0,348.0,968.0,0.0,0,134.0,1
708,708,0.24614037742725892,0.2,1.0,1.0,373.0,776.0,1.0,1,511.0,1
709,709,-0.35995644891216283,-0.4,0.0,1.0,303.0,727.0,1.0,0,660.0,1
710,710,0.8567473524987749,0.9,0.0,0.0,351.0,964.0,0.0,1,295.0,1
711,711,0.6157168011082134,0.6,0.0,0.0,326.0,712.0,0.0,1,492.0,1
712,712,-0.13638752202348903,-0.1,1.0,0.0,286.0,899.0,1.0,1,405.0,0
713,713,0.3834364517356762,0.4,0.0,0.0,396.0,610.0,1.0,0,834.0,0
714,714,0.7582959161146715,0.8,0.0,0.0,259.0,705.0,0.0,1,406.0,1
715,715,-0.5917331304709346,-0.6,1.0,0.0,407.0,782.0,0.0,0,621.0,1
716,716,-0.5473152047016461,-0.5,1.0,0.0,328.0,741.0,0.0,0,671.0,1
717,717,0.6017810168068468,0.6,0.0,0.0,294.0,550.0,0.0,1,1546.0,1
718,718,0.49604694477998323,0.5,1.0,1.0,425.0,800.0,1.0,1,285.0,1
719,719,-0.6859704536684453,-0.7,0.0,1.0,421.0,508.0,1.0,0,511.0,1
720,720,-0.388090115788151,-0.4,0.0,1.0,281.0,547.0,1.0,0,732.0,1
721,721,-0.758993272281264,-0.8,1.0,0.0,462.0,780.0,0.0,0,348.0,1
722,722,0.33726574090082473,0.3,0.0,0.0,343.0,593.0,0.0,1,654.0,1
723,723,0.4931324714471682,0.5,0.0,0.0,404.0,518.0,0.0,1,1068.0,1
724,724,-0.07329843675222136,-0.1,1.0,0.0,420.0,953.0,1.0,1,647.0,0
725,725,0.1876071672920595,0.2,0.0,0.0,278.0,916.0,0.0,1,2016.0,1
726,726,-0.20358745718939597,-0.2,0.0,1.0,388.0,753.0,1.0,0,669.0,1
727,727,0.19774874431570033,0.2,1.0,1.0,411.0,929.0,0.0,0,500.0,0
728,728,-0.04245447645255396,-0.0,0.0,1.0,373.0,888.0,1.0,0,199.0,1
729,729,0.3705589282030669,0.4,1.0,1.0,264.0,734.0,1.0,1,442.0,1
730,730,0.5048167212990297,0.5,0.0,0.0,330.0,617.0,0.0,1,1043.0,1
731,731,-0.5294441777826701,-0.5,1.0,0.0,378.0,870.0,0.0,0,652.0,1
732,732,0.6932098525780354,0.7,1.0,1.0,269.0,870.0,1.0,1,431.0,1
733,733,-0.03483151798110273,-0.0,1.0,0.0,477.0,507.0,0.0,0,646.0,1
734,734,-0.30796586078632293,-0.3,0.0,1.0,384.0,517.0,1.0,0,1139.0,1
735,735,0.6321873867023248,0.6,0.0,0.0,492.0,548.0,0.0,1,810.0,1
736,736,-0.5856092659602495,-0.6,0.0,1.0,298.0,624.0,1.0,0,428.0,1
737,737,0.41429597366218995,0.4,0.0,0.0,335.0,508.0,0.0,1,747.0,1
738,738,-0.6349033697739241,-0.6,1.0,0.0,382.0,905.0,0.0,0,813.0,1
739,739,0.4660669754504919,0.5,0.0,0.0,347.0,974.0,0.0,1,1089.0,1
740,740,-0.17779248498528044,-0.2,0.0,1.0,281.0,656.0,1.0,0,153.0,1
741,741,-0.19443266624482647,-0.2,0.0,1.0,282.0,553.0,1.0,0,815.0,1
742,742,-0.4096736690811225,-0.4,0.0,1.0,348.0,549.0,1.0,0,863.0,1
743,743,-0.7892713781465275,-0.8,0.0,1.0,386.0,791.0,1.0,0,423.0,1
744,744,0.2972322014526526,0.3,1.0,1.0,313.0,999.0,1.0,1,88.0,1
745,745,-0.015007375363191966,-0.0,0.0,1.0,431.0,864.0,0.0,1,285.0,0
746,746,0.3782656834348014,0.4,1.0,1.0,432.0,707.0,1.0,1,441.0,1
747,747,0.5314209242483504,0.5,0.0,0.0,250.0,897.0,0.0,1,243.0,1
748,748,0.3500745594352407,0.4,0.0,0.0,369.0,694.0,0.0,1,567.0,1
749,749,0.39732884746817276,0.4,1.0,1.0,420.0,572.0,1.0,1,628.0,1
750,750,-0.19427384297312367,-0.2,0.0,1.0,385.0,803.0,1.0,0,472.0,1
751,751,0.5968604902688942,0.6,0.0,0.0,300.0,844.0,0.0,1,816.0,1
752,752,-0.3039552857154637,-0.3,0.0,1.0,339.0,575.0,0.0,1,416.0,0
753,753,0.6248030457588151,0.6,0.0,0.0,268.0,940.0,0.0,1,212.0,1
754,754,0.5402719776895711,0.5,1.0,1.0,460.0,771.0,1.0,1,329.0,1
755,755,-0.7298884534030832,-0.7,0.0,1.0,340.0,730.0,1.0,0,330.0,1
756,756,-0.7904407005315452,-0.8,0.0,1.0,452.0,723.0,1.0,0,75.0,1
757,757,0.5586149019695538,0.6,0.0,0.0,495.0,893.0,1.0,0,1832.0,0
758,758,0.7956467919832816,0.8,1.0,1.0,302.0,638.0,1.0,1,720.0,1
759,759,-0.7715596886432428,-0.8,0.0,1.0,338.0,917.0,1.0,0,135.0,1
760,760,-0.1892815736633534,-0.2,0.0,1.0,308.0,820.0,1.0,0,582.0,1
761,761,-0.38250106538221484,-0.4,0.0,1.0,355.0,709.0,1.0,0,1176.0,1
762,762,-0.4407372312127678,-0.4,0.0,1.0,441.0,840.0,1.0,0,889.0,1
763,763,0.7496278377857882,0.7,1.0,1.0,338.0,512.0,1.0,1,620.0,1
764,764,-0.17663053825250186,-0.2,0.0,1.0,280.0,872.0,1.0,0,118.0,1
765,765,0.4837172187485511,0.5,1.0,1.0,327.0,529.0,1.0,1,374.0,1
766,766,-0.32862401164178856,-0.3,1.0,0.0,338.0,871.0,1.0,1,1.0,0
767,767,0.4345492386403439,0.4,1.0,1.0,375.0,737.0,0.0,0,828.0,0
768,768,-0.018245065187750265,-0.0,0.0,1.0,445.0,715.0,1.0,0,1090.0,1
769,769,0.8258600140728635,0.8,1.0,1.0,452.0,917.0,1.0,1,181.0,1
770,770,-0.43438968153702445,-0.4,1.0,0.0,394.0,644.0,0.0,0,972.0,1
771,771,-0.83648737642849,-0.8,1.0,0.0,460.0,810.0,0.0,0,280.0,1
772,772,-0.30456576920708933,-0.3,0.0,1.0,304.0,956.0,1.0,0,190.0,1
773,773,0.21964812387063637,0.2,0.0,0.0,486.0,741.0,1.0,0,283.0,0
774,774,0.40413610155997504,0.4,1.0,1.0,291.0,603.0,1.0,1,526.0,1
775,775,-0.32717612566223253,-0.3,1.0,0.0,316.0,786.0,0.0,0,488.0,1
776,776,0.39128695133510705,0.4,0.0,0.0,276.0,595.0,0.0,1,719.0,1
777,777,0.3102545567015512,0.3,1.0,1.0,407.0,645.0,1.0,1,258.0,1
778,778,0.26182215212467164,0.3,1.0,1.0,363.0,531.0,1.0,1,766.0,1
779,779,0.5472797140999671,0.5,1.0,1.0,259.0,900.0,1.0,1,171.0,1
780,780,-0.07795326061901842,-0.1,1.0,0.0,294.0,743.0,1.0,1,373.0,0
781,781,0.5950190514795931,0.6,1.0,1.0,310.0,631.0,1.0,1,479.0,1
782,782,0.6300405344603731,0.6,0.0,0.0,465.0,626.0,0.0,1,1339.0,1
783,783,-0.00820630860323801,-0.0,1.0,0.0,396.0,591.0,0.0,0,823.0,1
784,784,-0.5711015266756783,-0.6,1.0,0.0,256.0,749.0,0.0,0,1085.0,1
785,785,0.3713415509140664,0.4,1.0,1.0,316.0,553.0,1.0,1,1091.0,1
786,786,-0.014657951820760906,-0.0,1.0,0.0,338.0,906.0,0.0,0,126.0,1
787,787,0.40890840823064944,0.4,1.0,1.0,427.0,764.0,1.0,1,399.0,1
788,788,0.8521469290778226,0.9,0.0,0.0,281.0,737.0,0.0,1,672.0,1
789,789,-0.5037019300729362,-0.5,1.0,0.0,456.0,791.0,0.0,0,383.0,1
790,790,-0.8310702801939129,-0.8,0.0,1.0,287.0,532.0,1.0,0,921.0,1
791,791,-0.7860594912347648,-0.8,0.0,1.0,392.0,838.0,1.0,0,210.0,1
792,792,0.7880387429311956,0.8,1.0,1.0,393.0,537.0,1.0,1,560.0,1
793,793,0.4032668568297525,0.4,1.0,1.0,300.0,934.0,1.0,1,176.0,1
794,794,0.8710718801434522,0.9,0.0,0.0,266.0,618.0,0.0,1,416.0,1
795,795,-0.28316272285516964,-0.3,1.0,0.0,475.0,794.0,0.0,0,1111.0,1
796,796,-0.42991730074252704,-0.4,0.0,1.0,299.0,884.0,1.0,0,317.0,1
797,797,-0.625346007980375,-0.6,1.0,0.0,326.0,987.0,0.0,0,317.0,1
798,798,0.5405241303532912,0.5,0.0,0.0,336.0,890.0,0.0,1,324.0,1
799,799,0.2788577159851676,0.3,0.0,0.0,259.0,774.0,1.0,0,957.0,0
800,800,-0.38087525468395234,-0.4,0.0,1.0,368.0,521.0,1.0,0,451.0,1
801,801,0.2867996397926974,0.3,1.0,1.0,471.0,915.0,1.0,1,784.0,1
802,802,-0.8068695914363447,-0.8,0.0,1.0,319.0,643.0,1.0,0,488.0,1
803,803,-0.7647602079411872,-0.8,0.0,1.0,357.0,513.0,1.0,0,500.0,1
804,804,-0.2873218504381001,-0.3,0.0,1.0,465.0,681.0,1.0,0,464.0,1
805,805,0.8352942370896509,0.8,0.0,0.0,363.0,648.0,0.0,1,419.0,1
806,806,0.6058550420713055,0.6,1.0,1.0,404.0,637.0,1.0,1,619.0,1
807,807,0.6977760409757462,0.7,1.0,1.0,317.0,802.0,1.0,1,401.0,1
808,808,-0.49804121054959494,-0.5,1.0,0.0,338.0,805.0,1.0,1,777.0,0
809,809,-0.4810551672208198,-0.5,1.0,0.0,298.0,971.0,0.0,0,221.0,1
810,810,0.5838713408802662,0.6,1.0,1.0,354.0,989.0,1.0,1,237.0,1
811,811,0.6548023359541205,0.7,1.0,1.0,487.0,622.0,1.0,1,331.0,1
812,812,0.1539744021030217,0.2,1.0,1.0,327.0,882.0,1.0,1,1331.0,1
813,813,0.2693136165377924,0.3,0.0,0.0,366.0,797.0,0.0,1,447.0,1
814,814,-0.19220483171802982,-0.2,0.0,1.0,378.0,686.0,1.0,0,486.0,1
815,815,-0.6787093833165706,-0.7,1.0,0.0,305.0,722.0,0.0,0,653.0,1
816,816,0.7917023859656122,0.8,0.0,0.0,341.0,576.0,0.0,1,483.0,1
817,817,-0.34754142816935885,-0.3,0.0,1.0,431.0,726.0,1.0,0,363.0,1
818,818,-0.06716078016507432,-0.1,0.0,1.0,457.0,694.0,0.0,1,919.0,0
819,819,0.5706780052268622,0.6,0.0,0.0,349.0,800.0,0.0,1,241.0,1
820,820,0.765734634483442,0.8,0.0,0.0,267.0,649.0,0.0,1,724.0,1
821,821,-0.7316542243844023,-0.7,0.0,1.0,388.0,663.0,1.0,0,639.0,1
822,822,0.5644786092128123,0.6,0.0,0.0,380.0,751.0,0.0,1,389.0,1
823,823,0.2304345159717468,0.2,1.0,1.0,383.0,839.0,1.0,1,858.0,1
824,824,0.3134486538467499,0.3,1.0,1.0,285.0,762.0,1.0,1,603.0,1
825,825,0.18360007215047391,0.2,1.0,1.0,485.0,506.0,1.0,1,1239.0,1
826,826,0.754969903248414,0.8,0.0,0.0,283.0,541.0,0.0,1,426.0,1
827,827,-0.5986106364425074,-0.6,0.0,1.0,388.0,595.0,1.0,0,407.0,1
828,828,-0.23471948221274364,-0.2,0.0,1.0,324.0,879.0,1.0,0,387.0,1
829,829,0.13778870911862684,0.1,1.0,1.0,373.0,722.0,1.0,1,695.0,1
830,830,-0.4942061970160679,-0.5,0.0,1.0,315.0,590.0,1.0,0,565.0,1
831,831,0.8834055115944567,0.9,1.0,1.0,489.0,928.0,1.0,1,243.0,1
832,832,-0.15341819393734246,-0.2,0.0,1.0,258.0,888.0,1.0,0,1184.0,1
833,833,0.8344224619658399,0.8,1.0,1.0,279.0,857.0,1.0,1,294.0,1
834,834,-0.7841113561715908,-0.8,0.0,1.0,405.0,922.0,1.0,0,233.0,1
835,835,0.15017292924619274,0.2,0.0,0.0,343.0,776.0,1.0,0,141.0,0
836,836,0.30045613027458995,0.3,0.0,0.0,360.0,819.0,1.0,0,741.0,0
837,837,0.09315818062781844,0.1,1.0,1.0,469.0,740.0,1.0,1,621.0,1
838,838,0.6420005557603697,0.6,1.0,1.0,478.0,747.0,1.0,1,295.0,1
839,839,0.32221606670660397,0.3,0.0,0.0,463.0,943.0,1.0,0,4.0,0
840,840,-0.5419013644889767,-0.5,0.0,1.0,464.0,968.0,1.0,0,98.0,1
841,841,0.703723437972754,0.7,0.0,0.0,331.0,706.0,0.0,1,423.0,1
842,842,-0.5908475571619011,-0.6,1.0,0.0,419.0,747.0,0.0,0,444.0,1
843,843,0.7577276182392837,0.8,0.0,0.0,304.0,973.0,0.0,1,633.0,1
844,844,0.7470958085818845,0.7,1.0,1.0,459.0,991.0,1.0,1,330.0,1
845,845,-0.17881326598362135,-0.2,1.0,0.0,451.0,874.0,1.0,1,-55.0,0
846,846,-0.37997721157561515,-0.4,1.0,0.0,306.0,948.0,0.0,0,166.0,1
847,847,-0.30677968535501354,-0.3,1.0,0.0,340.0,842.0,0.0,0,758.0,1
848,848,0.14939282201610016,0.1,0.0,0.0,444.0,721.0,1.0,0,615.0,0
849,849,0.5902844363563547,0.6,1.0,1.0,407.0,771.0,1.0,1,642.0,1
850,850,-0.5381378748351278,-0.5,1.0,0.0,371.0,675.0,0.0,0,644.0,1
851,851,-0.17840091878337005,-0.2,1.0,0.0,464.0,801.0,0.0,0,2065.0,1
852,852,-0.13700682575560819,-0.1,1.0,0.0,359.0,524.0,1.0,1,1167.0,0
853,853,-0.540063544522985,-0.5,1.0,0.0,347.0,898.0,0.0,0,2275.0,1
854,854,0.6345743158138345,0.6,0.0,0.0,445.0,975.0,0.0,1,200.0,1
855,855,-0.18500445901739326,-0.2,0.0,1.0,304.0,902.0,1.0,0,84.0,1
856,856,0.3486224961746328,0.3,0.0,0.0,430.0,590.0,0.0,1,1200.0,1
857,857,-0.016005522819440454,-0.0,1.0,0.0,413.0,640.0,0.0,0,1267.0,1
858,858,0.3865210193374905,0.4,1.0,1.0,326.0,601.0,1.0,1,563.0,1
859,859,0.0549057331143864,0.1,0.0,0.0,485.0,942.0,1.0,0,583.0,0
860,860,-0.3359890381749303,-0.3,1.0,0.0,456.0,716.0,0.0,0,1398.0,1
861,861,0.32670930243537943,0.3,1.0,1.0,279.0,854.0,1.0,1,287.0,1
862,862,-0.16426206044021763,-0.2,1.0,0.0,365.0,734.0,0.0,0,591.0,1
863,863,-0.0799389260509984,-0.1,0.0,1.0,287.0,658.0,1.0,0,1275.0,1
864,864,0.4702294900667102,0.5,1.0,1.0,265.0,754.0,1.0,1,641.0,1
865,865,-0.41475155299502325,-0.4,0.0,1.0,441.0,590.0,1.0,0,569.0,1
866,866,-0.8779107251737488,-0.9,0.0,1.0,336.0,946.0,1.0,0,108.0,1
867,867,-0.6332606354137988,-0.6,0.0,1.0,328.0,798.0,1.0,0,74.0,1
868,868,0.4767429848018355,0.5,1.0,1.0,285.0,691.0,1.0,1,484.0,1
869,869,-0.07487426348629689,-0.1,0.0,1.0,412.0,595.0,1.0,0,483.0,1
870,870,-0.4400669777369213,-0.4,0.0,1.0,433.0,637.0,1.0,0,740.0,1
871,871,0.5781040130070941,0.6,0.0,0.0,449.0,793.0,0.0,1,618.0,1
872,872,-0.7758642856269924,-0.8,0.0,1.0,260.0,599.0,1.0,0,711.0,1
873,873,0.2907023428151395,0.3,0.0,0.0,455.0,807.0,0.0,1,1168.0,1
874,874,-0.7445778682271122,-0.7,1.0,0.0,413.0,573.0,0.0,0,464.0,1
875,875,0.422985336859416,0.4,1.0,1.0,419.0,754.0,1.0,1,937.0,1
876,876,0.6341312743139452,0.6,1.0,1.0,444.0,599.0,1.0,1,987.0,1
877,877,-0.4289717020894413,-0.4,0.0,1.0,490.0,524.0,1.0,0,526.0,1
878,878,0.8185596848553603,0.8,0.0,0.0,470.0,742.0,0.0,1,498.0,1
879,879,0.09098703612563286,0.1,1.0,1.0,310.0,821.0,0.0,0,389.0,0
880,880,-0.2423226084697372,-0.2,1.0,0.0,358.0,564.0,1.0,1,538.0,0
881,881,0.03631987662003866,0.0,0.0,0.0,452.0,722.0,1.0,0,796.0,0
882,882,0.7880530914299558,0.8,1.0,1.0,293.0,957.0,1.0,1,410.0,1
883,883,0.4672201886391728,0.5,1.0,1.0,424.0,612.0,1.0,1,614.0,1
884,884,-0.14119887227175976,-0.1,0.0,1.0,470.0,875.0,0.0,1,245.0,0
885,885,0.40793937678680037,0.4,1.0,1.0,406.0,818.0,1.0,1,596.0,1
886,886,0.4153780527653913,0.4,0.0,0.0,410.0,841.0,0.0,1,329.0,1
887,887,0.09812992157308287,0.1,0.0,0.0,271.0,799.0,0.0,1,230.0,1
888,888,-0.4912533640455066,-0.5,0.0,1.0,300.0,936.0,1.0,0,274.0,1
889,889,0.25965563662255586,0.3,0.0,0.0,406.0,636.0,1.0,0,328.0,0
890,890,0.0055086984715186915,0.0,1.0,1.0,497.0,515.0,0.0,0,638.0,0
891,891,-0.2767133472838975,-0.3,1.0,0.0,333.0,712.0,0.0,0,845.0,1
892,892,0.5184039802857713,0.5,0.0,0.0,457.0,834.0,0.0,1,939.0,1
893,893,0.11724607668867792,0.1,1.0,1.0,472.0,727.0,1.0,1,591.0,1
894,894,-0.7660494005003193,-0.8,0.0,1.0,317.0,861.0,1.0,0,232.0,1
895,895,0.46322568319002044,0.5,0.0,0.0,459.0,816.0,0.0,1,555.0,1
896,896,0.6077815702631059,0.6,1.0,1.0,299.0,526.0,1.0,1,365.0,1
897,897,-0.4919272704937017,-0.5,1.0,0.0,487.0,929.0,0.0,0,414.0,1
898,898,0.23117470942821716,0.2,1.0,1.0,338.0,972.0,0.0,0,20.0,0
899,899,-0.5451546804186542,-0.5,1.0,0.0,427.0,662.0,0.0,0,701.0,1
900,900,-0.6873135034828082,-0.7,1.0,0.0,252.0,622.0,0.0,0,496.0,1
901,901,-0.45460683950056185,-0.5,1.0,0.0,436.0,833.0,0.0,0,181.0,1
902,902,0.2255514474818795,0.2,1.0,1.0,277.0,926.0,0.0,0,687.0,0
903,903,-0.6957001562520998,-0.7,1.0,0.0,264.0,642.0,0.0,0,664.0,1
904,904,-0.07107649401052984,-0.1,0.0,1.0,365.0,659.0,1.0,0,666.0,1
905,905,0.846465609001437,0.8,0.0,0.0,392.0,968.0,0.0,1,290.0,1
906,906,0.2923005185496831,0.3,1.0,1.0,487.0,563.0,1.0,1,630.0,1
907,907,-0.359731656913747,-0.4,1.0,0.0,265.0,857.0,0.0,0,508.0,1
908,908,0.8509181174815553,0.9,1.0,1.0,289.0,644.0,1.0,1,307.0,1
909,909,-0.39889511612477935,-0.4,0.0,1.0,262.0,981.0,0.0,1,327.0,0
910,910,0.31784587007887544,0.3,0.0,0.0,472.0,594.0,0.0,1,704.0,1
911,911,-0.7838349457477535,-0.8,0.0,1.0,362.0,518.0,1.0,0,500.0,1
912,912,0.20435964731753742,0.2,0.0,0.0,293.0,566.0,0.0,1,841.0,1
913,913,0.016627311329876937,0.0,1.0,1.0,411.0,805.0,1.0,1,64.0,1
914,914,-0.7529866766857761,-0.8,1.0,0.0,326.0,534.0,1.0,1,440.0,0
915,915,0.0023483857905053362,0.0,1.0,1.0,384.0,848.0,0.0,0,968.0,0
916,916,-0.7996083157068387,-0.8,0.0,1.0,283.0,798.0,1.0,0,379.0,1
917,917,0.11311929970521029,0.1,0.0,0.0,287.0,784.0,0.0,1,549.0,1
918,918,-0.42239885433034813,-0.4,0.0,1.0,290.0,587.0,1.0,0,1103.0,1
919,919,0.22259428111411672,0.2,0.0,0.0,328.0,745.0,0.0,1,907.0,1
920,920,0.859799311040731,0.9,0.0,0.0,285.0,895.0,0.0,1,340.0,1
921,921,-0.5617454383607737,-0.6,0.0,1.0,472.0,605.0,1.0,0,353.0,1
922,922,0.8954629863515372,0.9,1.0,1.0,495.0,968.0,1.0,1,-153.0,1
923,923,-0.23886290302071367,-0.2,1.0,0.0,491.0,721.0,0.0,0,1148.0,1
924,924,0.5405258136529535,0.5,0.0,0.0,485.0,625.0,0.0,1,1290.0,1
925,925,0.005773582085243034,0.0,1.0,1.0,424.0,800.0,1.0,1,696.0,1
926,926,-0.3648489150195211,-0.4,1.0,0.0,450.0,614.0,0.0,0,1376.0,1
927,927,-0.4628619459513454,-0.5,0.0,1.0,427.0,761.0,1.0,0,502.0,1
928,928,-0.5314499961031831,-0.5,1.0,0.0,348.0,581.0,0.0,0,601.0,1
929,929,0.49553055142155544,0.5,1.0,1.0,250.0,593.0,1.0,1,847.0,1
930,930,0.3844429499682257,0.4,0.0,0.0,487.0,866.0,0.0,1,507.0,1
931,931,0.5977816431907187,0.6,1.0,1.0,321.0,527.0,1.0,1,562.0,1
932,932,0.42821478470958574,0.4,1.0,1.0,318.0,696.0,1.0,1,246.0,1
933,933,-0.1910589540370734,-0.2,0.0,1.0,459.0,964.0,1.0,0,497.0,1
934,934,-0.6024974109484729,-0.6,1.0,0.0,455.0,652.0,0.0,0,413.0,1
935,935,-0.2535352624708014,-0.3,0.0,1.0,439.0,564.0,1.0,0,577.0,1
936,936,0.18457178894256498,0.2,0.0,0.0,471.0,564.0,1.0,0,625.0,0
937,937,-0.3432170831100282,-0.3,0.0,1.0,293.0,657.0,1.0,0,1010.0,1
938,938,0.8938250278157521,0.9,1.0,1.0,385.0,633.0,1.0,1,362.0,1
939,939,0.07054479787187529,0.1,0.0,0.0,329.0,506.0,1.0,0,855.0,0
940,940,-0.18059097226923293,-0.2,1.0,0.0,406.0,831.0,0.0,0,543.0,1
941,941,-0.62549156344468,-0.6,0.0,1.0,416.0,802.0,1.0,0,302.0,1
942,942,0.8981930238735337,0.9,0.0,0.0,292.0,639.0,0.0,1,829.0,1
943,943,0.3940291849102141,0.4,0.0,0.0,371.0,787.0,0.0,1,1192.0,1
944,944,-0.7550448637924444,-0.8,0.0,1.0,336.0,794.0,1.0,0,210.0,1
945,945,0.6622915970951101,0.7,0.0,0.0,423.0,924.0,0.0,1,203.0,1
946,946,-0.5548563725048203,-0.6,1.0,0.0,289.0,759.0,0.0,0,512.0,1
947,947,0.7973282001221115,0.8,0.0,0.0,473.0,695.0,0.0,1,392.0,1
948,948,-0.6671842367026101,-0.7,1.0,0.0,482.0,814.0,0.0,0,424.0,1
949,949,0.015745327570439005,0.0,1.0,1.0,279.0,853.0,1.0,1,548.0,1
950,950,0.16058495691805164,0.2,1.0,1.0,472.0,550.0,1.0,1,1128.0,1
951,951,-0.7372518982198718,-0.7,0.0,1.0,282.0,694.0,1.0,0,404.0,1
952,952,0.4953595997214245,0.5,1.0,1.0,422.0,859.0,1.0,1,579.0,1
953,953,0.4277172021630923,0.4,1.0,1.0,443.0,972.0,1.0,1,545.0,1
954,954,0.13902986622527436,0.1,0.0,0.0,482.0,962.0,1.0,0,1086.0,0
955,955,-0.5240939629442098,-0.5,0.0,1.0,436.0,575.0,1.0,0,379.0,1
956,956,0.879241020719355,0.9,0.0,0.0,307.0,643.0,0.0,1,470.0,1
957,957,0.4036380600782793,0.4,1.0,1.0,333.0,503.0,1.0,1,954.0,1
958,958,0.3748614318927207,0.4,1.0,1.0,323.0,539.0,1.0,1,668.0,1
959,959,0.07743497425897694,0.1,0.0,0.0,416.0,931.0,1.0,0,523.0,0
960,960,0.5854306576138021,0.6,0.0,0.0,370.0,886.0,0.0,1,514.0,1
961,961,0.6390949171367789,0.6,1.0,1.0,398.0,626.0,1.0,1,416.0,1
962,962,-0.8764642874279251,-0.9,0.0,1.0,449.0,913.0,1.0,0,188.0,1
963,963,-0.8019856872338774,-0.8,1.0,0.0,297.0,880.0,0.0,0,173.0,1
964,964,0.8186116463797443,0.8,1.0,1.0,281.0,576.0,1.0,1,353.0,1
965,965,-0.6143713474553764,-0.6,0.0,1.0,396.0,635.0,1.0,0,559.0,1
966,966,-0.2628038707271553,-0.3,0.0,1.0,440.0,710.0,1.0,0,240.0,1
967,967,0.0838162369926051,0.1,0.0,0.0,347.0,825.0,0.0,1,238.0,1
968,968,0.7204486316145483,0.7,1.0,1.0,333.0,935.0,1.0,1,52.0,1
969,969,-0.40513250253392413,-0.4,1.0,0.0,293.0,554.0,0.0,0,553.0,1
970,970,-0.7942100804085924,-0.8,1.0,0.0,261.0,649.0,0.0,0,760.0,1
971,971,-0.6690836376827016,-0.7,0.0,1.0,335.0,886.0,1.0,0,409.0,1
972,972,0.23710063257172964,0.2,1.0,1.0,332.0,806.0,1.0,1,162.0,1
973,973,-0.8248363699487045,-0.8,1.0,0.0,276.0,663.0,0.0,0,421.0,1
974,974,0.22488408083871636,0.2,1.0,1.0,250.0,662.0,1.0,1,1268.0,1
975,975,0.42724994713487907,0.4,0.0,0.0,369.0,699.0,0.0,1,182.0,1
976,976,-0.03385225028455563,-0.0,1.0,0.0,487.0,775.0,1.0,1,608.0,0
977,977,-0.3261295958464896,-0.3,0.0,1.0,432.0,802.0,0.0,1,486.0,0
978,978,0.8930866536327621,0.9,0.0,0.0,498.0,760.0,0.0,1,572.0,1
979,979,-0.26465537013984397,-0.3,0.0,1.0,427.0,872.0,0.0,1,721.0,0
980,980,0.612390877601546,0.6,1.0,1.0,340.0,526.0,1.0,1,584.0,1
981,981,-0.4416325899532018,-0.4,1.0,0.0,251.0,861.0,0.0,0,498.0,1
982,982,-0.3643988055965036,-0.4,1.0,0.0,461.0,804.0,0.0,0,1145.0,1
983,983,0.05009340128480444,0.1,0.0,0.0,279.0,749.0,1.0,0,542.0,0
984,984,0.656024613444058,0.7,0.0,0.0,294.0,564.0,0.0,1,862.0,1
985,985,0.37552975171344893,0.4,0.0,0.0,259.0,617.0,0.0,1,544.0,1
986,986,0.7321608154284361,0.7,0.0,0.0,467.0,602.0,0.0,1,771.0,1
987,987,0.505458198697926,0.5,1.0,1.0,377.0,897.0,1.0,1,236.0,1
988,988,0.8785840025663562,0.9,1.0,1.0,343.0,616.0,1.0,1,401.0,1
989,989,-0.07342894241081965,-0.1,1.0,0.0,447.0,564.0,1.0,1,759.0,0
990,990,-0.19349216577061024,-0.2,1.0,0.0,408.0,586.0,1.0,1,536.0,0
991,991,-0.7902480135335809,-0.8,1.0,0.0,270.0,589.0,0.0,0,451.0,1
992,992,-0.8609693964177444,-0.9,0.0,1.0,346.0,633.0,1.0,0,281.0,1
993,993,-0.8674253119330304,-0.9,0.0,1.0,415.0,998.0,1.0,0,137.0,1
994,994,0.28123435951328835,0.3,0.0,0.0,472.0,929.0,0.0,1,659.0,1
995,995,-0.38870934979471816,-0.4,1.0,0.0,478.0,607.0,0.0,0,1935.0,1
996,996,0.8311228732999568,0.8,0.0,0.0,484.0,766.0,0.0,1,270.0,1
997,997,-0.196363933174856,-0.2,1.0,0.0,359.0,664.0,0.0,0,397.0,1
998,998,0.5821213198581666,0.6,0.0,0.0,319.0,962.0,0.0,1,289.0,1
999,999,-0.6771562968425169,-0.7,0.0,1.0,399.0,545.0,1.0,0,526.0,1
1000,1000,-0.7289433013903741,-0.7,1.0,0.0,370.0,502.0,0.0,0,1118.0,1
1001,1001,0.06397925488656775,0.1,1.0,1.0,406.0,936.0,1.0,1,1048.0,1
1002,1002,-0.8264769073045128,-0.8,0.0,1.0,408.0,638.0,1.0,0,264.0,1
1003,1003,0.250220330368499,0.3,1.0,1.0,353.0,552.0,0.0,0,755.0,0
1004,1004,0.3064991431385481,0.3,0.0,0.0,378.0,682.0,1.0,0,200.0,0
1005,1005,0.7380469610223946,0.7,1.0,1.0,431.0,736.0,1.0,1,993.0,1
1006,1006,-0.016872661829228197,-0.0,0.0,1.0,413.0,967.0,1.0,0,360.0,1
1007,1007,-0.7293545972588708,-0.7,0.0,1.0,487.0,913.0,1.0,0,430.0,1
1008,1008,-0.8298325886141837,-0.8,0.0,1.0,298.0,708.0,1.0,0,244.0,1
1009,1009,0.5087624077359137,0.5,0.0,0.0,428.0,609.0,0.0,1,813.0,1
1010,1010,-0.2084484914273993,-0.2,0.0,1.0,400.0,574.0,1.0,0,736.0,1
1011,1011,-0.6639746406159416,-0.7,1.0,0.0,324.0,560.0,0.0,0,546.0,1
1012,1012,-0.16620130365050045,-0.2,0.0,1.0,487.0,636.0,1.0,0,807.0,1
1013,1013,-0.8090244694466795,-0.8,1.0,0.0,297.0,691.0,0.0,0,742.0,1
1014,1014,0.16659335697606348,0.2,0.0,0.0,319.0,669.0,0.0,1,502.0,1
1015,1015,0.8399297943143934,0.8,1.0,1.0,462.0,565.0,1.0,1,643.0,1
1016,1016,-0.4878433781313841,-0.5,0.0,1.0,460.0,791.0,1.0,0,359.0,1
1017,1017,0.8049632130426131,0.8,0.0,0.0,427.0,905.0,0.0,1,458.0,1
1018,1018,-0.4035847141061873,-0.4,1.0,0.0,272.0,611.0,0.0,0,547.0,1
1019,1019,0.8719139000236412,0.9,0.0,0.0,319.0,993.0,0.0,1,338.0,1
1020,1020,0.8214757199067065,0.8,1.0,1.0,274.0,992.0,1.0,1,224.0,1
1021,1021,0.452922158945262,0.5,0.0,0.0,253.0,964.0,0.0,1,713.0,1
1022,1022,-0.12563634768620913,-0.1,0.0,1.0,495.0,813.0,0.0,1,422.0,0
1023,1023,-0.5901944393814433,-0.6,0.0,1.0,288.0,784.0,1.0,0,518.0,1
1024,1024,-0.7008260722032273,-0.7,1.0,0.0,364.0,769.0,0.0,0,267.0,1
1025,1025,0.22249400996804847,0.2,0.0,0.0,456.0,677.0,0.0,1,1277.0,1
1026,1026,-0.4200197300459837,-0.4,1.0,0.0,320.0,698.0,0.0,0,892.0,1
1027,1027,-0.17315838011450857,-0.2,1.0,0.0,463.0,883.0,1.0,1,874.0,0
1028,1028,-0.3618433105514256,-0.4,0.0,1.0,274.0,909.0,1.0,0,347.0,1
1029,1029,-0.6225310414680552,-0.6,1.0,0.0,334.0,920.0,0.0,0,736.0,1
1030,1030,0.8778236109863266,0.9,1.0,1.0,455.0,933.0,1.0,1,172.0,1
1031,1031,0.1588227446798126,0.2,1.0,1.0,448.0,595.0,1.0,1,657.0,1
1032,1032,0.11432638303814746,0.1,1.0,1.0,361.0,660.0,1.0,1,1259.0,1
1033,1033,-0.6664510357934443,-0.7,1.0,0.0,278.0,579.0,0.0,0,633.0,1
1034,1034,0.2965446744896082,0.3,0.0,0.0,498.0,924.0,0.0,1,1038.0,1
1035,1035,0.470888910661985,0.5,1.0,1.0,402.0,908.0,1.0,1,130.0,1
1036,1036,-0.4953872489840973,-0.5,0.0,1.0,458.0,941.0,1.0,0,371.0,1
1037,1037,-0.4216725214903152,-0.4,0.0,1.0,254.0,722.0,1.0,0,464.0,1
1038,1038,-0.8703052189990786,-0.9,1.0,0.0,480.0,817.0,0.0,0,323.0,1
1039,1039,-0.2633521563098048,-0.3,0.0,1.0,281.0,987.0,1.0,0,412.0,1
1040,1040,0.7828643352169943,0.8,1.0,1.0,371.0,580.0,1.0,1,549.0,1
1041,1041,0.2162810513808725,0.2,1.0,1.0,397.0,920.0,1.0,1,383.0,1
1042,1042,0.04301655203480648,0.0,1.0,1.0,478.0,809.0,1.0,1,693.0,1
1043,1043,-0.8281076328293716,-0.8,0.0,1.0,314.0,914.0,1.0,0,272.0,1
1044,1044,0.8743617669529823,0.9,0.0,0.0,325.0,610.0,0.0,1,1245.0,1
1045,1045,-0.25754386624039594,-0.3,1.0,0.0,394.0,634.0,1.0,1,912.0,0
1046,1046,0.7984955808034523,0.8,0.0,0.0,369.0,957.0,0.0,1,174.0,1
1047,1047,0.530052399736484,0.5,0.0,0.0,314.0,684.0,0.0,1,792.0,1
1048,1048,-0.12472904274376395,-0.1,1.0,0.0,472.0,794.0,1.0,1,434.0,0
1049,1049,-0.11732261187698634,-0.1,1.0,0.0,442.0,911.0,0.0,0,327.0,1
1050,1050,0.6588659133817557,0.7,0.0,0.0,487.0,849.0,1.0,0,554.0,0
1051,1051,-0.7123284087038005,-0.7,1.0,0.0,397.0,553.0,0.0,0,980.0,1
1052,1052,0.13122014243044322,0.1,0.0,0.0,435.0,510.0,0.0,1,1245.0,1
1053,1053,-0.4038346122333775,-0.4,0.0,1.0,483.0,926.0,1.0,0,821.0,1
1054,1054,-0.7052374356570785,-0.7,1.0,0.0,405.0,873.0,0.0,0,412.0,1
1055,1055,-0.13266873087368836,-0.1,0.0,1.0,297.0,849.0,1.0,0,574.0,1
1056,1056,-0.4262004575486989,-0.4,1.0,0.0,281.0,528.0,0.0,0,1711.0,1
1057,1057,-0.10359451033723088,-0.1,0.0,1.0,325.0,713.0,0.0,1,402.0,0
1058,1058,-0.8980983706757331,-0.9,0.0,1.0,423.0,522.0,1.0,0,715.0,1
1059,1059,0.018967061024101506,0.0,0.0,0.0,469.0,697.0,1.0,0,394.0,0
1060,1060,0.5619153107150671,0.6,1.0,1.0,341.0,846.0,1.0,1,1723.0,1
1061,1061,-0.42069599296359,-0.4,0.0,1.0,288.0,981.0,1.0,0,841.0,1
1062,1062,0.779891899140119,0.8,1.0,1.0,320.0,512.0,1.0,1,748.0,1
1063,1063,-0.79076735918552,-0.8,0.0,1.0,298.0,582.0,1.0,0,390.0,1
1064,1064,-0.8654254269366496,-0.9,1.0,0.0,337.0,590.0,0.0,0,1033.0,1
1065,1065,0.5036309915003613,0.5,1.0,1.0,251.0,583.0,0.0,0,636.0,0
1066,1066,0.6223269247567788,0.6,0.0,0.0,356.0,602.0,0.0,1,972.0,1
1067,1067,-0.8975656167441726,-0.9,0.0,1.0,352.0,756.0,1.0,0,412.0,1
1068,1068,-0.8823830931697254,-0.9,0.0,1.0,409.0,504.0,1.0,0,427.0,1
1069,1069,0.35585830820041353,0.4,1.0,1.0,479.0,667.0,1.0,1,374.0,1
1070,1070,0.7941786627849065,0.8,0.0,0.0,419.0,690.0,0.0,1,451.0,1
1071,1071,-0.18183580676474276,-0.2,1.0,0.0,455.0,660.0,0.0,0,475.0,1
1072,1072,0.3883275095817621,0.4,0.0,0.0,273.0,894.0,0.0,1,193.0,1
1073,1073,-0.48799152579764754,-0.5,1.0,0.0,411.0,878.0,0.0,0,991.0,1
1074,1074,0.7154178720026897,0.7,0.0,0.0,386.0,973.0,0.0,1,491.0,1
1075,1075,-0.34730838029618527,-0.3,0.0,1.0,376.0,560.0,1.0,0,484.0,1
1076,1076,0.22784079690634995,0.2,1.0,1.0,443.0,688.0,1.0,1,409.0,1
1077,1077,-0.6413651301792657,-0.6,0.0,1.0,291.0,834.0,1.0,0,245.0,1
1078,1078,-0.5051049274598993,-0.5,0.0,1.0,262.0,893.0,1.0,0,565.0,1
1079,1079,-0.6533123010059199,-0.7,1.0,0.0,392.0,808.0,0.0,0,150.0,1
1080,1080,-0.5875016522556015,-0.6,0.0,1.0,452.0,692.0,1.0,0,376.0,1
1081,1081,0.34334193340845565,0.3,1.0,1.0,297.0,699.0,1.0,1,794.0,1
1082,1082,-0.014864417033971788,-0.0,1.0,0.0,345.0,865.0,1.0,1,190.0,0
1083,1083,0.7401535785754688,0.7,0.0,0.0,285.0,966.0,0.0,1,169.0,1
1084,1084,-0.507756165816631,-0.5,1.0,0.0,281.0,859.0,0.0,0,580.0,1
1085,1085,0.22618990179185772,0.2,0.0,0.0,397.0,561.0,1.0,0,602.0,0
1086,1086,-0.047892008932776564,-0.0,1.0,0.0,260.0,891.0,0.0,0,1659.0,1
1087,1087,-0.6136449048798212,-0.6,0.0,1.0,447.0,703.0,1.0,0,270.0,1
1088,1088,0.5774013728729196,0.6,0.0,0.0,407.0,694.0,0.0,1,1089.0,1
1089,1089,-0.7820886621346502,-0.8,1.0,0.0,300.0,958.0,0.0,0,402.0,1
1090,1090,-0.34352892934452706,-0.3,1.0,0.0,403.0,987.0,0.0,0,330.0,1
1091,1091,-0.17911862084048702,-0.2,0.0,1.0,330.0,663.0,1.0,0,667.0,1
1092,1092,-0.5702168472821341,-0.6,0.0,1.0,373.0,687.0,1.0,0,450.0,1
1093,1093,0.015516158361093546,0.0,1.0,1.0,259.0,792.0,0.0,0,769.0,0
1094,1094,0.360727282696479,0.4,1.0,1.0,442.0,665.0,1.0,1,563.0,1
1095,1095,-0.30716657686291793,-0.3,0.0,1.0,408.0,622.0,0.0,1,350.0,0
1096,1096,-0.47713941186410935,-0.5,0.0,1.0,479.0,988.0,1.0,0,723.0,1
1097,1097,0.7077404721107238,0.7,0.0,0.0,461.0,594.0,0.0,1,475.0,1
1098,1098,0.7209391620081808,0.7,0.0,0.0,384.0,970.0,0.0,1,476.0,1
1099,1099,-0.17395001296083312,-0.2,1.0,0.0,390.0,658.0,0.0,0,1432.0,1
1100,1100,0.5982954145411746,0.6,1.0,1.0,266.0,833.0,1.0,1,241.0,1
1101,1101,-0.6414487154742599,-0.6,0.0,1.0,451.0,942.0,1.0,0,37.0,1
1102,1102,-0.4434317031789884,-0.4,1.0,0.0,465.0,864.0,0.0,0,1121.0,1
1103,1103,0.36514126160816096,0.4,1.0,1.0,482.0,673.0,1.0,1,785.0,1
1104,1104,-0.07130747969571782,-0.1,0.0,1.0,396.0,839.0,1.0,0,2015.0,1
1105,1105,0.21106253129645547,0.2,0.0,0.0,325.0,869.0,1.0,0,1196.0,0
1106,1106,0.4868758468566202,0.5,1.0,1.0,258.0,847.0,1.0,1,595.0,1
1107,1107,-0.30994258410922926,-0.3,0.0,1.0,380.0,744.0,1.0,0,326.0,1
1108,1108,-0.22898146379062645,-0.2,0.0,1.0,364.0,900.0,1.0,0,256.0,1
1109,1109,-0.07832180915700215,-0.1,1.0,0.0,304.0,512.0,1.0,1,674.0,0
1110,1110,0.206688666615236,0.2,1.0,1.0,329.0,580.0,1.0,1,2231.0,1
1111,1111,0.08115538875830308,0.1,0.0,0.0,448.0,610.0,1.0,0,692.0,0
1112,1112,0.009293239186113023,0.0,1.0,1.0,425.0,606.0,1.0,1,329.0,1
1113,1113,-0.5489429222491358,-0.5,1.0,0.0,264.0,794.0,0.0,0,512.0,1
1114,1114,0.3756478784063765,0.4,1.0,1.0,287.0,742.0,1.0,1,141.0,1
1115,1115,0.1174847583067401,0.1,1.0,1.0,324.0,796.0,1.0,1,460.0,1
1116,1116,0.8003715670232422,0.8,1.0,1.0,286.0,734.0,1.0,1,310.0,1
1117,1117,0.8396698969103545,0.8,0.0,0.0,278.0,994.0,0.0,1,298.0,1
1118,1118,-0.3864131756561161,-0.4,0.0,1.0,485.0,653.0,1.0,0,1622.0,1
1119,1119,-0.6128933262649523,-0.6,1.0,0.0,295.0,854.0,0.0,0,441.0,1
1120,1120,0.08844823895468612,0.1,1.0,1.0,299.0,780.0,1.0,1,661.0,1
1121,1121,0.6546417753003136,0.7,0.0,0.0,378.0,595.0,0.0,1,887.0,1
1122,1122,-0.4421209618667912,-0.4,1.0,0.0,359.0,667.0,0.0,0,444.0,1
1123,1123,-0.2903356167036093,-0.3,1.0,0.0,490.0,594.0,0.0,0,1116.0,1
1124,1124,0.1988367558969456,0.2,0.0,0.0,388.0,682.0,0.0,1,1610.0,1
1125,1125,0.21543642507466643,0.2,0.0,0.0,497.0,607.0,0.0,1,1576.0,1
1126,1126,-0.6297433266620956,-0.6,0.0,1.0,276.0,816.0,1.0,0,358.0,1
1127,1127,0.05099136312256758,0.1,1.0,1.0,464.0,503.0,0.0,0,613.0,0
1128,1128,-0.548343886632525,-0.5,1.0,0.0,378.0,820.0,0.0,0,102.0,1
1129,1129,0.027021060016087617,0.0,1.0,1.0,489.0,706.0,1.0,1,625.0,1
1130,1130,-0.6238517186925443,-0.6,1.0,0.0,480.0,767.0,1.0,1,463.0,0
1131,1131,0.2064900997683009,0.2,0.0,0.0,321.0,604.0,0.0,1,775.0,1
1132,1132,-0.71200031492941,-0.7,0.0,1.0,363.0,731.0,1.0,0,336.0,1
1133,1133,-0.7368230336589472,-0.7,0.0,1.0,415.0,638.0,1.0,0,317.0,1
1134,1134,0.29473206794759566,0.3,1.0,1.0,436.0,584.0,1.0,1,320.0,1
1135,1135,0.30563109786018294,0.3,1.0,1.0,446.0,786.0,1.0,1,238.0,1
1136,1136,0.13490874699557998,0.1,1.0,1.0,459.0,561.0,0.0,0,1000.0,0
1137,1137,-0.5645863645016211,-0.6,0.0,1.0,277.0,511.0,1.0,0,482.0,1
1138,1138,0.7498256552841126,0.7,1.0,1.0,272.0,512.0,1.0,1,586.0,1
1139,1139,-0.7032634141590218,-0.7,1.0,0.0,361.0,979.0,0.0,0,70.0,1
1140,1140,-0.6463577692906459,-0.6,1.0,0.0,317.0,589.0,0.0,0,1314.0,1
1141,1141,0.44638787860199003,0.4,1.0,1.0,350.0,923.0,1.0,1,627.0,1
1142,1142,-0.2355169443494628,-0.2,1.0,0.0,410.0,644.0,0.0,0,826.0,1
1143,1143,0.020541845882135812,0.0,1.0,1.0,333.0,894.0,1.0,1,733.0,1
1144,1144,-0.7782438342245414,-0.8,1.0,0.0,331.0,824.0,0.0,0,595.0,1
1145,1145,-0.21062758726226016,-0.2,0.0,1.0,260.0,692.0,1.0,0,368.0,1
1146,1146,0.21043867609717937,0.2,1.0,1.0,442.0,565.0,1.0,1,443.0,1
1147,1147,-0.35853636858601345,-0.4,1.0,0.0,497.0,630.0,0.0,0,413.0,1
1148,1148,0.4416240198506197,0.4,0.0,0.0,392.0,977.0,1.0,0,661.0,0
1149,1149,-0.06653925350759682,-0.1,1.0,0.0,291.0,993.0,1.0,1,186.0,0
1150,1150,-0.21799042424187642,-0.2,1.0,0.0,317.0,991.0,1.0,1,742.0,0
1151,1151,0.5133060836340303,0.5,1.0,1.0,417.0,572.0,1.0,1,571.0,1
1152,1152,0.3914441559079952,0.4,0.0,0.0,262.0,746.0,0.0,1,512.0,1
1153,1153,-0.802285672639036,-0.8,1.0,0.0,441.0,502.0,0.0,0,917.0,1
1154,1154,-0.5395812484115134,-0.5,0.0,1.0,308.0,794.0,1.0,0,328.0,1
1155,1155,-0.3722521838081714,-0.4,1.0,0.0,332.0,872.0,0.0,0,176.0,1
1156,1156,-0.3288432508979331,-0.3,0.0,1.0,404.0,611.0,1.0,0,885.0,1
1157,1157,-0.41563098039457796,-0.4,1.0,0.0,409.0,895.0,0.0,0,2356.0,1
1158,1158,-0.06516480076275954,-0.1,1.0,0.0,325.0,936.0,0.0,0,789.0,1
1159,1159,0.3617385502749736,0.4,0.0,0.0,424.0,704.0,0.0,1,1022.0,1
1160,1160,0.8491197726791931,0.8,1.0,1.0,381.0,975.0,1.0,1,264.0,1
1161,1161,0.48654057557749064,0.5,0.0,0.0,455.0,781.0,0.0,1,394.0,1
1162,1162,0.6602138866779407,0.7,1.0,1.0,479.0,819.0,1.0,1,282.0,1
1163,1163,-0.38999399311552063,-0.4,1.0,0.0,475.0,593.0,0.0,0,1192.0,1
1164,1164,-0.6261576887732643,-0.6,1.0,0.0,425.0,817.0,0.0,0,588.0,1
1165,1165,-0.3043783782414614,-0.3,0.0,1.0,430.0,562.0,1.0,0,388.0,1
1166,1166,0.8638068537247435,0.9,1.0,1.0,453.0,958.0,1.0,1,189.0,1
1167,1167,-0.09236557006044965,-0.1,1.0,0.0,374.0,999.0,0.0,0,137.0,1
1168,1168,-0.5847169227554339,-0.6,1.0,0.0,263.0,965.0,0.0,0,1402.0,1
1169,1169,-0.8662456125421387,-0.9,1.0,0.0,268.0,985.0,0.0,0,497.0,1
1170,1170,0.8130012507588783,0.8,1.0,1.0,304.0,988.0,1.0,1,268.0,1
1171,1171,0.03807383849489854,0.0,1.0,1.0,455.0,637.0,1.0,1,508.0,1
1172,1172,-0.8215638862448641,-0.8,1.0,0.0,432.0,920.0,0.0,0,108.0,1
1173,1173,-0.5419051255912111,-0.5,1.0,0.0,336.0,729.0,0.0,0,1905.0,1
1174,1174,0.6998511694823785,0.7,0.0,0.0,255.0,957.0,0.0,1,288.0,1
1175,1175,-0.11094467441409772,-0.1,0.0,1.0,252.0,621.0,0.0,1,1347.0,0
1176,1176,-0.07007138149253855,-0.1,0.0,1.0,483.0,917.0,1.0,0,510.0,1
1177,1177,-0.7643524568814504,-0.8,1.0,0.0,359.0,900.0,0.0,0,481.0,1
1178,1178,0.06050101944333941,0.1,1.0,1.0,461.0,842.0,1.0,1,997.0,1
1179,1179,-0.07582982020545348,-0.1,0.0,1.0,416.0,906.0,1.0,0,1028.0,1
1180,1180,0.8325358681975689,0.8,1.0,1.0,320.0,977.0,1.0,1,453.0,1
1181,1181,-0.5364616998531819,-0.5,0.0,1.0,325.0,718.0,1.0,0,347.0,1
1182,1182,-0.7525821050804884,-0.8,0.0,1.0,302.0,541.0,1.0,0,477.0,1
1183,1183,0.858467821782353,0.9,0.0,0.0,420.0,576.0,0.0,1,764.0,1
1184,1184,-0.1823481282574636,-0.2,0.0,1.0,386.0,577.0,0.0,1,457.0,0
1185,1185,0.14236037156536752,0.1,0.0,0.0,473.0,729.0,0.0,1,628.0,1
1186,1186,0.4758647299166828,0.5,0.0,0.0,357.0,965.0,0.0,1,378.0,1
1187,1187,-0.6349103196062714,-0.6,0.0,1.0,472.0,819.0,1.0,0,309.0,1
1188,1188,0.7235511410525021,0.7,0.0,0.0,286.0,944.0,0.0,1,680.0,1
1189,1189,0.4190106052603483,0.4,0.0,0.0,461.0,923.0,0.0,1,336.0,1
1190,1190,0.5752975762377822,0.6,1.0,1.0,303.0,919.0,1.0,1,88.0,1
1191,1191,0.7986391362771775,0.8,0.0,0.0,338.0,612.0,0.0,1,470.0,1
1192,1192,0.8713277449146376,0.9,1.0,1.0,363.0,523.0,1.0,1,884.0,1
1193,1193,-0.8634386968223801,-0.9,1.0,0.0,404.0,723.0,0.0,0,493.0,1
1194,1194,0.4598506660820204,0.5,0.0,0.0,255.0,561.0,0.0,1,444.0,1
1195,1195,-0.1986887353718877,-0.2,0.0,1.0,439.0,525.0,1.0,0,466.0,1
1196,1196,-0.15634042482127042,-0.2,0.0,1.0,412.0,957.0,1.0,0,411.0,1
1197,1197,-0.7298973423015604,-0.7,1.0,0.0,462.0,692.0,0.0,0,706.0,1
1198,1198,0.038767777997643305,0.0,1.0,1.0,421.0,660.0,1.0,1,669.0,1
1199,1199,-0.8029612126310469,-0.8,1.0,0.0,375.0,917.0,0.0,0,318.0,1
1200,1200,-0.6838004618035287,-0.7,0.0,1.0,467.0,654.0,1.0,0,599.0,1
1201,1201,-0.1473018631471671,-0.1,1.0,0.0,447.0,981.0,0.0,0,1312.0,1
1202,1202,-0.7521578657656383,-0.8,1.0,0.0,253.0,574.0,0.0,0,1033.0,1
1203,1203,0.6480692589605533,0.6,1.0,1.0,430.0,728.0,1.0,1,442.0,1
1204,1204,0.4110990207125703,0.4,0.0,0.0,312.0,506.0,0.0,1,612.0,1
1205,1205,-0.5871460040112907,-0.6,1.0,0.0,325.0,853.0,0.0,0,622.0,1
1206,1206,-0.7088332208219881,-0.7,0.0,1.0,346.0,847.0,1.0,0,377.0,1
1207,1207,-0.0345954029764145,-0.0,1.0,0.0,375.0,780.0,1.0,1,415.0,0
1208,1208,-0.20549139969661245,-0.2,1.0,0.0,333.0,933.0,0.0,0,764.0,1
1209,1209,-0.7699416323071643,-0.8,0.0,1.0,381.0,651.0,1.0,0,418.0,1
1210,1210,0.37495119446524316,0.4,1.0,1.0,398.0,780.0,1.0,1,372.0,1
1211,1211,-0.43733626192013336,-0.4,1.0,0.0,442.0,543.0,0.0,0,675.0,1
1212,1212,0.8775882318908007,0.9,1.0,1.0,417.0,591.0,1.0,1,462.0,1
1213,1213,0.33217493847176616,0.3,1.0,1.0,402.0,881.0,1.0,1,1257.0,1
1214,1214,-0.7787405506163247,-0.8,0.0,1.0,386.0,808.0,1.0,0,406.0,1
1215,1215,-0.7419302944857656,-0.7,1.0,0.0,261.0,833.0,0.0,0,546.0,1
1216,1216,0.6859958855359621,0.7,1.0,1.0,468.0,516.0,1.0,1,856.0,1
1217,1217,-0.78080461909176,-0.8,1.0,0.0,451.0,567.0,0.0,0,802.0,1
1218,1218,-0.44885307038834327,-0.4,1.0,0.0,350.0,964.0,0.0,0,356.0,1
1219,1219,-0.3783437436701629,-0.4,1.0,0.0,477.0,842.0,0.0,0,731.0,1
1220,1220,-0.062236910048156235,-0.1,1.0,0.0,450.0,527.0,1.0,1,3403.0,0
1221,1221,0.24218897854921628,0.2,0.0,0.0,387.0,738.0,1.0,0,1475.0,0
1222,1222,-0.6568324718968751,-0.7,1.0,0.0,440.0,701.0,0.0,0,1029.0,1
1223,1223,-0.5427863204385512,-0.5,1.0,0.0,461.0,594.0,0.0,0,555.0,1
1224,1224,0.412249765218052,0.4,0.0,0.0,372.0,757.0,0.0,1,211.0,1
1225,1225,-0.4671363268545482,-0.5,1.0,0.0,294.0,723.0,0.0,0,523.0,1
1226,1226,-0.7632011229773724,-0.8,0.0,1.0,471.0,511.0,1.0,0,418.0,1
1227,1227,0.29276866524885004,0.3,1.0,1.0,466.0,665.0,1.0,1,1029.0,1
1228,1228,-0.22581000954179864,-0.2,1.0,0.0,306.0,802.0,0.0,0,722.0,1
1229,1229,0.43424447408203093,0.4,1.0,1.0,372.0,831.0,1.0,1,567.0,1
1230,1230,0.8725264712823894,0.9,1.0,1.0,301.0,575.0,1.0,1,514.0,1
1231,1231,-0.6261313224133307,-0.6,1.0,0.0,376.0,882.0,0.0,0,512.0,1
1232,1232,-0.8938204812779937,-0.9,0.0,1.0,365.0,665.0,1.0,0,440.0,1
1233,1233,-0.5513734310725984,-0.6,1.0,0.0,491.0,961.0,0.0,0,278.0,1
1234,1234,-0.08402474182870057,-0.1,0.0,1.0,365.0,666.0,1.0,0,1679.0,1
1235,1235,0.37637871374611287,0.4,0.0,0.0,446.0,629.0,0.0,1,985.0,1
1236,1236,0.08816651457679381,0.1,1.0,1.0,417.0,843.0,1.0,1,320.0,1
1237,1237,-0.1425943306620543,-0.1,1.0,0.0,263.0,927.0,1.0,1,590.0,0
1238,1238,0.8381492017649971,0.8,1.0,1.0,273.0,520.0,1.0,1,347.0,1
1239,1239,-0.5196561876896404,-0.5,1.0,0.0,284.0,905.0,1.0,1,151.0,0
1240,1240,0.5421385233669481,0.5,1.0,1.0,398.0,673.0,1.0,1,559.0,1
1241,1241,-0.4869020174392568,-0.5,0.0,1.0,257.0,836.0,1.0,0,147.0,1
1242,1242,-0.5309365711015348,-0.5,0.0,1.0,432.0,514.0,1.0,0,814.0,1
1243,1243,0.6246638930477285,0.6,1.0,1.0,262.0,970.0,1.0,1,358.0,1
1244,1244,-0.5713098821516736,-0.6,1.0,0.0,442.0,517.0,0.0,0,441.0,1
1245,1245,-0.7889532623650765,-0.8,1.0,0.0,405.0,932.0,0.0,0,403.0,1
1246,1246,0.3478009585043226,0.3,1.0,1.0,449.0,787.0,1.0,1,674.0,1
1247,1247,-0.7878099345714519,-0.8,1.0,0.0,469.0,539.0,0.0,0,992.0,1
1248,1248,0.48799056818423037,0.5,1.0,1.0,366.0,954.0,1.0,1,510.0,1
1249,1249,0.17133632047032032,0.2,1.0,1.0,446.0,764.0,1.0,1,1990.0,1
1250,1250,-0.2014624599835949,-0.2,1.0,0.0,394.0,712.0,0.0,0,1394.0,1
1251,1251,0.018970021408944993,0.0,1.0,1.0,497.0,683.0,1.0,1,490.0,1
1252,1252,-0.2527515441339331,-0.3,0.0,1.0,455.0,758.0,1.0,0,537.0,1
1253,1253,-0.7547873161337391,-0.8,0.0,1.0,394.0,548.0,1.0,0,348.0,1
1254,1254,-0.2851562941061554,-0.3,0.0,1.0,293.0,675.0,1.0,0,532.0,1
1255,1255,0.18172745845392513,0.2,1.0,1.0,363.0,989.0,1.0,1,178.0,1
1256,1256,-0.3663395260204585,-0.4,1.0,0.0,419.0,773.0,1.0,1,428.0,0
1257,1257,-0.712608089511768,-0.7,0.0,1.0,407.0,796.0,1.0,0,417.0,1
1258,1258,0.10228530915745881,0.1,0.0,0.0,478.0,830.0,1.0,0,672.0,0
1259,1259,0.1228269886483292,0.1,0.0,0.0,257.0,906.0,1.0,0,267.0,0
1260,1260,-0.48327303527334503,-0.5,0.0,1.0,308.0,688.0,1.0,0,634.0,1
1261,1261,0.4250523375212739,0.4,0.0,0.0,460.0,595.0,0.0,1,805.0,1
1262,1262,0.82935413212566,0.8,0.0,0.0,327.0,581.0,0.0,1,712.0,1
1263,1263,0.2225558241991249,0.2,0.0,0.0,330.0,558.0,0.0,1,932.0,1
1264,1264,0.25764000228788164,0.3,0.0,0.0,295.0,880.0,0.0,1,975.0,1
1265,1265,-0.8552488645009441,-0.9,1.0,0.0,405.0,679.0,0.0,0,426.0,1
1266,1266,-0.74639295286276,-0.7,1.0,0.0,260.0,765.0,0.0,0,565.0,1
1267,1267,-0.21153708336823163,-0.2,0.0,1.0,378.0,610.0,1.0,0,762.0,1
1268,1268,0.808716991105397,0.8,1.0,1.0,272.0,821.0,1.0,1,427.0,1
1269,1269,-0.7497721088573126,-0.7,0.0,1.0,279.0,677.0,1.0,0,374.0,1
1270,1270,0.602191531915183,0.6,0.0,0.0,269.0,777.0,0.0,1,364.0,1
1271,1271,0.261488024613341,0.3,1.0,1.0,306.0,732.0,1.0,1,212.0,1
1272,1272,0.5306025923986132,0.5,1.0,1.0,348.0,997.0,1.0,1,195.0,1
1273,1273,0.306308555520994,0.3,1.0,1.0,261.0,536.0,1.0,1,833.0,1
1274,1274,0.3424636708188623,0.3,1.0,1.0,385.0,957.0,1.0,1,188.0,1
1275,1275,-0.42707869412319105,-0.4,0.0,1.0,469.0,520.0,1.0,0,571.0,1
1276,1276,0.19827984173461222,0.2,1.0,1.0,280.0,814.0,1.0,1,216.0,1
1277,1277,0.014275806836774207,0.0,1.0,1.0,255.0,932.0,1.0,1,123.0,1
1278,1278,0.1968317710795645,0.2,1.0,1.0,340.0,969.0,0.0,0,671.0,0
1279,1279,-0.4024483474170314,-0.4,0.0,1.0,331.0,812.0,1.0,0,577.0,1
1280,1280,-0.3634131648012072,-0.4,1.0,0.0,297.0,813.0,1.0,1,630.0,0
1281,1281,0.8242624494157377,0.8,1.0,1.0,264.0,863.0,1.0,1,153.0,1
1282,1282,0.062172017605588215,0.1,0.0,0.0,333.0,762.0,1.0,0,285.0,0
1283,1283,0.32367517598499285,0.3,0.0,0.0,348.0,651.0,0.0,1,1401.0,1
1284,1284,-0.24056093355515984,-0.2,0.0,1.0,466.0,638.0,1.0,0,816.0,1
1285,1285,0.10214655334956191,0.1,0.0,0.0,440.0,798.0,1.0,0,542.0,0
1286,1286,0.6565404497655972,0.7,1.0,1.0,386.0,534.0,1.0,1,360.0,1
1287,1287,-0.0022533113965742535,-0.0,0.0,1.0,363.0,989.0,0.0,1,538.0,0
1288,1288,0.27486638842608613,0.3,1.0,1.0,467.0,614.0,1.0,1,699.0,1
1289,1289,0.44881633495273043,0.4,0.0,0.0,254.0,853.0,0.0,1,423.0,1
1290,1290,0.755189616297843,0.8,0.0,0.0,267.0,873.0,0.0,1,320.0,1
1291,1291,0.5547891662952383,0.6,1.0,1.0,293.0,924.0,1.0,1,363.0,1
1292,1292,0.008911249847843195,0.0,1.0,1.0,387.0,887.0,1.0,1,336.0,1
1293,1293,0.417449182161317,0.4,0.0,0.0,496.0,788.0,0.0,1,456.0,1
1294,1294,0.3244633542857486,0.3,1.0,1.0,304.0,725.0,1.0,1,781.0,1
1295,1295,0.005062388225708592,0.0,1.0,1.0,377.0,992.0,1.0,1,251.0,1
1296,1296,-0.2092462069856038,-0.2,0.0,1.0,425.0,947.0,0.0,1,558.0,0
1297,1297,-0.8792678249326427,-0.9,1.0,0.0,361.0,796.0,0.0,0,293.0,1
1298,1298,-0.5989190476186439,-0.6,1.0,0.0,264.0,644.0,0.0,0,832.0,1
1299,1299,-0.8985929399298134,-0.9,0.0,1.0,378.0,675.0,1.0,0,377.0,1
1300,1300,0.0029362246089520427,0.0,0.0,0.0,299.0,832.0,0.0,1,1969.0,1
1301,1301,-0.2016033052927848,-0.2,1.0,0.0,258.0,930.0,0.0,0,1562.0,1
1302,1302,-0.1439276962348628,-0.1,0.0,1.0,423.0,682.0,1.0,0,495.0,1
1303,1303,0.283663289833329,0.3,0.0,0.0,273.0,877.0,0.0,1,780.0,1
1304,1304,0.33064105494372564,0.3,1.0,1.0,412.0,894.0,1.0,1,234.0,1
1305,1305,0.45597193320524776,0.5,0.0,0.0,442.0,701.0,0.0,1,747.0,1
1306,1306,-0.6865566813794842,-0.7,0.0,1.0,489.0,908.0,1.0,0,283.0,1
1307,1307,-0.3541389788655994,-0.4,0.0,1.0,279.0,659.0,1.0,0,432.0,1
1308,1308,0.7821894860568407,0.8,0.0,0.0,328.0,600.0,0.0,1,722.0,1
1309,1309,-0.5749286195973493,-0.6,0.0,1.0,432.0,821.0,1.0,0,447.0,1
1310,1310,0.16590832471392114,0.2,1.0,1.0,495.0,769.0,1.0,1,-54.0,1
1311,1311,0.06577417869906999,0.1,1.0,1.0,386.0,662.0,1.0,1,202.0,1
1312,1312,0.6135116881439692,0.6,1.0,1.0,434.0,546.0,1.0,1,670.0,1
1313,1313,0.3183706450524598,0.3,0.0,0.0,317.0,857.0,0.0,1,516.0,1
1314,1314,-0.6303135417085854,-0.6,1.0,0.0,353.0,696.0,0.0,0,821.0,1
1315,1315,-0.35567222403576226,-0.4,0.0,1.0,310.0,588.0,1.0,0,1042.0,1
1316,1316,-0.4008630646096053,-0.4,0.0,1.0,306.0,917.0,1.0,0,337.0,1
1317,1317,0.7175902173270533,0.7,1.0,1.0,321.0,951.0,1.0,1,348.0,1
1318,1318,-0.4960102941524461,-0.5,0.0,1.0,295.0,508.0,1.0,0,247.0,1
1319,1319,0.5649791743545579,0.6,1.0,1.0,451.0,549.0,1.0,1,650.0,1
1320,1320,0.1947655877206832,0.2,0.0,0.0,492.0,864.0,1.0,0,964.0,0
1321,1321,0.030027175906875758,0.0,1.0,1.0,317.0,809.0,1.0,1,844.0,1
1322,1322,-0.8469312358248408,-0.8,1.0,0.0,429.0,566.0,0.0,0,365.0,1
1323,1323,-0.7449441732311184,-0.7,1.0,0.0,396.0,562.0,1.0,1,822.0,0
1324,1324,0.23898552061481915,0.2,1.0,1.0,250.0,666.0,1.0,1,334.0,1
1325,1325,-0.6992179433417535,-0.7,1.0,0.0,361.0,735.0,0.0,0,544.0,1
1326,1326,0.4171054732092626,0.4,0.0,0.0,277.0,779.0,0.0,1,1024.0,1
1327,1327,0.7280968576849084,0.7,1.0,1.0,300.0,720.0,1.0,1,320.0,1
1328,1328,0.14330642293854268,0.1,0.0,0.0,495.0,893.0,1.0,0,452.0,0
1329,1329,0.6475612298173702,0.6,0.0,0.0,390.0,618.0,0.0,1,752.0,1
1330,1330,0.6993427534472537,0.7,1.0,1.0,310.0,523.0,1.0,1,517.0,1
1331,1331,-0.37031359748785597,-0.4,0.0,1.0,335.0,554.0,1.0,0,1041.0,1
1332,1332,-0.1319106002451612,-0.1,1.0,0.0,302.0,647.0,1.0,1,971.0,0
1333,1333,0.6410961879726239,0.6,0.0,0.0,288.0,814.0,0.0,1,358.0,1
1334,1334,-0.12370539890876586,-0.1,0.0,1.0,293.0,849.0,0.0,1,1198.0,0
1335,1335,-0.7068311114786082,-0.7,1.0,0.0,419.0,686.0,0.0,0,695.0,1
1336,1336,0.007325915120795945,0.0,1.0,1.0,449.0,647.0,1.0,1,864.0,1
1337,1337,0.6455139764057704,0.6,0.0,0.0,318.0,722.0,0.0,1,470.0,1
1338,1338,-0.6398058246144488,-0.6,0.0,1.0,251.0,532.0,1.0,0,807.0,1
1339,1339,-0.6826927590581168,-0.7,1.0,0.0,349.0,625.0,0.0,0,696.0,1
1340,1340,0.462568926012218,0.5,1.0,1.0,364.0,854.0,1.0,1,242.0,1
1341,1341,-0.78083317175736,-0.8,1.0,0.0,413.0,506.0,0.0,0,521.0,1
1342,1342,-0.2699183038792219,-0.3,1.0,0.0,498.0,772.0,0.0,0,250.0,1
1343,1343,0.6687157600703276,0.7,1.0,1.0,409.0,947.0,1.0,1,294.0,1
1344,1344,0.1939832401032634,0.2,0.0,0.0,411.0,793.0,1.0,0,1226.0,0
1345,1345,0.7049499522823576,0.7,0.0,0.0,423.0,557.0,0.0,1,520.0,1
1346,1346,0.06633637913694856,0.1,0.0,0.0,473.0,820.0,0.0,1,427.0,1
1347,1347,-0.27636936567435655,-0.3,1.0,0.0,382.0,696.0,0.0,0,402.0,1
1348,1348,-0.2914878196448053,-0.3,1.0,0.0,378.0,989.0,1.0,1,353.0,0
1349,1349,-0.24452533423896317,-0.2,0.0,1.0,279.0,528.0,1.0,0,693.0,1
1350,1350,0.7858080146959244,0.8,0.0,0.0,411.0,792.0,0.0,1,267.0,1
1351,1351,0.19541927181312502,0.2,0.0,0.0,291.0,855.0,0.0,1,1324.0,1
1352,1352,-0.46272658080071316,-0.5,1.0,0.0,462.0,799.0,1.0,1,1309.0,0
1353,1353,0.8852597688273963,0.9,0.0,0.0,289.0,828.0,0.0,1,333.0,1
1354,1354,-0.5427219452786032,-0.5,1.0,0.0,440.0,603.0,0.0,0,1807.0,1
1355,1355,0.3901522382177304,0.4,0.0,0.0,352.0,616.0,0.0,1,502.0,1
1356,1356,-0.4514181565889373,-0.5,1.0,0.0,344.0,597.0,0.0,0,429.0,1
1357,1357,-0.2065883787124665,-0.2,1.0,0.0,391.0,998.0,1.0,1,231.0,0
1358,1358,0.5714012876118196,0.6,0.0,0.0,253.0,757.0,0.0,1,1370.0,1
1359,1359,0.45514143697196696,0.5,1.0,1.0,447.0,850.0,1.0,1,893.0,1
1360,1360,0.4641358572521813,0.5,1.0,1.0,410.0,779.0,1.0,1,671.0,1
1361,1361,-0.5067294588578642,-0.5,0.0,1.0,353.0,912.0,1.0,0,185.0,1
1362,1362,0.806717059713184,0.8,0.0,0.0,377.0,944.0,0.0,1,349.0,1
1363,1363,0.6382841412268802,0.6,1.0,1.0,279.0,701.0,1.0,1,580.0,1
1364,1364,-0.8170677470366876,-0.8,1.0,0.0,416.0,829.0,0.0,0,655.0,1
1365,1365,0.6311828684935511,0.6,0.0,0.0,452.0,923.0,0.0,1,195.0,1
1366,1366,-0.027019144511974513,-0.0,1.0,0.0,303.0,984.0,0.0,0,433.0,1
1367,1367,-0.3773282550619391,-0.4,0.0,1.0,277.0,537.0,1.0,0,896.0,1
1368,1368,-0.6546261331031807,-0.7,0.0,1.0,273.0,990.0,1.0,0,187.0,1
1369,1369,-0.4304612774222876,-0.4,1.0,0.0,374.0,923.0,1.0,1,-137.0,0
1370,1370,0.5683866151802884,0.6,1.0,1.0,367.0,876.0,1.0,1,177.0,1
1371,1371,0.45284101004014043,0.5,0.0,0.0,321.0,752.0,0.0,1,1317.0,1
1372,1372,0.8181581267548245,0.8,0.0,0.0,400.0,669.0,0.0,1,621.0,1
1373,1373,0.5446425494582589,0.5,1.0,1.0,478.0,609.0,1.0,1,723.0,1
1374,1374,0.1151495181363017,0.1,0.0,0.0,427.0,836.0,0.0,1,627.0,1
1375,1375,0.48094934490868957,0.5,1.0,1.0,418.0,869.0,1.0,1,73.0,1
1376,1376,-0.35941080024501615,-0.4,1.0,0.0,358.0,947.0,0.0,0,515.0,1
1377,1377,-0.6872257737007387,-0.7,0.0,1.0,453.0,958.0,1.0,0,469.0,1
1378,1378,-0.7819308458635587,-0.8,1.0,0.0,445.0,622.0,0.0,0,583.0,1
1379,1379,0.0411784192469723,0.0,0.0,0.0,315.0,928.0,1.0,0,2537.0,0
1380,1380,-0.558765749702973,-0.6,1.0,0.0,474.0,598.0,0.0,0,1138.0,1
1381,1381,0.09671639987127856,0.1,0.0,0.0,362.0,907.0,1.0,0,681.0,0
1382,1382,0.5554678947716908,0.6,0.0,0.0,438.0,891.0,0.0,1,731.0,1
1383,1383,0.5835256493655835,0.6,1.0,1.0,451.0,835.0,1.0,1,704.0,1
1384,1384,-0.6638794742453875,-0.7,1.0,0.0,278.0,799.0,0.0,0,663.0,1
1385,1385,-0.4984623589515762,-0.5,1.0,0.0,300.0,843.0,0.0,0,387.0,1
1386,1386,-0.13295435014921497,-0.1,1.0,0.0,292.0,824.0,0.0,0,454.0,1
1387,1387,0.6354471112592118,0.6,1.0,1.0,445.0,780.0,1.0,1,595.0,1
1388,1388,0.7568350993622602,0.8,0.0,0.0,335.0,867.0,0.0,1,258.0,1
1389,1389,0.022105698120010286,0.0,1.0,1.0,404.0,545.0,1.0,1,1341.0,1
1390,1390,-0.014362585434055775,-0.0,0.0,1.0,349.0,634.0,0.0,1,607.0,0
1391,1391,0.09008049324277778,0.1,0.0,0.0,349.0,743.0,0.0,1,668.0,1
1392,1392,-0.5651940484736173,-0.6,1.0,0.0,373.0,616.0,0.0,0,721.0,1
1393,1393,-0.8418338420986017,-0.8,0.0,1.0,380.0,525.0,1.0,0,615.0,1
1394,1394,-0.7614444964015261,-0.8,1.0,0.0,469.0,751.0,0.0,0,400.0,1
1395,1395,-0.39053380565316564,-0.4,1.0,0.0,271.0,569.0,0.0,0,1100.0,1
1396,1396,0.8903581647873221,0.9,1.0,1.0,474.0,534.0,1.0,1,592.0,1
1397,1397,0.4274644441414116,0.4,1.0,1.0,449.0,652.0,1.0,1,469.0,1
1398,1398,0.10410650821705636,0.1,0.0,0.0,289.0,532.0,0.0,1,659.0,1
1399,1399,0.7378602985235788,0.7,1.0,1.0,415.0,862.0,1.0,1,193.0,1
1400,1400,0.1601232075388822,0.2,1.0,1.0,438.0,818.0,0.0,0,544.0,0
1401,1401,-0.2464376296841846,-0.2,0.0,1.0,415.0,768.0,1.0,0,537.0,1
1402,1402,-0.7892922565392524,-0.8,1.0,0.0,464.0,663.0,0.0,0,503.0,1
1403,1403,-0.8706026849437256,-0.9,1.0,0.0,342.0,812.0,0.0,0,446.0,1
1404,1404,-0.6011713297378847,-0.6,0.0,1.0,290.0,826.0,1.0,0,304.0,1
1405,1405,-0.716512584437492,-0.7,1.0,0.0,376.0,557.0,0.0,0,677.0,1
1406,1406,-0.6174358966037159,-0.6,1.0,0.0,409.0,842.0,0.0,0,499.0,1
1407,1407,0.6069961399830582,0.6,1.0,1.0,331.0,548.0,1.0,1,481.0,1
1408,1408,0.8648127811863785,0.9,1.0,1.0,389.0,647.0,1.0,1,554.0,1
1409,1409,-0.6575896276789989,-0.7,0.0,1.0,491.0,841.0,1.0,0,448.0,1
1410,1410,-0.16986877571770698,-0.2,0.0,1.0,381.0,942.0,1.0,0,577.0,1
1411,1411,-0.10821695000642562,-0.1,0.0,1.0,349.0,890.0,0.0,1,871.0,0
1412,1412,-0.5924001406003667,-0.6,0.0,1.0,332.0,926.0,0.0,1,382.0,0
1413,1413,-0.4402720512822635,-0.4,1.0,0.0,459.0,917.0,0.0,0,364.0,1
1414,1414,0.09893529119856936,0.1,1.0,1.0,449.0,688.0,1.0,1,623.0,1
1415,1415,0.8405966092307956,0.8,0.0,0.0,424.0,904.0,0.0,1,482.0,1
1416,1416,0.13075541533473845,0.1,1.0,1.0,268.0,926.0,1.0,1,236.0,1
1417,1417,-0.898687673372857,-0.9,0.0,1.0,439.0,930.0,1.0,0,341.0,1
1418,1418,-0.44515601444144587,-0.4,1.0,0.0,264.0,728.0,0.0,0,1038.0,1
1419,1419,0.30166968721556586,0.3,1.0,1.0,493.0,546.0,1.0,1,561.0,1
1420,1420,0.726837769916218,0.7,0.0,0.0,484.0,542.0,0.0,1,594.0,1
1421,1421,0.6255401007710554,0.6,0.0,0.0,308.0,803.0,0.0,1,309.0,1
1422,1422,0.25139075139871847,0.3,1.0,1.0,339.0,684.0,1.0,1,207.0,1
1423,1423,0.5340086075360037,0.5,1.0,1.0,294.0,652.0,1.0,1,1034.0,1
1424,1424,0.8338248050145961,0.8,1.0,1.0,332.0,797.0,1.0,1,261.0,1
1425,1425,0.8921905229755581,0.9,1.0,1.0,340.0,542.0,1.0,1,438.0,1
1426,1426,-0.60871366293002,-0.6,1.0,0.0,296.0,615.0,0.0,0,389.0,1
1427,1427,0.19799338542955003,0.2,1.0,1.0,484.0,730.0,1.0,1,286.0,1
1428,1428,0.5385444808576797,0.5,0.0,0.0,367.0,544.0,0.0,1,349.0,1
1429,1429,-0.28038237862773385,-0.3,0.0,1.0,328.0,579.0,1.0,0,683.0,1
1430,1430,-0.8338583832534223,-0.8,0.0,1.0,401.0,920.0,1.0,0,439.0,1
1431,1431,0.14196243198962677,0.1,1.0,1.0,396.0,854.0,1.0,1,1650.0,1
1432,1432,0.5097335854153994,0.5,1.0,1.0,348.0,722.0,1.0,1,340.0,1
1433,1433,0.17419025588594395,0.2,0.0,0.0,394.0,888.0,1.0,0,658.0,0
1434,1434,-0.7814174065117494,-0.8,0.0,1.0,489.0,749.0,1.0,0,372.0,1
1435,1435,0.07184722552107348,0.1,0.0,0.0,489.0,677.0,0.0,1,434.0,1
1436,1436,0.1579556514165078,0.2,1.0,1.0,312.0,602.0,1.0,1,816.0,1
1437,1437,0.20366674635488236,0.2,1.0,1.0,264.0,843.0,1.0,1,1043.0,1
1438,1438,0.77216227798287,0.8,0.0,0.0,419.0,769.0,0.0,1,422.0,1
1439,1439,-0.6815517495151073,-0.7,1.0,0.0,358.0,645.0,0.0,0,597.0,1
1440,1440,-0.07415034939211285,-0.1,1.0,0.0,336.0,732.0,1.0,1,1112.0,0
1441,1441,-0.18908106418777504,-0.2,0.0,1.0,303.0,702.0,1.0,0,765.0,1
1442,1442,-0.13448767391203198,-0.1,0.0,1.0,409.0,798.0,1.0,0,303.0,1
1443,1443,-0.628026026180718,-0.6,1.0,0.0,413.0,782.0,0.0,0,315.0,1
1444,1444,-0.49225295793772317,-0.5,0.0,1.0,284.0,857.0,1.0,0,469.0,1
1445,1445,0.857860372258913,0.9,1.0,1.0,352.0,880.0,1.0,1,118.0,1
1446,1446,0.36237604255890854,0.4,0.0,0.0,267.0,532.0,0.0,1,1481.0,1
1447,1447,0.7503861449716104,0.8,1.0,1.0,334.0,608.0,1.0,1,268.0,1
1448,1448,0.8966779841557267,0.9,0.0,0.0,426.0,962.0,0.0,1,292.0,1
1449,1449,0.6254654111951993,0.6,1.0,1.0,449.0,659.0,1.0,1,612.0,1
1450,1450,0.6321686761420192,0.6,0.0,0.0,462.0,974.0,0.0,1,174.0,1
1451,1451,-0.25666027329824803,-0.3,1.0,0.0,293.0,532.0,0.0,0,1075.0,1
1452,1452,0.36440789967403686,0.4,1.0,1.0,388.0,794.0,1.0,1,378.0,1
1453,1453,-0.09748088730083948,-0.1,1.0,0.0,308.0,867.0,1.0,1,995.0,0
1454,1454,-0.7636611778443777,-0.8,1.0,0.0,308.0,636.0,0.0,0,506.0,1
1455,1455,-0.21555410671161845,-0.2,1.0,0.0,358.0,512.0,1.0,1,1350.0,0
1456,1456,-0.43134265344733014,-0.4,1.0,0.0,346.0,537.0,0.0,0,547.0,1
1457,1457,0.7542585158966865,0.8,1.0,1.0,462.0,697.0,1.0,1,351.0,1
1458,1458,0.4344787978433421,0.4,0.0,0.0,297.0,610.0,0.0,1,403.0,1
1459,1459,-0.6952975167044722,-0.7,0.0,1.0,310.0,631.0,1.0,0,999.0,1
1460,1460,-0.8908793080801668,-0.9,0.0,1.0,440.0,730.0,1.0,0,360.0,1
1461,1461,-0.40611201883248305,-0.4,1.0,0.0,480.0,661.0,0.0,0,629.0,1
1462,1462,-0.2441614785847087,-0.2,0.0,1.0,468.0,824.0,1.0,0,358.0,1
1463,1463,0.5742777429010101,0.6,1.0,1.0,311.0,848.0,1.0,1,411.0,1
1464,1464,-0.7551018356342794,-0.8,0.0,1.0,383.0,730.0,1.0,0,177.0,1
1465,1465,-0.3877251034528708,-0.4,1.0,0.0,370.0,783.0,1.0,1,657.0,0
1466,1466,-0.854208663900463,-0.9,1.0,0.0,494.0,501.0,0.0,0,545.0,1
1467,1467,-0.09646090738616808,-0.1,1.0,0.0,281.0,524.0,1.0,1,575.0,0
1468,1468,0.12721436289927046,0.1,1.0,1.0,412.0,529.0,1.0,1,669.0,1
1469,1469,-0.11969353701166208,-0.1,0.0,1.0,351.0,765.0,1.0,0,924.0,1
1470,1470,0.15730819185418532,0.2,1.0,1.0,360.0,735.0,1.0,1,305.0,1
1471,1471,0.046323644489679516,0.0,1.0,1.0,341.0,742.0,0.0,0,1467.0,0
1472,1472,0.5026784069871638,0.5,1.0,1.0,483.0,769.0,1.0,1,558.0,1
1473,1473,0.7025031911586769,0.7,0.0,0.0,303.0,712.0,0.0,1,635.0,1
1474,1474,-0.6054684068976945,-0.6,0.0,1.0,474.0,888.0,1.0,0,1118.0,1
1475,1475,-0.6494037174806067,-0.6,0.0,1.0,329.0,749.0,1.0,0,372.0,1
1476,1476,0.3035222719330165,0.3,0.0,0.0,477.0,716.0,0.0,1,527.0,1
1477,1477,0.6817038184514287,0.7,1.0,1.0,293.0,977.0,1.0,1,220.0,1
1478,1478,-0.6683847712089566,-0.7,1.0,0.0,256.0,772.0,0.0,0,472.0,1
1479,1479,0.650245036272103,0.7,0.0,0.0,302.0,889.0,0.0,1,379.0,1
1480,1480,-0.7466891506148501,-0.7,0.0,1.0,413.0,650.0,1.0,0,257.0,1
1481,1481,0.862328197471394,0.9,0.0,0.0,302.0,720.0,0.0,1,538.0,1
1482,1482,0.7800764396290266,0.8,0.0,0.0,396.0,622.0,0.0,1,722.0,1
1483,1483,0.8975684023692933,0.9,1.0,1.0,291.0,949.0,1.0,1,220.0,1
1484,1484,0.06654709915029688,0.1,1.0,1.0,327.0,553.0,1.0,1,860.0,1
1485,1485,-0.2078807394769272,-0.2,0.0,1.0,283.0,907.0,1.0,0,700.0,1
1486,1486,-0.4668026098158496,-0.5,0.0,1.0,309.0,639.0,1.0,0,432.0,1
1487,1487,-0.6950822818813609,-0.7,1.0,0.0,491.0,742.0,0.0,0,447.0,1
1488,1488,-0.21105764789621806,-0.2,1.0,0.0,437.0,908.0,1.0,1,575.0,0
1489,1489,-0.8693410088121608,-0.9,1.0,0.0,342.0,574.0,0.0,0,314.0,1
1490,1490,0.08884032626794736,0.1,0.0,0.0,424.0,957.0,1.0,0,259.0,0
1491,1491,0.3793319149263502,0.4,1.0,1.0,377.0,944.0,1.0,1,739.0,1
