,trial,coherence,coherence_bin,green_side,correct_side,target_onset,checker_onset,decision,green_decision,decision_time,correct_decision
0,0,-0.7842940119705187,-0.8,1.0,0.0,386.0,562.0,0.0,0,622.0,1
1,1,-0.7847953977898372,-0.8,1.0,0.0,405.0,536.0,0.0,0,299.0,1
2,2,-0.023133930088269028,-0.0,0.0,1.0,312.0,833.0,1.0,0,835.0,1
3,3,0.3423895768130897,0.3,0.0,0.0,310.0,634.0,0.0,1,376.0,1
4,4,0.7067647762027564,0.7,0.0,0.0,323.0,539.0,0.0,1,268.0,1
5,5,0.7797960314522853,0.8,0.0,0.0,323.0,658.0,0.0,1,119.0,1
6,6,-0.4511557447135492,-0.5,0.0,1.0,455.0,981.0,1.0,0,-6.0,1
7,7,0.21187481632832295,0.2,1.0,1.0,408.0,715.0,1.0,1,377.0,1
8,8,0.3387167442998772,0.3,0.0,0.0,289.0,562.0,0.0,1,279.0,1
9,9,0.584272181493911,0.6,1.0,1.0,471.0,598.0,1.0,1,601.0,1
10,10,0.5065689739632523,0.5,1.0,1.0,455.0,634.0,1.0,1,331.0,1
11,11,0.4104504922249169,0.4,1.0,1.0,372.0,969.0,1.0,1,179.0,1
12,12,-0.1339874246987145,-0.1,1.0,0.0,457.0,515.0,1.0,1,4028.0,0
13,13,-0.43444243170466124,-0.4,0.0,1.0,392.0,611.0,1.0,0,717.0,1
14,14,-0.5453163873340812,-0.5,0.0,1.0,385.0,665.0,1.0,0,310.0,1
15,15,-0.12772874700802583,-0.1,0.0,1.0,479.0,674.0,1.0,0,937.0,1
16,16,0.785984056296846,0.8,0.0,0.0,349.0,707.0,0.0,1,214.0,1
17,17,-0.2457139506884649,-0.2,1.0,0.0,349.0,950.0,0.0,0,2151.0,1
18,18,-0.5401560728943302,-0.5,0.0,1.0,349.0,873.0,1.0,0,218.0,1
19,19,-0.43585910176262843,-0.4,0.0,1.0,335.0,999.0,1.0,0,36.0,1
20,20,0.490622455580232,0.5,0.0,0.0,254.0,968.0,0.0,1,158.0,1
21,21,-0.06141183770623826,-0.1,1.0,0.0,275.0,575.0,1.0,1,1800.0,0
22,22,0.722172529867901,0.7,0.0,0.0,301.0,737.0,0.0,1,142.0,1
23,23,0.7565571904534484,0.8,1.0,1.0,363.0,896.0,1.0,1,281.0,1
24,24,0.25930173252396294,0.3,0.0,0.0,419.0,776.0,0.0,1,1025.0,1
25,25,-0.6029485167248889,-0.6,0.0,1.0,255.0,982.0,1.0,0,403.0,1
26,26,-0.4572959706282712,-0.5,0.0,1.0,314.0,611.0,1.0,0,285.0,1
27,27,-0.2615581648322606,-0.3,1.0,0.0,356.0,645.0,0.0,0,269.0,1
28,28,0.4864505720336253,0.5,0.0,0.0,479.0,616.0,0.0,1,345.0,1
29,29,-0.4168704669145784,-0.4,0.0,1.0,322.0,845.0,1.0,0,143.0,1
30,30,0.8329008044269289,0.8,1.0,1.0,330.0,666.0,1.0,1,254.0,1
31,31,0.442908037114475,0.4,0.0,0.0,375.0,967.0,0.0,1,218.0,1
32,32,-0.8576998329327182,-0.9,1.0,0.0,484.0,860.0,0.0,0,156.0,1
33,33,-0.5818174118486417,-0.6,1.0,0.0,478.0,964.0,0.0,0,178.0,1
34,34,-0.19900454668579803,-0.2,0.0,1.0,465.0,629.0,1.0,0,486.0,1
35,35,0.2416242680931281,0.2,1.0,1.0,447.0,619.0,1.0,1,694.0,1
36,36,-0.0825191262700139,-0.1,0.0,1.0,258.0,624.0,0.0,1,528.0,0
37,37,0.7878344205532858,0.8,1.0,1.0,457.0,858.0,1.0,1,255.0,1
38,38,0.7040134592137076,0.7,1.0,1.0,450.0,640.0,1.0,1,320.0,1
39,39,-0.2618602203708055,-0.3,0.0,1.0,351.0,720.0,1.0,0,679.0,1
40,40,-0.6564231920656711,-0.7,0.0,1.0,354.0,719.0,1.0,0,297.0,1
41,41,-0.09497824427216517,-0.1,0.0,1.0,443.0,893.0,1.0,0,304.0,1
42,42,-0.5331786798529807,-0.5,0.0,1.0,451.0,600.0,1.0,0,299.0,1
43,43,0.7865412013957206,0.8,0.0,0.0,415.0,745.0,0.0,1,400.0,1
44,44,-0.41118141645969125,-0.4,0.0,1.0,491.0,718.0,1.0,0,501.0,1
45,45,0.2561509006593007,0.3,1.0,1.0,477.0,626.0,1.0,1,1207.0,1
46,46,0.1503500228826623,0.2,1.0,1.0,486.0,556.0,1.0,1,598.0,1
47,47,-0.1105361511689209,-0.1,1.0,0.0,322.0,677.0,0.0,0,641.0,1
48,48,-0.7079041339794521,-0.7,1.0,0.0,267.0,529.0,0.0,0,414.0,1
49,49,-0.5383760547824097,-0.5,0.0,1.0,408.0,986.0,1.0,0,176.0,1
50,50,-0.07835160233264926,-0.1,0.0,1.0,309.0,676.0,1.0,0,465.0,1
51,51,0.3168603115014582,0.3,0.0,0.0,277.0,803.0,0.0,1,470.0,1
52,52,-0.7645953671580106,-0.8,1.0,0.0,434.0,985.0,0.0,0,221.0,1
53,53,0.3658331930096054,0.4,1.0,1.0,279.0,708.0,1.0,1,233.0,1
54,54,-0.21099471684210325,-0.2,1.0,0.0,481.0,806.0,0.0,0,383.0,1
55,55,0.42887437444670773,0.4,1.0,1.0,309.0,962.0,1.0,1,279.0,1
56,56,-0.2681133695162434,-0.3,1.0,0.0,288.0,780.0,0.0,0,402.0,1
57,57,0.11536375371869967,0.1,0.0,0.0,362.0,901.0,0.0,1,347.0,1
58,58,-0.7159536124575842,-0.7,0.0,1.0,415.0,693.0,1.0,0,202.0,1
59,59,-0.33203872659794065,-0.3,0.0,1.0,387.0,611.0,1.0,0,232.0,1
60,60,-0.10349503277902528,-0.1,1.0,0.0,474.0,849.0,0.0,0,3677.0,1
61,61,-0.05583600830669422,-0.1,1.0,0.0,295.0,805.0,0.0,0,1180.0,1
62,62,0.8849186569491786,0.9,1.0,1.0,357.0,940.0,1.0,1,263.0,1
63,63,0.716035571426077,0.7,1.0,1.0,434.0,886.0,1.0,1,80.0,1
64,64,-0.872780655597941,-0.9,0.0,1.0,478.0,980.0,1.0,0,-58.0,1
65,65,0.8621174437164886,0.9,1.0,1.0,444.0,893.0,1.0,1,133.0,1
66,66,0.07232930753214839,0.1,1.0,1.0,449.0,799.0,0.0,0,512.0,0
67,67,-0.3731839982020776,-0.4,1.0,0.0,487.0,672.0,0.0,0,751.0,1
68,68,-0.34711135680971716,-0.3,1.0,0.0,352.0,764.0,0.0,0,334.0,1
69,69,0.3920133507482769,0.4,0.0,0.0,406.0,677.0,0.0,1,257.0,1
70,70,0.7156053081980548,0.7,0.0,0.0,404.0,733.0,0.0,1,153.0,1
71,71,-0.7004229202089459,-0.7,1.0,0.0,286.0,558.0,0.0,0,696.0,1
72,72,0.7941828164706882,0.8,0.0,0.0,292.0,596.0,0.0,1,192.0,1
73,73,-0.12363777304426637,-0.1,1.0,0.0,464.0,589.0,0.0,0,747.0,1
74,74,-0.4877427539523436,-0.5,1.0,0.0,409.0,591.0,0.0,0,460.0,1
75,75,-0.4601033303776821,-0.5,1.0,0.0,307.0,624.0,0.0,0,339.0,1
76,76,-0.8140369686454345,-0.8,0.0,1.0,412.0,524.0,1.0,0,274.0,1
77,77,-0.6043219607728558,-0.6,0.0,1.0,379.0,604.0,1.0,0,337.0,1
78,78,-0.15926037423886086,-0.2,1.0,0.0,408.0,587.0,0.0,0,395.0,1
79,79,0.618104216457665,0.6,1.0,1.0,416.0,535.0,1.0,1,609.0,1
80,80,0.5867844743295375,0.6,1.0,1.0,298.0,609.0,1.0,1,363.0,1
81,81,0.03994394332921525,0.0,1.0,1.0,396.0,948.0,1.0,1,966.0,1
82,82,0.6694527290323892,0.7,1.0,1.0,355.0,843.0,1.0,1,222.0,1
83,83,0.8778292363300956,0.9,0.0,0.0,313.0,981.0,0.0,1,36.0,1
84,84,-0.23541371995230265,-0.2,1.0,0.0,261.0,708.0,0.0,0,541.0,1
85,85,0.6758627142747159,0.7,0.0,0.0,392.0,730.0,0.0,1,268.0,1
86,86,-0.8212524511853468,-0.8,1.0,0.0,488.0,860.0,0.0,0,312.0,1
87,87,-0.18753880981715954,-0.2,0.0,1.0,287.0,835.0,1.0,0,358.0,1
88,88,-0.4835270438549349,-0.5,1.0,0.0,414.0,752.0,0.0,0,354.0,1
89,89,-0.4473094534440866,-0.4,0.0,1.0,360.0,826.0,1.0,0,274.0,1
90,90,0.591475299389408,0.6,0.0,0.0,357.0,737.0,0.0,1,216.0,1
91,91,0.09176752854567027,0.1,0.0,0.0,472.0,595.0,1.0,0,1543.0,0
92,92,0.8312156702331318,0.8,0.0,0.0,407.0,832.0,0.0,1,171.0,1
93,93,0.08312073373479467,0.1,1.0,1.0,472.0,506.0,1.0,1,782.0,1
94,94,0.6796313941558277,0.7,1.0,1.0,325.0,581.0,1.0,1,394.0,1
95,95,-0.5513336756866527,-0.6,1.0,0.0,352.0,897.0,0.0,0,161.0,1
96,96,0.0013697344787387822,0.0,0.0,0.0,359.0,515.0,1.0,0,496.0,0
97,97,0.20615134323962236,0.2,0.0,0.0,282.0,846.0,0.0,1,322.0,1
98,98,-0.8277056719475141,-0.8,0.0,1.0,476.0,641.0,1.0,0,333.0,1
99,99,-0.730918577338979,-0.7,0.0,1.0,448.0,874.0,1.0,0,148.0,1
100,100,0.36552608889783456,0.4,1.0,1.0,457.0,912.0,1.0,1,171.0,1
101,101,-0.8486415192398488,-0.8,0.0,1.0,303.0,933.0,1.0,0,64.0,1
102,102,-0.8884771900625663,-0.9,0.0,1.0,374.0,803.0,1.0,0,193.0,1
103,103,-0.03946110563646632,-0.0,0.0,1.0,309.0,919.0,1.0,0,942.0,1
104,104,0.6486966136950459,0.6,0.0,0.0,382.0,641.0,0.0,1,327.0,1
105,105,0.2561420519541576,0.3,0.0,0.0,440.0,889.0,0.0,1,561.0,1
106,106,-0.6789533718402825,-0.7,1.0,0.0,483.0,710.0,0.0,0,357.0,1
107,107,0.52386338163371,0.5,1.0,1.0,266.0,512.0,1.0,1,562.0,1
108,108,0.7852921480459588,0.8,0.0,0.0,407.0,728.0,0.0,1,195.0,1
109,109,-0.8690536891883717,-0.9,1.0,0.0,262.0,618.0,0.0,0,420.0,1
110,110,-0.43184268884242644,-0.4,1.0,0.0,486.0,578.0,0.0,0,526.0,1
111,111,-0.7528612538979568,-0.8,1.0,0.0,305.0,742.0,0.0,0,273.0,1
112,112,0.646427226826292,0.6,0.0,0.0,337.0,609.0,0.0,1,204.0,1
113,113,0.6293082235880384,0.6,1.0,1.0,374.0,829.0,1.0,1,317.0,1
114,114,0.2737871808197566,0.3,0.0,0.0,469.0,535.0,0.0,1,616.0,1
115,115,0.3784457790763912,0.4,0.0,0.0,460.0,724.0,0.0,1,196.0,1
116,116,0.8695267453813976,0.9,1.0,1.0,292.0,908.0,1.0,1,240.0,1
117,117,0.058160256342164374,0.1,1.0,1.0,310.0,862.0,1.0,1,1788.0,1
118,118,0.5534438858704841,0.6,1.0,1.0,378.0,606.0,1.0,1,376.0,1
119,119,-0.5174515388924028,-0.5,1.0,0.0,372.0,552.0,0.0,0,606.0,1
120,120,0.04947283477366793,0.0,1.0,1.0,346.0,561.0,1.0,1,583.0,1
121,121,-0.6373926769273652,-0.6,1.0,0.0,298.0,852.0,0.0,0,150.0,1
122,122,0.6162171809807989,0.6,0.0,0.0,477.0,974.0,0.0,1,229.0,1
123,123,-0.8796153958716473,-0.9,0.0,1.0,426.0,747.0,1.0,0,177.0,1
124,124,-0.00039384895087579697,-0.0,1.0,0.0,427.0,923.0,1.0,1,1100.0,0
125,125,0.47828254713511253,0.5,0.0,0.0,367.0,776.0,0.0,1,267.0,1
126,126,0.6371877415564003,0.6,1.0,1.0,435.0,978.0,1.0,1,137.0,1
127,127,0.0720706984419226,0.1,1.0,1.0,479.0,592.0,1.0,1,1729.0,1
128,128,0.8248699994056578,0.8,1.0,1.0,422.0,868.0,1.0,1,260.0,1
129,129,0.2094160172000875,0.2,1.0,1.0,341.0,592.0,1.0,1,1087.0,1
130,130,-0.01176015478682424,-0.0,0.0,1.0,255.0,980.0,1.0,0,825.0,1
131,131,-0.18065384216476577,-0.2,0.0,1.0,449.0,994.0,1.0,0,47.0,1
132,132,-0.2882734546059845,-0.3,1.0,0.0,394.0,847.0,0.0,0,739.0,1
133,133,0.3031385387283859,0.3,1.0,1.0,358.0,923.0,1.0,1,409.0,1
134,134,0.09882116049709389,0.1,0.0,0.0,499.0,545.0,0.0,1,886.0,1
135,135,-0.7496017996038571,-0.7,1.0,0.0,480.0,895.0,0.0,0,545.0,1
136,136,0.288250943184689,0.3,1.0,1.0,322.0,963.0,1.0,1,295.0,1
137,137,-0.19952909356896398,-0.2,0.0,1.0,367.0,717.0,1.0,0,616.0,1
138,138,-0.20324383368017662,-0.2,1.0,0.0,297.0,783.0,0.0,0,2140.0,1
139,139,-0.8241710074599997,-0.8,0.0,1.0,459.0,760.0,1.0,0,241.0,1
140,140,-0.19450214412081368,-0.2,0.0,1.0,312.0,907.0,1.0,0,501.0,1
141,141,0.7039408450708095,0.7,1.0,1.0,334.0,537.0,1.0,1,459.0,1
142,142,-0.37900295165728326,-0.4,0.0,1.0,289.0,666.0,1.0,0,485.0,1
143,143,0.17927369755273748,0.2,1.0,1.0,337.0,615.0,1.0,1,388.0,1
144,144,-0.0782304617942382,-0.1,1.0,0.0,462.0,556.0,0.0,0,542.0,1
145,145,-0.741525667618072,-0.7,0.0,1.0,392.0,818.0,1.0,0,240.0,1
146,146,-0.4467780119063522,-0.4,1.0,0.0,477.0,533.0,0.0,0,280.0,1
147,147,0.38974591537082215,0.4,1.0,1.0,309.0,648.0,1.0,1,393.0,1
148,148,-0.33227868860598164,-0.3,0.0,1.0,272.0,882.0,1.0,0,386.0,1
149,149,0.33728323584991526,0.3,1.0,1.0,250.0,657.0,1.0,1,433.0,1
150,150,-0.26470189455626814,-0.3,1.0,0.0,277.0,941.0,0.0,0,322.0,1
151,151,0.015168822851582275,0.0,1.0,1.0,406.0,569.0,1.0,1,3225.0,1
152,152,-0.4600149121398805,-0.5,1.0,0.0,478.0,784.0,0.0,0,278.0,1
153,153,0.042675659189275184,0.0,0.0,0.0,300.0,597.0,0.0,1,2723.0,1
154,154,-0.04694122234215248,-0.0,1.0,0.0,278.0,526.0,1.0,1,3876.0,0
155,155,0.2843792790851455,0.3,0.0,0.0,313.0,893.0,0.0,1,284.0,1
156,156,0.20619621589986215,0.2,1.0,1.0,339.0,898.0,1.0,1,1003.0,1
157,157,-0.7212973379599222,-0.7,0.0,1.0,394.0,673.0,1.0,0,513.0,1
158,158,0.4158568652031628,0.4,1.0,1.0,332.0,917.0,1.0,1,131.0,1
159,159,0.7082685906048299,0.7,0.0,0.0,461.0,540.0,0.0,1,279.0,1
160,160,0.8726708293440498,0.9,0.0,0.0,270.0,842.0,0.0,1,198.0,1
161,161,0.6866181869283775,0.7,0.0,0.0,296.0,991.0,0.0,1,103.0,1
162,162,0.757735134131544,0.8,1.0,1.0,317.0,876.0,1.0,1,217.0,1
163,163,-0.35987621627915667,-0.4,1.0,0.0,295.0,532.0,0.0,0,343.0,1
164,164,-0.5701670643833581,-0.6,0.0,1.0,381.0,869.0,1.0,0,180.0,1
165,165,-0.029121809394383247,-0.0,0.0,1.0,411.0,882.0,1.0,0,1107.0,1
166,166,0.3799302031437638,0.4,1.0,1.0,388.0,526.0,1.0,1,396.0,1
167,167,0.5840750874482047,0.6,1.0,1.0,301.0,537.0,1.0,1,382.0,1
168,168,-0.7810313270228678,-0.8,1.0,0.0,443.0,951.0,0.0,0,156.0,1
169,169,-0.5411096317001041,-0.5,1.0,0.0,412.0,959.0,0.0,0,319.0,1
170,170,-0.14911008296266093,-0.1,1.0,0.0,384.0,677.0,0.0,0,919.0,1
171,171,-0.5143116681161397,-0.5,0.0,1.0,335.0,881.0,1.0,0,314.0,1
172,172,0.39223847345582874,0.4,0.0,0.0,431.0,875.0,0.0,1,174.0,1
173,173,0.8932822360230469,0.9,1.0,1.0,255.0,737.0,1.0,1,258.0,1
174,174,0.6485421554296088,0.6,1.0,1.0,306.0,975.0,1.0,1,299.0,1
175,175,0.5384890854377343,0.5,0.0,0.0,328.0,760.0,0.0,1,222.0,1
176,176,-0.8188327955832433,-0.8,0.0,1.0,427.0,951.0,1.0,0,112.0,1
177,177,-0.6119381937829367,-0.6,1.0,0.0,299.0,979.0,0.0,0,92.0,1
178,178,-0.5354972770526842,-0.5,1.0,0.0,336.0,749.0,0.0,0,395.0,1
179,179,0.5363553917568201,0.5,1.0,1.0,408.0,662.0,1.0,1,200.0,1
180,180,-0.5382203620915522,-0.5,0.0,1.0,375.0,884.0,1.0,0,131.0,1
181,181,0.8414668971301452,0.8,0.0,0.0,436.0,682.0,0.0,1,202.0,1
182,182,-0.7972663174860865,-0.8,0.0,1.0,299.0,682.0,1.0,0,439.0,1
183,183,0.31635411302968064,0.3,0.0,0.0,347.0,781.0,0.0,1,272.0,1
184,184,-0.4717187834313572,-0.5,1.0,0.0,450.0,627.0,0.0,0,413.0,1
185,185,0.09718646808438569,0.1,1.0,1.0,460.0,907.0,1.0,1,723.0,1
186,186,0.29608372199428123,0.3,0.0,0.0,450.0,620.0,0.0,1,480.0,1
187,187,0.3747567760747571,0.4,0.0,0.0,300.0,949.0,0.0,1,301.0,1
188,188,-0.21652858706486822,-0.2,1.0,0.0,381.0,717.0,0.0,0,562.0,1
189,189,0.5134241932474667,0.5,1.0,1.0,403.0,985.0,1.0,1,82.0,1
190,190,0.7685827212115598,0.8,1.0,1.0,308.0,505.0,1.0,1,407.0,1
191,191,-0.18076905090032414,-0.2,0.0,1.0,302.0,855.0,1.0,0,373.0,1
192,192,0.06006834622709245,0.1,0.0,0.0,404.0,886.0,0.0,1,1400.0,1
193,193,-0.7625092261164169,-0.8,0.0,1.0,406.0,806.0,1.0,0,198.0,1
194,194,0.4521665540410741,0.5,1.0,1.0,470.0,768.0,1.0,1,292.0,1
195,195,0.6784601989316931,0.7,0.0,0.0,476.0,813.0,0.0,1,231.0,1
196,196,-0.09336263357539032,-0.1,1.0,0.0,325.0,915.0,0.0,0,880.0,1
197,197,-0.554243083981587,-0.6,1.0,0.0,361.0,911.0,0.0,0,238.0,1
198,198,-0.6015713603789199,-0.6,0.0,1.0,377.0,916.0,1.0,0,167.0,1
199,199,0.8148937154466981,0.8,0.0,0.0,317.0,519.0,0.0,1,264.0,1
200,200,-0.8040608458817834,-0.8,1.0,0.0,337.0,662.0,0.0,0,271.0,1
201,201,-0.3727874443223015,-0.4,1.0,0.0,371.0,703.0,0.0,0,496.0,1
202,202,0.052174037808479845,0.1,0.0,0.0,327.0,702.0,1.0,0,761.0,0
203,203,-0.014167429066607284,-0.0,1.0,0.0,352.0,694.0,1.0,1,1784.0,0
204,204,0.031562409145917125,0.0,0.0,0.0,363.0,793.0,1.0,0,584.0,0
205,205,-0.3295270518062282,-0.3,1.0,0.0,301.0,658.0,0.0,0,231.0,1
206,206,-0.6363222438144315,-0.6,1.0,0.0,471.0,731.0,0.0,0,228.0,1
207,207,0.24624569994835543,0.2,0.0,0.0,415.0,946.0,0.0,1,529.0,1
208,208,-0.3354327515130219,-0.3,0.0,1.0,468.0,515.0,1.0,0,607.0,1
209,209,-0.49103685905970545,-0.5,1.0,0.0,377.0,945.0,0.0,0,268.0,1
210,210,0.8001721889129111,0.8,0.0,0.0,330.0,761.0,0.0,1,269.0,1
211,211,-0.2897510575887873,-0.3,0.0,1.0,406.0,963.0,1.0,0,251.0,1
212,212,-0.7339740934553743,-0.7,1.0,0.0,305.0,516.0,0.0,0,379.0,1
213,213,0.6808843209445293,0.7,0.0,0.0,305.0,678.0,0.0,1,287.0,1
214,214,0.8913417781284511,0.9,1.0,1.0,255.0,895.0,1.0,1,110.0,1
215,215,-0.7976242514567019,-0.8,1.0,0.0,266.0,726.0,0.0,0,268.0,1
216,216,-0.8904996301868724,-0.9,0.0,1.0,411.0,844.0,1.0,0,135.0,1
217,217,-0.43653541289982406,-0.4,1.0,0.0,475.0,553.0,0.0,0,622.0,1
218,218,-0.7999289884615847,-0.8,1.0,0.0,409.0,855.0,0.0,0,176.0,1
219,219,0.5586529328105273,0.6,0.0,0.0,367.0,707.0,0.0,1,236.0,1
220,220,-0.6848832756098547,-0.7,0.0,1.0,252.0,517.0,1.0,0,551.0,1
221,221,-0.24511006334627505,-0.2,1.0,0.0,328.0,678.0,0.0,0,154.0,1
222,222,-0.2468053533549307,-0.2,0.0,1.0,310.0,994.0,1.0,0,146.0,1
223,223,0.8067484354606557,0.8,0.0,0.0,460.0,999.0,0.0,1,151.0,1
224,224,0.17222107167809841,0.2,1.0,1.0,392.0,531.0,1.0,1,587.0,1
225,225,0.8698074475214005,0.9,0.0,0.0,493.0,521.0,0.0,1,536.0,1
226,226,0.37269481924631276,0.4,1.0,1.0,487.0,684.0,1.0,1,349.0,1
227,227,-0.6760026444724946,-0.7,0.0,1.0,483.0,667.0,1.0,0,320.0,1
228,228,-0.40106863589598685,-0.4,1.0,0.0,384.0,546.0,0.0,0,640.0,1
229,229,-0.14333010160044335,-0.1,0.0,1.0,302.0,828.0,1.0,0,320.0,1
230,230,-0.13178914889800142,-0.1,1.0,0.0,333.0,527.0,0.0,0,800.0,1
231,231,-0.07395198417539284,-0.1,0.0,1.0,420.0,507.0,1.0,0,803.0,1
232,232,0.1771675942016372,0.2,0.0,0.0,273.0,953.0,0.0,1,524.0,1
233,233,0.5140188202304009,0.5,1.0,1.0,393.0,688.0,1.0,1,359.0,1
234,234,0.02015836458528153,0.0,1.0,1.0,420.0,936.0,1.0,1,3644.0,1
235,235,-0.27855078798115407,-0.3,1.0,0.0,280.0,627.0,0.0,0,513.0,1
236,236,0.5028224514653904,0.5,0.0,0.0,336.0,602.0,0.0,1,402.0,1
237,237,0.8708592986756883,0.9,0.0,0.0,471.0,858.0,0.0,1,101.0,1
238,238,-0.222523000978751,-0.2,1.0,0.0,398.0,872.0,0.0,0,370.0,1
239,239,0.22809145884810766,0.2,1.0,1.0,438.0,696.0,1.0,1,306.0,1
240,240,-0.21323960838519274,-0.2,1.0,0.0,352.0,866.0,0.0,0,372.0,1
241,241,-0.17756114131027145,-0.2,1.0,0.0,457.0,704.0,0.0,0,969.0,1
242,242,-0.037033257661356456,-0.0,1.0,0.0,323.0,810.0,0.0,0,1977.0,1
243,243,0.5007908175709891,0.5,1.0,1.0,422.0,874.0,1.0,1,264.0,1
244,244,0.8602002035219917,0.9,0.0,0.0,479.0,927.0,0.0,1,164.0,1
245,245,0.7705209744348359,0.8,1.0,1.0,484.0,598.0,1.0,1,358.0,1
246,246,0.7878503291578874,0.8,0.0,0.0,265.0,939.0,0.0,1,236.0,1
247,247,-0.20418838651055193,-0.2,1.0,0.0,470.0,728.0,0.0,0,502.0,1
248,248,0.03701712383201039,0.0,0.0,0.0,296.0,542.0,0.0,1,952.0,1
249,249,0.03256914287823898,0.0,0.0,0.0,396.0,884.0,1.0,0,230.0,0
250,250,-0.4203283975427446,-0.4,1.0,0.0,324.0,632.0,0.0,0,294.0,1
251,251,-0.29789081576466336,-0.3,1.0,0.0,457.0,644.0,0.0,0,689.0,1
252,252,0.319891450230709,0.3,1.0,1.0,320.0,529.0,1.0,1,701.0,1
253,253,0.8584116548546638,0.9,1.0,1.0,443.0,950.0,1.0,1,87.0,1
254,254,-0.6220814665737568,-0.6,1.0,0.0,262.0,630.0,0.0,0,218.0,1
255,255,-0.7242688246769567,-0.7,0.0,1.0,425.0,533.0,1.0,0,352.0,1
256,256,-0.6305796895909812,-0.6,1.0,0.0,319.0,983.0,0.0,0,138.0,1
257,257,-0.6248837763298151,-0.6,0.0,1.0,461.0,800.0,1.0,0,209.0,1
258,258,0.8046860950868165,0.8,1.0,1.0,407.0,864.0,1.0,1,199.0,1
259,259,0.5673003171456207,0.6,1.0,1.0,297.0,522.0,1.0,1,651.0,1
260,260,-0.8985653382389259,-0.9,1.0,0.0,404.0,726.0,0.0,0,370.0,1
261,261,-0.8796943373340268,-0.9,1.0,0.0,298.0,681.0,0.0,0,281.0,1
262,262,0.41180724937894875,0.4,0.0,0.0,289.0,973.0,0.0,1,138.0,1
263,263,0.4167668943035464,0.4,0.0,0.0,336.0,666.0,0.0,1,278.0,1
264,264,-0.6367161035226447,-0.6,1.0,0.0,412.0,564.0,0.0,0,424.0,1
265,265,0.24275247918579146,0.2,0.0,0.0,363.0,616.0,0.0,1,861.0,1
266,266,-0.4764139650982665,-0.5,0.0,1.0,432.0,918.0,1.0,0,260.0,1
267,267,0.6689898882199071,0.7,1.0,1.0,381.0,771.0,1.0,1,188.0,1
268,268,0.8989331135242223,0.9,1.0,1.0,340.0,829.0,1.0,1,471.0,1
269,269,-0.0027245539546997266,-0.0,0.0,1.0,330.0,936.0,0.0,1,914.0,0
270,270,-0.11810276668661068,-0.1,1.0,0.0,276.0,841.0,0.0,0,783.0,1
271,271,-0.5104263546066903,-0.5,0.0,1.0,252.0,667.0,1.0,0,251.0,1
272,272,0.880969036888615,0.9,1.0,1.0,347.0,833.0,1.0,1,200.0,1
273,273,0.5240789241001141,0.5,1.0,1.0,459.0,972.0,1.0,1,139.0,1
274,274,0.351287485652367,0.4,1.0,1.0,300.0,630.0,1.0,1,490.0,1
275,275,-0.7255936448103503,-0.7,1.0,0.0,328.0,915.0,0.0,0,247.0,1
276,276,0.2927840296330996,0.3,1.0,1.0,328.0,995.0,1.0,1,337.0,1
277,277,-0.7346189931210257,-0.7,1.0,0.0,493.0,576.0,0.0,0,451.0,1
278,278,0.07897385767911069,0.1,1.0,1.0,391.0,937.0,1.0,1,2132.0,1
279,279,0.7243469272448858,0.7,0.0,0.0,334.0,771.0,0.0,1,185.0,1
280,280,-0.2456603248368966,-0.2,0.0,1.0,383.0,853.0,1.0,0,404.0,1
281,281,-0.16172113066743976,-0.2,1.0,0.0,380.0,680.0,1.0,1,2750.0,0
282,282,0.714075907034354,0.7,1.0,1.0,318.0,906.0,1.0,1,186.0,1
283,283,0.5099486335046467,0.5,0.0,0.0,455.0,793.0,0.0,1,322.0,1
284,284,0.4944141960025573,0.5,1.0,1.0,355.0,726.0,1.0,1,679.0,1
285,285,0.30406076211586786,0.3,0.0,0.0,276.0,864.0,0.0,1,280.0,1
286,286,-0.25430548299702715,-0.3,0.0,1.0,442.0,788.0,1.0,0,250.0,1
287,287,-0.8212396688593991,-0.8,1.0,0.0,451.0,767.0,0.0,0,232.0,1
288,288,0.0836540805210153,0.1,1.0,1.0,488.0,700.0,1.0,1,502.0,1
289,289,-0.0746046346075313,-0.1,1.0,0.0,445.0,813.0,1.0,1,2372.0,0
290,290,0.5525739343119281,0.6,0.0,0.0,494.0,675.0,0.0,1,221.0,1
291,291,-0.028961948000820747,-0.0,1.0,0.0,422.0,511.0,0.0,0,687.0,1
292,292,-0.8337673614250055,-0.8,1.0,0.0,371.0,644.0,0.0,0,665.0,1
293,293,-0.781224798145972,-0.8,1.0,0.0,266.0,679.0,0.0,0,315.0,1
294,294,0.34255918017750353,0.3,1.0,1.0,267.0,504.0,1.0,1,949.0,1
295,295,-0.16658536663037826,-0.2,1.0,0.0,340.0,642.0,0.0,0,2898.0,1
296,296,0.7751580687018301,0.8,1.0,1.0,380.0,854.0,1.0,1,166.0,1
297,297,0.6548514234939983,0.7,0.0,0.0,452.0,634.0,0.0,1,214.0,1
298,298,0.8281969712658507,0.8,0.0,0.0,443.0,952.0,0.0,1,135.0,1
299,299,0.7008119740340161,0.7,1.0,1.0,390.0,766.0,1.0,1,264.0,1
300,300,0.8806039806474607,0.9,1.0,1.0,405.0,505.0,1.0,1,390.0,1
301,301,-0.21555188073090426,-0.2,1.0,0.0,355.0,814.0,0.0,0,841.0,1
302,302,0.890444300134649,0.9,0.0,0.0,378.0,694.0,0.0,1,228.0,1
303,303,-0.8555477568306279,-0.9,0.0,1.0,255.0,640.0,1.0,0,245.0,1
304,304,-0.2909991724034672,-0.3,1.0,0.0,333.0,843.0,0.0,0,394.0,1
305,305,0.8363994440824917,0.8,0.0,0.0,261.0,789.0,0.0,1,110.0,1
306,306,0.07894183404899546,0.1,1.0,1.0,333.0,922.0,1.0,1,1195.0,1
307,307,0.2036368449808722,0.2,1.0,1.0,394.0,808.0,1.0,1,738.0,1
308,308,0.12264861966852314,0.1,0.0,0.0,267.0,710.0,0.0,1,353.0,1
309,309,0.8563165036233914,0.9,0.0,0.0,380.0,786.0,0.0,1,384.0,1
310,310,-0.3881654755038467,-0.4,0.0,1.0,388.0,617.0,1.0,0,245.0,1
311,311,-0.24230673302730177,-0.2,1.0,0.0,323.0,763.0,0.0,0,434.0,1
312,312,0.3324709348725866,0.3,0.0,0.0,409.0,777.0,0.0,1,294.0,1
313,313,0.3920845631010722,0.4,0.0,0.0,492.0,970.0,0.0,1,258.0,1
314,314,-0.529432472202717,-0.5,0.0,1.0,318.0,722.0,1.0,0,420.0,1
315,315,-0.055065349046869216,-0.1,0.0,1.0,381.0,532.0,1.0,0,917.0,1
316,316,-0.8184679509112542,-0.8,1.0,0.0,305.0,962.0,0.0,0,163.0,1
317,317,-0.33901966007050177,-0.3,0.0,1.0,439.0,788.0,1.0,0,243.0,1
318,318,-0.7835191540781236,-0.8,1.0,0.0,303.0,663.0,0.0,0,304.0,1
319,319,0.10167572446044348,0.1,1.0,1.0,401.0,511.0,1.0,1,1348.0,1
320,320,0.8705927453364198,0.9,1.0,1.0,456.0,594.0,1.0,1,410.0,1
321,321,-0.07247157257659531,-0.1,0.0,1.0,443.0,880.0,1.0,0,1117.0,1
322,322,0.656974936882121,0.7,0.0,0.0,375.0,976.0,0.0,1,189.0,1
323,323,0.7130955126722266,0.7,1.0,1.0,295.0,994.0,1.0,1,201.0,1
324,324,-0.7513444083896187,-0.8,0.0,1.0,493.0,967.0,1.0,0,120.0,1
325,325,-0.8557740618356844,-0.9,0.0,1.0,393.0,619.0,1.0,0,348.0,1
326,326,-0.07793998830076088,-0.1,1.0,0.0,473.0,906.0,0.0,0,551.0,1
327,327,0.0036721132552006708,0.0,1.0,1.0,268.0,501.0,1.0,1,1211.0,1
328,328,0.06346009454134338,0.1,1.0,1.0,482.0,898.0,1.0,1,350.0,1
329,329,0.41306803846463824,0.4,0.0,0.0,330.0,580.0,0.0,1,530.0,1
330,330,-0.19124109956204383,-0.2,0.0,1.0,377.0,997.0,1.0,0,226.0,1
331,331,0.154626236621625,0.2,0.0,0.0,339.0,896.0,0.0,1,775.0,1
332,332,-0.17501559235688957,-0.2,0.0,1.0,449.0,758.0,1.0,0,153.0,1
333,333,0.7101155626545602,0.7,1.0,1.0,286.0,832.0,1.0,1,112.0,1
334,334,-0.2832932645911963,-0.3,0.0,1.0,341.0,921.0,1.0,0,218.0,1
335,335,0.031886101012087,0.0,0.0,0.0,274.0,987.0,0.0,1,469.0,1
336,336,0.8232886738446005,0.8,0.0,0.0,260.0,644.0,0.0,1,366.0,1
337,337,0.5360383898834619,0.5,0.0,0.0,471.0,850.0,0.0,1,209.0,1
338,338,0.39748827657954766,0.4,0.0,0.0,423.0,693.0,0.0,1,184.0,1
339,339,0.06896637080503842,0.1,1.0,1.0,418.0,747.0,1.0,1,595.0,1
340,340,-0.6931501876033389,-0.7,1.0,0.0,410.0,877.0,0.0,0,263.0,1
341,341,-0.3159127348845383,-0.3,0.0,1.0,259.0,702.0,1.0,0,209.0,1
342,342,0.5685066475815167,0.6,0.0,0.0,327.0,569.0,0.0,1,264.0,1
343,343,-0.3817419190774448,-0.4,0.0,1.0,451.0,838.0,1.0,0,161.0,1
344,344,0.8575861543403974,0.9,1.0,1.0,454.0,999.0,1.0,1,137.0,1
345,345,-0.8575766631688301,-0.9,1.0,0.0,475.0,799.0,0.0,0,176.0,1
346,346,0.7033787989628316,0.7,0.0,0.0,343.0,631.0,0.0,1,276.0,1
347,347,-0.05234007258991624,-0.1,1.0,0.0,457.0,811.0,1.0,1,3732.0,0
348,348,-0.8136251077285356,-0.8,0.0,1.0,347.0,674.0,1.0,0,189.0,1
349,349,-0.7795282554001054,-0.8,0.0,1.0,423.0,739.0,1.0,0,228.0,1
350,350,0.07475524119986066,0.1,0.0,0.0,289.0,828.0,0.0,1,653.0,1
351,351,-0.6068213037676797,-0.6,0.0,1.0,477.0,941.0,1.0,0,142.0,1
352,352,-0.3430548906322002,-0.3,1.0,0.0,335.0,996.0,0.0,0,259.0,1
353,353,-0.2904818616507361,-0.3,0.0,1.0,338.0,734.0,1.0,0,228.0,1
354,354,0.0071900159853010015,0.0,1.0,1.0,394.0,785.0,1.0,1,3171.0,1
355,355,-0.027309978569706295,-0.0,1.0,0.0,334.0,761.0,1.0,1,3325.0,0
356,356,0.08268106038354184,0.1,1.0,1.0,355.0,590.0,1.0,1,665.0,1
357,357,-0.06909183828265009,-0.1,0.0,1.0,398.0,953.0,1.0,0,99.0,1
358,358,-0.12850223532603833,-0.1,0.0,1.0,347.0,513.0,1.0,0,780.0,1
359,359,0.42013560386883764,0.4,0.0,0.0,329.0,802.0,0.0,1,119.0,1
360,360,0.7138042024205925,0.7,1.0,1.0,257.0,546.0,1.0,1,527.0,1
361,361,-0.8197465459891847,-0.8,1.0,0.0,495.0,545.0,0.0,0,530.0,1
362,362,0.2600034916681654,0.3,1.0,1.0,331.0,512.0,1.0,1,927.0,1
363,363,-0.20550096597489564,-0.2,1.0,0.0,469.0,690.0,0.0,0,811.0,1
364,364,0.03590424629411049,0.0,1.0,1.0,488.0,738.0,1.0,1,1334.0,1
365,365,0.8871876016265466,0.9,1.0,1.0,329.0,628.0,1.0,1,253.0,1
366,366,0.061269652564920785,0.1,0.0,0.0,452.0,605.0,1.0,0,1853.0,0
367,367,0.26868067695390463,0.3,1.0,1.0,462.0,729.0,1.0,1,449.0,1
368,368,-0.6109791431764531,-0.6,1.0,0.0,365.0,576.0,0.0,0,489.0,1
369,369,0.22863344877276293,0.2,1.0,1.0,353.0,729.0,1.0,1,778.0,1
370,370,0.07493951208545202,0.1,1.0,1.0,370.0,619.0,1.0,1,1071.0,1
371,371,-0.2761083492987316,-0.3,1.0,0.0,267.0,982.0,0.0,0,101.0,1
372,372,0.04398623705086313,0.0,1.0,1.0,369.0,781.0,1.0,1,1860.0,1
373,373,-0.21532215318046222,-0.2,1.0,0.0,293.0,963.0,0.0,0,454.0,1
374,374,-0.6093098467637639,-0.6,1.0,0.0,363.0,758.0,0.0,0,189.0,1
375,375,0.009833875215839227,0.0,0.0,0.0,464.0,782.0,1.0,0,1874.0,0
376,376,0.859004259909942,0.9,0.0,0.0,357.0,915.0,0.0,1,98.0,1
377,377,0.7130671695390486,0.7,1.0,1.0,320.0,540.0,1.0,1,590.0,1
378,378,-0.8229588435525217,-0.8,1.0,0.0,329.0,507.0,0.0,0,364.0,1
379,379,-0.5992029124447515,-0.6,1.0,0.0,313.0,581.0,0.0,0,606.0,1
380,380,-0.7232325798658503,-0.7,1.0,0.0,328.0,957.0,0.0,0,275.0,1
381,381,-0.04613340620725792,-0.0,0.0,1.0,487.0,788.0,1.0,0,1665.0,1
382,382,-0.2710295857442878,-0.3,0.0,1.0,407.0,848.0,1.0,0,285.0,1
383,383,0.262943333133984,0.3,1.0,1.0,388.0,904.0,1.0,1,298.0,1
384,384,0.8296373261946918,0.8,0.0,0.0,471.0,701.0,0.0,1,348.0,1
385,385,-0.2109713710698896,-0.2,0.0,1.0,490.0,929.0,1.0,0,291.0,1
386,386,-0.8566220845891761,-0.9,0.0,1.0,352.0,793.0,1.0,0,255.0,1
387,387,-0.09621606045386699,-0.1,1.0,0.0,447.0,941.0,0.0,0,212.0,1
388,388,-0.6899732930738444,-0.7,0.0,1.0,471.0,558.0,1.0,0,261.0,1
389,389,0.6592930408699401,0.7,1.0,1.0,451.0,818.0,1.0,1,151.0,1
390,390,-0.8733381045974755,-0.9,0.0,1.0,287.0,797.0,1.0,0,96.0,1
391,391,-0.719536702655508,-0.7,1.0,0.0,483.0,758.0,0.0,0,199.0,1
392,392,-0.24391450169158124,-0.2,1.0,0.0,341.0,876.0,0.0,0,763.0,1
393,393,0.589999639776189,0.6,0.0,0.0,327.0,755.0,0.0,1,268.0,1
394,394,-0.12405722260778018,-0.1,1.0,0.0,485.0,933.0,0.0,0,302.0,1
395,395,-0.12947309530712603,-0.1,0.0,1.0,414.0,635.0,1.0,0,421.0,1
396,396,-0.0017852798494411015,-0.0,0.0,1.0,378.0,908.0,1.0,0,74.0,1
397,397,0.8701108292963665,0.9,0.0,0.0,266.0,694.0,0.0,1,250.0,1
398,398,-0.8063728288975468,-0.8,1.0,0.0,439.0,601.0,0.0,0,430.0,1
399,399,-0.8494344042261343,-0.8,1.0,0.0,495.0,981.0,0.0,0,154.0,1
400,400,-0.31083194968459327,-0.3,0.0,1.0,361.0,534.0,1.0,0,265.0,1
401,401,-0.05910994602350106,-0.1,1.0,0.0,414.0,544.0,1.0,1,2982.0,0
402,402,0.34907836205185616,0.3,0.0,0.0,495.0,918.0,0.0,1,327.0,1
403,403,-0.4747568138389146,-0.5,1.0,0.0,444.0,628.0,0.0,0,398.0,1
404,404,-0.14926309925164793,-0.1,0.0,1.0,399.0,654.0,1.0,0,967.0,1
405,405,-0.07622351523732274,-0.1,0.0,1.0,352.0,811.0,1.0,0,667.0,1
406,406,-0.26147058762339825,-0.3,0.0,1.0,381.0,606.0,1.0,0,403.0,1
407,407,0.7827462777546913,0.8,0.0,0.0,306.0,913.0,0.0,1,131.0,1
408,408,-0.8318578439455968,-0.8,0.0,1.0,260.0,944.0,1.0,0,186.0,1
409,409,-0.5548886011077663,-0.6,0.0,1.0,479.0,846.0,1.0,0,345.0,1
410,410,0.42963628179500557,0.4,0.0,0.0,346.0,966.0,0.0,1,278.0,1
411,411,0.7478398372677818,0.7,1.0,1.0,420.0,801.0,1.0,1,259.0,1
412,412,-0.6626046871907888,-0.7,0.0,1.0,348.0,832.0,1.0,0,200.0,1
413,413,-0.7495027339264331,-0.7,1.0,0.0,387.0,586.0,0.0,0,327.0,1
414,414,0.017366927656894515,0.0,1.0,1.0,368.0,849.0,0.0,0,1223.0,0
415,415,-0.8873366717194878,-0.9,0.0,1.0,426.0,532.0,1.0,0,472.0,1
416,416,0.7513396287437205,0.8,1.0,1.0,458.0,992.0,1.0,1,280.0,1
417,417,0.24100614524764785,0.2,1.0,1.0,373.0,743.0,1.0,1,494.0,1
418,418,-0.30729688026457336,-0.3,0.0,1.0,457.0,628.0,1.0,0,205.0,1
419,419,-0.5467790585969726,-0.5,0.0,1.0,415.0,709.0,1.0,0,266.0,1
420,420,-0.38923967457227926,-0.4,1.0,0.0,431.0,689.0,0.0,0,930.0,1
421,421,-0.7358347040862734,-0.7,0.0,1.0,472.0,576.0,1.0,0,302.0,1
422,422,0.07114738168426527,0.1,1.0,1.0,408.0,787.0,1.0,1,2315.0,1
423,423,0.24493543056952494,0.2,0.0,0.0,496.0,831.0,0.0,1,453.0,1
424,424,-0.5951157920578345,-0.6,1.0,0.0,391.0,686.0,0.0,0,383.0,1
425,425,0.37942524732927196,0.4,1.0,1.0,438.0,933.0,1.0,1,99.0,1
426,426,0.07668134462659204,0.1,0.0,0.0,437.0,893.0,0.0,1,870.0,1
427,427,0.20388876606401618,0.2,1.0,1.0,302.0,820.0,1.0,1,218.0,1
428,428,-0.5505545982349994,-0.6,1.0,0.0,297.0,515.0,0.0,0,528.0,1
429,429,-0.6145009376980319,-0.6,1.0,0.0,304.0,535.0,0.0,0,331.0,1
430,430,0.41334644243987195,0.4,0.0,0.0,437.0,892.0,1.0,0,-89.0,0
431,431,0.6102261141671935,0.6,0.0,0.0,372.0,955.0,0.0,1,153.0,1
432,432,0.5689397250227669,0.6,0.0,0.0,385.0,564.0,0.0,1,261.0,1
433,433,-0.5756757004413655,-0.6,0.0,1.0,347.0,670.0,1.0,0,263.0,1
434,434,0.7510161515164008,0.8,1.0,1.0,365.0,597.0,1.0,1,508.0,1
435,435,-0.8195383747384396,-0.8,1.0,0.0,396.0,523.0,0.0,0,281.0,1
436,436,-0.8910416190193023,-0.9,0.0,1.0,281.0,769.0,1.0,0,180.0,1
437,437,-0.027017923532656862,-0.0,0.0,1.0,282.0,883.0,1.0,0,1265.0,1
438,438,-0.8501566684393699,-0.9,0.0,1.0,483.0,536.0,1.0,0,411.0,1
439,439,0.06840000646359357,0.1,1.0,1.0,289.0,721.0,1.0,1,370.0,1
440,440,-0.6830239100118832,-0.7,1.0,0.0,447.0,655.0,0.0,0,508.0,1
441,441,0.5500842542326368,0.6,0.0,0.0,319.0,607.0,0.0,1,434.0,1
442,442,0.17018491569117644,0.2,0.0,0.0,454.0,730.0,0.0,1,656.0,1
443,443,0.7086464012425896,0.7,0.0,0.0,314.0,924.0,0.0,1,152.0,1
444,444,-0.8409796286609761,-0.8,1.0,0.0,411.0,639.0,0.0,0,350.0,1
445,445,-0.3073204709059396,-0.3,1.0,0.0,477.0,789.0,0.0,0,374.0,1
446,446,0.8680101299652737,0.9,0.0,0.0,250.0,931.0,0.0,1,99.0,1
447,447,0.6130887596526552,0.6,0.0,0.0,385.0,911.0,0.0,1,144.0,1
448,448,-0.6337028053235856,-0.6,1.0,0.0,476.0,839.0,0.0,0,305.0,1
449,449,-0.142074101994471,-0.1,0.0,1.0,313.0,775.0,1.0,0,122.0,1
450,450,0.15578535319794684,0.2,0.0,0.0,407.0,547.0,0.0,1,636.0,1
451,451,0.6287211070139042,0.6,0.0,0.0,418.0,525.0,0.0,1,317.0,1
452,452,0.10385885188531307,0.1,0.0,0.0,306.0,815.0,0.0,1,699.0,1
453,453,-0.8118147472604396,-0.8,0.0,1.0,440.0,806.0,1.0,0,144.0,1
454,454,-0.7884641004728488,-0.8,0.0,1.0,457.0,706.0,1.0,0,337.0,1
455,455,0.42403660233996343,0.4,0.0,0.0,397.0,684.0,0.0,1,269.0,1
456,456,-0.4836418186129544,-0.5,1.0,0.0,270.0,612.0,0.0,0,498.0,1
457,457,0.05432677030701094,0.1,1.0,1.0,414.0,940.0,1.0,1,486.0,1
458,458,0.23706957427796638,0.2,0.0,0.0,467.0,724.0,0.0,1,719.0,1
459,459,0.5863755654290289,0.6,0.0,0.0,442.0,956.0,0.0,1,192.0,1
460,460,0.43510784763025157,0.4,0.0,0.0,323.0,999.0,0.0,1,148.0,1
461,461,-0.8665684016108153,-0.9,1.0,0.0,469.0,893.0,0.0,0,468.0,1
462,462,0.5443293910247938,0.5,1.0,1.0,472.0,898.0,1.0,1,230.0,1
463,463,0.7267281942865768,0.7,0.0,0.0,311.0,778.0,0.0,1,91.0,1
464,464,-0.4628334087223879,-0.5,0.0,1.0,346.0,906.0,1.0,0,108.0,1
465,465,0.558911192684549,0.6,0.0,0.0,295.0,936.0,0.0,1,19.0,1
466,466,0.5591476315706146,0.6,0.0,0.0,353.0,604.0,0.0,1,483.0,1
467,467,0.6512611846283572,0.7,1.0,1.0,314.0,936.0,1.0,1,160.0,1
468,468,0.08347401919234743,0.1,0.0,0.0,454.0,900.0,1.0,0,576.0,0
469,469,0.29673905065183337,0.3,0.0,0.0,495.0,986.0,0.0,1,489.0,1
470,470,-0.720892444679167,-0.7,1.0,0.0,408.0,528.0,0.0,0,544.0,1
471,471,0.8587640820404608,0.9,1.0,1.0,312.0,631.0,1.0,1,217.0,1
472,472,-0.5219633418789148,-0.5,0.0,1.0,484.0,578.0,1.0,0,358.0,1
473,473,0.7976780101857927,0.8,1.0,1.0,393.0,705.0,1.0,1,122.0,1
474,474,-0.4903580923705576,-0.5,1.0,0.0,401.0,842.0,0.0,0,197.0,1
475,475,-0.7764547789993897,-0.8,0.0,1.0,493.0,917.0,1.0,0,120.0,1
476,476,0.2769926083369382,0.3,0.0,0.0,450.0,729.0,0.0,1,841.0,1
477,477,0.42738781996727415,0.4,0.0,0.0,458.0,641.0,0.0,1,281.0,1
478,478,-0.6387687861881715,-0.6,0.0,1.0,358.0,722.0,1.0,0,190.0,1
479,479,-0.5141729473717608,-0.5,0.0,1.0,254.0,592.0,1.0,0,224.0,1
480,480,0.0858063186789948,0.1,0.0,0.0,272.0,565.0,0.0,1,903.0,1
481,481,0.28301239857432836,0.3,0.0,0.0,457.0,802.0,0.0,1,401.0,1
482,482,-0.22201869735255053,-0.2,0.0,1.0,291.0,616.0,1.0,0,373.0,1
483,483,-0.07946824767347238,-0.1,1.0,0.0,375.0,945.0,0.0,0,880.0,1
484,484,0.38963211613483784,0.4,0.0,0.0,417.0,521.0,0.0,1,342.0,1
485,485,-0.21236870161349986,-0.2,1.0,0.0,306.0,566.0,0.0,0,808.0,1
486,486,-0.3499601828767678,-0.3,0.0,1.0,276.0,982.0,1.0,0,152.0,1
487,487,0.4462426140892838,0.4,0.0,0.0,313.0,981.0,0.0,1,236.0,1
488,488,0.22130270525632822,0.2,0.0,0.0,278.0,639.0,0.0,1,843.0,1
489,489,0.6458561011577159,0.6,0.0,0.0,319.0,588.0,0.0,1,183.0,1
490,490,0.830751701211747,0.8,0.0,0.0,344.0,872.0,0.0,1,174.0,1
491,491,0.1017874543663807,0.1,0.0,0.0,378.0,943.0,0.0,1,79.0,1
492,492,0.4825134833211743,0.5,1.0,1.0,314.0,518.0,1.0,1,498.0,1
493,493,0.17790099867175002,0.2,1.0,1.0,479.0,858.0,1.0,1,553.0,1
494,494,-0.6005389954036043,-0.6,0.0,1.0,459.0,677.0,1.0,0,254.0,1
495,495,0.28274990395117483,0.3,1.0,1.0,402.0,607.0,1.0,1,411.0,1
496,496,-0.7731471756484365,-0.8,1.0,0.0,301.0,639.0,0.0,0,510.0,1
497,497,0.20443841983349975,0.2,1.0,1.0,268.0,960.0,1.0,1,212.0,1
498,498,0.015456106035919737,0.0,1.0,1.0,382.0,653.0,1.0,1,2175.0,1
499,499,0.4264392494250734,0.4,0.0,0.0,333.0,702.0,0.0,1,235.0,1
500,500,-0.8977250336593294,-0.9,1.0,0.0,389.0,575.0,0.0,0,446.0,1
501,501,0.5376526003414434,0.5,0.0,0.0,461.0,683.0,0.0,1,186.0,1
502,502,0.16271348091152416,0.2,1.0,1.0,260.0,797.0,1.0,1,903.0,1
503,503,-0.8313081697099136,-0.8,1.0,0.0,380.0,938.0,0.0,0,182.0,1
504,504,0.3207648989932067,0.3,1.0,1.0,360.0,646.0,1.0,1,854.0,1
505,505,0.3126299067373356,0.3,1.0,1.0,441.0,831.0,1.0,1,228.0,1
506,506,0.36794242543423017,0.4,1.0,1.0,445.0,926.0,1.0,1,329.0,1
507,507,0.4153772048875014,0.4,1.0,1.0,315.0,991.0,1.0,1,274.0,1
508,508,-0.6656422664164182,-0.7,0.0,1.0,401.0,837.0,1.0,0,362.0,1
509,509,0.24099529607943115,0.2,1.0,1.0,404.0,699.0,1.0,1,457.0,1
510,510,0.0781130736166239,0.1,0.0,0.0,290.0,953.0,0.0,1,437.0,1
511,511,-0.07959078837698097,-0.1,0.0,1.0,383.0,975.0,1.0,0,432.0,1
512,512,-0.5544250453514261,-0.6,0.0,1.0,261.0,998.0,1.0,0,131.0,1
513,513,-0.7732853046211363,-0.8,0.0,1.0,412.0,762.0,1.0,0,196.0,1
514,514,-0.009752275702106239,-0.0,1.0,0.0,341.0,654.0,1.0,1,1595.0,0
515,515,0.17735926833030147,0.2,1.0,1.0,417.0,551.0,1.0,1,712.0,1
516,516,-0.09259040475334512,-0.1,0.0,1.0,459.0,541.0,1.0,0,770.0,1
517,517,-0.8693719170743395,-0.9,0.0,1.0,355.0,853.0,1.0,0,102.0,1
518,518,-0.515657155810708,-0.5,1.0,0.0,274.0,661.0,0.0,0,315.0,1
519,519,0.6042105379169534,0.6,1.0,1.0,408.0,739.0,1.0,1,573.0,1
520,520,0.7843328509084339,0.8,1.0,1.0,341.0,884.0,1.0,1,215.0,1
521,521,-0.8855204750927282,-0.9,0.0,1.0,339.0,849.0,1.0,0,182.0,1
522,522,0.30429323326823476,0.3,1.0,1.0,294.0,501.0,1.0,1,655.0,1
523,523,0.18476331629304144,0.2,0.0,0.0,470.0,938.0,1.0,0,42.0,0
524,524,0.525759421664724,0.5,0.0,0.0,497.0,611.0,0.0,1,312.0,1
525,525,0.03642426305236246,0.0,0.0,0.0,450.0,593.0,0.0,1,567.0,1
526,526,0.6645579661006787,0.7,1.0,1.0,328.0,647.0,1.0,1,245.0,1
527,527,0.7279263870304081,0.7,1.0,1.0,462.0,821.0,1.0,1,217.0,1
528,528,0.0038722751218275286,0.0,0.0,0.0,262.0,643.0,0.0,1,325.0,1
529,529,-0.28242822867233397,-0.3,1.0,0.0,384.0,628.0,0.0,0,1518.0,1
530,530,-0.5139610546766131,-0.5,0.0,1.0,412.0,945.0,1.0,0,163.0,1
531,531,-0.6412778090433986,-0.6,1.0,0.0,468.0,684.0,0.0,0,298.0,1
532,532,0.5269609311878983,0.5,0.0,0.0,257.0,577.0,0.0,1,266.0,1
533,533,0.40000921419852953,0.4,0.0,0.0,433.0,514.0,0.0,1,453.0,1
534,534,-0.8224053609864216,-0.8,1.0,0.0,436.0,950.0,0.0,0,334.0,1
535,535,-0.2932934713219588,-0.3,1.0,0.0,284.0,677.0,0.0,0,459.0,1
536,536,-0.8737185430050496,-0.9,0.0,1.0,470.0,512.0,1.0,0,508.0,1
537,537,-0.731414588360251,-0.7,1.0,0.0,427.0,657.0,0.0,0,496.0,1
538,538,0.18865423696701422,0.2,1.0,1.0,303.0,792.0,1.0,1,1285.0,1
539,539,0.7603210405311817,0.8,0.0,0.0,475.0,684.0,0.0,1,241.0,1
540,540,-0.7775032983913261,-0.8,0.0,1.0,299.0,643.0,1.0,0,188.0,1
541,541,-0.658572967153157,-0.7,0.0,1.0,289.0,650.0,1.0,0,271.0,1
542,542,0.650808704119822,0.7,1.0,1.0,406.0,954.0,1.0,1,170.0,1
543,543,0.3337155111029503,0.3,0.0,0.0,306.0,551.0,0.0,1,513.0,1
544,544,0.04830638492419326,0.0,1.0,1.0,483.0,752.0,1.0,1,1375.0,1
545,545,0.3295849244431567,0.3,0.0,0.0,272.0,969.0,0.0,1,129.0,1
546,546,0.4828959734429513,0.5,1.0,1.0,353.0,525.0,1.0,1,772.0,1
547,547,-0.24739163741551795,-0.2,0.0,1.0,327.0,642.0,1.0,0,351.0,1
548,548,0.6756281099301459,0.7,0.0,0.0,338.0,942.0,0.0,1,130.0,1
549,549,0.44594509779321834,0.4,1.0,1.0,445.0,747.0,1.0,1,278.0,1
550,550,0.4655396398898731,0.5,1.0,1.0,462.0,924.0,1.0,1,274.0,1
551,551,-0.6108908592501736,-0.6,1.0,0.0,356.0,773.0,0.0,0,281.0,1
552,552,0.5664087077750689,0.6,1.0,1.0,409.0,540.0,1.0,1,431.0,1
553,553,-0.751495894657474,-0.8,0.0,1.0,431.0,761.0,1.0,0,198.0,1
554,554,0.8870134938360316,0.9,0.0,0.0,312.0,985.0,0.0,1,193.0,1
555,555,-0.7344287233659927,-0.7,1.0,0.0,411.0,734.0,0.0,0,225.0,1
556,556,0.37152719698305214,0.4,1.0,1.0,488.0,994.0,1.0,1,188.0,1
557,557,0.22412581224224482,0.2,1.0,1.0,397.0,988.0,1.0,1,165.0,1
558,558,-0.1898755905567412,-0.2,0.0,1.0,344.0,504.0,1.0,0,692.0,1
559,559,-0.05408777234336726,-0.1,0.0,1.0,374.0,983.0,1.0,0,1673.0,1
560,560,0.6603234677217652,0.7,1.0,1.0,315.0,607.0,1.0,1,448.0,1
561,561,-0.17373687244935843,-0.2,0.0,1.0,461.0,823.0,1.0,0,266.0,1
562,562,-0.028911093851978098,-0.0,0.0,1.0,285.0,919.0,1.0,0,236.0,1
563,563,-0.667272192476273,-0.7,1.0,0.0,329.0,807.0,0.0,0,474.0,1
564,564,-0.5496529006579128,-0.5,0.0,1.0,365.0,947.0,1.0,0,-52.0,1
565,565,-0.12232025446940875,-0.1,0.0,1.0,275.0,554.0,1.0,0,691.0,1
566,566,0.7445103546969923,0.7,0.0,0.0,458.0,662.0,0.0,1,250.0,1
567,567,-0.27495248921853077,-0.3,1.0,0.0,456.0,853.0,0.0,0,701.0,1
568,568,0.552655715027189,0.6,1.0,1.0,259.0,951.0,1.0,1,160.0,1
569,569,-0.14529607137644796,-0.1,0.0,1.0,416.0,991.0,1.0,0,103.0,1
570,570,0.7085330444486443,0.7,0.0,0.0,432.0,943.0,0.0,1,175.0,1
571,571,-0.20821818832118721,-0.2,1.0,0.0,334.0,765.0,0.0,0,1061.0,1
572,572,0.3774557791925711,0.4,0.0,0.0,411.0,614.0,0.0,1,415.0,1
573,573,-0.5532373526128953,-0.6,0.0,1.0,410.0,582.0,1.0,0,668.0,1
574,574,-0.011586825459274697,-0.0,1.0,0.0,255.0,825.0,1.0,1,1890.0,0
575,575,-0.31325810846656,-0.3,1.0,0.0,353.0,789.0,0.0,0,458.0,1
576,576,0.3715277871430246,0.4,1.0,1.0,302.0,729.0,1.0,1,639.0,1
577,577,0.09582376899681244,0.1,0.0,0.0,433.0,508.0,0.0,1,299.0,1
578,578,0.49988449866815576,0.5,0.0,0.0,345.0,704.0,0.0,1,201.0,1
579,579,-0.8154952867301408,-0.8,0.0,1.0,422.0,897.0,1.0,0,131.0,1
580,580,0.09558708142016792,0.1,0.0,0.0,496.0,934.0,0.0,1,90.0,1
581,581,-0.4784384196575188,-0.5,0.0,1.0,362.0,908.0,1.0,0,0.0,1
582,582,0.49019430478826476,0.5,1.0,1.0,436.0,868.0,1.0,1,206.0,1
583,583,-0.4621986225909058,-0.5,1.0,0.0,474.0,989.0,0.0,0,387.0,1
584,584,0.7411858744043566,0.7,1.0,1.0,382.0,673.0,1.0,1,245.0,1
585,585,0.4534194624336235,0.5,1.0,1.0,282.0,945.0,1.0,1,113.0,1
586,586,-0.25404600336926253,-0.3,0.0,1.0,387.0,623.0,1.0,0,590.0,1
587,587,0.6895365080013308,0.7,0.0,0.0,494.0,664.0,0.0,1,202.0,1
588,588,-0.8489108359162123,-0.8,1.0,0.0,316.0,849.0,0.0,0,205.0,1
589,589,-0.6758635140229976,-0.7,1.0,0.0,374.0,546.0,0.0,0,510.0,1
590,590,0.19554370799107368,0.2,1.0,1.0,338.0,782.0,1.0,1,680.0,1
591,591,-0.3671661391234958,-0.4,1.0,0.0,419.0,874.0,0.0,0,497.0,1
592,592,0.6627371636914036,0.7,0.0,0.0,431.0,728.0,0.0,1,171.0,1
593,593,-0.16319473344955482,-0.2,1.0,0.0,370.0,777.0,0.0,0,643.0,1
594,594,0.6255728050396913,0.6,0.0,0.0,435.0,931.0,0.0,1,54.0,1
595,595,-0.22394693974352364,-0.2,1.0,0.0,347.0,722.0,0.0,0,601.0,1
596,596,-0.34640869896435644,-0.3,0.0,1.0,402.0,845.0,1.0,0,333.0,1
597,597,0.3060037675059465,0.3,1.0,1.0,344.0,793.0,1.0,1,403.0,1
598,598,-0.21233160510159732,-0.2,1.0,0.0,475.0,564.0,0.0,0,681.0,1
599,599,0.17090831809356966,0.2,0.0,0.0,297.0,684.0,0.0,1,379.0,1
600,600,-0.09964804071233502,-0.1,1.0,0.0,454.0,811.0,1.0,1,3115.0,0
601,601,-0.09266423261100143,-0.1,0.0,1.0,378.0,956.0,1.0,0,576.0,1
602,602,-0.5533502178388816,-0.6,1.0,0.0,289.0,703.0,0.0,0,298.0,1
603,603,-0.0984111433966236,-0.1,1.0,0.0,470.0,914.0,1.0,1,3616.0,0
604,604,0.5703146248527845,0.6,1.0,1.0,470.0,959.0,1.0,1,141.0,1
605,605,0.14254131199934006,0.1,0.0,0.0,455.0,517.0,0.0,1,918.0,1
606,606,0.5487529709823017,0.5,0.0,0.0,480.0,682.0,0.0,1,258.0,1
607,607,-0.6239348215790705,-0.6,0.0,1.0,399.0,669.0,1.0,0,312.0,1
608,608,-0.18719729413875974,-0.2,1.0,0.0,425.0,871.0,0.0,0,244.0,1
609,609,-0.5997633431136452,-0.6,0.0,1.0,387.0,952.0,1.0,0,61.0,1
610,610,0.5795697626803084,0.6,1.0,1.0,263.0,612.0,1.0,1,265.0,1
611,611,-0.36069030766009624,-0.4,0.0,1.0,291.0,910.0,1.0,0,189.0,1
612,612,0.18953907237268075,0.2,1.0,1.0,268.0,569.0,1.0,1,583.0,1
613,613,-0.5732295114458741,-0.6,1.0,0.0,321.0,796.0,0.0,0,383.0,1
614,614,0.05143653940181925,0.1,0.0,0.0,373.0,647.0,0.0,1,460.0,1
615,615,-0.11223751665181936,-0.1,0.0,1.0,358.0,816.0,0.0,1,496.0,0
616,616,-0.8171712971415384,-0.8,0.0,1.0,279.0,739.0,1.0,0,202.0,1
617,617,-0.8661159635733824,-0.9,1.0,0.0,275.0,934.0,0.0,0,71.0,1
618,618,-0.30720008847290314,-0.3,0.0,1.0,345.0,980.0,1.0,0,205.0,1
619,619,0.04102455737607702,0.0,0.0,0.0,270.0,618.0,1.0,0,1162.0,0
620,620,-0.38642463149013395,-0.4,0.0,1.0,463.0,632.0,1.0,0,495.0,1
621,621,-0.5626529317835722,-0.6,1.0,0.0,380.0,966.0,0.0,0,334.0,1
622,622,-0.8876152984616504,-0.9,0.0,1.0,401.0,919.0,1.0,0,80.0,1
623,623,0.30986097897106146,0.3,0.0,0.0,252.0,692.0,0.0,1,176.0,1
624,624,0.6408360060441632,0.6,0.0,0.0,428.0,912.0,0.0,1,170.0,1
625,625,-0.49349754770820997,-0.5,0.0,1.0,399.0,911.0,1.0,0,170.0,1
626,626,0.8531701303808997,0.9,1.0,1.0,324.0,669.0,1.0,1,267.0,1
627,627,0.4341511260492773,0.4,1.0,1.0,423.0,895.0,1.0,1,352.0,1
628,628,0.32271188401424944,0.3,1.0,1.0,251.0,896.0,1.0,1,513.0,1
629,629,0.031711584880251165,0.0,1.0,1.0,300.0,598.0,0.0,0,4102.0,0
630,630,0.17593435189893414,0.2,1.0,1.0,264.0,827.0,1.0,1,649.0,1
631,631,-0.17002166300990595,-0.2,0.0,1.0,333.0,952.0,1.0,0,345.0,1
632,632,-0.5017972802661466,-0.5,1.0,0.0,341.0,707.0,0.0,0,372.0,1
633,633,-0.3552449492536255,-0.4,0.0,1.0,293.0,759.0,1.0,0,148.0,1
634,634,-0.38174620776027013,-0.4,0.0,1.0,405.0,724.0,1.0,0,211.0,1
635,635,0.4921100598403064,0.5,1.0,1.0,347.0,843.0,1.0,1,420.0,1
636,636,0.6451258031947124,0.6,0.0,0.0,384.0,820.0,0.0,1,336.0,1
637,637,0.2978686710188315,0.3,0.0,0.0,400.0,598.0,0.0,1,462.0,1
638,638,0.6589744048686944,0.7,1.0,1.0,394.0,804.0,1.0,1,162.0,1
639,639,0.7079965419901469,0.7,0.0,0.0,374.0,887.0,0.0,1,149.0,1
640,640,0.019425303938007565,0.0,1.0,1.0,490.0,560.0,1.0,1,1000.0,1
641,641,-0.7838015919272272,-0.8,1.0,0.0,492.0,526.0,0.0,0,592.0,1
642,642,-0.3160201517164346,-0.3,0.0,1.0,433.0,937.0,1.0,0,130.0,1
643,643,0.5119995098832731,0.5,1.0,1.0,469.0,721.0,1.0,1,410.0,1
644,644,0.20156545550657168,0.2,1.0,1.0,276.0,720.0,1.0,1,504.0,1
645,645,0.40016043201814455,0.4,1.0,1.0,479.0,527.0,1.0,1,544.0,1
646,646,-0.1800105444217397,-0.2,0.0,1.0,269.0,621.0,1.0,0,640.0,1
647,647,-0.5651944066854808,-0.6,0.0,1.0,265.0,886.0,1.0,0,179.0,1
648,648,0.6961532186524829,0.7,1.0,1.0,282.0,904.0,1.0,1,104.0,1
649,649,0.06184465553512941,0.1,0.0,0.0,408.0,575.0,0.0,1,607.0,1
650,650,0.4351656391502011,0.4,0.0,0.0,298.0,502.0,0.0,1,380.0,1
651,651,-0.3551033871345023,-0.4,0.0,1.0,266.0,786.0,1.0,0,358.0,1
652,652,-0.15583601735616404,-0.2,1.0,0.0,310.0,714.0,0.0,0,406.0,1
653,653,-0.2636594981964472,-0.3,0.0,1.0,324.0,852.0,1.0,0,264.0,1
654,654,-0.8299583521288518,-0.8,0.0,1.0,402.0,536.0,1.0,0,92.0,1
655,655,0.0063922782389306265,0.0,0.0,0.0,415.0,878.0,1.0,0,587.0,0
656,656,-0.7282813834076528,-0.7,0.0,1.0,279.0,815.0,1.0,0,136.0,1
657,657,-0.49661586400280855,-0.5,1.0,0.0,437.0,901.0,0.0,0,312.0,1
658,658,-0.6999245280068151,-0.7,0.0,1.0,318.0,699.0,1.0,0,263.0,1
659,659,0.5040516659464033,0.5,0.0,0.0,371.0,633.0,0.0,1,256.0,1
660,660,-0.4899955532492916,-0.5,1.0,0.0,422.0,527.0,0.0,0,521.0,1
661,661,0.19683927817516989,0.2,0.0,0.0,497.0,573.0,0.0,1,1060.0,1
662,662,0.6481148216015099,0.6,1.0,1.0,454.0,702.0,1.0,1,264.0,1
663,663,-0.05794564037699734,-0.1,1.0,0.0,450.0,782.0,1.0,1,638.0,0
664,664,-0.6521967939790067,-0.7,1.0,0.0,452.0,512.0,0.0,0,476.0,1
665,665,0.005315603443112771,0.0,1.0,1.0,399.0,765.0,1.0,1,3836.0,1
666,666,-0.24508833476117053,-0.2,0.0,1.0,409.0,570.0,1.0,0,591.0,1
667,667,0.050555476760810736,0.1,0.0,0.0,433.0,665.0,1.0,0,1202.0,0
668,668,0.5903956535634333,0.6,1.0,1.0,369.0,523.0,1.0,1,428.0,1
669,669,-0.8595136941351907,-0.9,1.0,0.0,321.0,668.0,0.0,0,431.0,1
670,670,-0.4863034156146883,-0.5,0.0,1.0,316.0,642.0,1.0,0,362.0,1
671,671,-0.8526919601984694,-0.9,0.0,1.0,432.0,773.0,1.0,0,225.0,1
672,672,-0.8901068854294822,-0.9,1.0,0.0,494.0,843.0,0.0,0,193.0,1
673,673,0.03634117772164902,0.0,1.0,1.0,399.0,591.0,0.0,0,660.0,0
674,674,0.25115050632908076,0.3,0.0,0.0,318.0,657.0,0.0,1,415.0,1
675,675,-0.11819410705132594,-0.1,0.0,1.0,268.0,908.0,1.0,0,514.0,1
676,676,-0.2789281953769962,-0.3,1.0,0.0,271.0,513.0,0.0,0,626.0,1
677,677,0.7690961183992285,0.8,0.0,0.0,328.0,760.0,0.0,1,152.0,1
678,678,0.28106700540122553,0.3,0.0,0.0,347.0,875.0,0.0,1,418.0,1
679,679,0.29457749637029795,0.3,0.0,0.0,398.0,504.0,0.0,1,598.0,1
680,680,-0.20563700859918943,-0.2,0.0,1.0,293.0,691.0,1.0,0,366.0,1
681,681,0.388930416543357,0.4,1.0,1.0,319.0,653.0,1.0,1,358.0,1
682,682,-0.7293858686132425,-0.7,0.0,1.0,470.0,788.0,1.0,0,172.0,1
683,683,0.19652769237867507,0.2,1.0,1.0,326.0,906.0,1.0,1,318.0,1
684,684,0.39681199348474394,0.4,1.0,1.0,308.0,566.0,1.0,1,566.0,1
685,685,-0.06434210402512897,-0.1,1.0,0.0,452.0,716.0,0.0,0,1202.0,1
686,686,-0.5050569881767236,-0.5,0.0,1.0,373.0,710.0,1.0,0,287.0,1
687,687,-0.3379304732846179,-0.3,0.0,1.0,360.0,973.0,1.0,0,127.0,1
688,688,0.24402680732103088,0.2,0.0,0.0,299.0,638.0,0.0,1,473.0,1
689,689,-0.6180031324193027,-0.6,1.0,0.0,431.0,658.0,0.0,0,261.0,1
690,690,-0.6353489022548282,-0.6,1.0,0.0,482.0,716.0,0.0,0,282.0,1
691,691,-0.5894724406013778,-0.6,0.0,1.0,328.0,525.0,1.0,0,357.0,1
692,692,0.5714880099446643,0.6,1.0,1.0,446.0,644.0,1.0,1,310.0,1
693,693,-0.5914386351064398,-0.6,0.0,1.0,489.0,973.0,1.0,0,188.0,1
694,694,-0.049912600858656675,-0.0,0.0,1.0,353.0,855.0,1.0,0,522.0,1
695,695,0.4537683899432178,0.5,0.0,0.0,370.0,637.0,0.0,1,383.0,1
696,696,0.18341635310805404,0.2,1.0,1.0,336.0,602.0,1.0,1,412.0,1
697,697,-0.6303788001447919,-0.6,0.0,1.0,431.0,668.0,1.0,0,231.0,1
698,698,0.732716743947479,0.7,0.0,0.0,395.0,862.0,0.0,1,233.0,1
699,699,0.7188829396747741,0.7,1.0,1.0,253.0,592.0,1.0,1,315.0,1
700,700,0.8720924729588037,0.9,1.0,1.0,425.0,538.0,1.0,1,567.0,1
701,701,-0.6259844966657648,-0.6,1.0,0.0,448.0,524.0,0.0,0,518.0,1
702,702,0.5016263171082497,0.5,1.0,1.0,449.0,602.0,1.0,1,419.0,1
703,703,-0.8935768209952023,-0.9,0.0,1.0,355.0,834.0,1.0,0,121.0,1
704,704,-0.015809705269249297,-0.0,1.0,0.0,362.0,557.0,1.0,1,731.0,0
705,705,0.0528635807219755,0.1,1.0,1.0,281.0,872.0,1.0,1,2147.0,1
706,706,-0.7792521232586774,-0.8,0.0,1.0,488.0,963.0,1.0,0,129.0,1
707,707,0.6616811180463119,0.7,0.0,0.0,433.0,788.0,0.0,1,199.0,1
708,708,-0.408843753231926,-0.4,0.0,1.0,384.0,873.0,1.0,0,363.0,1
709,709,-0.11825415096689751,-0.1,1.0,0.0,337.0,617.0,0.0,0,1716.0,1
710,710,0.05000878240233364,0.1,1.0,1.0,280.0,676.0,1.0,1,804.0,1
711,711,0.11567043751720896,0.1,0.0,0.0,265.0,920.0,0.0,1,345.0,1
712,712,-0.6347651875155809,-0.6,0.0,1.0,439.0,666.0,1.0,0,345.0,1
713,713,-0.2360442313528741,-0.2,1.0,0.0,299.0,533.0,0.0,0,1838.0,1
714,714,-0.7203264075162168,-0.7,1.0,0.0,258.0,751.0,0.0,0,181.0,1
715,715,-0.6263022433500536,-0.6,1.0,0.0,296.0,965.0,0.0,0,319.0,1
716,716,0.03440822199199001,0.0,1.0,1.0,420.0,794.0,1.0,1,806.0,1
717,717,-0.3361532426182743,-0.3,1.0,0.0,481.0,899.0,0.0,0,270.0,1
718,718,0.5663035916099352,0.6,0.0,0.0,433.0,695.0,0.0,1,222.0,1
719,719,0.6262759271366408,0.6,1.0,1.0,397.0,985.0,1.0,1,198.0,1
720,720,0.7374447526563611,0.7,0.0,0.0,447.0,711.0,0.0,1,182.0,1
721,721,-0.2621012869803402,-0.3,0.0,1.0,264.0,766.0,1.0,0,270.0,1
722,722,-0.5463532356691343,-0.5,1.0,0.0,420.0,824.0,0.0,0,286.0,1
723,723,-0.33791570852466524,-0.3,0.0,1.0,295.0,686.0,1.0,0,539.0,1
724,724,0.024632212605026238,0.0,1.0,1.0,427.0,606.0,1.0,1,1577.0,1
725,725,0.33873318746058423,0.3,1.0,1.0,449.0,725.0,1.0,1,336.0,1
726,726,0.3340501149148355,0.3,1.0,1.0,365.0,727.0,1.0,1,258.0,1
727,727,-0.29575222934897694,-0.3,0.0,1.0,451.0,669.0,1.0,0,420.0,1
728,728,-0.4668102821295809,-0.5,1.0,0.0,327.0,810.0,0.0,0,113.0,1
729,729,-0.4260162828589964,-0.4,1.0,0.0,425.0,630.0,0.0,0,485.0,1
730,730,0.25517285109098997,0.3,0.0,0.0,263.0,847.0,0.0,1,290.0,1
731,731,0.09885368748959256,0.1,1.0,1.0,497.0,632.0,1.0,1,881.0,1
732,732,-0.37454290195689544,-0.4,1.0,0.0,449.0,687.0,0.0,0,454.0,1
733,733,-0.3527083577581316,-0.4,0.0,1.0,282.0,996.0,1.0,0,142.0,1
734,734,-0.196050338281199,-0.2,1.0,0.0,361.0,712.0,0.0,0,357.0,1
735,735,-0.09210658547319406,-0.1,1.0,0.0,421.0,566.0,0.0,0,2233.0,1
736,736,-0.07394696897589936,-0.1,1.0,0.0,480.0,829.0,0.0,0,1601.0,1
737,737,-0.3827564473265519,-0.4,0.0,1.0,488.0,570.0,1.0,0,452.0,1
738,738,0.09389805822948649,0.1,1.0,1.0,459.0,761.0,1.0,1,1680.0,1
739,739,0.32112054495495956,0.3,1.0,1.0,428.0,542.0,1.0,1,450.0,1
740,740,0.333266244411493,0.3,0.0,0.0,297.0,744.0,0.0,1,349.0,1
741,741,0.4688368961463979,0.5,1.0,1.0,251.0,981.0,1.0,1,398.0,1
742,742,-0.210533310990355,-0.2,0.0,1.0,299.0,757.0,1.0,0,54.0,1
743,743,0.7044238209851149,0.7,0.0,0.0,258.0,588.0,0.0,1,324.0,1
744,744,-0.027055500776008823,-0.0,0.0,1.0,310.0,636.0,1.0,0,334.0,1
745,745,-0.34988983133380225,-0.3,0.0,1.0,483.0,981.0,1.0,0,186.0,1
746,746,0.6320386905392169,0.6,1.0,1.0,271.0,677.0,1.0,1,222.0,1
747,747,0.8253828825885169,0.8,0.0,0.0,416.0,576.0,0.0,1,198.0,1
748,748,0.8133022516988649,0.8,1.0,1.0,259.0,793.0,1.0,1,258.0,1
749,749,-0.08108997334018553,-0.1,0.0,1.0,263.0,903.0,1.0,0,784.0,1
750,750,-0.33274724759696817,-0.3,0.0,1.0,257.0,830.0,1.0,0,233.0,1
751,751,-0.5969122569670111,-0.6,1.0,0.0,365.0,676.0,0.0,0,259.0,1
752,752,-0.7915702402204688,-0.8,1.0,0.0,255.0,592.0,0.0,0,303.0,1
753,753,-0.3004228455383674,-0.3,1.0,0.0,453.0,826.0,0.0,0,591.0,1
754,754,0.1425045962503778,0.1,1.0,1.0,347.0,891.0,1.0,1,1022.0,1
755,755,0.8227206402899455,0.8,0.0,0.0,346.0,922.0,0.0,1,72.0,1
756,756,-0.1977074889599728,-0.2,0.0,1.0,338.0,932.0,1.0,0,230.0,1
757,757,0.6285059826689091,0.6,1.0,1.0,325.0,732.0,1.0,1,243.0,1
758,758,-0.2658501080432064,-0.3,0.0,1.0,286.0,873.0,1.0,0,81.0,1
759,759,0.6383436603906288,0.6,0.0,0.0,348.0,800.0,0.0,1,212.0,1
760,760,0.29667532401096264,0.3,1.0,1.0,381.0,757.0,1.0,1,492.0,1
761,761,0.25399235561688893,0.3,1.0,1.0,310.0,538.0,1.0,1,702.0,1
762,762,-0.6421574035928802,-0.6,1.0,0.0,262.0,977.0,0.0,0,101.0,1
763,763,-0.19960318105713915,-0.2,0.0,1.0,462.0,867.0,1.0,0,241.0,1
764,764,-0.6418282610718276,-0.6,0.0,1.0,293.0,780.0,1.0,0,187.0,1
765,765,0.7603536192569672,0.8,1.0,1.0,327.0,767.0,1.0,1,176.0,1
766,766,0.35632150852286426,0.4,0.0,0.0,299.0,596.0,0.0,1,315.0,1
767,767,0.7100661738693786,0.7,1.0,1.0,434.0,640.0,1.0,1,386.0,1
768,768,-0.5349894585039072,-0.5,1.0,0.0,298.0,867.0,0.0,0,315.0,1
769,769,-0.12669241745415194,-0.1,0.0,1.0,408.0,897.0,1.0,0,1095.0,1
770,770,-0.4042609438175015,-0.4,1.0,0.0,281.0,564.0,0.0,0,845.0,1
771,771,-0.18453608477244354,-0.2,0.0,1.0,486.0,657.0,1.0,0,707.0,1
772,772,-0.8844230554399352,-0.9,1.0,0.0,402.0,939.0,0.0,0,159.0,1
773,773,-0.49337907772234296,-0.5,1.0,0.0,476.0,570.0,0.0,0,454.0,1
774,774,-0.3569012497263442,-0.4,0.0,1.0,437.0,983.0,1.0,0,330.0,1
775,775,-0.5874095191519695,-0.6,1.0,0.0,260.0,836.0,0.0,0,274.0,1
776,776,0.12155591378063224,0.1,1.0,1.0,356.0,850.0,1.0,1,194.0,1
777,777,-0.4403938463849418,-0.4,1.0,0.0,375.0,822.0,0.0,0,363.0,1
778,778,0.3599656921134097,0.4,0.0,0.0,305.0,517.0,0.0,1,448.0,1
779,779,-0.8374720377907664,-0.8,1.0,0.0,444.0,665.0,0.0,0,281.0,1
780,780,-0.8266150958011025,-0.8,0.0,1.0,339.0,676.0,1.0,0,95.0,1
781,781,0.8718524115447167,0.9,0.0,0.0,498.0,601.0,0.0,1,101.0,1
782,782,-0.28780766901662724,-0.3,1.0,0.0,380.0,684.0,0.0,0,466.0,1
783,783,-0.06192193489393627,-0.1,1.0,0.0,403.0,784.0,0.0,0,1423.0,1
784,784,0.44817215600077975,0.4,1.0,1.0,352.0,727.0,1.0,1,251.0,1
785,785,0.8079161588322049,0.8,0.0,0.0,395.0,797.0,0.0,1,228.0,1
786,786,-0.026851257822509966,-0.0,1.0,0.0,416.0,795.0,1.0,1,1779.0,0
787,787,0.8696949972361526,0.9,0.0,0.0,364.0,563.0,0.0,1,223.0,1
788,788,-0.4910776647997344,-0.5,0.0,1.0,317.0,952.0,1.0,0,51.0,1
789,789,0.07012748686590042,0.1,0.0,0.0,441.0,503.0,1.0,0,1296.0,0
790,790,-0.3771868076816919,-0.4,1.0,0.0,258.0,973.0,0.0,0,479.0,1
791,791,-0.6197470400080685,-0.6,1.0,0.0,279.0,582.0,0.0,0,469.0,1
792,792,0.4928870783472762,0.5,1.0,1.0,385.0,856.0,1.0,1,239.0,1
793,793,-0.41702778485731556,-0.4,0.0,1.0,318.0,511.0,1.0,0,561.0,1
794,794,0.5424622117953836,0.5,0.0,0.0,292.0,714.0,0.0,1,324.0,1
795,795,0.5458461559854505,0.5,1.0,1.0,350.0,650.0,1.0,1,320.0,1
796,796,0.5564115117565492,0.6,0.0,0.0,287.0,841.0,0.0,1,182.0,1
797,797,-0.6880698125637376,-0.7,1.0,0.0,392.0,577.0,0.0,0,291.0,1
798,798,0.7635797621152866,0.8,0.0,0.0,363.0,654.0,0.0,1,353.0,1
799,799,0.6794290503021653,0.7,1.0,1.0,345.0,963.0,1.0,1,202.0,1
800,800,-0.3329371609936884,-0.3,1.0,0.0,401.0,633.0,0.0,0,396.0,1
801,801,-0.5866675729708974,-0.6,1.0,0.0,317.0,871.0,0.0,0,202.0,1
802,802,-0.7245192932570543,-0.7,1.0,0.0,459.0,993.0,0.0,0,228.0,1
803,803,0.31446356260005504,0.3,1.0,1.0,457.0,981.0,1.0,1,242.0,1
804,804,-0.06000888894142131,-0.1,0.0,1.0,303.0,585.0,1.0,0,1072.0,1
805,805,0.3306813094912523,0.3,0.0,0.0,393.0,800.0,0.0,1,427.0,1
806,806,-0.5197024140865625,-0.5,1.0,0.0,260.0,564.0,0.0,0,536.0,1
807,807,-0.8395308357620739,-0.8,0.0,1.0,263.0,565.0,1.0,0,212.0,1
808,808,-0.07040394923357496,-0.1,0.0,1.0,493.0,870.0,1.0,0,537.0,1
809,809,0.815164800019362,0.8,0.0,0.0,495.0,892.0,0.0,1,223.0,1
810,810,0.33872635201643575,0.3,0.0,0.0,459.0,550.0,0.0,1,531.0,1
811,811,-0.20045257346979972,-0.2,1.0,0.0,252.0,959.0,0.0,0,299.0,1
812,812,0.5603773960613762,0.6,0.0,0.0,365.0,816.0,0.0,1,289.0,1
813,813,-0.24675158566291222,-0.2,0.0,1.0,488.0,944.0,1.0,0,198.0,1
814,814,0.5032505781672595,0.5,0.0,0.0,256.0,789.0,0.0,1,175.0,1
815,815,0.5650137413158961,0.6,0.0,0.0,428.0,674.0,0.0,1,338.0,1
816,816,-0.8111738830822778,-0.8,1.0,0.0,302.0,811.0,0.0,0,157.0,1
817,817,0.5938347201038555,0.6,0.0,0.0,274.0,546.0,0.0,1,430.0,1
818,818,0.2459349748860683,0.2,0.0,0.0,357.0,667.0,0.0,1,776.0,1
819,819,-0.47377854047865253,-0.5,0.0,1.0,268.0,979.0,1.0,0,143.0,1
820,820,0.31025762505226895,0.3,0.0,0.0,258.0,646.0,0.0,1,306.0,1
821,821,0.8293233871990028,0.8,1.0,1.0,474.0,647.0,1.0,1,259.0,1
822,822,0.5032555492980141,0.5,1.0,1.0,416.0,928.0,1.0,1,146.0,1
823,823,-0.11751387728033802,-0.1,1.0,0.0,399.0,593.0,0.0,0,878.0,1
824,824,0.25760745222819004,0.3,0.0,0.0,271.0,860.0,0.0,1,49.0,1
825,825,-0.7903800721309683,-0.8,0.0,1.0,323.0,670.0,1.0,0,387.0,1
826,826,-0.545594613549812,-0.5,0.0,1.0,452.0,541.0,1.0,0,517.0,1
827,827,0.45336635550714044,0.5,0.0,0.0,273.0,711.0,0.0,1,286.0,1
828,828,-0.17916923805945362,-0.2,0.0,1.0,473.0,863.0,1.0,0,1144.0,1
829,829,-0.2505602940438588,-0.3,1.0,0.0,312.0,874.0,0.0,0,874.0,1
830,830,0.2587468033989607,0.3,1.0,1.0,377.0,720.0,1.0,1,483.0,1
831,831,-0.8143661432017189,-0.8,0.0,1.0,380.0,896.0,1.0,0,204.0,1
832,832,0.44094196889647386,0.4,0.0,0.0,484.0,651.0,0.0,1,225.0,1
833,833,0.36099914451698856,0.4,1.0,1.0,442.0,504.0,1.0,1,894.0,1
834,834,0.46465556708483857,0.5,0.0,0.0,359.0,595.0,0.0,1,556.0,1
835,835,0.7355419883602284,0.7,0.0,0.0,325.0,643.0,0.0,1,282.0,1
836,836,-0.0048832287851934275,-0.0,0.0,1.0,483.0,811.0,1.0,0,1866.0,1
837,837,0.1659976759499283,0.2,1.0,1.0,360.0,945.0,1.0,1,235.0,1
838,838,0.7050131159386023,0.7,1.0,1.0,443.0,775.0,1.0,1,252.0,1
839,839,-0.4988279645362732,-0.5,0.0,1.0,388.0,972.0,1.0,0,160.0,1
840,840,-0.08984015627799635,-0.1,1.0,0.0,485.0,611.0,0.0,0,414.0,1
841,841,-0.6783669493089973,-0.7,0.0,1.0,411.0,794.0,1.0,0,125.0,1
842,842,0.5265164382453685,0.5,0.0,0.0,445.0,916.0,0.0,1,249.0,1
843,843,-0.6280148467909674,-0.6,1.0,0.0,280.0,900.0,0.0,0,270.0,1
844,844,-0.17099685779901597,-0.2,0.0,1.0,352.0,822.0,1.0,0,516.0,1
845,845,0.4107884446069757,0.4,1.0,1.0,442.0,517.0,1.0,1,591.0,1
846,846,-0.5144654529838095,-0.5,0.0,1.0,385.0,540.0,1.0,0,215.0,1
847,847,-0.4281019383463852,-0.4,0.0,1.0,344.0,798.0,1.0,0,288.0,1
848,848,-0.7224275341194732,-0.7,1.0,0.0,355.0,833.0,0.0,0,262.0,1
849,849,-0.34806384724292627,-0.3,0.0,1.0,378.0,991.0,1.0,0,231.0,1
850,850,0.6942548094745237,0.7,1.0,1.0,254.0,712.0,1.0,1,364.0,1
851,851,0.49535340611519574,0.5,1.0,1.0,444.0,531.0,1.0,1,395.0,1
852,852,0.19568562092574793,0.2,0.0,0.0,354.0,782.0,0.0,1,204.0,1
853,853,-0.7064466438159778,-0.7,0.0,1.0,406.0,516.0,1.0,0,138.0,1
854,854,0.4652159225665701,0.5,1.0,1.0,268.0,861.0,1.0,1,211.0,1
855,855,0.25138538278483635,0.3,1.0,1.0,348.0,822.0,1.0,1,660.0,1
856,856,0.4731001919287766,0.5,0.0,0.0,258.0,566.0,0.0,1,266.0,1
857,857,0.4717477258634085,0.5,0.0,0.0,342.0,937.0,0.0,1,201.0,1
858,858,-0.011096827573747858,-0.0,1.0,0.0,284.0,516.0,1.0,1,2770.0,0
859,859,-0.6070019920414291,-0.6,0.0,1.0,341.0,724.0,1.0,0,435.0,1
860,860,0.8225693106587445,0.8,1.0,1.0,475.0,823.0,1.0,1,292.0,1
861,861,0.8358873052387584,0.8,0.0,0.0,310.0,549.0,0.0,1,221.0,1
862,862,0.7189553274497572,0.7,1.0,1.0,250.0,824.0,1.0,1,126.0,1
863,863,0.58095926203675,0.6,1.0,1.0,436.0,875.0,1.0,1,239.0,1
864,864,-0.1906704818457029,-0.2,1.0,0.0,265.0,870.0,0.0,0,665.0,1
865,865,0.6477523561750297,0.6,0.0,0.0,496.0,937.0,0.0,1,137.0,1
866,866,-0.12290978508996864,-0.1,0.0,1.0,497.0,544.0,1.0,0,1299.0,1
867,867,0.5617099586931961,0.6,1.0,1.0,444.0,621.0,1.0,1,175.0,1
868,868,-0.20501988269231186,-0.2,0.0,1.0,435.0,732.0,1.0,0,773.0,1
869,869,0.7417478227895685,0.7,1.0,1.0,408.0,624.0,1.0,1,208.0,1
870,870,-0.8139844774117512,-0.8,1.0,0.0,313.0,886.0,0.0,0,271.0,1
871,871,-0.7502141294123044,-0.8,0.0,1.0,301.0,530.0,1.0,0,329.0,1
872,872,-0.5921509051010001,-0.6,1.0,0.0,494.0,765.0,0.0,0,351.0,1
873,873,0.3501909309149839,0.4,0.0,0.0,376.0,885.0,0.0,1,269.0,1
874,874,0.35195370435291007,0.4,1.0,1.0,441.0,805.0,1.0,1,164.0,1
875,875,-0.3357748592076911,-0.3,1.0,0.0,404.0,853.0,0.0,0,193.0,1
876,876,0.695830308050417,0.7,0.0,0.0,472.0,682.0,0.0,1,406.0,1
877,877,-0.506674481570875,-0.5,1.0,0.0,438.0,507.0,0.0,0,435.0,1
878,878,0.8507975184354276,0.9,0.0,0.0,441.0,781.0,0.0,1,258.0,1
879,879,-0.33254239087743576,-0.3,0.0,1.0,393.0,712.0,1.0,0,405.0,1
880,880,-0.6003333840186066,-0.6,1.0,0.0,396.0,710.0,0.0,0,234.0,1
881,881,-0.08826548511968191,-0.1,0.0,1.0,453.0,876.0,1.0,0,411.0,1
882,882,0.773527603602744,0.8,0.0,0.0,492.0,697.0,0.0,1,231.0,1
883,883,0.6249982032976659,0.6,0.0,0.0,331.0,641.0,0.0,1,268.0,1
884,884,-0.4795592316022254,-0.5,0.0,1.0,355.0,927.0,1.0,0,218.0,1
885,885,-0.3344529258087793,-0.3,1.0,0.0,496.0,602.0,0.0,0,152.0,1
886,886,-0.5991469099709229,-0.6,1.0,0.0,461.0,694.0,0.0,0,375.0,1
887,887,0.36302130092599605,0.4,1.0,1.0,409.0,961.0,1.0,1,140.0,1
888,888,0.2193493343991707,0.2,1.0,1.0,473.0,538.0,1.0,1,789.0,1
889,889,-0.5055158964253301,-0.5,1.0,0.0,314.0,520.0,0.0,0,406.0,1
890,890,-0.3129316024005664,-0.3,0.0,1.0,362.0,853.0,1.0,0,335.0,1
891,891,-0.2376009776424538,-0.2,0.0,1.0,318.0,549.0,1.0,0,613.0,1
892,892,0.4407641489946498,0.4,0.0,0.0,454.0,722.0,0.0,1,364.0,1
893,893,0.7125857910485883,0.7,1.0,1.0,285.0,588.0,1.0,1,337.0,1
894,894,0.182046445828011,0.2,1.0,1.0,251.0,718.0,1.0,1,481.0,1
895,895,-0.5368375012744993,-0.5,0.0,1.0,440.0,646.0,1.0,0,224.0,1
896,896,-0.1976295297076427,-0.2,1.0,0.0,348.0,797.0,0.0,0,385.0,1
897,897,0.43646916485499043,0.4,1.0,1.0,489.0,746.0,1.0,1,435.0,1
898,898,0.0697114522252843,0.1,1.0,1.0,481.0,552.0,1.0,1,837.0,1
899,899,-0.7762966820853076,-0.8,1.0,0.0,430.0,508.0,0.0,0,552.0,1
900,900,-0.4285493759702647,-0.4,1.0,0.0,498.0,805.0,0.0,0,167.0,1
901,901,-0.48103560620441915,-0.5,1.0,0.0,373.0,966.0,0.0,0,741.0,1
902,902,0.3564144178462957,0.4,1.0,1.0,256.0,947.0,1.0,1,497.0,1
903,903,0.7706082600116414,0.8,0.0,0.0,301.0,766.0,0.0,1,233.0,1
904,904,-0.08934874332993425,-0.1,1.0,0.0,408.0,573.0,0.0,0,499.0,1
905,905,0.3014316135868259,0.3,0.0,0.0,266.0,762.0,0.0,1,192.0,1
906,906,-0.40435069235682836,-0.4,1.0,0.0,441.0,605.0,0.0,0,514.0,1
907,907,0.17939574171892037,0.2,0.0,0.0,272.0,622.0,0.0,1,826.0,1
908,908,0.5282888278854435,0.5,0.0,0.0,452.0,639.0,0.0,1,479.0,1
909,909,-0.19059215084784287,-0.2,1.0,0.0,324.0,640.0,0.0,0,376.0,1
910,910,0.524309607659401,0.5,0.0,0.0,360.0,968.0,0.0,1,102.0,1
911,911,0.0024155168511587055,0.0,0.0,0.0,488.0,938.0,1.0,0,-106.0,0
912,912,0.5380762101035722,0.5,0.0,0.0,281.0,719.0,0.0,1,230.0,1
913,913,-0.7051843490740466,-0.7,1.0,0.0,264.0,601.0,0.0,0,495.0,1
914,914,-0.24448910433126003,-0.2,0.0,1.0,353.0,955.0,1.0,0,432.0,1
915,915,-0.2847507119891721,-0.3,1.0,0.0,349.0,902.0,0.0,0,509.0,1
916,916,-0.5110034295981651,-0.5,0.0,1.0,477.0,878.0,1.0,0,195.0,1
917,917,-0.6468295955262118,-0.6,1.0,0.0,340.0,545.0,0.0,0,515.0,1
918,918,-0.4618818314266968,-0.5,0.0,1.0,452.0,828.0,1.0,0,370.0,1
919,919,-0.08719592090080053,-0.1,1.0,0.0,280.0,654.0,0.0,0,4066.0,1
920,920,-0.43163218355964067,-0.4,0.0,1.0,385.0,721.0,1.0,0,424.0,1
921,921,-0.5131492786749777,-0.5,1.0,0.0,374.0,887.0,0.0,0,559.0,1
922,922,-0.45313154000238615,-0.5,0.0,1.0,337.0,702.0,1.0,0,291.0,1
923,923,0.38959466323331593,0.4,0.0,0.0,482.0,820.0,0.0,1,188.0,1
924,924,0.4763836135052416,0.5,0.0,0.0,251.0,927.0,0.0,1,342.0,1
925,925,-0.73298691978189,-0.7,0.0,1.0,376.0,662.0,1.0,0,352.0,1
926,926,-0.016328562965502225,-0.0,0.0,1.0,316.0,601.0,1.0,0,1403.0,1
927,927,-0.3334028429758681,-0.3,0.0,1.0,429.0,728.0,1.0,0,293.0,1
928,928,-0.02887632657541639,-0.0,0.0,1.0,385.0,900.0,1.0,0,1405.0,1
929,929,0.3902956361203703,0.4,1.0,1.0,401.0,602.0,1.0,1,237.0,1
930,930,-0.41826120128840444,-0.4,0.0,1.0,434.0,919.0,1.0,0,127.0,1
931,931,0.13993273233840953,0.1,1.0,1.0,308.0,944.0,1.0,1,428.0,1
932,932,0.42653779318081086,0.4,1.0,1.0,338.0,990.0,1.0,1,402.0,1
933,933,-0.389658353642354,-0.4,0.0,1.0,353.0,601.0,1.0,0,356.0,1
934,934,0.8715705543645708,0.9,0.0,0.0,346.0,787.0,0.0,1,97.0,1
935,935,0.6059447571833182,0.6,0.0,0.0,382.0,799.0,0.0,1,129.0,1
936,936,-0.6520151061178798,-0.7,0.0,1.0,311.0,796.0,1.0,0,133.0,1
937,937,0.012972158307908654,0.0,0.0,0.0,441.0,762.0,1.0,0,1167.0,0
938,938,0.7251420620940808,0.7,0.0,0.0,428.0,817.0,0.0,1,135.0,1
939,939,-0.5869904311347971,-0.6,0.0,1.0,497.0,550.0,1.0,0,433.0,1
940,940,-0.484632276901233,-0.5,0.0,1.0,338.0,667.0,1.0,0,435.0,1
941,941,-0.37992552141682423,-0.4,0.0,1.0,429.0,606.0,1.0,0,375.0,1
942,942,0.26602707096807643,0.3,1.0,1.0,260.0,911.0,1.0,1,539.0,1
943,943,-0.8400243331560477,-0.8,1.0,0.0,373.0,575.0,0.0,0,392.0,1
944,944,-0.569170412731498,-0.6,0.0,1.0,465.0,509.0,1.0,0,346.0,1
945,945,0.16215221855058137,0.2,0.0,0.0,406.0,841.0,0.0,1,833.0,1
946,946,0.7504160369814886,0.8,1.0,1.0,359.0,709.0,1.0,1,282.0,1
947,947,0.5513362588538927,0.6,0.0,0.0,426.0,940.0,0.0,1,154.0,1
948,948,0.07699096568772557,0.1,0.0,0.0,456.0,984.0,1.0,0,460.0,0
949,949,0.7670839032931379,0.8,1.0,1.0,324.0,758.0,1.0,1,288.0,1
950,950,0.026875090283714265,0.0,0.0,0.0,405.0,589.0,0.0,1,926.0,1
951,951,-0.6169249981792531,-0.6,0.0,1.0,464.0,555.0,1.0,0,201.0,1
952,952,-0.06017986002226894,-0.1,0.0,1.0,262.0,637.0,1.0,0,2371.0,1
953,953,0.5640954146101839,0.6,0.0,0.0,372.0,611.0,0.0,1,247.0,1
954,954,0.4394730346399204,0.4,0.0,0.0,375.0,579.0,0.0,1,466.0,1
955,955,0.7454623818785634,0.7,0.0,0.0,467.0,522.0,0.0,1,401.0,1
956,956,0.6425369843161036,0.6,1.0,1.0,385.0,887.0,1.0,1,358.0,1
957,957,-0.8080817289141654,-0.8,1.0,0.0,263.0,880.0,0.0,0,337.0,1
958,958,0.16848025709501557,0.2,0.0,0.0,424.0,727.0,0.0,1,579.0,1
959,959,0.38704999719519495,0.4,1.0,1.0,456.0,962.0,1.0,1,162.0,1
960,960,-0.6352368916974426,-0.6,0.0,1.0,421.0,971.0,1.0,0,48.0,1
961,961,0.06426100192849127,0.1,0.0,0.0,416.0,990.0,1.0,0,1734.0,0
962,962,0.7048176783178143,0.7,0.0,0.0,355.0,955.0,0.0,1,210.0,1
963,963,0.3392661119424468,0.3,0.0,0.0,324.0,727.0,0.0,1,709.0,1
964,964,-0.5338656705033895,-0.5,0.0,1.0,376.0,507.0,1.0,0,547.0,1
965,965,0.5433494079054738,0.5,0.0,0.0,365.0,538.0,0.0,1,307.0,1
966,966,0.01928691165446439,0.0,1.0,1.0,302.0,622.0,1.0,1,916.0,1
967,967,-0.7492707128231281,-0.7,0.0,1.0,493.0,605.0,1.0,0,272.0,1
968,968,-0.8093711882580163,-0.8,0.0,1.0,416.0,767.0,1.0,0,187.0,1
969,969,-0.8074146297681156,-0.8,1.0,0.0,456.0,992.0,0.0,0,212.0,1
970,970,0.8347038157160648,0.8,1.0,1.0,411.0,859.0,1.0,1,230.0,1
971,971,-0.40354706871899876,-0.4,0.0,1.0,494.0,657.0,1.0,0,469.0,1
972,972,-0.4105282441791183,-0.4,1.0,0.0,482.0,959.0,0.0,0,179.0,1
973,973,-0.8642523235491802,-0.9,0.0,1.0,487.0,807.0,1.0,0,216.0,1
974,974,0.7627828659863604,0.8,1.0,1.0,283.0,569.0,1.0,1,318.0,1
975,975,0.017932009974616747,0.0,1.0,1.0,278.0,949.0,1.0,1,783.0,1
976,976,-0.11402180946163065,-0.1,1.0,0.0,454.0,764.0,0.0,0,522.0,1
977,977,-0.006704066899986927,-0.0,1.0,0.0,367.0,593.0,1.0,1,1570.0,0
978,978,0.08330805295248955,0.1,1.0,1.0,370.0,706.0,1.0,1,444.0,1
979,979,-0.6510493591542827,-0.7,0.0,1.0,376.0,943.0,1.0,0,91.0,1
980,980,-0.7813215805945449,-0.8,1.0,0.0,311.0,559.0,0.0,0,390.0,1
981,981,-0.6434962146371092,-0.6,0.0,1.0,305.0,659.0,1.0,0,216.0,1
982,982,-0.5864304336920978,-0.6,0.0,1.0,401.0,830.0,1.0,0,189.0,1
983,983,0.7550742803633183,0.8,1.0,1.0,315.0,636.0,1.0,1,349.0,1
984,984,0.8118081443940816,0.8,0.0,0.0,275.0,623.0,0.0,1,272.0,1
985,985,-0.1112529453981812,-0.1,0.0,1.0,396.0,919.0,1.0,0,1015.0,1
986,986,0.45828896437183764,0.5,0.0,0.0,479.0,516.0,0.0,1,395.0,1
987,987,0.3051069786386019,0.3,1.0,1.0,391.0,762.0,1.0,1,337.0,1
988,988,0.35987621243209034,0.4,0.0,0.0,461.0,804.0,0.0,1,275.0,1
989,989,-0.2180444806911529,-0.2,1.0,0.0,382.0,604.0,0.0,0,934.0,1
990,990,0.5605929623507787,0.6,0.0,0.0,494.0,592.0,0.0,1,324.0,1
991,991,-0.2913848610467833,-0.3,0.0,1.0,409.0,619.0,1.0,0,552.0,1
992,992,0.1121868311096953,0.1,1.0,1.0,319.0,590.0,1.0,1,1281.0,1
993,993,0.8279337357391564,0.8,1.0,1.0,372.0,963.0,1.0,1,55.0,1
994,994,-0.23764663558379207,-0.2,1.0,0.0,471.0,511.0,0.0,0,648.0,1
995,995,-0.61949119223924,-0.6,1.0,0.0,335.0,538.0,0.0,0,467.0,1
996,996,0.5531686415649172,0.6,0.0,0.0,401.0,581.0,0.0,1,428.0,1
997,997,0.028326580267304946,0.0,1.0,1.0,283.0,941.0,1.0,1,586.0,1
998,998,-0.6412666631875128,-0.6,0.0,1.0,377.0,972.0,1.0,0,101.0,1
999,999,0.22410563592864585,0.2,0.0,0.0,470.0,895.0,0.0,1,215.0,1
1000,1000,0.46018774471427404,0.5,1.0,1.0,349.0,972.0,1.0,1,339.0,1
1001,1001,0.43472059941581087,0.4,1.0,1.0,415.0,559.0,1.0,1,356.0,1
1002,1002,0.41721001116348433,0.4,1.0,1.0,371.0,894.0,1.0,1,245.0,1
1003,1003,-0.6569844099990794,-0.7,0.0,1.0,348.0,634.0,1.0,0,348.0,1
1004,1004,-0.7458130767815988,-0.7,0.0,1.0,425.0,645.0,1.0,0,420.0,1
1005,1005,-0.09110579351693071,-0.1,1.0,0.0,455.0,750.0,0.0,0,1255.0,1
1006,1006,0.443887453891053,0.4,0.0,0.0,376.0,502.0,0.0,1,492.0,1
1007,1007,0.7768075076901887,0.8,1.0,1.0,312.0,854.0,1.0,1,364.0,1
1008,1008,-0.7666696110622133,-0.8,1.0,0.0,473.0,642.0,0.0,0,325.0,1
1009,1009,-0.41452421188463323,-0.4,1.0,0.0,375.0,788.0,0.0,0,217.0,1
1010,1010,0.17614054988711036,0.2,1.0,1.0,390.0,903.0,1.0,1,627.0,1
1011,1011,0.8214092713904252,0.8,0.0,0.0,455.0,836.0,0.0,1,109.0,1
1012,1012,-0.04969402685990487,-0.0,0.0,1.0,470.0,658.0,1.0,0,972.0,1
1013,1013,0.5750027136836503,0.6,1.0,1.0,346.0,709.0,1.0,1,285.0,1
1014,1014,0.8591041819616015,0.9,1.0,1.0,391.0,656.0,1.0,1,373.0,1
1015,1015,-0.8632040648937241,-0.9,1.0,0.0,340.0,886.0,0.0,0,244.0,1
1016,1016,0.11285812487744018,0.1,1.0,1.0,379.0,888.0,1.0,1,283.0,1
1017,1017,0.45967648205654543,0.5,0.0,0.0,276.0,553.0,0.0,1,241.0,1
1018,1018,0.296262178706871,0.3,1.0,1.0,487.0,884.0,1.0,1,389.0,1
1019,1019,0.349248353082401,0.3,0.0,0.0,309.0,657.0,0.0,1,494.0,1
1020,1020,0.8504969043135483,0.9,1.0,1.0,493.0,570.0,1.0,1,337.0,1
1021,1021,0.05683258420113846,0.1,0.0,0.0,410.0,566.0,0.0,1,594.0,1
1022,1022,0.11252364416373839,0.1,1.0,1.0,404.0,643.0,1.0,1,563.0,1
1023,1023,0.21828950126938784,0.2,0.0,0.0,498.0,860.0,0.0,1,662.0,1
1024,1024,-0.3277121940081783,-0.3,0.0,1.0,449.0,622.0,1.0,0,249.0,1
1025,1025,0.4263932920599246,0.4,1.0,1.0,497.0,527.0,1.0,1,426.0,1
1026,1026,0.14612838701542652,0.1,1.0,1.0,357.0,869.0,1.0,1,954.0,1
1027,1027,0.5868353582778151,0.6,0.0,0.0,358.0,811.0,0.0,1,291.0,1
1028,1028,0.6636995745883506,0.7,0.0,0.0,499.0,884.0,0.0,1,227.0,1
1029,1029,0.20411733482512806,0.2,0.0,0.0,308.0,671.0,0.0,1,481.0,1
1030,1030,-0.21025534751054642,-0.2,1.0,0.0,305.0,512.0,0.0,0,1093.0,1
1031,1031,0.1533754299107818,0.2,1.0,1.0,305.0,864.0,1.0,1,281.0,1
1032,1032,0.19808009562388074,0.2,0.0,0.0,420.0,714.0,0.0,1,516.0,1
1033,1033,0.7974168403527139,0.8,0.0,0.0,484.0,907.0,0.0,1,129.0,1
1034,1034,-0.31791018938346627,-0.3,1.0,0.0,307.0,692.0,0.0,0,541.0,1
1035,1035,-0.13201905063478658,-0.1,1.0,0.0,263.0,524.0,0.0,0,1693.0,1
1036,1036,-0.6650568566515556,-0.7,1.0,0.0,393.0,787.0,0.0,0,340.0,1
1037,1037,0.5979488126802007,0.6,0.0,0.0,254.0,978.0,0.0,1,138.0,1
1038,1038,-0.3523256601408802,-0.4,0.0,1.0,279.0,950.0,1.0,0,211.0,1
1039,1039,-0.11614886113210754,-0.1,0.0,1.0,376.0,682.0,1.0,0,562.0,1
1040,1040,0.6178363439651878,0.6,1.0,1.0,439.0,530.0,1.0,1,501.0,1
1041,1041,0.1356076283166373,0.1,1.0,1.0,291.0,850.0,1.0,1,1229.0,1
1042,1042,-0.6998600003299799,-0.7,0.0,1.0,272.0,543.0,1.0,0,255.0,1
1043,1043,-0.0651537746503742,-0.1,0.0,1.0,255.0,759.0,1.0,0,286.0,1
1044,1044,0.7356159682815818,0.7,1.0,1.0,472.0,683.0,1.0,1,245.0,1
1045,1045,-0.8361307680496606,-0.8,1.0,0.0,442.0,597.0,0.0,0,241.0,1
1046,1046,0.35157039137023693,0.4,1.0,1.0,497.0,952.0,1.0,1,131.0,1
1047,1047,-0.10827036429782122,-0.1,1.0,0.0,263.0,957.0,0.0,0,120.0,1
1048,1048,-0.5359786196257103,-0.5,1.0,0.0,319.0,615.0,0.0,0,386.0,1
1049,1049,-0.7488067989364673,-0.7,1.0,0.0,327.0,617.0,0.0,0,396.0,1
1050,1050,-0.1963604686435949,-0.2,1.0,0.0,299.0,604.0,0.0,0,947.0,1
1051,1051,-0.8517766995693064,-0.9,0.0,1.0,402.0,822.0,1.0,0,116.0,1
1052,1052,-0.8521588798144922,-0.9,1.0,0.0,387.0,894.0,0.0,0,369.0,1
1053,1053,-0.47560615419188457,-0.5,1.0,0.0,317.0,677.0,0.0,0,426.0,1
1054,1054,-0.31850255894880164,-0.3,0.0,1.0,414.0,571.0,1.0,0,605.0,1
1055,1055,0.03626213193104766,0.0,0.0,0.0,349.0,875.0,1.0,0,586.0,0
1056,1056,0.448076914634454,0.4,1.0,1.0,422.0,958.0,1.0,1,80.0,1
1057,1057,-0.026336347115697212,-0.0,0.0,1.0,327.0,984.0,1.0,0,1089.0,1
1058,1058,0.6281682109969925,0.6,1.0,1.0,497.0,720.0,1.0,1,273.0,1
1059,1059,0.6702578910013884,0.7,1.0,1.0,324.0,799.0,1.0,1,337.0,1
1060,1060,0.5779895974893535,0.6,1.0,1.0,357.0,524.0,1.0,1,489.0,1
1061,1061,-0.22624864899947117,-0.2,1.0,0.0,334.0,803.0,0.0,0,1243.0,1
1062,1062,0.22003874759093212,0.2,1.0,1.0,279.0,812.0,1.0,1,429.0,1
1063,1063,0.08901192194455654,0.1,1.0,1.0,295.0,759.0,1.0,1,1966.0,1
1064,1064,0.3893743023190356,0.4,0.0,0.0,270.0,838.0,0.0,1,412.0,1
1065,1065,-0.6212345489612388,-0.6,1.0,0.0,258.0,792.0,0.0,0,120.0,1
1066,1066,-0.7630451960710645,-0.8,1.0,0.0,315.0,676.0,0.0,0,199.0,1
1067,1067,-0.37784465722291916,-0.4,0.0,1.0,266.0,549.0,1.0,0,705.0,1
1068,1068,-0.5499491292476233,-0.5,1.0,0.0,441.0,538.0,0.0,0,451.0,1
1069,1069,-0.6669297233561953,-0.7,1.0,0.0,449.0,901.0,0.0,0,220.0,1
1070,1070,-0.3215527448042823,-0.3,0.0,1.0,453.0,580.0,1.0,0,427.0,1
1071,1071,0.05775762822200592,0.1,0.0,0.0,469.0,538.0,1.0,0,1103.0,0
1072,1072,-0.7583662081241219,-0.8,0.0,1.0,252.0,511.0,1.0,0,307.0,1
1073,1073,-0.04641556871084329,-0.0,0.0,1.0,486.0,957.0,1.0,0,507.0,1
1074,1074,0.6287562997713013,0.6,0.0,0.0,255.0,791.0,0.0,1,264.0,1
1075,1075,0.4529393447461193,0.5,0.0,0.0,455.0,783.0,0.0,1,232.0,1
1076,1076,0.05873570560312802,0.1,0.0,0.0,475.0,790.0,0.0,1,1385.0,1
1077,1077,0.4433852798710175,0.4,0.0,0.0,387.0,688.0,0.0,1,175.0,1
1078,1078,0.48723091054944356,0.5,1.0,1.0,361.0,948.0,1.0,1,231.0,1
1079,1079,-0.03419992840409758,-0.0,1.0,0.0,315.0,689.0,0.0,0,2716.0,1
1080,1080,0.21902521165013333,0.2,1.0,1.0,331.0,656.0,1.0,1,373.0,1
1081,1081,-0.5471961716229732,-0.5,0.0,1.0,446.0,851.0,1.0,0,223.0,1
1082,1082,-0.36805676174323587,-0.4,1.0,0.0,388.0,978.0,0.0,0,214.0,1
1083,1083,0.8961448339193868,0.9,1.0,1.0,275.0,646.0,1.0,1,249.0,1
1084,1084,0.34437738979524724,0.3,1.0,1.0,437.0,664.0,1.0,1,769.0,1
1085,1085,0.2188042893094394,0.2,0.0,0.0,409.0,880.0,0.0,1,951.0,1
1086,1086,0.8583218051153382,0.9,0.0,0.0,460.0,808.0,0.0,1,232.0,1
1087,1087,-0.5968086405603861,-0.6,0.0,1.0,352.0,501.0,1.0,0,507.0,1
1088,1088,-0.010900922366749,-0.0,1.0,0.0,412.0,602.0,1.0,1,2276.0,0
1089,1089,-0.6144369424917812,-0.6,0.0,1.0,470.0,503.0,1.0,0,177.0,1
1090,1090,-0.8861691929108166,-0.9,1.0,0.0,307.0,943.0,0.0,0,100.0,1
1091,1091,-0.2402404596962947,-0.2,0.0,1.0,432.0,588.0,1.0,0,1000.0,1
1092,1092,0.7685474586158477,0.8,0.0,0.0,479.0,599.0,0.0,1,222.0,1
1093,1093,0.351140335450442,0.4,1.0,1.0,459.0,865.0,1.0,1,536.0,1
1094,1094,0.16050056322087125,0.2,1.0,1.0,344.0,956.0,1.0,1,240.0,1
1095,1095,0.3055781321749663,0.3,1.0,1.0,433.0,542.0,1.0,1,415.0,1
1096,1096,0.19219446014742225,0.2,0.0,0.0,298.0,934.0,0.0,1,28.0,1
1097,1097,0.017764440727791375,0.0,1.0,1.0,269.0,750.0,0.0,0,961.0,0
1098,1098,0.19264291272108813,0.2,1.0,1.0,434.0,707.0,1.0,1,379.0,1
1099,1099,0.12617068486446714,0.1,1.0,1.0,307.0,710.0,1.0,1,293.0,1
1100,1100,0.8992678559647688,0.9,0.0,0.0,444.0,746.0,0.0,1,160.0,1
1101,1101,-0.5002917028255127,-0.5,0.0,1.0,326.0,847.0,1.0,0,287.0,1
1102,1102,0.7787642640424076,0.8,0.0,0.0,333.0,535.0,0.0,1,502.0,1
1103,1103,0.004461540220701776,0.0,0.0,0.0,412.0,679.0,0.0,1,309.0,1
1104,1104,0.2557372645517989,0.3,0.0,0.0,320.0,961.0,0.0,1,309.0,1
1105,1105,-0.6511454826945557,-0.7,0.0,1.0,303.0,879.0,1.0,0,168.0,1
1106,1106,0.8431015901995526,0.8,1.0,1.0,418.0,581.0,1.0,1,431.0,1
1107,1107,0.26483319300969843,0.3,1.0,1.0,278.0,580.0,1.0,1,902.0,1
1108,1108,0.6289634694687954,0.6,0.0,0.0,397.0,998.0,0.0,1,175.0,1
1109,1109,0.4157561407894964,0.4,0.0,0.0,418.0,558.0,0.0,1,464.0,1
1110,1110,-0.15804884923143658,-0.2,0.0,1.0,398.0,509.0,1.0,0,473.0,1
1111,1111,-0.6815932022232958,-0.7,1.0,0.0,251.0,750.0,0.0,0,289.0,1
1112,1112,-0.5791588622013388,-0.6,0.0,1.0,401.0,898.0,1.0,0,181.0,1
1113,1113,-0.6334115127068037,-0.6,0.0,1.0,476.0,642.0,1.0,0,362.0,1
1114,1114,0.7013009901552457,0.7,1.0,1.0,320.0,997.0,1.0,1,273.0,1
1115,1115,0.4135800164672513,0.4,1.0,1.0,253.0,788.0,1.0,1,339.0,1
1116,1116,0.5251582625736905,0.5,0.0,0.0,429.0,818.0,0.0,1,183.0,1
1117,1117,-0.4254869695351013,-0.4,1.0,0.0,301.0,701.0,0.0,0,408.0,1
1118,1118,0.5141340015176582,0.5,0.0,0.0,397.0,862.0,0.0,1,211.0,1
1119,1119,0.8016879346774267,0.8,0.0,0.0,444.0,629.0,0.0,1,197.0,1
1120,1120,0.4593550743148497,0.5,1.0,1.0,370.0,805.0,1.0,1,375.0,1
1121,1121,-0.45018912569184516,-0.5,1.0,0.0,491.0,787.0,0.0,0,322.0,1
1122,1122,0.6138211264930372,0.6,1.0,1.0,355.0,623.0,1.0,1,582.0,1
1123,1123,0.03620411684597291,0.0,0.0,0.0,335.0,985.0,1.0,0,50.0,0
1124,1124,-0.2767296570119514,-0.3,0.0,1.0,270.0,522.0,1.0,0,638.0,1
1125,1125,-0.31705917003301365,-0.3,0.0,1.0,389.0,852.0,1.0,0,229.0,1
1126,1126,0.7914943010276544,0.8,0.0,0.0,482.0,651.0,0.0,1,237.0,1
1127,1127,-0.5079673992206418,-0.5,0.0,1.0,469.0,617.0,1.0,0,244.0,1
1128,1128,-0.14515566053743467,-0.1,1.0,0.0,335.0,761.0,0.0,0,264.0,1
1129,1129,-0.5997305298473241,-0.6,1.0,0.0,348.0,843.0,0.0,0,389.0,1
1130,1130,0.8942192966307442,0.9,0.0,0.0,493.0,764.0,0.0,1,113.0,1
1131,1131,0.06540619615520726,0.1,0.0,0.0,450.0,997.0,1.0,0,-37.0,0
1132,1132,0.2949671317028363,0.3,0.0,0.0,292.0,662.0,0.0,1,516.0,1
1133,1133,-0.34625026731207265,-0.3,0.0,1.0,396.0,854.0,1.0,0,130.0,1
1134,1134,0.021484263286108196,0.0,1.0,1.0,470.0,840.0,1.0,1,650.0,1
1135,1135,-0.5942710453276296,-0.6,1.0,0.0,266.0,832.0,0.0,0,442.0,1
1136,1136,-0.4463024715284091,-0.4,1.0,0.0,434.0,730.0,0.0,0,556.0,1
1137,1137,-0.2639376339621774,-0.3,0.0,1.0,384.0,807.0,1.0,0,179.0,1
1138,1138,-0.15749421149438825,-0.2,1.0,0.0,452.0,502.0,0.0,0,576.0,1
1139,1139,0.5187389092901126,0.5,1.0,1.0,409.0,687.0,1.0,1,364.0,1
1140,1140,-0.6648156589673707,-0.7,0.0,1.0,434.0,506.0,1.0,0,360.0,1
1141,1141,-0.368662291737317,-0.4,0.0,1.0,332.0,963.0,1.0,0,195.0,1
1142,1142,0.4350594788506358,0.4,1.0,1.0,498.0,978.0,1.0,1,324.0,1
1143,1143,0.46524082251225607,0.5,1.0,1.0,408.0,892.0,1.0,1,370.0,1
1144,1144,-0.4104456340614736,-0.4,1.0,0.0,262.0,726.0,0.0,0,302.0,1
1145,1145,-0.7519596690435795,-0.8,1.0,0.0,478.0,631.0,0.0,0,291.0,1
1146,1146,-0.16425051023198955,-0.2,0.0,1.0,290.0,886.0,1.0,0,624.0,1
1147,1147,0.40867103753876355,0.4,1.0,1.0,277.0,713.0,1.0,1,390.0,1
1148,1148,-0.1935232774902934,-0.2,1.0,0.0,347.0,962.0,1.0,1,1.0,0
1149,1149,-0.09930538385852228,-0.1,0.0,1.0,430.0,653.0,1.0,0,797.0,1
1150,1150,-0.6337123817662267,-0.6,1.0,0.0,499.0,665.0,0.0,0,256.0,1
1151,1151,-0.45669593891705623,-0.5,1.0,0.0,337.0,878.0,0.0,0,395.0,1
1152,1152,0.6673950496766562,0.7,0.0,0.0,374.0,553.0,0.0,1,293.0,1
1153,1153,0.4780305502865937,0.5,0.0,0.0,373.0,921.0,0.0,1,226.0,1
1154,1154,-0.032003920850011025,-0.0,1.0,0.0,479.0,659.0,1.0,1,3862.0,0
1155,1155,0.21958620791917027,0.2,0.0,0.0,373.0,987.0,0.0,1,310.0,1
1156,1156,-0.19745382746326767,-0.2,1.0,0.0,461.0,978.0,0.0,0,541.0,1
1157,1157,-0.27550337531026403,-0.3,1.0,0.0,410.0,640.0,0.0,0,450.0,1
1158,1158,-0.7527869731727995,-0.8,1.0,0.0,314.0,724.0,0.0,0,212.0,1
1159,1159,-0.25825790268735915,-0.3,0.0,1.0,485.0,821.0,1.0,0,404.0,1
1160,1160,0.47852291584732043,0.5,0.0,0.0,297.0,630.0,0.0,1,383.0,1
1161,1161,-0.5158210265963756,-0.5,1.0,0.0,396.0,859.0,0.0,0,105.0,1
1162,1162,0.7873916307423857,0.8,0.0,0.0,433.0,761.0,0.0,1,236.0,1
1163,1163,-0.5940990173693417,-0.6,0.0,1.0,323.0,765.0,1.0,0,162.0,1
1164,1164,0.07186537818743377,0.1,0.0,0.0,342.0,860.0,0.0,1,2608.0,1
1165,1165,0.5728270124105342,0.6,0.0,0.0,498.0,975.0,0.0,1,137.0,1
1166,1166,-0.6034911224305824,-0.6,0.0,1.0,481.0,682.0,1.0,0,307.0,1
1167,1167,0.6199311260729384,0.6,1.0,1.0,253.0,581.0,1.0,1,506.0,1
1168,1168,-0.17284157552607027,-0.2,0.0,1.0,402.0,631.0,1.0,0,437.0,1
1169,1169,-0.8520085440013165,-0.9,1.0,0.0,424.0,563.0,0.0,0,353.0,1
1170,1170,0.18387077708797228,0.2,1.0,1.0,285.0,817.0,1.0,1,308.0,1
1171,1171,0.06655215587889196,0.1,1.0,1.0,465.0,996.0,1.0,1,229.0,1
1172,1172,-0.7062338856132867,-0.7,1.0,0.0,449.0,843.0,0.0,0,158.0,1
1173,1173,-0.09165575123983427,-0.1,0.0,1.0,401.0,826.0,1.0,0,283.0,1
1174,1174,0.45570612102771146,0.5,0.0,0.0,256.0,718.0,0.0,1,276.0,1
1175,1175,0.8429278842795119,0.8,1.0,1.0,275.0,554.0,1.0,1,211.0,1
1176,1176,0.7615619843261606,0.8,1.0,1.0,430.0,959.0,1.0,1,241.0,1
1177,1177,-0.011616057919268896,-0.0,0.0,1.0,380.0,672.0,0.0,1,428.0,0
1178,1178,-0.36515343179946513,-0.4,0.0,1.0,414.0,991.0,1.0,0,465.0,1
1179,1179,-0.687599556563707,-0.7,0.0,1.0,332.0,756.0,1.0,0,242.0,1
1180,1180,-0.1025080550337153,-0.1,1.0,0.0,356.0,845.0,0.0,0,959.0,1
1181,1181,0.048636485033614396,0.0,1.0,1.0,250.0,560.0,1.0,1,1420.0,1
1182,1182,0.6759314329158458,0.7,1.0,1.0,399.0,783.0,1.0,1,208.0,1
1183,1183,0.8903731564617655,0.9,0.0,0.0,350.0,877.0,0.0,1,53.0,1
1184,1184,-0.341742052379128,-0.3,1.0,0.0,311.0,685.0,0.0,0,584.0,1
1185,1185,-0.1523611676877027,-0.2,1.0,0.0,441.0,705.0,0.0,0,454.0,1
1186,1186,0.7831440711125529,0.8,0.0,0.0,475.0,710.0,0.0,1,185.0,1
1187,1187,-0.4009584586216529,-0.4,0.0,1.0,356.0,765.0,1.0,0,599.0,1
1188,1188,0.5196651904754835,0.5,0.0,0.0,330.0,940.0,0.0,1,160.0,1
1189,1189,0.5617611593794606,0.6,0.0,0.0,367.0,519.0,0.0,1,344.0,1
1190,1190,0.014294874003947577,0.0,1.0,1.0,466.0,740.0,1.0,1,934.0,1
1191,1191,-0.524153851331344,-0.5,1.0,0.0,292.0,904.0,0.0,0,194.0,1
1192,1192,-0.8471927138807017,-0.8,0.0,1.0,348.0,628.0,1.0,0,164.0,1
1193,1193,0.7625513707931265,0.8,0.0,0.0,349.0,563.0,0.0,1,148.0,1
1194,1194,-0.4890554763429905,-0.5,1.0,0.0,495.0,736.0,0.0,0,289.0,1
1195,1195,-0.23398323838536772,-0.2,0.0,1.0,385.0,915.0,1.0,0,230.0,1
1196,1196,0.5094417282062812,0.5,1.0,1.0,473.0,660.0,1.0,1,197.0,1
1197,1197,-0.09719230199293205,-0.1,0.0,1.0,344.0,526.0,1.0,0,1670.0,1
1198,1198,-0.25075535844590424,-0.3,0.0,1.0,487.0,556.0,1.0,0,287.0,1
1199,1199,-0.13831961942148818,-0.1,1.0,0.0,450.0,826.0,0.0,0,3484.0,1
1200,1200,-0.13933035868461496,-0.1,1.0,0.0,414.0,722.0,0.0,0,1574.0,1
1201,1201,0.636201290578828,0.6,0.0,0.0,393.0,527.0,0.0,1,290.0,1
1202,1202,-0.35111399820449307,-0.4,0.0,1.0,389.0,559.0,1.0,0,532.0,1
1203,1203,0.16371852059713154,0.2,0.0,0.0,349.0,846.0,0.0,1,185.0,1
1204,1204,0.43944146889926283,0.4,0.0,0.0,344.0,833.0,0.0,1,323.0,1
1205,1205,0.31068757514662504,0.3,1.0,1.0,441.0,734.0,1.0,1,465.0,1
1206,1206,0.5376461842129377,0.5,1.0,1.0,349.0,617.0,1.0,1,224.0,1
1207,1207,-0.6399745729944732,-0.6,0.0,1.0,479.0,730.0,1.0,0,141.0,1
1208,1208,-0.38394061874944674,-0.4,0.0,1.0,383.0,577.0,1.0,0,340.0,1
1209,1209,-0.7854470631184698,-0.8,1.0,0.0,305.0,953.0,0.0,0,362.0,1
1210,1210,-0.3668773942369813,-0.4,0.0,1.0,363.0,701.0,1.0,0,296.0,1
1211,1211,0.20197253049123398,0.2,1.0,1.0,275.0,725.0,1.0,1,590.0,1
1212,1212,0.110344577841342,0.1,1.0,1.0,490.0,724.0,0.0,0,776.0,0
1213,1213,-0.7330946306738556,-0.7,0.0,1.0,333.0,741.0,1.0,0,236.0,1
1214,1214,-0.541309522962506,-0.5,0.0,1.0,448.0,535.0,1.0,0,467.0,1
1215,1215,0.4260484461005264,0.4,1.0,1.0,291.0,662.0,1.0,1,447.0,1
1216,1216,-0.437421990693242,-0.4,1.0,0.0,288.0,524.0,0.0,0,348.0,1
1217,1217,-0.24234088100477524,-0.2,0.0,1.0,294.0,548.0,1.0,0,478.0,1
1218,1218,-0.3467682155404239,-0.3,1.0,0.0,269.0,553.0,0.0,0,448.0,1
1219,1219,-0.251760248024574,-0.3,1.0,0.0,302.0,993.0,0.0,0,545.0,1
1220,1220,-0.14399081097905098,-0.1,0.0,1.0,408.0,916.0,1.0,0,246.0,1
1221,1221,0.6996999106168736,0.7,0.0,0.0,311.0,650.0,0.0,1,339.0,1
1222,1222,0.745606889293356,0.7,1.0,1.0,374.0,633.0,1.0,1,423.0,1
1223,1223,0.2268358351654466,0.2,0.0,0.0,372.0,651.0,0.0,1,667.0,1
1224,1224,0.011097636601257288,0.0,0.0,0.0,354.0,782.0,0.0,1,314.0,1
1225,1225,-0.03749413678412983,-0.0,0.0,1.0,268.0,964.0,1.0,0,358.0,1
1226,1226,0.6918195394870909,0.7,0.0,0.0,476.0,690.0,0.0,1,224.0,1
1227,1227,-0.04146153698124466,-0.0,1.0,0.0,382.0,604.0,0.0,0,1994.0,1
1228,1228,0.8298487561919018,0.8,0.0,0.0,279.0,615.0,0.0,1,326.0,1
1229,1229,-0.7737617045967483,-0.8,0.0,1.0,285.0,580.0,1.0,0,425.0,1
1230,1230,0.2522874852084892,0.3,1.0,1.0,361.0,616.0,1.0,1,573.0,1
1231,1231,-0.5990579864512677,-0.6,0.0,1.0,322.0,706.0,1.0,0,252.0,1
1232,1232,0.8187153354537627,0.8,1.0,1.0,346.0,940.0,1.0,1,104.0,1
1233,1233,-0.502624377787283,-0.5,1.0,0.0,264.0,573.0,0.0,0,393.0,1
1234,1234,0.6475755013843753,0.6,1.0,1.0,459.0,712.0,1.0,1,309.0,1
1235,1235,-0.45866922085193157,-0.5,0.0,1.0,432.0,897.0,1.0,0,301.0,1
1236,1236,-0.5917668153208211,-0.6,1.0,0.0,476.0,719.0,0.0,0,485.0,1
1237,1237,-0.30555338561699985,-0.3,0.0,1.0,322.0,699.0,1.0,0,279.0,1
1238,1238,-0.04853896344610331,-0.0,1.0,0.0,297.0,619.0,1.0,1,3914.0,0
1239,1239,0.004783617669112394,0.0,1.0,1.0,333.0,663.0,1.0,1,594.0,1
1240,1240,0.044465839831125176,0.0,0.0,0.0,327.0,717.0,1.0,0,1176.0,0
1241,1241,0.08856711106462523,0.1,1.0,1.0,351.0,743.0,1.0,1,556.0,1
1242,1242,-0.04295211887464179,-0.0,1.0,0.0,312.0,918.0,0.0,0,1500.0,1
1243,1243,0.04619802585970545,0.0,0.0,0.0,269.0,929.0,0.0,1,542.0,1
1244,1244,0.3396655606054205,0.3,0.0,0.0,351.0,651.0,0.0,1,518.0,1
1245,1245,-0.419815152328861,-0.4,0.0,1.0,378.0,982.0,1.0,0,190.0,1
1246,1246,-0.19461338523035854,-0.2,1.0,0.0,460.0,619.0,0.0,0,721.0,1
1247,1247,-0.2664474108165378,-0.3,1.0,0.0,308.0,843.0,0.0,0,699.0,1
1248,1248,0.49735664778978517,0.5,0.0,0.0,485.0,667.0,0.0,1,418.0,1
1249,1249,-0.8817118838400303,-0.9,1.0,0.0,488.0,797.0,0.0,0,295.0,1
1250,1250,-0.6362075405972483,-0.6,1.0,0.0,433.0,897.0,0.0,0,310.0,1
1251,1251,-0.45661804054315863,-0.5,0.0,1.0,334.0,979.0,1.0,0,17.0,1
1252,1252,-0.40928827741823187,-0.4,1.0,0.0,340.0,919.0,0.0,0,131.0,1
1253,1253,-0.04245027329183948,-0.0,1.0,0.0,335.0,761.0,1.0,1,3244.0,0
1254,1254,-0.37473010766219883,-0.4,1.0,0.0,442.0,633.0,0.0,0,545.0,1
1255,1255,0.4288735957470061,0.4,1.0,1.0,276.0,932.0,1.0,1,382.0,1
1256,1256,-0.8803706571281312,-0.9,1.0,0.0,270.0,979.0,0.0,0,141.0,1
1257,1257,0.4066508809714121,0.4,1.0,1.0,348.0,850.0,1.0,1,332.0,1
1258,1258,0.7423136292520732,0.7,1.0,1.0,374.0,828.0,1.0,1,98.0,1
1259,1259,0.0059746670933976675,0.0,0.0,0.0,309.0,635.0,1.0,0,1016.0,0
1260,1260,-0.6613714031014964,-0.7,1.0,0.0,402.0,676.0,0.0,0,232.0,1
1261,1261,0.531294444504793,0.5,0.0,0.0,482.0,664.0,0.0,1,264.0,1
1262,1262,-0.3129980342762716,-0.3,1.0,0.0,351.0,762.0,0.0,0,457.0,1
1263,1263,0.0885978834568566,0.1,0.0,0.0,299.0,801.0,0.0,1,920.0,1
1264,1264,-0.09308786925018253,-0.1,1.0,0.0,429.0,535.0,0.0,0,606.0,1
1265,1265,0.42350170320992475,0.4,0.0,0.0,428.0,882.0,0.0,1,210.0,1
1266,1266,-0.29099667105989857,-0.3,0.0,1.0,290.0,702.0,1.0,0,198.0,1
1267,1267,0.8334057367958249,0.8,0.0,0.0,337.0,987.0,0.0,1,86.0,1
1268,1268,-0.6654288394478509,-0.7,0.0,1.0,399.0,608.0,1.0,0,253.0,1
1269,1269,0.42907071528473717,0.4,0.0,0.0,475.0,895.0,0.0,1,640.0,1
1270,1270,0.15634997743147416,0.2,0.0,0.0,428.0,594.0,0.0,1,558.0,1
1271,1271,0.05703925290422618,0.1,1.0,1.0,276.0,851.0,1.0,1,383.0,1
1272,1272,0.5093128757317392,0.5,1.0,1.0,408.0,954.0,1.0,1,118.0,1
1273,1273,-0.05702189480376596,-0.1,0.0,1.0,310.0,850.0,1.0,0,390.0,1
1274,1274,0.6461827795725575,0.6,1.0,1.0,317.0,702.0,1.0,1,221.0,1
1275,1275,-0.8612685133841399,-0.9,1.0,0.0,490.0,765.0,0.0,0,235.0,1
1276,1276,0.20538305716163407,0.2,1.0,1.0,348.0,980.0,1.0,1,392.0,1
1277,1277,-0.43242895734631764,-0.4,0.0,1.0,381.0,963.0,1.0,0,96.0,1
1278,1278,-0.16863707168388264,-0.2,1.0,0.0,345.0,652.0,0.0,0,783.0,1
1279,1279,-0.10107343005335179,-0.1,1.0,0.0,323.0,914.0,1.0,1,3113.0,0
1280,1280,-0.7482615863873786,-0.7,1.0,0.0,452.0,501.0,0.0,0,517.0,1
1281,1281,-0.2742422022508981,-0.3,1.0,0.0,433.0,696.0,0.0,0,351.0,1
1282,1282,-0.6823606241021846,-0.7,1.0,0.0,335.0,680.0,0.0,0,275.0,1
1283,1283,-0.876697320838318,-0.9,0.0,1.0,305.0,635.0,1.0,0,380.0,1
1284,1284,0.6377625773627208,0.6,1.0,1.0,449.0,584.0,1.0,1,407.0,1
1285,1285,0.1334779984469311,0.1,0.0,0.0,465.0,503.0,0.0,1,722.0,1
1286,1286,-0.6645279911570956,-0.7,1.0,0.0,399.0,639.0,0.0,0,272.0,1
1287,1287,0.857203116160009,0.9,0.0,0.0,425.0,878.0,0.0,1,-3.0,1
1288,1288,0.7047907716312874,0.7,1.0,1.0,303.0,693.0,1.0,1,134.0,1
1289,1289,0.34668246051799223,0.3,0.0,0.0,262.0,505.0,0.0,1,473.0,1
1290,1290,-0.3474612942267381,-0.3,1.0,0.0,367.0,800.0,0.0,0,423.0,1
1291,1291,-0.03414829384032736,-0.0,0.0,1.0,348.0,745.0,1.0,0,507.0,1
1292,1292,0.10456817503092142,0.1,1.0,1.0,483.0,681.0,1.0,1,2376.0,1
1293,1293,0.5539820584279133,0.6,1.0,1.0,364.0,716.0,1.0,1,300.0,1
1294,1294,-0.8759774315021224,-0.9,0.0,1.0,353.0,638.0,1.0,0,299.0,1
1295,1295,0.6532145366796399,0.7,0.0,0.0,493.0,635.0,0.0,1,152.0,1
1296,1296,0.5358411745846138,0.5,1.0,1.0,277.0,607.0,1.0,1,616.0,1
1297,1297,0.1864341900834655,0.2,0.0,0.0,387.0,607.0,0.0,1,1006.0,1
1298,1298,-0.29318212742846117,-0.3,1.0,0.0,349.0,583.0,0.0,0,398.0,1
1299,1299,0.4724840291276907,0.5,0.0,0.0,465.0,885.0,0.0,1,160.0,1
1300,1300,0.7921157373675837,0.8,0.0,0.0,418.0,501.0,0.0,1,231.0,1
1301,1301,-0.12125705389949426,-0.1,1.0,0.0,295.0,982.0,1.0,1,1003.0,0
1302,1302,-0.011629778610883768,-0.0,0.0,1.0,459.0,945.0,0.0,1,1846.0,0
1303,1303,-0.6417962127823154,-0.6,1.0,0.0,418.0,747.0,0.0,0,225.0,1
1304,1304,-0.5599708321220866,-0.6,1.0,0.0,283.0,853.0,0.0,0,264.0,1
1305,1305,-0.11498537706854073,-0.1,1.0,0.0,407.0,614.0,0.0,0,499.0,1
1306,1306,0.7213139066553697,0.7,0.0,0.0,261.0,502.0,0.0,1,427.0,1
1307,1307,0.7695858202909768,0.8,1.0,1.0,333.0,859.0,1.0,1,168.0,1
1308,1308,-0.22189361710836508,-0.2,1.0,0.0,379.0,643.0,0.0,0,738.0,1
1309,1309,0.10401144849015787,0.1,0.0,0.0,365.0,592.0,0.0,1,543.0,1
1310,1310,0.14531070846474992,0.1,1.0,1.0,449.0,618.0,1.0,1,743.0,1
1311,1311,-0.785054804280916,-0.8,0.0,1.0,307.0,546.0,1.0,0,227.0,1
1312,1312,0.46500306399954205,0.5,1.0,1.0,403.0,902.0,1.0,1,295.0,1
1313,1313,-0.09246049797443145,-0.1,0.0,1.0,439.0,517.0,1.0,0,794.0,1
1314,1314,0.3175017871088438,0.3,0.0,0.0,496.0,799.0,0.0,1,355.0,1
1315,1315,-0.46389785243245574,-0.5,1.0,0.0,472.0,650.0,0.0,0,508.0,1
1316,1316,-0.6104328089070404,-0.6,1.0,0.0,305.0,580.0,0.0,0,395.0,1
1317,1317,0.5180849524443035,0.5,0.0,0.0,451.0,594.0,0.0,1,215.0,1
1318,1318,-0.3408956007189332,-0.3,0.0,1.0,426.0,810.0,1.0,0,234.0,1
1319,1319,0.3894440652716312,0.4,0.0,0.0,497.0,632.0,0.0,1,271.0,1
1320,1320,-0.23921118994375912,-0.2,1.0,0.0,421.0,720.0,0.0,0,699.0,1
1321,1321,-0.26489520522684407,-0.3,1.0,0.0,278.0,597.0,0.0,0,855.0,1
1322,1322,-0.33642145499039566,-0.3,0.0,1.0,418.0,914.0,1.0,0,288.0,1
1323,1323,-0.10074583295481909,-0.1,0.0,1.0,296.0,614.0,1.0,0,770.0,1
1324,1324,0.025092231871245096,0.0,1.0,1.0,299.0,711.0,1.0,1,880.0,1
1325,1325,0.6094272993045015,0.6,0.0,0.0,459.0,831.0,0.0,1,130.0,1
1326,1326,-0.1459825676697699,-0.1,1.0,0.0,491.0,589.0,0.0,0,920.0,1
1327,1327,0.2786348984234869,0.3,1.0,1.0,280.0,661.0,1.0,1,689.0,1
1328,1328,-0.05784591065987521,-0.1,0.0,1.0,448.0,939.0,1.0,0,323.0,1
1329,1329,0.3073076009519796,0.3,0.0,0.0,434.0,999.0,0.0,1,177.0,1
1330,1330,0.6999525524700664,0.7,1.0,1.0,454.0,501.0,1.0,1,685.0,1
1331,1331,-0.29702442174612764,-0.3,0.0,1.0,334.0,563.0,1.0,0,213.0,1
1332,1332,-0.3999655758699655,-0.4,1.0,0.0,418.0,851.0,0.0,0,231.0,1
1333,1333,0.3759924467940977,0.4,1.0,1.0,341.0,599.0,1.0,1,370.0,1
1334,1334,-0.42264649592162523,-0.4,1.0,0.0,458.0,789.0,0.0,0,453.0,1
1335,1335,-0.38855096619764984,-0.4,1.0,0.0,391.0,640.0,0.0,0,409.0,1
1336,1336,-0.5430356346526177,-0.5,1.0,0.0,453.0,719.0,0.0,0,398.0,1
1337,1337,0.18496647469271232,0.2,0.0,0.0,406.0,634.0,0.0,1,460.0,1
1338,1338,0.6952493384777653,0.7,0.0,0.0,374.0,895.0,0.0,1,121.0,1
1339,1339,0.307182899143425,0.3,1.0,1.0,364.0,717.0,1.0,1,479.0,1
1340,1340,-0.3647287441279654,-0.4,1.0,0.0,280.0,648.0,0.0,0,392.0,1
1341,1341,0.6114461374168251,0.6,0.0,0.0,373.0,648.0,0.0,1,439.0,1
1342,1342,0.71005011474906,0.7,1.0,1.0,258.0,541.0,1.0,1,341.0,1
1343,1343,0.27385047204298296,0.3,0.0,0.0,372.0,689.0,0.0,1,419.0,1
1344,1344,0.7687300180811493,0.8,0.0,0.0,308.0,712.0,0.0,1,240.0,1
1345,1345,0.0038569659997407246,0.0,0.0,0.0,295.0,868.0,1.0,0,407.0,0
1346,1346,-0.3245122262786325,-0.3,1.0,0.0,396.0,664.0,0.0,0,230.0,1
1347,1347,-0.8567280170662906,-0.9,0.0,1.0,464.0,698.0,1.0,0,308.0,1
1348,1348,-0.35295998640673043,-0.4,1.0,0.0,479.0,990.0,0.0,0,581.0,1
1349,1349,0.7794327167220866,0.8,0.0,0.0,434.0,761.0,0.0,1,125.0,1
1350,1350,0.17270355399801762,0.2,0.0,0.0,479.0,836.0,0.0,1,1035.0,1
1351,1351,0.007956971735325169,0.0,0.0,0.0,284.0,870.0,0.0,1,546.0,1
1352,1352,0.09037731141090166,0.1,0.0,0.0,351.0,891.0,0.0,1,328.0,1
1353,1353,0.09404757278852927,0.1,0.0,0.0,405.0,844.0,0.0,1,371.0,1
1354,1354,0.18162972238025377,0.2,0.0,0.0,359.0,766.0,1.0,0,675.0,0
1355,1355,-0.27676823546660745,-0.3,0.0,1.0,353.0,915.0,1.0,0,132.0,1
1356,1356,0.8117706595288171,0.8,1.0,1.0,294.0,672.0,1.0,1,344.0,1
1357,1357,0.8666711078580699,0.9,0.0,0.0,436.0,642.0,0.0,1,252.0,1
1358,1358,-0.3068269524762016,-0.3,1.0,0.0,257.0,969.0,0.0,0,374.0,1
1359,1359,0.43111672006117063,0.4,1.0,1.0,258.0,914.0,1.0,1,318.0,1
1360,1360,0.46294975020033313,0.5,1.0,1.0,495.0,779.0,1.0,1,176.0,1
1361,1361,0.2151253856010772,0.2,0.0,0.0,458.0,813.0,0.0,1,289.0,1
1362,1362,-0.38697026019964875,-0.4,0.0,1.0,490.0,611.0,1.0,0,409.0,1
1363,1363,0.8789834623738998,0.9,1.0,1.0,351.0,700.0,1.0,1,279.0,1
1364,1364,0.18043698488432536,0.2,1.0,1.0,281.0,649.0,1.0,1,980.0,1
1365,1365,-0.3428207229415189,-0.3,0.0,1.0,382.0,871.0,1.0,0,357.0,1
1366,1366,-0.7030754722441013,-0.7,0.0,1.0,312.0,870.0,1.0,0,98.0,1
1367,1367,-0.7284162334908397,-0.7,1.0,0.0,498.0,926.0,0.0,0,296.0,1
1368,1368,0.7951539241276663,0.8,1.0,1.0,425.0,530.0,1.0,1,355.0,1
1369,1369,0.5963490807545574,0.6,0.0,0.0,427.0,557.0,0.0,1,406.0,1
1370,1370,0.8700566057946969,0.9,1.0,1.0,379.0,581.0,1.0,1,350.0,1
1371,1371,0.103980465536197,0.1,1.0,1.0,273.0,612.0,1.0,1,1045.0,1
1372,1372,-0.7270458832035923,-0.7,1.0,0.0,476.0,923.0,0.0,0,131.0,1
1373,1373,-0.7168175997999677,-0.7,1.0,0.0,458.0,956.0,0.0,0,196.0,1
1374,1374,0.09547611488650709,0.1,0.0,0.0,398.0,575.0,1.0,0,847.0,0
1375,1375,0.09680479532341701,0.1,0.0,0.0,377.0,702.0,1.0,0,321.0,0
1376,1376,-0.7189022684572317,-0.7,1.0,0.0,356.0,956.0,0.0,0,268.0,1
1377,1377,0.2835492205135529,0.3,0.0,0.0,288.0,593.0,0.0,1,479.0,1
1378,1378,-0.23372442105463276,-0.2,0.0,1.0,491.0,789.0,1.0,0,390.0,1
1379,1379,0.01946076887732784,0.0,1.0,1.0,397.0,930.0,0.0,0,3673.0,0
1380,1380,-0.7948839711516701,-0.8,1.0,0.0,350.0,768.0,0.0,0,472.0,1
1381,1381,0.4207252467305099,0.4,1.0,1.0,294.0,878.0,1.0,1,288.0,1
1382,1382,-0.7212178065794139,-0.7,1.0,0.0,406.0,505.0,0.0,0,559.0,1
1383,1383,0.000936619723148735,0.0,0.0,0.0,479.0,593.0,1.0,0,1658.0,0
1384,1384,0.7192832708334947,0.7,0.0,0.0,420.0,886.0,0.0,1,264.0,1
1385,1385,0.3169217836328163,0.3,1.0,1.0,409.0,819.0,1.0,1,442.0,1
1386,1386,0.32218339397834284,0.3,1.0,1.0,330.0,749.0,1.0,1,291.0,1
1387,1387,0.39803834980550856,0.4,0.0,0.0,472.0,645.0,0.0,1,163.0,1
1388,1388,0.45852435830355287,0.5,1.0,1.0,423.0,537.0,1.0,1,510.0,1
1389,1389,0.2634867587122304,0.3,1.0,1.0,306.0,600.0,1.0,1,754.0,1
1390,1390,0.0925013358109168,0.1,0.0,0.0,474.0,747.0,0.0,1,1329.0,1
1391,1391,0.12414557056542608,0.1,0.0,0.0,340.0,922.0,0.0,1,358.0,1
1392,1392,-0.13063966608387634,-0.1,0.0,1.0,251.0,562.0,1.0,0,407.0,1
1393,1393,0.4126198390033894,0.4,0.0,0.0,490.0,786.0,0.0,1,334.0,1
1394,1394,-0.7176641882772847,-0.7,1.0,0.0,264.0,630.0,0.0,0,246.0,1
1395,1395,-0.045019577909926056,-0.0,1.0,0.0,401.0,998.0,0.0,0,811.0,1
1396,1396,0.870607030764987,0.9,1.0,1.0,465.0,680.0,1.0,1,305.0,1
1397,1397,-0.14287380059918953,-0.1,0.0,1.0,269.0,873.0,1.0,0,138.0,1
1398,1398,0.7111490557364327,0.7,1.0,1.0,257.0,523.0,1.0,1,390.0,1
1399,1399,-0.601934788671601,-0.6,1.0,0.0,350.0,618.0,0.0,0,402.0,1
1400,1400,0.013794472150506887,0.0,1.0,1.0,322.0,634.0,1.0,1,884.0,1
1401,1401,-0.07300172585065356,-0.1,0.0,1.0,315.0,641.0,1.0,0,1884.0,1
1402,1402,-0.06674711017312163,-0.1,0.0,1.0,451.0,930.0,1.0,0,519.0,1
1403,1403,0.2506480729637294,0.3,1.0,1.0,480.0,917.0,1.0,1,353.0,1
1404,1404,0.5357794854350203,0.5,1.0,1.0,454.0,805.0,1.0,1,191.0,1
1405,1405,0.7686050854996017,0.8,0.0,0.0,416.0,871.0,0.0,1,193.0,1
1406,1406,0.10918664759370589,0.1,0.0,0.0,386.0,998.0,0.0,1,1416.0,1
1407,1407,-0.12229342705796076,-0.1,1.0,0.0,396.0,707.0,0.0,0,667.0,1
1408,1408,0.8501091980824075,0.9,1.0,1.0,300.0,716.0,1.0,1,284.0,1
1409,1409,0.23758701665703474,0.2,1.0,1.0,384.0,949.0,1.0,1,197.0,1
1410,1410,0.8667733384636443,0.9,0.0,0.0,445.0,854.0,0.0,1,291.0,1
1411,1411,-0.2852215581887668,-0.3,1.0,0.0,451.0,601.0,0.0,0,378.0,1
1412,1412,-0.058780194907119054,-0.1,0.0,1.0,453.0,722.0,1.0,0,715.0,1
1413,1413,0.765420793371891,0.8,0.0,0.0,441.0,575.0,0.0,1,264.0,1
1414,1414,0.35348883669633835,0.4,0.0,0.0,255.0,532.0,0.0,1,293.0,1
1415,1415,-0.836169894710383,-0.8,0.0,1.0,390.0,544.0,1.0,0,386.0,1
1416,1416,-0.08567262532338238,-0.1,0.0,1.0,314.0,858.0,1.0,0,1198.0,1
1417,1417,-0.7077072043706345,-0.7,1.0,0.0,272.0,758.0,0.0,0,290.0,1
1418,1418,-0.5319166292024013,-0.5,1.0,0.0,396.0,642.0,0.0,0,442.0,1
1419,1419,0.03948829556824973,0.0,1.0,1.0,276.0,958.0,0.0,0,3766.0,0
1420,1420,0.00788338723685511,0.0,0.0,0.0,392.0,816.0,1.0,0,372.0,0
1421,1421,0.4080938270424225,0.4,1.0,1.0,402.0,694.0,1.0,1,404.0,1
1422,1422,0.12565816338185753,0.1,1.0,1.0,406.0,775.0,1.0,1,629.0,1
1423,1423,-0.1818645954973408,-0.2,0.0,1.0,477.0,592.0,1.0,0,591.0,1
1424,1424,0.8238122183873472,0.8,0.0,0.0,370.0,628.0,0.0,1,272.0,1
1425,1425,0.20412008705695583,0.2,1.0,1.0,400.0,897.0,1.0,1,483.0,1
1426,1426,0.5085622971877396,0.5,1.0,1.0,492.0,596.0,1.0,1,562.0,1
1427,1427,-0.05122070631187636,-0.1,0.0,1.0,437.0,826.0,1.0,0,807.0,1
1428,1428,-0.37038428713564264,-0.4,0.0,1.0,264.0,997.0,1.0,0,399.0,1
1429,1429,-0.05754453909971735,-0.1,0.0,1.0,486.0,983.0,1.0,0,251.0,1
1430,1430,0.6155076433768273,0.6,1.0,1.0,447.0,773.0,1.0,1,280.0,1
1431,1431,0.6387165693527405,0.6,0.0,0.0,496.0,734.0,0.0,1,170.0,1
1432,1432,0.337610853037572,0.3,0.0,0.0,285.0,750.0,0.0,1,255.0,1
1433,1433,0.2828045710711763,0.3,1.0,1.0,400.0,543.0,1.0,1,927.0,1
1434,1434,-0.2565479906728354,-0.3,1.0,0.0,404.0,564.0,0.0,0,1092.0,1
1435,1435,-0.47315755159121137,-0.5,1.0,0.0,445.0,703.0,0.0,0,462.0,1
1436,1436,0.5538580245385379,0.6,1.0,1.0,476.0,530.0,1.0,1,394.0,1
1437,1437,-0.2731078795870546,-0.3,0.0,1.0,415.0,821.0,1.0,0,284.0,1
1438,1438,0.3470017331128049,0.3,0.0,0.0,281.0,916.0,0.0,1,383.0,1
1439,1439,-0.10932073452507196,-0.1,1.0,0.0,488.0,677.0,0.0,0,365.0,1
1440,1440,-0.8741406760086333,-0.9,1.0,0.0,495.0,860.0,0.0,0,145.0,1
1441,1441,0.6041197169287843,0.6,1.0,1.0,469.0,516.0,1.0,1,715.0,1
1442,1442,0.8424914553792374,0.8,0.0,0.0,250.0,900.0,0.0,1,90.0,1
1443,1443,-0.6573881460634001,-0.7,0.0,1.0,363.0,648.0,1.0,0,169.0,1
1444,1444,-0.2726616023780335,-0.3,1.0,0.0,409.0,691.0,0.0,0,670.0,1
1445,1445,0.7837187341059751,0.8,0.0,0.0,493.0,941.0,0.0,1,176.0,1
1446,1446,0.4941402821255131,0.5,1.0,1.0,304.0,886.0,1.0,1,200.0,1
1447,1447,-0.48922839014366076,-0.5,1.0,0.0,455.0,783.0,0.0,0,172.0,1
1448,1448,-0.8120583692166671,-0.8,1.0,0.0,382.0,515.0,0.0,0,703.0,1
1449,1449,0.18409170386962959,0.2,0.0,0.0,341.0,969.0,1.0,0,490.0,0
1450,1450,-0.14868297888845394,-0.1,1.0,0.0,297.0,765.0,0.0,0,1058.0,1
1451,1451,0.7903292502591944,0.8,1.0,1.0,296.0,582.0,1.0,1,382.0,1
1452,1452,0.564709229084379,0.6,0.0,0.0,278.0,534.0,0.0,1,308.0,1
1453,1453,0.8290026559288549,0.8,1.0,1.0,315.0,764.0,1.0,1,281.0,1
1454,1454,-0.4843022461040147,-0.5,1.0,0.0,321.0,533.0,0.0,0,346.0,1
1455,1455,0.7498656239037086,0.7,0.0,0.0,318.0,683.0,0.0,1,109.0,1
1456,1456,0.8835949999680354,0.9,1.0,1.0,265.0,902.0,1.0,1,133.0,1
1457,1457,0.5461166364478246,0.5,1.0,1.0,498.0,928.0,1.0,1,254.0,1
1458,1458,0.8391413066269929,0.8,0.0,0.0,288.0,950.0,0.0,1,222.0,1
1459,1459,0.5411729655700795,0.5,0.0,0.0,329.0,736.0,0.0,1,195.0,1
1460,1460,-0.4130285278083856,-0.4,1.0,0.0,399.0,905.0,0.0,0,296.0,1
1461,1461,-0.27306888896022163,-0.3,1.0,0.0,345.0,732.0,0.0,0,643.0,1
1462,1462,-0.8442319357051685,-0.8,0.0,1.0,300.0,709.0,1.0,0,301.0,1
1463,1463,-0.7824115611136856,-0.8,0.0,1.0,443.0,510.0,1.0,0,607.0,1
1464,1464,0.8152406957211237,0.8,0.0,0.0,344.0,613.0,0.0,1,283.0,1
1465,1465,-0.4975454578762439,-0.5,0.0,1.0,443.0,687.0,1.0,0,240.0,1
1466,1466,0.009532874813024672,0.0,1.0,1.0,265.0,966.0,1.0,1,369.0,1
1467,1467,-0.15335690656632006,-0.2,0.0,1.0,418.0,747.0,1.0,0,875.0,1
1468,1468,-0.019400222626634323,-0.0,0.0,1.0,287.0,676.0,1.0,0,547.0,1
1469,1469,0.6239030251965821,0.6,0.0,0.0,434.0,984.0,0.0,1,172.0,1
1470,1470,0.7422402136704739,0.7,1.0,1.0,402.0,501.0,1.0,1,367.0,1
1471,1471,0.134306295390192,0.1,0.0,0.0,362.0,577.0,0.0,1,651.0,1
1472,1472,-0.3510242140638631,-0.4,0.0,1.0,405.0,789.0,1.0,0,386.0,1
1473,1473,-0.3686707531657315,-0.4,0.0,1.0,302.0,522.0,1.0,0,486.0,1
1474,1474,-0.44904432209483397,-0.4,0.0,1.0,369.0,776.0,1.0,0,145.0,1
1475,1475,-0.4481974600696334,-0.4,0.0,1.0,441.0,876.0,1.0,0,253.0,1
1476,1476,-0.29468491752603565,-0.3,1.0,0.0,271.0,731.0,0.0,0,178.0,1
1477,1477,-0.5371803702741066,-0.5,1.0,0.0,327.0,763.0,0.0,0,300.0,1
1478,1478,0.26557807010613776,0.3,0.0,0.0,397.0,966.0,0.0,1,287.0,1
1479,1479,0.06940829197348042,0.1,0.0,0.0,482.0,659.0,0.0,1,279.0,1
1480,1480,0.5542274743402072,0.6,0.0,0.0,447.0,801.0,0.0,1,222.0,1
1481,1481,0.7461669571451149,0.7,0.0,0.0,318.0,576.0,0.0,1,256.0,1
1482,1482,0.2002810865313479,0.2,0.0,0.0,460.0,688.0,0.0,1,702.0,1
1483,1483,-0.6798875743225226,-0.7,0.0,1.0,436.0,651.0,1.0,0,263.0,1
1484,1484,0.47461205148256724,0.5,1.0,1.0,445.0,810.0,1.0,1,215.0,1
1485,1485,-0.08000721075689654,-0.1,1.0,0.0,488.0,963.0,0.0,0,79.0,1
1486,1486,-0.3403324461199375,-0.3,0.0,1.0,458.0,639.0,1.0,0,303.0,1
1487,1487,-0.2576044046869139,-0.3,0.0,1.0,394.0,987.0,1.0,0,189.0,1
1488,1488,0.8697355910098371,0.9,0.0,0.0,257.0,621.0,0.0,1,202.0,1
1489,1489,-0.08623964300705966,-0.1,0.0,1.0,317.0,720.0,1.0,0,793.0,1
1490,1490,-0.41001095053680386,-0.4,1.0,0.0,372.0,926.0,0.0,0,82.0,1
1491,1491,0.6683344348194339,0.7,1.0,1.0,396.0,769.0,1.0,1,625.0,1
