,trial,coherence,coherence_bin,green_side,correct_side,target_onset,checker_onset,decision,green_decision,decision_time,correct_decision
0,0,-0.40408287093411016,-0.4,0.0,1.0,481.0,894.0,1.0,0,445.0,1
1,1,0.3556467685965111,0.4,0.0,0.0,383.0,843.0,0.0,1,64.0,1
2,2,-0.6323724292819617,-0.6,1.0,0.0,370.0,867.0,0.0,0,-27.0,1
3,3,-0.6630390040308745,-0.7,1.0,0.0,315.0,891.0,0.0,0,174.0,1
4,4,0.16633453526452258,0.2,0.0,0.0,440.0,555.0,0.0,1,765.0,1
5,5,0.8591696057173189,0.9,1.0,1.0,284.0,999.0,1.0,1,147.0,1
6,6,0.7715722857122543,0.8,1.0,1.0,371.0,761.0,1.0,1,278.0,1
7,7,-0.017904049871851235,-0.0,1.0,0.0,310.0,802.0,1.0,1,408.0,0
8,8,0.21558896972835428,0.2,1.0,1.0,269.0,998.0,1.0,1,763.0,1
9,9,0.7900623102016259,0.8,1.0,1.0,496.0,631.0,1.0,1,313.0,1
10,10,0.3190104095616869,0.3,0.0,0.0,421.0,875.0,0.0,1,264.0,1
11,11,0.778620821297603,0.8,1.0,1.0,494.0,654.0,1.0,1,322.0,1
12,12,0.726062138637077,0.7,0.0,0.0,274.0,582.0,0.0,1,194.0,1
13,13,0.35179562988523994,0.4,1.0,1.0,300.0,777.0,1.0,1,783.0,1
14,14,0.5490328383426023,0.5,0.0,0.0,358.0,919.0,0.0,1,183.0,1
15,15,0.7883731682574274,0.8,1.0,1.0,484.0,564.0,1.0,1,322.0,1
16,16,-0.8229107092704022,-0.8,0.0,1.0,299.0,613.0,1.0,0,138.0,1
17,17,-0.7120192352259932,-0.7,0.0,1.0,348.0,747.0,1.0,0,215.0,1
18,18,0.2747521131624372,0.3,0.0,0.0,365.0,835.0,0.0,1,90.0,1
19,19,-0.037980540604548696,-0.0,0.0,1.0,397.0,861.0,0.0,1,852.0,0
20,20,-0.11926506737494758,-0.1,1.0,0.0,255.0,559.0,0.0,0,536.0,1
21,21,-0.6211957449082939,-0.6,0.0,1.0,280.0,608.0,1.0,0,372.0,1
22,22,0.7215916433670334,0.7,1.0,1.0,460.0,956.0,1.0,1,114.0,1
23,23,0.004249454160998867,0.0,1.0,1.0,281.0,822.0,1.0,1,567.0,1
24,24,-0.5656957928634767,-0.6,0.0,1.0,473.0,869.0,1.0,0,348.0,1
25,25,0.21927848069768985,0.2,1.0,1.0,437.0,733.0,1.0,1,420.0,1
26,26,0.8779167088255283,0.9,0.0,0.0,263.0,888.0,0.0,1,179.0,1
27,27,-0.48209944233266255,-0.5,1.0,0.0,438.0,867.0,0.0,0,175.0,1
28,28,0.13352781032889982,0.1,1.0,1.0,367.0,983.0,1.0,1,650.0,1
29,29,-0.400418959039666,-0.4,1.0,0.0,376.0,533.0,0.0,0,361.0,1
30,30,-0.6759827790788743,-0.7,0.0,1.0,354.0,974.0,1.0,0,262.0,1
31,31,-0.5866164936310978,-0.6,1.0,0.0,450.0,933.0,0.0,0,147.0,1
32,32,0.0832478967724769,0.1,0.0,0.0,415.0,910.0,0.0,1,275.0,1
33,33,0.7048400954984356,0.7,1.0,1.0,436.0,764.0,1.0,1,200.0,1
34,34,0.29602175166282796,0.3,0.0,0.0,272.0,896.0,0.0,1,482.0,1
35,35,-0.6198782604296567,-0.6,0.0,1.0,368.0,763.0,1.0,0,409.0,1
36,36,-0.6340611507550489,-0.6,0.0,1.0,452.0,827.0,1.0,0,161.0,1
37,37,-0.4154161176011059,-0.4,1.0,0.0,362.0,798.0,0.0,0,240.0,1
38,38,0.7052311844009754,0.7,0.0,0.0,408.0,960.0,0.0,1,112.0,1
39,39,0.5603714100659948,0.6,1.0,1.0,384.0,959.0,1.0,1,267.0,1
40,40,0.8202703587631933,0.8,1.0,1.0,254.0,992.0,1.0,1,314.0,1
41,41,0.7681578246525184,0.8,1.0,1.0,256.0,689.0,1.0,1,185.0,1
42,42,-0.8961473021340749,-0.9,1.0,0.0,283.0,646.0,0.0,0,191.0,1
43,43,0.44524929411847813,0.4,0.0,0.0,251.0,518.0,0.0,1,581.0,1
44,44,0.547469189783021,0.5,0.0,0.0,265.0,681.0,0.0,1,204.0,1
45,45,-0.24898224342101016,-0.2,0.0,1.0,323.0,911.0,1.0,0,996.0,1
46,46,-0.32164582447599777,-0.3,1.0,0.0,252.0,825.0,0.0,0,93.0,1
47,47,-0.13522265034847525,-0.1,0.0,1.0,293.0,584.0,0.0,1,1013.0,0
48,48,-0.4795288946159683,-0.5,1.0,0.0,435.0,837.0,0.0,0,188.0,1
49,49,0.6558524915465264,0.7,0.0,0.0,263.0,931.0,0.0,1,26.0,1
50,50,0.19328876098336856,0.2,0.0,0.0,469.0,512.0,0.0,1,839.0,1
51,51,-0.3052677472553942,-0.3,0.0,1.0,419.0,711.0,1.0,0,370.0,1
52,52,0.5924436216538521,0.6,1.0,1.0,499.0,617.0,1.0,1,424.0,1
53,53,-0.6871518061103186,-0.7,0.0,1.0,409.0,680.0,1.0,0,231.0,1
54,54,0.02979249715920418,0.0,0.0,0.0,484.0,976.0,0.0,1,380.0,1
55,55,0.0008419089935872703,0.0,1.0,1.0,256.0,610.0,0.0,0,1204.0,0
56,56,0.3519219890729427,0.4,1.0,1.0,270.0,829.0,1.0,1,321.0,1
57,57,-0.20885601101004103,-0.2,0.0,1.0,364.0,904.0,1.0,0,212.0,1
58,58,-0.36961546413538726,-0.4,0.0,1.0,284.0,652.0,1.0,0,314.0,1
59,59,-0.3991634013549932,-0.4,1.0,0.0,279.0,518.0,0.0,0,393.0,1
60,60,0.42556382461362763,0.4,1.0,1.0,259.0,829.0,1.0,1,972.0,1
61,61,-0.7515147976807527,-0.8,0.0,1.0,436.0,804.0,1.0,0,120.0,1
62,62,-0.3722405929976461,-0.4,1.0,0.0,301.0,656.0,0.0,0,423.0,1
63,63,0.2214677259919703,0.2,0.0,0.0,253.0,776.0,0.0,1,231.0,1
64,64,0.678166686373976,0.7,1.0,1.0,282.0,518.0,1.0,1,300.0,1
65,65,0.8576598873043099,0.9,1.0,1.0,393.0,813.0,1.0,1,134.0,1
66,66,-0.20574826219974984,-0.2,1.0,0.0,352.0,682.0,0.0,0,546.0,1
67,67,-0.3931368895078462,-0.4,0.0,1.0,331.0,515.0,1.0,0,414.0,1
68,68,-0.6354698245480574,-0.6,1.0,0.0,397.0,874.0,0.0,0,129.0,1
69,69,-0.02356177915977553,-0.0,0.0,1.0,318.0,671.0,0.0,1,691.0,0
70,70,-0.31048337730272735,-0.3,0.0,1.0,388.0,647.0,1.0,0,255.0,1
71,71,-0.22115340400553085,-0.2,1.0,0.0,447.0,904.0,0.0,0,269.0,1
72,72,0.6478528674697758,0.6,1.0,1.0,426.0,614.0,1.0,1,330.0,1
73,73,0.111192352647692,0.1,0.0,0.0,332.0,560.0,0.0,1,418.0,1
74,74,-0.2955162369159452,-0.3,0.0,1.0,496.0,680.0,1.0,0,684.0,1
75,75,0.27475740257616976,0.3,0.0,0.0,315.0,855.0,0.0,1,20.0,1
76,76,0.04335953165875028,0.0,1.0,1.0,462.0,806.0,0.0,0,1712.0,0
77,77,-0.18919542891251873,-0.2,1.0,0.0,314.0,583.0,0.0,0,463.0,1
78,78,-0.40873721866893403,-0.4,1.0,0.0,252.0,946.0,0.0,0,322.0,1
79,79,0.14776228957083892,0.1,1.0,1.0,255.0,907.0,1.0,1,248.0,1
80,80,-0.34684763576903355,-0.3,1.0,0.0,418.0,740.0,0.0,0,302.0,1
81,81,-0.29533342656168216,-0.3,0.0,1.0,250.0,668.0,1.0,0,632.0,1
82,82,0.26982796374247353,0.3,0.0,0.0,385.0,523.0,0.0,1,712.0,1
83,83,0.8306947817743834,0.8,1.0,1.0,324.0,586.0,1.0,1,230.0,1
84,84,-0.8974177460750612,-0.9,0.0,1.0,354.0,661.0,1.0,0,175.0,1
85,85,-0.6185061058226222,-0.6,0.0,1.0,269.0,532.0,1.0,0,419.0,1
86,86,-0.15044644243264726,-0.2,0.0,1.0,388.0,810.0,0.0,1,52.0,0
87,87,0.30736491417042877,0.3,1.0,1.0,401.0,625.0,1.0,1,404.0,1
88,88,0.6317188926439218,0.6,0.0,0.0,414.0,967.0,0.0,1,249.0,1
89,89,-0.4020602926812643,-0.4,0.0,1.0,464.0,837.0,1.0,0,89.0,1
90,90,0.10718273114052834,0.1,1.0,1.0,384.0,848.0,1.0,1,2078.0,1
91,91,0.5572714753880844,0.6,0.0,0.0,367.0,619.0,0.0,1,244.0,1
92,92,0.1826862754785593,0.2,0.0,0.0,484.0,964.0,0.0,1,192.0,1
93,93,-0.6640236870993912,-0.7,0.0,1.0,452.0,512.0,1.0,0,196.0,1
94,94,-0.05364700052188143,-0.1,1.0,0.0,497.0,549.0,0.0,0,774.0,1
95,95,0.3278594594364429,0.3,1.0,1.0,298.0,938.0,1.0,1,244.0,1
96,96,0.13997665559623884,0.1,1.0,1.0,307.0,687.0,1.0,1,366.0,1
97,97,0.22715672162248113,0.2,1.0,1.0,461.0,900.0,1.0,1,329.0,1
98,98,0.8122903695811569,0.8,0.0,0.0,259.0,685.0,0.0,1,196.0,1
99,99,-0.8695860670317044,-0.9,1.0,0.0,254.0,955.0,0.0,0,301.0,1
100,100,-0.5212104801509753,-0.5,1.0,0.0,309.0,727.0,0.0,0,274.0,1
101,101,-0.7845750493262573,-0.8,1.0,0.0,277.0,546.0,0.0,0,427.0,1
102,102,0.8469158388849972,0.8,0.0,0.0,427.0,876.0,0.0,1,137.0,1
103,103,-0.24267723824318432,-0.2,0.0,1.0,342.0,947.0,0.0,1,311.0,0
104,104,-0.6684227964966134,-0.7,0.0,1.0,344.0,862.0,1.0,0,144.0,1
105,105,-0.6197589534680679,-0.6,0.0,1.0,457.0,782.0,0.0,1,-39.0,0
106,106,0.18244053067439514,0.2,1.0,1.0,273.0,982.0,1.0,1,215.0,1
107,107,0.06526476526660474,0.1,0.0,0.0,491.0,690.0,0.0,1,809.0,1
108,108,-0.03901475693273071,-0.0,1.0,0.0,342.0,956.0,0.0,0,752.0,1
109,109,-0.5099571539632088,-0.5,1.0,0.0,285.0,901.0,0.0,0,114.0,1
110,110,0.5362582826189287,0.5,0.0,0.0,261.0,659.0,0.0,1,430.0,1
111,111,-0.0800378703444723,-0.1,1.0,0.0,493.0,805.0,0.0,0,992.0,1
112,112,-0.6693129209750146,-0.7,0.0,1.0,404.0,854.0,1.0,0,122.0,1
113,113,-0.30520593338032664,-0.3,1.0,0.0,422.0,850.0,0.0,0,398.0,1
114,114,0.8984954717308137,0.9,1.0,1.0,431.0,690.0,1.0,1,189.0,1
115,115,0.6586989260328665,0.7,1.0,1.0,349.0,613.0,1.0,1,258.0,1
116,116,-0.8270515231442819,-0.8,1.0,0.0,385.0,768.0,0.0,0,37.0,1
117,117,0.33087615983355334,0.3,1.0,1.0,425.0,735.0,1.0,1,260.0,1
118,118,0.09866526303513279,0.1,1.0,1.0,335.0,802.0,0.0,0,1013.0,0
119,119,-0.2293769412311807,-0.2,0.0,1.0,265.0,969.0,1.0,0,256.0,1
120,120,0.5987466535843154,0.6,0.0,0.0,316.0,957.0,0.0,1,67.0,1
121,121,0.7440221173043623,0.7,0.0,0.0,286.0,817.0,0.0,1,157.0,1
122,122,0.5695060581509604,0.6,1.0,1.0,449.0,806.0,1.0,1,155.0,1
123,123,0.6645997301518737,0.7,0.0,0.0,398.0,647.0,0.0,1,215.0,1
124,124,0.06515293011588452,0.1,1.0,1.0,486.0,690.0,0.0,0,1044.0,0
125,125,-0.6970347300151818,-0.7,0.0,1.0,466.0,831.0,1.0,0,223.0,1
126,126,-0.3163778036292705,-0.3,0.0,1.0,488.0,640.0,1.0,0,502.0,1
127,127,0.840341451023653,0.8,1.0,1.0,309.0,899.0,1.0,1,152.0,1
128,128,-0.8992246713630343,-0.9,1.0,0.0,406.0,902.0,0.0,0,212.0,1
129,129,0.13265934449397643,0.1,0.0,0.0,356.0,988.0,0.0,1,276.0,1
130,130,0.42644226910480876,0.4,0.0,0.0,299.0,889.0,0.0,1,392.0,1
131,131,0.7046718846494006,0.7,1.0,1.0,497.0,700.0,1.0,1,313.0,1
132,132,-0.8037378997311063,-0.8,1.0,0.0,470.0,541.0,0.0,0,349.0,1
133,133,-0.7837032820835199,-0.8,1.0,0.0,364.0,855.0,0.0,0,151.0,1
134,134,-0.004064861061600311,-0.0,1.0,0.0,472.0,560.0,1.0,1,938.0,0
135,135,-0.6496514412857977,-0.6,0.0,1.0,495.0,740.0,1.0,0,145.0,1
136,136,0.3760690817468427,0.4,0.0,0.0,331.0,582.0,0.0,1,297.0,1
137,137,0.14678144073391952,0.1,0.0,0.0,455.0,719.0,0.0,1,566.0,1
138,138,0.09008993056363601,0.1,0.0,0.0,253.0,870.0,0.0,1,377.0,1
139,139,0.4745845507448846,0.5,1.0,1.0,342.0,905.0,1.0,1,523.0,1
140,140,0.6008048300422412,0.6,1.0,1.0,440.0,790.0,1.0,1,280.0,1
141,141,0.38138134294902903,0.4,1.0,1.0,418.0,734.0,1.0,1,568.0,1
142,142,0.8392247767008326,0.8,1.0,1.0,284.0,630.0,1.0,1,166.0,1
143,143,-0.6571505120682138,-0.7,0.0,1.0,490.0,852.0,1.0,0,178.0,1
144,144,0.11745307866459875,0.1,0.0,0.0,382.0,538.0,0.0,1,720.0,1
145,145,-0.5540831070141146,-0.6,0.0,1.0,360.0,611.0,1.0,0,289.0,1
146,146,0.752880695592323,0.8,1.0,1.0,309.0,633.0,1.0,1,418.0,1
147,147,-0.3652900705079397,-0.4,0.0,1.0,358.0,863.0,1.0,0,59.0,1
148,148,0.8632464741780211,0.9,0.0,0.0,404.0,510.0,0.0,1,376.0,1
149,149,0.057954216089523,0.1,0.0,0.0,317.0,649.0,0.0,1,404.0,1
150,150,0.2295162236427729,0.2,0.0,0.0,370.0,833.0,0.0,1,557.0,1
151,151,0.10633476866091451,0.1,0.0,0.0,445.0,858.0,0.0,1,447.0,1
152,152,0.4404873185839725,0.4,0.0,0.0,414.0,824.0,0.0,1,302.0,1
153,153,-0.4720191722631407,-0.5,0.0,1.0,388.0,565.0,1.0,0,517.0,1
154,154,0.30266705276640915,0.3,1.0,1.0,271.0,996.0,1.0,1,63.0,1
155,155,-0.8814684807449655,-0.9,1.0,0.0,336.0,714.0,0.0,0,410.0,1
156,156,0.005222588870098521,0.0,1.0,1.0,408.0,735.0,0.0,0,337.0,0
157,157,-0.2836161414961377,-0.3,0.0,1.0,334.0,521.0,1.0,0,675.0,1
158,158,-0.48292628935842113,-0.5,1.0,0.0,272.0,907.0,0.0,0,211.0,1
159,159,0.8502608074022234,0.9,0.0,0.0,330.0,700.0,0.0,1,120.0,1
160,160,0.6581347034969939,0.7,0.0,0.0,413.0,997.0,0.0,1,110.0,1
161,161,-0.2592436996980224,-0.3,0.0,1.0,404.0,566.0,1.0,0,690.0,1
162,162,-0.798382888855884,-0.8,0.0,1.0,341.0,519.0,1.0,0,290.0,1
163,163,0.41217538630741213,0.4,0.0,0.0,261.0,946.0,0.0,1,423.0,1
164,164,0.5510828043639436,0.6,0.0,0.0,403.0,759.0,0.0,1,168.0,1
165,165,-0.6853414956119604,-0.7,1.0,0.0,414.0,922.0,0.0,0,154.0,1
166,166,0.7380043148076888,0.7,1.0,1.0,488.0,810.0,1.0,1,332.0,1
167,167,0.7656210917400937,0.8,1.0,1.0,381.0,919.0,1.0,1,330.0,1
168,168,-0.14529177407318172,-0.1,1.0,0.0,257.0,711.0,0.0,0,282.0,1
169,169,-0.6601517451943685,-0.7,0.0,1.0,320.0,655.0,1.0,0,365.0,1
170,170,-0.35788764883581936,-0.4,1.0,0.0,459.0,841.0,0.0,0,170.0,1
171,171,-0.25409020511397895,-0.3,0.0,1.0,382.0,651.0,1.0,0,647.0,1
172,172,0.008615337383474198,0.0,0.0,0.0,387.0,938.0,0.0,1,1125.0,1
173,173,0.858936289232512,0.9,1.0,1.0,445.0,610.0,1.0,1,235.0,1
174,174,-0.0912218754303985,-0.1,0.0,1.0,332.0,809.0,0.0,1,629.0,0
175,175,0.49110671284136476,0.5,0.0,0.0,287.0,849.0,0.0,1,374.0,1
176,176,-0.30521816775653277,-0.3,0.0,1.0,413.0,764.0,1.0,0,373.0,1
177,177,0.5145281707924453,0.5,1.0,1.0,265.0,878.0,1.0,1,327.0,1
178,178,0.4338182752222136,0.4,1.0,1.0,280.0,867.0,1.0,1,323.0,1
179,179,0.3424633184094993,0.3,1.0,1.0,287.0,713.0,1.0,1,850.0,1
180,180,0.5214248105941014,0.5,0.0,0.0,337.0,616.0,0.0,1,207.0,1
181,181,-0.8016644616064141,-0.8,1.0,0.0,492.0,860.0,0.0,0,78.0,1
182,182,-0.24155297678723586,-0.2,0.0,1.0,287.0,544.0,1.0,0,789.0,1
183,183,-0.038475918689392596,-0.0,1.0,0.0,492.0,985.0,0.0,0,293.0,1
184,184,0.21824494143397077,0.2,1.0,1.0,369.0,716.0,1.0,1,795.0,1
185,185,-0.15073318110024425,-0.2,1.0,0.0,329.0,842.0,0.0,0,429.0,1
186,186,0.28677762744727253,0.3,0.0,0.0,402.0,793.0,0.0,1,525.0,1
187,187,0.3302422399796704,0.3,1.0,1.0,411.0,732.0,1.0,1,737.0,1
188,188,0.7209788793426105,0.7,1.0,1.0,255.0,787.0,1.0,1,288.0,1
189,189,-0.6715760809408714,-0.7,0.0,1.0,468.0,800.0,0.0,1,-108.0,0
190,190,-0.13038439870009777,-0.1,0.0,1.0,351.0,869.0,1.0,0,1740.0,1
191,191,0.47875577326299024,0.5,0.0,0.0,369.0,642.0,0.0,1,309.0,1
192,192,0.33958156422064756,0.3,1.0,1.0,486.0,774.0,1.0,1,320.0,1
193,193,-0.8348532994634104,-0.8,0.0,1.0,295.0,592.0,1.0,0,343.0,1
194,194,-0.46103339971973206,-0.5,0.0,1.0,491.0,893.0,1.0,0,476.0,1
195,195,0.1597108900571097,0.2,1.0,1.0,354.0,953.0,0.0,0,-167.0,0
196,196,0.020046877087219306,0.0,0.0,0.0,331.0,754.0,0.0,1,305.0,1
197,197,-0.47475594650402425,-0.5,0.0,1.0,256.0,808.0,1.0,0,416.0,1
198,198,0.5960589368206118,0.6,1.0,1.0,347.0,912.0,1.0,1,151.0,1
199,199,-0.723657087212347,-0.7,1.0,0.0,457.0,634.0,0.0,0,429.0,1
200,200,-0.35034216231433635,-0.4,0.0,1.0,393.0,814.0,1.0,0,443.0,1
201,201,0.6206658963767847,0.6,0.0,0.0,344.0,605.0,0.0,1,261.0,1
202,202,0.010513465937856847,0.0,0.0,0.0,291.0,840.0,0.0,1,1369.0,1
203,203,-0.00013698940976636376,-0.0,0.0,1.0,281.0,684.0,0.0,1,745.0,0
204,204,0.14194263909982607,0.1,1.0,1.0,348.0,915.0,1.0,1,567.0,1
205,205,-0.7335959257638646,-0.7,0.0,1.0,364.0,653.0,1.0,0,163.0,1
206,206,0.7462910136355286,0.7,1.0,1.0,267.0,892.0,1.0,1,161.0,1
207,207,0.6036893244953833,0.6,1.0,1.0,378.0,836.0,1.0,1,436.0,1
208,208,0.32011600739103485,0.3,0.0,0.0,353.0,825.0,0.0,1,292.0,1
209,209,-0.48615329343851854,-0.5,1.0,0.0,327.0,781.0,0.0,0,332.0,1
210,210,0.18065659601716033,0.2,1.0,1.0,292.0,532.0,1.0,1,736.0,1
211,211,0.06247176515885611,0.1,0.0,0.0,444.0,806.0,0.0,1,360.0,1
212,212,-0.8456443379585222,-0.8,1.0,0.0,473.0,503.0,0.0,0,334.0,1
213,213,0.11277790658110931,0.1,0.0,0.0,451.0,504.0,0.0,1,575.0,1
214,214,0.34715652209526204,0.3,1.0,1.0,453.0,899.0,1.0,1,358.0,1
215,215,0.20537664587534665,0.2,1.0,1.0,469.0,528.0,1.0,1,1013.0,1
216,216,0.551301105036898,0.6,0.0,0.0,450.0,593.0,0.0,1,287.0,1
217,217,-0.27276697909475245,-0.3,0.0,1.0,495.0,961.0,1.0,0,234.0,1
218,218,-0.4539646939927059,-0.5,1.0,0.0,343.0,978.0,0.0,0,129.0,1
219,219,0.025606839391861258,0.0,0.0,0.0,403.0,623.0,0.0,1,654.0,1
220,220,-0.5422226943702102,-0.5,1.0,0.0,459.0,661.0,0.0,0,430.0,1
221,221,0.2729904166288383,0.3,1.0,1.0,421.0,887.0,1.0,1,442.0,1
222,222,0.41079592142691024,0.4,1.0,1.0,412.0,841.0,1.0,1,277.0,1
223,223,-0.052160807632809614,-0.1,0.0,1.0,480.0,759.0,0.0,1,1111.0,0
224,224,0.23973568676205625,0.2,0.0,0.0,313.0,980.0,0.0,1,187.0,1
225,225,0.4620103457094832,0.5,0.0,0.0,390.0,673.0,0.0,1,197.0,1
226,226,0.06366290847020661,0.1,1.0,1.0,378.0,590.0,0.0,0,922.0,0
227,227,0.4208576888965644,0.4,1.0,1.0,299.0,822.0,1.0,1,159.0,1
228,228,-0.8352142224402592,-0.8,0.0,1.0,254.0,683.0,1.0,0,373.0,1
229,229,0.4991100929706146,0.5,0.0,0.0,343.0,590.0,0.0,1,247.0,1
230,230,-0.35760707398759084,-0.4,0.0,1.0,382.0,757.0,1.0,0,271.0,1
231,231,-0.14060168891740055,-0.1,0.0,1.0,439.0,624.0,1.0,0,1307.0,1
232,232,-0.621267850294895,-0.6,0.0,1.0,374.0,779.0,1.0,0,187.0,1
233,233,-0.48236289229838936,-0.5,0.0,1.0,385.0,632.0,1.0,0,503.0,1
234,234,-0.45954683944167035,-0.5,1.0,0.0,351.0,772.0,0.0,0,237.0,1
235,235,0.11858621117507384,0.1,1.0,1.0,353.0,766.0,1.0,1,491.0,1
236,236,0.5351200452836157,0.5,0.0,0.0,390.0,764.0,0.0,1,236.0,1
237,237,0.3072973836866576,0.3,0.0,0.0,420.0,982.0,0.0,1,98.0,1
238,238,-0.775148723328463,-0.8,0.0,1.0,368.0,707.0,1.0,0,165.0,1
239,239,-0.8684453092182481,-0.9,1.0,0.0,295.0,725.0,0.0,0,230.0,1
240,240,0.5127592682050411,0.5,0.0,0.0,379.0,992.0,0.0,1,229.0,1
241,241,-0.7884233822993421,-0.8,1.0,0.0,284.0,656.0,0.0,0,160.0,1
242,242,0.2852677653279231,0.3,1.0,1.0,499.0,648.0,1.0,1,333.0,1
243,243,-0.7637597924488659,-0.8,0.0,1.0,317.0,909.0,1.0,0,164.0,1
244,244,-0.36416625132945923,-0.4,0.0,1.0,308.0,572.0,1.0,0,850.0,1
245,245,-0.5179105084184286,-0.5,1.0,0.0,392.0,788.0,0.0,0,290.0,1
246,246,-0.7446434063593372,-0.7,1.0,0.0,305.0,671.0,0.0,0,304.0,1
247,247,0.6524763546302806,0.7,1.0,1.0,330.0,843.0,1.0,1,237.0,1
248,248,-0.37375503178092395,-0.4,0.0,1.0,324.0,825.0,1.0,0,141.0,1
249,249,-0.6825833038338815,-0.7,0.0,1.0,313.0,626.0,1.0,0,191.0,1
250,250,0.1951265712288509,0.2,1.0,1.0,357.0,540.0,1.0,1,603.0,1
251,251,-0.4542622743032053,-0.5,1.0,0.0,425.0,995.0,0.0,0,410.0,1
252,252,-0.8765693509549053,-0.9,0.0,1.0,435.0,668.0,1.0,0,317.0,1
253,253,-0.5215310967733668,-0.5,0.0,1.0,493.0,680.0,1.0,0,177.0,1
254,254,0.7753974247144536,0.8,0.0,0.0,406.0,797.0,0.0,1,277.0,1
255,255,-0.858568506909105,-0.9,0.0,1.0,359.0,936.0,1.0,0,665.0,1
256,256,-0.10528562521994889,-0.1,0.0,1.0,309.0,607.0,1.0,0,574.0,1
257,257,0.8380712690534339,0.8,1.0,1.0,425.0,519.0,1.0,1,2546.0,1
258,258,0.8647446843490437,0.9,1.0,1.0,413.0,682.0,1.0,1,245.0,1
259,259,0.8573262996644074,0.9,1.0,1.0,488.0,765.0,1.0,1,247.0,1
260,260,-0.5367341564363971,-0.5,1.0,0.0,479.0,567.0,0.0,0,304.0,1
261,261,-0.20630327229706913,-0.2,0.0,1.0,460.0,696.0,1.0,0,934.0,1
262,262,-0.8883694434322853,-0.9,1.0,0.0,317.0,606.0,0.0,0,187.0,1
263,263,0.14877736688994225,0.1,0.0,0.0,483.0,728.0,0.0,1,489.0,1
264,264,0.21811367150771332,0.2,0.0,0.0,329.0,749.0,0.0,1,162.0,1
265,265,-0.641533064157343,-0.6,1.0,0.0,452.0,814.0,0.0,0,204.0,1
266,266,0.36236755866492987,0.4,0.0,0.0,369.0,998.0,0.0,1,93.0,1
267,267,-0.3090802178537829,-0.3,0.0,1.0,327.0,575.0,1.0,0,578.0,1
268,268,0.4858606025323867,0.5,0.0,0.0,411.0,563.0,0.0,1,436.0,1
269,269,0.08198600701392678,0.1,0.0,0.0,267.0,751.0,0.0,1,492.0,1
270,270,-0.082017687068346,-0.1,0.0,1.0,258.0,639.0,0.0,1,533.0,0
271,271,0.3205703198320399,0.3,0.0,0.0,380.0,545.0,0.0,1,735.0,1
272,272,0.13619975942937346,0.1,0.0,0.0,369.0,893.0,0.0,1,418.0,1
273,273,0.233657466640124,0.2,0.0,0.0,347.0,892.0,0.0,1,191.0,1
274,274,-0.38028483951956593,-0.4,0.0,1.0,443.0,577.0,1.0,0,530.0,1
275,275,-0.10719447777455493,-0.1,1.0,0.0,380.0,762.0,0.0,0,748.0,1
276,276,0.036691998829153305,0.0,0.0,0.0,493.0,955.0,0.0,1,212.0,1
277,277,-0.8636971984989237,-0.9,1.0,0.0,283.0,504.0,0.0,0,193.0,1
278,278,0.4390456661480274,0.4,0.0,0.0,366.0,988.0,0.0,1,166.0,1
279,279,-0.7927181255655362,-0.8,0.0,1.0,327.0,599.0,1.0,0,214.0,1
280,280,-0.8351102149352821,-0.8,1.0,0.0,307.0,641.0,0.0,0,372.0,1
281,281,0.4322683845581129,0.4,0.0,0.0,317.0,518.0,0.0,1,285.0,1
282,282,-0.6186983394842129,-0.6,1.0,0.0,439.0,735.0,0.0,0,326.0,1
283,283,-0.7138981931172073,-0.7,1.0,0.0,382.0,752.0,0.0,0,106.0,1
284,284,-0.6269872267299215,-0.6,0.0,1.0,440.0,687.0,1.0,0,733.0,1
285,285,0.14986202110724778,0.1,0.0,0.0,282.0,794.0,0.0,1,354.0,1
286,286,-0.6965490971257128,-0.7,0.0,1.0,400.0,762.0,1.0,0,148.0,1
287,287,0.8286299219250352,0.8,1.0,1.0,429.0,645.0,1.0,1,156.0,1
288,288,-0.4100046944709507,-0.4,1.0,0.0,485.0,593.0,0.0,0,212.0,1
289,289,0.5225371486722147,0.5,1.0,1.0,261.0,663.0,1.0,1,506.0,1
290,290,-0.8469776595947875,-0.8,1.0,0.0,303.0,668.0,0.0,0,199.0,1
291,291,0.231242980155565,0.2,1.0,1.0,367.0,729.0,1.0,1,514.0,1
292,292,-0.8865107083558476,-0.9,1.0,0.0,405.0,728.0,0.0,0,377.0,1
293,293,0.6718078958199182,0.7,0.0,0.0,418.0,692.0,0.0,1,480.0,1
294,294,-0.27893628279585836,-0.3,1.0,0.0,289.0,559.0,0.0,0,402.0,1
295,295,0.75663894114668,0.8,0.0,0.0,453.0,542.0,0.0,1,315.0,1
296,296,0.1312978431931896,0.1,1.0,1.0,494.0,809.0,1.0,1,1477.0,1
297,297,0.8327454513211346,0.8,1.0,1.0,349.0,710.0,1.0,1,501.0,1
298,298,-0.7953568416309289,-0.8,0.0,1.0,498.0,688.0,1.0,0,214.0,1
299,299,0.19003363176959154,0.2,0.0,0.0,263.0,659.0,0.0,1,178.0,1
300,300,-0.7058719094045155,-0.7,1.0,0.0,427.0,525.0,0.0,0,548.0,1
301,301,-0.49158457492040436,-0.5,1.0,0.0,345.0,815.0,0.0,0,250.0,1
302,302,0.12236247369612163,0.1,1.0,1.0,284.0,922.0,1.0,1,224.0,1
303,303,0.12190562765523472,0.1,0.0,0.0,378.0,638.0,0.0,1,854.0,1
304,304,0.2604762173266243,0.3,1.0,1.0,260.0,549.0,1.0,1,721.0,1
305,305,-0.1234626380603886,-0.1,0.0,1.0,414.0,981.0,0.0,1,265.0,0
306,306,-0.1801335414495251,-0.2,1.0,0.0,272.0,535.0,0.0,0,693.0,1
307,307,-0.6487538311405165,-0.6,0.0,1.0,486.0,843.0,1.0,0,371.0,1
308,308,-0.08859781781268605,-0.1,0.0,1.0,469.0,592.0,0.0,1,1969.0,0
309,309,0.4663180772219825,0.5,0.0,0.0,321.0,778.0,0.0,1,541.0,1
310,310,0.0034413933924773987,0.0,0.0,0.0,495.0,986.0,0.0,1,809.0,1
311,311,-0.4992673141359255,-0.5,1.0,0.0,372.0,738.0,0.0,0,310.0,1
312,312,0.5339557948780881,0.5,1.0,1.0,402.0,812.0,1.0,1,736.0,1
313,313,0.7980826932613211,0.8,0.0,0.0,411.0,995.0,0.0,1,84.0,1
314,314,0.5481416197191381,0.5,0.0,0.0,279.0,881.0,0.0,1,70.0,1
315,315,-0.545329092682584,-0.5,0.0,1.0,419.0,855.0,1.0,0,176.0,1
316,316,-0.5547505257137395,-0.6,1.0,0.0,405.0,507.0,0.0,0,348.0,1
317,317,-0.4404263265079677,-0.4,1.0,0.0,362.0,714.0,0.0,0,154.0,1
318,318,0.6394187032506408,0.6,1.0,1.0,370.0,806.0,1.0,1,174.0,1
319,319,0.07056736882532333,0.1,1.0,1.0,493.0,653.0,0.0,0,944.0,0
320,320,-0.7668212078118037,-0.8,1.0,0.0,293.0,632.0,0.0,0,295.0,1
321,321,-0.1820451024508739,-0.2,0.0,1.0,300.0,821.0,0.0,1,1179.0,0
322,322,-0.5369663751029071,-0.5,1.0,0.0,313.0,578.0,0.0,0,199.0,1
323,323,0.5037445744842298,0.5,1.0,1.0,267.0,654.0,1.0,1,339.0,1
324,324,0.4503946025058555,0.5,0.0,0.0,374.0,789.0,0.0,1,207.0,1
325,325,-0.3846218444704431,-0.4,0.0,1.0,426.0,932.0,1.0,0,182.0,1
326,326,0.6537326558811446,0.7,1.0,1.0,317.0,954.0,1.0,1,109.0,1
327,327,-0.01247336254845266,-0.0,0.0,1.0,371.0,840.0,1.0,0,439.0,1
328,328,0.3222852558815862,0.3,0.0,0.0,440.0,611.0,0.0,1,439.0,1
329,329,0.7323989010095412,0.7,0.0,0.0,461.0,967.0,0.0,1,72.0,1
330,330,-0.6265774073374211,-0.6,1.0,0.0,260.0,561.0,0.0,0,329.0,1
331,331,0.36775840085819633,0.4,0.0,0.0,423.0,991.0,0.0,1,216.0,1
332,332,0.3706880662060089,0.4,1.0,1.0,458.0,998.0,1.0,1,324.0,1
333,333,-0.7148443250383025,-0.7,1.0,0.0,376.0,979.0,0.0,0,245.0,1
334,334,0.8621574629563292,0.9,0.0,0.0,422.0,906.0,0.0,1,122.0,1
335,335,-0.14627115707840965,-0.1,1.0,0.0,256.0,520.0,0.0,0,584.0,1
336,336,0.7878324118794869,0.8,1.0,1.0,348.0,779.0,1.0,1,433.0,1
337,337,-0.8957072932182212,-0.9,1.0,0.0,385.0,918.0,0.0,0,337.0,1
338,338,0.46383439144238514,0.5,0.0,0.0,320.0,841.0,0.0,1,259.0,1
339,339,0.8206799379851816,0.8,1.0,1.0,447.0,848.0,1.0,1,145.0,1
340,340,-0.3863784997316545,-0.4,0.0,1.0,405.0,658.0,1.0,0,777.0,1
341,341,-0.3774227145153126,-0.4,1.0,0.0,360.0,971.0,0.0,0,159.0,1
342,342,0.8706487663753836,0.9,0.0,0.0,365.0,618.0,0.0,1,257.0,1
343,343,0.5654686235192578,0.6,1.0,1.0,463.0,972.0,1.0,1,445.0,1
344,344,0.08872972628326825,0.1,0.0,0.0,395.0,805.0,0.0,1,530.0,1
345,345,-0.553286016459033,-0.6,1.0,0.0,442.0,899.0,0.0,0,109.0,1
346,346,-0.2970617870319081,-0.3,1.0,0.0,337.0,648.0,0.0,0,485.0,1
347,347,0.7911160452545055,0.8,0.0,0.0,447.0,507.0,0.0,1,266.0,1
348,348,0.4574635065068552,0.5,1.0,1.0,330.0,705.0,1.0,1,555.0,1
349,349,-0.5198345890626395,-0.5,0.0,1.0,460.0,563.0,1.0,0,427.0,1
350,350,-0.7816523922136668,-0.8,0.0,1.0,491.0,881.0,1.0,0,208.0,1
351,351,-0.6441478652150248,-0.6,0.0,1.0,477.0,799.0,1.0,0,174.0,1
352,352,-0.2954244681357068,-0.3,0.0,1.0,254.0,997.0,0.0,1,259.0,0
353,353,0.41560483312949204,0.4,1.0,1.0,457.0,828.0,1.0,1,395.0,1
354,354,0.1375156830473584,0.1,0.0,0.0,443.0,774.0,0.0,1,213.0,1
355,355,-0.19734355320079466,-0.2,0.0,1.0,371.0,624.0,1.0,0,1025.0,1
356,356,0.5720673544717464,0.6,1.0,1.0,479.0,502.0,1.0,1,419.0,1
357,357,0.1431061902485783,0.1,0.0,0.0,378.0,573.0,0.0,1,389.0,1
358,358,-0.5588972951685826,-0.6,1.0,0.0,453.0,638.0,0.0,0,459.0,1
359,359,0.17276660123686083,0.2,0.0,0.0,355.0,769.0,0.0,1,356.0,1
360,360,-0.42475355652175156,-0.4,1.0,0.0,407.0,855.0,0.0,0,218.0,1
361,361,0.33821332494890777,0.3,0.0,0.0,309.0,882.0,0.0,1,59.0,1
362,362,-0.34318628322184885,-0.3,1.0,0.0,335.0,697.0,0.0,0,608.0,1
363,363,-0.48676954015467827,-0.5,1.0,0.0,284.0,696.0,0.0,0,260.0,1
364,364,-0.5095338502172198,-0.5,0.0,1.0,439.0,944.0,1.0,0,217.0,1
365,365,-0.21374509754261817,-0.2,1.0,0.0,258.0,906.0,0.0,0,166.0,1
366,366,0.20345511508105274,0.2,1.0,1.0,414.0,686.0,1.0,1,3100.0,1
367,367,-0.4727229712241959,-0.5,0.0,1.0,353.0,898.0,1.0,0,459.0,1
368,368,0.7446517239995548,0.7,0.0,0.0,391.0,790.0,0.0,1,209.0,1
369,369,-0.5328499035270648,-0.5,0.0,1.0,466.0,832.0,1.0,0,362.0,1
370,370,-0.5283815015440454,-0.5,0.0,1.0,300.0,671.0,1.0,0,439.0,1
371,371,0.4325331219184504,0.4,1.0,1.0,353.0,846.0,1.0,1,281.0,1
372,372,0.4813760806662274,0.5,0.0,0.0,313.0,726.0,0.0,1,251.0,1
373,373,-0.19744260893240184,-0.2,0.0,1.0,374.0,947.0,1.0,0,779.0,1
374,374,0.8619218184593863,0.9,1.0,1.0,340.0,958.0,1.0,1,152.0,1
375,375,0.2838454087454646,0.3,1.0,1.0,334.0,871.0,1.0,1,205.0,1
376,376,-0.8109696542359974,-0.8,0.0,1.0,386.0,727.0,1.0,0,237.0,1
377,377,-0.12690574383539976,-0.1,1.0,0.0,433.0,701.0,0.0,0,826.0,1
378,378,0.5651244724510199,0.6,1.0,1.0,498.0,791.0,1.0,1,151.0,1
379,379,0.6656798720265175,0.7,0.0,0.0,335.0,832.0,0.0,1,173.0,1
380,380,-0.8491181635292814,-0.8,0.0,1.0,282.0,784.0,1.0,0,114.0,1
381,381,0.7960146689427016,0.8,0.0,0.0,259.0,697.0,0.0,1,274.0,1
382,382,-0.3538988956328202,-0.4,1.0,0.0,361.0,527.0,0.0,0,442.0,1
383,383,-0.472474964346758,-0.5,1.0,0.0,258.0,861.0,0.0,0,221.0,1
384,384,-0.5990154334536616,-0.6,0.0,1.0,321.0,728.0,1.0,0,161.0,1
385,385,-0.5544969928594999,-0.6,1.0,0.0,394.0,587.0,0.0,0,459.0,1
386,386,0.467551116423942,0.5,1.0,1.0,344.0,788.0,1.0,1,278.0,1
387,387,-0.32451506234447947,-0.3,1.0,0.0,408.0,569.0,0.0,0,333.0,1
388,388,0.4277173649430629,0.4,1.0,1.0,374.0,942.0,1.0,1,164.0,1
389,389,-0.8077844308555471,-0.8,1.0,0.0,499.0,710.0,0.0,0,231.0,1
390,390,-0.5305887080097322,-0.5,1.0,0.0,260.0,604.0,0.0,0,366.0,1
391,391,-0.8500736298542568,-0.9,1.0,0.0,274.0,546.0,0.0,0,330.0,1
392,392,-0.7929139198494215,-0.8,0.0,1.0,295.0,643.0,1.0,0,112.0,1
393,393,0.6457011180198188,0.6,1.0,1.0,359.0,876.0,1.0,1,285.0,1
394,394,0.45881800776279713,0.5,0.0,0.0,403.0,625.0,0.0,1,422.0,1
395,395,-0.3294702293423768,-0.3,1.0,0.0,457.0,757.0,0.0,0,406.0,1
396,396,0.7638703084903701,0.8,1.0,1.0,306.0,743.0,1.0,1,271.0,1
397,397,-0.793240942964683,-0.8,1.0,0.0,469.0,995.0,0.0,0,26.0,1
398,398,0.14022600124401519,0.1,1.0,1.0,261.0,542.0,1.0,1,687.0,1
399,399,-0.6911022774723075,-0.7,1.0,0.0,433.0,829.0,0.0,0,158.0,1
400,400,-0.8293320553492974,-0.8,1.0,0.0,375.0,912.0,0.0,0,113.0,1
401,401,-0.16831347069347158,-0.2,0.0,1.0,321.0,845.0,1.0,0,1114.0,1
402,402,0.347712586714375,0.3,1.0,1.0,342.0,755.0,1.0,1,363.0,1
403,403,-0.40242150174784813,-0.4,1.0,0.0,333.0,939.0,0.0,0,298.0,1
404,404,0.08207324110256198,0.1,0.0,0.0,252.0,642.0,0.0,1,426.0,1
405,405,0.8527121889847237,0.9,0.0,0.0,330.0,834.0,0.0,1,76.0,1
406,406,0.311411809751147,0.3,0.0,0.0,436.0,651.0,0.0,1,403.0,1
407,407,-0.08466802051295363,-0.1,1.0,0.0,318.0,981.0,0.0,0,921.0,1
408,408,0.5170216617196984,0.5,1.0,1.0,406.0,840.0,1.0,1,154.0,1
409,409,0.5042355743533767,0.5,1.0,1.0,439.0,500.0,1.0,1,481.0,1
410,410,0.010394971576187406,0.0,0.0,0.0,281.0,548.0,0.0,1,1111.0,1
411,411,0.20370061738741618,0.2,1.0,1.0,455.0,867.0,1.0,1,408.0,1
412,412,-0.5171784550900707,-0.5,1.0,0.0,324.0,812.0,0.0,0,164.0,1
413,413,0.626706339041451,0.6,0.0,0.0,258.0,922.0,0.0,1,60.0,1
414,414,0.888418875715343,0.9,1.0,1.0,400.0,955.0,1.0,1,205.0,1
415,415,-0.8612399715434738,-0.9,0.0,1.0,453.0,919.0,1.0,0,68.0,1
416,416,0.08195014350943763,0.1,0.0,0.0,341.0,701.0,0.0,1,758.0,1
417,417,0.5660376029736099,0.6,0.0,0.0,293.0,900.0,0.0,1,177.0,1
418,418,0.06383900434316236,0.1,0.0,0.0,385.0,951.0,0.0,1,434.0,1
419,419,-0.4084234095701654,-0.4,0.0,1.0,423.0,581.0,1.0,0,686.0,1
420,420,-0.11506251136888346,-0.1,0.0,1.0,340.0,884.0,1.0,0,1446.0,1
421,421,0.41410085659737905,0.4,0.0,0.0,299.0,568.0,0.0,1,403.0,1
422,422,0.6101258635281493,0.6,1.0,1.0,460.0,980.0,1.0,1,260.0,1
423,423,0.030990130917721848,0.0,1.0,1.0,490.0,584.0,0.0,0,1716.0,0
424,424,-0.012079960588265881,-0.0,1.0,0.0,387.0,849.0,0.0,0,204.0,1
425,425,-0.013942813936420717,-0.0,1.0,0.0,449.0,724.0,0.0,0,1017.0,1
426,426,-0.07367593732341415,-0.1,1.0,0.0,337.0,908.0,0.0,0,5.0,1
427,427,-0.7604653498875461,-0.8,0.0,1.0,298.0,773.0,1.0,0,189.0,1
428,428,-0.4202506962591289,-0.4,1.0,0.0,441.0,533.0,0.0,0,406.0,1
429,429,0.7125416252319449,0.7,1.0,1.0,409.0,858.0,1.0,1,173.0,1
430,430,0.7130916538057032,0.7,1.0,1.0,278.0,628.0,1.0,1,244.0,1
431,431,0.3079031070225734,0.3,0.0,0.0,257.0,698.0,0.0,1,305.0,1
432,432,-0.13699169826589253,-0.1,0.0,1.0,450.0,699.0,1.0,0,1061.0,1
433,433,-0.8095174884649954,-0.8,0.0,1.0,269.0,902.0,1.0,0,219.0,1
434,434,-0.6531687550497318,-0.7,1.0,0.0,351.0,721.0,0.0,0,208.0,1
435,435,-0.17262169370659852,-0.2,0.0,1.0,268.0,652.0,1.0,0,440.0,1
436,436,-0.6382368940299632,-0.6,0.0,1.0,328.0,577.0,1.0,0,385.0,1
437,437,0.3788699813060973,0.4,1.0,1.0,327.0,665.0,1.0,1,268.0,1
438,438,-0.803411920238463,-0.8,1.0,0.0,303.0,503.0,0.0,0,234.0,1
439,439,0.7568958942216873,0.8,0.0,0.0,445.0,975.0,0.0,1,90.0,1
440,440,-0.054066386910224584,-0.1,1.0,0.0,413.0,574.0,0.0,0,803.0,1
441,441,-0.5309317659819957,-0.5,1.0,0.0,432.0,631.0,0.0,0,317.0,1
442,442,-0.5207184618691706,-0.5,0.0,1.0,326.0,511.0,1.0,0,553.0,1
443,443,-0.4627249548936022,-0.5,1.0,0.0,273.0,915.0,0.0,0,212.0,1
444,444,-0.08014677978556561,-0.1,0.0,1.0,488.0,959.0,0.0,1,163.0,0
445,445,0.23716626757464898,0.2,1.0,1.0,410.0,960.0,1.0,1,480.0,1
446,446,-0.7117381814602851,-0.7,0.0,1.0,307.0,931.0,1.0,0,182.0,1
447,447,-0.13889903301589412,-0.1,1.0,0.0,413.0,637.0,0.0,0,1160.0,1
448,448,-0.6208916432407436,-0.6,0.0,1.0,347.0,842.0,1.0,0,111.0,1
449,449,0.8762845045056479,0.9,1.0,1.0,322.0,912.0,1.0,1,86.0,1
450,450,0.22516451388420344,0.2,1.0,1.0,268.0,897.0,1.0,1,245.0,1
451,451,0.7686271777739707,0.8,1.0,1.0,402.0,812.0,1.0,1,176.0,1
452,452,0.18608941899792264,0.2,0.0,0.0,408.0,800.0,0.0,1,292.0,1
453,453,-0.1674962503222719,-0.2,0.0,1.0,481.0,545.0,1.0,0,614.0,1
454,454,0.625840432690601,0.6,1.0,1.0,321.0,809.0,1.0,1,260.0,1
455,455,0.4151859040582869,0.4,0.0,0.0,322.0,613.0,0.0,1,455.0,1
456,456,-0.031102601736476942,-0.0,0.0,1.0,409.0,694.0,0.0,1,577.0,0
457,457,0.6921447765231782,0.7,0.0,0.0,399.0,897.0,0.0,1,-46.0,1
458,458,-0.016914446633254476,-0.0,1.0,0.0,323.0,611.0,0.0,0,576.0,1
459,459,-0.6949293766308094,-0.7,1.0,0.0,327.0,747.0,0.0,0,286.0,1
460,460,0.8040212404629202,0.8,0.0,0.0,445.0,848.0,0.0,1,147.0,1
461,461,-0.16682812489379895,-0.2,0.0,1.0,495.0,584.0,1.0,0,591.0,1
462,462,0.25875218548091994,0.3,1.0,1.0,393.0,896.0,1.0,1,601.0,1
463,463,0.8478847553120653,0.8,1.0,1.0,342.0,615.0,1.0,1,313.0,1
464,464,0.4020401646104942,0.4,0.0,0.0,269.0,657.0,0.0,1,264.0,1
465,465,0.21208107244452,0.2,0.0,0.0,452.0,914.0,0.0,1,234.0,1
466,466,0.394815852866108,0.4,1.0,1.0,428.0,701.0,1.0,1,371.0,1
467,467,-0.1602974914274229,-0.2,1.0,0.0,487.0,960.0,0.0,0,283.0,1
468,468,-0.2198809885887123,-0.2,0.0,1.0,298.0,500.0,1.0,0,732.0,1
469,469,0.5840654801888737,0.6,1.0,1.0,331.0,642.0,1.0,1,307.0,1
470,470,0.2029172696407987,0.2,0.0,0.0,301.0,815.0,0.0,1,244.0,1
471,471,0.8686316817054133,0.9,0.0,0.0,401.0,614.0,0.0,1,345.0,1
472,472,0.35955365087313307,0.4,1.0,1.0,345.0,548.0,1.0,1,707.0,1
473,473,0.7843625943770073,0.8,1.0,1.0,373.0,707.0,1.0,1,160.0,1
474,474,0.7660924585197691,0.8,0.0,0.0,295.0,835.0,0.0,1,180.0,1
475,475,0.11454999889914419,0.1,0.0,0.0,318.0,840.0,0.0,1,252.0,1
476,476,0.1433563080504131,0.1,0.0,0.0,469.0,828.0,0.0,1,483.0,1
477,477,-0.6892927731805161,-0.7,0.0,1.0,405.0,597.0,1.0,0,438.0,1
478,478,-0.7795319429460085,-0.8,0.0,1.0,252.0,680.0,1.0,0,608.0,1
479,479,0.77440659864198,0.8,1.0,1.0,342.0,602.0,1.0,1,326.0,1
480,480,-0.8076738697191813,-0.8,1.0,0.0,417.0,738.0,0.0,0,295.0,1
481,481,-0.5765141840695189,-0.6,1.0,0.0,366.0,846.0,0.0,0,248.0,1
482,482,0.38479612934267216,0.4,0.0,0.0,277.0,949.0,0.0,1,294.0,1
483,483,0.08747857392773473,0.1,1.0,1.0,353.0,570.0,0.0,0,887.0,0
484,484,-0.01579854978723849,-0.0,0.0,1.0,447.0,874.0,0.0,1,459.0,0
485,485,0.38145075964498687,0.4,1.0,1.0,494.0,656.0,1.0,1,620.0,1
486,486,0.35504564054198895,0.4,1.0,1.0,327.0,785.0,1.0,1,208.0,1
487,487,-0.8090151872958941,-0.8,0.0,1.0,408.0,643.0,1.0,0,409.0,1
488,488,0.7460250194235282,0.7,0.0,0.0,319.0,820.0,0.0,1,191.0,1
489,489,-0.8089880650029737,-0.8,0.0,1.0,372.0,591.0,1.0,0,257.0,1
490,490,-0.549055320658665,-0.5,1.0,0.0,413.0,682.0,0.0,0,335.0,1
491,491,0.5465573617272567,0.5,1.0,1.0,450.0,702.0,1.0,1,448.0,1
492,492,-0.13844963777715624,-0.1,0.0,1.0,278.0,568.0,1.0,0,1024.0,1
493,493,-0.7398471541794945,-0.7,1.0,0.0,288.0,869.0,0.0,0,253.0,1
494,494,-0.7636811493385594,-0.8,1.0,0.0,441.0,559.0,0.0,0,210.0,1
495,495,-0.027344503371037554,-0.0,1.0,0.0,454.0,931.0,0.0,0,1225.0,1
496,496,0.646403541012227,0.6,1.0,1.0,267.0,680.0,1.0,1,283.0,1
497,497,0.18083471654951377,0.2,0.0,0.0,381.0,575.0,0.0,1,794.0,1
498,498,-0.3045542548182125,-0.3,1.0,0.0,299.0,579.0,0.0,0,562.0,1
499,499,0.07163768016087835,0.1,1.0,1.0,492.0,582.0,0.0,0,846.0,0
500,500,0.05653505755392285,0.1,1.0,1.0,411.0,606.0,1.0,1,2473.0,1
501,501,0.6213602846924656,0.6,0.0,0.0,444.0,524.0,0.0,1,632.0,1
502,502,0.44630641621415956,0.4,1.0,1.0,400.0,914.0,1.0,1,316.0,1
503,503,-0.5763845134385575,-0.6,1.0,0.0,319.0,564.0,0.0,0,527.0,1
504,504,0.34346311396964835,0.3,0.0,0.0,323.0,884.0,0.0,1,-167.0,1
505,505,-0.888607259852997,-0.9,0.0,1.0,396.0,968.0,1.0,0,236.0,1
506,506,-0.2017711875353485,-0.2,1.0,0.0,306.0,566.0,0.0,0,848.0,1
507,507,0.5528833965332521,0.6,1.0,1.0,265.0,561.0,1.0,1,534.0,1
508,508,-0.8037771212952828,-0.8,1.0,0.0,477.0,686.0,0.0,0,277.0,1
509,509,0.7492662587821938,0.7,1.0,1.0,437.0,586.0,1.0,1,427.0,1
510,510,0.6037043281008506,0.6,1.0,1.0,335.0,720.0,1.0,1,415.0,1
511,511,-0.7518885240259388,-0.8,1.0,0.0,316.0,918.0,0.0,0,186.0,1
512,512,-0.5156502551561026,-0.5,1.0,0.0,355.0,585.0,0.0,0,380.0,1
513,513,-0.3844309378983073,-0.4,0.0,1.0,326.0,938.0,1.0,0,546.0,1
514,514,-0.3767517599399114,-0.4,0.0,1.0,350.0,693.0,1.0,0,457.0,1
515,515,-0.48974411487518893,-0.5,1.0,0.0,324.0,941.0,0.0,0,205.0,1
516,516,0.7114703095715572,0.7,1.0,1.0,462.0,884.0,1.0,1,314.0,1
517,517,0.6894536384490212,0.7,1.0,1.0,346.0,540.0,1.0,1,334.0,1
518,518,0.7714237155309099,0.8,1.0,1.0,317.0,865.0,1.0,1,188.0,1
519,519,0.11278480716381234,0.1,1.0,1.0,294.0,772.0,1.0,1,614.0,1
520,520,-0.17642711113719534,-0.2,0.0,1.0,446.0,630.0,1.0,0,604.0,1
521,521,-0.4819979169167197,-0.5,1.0,0.0,499.0,886.0,0.0,0,135.0,1
522,522,-0.2353163948958914,-0.2,1.0,0.0,328.0,863.0,0.0,0,369.0,1
523,523,0.32177655692342044,0.3,0.0,0.0,279.0,564.0,0.0,1,317.0,1
524,524,-0.5578500421336048,-0.6,0.0,1.0,324.0,772.0,1.0,0,484.0,1
525,525,0.3192286620721857,0.3,0.0,0.0,413.0,767.0,0.0,1,90.0,1
526,526,0.8127718325375987,0.8,0.0,0.0,292.0,814.0,0.0,1,214.0,1
527,527,-0.6690851496678324,-0.7,0.0,1.0,434.0,812.0,1.0,0,264.0,1
528,528,-0.3481310734265891,-0.3,1.0,0.0,262.0,846.0,0.0,0,282.0,1
529,529,0.16426607875149812,0.2,0.0,0.0,285.0,517.0,0.0,1,298.0,1
530,530,0.2346381688812199,0.2,1.0,1.0,328.0,591.0,1.0,1,751.0,1
531,531,-0.46354220418023234,-0.5,1.0,0.0,254.0,807.0,0.0,0,229.0,1
532,532,-0.6431708362016197,-0.6,1.0,0.0,284.0,606.0,0.0,0,310.0,1
533,533,-0.5226724824579133,-0.5,1.0,0.0,373.0,960.0,1.0,1,-133.0,0
534,534,0.6889170887199204,0.7,0.0,0.0,369.0,563.0,0.0,1,348.0,1
535,535,0.06733173754566801,0.1,0.0,0.0,485.0,855.0,0.0,1,420.0,1
536,536,-0.42278755292915926,-0.4,1.0,0.0,261.0,766.0,0.0,0,103.0,1
537,537,-0.4846883959399479,-0.5,1.0,0.0,268.0,867.0,0.0,0,235.0,1
538,538,-0.6533781905350939,-0.7,0.0,1.0,491.0,754.0,1.0,0,175.0,1
539,539,0.3085620999465949,0.3,1.0,1.0,369.0,675.0,1.0,1,336.0,1
540,540,0.29700292476736656,0.3,0.0,0.0,262.0,651.0,0.0,1,517.0,1
541,541,0.7313863965707809,0.7,1.0,1.0,392.0,530.0,1.0,1,328.0,1
542,542,0.05390795483288058,0.1,0.0,0.0,372.0,670.0,0.0,1,568.0,1
543,543,-0.483408167966702,-0.5,0.0,1.0,329.0,572.0,1.0,0,269.0,1
544,544,0.8826247862598883,0.9,1.0,1.0,459.0,914.0,1.0,1,187.0,1
545,545,-0.10277803294843069,-0.1,1.0,0.0,442.0,985.0,0.0,0,453.0,1
546,546,-0.734359775569624,-0.7,0.0,1.0,299.0,558.0,1.0,0,383.0,1
547,547,0.83904840342297,0.8,1.0,1.0,360.0,517.0,1.0,1,493.0,1
548,548,-0.3829597754005706,-0.4,1.0,0.0,272.0,693.0,0.0,0,555.0,1
549,549,-0.19956864734269653,-0.2,0.0,1.0,397.0,627.0,1.0,0,1036.0,1
550,550,-0.4398496404668256,-0.4,1.0,0.0,433.0,822.0,0.0,0,195.0,1
551,551,0.6999925636360694,0.7,1.0,1.0,407.0,693.0,1.0,1,330.0,1
552,552,0.735495032012721,0.7,0.0,0.0,463.0,655.0,0.0,1,112.0,1
553,553,-0.1558043953227357,-0.2,1.0,0.0,424.0,775.0,0.0,0,331.0,1
554,554,0.7146269982571206,0.7,1.0,1.0,354.0,731.0,1.0,1,205.0,1
555,555,-0.8498933688609699,-0.8,0.0,1.0,476.0,766.0,1.0,0,258.0,1
556,556,-0.5782248565263397,-0.6,1.0,0.0,470.0,984.0,0.0,0,196.0,1
557,557,0.39718116708685736,0.4,1.0,1.0,310.0,947.0,1.0,1,133.0,1
558,558,-0.6921136446908154,-0.7,1.0,0.0,271.0,514.0,0.0,0,465.0,1
559,559,-0.036048453173307626,-0.0,0.0,1.0,300.0,651.0,0.0,1,409.0,0
560,560,0.1439959503760767,0.1,0.0,0.0,289.0,838.0,0.0,1,183.0,1
561,561,-0.5707948705346662,-0.6,0.0,1.0,365.0,584.0,1.0,0,431.0,1
562,562,-0.2899156507898406,-0.3,0.0,1.0,431.0,930.0,1.0,0,519.0,1
563,563,-0.3041512270565301,-0.3,1.0,0.0,499.0,590.0,0.0,0,161.0,1
564,564,-0.34903542370408003,-0.3,0.0,1.0,387.0,744.0,1.0,0,169.0,1
565,565,-0.745626780790199,-0.7,1.0,0.0,374.0,725.0,0.0,0,141.0,1
566,566,-0.8913538750601936,-0.9,1.0,0.0,256.0,605.0,0.0,0,229.0,1
567,567,-0.40740850816009194,-0.4,1.0,0.0,451.0,744.0,0.0,0,215.0,1
568,568,-0.2263238845463632,-0.2,1.0,0.0,453.0,710.0,0.0,0,177.0,1
569,569,-0.4259717193440358,-0.4,1.0,0.0,306.0,690.0,0.0,0,354.0,1
570,570,0.063078824574335,0.1,0.0,0.0,450.0,663.0,0.0,1,797.0,1
571,571,0.5670104008996041,0.6,1.0,1.0,429.0,861.0,1.0,1,210.0,1
572,572,0.24971225646512207,0.2,1.0,1.0,448.0,783.0,1.0,1,1319.0,1
573,573,-0.24741970632814314,-0.2,0.0,1.0,399.0,708.0,1.0,0,603.0,1
574,574,-0.051485370343351544,-0.1,0.0,1.0,251.0,850.0,0.0,1,2659.0,0
575,575,-0.3956754592774465,-0.4,0.0,1.0,436.0,922.0,1.0,0,152.0,1
576,576,0.14998666322628262,0.1,1.0,1.0,435.0,975.0,1.0,1,340.0,1
577,577,0.6853349386001985,0.7,1.0,1.0,479.0,936.0,1.0,1,65.0,1
578,578,-0.7547265640813694,-0.8,0.0,1.0,404.0,767.0,1.0,0,169.0,1
579,579,0.8959727498984021,0.9,1.0,1.0,428.0,889.0,1.0,1,53.0,1
580,580,-0.3476477090387179,-0.3,0.0,1.0,486.0,967.0,1.0,0,317.0,1
581,581,0.20990794905606547,0.2,1.0,1.0,386.0,615.0,1.0,1,1009.0,1
582,582,-0.036348669117849286,-0.0,0.0,1.0,478.0,938.0,0.0,1,274.0,0
583,583,-0.8502728224086472,-0.9,1.0,0.0,491.0,952.0,0.0,0,127.0,1
584,584,0.13923144065528514,0.1,1.0,1.0,433.0,508.0,1.0,1,549.0,1
585,585,-0.24534207696457533,-0.2,0.0,1.0,260.0,859.0,1.0,0,221.0,1
586,586,-0.22746407216185383,-0.2,0.0,1.0,286.0,600.0,1.0,0,694.0,1
587,587,0.42659374387946547,0.4,1.0,1.0,278.0,864.0,1.0,1,228.0,1
588,588,-0.5467888035198822,-0.5,1.0,0.0,499.0,799.0,0.0,0,292.0,1
589,589,-0.40695457187792977,-0.4,0.0,1.0,498.0,529.0,1.0,0,1013.0,1
590,590,-0.31807642137337966,-0.3,0.0,1.0,346.0,532.0,1.0,0,472.0,1
591,591,-0.8517435245976703,-0.9,0.0,1.0,480.0,746.0,1.0,0,164.0,1
592,592,-0.598651515696065,-0.6,0.0,1.0,472.0,539.0,1.0,0,589.0,1
593,593,0.4955429650536173,0.5,0.0,0.0,445.0,979.0,0.0,1,266.0,1
594,594,-0.3519986383164774,-0.4,0.0,1.0,392.0,569.0,1.0,0,319.0,1
595,595,-0.05421969210515687,-0.1,0.0,1.0,428.0,825.0,0.0,1,67.0,0
596,596,-0.4437951482254249,-0.4,0.0,1.0,436.0,629.0,1.0,0,295.0,1
597,597,0.10424284358509006,0.1,1.0,1.0,307.0,905.0,1.0,1,358.0,1
598,598,-0.33969133634970106,-0.3,1.0,0.0,473.0,676.0,0.0,0,611.0,1
599,599,-0.15322038005374328,-0.2,0.0,1.0,441.0,700.0,1.0,0,219.0,1
600,600,0.26596442451405056,0.3,0.0,0.0,257.0,811.0,0.0,1,212.0,1
601,601,-0.6367072662461145,-0.6,0.0,1.0,345.0,948.0,1.0,0,337.0,1
602,602,0.8510077860553565,0.9,0.0,0.0,443.0,622.0,0.0,1,315.0,1
603,603,-0.599742765734554,-0.6,1.0,0.0,342.0,697.0,0.0,0,331.0,1
604,604,-0.8827677911216956,-0.9,1.0,0.0,414.0,734.0,0.0,0,62.0,1
605,605,0.056320335202220795,0.1,1.0,1.0,434.0,812.0,0.0,0,274.0,0
606,606,0.8234821620305445,0.8,1.0,1.0,344.0,788.0,1.0,1,168.0,1
607,607,-0.1305572054915144,-0.1,1.0,0.0,284.0,837.0,0.0,0,479.0,1
608,608,0.0036671997016758384,0.0,1.0,1.0,266.0,980.0,0.0,0,1274.0,0
609,609,0.2916818413932839,0.3,1.0,1.0,341.0,672.0,1.0,1,1157.0,1
610,610,-0.29059054556318265,-0.3,0.0,1.0,314.0,947.0,1.0,0,259.0,1
611,611,-0.018292381436082805,-0.0,1.0,0.0,396.0,609.0,1.0,1,615.0,0
612,612,-0.5633155017009248,-0.6,0.0,1.0,297.0,771.0,1.0,0,262.0,1
613,613,-0.14829678280835046,-0.1,0.0,1.0,421.0,586.0,1.0,0,783.0,1
614,614,0.4809910883786218,0.5,0.0,0.0,314.0,941.0,0.0,1,355.0,1
615,615,-0.14127222202955603,-0.1,0.0,1.0,257.0,814.0,1.0,0,1989.0,1
616,616,-0.5391609240599329,-0.5,0.0,1.0,341.0,849.0,1.0,0,60.0,1
617,617,-0.6898749477376453,-0.7,1.0,0.0,269.0,613.0,0.0,0,148.0,1
618,618,-0.741977816003351,-0.7,0.0,1.0,268.0,578.0,1.0,0,444.0,1
619,619,-0.6204061854082621,-0.6,1.0,0.0,325.0,814.0,0.0,0,241.0,1
620,620,-0.27448878705133517,-0.3,0.0,1.0,280.0,619.0,1.0,0,351.0,1
621,621,-0.278991631662198,-0.3,0.0,1.0,391.0,751.0,1.0,0,938.0,1
622,622,0.5880472280046741,0.6,1.0,1.0,250.0,587.0,1.0,1,333.0,1
623,623,0.07331664576906194,0.1,1.0,1.0,418.0,892.0,1.0,1,450.0,1
624,624,0.8247513028272305,0.8,1.0,1.0,395.0,767.0,1.0,1,108.0,1
625,625,-0.7122168380921948,-0.7,1.0,0.0,341.0,962.0,0.0,0,107.0,1
626,626,0.282085575032604,0.3,0.0,0.0,253.0,686.0,0.0,1,301.0,1
627,627,-0.37579596483090727,-0.4,1.0,0.0,317.0,797.0,0.0,0,356.0,1
628,628,-0.8833011503594792,-0.9,1.0,0.0,381.0,778.0,0.0,0,151.0,1
629,629,0.49720258694842945,0.5,0.0,0.0,374.0,660.0,0.0,1,276.0,1
630,630,-0.505429258242236,-0.5,0.0,1.0,443.0,808.0,1.0,0,319.0,1
631,631,0.6181480871300574,0.6,0.0,0.0,366.0,810.0,0.0,1,34.0,1
632,632,-0.2926087271521943,-0.3,0.0,1.0,479.0,990.0,0.0,1,-379.0,0
633,633,0.5055873704211086,0.5,0.0,0.0,470.0,902.0,0.0,1,268.0,1
634,634,-0.01055076172805458,-0.0,1.0,0.0,369.0,530.0,0.0,0,501.0,1
635,635,0.5199421562219358,0.5,0.0,0.0,371.0,553.0,0.0,1,286.0,1
636,636,0.014004305852337473,0.0,0.0,0.0,404.0,743.0,0.0,1,703.0,1
637,637,0.5007012483754999,0.5,1.0,1.0,457.0,677.0,1.0,1,396.0,1
638,638,-0.5143979183205942,-0.5,0.0,1.0,320.0,771.0,1.0,0,259.0,1
639,639,0.13398758568572944,0.1,0.0,0.0,308.0,991.0,0.0,1,281.0,1
640,640,0.6425128752437038,0.6,1.0,1.0,485.0,818.0,1.0,1,217.0,1
641,641,-0.19950194347171957,-0.2,0.0,1.0,315.0,710.0,1.0,0,1695.0,1
642,642,-0.45079673993267955,-0.5,0.0,1.0,437.0,871.0,1.0,0,502.0,1
643,643,-0.18284642929432193,-0.2,0.0,1.0,306.0,823.0,1.0,0,281.0,1
644,644,0.5729588698277205,0.6,0.0,0.0,338.0,807.0,0.0,1,175.0,1
645,645,-0.5073880472961614,-0.5,1.0,0.0,335.0,687.0,0.0,0,178.0,1
646,646,-0.5396549449008408,-0.5,1.0,0.0,467.0,594.0,0.0,0,289.0,1
647,647,0.20423165449016734,0.2,0.0,0.0,464.0,585.0,0.0,1,121.0,1
648,648,0.3903151808665376,0.4,0.0,0.0,439.0,745.0,0.0,1,146.0,1
649,649,-0.010009240940665687,-0.0,1.0,0.0,280.0,622.0,0.0,0,688.0,1
650,650,0.6670745908509138,0.7,0.0,0.0,467.0,721.0,0.0,1,222.0,1
651,651,0.08279654940428649,0.1,1.0,1.0,403.0,884.0,0.0,0,1493.0,0
652,652,-0.8720360599921941,-0.9,1.0,0.0,324.0,881.0,0.0,0,55.0,1
653,653,-0.23338080026904362,-0.2,0.0,1.0,287.0,856.0,1.0,0,87.0,1
654,654,-0.35201811853842524,-0.4,0.0,1.0,301.0,877.0,1.0,0,612.0,1
655,655,0.6381419607951505,0.6,0.0,0.0,485.0,797.0,0.0,1,268.0,1
656,656,0.1288736042415931,0.1,1.0,1.0,352.0,760.0,1.0,1,418.0,1
657,657,0.6406732564346326,0.6,1.0,1.0,348.0,672.0,1.0,1,160.0,1
658,658,-0.774897513798137,-0.8,0.0,1.0,269.0,594.0,1.0,0,277.0,1
659,659,0.5879205913903872,0.6,0.0,0.0,264.0,505.0,0.0,1,261.0,1
660,660,0.7576673001215551,0.8,1.0,1.0,333.0,891.0,1.0,1,236.0,1
661,661,-0.7470051079378538,-0.7,0.0,1.0,443.0,683.0,1.0,0,294.0,1
662,662,-0.5222530928728242,-0.5,1.0,0.0,321.0,786.0,0.0,0,203.0,1
663,663,-0.5297269802047118,-0.5,0.0,1.0,378.0,928.0,1.0,0,254.0,1
664,664,0.8300280509994326,0.8,0.0,0.0,290.0,702.0,0.0,1,258.0,1
665,665,-0.8451111686149024,-0.8,1.0,0.0,497.0,772.0,0.0,0,121.0,1
666,666,0.8314291428517989,0.8,1.0,1.0,267.0,540.0,1.0,1,363.0,1
667,667,-0.6054736291301284,-0.6,0.0,1.0,403.0,642.0,1.0,0,285.0,1
668,668,0.004740203188227876,0.0,0.0,0.0,361.0,757.0,0.0,1,372.0,1
669,669,0.4824348817247376,0.5,0.0,0.0,449.0,777.0,0.0,1,234.0,1
670,670,0.069187399828605,0.1,1.0,1.0,436.0,961.0,0.0,0,583.0,0
671,671,0.6368510431233302,0.6,1.0,1.0,304.0,892.0,1.0,1,134.0,1
672,672,0.7707950476579947,0.8,1.0,1.0,451.0,551.0,1.0,1,358.0,1
673,673,0.35800735205644185,0.4,0.0,0.0,340.0,706.0,0.0,1,374.0,1
674,674,-0.6778361433663418,-0.7,0.0,1.0,341.0,735.0,1.0,0,214.0,1
675,675,0.44271185525039514,0.4,0.0,0.0,491.0,774.0,0.0,1,265.0,1
676,676,0.07309832255714321,0.1,1.0,1.0,408.0,867.0,1.0,1,545.0,1
677,677,-0.4569936151991401,-0.5,1.0,0.0,270.0,994.0,0.0,0,116.0,1
678,678,-0.8108397610175798,-0.8,1.0,0.0,370.0,947.0,0.0,0,123.0,1
679,679,0.01107594170856896,0.0,0.0,0.0,277.0,951.0,0.0,1,92.0,1
680,680,-0.1985117792146509,-0.2,1.0,0.0,452.0,876.0,0.0,0,332.0,1
681,681,0.6420143889447995,0.6,0.0,0.0,486.0,726.0,0.0,1,308.0,1
682,682,0.570381861243577,0.6,1.0,1.0,375.0,518.0,1.0,1,247.0,1
683,683,0.03469162893398414,0.0,1.0,1.0,290.0,764.0,0.0,0,1106.0,0
684,684,-0.7988811024708321,-0.8,0.0,1.0,443.0,818.0,1.0,0,179.0,1
685,685,-0.20964155277391938,-0.2,1.0,0.0,482.0,751.0,0.0,0,567.0,1
686,686,-0.2951752761623381,-0.3,0.0,1.0,315.0,679.0,1.0,0,426.0,1
687,687,-0.5879662689173277,-0.6,0.0,1.0,400.0,628.0,1.0,0,122.0,1
688,688,0.3468532978929163,0.3,0.0,0.0,263.0,869.0,0.0,1,498.0,1
689,689,0.6915913176879881,0.7,0.0,0.0,393.0,566.0,0.0,1,281.0,1
690,690,-0.2427777531527423,-0.2,1.0,0.0,259.0,743.0,0.0,0,218.0,1
691,691,-0.09039805329859263,-0.1,1.0,0.0,387.0,804.0,0.0,0,549.0,1
692,692,0.5368803182375618,0.5,0.0,0.0,251.0,882.0,0.0,1,247.0,1
693,693,-0.2539344483490322,-0.3,1.0,0.0,404.0,965.0,0.0,0,521.0,1
694,694,0.8759350571128913,0.9,0.0,0.0,267.0,589.0,0.0,1,234.0,1
695,695,-0.01187515435138553,-0.0,0.0,1.0,456.0,664.0,0.0,1,1160.0,0
696,696,0.06548554733754941,0.1,0.0,0.0,331.0,996.0,0.0,1,723.0,1
697,697,0.7201383554393422,0.7,1.0,1.0,370.0,804.0,1.0,1,226.0,1
698,698,0.16722419932052113,0.2,0.0,0.0,310.0,979.0,0.0,1,111.0,1
699,699,0.2710442538113028,0.3,1.0,1.0,430.0,608.0,1.0,1,952.0,1
700,700,0.459471319387022,0.5,0.0,0.0,396.0,617.0,0.0,1,507.0,1
701,701,0.6278469387389719,0.6,0.0,0.0,408.0,619.0,0.0,1,323.0,1
702,702,0.5205142423029413,0.5,1.0,1.0,458.0,652.0,1.0,1,470.0,1
703,703,0.24525239639310337,0.2,0.0,0.0,397.0,831.0,0.0,1,92.0,1
704,704,-0.7178602137139919,-0.7,1.0,0.0,293.0,761.0,0.0,0,336.0,1
705,705,0.3048492254267293,0.3,0.0,0.0,466.0,919.0,0.0,1,125.0,1
706,706,-0.21928174744182694,-0.2,1.0,0.0,420.0,515.0,0.0,0,735.0,1
707,707,-0.2785015505640621,-0.3,0.0,1.0,381.0,689.0,1.0,0,1630.0,1
708,708,0.5535109425773849,0.6,1.0,1.0,322.0,546.0,1.0,1,432.0,1
709,709,-0.4581515369070587,-0.5,0.0,1.0,327.0,714.0,1.0,0,319.0,1
710,710,0.036817763993032604,0.0,1.0,1.0,311.0,808.0,1.0,1,611.0,1
711,711,0.3458068032943463,0.3,0.0,0.0,262.0,919.0,0.0,1,129.0,1
712,712,-0.1398805069885285,-0.1,1.0,0.0,442.0,515.0,0.0,0,773.0,1
713,713,-0.05729334129350494,-0.1,0.0,1.0,411.0,531.0,0.0,1,568.0,0
714,714,0.17938926572039693,0.2,1.0,1.0,413.0,678.0,1.0,1,619.0,1
715,715,0.28935743368978206,0.3,0.0,0.0,410.0,918.0,0.0,1,292.0,1
716,716,0.05222296523559544,0.1,1.0,1.0,305.0,945.0,0.0,0,840.0,0
717,717,0.8732464170048485,0.9,1.0,1.0,450.0,701.0,1.0,1,329.0,1
718,718,0.7880867670178971,0.8,1.0,1.0,437.0,919.0,1.0,1,164.0,1
719,719,-0.865316072529619,-0.9,0.0,1.0,250.0,603.0,1.0,0,237.0,1
720,720,0.6251861490777523,0.6,1.0,1.0,431.0,969.0,1.0,1,190.0,1
721,721,-0.587857011598541,-0.6,1.0,0.0,376.0,591.0,0.0,0,283.0,1
722,722,-0.16835322894306193,-0.2,1.0,0.0,311.0,652.0,0.0,0,467.0,1
723,723,-0.21276297071117745,-0.2,0.0,1.0,370.0,667.0,0.0,1,1063.0,0
724,724,-0.8813722334479265,-0.9,0.0,1.0,293.0,946.0,1.0,0,141.0,1
725,725,0.18394949430501273,0.2,1.0,1.0,306.0,851.0,1.0,1,623.0,1
726,726,-0.03414975394593922,-0.0,1.0,0.0,415.0,865.0,0.0,0,380.0,1
727,727,0.12853430011766254,0.1,0.0,0.0,315.0,592.0,0.0,1,713.0,1
728,728,0.1912490010613518,0.2,1.0,1.0,482.0,610.0,1.0,1,998.0,1
729,729,-0.551221248752839,-0.6,1.0,0.0,252.0,698.0,0.0,0,120.0,1
730,730,-0.49390482144444153,-0.5,1.0,0.0,400.0,853.0,0.0,0,327.0,1
731,731,-0.050759407971723625,-0.1,0.0,1.0,276.0,947.0,0.0,1,-13.0,0
732,732,-0.40871651262846803,-0.4,1.0,0.0,409.0,738.0,0.0,0,313.0,1
733,733,-0.7711016924877623,-0.8,1.0,0.0,491.0,500.0,0.0,0,379.0,1
734,734,0.7718600345280654,0.8,1.0,1.0,406.0,512.0,1.0,1,702.0,1
735,735,0.4916811851971,0.5,0.0,0.0,282.0,505.0,0.0,1,333.0,1
736,736,0.2027067725121775,0.2,1.0,1.0,286.0,919.0,1.0,1,495.0,1
737,737,-0.8244941894398954,-0.8,0.0,1.0,460.0,782.0,1.0,0,168.0,1
738,738,-0.4630234904098751,-0.5,1.0,0.0,386.0,593.0,0.0,0,321.0,1
739,739,0.8708226943529785,0.9,1.0,1.0,262.0,904.0,1.0,1,124.0,1
740,740,0.7934184485999728,0.8,1.0,1.0,287.0,875.0,1.0,1,158.0,1
741,741,-0.12640646786439236,-0.1,0.0,1.0,409.0,518.0,0.0,1,1443.0,0
742,742,-0.1054216526155124,-0.1,1.0,0.0,321.0,718.0,0.0,0,681.0,1
743,743,-0.8620030202109512,-0.9,1.0,0.0,378.0,517.0,0.0,0,245.0,1
744,744,-0.371128033058707,-0.4,0.0,1.0,339.0,827.0,0.0,1,-126.0,0
745,745,0.46395500408013357,0.5,0.0,0.0,318.0,722.0,0.0,1,330.0,1
746,746,0.793933623226338,0.8,1.0,1.0,363.0,513.0,1.0,1,434.0,1
747,747,0.23208265131421435,0.2,1.0,1.0,358.0,714.0,1.0,1,418.0,1
748,748,-0.07439506178302568,-0.1,0.0,1.0,445.0,609.0,1.0,0,376.0,1
749,749,0.005967888642680719,0.0,0.0,0.0,303.0,970.0,0.0,1,177.0,1
750,750,0.3506134181184227,0.4,1.0,1.0,474.0,514.0,1.0,1,652.0,1
751,751,-0.500041662871714,-0.5,0.0,1.0,421.0,895.0,1.0,0,174.0,1
752,752,0.7556064084595461,0.8,1.0,1.0,337.0,587.0,1.0,1,296.0,1
753,753,-0.40472732907063175,-0.4,1.0,0.0,396.0,884.0,0.0,0,300.0,1
754,754,0.4715929908762072,0.5,1.0,1.0,382.0,825.0,1.0,1,233.0,1
755,755,-0.38004285648330915,-0.4,1.0,0.0,470.0,666.0,0.0,0,574.0,1
756,756,-0.8915160324162751,-0.9,0.0,1.0,325.0,512.0,1.0,0,433.0,1
757,757,0.5572752455945383,0.6,1.0,1.0,374.0,843.0,1.0,1,143.0,1
758,758,-0.4049229761374933,-0.4,1.0,0.0,419.0,677.0,0.0,0,404.0,1
759,759,-0.2607842097643569,-0.3,1.0,0.0,337.0,609.0,0.0,0,464.0,1
760,760,0.28077168001118824,0.3,1.0,1.0,340.0,584.0,1.0,1,466.0,1
761,761,0.05595985395996261,0.1,1.0,1.0,273.0,569.0,1.0,1,678.0,1
762,762,0.20885862319844672,0.2,1.0,1.0,290.0,905.0,1.0,1,405.0,1
763,763,0.18136149213122754,0.2,0.0,0.0,323.0,598.0,0.0,1,239.0,1
764,764,-0.19487318802830522,-0.2,0.0,1.0,351.0,624.0,1.0,0,625.0,1
765,765,0.32980089070269913,0.3,0.0,0.0,275.0,915.0,0.0,1,190.0,1
766,766,0.06697427711206505,0.1,1.0,1.0,441.0,954.0,1.0,1,1285.0,1
767,767,0.6874772717889887,0.7,0.0,0.0,327.0,792.0,0.0,1,361.0,1
768,768,-0.08033824867424877,-0.1,0.0,1.0,283.0,602.0,1.0,0,555.0,1
769,769,0.8226593110391701,0.8,0.0,0.0,251.0,825.0,0.0,1,74.0,1
770,770,-0.13659176336074752,-0.1,0.0,1.0,341.0,816.0,1.0,0,933.0,1
771,771,0.3550364185667262,0.4,0.0,0.0,364.0,628.0,0.0,1,548.0,1
772,772,0.13161609153267928,0.1,1.0,1.0,477.0,599.0,1.0,1,1994.0,1
773,773,-0.6358544448743779,-0.6,0.0,1.0,328.0,663.0,1.0,0,189.0,1
774,774,0.10009164640295498,0.1,1.0,1.0,360.0,747.0,1.0,1,403.0,1
775,775,0.8543179533017012,0.9,0.0,0.0,297.0,612.0,0.0,1,191.0,1
776,776,0.2426681102675602,0.2,0.0,0.0,449.0,585.0,0.0,1,606.0,1
777,777,-0.03959313859218572,-0.0,0.0,1.0,327.0,920.0,0.0,1,573.0,0
778,778,0.885561021535911,0.9,1.0,1.0,414.0,829.0,1.0,1,167.0,1
779,779,-0.06141636672470385,-0.1,0.0,1.0,388.0,978.0,0.0,1,274.0,0
780,780,-0.24970135806601335,-0.2,1.0,0.0,448.0,731.0,0.0,0,351.0,1
781,781,-0.6304466156089841,-0.6,0.0,1.0,400.0,908.0,1.0,0,142.0,1
782,782,-0.8477341866686149,-0.8,1.0,0.0,496.0,584.0,0.0,0,400.0,1
783,783,-0.29405924332786104,-0.3,0.0,1.0,443.0,638.0,1.0,0,389.0,1
784,784,0.2623948577150311,0.3,1.0,1.0,426.0,600.0,1.0,1,424.0,1
785,785,-0.6531478879614987,-0.7,1.0,0.0,394.0,863.0,0.0,0,153.0,1
786,786,0.7028344876599358,0.7,1.0,1.0,345.0,754.0,1.0,1,331.0,1
787,787,-0.5263718812891955,-0.5,0.0,1.0,444.0,830.0,1.0,0,226.0,1
788,788,-0.8283971699122656,-0.8,1.0,0.0,389.0,912.0,0.0,0,149.0,1
789,789,0.2782885089451649,0.3,1.0,1.0,394.0,662.0,1.0,1,884.0,1
790,790,-0.2035072597033032,-0.2,0.0,1.0,268.0,844.0,1.0,0,1238.0,1
791,791,0.6348687742359763,0.6,0.0,0.0,303.0,831.0,0.0,1,216.0,1
792,792,0.018503315543908494,0.0,1.0,1.0,267.0,731.0,0.0,0,782.0,0
793,793,-0.6969242616288038,-0.7,1.0,0.0,253.0,835.0,0.0,0,132.0,1
794,794,-0.15846599134894668,-0.2,1.0,0.0,398.0,538.0,0.0,0,554.0,1
795,795,0.16540489975692452,0.2,1.0,1.0,310.0,764.0,1.0,1,596.0,1
796,796,0.8724830689523847,0.9,1.0,1.0,428.0,897.0,1.0,1,195.0,1
797,797,0.25984293949594595,0.3,0.0,0.0,464.0,984.0,0.0,1,132.0,1
798,798,0.3477806608375219,0.3,1.0,1.0,336.0,882.0,1.0,1,232.0,1
799,799,0.8234657110445335,0.8,1.0,1.0,324.0,854.0,1.0,1,202.0,1
800,800,0.6249458418058399,0.6,0.0,0.0,430.0,969.0,0.0,1,191.0,1
801,801,0.26463764092931197,0.3,1.0,1.0,430.0,515.0,1.0,1,535.0,1
802,802,-0.5873706774863593,-0.6,1.0,0.0,365.0,859.0,0.0,0,226.0,1
803,803,-0.6032682351147078,-0.6,0.0,1.0,395.0,995.0,1.0,0,150.0,1
804,804,-0.28552641536307377,-0.3,0.0,1.0,478.0,696.0,1.0,0,656.0,1
805,805,0.6202025278017719,0.6,0.0,0.0,289.0,611.0,0.0,1,170.0,1
806,806,0.47641714440482785,0.5,1.0,1.0,436.0,844.0,1.0,1,260.0,1
807,807,-0.8102227030822114,-0.8,0.0,1.0,476.0,780.0,1.0,0,204.0,1
808,808,0.14803763134589054,0.1,1.0,1.0,280.0,743.0,1.0,1,697.0,1
809,809,-0.13215942763354926,-0.1,0.0,1.0,497.0,576.0,1.0,0,1067.0,1
810,810,0.6808061749418065,0.7,1.0,1.0,387.0,843.0,1.0,1,230.0,1
811,811,-0.630472396555455,-0.6,1.0,0.0,358.0,899.0,0.0,0,103.0,1
812,812,-0.5971290675084203,-0.6,0.0,1.0,367.0,565.0,1.0,0,438.0,1
813,813,-0.5360887438844961,-0.5,1.0,0.0,333.0,855.0,0.0,0,262.0,1
814,814,0.4078200505406947,0.4,0.0,0.0,430.0,745.0,0.0,1,95.0,1
815,815,0.5195846779703871,0.5,1.0,1.0,282.0,981.0,1.0,1,227.0,1
816,816,0.6833998055992626,0.7,0.0,0.0,369.0,501.0,0.0,1,230.0,1
817,817,-0.6434862172684934,-0.6,0.0,1.0,293.0,880.0,1.0,0,147.0,1
818,818,-0.8050663271197782,-0.8,1.0,0.0,253.0,998.0,0.0,0,119.0,1
819,819,0.832077629955276,0.8,1.0,1.0,280.0,768.0,1.0,1,362.0,1
820,820,0.6749697719837214,0.7,1.0,1.0,403.0,979.0,1.0,1,228.0,1
821,821,0.052466588658281355,0.1,1.0,1.0,263.0,713.0,1.0,1,324.0,1
822,822,0.7864108916014171,0.8,0.0,0.0,308.0,848.0,0.0,1,184.0,1
823,823,-0.8903206924032695,-0.9,1.0,0.0,450.0,520.0,0.0,0,260.0,1
824,824,-0.4934606078827753,-0.5,0.0,1.0,471.0,959.0,1.0,0,270.0,1
825,825,0.8178228408988996,0.8,1.0,1.0,305.0,531.0,1.0,1,304.0,1
826,826,0.7594181554403371,0.8,0.0,0.0,438.0,606.0,0.0,1,246.0,1
827,827,0.3022270181167245,0.3,0.0,0.0,461.0,835.0,0.0,1,144.0,1
828,828,-0.3915112960815508,-0.4,1.0,0.0,439.0,937.0,0.0,0,264.0,1
829,829,-0.6705176240906006,-0.7,0.0,1.0,264.0,608.0,1.0,0,318.0,1
830,830,-0.2101601197270524,-0.2,1.0,0.0,334.0,707.0,0.0,0,649.0,1
831,831,-0.43193271505165165,-0.4,1.0,0.0,303.0,580.0,0.0,0,477.0,1
832,832,-0.24839422524127963,-0.2,1.0,0.0,334.0,761.0,0.0,0,425.0,1
833,833,-0.037669646292725956,-0.0,1.0,0.0,383.0,683.0,1.0,1,844.0,0
834,834,-0.11746020381311095,-0.1,1.0,0.0,431.0,938.0,0.0,0,201.0,1
835,835,-0.8336597016256982,-0.8,0.0,1.0,429.0,704.0,1.0,0,187.0,1
836,836,-0.14668616133428003,-0.1,0.0,1.0,468.0,771.0,0.0,1,361.0,0
837,837,-0.3751219535512378,-0.4,1.0,0.0,340.0,550.0,0.0,0,400.0,1
838,838,-0.84851262152992,-0.8,1.0,0.0,458.0,849.0,0.0,0,103.0,1
839,839,0.8274400110336683,0.8,0.0,0.0,289.0,684.0,0.0,1,117.0,1
840,840,-0.7109607210793508,-0.7,0.0,1.0,299.0,726.0,1.0,0,455.0,1
841,841,-0.052351655428426125,-0.1,0.0,1.0,455.0,633.0,1.0,0,972.0,1
842,842,-0.46561899557209036,-0.5,1.0,0.0,429.0,625.0,0.0,0,286.0,1
843,843,-0.0325091238071723,-0.0,0.0,1.0,421.0,842.0,0.0,1,217.0,0
844,844,0.22644938473898202,0.2,0.0,0.0,344.0,518.0,0.0,1,698.0,1
845,845,-0.27972040992722114,-0.3,1.0,0.0,326.0,850.0,0.0,0,94.0,1
846,846,0.2951702244954889,0.3,0.0,0.0,299.0,630.0,0.0,1,131.0,1
847,847,0.8828769969200018,0.9,0.0,0.0,387.0,609.0,0.0,1,204.0,1
848,848,0.43235201415903524,0.4,1.0,1.0,311.0,566.0,1.0,1,723.0,1
849,849,-0.3955011655097892,-0.4,1.0,0.0,331.0,591.0,0.0,0,378.0,1
850,850,0.0069088609146524815,0.0,0.0,0.0,490.0,524.0,0.0,1,1136.0,1
851,851,0.07054698244246171,0.1,1.0,1.0,373.0,807.0,1.0,1,1090.0,1
852,852,-0.583290797476381,-0.6,0.0,1.0,343.0,879.0,1.0,0,168.0,1
853,853,-0.3917535460795101,-0.4,0.0,1.0,353.0,978.0,1.0,0,319.0,1
854,854,0.5864166635255764,0.6,1.0,1.0,286.0,737.0,1.0,1,217.0,1
855,855,0.09774892695640491,0.1,0.0,0.0,372.0,841.0,0.0,1,267.0,1
856,856,0.29000015003818336,0.3,1.0,1.0,431.0,545.0,1.0,1,484.0,1
857,857,-0.040713845143515504,-0.0,0.0,1.0,318.0,821.0,0.0,1,221.0,0
858,858,-0.3978805918450329,-0.4,1.0,0.0,351.0,867.0,0.0,0,192.0,1
859,859,0.7240673808955619,0.7,0.0,0.0,268.0,586.0,0.0,1,226.0,1
860,860,0.8290903279496228,0.8,0.0,0.0,290.0,760.0,0.0,1,490.0,1
861,861,-0.26451001969751287,-0.3,1.0,0.0,447.0,647.0,0.0,0,196.0,1
862,862,-0.7829798152427263,-0.8,0.0,1.0,284.0,568.0,1.0,0,108.0,1
863,863,0.3640388279091279,0.4,0.0,0.0,389.0,871.0,0.0,1,110.0,1
864,864,0.163455267945941,0.2,0.0,0.0,433.0,775.0,0.0,1,302.0,1
865,865,0.29821395338236256,0.3,0.0,0.0,447.0,822.0,0.0,1,391.0,1
866,866,0.41012986999086165,0.4,1.0,1.0,290.0,913.0,1.0,1,57.0,1
867,867,0.7736863589085291,0.8,1.0,1.0,457.0,982.0,1.0,1,81.0,1
868,868,0.6087643656579514,0.6,0.0,0.0,286.0,588.0,0.0,1,476.0,1
869,869,0.16882348751343101,0.2,0.0,0.0,345.0,870.0,0.0,1,205.0,1
870,870,-0.06208912431134728,-0.1,1.0,0.0,413.0,523.0,0.0,0,894.0,1
871,871,0.4600834141742204,0.5,1.0,1.0,430.0,800.0,1.0,1,140.0,1
872,872,-0.49866752786824003,-0.5,1.0,0.0,327.0,729.0,0.0,0,264.0,1
873,873,-0.668425305150297,-0.7,1.0,0.0,268.0,626.0,0.0,0,416.0,1
874,874,0.2604416739763723,0.3,1.0,1.0,430.0,907.0,1.0,1,483.0,1
875,875,0.4723412315606864,0.5,0.0,0.0,498.0,918.0,0.0,1,264.0,1
876,876,-0.6778350210088828,-0.7,0.0,1.0,258.0,892.0,1.0,0,130.0,1
877,877,0.32597800467858173,0.3,0.0,0.0,466.0,786.0,0.0,1,288.0,1
878,878,0.8930387064108577,0.9,0.0,0.0,353.0,665.0,0.0,1,292.0,1
879,879,-0.33539925383440117,-0.3,1.0,0.0,392.0,543.0,0.0,0,275.0,1
880,880,0.6499478250355829,0.6,0.0,0.0,437.0,574.0,0.0,1,179.0,1
881,881,-0.39588394422762063,-0.4,1.0,0.0,431.0,841.0,0.0,0,328.0,1
882,882,-0.24029454432853548,-0.2,1.0,0.0,374.0,821.0,0.0,0,405.0,1
883,883,-0.25939788561264177,-0.3,1.0,0.0,340.0,711.0,0.0,0,309.0,1
884,884,-0.7420138580331321,-0.7,1.0,0.0,301.0,730.0,0.0,0,309.0,1
885,885,-0.18794300176714906,-0.2,1.0,0.0,468.0,672.0,0.0,0,740.0,1
886,886,-0.46156612946214143,-0.5,1.0,0.0,496.0,979.0,0.0,0,105.0,1
887,887,0.1729586003241227,0.2,1.0,1.0,350.0,705.0,1.0,1,215.0,1
888,888,0.4612648972628516,0.5,0.0,0.0,361.0,614.0,0.0,1,325.0,1
889,889,0.010621992193456276,0.0,0.0,0.0,358.0,928.0,0.0,1,624.0,1
890,890,-0.8453905527822074,-0.8,1.0,0.0,268.0,990.0,0.0,0,152.0,1
891,891,-0.5562573469373085,-0.6,0.0,1.0,329.0,604.0,1.0,0,357.0,1
892,892,0.5771515580040899,0.6,0.0,0.0,363.0,876.0,0.0,1,51.0,1
893,893,-0.8307435311752134,-0.8,0.0,1.0,297.0,539.0,1.0,0,424.0,1
894,894,0.874688772350182,0.9,1.0,1.0,308.0,795.0,1.0,1,327.0,1
895,895,0.615027113322698,0.6,1.0,1.0,499.0,577.0,1.0,1,404.0,1
896,896,0.35584859268867375,0.4,0.0,0.0,439.0,553.0,0.0,1,498.0,1
897,897,0.021736638733850566,0.0,0.0,0.0,404.0,643.0,0.0,1,643.0,1
898,898,0.7768622387655869,0.8,1.0,1.0,293.0,555.0,1.0,1,432.0,1
899,899,0.4085228725547353,0.4,1.0,1.0,267.0,876.0,1.0,1,207.0,1
900,900,0.05799102500225528,0.1,0.0,0.0,329.0,982.0,1.0,0,389.0,0
901,901,-0.2773906572842182,-0.3,1.0,0.0,288.0,931.0,0.0,0,361.0,1
902,902,-0.19579453158998017,-0.2,0.0,1.0,435.0,815.0,1.0,0,720.0,1
903,903,0.10210671367843205,0.1,0.0,0.0,448.0,622.0,0.0,1,960.0,1
904,904,0.7845497402933058,0.8,1.0,1.0,271.0,986.0,1.0,1,163.0,1
905,905,0.05691394428656571,0.1,0.0,0.0,421.0,576.0,0.0,1,663.0,1
906,906,-0.5037003678162253,-0.5,1.0,0.0,347.0,780.0,0.0,0,393.0,1
907,907,-0.14532766487412063,-0.1,1.0,0.0,320.0,621.0,0.0,0,319.0,1
908,908,-0.8409406608492377,-0.8,0.0,1.0,391.0,575.0,1.0,0,244.0,1
909,909,0.14158372745174674,0.1,0.0,0.0,333.0,657.0,0.0,1,390.0,1
910,910,0.5983276870469801,0.6,1.0,1.0,272.0,663.0,1.0,1,325.0,1
911,911,-0.5439646815993009,-0.5,1.0,0.0,475.0,943.0,0.0,0,112.0,1
912,912,-0.5875822317707924,-0.6,1.0,0.0,314.0,681.0,0.0,0,175.0,1
913,913,0.5706685615163481,0.6,1.0,1.0,480.0,979.0,1.0,1,211.0,1
914,914,-0.26811655705868487,-0.3,1.0,0.0,406.0,767.0,0.0,0,377.0,1
915,915,-0.35910093382880615,-0.4,1.0,0.0,284.0,909.0,0.0,0,287.0,1
916,916,-0.2686049953208196,-0.3,1.0,0.0,357.0,803.0,0.0,0,360.0,1
917,917,-0.15956903240030385,-0.2,0.0,1.0,395.0,678.0,1.0,0,837.0,1
918,918,-0.0629858163515209,-0.1,1.0,0.0,378.0,976.0,0.0,0,366.0,1
919,919,0.332474815391678,0.3,1.0,1.0,391.0,526.0,1.0,1,793.0,1
920,920,0.4099490866178154,0.4,1.0,1.0,358.0,692.0,1.0,1,510.0,1
921,921,-0.06873279201698124,-0.1,1.0,0.0,263.0,723.0,0.0,0,484.0,1
922,922,-0.6661025415687319,-0.7,0.0,1.0,484.0,870.0,1.0,0,276.0,1
923,923,0.3848867407431936,0.4,0.0,0.0,370.0,734.0,0.0,1,106.0,1
924,924,0.31750138548029205,0.3,0.0,0.0,276.0,615.0,0.0,1,279.0,1
925,925,0.757410357544901,0.8,0.0,0.0,273.0,843.0,0.0,1,84.0,1
926,926,0.11358829061154274,0.1,1.0,1.0,358.0,537.0,1.0,1,595.0,1
927,927,0.6526313231304369,0.7,0.0,0.0,305.0,762.0,0.0,1,263.0,1
928,928,0.6733999397191671,0.7,1.0,1.0,256.0,753.0,1.0,1,191.0,1
929,929,-0.6984159143595507,-0.7,0.0,1.0,456.0,764.0,1.0,0,260.0,1
930,930,-0.7805643518769383,-0.8,1.0,0.0,491.0,779.0,0.0,0,190.0,1
931,931,-0.4872080868202154,-0.5,1.0,0.0,479.0,666.0,0.0,0,125.0,1
932,932,-0.6974435840764501,-0.7,0.0,1.0,485.0,526.0,1.0,0,339.0,1
933,933,0.26330065963454563,0.3,1.0,1.0,488.0,848.0,1.0,1,414.0,1
934,934,-0.7503236458408477,-0.8,0.0,1.0,418.0,972.0,1.0,0,270.0,1
935,935,-0.8468217154520136,-0.8,0.0,1.0,452.0,769.0,1.0,0,179.0,1
936,936,-0.15532725098266587,-0.2,1.0,0.0,359.0,711.0,0.0,0,270.0,1
937,937,0.3994458695172237,0.4,0.0,0.0,315.0,798.0,0.0,1,47.0,1
938,938,0.3732690860690332,0.4,0.0,0.0,365.0,573.0,0.0,1,362.0,1
939,939,-0.1357246810496643,-0.1,0.0,1.0,356.0,904.0,0.0,1,160.0,0
940,940,0.7131325931449791,0.7,1.0,1.0,324.0,759.0,1.0,1,457.0,1
941,941,-0.3275446197259958,-0.3,1.0,0.0,326.0,919.0,0.0,0,285.0,1
942,942,0.35823789973685616,0.4,0.0,0.0,403.0,779.0,0.0,1,128.0,1
943,943,-0.7746072231297516,-0.8,1.0,0.0,292.0,715.0,0.0,0,233.0,1
944,944,-0.8753128163367487,-0.9,0.0,1.0,275.0,871.0,1.0,0,124.0,1
945,945,0.6076915610189692,0.6,0.0,0.0,298.0,809.0,0.0,1,173.0,1
946,946,-0.6569891120939595,-0.7,1.0,0.0,344.0,771.0,0.0,0,325.0,1
947,947,0.5623866779282735,0.6,1.0,1.0,396.0,605.0,1.0,1,389.0,1
948,948,0.49831558562429634,0.5,0.0,0.0,302.0,552.0,0.0,1,406.0,1
949,949,-0.5620298320039688,-0.6,1.0,0.0,489.0,884.0,0.0,0,197.0,1
950,950,0.23383698332939995,0.2,0.0,0.0,279.0,610.0,0.0,1,251.0,1
951,951,-0.11259728250474266,-0.1,0.0,1.0,322.0,867.0,0.0,1,161.0,0
952,952,0.8546609919231966,0.9,0.0,0.0,279.0,750.0,0.0,1,221.0,1
953,953,0.4120444513149991,0.4,0.0,0.0,345.0,850.0,0.0,1,165.0,1
954,954,-0.2421717195240639,-0.2,0.0,1.0,313.0,791.0,1.0,0,676.0,1
955,955,0.03487443078769015,0.0,1.0,1.0,297.0,843.0,0.0,0,170.0,0
956,956,-0.19838438968122696,-0.2,1.0,0.0,390.0,687.0,0.0,0,593.0,1
957,957,0.8417919164168385,0.8,0.0,0.0,302.0,976.0,0.0,1,122.0,1
958,958,-0.25893274853880377,-0.3,0.0,1.0,305.0,733.0,1.0,0,222.0,1
959,959,0.6449940122901566,0.6,1.0,1.0,408.0,756.0,1.0,1,206.0,1
960,960,-0.7396835531095137,-0.7,1.0,0.0,312.0,607.0,0.0,0,251.0,1
961,961,0.4278611350450533,0.4,0.0,0.0,459.0,882.0,0.0,1,359.0,1
962,962,0.8598475310958237,0.9,0.0,0.0,326.0,602.0,0.0,1,132.0,1
963,963,-0.5108867539111068,-0.5,0.0,1.0,417.0,696.0,1.0,0,307.0,1
964,964,-0.8301191616241381,-0.8,1.0,0.0,267.0,644.0,0.0,0,299.0,1
965,965,-0.318255556035162,-0.3,0.0,1.0,476.0,890.0,1.0,0,834.0,1
966,966,0.4144096959986351,0.4,0.0,0.0,434.0,885.0,0.0,1,291.0,1
967,967,0.8367983362929216,0.8,1.0,1.0,260.0,917.0,1.0,1,213.0,1
968,968,-0.21233631629275096,-0.2,0.0,1.0,455.0,724.0,1.0,0,871.0,1
969,969,-0.7610160175569035,-0.8,0.0,1.0,329.0,895.0,1.0,0,186.0,1
970,970,0.6587527196190003,0.7,1.0,1.0,454.0,505.0,1.0,1,441.0,1
971,971,-0.6536530701228183,-0.7,1.0,0.0,472.0,957.0,0.0,0,211.0,1
972,972,0.18068512280845928,0.2,0.0,0.0,409.0,658.0,0.0,1,453.0,1
973,973,0.46962734795359207,0.5,0.0,0.0,292.0,933.0,0.0,1,215.0,1
974,974,0.17294402505676787,0.2,1.0,1.0,357.0,939.0,1.0,1,424.0,1
975,975,-0.47837063723928497,-0.5,0.0,1.0,453.0,557.0,1.0,0,290.0,1
976,976,-0.0653330126025653,-0.1,1.0,0.0,402.0,720.0,0.0,0,908.0,1
977,977,0.18566445928900743,0.2,0.0,0.0,377.0,676.0,0.0,1,417.0,1
978,978,0.2007969777509343,0.2,1.0,1.0,453.0,542.0,1.0,1,635.0,1
979,979,0.05120308303109089,0.1,1.0,1.0,255.0,928.0,0.0,0,1177.0,0
980,980,0.7578990553546466,0.8,0.0,0.0,388.0,688.0,0.0,1,334.0,1
981,981,-0.6717073485044204,-0.7,1.0,0.0,362.0,575.0,0.0,0,383.0,1
982,982,-0.10809022852610073,-0.1,0.0,1.0,339.0,583.0,0.0,1,2668.0,0
983,983,-0.1692586056192079,-0.2,1.0,0.0,487.0,657.0,0.0,0,496.0,1
984,984,0.7920683536547944,0.8,0.0,0.0,480.0,549.0,0.0,1,281.0,1
985,985,0.6262451386090925,0.6,0.0,0.0,268.0,791.0,0.0,1,81.0,1
986,986,0.17285665979863019,0.2,1.0,1.0,278.0,823.0,1.0,1,189.0,1
987,987,-0.06497192636652604,-0.1,0.0,1.0,310.0,878.0,1.0,0,1312.0,1
988,988,0.1280850637880474,0.1,1.0,1.0,353.0,828.0,1.0,1,469.0,1
989,989,-0.3286567985618061,-0.3,0.0,1.0,475.0,995.0,1.0,0,620.0,1
990,990,0.8949260517333447,0.9,0.0,0.0,305.0,580.0,0.0,1,165.0,1
991,991,-0.1578797320293902,-0.2,1.0,0.0,405.0,869.0,0.0,0,216.0,1
992,992,-0.8426988684647047,-0.8,1.0,0.0,268.0,865.0,0.0,0,187.0,1
993,993,0.559086327737509,0.6,0.0,0.0,254.0,754.0,0.0,1,172.0,1
994,994,-0.3851390534518365,-0.4,0.0,1.0,482.0,598.0,1.0,0,490.0,1
995,995,0.22274815682435267,0.2,1.0,1.0,457.0,527.0,1.0,1,786.0,1
996,996,0.6564129930388517,0.7,1.0,1.0,350.0,670.0,1.0,1,390.0,1
997,997,-0.2885911670143695,-0.3,1.0,0.0,487.0,955.0,0.0,0,338.0,1
998,998,0.6186639725470825,0.6,0.0,0.0,460.0,628.0,0.0,1,142.0,1
999,999,-0.8294707880511661,-0.8,0.0,1.0,364.0,997.0,1.0,0,179.0,1
1000,1000,-0.1654560103747167,-0.2,1.0,0.0,314.0,551.0,0.0,0,415.0,1
1001,1001,0.0035209239453033447,0.0,0.0,0.0,410.0,918.0,0.0,1,182.0,1
1002,1002,0.10360722850260473,0.1,1.0,1.0,328.0,887.0,1.0,1,445.0,1
1003,1003,0.24971678154558818,0.2,1.0,1.0,464.0,565.0,1.0,1,531.0,1
1004,1004,-0.1425363997854826,-0.1,1.0,0.0,353.0,862.0,0.0,0,285.0,1
1005,1005,-0.581966259126832,-0.6,1.0,0.0,407.0,921.0,0.0,0,92.0,1
1006,1006,0.3819783547896408,0.4,0.0,0.0,468.0,557.0,0.0,1,535.0,1
1007,1007,0.6795458109153935,0.7,0.0,0.0,258.0,786.0,0.0,1,266.0,1
1008,1008,0.4351990080941984,0.4,1.0,1.0,496.0,699.0,1.0,1,425.0,1
1009,1009,0.8199899287967672,0.8,0.0,0.0,456.0,932.0,0.0,1,192.0,1
1010,1010,-0.7864711528176818,-0.8,1.0,0.0,303.0,964.0,0.0,0,33.0,1
1011,1011,0.8615747791260359,0.9,1.0,1.0,305.0,736.0,1.0,1,219.0,1
1012,1012,-0.7502064378226203,-0.8,1.0,0.0,445.0,697.0,0.0,0,438.0,1
1013,1013,-0.5093194620917766,-0.5,1.0,0.0,261.0,853.0,0.0,0,116.0,1
1014,1014,-0.8987978786821398,-0.9,1.0,0.0,476.0,975.0,0.0,0,149.0,1
1015,1015,0.41655306727912034,0.4,0.0,0.0,312.0,640.0,0.0,1,438.0,1
1016,1016,0.32710408574131866,0.3,0.0,0.0,498.0,561.0,0.0,1,211.0,1
1017,1017,-0.659485522168855,-0.7,1.0,0.0,253.0,846.0,0.0,0,321.0,1
1018,1018,-0.0982763400956892,-0.1,0.0,1.0,276.0,877.0,0.0,1,237.0,0
1019,1019,0.499093435823747,0.5,1.0,1.0,469.0,616.0,1.0,1,285.0,1
1020,1020,0.3297024778822112,0.3,0.0,0.0,326.0,731.0,0.0,1,353.0,1
1021,1021,0.7747345064083085,0.8,1.0,1.0,367.0,641.0,1.0,1,232.0,1
1022,1022,-0.4582865724659108,-0.5,1.0,0.0,411.0,920.0,0.0,0,119.0,1
1023,1023,0.5212495028082257,0.5,0.0,0.0,381.0,558.0,0.0,1,471.0,1
1024,1024,-0.3875296535392879,-0.4,1.0,0.0,343.0,769.0,0.0,0,118.0,1
1025,1025,0.07974667280497583,0.1,1.0,1.0,330.0,843.0,1.0,1,607.0,1
1026,1026,-0.5111821055539629,-0.5,1.0,0.0,306.0,966.0,0.0,0,248.0,1
1027,1027,-0.5860034358561741,-0.6,0.0,1.0,362.0,716.0,1.0,0,282.0,1
1028,1028,0.596200020947191,0.6,0.0,0.0,425.0,931.0,0.0,1,154.0,1
1029,1029,0.3572347236378751,0.4,1.0,1.0,258.0,982.0,1.0,1,270.0,1
1030,1030,0.50829039318517,0.5,0.0,0.0,338.0,510.0,0.0,1,232.0,1
1031,1031,0.22234154313123866,0.2,0.0,0.0,412.0,686.0,0.0,1,462.0,1
1032,1032,-0.8406905055691669,-0.8,0.0,1.0,317.0,987.0,1.0,0,146.0,1
1033,1033,-0.46658218662915507,-0.5,0.0,1.0,378.0,641.0,1.0,0,531.0,1
1034,1034,0.26791186570254644,0.3,1.0,1.0,403.0,554.0,1.0,1,603.0,1
1035,1035,0.303718942151315,0.3,1.0,1.0,434.0,881.0,1.0,1,335.0,1
1036,1036,-0.3073421574616192,-0.3,0.0,1.0,341.0,968.0,1.0,0,441.0,1
1037,1037,-0.24348091708177244,-0.2,1.0,0.0,436.0,644.0,0.0,0,350.0,1
1038,1038,-0.0998387025382308,-0.1,1.0,0.0,301.0,923.0,0.0,0,326.0,1
1039,1039,-0.3282468087982948,-0.3,1.0,0.0,271.0,824.0,0.0,0,435.0,1
1040,1040,-0.6483760344359564,-0.6,1.0,0.0,411.0,606.0,0.0,0,463.0,1
1041,1041,0.657036235368963,0.7,0.0,0.0,418.0,623.0,0.0,1,169.0,1
1042,1042,0.6462712287640241,0.6,0.0,0.0,258.0,753.0,0.0,1,279.0,1
1043,1043,0.24224496915155902,0.2,0.0,0.0,299.0,715.0,0.0,1,676.0,1
1044,1044,0.6989475489000877,0.7,1.0,1.0,297.0,708.0,1.0,1,215.0,1
1045,1045,0.8132337226364447,0.8,0.0,0.0,496.0,910.0,0.0,1,114.0,1
1046,1046,-0.11260140630343618,-0.1,0.0,1.0,420.0,710.0,1.0,0,600.0,1
1047,1047,0.18030312716433372,0.2,0.0,0.0,328.0,565.0,0.0,1,197.0,1
1048,1048,0.7187603609889673,0.7,0.0,0.0,279.0,646.0,0.0,1,285.0,1
1049,1049,0.7382228436928734,0.7,0.0,0.0,473.0,671.0,0.0,1,456.0,1
1050,1050,0.1881993767154143,0.2,0.0,0.0,448.0,706.0,0.0,1,376.0,1
1051,1051,-0.7714359110380589,-0.8,1.0,0.0,483.0,978.0,0.0,0,99.0,1
1052,1052,0.7299239095998656,0.7,1.0,1.0,352.0,760.0,1.0,1,118.0,1
1053,1053,-0.5920335726234196,-0.6,0.0,1.0,285.0,897.0,1.0,0,88.0,1
1054,1054,0.6389386951916275,0.6,0.0,0.0,268.0,906.0,0.0,1,286.0,1
1055,1055,-0.14831763529682673,-0.1,0.0,1.0,265.0,781.0,1.0,0,284.0,1
1056,1056,-0.20189797198101855,-0.2,1.0,0.0,343.0,881.0,0.0,0,656.0,1
1057,1057,0.22492239819732773,0.2,0.0,0.0,426.0,947.0,0.0,1,107.0,1
1058,1058,-0.34901209761708973,-0.3,1.0,0.0,374.0,783.0,0.0,0,393.0,1
1059,1059,-0.5903650927399942,-0.6,1.0,0.0,449.0,681.0,0.0,0,350.0,1
1060,1060,0.31316009472842554,0.3,0.0,0.0,356.0,630.0,0.0,1,394.0,1
1061,1061,0.7698438868595047,0.8,0.0,0.0,388.0,863.0,0.0,1,229.0,1
1062,1062,0.42920316298336425,0.4,0.0,0.0,482.0,950.0,0.0,1,-332.0,1
1063,1063,0.12068452052585854,0.1,1.0,1.0,338.0,847.0,1.0,1,1625.0,1
1064,1064,0.40296669113631334,0.4,0.0,0.0,470.0,551.0,0.0,1,439.0,1
1065,1065,-0.6780594425997837,-0.7,0.0,1.0,256.0,702.0,1.0,0,292.0,1
1066,1066,-0.14965518090212904,-0.1,1.0,0.0,410.0,979.0,0.0,0,411.0,1
1067,1067,-0.7724527267705293,-0.8,0.0,1.0,271.0,787.0,1.0,0,322.0,1
1068,1068,-0.8294656614438071,-0.8,0.0,1.0,470.0,643.0,1.0,0,347.0,1
1069,1069,-0.6906076165364164,-0.7,0.0,1.0,491.0,571.0,1.0,0,478.0,1
1070,1070,0.7536552935737318,0.8,1.0,1.0,459.0,598.0,1.0,1,433.0,1
1071,1071,-0.2592246468194618,-0.3,0.0,1.0,397.0,819.0,1.0,0,324.0,1
1072,1072,0.053768443602927096,0.1,0.0,0.0,365.0,517.0,0.0,1,758.0,1
1073,1073,-0.23901728051132243,-0.2,1.0,0.0,374.0,908.0,0.0,0,168.0,1
1074,1074,-0.48310127517795587,-0.5,0.0,1.0,331.0,635.0,1.0,0,354.0,1
1075,1075,0.5214312961805044,0.5,1.0,1.0,411.0,717.0,1.0,1,292.0,1
1076,1076,0.6552123970190208,0.7,0.0,0.0,461.0,533.0,0.0,1,356.0,1
1077,1077,-0.4148732470924772,-0.4,1.0,0.0,328.0,694.0,0.0,0,328.0,1
1078,1078,-0.34897884111863564,-0.3,1.0,0.0,417.0,919.0,0.0,0,104.0,1
1079,1079,0.40240245102929906,0.4,1.0,1.0,440.0,852.0,1.0,1,508.0,1
1080,1080,0.6132803468002569,0.6,1.0,1.0,447.0,558.0,1.0,1,385.0,1
1081,1081,0.3012236795124087,0.3,1.0,1.0,450.0,903.0,1.0,1,-3.0,1
1082,1082,-0.7460367970495103,-0.7,1.0,0.0,492.0,639.0,0.0,0,149.0,1
1083,1083,0.00021694146978579187,0.0,1.0,1.0,278.0,873.0,0.0,0,879.0,0
1084,1084,-0.47229090291651094,-0.5,0.0,1.0,281.0,652.0,1.0,0,167.0,1
1085,1085,-0.6893957864121911,-0.7,0.0,1.0,382.0,660.0,1.0,0,438.0,1
1086,1086,-0.17424026802223602,-0.2,1.0,0.0,287.0,853.0,0.0,0,260.0,1
1087,1087,0.2969695730459859,0.3,1.0,1.0,300.0,777.0,1.0,1,183.0,1
1088,1088,0.015709227970135742,0.0,0.0,0.0,332.0,712.0,0.0,1,796.0,1
1089,1089,-0.7990816959229129,-0.8,0.0,1.0,254.0,564.0,1.0,0,272.0,1
1090,1090,-0.8824623964237079,-0.9,0.0,1.0,484.0,628.0,1.0,0,608.0,1
1091,1091,0.30880108968226316,0.3,0.0,0.0,316.0,893.0,0.0,1,541.0,1
1092,1092,-0.1062622414629274,-0.1,1.0,0.0,496.0,904.0,0.0,0,750.0,1
1093,1093,-0.5479276612793089,-0.5,1.0,0.0,286.0,519.0,0.0,0,405.0,1
1094,1094,-0.5516560149659994,-0.6,0.0,1.0,349.0,897.0,1.0,0,374.0,1
1095,1095,0.6395557925205632,0.6,1.0,1.0,453.0,649.0,1.0,1,288.0,1
1096,1096,-0.7642778624545311,-0.8,1.0,0.0,424.0,999.0,0.0,0,247.0,1
1097,1097,0.07213426107228471,0.1,1.0,1.0,372.0,889.0,1.0,1,399.0,1
1098,1098,-0.40142916921365124,-0.4,0.0,1.0,379.0,903.0,1.0,0,238.0,1
1099,1099,-0.1945231695978663,-0.2,0.0,1.0,495.0,829.0,1.0,0,726.0,1
1100,1100,-0.4332856884771743,-0.4,1.0,0.0,422.0,529.0,0.0,0,319.0,1
1101,1101,-0.32363056791682265,-0.3,0.0,1.0,262.0,960.0,1.0,0,628.0,1
1102,1102,-0.8884458743050114,-0.9,0.0,1.0,352.0,731.0,1.0,0,217.0,1
1103,1103,-0.47393783608515266,-0.5,1.0,0.0,466.0,751.0,0.0,0,103.0,1
1104,1104,-0.6778680099674791,-0.7,1.0,0.0,493.0,894.0,0.0,0,203.0,1
1105,1105,0.5547092487518236,0.6,1.0,1.0,492.0,733.0,1.0,1,375.0,1
1106,1106,0.7851229191850481,0.8,1.0,1.0,491.0,768.0,1.0,1,141.0,1
1107,1107,0.5508754306504485,0.6,1.0,1.0,405.0,785.0,1.0,1,130.0,1
1108,1108,0.27963566114173244,0.3,0.0,0.0,375.0,713.0,0.0,1,252.0,1
1109,1109,-0.6172722222639984,-0.6,1.0,0.0,436.0,968.0,0.0,0,136.0,1
1110,1110,-0.4433941551975523,-0.4,0.0,1.0,337.0,718.0,1.0,0,345.0,1
1111,1111,-0.055761234622165645,-0.1,0.0,1.0,378.0,919.0,0.0,1,3.0,0
1112,1112,-0.8955461654383988,-0.9,0.0,1.0,489.0,814.0,1.0,0,287.0,1
1113,1113,-0.6535325436031816,-0.7,1.0,0.0,430.0,935.0,0.0,0,135.0,1
1114,1114,-0.7882206534451841,-0.8,0.0,1.0,355.0,595.0,1.0,0,380.0,1
1115,1115,-0.6767702204982771,-0.7,0.0,1.0,464.0,541.0,1.0,0,565.0,1
1116,1116,0.3572874045235631,0.4,1.0,1.0,468.0,507.0,1.0,1,595.0,1
1117,1117,0.2088313556959599,0.2,0.0,0.0,326.0,938.0,0.0,1,236.0,1
1118,1118,0.4602242829358031,0.5,1.0,1.0,283.0,797.0,1.0,1,230.0,1
1119,1119,-0.794542699134782,-0.8,1.0,0.0,355.0,849.0,0.0,0,96.0,1
1120,1120,-0.22256315846757146,-0.2,0.0,1.0,360.0,786.0,1.0,0,1054.0,1
1121,1121,-0.03490971371128937,-0.0,1.0,0.0,289.0,548.0,0.0,0,1443.0,1
1122,1122,-0.043147631781502604,-0.0,1.0,0.0,445.0,825.0,0.0,0,830.0,1
1123,1123,0.7780483090060163,0.8,1.0,1.0,360.0,714.0,1.0,1,226.0,1
1124,1124,-0.45686816410646064,-0.5,1.0,0.0,499.0,736.0,0.0,0,465.0,1
1125,1125,-0.7473069048680228,-0.7,1.0,0.0,335.0,938.0,0.0,0,217.0,1
1126,1126,0.6700557827798518,0.7,1.0,1.0,462.0,849.0,1.0,1,179.0,1
1127,1127,-0.37013149056544137,-0.4,0.0,1.0,463.0,527.0,1.0,0,390.0,1
1128,1128,-0.02608847979997242,-0.0,1.0,0.0,459.0,582.0,1.0,1,599.0,0
1129,1129,0.6289929560213438,0.6,0.0,0.0,393.0,522.0,0.0,1,325.0,1
1130,1130,0.028050417810631,0.0,1.0,1.0,362.0,824.0,0.0,0,1144.0,0
1131,1131,0.5915789966299568,0.6,1.0,1.0,430.0,851.0,1.0,1,149.0,1
1132,1132,0.31335824689705294,0.3,1.0,1.0,255.0,893.0,1.0,1,222.0,1
1133,1133,-0.2372427988658763,-0.2,0.0,1.0,313.0,978.0,1.0,0,429.0,1
1134,1134,0.624298615876996,0.6,1.0,1.0,352.0,729.0,1.0,1,219.0,1
1135,1135,0.6450015081233823,0.6,0.0,0.0,485.0,770.0,0.0,1,105.0,1
1136,1136,-0.4357529200100803,-0.4,1.0,0.0,262.0,723.0,0.0,0,175.0,1
1137,1137,0.7372480676013288,0.7,1.0,1.0,467.0,967.0,0.0,0,-34.0,0
1138,1138,-0.7839893716090192,-0.8,1.0,0.0,333.0,690.0,0.0,0,187.0,1
1139,1139,0.08659808102626387,0.1,1.0,1.0,382.0,773.0,0.0,0,935.0,0
1140,1140,0.5807494069431821,0.6,1.0,1.0,420.0,815.0,1.0,1,495.0,1
1141,1141,0.11640016679510146,0.1,1.0,1.0,396.0,514.0,0.0,0,1130.0,0
1142,1142,0.10415226755786977,0.1,1.0,1.0,463.0,800.0,1.0,1,537.0,1
1143,1143,0.492184601852924,0.5,0.0,0.0,388.0,756.0,0.0,1,266.0,1
1144,1144,-0.0673299360324926,-0.1,0.0,1.0,444.0,708.0,1.0,0,298.0,1
1145,1145,-0.07818322403915201,-0.1,0.0,1.0,290.0,750.0,1.0,0,790.0,1
1146,1146,0.6053222236666297,0.6,1.0,1.0,272.0,664.0,1.0,1,454.0,1
1147,1147,0.06484837289696965,0.1,0.0,0.0,496.0,608.0,0.0,1,886.0,1
1148,1148,-0.3138632489121469,-0.3,0.0,1.0,498.0,518.0,1.0,0,524.0,1
1149,1149,0.5983387414025049,0.6,1.0,1.0,251.0,834.0,1.0,1,145.0,1
1150,1150,-0.6361714373880718,-0.6,1.0,0.0,497.0,927.0,0.0,0,176.0,1
1151,1151,0.8025140922614574,0.8,1.0,1.0,297.0,988.0,1.0,1,215.0,1
1152,1152,-0.3473334841778559,-0.3,0.0,1.0,465.0,574.0,1.0,0,481.0,1
1153,1153,0.7025580854220862,0.7,1.0,1.0,352.0,898.0,1.0,1,210.0,1
1154,1154,-0.5533739051685657,-0.6,0.0,1.0,411.0,781.0,1.0,0,198.0,1
1155,1155,0.7421158655870003,0.7,1.0,1.0,457.0,806.0,1.0,1,137.0,1
1156,1156,0.6426778604174684,0.6,0.0,0.0,426.0,654.0,0.0,1,290.0,1
1157,1157,0.08083174786318414,0.1,1.0,1.0,498.0,731.0,0.0,0,1041.0,0
1158,1158,-0.8498173819073276,-0.8,0.0,1.0,254.0,876.0,1.0,0,310.0,1
1159,1159,-0.1869168914106436,-0.2,1.0,0.0,391.0,986.0,0.0,0,343.0,1
1160,1160,-0.48103330574831094,-0.5,0.0,1.0,483.0,614.0,1.0,0,343.0,1
1161,1161,-0.5881635434766296,-0.6,1.0,0.0,416.0,974.0,0.0,0,220.0,1
1162,1162,-0.775056786609164,-0.8,0.0,1.0,472.0,960.0,0.0,1,-102.0,0
1163,1163,-0.48697752112993103,-0.5,0.0,1.0,419.0,886.0,1.0,0,195.0,1
1164,1164,0.5717727395648099,0.6,0.0,0.0,397.0,861.0,0.0,1,172.0,1
1165,1165,-0.3501008777863306,-0.4,1.0,0.0,370.0,605.0,0.0,0,355.0,1
1166,1166,-0.6885530337613923,-0.7,0.0,1.0,474.0,842.0,1.0,0,464.0,1
1167,1167,-0.08492219729794814,-0.1,0.0,1.0,376.0,999.0,1.0,0,335.0,1
1168,1168,0.5844165302480543,0.6,1.0,1.0,480.0,688.0,1.0,1,182.0,1
1169,1169,0.6612049472820033,0.7,1.0,1.0,350.0,767.0,1.0,1,193.0,1
1170,1170,0.7161147460946365,0.7,0.0,0.0,417.0,524.0,0.0,1,319.0,1
1171,1171,-0.19277621764244157,-0.2,0.0,1.0,387.0,993.0,1.0,0,770.0,1
1172,1172,0.7414600116378115,0.7,1.0,1.0,294.0,922.0,1.0,1,84.0,1
1173,1173,-0.44326827554777964,-0.4,1.0,0.0,455.0,667.0,0.0,0,198.0,1
1174,1174,-0.37219277604943535,-0.4,0.0,1.0,389.0,981.0,1.0,0,340.0,1
1175,1175,-0.24735210431238785,-0.2,1.0,0.0,289.0,793.0,0.0,0,338.0,1
1176,1176,-0.7720047033197057,-0.8,0.0,1.0,423.0,623.0,1.0,0,404.0,1
1177,1177,0.8915172493941078,0.9,1.0,1.0,474.0,751.0,1.0,1,215.0,1
1178,1178,0.642464261920379,0.6,1.0,1.0,387.0,636.0,1.0,1,427.0,1
1179,1179,-0.45418885375767604,-0.5,1.0,0.0,297.0,555.0,0.0,0,418.0,1
1180,1180,0.0922366231835553,0.1,0.0,0.0,402.0,514.0,0.0,1,614.0,1
1181,1181,0.4402961340326169,0.4,1.0,1.0,362.0,612.0,1.0,1,636.0,1
1182,1182,-0.8218443256980438,-0.8,0.0,1.0,356.0,893.0,1.0,0,91.0,1
1183,1183,-0.8428703373520939,-0.8,1.0,0.0,459.0,902.0,0.0,0,269.0,1
1184,1184,0.6685301205287802,0.7,1.0,1.0,415.0,564.0,1.0,1,271.0,1
1185,1185,0.5948587773878949,0.6,0.0,0.0,362.0,689.0,0.0,1,239.0,1
1186,1186,0.3990689485450799,0.4,0.0,0.0,267.0,703.0,0.0,1,270.0,1
1187,1187,-0.6283834555890001,-0.6,1.0,0.0,341.0,632.0,0.0,0,317.0,1
1188,1188,-0.2431245611117725,-0.2,0.0,1.0,315.0,803.0,1.0,0,232.0,1
1189,1189,0.4332264596970833,0.4,1.0,1.0,484.0,906.0,1.0,1,200.0,1
1190,1190,0.699052069865619,0.7,1.0,1.0,408.0,975.0,1.0,1,127.0,1
1191,1191,-0.07486178419707534,-0.1,1.0,0.0,265.0,944.0,0.0,0,271.0,1
1192,1192,-0.8709206800597201,-0.9,1.0,0.0,341.0,578.0,0.0,0,311.0,1
1193,1193,0.0018901922659343429,0.0,0.0,0.0,390.0,638.0,1.0,0,392.0,0
1194,1194,-0.2951366665356111,-0.3,0.0,1.0,467.0,626.0,1.0,0,617.0,1
1195,1195,-0.3356094480231707,-0.3,1.0,0.0,421.0,733.0,0.0,0,356.0,1
1196,1196,-0.11858199040149953,-0.1,0.0,1.0,410.0,640.0,1.0,0,660.0,1
1197,1197,0.5803655208842867,0.6,1.0,1.0,417.0,924.0,1.0,1,239.0,1
1198,1198,0.7553059169663964,0.8,1.0,1.0,254.0,581.0,1.0,1,435.0,1
1199,1199,-0.28891143064513014,-0.3,1.0,0.0,311.0,986.0,0.0,0,193.0,1
1200,1200,0.04014323134201314,0.0,1.0,1.0,490.0,865.0,0.0,0,245.0,0
1201,1201,-0.1604558739714652,-0.2,0.0,1.0,452.0,701.0,0.0,1,607.0,0
1202,1202,0.34190554153070274,0.3,1.0,1.0,302.0,749.0,1.0,1,479.0,1
1203,1203,-0.5214623155113509,-0.5,0.0,1.0,402.0,707.0,1.0,0,351.0,1
1204,1204,-0.8015606720526007,-0.8,0.0,1.0,412.0,637.0,1.0,0,231.0,1
1205,1205,-0.8109396975387848,-0.8,1.0,0.0,314.0,550.0,0.0,0,316.0,1
1206,1206,0.1141915947220512,0.1,0.0,0.0,459.0,843.0,0.0,1,398.0,1
1207,1207,0.05619487970488535,0.1,1.0,1.0,273.0,579.0,0.0,0,1188.0,0
1208,1208,-0.42099080704681896,-0.4,0.0,1.0,408.0,555.0,1.0,0,307.0,1
1209,1209,0.365376106833032,0.4,1.0,1.0,338.0,786.0,1.0,1,116.0,1
1210,1210,-0.09470909355053292,-0.1,0.0,1.0,370.0,749.0,1.0,0,1361.0,1
1211,1211,0.8181344203532074,0.8,1.0,1.0,362.0,885.0,1.0,1,163.0,1
1212,1212,-0.4203529394711565,-0.4,0.0,1.0,302.0,558.0,1.0,0,570.0,1
1213,1213,0.48202106347712637,0.5,0.0,0.0,467.0,852.0,0.0,1,261.0,1
1214,1214,0.3291823830278223,0.3,0.0,0.0,343.0,683.0,0.0,1,524.0,1
1215,1215,0.008243108461178705,0.0,0.0,0.0,320.0,753.0,0.0,1,1137.0,1
1216,1216,-0.4478752853580237,-0.4,0.0,1.0,395.0,832.0,1.0,0,323.0,1
1217,1217,-0.252953261198398,-0.3,0.0,1.0,421.0,975.0,1.0,0,194.0,1
1218,1218,0.2930712800490972,0.3,0.0,0.0,395.0,919.0,0.0,1,196.0,1
1219,1219,0.27582554022653294,0.3,1.0,1.0,492.0,587.0,1.0,1,681.0,1
1220,1220,-0.19090773199363442,-0.2,1.0,0.0,471.0,753.0,0.0,0,156.0,1
1221,1221,-0.7922336833149652,-0.8,0.0,1.0,411.0,563.0,1.0,0,606.0,1
1222,1222,-0.5800188723941508,-0.6,0.0,1.0,264.0,837.0,1.0,0,209.0,1
1223,1223,0.7741743784771774,0.8,0.0,0.0,491.0,795.0,0.0,1,204.0,1
1224,1224,-0.7270892595755002,-0.7,0.0,1.0,326.0,990.0,1.0,0,234.0,1
1225,1225,0.3440696329247285,0.3,0.0,0.0,458.0,664.0,0.0,1,318.0,1
1226,1226,-0.24702174527749532,-0.2,1.0,0.0,257.0,595.0,0.0,0,488.0,1
1227,1227,0.13841140723795375,0.1,0.0,0.0,490.0,812.0,0.0,1,448.0,1
1228,1228,0.6474260983814056,0.6,0.0,0.0,441.0,603.0,0.0,1,266.0,1
1229,1229,0.4241808796611376,0.4,0.0,0.0,400.0,964.0,0.0,1,156.0,1
1230,1230,0.16782001627107845,0.2,1.0,1.0,366.0,686.0,1.0,1,858.0,1
1231,1231,-0.06177428821611697,-0.1,1.0,0.0,252.0,984.0,0.0,0,244.0,1
1232,1232,-0.17220544679007,-0.2,0.0,1.0,378.0,974.0,0.0,1,2178.0,0
1233,1233,-0.46247094653187765,-0.5,1.0,0.0,377.0,953.0,0.0,0,90.0,1
1234,1234,0.03872796607377149,0.0,0.0,0.0,290.0,553.0,0.0,1,487.0,1
1235,1235,0.818352574806979,0.8,1.0,1.0,319.0,953.0,1.0,1,188.0,1
1236,1236,0.23160813602188013,0.2,1.0,1.0,485.0,826.0,1.0,1,299.0,1
1237,1237,-0.7853959380837383,-0.8,0.0,1.0,258.0,873.0,1.0,0,169.0,1
1238,1238,-0.0795993366040062,-0.1,1.0,0.0,389.0,790.0,0.0,0,531.0,1
1239,1239,0.08866537508274464,0.1,0.0,0.0,445.0,819.0,0.0,1,326.0,1
1240,1240,-0.12898769948644806,-0.1,0.0,1.0,280.0,768.0,1.0,0,952.0,1
1241,1241,0.05722302670962354,0.1,1.0,1.0,366.0,776.0,0.0,0,678.0,0
1242,1242,-0.052992322141558246,-0.1,0.0,1.0,342.0,842.0,0.0,1,526.0,0
1243,1243,-0.4144411017133388,-0.4,1.0,0.0,419.0,896.0,0.0,0,205.0,1
1244,1244,0.06297270249327658,0.1,0.0,0.0,414.0,779.0,0.0,1,87.0,1
1245,1245,0.7179142215209059,0.7,1.0,1.0,366.0,592.0,1.0,1,282.0,1
1246,1246,0.5369638729737624,0.5,1.0,1.0,465.0,840.0,1.0,1,145.0,1
1247,1247,0.4203045199159098,0.4,1.0,1.0,315.0,723.0,1.0,1,212.0,1
1248,1248,0.1120708416861037,0.1,0.0,0.0,317.0,924.0,0.0,1,449.0,1
1249,1249,-0.36225808995309605,-0.4,0.0,1.0,433.0,828.0,1.0,0,349.0,1
1250,1250,0.12404430991271609,0.1,0.0,0.0,262.0,519.0,0.0,1,259.0,1
1251,1251,0.12021325734941801,0.1,0.0,0.0,350.0,809.0,0.0,1,541.0,1
1252,1252,-0.8370066640812382,-0.8,0.0,1.0,488.0,616.0,1.0,0,426.0,1
1253,1253,0.24464480504484254,0.2,1.0,1.0,427.0,712.0,1.0,1,231.0,1
1254,1254,0.7022949622034839,0.7,0.0,0.0,302.0,934.0,0.0,1,124.0,1
1255,1255,-0.30248104836516443,-0.3,1.0,0.0,279.0,772.0,0.0,0,329.0,1
1256,1256,-0.7941866134927341,-0.8,1.0,0.0,356.0,993.0,0.0,0,31.0,1
1257,1257,0.8385329407160885,0.8,0.0,0.0,381.0,590.0,0.0,1,239.0,1
1258,1258,0.5902411952977257,0.6,0.0,0.0,336.0,852.0,0.0,1,312.0,1
1259,1259,0.6896406287299938,0.7,0.0,0.0,424.0,677.0,0.0,1,249.0,1
1260,1260,-0.6463554915406972,-0.6,1.0,0.0,262.0,543.0,0.0,0,415.0,1
1261,1261,0.499784140822349,0.5,1.0,1.0,367.0,757.0,1.0,1,326.0,1
1262,1262,-0.35890220402347905,-0.4,1.0,0.0,285.0,587.0,0.0,0,448.0,1
1263,1263,-0.4138954188552188,-0.4,0.0,1.0,269.0,673.0,1.0,0,348.0,1
1264,1264,0.34729867106129586,0.3,0.0,0.0,433.0,528.0,0.0,1,429.0,1
1265,1265,0.3738830527489393,0.4,1.0,1.0,255.0,982.0,1.0,1,233.0,1
1266,1266,0.22498702552339556,0.2,0.0,0.0,375.0,678.0,0.0,1,637.0,1
1267,1267,0.3460557525517859,0.3,1.0,1.0,267.0,768.0,1.0,1,375.0,1
1268,1268,-0.15957962795117875,-0.2,0.0,1.0,436.0,735.0,1.0,0,829.0,1
1269,1269,-0.7875184901823051,-0.8,1.0,0.0,429.0,885.0,0.0,0,46.0,1
1270,1270,-0.0745264104245752,-0.1,0.0,1.0,330.0,542.0,0.0,1,488.0,0
1271,1271,0.12132151628713583,0.1,1.0,1.0,363.0,869.0,1.0,1,758.0,1
1272,1272,0.7600772408183801,0.8,1.0,1.0,338.0,821.0,1.0,1,101.0,1
1273,1273,-0.5229502901415235,-0.5,0.0,1.0,424.0,784.0,1.0,0,272.0,1
1274,1274,-0.02045791805305952,-0.0,1.0,0.0,310.0,511.0,0.0,0,649.0,1
1275,1275,-0.632957112864345,-0.6,1.0,0.0,381.0,618.0,0.0,0,331.0,1
1276,1276,-0.3451114709100672,-0.3,1.0,0.0,489.0,619.0,0.0,0,432.0,1
1277,1277,-0.7489261155949302,-0.7,1.0,0.0,342.0,791.0,0.0,0,157.0,1
1278,1278,-0.20622835563174502,-0.2,1.0,0.0,409.0,612.0,0.0,0,679.0,1
1279,1279,0.592239737344144,0.6,1.0,1.0,393.0,786.0,1.0,1,321.0,1
1280,1280,0.36929020572657556,0.4,0.0,0.0,258.0,657.0,0.0,1,215.0,1
1281,1281,0.014463436654707063,0.0,0.0,0.0,453.0,877.0,0.0,1,440.0,1
1282,1282,0.8885512861960932,0.9,1.0,1.0,376.0,756.0,1.0,1,528.0,1
1283,1283,-0.22374926262565464,-0.2,0.0,1.0,256.0,774.0,1.0,0,1150.0,1
1284,1284,0.14556549617480286,0.1,1.0,1.0,290.0,931.0,1.0,1,609.0,1
1285,1285,0.5252370015564504,0.5,1.0,1.0,285.0,832.0,1.0,1,323.0,1
1286,1286,0.3048324340656542,0.3,0.0,0.0,364.0,620.0,0.0,1,266.0,1
1287,1287,0.5916077520521427,0.6,0.0,0.0,262.0,587.0,0.0,1,341.0,1
1288,1288,0.24568256208078465,0.2,1.0,1.0,267.0,553.0,1.0,1,570.0,1
1289,1289,-0.18601277137598649,-0.2,1.0,0.0,499.0,650.0,0.0,0,181.0,1
1290,1290,-0.635760383960511,-0.6,1.0,0.0,392.0,731.0,0.0,0,277.0,1
1291,1291,-0.0003653530749546663,-0.0,1.0,0.0,308.0,927.0,0.0,0,345.0,1
1292,1292,-0.265463475598426,-0.3,1.0,0.0,400.0,947.0,0.0,0,143.0,1
1293,1293,0.7894420987635128,0.8,0.0,0.0,450.0,901.0,0.0,1,149.0,1
1294,1294,0.7441676599857271,0.7,0.0,0.0,448.0,915.0,0.0,1,117.0,1
1295,1295,0.11058853986635542,0.1,1.0,1.0,381.0,781.0,1.0,1,1128.0,1
1296,1296,0.5756631709092136,0.6,1.0,1.0,437.0,805.0,1.0,1,428.0,1
1297,1297,0.5397764403303728,0.5,1.0,1.0,452.0,959.0,1.0,1,29.0,1
1298,1298,0.07705037423753469,0.1,1.0,1.0,263.0,839.0,1.0,1,468.0,1
1299,1299,-0.1441733632020067,-0.1,0.0,1.0,377.0,974.0,0.0,1,-71.0,0
1300,1300,-0.8239228279060501,-0.8,0.0,1.0,468.0,574.0,1.0,0,418.0,1
1301,1301,0.1979987889326108,0.2,0.0,0.0,370.0,735.0,0.0,1,455.0,1
1302,1302,-0.43624414177016524,-0.4,0.0,1.0,405.0,557.0,1.0,0,408.0,1
1303,1303,-0.6914808028927402,-0.7,0.0,1.0,422.0,907.0,1.0,0,191.0,1
1304,1304,-0.30582409422790324,-0.3,1.0,0.0,311.0,793.0,0.0,0,246.0,1
1305,1305,-0.7360068803897605,-0.7,0.0,1.0,442.0,898.0,1.0,0,180.0,1
1306,1306,0.5967274568283935,0.6,1.0,1.0,352.0,764.0,1.0,1,214.0,1
1307,1307,-0.4934455382570538,-0.5,1.0,0.0,301.0,679.0,0.0,0,460.0,1
1308,1308,0.007645526433138428,0.0,1.0,1.0,429.0,645.0,1.0,1,716.0,1
1309,1309,0.8968856154401489,0.9,1.0,1.0,254.0,800.0,1.0,1,156.0,1
1310,1310,-0.14009738411532713,-0.1,0.0,1.0,282.0,715.0,1.0,0,843.0,1
1311,1311,-0.40024550009744286,-0.4,1.0,0.0,339.0,651.0,0.0,0,140.0,1
1312,1312,0.18826110065173862,0.2,0.0,0.0,280.0,791.0,0.0,1,329.0,1
1313,1313,0.021928587026608937,0.0,1.0,1.0,332.0,995.0,0.0,0,683.0,0
1314,1314,0.798391248336309,0.8,0.0,0.0,347.0,597.0,0.0,1,306.0,1
1315,1315,-0.24324407427258032,-0.2,0.0,1.0,307.0,757.0,1.0,0,516.0,1
1316,1316,-0.024166571874404852,-0.0,1.0,0.0,386.0,923.0,0.0,0,1551.0,1
1317,1317,0.010336629220800031,0.0,0.0,0.0,437.0,860.0,0.0,1,303.0,1
1318,1318,-0.36159821391594293,-0.4,1.0,0.0,270.0,852.0,0.0,0,368.0,1
1319,1319,-0.48764196509454566,-0.5,0.0,1.0,425.0,912.0,1.0,0,143.0,1
1320,1320,0.13548919518031532,0.1,0.0,0.0,416.0,649.0,0.0,1,445.0,1
1321,1321,0.21901911875231928,0.2,0.0,0.0,443.0,720.0,0.0,1,237.0,1
1322,1322,-0.570822313934227,-0.6,0.0,1.0,254.0,569.0,1.0,0,457.0,1
1323,1323,0.584957152431055,0.6,0.0,0.0,415.0,614.0,0.0,1,231.0,1
1324,1324,-0.6351392948937481,-0.6,0.0,1.0,490.0,702.0,1.0,0,298.0,1
1325,1325,0.08327291076641141,0.1,1.0,1.0,400.0,920.0,1.0,1,1140.0,1
1326,1326,0.52014618190593,0.5,1.0,1.0,317.0,749.0,1.0,1,194.0,1
1327,1327,-0.6731484028726199,-0.7,0.0,1.0,490.0,650.0,1.0,0,260.0,1
1328,1328,0.3772362300286184,0.4,1.0,1.0,251.0,717.0,1.0,1,662.0,1
1329,1329,-0.5585802697397382,-0.6,0.0,1.0,452.0,578.0,1.0,0,410.0,1
1330,1330,0.06991768018185607,0.1,1.0,1.0,302.0,920.0,0.0,0,248.0,0
1331,1331,-0.6482809582334805,-0.6,0.0,1.0,496.0,684.0,1.0,0,260.0,1
1332,1332,-0.10897473036238481,-0.1,1.0,0.0,278.0,874.0,0.0,0,178.0,1
1333,1333,0.2558078810299461,0.3,1.0,1.0,421.0,897.0,1.0,1,282.0,1
1334,1334,0.4152588580067128,0.4,0.0,0.0,352.0,899.0,0.0,1,209.0,1
1335,1335,0.8793759789010563,0.9,0.0,0.0,389.0,562.0,0.0,1,209.0,1
1336,1336,0.5598545180279705,0.6,0.0,0.0,431.0,723.0,0.0,1,166.0,1
1337,1337,0.1580861447717744,0.2,1.0,1.0,295.0,875.0,1.0,1,470.0,1
1338,1338,0.23475087953790863,0.2,1.0,1.0,437.0,661.0,1.0,1,602.0,1
1339,1339,0.6866047475960483,0.7,0.0,0.0,379.0,688.0,0.0,1,253.0,1
1340,1340,0.15794409480330385,0.2,0.0,0.0,484.0,790.0,0.0,1,146.0,1
1341,1341,0.05710459544779489,0.1,1.0,1.0,395.0,993.0,0.0,0,742.0,0
1342,1342,-0.3337729218609933,-0.3,1.0,0.0,464.0,871.0,0.0,0,295.0,1
1343,1343,0.008233556109134121,0.0,0.0,0.0,369.0,549.0,0.0,1,342.0,1
1344,1344,-0.5676932877152953,-0.6,1.0,0.0,370.0,503.0,0.0,0,477.0,1
1345,1345,-0.1911804715209917,-0.2,0.0,1.0,386.0,662.0,1.0,0,492.0,1
1346,1346,-0.785681081295291,-0.8,0.0,1.0,297.0,528.0,1.0,0,275.0,1
1347,1347,-0.2503224043713017,-0.3,1.0,0.0,280.0,622.0,0.0,0,378.0,1
1348,1348,-0.7779080638789778,-0.8,1.0,0.0,435.0,585.0,0.0,0,350.0,1
1349,1349,0.6001229028082468,0.6,1.0,1.0,360.0,631.0,1.0,1,329.0,1
1350,1350,-0.6793049350780456,-0.7,1.0,0.0,302.0,708.0,0.0,0,230.0,1
1351,1351,-0.22433709594045703,-0.2,0.0,1.0,357.0,543.0,1.0,0,680.0,1
1352,1352,-0.7431281163032712,-0.7,0.0,1.0,488.0,547.0,1.0,0,285.0,1
1353,1353,0.20168960977545958,0.2,0.0,0.0,490.0,743.0,0.0,1,257.0,1
1354,1354,0.7085168099879638,0.7,1.0,1.0,308.0,937.0,1.0,1,145.0,1
1355,1355,-0.72377235669068,-0.7,0.0,1.0,488.0,805.0,1.0,0,287.0,1
1356,1356,-0.7454363176981434,-0.7,0.0,1.0,312.0,915.0,1.0,0,223.0,1
1357,1357,-0.8554965531389401,-0.9,1.0,0.0,284.0,533.0,0.0,0,223.0,1
1358,1358,-0.4501462194377521,-0.5,0.0,1.0,445.0,998.0,1.0,0,207.0,1
1359,1359,0.5579704336371433,0.6,0.0,0.0,443.0,771.0,0.0,1,126.0,1
1360,1360,0.15292658370741796,0.2,0.0,0.0,349.0,518.0,0.0,1,693.0,1
1361,1361,-0.3357356946779896,-0.3,1.0,0.0,477.0,521.0,0.0,0,382.0,1
1362,1362,-0.16035139121121111,-0.2,1.0,0.0,379.0,610.0,0.0,0,591.0,1
1363,1363,0.5141653399425435,0.5,0.0,0.0,468.0,730.0,0.0,1,402.0,1
1364,1364,0.13599031132624362,0.1,0.0,0.0,445.0,734.0,0.0,1,281.0,1
1365,1365,0.5969256372033181,0.6,1.0,1.0,250.0,970.0,1.0,1,110.0,1
1366,1366,-0.5520352424821133,-0.6,0.0,1.0,457.0,829.0,1.0,0,284.0,1
1367,1367,0.0709354562233796,0.1,1.0,1.0,490.0,511.0,1.0,1,2009.0,1
1368,1368,-0.599423412650457,-0.6,1.0,0.0,276.0,731.0,0.0,0,193.0,1
1369,1369,0.5903141179934975,0.6,1.0,1.0,334.0,802.0,1.0,1,314.0,1
1370,1370,0.6309966859054242,0.6,1.0,1.0,418.0,825.0,1.0,1,187.0,1
1371,1371,0.6046208327860373,0.6,0.0,0.0,440.0,964.0,0.0,1,206.0,1
1372,1372,0.5376035024170073,0.5,1.0,1.0,258.0,656.0,1.0,1,296.0,1
1373,1373,-0.031092846694442566,-0.0,0.0,1.0,449.0,725.0,0.0,1,686.0,0
1374,1374,0.27330387657478694,0.3,1.0,1.0,314.0,644.0,1.0,1,342.0,1
1375,1375,0.7882427491320522,0.8,0.0,0.0,330.0,894.0,0.0,1,136.0,1
1376,1376,0.0070261788394596625,0.0,1.0,1.0,373.0,900.0,0.0,0,977.0,0
1377,1377,0.6211044394792639,0.6,1.0,1.0,301.0,924.0,1.0,1,155.0,1
1378,1378,-0.727241551275993,-0.7,0.0,1.0,274.0,853.0,1.0,0,223.0,1
1379,1379,0.11304279823802055,0.1,1.0,1.0,312.0,709.0,1.0,1,739.0,1
1380,1380,0.04239140084570592,0.0,1.0,1.0,363.0,502.0,0.0,0,1185.0,0
1381,1381,-0.7246716961934394,-0.7,1.0,0.0,425.0,514.0,0.0,0,321.0,1
1382,1382,-0.10393507073727326,-0.1,1.0,0.0,419.0,833.0,0.0,0,438.0,1
1383,1383,-0.42815377222588863,-0.4,1.0,0.0,455.0,557.0,0.0,0,478.0,1
1384,1384,-0.8547179863613825,-0.9,1.0,0.0,268.0,554.0,0.0,0,278.0,1
1385,1385,0.33884022663941604,0.3,0.0,0.0,400.0,847.0,0.0,1,273.0,1
1386,1386,0.47989098241097017,0.5,1.0,1.0,380.0,804.0,1.0,1,236.0,1
1387,1387,-0.5909761632566963,-0.6,0.0,1.0,279.0,606.0,1.0,0,265.0,1
1388,1388,-0.5029947552192229,-0.5,1.0,0.0,296.0,787.0,0.0,0,357.0,1
1389,1389,-0.45125394164652016,-0.5,0.0,1.0,337.0,521.0,1.0,0,612.0,1
1390,1390,0.43981996545080826,0.4,0.0,0.0,392.0,541.0,0.0,1,347.0,1
1391,1391,-0.35626389422542915,-0.4,1.0,0.0,430.0,886.0,0.0,0,164.0,1
1392,1392,0.07585040882586702,0.1,1.0,1.0,298.0,518.0,0.0,0,954.0,0
1393,1393,0.6723239795193415,0.7,0.0,0.0,386.0,933.0,0.0,1,171.0,1
1394,1394,0.7116257481968472,0.7,1.0,1.0,288.0,530.0,1.0,1,292.0,1
1395,1395,-0.3742787473281677,-0.4,1.0,0.0,447.0,514.0,0.0,0,479.0,1
1396,1396,0.601367828708898,0.6,0.0,0.0,292.0,828.0,0.0,1,30.0,1
1397,1397,-0.7666095449103987,-0.8,1.0,0.0,459.0,827.0,0.0,0,354.0,1
1398,1398,0.13811956360645639,0.1,1.0,1.0,346.0,987.0,1.0,1,1127.0,1
1399,1399,0.7979040280283299,0.8,1.0,1.0,481.0,852.0,1.0,1,187.0,1
1400,1400,0.8171025267584114,0.8,0.0,0.0,459.0,940.0,0.0,1,101.0,1
1401,1401,0.6128675281668298,0.6,1.0,1.0,486.0,896.0,1.0,1,208.0,1
1402,1402,0.20846152985263944,0.2,1.0,1.0,447.0,694.0,1.0,1,599.0,1
1403,1403,0.29113971630175206,0.3,0.0,0.0,431.0,606.0,0.0,1,473.0,1
1404,1404,-0.5303502010239804,-0.5,0.0,1.0,359.0,682.0,1.0,0,179.0,1
1405,1405,-0.6119433345531704,-0.6,1.0,0.0,398.0,959.0,0.0,0,183.0,1
1406,1406,0.4568692345361739,0.5,0.0,0.0,258.0,709.0,0.0,1,193.0,1
1407,1407,0.23612180541879935,0.2,1.0,1.0,405.0,615.0,1.0,1,810.0,1
1408,1408,0.8545555551861249,0.9,0.0,0.0,448.0,787.0,0.0,1,175.0,1
1409,1409,0.20425183457228713,0.2,1.0,1.0,310.0,828.0,1.0,1,1122.0,1
1410,1410,-0.8056297903720481,-0.8,0.0,1.0,311.0,876.0,1.0,0,163.0,1
1411,1411,-0.46329207360561575,-0.5,1.0,0.0,393.0,599.0,0.0,0,348.0,1
1412,1412,-0.38969421380964175,-0.4,1.0,0.0,251.0,658.0,0.0,0,331.0,1
1413,1413,0.5551791709805437,0.6,1.0,1.0,409.0,901.0,1.0,1,280.0,1
1414,1414,-0.8599652778350992,-0.9,1.0,0.0,269.0,867.0,0.0,0,224.0,1
1415,1415,-0.8620915650856004,-0.9,0.0,1.0,361.0,671.0,1.0,0,298.0,1
1416,1416,-0.6919253939802692,-0.7,0.0,1.0,357.0,936.0,1.0,0,307.0,1
1417,1417,-0.08468666702558558,-0.1,1.0,0.0,428.0,918.0,0.0,0,714.0,1
1418,1418,0.8075508066191336,0.8,1.0,1.0,490.0,570.0,1.0,1,380.0,1
1419,1419,-0.03417839922009125,-0.0,1.0,0.0,349.0,560.0,0.0,0,971.0,1
1420,1420,-0.13473663665000335,-0.1,0.0,1.0,391.0,603.0,1.0,0,316.0,1
1421,1421,-0.12365756542000939,-0.1,1.0,0.0,399.0,931.0,0.0,0,500.0,1
1422,1422,0.04187909215281638,0.0,0.0,0.0,400.0,887.0,0.0,1,593.0,1
1423,1423,-0.4077346545732597,-0.4,1.0,0.0,268.0,976.0,0.0,0,116.0,1
1424,1424,0.7574149815997674,0.8,0.0,0.0,401.0,587.0,0.0,1,432.0,1
1425,1425,-0.294626884309074,-0.3,1.0,0.0,459.0,919.0,0.0,0,62.0,1
1426,1426,0.8122399955096976,0.8,1.0,1.0,420.0,822.0,1.0,1,328.0,1
1427,1427,0.5633602599215274,0.6,1.0,1.0,413.0,927.0,1.0,1,160.0,1
1428,1428,0.22901284803414368,0.2,0.0,0.0,324.0,831.0,0.0,1,215.0,1
1429,1429,-0.16279398317777394,-0.2,1.0,0.0,263.0,818.0,0.0,0,589.0,1
1430,1430,0.5152431209658069,0.5,0.0,0.0,452.0,786.0,0.0,1,172.0,1
1431,1431,0.5857304331928227,0.6,0.0,0.0,421.0,653.0,0.0,1,466.0,1
1432,1432,-0.3167016462094042,-0.3,1.0,0.0,273.0,942.0,0.0,0,315.0,1
1433,1433,0.4944361012357045,0.5,1.0,1.0,272.0,694.0,1.0,1,454.0,1
1434,1434,-0.07712149850238836,-0.1,0.0,1.0,440.0,952.0,1.0,0,708.0,1
1435,1435,0.4733013364949773,0.5,0.0,0.0,288.0,883.0,0.0,1,229.0,1
1436,1436,0.6043235545843043,0.6,0.0,0.0,396.0,937.0,0.0,1,147.0,1
1437,1437,-0.32233483930734264,-0.3,1.0,0.0,318.0,900.0,0.0,0,62.0,1
1438,1438,0.3119877488282702,0.3,1.0,1.0,293.0,518.0,1.0,1,439.0,1
1439,1439,0.7740732518731187,0.8,0.0,0.0,387.0,941.0,0.0,1,142.0,1
1440,1440,-0.24908018587880043,-0.2,1.0,0.0,258.0,504.0,0.0,0,678.0,1
1441,1441,-0.16257674234400843,-0.2,1.0,0.0,280.0,661.0,0.0,0,299.0,1
1442,1442,-0.2132716763873197,-0.2,1.0,0.0,419.0,770.0,0.0,0,611.0,1
1443,1443,0.42530678088883633,0.4,1.0,1.0,484.0,761.0,1.0,1,175.0,1
1444,1444,0.8334388002527481,0.8,1.0,1.0,418.0,816.0,1.0,1,126.0,1
1445,1445,-0.19821492292273057,-0.2,0.0,1.0,262.0,837.0,1.0,0,471.0,1
1446,1446,0.6909454175872053,0.7,0.0,0.0,353.0,975.0,0.0,1,122.0,1
1447,1447,0.4169054684454775,0.4,0.0,0.0,274.0,625.0,0.0,1,361.0,1
1448,1448,0.26207574176742787,0.3,1.0,1.0,269.0,627.0,1.0,1,564.0,1
1449,1449,0.4623648006555948,0.5,1.0,1.0,425.0,849.0,1.0,1,336.0,1
1450,1450,0.0856899652133063,0.1,1.0,1.0,310.0,527.0,1.0,1,1453.0,1
1451,1451,-0.6389245169168246,-0.6,0.0,1.0,489.0,500.0,1.0,0,261.0,1
1452,1452,-0.08588528691480124,-0.1,0.0,1.0,295.0,829.0,0.0,1,956.0,0
1453,1453,0.46551587999408206,0.5,0.0,0.0,444.0,907.0,0.0,1,139.0,1
1454,1454,-0.47888486786222706,-0.5,1.0,0.0,315.0,922.0,0.0,0,153.0,1
1455,1455,0.560107876668127,0.6,1.0,1.0,475.0,830.0,1.0,1,195.0,1
1456,1456,0.29853800278588694,0.3,1.0,1.0,453.0,731.0,1.0,1,616.0,1
1457,1457,-0.6642893256877134,-0.7,0.0,1.0,438.0,815.0,1.0,0,307.0,1
1458,1458,-0.3397359255666995,-0.3,1.0,0.0,385.0,586.0,0.0,0,529.0,1
1459,1459,-0.5794169486657752,-0.6,0.0,1.0,258.0,549.0,1.0,0,643.0,1
1460,1460,-0.34730606523038177,-0.3,0.0,1.0,262.0,664.0,1.0,0,284.0,1
1461,1461,0.6042677299796776,0.6,1.0,1.0,258.0,559.0,1.0,1,183.0,1
1462,1462,-0.8104667428932821,-0.8,1.0,0.0,448.0,572.0,0.0,0,270.0,1
1463,1463,0.6387119517481433,0.6,1.0,1.0,281.0,634.0,1.0,1,245.0,1
1464,1464,0.18021718541040455,0.2,1.0,1.0,254.0,653.0,1.0,1,493.0,1
1465,1465,0.7606560474475955,0.8,0.0,0.0,317.0,826.0,0.0,1,197.0,1
1466,1466,0.11842182618174146,0.1,0.0,0.0,293.0,739.0,0.0,1,408.0,1
1467,1467,-0.49561008154506697,-0.5,1.0,0.0,404.0,710.0,0.0,0,296.0,1
1468,1468,-0.5092004227372837,-0.5,0.0,1.0,295.0,903.0,1.0,0,252.0,1
1469,1469,0.6682810183880871,0.7,0.0,0.0,406.0,841.0,0.0,1,143.0,1
1470,1470,-0.6929062341795043,-0.7,0.0,1.0,390.0,979.0,1.0,0,141.0,1
1471,1471,0.06756715419110149,0.1,1.0,1.0,326.0,679.0,1.0,1,555.0,1
1472,1472,-0.022285453552099987,-0.0,0.0,1.0,421.0,943.0,0.0,1,1696.0,0
1473,1473,0.2878653159548151,0.3,1.0,1.0,299.0,894.0,1.0,1,537.0,1
1474,1474,0.09864091238508177,0.1,1.0,1.0,381.0,721.0,1.0,1,928.0,1
1475,1475,0.5940321456523937,0.6,0.0,0.0,329.0,991.0,0.0,1,160.0,1
1476,1476,0.8329695459761189,0.8,1.0,1.0,346.0,884.0,1.0,1,180.0,1
1477,1477,-0.896037140668874,-0.9,0.0,1.0,268.0,682.0,1.0,0,230.0,1
1478,1478,0.10852652498725235,0.1,1.0,1.0,432.0,620.0,0.0,0,508.0,0
1479,1479,-0.6997295898227304,-0.7,1.0,0.0,444.0,692.0,0.0,0,234.0,1
1480,1480,0.1268562345934875,0.1,1.0,1.0,351.0,534.0,1.0,1,645.0,1
1481,1481,0.20711820853415375,0.2,0.0,0.0,459.0,980.0,0.0,1,541.0,1
1482,1482,0.7581187889768856,0.8,1.0,1.0,252.0,584.0,1.0,1,314.0,1
1483,1483,0.8352690993552355,0.8,1.0,1.0,326.0,781.0,1.0,1,393.0,1
1484,1484,0.17501444574048086,0.2,0.0,0.0,321.0,697.0,0.0,1,302.0,1
1485,1485,0.5896913958076592,0.6,1.0,1.0,422.0,649.0,1.0,1,339.0,1
1486,1486,0.2689371910011761,0.3,1.0,1.0,271.0,536.0,1.0,1,523.0,1
1487,1487,0.15980470895875054,0.2,1.0,1.0,381.0,697.0,1.0,1,562.0,1
1488,1488,0.5524312450852208,0.6,0.0,0.0,433.0,958.0,0.0,1,239.0,1
1489,1489,0.7923127781095355,0.8,1.0,1.0,307.0,502.0,1.0,1,331.0,1
1490,1490,0.6384564292878677,0.6,0.0,0.0,410.0,565.0,0.0,1,205.0,1
1491,1491,0.15083631622678528,0.2,0.0,0.0,296.0,903.0,0.0,1,261.0,1
1492,1492,0.8408813427920366,0.8,0.0,0.0,453.0,850.0,0.0,1,67.0,1
1493,1493,-0.17097980278721991,-0.2,0.0,1.0,456.0,670.0,1.0,0,1184.0,1
