,trial,coherence,coherence_bin,green_side,correct_side,target_onset,checker_onset,decision,green_decision,decision_time,correct_decision
0,0,-0.09860270582238384,-0.1,0.0,1.0,332.0,873.0,0.0,1,1075.0,0
1,1,0.05748365194031846,0.1,0.0,0.0,293.0,926.0,0.0,1,161.0,1
2,2,-0.6073162544953088,-0.6,0.0,1.0,460.0,725.0,1.0,0,415.0,1
3,3,0.8322194026501563,0.8,0.0,0.0,456.0,813.0,0.0,1,291.0,1
4,4,0.2712000430543663,0.3,0.0,0.0,264.0,830.0,0.0,1,496.0,1
5,5,-0.807215441903451,-0.8,0.0,1.0,400.0,578.0,1.0,0,682.0,1
6,6,0.6696078889112346,0.7,0.0,0.0,354.0,913.0,0.0,1,103.0,1
7,7,-0.822762259572646,-0.8,0.0,1.0,412.0,980.0,1.0,0,-172.0,1
8,8,-0.15836098691611966,-0.2,0.0,1.0,379.0,930.0,1.0,0,111.0,1
9,9,-0.39916712298297174,-0.4,0.0,1.0,364.0,525.0,1.0,0,531.0,1
10,10,0.33329976694105146,0.3,1.0,1.0,277.0,782.0,1.0,1,331.0,1
11,11,-0.4744934414778327,-0.5,0.0,1.0,491.0,688.0,1.0,0,721.0,1
12,12,-0.08309057333570868,-0.1,1.0,0.0,268.0,965.0,0.0,0,27.0,1
13,13,0.512138683338288,0.5,1.0,1.0,412.0,619.0,1.0,1,429.0,1
14,14,-0.261020461504177,-0.3,1.0,0.0,352.0,507.0,0.0,0,551.0,1
15,15,0.5552524747845918,0.6,0.0,0.0,409.0,995.0,0.0,1,506.0,1
16,16,0.04848826935293449,0.0,1.0,1.0,485.0,797.0,1.0,1,478.0,1
17,17,0.43723236975832325,0.4,1.0,1.0,448.0,699.0,1.0,1,353.0,1
18,18,-0.3233048589294073,-0.3,0.0,1.0,379.0,742.0,1.0,0,489.0,1
19,19,-0.3232759999146422,-0.3,1.0,0.0,319.0,828.0,0.0,0,1603.0,1
20,20,0.4407280847156029,0.4,1.0,1.0,412.0,504.0,1.0,1,434.0,1
21,21,-0.3044376908212021,-0.3,0.0,1.0,258.0,922.0,1.0,0,370.0,1
22,22,-0.8428522143945371,-0.8,0.0,1.0,276.0,930.0,1.0,0,104.0,1
23,23,0.8939018229957759,0.9,1.0,1.0,314.0,807.0,1.0,1,99.0,1
24,24,0.6748348318280203,0.7,1.0,1.0,395.0,641.0,1.0,1,604.0,1
25,25,0.46586850999006446,0.5,1.0,1.0,411.0,548.0,1.0,1,451.0,1
26,26,-0.30935971482478486,-0.3,0.0,1.0,404.0,679.0,1.0,0,267.0,1
27,27,0.6789479131402528,0.7,1.0,1.0,426.0,776.0,1.0,1,458.0,1
28,28,0.376112489246908,0.4,0.0,0.0,345.0,863.0,0.0,1,242.0,1
29,29,0.5519803651092073,0.6,1.0,1.0,474.0,718.0,1.0,1,138.0,1
30,30,0.6810469953521615,0.7,1.0,1.0,401.0,545.0,1.0,1,424.0,1
31,31,0.12039751144982602,0.1,1.0,1.0,408.0,930.0,1.0,1,2282.0,1
32,32,-0.6630709826199535,-0.7,1.0,0.0,418.0,680.0,0.0,0,312.0,1
33,33,-0.22032621864935142,-0.2,0.0,1.0,389.0,914.0,0.0,1,357.0,0
34,34,0.02484347688814781,0.0,1.0,1.0,402.0,652.0,0.0,0,676.0,0
35,35,-0.8224275038563275,-0.8,1.0,0.0,369.0,566.0,0.0,0,295.0,1
36,36,0.5390946546810621,0.5,0.0,0.0,490.0,991.0,0.0,1,279.0,1
37,37,0.35829347552488333,0.4,0.0,0.0,303.0,819.0,0.0,1,508.0,1
38,38,-0.8170839663251335,-0.8,1.0,0.0,421.0,667.0,0.0,0,372.0,1
39,39,0.27685867384061635,0.3,0.0,0.0,359.0,892.0,0.0,1,399.0,1
40,40,0.7114944145183236,0.7,0.0,0.0,356.0,990.0,1.0,0,244.0,0
41,41,0.28897790738087525,0.3,1.0,1.0,437.0,661.0,1.0,1,622.0,1
42,42,0.28113930828101485,0.3,1.0,1.0,443.0,642.0,1.0,1,635.0,1
43,43,-0.4581017263750748,-0.5,1.0,0.0,432.0,813.0,0.0,0,345.0,1
44,44,-0.08781206865202562,-0.1,1.0,0.0,440.0,648.0,0.0,0,292.0,1
45,45,0.7887034094925888,0.8,1.0,1.0,472.0,718.0,1.0,1,380.0,1
46,46,-0.0027958758510066017,-0.0,0.0,1.0,262.0,681.0,1.0,0,1107.0,1
47,47,-0.5652936150322788,-0.6,1.0,0.0,469.0,975.0,0.0,0,236.0,1
48,48,-0.2797091346812848,-0.3,0.0,1.0,274.0,961.0,1.0,0,375.0,1
49,49,-0.4204172024683867,-0.4,0.0,1.0,355.0,908.0,1.0,0,357.0,1
50,50,-0.3593107638597588,-0.4,1.0,0.0,279.0,664.0,0.0,0,537.0,1
51,51,-0.8680599149203481,-0.9,0.0,1.0,497.0,900.0,1.0,0,143.0,1
52,52,0.4889307524005416,0.5,1.0,1.0,483.0,707.0,1.0,1,880.0,1
53,53,0.8310297365773761,0.8,0.0,0.0,326.0,532.0,0.0,1,562.0,1
54,54,0.1820131782260851,0.2,1.0,1.0,262.0,572.0,1.0,1,476.0,1
55,55,-0.4575179654534341,-0.5,0.0,1.0,414.0,601.0,1.0,0,455.0,1
56,56,0.5634131058710322,0.6,0.0,0.0,453.0,828.0,0.0,1,299.0,1
57,57,-0.23621735322082738,-0.2,0.0,1.0,480.0,951.0,1.0,0,69.0,1
58,58,-0.25458020406509174,-0.3,0.0,1.0,468.0,789.0,1.0,0,473.0,1
59,59,-0.2355668814491425,-0.2,0.0,1.0,289.0,545.0,1.0,0,1586.0,1
60,60,-0.01609242214551665,-0.0,0.0,1.0,324.0,545.0,0.0,1,671.0,0
61,61,0.8044770312524728,0.8,1.0,1.0,419.0,616.0,1.0,1,415.0,1
62,62,-0.7576795022385509,-0.8,0.0,1.0,388.0,785.0,1.0,0,147.0,1
63,63,0.6396760828713967,0.6,1.0,1.0,323.0,701.0,1.0,1,276.0,1
64,64,0.6550809280133337,0.7,0.0,0.0,312.0,788.0,0.0,1,270.0,1
65,65,0.31232523889746233,0.3,0.0,0.0,382.0,628.0,0.0,1,320.0,1
66,66,0.1857212086243053,0.2,1.0,1.0,406.0,833.0,1.0,1,281.0,1
67,67,-0.02179646626997278,-0.0,0.0,1.0,489.0,695.0,0.0,1,436.0,0
68,68,-0.4219762211132182,-0.4,0.0,1.0,320.0,576.0,1.0,0,474.0,1
69,69,-0.7169340627019836,-0.7,0.0,1.0,384.0,881.0,1.0,0,155.0,1
70,70,0.41395227258146006,0.4,1.0,1.0,432.0,722.0,1.0,1,366.0,1
71,71,-0.5373998046561712,-0.5,1.0,0.0,487.0,687.0,0.0,0,366.0,1
72,72,-0.581891517844764,-0.6,1.0,0.0,492.0,560.0,0.0,0,578.0,1
73,73,0.15779300897937387,0.2,1.0,1.0,262.0,504.0,1.0,1,454.0,1
74,74,0.27309674972694975,0.3,1.0,1.0,270.0,768.0,1.0,1,162.0,1
75,75,-0.25000331017804633,-0.3,0.0,1.0,457.0,836.0,1.0,0,497.0,1
76,76,0.4960297016062273,0.5,0.0,0.0,355.0,664.0,0.0,1,551.0,1
77,77,0.7819933798297382,0.8,1.0,1.0,455.0,856.0,1.0,1,239.0,1
78,78,0.24419668690197083,0.2,0.0,0.0,385.0,775.0,0.0,1,460.0,1
79,79,0.0547477427888704,0.1,0.0,0.0,306.0,530.0,0.0,1,1634.0,1
80,80,-0.6495073856740625,-0.6,1.0,0.0,277.0,934.0,0.0,0,319.0,1
81,81,-0.8778926605315881,-0.9,0.0,1.0,414.0,503.0,1.0,0,633.0,1
82,82,0.09679111643854166,0.1,0.0,0.0,373.0,898.0,1.0,0,829.0,0
83,83,0.44958418003538203,0.4,1.0,1.0,470.0,978.0,1.0,1,92.0,1
84,84,0.01091130930234585,0.0,0.0,0.0,431.0,525.0,0.0,1,684.0,1
85,85,-0.5769214510242503,-0.6,1.0,0.0,398.0,888.0,0.0,0,174.0,1
86,86,-0.8670731227873478,-0.9,1.0,0.0,403.0,594.0,0.0,0,363.0,1
87,87,0.23751526629427533,0.2,0.0,0.0,450.0,777.0,0.0,1,833.0,1
88,88,0.37525228362971863,0.4,1.0,1.0,315.0,932.0,1.0,1,153.0,1
89,89,-0.21464686552095047,-0.2,0.0,1.0,483.0,582.0,1.0,0,775.0,1
90,90,-0.3304511261797073,-0.3,0.0,1.0,437.0,831.0,1.0,0,952.0,1
91,91,-0.5417162703566392,-0.5,0.0,1.0,330.0,812.0,1.0,0,178.0,1
92,92,0.34395323676810763,0.3,1.0,1.0,361.0,984.0,0.0,0,-85.0,0
93,93,0.7141005375479422,0.7,0.0,0.0,451.0,739.0,0.0,1,310.0,1
94,94,-0.27817215967609454,-0.3,0.0,1.0,431.0,505.0,1.0,0,634.0,1
95,95,0.30860951072892984,0.3,0.0,0.0,280.0,721.0,0.0,1,649.0,1
96,96,-0.5351117027394128,-0.5,1.0,0.0,448.0,500.0,0.0,0,372.0,1
97,97,0.07352321906495363,0.1,1.0,1.0,395.0,987.0,1.0,1,708.0,1
98,98,0.6754545132233628,0.7,1.0,1.0,429.0,700.0,1.0,1,351.0,1
99,99,-0.2971558063106925,-0.3,1.0,0.0,350.0,567.0,0.0,0,433.0,1
100,100,0.7991190444415518,0.8,1.0,1.0,435.0,560.0,1.0,1,905.0,1
101,101,-0.1999042068323359,-0.2,0.0,1.0,396.0,962.0,1.0,0,-58.0,1
102,102,-0.4536796693166658,-0.5,0.0,1.0,289.0,996.0,1.0,0,55.0,1
103,103,-0.6376638850010923,-0.6,1.0,0.0,280.0,543.0,0.0,0,437.0,1
104,104,0.7334849604898898,0.7,0.0,0.0,463.0,915.0,0.0,1,232.0,1
105,105,-0.031557077918593635,-0.0,0.0,1.0,368.0,869.0,1.0,0,303.0,1
106,106,-0.22054266641221043,-0.2,0.0,1.0,462.0,805.0,1.0,0,403.0,1
107,107,-0.33283417144833394,-0.3,1.0,0.0,433.0,902.0,0.0,0,475.0,1
108,108,-0.4262988135013467,-0.4,1.0,0.0,374.0,516.0,0.0,0,460.0,1
109,109,0.302046489648396,0.3,0.0,0.0,441.0,578.0,0.0,1,721.0,1
110,110,0.8945962695882638,0.9,0.0,0.0,297.0,918.0,0.0,1,115.0,1
111,111,-0.13106999696181365,-0.1,1.0,0.0,437.0,939.0,0.0,0,194.0,1
112,112,0.764753628753921,0.8,0.0,0.0,381.0,790.0,0.0,1,159.0,1
113,113,0.7520581223182518,0.8,0.0,0.0,432.0,932.0,0.0,1,326.0,1
114,114,-0.1906985913177517,-0.2,1.0,0.0,420.0,586.0,0.0,0,664.0,1
115,115,0.7260049114127526,0.7,1.0,1.0,443.0,624.0,1.0,1,173.0,1
116,116,-0.5226781508436891,-0.5,1.0,0.0,424.0,893.0,0.0,0,253.0,1
117,117,0.17348379460911645,0.2,1.0,1.0,342.0,738.0,1.0,1,800.0,1
118,118,-0.7164247964237949,-0.7,0.0,1.0,481.0,899.0,1.0,0,240.0,1
119,119,0.6581801144104814,0.7,0.0,0.0,471.0,641.0,0.0,1,308.0,1
120,120,-0.8447256159840428,-0.8,1.0,0.0,404.0,968.0,0.0,0,68.0,1
121,121,0.18276406561534342,0.2,0.0,0.0,410.0,791.0,0.0,1,109.0,1
122,122,0.21661654734532643,0.2,0.0,0.0,301.0,873.0,0.0,1,276.0,1
123,123,0.8667241095995534,0.9,0.0,0.0,490.0,884.0,0.0,1,286.0,1
124,124,0.12280217399912974,0.1,0.0,0.0,433.0,860.0,0.0,1,857.0,1
125,125,-0.13020753800114493,-0.1,0.0,1.0,251.0,655.0,0.0,1,1174.0,0
126,126,0.6550656821924933,0.7,1.0,1.0,409.0,610.0,1.0,1,371.0,1
127,127,0.08858947653093119,0.1,1.0,1.0,306.0,965.0,0.0,0,399.0,0
128,128,0.34073647039834654,0.3,1.0,1.0,388.0,932.0,1.0,1,120.0,1
129,129,-0.3400866223211767,-0.3,1.0,0.0,478.0,747.0,0.0,0,345.0,1
130,130,-0.5368362623509491,-0.5,1.0,0.0,498.0,922.0,0.0,0,200.0,1
131,131,-0.1972364519923563,-0.2,1.0,0.0,491.0,960.0,0.0,0,589.0,1
132,132,-0.31725210862287134,-0.3,0.0,1.0,375.0,997.0,1.0,0,298.0,1
133,133,0.3096357050910937,0.3,1.0,1.0,369.0,523.0,1.0,1,908.0,1
134,134,-0.37403864111405705,-0.4,0.0,1.0,426.0,829.0,1.0,0,145.0,1
135,135,0.4414416866730827,0.4,0.0,0.0,476.0,551.0,0.0,1,483.0,1
136,136,0.46076984759204687,0.5,1.0,1.0,255.0,937.0,1.0,1,728.0,1
137,137,-0.8242144459456755,-0.8,0.0,1.0,320.0,844.0,1.0,0,156.0,1
138,138,-0.18405567779749565,-0.2,0.0,1.0,295.0,580.0,1.0,0,665.0,1
139,139,0.12579614540431783,0.1,0.0,0.0,499.0,820.0,0.0,1,321.0,1
140,140,0.320600835394249,0.3,1.0,1.0,386.0,894.0,1.0,1,360.0,1
141,141,-0.577612090399698,-0.6,0.0,1.0,338.0,965.0,1.0,0,267.0,1
142,142,-0.887767906734307,-0.9,1.0,0.0,407.0,570.0,0.0,0,533.0,1
143,143,-0.5140857589078284,-0.5,0.0,1.0,345.0,775.0,1.0,0,580.0,1
144,144,-0.23702078738745924,-0.2,0.0,1.0,288.0,748.0,1.0,0,704.0,1
145,145,-0.16645287852078183,-0.2,0.0,1.0,306.0,946.0,1.0,0,558.0,1
146,146,0.5221424790171919,0.5,1.0,1.0,302.0,712.0,1.0,1,416.0,1
147,147,-0.02576304405414842,-0.0,0.0,1.0,348.0,861.0,0.0,1,631.0,0
148,148,-0.5403521851526676,-0.5,0.0,1.0,379.0,692.0,1.0,0,339.0,1
149,149,-0.6851909978049321,-0.7,0.0,1.0,377.0,558.0,1.0,0,615.0,1
150,150,0.524719910440684,0.5,1.0,1.0,310.0,783.0,1.0,1,407.0,1
151,151,0.0623501240357639,0.1,0.0,0.0,285.0,730.0,0.0,1,315.0,1
152,152,-0.5329821176410428,-0.5,1.0,0.0,286.0,628.0,0.0,0,326.0,1
153,153,0.1362338283172434,0.1,0.0,0.0,337.0,895.0,0.0,1,168.0,1
154,154,0.4586900255341261,0.5,0.0,0.0,470.0,781.0,0.0,1,419.0,1
155,155,-0.6829709492830585,-0.7,1.0,0.0,420.0,973.0,0.0,0,97.0,1
156,156,0.21874807965667198,0.2,1.0,1.0,277.0,858.0,1.0,1,505.0,1
157,157,0.3147501565715568,0.3,0.0,0.0,329.0,936.0,0.0,1,285.0,1
158,158,0.05167698806854604,0.1,1.0,1.0,437.0,512.0,1.0,1,641.0,1
159,159,0.36585086187153226,0.4,1.0,1.0,417.0,912.0,1.0,1,351.0,1
160,160,0.35017520070912644,0.4,0.0,0.0,300.0,969.0,0.0,1,501.0,1
161,161,-0.6359087524778267,-0.6,0.0,1.0,471.0,622.0,1.0,0,477.0,1
162,162,-0.5864618568498088,-0.6,0.0,1.0,386.0,989.0,1.0,0,395.0,1
163,163,-0.33036260827289066,-0.3,1.0,0.0,334.0,822.0,0.0,0,424.0,1
164,164,-0.019362967697465705,-0.0,0.0,1.0,348.0,691.0,0.0,1,901.0,0
165,165,-0.6395608304635951,-0.6,1.0,0.0,395.0,598.0,0.0,0,357.0,1
166,166,0.46587371329328187,0.5,1.0,1.0,291.0,595.0,1.0,1,364.0,1
167,167,-0.18453743693754665,-0.2,0.0,1.0,393.0,504.0,1.0,0,1273.0,1
168,168,-0.8801288165001409,-0.9,1.0,0.0,480.0,644.0,0.0,0,266.0,1
169,169,0.628882891300021,0.6,0.0,0.0,305.0,716.0,0.0,1,229.0,1
170,170,0.3986193337090448,0.4,1.0,1.0,292.0,663.0,1.0,1,525.0,1
171,171,0.6816300673298415,0.7,1.0,1.0,391.0,997.0,1.0,1,112.0,1
172,172,-0.8605854985584813,-0.9,0.0,1.0,400.0,514.0,1.0,0,406.0,1
173,173,-0.7485497813064572,-0.7,1.0,0.0,254.0,645.0,0.0,0,301.0,1
174,174,-0.3977641870664519,-0.4,0.0,1.0,281.0,743.0,1.0,0,306.0,1
175,175,0.657514676909107,0.7,0.0,0.0,443.0,716.0,0.0,1,221.0,1
176,176,-0.3458140646146626,-0.3,0.0,1.0,474.0,932.0,1.0,0,184.0,1
177,177,0.23399254987799034,0.2,1.0,1.0,480.0,520.0,1.0,1,640.0,1
178,178,-0.05409834926574397,-0.1,1.0,0.0,359.0,688.0,1.0,1,1073.0,0
179,179,-0.5881173840669298,-0.6,0.0,1.0,378.0,609.0,1.0,0,423.0,1
180,180,-0.20053363787616152,-0.2,1.0,0.0,466.0,897.0,0.0,0,187.0,1
181,181,0.7253429906816099,0.7,0.0,0.0,341.0,953.0,0.0,1,106.0,1
182,182,-0.2527335363370816,-0.3,0.0,1.0,326.0,804.0,1.0,0,470.0,1
183,183,0.8594608594161178,0.9,0.0,0.0,310.0,505.0,0.0,1,475.0,1
184,184,-0.8753351433156467,-0.9,0.0,1.0,401.0,592.0,1.0,0,527.0,1
185,185,0.3987155900533125,0.4,0.0,0.0,280.0,722.0,0.0,1,368.0,1
186,186,0.8776643572832684,0.9,1.0,1.0,357.0,562.0,1.0,1,321.0,1
187,187,-0.0800925868722141,-0.1,0.0,1.0,260.0,779.0,1.0,0,741.0,1
188,188,0.8253701032881636,0.8,1.0,1.0,315.0,743.0,1.0,1,232.0,1
189,189,-0.3960632798166326,-0.4,0.0,1.0,341.0,512.0,1.0,0,557.0,1
190,190,-0.6260371748133764,-0.6,0.0,1.0,251.0,881.0,0.0,1,48.0,0
191,191,0.6553030210085841,0.7,1.0,1.0,344.0,950.0,1.0,1,336.0,1
192,192,0.6565525777106437,0.7,0.0,0.0,368.0,882.0,0.0,1,240.0,1
193,193,0.841202796913617,0.8,0.0,0.0,450.0,700.0,0.0,1,470.0,1
194,194,-0.5868062214487322,-0.6,1.0,0.0,419.0,701.0,0.0,0,260.0,1
195,195,-0.15204267926271298,-0.2,1.0,0.0,443.0,580.0,0.0,0,527.0,1
196,196,-0.7003639948000578,-0.7,1.0,0.0,355.0,645.0,0.0,0,290.0,1
197,197,0.4352944215734321,0.4,1.0,1.0,397.0,566.0,1.0,1,537.0,1
198,198,0.2842269179463647,0.3,1.0,1.0,360.0,544.0,1.0,1,1116.0,1
199,199,0.4754269235216667,0.5,0.0,0.0,261.0,643.0,0.0,1,546.0,1
200,200,-0.6662056485946639,-0.7,0.0,1.0,275.0,635.0,1.0,0,310.0,1
201,201,0.8156304336476942,0.8,1.0,1.0,304.0,967.0,1.0,1,209.0,1
202,202,0.07066467168573531,0.1,0.0,0.0,461.0,784.0,0.0,1,495.0,1
203,203,0.019354855225830025,0.0,0.0,0.0,290.0,997.0,1.0,0,573.0,0
204,204,-0.5483647348386717,-0.5,0.0,1.0,498.0,799.0,1.0,0,153.0,1
205,205,-0.7501644204361525,-0.8,0.0,1.0,308.0,631.0,1.0,0,291.0,1
206,206,0.30242182012658037,0.3,0.0,0.0,257.0,744.0,0.0,1,1569.0,1
207,207,-0.6536165696815276,-0.7,1.0,0.0,284.0,689.0,0.0,0,237.0,1
208,208,0.8321495084750145,0.8,0.0,0.0,480.0,592.0,0.0,1,368.0,1
209,209,-0.3835870171218223,-0.4,0.0,1.0,346.0,599.0,1.0,0,545.0,1
210,210,-0.5193251720705887,-0.5,1.0,0.0,312.0,721.0,0.0,0,497.0,1
211,211,-0.12684356438614663,-0.1,0.0,1.0,259.0,542.0,1.0,0,1259.0,1
212,212,0.45815767863083157,0.5,1.0,1.0,322.0,797.0,1.0,1,171.0,1
213,213,0.19368739933734946,0.2,0.0,0.0,340.0,737.0,0.0,1,363.0,1
214,214,0.46298379326483186,0.5,0.0,0.0,295.0,519.0,0.0,1,446.0,1
215,215,0.5426501654990036,0.5,1.0,1.0,337.0,822.0,1.0,1,201.0,1
216,216,-0.5556332245614182,-0.6,1.0,0.0,363.0,616.0,0.0,0,511.0,1
217,217,-0.2904576129687252,-0.3,1.0,0.0,442.0,897.0,0.0,0,361.0,1
218,218,0.20808772306007384,0.2,0.0,0.0,492.0,716.0,0.0,1,392.0,1
219,219,0.1086150889602443,0.1,1.0,1.0,267.0,606.0,1.0,1,557.0,1
220,220,0.11083740278452858,0.1,1.0,1.0,460.0,950.0,1.0,1,720.0,1
221,221,0.13798514714418963,0.1,1.0,1.0,407.0,555.0,1.0,1,938.0,1
222,222,-0.6188164934425877,-0.6,1.0,0.0,297.0,513.0,0.0,0,500.0,1
223,223,-0.8357853798607716,-0.8,0.0,1.0,420.0,911.0,1.0,0,229.0,1
224,224,-0.10824921767322837,-0.1,1.0,0.0,262.0,821.0,0.0,0,247.0,1
225,225,-0.4500842713403122,-0.5,1.0,0.0,466.0,886.0,0.0,0,558.0,1
226,226,0.5691821021650999,0.6,0.0,0.0,333.0,600.0,0.0,1,417.0,1
227,227,0.4499150382170575,0.4,0.0,0.0,277.0,752.0,0.0,1,461.0,1
228,228,-0.5958924387099536,-0.6,1.0,0.0,281.0,875.0,0.0,0,314.0,1
229,229,-0.49383547649252224,-0.5,1.0,0.0,434.0,844.0,0.0,0,312.0,1
230,230,-0.35432974424293207,-0.4,1.0,0.0,320.0,586.0,0.0,0,604.0,1
231,231,-0.047397271920357364,-0.0,1.0,0.0,380.0,830.0,1.0,1,390.0,0
232,232,0.24121494628031048,0.2,1.0,1.0,290.0,652.0,1.0,1,478.0,1
233,233,0.61318516975226,0.6,0.0,0.0,463.0,992.0,0.0,1,215.0,1
234,234,0.33189358500968213,0.3,1.0,1.0,336.0,832.0,1.0,1,322.0,1
235,235,0.1459308133127647,0.1,0.0,0.0,446.0,723.0,0.0,1,671.0,1
236,236,0.7184493633676782,0.7,0.0,0.0,259.0,999.0,0.0,1,42.0,1
237,237,-0.5776677117829856,-0.6,0.0,1.0,291.0,929.0,1.0,0,200.0,1
238,238,-0.21266252529983432,-0.2,1.0,0.0,329.0,720.0,0.0,0,421.0,1
239,239,-0.31769739906533456,-0.3,1.0,0.0,418.0,903.0,0.0,0,189.0,1
240,240,0.49864636513927907,0.5,1.0,1.0,260.0,666.0,1.0,1,434.0,1
241,241,0.3945236353648235,0.4,1.0,1.0,440.0,943.0,1.0,1,247.0,1
242,242,0.046331197638938226,0.0,1.0,1.0,339.0,750.0,0.0,0,551.0,0
243,243,-0.46382304461136886,-0.5,0.0,1.0,358.0,858.0,1.0,0,494.0,1
244,244,-0.5781831031600106,-0.6,1.0,0.0,377.0,734.0,0.0,0,309.0,1
245,245,-0.24324229136256947,-0.2,0.0,1.0,271.0,982.0,1.0,0,447.0,1
246,246,0.15016668456304527,0.2,1.0,1.0,315.0,519.0,1.0,1,1186.0,1
247,247,-0.6586945702019803,-0.7,1.0,0.0,358.0,586.0,0.0,0,476.0,1
248,248,0.835220748157503,0.8,1.0,1.0,475.0,950.0,1.0,1,215.0,1
249,249,0.8467307637871845,0.8,0.0,0.0,397.0,625.0,0.0,1,258.0,1
250,250,-0.5133156146823239,-0.5,1.0,0.0,378.0,930.0,0.0,0,222.0,1
251,251,0.8762032373254637,0.9,0.0,0.0,411.0,999.0,0.0,1,130.0,1
252,252,-0.00767910588707843,-0.0,0.0,1.0,464.0,797.0,0.0,1,439.0,0
253,253,-0.2889797065711679,-0.3,0.0,1.0,324.0,603.0,1.0,0,693.0,1
254,254,-0.5564808830159735,-0.6,1.0,0.0,440.0,680.0,0.0,0,340.0,1
255,255,0.19641704572500018,0.2,1.0,1.0,430.0,895.0,1.0,1,475.0,1
256,256,-0.2440348846859347,-0.2,1.0,0.0,361.0,830.0,0.0,0,669.0,1
257,257,-0.8951475052272181,-0.9,0.0,1.0,369.0,962.0,1.0,0,179.0,1
258,258,0.6934074151295432,0.7,0.0,0.0,451.0,660.0,0.0,1,309.0,1
259,259,0.5796032737512281,0.6,0.0,0.0,436.0,650.0,0.0,1,624.0,1
260,260,0.31522568705944354,0.3,1.0,1.0,442.0,795.0,1.0,1,383.0,1
261,261,0.47437625832442587,0.5,0.0,0.0,279.0,521.0,0.0,1,310.0,1
262,262,0.7849557442386849,0.8,1.0,1.0,311.0,753.0,1.0,1,266.0,1
263,263,-0.2744887138489438,-0.3,1.0,0.0,470.0,549.0,0.0,0,541.0,1
264,264,0.6132463788729775,0.6,0.0,0.0,283.0,700.0,0.0,1,167.0,1
265,265,0.05776710168235044,0.1,0.0,0.0,397.0,545.0,1.0,0,788.0,0
266,266,-0.08219569889982015,-0.1,0.0,1.0,454.0,766.0,1.0,0,300.0,1
267,267,0.6038703947601854,0.6,1.0,1.0,443.0,895.0,1.0,1,72.0,1
268,268,-0.512687140296129,-0.5,0.0,1.0,289.0,740.0,1.0,0,341.0,1
269,269,0.5884514879345198,0.6,0.0,0.0,252.0,911.0,0.0,1,367.0,1
270,270,-0.24607032481263913,-0.2,1.0,0.0,471.0,929.0,0.0,0,200.0,1
271,271,0.11580355474328352,0.1,0.0,0.0,412.0,649.0,0.0,1,1889.0,1
272,272,0.1089685760586715,0.1,1.0,1.0,370.0,533.0,0.0,0,827.0,0
273,273,0.8361435544383072,0.8,0.0,0.0,363.0,815.0,0.0,1,222.0,1
274,274,0.23607648480629273,0.2,1.0,1.0,338.0,702.0,0.0,0,850.0,0
275,275,-0.7082659134675158,-0.7,0.0,1.0,344.0,804.0,1.0,0,432.0,1
276,276,-0.7936414013872355,-0.8,0.0,1.0,364.0,571.0,1.0,0,925.0,1
277,277,0.890535918334476,0.9,1.0,1.0,471.0,707.0,1.0,1,282.0,1
278,278,-0.5582564571476737,-0.6,0.0,1.0,411.0,747.0,1.0,0,292.0,1
279,279,0.3116630532115897,0.3,1.0,1.0,285.0,573.0,1.0,1,402.0,1
280,280,-0.5345573230179392,-0.5,0.0,1.0,431.0,732.0,1.0,0,287.0,1
281,281,0.013166962586015796,0.0,0.0,0.0,380.0,633.0,0.0,1,1017.0,1
282,282,0.07946095622107907,0.1,1.0,1.0,253.0,925.0,1.0,1,782.0,1
283,283,-0.24189580872530325,-0.2,0.0,1.0,257.0,857.0,0.0,1,496.0,0
284,284,-0.014667163481369982,-0.0,0.0,1.0,377.0,776.0,1.0,0,817.0,1
285,285,0.8210476238144863,0.8,0.0,0.0,336.0,899.0,0.0,1,215.0,1
286,286,-0.21539899163447962,-0.2,1.0,0.0,293.0,661.0,0.0,0,446.0,1
287,287,-0.4145718155649121,-0.4,1.0,0.0,380.0,970.0,0.0,0,-120.0,1
288,288,0.8632958812622838,0.9,0.0,0.0,484.0,543.0,0.0,1,323.0,1
289,289,0.08788752239511444,0.1,1.0,1.0,402.0,763.0,1.0,1,905.0,1
290,290,0.5156149731012295,0.5,1.0,1.0,396.0,634.0,1.0,1,470.0,1
291,291,-0.3409162781955474,-0.3,0.0,1.0,304.0,718.0,1.0,0,378.0,1
292,292,-0.10063492001169483,-0.1,0.0,1.0,338.0,543.0,1.0,0,769.0,1
293,293,0.18863338068359037,0.2,0.0,0.0,448.0,919.0,0.0,1,673.0,1
294,294,0.7279472500380525,0.7,0.0,0.0,321.0,968.0,0.0,1,181.0,1
295,295,0.40014706801305333,0.4,0.0,0.0,458.0,591.0,0.0,1,251.0,1
296,296,0.8593760685658264,0.9,0.0,0.0,327.0,527.0,0.0,1,336.0,1
297,297,0.2853332761169932,0.3,0.0,0.0,444.0,632.0,0.0,1,674.0,1
298,298,-0.4503560701534632,-0.5,0.0,1.0,327.0,665.0,1.0,0,348.0,1
299,299,-0.7745787316283284,-0.8,0.0,1.0,457.0,736.0,1.0,0,497.0,1
300,300,-0.706024261694197,-0.7,1.0,0.0,498.0,739.0,0.0,0,263.0,1
301,301,0.36382815634075605,0.4,1.0,1.0,296.0,552.0,1.0,1,542.0,1
302,302,-0.32307500975705894,-0.3,0.0,1.0,485.0,838.0,1.0,0,147.0,1
303,303,-0.40328194739874657,-0.4,0.0,1.0,357.0,954.0,1.0,0,329.0,1
304,304,-0.8043018348869178,-0.8,0.0,1.0,326.0,880.0,1.0,0,364.0,1
305,305,0.39813609991388,0.4,0.0,0.0,364.0,974.0,0.0,1,582.0,1
306,306,-0.6264608130238488,-0.6,0.0,1.0,363.0,557.0,1.0,0,430.0,1
307,307,0.47912919201030413,0.5,0.0,0.0,333.0,785.0,0.0,1,282.0,1
308,308,-0.49110928061455134,-0.5,1.0,0.0,468.0,650.0,0.0,0,452.0,1
309,309,-0.8899211122818641,-0.9,0.0,1.0,290.0,747.0,1.0,0,343.0,1
310,310,-0.34215539534123807,-0.3,0.0,1.0,448.0,728.0,1.0,0,564.0,1
311,311,-0.006629131004933786,-0.0,1.0,0.0,397.0,925.0,0.0,0,208.0,1
312,312,-0.5432220925265246,-0.5,1.0,0.0,488.0,614.0,0.0,0,368.0,1
313,313,-0.12472811052089183,-0.1,0.0,1.0,437.0,549.0,1.0,0,424.0,1
314,314,-0.4552234328011184,-0.5,1.0,0.0,333.0,536.0,0.0,0,361.0,1
315,315,-0.12790258828263334,-0.1,1.0,0.0,453.0,994.0,0.0,0,623.0,1
316,316,-0.8458538506050632,-0.8,0.0,1.0,287.0,675.0,1.0,0,258.0,1
317,317,0.4489516824932215,0.4,0.0,0.0,300.0,727.0,0.0,1,593.0,1
318,318,-0.4482439333045743,-0.4,1.0,0.0,474.0,975.0,0.0,0,221.0,1
319,319,0.7336548395583206,0.7,0.0,0.0,368.0,629.0,0.0,1,403.0,1
320,320,-0.04191065444121944,-0.0,1.0,0.0,307.0,824.0,1.0,1,1739.0,0
321,321,-0.6618704559977318,-0.7,1.0,0.0,257.0,955.0,0.0,0,208.0,1
322,322,-0.7791869887674344,-0.8,1.0,0.0,277.0,812.0,0.0,0,151.0,1
323,323,0.604235914471089,0.6,0.0,0.0,299.0,932.0,0.0,1,9.0,1
324,324,-0.4416657712092656,-0.4,0.0,1.0,384.0,878.0,1.0,0,108.0,1
325,325,0.6030882291734069,0.6,0.0,0.0,465.0,980.0,0.0,1,165.0,1
326,326,0.6291942318800915,0.6,1.0,1.0,414.0,972.0,1.0,1,284.0,1
327,327,-0.8640842281420474,-0.9,0.0,1.0,412.0,751.0,1.0,0,267.0,1
328,328,0.4771537202643531,0.5,1.0,1.0,470.0,883.0,1.0,1,57.0,1
329,329,0.13547092462274224,0.1,1.0,1.0,272.0,676.0,1.0,1,632.0,1
330,330,-0.001224647561242298,-0.0,1.0,0.0,303.0,536.0,1.0,1,811.0,0
331,331,0.13640808827115192,0.1,0.0,0.0,450.0,687.0,0.0,1,1033.0,1
332,332,-0.08490152504395054,-0.1,0.0,1.0,290.0,701.0,1.0,0,769.0,1
333,333,0.10678883617332835,0.1,0.0,0.0,414.0,628.0,0.0,1,538.0,1
334,334,-0.7506071408669878,-0.8,0.0,1.0,481.0,612.0,1.0,0,617.0,1
335,335,-0.17765140182810257,-0.2,0.0,1.0,304.0,704.0,1.0,0,772.0,1
336,336,0.07669252483551803,0.1,1.0,1.0,313.0,597.0,0.0,0,1230.0,0
337,337,0.38356281357834343,0.4,1.0,1.0,386.0,642.0,1.0,1,542.0,1
338,338,-0.6774994853682226,-0.7,0.0,1.0,424.0,872.0,1.0,0,244.0,1
339,339,0.2728899697282602,0.3,0.0,0.0,415.0,630.0,0.0,1,665.0,1
340,340,-0.43686739271191827,-0.4,0.0,1.0,454.0,866.0,1.0,0,110.0,1
341,341,0.6065798910463279,0.6,1.0,1.0,490.0,636.0,1.0,1,284.0,1
342,342,-0.09608903085060705,-0.1,0.0,1.0,445.0,929.0,1.0,0,266.0,1
343,343,0.07444593393084253,0.1,0.0,0.0,388.0,813.0,0.0,1,789.0,1
344,344,0.13497082687038453,0.1,1.0,1.0,263.0,921.0,1.0,1,406.0,1
345,345,-0.15544176681750488,-0.2,0.0,1.0,465.0,971.0,0.0,1,134.0,0
346,346,-0.294189114227401,-0.3,0.0,1.0,393.0,770.0,1.0,0,367.0,1
347,347,0.046748517937408085,0.0,1.0,1.0,262.0,529.0,1.0,1,999.0,1
348,348,-0.11771587076252932,-0.1,0.0,1.0,344.0,869.0,1.0,0,477.0,1
349,349,0.6759462256152861,0.7,1.0,1.0,359.0,689.0,1.0,1,232.0,1
350,350,0.6277763382321099,0.6,0.0,0.0,387.0,826.0,0.0,1,337.0,1
351,351,0.07595166889065719,0.1,0.0,0.0,402.0,913.0,0.0,1,685.0,1
352,352,-0.36361764766810833,-0.4,1.0,0.0,460.0,736.0,0.0,0,254.0,1
353,353,-0.2986015216913055,-0.3,1.0,0.0,435.0,931.0,0.0,0,54.0,1
354,354,-0.6800621587984852,-0.7,1.0,0.0,338.0,642.0,0.0,0,270.0,1
355,355,0.47025036653807606,0.5,0.0,0.0,411.0,876.0,0.0,1,383.0,1
356,356,-0.6818289278414587,-0.7,0.0,1.0,389.0,750.0,1.0,0,181.0,1
357,357,0.1178761659659836,0.1,1.0,1.0,289.0,782.0,1.0,1,599.0,1
358,358,-0.22485764245052342,-0.2,0.0,1.0,313.0,541.0,1.0,0,566.0,1
359,359,0.6617762535886879,0.7,1.0,1.0,365.0,501.0,1.0,1,274.0,1
360,360,0.22281513042374324,0.2,1.0,1.0,299.0,630.0,1.0,1,601.0,1
361,361,-0.46668418122598504,-0.5,0.0,1.0,318.0,945.0,1.0,0,217.0,1
362,362,-0.08439379945435743,-0.1,0.0,1.0,428.0,724.0,1.0,0,428.0,1
363,363,0.5559296569372308,0.6,1.0,1.0,387.0,576.0,1.0,1,347.0,1
364,364,-0.3260392498692152,-0.3,1.0,0.0,414.0,753.0,0.0,0,423.0,1
365,365,0.5093237481826495,0.5,0.0,0.0,407.0,663.0,0.0,1,650.0,1
366,366,0.2687074937532056,0.3,0.0,0.0,286.0,804.0,0.0,1,270.0,1
367,367,-0.42584910602446246,-0.4,1.0,0.0,257.0,542.0,0.0,0,641.0,1
368,368,-0.5946285871654043,-0.6,1.0,0.0,483.0,689.0,0.0,0,278.0,1
369,369,0.5479349259453129,0.5,0.0,0.0,448.0,981.0,0.0,1,321.0,1
370,370,-0.08176332565422528,-0.1,1.0,0.0,496.0,565.0,0.0,0,619.0,1
371,371,0.6126966731733289,0.6,1.0,1.0,467.0,848.0,1.0,1,405.0,1
372,372,-0.030999254096591655,-0.0,0.0,1.0,255.0,675.0,0.0,1,530.0,0
373,373,-0.0153098777744759,-0.0,1.0,0.0,427.0,948.0,0.0,0,225.0,1
374,374,0.3165011010159967,0.3,1.0,1.0,411.0,559.0,1.0,1,490.0,1
375,375,0.4819814830437138,0.5,1.0,1.0,275.0,686.0,1.0,1,539.0,1
376,376,-0.28069304454314137,-0.3,0.0,1.0,496.0,707.0,1.0,0,477.0,1
377,377,-0.6016560648036504,-0.6,0.0,1.0,453.0,652.0,1.0,0,215.0,1
378,378,0.335673552542897,0.3,1.0,1.0,267.0,589.0,1.0,1,644.0,1
379,379,0.6187452310659679,0.6,1.0,1.0,312.0,868.0,1.0,1,70.0,1
380,380,-0.6439476607861203,-0.6,0.0,1.0,301.0,640.0,1.0,0,189.0,1
381,381,-0.16325451482888187,-0.2,1.0,0.0,412.0,687.0,0.0,0,631.0,1
382,382,0.5926144629408899,0.6,1.0,1.0,293.0,546.0,1.0,1,411.0,1
383,383,-0.5931494840720521,-0.6,1.0,0.0,317.0,584.0,0.0,0,509.0,1
384,384,-0.6420996865025064,-0.6,0.0,1.0,350.0,648.0,1.0,0,612.0,1
385,385,-0.6966223730095145,-0.7,0.0,1.0,291.0,599.0,1.0,0,410.0,1
386,386,0.6550624205557128,0.7,1.0,1.0,475.0,794.0,1.0,1,301.0,1
387,387,0.8561575544476049,0.9,1.0,1.0,370.0,662.0,1.0,1,218.0,1
388,388,0.4469371699953658,0.4,1.0,1.0,465.0,982.0,0.0,0,-17.0,0
389,389,0.7080914275051752,0.7,0.0,0.0,313.0,562.0,0.0,1,345.0,1
390,390,0.7536154658239694,0.8,1.0,1.0,452.0,968.0,1.0,1,150.0,1
391,391,0.8508955123786169,0.9,1.0,1.0,440.0,625.0,1.0,1,315.0,1
392,392,0.2440503413328342,0.2,0.0,0.0,440.0,971.0,0.0,1,299.0,1
393,393,-0.369331761591161,-0.4,0.0,1.0,484.0,577.0,1.0,0,519.0,1
394,394,-0.6850483295844768,-0.7,1.0,0.0,256.0,704.0,0.0,0,320.0,1
395,395,-0.7429380428062472,-0.7,1.0,0.0,340.0,676.0,0.0,0,344.0,1
396,396,0.17888374300347942,0.2,0.0,0.0,369.0,989.0,0.0,1,-148.0,1
397,397,0.04718398366554333,0.0,1.0,1.0,460.0,629.0,0.0,0,601.0,0
398,398,0.1830994824694986,0.2,1.0,1.0,338.0,527.0,0.0,0,705.0,0
399,399,-0.6390371316971382,-0.6,1.0,0.0,356.0,522.0,0.0,0,592.0,1
400,400,0.7447485160973496,0.7,0.0,0.0,305.0,958.0,0.0,1,207.0,1
401,401,0.5856596198261032,0.6,0.0,0.0,268.0,892.0,0.0,1,170.0,1
402,402,0.07423617128449289,0.1,1.0,1.0,447.0,768.0,1.0,1,305.0,1
403,403,0.7360296256679261,0.7,1.0,1.0,267.0,806.0,1.0,1,267.0,1
404,404,0.05639909858757508,0.1,0.0,0.0,419.0,826.0,0.0,1,215.0,1
405,405,0.5943003730597546,0.6,0.0,0.0,336.0,794.0,0.0,1,230.0,1
406,406,-0.5988265164124107,-0.6,1.0,0.0,492.0,688.0,0.0,0,290.0,1
407,407,-0.4835271465155655,-0.5,0.0,1.0,497.0,809.0,1.0,0,524.0,1
408,408,0.3643141074549848,0.4,0.0,0.0,400.0,605.0,0.0,1,625.0,1
409,409,0.25271800836310165,0.3,1.0,1.0,386.0,727.0,1.0,1,337.0,1
410,410,-0.7229884034524245,-0.7,1.0,0.0,415.0,519.0,0.0,0,246.0,1
411,411,-0.7336280954471494,-0.7,0.0,1.0,420.0,928.0,1.0,0,222.0,1
412,412,0.4598013398281454,0.5,0.0,0.0,410.0,508.0,0.0,1,392.0,1
413,413,0.0007065976523452644,0.0,1.0,1.0,410.0,821.0,0.0,0,279.0,0
414,414,-0.5255453549438966,-0.5,0.0,1.0,338.0,735.0,1.0,0,587.0,1
415,415,-0.7778182986311102,-0.8,1.0,0.0,315.0,528.0,0.0,0,547.0,1
416,416,0.569572419141403,0.6,0.0,0.0,291.0,906.0,0.0,1,273.0,1
417,417,-0.32431575026112536,-0.3,0.0,1.0,292.0,592.0,1.0,0,746.0,1
418,418,-0.8343110350927511,-0.8,0.0,1.0,260.0,936.0,1.0,0,234.0,1
419,419,0.8648382718650248,0.9,1.0,1.0,475.0,820.0,1.0,1,105.0,1
420,420,0.3322088312094348,0.3,0.0,0.0,355.0,952.0,1.0,0,683.0,0
421,421,-0.4340247565825025,-0.4,0.0,1.0,369.0,629.0,1.0,0,872.0,1
422,422,-0.0007753060820188118,-0.0,1.0,0.0,426.0,893.0,1.0,1,291.0,0
423,423,-0.5113545268779875,-0.5,1.0,0.0,255.0,519.0,0.0,0,556.0,1
424,424,0.35581510142857253,0.4,1.0,1.0,441.0,915.0,1.0,1,484.0,1
425,425,-0.6172585851706196,-0.6,0.0,1.0,429.0,570.0,1.0,0,851.0,1
426,426,0.11255458443776056,0.1,1.0,1.0,387.0,833.0,1.0,1,370.0,1
427,427,-0.8393515096332056,-0.8,0.0,1.0,493.0,559.0,1.0,0,478.0,1
428,428,-0.5664458924141395,-0.6,0.0,1.0,355.0,852.0,1.0,0,243.0,1
429,429,-0.8499434652038844,-0.8,0.0,1.0,464.0,525.0,1.0,0,401.0,1
430,430,0.8886505732775073,0.9,0.0,0.0,442.0,884.0,0.0,1,164.0,1
431,431,0.5607019623712574,0.6,0.0,0.0,311.0,960.0,0.0,1,149.0,1
432,432,-0.6488891346535912,-0.6,0.0,1.0,275.0,743.0,1.0,0,202.0,1
433,433,0.7033283569761389,0.7,1.0,1.0,450.0,625.0,1.0,1,595.0,1
434,434,0.02064607043246025,0.0,1.0,1.0,403.0,502.0,0.0,0,605.0,0
435,435,-0.07032103749989382,-0.1,1.0,0.0,371.0,735.0,0.0,0,874.0,1
436,436,0.5579221946258824,0.6,1.0,1.0,335.0,701.0,1.0,1,484.0,1
437,437,0.32977013855537163,0.3,0.0,0.0,402.0,755.0,0.0,1,273.0,1
438,438,-0.05348580667684821,-0.1,1.0,0.0,403.0,952.0,1.0,1,1095.0,0
439,439,-0.6544999340875177,-0.7,0.0,1.0,474.0,699.0,1.0,0,207.0,1
440,440,0.31677697573203367,0.3,0.0,0.0,459.0,506.0,0.0,1,895.0,1
441,441,0.6076910608251861,0.6,0.0,0.0,301.0,837.0,0.0,1,352.0,1
442,442,-0.1594225999163439,-0.2,1.0,0.0,456.0,861.0,0.0,0,263.0,1
443,443,-0.7743587989228948,-0.8,1.0,0.0,307.0,779.0,0.0,0,234.0,1
444,444,-0.42280105207466384,-0.4,1.0,0.0,317.0,581.0,0.0,0,382.0,1
445,445,0.5155680452331511,0.5,0.0,0.0,386.0,711.0,0.0,1,273.0,1
446,446,0.19057905932418773,0.2,0.0,0.0,286.0,776.0,0.0,1,468.0,1
447,447,0.007974849185407251,0.0,0.0,0.0,293.0,941.0,1.0,0,406.0,0
448,448,0.851424619351577,0.9,0.0,0.0,404.0,536.0,0.0,1,270.0,1
449,449,-0.1401500881325204,-0.1,1.0,0.0,439.0,944.0,0.0,0,547.0,1
450,450,-0.886772102638059,-0.9,1.0,0.0,442.0,649.0,0.0,0,509.0,1
451,451,-0.45118380521481977,-0.5,1.0,0.0,400.0,607.0,0.0,0,233.0,1
452,452,0.8886173263093545,0.9,0.0,0.0,332.0,858.0,0.0,1,130.0,1
453,453,-0.33497152249485496,-0.3,0.0,1.0,489.0,505.0,0.0,1,1896.0,0
454,454,-0.20369851691027852,-0.2,0.0,1.0,336.0,654.0,0.0,1,1030.0,0
455,455,-0.6678828041535145,-0.7,0.0,1.0,489.0,728.0,1.0,0,363.0,1
456,456,0.16627735192603332,0.2,1.0,1.0,268.0,950.0,0.0,0,492.0,0
457,457,0.6166880489321224,0.6,0.0,0.0,478.0,930.0,0.0,1,162.0,1
458,458,-0.1073463784910863,-0.1,1.0,0.0,305.0,991.0,1.0,1,924.0,0
459,459,-0.845542925336753,-0.8,0.0,1.0,385.0,633.0,1.0,0,362.0,1
460,460,0.6728462544785149,0.7,0.0,0.0,263.0,988.0,0.0,1,169.0,1
461,461,-0.1469808964055852,-0.1,0.0,1.0,428.0,546.0,1.0,0,656.0,1
462,462,-0.46138028894048894,-0.5,0.0,1.0,476.0,627.0,1.0,0,407.0,1
463,463,-0.8341805733127138,-0.8,0.0,1.0,337.0,936.0,1.0,0,287.0,1
464,464,0.7623608396253246,0.8,0.0,0.0,363.0,775.0,0.0,1,212.0,1
465,465,0.18368232070945456,0.2,0.0,0.0,406.0,624.0,0.0,1,620.0,1
466,466,0.28368324114558197,0.3,0.0,0.0,382.0,849.0,0.0,1,299.0,1
467,467,-0.6937506301770905,-0.7,1.0,0.0,343.0,879.0,0.0,0,398.0,1
468,468,-0.7588903299009662,-0.8,1.0,0.0,349.0,624.0,0.0,0,267.0,1
469,469,-0.42276642952655197,-0.4,1.0,0.0,370.0,642.0,0.0,0,628.0,1
470,470,0.7483585444838491,0.7,1.0,1.0,319.0,983.0,1.0,1,118.0,1
471,471,0.16195811728451182,0.2,1.0,1.0,368.0,642.0,0.0,0,830.0,0
472,472,0.17756039456721673,0.2,0.0,0.0,299.0,641.0,0.0,1,350.0,1
473,473,0.3368820124178481,0.3,1.0,1.0,269.0,630.0,1.0,1,641.0,1
474,474,0.3007165447923471,0.3,1.0,1.0,445.0,873.0,1.0,1,562.0,1
475,475,-0.4761249402195587,-0.5,1.0,0.0,457.0,860.0,0.0,0,63.0,1
476,476,-0.19846250832235757,-0.2,0.0,1.0,496.0,739.0,1.0,0,315.0,1
477,477,0.29524806679778537,0.3,1.0,1.0,396.0,608.0,1.0,1,986.0,1
478,478,0.4903864499516407,0.5,0.0,0.0,497.0,509.0,0.0,1,654.0,1
479,479,0.5043216647578262,0.5,0.0,0.0,479.0,962.0,0.0,1,239.0,1
480,480,0.1233106223072803,0.1,0.0,0.0,441.0,679.0,0.0,1,1090.0,1
481,481,0.7241996690023759,0.7,0.0,0.0,272.0,636.0,0.0,1,292.0,1
482,482,0.5160405080338116,0.5,1.0,1.0,482.0,855.0,1.0,1,363.0,1
483,483,0.13676186075884467,0.1,1.0,1.0,476.0,891.0,1.0,1,243.0,1
484,484,0.13891074169820217,0.1,1.0,1.0,427.0,678.0,1.0,1,235.0,1
485,485,-0.4883129953875252,-0.5,1.0,0.0,315.0,594.0,0.0,0,361.0,1
486,486,-0.842904725143949,-0.8,1.0,0.0,267.0,566.0,0.0,0,587.0,1
487,487,-0.5791352091106392,-0.6,0.0,1.0,271.0,931.0,1.0,0,218.0,1
488,488,-0.6800509411808102,-0.7,1.0,0.0,302.0,851.0,0.0,0,277.0,1
489,489,-0.5706942793118994,-0.6,1.0,0.0,368.0,595.0,0.0,0,417.0,1
490,490,-0.7251213028612958,-0.7,0.0,1.0,275.0,788.0,1.0,0,367.0,1
491,491,-0.37564453901595973,-0.4,1.0,0.0,269.0,582.0,0.0,0,459.0,1
492,492,0.8420204858581638,0.8,1.0,1.0,416.0,761.0,1.0,1,183.0,1
493,493,-0.5718118716448094,-0.6,1.0,0.0,396.0,708.0,0.0,0,336.0,1
494,494,0.16813402585706705,0.2,0.0,0.0,408.0,709.0,1.0,0,833.0,0
495,495,0.5425056187574205,0.5,0.0,0.0,405.0,599.0,0.0,1,426.0,1
496,496,0.44077574770688066,0.4,0.0,0.0,404.0,541.0,0.0,1,405.0,1
497,497,-0.4569913332026269,-0.5,1.0,0.0,444.0,889.0,0.0,0,37.0,1
498,498,-0.40291465632934914,-0.4,0.0,1.0,449.0,812.0,1.0,0,399.0,1
499,499,-0.09864830973749639,-0.1,1.0,0.0,378.0,671.0,0.0,0,531.0,1
500,500,0.6898234908648392,0.7,0.0,0.0,426.0,517.0,0.0,1,407.0,1
501,501,-0.49479255395217764,-0.5,0.0,1.0,407.0,638.0,1.0,0,525.0,1
502,502,-0.5102013195946399,-0.5,1.0,0.0,354.0,683.0,0.0,0,403.0,1
503,503,0.6395662582445795,0.6,0.0,0.0,255.0,798.0,0.0,1,217.0,1
504,504,0.3008930321855131,0.3,1.0,1.0,384.0,779.0,1.0,1,447.0,1
505,505,0.15889580578363616,0.2,0.0,0.0,489.0,865.0,0.0,1,896.0,1
506,506,0.6688581067340448,0.7,0.0,0.0,454.0,918.0,0.0,1,308.0,1
507,507,-0.3200630199471838,-0.3,1.0,0.0,389.0,787.0,0.0,0,104.0,1
508,508,-0.19117105383652544,-0.2,0.0,1.0,481.0,990.0,1.0,0,189.0,1
509,509,-0.09467316663697489,-0.1,1.0,0.0,485.0,679.0,0.0,0,906.0,1
510,510,-0.36641311836540524,-0.4,1.0,0.0,302.0,623.0,1.0,1,355.0,0
511,511,-0.6676109978500104,-0.7,0.0,1.0,302.0,800.0,1.0,0,248.0,1
512,512,0.6291188511399558,0.6,1.0,1.0,477.0,689.0,1.0,1,414.0,1
513,513,-0.0733207217806574,-0.1,0.0,1.0,278.0,848.0,0.0,1,484.0,0
514,514,-0.0917856204708275,-0.1,1.0,0.0,379.0,821.0,1.0,1,670.0,0
515,515,0.5057786447526279,0.5,0.0,0.0,496.0,937.0,0.0,1,207.0,1
516,516,-0.4022142607115057,-0.4,0.0,1.0,477.0,966.0,1.0,0,337.0,1
517,517,0.43951482463008895,0.4,0.0,0.0,308.0,560.0,0.0,1,412.0,1
518,518,-0.813961051885623,-0.8,1.0,0.0,413.0,755.0,0.0,0,202.0,1
519,519,-0.8884096236620747,-0.9,0.0,1.0,361.0,945.0,1.0,0,374.0,1
520,520,-0.8412881646438063,-0.8,0.0,1.0,294.0,881.0,1.0,0,175.0,1
521,521,-0.06297073833878519,-0.1,0.0,1.0,306.0,621.0,1.0,0,913.0,1
522,522,0.5989019654567099,0.6,0.0,0.0,469.0,998.0,0.0,1,263.0,1
523,523,-0.565948427996622,-0.6,0.0,1.0,371.0,643.0,1.0,0,466.0,1
524,524,0.07707341007232404,0.1,0.0,0.0,341.0,965.0,0.0,1,1134.0,1
525,525,0.04758293236781708,0.0,0.0,0.0,399.0,831.0,1.0,0,820.0,0
526,526,-0.8807022596896833,-0.9,1.0,0.0,410.0,731.0,0.0,0,159.0,1
527,527,-0.13145370834494696,-0.1,0.0,1.0,459.0,886.0,1.0,0,375.0,1
528,528,-0.3031240507512536,-0.3,0.0,1.0,496.0,530.0,1.0,0,484.0,1
529,529,0.22677712129464356,0.2,0.0,0.0,391.0,876.0,0.0,1,193.0,1
530,530,0.7476877221662955,0.7,1.0,1.0,303.0,973.0,1.0,1,274.0,1
531,531,-0.6122556954602785,-0.6,0.0,1.0,353.0,594.0,1.0,0,363.0,1
532,532,-0.7896263180469701,-0.8,1.0,0.0,278.0,973.0,0.0,0,539.0,1
533,533,0.3382550946125037,0.3,1.0,1.0,478.0,918.0,1.0,1,94.0,1
534,534,-0.8754296482836313,-0.9,0.0,1.0,340.0,715.0,1.0,0,325.0,1
535,535,0.03213916251282889,0.0,1.0,1.0,295.0,517.0,1.0,1,978.0,1
536,536,-0.013100822103467191,-0.0,1.0,0.0,293.0,854.0,0.0,0,783.0,1
537,537,-0.06280931958266955,-0.1,0.0,1.0,434.0,906.0,1.0,0,890.0,1
538,538,0.7039438257420964,0.7,1.0,1.0,344.0,953.0,1.0,1,73.0,1
539,539,0.4720234986968642,0.5,0.0,0.0,373.0,768.0,0.0,1,309.0,1
540,540,0.22100541147565,0.2,0.0,0.0,464.0,875.0,0.0,1,431.0,1
541,541,0.07910769028758813,0.1,1.0,1.0,444.0,775.0,1.0,1,421.0,1
542,542,-0.40479236886413766,-0.4,1.0,0.0,432.0,622.0,0.0,0,656.0,1
543,543,0.15719628932715468,0.2,0.0,0.0,485.0,617.0,0.0,1,468.0,1
544,544,0.10707314027595138,0.1,0.0,0.0,280.0,955.0,0.0,1,385.0,1
545,545,0.5332196041007818,0.5,0.0,0.0,326.0,696.0,0.0,1,378.0,1
546,546,-0.2897659315036323,-0.3,0.0,1.0,279.0,558.0,1.0,0,513.0,1
547,547,0.7570464422167696,0.8,1.0,1.0,479.0,915.0,1.0,1,216.0,1
548,548,0.860388099466124,0.9,1.0,1.0,379.0,514.0,1.0,1,587.0,1
549,549,-0.7371097783446537,-0.7,1.0,0.0,366.0,927.0,0.0,0,97.0,1
550,550,0.8319549848083353,0.8,0.0,0.0,357.0,726.0,0.0,1,497.0,1
551,551,-0.29091999444861005,-0.3,0.0,1.0,407.0,839.0,1.0,0,564.0,1
552,552,-0.2739023788795274,-0.3,1.0,0.0,498.0,569.0,0.0,0,343.0,1
553,553,0.8285103606751091,0.8,0.0,0.0,441.0,857.0,0.0,1,112.0,1
554,554,0.7887443037230341,0.8,1.0,1.0,451.0,514.0,1.0,1,555.0,1
555,555,0.5824429828923415,0.6,0.0,0.0,496.0,654.0,0.0,1,240.0,1
556,556,0.5144882687398661,0.5,1.0,1.0,457.0,727.0,1.0,1,676.0,1
557,557,-0.3014723331529312,-0.3,1.0,0.0,349.0,962.0,1.0,1,229.0,0
558,558,0.03821395338731581,0.0,0.0,0.0,412.0,927.0,1.0,0,1491.0,0
559,559,-0.29147732709931073,-0.3,0.0,1.0,251.0,948.0,1.0,0,171.0,1
560,560,0.602810386276233,0.6,0.0,0.0,372.0,853.0,0.0,1,205.0,1
561,561,0.5340514010452607,0.5,1.0,1.0,309.0,996.0,1.0,1,95.0,1
562,562,0.5913760127698876,0.6,0.0,0.0,421.0,783.0,0.0,1,336.0,1
563,563,0.6995762098661366,0.7,0.0,0.0,418.0,934.0,0.0,1,48.0,1
564,564,0.0130052783319905,0.0,0.0,0.0,324.0,935.0,0.0,1,701.0,1
565,565,-0.38264306189863717,-0.4,1.0,0.0,452.0,522.0,0.0,0,506.0,1
566,566,-0.6461008746440959,-0.6,0.0,1.0,320.0,929.0,1.0,0,121.0,1
567,567,0.6883322902359584,0.7,1.0,1.0,378.0,508.0,1.0,1,554.0,1
568,568,-0.0565834077803814,-0.1,0.0,1.0,488.0,873.0,1.0,0,539.0,1
569,569,0.37597489586241506,0.4,0.0,0.0,316.0,817.0,0.0,1,487.0,1
570,570,0.6021226486555115,0.6,1.0,1.0,346.0,723.0,1.0,1,261.0,1
571,571,0.4881010476818356,0.5,0.0,0.0,394.0,645.0,0.0,1,531.0,1
572,572,-0.734000207885166,-0.7,0.0,1.0,311.0,640.0,1.0,0,129.0,1
573,573,0.031057051223791987,0.0,0.0,0.0,410.0,676.0,1.0,0,624.0,0
574,574,-0.7985575892613288,-0.8,1.0,0.0,301.0,841.0,0.0,0,28.0,1
575,575,-0.22775188756121512,-0.2,1.0,0.0,435.0,536.0,0.0,0,979.0,1
576,576,-0.6687516048947659,-0.7,0.0,1.0,350.0,869.0,1.0,0,501.0,1
577,577,-0.3993566882373555,-0.4,0.0,1.0,281.0,868.0,1.0,0,-139.0,1
578,578,-0.24331853457207753,-0.2,0.0,1.0,390.0,724.0,1.0,0,806.0,1
579,579,-0.24619802067256402,-0.2,0.0,1.0,491.0,575.0,1.0,0,534.0,1
580,580,-0.3789455002214468,-0.4,0.0,1.0,372.0,576.0,1.0,0,812.0,1
581,581,-0.692881500502059,-0.7,1.0,0.0,451.0,764.0,0.0,0,205.0,1
582,582,-0.14933580112807954,-0.1,1.0,0.0,302.0,575.0,1.0,1,403.0,0
583,583,0.6759145962894552,0.7,1.0,1.0,323.0,857.0,1.0,1,200.0,1
584,584,-0.6101384316888057,-0.6,1.0,0.0,269.0,782.0,0.0,0,179.0,1
585,585,0.6860968295997291,0.7,1.0,1.0,265.0,656.0,1.0,1,399.0,1
586,586,0.13365836906987905,0.1,0.0,0.0,254.0,607.0,0.0,1,349.0,1
587,587,0.19629134059317888,0.2,0.0,0.0,494.0,880.0,0.0,1,96.0,1
588,588,-0.6647014484157139,-0.7,0.0,1.0,279.0,715.0,1.0,0,326.0,1
589,589,-0.7401013423317646,-0.7,0.0,1.0,453.0,574.0,1.0,0,483.0,1
590,590,0.5929577291145197,0.6,1.0,1.0,334.0,911.0,1.0,1,185.0,1
591,591,0.1135519096823211,0.1,1.0,1.0,263.0,837.0,1.0,1,650.0,1
592,592,-0.8592622641555104,-0.9,0.0,1.0,294.0,863.0,1.0,0,223.0,1
593,593,0.8163071642979484,0.8,0.0,0.0,328.0,565.0,0.0,1,307.0,1
594,594,0.3959121754528315,0.4,0.0,0.0,360.0,550.0,0.0,1,350.0,1
595,595,-0.7115751033008455,-0.7,0.0,1.0,291.0,687.0,1.0,0,322.0,1
596,596,0.18448334098203467,0.2,0.0,0.0,368.0,907.0,0.0,1,255.0,1
597,597,0.4148553908640479,0.4,1.0,1.0,465.0,869.0,1.0,1,276.0,1
598,598,0.04002012020328194,0.0,0.0,0.0,463.0,928.0,0.0,1,149.0,1
599,599,-0.10324012563024987,-0.1,1.0,0.0,376.0,536.0,1.0,1,1128.0,0
600,600,-0.6675319974224039,-0.7,0.0,1.0,435.0,698.0,1.0,0,157.0,1
601,601,0.09441804455720759,0.1,1.0,1.0,498.0,886.0,0.0,0,366.0,0
602,602,-0.29736385905797535,-0.3,0.0,1.0,401.0,532.0,1.0,0,747.0,1
603,603,-0.6082621195308033,-0.6,1.0,0.0,397.0,796.0,0.0,0,227.0,1
604,604,-0.8930869857143462,-0.9,0.0,1.0,440.0,519.0,1.0,0,531.0,1
605,605,0.48763443586879396,0.5,1.0,1.0,314.0,810.0,1.0,1,146.0,1
606,606,0.008352855152049532,0.0,1.0,1.0,298.0,915.0,0.0,0,287.0,0
607,607,-0.648976342395722,-0.6,1.0,0.0,323.0,606.0,0.0,0,531.0,1
608,608,0.3724219896032116,0.4,1.0,1.0,274.0,708.0,1.0,1,518.0,1
609,609,-0.2670511699155309,-0.3,0.0,1.0,282.0,760.0,0.0,1,88.0,0
610,610,-0.7459379681688614,-0.7,0.0,1.0,443.0,987.0,1.0,0,130.0,1
611,611,0.8399760194945148,0.8,0.0,0.0,313.0,802.0,0.0,1,155.0,1
612,612,-0.3323383279523139,-0.3,1.0,0.0,412.0,568.0,0.0,0,520.0,1
613,613,-0.7227355217446019,-0.7,0.0,1.0,388.0,818.0,1.0,0,484.0,1
614,614,-0.020216310201066956,-0.0,0.0,1.0,497.0,934.0,1.0,0,679.0,1
615,615,0.727746780186786,0.7,0.0,0.0,260.0,528.0,0.0,1,492.0,1
616,616,0.5926020488434404,0.6,1.0,1.0,429.0,836.0,1.0,1,185.0,1
617,617,-0.04064081672599151,-0.0,0.0,1.0,420.0,783.0,0.0,1,377.0,0
618,618,0.24576159792022534,0.2,0.0,0.0,401.0,895.0,0.0,1,414.0,1
619,619,0.5022120506042008,0.5,1.0,1.0,393.0,942.0,1.0,1,155.0,1
620,620,-0.12989113353752668,-0.1,0.0,1.0,446.0,664.0,1.0,0,1790.0,1
621,621,0.1495950990220759,0.1,0.0,0.0,266.0,751.0,0.0,1,1233.0,1
622,622,0.39857193933117674,0.4,1.0,1.0,482.0,568.0,1.0,1,620.0,1
623,623,-0.07178641176786327,-0.1,0.0,1.0,344.0,522.0,0.0,1,1844.0,0
624,624,0.21571523918922975,0.2,0.0,0.0,415.0,818.0,1.0,0,247.0,0
625,625,-0.17648474981618967,-0.2,0.0,1.0,283.0,580.0,1.0,0,1147.0,1
626,626,0.068956530752039,0.1,0.0,0.0,485.0,577.0,1.0,0,1548.0,0
627,627,-0.5198293682882207,-0.5,0.0,1.0,485.0,979.0,1.0,0,96.0,1
628,628,-0.0041089703878229855,-0.0,1.0,0.0,454.0,761.0,0.0,0,975.0,1
629,629,0.7809565467767648,0.8,1.0,1.0,426.0,571.0,1.0,1,313.0,1
630,630,-0.26442895378460984,-0.3,1.0,0.0,304.0,745.0,1.0,1,571.0,0
631,631,-0.7925454015338561,-0.8,0.0,1.0,494.0,976.0,1.0,0,260.0,1
632,632,0.8254470524538221,0.8,0.0,0.0,443.0,716.0,0.0,1,231.0,1
633,633,-0.597501807611813,-0.6,1.0,0.0,257.0,586.0,0.0,0,377.0,1
634,634,0.24576567606941035,0.2,1.0,1.0,479.0,994.0,1.0,1,437.0,1
635,635,-0.4814124769208318,-0.5,1.0,0.0,490.0,613.0,0.0,0,287.0,1
636,636,0.5573691476728114,0.6,0.0,0.0,425.0,667.0,0.0,1,488.0,1
637,637,-0.6034439884209761,-0.6,0.0,1.0,434.0,700.0,1.0,0,456.0,1
638,638,0.8551820859363769,0.9,1.0,1.0,494.0,993.0,1.0,1,143.0,1
639,639,0.5689869535235529,0.6,1.0,1.0,458.0,928.0,0.0,0,54.0,0
640,640,0.47908919813603734,0.5,1.0,1.0,323.0,867.0,1.0,1,130.0,1
641,641,-0.5149029605776594,-0.5,1.0,0.0,428.0,843.0,0.0,0,149.0,1
642,642,-0.35131499961362944,-0.4,0.0,1.0,289.0,919.0,1.0,0,342.0,1
643,643,-0.31945593753529633,-0.3,1.0,0.0,377.0,694.0,1.0,1,609.0,0
644,644,0.21474956582027305,0.2,1.0,1.0,292.0,531.0,1.0,1,747.0,1
645,645,0.5567943506292382,0.6,0.0,0.0,282.0,769.0,0.0,1,269.0,1
646,646,-0.699191218427359,-0.7,1.0,0.0,465.0,577.0,0.0,0,298.0,1
647,647,-0.31126349748094806,-0.3,1.0,0.0,339.0,571.0,0.0,0,640.0,1
648,648,0.2878272736678308,0.3,1.0,1.0,318.0,896.0,1.0,1,316.0,1
649,649,0.7067034186014806,0.7,1.0,1.0,291.0,915.0,1.0,1,124.0,1
650,650,0.1355615334827135,0.1,1.0,1.0,382.0,501.0,1.0,1,777.0,1
651,651,0.41811483773833336,0.4,1.0,1.0,363.0,677.0,1.0,1,370.0,1
652,652,-0.6762297855448942,-0.7,0.0,1.0,343.0,846.0,1.0,0,321.0,1
653,653,-0.4943208976509464,-0.5,1.0,0.0,379.0,510.0,0.0,0,481.0,1
654,654,-0.4890868721407869,-0.5,0.0,1.0,418.0,676.0,1.0,0,496.0,1
655,655,0.4926079489069425,0.5,0.0,0.0,427.0,667.0,0.0,1,446.0,1
656,656,0.6678695665059965,0.7,1.0,1.0,455.0,903.0,1.0,1,382.0,1
657,657,0.6030043720698163,0.6,1.0,1.0,353.0,661.0,1.0,1,576.0,1
658,658,0.2068172263850302,0.2,0.0,0.0,335.0,896.0,0.0,1,469.0,1
659,659,0.15792293440126948,0.2,1.0,1.0,357.0,665.0,1.0,1,498.0,1
660,660,-0.8567982663465554,-0.9,1.0,0.0,453.0,662.0,0.0,0,345.0,1
661,661,-0.012158141838767622,-0.0,0.0,1.0,324.0,854.0,0.0,1,1522.0,0
662,662,-0.0035568535922627653,-0.0,0.0,1.0,393.0,641.0,0.0,1,776.0,0
663,663,0.2150210152676758,0.2,0.0,0.0,257.0,915.0,0.0,1,48.0,1
664,664,0.1897862898812609,0.2,0.0,0.0,478.0,694.0,0.0,1,768.0,1
665,665,-0.09562548828390671,-0.1,0.0,1.0,408.0,547.0,1.0,0,315.0,1
666,666,-0.34512364598611855,-0.3,1.0,0.0,253.0,666.0,0.0,0,271.0,1
667,667,0.7383771030550034,0.7,0.0,0.0,432.0,803.0,0.0,1,95.0,1
668,668,-0.22232133179986902,-0.2,1.0,0.0,497.0,909.0,0.0,0,344.0,1
669,669,-0.3505157425436143,-0.4,1.0,0.0,482.0,803.0,0.0,0,135.0,1
670,670,-0.5626159555595611,-0.6,0.0,1.0,345.0,536.0,1.0,0,689.0,1
671,671,-0.34917665431530487,-0.3,0.0,1.0,298.0,810.0,1.0,0,692.0,1
672,672,0.26874694116008035,0.3,0.0,0.0,383.0,848.0,0.0,1,709.0,1
673,673,0.3702412162108851,0.4,0.0,0.0,452.0,582.0,0.0,1,1246.0,1
674,674,-0.3749383177050707,-0.4,1.0,0.0,422.0,939.0,0.0,0,209.0,1
675,675,-0.6864654294874781,-0.7,0.0,1.0,300.0,625.0,1.0,0,155.0,1
676,676,0.052339007167902074,0.1,1.0,1.0,316.0,831.0,1.0,1,993.0,1
677,677,0.23181805562337898,0.2,1.0,1.0,324.0,748.0,1.0,1,578.0,1
678,678,0.7053140280333087,0.7,0.0,0.0,398.0,546.0,0.0,1,516.0,1
679,679,0.14896772243472756,0.1,1.0,1.0,435.0,800.0,1.0,1,815.0,1
680,680,0.34880018827649606,0.3,1.0,1.0,284.0,763.0,1.0,1,293.0,1
681,681,-0.5584560130882494,-0.6,0.0,1.0,325.0,687.0,1.0,0,358.0,1
682,682,0.6693622893039198,0.7,1.0,1.0,472.0,811.0,1.0,1,307.0,1
683,683,-0.7649980733673969,-0.8,1.0,0.0,324.0,697.0,0.0,0,359.0,1
684,684,0.09145810542341481,0.1,0.0,0.0,420.0,501.0,1.0,0,1029.0,0
685,685,-0.6501114014617623,-0.7,0.0,1.0,468.0,730.0,1.0,0,252.0,1
686,686,0.4805423718391667,0.5,0.0,0.0,441.0,610.0,0.0,1,549.0,1
687,687,0.03661918844015355,0.0,1.0,1.0,259.0,781.0,1.0,1,180.0,1
688,688,-0.7673597097800515,-0.8,1.0,0.0,413.0,797.0,0.0,0,290.0,1
689,689,0.6311826128097952,0.6,1.0,1.0,349.0,595.0,1.0,1,536.0,1
690,690,-0.3545121605569952,-0.4,1.0,0.0,304.0,796.0,0.0,0,300.0,1
691,691,-0.48103674605936897,-0.5,0.0,1.0,299.0,521.0,1.0,0,620.0,1
692,692,-0.877578486910175,-0.9,1.0,0.0,314.0,907.0,0.0,0,159.0,1
693,693,0.8757821919733525,0.9,0.0,0.0,477.0,931.0,0.0,1,302.0,1
694,694,0.056535619921457836,0.1,1.0,1.0,478.0,929.0,1.0,1,443.0,1
695,695,0.46843340224834373,0.5,0.0,0.0,352.0,949.0,0.0,1,249.0,1
696,696,-0.08537073910211601,-0.1,0.0,1.0,318.0,904.0,1.0,0,678.0,1
697,697,-0.002886971081411227,-0.0,0.0,1.0,312.0,582.0,0.0,1,576.0,0
698,698,0.7745240999901576,0.8,1.0,1.0,409.0,952.0,1.0,1,169.0,1
699,699,0.31403131996393896,0.3,1.0,1.0,278.0,761.0,1.0,1,351.0,1
700,700,0.8459261553929088,0.8,0.0,0.0,324.0,895.0,0.0,1,281.0,1
701,701,-0.6249242381740663,-0.6,0.0,1.0,290.0,544.0,1.0,0,506.0,1
702,702,0.4062244839512069,0.4,0.0,0.0,296.0,558.0,0.0,1,366.0,1
703,703,-0.5343693737695231,-0.5,0.0,1.0,288.0,633.0,1.0,0,359.0,1
704,704,0.5907981451358871,0.6,1.0,1.0,289.0,585.0,1.0,1,276.0,1
705,705,-0.8851106014868005,-0.9,1.0,0.0,260.0,828.0,0.0,0,182.0,1
706,706,-0.2735318295893904,-0.3,1.0,0.0,415.0,816.0,0.0,0,589.0,1
707,707,-0.23811702546873914,-0.2,0.0,1.0,266.0,590.0,1.0,0,464.0,1
708,708,-0.03644317160439059,-0.0,0.0,1.0,414.0,897.0,0.0,1,409.0,0
709,709,0.3259754135868035,0.3,1.0,1.0,250.0,939.0,1.0,1,181.0,1
710,710,-0.8776821311735116,-0.9,0.0,1.0,353.0,964.0,1.0,0,133.0,1
711,711,-0.7024118142638229,-0.7,1.0,0.0,290.0,838.0,0.0,0,232.0,1
712,712,-0.7205253740658428,-0.7,0.0,1.0,326.0,907.0,1.0,0,197.0,1
713,713,0.2101440408936145,0.2,0.0,0.0,338.0,785.0,0.0,1,747.0,1
714,714,-0.6189834405512515,-0.6,0.0,1.0,413.0,547.0,1.0,0,420.0,1
715,715,0.4486284369180801,0.4,1.0,1.0,354.0,758.0,1.0,1,468.0,1
716,716,-0.8186317031919754,-0.8,0.0,1.0,402.0,626.0,1.0,0,422.0,1
717,717,-0.42538349649133067,-0.4,1.0,0.0,478.0,981.0,0.0,0,751.0,1
718,718,-0.7413375685046057,-0.7,0.0,1.0,422.0,610.0,1.0,0,268.0,1
719,719,0.010147889787387676,0.0,1.0,1.0,408.0,719.0,1.0,1,153.0,1
720,720,-0.410661595104245,-0.4,1.0,0.0,360.0,541.0,0.0,0,329.0,1
721,721,0.31717413376271775,0.3,1.0,1.0,395.0,581.0,1.0,1,954.0,1
722,722,-0.2454131645139943,-0.2,0.0,1.0,437.0,775.0,1.0,0,648.0,1
723,723,-0.07650557292837634,-0.1,0.0,1.0,415.0,577.0,0.0,1,528.0,0
724,724,-0.3407649947581567,-0.3,0.0,1.0,318.0,842.0,1.0,0,380.0,1
725,725,-0.4900191933125498,-0.5,1.0,0.0,420.0,893.0,0.0,0,127.0,1
726,726,-0.6087737933068036,-0.6,0.0,1.0,395.0,798.0,1.0,0,287.0,1
727,727,-0.7382896504805622,-0.7,1.0,0.0,254.0,738.0,0.0,0,338.0,1
728,728,-0.6361914823254847,-0.6,0.0,1.0,390.0,661.0,1.0,0,389.0,1
729,729,0.7412488210246942,0.7,0.0,0.0,407.0,985.0,0.0,1,-22.0,1
730,730,0.7167775393490655,0.7,1.0,1.0,331.0,823.0,1.0,1,196.0,1
731,731,-0.7667393982256138,-0.8,0.0,1.0,327.0,912.0,1.0,0,401.0,1
732,732,-0.20338317839436237,-0.2,0.0,1.0,486.0,922.0,0.0,1,202.0,0
733,733,-0.10611019237794228,-0.1,1.0,0.0,336.0,637.0,0.0,0,617.0,1
734,734,0.7895956231419096,0.8,1.0,1.0,430.0,964.0,1.0,1,86.0,1
735,735,0.6189165896155705,0.6,0.0,0.0,406.0,895.0,0.0,1,159.0,1
736,736,-0.19957417968683633,-0.2,1.0,0.0,350.0,916.0,0.0,0,294.0,1
737,737,0.01483881585586,0.0,1.0,1.0,483.0,551.0,1.0,1,646.0,1
738,738,0.1482689505088136,0.1,0.0,0.0,405.0,965.0,0.0,1,520.0,1
739,739,-0.5272488894779579,-0.5,0.0,1.0,309.0,749.0,1.0,0,492.0,1
740,740,-0.3950108377446365,-0.4,0.0,1.0,415.0,640.0,1.0,0,505.0,1
741,741,-0.8499918573284629,-0.8,1.0,0.0,336.0,985.0,0.0,0,319.0,1
742,742,-0.5898237331960954,-0.6,0.0,1.0,385.0,745.0,1.0,0,440.0,1
743,743,0.465412132038835,0.5,0.0,0.0,271.0,579.0,0.0,1,330.0,1
744,744,-0.5145963773812456,-0.5,1.0,0.0,258.0,999.0,0.0,0,-47.0,1
745,745,0.4828861523706093,0.5,1.0,1.0,297.0,795.0,1.0,1,278.0,1
746,746,0.4791766914851917,0.5,0.0,0.0,264.0,832.0,0.0,1,344.0,1
747,747,-0.662720920627156,-0.7,1.0,0.0,426.0,701.0,0.0,0,433.0,1
748,748,0.06189544759224164,0.1,0.0,0.0,343.0,606.0,0.0,1,941.0,1
749,749,0.31335995848434217,0.3,0.0,0.0,447.0,720.0,0.0,1,443.0,1
750,750,0.7329972195628965,0.7,0.0,0.0,292.0,528.0,0.0,1,490.0,1
751,751,-0.0880408274955149,-0.1,0.0,1.0,331.0,800.0,1.0,0,349.0,1
752,752,-0.16025854322986222,-0.2,1.0,0.0,479.0,666.0,0.0,0,575.0,1
753,753,-0.5594505479598668,-0.6,0.0,1.0,468.0,654.0,1.0,0,388.0,1
754,754,0.09703200039056081,0.1,1.0,1.0,396.0,928.0,1.0,1,316.0,1
755,755,0.10798754458860615,0.1,1.0,1.0,491.0,587.0,1.0,1,842.0,1
756,756,0.5825879831400042,0.6,1.0,1.0,318.0,775.0,1.0,1,97.0,1
757,757,0.12806360328907662,0.1,1.0,1.0,366.0,751.0,1.0,1,303.0,1
758,758,0.10622091408589152,0.1,0.0,0.0,439.0,658.0,0.0,1,433.0,1
759,759,0.19474528383370837,0.2,0.0,0.0,276.0,883.0,0.0,1,1071.0,1
760,760,-0.3810970958227735,-0.4,0.0,1.0,364.0,755.0,0.0,1,81.0,0
761,761,0.5974839849819743,0.6,0.0,0.0,497.0,979.0,0.0,1,224.0,1
762,762,-0.3653847164060199,-0.4,0.0,1.0,438.0,916.0,1.0,0,266.0,1
763,763,0.043705965674846414,0.0,0.0,0.0,393.0,991.0,1.0,0,516.0,0
764,764,0.1675747595825411,0.2,0.0,0.0,444.0,807.0,0.0,1,479.0,1
765,765,-0.47007130526098967,-0.5,0.0,1.0,256.0,902.0,0.0,1,52.0,0
766,766,0.7300919260561839,0.7,1.0,1.0,435.0,995.0,1.0,1,370.0,1
767,767,-0.36329920425695894,-0.4,1.0,0.0,487.0,733.0,0.0,0,400.0,1
768,768,0.05419950456530187,0.1,1.0,1.0,282.0,549.0,1.0,1,1189.0,1
769,769,0.6099304316932143,0.6,1.0,1.0,254.0,500.0,1.0,1,676.0,1
770,770,0.43627166290258657,0.4,1.0,1.0,254.0,545.0,1.0,1,461.0,1
771,771,0.0952677625997771,0.1,1.0,1.0,339.0,905.0,1.0,1,596.0,1
772,772,-0.6820932796015479,-0.7,1.0,0.0,468.0,825.0,0.0,0,187.0,1
773,773,0.46685903453183786,0.5,0.0,0.0,425.0,926.0,0.0,1,139.0,1
774,774,-0.4686463542902984,-0.5,1.0,0.0,294.0,740.0,0.0,0,386.0,1
775,775,-0.041690591105759234,-0.0,0.0,1.0,267.0,895.0,0.0,1,348.0,0
776,776,-0.14116084176947208,-0.1,0.0,1.0,322.0,603.0,1.0,0,515.0,1
777,777,-0.7566952204060876,-0.8,1.0,0.0,376.0,791.0,0.0,0,133.0,1
778,778,0.019991014656903117,0.0,1.0,1.0,272.0,855.0,0.0,0,833.0,0
779,779,0.38578381930519,0.4,1.0,1.0,265.0,698.0,1.0,1,237.0,1
780,780,0.3878656872660965,0.4,0.0,0.0,384.0,578.0,0.0,1,348.0,1
781,781,0.7863458353936478,0.8,0.0,0.0,313.0,758.0,0.0,1,199.0,1
782,782,-0.7958966649651372,-0.8,0.0,1.0,366.0,879.0,1.0,0,395.0,1
783,783,0.5984016893898746,0.6,1.0,1.0,325.0,964.0,1.0,1,191.0,1
784,784,0.32008441162636403,0.3,1.0,1.0,421.0,813.0,1.0,1,206.0,1
785,785,-0.22179023321021174,-0.2,1.0,0.0,317.0,861.0,0.0,0,252.0,1
786,786,-0.41947193192871723,-0.4,0.0,1.0,315.0,851.0,1.0,0,784.0,1
787,787,-0.7444055944354427,-0.7,1.0,0.0,273.0,650.0,0.0,0,507.0,1
788,788,0.27436184083399706,0.3,0.0,0.0,334.0,819.0,0.0,1,227.0,1
789,789,0.5317249465945825,0.5,0.0,0.0,370.0,670.0,0.0,1,840.0,1
790,790,0.2546522590333037,0.3,0.0,0.0,476.0,826.0,0.0,1,978.0,1
791,791,-0.6663267852200345,-0.7,1.0,0.0,404.0,589.0,0.0,0,417.0,1
792,792,-0.3002402173549056,-0.3,1.0,0.0,386.0,662.0,0.0,0,452.0,1
793,793,-0.41138648185050214,-0.4,1.0,0.0,359.0,803.0,0.0,0,308.0,1
794,794,0.6660098629508734,0.7,0.0,0.0,347.0,512.0,0.0,1,351.0,1
795,795,0.5691336893384819,0.6,1.0,1.0,320.0,762.0,1.0,1,468.0,1
796,796,0.7576073112438698,0.8,1.0,1.0,399.0,635.0,1.0,1,306.0,1
797,797,0.637139819223678,0.6,0.0,0.0,342.0,914.0,0.0,1,274.0,1
798,798,0.0859000144683002,0.1,1.0,1.0,371.0,569.0,0.0,0,620.0,0
799,799,-0.1966290832544293,-0.2,1.0,0.0,469.0,508.0,0.0,0,553.0,1
800,800,0.40157846557196464,0.4,1.0,1.0,270.0,889.0,1.0,1,421.0,1
801,801,-0.050646332451513176,-0.1,0.0,1.0,448.0,593.0,0.0,1,849.0,0
802,802,-0.6598548523224719,-0.7,1.0,0.0,372.0,779.0,0.0,0,359.0,1
803,803,0.6169271021865029,0.6,1.0,1.0,476.0,972.0,0.0,0,242.0,0
804,804,0.7258140381463044,0.7,1.0,1.0,278.0,661.0,1.0,1,451.0,1
805,805,-0.701489548847644,-0.7,0.0,1.0,444.0,595.0,1.0,0,521.0,1
806,806,-0.4721000094332135,-0.5,1.0,0.0,338.0,859.0,0.0,0,503.0,1
807,807,-0.5316527557634841,-0.5,0.0,1.0,374.0,678.0,1.0,0,448.0,1
808,808,0.45629562498953613,0.5,1.0,1.0,255.0,511.0,1.0,1,564.0,1
809,809,-0.23494745518772409,-0.2,1.0,0.0,254.0,545.0,0.0,0,371.0,1
810,810,0.0865460045836679,0.1,0.0,0.0,305.0,929.0,0.0,1,1216.0,1
811,811,0.3435201681289183,0.3,0.0,0.0,347.0,910.0,1.0,0,173.0,0
812,812,0.718727685253577,0.7,0.0,0.0,263.0,893.0,0.0,1,374.0,1
813,813,-0.45427787878311215,-0.5,0.0,1.0,404.0,584.0,1.0,0,452.0,1
814,814,0.824243745074036,0.8,0.0,0.0,352.0,505.0,0.0,1,493.0,1
815,815,-0.6390376640813349,-0.6,0.0,1.0,481.0,574.0,1.0,0,455.0,1
816,816,-0.5173564671857935,-0.5,1.0,0.0,421.0,939.0,0.0,0,70.0,1
817,817,-0.4328999762690653,-0.4,0.0,1.0,338.0,965.0,1.0,0,317.0,1
818,818,-0.30143717631700373,-0.3,0.0,1.0,365.0,545.0,1.0,0,270.0,1
819,819,0.34526723661289693,0.3,1.0,1.0,480.0,953.0,1.0,1,307.0,1
820,820,0.8956195145133864,0.9,0.0,0.0,271.0,916.0,0.0,1,143.0,1
821,821,-0.09108338667594362,-0.1,0.0,1.0,480.0,823.0,0.0,1,287.0,0
822,822,0.2931835249300955,0.3,0.0,0.0,363.0,573.0,0.0,1,874.0,1
823,823,0.7929120481232678,0.8,1.0,1.0,366.0,783.0,1.0,1,321.0,1
824,824,0.6988994200764377,0.7,1.0,1.0,380.0,993.0,1.0,1,267.0,1
825,825,-0.5314871888042032,-0.5,1.0,0.0,258.0,842.0,0.0,0,210.0,1
826,826,-0.49754937941479593,-0.5,0.0,1.0,463.0,746.0,1.0,0,1111.0,1
827,827,-0.7058233748480882,-0.7,0.0,1.0,372.0,788.0,1.0,0,420.0,1
828,828,-0.8562398907587548,-0.9,1.0,0.0,396.0,561.0,0.0,0,213.0,1
829,829,-0.7443083096927169,-0.7,1.0,0.0,366.0,856.0,0.0,0,558.0,1
830,830,-0.655202836512043,-0.7,1.0,0.0,288.0,909.0,0.0,0,233.0,1
831,831,0.5095096366307946,0.5,1.0,1.0,322.0,762.0,1.0,1,556.0,1
832,832,-0.3400455153813615,-0.3,1.0,0.0,494.0,511.0,0.0,0,355.0,1
833,833,-0.5898982522300897,-0.6,0.0,1.0,400.0,840.0,1.0,0,490.0,1
834,834,0.24017792150424933,0.2,1.0,1.0,423.0,767.0,1.0,1,580.0,1
835,835,0.44823081878157034,0.4,0.0,0.0,274.0,859.0,0.0,1,777.0,1
836,836,-0.58399072261838,-0.6,0.0,1.0,449.0,900.0,1.0,0,231.0,1
837,837,0.5057858810431727,0.5,0.0,0.0,478.0,625.0,0.0,1,417.0,1
838,838,-0.3804379050165252,-0.4,1.0,0.0,264.0,532.0,0.0,0,304.0,1
839,839,0.6428350581213241,0.6,0.0,0.0,281.0,769.0,0.0,1,220.0,1
840,840,0.17130428397802377,0.2,1.0,1.0,393.0,625.0,0.0,0,1152.0,0
841,841,-0.4999980552991079,-0.5,0.0,1.0,360.0,855.0,1.0,0,315.0,1
842,842,-0.30119704748281806,-0.3,0.0,1.0,284.0,786.0,1.0,0,330.0,1
843,843,-0.3527535412999271,-0.4,0.0,1.0,389.0,592.0,0.0,1,799.0,0
844,844,0.09038108643253873,0.1,0.0,0.0,485.0,885.0,0.0,1,530.0,1
845,845,-0.5545234296144194,-0.6,1.0,0.0,332.0,776.0,0.0,0,212.0,1
846,846,0.6297295315455936,0.6,1.0,1.0,400.0,914.0,1.0,1,246.0,1
847,847,0.1958147428332463,0.2,0.0,0.0,340.0,681.0,0.0,1,549.0,1
848,848,-0.24117822552533463,-0.2,0.0,1.0,489.0,955.0,0.0,1,746.0,0
849,849,0.5446161645988735,0.5,1.0,1.0,294.0,675.0,1.0,1,361.0,1
850,850,0.26096050364577794,0.3,1.0,1.0,462.0,562.0,1.0,1,556.0,1
851,851,-0.12268077375135111,-0.1,1.0,0.0,310.0,675.0,0.0,0,395.0,1
852,852,0.7811370898927245,0.8,0.0,0.0,493.0,801.0,0.0,1,316.0,1
853,853,-0.809957391412409,-0.8,1.0,0.0,479.0,665.0,0.0,0,216.0,1
854,854,-0.4272030508134546,-0.4,1.0,0.0,440.0,699.0,0.0,0,291.0,1
855,855,0.6997250173714974,0.7,0.0,0.0,285.0,992.0,0.0,1,163.0,1
856,856,-0.25233636234834533,-0.3,1.0,0.0,361.0,666.0,0.0,0,663.0,1
857,857,-0.03155175829475021,-0.0,1.0,0.0,255.0,526.0,0.0,0,1359.0,1
858,858,-0.5843504008487623,-0.6,0.0,1.0,438.0,951.0,1.0,0,341.0,1
859,859,-0.24117731651052843,-0.2,0.0,1.0,489.0,660.0,1.0,0,831.0,1
860,860,0.43947795964487646,0.4,0.0,0.0,475.0,746.0,0.0,1,209.0,1
861,861,0.8531789125567043,0.9,0.0,0.0,318.0,923.0,0.0,1,249.0,1
862,862,0.10466825480544106,0.1,0.0,0.0,433.0,647.0,1.0,0,880.0,0
863,863,0.44511211507600856,0.4,0.0,0.0,336.0,602.0,0.0,1,442.0,1
864,864,-0.8729462552793307,-0.9,1.0,0.0,478.0,535.0,0.0,0,337.0,1
865,865,0.02125069841282634,0.0,1.0,1.0,361.0,907.0,1.0,1,222.0,1
866,866,0.372416399979245,0.4,1.0,1.0,497.0,924.0,1.0,1,59.0,1
867,867,0.2520077946889522,0.3,0.0,0.0,298.0,876.0,0.0,1,226.0,1
868,868,-0.2784584453931849,-0.3,1.0,0.0,388.0,714.0,0.0,0,688.0,1
869,869,0.284435451124032,0.3,1.0,1.0,439.0,967.0,1.0,1,194.0,1
870,870,0.637008819975302,0.6,1.0,1.0,396.0,804.0,1.0,1,330.0,1
871,871,-0.1748790728197258,-0.2,0.0,1.0,456.0,844.0,1.0,0,460.0,1
872,872,-0.3574919992146641,-0.4,0.0,1.0,493.0,659.0,1.0,0,598.0,1
873,873,-0.2539329864357408,-0.3,0.0,1.0,429.0,684.0,1.0,0,597.0,1
874,874,-0.5724840889035684,-0.6,1.0,0.0,379.0,985.0,0.0,0,66.0,1
875,875,-0.6429383582169492,-0.6,1.0,0.0,301.0,749.0,0.0,0,410.0,1
876,876,-0.7606829014419673,-0.8,1.0,0.0,480.0,794.0,0.0,0,276.0,1
877,877,0.20424935052666948,0.2,0.0,0.0,443.0,766.0,0.0,1,381.0,1
878,878,-0.6719197151624708,-0.7,1.0,0.0,416.0,962.0,0.0,0,152.0,1
879,879,0.8488260304896179,0.8,1.0,1.0,300.0,692.0,1.0,1,248.0,1
880,880,0.4950185374558206,0.5,1.0,1.0,376.0,534.0,1.0,1,460.0,1
881,881,-0.0031670300261833484,-0.0,1.0,0.0,484.0,676.0,1.0,1,550.0,0
882,882,0.030174981013785795,0.0,0.0,0.0,459.0,656.0,0.0,1,555.0,1
883,883,-0.7681846540848338,-0.8,0.0,1.0,383.0,500.0,1.0,0,717.0,1
884,884,0.8421539809292847,0.8,1.0,1.0,253.0,916.0,1.0,1,211.0,1
885,885,0.16210930513971367,0.2,1.0,1.0,369.0,566.0,1.0,1,775.0,1
886,886,0.13707534638921615,0.1,1.0,1.0,303.0,699.0,1.0,1,648.0,1
887,887,-0.07671543263412206,-0.1,0.0,1.0,355.0,931.0,0.0,1,284.0,0
888,888,0.7408407480071556,0.7,0.0,0.0,389.0,727.0,0.0,1,214.0,1
889,889,-0.35214019122858975,-0.4,0.0,1.0,459.0,998.0,1.0,0,183.0,1
890,890,0.562892369607407,0.6,0.0,0.0,328.0,972.0,0.0,1,360.0,1
891,891,-0.7331819481714392,-0.7,1.0,0.0,293.0,928.0,0.0,0,149.0,1
892,892,0.16058609725862694,0.2,0.0,0.0,444.0,827.0,0.0,1,109.0,1
893,893,0.8181215597947539,0.8,1.0,1.0,309.0,896.0,1.0,1,175.0,1
894,894,-0.25578572514780784,-0.3,0.0,1.0,387.0,926.0,1.0,0,437.0,1
895,895,-0.13594710397799392,-0.1,1.0,0.0,323.0,962.0,0.0,0,335.0,1
896,896,-0.43375776124648135,-0.4,0.0,1.0,259.0,666.0,1.0,0,575.0,1
897,897,-0.8598162440857454,-0.9,1.0,0.0,357.0,874.0,0.0,0,139.0,1
898,898,-0.6039167985707976,-0.6,0.0,1.0,328.0,680.0,1.0,0,502.0,1
899,899,-0.6108646051848889,-0.6,0.0,1.0,266.0,571.0,1.0,0,413.0,1
900,900,0.01804740292537721,0.0,1.0,1.0,485.0,518.0,0.0,0,837.0,0
901,901,-0.7435816408003291,-0.7,0.0,1.0,368.0,563.0,1.0,0,339.0,1
902,902,0.21721122777734203,0.2,0.0,0.0,450.0,699.0,0.0,1,361.0,1
903,903,0.3919874846163157,0.4,0.0,0.0,499.0,873.0,0.0,1,128.0,1
904,904,-0.7851314202666786,-0.8,1.0,0.0,360.0,517.0,0.0,0,313.0,1
905,905,-0.5241801974374236,-0.5,1.0,0.0,287.0,816.0,0.0,0,117.0,1
906,906,0.0242550525089964,0.0,0.0,0.0,408.0,987.0,1.0,0,965.0,0
907,907,0.6807266167028142,0.7,1.0,1.0,445.0,587.0,1.0,1,668.0,1
908,908,-0.6629009446205638,-0.7,1.0,0.0,477.0,646.0,0.0,0,347.0,1
909,909,-0.43056127173664493,-0.4,0.0,1.0,387.0,957.0,1.0,0,336.0,1
910,910,0.1643318127761456,0.2,1.0,1.0,473.0,593.0,1.0,1,334.0,1
911,911,0.14013448980812948,0.1,0.0,0.0,391.0,638.0,0.0,1,321.0,1
912,912,-0.5427165531773699,-0.5,0.0,1.0,389.0,914.0,1.0,0,397.0,1
913,913,0.26482720842173635,0.3,1.0,1.0,419.0,503.0,0.0,0,668.0,0
914,914,-0.6627394075181654,-0.7,0.0,1.0,351.0,617.0,1.0,0,562.0,1
915,915,0.8964619636547627,0.9,0.0,0.0,461.0,825.0,0.0,1,194.0,1
916,916,0.5300607050744645,0.5,1.0,1.0,273.0,591.0,1.0,1,496.0,1
917,917,-0.7395893262004162,-0.7,0.0,1.0,457.0,815.0,1.0,0,348.0,1
918,918,0.5388425098220321,0.5,1.0,1.0,448.0,703.0,1.0,1,789.0,1
919,919,0.25117833664589473,0.3,0.0,0.0,431.0,736.0,0.0,1,273.0,1
920,920,0.6389697058385521,0.6,0.0,0.0,297.0,687.0,0.0,1,376.0,1
921,921,0.6704693389513735,0.7,1.0,1.0,442.0,956.0,1.0,1,302.0,1
922,922,-0.8409053352705343,-0.8,0.0,1.0,413.0,582.0,1.0,0,1035.0,1
923,923,-0.7155236574811448,-0.7,1.0,0.0,491.0,801.0,0.0,0,378.0,1
924,924,-0.3569592341316996,-0.4,1.0,0.0,250.0,944.0,0.0,0,566.0,1
925,925,-0.8913262687818155,-0.9,1.0,0.0,299.0,752.0,0.0,0,49.0,1
926,926,-0.3214592767829234,-0.3,0.0,1.0,279.0,657.0,1.0,0,494.0,1
927,927,-0.30405664046879755,-0.3,0.0,1.0,439.0,572.0,1.0,0,489.0,1
928,928,-0.5172266996336952,-0.5,1.0,0.0,499.0,850.0,0.0,0,221.0,1
929,929,-0.607798488825779,-0.6,1.0,0.0,433.0,829.0,0.0,0,328.0,1
930,930,0.2566394742800705,0.3,1.0,1.0,362.0,873.0,1.0,1,555.0,1
931,931,-0.3443411057122876,-0.3,0.0,1.0,337.0,798.0,1.0,0,1165.0,1
932,932,-0.2519323884507487,-0.3,1.0,0.0,345.0,543.0,0.0,0,422.0,1
933,933,0.744901697283645,0.7,1.0,1.0,489.0,933.0,1.0,1,198.0,1
934,934,-0.49274629311263585,-0.5,0.0,1.0,399.0,939.0,1.0,0,482.0,1
935,935,0.1647524166734876,0.2,1.0,1.0,271.0,760.0,1.0,1,289.0,1
936,936,0.70866098516138,0.7,0.0,0.0,445.0,574.0,0.0,1,501.0,1
937,937,-0.25140584474860583,-0.3,1.0,0.0,337.0,801.0,0.0,0,972.0,1
938,938,-0.21443652066032004,-0.2,1.0,0.0,409.0,796.0,0.0,0,305.0,1
939,939,0.10344544590669502,0.1,0.0,0.0,325.0,578.0,1.0,0,717.0,0
940,940,-0.4517461509259402,-0.5,1.0,0.0,338.0,739.0,0.0,0,363.0,1
941,941,-0.10372632905859169,-0.1,0.0,1.0,486.0,982.0,1.0,0,372.0,1
942,942,-0.6336169255128419,-0.6,1.0,0.0,262.0,971.0,0.0,0,157.0,1
943,943,0.736260352846177,0.7,0.0,0.0,417.0,764.0,0.0,1,279.0,1
944,944,0.8241425005208459,0.8,0.0,0.0,344.0,735.0,0.0,1,381.0,1
945,945,0.09784268379227845,0.1,0.0,0.0,277.0,983.0,1.0,0,80.0,0
946,946,-0.4063757982501482,-0.4,1.0,0.0,367.0,891.0,0.0,0,382.0,1
947,947,-0.7070114917732724,-0.7,1.0,0.0,380.0,594.0,0.0,0,336.0,1
948,948,-0.8086736618962852,-0.8,0.0,1.0,310.0,689.0,1.0,0,271.0,1
949,949,-0.2624868516354817,-0.3,0.0,1.0,299.0,893.0,1.0,0,458.0,1
950,950,-0.12990989586907686,-0.1,0.0,1.0,464.0,563.0,1.0,0,663.0,1
951,951,0.011352811708558952,0.0,1.0,1.0,261.0,806.0,1.0,1,473.0,1
952,952,0.07648927565589958,0.1,0.0,0.0,310.0,967.0,0.0,1,853.0,1
953,953,0.25087848822467607,0.3,0.0,0.0,495.0,882.0,0.0,1,353.0,1
954,954,0.09575234138926303,0.1,0.0,0.0,280.0,799.0,1.0,0,671.0,0
955,955,-0.3657404189187199,-0.4,1.0,0.0,428.0,815.0,0.0,0,217.0,1
956,956,0.4175736055945264,0.4,1.0,1.0,264.0,766.0,1.0,1,310.0,1
957,957,0.5194599011255888,0.5,0.0,0.0,467.0,544.0,0.0,1,449.0,1
958,958,0.4503627558723421,0.5,0.0,0.0,313.0,747.0,0.0,1,570.0,1
959,959,0.1933972958453286,0.2,1.0,1.0,448.0,768.0,1.0,1,324.0,1
960,960,0.46869089432308353,0.5,0.0,0.0,456.0,690.0,0.0,1,574.0,1
961,961,-0.07385032513750389,-0.1,1.0,0.0,471.0,712.0,1.0,1,467.0,0
962,962,-0.5575648914007176,-0.6,0.0,1.0,423.0,740.0,1.0,0,327.0,1
963,963,-0.5531121356384927,-0.6,1.0,0.0,336.0,916.0,0.0,0,258.0,1
964,964,-0.38323897036920107,-0.4,1.0,0.0,444.0,693.0,0.0,0,653.0,1
965,965,0.08281670233122818,0.1,1.0,1.0,279.0,551.0,1.0,1,520.0,1
966,966,-0.4955200173111148,-0.5,0.0,1.0,435.0,781.0,1.0,0,344.0,1
967,967,-0.2524400137962415,-0.3,1.0,0.0,486.0,500.0,0.0,0,654.0,1
968,968,0.8493335946436794,0.8,0.0,0.0,370.0,636.0,0.0,1,184.0,1
969,969,0.5904535008175035,0.6,1.0,1.0,440.0,827.0,1.0,1,423.0,1
970,970,-0.355496853489377,-0.4,0.0,1.0,277.0,755.0,1.0,0,368.0,1
971,971,0.7760065013711236,0.8,0.0,0.0,486.0,838.0,0.0,1,656.0,1
972,972,-0.15053000112625758,-0.2,0.0,1.0,278.0,582.0,1.0,0,590.0,1
973,973,-0.043286859839313574,-0.0,1.0,0.0,355.0,888.0,0.0,0,497.0,1
974,974,0.710656654971289,0.7,1.0,1.0,402.0,707.0,1.0,1,301.0,1
975,975,0.18879746228134675,0.2,1.0,1.0,372.0,701.0,1.0,1,497.0,1
976,976,0.8727302211661431,0.9,1.0,1.0,336.0,738.0,1.0,1,626.0,1
977,977,0.11910299271425961,0.1,0.0,0.0,319.0,877.0,0.0,1,834.0,1
978,978,0.18279000291678804,0.2,1.0,1.0,288.0,626.0,1.0,1,1156.0,1
979,979,-0.23073659174065553,-0.2,1.0,0.0,404.0,992.0,0.0,0,14.0,1
980,980,-0.43094678885755755,-0.4,0.0,1.0,327.0,981.0,1.0,0,352.0,1
981,981,0.8193787900818187,0.8,1.0,1.0,282.0,858.0,1.0,1,180.0,1
982,982,-0.3115324526108274,-0.3,0.0,1.0,498.0,548.0,1.0,0,784.0,1
983,983,0.4168406988300294,0.4,0.0,0.0,380.0,756.0,0.0,1,254.0,1
984,984,0.18683318880524358,0.2,1.0,1.0,354.0,649.0,1.0,1,477.0,1
985,985,0.2623815437243876,0.3,0.0,0.0,499.0,921.0,1.0,0,430.0,0
986,986,0.5733568048608252,0.6,0.0,0.0,325.0,670.0,0.0,1,535.0,1
987,987,0.0055319489757270635,0.0,0.0,0.0,366.0,997.0,0.0,1,297.0,1
988,988,0.8283145306304508,0.8,0.0,0.0,254.0,867.0,0.0,1,299.0,1
989,989,-0.6914786641582394,-0.7,0.0,1.0,335.0,967.0,1.0,0,228.0,1
990,990,-0.39791910884683346,-0.4,1.0,0.0,331.0,583.0,0.0,0,526.0,1
991,991,0.7393814382030591,0.7,0.0,0.0,297.0,904.0,0.0,1,269.0,1
992,992,0.46235872677378953,0.5,0.0,0.0,331.0,553.0,0.0,1,436.0,1
993,993,-0.7634749317854485,-0.8,1.0,0.0,315.0,648.0,0.0,0,327.0,1
994,994,-0.09330960331105453,-0.1,1.0,0.0,283.0,966.0,1.0,1,321.0,0
995,995,0.37673767275022907,0.4,1.0,1.0,351.0,666.0,1.0,1,263.0,1
996,996,0.6558925769808565,0.7,1.0,1.0,443.0,787.0,1.0,1,260.0,1
997,997,-0.4648098512746097,-0.5,1.0,0.0,485.0,770.0,0.0,0,585.0,1
998,998,-0.3409738857076158,-0.3,0.0,1.0,417.0,781.0,1.0,0,412.0,1
999,999,0.2934526398494911,0.3,1.0,1.0,496.0,500.0,1.0,1,1244.0,1
1000,1000,0.2175962503012422,0.2,1.0,1.0,326.0,746.0,1.0,1,758.0,1
1001,1001,-0.6685580581079944,-0.7,0.0,1.0,453.0,847.0,1.0,0,200.0,1
1002,1002,-0.056546992989556566,-0.1,0.0,1.0,402.0,702.0,0.0,1,696.0,0
1003,1003,0.18282056103200606,0.2,0.0,0.0,302.0,711.0,1.0,0,697.0,0
1004,1004,-0.5218092650454472,-0.5,1.0,0.0,391.0,846.0,0.0,0,263.0,1
1005,1005,-0.7681223016993297,-0.8,0.0,1.0,337.0,687.0,1.0,0,246.0,1
1006,1006,-0.8603640809731166,-0.9,1.0,0.0,355.0,599.0,0.0,0,236.0,1
1007,1007,0.24326618864316274,0.2,0.0,0.0,263.0,834.0,0.0,1,1393.0,1
1008,1008,0.5914046184919007,0.6,1.0,1.0,281.0,557.0,1.0,1,472.0,1
1009,1009,-0.4669316947561542,-0.5,0.0,1.0,367.0,699.0,1.0,0,514.0,1
1010,1010,-0.6511434405370926,-0.7,0.0,1.0,267.0,767.0,1.0,0,226.0,1
1011,1011,0.2621737011313875,0.3,1.0,1.0,378.0,702.0,1.0,1,320.0,1
1012,1012,0.4136857389604921,0.4,0.0,0.0,476.0,651.0,0.0,1,433.0,1
1013,1013,0.4126839346144119,0.4,1.0,1.0,358.0,866.0,1.0,1,166.0,1
1014,1014,-0.8524657809451,-0.9,1.0,0.0,428.0,638.0,0.0,0,234.0,1
1015,1015,0.10969943793741066,0.1,1.0,1.0,323.0,572.0,1.0,1,755.0,1
1016,1016,0.2482445580183844,0.2,0.0,0.0,381.0,807.0,0.0,1,202.0,1
1017,1017,-0.2758607434334732,-0.3,1.0,0.0,453.0,805.0,0.0,0,132.0,1
1018,1018,0.7076884486176863,0.7,0.0,0.0,469.0,685.0,0.0,1,176.0,1
1019,1019,0.4804076155514051,0.5,1.0,1.0,418.0,837.0,1.0,1,235.0,1
1020,1020,0.27803205232334005,0.3,0.0,0.0,324.0,517.0,0.0,1,949.0,1
1021,1021,-0.8530370626768224,-0.9,0.0,1.0,413.0,779.0,1.0,0,368.0,1
1022,1022,0.16036430261530177,0.2,1.0,1.0,343.0,979.0,1.0,1,278.0,1
1023,1023,-0.3074196793513555,-0.3,0.0,1.0,376.0,745.0,1.0,0,649.0,1
1024,1024,-0.7660445031022746,-0.8,0.0,1.0,416.0,919.0,1.0,0,275.0,1
1025,1025,0.06514619878412486,0.1,0.0,0.0,438.0,573.0,0.0,1,1419.0,1
1026,1026,-0.3382951622834137,-0.3,1.0,0.0,349.0,644.0,0.0,0,557.0,1
1027,1027,0.13505228825349935,0.1,0.0,0.0,374.0,734.0,1.0,0,552.0,0
1028,1028,0.25867141742096755,0.3,0.0,0.0,397.0,500.0,0.0,1,753.0,1
1029,1029,0.42455192830016386,0.4,1.0,1.0,336.0,600.0,1.0,1,694.0,1
1030,1030,-0.07494539117298493,-0.1,0.0,1.0,400.0,527.0,1.0,0,703.0,1
1031,1031,0.38273057708432423,0.4,1.0,1.0,383.0,818.0,1.0,1,249.0,1
1032,1032,-0.6403207425772626,-0.6,1.0,0.0,337.0,518.0,0.0,0,735.0,1
1033,1033,-0.6287920799793647,-0.6,1.0,0.0,340.0,797.0,0.0,0,173.0,1
1034,1034,-0.3930323533945177,-0.4,0.0,1.0,365.0,928.0,1.0,0,447.0,1
1035,1035,-0.6346204763243557,-0.6,0.0,1.0,327.0,734.0,1.0,0,679.0,1
1036,1036,-0.6317618616824123,-0.6,1.0,0.0,326.0,582.0,0.0,0,412.0,1
1037,1037,-0.06805886199440525,-0.1,1.0,0.0,321.0,835.0,0.0,0,394.0,1
1038,1038,0.39458008139013556,0.4,1.0,1.0,491.0,915.0,1.0,1,564.0,1
1039,1039,-0.4010570641739197,-0.4,1.0,0.0,407.0,517.0,0.0,0,446.0,1
1040,1040,-0.07781865573428348,-0.1,0.0,1.0,397.0,506.0,0.0,1,747.0,0
1041,1041,0.3165195481209452,0.3,0.0,0.0,340.0,678.0,0.0,1,552.0,1
1042,1042,0.5109069608188378,0.5,1.0,1.0,256.0,549.0,1.0,1,455.0,1
1043,1043,0.6386990641755194,0.6,0.0,0.0,310.0,536.0,0.0,1,464.0,1
1044,1044,0.5242956789548917,0.5,1.0,1.0,407.0,913.0,1.0,1,310.0,1
1045,1045,-0.7592667437117703,-0.8,0.0,1.0,444.0,979.0,1.0,0,177.0,1
1046,1046,0.46477546008453274,0.5,0.0,0.0,378.0,664.0,0.0,1,668.0,1
1047,1047,-0.5994949015302864,-0.6,0.0,1.0,405.0,684.0,1.0,0,321.0,1
1048,1048,0.004765582960583825,0.0,1.0,1.0,258.0,713.0,0.0,0,819.0,0
1049,1049,-0.5794737952093165,-0.6,1.0,0.0,393.0,778.0,0.0,0,259.0,1
1050,1050,0.06853838550541791,0.1,1.0,1.0,252.0,965.0,1.0,1,573.0,1
1051,1051,-0.3799785772075829,-0.4,0.0,1.0,281.0,893.0,1.0,0,546.0,1
1052,1052,0.36994097376700086,0.4,0.0,0.0,424.0,668.0,0.0,1,458.0,1
1053,1053,-0.06853211661721059,-0.1,1.0,0.0,358.0,562.0,0.0,0,730.0,1
1054,1054,-0.6329946400853554,-0.6,0.0,1.0,334.0,679.0,1.0,0,337.0,1
1055,1055,0.05971881943107016,0.1,0.0,0.0,421.0,749.0,0.0,1,240.0,1
1056,1056,0.49768067702809093,0.5,0.0,0.0,383.0,942.0,0.0,1,175.0,1
1057,1057,-0.08486202090124417,-0.1,1.0,0.0,434.0,606.0,0.0,0,300.0,1
1058,1058,-0.09411326117192853,-0.1,1.0,0.0,332.0,556.0,0.0,0,592.0,1
1059,1059,-0.35705488553640363,-0.4,0.0,1.0,424.0,703.0,1.0,0,283.0,1
1060,1060,0.7786135681807712,0.8,0.0,0.0,370.0,688.0,0.0,1,182.0,1
1061,1061,-0.48293866457680673,-0.5,0.0,1.0,443.0,788.0,1.0,0,379.0,1
1062,1062,0.5877112713407541,0.6,1.0,1.0,309.0,572.0,1.0,1,539.0,1
1063,1063,-0.7675609060752537,-0.8,0.0,1.0,266.0,715.0,1.0,0,249.0,1
1064,1064,-0.5226000429040905,-0.5,0.0,1.0,369.0,621.0,1.0,0,290.0,1
1065,1065,0.4413426495506211,0.4,0.0,0.0,315.0,534.0,0.0,1,771.0,1
1066,1066,-0.2386775873900513,-0.2,0.0,1.0,459.0,924.0,1.0,0,207.0,1
1067,1067,-0.178345065123641,-0.2,1.0,0.0,313.0,500.0,0.0,0,947.0,1
1068,1068,0.44889322003285936,0.4,0.0,0.0,310.0,931.0,0.0,1,119.0,1
1069,1069,0.4145528418152643,0.4,0.0,0.0,472.0,574.0,0.0,1,914.0,1
1070,1070,0.4681611288002413,0.5,1.0,1.0,457.0,722.0,1.0,1,221.0,1
1071,1071,0.31067766345776826,0.3,0.0,0.0,371.0,564.0,0.0,1,455.0,1
1072,1072,-0.26442744985792077,-0.3,0.0,1.0,441.0,989.0,1.0,0,590.0,1
1073,1073,0.18914346847487173,0.2,1.0,1.0,333.0,599.0,1.0,1,648.0,1
1074,1074,-0.6388928577313577,-0.6,1.0,0.0,282.0,996.0,0.0,0,72.0,1
1075,1075,0.25822544560509797,0.3,0.0,0.0,464.0,744.0,0.0,1,572.0,1
1076,1076,0.5599419561312976,0.6,1.0,1.0,292.0,691.0,1.0,1,497.0,1
1077,1077,0.7735149618584752,0.8,1.0,1.0,419.0,539.0,1.0,1,492.0,1
1078,1078,0.013886856459550345,0.0,1.0,1.0,366.0,732.0,0.0,0,1542.0,0
1079,1079,0.6575598587433998,0.7,0.0,0.0,332.0,515.0,0.0,1,463.0,1
1080,1080,-0.8330467231820718,-0.8,0.0,1.0,294.0,647.0,1.0,0,479.0,1
1081,1081,0.7613715996628817,0.8,0.0,0.0,476.0,945.0,0.0,1,169.0,1
1082,1082,-0.48990634696284613,-0.5,0.0,1.0,469.0,978.0,1.0,0,163.0,1
1083,1083,0.3172523438303453,0.3,1.0,1.0,268.0,605.0,1.0,1,467.0,1
1084,1084,0.42246984986487657,0.4,1.0,1.0,326.0,897.0,1.0,1,397.0,1
1085,1085,0.36890018635479416,0.4,0.0,0.0,420.0,817.0,0.0,1,393.0,1
1086,1086,0.1390646059070556,0.1,1.0,1.0,380.0,547.0,1.0,1,843.0,1
1087,1087,-0.031921567431058784,-0.0,0.0,1.0,449.0,533.0,0.0,1,848.0,0
1088,1088,-0.7528517054354471,-0.8,0.0,1.0,325.0,865.0,1.0,0,350.0,1
1089,1089,0.7037049274623918,0.7,1.0,1.0,316.0,667.0,1.0,1,357.0,1
1090,1090,0.6032498850995797,0.6,1.0,1.0,442.0,986.0,1.0,1,12.0,1
1091,1091,0.5644216802251877,0.6,0.0,0.0,456.0,600.0,0.0,1,854.0,1
1092,1092,-0.41595751438724843,-0.4,0.0,1.0,361.0,549.0,1.0,0,710.0,1
1093,1093,0.732400751474079,0.7,1.0,1.0,344.0,565.0,1.0,1,481.0,1
1094,1094,0.6955437794890608,0.7,0.0,0.0,320.0,924.0,0.0,1,306.0,1
1095,1095,0.34984735180281545,0.3,1.0,1.0,478.0,605.0,0.0,0,277.0,0
1096,1096,-0.5932204015886764,-0.6,0.0,1.0,414.0,862.0,1.0,0,604.0,1
1097,1097,0.31925086945704606,0.3,0.0,0.0,342.0,570.0,0.0,1,1158.0,1
1098,1098,0.4369134299750327,0.4,0.0,0.0,378.0,781.0,0.0,1,671.0,1
1099,1099,-0.06253511210926233,-0.1,1.0,0.0,444.0,968.0,0.0,0,158.0,1
1100,1100,-0.5757691598943573,-0.6,1.0,0.0,271.0,980.0,0.0,0,219.0,1
1101,1101,-0.591744576169172,-0.6,0.0,1.0,289.0,850.0,1.0,0,181.0,1
1102,1102,0.2740256992057556,0.3,0.0,0.0,274.0,662.0,0.0,1,734.0,1
1103,1103,-0.4004391254988046,-0.4,1.0,0.0,264.0,930.0,0.0,0,266.0,1
1104,1104,-0.8382560219118625,-0.8,1.0,0.0,383.0,658.0,0.0,0,499.0,1
1105,1105,-0.2266095108425542,-0.2,0.0,1.0,345.0,940.0,1.0,0,185.0,1
1106,1106,-0.24223450706354077,-0.2,0.0,1.0,489.0,906.0,1.0,0,395.0,1
1107,1107,-0.6614697457442958,-0.7,0.0,1.0,306.0,953.0,1.0,0,161.0,1
1108,1108,0.13286879796997175,0.1,1.0,1.0,268.0,739.0,1.0,1,573.0,1
1109,1109,0.8499712831393734,0.8,1.0,1.0,401.0,523.0,1.0,1,646.0,1
1110,1110,0.08826084020610059,0.1,1.0,1.0,413.0,670.0,1.0,1,307.0,1
1111,1111,-0.057350285963921555,-0.1,1.0,0.0,293.0,836.0,0.0,0,251.0,1
1112,1112,0.021809964843659935,0.0,1.0,1.0,267.0,992.0,0.0,0,251.0,0
1113,1113,0.19847796431429254,0.2,1.0,1.0,273.0,634.0,1.0,1,2183.0,1
1114,1114,-0.1920954349959092,-0.2,0.0,1.0,314.0,709.0,1.0,0,657.0,1
1115,1115,-0.6963241408567816,-0.7,0.0,1.0,276.0,549.0,1.0,0,645.0,1
1116,1116,-0.44423499978743203,-0.4,0.0,1.0,393.0,712.0,1.0,0,435.0,1
1117,1117,-0.8272114578652511,-0.8,1.0,0.0,346.0,634.0,0.0,0,360.0,1
1118,1118,0.7484568571146871,0.7,1.0,1.0,411.0,799.0,1.0,1,310.0,1
1119,1119,0.12884203938022754,0.1,0.0,0.0,301.0,728.0,0.0,1,1171.0,1
1120,1120,-0.5505430801615319,-0.6,1.0,0.0,268.0,830.0,0.0,0,152.0,1
1121,1121,0.7021140455388516,0.7,0.0,0.0,318.0,723.0,0.0,1,229.0,1
1122,1122,0.01752681173189863,0.0,0.0,0.0,356.0,600.0,1.0,0,634.0,0
1123,1123,0.24940567021833615,0.2,1.0,1.0,274.0,517.0,1.0,1,699.0,1
1124,1124,0.8382804668410172,0.8,1.0,1.0,378.0,877.0,1.0,1,225.0,1
1125,1125,-0.6558356836509498,-0.7,0.0,1.0,370.0,922.0,1.0,0,158.0,1
1126,1126,-0.7177104477217215,-0.7,0.0,1.0,318.0,904.0,1.0,0,378.0,1
1127,1127,0.15880591102246522,0.2,0.0,0.0,403.0,739.0,0.0,1,408.0,1
1128,1128,0.42058162206109195,0.4,0.0,0.0,374.0,755.0,0.0,1,471.0,1
1129,1129,0.08799161255026422,0.1,0.0,0.0,327.0,903.0,0.0,1,590.0,1
1130,1130,-0.008811753133692979,-0.0,1.0,0.0,415.0,616.0,0.0,0,519.0,1
1131,1131,0.8856272829425523,0.9,0.0,0.0,366.0,940.0,0.0,1,104.0,1
1132,1132,0.2434750557190698,0.2,0.0,0.0,391.0,589.0,0.0,1,660.0,1
1133,1133,0.3317403472947399,0.3,0.0,0.0,316.0,568.0,0.0,1,316.0,1
1134,1134,0.7047743406253645,0.7,0.0,0.0,391.0,744.0,0.0,1,245.0,1
1135,1135,0.42345786218436376,0.4,1.0,1.0,311.0,931.0,1.0,1,328.0,1
1136,1136,0.47997053255794075,0.5,1.0,1.0,465.0,974.0,1.0,1,181.0,1
1137,1137,0.7599387045629126,0.8,0.0,0.0,301.0,840.0,0.0,1,-51.0,1
1138,1138,0.22590900083286758,0.2,0.0,0.0,492.0,729.0,0.0,1,619.0,1
1139,1139,0.26488431199989193,0.3,0.0,0.0,436.0,536.0,0.0,1,428.0,1
1140,1140,0.1275753803775329,0.1,1.0,1.0,330.0,799.0,0.0,0,31.0,0
1141,1141,0.7039357599812625,0.7,1.0,1.0,441.0,917.0,0.0,0,-138.0,0
1142,1142,0.10209311531157128,0.1,0.0,0.0,397.0,934.0,0.0,1,449.0,1
1143,1143,0.8083838295484523,0.8,1.0,1.0,342.0,664.0,1.0,1,404.0,1
1144,1144,0.08010022952007434,0.1,0.0,0.0,370.0,669.0,0.0,1,701.0,1
1145,1145,-0.6732327164524118,-0.7,0.0,1.0,424.0,901.0,1.0,0,315.0,1
1146,1146,-0.7386120805447324,-0.7,1.0,0.0,377.0,994.0,0.0,0,59.0,1
1147,1147,0.8732128397883879,0.9,0.0,0.0,334.0,875.0,0.0,1,231.0,1
1148,1148,-0.3296672311267843,-0.3,1.0,0.0,429.0,868.0,0.0,0,83.0,1
1149,1149,-0.5934709935642359,-0.6,0.0,1.0,262.0,533.0,1.0,0,655.0,1
1150,1150,-0.30293500051070343,-0.3,1.0,0.0,492.0,727.0,0.0,0,591.0,1
1151,1151,-0.7104320116270912,-0.7,1.0,0.0,361.0,680.0,0.0,0,329.0,1
1152,1152,-0.21335306896504214,-0.2,0.0,1.0,276.0,995.0,1.0,0,219.0,1
1153,1153,0.544331012573758,0.5,1.0,1.0,368.0,767.0,1.0,1,225.0,1
1154,1154,0.2741535297619161,0.3,1.0,1.0,334.0,995.0,1.0,1,31.0,1
1155,1155,-0.2960733180173073,-0.3,0.0,1.0,358.0,684.0,1.0,0,208.0,1
1156,1156,0.20760587297556998,0.2,0.0,0.0,332.0,962.0,1.0,0,-74.0,0
1157,1157,0.5593636693757252,0.6,1.0,1.0,382.0,654.0,1.0,1,344.0,1
1158,1158,0.8882636204213646,0.9,0.0,0.0,407.0,654.0,0.0,1,799.0,1
1159,1159,0.07029888705658094,0.1,1.0,1.0,468.0,600.0,1.0,1,652.0,1
1160,1160,0.30563495941275975,0.3,1.0,1.0,363.0,590.0,1.0,1,837.0,1
1161,1161,0.31392555659149635,0.3,1.0,1.0,381.0,889.0,1.0,1,200.0,1
1162,1162,-0.8345940389473065,-0.8,0.0,1.0,409.0,766.0,1.0,0,265.0,1
1163,1163,0.852176894547715,0.9,0.0,0.0,297.0,931.0,0.0,1,92.0,1
1164,1164,0.40868358899038204,0.4,1.0,1.0,492.0,696.0,1.0,1,782.0,1
1165,1165,-0.25442553242430177,-0.3,0.0,1.0,285.0,898.0,1.0,0,657.0,1
1166,1166,0.06055006656450046,0.1,0.0,0.0,395.0,853.0,1.0,0,972.0,0
1167,1167,-0.12762494441851013,-0.1,1.0,0.0,436.0,779.0,0.0,0,315.0,1
1168,1168,-0.6153696117936748,-0.6,1.0,0.0,440.0,523.0,0.0,0,307.0,1
1169,1169,-0.6868243423788464,-0.7,0.0,1.0,410.0,719.0,1.0,0,631.0,1
1170,1170,-0.3648322979199018,-0.4,1.0,0.0,267.0,587.0,0.0,0,326.0,1
1171,1171,-0.8559954896117932,-0.9,0.0,1.0,325.0,742.0,1.0,0,453.0,1
1172,1172,0.560612891959393,0.6,1.0,1.0,341.0,897.0,1.0,1,52.0,1
1173,1173,0.01650499643938086,0.0,0.0,0.0,323.0,509.0,0.0,1,788.0,1
1174,1174,0.7781921303104952,0.8,1.0,1.0,416.0,790.0,1.0,1,454.0,1
1175,1175,-0.6991280471038485,-0.7,1.0,0.0,274.0,983.0,0.0,0,163.0,1
1176,1176,-0.08864707270755401,-0.1,0.0,1.0,415.0,914.0,1.0,0,2081.0,1
1177,1177,-0.03210403299522502,-0.0,0.0,1.0,284.0,532.0,1.0,0,1074.0,1
1178,1178,-0.053740398591459626,-0.1,0.0,1.0,393.0,772.0,0.0,1,485.0,0
1179,1179,-0.11149929345401277,-0.1,0.0,1.0,256.0,607.0,1.0,0,1057.0,1
1180,1180,0.20216191693657037,0.2,1.0,1.0,492.0,583.0,1.0,1,705.0,1
1181,1181,0.4410675009296511,0.4,0.0,0.0,438.0,987.0,0.0,1,275.0,1
1182,1182,-0.6226745075371413,-0.6,1.0,0.0,323.0,516.0,0.0,0,331.0,1
1183,1183,-0.2576312723356202,-0.3,1.0,0.0,407.0,984.0,0.0,0,249.0,1
1184,1184,-0.705134439508007,-0.7,0.0,1.0,328.0,917.0,1.0,0,405.0,1
1185,1185,-0.046622696708439215,-0.0,0.0,1.0,350.0,671.0,1.0,0,549.0,1
1186,1186,-0.12455311731942575,-0.1,1.0,0.0,294.0,565.0,1.0,1,391.0,0
1187,1187,-0.3433184902235581,-0.3,0.0,1.0,254.0,674.0,1.0,0,222.0,1
1188,1188,0.8762339836075855,0.9,1.0,1.0,465.0,779.0,1.0,1,216.0,1
1189,1189,-0.20183341163120583,-0.2,1.0,0.0,499.0,741.0,0.0,0,310.0,1
1190,1190,0.2720657539320551,0.3,0.0,0.0,273.0,977.0,0.0,1,730.0,1
1191,1191,0.4478149865943911,0.4,1.0,1.0,374.0,621.0,1.0,1,535.0,1
1192,1192,-0.261321041056631,-0.3,1.0,0.0,399.0,840.0,0.0,0,351.0,1
1193,1193,0.21017648434017533,0.2,1.0,1.0,406.0,674.0,1.0,1,430.0,1
1194,1194,0.6983702843351373,0.7,0.0,0.0,334.0,545.0,0.0,1,571.0,1
1195,1195,-0.22796642159988545,-0.2,0.0,1.0,461.0,560.0,0.0,1,1149.0,0
1196,1196,-0.6574055129785461,-0.7,1.0,0.0,442.0,947.0,0.0,0,51.0,1
1197,1197,-0.11572355973330484,-0.1,0.0,1.0,385.0,604.0,0.0,1,951.0,0
1198,1198,-0.6832515455109032,-0.7,1.0,0.0,328.0,981.0,0.0,0,361.0,1
1199,1199,-0.601881323130532,-0.6,1.0,0.0,323.0,838.0,0.0,0,389.0,1
1200,1200,-0.08246467966235571,-0.1,1.0,0.0,373.0,956.0,0.0,0,271.0,1
1201,1201,0.89195640135416,0.9,1.0,1.0,411.0,718.0,1.0,1,311.0,1
1202,1202,-0.8132522051067504,-0.8,1.0,0.0,282.0,706.0,0.0,0,282.0,1
1203,1203,-0.8280098892966461,-0.8,0.0,1.0,439.0,632.0,1.0,0,419.0,1
1204,1204,0.42974501781775565,0.4,0.0,0.0,292.0,709.0,0.0,1,839.0,1
1205,1205,-0.5190562847257862,-0.5,0.0,1.0,347.0,934.0,1.0,0,819.0,1
1206,1206,-0.8774649077665282,-0.9,1.0,0.0,468.0,650.0,0.0,0,362.0,1
1207,1207,-0.3236727658748071,-0.3,1.0,0.0,251.0,606.0,0.0,0,543.0,1
1208,1208,-0.022059319007100786,-0.0,1.0,0.0,262.0,824.0,1.0,1,504.0,0
1209,1209,-0.4221854586081667,-0.4,0.0,1.0,268.0,880.0,1.0,0,152.0,1
1210,1210,0.06317644671577416,0.1,1.0,1.0,288.0,715.0,0.0,0,117.0,0
1211,1211,0.14456558538405984,0.1,0.0,0.0,472.0,952.0,0.0,1,226.0,1
1212,1212,-0.47470344747320325,-0.5,0.0,1.0,404.0,653.0,1.0,0,323.0,1
1213,1213,0.8675374516613764,0.9,0.0,0.0,257.0,631.0,0.0,1,512.0,1
1214,1214,0.34588687726732237,0.3,1.0,1.0,255.0,707.0,1.0,1,348.0,1
1215,1215,-0.8900164018224849,-0.9,0.0,1.0,473.0,665.0,1.0,0,372.0,1
1216,1216,0.032515467054037184,0.0,0.0,0.0,289.0,772.0,1.0,0,689.0,0
1217,1217,-0.6365088295708001,-0.6,1.0,0.0,332.0,524.0,0.0,0,544.0,1
1218,1218,-0.5636858465887031,-0.6,1.0,0.0,439.0,971.0,0.0,0,210.0,1
1219,1219,0.38714776739665624,0.4,0.0,0.0,462.0,551.0,0.0,1,417.0,1
1220,1220,0.08998083817862901,0.1,0.0,0.0,371.0,925.0,1.0,0,444.0,0
1221,1221,-0.6688304484989835,-0.7,0.0,1.0,499.0,549.0,1.0,0,412.0,1
1222,1222,-0.5788352646935966,-0.6,1.0,0.0,305.0,887.0,0.0,0,138.0,1
1223,1223,-0.4219930796224836,-0.4,0.0,1.0,461.0,907.0,1.0,0,142.0,1
1224,1224,0.3598186145300407,0.4,1.0,1.0,309.0,985.0,0.0,0,-34.0,0
1225,1225,0.8403095165762479,0.8,0.0,0.0,254.0,855.0,0.0,1,211.0,1
1226,1226,0.4255743577293275,0.4,0.0,0.0,390.0,823.0,0.0,1,377.0,1
1227,1227,0.7757406329737156,0.8,1.0,1.0,488.0,686.0,1.0,1,306.0,1
1228,1228,0.3609334025621803,0.4,1.0,1.0,392.0,522.0,1.0,1,376.0,1
1229,1229,0.45940703784761283,0.5,0.0,0.0,473.0,603.0,0.0,1,524.0,1
1230,1230,0.7469542606351315,0.7,0.0,0.0,422.0,606.0,0.0,1,492.0,1
1231,1231,-0.32373139712297927,-0.3,1.0,0.0,263.0,748.0,0.0,0,509.0,1
1232,1232,0.6714525056278825,0.7,1.0,1.0,427.0,510.0,1.0,1,383.0,1
1233,1233,0.5505791637448684,0.6,1.0,1.0,416.0,886.0,1.0,1,228.0,1
1234,1234,-0.6649890694677655,-0.7,0.0,1.0,361.0,616.0,1.0,0,553.0,1
1235,1235,-0.03439804001985991,-0.0,1.0,0.0,413.0,685.0,0.0,0,662.0,1
1236,1236,0.24726355928390598,0.2,1.0,1.0,365.0,879.0,1.0,1,236.0,1
1237,1237,0.26740672433530743,0.3,0.0,0.0,457.0,553.0,0.0,1,410.0,1
1238,1238,0.5838064465278113,0.6,0.0,0.0,268.0,947.0,0.0,1,245.0,1
1239,1239,0.5523342275245525,0.6,0.0,0.0,475.0,528.0,0.0,1,527.0,1
1240,1240,-0.27424653172526947,-0.3,1.0,0.0,278.0,542.0,0.0,0,800.0,1
1241,1241,-0.7843888162320066,-0.8,1.0,0.0,322.0,974.0,0.0,0,64.0,1
1242,1242,-0.7232619778883002,-0.7,1.0,0.0,463.0,639.0,0.0,0,348.0,1
1243,1243,-0.7604284580157025,-0.8,1.0,0.0,421.0,579.0,0.0,0,560.0,1
1244,1244,-0.6518683362739932,-0.7,1.0,0.0,277.0,518.0,0.0,0,485.0,1
1245,1245,0.35410246071336726,0.4,1.0,1.0,441.0,686.0,1.0,1,703.0,1
1246,1246,0.31038026511881867,0.3,0.0,0.0,280.0,874.0,0.0,1,266.0,1
1247,1247,-0.8443614652257342,-0.8,0.0,1.0,497.0,506.0,1.0,0,597.0,1
1248,1248,0.005029970383217508,0.0,0.0,0.0,414.0,678.0,0.0,1,408.0,1
1249,1249,0.461960461698795,0.5,0.0,0.0,363.0,843.0,0.0,1,124.0,1
1250,1250,0.1562046969223333,0.2,1.0,1.0,324.0,883.0,1.0,1,303.0,1
1251,1251,-0.5704570289825106,-0.6,0.0,1.0,497.0,565.0,1.0,0,598.0,1
1252,1252,0.7254928265611472,0.7,1.0,1.0,334.0,586.0,1.0,1,500.0,1
1253,1253,-0.11611985011291803,-0.1,0.0,1.0,377.0,896.0,1.0,0,267.0,1
1254,1254,-0.2551451839524723,-0.3,0.0,1.0,402.0,746.0,1.0,0,392.0,1
1255,1255,-0.585429587309972,-0.6,1.0,0.0,426.0,859.0,0.0,0,475.0,1
1256,1256,-0.774797954103085,-0.8,1.0,0.0,331.0,518.0,0.0,0,621.0,1
1257,1257,0.047363747250830146,0.0,1.0,1.0,340.0,927.0,0.0,0,693.0,0
1258,1258,0.786343772720714,0.8,0.0,0.0,476.0,509.0,0.0,1,615.0,1
1259,1259,-0.7595510724872396,-0.8,1.0,0.0,358.0,844.0,0.0,0,258.0,1
1260,1260,-0.33523600614669746,-0.3,0.0,1.0,451.0,550.0,1.0,0,629.0,1
1261,1261,0.46143317149859897,0.5,1.0,1.0,434.0,801.0,1.0,1,105.0,1
1262,1262,-0.2128862583622989,-0.2,0.0,1.0,315.0,709.0,1.0,0,456.0,1
1263,1263,-0.373902507174557,-0.4,0.0,1.0,357.0,588.0,1.0,0,585.0,1
1264,1264,-0.291498884748553,-0.3,0.0,1.0,415.0,999.0,1.0,0,76.0,1
1265,1265,0.4138520560225031,0.4,1.0,1.0,264.0,711.0,1.0,1,305.0,1
1266,1266,0.4282083976181127,0.4,1.0,1.0,353.0,743.0,1.0,1,314.0,1
1267,1267,-0.8400066357805801,-0.8,1.0,0.0,253.0,525.0,0.0,0,452.0,1
1268,1268,0.10948175787351777,0.1,0.0,0.0,374.0,779.0,0.0,1,717.0,1
1269,1269,-0.34526881699413325,-0.3,0.0,1.0,432.0,700.0,1.0,0,538.0,1
1270,1270,0.05688019956978807,0.1,1.0,1.0,342.0,614.0,1.0,1,564.0,1
1271,1271,0.18588979152515572,0.2,0.0,0.0,457.0,576.0,0.0,1,937.0,1
1272,1272,-0.4738253041751695,-0.5,1.0,0.0,345.0,526.0,0.0,0,449.0,1
1273,1273,0.3887715737148024,0.4,1.0,1.0,328.0,599.0,1.0,1,763.0,1
1274,1274,0.655303069188575,0.7,1.0,1.0,380.0,826.0,1.0,1,154.0,1
1275,1275,0.6220506293189921,0.6,1.0,1.0,434.0,551.0,1.0,1,525.0,1
1276,1276,0.37412875849202554,0.4,1.0,1.0,395.0,585.0,1.0,1,1220.0,1
1277,1277,0.4004843028981696,0.4,1.0,1.0,466.0,504.0,1.0,1,410.0,1
1278,1278,-0.19507859293385,-0.2,1.0,0.0,316.0,883.0,0.0,0,651.0,1
1279,1279,0.8509518478861856,0.9,0.0,0.0,269.0,804.0,0.0,1,87.0,1
1280,1280,0.5304723398453403,0.5,0.0,0.0,392.0,577.0,0.0,1,341.0,1
1281,1281,0.027868179040233976,0.0,1.0,1.0,460.0,776.0,1.0,1,184.0,1
1282,1282,-0.6307826531418889,-0.6,0.0,1.0,413.0,746.0,1.0,0,201.0,1
1283,1283,-0.3340795938695451,-0.3,1.0,0.0,309.0,555.0,0.0,0,506.0,1
1284,1284,-0.3095368398643439,-0.3,0.0,1.0,438.0,904.0,1.0,0,478.0,1
1285,1285,0.6994953314947315,0.7,0.0,0.0,390.0,592.0,0.0,1,458.0,1
1286,1286,-0.2264083349073931,-0.2,0.0,1.0,437.0,843.0,1.0,0,620.0,1
1287,1287,-0.32547500072973523,-0.3,0.0,1.0,436.0,863.0,1.0,0,1011.0,1
1288,1288,0.3793654792742439,0.4,0.0,0.0,382.0,839.0,0.0,1,479.0,1
1289,1289,0.7569688690451727,0.8,0.0,0.0,393.0,954.0,0.0,1,53.0,1
1290,1290,0.8474108325034476,0.8,1.0,1.0,270.0,674.0,1.0,1,216.0,1
1291,1291,-0.28910322035678326,-0.3,1.0,0.0,364.0,951.0,0.0,0,205.0,1
1292,1292,0.7662594334491378,0.8,1.0,1.0,322.0,590.0,1.0,1,638.0,1
1293,1293,0.5810431244328896,0.6,1.0,1.0,344.0,880.0,1.0,1,246.0,1
1294,1294,0.1776612459668686,0.2,1.0,1.0,440.0,755.0,1.0,1,305.0,1
1295,1295,0.5519516584910565,0.6,1.0,1.0,314.0,598.0,1.0,1,398.0,1
1296,1296,0.7780509004123742,0.8,1.0,1.0,446.0,807.0,1.0,1,207.0,1
1297,1297,-0.5950265571891573,-0.6,1.0,0.0,280.0,881.0,0.0,0,209.0,1
1298,1298,0.0971180923545436,0.1,1.0,1.0,251.0,550.0,1.0,1,569.0,1
1299,1299,0.23036016584607955,0.2,1.0,1.0,265.0,609.0,1.0,1,946.0,1
1300,1300,0.6715656455035933,0.7,1.0,1.0,317.0,573.0,1.0,1,330.0,1
1301,1301,-0.2622403875007646,-0.3,1.0,0.0,315.0,822.0,0.0,0,583.0,1
1302,1302,-0.34198677493527296,-0.3,1.0,0.0,484.0,719.0,0.0,0,277.0,1
1303,1303,0.14478658264097566,0.1,0.0,0.0,259.0,885.0,1.0,0,466.0,0
1304,1304,0.2790502411334409,0.3,0.0,0.0,433.0,715.0,0.0,1,582.0,1
1305,1305,0.8635582951923689,0.9,1.0,1.0,484.0,593.0,1.0,1,503.0,1
1306,1306,0.013330668289633474,0.0,0.0,0.0,430.0,902.0,0.0,1,728.0,1
1307,1307,-0.2155192772132034,-0.2,0.0,1.0,489.0,801.0,1.0,0,440.0,1
1308,1308,-0.3883370426112477,-0.4,1.0,0.0,437.0,880.0,0.0,0,203.0,1
1309,1309,-0.41429482812939694,-0.4,1.0,0.0,350.0,722.0,0.0,0,498.0,1
1310,1310,0.8783439984497402,0.9,0.0,0.0,428.0,599.0,0.0,1,303.0,1
1311,1311,-0.6221777669137106,-0.6,0.0,1.0,384.0,633.0,1.0,0,343.0,1
1312,1312,-0.6045296780043017,-0.6,1.0,0.0,459.0,656.0,0.0,0,205.0,1
1313,1313,0.08987721577728947,0.1,0.0,0.0,481.0,880.0,0.0,1,479.0,1
1314,1314,-0.24134365226815424,-0.2,1.0,0.0,404.0,795.0,0.0,0,511.0,1
1315,1315,0.14450881001158422,0.1,0.0,0.0,465.0,881.0,0.0,1,454.0,1
1316,1316,0.7838757721256168,0.8,0.0,0.0,374.0,869.0,0.0,1,377.0,1
1317,1317,0.1713849194084397,0.2,1.0,1.0,323.0,670.0,1.0,1,557.0,1
1318,1318,-0.606842222679286,-0.6,0.0,1.0,476.0,514.0,1.0,0,450.0,1
1319,1319,-0.35643136308174783,-0.4,0.0,1.0,466.0,750.0,1.0,0,384.0,1
1320,1320,0.5742378074551234,0.6,0.0,0.0,298.0,524.0,0.0,1,498.0,1
1321,1321,-0.36144878777169054,-0.4,1.0,0.0,417.0,507.0,0.0,0,516.0,1
1322,1322,0.45075437762574777,0.5,1.0,1.0,482.0,935.0,1.0,1,433.0,1
1323,1323,-0.6301200333161054,-0.6,0.0,1.0,261.0,811.0,1.0,0,478.0,1
1324,1324,0.23042647466551502,0.2,0.0,0.0,442.0,767.0,0.0,1,701.0,1
1325,1325,0.6391405176018689,0.6,1.0,1.0,438.0,984.0,1.0,1,158.0,1
1326,1326,-0.45333981346831204,-0.5,1.0,0.0,360.0,626.0,0.0,0,364.0,1
1327,1327,-0.07771146168917398,-0.1,1.0,0.0,346.0,913.0,0.0,0,161.0,1
1328,1328,-0.7217179169930602,-0.7,1.0,0.0,449.0,922.0,1.0,1,-11.0,0
1329,1329,-0.10716405461125611,-0.1,0.0,1.0,268.0,866.0,0.0,1,696.0,0
1330,1330,0.5921453569151364,0.6,1.0,1.0,384.0,514.0,1.0,1,582.0,1
1331,1331,-0.10627574726833877,-0.1,0.0,1.0,373.0,819.0,0.0,1,708.0,0
1332,1332,-0.36550098689109467,-0.4,0.0,1.0,365.0,932.0,1.0,0,503.0,1
1333,1333,0.660991797918055,0.7,1.0,1.0,452.0,711.0,1.0,1,237.0,1
1334,1334,-0.8444062214606007,-0.8,1.0,0.0,461.0,508.0,0.0,0,481.0,1
1335,1335,-0.8736543111886969,-0.9,0.0,1.0,464.0,872.0,1.0,0,204.0,1
1336,1336,0.2231327095030632,0.2,1.0,1.0,461.0,886.0,1.0,1,813.0,1
1337,1337,0.2317040196019987,0.2,0.0,0.0,298.0,576.0,0.0,1,406.0,1
1338,1338,0.038436512583286175,0.0,1.0,1.0,267.0,554.0,0.0,0,819.0,0
1339,1339,-0.5083550773087688,-0.5,0.0,1.0,412.0,765.0,1.0,0,83.0,1
1340,1340,-0.5493025420516273,-0.5,0.0,1.0,284.0,729.0,1.0,0,307.0,1
1341,1341,-0.30523634528229304,-0.3,0.0,1.0,400.0,969.0,1.0,0,991.0,1
1342,1342,-0.33613580418110156,-0.3,0.0,1.0,491.0,825.0,1.0,0,624.0,1
1343,1343,-0.432022224725146,-0.4,1.0,0.0,457.0,502.0,0.0,0,621.0,1
1344,1344,-0.6828102242300121,-0.7,1.0,0.0,346.0,630.0,0.0,0,384.0,1
1345,1345,-0.17335120333478216,-0.2,1.0,0.0,398.0,788.0,1.0,1,84.0,0
1346,1346,-0.062450239094602567,-0.1,0.0,1.0,447.0,629.0,0.0,1,544.0,0
1347,1347,0.6822080191245369,0.7,0.0,0.0,483.0,774.0,0.0,1,313.0,1
1348,1348,0.30069333750610305,0.3,1.0,1.0,372.0,959.0,1.0,1,489.0,1
1349,1349,-0.801946605575753,-0.8,1.0,0.0,264.0,811.0,0.0,0,225.0,1
1350,1350,0.20477127691231078,0.2,1.0,1.0,369.0,841.0,0.0,0,380.0,0
1351,1351,0.08412932719217359,0.1,0.0,0.0,430.0,750.0,0.0,1,770.0,1
1352,1352,-0.3480169663807897,-0.3,0.0,1.0,372.0,650.0,1.0,0,1048.0,1
1353,1353,0.5780235197186628,0.6,0.0,0.0,440.0,987.0,0.0,1,183.0,1
1354,1354,0.4500884478056292,0.5,0.0,0.0,460.0,858.0,0.0,1,392.0,1
1355,1355,-0.33599240293528143,-0.3,0.0,1.0,281.0,569.0,1.0,0,530.0,1
1356,1356,-0.4138366120412366,-0.4,1.0,0.0,433.0,684.0,0.0,0,333.0,1
1357,1357,-0.5153908560508063,-0.5,1.0,0.0,273.0,657.0,0.0,0,180.0,1
1358,1358,-0.700711821128041,-0.7,0.0,1.0,324.0,770.0,1.0,0,146.0,1
1359,1359,-0.701792203122335,-0.7,0.0,1.0,266.0,683.0,1.0,0,381.0,1
1360,1360,0.3915916912127434,0.4,0.0,0.0,269.0,824.0,0.0,1,217.0,1
1361,1361,-0.6393142230079085,-0.6,1.0,0.0,490.0,606.0,0.0,0,444.0,1
1362,1362,-0.738928462009199,-0.7,0.0,1.0,384.0,555.0,1.0,0,321.0,1
1363,1363,-0.6772588924986338,-0.7,1.0,0.0,454.0,514.0,0.0,0,462.0,1
1364,1364,-0.22526538200684454,-0.2,0.0,1.0,475.0,963.0,1.0,0,252.0,1
1365,1365,-0.13219746813404432,-0.1,1.0,0.0,335.0,665.0,0.0,0,540.0,1
1366,1366,-0.13842988253130062,-0.1,1.0,0.0,423.0,711.0,0.0,0,926.0,1
1367,1367,-0.3799948318295696,-0.4,0.0,1.0,301.0,758.0,1.0,0,391.0,1
1368,1368,0.21047223289603012,0.2,0.0,0.0,455.0,559.0,0.0,1,756.0,1
1369,1369,-0.2192508357354348,-0.2,0.0,1.0,340.0,817.0,1.0,0,393.0,1
1370,1370,0.664112156996513,0.7,0.0,0.0,335.0,764.0,0.0,1,531.0,1
1371,1371,0.21386940553584577,0.2,0.0,0.0,410.0,817.0,0.0,1,153.0,1
1372,1372,0.8052837961661273,0.8,1.0,1.0,405.0,527.0,1.0,1,288.0,1
1373,1373,0.7091993625498073,0.7,0.0,0.0,479.0,524.0,0.0,1,447.0,1
1374,1374,-0.7555926017606877,-0.8,1.0,0.0,461.0,704.0,0.0,0,365.0,1
1375,1375,-0.8688511583867953,-0.9,0.0,1.0,470.0,632.0,1.0,0,318.0,1
1376,1376,0.4238494087590031,0.4,0.0,0.0,388.0,845.0,0.0,1,287.0,1
1377,1377,-0.3893822197823823,-0.4,1.0,0.0,349.0,774.0,0.0,0,487.0,1
1378,1378,-0.09084557764199541,-0.1,1.0,0.0,250.0,798.0,0.0,0,232.0,1
1379,1379,-0.6486308362837285,-0.6,0.0,1.0,297.0,959.0,1.0,0,244.0,1
1380,1380,-0.44038204395244246,-0.4,1.0,0.0,355.0,587.0,0.0,0,498.0,1
1381,1381,-0.5020005414242463,-0.5,0.0,1.0,327.0,886.0,1.0,0,547.0,1
1382,1382,0.6447173949380453,0.6,0.0,0.0,296.0,626.0,0.0,1,268.0,1
1383,1383,-0.5483703889151792,-0.5,1.0,0.0,339.0,521.0,0.0,0,450.0,1
1384,1384,-0.3799495413884556,-0.4,1.0,0.0,447.0,567.0,0.0,0,546.0,1
1385,1385,-0.6696755570255681,-0.7,0.0,1.0,289.0,740.0,1.0,0,291.0,1
1386,1386,0.021931921567533097,0.0,0.0,0.0,311.0,633.0,0.0,1,346.0,1
1387,1387,0.5095986945253829,0.5,0.0,0.0,327.0,625.0,0.0,1,358.0,1
1388,1388,-0.4159225330763586,-0.4,0.0,1.0,407.0,535.0,1.0,0,718.0,1
1389,1389,0.38304245172846463,0.4,1.0,1.0,389.0,847.0,1.0,1,564.0,1
1390,1390,0.7581023761127895,0.8,1.0,1.0,368.0,695.0,1.0,1,537.0,1
1391,1391,-0.6608527780253158,-0.7,0.0,1.0,352.0,998.0,1.0,0,310.0,1
1392,1392,0.8775332538526942,0.9,1.0,1.0,307.0,710.0,1.0,1,463.0,1
1393,1393,0.6044960753277665,0.6,0.0,0.0,432.0,839.0,0.0,1,159.0,1
1394,1394,-0.4215529119432614,-0.4,0.0,1.0,393.0,588.0,1.0,0,729.0,1
1395,1395,-0.5226714503586563,-0.5,0.0,1.0,268.0,643.0,1.0,0,299.0,1
1396,1396,-0.16605576371605357,-0.2,0.0,1.0,394.0,905.0,0.0,1,261.0,0
1397,1397,-0.4773203098098765,-0.5,1.0,0.0,444.0,893.0,0.0,0,343.0,1
1398,1398,0.3602517489111673,0.4,1.0,1.0,270.0,786.0,1.0,1,524.0,1
1399,1399,-0.25084753365325785,-0.3,1.0,0.0,466.0,666.0,0.0,0,718.0,1
1400,1400,-0.29209786900801404,-0.3,1.0,0.0,369.0,778.0,0.0,0,503.0,1
1401,1401,0.5160632797602659,0.5,1.0,1.0,499.0,993.0,1.0,1,178.0,1
1402,1402,-0.43414447651531346,-0.4,1.0,0.0,448.0,544.0,0.0,0,418.0,1
1403,1403,-0.7981521004372709,-0.8,0.0,1.0,359.0,980.0,1.0,0,-39.0,1
1404,1404,0.008217826853279542,0.0,0.0,0.0,386.0,627.0,0.0,1,1327.0,1
1405,1405,0.6628546991918042,0.7,1.0,1.0,460.0,762.0,1.0,1,848.0,1
1406,1406,0.5830581170646122,0.6,0.0,0.0,415.0,764.0,0.0,1,101.0,1
1407,1407,-0.42932093634224755,-0.4,1.0,0.0,463.0,839.0,0.0,0,228.0,1
1408,1408,-0.7021073010082067,-0.7,0.0,1.0,420.0,615.0,1.0,0,465.0,1
1409,1409,-0.08123496329436308,-0.1,0.0,1.0,257.0,878.0,0.0,1,65.0,0
1410,1410,0.18078734900304216,0.2,0.0,0.0,443.0,531.0,0.0,1,436.0,1
1411,1411,-0.7447469335611988,-0.7,1.0,0.0,379.0,507.0,0.0,0,384.0,1
1412,1412,-0.5329554497569247,-0.5,1.0,0.0,403.0,571.0,0.0,0,336.0,1
1413,1413,0.07638081394060492,0.1,0.0,0.0,369.0,664.0,0.0,1,467.0,1
1414,1414,-0.8032615806272223,-0.8,1.0,0.0,385.0,599.0,0.0,0,156.0,1
1415,1415,0.662157176332088,0.7,0.0,0.0,405.0,501.0,0.0,1,474.0,1
1416,1416,-0.17627510235629273,-0.2,0.0,1.0,498.0,699.0,1.0,0,653.0,1
1417,1417,-0.7829301071797823,-0.8,1.0,0.0,272.0,534.0,0.0,0,374.0,1
1418,1418,0.09487098393382065,0.1,0.0,0.0,400.0,986.0,0.0,1,154.0,1
1419,1419,0.3834392809270041,0.4,1.0,1.0,292.0,638.0,1.0,1,360.0,1
1420,1420,-0.7659782029104937,-0.8,1.0,0.0,260.0,616.0,0.0,0,624.0,1
1421,1421,-0.17811761331354714,-0.2,0.0,1.0,262.0,837.0,1.0,0,1001.0,1
1422,1422,-0.2186295262240805,-0.2,1.0,0.0,362.0,959.0,0.0,0,499.0,1
1423,1423,-0.8002969951538884,-0.8,1.0,0.0,297.0,914.0,0.0,0,209.0,1
1424,1424,-0.8771346788203442,-0.9,0.0,1.0,458.0,744.0,1.0,0,228.0,1
1425,1425,-0.5340918332127373,-0.5,1.0,0.0,348.0,802.0,0.0,0,440.0,1
1426,1426,0.21270592182530146,0.2,1.0,1.0,292.0,579.0,1.0,1,449.0,1
1427,1427,0.4749641969664188,0.5,0.0,0.0,394.0,860.0,0.0,1,206.0,1
1428,1428,0.1920099139864574,0.2,1.0,1.0,310.0,758.0,1.0,1,582.0,1
1429,1429,-0.4268973420937105,-0.4,1.0,0.0,311.0,776.0,0.0,0,213.0,1
1430,1430,-0.5391028456978739,-0.5,0.0,1.0,423.0,550.0,1.0,0,377.0,1
1431,1431,-0.6162996163806607,-0.6,1.0,0.0,352.0,733.0,0.0,0,425.0,1
1432,1432,-0.8784567401057632,-0.9,0.0,1.0,403.0,588.0,1.0,0,309.0,1
1433,1433,0.5661657538447752,0.6,1.0,1.0,472.0,517.0,1.0,1,621.0,1
1434,1434,-0.02697411184947529,-0.0,0.0,1.0,451.0,875.0,1.0,0,304.0,1
1435,1435,0.38218898578849203,0.4,0.0,0.0,342.0,975.0,0.0,1,163.0,1
1436,1436,0.49389200597866234,0.5,1.0,1.0,261.0,752.0,1.0,1,437.0,1
1437,1437,0.3051475238797018,0.3,0.0,0.0,468.0,587.0,0.0,1,1485.0,1
1438,1438,-0.6679456665266514,-0.7,1.0,0.0,253.0,800.0,0.0,0,277.0,1
1439,1439,0.1225838410174952,0.1,1.0,1.0,348.0,654.0,1.0,1,318.0,1
1440,1440,-0.7416053888071366,-0.7,0.0,1.0,264.0,869.0,1.0,0,97.0,1
1441,1441,-0.7278105454097972,-0.7,1.0,0.0,383.0,563.0,0.0,0,364.0,1
1442,1442,-0.7438453053525766,-0.7,1.0,0.0,482.0,750.0,0.0,0,188.0,1
1443,1443,0.8229735009325098,0.8,0.0,0.0,472.0,723.0,0.0,1,305.0,1
1444,1444,-0.3365295129037299,-0.3,1.0,0.0,355.0,664.0,0.0,0,561.0,1
1445,1445,0.7023256816716862,0.7,1.0,1.0,304.0,970.0,1.0,1,356.0,1
1446,1446,0.79251498813206,0.8,1.0,1.0,361.0,730.0,0.0,0,39.0,0
1447,1447,0.4292577717880196,0.4,0.0,0.0,281.0,827.0,0.0,1,222.0,1
1448,1448,-0.785039345525404,-0.8,1.0,0.0,461.0,783.0,0.0,0,276.0,1
1449,1449,-0.33300972118426886,-0.3,0.0,1.0,259.0,904.0,1.0,0,117.0,1
1450,1450,-0.18402267609189504,-0.2,1.0,0.0,346.0,609.0,0.0,0,855.0,1
1451,1451,-0.5360809139315764,-0.5,0.0,1.0,390.0,794.0,1.0,0,266.0,1
1452,1452,-0.37970778372835634,-0.4,0.0,1.0,349.0,523.0,1.0,0,1068.0,1
1453,1453,0.3087156319200529,0.3,1.0,1.0,313.0,813.0,1.0,1,454.0,1
1454,1454,0.17723015522726382,0.2,1.0,1.0,404.0,689.0,0.0,0,787.0,0
1455,1455,-0.5122042049662889,-0.5,1.0,0.0,420.0,705.0,0.0,0,155.0,1
1456,1456,-0.03880260093607868,-0.0,1.0,0.0,291.0,614.0,1.0,1,1475.0,0
1457,1457,-0.8985015384177184,-0.9,0.0,1.0,396.0,508.0,1.0,0,376.0,1
1458,1458,0.7032981392196841,0.7,1.0,1.0,273.0,790.0,1.0,1,357.0,1
1459,1459,-0.5467740657414562,-0.5,0.0,1.0,293.0,802.0,1.0,0,105.0,1
1460,1460,0.8182585058739319,0.8,0.0,0.0,314.0,936.0,0.0,1,220.0,1
1461,1461,0.25061006534640373,0.3,1.0,1.0,285.0,673.0,1.0,1,842.0,1
1462,1462,-0.74196877976544,-0.7,1.0,0.0,325.0,751.0,0.0,0,334.0,1
1463,1463,0.5770877419903605,0.6,0.0,0.0,434.0,771.0,0.0,1,305.0,1
1464,1464,0.02582126724117728,0.0,1.0,1.0,471.0,879.0,0.0,0,60.0,0
1465,1465,0.611568717136081,0.6,1.0,1.0,325.0,821.0,1.0,1,184.0,1
1466,1466,0.3229328053967774,0.3,0.0,0.0,328.0,651.0,0.0,1,281.0,1
1467,1467,-0.5780676960020754,-0.6,1.0,0.0,354.0,962.0,1.0,1,44.0,0
1468,1468,-0.8209151474232709,-0.8,1.0,0.0,347.0,737.0,0.0,0,176.0,1
1469,1469,0.2038040003661129,0.2,1.0,1.0,484.0,737.0,1.0,1,289.0,1
1470,1470,-0.8349427408165392,-0.8,1.0,0.0,295.0,749.0,0.0,0,276.0,1
1471,1471,0.06865058079046105,0.1,1.0,1.0,394.0,576.0,1.0,1,530.0,1
1472,1472,0.10780582265928274,0.1,1.0,1.0,296.0,679.0,1.0,1,1195.0,1
1473,1473,-0.02206062432199951,-0.0,0.0,1.0,336.0,649.0,1.0,0,915.0,1
1474,1474,0.31709500113502276,0.3,1.0,1.0,465.0,625.0,1.0,1,660.0,1
1475,1475,-0.23695927093845193,-0.2,0.0,1.0,340.0,790.0,1.0,0,600.0,1
1476,1476,-0.767816723025277,-0.8,0.0,1.0,480.0,613.0,1.0,0,317.0,1
1477,1477,-0.4489802667801221,-0.4,0.0,1.0,436.0,882.0,1.0,0,312.0,1
1478,1478,-0.3187140156589485,-0.3,0.0,1.0,491.0,681.0,1.0,0,458.0,1
1479,1479,-0.42741926819539144,-0.4,1.0,0.0,280.0,972.0,0.0,0,208.0,1
1480,1480,0.7641387500922913,0.8,0.0,0.0,466.0,976.0,0.0,1,168.0,1
1481,1481,-0.46885198641084563,-0.5,1.0,0.0,460.0,640.0,0.0,0,320.0,1
1482,1482,-0.8892818615686244,-0.9,1.0,0.0,404.0,526.0,0.0,0,290.0,1
1483,1483,0.8563139742113993,0.9,0.0,0.0,411.0,880.0,0.0,1,159.0,1
1484,1484,0.5840092449757194,0.6,1.0,1.0,410.0,906.0,1.0,1,194.0,1
1485,1485,-0.19049895442966092,-0.2,0.0,1.0,478.0,581.0,1.0,0,601.0,1
1486,1486,0.20730599199484956,0.2,1.0,1.0,384.0,703.0,1.0,1,683.0,1
1487,1487,0.13982882752774917,0.1,0.0,0.0,299.0,711.0,0.0,1,980.0,1
1488,1488,-0.14391259245233112,-0.1,1.0,0.0,477.0,895.0,0.0,0,438.0,1
1489,1489,-0.3116029686114684,-0.3,0.0,1.0,471.0,688.0,1.0,0,741.0,1
1490,1490,0.8046156278863811,0.8,1.0,1.0,487.0,519.0,1.0,1,364.0,1
1491,1491,0.6645749611255988,0.7,1.0,1.0,293.0,529.0,1.0,1,398.0,1
1492,1492,0.3648035777762112,0.4,0.0,0.0,321.0,618.0,0.0,1,381.0,1
