,trial,coherence,coherence_bin,green_side,correct_side,target_onset,checker_onset,decision,green_decision,decision_time,correct_decision
0,0,0.8096294029423775,0.8,0.0,0.0,319.0,800.0,0.0,1,101.0,1
1,1,-0.07704932506567874,-0.1,1.0,0.0,396.0,582.0,1.0,1,4022.0,0
2,2,0.29295879545440073,0.3,1.0,1.0,480.0,628.0,1.0,1,432.0,1
3,3,0.260041016088581,0.3,0.0,0.0,376.0,867.0,0.0,1,567.0,1
4,4,0.2390985652496903,0.2,0.0,0.0,342.0,924.0,0.0,1,524.0,1
5,5,0.7941300729033237,0.8,0.0,0.0,432.0,886.0,0.0,1,182.0,1
6,6,0.37508136210610477,0.4,0.0,0.0,329.0,856.0,0.0,1,165.0,1
7,7,-0.05200954549769543,-0.1,1.0,0.0,481.0,729.0,0.0,0,1550.0,1
8,8,0.25826668007833986,0.3,0.0,0.0,396.0,861.0,0.0,1,163.0,1
9,9,0.729762242909343,0.7,0.0,0.0,275.0,712.0,0.0,1,263.0,1
10,10,0.12720345504379094,0.1,0.0,0.0,417.0,712.0,0.0,1,1281.0,1
11,11,0.28104446665965843,0.3,0.0,0.0,453.0,848.0,0.0,1,249.0,1
12,12,0.07993925441743421,0.1,0.0,0.0,461.0,924.0,0.0,1,1165.0,1
13,13,0.343714739682072,0.3,1.0,1.0,293.0,638.0,1.0,1,569.0,1
14,14,0.8130493858389353,0.8,0.0,0.0,269.0,863.0,0.0,1,178.0,1
15,15,-0.25522004761667416,-0.3,1.0,0.0,343.0,748.0,0.0,0,489.0,1
16,16,-0.374366036180131,-0.4,0.0,1.0,481.0,788.0,1.0,0,371.0,1
17,17,0.0011341032203413537,0.0,0.0,0.0,265.0,905.0,1.0,0,2140.0,0
18,18,0.6973419897748169,0.7,1.0,1.0,272.0,659.0,1.0,1,389.0,1
19,19,-0.3389334488386663,-0.3,1.0,0.0,381.0,938.0,0.0,0,251.0,1
20,20,0.7978220034520124,0.8,0.0,0.0,257.0,924.0,1.0,0,-21.0,0
21,21,-0.7261827407851458,-0.7,1.0,0.0,349.0,865.0,0.0,0,336.0,1
22,22,-0.8339370908047664,-0.8,0.0,1.0,348.0,878.0,1.0,0,164.0,1
23,23,0.7639771736282907,0.8,1.0,1.0,478.0,716.0,1.0,1,186.0,1
24,24,-0.788993782345752,-0.8,0.0,1.0,436.0,658.0,1.0,0,356.0,1
25,25,0.24609566471757238,0.2,0.0,0.0,342.0,816.0,0.0,1,562.0,1
26,26,-0.38448919458293185,-0.4,1.0,0.0,435.0,526.0,0.0,0,539.0,1
27,27,-0.7602003267424791,-0.8,1.0,0.0,269.0,690.0,0.0,0,111.0,1
28,28,0.8336472345559599,0.8,0.0,0.0,445.0,576.0,0.0,1,269.0,1
29,29,0.6072604818078232,0.6,0.0,0.0,326.0,880.0,0.0,1,244.0,1
30,30,0.6833216507929655,0.7,1.0,1.0,261.0,903.0,1.0,1,136.0,1
31,31,0.5486834861045585,0.5,0.0,0.0,289.0,740.0,0.0,1,631.0,1
32,32,0.2704881613989837,0.3,1.0,1.0,406.0,634.0,1.0,1,670.0,1
33,33,-0.4452028509036469,-0.4,0.0,1.0,429.0,963.0,1.0,0,-2.0,1
34,34,0.42776308733973034,0.4,0.0,0.0,382.0,838.0,0.0,1,510.0,1
35,35,-0.47623311345505837,-0.5,1.0,0.0,338.0,777.0,0.0,0,265.0,1
36,36,-0.014276619317265427,-0.0,1.0,0.0,460.0,767.0,0.0,0,1793.0,1
37,37,-0.19870020868077365,-0.2,0.0,1.0,464.0,718.0,1.0,0,858.0,1
38,38,-0.671995177258747,-0.7,1.0,0.0,346.0,712.0,0.0,0,322.0,1
39,39,-0.573143934753211,-0.6,1.0,0.0,302.0,833.0,0.0,0,245.0,1
40,40,0.47666659726710947,0.5,1.0,1.0,376.0,678.0,1.0,1,106.0,1
41,41,-0.2471893496401173,-0.2,1.0,0.0,486.0,904.0,0.0,0,690.0,1
42,42,0.06593847621411864,0.1,1.0,1.0,419.0,880.0,1.0,1,121.0,1
43,43,-0.4180799248980898,-0.4,1.0,0.0,330.0,641.0,0.0,0,909.0,1
44,44,0.8306789347027103,0.8,0.0,0.0,287.0,964.0,0.0,1,339.0,1
45,45,-0.5982494338260307,-0.6,0.0,1.0,383.0,790.0,1.0,0,187.0,1
46,46,0.21511979661360658,0.2,1.0,1.0,353.0,594.0,1.0,1,543.0,1
47,47,-0.629787628997166,-0.6,0.0,1.0,476.0,984.0,1.0,0,120.0,1
48,48,-0.19535523322441406,-0.2,1.0,0.0,385.0,703.0,0.0,0,692.0,1
49,49,0.5253755264407943,0.5,0.0,0.0,326.0,819.0,0.0,1,315.0,1
50,50,0.7451282216289509,0.7,1.0,1.0,473.0,714.0,1.0,1,273.0,1
51,51,-0.20428089444377417,-0.2,0.0,1.0,478.0,539.0,1.0,0,633.0,1
52,52,0.6179422080003621,0.6,1.0,1.0,475.0,873.0,1.0,1,302.0,1
53,53,0.4012422318045573,0.4,1.0,1.0,357.0,935.0,1.0,1,138.0,1
54,54,-0.6255681326914702,-0.6,0.0,1.0,304.0,524.0,1.0,0,482.0,1
55,55,-0.6344147202676496,-0.6,1.0,0.0,459.0,925.0,0.0,0,536.0,1
56,56,-0.7828705747294746,-0.8,1.0,0.0,283.0,522.0,0.0,0,345.0,1
57,57,0.008763111787345235,0.0,0.0,0.0,365.0,532.0,0.0,1,2113.0,1
58,58,-0.7530113112152702,-0.8,1.0,0.0,395.0,943.0,0.0,0,182.0,1
59,59,-0.5651294594291701,-0.6,0.0,1.0,329.0,711.0,1.0,0,1260.0,1
60,60,-0.3712963789049868,-0.4,1.0,0.0,406.0,813.0,0.0,0,211.0,1
61,61,0.1148892126956168,0.1,1.0,1.0,352.0,609.0,1.0,1,1319.0,1
62,62,-0.2940168235610623,-0.3,0.0,1.0,265.0,809.0,1.0,0,446.0,1
63,63,-0.05358906686014053,-0.1,0.0,1.0,289.0,701.0,1.0,0,1250.0,1
64,64,0.8738336782108854,0.9,0.0,0.0,303.0,904.0,0.0,1,133.0,1
65,65,0.7998122653567802,0.8,0.0,0.0,367.0,945.0,0.0,1,178.0,1
66,66,0.035899114796859366,0.0,0.0,0.0,263.0,636.0,0.0,1,2311.0,1
67,67,-0.19224736012878507,-0.2,0.0,1.0,283.0,775.0,1.0,0,362.0,1
68,68,-0.6665421972073574,-0.7,0.0,1.0,442.0,932.0,1.0,0,96.0,1
69,69,0.7223272035002487,0.7,0.0,0.0,299.0,874.0,1.0,0,-3.0,0
70,70,-0.7079528461290137,-0.7,0.0,1.0,296.0,816.0,1.0,0,68.0,1
71,71,0.3063406254030622,0.3,1.0,1.0,333.0,737.0,1.0,1,610.0,1
72,72,0.6755755364862362,0.7,0.0,0.0,293.0,766.0,0.0,1,341.0,1
73,73,-0.2871592486637883,-0.3,1.0,0.0,328.0,650.0,0.0,0,422.0,1
74,74,-0.857691037305695,-0.9,0.0,1.0,337.0,751.0,1.0,0,232.0,1
75,75,0.6834957941992191,0.7,1.0,1.0,310.0,588.0,1.0,1,252.0,1
76,76,0.7646165231324312,0.8,0.0,0.0,323.0,747.0,0.0,1,340.0,1
77,77,0.2196244104732824,0.2,1.0,1.0,361.0,628.0,1.0,1,391.0,1
78,78,-0.3070760355569827,-0.3,0.0,1.0,435.0,640.0,1.0,0,455.0,1
79,79,-0.10852867557630308,-0.1,1.0,0.0,497.0,679.0,0.0,0,2514.0,1
80,80,-0.8609972999586566,-0.9,0.0,1.0,377.0,967.0,1.0,0,166.0,1
81,81,0.6775880274229796,0.7,1.0,1.0,456.0,967.0,1.0,1,97.0,1
82,82,0.5380427905166901,0.5,1.0,1.0,402.0,760.0,1.0,1,158.0,1
83,83,0.6631806812371835,0.7,1.0,1.0,442.0,837.0,1.0,1,221.0,1
84,84,-0.8307150889690834,-0.8,1.0,0.0,325.0,564.0,0.0,0,381.0,1
85,85,-0.38125211338175946,-0.4,0.0,1.0,316.0,949.0,1.0,0,685.0,1
86,86,0.7070728143573161,0.7,1.0,1.0,494.0,707.0,1.0,1,229.0,1
87,87,0.0450890803136893,0.0,0.0,0.0,366.0,689.0,0.0,1,3945.0,1
88,88,-0.3984398226778889,-0.4,0.0,1.0,286.0,704.0,1.0,0,380.0,1
89,89,-0.4995489997685772,-0.5,1.0,0.0,353.0,674.0,0.0,0,643.0,1
90,90,0.5831343918299726,0.6,0.0,0.0,451.0,921.0,0.0,1,268.0,1
91,91,0.5381788788540959,0.5,1.0,1.0,452.0,829.0,1.0,1,239.0,1
92,92,0.8148653873124391,0.8,1.0,1.0,485.0,939.0,1.0,1,186.0,1
93,93,-0.35723811619718004,-0.4,0.0,1.0,372.0,561.0,1.0,0,437.0,1
94,94,-0.6555249349678527,-0.7,0.0,1.0,289.0,548.0,1.0,0,603.0,1
95,95,0.0012952339315560613,0.0,0.0,0.0,345.0,763.0,1.0,0,1082.0,0
96,96,-0.4847311338566305,-0.5,0.0,1.0,349.0,714.0,1.0,0,147.0,1
97,97,-0.10443184208744849,-0.1,0.0,1.0,474.0,638.0,1.0,0,748.0,1
98,98,0.17979015685485222,0.2,1.0,1.0,458.0,501.0,1.0,1,311.0,1
99,99,-0.46423926263524673,-0.5,0.0,1.0,474.0,720.0,1.0,0,376.0,1
100,100,0.5732483149488575,0.6,1.0,1.0,370.0,666.0,1.0,1,274.0,1
101,101,0.03962541663309327,0.0,1.0,1.0,364.0,905.0,1.0,1,731.0,1
102,102,0.46280100100130983,0.5,1.0,1.0,479.0,699.0,1.0,1,342.0,1
103,103,-0.02205324607442105,-0.0,0.0,1.0,361.0,703.0,1.0,0,666.0,1
104,104,-0.5641891649673293,-0.6,0.0,1.0,296.0,759.0,1.0,0,205.0,1
105,105,-0.26240914390493564,-0.3,1.0,0.0,369.0,617.0,0.0,0,1284.0,1
106,106,-0.12883546364843834,-0.1,0.0,1.0,418.0,514.0,1.0,0,2098.0,1
107,107,0.34354901680706285,0.3,1.0,1.0,294.0,627.0,1.0,1,269.0,1
108,108,-0.3738017519306319,-0.4,0.0,1.0,279.0,789.0,1.0,0,212.0,1
109,109,0.8367859818069369,0.8,1.0,1.0,498.0,762.0,1.0,1,210.0,1
110,110,-0.7150289769785461,-0.7,0.0,1.0,310.0,850.0,1.0,0,120.0,1
111,111,0.10563483494412707,0.1,1.0,1.0,437.0,842.0,1.0,1,261.0,1
112,112,-0.17769538616470348,-0.2,0.0,1.0,442.0,949.0,1.0,0,209.0,1
113,113,-0.8278670909204211,-0.8,0.0,1.0,354.0,818.0,1.0,0,238.0,1
114,114,-0.07423735970267675,-0.1,0.0,1.0,407.0,556.0,1.0,0,2297.0,1
115,115,0.21507106921988306,0.2,0.0,0.0,443.0,764.0,0.0,1,493.0,1
116,116,-0.7866166226363042,-0.8,0.0,1.0,389.0,937.0,1.0,0,134.0,1
117,117,0.5547075067218413,0.6,1.0,1.0,499.0,720.0,1.0,1,181.0,1
118,118,0.28654592161555714,0.3,1.0,1.0,388.0,594.0,1.0,1,548.0,1
119,119,-0.5293822741449199,-0.5,0.0,1.0,285.0,761.0,1.0,0,604.0,1
120,120,0.35629665644940955,0.4,0.0,0.0,499.0,584.0,0.0,1,407.0,1
121,121,0.7398156487588597,0.7,1.0,1.0,472.0,732.0,1.0,1,306.0,1
122,122,-0.7353156798818181,-0.7,1.0,0.0,327.0,621.0,0.0,0,612.0,1
123,123,-0.08119853723130266,-0.1,0.0,1.0,486.0,862.0,1.0,0,1992.0,1
124,124,-0.8340667162748835,-0.8,1.0,0.0,360.0,701.0,0.0,0,429.0,1
125,125,0.6251058941287216,0.6,1.0,1.0,460.0,723.0,1.0,1,1287.0,1
126,126,0.48980588331516806,0.5,0.0,0.0,251.0,943.0,0.0,1,366.0,1
127,127,-0.03960187930425585,-0.0,1.0,0.0,311.0,788.0,0.0,0,3901.0,1
128,128,0.3116492259376723,0.3,1.0,1.0,499.0,515.0,1.0,1,286.0,1
129,129,0.8889123384153309,0.9,0.0,0.0,319.0,932.0,0.0,1,209.0,1
130,130,-0.875516522536461,-0.9,1.0,0.0,362.0,551.0,0.0,0,477.0,1
131,131,-0.5714403948629242,-0.6,1.0,0.0,418.0,505.0,0.0,0,627.0,1
132,132,0.794767794346603,0.8,0.0,0.0,357.0,787.0,0.0,1,276.0,1
133,133,0.4232191989709603,0.4,1.0,1.0,298.0,657.0,1.0,1,845.0,1
134,134,-0.8806075412751104,-0.9,0.0,1.0,439.0,878.0,1.0,0,83.0,1
135,135,0.3930301108058708,0.4,1.0,1.0,457.0,642.0,1.0,1,261.0,1
136,136,0.40517388455788705,0.4,1.0,1.0,457.0,800.0,1.0,1,463.0,1
137,137,0.8912782699944287,0.9,1.0,1.0,446.0,697.0,1.0,1,197.0,1
138,138,-0.43618829997004227,-0.4,1.0,0.0,280.0,537.0,0.0,0,583.0,1
139,139,-0.7716821695060188,-0.8,1.0,0.0,320.0,629.0,0.0,0,241.0,1
140,140,-0.8949917956505217,-0.9,0.0,1.0,436.0,645.0,1.0,0,289.0,1
141,141,0.6383207793694591,0.6,0.0,0.0,363.0,706.0,0.0,1,241.0,1
142,142,-0.1936351533657712,-0.2,0.0,1.0,427.0,585.0,1.0,0,618.0,1
143,143,0.5070406272815663,0.5,0.0,0.0,348.0,500.0,0.0,1,502.0,1
144,144,0.5022898393351426,0.5,0.0,0.0,312.0,699.0,0.0,1,309.0,1
145,145,-0.28367028921314774,-0.3,0.0,1.0,368.0,676.0,1.0,0,526.0,1
146,146,-0.6656262756845361,-0.7,0.0,1.0,305.0,621.0,1.0,0,304.0,1
147,147,-0.4514645676140472,-0.5,0.0,1.0,378.0,658.0,1.0,0,434.0,1
148,148,-0.03505891374585224,-0.0,1.0,0.0,317.0,509.0,1.0,1,874.0,0
149,149,-0.6555576593707,-0.7,1.0,0.0,468.0,568.0,0.0,0,384.0,1
150,150,-0.43101659174359586,-0.4,1.0,0.0,263.0,929.0,0.0,0,288.0,1
151,151,-0.13069172871091572,-0.1,0.0,1.0,273.0,645.0,1.0,0,1582.0,1
152,152,-0.6282287061791039,-0.6,1.0,0.0,371.0,751.0,0.0,0,1338.0,1
153,153,0.23942888774419424,0.2,1.0,1.0,336.0,865.0,1.0,1,139.0,1
154,154,-0.6382710485961123,-0.6,0.0,1.0,298.0,906.0,1.0,0,266.0,1
155,155,0.11043966191265053,0.1,0.0,0.0,334.0,919.0,0.0,1,1577.0,1
156,156,0.5729216712055879,0.6,0.0,0.0,344.0,565.0,0.0,1,311.0,1
157,157,-0.3817886376982468,-0.4,1.0,0.0,268.0,930.0,0.0,0,322.0,1
158,158,-0.8995165546715458,-0.9,1.0,0.0,443.0,594.0,0.0,0,303.0,1
159,159,-0.06990047803134858,-0.1,1.0,0.0,287.0,786.0,0.0,0,2577.0,1
160,160,0.7507557176635921,0.8,1.0,1.0,361.0,756.0,1.0,1,233.0,1
161,161,0.4154395452899503,0.4,0.0,0.0,353.0,909.0,0.0,1,448.0,1
162,162,0.42110406401616174,0.4,0.0,0.0,335.0,544.0,0.0,1,261.0,1
163,163,-0.3782715044171455,-0.4,0.0,1.0,250.0,804.0,1.0,0,296.0,1
164,164,0.7691743625938442,0.8,0.0,0.0,302.0,967.0,0.0,1,101.0,1
165,165,0.5774595368898211,0.6,0.0,0.0,252.0,714.0,0.0,1,184.0,1
166,166,-0.2788653241207518,-0.3,1.0,0.0,381.0,713.0,0.0,0,466.0,1
167,167,0.5793358824569314,0.6,1.0,1.0,479.0,948.0,1.0,1,-17.0,1
168,168,-0.5173492025248713,-0.5,0.0,1.0,331.0,549.0,1.0,0,480.0,1
169,169,-0.21186619775373683,-0.2,1.0,0.0,253.0,808.0,0.0,0,369.0,1
170,170,0.5922631653794262,0.6,0.0,0.0,397.0,629.0,0.0,1,874.0,1
171,171,0.8152326775183453,0.8,1.0,1.0,479.0,597.0,1.0,1,304.0,1
172,172,0.20829294097432782,0.2,0.0,0.0,373.0,734.0,0.0,1,1063.0,1
173,173,0.06789942532911653,0.1,1.0,1.0,390.0,621.0,1.0,1,819.0,1
174,174,0.8459853176240594,0.8,1.0,1.0,363.0,670.0,1.0,1,287.0,1
175,175,0.6733436935464422,0.7,1.0,1.0,481.0,828.0,1.0,1,211.0,1
176,176,0.022790740102099805,0.0,0.0,0.0,408.0,650.0,1.0,0,1102.0,0
177,177,0.892248623763675,0.9,1.0,1.0,257.0,802.0,1.0,1,181.0,1
178,178,0.18402795543191008,0.2,0.0,0.0,365.0,775.0,0.0,1,890.0,1
179,179,-0.013290085391115758,-0.0,1.0,0.0,480.0,907.0,1.0,1,83.0,0
180,180,-0.8365346607573457,-0.8,1.0,0.0,414.0,532.0,0.0,0,574.0,1
181,181,-0.3633104378212513,-0.4,0.0,1.0,266.0,637.0,1.0,0,637.0,1
182,182,0.8191851694206757,0.8,0.0,0.0,339.0,889.0,0.0,1,292.0,1
183,183,0.7015764586014536,0.7,0.0,0.0,404.0,501.0,0.0,1,295.0,1
184,184,-0.6221774458868785,-0.6,1.0,0.0,327.0,843.0,0.0,0,220.0,1
185,185,0.7206087143330616,0.7,1.0,1.0,368.0,888.0,1.0,1,54.0,1
186,186,-0.27112910855197725,-0.3,1.0,0.0,318.0,714.0,0.0,0,508.0,1
187,187,0.39443750304826686,0.4,0.0,0.0,267.0,698.0,0.0,1,345.0,1
188,188,-0.6625058480986428,-0.7,1.0,0.0,256.0,810.0,0.0,0,354.0,1
189,189,0.46967624120402796,0.5,0.0,0.0,328.0,788.0,0.0,1,114.0,1
190,190,-0.8883670829667306,-0.9,1.0,0.0,363.0,868.0,0.0,0,189.0,1
191,191,-0.5140132084301277,-0.5,0.0,1.0,316.0,696.0,1.0,0,288.0,1
192,192,0.5476611423700045,0.5,1.0,1.0,405.0,532.0,1.0,1,723.0,1
193,193,-0.4557945561156691,-0.5,1.0,0.0,474.0,706.0,0.0,0,480.0,1
194,194,0.6155379911583397,0.6,0.0,0.0,406.0,797.0,0.0,1,177.0,1
195,195,-0.8595082877623151,-0.9,1.0,0.0,485.0,898.0,0.0,0,57.0,1
196,196,0.5382203019210264,0.5,0.0,0.0,317.0,669.0,0.0,1,274.0,1
197,197,0.2537709292724183,0.3,1.0,1.0,340.0,783.0,1.0,1,307.0,1
198,198,0.0048049678066107715,0.0,1.0,1.0,364.0,822.0,1.0,1,144.0,1
199,199,-0.7094849088785425,-0.7,0.0,1.0,379.0,873.0,1.0,0,168.0,1
200,200,0.16250015792714645,0.2,0.0,0.0,298.0,518.0,1.0,0,694.0,0
201,201,0.29357510136845166,0.3,0.0,0.0,446.0,682.0,0.0,1,1152.0,1
202,202,-0.822145544428595,-0.8,1.0,0.0,362.0,522.0,0.0,0,506.0,1
203,203,-0.6643074980630951,-0.7,1.0,0.0,472.0,750.0,1.0,1,-42.0,0
204,204,0.01469191892612931,0.0,1.0,1.0,451.0,988.0,1.0,1,1201.0,1
205,205,-0.011737022040665401,-0.0,1.0,0.0,457.0,904.0,0.0,0,1559.0,1
206,206,0.3898497674780904,0.4,1.0,1.0,432.0,939.0,1.0,1,389.0,1
207,207,-0.7935407215636344,-0.8,1.0,0.0,458.0,905.0,0.0,0,297.0,1
208,208,-0.6975821047029951,-0.7,0.0,1.0,268.0,887.0,1.0,0,165.0,1
209,209,0.7168612121727725,0.7,1.0,1.0,446.0,958.0,1.0,1,166.0,1
210,210,-0.7863059726925951,-0.8,1.0,0.0,362.0,600.0,0.0,0,218.0,1
211,211,0.8630721655575121,0.9,0.0,0.0,291.0,525.0,0.0,1,194.0,1
212,212,-0.5490578266991335,-0.5,1.0,0.0,253.0,527.0,0.0,0,340.0,1
213,213,0.4105292069258232,0.4,1.0,1.0,273.0,556.0,1.0,1,221.0,1
214,214,-0.8802301585034873,-0.9,0.0,1.0,357.0,556.0,1.0,0,247.0,1
215,215,0.22030769544191264,0.2,0.0,0.0,434.0,874.0,0.0,1,652.0,1
216,216,0.5467904958694222,0.5,0.0,0.0,300.0,945.0,1.0,0,15.0,0
217,217,0.5258814459995894,0.5,1.0,1.0,342.0,792.0,1.0,1,686.0,1
218,218,0.23688163853736077,0.2,1.0,1.0,453.0,710.0,1.0,1,447.0,1
219,219,-0.6556152903947745,-0.7,1.0,0.0,429.0,782.0,0.0,0,319.0,1
220,220,0.23721848378093957,0.2,1.0,1.0,462.0,902.0,1.0,1,316.0,1
221,221,0.4153577219229624,0.4,0.0,0.0,463.0,801.0,0.0,1,446.0,1
222,222,0.4149581050670096,0.4,1.0,1.0,277.0,757.0,1.0,1,76.0,1
223,223,0.7625897575661634,0.8,1.0,1.0,402.0,995.0,1.0,1,33.0,1
224,224,0.21123208084755507,0.2,1.0,1.0,444.0,967.0,1.0,1,889.0,1
225,225,-0.6327338297129665,-0.6,1.0,0.0,408.0,930.0,0.0,0,492.0,1
226,226,0.5007034741795583,0.5,1.0,1.0,331.0,684.0,1.0,1,115.0,1
227,227,-0.4514128725350793,-0.5,0.0,1.0,268.0,830.0,1.0,0,312.0,1
228,228,0.5537458194224777,0.6,0.0,0.0,255.0,539.0,0.0,1,336.0,1
229,229,-0.8708308674505012,-0.9,0.0,1.0,490.0,764.0,1.0,0,286.0,1
230,230,0.5854984337384265,0.6,1.0,1.0,499.0,990.0,1.0,1,141.0,1
231,231,-0.15688340615730623,-0.2,1.0,0.0,455.0,994.0,1.0,1,-79.0,0
232,232,-0.6296592614849574,-0.6,0.0,1.0,318.0,822.0,1.0,0,100.0,1
233,233,0.5592980342111263,0.6,1.0,1.0,367.0,512.0,1.0,1,761.0,1
234,234,0.2250529562248128,0.2,1.0,1.0,336.0,806.0,1.0,1,148.0,1
235,235,0.46930000385876125,0.5,1.0,1.0,471.0,958.0,1.0,1,201.0,1
236,236,-0.8480777193091968,-0.8,0.0,1.0,388.0,603.0,1.0,0,279.0,1
237,237,-0.38127283580001237,-0.4,1.0,0.0,391.0,700.0,0.0,0,419.0,1
238,238,-0.8980942587367073,-0.9,0.0,1.0,424.0,702.0,1.0,0,254.0,1
239,239,-0.7747010044218442,-0.8,0.0,1.0,428.0,845.0,1.0,0,237.0,1
240,240,-0.18989580542566042,-0.2,1.0,0.0,260.0,594.0,0.0,0,516.0,1
241,241,-0.5738300859945293,-0.6,1.0,0.0,435.0,671.0,0.0,0,234.0,1
242,242,-0.35638935529267013,-0.4,0.0,1.0,491.0,568.0,1.0,0,351.0,1
243,243,0.39213032620134813,0.4,0.0,0.0,496.0,878.0,0.0,1,136.0,1
244,244,0.07697968841205804,0.1,1.0,1.0,343.0,630.0,1.0,1,437.0,1
245,245,0.7908682963894708,0.8,1.0,1.0,299.0,678.0,1.0,1,273.0,1
246,246,0.6591538288313729,0.7,1.0,1.0,471.0,908.0,1.0,1,211.0,1
247,247,-0.46991877503549656,-0.5,1.0,0.0,360.0,798.0,0.0,0,912.0,1
248,248,0.07842155369161752,0.1,0.0,0.0,336.0,852.0,0.0,1,2032.0,1
249,249,-0.8011098703157563,-0.8,1.0,0.0,277.0,857.0,0.0,0,826.0,1
250,250,-0.361291156981442,-0.4,1.0,0.0,347.0,934.0,0.0,0,309.0,1
251,251,0.3786613332387162,0.4,1.0,1.0,272.0,856.0,1.0,1,352.0,1
252,252,-0.44915233526731757,-0.4,1.0,0.0,460.0,567.0,0.0,0,343.0,1
253,253,0.5662239113536466,0.6,1.0,1.0,252.0,916.0,1.0,1,142.0,1
254,254,-0.8625726417761249,-0.9,0.0,1.0,370.0,957.0,1.0,0,113.0,1
255,255,0.6725322355684636,0.7,0.0,0.0,295.0,859.0,0.0,1,216.0,1
256,256,0.8941345813618006,0.9,0.0,0.0,429.0,909.0,0.0,1,152.0,1
257,257,-0.7282176202399785,-0.7,0.0,1.0,258.0,720.0,1.0,0,232.0,1
258,258,0.4668094304858822,0.5,0.0,0.0,418.0,843.0,0.0,1,109.0,1
259,259,-0.5649981985417258,-0.6,0.0,1.0,293.0,816.0,1.0,0,321.0,1
260,260,-0.5853087352410666,-0.6,0.0,1.0,265.0,851.0,1.0,0,394.0,1
261,261,0.6077854946541231,0.6,0.0,0.0,466.0,740.0,0.0,1,274.0,1
262,262,0.6650975026634548,0.7,1.0,1.0,254.0,579.0,1.0,1,227.0,1
263,263,0.22864264998424833,0.2,0.0,0.0,497.0,864.0,0.0,1,399.0,1
264,264,0.4349416383304191,0.4,0.0,0.0,304.0,822.0,0.0,1,444.0,1
265,265,0.3126902147628946,0.3,0.0,0.0,415.0,901.0,0.0,1,274.0,1
266,266,0.6238263446586986,0.6,0.0,0.0,257.0,880.0,0.0,1,183.0,1
267,267,0.4366569622554538,0.4,1.0,1.0,434.0,501.0,1.0,1,235.0,1
268,268,0.6746303444736551,0.7,0.0,0.0,442.0,833.0,0.0,1,145.0,1
269,269,0.01710213661063209,0.0,1.0,1.0,436.0,988.0,1.0,1,1256.0,1
270,270,-0.17549123096730612,-0.2,1.0,0.0,333.0,727.0,0.0,0,740.0,1
271,271,-0.7438553140543855,-0.7,0.0,1.0,473.0,663.0,1.0,0,354.0,1
272,272,-0.5293572733663323,-0.5,1.0,0.0,418.0,935.0,0.0,0,297.0,1
273,273,-0.43368151284692474,-0.4,0.0,1.0,251.0,562.0,1.0,0,407.0,1
274,274,0.1224824759251889,0.1,0.0,0.0,450.0,782.0,0.0,1,378.0,1
275,275,0.5559320471266077,0.6,0.0,0.0,337.0,560.0,0.0,1,243.0,1
276,276,-0.6260042116532865,-0.6,1.0,0.0,422.0,501.0,0.0,0,457.0,1
277,277,0.45536596624299,0.5,1.0,1.0,477.0,603.0,1.0,1,450.0,1
278,278,-0.4596178141254703,-0.5,0.0,1.0,376.0,571.0,1.0,0,443.0,1
279,279,-0.4269132423392465,-0.4,1.0,0.0,297.0,524.0,0.0,0,329.0,1
280,280,0.5004850386634075,0.5,1.0,1.0,268.0,633.0,1.0,1,539.0,1
281,281,-0.19733070092305594,-0.2,0.0,1.0,382.0,879.0,1.0,0,929.0,1
282,282,-0.5334912873509619,-0.5,0.0,1.0,319.0,780.0,1.0,0,221.0,1
283,283,-0.19529720200368483,-0.2,0.0,1.0,275.0,538.0,1.0,0,627.0,1
284,284,-0.2657198565159151,-0.3,0.0,1.0,490.0,741.0,1.0,0,229.0,1
285,285,-0.008215171102105345,-0.0,0.0,1.0,481.0,831.0,1.0,0,2578.0,1
286,286,0.8999265480435236,0.9,1.0,1.0,338.0,557.0,1.0,1,215.0,1
287,287,-0.12482103044425852,-0.1,0.0,1.0,432.0,698.0,1.0,0,200.0,1
288,288,0.4877399284954439,0.5,1.0,1.0,429.0,817.0,1.0,1,354.0,1
289,289,0.38733174015806526,0.4,1.0,1.0,362.0,808.0,1.0,1,130.0,1
290,290,-0.33904254425654856,-0.3,0.0,1.0,286.0,860.0,1.0,0,214.0,1
291,291,0.48000973813404546,0.5,0.0,0.0,493.0,899.0,0.0,1,178.0,1
292,292,-0.7508836383868132,-0.8,0.0,1.0,490.0,980.0,1.0,0,170.0,1
293,293,0.20858154367616522,0.2,0.0,0.0,294.0,575.0,0.0,1,581.0,1
294,294,0.776112526883242,0.8,1.0,1.0,295.0,502.0,1.0,1,163.0,1
295,295,-0.8985543211800641,-0.9,0.0,1.0,395.0,562.0,1.0,0,153.0,1
296,296,0.35037250565754585,0.4,0.0,0.0,272.0,986.0,0.0,1,202.0,1
297,297,0.006756156504456712,0.0,0.0,0.0,450.0,794.0,0.0,1,1566.0,1
298,298,-0.7145580234707914,-0.7,0.0,1.0,428.0,725.0,1.0,0,257.0,1
299,299,-0.12581167475249855,-0.1,1.0,0.0,272.0,961.0,0.0,0,1707.0,1
300,300,-0.7841939585352379,-0.8,1.0,0.0,413.0,771.0,0.0,0,746.0,1
301,301,-0.13623307818539576,-0.1,1.0,0.0,427.0,918.0,0.0,0,2595.0,1
302,302,0.16814000043802546,0.2,0.0,0.0,413.0,507.0,0.0,1,530.0,1
303,303,-0.5043485378156194,-0.5,0.0,1.0,357.0,632.0,1.0,0,361.0,1
304,304,-0.48694114511648845,-0.5,0.0,1.0,324.0,867.0,1.0,0,169.0,1
305,305,-0.22099321252467174,-0.2,1.0,0.0,471.0,556.0,0.0,0,643.0,1
306,306,-0.7269878152042406,-0.7,1.0,0.0,462.0,572.0,0.0,0,266.0,1
307,307,0.30770502299703784,0.3,1.0,1.0,457.0,862.0,1.0,1,551.0,1
308,308,-0.7380541946096938,-0.7,0.0,1.0,498.0,766.0,1.0,0,296.0,1
309,309,-0.3795590348974477,-0.4,0.0,1.0,317.0,962.0,1.0,0,271.0,1
310,310,-0.4192410311029546,-0.4,0.0,1.0,480.0,718.0,1.0,0,272.0,1
311,311,0.4752097161171037,0.5,0.0,0.0,473.0,560.0,0.0,1,457.0,1
312,312,-0.31628456424222584,-0.3,1.0,0.0,407.0,972.0,0.0,0,621.0,1
313,313,-0.34832415809793327,-0.3,0.0,1.0,343.0,745.0,1.0,0,272.0,1
314,314,-0.01784266897504272,-0.0,1.0,0.0,406.0,950.0,0.0,0,164.0,1
315,315,0.858863145231992,0.9,1.0,1.0,354.0,798.0,1.0,1,68.0,1
316,316,0.5928802852732197,0.6,1.0,1.0,379.0,881.0,1.0,1,140.0,1
317,317,0.600078463816618,0.6,0.0,0.0,294.0,918.0,0.0,1,168.0,1
318,318,-0.8383948503330397,-0.8,1.0,0.0,360.0,812.0,0.0,0,248.0,1
319,319,-0.6451825267958782,-0.6,0.0,1.0,320.0,848.0,1.0,0,192.0,1
320,320,0.2906344280183907,0.3,1.0,1.0,475.0,762.0,1.0,1,63.0,1
321,321,-0.8500879513006966,-0.9,1.0,0.0,439.0,890.0,0.0,0,251.0,1
322,322,-0.8909900796525982,-0.9,0.0,1.0,268.0,992.0,1.0,0,330.0,1
323,323,0.397487722434933,0.4,1.0,1.0,307.0,598.0,1.0,1,305.0,1
324,324,-0.4793217184540177,-0.5,1.0,0.0,316.0,717.0,0.0,0,337.0,1
325,325,0.12408281648629538,0.1,1.0,1.0,438.0,955.0,1.0,1,677.0,1
326,326,-0.8259259109050046,-0.8,1.0,0.0,274.0,815.0,0.0,0,241.0,1
327,327,-0.3611734874425807,-0.4,1.0,0.0,399.0,964.0,0.0,0,437.0,1
328,328,0.26280125663502985,0.3,0.0,0.0,360.0,604.0,0.0,1,296.0,1
329,329,-0.7774885158828874,-0.8,0.0,1.0,439.0,526.0,1.0,0,505.0,1
330,330,0.23550672402244144,0.2,0.0,0.0,463.0,694.0,0.0,1,683.0,1
331,331,-0.05415789089954082,-0.1,0.0,1.0,326.0,952.0,1.0,0,522.0,1
332,332,-0.5514642706588174,-0.6,1.0,0.0,495.0,999.0,0.0,0,216.0,1
333,333,0.5981049203834662,0.6,0.0,0.0,300.0,697.0,0.0,1,403.0,1
334,334,-0.7677141288970477,-0.8,0.0,1.0,487.0,784.0,1.0,0,409.0,1
335,335,0.2099437105040841,0.2,1.0,1.0,487.0,848.0,1.0,1,445.0,1
336,336,-0.15045073098180095,-0.2,1.0,0.0,318.0,506.0,0.0,0,606.0,1
337,337,0.43416564790586787,0.4,1.0,1.0,425.0,962.0,1.0,1,183.0,1
338,338,-0.25028464530758776,-0.3,1.0,0.0,277.0,670.0,0.0,0,803.0,1
339,339,0.7816467570463986,0.8,1.0,1.0,476.0,549.0,1.0,1,375.0,1
340,340,-0.6860144408836444,-0.7,1.0,0.0,492.0,610.0,0.0,0,748.0,1
341,341,0.045018626386571725,0.0,0.0,0.0,497.0,652.0,0.0,1,901.0,1
342,342,0.4364385266030063,0.4,1.0,1.0,374.0,929.0,1.0,1,307.0,1
343,343,0.8582883739827757,0.9,1.0,1.0,385.0,898.0,1.0,1,67.0,1
344,344,-0.774147830211001,-0.8,0.0,1.0,439.0,787.0,1.0,0,114.0,1
345,345,-0.3093013877711944,-0.3,0.0,1.0,332.0,862.0,1.0,0,116.0,1
346,346,-0.07907119332294887,-0.1,1.0,0.0,490.0,665.0,0.0,0,1495.0,1
347,347,-0.33016015479937,-0.3,1.0,0.0,357.0,882.0,0.0,0,351.0,1
348,348,0.25691119968422427,0.3,1.0,1.0,433.0,523.0,1.0,1,454.0,1
349,349,-0.5367445877120312,-0.5,0.0,1.0,407.0,986.0,1.0,0,247.0,1
350,350,-0.8585388826086002,-0.9,1.0,0.0,415.0,711.0,0.0,0,274.0,1
351,351,0.18224582695854086,0.2,0.0,0.0,451.0,908.0,0.0,1,921.0,1
352,352,0.4978486486194468,0.5,1.0,1.0,430.0,531.0,1.0,1,439.0,1
353,353,-0.49804136383282543,-0.5,1.0,0.0,409.0,667.0,0.0,0,724.0,1
354,354,0.806570340805404,0.8,0.0,0.0,423.0,981.0,0.0,1,186.0,1
355,355,-0.4045811676035223,-0.4,1.0,0.0,449.0,694.0,0.0,0,687.0,1
356,356,-0.3741523541808849,-0.4,1.0,0.0,387.0,595.0,0.0,0,358.0,1
357,357,-0.43001744026410477,-0.4,0.0,1.0,492.0,667.0,1.0,0,231.0,1
358,358,0.6623510995116227,0.7,1.0,1.0,454.0,999.0,1.0,1,177.0,1
359,359,0.7966364916293854,0.8,1.0,1.0,394.0,647.0,1.0,1,249.0,1
360,360,0.5350017438272389,0.5,0.0,0.0,347.0,553.0,0.0,1,350.0,1
361,361,-0.47389951150684356,-0.5,1.0,0.0,478.0,896.0,0.0,0,616.0,1
362,362,-0.2169751075262819,-0.2,0.0,1.0,258.0,701.0,1.0,0,961.0,1
363,363,0.14546005127985062,0.1,1.0,1.0,297.0,977.0,1.0,1,216.0,1
364,364,-0.5585701205577289,-0.6,0.0,1.0,346.0,934.0,1.0,0,310.0,1
365,365,-0.005478582915549146,-0.0,0.0,1.0,404.0,926.0,1.0,0,980.0,1
366,366,-0.6705667496156009,-0.7,0.0,1.0,475.0,543.0,1.0,0,262.0,1
367,367,-0.6260489579672073,-0.6,0.0,1.0,302.0,772.0,1.0,0,246.0,1
368,368,0.7328205777025086,0.7,1.0,1.0,472.0,541.0,1.0,1,217.0,1
369,369,0.2925938306535384,0.3,0.0,0.0,299.0,693.0,0.0,1,478.0,1
370,370,-0.4846669541826204,-0.5,1.0,0.0,400.0,886.0,0.0,0,654.0,1
371,371,-0.4139079846157177,-0.4,1.0,0.0,493.0,682.0,0.0,0,415.0,1
372,372,-0.5324158981162317,-0.5,1.0,0.0,436.0,501.0,0.0,0,353.0,1
373,373,0.15616791468560465,0.2,0.0,0.0,411.0,924.0,0.0,1,495.0,1
374,374,-0.5845782395417762,-0.6,1.0,0.0,353.0,651.0,0.0,0,526.0,1
375,375,0.04305679014922936,0.0,1.0,1.0,466.0,658.0,0.0,0,876.0,0
376,376,0.22496343008775288,0.2,0.0,0.0,479.0,737.0,0.0,1,384.0,1
377,377,0.7725839068487786,0.8,1.0,1.0,271.0,503.0,1.0,1,586.0,1
378,378,0.5135164658967678,0.5,0.0,0.0,423.0,756.0,0.0,1,281.0,1
379,379,-0.8442763244605839,-0.8,1.0,0.0,362.0,607.0,0.0,0,351.0,1
380,380,-0.05525216323110271,-0.1,1.0,0.0,318.0,690.0,1.0,1,392.0,0
381,381,0.8752297588806294,0.9,0.0,0.0,419.0,799.0,0.0,1,142.0,1
382,382,-0.6542277408119088,-0.7,1.0,0.0,275.0,793.0,0.0,0,392.0,1
383,383,-0.1824361903250009,-0.2,0.0,1.0,488.0,777.0,1.0,0,395.0,1
384,384,0.37160870886511754,0.4,0.0,0.0,348.0,746.0,0.0,1,636.0,1
385,385,0.34092647515214003,0.3,0.0,0.0,493.0,741.0,0.0,1,396.0,1
386,386,0.3981002390083267,0.4,0.0,0.0,386.0,622.0,0.0,1,562.0,1
387,387,0.22594437851147997,0.2,1.0,1.0,301.0,818.0,1.0,1,221.0,1
388,388,-0.10361901331407186,-0.1,0.0,1.0,438.0,879.0,1.0,0,843.0,1
389,389,-0.7982378708024186,-0.8,0.0,1.0,308.0,622.0,1.0,0,250.0,1
390,390,0.4627029280002476,0.5,1.0,1.0,413.0,927.0,1.0,1,220.0,1
391,391,0.49299385407784146,0.5,1.0,1.0,338.0,998.0,1.0,1,-26.0,1
392,392,-0.6399123308029959,-0.6,0.0,1.0,381.0,657.0,1.0,0,352.0,1
393,393,-0.8694334444573881,-0.9,0.0,1.0,304.0,607.0,1.0,0,179.0,1
394,394,-0.3187241669995259,-0.3,0.0,1.0,396.0,710.0,1.0,0,214.0,1
395,395,0.3154026130744688,0.3,1.0,1.0,363.0,698.0,1.0,1,509.0,1
396,396,0.09155530015308211,0.1,0.0,0.0,313.0,954.0,1.0,0,613.0,0
397,397,0.6000633498145168,0.6,0.0,0.0,496.0,835.0,0.0,1,379.0,1
398,398,-0.09331160709538378,-0.1,1.0,0.0,421.0,714.0,0.0,0,865.0,1
399,399,0.2504287163707356,0.3,1.0,1.0,276.0,587.0,1.0,1,407.0,1
400,400,0.5214129150161689,0.5,1.0,1.0,266.0,613.0,1.0,1,211.0,1
401,401,-0.05542762137207857,-0.1,1.0,0.0,493.0,912.0,0.0,0,715.0,1
402,402,0.7251341814261437,0.7,1.0,1.0,333.0,546.0,1.0,1,271.0,1
403,403,0.3298034288014501,0.3,1.0,1.0,330.0,910.0,1.0,1,260.0,1
404,404,0.6154526530984091,0.6,0.0,0.0,416.0,813.0,0.0,1,141.0,1
405,405,0.47912840965921977,0.5,0.0,0.0,323.0,999.0,0.0,1,88.0,1
406,406,0.7308506192464125,0.7,1.0,1.0,331.0,853.0,1.0,1,66.0,1
407,407,-0.8941266127699239,-0.9,0.0,1.0,395.0,843.0,1.0,0,52.0,1
408,408,0.46974071077848,0.5,0.0,0.0,421.0,660.0,0.0,1,209.0,1
409,409,0.5030274959522721,0.5,1.0,1.0,266.0,526.0,1.0,1,488.0,1
410,410,-0.1858074682673987,-0.2,1.0,0.0,395.0,643.0,0.0,0,732.0,1
411,411,0.3317435109585055,0.3,0.0,0.0,447.0,820.0,0.0,1,243.0,1
412,412,-0.00778384569888213,-0.0,1.0,0.0,301.0,679.0,1.0,1,2520.0,0
413,413,-0.7849675427338535,-0.8,1.0,0.0,321.0,835.0,0.0,0,234.0,1
414,414,-0.22807956406432384,-0.2,1.0,0.0,307.0,555.0,0.0,0,388.0,1
415,415,-0.7827467719866551,-0.8,1.0,0.0,448.0,921.0,0.0,0,131.0,1
416,416,-0.6516383102029212,-0.7,1.0,0.0,278.0,612.0,0.0,0,340.0,1
417,417,0.4958468049640784,0.5,0.0,0.0,420.0,908.0,0.0,1,272.0,1
418,418,0.8451051637370347,0.8,0.0,0.0,304.0,770.0,0.0,1,226.0,1
419,419,-0.4340440589549759,-0.4,0.0,1.0,447.0,962.0,1.0,0,291.0,1
420,420,0.6002830395889936,0.6,0.0,0.0,470.0,708.0,0.0,1,252.0,1
421,421,0.7217973386314723,0.7,1.0,1.0,275.0,919.0,1.0,1,376.0,1
422,422,0.46692172946159494,0.5,1.0,1.0,314.0,838.0,1.0,1,128.0,1
423,423,-0.47734933618326775,-0.5,1.0,0.0,283.0,992.0,1.0,1,-325.0,0
424,424,0.13825879336119262,0.1,1.0,1.0,408.0,652.0,1.0,1,350.0,1
425,425,-0.8203046899131837,-0.8,1.0,0.0,380.0,866.0,0.0,0,134.0,1
426,426,-0.46515557663322477,-0.5,1.0,0.0,451.0,659.0,0.0,0,350.0,1
427,427,0.6556144712959201,0.7,0.0,0.0,406.0,909.0,0.0,1,125.0,1
428,428,0.32306639809454596,0.3,0.0,0.0,425.0,799.0,0.0,1,226.0,1
429,429,-0.6319418484351669,-0.6,1.0,0.0,392.0,890.0,0.0,0,228.0,1
430,430,-0.7504085802650529,-0.8,1.0,0.0,286.0,730.0,0.0,0,244.0,1
431,431,0.2840411280994103,0.3,0.0,0.0,441.0,748.0,0.0,1,251.0,1
432,432,-0.25455534411280945,-0.3,1.0,0.0,455.0,569.0,0.0,0,626.0,1
433,433,0.889403959530258,0.9,0.0,0.0,489.0,725.0,0.0,1,176.0,1
434,434,0.6622483011789074,0.7,1.0,1.0,485.0,795.0,1.0,1,60.0,1
435,435,0.3295935645241125,0.3,0.0,0.0,415.0,613.0,0.0,1,252.0,1
436,436,-0.3105404657515546,-0.3,1.0,0.0,352.0,594.0,0.0,0,344.0,1
437,437,0.2994988772964843,0.3,1.0,1.0,305.0,671.0,1.0,1,464.0,1
438,438,-0.12771075865385428,-0.1,0.0,1.0,376.0,934.0,1.0,0,430.0,1
439,439,0.38599386942834635,0.4,0.0,0.0,363.0,608.0,0.0,1,489.0,1
440,440,0.7337781525965689,0.7,1.0,1.0,398.0,587.0,1.0,1,125.0,1
441,441,0.8641193981169778,0.9,1.0,1.0,385.0,508.0,1.0,1,357.0,1
442,442,0.06893004116047174,0.1,1.0,1.0,471.0,773.0,1.0,1,766.0,1
443,443,0.7182494432792149,0.7,1.0,1.0,440.0,685.0,1.0,1,285.0,1
444,444,0.08081558612081019,0.1,1.0,1.0,437.0,747.0,1.0,1,1596.0,1
445,445,-0.16244053554837568,-0.2,0.0,1.0,400.0,982.0,1.0,0,238.0,1
446,446,0.7150073848575281,0.7,1.0,1.0,454.0,590.0,1.0,1,456.0,1
447,447,0.0634485742552433,0.1,1.0,1.0,409.0,888.0,1.0,1,953.0,1
448,448,-0.5861417053088489,-0.6,1.0,0.0,455.0,756.0,0.0,0,179.0,1
449,449,-0.16111271478869138,-0.2,0.0,1.0,442.0,780.0,1.0,0,1388.0,1
450,450,-0.5492370958360517,-0.5,0.0,1.0,324.0,668.0,1.0,0,228.0,1
451,451,0.7566689501910105,0.8,0.0,0.0,435.0,941.0,0.0,1,214.0,1
452,452,-0.1408188410580029,-0.1,0.0,1.0,466.0,914.0,1.0,0,1490.0,1
453,453,-0.12301598202538477,-0.1,0.0,1.0,304.0,629.0,1.0,0,587.0,1
454,454,0.677864125203803,0.7,0.0,0.0,272.0,988.0,0.0,1,240.0,1
455,455,-0.1173553647360458,-0.1,1.0,0.0,423.0,590.0,0.0,0,777.0,1
456,456,0.7479287377605023,0.7,0.0,0.0,449.0,932.0,0.0,1,159.0,1
457,457,-0.6596751973398898,-0.7,1.0,0.0,257.0,851.0,0.0,0,272.0,1
458,458,0.7081116075222699,0.7,1.0,1.0,434.0,606.0,1.0,1,270.0,1
459,459,0.6255825741085997,0.6,0.0,0.0,467.0,939.0,0.0,1,294.0,1
460,460,0.4037382249177809,0.4,1.0,1.0,342.0,919.0,1.0,1,119.0,1
461,461,-0.7223896914685687,-0.7,1.0,0.0,474.0,925.0,0.0,0,301.0,1
462,462,-0.39853104535214456,-0.4,0.0,1.0,314.0,679.0,1.0,0,357.0,1
463,463,-0.06425238943012479,-0.1,1.0,0.0,313.0,981.0,1.0,1,606.0,0
464,464,-0.4569270260635064,-0.5,1.0,0.0,253.0,707.0,0.0,0,160.0,1
465,465,0.2017566103486811,0.2,1.0,1.0,460.0,548.0,1.0,1,262.0,1
466,466,0.7139039079128385,0.7,0.0,0.0,251.0,652.0,0.0,1,307.0,1
467,467,0.5323750829071688,0.5,1.0,1.0,381.0,888.0,1.0,1,151.0,1
468,468,-0.29502728191651784,-0.3,0.0,1.0,473.0,908.0,1.0,0,709.0,1
469,469,0.4992676905089978,0.5,1.0,1.0,301.0,633.0,1.0,1,216.0,1
470,470,0.6141508160781918,0.6,1.0,1.0,304.0,777.0,1.0,1,319.0,1
471,471,0.397867793134865,0.4,0.0,0.0,323.0,625.0,0.0,1,232.0,1
472,472,0.24487763849506405,0.2,0.0,0.0,489.0,862.0,0.0,1,389.0,1
473,473,-0.6229374284291922,-0.6,0.0,1.0,303.0,857.0,1.0,0,390.0,1
474,474,-0.5745970883153442,-0.6,1.0,0.0,429.0,954.0,0.0,0,227.0,1
475,475,0.809019180881905,0.8,0.0,0.0,278.0,704.0,0.0,1,248.0,1
476,476,-0.6843211206278033,-0.7,1.0,0.0,307.0,891.0,0.0,0,152.0,1
477,477,0.10235873007255669,0.1,1.0,1.0,252.0,509.0,1.0,1,1139.0,1
478,478,0.28742897830164116,0.3,0.0,0.0,327.0,839.0,0.0,1,494.0,1
479,479,-0.8454342883012675,-0.8,0.0,1.0,289.0,600.0,1.0,0,251.0,1
480,480,0.776025866687924,0.8,1.0,1.0,261.0,678.0,1.0,1,291.0,1
481,481,0.6714743081591735,0.7,1.0,1.0,341.0,757.0,1.0,1,22.0,1
482,482,0.41206428135605233,0.4,1.0,1.0,305.0,984.0,1.0,1,161.0,1
483,483,-0.04566828742715545,-0.0,0.0,1.0,255.0,716.0,1.0,0,489.0,1
484,484,-0.046556733217524515,-0.0,0.0,1.0,483.0,787.0,1.0,0,1440.0,1
485,485,-0.17503834195181545,-0.2,1.0,0.0,284.0,821.0,0.0,0,995.0,1
486,486,-0.17023689396923836,-0.2,1.0,0.0,406.0,657.0,0.0,0,657.0,1
487,487,-0.44989409415333903,-0.4,0.0,1.0,347.0,935.0,1.0,0,218.0,1
488,488,0.5493442205888589,0.5,1.0,1.0,315.0,821.0,1.0,1,224.0,1
489,489,-0.8281276651203889,-0.8,1.0,0.0,430.0,733.0,0.0,0,197.0,1
490,490,0.27592179089433444,0.3,1.0,1.0,258.0,974.0,1.0,1,-92.0,1
491,491,-0.6961587802415861,-0.7,1.0,0.0,468.0,614.0,0.0,0,368.0,1
492,492,0.5688834281040601,0.6,1.0,1.0,378.0,568.0,1.0,1,514.0,1
493,493,-0.531610309515731,-0.5,1.0,0.0,487.0,611.0,0.0,0,382.0,1
494,494,-0.3351699870452298,-0.3,0.0,1.0,399.0,707.0,1.0,0,324.0,1
495,495,-0.8632554203164803,-0.9,0.0,1.0,426.0,971.0,1.0,0,93.0,1
496,496,-0.4987712781208819,-0.5,0.0,1.0,343.0,678.0,1.0,0,229.0,1
497,497,0.4294689442406677,0.4,0.0,0.0,493.0,984.0,0.0,1,423.0,1
498,498,-0.10208658124995429,-0.1,1.0,0.0,493.0,655.0,0.0,0,3102.0,1
499,499,0.6635097187446447,0.7,0.0,0.0,493.0,883.0,0.0,1,274.0,1
500,500,0.3879163973915657,0.4,0.0,0.0,268.0,886.0,0.0,1,456.0,1
501,501,0.7824600884629526,0.8,1.0,1.0,268.0,675.0,1.0,1,147.0,1
502,502,-0.728277662933988,-0.7,1.0,0.0,325.0,898.0,0.0,0,147.0,1
503,503,-0.3607028414391833,-0.4,0.0,1.0,460.0,963.0,1.0,0,167.0,1
504,504,-0.3938591135063071,-0.4,0.0,1.0,292.0,536.0,1.0,0,792.0,1
505,505,0.8998735146415219,0.9,0.0,0.0,342.0,800.0,0.0,1,98.0,1
506,506,0.5203049764804154,0.5,0.0,0.0,474.0,758.0,0.0,1,278.0,1
507,507,-0.14412456835550025,-0.1,1.0,0.0,388.0,828.0,0.0,0,3784.0,1
508,508,-0.4459378585242734,-0.4,0.0,1.0,253.0,534.0,1.0,0,283.0,1
509,509,0.0853270695373134,0.1,0.0,0.0,347.0,509.0,0.0,1,1794.0,1
510,510,0.3553928550128743,0.4,0.0,0.0,452.0,841.0,0.0,1,277.0,1
511,511,-0.4909742059929218,-0.5,0.0,1.0,328.0,507.0,1.0,0,745.0,1
512,512,-0.49064996873814504,-0.5,0.0,1.0,465.0,800.0,1.0,0,265.0,1
513,513,0.8959759661870496,0.9,1.0,1.0,458.0,697.0,1.0,1,165.0,1
514,514,-0.6512300448216644,-0.7,0.0,1.0,401.0,797.0,1.0,0,232.0,1
515,515,0.2097108315649091,0.2,0.0,0.0,262.0,593.0,0.0,1,265.0,1
516,516,-0.5979561690579251,-0.6,0.0,1.0,421.0,926.0,1.0,0,193.0,1
517,517,-0.05642182371060023,-0.1,1.0,0.0,442.0,765.0,1.0,1,3223.0,0
518,518,0.5514584208503729,0.6,0.0,0.0,293.0,863.0,0.0,1,384.0,1
519,519,0.4418934218720433,0.4,1.0,1.0,429.0,747.0,1.0,1,384.0,1
520,520,0.13042380368312168,0.1,1.0,1.0,422.0,548.0,1.0,1,290.0,1
521,521,0.220048799964364,0.2,1.0,1.0,328.0,543.0,1.0,1,459.0,1
522,522,-0.30414728792485224,-0.3,0.0,1.0,250.0,894.0,1.0,0,166.0,1
523,523,0.0962561498747233,0.1,1.0,1.0,482.0,833.0,1.0,1,1065.0,1
524,524,-0.24825128861783008,-0.2,0.0,1.0,481.0,973.0,1.0,0,436.0,1
525,525,-0.0025603963780124195,-0.0,1.0,0.0,395.0,538.0,0.0,0,2337.0,1
526,526,0.3683249432939092,0.4,1.0,1.0,299.0,584.0,1.0,1,387.0,1
527,527,0.1566113350694175,0.2,0.0,0.0,482.0,535.0,0.0,1,973.0,1
528,528,-0.7735673815680334,-0.8,1.0,0.0,356.0,846.0,0.0,0,248.0,1
529,529,-0.39461153492849876,-0.4,1.0,0.0,407.0,579.0,0.0,0,214.0,1
530,530,0.5203362444379055,0.5,1.0,1.0,492.0,657.0,1.0,1,121.0,1
531,531,0.5242401206281709,0.5,0.0,0.0,433.0,853.0,0.0,1,464.0,1
532,532,0.7347645501995862,0.7,1.0,1.0,318.0,826.0,1.0,1,436.0,1
533,533,-0.8984768100797973,-0.9,1.0,0.0,451.0,915.0,1.0,1,-16.0,0
534,534,-0.26564363977847205,-0.3,0.0,1.0,371.0,777.0,1.0,0,422.0,1
535,535,-0.7399090426150267,-0.7,0.0,1.0,488.0,628.0,1.0,0,264.0,1
536,536,-0.4939492636987248,-0.5,1.0,0.0,401.0,706.0,0.0,0,263.0,1
537,537,-0.36191688669681643,-0.4,1.0,0.0,394.0,639.0,0.0,0,797.0,1
538,538,-0.3216724150087096,-0.3,1.0,0.0,263.0,787.0,0.0,0,280.0,1
539,539,-0.862339788842943,-0.9,0.0,1.0,325.0,527.0,1.0,0,308.0,1
540,540,-0.44191981296421695,-0.4,0.0,1.0,417.0,881.0,1.0,0,152.0,1
541,541,0.4483790330645071,0.4,1.0,1.0,362.0,779.0,1.0,1,219.0,1
542,542,0.7636928717498158,0.8,0.0,0.0,445.0,585.0,0.0,1,230.0,1
543,543,-0.853536931503413,-0.9,0.0,1.0,267.0,556.0,1.0,0,197.0,1
544,544,-0.3784846904687267,-0.4,1.0,0.0,373.0,684.0,0.0,0,983.0,1
545,545,-0.4574814823138607,-0.5,1.0,0.0,389.0,522.0,0.0,0,449.0,1
546,546,-0.7757739042086726,-0.8,0.0,1.0,350.0,677.0,1.0,0,613.0,1
547,547,-0.31136915747074334,-0.3,1.0,0.0,314.0,786.0,0.0,0,430.0,1
548,548,0.45488183934738824,0.5,1.0,1.0,420.0,729.0,1.0,1,171.0,1
549,549,0.5044267514018311,0.5,1.0,1.0,287.0,914.0,1.0,1,249.0,1
550,550,-0.261099691634467,-0.3,0.0,1.0,354.0,725.0,1.0,0,701.0,1
551,551,0.4421069973740269,0.4,1.0,1.0,251.0,862.0,1.0,1,307.0,1
552,552,-0.14947645192899384,-0.1,0.0,1.0,466.0,681.0,1.0,0,593.0,1
553,553,-0.6923809676715197,-0.7,0.0,1.0,279.0,985.0,1.0,0,86.0,1
554,554,-0.7439087115496952,-0.7,0.0,1.0,429.0,991.0,1.0,0,120.0,1
555,555,-0.4315699316112375,-0.4,0.0,1.0,475.0,837.0,1.0,0,158.0,1
556,556,-0.7506743419205948,-0.8,0.0,1.0,470.0,717.0,1.0,0,283.0,1
557,557,0.7352929770824962,0.7,1.0,1.0,482.0,552.0,1.0,1,166.0,1
558,558,0.5502314559912217,0.6,1.0,1.0,303.0,986.0,1.0,1,501.0,1
559,559,0.13367682756526322,0.1,0.0,0.0,444.0,576.0,0.0,1,1500.0,1
560,560,0.09619012236275704,0.1,0.0,0.0,310.0,542.0,1.0,0,2488.0,0
561,561,-0.5180645104794358,-0.5,1.0,0.0,409.0,659.0,0.0,0,382.0,1
562,562,0.7662055129302491,0.8,0.0,0.0,427.0,858.0,0.0,1,225.0,1
563,563,0.8758046792428517,0.9,1.0,1.0,403.0,927.0,1.0,1,40.0,1
564,564,-0.694947863884354,-0.7,1.0,0.0,471.0,771.0,0.0,0,208.0,1
565,565,0.7522386621575353,0.8,0.0,0.0,345.0,862.0,0.0,1,243.0,1
566,566,-0.7293862655656632,-0.7,1.0,0.0,414.0,675.0,0.0,0,241.0,1
567,567,-0.4491437004691671,-0.4,0.0,1.0,294.0,719.0,1.0,0,187.0,1
568,568,-0.689945072696289,-0.7,0.0,1.0,372.0,510.0,1.0,0,348.0,1
569,569,-0.48509760843304967,-0.5,0.0,1.0,265.0,735.0,1.0,0,400.0,1
570,570,0.21275670621294973,0.2,0.0,0.0,298.0,675.0,0.0,1,787.0,1
571,571,0.24173742724400482,0.2,0.0,0.0,290.0,843.0,0.0,1,627.0,1
572,572,0.44239111236222384,0.4,0.0,0.0,439.0,987.0,0.0,1,474.0,1
573,573,0.27854934838435763,0.3,1.0,1.0,406.0,592.0,1.0,1,552.0,1
574,574,0.3604431353983596,0.4,1.0,1.0,446.0,642.0,1.0,1,282.0,1
575,575,-0.2958998137870662,-0.3,0.0,1.0,462.0,923.0,1.0,0,365.0,1
576,576,0.17904853682799204,0.2,0.0,0.0,295.0,727.0,0.0,1,648.0,1
577,577,0.6715352664765027,0.7,0.0,0.0,415.0,750.0,0.0,1,215.0,1
578,578,0.8164607698634082,0.8,0.0,0.0,363.0,684.0,0.0,1,323.0,1
579,579,0.01309025050543866,0.0,1.0,1.0,470.0,530.0,0.0,0,940.0,0
580,580,-0.3239260670959718,-0.3,0.0,1.0,330.0,943.0,1.0,0,177.0,1
581,581,0.27638937860256474,0.3,0.0,0.0,348.0,856.0,0.0,1,156.0,1
582,582,0.5042544035508042,0.5,1.0,1.0,355.0,550.0,1.0,1,375.0,1
583,583,-0.23682277462516355,-0.2,0.0,1.0,363.0,704.0,1.0,0,313.0,1
584,584,0.15972467528283218,0.2,0.0,0.0,453.0,850.0,0.0,1,487.0,1
585,585,0.5942306705449799,0.6,0.0,0.0,434.0,621.0,0.0,1,285.0,1
586,586,0.6210760027011891,0.6,1.0,1.0,257.0,852.0,1.0,1,251.0,1
587,587,-0.17677064231695505,-0.2,1.0,0.0,492.0,719.0,0.0,0,1219.0,1
588,588,0.05439879243618795,0.1,1.0,1.0,492.0,797.0,1.0,1,761.0,1
589,589,-0.1922293806686607,-0.2,1.0,0.0,400.0,822.0,0.0,0,2058.0,1
590,590,-0.2380767152013794,-0.2,1.0,0.0,364.0,636.0,0.0,0,430.0,1
591,591,0.74831411648148,0.7,1.0,1.0,482.0,975.0,1.0,1,143.0,1
592,592,0.12413022980021526,0.1,0.0,0.0,254.0,647.0,0.0,1,1289.0,1
593,593,-0.5133769752699925,-0.5,0.0,1.0,278.0,753.0,1.0,0,439.0,1
594,594,0.0829730312324245,0.1,1.0,1.0,402.0,978.0,1.0,1,1510.0,1
595,595,-0.8963783047074062,-0.9,0.0,1.0,284.0,647.0,1.0,0,159.0,1
596,596,-0.5321401455749001,-0.5,1.0,0.0,438.0,825.0,0.0,0,197.0,1
597,597,0.45829662500755075,0.5,1.0,1.0,281.0,591.0,1.0,1,238.0,1
598,598,0.6536750411935256,0.7,0.0,0.0,394.0,564.0,0.0,1,522.0,1
599,599,0.2609944315674696,0.3,1.0,1.0,287.0,931.0,1.0,1,532.0,1
600,600,-0.21273812581349238,-0.2,1.0,0.0,314.0,643.0,0.0,0,883.0,1
601,601,-0.8228927703856278,-0.8,0.0,1.0,388.0,754.0,1.0,0,138.0,1
602,602,-0.031051489676413357,-0.0,1.0,0.0,406.0,793.0,1.0,1,3801.0,0
603,603,-0.13940171224934372,-0.1,1.0,0.0,465.0,729.0,0.0,0,1116.0,1
604,604,0.7492285142850398,0.7,0.0,0.0,459.0,920.0,0.0,1,221.0,1
605,605,0.6162310479406473,0.6,1.0,1.0,452.0,659.0,1.0,1,489.0,1
606,606,0.3082732329320904,0.3,0.0,0.0,422.0,657.0,0.0,1,591.0,1
607,607,0.26239490365252804,0.3,1.0,1.0,377.0,673.0,1.0,1,520.0,1
608,608,0.062085916607527936,0.1,0.0,0.0,330.0,980.0,0.0,1,3050.0,1
609,609,0.2928351276155322,0.3,0.0,0.0,348.0,759.0,0.0,1,283.0,1
610,610,0.11573525202864288,0.1,0.0,0.0,346.0,744.0,0.0,1,1630.0,1
611,611,-0.09743091920049296,-0.1,1.0,0.0,283.0,773.0,0.0,0,744.0,1
612,612,0.7738048860730747,0.8,1.0,1.0,489.0,720.0,1.0,1,341.0,1
613,613,0.8781804147203384,0.9,1.0,1.0,363.0,891.0,1.0,1,86.0,1
614,614,0.4891839558390688,0.5,1.0,1.0,296.0,524.0,1.0,1,390.0,1
615,615,-0.5793067556983398,-0.6,0.0,1.0,395.0,890.0,1.0,0,315.0,1
616,616,0.7846549807585158,0.8,0.0,0.0,380.0,957.0,0.0,1,123.0,1
617,617,0.8161125592224522,0.8,0.0,0.0,483.0,841.0,0.0,1,176.0,1
618,618,0.1817080236370553,0.2,1.0,1.0,325.0,747.0,1.0,1,208.0,1
619,619,0.686648059834217,0.7,0.0,0.0,436.0,518.0,0.0,1,426.0,1
620,620,-0.4290118733916066,-0.4,1.0,0.0,378.0,905.0,0.0,0,547.0,1
621,621,0.8821184378399461,0.9,0.0,0.0,480.0,872.0,0.0,1,68.0,1
622,622,-0.7616368864090632,-0.8,0.0,1.0,418.0,859.0,1.0,0,93.0,1
623,623,-0.7773007992943405,-0.8,0.0,1.0,280.0,953.0,1.0,0,227.0,1
624,624,0.33237191047126025,0.3,1.0,1.0,269.0,704.0,1.0,1,317.0,1
625,625,0.514005702671615,0.5,1.0,1.0,358.0,837.0,1.0,1,115.0,1
626,626,-0.29862759056556876,-0.3,1.0,0.0,427.0,838.0,0.0,0,735.0,1
627,627,-0.5582978171884605,-0.6,1.0,0.0,497.0,891.0,0.0,0,192.0,1
628,628,-0.22479896627745455,-0.2,1.0,0.0,293.0,879.0,0.0,0,1028.0,1
629,629,-0.16992214103250058,-0.2,1.0,0.0,351.0,807.0,0.0,0,392.0,1
630,630,-0.8942308388743891,-0.9,1.0,0.0,497.0,731.0,0.0,0,242.0,1
631,631,0.0456750431972035,0.0,1.0,1.0,321.0,736.0,1.0,1,903.0,1
632,632,0.5451552222140205,0.5,0.0,0.0,391.0,778.0,0.0,1,201.0,1
633,633,-0.21230892444795701,-0.2,0.0,1.0,369.0,611.0,1.0,0,450.0,1
634,634,-0.32700765278406063,-0.3,1.0,0.0,447.0,786.0,0.0,0,607.0,1
635,635,-0.5142383372599335,-0.5,0.0,1.0,260.0,695.0,1.0,0,355.0,1
636,636,0.2933630486415174,0.3,1.0,1.0,360.0,810.0,1.0,1,450.0,1
637,637,-0.12553650673609618,-0.1,0.0,1.0,400.0,523.0,1.0,0,1697.0,1
638,638,0.7648873763686689,0.8,0.0,0.0,435.0,878.0,0.0,1,197.0,1
639,639,0.159975083714062,0.2,1.0,1.0,361.0,828.0,1.0,1,41.0,1
640,640,0.8434269771619486,0.8,0.0,0.0,378.0,845.0,0.0,1,277.0,1
641,641,-0.4523293321463229,-0.5,1.0,0.0,291.0,802.0,0.0,0,277.0,1
642,642,0.14456249666887466,0.1,1.0,1.0,414.0,567.0,1.0,1,569.0,1
643,643,0.3735363642484769,0.4,0.0,0.0,461.0,794.0,0.0,1,405.0,1
644,644,0.3351029583025732,0.3,0.0,0.0,367.0,769.0,0.0,1,394.0,1
645,645,0.32942212550306216,0.3,1.0,1.0,317.0,622.0,1.0,1,311.0,1
646,646,-0.4479955306674978,-0.4,1.0,0.0,389.0,501.0,0.0,0,410.0,1
647,647,-0.1913362242955854,-0.2,1.0,0.0,453.0,655.0,0.0,0,2622.0,1
648,648,-0.3626617505770111,-0.4,0.0,1.0,318.0,729.0,1.0,0,233.0,1
649,649,-0.4410751617330261,-0.4,1.0,0.0,419.0,826.0,0.0,0,135.0,1
650,650,0.6645936440336354,0.7,1.0,1.0,411.0,554.0,1.0,1,325.0,1
651,651,-0.3874957374079463,-0.4,1.0,0.0,414.0,888.0,0.0,0,568.0,1
652,652,-0.29232354167095354,-0.3,1.0,0.0,393.0,580.0,0.0,0,577.0,1
653,653,0.5997658399950366,0.6,0.0,0.0,366.0,930.0,0.0,1,144.0,1
654,654,0.08128560259200845,0.1,1.0,1.0,327.0,501.0,1.0,1,1172.0,1
655,655,-0.4172625828124255,-0.4,0.0,1.0,352.0,860.0,1.0,0,248.0,1
656,656,-0.7964586879760173,-0.8,1.0,0.0,403.0,540.0,0.0,0,437.0,1
657,657,0.07240069677071637,0.1,1.0,1.0,372.0,705.0,1.0,1,443.0,1
658,658,0.7172188838614154,0.7,0.0,0.0,254.0,602.0,0.0,1,324.0,1
659,659,-0.057584970214481945,-0.1,1.0,0.0,462.0,537.0,0.0,0,2061.0,1
660,660,0.7405858314862556,0.7,0.0,0.0,339.0,580.0,0.0,1,361.0,1
661,661,-0.5370271032570799,-0.5,0.0,1.0,345.0,698.0,1.0,0,367.0,1
662,662,0.7762505220558741,0.8,1.0,1.0,490.0,627.0,1.0,1,213.0,1
663,663,0.4146413305162898,0.4,1.0,1.0,346.0,863.0,1.0,1,311.0,1
664,664,0.06324320876479472,0.1,0.0,0.0,271.0,507.0,1.0,0,2842.0,0
665,665,0.20634500899092456,0.2,1.0,1.0,486.0,772.0,1.0,1,182.0,1
666,666,0.7334002186406595,0.7,0.0,0.0,328.0,543.0,0.0,1,289.0,1
667,667,0.2814906554718132,0.3,1.0,1.0,362.0,741.0,1.0,1,197.0,1
668,668,-0.16247659914703805,-0.2,1.0,0.0,345.0,825.0,0.0,0,390.0,1
669,669,0.11532476883408516,0.1,0.0,0.0,251.0,857.0,1.0,0,602.0,0
670,670,0.2386186850823956,0.2,0.0,0.0,457.0,824.0,0.0,1,279.0,1
671,671,0.2808377794956066,0.3,1.0,1.0,355.0,536.0,1.0,1,519.0,1
672,672,-0.8025451280118068,-0.8,0.0,1.0,271.0,811.0,1.0,0,228.0,1
673,673,0.8726969225304627,0.9,1.0,1.0,359.0,600.0,1.0,1,241.0,1
674,674,0.5800569861822814,0.6,0.0,0.0,316.0,961.0,0.0,1,183.0,1
675,675,0.7924788221149873,0.8,1.0,1.0,321.0,601.0,1.0,1,388.0,1
676,676,0.01436417203896645,0.0,1.0,1.0,452.0,997.0,1.0,1,501.0,1
677,677,-0.2509880160674618,-0.3,0.0,1.0,444.0,904.0,1.0,0,222.0,1
678,678,-0.351170756455645,-0.4,0.0,1.0,378.0,781.0,1.0,0,241.0,1
679,679,0.6792280139931804,0.7,1.0,1.0,470.0,816.0,1.0,1,84.0,1
680,680,0.15901018714040516,0.2,1.0,1.0,411.0,685.0,1.0,1,404.0,1
681,681,0.6854254327435151,0.7,1.0,1.0,469.0,973.0,1.0,1,168.0,1
682,682,0.32886562851724366,0.3,1.0,1.0,478.0,890.0,1.0,1,352.0,1
683,683,-0.7034916045302823,-0.7,1.0,0.0,419.0,883.0,0.0,0,1178.0,1
684,684,0.7554830859661427,0.8,0.0,0.0,489.0,976.0,0.0,1,195.0,1
685,685,-0.8494768713550089,-0.8,1.0,0.0,384.0,581.0,0.0,0,505.0,1
686,686,-0.7161414647461934,-0.7,0.0,1.0,480.0,639.0,1.0,0,971.0,1
687,687,0.7011526996932521,0.7,1.0,1.0,267.0,803.0,1.0,1,60.0,1
688,688,-0.19613543920089238,-0.2,0.0,1.0,472.0,613.0,1.0,0,855.0,1
689,689,0.1690452563992223,0.2,1.0,1.0,404.0,793.0,1.0,1,973.0,1
690,690,-0.6059927045480384,-0.6,0.0,1.0,294.0,688.0,1.0,0,558.0,1
691,691,-0.7481929319750258,-0.7,1.0,0.0,369.0,561.0,0.0,0,380.0,1
692,692,-0.503463834408701,-0.5,0.0,1.0,329.0,622.0,1.0,0,279.0,1
693,693,-0.2977223911809408,-0.3,0.0,1.0,487.0,829.0,1.0,0,294.0,1
694,694,-0.21707828838783805,-0.2,1.0,0.0,272.0,948.0,0.0,0,980.0,1
695,695,-0.46098540899828666,-0.5,1.0,0.0,364.0,761.0,0.0,0,385.0,1
696,696,0.026511350467355754,0.0,0.0,0.0,342.0,956.0,0.0,1,3702.0,1
697,697,-0.04146336859564881,-0.0,1.0,0.0,416.0,784.0,0.0,0,1660.0,1
698,698,0.6638706828988538,0.7,0.0,0.0,321.0,606.0,0.0,1,183.0,1
699,699,-0.6562146900158196,-0.7,1.0,0.0,253.0,541.0,0.0,0,436.0,1
700,700,-0.5654989631667933,-0.6,1.0,0.0,494.0,830.0,0.0,0,296.0,1
701,701,0.009230795939595304,0.0,1.0,1.0,330.0,517.0,1.0,1,1283.0,1
702,702,-0.1195102212357827,-0.1,0.0,1.0,496.0,893.0,1.0,0,121.0,1
703,703,-0.6171748124491394,-0.6,0.0,1.0,309.0,652.0,1.0,0,89.0,1
704,704,-0.024566771375700958,-0.0,0.0,1.0,434.0,734.0,1.0,0,512.0,1
705,705,-0.8766499040448421,-0.9,1.0,0.0,351.0,929.0,0.0,0,420.0,1
706,706,0.3359756196885254,0.3,0.0,0.0,270.0,586.0,0.0,1,754.0,1
707,707,-0.595539609606274,-0.6,0.0,1.0,488.0,862.0,1.0,0,220.0,1
708,708,0.17688216774795074,0.2,1.0,1.0,390.0,928.0,1.0,1,252.0,1
709,709,0.3383349532168448,0.3,1.0,1.0,478.0,682.0,1.0,1,180.0,1
710,710,-0.2166367967662931,-0.2,1.0,0.0,418.0,851.0,0.0,0,1151.0,1
711,711,0.11274319413907208,0.1,1.0,1.0,358.0,872.0,1.0,1,370.0,1
712,712,-0.18969843128063535,-0.2,1.0,0.0,481.0,523.0,0.0,0,1656.0,1
713,713,-0.28242465317761434,-0.3,0.0,1.0,494.0,717.0,1.0,0,539.0,1
714,714,-0.03816535921401554,-0.0,1.0,0.0,402.0,764.0,0.0,0,1164.0,1
715,715,0.19927342953242955,0.2,1.0,1.0,462.0,923.0,1.0,1,215.0,1
716,716,-0.4823565939270987,-0.5,0.0,1.0,430.0,562.0,1.0,0,808.0,1
717,717,0.7824506014843878,0.8,1.0,1.0,482.0,809.0,1.0,1,199.0,1
718,718,-0.03991811742553397,-0.0,0.0,1.0,380.0,575.0,1.0,0,735.0,1
719,719,0.6033129892670305,0.6,0.0,0.0,488.0,567.0,0.0,1,385.0,1
720,720,-0.7802862306480646,-0.8,1.0,0.0,472.0,864.0,0.0,0,324.0,1
721,721,0.5266457774801928,0.5,0.0,0.0,284.0,673.0,0.0,1,443.0,1
722,722,0.5820364429858463,0.6,0.0,0.0,406.0,953.0,0.0,1,191.0,1
723,723,-0.3982615349748926,-0.4,0.0,1.0,390.0,656.0,1.0,0,734.0,1
724,724,-0.1514480061185286,-0.2,0.0,1.0,266.0,998.0,1.0,0,306.0,1
725,725,0.8020162021219855,0.8,1.0,1.0,334.0,766.0,1.0,1,190.0,1
726,726,-0.6906085732082639,-0.7,1.0,0.0,258.0,710.0,0.0,0,422.0,1
727,727,0.8785906518733918,0.9,0.0,0.0,412.0,715.0,0.0,1,223.0,1
728,728,0.3805339028916529,0.4,0.0,0.0,382.0,974.0,0.0,1,284.0,1
729,729,-0.7634355964222677,-0.8,0.0,1.0,264.0,904.0,1.0,0,222.0,1
730,730,-0.5625537872844502,-0.6,0.0,1.0,340.0,566.0,1.0,0,384.0,1
731,731,0.7297101349200069,0.7,0.0,0.0,298.0,819.0,0.0,1,133.0,1
732,732,-0.5726451075740994,-0.6,0.0,1.0,415.0,751.0,1.0,0,284.0,1
733,733,-0.32590781352505915,-0.3,0.0,1.0,299.0,823.0,1.0,0,208.0,1
734,734,0.8527212892185284,0.9,0.0,0.0,342.0,851.0,0.0,1,147.0,1
735,735,-0.4081453187953949,-0.4,0.0,1.0,424.0,600.0,1.0,0,456.0,1
736,736,0.5803965365199447,0.6,0.0,0.0,459.0,899.0,0.0,1,222.0,1
737,737,0.020603078003539332,0.0,0.0,0.0,315.0,618.0,1.0,0,647.0,0
738,738,0.3809452964742671,0.4,0.0,0.0,286.0,626.0,0.0,1,758.0,1
739,739,-0.7366462590606033,-0.7,0.0,1.0,424.0,515.0,1.0,0,261.0,1
740,740,-0.6484993973759687,-0.6,0.0,1.0,335.0,802.0,1.0,0,133.0,1
741,741,0.04916822113497754,0.0,1.0,1.0,484.0,669.0,0.0,0,2477.0,0
742,742,-0.8993305569946365,-0.9,1.0,0.0,343.0,702.0,0.0,0,95.0,1
743,743,0.03931923254840375,0.0,1.0,1.0,334.0,628.0,1.0,1,468.0,1
744,744,-0.04294844500567607,-0.0,0.0,1.0,319.0,750.0,1.0,0,2401.0,1
745,745,-0.59714082104493,-0.6,0.0,1.0,355.0,635.0,1.0,0,280.0,1
746,746,0.6251008288055492,0.6,1.0,1.0,350.0,706.0,1.0,1,324.0,1
747,747,-0.8952995820553823,-0.9,1.0,0.0,438.0,604.0,0.0,0,438.0,1
748,748,-0.6762317091758855,-0.7,1.0,0.0,342.0,606.0,0.0,0,302.0,1
749,749,0.7454450409497234,0.7,0.0,0.0,484.0,827.0,0.0,1,219.0,1
750,750,-0.8469515498063055,-0.8,1.0,0.0,324.0,533.0,0.0,0,443.0,1
751,751,0.37573999924076495,0.4,0.0,0.0,380.0,849.0,0.0,1,321.0,1
752,752,0.2815554888280035,0.3,0.0,0.0,410.0,791.0,0.0,1,779.0,1
753,753,-0.4752556067324315,-0.5,1.0,0.0,331.0,754.0,0.0,0,465.0,1
754,754,0.4113696594350261,0.4,0.0,0.0,473.0,757.0,0.0,1,560.0,1
755,755,0.5150261339533361,0.5,1.0,1.0,444.0,870.0,1.0,1,196.0,1
756,756,-0.8296222837877327,-0.8,1.0,0.0,397.0,700.0,0.0,0,263.0,1
757,757,0.7440902636409378,0.7,0.0,0.0,321.0,715.0,0.0,1,274.0,1
758,758,0.8123315903908902,0.8,0.0,0.0,312.0,964.0,0.0,1,144.0,1
759,759,-0.3697299270505451,-0.4,1.0,0.0,255.0,614.0,0.0,0,471.0,1
760,760,-0.1672643945197423,-0.2,1.0,0.0,421.0,785.0,0.0,0,704.0,1
761,761,0.5176496916391188,0.5,1.0,1.0,291.0,730.0,1.0,1,339.0,1
762,762,-0.6843551640776292,-0.7,1.0,0.0,461.0,940.0,0.0,0,169.0,1
763,763,0.32634937080667037,0.3,0.0,0.0,461.0,844.0,0.0,1,1485.0,1
764,764,-0.3229466971004611,-0.3,0.0,1.0,372.0,644.0,1.0,0,204.0,1
765,765,-0.4919375459904864,-0.5,1.0,0.0,341.0,763.0,0.0,0,356.0,1
766,766,-0.8165271865231875,-0.8,0.0,1.0,476.0,839.0,1.0,0,165.0,1
767,767,0.3191681436710744,0.3,1.0,1.0,402.0,595.0,1.0,1,383.0,1
768,768,0.2568525144586512,0.3,0.0,0.0,489.0,880.0,0.0,1,501.0,1
769,769,0.78231614235408,0.8,1.0,1.0,426.0,683.0,1.0,1,291.0,1
770,770,0.4480936949790212,0.4,1.0,1.0,344.0,646.0,1.0,1,320.0,1
771,771,0.659510726638039,0.7,1.0,1.0,385.0,663.0,1.0,1,262.0,1
772,772,0.8428872133512667,0.8,0.0,0.0,316.0,721.0,0.0,1,283.0,1
773,773,-0.020110809283860998,-0.0,1.0,0.0,453.0,797.0,1.0,1,1530.0,0
774,774,0.5852596682096046,0.6,0.0,0.0,275.0,791.0,0.0,1,134.0,1
775,775,0.43292527091737465,0.4,0.0,0.0,497.0,530.0,0.0,1,473.0,1
776,776,-0.5839191928365917,-0.6,0.0,1.0,359.0,867.0,1.0,0,374.0,1
777,777,-0.8528253342657373,-0.9,0.0,1.0,477.0,567.0,1.0,0,366.0,1
778,778,0.8186630950293362,0.8,0.0,0.0,446.0,659.0,0.0,1,275.0,1
779,779,-0.6619281314012354,-0.7,0.0,1.0,320.0,785.0,1.0,0,105.0,1
780,780,0.7583321554487833,0.8,1.0,1.0,436.0,767.0,1.0,1,157.0,1
781,781,-0.6906686308898908,-0.7,1.0,0.0,496.0,526.0,0.0,0,278.0,1
782,782,-0.12592540062889224,-0.1,1.0,0.0,447.0,564.0,0.0,0,1219.0,1
783,783,-0.6570058419671041,-0.7,0.0,1.0,418.0,693.0,1.0,0,199.0,1
784,784,-0.4377040556643973,-0.4,1.0,0.0,380.0,842.0,0.0,0,358.0,1
785,785,-0.6155775472518674,-0.6,0.0,1.0,290.0,947.0,1.0,0,143.0,1
786,786,0.7336003045632479,0.7,1.0,1.0,347.0,975.0,1.0,1,128.0,1
787,787,-0.13779707153276555,-0.1,0.0,1.0,455.0,799.0,1.0,0,576.0,1
788,788,0.5803256844249675,0.6,1.0,1.0,349.0,953.0,1.0,1,98.0,1
789,789,0.31043362263942476,0.3,1.0,1.0,387.0,742.0,1.0,1,701.0,1
790,790,0.141675873645824,0.1,1.0,1.0,321.0,623.0,1.0,1,586.0,1
791,791,-0.8667104681260047,-0.9,0.0,1.0,288.0,766.0,1.0,0,126.0,1
792,792,-0.6103517188133201,-0.6,1.0,0.0,488.0,567.0,0.0,0,355.0,1
793,793,0.6108679877110684,0.6,1.0,1.0,470.0,823.0,1.0,1,167.0,1
794,794,0.8684481158213949,0.9,1.0,1.0,322.0,606.0,1.0,1,152.0,1
795,795,0.41646431740141654,0.4,0.0,0.0,410.0,550.0,0.0,1,540.0,1
796,796,-0.6923477576594509,-0.7,0.0,1.0,277.0,989.0,1.0,0,124.0,1
797,797,-0.06548595616160746,-0.1,1.0,0.0,278.0,672.0,0.0,0,3250.0,1
798,798,0.12995418841276896,0.1,0.0,0.0,437.0,591.0,0.0,1,502.0,1
799,799,0.6016360029096198,0.6,1.0,1.0,280.0,604.0,1.0,1,346.0,1
800,800,0.11398480019180546,0.1,0.0,0.0,452.0,903.0,0.0,1,1505.0,1
801,801,-0.289839113280846,-0.3,1.0,0.0,364.0,575.0,0.0,0,681.0,1
802,802,-0.4007280611808785,-0.4,0.0,1.0,491.0,720.0,1.0,0,229.0,1
803,803,-0.46086179376026754,-0.5,0.0,1.0,406.0,842.0,1.0,0,212.0,1
804,804,0.4838227494372044,0.5,0.0,0.0,379.0,953.0,0.0,1,428.0,1
805,805,0.5580506790775784,0.6,1.0,1.0,368.0,761.0,1.0,1,211.0,1
806,806,-0.42584639789511053,-0.4,1.0,0.0,495.0,937.0,0.0,0,328.0,1
807,807,-0.49920863185599496,-0.5,0.0,1.0,343.0,594.0,1.0,0,473.0,1
808,808,0.8988353610999301,0.9,0.0,0.0,265.0,975.0,0.0,1,170.0,1
809,809,-0.11094453331286303,-0.1,1.0,0.0,377.0,591.0,0.0,0,1452.0,1
810,810,0.12758908466164642,0.1,0.0,0.0,285.0,659.0,0.0,1,816.0,1
811,811,-0.4512047395070549,-0.5,1.0,0.0,440.0,957.0,0.0,0,193.0,1
812,812,-0.5667876810510126,-0.6,0.0,1.0,412.0,750.0,1.0,0,378.0,1
813,813,-0.479661975010038,-0.5,0.0,1.0,369.0,658.0,1.0,0,213.0,1
814,814,0.010069017130067137,0.0,1.0,1.0,427.0,809.0,1.0,1,2684.0,1
815,815,0.6513378076859181,0.7,0.0,0.0,300.0,864.0,0.0,1,266.0,1
816,816,-0.26026953149120424,-0.3,1.0,0.0,257.0,819.0,0.0,0,514.0,1
817,817,-0.7597775733214643,-0.8,1.0,0.0,490.0,728.0,0.0,0,192.0,1
818,818,-0.5814847261954479,-0.6,1.0,0.0,376.0,617.0,0.0,0,277.0,1
819,819,0.20319676085145721,0.2,0.0,0.0,437.0,977.0,1.0,0,76.0,0
820,820,0.056186884281289595,0.1,1.0,1.0,490.0,540.0,1.0,1,1050.0,1
821,821,-0.306345217357873,-0.3,1.0,0.0,395.0,561.0,0.0,0,714.0,1
822,822,-0.123480471226742,-0.1,0.0,1.0,468.0,859.0,1.0,0,713.0,1
823,823,0.18564688009725472,0.2,1.0,1.0,262.0,730.0,1.0,1,688.0,1
824,824,-0.5769235201487444,-0.6,0.0,1.0,331.0,984.0,1.0,0,235.0,1
825,825,-0.7610731186633669,-0.8,1.0,0.0,368.0,616.0,0.0,0,276.0,1
826,826,0.8246589965924206,0.8,0.0,0.0,479.0,520.0,0.0,1,351.0,1
827,827,0.6057129739708901,0.6,0.0,0.0,479.0,722.0,0.0,1,249.0,1
828,828,0.7392840847483683,0.7,1.0,1.0,400.0,684.0,1.0,1,246.0,1
829,829,-0.3292689787390105,-0.3,1.0,0.0,469.0,749.0,0.0,0,202.0,1
830,830,-0.4419552007506094,-0.4,1.0,0.0,433.0,942.0,0.0,0,575.0,1
831,831,0.3157763176949907,0.3,1.0,1.0,349.0,900.0,1.0,1,441.0,1
832,832,0.7117239714819558,0.7,0.0,0.0,396.0,863.0,0.0,1,201.0,1
833,833,0.06358319729064665,0.1,0.0,0.0,474.0,916.0,0.0,1,1230.0,1
834,834,0.8838230066448106,0.9,0.0,0.0,359.0,978.0,0.0,1,103.0,1
835,835,0.8788692376649007,0.9,0.0,0.0,425.0,635.0,0.0,1,300.0,1
836,836,-0.5092000311241768,-0.5,0.0,1.0,365.0,905.0,1.0,0,150.0,1
837,837,0.40040753813675833,0.4,0.0,0.0,285.0,989.0,0.0,1,266.0,1
838,838,0.10266332413461232,0.1,0.0,0.0,371.0,583.0,0.0,1,1156.0,1
839,839,-0.735587049051595,-0.7,1.0,0.0,431.0,727.0,0.0,0,242.0,1
840,840,-0.3994221438924631,-0.4,1.0,0.0,313.0,543.0,0.0,0,294.0,1
841,841,0.17507898614371753,0.2,0.0,0.0,287.0,506.0,0.0,1,387.0,1
842,842,0.4811818150544479,0.5,0.0,0.0,449.0,970.0,0.0,1,401.0,1
843,843,0.12419191115790962,0.1,1.0,1.0,358.0,650.0,1.0,1,1072.0,1
844,844,-0.7053159725656913,-0.7,1.0,0.0,373.0,625.0,0.0,0,302.0,1
845,845,0.03844328210129455,0.0,1.0,1.0,453.0,695.0,1.0,1,772.0,1
846,846,-0.07735841925671294,-0.1,0.0,1.0,397.0,882.0,1.0,0,431.0,1
847,847,-0.1651079620802638,-0.2,0.0,1.0,427.0,910.0,1.0,0,423.0,1
848,848,0.5423452939472754,0.5,1.0,1.0,425.0,733.0,1.0,1,252.0,1
849,849,0.01804465187792459,0.0,1.0,1.0,496.0,523.0,0.0,0,3981.0,0
850,850,-0.519098710928329,-0.5,1.0,0.0,353.0,615.0,0.0,0,492.0,1
851,851,0.7412564602164321,0.7,0.0,0.0,459.0,643.0,0.0,1,438.0,1
852,852,0.14520628489684528,0.1,1.0,1.0,404.0,876.0,1.0,1,890.0,1
853,853,0.15061122288783457,0.2,1.0,1.0,472.0,668.0,1.0,1,610.0,1
854,854,-0.24043950050723706,-0.2,0.0,1.0,337.0,565.0,1.0,0,438.0,1
855,855,-0.5483506037996237,-0.5,1.0,0.0,406.0,705.0,0.0,0,629.0,1
856,856,-0.71053256991469,-0.7,1.0,0.0,444.0,738.0,0.0,0,378.0,1
857,857,0.5935131476936332,0.6,1.0,1.0,446.0,728.0,1.0,1,336.0,1
858,858,-0.4926160679814399,-0.5,1.0,0.0,447.0,576.0,0.0,0,237.0,1
859,859,-0.8212233514232659,-0.8,0.0,1.0,299.0,837.0,1.0,0,164.0,1
860,860,-0.6981918035113047,-0.7,0.0,1.0,368.0,787.0,1.0,0,125.0,1
861,861,-0.38548138934296305,-0.4,1.0,0.0,275.0,732.0,0.0,0,573.0,1
862,862,0.36514939084624765,0.4,1.0,1.0,379.0,559.0,1.0,1,352.0,1
863,863,-0.528653333847197,-0.5,1.0,0.0,268.0,965.0,0.0,0,477.0,1
864,864,0.896360223721464,0.9,1.0,1.0,424.0,665.0,1.0,1,161.0,1
865,865,-0.21248119904601281,-0.2,0.0,1.0,470.0,996.0,1.0,0,264.0,1
866,866,-0.2373493757206685,-0.2,1.0,0.0,499.0,941.0,0.0,0,300.0,1
867,867,0.0029669926165803995,0.0,0.0,0.0,330.0,510.0,1.0,0,1120.0,0
868,868,-0.062406497813887296,-0.1,0.0,1.0,432.0,555.0,1.0,0,923.0,1
869,869,0.30884808806935904,0.3,0.0,0.0,292.0,864.0,0.0,1,554.0,1
870,870,-0.7728419776203002,-0.8,0.0,1.0,263.0,696.0,1.0,0,141.0,1
871,871,0.7799148382860562,0.8,0.0,0.0,442.0,742.0,0.0,1,236.0,1
872,872,-0.4018260214060825,-0.4,1.0,0.0,352.0,658.0,0.0,0,770.0,1
873,873,-0.2659322249252316,-0.3,0.0,1.0,372.0,943.0,1.0,0,215.0,1
874,874,-0.42878302238989163,-0.4,0.0,1.0,291.0,802.0,1.0,0,327.0,1
875,875,0.03914220859771578,0.0,1.0,1.0,405.0,976.0,1.0,1,1599.0,1
876,876,0.018531961278811848,0.0,1.0,1.0,353.0,594.0,1.0,1,1823.0,1
877,877,0.6920617845161782,0.7,1.0,1.0,441.0,850.0,1.0,1,179.0,1
878,878,-0.5876086545905668,-0.6,0.0,1.0,458.0,567.0,1.0,0,175.0,1
879,879,-0.7462614161160117,-0.7,0.0,1.0,276.0,669.0,1.0,0,115.0,1
880,880,0.403736606528995,0.4,1.0,1.0,472.0,771.0,1.0,1,107.0,1
881,881,-0.8319748506687494,-0.8,0.0,1.0,432.0,730.0,1.0,0,238.0,1
882,882,-0.664468049554327,-0.7,1.0,0.0,398.0,789.0,0.0,0,183.0,1
883,883,-0.7592963976680646,-0.8,0.0,1.0,304.0,783.0,1.0,0,103.0,1
884,884,0.39528574841720376,0.4,0.0,0.0,317.0,537.0,0.0,1,606.0,1
885,885,0.4779415542919926,0.5,0.0,0.0,255.0,959.0,0.0,1,336.0,1
886,886,0.3800891305337294,0.4,1.0,1.0,405.0,863.0,1.0,1,432.0,1
887,887,0.8798947334434334,0.9,0.0,0.0,440.0,608.0,0.0,1,532.0,1
888,888,0.2682978240487729,0.3,1.0,1.0,379.0,643.0,1.0,1,608.0,1
889,889,0.1856944528966179,0.2,0.0,0.0,405.0,507.0,0.0,1,738.0,1
890,890,0.8694115817259552,0.9,1.0,1.0,471.0,750.0,1.0,1,169.0,1
891,891,-0.14245293520924363,-0.1,1.0,0.0,302.0,714.0,0.0,0,3164.0,1
892,892,-0.68106213672681,-0.7,0.0,1.0,484.0,878.0,1.0,0,48.0,1
893,893,-0.1559321371689636,-0.2,0.0,1.0,408.0,924.0,1.0,0,1138.0,1
894,894,0.5977898609647497,0.6,0.0,0.0,250.0,641.0,0.0,1,789.0,1
895,895,-0.08636042971715452,-0.1,1.0,0.0,293.0,785.0,0.0,0,3112.0,1
896,896,0.3570120008865435,0.4,0.0,0.0,339.0,652.0,0.0,1,539.0,1
897,897,0.7275158463635837,0.7,0.0,0.0,369.0,862.0,0.0,1,219.0,1
898,898,0.20088422982157528,0.2,0.0,0.0,400.0,998.0,0.0,1,522.0,1
899,899,0.3051099119487116,0.3,1.0,1.0,412.0,908.0,1.0,1,320.0,1
900,900,0.2667385482347907,0.3,1.0,1.0,255.0,829.0,1.0,1,146.0,1
901,901,0.8588215918901841,0.9,1.0,1.0,291.0,723.0,1.0,1,226.0,1
902,902,-0.6119541824962386,-0.6,1.0,0.0,285.0,687.0,0.0,0,458.0,1
903,903,0.06918916081357585,0.1,1.0,1.0,400.0,880.0,1.0,1,550.0,1
904,904,0.10259308840187409,0.1,1.0,1.0,346.0,584.0,1.0,1,540.0,1
905,905,0.31983443940324696,0.3,1.0,1.0,419.0,661.0,1.0,1,370.0,1
906,906,-0.45181344574416565,-0.5,0.0,1.0,386.0,531.0,1.0,0,363.0,1
907,907,0.5531000267888105,0.6,1.0,1.0,405.0,861.0,0.0,0,-16.0,0
908,908,0.33752173593451695,0.3,0.0,0.0,372.0,610.0,0.0,1,318.0,1
909,909,0.4529176267708993,0.5,0.0,0.0,293.0,519.0,0.0,1,458.0,1
910,910,-0.3306859488168308,-0.3,1.0,0.0,350.0,728.0,0.0,0,152.0,1
911,911,0.7955700906060176,0.8,1.0,1.0,250.0,911.0,1.0,1,179.0,1
912,912,-0.2851585424864108,-0.3,0.0,1.0,252.0,695.0,1.0,0,303.0,1
913,913,0.10027744528262261,0.1,1.0,1.0,313.0,653.0,1.0,1,244.0,1
914,914,0.604936182924034,0.6,1.0,1.0,367.0,529.0,1.0,1,164.0,1
915,915,-0.2614264084806034,-0.3,1.0,0.0,394.0,870.0,0.0,0,246.0,1
916,916,-0.7598851053257938,-0.8,0.0,1.0,250.0,507.0,1.0,0,423.0,1
917,917,0.4211597905231935,0.4,0.0,0.0,433.0,760.0,0.0,1,327.0,1
918,918,-0.8747410349910175,-0.9,0.0,1.0,474.0,660.0,1.0,0,306.0,1
919,919,0.7102782615986959,0.7,1.0,1.0,422.0,764.0,1.0,1,294.0,1
920,920,-0.38747467561009397,-0.4,0.0,1.0,349.0,836.0,1.0,0,65.0,1
921,921,0.38807855471244335,0.4,0.0,0.0,467.0,680.0,0.0,1,443.0,1
922,922,0.18468788614193954,0.2,0.0,0.0,433.0,817.0,0.0,1,230.0,1
923,923,-0.8881143422109943,-0.9,0.0,1.0,340.0,713.0,1.0,0,247.0,1
924,924,0.013434904142577087,0.0,1.0,1.0,376.0,693.0,1.0,1,881.0,1
925,925,0.33117306137531,0.3,0.0,0.0,375.0,608.0,0.0,1,447.0,1
926,926,0.87086697519759,0.9,0.0,0.0,389.0,503.0,0.0,1,278.0,1
927,927,-0.8377893162948412,-0.8,1.0,0.0,288.0,576.0,0.0,0,526.0,1
928,928,-0.1397755642728129,-0.1,1.0,0.0,311.0,871.0,1.0,1,-62.0,0
929,929,0.4327370307367252,0.4,1.0,1.0,467.0,541.0,1.0,1,432.0,1
930,930,-0.8892503156005143,-0.9,1.0,0.0,361.0,834.0,0.0,0,595.0,1
931,931,0.09344441387932367,0.1,0.0,0.0,484.0,697.0,0.0,1,2099.0,1
932,932,0.3158397993760066,0.3,0.0,0.0,362.0,923.0,0.0,1,485.0,1
933,933,0.6050760371493947,0.6,1.0,1.0,286.0,900.0,1.0,1,134.0,1
934,934,0.16735525811483176,0.2,1.0,1.0,409.0,575.0,1.0,1,566.0,1
935,935,0.213127833048388,0.2,1.0,1.0,423.0,750.0,1.0,1,407.0,1
936,936,-0.28506079673823537,-0.3,0.0,1.0,328.0,689.0,1.0,0,363.0,1
937,937,0.7158710575299915,0.7,1.0,1.0,258.0,576.0,1.0,1,246.0,1
938,938,-0.17082361561900095,-0.2,1.0,0.0,331.0,776.0,1.0,1,1443.0,0
939,939,0.39665542539223664,0.4,1.0,1.0,273.0,596.0,1.0,1,281.0,1
940,940,-0.8958513281044013,-0.9,0.0,1.0,496.0,834.0,1.0,0,220.0,1
941,941,-0.4977687433612094,-0.5,1.0,0.0,492.0,687.0,0.0,0,411.0,1
942,942,0.28235153201840724,0.3,0.0,0.0,398.0,806.0,0.0,1,226.0,1
943,943,0.6204561132593162,0.6,1.0,1.0,494.0,767.0,1.0,1,159.0,1
944,944,0.3902342313741408,0.4,1.0,1.0,464.0,713.0,1.0,1,343.0,1
945,945,0.49888557334365935,0.5,1.0,1.0,268.0,551.0,1.0,1,291.0,1
946,946,0.538307453059227,0.5,1.0,1.0,356.0,974.0,1.0,1,220.0,1
947,947,-0.5027793363693732,-0.5,1.0,0.0,471.0,837.0,0.0,0,342.0,1
948,948,0.34042727420601715,0.3,1.0,1.0,259.0,561.0,1.0,1,670.0,1
949,949,-0.03795439805681178,-0.0,1.0,0.0,256.0,648.0,0.0,0,1156.0,1
950,950,-0.12651406228044126,-0.1,1.0,0.0,359.0,511.0,0.0,0,1210.0,1
951,951,0.01195585882700445,0.0,0.0,0.0,408.0,893.0,0.0,1,2209.0,1
952,952,-0.24821348481812444,-0.2,0.0,1.0,268.0,505.0,1.0,0,527.0,1
953,953,-0.6506550079275618,-0.7,1.0,0.0,435.0,513.0,0.0,0,212.0,1
954,954,-0.1338044592381078,-0.1,0.0,1.0,340.0,989.0,1.0,0,1681.0,1
955,955,-0.3219000231348693,-0.3,1.0,0.0,373.0,564.0,0.0,0,483.0,1
956,956,0.3164675123300852,0.3,1.0,1.0,291.0,895.0,1.0,1,304.0,1
957,957,-0.8274739545982179,-0.8,1.0,0.0,278.0,884.0,0.0,0,168.0,1
958,958,-0.8619392371553548,-0.9,1.0,0.0,378.0,668.0,0.0,0,84.0,1
959,959,0.11584653271264356,0.1,0.0,0.0,389.0,508.0,1.0,0,2783.0,0
960,960,-0.771667152268259,-0.8,0.0,1.0,395.0,764.0,1.0,0,211.0,1
961,961,0.4131556810055471,0.4,1.0,1.0,499.0,522.0,1.0,1,539.0,1
962,962,-0.8918640706651156,-0.9,0.0,1.0,272.0,905.0,1.0,0,133.0,1
963,963,0.47707495016392276,0.5,1.0,1.0,313.0,898.0,1.0,1,199.0,1
964,964,0.2823300292016989,0.3,0.0,0.0,387.0,972.0,0.0,1,201.0,1
965,965,0.30129884831663223,0.3,1.0,1.0,350.0,652.0,1.0,1,648.0,1
966,966,0.693489950734307,0.7,0.0,0.0,261.0,868.0,0.0,1,171.0,1
967,967,0.3474790947217151,0.3,1.0,1.0,462.0,724.0,1.0,1,154.0,1
968,968,0.6205136355139668,0.6,1.0,1.0,414.0,804.0,1.0,1,272.0,1
969,969,0.7273781618006466,0.7,1.0,1.0,457.0,701.0,1.0,1,232.0,1
970,970,0.137832397139814,0.1,0.0,0.0,256.0,627.0,0.0,1,2027.0,1
971,971,0.5012682709108308,0.5,0.0,0.0,376.0,907.0,0.0,1,407.0,1
972,972,0.8465570421511132,0.8,1.0,1.0,323.0,758.0,1.0,1,149.0,1
973,973,0.36886023582154637,0.4,0.0,0.0,480.0,506.0,0.0,1,724.0,1
974,974,-0.10677552580299865,-0.1,0.0,1.0,392.0,537.0,1.0,0,581.0,1
975,975,0.7676140589459014,0.8,0.0,0.0,339.0,541.0,0.0,1,620.0,1
976,976,0.005494722077967862,0.0,0.0,0.0,311.0,624.0,1.0,0,875.0,0
977,977,0.29185011079390566,0.3,0.0,0.0,268.0,520.0,0.0,1,522.0,1
978,978,-0.27666214893387775,-0.3,0.0,1.0,482.0,901.0,1.0,0,187.0,1
979,979,-0.7127087859625473,-0.7,1.0,0.0,343.0,577.0,0.0,0,310.0,1
980,980,-0.545435870402287,-0.5,1.0,0.0,490.0,786.0,0.0,0,264.0,1
981,981,-0.46722069045006165,-0.5,1.0,0.0,280.0,936.0,0.0,0,354.0,1
982,982,0.6360253126932419,0.6,1.0,1.0,303.0,651.0,1.0,1,346.0,1
983,983,-0.06963771995857293,-0.1,0.0,1.0,261.0,835.0,1.0,0,2824.0,1
984,984,-0.4795809556389563,-0.5,0.0,1.0,449.0,906.0,1.0,0,305.0,1
985,985,-0.21372092090272554,-0.2,0.0,1.0,337.0,950.0,1.0,0,253.0,1
986,986,0.615386870808115,0.6,0.0,0.0,292.0,782.0,0.0,1,196.0,1
987,987,-0.34165810623970894,-0.3,0.0,1.0,266.0,572.0,1.0,0,432.0,1
988,988,0.8710112433538838,0.9,0.0,0.0,422.0,938.0,0.0,1,210.0,1
989,989,-0.8541727029954268,-0.9,0.0,1.0,280.0,956.0,1.0,0,34.0,1
990,990,0.38663229856404546,0.4,1.0,1.0,368.0,776.0,1.0,1,256.0,1
991,991,0.8617233031445618,0.9,1.0,1.0,432.0,791.0,1.0,1,147.0,1
992,992,0.058080760537409626,0.1,1.0,1.0,475.0,810.0,1.0,1,2585.0,1
993,993,-0.8696152772204409,-0.9,0.0,1.0,377.0,795.0,1.0,0,158.0,1
994,994,-0.26133236409657035,-0.3,1.0,0.0,408.0,626.0,0.0,0,736.0,1
995,995,-0.7685488557383889,-0.8,0.0,1.0,288.0,986.0,1.0,0,256.0,1
996,996,-0.7914842298122062,-0.8,1.0,0.0,396.0,600.0,0.0,0,454.0,1
997,997,0.47610692783183384,0.5,1.0,1.0,331.0,846.0,1.0,1,73.0,1
998,998,0.01777352304163493,0.0,1.0,1.0,411.0,916.0,1.0,1,43.0,1
999,999,0.5952678773226391,0.6,0.0,0.0,413.0,574.0,0.0,1,453.0,1
1000,1000,-0.2459736044355727,-0.2,1.0,0.0,319.0,867.0,0.0,0,1244.0,1
1001,1001,-0.5031774168038705,-0.5,1.0,0.0,334.0,501.0,0.0,0,465.0,1
1002,1002,0.8329045369707212,0.8,1.0,1.0,398.0,734.0,1.0,1,58.0,1
1003,1003,-0.13881486110495422,-0.1,0.0,1.0,266.0,901.0,1.0,0,1523.0,1
1004,1004,-0.37697824055618,-0.4,1.0,0.0,310.0,622.0,0.0,0,408.0,1
1005,1005,0.5789110702881112,0.6,1.0,1.0,371.0,885.0,1.0,1,154.0,1
1006,1006,-0.36917563422317723,-0.4,0.0,1.0,488.0,996.0,1.0,0,66.0,1
1007,1007,0.7404597150579336,0.7,0.0,0.0,404.0,796.0,0.0,1,170.0,1
1008,1008,0.041592416188726555,0.0,0.0,0.0,369.0,944.0,0.0,1,1017.0,1
1009,1009,-0.5205925927678788,-0.5,0.0,1.0,331.0,828.0,1.0,0,101.0,1
1010,1010,-0.4834413788898823,-0.5,0.0,1.0,273.0,599.0,1.0,0,438.0,1
1011,1011,-0.43570676723285595,-0.4,0.0,1.0,275.0,851.0,1.0,0,374.0,1
1012,1012,-0.14854129672547112,-0.1,0.0,1.0,489.0,559.0,1.0,0,392.0,1
1013,1013,0.4977987641639904,0.5,1.0,1.0,392.0,686.0,1.0,1,2.0,1
1014,1014,-0.3405488789225515,-0.3,0.0,1.0,331.0,713.0,1.0,0,446.0,1
1015,1015,0.39678585458594273,0.4,1.0,1.0,410.0,780.0,1.0,1,120.0,1
1016,1016,0.37871287889990535,0.4,1.0,1.0,308.0,906.0,1.0,1,246.0,1
1017,1017,0.2713693780908394,0.3,0.0,0.0,418.0,615.0,0.0,1,1197.0,1
1018,1018,0.3873416415588785,0.4,1.0,1.0,417.0,511.0,1.0,1,742.0,1
1019,1019,0.0019693130891349497,0.0,1.0,1.0,365.0,587.0,1.0,1,1408.0,1
1020,1020,0.30335312078798193,0.3,0.0,0.0,396.0,705.0,0.0,1,289.0,1
1021,1021,-0.525672920356304,-0.5,0.0,1.0,277.0,829.0,1.0,0,714.0,1
1022,1022,-0.26261104582708616,-0.3,1.0,0.0,489.0,957.0,0.0,0,414.0,1
1023,1023,0.06499336357776897,0.1,1.0,1.0,294.0,703.0,1.0,1,1233.0,1
1024,1024,0.6130668568044567,0.6,0.0,0.0,470.0,688.0,0.0,1,162.0,1
1025,1025,0.1717258510558658,0.2,1.0,1.0,287.0,861.0,1.0,1,192.0,1
1026,1026,0.5428099756932606,0.5,0.0,0.0,324.0,968.0,0.0,1,128.0,1
1027,1027,0.8630645273996059,0.9,1.0,1.0,403.0,548.0,1.0,1,429.0,1
1028,1028,0.21465958536386232,0.2,0.0,0.0,475.0,912.0,0.0,1,1293.0,1
1029,1029,-0.47273444226932043,-0.5,0.0,1.0,293.0,724.0,1.0,0,303.0,1
1030,1030,-0.2675301542930776,-0.3,1.0,0.0,331.0,828.0,0.0,0,191.0,1
1031,1031,0.40541167505632936,0.4,0.0,0.0,455.0,696.0,0.0,1,389.0,1
1032,1032,0.14665595290898625,0.1,1.0,1.0,462.0,646.0,1.0,1,782.0,1
1033,1033,0.12318229980422901,0.1,0.0,0.0,436.0,796.0,0.0,1,1278.0,1
1034,1034,0.027775372741374094,0.0,1.0,1.0,407.0,962.0,0.0,0,1791.0,0
1035,1035,0.562996193152482,0.6,1.0,1.0,326.0,910.0,1.0,1,144.0,1
1036,1036,-0.5322117790758103,-0.5,0.0,1.0,274.0,800.0,1.0,0,276.0,1
1037,1037,-0.7916030302900734,-0.8,1.0,0.0,472.0,758.0,0.0,0,140.0,1
1038,1038,0.19304307337616577,0.2,0.0,0.0,492.0,840.0,0.0,1,668.0,1
1039,1039,-0.37077530200125597,-0.4,1.0,0.0,293.0,953.0,0.0,0,324.0,1
1040,1040,0.6763087914193745,0.7,1.0,1.0,385.0,781.0,1.0,1,104.0,1
1041,1041,-0.29087570998349255,-0.3,0.0,1.0,419.0,778.0,1.0,0,143.0,1
1042,1042,-0.5142971023129039,-0.5,1.0,0.0,278.0,517.0,0.0,0,445.0,1
1043,1043,-0.15808162346926402,-0.2,1.0,0.0,259.0,615.0,0.0,0,846.0,1
1044,1044,-0.8776550700091645,-0.9,1.0,0.0,367.0,651.0,0.0,0,262.0,1
1045,1045,-0.7106380563850383,-0.7,1.0,0.0,354.0,678.0,0.0,0,358.0,1
1046,1046,-0.6964374530594535,-0.7,0.0,1.0,358.0,583.0,1.0,0,549.0,1
1047,1047,0.36599515934796345,0.4,0.0,0.0,257.0,987.0,0.0,1,206.0,1
1048,1048,0.7102030869908692,0.7,1.0,1.0,430.0,592.0,1.0,1,348.0,1
1049,1049,0.3922702842808864,0.4,0.0,0.0,302.0,969.0,0.0,1,369.0,1
1050,1050,0.6590446907386455,0.7,0.0,0.0,403.0,913.0,0.0,1,344.0,1
1051,1051,-0.6057964416473594,-0.6,0.0,1.0,325.0,613.0,1.0,0,322.0,1
1052,1052,-0.5429514370179886,-0.5,1.0,0.0,479.0,899.0,0.0,0,252.0,1
1053,1053,0.1800981288802962,0.2,0.0,0.0,408.0,592.0,0.0,1,2100.0,1
1054,1054,0.7001151007615823,0.7,0.0,0.0,448.0,603.0,0.0,1,309.0,1
1055,1055,-0.6370333126126955,-0.6,1.0,0.0,305.0,752.0,0.0,0,1123.0,1
1056,1056,0.14255365974589418,0.1,1.0,1.0,434.0,949.0,1.0,1,37.0,1
1057,1057,0.03215668527516302,0.0,1.0,1.0,481.0,687.0,0.0,0,532.0,0
1058,1058,-0.3053894105962335,-0.3,0.0,1.0,474.0,939.0,1.0,0,327.0,1
1059,1059,0.7822747809004303,0.8,0.0,0.0,406.0,695.0,0.0,1,169.0,1
1060,1060,0.39446011660213076,0.4,1.0,1.0,485.0,828.0,1.0,1,307.0,1
1061,1061,0.6924633132180781,0.7,0.0,0.0,380.0,585.0,0.0,1,345.0,1
1062,1062,0.8424301692533648,0.8,1.0,1.0,305.0,725.0,1.0,1,120.0,1
1063,1063,0.1899258431195937,0.2,1.0,1.0,384.0,790.0,0.0,0,106.0,0
1064,1064,0.10081437430338058,0.1,0.0,0.0,445.0,535.0,0.0,1,2940.0,1
1065,1065,-0.4075618910627865,-0.4,1.0,0.0,417.0,760.0,0.0,0,623.0,1
1066,1066,0.10053860009006399,0.1,1.0,1.0,446.0,691.0,1.0,1,413.0,1
1067,1067,0.8625290836759864,0.9,1.0,1.0,449.0,618.0,1.0,1,393.0,1
1068,1068,-0.6141229498861827,-0.6,0.0,1.0,448.0,961.0,1.0,0,271.0,1
1069,1069,0.8311288799590765,0.8,0.0,0.0,275.0,588.0,0.0,1,477.0,1
1070,1070,0.24791133269659704,0.2,1.0,1.0,376.0,515.0,1.0,1,539.0,1
1071,1071,0.6078745309817134,0.6,1.0,1.0,373.0,932.0,1.0,1,205.0,1
1072,1072,0.38336632486810396,0.4,0.0,0.0,472.0,620.0,0.0,1,538.0,1
1073,1073,0.041793590175066675,0.0,1.0,1.0,300.0,569.0,1.0,1,1391.0,1
1074,1074,-0.8429940499867368,-0.8,0.0,1.0,386.0,525.0,1.0,0,389.0,1
1075,1075,-0.4167587402421518,-0.4,0.0,1.0,439.0,879.0,1.0,0,332.0,1
1076,1076,-0.8544787476739651,-0.9,0.0,1.0,330.0,637.0,1.0,0,273.0,1
1077,1077,-0.44660171480856564,-0.4,1.0,0.0,474.0,916.0,0.0,0,180.0,1
1078,1078,0.6789088769669297,0.7,1.0,1.0,406.0,633.0,1.0,1,251.0,1
1079,1079,-0.028467376181783743,-0.0,0.0,1.0,264.0,578.0,1.0,0,1278.0,1
1080,1080,-0.8477929052649937,-0.8,0.0,1.0,370.0,629.0,1.0,0,191.0,1
1081,1081,-0.4640567414306926,-0.5,1.0,0.0,296.0,701.0,0.0,0,283.0,1
1082,1082,-0.7516428652970952,-0.8,1.0,0.0,261.0,530.0,0.0,0,249.0,1
1083,1083,0.6061850234917202,0.6,1.0,1.0,371.0,996.0,1.0,1,73.0,1
1084,1084,0.6399362481698799,0.6,0.0,0.0,469.0,768.0,0.0,1,373.0,1
1085,1085,-0.03848824013124785,-0.0,1.0,0.0,282.0,551.0,0.0,0,1317.0,1
1086,1086,0.7882719018848717,0.8,0.0,0.0,294.0,698.0,0.0,1,268.0,1
1087,1087,0.5450237758048767,0.5,1.0,1.0,454.0,517.0,1.0,1,189.0,1
1088,1088,0.2624148469816271,0.3,0.0,0.0,331.0,816.0,0.0,1,683.0,1
1089,1089,-0.5159078617924305,-0.5,0.0,1.0,443.0,567.0,1.0,0,450.0,1
1090,1090,-0.8161773045898544,-0.8,1.0,0.0,389.0,784.0,0.0,0,207.0,1
1091,1091,0.8487525942435791,0.8,1.0,1.0,427.0,968.0,1.0,1,385.0,1
1092,1092,-0.3678842724730138,-0.4,0.0,1.0,378.0,658.0,1.0,0,414.0,1
1093,1093,0.7708860490738457,0.8,1.0,1.0,467.0,875.0,1.0,1,48.0,1
1094,1094,0.7211507188060556,0.7,0.0,0.0,365.0,589.0,0.0,1,696.0,1
1095,1095,-0.6045991659779615,-0.6,0.0,1.0,260.0,731.0,1.0,0,329.0,1
1096,1096,-0.7302616136429496,-0.7,1.0,0.0,431.0,894.0,0.0,0,205.0,1
1097,1097,-0.6294834417586308,-0.6,1.0,0.0,270.0,982.0,0.0,0,198.0,1
1098,1098,-0.016851759917010045,-0.0,0.0,1.0,351.0,966.0,0.0,1,3073.0,0
1099,1099,-0.160943633363287,-0.2,0.0,1.0,344.0,736.0,1.0,0,510.0,1
1100,1100,-0.7817151775607761,-0.8,0.0,1.0,280.0,860.0,1.0,0,140.0,1
1101,1101,-0.4926800845386715,-0.5,0.0,1.0,441.0,651.0,1.0,0,348.0,1
1102,1102,-0.5052158275686023,-0.5,0.0,1.0,401.0,794.0,1.0,0,385.0,1
1103,1103,-0.4338186695787755,-0.4,0.0,1.0,496.0,600.0,1.0,0,254.0,1
1104,1104,-0.506611995264752,-0.5,1.0,0.0,285.0,824.0,0.0,0,181.0,1
1105,1105,0.0009280917481377937,0.0,0.0,0.0,487.0,694.0,1.0,0,759.0,0
1106,1106,-0.37483613164741314,-0.4,1.0,0.0,344.0,612.0,0.0,0,374.0,1
1107,1107,-0.14931506771857117,-0.1,0.0,1.0,445.0,939.0,1.0,0,226.0,1
1108,1108,-0.7264876621297948,-0.7,0.0,1.0,417.0,763.0,1.0,0,170.0,1
1109,1109,0.3695075030709817,0.4,0.0,0.0,346.0,790.0,0.0,1,404.0,1
1110,1110,-0.24667859913923218,-0.2,0.0,1.0,342.0,840.0,1.0,0,188.0,1
1111,1111,0.7384871819226485,0.7,1.0,1.0,387.0,825.0,1.0,1,158.0,1
1112,1112,-0.1292788500451717,-0.1,1.0,0.0,435.0,592.0,0.0,0,1063.0,1
1113,1113,0.25033672412979036,0.3,0.0,0.0,424.0,886.0,0.0,1,400.0,1
1114,1114,-0.03161668271729401,-0.0,1.0,0.0,349.0,701.0,0.0,0,3540.0,1
1115,1115,0.393530435614169,0.4,1.0,1.0,305.0,606.0,1.0,1,189.0,1
1116,1116,0.75787554806223,0.8,0.0,0.0,486.0,667.0,0.0,1,217.0,1
1117,1117,0.16770194063386168,0.2,0.0,0.0,264.0,929.0,0.0,1,377.0,1
1118,1118,-0.4229820677877077,-0.4,0.0,1.0,377.0,919.0,1.0,0,174.0,1
1119,1119,-0.6649504052256845,-0.7,1.0,0.0,285.0,565.0,0.0,0,350.0,1
1120,1120,-0.5988583674099123,-0.6,0.0,1.0,403.0,641.0,1.0,0,136.0,1
1121,1121,0.7151261700005193,0.7,1.0,1.0,306.0,715.0,1.0,1,559.0,1
1122,1122,0.7586638455213718,0.8,0.0,0.0,408.0,686.0,0.0,1,676.0,1
1123,1123,0.4977965060691619,0.5,0.0,0.0,292.0,531.0,0.0,1,337.0,1
1124,1124,-0.8824310186160461,-0.9,0.0,1.0,321.0,698.0,1.0,0,231.0,1
1125,1125,-0.8357499901855185,-0.8,0.0,1.0,252.0,741.0,1.0,0,197.0,1
1126,1126,0.12837611494446433,0.1,0.0,0.0,379.0,789.0,0.0,1,722.0,1
1127,1127,-0.44288267404389886,-0.4,1.0,0.0,328.0,882.0,0.0,0,380.0,1
1128,1128,0.5926518570217248,0.6,1.0,1.0,286.0,847.0,1.0,1,237.0,1
1129,1129,0.5685335547088001,0.6,1.0,1.0,267.0,787.0,1.0,1,106.0,1
1130,1130,-0.7649409791108585,-0.8,0.0,1.0,261.0,542.0,1.0,0,277.0,1
1131,1131,0.8953158215512463,0.9,1.0,1.0,315.0,966.0,1.0,1,39.0,1
1132,1132,0.6589834066791195,0.7,1.0,1.0,362.0,966.0,1.0,1,102.0,1
1133,1133,0.04893572256810241,0.0,0.0,0.0,370.0,561.0,1.0,0,1309.0,0
1134,1134,-0.8118649280041893,-0.8,1.0,0.0,463.0,840.0,0.0,0,127.0,1
1135,1135,0.19811091756052568,0.2,0.0,0.0,331.0,501.0,0.0,1,868.0,1
1136,1136,-0.28923332403473756,-0.3,0.0,1.0,411.0,617.0,1.0,0,592.0,1
1137,1137,-0.3476798142921902,-0.3,1.0,0.0,437.0,748.0,0.0,0,485.0,1
1138,1138,0.3571391267034981,0.4,1.0,1.0,259.0,544.0,1.0,1,537.0,1
1139,1139,0.7971295420106551,0.8,1.0,1.0,402.0,643.0,1.0,1,375.0,1
1140,1140,-0.24842681389709653,-0.2,1.0,0.0,419.0,892.0,0.0,0,329.0,1
1141,1141,0.7508959579931166,0.8,0.0,0.0,441.0,836.0,0.0,1,113.0,1
1142,1142,-0.4404619678250298,-0.4,1.0,0.0,452.0,879.0,0.0,0,669.0,1
1143,1143,0.572877170206597,0.6,0.0,0.0,498.0,595.0,0.0,1,527.0,1
1144,1144,-0.6226864891772331,-0.6,1.0,0.0,464.0,909.0,0.0,0,267.0,1
1145,1145,-0.6097229004137614,-0.6,0.0,1.0,387.0,939.0,1.0,0,124.0,1
1146,1146,-0.8707139060538288,-0.9,1.0,0.0,370.0,872.0,0.0,0,318.0,1
1147,1147,0.6779251461153116,0.7,0.0,0.0,275.0,831.0,0.0,1,444.0,1
1148,1148,0.465185322946274,0.5,1.0,1.0,383.0,596.0,1.0,1,371.0,1
1149,1149,-0.7240629612882826,-0.7,0.0,1.0,297.0,805.0,1.0,0,188.0,1
1150,1150,0.3065956153070247,0.3,0.0,0.0,301.0,773.0,0.0,1,696.0,1
1151,1151,0.8455896023677368,0.8,0.0,0.0,397.0,783.0,0.0,1,200.0,1
1152,1152,-0.7855330703912176,-0.8,1.0,0.0,456.0,600.0,0.0,0,404.0,1
1153,1153,-0.7623222871957605,-0.8,0.0,1.0,331.0,542.0,1.0,0,307.0,1
1154,1154,0.6264674273065639,0.6,0.0,0.0,368.0,758.0,0.0,1,294.0,1
1155,1155,0.687623576170472,0.7,1.0,1.0,310.0,659.0,1.0,1,141.0,1
1156,1156,-0.27755958416610926,-0.3,1.0,0.0,466.0,619.0,0.0,0,1335.0,1
1157,1157,0.8594378128748351,0.9,1.0,1.0,357.0,605.0,1.0,1,238.0,1
1158,1158,0.23097284789878125,0.2,1.0,1.0,300.0,996.0,1.0,1,184.0,1
1159,1159,0.019642986461182343,0.0,1.0,1.0,332.0,859.0,1.0,1,3229.0,1
1160,1160,0.27095802428228233,0.3,1.0,1.0,255.0,631.0,1.0,1,244.0,1
1161,1161,-0.4317908451919906,-0.4,0.0,1.0,443.0,811.0,1.0,0,156.0,1
1162,1162,-0.6871416525185707,-0.7,0.0,1.0,464.0,721.0,1.0,0,215.0,1
1163,1163,-0.3900656557185793,-0.4,0.0,1.0,383.0,557.0,1.0,0,350.0,1
1164,1164,-0.31736297125092705,-0.3,1.0,0.0,295.0,546.0,0.0,0,509.0,1
1165,1165,-0.4392495635738447,-0.4,1.0,0.0,259.0,972.0,0.0,0,399.0,1
1166,1166,-0.34293592608636847,-0.3,0.0,1.0,323.0,595.0,1.0,0,502.0,1
1167,1167,0.1896545067750267,0.2,1.0,1.0,356.0,909.0,1.0,1,515.0,1
1168,1168,0.20410876390918065,0.2,1.0,1.0,259.0,547.0,1.0,1,384.0,1
1169,1169,-0.021340320298445237,-0.0,1.0,0.0,470.0,552.0,0.0,0,658.0,1
1170,1170,-0.5599705332350171,-0.6,1.0,0.0,349.0,606.0,0.0,0,385.0,1
1171,1171,-0.8480380671020342,-0.8,0.0,1.0,495.0,665.0,1.0,0,200.0,1
1172,1172,0.26206012888987107,0.3,1.0,1.0,390.0,538.0,1.0,1,332.0,1
1173,1173,-0.5929253660179563,-0.6,0.0,1.0,290.0,631.0,1.0,0,299.0,1
1174,1174,0.24363897905306453,0.2,1.0,1.0,465.0,509.0,1.0,1,806.0,1
1175,1175,0.4866466830473942,0.5,1.0,1.0,421.0,726.0,1.0,1,143.0,1
1176,1176,0.04958734435414913,0.0,1.0,1.0,499.0,886.0,1.0,1,1165.0,1
1177,1177,0.08669492530308154,0.1,0.0,0.0,497.0,916.0,0.0,1,837.0,1
1178,1178,-0.5278652989648547,-0.5,1.0,0.0,425.0,903.0,0.0,0,272.0,1
1179,1179,0.07669372034090416,0.1,1.0,1.0,357.0,775.0,1.0,1,258.0,1
1180,1180,0.20995509778947807,0.2,0.0,0.0,263.0,874.0,0.0,1,323.0,1
1181,1181,0.6038857531919083,0.6,0.0,0.0,475.0,560.0,0.0,1,645.0,1
1182,1182,-0.02777031536464991,-0.0,1.0,0.0,388.0,866.0,1.0,1,886.0,0
1183,1183,0.8860335126437101,0.9,0.0,0.0,281.0,864.0,0.0,1,375.0,1
1184,1184,-0.7835370861533385,-0.8,1.0,0.0,426.0,663.0,0.0,0,611.0,1
1185,1185,-0.3754057493307783,-0.4,0.0,1.0,434.0,718.0,1.0,0,478.0,1
1186,1186,0.18249999655979943,0.2,0.0,0.0,288.0,551.0,0.0,1,1031.0,1
1187,1187,-0.09086620676958301,-0.1,1.0,0.0,463.0,731.0,0.0,0,3536.0,1
1188,1188,0.7280936323029891,0.7,0.0,0.0,329.0,930.0,0.0,1,251.0,1
1189,1189,0.3624330974051627,0.4,1.0,1.0,259.0,695.0,1.0,1,86.0,1
1190,1190,0.7268482300165983,0.7,0.0,0.0,288.0,836.0,0.0,1,216.0,1
1191,1191,-0.04555633268074866,-0.0,1.0,0.0,277.0,866.0,0.0,0,377.0,1
1192,1192,-0.7060579105778135,-0.7,1.0,0.0,302.0,645.0,0.0,0,453.0,1
1193,1193,-0.4646446492889532,-0.5,1.0,0.0,381.0,952.0,0.0,0,237.0,1
1194,1194,-0.31175943197689804,-0.3,0.0,1.0,484.0,533.0,1.0,0,833.0,1
1195,1195,0.4048014068943492,0.4,0.0,0.0,452.0,764.0,0.0,1,274.0,1
1196,1196,0.2917133900021277,0.3,0.0,0.0,454.0,951.0,0.0,1,295.0,1
1197,1197,-0.05619659667495347,-0.1,0.0,1.0,392.0,736.0,1.0,0,322.0,1
1198,1198,-0.4677017922882701,-0.5,1.0,0.0,317.0,784.0,0.0,0,319.0,1
1199,1199,-0.49266876196491033,-0.5,1.0,0.0,295.0,916.0,0.0,0,279.0,1
1200,1200,0.012943686694529721,0.0,0.0,0.0,439.0,574.0,1.0,0,2587.0,0
1201,1201,-0.6239139698231531,-0.6,0.0,1.0,303.0,997.0,1.0,0,150.0,1
1202,1202,-0.3605911382742608,-0.4,1.0,0.0,263.0,796.0,0.0,0,451.0,1
1203,1203,-0.7218680035109395,-0.7,0.0,1.0,398.0,716.0,1.0,0,126.0,1
1204,1204,0.6785094929178156,0.7,0.0,0.0,499.0,657.0,0.0,1,244.0,1
1205,1205,0.1960978787057538,0.2,0.0,0.0,488.0,623.0,0.0,1,789.0,1
1206,1206,0.8406047061164418,0.8,1.0,1.0,337.0,959.0,1.0,1,44.0,1
1207,1207,0.07549025544078192,0.1,0.0,0.0,382.0,616.0,0.0,1,1092.0,1
1208,1208,0.7451790544530449,0.7,0.0,0.0,281.0,520.0,0.0,1,299.0,1
1209,1209,-0.6780358195330497,-0.7,1.0,0.0,342.0,625.0,0.0,0,463.0,1
1210,1210,0.25464819860289156,0.3,0.0,0.0,461.0,612.0,0.0,1,1277.0,1
1211,1211,0.041885306792218246,0.0,1.0,1.0,400.0,516.0,1.0,1,764.0,1
1212,1212,0.6452788854270665,0.6,1.0,1.0,483.0,603.0,1.0,1,254.0,1
1213,1213,-0.3422395457162768,-0.3,1.0,0.0,404.0,826.0,0.0,0,440.0,1
1214,1214,0.6365320683024457,0.6,0.0,0.0,377.0,936.0,0.0,1,297.0,1
1215,1215,0.15474852488018354,0.2,1.0,1.0,323.0,828.0,1.0,1,759.0,1
1216,1216,-0.6942961379080181,-0.7,1.0,0.0,268.0,688.0,0.0,0,254.0,1
1217,1217,0.5202803738271385,0.5,0.0,0.0,270.0,822.0,0.0,1,28.0,1
1218,1218,-0.41388462528982234,-0.4,1.0,0.0,380.0,622.0,0.0,0,768.0,1
1219,1219,-0.5705202658295427,-0.6,0.0,1.0,369.0,962.0,1.0,0,129.0,1
1220,1220,0.412735872800701,0.4,1.0,1.0,329.0,602.0,1.0,1,379.0,1
1221,1221,-0.5287788993405103,-0.5,0.0,1.0,479.0,993.0,1.0,0,338.0,1
1222,1222,0.6923778704427924,0.7,0.0,0.0,275.0,623.0,0.0,1,342.0,1
1223,1223,0.4011924450634946,0.4,0.0,0.0,446.0,760.0,0.0,1,354.0,1
1224,1224,0.5223113129343212,0.5,0.0,0.0,377.0,610.0,0.0,1,523.0,1
1225,1225,-0.30671856054219204,-0.3,0.0,1.0,423.0,976.0,1.0,0,451.0,1
1226,1226,-0.3471009430739711,-0.3,0.0,1.0,353.0,888.0,1.0,0,299.0,1
1227,1227,-0.8717342258417677,-0.9,0.0,1.0,400.0,912.0,1.0,0,238.0,1
1228,1228,0.3838487479044722,0.4,0.0,0.0,473.0,530.0,0.0,1,377.0,1
1229,1229,0.8000136594017956,0.8,0.0,0.0,491.0,578.0,0.0,1,321.0,1
1230,1230,-0.5732127362616297,-0.6,0.0,1.0,397.0,938.0,1.0,0,225.0,1
1231,1231,0.5991330469353763,0.6,0.0,0.0,443.0,689.0,0.0,1,258.0,1
1232,1232,0.7758058185713806,0.8,0.0,0.0,258.0,802.0,0.0,1,180.0,1
1233,1233,0.21394423211751123,0.2,1.0,1.0,300.0,652.0,1.0,1,748.0,1
1234,1234,-0.5197302625608193,-0.5,0.0,1.0,496.0,538.0,1.0,0,416.0,1
1235,1235,0.1560771054587674,0.2,1.0,1.0,467.0,922.0,1.0,1,951.0,1
1236,1236,0.5919665685674057,0.6,1.0,1.0,380.0,554.0,1.0,1,186.0,1
1237,1237,0.5664702087823675,0.6,1.0,1.0,469.0,888.0,1.0,1,193.0,1
1238,1238,-0.48273233786592445,-0.5,1.0,0.0,318.0,635.0,0.0,0,757.0,1
1239,1239,0.2912136525468275,0.3,0.0,0.0,362.0,586.0,0.0,1,802.0,1
1240,1240,-0.1713349061740398,-0.2,0.0,1.0,473.0,873.0,1.0,0,514.0,1
1241,1241,0.6095233274373847,0.6,0.0,0.0,309.0,860.0,0.0,1,161.0,1
1242,1242,0.39045160444597016,0.4,1.0,1.0,397.0,637.0,1.0,1,336.0,1
1243,1243,0.10829430015697572,0.1,1.0,1.0,337.0,809.0,1.0,1,534.0,1
1244,1244,-0.13332787130048296,-0.1,1.0,0.0,417.0,722.0,0.0,0,401.0,1
1245,1245,-0.1514368309589249,-0.2,0.0,1.0,271.0,541.0,1.0,0,998.0,1
1246,1246,0.15148930613052947,0.2,1.0,1.0,252.0,668.0,1.0,1,120.0,1
1247,1247,0.2696016967858491,0.3,0.0,0.0,420.0,580.0,0.0,1,1210.0,1
1248,1248,-0.4018591341662253,-0.4,0.0,1.0,279.0,970.0,1.0,0,181.0,1
1249,1249,0.8686492736389927,0.9,1.0,1.0,481.0,702.0,1.0,1,87.0,1
1250,1250,-0.708133565622905,-0.7,0.0,1.0,286.0,775.0,1.0,0,169.0,1
1251,1251,0.4390577373581469,0.4,0.0,0.0,296.0,722.0,0.0,1,582.0,1
1252,1252,-0.47377462863897674,-0.5,0.0,1.0,300.0,921.0,1.0,0,369.0,1
1253,1253,0.887602321975446,0.9,1.0,1.0,386.0,595.0,1.0,1,319.0,1
1254,1254,0.660422970406508,0.7,0.0,0.0,378.0,930.0,0.0,1,162.0,1
1255,1255,-0.6661694863154652,-0.7,0.0,1.0,424.0,700.0,1.0,0,596.0,1
1256,1256,-0.4647315917527232,-0.5,0.0,1.0,454.0,636.0,1.0,0,270.0,1
1257,1257,-0.027209399241823418,-0.0,1.0,0.0,445.0,625.0,0.0,0,1570.0,1
1258,1258,-0.16120974807789923,-0.2,0.0,1.0,263.0,930.0,1.0,0,327.0,1
1259,1259,0.21760908657650402,0.2,1.0,1.0,289.0,587.0,1.0,1,194.0,1
1260,1260,0.2723158092869501,0.3,1.0,1.0,254.0,557.0,1.0,1,339.0,1
1261,1261,0.8126248709601763,0.8,1.0,1.0,356.0,723.0,1.0,1,301.0,1
1262,1262,0.2609755450949879,0.3,0.0,0.0,259.0,731.0,0.0,1,280.0,1
1263,1263,0.8223209722168133,0.8,1.0,1.0,477.0,826.0,1.0,1,117.0,1
1264,1264,-0.10568081218687142,-0.1,1.0,0.0,383.0,621.0,0.0,0,1236.0,1
1265,1265,-0.8183231400936674,-0.8,1.0,0.0,342.0,726.0,0.0,0,362.0,1
1266,1266,0.09688415874108813,0.1,0.0,0.0,289.0,938.0,0.0,1,1883.0,1
1267,1267,-0.7022139728533487,-0.7,1.0,0.0,314.0,803.0,0.0,0,243.0,1
1268,1268,0.8796497445320063,0.9,1.0,1.0,440.0,916.0,1.0,1,104.0,1
1269,1269,-0.5811760594626321,-0.6,0.0,1.0,387.0,665.0,1.0,0,398.0,1
1270,1270,0.8532023271214416,0.9,0.0,0.0,391.0,852.0,0.0,1,317.0,1
1271,1271,0.23276049818565825,0.2,0.0,0.0,432.0,582.0,0.0,1,1726.0,1
1272,1272,0.4255725047880562,0.4,1.0,1.0,496.0,821.0,1.0,1,153.0,1
1273,1273,-0.16642221297571724,-0.2,1.0,0.0,495.0,771.0,0.0,0,424.0,1
1274,1274,-0.3023576286604255,-0.3,0.0,1.0,473.0,727.0,1.0,0,450.0,1
1275,1275,-0.21847869683066823,-0.2,1.0,0.0,280.0,864.0,0.0,0,536.0,1
1276,1276,-0.3829310415436328,-0.4,1.0,0.0,283.0,787.0,0.0,0,840.0,1
1277,1277,-0.15127514781537754,-0.2,1.0,0.0,384.0,811.0,0.0,0,525.0,1
1278,1278,0.8651170453186591,0.9,0.0,0.0,257.0,853.0,0.0,1,330.0,1
1279,1279,0.5141537519557701,0.5,0.0,0.0,334.0,505.0,0.0,1,321.0,1
1280,1280,0.6823712661693367,0.7,1.0,1.0,412.0,592.0,1.0,1,406.0,1
1281,1281,-0.836143696062071,-0.8,0.0,1.0,302.0,536.0,1.0,0,622.0,1
1282,1282,0.6290242654517012,0.6,0.0,0.0,395.0,689.0,0.0,1,216.0,1
1283,1283,0.15736124150114483,0.2,0.0,0.0,323.0,958.0,0.0,1,439.0,1
1284,1284,0.10706978388886201,0.1,0.0,0.0,342.0,610.0,0.0,1,1488.0,1
1285,1285,-0.5915155803496076,-0.6,0.0,1.0,405.0,971.0,1.0,0,124.0,1
1286,1286,0.3901722922534142,0.4,0.0,0.0,261.0,589.0,0.0,1,360.0,1
1287,1287,0.6059323924150827,0.6,1.0,1.0,481.0,698.0,1.0,1,321.0,1
1288,1288,-0.4530488164128911,-0.5,0.0,1.0,279.0,517.0,1.0,0,344.0,1
1289,1289,-0.708485419524477,-0.7,1.0,0.0,486.0,659.0,0.0,0,335.0,1
1290,1290,-0.1981259516311531,-0.2,0.0,1.0,471.0,631.0,1.0,0,1028.0,1
1291,1291,-0.47597874919313665,-0.5,0.0,1.0,363.0,682.0,1.0,0,585.0,1
1292,1292,0.6098127056538548,0.6,0.0,0.0,378.0,586.0,0.0,1,496.0,1
1293,1293,-0.6806467251537582,-0.7,0.0,1.0,452.0,614.0,1.0,0,204.0,1
1294,1294,-0.06660742044096257,-0.1,0.0,1.0,352.0,857.0,1.0,0,3161.0,1
1295,1295,-0.18283536234414388,-0.2,1.0,0.0,388.0,519.0,0.0,0,1383.0,1
1296,1296,-0.8910000724735644,-0.9,1.0,0.0,463.0,687.0,0.0,0,440.0,1
1297,1297,0.43888245688812655,0.4,0.0,0.0,367.0,671.0,0.0,1,322.0,1
1298,1298,0.7838389324242524,0.8,1.0,1.0,403.0,513.0,1.0,1,294.0,1
1299,1299,-0.24462533689840826,-0.2,1.0,0.0,489.0,837.0,0.0,0,594.0,1
1300,1300,0.4876735376165745,0.5,1.0,1.0,424.0,520.0,1.0,1,436.0,1
1301,1301,0.6849567960507991,0.7,1.0,1.0,434.0,934.0,1.0,1,102.0,1
1302,1302,0.5725093932853921,0.6,0.0,0.0,307.0,912.0,0.0,1,201.0,1
1303,1303,-0.40172563874368666,-0.4,0.0,1.0,497.0,532.0,1.0,0,491.0,1
1304,1304,-0.15313007140830404,-0.2,0.0,1.0,463.0,519.0,1.0,0,1358.0,1
1305,1305,0.22415030183003426,0.2,1.0,1.0,469.0,790.0,1.0,1,341.0,1
1306,1306,0.807806801484532,0.8,1.0,1.0,348.0,724.0,1.0,1,218.0,1
1307,1307,0.2738002648605219,0.3,1.0,1.0,351.0,862.0,1.0,1,437.0,1
1308,1308,-0.8213445221404618,-0.8,1.0,0.0,333.0,947.0,0.0,0,90.0,1
1309,1309,0.6655129562345597,0.7,0.0,0.0,411.0,780.0,0.0,1,299.0,1
1310,1310,-0.8646273388647572,-0.9,1.0,0.0,370.0,809.0,0.0,0,261.0,1
1311,1311,0.07449899178177477,0.1,0.0,0.0,365.0,888.0,0.0,1,1857.0,1
1312,1312,0.7292742342161614,0.7,0.0,0.0,481.0,577.0,0.0,1,262.0,1
1313,1313,0.41092432040911586,0.4,0.0,0.0,413.0,900.0,0.0,1,197.0,1
1314,1314,0.6394324815749192,0.6,0.0,0.0,480.0,689.0,0.0,1,281.0,1
1315,1315,-0.4878091815065499,-0.5,0.0,1.0,372.0,541.0,1.0,0,147.0,1
1316,1316,-0.5259372277280753,-0.5,0.0,1.0,284.0,985.0,1.0,0,61.0,1
1317,1317,0.4138606790837601,0.4,1.0,1.0,491.0,629.0,1.0,1,150.0,1
1318,1318,-0.5622421881872706,-0.6,0.0,1.0,405.0,517.0,1.0,0,288.0,1
1319,1319,-0.2592143399019601,-0.3,0.0,1.0,441.0,731.0,1.0,0,308.0,1
1320,1320,-0.5965392379303145,-0.6,0.0,1.0,424.0,631.0,1.0,0,345.0,1
1321,1321,-0.1223438158928768,-0.1,1.0,0.0,428.0,567.0,0.0,0,1775.0,1
1322,1322,-0.8454122967362208,-0.8,1.0,0.0,375.0,679.0,0.0,0,186.0,1
1323,1323,0.3028105011955132,0.3,1.0,1.0,314.0,725.0,1.0,1,521.0,1
1324,1324,0.648767786467222,0.6,1.0,1.0,458.0,853.0,1.0,1,489.0,1
1325,1325,-0.6460268573198,-0.6,0.0,1.0,360.0,604.0,1.0,0,176.0,1
1326,1326,-0.8865390838297121,-0.9,1.0,0.0,419.0,652.0,0.0,0,439.0,1
1327,1327,0.020573280590719945,0.0,1.0,1.0,456.0,551.0,1.0,1,83.0,1
1328,1328,-0.3423173854903331,-0.3,0.0,1.0,307.0,775.0,1.0,0,468.0,1
1329,1329,0.5710039112100548,0.6,0.0,0.0,448.0,843.0,0.0,1,289.0,1
1330,1330,-0.4687091532456237,-0.5,1.0,0.0,360.0,918.0,0.0,0,502.0,1
1331,1331,-0.7441478967387962,-0.7,0.0,1.0,298.0,716.0,1.0,0,206.0,1
1332,1332,0.3583242916050223,0.4,0.0,0.0,482.0,670.0,0.0,1,438.0,1
1333,1333,0.5920700247879306,0.6,0.0,0.0,432.0,811.0,0.0,1,487.0,1
1334,1334,0.33004141800357967,0.3,1.0,1.0,354.0,774.0,1.0,1,312.0,1
1335,1335,-0.3629834882738906,-0.4,1.0,0.0,409.0,574.0,0.0,0,787.0,1
1336,1336,0.5473334924539573,0.5,1.0,1.0,492.0,920.0,1.0,1,48.0,1
1337,1337,0.0960114645698601,0.1,1.0,1.0,418.0,627.0,1.0,1,455.0,1
1338,1338,0.8631549853064112,0.9,0.0,0.0,413.0,953.0,0.0,1,184.0,1
1339,1339,-0.15370164618368232,-0.2,0.0,1.0,264.0,852.0,1.0,0,574.0,1
1340,1340,0.16789077895768856,0.2,0.0,0.0,288.0,737.0,0.0,1,2305.0,1
1341,1341,0.2583497106166922,0.3,0.0,0.0,343.0,619.0,0.0,1,928.0,1
1342,1342,0.0009156047216697383,0.0,0.0,0.0,308.0,833.0,0.0,1,3859.0,1
1343,1343,0.8476030296905047,0.8,0.0,0.0,378.0,931.0,0.0,1,141.0,1
1344,1344,0.16201273074927236,0.2,1.0,1.0,326.0,696.0,1.0,1,518.0,1
1345,1345,0.19755863223193193,0.2,1.0,1.0,388.0,546.0,1.0,1,676.0,1
1346,1346,-0.5163175118155561,-0.5,0.0,1.0,462.0,682.0,1.0,0,336.0,1
1347,1347,-0.751097429055532,-0.8,0.0,1.0,485.0,535.0,1.0,0,260.0,1
1348,1348,-0.8720161874725306,-0.9,0.0,1.0,422.0,799.0,1.0,0,179.0,1
1349,1349,-0.8040474363862892,-0.8,1.0,0.0,456.0,701.0,0.0,0,293.0,1
1350,1350,0.625391238797579,0.6,0.0,0.0,280.0,799.0,0.0,1,101.0,1
1351,1351,0.4983043813269131,0.5,1.0,1.0,281.0,836.0,1.0,1,113.0,1
1352,1352,0.0931631762234516,0.1,1.0,1.0,400.0,537.0,1.0,1,503.0,1
1353,1353,0.7052526550071961,0.7,1.0,1.0,262.0,847.0,1.0,1,301.0,1
1354,1354,-0.41698167027149463,-0.4,0.0,1.0,294.0,595.0,1.0,0,431.0,1
1355,1355,0.8307479510423216,0.8,1.0,1.0,292.0,701.0,1.0,1,227.0,1
1356,1356,-0.817252369774582,-0.8,0.0,1.0,473.0,893.0,1.0,0,54.0,1
1357,1357,-0.39604093743803626,-0.4,0.0,1.0,337.0,509.0,1.0,0,424.0,1
1358,1358,0.31496769778145717,0.3,1.0,1.0,319.0,839.0,1.0,1,662.0,1
1359,1359,-0.12767224649252562,-0.1,0.0,1.0,385.0,663.0,1.0,0,292.0,1
1360,1360,0.5070280280161042,0.5,1.0,1.0,258.0,607.0,1.0,1,465.0,1
1361,1361,0.20261623235555348,0.2,0.0,0.0,497.0,980.0,0.0,1,353.0,1
1362,1362,-0.5352084485818278,-0.5,0.0,1.0,346.0,774.0,1.0,0,150.0,1
1363,1363,0.7983779601188258,0.8,0.0,0.0,492.0,897.0,0.0,1,121.0,1
1364,1364,0.07674651205980898,0.1,0.0,0.0,291.0,830.0,0.0,1,3869.0,1
1365,1365,0.46882332450699915,0.5,0.0,0.0,371.0,923.0,0.0,1,376.0,1
1366,1366,0.6701779301711784,0.7,0.0,0.0,473.0,712.0,0.0,1,165.0,1
1367,1367,-0.417005082844452,-0.4,0.0,1.0,268.0,596.0,1.0,0,256.0,1
1368,1368,-0.4672981685375913,-0.5,1.0,0.0,483.0,836.0,0.0,0,461.0,1
1369,1369,0.5353238994948321,0.5,1.0,1.0,491.0,622.0,1.0,1,277.0,1
1370,1370,-0.24668240174053502,-0.2,1.0,0.0,320.0,682.0,0.0,0,478.0,1
1371,1371,-0.591476605858466,-0.6,1.0,0.0,346.0,818.0,0.0,0,116.0,1
1372,1372,-0.20654158592923255,-0.2,0.0,1.0,470.0,917.0,1.0,0,553.0,1
1373,1373,-0.03590479053040596,-0.0,0.0,1.0,341.0,675.0,1.0,0,574.0,1
1374,1374,-0.044002169298199556,-0.0,0.0,1.0,341.0,937.0,1.0,0,1992.0,1
1375,1375,0.5175193316422474,0.5,0.0,0.0,348.0,788.0,0.0,1,224.0,1
1376,1376,0.05499725196088279,0.1,0.0,0.0,364.0,938.0,1.0,0,388.0,0
1377,1377,-0.3983878262974696,-0.4,0.0,1.0,459.0,768.0,1.0,0,163.0,1
1378,1378,-0.840899809539709,-0.8,1.0,0.0,398.0,923.0,0.0,0,179.0,1
1379,1379,0.5075848567402811,0.5,0.0,0.0,300.0,535.0,0.0,1,605.0,1
1380,1380,-0.033041346870392285,-0.0,1.0,0.0,317.0,609.0,0.0,0,2984.0,1
1381,1381,-0.20715952421777917,-0.2,1.0,0.0,412.0,550.0,0.0,0,478.0,1
1382,1382,0.6351727734135514,0.6,1.0,1.0,342.0,858.0,1.0,1,40.0,1
1383,1383,-0.7594155598584537,-0.8,0.0,1.0,258.0,771.0,1.0,0,51.0,1
1384,1384,0.3503892753007948,0.4,1.0,1.0,281.0,808.0,1.0,1,101.0,1
1385,1385,-0.5177126256422364,-0.5,1.0,0.0,350.0,912.0,0.0,0,368.0,1
1386,1386,-0.5161837830178706,-0.5,1.0,0.0,468.0,716.0,0.0,0,376.0,1
1387,1387,-0.5261783563780336,-0.5,1.0,0.0,331.0,733.0,0.0,0,326.0,1
1388,1388,0.6130113355680781,0.6,0.0,0.0,382.0,815.0,0.0,1,143.0,1
1389,1389,0.8457432004770274,0.8,0.0,0.0,279.0,917.0,0.0,1,194.0,1
1390,1390,-0.7053929954471994,-0.7,0.0,1.0,331.0,834.0,1.0,0,175.0,1
1391,1391,0.5092762450570717,0.5,0.0,0.0,481.0,501.0,0.0,1,518.0,1
1392,1392,0.7446443318175263,0.7,1.0,1.0,463.0,928.0,1.0,1,399.0,1
1393,1393,0.6669422719897958,0.7,1.0,1.0,252.0,527.0,1.0,1,341.0,1
1394,1394,0.3905379607102636,0.4,1.0,1.0,380.0,940.0,1.0,1,250.0,1
1395,1395,-0.3056903146839127,-0.3,0.0,1.0,307.0,627.0,1.0,0,506.0,1
1396,1396,-0.49259544629587415,-0.5,1.0,0.0,484.0,807.0,0.0,0,329.0,1
1397,1397,-0.5164193271226378,-0.5,0.0,1.0,325.0,787.0,1.0,0,308.0,1
1398,1398,0.42288588286272233,0.4,1.0,1.0,258.0,725.0,1.0,1,207.0,1
1399,1399,-0.10732727530714237,-0.1,0.0,1.0,384.0,705.0,1.0,0,261.0,1
1400,1400,0.09419828625679849,0.1,0.0,0.0,273.0,543.0,0.0,1,3284.0,1
1401,1401,-0.57750329264496,-0.6,0.0,1.0,311.0,577.0,1.0,0,552.0,1
1402,1402,-0.11893691630039871,-0.1,0.0,1.0,473.0,680.0,1.0,0,617.0,1
1403,1403,-0.22375004354690564,-0.2,1.0,0.0,252.0,797.0,0.0,0,411.0,1
1404,1404,-0.6879280894615462,-0.7,0.0,1.0,433.0,562.0,1.0,0,255.0,1
1405,1405,-0.7892804959552884,-0.8,0.0,1.0,282.0,642.0,1.0,0,346.0,1
1406,1406,0.5763212454404435,0.6,0.0,0.0,477.0,760.0,0.0,1,393.0,1
1407,1407,-0.7363107673434018,-0.7,1.0,0.0,327.0,778.0,0.0,0,135.0,1
1408,1408,-0.3900471967526107,-0.4,0.0,1.0,314.0,522.0,1.0,0,654.0,1
1409,1409,0.25128480849528134,0.3,1.0,1.0,333.0,618.0,1.0,1,289.0,1
1410,1410,-0.4753527913368181,-0.5,0.0,1.0,271.0,513.0,1.0,0,836.0,1
1411,1411,-0.325437812450146,-0.3,0.0,1.0,381.0,608.0,1.0,0,761.0,1
1412,1412,-0.26375010383305963,-0.3,1.0,0.0,291.0,541.0,0.0,0,778.0,1
1413,1413,0.3010449039328774,0.3,0.0,0.0,364.0,913.0,0.0,1,303.0,1
1414,1414,0.37605859261204755,0.4,1.0,1.0,324.0,949.0,1.0,1,197.0,1
1415,1415,0.7626486758535879,0.8,0.0,0.0,477.0,669.0,0.0,1,644.0,1
1416,1416,0.0683847154082392,0.1,0.0,0.0,353.0,733.0,1.0,0,3904.0,0
1417,1417,-0.33119736094970564,-0.3,1.0,0.0,391.0,783.0,0.0,0,216.0,1
1418,1418,0.7751348060448068,0.8,0.0,0.0,396.0,556.0,0.0,1,388.0,1
1419,1419,0.08346389871367865,0.1,0.0,0.0,337.0,717.0,0.0,1,816.0,1
1420,1420,-0.37820208252473686,-0.4,0.0,1.0,281.0,625.0,1.0,0,464.0,1
1421,1421,-0.8861926163037576,-0.9,0.0,1.0,277.0,950.0,1.0,0,73.0,1
1422,1422,-0.6622084582522179,-0.7,0.0,1.0,326.0,761.0,1.0,0,383.0,1
1423,1423,-0.2974334495796602,-0.3,1.0,0.0,462.0,980.0,0.0,0,828.0,1
1424,1424,-0.7143075933610776,-0.7,1.0,0.0,480.0,810.0,0.0,0,360.0,1
1425,1425,-0.529309861371087,-0.5,1.0,0.0,379.0,678.0,0.0,0,293.0,1
1426,1426,-0.13197116679167953,-0.1,0.0,1.0,273.0,596.0,1.0,0,381.0,1
1427,1427,0.19901196480780092,0.2,1.0,1.0,354.0,621.0,1.0,1,445.0,1
1428,1428,-0.3684275168702422,-0.4,0.0,1.0,421.0,807.0,1.0,0,222.0,1
1429,1429,-0.8138146504468871,-0.8,1.0,0.0,356.0,604.0,0.0,0,340.0,1
1430,1430,-0.6896772760808783,-0.7,0.0,1.0,293.0,749.0,1.0,0,128.0,1
1431,1431,-0.6514300768996484,-0.7,0.0,1.0,493.0,833.0,1.0,0,244.0,1
1432,1432,-0.38477152742980036,-0.4,0.0,1.0,376.0,839.0,1.0,0,315.0,1
1433,1433,0.503141476990825,0.5,0.0,0.0,261.0,999.0,0.0,1,270.0,1
1434,1434,-0.24338331130521473,-0.2,0.0,1.0,404.0,843.0,1.0,0,293.0,1
1435,1435,0.07605185058055286,0.1,1.0,1.0,476.0,620.0,1.0,1,1764.0,1
1436,1436,-0.5497175813569276,-0.5,0.0,1.0,342.0,841.0,1.0,0,177.0,1
1437,1437,-0.2858831421555841,-0.3,1.0,0.0,253.0,927.0,0.0,0,330.0,1
1438,1438,0.6073516741257979,0.6,0.0,0.0,387.0,648.0,0.0,1,295.0,1
1439,1439,-0.5806369732623357,-0.6,1.0,0.0,482.0,871.0,0.0,0,417.0,1
1440,1440,-0.8160880259012209,-0.8,0.0,1.0,358.0,670.0,1.0,0,162.0,1
1441,1441,-0.4166196392635862,-0.4,0.0,1.0,259.0,715.0,1.0,0,306.0,1
1442,1442,-0.47003865218367225,-0.5,0.0,1.0,385.0,885.0,1.0,0,110.0,1
1443,1443,-0.5466612337910924,-0.5,1.0,0.0,379.0,869.0,0.0,0,252.0,1
1444,1444,-0.7104895054019393,-0.7,0.0,1.0,350.0,960.0,1.0,0,50.0,1
1445,1445,-0.10017435350220094,-0.1,1.0,0.0,259.0,621.0,1.0,1,3290.0,0
1446,1446,-0.7051591062563198,-0.7,0.0,1.0,381.0,892.0,1.0,0,127.0,1
1447,1447,0.8438939935691715,0.8,1.0,1.0,451.0,580.0,1.0,1,269.0,1
1448,1448,-0.37477332031794897,-0.4,1.0,0.0,288.0,934.0,0.0,0,268.0,1
1449,1449,0.49252407395956077,0.5,0.0,0.0,388.0,679.0,0.0,1,273.0,1
1450,1450,-0.5407751843840048,-0.5,0.0,1.0,468.0,602.0,1.0,0,570.0,1
1451,1451,0.8172155297760787,0.8,0.0,0.0,385.0,978.0,0.0,1,197.0,1
1452,1452,-0.5373262952638473,-0.5,1.0,0.0,347.0,865.0,0.0,0,198.0,1
1453,1453,0.6980507025270667,0.7,0.0,0.0,404.0,658.0,0.0,1,588.0,1
1454,1454,-0.8724522046379348,-0.9,1.0,0.0,410.0,748.0,0.0,0,392.0,1
1455,1455,-0.5943932090225894,-0.6,1.0,0.0,498.0,566.0,0.0,0,386.0,1
1456,1456,-0.6893499776131089,-0.7,0.0,1.0,498.0,760.0,1.0,0,182.0,1
1457,1457,-0.5625044075185008,-0.6,1.0,0.0,344.0,644.0,0.0,0,262.0,1
1458,1458,0.3398474908077348,0.3,0.0,0.0,388.0,813.0,0.0,1,459.0,1
1459,1459,0.448618256144106,0.4,0.0,0.0,460.0,583.0,0.0,1,317.0,1
1460,1460,-0.5164076200733208,-0.5,1.0,0.0,441.0,687.0,0.0,0,322.0,1
1461,1461,0.7418971539541558,0.7,0.0,0.0,414.0,501.0,0.0,1,285.0,1
1462,1462,-0.6573098700337623,-0.7,0.0,1.0,461.0,814.0,1.0,0,285.0,1
1463,1463,0.7007390426899432,0.7,0.0,0.0,443.0,552.0,0.0,1,495.0,1
1464,1464,-0.07206572190664096,-0.1,1.0,0.0,324.0,546.0,0.0,0,1170.0,1
1465,1465,0.1866680733682452,0.2,1.0,1.0,364.0,584.0,1.0,1,482.0,1
1466,1466,-0.09784713066770578,-0.1,0.0,1.0,269.0,711.0,1.0,0,270.0,1
1467,1467,-0.12963348078624892,-0.1,1.0,0.0,366.0,977.0,0.0,0,2097.0,1
1468,1468,-0.8081365930584781,-0.8,1.0,0.0,253.0,640.0,0.0,0,177.0,1
1469,1469,0.11206756541149299,0.1,1.0,1.0,393.0,883.0,1.0,1,1214.0,1
1470,1470,0.6330850586225133,0.6,1.0,1.0,458.0,787.0,1.0,1,255.0,1
1471,1471,0.4047687245027184,0.4,0.0,0.0,418.0,556.0,0.0,1,706.0,1
1472,1472,-0.2038846924154445,-0.2,1.0,0.0,467.0,879.0,0.0,0,514.0,1
1473,1473,0.5239484486813367,0.5,1.0,1.0,420.0,728.0,1.0,1,142.0,1
1474,1474,0.09908168715300913,0.1,1.0,1.0,480.0,741.0,1.0,1,1909.0,1
1475,1475,-0.7902008128981467,-0.8,1.0,0.0,369.0,908.0,0.0,0,413.0,1
1476,1476,0.7974834456678513,0.8,1.0,1.0,418.0,680.0,1.0,1,202.0,1
1477,1477,-0.36082100337276757,-0.4,1.0,0.0,380.0,705.0,0.0,0,325.0,1
1478,1478,0.42085743932853126,0.4,0.0,0.0,348.0,725.0,0.0,1,537.0,1
1479,1479,-0.723268673821174,-0.7,0.0,1.0,375.0,533.0,1.0,0,292.0,1
1480,1480,-0.5741926216749114,-0.6,0.0,1.0,331.0,960.0,1.0,0,79.0,1
1481,1481,0.16605689159315695,0.2,0.0,0.0,486.0,595.0,0.0,1,489.0,1
1482,1482,0.6920603779747762,0.7,1.0,1.0,459.0,816.0,1.0,1,215.0,1
1483,1483,-0.23697937810103542,-0.2,0.0,1.0,298.0,907.0,1.0,0,395.0,1
1484,1484,-0.037657547042824535,-0.0,1.0,0.0,473.0,772.0,1.0,1,1005.0,0
1485,1485,-0.4344018945663821,-0.4,0.0,1.0,255.0,524.0,1.0,0,761.0,1
1486,1486,0.796694124027756,0.8,0.0,0.0,318.0,926.0,0.0,1,546.0,1
1487,1487,-0.38937168691444,-0.4,1.0,0.0,452.0,510.0,0.0,0,388.0,1
1488,1488,0.14689985784608617,0.1,0.0,0.0,427.0,866.0,0.0,1,497.0,1
1489,1489,-0.410793665661373,-0.4,0.0,1.0,419.0,842.0,1.0,0,139.0,1
1490,1490,0.34621085226827353,0.3,1.0,1.0,485.0,823.0,1.0,1,242.0,1
1491,1491,0.7417906391582753,0.7,0.0,0.0,359.0,636.0,0.0,1,275.0,1
1492,1492,-0.12788518558078465,-0.1,1.0,0.0,388.0,831.0,0.0,0,541.0,1
1493,1493,0.5975047863825306,0.6,1.0,1.0,359.0,518.0,1.0,1,213.0,1
