,trial,coherence,coherence_bin,green_side,correct_side,target_onset,checker_onset,decision,green_decision,decision_time,correct_decision
0,0,-0.3822337327447316,-0.4,0.0,1.0,372.0,913.0,0.0,1,165.0,0
1,1,-0.233565702450649,-0.2,1.0,0.0,380.0,547.0,0.0,0,493.0,1
2,2,0.01893531642932289,0.0,0.0,0.0,366.0,522.0,0.0,1,352.0,1
3,3,0.42121799964528683,0.4,1.0,1.0,322.0,981.0,1.0,1,537.0,1
4,4,0.6218049921442695,0.6,1.0,1.0,340.0,845.0,1.0,1,615.0,1
5,5,-0.5397577465707715,-0.5,1.0,0.0,349.0,708.0,0.0,0,533.0,1
6,6,-0.19116318496474827,-0.2,1.0,0.0,374.0,918.0,0.0,0,348.0,1
7,7,-0.36982057231497034,-0.4,0.0,1.0,454.0,519.0,1.0,0,417.0,1
8,8,0.5128847482974507,0.5,1.0,1.0,258.0,612.0,1.0,1,490.0,1
9,9,0.7372067837507211,0.7,0.0,0.0,396.0,561.0,0.0,1,383.0,1
10,10,0.07301274727101292,0.1,0.0,0.0,362.0,657.0,0.0,1,491.0,1
11,11,0.14059489165640515,0.1,0.0,0.0,414.0,994.0,0.0,1,202.0,1
12,12,-0.8076155231528349,-0.8,0.0,1.0,412.0,819.0,1.0,0,409.0,1
13,13,0.515606370424203,0.5,1.0,1.0,278.0,810.0,1.0,1,262.0,1
14,14,-0.890821203036836,-0.9,1.0,0.0,397.0,819.0,0.0,0,554.0,1
15,15,0.3866454667458131,0.4,0.0,0.0,285.0,960.0,0.0,1,335.0,1
16,16,-0.2627867179672754,-0.3,1.0,0.0,303.0,882.0,0.0,0,245.0,1
17,17,0.8409392960913965,0.8,1.0,1.0,420.0,936.0,1.0,1,414.0,1
18,18,-0.6438533680387597,-0.6,0.0,1.0,422.0,806.0,1.0,0,282.0,1
19,19,0.3483446696302449,0.3,0.0,0.0,375.0,704.0,0.0,1,731.0,1
20,20,-0.3599285591021828,-0.4,1.0,0.0,329.0,589.0,0.0,0,772.0,1
21,21,-0.21522467047920624,-0.2,1.0,0.0,431.0,802.0,0.0,0,257.0,1
22,22,-0.37620861306697617,-0.4,1.0,0.0,407.0,925.0,0.0,0,858.0,1
23,23,-0.36886618344875144,-0.4,1.0,0.0,484.0,540.0,0.0,0,396.0,1
24,24,0.03803595950649563,0.0,0.0,0.0,421.0,706.0,0.0,1,1043.0,1
25,25,-0.29119130268573423,-0.3,0.0,1.0,250.0,612.0,1.0,0,528.0,1
26,26,-0.8088205210743381,-0.8,1.0,0.0,320.0,862.0,0.0,0,268.0,1
27,27,0.6823863177348274,0.7,0.0,0.0,376.0,734.0,0.0,1,90.0,1
28,28,-0.5865679070926249,-0.6,0.0,1.0,395.0,673.0,0.0,1,502.0,0
29,29,-0.872964408548834,-0.9,1.0,0.0,302.0,605.0,0.0,0,593.0,1
30,30,-0.8137508904244677,-0.8,1.0,0.0,439.0,669.0,0.0,0,462.0,1
31,31,0.7605905058807482,0.8,0.0,0.0,390.0,810.0,0.0,1,320.0,1
32,32,-0.6775761082225837,-0.7,1.0,0.0,392.0,573.0,0.0,0,675.0,1
33,33,-0.6714529932388829,-0.7,1.0,0.0,313.0,919.0,0.0,0,358.0,1
34,34,0.6257331027719774,0.6,0.0,0.0,339.0,540.0,0.0,1,221.0,1
35,35,-0.1431798641800277,-0.1,0.0,1.0,450.0,725.0,0.0,1,515.0,0
36,36,-0.20575466509528506,-0.2,0.0,1.0,350.0,917.0,1.0,0,463.0,1
37,37,-0.03962040681981005,-0.0,1.0,0.0,497.0,857.0,0.0,0,716.0,1
38,38,0.7813266981665793,0.8,0.0,0.0,373.0,801.0,0.0,1,266.0,1
39,39,0.38272918843234993,0.4,0.0,0.0,294.0,706.0,0.0,1,240.0,1
40,40,-0.7621277368231947,-0.8,0.0,1.0,380.0,700.0,1.0,0,390.0,1
41,41,-0.47702260218256337,-0.5,1.0,0.0,373.0,743.0,0.0,0,494.0,1
42,42,-0.6176944239212994,-0.6,1.0,0.0,471.0,914.0,0.0,0,1065.0,1
43,43,0.8536836987795079,0.9,0.0,0.0,398.0,852.0,0.0,1,70.0,1
44,44,-0.31637133480219226,-0.3,0.0,1.0,302.0,805.0,1.0,0,293.0,1
45,45,-0.5112069891591269,-0.5,0.0,1.0,394.0,626.0,1.0,0,410.0,1
46,46,-0.7746461411819583,-0.8,0.0,1.0,297.0,542.0,1.0,0,811.0,1
47,47,-0.3812636653928957,-0.4,1.0,0.0,283.0,539.0,0.0,0,1298.0,1
48,48,-0.79464682065778,-0.8,1.0,0.0,439.0,556.0,0.0,0,635.0,1
49,49,-0.6307695881303604,-0.6,1.0,0.0,439.0,564.0,0.0,0,397.0,1
50,50,-0.7742398207646424,-0.8,0.0,1.0,441.0,877.0,0.0,1,342.0,0
51,51,0.12644873600979845,0.1,1.0,1.0,320.0,631.0,0.0,0,369.0,0
52,52,0.21976782042063914,0.2,0.0,0.0,474.0,906.0,0.0,1,200.0,1
53,53,0.7990104781678885,0.8,0.0,0.0,376.0,936.0,1.0,0,28.0,0
54,54,-0.49761846145985295,-0.5,0.0,1.0,422.0,913.0,0.0,1,185.0,0
55,55,0.8419158099543961,0.8,0.0,0.0,352.0,941.0,0.0,1,257.0,1
56,56,0.13707945717469483,0.1,0.0,0.0,420.0,722.0,0.0,1,798.0,1
57,57,-0.14870083543184565,-0.1,1.0,0.0,262.0,545.0,1.0,1,1203.0,0
58,58,-0.7223169789328682,-0.7,1.0,0.0,483.0,993.0,1.0,1,-6.0,0
59,59,0.30939465118311904,0.3,1.0,1.0,493.0,767.0,1.0,1,460.0,1
60,60,-0.43764389373743007,-0.4,1.0,0.0,487.0,511.0,0.0,0,482.0,1
61,61,0.04980131707381652,0.0,0.0,0.0,382.0,801.0,0.0,1,267.0,1
62,62,0.46438094203791114,0.5,0.0,0.0,250.0,802.0,0.0,1,428.0,1
63,63,0.6301757562277864,0.6,0.0,0.0,440.0,584.0,0.0,1,296.0,1
64,64,-0.19524767153772915,-0.2,0.0,1.0,277.0,852.0,0.0,1,-119.0,0
65,65,-0.04496483215484026,-0.0,0.0,1.0,397.0,882.0,1.0,0,791.0,1
66,66,0.4053459503061204,0.4,1.0,1.0,492.0,796.0,1.0,1,272.0,1
67,67,0.005371220880904137,0.0,1.0,1.0,475.0,990.0,0.0,0,2635.0,0
68,68,0.26851004444031157,0.3,0.0,0.0,495.0,513.0,0.0,1,732.0,1
69,69,0.6918846770769108,0.7,1.0,1.0,256.0,700.0,1.0,1,684.0,1
70,70,0.03697010322966965,0.0,0.0,0.0,425.0,911.0,1.0,0,294.0,0
71,71,-0.8010753748017883,-0.8,1.0,0.0,292.0,547.0,0.0,0,401.0,1
72,72,0.2636104650010139,0.3,1.0,1.0,369.0,539.0,1.0,1,652.0,1
73,73,0.2809240408020618,0.3,1.0,1.0,325.0,979.0,1.0,1,586.0,1
74,74,-0.39556082256194103,-0.4,0.0,1.0,284.0,929.0,0.0,1,-53.0,0
75,75,-0.45058096932491176,-0.5,1.0,0.0,455.0,658.0,0.0,0,527.0,1
76,76,0.3117279023283034,0.3,0.0,0.0,358.0,635.0,0.0,1,277.0,1
77,77,0.8230095036799642,0.8,0.0,0.0,421.0,747.0,0.0,1,202.0,1
78,78,-0.7336369777368958,-0.7,0.0,1.0,270.0,627.0,1.0,0,663.0,1
79,79,0.6175923432526419,0.6,1.0,1.0,455.0,506.0,1.0,1,759.0,1
80,80,0.4845629902049128,0.5,0.0,0.0,296.0,631.0,0.0,1,323.0,1
81,81,0.1103209557696544,0.1,1.0,1.0,295.0,667.0,1.0,1,198.0,1
82,82,-0.21127246687152146,-0.2,0.0,1.0,360.0,713.0,1.0,0,477.0,1
83,83,0.7077823594381226,0.7,1.0,1.0,313.0,805.0,1.0,1,152.0,1
84,84,-0.05104802294629218,-0.1,1.0,0.0,314.0,849.0,1.0,1,407.0,0
85,85,-0.8825799106801655,-0.9,1.0,0.0,401.0,687.0,0.0,0,332.0,1
86,86,0.2858441222173772,0.3,1.0,1.0,419.0,871.0,0.0,0,120.0,0
87,87,-0.03901856978541551,-0.0,1.0,0.0,287.0,877.0,1.0,1,456.0,0
88,88,0.7354688817156351,0.7,1.0,1.0,468.0,729.0,1.0,1,393.0,1
89,89,-0.29205430988074865,-0.3,1.0,0.0,317.0,584.0,0.0,0,649.0,1
90,90,-0.2891402823729673,-0.3,1.0,0.0,399.0,795.0,0.0,0,656.0,1
91,91,-0.006035364463635284,-0.0,0.0,1.0,490.0,593.0,1.0,0,327.0,1
92,92,0.41891558095884307,0.4,1.0,1.0,313.0,650.0,1.0,1,787.0,1
93,93,0.2117551838736288,0.2,1.0,1.0,426.0,873.0,1.0,1,261.0,1
94,94,-0.007575517146923172,-0.0,1.0,0.0,381.0,803.0,0.0,0,916.0,1
95,95,-0.06007436760018592,-0.1,1.0,0.0,447.0,535.0,0.0,0,2358.0,1
96,96,0.12443390783550468,0.1,1.0,1.0,269.0,827.0,0.0,0,264.0,0
97,97,-0.6661251502461893,-0.7,1.0,0.0,438.0,688.0,0.0,0,394.0,1
98,98,-0.41344838062616057,-0.4,1.0,0.0,493.0,517.0,0.0,0,610.0,1
99,99,0.7464586332614228,0.7,0.0,0.0,255.0,834.0,0.0,1,101.0,1
100,100,-0.13446968455317654,-0.1,0.0,1.0,264.0,845.0,0.0,1,401.0,0
101,101,-0.339370624699475,-0.3,1.0,0.0,363.0,757.0,0.0,0,1150.0,1
102,102,-0.5263398860457704,-0.5,1.0,0.0,337.0,999.0,0.0,0,314.0,1
103,103,-0.401522919598923,-0.4,0.0,1.0,261.0,796.0,1.0,0,1683.0,1
104,104,-0.11090818348788589,-0.1,1.0,0.0,400.0,854.0,0.0,0,316.0,1
105,105,0.7156998430075044,0.7,0.0,0.0,365.0,835.0,1.0,0,10.0,0
106,106,-0.8260103428830301,-0.8,0.0,1.0,259.0,847.0,1.0,0,474.0,1
107,107,0.8342405622544559,0.8,1.0,1.0,427.0,794.0,1.0,1,189.0,1
108,108,-0.5306386223934878,-0.5,0.0,1.0,293.0,611.0,1.0,0,456.0,1
109,109,-0.08974596939033563,-0.1,1.0,0.0,376.0,724.0,0.0,0,880.0,1
110,110,0.15733193345099827,0.2,1.0,1.0,466.0,870.0,1.0,1,1464.0,1
111,111,-0.7846185924551317,-0.8,1.0,0.0,252.0,747.0,0.0,0,351.0,1
112,112,-0.7823088747306864,-0.8,0.0,1.0,410.0,895.0,1.0,0,205.0,1
113,113,0.35697637961702144,0.4,1.0,1.0,391.0,794.0,1.0,1,695.0,1
114,114,0.5635724312031504,0.6,0.0,0.0,391.0,984.0,0.0,1,115.0,1
115,115,-0.5992716970299916,-0.6,1.0,0.0,451.0,866.0,0.0,0,243.0,1
116,116,0.7105915262243482,0.7,0.0,0.0,346.0,581.0,0.0,1,773.0,1
117,117,-0.6357054586168882,-0.6,1.0,0.0,440.0,804.0,0.0,0,356.0,1
118,118,-0.5637989690265728,-0.6,1.0,0.0,463.0,511.0,0.0,0,616.0,1
119,119,0.8366729786424919,0.8,1.0,1.0,348.0,890.0,1.0,1,522.0,1
120,120,0.4856786824077167,0.5,1.0,1.0,479.0,859.0,1.0,1,322.0,1
121,121,-0.6840347832051534,-0.7,0.0,1.0,308.0,856.0,1.0,0,186.0,1
122,122,0.8464588935462579,0.8,0.0,0.0,265.0,682.0,0.0,1,253.0,1
123,123,0.8038749828081732,0.8,0.0,0.0,464.0,539.0,0.0,1,447.0,1
124,124,-0.18521252306104563,-0.2,1.0,0.0,402.0,545.0,1.0,1,733.0,0
125,125,-0.007572427162960471,-0.0,1.0,0.0,319.0,612.0,0.0,0,619.0,1
126,126,-0.8355348409169984,-0.8,1.0,0.0,330.0,814.0,0.0,0,386.0,1
127,127,0.35521728647032724,0.4,0.0,0.0,336.0,947.0,0.0,1,7.0,1
128,128,-0.7922934980952793,-0.8,0.0,1.0,357.0,612.0,1.0,0,531.0,1
129,129,0.7473558830185804,0.7,1.0,1.0,275.0,860.0,1.0,1,355.0,1
130,130,0.5783606235285751,0.6,0.0,0.0,498.0,667.0,0.0,1,465.0,1
131,131,-0.656347437251732,-0.7,1.0,0.0,340.0,789.0,0.0,0,461.0,1
132,132,-0.5032916919776408,-0.5,1.0,0.0,323.0,965.0,0.0,0,322.0,1
133,133,0.22976014724258842,0.2,0.0,0.0,413.0,551.0,0.0,1,806.0,1
134,134,0.8521825032079006,0.9,0.0,0.0,378.0,756.0,0.0,1,126.0,1
135,135,0.7370583318038914,0.7,1.0,1.0,260.0,831.0,1.0,1,329.0,1
136,136,0.09165725383608814,0.1,1.0,1.0,294.0,674.0,1.0,1,732.0,1
137,137,-0.5074050926360865,-0.5,1.0,0.0,326.0,931.0,1.0,1,13.0,0
138,138,0.15843249482448074,0.2,0.0,0.0,341.0,994.0,0.0,1,85.0,1
139,139,0.6902167587433822,0.7,1.0,1.0,345.0,541.0,1.0,1,494.0,1
140,140,0.07204251607489953,0.1,0.0,0.0,321.0,983.0,0.0,1,-74.0,1
141,141,-0.09436503373231564,-0.1,1.0,0.0,450.0,872.0,1.0,1,988.0,0
142,142,0.5094340633528013,0.5,0.0,0.0,448.0,500.0,0.0,1,452.0,1
143,143,-0.3409417781183609,-0.3,0.0,1.0,366.0,663.0,1.0,0,361.0,1
144,144,-0.23074219747942282,-0.2,1.0,0.0,380.0,589.0,1.0,1,511.0,0
145,145,-0.0477650208595477,-0.0,1.0,0.0,461.0,519.0,1.0,1,1070.0,0
146,146,0.2784516411945973,0.3,1.0,1.0,308.0,953.0,1.0,1,39.0,1
147,147,0.7775797433432156,0.8,0.0,0.0,419.0,727.0,0.0,1,194.0,1
148,148,-0.23359236033905229,-0.2,0.0,1.0,397.0,842.0,1.0,0,271.0,1
149,149,0.6329762590951326,0.6,0.0,0.0,302.0,546.0,0.0,1,572.0,1
150,150,0.5412534803370131,0.5,0.0,0.0,340.0,502.0,0.0,1,518.0,1
151,151,-0.17459774536131478,-0.2,0.0,1.0,442.0,601.0,1.0,0,327.0,1
152,152,-0.6767070285583419,-0.7,1.0,0.0,473.0,508.0,0.0,0,869.0,1
153,153,0.7880027807164757,0.8,0.0,0.0,496.0,569.0,0.0,1,385.0,1
154,154,0.5124878821699189,0.5,0.0,0.0,303.0,785.0,0.0,1,122.0,1
155,155,0.6440448226415828,0.6,0.0,0.0,260.0,799.0,0.0,1,501.0,1
156,156,0.627923271629902,0.6,0.0,0.0,497.0,901.0,0.0,1,332.0,1
157,157,0.46599380777398636,0.5,0.0,0.0,417.0,672.0,0.0,1,691.0,1
158,158,0.8538160596841603,0.9,1.0,1.0,395.0,707.0,1.0,1,718.0,1
159,159,-0.10564532678483829,-0.1,1.0,0.0,394.0,938.0,0.0,0,308.0,1
160,160,-0.3854969082913814,-0.4,1.0,0.0,455.0,529.0,0.0,0,716.0,1
161,161,-0.14563657882562264,-0.1,0.0,1.0,325.0,693.0,1.0,0,742.0,1
162,162,-0.013276915455380345,-0.0,1.0,0.0,437.0,656.0,0.0,0,2157.0,1
163,163,0.33517211483307363,0.3,1.0,1.0,459.0,676.0,1.0,1,505.0,1
164,164,0.30151777800192947,0.3,1.0,1.0,389.0,602.0,1.0,1,629.0,1
165,165,0.567676166178411,0.6,0.0,0.0,250.0,673.0,0.0,1,467.0,1
166,166,0.5415423931526652,0.5,0.0,0.0,441.0,830.0,0.0,1,389.0,1
167,167,-0.33868262060978793,-0.3,0.0,1.0,287.0,979.0,0.0,1,394.0,0
168,168,-0.4395839412148694,-0.4,1.0,0.0,314.0,785.0,0.0,0,581.0,1
169,169,0.11163766803509934,0.1,0.0,0.0,268.0,562.0,0.0,1,330.0,1
170,170,0.6819552088732895,0.7,1.0,1.0,444.0,666.0,1.0,1,370.0,1
171,171,-0.021826778093789745,-0.0,1.0,0.0,438.0,974.0,0.0,0,228.0,1
172,172,-0.22933528009774085,-0.2,0.0,1.0,286.0,785.0,1.0,0,139.0,1
173,173,-0.08012066362154824,-0.1,0.0,1.0,354.0,763.0,1.0,0,463.0,1
174,174,0.8911921433074467,0.9,0.0,0.0,406.0,720.0,0.0,1,284.0,1
175,175,-0.41368805147934434,-0.4,1.0,0.0,408.0,769.0,0.0,0,813.0,1
176,176,0.7976396592312959,0.8,1.0,1.0,495.0,717.0,1.0,1,408.0,1
177,177,0.07158651683074413,0.1,1.0,1.0,425.0,661.0,0.0,0,294.0,0
178,178,0.860310204052985,0.9,0.0,0.0,382.0,843.0,0.0,1,85.0,1
179,179,-0.7519457189449275,-0.8,1.0,0.0,420.0,892.0,0.0,0,298.0,1
180,180,-0.4029371799243682,-0.4,0.0,1.0,446.0,809.0,0.0,1,425.0,0
181,181,0.6026834033778553,0.6,0.0,0.0,467.0,635.0,0.0,1,178.0,1
182,182,-0.27693742420151923,-0.3,1.0,0.0,460.0,847.0,0.0,0,793.0,1
183,183,0.8265570657004983,0.8,1.0,1.0,458.0,514.0,1.0,1,1098.0,1
184,184,-0.3225565694649628,-0.3,0.0,1.0,377.0,945.0,1.0,0,18.0,1
185,185,-0.2104471836670424,-0.2,1.0,0.0,468.0,958.0,0.0,0,384.0,1
186,186,0.8173692114728272,0.8,0.0,0.0,416.0,939.0,0.0,1,15.0,1
187,187,-0.08547397002469415,-0.1,0.0,1.0,486.0,737.0,0.0,1,517.0,0
188,188,-0.6456468815376204,-0.6,0.0,1.0,467.0,826.0,1.0,0,137.0,1
189,189,-0.6341766662007566,-0.6,0.0,1.0,442.0,889.0,1.0,0,169.0,1
190,190,-0.8599283664776485,-0.9,0.0,1.0,383.0,579.0,1.0,0,588.0,1
191,191,0.038124327090761856,0.0,1.0,1.0,421.0,920.0,0.0,0,309.0,0
192,192,-0.4007276612844064,-0.4,1.0,0.0,398.0,901.0,0.0,0,391.0,1
193,193,0.5648338867972301,0.6,1.0,1.0,418.0,891.0,1.0,1,261.0,1
194,194,-0.8637789417325941,-0.9,0.0,1.0,269.0,990.0,1.0,0,461.0,1
195,195,-0.8099566781933482,-0.8,1.0,0.0,407.0,593.0,0.0,0,350.0,1
196,196,0.21774847735455605,0.2,0.0,0.0,306.0,666.0,0.0,1,258.0,1
197,197,-0.27016498623008356,-0.3,1.0,0.0,480.0,667.0,0.0,0,653.0,1
198,198,0.6443007003324245,0.6,0.0,0.0,349.0,561.0,0.0,1,600.0,1
199,199,-0.03684185323068545,-0.0,0.0,1.0,464.0,583.0,0.0,1,343.0,0
200,200,-0.2170967531074488,-0.2,0.0,1.0,471.0,564.0,1.0,0,555.0,1
201,201,0.18609644159407235,0.2,0.0,0.0,367.0,737.0,1.0,0,416.0,0
202,202,-0.8249574341628673,-0.8,0.0,1.0,264.0,846.0,0.0,1,320.0,0
203,203,-0.8865758237920693,-0.9,0.0,1.0,437.0,602.0,1.0,0,391.0,1
204,204,0.18680397310070485,0.2,0.0,0.0,353.0,978.0,0.0,1,69.0,1
205,205,0.14237911146543458,0.1,0.0,0.0,283.0,818.0,1.0,0,9.0,0
206,206,-0.5679562028793688,-0.6,1.0,0.0,477.0,742.0,0.0,0,1561.0,1
207,207,0.48453822265068724,0.5,1.0,1.0,390.0,727.0,1.0,1,253.0,1
208,208,-0.5705282030495176,-0.6,0.0,1.0,309.0,844.0,1.0,0,407.0,1
209,209,0.24109967870789084,0.2,0.0,0.0,369.0,995.0,0.0,1,16.0,1
210,210,0.33328898897940207,0.3,0.0,0.0,404.0,546.0,0.0,1,380.0,1
211,211,-0.1835525397821406,-0.2,1.0,0.0,272.0,931.0,0.0,0,907.0,1
212,212,-0.5030158209523676,-0.5,1.0,0.0,474.0,810.0,0.0,0,246.0,1
213,213,0.4792942078573127,0.5,0.0,0.0,448.0,897.0,0.0,1,175.0,1
214,214,0.5878554474234526,0.6,0.0,0.0,317.0,589.0,0.0,1,214.0,1
215,215,-0.19021409948239887,-0.2,0.0,1.0,447.0,783.0,1.0,0,610.0,1
216,216,-0.07375219513969355,-0.1,0.0,1.0,300.0,680.0,0.0,1,260.0,0
217,217,-0.17137928996058815,-0.2,0.0,1.0,498.0,827.0,1.0,0,175.0,1
218,218,0.5415754458669743,0.5,0.0,0.0,291.0,772.0,0.0,1,277.0,1
219,219,-0.10411148329996645,-0.1,1.0,0.0,436.0,762.0,0.0,0,882.0,1
220,220,-0.8005465084326415,-0.8,0.0,1.0,326.0,615.0,1.0,0,539.0,1
221,221,0.34595134965680374,0.3,0.0,0.0,373.0,921.0,1.0,0,106.0,0
222,222,-0.6540023030072121,-0.7,1.0,0.0,284.0,967.0,0.0,0,559.0,1
223,223,0.3521316987804458,0.4,1.0,1.0,364.0,621.0,1.0,1,1495.0,1
224,224,-0.49704562007053615,-0.5,1.0,0.0,288.0,952.0,0.0,0,410.0,1
225,225,-0.5826654593335003,-0.6,1.0,0.0,480.0,561.0,0.0,0,769.0,1
226,226,-0.10111858059062173,-0.1,0.0,1.0,429.0,746.0,1.0,0,645.0,1
227,227,0.8151463124387331,0.8,1.0,1.0,419.0,879.0,1.0,1,362.0,1
228,228,0.026771870827645095,0.0,0.0,0.0,457.0,988.0,0.0,1,-85.0,1
229,229,-0.28888844818713444,-0.3,0.0,1.0,307.0,655.0,0.0,1,228.0,0
230,230,0.4565730866483996,0.5,0.0,0.0,421.0,987.0,0.0,1,-228.0,1
231,231,0.5497430939725051,0.5,1.0,1.0,446.0,653.0,1.0,1,1361.0,1
232,232,-0.5193338078489984,-0.5,0.0,1.0,296.0,819.0,1.0,0,405.0,1
233,233,-0.1004412120463608,-0.1,1.0,0.0,488.0,592.0,0.0,0,550.0,1
234,234,-0.4326893569192065,-0.4,0.0,1.0,306.0,693.0,0.0,1,561.0,0
235,235,0.7225414154459179,0.7,0.0,0.0,262.0,705.0,0.0,1,193.0,1
236,236,-0.3063985091565402,-0.3,1.0,0.0,322.0,977.0,0.0,0,121.0,1
237,237,0.5956774678194673,0.6,0.0,0.0,308.0,572.0,0.0,1,750.0,1
238,238,-0.5472948920913987,-0.5,1.0,0.0,372.0,593.0,0.0,0,495.0,1
239,239,0.6605422087199709,0.7,1.0,1.0,338.0,509.0,1.0,1,443.0,1
240,240,-0.07597949917450886,-0.1,1.0,0.0,410.0,990.0,0.0,0,520.0,1
241,241,0.6466777295706215,0.6,0.0,0.0,327.0,982.0,0.0,1,381.0,1
242,242,0.260205073571636,0.3,1.0,1.0,477.0,701.0,1.0,1,1102.0,1
243,243,0.4667129583282895,0.5,0.0,0.0,428.0,530.0,0.0,1,442.0,1
244,244,-0.23269876748851803,-0.2,0.0,1.0,397.0,836.0,1.0,0,147.0,1
245,245,-0.4318094525966275,-0.4,0.0,1.0,475.0,790.0,1.0,0,145.0,1
246,246,0.6350367135155311,0.6,0.0,0.0,396.0,728.0,1.0,0,66.0,0
247,247,0.602072202828834,0.6,0.0,0.0,377.0,501.0,0.0,1,292.0,1
248,248,-0.3242501232797108,-0.3,0.0,1.0,496.0,682.0,0.0,1,392.0,0
249,249,-0.24472426595987884,-0.2,1.0,0.0,435.0,623.0,0.0,0,2742.0,1
250,250,0.6749044582341598,0.7,1.0,1.0,306.0,735.0,1.0,1,189.0,1
251,251,0.7964578029250892,0.8,1.0,1.0,428.0,921.0,1.0,1,91.0,1
252,252,-0.6528651690536402,-0.7,0.0,1.0,447.0,811.0,1.0,0,472.0,1
253,253,0.08916745821465288,0.1,0.0,0.0,386.0,982.0,0.0,1,392.0,1
254,254,0.37258430448124036,0.4,0.0,0.0,280.0,801.0,0.0,1,359.0,1
255,255,0.5276411588385143,0.5,0.0,0.0,428.0,791.0,0.0,1,1.0,1
256,256,0.4149135683655497,0.4,1.0,1.0,486.0,548.0,1.0,1,1016.0,1
257,257,0.5211584786530127,0.5,1.0,1.0,495.0,997.0,1.0,1,268.0,1
258,258,-0.09161678333600975,-0.1,0.0,1.0,441.0,888.0,1.0,0,391.0,1
259,259,0.48649889255089984,0.5,1.0,1.0,316.0,577.0,1.0,1,317.0,1
260,260,-0.43886694620256034,-0.4,1.0,0.0,295.0,945.0,0.0,0,340.0,1
261,261,-0.3646788119075498,-0.4,0.0,1.0,433.0,812.0,1.0,0,475.0,1
262,262,0.646777387846137,0.6,0.0,0.0,257.0,759.0,0.0,1,184.0,1
263,263,0.36847315587494134,0.4,1.0,1.0,457.0,591.0,0.0,0,462.0,0
264,264,0.0733549270692867,0.1,1.0,1.0,460.0,813.0,0.0,0,1447.0,0
265,265,0.7716470086568114,0.8,1.0,1.0,486.0,556.0,1.0,1,2298.0,1
266,266,0.09908341114072805,0.1,1.0,1.0,475.0,953.0,1.0,1,2052.0,1
267,267,-0.5742889128665563,-0.6,0.0,1.0,398.0,595.0,1.0,0,277.0,1
268,268,0.37829830881999993,0.4,0.0,0.0,472.0,716.0,0.0,1,292.0,1
269,269,0.21334425387853606,0.2,0.0,0.0,426.0,744.0,0.0,1,170.0,1
270,270,-0.28169049532208823,-0.3,0.0,1.0,475.0,600.0,0.0,1,365.0,0
271,271,0.13342207438081577,0.1,0.0,0.0,460.0,860.0,0.0,1,100.0,1
272,272,0.37539198697126397,0.4,0.0,0.0,377.0,605.0,1.0,0,348.0,0
273,273,0.054517105408135036,0.1,1.0,1.0,346.0,778.0,1.0,1,586.0,1
274,274,0.8244886124493255,0.8,0.0,0.0,494.0,575.0,0.0,1,231.0,1
275,275,-0.5233127607092316,-0.5,1.0,0.0,392.0,687.0,0.0,0,561.0,1
276,276,-0.31836509538178637,-0.3,0.0,1.0,491.0,931.0,0.0,1,28.0,0
277,277,-0.05948561847540912,-0.1,0.0,1.0,289.0,675.0,0.0,1,166.0,0
278,278,0.026161836934856186,0.0,1.0,1.0,444.0,774.0,1.0,1,1922.0,1
279,279,0.15273783326401824,0.2,1.0,1.0,463.0,548.0,1.0,1,789.0,1
280,280,0.033993120387422304,0.0,0.0,0.0,269.0,529.0,0.0,1,942.0,1
281,281,-0.4870485974837548,-0.5,1.0,0.0,336.0,607.0,0.0,0,647.0,1
282,282,0.5649161446838494,0.6,1.0,1.0,417.0,612.0,1.0,1,721.0,1
283,283,-0.6307986132642893,-0.6,1.0,0.0,398.0,807.0,0.0,0,105.0,1
284,284,-0.6955990781768878,-0.7,1.0,0.0,399.0,649.0,0.0,0,912.0,1
285,285,0.5841463949623399,0.6,1.0,1.0,469.0,954.0,1.0,1,407.0,1
286,286,-0.5332486233071314,-0.5,1.0,0.0,275.0,819.0,0.0,0,406.0,1
287,287,-0.43978084578973425,-0.4,0.0,1.0,384.0,806.0,1.0,0,160.0,1
288,288,-0.718839798838528,-0.7,0.0,1.0,407.0,818.0,1.0,0,245.0,1
289,289,-0.7077130862068436,-0.7,0.0,1.0,368.0,950.0,1.0,0,242.0,1
290,290,0.5216006352069543,0.5,0.0,0.0,277.0,819.0,0.0,1,374.0,1
291,291,-0.22364556625318388,-0.2,1.0,0.0,254.0,681.0,1.0,1,415.0,0
292,292,0.4895536914661017,0.5,0.0,0.0,383.0,723.0,0.0,1,434.0,1
293,293,0.3609321512985818,0.4,0.0,0.0,270.0,980.0,0.0,1,210.0,1
294,294,-0.5524416008148756,-0.6,1.0,0.0,286.0,846.0,0.0,0,528.0,1
295,295,0.5295382273446895,0.5,0.0,0.0,348.0,831.0,0.0,1,271.0,1
296,296,0.6850755729886863,0.7,0.0,0.0,496.0,536.0,0.0,1,228.0,1
297,297,-0.4539347482668441,-0.5,1.0,0.0,316.0,956.0,0.0,0,148.0,1
298,298,-0.4314697833276111,-0.4,1.0,0.0,406.0,834.0,0.0,0,610.0,1
299,299,0.0725886231846038,0.1,0.0,0.0,282.0,917.0,0.0,1,171.0,1
300,300,0.13330547083529287,0.1,0.0,0.0,281.0,998.0,0.0,1,81.0,1
301,301,-0.2447410236705817,-0.2,1.0,0.0,254.0,957.0,1.0,1,469.0,0
302,302,0.5222846033370919,0.5,0.0,0.0,436.0,686.0,0.0,1,778.0,1
303,303,-0.5776108929588712,-0.6,0.0,1.0,329.0,612.0,1.0,0,469.0,1
304,304,-0.29586208214320986,-0.3,1.0,0.0,487.0,946.0,1.0,1,697.0,0
305,305,0.8321245345206353,0.8,1.0,1.0,486.0,692.0,1.0,1,282.0,1
306,306,0.6936389528996242,0.7,0.0,0.0,262.0,685.0,0.0,1,123.0,1
307,307,-0.5226905300650201,-0.5,1.0,0.0,474.0,728.0,0.0,0,498.0,1
308,308,-0.26839614017638724,-0.3,1.0,0.0,355.0,584.0,0.0,0,1561.0,1
309,309,0.7642177834241356,0.8,0.0,0.0,299.0,716.0,0.0,1,355.0,1
310,310,0.4651161583177522,0.5,1.0,1.0,305.0,794.0,1.0,1,71.0,1
311,311,-0.33589121960990387,-0.3,0.0,1.0,467.0,941.0,1.0,0,812.0,1
312,312,-0.8706677860052316,-0.9,0.0,1.0,499.0,837.0,0.0,1,-46.0,0
313,313,0.10976253601776242,0.1,1.0,1.0,279.0,683.0,1.0,1,688.0,1
314,314,0.7159453534715264,0.7,1.0,1.0,385.0,718.0,1.0,1,837.0,1
315,315,-0.8897559146229458,-0.9,0.0,1.0,296.0,645.0,1.0,0,359.0,1
316,316,-0.7481079154028507,-0.7,1.0,0.0,453.0,531.0,0.0,0,706.0,1
317,317,-0.7089207945164221,-0.7,0.0,1.0,269.0,775.0,1.0,0,326.0,1
318,318,-0.5260630750497819,-0.5,0.0,1.0,452.0,826.0,0.0,1,22.0,0
319,319,0.3781879246740464,0.4,0.0,0.0,448.0,817.0,0.0,1,215.0,1
320,320,0.2863237078038944,0.3,1.0,1.0,499.0,738.0,1.0,1,1763.0,1
321,321,0.5871205320937073,0.6,0.0,0.0,268.0,647.0,0.0,1,1015.0,1
322,322,0.49781001577903405,0.5,0.0,0.0,499.0,749.0,0.0,1,342.0,1
323,323,-0.3866858061253605,-0.4,1.0,0.0,289.0,886.0,0.0,0,85.0,1
324,324,-0.6770822989943094,-0.7,1.0,0.0,302.0,763.0,0.0,0,475.0,1
325,325,-0.5498580924166219,-0.5,1.0,0.0,270.0,674.0,0.0,0,386.0,1
326,326,-0.5011638382192293,-0.5,0.0,1.0,356.0,812.0,1.0,0,452.0,1
327,327,-0.16183013074432884,-0.2,0.0,1.0,253.0,878.0,1.0,0,219.0,1
328,328,-0.3300453739720085,-0.3,0.0,1.0,466.0,680.0,1.0,0,304.0,1
329,329,0.1135610259425367,0.1,0.0,0.0,426.0,868.0,0.0,1,1016.0,1
330,330,-0.19332656980311802,-0.2,1.0,0.0,362.0,765.0,0.0,0,3653.0,1
331,331,0.10790400991842064,0.1,1.0,1.0,375.0,545.0,1.0,1,980.0,1
332,332,0.5669797589130855,0.6,0.0,0.0,454.0,736.0,0.0,1,130.0,1
333,333,0.6650350953321477,0.7,0.0,0.0,474.0,641.0,0.0,1,255.0,1
334,334,0.5734072540446488,0.6,0.0,0.0,332.0,534.0,0.0,1,344.0,1
335,335,-0.11354371271269215,-0.1,1.0,0.0,447.0,924.0,1.0,1,829.0,0
336,336,0.10745227241510358,0.1,0.0,0.0,465.0,935.0,0.0,1,-80.0,1
337,337,0.13949823433260977,0.1,0.0,0.0,439.0,999.0,0.0,1,572.0,1
338,338,-0.028315737784421646,-0.0,0.0,1.0,294.0,617.0,1.0,0,379.0,1
339,339,0.42947035694681335,0.4,0.0,0.0,303.0,860.0,0.0,1,57.0,1
340,340,0.6551110847100713,0.7,1.0,1.0,326.0,871.0,1.0,1,763.0,1
341,341,-0.3809687720285735,-0.4,0.0,1.0,427.0,605.0,1.0,0,598.0,1
342,342,0.17836900335718842,0.2,0.0,0.0,307.0,670.0,0.0,1,463.0,1
343,343,0.26870012372197605,0.3,0.0,0.0,384.0,760.0,0.0,1,536.0,1
344,344,-0.4932196550213565,-0.5,0.0,1.0,487.0,664.0,1.0,0,159.0,1
345,345,-0.20408739787663677,-0.2,1.0,0.0,366.0,810.0,0.0,0,314.0,1
346,346,-0.06523805991219833,-0.1,0.0,1.0,464.0,995.0,0.0,1,-129.0,0
347,347,0.37040835516999937,0.4,1.0,1.0,353.0,723.0,1.0,1,474.0,1
348,348,0.15892272744969416,0.2,1.0,1.0,483.0,901.0,0.0,0,126.0,0
349,349,0.20683060571094158,0.2,0.0,0.0,291.0,841.0,0.0,1,158.0,1
350,350,0.1971055124166169,0.2,1.0,1.0,399.0,554.0,1.0,1,1657.0,1
351,351,0.7989243656775761,0.8,1.0,1.0,475.0,864.0,1.0,1,291.0,1
352,352,0.33990763098058385,0.3,1.0,1.0,459.0,974.0,1.0,1,67.0,1
353,353,-0.6308144959626241,-0.6,0.0,1.0,495.0,644.0,1.0,0,361.0,1
354,354,-0.16743707608764236,-0.2,1.0,0.0,332.0,607.0,0.0,0,1061.0,1
355,355,-0.5938056000833443,-0.6,1.0,0.0,469.0,731.0,0.0,0,340.0,1
356,356,-0.6394028193231621,-0.6,0.0,1.0,482.0,846.0,1.0,0,492.0,1
357,357,0.5385466529128867,0.5,0.0,0.0,307.0,691.0,0.0,1,412.0,1
358,358,0.22512070294045394,0.2,0.0,0.0,366.0,500.0,0.0,1,274.0,1
359,359,-0.008119817330302315,-0.0,1.0,0.0,492.0,562.0,0.0,0,1596.0,1
360,360,0.2778977572713516,0.3,1.0,1.0,382.0,838.0,1.0,1,610.0,1
361,361,0.6624969156120547,0.7,0.0,0.0,392.0,672.0,0.0,1,216.0,1
362,362,-0.636674019808785,-0.6,1.0,0.0,451.0,612.0,0.0,0,617.0,1
363,363,-0.893668681719927,-0.9,0.0,1.0,313.0,661.0,1.0,0,306.0,1
364,364,-0.18332043121303876,-0.2,1.0,0.0,447.0,566.0,0.0,0,557.0,1
365,365,-0.5930661579258352,-0.6,0.0,1.0,485.0,956.0,0.0,1,-81.0,0
366,366,0.6658645338254151,0.7,1.0,1.0,256.0,861.0,1.0,1,713.0,1
367,367,0.5472697932628628,0.5,0.0,0.0,252.0,928.0,0.0,1,230.0,1
368,368,0.55192900975486,0.6,1.0,1.0,336.0,927.0,1.0,1,427.0,1
369,369,-0.45351323509884406,-0.5,1.0,0.0,296.0,544.0,0.0,0,900.0,1
370,370,0.576038723570938,0.6,1.0,1.0,351.0,842.0,1.0,1,517.0,1
371,371,0.6438643900122399,0.6,0.0,0.0,404.0,997.0,0.0,1,29.0,1
372,372,-0.1697581090484892,-0.2,1.0,0.0,269.0,686.0,0.0,0,845.0,1
373,373,-0.7737162008912295,-0.8,1.0,0.0,452.0,878.0,0.0,0,370.0,1
374,374,-0.14415260739754143,-0.1,1.0,0.0,484.0,779.0,1.0,1,447.0,0
375,375,0.43783390381902676,0.4,0.0,0.0,322.0,545.0,0.0,1,283.0,1
376,376,-0.4605631588076443,-0.5,1.0,0.0,475.0,961.0,0.0,0,64.0,1
377,377,0.15977139404321206,0.2,0.0,0.0,262.0,760.0,0.0,1,128.0,1
378,378,0.6052199587610524,0.6,0.0,0.0,285.0,523.0,0.0,1,372.0,1
379,379,-0.7617954000716347,-0.8,1.0,0.0,429.0,528.0,0.0,0,453.0,1
380,380,-0.37625570041320355,-0.4,0.0,1.0,354.0,944.0,1.0,0,822.0,1
381,381,0.2731677187138807,0.3,1.0,1.0,308.0,603.0,1.0,1,969.0,1
382,382,0.805036825681723,0.8,0.0,0.0,287.0,987.0,0.0,1,-44.0,1
383,383,0.3406699974561994,0.3,0.0,0.0,452.0,723.0,0.0,1,355.0,1
384,384,0.3740100922328452,0.4,1.0,1.0,460.0,783.0,1.0,1,537.0,1
385,385,-0.13245992291907605,-0.1,0.0,1.0,388.0,506.0,0.0,1,416.0,0
386,386,-0.8610143664395118,-0.9,1.0,0.0,453.0,539.0,0.0,0,418.0,1
387,387,0.21654045926579923,0.2,1.0,1.0,434.0,797.0,1.0,1,489.0,1
388,388,-0.5579265643542481,-0.6,0.0,1.0,475.0,848.0,1.0,0,557.0,1
389,389,-0.23640159367378966,-0.2,0.0,1.0,289.0,823.0,1.0,0,278.0,1
390,390,-0.49937973762500926,-0.5,1.0,0.0,476.0,844.0,0.0,0,150.0,1
391,391,-0.3139347457835594,-0.3,1.0,0.0,297.0,648.0,1.0,1,3355.0,0
392,392,-0.6593917858086984,-0.7,0.0,1.0,253.0,996.0,0.0,1,-119.0,0
393,393,0.7515922718744784,0.8,1.0,1.0,406.0,912.0,1.0,1,132.0,1
394,394,-0.17839994497369915,-0.2,1.0,0.0,428.0,769.0,1.0,1,923.0,0
395,395,-0.7731217731402,-0.8,1.0,0.0,278.0,988.0,0.0,0,174.0,1
396,396,0.5921856014307539,0.6,1.0,1.0,354.0,727.0,1.0,1,1679.0,1
397,397,-0.39891484399376353,-0.4,1.0,0.0,301.0,646.0,1.0,1,373.0,0
398,398,-0.023029576884842307,-0.0,0.0,1.0,251.0,749.0,0.0,1,810.0,0
399,399,-0.7951683406864973,-0.8,0.0,1.0,471.0,842.0,1.0,0,227.0,1
400,400,-0.02508394428257399,-0.0,1.0,0.0,439.0,695.0,0.0,0,276.0,1
401,401,-0.316499813068278,-0.3,0.0,1.0,424.0,673.0,0.0,1,493.0,0
402,402,0.6652223839367263,0.7,1.0,1.0,303.0,722.0,1.0,1,715.0,1
403,403,0.25310155442713433,0.3,1.0,1.0,313.0,706.0,1.0,1,481.0,1
404,404,0.19326319832449246,0.2,1.0,1.0,369.0,741.0,1.0,1,290.0,1
405,405,0.34209080549606685,0.3,1.0,1.0,304.0,987.0,0.0,0,229.0,0
406,406,0.5655284688018597,0.6,1.0,1.0,483.0,968.0,1.0,1,189.0,1
407,407,0.7919967022278428,0.8,1.0,1.0,341.0,709.0,1.0,1,590.0,1
408,408,-0.8382814971674581,-0.8,0.0,1.0,390.0,981.0,1.0,0,-21.0,1
409,409,0.8171678709886118,0.8,1.0,1.0,449.0,826.0,1.0,1,125.0,1
410,410,0.8235833976044317,0.8,1.0,1.0,313.0,755.0,1.0,1,292.0,1
411,411,0.29619904344735526,0.3,0.0,0.0,397.0,600.0,0.0,1,333.0,1
412,412,0.7302767374434819,0.7,1.0,1.0,354.0,871.0,0.0,0,-5.0,0
413,413,0.5086602911845878,0.5,0.0,0.0,468.0,500.0,0.0,1,422.0,1
414,414,0.7047402069248135,0.7,0.0,0.0,365.0,796.0,0.0,1,179.0,1
415,415,-0.24428083701982384,-0.2,0.0,1.0,344.0,717.0,1.0,0,149.0,1
416,416,0.16473065830877054,0.2,1.0,1.0,363.0,546.0,1.0,1,2591.0,1
417,417,0.8964249212575169,0.9,1.0,1.0,359.0,602.0,1.0,1,389.0,1
418,418,0.5355309702515684,0.5,0.0,0.0,465.0,817.0,0.0,1,-12.0,1
419,419,-0.23070254928235578,-0.2,1.0,0.0,369.0,756.0,0.0,0,855.0,1
420,420,0.23776788054495757,0.2,1.0,1.0,342.0,503.0,1.0,1,1025.0,1
421,421,-0.8264394686027425,-0.8,0.0,1.0,340.0,534.0,1.0,0,406.0,1
422,422,0.3615304007262573,0.4,0.0,0.0,454.0,837.0,0.0,1,199.0,1
423,423,-0.7641791116101091,-0.8,1.0,0.0,492.0,731.0,0.0,0,627.0,1
424,424,-0.7813906236366113,-0.8,1.0,0.0,438.0,977.0,0.0,0,485.0,1
425,425,-0.40397061850657656,-0.4,1.0,0.0,442.0,885.0,0.0,0,163.0,1
426,426,0.8105297217039095,0.8,1.0,1.0,427.0,708.0,1.0,1,395.0,1
427,427,0.7694330341165533,0.8,0.0,0.0,372.0,834.0,0.0,1,544.0,1
428,428,0.16721415223306801,0.2,0.0,0.0,264.0,725.0,1.0,0,881.0,0
429,429,-0.6644939008272155,-0.7,0.0,1.0,286.0,995.0,1.0,0,89.0,1
430,430,-0.7607229548482781,-0.8,1.0,0.0,449.0,958.0,0.0,0,183.0,1
431,431,-0.21881198776233113,-0.2,1.0,0.0,252.0,599.0,0.0,0,289.0,1
432,432,-0.6818031351818661,-0.7,0.0,1.0,479.0,589.0,1.0,0,762.0,1
433,433,0.6630488910860365,0.7,0.0,0.0,420.0,617.0,0.0,1,363.0,1
434,434,-0.02613072043941944,-0.0,0.0,1.0,386.0,963.0,1.0,0,41.0,1
435,435,0.8438983143465794,0.8,1.0,1.0,442.0,926.0,1.0,1,402.0,1
436,436,0.0011647969284640514,0.0,0.0,0.0,362.0,606.0,1.0,0,522.0,0
437,437,-0.580382925582374,-0.6,0.0,1.0,276.0,718.0,1.0,0,126.0,1
438,438,-0.8930855428156121,-0.9,0.0,1.0,302.0,863.0,0.0,1,65.0,0
439,439,0.13839971091338,0.1,1.0,1.0,460.0,697.0,1.0,1,1193.0,1
440,440,-0.3261843798797809,-0.3,0.0,1.0,423.0,811.0,1.0,0,816.0,1
441,441,-0.6127367243162418,-0.6,1.0,0.0,468.0,758.0,0.0,0,174.0,1
442,442,0.6454270925125886,0.6,0.0,0.0,347.0,706.0,0.0,1,267.0,1
443,443,-0.5256516152837847,-0.5,0.0,1.0,433.0,627.0,1.0,0,520.0,1
444,444,0.6337174988437441,0.6,1.0,1.0,357.0,904.0,1.0,1,389.0,1
445,445,0.5377416488759753,0.5,1.0,1.0,269.0,966.0,1.0,1,885.0,1
446,446,-0.8511417455346453,-0.9,0.0,1.0,322.0,933.0,1.0,0,155.0,1
447,447,0.15839953495337833,0.2,1.0,1.0,406.0,916.0,0.0,0,208.0,0
448,448,-0.3540538855817037,-0.4,0.0,1.0,470.0,800.0,0.0,1,70.0,0
449,449,0.3249016231960101,0.3,1.0,1.0,414.0,978.0,1.0,1,378.0,1
450,450,-0.5661394510182368,-0.6,1.0,0.0,298.0,859.0,0.0,0,483.0,1
451,451,0.8372646754842691,0.8,1.0,1.0,382.0,851.0,1.0,1,337.0,1
452,452,0.03452875837215408,0.0,1.0,1.0,497.0,609.0,1.0,1,604.0,1
453,453,-0.31709974194370794,-0.3,1.0,0.0,351.0,770.0,0.0,0,359.0,1
454,454,0.8558935589055986,0.9,0.0,0.0,291.0,860.0,0.0,1,219.0,1
455,455,-0.4590613626030236,-0.5,0.0,1.0,307.0,997.0,1.0,0,256.0,1
456,456,-0.42740725074322905,-0.4,1.0,0.0,498.0,888.0,0.0,0,334.0,1
457,457,0.7940044538903003,0.8,0.0,0.0,399.0,987.0,0.0,1,324.0,1
458,458,0.06292261966311574,0.1,1.0,1.0,289.0,607.0,1.0,1,594.0,1
459,459,-0.31529275130140544,-0.3,1.0,0.0,361.0,990.0,1.0,1,99.0,0
460,460,-0.6170794129821664,-0.6,1.0,0.0,269.0,721.0,0.0,0,650.0,1
461,461,0.30364025877876333,0.3,0.0,0.0,413.0,641.0,0.0,1,716.0,1
462,462,-0.4112427011806113,-0.4,0.0,1.0,331.0,724.0,0.0,1,355.0,0
463,463,0.49746636241920916,0.5,1.0,1.0,404.0,967.0,1.0,1,489.0,1
464,464,-0.11360346321701675,-0.1,1.0,0.0,320.0,855.0,1.0,1,975.0,0
465,465,-0.4105774685183455,-0.4,0.0,1.0,478.0,811.0,1.0,0,371.0,1
466,466,0.426861092476286,0.4,1.0,1.0,458.0,980.0,0.0,0,492.0,0
467,467,0.8921669289871615,0.9,0.0,0.0,403.0,884.0,0.0,1,23.0,1
468,468,-0.7258378243840903,-0.7,0.0,1.0,481.0,722.0,1.0,0,457.0,1
469,469,-0.2257882199954716,-0.2,1.0,0.0,401.0,531.0,0.0,0,418.0,1
470,470,-0.19268623358018855,-0.2,1.0,0.0,471.0,571.0,0.0,0,568.0,1
471,471,0.8079369256229082,0.8,1.0,1.0,445.0,792.0,1.0,1,433.0,1
472,472,-0.5214802546152244,-0.5,1.0,0.0,424.0,758.0,0.0,0,408.0,1
473,473,-0.6317179904053771,-0.6,0.0,1.0,363.0,839.0,1.0,0,398.0,1
474,474,0.1821153810801418,0.2,0.0,0.0,343.0,722.0,0.0,1,205.0,1
475,475,0.2897545766218873,0.3,1.0,1.0,381.0,590.0,1.0,1,1269.0,1
476,476,-0.3773249015267949,-0.4,0.0,1.0,289.0,878.0,1.0,0,593.0,1
477,477,-0.7563750467468056,-0.8,0.0,1.0,446.0,824.0,1.0,0,150.0,1
478,478,-0.7524364589507899,-0.8,1.0,0.0,408.0,752.0,0.0,0,100.0,1
479,479,0.1748095780673139,0.2,1.0,1.0,479.0,875.0,1.0,1,236.0,1
480,480,0.1720765077023575,0.2,1.0,1.0,466.0,565.0,0.0,0,479.0,0
481,481,0.305736575817095,0.3,0.0,0.0,393.0,846.0,1.0,0,-9.0,0
482,482,0.34535830533908507,0.3,1.0,1.0,267.0,871.0,1.0,1,552.0,1
483,483,0.3263204179207536,0.3,0.0,0.0,414.0,836.0,1.0,0,100.0,0
484,484,-0.11628781913496267,-0.1,0.0,1.0,303.0,781.0,1.0,0,486.0,1
485,485,0.3521243831479378,0.4,0.0,0.0,492.0,519.0,0.0,1,489.0,1
486,486,0.28080156789390365,0.3,0.0,0.0,322.0,925.0,0.0,1,693.0,1
487,487,-0.3809581647168321,-0.4,0.0,1.0,495.0,948.0,0.0,1,7.0,0
488,488,-0.44121377208781587,-0.4,1.0,0.0,351.0,572.0,0.0,0,1347.0,1
489,489,0.7879885639300023,0.8,1.0,1.0,355.0,836.0,1.0,1,329.0,1
490,490,0.6403110858144826,0.6,1.0,1.0,250.0,628.0,1.0,1,572.0,1
491,491,-0.743422411353592,-0.7,1.0,0.0,368.0,520.0,0.0,0,712.0,1
492,492,0.5696958809997604,0.6,1.0,1.0,469.0,717.0,1.0,1,924.0,1
493,493,-0.5864027386048751,-0.6,0.0,1.0,290.0,999.0,1.0,0,111.0,1
494,494,-0.1748452991669116,-0.2,1.0,0.0,254.0,894.0,0.0,0,352.0,1
495,495,-0.5749043107818658,-0.6,1.0,0.0,388.0,815.0,0.0,0,487.0,1
496,496,0.8044335458305535,0.8,0.0,0.0,358.0,678.0,0.0,1,204.0,1
497,497,0.6024605218392535,0.6,0.0,0.0,313.0,835.0,0.0,1,-68.0,1
498,498,-0.2952824204327906,-0.3,1.0,0.0,465.0,867.0,0.0,0,778.0,1
499,499,-0.47985113236792654,-0.5,1.0,0.0,429.0,729.0,0.0,0,1512.0,1
500,500,0.23253008494771643,0.2,0.0,0.0,300.0,751.0,0.0,1,389.0,1
501,501,-0.5901004550730728,-0.6,1.0,0.0,394.0,994.0,0.0,0,482.0,1
502,502,-0.3322045765513254,-0.3,0.0,1.0,270.0,821.0,1.0,0,439.0,1
503,503,0.6091780748273538,0.6,1.0,1.0,459.0,641.0,1.0,1,360.0,1
504,504,-0.0932399043445935,-0.1,0.0,1.0,404.0,514.0,0.0,1,442.0,0
505,505,-0.491259609053968,-0.5,1.0,0.0,252.0,767.0,0.0,0,981.0,1
506,506,-0.40581958260517265,-0.4,0.0,1.0,410.0,500.0,1.0,0,550.0,1
507,507,-0.212181027357768,-0.2,0.0,1.0,299.0,795.0,0.0,1,256.0,0
508,508,-0.04475079644513824,-0.0,1.0,0.0,429.0,518.0,1.0,1,783.0,0
509,509,-0.2766958724898041,-0.3,1.0,0.0,288.0,851.0,0.0,0,171.0,1
510,510,0.3792700341249865,0.4,0.0,0.0,400.0,722.0,0.0,1,148.0,1
511,511,-0.8055575768816139,-0.8,0.0,1.0,430.0,808.0,1.0,0,202.0,1
512,512,-0.283364411248637,-0.3,1.0,0.0,279.0,863.0,0.0,0,218.0,1
513,513,0.3078172776656737,0.3,0.0,0.0,444.0,842.0,0.0,1,294.0,1
514,514,0.6387476327071328,0.6,1.0,1.0,476.0,714.0,1.0,1,480.0,1
515,515,0.04779219583373073,0.0,0.0,0.0,440.0,584.0,0.0,1,586.0,1
516,516,0.46701030731530857,0.5,1.0,1.0,263.0,611.0,1.0,1,626.0,1
517,517,0.316379540751628,0.3,1.0,1.0,471.0,604.0,1.0,1,405.0,1
518,518,-0.5696361665976308,-0.6,0.0,1.0,367.0,790.0,1.0,0,453.0,1
519,519,-0.8323638430019954,-0.8,0.0,1.0,371.0,868.0,1.0,0,221.0,1
520,520,0.6456694110277829,0.6,0.0,0.0,306.0,696.0,0.0,1,138.0,1
521,521,0.12169787053750702,0.1,0.0,0.0,434.0,948.0,1.0,0,18.0,0
522,522,0.2809207340778065,0.3,0.0,0.0,335.0,966.0,0.0,1,519.0,1
523,523,0.578918724483494,0.6,0.0,0.0,374.0,651.0,0.0,1,285.0,1
524,524,0.19587725668401001,0.2,0.0,0.0,266.0,510.0,1.0,0,684.0,0
525,525,0.3029426670695682,0.3,0.0,0.0,445.0,563.0,0.0,1,462.0,1
526,526,-0.5425080712827266,-0.5,0.0,1.0,298.0,943.0,1.0,0,209.0,1
527,527,0.889153319170015,0.9,0.0,0.0,490.0,750.0,0.0,1,370.0,1
528,528,-0.8963233266746928,-0.9,1.0,0.0,378.0,607.0,0.0,0,475.0,1
529,529,0.28873484415756023,0.3,1.0,1.0,300.0,839.0,1.0,1,371.0,1
530,530,-0.4041948813037239,-0.4,1.0,0.0,367.0,592.0,0.0,0,391.0,1
531,531,-0.3093778255056161,-0.3,0.0,1.0,447.0,756.0,1.0,0,537.0,1
532,532,0.16826426147294715,0.2,0.0,0.0,426.0,628.0,0.0,1,466.0,1
533,533,0.12447884141466325,0.1,1.0,1.0,285.0,847.0,1.0,1,368.0,1
534,534,-0.731549746491102,-0.7,1.0,0.0,482.0,787.0,0.0,0,431.0,1
535,535,-0.08123161627152875,-0.1,1.0,0.0,455.0,949.0,0.0,0,676.0,1
536,536,0.19944920238948527,0.2,0.0,0.0,453.0,648.0,0.0,1,239.0,1
537,537,-0.14192928383968995,-0.1,0.0,1.0,391.0,839.0,1.0,0,220.0,1
538,538,-0.75652230419549,-0.8,1.0,0.0,422.0,674.0,0.0,0,844.0,1
539,539,0.4769657241401265,0.5,0.0,0.0,349.0,811.0,0.0,1,230.0,1
540,540,-0.35837455315997646,-0.4,1.0,0.0,490.0,540.0,0.0,0,790.0,1
541,541,-0.2543819756348501,-0.3,0.0,1.0,386.0,942.0,1.0,0,992.0,1
542,542,-0.07658128555685051,-0.1,1.0,0.0,322.0,539.0,0.0,0,759.0,1
543,543,0.5153866561416048,0.5,0.0,0.0,261.0,694.0,0.0,1,635.0,1
544,544,-0.43452357795268587,-0.4,0.0,1.0,251.0,580.0,1.0,0,819.0,1
545,545,-0.45236971128415293,-0.5,1.0,0.0,322.0,904.0,0.0,0,694.0,1
546,546,-0.7600448832116692,-0.8,1.0,0.0,358.0,896.0,0.0,0,196.0,1
547,547,-0.7320636858073766,-0.7,1.0,0.0,371.0,547.0,0.0,0,582.0,1
548,548,0.8107266390717814,0.8,1.0,1.0,345.0,937.0,1.0,1,338.0,1
549,549,-0.6457122600436824,-0.6,0.0,1.0,449.0,520.0,1.0,0,681.0,1
550,550,0.688376748108639,0.7,1.0,1.0,266.0,901.0,1.0,1,413.0,1
551,551,0.19712462774032147,0.2,0.0,0.0,410.0,558.0,0.0,1,322.0,1
552,552,-0.1909977823129605,-0.2,1.0,0.0,454.0,887.0,0.0,0,389.0,1
553,553,-0.14030514793522653,-0.1,1.0,0.0,279.0,856.0,1.0,1,675.0,0
554,554,0.3682256201190931,0.4,0.0,0.0,298.0,689.0,0.0,1,253.0,1
555,555,-0.8736112852692878,-0.9,1.0,0.0,367.0,739.0,0.0,0,174.0,1
556,556,-0.7787041310496403,-0.8,1.0,0.0,377.0,795.0,0.0,0,278.0,1
557,557,0.2134229036386147,0.2,1.0,1.0,288.0,641.0,1.0,1,1021.0,1
558,558,0.8266911753360907,0.8,0.0,0.0,411.0,811.0,0.0,1,268.0,1
559,559,0.1482410362165948,0.1,0.0,0.0,499.0,849.0,0.0,1,742.0,1
560,560,0.8540258329247102,0.9,1.0,1.0,479.0,581.0,1.0,1,500.0,1
561,561,0.23863642281847508,0.2,1.0,1.0,299.0,726.0,1.0,1,655.0,1
562,562,0.3628596588735086,0.4,0.0,0.0,328.0,907.0,0.0,1,115.0,1
563,563,0.010877538048230329,0.0,0.0,0.0,309.0,846.0,1.0,0,535.0,0
564,564,-0.20106595680455885,-0.2,1.0,0.0,335.0,518.0,0.0,0,477.0,1
565,565,0.3047573952652666,0.3,1.0,1.0,436.0,613.0,1.0,1,371.0,1
566,566,-0.8683555811618147,-0.9,1.0,0.0,284.0,891.0,0.0,0,195.0,1
567,567,-0.7794319942941988,-0.8,0.0,1.0,262.0,966.0,0.0,1,-168.0,0
568,568,0.3856875647334276,0.4,1.0,1.0,267.0,554.0,1.0,1,309.0,1
569,569,-0.5544540513304134,-0.6,0.0,1.0,272.0,617.0,1.0,0,351.0,1
570,570,-0.08789826393537425,-0.1,1.0,0.0,477.0,795.0,0.0,0,2048.0,1
571,571,0.8050059228842902,0.8,1.0,1.0,485.0,840.0,1.0,1,85.0,1
572,572,0.558058593243138,0.6,0.0,0.0,497.0,608.0,0.0,1,335.0,1
573,573,0.5758945743318243,0.6,1.0,1.0,491.0,756.0,1.0,1,863.0,1
574,574,0.31592417711344056,0.3,0.0,0.0,434.0,506.0,0.0,1,360.0,1
575,575,0.8298011621150149,0.8,1.0,1.0,453.0,708.0,1.0,1,249.0,1
576,576,0.2500869877453088,0.3,0.0,0.0,372.0,774.0,0.0,1,1324.0,1
577,577,0.00887025869643221,0.0,1.0,1.0,466.0,622.0,0.0,0,752.0,0
578,578,0.23731297596707235,0.2,1.0,1.0,485.0,749.0,1.0,1,196.0,1
579,579,0.0690121325545614,0.1,1.0,1.0,292.0,782.0,1.0,1,1026.0,1
580,580,-0.2651986863422552,-0.3,1.0,0.0,341.0,690.0,1.0,1,699.0,0
581,581,-0.46176709453915604,-0.5,1.0,0.0,477.0,982.0,0.0,0,941.0,1
582,582,0.7918388063111564,0.8,0.0,0.0,433.0,691.0,0.0,1,326.0,1
583,583,-0.17586147519731177,-0.2,0.0,1.0,405.0,620.0,1.0,0,865.0,1
584,584,-0.7128184928417683,-0.7,0.0,1.0,383.0,944.0,1.0,0,93.0,1
585,585,0.5324460926026325,0.5,0.0,0.0,357.0,609.0,0.0,1,234.0,1
586,586,0.20277870066884074,0.2,1.0,1.0,283.0,627.0,1.0,1,960.0,1
587,587,0.3771224518773456,0.4,0.0,0.0,495.0,604.0,0.0,1,411.0,1
588,588,-0.16391465530249894,-0.2,1.0,0.0,294.0,970.0,0.0,0,76.0,1
589,589,0.11653061449903535,0.1,1.0,1.0,407.0,883.0,1.0,1,780.0,1
590,590,-0.12407152341216243,-0.1,0.0,1.0,300.0,921.0,0.0,1,309.0,0
591,591,0.8264094724366545,0.8,0.0,0.0,390.0,577.0,0.0,1,263.0,1
592,592,0.21485324186862365,0.2,0.0,0.0,376.0,831.0,1.0,0,523.0,0
593,593,0.6326170794205527,0.6,1.0,1.0,472.0,944.0,1.0,1,284.0,1
594,594,0.6226982414720813,0.6,0.0,0.0,314.0,982.0,1.0,0,-56.0,0
595,595,0.7261564072984029,0.7,0.0,0.0,337.0,826.0,1.0,0,57.0,0
596,596,0.0787758476943422,0.1,0.0,0.0,263.0,937.0,0.0,1,760.0,1
597,597,0.32051185871499543,0.3,1.0,1.0,443.0,759.0,0.0,0,328.0,0
598,598,-0.1679168479382256,-0.2,0.0,1.0,487.0,760.0,1.0,0,683.0,1
599,599,-0.6241121807237193,-0.6,0.0,1.0,457.0,839.0,1.0,0,274.0,1
600,600,-0.12193404654034568,-0.1,0.0,1.0,257.0,727.0,1.0,0,236.0,1
601,601,0.6530717500413669,0.7,1.0,1.0,482.0,552.0,1.0,1,576.0,1
602,602,0.515342199687857,0.5,0.0,0.0,443.0,752.0,0.0,1,255.0,1
603,603,-0.07333363475959054,-0.1,0.0,1.0,403.0,956.0,0.0,1,201.0,0
604,604,0.34891532795523805,0.3,0.0,0.0,496.0,834.0,1.0,0,180.0,0
605,605,-0.35933611766288476,-0.4,1.0,0.0,421.0,875.0,0.0,0,944.0,1
606,606,0.46057362908663235,0.5,0.0,0.0,265.0,816.0,1.0,0,-1.0,0
607,607,-0.5042000804468678,-0.5,0.0,1.0,459.0,933.0,0.0,1,-112.0,0
608,608,0.36826220153944733,0.4,1.0,1.0,358.0,651.0,1.0,1,1701.0,1
609,609,-0.15027829903016332,-0.2,1.0,0.0,489.0,592.0,1.0,1,459.0,0
610,610,-0.8607702008930256,-0.9,0.0,1.0,293.0,563.0,1.0,0,434.0,1
611,611,0.21253931827223427,0.2,0.0,0.0,412.0,695.0,1.0,0,453.0,0
612,612,-0.701651029008812,-0.7,1.0,0.0,279.0,753.0,0.0,0,208.0,1
613,613,0.5701689551950154,0.6,1.0,1.0,498.0,550.0,1.0,1,652.0,1
614,614,-0.3736760700249584,-0.4,0.0,1.0,357.0,894.0,1.0,0,229.0,1
615,615,-0.6322505895654194,-0.6,1.0,0.0,399.0,950.0,0.0,0,41.0,1
616,616,-0.34216020444227824,-0.3,1.0,0.0,351.0,902.0,0.0,0,87.0,1
617,617,0.32565241321524285,0.3,0.0,0.0,412.0,934.0,0.0,1,264.0,1
618,618,0.008346653481345778,0.0,1.0,1.0,303.0,762.0,1.0,1,1605.0,1
619,619,0.4124780803343683,0.4,0.0,0.0,283.0,945.0,0.0,1,312.0,1
620,620,0.45974248993169053,0.5,1.0,1.0,377.0,547.0,1.0,1,496.0,1
621,621,0.4592870525920695,0.5,1.0,1.0,303.0,834.0,1.0,1,673.0,1
622,622,-0.7274321153993808,-0.7,0.0,1.0,272.0,594.0,1.0,0,394.0,1
623,623,-0.5583988450579581,-0.6,1.0,0.0,288.0,529.0,0.0,0,323.0,1
624,624,0.009182188079967846,0.0,1.0,1.0,356.0,574.0,0.0,0,1750.0,0
625,625,0.5383570986848557,0.5,1.0,1.0,421.0,534.0,1.0,1,1205.0,1
626,626,0.8920044050558987,0.9,1.0,1.0,450.0,717.0,1.0,1,243.0,1
627,627,-0.44971014165870865,-0.4,0.0,1.0,403.0,626.0,1.0,0,681.0,1
628,628,-0.17306123542981966,-0.2,1.0,0.0,309.0,584.0,0.0,0,1027.0,1
629,629,0.8614119352746986,0.9,1.0,1.0,468.0,911.0,1.0,1,161.0,1
630,630,-0.284018993172818,-0.3,1.0,0.0,384.0,933.0,0.0,0,503.0,1
631,631,0.384648777610893,0.4,0.0,0.0,283.0,599.0,0.0,1,638.0,1
632,632,-0.8189320234754093,-0.8,0.0,1.0,386.0,857.0,1.0,0,727.0,1
633,633,-0.13111379418950997,-0.1,0.0,1.0,320.0,663.0,0.0,1,927.0,0
634,634,-0.44716406003476855,-0.4,1.0,0.0,380.0,686.0,0.0,0,494.0,1
635,635,0.13553488469913677,0.1,1.0,1.0,471.0,754.0,1.0,1,765.0,1
636,636,0.12777731608055165,0.1,0.0,0.0,254.0,997.0,0.0,1,-31.0,1
637,637,0.1725489625999389,0.2,1.0,1.0,412.0,553.0,1.0,1,665.0,1
638,638,-0.10273758359031682,-0.1,1.0,0.0,325.0,734.0,0.0,0,961.0,1
639,639,-0.37165861694059754,-0.4,0.0,1.0,466.0,887.0,0.0,1,527.0,0
640,640,-0.343782713547678,-0.3,1.0,0.0,356.0,635.0,0.0,0,509.0,1
641,641,-0.731409054759967,-0.7,1.0,0.0,460.0,938.0,0.0,0,312.0,1
642,642,0.2739387477186407,0.3,0.0,0.0,283.0,896.0,1.0,0,11.0,0
643,643,0.8721532114222023,0.9,1.0,1.0,302.0,559.0,1.0,1,679.0,1
644,644,0.21274022515450886,0.2,0.0,0.0,357.0,885.0,1.0,0,58.0,0
645,645,-0.8187204286070504,-0.8,0.0,1.0,290.0,608.0,1.0,0,412.0,1
646,646,0.573220870841539,0.6,0.0,0.0,334.0,818.0,0.0,1,-12.0,1
647,647,0.5167752383190608,0.5,0.0,0.0,460.0,657.0,0.0,1,323.0,1
648,648,-0.48743629968940216,-0.5,1.0,0.0,460.0,546.0,0.0,0,334.0,1
649,649,0.29555571036649353,0.3,0.0,0.0,295.0,656.0,0.0,1,349.0,1
650,650,-0.22294368634815065,-0.2,1.0,0.0,395.0,534.0,0.0,0,3191.0,1
651,651,-0.2708563373037911,-0.3,1.0,0.0,369.0,512.0,0.0,0,759.0,1
652,652,0.15902727686689133,0.2,0.0,0.0,292.0,623.0,0.0,1,245.0,1
653,653,0.7605010104369127,0.8,0.0,0.0,300.0,867.0,0.0,1,233.0,1
654,654,-0.8991889207451138,-0.9,1.0,0.0,322.0,502.0,0.0,0,566.0,1
655,655,-0.28771153464245847,-0.3,1.0,0.0,455.0,694.0,0.0,0,821.0,1
656,656,-0.8946668966593052,-0.9,0.0,1.0,424.0,906.0,1.0,0,330.0,1
657,657,0.10477157367541612,0.1,0.0,0.0,357.0,690.0,0.0,1,443.0,1
658,658,0.7129495359727335,0.7,0.0,0.0,393.0,724.0,0.0,1,203.0,1
659,659,-0.8625586460831545,-0.9,1.0,0.0,346.0,939.0,0.0,0,205.0,1
660,660,0.1697351940249746,0.2,0.0,0.0,406.0,950.0,0.0,1,534.0,1
661,661,0.5975118155231957,0.6,1.0,1.0,263.0,622.0,1.0,1,485.0,1
662,662,0.5500880539875267,0.6,1.0,1.0,389.0,793.0,1.0,1,48.0,1
663,663,0.30052522493965206,0.3,0.0,0.0,432.0,516.0,0.0,1,342.0,1
664,664,0.04228378473370609,0.0,1.0,1.0,302.0,774.0,0.0,0,2334.0,0
665,665,-0.6777928961030221,-0.7,1.0,0.0,337.0,588.0,0.0,0,575.0,1
666,666,0.5685049465450772,0.6,0.0,0.0,435.0,693.0,0.0,1,992.0,1
667,667,-0.46168048686783386,-0.5,0.0,1.0,403.0,789.0,0.0,1,-82.0,0
668,668,0.3951961256934192,0.4,0.0,0.0,381.0,506.0,0.0,1,563.0,1
669,669,0.10876181580628852,0.1,1.0,1.0,445.0,695.0,1.0,1,440.0,1
670,670,-0.8111964192032591,-0.8,1.0,0.0,347.0,962.0,0.0,0,281.0,1
671,671,0.012454116914467184,0.0,1.0,1.0,371.0,711.0,0.0,0,808.0,0
672,672,0.5657204090822278,0.6,1.0,1.0,356.0,762.0,1.0,1,202.0,1
673,673,0.27088247432005697,0.3,1.0,1.0,292.0,556.0,1.0,1,832.0,1
674,674,-0.8037577684615106,-0.8,1.0,0.0,492.0,693.0,0.0,0,385.0,1
675,675,-0.5583460924417321,-0.6,1.0,0.0,367.0,858.0,0.0,0,735.0,1
676,676,-0.5464646754984239,-0.5,0.0,1.0,325.0,870.0,0.0,1,245.0,0
677,677,-0.634938668408365,-0.6,0.0,1.0,479.0,510.0,1.0,0,641.0,1
678,678,0.254052010273211,0.3,1.0,1.0,259.0,838.0,1.0,1,873.0,1
679,679,-0.10551020429121971,-0.1,0.0,1.0,467.0,653.0,0.0,1,830.0,0
680,680,0.12741265609867158,0.1,0.0,0.0,385.0,808.0,0.0,1,197.0,1
681,681,-0.8050253319032462,-0.8,1.0,0.0,291.0,602.0,0.0,0,607.0,1
682,682,0.8686149240357773,0.9,0.0,0.0,449.0,679.0,0.0,1,162.0,1
683,683,0.5935178321697269,0.6,1.0,1.0,402.0,801.0,1.0,1,227.0,1
684,684,-0.35081795101266033,-0.4,0.0,1.0,491.0,990.0,0.0,1,-91.0,0
685,685,-0.40109935414476533,-0.4,0.0,1.0,486.0,635.0,1.0,0,159.0,1
686,686,-0.1824785213280411,-0.2,1.0,0.0,309.0,699.0,0.0,0,602.0,1
687,687,-0.5370693398792844,-0.5,0.0,1.0,408.0,799.0,0.0,1,113.0,0
688,688,-0.8999604949327761,-0.9,1.0,0.0,322.0,998.0,1.0,1,100.0,0
689,689,0.15441423651854402,0.2,0.0,0.0,446.0,659.0,0.0,1,305.0,1
690,690,-0.07680053208185689,-0.1,1.0,0.0,327.0,960.0,1.0,1,663.0,0
691,691,0.047433868310129745,0.0,0.0,0.0,354.0,613.0,0.0,1,1353.0,1
692,692,-0.2868325690157445,-0.3,1.0,0.0,419.0,828.0,0.0,0,653.0,1
693,693,-0.25972768360578846,-0.3,1.0,0.0,314.0,935.0,1.0,1,661.0,0
694,694,0.8311259845689037,0.8,1.0,1.0,353.0,875.0,1.0,1,162.0,1
695,695,0.763800644705399,0.8,1.0,1.0,492.0,666.0,1.0,1,402.0,1
696,696,-0.7358513701438961,-0.7,1.0,0.0,464.0,801.0,0.0,0,525.0,1
697,697,-0.2580559711462658,-0.3,0.0,1.0,451.0,634.0,1.0,0,695.0,1
698,698,0.8598561124180096,0.9,0.0,0.0,344.0,827.0,0.0,1,239.0,1
699,699,-0.7080084655764223,-0.7,1.0,0.0,297.0,912.0,0.0,0,401.0,1
700,700,0.47402795061584413,0.5,1.0,1.0,388.0,839.0,1.0,1,133.0,1
701,701,-0.772141292155873,-0.8,1.0,0.0,359.0,670.0,0.0,0,821.0,1
702,702,0.39559775775071426,0.4,1.0,1.0,272.0,961.0,1.0,1,387.0,1
703,703,0.5334274758581802,0.5,0.0,0.0,451.0,624.0,0.0,1,585.0,1
704,704,0.05862471815235237,0.1,0.0,0.0,436.0,575.0,0.0,1,389.0,1
705,705,-0.14344321018001427,-0.1,1.0,0.0,395.0,762.0,0.0,0,453.0,1
706,706,0.007093932880093301,0.0,1.0,1.0,312.0,673.0,0.0,0,755.0,0
707,707,0.6623566743077064,0.7,1.0,1.0,358.0,730.0,1.0,1,392.0,1
708,708,-0.373437144877825,-0.4,0.0,1.0,491.0,892.0,1.0,0,207.0,1
709,709,-0.05702871467895032,-0.1,1.0,0.0,476.0,503.0,0.0,0,1121.0,1
710,710,-0.8017903023899804,-0.8,1.0,0.0,254.0,588.0,0.0,0,418.0,1
711,711,-0.12904227945675684,-0.1,0.0,1.0,404.0,670.0,1.0,0,356.0,1
712,712,-0.036117798721748695,-0.0,0.0,1.0,406.0,557.0,0.0,1,797.0,0
713,713,0.8671328537076705,0.9,1.0,1.0,294.0,926.0,1.0,1,-50.0,1
714,714,-0.2921605847148261,-0.3,1.0,0.0,487.0,796.0,0.0,0,677.0,1
715,715,0.35391717059709527,0.4,0.0,0.0,488.0,748.0,0.0,1,684.0,1
716,716,-0.8784120313372871,-0.9,1.0,0.0,441.0,738.0,0.0,0,371.0,1
717,717,0.06352178715273049,0.1,1.0,1.0,357.0,995.0,0.0,0,68.0,0
718,718,0.2667764327240779,0.3,0.0,0.0,467.0,843.0,0.0,1,120.0,1
719,719,-0.8196875302770411,-0.8,1.0,0.0,250.0,631.0,0.0,0,499.0,1
720,720,-0.1678328038638902,-0.2,1.0,0.0,430.0,870.0,0.0,0,160.0,1
721,721,0.20314579051000192,0.2,1.0,1.0,365.0,951.0,1.0,1,634.0,1
722,722,0.40160925641526724,0.4,1.0,1.0,492.0,780.0,1.0,1,628.0,1
723,723,-0.07559551152722599,-0.1,1.0,0.0,284.0,779.0,0.0,0,407.0,1
724,724,0.5630658417581637,0.6,0.0,0.0,297.0,722.0,0.0,1,481.0,1
725,725,0.38825479085464,0.4,1.0,1.0,332.0,557.0,1.0,1,981.0,1
726,726,-0.0996632679410332,-0.1,0.0,1.0,475.0,989.0,1.0,0,296.0,1
727,727,-0.8558728060085466,-0.9,1.0,0.0,450.0,640.0,0.0,0,350.0,1
728,728,0.1553892504288058,0.2,0.0,0.0,296.0,998.0,0.0,1,26.0,1
729,729,-0.2273873982976765,-0.2,1.0,0.0,358.0,791.0,0.0,0,431.0,1
730,730,-0.4242097512099907,-0.4,0.0,1.0,406.0,773.0,1.0,0,311.0,1
731,731,0.6195502867593173,0.6,1.0,1.0,268.0,842.0,1.0,1,420.0,1
732,732,0.5447842044788339,0.5,0.0,0.0,469.0,700.0,0.0,1,971.0,1
733,733,0.5836609142761048,0.6,1.0,1.0,252.0,577.0,1.0,1,601.0,1
734,734,-0.8234543285060765,-0.8,0.0,1.0,489.0,606.0,1.0,0,375.0,1
735,735,0.655378253230808,0.7,1.0,1.0,426.0,592.0,1.0,1,312.0,1
736,736,0.46405256942971784,0.5,0.0,0.0,455.0,894.0,0.0,1,1111.0,1
737,737,0.4852432474530787,0.5,0.0,0.0,329.0,943.0,0.0,1,-132.0,1
738,738,-0.002188547609711766,-0.0,1.0,0.0,363.0,699.0,0.0,0,1528.0,1
739,739,0.8232458079012951,0.8,1.0,1.0,358.0,717.0,1.0,1,615.0,1
740,740,0.3958398441901424,0.4,1.0,1.0,447.0,792.0,1.0,1,1191.0,1
741,741,-0.8465918096788378,-0.8,1.0,0.0,278.0,798.0,0.0,0,864.0,1
742,742,-0.5803717649351117,-0.6,0.0,1.0,346.0,967.0,1.0,0,347.0,1
743,743,-0.7171792637927932,-0.7,1.0,0.0,469.0,825.0,1.0,1,366.0,0
744,744,-0.13707056274300344,-0.1,0.0,1.0,341.0,721.0,0.0,1,708.0,0
745,745,-0.40985033730995296,-0.4,0.0,1.0,283.0,814.0,1.0,0,693.0,1
746,746,0.6174413550957943,0.6,0.0,0.0,355.0,745.0,0.0,1,320.0,1
747,747,0.44032755508552823,0.4,0.0,0.0,324.0,792.0,0.0,1,604.0,1
748,748,-0.11744271384447869,-0.1,0.0,1.0,290.0,926.0,1.0,0,474.0,1
749,749,-0.7953072124867282,-0.8,0.0,1.0,405.0,887.0,1.0,0,288.0,1
750,750,-0.7297483929990171,-0.7,0.0,1.0,417.0,917.0,0.0,1,-14.0,0
751,751,-0.07966785003642973,-0.1,0.0,1.0,436.0,913.0,0.0,1,21.0,0
752,752,0.3348483225805873,0.3,0.0,0.0,256.0,976.0,0.0,1,258.0,1
753,753,0.8478422834143401,0.8,1.0,1.0,261.0,789.0,1.0,1,380.0,1
754,754,0.5556428787196138,0.6,1.0,1.0,473.0,542.0,1.0,1,1055.0,1
755,755,-0.817097070978369,-0.8,0.0,1.0,338.0,592.0,1.0,0,340.0,1
756,756,-0.3091866406647087,-0.3,0.0,1.0,441.0,567.0,1.0,0,522.0,1
757,757,0.5563816839480055,0.6,0.0,0.0,443.0,887.0,0.0,1,240.0,1
758,758,0.8112703463472347,0.8,1.0,1.0,474.0,648.0,1.0,1,498.0,1
759,759,-0.858981258925959,-0.9,0.0,1.0,460.0,997.0,0.0,1,-17.0,0
760,760,-0.6213962926580754,-0.6,1.0,0.0,479.0,975.0,0.0,0,126.0,1
761,761,-0.060914958646473005,-0.1,1.0,0.0,362.0,723.0,0.0,0,375.0,1
762,762,0.4538331141052866,0.5,1.0,1.0,453.0,740.0,1.0,1,257.0,1
763,763,-0.623730354256895,-0.6,1.0,0.0,371.0,610.0,0.0,0,559.0,1
764,764,0.5804466401355407,0.6,1.0,1.0,474.0,500.0,1.0,1,626.0,1
765,765,0.003822282493571749,0.0,1.0,1.0,426.0,877.0,1.0,1,1127.0,1
766,766,0.5525212178821503,0.6,1.0,1.0,329.0,853.0,1.0,1,658.0,1
767,767,-0.825176555839845,-0.8,1.0,0.0,483.0,743.0,0.0,0,464.0,1
768,768,0.4808998615114185,0.5,0.0,0.0,417.0,670.0,0.0,1,283.0,1
769,769,0.16900155334441902,0.2,0.0,0.0,253.0,854.0,0.0,1,523.0,1
770,770,-0.25527235507799007,-0.3,1.0,0.0,350.0,827.0,0.0,0,293.0,1
771,771,-0.6463463324703448,-0.6,1.0,0.0,428.0,768.0,0.0,0,684.0,1
772,772,0.19852811194699627,0.2,0.0,0.0,457.0,623.0,1.0,0,400.0,0
773,773,-0.7305095875950406,-0.7,1.0,0.0,447.0,672.0,0.0,0,571.0,1
774,774,0.11627139642206685,0.1,0.0,0.0,351.0,886.0,0.0,1,323.0,1
775,775,0.5192426048399449,0.5,1.0,1.0,383.0,743.0,1.0,1,164.0,1
776,776,-0.2686110893759611,-0.3,0.0,1.0,314.0,796.0,1.0,0,420.0,1
777,777,0.27572390352471643,0.3,0.0,0.0,398.0,640.0,0.0,1,342.0,1
778,778,0.46974081335147855,0.5,0.0,0.0,343.0,695.0,0.0,1,342.0,1
779,779,0.30628666910939206,0.3,1.0,1.0,485.0,573.0,1.0,1,712.0,1
780,780,0.6291423650518445,0.6,0.0,0.0,266.0,600.0,0.0,1,224.0,1
781,781,0.0888267621645582,0.1,1.0,1.0,271.0,640.0,0.0,0,2349.0,0
782,782,-0.7644374742977307,-0.8,0.0,1.0,433.0,852.0,0.0,1,145.0,0
783,783,0.48396101972330763,0.5,1.0,1.0,370.0,597.0,1.0,1,563.0,1
784,784,0.22520249273244952,0.2,1.0,1.0,457.0,733.0,1.0,1,1540.0,1
785,785,0.7746865421960504,0.8,1.0,1.0,492.0,748.0,1.0,1,440.0,1
786,786,-0.35835988923668227,-0.4,0.0,1.0,353.0,662.0,1.0,0,615.0,1
787,787,-0.44072927295933495,-0.4,0.0,1.0,440.0,749.0,0.0,1,1061.0,0
788,788,-0.4987420352547705,-0.5,1.0,0.0,349.0,578.0,0.0,0,763.0,1
789,789,0.22226286672473228,0.2,0.0,0.0,422.0,974.0,1.0,0,264.0,0
790,790,0.6978833412693229,0.7,1.0,1.0,422.0,740.0,1.0,1,248.0,1
791,791,0.8626386285226656,0.9,0.0,0.0,279.0,771.0,0.0,1,210.0,1
792,792,-0.1671673594859474,-0.2,0.0,1.0,310.0,837.0,0.0,1,43.0,0
793,793,0.11363101546888987,0.1,0.0,0.0,380.0,885.0,0.0,1,175.0,1
794,794,-0.8537600048082452,-0.9,1.0,0.0,473.0,714.0,0.0,0,633.0,1
795,795,0.03316377884697552,0.0,0.0,0.0,285.0,892.0,0.0,1,433.0,1
796,796,-0.07443602955459161,-0.1,0.0,1.0,384.0,732.0,1.0,0,564.0,1
797,797,0.14624981898503375,0.1,0.0,0.0,393.0,544.0,1.0,0,513.0,0
798,798,0.15136697443790503,0.2,1.0,1.0,350.0,886.0,0.0,0,1294.0,0
799,799,-0.43898749290669986,-0.4,0.0,1.0,330.0,518.0,1.0,0,532.0,1
800,800,-0.2020692814651307,-0.2,0.0,1.0,466.0,504.0,1.0,0,570.0,1
801,801,0.5031782922307632,0.5,1.0,1.0,349.0,812.0,1.0,1,1609.0,1
802,802,0.8573018988492188,0.9,0.0,0.0,284.0,628.0,0.0,1,238.0,1
803,803,0.5944896800022103,0.6,0.0,0.0,451.0,547.0,0.0,1,452.0,1
804,804,-0.2503064891161133,-0.3,0.0,1.0,495.0,634.0,0.0,1,251.0,0
805,805,-0.09702627679653186,-0.1,0.0,1.0,252.0,505.0,1.0,0,1103.0,1
806,806,-0.5640145024259704,-0.6,1.0,0.0,350.0,733.0,0.0,0,867.0,1
807,807,0.6941133403013998,0.7,1.0,1.0,309.0,577.0,1.0,1,774.0,1
808,808,-0.623340456162314,-0.6,0.0,1.0,326.0,867.0,1.0,0,217.0,1
809,809,-0.5933686412359409,-0.6,0.0,1.0,428.0,588.0,1.0,0,334.0,1
810,810,-0.16519212106837555,-0.2,1.0,0.0,299.0,989.0,0.0,0,92.0,1
811,811,-0.8108805986858562,-0.8,0.0,1.0,278.0,722.0,1.0,0,260.0,1
812,812,0.5995753440915389,0.6,0.0,0.0,499.0,608.0,0.0,1,443.0,1
813,813,0.51917548361072,0.5,1.0,1.0,327.0,508.0,1.0,1,565.0,1
814,814,0.12887712256650874,0.1,1.0,1.0,439.0,890.0,1.0,1,991.0,1
815,815,0.45580152126739304,0.5,0.0,0.0,257.0,760.0,0.0,1,193.0,1
816,816,-0.17096775227396488,-0.2,0.0,1.0,296.0,965.0,0.0,1,299.0,0
817,817,-0.7213478441841457,-0.7,0.0,1.0,440.0,707.0,1.0,0,463.0,1
818,818,-0.8640292375279565,-0.9,1.0,0.0,251.0,540.0,0.0,0,439.0,1
819,819,0.8139469544942738,0.8,1.0,1.0,384.0,921.0,1.0,1,215.0,1
820,820,-0.22254817505062607,-0.2,0.0,1.0,271.0,542.0,0.0,1,427.0,0
821,821,-0.16952163674402776,-0.2,0.0,1.0,482.0,681.0,1.0,0,257.0,1
822,822,0.8590226331267826,0.9,0.0,0.0,292.0,613.0,0.0,1,405.0,1
823,823,0.7152192250081159,0.7,0.0,0.0,376.0,890.0,0.0,1,234.0,1
824,824,-0.6856436305592516,-0.7,1.0,0.0,313.0,787.0,0.0,0,920.0,1
825,825,-0.04375656939389816,-0.0,0.0,1.0,421.0,964.0,1.0,0,-205.0,1
826,826,-0.5403310140555768,-0.5,0.0,1.0,366.0,919.0,0.0,1,-25.0,0
827,827,0.4365439417068181,0.4,1.0,1.0,454.0,697.0,1.0,1,209.0,1
828,828,-0.06284417898814909,-0.1,0.0,1.0,354.0,727.0,1.0,0,289.0,1
829,829,-0.05059433024903848,-0.1,0.0,1.0,480.0,693.0,0.0,1,847.0,0
830,830,0.06728183300848867,0.1,1.0,1.0,287.0,721.0,1.0,1,582.0,1
831,831,0.5136103253988101,0.5,0.0,0.0,383.0,834.0,0.0,1,423.0,1
832,832,-0.1355601408917836,-0.1,1.0,0.0,485.0,952.0,0.0,0,433.0,1
833,833,-0.5065049856075592,-0.5,0.0,1.0,456.0,573.0,1.0,0,471.0,1
834,834,0.5691157752016035,0.6,1.0,1.0,477.0,670.0,1.0,1,363.0,1
835,835,0.696158473133163,0.7,0.0,0.0,346.0,733.0,0.0,1,71.0,1
836,836,0.3940784001933738,0.4,1.0,1.0,301.0,617.0,1.0,1,462.0,1
837,837,-0.6366202111396697,-0.6,1.0,0.0,363.0,690.0,0.0,0,547.0,1
838,838,-0.8660292008701784,-0.9,0.0,1.0,456.0,919.0,1.0,0,145.0,1
839,839,0.08846223126885844,0.1,0.0,0.0,370.0,784.0,1.0,0,456.0,0
840,840,-0.8089210663785439,-0.8,1.0,0.0,467.0,812.0,0.0,0,301.0,1
841,841,-0.365681785312284,-0.4,0.0,1.0,282.0,784.0,1.0,0,724.0,1
842,842,0.6661631719975497,0.7,1.0,1.0,272.0,962.0,1.0,1,46.0,1
843,843,-0.42373688185613095,-0.4,0.0,1.0,288.0,760.0,1.0,0,482.0,1
844,844,0.8626402617188546,0.9,1.0,1.0,473.0,667.0,1.0,1,380.0,1
845,845,-0.23904651187775328,-0.2,1.0,0.0,426.0,667.0,0.0,0,1047.0,1
846,846,-0.36838313985545035,-0.4,1.0,0.0,471.0,985.0,0.0,0,494.0,1
847,847,-0.15522605302342418,-0.2,0.0,1.0,279.0,907.0,1.0,0,264.0,1
848,848,0.6804719465950136,0.7,0.0,0.0,386.0,754.0,0.0,1,370.0,1
849,849,-0.5993432741673198,-0.6,1.0,0.0,397.0,865.0,0.0,0,508.0,1
850,850,0.07055554003520692,0.1,0.0,0.0,254.0,608.0,0.0,1,818.0,1
851,851,0.07797309076670877,0.1,1.0,1.0,489.0,893.0,1.0,1,178.0,1
852,852,0.8935154658435961,0.9,1.0,1.0,424.0,855.0,1.0,1,1081.0,1
853,853,-0.7235862539302832,-0.7,0.0,1.0,342.0,884.0,1.0,0,384.0,1
854,854,-0.8861530106021148,-0.9,0.0,1.0,392.0,773.0,1.0,0,275.0,1
855,855,0.33361046957816753,0.3,1.0,1.0,462.0,780.0,1.0,1,908.0,1
856,856,0.5836447254149951,0.6,0.0,0.0,329.0,598.0,0.0,1,393.0,1
857,857,-0.5220071584041188,-0.5,1.0,0.0,330.0,886.0,0.0,0,144.0,1
858,858,-0.3253200375107679,-0.3,1.0,0.0,487.0,744.0,0.0,0,359.0,1
859,859,0.8222863759837814,0.8,0.0,0.0,427.0,531.0,0.0,1,382.0,1
860,860,-0.3881063494634084,-0.4,1.0,0.0,493.0,726.0,0.0,0,361.0,1
861,861,0.3216792346576437,0.3,1.0,1.0,383.0,523.0,1.0,1,1184.0,1
862,862,0.8946801280833988,0.9,1.0,1.0,436.0,830.0,1.0,1,464.0,1
863,863,-0.07471483812419555,-0.1,1.0,0.0,443.0,793.0,0.0,0,144.0,1
864,864,-0.7209474187752984,-0.7,1.0,0.0,277.0,692.0,0.0,0,171.0,1
865,865,0.12499931560047528,0.1,1.0,1.0,293.0,623.0,0.0,0,984.0,0
866,866,-0.7519869615495067,-0.8,1.0,0.0,446.0,845.0,0.0,0,409.0,1
867,867,0.0769496528224628,0.1,0.0,0.0,334.0,754.0,0.0,1,322.0,1
868,868,0.8710898361722347,0.9,0.0,0.0,295.0,714.0,0.0,1,511.0,1
869,869,0.613531527121736,0.6,1.0,1.0,392.0,730.0,1.0,1,628.0,1
870,870,0.0602248035059294,0.1,0.0,0.0,445.0,927.0,0.0,1,98.0,1
871,871,-0.22351803798861836,-0.2,0.0,1.0,444.0,760.0,0.0,1,156.0,0
872,872,0.8862173552187443,0.9,0.0,0.0,395.0,990.0,0.0,1,55.0,1
873,873,-0.011251059187298629,-0.0,1.0,0.0,258.0,522.0,1.0,1,2740.0,0
874,874,-0.7589055426403118,-0.8,1.0,0.0,259.0,656.0,0.0,0,315.0,1
875,875,-0.8980620693486252,-0.9,1.0,0.0,387.0,629.0,0.0,0,474.0,1
876,876,-0.34763215213264254,-0.3,0.0,1.0,284.0,505.0,1.0,0,531.0,1
877,877,-0.12506088187459208,-0.1,1.0,0.0,317.0,563.0,1.0,1,1130.0,0
878,878,-0.699514630209581,-0.7,1.0,0.0,402.0,873.0,0.0,0,245.0,1
879,879,-0.8031621307853517,-0.8,0.0,1.0,424.0,626.0,1.0,0,520.0,1
880,880,0.20865233871647637,0.2,0.0,0.0,479.0,627.0,0.0,1,474.0,1
881,881,0.16906871811217516,0.2,0.0,0.0,258.0,532.0,1.0,0,1130.0,0
882,882,-0.7343582952660574,-0.7,1.0,0.0,334.0,839.0,0.0,0,717.0,1
883,883,-0.26281787773300846,-0.3,0.0,1.0,289.0,859.0,0.0,1,182.0,0
884,884,-0.54884456066757,-0.5,1.0,0.0,333.0,761.0,0.0,0,436.0,1
885,885,0.7406104280747098,0.7,1.0,1.0,416.0,841.0,1.0,1,233.0,1
886,886,0.233499034355917,0.2,1.0,1.0,277.0,594.0,0.0,0,689.0,0
887,887,0.4800601288926548,0.5,1.0,1.0,496.0,681.0,1.0,1,483.0,1
888,888,0.30139318026700035,0.3,1.0,1.0,368.0,661.0,1.0,1,2841.0,1
889,889,-0.4584132347414716,-0.5,0.0,1.0,266.0,622.0,1.0,0,412.0,1
890,890,-0.8010387892696614,-0.8,0.0,1.0,469.0,610.0,1.0,0,461.0,1
891,891,0.6472587771514436,0.6,1.0,1.0,389.0,855.0,1.0,1,366.0,1
892,892,-0.3529463535552454,-0.4,0.0,1.0,403.0,824.0,1.0,0,33.0,1
893,893,0.31798739435393586,0.3,0.0,0.0,294.0,716.0,1.0,0,440.0,0
894,894,0.579825329185797,0.6,1.0,1.0,419.0,931.0,1.0,1,50.0,1
895,895,-0.864287164630342,-0.9,0.0,1.0,454.0,624.0,1.0,0,302.0,1
896,896,0.29466609249515885,0.3,0.0,0.0,377.0,632.0,0.0,1,501.0,1
897,897,-0.5122677575291537,-0.5,1.0,0.0,292.0,621.0,0.0,0,737.0,1
898,898,0.07882540916956449,0.1,1.0,1.0,493.0,739.0,1.0,1,1028.0,1
899,899,-0.22551024694269062,-0.2,0.0,1.0,339.0,938.0,1.0,0,323.0,1
900,900,0.19973883909243384,0.2,0.0,0.0,448.0,838.0,0.0,1,204.0,1
901,901,0.4011445192188826,0.4,1.0,1.0,267.0,540.0,1.0,1,1293.0,1
902,902,-0.7134539183238189,-0.7,1.0,0.0,307.0,869.0,0.0,0,184.0,1
903,903,0.0702414426170721,0.1,0.0,0.0,453.0,505.0,1.0,0,582.0,0
904,904,0.3041364788402968,0.3,1.0,1.0,320.0,945.0,1.0,1,335.0,1
905,905,0.47236560511261383,0.5,0.0,0.0,358.0,795.0,0.0,1,107.0,1
906,906,-0.2697844845176365,-0.3,1.0,0.0,269.0,792.0,0.0,0,259.0,1
907,907,0.5007910467017095,0.5,1.0,1.0,383.0,679.0,1.0,1,1588.0,1
908,908,-0.02941086963098749,-0.0,1.0,0.0,365.0,872.0,1.0,1,203.0,0
909,909,-0.2310248505912249,-0.2,0.0,1.0,415.0,711.0,1.0,0,214.0,1
910,910,0.529223295246256,0.5,1.0,1.0,415.0,919.0,1.0,1,316.0,1
911,911,0.12992231457427017,0.1,0.0,0.0,271.0,913.0,0.0,1,246.0,1
912,912,0.4313119879407675,0.4,0.0,0.0,360.0,868.0,0.0,1,182.0,1
913,913,0.40529390425193246,0.4,1.0,1.0,356.0,689.0,1.0,1,175.0,1
914,914,-0.8759179859252796,-0.9,1.0,0.0,494.0,848.0,0.0,0,178.0,1
915,915,0.13069700091468783,0.1,0.0,0.0,262.0,786.0,0.0,1,292.0,1
916,916,0.6876790755573273,0.7,0.0,0.0,455.0,941.0,0.0,1,-46.0,1
917,917,0.7382755878106896,0.7,0.0,0.0,350.0,802.0,0.0,1,38.0,1
918,918,0.3031423542088968,0.3,0.0,0.0,375.0,747.0,0.0,1,618.0,1
919,919,0.4142642300374678,0.4,0.0,0.0,327.0,970.0,0.0,1,33.0,1
920,920,-0.7348763516957529,-0.7,0.0,1.0,442.0,580.0,1.0,0,288.0,1
921,921,0.27897720182974284,0.3,1.0,1.0,333.0,602.0,1.0,1,435.0,1
922,922,0.7496072331067646,0.7,1.0,1.0,359.0,849.0,1.0,1,102.0,1
923,923,-0.36088796604527407,-0.4,0.0,1.0,297.0,512.0,1.0,0,231.0,1
924,924,0.8278355968977781,0.8,1.0,1.0,292.0,581.0,1.0,1,597.0,1
925,925,0.31520266244503914,0.3,0.0,0.0,395.0,891.0,0.0,1,104.0,1
926,926,-0.013377241102926929,-0.0,1.0,0.0,438.0,657.0,0.0,0,285.0,1
927,927,0.34680153061593944,0.3,1.0,1.0,409.0,792.0,1.0,1,329.0,1
928,928,0.49423485647304866,0.5,1.0,1.0,257.0,587.0,1.0,1,646.0,1
929,929,0.35656350805501813,0.4,0.0,0.0,358.0,783.0,0.0,1,189.0,1
930,930,0.16501334132649148,0.2,0.0,0.0,378.0,639.0,0.0,1,373.0,1
931,931,0.04708413772407327,0.0,0.0,0.0,376.0,667.0,1.0,0,927.0,0
932,932,0.03305482939864868,0.0,0.0,0.0,397.0,963.0,0.0,1,-90.0,1
933,933,-0.1443012921829625,-0.1,0.0,1.0,306.0,748.0,1.0,0,156.0,1
934,934,-0.45262772640764365,-0.5,1.0,0.0,399.0,524.0,0.0,0,587.0,1
935,935,0.48921665899937883,0.5,1.0,1.0,353.0,514.0,1.0,1,1263.0,1
936,936,-0.7992723522707,-0.8,1.0,0.0,260.0,954.0,0.0,0,286.0,1
937,937,-0.42847583104349213,-0.4,0.0,1.0,351.0,838.0,1.0,0,-39.0,1
938,938,0.04935605831990131,0.0,0.0,0.0,302.0,742.0,1.0,0,156.0,0
939,939,-0.22895645125416553,-0.2,0.0,1.0,410.0,998.0,1.0,0,872.0,1
940,940,0.5959419809112739,0.6,0.0,0.0,453.0,959.0,0.0,1,218.0,1
941,941,0.7198560976926237,0.7,1.0,1.0,268.0,973.0,1.0,1,719.0,1
942,942,0.7456426433831017,0.7,0.0,0.0,389.0,761.0,0.0,1,370.0,1
943,943,-0.6226738977157993,-0.6,1.0,0.0,389.0,998.0,0.0,0,253.0,1
944,944,0.07462806318649251,0.1,0.0,0.0,392.0,665.0,0.0,1,753.0,1
945,945,0.6733293476206775,0.7,1.0,1.0,313.0,986.0,1.0,1,1811.0,1
946,946,-0.8389320965486685,-0.8,0.0,1.0,412.0,649.0,1.0,0,419.0,1
947,947,-0.5454408280472032,-0.5,0.0,1.0,406.0,933.0,1.0,0,591.0,1
948,948,-0.8259397274901298,-0.8,0.0,1.0,480.0,899.0,1.0,0,81.0,1
949,949,0.2915668649289739,0.3,1.0,1.0,259.0,799.0,1.0,1,2.0,1
950,950,0.02888718952270708,0.0,1.0,1.0,294.0,917.0,0.0,0,269.0,0
951,951,0.6648942030807913,0.7,0.0,0.0,343.0,612.0,0.0,1,385.0,1
952,952,-0.12252426353766044,-0.1,0.0,1.0,300.0,501.0,1.0,0,909.0,1
953,953,-0.7990180423396116,-0.8,1.0,0.0,281.0,671.0,0.0,0,188.0,1
954,954,0.7808099909236977,0.8,1.0,1.0,435.0,975.0,1.0,1,330.0,1
955,955,0.08838770766320392,0.1,0.0,0.0,300.0,923.0,0.0,1,447.0,1
956,956,-0.8011500129551936,-0.8,0.0,1.0,378.0,755.0,1.0,0,227.0,1
957,957,-0.15146564142398378,-0.2,1.0,0.0,412.0,671.0,0.0,0,467.0,1
958,958,-0.37147767113914665,-0.4,1.0,0.0,271.0,983.0,0.0,0,466.0,1
959,959,0.347910795240414,0.3,1.0,1.0,408.0,592.0,1.0,1,1590.0,1
960,960,-0.8602803872764185,-0.9,0.0,1.0,417.0,775.0,1.0,0,268.0,1
961,961,0.02591774451014628,0.0,0.0,0.0,271.0,899.0,0.0,1,320.0,1
962,962,0.22558197227457033,0.2,1.0,1.0,252.0,951.0,0.0,0,167.0,0
963,963,-0.27504527462992734,-0.3,1.0,0.0,365.0,825.0,0.0,0,430.0,1
964,964,0.31314350604010277,0.3,0.0,0.0,310.0,787.0,0.0,1,413.0,1
965,965,-0.48995058787247003,-0.5,0.0,1.0,451.0,747.0,1.0,0,82.0,1
966,966,0.38022090631210415,0.4,0.0,0.0,464.0,954.0,0.0,1,552.0,1
967,967,-0.038652431941923804,-0.0,1.0,0.0,451.0,977.0,1.0,1,172.0,0
968,968,0.022061592378750272,0.0,0.0,0.0,254.0,654.0,1.0,0,952.0,0
969,969,-0.5845620231074382,-0.6,1.0,0.0,259.0,843.0,0.0,0,748.0,1
970,970,0.7927006445981452,0.8,0.0,0.0,327.0,750.0,0.0,1,23.0,1
971,971,-0.2735892327020082,-0.3,1.0,0.0,481.0,661.0,0.0,0,368.0,1
972,972,-0.2705601679731555,-0.3,1.0,0.0,278.0,770.0,0.0,0,192.0,1
973,973,0.895933338799655,0.9,1.0,1.0,343.0,543.0,1.0,1,464.0,1
974,974,-0.7727792362108743,-0.8,0.0,1.0,438.0,608.0,1.0,0,324.0,1
975,975,-0.7175579765024691,-0.7,0.0,1.0,414.0,556.0,1.0,0,720.0,1
976,976,0.18771493449791976,0.2,0.0,0.0,352.0,878.0,0.0,1,390.0,1
977,977,-0.672310599804562,-0.7,1.0,0.0,303.0,778.0,0.0,0,229.0,1
978,978,0.5690408534913741,0.6,1.0,1.0,339.0,995.0,1.0,1,96.0,1
979,979,-0.015512609235234343,-0.0,1.0,0.0,361.0,686.0,1.0,1,1293.0,0
980,980,0.34611496720345725,0.3,1.0,1.0,460.0,629.0,1.0,1,261.0,1
981,981,0.4227121306764027,0.4,1.0,1.0,276.0,622.0,1.0,1,1162.0,1
982,982,-0.7773323841649957,-0.8,0.0,1.0,378.0,621.0,1.0,0,601.0,1
983,983,0.7831062643946031,0.8,0.0,0.0,498.0,813.0,0.0,1,239.0,1
984,984,0.8214779854821629,0.8,0.0,0.0,459.0,534.0,0.0,1,347.0,1
985,985,0.05146571613182571,0.1,1.0,1.0,444.0,844.0,0.0,0,442.0,0
986,986,0.5435441879390571,0.5,1.0,1.0,450.0,564.0,1.0,1,866.0,1
987,987,-0.632739715861532,-0.6,0.0,1.0,264.0,811.0,1.0,0,855.0,1
988,988,0.5530427943343986,0.6,1.0,1.0,284.0,983.0,1.0,1,393.0,1
989,989,0.7981756169676871,0.8,0.0,0.0,480.0,689.0,0.0,1,221.0,1
990,990,0.5684760114742634,0.6,0.0,0.0,314.0,873.0,0.0,1,633.0,1
991,991,-0.2929295554349436,-0.3,1.0,0.0,423.0,875.0,0.0,0,402.0,1
992,992,0.15696856998527797,0.2,0.0,0.0,351.0,522.0,0.0,1,857.0,1
993,993,0.3071007684259378,0.3,1.0,1.0,259.0,741.0,1.0,1,960.0,1
994,994,0.1413833987237868,0.1,1.0,1.0,456.0,795.0,1.0,1,449.0,1
995,995,-0.05805253375160313,-0.1,0.0,1.0,399.0,690.0,0.0,1,1041.0,0
996,996,-0.5054352226887773,-0.5,0.0,1.0,313.0,920.0,0.0,1,567.0,0
997,997,0.8727508776802181,0.9,1.0,1.0,408.0,864.0,0.0,0,278.0,0
998,998,-0.4711755868531545,-0.5,1.0,0.0,436.0,778.0,0.0,0,416.0,1
999,999,0.29940036327010267,0.3,1.0,1.0,282.0,975.0,0.0,0,243.0,0
1000,1000,0.18958763127582967,0.2,0.0,0.0,427.0,915.0,0.0,1,168.0,1
1001,1001,-0.47714883445584905,-0.5,0.0,1.0,489.0,754.0,1.0,0,347.0,1
1002,1002,-0.5439714883631666,-0.5,0.0,1.0,474.0,651.0,1.0,0,315.0,1
1003,1003,0.7693394238098906,0.8,0.0,0.0,446.0,741.0,0.0,1,223.0,1
1004,1004,0.06502779230083411,0.1,0.0,0.0,333.0,806.0,0.0,1,111.0,1
1005,1005,0.13339427893692257,0.1,1.0,1.0,341.0,686.0,0.0,0,2533.0,0
1006,1006,-0.1881710347205604,-0.2,0.0,1.0,273.0,865.0,1.0,0,-28.0,1
1007,1007,-0.18628132806938125,-0.2,1.0,0.0,482.0,864.0,0.0,0,2714.0,1
1008,1008,-0.703632271748044,-0.7,1.0,0.0,255.0,671.0,0.0,0,384.0,1
1009,1009,0.8496182325037093,0.8,0.0,0.0,258.0,946.0,0.0,1,536.0,1
1010,1010,0.01692959880181588,0.0,1.0,1.0,462.0,611.0,0.0,0,1047.0,0
1011,1011,0.33472535895838884,0.3,0.0,0.0,284.0,865.0,0.0,1,641.0,1
1012,1012,-0.12391663302352585,-0.1,1.0,0.0,390.0,711.0,1.0,1,579.0,0
1013,1013,0.8460762182518119,0.8,1.0,1.0,360.0,849.0,1.0,1,241.0,1
1014,1014,0.5472842516111095,0.5,0.0,0.0,372.0,577.0,0.0,1,551.0,1
1015,1015,0.6783115790919491,0.7,1.0,1.0,493.0,857.0,1.0,1,400.0,1
1016,1016,-0.2524498177428528,-0.3,1.0,0.0,282.0,563.0,1.0,1,725.0,0
1017,1017,-0.07727212170449949,-0.1,1.0,0.0,265.0,764.0,1.0,1,411.0,0
1018,1018,-0.32382783753917055,-0.3,1.0,0.0,415.0,658.0,0.0,0,367.0,1
1019,1019,-0.6084550825092467,-0.6,0.0,1.0,368.0,518.0,1.0,0,594.0,1
1020,1020,0.7175074642175886,0.7,0.0,0.0,464.0,710.0,0.0,1,316.0,1
1021,1021,-0.8160477679779519,-0.8,0.0,1.0,319.0,953.0,1.0,0,208.0,1
1022,1022,-0.8084456507093266,-0.8,0.0,1.0,434.0,935.0,1.0,0,41.0,1
1023,1023,-0.4264492208531743,-0.4,1.0,0.0,481.0,878.0,0.0,0,121.0,1
1024,1024,0.7750842727002946,0.8,1.0,1.0,362.0,904.0,1.0,1,234.0,1
1025,1025,-0.24650026057729812,-0.2,0.0,1.0,366.0,525.0,0.0,1,659.0,0
1026,1026,0.09051285740023762,0.1,1.0,1.0,363.0,618.0,1.0,1,1289.0,1
1027,1027,-0.8728426772007658,-0.9,0.0,1.0,475.0,867.0,1.0,0,258.0,1
1028,1028,0.34477862998176556,0.3,0.0,0.0,451.0,580.0,0.0,1,409.0,1
1029,1029,0.5878244385162988,0.6,1.0,1.0,469.0,869.0,1.0,1,562.0,1
1030,1030,0.6749602456196188,0.7,1.0,1.0,296.0,717.0,1.0,1,917.0,1
1031,1031,-0.5751116357680697,-0.6,0.0,1.0,474.0,532.0,1.0,0,434.0,1
1032,1032,0.5067276232793699,0.5,1.0,1.0,413.0,836.0,1.0,1,361.0,1
1033,1033,0.8594616963438394,0.9,1.0,1.0,458.0,630.0,1.0,1,482.0,1
1034,1034,0.8914469992582609,0.9,1.0,1.0,491.0,898.0,1.0,1,251.0,1
1035,1035,-0.5580911496650225,-0.6,0.0,1.0,380.0,903.0,1.0,0,257.0,1
1036,1036,-0.022436505128545114,-0.0,1.0,0.0,303.0,723.0,0.0,0,1454.0,1
1037,1037,0.16509967020661442,0.2,1.0,1.0,435.0,900.0,0.0,0,5.0,0
1038,1038,-0.8453787672920208,-0.8,1.0,0.0,423.0,579.0,0.0,0,678.0,1
1039,1039,-0.8535217113525192,-0.9,1.0,0.0,420.0,629.0,0.0,0,701.0,1
1040,1040,-0.0555997507822763,-0.1,0.0,1.0,476.0,730.0,0.0,1,494.0,0
1041,1041,-0.6091143104118837,-0.6,0.0,1.0,342.0,885.0,0.0,1,23.0,0
1042,1042,0.7545732216829409,0.8,0.0,0.0,367.0,946.0,0.0,1,187.0,1
1043,1043,-0.3209816391299277,-0.3,1.0,0.0,447.0,516.0,0.0,0,577.0,1
1044,1044,0.8488900603149548,0.8,1.0,1.0,252.0,838.0,1.0,1,170.0,1
1045,1045,0.23235369228256675,0.2,0.0,0.0,461.0,504.0,0.0,1,635.0,1
1046,1046,0.645895912114249,0.6,0.0,0.0,363.0,577.0,0.0,1,380.0,1
1047,1047,-0.30698257901037296,-0.3,0.0,1.0,477.0,991.0,1.0,0,-8.0,1
1048,1048,0.7935428317958643,0.8,0.0,0.0,298.0,520.0,0.0,1,272.0,1
1049,1049,0.6296053338684907,0.6,1.0,1.0,346.0,522.0,1.0,1,422.0,1
1050,1050,-0.48472651993509985,-0.5,0.0,1.0,270.0,990.0,0.0,1,390.0,0
1051,1051,0.7182576616398141,0.7,0.0,0.0,314.0,764.0,0.0,1,462.0,1
1052,1052,0.46252938572292635,0.5,0.0,0.0,276.0,622.0,0.0,1,522.0,1
1053,1053,0.06079949263057893,0.1,1.0,1.0,309.0,750.0,1.0,1,341.0,1
1054,1054,-0.6928243755050777,-0.7,0.0,1.0,251.0,572.0,1.0,0,407.0,1
1055,1055,0.8659921424464164,0.9,1.0,1.0,477.0,898.0,0.0,0,-125.0,0
1056,1056,-0.09908797983838669,-0.1,0.0,1.0,404.0,577.0,0.0,1,279.0,0
1057,1057,0.11421026948101065,0.1,0.0,0.0,255.0,500.0,0.0,1,515.0,1
1058,1058,0.18249520938508257,0.2,1.0,1.0,449.0,805.0,1.0,1,536.0,1
1059,1059,-0.32548716591743687,-0.3,1.0,0.0,449.0,616.0,0.0,0,1055.0,1
1060,1060,0.1801061386356978,0.2,0.0,0.0,475.0,889.0,0.0,1,216.0,1
1061,1061,0.6585774532880281,0.7,0.0,0.0,262.0,552.0,0.0,1,416.0,1
1062,1062,-0.505707850937918,-0.5,1.0,0.0,470.0,910.0,0.0,0,260.0,1
1063,1063,-0.770799881383878,-0.8,1.0,0.0,468.0,860.0,0.0,0,262.0,1
1064,1064,-0.007125757777604158,-0.0,1.0,0.0,387.0,841.0,1.0,1,132.0,0
1065,1065,0.6628474891003279,0.7,0.0,0.0,350.0,516.0,0.0,1,444.0,1
1066,1066,0.4308190767744807,0.4,1.0,1.0,438.0,997.0,1.0,1,275.0,1
1067,1067,-0.8348438709440457,-0.8,1.0,0.0,333.0,717.0,0.0,0,190.0,1
1068,1068,-0.23978756403333457,-0.2,1.0,0.0,334.0,674.0,0.0,0,802.0,1
1069,1069,-0.1221699150674952,-0.1,0.0,1.0,367.0,965.0,0.0,1,108.0,0
1070,1070,0.11252403465848138,0.1,1.0,1.0,390.0,961.0,0.0,0,349.0,0
1071,1071,0.4075688640705216,0.4,0.0,0.0,250.0,690.0,0.0,1,400.0,1
1072,1072,-0.3162345367905638,-0.3,1.0,0.0,425.0,544.0,0.0,0,821.0,1
1073,1073,-0.4839761681509581,-0.5,0.0,1.0,424.0,949.0,1.0,0,667.0,1
1074,1074,-0.5008674326162852,-0.5,1.0,0.0,266.0,534.0,0.0,0,830.0,1
1075,1075,0.8774144061899606,0.9,0.0,0.0,289.0,715.0,0.0,1,236.0,1
1076,1076,0.47515573548637124,0.5,1.0,1.0,490.0,598.0,1.0,1,522.0,1
1077,1077,0.7836399773377544,0.8,0.0,0.0,413.0,821.0,0.0,1,316.0,1
1078,1078,-0.7391672134510182,-0.7,0.0,1.0,335.0,732.0,0.0,1,33.0,0
1079,1079,-0.498590371515957,-0.5,0.0,1.0,386.0,599.0,1.0,0,1315.0,1
1080,1080,0.24529160431747543,0.2,1.0,1.0,436.0,996.0,1.0,1,708.0,1
1081,1081,0.3234010937806585,0.3,0.0,0.0,300.0,829.0,1.0,0,401.0,0
1082,1082,0.1944356162543276,0.2,0.0,0.0,444.0,660.0,0.0,1,136.0,1
1083,1083,0.5557430237142232,0.6,0.0,0.0,416.0,553.0,0.0,1,311.0,1
1084,1084,-0.2087423211088899,-0.2,1.0,0.0,477.0,661.0,0.0,0,592.0,1
1085,1085,0.6719553450977841,0.7,0.0,0.0,362.0,920.0,0.0,1,208.0,1
1086,1086,0.503119551134603,0.5,1.0,1.0,480.0,991.0,1.0,1,139.0,1
1087,1087,-0.13535853202425197,-0.1,0.0,1.0,276.0,625.0,0.0,1,879.0,0
1088,1088,-0.14511330416194967,-0.1,1.0,0.0,382.0,654.0,0.0,0,354.0,1
1089,1089,-0.8414610984385709,-0.8,1.0,0.0,421.0,522.0,0.0,0,827.0,1
1090,1090,0.5361385027849771,0.5,1.0,1.0,419.0,786.0,1.0,1,655.0,1
1091,1091,0.6225444908581915,0.6,1.0,1.0,485.0,799.0,1.0,1,756.0,1
1092,1092,-0.7912137888274083,-0.8,0.0,1.0,304.0,701.0,1.0,0,135.0,1
1093,1093,0.22378839411921347,0.2,0.0,0.0,431.0,991.0,0.0,1,198.0,1
1094,1094,0.13660167316488592,0.1,0.0,0.0,414.0,867.0,1.0,0,519.0,0
1095,1095,0.4467439257496545,0.4,0.0,0.0,428.0,773.0,0.0,1,219.0,1
1096,1096,-0.7877436247533839,-0.8,0.0,1.0,266.0,794.0,1.0,0,170.0,1
1097,1097,0.13313765195718508,0.1,1.0,1.0,364.0,560.0,1.0,1,1586.0,1
1098,1098,-0.18825348826031485,-0.2,1.0,0.0,411.0,774.0,1.0,1,1105.0,0
1099,1099,0.7339029817302755,0.7,0.0,0.0,351.0,777.0,0.0,1,132.0,1
1100,1100,0.1397735974769031,0.1,0.0,0.0,462.0,663.0,0.0,1,525.0,1
1101,1101,-0.6248388702489958,-0.6,0.0,1.0,336.0,757.0,1.0,0,497.0,1
1102,1102,0.10109014192064969,0.1,0.0,0.0,419.0,511.0,0.0,1,910.0,1
1103,1103,-0.6884448047063407,-0.7,0.0,1.0,352.0,557.0,1.0,0,1111.0,1
1104,1104,-0.07890604236265597,-0.1,0.0,1.0,388.0,687.0,1.0,0,805.0,1
1105,1105,-0.2600698507286191,-0.3,1.0,0.0,340.0,797.0,0.0,0,263.0,1
1106,1106,-0.6911527067831159,-0.7,1.0,0.0,342.0,980.0,0.0,0,-2.0,1
1107,1107,-0.06618251082451243,-0.1,0.0,1.0,478.0,807.0,1.0,0,495.0,1
1108,1108,-0.1471830290633439,-0.1,0.0,1.0,446.0,931.0,0.0,1,103.0,0
1109,1109,-0.6130561765583491,-0.6,1.0,0.0,454.0,750.0,0.0,0,406.0,1
1110,1110,0.005760731635209959,0.0,0.0,0.0,408.0,661.0,1.0,0,601.0,0
1111,1111,-0.22826398600338937,-0.2,1.0,0.0,465.0,848.0,0.0,0,-3.0,1
1112,1112,-0.48290989771359943,-0.5,0.0,1.0,343.0,778.0,1.0,0,369.0,1
1113,1113,0.7915011379737694,0.8,0.0,0.0,392.0,514.0,0.0,1,354.0,1
1114,1114,0.5169081951042164,0.5,1.0,1.0,265.0,592.0,1.0,1,673.0,1
1115,1115,0.15622736658866343,0.2,0.0,0.0,430.0,910.0,0.0,1,110.0,1
1116,1116,0.6222999063014606,0.6,0.0,0.0,290.0,877.0,0.0,1,293.0,1
1117,1117,-0.7967098079486812,-0.8,1.0,0.0,395.0,983.0,0.0,0,242.0,1
1118,1118,0.06151011678966367,0.1,1.0,1.0,425.0,733.0,0.0,0,1252.0,0
1119,1119,-0.3500234465745944,-0.4,1.0,0.0,498.0,583.0,0.0,0,879.0,1
1120,1120,-0.06376738279024541,-0.1,1.0,0.0,262.0,850.0,0.0,0,198.0,1
1121,1121,0.01543993527171772,0.0,1.0,1.0,434.0,525.0,1.0,1,1741.0,1
1122,1122,-0.027961038631337032,-0.0,1.0,0.0,339.0,684.0,1.0,1,607.0,0
1123,1123,0.2462724850358754,0.2,1.0,1.0,283.0,687.0,1.0,1,340.0,1
1124,1124,0.0041396953240684375,0.0,1.0,1.0,350.0,889.0,0.0,0,921.0,0
1125,1125,-0.6496981725798543,-0.6,1.0,0.0,410.0,842.0,0.0,0,298.0,1
1126,1126,0.21478181642820127,0.2,0.0,0.0,274.0,763.0,0.0,1,163.0,1
1127,1127,0.5074123579810709,0.5,1.0,1.0,428.0,506.0,1.0,1,1086.0,1
1128,1128,-0.5554366208337831,-0.6,1.0,0.0,329.0,935.0,0.0,0,56.0,1
1129,1129,-0.5756582864793771,-0.6,1.0,0.0,411.0,682.0,0.0,0,527.0,1
1130,1130,0.03964410523825879,0.0,0.0,0.0,365.0,713.0,1.0,0,322.0,0
1131,1131,0.08361326836423122,0.1,0.0,0.0,494.0,981.0,0.0,1,-15.0,1
1132,1132,-0.7514531358526848,-0.8,1.0,0.0,331.0,758.0,0.0,0,331.0,1
1133,1133,-0.6989229746648941,-0.7,0.0,1.0,337.0,816.0,0.0,1,387.0,0
1134,1134,0.032371933021973165,0.0,1.0,1.0,353.0,924.0,1.0,1,333.0,1
1135,1135,0.7968236400827501,0.8,1.0,1.0,265.0,770.0,1.0,1,325.0,1
1136,1136,0.5051668421416865,0.5,0.0,0.0,322.0,543.0,0.0,1,645.0,1
1137,1137,-0.8520552550639302,-0.9,1.0,0.0,481.0,594.0,0.0,0,475.0,1
1138,1138,0.8912563687620466,0.9,0.0,0.0,374.0,974.0,0.0,1,202.0,1
1139,1139,0.4922316270383339,0.5,1.0,1.0,440.0,959.0,1.0,1,491.0,1
1140,1140,0.4236160494430131,0.4,0.0,0.0,474.0,695.0,0.0,1,441.0,1
1141,1141,0.1418094258070427,0.1,0.0,0.0,323.0,809.0,1.0,0,178.0,0
1142,1142,-0.6161261973285175,-0.6,1.0,0.0,452.0,774.0,0.0,0,524.0,1
1143,1143,0.6173555197102224,0.6,1.0,1.0,385.0,652.0,1.0,1,973.0,1
1144,1144,-0.6303682596760483,-0.6,0.0,1.0,464.0,582.0,1.0,0,374.0,1
1145,1145,0.7220718569949834,0.7,1.0,1.0,403.0,519.0,1.0,1,558.0,1
1146,1146,-0.1753354599811373,-0.2,0.0,1.0,275.0,943.0,1.0,0,262.0,1
1147,1147,0.4449129844924985,0.4,1.0,1.0,356.0,831.0,1.0,1,613.0,1
1148,1148,0.6654828387713937,0.7,0.0,0.0,481.0,993.0,0.0,1,46.0,1
1149,1149,-0.7031281927607376,-0.7,0.0,1.0,346.0,683.0,1.0,0,431.0,1
1150,1150,0.45340359011432085,0.5,1.0,1.0,340.0,889.0,1.0,1,431.0,1
1151,1151,-0.08617807182936843,-0.1,0.0,1.0,479.0,899.0,1.0,0,392.0,1
1152,1152,-0.7361298660155878,-0.7,0.0,1.0,382.0,909.0,1.0,0,399.0,1
1153,1153,-0.29107232942018113,-0.3,0.0,1.0,334.0,919.0,1.0,0,287.0,1
1154,1154,-0.6648910148516278,-0.7,0.0,1.0,315.0,765.0,1.0,0,290.0,1
1155,1155,-0.5490658300699671,-0.5,1.0,0.0,447.0,989.0,1.0,1,44.0,0
1156,1156,-0.8650923257657929,-0.9,1.0,0.0,271.0,875.0,0.0,0,284.0,1
1157,1157,-0.07721976082777449,-0.1,0.0,1.0,487.0,851.0,1.0,0,762.0,1
1158,1158,0.5542929706208851,0.6,1.0,1.0,299.0,685.0,1.0,1,676.0,1
1159,1159,-0.05652767473569609,-0.1,0.0,1.0,385.0,899.0,0.0,1,426.0,0
1160,1160,0.4743033196298668,0.5,0.0,0.0,370.0,846.0,0.0,1,214.0,1
1161,1161,-0.3086524214923897,-0.3,0.0,1.0,362.0,580.0,1.0,0,408.0,1
1162,1162,-0.44779234930338274,-0.4,0.0,1.0,448.0,820.0,1.0,0,272.0,1
1163,1163,0.5681467630492353,0.6,1.0,1.0,451.0,774.0,1.0,1,785.0,1
1164,1164,0.38521379950418944,0.4,1.0,1.0,396.0,609.0,0.0,0,555.0,0
1165,1165,-0.4533552826131315,-0.5,1.0,0.0,331.0,790.0,0.0,0,389.0,1
1166,1166,-0.3357585277818248,-0.3,0.0,1.0,373.0,563.0,1.0,0,794.0,1
1167,1167,0.6564136662902459,0.7,0.0,0.0,415.0,556.0,0.0,1,309.0,1
1168,1168,-0.7458220282230404,-0.7,0.0,1.0,318.0,736.0,1.0,0,236.0,1
1169,1169,0.8550688657327342,0.9,0.0,0.0,261.0,989.0,0.0,1,-50.0,1
1170,1170,-0.234377066433459,-0.2,1.0,0.0,468.0,942.0,0.0,0,800.0,1
1171,1171,0.05175038837089729,0.1,1.0,1.0,368.0,924.0,1.0,1,-52.0,1
1172,1172,0.17463800497041404,0.2,1.0,1.0,443.0,539.0,1.0,1,608.0,1
1173,1173,0.20512644987511963,0.2,1.0,1.0,362.0,561.0,1.0,1,1617.0,1
1174,1174,0.19111638474120396,0.2,0.0,0.0,368.0,838.0,0.0,1,984.0,1
1175,1175,-0.5131184016213324,-0.5,1.0,0.0,431.0,850.0,0.0,0,489.0,1
1176,1176,0.6226441527099463,0.6,1.0,1.0,313.0,695.0,1.0,1,642.0,1
1177,1177,-0.45520022067562826,-0.5,0.0,1.0,479.0,854.0,1.0,0,627.0,1
1178,1178,-0.36648145595184667,-0.4,1.0,0.0,495.0,603.0,0.0,0,432.0,1
1179,1179,0.42389871640789234,0.4,0.0,0.0,314.0,794.0,0.0,1,782.0,1
1180,1180,0.16412101812665802,0.2,1.0,1.0,426.0,609.0,1.0,1,575.0,1
1181,1181,-0.2808980688020791,-0.3,1.0,0.0,495.0,832.0,0.0,0,113.0,1
1182,1182,0.47855517529888625,0.5,1.0,1.0,263.0,706.0,1.0,1,731.0,1
1183,1183,-0.5124877406861434,-0.5,0.0,1.0,275.0,528.0,1.0,0,547.0,1
1184,1184,-0.2115452869219776,-0.2,0.0,1.0,287.0,822.0,1.0,0,461.0,1
1185,1185,0.5501533562544322,0.6,0.0,0.0,395.0,928.0,0.0,1,107.0,1
1186,1186,-0.59093390387379,-0.6,0.0,1.0,264.0,513.0,1.0,0,403.0,1
1187,1187,-0.2721917344913397,-0.3,0.0,1.0,310.0,918.0,0.0,1,-68.0,0
1188,1188,0.8022277449506187,0.8,1.0,1.0,352.0,991.0,1.0,1,247.0,1
1189,1189,0.45859943394981617,0.5,1.0,1.0,299.0,976.0,1.0,1,235.0,1
1190,1190,-0.6951111953291703,-0.7,1.0,0.0,399.0,860.0,0.0,0,321.0,1
1191,1191,0.30742996494493713,0.3,0.0,0.0,428.0,520.0,0.0,1,322.0,1
1192,1192,-0.054951157437285736,-0.1,0.0,1.0,431.0,720.0,0.0,1,879.0,0
1193,1193,-0.8879733921276863,-0.9,0.0,1.0,362.0,700.0,1.0,0,298.0,1
1194,1194,0.01699934807108283,0.0,0.0,0.0,333.0,732.0,0.0,1,265.0,1
1195,1195,0.30871462718566833,0.3,0.0,0.0,277.0,585.0,0.0,1,688.0,1
1196,1196,-0.05642608618751843,-0.1,0.0,1.0,440.0,627.0,1.0,0,853.0,1
1197,1197,-0.6432888307229505,-0.6,0.0,1.0,265.0,770.0,1.0,0,165.0,1
1198,1198,0.893140549804852,0.9,1.0,1.0,394.0,771.0,1.0,1,165.0,1
1199,1199,-0.072788904469407,-0.1,1.0,0.0,357.0,833.0,0.0,0,730.0,1
1200,1200,-0.5056495404843869,-0.5,0.0,1.0,360.0,542.0,0.0,1,568.0,0
1201,1201,0.2215565547928421,0.2,1.0,1.0,294.0,686.0,1.0,1,490.0,1
1202,1202,-0.15286383003936332,-0.2,1.0,0.0,268.0,778.0,0.0,0,194.0,1
1203,1203,-0.500689893867383,-0.5,1.0,0.0,291.0,624.0,0.0,0,365.0,1
1204,1204,0.1734575441427605,0.2,0.0,0.0,328.0,509.0,0.0,1,513.0,1
1205,1205,-0.24730680970636276,-0.2,0.0,1.0,442.0,592.0,1.0,0,466.0,1
1206,1206,0.8487351922100251,0.8,1.0,1.0,290.0,605.0,1.0,1,315.0,1
1207,1207,0.21715138250704624,0.2,0.0,0.0,355.0,758.0,0.0,1,277.0,1
1208,1208,-0.6333082039444407,-0.6,0.0,1.0,269.0,813.0,0.0,1,-12.0,0
1209,1209,0.0749105780037912,0.1,1.0,1.0,414.0,701.0,0.0,0,555.0,0
1210,1210,0.683459290078411,0.7,0.0,0.0,389.0,724.0,0.0,1,147.0,1
1211,1211,0.7682421761191845,0.8,1.0,1.0,481.0,998.0,1.0,1,341.0,1
1212,1212,0.7936493131122132,0.8,0.0,0.0,379.0,672.0,0.0,1,189.0,1
1213,1213,-0.28553005358839356,-0.3,0.0,1.0,279.0,650.0,0.0,1,321.0,0
1214,1214,0.7285870127512658,0.7,1.0,1.0,314.0,821.0,1.0,1,345.0,1
1215,1215,-0.4185602368976328,-0.4,0.0,1.0,337.0,828.0,1.0,0,325.0,1
1216,1216,-0.3201881003870126,-0.3,0.0,1.0,304.0,840.0,1.0,0,596.0,1
1217,1217,0.3440919863347188,0.3,0.0,0.0,322.0,909.0,0.0,1,319.0,1
1218,1218,-0.5150940507387078,-0.5,1.0,0.0,379.0,969.0,0.0,0,1712.0,1
1219,1219,-0.7064625114867179,-0.7,1.0,0.0,427.0,503.0,0.0,0,980.0,1
1220,1220,0.3396146455411472,0.3,1.0,1.0,281.0,503.0,1.0,1,976.0,1
1221,1221,-0.6278778645835359,-0.6,0.0,1.0,253.0,505.0,1.0,0,412.0,1
1222,1222,-0.8503645393957666,-0.9,0.0,1.0,396.0,548.0,1.0,0,516.0,1
1223,1223,-0.21324565875039936,-0.2,1.0,0.0,438.0,909.0,0.0,0,463.0,1
1224,1224,0.22594970103379042,0.2,0.0,0.0,417.0,646.0,1.0,0,1247.0,0
1225,1225,-0.8799840155805516,-0.9,1.0,0.0,382.0,863.0,0.0,0,245.0,1
1226,1226,-0.8563060780791889,-0.9,1.0,0.0,317.0,977.0,0.0,0,356.0,1
1227,1227,0.7314197068576073,0.7,1.0,1.0,481.0,976.0,1.0,1,863.0,1
1228,1228,-0.43902500087492996,-0.4,0.0,1.0,316.0,509.0,0.0,1,595.0,0
1229,1229,-0.3961874441795823,-0.4,0.0,1.0,391.0,971.0,1.0,0,268.0,1
1230,1230,-0.3037492273707335,-0.3,1.0,0.0,333.0,869.0,0.0,0,738.0,1
1231,1231,0.5100169008465719,0.5,1.0,1.0,331.0,833.0,1.0,1,376.0,1
1232,1232,0.7245133623338887,0.7,1.0,1.0,349.0,823.0,1.0,1,508.0,1
1233,1233,0.7563392065023468,0.8,1.0,1.0,401.0,701.0,1.0,1,538.0,1
1234,1234,0.611117222410403,0.6,1.0,1.0,256.0,730.0,1.0,1,584.0,1
1235,1235,0.17871572001653935,0.2,0.0,0.0,391.0,544.0,0.0,1,905.0,1
1236,1236,0.7745253068164476,0.8,1.0,1.0,473.0,806.0,1.0,1,471.0,1
1237,1237,-0.8664121474944356,-0.9,1.0,0.0,426.0,928.0,0.0,0,186.0,1
1238,1238,0.5487267547443232,0.5,1.0,1.0,468.0,624.0,1.0,1,278.0,1
1239,1239,0.16311478237095212,0.2,1.0,1.0,261.0,851.0,0.0,0,918.0,0
1240,1240,0.04187282645512147,0.0,1.0,1.0,257.0,874.0,0.0,0,1199.0,0
1241,1241,-0.2355613539293968,-0.2,0.0,1.0,375.0,682.0,1.0,0,203.0,1
1242,1242,0.8134240330674506,0.8,0.0,0.0,268.0,693.0,0.0,1,249.0,1
1243,1243,0.10171534799919069,0.1,0.0,0.0,396.0,987.0,0.0,1,57.0,1
1244,1244,-0.14131595927207208,-0.1,1.0,0.0,309.0,738.0,0.0,0,373.0,1
1245,1245,0.48965159422115023,0.5,1.0,1.0,421.0,612.0,1.0,1,557.0,1
1246,1246,-0.5640059589298658,-0.6,1.0,0.0,382.0,990.0,0.0,0,-12.0,1
1247,1247,0.5256985787960565,0.5,0.0,0.0,343.0,528.0,0.0,1,379.0,1
1248,1248,-0.28468285131053295,-0.3,0.0,1.0,277.0,770.0,1.0,0,613.0,1
1249,1249,0.19975028945777218,0.2,1.0,1.0,469.0,705.0,1.0,1,596.0,1
1250,1250,0.02340766404251382,0.0,0.0,0.0,435.0,649.0,0.0,1,476.0,1
1251,1251,0.1429644647035898,0.1,1.0,1.0,423.0,840.0,0.0,0,787.0,0
1252,1252,-0.15886414516202696,-0.2,0.0,1.0,391.0,828.0,0.0,1,121.0,0
1253,1253,-0.3450399214817571,-0.3,1.0,0.0,329.0,680.0,0.0,0,661.0,1
1254,1254,0.8147781652671277,0.8,1.0,1.0,496.0,574.0,1.0,1,640.0,1
1255,1255,0.022917728647282365,0.0,1.0,1.0,409.0,569.0,0.0,0,732.0,0
1256,1256,0.1363228089707179,0.1,0.0,0.0,453.0,685.0,0.0,1,642.0,1
1257,1257,-0.7966372011086672,-0.8,0.0,1.0,320.0,907.0,1.0,0,413.0,1
1258,1258,0.6611484420151618,0.7,1.0,1.0,293.0,518.0,1.0,1,529.0,1
1259,1259,0.6013838523727221,0.6,1.0,1.0,386.0,950.0,1.0,1,384.0,1
1260,1260,0.09923682654636556,0.1,0.0,0.0,285.0,561.0,1.0,0,654.0,0
1261,1261,0.3835194697802625,0.4,1.0,1.0,296.0,991.0,1.0,1,193.0,1
1262,1262,-0.8734835009683318,-0.9,1.0,0.0,327.0,541.0,0.0,0,372.0,1
1263,1263,0.14555670154879186,0.1,0.0,0.0,267.0,529.0,0.0,1,464.0,1
1264,1264,-0.8683731911757447,-0.9,1.0,0.0,481.0,973.0,0.0,0,136.0,1
1265,1265,-0.40885146453545473,-0.4,0.0,1.0,395.0,934.0,1.0,0,431.0,1
1266,1266,-0.48773799923754274,-0.5,1.0,0.0,351.0,795.0,0.0,0,354.0,1
1267,1267,-0.8652808358821941,-0.9,1.0,0.0,382.0,909.0,0.0,0,179.0,1
1268,1268,-0.7041964080534638,-0.7,1.0,0.0,307.0,597.0,0.0,0,706.0,1
1269,1269,-0.47618060921656746,-0.5,0.0,1.0,441.0,623.0,1.0,0,606.0,1
1270,1270,0.6885590035403478,0.7,1.0,1.0,496.0,664.0,1.0,1,940.0,1
1271,1271,0.1612504750677125,0.2,1.0,1.0,366.0,531.0,1.0,1,493.0,1
1272,1272,-0.09990446851893409,-0.1,1.0,0.0,379.0,575.0,0.0,0,536.0,1
1273,1273,-0.23714279342132283,-0.2,0.0,1.0,400.0,777.0,0.0,1,203.0,0
1274,1274,-0.3759122159730329,-0.4,1.0,0.0,468.0,927.0,0.0,0,645.0,1
1275,1275,-0.6834454799629998,-0.7,0.0,1.0,424.0,762.0,1.0,0,194.0,1
1276,1276,-0.19135080682226413,-0.2,0.0,1.0,406.0,796.0,1.0,0,308.0,1
1277,1277,-0.8638949916687506,-0.9,1.0,0.0,312.0,522.0,0.0,0,346.0,1
1278,1278,0.6764377016557029,0.7,0.0,0.0,283.0,571.0,0.0,1,546.0,1
1279,1279,0.6661193528264125,0.7,1.0,1.0,384.0,532.0,1.0,1,1034.0,1
1280,1280,0.6663855004218665,0.7,1.0,1.0,481.0,889.0,1.0,1,300.0,1
1281,1281,-0.503640308969875,-0.5,1.0,0.0,449.0,736.0,0.0,0,535.0,1
1282,1282,0.18693152735115925,0.2,0.0,0.0,351.0,987.0,0.0,1,-68.0,1
1283,1283,-0.00623859358350265,-0.0,0.0,1.0,404.0,825.0,0.0,1,281.0,0
1284,1284,0.5205596271094178,0.5,0.0,0.0,347.0,794.0,0.0,1,189.0,1
1285,1285,0.7626862682366865,0.8,1.0,1.0,311.0,535.0,1.0,1,374.0,1
1286,1286,-0.7138843672594324,-0.7,1.0,0.0,497.0,626.0,0.0,0,327.0,1
1287,1287,-0.4821775274814537,-0.5,0.0,1.0,274.0,593.0,1.0,0,673.0,1
1288,1288,0.5180347623948244,0.5,1.0,1.0,303.0,861.0,1.0,1,216.0,1
1289,1289,-0.056604368096233815,-0.1,1.0,0.0,327.0,783.0,1.0,1,1270.0,0
1290,1290,0.6956523191373577,0.7,1.0,1.0,301.0,768.0,1.0,1,241.0,1
1291,1291,0.39575273719256454,0.4,0.0,0.0,282.0,815.0,0.0,1,243.0,1
1292,1292,-0.6760029261063282,-0.7,0.0,1.0,362.0,843.0,1.0,0,225.0,1
1293,1293,0.6627426807074633,0.7,0.0,0.0,379.0,937.0,1.0,0,34.0,0
1294,1294,0.3882845494409638,0.4,0.0,0.0,375.0,671.0,0.0,1,394.0,1
1295,1295,-0.14658347482771883,-0.1,1.0,0.0,334.0,917.0,1.0,1,1079.0,0
1296,1296,-0.8825442068918579,-0.9,1.0,0.0,420.0,603.0,0.0,0,247.0,1
1297,1297,-0.18541707603153057,-0.2,1.0,0.0,386.0,590.0,0.0,0,544.0,1
1298,1298,-0.8480495682559624,-0.8,1.0,0.0,316.0,548.0,0.0,0,636.0,1
1299,1299,0.7472334372723585,0.7,0.0,0.0,484.0,818.0,0.0,1,158.0,1
1300,1300,-0.8491629482251399,-0.8,0.0,1.0,433.0,778.0,1.0,0,369.0,1
1301,1301,-0.3159033975465403,-0.3,1.0,0.0,455.0,738.0,0.0,0,347.0,1
1302,1302,0.34763372284193805,0.3,1.0,1.0,389.0,932.0,0.0,0,429.0,0
1303,1303,-0.2356308851508363,-0.2,0.0,1.0,433.0,502.0,1.0,0,435.0,1
1304,1304,0.5671078030853897,0.6,1.0,1.0,389.0,780.0,1.0,1,161.0,1
1305,1305,0.7997275494172512,0.8,1.0,1.0,303.0,825.0,1.0,1,302.0,1
1306,1306,0.4769221401187328,0.5,0.0,0.0,374.0,948.0,0.0,1,188.0,1
1307,1307,-0.15758346718954042,-0.2,1.0,0.0,499.0,663.0,0.0,0,368.0,1
1308,1308,-0.7967333343527214,-0.8,1.0,0.0,251.0,519.0,0.0,0,590.0,1
1309,1309,-0.646915656966012,-0.6,1.0,0.0,386.0,747.0,0.0,0,437.0,1
1310,1310,-0.5095374062328587,-0.5,0.0,1.0,496.0,596.0,1.0,0,928.0,1
1311,1311,0.5471080196858941,0.5,0.0,0.0,441.0,808.0,0.0,1,701.0,1
1312,1312,-0.868551538730548,-0.9,0.0,1.0,467.0,846.0,1.0,0,227.0,1
1313,1313,0.1749296313414409,0.2,1.0,1.0,375.0,877.0,0.0,0,508.0,0
1314,1314,-0.3274961468317985,-0.3,1.0,0.0,398.0,770.0,0.0,0,1172.0,1
1315,1315,0.017171899003806,0.0,1.0,1.0,457.0,585.0,1.0,1,828.0,1
1316,1316,0.13226783736159897,0.1,1.0,1.0,405.0,763.0,0.0,0,612.0,0
1317,1317,-0.09123761872773006,-0.1,1.0,0.0,411.0,639.0,0.0,0,630.0,1
1318,1318,0.34782254287590775,0.3,0.0,0.0,281.0,554.0,0.0,1,445.0,1
1319,1319,-0.5512705434242029,-0.6,0.0,1.0,394.0,938.0,1.0,0,268.0,1
1320,1320,-0.21930669592141194,-0.2,0.0,1.0,297.0,801.0,0.0,1,-58.0,0
1321,1321,-0.3056867211493832,-0.3,0.0,1.0,328.0,631.0,0.0,1,331.0,0
1322,1322,0.07247708442211687,0.1,1.0,1.0,325.0,738.0,0.0,0,357.0,0
1323,1323,0.15038775766818768,0.2,0.0,0.0,299.0,810.0,0.0,1,571.0,1
1324,1324,0.08529350634717237,0.1,0.0,0.0,308.0,741.0,1.0,0,191.0,0
1325,1325,0.686966121466977,0.7,0.0,0.0,279.0,813.0,1.0,0,8.0,0
1326,1326,-0.6919918020984379,-0.7,0.0,1.0,338.0,703.0,1.0,0,419.0,1
1327,1327,0.013641156581682079,0.0,1.0,1.0,395.0,806.0,0.0,0,829.0,0
1328,1328,-0.5050261907797537,-0.5,1.0,0.0,262.0,541.0,0.0,0,947.0,1
1329,1329,-0.14155492552455906,-0.1,0.0,1.0,391.0,918.0,1.0,0,581.0,1
1330,1330,-0.16942272528768187,-0.2,0.0,1.0,256.0,506.0,0.0,1,818.0,0
1331,1331,0.5757528155476618,0.6,0.0,0.0,303.0,573.0,0.0,1,524.0,1
1332,1332,-0.24076790523076996,-0.2,0.0,1.0,324.0,514.0,1.0,0,1472.0,1
1333,1333,0.836868764438668,0.8,0.0,0.0,318.0,999.0,0.0,1,123.0,1
1334,1334,-0.8697372121636167,-0.9,0.0,1.0,380.0,953.0,1.0,0,207.0,1
1335,1335,-0.39851095066003706,-0.4,0.0,1.0,335.0,737.0,1.0,0,598.0,1
1336,1336,-0.014051426798103783,-0.0,0.0,1.0,311.0,616.0,0.0,1,573.0,0
1337,1337,-0.1396451991817491,-0.1,0.0,1.0,446.0,866.0,1.0,0,538.0,1
1338,1338,-0.03161812881262982,-0.0,1.0,0.0,335.0,595.0,0.0,0,640.0,1
1339,1339,-0.49819241021438027,-0.5,0.0,1.0,275.0,501.0,1.0,0,474.0,1
1340,1340,0.7712738890164049,0.8,0.0,0.0,299.0,912.0,0.0,1,49.0,1
1341,1341,0.3426504781730352,0.3,0.0,0.0,394.0,812.0,0.0,1,194.0,1
1342,1342,0.8344142394981028,0.8,1.0,1.0,472.0,536.0,1.0,1,522.0,1
1343,1343,-0.35800012520330093,-0.4,0.0,1.0,310.0,804.0,1.0,0,606.0,1
1344,1344,0.3466784778424782,0.3,0.0,0.0,295.0,940.0,1.0,0,1425.0,0
1345,1345,0.2131018632123559,0.2,1.0,1.0,463.0,538.0,1.0,1,1439.0,1
1346,1346,0.8986651453027655,0.9,0.0,0.0,424.0,919.0,0.0,1,-163.0,1
1347,1347,0.7115096160628572,0.7,0.0,0.0,465.0,615.0,0.0,1,400.0,1
1348,1348,0.4846684402579028,0.5,0.0,0.0,338.0,707.0,0.0,1,445.0,1
1349,1349,-0.4432287235012197,-0.4,1.0,0.0,381.0,948.0,0.0,0,221.0,1
1350,1350,0.36886354994036374,0.4,0.0,0.0,275.0,882.0,1.0,0,233.0,0
1351,1351,0.612851446089912,0.6,0.0,0.0,419.0,535.0,0.0,1,616.0,1
1352,1352,-0.6165010300799326,-0.6,1.0,0.0,250.0,964.0,0.0,0,276.0,1
1353,1353,-0.33747399122054167,-0.3,0.0,1.0,479.0,633.0,0.0,1,378.0,0
1354,1354,0.7248445061948156,0.7,1.0,1.0,436.0,574.0,1.0,1,740.0,1
1355,1355,0.25775184028869924,0.3,0.0,0.0,279.0,770.0,0.0,1,221.0,1
1356,1356,-0.6725372485345172,-0.7,1.0,0.0,491.0,987.0,1.0,1,222.0,0
1357,1357,0.44629342568518215,0.4,1.0,1.0,422.0,976.0,1.0,1,532.0,1
1358,1358,-0.1696388129184594,-0.2,0.0,1.0,312.0,881.0,1.0,0,457.0,1
1359,1359,0.7428750297375936,0.7,1.0,1.0,354.0,601.0,1.0,1,515.0,1
1360,1360,-0.262606247439355,-0.3,0.0,1.0,281.0,997.0,0.0,1,142.0,0
1361,1361,-0.026984304410785254,-0.0,1.0,0.0,488.0,693.0,1.0,1,1329.0,0
1362,1362,0.13058032967368238,0.1,0.0,0.0,392.0,877.0,0.0,1,281.0,1
1363,1363,-0.6762687947697723,-0.7,0.0,1.0,287.0,973.0,0.0,1,120.0,0
1364,1364,0.4078765029834178,0.4,0.0,0.0,382.0,617.0,0.0,1,901.0,1
1365,1365,0.8990265372190348,0.9,1.0,1.0,389.0,865.0,1.0,1,146.0,1
1366,1366,-0.2518047384909863,-0.3,0.0,1.0,490.0,651.0,0.0,1,399.0,0
1367,1367,0.03425862688867454,0.0,1.0,1.0,493.0,870.0,1.0,1,357.0,1
1368,1368,-0.5728266420033932,-0.6,0.0,1.0,363.0,851.0,0.0,1,106.0,0
1369,1369,0.6610006449264422,0.7,0.0,0.0,348.0,527.0,0.0,1,395.0,1
1370,1370,-0.23357820553109876,-0.2,1.0,0.0,484.0,612.0,0.0,0,684.0,1
1371,1371,-0.8940213339261833,-0.9,0.0,1.0,301.0,681.0,1.0,0,498.0,1
1372,1372,0.2460425830416456,0.2,1.0,1.0,397.0,783.0,1.0,1,200.0,1
1373,1373,0.19113266237169857,0.2,1.0,1.0,287.0,671.0,1.0,1,782.0,1
1374,1374,0.3143049995390349,0.3,1.0,1.0,439.0,895.0,1.0,1,196.0,1
1375,1375,-0.7086843767819468,-0.7,1.0,0.0,495.0,816.0,0.0,0,219.0,1
1376,1376,-0.6045099838138175,-0.6,1.0,0.0,458.0,518.0,0.0,0,704.0,1
1377,1377,0.7661149764146723,0.8,0.0,0.0,371.0,647.0,0.0,1,492.0,1
1378,1378,0.5769716645009039,0.6,1.0,1.0,289.0,667.0,1.0,1,374.0,1
1379,1379,0.2066230395528933,0.2,1.0,1.0,438.0,776.0,1.0,1,566.0,1
1380,1380,-0.6616956964621893,-0.7,1.0,0.0,318.0,994.0,0.0,0,188.0,1
1381,1381,0.6960229864283222,0.7,0.0,0.0,360.0,626.0,0.0,1,554.0,1
1382,1382,0.10446878327823195,0.1,0.0,0.0,313.0,910.0,1.0,0,177.0,0
1383,1383,0.8437701510130334,0.8,1.0,1.0,460.0,611.0,1.0,1,269.0,1
1384,1384,0.13536053039409357,0.1,0.0,0.0,416.0,582.0,0.0,1,492.0,1
1385,1385,0.2057105980208186,0.2,1.0,1.0,318.0,901.0,0.0,0,281.0,0
1386,1386,-0.6363306887846223,-0.6,0.0,1.0,470.0,677.0,1.0,0,763.0,1
1387,1387,0.7515172221205649,0.8,0.0,0.0,464.0,545.0,0.0,1,331.0,1
1388,1388,-0.5279036204004752,-0.5,1.0,0.0,426.0,596.0,0.0,0,528.0,1
1389,1389,-0.21948844583913352,-0.2,0.0,1.0,366.0,961.0,1.0,0,53.0,1
1390,1390,0.5100118205148997,0.5,0.0,0.0,264.0,929.0,0.0,1,-193.0,1
1391,1391,0.3943381517987693,0.4,0.0,0.0,334.0,720.0,0.0,1,296.0,1
1392,1392,-0.5613361347576147,-0.6,1.0,0.0,469.0,640.0,0.0,0,341.0,1
1393,1393,0.6153754665339267,0.6,0.0,0.0,478.0,525.0,0.0,1,447.0,1
1394,1394,-0.1451316365519203,-0.1,1.0,0.0,272.0,502.0,1.0,1,1726.0,0
1395,1395,0.3965198840106007,0.4,1.0,1.0,288.0,673.0,0.0,0,499.0,0
1396,1396,-0.21592707649134202,-0.2,0.0,1.0,356.0,782.0,0.0,1,882.0,0
1397,1397,-0.5288901448672181,-0.5,0.0,1.0,401.0,535.0,1.0,0,404.0,1
1398,1398,-0.6933923184842795,-0.7,1.0,0.0,304.0,894.0,0.0,0,622.0,1
1399,1399,0.13338460618305448,0.1,0.0,0.0,356.0,914.0,1.0,0,460.0,0
1400,1400,-0.09207401161789297,-0.1,1.0,0.0,438.0,830.0,1.0,1,192.0,0
1401,1401,-0.6886323716237048,-0.7,1.0,0.0,469.0,907.0,0.0,0,34.0,1
1402,1402,0.58295128189123,0.6,0.0,0.0,427.0,595.0,0.0,1,458.0,1
1403,1403,-0.4835144949193822,-0.5,1.0,0.0,407.0,880.0,1.0,1,173.0,0
1404,1404,0.11923504784641936,0.1,1.0,1.0,355.0,759.0,1.0,1,286.0,1
1405,1405,0.08071450044971562,0.1,1.0,1.0,385.0,739.0,0.0,0,426.0,0
1406,1406,-0.5943053397961268,-0.6,1.0,0.0,294.0,816.0,0.0,0,320.0,1
1407,1407,0.20049017310617157,0.2,0.0,0.0,491.0,669.0,1.0,0,820.0,0
1408,1408,0.5998308798431274,0.6,1.0,1.0,452.0,914.0,1.0,1,954.0,1
1409,1409,-0.523278035108514,-0.5,0.0,1.0,490.0,991.0,0.0,1,29.0,0
1410,1410,-0.33567042061472463,-0.3,1.0,0.0,489.0,589.0,0.0,0,502.0,1
1411,1411,-0.5561280550587354,-0.6,0.0,1.0,418.0,645.0,1.0,0,317.0,1
1412,1412,-0.4213980289632613,-0.4,0.0,1.0,269.0,941.0,0.0,1,130.0,0
1413,1413,-0.6620043104687121,-0.7,1.0,0.0,475.0,846.0,0.0,0,249.0,1
1414,1414,-0.09214434208678379,-0.1,1.0,0.0,258.0,978.0,1.0,1,694.0,0
1415,1415,0.3884822347443203,0.4,1.0,1.0,471.0,577.0,1.0,1,2322.0,1
1416,1416,-0.019028341751610944,-0.0,0.0,1.0,422.0,724.0,0.0,1,594.0,0
1417,1417,-0.7215854019218151,-0.7,0.0,1.0,440.0,666.0,1.0,0,394.0,1
1418,1418,-0.4375758292118701,-0.4,1.0,0.0,478.0,817.0,0.0,0,695.0,1
1419,1419,-0.8849769348018428,-0.9,0.0,1.0,387.0,942.0,1.0,0,-29.0,1
1420,1420,-0.485995705715839,-0.5,1.0,0.0,322.0,812.0,0.0,0,816.0,1
1421,1421,-0.41076515658912643,-0.4,0.0,1.0,459.0,983.0,1.0,0,-12.0,1
1422,1422,0.6833642219520085,0.7,1.0,1.0,344.0,688.0,1.0,1,868.0,1
1423,1423,-0.26478694226775623,-0.3,0.0,1.0,345.0,790.0,1.0,0,785.0,1
1424,1424,0.027765107579049708,0.0,0.0,0.0,443.0,986.0,0.0,1,671.0,1
1425,1425,0.08555076675250961,0.1,1.0,1.0,294.0,749.0,1.0,1,447.0,1
1426,1426,0.55378948499908,0.6,1.0,1.0,393.0,843.0,1.0,1,154.0,1
1427,1427,-0.3197519293819234,-0.3,0.0,1.0,366.0,690.0,0.0,1,434.0,0
1428,1428,0.055354514459642234,0.1,0.0,0.0,475.0,799.0,0.0,1,206.0,1
1429,1429,-0.8409220701843458,-0.8,1.0,0.0,420.0,931.0,0.0,0,139.0,1
1430,1430,-0.6201855899860491,-0.6,1.0,0.0,374.0,761.0,0.0,0,555.0,1
1431,1431,-0.37596719663881883,-0.4,1.0,0.0,277.0,673.0,0.0,0,270.0,1
1432,1432,-0.7910897726575076,-0.8,1.0,0.0,442.0,650.0,0.0,0,428.0,1
1433,1433,0.41007877429267936,0.4,1.0,1.0,332.0,631.0,1.0,1,827.0,1
1434,1434,-0.1620184358854786,-0.2,0.0,1.0,348.0,531.0,0.0,1,671.0,0
1435,1435,-0.6555699786848516,-0.7,1.0,0.0,376.0,620.0,0.0,0,384.0,1
1436,1436,-0.3567618934552367,-0.4,0.0,1.0,337.0,903.0,0.0,1,20.0,0
1437,1437,0.4004177347680039,0.4,1.0,1.0,298.0,821.0,1.0,1,141.0,1
1438,1438,-0.22473242306577002,-0.2,1.0,0.0,380.0,609.0,0.0,0,471.0,1
1439,1439,-0.3202941560464514,-0.3,0.0,1.0,384.0,839.0,0.0,1,147.0,0
1440,1440,-0.6953068192784622,-0.7,1.0,0.0,253.0,601.0,0.0,0,556.0,1
1441,1441,-0.6677607168282497,-0.7,1.0,0.0,490.0,875.0,0.0,0,745.0,1
1442,1442,-0.35038900229639736,-0.4,1.0,0.0,495.0,652.0,0.0,0,1683.0,1
1443,1443,-0.2270929652291741,-0.2,0.0,1.0,274.0,996.0,1.0,0,440.0,1
1444,1444,0.09381095720249177,0.1,1.0,1.0,381.0,963.0,0.0,0,256.0,0
1445,1445,0.6293668595788972,0.6,1.0,1.0,402.0,874.0,0.0,0,-76.0,0
1446,1446,-0.15323356314600212,-0.2,1.0,0.0,280.0,766.0,0.0,0,364.0,1
1447,1447,-0.36635773231479896,-0.4,0.0,1.0,453.0,661.0,0.0,1,606.0,0
1448,1448,0.4345712190213652,0.4,0.0,0.0,429.0,560.0,0.0,1,671.0,1
1449,1449,-0.11843105209369365,-0.1,1.0,0.0,320.0,507.0,1.0,1,713.0,0
1450,1450,0.1607188619180343,0.2,0.0,0.0,480.0,642.0,0.0,1,678.0,1
1451,1451,0.7116625960421797,0.7,0.0,0.0,357.0,659.0,0.0,1,334.0,1
1452,1452,-0.8589135387489679,-0.9,0.0,1.0,282.0,895.0,1.0,0,133.0,1
1453,1453,-0.5315816399357257,-0.5,1.0,0.0,364.0,641.0,0.0,0,705.0,1
1454,1454,-0.23678846654995633,-0.2,1.0,0.0,299.0,775.0,0.0,0,556.0,1
1455,1455,-0.6117309254796512,-0.6,1.0,0.0,309.0,635.0,0.0,0,516.0,1
1456,1456,-0.3375948825407896,-0.3,0.0,1.0,418.0,871.0,1.0,0,411.0,1
1457,1457,-0.5194999823302304,-0.5,1.0,0.0,374.0,893.0,0.0,0,163.0,1
1458,1458,-0.8827881209157555,-0.9,0.0,1.0,496.0,554.0,1.0,0,600.0,1
1459,1459,0.4971009524131976,0.5,0.0,0.0,424.0,867.0,0.0,1,309.0,1
1460,1460,-0.6249883665934487,-0.6,1.0,0.0,411.0,699.0,0.0,0,260.0,1
1461,1461,-0.7260211656443518,-0.7,1.0,0.0,475.0,887.0,0.0,0,188.0,1
1462,1462,0.5909851061640777,0.6,0.0,0.0,367.0,531.0,0.0,1,432.0,1
1463,1463,0.3245097744886044,0.3,1.0,1.0,413.0,800.0,0.0,0,407.0,0
1464,1464,-0.06058908497166715,-0.1,0.0,1.0,446.0,737.0,0.0,1,397.0,0
1465,1465,0.5017351366145814,0.5,1.0,1.0,457.0,668.0,0.0,0,195.0,0
1466,1466,0.2805947328088235,0.3,0.0,0.0,490.0,618.0,0.0,1,532.0,1
1467,1467,0.04872208659230015,0.0,1.0,1.0,485.0,539.0,1.0,1,3976.0,1
1468,1468,-0.3028056220940868,-0.3,0.0,1.0,415.0,827.0,0.0,1,158.0,0
1469,1469,-0.6148910666892919,-0.6,0.0,1.0,419.0,517.0,1.0,0,404.0,1
1470,1470,-0.3454785905733585,-0.3,1.0,0.0,498.0,751.0,0.0,0,531.0,1
1471,1471,0.13724961531432311,0.1,1.0,1.0,275.0,736.0,1.0,1,1859.0,1
1472,1472,0.3974285475183791,0.4,0.0,0.0,428.0,562.0,0.0,1,350.0,1
1473,1473,0.19531703586029303,0.2,1.0,1.0,483.0,982.0,1.0,1,195.0,1
1474,1474,0.4487196329137261,0.4,0.0,0.0,272.0,696.0,0.0,1,632.0,1
1475,1475,0.6618240427581795,0.7,1.0,1.0,488.0,848.0,1.0,1,304.0,1
1476,1476,-0.25901879944095785,-0.3,1.0,0.0,485.0,987.0,0.0,0,228.0,1
1477,1477,-0.31223241921673806,-0.3,1.0,0.0,450.0,934.0,0.0,0,776.0,1
1478,1478,-0.42931253088787286,-0.4,1.0,0.0,399.0,666.0,0.0,0,465.0,1
1479,1479,-0.6064991604214995,-0.6,0.0,1.0,358.0,597.0,1.0,0,295.0,1
1480,1480,-0.18314291687654405,-0.2,1.0,0.0,250.0,860.0,0.0,0,1570.0,1
1481,1481,0.7171316953025869,0.7,1.0,1.0,376.0,537.0,1.0,1,877.0,1
1482,1482,-0.7429470162988965,-0.7,1.0,0.0,259.0,733.0,0.0,0,568.0,1
1483,1483,0.744162790144059,0.7,1.0,1.0,455.0,639.0,1.0,1,436.0,1
1484,1484,-0.20738998989214674,-0.2,1.0,0.0,454.0,641.0,0.0,0,355.0,1
1485,1485,-0.6445962341866076,-0.6,0.0,1.0,324.0,856.0,1.0,0,320.0,1
1486,1486,0.007853937817620227,0.0,0.0,0.0,465.0,678.0,0.0,1,447.0,1
1487,1487,0.06336314428003531,0.1,0.0,0.0,474.0,801.0,0.0,1,235.0,1
1488,1488,-0.25117645087013685,-0.3,1.0,0.0,274.0,954.0,0.0,0,72.0,1
1489,1489,0.13550329677940376,0.1,0.0,0.0,355.0,928.0,0.0,1,-133.0,1
1490,1490,0.3014294170872954,0.3,0.0,0.0,261.0,954.0,0.0,1,155.0,1
1491,1491,0.8104138734197505,0.8,1.0,1.0,261.0,753.0,1.0,1,616.0,1
1492,1492,-0.708358072127979,-0.7,0.0,1.0,285.0,776.0,1.0,0,259.0,1
