,trial,coherence,coherence_bin,green_side,correct_side,target_onset,checker_onset,decision,green_decision,decision_time,correct_decision
0,0,-0.12486605137607087,-0.1,0.0,1.0,260.0,519.0,1.0,0,2411.0,1
1,1,0.880810507485218,0.9,0.0,0.0,331.0,914.0,0.0,1,375.0,1
2,2,0.25875809831181484,0.3,0.0,0.0,329.0,923.0,0.0,1,38.0,1
3,3,-0.8447157551255998,-0.8,1.0,0.0,413.0,967.0,0.0,0,-140.0,1
4,4,-0.5750887823498452,-0.6,0.0,1.0,290.0,761.0,1.0,0,179.0,1
5,5,0.33236527639232627,0.3,0.0,0.0,429.0,826.0,0.0,1,445.0,1
6,6,-0.41063711747835935,-0.4,0.0,1.0,290.0,931.0,1.0,0,459.0,1
7,7,0.0707601497766216,0.1,0.0,0.0,319.0,655.0,0.0,1,496.0,1
8,8,0.12626536961495105,0.1,1.0,1.0,444.0,719.0,1.0,1,387.0,1
9,9,-0.19743812136107852,-0.2,0.0,1.0,397.0,608.0,1.0,0,735.0,1
10,10,-0.39111430406589653,-0.4,0.0,1.0,432.0,636.0,1.0,0,412.0,1
11,11,-0.06801598202724346,-0.1,1.0,0.0,426.0,591.0,0.0,0,1173.0,1
12,12,-0.1825261899617403,-0.2,1.0,0.0,297.0,744.0,0.0,0,399.0,1
13,13,-0.6735306920955224,-0.7,1.0,0.0,439.0,899.0,0.0,0,192.0,1
14,14,-0.38613960294946603,-0.4,0.0,1.0,391.0,530.0,1.0,0,659.0,1
15,15,-0.052708330016408955,-0.1,1.0,0.0,405.0,539.0,0.0,0,3376.0,1
16,16,-0.6805256986163114,-0.7,0.0,1.0,360.0,592.0,1.0,0,528.0,1
17,17,0.217854168340624,0.2,1.0,1.0,496.0,894.0,1.0,1,720.0,1
18,18,0.4578613338927561,0.5,0.0,0.0,314.0,857.0,0.0,1,639.0,1
19,19,0.4266494941008737,0.4,1.0,1.0,462.0,843.0,1.0,1,405.0,1
20,20,0.8373223456105773,0.8,1.0,1.0,375.0,509.0,1.0,1,916.0,1
21,21,0.4627013759320521,0.5,1.0,1.0,452.0,644.0,1.0,1,874.0,1
22,22,-0.5410458202904209,-0.5,1.0,0.0,447.0,503.0,0.0,0,380.0,1
23,23,-0.1945278405727794,-0.2,0.0,1.0,454.0,845.0,1.0,0,1801.0,1
24,24,-0.41136828299090006,-0.4,0.0,1.0,329.0,633.0,1.0,0,258.0,1
25,25,-0.2886292393603077,-0.3,1.0,0.0,399.0,909.0,0.0,0,92.0,1
26,26,-0.2819081737597757,-0.3,0.0,1.0,260.0,783.0,1.0,0,707.0,1
27,27,0.22662281731051015,0.2,1.0,1.0,277.0,970.0,1.0,1,183.0,1
28,28,0.8776625804829866,0.9,0.0,0.0,259.0,811.0,0.0,1,130.0,1
29,29,-0.7460620963244373,-0.7,0.0,1.0,480.0,530.0,1.0,0,350.0,1
30,30,0.4616207507451341,0.5,0.0,0.0,293.0,785.0,0.0,1,332.0,1
31,31,0.5845736322044462,0.6,1.0,1.0,372.0,598.0,1.0,1,410.0,1
32,32,-0.516776377265856,-0.5,0.0,1.0,472.0,989.0,1.0,0,179.0,1
33,33,0.5744925980199193,0.6,1.0,1.0,290.0,669.0,1.0,1,551.0,1
34,34,0.6327860404520117,0.6,1.0,1.0,338.0,619.0,1.0,1,113.0,1
35,35,0.4487722102507189,0.4,0.0,0.0,482.0,527.0,0.0,1,711.0,1
36,36,0.37423939371992965,0.4,0.0,0.0,330.0,994.0,0.0,1,546.0,1
37,37,-0.7499705784554225,-0.7,0.0,1.0,364.0,959.0,1.0,0,197.0,1
38,38,-0.1817008560301009,-0.2,1.0,0.0,387.0,673.0,0.0,0,1720.0,1
39,39,-0.3532737257566926,-0.4,0.0,1.0,372.0,776.0,1.0,0,152.0,1
40,40,-0.12042211787051793,-0.1,0.0,1.0,271.0,503.0,1.0,0,546.0,1
41,41,0.6041580781569927,0.6,1.0,1.0,257.0,633.0,1.0,1,180.0,1
42,42,-0.683190239486985,-0.7,0.0,1.0,356.0,629.0,1.0,0,325.0,1
43,43,0.09910298434796094,0.1,0.0,0.0,498.0,855.0,1.0,0,337.0,0
44,44,0.8438182024382651,0.8,0.0,0.0,460.0,730.0,0.0,1,360.0,1
45,45,0.23710476857081975,0.2,0.0,0.0,392.0,713.0,0.0,1,445.0,1
46,46,0.22176364591990627,0.2,1.0,1.0,408.0,559.0,1.0,1,703.0,1
47,47,0.40215134202021197,0.4,1.0,1.0,362.0,533.0,1.0,1,585.0,1
48,48,-0.2163748248041123,-0.2,1.0,0.0,385.0,844.0,0.0,0,2051.0,1
49,49,0.025620716388137232,0.0,1.0,1.0,286.0,514.0,0.0,0,1170.0,0
50,50,-0.3385707722608531,-0.3,1.0,0.0,267.0,578.0,0.0,0,1345.0,1
51,51,0.46309141126268416,0.5,0.0,0.0,475.0,624.0,0.0,1,661.0,1
52,52,0.39900722024747715,0.4,0.0,0.0,493.0,749.0,0.0,1,388.0,1
53,53,0.8928872299024707,0.9,1.0,1.0,416.0,888.0,1.0,1,436.0,1
54,54,0.5411060715363164,0.5,1.0,1.0,294.0,997.0,1.0,1,919.0,1
55,55,0.5793521276488639,0.6,0.0,0.0,401.0,690.0,0.0,1,419.0,1
56,56,0.1235993879926619,0.1,0.0,0.0,436.0,854.0,0.0,1,390.0,1
57,57,0.8452415463371986,0.8,0.0,0.0,255.0,815.0,0.0,1,380.0,1
58,58,0.6936525790493725,0.7,0.0,0.0,353.0,599.0,0.0,1,418.0,1
59,59,0.2615382717379132,0.3,1.0,1.0,261.0,597.0,1.0,1,382.0,1
60,60,-0.6176721366456215,-0.6,0.0,1.0,455.0,923.0,1.0,0,112.0,1
61,61,0.6989990128351783,0.7,1.0,1.0,314.0,843.0,1.0,1,53.0,1
62,62,-0.8312605109415616,-0.8,0.0,1.0,473.0,939.0,1.0,0,118.0,1
63,63,-0.1400226348548248,-0.1,1.0,0.0,341.0,859.0,0.0,0,1040.0,1
64,64,-0.7608664958724969,-0.8,0.0,1.0,493.0,830.0,1.0,0,257.0,1
65,65,-0.5554347858637083,-0.6,0.0,1.0,350.0,703.0,1.0,0,647.0,1
66,66,0.6323717832262384,0.6,1.0,1.0,367.0,561.0,1.0,1,482.0,1
67,67,0.8121705401290181,0.8,0.0,0.0,367.0,654.0,0.0,1,249.0,1
68,68,0.26845880338886563,0.3,1.0,1.0,281.0,963.0,1.0,1,366.0,1
69,69,-0.5865902505138508,-0.6,1.0,0.0,355.0,880.0,0.0,0,445.0,1
70,70,0.8602731091538297,0.9,1.0,1.0,344.0,615.0,1.0,1,481.0,1
71,71,0.7131265332933542,0.7,1.0,1.0,399.0,649.0,1.0,1,502.0,1
72,72,0.6838411441383597,0.7,1.0,1.0,254.0,935.0,1.0,1,221.0,1
73,73,-0.8543756644714485,-0.9,1.0,0.0,475.0,617.0,0.0,0,98.0,1
74,74,-0.27123829627376284,-0.3,0.0,1.0,413.0,906.0,1.0,0,541.0,1
75,75,-0.03143388085905996,-0.0,1.0,0.0,330.0,643.0,0.0,0,57.0,1
76,76,0.698706615125198,0.7,0.0,0.0,298.0,895.0,0.0,1,227.0,1
77,77,-0.17392359224131648,-0.2,1.0,0.0,276.0,954.0,0.0,0,1790.0,1
78,78,0.3529950896182873,0.4,0.0,0.0,453.0,522.0,0.0,1,825.0,1
79,79,0.12416330223966787,0.1,1.0,1.0,287.0,669.0,1.0,1,854.0,1
80,80,-0.4036031508866392,-0.4,0.0,1.0,263.0,931.0,1.0,0,376.0,1
81,81,-0.041086133034930805,-0.0,0.0,1.0,371.0,761.0,1.0,0,1578.0,1
82,82,-0.7286191768168285,-0.7,1.0,0.0,266.0,772.0,0.0,0,432.0,1
83,83,0.1586341362075291,0.2,1.0,1.0,351.0,988.0,0.0,0,-49.0,0
84,84,-0.8533489600946783,-0.9,0.0,1.0,291.0,535.0,1.0,0,224.0,1
85,85,-0.14919710704704248,-0.1,0.0,1.0,418.0,999.0,1.0,0,23.0,1
86,86,-0.3503872724370053,-0.4,0.0,1.0,474.0,684.0,1.0,0,442.0,1
87,87,-0.057411023240933945,-0.1,1.0,0.0,252.0,950.0,1.0,1,848.0,0
88,88,-0.14360919191597266,-0.1,0.0,1.0,342.0,718.0,1.0,0,720.0,1
89,89,-0.831926134904551,-0.8,0.0,1.0,315.0,675.0,1.0,0,410.0,1
90,90,0.6509888021082245,0.7,0.0,0.0,258.0,754.0,0.0,1,98.0,1
91,91,0.25945458414961864,0.3,0.0,0.0,448.0,945.0,0.0,1,397.0,1
92,92,-0.5878749423396004,-0.6,1.0,0.0,270.0,847.0,0.0,0,893.0,1
93,93,0.7973314791157117,0.8,0.0,0.0,427.0,610.0,0.0,1,463.0,1
94,94,0.8869485078625948,0.9,1.0,1.0,378.0,688.0,1.0,1,284.0,1
95,95,-0.15784739826077532,-0.2,0.0,1.0,399.0,502.0,1.0,0,1599.0,1
96,96,-0.11578695237664671,-0.1,0.0,1.0,358.0,567.0,1.0,0,525.0,1
97,97,0.717161020897577,0.7,1.0,1.0,454.0,614.0,1.0,1,772.0,1
98,98,-0.5588180087794314,-0.6,0.0,1.0,392.0,942.0,1.0,0,296.0,1
99,99,-0.8447808037916822,-0.8,0.0,1.0,394.0,967.0,1.0,0,-111.0,1
100,100,0.652900102681163,0.7,1.0,1.0,283.0,736.0,1.0,1,81.0,1
101,101,0.3638302404703063,0.4,0.0,0.0,462.0,683.0,0.0,1,1505.0,1
102,102,0.8076954841749909,0.8,1.0,1.0,264.0,617.0,1.0,1,199.0,1
103,103,0.09401251838417579,0.1,0.0,0.0,269.0,990.0,0.0,1,371.0,1
104,104,0.04366326214418903,0.0,0.0,0.0,397.0,771.0,0.0,1,882.0,1
105,105,0.6418844124521478,0.6,0.0,0.0,325.0,746.0,0.0,1,449.0,1
106,106,-0.05724820596061153,-0.1,0.0,1.0,256.0,595.0,1.0,0,1529.0,1
107,107,-0.7293796212782536,-0.7,1.0,0.0,466.0,924.0,0.0,0,240.0,1
108,108,0.4477393123172163,0.4,0.0,0.0,377.0,838.0,0.0,1,615.0,1
109,109,0.7420372414231909,0.7,0.0,0.0,285.0,922.0,0.0,1,323.0,1
110,110,-0.14904314806042496,-0.1,0.0,1.0,356.0,541.0,1.0,0,533.0,1
111,111,0.25449412780912317,0.3,1.0,1.0,430.0,905.0,1.0,1,1525.0,1
112,112,0.5538510068258004,0.6,0.0,0.0,380.0,620.0,0.0,1,400.0,1
113,113,-0.8068907890990179,-0.8,0.0,1.0,408.0,647.0,1.0,0,715.0,1
114,114,-0.822135597627783,-0.8,0.0,1.0,453.0,959.0,1.0,0,118.0,1
115,115,-0.6166006142966651,-0.6,1.0,0.0,482.0,726.0,0.0,0,552.0,1
116,116,-0.7716564038498033,-0.8,1.0,0.0,375.0,992.0,0.0,0,173.0,1
117,117,-0.08721441591834156,-0.1,0.0,1.0,423.0,981.0,1.0,0,776.0,1
118,118,-0.10264071730005875,-0.1,1.0,0.0,349.0,796.0,0.0,0,75.0,1
119,119,-0.3551886610277597,-0.4,0.0,1.0,401.0,563.0,1.0,0,1086.0,1
120,120,0.8360945248130626,0.8,0.0,0.0,463.0,755.0,0.0,1,302.0,1
121,121,-0.7211497655692336,-0.7,0.0,1.0,400.0,896.0,1.0,0,54.0,1
122,122,-0.578509852694197,-0.6,0.0,1.0,283.0,759.0,1.0,0,218.0,1
123,123,-0.21498793100256464,-0.2,1.0,0.0,367.0,631.0,0.0,0,852.0,1
124,124,-0.4470407866198948,-0.4,0.0,1.0,437.0,752.0,1.0,0,301.0,1
125,125,-0.64224519102937,-0.6,0.0,1.0,335.0,963.0,1.0,0,272.0,1
126,126,0.29186857559023605,0.3,1.0,1.0,408.0,721.0,1.0,1,1701.0,1
127,127,0.19234491456497704,0.2,1.0,1.0,278.0,575.0,1.0,1,2107.0,1
128,128,0.6355334187199478,0.6,0.0,0.0,355.0,600.0,0.0,1,355.0,1
129,129,0.06445471458995478,0.1,0.0,0.0,382.0,833.0,0.0,1,515.0,1
130,130,-0.752160800505646,-0.8,0.0,1.0,410.0,769.0,1.0,0,201.0,1
131,131,0.27183060704672324,0.3,0.0,0.0,316.0,722.0,0.0,1,412.0,1
132,132,-0.6413046999943116,-0.6,1.0,0.0,400.0,763.0,0.0,0,207.0,1
133,133,0.49558711028966307,0.5,0.0,0.0,362.0,692.0,0.0,1,806.0,1
134,134,0.8462744146100342,0.8,1.0,1.0,322.0,869.0,1.0,1,159.0,1
135,135,0.44821291130593777,0.4,0.0,0.0,496.0,516.0,0.0,1,348.0,1
136,136,0.24078759813721773,0.2,0.0,0.0,311.0,692.0,0.0,1,2477.0,1
137,137,0.4036979940314417,0.4,0.0,0.0,492.0,627.0,0.0,1,171.0,1
138,138,-0.5062938235956588,-0.5,0.0,1.0,255.0,611.0,1.0,0,354.0,1
139,139,-0.09474935948137464,-0.1,0.0,1.0,314.0,913.0,1.0,0,233.0,1
140,140,0.786309018448574,0.8,1.0,1.0,252.0,903.0,1.0,1,405.0,1
141,141,-0.6390553827974643,-0.6,0.0,1.0,449.0,874.0,1.0,0,287.0,1
142,142,-0.883887905405588,-0.9,0.0,1.0,324.0,920.0,1.0,0,66.0,1
143,143,0.47256129309616257,0.5,1.0,1.0,306.0,706.0,1.0,1,438.0,1
144,144,0.3260224214712223,0.3,0.0,0.0,404.0,988.0,0.0,1,228.0,1
145,145,-0.12084933023083244,-0.1,1.0,0.0,283.0,964.0,0.0,0,673.0,1
146,146,-0.5920628971333266,-0.6,0.0,1.0,458.0,608.0,1.0,0,474.0,1
147,147,-0.8636819958727775,-0.9,0.0,1.0,273.0,885.0,1.0,0,272.0,1
148,148,-0.13285079951351197,-0.1,1.0,0.0,493.0,902.0,0.0,0,835.0,1
149,149,0.4418042057910042,0.4,1.0,1.0,444.0,771.0,1.0,1,475.0,1
150,150,-0.7618814304757259,-0.8,0.0,1.0,469.0,588.0,1.0,0,543.0,1
151,151,-0.3476715713204327,-0.3,0.0,1.0,296.0,775.0,1.0,0,609.0,1
152,152,-0.11503086016221087,-0.1,0.0,1.0,275.0,710.0,1.0,0,175.0,1
153,153,-0.5750678233429845,-0.6,1.0,0.0,353.0,621.0,0.0,0,436.0,1
154,154,-0.3069523826284545,-0.3,1.0,0.0,351.0,735.0,0.0,0,1924.0,1
155,155,-0.1443452079616533,-0.1,1.0,0.0,333.0,782.0,0.0,0,1605.0,1
156,156,-0.3215720755595781,-0.3,1.0,0.0,461.0,921.0,0.0,0,338.0,1
157,157,0.5157046279405787,0.5,1.0,1.0,416.0,544.0,1.0,1,330.0,1
158,158,-0.5915323459659632,-0.6,0.0,1.0,251.0,932.0,1.0,0,237.0,1
159,159,0.5377804275969428,0.5,0.0,0.0,365.0,760.0,0.0,1,295.0,1
160,160,-0.8410178101286111,-0.8,0.0,1.0,480.0,876.0,1.0,0,244.0,1
161,161,-0.22909968812806403,-0.2,0.0,1.0,443.0,855.0,1.0,0,532.0,1
162,162,0.32630625159870974,0.3,1.0,1.0,279.0,778.0,1.0,1,193.0,1
163,163,0.21074687802407321,0.2,0.0,0.0,371.0,642.0,0.0,1,317.0,1
164,164,0.4128868315181543,0.4,0.0,0.0,460.0,826.0,0.0,1,554.0,1
165,165,-0.8723528345079699,-0.9,0.0,1.0,309.0,672.0,1.0,0,479.0,1
166,166,-0.40425476219880896,-0.4,0.0,1.0,323.0,695.0,1.0,0,612.0,1
167,167,0.4735795897743217,0.5,1.0,1.0,389.0,788.0,1.0,1,573.0,1
168,168,0.46299089327179266,0.5,1.0,1.0,480.0,706.0,1.0,1,714.0,1
169,169,0.48835559545025886,0.5,0.0,0.0,367.0,624.0,0.0,1,339.0,1
170,170,-0.7708505780133308,-0.8,0.0,1.0,301.0,780.0,1.0,0,249.0,1
171,171,0.6840116404517268,0.7,1.0,1.0,388.0,774.0,1.0,1,208.0,1
172,172,-0.5086117998598878,-0.5,1.0,0.0,281.0,527.0,0.0,0,242.0,1
173,173,-0.462006593418072,-0.5,1.0,0.0,343.0,990.0,0.0,0,27.0,1
174,174,0.49663347660916146,0.5,0.0,0.0,399.0,935.0,0.0,1,96.0,1
175,175,0.7569305024420244,0.8,1.0,1.0,294.0,890.0,1.0,1,-104.0,1
176,176,0.2908331202742628,0.3,1.0,1.0,353.0,690.0,1.0,1,2347.0,1
177,177,-0.8301935580045401,-0.8,1.0,0.0,343.0,629.0,0.0,0,498.0,1
178,178,-0.04364174006011967,-0.0,0.0,1.0,318.0,576.0,1.0,0,4106.0,1
179,179,0.09870766849023493,0.1,1.0,1.0,332.0,878.0,1.0,1,1490.0,1
180,180,0.8331484134528312,0.8,0.0,0.0,382.0,581.0,0.0,1,817.0,1
181,181,0.2122202666871108,0.2,0.0,0.0,321.0,836.0,0.0,1,153.0,1
182,182,-0.5064412090809011,-0.5,0.0,1.0,343.0,929.0,1.0,0,398.0,1
183,183,0.2157946647828607,0.2,1.0,1.0,427.0,558.0,1.0,1,435.0,1
184,184,-0.1118624053198809,-0.1,1.0,0.0,306.0,549.0,0.0,0,535.0,1
185,185,-0.15617304426237388,-0.2,1.0,0.0,313.0,810.0,0.0,0,597.0,1
186,186,-0.3811693824146055,-0.4,1.0,0.0,258.0,789.0,0.0,0,283.0,1
187,187,-0.04666591151689692,-0.0,1.0,0.0,368.0,523.0,0.0,0,739.0,1
188,188,0.6685624187707117,0.7,0.0,0.0,474.0,594.0,0.0,1,692.0,1
189,189,0.36602693398632746,0.4,0.0,0.0,351.0,959.0,0.0,1,290.0,1
190,190,0.5219735612907418,0.5,0.0,0.0,254.0,789.0,0.0,1,377.0,1
191,191,-0.330558105778741,-0.3,1.0,0.0,371.0,822.0,0.0,0,187.0,1
192,192,0.6534913682492879,0.7,0.0,0.0,390.0,980.0,0.0,1,550.0,1
193,193,-0.022544956156143048,-0.0,1.0,0.0,371.0,545.0,1.0,1,404.0,0
194,194,-0.1324820084719941,-0.1,1.0,0.0,449.0,836.0,0.0,0,275.0,1
195,195,-0.2387220942522822,-0.2,0.0,1.0,393.0,793.0,1.0,0,284.0,1
196,196,0.5073309048611295,0.5,0.0,0.0,308.0,758.0,0.0,1,394.0,1
197,197,0.7882019367400012,0.8,1.0,1.0,318.0,905.0,1.0,1,187.0,1
198,198,-0.627742505046515,-0.6,0.0,1.0,489.0,943.0,1.0,0,118.0,1
199,199,0.7246088027507981,0.7,1.0,1.0,436.0,763.0,1.0,1,151.0,1
200,200,-0.1382187184818119,-0.1,1.0,0.0,330.0,979.0,0.0,0,581.0,1
201,201,0.263746990514251,0.3,0.0,0.0,346.0,592.0,0.0,1,882.0,1
202,202,0.7143301554880478,0.7,0.0,0.0,334.0,675.0,0.0,1,421.0,1
203,203,-0.38664324365551117,-0.4,0.0,1.0,431.0,608.0,1.0,0,481.0,1
204,204,-0.6205020813935738,-0.6,0.0,1.0,397.0,861.0,1.0,0,122.0,1
205,205,0.2903469127882129,0.3,1.0,1.0,340.0,885.0,1.0,1,325.0,1
206,206,-0.33351322921693227,-0.3,1.0,0.0,463.0,592.0,0.0,0,1335.0,1
207,207,0.1619849534230159,0.2,1.0,1.0,349.0,795.0,1.0,1,246.0,1
208,208,0.6928327410307243,0.7,1.0,1.0,293.0,712.0,1.0,1,345.0,1
209,209,-0.27651552116158584,-0.3,1.0,0.0,271.0,590.0,0.0,0,479.0,1
210,210,0.1666347842880268,0.2,1.0,1.0,318.0,652.0,1.0,1,1590.0,1
211,211,-0.7599890287042208,-0.8,0.0,1.0,386.0,785.0,1.0,0,429.0,1
212,212,-0.17039112551774094,-0.2,0.0,1.0,286.0,684.0,0.0,1,380.0,0
213,213,0.40785412260601006,0.4,1.0,1.0,453.0,993.0,1.0,1,784.0,1
214,214,0.3636606538432713,0.4,0.0,0.0,445.0,535.0,0.0,1,620.0,1
215,215,-0.8867249091850264,-0.9,0.0,1.0,274.0,862.0,1.0,0,174.0,1
216,216,-0.34384243657059166,-0.3,0.0,1.0,479.0,546.0,1.0,0,725.0,1
217,217,-0.3628896062213661,-0.4,1.0,0.0,308.0,601.0,0.0,0,881.0,1
218,218,-0.19869475768495948,-0.2,0.0,1.0,305.0,661.0,1.0,0,1474.0,1
219,219,0.3021493609917497,0.3,1.0,1.0,372.0,613.0,1.0,1,765.0,1
220,220,-0.30079470904822425,-0.3,0.0,1.0,447.0,577.0,1.0,0,496.0,1
221,221,0.37563022193381534,0.4,0.0,0.0,267.0,698.0,0.0,1,595.0,1
222,222,0.23692428114328046,0.2,0.0,0.0,361.0,649.0,0.0,1,390.0,1
223,223,0.290890189774034,0.3,1.0,1.0,310.0,861.0,0.0,0,99.0,0
224,224,-0.48594366096760594,-0.5,0.0,1.0,297.0,902.0,1.0,0,251.0,1
225,225,-0.618355764046431,-0.6,1.0,0.0,350.0,567.0,0.0,0,333.0,1
226,226,0.2520824247024621,0.3,0.0,0.0,461.0,848.0,0.0,1,571.0,1
227,227,0.8992885353043253,0.9,0.0,0.0,465.0,561.0,0.0,1,504.0,1
228,228,0.5308321572346263,0.5,0.0,0.0,293.0,699.0,0.0,1,128.0,1
229,229,-0.5206853840504545,-0.5,1.0,0.0,358.0,579.0,0.0,0,323.0,1
230,230,-0.4377588080752998,-0.4,1.0,0.0,275.0,996.0,0.0,0,389.0,1
231,231,0.1591161050894242,0.2,1.0,1.0,292.0,957.0,1.0,1,1101.0,1
232,232,-0.3324544109106672,-0.3,1.0,0.0,368.0,872.0,0.0,0,510.0,1
233,233,0.5831249066597549,0.6,0.0,0.0,432.0,640.0,0.0,1,708.0,1
234,234,0.0010996534456350071,0.0,0.0,0.0,294.0,604.0,0.0,1,142.0,1
235,235,-0.7831738240743562,-0.8,0.0,1.0,263.0,776.0,1.0,0,111.0,1
236,236,0.2569963066857527,0.3,1.0,1.0,364.0,841.0,1.0,1,495.0,1
237,237,-0.7639973833212819,-0.8,0.0,1.0,435.0,533.0,1.0,0,332.0,1
238,238,-0.5719751266061797,-0.6,0.0,1.0,333.0,628.0,1.0,0,499.0,1
239,239,0.8861415729887684,0.9,0.0,0.0,396.0,777.0,0.0,1,297.0,1
240,240,-0.8517127268061463,-0.9,0.0,1.0,468.0,849.0,1.0,0,13.0,1
241,241,-0.25074399748526355,-0.3,1.0,0.0,337.0,646.0,0.0,0,1397.0,1
242,242,0.6425906171099302,0.6,1.0,1.0,299.0,632.0,1.0,1,819.0,1
243,243,-0.38636321852141753,-0.4,0.0,1.0,404.0,663.0,1.0,0,433.0,1
244,244,-0.7343021482313155,-0.7,1.0,0.0,390.0,543.0,0.0,0,357.0,1
245,245,0.012189116403772515,0.0,0.0,0.0,253.0,856.0,1.0,0,261.0,0
246,246,0.6792616509168569,0.7,1.0,1.0,452.0,568.0,1.0,1,400.0,1
247,247,0.3029632297074,0.3,1.0,1.0,418.0,936.0,1.0,1,-84.0,1
248,248,0.7865413129596291,0.8,1.0,1.0,466.0,852.0,1.0,1,152.0,1
249,249,0.8246600311896543,0.8,1.0,1.0,273.0,982.0,1.0,1,95.0,1
250,250,0.3543726042318741,0.4,0.0,0.0,275.0,928.0,1.0,0,-53.0,0
251,251,0.11202786649215979,0.1,0.0,0.0,416.0,734.0,0.0,1,1510.0,1
252,252,0.06647232907052347,0.1,1.0,1.0,471.0,717.0,1.0,1,1562.0,1
253,253,-0.4370767655949709,-0.4,0.0,1.0,321.0,568.0,1.0,0,461.0,1
254,254,0.3392552579923239,0.3,1.0,1.0,499.0,845.0,1.0,1,726.0,1
255,255,-0.8539913482398119,-0.9,1.0,0.0,436.0,734.0,0.0,0,360.0,1
256,256,-0.1441921300417741,-0.1,1.0,0.0,426.0,614.0,0.0,0,460.0,1
257,257,-0.27992961417973805,-0.3,1.0,0.0,433.0,541.0,0.0,0,326.0,1
258,258,-0.4296935071727533,-0.4,0.0,1.0,385.0,815.0,1.0,0,290.0,1
259,259,-0.07212402018865904,-0.1,1.0,0.0,440.0,820.0,1.0,1,1830.0,0
260,260,0.8833202723852102,0.9,0.0,0.0,337.0,806.0,0.0,1,267.0,1
261,261,-0.42531265531680995,-0.4,0.0,1.0,278.0,662.0,1.0,0,360.0,1
262,262,0.00734447053328291,0.0,0.0,0.0,306.0,941.0,1.0,0,3753.0,0
263,263,-0.2936865573756384,-0.3,0.0,1.0,333.0,528.0,1.0,0,2569.0,1
264,264,0.7047938013920857,0.7,1.0,1.0,386.0,516.0,1.0,1,308.0,1
265,265,-0.680201312037465,-0.7,1.0,0.0,299.0,662.0,0.0,0,459.0,1
266,266,-0.6449857616546775,-0.6,0.0,1.0,441.0,506.0,1.0,0,393.0,1
267,267,0.4506055380548012,0.5,0.0,0.0,484.0,573.0,0.0,1,533.0,1
268,268,-0.34913094124633537,-0.3,1.0,0.0,478.0,986.0,0.0,0,526.0,1
269,269,-0.2858736065836248,-0.3,1.0,0.0,384.0,766.0,0.0,0,170.0,1
270,270,-0.007031654570154977,-0.0,1.0,0.0,260.0,625.0,1.0,1,1905.0,0
271,271,-0.4292205355745259,-0.4,1.0,0.0,292.0,667.0,0.0,0,901.0,1
272,272,0.2789345618930271,0.3,0.0,0.0,495.0,663.0,0.0,1,1322.0,1
273,273,-0.6134714813362452,-0.6,1.0,0.0,472.0,699.0,0.0,0,379.0,1
274,274,0.24472850698380177,0.2,1.0,1.0,380.0,675.0,1.0,1,2045.0,1
275,275,0.27641341376392325,0.3,0.0,0.0,312.0,859.0,1.0,0,329.0,0
276,276,-0.2666226841528878,-0.3,1.0,0.0,442.0,515.0,0.0,0,943.0,1
277,277,0.8889336913497362,0.9,1.0,1.0,324.0,530.0,1.0,1,436.0,1
278,278,0.7263168854016048,0.7,1.0,1.0,478.0,830.0,1.0,1,262.0,1
279,279,-0.48293593321849504,-0.5,1.0,0.0,320.0,576.0,0.0,0,364.0,1
280,280,0.21997194548889965,0.2,1.0,1.0,250.0,973.0,1.0,1,187.0,1
281,281,0.6538371596509537,0.7,0.0,0.0,447.0,552.0,0.0,1,541.0,1
282,282,-0.8914322693097522,-0.9,0.0,1.0,369.0,569.0,1.0,0,762.0,1
283,283,0.2691922714196314,0.3,1.0,1.0,293.0,913.0,1.0,1,374.0,1
284,284,-0.38108752945937174,-0.4,1.0,0.0,323.0,988.0,0.0,0,809.0,1
285,285,0.13386460521041965,0.1,0.0,0.0,498.0,977.0,0.0,1,2865.0,1
286,286,0.041738094084018074,0.0,1.0,1.0,443.0,951.0,0.0,0,1006.0,0
287,287,0.5741575552098362,0.6,1.0,1.0,330.0,608.0,1.0,1,382.0,1
288,288,0.8064995058039962,0.8,1.0,1.0,381.0,556.0,1.0,1,233.0,1
289,289,-0.20254390065507089,-0.2,0.0,1.0,383.0,885.0,1.0,0,912.0,1
290,290,0.8307333294245137,0.8,0.0,0.0,474.0,557.0,0.0,1,319.0,1
291,291,-0.0858314847160423,-0.1,0.0,1.0,264.0,922.0,1.0,0,1374.0,1
292,292,-0.840328007290248,-0.8,0.0,1.0,414.0,787.0,1.0,0,199.0,1
293,293,0.153712476484002,0.2,1.0,1.0,406.0,839.0,0.0,0,-155.0,0
294,294,-0.6628999084481689,-0.7,0.0,1.0,323.0,837.0,1.0,0,50.0,1
295,295,0.24300415942649967,0.2,0.0,0.0,422.0,752.0,0.0,1,2076.0,1
296,296,0.06577157061233063,0.1,1.0,1.0,440.0,603.0,1.0,1,977.0,1
297,297,-0.805375250139692,-0.8,0.0,1.0,355.0,513.0,1.0,0,372.0,1
298,298,-0.7388106325641558,-0.7,1.0,0.0,364.0,517.0,0.0,0,499.0,1
299,299,0.6928921529090944,0.7,0.0,0.0,493.0,584.0,0.0,1,583.0,1
300,300,0.6524627906451569,0.7,1.0,1.0,294.0,682.0,1.0,1,684.0,1
301,301,0.11142543421115236,0.1,0.0,0.0,489.0,963.0,0.0,1,2988.0,1
302,302,0.35717786178462985,0.4,1.0,1.0,335.0,689.0,1.0,1,496.0,1
303,303,0.8919737341833515,0.9,1.0,1.0,291.0,941.0,1.0,1,1148.0,1
304,304,-0.3759714201136193,-0.4,1.0,0.0,488.0,505.0,0.0,0,607.0,1
305,305,0.42122097939499736,0.4,1.0,1.0,412.0,619.0,1.0,1,1349.0,1
306,306,0.6649889413220208,0.7,1.0,1.0,425.0,791.0,1.0,1,394.0,1
307,307,-0.45971945058448965,-0.5,1.0,0.0,301.0,937.0,0.0,0,402.0,1
308,308,-0.6280578361427538,-0.6,0.0,1.0,262.0,619.0,1.0,0,319.0,1
309,309,0.0475279343525713,0.0,1.0,1.0,400.0,747.0,1.0,1,163.0,1
310,310,0.292088524088291,0.3,0.0,0.0,328.0,814.0,0.0,1,168.0,1
311,311,0.6976098961370202,0.7,0.0,0.0,334.0,922.0,0.0,1,84.0,1
312,312,-0.5168173178801303,-0.5,1.0,0.0,252.0,778.0,0.0,0,310.0,1
313,313,0.1343279760349102,0.1,1.0,1.0,493.0,551.0,1.0,1,3826.0,1
314,314,-0.008430192300340367,-0.0,1.0,0.0,459.0,923.0,1.0,1,838.0,0
315,315,-0.06550589022990072,-0.1,0.0,1.0,312.0,531.0,1.0,0,1337.0,1
316,316,0.7490060207894379,0.7,1.0,1.0,350.0,583.0,1.0,1,327.0,1
317,317,-0.6010977276618175,-0.6,0.0,1.0,351.0,897.0,1.0,0,132.0,1
318,318,-0.41359660804589354,-0.4,1.0,0.0,476.0,765.0,0.0,0,219.0,1
319,319,-0.8556190112031761,-0.9,1.0,0.0,386.0,859.0,0.0,0,75.0,1
320,320,-0.6404024491738403,-0.6,1.0,0.0,415.0,973.0,0.0,0,312.0,1
321,321,0.7592882362699621,0.8,0.0,0.0,283.0,973.0,0.0,1,234.0,1
322,322,-0.009100370823691195,-0.0,0.0,1.0,454.0,782.0,1.0,0,414.0,1
323,323,0.38528768186410367,0.4,0.0,0.0,368.0,812.0,1.0,0,200.0,0
324,324,-0.3666148826848016,-0.4,0.0,1.0,336.0,795.0,1.0,0,419.0,1
325,325,-0.7614000569846241,-0.8,1.0,0.0,424.0,523.0,0.0,0,323.0,1
326,326,-0.08222750682338753,-0.1,1.0,0.0,292.0,970.0,1.0,1,2248.0,0
327,327,-0.24793322960741448,-0.2,0.0,1.0,322.0,896.0,1.0,0,42.0,1
328,328,0.10306859181902006,0.1,0.0,0.0,298.0,702.0,0.0,1,780.0,1
329,329,-0.14483940857347288,-0.1,1.0,0.0,438.0,992.0,1.0,1,80.0,0
330,330,0.7254076842185587,0.7,1.0,1.0,270.0,877.0,1.0,1,93.0,1
331,331,0.14517827928873872,0.1,0.0,0.0,496.0,909.0,0.0,1,1065.0,1
332,332,0.6007849568172717,0.6,0.0,0.0,315.0,514.0,0.0,1,501.0,1
333,333,0.3745011137477544,0.4,1.0,1.0,477.0,940.0,1.0,1,-77.0,1
334,334,0.7259305123141834,0.7,1.0,1.0,399.0,925.0,1.0,1,316.0,1
335,335,0.871945671132928,0.9,0.0,0.0,338.0,879.0,0.0,1,123.0,1
336,336,-0.8152314888732929,-0.8,0.0,1.0,380.0,637.0,1.0,0,153.0,1
337,337,0.3184252382183964,0.3,0.0,0.0,494.0,716.0,0.0,1,440.0,1
338,338,0.5302362962138648,0.5,0.0,0.0,264.0,920.0,1.0,0,-44.0,0
339,339,0.23093488799431905,0.2,1.0,1.0,361.0,506.0,1.0,1,313.0,1
340,340,-0.8177519740726387,-0.8,1.0,0.0,476.0,993.0,0.0,0,101.0,1
341,341,-0.0818268503244961,-0.1,1.0,0.0,460.0,784.0,1.0,1,146.0,0
342,342,-0.5130426094322218,-0.5,1.0,0.0,252.0,980.0,0.0,0,188.0,1
343,343,-0.3731692571798628,-0.4,1.0,0.0,390.0,706.0,0.0,0,294.0,1
344,344,-0.6691716264076466,-0.7,1.0,0.0,452.0,814.0,0.0,0,334.0,1
345,345,0.22933152310371063,0.2,0.0,0.0,464.0,861.0,0.0,1,625.0,1
346,346,-0.7887670401657495,-0.8,0.0,1.0,445.0,848.0,1.0,0,117.0,1
347,347,0.45141693535711813,0.5,0.0,0.0,330.0,726.0,0.0,1,364.0,1
348,348,0.48818406024586725,0.5,1.0,1.0,430.0,781.0,1.0,1,509.0,1
349,349,-0.7971343293904984,-0.8,1.0,0.0,482.0,753.0,0.0,0,295.0,1
350,350,-0.3936706670780177,-0.4,1.0,0.0,491.0,648.0,0.0,0,1111.0,1
351,351,-0.42578557714212534,-0.4,0.0,1.0,283.0,767.0,1.0,0,1130.0,1
352,352,-0.5871926516340102,-0.6,1.0,0.0,415.0,766.0,0.0,0,199.0,1
353,353,0.8930537791913328,0.9,0.0,0.0,423.0,530.0,0.0,1,447.0,1
354,354,0.07436067777385114,0.1,1.0,1.0,336.0,761.0,1.0,1,343.0,1
355,355,0.28494744159072816,0.3,1.0,1.0,434.0,828.0,1.0,1,198.0,1
356,356,0.1376917837060937,0.1,0.0,0.0,464.0,730.0,0.0,1,1006.0,1
357,357,0.2276868087225924,0.2,1.0,1.0,339.0,922.0,1.0,1,559.0,1
358,358,0.7355702590650336,0.7,0.0,0.0,492.0,620.0,0.0,1,518.0,1
359,359,-0.05123865473552591,-0.1,1.0,0.0,475.0,928.0,1.0,1,3597.0,0
360,360,-0.6862043044428907,-0.7,1.0,0.0,370.0,611.0,0.0,0,379.0,1
361,361,0.7378315430674692,0.7,1.0,1.0,322.0,917.0,1.0,1,221.0,1
362,362,0.2940868956708901,0.3,0.0,0.0,366.0,899.0,0.0,1,875.0,1
363,363,-0.03279798149397173,-0.0,0.0,1.0,289.0,700.0,1.0,0,381.0,1
364,364,0.40111041586447327,0.4,1.0,1.0,450.0,512.0,1.0,1,228.0,1
365,365,-0.2073219296427934,-0.2,1.0,0.0,322.0,951.0,0.0,0,1747.0,1
366,366,0.2767834716814431,0.3,0.0,0.0,267.0,948.0,0.0,1,305.0,1
367,367,-0.49576623512924173,-0.5,1.0,0.0,462.0,510.0,0.0,0,768.0,1
368,368,-0.3889790370168785,-0.4,0.0,1.0,382.0,513.0,1.0,0,545.0,1
369,369,0.21827531688006896,0.2,0.0,0.0,460.0,837.0,0.0,1,563.0,1
370,370,-0.2958626393990741,-0.3,1.0,0.0,265.0,598.0,0.0,0,367.0,1
371,371,0.138680988343996,0.1,1.0,1.0,444.0,708.0,1.0,1,358.0,1
372,372,0.8881511642538665,0.9,0.0,0.0,491.0,969.0,0.0,1,260.0,1
373,373,-0.4644968059599896,-0.5,1.0,0.0,487.0,562.0,0.0,0,641.0,1
374,374,0.13108588226191087,0.1,0.0,0.0,286.0,997.0,0.0,1,67.0,1
375,375,-0.20130525777586428,-0.2,0.0,1.0,292.0,860.0,1.0,0,528.0,1
376,376,-0.7261681523201887,-0.7,1.0,0.0,410.0,923.0,0.0,0,657.0,1
377,377,0.30816072298180275,0.3,1.0,1.0,402.0,683.0,1.0,1,405.0,1
378,378,-0.2973342884383109,-0.3,1.0,0.0,291.0,983.0,0.0,0,416.0,1
379,379,0.4061333367900054,0.4,1.0,1.0,325.0,786.0,1.0,1,379.0,1
380,380,0.7203228764522197,0.7,0.0,0.0,353.0,913.0,0.0,1,374.0,1
381,381,-0.5310003503216594,-0.5,0.0,1.0,321.0,977.0,1.0,0,312.0,1
382,382,0.4499673636954863,0.4,1.0,1.0,442.0,547.0,1.0,1,301.0,1
383,383,0.03698626975482322,0.0,1.0,1.0,368.0,679.0,0.0,0,493.0,0
384,384,0.41820241282195314,0.4,1.0,1.0,383.0,707.0,1.0,1,1070.0,1
385,385,-0.046036231658761806,-0.0,1.0,0.0,361.0,881.0,1.0,1,2168.0,0
386,386,0.6711013810266001,0.7,0.0,0.0,487.0,971.0,0.0,1,682.0,1
387,387,-0.6229290343174755,-0.6,1.0,0.0,289.0,509.0,0.0,0,782.0,1
388,388,-0.33942205555444127,-0.3,1.0,0.0,384.0,676.0,0.0,0,160.0,1
389,389,-0.5998605778817854,-0.6,0.0,1.0,301.0,624.0,1.0,0,345.0,1
390,390,-0.4085456868404803,-0.4,1.0,0.0,367.0,756.0,1.0,1,37.0,0
391,391,0.4960381017431904,0.5,1.0,1.0,474.0,573.0,1.0,1,533.0,1
392,392,-0.2639624566593056,-0.3,0.0,1.0,488.0,895.0,1.0,0,497.0,1
393,393,0.3034376496914465,0.3,1.0,1.0,493.0,661.0,1.0,1,446.0,1
394,394,0.7722668031145227,0.8,0.0,0.0,419.0,779.0,0.0,1,682.0,1
395,395,-0.8559037878905726,-0.9,0.0,1.0,339.0,640.0,1.0,0,281.0,1
396,396,-0.6472717602093631,-0.6,1.0,0.0,444.0,708.0,0.0,0,298.0,1
397,397,0.7580675158983993,0.8,1.0,1.0,411.0,992.0,1.0,1,257.0,1
398,398,0.020019382502527105,0.0,0.0,0.0,340.0,588.0,1.0,0,732.0,0
399,399,-0.846959207089799,-0.8,0.0,1.0,302.0,843.0,1.0,0,225.0,1
400,400,0.681188377080992,0.7,0.0,0.0,495.0,860.0,0.0,1,215.0,1
401,401,0.23145800574846065,0.2,0.0,0.0,429.0,962.0,0.0,1,619.0,1
402,402,0.6696138227508842,0.7,0.0,0.0,377.0,529.0,0.0,1,564.0,1
403,403,0.6714268861924247,0.7,0.0,0.0,292.0,605.0,0.0,1,263.0,1
404,404,-0.4707499468269457,-0.5,1.0,0.0,393.0,591.0,0.0,0,1046.0,1
405,405,-0.1897744992625473,-0.2,0.0,1.0,375.0,853.0,1.0,0,222.0,1
406,406,-0.514635205660805,-0.5,1.0,0.0,427.0,985.0,0.0,0,748.0,1
407,407,-0.7598510935879605,-0.8,0.0,1.0,331.0,998.0,1.0,0,121.0,1
408,408,-0.6843032929420201,-0.7,0.0,1.0,258.0,514.0,1.0,0,458.0,1
409,409,-0.16181324846047151,-0.2,1.0,0.0,333.0,811.0,0.0,0,1456.0,1
410,410,-0.17306440458006755,-0.2,0.0,1.0,365.0,611.0,1.0,0,744.0,1
411,411,-0.8213680016379821,-0.8,0.0,1.0,253.0,936.0,1.0,0,241.0,1
412,412,-0.6519095666911274,-0.7,0.0,1.0,291.0,983.0,1.0,0,256.0,1
413,413,0.8919768598135546,0.9,0.0,0.0,419.0,736.0,0.0,1,165.0,1
414,414,-0.3506047867603742,-0.4,0.0,1.0,485.0,918.0,1.0,0,317.0,1
415,415,0.5542221945830098,0.6,1.0,1.0,423.0,794.0,1.0,1,603.0,1
416,416,0.43293404130154534,0.4,1.0,1.0,442.0,525.0,1.0,1,773.0,1
417,417,-0.4139369728940329,-0.4,0.0,1.0,453.0,664.0,1.0,0,773.0,1
418,418,0.6429255350637472,0.6,0.0,0.0,254.0,543.0,0.0,1,263.0,1
419,419,0.2055532428665413,0.2,0.0,0.0,392.0,787.0,0.0,1,361.0,1
420,420,0.6322315894910132,0.6,1.0,1.0,286.0,998.0,1.0,1,56.0,1
421,421,-0.5794783131299317,-0.6,1.0,0.0,316.0,565.0,0.0,0,379.0,1
422,422,-0.4433394105037935,-0.4,1.0,0.0,285.0,864.0,0.0,0,201.0,1
423,423,0.3446828010978301,0.3,0.0,0.0,366.0,553.0,0.0,1,751.0,1
424,424,-0.28903322020924826,-0.3,0.0,1.0,438.0,523.0,1.0,0,749.0,1
425,425,-0.43414864162756334,-0.4,1.0,0.0,359.0,504.0,0.0,0,527.0,1
426,426,0.22843432812727504,0.2,0.0,0.0,492.0,963.0,0.0,1,905.0,1
427,427,0.31669742139619983,0.3,1.0,1.0,426.0,517.0,1.0,1,1427.0,1
428,428,-0.7129731738380671,-0.7,0.0,1.0,297.0,648.0,1.0,0,255.0,1
429,429,-0.1180303280641839,-0.1,1.0,0.0,380.0,917.0,0.0,0,2953.0,1
430,430,0.8665396107644748,0.9,1.0,1.0,285.0,742.0,1.0,1,943.0,1
431,431,0.12658742315947535,0.1,1.0,1.0,417.0,564.0,1.0,1,849.0,1
432,432,-0.8094969256856336,-0.8,0.0,1.0,403.0,769.0,1.0,0,828.0,1
433,433,0.3672335900056053,0.4,1.0,1.0,487.0,644.0,1.0,1,419.0,1
434,434,0.7099446360096603,0.7,0.0,0.0,340.0,914.0,1.0,0,-4.0,0
435,435,-0.15983112583715287,-0.2,0.0,1.0,434.0,875.0,1.0,0,581.0,1
436,436,0.7076236746564729,0.7,0.0,0.0,293.0,744.0,0.0,1,303.0,1
437,437,0.25592437973890003,0.3,1.0,1.0,316.0,670.0,1.0,1,1304.0,1
438,438,-0.02544724914630303,-0.0,0.0,1.0,373.0,512.0,1.0,0,365.0,1
439,439,0.2044959906277074,0.2,1.0,1.0,302.0,792.0,1.0,1,696.0,1
440,440,0.21309564194310993,0.2,0.0,0.0,354.0,702.0,0.0,1,394.0,1
441,441,0.8045401403274007,0.8,1.0,1.0,391.0,590.0,1.0,1,469.0,1
442,442,-0.5254418040597344,-0.5,0.0,1.0,480.0,686.0,1.0,0,284.0,1
443,443,-0.22512800226736795,-0.2,0.0,1.0,483.0,510.0,1.0,0,367.0,1
444,444,-0.2076262267616823,-0.2,0.0,1.0,383.0,800.0,1.0,0,387.0,1
445,445,0.15786151091339773,0.2,1.0,1.0,263.0,898.0,1.0,1,509.0,1
446,446,-0.8010062586146193,-0.8,0.0,1.0,260.0,664.0,1.0,0,216.0,1
447,447,0.23288295041245222,0.2,0.0,0.0,382.0,935.0,0.0,1,123.0,1
448,448,0.6142295507212804,0.6,1.0,1.0,439.0,922.0,0.0,0,-1.0,0
449,449,-0.06755683792829548,-0.1,1.0,0.0,302.0,874.0,1.0,1,484.0,0
450,450,-0.21853757120313766,-0.2,0.0,1.0,320.0,842.0,1.0,0,768.0,1
451,451,0.10358155194208807,0.1,1.0,1.0,472.0,663.0,1.0,1,555.0,1
452,452,0.33918747506162517,0.3,1.0,1.0,388.0,927.0,1.0,1,765.0,1
453,453,-0.650203957968757,-0.7,0.0,1.0,253.0,860.0,1.0,0,217.0,1
454,454,-0.5763895562207935,-0.6,1.0,0.0,256.0,960.0,0.0,0,264.0,1
455,455,-0.6607710191435594,-0.7,0.0,1.0,267.0,676.0,1.0,0,377.0,1
456,456,-0.12558335256793718,-0.1,1.0,0.0,282.0,816.0,0.0,0,922.0,1
457,457,0.7856386606940985,0.8,1.0,1.0,410.0,947.0,1.0,1,203.0,1
458,458,0.273376619004846,0.3,1.0,1.0,319.0,626.0,1.0,1,665.0,1
459,459,-0.17792150456391698,-0.2,1.0,0.0,474.0,661.0,0.0,0,1295.0,1
460,460,0.6777652587989095,0.7,1.0,1.0,332.0,921.0,1.0,1,287.0,1
461,461,-0.6610401582375441,-0.7,0.0,1.0,262.0,514.0,1.0,0,444.0,1
462,462,-0.3747923992827512,-0.4,0.0,1.0,459.0,871.0,1.0,0,430.0,1
463,463,0.08237823369360842,0.1,1.0,1.0,382.0,704.0,1.0,1,504.0,1
464,464,-0.7983217837810177,-0.8,1.0,0.0,442.0,687.0,0.0,0,431.0,1
465,465,0.4007445715911041,0.4,0.0,0.0,344.0,733.0,0.0,1,373.0,1
466,466,-0.7492529185879265,-0.7,0.0,1.0,397.0,938.0,1.0,0,195.0,1
467,467,-0.8928874774321608,-0.9,1.0,0.0,295.0,900.0,0.0,0,155.0,1
468,468,0.7557274681513714,0.8,1.0,1.0,383.0,638.0,1.0,1,379.0,1
469,469,0.6128154287283208,0.6,0.0,0.0,307.0,906.0,1.0,0,-23.0,0
470,470,-0.5983383847239161,-0.6,0.0,1.0,347.0,768.0,1.0,0,305.0,1
471,471,0.6103458640324434,0.6,0.0,0.0,412.0,833.0,0.0,1,215.0,1
472,472,-0.1327585161742354,-0.1,0.0,1.0,310.0,660.0,1.0,0,370.0,1
473,473,0.8979500466771114,0.9,0.0,0.0,284.0,886.0,0.0,1,240.0,1
474,474,0.058581076704834145,0.1,1.0,1.0,379.0,573.0,1.0,1,4048.0,1
475,475,-0.016137123256255825,-0.0,0.0,1.0,386.0,837.0,1.0,0,447.0,1
476,476,-0.8565037392420188,-0.9,1.0,0.0,321.0,592.0,0.0,0,257.0,1
477,477,0.8286100877838075,0.8,0.0,0.0,309.0,513.0,0.0,1,558.0,1
478,478,0.17323634944948008,0.2,1.0,1.0,440.0,734.0,1.0,1,376.0,1
479,479,0.4329946841321991,0.4,0.0,0.0,398.0,602.0,0.0,1,450.0,1
480,480,0.357498830869709,0.4,1.0,1.0,440.0,594.0,1.0,1,516.0,1
481,481,-0.6966164848142187,-0.7,1.0,0.0,378.0,856.0,0.0,0,336.0,1
482,482,-0.07673625890309288,-0.1,0.0,1.0,356.0,925.0,1.0,0,479.0,1
483,483,0.4388887524271182,0.4,0.0,0.0,392.0,759.0,0.0,1,329.0,1
484,484,0.8085814931344927,0.8,0.0,0.0,263.0,559.0,0.0,1,448.0,1
485,485,-0.38862440636632156,-0.4,1.0,0.0,356.0,778.0,0.0,0,396.0,1
486,486,0.512652982309531,0.5,1.0,1.0,361.0,931.0,1.0,1,488.0,1
487,487,0.7203601887924419,0.7,1.0,1.0,320.0,812.0,1.0,1,288.0,1
488,488,-0.18587461678078887,-0.2,0.0,1.0,270.0,972.0,1.0,0,38.0,1
489,489,0.1869233656287489,0.2,0.0,0.0,456.0,978.0,0.0,1,406.0,1
490,490,0.027299378436495325,0.0,1.0,1.0,394.0,863.0,1.0,1,823.0,1
491,491,0.4875904072088747,0.5,1.0,1.0,401.0,883.0,1.0,1,246.0,1
492,492,-0.8816187020288335,-0.9,0.0,1.0,379.0,822.0,1.0,0,99.0,1
493,493,-0.38784981634952054,-0.4,1.0,0.0,315.0,683.0,0.0,0,892.0,1
494,494,0.5111118490501184,0.5,1.0,1.0,253.0,965.0,1.0,1,312.0,1
495,495,-0.8529596497301759,-0.9,0.0,1.0,474.0,636.0,1.0,0,310.0,1
496,496,0.4704054245707249,0.5,0.0,0.0,292.0,578.0,0.0,1,380.0,1
497,497,-0.44881083383731163,-0.4,0.0,1.0,268.0,626.0,1.0,0,336.0,1
498,498,0.001695572410224111,0.0,0.0,0.0,310.0,926.0,0.0,1,-116.0,1
499,499,-0.2005805110655282,-0.2,1.0,0.0,275.0,644.0,0.0,0,791.0,1
500,500,0.7582519296087814,0.8,0.0,0.0,381.0,664.0,0.0,1,705.0,1
501,501,0.6372153519182687,0.6,0.0,0.0,300.0,675.0,0.0,1,365.0,1
502,502,-0.5266466466992825,-0.5,0.0,1.0,308.0,865.0,1.0,0,347.0,1
503,503,0.8279024410493917,0.8,1.0,1.0,405.0,784.0,1.0,1,281.0,1
504,504,-0.5533784633063439,-0.6,1.0,0.0,264.0,519.0,0.0,0,407.0,1
505,505,-0.27713856651562563,-0.3,0.0,1.0,448.0,740.0,1.0,0,272.0,1
506,506,-0.5685094150812986,-0.6,1.0,0.0,459.0,757.0,1.0,1,-36.0,0
507,507,-0.18346336804116203,-0.2,0.0,1.0,470.0,655.0,0.0,1,705.0,0
508,508,0.12446598609198578,0.1,0.0,0.0,322.0,773.0,1.0,0,2195.0,0
509,509,0.05779645774424769,0.1,1.0,1.0,416.0,599.0,1.0,1,705.0,1
510,510,0.5736852982329145,0.6,0.0,0.0,492.0,576.0,0.0,1,632.0,1
511,511,0.31887864432867163,0.3,0.0,0.0,346.0,766.0,0.0,1,168.0,1
512,512,-0.5128668696848407,-0.5,1.0,0.0,497.0,547.0,0.0,0,406.0,1
513,513,0.25017878575313957,0.3,1.0,1.0,383.0,704.0,1.0,1,1383.0,1
514,514,-0.061314292686559746,-0.1,0.0,1.0,295.0,556.0,1.0,0,859.0,1
515,515,0.25725935002137257,0.3,0.0,0.0,454.0,993.0,1.0,0,-127.0,0
516,516,-0.4615317086355001,-0.5,0.0,1.0,255.0,524.0,1.0,0,841.0,1
517,517,0.16711045989809825,0.2,0.0,0.0,471.0,977.0,0.0,1,972.0,1
518,518,0.21029055852989564,0.2,0.0,0.0,489.0,954.0,1.0,0,397.0,0
519,519,-0.29912861463821516,-0.3,1.0,0.0,364.0,656.0,0.0,0,760.0,1
520,520,-0.29478925888218865,-0.3,0.0,1.0,297.0,651.0,1.0,0,442.0,1
521,521,-0.29252579373651866,-0.3,1.0,0.0,326.0,997.0,0.0,0,917.0,1
522,522,0.7824192494157146,0.8,1.0,1.0,288.0,800.0,1.0,1,392.0,1
523,523,-0.29763763432799095,-0.3,1.0,0.0,337.0,843.0,0.0,0,510.0,1
524,524,-0.31457720241135023,-0.3,0.0,1.0,411.0,813.0,1.0,0,276.0,1
525,525,0.47311017129248156,0.5,0.0,0.0,461.0,970.0,1.0,0,49.0,0
526,526,0.6451253001195644,0.6,0.0,0.0,299.0,804.0,0.0,1,377.0,1
527,527,-0.14155890646797942,-0.1,0.0,1.0,266.0,890.0,1.0,0,324.0,1
528,528,-0.7277440637182051,-0.7,1.0,0.0,458.0,690.0,0.0,0,832.0,1
529,529,0.4005488106613143,0.4,1.0,1.0,304.0,810.0,1.0,1,826.0,1
530,530,-0.847664267324697,-0.8,1.0,0.0,383.0,905.0,0.0,0,492.0,1
531,531,0.2381459351774612,0.2,0.0,0.0,339.0,826.0,0.0,1,255.0,1
532,532,-0.09623334328984767,-0.1,1.0,0.0,331.0,615.0,0.0,0,724.0,1
533,533,-0.13767140429725166,-0.1,0.0,1.0,394.0,550.0,1.0,0,736.0,1
534,534,0.16226838023417056,0.2,1.0,1.0,470.0,553.0,1.0,1,2357.0,1
535,535,-0.7941665745924126,-0.8,0.0,1.0,457.0,842.0,1.0,0,171.0,1
536,536,0.27467172739165113,0.3,0.0,0.0,272.0,762.0,0.0,1,476.0,1
537,537,-0.27561686674943486,-0.3,1.0,0.0,376.0,990.0,0.0,0,684.0,1
538,538,-0.11655564815300723,-0.1,1.0,0.0,388.0,759.0,0.0,0,883.0,1
539,539,0.1487279958908193,0.1,0.0,0.0,405.0,769.0,0.0,1,226.0,1
540,540,-0.8285870918236011,-0.8,1.0,0.0,398.0,620.0,0.0,0,252.0,1
541,541,0.0023577860596276645,0.0,1.0,1.0,314.0,877.0,1.0,1,469.0,1
542,542,-0.31922741065559757,-0.3,0.0,1.0,326.0,616.0,1.0,0,378.0,1
543,543,-0.41491340223266315,-0.4,1.0,0.0,272.0,971.0,0.0,0,167.0,1
544,544,-0.13291665453482004,-0.1,0.0,1.0,442.0,864.0,1.0,0,144.0,1
545,545,0.3068979089546843,0.3,0.0,0.0,300.0,518.0,0.0,1,3882.0,1
546,546,-0.6456764682572211,-0.6,0.0,1.0,325.0,741.0,1.0,0,424.0,1
547,547,0.01209874677761702,0.0,1.0,1.0,392.0,734.0,0.0,0,294.0,0
548,548,0.3078242789953848,0.3,0.0,0.0,384.0,689.0,0.0,1,967.0,1
549,549,-0.4200115819219872,-0.4,0.0,1.0,288.0,643.0,1.0,0,559.0,1
550,550,-0.08746390282648764,-0.1,1.0,0.0,301.0,583.0,0.0,0,516.0,1
551,551,-0.7991582962518475,-0.8,0.0,1.0,339.0,615.0,1.0,0,466.0,1
552,552,-0.011224078360130396,-0.0,1.0,0.0,451.0,860.0,0.0,0,3099.0,1
553,553,0.7452387275063573,0.7,0.0,0.0,328.0,615.0,0.0,1,307.0,1
554,554,0.7575345263856942,0.8,0.0,0.0,432.0,888.0,0.0,1,260.0,1
555,555,0.5641902246107747,0.6,0.0,0.0,426.0,681.0,0.0,1,873.0,1
556,556,0.17009508726848177,0.2,1.0,1.0,444.0,998.0,1.0,1,38.0,1
557,557,0.4510016167552694,0.5,1.0,1.0,321.0,554.0,1.0,1,365.0,1
558,558,-0.8272080953731373,-0.8,1.0,0.0,489.0,644.0,0.0,0,267.0,1
559,559,-0.07824646624535136,-0.1,0.0,1.0,336.0,621.0,1.0,0,1193.0,1
560,560,0.43733255748311517,0.4,0.0,0.0,336.0,720.0,0.0,1,254.0,1
561,561,0.4679874901323172,0.5,0.0,0.0,311.0,893.0,0.0,1,416.0,1
562,562,0.529879201218214,0.5,1.0,1.0,430.0,677.0,1.0,1,613.0,1
563,563,-0.10406025895622772,-0.1,0.0,1.0,439.0,721.0,1.0,0,1380.0,1
564,564,0.44319878218804665,0.4,1.0,1.0,387.0,512.0,1.0,1,521.0,1
565,565,-0.6291275376788769,-0.6,0.0,1.0,411.0,945.0,1.0,0,284.0,1
566,566,0.7379922919406455,0.7,0.0,0.0,472.0,997.0,0.0,1,441.0,1
567,567,-0.2900875682938213,-0.3,0.0,1.0,303.0,526.0,1.0,0,321.0,1
568,568,0.8277916790249639,0.8,1.0,1.0,482.0,531.0,1.0,1,697.0,1
569,569,-0.5892092444378275,-0.6,0.0,1.0,393.0,684.0,1.0,0,383.0,1
570,570,-0.29304369396117425,-0.3,0.0,1.0,421.0,638.0,1.0,0,1351.0,1
571,571,-0.6907340661101123,-0.7,1.0,0.0,408.0,834.0,0.0,0,438.0,1
572,572,0.010251877461144976,0.0,0.0,0.0,359.0,508.0,0.0,1,613.0,1
573,573,-0.066051899229843,-0.1,1.0,0.0,291.0,950.0,1.0,1,1129.0,0
574,574,-0.8841221523416726,-0.9,1.0,0.0,375.0,887.0,0.0,0,318.0,1
575,575,-0.13599185972550898,-0.1,0.0,1.0,317.0,903.0,1.0,0,290.0,1
576,576,-0.5191563488779352,-0.5,0.0,1.0,353.0,703.0,1.0,0,304.0,1
577,577,-0.8515306422771615,-0.9,0.0,1.0,457.0,556.0,1.0,0,507.0,1
578,578,0.34774391671320115,0.3,0.0,0.0,284.0,881.0,0.0,1,785.0,1
579,579,0.44163763432779557,0.4,1.0,1.0,488.0,836.0,1.0,1,326.0,1
580,580,0.6072824138722478,0.6,0.0,0.0,391.0,733.0,0.0,1,826.0,1
581,581,0.5922409447515132,0.6,0.0,0.0,474.0,872.0,0.0,1,1044.0,1
582,582,0.8252769629047757,0.8,1.0,1.0,340.0,998.0,1.0,1,162.0,1
583,583,0.6633384756969135,0.7,0.0,0.0,471.0,691.0,0.0,1,1358.0,1
584,584,0.2338910196895173,0.2,0.0,0.0,367.0,877.0,1.0,0,-4.0,0
585,585,0.490330253607807,0.5,1.0,1.0,270.0,901.0,1.0,1,1659.0,1
586,586,-0.24498170079176718,-0.2,1.0,0.0,286.0,561.0,0.0,0,1343.0,1
587,587,0.7168363597540041,0.7,0.0,0.0,482.0,944.0,0.0,1,284.0,1
588,588,-0.044177474372346204,-0.0,0.0,1.0,349.0,812.0,1.0,0,499.0,1
589,589,-0.41511201930501385,-0.4,1.0,0.0,305.0,715.0,0.0,0,770.0,1
590,590,-0.8656058840497574,-0.9,0.0,1.0,425.0,504.0,1.0,0,501.0,1
591,591,0.549230205308913,0.5,0.0,0.0,308.0,559.0,0.0,1,773.0,1
592,592,-0.6146686197109062,-0.6,0.0,1.0,355.0,922.0,1.0,0,393.0,1
593,593,-0.43875909380715156,-0.4,0.0,1.0,439.0,586.0,1.0,0,635.0,1
594,594,-0.16075908043791676,-0.2,1.0,0.0,287.0,642.0,1.0,1,401.0,0
595,595,-0.6276947653129403,-0.6,1.0,0.0,420.0,979.0,0.0,0,251.0,1
596,596,0.7196488520314622,0.7,0.0,0.0,480.0,580.0,0.0,1,540.0,1
597,597,-0.21820268410092558,-0.2,0.0,1.0,256.0,821.0,1.0,0,153.0,1
598,598,0.1631403535757764,0.2,0.0,0.0,336.0,862.0,1.0,0,1792.0,0
599,599,-0.3051749624095653,-0.3,1.0,0.0,482.0,802.0,0.0,0,846.0,1
600,600,0.2257717692022666,0.2,1.0,1.0,393.0,852.0,1.0,1,815.0,1
601,601,-0.3208389569754041,-0.3,0.0,1.0,356.0,885.0,1.0,0,489.0,1
602,602,-0.23256181796338515,-0.2,0.0,1.0,385.0,870.0,1.0,0,235.0,1
603,603,0.5315542725910433,0.5,0.0,0.0,426.0,729.0,0.0,1,385.0,1
604,604,-0.7504350021615678,-0.8,0.0,1.0,483.0,693.0,1.0,0,184.0,1
605,605,-0.8247905169071658,-0.8,1.0,0.0,348.0,704.0,0.0,0,78.0,1
606,606,0.5520699362913098,0.6,1.0,1.0,338.0,979.0,1.0,1,2343.0,1
607,607,-0.8131914851108901,-0.8,1.0,0.0,294.0,951.0,0.0,0,185.0,1
608,608,0.7864116983735786,0.8,1.0,1.0,480.0,708.0,1.0,1,292.0,1
609,609,0.596660704562458,0.6,1.0,1.0,453.0,894.0,1.0,1,653.0,1
610,610,0.36814299035057496,0.4,1.0,1.0,303.0,727.0,1.0,1,670.0,1
611,611,0.3092323214432896,0.3,1.0,1.0,347.0,512.0,1.0,1,471.0,1
612,612,-0.4147732035670207,-0.4,1.0,0.0,410.0,706.0,0.0,0,814.0,1
613,613,-0.6305465327795323,-0.6,1.0,0.0,430.0,737.0,0.0,0,563.0,1
614,614,-0.8015022318377181,-0.8,1.0,0.0,357.0,821.0,0.0,0,372.0,1
615,615,0.7209122479410549,0.7,1.0,1.0,444.0,771.0,1.0,1,75.0,1
616,616,-0.7569051043865552,-0.8,0.0,1.0,273.0,544.0,1.0,0,243.0,1
617,617,-0.4687552105121295,-0.5,0.0,1.0,461.0,854.0,1.0,0,445.0,1
618,618,-0.6095957211633938,-0.6,0.0,1.0,495.0,568.0,1.0,0,557.0,1
619,619,-0.7469736934625468,-0.7,1.0,0.0,473.0,871.0,0.0,0,196.0,1
620,620,-0.6847259810391628,-0.7,1.0,0.0,278.0,841.0,0.0,0,81.0,1
621,621,0.7652989085117706,0.8,0.0,0.0,374.0,875.0,0.0,1,81.0,1
622,622,-0.3559966176323611,-0.4,1.0,0.0,257.0,775.0,0.0,0,358.0,1
623,623,0.21982894686253174,0.2,1.0,1.0,452.0,912.0,1.0,1,1866.0,1
624,624,-0.20806582422609377,-0.2,0.0,1.0,316.0,819.0,1.0,0,145.0,1
625,625,0.27325511713530115,0.3,1.0,1.0,421.0,616.0,1.0,1,493.0,1
626,626,-0.7744370798870228,-0.8,0.0,1.0,412.0,683.0,1.0,0,345.0,1
627,627,0.633790290813831,0.6,1.0,1.0,301.0,902.0,1.0,1,497.0,1
628,628,0.24390360631863783,0.2,0.0,0.0,383.0,752.0,0.0,1,855.0,1
629,629,-0.7220580268488557,-0.7,1.0,0.0,479.0,602.0,0.0,0,299.0,1
630,630,0.47517706317891706,0.5,0.0,0.0,370.0,587.0,0.0,1,643.0,1
631,631,0.8354722012537265,0.8,1.0,1.0,441.0,559.0,1.0,1,200.0,1
632,632,0.17896183880900962,0.2,0.0,0.0,479.0,847.0,0.0,1,2334.0,1
633,633,-0.6651761660079708,-0.7,1.0,0.0,325.0,991.0,0.0,0,984.0,1
634,634,-0.3569783145085247,-0.4,1.0,0.0,283.0,639.0,0.0,0,388.0,1
635,635,-0.4286046643772877,-0.4,1.0,0.0,360.0,842.0,0.0,0,798.0,1
636,636,-0.5543857383395929,-0.6,0.0,1.0,347.0,787.0,1.0,0,826.0,1
637,637,-0.7301712624424791,-0.7,0.0,1.0,391.0,942.0,1.0,0,47.0,1
638,638,-0.7138520955820149,-0.7,0.0,1.0,463.0,908.0,1.0,0,179.0,1
639,639,0.42622820727607513,0.4,0.0,0.0,458.0,638.0,0.0,1,354.0,1
640,640,0.8982547495753644,0.9,0.0,0.0,344.0,981.0,0.0,1,215.0,1
641,641,0.23471973159063542,0.2,1.0,1.0,380.0,754.0,1.0,1,236.0,1
642,642,-0.053997009771918125,-0.1,1.0,0.0,371.0,724.0,1.0,1,1305.0,0
643,643,-0.1813318474562381,-0.2,1.0,0.0,410.0,920.0,0.0,0,850.0,1
644,644,0.5543529966090534,0.6,0.0,0.0,333.0,894.0,0.0,1,613.0,1
645,645,-0.15045835258246532,-0.2,1.0,0.0,394.0,775.0,0.0,0,1261.0,1
646,646,-0.6533067715970039,-0.7,1.0,0.0,448.0,941.0,0.0,0,451.0,1
647,647,-0.40114133788915773,-0.4,0.0,1.0,282.0,874.0,1.0,0,144.0,1
648,648,0.8078868232531468,0.8,0.0,0.0,392.0,769.0,0.0,1,309.0,1
649,649,-0.20024016524560084,-0.2,0.0,1.0,391.0,807.0,1.0,0,182.0,1
650,650,0.6789261106459848,0.7,0.0,0.0,369.0,774.0,0.0,1,477.0,1
651,651,-0.467226885904361,-0.5,0.0,1.0,321.0,522.0,1.0,0,307.0,1
652,652,-0.23301309382115243,-0.2,0.0,1.0,398.0,903.0,1.0,0,469.0,1
653,653,-0.1978721995638416,-0.2,0.0,1.0,344.0,864.0,1.0,0,1612.0,1
654,654,0.4229062674922305,0.4,0.0,0.0,303.0,877.0,0.0,1,250.0,1
655,655,0.6798272469102614,0.7,1.0,1.0,371.0,666.0,1.0,1,713.0,1
656,656,-0.4448571734911591,-0.4,1.0,0.0,394.0,744.0,0.0,0,502.0,1
657,657,0.514234553595308,0.5,0.0,0.0,361.0,778.0,0.0,1,551.0,1
658,658,-0.6082548980856892,-0.6,1.0,0.0,380.0,958.0,0.0,0,182.0,1
659,659,0.5794144376194877,0.6,0.0,0.0,284.0,643.0,0.0,1,823.0,1
660,660,0.7980014188788979,0.8,0.0,0.0,440.0,854.0,0.0,1,396.0,1
661,661,0.5380182605870844,0.5,0.0,0.0,250.0,799.0,0.0,1,271.0,1
662,662,0.5192440083755591,0.5,1.0,1.0,275.0,655.0,1.0,1,460.0,1
663,663,0.07840339051950918,0.1,1.0,1.0,408.0,730.0,1.0,1,2142.0,1
664,664,0.7327526602897908,0.7,0.0,0.0,452.0,716.0,0.0,1,242.0,1
665,665,-0.24129650134560743,-0.2,1.0,0.0,279.0,846.0,0.0,0,2805.0,1
666,666,0.6376665201803146,0.6,0.0,0.0,418.0,979.0,0.0,1,343.0,1
667,667,-0.6790659289620435,-0.7,0.0,1.0,383.0,654.0,1.0,0,483.0,1
668,668,-0.3473110863088512,-0.3,0.0,1.0,436.0,989.0,1.0,0,795.0,1
669,669,0.30455188271727274,0.3,0.0,0.0,282.0,934.0,1.0,0,-66.0,0
670,670,-0.06354431933344051,-0.1,0.0,1.0,267.0,880.0,1.0,0,-7.0,1
671,671,-0.3173295476795992,-0.3,1.0,0.0,309.0,927.0,0.0,0,784.0,1
672,672,-0.853211030756999,-0.9,1.0,0.0,401.0,936.0,1.0,1,-157.0,0
673,673,0.2892666218056733,0.3,0.0,0.0,491.0,533.0,0.0,1,526.0,1
674,674,-0.39503259955556935,-0.4,1.0,0.0,257.0,725.0,0.0,0,348.0,1
675,675,0.6608435068738444,0.7,1.0,1.0,318.0,903.0,1.0,1,229.0,1
676,676,0.6906726966245326,0.7,1.0,1.0,303.0,921.0,1.0,1,86.0,1
677,677,-0.4088981225503346,-0.4,0.0,1.0,330.0,788.0,1.0,0,312.0,1
678,678,-0.4889584506109352,-0.5,1.0,0.0,499.0,765.0,0.0,0,626.0,1
679,679,-0.4086393676653558,-0.4,1.0,0.0,466.0,859.0,0.0,0,565.0,1
680,680,-0.8092094869210082,-0.8,0.0,1.0,368.0,859.0,1.0,0,303.0,1
681,681,-0.724816937181995,-0.7,0.0,1.0,454.0,501.0,1.0,0,255.0,1
682,682,-0.5256711056143435,-0.5,1.0,0.0,336.0,687.0,0.0,0,637.0,1
683,683,0.8479037259766927,0.8,0.0,0.0,314.0,670.0,0.0,1,476.0,1
684,684,-0.6156334949655663,-0.6,1.0,0.0,447.0,780.0,0.0,0,113.0,1
685,685,-0.3799158553000407,-0.4,0.0,1.0,347.0,568.0,1.0,0,1615.0,1
686,686,-0.697739549962746,-0.7,0.0,1.0,362.0,787.0,1.0,0,221.0,1
687,687,0.535516317884062,0.5,1.0,1.0,397.0,974.0,1.0,1,299.0,1
688,688,-0.27236263508844316,-0.3,1.0,0.0,287.0,982.0,0.0,0,1.0,1
689,689,-0.13131816149297582,-0.1,1.0,0.0,354.0,733.0,0.0,0,2513.0,1
690,690,0.5865196416142956,0.6,0.0,0.0,444.0,523.0,0.0,1,293.0,1
691,691,0.4718449880746788,0.5,1.0,1.0,487.0,877.0,1.0,1,386.0,1
692,692,0.4196582275434254,0.4,1.0,1.0,325.0,794.0,1.0,1,111.0,1
693,693,0.2262745874146853,0.2,1.0,1.0,325.0,506.0,1.0,1,1359.0,1
694,694,0.6203716245081426,0.6,0.0,0.0,320.0,524.0,0.0,1,546.0,1
695,695,-0.8808268336941533,-0.9,1.0,0.0,346.0,589.0,0.0,0,405.0,1
696,696,-0.3675844127222462,-0.4,0.0,1.0,301.0,656.0,1.0,0,833.0,1
697,697,-0.43463490447367603,-0.4,0.0,1.0,298.0,605.0,1.0,0,377.0,1
698,698,-0.5109308162797389,-0.5,1.0,0.0,431.0,674.0,0.0,0,385.0,1
699,699,0.44274683519642444,0.4,0.0,0.0,336.0,592.0,0.0,1,432.0,1
700,700,0.05592252742869619,0.1,0.0,0.0,382.0,667.0,1.0,0,1051.0,0
701,701,-0.6417822474735893,-0.6,0.0,1.0,428.0,896.0,0.0,1,-124.0,0
702,702,0.5274898355824801,0.5,0.0,0.0,438.0,746.0,0.0,1,406.0,1
703,703,-0.08144092853390916,-0.1,1.0,0.0,433.0,963.0,0.0,0,1244.0,1
704,704,-0.27121723829833067,-0.3,0.0,1.0,299.0,513.0,1.0,0,538.0,1
705,705,-0.3323761870482803,-0.3,0.0,1.0,413.0,926.0,1.0,0,91.0,1
706,706,0.7917217562714643,0.8,1.0,1.0,499.0,810.0,1.0,1,1781.0,1
707,707,0.7094376919126387,0.7,0.0,0.0,359.0,987.0,0.0,1,324.0,1
708,708,0.033703360579385944,0.0,0.0,0.0,482.0,635.0,0.0,1,1473.0,1
709,709,-0.3594698788608027,-0.4,0.0,1.0,259.0,638.0,1.0,0,363.0,1
710,710,0.45300727849835665,0.5,1.0,1.0,385.0,526.0,1.0,1,179.0,1
711,711,-0.6372974217793883,-0.6,1.0,0.0,398.0,730.0,0.0,0,102.0,1
712,712,0.4037224317434439,0.4,0.0,0.0,383.0,898.0,0.0,1,409.0,1
713,713,0.17806321851021456,0.2,1.0,1.0,331.0,960.0,1.0,1,179.0,1
714,714,0.46927118351631225,0.5,0.0,0.0,339.0,791.0,0.0,1,460.0,1
715,715,0.2059517843140336,0.2,0.0,0.0,385.0,698.0,0.0,1,1417.0,1
716,716,0.22337731369515923,0.2,0.0,0.0,418.0,696.0,0.0,1,796.0,1
717,717,-0.2981913320986572,-0.3,0.0,1.0,407.0,841.0,1.0,0,482.0,1
718,718,0.5762419687000385,0.6,1.0,1.0,443.0,792.0,1.0,1,265.0,1
719,719,0.5011570953139183,0.5,0.0,0.0,358.0,791.0,0.0,1,631.0,1
720,720,0.5544758771154946,0.6,1.0,1.0,407.0,606.0,1.0,1,237.0,1
721,721,-0.5293837217816182,-0.5,1.0,0.0,298.0,564.0,0.0,0,328.0,1
722,722,0.30395604361816264,0.3,1.0,1.0,265.0,678.0,1.0,1,987.0,1
723,723,0.07591047834180786,0.1,1.0,1.0,380.0,789.0,0.0,0,31.0,0
724,724,0.15934524119960047,0.2,1.0,1.0,457.0,781.0,1.0,1,1972.0,1
725,725,-0.39615624175537445,-0.4,0.0,1.0,430.0,539.0,1.0,0,671.0,1
726,726,-0.06049529941404619,-0.1,1.0,0.0,368.0,966.0,0.0,0,1776.0,1
727,727,-0.25024820739250686,-0.3,1.0,0.0,454.0,891.0,0.0,0,45.0,1
728,728,0.7584184379800266,0.8,0.0,0.0,464.0,516.0,0.0,1,350.0,1
729,729,0.7291516229946574,0.7,0.0,0.0,478.0,977.0,0.0,1,135.0,1
730,730,0.259220911415993,0.3,1.0,1.0,415.0,725.0,1.0,1,2240.0,1
731,731,-0.7022574703836207,-0.7,0.0,1.0,356.0,813.0,1.0,0,271.0,1
732,732,0.4568620825442061,0.5,1.0,1.0,401.0,821.0,1.0,1,418.0,1
733,733,-0.7997621395127967,-0.8,1.0,0.0,278.0,996.0,0.0,0,216.0,1
734,734,0.3090170811169993,0.3,0.0,0.0,250.0,576.0,0.0,1,644.0,1
735,735,-0.4084360843510744,-0.4,1.0,0.0,389.0,995.0,0.0,0,476.0,1
736,736,0.5398359895965831,0.5,1.0,1.0,417.0,812.0,1.0,1,301.0,1
737,737,0.3390551084806962,0.3,0.0,0.0,360.0,822.0,0.0,1,888.0,1
738,738,0.7984928842430629,0.8,1.0,1.0,337.0,535.0,1.0,1,368.0,1
739,739,-0.08187879047571611,-0.1,0.0,1.0,439.0,586.0,1.0,0,2155.0,1
740,740,0.7688153011945368,0.8,1.0,1.0,372.0,874.0,1.0,1,304.0,1
741,741,-0.6032309271279866,-0.6,0.0,1.0,291.0,843.0,1.0,0,46.0,1
742,742,0.8405915220472665,0.8,1.0,1.0,305.0,753.0,1.0,1,742.0,1
743,743,-0.2813673361004343,-0.3,1.0,0.0,292.0,596.0,0.0,0,802.0,1
744,744,-0.608743957784007,-0.6,1.0,0.0,266.0,713.0,0.0,0,461.0,1
745,745,-0.02482208664723118,-0.0,1.0,0.0,417.0,571.0,0.0,0,392.0,1
746,746,0.4840675326560987,0.5,0.0,0.0,292.0,701.0,0.0,1,587.0,1
747,747,-0.8115584272449344,-0.8,0.0,1.0,492.0,827.0,1.0,0,241.0,1
748,748,-0.017284448512441486,-0.0,0.0,1.0,413.0,636.0,0.0,1,621.0,0
749,749,0.16444846424453197,0.2,1.0,1.0,482.0,874.0,1.0,1,1544.0,1
750,750,-0.7047974908956589,-0.7,0.0,1.0,297.0,723.0,1.0,0,450.0,1
751,751,-0.6708386058448884,-0.7,0.0,1.0,389.0,913.0,1.0,0,498.0,1
752,752,-0.1826824271052685,-0.2,1.0,0.0,391.0,957.0,0.0,0,2032.0,1
753,753,-0.3028029261609013,-0.3,0.0,1.0,345.0,852.0,1.0,0,493.0,1
754,754,0.003951760389228065,0.0,0.0,0.0,368.0,615.0,1.0,0,617.0,0
755,755,0.7123189815917764,0.7,0.0,0.0,371.0,907.0,0.0,1,152.0,1
756,756,0.8947433184364756,0.9,1.0,1.0,348.0,759.0,1.0,1,223.0,1
757,757,0.6460377906579605,0.6,1.0,1.0,447.0,868.0,1.0,1,135.0,1
758,758,0.4115860502893157,0.4,1.0,1.0,459.0,942.0,1.0,1,179.0,1
759,759,-0.7912247788798619,-0.8,0.0,1.0,371.0,645.0,1.0,0,124.0,1
760,760,0.05623283520283917,0.1,1.0,1.0,400.0,803.0,1.0,1,307.0,1
761,761,-0.6123309036026856,-0.6,0.0,1.0,385.0,630.0,1.0,0,365.0,1
762,762,0.3594020302145332,0.4,0.0,0.0,293.0,732.0,1.0,0,85.0,0
763,763,-0.03455268416045443,-0.0,0.0,1.0,287.0,777.0,1.0,0,666.0,1
764,764,0.0671404625711598,0.1,1.0,1.0,344.0,819.0,1.0,1,267.0,1
765,765,-0.7279100695696792,-0.7,1.0,0.0,474.0,568.0,0.0,0,578.0,1
766,766,0.6814976321342573,0.7,1.0,1.0,350.0,957.0,1.0,1,1523.0,1
767,767,0.22969200851621385,0.2,0.0,0.0,467.0,763.0,0.0,1,3390.0,1
768,768,-0.8818611820030423,-0.9,0.0,1.0,251.0,986.0,1.0,0,123.0,1
769,769,-0.15611250699293056,-0.2,1.0,0.0,337.0,542.0,0.0,0,1381.0,1
770,770,0.12531144913900338,0.1,0.0,0.0,398.0,557.0,0.0,1,2045.0,1
771,771,0.13186038984952864,0.1,1.0,1.0,422.0,918.0,1.0,1,3660.0,1
772,772,0.8728567127568935,0.9,0.0,0.0,475.0,506.0,0.0,1,469.0,1
773,773,-0.1798045902938874,-0.2,0.0,1.0,267.0,781.0,1.0,0,1192.0,1
774,774,-0.37044808720926503,-0.4,1.0,0.0,293.0,578.0,0.0,0,759.0,1
775,775,-0.5626767185293817,-0.6,1.0,0.0,475.0,669.0,0.0,0,356.0,1
776,776,0.04851577583418154,0.0,1.0,1.0,459.0,988.0,0.0,0,363.0,0
777,777,0.723043866560929,0.7,1.0,1.0,364.0,823.0,1.0,1,333.0,1
778,778,-0.09087760410081958,-0.1,0.0,1.0,325.0,623.0,0.0,1,632.0,0
779,779,0.10860617936820682,0.1,0.0,0.0,311.0,969.0,1.0,0,300.0,0
780,780,-0.20606480934177185,-0.2,0.0,1.0,293.0,600.0,1.0,0,357.0,1
781,781,0.6790416963348939,0.7,0.0,0.0,266.0,580.0,0.0,1,234.0,1
782,782,0.5571555852690827,0.6,1.0,1.0,362.0,759.0,1.0,1,399.0,1
783,783,-0.6653282200999995,-0.7,1.0,0.0,388.0,905.0,0.0,0,187.0,1
784,784,-0.24247784063945144,-0.2,1.0,0.0,393.0,676.0,0.0,0,1051.0,1
785,785,0.5054583571327042,0.5,1.0,1.0,429.0,676.0,1.0,1,375.0,1
786,786,-0.10223832650328757,-0.1,0.0,1.0,268.0,928.0,1.0,0,424.0,1
787,787,0.679189657652515,0.7,1.0,1.0,401.0,699.0,1.0,1,260.0,1
788,788,0.32614418552142965,0.3,0.0,0.0,363.0,905.0,0.0,1,372.0,1
789,789,-0.5800269095560274,-0.6,1.0,0.0,332.0,904.0,0.0,0,294.0,1
790,790,-0.485910797222096,-0.5,0.0,1.0,308.0,579.0,1.0,0,323.0,1
791,791,-0.1037619401030705,-0.1,1.0,0.0,298.0,959.0,0.0,0,423.0,1
792,792,-0.04464283597790819,-0.0,1.0,0.0,376.0,645.0,1.0,1,679.0,0
793,793,0.16297206098779415,0.2,0.0,0.0,431.0,828.0,0.0,1,201.0,1
794,794,0.30024414872229077,0.3,0.0,0.0,492.0,640.0,0.0,1,1098.0,1
795,795,0.05650145585733035,0.1,0.0,0.0,263.0,689.0,1.0,0,2058.0,0
796,796,0.328631686662915,0.3,1.0,1.0,480.0,651.0,1.0,1,819.0,1
797,797,0.37958735210756867,0.4,1.0,1.0,352.0,856.0,1.0,1,252.0,1
798,798,0.1587619733015072,0.2,0.0,0.0,270.0,820.0,0.0,1,440.0,1
799,799,0.5964273310150306,0.6,0.0,0.0,427.0,570.0,0.0,1,573.0,1
800,800,0.751815040190536,0.8,0.0,0.0,362.0,536.0,0.0,1,462.0,1
801,801,0.2593312445519692,0.3,0.0,0.0,341.0,777.0,1.0,0,3192.0,0
802,802,-0.15195823993971924,-0.2,1.0,0.0,396.0,752.0,0.0,0,602.0,1
803,803,0.8397077607499491,0.8,1.0,1.0,407.0,940.0,1.0,1,313.0,1
804,804,0.793817993074816,0.8,1.0,1.0,415.0,752.0,1.0,1,173.0,1
805,805,0.10887822952852699,0.1,0.0,0.0,350.0,584.0,0.0,1,436.0,1
806,806,0.005439164723087253,0.0,1.0,1.0,294.0,728.0,1.0,1,348.0,1
807,807,0.4997162562948597,0.5,1.0,1.0,460.0,767.0,1.0,1,673.0,1
808,808,-0.3396855902334083,-0.3,0.0,1.0,484.0,541.0,1.0,0,705.0,1
809,809,0.5583645529474844,0.6,0.0,0.0,457.0,950.0,0.0,1,1143.0,1
810,810,0.31450745782435174,0.3,0.0,0.0,471.0,929.0,0.0,1,1030.0,1
811,811,0.00517012133437722,0.0,0.0,0.0,275.0,751.0,0.0,1,254.0,1
812,812,0.8581565879861334,0.9,1.0,1.0,437.0,709.0,1.0,1,274.0,1
813,813,-0.40703643890203706,-0.4,1.0,0.0,473.0,834.0,0.0,0,1243.0,1
814,814,-0.10245523408257207,-0.1,0.0,1.0,356.0,626.0,1.0,0,298.0,1
815,815,-0.4551280359761973,-0.5,1.0,0.0,357.0,736.0,0.0,0,607.0,1
816,816,0.869577270044522,0.9,1.0,1.0,428.0,667.0,1.0,1,315.0,1
817,817,0.08875063395539606,0.1,0.0,0.0,305.0,922.0,1.0,0,53.0,0
818,818,0.7136153137448568,0.7,0.0,0.0,273.0,698.0,0.0,1,329.0,1
819,819,0.4997635526421752,0.5,1.0,1.0,491.0,617.0,1.0,1,422.0,1
820,820,-0.10616111653615978,-0.1,0.0,1.0,346.0,586.0,1.0,0,438.0,1
821,821,0.16959810569433553,0.2,0.0,0.0,428.0,764.0,0.0,1,3808.0,1
822,822,0.549586779361351,0.5,1.0,1.0,364.0,595.0,1.0,1,301.0,1
823,823,0.3223246136796619,0.3,0.0,0.0,360.0,920.0,0.0,1,110.0,1
824,824,0.4496093734441927,0.4,1.0,1.0,414.0,513.0,1.0,1,603.0,1
825,825,-0.6240604388380524,-0.6,0.0,1.0,392.0,884.0,1.0,0,584.0,1
826,826,0.5583866549119533,0.6,0.0,0.0,395.0,808.0,0.0,1,1137.0,1
827,827,-0.8855838428019476,-0.9,0.0,1.0,374.0,672.0,1.0,0,314.0,1
828,828,0.8892718583614098,0.9,1.0,1.0,338.0,568.0,1.0,1,454.0,1
829,829,-0.1701221065579095,-0.2,0.0,1.0,441.0,892.0,1.0,0,527.0,1
830,830,0.14909076576578328,0.1,0.0,0.0,435.0,623.0,1.0,0,1432.0,0
831,831,-0.41676780191335644,-0.4,1.0,0.0,271.0,618.0,0.0,0,291.0,1
832,832,-0.6291400480577839,-0.6,0.0,1.0,275.0,554.0,1.0,0,401.0,1
833,833,-0.6320979751711724,-0.6,1.0,0.0,384.0,663.0,0.0,0,263.0,1
834,834,0.6235640152147984,0.6,0.0,0.0,251.0,896.0,0.0,1,653.0,1
835,835,-0.8020269570349583,-0.8,0.0,1.0,431.0,670.0,1.0,0,199.0,1
836,836,0.026804781700853986,0.0,0.0,0.0,442.0,791.0,1.0,0,797.0,0
837,837,0.0066751896619394735,0.0,1.0,1.0,269.0,602.0,1.0,1,1779.0,1
838,838,-0.4511165144279516,-0.5,1.0,0.0,281.0,558.0,0.0,0,601.0,1
839,839,-0.559702087527503,-0.6,1.0,0.0,397.0,733.0,0.0,0,730.0,1
840,840,0.5356751959632938,0.5,1.0,1.0,489.0,712.0,1.0,1,379.0,1
841,841,0.6286259574415974,0.6,0.0,0.0,480.0,941.0,0.0,1,669.0,1
842,842,-0.7239739770341589,-0.7,1.0,0.0,325.0,599.0,0.0,0,316.0,1
843,843,-0.4262519646077232,-0.4,1.0,0.0,480.0,733.0,0.0,0,287.0,1
844,844,0.2993961209188697,0.3,1.0,1.0,374.0,565.0,1.0,1,961.0,1
845,845,-0.5528038333093919,-0.6,1.0,0.0,410.0,966.0,0.0,0,414.0,1
846,846,-0.7389861790144372,-0.7,0.0,1.0,474.0,562.0,1.0,0,394.0,1
847,847,0.17446053028560737,0.2,0.0,0.0,255.0,652.0,1.0,0,743.0,0
848,848,0.430620493910986,0.4,0.0,0.0,369.0,896.0,0.0,1,125.0,1
849,849,-0.16067202138936854,-0.2,0.0,1.0,270.0,718.0,1.0,0,662.0,1
850,850,-0.6068743711348765,-0.6,0.0,1.0,264.0,909.0,1.0,0,247.0,1
851,851,-0.1707919553139171,-0.2,0.0,1.0,325.0,921.0,1.0,0,154.0,1
852,852,0.3461012844593795,0.3,1.0,1.0,298.0,754.0,1.0,1,768.0,1
853,853,-0.8198372188474977,-0.8,0.0,1.0,259.0,566.0,1.0,0,375.0,1
854,854,-0.7942333627408176,-0.8,1.0,0.0,473.0,650.0,0.0,0,347.0,1
855,855,-0.5279565270243378,-0.5,1.0,0.0,266.0,981.0,0.0,0,803.0,1
856,856,-0.7232945852850986,-0.7,1.0,0.0,466.0,987.0,0.0,0,117.0,1
857,857,0.7911450857364631,0.8,1.0,1.0,342.0,971.0,1.0,1,887.0,1
858,858,0.15056768004625554,0.2,0.0,0.0,381.0,548.0,0.0,1,591.0,1
859,859,-0.011663463836947496,-0.0,1.0,0.0,280.0,609.0,0.0,0,891.0,1
860,860,0.6482266160979483,0.6,0.0,0.0,283.0,525.0,0.0,1,342.0,1
861,861,0.623861622644161,0.6,0.0,0.0,302.0,559.0,0.0,1,579.0,1
862,862,-0.64305132060608,-0.6,0.0,1.0,427.0,881.0,1.0,0,362.0,1
863,863,0.5207844322450937,0.5,0.0,0.0,274.0,505.0,0.0,1,551.0,1
864,864,0.3498033315523793,0.3,0.0,0.0,407.0,738.0,0.0,1,675.0,1
865,865,0.8316677253789088,0.8,0.0,0.0,405.0,695.0,0.0,1,250.0,1
866,866,0.2628441932969626,0.3,0.0,0.0,459.0,741.0,0.0,1,1130.0,1
867,867,-0.4831782520776095,-0.5,0.0,1.0,471.0,540.0,1.0,0,839.0,1
868,868,0.24429731232546004,0.2,1.0,1.0,459.0,788.0,1.0,1,303.0,1
869,869,-0.6448830594199952,-0.6,1.0,0.0,332.0,912.0,0.0,0,126.0,1
870,870,-0.8788817497574902,-0.9,0.0,1.0,493.0,685.0,1.0,0,332.0,1
871,871,0.6187097691880604,0.6,1.0,1.0,385.0,940.0,1.0,1,1075.0,1
872,872,-0.15223411632775274,-0.2,0.0,1.0,432.0,535.0,1.0,0,613.0,1
873,873,0.7742909736524658,0.8,1.0,1.0,266.0,513.0,1.0,1,1141.0,1
874,874,0.6994584861282361,0.7,1.0,1.0,457.0,509.0,1.0,1,624.0,1
875,875,-0.8431440699309225,-0.8,0.0,1.0,427.0,861.0,1.0,0,232.0,1
876,876,-0.3192482779697432,-0.3,0.0,1.0,441.0,907.0,1.0,0,222.0,1
877,877,-0.8671802826157652,-0.9,1.0,0.0,263.0,661.0,0.0,0,96.0,1
878,878,-0.027322193519540905,-0.0,0.0,1.0,401.0,516.0,1.0,0,533.0,1
879,879,-0.8903284934278528,-0.9,1.0,0.0,369.0,751.0,0.0,0,270.0,1
880,880,0.010735600359096265,0.0,1.0,1.0,268.0,736.0,0.0,0,1106.0,0
881,881,0.7562147599426933,0.8,0.0,0.0,498.0,747.0,0.0,1,155.0,1
882,882,-0.19384372121435234,-0.2,1.0,0.0,303.0,874.0,0.0,0,273.0,1
883,883,0.2885010213811353,0.3,0.0,0.0,288.0,705.0,0.0,1,317.0,1
884,884,0.15209616278215166,0.2,0.0,0.0,392.0,704.0,1.0,0,2254.0,0
885,885,-0.27620640297271937,-0.3,0.0,1.0,285.0,661.0,1.0,0,274.0,1
886,886,-0.5181275405673749,-0.5,1.0,0.0,290.0,867.0,0.0,0,303.0,1
887,887,-0.4865865110584385,-0.5,0.0,1.0,358.0,549.0,1.0,0,503.0,1
888,888,0.4003425751054318,0.4,0.0,0.0,381.0,612.0,0.0,1,277.0,1
889,889,0.08234194016240504,0.1,1.0,1.0,331.0,877.0,1.0,1,1482.0,1
890,890,-0.3330919361313813,-0.3,0.0,1.0,356.0,523.0,1.0,0,601.0,1
891,891,-0.5811937292687956,-0.6,0.0,1.0,276.0,987.0,1.0,0,397.0,1
892,892,0.7599904563407253,0.8,1.0,1.0,431.0,701.0,1.0,1,808.0,1
893,893,0.4405523209686991,0.4,1.0,1.0,425.0,629.0,1.0,1,1666.0,1
894,894,-0.11213107430845881,-0.1,1.0,0.0,434.0,714.0,0.0,0,2192.0,1
895,895,0.823258482616028,0.8,1.0,1.0,349.0,964.0,1.0,1,187.0,1
896,896,0.5405425269621734,0.5,1.0,1.0,334.0,639.0,1.0,1,207.0,1
897,897,0.1514288453143099,0.2,1.0,1.0,366.0,886.0,1.0,1,1168.0,1
898,898,-0.866501569850735,-0.9,1.0,0.0,488.0,820.0,0.0,0,312.0,1
899,899,-0.5569984670990844,-0.6,1.0,0.0,251.0,989.0,0.0,0,450.0,1
900,900,0.3185992981757778,0.3,0.0,0.0,294.0,797.0,0.0,1,419.0,1
901,901,-0.11890987239320994,-0.1,1.0,0.0,459.0,711.0,1.0,1,920.0,0
902,902,0.705856810060567,0.7,1.0,1.0,450.0,716.0,1.0,1,514.0,1
903,903,-0.8095254686190216,-0.8,0.0,1.0,414.0,696.0,1.0,0,230.0,1
904,904,0.20762737307507984,0.2,1.0,1.0,461.0,914.0,1.0,1,1215.0,1
905,905,-0.5559964471510056,-0.6,0.0,1.0,495.0,811.0,1.0,0,94.0,1
906,906,0.21902091167133853,0.2,1.0,1.0,421.0,780.0,1.0,1,1249.0,1
907,907,-0.7460172621331005,-0.7,1.0,0.0,466.0,613.0,0.0,0,241.0,1
908,908,0.871711701417396,0.9,0.0,0.0,390.0,564.0,0.0,1,116.0,1
909,909,0.6699740665762849,0.7,1.0,1.0,473.0,693.0,1.0,1,314.0,1
910,910,-0.4980522812885059,-0.5,1.0,0.0,462.0,727.0,0.0,0,941.0,1
911,911,-0.42463098237906777,-0.4,1.0,0.0,261.0,957.0,0.0,0,522.0,1
912,912,-0.2078673677071886,-0.2,0.0,1.0,267.0,793.0,1.0,0,260.0,1
913,913,-0.8608285056257364,-0.9,1.0,0.0,416.0,696.0,0.0,0,328.0,1
914,914,0.7366098520660521,0.7,0.0,0.0,383.0,533.0,0.0,1,304.0,1
915,915,-0.3373743725157169,-0.3,0.0,1.0,390.0,665.0,1.0,0,365.0,1
916,916,-0.4567073374803369,-0.5,1.0,0.0,458.0,971.0,0.0,0,221.0,1
917,917,0.5324178090183823,0.5,1.0,1.0,374.0,925.0,1.0,1,221.0,1
918,918,-0.1508919603995994,-0.2,0.0,1.0,278.0,950.0,1.0,0,1082.0,1
919,919,0.3246719006232529,0.3,1.0,1.0,271.0,990.0,1.0,1,489.0,1
920,920,0.5819371875334797,0.6,0.0,0.0,303.0,537.0,0.0,1,410.0,1
921,921,-0.5011078166883512,-0.5,1.0,0.0,437.0,606.0,0.0,0,167.0,1
922,922,0.08071806825379624,0.1,1.0,1.0,397.0,920.0,1.0,1,873.0,1
923,923,-0.3787342168449721,-0.4,0.0,1.0,409.0,668.0,0.0,1,393.0,0
924,924,0.1568530443944679,0.2,1.0,1.0,293.0,534.0,1.0,1,743.0,1
925,925,-0.5654506803544135,-0.6,1.0,0.0,316.0,789.0,0.0,0,785.0,1
926,926,0.2266788744431688,0.2,1.0,1.0,266.0,882.0,1.0,1,2362.0,1
927,927,-0.5922397303239761,-0.6,1.0,0.0,446.0,736.0,0.0,0,438.0,1
928,928,-0.623481116118079,-0.6,1.0,0.0,394.0,923.0,0.0,0,253.0,1
929,929,-0.8451441369726947,-0.8,1.0,0.0,399.0,616.0,0.0,0,275.0,1
930,930,0.019962192025119285,0.0,0.0,0.0,408.0,908.0,1.0,0,1554.0,0
931,931,-0.5801071699870135,-0.6,1.0,0.0,385.0,941.0,0.0,0,104.0,1
932,932,0.25570903561404534,0.3,1.0,1.0,486.0,994.0,1.0,1,80.0,1
933,933,0.3777575437372721,0.4,0.0,0.0,338.0,724.0,0.0,1,928.0,1
934,934,0.03580478174529189,0.0,1.0,1.0,468.0,782.0,1.0,1,200.0,1
935,935,0.3612976929072004,0.4,1.0,1.0,389.0,980.0,1.0,1,191.0,1
936,936,0.17938143674885054,0.2,1.0,1.0,309.0,744.0,0.0,0,2987.0,0
937,937,0.151795049581119,0.2,1.0,1.0,396.0,650.0,0.0,0,1214.0,0
938,938,0.11201649559838212,0.1,0.0,0.0,372.0,726.0,0.0,1,852.0,1
939,939,0.017250309685796883,0.0,0.0,0.0,399.0,526.0,1.0,0,755.0,0
940,940,-0.3358918948836245,-0.3,0.0,1.0,274.0,886.0,1.0,0,1020.0,1
941,941,-0.667494957106693,-0.7,0.0,1.0,465.0,614.0,1.0,0,311.0,1
942,942,0.42297879311825926,0.4,0.0,0.0,269.0,794.0,0.0,1,777.0,1
943,943,0.7916554125028133,0.8,0.0,0.0,312.0,987.0,0.0,1,501.0,1
944,944,0.5468584159242286,0.5,0.0,0.0,252.0,544.0,0.0,1,384.0,1
945,945,0.6131663696870701,0.6,1.0,1.0,318.0,993.0,1.0,1,559.0,1
946,946,0.35960584199898926,0.4,0.0,0.0,312.0,556.0,0.0,1,592.0,1
947,947,0.6328742722482493,0.6,1.0,1.0,452.0,927.0,1.0,1,161.0,1
948,948,-0.8442514639945898,-0.8,1.0,0.0,294.0,838.0,0.0,0,338.0,1
949,949,-0.2943533405322599,-0.3,1.0,0.0,271.0,889.0,0.0,0,90.0,1
950,950,0.4337054937399297,0.4,0.0,0.0,480.0,526.0,0.0,1,1744.0,1
951,951,-0.23381198690328964,-0.2,1.0,0.0,264.0,938.0,0.0,0,638.0,1
952,952,-0.6520023344445802,-0.7,1.0,0.0,297.0,881.0,0.0,0,342.0,1
953,953,-0.2764644231087868,-0.3,1.0,0.0,418.0,507.0,0.0,0,525.0,1
954,954,-0.1752014781535115,-0.2,0.0,1.0,262.0,889.0,1.0,0,399.0,1
955,955,0.6585310626079991,0.7,1.0,1.0,489.0,919.0,1.0,1,342.0,1
956,956,0.1675371178707502,0.2,0.0,0.0,258.0,970.0,0.0,1,82.0,1
957,957,-0.16726660460225318,-0.2,0.0,1.0,473.0,812.0,1.0,0,1165.0,1
958,958,0.500917427195796,0.5,1.0,1.0,333.0,741.0,1.0,1,1666.0,1
959,959,-0.6730450932534324,-0.7,0.0,1.0,411.0,614.0,1.0,0,465.0,1
960,960,0.7284226483296855,0.7,1.0,1.0,379.0,591.0,1.0,1,410.0,1
961,961,0.006099777080037727,0.0,0.0,0.0,459.0,934.0,0.0,1,997.0,1
962,962,0.655843171588362,0.7,0.0,0.0,415.0,546.0,0.0,1,379.0,1
963,963,0.1285033091496136,0.1,1.0,1.0,276.0,944.0,1.0,1,480.0,1
964,964,0.5236633289545031,0.5,1.0,1.0,470.0,724.0,1.0,1,246.0,1
965,965,0.4959196914155416,0.5,1.0,1.0,269.0,567.0,1.0,1,634.0,1
966,966,-0.7148600436116292,-0.7,0.0,1.0,404.0,885.0,1.0,0,241.0,1
967,967,-0.10459720971425257,-0.1,1.0,0.0,302.0,708.0,1.0,1,1300.0,0
968,968,-0.7585712644561801,-0.8,1.0,0.0,483.0,880.0,0.0,0,747.0,1
969,969,0.46738642290926846,0.5,0.0,0.0,305.0,553.0,0.0,1,422.0,1
970,970,0.6198969914967115,0.6,0.0,0.0,308.0,811.0,0.0,1,391.0,1
971,971,-0.03332781879451385,-0.0,0.0,1.0,470.0,575.0,1.0,0,2035.0,1
972,972,-0.23831094154853583,-0.2,1.0,0.0,495.0,735.0,0.0,0,160.0,1
973,973,0.5207761046970801,0.5,1.0,1.0,459.0,850.0,1.0,1,431.0,1
974,974,0.4324786738415055,0.4,1.0,1.0,292.0,993.0,1.0,1,485.0,1
975,975,-0.5628476515496379,-0.6,0.0,1.0,411.0,707.0,1.0,0,242.0,1
976,976,-0.15499815301088904,-0.2,1.0,0.0,330.0,745.0,0.0,0,1555.0,1
977,977,-0.7525709438798299,-0.8,1.0,0.0,428.0,745.0,0.0,0,277.0,1
978,978,-0.16027861427187362,-0.2,1.0,0.0,356.0,913.0,0.0,0,2091.0,1
979,979,0.21033023327850076,0.2,1.0,1.0,415.0,714.0,1.0,1,501.0,1
980,980,-0.4260219431542323,-0.4,1.0,0.0,326.0,859.0,0.0,0,385.0,1
981,981,-0.17648383678066226,-0.2,1.0,0.0,303.0,780.0,0.0,0,417.0,1
982,982,0.11870597435199592,0.1,1.0,1.0,346.0,791.0,1.0,1,3283.0,1
983,983,-0.6111652787226893,-0.6,1.0,0.0,311.0,932.0,0.0,0,247.0,1
984,984,-0.329045464721746,-0.3,1.0,0.0,482.0,556.0,0.0,0,402.0,1
985,985,-0.6401313532167654,-0.6,0.0,1.0,456.0,819.0,1.0,0,85.0,1
986,986,-0.19458940790930734,-0.2,1.0,0.0,429.0,725.0,1.0,1,1556.0,0
987,987,0.049533990154345675,0.0,1.0,1.0,399.0,720.0,1.0,1,681.0,1
988,988,-0.716560046297917,-0.7,0.0,1.0,438.0,980.0,1.0,0,212.0,1
989,989,0.045922995421723734,0.0,0.0,0.0,339.0,710.0,1.0,0,191.0,0
990,990,-0.5547770529103163,-0.6,1.0,0.0,463.0,966.0,0.0,0,551.0,1
991,991,-0.7394538166774015,-0.7,1.0,0.0,324.0,512.0,0.0,0,274.0,1
992,992,0.6860740698174376,0.7,1.0,1.0,404.0,763.0,1.0,1,313.0,1
993,993,-0.6444843122365782,-0.6,0.0,1.0,491.0,603.0,1.0,0,416.0,1
994,994,-0.7927036097769237,-0.8,1.0,0.0,386.0,646.0,0.0,0,348.0,1
995,995,-0.8338034623217138,-0.8,1.0,0.0,477.0,784.0,0.0,0,289.0,1
996,996,0.6127351491393244,0.6,0.0,0.0,492.0,848.0,0.0,1,1190.0,1
997,997,0.25549847515333657,0.3,0.0,0.0,251.0,737.0,0.0,1,492.0,1
998,998,-0.6084209556525352,-0.6,0.0,1.0,270.0,690.0,1.0,0,470.0,1
999,999,-0.6331764771208606,-0.6,1.0,0.0,268.0,785.0,0.0,0,307.0,1
1000,1000,-0.7697843680836666,-0.8,1.0,0.0,482.0,787.0,0.0,0,371.0,1
1001,1001,-0.28384403141582093,-0.3,0.0,1.0,440.0,796.0,1.0,0,994.0,1
1002,1002,0.732362379313969,0.7,0.0,0.0,456.0,989.0,0.0,1,325.0,1
1003,1003,-0.6484515379098008,-0.6,1.0,0.0,352.0,793.0,0.0,0,545.0,1
1004,1004,-0.8210562977893132,-0.8,0.0,1.0,416.0,676.0,1.0,0,188.0,1
1005,1005,0.1804519480761283,0.2,1.0,1.0,267.0,773.0,0.0,0,950.0,0
1006,1006,-0.10228306979915147,-0.1,0.0,1.0,414.0,759.0,1.0,0,437.0,1
1007,1007,-0.7744263926093196,-0.8,1.0,0.0,425.0,832.0,0.0,0,213.0,1
1008,1008,0.05581282753775807,0.1,1.0,1.0,441.0,995.0,0.0,0,24.0,0
1009,1009,0.13263269005564993,0.1,0.0,0.0,288.0,629.0,0.0,1,1013.0,1
1010,1010,0.4580689650384365,0.5,1.0,1.0,418.0,503.0,1.0,1,519.0,1
1011,1011,0.4520329485368989,0.5,0.0,0.0,282.0,617.0,0.0,1,721.0,1
1012,1012,-0.4545768256145749,-0.5,0.0,1.0,333.0,936.0,1.0,0,101.0,1
1013,1013,0.22735166580056976,0.2,1.0,1.0,474.0,571.0,1.0,1,1885.0,1
1014,1014,-0.31636494741921606,-0.3,1.0,0.0,365.0,881.0,0.0,0,614.0,1
1015,1015,-0.8996570552161828,-0.9,0.0,1.0,269.0,698.0,1.0,0,73.0,1
1016,1016,0.41469928866180383,0.4,1.0,1.0,275.0,778.0,1.0,1,497.0,1
1017,1017,0.7475890238411004,0.7,1.0,1.0,250.0,792.0,1.0,1,238.0,1
1018,1018,0.2597926967580172,0.3,1.0,1.0,265.0,612.0,1.0,1,573.0,1
1019,1019,0.686787087700771,0.7,1.0,1.0,357.0,795.0,1.0,1,158.0,1
1020,1020,-0.030865799660542925,-0.0,1.0,0.0,404.0,847.0,0.0,0,3409.0,1
1021,1021,-0.5637169999944918,-0.6,1.0,0.0,254.0,648.0,0.0,0,508.0,1
1022,1022,0.3934458407310445,0.4,0.0,0.0,276.0,652.0,0.0,1,832.0,1
1023,1023,-0.09187152998160819,-0.1,0.0,1.0,423.0,846.0,1.0,0,821.0,1
1024,1024,0.5544324314738104,0.6,1.0,1.0,273.0,730.0,1.0,1,387.0,1
1025,1025,-0.07676712562141774,-0.1,0.0,1.0,387.0,810.0,0.0,1,1953.0,0
1026,1026,-0.27510718006721024,-0.3,0.0,1.0,457.0,804.0,1.0,0,169.0,1
1027,1027,-0.8415642329523407,-0.8,0.0,1.0,369.0,954.0,1.0,0,487.0,1
1028,1028,0.2700186925887639,0.3,0.0,0.0,254.0,584.0,0.0,1,802.0,1
1029,1029,0.020404731944918097,0.0,0.0,0.0,335.0,924.0,1.0,0,1791.0,0
1030,1030,0.5513072247630105,0.6,0.0,0.0,274.0,531.0,0.0,1,605.0,1
1031,1031,0.43637870092732556,0.4,1.0,1.0,297.0,675.0,1.0,1,238.0,1
1032,1032,-0.13584878024357128,-0.1,0.0,1.0,270.0,604.0,1.0,0,966.0,1
1033,1033,0.8961185902194381,0.9,0.0,0.0,280.0,969.0,0.0,1,91.0,1
1034,1034,-0.8610732365894906,-0.9,1.0,0.0,254.0,975.0,0.0,0,431.0,1
1035,1035,-0.033158953753473,-0.0,1.0,0.0,319.0,854.0,0.0,0,2467.0,1
1036,1036,-0.5534304066070781,-0.6,1.0,0.0,489.0,601.0,0.0,0,520.0,1
1037,1037,-0.6873747431665512,-0.7,1.0,0.0,339.0,624.0,0.0,0,467.0,1
1038,1038,0.7166586692552465,0.7,0.0,0.0,359.0,965.0,0.0,1,546.0,1
1039,1039,-0.013865824832522633,-0.0,1.0,0.0,389.0,666.0,0.0,0,405.0,1
1040,1040,-0.09892774594725995,-0.1,0.0,1.0,278.0,966.0,1.0,0,3066.0,1
1041,1041,0.11968965344884663,0.1,0.0,0.0,286.0,556.0,0.0,1,1098.0,1
1042,1042,0.7929821514114236,0.8,0.0,0.0,369.0,756.0,0.0,1,475.0,1
1043,1043,0.16055910838978138,0.2,0.0,0.0,445.0,614.0,1.0,0,1771.0,0
1044,1044,-0.8080045926955617,-0.8,0.0,1.0,373.0,737.0,1.0,0,190.0,1
1045,1045,-0.7286406733637293,-0.7,1.0,0.0,496.0,792.0,0.0,0,132.0,1
1046,1046,0.07670360443774393,0.1,0.0,0.0,361.0,864.0,1.0,0,35.0,0
1047,1047,-0.26278307789442745,-0.3,1.0,0.0,490.0,641.0,0.0,0,2129.0,1
1048,1048,0.47948388600673886,0.5,1.0,1.0,318.0,787.0,1.0,1,145.0,1
1049,1049,-0.7279640646088148,-0.7,1.0,0.0,343.0,569.0,0.0,0,318.0,1
1050,1050,0.2223376733505661,0.2,1.0,1.0,345.0,800.0,1.0,1,935.0,1
1051,1051,-0.5120813765084322,-0.5,0.0,1.0,292.0,640.0,1.0,0,508.0,1
1052,1052,-0.09349795483245626,-0.1,0.0,1.0,499.0,681.0,1.0,0,450.0,1
1053,1053,-0.5409770082663191,-0.5,1.0,0.0,460.0,847.0,0.0,0,433.0,1
1054,1054,0.5628885400753197,0.6,1.0,1.0,431.0,779.0,1.0,1,580.0,1
1055,1055,-0.6629530896345615,-0.7,1.0,0.0,385.0,938.0,0.0,0,107.0,1
1056,1056,-0.4884788834286607,-0.5,0.0,1.0,456.0,606.0,1.0,0,468.0,1
1057,1057,0.3277086419723304,0.3,0.0,0.0,350.0,646.0,0.0,1,614.0,1
1058,1058,-0.08262588415212102,-0.1,0.0,1.0,469.0,622.0,1.0,0,699.0,1
1059,1059,0.8645508003912504,0.9,0.0,0.0,489.0,962.0,0.0,1,-161.0,1
1060,1060,0.3900879032170609,0.4,0.0,0.0,496.0,557.0,0.0,1,367.0,1
1061,1061,0.6098073834333725,0.6,1.0,1.0,339.0,891.0,1.0,1,430.0,1
1062,1062,0.8827676730484176,0.9,1.0,1.0,281.0,616.0,1.0,1,383.0,1
1063,1063,-0.846077882809918,-0.8,1.0,0.0,334.0,973.0,0.0,0,343.0,1
1064,1064,0.4296855003822898,0.4,1.0,1.0,474.0,927.0,1.0,1,339.0,1
1065,1065,-0.07813392615403958,-0.1,0.0,1.0,281.0,578.0,1.0,0,1161.0,1
1066,1066,-0.5096543103810254,-0.5,1.0,0.0,493.0,955.0,0.0,0,352.0,1
1067,1067,-0.537289245924325,-0.5,1.0,0.0,258.0,903.0,0.0,0,849.0,1
1068,1068,-0.4235331441158681,-0.4,1.0,0.0,458.0,692.0,0.0,0,340.0,1
1069,1069,0.6805061398234981,0.7,1.0,1.0,256.0,832.0,1.0,1,62.0,1
1070,1070,0.7161556698992063,0.7,1.0,1.0,323.0,913.0,1.0,1,94.0,1
1071,1071,-0.7614237363363225,-0.8,1.0,0.0,326.0,897.0,0.0,0,417.0,1
1072,1072,0.44108640795726883,0.4,0.0,0.0,419.0,670.0,0.0,1,381.0,1
1073,1073,0.1455757965101695,0.1,1.0,1.0,362.0,688.0,1.0,1,220.0,1
1074,1074,2.8150146360150785e-05,0.0,0.0,0.0,466.0,511.0,1.0,0,773.0,0
1075,1075,0.02759378126221068,0.0,1.0,1.0,484.0,828.0,1.0,1,128.0,1
1076,1076,-0.43492967789463205,-0.4,1.0,0.0,497.0,945.0,0.0,0,1078.0,1
1077,1077,0.08733185273254551,0.1,1.0,1.0,499.0,797.0,0.0,0,1344.0,0
1078,1078,-0.10093424864786227,-0.1,1.0,0.0,467.0,870.0,0.0,0,293.0,1
1079,1079,0.17979651651361228,0.2,0.0,0.0,444.0,673.0,0.0,1,523.0,1
1080,1080,-0.003476945801364373,-0.0,0.0,1.0,389.0,969.0,1.0,0,402.0,1
1081,1081,-0.3406704456627897,-0.3,1.0,0.0,330.0,815.0,0.0,0,925.0,1
1082,1082,0.6912573731750967,0.7,0.0,0.0,402.0,809.0,0.0,1,289.0,1
1083,1083,-0.8801417672879128,-0.9,1.0,0.0,382.0,580.0,0.0,0,798.0,1
1084,1084,-0.012375550628546672,-0.0,0.0,1.0,295.0,984.0,1.0,0,1751.0,1
1085,1085,0.35892736310327333,0.4,1.0,1.0,352.0,999.0,1.0,1,249.0,1
1086,1086,-0.16478864822973616,-0.2,0.0,1.0,301.0,524.0,1.0,0,2765.0,1
1087,1087,0.35893393208754165,0.4,1.0,1.0,431.0,885.0,1.0,1,84.0,1
1088,1088,-0.6333846529010345,-0.6,0.0,1.0,475.0,785.0,1.0,0,290.0,1
1089,1089,0.05288615003655217,0.1,0.0,0.0,463.0,976.0,1.0,0,101.0,0
1090,1090,-0.43895560266100847,-0.4,1.0,0.0,264.0,691.0,0.0,0,515.0,1
1091,1091,0.10209481640688722,0.1,1.0,1.0,381.0,519.0,1.0,1,1020.0,1
1092,1092,-0.8429187467946428,-0.8,1.0,0.0,295.0,573.0,0.0,0,292.0,1
1093,1093,0.09530972811410032,0.1,0.0,0.0,296.0,879.0,1.0,0,345.0,0
1094,1094,0.2790538830481891,0.3,1.0,1.0,441.0,559.0,1.0,1,600.0,1
1095,1095,0.06036468684633056,0.1,1.0,1.0,386.0,561.0,0.0,0,743.0,0
1096,1096,-0.4375151642337374,-0.4,0.0,1.0,421.0,778.0,1.0,0,101.0,1
1097,1097,-0.12538551381259377,-0.1,1.0,0.0,334.0,777.0,0.0,0,499.0,1
1098,1098,0.4673794724766617,0.5,1.0,1.0,406.0,633.0,1.0,1,1151.0,1
1099,1099,0.6696012411071738,0.7,1.0,1.0,468.0,968.0,1.0,1,364.0,1
1100,1100,0.626047088977468,0.6,0.0,0.0,328.0,921.0,0.0,1,191.0,1
1101,1101,0.3732132962361353,0.4,0.0,0.0,419.0,663.0,0.0,1,478.0,1
1102,1102,-0.8068997213104124,-0.8,1.0,0.0,454.0,694.0,0.0,0,192.0,1
1103,1103,0.28787969525933754,0.3,1.0,1.0,479.0,782.0,1.0,1,649.0,1
1104,1104,-0.6031604766693321,-0.6,0.0,1.0,470.0,607.0,1.0,0,533.0,1
1105,1105,0.17012059308118765,0.2,1.0,1.0,436.0,525.0,1.0,1,609.0,1
1106,1106,-0.37758730147182373,-0.4,0.0,1.0,440.0,696.0,1.0,0,334.0,1
1107,1107,-0.3727040948139605,-0.4,0.0,1.0,270.0,990.0,0.0,1,150.0,0
1108,1108,0.5813286120831226,0.6,0.0,0.0,376.0,736.0,0.0,1,798.0,1
1109,1109,-0.5769877124111806,-0.6,0.0,1.0,435.0,770.0,1.0,0,115.0,1
1110,1110,0.8365074475952231,0.8,0.0,0.0,396.0,711.0,0.0,1,263.0,1
1111,1111,0.7958683459337755,0.8,1.0,1.0,310.0,696.0,1.0,1,244.0,1
1112,1112,0.7112059995360757,0.7,1.0,1.0,441.0,853.0,1.0,1,196.0,1
1113,1113,0.8887581418291087,0.9,1.0,1.0,488.0,688.0,1.0,1,274.0,1
1114,1114,-0.503143308470975,-0.5,1.0,0.0,444.0,908.0,0.0,0,738.0,1
1115,1115,-0.7337211854530168,-0.7,1.0,0.0,325.0,746.0,0.0,0,619.0,1
1116,1116,-0.7040826918643615,-0.7,1.0,0.0,482.0,867.0,0.0,0,361.0,1
1117,1117,-0.07508190826765371,-0.1,0.0,1.0,407.0,943.0,0.0,1,610.0,0
1118,1118,-0.6359862378294334,-0.6,0.0,1.0,389.0,564.0,1.0,0,297.0,1
1119,1119,0.018957706774023197,0.0,1.0,1.0,297.0,767.0,0.0,0,2766.0,0
1120,1120,-0.6041490984054483,-0.6,0.0,1.0,330.0,820.0,1.0,0,280.0,1
1121,1121,-0.46961608776651487,-0.5,1.0,0.0,418.0,832.0,0.0,0,1000.0,1
1122,1122,0.5447013944741345,0.5,1.0,1.0,424.0,549.0,1.0,1,837.0,1
1123,1123,-0.45439650546152965,-0.5,0.0,1.0,284.0,683.0,1.0,0,363.0,1
1124,1124,-0.31757133245086877,-0.3,0.0,1.0,275.0,767.0,1.0,0,878.0,1
1125,1125,-0.13826455345632627,-0.1,0.0,1.0,320.0,903.0,1.0,0,247.0,1
1126,1126,0.2993456505291615,0.3,0.0,0.0,443.0,589.0,0.0,1,848.0,1
1127,1127,-0.7279427348128873,-0.7,1.0,0.0,462.0,917.0,0.0,0,711.0,1
1128,1128,-0.6928617342300077,-0.7,0.0,1.0,262.0,940.0,1.0,0,708.0,1
1129,1129,-0.7728080906014504,-0.8,1.0,0.0,321.0,500.0,0.0,0,709.0,1
1130,1130,0.5415886347258824,0.5,1.0,1.0,382.0,842.0,1.0,1,56.0,1
1131,1131,0.26445012440797144,0.3,0.0,0.0,469.0,816.0,0.0,1,135.0,1
1132,1132,-0.17685657884644868,-0.2,0.0,1.0,495.0,919.0,1.0,0,1096.0,1
1133,1133,-0.3176926286823827,-0.3,1.0,0.0,351.0,794.0,0.0,0,285.0,1
1134,1134,-0.2552796772799648,-0.3,0.0,1.0,430.0,591.0,1.0,0,1939.0,1
1135,1135,0.10213003470386839,0.1,1.0,1.0,338.0,593.0,0.0,0,789.0,0
1136,1136,0.7619145404591582,0.8,0.0,0.0,344.0,935.0,0.0,1,201.0,1
1137,1137,-0.3256404710290556,-0.3,1.0,0.0,274.0,951.0,0.0,0,935.0,1
1138,1138,-0.8639569745350466,-0.9,0.0,1.0,349.0,795.0,1.0,0,356.0,1
1139,1139,0.04786195746854505,0.0,0.0,0.0,432.0,668.0,1.0,0,610.0,0
1140,1140,-0.4616916688886999,-0.5,1.0,0.0,299.0,511.0,0.0,0,510.0,1
1141,1141,0.435671889950043,0.4,0.0,0.0,465.0,901.0,0.0,1,324.0,1
1142,1142,0.5642656068501909,0.6,0.0,0.0,388.0,645.0,0.0,1,647.0,1
1143,1143,-0.021353429194874263,-0.0,0.0,1.0,357.0,861.0,1.0,0,1702.0,1
1144,1144,-0.06591322282789125,-0.1,1.0,0.0,415.0,760.0,1.0,1,865.0,0
1145,1145,0.3887891897140031,0.4,0.0,0.0,364.0,661.0,0.0,1,675.0,1
1146,1146,0.840086260753912,0.8,1.0,1.0,272.0,634.0,1.0,1,1204.0,1
1147,1147,0.530312815358967,0.5,1.0,1.0,374.0,960.0,1.0,1,146.0,1
1148,1148,-0.19288145174055837,-0.2,1.0,0.0,409.0,877.0,0.0,0,464.0,1
1149,1149,-0.38185451835488926,-0.4,1.0,0.0,324.0,788.0,0.0,0,1778.0,1
1150,1150,-0.5481813935638906,-0.5,0.0,1.0,354.0,665.0,1.0,0,161.0,1
1151,1151,-0.6576295569834175,-0.7,0.0,1.0,467.0,861.0,1.0,0,192.0,1
1152,1152,0.23535665530710992,0.2,1.0,1.0,473.0,549.0,1.0,1,328.0,1
1153,1153,0.8629920568265385,0.9,0.0,0.0,374.0,578.0,0.0,1,368.0,1
1154,1154,0.22086147410549783,0.2,1.0,1.0,334.0,541.0,1.0,1,265.0,1
1155,1155,0.4309292475816041,0.4,1.0,1.0,372.0,619.0,1.0,1,1259.0,1
1156,1156,0.0920332961514777,0.1,0.0,0.0,488.0,640.0,1.0,0,342.0,0
1157,1157,-0.22672774296820286,-0.2,1.0,0.0,381.0,897.0,0.0,0,32.0,1
1158,1158,-0.555772989248797,-0.6,0.0,1.0,264.0,675.0,1.0,0,451.0,1
1159,1159,-0.13205713420575838,-0.1,0.0,1.0,308.0,646.0,1.0,0,606.0,1
1160,1160,0.3133388906156026,0.3,0.0,0.0,255.0,668.0,0.0,1,397.0,1
1161,1161,-0.48333135574591185,-0.5,1.0,0.0,346.0,632.0,0.0,0,632.0,1
1162,1162,0.37320870256717187,0.4,0.0,0.0,385.0,814.0,0.0,1,281.0,1
1163,1163,0.3283288249757813,0.3,1.0,1.0,251.0,778.0,1.0,1,641.0,1
1164,1164,0.5782436658835765,0.6,1.0,1.0,280.0,964.0,1.0,1,326.0,1
1165,1165,-0.14163437039846194,-0.1,1.0,0.0,465.0,658.0,0.0,0,687.0,1
1166,1166,-0.7911758986838674,-0.8,0.0,1.0,307.0,880.0,1.0,0,313.0,1
1167,1167,-0.8468063714446473,-0.8,1.0,0.0,332.0,861.0,0.0,0,387.0,1
1168,1168,0.8160446824830655,0.8,1.0,1.0,274.0,638.0,1.0,1,298.0,1
1169,1169,0.5234191661211532,0.5,1.0,1.0,274.0,897.0,1.0,1,249.0,1
1170,1170,0.4669082387209761,0.5,1.0,1.0,423.0,896.0,1.0,1,221.0,1
1171,1171,0.49551692279027704,0.5,1.0,1.0,468.0,628.0,1.0,1,644.0,1
1172,1172,-0.4490189351657702,-0.4,1.0,0.0,256.0,841.0,0.0,0,93.0,1
1173,1173,-0.2676394991336899,-0.3,0.0,1.0,416.0,634.0,1.0,0,540.0,1
1174,1174,-0.4350382536606714,-0.4,1.0,0.0,372.0,767.0,0.0,0,541.0,1
1175,1175,-0.43819944937508437,-0.4,0.0,1.0,286.0,913.0,1.0,0,191.0,1
1176,1176,0.5458237047568649,0.5,0.0,0.0,458.0,712.0,0.0,1,300.0,1
1177,1177,0.12490633808671159,0.1,0.0,0.0,329.0,666.0,1.0,0,315.0,0
1178,1178,0.7204555436857879,0.7,1.0,1.0,367.0,815.0,1.0,1,818.0,1
1179,1179,-0.29776601860736995,-0.3,0.0,1.0,262.0,957.0,1.0,0,151.0,1
1180,1180,0.533287288309566,0.5,0.0,0.0,420.0,645.0,0.0,1,255.0,1
1181,1181,0.8030473358032485,0.8,0.0,0.0,315.0,704.0,0.0,1,351.0,1
1182,1182,-0.13658564467237577,-0.1,1.0,0.0,348.0,542.0,0.0,0,490.0,1
1183,1183,-0.7933339346294451,-0.8,1.0,0.0,279.0,786.0,0.0,0,635.0,1
1184,1184,-0.2694452189479831,-0.3,0.0,1.0,337.0,736.0,1.0,0,677.0,1
1185,1185,0.2733731063240842,0.3,1.0,1.0,348.0,626.0,1.0,1,406.0,1
1186,1186,0.6578530003647777,0.7,0.0,0.0,436.0,990.0,1.0,0,-76.0,0
1187,1187,-0.8094835071172112,-0.8,0.0,1.0,458.0,897.0,1.0,0,115.0,1
1188,1188,0.6442494111365779,0.6,0.0,0.0,381.0,707.0,0.0,1,472.0,1
1189,1189,0.4451578487461142,0.4,0.0,0.0,416.0,525.0,0.0,1,249.0,1
1190,1190,-0.8982012719855397,-0.9,0.0,1.0,356.0,980.0,1.0,0,114.0,1
1191,1191,-0.8336463043056549,-0.8,1.0,0.0,262.0,621.0,0.0,0,127.0,1
1192,1192,-0.03604833370203353,-0.0,1.0,0.0,270.0,971.0,0.0,0,169.0,1
1193,1193,0.7391821019517287,0.7,0.0,0.0,261.0,953.0,0.0,1,236.0,1
1194,1194,0.6196505930997253,0.6,1.0,1.0,492.0,590.0,1.0,1,278.0,1
1195,1195,-0.7990987355332254,-0.8,0.0,1.0,466.0,934.0,1.0,0,340.0,1
1196,1196,-0.6446076551985296,-0.6,0.0,1.0,437.0,714.0,1.0,0,169.0,1
1197,1197,-0.43394588297746567,-0.4,1.0,0.0,367.0,815.0,0.0,0,678.0,1
1198,1198,-0.869827490324195,-0.9,0.0,1.0,388.0,841.0,1.0,0,321.0,1
1199,1199,-0.8985875456840086,-0.9,1.0,0.0,368.0,969.0,0.0,0,353.0,1
1200,1200,0.6270944386679324,0.6,1.0,1.0,404.0,769.0,1.0,1,327.0,1
1201,1201,-0.5454839907100129,-0.5,1.0,0.0,290.0,877.0,0.0,0,193.0,1
1202,1202,0.0587896327218953,0.1,1.0,1.0,467.0,564.0,0.0,0,1309.0,0
1203,1203,0.5380684298214026,0.5,1.0,1.0,339.0,500.0,1.0,1,431.0,1
1204,1204,-0.016911190344363947,-0.0,0.0,1.0,450.0,832.0,1.0,0,38.0,1
1205,1205,0.733018380044307,0.7,0.0,0.0,450.0,866.0,0.0,1,314.0,1
1206,1206,0.37272738393315785,0.4,0.0,0.0,305.0,694.0,0.0,1,1021.0,1
1207,1207,0.8201645971777073,0.8,1.0,1.0,361.0,608.0,1.0,1,171.0,1
1208,1208,-0.706578484000398,-0.7,1.0,0.0,305.0,591.0,0.0,0,534.0,1
1209,1209,0.8127168267757746,0.8,1.0,1.0,409.0,860.0,1.0,1,471.0,1
1210,1210,0.2910209198984034,0.3,1.0,1.0,442.0,576.0,1.0,1,2022.0,1
1211,1211,0.15213632720857462,0.2,0.0,0.0,272.0,857.0,1.0,0,1071.0,0
1212,1212,0.43519926344948334,0.4,0.0,0.0,490.0,879.0,0.0,1,441.0,1
1213,1213,0.5821115524405948,0.6,1.0,1.0,262.0,614.0,1.0,1,164.0,1
1214,1214,-0.6984980274230663,-0.7,0.0,1.0,376.0,657.0,1.0,0,347.0,1
1215,1215,-0.6821899460787203,-0.7,1.0,0.0,260.0,833.0,0.0,0,197.0,1
1216,1216,-0.8459686238441243,-0.8,1.0,0.0,281.0,874.0,0.0,0,695.0,1
1217,1217,0.32442017487393604,0.3,0.0,0.0,281.0,995.0,0.0,1,1104.0,1
1218,1218,0.02396868191940449,0.0,1.0,1.0,385.0,563.0,0.0,0,2652.0,0
1219,1219,0.6439326832704414,0.6,0.0,0.0,330.0,745.0,0.0,1,525.0,1
1220,1220,-0.34634781567283623,-0.3,1.0,0.0,404.0,633.0,0.0,0,1493.0,1
1221,1221,-0.1378484231524023,-0.1,0.0,1.0,267.0,615.0,1.0,0,308.0,1
1222,1222,0.5741374348932703,0.6,0.0,0.0,364.0,535.0,0.0,1,581.0,1
1223,1223,-0.48465450680676997,-0.5,1.0,0.0,478.0,711.0,0.0,0,521.0,1
1224,1224,0.49255107703623435,0.5,1.0,1.0,256.0,806.0,1.0,1,438.0,1
1225,1225,-0.12144219874373652,-0.1,0.0,1.0,362.0,969.0,1.0,0,499.0,1
1226,1226,-0.4546234188168961,-0.5,0.0,1.0,420.0,868.0,1.0,0,412.0,1
1227,1227,-0.8436016233983025,-0.8,0.0,1.0,324.0,764.0,1.0,0,162.0,1
1228,1228,0.8095974659811641,0.8,0.0,0.0,426.0,800.0,0.0,1,134.0,1
1229,1229,-0.00768394913000181,-0.0,0.0,1.0,428.0,551.0,1.0,0,3221.0,1
1230,1230,-0.46326079852512675,-0.5,1.0,0.0,300.0,996.0,0.0,0,144.0,1
1231,1231,0.754538237840963,0.8,1.0,1.0,486.0,686.0,1.0,1,328.0,1
1232,1232,0.3179507520522801,0.3,0.0,0.0,440.0,588.0,0.0,1,632.0,1
1233,1233,0.6923869708144373,0.7,1.0,1.0,327.0,730.0,1.0,1,353.0,1
1234,1234,0.2524881523583279,0.3,0.0,0.0,357.0,677.0,0.0,1,906.0,1
1235,1235,-0.5909246150588564,-0.6,1.0,0.0,468.0,775.0,0.0,0,387.0,1
1236,1236,0.6913755912842744,0.7,0.0,0.0,350.0,681.0,0.0,1,1059.0,1
1237,1237,-0.07802509575868233,-0.1,0.0,1.0,264.0,958.0,1.0,0,1728.0,1
1238,1238,0.8299430899630683,0.8,0.0,0.0,326.0,957.0,0.0,1,527.0,1
1239,1239,0.13128378065229207,0.1,1.0,1.0,480.0,871.0,1.0,1,2349.0,1
1240,1240,0.8409737020484035,0.8,0.0,0.0,446.0,641.0,0.0,1,163.0,1
1241,1241,0.6122676228146277,0.6,0.0,0.0,303.0,520.0,0.0,1,527.0,1
1242,1242,0.7559211727421079,0.8,1.0,1.0,467.0,558.0,1.0,1,1165.0,1
1243,1243,0.6368551500447529,0.6,0.0,0.0,287.0,847.0,0.0,1,296.0,1
1244,1244,0.2364210738403526,0.2,0.0,0.0,414.0,822.0,0.0,1,164.0,1
1245,1245,-0.00380693702768764,-0.0,0.0,1.0,342.0,898.0,0.0,1,810.0,0
1246,1246,-0.04486145205625758,-0.0,0.0,1.0,372.0,730.0,0.0,1,1148.0,0
1247,1247,-0.736730026963449,-0.7,1.0,0.0,354.0,744.0,0.0,0,342.0,1
1248,1248,0.1809309009190364,0.2,0.0,0.0,366.0,600.0,1.0,0,374.0,0
1249,1249,0.04043000805231933,0.0,0.0,0.0,460.0,567.0,0.0,1,1213.0,1
1250,1250,-0.5720832638689561,-0.6,0.0,1.0,305.0,654.0,1.0,0,491.0,1
1251,1251,0.48087898206093016,0.5,0.0,0.0,316.0,533.0,0.0,1,1011.0,1
1252,1252,0.3468340757933789,0.3,0.0,0.0,465.0,865.0,0.0,1,390.0,1
1253,1253,-0.8735842460811912,-0.9,0.0,1.0,328.0,934.0,1.0,0,148.0,1
1254,1254,0.6912230473404196,0.7,1.0,1.0,347.0,743.0,1.0,1,600.0,1
1255,1255,-0.2235099138353095,-0.2,1.0,0.0,342.0,897.0,0.0,0,131.0,1
1256,1256,-0.022784880766568483,-0.0,1.0,0.0,264.0,890.0,1.0,1,936.0,0
1257,1257,-0.27863834440415547,-0.3,1.0,0.0,373.0,908.0,0.0,0,959.0,1
1258,1258,0.7702553653164191,0.8,0.0,0.0,262.0,764.0,0.0,1,354.0,1
1259,1259,0.657977720447895,0.7,1.0,1.0,345.0,851.0,1.0,1,294.0,1
1260,1260,0.7159343661503391,0.7,1.0,1.0,424.0,558.0,1.0,1,278.0,1
1261,1261,-0.6475636254628638,-0.6,0.0,1.0,316.0,835.0,1.0,0,259.0,1
1262,1262,0.24579009414224318,0.2,1.0,1.0,350.0,910.0,1.0,1,800.0,1
1263,1263,0.15514280865455665,0.2,0.0,0.0,400.0,749.0,0.0,1,141.0,1
1264,1264,-0.36150131019790277,-0.4,0.0,1.0,345.0,527.0,1.0,0,2658.0,1
1265,1265,-0.3767163493482223,-0.4,1.0,0.0,364.0,567.0,0.0,0,469.0,1
1266,1266,-0.7317299481965075,-0.7,0.0,1.0,400.0,505.0,1.0,0,295.0,1
1267,1267,-0.03028831129101417,-0.0,0.0,1.0,254.0,831.0,1.0,0,2555.0,1
1268,1268,0.7585292204473627,0.8,0.0,0.0,377.0,726.0,0.0,1,307.0,1
1269,1269,-0.8065552005979446,-0.8,0.0,1.0,320.0,925.0,1.0,0,205.0,1
1270,1270,-0.16605807715879795,-0.2,0.0,1.0,300.0,872.0,1.0,0,1178.0,1
1271,1271,0.7032674505815483,0.7,1.0,1.0,386.0,948.0,1.0,1,126.0,1
1272,1272,-0.866270633039721,-0.9,0.0,1.0,433.0,551.0,1.0,0,436.0,1
1273,1273,0.604449339327389,0.6,1.0,1.0,479.0,572.0,1.0,1,229.0,1
1274,1274,-0.12811958852254335,-0.1,1.0,0.0,413.0,776.0,0.0,0,1371.0,1
1275,1275,-0.6696488371013164,-0.7,1.0,0.0,332.0,886.0,0.0,0,272.0,1
1276,1276,0.8572437692552229,0.9,1.0,1.0,497.0,717.0,1.0,1,236.0,1
1277,1277,-0.6798500101365558,-0.7,0.0,1.0,357.0,535.0,1.0,0,708.0,1
1278,1278,-0.5475790009423394,-0.5,1.0,0.0,334.0,936.0,0.0,0,120.0,1
1279,1279,-0.33324726859196097,-0.3,0.0,1.0,440.0,535.0,1.0,0,955.0,1
1280,1280,0.6398088108545198,0.6,0.0,0.0,495.0,711.0,0.0,1,274.0,1
1281,1281,0.7127406494646241,0.7,0.0,0.0,307.0,845.0,0.0,1,688.0,1
1282,1282,-0.12653039922611675,-0.1,0.0,1.0,251.0,621.0,1.0,0,668.0,1
1283,1283,-0.8619334515323845,-0.9,1.0,0.0,270.0,650.0,0.0,0,460.0,1
1284,1284,0.8555348920224605,0.9,0.0,0.0,479.0,699.0,0.0,1,382.0,1
1285,1285,0.8611143150521817,0.9,1.0,1.0,288.0,617.0,1.0,1,245.0,1
1286,1286,-0.7311829874343216,-0.7,1.0,0.0,286.0,697.0,0.0,0,157.0,1
1287,1287,-0.03133632061766867,-0.0,1.0,0.0,252.0,513.0,0.0,0,1285.0,1
1288,1288,-0.055162300008801624,-0.1,1.0,0.0,382.0,820.0,1.0,1,578.0,0
1289,1289,0.5451216074810389,0.5,0.0,0.0,345.0,849.0,0.0,1,86.0,1
1290,1290,-0.587083971938752,-0.6,0.0,1.0,304.0,538.0,1.0,0,418.0,1
1291,1291,-0.22280216497111272,-0.2,1.0,0.0,495.0,775.0,0.0,0,430.0,1
1292,1292,-0.30570871052142345,-0.3,1.0,0.0,481.0,613.0,0.0,0,716.0,1
1293,1293,-0.2164927516952796,-0.2,1.0,0.0,352.0,690.0,0.0,0,1068.0,1
1294,1294,-0.5148017113046852,-0.5,0.0,1.0,436.0,578.0,1.0,0,636.0,1
1295,1295,0.7003666351162775,0.7,1.0,1.0,446.0,805.0,1.0,1,89.0,1
1296,1296,0.01390654306631911,0.0,0.0,0.0,482.0,517.0,0.0,1,591.0,1
1297,1297,-0.6219289352003745,-0.6,0.0,1.0,344.0,917.0,1.0,0,139.0,1
1298,1298,-0.3909610353414904,-0.4,0.0,1.0,261.0,748.0,1.0,0,401.0,1
1299,1299,0.16993818456345677,0.2,0.0,0.0,426.0,790.0,0.0,1,584.0,1
1300,1300,0.06024124947081799,0.1,1.0,1.0,343.0,882.0,0.0,0,1405.0,0
1301,1301,0.767676946775589,0.8,1.0,1.0,485.0,854.0,1.0,1,221.0,1
1302,1302,-0.37781670670088874,-0.4,0.0,1.0,277.0,511.0,1.0,0,432.0,1
1303,1303,-0.8932861119217969,-0.9,0.0,1.0,346.0,985.0,1.0,0,79.0,1
1304,1304,0.5455393172095634,0.5,1.0,1.0,496.0,807.0,1.0,1,147.0,1
1305,1305,0.3060073965769933,0.3,1.0,1.0,354.0,580.0,1.0,1,1376.0,1
1306,1306,-0.0898939535585549,-0.1,1.0,0.0,283.0,561.0,0.0,0,3766.0,1
1307,1307,-0.5368887331715633,-0.5,0.0,1.0,407.0,796.0,1.0,0,117.0,1
1308,1308,0.3468024415689813,0.3,1.0,1.0,348.0,620.0,1.0,1,1472.0,1
1309,1309,0.16724331210119991,0.2,1.0,1.0,390.0,866.0,1.0,1,1694.0,1
1310,1310,-0.875250379689641,-0.9,1.0,0.0,284.0,655.0,0.0,0,441.0,1
1311,1311,0.3421987398540415,0.3,0.0,0.0,294.0,823.0,0.0,1,2153.0,1
1312,1312,0.258018698972614,0.3,0.0,0.0,437.0,728.0,0.0,1,425.0,1
1313,1313,0.149670721111122,0.1,1.0,1.0,274.0,798.0,1.0,1,1918.0,1
1314,1314,0.44192271160665586,0.4,0.0,0.0,419.0,691.0,0.0,1,210.0,1
1315,1315,0.8398170955645637,0.8,0.0,0.0,496.0,733.0,0.0,1,251.0,1
1316,1316,-0.7283668506887142,-0.7,0.0,1.0,488.0,732.0,1.0,0,220.0,1
1317,1317,0.3829792161975393,0.4,0.0,0.0,328.0,542.0,0.0,1,510.0,1
1318,1318,0.5854452371356275,0.6,1.0,1.0,444.0,866.0,1.0,1,310.0,1
1319,1319,0.7126326051805106,0.7,0.0,0.0,419.0,577.0,0.0,1,444.0,1
1320,1320,-0.6097413543806633,-0.6,1.0,0.0,372.0,574.0,0.0,0,454.0,1
1321,1321,0.8673498335362416,0.9,0.0,0.0,298.0,667.0,0.0,1,255.0,1
1322,1322,-0.5842707285098709,-0.6,0.0,1.0,404.0,646.0,1.0,0,220.0,1
1323,1323,0.20303713511243615,0.2,1.0,1.0,257.0,593.0,1.0,1,860.0,1
1324,1324,-0.09137143837809114,-0.1,1.0,0.0,342.0,533.0,1.0,1,1605.0,0
1325,1325,-0.21429219336846983,-0.2,0.0,1.0,256.0,845.0,1.0,0,919.0,1
1326,1326,-0.7904713308157922,-0.8,0.0,1.0,357.0,843.0,1.0,0,360.0,1
1327,1327,-0.7645785371006443,-0.8,1.0,0.0,329.0,716.0,0.0,0,45.0,1
1328,1328,0.22316304091988803,0.2,1.0,1.0,372.0,955.0,1.0,1,83.0,1
1329,1329,-0.22821361580202204,-0.2,0.0,1.0,321.0,858.0,1.0,0,21.0,1
1330,1330,-0.2801945867537783,-0.3,1.0,0.0,301.0,812.0,0.0,0,277.0,1
1331,1331,0.5296837264693747,0.5,1.0,1.0,379.0,970.0,1.0,1,341.0,1
1332,1332,0.07356584109594466,0.1,0.0,0.0,328.0,733.0,0.0,1,539.0,1
1333,1333,-0.5939770129303457,-0.6,0.0,1.0,458.0,805.0,1.0,0,397.0,1
1334,1334,-0.2742707398921912,-0.3,0.0,1.0,459.0,906.0,1.0,0,525.0,1
1335,1335,0.5727789393214021,0.6,0.0,0.0,491.0,809.0,0.0,1,340.0,1
1336,1336,-0.37137277234820887,-0.4,1.0,0.0,268.0,572.0,0.0,0,740.0,1
1337,1337,-0.2203989369270719,-0.2,0.0,1.0,397.0,846.0,1.0,0,357.0,1
1338,1338,-0.8105455558358766,-0.8,0.0,1.0,473.0,580.0,1.0,0,417.0,1
1339,1339,0.47650314223768964,0.5,1.0,1.0,281.0,723.0,1.0,1,316.0,1
1340,1340,-0.011956962523298809,-0.0,1.0,0.0,348.0,586.0,1.0,1,4066.0,0
1341,1341,0.5200196781043974,0.5,1.0,1.0,385.0,958.0,1.0,1,1267.0,1
1342,1342,0.6462691159228858,0.6,1.0,1.0,300.0,685.0,1.0,1,405.0,1
1343,1343,0.8906958848518948,0.9,1.0,1.0,271.0,787.0,1.0,1,132.0,1
1344,1344,-0.5332238835128705,-0.5,0.0,1.0,470.0,659.0,1.0,0,221.0,1
1345,1345,0.4649107549923922,0.5,0.0,0.0,252.0,633.0,0.0,1,325.0,1
1346,1346,0.19739799155763837,0.2,0.0,0.0,352.0,941.0,0.0,1,417.0,1
1347,1347,-0.47644412182191936,-0.5,0.0,1.0,462.0,686.0,1.0,0,532.0,1
1348,1348,-0.7013821482072055,-0.7,0.0,1.0,276.0,741.0,1.0,0,323.0,1
1349,1349,-0.861070681824539,-0.9,0.0,1.0,278.0,613.0,1.0,0,169.0,1
1350,1350,0.3401587494853021,0.3,1.0,1.0,413.0,839.0,1.0,1,-162.0,1
1351,1351,-0.3236779264969799,-0.3,0.0,1.0,428.0,562.0,1.0,0,660.0,1
1352,1352,0.420825878676485,0.4,1.0,1.0,334.0,949.0,1.0,1,257.0,1
1353,1353,-0.47622665257330593,-0.5,0.0,1.0,343.0,822.0,1.0,0,395.0,1
1354,1354,-0.3807716048980714,-0.4,0.0,1.0,252.0,596.0,1.0,0,382.0,1
1355,1355,-0.029803023382007354,-0.0,1.0,0.0,413.0,771.0,0.0,0,746.0,1
1356,1356,-0.7948335268541926,-0.8,0.0,1.0,353.0,978.0,1.0,0,299.0,1
1357,1357,0.7382668600307248,0.7,1.0,1.0,385.0,987.0,1.0,1,148.0,1
1358,1358,0.2137584138842049,0.2,1.0,1.0,491.0,616.0,1.0,1,853.0,1
1359,1359,-0.590944978924988,-0.6,1.0,0.0,464.0,661.0,0.0,0,405.0,1
1360,1360,0.13293885152345475,0.1,0.0,0.0,280.0,790.0,0.0,1,1030.0,1
1361,1361,-0.41437415749464673,-0.4,1.0,0.0,311.0,513.0,0.0,0,436.0,1
1362,1362,0.8805486616861028,0.9,0.0,0.0,388.0,955.0,0.0,1,387.0,1
1363,1363,0.14005673880249125,0.1,0.0,0.0,489.0,717.0,0.0,1,524.0,1
1364,1364,-0.3704120431405218,-0.4,1.0,0.0,478.0,644.0,0.0,0,658.0,1
1365,1365,0.4332894556150081,0.4,1.0,1.0,297.0,730.0,1.0,1,483.0,1
1366,1366,0.6274781109084141,0.6,1.0,1.0,369.0,529.0,1.0,1,472.0,1
1367,1367,0.26202422902120126,0.3,0.0,0.0,405.0,627.0,0.0,1,628.0,1
1368,1368,0.5478664160749543,0.5,1.0,1.0,332.0,531.0,1.0,1,477.0,1
1369,1369,0.4284743674618944,0.4,1.0,1.0,395.0,699.0,1.0,1,506.0,1
1370,1370,-0.4165091568612586,-0.4,0.0,1.0,438.0,593.0,1.0,0,509.0,1
1371,1371,0.468809698729889,0.5,0.0,0.0,488.0,641.0,0.0,1,271.0,1
1372,1372,0.5784303532871827,0.6,1.0,1.0,439.0,531.0,1.0,1,1010.0,1
1373,1373,0.8166231720366016,0.8,1.0,1.0,454.0,671.0,1.0,1,595.0,1
1374,1374,0.558461369855011,0.6,0.0,0.0,253.0,580.0,0.0,1,507.0,1
1375,1375,0.0432648446968098,0.0,1.0,1.0,440.0,929.0,0.0,0,431.0,0
1376,1376,0.09727391144096809,0.1,0.0,0.0,303.0,833.0,0.0,1,1914.0,1
1377,1377,-0.10986132778394186,-0.1,1.0,0.0,265.0,680.0,0.0,0,395.0,1
1378,1378,-0.12996068051991028,-0.1,1.0,0.0,434.0,672.0,1.0,1,344.0,0
1379,1379,0.23355473737540133,0.2,1.0,1.0,292.0,739.0,1.0,1,659.0,1
1380,1380,-0.5095786864902653,-0.5,1.0,0.0,379.0,593.0,0.0,0,408.0,1
1381,1381,-0.12341375770293894,-0.1,0.0,1.0,483.0,912.0,1.0,0,395.0,1
1382,1382,0.10417597177946114,0.1,1.0,1.0,268.0,849.0,1.0,1,563.0,1
1383,1383,-0.2556813690582789,-0.3,1.0,0.0,424.0,693.0,0.0,0,1453.0,1
1384,1384,0.578666601859735,0.6,1.0,1.0,453.0,720.0,1.0,1,237.0,1
1385,1385,0.019574237726838528,0.0,1.0,1.0,462.0,718.0,1.0,1,2320.0,1
1386,1386,0.3314909630148971,0.3,0.0,0.0,455.0,887.0,0.0,1,198.0,1
1387,1387,0.7527694128397889,0.8,0.0,0.0,304.0,828.0,0.0,1,178.0,1
1388,1388,-0.26487465238967234,-0.3,0.0,1.0,321.0,818.0,1.0,0,201.0,1
1389,1389,0.539617322216483,0.5,1.0,1.0,442.0,587.0,1.0,1,471.0,1
1390,1390,0.07223206483825573,0.1,1.0,1.0,425.0,947.0,1.0,1,3138.0,1
1391,1391,0.7402384917092449,0.7,0.0,0.0,461.0,981.0,0.0,1,248.0,1
1392,1392,0.475205487931493,0.5,0.0,0.0,465.0,599.0,0.0,1,406.0,1
1393,1393,-0.05381438783825909,-0.1,0.0,1.0,440.0,590.0,1.0,0,1150.0,1
1394,1394,0.8772726584930898,0.9,0.0,0.0,449.0,964.0,0.0,1,307.0,1
1395,1395,0.06516815284410726,0.1,1.0,1.0,379.0,582.0,1.0,1,4039.0,1
1396,1396,0.04400658506169741,0.0,0.0,0.0,409.0,783.0,1.0,0,458.0,0
1397,1397,0.8060130081213651,0.8,0.0,0.0,385.0,740.0,0.0,1,765.0,1
1398,1398,-0.412220518759566,-0.4,1.0,0.0,364.0,770.0,0.0,0,566.0,1
1399,1399,-0.350804748703337,-0.4,1.0,0.0,364.0,962.0,0.0,0,-86.0,1
1400,1400,-0.6490546201492539,-0.6,0.0,1.0,296.0,691.0,1.0,0,263.0,1
1401,1401,0.3375592590381896,0.3,1.0,1.0,442.0,905.0,1.0,1,1253.0,1
1402,1402,-0.4809820682658231,-0.5,0.0,1.0,449.0,890.0,1.0,0,311.0,1
1403,1403,0.16813725580698768,0.2,1.0,1.0,329.0,741.0,1.0,1,230.0,1
1404,1404,0.15989329032705435,0.2,1.0,1.0,277.0,591.0,1.0,1,692.0,1
1405,1405,0.13148711764456655,0.1,1.0,1.0,395.0,779.0,1.0,1,1296.0,1
1406,1406,-0.039868721538703134,-0.0,0.0,1.0,274.0,790.0,1.0,0,3776.0,1
1407,1407,-0.46794572797148715,-0.5,1.0,0.0,421.0,998.0,0.0,0,371.0,1
1408,1408,0.08660860999186626,0.1,0.0,0.0,372.0,582.0,0.0,1,2126.0,1
1409,1409,-0.7189190334193005,-0.7,0.0,1.0,352.0,659.0,1.0,0,279.0,1
1410,1410,-0.5277130190115896,-0.5,0.0,1.0,297.0,613.0,1.0,0,340.0,1
1411,1411,-0.03526964566980384,-0.0,0.0,1.0,302.0,943.0,0.0,1,3755.0,0
1412,1412,0.3544322398879357,0.4,1.0,1.0,392.0,620.0,1.0,1,1208.0,1
1413,1413,0.24748314848266395,0.2,1.0,1.0,474.0,848.0,1.0,1,128.0,1
1414,1414,0.7054869435026946,0.7,0.0,0.0,479.0,908.0,0.0,1,223.0,1
1415,1415,-0.8873750965356115,-0.9,1.0,0.0,377.0,560.0,0.0,0,453.0,1
1416,1416,0.4982121815512285,0.5,0.0,0.0,308.0,708.0,0.0,1,284.0,1
1417,1417,-0.394237810840646,-0.4,1.0,0.0,278.0,569.0,0.0,0,573.0,1
1418,1418,-0.3303433275873967,-0.3,1.0,0.0,310.0,851.0,0.0,0,409.0,1
1419,1419,0.8590145971576487,0.9,1.0,1.0,492.0,993.0,1.0,1,365.0,1
1420,1420,0.6904882608439321,0.7,0.0,0.0,286.0,972.0,0.0,1,712.0,1
1421,1421,-0.8388032838428742,-0.8,0.0,1.0,417.0,664.0,1.0,0,469.0,1
1422,1422,0.8141533362937995,0.8,0.0,0.0,435.0,513.0,0.0,1,412.0,1
1423,1423,-0.13945158961954285,-0.1,0.0,1.0,433.0,902.0,1.0,0,285.0,1
1424,1424,-0.4446164708762619,-0.4,1.0,0.0,424.0,995.0,0.0,0,451.0,1
1425,1425,0.7636288621119954,0.8,1.0,1.0,433.0,724.0,1.0,1,503.0,1
1426,1426,0.28018916934625115,0.3,0.0,0.0,372.0,688.0,0.0,1,710.0,1
1427,1427,0.6623378151547484,0.7,0.0,0.0,344.0,556.0,0.0,1,970.0,1
1428,1428,-0.26726805090251093,-0.3,1.0,0.0,355.0,896.0,0.0,0,299.0,1
1429,1429,0.5399755668723202,0.5,1.0,1.0,435.0,605.0,1.0,1,370.0,1
1430,1430,-0.8953056299782121,-0.9,1.0,0.0,469.0,657.0,0.0,0,634.0,1
1431,1431,0.09136459315013679,0.1,1.0,1.0,479.0,728.0,1.0,1,1153.0,1
1432,1432,0.6260134658512434,0.6,0.0,0.0,301.0,553.0,0.0,1,376.0,1
1433,1433,0.35416432514428975,0.4,0.0,0.0,285.0,913.0,0.0,1,1382.0,1
1434,1434,0.2687652162286772,0.3,0.0,0.0,282.0,905.0,0.0,1,1253.0,1
1435,1435,-0.6181825122921782,-0.6,1.0,0.0,486.0,902.0,0.0,0,762.0,1
1436,1436,-0.8000822585659519,-0.8,1.0,0.0,426.0,679.0,0.0,0,455.0,1
1437,1437,0.41714295029398063,0.4,0.0,0.0,338.0,950.0,0.0,1,652.0,1
1438,1438,-0.5001586074845332,-0.5,0.0,1.0,267.0,724.0,1.0,0,299.0,1
1439,1439,-0.7233478195250358,-0.7,1.0,0.0,469.0,842.0,0.0,0,279.0,1
1440,1440,0.2477697825917392,0.2,0.0,0.0,267.0,736.0,0.0,1,637.0,1
1441,1441,0.5366421347119487,0.5,1.0,1.0,400.0,685.0,1.0,1,225.0,1
1442,1442,0.4451889923950182,0.4,1.0,1.0,417.0,849.0,1.0,1,374.0,1
1443,1443,0.08904505597823842,0.1,0.0,0.0,289.0,556.0,1.0,0,485.0,0
1444,1444,-0.340222776559414,-0.3,1.0,0.0,292.0,641.0,0.0,0,1367.0,1
1445,1445,-0.8062668922167555,-0.8,0.0,1.0,417.0,733.0,1.0,0,180.0,1
1446,1446,0.26051511368053226,0.3,1.0,1.0,336.0,759.0,1.0,1,275.0,1
1447,1447,0.5183734903855769,0.5,0.0,0.0,495.0,580.0,0.0,1,425.0,1
1448,1448,0.4072546038162498,0.4,0.0,0.0,268.0,616.0,0.0,1,386.0,1
1449,1449,0.6662372901492403,0.7,0.0,0.0,384.0,955.0,0.0,1,271.0,1
1450,1450,-0.6870349518006738,-0.7,0.0,1.0,475.0,808.0,1.0,0,177.0,1
1451,1451,0.02327846701167935,0.0,1.0,1.0,349.0,826.0,0.0,0,555.0,0
1452,1452,0.13899668168534662,0.1,1.0,1.0,425.0,964.0,0.0,0,-109.0,0
1453,1453,0.384943235089945,0.4,1.0,1.0,457.0,756.0,1.0,1,157.0,1
1454,1454,0.111321469151754,0.1,0.0,0.0,436.0,832.0,0.0,1,2932.0,1
1455,1455,-0.7367828152332776,-0.7,0.0,1.0,313.0,652.0,1.0,0,205.0,1
1456,1456,-0.1632157388759905,-0.2,1.0,0.0,427.0,859.0,0.0,0,464.0,1
1457,1457,-0.4131206638352502,-0.4,0.0,1.0,465.0,562.0,1.0,0,633.0,1
1458,1458,-0.009165535954994253,-0.0,1.0,0.0,397.0,859.0,0.0,0,2134.0,1
1459,1459,-0.5706303472166292,-0.6,1.0,0.0,326.0,622.0,0.0,0,252.0,1
1460,1460,0.7925904613709812,0.8,1.0,1.0,291.0,745.0,1.0,1,264.0,1
1461,1461,-0.8584976661364311,-0.9,1.0,0.0,489.0,805.0,0.0,0,166.0,1
1462,1462,0.37152965490311296,0.4,1.0,1.0,439.0,733.0,1.0,1,538.0,1
1463,1463,-0.8364584193141335,-0.8,1.0,0.0,360.0,897.0,0.0,0,143.0,1
1464,1464,-0.7084689731428945,-0.7,0.0,1.0,257.0,822.0,1.0,0,281.0,1
1465,1465,-0.23876861103210079,-0.2,1.0,0.0,419.0,955.0,0.0,0,486.0,1
1466,1466,-0.766880150359651,-0.8,1.0,0.0,291.0,951.0,0.0,0,388.0,1
1467,1467,0.3378670357197219,0.3,0.0,0.0,454.0,737.0,0.0,1,299.0,1
1468,1468,0.3079473043613016,0.3,0.0,0.0,293.0,903.0,0.0,1,14.0,1
1469,1469,-0.7306895626797799,-0.7,1.0,0.0,445.0,725.0,0.0,0,280.0,1
1470,1470,0.08907402331343717,0.1,1.0,1.0,406.0,712.0,1.0,1,2042.0,1
1471,1471,-0.16818942549768057,-0.2,1.0,0.0,410.0,753.0,1.0,1,297.0,0
1472,1472,-0.10451526653381582,-0.1,0.0,1.0,448.0,628.0,1.0,0,724.0,1
1473,1473,0.1880926767657266,0.2,1.0,1.0,420.0,770.0,0.0,0,80.0,0
1474,1474,0.8579079703480382,0.9,1.0,1.0,360.0,781.0,1.0,1,579.0,1
1475,1475,-0.10349980554622373,-0.1,1.0,0.0,439.0,651.0,0.0,0,2560.0,1
1476,1476,0.08432746367198773,0.1,0.0,0.0,460.0,797.0,0.0,1,833.0,1
1477,1477,0.672847256253433,0.7,0.0,0.0,440.0,601.0,0.0,1,449.0,1
1478,1478,-0.20971736450730272,-0.2,1.0,0.0,450.0,587.0,0.0,0,873.0,1
1479,1479,0.14341056486965897,0.1,1.0,1.0,264.0,919.0,1.0,1,357.0,1
1480,1480,-0.5883138190055552,-0.6,1.0,0.0,412.0,997.0,0.0,0,241.0,1
1481,1481,-0.3392135177427923,-0.3,1.0,0.0,299.0,941.0,0.0,0,1040.0,1
1482,1482,-0.0512558663662388,-0.1,0.0,1.0,299.0,924.0,1.0,0,2307.0,1
1483,1483,-0.7259219513696373,-0.7,1.0,0.0,344.0,998.0,0.0,0,548.0,1
1484,1484,-0.7656073975859147,-0.8,1.0,0.0,265.0,505.0,0.0,0,520.0,1
1485,1485,0.872730553262543,0.9,0.0,0.0,268.0,922.0,0.0,1,420.0,1
1486,1486,-0.861855604806809,-0.9,0.0,1.0,463.0,729.0,1.0,0,168.0,1
1487,1487,-0.6149264947943334,-0.6,1.0,0.0,284.0,968.0,0.0,0,8.0,1
1488,1488,0.2806953284784145,0.3,1.0,1.0,448.0,892.0,1.0,1,640.0,1
1489,1489,-0.4155098224273855,-0.4,0.0,1.0,341.0,771.0,1.0,0,588.0,1
1490,1490,-0.2075751301888229,-0.2,0.0,1.0,394.0,514.0,1.0,0,572.0,1
1491,1491,-0.6477448190359061,-0.6,1.0,0.0,364.0,844.0,0.0,0,222.0,1
