,trial,coherence,coherence_bin,green_side,correct_side,target_onset,checker_onset,decision,green_decision,decision_time,correct_decision
0,0,-0.7007769889077761,-0.7,1.0,0.0,450.0,765.0,0.0,0,145.0,1
1,1,0.6561744697761008,0.7,1.0,1.0,476.0,927.0,1.0,1,407.0,1
2,2,-0.8608282653222473,-0.9,0.0,1.0,365.0,747.0,1.0,0,258.0,1
3,3,0.8169589183747391,0.8,1.0,1.0,314.0,939.0,1.0,1,87.0,1
4,4,0.8227129247661317,0.8,0.0,0.0,394.0,788.0,0.0,1,738.0,1
5,5,-0.040503737217186475,-0.0,1.0,0.0,352.0,594.0,0.0,0,2464.0,1
6,6,-0.01616119341558675,-0.0,1.0,0.0,296.0,676.0,1.0,1,608.0,0
7,7,0.04595646722241986,0.0,1.0,1.0,336.0,851.0,1.0,1,683.0,1
8,8,-0.32342939269457005,-0.3,1.0,0.0,261.0,807.0,0.0,0,402.0,1
9,9,-0.7516553384965847,-0.8,0.0,1.0,304.0,795.0,1.0,0,181.0,1
10,10,0.1908389648716896,0.2,0.0,0.0,423.0,793.0,1.0,0,144.0,0
11,11,-0.04807356733094037,-0.0,1.0,0.0,455.0,742.0,0.0,0,753.0,1
12,12,-0.1472442851369804,-0.1,0.0,1.0,337.0,819.0,1.0,0,174.0,1
13,13,0.552706791420363,0.6,0.0,0.0,477.0,609.0,0.0,1,394.0,1
14,14,-0.7996407285089537,-0.8,0.0,1.0,263.0,992.0,0.0,1,15.0,0
15,15,0.5342472626879645,0.5,1.0,1.0,366.0,704.0,1.0,1,540.0,1
16,16,0.6271241938842306,0.6,0.0,0.0,307.0,633.0,0.0,1,830.0,1
17,17,-0.4845282072758275,-0.5,0.0,1.0,487.0,870.0,1.0,0,343.0,1
18,18,-0.6805374064293261,-0.7,0.0,1.0,383.0,802.0,1.0,0,215.0,1
19,19,-0.2436478897600799,-0.2,0.0,1.0,375.0,669.0,1.0,0,326.0,1
20,20,0.15422991723595947,0.2,1.0,1.0,258.0,966.0,1.0,1,1326.0,1
21,21,0.18349719584367208,0.2,0.0,0.0,314.0,564.0,0.0,1,972.0,1
22,22,-0.24796884151057097,-0.2,1.0,0.0,409.0,719.0,0.0,0,792.0,1
23,23,0.20668684019612293,0.2,0.0,0.0,465.0,988.0,1.0,0,697.0,0
24,24,-0.6823276836606711,-0.7,0.0,1.0,316.0,748.0,1.0,0,136.0,1
25,25,-0.6405145904008536,-0.6,0.0,1.0,309.0,814.0,1.0,0,347.0,1
26,26,-0.6770114470841275,-0.7,0.0,1.0,287.0,846.0,1.0,0,127.0,1
27,27,0.765325263850475,0.8,1.0,1.0,323.0,756.0,1.0,1,501.0,1
28,28,-0.04178229159003222,-0.0,1.0,0.0,384.0,982.0,0.0,0,1144.0,1
29,29,-0.891598218482051,-0.9,1.0,0.0,275.0,794.0,0.0,0,201.0,1
30,30,-0.25008825009325397,-0.3,0.0,1.0,472.0,916.0,1.0,0,232.0,1
31,31,0.27085203491033527,0.3,1.0,1.0,342.0,997.0,1.0,1,591.0,1
32,32,0.49342568447985646,0.5,1.0,1.0,281.0,611.0,1.0,1,498.0,1
33,33,0.06084616895848971,0.1,0.0,0.0,381.0,926.0,0.0,1,33.0,1
34,34,0.20189482232093392,0.2,0.0,0.0,431.0,744.0,0.0,1,305.0,1
35,35,0.5873349101406801,0.6,0.0,0.0,355.0,954.0,0.0,1,401.0,1
36,36,0.4960233767007126,0.5,0.0,0.0,489.0,643.0,0.0,1,588.0,1
37,37,-0.24750542886937021,-0.2,1.0,0.0,282.0,885.0,0.0,0,1003.0,1
38,38,-0.4628572539597529,-0.5,0.0,1.0,337.0,970.0,1.0,0,173.0,1
39,39,-0.42550589588419185,-0.4,1.0,0.0,251.0,552.0,0.0,0,837.0,1
40,40,-0.20712908843524291,-0.2,1.0,0.0,303.0,934.0,1.0,1,-197.0,0
41,41,-0.897750958672321,-0.9,0.0,1.0,497.0,921.0,1.0,0,62.0,1
42,42,0.09615759153628678,0.1,1.0,1.0,497.0,995.0,0.0,0,-22.0,0
43,43,0.5311407888040572,0.5,1.0,1.0,340.0,832.0,1.0,1,208.0,1
44,44,0.25259172815432474,0.3,1.0,1.0,455.0,932.0,1.0,1,803.0,1
45,45,-0.253014169911451,-0.3,1.0,0.0,276.0,932.0,1.0,1,292.0,0
46,46,0.09751574362904791,0.1,1.0,1.0,284.0,980.0,1.0,1,1896.0,1
47,47,0.8090411911403496,0.8,1.0,1.0,359.0,623.0,1.0,1,218.0,1
48,48,-0.8007484349965492,-0.8,0.0,1.0,405.0,725.0,1.0,0,290.0,1
49,49,0.8402692902471248,0.8,1.0,1.0,296.0,726.0,1.0,1,158.0,1
50,50,0.6713030745625365,0.7,1.0,1.0,353.0,770.0,1.0,1,347.0,1
51,51,0.7596214219619081,0.8,1.0,1.0,419.0,951.0,1.0,1,180.0,1
52,52,-0.4608798500121802,-0.5,1.0,0.0,347.0,804.0,0.0,0,149.0,1
53,53,0.6412963703530091,0.6,1.0,1.0,496.0,880.0,1.0,1,504.0,1
54,54,-0.40885911820785836,-0.4,0.0,1.0,312.0,507.0,1.0,0,591.0,1
55,55,0.5035203159673004,0.5,1.0,1.0,356.0,682.0,1.0,1,212.0,1
56,56,-0.3126243998348849,-0.3,1.0,0.0,344.0,732.0,0.0,0,424.0,1
57,57,-0.5008951755635731,-0.5,0.0,1.0,364.0,897.0,1.0,0,129.0,1
58,58,-0.8312302385908404,-0.8,0.0,1.0,350.0,739.0,1.0,0,271.0,1
59,59,0.8953461498512741,0.9,1.0,1.0,385.0,993.0,1.0,1,172.0,1
60,60,-0.6841558960928062,-0.7,1.0,0.0,279.0,835.0,1.0,1,-74.0,0
61,61,-0.8461369575988639,-0.8,1.0,0.0,390.0,768.0,0.0,0,262.0,1
62,62,0.13813366648877834,0.1,0.0,0.0,370.0,947.0,1.0,0,1993.0,0
63,63,0.7526921787175532,0.8,0.0,0.0,371.0,610.0,0.0,1,399.0,1
64,64,-0.7476505776771231,-0.7,1.0,0.0,260.0,504.0,0.0,0,286.0,1
65,65,-0.025031836160790077,-0.0,1.0,0.0,385.0,531.0,1.0,1,914.0,0
66,66,-0.10571530555225406,-0.1,1.0,0.0,252.0,636.0,1.0,1,2022.0,0
67,67,-0.5567765063895422,-0.6,1.0,0.0,369.0,536.0,0.0,0,345.0,1
68,68,0.006355944753929754,0.0,1.0,1.0,338.0,795.0,1.0,1,117.0,1
69,69,-0.19822844919275628,-0.2,0.0,1.0,352.0,577.0,1.0,0,831.0,1
70,70,0.5801149885899143,0.6,0.0,0.0,324.0,831.0,0.0,1,255.0,1
71,71,-0.8696850254271301,-0.9,0.0,1.0,498.0,540.0,1.0,0,492.0,1
72,72,0.8823708434620178,0.9,1.0,1.0,350.0,921.0,1.0,1,79.0,1
73,73,-0.17416068380795413,-0.2,1.0,0.0,352.0,868.0,0.0,0,410.0,1
74,74,0.3735197781693961,0.4,1.0,1.0,356.0,803.0,1.0,1,161.0,1
75,75,-0.03340749456421643,-0.0,1.0,0.0,418.0,975.0,0.0,0,687.0,1
76,76,-0.5373671667828599,-0.5,0.0,1.0,354.0,894.0,1.0,0,302.0,1
77,77,-0.7416220083530934,-0.7,1.0,0.0,362.0,898.0,0.0,0,-20.0,1
78,78,0.4838241582856678,0.5,0.0,0.0,437.0,771.0,0.0,1,452.0,1
79,79,0.1789298161378895,0.2,0.0,0.0,350.0,613.0,0.0,1,527.0,1
80,80,-0.8783967091620563,-0.9,1.0,0.0,415.0,628.0,0.0,0,447.0,1
81,81,0.717621082597209,0.7,1.0,1.0,316.0,927.0,1.0,1,217.0,1
82,82,0.011443360458979646,0.0,0.0,0.0,376.0,636.0,1.0,0,1648.0,0
83,83,0.8268342372045875,0.8,0.0,0.0,253.0,566.0,0.0,1,421.0,1
84,84,0.7202535996777423,0.7,0.0,0.0,473.0,558.0,0.0,1,389.0,1
85,85,0.2567018948913925,0.3,0.0,0.0,386.0,728.0,0.0,1,416.0,1
86,86,-0.6175112144124306,-0.6,1.0,0.0,388.0,935.0,0.0,0,267.0,1
87,87,-0.36639814327985887,-0.4,1.0,0.0,400.0,662.0,0.0,0,308.0,1
88,88,-0.7252290222073948,-0.7,1.0,0.0,290.0,618.0,0.0,0,382.0,1
89,89,-0.4963459281811382,-0.5,1.0,0.0,375.0,501.0,0.0,0,364.0,1
90,90,-0.16869938095355597,-0.2,1.0,0.0,343.0,662.0,0.0,0,725.0,1
91,91,-0.05419972205378787,-0.1,0.0,1.0,285.0,677.0,1.0,0,748.0,1
92,92,0.16662442734561067,0.2,0.0,0.0,380.0,560.0,1.0,0,990.0,0
93,93,0.8700112480705925,0.9,1.0,1.0,382.0,591.0,1.0,1,297.0,1
94,94,-0.2046001501470358,-0.2,1.0,0.0,359.0,979.0,0.0,0,392.0,1
95,95,0.1710386857698435,0.2,1.0,1.0,454.0,746.0,1.0,1,1280.0,1
96,96,-0.2788746729426208,-0.3,0.0,1.0,446.0,911.0,1.0,0,753.0,1
97,97,-0.582459582249871,-0.6,0.0,1.0,486.0,964.0,1.0,0,250.0,1
98,98,-0.7288570718872117,-0.7,0.0,1.0,283.0,642.0,1.0,0,415.0,1
99,99,-0.5301702493819136,-0.5,0.0,1.0,498.0,557.0,1.0,0,425.0,1
100,100,-0.593167546346069,-0.6,0.0,1.0,380.0,914.0,1.0,0,186.0,1
101,101,-0.6485165055374205,-0.6,0.0,1.0,484.0,978.0,1.0,0,298.0,1
102,102,-0.374702289399666,-0.4,1.0,0.0,273.0,869.0,0.0,0,628.0,1
103,103,-0.568689219204455,-0.6,1.0,0.0,458.0,519.0,0.0,0,513.0,1
104,104,0.32636680128492557,0.3,1.0,1.0,258.0,911.0,1.0,1,481.0,1
105,105,-0.8135774019525902,-0.8,1.0,0.0,281.0,781.0,0.0,0,308.0,1
106,106,0.08398069477526715,0.1,0.0,0.0,413.0,732.0,0.0,1,415.0,1
107,107,-0.866050104177324,-0.9,0.0,1.0,402.0,849.0,1.0,0,149.0,1
108,108,-0.6745154431588475,-0.7,1.0,0.0,305.0,520.0,0.0,0,555.0,1
109,109,-0.10405606032071224,-0.1,0.0,1.0,292.0,629.0,1.0,0,489.0,1
110,110,-0.5111153464069496,-0.5,0.0,1.0,398.0,595.0,1.0,0,507.0,1
111,111,-0.8754167656135444,-0.9,0.0,1.0,294.0,529.0,1.0,0,477.0,1
112,112,0.4905544842567523,0.5,1.0,1.0,418.0,805.0,1.0,1,477.0,1
113,113,0.4351464572513549,0.4,1.0,1.0,442.0,894.0,1.0,1,134.0,1
114,114,0.4388554496047502,0.4,1.0,1.0,411.0,810.0,1.0,1,179.0,1
115,115,0.6585030806083539,0.7,1.0,1.0,399.0,589.0,1.0,1,182.0,1
116,116,-0.39363775764727493,-0.4,0.0,1.0,316.0,801.0,1.0,0,303.0,1
117,117,-0.6683630586769188,-0.7,1.0,0.0,452.0,505.0,0.0,0,463.0,1
118,118,0.8987303761162785,0.9,1.0,1.0,344.0,558.0,1.0,1,288.0,1
119,119,0.5901378981234217,0.6,1.0,1.0,338.0,670.0,1.0,1,292.0,1
120,120,-0.154202542294674,-0.2,1.0,0.0,358.0,859.0,1.0,1,73.0,0
121,121,0.14104991034076242,0.1,0.0,0.0,356.0,628.0,1.0,0,866.0,0
122,122,0.6656011583891998,0.7,1.0,1.0,396.0,530.0,1.0,1,594.0,1
123,123,0.1811277375321131,0.2,1.0,1.0,473.0,539.0,1.0,1,808.0,1
124,124,0.6602217740880781,0.7,0.0,0.0,265.0,711.0,0.0,1,344.0,1
125,125,0.10228034376276784,0.1,0.0,0.0,494.0,867.0,1.0,0,1189.0,0
126,126,-0.5388933356524508,-0.5,0.0,1.0,388.0,881.0,1.0,0,331.0,1
127,127,0.7636266551300658,0.8,1.0,1.0,345.0,960.0,1.0,1,335.0,1
128,128,-0.06618078749408807,-0.1,0.0,1.0,285.0,803.0,1.0,0,372.0,1
129,129,0.5474924728494815,0.5,1.0,1.0,488.0,697.0,1.0,1,455.0,1
130,130,-0.5591408634998265,-0.6,1.0,0.0,288.0,800.0,0.0,0,452.0,1
131,131,-0.4619838128927433,-0.5,0.0,1.0,259.0,555.0,1.0,0,426.0,1
132,132,0.2383264657693055,0.2,0.0,0.0,350.0,557.0,1.0,0,393.0,0
133,133,-0.5333909046342536,-0.5,0.0,1.0,405.0,580.0,1.0,0,355.0,1
134,134,-0.6160357331369399,-0.6,0.0,1.0,338.0,685.0,1.0,0,457.0,1
135,135,0.7947009415412419,0.8,0.0,0.0,463.0,675.0,0.0,1,362.0,1
136,136,-0.53254277132283,-0.5,0.0,1.0,325.0,587.0,1.0,0,278.0,1
137,137,-0.4036545435330513,-0.4,1.0,0.0,340.0,618.0,0.0,0,2822.0,1
138,138,0.49638259226426895,0.5,0.0,0.0,358.0,605.0,0.0,1,657.0,1
139,139,-0.27027342812316213,-0.3,1.0,0.0,405.0,904.0,1.0,1,571.0,0
140,140,-0.7841473310234379,-0.8,1.0,0.0,289.0,620.0,0.0,0,481.0,1
141,141,-0.4970947317554728,-0.5,1.0,0.0,253.0,763.0,0.0,0,464.0,1
142,142,-0.6539058362219075,-0.7,0.0,1.0,311.0,543.0,1.0,0,306.0,1
143,143,0.2737876132931597,0.3,0.0,0.0,305.0,820.0,1.0,0,215.0,0
144,144,0.1444812255134581,0.1,1.0,1.0,494.0,916.0,1.0,1,500.0,1
145,145,0.25985423971093946,0.3,0.0,0.0,355.0,891.0,0.0,1,674.0,1
146,146,0.41912043523829856,0.4,1.0,1.0,341.0,545.0,1.0,1,164.0,1
147,147,-0.4875264635446203,-0.5,0.0,1.0,494.0,677.0,1.0,0,369.0,1
148,148,0.5664994540753506,0.6,1.0,1.0,346.0,615.0,1.0,1,289.0,1
149,149,-0.06412039019037419,-0.1,0.0,1.0,354.0,825.0,0.0,1,531.0,0
150,150,0.04742979448571916,0.0,0.0,0.0,261.0,679.0,1.0,0,810.0,0
151,151,-0.22923877709666218,-0.2,0.0,1.0,300.0,874.0,1.0,0,116.0,1
152,152,-0.22581640314456664,-0.2,0.0,1.0,341.0,861.0,1.0,0,118.0,1
153,153,-0.5830956884171923,-0.6,0.0,1.0,305.0,822.0,1.0,0,163.0,1
154,154,0.7984831558877085,0.8,1.0,1.0,429.0,676.0,1.0,1,635.0,1
155,155,-0.03405320743344509,-0.0,1.0,0.0,396.0,652.0,1.0,1,172.0,0
156,156,0.457218038661514,0.5,0.0,0.0,319.0,677.0,0.0,1,274.0,1
157,157,-0.05447291340939464,-0.1,1.0,0.0,326.0,883.0,1.0,1,-69.0,0
158,158,-0.8644915641713509,-0.9,1.0,0.0,369.0,767.0,0.0,0,204.0,1
159,159,0.19326295837961271,0.2,1.0,1.0,397.0,507.0,1.0,1,1056.0,1
160,160,-0.2458800814793196,-0.2,0.0,1.0,350.0,571.0,1.0,0,579.0,1
161,161,0.4558392442949005,0.5,1.0,1.0,404.0,608.0,1.0,1,638.0,1
162,162,0.6540550588724002,0.7,0.0,0.0,426.0,883.0,0.0,1,201.0,1
163,163,0.6838170484554934,0.7,1.0,1.0,401.0,801.0,1.0,1,78.0,1
164,164,0.7156809971055295,0.7,0.0,0.0,321.0,881.0,0.0,1,338.0,1
165,165,0.3038491195876488,0.3,1.0,1.0,485.0,730.0,1.0,1,245.0,1
166,166,-0.5770644460717015,-0.6,0.0,1.0,456.0,718.0,1.0,0,386.0,1
167,167,-0.4038754749690479,-0.4,0.0,1.0,385.0,982.0,1.0,0,373.0,1
168,168,-0.013323727961009224,-0.0,1.0,0.0,409.0,710.0,1.0,1,1621.0,0
169,169,0.7374857203645943,0.7,1.0,1.0,298.0,831.0,1.0,1,131.0,1
170,170,0.741548586510577,0.7,1.0,1.0,388.0,584.0,1.0,1,228.0,1
171,171,-0.6915008253203708,-0.7,1.0,0.0,372.0,678.0,0.0,0,350.0,1
172,172,-0.17738464258938014,-0.2,1.0,0.0,450.0,788.0,0.0,0,1152.0,1
173,173,-0.7994264978773685,-0.8,0.0,1.0,405.0,694.0,1.0,0,311.0,1
174,174,0.2588336448467644,0.3,0.0,0.0,451.0,670.0,0.0,1,839.0,1
175,175,0.09624717063255694,0.1,0.0,0.0,344.0,837.0,0.0,1,249.0,1
176,176,0.6227763687671338,0.6,0.0,0.0,375.0,715.0,0.0,1,340.0,1
177,177,0.750813945920127,0.8,1.0,1.0,394.0,827.0,1.0,1,99.0,1
178,178,0.6819301703259976,0.7,0.0,0.0,256.0,824.0,0.0,1,140.0,1
179,179,0.2835381550947841,0.3,1.0,1.0,449.0,635.0,1.0,1,566.0,1
180,180,-0.11953093799532066,-0.1,0.0,1.0,491.0,863.0,1.0,0,386.0,1
181,181,-0.7659637226453867,-0.8,1.0,0.0,413.0,920.0,0.0,0,557.0,1
182,182,0.08528361931283357,0.1,0.0,0.0,300.0,735.0,1.0,0,1925.0,0
183,183,0.45741113147029033,0.5,0.0,0.0,437.0,720.0,0.0,1,293.0,1
184,184,0.7280598972892945,0.7,0.0,0.0,328.0,697.0,0.0,1,375.0,1
185,185,0.5859488675311625,0.6,0.0,0.0,298.0,853.0,0.0,1,339.0,1
186,186,-0.21672208322727582,-0.2,1.0,0.0,467.0,959.0,1.0,1,204.0,0
187,187,-0.26561872584272184,-0.3,0.0,1.0,453.0,860.0,1.0,0,137.0,1
188,188,-0.39935198336571653,-0.4,1.0,0.0,354.0,647.0,0.0,0,499.0,1
189,189,0.6024125400902053,0.6,1.0,1.0,393.0,870.0,1.0,1,307.0,1
190,190,0.2966861018115535,0.3,0.0,0.0,324.0,622.0,0.0,1,514.0,1
191,191,-0.5375868441779408,-0.5,1.0,0.0,312.0,573.0,0.0,0,275.0,1
192,192,-0.3375916654863218,-0.3,1.0,0.0,490.0,888.0,0.0,0,982.0,1
193,193,-0.23986407904020146,-0.2,0.0,1.0,460.0,827.0,1.0,0,93.0,1
194,194,-0.8271074169202403,-0.8,0.0,1.0,305.0,509.0,1.0,0,756.0,1
195,195,-0.7437576391128934,-0.7,1.0,0.0,414.0,622.0,0.0,0,614.0,1
196,196,0.5834055380936832,0.6,0.0,0.0,388.0,746.0,0.0,1,316.0,1
197,197,-0.11077486723897134,-0.1,1.0,0.0,495.0,893.0,0.0,0,742.0,1
198,198,0.11598502515553732,0.1,1.0,1.0,268.0,785.0,0.0,0,877.0,0
199,199,-0.40832442703185823,-0.4,0.0,1.0,349.0,586.0,1.0,0,285.0,1
200,200,-0.7753178822540804,-0.8,0.0,1.0,450.0,966.0,1.0,0,234.0,1
201,201,-0.6438051864738137,-0.6,0.0,1.0,348.0,720.0,1.0,0,282.0,1
202,202,-0.5366822799021385,-0.5,1.0,0.0,429.0,672.0,0.0,0,829.0,1
203,203,0.09465736229518651,0.1,1.0,1.0,406.0,886.0,1.0,1,238.0,1
204,204,-0.12526391892314082,-0.1,1.0,0.0,492.0,720.0,0.0,0,1498.0,1
205,205,0.3030007853494233,0.3,1.0,1.0,325.0,988.0,1.0,1,487.0,1
206,206,-0.22776214543618278,-0.2,0.0,1.0,487.0,721.0,1.0,0,262.0,1
207,207,-0.5489605669898496,-0.5,0.0,1.0,480.0,862.0,1.0,0,68.0,1
208,208,-0.5332557290040916,-0.5,0.0,1.0,387.0,543.0,1.0,0,1060.0,1
209,209,0.23651461956476505,0.2,1.0,1.0,369.0,868.0,1.0,1,193.0,1
210,210,-0.18500060036259436,-0.2,1.0,0.0,368.0,766.0,1.0,1,356.0,0
211,211,0.8033333270921316,0.8,1.0,1.0,347.0,972.0,1.0,1,231.0,1
212,212,-0.7865254832541435,-0.8,1.0,0.0,429.0,881.0,0.0,0,340.0,1
213,213,-0.7571022080239338,-0.8,0.0,1.0,254.0,886.0,1.0,0,70.0,1
214,214,-0.6414323386912839,-0.6,1.0,0.0,451.0,735.0,0.0,0,164.0,1
215,215,-0.5033286172098452,-0.5,0.0,1.0,385.0,878.0,1.0,0,187.0,1
216,216,0.24928159733606925,0.2,1.0,1.0,272.0,747.0,1.0,1,851.0,1
217,217,0.7918185494948801,0.8,1.0,1.0,296.0,672.0,1.0,1,202.0,1
218,218,-0.8457806209674258,-0.8,1.0,0.0,437.0,788.0,0.0,0,1025.0,1
219,219,-0.18872408962495646,-0.2,0.0,1.0,272.0,699.0,1.0,0,599.0,1
220,220,0.7070432638884095,0.7,0.0,0.0,480.0,553.0,0.0,1,557.0,1
221,221,0.3134138794095388,0.3,0.0,0.0,416.0,965.0,0.0,1,379.0,1
222,222,0.7606175955686975,0.8,1.0,1.0,314.0,620.0,1.0,1,466.0,1
223,223,-0.7667402936415116,-0.8,0.0,1.0,379.0,679.0,1.0,0,192.0,1
224,224,0.17650092353099078,0.2,0.0,0.0,386.0,596.0,1.0,0,888.0,0
225,225,-0.08629387008605016,-0.1,1.0,0.0,478.0,560.0,0.0,0,342.0,1
226,226,-0.47243075832987175,-0.5,0.0,1.0,278.0,655.0,1.0,0,307.0,1
227,227,-0.4427705358579464,-0.4,1.0,0.0,475.0,775.0,0.0,0,490.0,1
228,228,-0.35416893671403604,-0.4,0.0,1.0,441.0,947.0,1.0,0,412.0,1
229,229,-0.08176277004473764,-0.1,1.0,0.0,278.0,768.0,1.0,1,454.0,0
230,230,-0.18105881243295696,-0.2,0.0,1.0,496.0,912.0,1.0,0,192.0,1
231,231,0.48471727893170236,0.5,0.0,0.0,448.0,576.0,0.0,1,566.0,1
232,232,0.4649660888184578,0.5,1.0,1.0,310.0,727.0,1.0,1,263.0,1
233,233,0.8196893354477502,0.8,1.0,1.0,296.0,555.0,1.0,1,249.0,1
234,234,-0.8005757653150101,-0.8,0.0,1.0,281.0,528.0,1.0,0,521.0,1
235,235,0.8905986868161501,0.9,0.0,0.0,338.0,835.0,0.0,1,237.0,1
236,236,0.7163187080924133,0.7,0.0,0.0,432.0,854.0,0.0,1,474.0,1
237,237,0.2537420703612915,0.3,0.0,0.0,323.0,950.0,1.0,0,-63.0,0
238,238,-0.1419663464403662,-0.1,0.0,1.0,325.0,716.0,1.0,0,1169.0,1
239,239,-0.2527497623654449,-0.3,1.0,0.0,474.0,749.0,0.0,0,317.0,1
240,240,-0.005151304519343758,-0.0,0.0,1.0,259.0,581.0,1.0,0,530.0,1
241,241,-0.843296696833151,-0.8,0.0,1.0,273.0,641.0,1.0,0,406.0,1
242,242,0.485774703803142,0.5,1.0,1.0,465.0,984.0,1.0,1,191.0,1
243,243,-0.8179998545601478,-0.8,1.0,0.0,256.0,726.0,0.0,0,358.0,1
244,244,0.48707926557889525,0.5,0.0,0.0,497.0,951.0,0.0,1,482.0,1
245,245,0.454425510183483,0.5,1.0,1.0,449.0,725.0,1.0,1,196.0,1
246,246,-0.7681777857156799,-0.8,1.0,0.0,402.0,597.0,0.0,0,321.0,1
247,247,0.7294580535690373,0.7,1.0,1.0,371.0,729.0,1.0,1,490.0,1
248,248,0.4663770027970039,0.5,0.0,0.0,438.0,703.0,0.0,1,329.0,1
249,249,-0.2257248647742206,-0.2,1.0,0.0,281.0,754.0,0.0,0,935.0,1
250,250,-0.3258751090893417,-0.3,0.0,1.0,485.0,719.0,1.0,0,186.0,1
251,251,0.6800279194371136,0.7,1.0,1.0,492.0,523.0,1.0,1,485.0,1
252,252,0.7677679387590487,0.8,0.0,0.0,459.0,693.0,0.0,1,528.0,1
253,253,-0.4892355658306526,-0.5,0.0,1.0,299.0,559.0,1.0,0,512.0,1
254,254,0.8344587104611595,0.8,1.0,1.0,474.0,624.0,1.0,1,362.0,1
255,255,-0.18981857934990876,-0.2,0.0,1.0,296.0,622.0,1.0,0,1012.0,1
256,256,-0.17826775158571162,-0.2,1.0,0.0,393.0,620.0,1.0,1,1287.0,0
257,257,0.3664511842889794,0.4,0.0,0.0,467.0,564.0,0.0,1,639.0,1
258,258,-0.7171549147012406,-0.7,0.0,1.0,328.0,866.0,1.0,0,116.0,1
259,259,0.4793110587922086,0.5,0.0,0.0,327.0,601.0,0.0,1,242.0,1
260,260,-0.7725244220066583,-0.8,0.0,1.0,370.0,542.0,1.0,0,408.0,1
261,261,-0.6774339009707866,-0.7,0.0,1.0,472.0,678.0,1.0,0,470.0,1
262,262,0.4199012895035156,0.4,1.0,1.0,272.0,658.0,1.0,1,440.0,1
263,263,0.8483041600878162,0.8,1.0,1.0,451.0,747.0,1.0,1,172.0,1
264,264,0.7383223518423258,0.7,1.0,1.0,286.0,801.0,1.0,1,113.0,1
265,265,-0.5885997699664581,-0.6,1.0,0.0,373.0,640.0,0.0,0,497.0,1
266,266,-0.23344737944348637,-0.2,1.0,0.0,445.0,934.0,0.0,0,661.0,1
267,267,-0.33819611675686234,-0.3,1.0,0.0,407.0,871.0,0.0,0,182.0,1
268,268,-0.41403892309239176,-0.4,0.0,1.0,273.0,830.0,1.0,0,267.0,1
269,269,0.0435508296499435,0.0,0.0,0.0,402.0,965.0,0.0,1,53.0,1
270,270,-0.48673220217552954,-0.5,1.0,0.0,494.0,552.0,0.0,0,474.0,1
271,271,-0.3624411445037331,-0.4,0.0,1.0,289.0,698.0,1.0,0,253.0,1
272,272,0.16707681202919378,0.2,1.0,1.0,396.0,907.0,1.0,1,947.0,1
273,273,-0.5819038111802538,-0.6,1.0,0.0,304.0,662.0,0.0,0,454.0,1
274,274,-0.19233808945814035,-0.2,1.0,0.0,251.0,899.0,0.0,0,320.0,1
275,275,0.5800457501221216,0.6,1.0,1.0,398.0,671.0,1.0,1,361.0,1
276,276,0.17975670293505963,0.2,1.0,1.0,475.0,735.0,1.0,1,640.0,1
277,277,-0.713998340244592,-0.7,1.0,0.0,349.0,980.0,0.0,0,801.0,1
278,278,-0.3813559982122642,-0.4,1.0,0.0,411.0,575.0,0.0,0,684.0,1
279,279,-0.689325564217537,-0.7,1.0,0.0,268.0,703.0,0.0,0,1099.0,1
280,280,-0.20500462587652468,-0.2,1.0,0.0,250.0,727.0,0.0,0,553.0,1
281,281,-0.006437253443597468,-0.0,1.0,0.0,326.0,793.0,1.0,1,2351.0,0
282,282,-0.680406223727527,-0.7,1.0,0.0,432.0,705.0,0.0,0,213.0,1
283,283,0.2715235043936074,0.3,1.0,1.0,276.0,651.0,1.0,1,473.0,1
284,284,-0.7424016248830846,-0.7,0.0,1.0,277.0,752.0,1.0,0,271.0,1
285,285,-0.18431326577784757,-0.2,1.0,0.0,322.0,756.0,0.0,0,222.0,1
286,286,-0.8574804199842778,-0.9,1.0,0.0,447.0,944.0,0.0,0,239.0,1
287,287,-0.8239750195610909,-0.8,1.0,0.0,322.0,562.0,0.0,0,676.0,1
288,288,0.019681431612335265,0.0,1.0,1.0,309.0,729.0,1.0,1,3112.0,1
289,289,0.47280702607805336,0.5,0.0,0.0,349.0,710.0,0.0,1,221.0,1
290,290,-0.7097637576768239,-0.7,0.0,1.0,315.0,696.0,1.0,0,279.0,1
291,291,0.5086797870940775,0.5,0.0,0.0,322.0,876.0,0.0,1,412.0,1
292,292,-0.13448276211016774,-0.1,1.0,0.0,471.0,636.0,0.0,0,823.0,1
293,293,0.5427203268364248,0.5,1.0,1.0,283.0,858.0,1.0,1,289.0,1
294,294,0.5588820757493983,0.6,1.0,1.0,328.0,871.0,1.0,1,291.0,1
295,295,0.7410578496691388,0.7,1.0,1.0,329.0,695.0,1.0,1,386.0,1
296,296,0.43364527462999936,0.4,1.0,1.0,416.0,567.0,1.0,1,407.0,1
297,297,0.8610674897648499,0.9,0.0,0.0,256.0,715.0,0.0,1,219.0,1
298,298,-0.21699555725296893,-0.2,1.0,0.0,268.0,824.0,0.0,0,558.0,1
299,299,0.44931666971822726,0.4,0.0,0.0,260.0,807.0,0.0,1,533.0,1
300,300,0.47393770736610297,0.5,1.0,1.0,465.0,938.0,1.0,1,277.0,1
301,301,-0.7406232455246113,-0.7,1.0,0.0,397.0,566.0,0.0,0,427.0,1
302,302,0.6818939405806409,0.7,0.0,0.0,266.0,968.0,1.0,0,-84.0,0
303,303,-0.37200799669623363,-0.4,1.0,0.0,329.0,917.0,1.0,1,-176.0,0
304,304,0.4272274120022973,0.4,1.0,1.0,380.0,661.0,1.0,1,389.0,1
305,305,0.2333564001771723,0.2,0.0,0.0,381.0,750.0,0.0,1,359.0,1
306,306,0.2371528400206936,0.2,1.0,1.0,370.0,951.0,1.0,1,499.0,1
307,307,-0.8303652471818213,-0.8,1.0,0.0,450.0,570.0,0.0,0,340.0,1
308,308,-0.11956669199998682,-0.1,1.0,0.0,371.0,935.0,1.0,1,1384.0,0
309,309,-0.871122825674063,-0.9,1.0,0.0,259.0,647.0,0.0,0,1004.0,1
310,310,0.33609550142571887,0.3,1.0,1.0,395.0,602.0,1.0,1,903.0,1
311,311,0.6949326756408608,0.7,1.0,1.0,339.0,513.0,1.0,1,308.0,1
312,312,0.17363681962633482,0.2,1.0,1.0,473.0,971.0,1.0,1,1226.0,1
313,313,0.0376449943351328,0.0,0.0,0.0,399.0,726.0,0.0,1,1315.0,1
314,314,0.8472794810941072,0.8,0.0,0.0,426.0,631.0,0.0,1,223.0,1
315,315,0.5011068267021676,0.5,1.0,1.0,316.0,549.0,1.0,1,425.0,1
316,316,-0.10232299968734737,-0.1,0.0,1.0,327.0,785.0,1.0,0,208.0,1
317,317,0.23367910152319926,0.2,0.0,0.0,306.0,677.0,1.0,0,257.0,0
318,318,0.7720827441016042,0.8,0.0,0.0,381.0,845.0,0.0,1,204.0,1
319,319,-0.04605973223573645,-0.0,1.0,0.0,428.0,844.0,0.0,0,28.0,1
320,320,0.02618791303201473,0.0,1.0,1.0,493.0,852.0,1.0,1,165.0,1
321,321,-0.1790342387040661,-0.2,0.0,1.0,492.0,890.0,1.0,0,178.0,1
322,322,0.792883454708826,0.8,0.0,0.0,335.0,698.0,0.0,1,207.0,1
323,323,0.8495288196685234,0.8,0.0,0.0,398.0,595.0,0.0,1,337.0,1
324,324,-0.8875336425928861,-0.9,0.0,1.0,411.0,963.0,1.0,0,146.0,1
325,325,-0.604622546822519,-0.6,1.0,0.0,490.0,711.0,0.0,0,359.0,1
326,326,-0.6746441750212304,-0.7,0.0,1.0,460.0,520.0,1.0,0,460.0,1
327,327,0.46409462090210385,0.5,1.0,1.0,295.0,566.0,1.0,1,549.0,1
328,328,0.6740680069155315,0.7,1.0,1.0,351.0,744.0,1.0,1,265.0,1
329,329,-0.4056282047664209,-0.4,1.0,0.0,441.0,551.0,0.0,0,548.0,1
330,330,0.6845109979786012,0.7,0.0,0.0,380.0,993.0,0.0,1,177.0,1
331,331,-0.043190033389360005,-0.0,0.0,1.0,389.0,666.0,0.0,1,545.0,0
332,332,0.47072537890074717,0.5,0.0,0.0,373.0,965.0,1.0,0,172.0,0
333,333,0.040184270696101976,0.0,0.0,0.0,458.0,923.0,1.0,0,89.0,0
334,334,-0.2034129179587595,-0.2,1.0,0.0,364.0,923.0,1.0,1,373.0,0
335,335,-0.5522591714243414,-0.6,0.0,1.0,464.0,845.0,1.0,0,181.0,1
336,336,0.8867821245804556,0.9,1.0,1.0,296.0,522.0,1.0,1,362.0,1
337,337,-0.6612452232099444,-0.7,1.0,0.0,343.0,582.0,0.0,0,285.0,1
338,338,0.3761551097999184,0.4,1.0,1.0,404.0,682.0,1.0,1,1054.0,1
339,339,-0.5276369445192926,-0.5,0.0,1.0,406.0,648.0,1.0,0,216.0,1
340,340,-0.8460410284118693,-0.8,0.0,1.0,256.0,528.0,1.0,0,486.0,1
341,341,0.6691159122341545,0.7,1.0,1.0,415.0,590.0,1.0,1,385.0,1
342,342,0.23897184034179608,0.2,0.0,0.0,295.0,510.0,0.0,1,825.0,1
343,343,0.7454437286446419,0.7,0.0,0.0,389.0,675.0,0.0,1,346.0,1
344,344,0.07946745440660652,0.1,0.0,0.0,407.0,647.0,0.0,1,636.0,1
345,345,-0.3402843071155657,-0.3,1.0,0.0,352.0,775.0,0.0,0,103.0,1
346,346,-0.40133510469269085,-0.4,1.0,0.0,478.0,956.0,1.0,1,-94.0,0
347,347,-0.8269057734148124,-0.8,1.0,0.0,473.0,835.0,0.0,0,142.0,1
348,348,0.0242602500414294,0.0,1.0,1.0,301.0,746.0,1.0,1,93.0,1
349,349,0.09924640982294952,0.1,0.0,0.0,391.0,739.0,1.0,0,200.0,0
350,350,0.03275166134255447,0.0,1.0,1.0,435.0,782.0,0.0,0,523.0,0
351,351,-0.7343081345767084,-0.7,0.0,1.0,492.0,950.0,1.0,0,-62.0,1
352,352,-0.12981926577969738,-0.1,1.0,0.0,407.0,974.0,1.0,1,259.0,0
353,353,-0.34459646202487093,-0.3,1.0,0.0,385.0,850.0,0.0,0,725.0,1
354,354,-0.05807337278047364,-0.1,0.0,1.0,466.0,612.0,1.0,0,1092.0,1
355,355,-0.49554115038088337,-0.5,1.0,0.0,254.0,681.0,0.0,0,245.0,1
356,356,-0.2442201512033596,-0.2,0.0,1.0,385.0,508.0,1.0,0,1027.0,1
357,357,-0.6673748106463608,-0.7,0.0,1.0,471.0,896.0,1.0,0,113.0,1
358,358,-0.012911367315136535,-0.0,0.0,1.0,264.0,667.0,0.0,1,359.0,0
359,359,0.4150537551786905,0.4,1.0,1.0,260.0,837.0,1.0,1,283.0,1
360,360,-0.6484834735890981,-0.6,0.0,1.0,306.0,537.0,1.0,0,467.0,1
361,361,-0.4340008405954556,-0.4,0.0,1.0,278.0,964.0,1.0,0,218.0,1
362,362,-0.12248217349807577,-0.1,0.0,1.0,403.0,699.0,1.0,0,1258.0,1
363,363,-0.6916739040790205,-0.7,0.0,1.0,357.0,645.0,1.0,0,278.0,1
364,364,0.6512155804576211,0.7,0.0,0.0,371.0,662.0,0.0,1,1537.0,1
365,365,0.31348226496695786,0.3,1.0,1.0,438.0,631.0,1.0,1,301.0,1
366,366,-0.30154005938832773,-0.3,1.0,0.0,337.0,812.0,0.0,0,61.0,1
367,367,-0.7633449966065968,-0.8,0.0,1.0,278.0,957.0,1.0,0,135.0,1
368,368,0.1476437672851273,0.1,1.0,1.0,385.0,893.0,1.0,1,432.0,1
369,369,-0.8038320003587541,-0.8,1.0,0.0,307.0,790.0,0.0,0,593.0,1
370,370,0.7954481664907568,0.8,1.0,1.0,448.0,724.0,1.0,1,88.0,1
371,371,0.3297883215961884,0.3,0.0,0.0,326.0,702.0,0.0,1,782.0,1
372,372,-0.6515802631376437,-0.7,0.0,1.0,411.0,797.0,1.0,0,192.0,1
373,373,-0.36583109896036325,-0.4,1.0,0.0,253.0,763.0,0.0,0,854.0,1
374,374,0.619877463042093,0.6,1.0,1.0,335.0,511.0,1.0,1,544.0,1
375,375,-0.38114072290125,-0.4,1.0,0.0,363.0,595.0,0.0,0,812.0,1
376,376,-0.3916276280936354,-0.4,0.0,1.0,408.0,788.0,1.0,0,864.0,1
377,377,-0.1481624099460016,-0.1,1.0,0.0,447.0,906.0,1.0,1,307.0,0
378,378,-0.570042250798788,-0.6,0.0,1.0,309.0,872.0,1.0,0,339.0,1
379,379,-0.6458849724855023,-0.6,0.0,1.0,466.0,637.0,1.0,0,377.0,1
380,380,0.7491467637850705,0.7,1.0,1.0,483.0,791.0,1.0,1,316.0,1
381,381,-0.23324785897681155,-0.2,0.0,1.0,307.0,940.0,1.0,0,103.0,1
382,382,-0.7621909462955836,-0.8,0.0,1.0,386.0,589.0,1.0,0,275.0,1
383,383,-0.3048715652041796,-0.3,0.0,1.0,429.0,572.0,1.0,0,609.0,1
384,384,0.7166772951954562,0.7,1.0,1.0,388.0,674.0,1.0,1,618.0,1
385,385,-0.18048153888425555,-0.2,0.0,1.0,317.0,589.0,1.0,0,734.0,1
386,386,0.4241189962330273,0.4,0.0,0.0,310.0,720.0,0.0,1,430.0,1
387,387,0.7119685933505263,0.7,0.0,0.0,398.0,694.0,0.0,1,438.0,1
388,388,-0.6001275950668851,-0.6,0.0,1.0,336.0,582.0,1.0,0,212.0,1
389,389,-0.27188310926181114,-0.3,1.0,0.0,287.0,507.0,0.0,0,586.0,1
390,390,-0.48138145977932556,-0.5,1.0,0.0,354.0,803.0,0.0,0,173.0,1
391,391,-0.49624931802191863,-0.5,1.0,0.0,367.0,995.0,0.0,0,558.0,1
392,392,0.3035525978656487,0.3,0.0,0.0,410.0,943.0,0.0,1,487.0,1
393,393,-0.3111230743443254,-0.3,1.0,0.0,431.0,997.0,0.0,0,742.0,1
394,394,0.6972055820558397,0.7,0.0,0.0,289.0,832.0,0.0,1,129.0,1
395,395,-0.8494369296023648,-0.8,0.0,1.0,412.0,866.0,1.0,0,132.0,1
396,396,-0.2561325189168242,-0.3,0.0,1.0,388.0,670.0,1.0,0,322.0,1
397,397,0.05265620610609423,0.1,1.0,1.0,496.0,900.0,1.0,1,364.0,1
398,398,0.42239867205459547,0.4,0.0,0.0,490.0,804.0,0.0,1,656.0,1
399,399,0.2651699280971781,0.3,0.0,0.0,390.0,754.0,0.0,1,2126.0,1
400,400,-0.5382192445279765,-0.5,1.0,0.0,359.0,582.0,0.0,0,789.0,1
401,401,0.21014113790095046,0.2,1.0,1.0,292.0,518.0,1.0,1,570.0,1
402,402,0.211860917997022,0.2,1.0,1.0,378.0,970.0,1.0,1,152.0,1
403,403,0.5981871108670193,0.6,0.0,0.0,454.0,647.0,0.0,1,279.0,1
404,404,-0.04981163176291481,-0.0,1.0,0.0,417.0,597.0,1.0,1,1446.0,0
405,405,-0.6708919534887688,-0.7,1.0,0.0,374.0,588.0,0.0,0,408.0,1
406,406,0.48535695965877956,0.5,0.0,0.0,260.0,647.0,0.0,1,343.0,1
407,407,-0.1490157202369573,-0.1,1.0,0.0,262.0,752.0,0.0,0,516.0,1
408,408,0.04353108946640072,0.0,0.0,0.0,272.0,528.0,0.0,1,760.0,1
409,409,-0.7533397985904632,-0.8,1.0,0.0,332.0,884.0,0.0,0,74.0,1
410,410,-0.542535847526843,-0.5,1.0,0.0,377.0,969.0,0.0,0,134.0,1
411,411,0.7325033460089428,0.7,0.0,0.0,374.0,841.0,0.0,1,195.0,1
412,412,0.4031263993257025,0.4,1.0,1.0,410.0,977.0,1.0,1,133.0,1
413,413,0.5049961370901442,0.5,1.0,1.0,347.0,786.0,1.0,1,137.0,1
414,414,-0.7410275910638076,-0.7,0.0,1.0,407.0,739.0,1.0,0,594.0,1
415,415,-0.08544399258020408,-0.1,1.0,0.0,416.0,730.0,0.0,0,924.0,1
416,416,-0.32986316334137633,-0.3,0.0,1.0,432.0,709.0,1.0,0,1119.0,1
417,417,-0.6370458345346374,-0.6,0.0,1.0,441.0,742.0,1.0,0,437.0,1
418,418,0.31551915880094195,0.3,1.0,1.0,452.0,566.0,1.0,1,712.0,1
419,419,-0.4986902992348975,-0.5,0.0,1.0,266.0,529.0,1.0,0,355.0,1
420,420,0.6449347631770629,0.6,0.0,0.0,299.0,981.0,0.0,1,450.0,1
421,421,-0.011467388655677868,-0.0,1.0,0.0,250.0,632.0,1.0,1,2128.0,0
422,422,-0.059564819162729155,-0.1,0.0,1.0,337.0,572.0,1.0,0,1151.0,1
423,423,-0.28646983722041697,-0.3,0.0,1.0,335.0,764.0,1.0,0,381.0,1
424,424,0.06175422790845364,0.1,1.0,1.0,429.0,709.0,0.0,0,1152.0,0
425,425,-0.6838053190330411,-0.7,0.0,1.0,284.0,871.0,1.0,0,235.0,1
426,426,0.09447088046360397,0.1,0.0,0.0,255.0,973.0,1.0,0,1372.0,0
427,427,0.6671918297053075,0.7,0.0,0.0,393.0,710.0,0.0,1,287.0,1
428,428,0.38550785622702854,0.4,0.0,0.0,381.0,800.0,0.0,1,659.0,1
429,429,-0.18960117775764296,-0.2,0.0,1.0,298.0,963.0,0.0,1,469.0,0
430,430,0.5978517961783233,0.6,1.0,1.0,394.0,735.0,1.0,1,131.0,1
431,431,-0.04724072455973216,-0.0,1.0,0.0,437.0,930.0,0.0,0,1763.0,1
432,432,-0.054074511375670764,-0.1,1.0,0.0,377.0,774.0,1.0,1,1759.0,0
433,433,-0.34450154378040065,-0.3,0.0,1.0,371.0,979.0,1.0,0,370.0,1
434,434,0.25202086906396703,0.3,1.0,1.0,491.0,660.0,1.0,1,349.0,1
435,435,-0.7798819490906014,-0.8,1.0,0.0,257.0,671.0,0.0,0,482.0,1
436,436,0.06255810262201567,0.1,1.0,1.0,495.0,653.0,1.0,1,42.0,1
437,437,0.760719631072471,0.8,0.0,0.0,385.0,947.0,0.0,1,298.0,1
438,438,-0.5821495834283441,-0.6,1.0,0.0,471.0,886.0,0.0,0,143.0,1
439,439,0.4965236319734522,0.5,1.0,1.0,375.0,989.0,1.0,1,176.0,1
440,440,-0.8378525529833101,-0.8,0.0,1.0,367.0,707.0,1.0,0,356.0,1
441,441,0.34460792946988505,0.3,1.0,1.0,437.0,599.0,1.0,1,1034.0,1
442,442,-0.788450439361353,-0.8,1.0,0.0,258.0,633.0,0.0,0,299.0,1
443,443,-0.5376489930684902,-0.5,1.0,0.0,473.0,571.0,0.0,0,336.0,1
444,444,0.506487061629297,0.5,0.0,0.0,405.0,563.0,0.0,1,352.0,1
445,445,0.4139465287087877,0.4,1.0,1.0,302.0,801.0,1.0,1,657.0,1
446,446,0.2364942127376911,0.2,1.0,1.0,344.0,908.0,1.0,1,3098.0,1
447,447,0.2721791479944312,0.3,0.0,0.0,262.0,962.0,0.0,1,286.0,1
448,448,0.38609287491347655,0.4,0.0,0.0,453.0,875.0,0.0,1,1362.0,1
449,449,-0.6453736210268419,-0.6,0.0,1.0,487.0,746.0,1.0,0,347.0,1
450,450,-0.7529761810404161,-0.8,0.0,1.0,466.0,892.0,1.0,0,132.0,1
451,451,-0.717585618750775,-0.7,0.0,1.0,486.0,729.0,1.0,0,205.0,1
452,452,0.3550162940696987,0.4,0.0,0.0,386.0,997.0,1.0,0,-13.0,0
453,453,0.514311057992212,0.5,0.0,0.0,478.0,751.0,0.0,1,491.0,1
454,454,-0.6471556292575815,-0.6,1.0,0.0,390.0,661.0,0.0,0,349.0,1
455,455,0.032902887071512565,0.0,1.0,1.0,395.0,922.0,0.0,0,193.0,0
456,456,0.14071235315057573,0.1,1.0,1.0,428.0,761.0,1.0,1,671.0,1
457,457,-0.3329894232165045,-0.3,1.0,0.0,341.0,926.0,0.0,0,683.0,1
458,458,0.2800992687932665,0.3,0.0,0.0,346.0,570.0,1.0,0,424.0,0
459,459,-0.5296033655740773,-0.5,0.0,1.0,440.0,635.0,1.0,0,405.0,1
460,460,-0.4774741094663196,-0.5,0.0,1.0,339.0,555.0,1.0,0,486.0,1
461,461,-0.13771070915314532,-0.1,0.0,1.0,471.0,761.0,1.0,0,438.0,1
462,462,0.5886242472658708,0.6,1.0,1.0,281.0,621.0,1.0,1,158.0,1
463,463,0.5026306568365063,0.5,0.0,0.0,323.0,593.0,0.0,1,754.0,1
464,464,0.5799045920957367,0.6,1.0,1.0,337.0,554.0,1.0,1,519.0,1
465,465,0.7457812422891869,0.7,0.0,0.0,421.0,679.0,0.0,1,310.0,1
466,466,0.6040900772619192,0.6,1.0,1.0,363.0,843.0,1.0,1,224.0,1
467,467,-0.8924022593247419,-0.9,0.0,1.0,490.0,705.0,1.0,0,135.0,1
468,468,0.41832120500194325,0.4,0.0,0.0,441.0,581.0,0.0,1,468.0,1
469,469,-0.514930377506001,-0.5,1.0,0.0,256.0,770.0,0.0,0,234.0,1
470,470,0.4817253891575871,0.5,1.0,1.0,432.0,619.0,1.0,1,559.0,1
471,471,-0.6964309900262531,-0.7,0.0,1.0,465.0,777.0,1.0,0,98.0,1
472,472,-0.5346098076037262,-0.5,0.0,1.0,372.0,811.0,1.0,0,317.0,1
473,473,0.17092496566914261,0.2,1.0,1.0,321.0,882.0,1.0,1,337.0,1
474,474,-0.1154339895679638,-0.1,1.0,0.0,404.0,522.0,1.0,1,1854.0,0
475,475,-0.6653558911173251,-0.7,0.0,1.0,286.0,937.0,1.0,0,67.0,1
476,476,0.15068063116847352,0.2,0.0,0.0,494.0,762.0,1.0,0,614.0,0
477,477,0.5274750896570136,0.5,1.0,1.0,492.0,779.0,1.0,1,619.0,1
478,478,0.6788172681312766,0.7,1.0,1.0,291.0,584.0,1.0,1,335.0,1
479,479,0.5563641638192572,0.6,1.0,1.0,266.0,512.0,1.0,1,632.0,1
480,480,-0.12637780583076752,-0.1,1.0,0.0,483.0,702.0,0.0,0,1675.0,1
481,481,0.11516793610798592,0.1,0.0,0.0,309.0,913.0,1.0,0,1088.0,0
482,482,-0.33987366622936344,-0.3,0.0,1.0,471.0,990.0,1.0,0,509.0,1
483,483,-0.465061077246467,-0.5,0.0,1.0,320.0,822.0,0.0,1,318.0,0
484,484,-0.2201051529110829,-0.2,0.0,1.0,424.0,970.0,1.0,0,86.0,1
485,485,0.27889265799250473,0.3,0.0,0.0,312.0,701.0,0.0,1,517.0,1
486,486,-0.8778815108687833,-0.9,0.0,1.0,487.0,717.0,1.0,0,236.0,1
487,487,-0.34430818274213326,-0.3,1.0,0.0,313.0,858.0,0.0,0,429.0,1
488,488,0.47175812378663295,0.5,1.0,1.0,433.0,838.0,1.0,1,349.0,1
489,489,-0.615179429958977,-0.6,0.0,1.0,343.0,849.0,1.0,0,368.0,1
490,490,-0.09786682023527216,-0.1,1.0,0.0,263.0,631.0,0.0,0,3886.0,1
491,491,-0.2711899774234626,-0.3,0.0,1.0,489.0,545.0,1.0,0,1236.0,1
492,492,0.2937544650615146,0.3,1.0,1.0,303.0,578.0,1.0,1,359.0,1
493,493,0.05510620903039809,0.1,0.0,0.0,414.0,716.0,1.0,0,130.0,0
494,494,-0.2089698930295314,-0.2,1.0,0.0,324.0,905.0,0.0,0,511.0,1
495,495,0.3206846848621424,0.3,0.0,0.0,333.0,668.0,0.0,1,499.0,1
496,496,-0.236453009139323,-0.2,0.0,1.0,267.0,883.0,1.0,0,60.0,1
497,497,-0.14668131727288602,-0.1,0.0,1.0,304.0,974.0,1.0,0,72.0,1
498,498,-0.5075036382935498,-0.5,1.0,0.0,269.0,981.0,0.0,0,180.0,1
499,499,-0.14967258782935333,-0.1,0.0,1.0,284.0,561.0,1.0,0,555.0,1
500,500,-0.42753426176576076,-0.4,0.0,1.0,472.0,961.0,1.0,0,357.0,1
501,501,-0.6574622817200191,-0.7,0.0,1.0,385.0,888.0,1.0,0,257.0,1
502,502,0.08835657713487854,0.1,0.0,0.0,435.0,555.0,1.0,0,1150.0,0
503,503,0.5310172938628926,0.5,0.0,0.0,450.0,530.0,0.0,1,990.0,1
504,504,0.774145453850568,0.8,0.0,0.0,270.0,536.0,0.0,1,314.0,1
505,505,0.8262022665745324,0.8,1.0,1.0,358.0,686.0,1.0,1,126.0,1
506,506,0.6416042991232421,0.6,0.0,0.0,499.0,812.0,0.0,1,239.0,1
507,507,-0.4197221817262198,-0.4,0.0,1.0,387.0,939.0,1.0,0,434.0,1
508,508,-0.10685949611989443,-0.1,1.0,0.0,477.0,587.0,0.0,0,1866.0,1
509,509,-0.25152028711693153,-0.3,1.0,0.0,291.0,873.0,0.0,0,266.0,1
510,510,-0.7270070595427739,-0.7,1.0,0.0,346.0,959.0,1.0,1,5.0,0
511,511,-0.5272439681545436,-0.5,0.0,1.0,258.0,536.0,1.0,0,236.0,1
512,512,0.836021616613491,0.8,0.0,0.0,440.0,704.0,0.0,1,266.0,1
513,513,-0.2540430497413443,-0.3,1.0,0.0,470.0,631.0,0.0,0,549.0,1
514,514,0.13920741107464785,0.1,1.0,1.0,467.0,727.0,1.0,1,126.0,1
515,515,-0.5959898873127683,-0.6,0.0,1.0,428.0,683.0,1.0,0,609.0,1
516,516,0.3084742383555831,0.3,1.0,1.0,371.0,537.0,1.0,1,172.0,1
517,517,-0.7167601679311779,-0.7,1.0,0.0,259.0,871.0,0.0,0,160.0,1
518,518,0.6352358128993502,0.6,1.0,1.0,309.0,739.0,1.0,1,222.0,1
519,519,0.6507012007573773,0.7,0.0,0.0,321.0,612.0,0.0,1,807.0,1
520,520,0.5123478346477758,0.5,0.0,0.0,319.0,894.0,0.0,1,717.0,1
521,521,0.5424158533869897,0.5,0.0,0.0,398.0,524.0,0.0,1,248.0,1
522,522,0.018686329857488082,0.0,1.0,1.0,297.0,503.0,0.0,0,2810.0,0
523,523,-0.06738451975637971,-0.1,0.0,1.0,493.0,854.0,1.0,0,2903.0,1
524,524,-0.8087766945680925,-0.8,0.0,1.0,439.0,791.0,1.0,0,180.0,1
525,525,0.6381130622352172,0.6,1.0,1.0,443.0,640.0,1.0,1,517.0,1
526,526,-0.10649567186453568,-0.1,1.0,0.0,339.0,688.0,0.0,0,2303.0,1
527,527,-0.5501989529048907,-0.6,0.0,1.0,410.0,894.0,1.0,0,446.0,1
528,528,-0.6322728092563763,-0.6,0.0,1.0,425.0,873.0,1.0,0,352.0,1
529,529,0.08892991241104897,0.1,0.0,0.0,423.0,743.0,1.0,0,234.0,0
530,530,0.42923244222246304,0.4,0.0,0.0,373.0,646.0,0.0,1,781.0,1
531,531,-0.4865733853646284,-0.5,1.0,0.0,329.0,864.0,0.0,0,717.0,1
532,532,0.2941340387836088,0.3,1.0,1.0,350.0,576.0,1.0,1,1064.0,1
533,533,-0.5907719983040158,-0.6,1.0,0.0,312.0,651.0,0.0,0,307.0,1
534,534,-0.7243401264079277,-0.7,1.0,0.0,321.0,914.0,0.0,0,255.0,1
535,535,-0.07351912280623785,-0.1,0.0,1.0,255.0,584.0,1.0,0,391.0,1
536,536,-0.846174381955968,-0.8,0.0,1.0,366.0,803.0,1.0,0,241.0,1
537,537,-0.48556865910469504,-0.5,0.0,1.0,309.0,821.0,1.0,0,120.0,1
538,538,-0.18329980934715684,-0.2,0.0,1.0,333.0,615.0,1.0,0,692.0,1
539,539,-0.7375814495574979,-0.7,1.0,0.0,284.0,816.0,0.0,0,110.0,1
540,540,-0.22211167446825608,-0.2,0.0,1.0,280.0,676.0,1.0,0,364.0,1
541,541,-0.880522504148308,-0.9,1.0,0.0,484.0,922.0,0.0,0,164.0,1
542,542,0.86458339331176,0.9,1.0,1.0,273.0,941.0,1.0,1,126.0,1
543,543,-0.140592948845209,-0.1,0.0,1.0,441.0,666.0,1.0,0,1053.0,1
544,544,-0.46663029937658157,-0.5,1.0,0.0,471.0,915.0,0.0,0,404.0,1
545,545,0.3695538058298832,0.4,1.0,1.0,307.0,766.0,1.0,1,537.0,1
546,546,0.46881890640073276,0.5,0.0,0.0,259.0,992.0,0.0,1,259.0,1
547,547,0.7935810821563557,0.8,1.0,1.0,360.0,517.0,1.0,1,923.0,1
548,548,0.12701491373521157,0.1,1.0,1.0,318.0,897.0,1.0,1,165.0,1
549,549,-0.6100933623562723,-0.6,1.0,0.0,395.0,867.0,0.0,0,608.0,1
550,550,0.26939583125452404,0.3,1.0,1.0,268.0,696.0,1.0,1,406.0,1
551,551,-0.202328956588262,-0.2,0.0,1.0,438.0,745.0,1.0,0,1507.0,1
552,552,-0.5492712229799348,-0.5,0.0,1.0,314.0,986.0,1.0,0,60.0,1
553,553,-0.6702378898297414,-0.7,0.0,1.0,315.0,948.0,1.0,0,-153.0,1
554,554,0.550675778609479,0.6,0.0,0.0,421.0,688.0,0.0,1,721.0,1
555,555,0.6306062917108209,0.6,1.0,1.0,404.0,519.0,1.0,1,627.0,1
556,556,0.33409133531541657,0.3,1.0,1.0,490.0,841.0,1.0,1,159.0,1
557,557,-0.6818763428105122,-0.7,0.0,1.0,369.0,985.0,0.0,1,-74.0,0
558,558,0.19946552736113798,0.2,0.0,0.0,406.0,562.0,0.0,1,522.0,1
559,559,0.6234772680325872,0.6,1.0,1.0,313.0,858.0,1.0,1,229.0,1
560,560,-0.16655881379116488,-0.2,1.0,0.0,441.0,571.0,0.0,0,3908.0,1
561,561,-0.4870111881946999,-0.5,0.0,1.0,287.0,673.0,1.0,0,260.0,1
562,562,0.06261309202768839,0.1,1.0,1.0,322.0,668.0,1.0,1,2620.0,1
563,563,-0.4139498507910477,-0.4,1.0,0.0,494.0,826.0,0.0,0,710.0,1
564,564,-0.5608860883227825,-0.6,1.0,0.0,286.0,840.0,0.0,0,304.0,1
565,565,-0.04966685143338878,-0.0,1.0,0.0,394.0,951.0,1.0,1,1435.0,0
566,566,0.37118710581425207,0.4,0.0,0.0,459.0,922.0,0.0,1,549.0,1
567,567,-0.634425698861175,-0.6,1.0,0.0,408.0,520.0,0.0,0,492.0,1
568,568,0.845720943973182,0.8,1.0,1.0,400.0,848.0,1.0,1,102.0,1
569,569,0.056665571947800086,0.1,0.0,0.0,269.0,588.0,1.0,0,283.0,0
570,570,-0.0458716781360311,-0.0,0.0,1.0,374.0,911.0,0.0,1,705.0,0
571,571,-0.41704328694515774,-0.4,1.0,0.0,428.0,973.0,0.0,0,189.0,1
572,572,0.7727490203926491,0.8,0.0,0.0,440.0,680.0,0.0,1,390.0,1
573,573,0.03320287980966563,0.0,0.0,0.0,348.0,949.0,1.0,0,-77.0,0
574,574,0.7896659728273828,0.8,1.0,1.0,342.0,700.0,1.0,1,208.0,1
575,575,0.5514528762519663,0.6,1.0,1.0,444.0,612.0,1.0,1,254.0,1
576,576,0.2607846922779068,0.3,0.0,0.0,386.0,589.0,0.0,1,965.0,1
577,577,0.8841546446761485,0.9,1.0,1.0,453.0,634.0,1.0,1,253.0,1
578,578,0.7509450127873128,0.8,0.0,0.0,310.0,500.0,0.0,1,720.0,1
579,579,-0.8109785081669308,-0.8,0.0,1.0,352.0,522.0,1.0,0,376.0,1
580,580,0.7806880108985178,0.8,1.0,1.0,471.0,516.0,1.0,1,623.0,1
581,581,0.8308681588808945,0.8,0.0,0.0,256.0,872.0,0.0,1,132.0,1
582,582,0.8265738097769043,0.8,1.0,1.0,370.0,737.0,1.0,1,573.0,1
583,583,0.8987557400812277,0.9,0.0,0.0,260.0,842.0,0.0,1,278.0,1
584,584,-0.792226296596582,-0.8,1.0,0.0,379.0,882.0,0.0,0,159.0,1
585,585,-0.8238499557250215,-0.8,0.0,1.0,333.0,691.0,1.0,0,266.0,1
586,586,-0.6743934329188496,-0.7,1.0,0.0,461.0,576.0,0.0,0,483.0,1
587,587,0.1781137888693235,0.2,0.0,0.0,334.0,581.0,0.0,1,1135.0,1
588,588,0.6605787315671986,0.7,1.0,1.0,487.0,581.0,1.0,1,322.0,1
589,589,-0.3863596023270861,-0.4,0.0,1.0,397.0,570.0,1.0,0,533.0,1
590,590,-0.6172176785792454,-0.6,1.0,0.0,392.0,534.0,0.0,0,444.0,1
591,591,0.12378259124131297,0.1,0.0,0.0,276.0,996.0,0.0,1,158.0,1
592,592,0.6677740678596323,0.7,0.0,0.0,381.0,857.0,0.0,1,112.0,1
593,593,-0.7492740442551453,-0.7,1.0,0.0,443.0,754.0,0.0,0,683.0,1
594,594,0.5313333101032355,0.5,0.0,0.0,369.0,518.0,0.0,1,323.0,1
595,595,-0.7721090282834273,-0.8,0.0,1.0,344.0,731.0,1.0,0,175.0,1
596,596,-0.011135504930018247,-0.0,0.0,1.0,322.0,851.0,1.0,0,397.0,1
597,597,-0.859293150715951,-0.9,0.0,1.0,384.0,981.0,1.0,0,75.0,1
598,598,0.8123093968808294,0.8,1.0,1.0,476.0,736.0,1.0,1,148.0,1
599,599,0.5507989658442166,0.6,1.0,1.0,471.0,621.0,1.0,1,408.0,1
600,600,0.3927373229417991,0.4,1.0,1.0,251.0,734.0,1.0,1,685.0,1
601,601,-0.6536218483484912,-0.7,1.0,0.0,320.0,847.0,0.0,0,513.0,1
602,602,0.3083104638095987,0.3,1.0,1.0,458.0,979.0,1.0,1,463.0,1
603,603,0.20010415786962554,0.2,0.0,0.0,365.0,716.0,0.0,1,389.0,1
604,604,-0.0881100035682949,-0.1,1.0,0.0,486.0,609.0,1.0,1,625.0,0
605,605,0.4464119256309048,0.4,1.0,1.0,254.0,703.0,1.0,1,183.0,1
606,606,-0.16631021612160424,-0.2,0.0,1.0,318.0,801.0,1.0,0,111.0,1
607,607,0.38866750386506876,0.4,0.0,0.0,486.0,962.0,1.0,0,-178.0,0
608,608,0.4067942669960368,0.4,0.0,0.0,258.0,590.0,0.0,1,642.0,1
609,609,-0.3603362385327563,-0.4,1.0,0.0,361.0,741.0,0.0,0,1048.0,1
610,610,0.8056076014003811,0.8,1.0,1.0,397.0,602.0,1.0,1,721.0,1
611,611,0.025490833568179383,0.0,0.0,0.0,497.0,600.0,1.0,0,1293.0,0
612,612,0.5082984147584954,0.5,0.0,0.0,356.0,842.0,0.0,1,202.0,1
613,613,0.24784146401487284,0.2,0.0,0.0,340.0,630.0,0.0,1,790.0,1
614,614,-0.5993750951961387,-0.6,1.0,0.0,463.0,539.0,0.0,0,1988.0,1
615,615,0.6889450310454844,0.7,0.0,0.0,487.0,695.0,0.0,1,468.0,1
616,616,0.011737448728446176,0.0,0.0,0.0,406.0,601.0,0.0,1,853.0,1
617,617,0.11153255450528665,0.1,1.0,1.0,423.0,808.0,1.0,1,199.0,1
618,618,-0.716794081712512,-0.7,0.0,1.0,491.0,895.0,1.0,0,74.0,1
619,619,-0.6608315609000489,-0.7,1.0,0.0,407.0,840.0,0.0,0,393.0,1
620,620,-0.06078229432696847,-0.1,1.0,0.0,493.0,571.0,0.0,0,1906.0,1
621,621,0.05266171783062379,0.1,0.0,0.0,372.0,623.0,1.0,0,1795.0,0
622,622,0.6528404975979493,0.7,0.0,0.0,447.0,780.0,0.0,1,433.0,1
623,623,0.0705932330887985,0.1,0.0,0.0,379.0,571.0,1.0,0,1380.0,0
624,624,-0.18410363017719988,-0.2,0.0,1.0,331.0,729.0,1.0,0,470.0,1
625,625,0.549218363310546,0.5,1.0,1.0,270.0,906.0,1.0,1,354.0,1
626,626,0.4827933841809128,0.5,1.0,1.0,439.0,662.0,1.0,1,399.0,1
627,627,0.4642942836312506,0.5,0.0,0.0,354.0,649.0,0.0,1,437.0,1
628,628,-0.33295364534060157,-0.3,0.0,1.0,302.0,725.0,1.0,0,713.0,1
629,629,-0.801451063163021,-0.8,1.0,0.0,485.0,805.0,0.0,0,210.0,1
630,630,-0.3006691867040523,-0.3,1.0,0.0,258.0,720.0,0.0,0,582.0,1
631,631,0.32330051388443215,0.3,1.0,1.0,344.0,752.0,1.0,1,394.0,1
632,632,-0.22012090512547577,-0.2,1.0,0.0,465.0,659.0,0.0,0,1056.0,1
633,633,-0.572457295579511,-0.6,0.0,1.0,265.0,574.0,1.0,0,461.0,1
634,634,0.8798017485457837,0.9,0.0,0.0,362.0,744.0,0.0,1,454.0,1
635,635,-0.8268252974065794,-0.8,0.0,1.0,424.0,830.0,1.0,0,96.0,1
636,636,0.7771155973410798,0.8,0.0,0.0,268.0,843.0,0.0,1,199.0,1
637,637,0.5262695168174504,0.5,0.0,0.0,252.0,801.0,0.0,1,187.0,1
638,638,-0.5701254359808794,-0.6,1.0,0.0,269.0,852.0,0.0,0,489.0,1
639,639,0.8837303084184568,0.9,0.0,0.0,359.0,790.0,0.0,1,461.0,1
640,640,-0.3178419221209179,-0.3,1.0,0.0,253.0,652.0,0.0,0,375.0,1
641,641,-0.6437949253396044,-0.6,1.0,0.0,484.0,531.0,0.0,0,665.0,1
642,642,-0.26280109883801106,-0.3,0.0,1.0,472.0,844.0,1.0,0,264.0,1
643,643,0.7544152143531463,0.8,0.0,0.0,284.0,838.0,0.0,1,338.0,1
644,644,0.6834177999610399,0.7,1.0,1.0,296.0,998.0,1.0,1,126.0,1
645,645,-0.27278757218352945,-0.3,0.0,1.0,398.0,743.0,1.0,0,449.0,1
646,646,-0.8350256551392681,-0.8,1.0,0.0,281.0,790.0,0.0,0,189.0,1
647,647,-0.462787031621341,-0.5,1.0,0.0,304.0,994.0,1.0,1,-38.0,0
648,648,0.3037958301995375,0.3,0.0,0.0,400.0,581.0,0.0,1,1079.0,1
649,649,0.4459996670864538,0.4,0.0,0.0,297.0,854.0,0.0,1,349.0,1
650,650,0.5908223513416014,0.6,1.0,1.0,465.0,636.0,1.0,1,559.0,1
651,651,0.5375105599202127,0.5,0.0,0.0,311.0,908.0,0.0,1,341.0,1
652,652,-0.5463847293863615,-0.5,1.0,0.0,485.0,737.0,0.0,0,418.0,1
653,653,0.4841888793412411,0.5,1.0,1.0,433.0,579.0,1.0,1,478.0,1
654,654,0.6417608887826433,0.6,1.0,1.0,311.0,622.0,1.0,1,257.0,1
655,655,0.0633109180683874,0.1,0.0,0.0,372.0,698.0,1.0,0,470.0,0
656,656,-0.7574725714407738,-0.8,0.0,1.0,322.0,911.0,1.0,0,157.0,1
657,657,0.5930112136744518,0.6,1.0,1.0,304.0,837.0,1.0,1,259.0,1
658,658,0.4479350423054115,0.4,0.0,0.0,297.0,966.0,0.0,1,467.0,1
659,659,0.8984742072737023,0.9,1.0,1.0,405.0,509.0,1.0,1,406.0,1
660,660,0.039457226808965684,0.0,1.0,1.0,286.0,579.0,1.0,1,885.0,1
661,661,-0.7588254733493687,-0.8,0.0,1.0,254.0,649.0,1.0,0,447.0,1
662,662,-0.88691292874405,-0.9,1.0,0.0,476.0,603.0,0.0,0,431.0,1
663,663,-0.8923954197863371,-0.9,0.0,1.0,407.0,647.0,1.0,0,506.0,1
664,664,-0.12629642063191993,-0.1,0.0,1.0,365.0,705.0,1.0,0,460.0,1
665,665,-0.724405266053165,-0.7,0.0,1.0,478.0,709.0,1.0,0,303.0,1
666,666,0.7891928427041764,0.8,0.0,0.0,428.0,908.0,0.0,1,174.0,1
667,667,0.1614841361275169,0.2,1.0,1.0,423.0,611.0,1.0,1,606.0,1
668,668,0.8940782396161632,0.9,1.0,1.0,403.0,527.0,1.0,1,370.0,1
669,669,0.28235743633888377,0.3,0.0,0.0,484.0,560.0,0.0,1,466.0,1
670,670,0.2579155373793155,0.3,1.0,1.0,334.0,653.0,1.0,1,1773.0,1
671,671,0.37652472104461976,0.4,1.0,1.0,309.0,528.0,1.0,1,973.0,1
672,672,-0.04296807851526396,-0.0,1.0,0.0,465.0,614.0,1.0,1,1781.0,0
673,673,0.8534170696621383,0.9,1.0,1.0,316.0,629.0,1.0,1,275.0,1
674,674,-0.1351298299124729,-0.1,0.0,1.0,440.0,615.0,0.0,1,2175.0,0
675,675,0.24209728951663856,0.2,0.0,0.0,304.0,655.0,0.0,1,421.0,1
676,676,0.15684999861180493,0.2,0.0,0.0,283.0,796.0,1.0,0,2231.0,0
677,677,-0.18256738159073638,-0.2,1.0,0.0,445.0,718.0,1.0,1,637.0,0
678,678,0.3374356808675195,0.3,1.0,1.0,384.0,761.0,1.0,1,255.0,1
679,679,-0.3397081882831633,-0.3,0.0,1.0,481.0,562.0,1.0,0,557.0,1
680,680,-0.870652684748089,-0.9,1.0,0.0,315.0,609.0,0.0,0,476.0,1
681,681,0.012779463037102423,0.0,0.0,0.0,343.0,913.0,1.0,0,174.0,0
682,682,0.7474772019437982,0.7,0.0,0.0,284.0,532.0,0.0,1,364.0,1
683,683,-0.41602316312675874,-0.4,1.0,0.0,445.0,790.0,0.0,0,865.0,1
684,684,0.4663969741154309,0.5,1.0,1.0,405.0,906.0,1.0,1,109.0,1
685,685,0.6334878294732397,0.6,0.0,0.0,333.0,544.0,0.0,1,963.0,1
686,686,0.7209763788065228,0.7,1.0,1.0,311.0,893.0,1.0,1,176.0,1
687,687,0.4621855884322833,0.5,0.0,0.0,409.0,979.0,0.0,1,342.0,1
688,688,-0.8729637774491247,-0.9,0.0,1.0,362.0,608.0,1.0,0,740.0,1
689,689,-0.03440864465241922,-0.0,1.0,0.0,414.0,925.0,1.0,1,191.0,0
690,690,0.8332136521979966,0.8,0.0,0.0,358.0,929.0,0.0,1,93.0,1
691,691,-0.8468142921842831,-0.8,1.0,0.0,375.0,531.0,0.0,0,664.0,1
692,692,0.22793881976427388,0.2,0.0,0.0,297.0,662.0,0.0,1,881.0,1
693,693,-0.8242999414008614,-0.8,0.0,1.0,352.0,697.0,1.0,0,491.0,1
694,694,-0.7542525871842047,-0.8,1.0,0.0,272.0,664.0,0.0,0,454.0,1
695,695,0.8125343254812017,0.8,0.0,0.0,397.0,843.0,0.0,1,110.0,1
696,696,0.29416552741391333,0.3,1.0,1.0,327.0,574.0,1.0,1,779.0,1
697,697,0.36742162530170164,0.4,0.0,0.0,316.0,825.0,1.0,0,-41.0,0
698,698,0.7434219237236132,0.7,0.0,0.0,354.0,773.0,0.0,1,63.0,1
699,699,-0.6741059589511894,-0.7,1.0,0.0,337.0,706.0,0.0,0,347.0,1
700,700,-0.5659873202109362,-0.6,1.0,0.0,291.0,906.0,0.0,0,133.0,1
701,701,-0.18250583789812147,-0.2,1.0,0.0,283.0,914.0,0.0,0,473.0,1
702,702,-0.7068332343273017,-0.7,0.0,1.0,280.0,731.0,1.0,0,189.0,1
703,703,0.3923063763012721,0.4,0.0,0.0,434.0,712.0,0.0,1,154.0,1
704,704,0.232117564219552,0.2,0.0,0.0,409.0,602.0,0.0,1,1159.0,1
705,705,-0.7450122851240644,-0.7,0.0,1.0,332.0,513.0,1.0,0,425.0,1
706,706,0.43973754717501523,0.4,0.0,0.0,434.0,921.0,0.0,1,285.0,1
707,707,0.7250025703425761,0.7,1.0,1.0,498.0,714.0,1.0,1,218.0,1
708,708,-0.8893142761379834,-0.9,1.0,0.0,459.0,725.0,0.0,0,196.0,1
709,709,-0.13425420592180382,-0.1,1.0,0.0,419.0,749.0,0.0,0,292.0,1
710,710,-0.05776797636948405,-0.1,1.0,0.0,343.0,926.0,1.0,1,1111.0,0
711,711,0.46098320227804057,0.5,1.0,1.0,450.0,822.0,1.0,1,318.0,1
712,712,-0.8036111068255878,-0.8,1.0,0.0,269.0,962.0,0.0,0,469.0,1
713,713,0.5133375180895109,0.5,1.0,1.0,326.0,631.0,1.0,1,243.0,1
714,714,-0.8216786927038072,-0.8,0.0,1.0,265.0,520.0,1.0,0,465.0,1
715,715,0.8015006178089567,0.8,1.0,1.0,426.0,515.0,1.0,1,469.0,1
716,716,-0.22358640941796826,-0.2,1.0,0.0,496.0,727.0,1.0,1,247.0,0
717,717,-0.23065444907358734,-0.2,1.0,0.0,442.0,962.0,0.0,0,76.0,1
718,718,0.6447740211921543,0.6,0.0,0.0,332.0,908.0,0.0,1,330.0,1
719,719,-0.877803202637764,-0.9,0.0,1.0,432.0,711.0,1.0,0,377.0,1
720,720,-0.1357213972407827,-0.1,1.0,0.0,326.0,795.0,1.0,1,1289.0,0
721,721,-0.013161092454554546,-0.0,1.0,0.0,493.0,789.0,1.0,1,1848.0,0
722,722,0.524427142434082,0.5,0.0,0.0,413.0,690.0,0.0,1,457.0,1
723,723,-0.3918295252897961,-0.4,1.0,0.0,284.0,673.0,0.0,0,243.0,1
724,724,-0.5577281098450104,-0.6,1.0,0.0,469.0,501.0,0.0,0,700.0,1
725,725,0.5596705623314356,0.6,1.0,1.0,414.0,742.0,1.0,1,314.0,1
726,726,-0.6772990560074932,-0.7,1.0,0.0,483.0,664.0,0.0,0,273.0,1
727,727,-0.6649999135314365,-0.7,0.0,1.0,404.0,566.0,1.0,0,300.0,1
728,728,0.8941241581776421,0.9,0.0,0.0,399.0,570.0,0.0,1,351.0,1
729,729,0.4992083188639528,0.5,0.0,0.0,269.0,525.0,0.0,1,1766.0,1
730,730,0.5809657164668741,0.6,1.0,1.0,291.0,676.0,1.0,1,393.0,1
731,731,-0.5440359891605833,-0.5,1.0,0.0,259.0,881.0,0.0,0,520.0,1
732,732,-0.2764549502095014,-0.3,0.0,1.0,329.0,525.0,1.0,0,476.0,1
733,733,-0.7651926969342431,-0.8,1.0,0.0,275.0,708.0,0.0,0,337.0,1
734,734,0.132499164698186,0.1,1.0,1.0,497.0,540.0,1.0,1,1693.0,1
735,735,0.6861855515289762,0.7,1.0,1.0,468.0,647.0,1.0,1,445.0,1
736,736,0.5984986842719539,0.6,1.0,1.0,320.0,582.0,1.0,1,378.0,1
737,737,0.10734612362616269,0.1,0.0,0.0,278.0,626.0,0.0,1,766.0,1
738,738,0.2704978296820958,0.3,0.0,0.0,349.0,571.0,0.0,1,420.0,1
739,739,-0.48869248849098657,-0.5,0.0,1.0,445.0,684.0,1.0,0,251.0,1
740,740,0.5858534498333315,0.6,1.0,1.0,427.0,702.0,1.0,1,251.0,1
741,741,-0.6493083910939501,-0.6,1.0,0.0,437.0,828.0,0.0,0,285.0,1
742,742,0.013842132701296306,0.0,0.0,0.0,373.0,890.0,1.0,0,167.0,0
743,743,-0.634794233241192,-0.6,1.0,0.0,461.0,685.0,0.0,0,364.0,1
744,744,0.15540295457857656,0.2,1.0,1.0,376.0,591.0,1.0,1,303.0,1
745,745,-0.31707121258405147,-0.3,1.0,0.0,277.0,655.0,0.0,0,908.0,1
746,746,-0.6071026757916802,-0.6,0.0,1.0,330.0,864.0,1.0,0,386.0,1
747,747,0.8295731782524126,0.8,1.0,1.0,488.0,831.0,1.0,1,231.0,1
748,748,-0.564587834679562,-0.6,0.0,1.0,424.0,610.0,1.0,0,466.0,1
749,749,0.5158631441637523,0.5,0.0,0.0,455.0,525.0,0.0,1,1150.0,1
750,750,-0.7328483607821824,-0.7,0.0,1.0,334.0,695.0,1.0,0,331.0,1
751,751,-0.026631870926399848,-0.0,0.0,1.0,283.0,532.0,0.0,1,1735.0,0
752,752,-0.5072363800997084,-0.5,1.0,0.0,306.0,887.0,0.0,0,187.0,1
753,753,-0.06297220556341421,-0.1,0.0,1.0,342.0,708.0,1.0,0,1720.0,1
754,754,0.1979024751849564,0.2,1.0,1.0,462.0,825.0,1.0,1,593.0,1
755,755,-0.10977713088918728,-0.1,1.0,0.0,318.0,785.0,0.0,0,2787.0,1
756,756,0.25648130065877084,0.3,0.0,0.0,250.0,960.0,0.0,1,1250.0,1
757,757,-0.8644715010691838,-0.9,1.0,0.0,338.0,650.0,0.0,0,142.0,1
758,758,-0.4595862365563674,-0.5,0.0,1.0,410.0,914.0,1.0,0,86.0,1
759,759,0.21756557206399296,0.2,0.0,0.0,284.0,710.0,1.0,0,596.0,0
760,760,0.23033743737342938,0.2,1.0,1.0,252.0,936.0,0.0,0,-48.0,0
761,761,0.8027611011389463,0.8,0.0,0.0,486.0,755.0,0.0,1,239.0,1
762,762,0.8153738295295799,0.8,0.0,0.0,365.0,784.0,0.0,1,361.0,1
763,763,0.15968895155564888,0.2,1.0,1.0,271.0,664.0,1.0,1,665.0,1
764,764,0.7119836539767367,0.7,0.0,0.0,267.0,883.0,0.0,1,360.0,1
765,765,-0.029934533315719825,-0.0,0.0,1.0,337.0,600.0,0.0,1,1223.0,0
766,766,-0.504882976005865,-0.5,0.0,1.0,407.0,513.0,1.0,0,590.0,1
767,767,0.7333816662169309,0.7,0.0,0.0,373.0,882.0,0.0,1,375.0,1
768,768,0.8359464728880927,0.8,0.0,0.0,307.0,581.0,0.0,1,242.0,1
769,769,0.29186815841459957,0.3,1.0,1.0,422.0,676.0,1.0,1,532.0,1
770,770,-0.4913628284453619,-0.5,1.0,0.0,488.0,781.0,0.0,0,181.0,1
771,771,-0.20486843108743313,-0.2,0.0,1.0,360.0,770.0,1.0,0,290.0,1
772,772,0.8116652135397536,0.8,0.0,0.0,301.0,611.0,0.0,1,378.0,1
773,773,-0.5279642878037254,-0.5,0.0,1.0,469.0,598.0,1.0,0,473.0,1
774,774,0.06634702757608901,0.1,1.0,1.0,348.0,909.0,1.0,1,1083.0,1
775,775,0.5410793575945888,0.5,1.0,1.0,333.0,602.0,1.0,1,145.0,1
776,776,-0.6998606127227127,-0.7,1.0,0.0,401.0,850.0,0.0,0,749.0,1
777,777,0.26677879647450886,0.3,1.0,1.0,250.0,619.0,1.0,1,581.0,1
778,778,0.28839451486590806,0.3,1.0,1.0,355.0,776.0,1.0,1,309.0,1
779,779,-0.4278142780151343,-0.4,1.0,0.0,295.0,553.0,0.0,0,522.0,1
780,780,0.5818921505760645,0.6,1.0,1.0,364.0,896.0,1.0,1,130.0,1
781,781,0.1487859042291092,0.1,1.0,1.0,455.0,963.0,1.0,1,492.0,1
782,782,0.4891151277924414,0.5,1.0,1.0,485.0,769.0,1.0,1,296.0,1
783,783,0.5927805810450119,0.6,0.0,0.0,274.0,734.0,0.0,1,222.0,1
784,784,-0.2864350953182171,-0.3,1.0,0.0,311.0,846.0,0.0,0,423.0,1
785,785,-0.4721227290482818,-0.5,1.0,0.0,420.0,613.0,0.0,0,1387.0,1
786,786,-0.808643088869229,-0.8,0.0,1.0,499.0,649.0,1.0,0,312.0,1
787,787,-0.7111354935078561,-0.7,0.0,1.0,320.0,578.0,1.0,0,492.0,1
788,788,-0.042416139300729405,-0.0,0.0,1.0,264.0,598.0,1.0,0,358.0,1
789,789,-0.610482892272532,-0.6,0.0,1.0,460.0,704.0,1.0,0,286.0,1
790,790,0.05183152882968045,0.1,1.0,1.0,280.0,675.0,1.0,1,765.0,1
791,791,0.22923235508156126,0.2,0.0,0.0,285.0,570.0,0.0,1,525.0,1
792,792,0.6787399621492581,0.7,0.0,0.0,418.0,753.0,0.0,1,249.0,1
793,793,-0.553432680935154,-0.6,0.0,1.0,413.0,734.0,1.0,0,243.0,1
794,794,0.5026109880869553,0.5,1.0,1.0,451.0,763.0,1.0,1,446.0,1
795,795,-0.043734495313419774,-0.0,0.0,1.0,494.0,605.0,1.0,0,1121.0,1
796,796,0.033807621179174574,0.0,0.0,0.0,406.0,760.0,1.0,0,2674.0,0
797,797,0.2567919876015524,0.3,0.0,0.0,485.0,650.0,0.0,1,935.0,1
798,798,-0.3526102262308247,-0.4,0.0,1.0,391.0,933.0,1.0,0,136.0,1
799,799,-0.5868825172819847,-0.6,0.0,1.0,347.0,713.0,1.0,0,270.0,1
800,800,0.09795507192199404,0.1,1.0,1.0,302.0,647.0,1.0,1,3301.0,1
801,801,-0.11865136017378397,-0.1,0.0,1.0,369.0,961.0,1.0,0,140.0,1
802,802,0.7299951538057873,0.7,0.0,0.0,487.0,802.0,0.0,1,391.0,1
803,803,0.25788678457771275,0.3,0.0,0.0,402.0,690.0,0.0,1,168.0,1
804,804,0.6575894423028418,0.7,0.0,0.0,398.0,617.0,0.0,1,445.0,1
805,805,0.264015124140749,0.3,0.0,0.0,453.0,921.0,0.0,1,1686.0,1
806,806,0.4973835718827465,0.5,0.0,0.0,441.0,801.0,0.0,1,198.0,1
807,807,-0.3551504033128491,-0.4,1.0,0.0,369.0,658.0,0.0,0,853.0,1
808,808,0.573611456993728,0.6,0.0,0.0,482.0,751.0,0.0,1,297.0,1
809,809,-0.32703374624769577,-0.3,1.0,0.0,357.0,563.0,0.0,0,2110.0,1
810,810,-0.08126709246888253,-0.1,1.0,0.0,494.0,906.0,1.0,1,-60.0,0
811,811,0.8778583103190561,0.9,1.0,1.0,416.0,853.0,1.0,1,191.0,1
812,812,0.315420001349095,0.3,1.0,1.0,293.0,547.0,1.0,1,1040.0,1
813,813,0.3710692111119639,0.4,0.0,0.0,397.0,873.0,0.0,1,670.0,1
814,814,0.37931113694705,0.4,1.0,1.0,400.0,568.0,1.0,1,522.0,1
815,815,0.11633882389901185,0.1,1.0,1.0,349.0,505.0,1.0,1,566.0,1
816,816,0.627120034699986,0.6,1.0,1.0,495.0,518.0,1.0,1,357.0,1
817,817,0.098881419215756,0.1,1.0,1.0,323.0,523.0,1.0,1,634.0,1
818,818,-0.523846142946913,-0.5,0.0,1.0,429.0,550.0,1.0,0,461.0,1
819,819,0.04317405131468621,0.0,1.0,1.0,417.0,710.0,1.0,1,323.0,1
820,820,-0.6547043987863415,-0.7,0.0,1.0,419.0,940.0,1.0,0,261.0,1
821,821,-0.4512894811681606,-0.5,0.0,1.0,333.0,556.0,1.0,0,401.0,1
822,822,-0.4629956107284288,-0.5,0.0,1.0,438.0,598.0,1.0,0,334.0,1
823,823,0.23347084142392605,0.2,0.0,0.0,257.0,903.0,0.0,1,720.0,1
824,824,-0.8314046635866585,-0.8,1.0,0.0,319.0,846.0,0.0,0,645.0,1
825,825,0.7399307532631122,0.7,1.0,1.0,480.0,893.0,1.0,1,237.0,1
826,826,-0.5746770549613196,-0.6,1.0,0.0,371.0,900.0,0.0,0,269.0,1
827,827,-0.3501466274184203,-0.4,1.0,0.0,435.0,738.0,0.0,0,887.0,1
828,828,0.0308273106605762,0.0,0.0,0.0,332.0,675.0,1.0,0,633.0,0
829,829,-0.3249942522718309,-0.3,1.0,0.0,416.0,631.0,0.0,0,853.0,1
830,830,-0.860443727239176,-0.9,0.0,1.0,309.0,803.0,1.0,0,138.0,1
831,831,-0.8765416276458196,-0.9,0.0,1.0,477.0,657.0,1.0,0,286.0,1
832,832,0.5936590152678861,0.6,1.0,1.0,489.0,735.0,1.0,1,326.0,1
833,833,-0.426060540062525,-0.4,0.0,1.0,393.0,977.0,1.0,0,310.0,1
834,834,-0.8127495794930067,-0.8,0.0,1.0,417.0,847.0,0.0,1,-14.0,0
835,835,-0.8747156301778144,-0.9,0.0,1.0,317.0,582.0,1.0,0,221.0,1
836,836,-0.529020323204914,-0.5,0.0,1.0,329.0,979.0,1.0,0,452.0,1
837,837,0.2553641451796026,0.3,0.0,0.0,273.0,934.0,0.0,1,393.0,1
838,838,0.612102332904945,0.6,1.0,1.0,359.0,677.0,1.0,1,144.0,1
839,839,-0.5814631799126524,-0.6,0.0,1.0,308.0,928.0,1.0,0,74.0,1
840,840,-0.720656151806258,-0.7,1.0,0.0,487.0,884.0,1.0,1,-71.0,0
841,841,0.3450925493846103,0.3,1.0,1.0,277.0,750.0,1.0,1,43.0,1
842,842,-0.048268987067265234,-0.0,0.0,1.0,265.0,768.0,1.0,0,267.0,1
843,843,0.8099139235195435,0.8,1.0,1.0,424.0,844.0,1.0,1,312.0,1
844,844,-0.2459403331299479,-0.2,1.0,0.0,277.0,664.0,0.0,0,469.0,1
845,845,-0.270363110406457,-0.3,1.0,0.0,266.0,500.0,0.0,0,1034.0,1
846,846,0.8534790585324067,0.9,0.0,0.0,417.0,530.0,0.0,1,723.0,1
847,847,-0.6800536520640094,-0.7,1.0,0.0,282.0,862.0,0.0,0,326.0,1
848,848,-0.4949437815331735,-0.5,1.0,0.0,272.0,688.0,0.0,0,430.0,1
849,849,-0.7782311847372204,-0.8,1.0,0.0,355.0,696.0,0.0,0,359.0,1
850,850,-0.15185229941070588,-0.2,1.0,0.0,277.0,594.0,1.0,1,1469.0,0
851,851,-0.555648456544628,-0.6,0.0,1.0,351.0,865.0,1.0,0,24.0,1
852,852,-0.11904302313574378,-0.1,1.0,0.0,492.0,916.0,0.0,0,-38.0,1
853,853,0.008240388100599239,0.0,1.0,1.0,428.0,786.0,1.0,1,466.0,1
854,854,-0.5148266198421956,-0.5,0.0,1.0,342.0,847.0,1.0,0,211.0,1
855,855,-0.3539224225085862,-0.4,1.0,0.0,283.0,844.0,0.0,0,623.0,1
856,856,-0.5482660315404887,-0.5,1.0,0.0,383.0,763.0,0.0,0,594.0,1
857,857,-0.3233140734887573,-0.3,1.0,0.0,456.0,931.0,0.0,0,183.0,1
858,858,-0.5609721523085112,-0.6,1.0,0.0,498.0,535.0,0.0,0,477.0,1
859,859,-0.5406985107019806,-0.5,0.0,1.0,454.0,872.0,1.0,0,224.0,1
860,860,0.002886848589279123,0.0,1.0,1.0,296.0,560.0,1.0,1,514.0,1
861,861,0.11686550841056154,0.1,1.0,1.0,436.0,736.0,1.0,1,788.0,1
862,862,0.20858987126124162,0.2,1.0,1.0,421.0,504.0,1.0,1,175.0,1
863,863,-0.12119706851769996,-0.1,0.0,1.0,301.0,853.0,1.0,0,96.0,1
864,864,-0.8720045434811452,-0.9,0.0,1.0,332.0,549.0,1.0,0,489.0,1
865,865,-0.8203174466280205,-0.8,0.0,1.0,378.0,551.0,1.0,0,471.0,1
866,866,0.854182386255882,0.9,1.0,1.0,363.0,563.0,1.0,1,324.0,1
867,867,-0.007447001972491818,-0.0,1.0,0.0,252.0,529.0,1.0,1,869.0,0
868,868,0.39849311373119456,0.4,0.0,0.0,350.0,974.0,0.0,1,186.0,1
869,869,0.439214559422895,0.4,0.0,0.0,342.0,989.0,0.0,1,-31.0,1
870,870,-0.6818779059955723,-0.7,1.0,0.0,320.0,502.0,0.0,0,578.0,1
871,871,-0.842354066044349,-0.8,0.0,1.0,354.0,877.0,1.0,0,-71.0,1
872,872,-0.18370799822306427,-0.2,0.0,1.0,389.0,964.0,1.0,0,177.0,1
873,873,-0.8918175374887105,-0.9,0.0,1.0,313.0,781.0,1.0,0,206.0,1
874,874,-0.7652675481858604,-0.8,1.0,0.0,491.0,813.0,0.0,0,306.0,1
875,875,-0.0814082053969134,-0.1,1.0,0.0,467.0,627.0,1.0,1,1066.0,0
876,876,0.7856373153980453,0.8,0.0,0.0,448.0,745.0,0.0,1,307.0,1
877,877,-0.4454578118345916,-0.4,0.0,1.0,496.0,747.0,1.0,0,247.0,1
878,878,0.8619696646466256,0.9,0.0,0.0,328.0,581.0,0.0,1,851.0,1
879,879,0.39744665701603676,0.4,1.0,1.0,479.0,622.0,1.0,1,299.0,1
880,880,-0.7936811842540955,-0.8,1.0,0.0,350.0,866.0,1.0,1,-6.0,0
881,881,0.008656049837698299,0.0,1.0,1.0,479.0,541.0,0.0,0,2980.0,0
882,882,0.6042978094552486,0.6,0.0,0.0,334.0,738.0,0.0,1,208.0,1
883,883,0.47345399721747283,0.5,1.0,1.0,360.0,700.0,1.0,1,170.0,1
884,884,0.2096497996819514,0.2,1.0,1.0,347.0,826.0,0.0,0,227.0,0
885,885,0.31115059430880077,0.3,1.0,1.0,375.0,796.0,1.0,1,9.0,1
886,886,-0.060651322366117255,-0.1,0.0,1.0,370.0,754.0,1.0,0,196.0,1
887,887,-0.69767476682724,-0.7,1.0,0.0,352.0,752.0,0.0,0,406.0,1
888,888,-0.042117781754237305,-0.0,1.0,0.0,316.0,528.0,1.0,1,1126.0,0
889,889,0.11595670823585003,0.1,0.0,0.0,255.0,958.0,1.0,0,677.0,0
890,890,-0.7193258655857588,-0.7,1.0,0.0,299.0,768.0,0.0,0,553.0,1
891,891,-0.11155794500906602,-0.1,0.0,1.0,438.0,522.0,1.0,0,480.0,1
892,892,-0.4470511050719314,-0.4,1.0,0.0,373.0,682.0,0.0,0,745.0,1
893,893,0.15486434327666776,0.2,0.0,0.0,468.0,927.0,1.0,0,505.0,0
894,894,-0.08016838377201363,-0.1,1.0,0.0,424.0,682.0,0.0,0,1344.0,1
895,895,-0.20209653314897535,-0.2,1.0,0.0,305.0,572.0,0.0,0,503.0,1
896,896,-0.2448860067672467,-0.2,1.0,0.0,255.0,659.0,1.0,1,1696.0,0
897,897,-0.333419089962673,-0.3,1.0,0.0,309.0,984.0,0.0,0,327.0,1
898,898,-0.6458184619418637,-0.6,1.0,0.0,284.0,706.0,0.0,0,380.0,1
899,899,0.2522776099389984,0.3,1.0,1.0,295.0,776.0,1.0,1,189.0,1
900,900,0.6045804669332074,0.6,1.0,1.0,351.0,812.0,1.0,1,237.0,1
901,901,0.30225643428194127,0.3,0.0,0.0,382.0,897.0,1.0,0,161.0,0
902,902,-0.875872459515624,-0.9,1.0,0.0,393.0,812.0,0.0,0,185.0,1
903,903,0.45517368496677924,0.5,0.0,0.0,325.0,978.0,0.0,1,407.0,1
904,904,-0.5984224877390576,-0.6,0.0,1.0,299.0,924.0,1.0,0,57.0,1
905,905,-0.43807492412885984,-0.4,1.0,0.0,358.0,525.0,0.0,0,677.0,1
906,906,-0.34437679647355957,-0.3,0.0,1.0,334.0,586.0,1.0,0,370.0,1
907,907,-0.5494563512737363,-0.5,0.0,1.0,299.0,688.0,1.0,0,253.0,1
908,908,0.7716090390930382,0.8,0.0,0.0,376.0,774.0,0.0,1,220.0,1
909,909,-0.04779478053535269,-0.0,0.0,1.0,331.0,771.0,1.0,0,1408.0,1
910,910,0.5995289941409491,0.6,1.0,1.0,280.0,909.0,1.0,1,121.0,1
911,911,0.6131991442590247,0.6,1.0,1.0,387.0,586.0,1.0,1,577.0,1
912,912,-0.2507024786555877,-0.3,0.0,1.0,472.0,839.0,1.0,0,299.0,1
913,913,0.8456915176811056,0.8,0.0,0.0,275.0,961.0,0.0,1,114.0,1
914,914,0.2633773770278446,0.3,0.0,0.0,459.0,728.0,1.0,0,1793.0,0
915,915,0.08315938562702074,0.1,0.0,0.0,336.0,996.0,1.0,0,78.0,0
916,916,-0.7685420345614737,-0.8,0.0,1.0,345.0,955.0,1.0,0,160.0,1
917,917,-0.7811501592561109,-0.8,1.0,0.0,382.0,671.0,0.0,0,377.0,1
918,918,0.49659235667404233,0.5,0.0,0.0,346.0,998.0,0.0,1,256.0,1
919,919,0.3160831064005595,0.3,1.0,1.0,431.0,984.0,1.0,1,955.0,1
920,920,-0.18818101056193814,-0.2,0.0,1.0,293.0,608.0,1.0,0,499.0,1
921,921,-0.30270854622712784,-0.3,1.0,0.0,486.0,693.0,0.0,0,371.0,1
922,922,-0.7309832763428151,-0.7,1.0,0.0,475.0,875.0,0.0,0,300.0,1
923,923,0.7681037354579182,0.8,1.0,1.0,357.0,732.0,1.0,1,381.0,1
924,924,-0.10154774117753873,-0.1,1.0,0.0,499.0,854.0,0.0,0,1557.0,1
925,925,0.5711382557234238,0.6,0.0,0.0,364.0,814.0,0.0,1,452.0,1
926,926,-0.4516420848216633,-0.5,0.0,1.0,481.0,825.0,1.0,0,104.0,1
927,927,0.8122526043456647,0.8,0.0,0.0,474.0,877.0,0.0,1,209.0,1
928,928,-0.6018920167782579,-0.6,1.0,0.0,366.0,741.0,0.0,0,503.0,1
929,929,-0.19837849508390692,-0.2,0.0,1.0,441.0,996.0,1.0,0,733.0,1
930,930,-0.30570420403897947,-0.3,0.0,1.0,291.0,938.0,1.0,0,491.0,1
931,931,-0.1458288732426849,-0.1,0.0,1.0,397.0,791.0,1.0,0,42.0,1
932,932,0.29347240156180565,0.3,1.0,1.0,281.0,617.0,1.0,1,162.0,1
933,933,-0.38475248184186717,-0.4,1.0,0.0,292.0,882.0,1.0,1,-4.0,0
934,934,0.4864737501787936,0.5,0.0,0.0,483.0,764.0,0.0,1,393.0,1
935,935,-0.7356650280060089,-0.7,0.0,1.0,453.0,829.0,1.0,0,898.0,1
936,936,-0.45327121949750004,-0.5,0.0,1.0,285.0,957.0,1.0,0,58.0,1
937,937,-0.11937640900017077,-0.1,1.0,0.0,405.0,521.0,1.0,1,794.0,0
938,938,0.28554859809672173,0.3,1.0,1.0,273.0,622.0,1.0,1,265.0,1
939,939,0.28557283443533976,0.3,0.0,0.0,388.0,870.0,0.0,1,282.0,1
940,940,0.5827197236417082,0.6,0.0,0.0,267.0,528.0,0.0,1,315.0,1
941,941,-0.7095860061924273,-0.7,1.0,0.0,462.0,768.0,0.0,0,190.0,1
942,942,-0.48238783873830676,-0.5,0.0,1.0,340.0,940.0,1.0,0,240.0,1
943,943,-0.2827191246554893,-0.3,1.0,0.0,265.0,895.0,0.0,0,420.0,1
944,944,0.846609517254357,0.8,1.0,1.0,250.0,692.0,1.0,1,608.0,1
945,945,0.7004290061456963,0.7,1.0,1.0,468.0,651.0,1.0,1,131.0,1
946,946,-0.6309363323762567,-0.6,0.0,1.0,342.0,863.0,1.0,0,345.0,1
947,947,-0.22790152114574003,-0.2,0.0,1.0,305.0,880.0,1.0,0,105.0,1
948,948,-0.20716396875039977,-0.2,1.0,0.0,406.0,598.0,0.0,0,556.0,1
949,949,-0.050692547040120384,-0.1,0.0,1.0,259.0,936.0,0.0,1,105.0,0
950,950,0.2678279442903514,0.3,1.0,1.0,497.0,890.0,1.0,1,303.0,1
951,951,-0.4787047579425813,-0.5,0.0,1.0,283.0,979.0,1.0,0,238.0,1
952,952,0.7647645003032234,0.8,1.0,1.0,475.0,585.0,1.0,1,420.0,1
953,953,0.5018561693093667,0.5,0.0,0.0,307.0,516.0,0.0,1,527.0,1
954,954,-0.7803905470323008,-0.8,0.0,1.0,365.0,960.0,1.0,0,135.0,1
955,955,-0.12639950989734883,-0.1,1.0,0.0,381.0,662.0,0.0,0,1127.0,1
956,956,-0.5763064071089126,-0.6,0.0,1.0,260.0,661.0,1.0,0,279.0,1
957,957,-0.3787831341919299,-0.4,0.0,1.0,365.0,854.0,1.0,0,211.0,1
958,958,-0.49668160180403725,-0.5,1.0,0.0,333.0,758.0,0.0,0,319.0,1
959,959,0.13748142783081085,0.1,0.0,0.0,361.0,813.0,0.0,1,226.0,1
960,960,-0.7926701612585364,-0.8,1.0,0.0,268.0,955.0,0.0,0,377.0,1
961,961,-0.4514323984096645,-0.5,1.0,0.0,392.0,607.0,0.0,0,291.0,1
962,962,-0.7694416473194127,-0.8,0.0,1.0,325.0,612.0,1.0,0,343.0,1
963,963,0.3405959061915299,0.3,0.0,0.0,434.0,504.0,0.0,1,912.0,1
964,964,0.35940666285843215,0.4,0.0,0.0,457.0,686.0,0.0,1,857.0,1
965,965,0.5524434135050856,0.6,0.0,0.0,492.0,957.0,0.0,1,181.0,1
966,966,-0.24613580159722992,-0.2,1.0,0.0,281.0,597.0,0.0,0,1192.0,1
967,967,-0.14871404573819247,-0.1,0.0,1.0,391.0,649.0,1.0,0,550.0,1
968,968,-0.6193482078773365,-0.6,1.0,0.0,271.0,712.0,0.0,0,827.0,1
969,969,-0.29262702363990867,-0.3,1.0,0.0,389.0,777.0,0.0,0,704.0,1
970,970,0.36734356218866415,0.4,1.0,1.0,378.0,566.0,1.0,1,636.0,1
971,971,0.4992964072891891,0.5,0.0,0.0,401.0,924.0,0.0,1,415.0,1
972,972,0.7997110871001695,0.8,0.0,0.0,463.0,545.0,0.0,1,302.0,1
973,973,-0.36130330898582075,-0.4,0.0,1.0,277.0,791.0,1.0,0,392.0,1
974,974,0.4843945300522988,0.5,0.0,0.0,296.0,689.0,0.0,1,165.0,1
975,975,-0.6594491693908981,-0.7,1.0,0.0,459.0,559.0,0.0,0,692.0,1
976,976,-0.8725042478517411,-0.9,0.0,1.0,257.0,508.0,1.0,0,365.0,1
977,977,-0.6825595806773676,-0.7,0.0,1.0,386.0,830.0,1.0,0,134.0,1
978,978,-0.4589038943986959,-0.5,0.0,1.0,399.0,519.0,1.0,0,232.0,1
979,979,0.5621282062102427,0.6,0.0,0.0,269.0,665.0,0.0,1,356.0,1
980,980,0.33750154892428796,0.3,1.0,1.0,298.0,801.0,1.0,1,1601.0,1
981,981,0.4132930429340783,0.4,0.0,0.0,344.0,830.0,0.0,1,126.0,1
982,982,0.3378741522909935,0.3,0.0,0.0,491.0,770.0,0.0,1,239.0,1
983,983,0.7822745432092891,0.8,1.0,1.0,285.0,984.0,1.0,1,31.0,1
984,984,-0.6494630357948541,-0.6,0.0,1.0,341.0,992.0,1.0,0,117.0,1
985,985,-0.7080648633957037,-0.7,1.0,0.0,448.0,541.0,0.0,0,471.0,1
986,986,0.767061208755638,0.8,1.0,1.0,475.0,647.0,1.0,1,248.0,1
987,987,-0.39750496558735826,-0.4,0.0,1.0,255.0,789.0,1.0,0,646.0,1
988,988,0.00807358001911751,0.0,0.0,0.0,350.0,839.0,1.0,0,561.0,0
989,989,-0.4966123571757718,-0.5,1.0,0.0,458.0,602.0,0.0,0,400.0,1
990,990,-0.6062674987953386,-0.6,0.0,1.0,468.0,667.0,1.0,0,485.0,1
991,991,-0.5238194045366638,-0.5,1.0,0.0,262.0,788.0,0.0,0,280.0,1
992,992,-0.347623098146156,-0.3,0.0,1.0,407.0,933.0,1.0,0,10.0,1
993,993,-0.2195840349686773,-0.2,0.0,1.0,291.0,724.0,1.0,0,315.0,1
994,994,0.8605717683225879,0.9,0.0,0.0,380.0,989.0,0.0,1,71.0,1
995,995,-0.3867345845989798,-0.4,0.0,1.0,347.0,897.0,1.0,0,226.0,1
996,996,-0.840865395679451,-0.8,0.0,1.0,334.0,696.0,1.0,0,270.0,1
997,997,0.03336615928048159,0.0,0.0,0.0,456.0,667.0,0.0,1,927.0,1
998,998,0.08324219882661832,0.1,0.0,0.0,337.0,710.0,0.0,1,813.0,1
999,999,0.3896903798903798,0.4,0.0,0.0,378.0,908.0,0.0,1,104.0,1
1000,1000,-0.7202831386221094,-0.7,0.0,1.0,292.0,631.0,1.0,0,287.0,1
1001,1001,-0.12192410899377903,-0.1,0.0,1.0,323.0,681.0,1.0,0,1356.0,1
1002,1002,-0.056133612770596475,-0.1,1.0,0.0,300.0,738.0,0.0,0,622.0,1
1003,1003,-0.8647629354292681,-0.9,1.0,0.0,309.0,629.0,0.0,0,332.0,1
1004,1004,0.7825693130642276,0.8,0.0,0.0,353.0,631.0,0.0,1,216.0,1
1005,1005,-0.03716928666682917,-0.0,1.0,0.0,281.0,643.0,0.0,0,2066.0,1
1006,1006,0.09731027321282637,0.1,1.0,1.0,337.0,577.0,1.0,1,506.0,1
1007,1007,0.3419361546619101,0.3,0.0,0.0,352.0,567.0,0.0,1,691.0,1
1008,1008,-0.6530976724995377,-0.7,1.0,0.0,446.0,850.0,0.0,0,284.0,1
1009,1009,-0.5702077723022279,-0.6,1.0,0.0,289.0,755.0,0.0,0,256.0,1
1010,1010,-0.41923228621893566,-0.4,0.0,1.0,311.0,521.0,1.0,0,398.0,1
1011,1011,0.3371974565869401,0.3,1.0,1.0,353.0,563.0,1.0,1,684.0,1
1012,1012,0.01493919445296188,0.0,0.0,0.0,410.0,945.0,0.0,1,1635.0,1
1013,1013,0.8479738060131349,0.8,0.0,0.0,266.0,944.0,0.0,1,350.0,1
1014,1014,-0.14833056029586777,-0.1,0.0,1.0,330.0,757.0,1.0,0,273.0,1
1015,1015,-0.6808467322533059,-0.7,1.0,0.0,439.0,881.0,0.0,0,350.0,1
1016,1016,0.05580006605208487,0.1,0.0,0.0,259.0,993.0,0.0,1,788.0,1
1017,1017,-0.2700144656953276,-0.3,0.0,1.0,262.0,551.0,1.0,0,447.0,1
1018,1018,-0.27597152808384406,-0.3,1.0,0.0,351.0,647.0,1.0,1,3982.0,0
1019,1019,-0.7453201999438945,-0.7,1.0,0.0,389.0,643.0,0.0,0,208.0,1
1020,1020,0.35777301545642304,0.4,0.0,0.0,271.0,500.0,0.0,1,699.0,1
1021,1021,-0.5708813500242731,-0.6,0.0,1.0,497.0,556.0,1.0,0,317.0,1
1022,1022,0.48801689440760143,0.5,0.0,0.0,363.0,589.0,0.0,1,758.0,1
1023,1023,-0.3593311644587426,-0.4,1.0,0.0,394.0,973.0,1.0,1,-77.0,0
1024,1024,-0.028729836052707403,-0.0,0.0,1.0,349.0,613.0,1.0,0,338.0,1
1025,1025,-0.898261338778055,-0.9,0.0,1.0,454.0,604.0,1.0,0,382.0,1
1026,1026,0.8320717398855889,0.8,0.0,0.0,434.0,640.0,0.0,1,156.0,1
1027,1027,0.7813881351838571,0.8,1.0,1.0,412.0,664.0,1.0,1,384.0,1
1028,1028,-0.6699352554806178,-0.7,0.0,1.0,265.0,795.0,1.0,0,280.0,1
1029,1029,-0.7711029835788701,-0.8,0.0,1.0,459.0,786.0,1.0,0,255.0,1
1030,1030,-0.579993464878563,-0.6,0.0,1.0,301.0,620.0,1.0,0,379.0,1
1031,1031,-0.2757350172673404,-0.3,0.0,1.0,302.0,564.0,1.0,0,464.0,1
1032,1032,-0.5561219900722976,-0.6,1.0,0.0,419.0,612.0,0.0,0,1349.0,1
1033,1033,-0.5455440529075006,-0.5,0.0,1.0,337.0,829.0,1.0,0,194.0,1
1034,1034,-0.7834491234607015,-0.8,1.0,0.0,369.0,960.0,1.0,1,-49.0,0
1035,1035,0.8561063559065533,0.9,0.0,0.0,466.0,917.0,0.0,1,127.0,1
1036,1036,-0.07488315345259178,-0.1,0.0,1.0,288.0,973.0,0.0,1,329.0,0
1037,1037,-0.62997874275445,-0.6,1.0,0.0,442.0,746.0,0.0,0,302.0,1
1038,1038,-0.6639507031301939,-0.7,0.0,1.0,493.0,782.0,1.0,0,415.0,1
1039,1039,-0.7990495894059606,-0.8,1.0,0.0,313.0,896.0,0.0,0,321.0,1
1040,1040,-0.5535940063835715,-0.6,1.0,0.0,426.0,687.0,0.0,0,477.0,1
1041,1041,-0.4185498010631396,-0.4,0.0,1.0,298.0,840.0,1.0,0,142.0,1
1042,1042,0.4722827464040541,0.5,1.0,1.0,382.0,967.0,1.0,1,201.0,1
1043,1043,0.3508976641699174,0.4,1.0,1.0,437.0,731.0,1.0,1,362.0,1
1044,1044,0.7917104903524425,0.8,1.0,1.0,388.0,946.0,1.0,1,486.0,1
1045,1045,-0.17773860491573978,-0.2,0.0,1.0,385.0,765.0,1.0,0,1010.0,1
1046,1046,0.8126984478475773,0.8,1.0,1.0,334.0,802.0,1.0,1,234.0,1
1047,1047,-0.8722856341922333,-0.9,0.0,1.0,449.0,776.0,1.0,0,445.0,1
1048,1048,-0.6107195364460398,-0.6,1.0,0.0,253.0,526.0,0.0,0,451.0,1
1049,1049,-0.7931186329644401,-0.8,0.0,1.0,452.0,828.0,1.0,0,180.0,1
1050,1050,0.7068904956911594,0.7,1.0,1.0,255.0,937.0,1.0,1,178.0,1
1051,1051,0.4050584424970344,0.4,1.0,1.0,357.0,530.0,1.0,1,573.0,1
1052,1052,0.178433008599865,0.2,0.0,0.0,446.0,795.0,0.0,1,1069.0,1
1053,1053,-0.28274603138361076,-0.3,1.0,0.0,462.0,739.0,0.0,0,709.0,1
1054,1054,0.40585141553401416,0.4,0.0,0.0,495.0,719.0,0.0,1,336.0,1
1055,1055,-0.7249848185477049,-0.7,0.0,1.0,315.0,730.0,1.0,0,345.0,1
1056,1056,0.34265684893039416,0.3,1.0,1.0,493.0,864.0,1.0,1,293.0,1
1057,1057,-0.4562312355696185,-0.5,1.0,0.0,285.0,917.0,0.0,0,328.0,1
1058,1058,0.44818994067260565,0.4,1.0,1.0,445.0,860.0,1.0,1,105.0,1
1059,1059,-0.4831146676355078,-0.5,1.0,0.0,376.0,533.0,0.0,0,901.0,1
1060,1060,-0.055933677407166704,-0.1,0.0,1.0,267.0,858.0,0.0,1,1335.0,0
1061,1061,0.7158360772093723,0.7,1.0,1.0,448.0,808.0,1.0,1,304.0,1
1062,1062,0.6748343407044205,0.7,0.0,0.0,250.0,510.0,0.0,1,460.0,1
1063,1063,-0.09408105552518364,-0.1,0.0,1.0,323.0,602.0,0.0,1,1515.0,0
1064,1064,-0.49778475490807295,-0.5,1.0,0.0,496.0,652.0,0.0,0,482.0,1
1065,1065,-0.7730556653011151,-0.8,1.0,0.0,495.0,615.0,0.0,0,560.0,1
1066,1066,0.6444969937035933,0.6,0.0,0.0,471.0,826.0,0.0,1,433.0,1
1067,1067,-0.7904165230694906,-0.8,1.0,0.0,445.0,958.0,0.0,0,457.0,1
1068,1068,0.07312338593919199,0.1,1.0,1.0,310.0,884.0,0.0,0,316.0,0
1069,1069,0.538109816983921,0.5,1.0,1.0,310.0,780.0,1.0,1,280.0,1
1070,1070,0.09700461649690972,0.1,0.0,0.0,387.0,955.0,1.0,0,368.0,0
1071,1071,-0.22921739347041092,-0.2,1.0,0.0,403.0,936.0,0.0,0,291.0,1
1072,1072,-0.39519333772037957,-0.4,0.0,1.0,399.0,573.0,1.0,0,728.0,1
1073,1073,0.18856773372072955,0.2,0.0,0.0,419.0,908.0,1.0,0,1363.0,0
1074,1074,-0.14766127009687924,-0.1,0.0,1.0,471.0,940.0,1.0,0,589.0,1
1075,1075,0.5021836224069548,0.5,0.0,0.0,315.0,874.0,0.0,1,101.0,1
1076,1076,0.5319809038981734,0.5,0.0,0.0,366.0,508.0,0.0,1,446.0,1
1077,1077,0.06058297582071481,0.1,1.0,1.0,381.0,882.0,1.0,1,2047.0,1
1078,1078,-0.07906925078843963,-0.1,0.0,1.0,440.0,624.0,1.0,0,596.0,1
1079,1079,-0.6962332128266397,-0.7,1.0,0.0,251.0,605.0,0.0,0,684.0,1
1080,1080,0.36934538265163674,0.4,0.0,0.0,360.0,991.0,1.0,0,-71.0,0
1081,1081,0.7849588719017498,0.8,0.0,0.0,374.0,929.0,0.0,1,267.0,1
1082,1082,-0.7501614425383034,-0.8,0.0,1.0,362.0,935.0,1.0,0,103.0,1
1083,1083,0.7600432866740509,0.8,1.0,1.0,380.0,672.0,1.0,1,658.0,1
1084,1084,-0.6593084662178836,-0.7,1.0,0.0,313.0,848.0,0.0,0,289.0,1
1085,1085,-0.11299864799866777,-0.1,1.0,0.0,465.0,947.0,0.0,0,98.0,1
1086,1086,-0.1966665251648113,-0.2,1.0,0.0,258.0,727.0,0.0,0,1965.0,1
1087,1087,-0.5550297306259413,-0.6,0.0,1.0,468.0,907.0,1.0,0,155.0,1
1088,1088,-0.3046538180867906,-0.3,0.0,1.0,361.0,665.0,1.0,0,784.0,1
1089,1089,-0.5797967199570151,-0.6,0.0,1.0,464.0,881.0,1.0,0,325.0,1
1090,1090,0.06050712893504817,0.1,0.0,0.0,273.0,520.0,0.0,1,487.0,1
1091,1091,-0.6487850990505727,-0.6,1.0,0.0,485.0,627.0,0.0,0,338.0,1
1092,1092,0.8667359153486195,0.9,0.0,0.0,480.0,715.0,0.0,1,355.0,1
1093,1093,-0.14616805093147056,-0.1,1.0,0.0,478.0,600.0,0.0,0,842.0,1
1094,1094,-0.6082070616433533,-0.6,0.0,1.0,355.0,724.0,1.0,0,291.0,1
1095,1095,-0.7125585542017272,-0.7,1.0,0.0,406.0,797.0,0.0,0,97.0,1
1096,1096,0.894431311597134,0.9,0.0,0.0,256.0,697.0,0.0,1,257.0,1
1097,1097,-0.21295183208968016,-0.2,0.0,1.0,303.0,753.0,1.0,0,594.0,1
1098,1098,-0.011511243808549843,-0.0,0.0,1.0,264.0,517.0,0.0,1,1179.0,0
1099,1099,-0.1270028154525178,-0.1,1.0,0.0,278.0,755.0,1.0,1,1687.0,0
1100,1100,0.11925897840657662,0.1,0.0,0.0,331.0,625.0,0.0,1,1224.0,1
1101,1101,0.2700761845456191,0.3,1.0,1.0,481.0,843.0,1.0,1,636.0,1
1102,1102,-0.7033541717980827,-0.7,1.0,0.0,342.0,721.0,0.0,0,267.0,1
1103,1103,0.6065342858458426,0.6,1.0,1.0,483.0,926.0,1.0,1,511.0,1
1104,1104,0.5790168589640431,0.6,0.0,0.0,434.0,779.0,0.0,1,557.0,1
1105,1105,-0.026543427463206815,-0.0,0.0,1.0,373.0,964.0,0.0,1,593.0,0
1106,1106,-0.8753550160619964,-0.9,1.0,0.0,296.0,588.0,0.0,0,416.0,1
1107,1107,-0.7633778646619661,-0.8,0.0,1.0,297.0,611.0,1.0,0,222.0,1
1108,1108,-0.21069755540809454,-0.2,1.0,0.0,295.0,536.0,0.0,0,249.0,1
1109,1109,-0.8130101821586773,-0.8,1.0,0.0,372.0,986.0,1.0,1,-48.0,0
1110,1110,-0.12033427178894751,-0.1,0.0,1.0,453.0,990.0,1.0,0,1227.0,1
1111,1111,-0.014326345675926055,-0.0,0.0,1.0,388.0,834.0,1.0,0,248.0,1
1112,1112,0.6080132098715919,0.6,0.0,0.0,433.0,757.0,0.0,1,650.0,1
1113,1113,-0.5330297356762583,-0.5,0.0,1.0,294.0,683.0,1.0,0,273.0,1
1114,1114,0.5710829944173713,0.6,0.0,0.0,354.0,740.0,0.0,1,486.0,1
1115,1115,0.11725448172901609,0.1,0.0,0.0,359.0,643.0,0.0,1,1638.0,1
1116,1116,0.22270196851093516,0.2,0.0,0.0,490.0,994.0,0.0,1,306.0,1
1117,1117,0.46833951373141114,0.5,1.0,1.0,468.0,928.0,1.0,1,134.0,1
1118,1118,-0.04483954588440442,-0.0,0.0,1.0,252.0,600.0,1.0,0,908.0,1
1119,1119,-0.27612066310323513,-0.3,1.0,0.0,422.0,735.0,0.0,0,663.0,1
1120,1120,0.44160284181698917,0.4,0.0,0.0,297.0,821.0,0.0,1,362.0,1
1121,1121,-0.584025275894909,-0.6,0.0,1.0,493.0,979.0,1.0,0,-32.0,1
1122,1122,-0.3779104261171531,-0.4,1.0,0.0,354.0,688.0,0.0,0,408.0,1
1123,1123,-0.23330353643659762,-0.2,0.0,1.0,395.0,611.0,1.0,0,414.0,1
1124,1124,-0.24672381254579645,-0.2,0.0,1.0,297.0,869.0,1.0,0,104.0,1
1125,1125,-0.07208902420472485,-0.1,1.0,0.0,267.0,549.0,1.0,1,854.0,0
1126,1126,0.8039389617808562,0.8,1.0,1.0,348.0,511.0,1.0,1,411.0,1
1127,1127,-0.13424048190321303,-0.1,1.0,0.0,469.0,591.0,0.0,0,650.0,1
1128,1128,-0.5642261768647854,-0.6,1.0,0.0,272.0,626.0,0.0,0,612.0,1
1129,1129,-0.1314803747830412,-0.1,0.0,1.0,333.0,711.0,1.0,0,296.0,1
1130,1130,0.18337311882165774,0.2,1.0,1.0,305.0,818.0,0.0,0,1637.0,0
1131,1131,-0.6565030958381597,-0.7,0.0,1.0,277.0,948.0,1.0,0,255.0,1
1132,1132,-0.8348432748300305,-0.8,1.0,0.0,380.0,523.0,0.0,0,337.0,1
1133,1133,0.6050539874199653,0.6,1.0,1.0,321.0,997.0,1.0,1,242.0,1
1134,1134,0.7696447087569086,0.8,1.0,1.0,358.0,646.0,1.0,1,576.0,1
1135,1135,0.7712980905792249,0.8,0.0,0.0,358.0,857.0,0.0,1,105.0,1
1136,1136,-0.7688464083374476,-0.8,1.0,0.0,298.0,955.0,1.0,1,-83.0,0
1137,1137,0.8830387871823057,0.9,0.0,0.0,401.0,851.0,0.0,1,298.0,1
1138,1138,0.6622575318050489,0.7,0.0,0.0,389.0,712.0,0.0,1,239.0,1
1139,1139,-0.13048661472906475,-0.1,1.0,0.0,316.0,583.0,0.0,0,621.0,1
1140,1140,0.856134041239487,0.9,0.0,0.0,307.0,904.0,0.0,1,59.0,1
1141,1141,0.46117531545398094,0.5,0.0,0.0,475.0,799.0,0.0,1,226.0,1
1142,1142,-0.8594238464238794,-0.9,1.0,0.0,476.0,545.0,0.0,0,359.0,1
1143,1143,-0.366187854372128,-0.4,1.0,0.0,407.0,840.0,0.0,0,703.0,1
1144,1144,-0.6679440586738498,-0.7,1.0,0.0,485.0,855.0,0.0,0,830.0,1
1145,1145,0.2077461104619972,0.2,0.0,0.0,437.0,907.0,0.0,1,926.0,1
1146,1146,-0.3699348658229915,-0.4,1.0,0.0,334.0,854.0,0.0,0,772.0,1
1147,1147,0.6089310327518628,0.6,1.0,1.0,284.0,918.0,1.0,1,208.0,1
1148,1148,-0.06574806516407117,-0.1,1.0,0.0,326.0,789.0,1.0,1,825.0,0
1149,1149,-0.1306966646970743,-0.1,1.0,0.0,452.0,938.0,1.0,1,700.0,0
1150,1150,-0.09383357006562631,-0.1,1.0,0.0,482.0,761.0,0.0,0,827.0,1
1151,1151,0.5638416428501879,0.6,1.0,1.0,338.0,975.0,1.0,1,757.0,1
1152,1152,0.3396876128470926,0.3,0.0,0.0,350.0,943.0,0.0,1,287.0,1
1153,1153,-0.3127594050156216,-0.3,1.0,0.0,425.0,897.0,1.0,1,48.0,0
1154,1154,0.7593820027550854,0.8,0.0,0.0,490.0,973.0,0.0,1,207.0,1
1155,1155,0.1184783101988004,0.1,0.0,0.0,307.0,878.0,0.0,1,335.0,1
1156,1156,0.14433887741931806,0.1,1.0,1.0,440.0,792.0,1.0,1,598.0,1
1157,1157,-0.43456130352546135,-0.4,1.0,0.0,373.0,658.0,0.0,0,349.0,1
1158,1158,-0.7478477917206249,-0.7,1.0,0.0,457.0,958.0,0.0,0,495.0,1
1159,1159,-0.6211667921466213,-0.6,0.0,1.0,279.0,989.0,1.0,0,32.0,1
1160,1160,-0.0848139670050011,-0.1,0.0,1.0,478.0,939.0,1.0,0,63.0,1
1161,1161,0.14264934683844477,0.1,0.0,0.0,419.0,589.0,0.0,1,1152.0,1
1162,1162,-0.5046712871121679,-0.5,1.0,0.0,350.0,895.0,0.0,0,285.0,1
1163,1163,0.8675076480256924,0.9,0.0,0.0,476.0,799.0,0.0,1,375.0,1
1164,1164,0.3934288346510876,0.4,0.0,0.0,472.0,547.0,0.0,1,411.0,1
1165,1165,0.7877647798219899,0.8,1.0,1.0,294.0,568.0,1.0,1,288.0,1
1166,1166,-0.3313388728378558,-0.3,1.0,0.0,406.0,599.0,0.0,0,325.0,1
1167,1167,0.6101395958423049,0.6,0.0,0.0,408.0,543.0,0.0,1,299.0,1
1168,1168,0.46219868781369466,0.5,0.0,0.0,365.0,929.0,1.0,0,36.0,0
1169,1169,0.05015005873225631,0.1,1.0,1.0,483.0,739.0,0.0,0,1848.0,0
1170,1170,-0.6086961983023775,-0.6,1.0,0.0,359.0,825.0,0.0,0,986.0,1
1171,1171,0.8447794939882506,0.8,1.0,1.0,264.0,665.0,1.0,1,161.0,1
1172,1172,0.4533641301085717,0.5,0.0,0.0,263.0,837.0,0.0,1,260.0,1
1173,1173,-0.6713562782177785,-0.7,0.0,1.0,460.0,915.0,1.0,0,255.0,1
1174,1174,0.6725490895369625,0.7,1.0,1.0,424.0,652.0,1.0,1,324.0,1
1175,1175,-0.5199869315851895,-0.5,0.0,1.0,282.0,739.0,1.0,0,409.0,1
1176,1176,0.6580521708711072,0.7,1.0,1.0,268.0,985.0,1.0,1,-43.0,1
1177,1177,0.29234569880030226,0.3,1.0,1.0,308.0,793.0,1.0,1,909.0,1
1178,1178,-0.1630489713777341,-0.2,0.0,1.0,371.0,967.0,1.0,0,542.0,1
1179,1179,-0.11456916035821885,-0.1,1.0,0.0,308.0,702.0,0.0,0,490.0,1
1180,1180,0.5411569305907399,0.5,1.0,1.0,298.0,630.0,1.0,1,462.0,1
1181,1181,-0.6520793592652856,-0.7,0.0,1.0,410.0,624.0,1.0,0,766.0,1
1182,1182,0.26289886186300915,0.3,1.0,1.0,260.0,886.0,1.0,1,344.0,1
1183,1183,-0.016280116849887505,-0.0,1.0,0.0,324.0,639.0,1.0,1,1557.0,0
1184,1184,0.48283686193359665,0.5,1.0,1.0,300.0,524.0,1.0,1,486.0,1
1185,1185,0.8438559651999319,0.8,1.0,1.0,487.0,501.0,1.0,1,372.0,1
1186,1186,0.6213108305261287,0.6,0.0,0.0,302.0,894.0,0.0,1,374.0,1
1187,1187,-0.1167902508008063,-0.1,1.0,0.0,490.0,550.0,0.0,0,1320.0,1
1188,1188,-0.11127197915078235,-0.1,1.0,0.0,479.0,978.0,0.0,0,343.0,1
1189,1189,0.13763988531701965,0.1,0.0,0.0,489.0,831.0,0.0,1,520.0,1
1190,1190,-0.8415958121189067,-0.8,0.0,1.0,377.0,788.0,1.0,0,395.0,1
1191,1191,0.2836942902351126,0.3,1.0,1.0,403.0,989.0,1.0,1,58.0,1
1192,1192,-0.5583211962249026,-0.6,1.0,0.0,269.0,939.0,0.0,0,122.0,1
1193,1193,0.06141346101428524,0.1,1.0,1.0,463.0,546.0,1.0,1,1101.0,1
1194,1194,0.03533265036202704,0.0,1.0,1.0,401.0,825.0,1.0,1,1124.0,1
1195,1195,-0.036254483455380404,-0.0,0.0,1.0,392.0,613.0,0.0,1,685.0,0
1196,1196,-0.09894271215651707,-0.1,0.0,1.0,354.0,616.0,0.0,1,460.0,0
1197,1197,0.46970526490486375,0.5,1.0,1.0,283.0,739.0,1.0,1,88.0,1
1198,1198,-0.8313597669037877,-0.8,1.0,0.0,499.0,601.0,0.0,0,370.0,1
1199,1199,-0.1651396843246179,-0.2,1.0,0.0,453.0,961.0,1.0,1,456.0,0
1200,1200,-0.822881559110871,-0.8,0.0,1.0,493.0,736.0,1.0,0,221.0,1
1201,1201,-0.7818424497004732,-0.8,0.0,1.0,376.0,910.0,1.0,0,154.0,1
1202,1202,-0.7657240969748813,-0.8,1.0,0.0,333.0,679.0,0.0,0,478.0,1
1203,1203,-0.5461536337457621,-0.5,0.0,1.0,397.0,872.0,1.0,0,151.0,1
1204,1204,-0.6868287624247351,-0.7,1.0,0.0,345.0,937.0,0.0,0,398.0,1
1205,1205,-0.11512071687156611,-0.1,0.0,1.0,279.0,842.0,1.0,0,379.0,1
1206,1206,0.5478952321369736,0.5,1.0,1.0,327.0,574.0,1.0,1,279.0,1
1207,1207,0.799277407464298,0.8,1.0,1.0,385.0,535.0,1.0,1,490.0,1
1208,1208,0.35559653693555393,0.4,0.0,0.0,451.0,854.0,0.0,1,35.0,1
1209,1209,0.6631639090920435,0.7,1.0,1.0,492.0,803.0,1.0,1,255.0,1
1210,1210,0.2868570406389107,0.3,1.0,1.0,293.0,950.0,1.0,1,257.0,1
1211,1211,-0.23650742601981567,-0.2,0.0,1.0,362.0,527.0,1.0,0,811.0,1
1212,1212,0.7078995274068539,0.7,0.0,0.0,433.0,820.0,0.0,1,117.0,1
1213,1213,-0.5619055326877476,-0.6,1.0,0.0,487.0,982.0,0.0,0,21.0,1
1214,1214,-0.6698073355220218,-0.7,1.0,0.0,414.0,792.0,0.0,0,214.0,1
1215,1215,0.706140167281818,0.7,1.0,1.0,439.0,884.0,1.0,1,337.0,1
1216,1216,-0.5303708391648807,-0.5,1.0,0.0,272.0,782.0,0.0,0,286.0,1
1217,1217,-0.39835959491716555,-0.4,0.0,1.0,387.0,672.0,1.0,0,381.0,1
1218,1218,0.349212611033653,0.3,0.0,0.0,429.0,759.0,0.0,1,462.0,1
1219,1219,0.8749220816032911,0.9,1.0,1.0,254.0,658.0,1.0,1,108.0,1
1220,1220,-0.20770827123435576,-0.2,1.0,0.0,324.0,534.0,0.0,0,1352.0,1
1221,1221,0.16451580977567992,0.2,0.0,0.0,380.0,716.0,0.0,1,1054.0,1
1222,1222,0.46564444167496755,0.5,0.0,0.0,275.0,822.0,0.0,1,513.0,1
1223,1223,0.5927996195131736,0.6,0.0,0.0,460.0,801.0,0.0,1,869.0,1
1224,1224,0.443385541305617,0.4,1.0,1.0,331.0,786.0,1.0,1,233.0,1
1225,1225,0.2280486237166529,0.2,0.0,0.0,330.0,860.0,1.0,0,160.0,0
1226,1226,-0.26303811256552867,-0.3,1.0,0.0,480.0,714.0,0.0,0,1376.0,1
1227,1227,-0.17721949261367542,-0.2,1.0,0.0,286.0,874.0,0.0,0,330.0,1
1228,1228,0.039048368827007574,0.0,1.0,1.0,255.0,791.0,1.0,1,104.0,1
1229,1229,0.6318400259157647,0.6,0.0,0.0,272.0,780.0,0.0,1,238.0,1
1230,1230,-0.8576664252657501,-0.9,0.0,1.0,406.0,588.0,1.0,0,446.0,1
1231,1231,0.7619041905206924,0.8,1.0,1.0,329.0,950.0,1.0,1,221.0,1
1232,1232,0.8845435308858608,0.9,0.0,0.0,315.0,809.0,0.0,1,186.0,1
1233,1233,0.3874813957085598,0.4,1.0,1.0,430.0,510.0,1.0,1,550.0,1
1234,1234,0.6970301205987871,0.7,0.0,0.0,445.0,999.0,0.0,1,-64.0,1
1235,1235,0.1718352226518992,0.2,1.0,1.0,373.0,729.0,1.0,1,868.0,1
1236,1236,0.08983810067253573,0.1,1.0,1.0,372.0,691.0,1.0,1,647.0,1
1237,1237,0.13008640897573487,0.1,1.0,1.0,334.0,860.0,1.0,1,126.0,1
1238,1238,-0.8660843206804855,-0.9,0.0,1.0,379.0,977.0,1.0,0,134.0,1
1239,1239,0.06271888622930832,0.1,0.0,0.0,321.0,852.0,1.0,0,577.0,0
1240,1240,0.8962824128735641,0.9,0.0,0.0,439.0,929.0,0.0,1,102.0,1
1241,1241,-0.5740462429362154,-0.6,0.0,1.0,353.0,630.0,1.0,0,427.0,1
1242,1242,-0.5351989508041912,-0.5,1.0,0.0,261.0,994.0,0.0,0,225.0,1
1243,1243,0.6892135599594341,0.7,0.0,0.0,295.0,919.0,0.0,1,216.0,1
1244,1244,-0.1958470771787868,-0.2,0.0,1.0,320.0,714.0,1.0,0,376.0,1
1245,1245,-0.8808045695548792,-0.9,0.0,1.0,262.0,761.0,1.0,0,137.0,1
1246,1246,-0.748621276919583,-0.7,1.0,0.0,445.0,974.0,0.0,0,301.0,1
1247,1247,0.7854375993338892,0.8,1.0,1.0,495.0,925.0,1.0,1,660.0,1
1248,1248,-0.7542687587404254,-0.8,1.0,0.0,459.0,807.0,0.0,0,284.0,1
1249,1249,0.4374995165393355,0.4,0.0,0.0,385.0,629.0,0.0,1,696.0,1
1250,1250,0.09854361854741922,0.1,0.0,0.0,440.0,780.0,1.0,0,330.0,0
1251,1251,-0.0423242972236656,-0.0,0.0,1.0,427.0,542.0,1.0,0,1011.0,1
1252,1252,0.044456247023698214,0.0,0.0,0.0,479.0,948.0,0.0,1,383.0,1
1253,1253,0.8178273685532983,0.8,0.0,0.0,420.0,962.0,0.0,1,98.0,1
1254,1254,-0.27204053505364556,-0.3,1.0,0.0,350.0,970.0,0.0,0,900.0,1
1255,1255,0.24441632840289274,0.2,1.0,1.0,454.0,636.0,1.0,1,350.0,1
1256,1256,0.4634727851151573,0.5,0.0,0.0,252.0,578.0,0.0,1,750.0,1
1257,1257,0.01905455570989778,0.0,0.0,0.0,267.0,944.0,1.0,0,349.0,0
1258,1258,0.09808843142172308,0.1,1.0,1.0,319.0,623.0,1.0,1,108.0,1
1259,1259,-0.05017328573741653,-0.1,0.0,1.0,403.0,599.0,1.0,0,648.0,1
1260,1260,-0.7850609192899448,-0.8,0.0,1.0,272.0,829.0,1.0,0,209.0,1
1261,1261,-0.19009711449315236,-0.2,0.0,1.0,377.0,922.0,1.0,0,121.0,1
1262,1262,-0.22022138555132897,-0.2,1.0,0.0,496.0,651.0,1.0,1,1413.0,0
1263,1263,-0.06768420560809107,-0.1,0.0,1.0,474.0,702.0,1.0,0,2894.0,1
1264,1264,-0.7169741276185777,-0.7,1.0,0.0,347.0,527.0,0.0,0,246.0,1
1265,1265,-0.07664169063726423,-0.1,1.0,0.0,253.0,787.0,0.0,0,2250.0,1
1266,1266,-0.5381460313176549,-0.5,0.0,1.0,282.0,538.0,1.0,0,200.0,1
1267,1267,0.1205288818990754,0.1,1.0,1.0,361.0,854.0,1.0,1,615.0,1
1268,1268,-0.11062665924377624,-0.1,1.0,0.0,297.0,515.0,0.0,0,3388.0,1
1269,1269,0.21944723630328278,0.2,1.0,1.0,421.0,841.0,1.0,1,-22.0,1
1270,1270,0.7562878615966867,0.8,1.0,1.0,261.0,525.0,1.0,1,514.0,1
1271,1271,0.6647962357428131,0.7,0.0,0.0,351.0,515.0,0.0,1,614.0,1
1272,1272,-0.49945858952692496,-0.5,0.0,1.0,498.0,602.0,1.0,0,340.0,1
1273,1273,0.16941533315354518,0.2,0.0,0.0,492.0,591.0,0.0,1,357.0,1
1274,1274,-0.6717490154948776,-0.7,0.0,1.0,263.0,804.0,1.0,0,243.0,1
1275,1275,-0.22206338368216838,-0.2,1.0,0.0,466.0,631.0,0.0,0,2233.0,1
1276,1276,0.25097952432668225,0.3,0.0,0.0,415.0,900.0,0.0,1,985.0,1
1277,1277,0.3834331926039293,0.4,1.0,1.0,441.0,602.0,1.0,1,1217.0,1
1278,1278,-0.30917532510907175,-0.3,1.0,0.0,286.0,710.0,1.0,1,174.0,0
1279,1279,0.8760249561391268,0.9,1.0,1.0,438.0,654.0,1.0,1,158.0,1
1280,1280,0.2474535754141266,0.2,1.0,1.0,462.0,951.0,1.0,1,277.0,1
1281,1281,0.4616610902519406,0.5,1.0,1.0,492.0,872.0,1.0,1,236.0,1
1282,1282,-0.7713624246687399,-0.8,0.0,1.0,345.0,858.0,1.0,0,147.0,1
1283,1283,-0.6137757051532817,-0.6,0.0,1.0,480.0,654.0,1.0,0,376.0,1
1284,1284,0.7117655659597647,0.7,1.0,1.0,418.0,913.0,1.0,1,429.0,1
1285,1285,0.4349003246143289,0.4,1.0,1.0,277.0,751.0,1.0,1,252.0,1
1286,1286,-0.5881908640968032,-0.6,1.0,0.0,454.0,815.0,0.0,0,411.0,1
1287,1287,0.5699683699917871,0.6,0.0,0.0,456.0,529.0,0.0,1,355.0,1
1288,1288,-0.06964198003217181,-0.1,0.0,1.0,388.0,696.0,1.0,0,336.0,1
1289,1289,-0.7218938000447274,-0.7,1.0,0.0,272.0,810.0,0.0,0,138.0,1
1290,1290,0.6432186992437233,0.6,1.0,1.0,270.0,557.0,1.0,1,383.0,1
1291,1291,0.29618307614212147,0.3,1.0,1.0,497.0,863.0,1.0,1,530.0,1
1292,1292,0.4215358861125912,0.4,0.0,0.0,319.0,847.0,0.0,1,294.0,1
1293,1293,-0.16010635074176438,-0.2,0.0,1.0,321.0,954.0,1.0,0,-5.0,1
1294,1294,0.02231726478305085,0.0,0.0,0.0,403.0,870.0,1.0,0,47.0,0
1295,1295,-0.42998089830708347,-0.4,0.0,1.0,354.0,728.0,1.0,0,418.0,1
1296,1296,0.04904086982070599,0.0,1.0,1.0,294.0,967.0,0.0,0,-171.0,0
1297,1297,0.8207951771356262,0.8,0.0,0.0,371.0,881.0,0.0,1,248.0,1
1298,1298,-0.6597995869562103,-0.7,0.0,1.0,486.0,588.0,1.0,0,226.0,1
1299,1299,-0.6536396024574391,-0.7,1.0,0.0,439.0,563.0,0.0,0,708.0,1
1300,1300,0.3241559652773284,0.3,1.0,1.0,391.0,574.0,1.0,1,665.0,1
1301,1301,0.8065372016094429,0.8,1.0,1.0,340.0,552.0,1.0,1,328.0,1
1302,1302,-0.5693001016017634,-0.6,0.0,1.0,442.0,932.0,1.0,0,326.0,1
1303,1303,0.009355540650232919,0.0,0.0,0.0,345.0,503.0,1.0,0,1592.0,0
1304,1304,0.26706754662796095,0.3,1.0,1.0,326.0,727.0,1.0,1,787.0,1
1305,1305,-0.24205335512031578,-0.2,0.0,1.0,428.0,802.0,1.0,0,780.0,1
1306,1306,-0.37870304031517055,-0.4,0.0,1.0,462.0,545.0,1.0,0,493.0,1
1307,1307,0.3961444323845321,0.4,1.0,1.0,342.0,777.0,1.0,1,211.0,1
1308,1308,-0.7477108499033592,-0.7,1.0,0.0,421.0,918.0,0.0,0,281.0,1
1309,1309,0.498242623160139,0.5,1.0,1.0,311.0,873.0,1.0,1,716.0,1
1310,1310,-0.6853928599559356,-0.7,0.0,1.0,475.0,766.0,1.0,0,279.0,1
1311,1311,-0.3358158482074908,-0.3,0.0,1.0,285.0,780.0,1.0,0,405.0,1
1312,1312,-0.22493531957301205,-0.2,1.0,0.0,485.0,982.0,0.0,0,483.0,1
1313,1313,0.07673319428331393,0.1,1.0,1.0,418.0,720.0,1.0,1,242.0,1
1314,1314,0.1530335385224716,0.2,1.0,1.0,412.0,581.0,1.0,1,1057.0,1
1315,1315,0.4087510155841504,0.4,0.0,0.0,491.0,874.0,1.0,0,345.0,0
1316,1316,-0.7180899076617485,-0.7,0.0,1.0,301.0,779.0,1.0,0,640.0,1
1317,1317,0.41253037526516867,0.4,0.0,0.0,371.0,616.0,0.0,1,1863.0,1
1318,1318,-0.22678849972832282,-0.2,0.0,1.0,496.0,690.0,1.0,0,504.0,1
1319,1319,-0.36823620829949233,-0.4,0.0,1.0,410.0,824.0,1.0,0,636.0,1
1320,1320,0.2518113864108861,0.3,1.0,1.0,423.0,516.0,1.0,1,451.0,1
1321,1321,-0.01455616877558874,-0.0,1.0,0.0,284.0,909.0,0.0,0,137.0,1
1322,1322,0.4069787962114527,0.4,1.0,1.0,299.0,536.0,1.0,1,575.0,1
1323,1323,0.5251534235382006,0.5,1.0,1.0,446.0,710.0,1.0,1,274.0,1
1324,1324,0.48928159306383756,0.5,1.0,1.0,463.0,530.0,1.0,1,897.0,1
1325,1325,-0.7159535434588454,-0.7,1.0,0.0,426.0,683.0,0.0,0,881.0,1
1326,1326,-0.5172621366826546,-0.5,1.0,0.0,377.0,815.0,0.0,0,368.0,1
1327,1327,0.7031138980427044,0.7,0.0,0.0,461.0,538.0,0.0,1,281.0,1
1328,1328,0.7635652561114966,0.8,1.0,1.0,365.0,604.0,1.0,1,371.0,1
1329,1329,0.7097025007313303,0.7,1.0,1.0,347.0,708.0,1.0,1,375.0,1
1330,1330,-0.15063602045226032,-0.2,0.0,1.0,402.0,653.0,1.0,0,415.0,1
1331,1331,0.3879051781237014,0.4,0.0,0.0,397.0,726.0,0.0,1,247.0,1
1332,1332,0.13074697207192354,0.1,0.0,0.0,415.0,547.0,0.0,1,528.0,1
1333,1333,-0.5647016432943803,-0.6,0.0,1.0,411.0,724.0,1.0,0,455.0,1
1334,1334,-0.417733508702017,-0.4,0.0,1.0,493.0,710.0,1.0,0,347.0,1
1335,1335,0.6628662676014571,0.7,0.0,0.0,380.0,542.0,0.0,1,348.0,1
1336,1336,0.08583315089376942,0.1,1.0,1.0,345.0,843.0,1.0,1,1002.0,1
1337,1337,-0.579906710197502,-0.6,0.0,1.0,322.0,618.0,1.0,0,280.0,1
1338,1338,-0.41415746170049145,-0.4,0.0,1.0,265.0,913.0,1.0,0,212.0,1
1339,1339,-0.32426382858368186,-0.3,1.0,0.0,298.0,722.0,0.0,0,330.0,1
1340,1340,-0.5494824515926178,-0.5,0.0,1.0,476.0,725.0,1.0,0,259.0,1
1341,1341,0.537426069877181,0.5,1.0,1.0,466.0,751.0,1.0,1,363.0,1
1342,1342,-0.06365275635915368,-0.1,0.0,1.0,411.0,577.0,0.0,1,692.0,0
1343,1343,0.05118874028601794,0.1,0.0,0.0,378.0,712.0,0.0,1,690.0,1
1344,1344,0.09071802542377505,0.1,1.0,1.0,387.0,533.0,1.0,1,1190.0,1
1345,1345,-0.44002309760054925,-0.4,0.0,1.0,316.0,972.0,1.0,0,82.0,1
1346,1346,0.03665962346811724,0.0,0.0,0.0,287.0,716.0,1.0,0,847.0,0
1347,1347,0.6832125535545882,0.7,0.0,0.0,418.0,783.0,0.0,1,309.0,1
1348,1348,0.611219540694374,0.6,1.0,1.0,406.0,527.0,1.0,1,527.0,1
1349,1349,-0.6044971682439707,-0.6,0.0,1.0,484.0,742.0,1.0,0,294.0,1
1350,1350,0.7966593127224361,0.8,1.0,1.0,253.0,539.0,1.0,1,418.0,1
1351,1351,-0.4603268245787388,-0.5,1.0,0.0,359.0,868.0,0.0,0,493.0,1
1352,1352,-0.4748711148605362,-0.5,0.0,1.0,429.0,953.0,1.0,0,78.0,1
1353,1353,-0.8668595111690035,-0.9,0.0,1.0,442.0,928.0,1.0,0,150.0,1
1354,1354,-0.02828941427536047,-0.0,0.0,1.0,494.0,967.0,1.0,0,299.0,1
1355,1355,0.6277993046704823,0.6,0.0,0.0,384.0,608.0,0.0,1,398.0,1
1356,1356,0.7906744339698827,0.8,0.0,0.0,328.0,598.0,0.0,1,594.0,1
1357,1357,0.11269456990542615,0.1,0.0,0.0,320.0,906.0,0.0,1,14.0,1
1358,1358,0.6401614747463148,0.6,1.0,1.0,483.0,849.0,1.0,1,418.0,1
1359,1359,-0.5697805302830934,-0.6,0.0,1.0,302.0,674.0,1.0,0,334.0,1
1360,1360,0.7206860617539975,0.7,1.0,1.0,282.0,884.0,1.0,1,264.0,1
1361,1361,0.4321522575710589,0.4,0.0,0.0,358.0,841.0,0.0,1,251.0,1
1362,1362,-0.24398067675836743,-0.2,1.0,0.0,257.0,975.0,0.0,0,428.0,1
1363,1363,-0.8234749547389828,-0.8,1.0,0.0,382.0,597.0,0.0,0,411.0,1
1364,1364,0.5942507063941874,0.6,1.0,1.0,404.0,781.0,1.0,1,395.0,1
1365,1365,-0.2924840777539377,-0.3,0.0,1.0,255.0,529.0,1.0,0,546.0,1
1366,1366,-0.4496846250462129,-0.4,0.0,1.0,345.0,608.0,1.0,0,427.0,1
1367,1367,0.611852412431071,0.6,0.0,0.0,477.0,718.0,0.0,1,275.0,1
1368,1368,0.6304633819789424,0.6,1.0,1.0,344.0,778.0,1.0,1,388.0,1
1369,1369,-0.6826558288794276,-0.7,1.0,0.0,256.0,500.0,0.0,0,554.0,1
1370,1370,0.3327226887349458,0.3,0.0,0.0,357.0,974.0,0.0,1,-31.0,1
1371,1371,-0.5066276952547029,-0.5,1.0,0.0,368.0,967.0,0.0,0,425.0,1
1372,1372,0.29510090905347675,0.3,1.0,1.0,337.0,725.0,1.0,1,448.0,1
1373,1373,0.19077456582543195,0.2,1.0,1.0,383.0,897.0,1.0,1,550.0,1
1374,1374,-0.47835944783851064,-0.5,1.0,0.0,331.0,603.0,0.0,0,976.0,1
1375,1375,-0.024899059238552956,-0.0,0.0,1.0,498.0,567.0,0.0,1,525.0,0
1376,1376,-0.4771572038225313,-0.5,1.0,0.0,384.0,900.0,0.0,0,616.0,1
1377,1377,0.33356908468458835,0.3,0.0,0.0,451.0,630.0,0.0,1,449.0,1
1378,1378,0.6940558741559136,0.7,1.0,1.0,354.0,688.0,1.0,1,198.0,1
1379,1379,-0.4482690228340891,-0.4,0.0,1.0,449.0,513.0,1.0,0,638.0,1
1380,1380,0.6826338385513034,0.7,0.0,0.0,432.0,882.0,0.0,1,286.0,1
1381,1381,0.8013342598640528,0.8,1.0,1.0,465.0,618.0,1.0,1,397.0,1
1382,1382,-0.49442776168513464,-0.5,1.0,0.0,325.0,805.0,0.0,0,50.0,1
1383,1383,-0.5832931625797173,-0.6,1.0,0.0,286.0,837.0,0.0,0,187.0,1
1384,1384,0.13201775687725525,0.1,1.0,1.0,390.0,583.0,1.0,1,4027.0,1
1385,1385,0.11224378923859091,0.1,1.0,1.0,331.0,790.0,1.0,1,369.0,1
1386,1386,-0.5271158597724205,-0.5,0.0,1.0,291.0,828.0,1.0,0,451.0,1
1387,1387,-0.5207790529606428,-0.5,0.0,1.0,353.0,680.0,1.0,0,547.0,1
1388,1388,-0.060902784667822174,-0.1,0.0,1.0,426.0,505.0,1.0,0,979.0,1
1389,1389,0.07954172556397343,0.1,1.0,1.0,299.0,997.0,1.0,1,664.0,1
1390,1390,-0.667861131656623,-0.7,1.0,0.0,345.0,942.0,0.0,0,153.0,1
1391,1391,0.15244467152385155,0.2,0.0,0.0,489.0,831.0,0.0,1,1030.0,1
1392,1392,-0.5875233770375572,-0.6,0.0,1.0,266.0,510.0,1.0,0,444.0,1
1393,1393,-0.773552179596595,-0.8,1.0,0.0,349.0,970.0,0.0,0,141.0,1
1394,1394,-0.7192951970255889,-0.7,1.0,0.0,383.0,725.0,0.0,0,272.0,1
1395,1395,-0.8022470092204573,-0.8,1.0,0.0,306.0,643.0,0.0,0,381.0,1
1396,1396,0.5130481294770554,0.5,1.0,1.0,268.0,981.0,1.0,1,861.0,1
1397,1397,0.73591304369144,0.7,1.0,1.0,266.0,583.0,1.0,1,541.0,1
1398,1398,-0.8451464895219816,-0.8,1.0,0.0,428.0,794.0,0.0,0,298.0,1
1399,1399,0.3437826472480222,0.3,0.0,0.0,411.0,752.0,0.0,1,397.0,1
1400,1400,-0.744152543690207,-0.7,1.0,0.0,443.0,852.0,0.0,0,255.0,1
1401,1401,-0.16830415985267233,-0.2,1.0,0.0,441.0,541.0,0.0,0,1158.0,1
1402,1402,0.09242830386942924,0.1,1.0,1.0,374.0,626.0,1.0,1,170.0,1
1403,1403,-0.4340369561551678,-0.4,1.0,0.0,426.0,957.0,0.0,0,187.0,1
1404,1404,-0.2908251583935998,-0.3,1.0,0.0,401.0,731.0,0.0,0,818.0,1
1405,1405,-0.6665081236328293,-0.7,0.0,1.0,440.0,883.0,1.0,0,397.0,1
1406,1406,-0.4123489762045961,-0.4,0.0,1.0,360.0,985.0,1.0,0,115.0,1
1407,1407,0.6654723563595902,0.7,0.0,0.0,364.0,687.0,0.0,1,399.0,1
1408,1408,-0.08953632721897575,-0.1,0.0,1.0,429.0,961.0,1.0,0,490.0,1
1409,1409,-0.11927836634684075,-0.1,1.0,0.0,393.0,855.0,1.0,1,262.0,0
1410,1410,-0.874819722792231,-0.9,0.0,1.0,336.0,923.0,1.0,0,161.0,1
1411,1411,0.12631387626984625,0.1,1.0,1.0,262.0,651.0,1.0,1,817.0,1
1412,1412,-0.64077764396794,-0.6,1.0,0.0,442.0,887.0,0.0,0,251.0,1
1413,1413,0.13664105294960727,0.1,0.0,0.0,262.0,973.0,0.0,1,285.0,1
1414,1414,-0.4441696651355902,-0.4,0.0,1.0,310.0,568.0,1.0,0,372.0,1
1415,1415,0.08105144992249891,0.1,1.0,1.0,268.0,627.0,1.0,1,1005.0,1
1416,1416,0.7914656543886734,0.8,0.0,0.0,261.0,811.0,0.0,1,168.0,1
1417,1417,-0.2756866576141682,-0.3,1.0,0.0,301.0,538.0,0.0,0,4161.0,1
1418,1418,0.37639665017984003,0.4,0.0,0.0,340.0,760.0,0.0,1,330.0,1
1419,1419,-0.17886076598416278,-0.2,0.0,1.0,259.0,798.0,1.0,0,1333.0,1
1420,1420,0.3916198451946672,0.4,1.0,1.0,470.0,991.0,1.0,1,1019.0,1
1421,1421,-0.6063100870487395,-0.6,0.0,1.0,357.0,666.0,1.0,0,187.0,1
1422,1422,-0.593657684894227,-0.6,1.0,0.0,466.0,995.0,0.0,0,39.0,1
1423,1423,0.5463249842055232,0.5,1.0,1.0,330.0,597.0,1.0,1,533.0,1
1424,1424,0.4666132966384763,0.5,1.0,1.0,346.0,706.0,1.0,1,808.0,1
1425,1425,-0.25306450490393784,-0.3,0.0,1.0,374.0,567.0,1.0,0,789.0,1
1426,1426,-0.4335854969607142,-0.4,0.0,1.0,306.0,878.0,1.0,0,156.0,1
1427,1427,-0.6956595839890629,-0.7,1.0,0.0,278.0,508.0,0.0,0,584.0,1
1428,1428,0.5162842624696867,0.5,0.0,0.0,314.0,848.0,0.0,1,828.0,1
1429,1429,-0.013494748065355333,-0.0,0.0,1.0,280.0,650.0,1.0,0,2390.0,1
1430,1430,0.2004711406987144,0.2,1.0,1.0,334.0,866.0,0.0,0,590.0,0
1431,1431,-0.30743777264577443,-0.3,0.0,1.0,260.0,968.0,1.0,0,-48.0,1
1432,1432,-0.8718423278841554,-0.9,0.0,1.0,458.0,792.0,1.0,0,260.0,1
1433,1433,-0.29894656155119914,-0.3,1.0,0.0,478.0,712.0,0.0,0,630.0,1
1434,1434,-0.34791949905511355,-0.3,0.0,1.0,293.0,830.0,1.0,0,557.0,1
1435,1435,-0.08535966496335068,-0.1,0.0,1.0,489.0,706.0,0.0,1,745.0,0
1436,1436,-0.3542621474651074,-0.4,1.0,0.0,293.0,749.0,0.0,0,248.0,1
1437,1437,0.5782288759040389,0.6,1.0,1.0,255.0,704.0,1.0,1,531.0,1
1438,1438,0.3343576589939089,0.3,1.0,1.0,478.0,766.0,1.0,1,366.0,1
1439,1439,0.44460526743902495,0.4,1.0,1.0,457.0,923.0,1.0,1,230.0,1
1440,1440,0.06956542636651697,0.1,1.0,1.0,288.0,979.0,0.0,0,293.0,0
1441,1441,0.8180777692732825,0.8,1.0,1.0,368.0,781.0,1.0,1,271.0,1
1442,1442,0.5944837625539053,0.6,0.0,0.0,495.0,602.0,0.0,1,393.0,1
1443,1443,0.15430478306181505,0.2,0.0,0.0,320.0,610.0,0.0,1,390.0,1
1444,1444,-0.18686250342445343,-0.2,1.0,0.0,374.0,743.0,1.0,1,433.0,0
1445,1445,-0.3392712039036224,-0.3,0.0,1.0,333.0,697.0,1.0,0,1420.0,1
1446,1446,0.7279056121544335,0.7,0.0,0.0,273.0,692.0,0.0,1,335.0,1
1447,1447,-0.5642208149065995,-0.6,0.0,1.0,330.0,595.0,1.0,0,315.0,1
1448,1448,0.6426834224066958,0.6,1.0,1.0,443.0,584.0,1.0,1,473.0,1
1449,1449,-0.019894380527435196,-0.0,0.0,1.0,307.0,511.0,1.0,0,432.0,1
1450,1450,0.1656908782679608,0.2,0.0,0.0,487.0,879.0,0.0,1,3314.0,1
1451,1451,-0.6427844054874261,-0.6,0.0,1.0,441.0,717.0,1.0,0,482.0,1
1452,1452,-0.41025025053963265,-0.4,1.0,0.0,487.0,825.0,0.0,0,268.0,1
1453,1453,-0.38666402943892486,-0.4,1.0,0.0,443.0,822.0,0.0,0,365.0,1
1454,1454,-0.26570577245473026,-0.3,0.0,1.0,364.0,758.0,1.0,0,288.0,1
1455,1455,-0.6888338000351798,-0.7,1.0,0.0,404.0,846.0,0.0,0,230.0,1
1456,1456,-0.10830331711815999,-0.1,1.0,0.0,408.0,789.0,1.0,1,693.0,0
1457,1457,0.5540099724018687,0.6,0.0,0.0,443.0,838.0,0.0,1,179.0,1
1458,1458,0.08184053696083793,0.1,0.0,0.0,381.0,657.0,0.0,1,662.0,1
1459,1459,0.8405895049602382,0.8,0.0,0.0,475.0,578.0,0.0,1,337.0,1
1460,1460,0.5465154922254708,0.5,0.0,0.0,447.0,841.0,0.0,1,192.0,1
1461,1461,-0.18716705681567092,-0.2,0.0,1.0,464.0,691.0,1.0,0,825.0,1
1462,1462,0.17879668016925543,0.2,0.0,0.0,460.0,680.0,0.0,1,1760.0,1
1463,1463,-0.6747196790551355,-0.7,1.0,0.0,470.0,512.0,0.0,0,358.0,1
1464,1464,-0.31880976111467973,-0.3,0.0,1.0,307.0,938.0,1.0,0,245.0,1
1465,1465,0.25090134690365196,0.3,1.0,1.0,252.0,655.0,1.0,1,663.0,1
1466,1466,-0.2254996831590218,-0.2,1.0,0.0,292.0,774.0,0.0,0,884.0,1
1467,1467,-0.8026008845680398,-0.8,1.0,0.0,347.0,914.0,0.0,0,409.0,1
1468,1468,0.04358406683594851,0.0,0.0,0.0,270.0,821.0,0.0,1,1499.0,1
1469,1469,-0.8733390493382791,-0.9,0.0,1.0,348.0,750.0,1.0,0,232.0,1
1470,1470,-0.15891743877419828,-0.2,1.0,0.0,277.0,921.0,1.0,1,142.0,0
1471,1471,-0.00246211636078697,-0.0,0.0,1.0,414.0,850.0,1.0,0,546.0,1
1472,1472,0.8000929792597645,0.8,0.0,0.0,280.0,620.0,0.0,1,440.0,1
1473,1473,0.6483417368766916,0.6,1.0,1.0,386.0,991.0,1.0,1,63.0,1
1474,1474,-0.42028166211096424,-0.4,1.0,0.0,423.0,867.0,0.0,0,260.0,1
1475,1475,0.039467249427019624,0.0,1.0,1.0,307.0,573.0,1.0,1,1800.0,1
1476,1476,0.14896042077497962,0.1,0.0,0.0,453.0,777.0,0.0,1,220.0,1
1477,1477,0.11500794794729952,0.1,0.0,0.0,403.0,676.0,0.0,1,1011.0,1
1478,1478,-0.26817833342853903,-0.3,0.0,1.0,372.0,513.0,1.0,0,975.0,1
1479,1479,0.2954527054764454,0.3,0.0,0.0,344.0,678.0,0.0,1,428.0,1
1480,1480,-0.5490467476838374,-0.5,0.0,1.0,392.0,943.0,1.0,0,175.0,1
1481,1481,-0.7370967128978235,-0.7,0.0,1.0,294.0,979.0,1.0,0,97.0,1
1482,1482,-0.6876670279926077,-0.7,1.0,0.0,339.0,743.0,0.0,0,698.0,1
1483,1483,-0.7579995348214561,-0.8,1.0,0.0,433.0,848.0,0.0,0,19.0,1
1484,1484,0.2321081255275862,0.2,0.0,0.0,489.0,672.0,0.0,1,1589.0,1
1485,1485,-0.12288492609329216,-0.1,1.0,0.0,344.0,914.0,0.0,0,3742.0,1
1486,1486,-0.8901068759704559,-0.9,0.0,1.0,304.0,810.0,1.0,0,236.0,1
1487,1487,0.2347727781857668,0.2,0.0,0.0,313.0,947.0,0.0,1,270.0,1
1488,1488,0.6605368214566724,0.7,1.0,1.0,298.0,562.0,1.0,1,600.0,1
1489,1489,-0.5569815858884022,-0.6,1.0,0.0,401.0,914.0,0.0,0,275.0,1
1490,1490,0.2433801592632524,0.2,1.0,1.0,315.0,921.0,1.0,1,1424.0,1
1491,1491,-0.8428116962985389,-0.8,0.0,1.0,485.0,524.0,1.0,0,501.0,1
