,trial,coherence,coherence_bin,green_side,correct_side,target_onset,checker_onset,decision,green_decision,decision_time,correct_decision
0,0,-0.44712484718157147,-0.4,1.0,0.0,299.0,615.0,0.0,0,826.0,1
1,1,-0.48578968947071416,-0.5,1.0,0.0,457.0,689.0,0.0,0,374.0,1
2,2,-0.46169576629116943,-0.5,0.0,1.0,492.0,850.0,1.0,0,198.0,1
3,3,-0.5762881564141157,-0.6,1.0,0.0,357.0,954.0,1.0,1,39.0,0
4,4,-0.026575896730449133,-0.0,0.0,1.0,345.0,682.0,1.0,0,823.0,1
5,5,-0.6865748993997348,-0.7,0.0,1.0,460.0,591.0,1.0,0,409.0,1
6,6,0.666669877265594,0.7,0.0,0.0,267.0,863.0,0.0,1,360.0,1
7,7,0.15827055579040505,0.2,0.0,0.0,368.0,668.0,0.0,1,154.0,1
8,8,-0.053013534834267406,-0.1,1.0,0.0,336.0,966.0,1.0,1,1658.0,0
9,9,-0.5056146922968587,-0.5,1.0,0.0,302.0,539.0,0.0,0,509.0,1
10,10,0.2443055653722751,0.2,1.0,1.0,490.0,563.0,1.0,1,617.0,1
11,11,-0.268036156886424,-0.3,1.0,0.0,264.0,775.0,0.0,0,391.0,1
12,12,0.11749427259644951,0.1,1.0,1.0,420.0,581.0,1.0,1,1569.0,1
13,13,-0.07828365980573349,-0.1,0.0,1.0,321.0,982.0,1.0,0,187.0,1
14,14,-0.1668010501540259,-0.2,1.0,0.0,454.0,899.0,0.0,0,1227.0,1
15,15,0.37127486202365023,0.4,1.0,1.0,332.0,655.0,1.0,1,623.0,1
16,16,-0.6878513557031061,-0.7,0.0,1.0,345.0,794.0,1.0,0,611.0,1
17,17,-0.4965949212070807,-0.5,0.0,1.0,390.0,580.0,1.0,0,570.0,1
18,18,-0.6621171692821181,-0.7,1.0,0.0,346.0,520.0,0.0,0,504.0,1
19,19,-0.5524650705602914,-0.6,0.0,1.0,400.0,804.0,1.0,0,156.0,1
20,20,-0.7898896163759358,-0.8,0.0,1.0,477.0,710.0,1.0,0,483.0,1
21,21,-0.35819971389233674,-0.4,1.0,0.0,360.0,827.0,0.0,0,633.0,1
22,22,0.729245003547219,0.7,0.0,0.0,419.0,851.0,0.0,1,150.0,1
23,23,0.529184429656968,0.5,0.0,0.0,382.0,655.0,0.0,1,283.0,1
24,24,-0.07686707539586812,-0.1,1.0,0.0,406.0,721.0,0.0,0,473.0,1
25,25,0.516359263141782,0.5,0.0,0.0,261.0,832.0,0.0,1,317.0,1
26,26,-0.8668446154051177,-0.9,0.0,1.0,255.0,563.0,1.0,0,342.0,1
27,27,0.359541760151716,0.4,1.0,1.0,399.0,670.0,1.0,1,231.0,1
28,28,-0.013319105617104365,-0.0,0.0,1.0,266.0,914.0,1.0,0,110.0,1
29,29,0.4316484164184752,0.4,0.0,0.0,441.0,861.0,0.0,1,498.0,1
30,30,-0.5074963667029322,-0.5,0.0,1.0,319.0,886.0,1.0,0,315.0,1
31,31,0.3867760796799885,0.4,1.0,1.0,369.0,582.0,1.0,1,359.0,1
32,32,-0.5165793072866592,-0.5,0.0,1.0,283.0,681.0,1.0,0,596.0,1
33,33,-0.5235734623666823,-0.5,1.0,0.0,326.0,631.0,0.0,0,523.0,1
34,34,-0.34769697841345826,-0.3,1.0,0.0,461.0,952.0,0.0,0,507.0,1
35,35,-0.2500280845994901,-0.3,1.0,0.0,284.0,778.0,0.0,0,408.0,1
36,36,0.5351027612983609,0.5,1.0,1.0,393.0,751.0,1.0,1,506.0,1
37,37,-0.2546581532467598,-0.3,0.0,1.0,486.0,883.0,1.0,0,261.0,1
38,38,0.05160954393960138,0.1,0.0,0.0,329.0,562.0,1.0,0,719.0,0
39,39,0.041275278334380716,0.0,1.0,1.0,420.0,844.0,1.0,1,746.0,1
40,40,-0.1579027941398442,-0.2,1.0,0.0,458.0,637.0,1.0,1,865.0,0
41,41,0.3472901779866825,0.3,1.0,1.0,477.0,604.0,1.0,1,819.0,1
42,42,0.7093042371489126,0.7,0.0,0.0,477.0,954.0,0.0,1,279.0,1
43,43,-0.20339301056009618,-0.2,1.0,0.0,311.0,523.0,1.0,1,1176.0,0
44,44,0.49573444152528856,0.5,1.0,1.0,316.0,757.0,1.0,1,87.0,1
45,45,0.8647016788757246,0.9,1.0,1.0,318.0,867.0,1.0,1,275.0,1
46,46,0.26791555417964086,0.3,0.0,0.0,429.0,681.0,0.0,1,490.0,1
47,47,-0.32879414108429317,-0.3,1.0,0.0,450.0,763.0,0.0,0,567.0,1
48,48,-0.007632458576228629,-0.0,1.0,0.0,319.0,521.0,1.0,1,670.0,0
49,49,-0.6252778253066602,-0.6,1.0,0.0,297.0,682.0,0.0,0,361.0,1
50,50,-0.377144536793691,-0.4,0.0,1.0,310.0,523.0,1.0,0,457.0,1
51,51,-0.6829528657816779,-0.7,0.0,1.0,256.0,847.0,1.0,0,287.0,1
52,52,-0.2549536533698318,-0.3,0.0,1.0,427.0,561.0,1.0,0,642.0,1
53,53,-0.565685347733077,-0.6,1.0,0.0,406.0,739.0,0.0,0,355.0,1
54,54,-0.36956563390742136,-0.4,0.0,1.0,458.0,926.0,1.0,0,656.0,1
55,55,-0.3141417657368236,-0.3,0.0,1.0,349.0,818.0,1.0,0,593.0,1
56,56,-0.6505840513194882,-0.7,0.0,1.0,498.0,644.0,1.0,0,258.0,1
57,57,0.6206663146331398,0.6,1.0,1.0,264.0,668.0,1.0,1,368.0,1
58,58,-0.6207808088811915,-0.6,1.0,0.0,470.0,839.0,0.0,0,471.0,1
59,59,0.4342707617846119,0.4,1.0,1.0,430.0,909.0,1.0,1,241.0,1
60,60,0.7885806456004755,0.8,0.0,0.0,287.0,824.0,0.0,1,209.0,1
61,61,-0.8108629259020812,-0.8,0.0,1.0,439.0,812.0,1.0,0,249.0,1
62,62,0.694002096512322,0.7,1.0,1.0,467.0,789.0,1.0,1,464.0,1
63,63,-0.18915543823099112,-0.2,1.0,0.0,346.0,953.0,0.0,0,2011.0,1
64,64,0.5822238352379715,0.6,0.0,0.0,353.0,761.0,0.0,1,296.0,1
65,65,-0.264102652687786,-0.3,0.0,1.0,313.0,979.0,1.0,0,658.0,1
66,66,0.7701935616129544,0.8,1.0,1.0,341.0,883.0,1.0,1,186.0,1
67,67,-0.7512908169255605,-0.8,0.0,1.0,482.0,672.0,1.0,0,236.0,1
68,68,0.8496975724549433,0.8,1.0,1.0,344.0,635.0,1.0,1,281.0,1
69,69,-0.10603617926715958,-0.1,0.0,1.0,265.0,948.0,0.0,1,-63.0,0
70,70,-0.29238178588538777,-0.3,1.0,0.0,280.0,857.0,0.0,0,553.0,1
71,71,0.5364702022943993,0.5,0.0,0.0,291.0,983.0,0.0,1,96.0,1
72,72,0.7229738168549161,0.7,1.0,1.0,405.0,633.0,1.0,1,402.0,1
73,73,0.0555966253934701,0.1,0.0,0.0,339.0,543.0,1.0,0,1228.0,0
74,74,-0.877433308142139,-0.9,0.0,1.0,254.0,552.0,1.0,0,534.0,1
75,75,0.8322802298962594,0.8,1.0,1.0,259.0,738.0,1.0,1,293.0,1
76,76,-0.8228171916546927,-0.8,0.0,1.0,485.0,666.0,1.0,0,299.0,1
77,77,-0.32505017815228865,-0.3,0.0,1.0,264.0,793.0,1.0,0,323.0,1
78,78,-0.42441116472013757,-0.4,0.0,1.0,376.0,989.0,1.0,0,85.0,1
79,79,0.8130049022010121,0.8,1.0,1.0,346.0,962.0,1.0,1,72.0,1
80,80,0.47882896113339857,0.5,1.0,1.0,492.0,940.0,1.0,1,238.0,1
81,81,0.49320657356329833,0.5,0.0,0.0,438.0,900.0,0.0,1,222.0,1
82,82,-0.3732683294538437,-0.4,0.0,1.0,434.0,851.0,1.0,0,285.0,1
83,83,-0.6706985636105387,-0.7,1.0,0.0,334.0,958.0,1.0,1,-92.0,0
84,84,0.4456234070872932,0.4,1.0,1.0,427.0,932.0,1.0,1,131.0,1
85,85,0.6128119158818696,0.6,0.0,0.0,371.0,578.0,0.0,1,661.0,1
86,86,-0.75431010491132,-0.8,0.0,1.0,461.0,616.0,1.0,0,353.0,1
87,87,0.5492492703528548,0.5,1.0,1.0,254.0,552.0,1.0,1,434.0,1
88,88,-0.13924724634232732,-0.1,1.0,0.0,450.0,661.0,0.0,0,469.0,1
89,89,0.6471504054584253,0.6,1.0,1.0,458.0,851.0,1.0,1,131.0,1
90,90,-0.8452813432999295,-0.8,0.0,1.0,426.0,684.0,1.0,0,370.0,1
91,91,-0.4987149381425115,-0.5,1.0,0.0,413.0,954.0,0.0,0,593.0,1
92,92,0.03637086722675631,0.0,0.0,0.0,363.0,648.0,0.0,1,679.0,1
93,93,0.0838622850218691,0.1,1.0,1.0,468.0,536.0,1.0,1,656.0,1
94,94,-0.7882861299412097,-0.8,1.0,0.0,382.0,622.0,0.0,0,456.0,1
95,95,0.2727368757685308,0.3,1.0,1.0,446.0,536.0,1.0,1,948.0,1
96,96,-0.2714976581467733,-0.3,0.0,1.0,415.0,910.0,1.0,0,245.0,1
97,97,-0.7553751960721645,-0.8,0.0,1.0,406.0,558.0,1.0,0,366.0,1
98,98,0.11506232616410317,0.1,1.0,1.0,417.0,874.0,1.0,1,149.0,1
99,99,-0.5092774316199797,-0.5,1.0,0.0,350.0,973.0,0.0,0,57.0,1
100,100,-0.4507125900646572,-0.5,1.0,0.0,450.0,510.0,0.0,0,810.0,1
101,101,0.054396130381964114,0.1,1.0,1.0,285.0,608.0,1.0,1,757.0,1
102,102,0.8403814101380588,0.8,1.0,1.0,452.0,610.0,1.0,1,378.0,1
103,103,-0.544625520059552,-0.5,0.0,1.0,412.0,521.0,1.0,0,977.0,1
104,104,0.615590988102971,0.6,1.0,1.0,463.0,902.0,1.0,1,225.0,1
105,105,-0.627223812219486,-0.6,1.0,0.0,489.0,957.0,0.0,0,404.0,1
106,106,-0.22093524495743333,-0.2,0.0,1.0,291.0,676.0,1.0,0,303.0,1
107,107,-0.27704347842947463,-0.3,1.0,0.0,398.0,785.0,0.0,0,267.0,1
108,108,0.5041801865238861,0.5,0.0,0.0,446.0,775.0,0.0,1,319.0,1
109,109,0.08921585465429449,0.1,1.0,1.0,268.0,589.0,1.0,1,573.0,1
110,110,0.5240491370703316,0.5,1.0,1.0,477.0,986.0,1.0,1,427.0,1
111,111,0.004376217277155314,0.0,1.0,1.0,397.0,962.0,1.0,1,311.0,1
112,112,0.5418610870278987,0.5,1.0,1.0,252.0,504.0,1.0,1,754.0,1
113,113,-0.7335607946006615,-0.7,1.0,0.0,253.0,971.0,1.0,1,-24.0,0
114,114,0.41610608695710527,0.4,0.0,0.0,308.0,614.0,0.0,1,638.0,1
115,115,0.5033509058131201,0.5,1.0,1.0,375.0,525.0,1.0,1,400.0,1
116,116,0.7942835736670814,0.8,1.0,1.0,397.0,843.0,1.0,1,80.0,1
117,117,-0.16474634481190098,-0.2,0.0,1.0,367.0,539.0,1.0,0,614.0,1
118,118,0.2666602364517837,0.3,0.0,0.0,405.0,900.0,0.0,1,55.0,1
119,119,-0.3407917492238971,-0.3,1.0,0.0,354.0,713.0,0.0,0,1783.0,1
120,120,-0.29484224621846833,-0.3,1.0,0.0,341.0,938.0,0.0,0,461.0,1
121,121,0.0069851774913783915,0.0,1.0,1.0,377.0,869.0,1.0,1,364.0,1
122,122,0.021940825463214852,0.0,1.0,1.0,452.0,747.0,1.0,1,221.0,1
123,123,0.33308296619950284,0.3,1.0,1.0,274.0,986.0,1.0,1,200.0,1
124,124,0.3011915787787044,0.3,1.0,1.0,415.0,786.0,1.0,1,329.0,1
125,125,-0.272970488692717,-0.3,0.0,1.0,467.0,839.0,1.0,0,114.0,1
126,126,-0.3207880667059996,-0.3,0.0,1.0,276.0,969.0,1.0,0,225.0,1
127,127,-0.5378408304563832,-0.5,0.0,1.0,319.0,740.0,1.0,0,161.0,1
128,128,-0.7660665313573036,-0.8,0.0,1.0,492.0,729.0,1.0,0,329.0,1
129,129,-0.5621036845785972,-0.6,1.0,0.0,488.0,691.0,0.0,0,681.0,1
130,130,-0.7443902032984353,-0.7,1.0,0.0,353.0,910.0,0.0,0,97.0,1
131,131,-0.52264559885814,-0.5,0.0,1.0,325.0,576.0,1.0,0,359.0,1
132,132,-0.3142276267817299,-0.3,1.0,0.0,317.0,983.0,1.0,1,610.0,0
133,133,0.3783417818564313,0.4,1.0,1.0,288.0,949.0,1.0,1,173.0,1
134,134,-0.5686266023850282,-0.6,0.0,1.0,333.0,975.0,1.0,0,12.0,1
135,135,-0.7826295099818634,-0.8,1.0,0.0,412.0,594.0,0.0,0,594.0,1
136,136,-0.4390371500079278,-0.4,1.0,0.0,314.0,999.0,0.0,0,687.0,1
137,137,-0.0075034317627743485,-0.0,1.0,0.0,486.0,715.0,1.0,1,239.0,0
138,138,0.39116390020333014,0.4,0.0,0.0,447.0,887.0,0.0,1,686.0,1
139,139,-0.24640381116159105,-0.2,1.0,0.0,270.0,718.0,0.0,0,1132.0,1
140,140,0.13711011841907628,0.1,1.0,1.0,282.0,510.0,1.0,1,618.0,1
141,141,0.7832949617986716,0.8,1.0,1.0,336.0,752.0,1.0,1,182.0,1
142,142,0.19989688429220742,0.2,0.0,0.0,320.0,964.0,1.0,0,296.0,0
143,143,-0.36158403637651615,-0.4,1.0,0.0,275.0,645.0,0.0,0,1200.0,1
144,144,-0.19382252197567806,-0.2,0.0,1.0,265.0,673.0,1.0,0,552.0,1
145,145,0.2543212765904196,0.3,0.0,0.0,384.0,687.0,0.0,1,1059.0,1
146,146,0.8821522832263754,0.9,0.0,0.0,296.0,926.0,0.0,1,58.0,1
147,147,0.8670076995532551,0.9,1.0,1.0,379.0,839.0,1.0,1,142.0,1
148,148,-0.5805702779312789,-0.6,0.0,1.0,434.0,626.0,1.0,0,290.0,1
149,149,0.3328251358931219,0.3,0.0,0.0,314.0,862.0,0.0,1,654.0,1
150,150,-0.5359634030864984,-0.5,0.0,1.0,477.0,796.0,1.0,0,177.0,1
151,151,0.43550132080456716,0.4,1.0,1.0,357.0,835.0,1.0,1,558.0,1
152,152,0.09273608537740752,0.1,0.0,0.0,284.0,695.0,0.0,1,871.0,1
153,153,0.31740314414152715,0.3,1.0,1.0,295.0,694.0,1.0,1,531.0,1
154,154,0.1054281171741952,0.1,1.0,1.0,294.0,500.0,1.0,1,736.0,1
155,155,-0.846744909606045,-0.8,0.0,1.0,409.0,905.0,1.0,0,146.0,1
156,156,-0.08336595811731162,-0.1,0.0,1.0,395.0,989.0,1.0,0,36.0,1
157,157,-0.319900740929,-0.3,1.0,0.0,399.0,788.0,1.0,1,613.0,0
158,158,-0.35102511517050516,-0.4,1.0,0.0,351.0,664.0,0.0,0,665.0,1
159,159,0.01471552437889756,0.0,1.0,1.0,274.0,681.0,1.0,1,245.0,1
160,160,-0.18556857680376382,-0.2,1.0,0.0,268.0,788.0,1.0,1,294.0,0
161,161,0.1415901643574885,0.1,1.0,1.0,398.0,903.0,1.0,1,169.0,1
162,162,0.7805535477991593,0.8,1.0,1.0,487.0,922.0,1.0,1,211.0,1
163,163,0.4248616056710278,0.4,0.0,0.0,420.0,542.0,0.0,1,728.0,1
164,164,-0.7961917275492478,-0.8,1.0,0.0,437.0,512.0,0.0,0,351.0,1
165,165,-0.4030213740076409,-0.4,1.0,0.0,316.0,544.0,0.0,0,450.0,1
166,166,0.4662443757955207,0.5,1.0,1.0,469.0,693.0,1.0,1,228.0,1
167,167,0.4485879286194544,0.4,1.0,1.0,433.0,789.0,1.0,1,108.0,1
168,168,-0.23179465138153588,-0.2,1.0,0.0,441.0,780.0,0.0,0,679.0,1
169,169,-0.09132702903943224,-0.1,1.0,0.0,436.0,936.0,1.0,1,288.0,0
170,170,-0.3889150637968657,-0.4,0.0,1.0,333.0,880.0,1.0,0,177.0,1
171,171,-0.7063285979611812,-0.7,0.0,1.0,423.0,972.0,1.0,0,305.0,1
172,172,0.8620650234430157,0.9,1.0,1.0,257.0,980.0,1.0,1,63.0,1
173,173,0.614184087896413,0.6,1.0,1.0,276.0,935.0,1.0,1,179.0,1
174,174,0.10970783704009068,0.1,1.0,1.0,275.0,601.0,1.0,1,484.0,1
175,175,-0.3377183106620729,-0.3,1.0,0.0,406.0,739.0,0.0,0,395.0,1
176,176,0.8621484893033772,0.9,1.0,1.0,393.0,876.0,1.0,1,121.0,1
177,177,-0.7698502263554514,-0.8,0.0,1.0,377.0,927.0,1.0,0,246.0,1
178,178,-0.7135708857893758,-0.7,1.0,0.0,369.0,906.0,0.0,0,155.0,1
179,179,-0.7511009711860194,-0.8,1.0,0.0,447.0,627.0,0.0,0,236.0,1
180,180,0.24614238734579097,0.2,1.0,1.0,443.0,801.0,1.0,1,366.0,1
181,181,-0.3321731471710151,-0.3,0.0,1.0,454.0,618.0,1.0,0,228.0,1
182,182,0.5972103526504847,0.6,1.0,1.0,359.0,793.0,1.0,1,348.0,1
183,183,0.4294351533163664,0.4,0.0,0.0,309.0,933.0,1.0,0,328.0,0
184,184,0.8014727654696502,0.8,1.0,1.0,398.0,871.0,1.0,1,101.0,1
185,185,0.18917406601381204,0.2,1.0,1.0,262.0,520.0,1.0,1,938.0,1
186,186,-0.5695123513513114,-0.6,0.0,1.0,386.0,881.0,1.0,0,93.0,1
187,187,-0.492769324672647,-0.5,0.0,1.0,268.0,627.0,1.0,0,215.0,1
188,188,-0.33716562241680625,-0.3,1.0,0.0,463.0,551.0,0.0,0,1186.0,1
189,189,-0.5858988832024488,-0.6,1.0,0.0,280.0,791.0,0.0,0,539.0,1
190,190,-0.6401371685284307,-0.6,0.0,1.0,497.0,973.0,1.0,0,-70.0,1
191,191,0.7664011549323827,0.8,0.0,0.0,399.0,936.0,0.0,1,395.0,1
192,192,-0.440126687893796,-0.4,1.0,0.0,324.0,824.0,0.0,0,602.0,1
193,193,0.12835569932208613,0.1,1.0,1.0,463.0,863.0,1.0,1,264.0,1
194,194,0.3082757063360241,0.3,1.0,1.0,323.0,910.0,1.0,1,627.0,1
195,195,-0.8758025026499222,-0.9,1.0,0.0,292.0,561.0,0.0,0,327.0,1
196,196,0.7940915221957802,0.8,0.0,0.0,422.0,569.0,0.0,1,429.0,1
197,197,-0.4542082528411924,-0.5,1.0,0.0,304.0,895.0,0.0,0,641.0,1
198,198,0.8010978556862386,0.8,1.0,1.0,384.0,716.0,1.0,1,250.0,1
199,199,0.7120925568626969,0.7,0.0,0.0,436.0,823.0,0.0,1,301.0,1
200,200,-0.5044476641468414,-0.5,0.0,1.0,352.0,602.0,1.0,0,546.0,1
201,201,-0.5295596662052772,-0.5,0.0,1.0,293.0,650.0,1.0,0,417.0,1
202,202,-0.337570877339324,-0.3,1.0,0.0,370.0,697.0,0.0,0,853.0,1
203,203,-0.1849156752605723,-0.2,0.0,1.0,382.0,822.0,1.0,0,1046.0,1
204,204,-0.21848263302055104,-0.2,1.0,0.0,498.0,987.0,0.0,0,615.0,1
205,205,-0.35647187563400773,-0.4,1.0,0.0,469.0,982.0,0.0,0,69.0,1
206,206,0.5219766080597134,0.5,0.0,0.0,334.0,736.0,0.0,1,440.0,1
207,207,0.5692489005078222,0.6,1.0,1.0,449.0,913.0,1.0,1,258.0,1
208,208,-0.4228038100888573,-0.4,1.0,0.0,464.0,806.0,0.0,0,240.0,1
209,209,-0.815325302932637,-0.8,0.0,1.0,273.0,904.0,1.0,0,113.0,1
210,210,0.7541785943573812,0.8,0.0,0.0,422.0,818.0,0.0,1,230.0,1
211,211,0.8642773607513058,0.9,0.0,0.0,473.0,733.0,0.0,1,374.0,1
212,212,0.8034080364546289,0.8,0.0,0.0,370.0,972.0,0.0,1,328.0,1
213,213,0.6830421926261833,0.7,1.0,1.0,379.0,897.0,1.0,1,154.0,1
214,214,-0.25785204811888407,-0.3,1.0,0.0,344.0,773.0,1.0,1,1423.0,0
215,215,0.47819808148273213,0.5,0.0,0.0,405.0,556.0,0.0,1,489.0,1
216,216,-0.1566096008104484,-0.2,0.0,1.0,482.0,815.0,1.0,0,583.0,1
217,217,0.5377478437584323,0.5,1.0,1.0,414.0,981.0,1.0,1,195.0,1
218,218,-0.4230409323486965,-0.4,1.0,0.0,413.0,835.0,0.0,0,1342.0,1
219,219,0.21309707014695156,0.2,0.0,0.0,422.0,932.0,1.0,0,316.0,0
220,220,0.8798449837565946,0.9,0.0,0.0,430.0,865.0,0.0,1,455.0,1
221,221,-0.8365534880764744,-0.8,0.0,1.0,305.0,938.0,1.0,0,97.0,1
222,222,0.23464795099159008,0.2,1.0,1.0,436.0,938.0,1.0,1,446.0,1
223,223,0.35620219360877126,0.4,0.0,0.0,404.0,869.0,0.0,1,687.0,1
224,224,-0.8453776219148174,-0.8,0.0,1.0,317.0,878.0,1.0,0,55.0,1
225,225,-0.1367284272809972,-0.1,0.0,1.0,384.0,737.0,1.0,0,359.0,1
226,226,-0.1353595684568777,-0.1,0.0,1.0,336.0,857.0,1.0,0,237.0,1
227,227,0.22395048425720876,0.2,1.0,1.0,359.0,816.0,1.0,1,605.0,1
228,228,-0.6264889242377275,-0.6,0.0,1.0,431.0,634.0,1.0,0,185.0,1
229,229,0.643509818432556,0.6,0.0,0.0,417.0,716.0,0.0,1,197.0,1
230,230,-0.2238561160335395,-0.2,1.0,0.0,499.0,503.0,0.0,0,708.0,1
231,231,0.6829889934190648,0.7,1.0,1.0,262.0,831.0,1.0,1,147.0,1
232,232,-0.40640139802754766,-0.4,1.0,0.0,311.0,520.0,0.0,0,1359.0,1
233,233,-0.2741846114769937,-0.3,1.0,0.0,254.0,839.0,0.0,0,877.0,1
234,234,-0.7059073683469496,-0.7,1.0,0.0,357.0,541.0,0.0,0,352.0,1
235,235,0.46570132689061017,0.5,0.0,0.0,309.0,643.0,0.0,1,358.0,1
236,236,0.48929289212200844,0.5,1.0,1.0,421.0,921.0,1.0,1,148.0,1
237,237,-0.3645940554948809,-0.4,0.0,1.0,422.0,625.0,1.0,0,413.0,1
238,238,0.2270659363707629,0.2,1.0,1.0,325.0,957.0,1.0,1,-112.0,1
239,239,0.05552189614108172,0.1,1.0,1.0,405.0,536.0,1.0,1,1079.0,1
240,240,-0.14931027798511243,-0.1,0.0,1.0,420.0,660.0,1.0,0,360.0,1
241,241,0.24300856309858065,0.2,0.0,0.0,491.0,579.0,0.0,1,1120.0,1
242,242,-0.7452193193505826,-0.7,1.0,0.0,304.0,570.0,0.0,0,506.0,1
243,243,-0.6080617296362276,-0.6,0.0,1.0,277.0,772.0,1.0,0,361.0,1
244,244,-0.5112749525121207,-0.5,0.0,1.0,399.0,589.0,1.0,0,422.0,1
245,245,-0.3856428407944673,-0.4,1.0,0.0,293.0,554.0,0.0,0,473.0,1
246,246,0.7495372892223197,0.7,0.0,0.0,494.0,686.0,0.0,1,280.0,1
247,247,0.016886251128708563,0.0,1.0,1.0,414.0,655.0,1.0,1,521.0,1
248,248,-0.07299699047969321,-0.1,0.0,1.0,324.0,857.0,1.0,0,829.0,1
249,249,-0.5417662350266015,-0.5,0.0,1.0,386.0,945.0,1.0,0,269.0,1
250,250,0.7704359161210351,0.8,1.0,1.0,441.0,505.0,1.0,1,424.0,1
251,251,-0.6066962000319048,-0.6,0.0,1.0,332.0,760.0,1.0,0,428.0,1
252,252,0.28849474267171293,0.3,1.0,1.0,463.0,822.0,1.0,1,465.0,1
253,253,0.8709745904514229,0.9,0.0,0.0,341.0,668.0,0.0,1,231.0,1
254,254,-0.39486252747743744,-0.4,1.0,0.0,348.0,578.0,0.0,0,624.0,1
255,255,0.01574159387174101,0.0,1.0,1.0,493.0,998.0,0.0,0,389.0,0
256,256,0.06912535498658356,0.1,1.0,1.0,348.0,607.0,1.0,1,335.0,1
257,257,-0.3293381533980215,-0.3,0.0,1.0,460.0,782.0,1.0,0,88.0,1
258,258,0.22668729350184813,0.2,1.0,1.0,267.0,859.0,1.0,1,514.0,1
259,259,-0.43577769111851455,-0.4,0.0,1.0,475.0,799.0,1.0,0,416.0,1
260,260,0.4686620753100551,0.5,0.0,0.0,458.0,719.0,0.0,1,493.0,1
261,261,0.10918065629502294,0.1,1.0,1.0,446.0,920.0,1.0,1,324.0,1
262,262,-0.6494692868470848,-0.6,0.0,1.0,479.0,544.0,1.0,0,337.0,1
263,263,0.6704843030062034,0.7,1.0,1.0,355.0,553.0,1.0,1,292.0,1
264,264,-0.2467905386481659,-0.2,1.0,0.0,297.0,682.0,0.0,0,1931.0,1
265,265,0.19226327544449007,0.2,0.0,0.0,368.0,789.0,0.0,1,763.0,1
266,266,0.45907340053803314,0.5,0.0,0.0,273.0,718.0,0.0,1,339.0,1
267,267,0.13037039266498496,0.1,1.0,1.0,319.0,832.0,1.0,1,629.0,1
268,268,-0.1922406579015299,-0.2,0.0,1.0,287.0,634.0,1.0,0,729.0,1
269,269,-0.8521115403847823,-0.9,1.0,0.0,452.0,826.0,0.0,0,292.0,1
270,270,0.0501323352273404,0.1,0.0,0.0,427.0,612.0,1.0,0,1751.0,0
271,271,0.8216299369059074,0.8,1.0,1.0,285.0,904.0,1.0,1,11.0,1
272,272,-0.5858808761464867,-0.6,0.0,1.0,458.0,846.0,1.0,0,96.0,1
273,273,-0.4995368889648855,-0.5,1.0,0.0,475.0,580.0,0.0,0,525.0,1
274,274,0.7391513023813573,0.7,0.0,0.0,492.0,752.0,0.0,1,606.0,1
275,275,0.49524494044897305,0.5,0.0,0.0,378.0,610.0,0.0,1,502.0,1
276,276,-0.7618128637960503,-0.8,0.0,1.0,250.0,682.0,1.0,0,268.0,1
277,277,0.6242987988833909,0.6,0.0,0.0,363.0,544.0,0.0,1,403.0,1
278,278,0.6082797299854498,0.6,1.0,1.0,359.0,712.0,1.0,1,299.0,1
279,279,-0.7668400218238862,-0.8,1.0,0.0,396.0,770.0,0.0,0,464.0,1
280,280,0.6206676135172541,0.6,0.0,0.0,321.0,969.0,0.0,1,520.0,1
281,281,0.6041460344143784,0.6,1.0,1.0,387.0,943.0,1.0,1,170.0,1
282,282,-0.800559016124484,-0.8,0.0,1.0,420.0,777.0,1.0,0,143.0,1
283,283,-0.1268543709406319,-0.1,0.0,1.0,313.0,658.0,1.0,0,739.0,1
284,284,-0.28161691455605986,-0.3,1.0,0.0,430.0,958.0,0.0,0,1492.0,1
285,285,0.28951820027658004,0.3,1.0,1.0,329.0,523.0,1.0,1,798.0,1
286,286,-0.4947286693807479,-0.5,1.0,0.0,408.0,714.0,0.0,0,148.0,1
287,287,0.49708069991539483,0.5,1.0,1.0,257.0,697.0,1.0,1,276.0,1
288,288,0.01457814873005181,0.0,1.0,1.0,297.0,541.0,1.0,1,1212.0,1
289,289,0.6364145503225894,0.6,0.0,0.0,316.0,528.0,0.0,1,456.0,1
290,290,0.6691984508783527,0.7,1.0,1.0,404.0,663.0,1.0,1,363.0,1
291,291,0.01871083661322759,0.0,0.0,0.0,271.0,832.0,1.0,0,187.0,0
292,292,-0.8304180414222007,-0.8,0.0,1.0,409.0,527.0,1.0,0,564.0,1
293,293,-0.6305068572003436,-0.6,1.0,0.0,333.0,870.0,0.0,0,487.0,1
294,294,0.6800283502202938,0.7,0.0,0.0,330.0,598.0,0.0,1,432.0,1
295,295,0.23407520985875807,0.2,1.0,1.0,489.0,587.0,1.0,1,994.0,1
296,296,-0.2808578225472169,-0.3,0.0,1.0,371.0,857.0,1.0,0,-18.0,1
297,297,-0.8976013892267255,-0.9,0.0,1.0,477.0,731.0,1.0,0,252.0,1
298,298,0.5851589006790411,0.6,1.0,1.0,296.0,847.0,1.0,1,237.0,1
299,299,-0.31153008320673226,-0.3,1.0,0.0,384.0,638.0,0.0,0,508.0,1
300,300,-0.2169590572313269,-0.2,0.0,1.0,392.0,803.0,1.0,0,375.0,1
301,301,0.6208758212041031,0.6,1.0,1.0,325.0,637.0,1.0,1,278.0,1
302,302,0.8254733386656251,0.8,0.0,0.0,373.0,940.0,0.0,1,277.0,1
303,303,0.5115116987590272,0.5,0.0,0.0,285.0,952.0,0.0,1,313.0,1
304,304,-0.7267811577170891,-0.7,1.0,0.0,316.0,939.0,0.0,0,145.0,1
305,305,0.5643039055733007,0.6,1.0,1.0,429.0,649.0,1.0,1,282.0,1
306,306,0.13364265649913099,0.1,0.0,0.0,337.0,587.0,1.0,0,2276.0,0
307,307,-0.8323714128872423,-0.8,1.0,0.0,408.0,692.0,0.0,0,380.0,1
308,308,-0.4132433277293119,-0.4,0.0,1.0,483.0,767.0,1.0,0,330.0,1
309,309,0.3565904684501998,0.4,1.0,1.0,388.0,703.0,1.0,1,669.0,1
310,310,-0.7335121842670589,-0.7,1.0,0.0,331.0,938.0,0.0,0,81.0,1
311,311,-0.13268974263435374,-0.1,0.0,1.0,326.0,908.0,0.0,1,306.0,0
312,312,-0.4314028664376755,-0.4,0.0,1.0,371.0,863.0,1.0,0,56.0,1
313,313,-0.30164653635811944,-0.3,1.0,0.0,363.0,627.0,0.0,0,690.0,1
314,314,-0.25588769162420166,-0.3,0.0,1.0,350.0,905.0,1.0,0,735.0,1
315,315,0.220871446358763,0.2,0.0,0.0,455.0,845.0,0.0,1,730.0,1
316,316,-0.1801523180510357,-0.2,1.0,0.0,418.0,563.0,0.0,0,1509.0,1
317,317,-0.5115853430713313,-0.5,1.0,0.0,326.0,605.0,0.0,0,869.0,1
318,318,-0.3078453592711776,-0.3,0.0,1.0,294.0,805.0,1.0,0,271.0,1
319,319,-0.43294268986145473,-0.4,1.0,0.0,265.0,795.0,0.0,0,380.0,1
320,320,0.8991572486007938,0.9,0.0,0.0,306.0,989.0,0.0,1,395.0,1
321,321,0.23466520573270888,0.2,1.0,1.0,377.0,709.0,1.0,1,284.0,1
322,322,-0.17156531265031172,-0.2,1.0,0.0,386.0,939.0,1.0,1,475.0,0
323,323,0.8053058124710969,0.8,1.0,1.0,322.0,553.0,1.0,1,425.0,1
324,324,0.3817472550635116,0.4,0.0,0.0,390.0,695.0,0.0,1,295.0,1
325,325,0.14145161578134824,0.1,0.0,0.0,389.0,619.0,0.0,1,792.0,1
326,326,0.6013316787569124,0.6,0.0,0.0,381.0,502.0,0.0,1,467.0,1
327,327,0.5493132494526646,0.5,0.0,0.0,474.0,747.0,0.0,1,469.0,1
328,328,0.8355746486257004,0.8,1.0,1.0,447.0,828.0,1.0,1,205.0,1
329,329,0.031051838827357736,0.0,0.0,0.0,406.0,896.0,0.0,1,1178.0,1
330,330,-0.5504920847509034,-0.6,1.0,0.0,346.0,738.0,0.0,0,396.0,1
331,331,0.3356231522314078,0.3,1.0,1.0,357.0,832.0,1.0,1,151.0,1
332,332,-0.06059170152336346,-0.1,1.0,0.0,313.0,979.0,1.0,1,98.0,0
333,333,-0.0009010207654668312,-0.0,0.0,1.0,390.0,579.0,1.0,0,821.0,1
334,334,0.8561241591535346,0.9,1.0,1.0,407.0,774.0,1.0,1,229.0,1
335,335,0.10017508377136675,0.1,1.0,1.0,357.0,881.0,1.0,1,942.0,1
336,336,-0.43086037484553874,-0.4,0.0,1.0,294.0,685.0,1.0,0,251.0,1
337,337,-0.2364396386727956,-0.2,1.0,0.0,427.0,754.0,0.0,0,839.0,1
338,338,0.0763163361228485,0.1,1.0,1.0,265.0,903.0,0.0,0,1402.0,0
339,339,0.44969356392611026,0.4,0.0,0.0,444.0,666.0,0.0,1,210.0,1
340,340,-0.7192405416521118,-0.7,0.0,1.0,447.0,897.0,1.0,0,466.0,1
341,341,0.623197240978601,0.6,0.0,0.0,302.0,838.0,0.0,1,610.0,1
342,342,-0.5123658477808111,-0.5,1.0,0.0,254.0,535.0,0.0,0,781.0,1
343,343,-0.6595037767644296,-0.7,0.0,1.0,389.0,962.0,1.0,0,29.0,1
344,344,0.19679349656062117,0.2,0.0,0.0,439.0,603.0,0.0,1,618.0,1
345,345,-0.08205493105025263,-0.1,1.0,0.0,341.0,579.0,1.0,1,2870.0,0
346,346,0.6329774689227462,0.6,0.0,0.0,326.0,668.0,0.0,1,136.0,1
347,347,0.027812887990656954,0.0,0.0,0.0,468.0,895.0,1.0,0,237.0,0
348,348,0.05484415856983205,0.1,1.0,1.0,340.0,698.0,0.0,0,502.0,0
349,349,-0.6876579700648214,-0.7,0.0,1.0,363.0,565.0,1.0,0,222.0,1
350,350,-0.41016222094636123,-0.4,1.0,0.0,386.0,576.0,0.0,0,368.0,1
351,351,0.48332115524049046,0.5,0.0,0.0,297.0,594.0,0.0,1,779.0,1
352,352,0.134744428204446,0.1,1.0,1.0,481.0,793.0,1.0,1,686.0,1
353,353,-0.8173019252283681,-0.8,1.0,0.0,474.0,858.0,0.0,0,188.0,1
354,354,-0.6995000108567335,-0.7,0.0,1.0,252.0,816.0,1.0,0,332.0,1
355,355,0.3270656779872002,0.3,1.0,1.0,442.0,685.0,1.0,1,373.0,1
356,356,-0.5783382405321704,-0.6,0.0,1.0,499.0,783.0,1.0,0,258.0,1
357,357,-0.32408238903796227,-0.3,1.0,0.0,364.0,926.0,0.0,0,820.0,1
358,358,0.844036577170702,0.8,0.0,0.0,274.0,880.0,0.0,1,216.0,1
359,359,-0.8411094671549988,-0.8,0.0,1.0,438.0,549.0,1.0,0,413.0,1
360,360,-0.22858801578199628,-0.2,0.0,1.0,285.0,616.0,1.0,0,599.0,1
361,361,-0.21747434963523726,-0.2,1.0,0.0,453.0,778.0,0.0,0,679.0,1
362,362,0.8988235549637299,0.9,1.0,1.0,279.0,769.0,1.0,1,192.0,1
363,363,0.330059451109766,0.3,1.0,1.0,305.0,821.0,1.0,1,144.0,1
364,364,-0.4863904855152496,-0.5,1.0,0.0,436.0,502.0,0.0,0,642.0,1
365,365,0.37162296369624925,0.4,0.0,0.0,314.0,736.0,0.0,1,1000.0,1
366,366,-0.28401076637585887,-0.3,1.0,0.0,323.0,513.0,0.0,0,2764.0,1
367,367,0.6886252958995805,0.7,0.0,0.0,460.0,839.0,0.0,1,991.0,1
368,368,0.8282244627712007,0.8,0.0,0.0,442.0,750.0,0.0,1,398.0,1
369,369,0.3661510291092832,0.4,0.0,0.0,387.0,743.0,0.0,1,450.0,1
370,370,-0.48197472292620497,-0.5,1.0,0.0,266.0,630.0,0.0,0,264.0,1
371,371,0.45022946813053777,0.5,0.0,0.0,320.0,736.0,0.0,1,384.0,1
372,372,0.4933353570043245,0.5,1.0,1.0,476.0,828.0,1.0,1,196.0,1
373,373,-0.10929415351758642,-0.1,1.0,0.0,385.0,981.0,1.0,1,324.0,0
374,374,0.6039742676415661,0.6,1.0,1.0,254.0,654.0,1.0,1,242.0,1
375,375,-0.8299633773533712,-0.8,0.0,1.0,428.0,980.0,1.0,0,172.0,1
376,376,0.8730155606554358,0.9,1.0,1.0,444.0,872.0,1.0,1,144.0,1
377,377,0.8451397424493149,0.8,0.0,0.0,281.0,686.0,0.0,1,373.0,1
378,378,0.4017774413433711,0.4,0.0,0.0,425.0,789.0,0.0,1,836.0,1
379,379,0.28377100589408755,0.3,0.0,0.0,280.0,998.0,0.0,1,392.0,1
380,380,-0.5446938683661087,-0.5,1.0,0.0,408.0,906.0,0.0,0,206.0,1
381,381,-0.1697071483252578,-0.2,0.0,1.0,268.0,567.0,1.0,0,605.0,1
382,382,0.3263572854304567,0.3,0.0,0.0,408.0,613.0,0.0,1,719.0,1
383,383,-0.4488672024300935,-0.4,1.0,0.0,374.0,656.0,0.0,0,540.0,1
384,384,0.20075451509272624,0.2,1.0,1.0,298.0,900.0,1.0,1,132.0,1
385,385,-0.14168524825387885,-0.1,1.0,0.0,459.0,675.0,0.0,0,986.0,1
386,386,-0.2141410958598291,-0.2,0.0,1.0,404.0,641.0,1.0,0,365.0,1
387,387,-0.2587554279226131,-0.3,0.0,1.0,443.0,508.0,1.0,0,399.0,1
388,388,0.680853017208649,0.7,0.0,0.0,469.0,688.0,0.0,1,233.0,1
389,389,0.020894352215141798,0.0,0.0,0.0,300.0,721.0,1.0,0,309.0,0
390,390,0.8603142384654571,0.9,1.0,1.0,346.0,596.0,1.0,1,368.0,1
391,391,-0.11324541386799936,-0.1,1.0,0.0,367.0,981.0,1.0,1,272.0,0
392,392,0.2899142213960656,0.3,1.0,1.0,359.0,606.0,1.0,1,395.0,1
393,393,-0.19196092941020815,-0.2,1.0,0.0,399.0,554.0,0.0,0,447.0,1
394,394,0.6611940423289197,0.7,0.0,0.0,332.0,507.0,0.0,1,401.0,1
395,395,0.853657652839875,0.9,1.0,1.0,333.0,732.0,1.0,1,165.0,1
396,396,-0.8003132859571448,-0.8,0.0,1.0,428.0,854.0,1.0,0,468.0,1
397,397,0.3039534714954636,0.3,1.0,1.0,348.0,522.0,1.0,1,320.0,1
398,398,0.1868350174443315,0.2,1.0,1.0,403.0,996.0,1.0,1,501.0,1
399,399,0.2675796487052743,0.3,1.0,1.0,352.0,762.0,1.0,1,236.0,1
400,400,-0.3802629226180967,-0.4,0.0,1.0,271.0,916.0,1.0,0,733.0,1
401,401,0.8110554079692728,0.8,1.0,1.0,318.0,718.0,1.0,1,214.0,1
402,402,-0.5154930930200894,-0.5,1.0,0.0,408.0,580.0,0.0,0,482.0,1
403,403,-0.5291365694592978,-0.5,1.0,0.0,371.0,817.0,0.0,0,392.0,1
404,404,0.3033825578823889,0.3,1.0,1.0,422.0,675.0,1.0,1,263.0,1
405,405,0.4406926559016381,0.4,0.0,0.0,327.0,515.0,0.0,1,368.0,1
406,406,0.7763293172306244,0.8,1.0,1.0,388.0,865.0,1.0,1,357.0,1
407,407,-0.12548294287015882,-0.1,1.0,0.0,287.0,546.0,1.0,1,2817.0,0
408,408,0.22847199678079833,0.2,1.0,1.0,479.0,775.0,1.0,1,336.0,1
409,409,0.8630676668036202,0.9,0.0,0.0,498.0,646.0,0.0,1,266.0,1
410,410,-0.49321412692949645,-0.5,0.0,1.0,475.0,601.0,1.0,0,244.0,1
411,411,-0.4009661754805606,-0.4,0.0,1.0,404.0,577.0,1.0,0,269.0,1
412,412,-0.0692415902220912,-0.1,1.0,0.0,476.0,936.0,1.0,1,1368.0,0
413,413,0.4308425269147148,0.4,1.0,1.0,464.0,988.0,1.0,1,48.0,1
414,414,0.6581964258033454,0.7,1.0,1.0,498.0,863.0,1.0,1,189.0,1
415,415,0.894006617356132,0.9,1.0,1.0,498.0,933.0,1.0,1,309.0,1
416,416,0.7490628295656051,0.7,1.0,1.0,275.0,872.0,1.0,1,183.0,1
417,417,-0.2201215925150498,-0.2,0.0,1.0,459.0,798.0,1.0,0,583.0,1
418,418,-0.0984420808288462,-0.1,1.0,0.0,420.0,747.0,1.0,1,1863.0,0
419,419,-0.14966240959309707,-0.1,0.0,1.0,297.0,630.0,1.0,0,493.0,1
420,420,-0.7668101626766317,-0.8,0.0,1.0,426.0,835.0,1.0,0,129.0,1
421,421,0.327402779382172,0.3,1.0,1.0,290.0,711.0,1.0,1,289.0,1
422,422,-0.5568104792196389,-0.6,0.0,1.0,462.0,658.0,1.0,0,480.0,1
423,423,0.004544634371573264,0.0,0.0,0.0,303.0,783.0,1.0,0,814.0,0
424,424,-0.5444717039251308,-0.5,0.0,1.0,375.0,662.0,1.0,0,413.0,1
425,425,-0.7122418169521201,-0.7,1.0,0.0,302.0,992.0,0.0,0,406.0,1
426,426,0.2455027824275674,0.2,0.0,0.0,458.0,643.0,0.0,1,579.0,1
427,427,-0.27825072034948384,-0.3,1.0,0.0,279.0,569.0,0.0,0,592.0,1
428,428,0.18000961198426524,0.2,1.0,1.0,320.0,811.0,1.0,1,379.0,1
429,429,-0.6336174438127165,-0.6,1.0,0.0,477.0,953.0,0.0,0,270.0,1
430,430,0.12208476421912773,0.1,0.0,0.0,464.0,634.0,1.0,0,672.0,0
431,431,0.6825016566900218,0.7,1.0,1.0,303.0,503.0,1.0,1,464.0,1
432,432,0.7063432421881596,0.7,1.0,1.0,264.0,711.0,1.0,1,205.0,1
433,433,-0.8265205505794567,-0.8,0.0,1.0,441.0,654.0,1.0,0,475.0,1
434,434,-0.47613209248036553,-0.5,1.0,0.0,495.0,983.0,0.0,0,532.0,1
435,435,0.2698979478370044,0.3,0.0,0.0,355.0,842.0,1.0,0,593.0,0
436,436,0.14961686084688586,0.1,1.0,1.0,266.0,882.0,1.0,1,332.0,1
437,437,-0.6346950679916908,-0.6,0.0,1.0,463.0,533.0,1.0,0,314.0,1
438,438,-0.5862856420046146,-0.6,1.0,0.0,300.0,598.0,0.0,0,322.0,1
439,439,0.2868188230356966,0.3,1.0,1.0,266.0,501.0,1.0,1,383.0,1
440,440,0.8284016378794316,0.8,1.0,1.0,339.0,712.0,1.0,1,349.0,1
441,441,0.6890349489446538,0.7,0.0,0.0,437.0,659.0,0.0,1,304.0,1
442,442,0.01589107101867171,0.0,1.0,1.0,432.0,947.0,1.0,1,111.0,1
443,443,0.6502631952582268,0.7,1.0,1.0,427.0,598.0,1.0,1,285.0,1
444,444,-0.7982577412855023,-0.8,0.0,1.0,279.0,647.0,1.0,0,354.0,1
445,445,-0.8245087185393577,-0.8,0.0,1.0,497.0,511.0,1.0,0,482.0,1
446,446,0.6157078394507941,0.6,1.0,1.0,340.0,761.0,1.0,1,169.0,1
447,447,0.45403100381113537,0.5,1.0,1.0,451.0,979.0,1.0,1,210.0,1
448,448,0.392715570327422,0.4,1.0,1.0,452.0,744.0,1.0,1,134.0,1
449,449,0.09317240650578906,0.1,0.0,0.0,341.0,952.0,1.0,0,397.0,0
450,450,0.8758594919095261,0.9,1.0,1.0,303.0,968.0,1.0,1,119.0,1
451,451,0.5011108807586436,0.5,0.0,0.0,310.0,949.0,0.0,1,521.0,1
452,452,0.31075934927066584,0.3,0.0,0.0,358.0,533.0,0.0,1,509.0,1
453,453,0.7668826952500872,0.8,0.0,0.0,348.0,666.0,0.0,1,266.0,1
454,454,0.050565782356425615,0.1,0.0,0.0,413.0,504.0,1.0,0,793.0,0
455,455,-0.09379300003129076,-0.1,1.0,0.0,252.0,615.0,0.0,0,2483.0,1
456,456,0.17283396227107495,0.2,0.0,0.0,441.0,552.0,0.0,1,867.0,1
457,457,0.5838432544263396,0.6,0.0,0.0,293.0,528.0,0.0,1,379.0,1
458,458,-0.8421868784674628,-0.8,1.0,0.0,264.0,518.0,0.0,0,338.0,1
459,459,-0.8616791465825503,-0.9,1.0,0.0,407.0,628.0,0.0,0,555.0,1
460,460,-0.6931396543973483,-0.7,1.0,0.0,266.0,927.0,0.0,0,247.0,1
461,461,-0.857302730505251,-0.9,1.0,0.0,448.0,951.0,1.0,1,-19.0,0
462,462,-0.01918481621161028,-0.0,0.0,1.0,495.0,824.0,1.0,0,351.0,1
463,463,-0.6267366637340477,-0.6,1.0,0.0,394.0,990.0,0.0,0,316.0,1
464,464,0.12433963142490445,0.1,0.0,0.0,435.0,880.0,1.0,0,455.0,0
465,465,0.41715573497929614,0.4,0.0,0.0,497.0,652.0,0.0,1,1281.0,1
466,466,-0.3454997696925526,-0.3,0.0,1.0,261.0,724.0,1.0,0,375.0,1
467,467,-0.8508166979568564,-0.9,0.0,1.0,307.0,843.0,1.0,0,190.0,1
468,468,-0.7453108332387266,-0.7,1.0,0.0,322.0,967.0,0.0,0,121.0,1
469,469,0.3505567486862632,0.4,0.0,0.0,389.0,787.0,0.0,1,464.0,1
470,470,-0.7439703431001673,-0.7,0.0,1.0,357.0,965.0,1.0,0,158.0,1
471,471,0.3967259063264431,0.4,1.0,1.0,415.0,590.0,1.0,1,1005.0,1
472,472,-0.45747265750688515,-0.5,0.0,1.0,391.0,857.0,1.0,0,402.0,1
473,473,0.07419585080883007,0.1,1.0,1.0,474.0,953.0,1.0,1,173.0,1
474,474,-0.5302955400428225,-0.5,0.0,1.0,326.0,512.0,1.0,0,372.0,1
475,475,-0.8342066063961557,-0.8,0.0,1.0,372.0,856.0,1.0,0,202.0,1
476,476,-0.6172855655151714,-0.6,1.0,0.0,357.0,546.0,0.0,0,517.0,1
477,477,-0.7734263087068773,-0.8,1.0,0.0,453.0,722.0,0.0,0,325.0,1
478,478,-0.3312322146660994,-0.3,0.0,1.0,416.0,762.0,1.0,0,282.0,1
479,479,-0.5736655047709824,-0.6,0.0,1.0,474.0,677.0,1.0,0,269.0,1
480,480,-0.002153668414226706,-0.0,0.0,1.0,374.0,935.0,1.0,0,171.0,1
481,481,-0.47138224852540567,-0.5,0.0,1.0,375.0,718.0,1.0,0,637.0,1
482,482,0.7068013584992437,0.7,1.0,1.0,365.0,960.0,1.0,1,185.0,1
483,483,0.6517253601495424,0.7,1.0,1.0,281.0,876.0,1.0,1,63.0,1
484,484,0.32898869530022734,0.3,0.0,0.0,381.0,930.0,0.0,1,499.0,1
485,485,0.2646988278949808,0.3,0.0,0.0,341.0,624.0,0.0,1,875.0,1
486,486,0.8857315631924346,0.9,0.0,0.0,485.0,895.0,0.0,1,250.0,1
487,487,-0.23607402068296035,-0.2,1.0,0.0,466.0,738.0,0.0,0,256.0,1
488,488,-0.7560944733924433,-0.8,0.0,1.0,266.0,855.0,1.0,0,269.0,1
489,489,0.42482864070647575,0.4,0.0,0.0,251.0,937.0,0.0,1,272.0,1
490,490,-0.11096347183857413,-0.1,1.0,0.0,365.0,562.0,1.0,1,923.0,0
491,491,-0.5367043129880136,-0.5,1.0,0.0,370.0,995.0,0.0,0,285.0,1
492,492,-0.2956967504059489,-0.3,0.0,1.0,274.0,757.0,1.0,0,289.0,1
493,493,-0.4659505675725819,-0.5,0.0,1.0,353.0,763.0,1.0,0,224.0,1
494,494,0.8311004258695437,0.8,1.0,1.0,437.0,936.0,1.0,1,127.0,1
495,495,0.41097071939804686,0.4,1.0,1.0,277.0,973.0,1.0,1,170.0,1
496,496,-0.4042497878777159,-0.4,1.0,0.0,415.0,798.0,0.0,0,157.0,1
497,497,-0.3802773290152317,-0.4,1.0,0.0,257.0,774.0,0.0,0,289.0,1
498,498,-0.16926036896201813,-0.2,0.0,1.0,286.0,820.0,1.0,0,504.0,1
499,499,-0.149964740962773,-0.1,0.0,1.0,258.0,541.0,1.0,0,481.0,1
500,500,-0.8630069921148691,-0.9,0.0,1.0,404.0,815.0,1.0,0,481.0,1
501,501,-0.8887594246614701,-0.9,1.0,0.0,445.0,807.0,0.0,0,218.0,1
502,502,-0.5521691858843079,-0.6,1.0,0.0,410.0,852.0,0.0,0,298.0,1
503,503,0.83942949294449,0.8,0.0,0.0,293.0,714.0,0.0,1,143.0,1
504,504,-0.37394847237424866,-0.4,0.0,1.0,270.0,527.0,1.0,0,663.0,1
505,505,-0.5275023561956385,-0.5,0.0,1.0,320.0,517.0,1.0,0,423.0,1
506,506,0.14715003399771598,0.1,1.0,1.0,450.0,789.0,1.0,1,521.0,1
507,507,-0.5481724919992066,-0.5,0.0,1.0,433.0,713.0,1.0,0,214.0,1
508,508,0.6310753774334413,0.6,0.0,0.0,452.0,953.0,0.0,1,365.0,1
509,509,-0.08876201715463305,-0.1,1.0,0.0,343.0,958.0,0.0,0,1069.0,1
510,510,-0.6686928664055871,-0.7,0.0,1.0,331.0,560.0,1.0,0,419.0,1
511,511,0.46040121351903196,0.5,0.0,0.0,444.0,953.0,0.0,1,93.0,1
512,512,0.7521913643205794,0.8,1.0,1.0,346.0,726.0,1.0,1,268.0,1
513,513,-0.15036761857551384,-0.2,0.0,1.0,423.0,749.0,1.0,0,648.0,1
514,514,-0.6707385863621245,-0.7,1.0,0.0,429.0,864.0,0.0,0,427.0,1
515,515,0.42229525957728653,0.4,1.0,1.0,467.0,825.0,1.0,1,488.0,1
516,516,0.046230622996252135,0.0,1.0,1.0,264.0,910.0,0.0,0,576.0,0
517,517,-0.1944043465732065,-0.2,0.0,1.0,292.0,692.0,1.0,0,366.0,1
518,518,0.2882920060521531,0.3,0.0,0.0,483.0,571.0,0.0,1,596.0,1
519,519,0.480958267037365,0.5,1.0,1.0,403.0,699.0,1.0,1,178.0,1
520,520,-0.07162543734127358,-0.1,0.0,1.0,336.0,766.0,1.0,0,378.0,1
521,521,0.6236348172745322,0.6,0.0,0.0,494.0,555.0,0.0,1,291.0,1
522,522,0.045564183492390664,0.0,1.0,1.0,322.0,679.0,1.0,1,959.0,1
523,523,0.4216954392122202,0.4,0.0,0.0,477.0,560.0,0.0,1,763.0,1
524,524,0.7673786675736202,0.8,0.0,0.0,480.0,950.0,0.0,1,240.0,1
525,525,-0.5384092852789779,-0.5,1.0,0.0,375.0,867.0,0.0,0,648.0,1
526,526,0.5945015315341676,0.6,1.0,1.0,252.0,614.0,1.0,1,434.0,1
527,527,0.5703174977725564,0.6,0.0,0.0,443.0,882.0,0.0,1,175.0,1
528,528,-0.7679795482627036,-0.8,1.0,0.0,350.0,649.0,0.0,0,511.0,1
529,529,0.5869145763664191,0.6,0.0,0.0,322.0,979.0,0.0,1,129.0,1
530,530,0.17084437967463273,0.2,0.0,0.0,421.0,604.0,1.0,0,835.0,0
531,531,-0.11062004082049604,-0.1,0.0,1.0,291.0,510.0,1.0,0,559.0,1
532,532,-0.7345100703439544,-0.7,0.0,1.0,332.0,637.0,1.0,0,451.0,1
533,533,0.4579608078346896,0.5,0.0,0.0,374.0,817.0,0.0,1,239.0,1
534,534,0.8746176753506462,0.9,1.0,1.0,290.0,681.0,1.0,1,179.0,1
535,535,0.6359487396446956,0.6,1.0,1.0,259.0,861.0,1.0,1,320.0,1
536,536,-0.4953827445712898,-0.5,0.0,1.0,418.0,663.0,1.0,0,589.0,1
537,537,0.15623851685094292,0.2,0.0,0.0,408.0,874.0,1.0,0,738.0,0
538,538,0.3247720881362838,0.3,0.0,0.0,251.0,975.0,0.0,1,394.0,1
539,539,0.2651717424469392,0.3,1.0,1.0,477.0,990.0,1.0,1,453.0,1
540,540,-0.6378222567286451,-0.6,0.0,1.0,484.0,937.0,1.0,0,169.0,1
541,541,-0.6077648201057826,-0.6,1.0,0.0,326.0,588.0,0.0,0,446.0,1
542,542,0.6820137719630927,0.7,1.0,1.0,335.0,910.0,1.0,1,115.0,1
543,543,-0.4602864914865919,-0.5,0.0,1.0,367.0,963.0,1.0,0,340.0,1
544,544,-0.6268861387754665,-0.6,1.0,0.0,312.0,733.0,0.0,0,305.0,1
545,545,0.6722281566642082,0.7,0.0,0.0,490.0,998.0,0.0,1,552.0,1
546,546,0.3488222062171039,0.3,1.0,1.0,396.0,573.0,1.0,1,421.0,1
547,547,0.022448617794294745,0.0,0.0,0.0,468.0,841.0,0.0,1,611.0,1
548,548,0.13283653796327377,0.1,0.0,0.0,400.0,583.0,1.0,0,1157.0,0
549,549,-0.2417131956541868,-0.2,1.0,0.0,305.0,745.0,0.0,0,430.0,1
550,550,0.7804900091264478,0.8,0.0,0.0,325.0,527.0,0.0,1,368.0,1
551,551,0.84336364141309,0.8,1.0,1.0,316.0,978.0,1.0,1,36.0,1
552,552,-0.3442970153757864,-0.3,0.0,1.0,259.0,719.0,1.0,0,472.0,1
553,553,0.5917325913979804,0.6,0.0,0.0,435.0,544.0,0.0,1,431.0,1
554,554,0.13623260518718705,0.1,1.0,1.0,404.0,623.0,1.0,1,373.0,1
555,555,0.611854576259189,0.6,0.0,0.0,426.0,997.0,1.0,0,17.0,0
556,556,0.4891501614043331,0.5,0.0,0.0,287.0,911.0,0.0,1,322.0,1
557,557,0.030081676354658304,0.0,0.0,0.0,404.0,564.0,1.0,0,272.0,0
558,558,-0.21236249919514938,-0.2,0.0,1.0,336.0,563.0,1.0,0,381.0,1
559,559,-0.2717732517443099,-0.3,0.0,1.0,270.0,730.0,1.0,0,810.0,1
560,560,-0.16406412744353716,-0.2,1.0,0.0,332.0,974.0,0.0,0,584.0,1
561,561,-0.5076187057102086,-0.5,0.0,1.0,265.0,671.0,1.0,0,344.0,1
562,562,0.7717657726264496,0.8,0.0,0.0,477.0,635.0,0.0,1,438.0,1
563,563,0.5704490405425288,0.6,1.0,1.0,480.0,873.0,1.0,1,217.0,1
564,564,0.3995364638232658,0.4,1.0,1.0,381.0,825.0,1.0,1,154.0,1
565,565,0.8715996545069585,0.9,0.0,0.0,294.0,587.0,0.0,1,279.0,1
566,566,0.35763686256059446,0.4,0.0,0.0,264.0,963.0,0.0,1,133.0,1
567,567,-0.08429570621574078,-0.1,0.0,1.0,477.0,669.0,1.0,0,394.0,1
568,568,0.1605065466982979,0.2,1.0,1.0,398.0,825.0,1.0,1,207.0,1
569,569,-0.23797309710800185,-0.2,0.0,1.0,419.0,761.0,0.0,1,390.0,0
570,570,-0.4244431771098464,-0.4,1.0,0.0,250.0,586.0,0.0,0,534.0,1
571,571,-0.023756631574097797,-0.0,1.0,0.0,453.0,998.0,1.0,1,-181.0,0
572,572,-0.2681364667474849,-0.3,1.0,0.0,495.0,674.0,0.0,0,441.0,1
573,573,0.5133457605510826,0.5,0.0,0.0,489.0,715.0,0.0,1,496.0,1
574,574,-0.76639813319878,-0.8,1.0,0.0,429.0,627.0,0.0,0,324.0,1
575,575,0.004959871058478504,0.0,0.0,0.0,331.0,619.0,0.0,1,1950.0,1
576,576,0.763014590259888,0.8,0.0,0.0,312.0,590.0,0.0,1,348.0,1
577,577,-0.13690732680101292,-0.1,1.0,0.0,345.0,734.0,1.0,1,391.0,0
578,578,0.19922288421337864,0.2,1.0,1.0,447.0,639.0,1.0,1,284.0,1
579,579,-0.2784187009468908,-0.3,1.0,0.0,255.0,587.0,0.0,0,468.0,1
580,580,-0.24213432730985796,-0.2,1.0,0.0,458.0,665.0,0.0,0,667.0,1
581,581,0.5755348030558533,0.6,0.0,0.0,452.0,902.0,0.0,1,166.0,1
582,582,0.31960641495753517,0.3,0.0,0.0,440.0,521.0,0.0,1,1089.0,1
583,583,-0.31622457353820166,-0.3,0.0,1.0,259.0,513.0,1.0,0,578.0,1
584,584,0.1837570448007967,0.2,1.0,1.0,297.0,579.0,1.0,1,434.0,1
585,585,-0.7220582929141219,-0.7,1.0,0.0,458.0,798.0,0.0,0,444.0,1
586,586,-0.5467783196863103,-0.5,0.0,1.0,417.0,701.0,1.0,0,222.0,1
587,587,0.3208084106448562,0.3,1.0,1.0,262.0,926.0,1.0,1,82.0,1
588,588,-0.8521211260438473,-0.9,1.0,0.0,425.0,924.0,0.0,0,41.0,1
589,589,0.279971935759873,0.3,0.0,0.0,442.0,647.0,0.0,1,801.0,1
590,590,-0.8093046253140099,-0.8,0.0,1.0,322.0,724.0,1.0,0,424.0,1
591,591,0.40715280346309435,0.4,0.0,0.0,475.0,945.0,0.0,1,690.0,1
592,592,-0.6798333722539583,-0.7,0.0,1.0,421.0,787.0,1.0,0,182.0,1
593,593,0.5808242645064822,0.6,0.0,0.0,427.0,993.0,0.0,1,140.0,1
594,594,-0.7865004463812204,-0.8,1.0,0.0,346.0,743.0,0.0,0,331.0,1
595,595,-0.502571094298691,-0.5,0.0,1.0,484.0,651.0,1.0,0,535.0,1
596,596,-0.3930976122838441,-0.4,0.0,1.0,323.0,691.0,1.0,0,296.0,1
597,597,-0.8888463516754569,-0.9,1.0,0.0,375.0,628.0,0.0,0,417.0,1
598,598,0.27025644380844216,0.3,0.0,0.0,493.0,900.0,0.0,1,947.0,1
599,599,-0.0005386216723757276,-0.0,1.0,0.0,497.0,615.0,1.0,1,678.0,0
600,600,-0.266791876034679,-0.3,0.0,1.0,276.0,894.0,1.0,0,370.0,1
601,601,-0.40001943760290043,-0.4,0.0,1.0,424.0,718.0,1.0,0,208.0,1
602,602,-0.6817281216164346,-0.7,0.0,1.0,424.0,671.0,1.0,0,305.0,1
603,603,0.31125447210783885,0.3,0.0,0.0,343.0,814.0,0.0,1,653.0,1
604,604,0.10515232593276502,0.1,1.0,1.0,407.0,945.0,1.0,1,138.0,1
605,605,-0.1808487077573756,-0.2,1.0,0.0,275.0,738.0,1.0,1,1087.0,0
606,606,0.3292576633205001,0.3,1.0,1.0,350.0,798.0,1.0,1,582.0,1
607,607,0.3646431365659305,0.4,0.0,0.0,406.0,638.0,0.0,1,536.0,1
608,608,0.22155389749230692,0.2,1.0,1.0,454.0,919.0,1.0,1,387.0,1
609,609,-0.5320712437211284,-0.5,1.0,0.0,390.0,873.0,1.0,1,227.0,0
610,610,-0.17052537772915521,-0.2,0.0,1.0,462.0,511.0,1.0,0,787.0,1
611,611,-0.8743605064182018,-0.9,0.0,1.0,402.0,976.0,1.0,0,202.0,1
612,612,-0.8710447186957468,-0.9,0.0,1.0,414.0,947.0,1.0,0,139.0,1
613,613,-0.4534285477764843,-0.5,1.0,0.0,397.0,740.0,0.0,0,503.0,1
614,614,-0.761597841876097,-0.8,1.0,0.0,337.0,565.0,0.0,0,388.0,1
615,615,-0.15483882803796878,-0.2,0.0,1.0,367.0,683.0,1.0,0,420.0,1
616,616,-0.6484994852836463,-0.6,0.0,1.0,454.0,633.0,1.0,0,403.0,1
617,617,-0.6703063964251483,-0.7,1.0,0.0,378.0,878.0,0.0,0,74.0,1
618,618,-0.699968133367764,-0.7,1.0,0.0,466.0,870.0,0.0,0,174.0,1
619,619,-0.36708944716498626,-0.4,0.0,1.0,494.0,738.0,1.0,0,458.0,1
620,620,0.8277728712757689,0.8,1.0,1.0,378.0,599.0,1.0,1,213.0,1
621,621,-0.28370257179152725,-0.3,0.0,1.0,464.0,789.0,1.0,0,337.0,1
622,622,-0.04462486224832407,-0.0,0.0,1.0,296.0,995.0,1.0,0,549.0,1
623,623,0.33971374311310176,0.3,0.0,0.0,272.0,895.0,0.0,1,213.0,1
624,624,-0.28076129529738636,-0.3,1.0,0.0,308.0,942.0,1.0,1,0.0,0
625,625,0.15866375280245382,0.2,1.0,1.0,280.0,956.0,1.0,1,284.0,1
626,626,0.23538874423794554,0.2,1.0,1.0,410.0,621.0,1.0,1,239.0,1
627,627,0.7821326168650548,0.8,1.0,1.0,333.0,954.0,1.0,1,153.0,1
628,628,0.841196290984774,0.8,1.0,1.0,412.0,939.0,1.0,1,159.0,1
629,629,-0.7700503609917719,-0.8,1.0,0.0,280.0,855.0,0.0,0,445.0,1
630,630,-0.34723642018349543,-0.3,0.0,1.0,296.0,695.0,1.0,0,249.0,1
631,631,-0.6747566752955825,-0.7,1.0,0.0,468.0,963.0,0.0,0,119.0,1
632,632,-0.045972484734903674,-0.0,1.0,0.0,346.0,748.0,1.0,1,1556.0,0
633,633,0.7908853715765033,0.8,0.0,0.0,431.0,706.0,0.0,1,363.0,1
634,634,0.6171792127213868,0.6,0.0,0.0,263.0,573.0,0.0,1,464.0,1
635,635,0.516432510608911,0.5,0.0,0.0,256.0,780.0,0.0,1,564.0,1
636,636,0.2725668498584969,0.3,0.0,0.0,307.0,646.0,0.0,1,2287.0,1
637,637,-0.8116777246324486,-0.8,1.0,0.0,323.0,903.0,0.0,0,374.0,1
638,638,0.5318160808917117,0.5,0.0,0.0,481.0,916.0,0.0,1,343.0,1
639,639,-0.7879743712065537,-0.8,0.0,1.0,294.0,756.0,1.0,0,600.0,1
640,640,0.552708384479612,0.6,1.0,1.0,473.0,690.0,1.0,1,107.0,1
641,641,-0.07187415260845775,-0.1,0.0,1.0,261.0,693.0,1.0,0,516.0,1
642,642,-0.3623270504264967,-0.4,0.0,1.0,386.0,875.0,1.0,0,299.0,1
643,643,-0.14483416221573286,-0.1,1.0,0.0,454.0,654.0,0.0,0,892.0,1
644,644,-0.352630954852587,-0.4,1.0,0.0,471.0,945.0,0.0,0,24.0,1
645,645,0.07452854503873174,0.1,1.0,1.0,250.0,566.0,1.0,1,984.0,1
646,646,-0.2601118107043314,-0.3,0.0,1.0,359.0,520.0,1.0,0,391.0,1
647,647,-0.8559618505462255,-0.9,1.0,0.0,337.0,727.0,0.0,0,296.0,1
648,648,-0.5353724907406283,-0.5,0.0,1.0,312.0,983.0,1.0,0,95.0,1
649,649,-0.42788158045223107,-0.4,1.0,0.0,468.0,736.0,0.0,0,266.0,1
650,650,-0.7513768255104789,-0.8,0.0,1.0,490.0,831.0,1.0,0,129.0,1
651,651,0.4511671785107513,0.5,1.0,1.0,409.0,609.0,1.0,1,412.0,1
652,652,-0.6922554520436794,-0.7,1.0,0.0,424.0,587.0,0.0,0,289.0,1
653,653,0.14494124890624704,0.1,1.0,1.0,466.0,775.0,1.0,1,829.0,1
654,654,0.7108845065656763,0.7,0.0,0.0,349.0,604.0,0.0,1,387.0,1
655,655,0.5866593028394448,0.6,1.0,1.0,477.0,857.0,1.0,1,96.0,1
656,656,0.09314510596443037,0.1,0.0,0.0,268.0,967.0,0.0,1,525.0,1
657,657,0.6617880324461934,0.7,0.0,0.0,415.0,662.0,0.0,1,443.0,1
658,658,0.23695310307506368,0.2,0.0,0.0,401.0,560.0,1.0,0,959.0,0
659,659,0.235488387323454,0.2,0.0,0.0,499.0,897.0,0.0,1,504.0,1
660,660,0.6987497234919541,0.7,0.0,0.0,256.0,973.0,0.0,1,421.0,1
661,661,-0.6855094183274691,-0.7,1.0,0.0,293.0,745.0,0.0,0,252.0,1
662,662,-0.8657696265872961,-0.9,1.0,0.0,267.0,630.0,0.0,0,243.0,1
663,663,-0.258331657425652,-0.3,0.0,1.0,385.0,540.0,1.0,0,495.0,1
664,664,0.33500760644025396,0.3,0.0,0.0,354.0,699.0,0.0,1,417.0,1
665,665,-0.17530688763200664,-0.2,1.0,0.0,343.0,689.0,0.0,0,638.0,1
666,666,0.4126924043554726,0.4,0.0,0.0,270.0,825.0,0.0,1,265.0,1
667,667,-0.06420413661684421,-0.1,0.0,1.0,271.0,786.0,1.0,0,393.0,1
668,668,-0.1309076113652763,-0.1,0.0,1.0,283.0,840.0,1.0,0,337.0,1
669,669,0.8227978522181777,0.8,0.0,0.0,424.0,702.0,0.0,1,284.0,1
670,670,-0.24429688758066093,-0.2,1.0,0.0,341.0,651.0,1.0,1,648.0,0
671,671,0.20836474916211578,0.2,0.0,0.0,427.0,888.0,0.0,1,1305.0,1
672,672,0.06020771451779483,0.1,1.0,1.0,295.0,992.0,0.0,0,-7.0,0
673,673,-0.6029704098343376,-0.6,1.0,0.0,277.0,689.0,0.0,0,694.0,1
674,674,0.05211611672039229,0.1,1.0,1.0,295.0,592.0,1.0,1,863.0,1
675,675,-0.7588920268314593,-0.8,1.0,0.0,449.0,615.0,0.0,0,406.0,1
676,676,-0.23406191182545577,-0.2,0.0,1.0,295.0,889.0,1.0,0,616.0,1
677,677,0.2306854629880536,0.2,1.0,1.0,470.0,769.0,1.0,1,411.0,1
678,678,0.8085895479180502,0.8,0.0,0.0,265.0,604.0,0.0,1,241.0,1
679,679,-0.16230822481870422,-0.2,0.0,1.0,342.0,541.0,1.0,0,647.0,1
680,680,-0.8366813985667627,-0.8,0.0,1.0,352.0,824.0,1.0,0,154.0,1
681,681,-0.8652227857724759,-0.9,0.0,1.0,441.0,639.0,1.0,0,410.0,1
682,682,0.15227001467684553,0.2,1.0,1.0,295.0,621.0,1.0,1,354.0,1
683,683,-0.5273538485383431,-0.5,0.0,1.0,484.0,909.0,1.0,0,227.0,1
684,684,0.42807250073198133,0.4,0.0,0.0,350.0,833.0,0.0,1,697.0,1
685,685,-0.09328497529317303,-0.1,1.0,0.0,333.0,550.0,1.0,1,537.0,0
686,686,0.3979338257116286,0.4,0.0,0.0,372.0,643.0,0.0,1,625.0,1
687,687,-0.8613414778729084,-0.9,0.0,1.0,333.0,510.0,1.0,0,387.0,1
688,688,0.27586855511838004,0.3,1.0,1.0,259.0,634.0,1.0,1,527.0,1
689,689,0.14894478269210853,0.1,1.0,1.0,319.0,515.0,1.0,1,426.0,1
690,690,0.01271336331852746,0.0,0.0,0.0,486.0,880.0,1.0,0,244.0,0
691,691,-0.49400451953811864,-0.5,1.0,0.0,498.0,902.0,0.0,0,390.0,1
692,692,0.7726427323299191,0.8,1.0,1.0,302.0,554.0,1.0,1,464.0,1
693,693,-0.8218902399422418,-0.8,0.0,1.0,418.0,991.0,1.0,0,91.0,1
694,694,-0.014234957843989648,-0.0,0.0,1.0,494.0,654.0,1.0,0,812.0,1
695,695,-0.3099117375685475,-0.3,1.0,0.0,305.0,902.0,0.0,0,673.0,1
696,696,-0.6832048557147586,-0.7,1.0,0.0,391.0,593.0,0.0,0,536.0,1
697,697,-0.8352293420708422,-0.8,0.0,1.0,488.0,943.0,1.0,0,369.0,1
698,698,-0.6804438852103725,-0.7,1.0,0.0,309.0,817.0,1.0,1,14.0,0
699,699,-0.3938158171812409,-0.4,0.0,1.0,304.0,849.0,1.0,0,227.0,1
700,700,0.7288368640071378,0.7,1.0,1.0,293.0,745.0,1.0,1,282.0,1
701,701,-0.2922027378214713,-0.3,1.0,0.0,423.0,868.0,0.0,0,949.0,1
702,702,-0.8951138141559069,-0.9,0.0,1.0,363.0,868.0,1.0,0,169.0,1
703,703,-0.1986236434106159,-0.2,1.0,0.0,369.0,984.0,1.0,1,327.0,0
704,704,-0.1949868156897374,-0.2,1.0,0.0,473.0,859.0,1.0,1,-22.0,0
705,705,-0.7260859875869952,-0.7,1.0,0.0,307.0,658.0,0.0,0,545.0,1
706,706,-0.2482092092658782,-0.2,0.0,1.0,334.0,690.0,1.0,0,776.0,1
707,707,0.8840734840688357,0.9,0.0,0.0,420.0,829.0,0.0,1,141.0,1
708,708,0.57124829804905,0.6,1.0,1.0,495.0,538.0,1.0,1,347.0,1
709,709,0.09473021287881045,0.1,1.0,1.0,478.0,751.0,1.0,1,1381.0,1
710,710,0.2726377563870702,0.3,1.0,1.0,399.0,590.0,1.0,1,381.0,1
711,711,-0.19335083587055246,-0.2,1.0,0.0,443.0,614.0,1.0,1,863.0,0
712,712,0.804219649791177,0.8,0.0,0.0,338.0,954.0,0.0,1,458.0,1
713,713,0.08062576473700911,0.1,0.0,0.0,435.0,863.0,1.0,0,72.0,0
714,714,-0.4852172039773339,-0.5,1.0,0.0,495.0,801.0,0.0,0,654.0,1
715,715,-0.8544155525833816,-0.9,0.0,1.0,393.0,668.0,1.0,0,209.0,1
716,716,0.3292550030951219,0.3,1.0,1.0,405.0,814.0,1.0,1,661.0,1
717,717,0.26387008494599995,0.3,0.0,0.0,356.0,808.0,1.0,0,166.0,0
718,718,-0.5129815934153503,-0.5,0.0,1.0,468.0,707.0,1.0,0,205.0,1
719,719,0.19503837903856114,0.2,1.0,1.0,489.0,571.0,1.0,1,380.0,1
720,720,0.489811599669045,0.5,1.0,1.0,415.0,903.0,1.0,1,182.0,1
721,721,-0.7377365866165073,-0.7,1.0,0.0,432.0,525.0,0.0,0,663.0,1
722,722,-0.38328998906125455,-0.4,1.0,0.0,456.0,946.0,0.0,0,348.0,1
723,723,0.47278439559422225,0.5,1.0,1.0,272.0,923.0,1.0,1,225.0,1
724,724,0.21448858715693675,0.2,0.0,0.0,342.0,592.0,1.0,0,1706.0,0
725,725,0.3958971336429712,0.4,0.0,0.0,467.0,873.0,0.0,1,250.0,1
726,726,0.10412266131275161,0.1,0.0,0.0,498.0,533.0,0.0,1,1029.0,1
727,727,-0.2997926660612411,-0.3,0.0,1.0,437.0,887.0,1.0,0,526.0,1
728,728,0.8752453284045677,0.9,0.0,0.0,251.0,926.0,0.0,1,183.0,1
729,729,-0.8781461319262577,-0.9,1.0,0.0,331.0,512.0,0.0,0,367.0,1
730,730,-0.3205912731233781,-0.3,0.0,1.0,358.0,920.0,1.0,0,192.0,1
731,731,0.22641435426382805,0.2,0.0,0.0,481.0,634.0,0.0,1,375.0,1
732,732,-0.8932813389112184,-0.9,1.0,0.0,454.0,534.0,0.0,0,332.0,1
733,733,0.89130169691436,0.9,0.0,0.0,282.0,605.0,0.0,1,203.0,1
734,734,0.4668562322962767,0.5,0.0,0.0,274.0,743.0,0.0,1,443.0,1
735,735,0.8894188088388156,0.9,0.0,0.0,282.0,703.0,0.0,1,315.0,1
736,736,0.04496691346973303,0.0,1.0,1.0,254.0,975.0,1.0,1,361.0,1
737,737,-0.8699456990380122,-0.9,0.0,1.0,328.0,971.0,1.0,0,271.0,1
738,738,-0.23980094867512491,-0.2,1.0,0.0,375.0,685.0,0.0,0,860.0,1
739,739,-0.4278645567799716,-0.4,0.0,1.0,302.0,717.0,1.0,0,221.0,1
740,740,-0.8630530117547104,-0.9,1.0,0.0,287.0,528.0,0.0,0,325.0,1
741,741,0.5965219027970844,0.6,1.0,1.0,402.0,918.0,1.0,1,270.0,1
742,742,-0.7471568507750144,-0.7,1.0,0.0,413.0,842.0,0.0,0,325.0,1
743,743,-0.8142226298812899,-0.8,0.0,1.0,300.0,596.0,1.0,0,384.0,1
744,744,-0.3260286087739537,-0.3,0.0,1.0,285.0,639.0,1.0,0,306.0,1
745,745,-0.8484023701253367,-0.8,0.0,1.0,414.0,749.0,1.0,0,247.0,1
746,746,-0.13554304069214018,-0.1,0.0,1.0,453.0,722.0,1.0,0,2485.0,1
747,747,-0.4307671124162646,-0.4,1.0,0.0,347.0,515.0,0.0,0,628.0,1
748,748,0.4157997526219738,0.4,1.0,1.0,250.0,829.0,1.0,1,351.0,1
749,749,0.027863421662052357,0.0,1.0,1.0,338.0,935.0,1.0,1,497.0,1
750,750,-0.5840618134696316,-0.6,1.0,0.0,385.0,561.0,0.0,0,414.0,1
751,751,0.20020671283758873,0.2,0.0,0.0,262.0,681.0,0.0,1,667.0,1
752,752,0.36040049148472597,0.4,1.0,1.0,437.0,502.0,1.0,1,551.0,1
753,753,0.3552290038281466,0.4,1.0,1.0,284.0,995.0,1.0,1,641.0,1
754,754,0.7649374778431578,0.8,1.0,1.0,392.0,617.0,1.0,1,381.0,1
755,755,-0.2592215489063233,-0.3,1.0,0.0,386.0,838.0,0.0,0,106.0,1
756,756,0.08160174092677197,0.1,0.0,0.0,369.0,982.0,1.0,0,819.0,0
757,757,0.6783859038108838,0.7,0.0,0.0,297.0,836.0,0.0,1,247.0,1
758,758,0.7856758828319114,0.8,0.0,0.0,331.0,608.0,0.0,1,271.0,1
759,759,0.4315772014254743,0.4,0.0,0.0,356.0,552.0,0.0,1,702.0,1
760,760,-0.03861577739496036,-0.0,0.0,1.0,251.0,539.0,1.0,0,590.0,1
761,761,-0.7577747422511355,-0.8,1.0,0.0,462.0,943.0,0.0,0,365.0,1
762,762,0.4857463115491777,0.5,0.0,0.0,345.0,769.0,0.0,1,426.0,1
763,763,-0.4962299433076713,-0.5,0.0,1.0,422.0,559.0,1.0,0,329.0,1
764,764,-0.870245090313616,-0.9,1.0,0.0,352.0,802.0,0.0,0,316.0,1
765,765,0.20490241327080605,0.2,1.0,1.0,284.0,832.0,1.0,1,354.0,1
766,766,0.03626557156360444,0.0,1.0,1.0,417.0,877.0,1.0,1,496.0,1
767,767,0.15909320895004042,0.2,0.0,0.0,476.0,993.0,0.0,1,341.0,1
768,768,-0.6334652266597001,-0.6,1.0,0.0,430.0,784.0,0.0,0,466.0,1
769,769,0.3439218349875849,0.3,0.0,0.0,415.0,540.0,0.0,1,345.0,1
770,770,-0.7236180125798667,-0.7,1.0,0.0,486.0,655.0,0.0,0,359.0,1
771,771,0.47683399190917786,0.5,1.0,1.0,398.0,814.0,1.0,1,398.0,1
772,772,0.31729596533798377,0.3,0.0,0.0,421.0,734.0,0.0,1,2175.0,1
773,773,0.4524774107324404,0.5,1.0,1.0,411.0,657.0,1.0,1,412.0,1
774,774,-0.09584903869883077,-0.1,1.0,0.0,487.0,877.0,0.0,0,226.0,1
775,775,-0.6597113698337316,-0.7,0.0,1.0,430.0,674.0,1.0,0,396.0,1
776,776,0.15503609477478875,0.2,0.0,0.0,290.0,899.0,0.0,1,461.0,1
777,777,0.32576247392915547,0.3,0.0,0.0,382.0,516.0,0.0,1,1132.0,1
778,778,0.16000268569513965,0.2,1.0,1.0,443.0,845.0,1.0,1,252.0,1
779,779,-0.17726413393603713,-0.2,0.0,1.0,348.0,558.0,1.0,0,674.0,1
780,780,-0.011648412756046334,-0.0,0.0,1.0,480.0,528.0,1.0,0,1612.0,1
781,781,-0.6724201133315904,-0.7,1.0,0.0,370.0,910.0,0.0,0,200.0,1
782,782,0.3102852668259203,0.3,1.0,1.0,344.0,602.0,1.0,1,654.0,1
783,783,-0.8908751649299813,-0.9,0.0,1.0,377.0,662.0,1.0,0,411.0,1
784,784,0.15110630752074627,0.2,1.0,1.0,363.0,654.0,1.0,1,653.0,1
785,785,-0.5618117330806442,-0.6,1.0,0.0,404.0,724.0,0.0,0,692.0,1
786,786,0.6551609389734819,0.7,0.0,0.0,309.0,873.0,0.0,1,338.0,1
787,787,0.6645455690427721,0.7,1.0,1.0,487.0,902.0,1.0,1,81.0,1
788,788,-0.3028657716868599,-0.3,0.0,1.0,304.0,675.0,1.0,0,471.0,1
789,789,-0.2518630646160027,-0.3,1.0,0.0,312.0,659.0,0.0,0,259.0,1
790,790,-0.21502136562424845,-0.2,1.0,0.0,281.0,742.0,1.0,1,307.0,0
791,791,0.028793405841677,0.0,0.0,0.0,359.0,741.0,1.0,0,900.0,0
792,792,-0.5676090521647181,-0.6,0.0,1.0,417.0,974.0,1.0,0,249.0,1
793,793,0.18335495666176171,0.2,0.0,0.0,309.0,807.0,0.0,1,914.0,1
794,794,-0.6389514539151671,-0.6,0.0,1.0,362.0,730.0,1.0,0,318.0,1
795,795,-0.5359927194059548,-0.5,1.0,0.0,307.0,735.0,0.0,0,228.0,1
796,796,0.20489142353183476,0.2,1.0,1.0,354.0,774.0,1.0,1,382.0,1
797,797,0.7039603304797274,0.7,1.0,1.0,308.0,595.0,1.0,1,487.0,1
798,798,0.739361652430912,0.7,0.0,0.0,317.0,805.0,0.0,1,288.0,1
799,799,-0.07453752793172363,-0.1,0.0,1.0,295.0,557.0,1.0,0,1148.0,1
800,800,0.21528657762933878,0.2,1.0,1.0,488.0,761.0,0.0,0,981.0,0
801,801,-0.3944313701000369,-0.4,0.0,1.0,465.0,583.0,1.0,0,342.0,1
802,802,-0.11221259170669373,-0.1,0.0,1.0,488.0,862.0,1.0,0,600.0,1
803,803,-0.28280635581738633,-0.3,0.0,1.0,493.0,795.0,1.0,0,542.0,1
804,804,0.8205814698961066,0.8,1.0,1.0,306.0,607.0,1.0,1,387.0,1
805,805,0.6758723699448957,0.7,0.0,0.0,400.0,705.0,0.0,1,345.0,1
806,806,0.10150885206520177,0.1,0.0,0.0,487.0,641.0,0.0,1,1422.0,1
807,807,-0.4470255190915079,-0.4,0.0,1.0,355.0,591.0,1.0,0,424.0,1
808,808,0.09132386202804355,0.1,0.0,0.0,376.0,883.0,1.0,0,701.0,0
809,809,0.6152805965935838,0.6,1.0,1.0,373.0,513.0,1.0,1,564.0,1
810,810,-0.1807024284952511,-0.2,1.0,0.0,300.0,835.0,0.0,0,705.0,1
811,811,0.508827335029704,0.5,1.0,1.0,354.0,577.0,1.0,1,289.0,1
812,812,-0.2520018839161131,-0.3,1.0,0.0,310.0,806.0,0.0,0,734.0,1
813,813,-0.2750225248068662,-0.3,1.0,0.0,441.0,837.0,0.0,0,492.0,1
814,814,-0.8141109535172755,-0.8,0.0,1.0,314.0,535.0,1.0,0,661.0,1
815,815,-0.09813624551772793,-0.1,1.0,0.0,321.0,517.0,1.0,1,1392.0,0
816,816,0.6613300885462651,0.7,1.0,1.0,452.0,603.0,1.0,1,305.0,1
817,817,-0.15132670092501577,-0.2,0.0,1.0,449.0,970.0,1.0,0,281.0,1
818,818,-0.6524555520078335,-0.7,0.0,1.0,455.0,888.0,1.0,0,107.0,1
819,819,0.2622918675389022,0.3,1.0,1.0,307.0,675.0,1.0,1,428.0,1
820,820,-0.1601091241593352,-0.2,1.0,0.0,324.0,645.0,1.0,1,401.0,0
821,821,0.4632638462960924,0.5,1.0,1.0,296.0,861.0,1.0,1,93.0,1
822,822,-0.6957321272898106,-0.7,1.0,0.0,317.0,870.0,0.0,0,373.0,1
823,823,-0.21384961572390737,-0.2,1.0,0.0,489.0,654.0,0.0,0,547.0,1
824,824,0.773117937473926,0.8,1.0,1.0,305.0,663.0,1.0,1,332.0,1
825,825,-0.863237583402897,-0.9,1.0,0.0,492.0,843.0,0.0,0,145.0,1
826,826,-0.06936685433237921,-0.1,1.0,0.0,453.0,505.0,0.0,0,1582.0,1
827,827,-0.20018789665494086,-0.2,0.0,1.0,352.0,748.0,1.0,0,880.0,1
828,828,-0.0887991146894056,-0.1,0.0,1.0,329.0,645.0,1.0,0,476.0,1
829,829,-0.7020008003133247,-0.7,1.0,0.0,475.0,732.0,0.0,0,363.0,1
830,830,0.3088846314222572,0.3,0.0,0.0,299.0,823.0,0.0,1,728.0,1
831,831,-0.6255869727337804,-0.6,1.0,0.0,423.0,722.0,0.0,0,335.0,1
832,832,-0.27332854323971745,-0.3,0.0,1.0,444.0,503.0,1.0,0,663.0,1
833,833,0.1333300105431231,0.1,0.0,0.0,374.0,568.0,0.0,1,438.0,1
834,834,0.21812069577428705,0.2,1.0,1.0,346.0,965.0,1.0,1,1219.0,1
835,835,-0.605731791035548,-0.6,0.0,1.0,441.0,840.0,1.0,0,239.0,1
836,836,0.5520627112641013,0.6,1.0,1.0,309.0,926.0,1.0,1,245.0,1
837,837,-0.21275827950238435,-0.2,0.0,1.0,363.0,737.0,1.0,0,350.0,1
838,838,0.315846449283404,0.3,0.0,0.0,276.0,872.0,0.0,1,262.0,1
839,839,0.6351590000900057,0.6,0.0,0.0,376.0,978.0,0.0,1,406.0,1
840,840,0.5424531834537752,0.5,1.0,1.0,339.0,579.0,1.0,1,422.0,1
841,841,-0.6623643705306443,-0.7,0.0,1.0,326.0,778.0,1.0,0,226.0,1
842,842,-0.25700937950291813,-0.3,1.0,0.0,414.0,772.0,0.0,0,274.0,1
843,843,0.16572820433793323,0.2,1.0,1.0,366.0,638.0,1.0,1,606.0,1
844,844,-0.8795140800166047,-0.9,0.0,1.0,430.0,553.0,1.0,0,597.0,1
845,845,0.28129824574079965,0.3,0.0,0.0,479.0,715.0,0.0,1,826.0,1
846,846,0.2642659023598851,0.3,0.0,0.0,286.0,785.0,0.0,1,539.0,1
847,847,0.12004701741616597,0.1,1.0,1.0,265.0,619.0,1.0,1,766.0,1
848,848,-0.4236852000894305,-0.4,0.0,1.0,293.0,803.0,1.0,0,554.0,1
849,849,-0.8288484700946561,-0.8,1.0,0.0,380.0,974.0,0.0,0,196.0,1
850,850,0.7120207574172811,0.7,0.0,0.0,302.0,837.0,0.0,1,111.0,1
851,851,0.13767352393885102,0.1,0.0,0.0,291.0,755.0,0.0,1,1124.0,1
852,852,-0.3006941876432071,-0.3,1.0,0.0,294.0,563.0,1.0,1,2553.0,0
853,853,-0.7339371717597947,-0.7,0.0,1.0,402.0,725.0,1.0,0,243.0,1
854,854,-0.7717835548392151,-0.8,1.0,0.0,313.0,831.0,0.0,0,106.0,1
855,855,-0.744115839143391,-0.7,0.0,1.0,401.0,843.0,1.0,0,176.0,1
856,856,0.4993582994415783,0.5,0.0,0.0,334.0,783.0,0.0,1,373.0,1
857,857,-0.47846735794670475,-0.5,1.0,0.0,290.0,886.0,0.0,0,1114.0,1
858,858,0.5130684698182334,0.5,0.0,0.0,460.0,750.0,0.0,1,650.0,1
859,859,-0.20036301682661095,-0.2,0.0,1.0,479.0,726.0,1.0,0,345.0,1
860,860,0.5294367800177903,0.5,0.0,0.0,466.0,886.0,0.0,1,378.0,1
861,861,-0.4613847648662026,-0.5,0.0,1.0,456.0,960.0,1.0,0,294.0,1
862,862,-0.0906361414696375,-0.1,0.0,1.0,271.0,568.0,1.0,0,841.0,1
863,863,-0.5196553663421304,-0.5,1.0,0.0,274.0,785.0,0.0,0,871.0,1
864,864,-0.060273222676094584,-0.1,1.0,0.0,322.0,796.0,1.0,1,822.0,0
865,865,-0.05281879928812938,-0.1,0.0,1.0,337.0,936.0,1.0,0,847.0,1
866,866,0.010093361364307607,0.0,1.0,1.0,459.0,810.0,1.0,1,261.0,1
867,867,0.409897814524003,0.4,1.0,1.0,386.0,669.0,1.0,1,235.0,1
868,868,-0.2789080071266269,-0.3,1.0,0.0,445.0,999.0,1.0,1,-54.0,0
869,869,0.4008165231254591,0.4,0.0,0.0,323.0,761.0,0.0,1,466.0,1
870,870,-0.6443253730802427,-0.6,1.0,0.0,307.0,578.0,0.0,0,535.0,1
871,871,0.014041470847909743,0.0,1.0,1.0,328.0,547.0,1.0,1,865.0,1
872,872,-0.7369436863852392,-0.7,1.0,0.0,392.0,810.0,0.0,0,358.0,1
873,873,-0.5237165316162685,-0.5,1.0,0.0,254.0,709.0,0.0,0,467.0,1
874,874,-0.7612455878588951,-0.8,1.0,0.0,361.0,748.0,0.0,0,301.0,1
875,875,-0.1817520758695017,-0.2,1.0,0.0,424.0,994.0,0.0,0,152.0,1
876,876,-0.22305393626587622,-0.2,1.0,0.0,319.0,951.0,1.0,1,-130.0,0
877,877,0.16322929392235153,0.2,0.0,0.0,297.0,751.0,0.0,1,252.0,1
878,878,-0.7774165869693097,-0.8,0.0,1.0,468.0,535.0,1.0,0,427.0,1
879,879,0.3908926186155445,0.4,1.0,1.0,321.0,870.0,1.0,1,129.0,1
880,880,0.5627385695269561,0.6,0.0,0.0,470.0,553.0,0.0,1,327.0,1
881,881,-0.4675446350404577,-0.5,0.0,1.0,256.0,807.0,1.0,0,467.0,1
882,882,0.23165006736148908,0.2,0.0,0.0,268.0,809.0,0.0,1,1213.0,1
883,883,-0.11368904434757343,-0.1,1.0,0.0,467.0,662.0,1.0,1,731.0,0
884,884,-0.07467304035780853,-0.1,0.0,1.0,301.0,799.0,1.0,0,340.0,1
885,885,0.7258233719411592,0.7,0.0,0.0,408.0,645.0,0.0,1,387.0,1
886,886,0.5984236991031534,0.6,0.0,0.0,280.0,739.0,0.0,1,291.0,1
887,887,0.5651535642262916,0.6,0.0,0.0,353.0,968.0,0.0,1,499.0,1
888,888,-0.08720363793885788,-0.1,0.0,1.0,272.0,923.0,1.0,0,355.0,1
889,889,-0.7232617491194006,-0.7,1.0,0.0,442.0,939.0,0.0,0,489.0,1
890,890,-0.7747875837888881,-0.8,1.0,0.0,266.0,654.0,0.0,0,390.0,1
891,891,0.6880861410837168,0.7,1.0,1.0,354.0,773.0,1.0,1,103.0,1
892,892,-0.8103318064926438,-0.8,1.0,0.0,415.0,551.0,0.0,0,474.0,1
893,893,0.7123406253796184,0.7,1.0,1.0,438.0,793.0,1.0,1,229.0,1
894,894,0.7761672728395034,0.8,0.0,0.0,358.0,547.0,0.0,1,355.0,1
895,895,0.721803275874965,0.7,1.0,1.0,326.0,583.0,1.0,1,401.0,1
896,896,-0.7913076064220096,-0.8,1.0,0.0,403.0,536.0,0.0,0,381.0,1
897,897,0.820560488699254,0.8,0.0,0.0,485.0,748.0,0.0,1,247.0,1
898,898,-0.49198438959322494,-0.5,1.0,0.0,421.0,788.0,0.0,0,271.0,1
899,899,-0.4406107365899457,-0.4,1.0,0.0,451.0,693.0,0.0,0,536.0,1
900,900,-0.07960547355883962,-0.1,0.0,1.0,441.0,671.0,1.0,0,638.0,1
901,901,0.7557263779562106,0.8,1.0,1.0,261.0,765.0,1.0,1,324.0,1
902,902,-0.026183039182019252,-0.0,0.0,1.0,289.0,947.0,1.0,0,484.0,1
903,903,0.4111382952103123,0.4,0.0,0.0,320.0,580.0,0.0,1,380.0,1
904,904,-0.11426191304020683,-0.1,1.0,0.0,389.0,518.0,1.0,1,463.0,0
905,905,0.265841088465944,0.3,1.0,1.0,299.0,744.0,1.0,1,587.0,1
906,906,-0.3966967153898955,-0.4,1.0,0.0,288.0,796.0,0.0,0,596.0,1
907,907,-0.35700625634998095,-0.4,0.0,1.0,384.0,979.0,1.0,0,217.0,1
908,908,-0.6408546167198131,-0.6,0.0,1.0,280.0,969.0,1.0,0,371.0,1
909,909,0.6586187314159785,0.7,1.0,1.0,446.0,940.0,1.0,1,164.0,1
910,910,0.5918883436273504,0.6,1.0,1.0,402.0,693.0,1.0,1,365.0,1
911,911,0.23870178253972452,0.2,0.0,0.0,363.0,529.0,1.0,0,998.0,0
912,912,0.23374079951884885,0.2,1.0,1.0,416.0,915.0,1.0,1,1109.0,1
913,913,0.7943334966197054,0.8,1.0,1.0,399.0,625.0,1.0,1,196.0,1
914,914,0.46792259770580935,0.5,1.0,1.0,417.0,592.0,1.0,1,311.0,1
915,915,0.6025690316148978,0.6,1.0,1.0,259.0,888.0,1.0,1,173.0,1
916,916,0.1485436692840899,0.1,0.0,0.0,364.0,675.0,0.0,1,681.0,1
917,917,0.895950721587664,0.9,0.0,0.0,316.0,559.0,0.0,1,255.0,1
918,918,-0.8056019304051049,-0.8,1.0,0.0,435.0,848.0,0.0,0,527.0,1
919,919,-0.7568170626388779,-0.8,0.0,1.0,333.0,680.0,1.0,0,387.0,1
920,920,0.7706790059373242,0.8,0.0,0.0,377.0,957.0,0.0,1,426.0,1
921,921,-0.5655441038952206,-0.6,0.0,1.0,460.0,556.0,1.0,0,504.0,1
922,922,0.8846227158370804,0.9,0.0,0.0,473.0,537.0,0.0,1,430.0,1
923,923,-0.013911987207317122,-0.0,0.0,1.0,375.0,720.0,1.0,0,785.0,1
924,924,0.8268884563089102,0.8,0.0,0.0,337.0,654.0,0.0,1,319.0,1
925,925,-0.513477470633702,-0.5,1.0,0.0,373.0,594.0,0.0,0,513.0,1
926,926,-0.577287452099043,-0.6,0.0,1.0,337.0,850.0,1.0,0,153.0,1
927,927,-0.7707235614210515,-0.8,1.0,0.0,397.0,835.0,0.0,0,218.0,1
928,928,0.3602326944758366,0.4,1.0,1.0,393.0,709.0,1.0,1,358.0,1
929,929,0.616138962101647,0.6,1.0,1.0,266.0,628.0,1.0,1,456.0,1
930,930,0.004000796070588675,0.0,1.0,1.0,320.0,791.0,1.0,1,1539.0,1
931,931,0.8253278638436686,0.8,1.0,1.0,284.0,785.0,1.0,1,121.0,1
932,932,0.22648923013211608,0.2,1.0,1.0,496.0,650.0,1.0,1,434.0,1
933,933,-0.44983729750737866,-0.4,1.0,0.0,331.0,869.0,0.0,0,280.0,1
934,934,-0.19776137654178239,-0.2,0.0,1.0,418.0,634.0,1.0,0,578.0,1
935,935,-0.4465270790129027,-0.4,0.0,1.0,334.0,704.0,1.0,0,382.0,1
936,936,-0.03599203361307546,-0.0,1.0,0.0,268.0,790.0,1.0,1,372.0,0
937,937,0.6549595603555297,0.7,0.0,0.0,450.0,951.0,0.0,1,169.0,1
938,938,-0.03766272456009667,-0.0,0.0,1.0,462.0,811.0,1.0,0,777.0,1
939,939,-0.1516589051382906,-0.2,1.0,0.0,291.0,577.0,0.0,0,1402.0,1
940,940,-0.09080654697541535,-0.1,0.0,1.0,478.0,879.0,1.0,0,203.0,1
941,941,-0.33331388925832195,-0.3,0.0,1.0,382.0,690.0,1.0,0,488.0,1
942,942,0.13711884966127863,0.1,0.0,0.0,471.0,876.0,0.0,1,343.0,1
943,943,0.8258695223136753,0.8,1.0,1.0,410.0,874.0,1.0,1,56.0,1
944,944,0.66102388060484,0.7,1.0,1.0,257.0,518.0,1.0,1,495.0,1
945,945,0.31356012773481556,0.3,1.0,1.0,379.0,576.0,1.0,1,415.0,1
946,946,0.17750171134286086,0.2,1.0,1.0,434.0,813.0,1.0,1,1103.0,1
947,947,0.43956796666660136,0.4,0.0,0.0,391.0,535.0,0.0,1,934.0,1
948,948,0.19345494915506511,0.2,1.0,1.0,309.0,583.0,1.0,1,1498.0,1
949,949,0.2845811752885695,0.3,0.0,0.0,419.0,953.0,0.0,1,848.0,1
950,950,0.48760407736029,0.5,0.0,0.0,406.0,608.0,0.0,1,216.0,1
951,951,0.03196234445646151,0.0,0.0,0.0,351.0,879.0,1.0,0,540.0,0
952,952,-0.7205940692790085,-0.7,1.0,0.0,264.0,969.0,0.0,0,127.0,1
953,953,0.5746794690089164,0.6,1.0,1.0,386.0,875.0,1.0,1,279.0,1
954,954,-0.8810193183895779,-0.9,0.0,1.0,482.0,951.0,1.0,0,77.0,1
955,955,-0.8997876821642438,-0.9,0.0,1.0,403.0,555.0,1.0,0,302.0,1
956,956,0.48672312674223994,0.5,0.0,0.0,436.0,556.0,0.0,1,518.0,1
957,957,-0.8970250836907279,-0.9,1.0,0.0,352.0,756.0,0.0,0,482.0,1
958,958,0.5967260374223943,0.6,1.0,1.0,276.0,980.0,1.0,1,54.0,1
959,959,0.7791438570565695,0.8,0.0,0.0,466.0,872.0,0.0,1,182.0,1
960,960,0.4465967660060891,0.4,0.0,0.0,473.0,638.0,0.0,1,619.0,1
961,961,-0.10680752960067141,-0.1,0.0,1.0,324.0,973.0,1.0,0,93.0,1
962,962,0.5783478581845959,0.6,0.0,0.0,397.0,717.0,0.0,1,326.0,1
963,963,-0.10157922983554202,-0.1,1.0,0.0,397.0,520.0,0.0,0,973.0,1
964,964,0.00440085881934249,0.0,1.0,1.0,276.0,911.0,1.0,1,3123.0,1
965,965,0.6729700183690309,0.7,1.0,1.0,438.0,607.0,1.0,1,385.0,1
966,966,-0.7669542888063752,-0.8,1.0,0.0,274.0,623.0,0.0,0,463.0,1
967,967,-0.20042201454446007,-0.2,1.0,0.0,336.0,866.0,1.0,1,318.0,0
968,968,-0.4219732780102958,-0.4,0.0,1.0,333.0,633.0,1.0,0,334.0,1
969,969,-0.047291480927960095,-0.0,1.0,0.0,412.0,671.0,1.0,1,1537.0,0
970,970,-0.14036851528197825,-0.1,1.0,0.0,277.0,620.0,0.0,0,923.0,1
971,971,0.8236593858958773,0.8,1.0,1.0,371.0,966.0,1.0,1,83.0,1
972,972,0.1701063061434155,0.2,1.0,1.0,460.0,592.0,1.0,1,518.0,1
973,973,-0.5885915690706158,-0.6,1.0,0.0,284.0,777.0,0.0,0,279.0,1
974,974,-0.8170081864810319,-0.8,1.0,0.0,414.0,891.0,0.0,0,185.0,1
975,975,0.7338003608720852,0.7,1.0,1.0,251.0,500.0,1.0,1,389.0,1
976,976,-0.6868426209350966,-0.7,1.0,0.0,361.0,701.0,0.0,0,398.0,1
977,977,-0.5002378485929653,-0.5,0.0,1.0,326.0,655.0,1.0,0,409.0,1
978,978,0.2515330547708511,0.3,1.0,1.0,266.0,725.0,1.0,1,149.0,1
979,979,-0.6160765942298012,-0.6,0.0,1.0,262.0,970.0,1.0,0,58.0,1
980,980,0.3181069510267337,0.3,1.0,1.0,300.0,577.0,1.0,1,703.0,1
981,981,0.4218722431722307,0.4,0.0,0.0,477.0,787.0,0.0,1,566.0,1
982,982,-0.6241051036269931,-0.6,0.0,1.0,469.0,503.0,1.0,0,578.0,1
983,983,0.46058204484093046,0.5,0.0,0.0,260.0,664.0,0.0,1,496.0,1
984,984,0.5082808679689758,0.5,1.0,1.0,290.0,828.0,1.0,1,262.0,1
985,985,-0.6153342470389581,-0.6,1.0,0.0,265.0,867.0,0.0,0,428.0,1
986,986,-0.6474542939203135,-0.6,1.0,0.0,458.0,665.0,0.0,0,427.0,1
987,987,0.3349227979709589,0.3,1.0,1.0,252.0,844.0,1.0,1,334.0,1
988,988,-0.05184393455712355,-0.1,1.0,0.0,377.0,659.0,0.0,0,804.0,1
989,989,-0.11093203482902281,-0.1,0.0,1.0,255.0,506.0,1.0,0,699.0,1
990,990,-0.37704880005312225,-0.4,0.0,1.0,426.0,954.0,1.0,0,210.0,1
991,991,0.4040387640951947,0.4,1.0,1.0,344.0,653.0,1.0,1,443.0,1
992,992,0.5006584925820702,0.5,0.0,0.0,340.0,844.0,0.0,1,176.0,1
993,993,-0.11346613105083392,-0.1,1.0,0.0,308.0,807.0,1.0,1,625.0,0
994,994,0.07532409078464464,0.1,1.0,1.0,381.0,790.0,1.0,1,869.0,1
995,995,0.8679895295621324,0.9,1.0,1.0,313.0,729.0,1.0,1,248.0,1
996,996,-0.48579692195782737,-0.5,1.0,0.0,492.0,607.0,0.0,0,461.0,1
997,997,-0.4798110066186119,-0.5,0.0,1.0,367.0,746.0,1.0,0,317.0,1
998,998,-0.052718666777622936,-0.1,1.0,0.0,439.0,776.0,0.0,0,455.0,1
999,999,-0.22229074842809216,-0.2,0.0,1.0,369.0,712.0,1.0,0,279.0,1
1000,1000,-0.2645882005264881,-0.3,1.0,0.0,332.0,558.0,0.0,0,450.0,1
1001,1001,0.7375614289383875,0.7,1.0,1.0,447.0,919.0,1.0,1,94.0,1
1002,1002,0.5182888719600257,0.5,0.0,0.0,408.0,797.0,0.0,1,465.0,1
1003,1003,0.8535067519360365,0.9,0.0,0.0,470.0,861.0,0.0,1,239.0,1
1004,1004,-0.8900437737757494,-0.9,0.0,1.0,494.0,674.0,1.0,0,222.0,1
1005,1005,0.737004762925738,0.7,0.0,0.0,487.0,508.0,0.0,1,535.0,1
1006,1006,0.6554274321857264,0.7,0.0,0.0,257.0,598.0,0.0,1,315.0,1
1007,1007,0.894632977485161,0.9,0.0,0.0,469.0,701.0,0.0,1,240.0,1
1008,1008,0.8600405464991351,0.9,0.0,0.0,445.0,997.0,0.0,1,198.0,1
1009,1009,-0.27388308518638627,-0.3,1.0,0.0,424.0,813.0,0.0,0,1653.0,1
1010,1010,0.328839053872675,0.3,0.0,0.0,255.0,694.0,0.0,1,391.0,1
1011,1011,0.015595359183825708,0.0,0.0,0.0,378.0,587.0,1.0,0,765.0,0
1012,1012,0.24789445175654368,0.2,1.0,1.0,433.0,616.0,1.0,1,391.0,1
1013,1013,-0.6041105527000885,-0.6,1.0,0.0,357.0,632.0,0.0,0,361.0,1
1014,1014,-0.05072302760932779,-0.1,1.0,0.0,360.0,534.0,1.0,1,1126.0,0
1015,1015,0.844078836554592,0.8,0.0,0.0,374.0,535.0,0.0,1,361.0,1
1016,1016,0.22337580127766843,0.2,0.0,0.0,417.0,942.0,1.0,0,291.0,0
1017,1017,-0.3190435258004112,-0.3,0.0,1.0,256.0,510.0,1.0,0,584.0,1
1018,1018,-0.06553509622615072,-0.1,1.0,0.0,269.0,585.0,1.0,1,1356.0,0
1019,1019,0.5330264821648855,0.5,0.0,0.0,471.0,725.0,0.0,1,384.0,1
1020,1020,-0.5213345728034989,-0.5,1.0,0.0,457.0,627.0,0.0,0,296.0,1
1021,1021,-0.23773798343833508,-0.2,1.0,0.0,388.0,728.0,1.0,1,614.0,0
1022,1022,0.08779672357311041,0.1,0.0,0.0,302.0,581.0,1.0,0,1087.0,0
1023,1023,0.08859369106231985,0.1,1.0,1.0,409.0,650.0,1.0,1,531.0,1
1024,1024,0.7416007601342794,0.7,0.0,0.0,453.0,700.0,0.0,1,187.0,1
1025,1025,-0.7004816988776806,-0.7,1.0,0.0,491.0,569.0,0.0,0,530.0,1
1026,1026,0.8490959806522692,0.8,1.0,1.0,484.0,600.0,1.0,1,346.0,1
1027,1027,-0.3148021624338737,-0.3,1.0,0.0,446.0,536.0,0.0,0,758.0,1
1028,1028,-0.1360761823776654,-0.1,1.0,0.0,315.0,601.0,0.0,0,844.0,1
1029,1029,-0.3325952535201391,-0.3,1.0,0.0,425.0,635.0,0.0,0,990.0,1
1030,1030,-0.4419278812768394,-0.4,1.0,0.0,340.0,823.0,0.0,0,847.0,1
1031,1031,0.8145713508228264,0.8,1.0,1.0,307.0,662.0,1.0,1,261.0,1
1032,1032,0.8907109374431351,0.9,1.0,1.0,273.0,926.0,1.0,1,31.0,1
1033,1033,0.2072297616205362,0.2,1.0,1.0,495.0,975.0,1.0,1,100.0,1
1034,1034,-0.8822956419458706,-0.9,1.0,0.0,260.0,972.0,0.0,0,208.0,1
1035,1035,0.41867911001596736,0.4,0.0,0.0,264.0,642.0,0.0,1,464.0,1
1036,1036,0.851414813074422,0.9,0.0,0.0,396.0,820.0,0.0,1,354.0,1
1037,1037,0.31101303532013447,0.3,0.0,0.0,477.0,525.0,0.0,1,488.0,1
1038,1038,0.7883506952306275,0.8,0.0,0.0,368.0,699.0,0.0,1,423.0,1
1039,1039,0.6010185989934519,0.6,1.0,1.0,486.0,827.0,1.0,1,237.0,1
1040,1040,-0.3653351081960826,-0.4,1.0,0.0,365.0,636.0,0.0,0,619.0,1
1041,1041,0.782315333036773,0.8,0.0,0.0,429.0,884.0,0.0,1,337.0,1
1042,1042,-0.31999273211556123,-0.3,0.0,1.0,390.0,882.0,1.0,0,328.0,1
1043,1043,0.5183006630579251,0.5,0.0,0.0,336.0,575.0,0.0,1,519.0,1
1044,1044,-0.7139500660780188,-0.7,0.0,1.0,322.0,533.0,1.0,0,445.0,1
1045,1045,-0.7726103547132683,-0.8,0.0,1.0,331.0,870.0,1.0,0,219.0,1
1046,1046,-0.39078467835370256,-0.4,0.0,1.0,367.0,550.0,1.0,0,423.0,1
1047,1047,0.215011038316946,0.2,1.0,1.0,386.0,538.0,1.0,1,666.0,1
1048,1048,-0.6486867309880424,-0.6,0.0,1.0,286.0,710.0,1.0,0,584.0,1
1049,1049,0.7728865301753022,0.8,1.0,1.0,360.0,680.0,1.0,1,340.0,1
1050,1050,-0.7133955382715882,-0.7,0.0,1.0,414.0,771.0,1.0,0,295.0,1
1051,1051,-0.24629927699747345,-0.2,1.0,0.0,264.0,548.0,0.0,0,718.0,1
1052,1052,-0.3764003589507424,-0.4,1.0,0.0,372.0,716.0,0.0,0,972.0,1
1053,1053,0.299298702990079,0.3,0.0,0.0,255.0,607.0,1.0,0,1358.0,0
1054,1054,-0.06884294222958476,-0.1,1.0,0.0,266.0,952.0,1.0,1,662.0,0
1055,1055,-0.36039714143197366,-0.4,1.0,0.0,479.0,598.0,0.0,0,663.0,1
1056,1056,-0.5028493368414189,-0.5,1.0,0.0,474.0,715.0,0.0,0,421.0,1
1057,1057,0.567421451831558,0.6,0.0,0.0,295.0,745.0,0.0,1,370.0,1
1058,1058,-0.2177380896093385,-0.2,0.0,1.0,485.0,743.0,1.0,0,852.0,1
1059,1059,0.4714077610222277,0.5,1.0,1.0,307.0,712.0,1.0,1,581.0,1
1060,1060,0.26789449192289905,0.3,0.0,0.0,263.0,949.0,0.0,1,448.0,1
1061,1061,0.8717701559328069,0.9,1.0,1.0,497.0,512.0,1.0,1,471.0,1
1062,1062,0.8026276872772241,0.8,1.0,1.0,461.0,895.0,1.0,1,74.0,1
1063,1063,-0.7197662923808559,-0.7,0.0,1.0,372.0,775.0,1.0,0,343.0,1
1064,1064,-0.8340586538858971,-0.8,0.0,1.0,432.0,611.0,1.0,0,327.0,1
1065,1065,0.5496335038731656,0.5,0.0,0.0,284.0,848.0,0.0,1,268.0,1
1066,1066,0.08776595121417508,0.1,1.0,1.0,455.0,781.0,1.0,1,534.0,1
1067,1067,0.15203571829805596,0.2,0.0,0.0,372.0,702.0,0.0,1,1596.0,1
1068,1068,-0.1741093367190789,-0.2,0.0,1.0,306.0,712.0,1.0,0,462.0,1
1069,1069,-0.24999351588272,-0.2,1.0,0.0,481.0,714.0,0.0,0,545.0,1
1070,1070,0.3687955670696069,0.4,1.0,1.0,400.0,963.0,1.0,1,237.0,1
1071,1071,-0.4283787493246732,-0.4,0.0,1.0,457.0,864.0,1.0,0,279.0,1
1072,1072,0.18177735265624484,0.2,1.0,1.0,310.0,511.0,1.0,1,799.0,1
1073,1073,-0.29410844337460595,-0.3,0.0,1.0,427.0,508.0,1.0,0,715.0,1
1074,1074,0.6323825531630606,0.6,1.0,1.0,484.0,723.0,1.0,1,153.0,1
1075,1075,0.47013363876051073,0.5,1.0,1.0,484.0,870.0,1.0,1,186.0,1
1076,1076,0.13289435386856574,0.1,1.0,1.0,323.0,935.0,1.0,1,172.0,1
1077,1077,0.3437356940363713,0.3,1.0,1.0,342.0,509.0,1.0,1,589.0,1
1078,1078,-0.23939534330138734,-0.2,1.0,0.0,463.0,905.0,0.0,0,82.0,1
1079,1079,0.21626818893550415,0.2,0.0,0.0,454.0,959.0,1.0,0,337.0,0
1080,1080,0.6534994195906024,0.7,0.0,0.0,460.0,870.0,0.0,1,330.0,1
1081,1081,-0.7633813143143446,-0.8,1.0,0.0,284.0,797.0,0.0,0,339.0,1
1082,1082,0.09355376295155415,0.1,0.0,0.0,316.0,643.0,0.0,1,531.0,1
1083,1083,-0.34210491162007317,-0.3,0.0,1.0,298.0,667.0,1.0,0,525.0,1
1084,1084,0.3459205827579602,0.3,0.0,0.0,460.0,642.0,0.0,1,418.0,1
1085,1085,-0.31115390493911665,-0.3,1.0,0.0,337.0,894.0,0.0,0,709.0,1
1086,1086,-0.7008104542267265,-0.7,0.0,1.0,285.0,523.0,1.0,0,462.0,1
1087,1087,0.0742188826480491,0.1,0.0,0.0,481.0,785.0,0.0,1,594.0,1
1088,1088,-0.7729315788355667,-0.8,1.0,0.0,433.0,566.0,0.0,0,401.0,1
1089,1089,-0.3670978485588632,-0.4,1.0,0.0,438.0,724.0,0.0,0,248.0,1
1090,1090,-0.5509815446592174,-0.6,0.0,1.0,482.0,610.0,1.0,0,288.0,1
1091,1091,0.4869754921798678,0.5,0.0,0.0,479.0,719.0,0.0,1,522.0,1
1092,1092,-0.4519890534217049,-0.5,0.0,1.0,460.0,841.0,1.0,0,229.0,1
1093,1093,-0.8327111183290657,-0.8,0.0,1.0,308.0,586.0,1.0,0,366.0,1
1094,1094,-0.8488893206872251,-0.8,0.0,1.0,284.0,877.0,1.0,0,109.0,1
1095,1095,0.4283297930297979,0.4,0.0,0.0,302.0,525.0,0.0,1,463.0,1
1096,1096,-0.39242717799646465,-0.4,0.0,1.0,493.0,717.0,1.0,0,700.0,1
1097,1097,0.7796836391241965,0.8,1.0,1.0,380.0,981.0,1.0,1,119.0,1
1098,1098,0.311749863428037,0.3,0.0,0.0,251.0,907.0,0.0,1,432.0,1
1099,1099,0.25786184991113703,0.3,0.0,0.0,321.0,513.0,0.0,1,506.0,1
1100,1100,0.1916618032434284,0.2,0.0,0.0,285.0,669.0,0.0,1,2166.0,1
1101,1101,0.5174631475312886,0.5,1.0,1.0,360.0,829.0,1.0,1,281.0,1
1102,1102,0.7228553974761062,0.7,1.0,1.0,270.0,871.0,1.0,1,239.0,1
1103,1103,0.7254302833394014,0.7,0.0,0.0,314.0,892.0,0.0,1,394.0,1
1104,1104,0.7396487747861408,0.7,0.0,0.0,482.0,896.0,0.0,1,342.0,1
1105,1105,0.2604031284655258,0.3,1.0,1.0,485.0,680.0,1.0,1,595.0,1
1106,1106,0.4954584443943658,0.5,1.0,1.0,423.0,581.0,1.0,1,296.0,1
1107,1107,0.3279639738314991,0.3,0.0,0.0,443.0,560.0,0.0,1,957.0,1
1108,1108,-0.3195954341234504,-0.3,0.0,1.0,393.0,530.0,1.0,0,717.0,1
1109,1109,0.47566606294332925,0.5,1.0,1.0,411.0,649.0,1.0,1,240.0,1
1110,1110,-0.27858304661148214,-0.3,1.0,0.0,357.0,725.0,0.0,0,308.0,1
1111,1111,-0.6387962635671307,-0.6,1.0,0.0,445.0,759.0,0.0,0,286.0,1
1112,1112,-0.03699542196663663,-0.0,1.0,0.0,407.0,761.0,1.0,1,642.0,0
1113,1113,-0.07358829313303994,-0.1,1.0,0.0,396.0,835.0,1.0,1,1089.0,0
1114,1114,-0.8760988622014789,-0.9,0.0,1.0,454.0,579.0,1.0,0,207.0,1
1115,1115,0.5750308269942016,0.6,0.0,0.0,447.0,557.0,0.0,1,836.0,1
1116,1116,-0.7534032695170397,-0.8,0.0,1.0,353.0,649.0,1.0,0,218.0,1
1117,1117,0.3956316803882852,0.4,0.0,0.0,375.0,898.0,0.0,1,87.0,1
1118,1118,-0.8820290930427142,-0.9,0.0,1.0,255.0,877.0,1.0,0,208.0,1
1119,1119,0.7723183248611644,0.8,0.0,0.0,492.0,846.0,0.0,1,132.0,1
1120,1120,-0.1483711341705498,-0.1,0.0,1.0,462.0,986.0,1.0,0,202.0,1
1121,1121,0.835579265203772,0.8,0.0,0.0,433.0,703.0,0.0,1,274.0,1
1122,1122,-0.21732542576431213,-0.2,0.0,1.0,336.0,812.0,1.0,0,692.0,1
1123,1123,-0.2944369272892976,-0.3,1.0,0.0,405.0,572.0,0.0,0,433.0,1
1124,1124,-0.10469694095205406,-0.1,0.0,1.0,457.0,581.0,1.0,0,602.0,1
1125,1125,-0.1826040837578603,-0.2,0.0,1.0,277.0,822.0,1.0,0,201.0,1
1126,1126,0.2197286054089701,0.2,0.0,0.0,304.0,920.0,0.0,1,36.0,1
1127,1127,-0.6801048965297731,-0.7,1.0,0.0,345.0,819.0,0.0,0,206.0,1
1128,1128,0.7862492266534048,0.8,0.0,0.0,432.0,563.0,0.0,1,315.0,1
1129,1129,-0.7088015527405483,-0.7,0.0,1.0,360.0,654.0,1.0,0,346.0,1
1130,1130,-0.472870592135268,-0.5,1.0,0.0,341.0,925.0,1.0,1,54.0,0
1131,1131,0.2877182461643325,0.3,1.0,1.0,433.0,579.0,1.0,1,298.0,1
1132,1132,0.24447397178568486,0.2,0.0,0.0,323.0,548.0,0.0,1,459.0,1
1133,1133,0.19657379911153405,0.2,0.0,0.0,415.0,840.0,1.0,0,185.0,0
1134,1134,-0.33506443459438306,-0.3,0.0,1.0,331.0,597.0,1.0,0,332.0,1
1135,1135,-0.4564262261402251,-0.5,1.0,0.0,433.0,673.0,0.0,0,564.0,1
1136,1136,-0.20996863754819983,-0.2,1.0,0.0,365.0,976.0,0.0,0,339.0,1
1137,1137,0.24562411664569483,0.2,1.0,1.0,487.0,882.0,1.0,1,341.0,1
1138,1138,0.899275617910993,0.9,0.0,0.0,277.0,718.0,0.0,1,345.0,1
1139,1139,0.22146366526480088,0.2,0.0,0.0,357.0,759.0,0.0,1,464.0,1
1140,1140,0.016598034328186295,0.0,0.0,0.0,480.0,914.0,1.0,0,456.0,0
1141,1141,-0.872989329781736,-0.9,0.0,1.0,404.0,809.0,1.0,0,277.0,1
1142,1142,0.048459729313149236,0.0,1.0,1.0,452.0,732.0,1.0,1,586.0,1
1143,1143,-0.5386219160158572,-0.5,1.0,0.0,253.0,940.0,0.0,0,537.0,1
1144,1144,0.5574302001092372,0.6,1.0,1.0,323.0,994.0,1.0,1,223.0,1
1145,1145,-0.3790333386885497,-0.4,0.0,1.0,328.0,793.0,1.0,0,199.0,1
1146,1146,0.5151754968610377,0.5,0.0,0.0,483.0,636.0,0.0,1,491.0,1
1147,1147,-0.03496065583956065,-0.0,1.0,0.0,270.0,906.0,1.0,1,344.0,0
1148,1148,0.1622828795417378,0.2,1.0,1.0,444.0,576.0,1.0,1,360.0,1
1149,1149,0.3269118400688108,0.3,0.0,0.0,404.0,936.0,0.0,1,1430.0,1
1150,1150,0.3576728905503489,0.4,0.0,0.0,255.0,831.0,0.0,1,724.0,1
1151,1151,-0.043605219141024776,-0.0,0.0,1.0,433.0,928.0,1.0,0,449.0,1
1152,1152,0.49667749204418443,0.5,0.0,0.0,256.0,675.0,0.0,1,459.0,1
1153,1153,-0.0370623403022452,-0.0,0.0,1.0,308.0,874.0,0.0,1,678.0,0
1154,1154,0.8324512118217021,0.8,0.0,0.0,469.0,521.0,0.0,1,460.0,1
1155,1155,0.03457323240635002,0.0,0.0,0.0,482.0,506.0,1.0,0,2872.0,0
1156,1156,-0.663182387251845,-0.7,1.0,0.0,435.0,685.0,0.0,0,240.0,1
1157,1157,-0.06475442007189502,-0.1,1.0,0.0,454.0,935.0,1.0,1,111.0,0
1158,1158,-0.4488004239911321,-0.4,0.0,1.0,350.0,902.0,1.0,0,228.0,1
1159,1159,-0.8237645968482852,-0.8,0.0,1.0,448.0,661.0,1.0,0,281.0,1
1160,1160,-0.8024091063591813,-0.8,0.0,1.0,327.0,633.0,1.0,0,250.0,1
1161,1161,0.638422970056652,0.6,1.0,1.0,463.0,559.0,1.0,1,368.0,1
1162,1162,-0.36148503737981386,-0.4,1.0,0.0,452.0,742.0,0.0,0,156.0,1
1163,1163,0.10064943150648376,0.1,0.0,0.0,375.0,627.0,1.0,0,728.0,0
1164,1164,-0.2758525433853334,-0.3,0.0,1.0,420.0,993.0,1.0,0,217.0,1
1165,1165,-0.5389674102060034,-0.5,1.0,0.0,482.0,767.0,0.0,0,181.0,1
1166,1166,-0.4787965760274851,-0.5,1.0,0.0,301.0,663.0,0.0,0,996.0,1
1167,1167,0.5360303879611573,0.5,0.0,0.0,420.0,763.0,0.0,1,417.0,1
1168,1168,0.8026402967387186,0.8,0.0,0.0,370.0,901.0,0.0,1,179.0,1
1169,1169,0.5311374086368182,0.5,0.0,0.0,344.0,558.0,0.0,1,328.0,1
1170,1170,0.3554864521052813,0.4,1.0,1.0,466.0,720.0,1.0,1,474.0,1
1171,1171,-0.32972219057942465,-0.3,0.0,1.0,470.0,919.0,1.0,0,491.0,1
1172,1172,0.5418523573777972,0.5,1.0,1.0,367.0,517.0,1.0,1,436.0,1
1173,1173,0.020198979939024975,0.0,0.0,0.0,479.0,594.0,1.0,0,897.0,0
1174,1174,-0.7333206793309215,-0.7,0.0,1.0,267.0,988.0,1.0,0,145.0,1
1175,1175,0.6268171073975001,0.6,0.0,0.0,437.0,646.0,0.0,1,877.0,1
1176,1176,0.7826784861056656,0.8,1.0,1.0,261.0,530.0,1.0,1,399.0,1
1177,1177,-0.6418412235637279,-0.6,0.0,1.0,332.0,949.0,1.0,0,339.0,1
1178,1178,-0.061967989591815154,-0.1,1.0,0.0,497.0,778.0,1.0,1,595.0,0
1179,1179,0.829654995239432,0.8,1.0,1.0,418.0,560.0,1.0,1,272.0,1
1180,1180,0.6052468747473668,0.6,0.0,0.0,334.0,941.0,0.0,1,675.0,1
1181,1181,-0.7832662530282793,-0.8,1.0,0.0,320.0,539.0,0.0,0,211.0,1
1182,1182,-0.2856324201614242,-0.3,0.0,1.0,280.0,641.0,1.0,0,799.0,1
1183,1183,0.8152712566920229,0.8,0.0,0.0,283.0,668.0,0.0,1,349.0,1
1184,1184,-0.09760767211016308,-0.1,1.0,0.0,445.0,793.0,0.0,0,552.0,1
1185,1185,0.7121754244077855,0.7,1.0,1.0,322.0,568.0,1.0,1,350.0,1
1186,1186,0.20008114611110417,0.2,0.0,0.0,340.0,700.0,1.0,0,220.0,0
1187,1187,-0.5121812267256963,-0.5,1.0,0.0,324.0,867.0,0.0,0,269.0,1
1188,1188,0.21102520364234467,0.2,1.0,1.0,473.0,931.0,1.0,1,856.0,1
1189,1189,-0.679046442618173,-0.7,0.0,1.0,362.0,899.0,1.0,0,109.0,1
1190,1190,-0.8765715921358881,-0.9,1.0,0.0,450.0,613.0,0.0,0,307.0,1
1191,1191,0.26705453634691223,0.3,0.0,0.0,467.0,970.0,1.0,0,593.0,0
1192,1192,-0.6109455048742445,-0.6,0.0,1.0,409.0,603.0,1.0,0,398.0,1
1193,1193,0.6598999880542088,0.7,0.0,0.0,450.0,519.0,0.0,1,501.0,1
1194,1194,0.516632328963131,0.5,0.0,0.0,332.0,808.0,0.0,1,260.0,1
1195,1195,0.23146103740506507,0.2,0.0,0.0,497.0,972.0,0.0,1,391.0,1
1196,1196,-0.8917452014615308,-0.9,1.0,0.0,299.0,526.0,0.0,0,255.0,1
1197,1197,0.4040170302263578,0.4,1.0,1.0,326.0,814.0,1.0,1,210.0,1
1198,1198,-0.08953705320922012,-0.1,0.0,1.0,297.0,572.0,1.0,0,681.0,1
1199,1199,-0.43348107529373353,-0.4,0.0,1.0,263.0,944.0,1.0,0,183.0,1
1200,1200,-0.011807057114116892,-0.0,0.0,1.0,430.0,691.0,1.0,0,169.0,1
1201,1201,-0.3016259168318296,-0.3,1.0,0.0,396.0,738.0,0.0,0,656.0,1
1202,1202,-0.02655039771158918,-0.0,0.0,1.0,290.0,641.0,0.0,1,1969.0,0
1203,1203,-0.17334674782179704,-0.2,0.0,1.0,272.0,821.0,1.0,0,227.0,1
1204,1204,-0.03004981047476929,-0.0,0.0,1.0,461.0,885.0,1.0,0,2154.0,1
1205,1205,-0.2605373175583454,-0.3,1.0,0.0,468.0,691.0,1.0,1,191.0,0
1206,1206,0.20692382169524637,0.2,1.0,1.0,266.0,877.0,1.0,1,387.0,1
1207,1207,0.5988145865908688,0.6,0.0,0.0,341.0,548.0,0.0,1,441.0,1
1208,1208,-0.6696488831377541,-0.7,0.0,1.0,402.0,881.0,1.0,0,87.0,1
1209,1209,0.7712251399538764,0.8,0.0,0.0,282.0,915.0,0.0,1,313.0,1
1210,1210,0.4405446097692932,0.4,0.0,0.0,397.0,605.0,0.0,1,348.0,1
1211,1211,0.8415403096426727,0.8,0.0,0.0,423.0,892.0,0.0,1,485.0,1
1212,1212,0.25405570240062303,0.3,1.0,1.0,334.0,504.0,1.0,1,482.0,1
1213,1213,0.7785477962310917,0.8,0.0,0.0,351.0,718.0,0.0,1,231.0,1
1214,1214,0.8647570083550841,0.9,1.0,1.0,480.0,702.0,1.0,1,468.0,1
1215,1215,-0.8919457219891841,-0.9,1.0,0.0,451.0,728.0,0.0,0,241.0,1
1216,1216,-0.024328327271321726,-0.0,0.0,1.0,474.0,669.0,0.0,1,817.0,0
1217,1217,-0.08718129387107887,-0.1,1.0,0.0,297.0,635.0,0.0,0,1038.0,1
1218,1218,0.02138705606906799,0.0,1.0,1.0,439.0,931.0,1.0,1,450.0,1
1219,1219,0.6982162016129333,0.7,0.0,0.0,478.0,746.0,0.0,1,116.0,1
1220,1220,-0.6543643548666975,-0.7,0.0,1.0,451.0,561.0,1.0,0,268.0,1
1221,1221,0.6160339498716091,0.6,1.0,1.0,350.0,742.0,1.0,1,268.0,1
1222,1222,-0.21620806948861426,-0.2,0.0,1.0,272.0,606.0,1.0,0,602.0,1
1223,1223,0.17655403233686717,0.2,0.0,0.0,295.0,589.0,1.0,0,1696.0,0
1224,1224,-0.045501172299760806,-0.0,1.0,0.0,490.0,657.0,1.0,1,1603.0,0
1225,1225,-0.6819162900506143,-0.7,0.0,1.0,370.0,929.0,1.0,0,201.0,1
1226,1226,-0.23897984640111303,-0.2,1.0,0.0,359.0,787.0,0.0,0,1914.0,1
1227,1227,0.5980299453577026,0.6,0.0,0.0,264.0,828.0,0.0,1,428.0,1
1228,1228,-0.586347552270436,-0.6,0.0,1.0,475.0,986.0,1.0,0,639.0,1
1229,1229,0.6153357050222,0.6,0.0,0.0,256.0,967.0,0.0,1,277.0,1
1230,1230,0.016901502726793804,0.0,1.0,1.0,462.0,875.0,1.0,1,193.0,1
1231,1231,-0.05145398867251705,-0.1,0.0,1.0,424.0,764.0,1.0,0,1482.0,1
1232,1232,0.09409464190817574,0.1,0.0,0.0,300.0,978.0,0.0,1,1012.0,1
1233,1233,0.08624426062712154,0.1,0.0,0.0,498.0,990.0,1.0,0,182.0,0
1234,1234,0.06798448319477535,0.1,0.0,0.0,431.0,829.0,1.0,0,960.0,0
1235,1235,0.21954710634060126,0.2,1.0,1.0,364.0,507.0,0.0,0,939.0,0
1236,1236,0.16761089329427292,0.2,0.0,0.0,266.0,884.0,1.0,0,1940.0,0
1237,1237,-0.038775769796987825,-0.0,0.0,1.0,270.0,810.0,1.0,0,550.0,1
1238,1238,0.27161442979182737,0.3,1.0,1.0,263.0,944.0,1.0,1,393.0,1
1239,1239,-0.43682735066139655,-0.4,0.0,1.0,423.0,675.0,1.0,0,452.0,1
1240,1240,0.08574714820157125,0.1,0.0,0.0,334.0,977.0,1.0,0,929.0,0
1241,1241,-0.630458610987161,-0.6,0.0,1.0,314.0,734.0,1.0,0,332.0,1
1242,1242,-0.873806725302069,-0.9,1.0,0.0,439.0,733.0,0.0,0,288.0,1
1243,1243,-0.6046665377206984,-0.6,1.0,0.0,484.0,807.0,0.0,0,299.0,1
1244,1244,-0.17395373550971305,-0.2,0.0,1.0,467.0,819.0,1.0,0,174.0,1
1245,1245,0.4444913521854442,0.4,1.0,1.0,343.0,601.0,1.0,1,816.0,1
1246,1246,0.752865701886355,0.8,1.0,1.0,474.0,847.0,1.0,1,249.0,1
1247,1247,-0.4438760826672721,-0.4,0.0,1.0,499.0,779.0,1.0,0,162.0,1
1248,1248,0.46867813155061955,0.5,0.0,0.0,390.0,980.0,0.0,1,350.0,1
1249,1249,0.6949710195200133,0.7,0.0,0.0,271.0,676.0,0.0,1,403.0,1
1250,1250,0.812942703613574,0.8,0.0,0.0,314.0,994.0,0.0,1,212.0,1
1251,1251,0.04735796017870708,0.0,0.0,0.0,333.0,839.0,1.0,0,348.0,0
1252,1252,0.6954535838322501,0.7,0.0,0.0,442.0,618.0,0.0,1,580.0,1
1253,1253,0.4662002646537763,0.5,0.0,0.0,411.0,805.0,0.0,1,384.0,1
1254,1254,0.7433729268086285,0.7,1.0,1.0,438.0,576.0,1.0,1,366.0,1
1255,1255,-0.18470325973916135,-0.2,0.0,1.0,465.0,654.0,1.0,0,711.0,1
1256,1256,-0.40134927942015725,-0.4,0.0,1.0,303.0,697.0,1.0,0,360.0,1
1257,1257,-0.36981931884461117,-0.4,1.0,0.0,394.0,518.0,0.0,0,578.0,1
1258,1258,0.38878399767013405,0.4,0.0,0.0,492.0,912.0,0.0,1,296.0,1
1259,1259,0.3919689455760308,0.4,0.0,0.0,391.0,835.0,0.0,1,464.0,1
1260,1260,0.34806361471899316,0.3,0.0,0.0,339.0,626.0,0.0,1,405.0,1
1261,1261,-0.7932854386843962,-0.8,1.0,0.0,296.0,521.0,0.0,0,333.0,1
1262,1262,-0.23550417099224008,-0.2,0.0,1.0,477.0,683.0,1.0,0,690.0,1
1263,1263,-0.49724439798006287,-0.5,0.0,1.0,362.0,842.0,1.0,0,556.0,1
1264,1264,-0.7615216787320482,-0.8,1.0,0.0,498.0,679.0,0.0,0,503.0,1
1265,1265,-0.0650338473900377,-0.1,0.0,1.0,375.0,704.0,1.0,0,861.0,1
1266,1266,0.2634006012032758,0.3,0.0,0.0,331.0,860.0,0.0,1,459.0,1
1267,1267,0.4855487461048439,0.5,0.0,0.0,474.0,799.0,0.0,1,977.0,1
1268,1268,-0.4062802757975054,-0.4,1.0,0.0,426.0,525.0,0.0,0,479.0,1
1269,1269,-0.6249868855680603,-0.6,0.0,1.0,379.0,752.0,1.0,0,199.0,1
1270,1270,-0.5150606460783488,-0.5,0.0,1.0,397.0,794.0,1.0,0,249.0,1
1271,1271,0.4566352507990924,0.5,0.0,0.0,415.0,854.0,0.0,1,111.0,1
1272,1272,-0.3253972971020538,-0.3,1.0,0.0,499.0,779.0,0.0,0,292.0,1
1273,1273,0.7195979280915225,0.7,0.0,0.0,359.0,670.0,0.0,1,621.0,1
1274,1274,-0.18249964183160183,-0.2,0.0,1.0,340.0,821.0,1.0,0,339.0,1
1275,1275,-0.3212684241005519,-0.3,1.0,0.0,414.0,725.0,0.0,0,251.0,1
1276,1276,-0.7856235176648227,-0.8,1.0,0.0,441.0,833.0,0.0,0,246.0,1
1277,1277,-0.6278224679626745,-0.6,0.0,1.0,472.0,617.0,1.0,0,371.0,1
1278,1278,-0.13946312717811538,-0.1,1.0,0.0,362.0,844.0,1.0,1,484.0,0
1279,1279,-0.8617315274017417,-0.9,1.0,0.0,448.0,954.0,0.0,0,178.0,1
1280,1280,-0.39664339861703657,-0.4,1.0,0.0,269.0,988.0,0.0,0,253.0,1
1281,1281,-0.34440010256110987,-0.3,1.0,0.0,397.0,723.0,0.0,0,480.0,1
1282,1282,0.1493161560865638,0.1,1.0,1.0,473.0,740.0,1.0,1,377.0,1
1283,1283,0.12402482133825321,0.1,1.0,1.0,287.0,675.0,1.0,1,618.0,1
1284,1284,0.8131487091975959,0.8,0.0,0.0,406.0,542.0,0.0,1,482.0,1
1285,1285,0.29161290953819063,0.3,0.0,0.0,337.0,750.0,0.0,1,1123.0,1
1286,1286,0.3974559995409489,0.4,0.0,0.0,400.0,565.0,0.0,1,525.0,1
1287,1287,0.5613943893405674,0.6,0.0,0.0,363.0,511.0,0.0,1,446.0,1
1288,1288,0.19977836687436656,0.2,0.0,0.0,277.0,888.0,0.0,1,105.0,1
1289,1289,0.5986015500066019,0.6,0.0,0.0,484.0,569.0,0.0,1,317.0,1
1290,1290,-0.7346687348617279,-0.7,1.0,0.0,282.0,920.0,0.0,0,188.0,1
1291,1291,0.08473840960497148,0.1,1.0,1.0,286.0,994.0,1.0,1,180.0,1
1292,1292,-0.19539416034406054,-0.2,1.0,0.0,276.0,871.0,0.0,0,533.0,1
1293,1293,-0.059691478626332506,-0.1,0.0,1.0,361.0,857.0,1.0,0,682.0,1
1294,1294,-0.1261092120261319,-0.1,1.0,0.0,344.0,817.0,0.0,0,759.0,1
1295,1295,-0.61723328028398,-0.6,1.0,0.0,298.0,680.0,0.0,0,302.0,1
1296,1296,-0.7202080610047721,-0.7,0.0,1.0,281.0,633.0,1.0,0,546.0,1
1297,1297,-0.2482269273600396,-0.2,0.0,1.0,318.0,788.0,1.0,0,234.0,1
1298,1298,-0.0015760625424391383,-0.0,0.0,1.0,266.0,522.0,1.0,0,992.0,1
1299,1299,0.7706754549347207,0.8,0.0,0.0,332.0,944.0,0.0,1,184.0,1
1300,1300,-0.2437493163842106,-0.2,0.0,1.0,458.0,856.0,1.0,0,96.0,1
1301,1301,-0.4023297596437178,-0.4,0.0,1.0,483.0,708.0,1.0,0,249.0,1
1302,1302,-0.4315607414036828,-0.4,1.0,0.0,483.0,797.0,0.0,0,280.0,1
1303,1303,0.7931102740455568,0.8,0.0,0.0,368.0,595.0,0.0,1,277.0,1
1304,1304,-0.8743048934905265,-0.9,0.0,1.0,440.0,998.0,1.0,0,52.0,1
1305,1305,0.2731284064142482,0.3,0.0,0.0,294.0,748.0,0.0,1,518.0,1
1306,1306,-0.12274041853637907,-0.1,1.0,0.0,417.0,748.0,1.0,1,2335.0,0
1307,1307,0.5000209158215833,0.5,1.0,1.0,451.0,574.0,1.0,1,435.0,1
1308,1308,-0.00811121906670853,-0.0,1.0,0.0,443.0,976.0,1.0,1,661.0,0
1309,1309,-0.027019821014623413,-0.0,1.0,0.0,461.0,894.0,0.0,0,185.0,1
1310,1310,-0.5583060931207966,-0.6,0.0,1.0,441.0,788.0,1.0,0,181.0,1
1311,1311,0.6092200761017806,0.6,0.0,0.0,439.0,997.0,0.0,1,234.0,1
1312,1312,-0.3311406793537788,-0.3,0.0,1.0,299.0,898.0,1.0,0,133.0,1
1313,1313,-0.05000276796617065,-0.1,1.0,0.0,293.0,746.0,1.0,1,1131.0,0
1314,1314,0.2881235155504124,0.3,0.0,0.0,336.0,646.0,0.0,1,528.0,1
1315,1315,-0.19491912051830496,-0.2,1.0,0.0,392.0,506.0,0.0,0,532.0,1
1316,1316,-0.09419272960124658,-0.1,0.0,1.0,394.0,786.0,1.0,0,440.0,1
1317,1317,0.3209771929247257,0.3,1.0,1.0,382.0,942.0,1.0,1,376.0,1
1318,1318,0.44113415443723747,0.4,0.0,0.0,428.0,747.0,0.0,1,215.0,1
1319,1319,0.886535145092095,0.9,1.0,1.0,301.0,594.0,1.0,1,255.0,1
1320,1320,0.499132607090622,0.5,0.0,0.0,475.0,557.0,0.0,1,1128.0,1
1321,1321,0.4564168731608905,0.5,1.0,1.0,335.0,631.0,1.0,1,504.0,1
1322,1322,-0.7623796109386711,-0.8,1.0,0.0,420.0,650.0,0.0,0,310.0,1
1323,1323,-0.09253025045783037,-0.1,1.0,0.0,374.0,611.0,1.0,1,2135.0,0
1324,1324,0.2618282195373348,0.3,1.0,1.0,288.0,581.0,1.0,1,371.0,1
1325,1325,-0.32027422760476687,-0.3,1.0,0.0,334.0,634.0,0.0,0,422.0,1
1326,1326,0.5290337503478982,0.5,0.0,0.0,388.0,993.0,0.0,1,429.0,1
1327,1327,-0.779407696813317,-0.8,1.0,0.0,427.0,906.0,0.0,0,157.0,1
1328,1328,0.37305458634862954,0.4,0.0,0.0,302.0,706.0,0.0,1,552.0,1
1329,1329,-0.7091270115075806,-0.7,1.0,0.0,296.0,805.0,0.0,0,469.0,1
1330,1330,0.21883542811782053,0.2,0.0,0.0,370.0,911.0,1.0,0,389.0,0
1331,1331,-0.8434235259778383,-0.8,0.0,1.0,404.0,962.0,1.0,0,24.0,1
1332,1332,-0.34104906758764275,-0.3,0.0,1.0,436.0,662.0,1.0,0,562.0,1
1333,1333,-0.7123858857122485,-0.7,1.0,0.0,365.0,836.0,0.0,0,189.0,1
1334,1334,0.060149178486808674,0.1,1.0,1.0,350.0,648.0,0.0,0,1302.0,0
1335,1335,0.7849569915872402,0.8,1.0,1.0,323.0,825.0,1.0,1,112.0,1
1336,1336,-0.16154509842546072,-0.2,1.0,0.0,269.0,556.0,0.0,0,965.0,1
1337,1337,0.07511110390083142,0.1,0.0,0.0,315.0,587.0,1.0,0,958.0,0
1338,1338,-0.6738532948050863,-0.7,0.0,1.0,493.0,925.0,1.0,0,352.0,1
1339,1339,0.068177363953692,0.1,0.0,0.0,346.0,533.0,0.0,1,1081.0,1
1340,1340,0.7619367155685514,0.8,1.0,1.0,483.0,766.0,1.0,1,131.0,1
1341,1341,-0.3392284325714746,-0.3,0.0,1.0,298.0,622.0,1.0,0,230.0,1
1342,1342,-0.8909557800160055,-0.9,1.0,0.0,338.0,762.0,0.0,0,490.0,1
1343,1343,0.6684874186012594,0.7,1.0,1.0,360.0,763.0,1.0,1,237.0,1
1344,1344,0.5237362191105385,0.5,0.0,0.0,413.0,669.0,0.0,1,588.0,1
1345,1345,-0.6931587521917569,-0.7,1.0,0.0,391.0,520.0,0.0,0,659.0,1
1346,1346,0.6909850515519732,0.7,0.0,0.0,321.0,637.0,0.0,1,342.0,1
1347,1347,-0.8799112135243283,-0.9,1.0,0.0,420.0,731.0,0.0,0,189.0,1
1348,1348,-0.17516398010011713,-0.2,0.0,1.0,362.0,645.0,1.0,0,433.0,1
1349,1349,0.8357073934573634,0.8,1.0,1.0,420.0,967.0,1.0,1,173.0,1
1350,1350,-0.01839105836933197,-0.0,0.0,1.0,369.0,953.0,0.0,1,128.0,0
1351,1351,0.36078285506214136,0.4,0.0,0.0,272.0,602.0,0.0,1,516.0,1
1352,1352,-0.7897488705817598,-0.8,1.0,0.0,355.0,585.0,0.0,0,520.0,1
1353,1353,-0.37009911568067055,-0.4,1.0,0.0,322.0,745.0,0.0,0,323.0,1
1354,1354,0.3369603635733146,0.3,1.0,1.0,302.0,630.0,1.0,1,788.0,1
1355,1355,0.7031210000708784,0.7,0.0,0.0,393.0,590.0,0.0,1,377.0,1
1356,1356,-0.6067279302628239,-0.6,1.0,0.0,311.0,836.0,0.0,0,493.0,1
1357,1357,0.7168358262208513,0.7,1.0,1.0,454.0,788.0,1.0,1,298.0,1
1358,1358,0.5279796420990667,0.5,1.0,1.0,313.0,825.0,1.0,1,472.0,1
1359,1359,0.6969843787037738,0.7,1.0,1.0,300.0,745.0,1.0,1,155.0,1
1360,1360,-0.7257066544000952,-0.7,1.0,0.0,302.0,505.0,0.0,0,523.0,1
1361,1361,0.8248372463607018,0.8,1.0,1.0,398.0,731.0,1.0,1,281.0,1
1362,1362,0.5346256122714609,0.5,1.0,1.0,498.0,563.0,1.0,1,559.0,1
1363,1363,0.6859375261434829,0.7,1.0,1.0,425.0,975.0,1.0,1,80.0,1
1364,1364,-0.2803648390790032,-0.3,1.0,0.0,275.0,677.0,0.0,0,298.0,1
1365,1365,-0.32967879270061706,-0.3,0.0,1.0,310.0,889.0,1.0,0,131.0,1
1366,1366,-0.46124638768502263,-0.5,1.0,0.0,476.0,814.0,0.0,0,90.0,1
1367,1367,0.47404202279814733,0.5,1.0,1.0,260.0,541.0,1.0,1,389.0,1
1368,1368,-0.5074668673256163,-0.5,1.0,0.0,328.0,793.0,0.0,0,409.0,1
1369,1369,0.8308195422058003,0.8,0.0,0.0,450.0,579.0,0.0,1,661.0,1
1370,1370,0.7450101846382596,0.7,1.0,1.0,268.0,646.0,1.0,1,396.0,1
1371,1371,-0.17298434654273542,-0.2,1.0,0.0,361.0,998.0,0.0,0,441.0,1
1372,1372,-0.5546141510267721,-0.6,1.0,0.0,382.0,606.0,0.0,0,502.0,1
1373,1373,0.08454601545048956,0.1,1.0,1.0,269.0,969.0,1.0,1,222.0,1
1374,1374,-0.863843589029239,-0.9,0.0,1.0,276.0,765.0,1.0,0,649.0,1
1375,1375,0.6829579339192126,0.7,1.0,1.0,447.0,833.0,1.0,1,250.0,1
1376,1376,-0.6561618391726984,-0.7,1.0,0.0,327.0,811.0,0.0,0,102.0,1
1377,1377,-0.6260740924506304,-0.6,1.0,0.0,447.0,834.0,0.0,0,269.0,1
1378,1378,0.6450168605954608,0.6,0.0,0.0,276.0,811.0,0.0,1,363.0,1
1379,1379,0.15884487562785832,0.2,0.0,0.0,303.0,589.0,0.0,1,758.0,1
1380,1380,0.778702966328643,0.8,0.0,0.0,325.0,539.0,0.0,1,516.0,1
1381,1381,0.6299184269566022,0.6,0.0,0.0,490.0,913.0,0.0,1,247.0,1
1382,1382,-0.15780556131443912,-0.2,1.0,0.0,428.0,502.0,0.0,0,1650.0,1
1383,1383,0.8525534875366553,0.9,0.0,0.0,427.0,882.0,0.0,1,181.0,1
1384,1384,-0.16829904628827563,-0.2,0.0,1.0,301.0,898.0,1.0,0,221.0,1
1385,1385,0.749256238019763,0.7,1.0,1.0,255.0,749.0,1.0,1,546.0,1
1386,1386,-0.7366613936033141,-0.7,1.0,0.0,287.0,555.0,0.0,0,368.0,1
1387,1387,-0.5597711100035097,-0.6,0.0,1.0,389.0,541.0,1.0,0,520.0,1
1388,1388,0.4901876711719998,0.5,0.0,0.0,478.0,788.0,0.0,1,674.0,1
1389,1389,-0.6612055167311905,-0.7,1.0,0.0,367.0,696.0,0.0,0,227.0,1
1390,1390,0.28724205937451475,0.3,0.0,0.0,257.0,974.0,0.0,1,489.0,1
1391,1391,-0.3109420107399292,-0.3,1.0,0.0,353.0,521.0,0.0,0,486.0,1
1392,1392,-0.8226521096854408,-0.8,1.0,0.0,402.0,705.0,0.0,0,323.0,1
1393,1393,0.5802184528599127,0.6,1.0,1.0,408.0,748.0,1.0,1,264.0,1
1394,1394,-0.27936228067718527,-0.3,0.0,1.0,481.0,561.0,1.0,0,778.0,1
1395,1395,-0.45541856091353355,-0.5,0.0,1.0,482.0,697.0,1.0,0,451.0,1
1396,1396,0.3567680449639806,0.4,1.0,1.0,489.0,545.0,1.0,1,596.0,1
1397,1397,0.6455678778578787,0.6,1.0,1.0,496.0,662.0,1.0,1,272.0,1
1398,1398,-0.3299895946893915,-0.3,0.0,1.0,347.0,671.0,1.0,0,462.0,1
1399,1399,0.3003225853649495,0.3,1.0,1.0,363.0,579.0,1.0,1,528.0,1
1400,1400,-0.6654445834154681,-0.7,0.0,1.0,348.0,948.0,1.0,0,94.0,1
1401,1401,-0.8547955097365199,-0.9,1.0,0.0,309.0,755.0,0.0,0,136.0,1
1402,1402,0.30135823895825375,0.3,0.0,0.0,467.0,600.0,0.0,1,643.0,1
1403,1403,0.2073057119002345,0.2,0.0,0.0,478.0,994.0,1.0,0,-22.0,0
1404,1404,-0.6992639684413382,-0.7,1.0,0.0,420.0,978.0,0.0,0,312.0,1
1405,1405,0.33267513763400436,0.3,1.0,1.0,365.0,930.0,1.0,1,115.0,1
1406,1406,-0.1082293700374437,-0.1,1.0,0.0,312.0,806.0,0.0,0,1352.0,1
1407,1407,-0.36926295960747313,-0.4,1.0,0.0,495.0,910.0,0.0,0,475.0,1
1408,1408,0.7653383420955723,0.8,0.0,0.0,423.0,707.0,0.0,1,410.0,1
1409,1409,-0.3357775596096393,-0.3,0.0,1.0,300.0,556.0,1.0,0,324.0,1
1410,1410,0.26950358794156737,0.3,0.0,0.0,272.0,642.0,1.0,0,786.0,0
1411,1411,0.6443428910653278,0.6,0.0,0.0,448.0,764.0,0.0,1,378.0,1
1412,1412,0.31688704298336157,0.3,1.0,1.0,386.0,623.0,1.0,1,991.0,1
1413,1413,0.8452454357852627,0.8,0.0,0.0,346.0,651.0,0.0,1,363.0,1
1414,1414,-0.7072040842778011,-0.7,0.0,1.0,260.0,808.0,1.0,0,262.0,1
1415,1415,0.826472273358808,0.8,1.0,1.0,495.0,736.0,1.0,1,259.0,1
1416,1416,-0.0543644414119151,-0.1,0.0,1.0,442.0,755.0,1.0,0,433.0,1
1417,1417,-0.1541232574704151,-0.2,1.0,0.0,272.0,747.0,1.0,1,2081.0,0
1418,1418,-0.2011904351275251,-0.2,0.0,1.0,442.0,915.0,1.0,0,393.0,1
1419,1419,0.5869613009821196,0.6,1.0,1.0,348.0,515.0,1.0,1,437.0,1
1420,1420,0.4803192931023076,0.5,0.0,0.0,468.0,980.0,0.0,1,822.0,1
1421,1421,0.6893744618380758,0.7,0.0,0.0,417.0,504.0,0.0,1,449.0,1
1422,1422,0.5570339089001902,0.6,1.0,1.0,406.0,798.0,1.0,1,176.0,1
1423,1423,-0.30797129313183036,-0.3,1.0,0.0,338.0,954.0,0.0,0,128.0,1
1424,1424,-0.27775432291669866,-0.3,1.0,0.0,382.0,620.0,0.0,0,308.0,1
1425,1425,-0.4979791290950794,-0.5,0.0,1.0,387.0,863.0,1.0,0,100.0,1
1426,1426,0.39490920297483656,0.4,1.0,1.0,272.0,650.0,1.0,1,418.0,1
1427,1427,0.017769252602982455,0.0,1.0,1.0,305.0,837.0,1.0,1,1648.0,1
1428,1428,0.6252524424456231,0.6,1.0,1.0,319.0,509.0,1.0,1,432.0,1
1429,1429,0.34000129058190687,0.3,0.0,0.0,447.0,653.0,0.0,1,860.0,1
1430,1430,-0.8976514407943147,-0.9,1.0,0.0,330.0,512.0,0.0,0,408.0,1
1431,1431,0.8794449701661603,0.9,1.0,1.0,282.0,846.0,1.0,1,152.0,1
1432,1432,-0.315819884624428,-0.3,0.0,1.0,408.0,571.0,1.0,0,541.0,1
1433,1433,0.03168494142879985,0.0,0.0,0.0,378.0,693.0,0.0,1,2339.0,1
1434,1434,0.2268451546332101,0.2,0.0,0.0,493.0,673.0,1.0,0,624.0,0
1435,1435,-0.3325138212567966,-0.3,1.0,0.0,470.0,582.0,1.0,1,1328.0,0
1436,1436,-0.4179321019716079,-0.4,1.0,0.0,275.0,735.0,0.0,0,340.0,1
1437,1437,-0.4543655974892373,-0.5,1.0,0.0,441.0,826.0,0.0,0,173.0,1
1438,1438,0.2826340992009707,0.3,0.0,0.0,292.0,660.0,0.0,1,828.0,1
1439,1439,-0.8658353654578576,-0.9,1.0,0.0,406.0,816.0,0.0,0,128.0,1
1440,1440,0.23958925485052485,0.2,0.0,0.0,433.0,774.0,1.0,0,993.0,0
1441,1441,0.5124721014895505,0.5,0.0,0.0,292.0,513.0,0.0,1,485.0,1
1442,1442,0.5414329974797621,0.5,1.0,1.0,447.0,968.0,1.0,1,145.0,1
1443,1443,0.40367763332539985,0.4,1.0,1.0,370.0,817.0,1.0,1,203.0,1
1444,1444,0.4279675407991018,0.4,1.0,1.0,368.0,858.0,1.0,1,84.0,1
1445,1445,-0.7473369852518328,-0.7,1.0,0.0,308.0,803.0,0.0,0,319.0,1
1446,1446,0.3649755142162133,0.4,1.0,1.0,287.0,545.0,1.0,1,528.0,1
1447,1447,0.4084005989680376,0.4,0.0,0.0,463.0,969.0,0.0,1,388.0,1
1448,1448,-0.514681286086913,-0.5,0.0,1.0,450.0,646.0,1.0,0,354.0,1
1449,1449,0.3648845820889647,0.4,0.0,0.0,451.0,834.0,0.0,1,595.0,1
1450,1450,-0.651442224395745,-0.7,0.0,1.0,498.0,898.0,1.0,0,244.0,1
1451,1451,0.11332191851471685,0.1,0.0,0.0,451.0,836.0,1.0,0,1233.0,0
1452,1452,0.6993634560697043,0.7,0.0,0.0,363.0,614.0,0.0,1,293.0,1
1453,1453,0.021422021368189492,0.0,0.0,0.0,442.0,898.0,0.0,1,250.0,1
1454,1454,0.17608476300395093,0.2,0.0,0.0,422.0,865.0,0.0,1,1153.0,1
1455,1455,-0.5360308131249251,-0.5,1.0,0.0,317.0,967.0,0.0,0,266.0,1
1456,1456,0.6639580740226058,0.7,0.0,0.0,250.0,920.0,0.0,1,480.0,1
1457,1457,0.7525855643645395,0.8,1.0,1.0,467.0,809.0,1.0,1,374.0,1
1458,1458,0.3451331634368767,0.3,0.0,0.0,373.0,552.0,0.0,1,325.0,1
1459,1459,0.4368879269242939,0.4,1.0,1.0,363.0,797.0,1.0,1,240.0,1
1460,1460,-0.022437556654146262,-0.0,1.0,0.0,266.0,586.0,1.0,1,538.0,0
1461,1461,-0.42237210552318266,-0.4,1.0,0.0,481.0,948.0,0.0,0,711.0,1
1462,1462,-0.7187809990566356,-0.7,0.0,1.0,357.0,683.0,1.0,0,470.0,1
1463,1463,-0.7804587254700582,-0.8,0.0,1.0,418.0,627.0,1.0,0,595.0,1
1464,1464,0.3462902981591166,0.3,1.0,1.0,386.0,810.0,1.0,1,284.0,1
1465,1465,0.5416389662392728,0.5,0.0,0.0,353.0,703.0,0.0,1,454.0,1
1466,1466,0.6736511738100351,0.7,0.0,0.0,282.0,826.0,0.0,1,182.0,1
1467,1467,0.2744198406541444,0.3,0.0,0.0,370.0,956.0,0.0,1,174.0,1
1468,1468,0.24209538305218825,0.2,0.0,0.0,276.0,775.0,0.0,1,829.0,1
1469,1469,-0.21065268936088732,-0.2,1.0,0.0,460.0,776.0,0.0,0,404.0,1
1470,1470,-0.3235959048571848,-0.3,1.0,0.0,273.0,949.0,0.0,0,938.0,1
1471,1471,-0.6717927365453544,-0.7,1.0,0.0,274.0,535.0,0.0,0,491.0,1
1472,1472,0.7085536867963539,0.7,1.0,1.0,417.0,640.0,1.0,1,243.0,1
1473,1473,0.8983816976805091,0.9,0.0,0.0,253.0,513.0,0.0,1,364.0,1
1474,1474,-0.7156517498153172,-0.7,0.0,1.0,384.0,642.0,1.0,0,284.0,1
1475,1475,-0.36597230674315795,-0.4,0.0,1.0,413.0,555.0,1.0,0,502.0,1
1476,1476,-0.5618023927785799,-0.6,0.0,1.0,330.0,739.0,1.0,0,271.0,1
1477,1477,0.19200339133668798,0.2,0.0,0.0,275.0,992.0,0.0,1,813.0,1
1478,1478,0.5458457255205088,0.5,1.0,1.0,433.0,888.0,1.0,1,279.0,1
1479,1479,0.6793105853355569,0.7,1.0,1.0,282.0,505.0,1.0,1,543.0,1
1480,1480,0.4406250022314814,0.4,0.0,0.0,264.0,645.0,0.0,1,501.0,1
1481,1481,-0.3025135524322392,-0.3,0.0,1.0,430.0,999.0,1.0,0,-99.0,1
1482,1482,-0.48481103361418987,-0.5,0.0,1.0,444.0,989.0,1.0,0,97.0,1
1483,1483,0.5722833980611907,0.6,1.0,1.0,460.0,856.0,1.0,1,264.0,1
1484,1484,-0.04944340971312178,-0.0,1.0,0.0,322.0,535.0,1.0,1,1663.0,0
1485,1485,0.4317487856768226,0.4,0.0,0.0,285.0,587.0,0.0,1,658.0,1
1486,1486,-0.06141104898117533,-0.1,0.0,1.0,345.0,618.0,1.0,0,507.0,1
1487,1487,0.12584682880343323,0.1,0.0,0.0,266.0,529.0,1.0,0,435.0,0
1488,1488,-0.5822052524671276,-0.6,1.0,0.0,474.0,997.0,0.0,0,279.0,1
1489,1489,-0.03414401546366741,-0.0,0.0,1.0,346.0,848.0,1.0,0,1336.0,1
1490,1490,0.33455294821494974,0.3,1.0,1.0,254.0,993.0,1.0,1,273.0,1
1491,1491,-0.2996729639669694,-0.3,1.0,0.0,314.0,961.0,0.0,0,1115.0,1
1492,1492,0.3017638569058595,0.3,0.0,0.0,481.0,764.0,0.0,1,645.0,1
1493,1493,0.6014905633880313,0.6,1.0,1.0,342.0,923.0,1.0,1,205.0,1
