,trial,coherence,coherence_bin,green_side,correct_side,target_onset,checker_onset,decision,green_decision,decision_time,correct_decision
0,0,-0.5706368877076151,-0.6,0.0,1.0,445.0,927.0,1.0,0,88.0,1
1,1,0.46594193681165386,0.5,1.0,1.0,359.0,902.0,1.0,1,369.0,1
2,2,0.6830538838329473,0.7,1.0,1.0,465.0,795.0,1.0,1,130.0,1
3,3,-0.5515994213984788,-0.6,0.0,1.0,340.0,587.0,1.0,0,203.0,1
4,4,0.49432852689680173,0.5,1.0,1.0,468.0,748.0,1.0,1,334.0,1
5,5,0.7728042395928835,0.8,0.0,0.0,433.0,867.0,0.0,1,230.0,1
6,6,-0.516502040543589,-0.5,0.0,1.0,420.0,640.0,1.0,0,250.0,1
7,7,0.3693652895552718,0.4,1.0,1.0,253.0,831.0,1.0,1,266.0,1
8,8,0.6350719015740002,0.6,0.0,0.0,345.0,552.0,0.0,1,353.0,1
9,9,-0.810973185296871,-0.8,0.0,1.0,474.0,643.0,1.0,0,293.0,1
10,10,-0.2179737841676579,-0.2,0.0,1.0,283.0,758.0,1.0,0,349.0,1
11,11,-0.3929972028015054,-0.4,1.0,0.0,359.0,720.0,0.0,0,321.0,1
12,12,0.29720337114978623,0.3,0.0,0.0,393.0,646.0,0.0,1,651.0,1
13,13,0.6672116141626038,0.7,0.0,0.0,363.0,742.0,0.0,1,565.0,1
14,14,-0.6694542795946103,-0.7,1.0,0.0,407.0,664.0,0.0,0,539.0,1
15,15,-0.8653782962560089,-0.9,0.0,1.0,268.0,721.0,1.0,0,171.0,1
16,16,-0.8314990719466935,-0.8,1.0,0.0,332.0,993.0,0.0,0,125.0,1
17,17,0.537640812616709,0.5,1.0,1.0,273.0,655.0,1.0,1,392.0,1
18,18,-0.8593382440623427,-0.9,0.0,1.0,311.0,623.0,1.0,0,186.0,1
19,19,0.6547464214246376,0.7,1.0,1.0,447.0,886.0,1.0,1,217.0,1
20,20,0.10510478898380937,0.1,1.0,1.0,291.0,535.0,1.0,1,2674.0,1
21,21,0.5620227274309161,0.6,1.0,1.0,305.0,588.0,1.0,1,307.0,1
22,22,-0.37222412548393813,-0.4,1.0,0.0,430.0,620.0,0.0,0,420.0,1
23,23,0.18194032702680152,0.2,0.0,0.0,375.0,534.0,0.0,1,481.0,1
24,24,0.31362460346511745,0.3,0.0,0.0,497.0,593.0,0.0,1,460.0,1
25,25,0.658375539058338,0.7,1.0,1.0,480.0,735.0,1.0,1,265.0,1
26,26,-0.28628916774173374,-0.3,1.0,0.0,425.0,645.0,0.0,0,340.0,1
27,27,-0.5498952943415534,-0.5,0.0,1.0,387.0,538.0,1.0,0,465.0,1
28,28,0.6784168443557189,0.7,1.0,1.0,487.0,942.0,1.0,1,91.0,1
29,29,-0.19684777070920523,-0.2,0.0,1.0,326.0,536.0,1.0,0,488.0,1
30,30,-0.017208265689085733,-0.0,0.0,1.0,420.0,502.0,1.0,0,2508.0,1
31,31,0.13980695982095137,0.1,1.0,1.0,265.0,886.0,1.0,1,419.0,1
32,32,0.40217529450448597,0.4,1.0,1.0,405.0,721.0,1.0,1,364.0,1
33,33,-0.7978485926531025,-0.8,1.0,0.0,330.0,747.0,0.0,0,683.0,1
34,34,0.72140911311326,0.7,0.0,0.0,446.0,579.0,0.0,1,435.0,1
35,35,-0.3649775807285802,-0.4,1.0,0.0,339.0,989.0,0.0,0,232.0,1
36,36,0.6238640471365434,0.6,0.0,0.0,257.0,861.0,0.0,1,202.0,1
37,37,0.5606653583965385,0.6,0.0,0.0,471.0,715.0,0.0,1,224.0,1
38,38,0.2711205163359426,0.3,0.0,0.0,481.0,778.0,0.0,1,501.0,1
39,39,-0.8811064212986052,-0.9,1.0,0.0,273.0,901.0,0.0,0,316.0,1
40,40,0.5190661475463404,0.5,0.0,0.0,386.0,987.0,0.0,1,127.0,1
41,41,0.4070186059076565,0.4,0.0,0.0,358.0,770.0,0.0,1,422.0,1
42,42,0.7822373734067208,0.8,1.0,1.0,252.0,979.0,1.0,1,39.0,1
43,43,-0.8340485074614419,-0.8,1.0,0.0,300.0,874.0,0.0,0,176.0,1
44,44,-0.7291607230777803,-0.7,0.0,1.0,486.0,539.0,1.0,0,315.0,1
45,45,0.30546925972258465,0.3,1.0,1.0,365.0,786.0,1.0,1,629.0,1
46,46,0.615001376343789,0.6,0.0,0.0,460.0,907.0,0.0,1,243.0,1
47,47,-0.06290006687168181,-0.1,0.0,1.0,312.0,701.0,1.0,0,367.0,1
48,48,0.5094455877020728,0.5,1.0,1.0,436.0,642.0,1.0,1,342.0,1
49,49,0.7395751691749829,0.7,1.0,1.0,491.0,929.0,1.0,1,160.0,1
50,50,-0.12265276730617714,-0.1,0.0,1.0,433.0,713.0,1.0,0,674.0,1
51,51,0.11892707258230606,0.1,0.0,0.0,252.0,868.0,1.0,0,1800.0,0
52,52,-0.37316680529456425,-0.4,0.0,1.0,322.0,647.0,1.0,0,331.0,1
53,53,0.15803152141513188,0.2,1.0,1.0,462.0,880.0,1.0,1,1028.0,1
54,54,-0.815513343822143,-0.8,0.0,1.0,405.0,785.0,1.0,0,120.0,1
55,55,-0.07031943527196649,-0.1,0.0,1.0,428.0,652.0,1.0,0,430.0,1
56,56,-0.4717893200624962,-0.5,1.0,0.0,490.0,914.0,0.0,0,296.0,1
57,57,0.8519038407198946,0.9,0.0,0.0,439.0,964.0,0.0,1,187.0,1
58,58,0.1301582378193361,0.1,0.0,0.0,308.0,792.0,0.0,1,1060.0,1
59,59,-0.10374739803271382,-0.1,0.0,1.0,276.0,844.0,1.0,0,1690.0,1
60,60,0.8161165601919097,0.8,0.0,0.0,318.0,925.0,0.0,1,167.0,1
61,61,-0.3015892996034648,-0.3,1.0,0.0,463.0,666.0,0.0,0,541.0,1
62,62,0.42139830487463514,0.4,1.0,1.0,426.0,820.0,1.0,1,104.0,1
63,63,0.44956695132053726,0.4,1.0,1.0,401.0,955.0,1.0,1,354.0,1
64,64,0.08785067253017753,0.1,0.0,0.0,434.0,700.0,0.0,1,586.0,1
65,65,-0.5048377558616732,-0.5,0.0,1.0,313.0,518.0,1.0,0,439.0,1
66,66,-0.8819873936108519,-0.9,0.0,1.0,459.0,593.0,1.0,0,228.0,1
67,67,0.10232287644744054,0.1,0.0,0.0,321.0,734.0,0.0,1,485.0,1
68,68,0.6160199039733506,0.6,0.0,0.0,291.0,852.0,0.0,1,327.0,1
69,69,-0.11975990252966962,-0.1,0.0,1.0,439.0,796.0,1.0,0,385.0,1
70,70,0.6080892967066133,0.6,1.0,1.0,469.0,916.0,1.0,1,125.0,1
71,71,0.5341406734471249,0.5,0.0,0.0,460.0,701.0,0.0,1,249.0,1
72,72,0.8223927608311677,0.8,0.0,0.0,488.0,538.0,0.0,1,204.0,1
73,73,0.3362598516961176,0.3,1.0,1.0,414.0,716.0,1.0,1,610.0,1
74,74,-0.8411116797879319,-0.8,0.0,1.0,305.0,659.0,1.0,0,246.0,1
75,75,0.6207311668322039,0.6,1.0,1.0,312.0,605.0,1.0,1,673.0,1
76,76,0.52201526512824,0.5,0.0,0.0,387.0,706.0,0.0,1,157.0,1
77,77,-0.253053699029979,-0.3,1.0,0.0,480.0,689.0,0.0,0,341.0,1
78,78,-0.611147702444664,-0.6,0.0,1.0,380.0,510.0,1.0,0,310.0,1
79,79,-0.25211807053482216,-0.3,0.0,1.0,470.0,796.0,1.0,0,284.0,1
80,80,-0.09881753050286457,-0.1,1.0,0.0,482.0,783.0,0.0,0,185.0,1
81,81,0.15137080502836742,0.2,0.0,0.0,274.0,725.0,0.0,1,781.0,1
82,82,0.7430914051213308,0.7,0.0,0.0,387.0,775.0,0.0,1,268.0,1
83,83,-0.8225171493893897,-0.8,0.0,1.0,446.0,924.0,1.0,0,40.0,1
84,84,0.36367910321916364,0.4,0.0,0.0,458.0,608.0,0.0,1,814.0,1
85,85,-0.12073657012799821,-0.1,0.0,1.0,408.0,756.0,1.0,0,466.0,1
86,86,-0.1910298528180846,-0.2,0.0,1.0,435.0,660.0,1.0,0,165.0,1
87,87,0.609099741655939,0.6,0.0,0.0,418.0,812.0,0.0,1,180.0,1
88,88,0.8623924928155012,0.9,0.0,0.0,314.0,824.0,0.0,1,172.0,1
89,89,-0.3613147980532554,-0.4,0.0,1.0,462.0,656.0,1.0,0,222.0,1
90,90,-0.2876762467223669,-0.3,1.0,0.0,395.0,835.0,0.0,0,320.0,1
91,91,-0.4763844073046828,-0.5,0.0,1.0,277.0,551.0,1.0,0,242.0,1
92,92,0.3858171587627096,0.4,1.0,1.0,428.0,904.0,1.0,1,338.0,1
93,93,-0.502348654149315,-0.5,0.0,1.0,467.0,637.0,1.0,0,296.0,1
94,94,-0.28448386793278946,-0.3,0.0,1.0,447.0,980.0,1.0,0,613.0,1
95,95,0.6439104733035502,0.6,1.0,1.0,467.0,926.0,1.0,1,117.0,1
96,96,-0.7943579298519869,-0.8,1.0,0.0,356.0,530.0,0.0,0,284.0,1
97,97,0.6193982978245461,0.6,1.0,1.0,392.0,955.0,1.0,1,253.0,1
98,98,-0.29873029095231884,-0.3,1.0,0.0,434.0,549.0,0.0,0,517.0,1
99,99,0.8228109585363775,0.8,1.0,1.0,350.0,997.0,1.0,1,113.0,1
100,100,0.17869788986565227,0.2,1.0,1.0,383.0,754.0,1.0,1,373.0,1
101,101,-0.5792220513570925,-0.6,0.0,1.0,320.0,830.0,1.0,0,260.0,1
102,102,-0.11759998280574646,-0.1,1.0,0.0,293.0,538.0,0.0,0,579.0,1
103,103,-0.7900384485882328,-0.8,1.0,0.0,358.0,901.0,0.0,0,251.0,1
104,104,0.8638321822970995,0.9,1.0,1.0,252.0,829.0,0.0,0,-61.0,0
105,105,-0.09547009122107886,-0.1,0.0,1.0,297.0,916.0,1.0,0,1277.0,1
106,106,0.13763408550571066,0.1,1.0,1.0,438.0,541.0,1.0,1,361.0,1
107,107,0.8617891704675206,0.9,0.0,0.0,259.0,701.0,0.0,1,440.0,1
108,108,0.4410818314434225,0.4,1.0,1.0,479.0,549.0,1.0,1,522.0,1
109,109,0.6973891554798625,0.7,0.0,0.0,324.0,776.0,0.0,1,330.0,1
110,110,0.22121129859014987,0.2,0.0,0.0,423.0,589.0,0.0,1,458.0,1
111,111,-0.5915210844719119,-0.6,0.0,1.0,309.0,544.0,1.0,0,417.0,1
112,112,0.2893704244095122,0.3,1.0,1.0,323.0,658.0,1.0,1,329.0,1
113,113,-0.28502543793808177,-0.3,1.0,0.0,337.0,923.0,0.0,0,210.0,1
114,114,-0.11212623340793892,-0.1,1.0,0.0,440.0,589.0,0.0,0,1001.0,1
115,115,0.09707048558906195,0.1,0.0,0.0,323.0,740.0,0.0,1,477.0,1
116,116,0.6002153298133096,0.6,1.0,1.0,484.0,600.0,1.0,1,476.0,1
117,117,-0.07442536027545321,-0.1,1.0,0.0,461.0,516.0,0.0,0,593.0,1
118,118,-0.7670913545954836,-0.8,0.0,1.0,465.0,755.0,1.0,0,190.0,1
119,119,-0.17295435008209248,-0.2,1.0,0.0,478.0,723.0,0.0,0,569.0,1
120,120,0.6322233058412013,0.6,1.0,1.0,351.0,841.0,1.0,1,228.0,1
121,121,0.24591374448305647,0.2,1.0,1.0,289.0,955.0,1.0,1,246.0,1
122,122,0.24142133384066355,0.2,0.0,0.0,304.0,951.0,0.0,1,485.0,1
123,123,-0.8713039437263888,-0.9,0.0,1.0,469.0,740.0,1.0,0,141.0,1
124,124,0.29348971529362056,0.3,0.0,0.0,442.0,500.0,0.0,1,598.0,1
125,125,0.062413943360217994,0.1,1.0,1.0,356.0,653.0,1.0,1,691.0,1
126,126,0.08683355919391733,0.1,0.0,0.0,379.0,500.0,0.0,1,1111.0,1
127,127,0.06194430821461139,0.1,1.0,1.0,431.0,860.0,0.0,0,409.0,0
128,128,0.10988545662404003,0.1,0.0,0.0,492.0,864.0,1.0,0,-6.0,0
129,129,0.585981537624202,0.6,0.0,0.0,399.0,555.0,0.0,1,266.0,1
130,130,-0.2425097783900656,-0.2,1.0,0.0,263.0,984.0,0.0,0,493.0,1
131,131,0.7144643335575692,0.7,0.0,0.0,442.0,969.0,0.0,1,129.0,1
132,132,0.6173434816072435,0.6,0.0,0.0,424.0,625.0,0.0,1,281.0,1
133,133,0.42901452795440986,0.4,1.0,1.0,473.0,827.0,1.0,1,340.0,1
134,134,0.4980371159880198,0.5,0.0,0.0,388.0,844.0,0.0,1,168.0,1
135,135,0.5136391966293562,0.5,0.0,0.0,420.0,670.0,0.0,1,950.0,1
136,136,0.24093438691640834,0.2,1.0,1.0,373.0,875.0,1.0,1,102.0,1
137,137,-0.6867735179995746,-0.7,0.0,1.0,481.0,514.0,1.0,0,285.0,1
138,138,-0.7510105159576361,-0.8,1.0,0.0,363.0,874.0,0.0,0,183.0,1
139,139,-0.3426376438798445,-0.3,1.0,0.0,352.0,873.0,0.0,0,365.0,1
140,140,0.4523614500497223,0.5,0.0,0.0,402.0,897.0,0.0,1,431.0,1
141,141,0.12796932928319082,0.1,0.0,0.0,443.0,828.0,0.0,1,569.0,1
142,142,0.4168267436708747,0.4,0.0,0.0,284.0,575.0,0.0,1,671.0,1
143,143,-0.7060141942729699,-0.7,1.0,0.0,497.0,709.0,0.0,0,314.0,1
144,144,0.5318448332198124,0.5,1.0,1.0,256.0,641.0,1.0,1,563.0,1
145,145,-0.18832952794301472,-0.2,1.0,0.0,489.0,539.0,0.0,0,762.0,1
146,146,0.32077788649896843,0.3,1.0,1.0,311.0,549.0,1.0,1,530.0,1
147,147,0.44290765107676056,0.4,0.0,0.0,263.0,984.0,1.0,0,-17.0,0
148,148,-0.5103062723819958,-0.5,1.0,0.0,394.0,632.0,0.0,0,234.0,1
149,149,0.46477094188526313,0.5,1.0,1.0,400.0,791.0,1.0,1,389.0,1
150,150,-0.7275165586141672,-0.7,0.0,1.0,448.0,934.0,1.0,0,108.0,1
151,151,-0.4610546152400598,-0.5,0.0,1.0,412.0,606.0,1.0,0,282.0,1
152,152,0.4285289065765715,0.4,0.0,0.0,316.0,909.0,0.0,1,255.0,1
153,153,0.7872998819327458,0.8,0.0,0.0,397.0,579.0,0.0,1,344.0,1
154,154,-0.648823850539336,-0.6,0.0,1.0,280.0,892.0,1.0,0,328.0,1
155,155,0.6298322694127957,0.6,0.0,0.0,390.0,642.0,0.0,1,328.0,1
156,156,0.11722868045634172,0.1,1.0,1.0,361.0,884.0,1.0,1,485.0,1
157,157,-0.6015844669348892,-0.6,1.0,0.0,322.0,621.0,0.0,0,317.0,1
158,158,-0.2149150685903065,-0.2,0.0,1.0,351.0,566.0,1.0,0,403.0,1
159,159,-0.5288318155064058,-0.5,0.0,1.0,468.0,648.0,1.0,0,354.0,1
160,160,-0.23464281982408908,-0.2,1.0,0.0,450.0,502.0,0.0,0,638.0,1
161,161,-0.4338938158066053,-0.4,1.0,0.0,458.0,530.0,0.0,0,452.0,1
162,162,-0.04318199386453381,-0.0,0.0,1.0,372.0,846.0,1.0,0,972.0,1
163,163,0.642362428203007,0.6,1.0,1.0,499.0,921.0,1.0,1,200.0,1
164,164,-0.8585908074999177,-0.9,0.0,1.0,404.0,951.0,1.0,0,85.0,1
165,165,0.400140329522343,0.4,1.0,1.0,368.0,575.0,1.0,1,347.0,1
166,166,0.2714943840816394,0.3,0.0,0.0,471.0,722.0,0.0,1,127.0,1
167,167,0.5016346922269889,0.5,0.0,0.0,411.0,817.0,0.0,1,192.0,1
168,168,-0.6364270021592184,-0.6,1.0,0.0,336.0,898.0,0.0,0,186.0,1
169,169,0.6056497312398729,0.6,1.0,1.0,252.0,857.0,1.0,1,131.0,1
170,170,-0.8848694380340316,-0.9,0.0,1.0,259.0,911.0,1.0,0,180.0,1
171,171,0.31978628786068464,0.3,1.0,1.0,292.0,658.0,1.0,1,470.0,1
172,172,0.4351454010778656,0.4,0.0,0.0,313.0,517.0,0.0,1,500.0,1
173,173,0.2533338047195858,0.3,1.0,1.0,410.0,715.0,1.0,1,985.0,1
174,174,-0.7315888307215723,-0.7,0.0,1.0,307.0,709.0,1.0,0,244.0,1
175,175,-0.6509207390970033,-0.7,1.0,0.0,409.0,541.0,0.0,0,220.0,1
176,176,0.8449488265316208,0.8,0.0,0.0,482.0,998.0,0.0,1,130.0,1
177,177,-0.23548918870033375,-0.2,1.0,0.0,369.0,526.0,0.0,0,525.0,1
178,178,0.045684622191358715,0.0,1.0,1.0,289.0,959.0,1.0,1,1872.0,1
179,179,-0.6773192341352889,-0.7,1.0,0.0,492.0,534.0,0.0,0,454.0,1
180,180,-0.7239880965445568,-0.7,1.0,0.0,337.0,516.0,0.0,0,337.0,1
181,181,-0.33424163480204194,-0.3,0.0,1.0,429.0,643.0,1.0,0,248.0,1
182,182,0.5164975119790453,0.5,0.0,0.0,253.0,752.0,0.0,1,605.0,1
183,183,0.050086777570264585,0.1,1.0,1.0,300.0,813.0,1.0,1,487.0,1
184,184,-0.2945904414367002,-0.3,1.0,0.0,320.0,945.0,0.0,0,605.0,1
185,185,-0.8434526125752162,-0.8,1.0,0.0,409.0,801.0,0.0,0,50.0,1
186,186,-0.6170195931997959,-0.6,0.0,1.0,354.0,915.0,1.0,0,131.0,1
187,187,-0.64788647261245,-0.6,0.0,1.0,307.0,714.0,1.0,0,239.0,1
188,188,-0.33744622466258,-0.3,1.0,0.0,415.0,919.0,0.0,0,116.0,1
189,189,-0.46830280753710657,-0.5,0.0,1.0,277.0,689.0,1.0,0,84.0,1
190,190,0.36153802380370104,0.4,0.0,0.0,495.0,739.0,0.0,1,536.0,1
191,191,-0.7373448080539783,-0.7,1.0,0.0,397.0,640.0,0.0,0,333.0,1
192,192,-0.36940193246679454,-0.4,0.0,1.0,315.0,916.0,1.0,0,209.0,1
193,193,0.4147905322477795,0.4,0.0,0.0,345.0,769.0,0.0,1,306.0,1
194,194,-0.1873312719482464,-0.2,1.0,0.0,401.0,954.0,0.0,0,1105.0,1
195,195,0.6624146284565454,0.7,0.0,0.0,287.0,522.0,0.0,1,331.0,1
196,196,0.45514568852473947,0.5,1.0,1.0,319.0,842.0,1.0,1,259.0,1
197,197,-0.38288916987318933,-0.4,1.0,0.0,380.0,564.0,0.0,0,276.0,1
198,198,-0.39450294380323014,-0.4,1.0,0.0,387.0,754.0,0.0,0,259.0,1
199,199,-0.48580097755471413,-0.5,1.0,0.0,467.0,577.0,0.0,0,386.0,1
200,200,-0.3292057845505282,-0.3,0.0,1.0,373.0,940.0,1.0,0,137.0,1
201,201,-0.44005961650702446,-0.4,1.0,0.0,429.0,822.0,0.0,0,249.0,1
202,202,0.8101441623407956,0.8,0.0,0.0,458.0,771.0,0.0,1,171.0,1
203,203,0.004288278779949195,0.0,0.0,0.0,399.0,587.0,1.0,0,794.0,0
204,204,-0.2108474279168765,-0.2,0.0,1.0,379.0,628.0,1.0,0,623.0,1
205,205,-0.5034338576427873,-0.5,1.0,0.0,476.0,637.0,0.0,0,407.0,1
206,206,0.32295406319421305,0.3,0.0,0.0,317.0,933.0,0.0,1,310.0,1
207,207,0.41133553636958575,0.4,0.0,0.0,267.0,627.0,0.0,1,426.0,1
208,208,0.8410415092073674,0.8,0.0,0.0,430.0,586.0,0.0,1,454.0,1
209,209,-0.7535900481134453,-0.8,0.0,1.0,492.0,574.0,1.0,0,334.0,1
210,210,-0.8822664592769808,-0.9,1.0,0.0,284.0,784.0,0.0,0,432.0,1
211,211,0.582729688509447,0.6,0.0,0.0,322.0,535.0,0.0,1,693.0,1
212,212,-0.07813019627131446,-0.1,1.0,0.0,382.0,876.0,0.0,0,2032.0,1
213,213,-0.697133020203003,-0.7,0.0,1.0,422.0,598.0,1.0,0,360.0,1
214,214,-0.605301772039401,-0.6,1.0,0.0,379.0,970.0,0.0,0,141.0,1
215,215,-0.7816169163590151,-0.8,0.0,1.0,418.0,792.0,1.0,0,250.0,1
216,216,-0.7210549748797115,-0.7,0.0,1.0,420.0,893.0,1.0,0,147.0,1
217,217,0.24507786304604406,0.2,1.0,1.0,406.0,857.0,1.0,1,287.0,1
218,218,0.370244133236184,0.4,0.0,0.0,361.0,937.0,0.0,1,142.0,1
219,219,-0.3241356137488147,-0.3,0.0,1.0,320.0,693.0,1.0,0,407.0,1
220,220,-0.2613303410029193,-0.3,1.0,0.0,302.0,981.0,0.0,0,257.0,1
221,221,0.44192866544148723,0.4,0.0,0.0,311.0,795.0,0.0,1,154.0,1
222,222,-0.8545437465171725,-0.9,1.0,0.0,338.0,899.0,0.0,0,153.0,1
223,223,-0.7860106471426613,-0.8,0.0,1.0,313.0,887.0,1.0,0,160.0,1
224,224,0.19955619124132762,0.2,0.0,0.0,313.0,502.0,0.0,1,655.0,1
225,225,0.862983281223061,0.9,1.0,1.0,252.0,585.0,1.0,1,263.0,1
226,226,0.7256931629711211,0.7,1.0,1.0,300.0,848.0,1.0,1,352.0,1
227,227,0.061093831196217585,0.1,1.0,1.0,294.0,639.0,1.0,1,387.0,1
228,228,0.5679779361890743,0.6,0.0,0.0,313.0,657.0,0.0,1,380.0,1
229,229,-0.2092473224511755,-0.2,1.0,0.0,441.0,746.0,0.0,0,663.0,1
230,230,0.19781750071449344,0.2,0.0,0.0,323.0,911.0,0.0,1,216.0,1
231,231,0.5599052245006083,0.6,1.0,1.0,293.0,561.0,1.0,1,166.0,1
232,232,-0.04310144775304747,-0.0,1.0,0.0,481.0,769.0,0.0,0,790.0,1
233,233,0.2546418356493291,0.3,0.0,0.0,336.0,791.0,0.0,1,173.0,1
234,234,-0.8902951631577707,-0.9,0.0,1.0,264.0,539.0,1.0,0,257.0,1
235,235,-0.6079871106078247,-0.6,0.0,1.0,333.0,689.0,1.0,0,198.0,1
236,236,-0.766183465175128,-0.8,1.0,0.0,320.0,845.0,0.0,0,185.0,1
237,237,-0.6996130596662973,-0.7,1.0,0.0,292.0,593.0,0.0,0,265.0,1
238,238,0.15972172826293807,0.2,1.0,1.0,353.0,701.0,1.0,1,846.0,1
239,239,-0.751524086919185,-0.8,0.0,1.0,392.0,987.0,1.0,0,11.0,1
240,240,-0.15000180816945563,-0.2,1.0,0.0,258.0,595.0,0.0,0,1027.0,1
241,241,-0.5313044129481792,-0.5,1.0,0.0,253.0,990.0,0.0,0,257.0,1
242,242,0.7526262338451876,0.8,1.0,1.0,367.0,896.0,1.0,1,237.0,1
243,243,-0.802877155724952,-0.8,0.0,1.0,283.0,736.0,1.0,0,271.0,1
244,244,-0.03453389264684503,-0.0,1.0,0.0,436.0,503.0,0.0,0,3871.0,1
245,245,-0.13524259392528826,-0.1,0.0,1.0,412.0,658.0,1.0,0,640.0,1
246,246,0.37304655065350334,0.4,0.0,0.0,432.0,796.0,0.0,1,142.0,1
247,247,-0.8411557522149308,-0.8,0.0,1.0,315.0,845.0,1.0,0,140.0,1
248,248,-0.8524668053215614,-0.9,1.0,0.0,479.0,605.0,0.0,0,126.0,1
249,249,-0.4138670789268811,-0.4,0.0,1.0,330.0,605.0,1.0,0,375.0,1
250,250,0.1242313177185469,0.1,0.0,0.0,426.0,917.0,0.0,1,317.0,1
251,251,0.09487006218016258,0.1,1.0,1.0,301.0,570.0,1.0,1,399.0,1
252,252,-0.4048224092970207,-0.4,0.0,1.0,461.0,727.0,1.0,0,232.0,1
253,253,0.6555619420213362,0.7,1.0,1.0,478.0,622.0,1.0,1,330.0,1
254,254,-0.300607158541373,-0.3,0.0,1.0,443.0,743.0,1.0,0,334.0,1
255,255,0.739681482381847,0.7,0.0,0.0,395.0,547.0,0.0,1,148.0,1
256,256,-0.3325825285565751,-0.3,0.0,1.0,441.0,582.0,1.0,0,597.0,1
257,257,-0.21051131418700386,-0.2,0.0,1.0,299.0,528.0,1.0,0,353.0,1
258,258,0.6585578635555239,0.7,0.0,0.0,304.0,546.0,0.0,1,570.0,1
259,259,0.3926602426384037,0.4,1.0,1.0,468.0,569.0,1.0,1,673.0,1
260,260,-0.7383245250554111,-0.7,1.0,0.0,300.0,624.0,0.0,0,296.0,1
261,261,-0.21154759077358742,-0.2,1.0,0.0,327.0,738.0,0.0,0,355.0,1
262,262,0.0295848192295024,0.0,1.0,1.0,301.0,797.0,1.0,1,2652.0,1
263,263,0.27591439735421985,0.3,1.0,1.0,435.0,847.0,1.0,1,618.0,1
264,264,-0.1893047830987704,-0.2,1.0,0.0,418.0,810.0,0.0,0,402.0,1
265,265,-0.5849576595534729,-0.6,1.0,0.0,319.0,806.0,0.0,0,105.0,1
266,266,0.25155253857815996,0.3,0.0,0.0,442.0,669.0,0.0,1,1059.0,1
267,267,0.5566228737476201,0.6,0.0,0.0,394.0,737.0,0.0,1,439.0,1
268,268,0.7024034899540764,0.7,1.0,1.0,257.0,742.0,1.0,1,151.0,1
269,269,0.7227808683060225,0.7,0.0,0.0,359.0,698.0,0.0,1,183.0,1
270,270,-0.05451870259102776,-0.1,0.0,1.0,494.0,568.0,1.0,0,858.0,1
271,271,0.3048303874902146,0.3,0.0,0.0,298.0,542.0,0.0,1,540.0,1
272,272,-0.17736621445793233,-0.2,1.0,0.0,418.0,739.0,0.0,0,423.0,1
273,273,-0.3531374879227056,-0.4,0.0,1.0,437.0,847.0,1.0,0,116.0,1
274,274,0.47780409481425246,0.5,1.0,1.0,396.0,842.0,1.0,1,112.0,1
275,275,-0.4266691681946387,-0.4,1.0,0.0,404.0,775.0,0.0,0,81.0,1
276,276,0.12092854559083055,0.1,0.0,0.0,283.0,537.0,0.0,1,580.0,1
277,277,-0.04818933927744584,-0.0,1.0,0.0,343.0,940.0,0.0,0,3717.0,1
278,278,0.4416125764816249,0.4,0.0,0.0,486.0,807.0,0.0,1,77.0,1
279,279,-0.5753601759788047,-0.6,1.0,0.0,447.0,929.0,0.0,0,214.0,1
280,280,0.6241219751795887,0.6,1.0,1.0,306.0,692.0,1.0,1,322.0,1
281,281,-0.23407427172215922,-0.2,1.0,0.0,485.0,602.0,0.0,0,953.0,1
282,282,-0.2953709892382861,-0.3,0.0,1.0,448.0,943.0,1.0,0,169.0,1
283,283,0.17546113142636577,0.2,1.0,1.0,422.0,792.0,1.0,1,606.0,1
284,284,-0.6279115560054294,-0.6,0.0,1.0,279.0,579.0,1.0,0,382.0,1
285,285,0.39232690496214195,0.4,0.0,0.0,471.0,874.0,0.0,1,445.0,1
286,286,0.44857655254733275,0.4,1.0,1.0,353.0,963.0,1.0,1,334.0,1
287,287,0.2627142853570611,0.3,1.0,1.0,309.0,984.0,1.0,1,257.0,1
288,288,0.2869838856046948,0.3,0.0,0.0,275.0,845.0,0.0,1,540.0,1
289,289,-0.479789248658108,-0.5,0.0,1.0,307.0,758.0,1.0,0,265.0,1
290,290,0.15242070011606035,0.2,1.0,1.0,323.0,777.0,1.0,1,740.0,1
291,291,0.6064357431902011,0.6,0.0,0.0,342.0,963.0,0.0,1,185.0,1
292,292,-0.7171998244118417,-0.7,0.0,1.0,363.0,502.0,1.0,0,555.0,1
293,293,-0.38191469191134064,-0.4,1.0,0.0,478.0,812.0,0.0,0,430.0,1
294,294,-0.3120353737608199,-0.3,0.0,1.0,298.0,979.0,1.0,0,303.0,1
295,295,0.6681490202747519,0.7,0.0,0.0,444.0,830.0,0.0,1,366.0,1
296,296,0.4801373044882221,0.5,0.0,0.0,475.0,548.0,0.0,1,267.0,1
297,297,0.31908085212237014,0.3,1.0,1.0,416.0,950.0,1.0,1,194.0,1
298,298,-0.7670323754725908,-0.8,0.0,1.0,493.0,755.0,1.0,0,242.0,1
299,299,-0.5844871830314065,-0.6,0.0,1.0,464.0,642.0,1.0,0,234.0,1
300,300,0.7888175296621894,0.8,1.0,1.0,385.0,540.0,1.0,1,395.0,1
301,301,0.2686859534536842,0.3,1.0,1.0,424.0,572.0,1.0,1,294.0,1
302,302,-0.35028554837867065,-0.4,1.0,0.0,439.0,593.0,0.0,0,188.0,1
303,303,-0.23596309393722792,-0.2,0.0,1.0,311.0,511.0,1.0,0,418.0,1
304,304,0.1390283070297319,0.1,1.0,1.0,273.0,695.0,1.0,1,272.0,1
305,305,-0.3308306479435904,-0.3,0.0,1.0,301.0,814.0,1.0,0,205.0,1
306,306,-0.5750076792612404,-0.6,1.0,0.0,447.0,587.0,0.0,0,416.0,1
307,307,-0.3109078295027877,-0.3,1.0,0.0,432.0,661.0,0.0,0,337.0,1
308,308,0.2814094943401141,0.3,0.0,0.0,453.0,900.0,0.0,1,177.0,1
309,309,0.5990155948969212,0.6,0.0,0.0,311.0,757.0,0.0,1,272.0,1
310,310,0.07302275822367321,0.1,0.0,0.0,267.0,901.0,0.0,1,2272.0,1
311,311,0.16106141071772362,0.2,0.0,0.0,336.0,789.0,0.0,1,375.0,1
312,312,0.25215628163862436,0.3,0.0,0.0,304.0,655.0,0.0,1,431.0,1
313,313,-0.6503711613207764,-0.7,0.0,1.0,412.0,686.0,1.0,0,392.0,1
314,314,-0.037792974805127444,-0.0,1.0,0.0,298.0,762.0,1.0,1,1500.0,0
315,315,-0.7357842825896944,-0.7,1.0,0.0,422.0,586.0,0.0,0,372.0,1
316,316,-0.030998819613983764,-0.0,1.0,0.0,379.0,949.0,1.0,1,312.0,0
317,317,0.1736222021045094,0.2,1.0,1.0,324.0,657.0,1.0,1,339.0,1
318,318,-0.854341315690435,-0.9,0.0,1.0,302.0,677.0,1.0,0,151.0,1
319,319,-0.15849611381507878,-0.2,0.0,1.0,267.0,793.0,1.0,0,390.0,1
320,320,-0.4887913720136017,-0.5,1.0,0.0,318.0,562.0,0.0,0,520.0,1
321,321,-0.026998894279507857,-0.0,0.0,1.0,281.0,757.0,1.0,0,252.0,1
322,322,-0.18901755679196797,-0.2,1.0,0.0,455.0,896.0,0.0,0,529.0,1
323,323,0.5749957183106343,0.6,0.0,0.0,284.0,824.0,0.0,1,132.0,1
324,324,0.2803763776345324,0.3,0.0,0.0,356.0,988.0,0.0,1,316.0,1
325,325,0.7089772938709028,0.7,0.0,0.0,346.0,548.0,0.0,1,216.0,1
326,326,-0.3573540464583489,-0.4,0.0,1.0,428.0,903.0,1.0,0,319.0,1
327,327,-0.05235168381521704,-0.1,1.0,0.0,411.0,994.0,0.0,0,515.0,1
328,328,-0.15923510829603993,-0.2,1.0,0.0,467.0,590.0,0.0,0,703.0,1
329,329,-0.5592343376495024,-0.6,0.0,1.0,489.0,742.0,1.0,0,99.0,1
330,330,-0.47851843098465935,-0.5,0.0,1.0,264.0,732.0,1.0,0,284.0,1
331,331,-0.11633750645751673,-0.1,1.0,0.0,285.0,716.0,1.0,1,599.0,0
332,332,-0.4277258499358201,-0.4,0.0,1.0,395.0,956.0,1.0,0,159.0,1
333,333,0.6056558878284878,0.6,0.0,0.0,314.0,972.0,0.0,1,284.0,1
334,334,0.6443094959043519,0.6,1.0,1.0,409.0,716.0,1.0,1,205.0,1
335,335,-0.017935843966826792,-0.0,1.0,0.0,416.0,844.0,1.0,1,1350.0,0
336,336,-0.783005670060814,-0.8,0.0,1.0,492.0,973.0,1.0,0,165.0,1
337,337,0.4514353694392562,0.5,0.0,0.0,468.0,767.0,0.0,1,125.0,1
338,338,0.5850970806860784,0.6,0.0,0.0,420.0,533.0,0.0,1,647.0,1
339,339,-0.8960435038391804,-0.9,0.0,1.0,388.0,811.0,1.0,0,301.0,1
340,340,0.8421844456088489,0.8,1.0,1.0,325.0,619.0,1.0,1,406.0,1
341,341,0.5188099102360938,0.5,1.0,1.0,342.0,598.0,1.0,1,290.0,1
342,342,0.6052022065450698,0.6,1.0,1.0,287.0,690.0,1.0,1,153.0,1
343,343,0.7091252002789755,0.7,1.0,1.0,416.0,943.0,1.0,1,91.0,1
344,344,0.35899541766949417,0.4,1.0,1.0,479.0,678.0,1.0,1,423.0,1
345,345,-0.2053175900082964,-0.2,1.0,0.0,261.0,997.0,0.0,0,312.0,1
346,346,-0.33906270268349903,-0.3,1.0,0.0,489.0,733.0,0.0,0,478.0,1
347,347,-0.8799465405659456,-0.9,1.0,0.0,407.0,992.0,0.0,0,121.0,1
348,348,-0.6794072452302187,-0.7,1.0,0.0,473.0,700.0,0.0,0,207.0,1
349,349,0.12235659418005318,0.1,1.0,1.0,453.0,997.0,1.0,1,710.0,1
350,350,0.5808829047705603,0.6,0.0,0.0,302.0,544.0,0.0,1,634.0,1
351,351,-0.16747467235608848,-0.2,0.0,1.0,367.0,744.0,1.0,0,249.0,1
352,352,-0.10075845191732635,-0.1,1.0,0.0,497.0,816.0,0.0,0,507.0,1
353,353,-0.5339846633289812,-0.5,1.0,0.0,258.0,987.0,0.0,0,295.0,1
354,354,-0.17811220186805288,-0.2,0.0,1.0,302.0,698.0,1.0,0,400.0,1
355,355,0.022623266740710024,0.0,1.0,1.0,454.0,911.0,1.0,1,1175.0,1
356,356,-0.6774736173977589,-0.7,1.0,0.0,483.0,964.0,0.0,0,193.0,1
357,357,0.7394487764067598,0.7,0.0,0.0,346.0,780.0,0.0,1,174.0,1
358,358,0.29540613617173495,0.3,0.0,0.0,254.0,840.0,0.0,1,336.0,1
359,359,-0.10368487854890263,-0.1,1.0,0.0,495.0,552.0,0.0,0,833.0,1
360,360,-0.16422718929172309,-0.2,1.0,0.0,450.0,510.0,0.0,0,830.0,1
361,361,0.1033667438267648,0.1,0.0,0.0,325.0,534.0,0.0,1,411.0,1
362,362,0.13112240624372407,0.1,0.0,0.0,421.0,794.0,1.0,0,1865.0,0
363,363,-0.29777727157931055,-0.3,1.0,0.0,302.0,653.0,0.0,0,305.0,1
364,364,-0.11947491834391599,-0.1,0.0,1.0,350.0,757.0,1.0,0,373.0,1
365,365,-0.6496910038598256,-0.6,0.0,1.0,497.0,557.0,1.0,0,536.0,1
366,366,0.18625915089674494,0.2,0.0,0.0,414.0,561.0,0.0,1,935.0,1
367,367,0.026572441060156216,0.0,0.0,0.0,437.0,714.0,1.0,0,289.0,0
368,368,0.5865509544205144,0.6,0.0,0.0,351.0,503.0,0.0,1,436.0,1
369,369,-0.012888631744460644,-0.0,0.0,1.0,338.0,551.0,1.0,0,301.0,1
370,370,-0.10165455929814571,-0.1,1.0,0.0,351.0,773.0,0.0,0,1686.0,1
371,371,0.8394066236173597,0.8,0.0,0.0,319.0,949.0,0.0,1,332.0,1
372,372,-0.407416494790993,-0.4,1.0,0.0,358.0,510.0,0.0,0,732.0,1
373,373,-0.37217796136426895,-0.4,1.0,0.0,281.0,917.0,0.0,0,162.0,1
374,374,-0.3622282112444637,-0.4,1.0,0.0,287.0,760.0,0.0,0,313.0,1
375,375,-0.527641043331376,-0.5,1.0,0.0,334.0,796.0,0.0,0,200.0,1
376,376,0.47492316011443114,0.5,0.0,0.0,299.0,951.0,0.0,1,1000.0,1
377,377,-0.4926595190455197,-0.5,0.0,1.0,379.0,918.0,1.0,0,223.0,1
378,378,0.2327611682992804,0.2,0.0,0.0,499.0,601.0,0.0,1,590.0,1
379,379,0.10163763516308266,0.1,0.0,0.0,313.0,556.0,0.0,1,751.0,1
380,380,-0.6181619694272245,-0.6,1.0,0.0,270.0,863.0,0.0,0,217.0,1
381,381,-0.06611588550389214,-0.1,1.0,0.0,359.0,861.0,0.0,0,780.0,1
382,382,0.6947732493866937,0.7,1.0,1.0,430.0,751.0,1.0,1,269.0,1
383,383,0.3730329982259709,0.4,0.0,0.0,377.0,637.0,0.0,1,236.0,1
384,384,-0.5005639166306947,-0.5,0.0,1.0,399.0,799.0,1.0,0,172.0,1
385,385,-0.6950340619174448,-0.7,1.0,0.0,272.0,831.0,0.0,0,217.0,1
386,386,0.13480548562835504,0.1,1.0,1.0,442.0,862.0,1.0,1,916.0,1
387,387,-0.45302595336479773,-0.5,1.0,0.0,446.0,748.0,0.0,0,406.0,1
388,388,-0.2865717003189343,-0.3,1.0,0.0,488.0,963.0,0.0,0,329.0,1
389,389,0.860999899013165,0.9,0.0,0.0,363.0,757.0,0.0,1,240.0,1
390,390,-0.7761637676285257,-0.8,1.0,0.0,332.0,732.0,0.0,0,186.0,1
391,391,-0.3309770789672649,-0.3,1.0,0.0,356.0,953.0,0.0,0,191.0,1
392,392,0.8742395016803045,0.9,1.0,1.0,479.0,983.0,1.0,1,128.0,1
393,393,0.4069404414326191,0.4,0.0,0.0,397.0,561.0,0.0,1,362.0,1
394,394,-0.7274598589391461,-0.7,0.0,1.0,368.0,726.0,1.0,0,206.0,1
395,395,-0.5335529375049815,-0.5,1.0,0.0,429.0,911.0,0.0,0,380.0,1
396,396,-0.8127993676045671,-0.8,1.0,0.0,442.0,626.0,0.0,0,372.0,1
397,397,-0.07675596540101459,-0.1,1.0,0.0,285.0,742.0,0.0,0,2773.0,1
398,398,-0.07682816699391726,-0.1,1.0,0.0,316.0,952.0,1.0,1,22.0,0
399,399,-0.20672412900166914,-0.2,1.0,0.0,391.0,773.0,0.0,0,1136.0,1
400,400,-0.28510796532311555,-0.3,1.0,0.0,260.0,929.0,0.0,0,251.0,1
401,401,0.822625108008404,0.8,1.0,1.0,315.0,696.0,1.0,1,129.0,1
402,402,-0.5734143809064538,-0.6,1.0,0.0,472.0,884.0,0.0,0,144.0,1
403,403,0.614158567500637,0.6,0.0,0.0,324.0,507.0,0.0,1,529.0,1
404,404,-0.4849442215811174,-0.5,0.0,1.0,260.0,581.0,1.0,0,329.0,1
405,405,-0.5451109786961341,-0.5,0.0,1.0,289.0,806.0,1.0,0,145.0,1
406,406,0.3797703036061789,0.4,1.0,1.0,453.0,752.0,1.0,1,275.0,1
407,407,-0.45358049392665667,-0.5,1.0,0.0,448.0,621.0,0.0,0,571.0,1
408,408,0.5464521006800206,0.5,0.0,0.0,250.0,893.0,0.0,1,327.0,1
409,409,0.5030898884736384,0.5,0.0,0.0,329.0,774.0,0.0,1,177.0,1
410,410,0.37765441406232336,0.4,0.0,0.0,395.0,840.0,0.0,1,355.0,1
411,411,0.005392286239539024,0.0,0.0,0.0,367.0,824.0,1.0,0,549.0,0
412,412,0.14799929971548276,0.1,0.0,0.0,414.0,787.0,1.0,0,9.0,0
413,413,-0.7698782464466818,-0.8,1.0,0.0,314.0,514.0,0.0,0,232.0,1
414,414,-0.061961694007503954,-0.1,0.0,1.0,305.0,810.0,1.0,0,695.0,1
415,415,0.28869990970940995,0.3,0.0,0.0,433.0,601.0,0.0,1,246.0,1
416,416,-0.16215495973254035,-0.2,1.0,0.0,312.0,534.0,0.0,0,854.0,1
417,417,0.29413393087411477,0.3,0.0,0.0,266.0,683.0,0.0,1,941.0,1
418,418,-0.854113150556267,-0.9,0.0,1.0,497.0,997.0,1.0,0,96.0,1
419,419,0.06957371709195337,0.1,1.0,1.0,289.0,848.0,1.0,1,963.0,1
420,420,0.8513081287579428,0.9,1.0,1.0,410.0,764.0,1.0,1,346.0,1
421,421,0.5843795343187265,0.6,0.0,0.0,480.0,882.0,0.0,1,268.0,1
422,422,0.8814849370750321,0.9,0.0,0.0,391.0,568.0,0.0,1,491.0,1
423,423,-0.2984095452144663,-0.3,0.0,1.0,346.0,790.0,1.0,0,154.0,1
424,424,0.10993413392234064,0.1,1.0,1.0,273.0,550.0,1.0,1,797.0,1
425,425,-0.05920165567683322,-0.1,1.0,0.0,425.0,926.0,0.0,0,279.0,1
426,426,0.6824833649934327,0.7,0.0,0.0,362.0,571.0,0.0,1,367.0,1
427,427,0.5072616829980986,0.5,1.0,1.0,422.0,748.0,1.0,1,180.0,1
428,428,0.6966948969142884,0.7,1.0,1.0,457.0,934.0,1.0,1,209.0,1
429,429,-0.7069247804319738,-0.7,1.0,0.0,321.0,829.0,0.0,0,270.0,1
430,430,0.7286132964068505,0.7,0.0,0.0,420.0,652.0,0.0,1,468.0,1
431,431,0.2132724229916766,0.2,1.0,1.0,452.0,604.0,1.0,1,714.0,1
432,432,-0.8154195798370256,-0.8,0.0,1.0,473.0,510.0,1.0,0,357.0,1
433,433,0.6499777769605931,0.6,1.0,1.0,408.0,574.0,1.0,1,278.0,1
434,434,0.6765240872131429,0.7,1.0,1.0,450.0,877.0,1.0,1,153.0,1
435,435,-0.6693580896211837,-0.7,1.0,0.0,328.0,836.0,0.0,0,306.0,1
436,436,0.6176479116602352,0.6,0.0,0.0,350.0,580.0,0.0,1,410.0,1
437,437,-0.6147629139927008,-0.6,1.0,0.0,305.0,745.0,0.0,0,190.0,1
438,438,0.5881239466660982,0.6,1.0,1.0,290.0,675.0,1.0,1,405.0,1
439,439,-0.4384199872701465,-0.4,1.0,0.0,435.0,592.0,0.0,0,673.0,1
440,440,0.6537754592124491,0.7,0.0,0.0,472.0,960.0,0.0,1,318.0,1
441,441,0.6713420753832874,0.7,0.0,0.0,444.0,514.0,0.0,1,432.0,1
442,442,-0.7627079319918294,-0.8,1.0,0.0,485.0,900.0,0.0,0,25.0,1
443,443,-0.0037423311449154006,-0.0,0.0,1.0,466.0,883.0,1.0,0,1131.0,1
444,444,0.1689024122759969,0.2,1.0,1.0,256.0,849.0,1.0,1,1795.0,1
445,445,0.5161014718694762,0.5,1.0,1.0,376.0,700.0,1.0,1,214.0,1
446,446,0.705222682702845,0.7,1.0,1.0,306.0,832.0,1.0,1,102.0,1
447,447,-0.006660572499913142,-0.0,1.0,0.0,298.0,743.0,0.0,0,919.0,1
448,448,-0.1866269764348496,-0.2,0.0,1.0,418.0,587.0,1.0,0,545.0,1
449,449,0.897355187040293,0.9,1.0,1.0,401.0,673.0,1.0,1,176.0,1
450,450,0.8413619659210746,0.8,1.0,1.0,301.0,852.0,1.0,1,67.0,1
451,451,0.8888233896783192,0.9,1.0,1.0,387.0,974.0,1.0,1,259.0,1
452,452,-0.28802649648687206,-0.3,0.0,1.0,499.0,584.0,1.0,0,397.0,1
453,453,0.8178072557375881,0.8,1.0,1.0,425.0,771.0,1.0,1,254.0,1
454,454,-0.6316899245508101,-0.6,1.0,0.0,412.0,720.0,0.0,0,348.0,1
455,455,-0.20179509892275604,-0.2,0.0,1.0,318.0,761.0,1.0,0,391.0,1
456,456,0.7318735013331662,0.7,1.0,1.0,484.0,743.0,1.0,1,393.0,1
457,457,0.7447031280471453,0.7,1.0,1.0,350.0,940.0,1.0,1,200.0,1
458,458,0.14896851518043552,0.1,0.0,0.0,466.0,538.0,0.0,1,666.0,1
459,459,-0.2689849569578062,-0.3,0.0,1.0,397.0,728.0,1.0,0,285.0,1
460,460,0.7148347550605542,0.7,1.0,1.0,477.0,648.0,1.0,1,215.0,1
461,461,-0.683622119861107,-0.7,0.0,1.0,368.0,594.0,1.0,0,298.0,1
462,462,-0.7965809135250875,-0.8,1.0,0.0,431.0,646.0,0.0,0,293.0,1
463,463,-0.4760322842169167,-0.5,1.0,0.0,460.0,602.0,0.0,0,278.0,1
464,464,-0.5435470107871048,-0.5,0.0,1.0,493.0,500.0,1.0,0,307.0,1
465,465,0.8810194994885635,0.9,1.0,1.0,411.0,759.0,1.0,1,120.0,1
466,466,-0.6851120889616623,-0.7,1.0,0.0,460.0,846.0,0.0,0,224.0,1
467,467,0.5923948725002076,0.6,1.0,1.0,360.0,691.0,1.0,1,169.0,1
468,468,0.7538314869928734,0.8,0.0,0.0,308.0,652.0,0.0,1,410.0,1
469,469,0.790553184552747,0.8,0.0,0.0,404.0,757.0,0.0,1,349.0,1
470,470,0.5483544259188363,0.5,1.0,1.0,377.0,733.0,1.0,1,460.0,1
471,471,-0.4461968142900235,-0.4,0.0,1.0,341.0,537.0,1.0,0,282.0,1
472,472,0.11013976722672181,0.1,1.0,1.0,459.0,778.0,1.0,1,653.0,1
473,473,0.2048744913216961,0.2,0.0,0.0,390.0,766.0,0.0,1,124.0,1
474,474,0.42704571305579153,0.4,0.0,0.0,415.0,653.0,0.0,1,352.0,1
475,475,-0.3243558213396325,-0.3,1.0,0.0,260.0,648.0,0.0,0,512.0,1
476,476,0.5537758688659754,0.6,0.0,0.0,381.0,942.0,0.0,1,157.0,1
477,477,-0.8682232842103925,-0.9,1.0,0.0,435.0,680.0,0.0,0,355.0,1
478,478,0.08749636343202394,0.1,0.0,0.0,270.0,898.0,0.0,1,772.0,1
479,479,-0.3532975089818876,-0.4,1.0,0.0,443.0,678.0,0.0,0,309.0,1
480,480,0.6779039088903921,0.7,1.0,1.0,309.0,920.0,1.0,1,181.0,1
481,481,-0.3388582352313927,-0.3,1.0,0.0,483.0,675.0,0.0,0,342.0,1
482,482,0.13551767692587957,0.1,1.0,1.0,379.0,597.0,1.0,1,734.0,1
483,483,-0.31653380781213447,-0.3,0.0,1.0,345.0,620.0,1.0,0,275.0,1
484,484,-0.06251182504624353,-0.1,0.0,1.0,328.0,605.0,1.0,0,1877.0,1
485,485,-0.3110813168365788,-0.3,0.0,1.0,471.0,735.0,1.0,0,364.0,1
486,486,-0.24110682513782644,-0.2,1.0,0.0,318.0,948.0,0.0,0,234.0,1
487,487,-0.1376926736367422,-0.1,0.0,1.0,350.0,777.0,1.0,0,723.0,1
488,488,0.12908893818606082,0.1,0.0,0.0,457.0,532.0,0.0,1,1581.0,1
489,489,-0.6004477853277317,-0.6,0.0,1.0,273.0,634.0,1.0,0,243.0,1
490,490,-0.4960194516962991,-0.5,0.0,1.0,370.0,940.0,1.0,0,120.0,1
491,491,0.09222470141697192,0.1,1.0,1.0,411.0,999.0,1.0,1,2140.0,1
492,492,0.8421391389886311,0.8,0.0,0.0,433.0,883.0,0.0,1,234.0,1
493,493,0.5613051926863594,0.6,0.0,0.0,411.0,931.0,0.0,1,298.0,1
494,494,-0.8409905683702827,-0.8,1.0,0.0,446.0,762.0,0.0,0,212.0,1
495,495,-0.4956896746135352,-0.5,1.0,0.0,253.0,734.0,0.0,0,263.0,1
496,496,-0.052650438407402356,-0.1,1.0,0.0,300.0,603.0,0.0,0,1967.0,1
497,497,0.3554692669571323,0.4,0.0,0.0,283.0,842.0,0.0,1,185.0,1
498,498,0.23763713944573028,0.2,1.0,1.0,464.0,689.0,1.0,1,1517.0,1
499,499,-0.44477922401984005,-0.4,0.0,1.0,365.0,838.0,1.0,0,237.0,1
500,500,-0.21937853543945973,-0.2,1.0,0.0,255.0,820.0,0.0,0,1355.0,1
501,501,-0.4375589827425188,-0.4,1.0,0.0,302.0,945.0,0.0,0,133.0,1
502,502,-0.8219325891250415,-0.8,0.0,1.0,444.0,996.0,1.0,0,200.0,1
503,503,-0.0002985222843229218,-0.0,1.0,0.0,476.0,754.0,0.0,0,2660.0,1
504,504,0.8293428836610875,0.8,1.0,1.0,320.0,711.0,1.0,1,249.0,1
505,505,-0.8584829331985426,-0.9,1.0,0.0,414.0,721.0,0.0,0,305.0,1
506,506,0.38235577584928004,0.4,0.0,0.0,368.0,801.0,0.0,1,361.0,1
507,507,0.8955194736955076,0.9,1.0,1.0,470.0,865.0,1.0,1,285.0,1
508,508,-0.5615158500352411,-0.6,0.0,1.0,482.0,808.0,1.0,0,210.0,1
509,509,-0.5509456066113484,-0.6,1.0,0.0,424.0,748.0,0.0,0,148.0,1
510,510,0.6402006640858761,0.6,1.0,1.0,400.0,742.0,1.0,1,308.0,1
511,511,0.5243056424360549,0.5,1.0,1.0,337.0,508.0,1.0,1,365.0,1
512,512,-0.20253225998010194,-0.2,1.0,0.0,407.0,688.0,0.0,0,545.0,1
513,513,-0.26529140744299107,-0.3,1.0,0.0,372.0,930.0,0.0,0,288.0,1
514,514,0.09324072406120376,0.1,1.0,1.0,494.0,568.0,1.0,1,818.0,1
515,515,0.18170051588814962,0.2,0.0,0.0,288.0,914.0,1.0,0,278.0,0
516,516,0.36390211061915656,0.4,0.0,0.0,258.0,754.0,0.0,1,468.0,1
517,517,-0.42487159792939005,-0.4,0.0,1.0,390.0,547.0,1.0,0,363.0,1
518,518,0.7512910121079382,0.8,0.0,0.0,326.0,748.0,0.0,1,176.0,1
519,519,-0.626127968970005,-0.6,0.0,1.0,385.0,537.0,1.0,0,218.0,1
520,520,-0.1982352004218163,-0.2,0.0,1.0,476.0,919.0,1.0,0,155.0,1
521,521,0.01882056917215802,0.0,0.0,0.0,449.0,848.0,1.0,0,293.0,0
522,522,0.4894553491741268,0.5,0.0,0.0,371.0,572.0,0.0,1,537.0,1
523,523,-0.27890773386507917,-0.3,0.0,1.0,300.0,817.0,1.0,0,313.0,1
524,524,0.4133193885419858,0.4,0.0,0.0,488.0,842.0,0.0,1,190.0,1
525,525,-0.07214128541586329,-0.1,1.0,0.0,389.0,920.0,0.0,0,3691.0,1
526,526,-0.14373598526335551,-0.1,0.0,1.0,417.0,812.0,1.0,0,561.0,1
527,527,0.6342825614069912,0.6,0.0,0.0,307.0,618.0,0.0,1,215.0,1
528,528,-0.40124986066563334,-0.4,0.0,1.0,467.0,664.0,1.0,0,429.0,1
529,529,0.3806746865310965,0.4,1.0,1.0,413.0,613.0,1.0,1,244.0,1
530,530,-0.3674284397309775,-0.4,0.0,1.0,364.0,897.0,1.0,0,319.0,1
531,531,0.6630496413976054,0.7,0.0,0.0,448.0,950.0,0.0,1,122.0,1
532,532,0.2844567739011875,0.3,0.0,0.0,386.0,968.0,0.0,1,136.0,1
533,533,0.4683526463312079,0.5,1.0,1.0,494.0,649.0,1.0,1,467.0,1
534,534,-0.518865961748979,-0.5,1.0,0.0,437.0,911.0,0.0,0,202.0,1
535,535,0.5745343076686166,0.6,0.0,0.0,373.0,693.0,0.0,1,264.0,1
536,536,-0.528006643596812,-0.5,0.0,1.0,317.0,817.0,1.0,0,156.0,1
537,537,-0.45818968050713915,-0.5,0.0,1.0,391.0,882.0,1.0,0,107.0,1
538,538,0.22466786755222012,0.2,1.0,1.0,253.0,607.0,1.0,1,620.0,1
539,539,-0.4836014576705919,-0.5,1.0,0.0,413.0,799.0,0.0,0,398.0,1
540,540,-0.7067260522573005,-0.7,0.0,1.0,456.0,984.0,1.0,0,40.0,1
541,541,-0.7484774178258373,-0.7,0.0,1.0,446.0,585.0,1.0,0,389.0,1
542,542,-0.5670640499561752,-0.6,0.0,1.0,450.0,928.0,1.0,0,222.0,1
543,543,-0.545936425715039,-0.5,0.0,1.0,267.0,992.0,1.0,0,111.0,1
544,544,-0.4872911100449317,-0.5,0.0,1.0,313.0,727.0,1.0,0,240.0,1
545,545,-0.57482549388866,-0.6,1.0,0.0,293.0,548.0,0.0,0,569.0,1
546,546,-0.36022028785585214,-0.4,1.0,0.0,280.0,968.0,0.0,0,372.0,1
547,547,-0.8354860003727962,-0.8,1.0,0.0,254.0,576.0,0.0,0,250.0,1
548,548,0.6101171402093345,0.6,0.0,0.0,438.0,501.0,0.0,1,451.0,1
549,549,-0.29415710469059897,-0.3,0.0,1.0,474.0,894.0,1.0,0,422.0,1
550,550,0.8782491552133843,0.9,0.0,0.0,261.0,787.0,0.0,1,102.0,1
551,551,0.7988333958825876,0.8,0.0,0.0,314.0,974.0,0.0,1,72.0,1
552,552,-0.6159819899263057,-0.6,0.0,1.0,465.0,715.0,1.0,0,390.0,1
553,553,-0.7275003216753789,-0.7,0.0,1.0,437.0,917.0,1.0,0,156.0,1
554,554,0.7822133443698381,0.8,0.0,0.0,476.0,527.0,0.0,1,307.0,1
555,555,-0.4430824737450728,-0.4,1.0,0.0,300.0,937.0,0.0,0,273.0,1
556,556,-0.6452815700359844,-0.6,1.0,0.0,374.0,752.0,0.0,0,194.0,1
557,557,-0.6440924235867478,-0.6,0.0,1.0,417.0,884.0,1.0,0,169.0,1
558,558,0.5062409328915652,0.5,0.0,0.0,379.0,611.0,0.0,1,440.0,1
559,559,-0.19992752445672168,-0.2,0.0,1.0,294.0,838.0,1.0,0,368.0,1
560,560,-0.5297350459298313,-0.5,1.0,0.0,386.0,907.0,0.0,0,197.0,1
561,561,-0.6986995900878855,-0.7,0.0,1.0,267.0,796.0,1.0,0,137.0,1
562,562,-0.7856893322122944,-0.8,1.0,0.0,307.0,715.0,0.0,0,148.0,1
563,563,-0.32464771626229316,-0.3,1.0,0.0,341.0,871.0,0.0,0,488.0,1
564,564,0.5590740269608229,0.6,0.0,0.0,253.0,924.0,0.0,1,323.0,1
565,565,-0.7378790744998848,-0.7,1.0,0.0,458.0,921.0,0.0,0,361.0,1
566,566,0.017952976544773902,0.0,1.0,1.0,383.0,761.0,1.0,1,1406.0,1
567,567,0.8467373420751315,0.8,0.0,0.0,255.0,968.0,0.0,1,927.0,1
568,568,-0.7870998174387617,-0.8,0.0,1.0,477.0,558.0,1.0,0,165.0,1
569,569,-0.5999698283071011,-0.6,1.0,0.0,292.0,658.0,0.0,0,280.0,1
570,570,-0.28600559808838455,-0.3,1.0,0.0,288.0,681.0,0.0,0,741.0,1
571,571,0.8404089508224443,0.8,0.0,0.0,377.0,910.0,0.0,1,373.0,1
572,572,0.6601208348843984,0.7,0.0,0.0,384.0,883.0,0.0,1,413.0,1
573,573,0.018244950108561864,0.0,0.0,0.0,453.0,829.0,1.0,0,2358.0,0
574,574,0.4041892344903325,0.4,1.0,1.0,359.0,913.0,1.0,1,208.0,1
575,575,0.5491671649739304,0.5,1.0,1.0,479.0,794.0,1.0,1,137.0,1
576,576,-0.4579213852486745,-0.5,1.0,0.0,330.0,777.0,0.0,0,253.0,1
577,577,-0.05010450330677674,-0.1,1.0,0.0,385.0,603.0,0.0,0,1142.0,1
578,578,-0.6517983231067926,-0.7,1.0,0.0,388.0,859.0,0.0,0,333.0,1
579,579,0.32024992044371026,0.3,1.0,1.0,443.0,539.0,1.0,1,398.0,1
580,580,-0.6677649788455216,-0.7,0.0,1.0,451.0,549.0,1.0,0,310.0,1
581,581,-0.39411802170289745,-0.4,1.0,0.0,254.0,634.0,0.0,0,702.0,1
582,582,-0.5101391318250894,-0.5,0.0,1.0,474.0,634.0,1.0,0,222.0,1
583,583,0.41960409632291606,0.4,0.0,0.0,476.0,572.0,0.0,1,532.0,1
584,584,-0.36165900982874577,-0.4,0.0,1.0,331.0,795.0,1.0,0,94.0,1
585,585,-0.27055901614501066,-0.3,0.0,1.0,427.0,934.0,1.0,0,1849.0,1
586,586,0.16852261497208343,0.2,1.0,1.0,390.0,783.0,1.0,1,627.0,1
587,587,0.5444282212428099,0.5,0.0,0.0,427.0,634.0,0.0,1,289.0,1
588,588,0.312206550714052,0.3,0.0,0.0,457.0,547.0,0.0,1,366.0,1
589,589,-0.594333786460779,-0.6,1.0,0.0,333.0,703.0,0.0,0,324.0,1
590,590,-0.8952186786599928,-0.9,0.0,1.0,412.0,508.0,1.0,0,210.0,1
591,591,-0.49082516113307556,-0.5,0.0,1.0,352.0,523.0,1.0,0,325.0,1
592,592,-0.8903840906901845,-0.9,1.0,0.0,259.0,932.0,0.0,0,139.0,1
593,593,-0.3349242854685741,-0.3,0.0,1.0,262.0,723.0,1.0,0,425.0,1
594,594,-0.3923417297108829,-0.4,1.0,0.0,478.0,996.0,0.0,0,266.0,1
595,595,0.07663580195246134,0.1,1.0,1.0,489.0,913.0,1.0,1,438.0,1
596,596,0.1069633042925936,0.1,0.0,0.0,406.0,800.0,0.0,1,1294.0,1
597,597,-0.6116054961354485,-0.6,0.0,1.0,426.0,886.0,1.0,0,48.0,1
598,598,0.3360577243161521,0.3,0.0,0.0,467.0,757.0,0.0,1,336.0,1
599,599,0.8981481034460516,0.9,0.0,0.0,301.0,559.0,0.0,1,370.0,1
600,600,-0.13206904840724254,-0.1,1.0,0.0,405.0,873.0,0.0,0,282.0,1
601,601,0.7925727357878886,0.8,0.0,0.0,399.0,549.0,0.0,1,322.0,1
602,602,0.8275624941376803,0.8,1.0,1.0,364.0,914.0,1.0,1,132.0,1
603,603,-0.35268189811931383,-0.4,0.0,1.0,390.0,656.0,1.0,0,254.0,1
604,604,-0.8276913818280354,-0.8,0.0,1.0,322.0,638.0,1.0,0,190.0,1
605,605,0.2653122014277899,0.3,1.0,1.0,251.0,968.0,1.0,1,71.0,1
606,606,0.8277521511388702,0.8,1.0,1.0,330.0,520.0,1.0,1,440.0,1
607,607,0.3499725851049832,0.3,0.0,0.0,437.0,880.0,0.0,1,13.0,1
608,608,0.8468214893750853,0.8,0.0,0.0,476.0,935.0,0.0,1,519.0,1
609,609,-0.25227673190291966,-0.3,1.0,0.0,341.0,870.0,0.0,0,1449.0,1
610,610,-0.46973795583878436,-0.5,0.0,1.0,388.0,938.0,1.0,0,124.0,1
611,611,0.8046111298653488,0.8,1.0,1.0,271.0,763.0,1.0,1,216.0,1
612,612,-0.08730535768067171,-0.1,1.0,0.0,360.0,635.0,0.0,0,945.0,1
613,613,0.4506650380742715,0.5,0.0,0.0,322.0,876.0,0.0,1,392.0,1
614,614,0.6436921077719943,0.6,1.0,1.0,360.0,903.0,1.0,1,217.0,1
615,615,-0.6092973300675641,-0.6,0.0,1.0,418.0,889.0,1.0,0,153.0,1
616,616,0.04944316448899699,0.0,0.0,0.0,381.0,652.0,0.0,1,517.0,1
617,617,-0.5695927830484155,-0.6,1.0,0.0,406.0,932.0,0.0,0,72.0,1
618,618,-0.2437380608940488,-0.2,0.0,1.0,325.0,727.0,1.0,0,178.0,1
619,619,-0.797351602824691,-0.8,1.0,0.0,316.0,745.0,0.0,0,249.0,1
620,620,0.5042542135959903,0.5,1.0,1.0,370.0,987.0,1.0,1,43.0,1
621,621,-0.1722011488558437,-0.2,1.0,0.0,429.0,677.0,0.0,0,684.0,1
622,622,0.17329664180391313,0.2,0.0,0.0,254.0,596.0,0.0,1,560.0,1
623,623,-0.43245109034047247,-0.4,0.0,1.0,372.0,558.0,1.0,0,570.0,1
624,624,-0.8326356316261937,-0.8,0.0,1.0,295.0,822.0,1.0,0,123.0,1
625,625,-0.8222087232372902,-0.8,0.0,1.0,293.0,963.0,1.0,0,134.0,1
626,626,0.11453061495969086,0.1,0.0,0.0,334.0,902.0,0.0,1,3764.0,1
627,627,0.3980798388147989,0.4,1.0,1.0,405.0,937.0,1.0,1,238.0,1
628,628,-0.6212365232488319,-0.6,0.0,1.0,325.0,822.0,1.0,0,213.0,1
629,629,-0.5504614430023944,-0.6,1.0,0.0,484.0,698.0,0.0,0,378.0,1
630,630,0.3151961712409147,0.3,1.0,1.0,399.0,913.0,1.0,1,228.0,1
631,631,-0.7698859351827497,-0.8,1.0,0.0,480.0,666.0,0.0,0,264.0,1
632,632,0.22939345332320527,0.2,0.0,0.0,430.0,950.0,0.0,1,330.0,1
633,633,0.08391060594843158,0.1,0.0,0.0,290.0,722.0,1.0,0,618.0,0
634,634,0.7704068269518866,0.8,0.0,0.0,253.0,580.0,0.0,1,337.0,1
635,635,-0.0012616579746260737,-0.0,1.0,0.0,476.0,789.0,1.0,1,355.0,0
636,636,0.7336338249269382,0.7,1.0,1.0,253.0,695.0,1.0,1,242.0,1
637,637,0.6647809421970551,0.7,0.0,0.0,498.0,986.0,0.0,1,76.0,1
638,638,0.24359930895711834,0.2,0.0,0.0,476.0,879.0,0.0,1,235.0,1
639,639,-0.47367894376594266,-0.5,0.0,1.0,352.0,714.0,1.0,0,204.0,1
640,640,-0.20795480816817757,-0.2,1.0,0.0,339.0,949.0,0.0,0,342.0,1
641,641,-0.4313681807061549,-0.4,1.0,0.0,454.0,706.0,0.0,0,360.0,1
642,642,0.2443337017097068,0.2,0.0,0.0,338.0,913.0,0.0,1,179.0,1
643,643,-0.44756878717363496,-0.4,0.0,1.0,437.0,801.0,1.0,0,302.0,1
644,644,-0.12268843470348323,-0.1,1.0,0.0,391.0,990.0,0.0,0,879.0,1
645,645,-0.6904276187577356,-0.7,0.0,1.0,397.0,986.0,1.0,0,177.0,1
646,646,-0.22662060337520018,-0.2,1.0,0.0,257.0,650.0,0.0,0,353.0,1
647,647,-0.3050420833232891,-0.3,1.0,0.0,385.0,929.0,0.0,0,806.0,1
648,648,0.314099718937792,0.3,0.0,0.0,295.0,986.0,0.0,1,179.0,1
649,649,0.5100467232976788,0.5,0.0,0.0,294.0,635.0,0.0,1,351.0,1
650,650,0.20700738145236575,0.2,0.0,0.0,467.0,743.0,0.0,1,230.0,1
651,651,-0.6555199511640034,-0.7,0.0,1.0,471.0,534.0,1.0,0,225.0,1
652,652,-0.5878824973997483,-0.6,1.0,0.0,312.0,743.0,0.0,0,315.0,1
653,653,0.418759735716859,0.4,1.0,1.0,274.0,749.0,1.0,1,237.0,1
654,654,0.3556051964967085,0.4,1.0,1.0,303.0,965.0,1.0,1,172.0,1
655,655,-0.6694384328613016,-0.7,1.0,0.0,279.0,888.0,0.0,0,263.0,1
656,656,-0.784161542081495,-0.8,1.0,0.0,348.0,852.0,0.0,0,460.0,1
657,657,-0.005875464370996175,-0.0,0.0,1.0,343.0,555.0,1.0,0,442.0,1
658,658,0.4906414828279849,0.5,1.0,1.0,281.0,515.0,1.0,1,324.0,1
659,659,-0.6960450193857712,-0.7,0.0,1.0,348.0,967.0,1.0,0,5.0,1
660,660,-0.8053576574920172,-0.8,0.0,1.0,457.0,898.0,1.0,0,145.0,1
661,661,0.7916999247359308,0.8,0.0,0.0,270.0,989.0,0.0,1,371.0,1
662,662,-0.012402671263937348,-0.0,0.0,1.0,411.0,786.0,1.0,0,583.0,1
663,663,0.20094506961676684,0.2,1.0,1.0,472.0,588.0,1.0,1,480.0,1
664,664,-0.2689418527541789,-0.3,1.0,0.0,272.0,779.0,0.0,0,139.0,1
665,665,0.48282604602070955,0.5,1.0,1.0,319.0,698.0,1.0,1,203.0,1
666,666,-0.7471919992849851,-0.7,0.0,1.0,356.0,869.0,1.0,0,85.0,1
667,667,0.46819922015567694,0.5,0.0,0.0,475.0,869.0,0.0,1,196.0,1
668,668,-0.09614170163204261,-0.1,0.0,1.0,412.0,614.0,1.0,0,264.0,1
669,669,-0.253020421272801,-0.3,0.0,1.0,473.0,501.0,1.0,0,536.0,1
670,670,-0.08649853987888889,-0.1,0.0,1.0,283.0,555.0,1.0,0,1122.0,1
671,671,-0.09954229830873318,-0.1,1.0,0.0,291.0,946.0,1.0,1,1133.0,0
672,672,-0.7272494738978313,-0.7,1.0,0.0,493.0,940.0,0.0,0,227.0,1
673,673,-0.22354261563982392,-0.2,1.0,0.0,254.0,771.0,0.0,0,865.0,1
674,674,-0.833696028780853,-0.8,1.0,0.0,328.0,976.0,0.0,0,176.0,1
675,675,-0.1980329779840473,-0.2,0.0,1.0,435.0,807.0,1.0,0,208.0,1
676,676,0.11410398233544694,0.1,0.0,0.0,438.0,752.0,0.0,1,320.0,1
677,677,-0.1593742238469119,-0.2,0.0,1.0,318.0,835.0,1.0,0,537.0,1
678,678,-0.09284845101903172,-0.1,0.0,1.0,406.0,991.0,1.0,0,603.0,1
679,679,-0.5491401806188796,-0.5,1.0,0.0,435.0,615.0,0.0,0,290.0,1
680,680,-0.7604525302708607,-0.8,0.0,1.0,283.0,981.0,1.0,0,106.0,1
681,681,-0.07689615238470837,-0.1,0.0,1.0,275.0,960.0,1.0,0,855.0,1
682,682,0.8712904948617824,0.9,1.0,1.0,475.0,666.0,1.0,1,329.0,1
683,683,0.1066285222707043,0.1,1.0,1.0,419.0,597.0,1.0,1,3134.0,1
684,684,-0.4435761354805287,-0.4,1.0,0.0,447.0,950.0,0.0,0,363.0,1
685,685,-0.4598468278453269,-0.5,1.0,0.0,465.0,706.0,0.0,0,289.0,1
686,686,-0.5127164523439449,-0.5,0.0,1.0,302.0,541.0,1.0,0,477.0,1
687,687,-0.08785190581554381,-0.1,0.0,1.0,474.0,815.0,1.0,0,641.0,1
688,688,-0.31892447025050497,-0.3,0.0,1.0,296.0,849.0,1.0,0,395.0,1
689,689,-0.5689557558387757,-0.6,1.0,0.0,442.0,813.0,0.0,0,265.0,1
690,690,0.7329425953169594,0.7,1.0,1.0,387.0,642.0,1.0,1,321.0,1
691,691,0.32786653268332133,0.3,0.0,0.0,417.0,678.0,0.0,1,375.0,1
692,692,-0.6027522178083282,-0.6,1.0,0.0,317.0,891.0,0.0,0,92.0,1
693,693,-0.13552135549293087,-0.1,1.0,0.0,453.0,806.0,0.0,0,821.0,1
694,694,0.4068003042856426,0.4,1.0,1.0,355.0,514.0,1.0,1,511.0,1
695,695,-0.19967374858945153,-0.2,1.0,0.0,312.0,862.0,0.0,0,546.0,1
696,696,-0.4822277184931601,-0.5,0.0,1.0,393.0,986.0,1.0,0,91.0,1
697,697,-0.16256567647387732,-0.2,1.0,0.0,494.0,905.0,0.0,0,731.0,1
698,698,0.2791450868892881,0.3,1.0,1.0,435.0,654.0,1.0,1,441.0,1
699,699,0.7608307306430616,0.8,0.0,0.0,441.0,859.0,0.0,1,240.0,1
700,700,-0.7052142542604858,-0.7,1.0,0.0,451.0,793.0,0.0,0,276.0,1
701,701,-0.16434067084189197,-0.2,0.0,1.0,364.0,735.0,1.0,0,531.0,1
702,702,-0.8380000361076272,-0.8,0.0,1.0,370.0,729.0,1.0,0,211.0,1
703,703,-0.4263516547388699,-0.4,0.0,1.0,391.0,562.0,1.0,0,297.0,1
704,704,-0.3259648735845615,-0.3,1.0,0.0,481.0,800.0,0.0,0,389.0,1
705,705,0.8520040995888508,0.9,1.0,1.0,410.0,765.0,1.0,1,145.0,1
706,706,0.004554565107198538,0.0,0.0,0.0,258.0,761.0,1.0,0,171.0,0
707,707,-0.8451735508791752,-0.8,1.0,0.0,286.0,838.0,0.0,0,186.0,1
708,708,0.8331277938286222,0.8,0.0,0.0,297.0,641.0,0.0,1,412.0,1
709,709,-0.10252506177141796,-0.1,1.0,0.0,278.0,875.0,0.0,0,2137.0,1
710,710,0.105886835869207,0.1,0.0,0.0,315.0,839.0,0.0,1,2056.0,1
711,711,-0.7545960117725282,-0.8,0.0,1.0,451.0,899.0,1.0,0,210.0,1
712,712,0.17405846372828415,0.2,0.0,0.0,333.0,657.0,1.0,0,320.0,0
713,713,-0.7513409410866103,-0.8,0.0,1.0,357.0,625.0,1.0,0,468.0,1
714,714,0.2338238338827684,0.2,1.0,1.0,384.0,836.0,1.0,1,650.0,1
715,715,0.7527466052995261,0.8,0.0,0.0,430.0,655.0,0.0,1,345.0,1
716,716,0.6506850218916312,0.7,1.0,1.0,279.0,726.0,1.0,1,215.0,1
717,717,-0.5769834744764848,-0.6,1.0,0.0,442.0,860.0,0.0,0,338.0,1
718,718,-0.015948724836813533,-0.0,0.0,1.0,409.0,687.0,0.0,1,2724.0,0
719,719,-0.016376491019637895,-0.0,1.0,0.0,458.0,886.0,0.0,0,36.0,1
720,720,-0.16017033965361216,-0.2,0.0,1.0,432.0,518.0,1.0,0,320.0,1
721,721,-0.390270476516285,-0.4,0.0,1.0,402.0,805.0,1.0,0,383.0,1
722,722,0.3768201690466818,0.4,0.0,0.0,259.0,737.0,0.0,1,684.0,1
723,723,-0.27832145743709236,-0.3,1.0,0.0,370.0,541.0,0.0,0,409.0,1
724,724,-0.19863543541658113,-0.2,0.0,1.0,488.0,611.0,1.0,0,801.0,1
725,725,-0.8979614152777786,-0.9,0.0,1.0,266.0,838.0,1.0,0,156.0,1
726,726,0.04788466679474179,0.0,1.0,1.0,280.0,561.0,1.0,1,649.0,1
727,727,-0.3073209062637884,-0.3,0.0,1.0,378.0,839.0,1.0,0,263.0,1
728,728,-0.1026558305271501,-0.1,1.0,0.0,409.0,994.0,0.0,0,2327.0,1
729,729,-0.6267992551891258,-0.6,0.0,1.0,300.0,716.0,1.0,0,254.0,1
730,730,0.45866276666068406,0.5,1.0,1.0,487.0,877.0,1.0,1,296.0,1
731,731,-0.654853040756846,-0.7,0.0,1.0,444.0,968.0,1.0,0,278.0,1
732,732,0.8580320724678997,0.9,1.0,1.0,330.0,588.0,1.0,1,302.0,1
733,733,-0.14394753014087358,-0.1,1.0,0.0,346.0,687.0,0.0,0,687.0,1
734,734,0.6723288021676136,0.7,0.0,0.0,487.0,606.0,0.0,1,467.0,1
735,735,0.6867691930904088,0.7,1.0,1.0,490.0,578.0,1.0,1,262.0,1
736,736,-0.38782136799997846,-0.4,0.0,1.0,295.0,903.0,1.0,0,242.0,1
737,737,-0.7461353203423546,-0.7,1.0,0.0,446.0,958.0,0.0,0,186.0,1
738,738,-0.04238394597872941,-0.0,1.0,0.0,280.0,716.0,0.0,0,2444.0,1
739,739,0.6846700844875816,0.7,1.0,1.0,356.0,641.0,1.0,1,223.0,1
740,740,-0.7052453109921126,-0.7,1.0,0.0,379.0,743.0,0.0,0,188.0,1
741,741,-0.2526347199653991,-0.3,1.0,0.0,409.0,704.0,0.0,0,447.0,1
742,742,0.7389796666480969,0.7,0.0,0.0,330.0,819.0,0.0,1,251.0,1
743,743,0.5273454287297014,0.5,1.0,1.0,348.0,761.0,1.0,1,281.0,1
744,744,-0.2066246198179741,-0.2,1.0,0.0,349.0,973.0,0.0,0,348.0,1
745,745,-0.1346347247905697,-0.1,0.0,1.0,388.0,731.0,1.0,0,281.0,1
746,746,0.5704850838305814,0.6,0.0,0.0,331.0,795.0,0.0,1,364.0,1
747,747,0.2991783673552163,0.3,1.0,1.0,455.0,830.0,1.0,1,435.0,1
748,748,-0.7790326226815328,-0.8,1.0,0.0,383.0,658.0,0.0,0,369.0,1
749,749,-0.2633219265948049,-0.3,0.0,1.0,421.0,928.0,1.0,0,501.0,1
750,750,0.04247576548455678,0.0,1.0,1.0,295.0,539.0,1.0,1,1026.0,1
751,751,0.26953884031597986,0.3,1.0,1.0,413.0,885.0,1.0,1,152.0,1
752,752,0.1480245253527278,0.1,0.0,0.0,405.0,924.0,0.0,1,291.0,1
753,753,0.6129228443737004,0.6,1.0,1.0,459.0,931.0,1.0,1,250.0,1
754,754,-0.7435500660805755,-0.7,1.0,0.0,270.0,950.0,0.0,0,190.0,1
755,755,-0.8183961627743848,-0.8,1.0,0.0,385.0,936.0,0.0,0,329.0,1
756,756,0.19348806328989732,0.2,0.0,0.0,387.0,618.0,0.0,1,485.0,1
757,757,0.8693065980292592,0.9,1.0,1.0,373.0,888.0,1.0,1,89.0,1
758,758,-0.5273210698659738,-0.5,1.0,0.0,345.0,712.0,0.0,0,153.0,1
759,759,0.6135585566004705,0.6,0.0,0.0,392.0,559.0,0.0,1,249.0,1
760,760,0.7410836027558406,0.7,0.0,0.0,485.0,658.0,0.0,1,327.0,1
761,761,0.4926774348532733,0.5,0.0,0.0,321.0,844.0,0.0,1,205.0,1
762,762,-0.07866973848062309,-0.1,1.0,0.0,378.0,892.0,0.0,0,1810.0,1
763,763,-0.7725007190899846,-0.8,1.0,0.0,470.0,914.0,0.0,0,166.0,1
764,764,-0.1450645145197631,-0.1,1.0,0.0,251.0,779.0,0.0,0,490.0,1
765,765,-0.19034392073065232,-0.2,0.0,1.0,417.0,969.0,1.0,0,84.0,1
766,766,0.6726718085320932,0.7,1.0,1.0,414.0,735.0,1.0,1,281.0,1
767,767,-0.1162527310423207,-0.1,0.0,1.0,300.0,845.0,1.0,0,2175.0,1
768,768,-0.7974379552181995,-0.8,1.0,0.0,443.0,701.0,0.0,0,186.0,1
769,769,0.5821286131019493,0.6,0.0,0.0,399.0,517.0,0.0,1,384.0,1
770,770,0.818477126774657,0.8,1.0,1.0,478.0,890.0,1.0,1,112.0,1
771,771,0.5109742607117643,0.5,0.0,0.0,457.0,814.0,0.0,1,509.0,1
772,772,-0.2796711734188333,-0.3,1.0,0.0,407.0,843.0,0.0,0,650.0,1
773,773,-0.5684859804839968,-0.6,1.0,0.0,396.0,797.0,0.0,0,147.0,1
774,774,0.26040757415907645,0.3,1.0,1.0,361.0,890.0,1.0,1,259.0,1
775,775,-0.4268225286082718,-0.4,1.0,0.0,465.0,680.0,0.0,0,405.0,1
776,776,0.386309059027944,0.4,1.0,1.0,291.0,839.0,1.0,1,250.0,1
777,777,-0.14693341419424044,-0.1,0.0,1.0,296.0,747.0,1.0,0,547.0,1
778,778,0.16362363864464535,0.2,0.0,0.0,292.0,656.0,0.0,1,3872.0,1
779,779,0.7378701012559322,0.7,0.0,0.0,480.0,976.0,0.0,1,214.0,1
780,780,-0.49112387245628647,-0.5,0.0,1.0,286.0,675.0,1.0,0,289.0,1
781,781,0.6886264050189609,0.7,1.0,1.0,346.0,855.0,1.0,1,169.0,1
782,782,0.5124581733558037,0.5,0.0,0.0,341.0,630.0,0.0,1,319.0,1
783,783,0.8979719278058004,0.9,0.0,0.0,288.0,584.0,0.0,1,278.0,1
784,784,0.40725153042279494,0.4,0.0,0.0,363.0,984.0,0.0,1,273.0,1
785,785,0.09679008408706746,0.1,1.0,1.0,270.0,962.0,0.0,0,-202.0,0
786,786,0.4090699085854891,0.4,0.0,0.0,286.0,741.0,0.0,1,283.0,1
787,787,0.31532261611310697,0.3,1.0,1.0,328.0,968.0,1.0,1,184.0,1
788,788,0.6585531854594641,0.7,1.0,1.0,377.0,819.0,1.0,1,184.0,1
789,789,0.8555512294414706,0.9,1.0,1.0,330.0,966.0,1.0,1,144.0,1
790,790,-0.7842202547954077,-0.8,0.0,1.0,478.0,575.0,1.0,0,377.0,1
791,791,0.4164274769862545,0.4,1.0,1.0,369.0,805.0,1.0,1,426.0,1
792,792,-0.7247072241899444,-0.7,1.0,0.0,350.0,815.0,0.0,0,185.0,1
793,793,-0.5190673483508899,-0.5,0.0,1.0,471.0,755.0,1.0,0,144.0,1
794,794,-0.15610418421314398,-0.2,1.0,0.0,447.0,668.0,0.0,0,555.0,1
795,795,0.8917799804964389,0.9,0.0,0.0,447.0,678.0,0.0,1,415.0,1
796,796,-0.40295559779801043,-0.4,1.0,0.0,362.0,995.0,0.0,0,113.0,1
797,797,0.0484661325924598,0.0,1.0,1.0,400.0,539.0,1.0,1,751.0,1
798,798,0.8749795371063335,0.9,1.0,1.0,375.0,560.0,1.0,1,325.0,1
799,799,0.12658170211773945,0.1,1.0,1.0,426.0,948.0,1.0,1,666.0,1
800,800,-0.26343924098335914,-0.3,0.0,1.0,465.0,851.0,1.0,0,464.0,1
801,801,-0.3316925241989338,-0.3,1.0,0.0,384.0,693.0,0.0,0,403.0,1
802,802,0.7312009006677808,0.7,1.0,1.0,477.0,722.0,1.0,1,211.0,1
803,803,0.7525236736071227,0.8,1.0,1.0,277.0,726.0,1.0,1,157.0,1
804,804,0.5008141276495343,0.5,0.0,0.0,380.0,677.0,0.0,1,323.0,1
805,805,0.5805571678283353,0.6,1.0,1.0,258.0,871.0,1.0,1,271.0,1
806,806,-0.8681410477045193,-0.9,1.0,0.0,325.0,568.0,0.0,0,357.0,1
807,807,0.030800152756847554,0.0,1.0,1.0,281.0,679.0,1.0,1,640.0,1
808,808,0.5050096380706907,0.5,0.0,0.0,462.0,690.0,0.0,1,258.0,1
809,809,-0.46326611321924016,-0.5,1.0,0.0,400.0,685.0,0.0,0,365.0,1
810,810,-0.2897848074836441,-0.3,1.0,0.0,403.0,833.0,0.0,0,124.0,1
811,811,0.6508247710261449,0.7,1.0,1.0,361.0,893.0,1.0,1,166.0,1
812,812,0.6020784470276225,0.6,1.0,1.0,335.0,716.0,1.0,1,219.0,1
813,813,-0.1845010416494094,-0.2,0.0,1.0,296.0,702.0,1.0,0,522.0,1
814,814,0.3830314401099465,0.4,1.0,1.0,429.0,774.0,1.0,1,277.0,1
815,815,-0.7450101435493485,-0.7,1.0,0.0,281.0,923.0,0.0,0,136.0,1
816,816,-0.12267102524802853,-0.1,0.0,1.0,463.0,975.0,0.0,1,42.0,0
817,817,-0.040720700496611695,-0.0,1.0,0.0,483.0,644.0,0.0,0,513.0,1
818,818,-0.8436957967115564,-0.8,0.0,1.0,426.0,654.0,1.0,0,240.0,1
819,819,-0.08902293822682006,-0.1,0.0,1.0,483.0,700.0,1.0,0,967.0,1
820,820,-0.3886936048416172,-0.4,1.0,0.0,496.0,852.0,0.0,0,132.0,1
821,821,-0.035896778618136116,-0.0,0.0,1.0,429.0,759.0,1.0,0,252.0,1
822,822,-0.8340550053524514,-0.8,1.0,0.0,301.0,941.0,0.0,0,118.0,1
823,823,-0.6203676363369908,-0.6,0.0,1.0,497.0,830.0,1.0,0,83.0,1
824,824,-0.12211883846276206,-0.1,1.0,0.0,401.0,847.0,0.0,0,3632.0,1
825,825,0.31378305493603864,0.3,0.0,0.0,417.0,757.0,0.0,1,356.0,1
826,826,0.02715501417259769,0.0,0.0,0.0,496.0,880.0,1.0,0,334.0,0
827,827,-0.6194894392429375,-0.6,0.0,1.0,354.0,538.0,1.0,0,468.0,1
828,828,-0.4316180215685101,-0.4,0.0,1.0,332.0,927.0,1.0,0,91.0,1
829,829,0.5245708222840847,0.5,0.0,0.0,490.0,769.0,0.0,1,381.0,1
830,830,0.6878043790064933,0.7,0.0,0.0,414.0,523.0,0.0,1,363.0,1
831,831,0.7682668058482779,0.8,0.0,0.0,454.0,764.0,0.0,1,462.0,1
832,832,0.5389644594186139,0.5,0.0,0.0,252.0,911.0,0.0,1,527.0,1
833,833,-0.04065303626294914,-0.0,1.0,0.0,465.0,695.0,1.0,1,3840.0,0
834,834,0.09174268882078696,0.1,0.0,0.0,400.0,771.0,0.0,1,599.0,1
835,835,0.26428133452304736,0.3,0.0,0.0,392.0,832.0,0.0,1,486.0,1
836,836,-0.6101773991620296,-0.6,0.0,1.0,306.0,673.0,1.0,0,321.0,1
837,837,-0.17682644255308588,-0.2,0.0,1.0,419.0,573.0,1.0,0,668.0,1
838,838,0.43034495739242196,0.4,1.0,1.0,492.0,570.0,1.0,1,438.0,1
839,839,0.14677220917898504,0.1,0.0,0.0,294.0,925.0,0.0,1,581.0,1
840,840,0.5300547952126741,0.5,1.0,1.0,278.0,651.0,1.0,1,551.0,1
841,841,-0.11465584120695083,-0.1,1.0,0.0,432.0,731.0,0.0,0,747.0,1
842,842,-0.27443099949797367,-0.3,0.0,1.0,433.0,638.0,1.0,0,279.0,1
843,843,0.4796242583998983,0.5,0.0,0.0,463.0,815.0,0.0,1,342.0,1
844,844,-0.8952622063662489,-0.9,0.0,1.0,409.0,899.0,1.0,0,122.0,1
845,845,0.7243076245469099,0.7,1.0,1.0,446.0,816.0,1.0,1,228.0,1
846,846,0.710216133928906,0.7,1.0,1.0,374.0,820.0,1.0,1,196.0,1
847,847,0.7463287797266339,0.7,0.0,0.0,289.0,951.0,0.0,1,240.0,1
848,848,0.5214428586852026,0.5,0.0,0.0,379.0,548.0,0.0,1,503.0,1
849,849,-0.6603406399560754,-0.7,1.0,0.0,428.0,683.0,0.0,0,279.0,1
850,850,0.18185449198253323,0.2,1.0,1.0,289.0,851.0,1.0,1,610.0,1
851,851,0.6012600587207794,0.6,0.0,0.0,291.0,633.0,0.0,1,306.0,1
852,852,0.7863418338818179,0.8,1.0,1.0,336.0,659.0,1.0,1,405.0,1
853,853,-0.027086995581627082,-0.0,1.0,0.0,408.0,631.0,1.0,1,1391.0,0
854,854,0.19127639738564672,0.2,0.0,0.0,350.0,582.0,0.0,1,578.0,1
855,855,0.8478399307088701,0.8,1.0,1.0,498.0,524.0,1.0,1,198.0,1
856,856,-0.7486638673406829,-0.7,0.0,1.0,398.0,762.0,1.0,0,170.0,1
857,857,-0.07629657115649513,-0.1,0.0,1.0,391.0,620.0,1.0,0,489.0,1
858,858,0.86769265921047,0.9,1.0,1.0,342.0,657.0,1.0,1,171.0,1
859,859,-0.7825968596206493,-0.8,0.0,1.0,279.0,504.0,1.0,0,297.0,1
860,860,0.4407503691862965,0.4,0.0,0.0,401.0,618.0,0.0,1,431.0,1
861,861,-0.3190817181166328,-0.3,0.0,1.0,403.0,992.0,1.0,0,555.0,1
862,862,-0.38783771309516335,-0.4,1.0,0.0,342.0,556.0,0.0,0,902.0,1
863,863,0.7734221371537987,0.8,0.0,0.0,421.0,517.0,0.0,1,212.0,1
864,864,0.02434417449197046,0.0,1.0,1.0,301.0,602.0,0.0,0,1667.0,0
865,865,-0.01692195047907019,-0.0,0.0,1.0,384.0,535.0,1.0,0,1091.0,1
866,866,-0.587203400366747,-0.6,0.0,1.0,296.0,954.0,1.0,0,100.0,1
867,867,0.6428759700510099,0.6,0.0,0.0,282.0,749.0,0.0,1,289.0,1
868,868,-0.5740346688169479,-0.6,0.0,1.0,326.0,540.0,1.0,0,204.0,1
869,869,-0.07886049054738853,-0.1,0.0,1.0,447.0,604.0,1.0,0,669.0,1
870,870,-0.023329894817144536,-0.0,1.0,0.0,326.0,848.0,0.0,0,1296.0,1
871,871,-0.03988350452374889,-0.0,1.0,0.0,438.0,905.0,1.0,1,2017.0,0
872,872,0.19467774900188617,0.2,0.0,0.0,492.0,942.0,0.0,1,406.0,1
873,873,-0.612475506805179,-0.6,1.0,0.0,439.0,939.0,0.0,0,162.0,1
874,874,-0.10633644195878655,-0.1,1.0,0.0,430.0,806.0,0.0,0,1114.0,1
875,875,-0.10055950983543416,-0.1,1.0,0.0,301.0,959.0,0.0,0,320.0,1
876,876,-0.8868734120633266,-0.9,0.0,1.0,281.0,582.0,1.0,0,327.0,1
877,877,0.046321040195881125,0.0,0.0,0.0,464.0,983.0,1.0,0,173.0,0
878,878,-0.10112811799932353,-0.1,1.0,0.0,273.0,766.0,0.0,0,2591.0,1
879,879,0.025664575616283658,0.0,1.0,1.0,269.0,850.0,1.0,1,1051.0,1
880,880,-0.6007674417763262,-0.6,1.0,0.0,399.0,546.0,0.0,0,485.0,1
881,881,0.017603853732622632,0.0,1.0,1.0,437.0,795.0,1.0,1,278.0,1
882,882,0.268148308846479,0.3,0.0,0.0,266.0,680.0,0.0,1,544.0,1
883,883,0.05898729512826717,0.1,1.0,1.0,307.0,682.0,1.0,1,671.0,1
884,884,-0.04030926615058261,-0.0,0.0,1.0,474.0,749.0,1.0,0,527.0,1
885,885,0.6078224613338096,0.6,1.0,1.0,410.0,761.0,1.0,1,239.0,1
886,886,-0.3518119945125462,-0.4,0.0,1.0,337.0,931.0,1.0,0,182.0,1
887,887,-0.7546634048122016,-0.8,0.0,1.0,255.0,764.0,1.0,0,121.0,1
888,888,-0.6973880031777476,-0.7,0.0,1.0,393.0,832.0,1.0,0,145.0,1
889,889,0.5142611247004986,0.5,0.0,0.0,338.0,847.0,0.0,1,195.0,1
890,890,-0.3592781641202162,-0.4,1.0,0.0,365.0,961.0,0.0,0,244.0,1
891,891,-0.19626665732147563,-0.2,0.0,1.0,431.0,760.0,1.0,0,359.0,1
892,892,0.299582970492018,0.3,1.0,1.0,287.0,688.0,1.0,1,315.0,1
893,893,0.8738733456373374,0.9,1.0,1.0,338.0,737.0,1.0,1,165.0,1
894,894,-0.7424611110929865,-0.7,1.0,0.0,275.0,518.0,0.0,0,467.0,1
895,895,-0.04695056101522288,-0.0,0.0,1.0,331.0,967.0,1.0,0,732.0,1
896,896,0.5260419741685506,0.5,1.0,1.0,364.0,757.0,1.0,1,169.0,1
897,897,0.45623483735764736,0.5,0.0,0.0,323.0,727.0,0.0,1,410.0,1
898,898,0.8843418853890009,0.9,0.0,0.0,374.0,876.0,0.0,1,100.0,1
899,899,0.8313810810119019,0.8,1.0,1.0,266.0,916.0,1.0,1,108.0,1
900,900,-0.19335585722431048,-0.2,0.0,1.0,431.0,854.0,1.0,0,745.0,1
901,901,-0.3151798497523417,-0.3,0.0,1.0,373.0,746.0,1.0,0,121.0,1
902,902,-0.5100006511045345,-0.5,1.0,0.0,322.0,779.0,0.0,0,149.0,1
903,903,-0.5240064001017414,-0.5,0.0,1.0,427.0,570.0,1.0,0,423.0,1
904,904,-0.22760124483048738,-0.2,0.0,1.0,325.0,656.0,1.0,0,539.0,1
905,905,0.35151722884251935,0.4,0.0,0.0,401.0,717.0,0.0,1,262.0,1
906,906,0.8859717402304722,0.9,0.0,0.0,251.0,640.0,0.0,1,869.0,1
907,907,-0.40589966058377036,-0.4,1.0,0.0,486.0,639.0,0.0,0,475.0,1
908,908,-0.11335005215402805,-0.1,1.0,0.0,403.0,573.0,0.0,0,584.0,1
909,909,-0.8857161279774414,-0.9,0.0,1.0,344.0,828.0,1.0,0,118.0,1
910,910,-0.2957010787537915,-0.3,0.0,1.0,386.0,794.0,1.0,0,400.0,1
911,911,0.3906135603337991,0.4,1.0,1.0,415.0,996.0,1.0,1,169.0,1
912,912,-0.1435841013278939,-0.1,0.0,1.0,445.0,570.0,1.0,0,425.0,1
913,913,-0.7805381043067894,-0.8,0.0,1.0,310.0,567.0,1.0,0,263.0,1
914,914,0.8187411214504953,0.8,1.0,1.0,387.0,993.0,1.0,1,120.0,1
915,915,0.35427637676175505,0.4,0.0,0.0,385.0,799.0,0.0,1,276.0,1
916,916,0.8454787412148802,0.8,1.0,1.0,302.0,852.0,1.0,1,116.0,1
917,917,-0.6736303146400788,-0.7,1.0,0.0,285.0,853.0,0.0,0,232.0,1
918,918,-0.7541969900811495,-0.8,0.0,1.0,436.0,569.0,1.0,0,625.0,1
919,919,0.15279487661311564,0.2,1.0,1.0,290.0,839.0,1.0,1,1461.0,1
920,920,-0.6969380365152976,-0.7,0.0,1.0,491.0,746.0,1.0,0,283.0,1
921,921,-0.1351210330293242,-0.1,1.0,0.0,425.0,836.0,0.0,0,829.0,1
922,922,-0.2197266480453558,-0.2,1.0,0.0,365.0,704.0,0.0,0,561.0,1
923,923,0.05090107911605324,0.1,1.0,1.0,478.0,753.0,1.0,1,1029.0,1
924,924,0.05405434475115578,0.1,0.0,0.0,316.0,723.0,1.0,0,631.0,0
925,925,0.796390721656654,0.8,1.0,1.0,362.0,941.0,1.0,1,67.0,1
926,926,-0.23012706386497928,-0.2,0.0,1.0,302.0,902.0,1.0,0,1186.0,1
927,927,-0.5989418636773982,-0.6,1.0,0.0,352.0,632.0,0.0,0,286.0,1
928,928,0.34279760909162127,0.3,1.0,1.0,320.0,560.0,1.0,1,400.0,1
929,929,-0.8358493944769909,-0.8,0.0,1.0,483.0,589.0,1.0,0,338.0,1
930,930,0.11717834279416672,0.1,0.0,0.0,320.0,546.0,0.0,1,1554.0,1
931,931,0.6338362989092087,0.6,0.0,0.0,458.0,769.0,0.0,1,183.0,1
932,932,-0.762438049246479,-0.8,1.0,0.0,258.0,633.0,0.0,0,309.0,1
933,933,0.6164301814766605,0.6,0.0,0.0,294.0,529.0,0.0,1,847.0,1
934,934,-0.5386022688818142,-0.5,1.0,0.0,412.0,762.0,0.0,0,146.0,1
935,935,-0.3888841650975563,-0.4,1.0,0.0,337.0,540.0,0.0,0,453.0,1
936,936,-0.8698442379066811,-0.9,1.0,0.0,440.0,911.0,0.0,0,189.0,1
937,937,-0.5921041109529052,-0.6,1.0,0.0,480.0,631.0,0.0,0,289.0,1
938,938,0.47263412579600483,0.5,0.0,0.0,458.0,580.0,0.0,1,552.0,1
939,939,-0.5862588123428861,-0.6,1.0,0.0,378.0,960.0,0.0,0,202.0,1
940,940,0.3215343742651905,0.3,0.0,0.0,285.0,607.0,0.0,1,418.0,1
941,941,-0.07029356324866876,-0.1,1.0,0.0,336.0,824.0,0.0,0,510.0,1
942,942,-0.3735683383148686,-0.4,1.0,0.0,416.0,515.0,0.0,0,489.0,1
943,943,-0.7299837472259143,-0.7,1.0,0.0,292.0,586.0,0.0,0,212.0,1
944,944,-0.7303190482536573,-0.7,0.0,1.0,485.0,523.0,1.0,0,242.0,1
945,945,0.4864210877022056,0.5,1.0,1.0,437.0,849.0,1.0,1,64.0,1
946,946,0.1946299875736378,0.2,1.0,1.0,473.0,830.0,1.0,1,527.0,1
947,947,-0.05846096981592164,-0.1,0.0,1.0,376.0,993.0,1.0,0,1051.0,1
948,948,-0.4480911775880915,-0.4,0.0,1.0,317.0,706.0,1.0,0,207.0,1
949,949,0.6018429866616003,0.6,1.0,1.0,383.0,662.0,1.0,1,365.0,1
950,950,-0.3893280315858132,-0.4,0.0,1.0,308.0,879.0,1.0,0,103.0,1
951,951,0.00423966611726212,0.0,1.0,1.0,414.0,982.0,1.0,1,364.0,1
952,952,0.8962659143257424,0.9,1.0,1.0,319.0,538.0,1.0,1,223.0,1
953,953,0.7855873316084495,0.8,1.0,1.0,322.0,841.0,1.0,1,107.0,1
954,954,-0.5171752265151415,-0.5,0.0,1.0,292.0,530.0,1.0,0,338.0,1
955,955,0.3219490689141865,0.3,0.0,0.0,434.0,904.0,0.0,1,152.0,1
956,956,0.7583841317390171,0.8,0.0,0.0,350.0,678.0,0.0,1,422.0,1
957,957,-0.713375694276452,-0.7,0.0,1.0,397.0,840.0,1.0,0,183.0,1
958,958,-0.3492912430827396,-0.3,1.0,0.0,437.0,733.0,0.0,0,350.0,1
959,959,-0.8086294187800863,-0.8,1.0,0.0,362.0,633.0,0.0,0,345.0,1
960,960,0.27634695467030046,0.3,1.0,1.0,313.0,699.0,1.0,1,188.0,1
961,961,0.6350084240767931,0.6,0.0,0.0,368.0,686.0,0.0,1,396.0,1
962,962,-0.7217195904289381,-0.7,1.0,0.0,383.0,841.0,0.0,0,156.0,1
963,963,0.06105266935743714,0.1,0.0,0.0,265.0,654.0,1.0,0,681.0,0
964,964,0.05648599770052254,0.1,1.0,1.0,388.0,501.0,1.0,1,491.0,1
965,965,0.6595770130840356,0.7,1.0,1.0,462.0,782.0,1.0,1,136.0,1
966,966,-0.35548920553829577,-0.4,1.0,0.0,438.0,672.0,0.0,0,820.0,1
967,967,0.5185061131037313,0.5,0.0,0.0,466.0,878.0,0.0,1,196.0,1
968,968,-0.27298708795899806,-0.3,0.0,1.0,329.0,914.0,1.0,0,7.0,1
969,969,0.5426348596623664,0.5,1.0,1.0,276.0,911.0,1.0,1,123.0,1
970,970,0.8169856199665925,0.8,1.0,1.0,462.0,523.0,1.0,1,255.0,1
971,971,0.44183604663358966,0.4,0.0,0.0,401.0,946.0,0.0,1,203.0,1
972,972,0.24901356756336457,0.2,1.0,1.0,291.0,739.0,1.0,1,530.0,1
973,973,-0.39542148168420144,-0.4,1.0,0.0,261.0,558.0,0.0,0,721.0,1
974,974,0.5386891301848574,0.5,1.0,1.0,293.0,942.0,1.0,1,155.0,1
975,975,0.38512195950312156,0.4,1.0,1.0,272.0,726.0,1.0,1,392.0,1
976,976,-0.7777044127178927,-0.8,0.0,1.0,363.0,709.0,1.0,0,138.0,1
977,977,-0.8024664573251746,-0.8,1.0,0.0,459.0,549.0,0.0,0,622.0,1
978,978,-0.5687698594753532,-0.6,0.0,1.0,308.0,866.0,1.0,0,126.0,1
979,979,-0.029999514750065237,-0.0,0.0,1.0,425.0,651.0,1.0,0,274.0,1
980,980,0.42030430514298034,0.4,1.0,1.0,319.0,541.0,1.0,1,530.0,1
981,981,-0.6646717225942049,-0.7,0.0,1.0,378.0,510.0,1.0,0,252.0,1
982,982,0.46430842101480396,0.5,1.0,1.0,445.0,514.0,1.0,1,551.0,1
983,983,0.7932269961680974,0.8,0.0,0.0,409.0,730.0,0.0,1,211.0,1
984,984,-0.46972904937616733,-0.5,1.0,0.0,373.0,501.0,0.0,0,546.0,1
985,985,0.6699676875161119,0.7,1.0,1.0,284.0,546.0,1.0,1,390.0,1
986,986,-0.6913763067631651,-0.7,1.0,0.0,459.0,611.0,0.0,0,260.0,1
987,987,-0.5377293481376544,-0.5,0.0,1.0,429.0,565.0,1.0,0,246.0,1
988,988,-0.8440775332539882,-0.8,1.0,0.0,287.0,898.0,0.0,0,135.0,1
989,989,0.6038454836782085,0.6,1.0,1.0,436.0,961.0,1.0,1,183.0,1
990,990,0.8804580550570412,0.9,0.0,0.0,428.0,713.0,0.0,1,239.0,1
991,991,0.1663477523814917,0.2,1.0,1.0,475.0,508.0,1.0,1,607.0,1
992,992,0.6903644021796213,0.7,1.0,1.0,378.0,899.0,1.0,1,93.0,1
993,993,0.8317001853089042,0.8,0.0,0.0,291.0,526.0,0.0,1,663.0,1
994,994,0.7655330207823942,0.8,1.0,1.0,455.0,763.0,1.0,1,172.0,1
995,995,0.5887305029284543,0.6,1.0,1.0,401.0,874.0,1.0,1,185.0,1
996,996,0.353988167746187,0.4,1.0,1.0,254.0,520.0,1.0,1,426.0,1
997,997,0.297467953495569,0.3,1.0,1.0,496.0,598.0,1.0,1,616.0,1
998,998,0.4695700847200214,0.5,1.0,1.0,334.0,800.0,1.0,1,256.0,1
999,999,0.4100957980143952,0.4,1.0,1.0,399.0,784.0,1.0,1,177.0,1
1000,1000,0.4848159532321127,0.5,1.0,1.0,323.0,533.0,1.0,1,364.0,1
1001,1001,0.42481724657199516,0.4,1.0,1.0,279.0,687.0,1.0,1,184.0,1
1002,1002,-0.6677676685365134,-0.7,0.0,1.0,414.0,777.0,1.0,0,309.0,1
1003,1003,0.2703624845132854,0.3,0.0,0.0,385.0,652.0,0.0,1,803.0,1
1004,1004,-0.7637291708128499,-0.8,0.0,1.0,368.0,509.0,1.0,0,403.0,1
1005,1005,0.7968717417599248,0.8,0.0,0.0,301.0,973.0,0.0,1,196.0,1
1006,1006,0.27493247222504935,0.3,0.0,0.0,301.0,984.0,0.0,1,115.0,1
1007,1007,0.24490188282418857,0.2,0.0,0.0,348.0,563.0,0.0,1,559.0,1
1008,1008,0.3203042466946827,0.3,1.0,1.0,278.0,654.0,1.0,1,668.0,1
1009,1009,0.500414249663984,0.5,1.0,1.0,392.0,914.0,1.0,1,144.0,1
1010,1010,-0.7792563378600686,-0.8,0.0,1.0,268.0,585.0,1.0,0,247.0,1
1011,1011,-0.148802010249534,-0.1,0.0,1.0,467.0,632.0,1.0,0,601.0,1
1012,1012,-0.4693132868205939,-0.5,0.0,1.0,295.0,759.0,1.0,0,406.0,1
1013,1013,-0.6517763285680424,-0.7,0.0,1.0,464.0,898.0,1.0,0,158.0,1
1014,1014,-0.008179782731260188,-0.0,0.0,1.0,387.0,964.0,0.0,1,1439.0,0
1015,1015,-0.3105305350457439,-0.3,1.0,0.0,452.0,876.0,0.0,0,272.0,1
1016,1016,0.8261986669045039,0.8,1.0,1.0,457.0,607.0,1.0,1,256.0,1
1017,1017,0.30850002166743773,0.3,0.0,0.0,363.0,863.0,0.0,1,464.0,1
1018,1018,0.13015341137717418,0.1,1.0,1.0,462.0,662.0,1.0,1,676.0,1
1019,1019,0.7561303535411864,0.8,0.0,0.0,427.0,742.0,0.0,1,201.0,1
1020,1020,-0.8800354974569763,-0.9,1.0,0.0,418.0,691.0,0.0,0,241.0,1
1021,1021,0.028478607357612762,0.0,0.0,0.0,490.0,642.0,0.0,1,1078.0,1
1022,1022,-0.6434454604688506,-0.6,0.0,1.0,487.0,525.0,1.0,0,168.0,1
1023,1023,-0.269712115095577,-0.3,0.0,1.0,283.0,814.0,1.0,0,313.0,1
1024,1024,-0.44899057116329444,-0.4,1.0,0.0,351.0,779.0,0.0,0,250.0,1
1025,1025,-0.5262253489006052,-0.5,1.0,0.0,323.0,576.0,0.0,0,391.0,1
1026,1026,0.03240434510273604,0.0,0.0,0.0,363.0,505.0,0.0,1,622.0,1
1027,1027,0.06480820807482546,0.1,0.0,0.0,478.0,550.0,0.0,1,2712.0,1
1028,1028,-0.40625475172163295,-0.4,0.0,1.0,253.0,805.0,1.0,0,322.0,1
1029,1029,0.2886608162564629,0.3,1.0,1.0,376.0,709.0,1.0,1,495.0,1
1030,1030,0.8541379982942569,0.9,1.0,1.0,486.0,662.0,1.0,1,232.0,1
1031,1031,0.41091710578618523,0.4,0.0,0.0,302.0,877.0,0.0,1,111.0,1
1032,1032,0.8004819424221076,0.8,0.0,0.0,285.0,952.0,0.0,1,183.0,1
1033,1033,-0.4116812461191534,-0.4,1.0,0.0,424.0,564.0,0.0,0,202.0,1
1034,1034,0.7168946626919989,0.7,0.0,0.0,290.0,942.0,0.0,1,208.0,1
1035,1035,-0.6899670727477267,-0.7,1.0,0.0,426.0,662.0,0.0,0,352.0,1
1036,1036,0.12978970464421324,0.1,0.0,0.0,417.0,641.0,0.0,1,722.0,1
1037,1037,0.40260230919001516,0.4,1.0,1.0,263.0,562.0,1.0,1,395.0,1
1038,1038,0.520449847847222,0.5,0.0,0.0,451.0,836.0,0.0,1,323.0,1
1039,1039,-0.32851005948995027,-0.3,0.0,1.0,433.0,644.0,1.0,0,363.0,1
1040,1040,0.35314595236518664,0.4,1.0,1.0,275.0,566.0,1.0,1,539.0,1
1041,1041,-0.23511050178254755,-0.2,1.0,0.0,393.0,503.0,0.0,0,1514.0,1
1042,1042,0.814875699430193,0.8,1.0,1.0,322.0,897.0,1.0,1,171.0,1
1043,1043,0.023166226279688895,0.0,0.0,0.0,322.0,958.0,0.0,1,880.0,1
1044,1044,0.8209209095065199,0.8,0.0,0.0,494.0,891.0,0.0,1,145.0,1
1045,1045,0.36828882298039833,0.4,1.0,1.0,419.0,994.0,1.0,1,417.0,1
1046,1046,0.5346450291416626,0.5,1.0,1.0,477.0,993.0,1.0,1,260.0,1
1047,1047,0.6065329899769462,0.6,1.0,1.0,354.0,841.0,1.0,1,275.0,1
1048,1048,0.08742819996713591,0.1,1.0,1.0,429.0,717.0,1.0,1,1094.0,1
1049,1049,0.14438293202432162,0.1,1.0,1.0,427.0,632.0,1.0,1,461.0,1
1050,1050,0.44570054253997793,0.4,1.0,1.0,332.0,914.0,1.0,1,104.0,1
1051,1051,0.8033565274338684,0.8,1.0,1.0,306.0,893.0,1.0,1,121.0,1
1052,1052,0.32259512561087356,0.3,0.0,0.0,443.0,611.0,0.0,1,366.0,1
1053,1053,-0.35101487482907223,-0.4,1.0,0.0,307.0,950.0,0.0,0,203.0,1
1054,1054,0.6085146911113172,0.6,0.0,0.0,431.0,895.0,0.0,1,184.0,1
1055,1055,0.5026117395718029,0.5,1.0,1.0,299.0,612.0,1.0,1,429.0,1
1056,1056,-0.7255959730764323,-0.7,1.0,0.0,394.0,752.0,0.0,0,254.0,1
1057,1057,-0.22123490554537162,-0.2,1.0,0.0,462.0,928.0,0.0,0,390.0,1
1058,1058,0.8877336877353911,0.9,1.0,1.0,274.0,519.0,1.0,1,277.0,1
1059,1059,0.4237434975436406,0.4,1.0,1.0,297.0,757.0,1.0,1,166.0,1
1060,1060,-0.6625957410154875,-0.7,0.0,1.0,358.0,922.0,1.0,0,150.0,1
1061,1061,0.4600457996369208,0.5,1.0,1.0,371.0,548.0,1.0,1,401.0,1
1062,1062,-0.17637601982967654,-0.2,1.0,0.0,361.0,747.0,0.0,0,212.0,1
1063,1063,0.1528390577459834,0.2,1.0,1.0,329.0,573.0,1.0,1,618.0,1
1064,1064,-0.00756438009607685,-0.0,0.0,1.0,412.0,990.0,0.0,1,798.0,0
1065,1065,-0.5953480580600086,-0.6,0.0,1.0,445.0,569.0,1.0,0,276.0,1
1066,1066,0.275107869055469,0.3,0.0,0.0,311.0,770.0,0.0,1,1219.0,1
1067,1067,0.8148266192002321,0.8,0.0,0.0,424.0,555.0,0.0,1,541.0,1
1068,1068,0.6530648507779085,0.7,0.0,0.0,315.0,904.0,0.0,1,181.0,1
1069,1069,0.7448437674619813,0.7,1.0,1.0,417.0,956.0,1.0,1,97.0,1
1070,1070,0.6516727078189918,0.7,0.0,0.0,477.0,609.0,0.0,1,294.0,1
1071,1071,0.521268776843396,0.5,0.0,0.0,369.0,962.0,0.0,1,179.0,1
1072,1072,0.04713353329809633,0.0,0.0,0.0,371.0,676.0,0.0,1,1143.0,1
1073,1073,-0.6581192420116824,-0.7,1.0,0.0,391.0,805.0,0.0,0,324.0,1
1074,1074,0.31135879928757026,0.3,1.0,1.0,331.0,963.0,1.0,1,236.0,1
1075,1075,0.4246797500172389,0.4,0.0,0.0,432.0,906.0,0.0,1,112.0,1
1076,1076,-0.04513302039966105,-0.0,0.0,1.0,327.0,613.0,0.0,1,710.0,0
1077,1077,0.43956087539938726,0.4,1.0,1.0,388.0,853.0,1.0,1,349.0,1
1078,1078,-0.4380820496233583,-0.4,1.0,0.0,477.0,984.0,0.0,0,119.0,1
1079,1079,-0.1609454750443966,-0.2,0.0,1.0,363.0,599.0,1.0,0,358.0,1
1080,1080,-0.7151275053367862,-0.7,0.0,1.0,281.0,869.0,1.0,0,260.0,1
1081,1081,-0.8541655931900236,-0.9,0.0,1.0,318.0,609.0,1.0,0,143.0,1
1082,1082,0.7048887081539116,0.7,0.0,0.0,395.0,894.0,0.0,1,171.0,1
1083,1083,0.8410391935774318,0.8,1.0,1.0,474.0,886.0,1.0,1,160.0,1
1084,1084,-0.1742998539694276,-0.2,1.0,0.0,264.0,584.0,0.0,0,882.0,1
1085,1085,0.20904562086762069,0.2,0.0,0.0,365.0,569.0,0.0,1,536.0,1
1086,1086,-0.3564100542368128,-0.4,1.0,0.0,363.0,892.0,0.0,0,435.0,1
1087,1087,0.1573560884158366,0.2,0.0,0.0,310.0,903.0,0.0,1,1827.0,1
1088,1088,-0.4586108911269561,-0.5,0.0,1.0,384.0,947.0,1.0,0,109.0,1
1089,1089,-0.07295410110912459,-0.1,1.0,0.0,387.0,773.0,0.0,0,1220.0,1
1090,1090,-0.3421195024457745,-0.3,0.0,1.0,281.0,735.0,1.0,0,224.0,1
1091,1091,-0.3912869305346026,-0.4,0.0,1.0,440.0,692.0,1.0,0,368.0,1
1092,1092,0.15891657726224195,0.2,1.0,1.0,399.0,819.0,1.0,1,452.0,1
1093,1093,-0.3568588804513967,-0.4,0.0,1.0,342.0,555.0,1.0,0,453.0,1
1094,1094,-0.8025967418240358,-0.8,1.0,0.0,382.0,707.0,0.0,0,141.0,1
1095,1095,0.033287843465894196,0.0,1.0,1.0,488.0,658.0,1.0,1,2074.0,1
1096,1096,0.6349741510648675,0.6,1.0,1.0,386.0,542.0,1.0,1,272.0,1
1097,1097,0.4715430145376861,0.5,0.0,0.0,467.0,663.0,0.0,1,330.0,1
1098,1098,0.6858548642870012,0.7,0.0,0.0,335.0,502.0,0.0,1,513.0,1
1099,1099,-0.20936522544713843,-0.2,1.0,0.0,465.0,808.0,0.0,0,837.0,1
1100,1100,-0.2751850123274048,-0.3,1.0,0.0,333.0,532.0,0.0,0,685.0,1
1101,1101,0.7637797415834001,0.8,0.0,0.0,257.0,802.0,0.0,1,151.0,1
1102,1102,-0.5533823082035174,-0.6,1.0,0.0,475.0,663.0,0.0,0,202.0,1
1103,1103,-0.42774507744457385,-0.4,1.0,0.0,299.0,787.0,0.0,0,464.0,1
1104,1104,-0.8044794130631914,-0.8,0.0,1.0,449.0,588.0,1.0,0,203.0,1
1105,1105,-0.6352566140797339,-0.6,0.0,1.0,450.0,568.0,1.0,0,272.0,1
1106,1106,0.006042749663971669,0.0,1.0,1.0,313.0,894.0,0.0,0,2633.0,0
1107,1107,0.34876234690185515,0.3,1.0,1.0,473.0,790.0,1.0,1,657.0,1
1108,1108,0.5806298250266059,0.6,0.0,0.0,339.0,902.0,0.0,1,139.0,1
1109,1109,-0.2771732182999893,-0.3,1.0,0.0,347.0,775.0,0.0,0,288.0,1
1110,1110,-0.6424624150201834,-0.6,0.0,1.0,391.0,696.0,1.0,0,163.0,1
1111,1111,-0.8586876119948451,-0.9,1.0,0.0,346.0,951.0,0.0,0,173.0,1
1112,1112,0.09186209411255264,0.1,1.0,1.0,491.0,730.0,1.0,1,279.0,1
1113,1113,-0.5590035170351891,-0.6,0.0,1.0,261.0,753.0,1.0,0,226.0,1
1114,1114,0.4793120949916151,0.5,0.0,0.0,262.0,814.0,0.0,1,604.0,1
1115,1115,-0.8178027381384398,-0.8,0.0,1.0,430.0,710.0,1.0,0,240.0,1
1116,1116,-0.8241086455677908,-0.8,0.0,1.0,261.0,781.0,1.0,0,128.0,1
1117,1117,-0.10949772477441755,-0.1,1.0,0.0,327.0,522.0,0.0,0,1031.0,1
1118,1118,0.6421750029113166,0.6,0.0,0.0,316.0,932.0,0.0,1,-128.0,1
1119,1119,-0.6237368928919691,-0.6,0.0,1.0,452.0,715.0,1.0,0,293.0,1
1120,1120,-0.36430697193952166,-0.4,0.0,1.0,352.0,630.0,1.0,0,468.0,1
1121,1121,-0.400682724150568,-0.4,0.0,1.0,282.0,637.0,1.0,0,311.0,1
1122,1122,-0.6636966307239104,-0.7,1.0,0.0,440.0,966.0,0.0,0,224.0,1
1123,1123,0.239133046138449,0.2,0.0,0.0,330.0,551.0,0.0,1,379.0,1
1124,1124,0.24178569959577223,0.2,0.0,0.0,453.0,803.0,0.0,1,314.0,1
1125,1125,0.6584062329577348,0.7,0.0,0.0,289.0,747.0,0.0,1,864.0,1
1126,1126,0.5366601377339825,0.5,0.0,0.0,364.0,787.0,0.0,1,399.0,1
1127,1127,0.25439424100912456,0.3,0.0,0.0,310.0,773.0,0.0,1,97.0,1
1128,1128,0.1749687857818617,0.2,0.0,0.0,341.0,743.0,0.0,1,656.0,1
1129,1129,0.17604789566857126,0.2,1.0,1.0,289.0,934.0,1.0,1,287.0,1
1130,1130,-0.3704312719251285,-0.4,0.0,1.0,376.0,701.0,1.0,0,373.0,1
1131,1131,-0.26927088377862196,-0.3,1.0,0.0,402.0,792.0,0.0,0,286.0,1
1132,1132,-0.3988831332151921,-0.4,1.0,0.0,276.0,926.0,0.0,0,558.0,1
1133,1133,-0.2529927199497729,-0.3,1.0,0.0,433.0,855.0,0.0,0,182.0,1
1134,1134,-0.07657202916061834,-0.1,0.0,1.0,351.0,700.0,1.0,0,1179.0,1
1135,1135,0.4904141659112654,0.5,1.0,1.0,307.0,982.0,1.0,1,371.0,1
1136,1136,-0.333294894424658,-0.3,1.0,0.0,355.0,661.0,0.0,0,164.0,1
1137,1137,0.09376359243366605,0.1,1.0,1.0,322.0,862.0,1.0,1,716.0,1
1138,1138,-0.6800352072115552,-0.7,1.0,0.0,337.0,521.0,0.0,0,502.0,1
1139,1139,-0.3614124513771938,-0.4,1.0,0.0,362.0,606.0,0.0,0,512.0,1
1140,1140,-0.5246972796137073,-0.5,1.0,0.0,467.0,605.0,0.0,0,358.0,1
1141,1141,-0.28831554142192206,-0.3,1.0,0.0,345.0,897.0,0.0,0,218.0,1
1142,1142,0.18860756567505532,0.2,1.0,1.0,307.0,888.0,1.0,1,485.0,1
1143,1143,0.5939971380494241,0.6,0.0,0.0,451.0,706.0,0.0,1,173.0,1
1144,1144,0.7145761023461915,0.7,1.0,1.0,412.0,583.0,1.0,1,325.0,1
1145,1145,-0.23232794334287044,-0.2,1.0,0.0,306.0,508.0,0.0,0,826.0,1
1146,1146,0.4658330684119777,0.5,1.0,1.0,382.0,931.0,1.0,1,147.0,1
1147,1147,0.7692151408663402,0.8,1.0,1.0,278.0,917.0,1.0,1,175.0,1
1148,1148,-0.17119978115101098,-0.2,0.0,1.0,404.0,639.0,1.0,0,997.0,1
1149,1149,-0.463386869772468,-0.5,0.0,1.0,414.0,760.0,1.0,0,266.0,1
1150,1150,-0.7878245210110766,-0.8,0.0,1.0,345.0,591.0,1.0,0,284.0,1
1151,1151,0.45475721166786853,0.5,1.0,1.0,472.0,897.0,1.0,1,211.0,1
1152,1152,-0.023412637340359144,-0.0,1.0,0.0,465.0,841.0,1.0,1,254.0,0
1153,1153,0.13474684370643752,0.1,0.0,0.0,319.0,569.0,0.0,1,462.0,1
1154,1154,0.40834542428383613,0.4,0.0,0.0,490.0,797.0,0.0,1,463.0,1
1155,1155,-0.48259455583827593,-0.5,1.0,0.0,433.0,594.0,0.0,0,343.0,1
1156,1156,-0.8129337711773611,-0.8,0.0,1.0,419.0,813.0,1.0,0,108.0,1
1157,1157,-0.7432228022088261,-0.7,0.0,1.0,389.0,582.0,1.0,0,229.0,1
1158,1158,0.7236409465109103,0.7,1.0,1.0,406.0,954.0,1.0,1,190.0,1
1159,1159,0.5322479499948031,0.5,0.0,0.0,417.0,989.0,0.0,1,214.0,1
1160,1160,0.2415424066433488,0.2,0.0,0.0,270.0,905.0,0.0,1,705.0,1
1161,1161,-0.4121655703873537,-0.4,1.0,0.0,441.0,719.0,0.0,0,280.0,1
1162,1162,-0.3613192314242881,-0.4,1.0,0.0,259.0,703.0,0.0,0,618.0,1
1163,1163,0.5045027711913742,0.5,1.0,1.0,329.0,791.0,1.0,1,110.0,1
1164,1164,0.2726348636454886,0.3,1.0,1.0,317.0,829.0,1.0,1,234.0,1
1165,1165,-0.2459051795163888,-0.2,0.0,1.0,411.0,607.0,1.0,0,532.0,1
1166,1166,0.4484544776294276,0.4,0.0,0.0,287.0,538.0,0.0,1,745.0,1
1167,1167,0.6207214282476025,0.6,1.0,1.0,389.0,833.0,1.0,1,308.0,1
1168,1168,-0.21163544891946173,-0.2,1.0,0.0,320.0,667.0,0.0,0,593.0,1
1169,1169,-0.8594941269968377,-0.9,1.0,0.0,490.0,724.0,0.0,0,296.0,1
1170,1170,0.6069440640166771,0.6,0.0,0.0,494.0,594.0,0.0,1,382.0,1
1171,1171,0.4809587485434742,0.5,1.0,1.0,357.0,955.0,1.0,1,208.0,1
1172,1172,0.5912188800806052,0.6,0.0,0.0,352.0,860.0,0.0,1,168.0,1
1173,1173,0.6596967025816259,0.7,1.0,1.0,374.0,699.0,1.0,1,267.0,1
1174,1174,0.8498487588382259,0.8,1.0,1.0,317.0,778.0,1.0,1,395.0,1
1175,1175,0.6784130594763859,0.7,0.0,0.0,367.0,843.0,0.0,1,350.0,1
1176,1176,0.6862068887368001,0.7,0.0,0.0,271.0,952.0,0.0,1,137.0,1
1177,1177,-0.4255827525649281,-0.4,0.0,1.0,441.0,891.0,1.0,0,8.0,1
1178,1178,0.5251954388274672,0.5,0.0,0.0,332.0,658.0,0.0,1,620.0,1
1179,1179,-0.4105915465733702,-0.4,0.0,1.0,401.0,994.0,1.0,0,315.0,1
1180,1180,-0.19924444237519945,-0.2,1.0,0.0,466.0,799.0,1.0,1,135.0,0
1181,1181,0.8938051607390028,0.9,1.0,1.0,451.0,874.0,1.0,1,185.0,1
1182,1182,-0.5181115777900334,-0.5,0.0,1.0,350.0,753.0,1.0,0,187.0,1
1183,1183,0.6830692952517715,0.7,1.0,1.0,266.0,562.0,1.0,1,332.0,1
1184,1184,0.7928939302227619,0.8,1.0,1.0,283.0,935.0,1.0,1,92.0,1
1185,1185,-0.762452791058796,-0.8,0.0,1.0,347.0,834.0,1.0,0,139.0,1
1186,1186,-0.07562896733301672,-0.1,1.0,0.0,377.0,862.0,1.0,1,841.0,0
1187,1187,-0.672432925555783,-0.7,0.0,1.0,331.0,745.0,1.0,0,164.0,1
1188,1188,-0.24671859101898375,-0.2,1.0,0.0,295.0,557.0,0.0,0,598.0,1
1189,1189,0.506821755193594,0.5,1.0,1.0,362.0,780.0,1.0,1,438.0,1
1190,1190,0.4708961427922497,0.5,1.0,1.0,254.0,865.0,1.0,1,191.0,1
1191,1191,0.23255206361229785,0.2,1.0,1.0,481.0,892.0,1.0,1,347.0,1
1192,1192,0.46036035691133137,0.5,0.0,0.0,269.0,956.0,0.0,1,235.0,1
1193,1193,-0.27584729425574017,-0.3,1.0,0.0,252.0,597.0,0.0,0,381.0,1
1194,1194,0.7710089083555959,0.8,1.0,1.0,427.0,674.0,1.0,1,319.0,1
1195,1195,-0.27025913621930175,-0.3,0.0,1.0,406.0,517.0,1.0,0,367.0,1
1196,1196,-0.1841693625012082,-0.2,0.0,1.0,376.0,826.0,1.0,0,148.0,1
1197,1197,0.8414387411375231,0.8,0.0,0.0,482.0,767.0,0.0,1,421.0,1
1198,1198,-0.4977698030318984,-0.5,0.0,1.0,297.0,926.0,1.0,0,107.0,1
1199,1199,-0.5779387784075896,-0.6,0.0,1.0,352.0,630.0,1.0,0,238.0,1
1200,1200,-0.5632261061654225,-0.6,1.0,0.0,357.0,600.0,0.0,0,493.0,1
1201,1201,-0.7208608004932647,-0.7,1.0,0.0,373.0,884.0,0.0,0,133.0,1
1202,1202,0.5182410890194794,0.5,1.0,1.0,354.0,806.0,1.0,1,710.0,1
1203,1203,-0.5295019920305741,-0.5,1.0,0.0,351.0,964.0,0.0,0,125.0,1
1204,1204,0.2068064149342358,0.2,1.0,1.0,305.0,902.0,1.0,1,2793.0,1
1205,1205,0.4821147196074532,0.5,1.0,1.0,428.0,814.0,1.0,1,248.0,1
1206,1206,-0.5425157478966466,-0.5,0.0,1.0,282.0,765.0,1.0,0,113.0,1
1207,1207,0.07515892975545624,0.1,0.0,0.0,270.0,696.0,0.0,1,1104.0,1
1208,1208,-0.43621547699033225,-0.4,0.0,1.0,356.0,850.0,1.0,0,204.0,1
1209,1209,-0.05061599848126497,-0.1,0.0,1.0,486.0,582.0,1.0,0,772.0,1
1210,1210,0.20022664732049222,0.2,0.0,0.0,424.0,600.0,0.0,1,666.0,1
1211,1211,-0.8306510245381991,-0.8,1.0,0.0,301.0,755.0,0.0,0,214.0,1
1212,1212,0.5890025228157344,0.6,1.0,1.0,339.0,877.0,1.0,1,144.0,1
1213,1213,-0.6939753137732749,-0.7,1.0,0.0,299.0,646.0,0.0,0,255.0,1
1214,1214,0.7295625699072342,0.7,1.0,1.0,277.0,796.0,1.0,1,217.0,1
1215,1215,0.12219202609148938,0.1,1.0,1.0,475.0,807.0,1.0,1,468.0,1
1216,1216,0.6828084685607335,0.7,0.0,0.0,279.0,863.0,0.0,1,168.0,1
1217,1217,-0.842343746165203,-0.8,1.0,0.0,498.0,632.0,0.0,0,270.0,1
1218,1218,0.1726730206024064,0.2,1.0,1.0,307.0,685.0,1.0,1,308.0,1
1219,1219,-0.12584200705857918,-0.1,0.0,1.0,473.0,890.0,1.0,0,397.0,1
1220,1220,-0.5937058706498566,-0.6,0.0,1.0,490.0,727.0,1.0,0,193.0,1
1221,1221,-0.3549827583451787,-0.4,1.0,0.0,350.0,570.0,0.0,0,420.0,1
1222,1222,0.39634872767675955,0.4,1.0,1.0,252.0,695.0,1.0,1,353.0,1
1223,1223,-0.3042240363234803,-0.3,1.0,0.0,355.0,578.0,0.0,0,527.0,1
1224,1224,-0.8224449078842467,-0.8,0.0,1.0,488.0,696.0,1.0,0,206.0,1
1225,1225,0.40193409909774525,0.4,1.0,1.0,326.0,788.0,1.0,1,86.0,1
1226,1226,-0.8886387508585071,-0.9,0.0,1.0,484.0,980.0,1.0,0,96.0,1
1227,1227,0.7081189866049286,0.7,0.0,0.0,279.0,768.0,0.0,1,383.0,1
1228,1228,0.26372634446560317,0.3,0.0,0.0,259.0,644.0,0.0,1,377.0,1
1229,1229,-0.3366359466520634,-0.3,0.0,1.0,484.0,991.0,1.0,0,135.0,1
1230,1230,-0.6536434283626433,-0.7,0.0,1.0,486.0,701.0,1.0,0,243.0,1
1231,1231,0.46309697040146125,0.5,1.0,1.0,360.0,804.0,1.0,1,286.0,1
1232,1232,0.8222218092290193,0.8,1.0,1.0,476.0,617.0,1.0,1,247.0,1
1233,1233,-0.4848829090574009,-0.5,1.0,0.0,342.0,721.0,0.0,0,327.0,1
1234,1234,-0.11088429658431509,-0.1,1.0,0.0,397.0,848.0,0.0,0,945.0,1
1235,1235,0.0925592136885871,0.1,0.0,0.0,368.0,912.0,1.0,0,270.0,0
1236,1236,0.7920007611909764,0.8,1.0,1.0,284.0,637.0,1.0,1,389.0,1
1237,1237,0.499016575414705,0.5,0.0,0.0,309.0,559.0,0.0,1,462.0,1
1238,1238,-0.19022426993072994,-0.2,0.0,1.0,467.0,939.0,1.0,0,234.0,1
1239,1239,-0.5717845517088054,-0.6,1.0,0.0,425.0,609.0,0.0,0,406.0,1
1240,1240,0.35612497838386525,0.4,1.0,1.0,267.0,601.0,1.0,1,312.0,1
1241,1241,-0.10930578824056669,-0.1,0.0,1.0,412.0,881.0,1.0,0,337.0,1
1242,1242,-0.07311806365548523,-0.1,1.0,0.0,403.0,885.0,0.0,0,352.0,1
1243,1243,-0.5674580884213591,-0.6,1.0,0.0,408.0,646.0,0.0,0,216.0,1
1244,1244,-0.3160245919319862,-0.3,0.0,1.0,409.0,792.0,1.0,0,169.0,1
1245,1245,-0.5560475136396141,-0.6,1.0,0.0,461.0,940.0,0.0,0,289.0,1
1246,1246,0.5398159876775374,0.5,0.0,0.0,400.0,504.0,0.0,1,476.0,1
1247,1247,-0.5864504481752912,-0.6,0.0,1.0,266.0,890.0,1.0,0,204.0,1
1248,1248,0.3308144986264111,0.3,0.0,0.0,492.0,611.0,0.0,1,597.0,1
1249,1249,-0.573160917092298,-0.6,1.0,0.0,404.0,512.0,0.0,0,304.0,1
1250,1250,0.13288797317269718,0.1,1.0,1.0,273.0,642.0,1.0,1,555.0,1
1251,1251,0.06422770819755974,0.1,0.0,0.0,419.0,575.0,0.0,1,616.0,1
1252,1252,-0.6473368154101629,-0.6,0.0,1.0,440.0,835.0,1.0,0,175.0,1
1253,1253,-0.3051372529326466,-0.3,1.0,0.0,474.0,680.0,0.0,0,426.0,1
1254,1254,0.07344498538649413,0.1,0.0,0.0,324.0,578.0,0.0,1,728.0,1
1255,1255,-0.0803351879183768,-0.1,1.0,0.0,443.0,958.0,1.0,1,3599.0,0
1256,1256,0.26994273026922266,0.3,0.0,0.0,487.0,864.0,0.0,1,129.0,1
1257,1257,0.6093788270839452,0.6,0.0,0.0,332.0,796.0,0.0,1,222.0,1
1258,1258,0.4231641650620054,0.4,1.0,1.0,357.0,579.0,1.0,1,324.0,1
1259,1259,-0.13932431741099238,-0.1,0.0,1.0,336.0,835.0,1.0,0,359.0,1
1260,1260,-0.5398505929858337,-0.5,1.0,0.0,478.0,870.0,0.0,0,122.0,1
1261,1261,-0.10053101656889496,-0.1,0.0,1.0,455.0,681.0,1.0,0,484.0,1
1262,1262,0.6948350782940677,0.7,1.0,1.0,411.0,675.0,1.0,1,184.0,1
1263,1263,0.3460837920154548,0.3,1.0,1.0,301.0,556.0,1.0,1,403.0,1
1264,1264,0.21718773857176343,0.2,1.0,1.0,292.0,881.0,1.0,1,437.0,1
1265,1265,0.7281909360940565,0.7,0.0,0.0,402.0,619.0,0.0,1,289.0,1
1266,1266,0.07421785396859004,0.1,1.0,1.0,313.0,879.0,1.0,1,298.0,1
1267,1267,0.5046032434702682,0.5,1.0,1.0,399.0,718.0,1.0,1,303.0,1
1268,1268,-0.5875595822254316,-0.6,1.0,0.0,334.0,989.0,0.0,0,-163.0,1
1269,1269,0.22711531726561296,0.2,1.0,1.0,394.0,687.0,1.0,1,489.0,1
1270,1270,0.5810668730270995,0.6,1.0,1.0,343.0,592.0,1.0,1,305.0,1
1271,1271,-0.2854968683875395,-0.3,1.0,0.0,302.0,650.0,0.0,0,258.0,1
1272,1272,0.1740062036672375,0.2,0.0,0.0,420.0,639.0,0.0,1,561.0,1
1273,1273,0.6879820068668677,0.7,1.0,1.0,489.0,810.0,1.0,1,151.0,1
1274,1274,-0.5793215915632668,-0.6,0.0,1.0,481.0,662.0,1.0,0,357.0,1
1275,1275,-0.20658008383873316,-0.2,0.0,1.0,406.0,777.0,1.0,0,247.0,1
1276,1276,-0.25560870170778716,-0.3,0.0,1.0,279.0,850.0,1.0,0,271.0,1
1277,1277,-0.1336360552376472,-0.1,0.0,1.0,486.0,551.0,1.0,0,303.0,1
1278,1278,-0.1683389160478207,-0.2,1.0,0.0,387.0,856.0,0.0,0,897.0,1
1279,1279,0.7742987286836686,0.8,1.0,1.0,482.0,612.0,1.0,1,256.0,1
1280,1280,0.10936133769111345,0.1,0.0,0.0,383.0,890.0,0.0,1,177.0,1
1281,1281,0.4694647497738972,0.5,1.0,1.0,323.0,949.0,1.0,1,258.0,1
1282,1282,-0.6428135627008906,-0.6,0.0,1.0,370.0,737.0,1.0,0,193.0,1
1283,1283,-0.22716078706757703,-0.2,1.0,0.0,412.0,978.0,0.0,0,140.0,1
1284,1284,-0.261108587445691,-0.3,0.0,1.0,305.0,511.0,1.0,0,304.0,1
1285,1285,-0.48408479847496005,-0.5,1.0,0.0,348.0,749.0,0.0,0,393.0,1
1286,1286,-0.24458869204251255,-0.2,1.0,0.0,334.0,515.0,0.0,0,581.0,1
1287,1287,0.7813415193279193,0.8,0.0,0.0,463.0,877.0,0.0,1,60.0,1
1288,1288,-0.7896649702334588,-0.8,0.0,1.0,378.0,781.0,1.0,0,151.0,1
1289,1289,-0.020544906135489982,-0.0,1.0,0.0,457.0,904.0,0.0,0,829.0,1
1290,1290,0.8559059574460067,0.9,1.0,1.0,473.0,558.0,1.0,1,269.0,1
1291,1291,-0.20692261638909326,-0.2,0.0,1.0,456.0,863.0,1.0,0,321.0,1
1292,1292,-0.16388676984572992,-0.2,1.0,0.0,417.0,955.0,0.0,0,1718.0,1
1293,1293,-0.44121340208085064,-0.4,0.0,1.0,401.0,519.0,1.0,0,300.0,1
1294,1294,0.4780639616138539,0.5,0.0,0.0,264.0,927.0,0.0,1,229.0,1
1295,1295,0.42409508354591086,0.4,1.0,1.0,288.0,585.0,1.0,1,447.0,1
1296,1296,-0.16289583325606416,-0.2,1.0,0.0,418.0,596.0,0.0,0,396.0,1
1297,1297,-0.29420168311587436,-0.3,1.0,0.0,349.0,606.0,0.0,0,295.0,1
1298,1298,0.12505720054661584,0.1,1.0,1.0,313.0,713.0,1.0,1,574.0,1
1299,1299,-0.07713302566841074,-0.1,1.0,0.0,250.0,801.0,0.0,0,689.0,1
1300,1300,-0.7393801432202332,-0.7,0.0,1.0,397.0,758.0,1.0,0,245.0,1
1301,1301,0.10341600460145217,0.1,0.0,0.0,276.0,867.0,0.0,1,1107.0,1
1302,1302,-0.49975809555440903,-0.5,0.0,1.0,301.0,548.0,1.0,0,301.0,1
1303,1303,-0.26522872660076313,-0.3,1.0,0.0,366.0,663.0,0.0,0,321.0,1
1304,1304,0.0035617491800745693,0.0,1.0,1.0,375.0,933.0,1.0,1,1352.0,1
1305,1305,-0.5855584813566483,-0.6,1.0,0.0,492.0,891.0,0.0,0,167.0,1
1306,1306,0.12376182736870278,0.1,1.0,1.0,459.0,706.0,1.0,1,405.0,1
1307,1307,0.6131639449301688,0.6,0.0,0.0,331.0,913.0,0.0,1,406.0,1
1308,1308,0.7263901173613879,0.7,1.0,1.0,426.0,969.0,1.0,1,155.0,1
1309,1309,-0.8252090294896302,-0.8,0.0,1.0,393.0,785.0,1.0,0,132.0,1
1310,1310,-0.12124338417400493,-0.1,0.0,1.0,400.0,667.0,1.0,0,443.0,1
1311,1311,0.37947180200739095,0.4,0.0,0.0,310.0,903.0,0.0,1,177.0,1
1312,1312,0.415149999984639,0.4,0.0,0.0,370.0,581.0,0.0,1,409.0,1
1313,1313,0.8185824559823062,0.8,0.0,0.0,396.0,635.0,0.0,1,409.0,1
1314,1314,-0.25444625997842985,-0.3,1.0,0.0,438.0,627.0,0.0,0,575.0,1
1315,1315,-0.45282877190965537,-0.5,0.0,1.0,252.0,988.0,1.0,0,370.0,1
1316,1316,-0.2805766504188286,-0.3,1.0,0.0,499.0,568.0,0.0,0,503.0,1
1317,1317,-0.4792999877327359,-0.5,1.0,0.0,263.0,985.0,0.0,0,172.0,1
1318,1318,-0.4344849503958213,-0.4,0.0,1.0,499.0,895.0,1.0,0,306.0,1
1319,1319,0.7858167185282815,0.8,1.0,1.0,434.0,701.0,1.0,1,205.0,1
1320,1320,-0.7561391382591285,-0.8,0.0,1.0,258.0,809.0,1.0,0,233.0,1
1321,1321,-0.5677012588749774,-0.6,1.0,0.0,493.0,887.0,0.0,0,80.0,1
1322,1322,-0.6270782100399385,-0.6,1.0,0.0,300.0,895.0,0.0,0,255.0,1
1323,1323,0.7187976482536432,0.7,0.0,0.0,263.0,638.0,0.0,1,409.0,1
1324,1324,0.05086720511567633,0.1,0.0,0.0,280.0,791.0,0.0,1,189.0,1
1325,1325,-0.7802157971162219,-0.8,1.0,0.0,397.0,813.0,0.0,0,190.0,1
1326,1326,-0.8133000152366323,-0.8,0.0,1.0,408.0,837.0,1.0,0,195.0,1
1327,1327,-0.8644720796407502,-0.9,0.0,1.0,442.0,941.0,1.0,0,77.0,1
1328,1328,0.6843525000067915,0.7,1.0,1.0,293.0,894.0,1.0,1,113.0,1
1329,1329,0.4092816528644988,0.4,0.0,0.0,349.0,987.0,0.0,1,34.0,1
1330,1330,0.31193000534057724,0.3,1.0,1.0,436.0,609.0,1.0,1,605.0,1
1331,1331,-0.012838262980904402,-0.0,0.0,1.0,357.0,837.0,0.0,1,516.0,0
1332,1332,-0.33610567872670294,-0.3,1.0,0.0,439.0,994.0,0.0,0,247.0,1
1333,1333,0.3174450084062571,0.3,1.0,1.0,430.0,592.0,1.0,1,418.0,1
1334,1334,0.6943201352267457,0.7,1.0,1.0,341.0,677.0,1.0,1,482.0,1
1335,1335,-0.7933125741900886,-0.8,0.0,1.0,254.0,756.0,1.0,0,320.0,1
1336,1336,-0.40266665677963814,-0.4,1.0,0.0,316.0,561.0,0.0,0,643.0,1
1337,1337,0.3994263289418597,0.4,0.0,0.0,264.0,974.0,0.0,1,252.0,1
1338,1338,-0.716426398386799,-0.7,0.0,1.0,273.0,656.0,1.0,0,241.0,1
1339,1339,-0.8968322703443885,-0.9,1.0,0.0,276.0,703.0,0.0,0,291.0,1
1340,1340,-0.1854789683429493,-0.2,1.0,0.0,358.0,528.0,0.0,0,1254.0,1
1341,1341,0.008105824969412923,0.0,0.0,0.0,391.0,593.0,0.0,1,1936.0,1
1342,1342,0.271278686349424,0.3,0.0,0.0,287.0,810.0,0.0,1,253.0,1
1343,1343,0.09455344369205587,0.1,1.0,1.0,383.0,692.0,1.0,1,875.0,1
1344,1344,0.5841330000232626,0.6,1.0,1.0,319.0,822.0,1.0,1,149.0,1
1345,1345,0.6777014715534445,0.7,1.0,1.0,440.0,573.0,1.0,1,447.0,1
1346,1346,-0.170359451881666,-0.2,1.0,0.0,381.0,691.0,0.0,0,1878.0,1
1347,1347,0.8080723414573919,0.8,1.0,1.0,311.0,671.0,1.0,1,308.0,1
1348,1348,0.028802575686943777,0.0,1.0,1.0,368.0,843.0,0.0,0,3789.0,0
1349,1349,0.3249030740328943,0.3,0.0,0.0,275.0,886.0,0.0,1,229.0,1
1350,1350,0.17433296936530518,0.2,0.0,0.0,327.0,900.0,0.0,1,363.0,1
1351,1351,0.4658106771965128,0.5,1.0,1.0,474.0,820.0,1.0,1,186.0,1
1352,1352,-0.4643402765576528,-0.5,0.0,1.0,330.0,910.0,1.0,0,190.0,1
1353,1353,-0.6077015393235055,-0.6,0.0,1.0,451.0,933.0,1.0,0,256.0,1
1354,1354,-0.41096615317913404,-0.4,1.0,0.0,443.0,876.0,0.0,0,191.0,1
1355,1355,0.40563796239488925,0.4,0.0,0.0,403.0,753.0,0.0,1,604.0,1
1356,1356,-0.8897720559094918,-0.9,1.0,0.0,266.0,690.0,0.0,0,174.0,1
1357,1357,0.7654313335430928,0.8,0.0,0.0,383.0,927.0,0.0,1,380.0,1
1358,1358,-0.2345511161957562,-0.2,1.0,0.0,339.0,769.0,0.0,0,1002.0,1
1359,1359,-0.27724672858802646,-0.3,0.0,1.0,344.0,792.0,1.0,0,464.0,1
1360,1360,0.1476291614569195,0.1,1.0,1.0,377.0,710.0,1.0,1,333.0,1
1361,1361,-0.2409333614396767,-0.2,1.0,0.0,297.0,574.0,0.0,0,699.0,1
1362,1362,-0.640741834571461,-0.6,1.0,0.0,285.0,873.0,0.0,0,172.0,1
1363,1363,-0.8496796485215582,-0.8,0.0,1.0,397.0,540.0,1.0,0,203.0,1
1364,1364,0.07734972674533769,0.1,0.0,0.0,306.0,966.0,0.0,1,2878.0,1
1365,1365,0.3622701950181232,0.4,0.0,0.0,299.0,989.0,0.0,1,472.0,1
1366,1366,0.7335123674812579,0.7,1.0,1.0,463.0,617.0,1.0,1,210.0,1
1367,1367,0.5014288783388777,0.5,1.0,1.0,389.0,644.0,1.0,1,87.0,1
1368,1368,-0.07299050567670251,-0.1,1.0,0.0,436.0,648.0,0.0,0,566.0,1
1369,1369,0.6670396370182793,0.7,1.0,1.0,386.0,635.0,1.0,1,199.0,1
1370,1370,0.025395892116399477,0.0,0.0,0.0,320.0,573.0,0.0,1,3857.0,1
1371,1371,-0.4811165609652994,-0.5,1.0,0.0,330.0,899.0,0.0,0,121.0,1
1372,1372,-0.32768611249067103,-0.3,0.0,1.0,304.0,525.0,1.0,0,381.0,1
1373,1373,0.5680313127164932,0.6,0.0,0.0,270.0,573.0,0.0,1,327.0,1
1374,1374,0.32799818419449467,0.3,1.0,1.0,293.0,771.0,1.0,1,366.0,1
1375,1375,0.8271183348140044,0.8,0.0,0.0,464.0,581.0,0.0,1,345.0,1
1376,1376,-0.35093384184732856,-0.4,1.0,0.0,429.0,706.0,0.0,0,435.0,1
1377,1377,-0.31137444362497746,-0.3,0.0,1.0,423.0,621.0,1.0,0,266.0,1
1378,1378,0.7166468679003611,0.7,0.0,0.0,412.0,987.0,0.0,1,131.0,1
1379,1379,0.7676090023595522,0.8,0.0,0.0,445.0,598.0,0.0,1,717.0,1
1380,1380,0.12388646620113508,0.1,0.0,0.0,495.0,560.0,1.0,0,295.0,0
1381,1381,0.13983151600092014,0.1,0.0,0.0,437.0,815.0,0.0,1,1978.0,1
1382,1382,0.8550570834797327,0.9,1.0,1.0,344.0,633.0,1.0,1,203.0,1
1383,1383,-0.40984922649031824,-0.4,1.0,0.0,493.0,961.0,1.0,1,-74.0,0
1384,1384,-0.8808401739403617,-0.9,1.0,0.0,474.0,780.0,0.0,0,96.0,1
1385,1385,-0.027724718556201067,-0.0,0.0,1.0,342.0,910.0,0.0,1,508.0,0
1386,1386,-0.44645220009321557,-0.4,0.0,1.0,339.0,831.0,1.0,0,390.0,1
1387,1387,-0.8536277217097248,-0.9,0.0,1.0,272.0,564.0,1.0,0,264.0,1
1388,1388,0.2144900572977172,0.2,1.0,1.0,412.0,525.0,1.0,1,1113.0,1
1389,1389,0.1868825417418264,0.2,0.0,0.0,452.0,758.0,0.0,1,230.0,1
1390,1390,-0.20792993117933312,-0.2,1.0,0.0,269.0,791.0,0.0,0,370.0,1
1391,1391,0.6822897584997593,0.7,0.0,0.0,437.0,523.0,0.0,1,350.0,1
1392,1392,-0.6898947904977905,-0.7,0.0,1.0,478.0,979.0,1.0,0,113.0,1
1393,1393,0.08936011743382377,0.1,0.0,0.0,373.0,686.0,0.0,1,1071.0,1
1394,1394,0.4410599328557444,0.4,1.0,1.0,275.0,555.0,1.0,1,320.0,1
1395,1395,0.839403985104101,0.8,1.0,1.0,406.0,871.0,1.0,1,173.0,1
1396,1396,-0.1925684051354266,-0.2,1.0,0.0,308.0,796.0,0.0,0,366.0,1
1397,1397,0.6459751902205341,0.6,1.0,1.0,319.0,523.0,1.0,1,388.0,1
1398,1398,-0.8052349107939389,-0.8,0.0,1.0,286.0,526.0,1.0,0,258.0,1
1399,1399,0.4682518050095329,0.5,1.0,1.0,301.0,864.0,1.0,1,275.0,1
1400,1400,-0.06995507563819214,-0.1,1.0,0.0,397.0,502.0,1.0,1,691.0,0
1401,1401,0.18269244052214628,0.2,1.0,1.0,357.0,675.0,1.0,1,348.0,1
1402,1402,-0.8182514447916269,-0.8,1.0,0.0,347.0,914.0,0.0,0,99.0,1
1403,1403,0.3129391783668559,0.3,1.0,1.0,431.0,817.0,1.0,1,462.0,1
1404,1404,0.7894284070105245,0.8,0.0,0.0,314.0,516.0,0.0,1,890.0,1
1405,1405,-0.3263328262366868,-0.3,1.0,0.0,268.0,711.0,0.0,0,331.0,1
1406,1406,-0.034194076775787674,-0.0,0.0,1.0,344.0,702.0,1.0,0,3954.0,1
1407,1407,-0.8139850307487548,-0.8,1.0,0.0,382.0,959.0,0.0,0,129.0,1
1408,1408,0.8242783955155385,0.8,1.0,1.0,496.0,818.0,1.0,1,126.0,1
1409,1409,-0.2522890313466636,-0.3,0.0,1.0,485.0,740.0,1.0,0,425.0,1
1410,1410,0.866825751175763,0.9,0.0,0.0,314.0,704.0,0.0,1,912.0,1
1411,1411,0.4691011610139867,0.5,1.0,1.0,327.0,693.0,1.0,1,230.0,1
1412,1412,-0.14467558004358916,-0.1,1.0,0.0,433.0,723.0,0.0,0,444.0,1
1413,1413,0.6876429452409759,0.7,0.0,0.0,404.0,746.0,0.0,1,320.0,1
1414,1414,-0.7495839332918948,-0.7,0.0,1.0,463.0,562.0,1.0,0,415.0,1
1415,1415,0.7715194745925528,0.8,0.0,0.0,253.0,692.0,0.0,1,185.0,1
1416,1416,0.3783531066922582,0.4,1.0,1.0,430.0,810.0,1.0,1,150.0,1
1417,1417,-0.8576204255988074,-0.9,1.0,0.0,487.0,532.0,0.0,0,381.0,1
1418,1418,-0.6405861749929309,-0.6,1.0,0.0,350.0,558.0,0.0,0,322.0,1
1419,1419,-0.8815546028408993,-0.9,1.0,0.0,407.0,621.0,0.0,0,372.0,1
1420,1420,-0.5424204228180579,-0.5,0.0,1.0,385.0,583.0,1.0,0,332.0,1
1421,1421,0.32676121998684693,0.3,0.0,0.0,413.0,903.0,0.0,1,194.0,1
1422,1422,-0.8608104764000433,-0.9,0.0,1.0,272.0,797.0,1.0,0,161.0,1
1423,1423,0.7200686307118923,0.7,1.0,1.0,420.0,632.0,1.0,1,248.0,1
1424,1424,-0.8463273084784445,-0.8,1.0,0.0,287.0,752.0,0.0,0,181.0,1
1425,1425,0.8445915790366229,0.8,1.0,1.0,406.0,952.0,1.0,1,92.0,1
1426,1426,0.31433592220599393,0.3,1.0,1.0,374.0,860.0,1.0,1,186.0,1
1427,1427,-0.08481077360686817,-0.1,0.0,1.0,277.0,597.0,1.0,0,716.0,1
1428,1428,0.050322980545177365,0.1,0.0,0.0,451.0,609.0,1.0,0,340.0,0
1429,1429,-0.1468830626272688,-0.1,0.0,1.0,456.0,788.0,1.0,0,546.0,1
1430,1430,0.12649577383714294,0.1,0.0,0.0,392.0,909.0,0.0,1,989.0,1
1431,1431,-0.010771826898485659,-0.0,0.0,1.0,291.0,705.0,0.0,1,1114.0,0
1432,1432,-0.0415217548891178,-0.0,1.0,0.0,348.0,654.0,1.0,1,3998.0,0
1433,1433,0.8328198297308936,0.8,0.0,0.0,346.0,572.0,0.0,1,332.0,1
1434,1434,0.31553842538308097,0.3,1.0,1.0,402.0,559.0,1.0,1,259.0,1
1435,1435,0.4250186886626953,0.4,1.0,1.0,340.0,947.0,1.0,1,123.0,1
1436,1436,0.10452175078737114,0.1,1.0,1.0,449.0,815.0,1.0,1,1866.0,1
1437,1437,0.5855214892455304,0.6,1.0,1.0,461.0,595.0,1.0,1,234.0,1
1438,1438,-0.384587852113357,-0.4,1.0,0.0,368.0,653.0,0.0,0,459.0,1
1439,1439,0.08023371425643322,0.1,1.0,1.0,285.0,516.0,1.0,1,619.0,1
1440,1440,-0.5410358159012567,-0.5,1.0,0.0,459.0,744.0,0.0,0,237.0,1
1441,1441,-0.8489211039342186,-0.8,1.0,0.0,341.0,546.0,0.0,0,343.0,1
1442,1442,-0.36390264944111084,-0.4,1.0,0.0,302.0,563.0,0.0,0,645.0,1
1443,1443,-0.5982533843070197,-0.6,0.0,1.0,428.0,675.0,1.0,0,167.0,1
1444,1444,0.25860886266251126,0.3,0.0,0.0,491.0,697.0,0.0,1,292.0,1
1445,1445,-0.869931012745687,-0.9,0.0,1.0,319.0,933.0,1.0,0,118.0,1
1446,1446,-0.7434999113619812,-0.7,0.0,1.0,256.0,856.0,1.0,0,68.0,1
1447,1447,0.4036314955066628,0.4,0.0,0.0,323.0,861.0,0.0,1,226.0,1
1448,1448,0.2511402353019695,0.3,0.0,0.0,445.0,638.0,0.0,1,637.0,1
1449,1449,-0.32937870467168595,-0.3,1.0,0.0,306.0,751.0,0.0,0,363.0,1
1450,1450,0.0620168069203304,0.1,0.0,0.0,464.0,576.0,0.0,1,2020.0,1
1451,1451,0.12099921029575966,0.1,1.0,1.0,259.0,538.0,1.0,1,543.0,1
1452,1452,-0.8889111899217307,-0.9,0.0,1.0,308.0,883.0,1.0,0,99.0,1
1453,1453,-0.24257032255886146,-0.2,0.0,1.0,375.0,781.0,1.0,0,344.0,1
1454,1454,0.15224678333070185,0.2,1.0,1.0,460.0,910.0,1.0,1,650.0,1
1455,1455,-0.6762572210960176,-0.7,0.0,1.0,262.0,959.0,1.0,0,189.0,1
1456,1456,-0.5300737236345867,-0.5,1.0,0.0,253.0,555.0,0.0,0,442.0,1
1457,1457,0.5364963158029225,0.5,0.0,0.0,306.0,548.0,0.0,1,546.0,1
1458,1458,-0.2951537334269465,-0.3,0.0,1.0,362.0,923.0,1.0,0,315.0,1
1459,1459,-0.25393894355695246,-0.3,1.0,0.0,432.0,957.0,0.0,0,911.0,1
1460,1460,-0.3441256238612844,-0.3,1.0,0.0,264.0,690.0,0.0,0,336.0,1
1461,1461,0.8079149889079239,0.8,0.0,0.0,435.0,992.0,1.0,0,-87.0,0
1462,1462,0.8367726884524572,0.8,0.0,0.0,326.0,779.0,0.0,1,195.0,1
1463,1463,-0.5372235972910979,-0.5,0.0,1.0,382.0,717.0,1.0,0,221.0,1
1464,1464,-0.5647658394976802,-0.6,0.0,1.0,251.0,889.0,1.0,0,110.0,1
1465,1465,0.22015423818771562,0.2,0.0,0.0,445.0,855.0,0.0,1,400.0,1
1466,1466,0.0784590491437509,0.1,0.0,0.0,311.0,581.0,0.0,1,1198.0,1
1467,1467,0.2662085358484122,0.3,1.0,1.0,438.0,974.0,1.0,1,928.0,1
1468,1468,0.7283335919910722,0.7,0.0,0.0,492.0,582.0,0.0,1,536.0,1
1469,1469,-0.38896119929329187,-0.4,0.0,1.0,474.0,840.0,1.0,0,236.0,1
1470,1470,0.21801580459095138,0.2,0.0,0.0,416.0,854.0,0.0,1,370.0,1
1471,1471,-0.46836294392839084,-0.5,1.0,0.0,487.0,544.0,0.0,0,629.0,1
1472,1472,0.19638976746364356,0.2,1.0,1.0,452.0,857.0,1.0,1,911.0,1
1473,1473,-0.540901381761725,-0.5,1.0,0.0,320.0,694.0,0.0,0,136.0,1
1474,1474,-0.4929865714790703,-0.5,0.0,1.0,283.0,681.0,1.0,0,326.0,1
1475,1475,-0.23434406690605614,-0.2,0.0,1.0,379.0,643.0,1.0,0,478.0,1
1476,1476,-0.17276757120307717,-0.2,0.0,1.0,473.0,865.0,1.0,0,202.0,1
1477,1477,0.6754511845350487,0.7,0.0,0.0,362.0,962.0,0.0,1,316.0,1
1478,1478,-0.8740172258253522,-0.9,1.0,0.0,382.0,944.0,0.0,0,254.0,1
1479,1479,-0.3815445051140428,-0.4,1.0,0.0,494.0,750.0,0.0,0,526.0,1
1480,1480,0.5016843566742525,0.5,1.0,1.0,481.0,705.0,1.0,1,394.0,1
1481,1481,-0.33154596563304206,-0.3,1.0,0.0,434.0,505.0,0.0,0,451.0,1
1482,1482,-0.14914579457717392,-0.1,0.0,1.0,418.0,693.0,1.0,0,729.0,1
1483,1483,-0.5992750870995993,-0.6,0.0,1.0,290.0,822.0,1.0,0,58.0,1
1484,1484,0.7905500702698608,0.8,1.0,1.0,334.0,663.0,1.0,1,213.0,1
1485,1485,-0.8261821490435204,-0.8,1.0,0.0,431.0,976.0,0.0,0,103.0,1
1486,1486,-0.6413101034530333,-0.6,0.0,1.0,370.0,521.0,1.0,0,619.0,1
1487,1487,-0.713347751110396,-0.7,0.0,1.0,481.0,888.0,1.0,0,231.0,1
1488,1488,0.06706155202275643,0.1,0.0,0.0,256.0,762.0,0.0,1,1842.0,1
1489,1489,-0.18023210790557298,-0.2,0.0,1.0,474.0,856.0,1.0,0,460.0,1
1490,1490,0.010739944970730497,0.0,0.0,0.0,294.0,894.0,0.0,1,632.0,1
1491,1491,-0.5804239911096598,-0.6,1.0,0.0,277.0,695.0,0.0,0,438.0,1
1492,1492,0.8970485069074509,0.9,1.0,1.0,417.0,742.0,1.0,1,81.0,1
