,trial,coherence,coherence_bin,green_side,correct_side,target_onset,checker_onset,decision,green_decision,decision_time,correct_decision
0,0,-0.2618506341583057,-0.3,0.0,1.0,341.0,708.0,1.0,0,381.0,1
1,1,-0.8939982179922559,-0.9,0.0,1.0,477.0,549.0,1.0,0,354.0,1
2,2,-0.7485880302669139,-0.7,1.0,0.0,410.0,873.0,0.0,0,247.0,1
3,3,-0.20488925166454897,-0.2,0.0,1.0,407.0,774.0,1.0,0,579.0,1
4,4,-0.35666925296160334,-0.4,1.0,0.0,329.0,676.0,1.0,1,215.0,0
5,5,-0.5659656241017175,-0.6,0.0,1.0,467.0,712.0,1.0,0,271.0,1
6,6,0.4953629790197732,0.5,0.0,0.0,290.0,519.0,0.0,1,731.0,1
7,7,0.14152968483368145,0.1,0.0,0.0,372.0,889.0,1.0,0,959.0,0
8,8,-0.062270013257883505,-0.1,1.0,0.0,476.0,979.0,1.0,1,615.0,0
9,9,0.8973034974430699,0.9,1.0,1.0,376.0,679.0,1.0,1,305.0,1
10,10,-0.8177939585964117,-0.8,0.0,1.0,490.0,691.0,1.0,0,189.0,1
11,11,0.6761049519699468,0.7,1.0,1.0,295.0,923.0,1.0,1,342.0,1
12,12,0.5101222574320844,0.5,1.0,1.0,291.0,768.0,1.0,1,331.0,1
13,13,-0.2861229930859345,-0.3,1.0,0.0,483.0,753.0,0.0,0,214.0,1
14,14,-0.7668118530148347,-0.8,1.0,0.0,378.0,792.0,0.0,0,190.0,1
15,15,-0.6120014385172616,-0.6,0.0,1.0,475.0,923.0,1.0,0,92.0,1
16,16,0.7707582623009369,0.8,1.0,1.0,274.0,617.0,1.0,1,319.0,1
17,17,0.34020361468846405,0.3,1.0,1.0,309.0,648.0,1.0,1,363.0,1
18,18,-0.2694088785819915,-0.3,0.0,1.0,354.0,543.0,1.0,0,743.0,1
19,19,-0.0396273674418528,-0.0,1.0,0.0,358.0,896.0,1.0,1,206.0,0
20,20,0.2834451926722791,0.3,0.0,0.0,469.0,512.0,0.0,1,739.0,1
21,21,-0.6668738959657593,-0.7,1.0,0.0,447.0,911.0,1.0,1,12.0,0
22,22,0.5682129599910354,0.6,0.0,0.0,349.0,538.0,0.0,1,573.0,1
23,23,-0.20959109135550213,-0.2,0.0,1.0,265.0,592.0,1.0,0,643.0,1
24,24,-0.32662610007438186,-0.3,0.0,1.0,461.0,929.0,1.0,0,80.0,1
25,25,0.08963108925911578,0.1,0.0,0.0,314.0,867.0,1.0,0,2479.0,0
26,26,0.06739983835491581,0.1,0.0,0.0,493.0,939.0,1.0,0,238.0,0
27,27,0.6943405804573582,0.7,1.0,1.0,472.0,983.0,1.0,1,75.0,1
28,28,-0.8375452738107874,-0.8,0.0,1.0,444.0,751.0,1.0,0,265.0,1
29,29,-0.7620277477689406,-0.8,0.0,1.0,397.0,658.0,1.0,0,405.0,1
30,30,0.697104616308961,0.7,1.0,1.0,382.0,672.0,1.0,1,236.0,1
31,31,-0.7850774580813324,-0.8,1.0,0.0,386.0,799.0,0.0,0,25.0,1
32,32,-0.6249956365487465,-0.6,0.0,1.0,309.0,500.0,1.0,0,471.0,1
33,33,0.027493227056536673,0.0,1.0,1.0,372.0,829.0,0.0,0,849.0,0
34,34,0.418115045370837,0.4,0.0,0.0,350.0,830.0,0.0,1,350.0,1
35,35,0.4815419613565891,0.5,1.0,1.0,347.0,695.0,1.0,1,328.0,1
36,36,0.16599407032587699,0.2,1.0,1.0,414.0,875.0,1.0,1,251.0,1
37,37,-0.0989928412883826,-0.1,0.0,1.0,376.0,780.0,1.0,0,164.0,1
38,38,0.7853839530145882,0.8,0.0,0.0,493.0,815.0,0.0,1,512.0,1
39,39,0.5558905432624323,0.6,0.0,0.0,255.0,701.0,0.0,1,604.0,1
40,40,-0.40179446079261744,-0.4,0.0,1.0,258.0,644.0,1.0,0,588.0,1
41,41,0.8432185685271424,0.8,0.0,0.0,385.0,592.0,0.0,1,443.0,1
42,42,-0.5980928007354405,-0.6,0.0,1.0,441.0,860.0,1.0,0,69.0,1
43,43,-0.32352095534269054,-0.3,0.0,1.0,459.0,631.0,1.0,0,550.0,1
44,44,-0.15333435744678292,-0.2,1.0,0.0,288.0,714.0,0.0,0,398.0,1
45,45,-0.12568571080675495,-0.1,0.0,1.0,449.0,826.0,0.0,1,195.0,0
46,46,-0.852525706018343,-0.9,1.0,0.0,463.0,699.0,0.0,0,358.0,1
47,47,0.11003583838707687,0.1,1.0,1.0,365.0,990.0,0.0,0,-55.0,0
48,48,0.4983682309369316,0.5,0.0,0.0,441.0,747.0,0.0,1,652.0,1
49,49,-0.841966680350289,-0.8,0.0,1.0,309.0,880.0,1.0,0,261.0,1
50,50,-0.6446983484363429,-0.6,0.0,1.0,435.0,512.0,1.0,0,463.0,1
51,51,-0.16796105950449214,-0.2,0.0,1.0,479.0,556.0,1.0,0,335.0,1
52,52,0.0015764323428218985,0.0,1.0,1.0,261.0,993.0,0.0,0,166.0,0
53,53,0.028241132875409858,0.0,0.0,0.0,307.0,987.0,1.0,0,96.0,0
54,54,-0.2732818943566977,-0.3,0.0,1.0,293.0,558.0,1.0,0,529.0,1
55,55,-0.07998003171243184,-0.1,0.0,1.0,305.0,988.0,1.0,0,347.0,1
56,56,0.19759856784481322,0.2,0.0,0.0,391.0,754.0,0.0,1,405.0,1
57,57,0.23003121870015442,0.2,0.0,0.0,337.0,675.0,0.0,1,938.0,1
58,58,-0.7866116505220428,-0.8,0.0,1.0,452.0,757.0,1.0,0,431.0,1
59,59,0.42845891839958894,0.4,0.0,0.0,361.0,832.0,0.0,1,297.0,1
60,60,0.07674773491363152,0.1,1.0,1.0,281.0,548.0,1.0,1,601.0,1
61,61,-0.3961789644275905,-0.4,1.0,0.0,497.0,517.0,0.0,0,496.0,1
62,62,0.8941031771071074,0.9,1.0,1.0,258.0,673.0,1.0,1,439.0,1
63,63,-0.7936414262672917,-0.8,1.0,0.0,398.0,554.0,0.0,0,328.0,1
64,64,-0.3899288213370403,-0.4,1.0,0.0,402.0,565.0,0.0,0,543.0,1
65,65,0.8519778501925989,0.9,0.0,0.0,365.0,948.0,1.0,0,27.0,0
66,66,-0.1534127557812398,-0.2,0.0,1.0,410.0,805.0,0.0,1,255.0,0
67,67,-0.27368039621861484,-0.3,1.0,0.0,480.0,953.0,0.0,0,217.0,1
68,68,0.47942953477455463,0.5,1.0,1.0,373.0,913.0,1.0,1,-16.0,1
69,69,0.2706794623635188,0.3,0.0,0.0,325.0,627.0,1.0,0,398.0,0
70,70,0.498275914797203,0.5,1.0,1.0,436.0,514.0,1.0,1,430.0,1
71,71,-0.6590415329559578,-0.7,0.0,1.0,251.0,669.0,1.0,0,640.0,1
72,72,-0.040592575553715426,-0.0,1.0,0.0,392.0,672.0,1.0,1,316.0,0
73,73,-0.6198238705309802,-0.6,1.0,0.0,473.0,629.0,0.0,0,308.0,1
74,74,-0.7860558365723002,-0.8,0.0,1.0,382.0,658.0,1.0,0,410.0,1
75,75,0.3875259653970867,0.4,0.0,0.0,415.0,697.0,0.0,1,388.0,1
76,76,-0.48328667749151455,-0.5,1.0,0.0,385.0,519.0,0.0,0,606.0,1
77,77,-0.3604821626396041,-0.4,1.0,0.0,490.0,549.0,0.0,0,351.0,1
78,78,0.8405108479473392,0.8,0.0,0.0,328.0,629.0,0.0,1,433.0,1
79,79,-0.8805654945879762,-0.9,0.0,1.0,349.0,774.0,1.0,0,317.0,1
80,80,-0.793797507090027,-0.8,0.0,1.0,479.0,849.0,1.0,0,122.0,1
81,81,0.8537550380715005,0.9,1.0,1.0,253.0,964.0,1.0,1,113.0,1
82,82,-0.4465566217036714,-0.4,0.0,1.0,474.0,782.0,1.0,0,324.0,1
83,83,-0.37985844669758084,-0.4,1.0,0.0,488.0,601.0,0.0,0,871.0,1
84,84,0.3937322165314926,0.4,0.0,0.0,438.0,962.0,1.0,0,260.0,0
85,85,-0.19833596449202018,-0.2,0.0,1.0,388.0,683.0,1.0,0,279.0,1
86,86,0.20425885571706004,0.2,1.0,1.0,275.0,789.0,1.0,1,206.0,1
87,87,0.2773331560548159,0.3,0.0,0.0,442.0,786.0,1.0,0,922.0,0
88,88,-0.5864756717467083,-0.6,0.0,1.0,262.0,824.0,1.0,0,284.0,1
89,89,0.5173320790791461,0.5,0.0,0.0,375.0,869.0,0.0,1,36.0,1
90,90,-0.48214931724948046,-0.5,0.0,1.0,485.0,527.0,1.0,0,528.0,1
91,91,0.7557817715523111,0.8,1.0,1.0,334.0,831.0,1.0,1,55.0,1
92,92,0.8017739546119081,0.8,0.0,0.0,492.0,641.0,0.0,1,957.0,1
93,93,0.768443304221477,0.8,0.0,0.0,421.0,660.0,0.0,1,339.0,1
94,94,-0.2181955983106656,-0.2,0.0,1.0,369.0,642.0,1.0,0,459.0,1
95,95,-0.06006186782915812,-0.1,0.0,1.0,429.0,599.0,1.0,0,982.0,1
96,96,0.4642308630823607,0.5,0.0,0.0,491.0,783.0,0.0,1,246.0,1
97,97,-0.16221648257113896,-0.2,0.0,1.0,391.0,901.0,1.0,0,408.0,1
98,98,-0.15954235326519717,-0.2,0.0,1.0,475.0,963.0,1.0,0,142.0,1
99,99,-0.3806395012630035,-0.4,0.0,1.0,437.0,821.0,1.0,0,292.0,1
100,100,-0.4869119261134068,-0.5,1.0,0.0,410.0,672.0,0.0,0,978.0,1
101,101,0.5102032512431623,0.5,0.0,0.0,477.0,642.0,0.0,1,321.0,1
102,102,-0.7711263758928897,-0.8,1.0,0.0,435.0,776.0,0.0,0,269.0,1
103,103,-0.4124255085866872,-0.4,0.0,1.0,494.0,715.0,1.0,0,321.0,1
104,104,0.6386163938265098,0.6,0.0,0.0,393.0,942.0,0.0,1,255.0,1
105,105,-0.15662602979926454,-0.2,1.0,0.0,448.0,971.0,1.0,1,461.0,0
106,106,-0.6380117730307637,-0.6,1.0,0.0,421.0,826.0,0.0,0,193.0,1
107,107,0.47528659958889896,0.5,1.0,1.0,337.0,548.0,1.0,1,445.0,1
108,108,-0.6108125430883509,-0.6,0.0,1.0,492.0,849.0,1.0,0,199.0,1
109,109,-0.33161218738043396,-0.3,1.0,0.0,407.0,751.0,0.0,0,382.0,1
110,110,0.5815156034702819,0.6,0.0,0.0,330.0,856.0,0.0,1,74.0,1
111,111,0.7283272718372485,0.7,0.0,0.0,393.0,790.0,0.0,1,467.0,1
112,112,-0.056023329965603774,-0.1,0.0,1.0,419.0,629.0,1.0,0,552.0,1
113,113,0.3911942373509446,0.4,1.0,1.0,462.0,841.0,1.0,1,197.0,1
114,114,0.5427509614673808,0.5,0.0,0.0,321.0,708.0,0.0,1,171.0,1
115,115,0.03863550498590396,0.0,0.0,0.0,281.0,687.0,0.0,1,352.0,1
116,116,-0.08880457222322569,-0.1,1.0,0.0,323.0,900.0,0.0,0,147.0,1
117,117,0.786602711885631,0.8,1.0,1.0,440.0,561.0,1.0,1,859.0,1
118,118,0.800482509337669,0.8,1.0,1.0,289.0,603.0,1.0,1,248.0,1
119,119,0.0007468515975206369,0.0,1.0,1.0,415.0,899.0,0.0,0,136.0,0
120,120,-0.4868712514810172,-0.5,1.0,0.0,338.0,545.0,1.0,1,617.0,0
121,121,0.7095020468702781,0.7,0.0,0.0,313.0,798.0,0.0,1,149.0,1
122,122,-0.21497253581915565,-0.2,1.0,0.0,452.0,638.0,0.0,0,360.0,1
123,123,0.8056749861867097,0.8,1.0,1.0,369.0,617.0,1.0,1,414.0,1
124,124,-0.8937760413353317,-0.9,0.0,1.0,252.0,507.0,1.0,0,531.0,1
125,125,-0.8429217655702416,-0.8,1.0,0.0,288.0,858.0,0.0,0,94.0,1
126,126,0.4579762955641621,0.5,1.0,1.0,336.0,650.0,1.0,1,294.0,1
127,127,-0.23825641926776198,-0.2,0.0,1.0,256.0,975.0,1.0,0,39.0,1
128,128,-0.8217701097988703,-0.8,1.0,0.0,480.0,984.0,0.0,0,716.0,1
129,129,0.507149894839311,0.5,1.0,1.0,442.0,565.0,1.0,1,693.0,1
130,130,-0.4416140762057815,-0.4,1.0,0.0,476.0,707.0,0.0,0,167.0,1
131,131,-0.49043145633433183,-0.5,0.0,1.0,409.0,769.0,1.0,0,262.0,1
132,132,-0.12941427169326558,-0.1,0.0,1.0,475.0,829.0,1.0,0,286.0,1
133,133,-0.27768959810336125,-0.3,0.0,1.0,379.0,933.0,1.0,0,298.0,1
134,134,0.8513326739349228,0.9,0.0,0.0,374.0,504.0,0.0,1,1452.0,1
135,135,0.37874223017364594,0.4,0.0,0.0,283.0,960.0,0.0,1,917.0,1
136,136,-0.13409081743256235,-0.1,0.0,1.0,462.0,696.0,1.0,0,672.0,1
137,137,-0.2785718963460332,-0.3,1.0,0.0,338.0,637.0,0.0,0,155.0,1
138,138,-0.19105564804225428,-0.2,0.0,1.0,260.0,958.0,1.0,0,722.0,1
139,139,-0.8684483125721587,-0.9,1.0,0.0,430.0,715.0,0.0,0,275.0,1
140,140,-0.722920551514311,-0.7,1.0,0.0,395.0,503.0,0.0,0,362.0,1
141,141,-0.19709669245118822,-0.2,1.0,0.0,416.0,915.0,0.0,0,259.0,1
142,142,0.03355424463475443,0.0,1.0,1.0,490.0,864.0,1.0,1,316.0,1
143,143,0.3260076305560019,0.3,1.0,1.0,291.0,725.0,1.0,1,534.0,1
144,144,-0.8304088503770537,-0.8,1.0,0.0,359.0,716.0,0.0,0,195.0,1
145,145,-0.5345851103982502,-0.5,0.0,1.0,494.0,562.0,1.0,0,674.0,1
146,146,0.48220992844968735,0.5,1.0,1.0,301.0,501.0,1.0,1,1118.0,1
147,147,0.5152528750413713,0.5,0.0,0.0,366.0,764.0,0.0,1,870.0,1
148,148,0.06585677253694977,0.1,1.0,1.0,329.0,596.0,1.0,1,375.0,1
149,149,0.32873209980165063,0.3,0.0,0.0,343.0,555.0,0.0,1,632.0,1
150,150,0.1641979653417408,0.2,1.0,1.0,380.0,611.0,1.0,1,409.0,1
151,151,0.7166182984138115,0.7,0.0,0.0,404.0,774.0,0.0,1,282.0,1
152,152,0.1979775661282569,0.2,0.0,0.0,375.0,882.0,0.0,1,603.0,1
153,153,0.4317838538409494,0.4,0.0,0.0,389.0,988.0,0.0,1,763.0,1
154,154,0.6179901337520156,0.6,0.0,0.0,337.0,995.0,0.0,1,718.0,1
155,155,0.05267776183315709,0.1,1.0,1.0,472.0,535.0,1.0,1,463.0,1
156,156,-0.10312123047602861,-0.1,1.0,0.0,417.0,666.0,0.0,0,807.0,1
157,157,-0.5686221581198574,-0.6,0.0,1.0,473.0,864.0,1.0,0,363.0,1
158,158,0.2319074916151994,0.2,1.0,1.0,497.0,947.0,1.0,1,326.0,1
159,159,-0.5115070908338186,-0.5,1.0,0.0,373.0,612.0,0.0,0,315.0,1
160,160,-0.32216561472473937,-0.3,1.0,0.0,384.0,515.0,1.0,1,541.0,0
161,161,0.028441232948495765,0.0,0.0,0.0,298.0,954.0,0.0,1,168.0,1
162,162,0.1776990674201414,0.2,0.0,0.0,378.0,650.0,1.0,0,1562.0,0
163,163,0.16219632225209135,0.2,1.0,1.0,463.0,536.0,1.0,1,581.0,1
164,164,-0.04812613290232293,-0.0,0.0,1.0,391.0,809.0,1.0,0,700.0,1
165,165,0.729398011138603,0.7,1.0,1.0,258.0,610.0,1.0,1,462.0,1
166,166,0.02142044007178967,0.0,1.0,1.0,308.0,725.0,1.0,1,527.0,1
167,167,-0.3536772320731112,-0.4,1.0,0.0,261.0,522.0,1.0,1,537.0,0
168,168,0.1765087830359079,0.2,0.0,0.0,332.0,843.0,0.0,1,485.0,1
169,169,0.06721715300372677,0.1,1.0,1.0,297.0,918.0,1.0,1,155.0,1
170,170,0.5880842677336643,0.6,1.0,1.0,278.0,801.0,0.0,0,271.0,0
171,171,-0.4200007059089852,-0.4,0.0,1.0,289.0,888.0,1.0,0,133.0,1
172,172,-0.6290766704537141,-0.6,1.0,0.0,420.0,704.0,0.0,0,216.0,1
173,173,-0.21033334204913423,-0.2,0.0,1.0,414.0,864.0,1.0,0,262.0,1
174,174,-0.8075371951719762,-0.8,1.0,0.0,293.0,521.0,0.0,0,326.0,1
175,175,0.3816872066263918,0.4,1.0,1.0,457.0,901.0,1.0,1,232.0,1
176,176,-0.22657690166727296,-0.2,0.0,1.0,426.0,944.0,1.0,0,190.0,1
177,177,-0.3887541626509783,-0.4,1.0,0.0,436.0,969.0,1.0,1,395.0,0
178,178,0.8962507505811955,0.9,0.0,0.0,448.0,862.0,0.0,1,220.0,1
179,179,-0.4775483298473021,-0.5,0.0,1.0,357.0,844.0,1.0,0,159.0,1
180,180,-0.890646281257813,-0.9,1.0,0.0,390.0,533.0,0.0,0,397.0,1
181,181,-0.5419767517963792,-0.5,0.0,1.0,421.0,827.0,1.0,0,102.0,1
182,182,0.38757592264492857,0.4,1.0,1.0,483.0,609.0,1.0,1,368.0,1
183,183,-0.452334446766635,-0.5,0.0,1.0,402.0,565.0,1.0,0,523.0,1
184,184,-0.01999236751508482,-0.0,1.0,0.0,404.0,876.0,0.0,0,470.0,1
185,185,-0.8081482810337972,-0.8,0.0,1.0,330.0,568.0,1.0,0,412.0,1
186,186,-0.8011880994056942,-0.8,0.0,1.0,446.0,933.0,1.0,0,-39.0,1
187,187,-0.2925238875739784,-0.3,0.0,1.0,337.0,673.0,1.0,0,490.0,1
188,188,0.18305334763125314,0.2,1.0,1.0,269.0,971.0,1.0,1,-10.0,1
189,189,-0.8435854015572644,-0.8,1.0,0.0,317.0,825.0,0.0,0,248.0,1
190,190,-0.623089795022693,-0.6,0.0,1.0,295.0,521.0,1.0,0,774.0,1
191,191,0.145748272815721,0.1,0.0,0.0,270.0,583.0,1.0,0,287.0,0
192,192,0.4119342096731514,0.4,0.0,0.0,413.0,897.0,0.0,1,340.0,1
193,193,0.730113269315127,0.7,0.0,0.0,262.0,898.0,0.0,1,470.0,1
194,194,-0.7774322172629459,-0.8,0.0,1.0,423.0,515.0,1.0,0,312.0,1
195,195,-0.09884988202006206,-0.1,1.0,0.0,435.0,600.0,0.0,0,845.0,1
196,196,0.8360508310696056,0.8,1.0,1.0,339.0,823.0,1.0,1,278.0,1
197,197,-0.6652404143062084,-0.7,0.0,1.0,420.0,793.0,1.0,0,337.0,1
198,198,0.801702317740146,0.8,1.0,1.0,356.0,583.0,1.0,1,351.0,1
199,199,-0.23750018292842678,-0.2,1.0,0.0,294.0,748.0,0.0,0,488.0,1
200,200,-0.711036783163691,-0.7,0.0,1.0,415.0,619.0,1.0,0,336.0,1
201,201,-0.6234421197398621,-0.6,0.0,1.0,449.0,669.0,1.0,0,582.0,1
202,202,-0.7404377174334789,-0.7,1.0,0.0,286.0,632.0,0.0,0,292.0,1
203,203,-0.22330761776704078,-0.2,1.0,0.0,454.0,527.0,0.0,0,589.0,1
204,204,0.7326901976611829,0.7,0.0,0.0,403.0,590.0,0.0,1,507.0,1
205,205,0.7309685520856585,0.7,0.0,0.0,352.0,653.0,0.0,1,605.0,1
206,206,0.7291344001310828,0.7,0.0,0.0,274.0,966.0,0.0,1,770.0,1
207,207,-0.806862691621578,-0.8,0.0,1.0,308.0,686.0,1.0,0,236.0,1
208,208,0.7619005889372498,0.8,0.0,0.0,442.0,583.0,0.0,1,555.0,1
209,209,-0.1395382332400158,-0.1,1.0,0.0,263.0,752.0,1.0,1,285.0,0
210,210,-0.7114363877966993,-0.7,1.0,0.0,477.0,810.0,0.0,0,233.0,1
211,211,0.27469517908503127,0.3,0.0,0.0,419.0,716.0,0.0,1,335.0,1
212,212,0.4557825668110945,0.5,0.0,0.0,351.0,842.0,0.0,1,567.0,1
213,213,-0.5836759792115143,-0.6,0.0,1.0,257.0,987.0,1.0,0,206.0,1
214,214,-0.6108627248395884,-0.6,0.0,1.0,319.0,862.0,1.0,0,209.0,1
215,215,0.03764802910034659,0.0,1.0,1.0,257.0,622.0,1.0,1,331.0,1
216,216,0.28228881502076664,0.3,0.0,0.0,324.0,867.0,0.0,1,189.0,1
217,217,-0.39645370669029045,-0.4,0.0,1.0,342.0,972.0,1.0,0,306.0,1
218,218,-0.20662752471913204,-0.2,0.0,1.0,480.0,603.0,1.0,0,907.0,1
219,219,-0.2082523617484472,-0.2,1.0,0.0,480.0,515.0,0.0,0,895.0,1
220,220,-0.2601222832156872,-0.3,0.0,1.0,455.0,842.0,0.0,1,473.0,0
221,221,-0.7132129276035597,-0.7,0.0,1.0,391.0,925.0,1.0,0,64.0,1
222,222,0.741069777955461,0.7,1.0,1.0,419.0,990.0,0.0,0,-39.0,0
223,223,0.8239662062419076,0.8,0.0,0.0,386.0,597.0,0.0,1,367.0,1
224,224,0.8246785534100819,0.8,0.0,0.0,345.0,961.0,0.0,1,234.0,1
225,225,-0.5645075906887637,-0.6,0.0,1.0,449.0,576.0,1.0,0,305.0,1
226,226,0.7108474636192817,0.7,1.0,1.0,307.0,547.0,1.0,1,436.0,1
227,227,-0.3085707038223763,-0.3,0.0,1.0,397.0,962.0,1.0,0,161.0,1
228,228,-0.157641549206615,-0.2,0.0,1.0,377.0,529.0,1.0,0,474.0,1
229,229,-0.07126710576210471,-0.1,0.0,1.0,270.0,596.0,1.0,0,994.0,1
230,230,-0.6293000404233391,-0.6,1.0,0.0,354.0,640.0,0.0,0,606.0,1
231,231,0.8345154330307413,0.8,1.0,1.0,487.0,870.0,1.0,1,133.0,1
232,232,-0.2570445374163105,-0.3,0.0,1.0,366.0,846.0,1.0,0,108.0,1
233,233,-0.5572359891353109,-0.6,0.0,1.0,400.0,611.0,1.0,0,729.0,1
234,234,0.13283707224794405,0.1,0.0,0.0,301.0,876.0,1.0,0,13.0,0
235,235,-0.5487689127918784,-0.5,0.0,1.0,327.0,872.0,1.0,0,671.0,1
236,236,-0.35231865994537825,-0.4,1.0,0.0,403.0,772.0,0.0,0,105.0,1
237,237,0.13845417952415395,0.1,1.0,1.0,407.0,932.0,1.0,1,-49.0,1
238,238,0.42006063671856275,0.4,0.0,0.0,255.0,973.0,1.0,0,442.0,0
239,239,0.04739343560378417,0.0,0.0,0.0,305.0,898.0,1.0,0,107.0,0
240,240,0.23353856126915884,0.2,0.0,0.0,403.0,767.0,1.0,0,680.0,0
241,241,0.3576776224021331,0.4,1.0,1.0,354.0,788.0,1.0,1,198.0,1
242,242,-0.021259904554635,-0.0,0.0,1.0,294.0,888.0,1.0,0,508.0,1
243,243,-0.8763705310624981,-0.9,1.0,0.0,435.0,939.0,0.0,0,106.0,1
244,244,-0.22621277721444755,-0.2,0.0,1.0,360.0,509.0,1.0,0,501.0,1
245,245,0.5852914457687902,0.6,0.0,0.0,477.0,678.0,0.0,1,495.0,1
246,246,-0.0293686309960296,-0.0,0.0,1.0,390.0,760.0,1.0,0,480.0,1
247,247,0.119717520991239,0.1,1.0,1.0,448.0,788.0,0.0,0,94.0,0
248,248,0.42265944978078906,0.4,1.0,1.0,432.0,978.0,0.0,0,60.0,0
249,249,-0.3495900444392991,-0.3,0.0,1.0,287.0,847.0,1.0,0,76.0,1
250,250,-0.5729845342477552,-0.6,0.0,1.0,335.0,721.0,1.0,0,374.0,1
251,251,0.8018647873051948,0.8,0.0,0.0,387.0,933.0,0.0,1,390.0,1
252,252,-0.48316152144278157,-0.5,1.0,0.0,368.0,528.0,0.0,0,804.0,1
253,253,0.5471309223264792,0.5,1.0,1.0,369.0,546.0,1.0,1,395.0,1
254,254,0.1379102789876293,0.1,0.0,0.0,438.0,652.0,1.0,0,460.0,0
255,255,-0.3021538336673071,-0.3,1.0,0.0,381.0,668.0,0.0,0,331.0,1
256,256,-0.6205892362178389,-0.6,1.0,0.0,344.0,957.0,0.0,0,289.0,1
257,257,-0.4963113016040086,-0.5,1.0,0.0,382.0,707.0,0.0,0,491.0,1
258,258,0.3269867954959452,0.3,1.0,1.0,434.0,684.0,1.0,1,412.0,1
259,259,-0.35835885123361433,-0.4,0.0,1.0,251.0,911.0,1.0,0,-22.0,1
260,260,-0.6041323959902178,-0.6,1.0,0.0,387.0,650.0,0.0,0,413.0,1
261,261,0.11405308763206856,0.1,0.0,0.0,467.0,587.0,1.0,0,946.0,0
262,262,0.7046064710943604,0.7,0.0,0.0,436.0,939.0,0.0,1,285.0,1
263,263,-0.2848950963412459,-0.3,1.0,0.0,302.0,587.0,1.0,1,411.0,0
264,264,-0.8283754530567361,-0.8,0.0,1.0,384.0,902.0,1.0,0,134.0,1
265,265,0.3551815756204776,0.4,1.0,1.0,371.0,547.0,1.0,1,642.0,1
266,266,-0.08652720066876096,-0.1,1.0,0.0,257.0,656.0,1.0,1,527.0,0
267,267,0.0918011645817477,0.1,1.0,1.0,345.0,872.0,1.0,1,53.0,1
268,268,-0.3745087458709826,-0.4,0.0,1.0,423.0,612.0,1.0,0,645.0,1
269,269,0.2885315712493385,0.3,0.0,0.0,276.0,909.0,1.0,0,145.0,0
270,270,-0.6345862953363498,-0.6,0.0,1.0,475.0,775.0,1.0,0,160.0,1
271,271,0.1430033781817236,0.1,0.0,0.0,379.0,799.0,1.0,0,112.0,0
272,272,-0.7852664365941961,-0.8,0.0,1.0,487.0,800.0,1.0,0,283.0,1
273,273,-0.6098613594980197,-0.6,0.0,1.0,417.0,997.0,1.0,0,36.0,1
274,274,0.010993616668387607,0.0,0.0,0.0,279.0,966.0,1.0,0,605.0,0
275,275,0.13875612639782153,0.1,0.0,0.0,435.0,906.0,1.0,0,249.0,0
276,276,0.1531188540843912,0.2,0.0,0.0,426.0,571.0,1.0,0,763.0,0
277,277,0.7773794369340828,0.8,0.0,0.0,350.0,870.0,0.0,1,390.0,1
278,278,-0.470511730338151,-0.5,0.0,1.0,264.0,824.0,1.0,0,322.0,1
279,279,0.23348921352378482,0.2,0.0,0.0,491.0,583.0,0.0,1,686.0,1
280,280,-0.7914842043401598,-0.8,1.0,0.0,366.0,707.0,0.0,0,187.0,1
281,281,0.8103562831467929,0.8,1.0,1.0,464.0,784.0,1.0,1,92.0,1
282,282,-0.34427026930745497,-0.3,1.0,0.0,371.0,527.0,0.0,0,402.0,1
283,283,0.580382927191946,0.6,1.0,1.0,316.0,540.0,1.0,1,324.0,1
284,284,0.8856324700417767,0.9,1.0,1.0,441.0,730.0,1.0,1,279.0,1
285,285,-0.021515570749180535,-0.0,1.0,0.0,346.0,529.0,1.0,1,1085.0,0
286,286,-0.156776532898803,-0.2,0.0,1.0,432.0,659.0,1.0,0,669.0,1
287,287,0.32336685472869264,0.3,1.0,1.0,409.0,646.0,1.0,1,535.0,1
288,288,0.7632926771057967,0.8,0.0,0.0,433.0,672.0,0.0,1,365.0,1
289,289,-0.4558756575474782,-0.5,0.0,1.0,494.0,850.0,1.0,0,456.0,1
290,290,-0.3392317388505759,-0.3,1.0,0.0,360.0,528.0,0.0,0,612.0,1
291,291,0.3620224938668405,0.4,0.0,0.0,276.0,889.0,0.0,1,125.0,1
292,292,-0.16628784976508437,-0.2,0.0,1.0,271.0,778.0,1.0,0,911.0,1
293,293,0.2657642673977575,0.3,1.0,1.0,373.0,732.0,1.0,1,295.0,1
294,294,0.6789466028154155,0.7,1.0,1.0,293.0,600.0,1.0,1,397.0,1
295,295,0.15624601472809763,0.2,0.0,0.0,468.0,977.0,1.0,0,55.0,0
296,296,-0.004005779023871114,-0.0,0.0,1.0,323.0,780.0,1.0,0,257.0,1
297,297,-0.4402431981144453,-0.4,1.0,0.0,332.0,930.0,1.0,1,128.0,0
298,298,0.5375239844004033,0.5,1.0,1.0,356.0,605.0,1.0,1,469.0,1
299,299,0.8594254875142103,0.9,0.0,0.0,272.0,762.0,0.0,1,526.0,1
300,300,0.47100564533688105,0.5,0.0,0.0,490.0,511.0,0.0,1,649.0,1
301,301,-0.5746932670146317,-0.6,1.0,0.0,442.0,767.0,0.0,0,101.0,1
302,302,0.318580522949491,0.3,1.0,1.0,412.0,551.0,1.0,1,347.0,1
303,303,-0.3732831241837711,-0.4,0.0,1.0,442.0,924.0,1.0,0,254.0,1
304,304,-0.8590096158249271,-0.9,1.0,0.0,499.0,740.0,0.0,0,501.0,1
305,305,0.7790515646743853,0.8,1.0,1.0,477.0,677.0,1.0,1,316.0,1
306,306,-0.22819215124559533,-0.2,0.0,1.0,273.0,807.0,1.0,0,240.0,1
307,307,0.21498082197262114,0.2,1.0,1.0,380.0,629.0,1.0,1,231.0,1
308,308,0.09649923844031938,0.1,0.0,0.0,313.0,817.0,1.0,0,850.0,0
309,309,0.2558435370289963,0.3,1.0,1.0,355.0,618.0,0.0,0,527.0,0
310,310,0.3552829061407211,0.4,0.0,0.0,352.0,860.0,1.0,0,448.0,0
311,311,0.03731408879112308,0.0,0.0,0.0,454.0,710.0,1.0,0,406.0,0
312,312,0.004052127431458108,0.0,0.0,0.0,261.0,795.0,1.0,0,564.0,0
313,313,-0.7816395674872336,-0.8,0.0,1.0,456.0,502.0,1.0,0,572.0,1
314,314,0.3742290049725173,0.4,1.0,1.0,371.0,895.0,1.0,1,804.0,1
315,315,0.03479546281627388,0.0,0.0,0.0,331.0,739.0,1.0,0,290.0,0
316,316,0.8221690224683383,0.8,1.0,1.0,477.0,820.0,1.0,1,103.0,1
317,317,-0.0786457815719952,-0.1,1.0,0.0,340.0,820.0,0.0,0,210.0,1
318,318,0.5397515653514319,0.5,0.0,0.0,471.0,694.0,0.0,1,245.0,1
319,319,-0.41683949635491635,-0.4,0.0,1.0,406.0,902.0,1.0,0,462.0,1
320,320,-0.352516788752951,-0.4,0.0,1.0,462.0,896.0,1.0,0,312.0,1
321,321,-0.6905992710182097,-0.7,0.0,1.0,451.0,614.0,1.0,0,395.0,1
322,322,0.5374413035740025,0.5,1.0,1.0,341.0,561.0,1.0,1,598.0,1
323,323,-0.813879003056781,-0.8,1.0,0.0,490.0,512.0,0.0,0,338.0,1
324,324,-0.372414338512672,-0.4,0.0,1.0,291.0,871.0,1.0,0,118.0,1
325,325,0.019220462413101824,0.0,1.0,1.0,303.0,626.0,1.0,1,1001.0,1
326,326,0.5344748830154255,0.5,0.0,0.0,363.0,528.0,0.0,1,729.0,1
327,327,0.19010309567661599,0.2,1.0,1.0,271.0,920.0,1.0,1,329.0,1
328,328,-0.1282063731871581,-0.1,1.0,0.0,294.0,669.0,1.0,1,457.0,0
329,329,-0.7809847572411662,-0.8,0.0,1.0,414.0,993.0,1.0,0,93.0,1
330,330,0.06225805428443154,0.1,0.0,0.0,322.0,612.0,1.0,0,1196.0,0
331,331,-0.8249821994520632,-0.8,1.0,0.0,288.0,646.0,0.0,0,346.0,1
332,332,0.8031778233299857,0.8,1.0,1.0,251.0,874.0,1.0,1,175.0,1
333,333,0.004929385296323585,0.0,1.0,1.0,427.0,628.0,1.0,1,455.0,1
334,334,0.763603881967876,0.8,0.0,0.0,345.0,631.0,0.0,1,404.0,1
335,335,0.40911605096664594,0.4,0.0,0.0,418.0,761.0,0.0,1,2181.0,1
336,336,-0.21309130237618945,-0.2,1.0,0.0,347.0,551.0,1.0,1,782.0,0
337,337,-0.1692789731633827,-0.2,1.0,0.0,304.0,557.0,0.0,0,459.0,1
338,338,0.7733429822031387,0.8,1.0,1.0,408.0,949.0,1.0,1,133.0,1
339,339,0.8800044622370783,0.9,1.0,1.0,283.0,562.0,1.0,1,395.0,1
340,340,-0.7887343321962654,-0.8,0.0,1.0,452.0,812.0,1.0,0,376.0,1
341,341,0.5757962518351881,0.6,0.0,0.0,447.0,815.0,1.0,0,108.0,0
342,342,0.571999251652671,0.6,0.0,0.0,339.0,702.0,0.0,1,549.0,1
343,343,0.49809460904310165,0.5,0.0,0.0,259.0,859.0,1.0,0,152.0,0
344,344,0.3070674734955884,0.3,0.0,0.0,312.0,566.0,0.0,1,542.0,1
345,345,0.4919019584226786,0.5,0.0,0.0,304.0,747.0,0.0,1,279.0,1
346,346,-0.2095099812443716,-0.2,1.0,0.0,289.0,626.0,0.0,0,475.0,1
347,347,0.18254840444277087,0.2,0.0,0.0,302.0,675.0,0.0,1,513.0,1
348,348,0.15479142945915603,0.2,1.0,1.0,396.0,618.0,1.0,1,536.0,1
349,349,0.8021334913431301,0.8,1.0,1.0,355.0,561.0,1.0,1,364.0,1
350,350,0.8937483637548199,0.9,1.0,1.0,349.0,781.0,1.0,1,80.0,1
351,351,-0.06046400150934328,-0.1,1.0,0.0,422.0,754.0,1.0,1,604.0,0
352,352,0.27274743281542746,0.3,1.0,1.0,256.0,956.0,1.0,1,-62.0,1
353,353,0.6111015887791683,0.6,1.0,1.0,455.0,676.0,1.0,1,309.0,1
354,354,0.12509658707637572,0.1,0.0,0.0,453.0,820.0,1.0,0,217.0,0
355,355,0.6067841243621429,0.6,1.0,1.0,333.0,919.0,1.0,1,168.0,1
356,356,-0.5074886046301639,-0.5,0.0,1.0,279.0,761.0,1.0,0,290.0,1
357,357,-0.5323197567757736,-0.5,0.0,1.0,395.0,720.0,1.0,0,395.0,1
358,358,0.8834605055545296,0.9,0.0,0.0,355.0,939.0,0.0,1,406.0,1
359,359,-0.042327589363009066,-0.0,0.0,1.0,270.0,736.0,0.0,1,464.0,0
360,360,0.45816487165312114,0.5,0.0,0.0,397.0,616.0,0.0,1,467.0,1
361,361,-0.3683722644657679,-0.4,1.0,0.0,389.0,639.0,0.0,0,282.0,1
362,362,0.541034608565005,0.5,1.0,1.0,349.0,980.0,1.0,1,201.0,1
363,363,0.6836943551809901,0.7,1.0,1.0,332.0,741.0,1.0,1,337.0,1
364,364,0.5751700598748039,0.6,1.0,1.0,381.0,948.0,1.0,1,91.0,1
365,365,0.6662360433788496,0.7,1.0,1.0,495.0,857.0,1.0,1,258.0,1
366,366,-0.08349177405602526,-0.1,1.0,0.0,331.0,780.0,1.0,1,549.0,0
367,367,0.37788029447939053,0.4,1.0,1.0,486.0,722.0,1.0,1,152.0,1
368,368,0.7368563991390858,0.7,0.0,0.0,318.0,784.0,0.0,1,438.0,1
369,369,0.10225026430332551,0.1,0.0,0.0,326.0,987.0,1.0,0,127.0,0
370,370,-0.0786514714427935,-0.1,0.0,1.0,333.0,786.0,1.0,0,331.0,1
371,371,-0.02400181401144641,-0.0,1.0,0.0,365.0,627.0,1.0,1,548.0,0
372,372,-0.19004977862252348,-0.2,1.0,0.0,486.0,575.0,0.0,0,429.0,1
373,373,-0.20026412820337758,-0.2,0.0,1.0,335.0,982.0,1.0,0,53.0,1
374,374,-0.5886157976162595,-0.6,0.0,1.0,462.0,635.0,1.0,0,203.0,1
375,375,0.7706017571169143,0.8,0.0,0.0,410.0,718.0,0.0,1,812.0,1
376,376,-0.1856433632240696,-0.2,1.0,0.0,315.0,900.0,0.0,0,475.0,1
377,377,0.7732553753175239,0.8,1.0,1.0,358.0,850.0,1.0,1,32.0,1
378,378,-0.05815970706421747,-0.1,1.0,0.0,327.0,766.0,0.0,0,547.0,1
379,379,0.08345932850545901,0.1,0.0,0.0,259.0,532.0,1.0,0,999.0,0
380,380,0.694685969334741,0.7,1.0,1.0,493.0,535.0,1.0,1,512.0,1
381,381,-0.40731328655936516,-0.4,1.0,0.0,309.0,926.0,1.0,1,-55.0,0
382,382,0.2338395255146387,0.2,1.0,1.0,434.0,514.0,1.0,1,542.0,1
383,383,0.3261695359695628,0.3,1.0,1.0,286.0,503.0,1.0,1,761.0,1
384,384,-0.4327199340169617,-0.4,1.0,0.0,358.0,921.0,0.0,0,161.0,1
385,385,0.39257082963669443,0.4,1.0,1.0,460.0,877.0,0.0,0,23.0,0
386,386,-0.29100030447015257,-0.3,1.0,0.0,261.0,905.0,0.0,0,414.0,1
387,387,0.6291884614825795,0.6,1.0,1.0,412.0,756.0,1.0,1,222.0,1
388,388,0.6476475985425344,0.6,0.0,0.0,384.0,564.0,0.0,1,502.0,1
389,389,-0.8570354005331962,-0.9,1.0,0.0,374.0,538.0,1.0,1,428.0,0
390,390,-0.6877089136699646,-0.7,1.0,0.0,479.0,910.0,0.0,0,81.0,1
391,391,-0.7723319837521359,-0.8,1.0,0.0,496.0,741.0,0.0,0,263.0,1
392,392,-0.37388305685544965,-0.4,0.0,1.0,422.0,586.0,1.0,0,502.0,1
393,393,-0.8342401552399963,-0.8,0.0,1.0,492.0,719.0,1.0,0,239.0,1
394,394,-0.29076635331212475,-0.3,1.0,0.0,447.0,983.0,0.0,0,110.0,1
395,395,-0.46218022636733475,-0.5,1.0,0.0,345.0,795.0,0.0,0,200.0,1
396,396,-0.04956132232356336,-0.0,0.0,1.0,401.0,665.0,1.0,0,444.0,1
397,397,-0.7591428663593851,-0.8,0.0,1.0,455.0,500.0,1.0,0,245.0,1
398,398,-0.7208778541645708,-0.7,0.0,1.0,370.0,761.0,1.0,0,669.0,1
399,399,-0.6139015670573968,-0.6,1.0,0.0,272.0,789.0,0.0,0,239.0,1
400,400,0.2966364693842295,0.3,1.0,1.0,297.0,674.0,1.0,1,339.0,1
401,401,0.32313882607255506,0.3,0.0,0.0,253.0,628.0,0.0,1,449.0,1
402,402,-0.14768115745478583,-0.1,0.0,1.0,282.0,565.0,1.0,0,863.0,1
403,403,-0.7843106320143364,-0.8,0.0,1.0,481.0,908.0,1.0,0,271.0,1
404,404,0.8103096136378102,0.8,1.0,1.0,285.0,605.0,1.0,1,360.0,1
405,405,-0.8979140339273832,-0.9,1.0,0.0,285.0,783.0,0.0,0,202.0,1
406,406,-0.6331223980635061,-0.6,0.0,1.0,482.0,726.0,1.0,0,472.0,1
407,407,-0.5016550821295235,-0.5,1.0,0.0,325.0,914.0,1.0,1,-59.0,0
408,408,0.5602037016549365,0.6,1.0,1.0,439.0,668.0,1.0,1,273.0,1
409,409,0.8167153652822666,0.8,0.0,0.0,298.0,536.0,0.0,1,646.0,1
410,410,-0.5841177494208157,-0.6,0.0,1.0,292.0,586.0,1.0,0,782.0,1
411,411,-0.1747068314640311,-0.2,1.0,0.0,270.0,796.0,0.0,0,204.0,1
412,412,-0.32520199114062,-0.3,0.0,1.0,344.0,649.0,1.0,0,497.0,1
413,413,0.3160336588991951,0.3,1.0,1.0,455.0,526.0,1.0,1,619.0,1
414,414,0.11474499822850304,0.1,0.0,0.0,438.0,715.0,1.0,0,647.0,0
415,415,0.35999233246216444,0.4,1.0,1.0,338.0,692.0,1.0,1,490.0,1
416,416,0.44493084643745096,0.4,0.0,0.0,388.0,771.0,0.0,1,281.0,1
417,417,0.22635603760379597,0.2,1.0,1.0,450.0,525.0,1.0,1,465.0,1
418,418,0.7005622524031453,0.7,0.0,0.0,317.0,902.0,1.0,0,-9.0,0
419,419,-0.8620177864985634,-0.9,0.0,1.0,274.0,664.0,1.0,0,272.0,1
420,420,-0.3287901945694367,-0.3,0.0,1.0,445.0,971.0,0.0,1,-26.0,0
421,421,0.09747976149668158,0.1,0.0,0.0,384.0,627.0,0.0,1,389.0,1
422,422,0.8414588237152273,0.8,0.0,0.0,267.0,573.0,1.0,0,640.0,0
423,423,0.4710176366873712,0.5,0.0,0.0,462.0,935.0,0.0,1,283.0,1
424,424,-0.534954725704011,-0.5,0.0,1.0,344.0,982.0,1.0,0,-16.0,1
425,425,0.22619757338651303,0.2,1.0,1.0,403.0,560.0,1.0,1,467.0,1
426,426,-0.5775103210283778,-0.6,1.0,0.0,382.0,645.0,0.0,0,453.0,1
427,427,-0.27975636660547576,-0.3,0.0,1.0,356.0,515.0,0.0,1,879.0,0
428,428,-0.09496901770198873,-0.1,1.0,0.0,291.0,720.0,0.0,0,689.0,1
429,429,-0.1913279135704915,-0.2,0.0,1.0,447.0,728.0,0.0,1,505.0,0
430,430,-0.13545282597373764,-0.1,0.0,1.0,327.0,855.0,1.0,0,668.0,1
431,431,0.8362256380545502,0.8,0.0,0.0,266.0,828.0,0.0,1,266.0,1
432,432,0.025093764600963908,0.0,0.0,0.0,335.0,793.0,1.0,0,1262.0,0
433,433,0.4498120693082136,0.4,0.0,0.0,314.0,833.0,0.0,1,273.0,1
434,434,-0.1915918534397958,-0.2,1.0,0.0,431.0,809.0,1.0,1,260.0,0
435,435,-0.21678429631924945,-0.2,0.0,1.0,471.0,532.0,1.0,0,357.0,1
436,436,0.19880269141486273,0.2,1.0,1.0,440.0,508.0,1.0,1,562.0,1
437,437,0.8946083718318859,0.9,0.0,0.0,321.0,761.0,0.0,1,448.0,1
438,438,-0.40830919440036745,-0.4,0.0,1.0,368.0,974.0,1.0,0,238.0,1
439,439,0.45042985247452905,0.5,0.0,0.0,304.0,709.0,0.0,1,347.0,1
440,440,0.32909048514835904,0.3,0.0,0.0,462.0,949.0,0.0,1,259.0,1
441,441,0.15086530512024832,0.2,0.0,0.0,341.0,617.0,0.0,1,442.0,1
442,442,0.8597172574988131,0.9,0.0,0.0,369.0,894.0,1.0,0,37.0,0
443,443,-0.5930911057979367,-0.6,1.0,0.0,355.0,712.0,0.0,0,323.0,1
444,444,-0.07275477179624457,-0.1,0.0,1.0,423.0,872.0,1.0,0,445.0,1
445,445,-0.6491403634754591,-0.6,1.0,0.0,344.0,555.0,0.0,0,401.0,1
446,446,0.7093049137265554,0.7,0.0,0.0,266.0,587.0,0.0,1,517.0,1
447,447,-0.7743992248375275,-0.8,1.0,0.0,261.0,905.0,0.0,0,184.0,1
448,448,0.14780457285279314,0.1,0.0,0.0,325.0,868.0,1.0,0,427.0,0
449,449,-0.8126918846720815,-0.8,0.0,1.0,494.0,842.0,1.0,0,204.0,1
450,450,0.3782406206718679,0.4,0.0,0.0,297.0,749.0,0.0,1,374.0,1
451,451,0.049726528787526814,0.0,0.0,0.0,425.0,760.0,1.0,0,355.0,0
452,452,-0.8093168809830572,-0.8,1.0,0.0,354.0,536.0,0.0,0,480.0,1
453,453,-0.043874990939208325,-0.0,0.0,1.0,473.0,508.0,1.0,0,499.0,1
454,454,-0.3001382851124894,-0.3,1.0,0.0,375.0,606.0,0.0,0,689.0,1
455,455,-0.4584826985671861,-0.5,1.0,0.0,265.0,596.0,0.0,0,289.0,1
456,456,0.30682360297160216,0.3,1.0,1.0,313.0,588.0,1.0,1,519.0,1
457,457,-0.8440000304149115,-0.8,0.0,1.0,441.0,561.0,1.0,0,578.0,1
458,458,0.812434844283587,0.8,0.0,0.0,306.0,649.0,0.0,1,395.0,1
459,459,-0.336394605055498,-0.3,1.0,0.0,270.0,571.0,0.0,0,239.0,1
460,460,0.7374853214951521,0.7,1.0,1.0,333.0,662.0,1.0,1,375.0,1
461,461,-0.2839987191227028,-0.3,0.0,1.0,412.0,932.0,1.0,0,116.0,1
462,462,-0.687547357342864,-0.7,0.0,1.0,347.0,618.0,1.0,0,415.0,1
463,463,-0.13480539353630816,-0.1,1.0,0.0,433.0,605.0,1.0,1,482.0,0
464,464,0.8293638395308872,0.8,1.0,1.0,311.0,933.0,1.0,1,126.0,1
465,465,-0.6471616172728725,-0.6,1.0,0.0,336.0,550.0,0.0,0,504.0,1
466,466,-0.06539475850866183,-0.1,0.0,1.0,472.0,923.0,1.0,0,325.0,1
467,467,0.47733207322918425,0.5,1.0,1.0,435.0,993.0,1.0,1,152.0,1
468,468,-0.580556063356118,-0.6,1.0,0.0,495.0,586.0,0.0,0,419.0,1
469,469,-0.4790104322299508,-0.5,1.0,0.0,484.0,770.0,0.0,0,96.0,1
470,470,0.3868846038148218,0.4,0.0,0.0,263.0,771.0,0.0,1,426.0,1
471,471,-0.5807428166858112,-0.6,1.0,0.0,428.0,853.0,0.0,0,159.0,1
472,472,-0.38904039332492635,-0.4,0.0,1.0,420.0,802.0,1.0,0,248.0,1
473,473,-0.7711570669802086,-0.8,1.0,0.0,349.0,770.0,0.0,0,281.0,1
474,474,-0.20550029707608564,-0.2,0.0,1.0,333.0,562.0,1.0,0,465.0,1
475,475,0.4322498456433542,0.4,1.0,1.0,384.0,937.0,0.0,0,-41.0,0
476,476,-0.2518223662458038,-0.3,0.0,1.0,450.0,724.0,0.0,1,526.0,0
477,477,0.5667850790619632,0.6,1.0,1.0,262.0,707.0,1.0,1,161.0,1
478,478,0.8595263112264094,0.9,1.0,1.0,460.0,549.0,1.0,1,721.0,1
479,479,-0.7439913081596121,-0.7,0.0,1.0,314.0,578.0,1.0,0,528.0,1
480,480,-0.8977708140949454,-0.9,0.0,1.0,411.0,679.0,1.0,0,440.0,1
481,481,0.04023356146230339,0.0,1.0,1.0,474.0,867.0,0.0,0,169.0,0
482,482,0.2748294198290594,0.3,0.0,0.0,471.0,996.0,0.0,1,863.0,1
483,483,-0.46428312248277376,-0.5,0.0,1.0,341.0,575.0,1.0,0,414.0,1
484,484,0.8707957152288391,0.9,1.0,1.0,284.0,548.0,1.0,1,688.0,1
485,485,0.7487997413815878,0.7,0.0,0.0,499.0,509.0,0.0,1,662.0,1
486,486,0.06881803367833372,0.1,1.0,1.0,437.0,638.0,1.0,1,835.0,1
487,487,0.756350695055522,0.8,1.0,1.0,380.0,684.0,1.0,1,376.0,1
488,488,-0.4047901234345959,-0.4,0.0,1.0,370.0,758.0,1.0,0,202.0,1
489,489,-0.3037126892405775,-0.3,1.0,0.0,335.0,819.0,0.0,0,176.0,1
490,490,-0.06995207539932258,-0.1,0.0,1.0,359.0,926.0,1.0,0,505.0,1
491,491,-0.4651375612550445,-0.5,1.0,0.0,318.0,687.0,0.0,0,265.0,1
492,492,0.23441976351860216,0.2,0.0,0.0,274.0,634.0,1.0,0,872.0,0
493,493,0.3708533938343871,0.4,1.0,1.0,407.0,643.0,0.0,0,300.0,0
494,494,-0.3953844175298,-0.4,1.0,0.0,446.0,711.0,1.0,1,323.0,0
495,495,0.573878050774182,0.6,0.0,0.0,474.0,948.0,1.0,0,28.0,0
496,496,0.37879849116908393,0.4,1.0,1.0,336.0,537.0,1.0,1,287.0,1
497,497,0.270419151654148,0.3,1.0,1.0,253.0,623.0,1.0,1,624.0,1
498,498,-0.4159303587676966,-0.4,1.0,0.0,395.0,510.0,0.0,0,425.0,1
499,499,0.6040130313084068,0.6,0.0,0.0,264.0,672.0,0.0,1,574.0,1
500,500,-0.06177227836893595,-0.1,1.0,0.0,259.0,624.0,0.0,0,377.0,1
501,501,0.030271897855683627,0.0,0.0,0.0,370.0,951.0,0.0,1,289.0,1
502,502,-0.1323979207500613,-0.1,0.0,1.0,285.0,903.0,1.0,0,582.0,1
503,503,0.5563436662377969,0.6,1.0,1.0,308.0,750.0,1.0,1,212.0,1
504,504,0.41568240082282315,0.4,0.0,0.0,430.0,557.0,0.0,1,603.0,1
505,505,-0.2628699737310817,-0.3,0.0,1.0,277.0,745.0,1.0,0,328.0,1
506,506,0.798801098854285,0.8,0.0,0.0,302.0,607.0,0.0,1,661.0,1
507,507,-0.8509612294220252,-0.9,0.0,1.0,309.0,736.0,1.0,0,235.0,1
508,508,-0.8038547819491508,-0.8,1.0,0.0,251.0,893.0,1.0,1,6.0,0
509,509,-0.038899753934897974,-0.0,0.0,1.0,423.0,842.0,0.0,1,275.0,0
510,510,-0.692866328936952,-0.7,0.0,1.0,387.0,919.0,1.0,0,254.0,1
511,511,0.36318393723789855,0.4,0.0,0.0,407.0,842.0,1.0,0,91.0,0
512,512,0.6599646117358408,0.7,0.0,0.0,297.0,816.0,0.0,1,307.0,1
513,513,-0.8532534324911004,-0.9,0.0,1.0,290.0,778.0,1.0,0,32.0,1
514,514,0.34268797964258846,0.3,1.0,1.0,419.0,842.0,0.0,0,539.0,0
515,515,-0.544847866247558,-0.5,0.0,1.0,472.0,722.0,1.0,0,146.0,1
516,516,-0.14612705644618185,-0.1,1.0,0.0,371.0,874.0,0.0,0,585.0,1
517,517,-0.31322720528330417,-0.3,1.0,0.0,363.0,804.0,0.0,0,743.0,1
518,518,0.22576918239571808,0.2,1.0,1.0,395.0,539.0,1.0,1,646.0,1
519,519,0.1789291307043418,0.2,0.0,0.0,337.0,974.0,1.0,0,399.0,0
520,520,-0.40112865345201126,-0.4,1.0,0.0,423.0,990.0,0.0,0,627.0,1
521,521,-0.06810415841662654,-0.1,0.0,1.0,477.0,720.0,1.0,0,643.0,1
522,522,-0.010584353068163299,-0.0,1.0,0.0,329.0,637.0,1.0,1,1024.0,0
523,523,0.7490696955953661,0.7,0.0,0.0,378.0,609.0,0.0,1,243.0,1
524,524,-0.5511073481458799,-0.6,0.0,1.0,307.0,834.0,1.0,0,439.0,1
525,525,-0.2369845486241986,-0.2,1.0,0.0,288.0,915.0,0.0,0,437.0,1
526,526,-0.35731200166882415,-0.4,0.0,1.0,370.0,769.0,1.0,0,341.0,1
527,527,-0.0888568871165134,-0.1,0.0,1.0,443.0,658.0,1.0,0,289.0,1
528,528,-0.4066433624632879,-0.4,0.0,1.0,454.0,594.0,1.0,0,232.0,1
529,529,-0.023921882121902605,-0.0,0.0,1.0,447.0,622.0,1.0,0,1321.0,1
530,530,0.6702048070934338,0.7,1.0,1.0,350.0,637.0,1.0,1,463.0,1
531,531,-0.51701681346555,-0.5,1.0,0.0,408.0,839.0,1.0,1,-17.0,0
532,532,0.783568227630831,0.8,1.0,1.0,356.0,536.0,1.0,1,458.0,1
533,533,-0.7307723056143897,-0.7,0.0,1.0,343.0,875.0,1.0,0,82.0,1
534,534,0.13774058601075023,0.1,1.0,1.0,253.0,999.0,0.0,0,18.0,0
535,535,-0.637705652335721,-0.6,1.0,0.0,409.0,735.0,0.0,0,306.0,1
536,536,-0.30164478414994844,-0.3,1.0,0.0,432.0,883.0,0.0,0,245.0,1
537,537,-0.2598383203948387,-0.3,0.0,1.0,353.0,849.0,1.0,0,218.0,1
538,538,0.1550892378578389,0.2,1.0,1.0,429.0,911.0,1.0,1,160.0,1
539,539,-0.27974162378016565,-0.3,0.0,1.0,316.0,649.0,1.0,0,575.0,1
540,540,0.8279222158995502,0.8,1.0,1.0,477.0,708.0,1.0,1,175.0,1
541,541,-0.419472399096604,-0.4,1.0,0.0,354.0,613.0,1.0,1,803.0,0
542,542,0.737716085584245,0.7,0.0,0.0,261.0,560.0,0.0,1,349.0,1
543,543,-0.84980832086762,-0.8,0.0,1.0,459.0,890.0,1.0,0,121.0,1
544,544,0.1885994404190764,0.2,1.0,1.0,480.0,918.0,1.0,1,362.0,1
545,545,-0.6346218937702107,-0.6,1.0,0.0,327.0,979.0,0.0,0,134.0,1
546,546,-0.6468499292271668,-0.6,0.0,1.0,326.0,883.0,0.0,1,131.0,0
547,547,0.6525611597888014,0.7,0.0,0.0,340.0,948.0,0.0,1,192.0,1
548,548,0.5158962224940083,0.5,1.0,1.0,268.0,714.0,1.0,1,468.0,1
549,549,-0.29819002704997855,-0.3,0.0,1.0,302.0,746.0,1.0,0,392.0,1
550,550,0.2796318225227702,0.3,1.0,1.0,292.0,836.0,1.0,1,152.0,1
551,551,-0.321555828642353,-0.3,0.0,1.0,310.0,945.0,1.0,0,1145.0,1
552,552,0.7290674862710061,0.7,0.0,0.0,460.0,963.0,0.0,1,187.0,1
553,553,0.13717458792881876,0.1,1.0,1.0,377.0,808.0,1.0,1,465.0,1
554,554,-0.29386078322429265,-0.3,0.0,1.0,422.0,897.0,0.0,1,-69.0,0
555,555,-0.036095956522922745,-0.0,0.0,1.0,495.0,896.0,1.0,0,49.0,1
556,556,-0.5702216233019267,-0.6,0.0,1.0,275.0,529.0,1.0,0,526.0,1
557,557,0.30383936801462796,0.3,0.0,0.0,401.0,610.0,0.0,1,439.0,1
558,558,0.8722151044784531,0.9,0.0,0.0,371.0,982.0,0.0,1,357.0,1
559,559,0.35216813482261367,0.4,0.0,0.0,310.0,594.0,0.0,1,756.0,1
560,560,-0.30637536899371254,-0.3,1.0,0.0,386.0,987.0,1.0,1,107.0,0
561,561,-0.6713044131883656,-0.7,0.0,1.0,355.0,779.0,1.0,0,226.0,1
562,562,0.7729142329325197,0.8,1.0,1.0,454.0,714.0,1.0,1,362.0,1
563,563,0.6428243669637338,0.6,0.0,0.0,361.0,515.0,0.0,1,504.0,1
564,564,0.7716809066267832,0.8,1.0,1.0,431.0,987.0,1.0,1,262.0,1
565,565,0.6180443058761717,0.6,0.0,0.0,282.0,777.0,0.0,1,501.0,1
566,566,0.8668067673124823,0.9,0.0,0.0,350.0,688.0,0.0,1,402.0,1
567,567,-0.41466742180425925,-0.4,0.0,1.0,497.0,958.0,1.0,0,305.0,1
568,568,0.7467596720680146,0.7,0.0,0.0,330.0,863.0,0.0,1,317.0,1
569,569,-0.6702694723298342,-0.7,0.0,1.0,264.0,530.0,1.0,0,546.0,1
570,570,0.44181534514763443,0.4,1.0,1.0,420.0,993.0,1.0,1,197.0,1
571,571,0.2687913710139095,0.3,0.0,0.0,250.0,917.0,0.0,1,183.0,1
572,572,0.8821674072896702,0.9,0.0,0.0,350.0,647.0,0.0,1,563.0,1
573,573,0.23498318877017244,0.2,1.0,1.0,484.0,779.0,1.0,1,357.0,1
574,574,0.7274449103022543,0.7,0.0,0.0,339.0,797.0,0.0,1,1184.0,1
575,575,0.30029666506200725,0.3,1.0,1.0,494.0,672.0,1.0,1,474.0,1
576,576,-0.6405625431334914,-0.6,0.0,1.0,492.0,934.0,1.0,0,94.0,1
577,577,0.7087410184669781,0.7,1.0,1.0,267.0,605.0,1.0,1,468.0,1
578,578,-0.04455444937474051,-0.0,0.0,1.0,440.0,785.0,0.0,1,375.0,0
579,579,0.1202762399079097,0.1,0.0,0.0,254.0,560.0,0.0,1,426.0,1
580,580,0.5951304568611587,0.6,1.0,1.0,302.0,691.0,1.0,1,187.0,1
581,581,-0.03339887138245157,-0.0,0.0,1.0,315.0,696.0,1.0,0,479.0,1
582,582,0.4425392960439737,0.4,1.0,1.0,360.0,815.0,1.0,1,505.0,1
583,583,-0.21926159084020713,-0.2,0.0,1.0,460.0,842.0,1.0,0,428.0,1
584,584,-0.8219171588328393,-0.8,1.0,0.0,344.0,984.0,1.0,1,-78.0,0
585,585,-0.2577713583837873,-0.3,0.0,1.0,324.0,578.0,1.0,0,488.0,1
586,586,-0.8364968212648696,-0.8,1.0,0.0,443.0,910.0,0.0,0,147.0,1
587,587,-0.07558783339170905,-0.1,0.0,1.0,409.0,903.0,1.0,0,98.0,1
588,588,-0.1192921110648626,-0.1,0.0,1.0,382.0,500.0,1.0,0,938.0,1
589,589,-0.7036626898235049,-0.7,1.0,0.0,400.0,683.0,0.0,0,267.0,1
590,590,-0.08592434779284208,-0.1,0.0,1.0,424.0,557.0,1.0,0,619.0,1
591,591,-0.8640604924727292,-0.9,0.0,1.0,436.0,865.0,1.0,0,139.0,1
592,592,-0.481691842473232,-0.5,1.0,0.0,406.0,890.0,0.0,0,24.0,1
593,593,-0.5849630569201327,-0.6,1.0,0.0,491.0,748.0,0.0,0,161.0,1
594,594,0.07572529903414593,0.1,1.0,1.0,479.0,538.0,1.0,1,453.0,1
595,595,-0.6009184574152657,-0.6,0.0,1.0,335.0,748.0,1.0,0,417.0,1
596,596,-0.7354409418862461,-0.7,0.0,1.0,352.0,580.0,1.0,0,398.0,1
597,597,0.18638004830285448,0.2,0.0,0.0,303.0,770.0,0.0,1,407.0,1
598,598,0.5299565556495415,0.5,0.0,0.0,270.0,500.0,1.0,0,480.0,0
599,599,-0.42353279088799317,-0.4,1.0,0.0,252.0,521.0,0.0,0,517.0,1
600,600,0.2353963375548881,0.2,1.0,1.0,399.0,685.0,1.0,1,526.0,1
601,601,0.8107140429343948,0.8,0.0,0.0,326.0,841.0,0.0,1,563.0,1
602,602,0.4120245170941018,0.4,1.0,1.0,412.0,828.0,1.0,1,630.0,1
603,603,0.320847914004292,0.3,0.0,0.0,321.0,608.0,0.0,1,391.0,1
604,604,0.7915619777311343,0.8,1.0,1.0,395.0,960.0,1.0,1,155.0,1
605,605,0.1469010975988153,0.1,0.0,0.0,298.0,992.0,1.0,0,-20.0,0
606,606,0.4264289488344605,0.4,0.0,0.0,333.0,958.0,1.0,0,439.0,0
607,607,0.14595286925084705,0.1,1.0,1.0,342.0,524.0,0.0,0,724.0,0
608,608,0.4344127778249284,0.4,0.0,0.0,384.0,740.0,0.0,1,226.0,1
609,609,0.8721086276459796,0.9,0.0,0.0,433.0,893.0,0.0,1,354.0,1
610,610,-0.8227701474795928,-0.8,0.0,1.0,263.0,716.0,1.0,0,481.0,1
611,611,-0.1859460985100263,-0.2,1.0,0.0,250.0,860.0,1.0,1,440.0,0
612,612,-0.7662108646715272,-0.8,1.0,0.0,393.0,538.0,0.0,0,419.0,1
613,613,-0.1698834524470213,-0.2,1.0,0.0,336.0,630.0,0.0,0,334.0,1
614,614,0.759368988180891,0.8,1.0,1.0,345.0,725.0,1.0,1,280.0,1
615,615,0.015685778757257518,0.0,0.0,0.0,478.0,954.0,1.0,0,28.0,0
616,616,-0.1868054301853599,-0.2,1.0,0.0,344.0,705.0,1.0,1,711.0,0
617,617,0.2739650181277852,0.3,1.0,1.0,477.0,532.0,1.0,1,311.0,1
618,618,0.04445357160412311,0.0,1.0,1.0,448.0,822.0,0.0,0,310.0,0
619,619,-0.16314813513168736,-0.2,1.0,0.0,346.0,618.0,0.0,0,476.0,1
620,620,-0.558286854119125,-0.6,1.0,0.0,349.0,722.0,0.0,0,279.0,1
621,621,0.8587458631172399,0.9,1.0,1.0,344.0,876.0,1.0,1,220.0,1
622,622,0.8618781206410745,0.9,0.0,0.0,392.0,887.0,0.0,1,671.0,1
623,623,-0.685995014345054,-0.7,1.0,0.0,295.0,884.0,0.0,0,611.0,1
624,624,-0.6519926266708695,-0.7,1.0,0.0,328.0,672.0,0.0,0,430.0,1
625,625,0.4443063035747775,0.4,1.0,1.0,356.0,595.0,1.0,1,489.0,1
626,626,0.8866492090613417,0.9,1.0,1.0,453.0,989.0,1.0,1,-162.0,1
627,627,0.5509075957266675,0.6,1.0,1.0,346.0,672.0,1.0,1,292.0,1
628,628,0.41147939061267713,0.4,1.0,1.0,398.0,742.0,1.0,1,60.0,1
629,629,0.26358049275074,0.3,0.0,0.0,276.0,985.0,1.0,0,89.0,0
630,630,-0.15998892266241738,-0.2,0.0,1.0,491.0,708.0,1.0,0,141.0,1
631,631,-0.8492036450297904,-0.8,0.0,1.0,350.0,979.0,0.0,1,171.0,0
632,632,0.11138714861798216,0.1,1.0,1.0,371.0,642.0,1.0,1,227.0,1
633,633,0.7237761348034765,0.7,0.0,0.0,489.0,721.0,0.0,1,180.0,1
634,634,0.8217418035291076,0.8,1.0,1.0,382.0,803.0,1.0,1,355.0,1
635,635,0.29214779089006837,0.3,0.0,0.0,481.0,658.0,0.0,1,801.0,1
636,636,0.4208250067984104,0.4,0.0,0.0,397.0,980.0,0.0,1,463.0,1
637,637,0.7952544215829439,0.8,1.0,1.0,466.0,697.0,1.0,1,287.0,1
638,638,0.7159549027734314,0.7,0.0,0.0,301.0,576.0,0.0,1,333.0,1
639,639,-0.5209297529204959,-0.5,0.0,1.0,432.0,659.0,1.0,0,499.0,1
640,640,-0.6967507974997279,-0.7,1.0,0.0,421.0,830.0,0.0,0,129.0,1
641,641,0.40310198774200356,0.4,1.0,1.0,467.0,950.0,1.0,1,333.0,1
642,642,-0.49027242824231126,-0.5,0.0,1.0,334.0,796.0,1.0,0,470.0,1
643,643,0.7945038126289271,0.8,0.0,0.0,424.0,750.0,0.0,1,266.0,1
644,644,0.27974094750329936,0.3,0.0,0.0,437.0,628.0,0.0,1,945.0,1
645,645,-0.294493262044604,-0.3,1.0,0.0,292.0,522.0,0.0,0,316.0,1
646,646,-0.6393063619334106,-0.6,0.0,1.0,357.0,763.0,1.0,0,300.0,1
647,647,-0.47818845791875114,-0.5,1.0,0.0,466.0,946.0,0.0,0,78.0,1
648,648,-0.6752074172573083,-0.7,1.0,0.0,465.0,804.0,0.0,0,481.0,1
649,649,-0.20383602623400277,-0.2,1.0,0.0,372.0,517.0,0.0,0,611.0,1
650,650,0.15433761587666794,0.2,0.0,0.0,464.0,938.0,1.0,0,288.0,0
651,651,-0.06819687417222753,-0.1,1.0,0.0,404.0,535.0,0.0,0,481.0,1
652,652,-0.6714554422485424,-0.7,0.0,1.0,418.0,958.0,1.0,0,84.0,1
653,653,0.35509926424573723,0.4,1.0,1.0,437.0,630.0,1.0,1,333.0,1
654,654,0.8582760499933625,0.9,1.0,1.0,399.0,659.0,1.0,1,372.0,1
655,655,0.30758142308709113,0.3,1.0,1.0,334.0,700.0,1.0,1,236.0,1
656,656,-0.03642891049528918,-0.0,0.0,1.0,407.0,778.0,1.0,0,265.0,1
657,657,0.7050071457452324,0.7,0.0,0.0,354.0,600.0,0.0,1,1026.0,1
658,658,0.633920201647565,0.6,1.0,1.0,309.0,987.0,1.0,1,-16.0,1
659,659,-0.1494740378837276,-0.1,0.0,1.0,360.0,974.0,1.0,0,96.0,1
660,660,-0.8102398119300169,-0.8,0.0,1.0,377.0,535.0,1.0,0,408.0,1
661,661,-0.2000834071985953,-0.2,0.0,1.0,372.0,920.0,1.0,0,-32.0,1
662,662,0.5742552114582681,0.6,0.0,0.0,348.0,714.0,0.0,1,1158.0,1
663,663,-0.38616014054389836,-0.4,0.0,1.0,382.0,999.0,0.0,1,149.0,0
664,664,0.16237093500850153,0.2,0.0,0.0,476.0,861.0,0.0,1,1413.0,1
665,665,-0.4901818600241128,-0.5,0.0,1.0,365.0,887.0,1.0,0,68.0,1
666,666,-0.45455792267644274,-0.5,1.0,0.0,494.0,748.0,0.0,0,378.0,1
667,667,-0.8868709722264558,-0.9,0.0,1.0,456.0,855.0,1.0,0,249.0,1
668,668,0.13426436896450789,0.1,0.0,0.0,497.0,703.0,0.0,1,520.0,1
669,669,0.5181956555327495,0.5,1.0,1.0,258.0,653.0,1.0,1,499.0,1
670,670,0.6823127460468211,0.7,1.0,1.0,387.0,632.0,1.0,1,361.0,1
671,671,0.09964466084096602,0.1,0.0,0.0,324.0,590.0,0.0,1,466.0,1
672,672,0.11921335477458228,0.1,1.0,1.0,261.0,688.0,1.0,1,501.0,1
673,673,0.31471273360976915,0.3,0.0,0.0,298.0,758.0,0.0,1,344.0,1
674,674,0.7150059884065144,0.7,0.0,0.0,297.0,695.0,0.0,1,448.0,1
675,675,-0.6369050032520611,-0.6,0.0,1.0,374.0,575.0,1.0,0,461.0,1
676,676,0.7143703769170112,0.7,1.0,1.0,276.0,643.0,1.0,1,131.0,1
677,677,-0.4105447413452361,-0.4,1.0,0.0,255.0,639.0,0.0,0,486.0,1
678,678,-0.5975678752746081,-0.6,1.0,0.0,416.0,996.0,0.0,0,298.0,1
679,679,0.18560289909348826,0.2,1.0,1.0,492.0,621.0,1.0,1,507.0,1
680,680,-0.007668750451692463,-0.0,0.0,1.0,318.0,550.0,1.0,0,592.0,1
681,681,-0.5563895010731217,-0.6,1.0,0.0,476.0,548.0,0.0,0,396.0,1
682,682,0.8505797150038833,0.9,0.0,0.0,468.0,821.0,0.0,1,391.0,1
683,683,0.5191952962657312,0.5,1.0,1.0,347.0,865.0,1.0,1,228.0,1
684,684,-0.028387505990921102,-0.0,0.0,1.0,272.0,730.0,1.0,0,378.0,1
685,685,-0.025180476630282778,-0.0,0.0,1.0,498.0,717.0,1.0,0,255.0,1
686,686,-0.733901401356991,-0.7,1.0,0.0,437.0,986.0,1.0,1,-43.0,0
687,687,0.17985189581898064,0.2,0.0,0.0,399.0,899.0,1.0,0,612.0,0
688,688,-0.11518653161309156,-0.1,0.0,1.0,404.0,628.0,1.0,0,508.0,1
689,689,0.23895108150936795,0.2,0.0,0.0,300.0,954.0,0.0,1,1566.0,1
690,690,-0.0800457145673531,-0.1,1.0,0.0,495.0,516.0,1.0,1,429.0,0
691,691,-0.4038745576230711,-0.4,1.0,0.0,267.0,620.0,0.0,0,223.0,1
692,692,-0.7848312346642405,-0.8,1.0,0.0,301.0,693.0,0.0,0,286.0,1
693,693,-0.7967006140928453,-0.8,1.0,0.0,401.0,963.0,0.0,0,176.0,1
694,694,0.8923229175353978,0.9,0.0,0.0,342.0,906.0,0.0,1,102.0,1
695,695,-0.5141653532434068,-0.5,1.0,0.0,330.0,822.0,0.0,0,358.0,1
696,696,-0.024361620235416326,-0.0,0.0,1.0,337.0,949.0,1.0,0,64.0,1
697,697,0.527815854547876,0.5,0.0,0.0,275.0,884.0,1.0,0,171.0,0
698,698,0.580141928658123,0.6,0.0,0.0,453.0,740.0,0.0,1,667.0,1
699,699,0.32405131771352147,0.3,1.0,1.0,252.0,672.0,1.0,1,286.0,1
700,700,-0.5504076111792076,-0.6,0.0,1.0,456.0,791.0,1.0,0,-167.0,1
701,701,-0.41880616520692004,-0.4,1.0,0.0,417.0,951.0,0.0,0,212.0,1
702,702,-0.48681775754365103,-0.5,1.0,0.0,276.0,771.0,1.0,1,163.0,0
703,703,-0.3269389315694503,-0.3,1.0,0.0,456.0,878.0,0.0,0,486.0,1
704,704,0.797147841850462,0.8,1.0,1.0,377.0,868.0,1.0,1,-15.0,1
705,705,-0.7217442240598484,-0.7,0.0,1.0,285.0,676.0,1.0,0,259.0,1
706,706,0.6609185784354498,0.7,1.0,1.0,469.0,733.0,1.0,1,88.0,1
707,707,-0.19419999049800352,-0.2,1.0,0.0,449.0,738.0,1.0,1,593.0,0
708,708,0.13313344256537418,0.1,1.0,1.0,471.0,935.0,1.0,1,-76.0,1
709,709,-0.5792819315441069,-0.6,1.0,0.0,340.0,966.0,0.0,0,74.0,1
710,710,0.23158935208950082,0.2,0.0,0.0,488.0,900.0,1.0,0,282.0,0
711,711,-0.137551352288811,-0.1,0.0,1.0,336.0,845.0,1.0,0,819.0,1
712,712,-0.15089282320055908,-0.2,1.0,0.0,442.0,867.0,1.0,1,331.0,0
713,713,0.45257753497951303,0.5,1.0,1.0,474.0,589.0,0.0,0,347.0,0
714,714,0.37789599566989296,0.4,0.0,0.0,344.0,820.0,0.0,1,1036.0,1
715,715,-0.15365674252233008,-0.2,0.0,1.0,286.0,545.0,1.0,0,1079.0,1
716,716,0.47801381778331986,0.5,0.0,0.0,332.0,881.0,1.0,0,867.0,0
717,717,0.0942607703398225,0.1,0.0,0.0,325.0,549.0,1.0,0,996.0,0
718,718,-0.04389001316813157,-0.0,1.0,0.0,398.0,944.0,0.0,0,-32.0,1
719,719,0.2087972618518229,0.2,0.0,0.0,290.0,526.0,1.0,0,974.0,0
720,720,-0.5366951604740127,-0.5,1.0,0.0,437.0,524.0,0.0,0,399.0,1
721,721,0.8839429153382378,0.9,1.0,1.0,476.0,737.0,1.0,1,207.0,1
722,722,0.29141729596944355,0.3,1.0,1.0,478.0,727.0,1.0,1,275.0,1
723,723,-0.09065128633574027,-0.1,1.0,0.0,383.0,826.0,1.0,1,41.0,0
724,724,-0.05871071013314644,-0.1,0.0,1.0,345.0,663.0,0.0,1,452.0,0
725,725,0.5020923951504613,0.5,0.0,0.0,491.0,627.0,0.0,1,442.0,1
726,726,0.5939284816628471,0.6,0.0,0.0,470.0,611.0,0.0,1,289.0,1
727,727,0.5184622640823172,0.5,1.0,1.0,267.0,928.0,1.0,1,235.0,1
728,728,-0.6004551031803564,-0.6,0.0,1.0,472.0,994.0,1.0,0,664.0,1
729,729,0.06296466165829295,0.1,0.0,0.0,372.0,637.0,1.0,0,581.0,0
730,730,-0.02083819739620063,-0.0,0.0,1.0,483.0,678.0,1.0,0,499.0,1
731,731,-0.6729813674639344,-0.7,0.0,1.0,455.0,555.0,1.0,0,550.0,1
732,732,0.79821480920584,0.8,0.0,0.0,373.0,607.0,0.0,1,280.0,1
733,733,0.7102251254549831,0.7,1.0,1.0,421.0,626.0,1.0,1,613.0,1
734,734,0.08486259070037683,0.1,1.0,1.0,468.0,944.0,1.0,1,-82.0,1
735,735,-0.2669835341900316,-0.3,0.0,1.0,274.0,976.0,1.0,0,-40.0,1
736,736,-0.04823583459623715,-0.0,1.0,0.0,411.0,807.0,1.0,1,32.0,0
737,737,0.5175123815523458,0.5,1.0,1.0,362.0,962.0,1.0,1,266.0,1
738,738,0.3537702329883209,0.4,0.0,0.0,344.0,912.0,1.0,0,304.0,0
739,739,0.6050321969422298,0.6,1.0,1.0,411.0,772.0,1.0,1,397.0,1
740,740,0.8817603739045804,0.9,0.0,0.0,375.0,790.0,0.0,1,215.0,1
741,741,0.6815630765855841,0.7,1.0,1.0,452.0,540.0,1.0,1,258.0,1
742,742,0.5228166920596816,0.5,0.0,0.0,474.0,762.0,1.0,0,294.0,0
743,743,-0.3952083717063637,-0.4,0.0,1.0,294.0,732.0,1.0,0,244.0,1
744,744,-0.6346576478940895,-0.6,1.0,0.0,320.0,819.0,0.0,0,81.0,1
745,745,-0.7090485730564383,-0.7,1.0,0.0,328.0,902.0,0.0,0,50.0,1
746,746,-0.4772654604894306,-0.5,0.0,1.0,400.0,734.0,1.0,0,316.0,1
747,747,0.2555601466425511,0.3,0.0,0.0,384.0,816.0,1.0,0,340.0,0
748,748,0.3296386050643437,0.3,1.0,1.0,317.0,576.0,1.0,1,377.0,1
749,749,0.5201348219347169,0.5,0.0,0.0,452.0,509.0,0.0,1,439.0,1
750,750,0.40696455456454117,0.4,1.0,1.0,268.0,720.0,1.0,1,382.0,1
751,751,0.2348759984217358,0.2,0.0,0.0,494.0,668.0,0.0,1,948.0,1
752,752,0.19554400598014865,0.2,1.0,1.0,373.0,501.0,1.0,1,446.0,1
753,753,-0.32383260334204056,-0.3,1.0,0.0,252.0,827.0,0.0,0,291.0,1
754,754,-0.7986829311253077,-0.8,0.0,1.0,301.0,595.0,1.0,0,494.0,1
755,755,-0.8897496481804699,-0.9,0.0,1.0,470.0,610.0,1.0,0,490.0,1
756,756,0.6787146722002887,0.7,1.0,1.0,394.0,519.0,1.0,1,417.0,1
757,757,0.7785663250170639,0.8,1.0,1.0,475.0,681.0,1.0,1,444.0,1
758,758,-0.07632585248047019,-0.1,1.0,0.0,429.0,765.0,1.0,1,136.0,0
759,759,-0.6564345395691331,-0.7,1.0,0.0,399.0,761.0,0.0,0,450.0,1
760,760,-0.7521540237777626,-0.8,0.0,1.0,346.0,753.0,1.0,0,121.0,1
761,761,-0.6548446814731833,-0.7,0.0,1.0,373.0,561.0,1.0,0,596.0,1
762,762,0.09657037737949736,0.1,1.0,1.0,434.0,818.0,1.0,1,188.0,1
763,763,0.8002769856077924,0.8,1.0,1.0,472.0,705.0,1.0,1,313.0,1
764,764,0.2887990164180473,0.3,0.0,0.0,457.0,958.0,0.0,1,265.0,1
765,765,0.1271201401982408,0.1,1.0,1.0,403.0,943.0,1.0,1,24.0,1
766,766,-0.4749817572369841,-0.5,1.0,0.0,272.0,940.0,0.0,0,138.0,1
767,767,0.6277913752405727,0.6,0.0,0.0,435.0,624.0,0.0,1,731.0,1
768,768,-0.045619625383563234,-0.0,0.0,1.0,274.0,942.0,0.0,1,1244.0,0
769,769,-0.8725019514183526,-0.9,1.0,0.0,347.0,820.0,0.0,0,213.0,1
770,770,-0.8521469892641342,-0.9,0.0,1.0,305.0,807.0,1.0,0,198.0,1
771,771,-0.21554360746077228,-0.2,0.0,1.0,262.0,561.0,1.0,0,537.0,1
772,772,0.36228955553149833,0.4,1.0,1.0,303.0,717.0,1.0,1,200.0,1
773,773,0.458503195243802,0.5,0.0,0.0,443.0,655.0,0.0,1,522.0,1
774,774,0.7726173043199357,0.8,1.0,1.0,397.0,531.0,1.0,1,722.0,1
775,775,0.11460787025213903,0.1,0.0,0.0,282.0,904.0,1.0,0,204.0,0
776,776,0.2655225411723888,0.3,0.0,0.0,307.0,575.0,0.0,1,578.0,1
777,777,-0.5029658609222989,-0.5,0.0,1.0,368.0,550.0,1.0,0,392.0,1
778,778,0.7750598339018263,0.8,1.0,1.0,311.0,584.0,1.0,1,405.0,1
779,779,-0.27431212219153456,-0.3,0.0,1.0,405.0,703.0,1.0,0,322.0,1
780,780,-0.4663758113453175,-0.5,0.0,1.0,291.0,603.0,1.0,0,386.0,1
781,781,-0.8349309679952799,-0.8,0.0,1.0,427.0,836.0,1.0,0,107.0,1
782,782,-0.8347888166946166,-0.8,1.0,0.0,487.0,743.0,0.0,0,290.0,1
783,783,0.892961186382942,0.9,0.0,0.0,304.0,546.0,0.0,1,510.0,1
784,784,-0.49092952271650064,-0.5,1.0,0.0,357.0,687.0,1.0,1,1106.0,0
785,785,0.2385693483781558,0.2,1.0,1.0,274.0,720.0,0.0,0,516.0,0
786,786,0.866040964671624,0.9,1.0,1.0,314.0,584.0,1.0,1,542.0,1
787,787,-0.18407058838333445,-0.2,1.0,0.0,493.0,631.0,1.0,1,856.0,0
788,788,0.382245376294566,0.4,1.0,1.0,346.0,522.0,0.0,0,292.0,0
789,789,0.5452463452252819,0.5,0.0,0.0,276.0,671.0,1.0,0,483.0,0
790,790,-0.7002875693504655,-0.7,1.0,0.0,331.0,713.0,0.0,0,426.0,1
791,791,0.8229087233357816,0.8,1.0,1.0,485.0,701.0,1.0,1,324.0,1
792,792,0.5338454832441689,0.5,1.0,1.0,410.0,937.0,0.0,0,163.0,0
793,793,0.040900713072516415,0.0,1.0,1.0,317.0,735.0,1.0,1,338.0,1
794,794,-0.1910789255216947,-0.2,1.0,0.0,273.0,815.0,0.0,0,362.0,1
795,795,0.7611758263927401,0.8,1.0,1.0,497.0,600.0,1.0,1,423.0,1
796,796,0.07838161410361943,0.1,0.0,0.0,408.0,582.0,0.0,1,960.0,1
797,797,0.2326089515604325,0.2,1.0,1.0,360.0,735.0,1.0,1,485.0,1
798,798,-0.625931081813354,-0.6,0.0,1.0,352.0,542.0,1.0,0,616.0,1
799,799,0.17364859965170176,0.2,1.0,1.0,291.0,856.0,1.0,1,143.0,1
800,800,-0.44940964343640827,-0.4,1.0,0.0,479.0,688.0,1.0,1,223.0,0
801,801,0.6440858520617784,0.6,1.0,1.0,479.0,848.0,1.0,1,273.0,1
802,802,0.6109975513766938,0.6,0.0,0.0,417.0,990.0,0.0,1,373.0,1
803,803,0.7665698325122178,0.8,1.0,1.0,255.0,516.0,1.0,1,569.0,1
804,804,0.6581356805477793,0.7,1.0,1.0,476.0,557.0,1.0,1,327.0,1
805,805,-0.13558392384235052,-0.1,1.0,0.0,435.0,662.0,1.0,1,283.0,0
806,806,0.3289736127332107,0.3,1.0,1.0,420.0,527.0,1.0,1,483.0,1
807,807,-0.2837855221283566,-0.3,1.0,0.0,438.0,795.0,0.0,0,1237.0,1
808,808,-0.7759728982301599,-0.8,0.0,1.0,323.0,764.0,1.0,0,103.0,1
809,809,0.6332186383163648,0.6,1.0,1.0,314.0,782.0,1.0,1,264.0,1
810,810,-0.1966178392739013,-0.2,1.0,0.0,266.0,517.0,0.0,0,327.0,1
811,811,0.5966260370706852,0.6,0.0,0.0,476.0,594.0,0.0,1,1170.0,1
812,812,-0.28855691137219064,-0.3,0.0,1.0,391.0,862.0,1.0,0,207.0,1
813,813,0.2786129614008134,0.3,1.0,1.0,497.0,950.0,0.0,0,53.0,0
814,814,-0.4482899289412369,-0.4,0.0,1.0,302.0,728.0,1.0,0,260.0,1
815,815,0.7485266668803522,0.7,0.0,0.0,273.0,512.0,0.0,1,635.0,1
816,816,0.10977727859875819,0.1,0.0,0.0,411.0,844.0,0.0,1,115.0,1
817,817,-0.7112208111882858,-0.7,0.0,1.0,427.0,900.0,1.0,0,43.0,1
818,818,0.4011658285376002,0.4,0.0,0.0,324.0,726.0,1.0,0,310.0,0
819,819,0.8141561420025846,0.8,1.0,1.0,482.0,620.0,1.0,1,468.0,1
820,820,-0.13122397753548076,-0.1,0.0,1.0,361.0,905.0,1.0,0,144.0,1
821,821,0.5781088540964235,0.6,0.0,0.0,318.0,787.0,0.0,1,405.0,1
822,822,-0.09889503125935128,-0.1,1.0,0.0,290.0,921.0,1.0,1,119.0,0
823,823,-0.7292412286862789,-0.7,0.0,1.0,295.0,539.0,1.0,0,356.0,1
824,824,-0.6316123047917616,-0.6,1.0,0.0,375.0,967.0,1.0,1,148.0,0
825,825,-0.3155569969784141,-0.3,0.0,1.0,264.0,643.0,1.0,0,503.0,1
826,826,-0.12456406384520724,-0.1,0.0,1.0,356.0,519.0,1.0,0,505.0,1
827,827,-0.08309648129601743,-0.1,0.0,1.0,440.0,810.0,1.0,0,610.0,1
828,828,0.19170364211340674,0.2,0.0,0.0,411.0,680.0,1.0,0,339.0,0
829,829,0.40453037528384617,0.4,1.0,1.0,253.0,573.0,1.0,1,614.0,1
830,830,0.39266164037721885,0.4,1.0,1.0,359.0,790.0,1.0,1,261.0,1
831,831,0.2696626871940965,0.3,0.0,0.0,403.0,691.0,0.0,1,1216.0,1
832,832,0.677299204273275,0.7,1.0,1.0,480.0,913.0,1.0,1,17.0,1
833,833,0.1476350217195227,0.1,0.0,0.0,325.0,815.0,1.0,0,130.0,0
834,834,-0.5359960463919777,-0.5,1.0,0.0,306.0,859.0,0.0,0,245.0,1
835,835,0.6181285767875518,0.6,1.0,1.0,255.0,711.0,1.0,1,334.0,1
836,836,0.7195756742454519,0.7,1.0,1.0,435.0,769.0,1.0,1,376.0,1
837,837,0.8818968306257114,0.9,1.0,1.0,488.0,970.0,1.0,1,-38.0,1
838,838,-0.36489810959398494,-0.4,1.0,0.0,354.0,999.0,0.0,0,37.0,1
839,839,0.22437484651109385,0.2,1.0,1.0,331.0,901.0,1.0,1,158.0,1
840,840,-0.6563866454614742,-0.7,1.0,0.0,276.0,897.0,0.0,0,107.0,1
841,841,0.783354437680753,0.8,1.0,1.0,405.0,590.0,1.0,1,245.0,1
842,842,0.0950113969567642,0.1,1.0,1.0,373.0,619.0,0.0,0,608.0,0
843,843,-0.5300233056555945,-0.5,1.0,0.0,312.0,749.0,0.0,0,239.0,1
844,844,-0.18968090306293062,-0.2,1.0,0.0,425.0,952.0,0.0,0,183.0,1
845,845,-0.5919132092950472,-0.6,0.0,1.0,491.0,944.0,1.0,0,205.0,1
846,846,0.5950134824776688,0.6,1.0,1.0,370.0,744.0,1.0,1,346.0,1
847,847,-0.5504245523955194,-0.6,0.0,1.0,444.0,927.0,1.0,0,119.0,1
848,848,0.060085794658033875,0.1,0.0,0.0,344.0,505.0,0.0,1,411.0,1
849,849,-0.4494848092187806,-0.4,1.0,0.0,309.0,506.0,0.0,0,395.0,1
850,850,-0.12538082806805761,-0.1,0.0,1.0,284.0,560.0,1.0,0,526.0,1
851,851,0.44842998055822403,0.4,1.0,1.0,446.0,804.0,1.0,1,380.0,1
852,852,0.6223847487490072,0.6,1.0,1.0,368.0,765.0,1.0,1,227.0,1
853,853,-0.36981498940217505,-0.4,0.0,1.0,364.0,637.0,1.0,0,319.0,1
854,854,-0.5152072892252045,-0.5,0.0,1.0,348.0,665.0,1.0,0,497.0,1
855,855,-0.7450214842052928,-0.7,0.0,1.0,410.0,802.0,1.0,0,248.0,1
856,856,-0.4120362650891623,-0.4,1.0,0.0,413.0,574.0,0.0,0,353.0,1
857,857,0.24253231496625471,0.2,0.0,0.0,405.0,798.0,0.0,1,467.0,1
858,858,-0.19877834174231357,-0.2,1.0,0.0,370.0,548.0,0.0,0,1232.0,1
859,859,-0.776315314520465,-0.8,0.0,1.0,421.0,777.0,1.0,0,102.0,1
860,860,-0.7723714608362148,-0.8,1.0,0.0,336.0,509.0,0.0,0,515.0,1
861,861,-0.7035097058913129,-0.7,0.0,1.0,452.0,695.0,1.0,0,363.0,1
862,862,0.7841327546371456,0.8,0.0,0.0,489.0,651.0,1.0,0,910.0,0
863,863,-0.09628040962811768,-0.1,1.0,0.0,322.0,835.0,1.0,1,843.0,0
864,864,0.6893500205639517,0.7,1.0,1.0,341.0,595.0,1.0,1,404.0,1
865,865,0.7589668094223577,0.8,1.0,1.0,283.0,807.0,1.0,1,220.0,1
866,866,-0.6282708036423825,-0.6,0.0,1.0,259.0,593.0,1.0,0,348.0,1
867,867,-0.5845146491353322,-0.6,1.0,0.0,360.0,961.0,0.0,0,199.0,1
868,868,0.4585762556797609,0.5,1.0,1.0,382.0,782.0,1.0,1,176.0,1
869,869,0.39069146957509704,0.4,1.0,1.0,425.0,697.0,1.0,1,538.0,1
870,870,0.6445967663843991,0.6,1.0,1.0,386.0,866.0,1.0,1,148.0,1
871,871,0.7644820694605233,0.8,1.0,1.0,494.0,820.0,1.0,1,216.0,1
872,872,-0.03188435631662523,-0.0,1.0,0.0,463.0,549.0,0.0,0,338.0,1
873,873,-0.7439682444076355,-0.7,1.0,0.0,347.0,954.0,0.0,0,379.0,1
874,874,0.43240060132207525,0.4,1.0,1.0,427.0,526.0,1.0,1,447.0,1
875,875,-0.047058381791862613,-0.0,1.0,0.0,438.0,640.0,0.0,0,292.0,1
876,876,0.7983865444549457,0.8,0.0,0.0,264.0,501.0,0.0,1,605.0,1
877,877,-0.3832529665796991,-0.4,1.0,0.0,461.0,910.0,0.0,0,149.0,1
878,878,-0.8856961883835776,-0.9,1.0,0.0,410.0,795.0,0.0,0,175.0,1
879,879,0.6197131052993171,0.6,0.0,0.0,303.0,688.0,0.0,1,1129.0,1
880,880,-0.6734273144009544,-0.7,1.0,0.0,288.0,975.0,0.0,0,57.0,1
881,881,-0.06489927193353695,-0.1,1.0,0.0,445.0,753.0,0.0,0,432.0,1
882,882,-0.3158437730427175,-0.3,1.0,0.0,434.0,712.0,0.0,0,514.0,1
883,883,0.11516533542860363,0.1,1.0,1.0,324.0,625.0,1.0,1,471.0,1
884,884,0.00033385888967218946,0.0,0.0,0.0,451.0,696.0,0.0,1,393.0,1
885,885,0.6874740777946456,0.7,0.0,0.0,424.0,653.0,1.0,0,453.0,0
886,886,-0.09186753618268462,-0.1,1.0,0.0,437.0,905.0,1.0,1,-72.0,0
887,887,-0.335034269608644,-0.3,0.0,1.0,456.0,894.0,1.0,0,50.0,1
888,888,-0.6763174766800231,-0.7,1.0,0.0,479.0,835.0,0.0,0,116.0,1
889,889,-0.7914804745861145,-0.8,0.0,1.0,307.0,674.0,1.0,0,489.0,1
890,890,-0.5170098736760251,-0.5,1.0,0.0,287.0,974.0,1.0,1,-71.0,0
891,891,-0.7686805249974961,-0.8,1.0,0.0,390.0,791.0,0.0,0,189.0,1
892,892,0.21335771567242479,0.2,1.0,1.0,265.0,681.0,1.0,1,504.0,1
893,893,-0.1904476218071065,-0.2,1.0,0.0,252.0,824.0,0.0,0,324.0,1
894,894,0.0882603174278932,0.1,0.0,0.0,487.0,794.0,1.0,0,329.0,0
895,895,0.35274038736869595,0.4,0.0,0.0,349.0,986.0,1.0,0,135.0,0
896,896,0.0038710797202050617,0.0,1.0,1.0,412.0,779.0,0.0,0,489.0,0
897,897,0.0010746625104169905,0.0,1.0,1.0,373.0,626.0,1.0,1,441.0,1
898,898,-0.6448863873384558,-0.6,0.0,1.0,402.0,898.0,1.0,0,230.0,1
899,899,0.3613252516672828,0.4,1.0,1.0,331.0,810.0,1.0,1,229.0,1
900,900,-0.29362478403906156,-0.3,0.0,1.0,378.0,722.0,1.0,0,310.0,1
901,901,-0.49785338235411253,-0.5,1.0,0.0,368.0,941.0,0.0,0,1.0,1
902,902,0.5351189727971725,0.5,1.0,1.0,328.0,880.0,1.0,1,152.0,1
903,903,0.40513683177727666,0.4,0.0,0.0,264.0,881.0,1.0,0,255.0,0
904,904,0.2960636374068467,0.3,0.0,0.0,271.0,954.0,1.0,0,115.0,0
905,905,0.4064991677517339,0.4,0.0,0.0,472.0,715.0,0.0,1,683.0,1
906,906,-0.304964356818759,-0.3,1.0,0.0,428.0,930.0,1.0,1,652.0,0
907,907,0.5005662245648129,0.5,0.0,0.0,312.0,610.0,0.0,1,648.0,1
908,908,-0.8376007762001441,-0.8,0.0,1.0,387.0,622.0,1.0,0,331.0,1
909,909,-0.6316068535154249,-0.6,0.0,1.0,436.0,834.0,1.0,0,210.0,1
910,910,-0.22770370335982215,-0.2,1.0,0.0,469.0,941.0,1.0,1,60.0,0
911,911,0.6148464113212936,0.6,0.0,0.0,350.0,829.0,0.0,1,421.0,1
912,912,0.4554190673310342,0.5,1.0,1.0,301.0,641.0,1.0,1,238.0,1
913,913,0.7317269930039069,0.7,1.0,1.0,415.0,820.0,1.0,1,165.0,1
914,914,0.7011365239252586,0.7,0.0,0.0,331.0,652.0,0.0,1,327.0,1
915,915,0.7429007889583515,0.7,1.0,1.0,448.0,798.0,1.0,1,174.0,1
916,916,-0.11649145200270261,-0.1,0.0,1.0,402.0,930.0,1.0,0,878.0,1
917,917,-0.4224060155264744,-0.4,0.0,1.0,347.0,915.0,1.0,0,308.0,1
918,918,-0.33239671807014093,-0.3,0.0,1.0,362.0,790.0,1.0,0,238.0,1
919,919,-0.8602158683079653,-0.9,0.0,1.0,301.0,638.0,1.0,0,251.0,1
920,920,-0.532017720235531,-0.5,1.0,0.0,275.0,710.0,0.0,0,225.0,1
921,921,0.6808177017826481,0.7,1.0,1.0,455.0,636.0,1.0,1,399.0,1
922,922,0.7394883652995664,0.7,1.0,1.0,313.0,768.0,1.0,1,279.0,1
923,923,-0.7165130252030378,-0.7,1.0,0.0,484.0,850.0,1.0,1,66.0,0
924,924,0.0026478476231865944,0.0,1.0,1.0,290.0,544.0,1.0,1,566.0,1
925,925,0.039109538518327325,0.0,0.0,0.0,325.0,739.0,1.0,0,266.0,0
926,926,0.4909981594127687,0.5,0.0,0.0,411.0,643.0,0.0,1,446.0,1
927,927,0.22141120961488758,0.2,1.0,1.0,288.0,923.0,1.0,1,389.0,1
928,928,-0.34192615635589163,-0.3,1.0,0.0,322.0,695.0,1.0,1,533.0,0
929,929,-0.1801818734415177,-0.2,0.0,1.0,312.0,873.0,1.0,0,695.0,1
930,930,0.8799408696432723,0.9,0.0,0.0,278.0,689.0,0.0,1,273.0,1
931,931,0.6115183431466017,0.6,0.0,0.0,468.0,991.0,0.0,1,271.0,1
932,932,0.8385090760264847,0.8,0.0,0.0,481.0,555.0,0.0,1,1504.0,1
933,933,-0.49137110106059056,-0.5,1.0,0.0,306.0,553.0,0.0,0,471.0,1
934,934,-0.3935119600332929,-0.4,1.0,0.0,464.0,539.0,0.0,0,627.0,1
935,935,0.11268670031115369,0.1,1.0,1.0,337.0,912.0,1.0,1,81.0,1
936,936,-0.07190973208387597,-0.1,1.0,0.0,358.0,601.0,1.0,1,521.0,0
937,937,-0.7379114119474892,-0.7,0.0,1.0,356.0,549.0,1.0,0,385.0,1
938,938,-0.4844274095636857,-0.5,1.0,0.0,403.0,589.0,0.0,0,458.0,1
939,939,0.054035590807074985,0.1,0.0,0.0,255.0,642.0,1.0,0,693.0,0
940,940,-0.3736640611144276,-0.4,1.0,0.0,259.0,597.0,0.0,0,514.0,1
941,941,0.0028997810145969805,0.0,1.0,1.0,273.0,659.0,0.0,0,498.0,0
942,942,0.7775537839151657,0.8,1.0,1.0,299.0,535.0,1.0,1,506.0,1
943,943,-0.2288381291256294,-0.2,1.0,0.0,484.0,624.0,0.0,0,812.0,1
944,944,0.7941507864675518,0.8,0.0,0.0,274.0,593.0,0.0,1,283.0,1
945,945,0.15387096919747034,0.2,0.0,0.0,331.0,979.0,1.0,0,250.0,0
946,946,0.5198551826604875,0.5,1.0,1.0,415.0,852.0,1.0,1,393.0,1
947,947,0.5550586467496409,0.6,1.0,1.0,439.0,556.0,1.0,1,435.0,1
948,948,-0.03025235732541498,-0.0,0.0,1.0,400.0,715.0,1.0,0,835.0,1
949,949,0.3409301895516318,0.3,1.0,1.0,273.0,711.0,1.0,1,436.0,1
950,950,0.11084583539733239,0.1,1.0,1.0,469.0,618.0,0.0,0,353.0,0
951,951,-0.5510086485074278,-0.6,0.0,1.0,341.0,555.0,1.0,0,604.0,1
952,952,-0.8593646341751724,-0.9,1.0,0.0,321.0,767.0,0.0,0,362.0,1
953,953,-0.4868547521601486,-0.5,0.0,1.0,340.0,899.0,1.0,0,311.0,1
954,954,0.4894787929300234,0.5,1.0,1.0,300.0,557.0,1.0,1,683.0,1
955,955,-0.694835357414282,-0.7,0.0,1.0,329.0,568.0,1.0,0,293.0,1
956,956,0.27553507188105886,0.3,1.0,1.0,267.0,896.0,1.0,1,377.0,1
957,957,-0.35385051302168213,-0.4,1.0,0.0,347.0,985.0,0.0,0,618.0,1
958,958,0.4883749615827818,0.5,1.0,1.0,440.0,753.0,1.0,1,297.0,1
959,959,-0.6233143431515471,-0.6,0.0,1.0,347.0,949.0,1.0,0,324.0,1
960,960,0.2347373421311888,0.2,1.0,1.0,276.0,502.0,1.0,1,582.0,1
961,961,-0.28083827284052043,-0.3,0.0,1.0,424.0,863.0,1.0,0,113.0,1
962,962,-0.33378972427787634,-0.3,0.0,1.0,394.0,739.0,1.0,0,267.0,1
963,963,-0.13109307437890572,-0.1,1.0,0.0,299.0,614.0,1.0,1,337.0,0
964,964,0.0964165424650878,0.1,1.0,1.0,414.0,986.0,1.0,1,100.0,1
965,965,-0.8069880720207016,-0.8,1.0,0.0,360.0,788.0,0.0,0,382.0,1
966,966,0.6036538998914315,0.6,1.0,1.0,479.0,974.0,0.0,0,-163.0,0
967,967,-0.006408995936522666,-0.0,1.0,0.0,255.0,623.0,1.0,1,972.0,0
968,968,0.8917955353409383,0.9,0.0,0.0,289.0,897.0,0.0,1,174.0,1
969,969,-0.7327233177886626,-0.7,1.0,0.0,331.0,947.0,0.0,0,102.0,1
970,970,0.5180167590457364,0.5,1.0,1.0,452.0,922.0,1.0,1,176.0,1
971,971,0.14078145915845763,0.1,0.0,0.0,422.0,784.0,1.0,0,184.0,0
972,972,0.06031975982695059,0.1,1.0,1.0,380.0,605.0,1.0,1,275.0,1
973,973,0.30661023884541205,0.3,0.0,0.0,319.0,801.0,1.0,0,340.0,0
974,974,0.08931806072593229,0.1,1.0,1.0,319.0,560.0,0.0,0,211.0,0
975,975,0.15890405500143323,0.2,1.0,1.0,294.0,504.0,0.0,0,692.0,0
976,976,-0.7911384773031335,-0.8,0.0,1.0,252.0,535.0,1.0,0,303.0,1
977,977,0.43981617624443714,0.4,1.0,1.0,464.0,810.0,1.0,1,376.0,1
978,978,-0.8937920264777971,-0.9,1.0,0.0,287.0,813.0,0.0,0,260.0,1
979,979,-0.2435306867077388,-0.2,1.0,0.0,257.0,566.0,1.0,1,1027.0,0
980,980,-0.6559727987101287,-0.7,1.0,0.0,300.0,552.0,0.0,0,468.0,1
981,981,-0.13072968078317238,-0.1,0.0,1.0,256.0,654.0,1.0,0,550.0,1
982,982,-0.5263950997234927,-0.5,0.0,1.0,359.0,682.0,1.0,0,329.0,1
983,983,0.13089316773715376,0.1,0.0,0.0,261.0,894.0,1.0,0,645.0,0
984,984,-0.3849865893844048,-0.4,1.0,0.0,389.0,766.0,0.0,0,375.0,1
985,985,-0.6400562543775433,-0.6,0.0,1.0,386.0,979.0,1.0,0,205.0,1
986,986,0.1458930702672342,0.1,0.0,0.0,341.0,830.0,1.0,0,1029.0,0
987,987,0.09990555979155757,0.1,1.0,1.0,434.0,555.0,1.0,1,701.0,1
988,988,0.48946784066607163,0.5,0.0,0.0,295.0,772.0,1.0,0,283.0,0
989,989,-0.05903579824473981,-0.1,0.0,1.0,342.0,734.0,0.0,1,284.0,0
990,990,-0.3969796481193596,-0.4,1.0,0.0,281.0,733.0,0.0,0,276.0,1
991,991,0.7556081338199255,0.8,0.0,0.0,440.0,951.0,0.0,1,539.0,1
992,992,-0.8501454119954931,-0.9,1.0,0.0,380.0,847.0,0.0,0,343.0,1
993,993,-0.4257870636162963,-0.4,1.0,0.0,322.0,778.0,0.0,0,100.0,1
994,994,-0.8832051517909227,-0.9,0.0,1.0,402.0,542.0,1.0,0,316.0,1
995,995,-0.7091522247551836,-0.7,1.0,0.0,355.0,598.0,0.0,0,437.0,1
996,996,-0.012936997072061751,-0.0,0.0,1.0,301.0,591.0,1.0,0,848.0,1
997,997,-0.5438836402799752,-0.5,1.0,0.0,290.0,791.0,0.0,0,549.0,1
998,998,0.2950545785662867,0.3,1.0,1.0,331.0,933.0,0.0,0,576.0,0
999,999,0.2837902764757808,0.3,1.0,1.0,369.0,537.0,1.0,1,454.0,1
1000,1000,0.757574902439392,0.8,0.0,0.0,284.0,755.0,0.0,1,341.0,1
1001,1001,-0.3826705636470822,-0.4,1.0,0.0,392.0,750.0,0.0,0,88.0,1
1002,1002,0.5017502570780731,0.5,0.0,0.0,288.0,935.0,1.0,0,157.0,0
1003,1003,0.85801627256319,0.9,1.0,1.0,271.0,910.0,1.0,1,-11.0,1
1004,1004,-0.714515393327822,-0.7,0.0,1.0,421.0,785.0,1.0,0,244.0,1
1005,1005,0.41784272882538576,0.4,0.0,0.0,322.0,569.0,0.0,1,679.0,1
1006,1006,0.8205259461628419,0.8,0.0,0.0,486.0,883.0,0.0,1,251.0,1
1007,1007,0.8891899581054049,0.9,0.0,0.0,423.0,836.0,0.0,1,611.0,1
1008,1008,0.013082159318433595,0.0,1.0,1.0,465.0,536.0,0.0,0,979.0,0
1009,1009,0.329394911174438,0.3,0.0,0.0,273.0,676.0,0.0,1,491.0,1
1010,1010,0.668943157189617,0.7,1.0,1.0,403.0,618.0,1.0,1,479.0,1
1011,1011,0.19339270500801786,0.2,0.0,0.0,350.0,985.0,1.0,0,25.0,0
1012,1012,-0.17598296833691052,-0.2,1.0,0.0,382.0,994.0,0.0,0,74.0,1
1013,1013,-0.29665585803084416,-0.3,1.0,0.0,426.0,753.0,0.0,0,371.0,1
1014,1014,-0.583723837705112,-0.6,0.0,1.0,495.0,617.0,1.0,0,548.0,1
1015,1015,-0.047731210063926,-0.0,0.0,1.0,489.0,944.0,1.0,0,147.0,1
1016,1016,-0.17919348579238514,-0.2,1.0,0.0,406.0,582.0,0.0,0,802.0,1
1017,1017,-0.4381299705349344,-0.4,0.0,1.0,339.0,869.0,1.0,0,532.0,1
1018,1018,-0.46483288856798166,-0.5,0.0,1.0,387.0,789.0,1.0,0,344.0,1
1019,1019,0.6491619216313281,0.6,0.0,0.0,490.0,772.0,0.0,1,378.0,1
1020,1020,-0.12776315041981823,-0.1,0.0,1.0,454.0,680.0,1.0,0,1196.0,1
1021,1021,0.05819277140600865,0.1,1.0,1.0,457.0,533.0,1.0,1,620.0,1
1022,1022,-0.5274715704994941,-0.5,0.0,1.0,447.0,978.0,1.0,0,175.0,1
1023,1023,0.7899438812073635,0.8,1.0,1.0,278.0,617.0,1.0,1,355.0,1
1024,1024,0.7844786803491463,0.8,0.0,0.0,371.0,768.0,0.0,1,231.0,1
1025,1025,-0.3857357350654286,-0.4,1.0,0.0,300.0,998.0,1.0,1,52.0,0
1026,1026,-0.35253269140768084,-0.4,0.0,1.0,336.0,765.0,1.0,0,289.0,1
1027,1027,-0.3670707627671199,-0.4,0.0,1.0,474.0,737.0,1.0,0,259.0,1
1028,1028,-0.7981159802015387,-0.8,0.0,1.0,478.0,500.0,1.0,0,342.0,1
1029,1029,0.7130251748740634,0.7,1.0,1.0,360.0,675.0,1.0,1,285.0,1
1030,1030,0.3794171111529502,0.4,1.0,1.0,264.0,965.0,1.0,1,381.0,1
1031,1031,0.5832395514902323,0.6,1.0,1.0,439.0,831.0,1.0,1,260.0,1
1032,1032,-0.15024195221117453,-0.2,0.0,1.0,353.0,549.0,1.0,0,628.0,1
1033,1033,-0.347136969741622,-0.3,1.0,0.0,437.0,649.0,0.0,0,754.0,1
1034,1034,-0.7154345671234308,-0.7,1.0,0.0,456.0,692.0,0.0,0,182.0,1
1035,1035,-0.5556416095587273,-0.6,0.0,1.0,339.0,779.0,1.0,0,252.0,1
1036,1036,0.3281428629340394,0.3,0.0,0.0,336.0,994.0,1.0,0,-30.0,0
1037,1037,-0.4487751342589973,-0.4,0.0,1.0,277.0,898.0,1.0,0,195.0,1
1038,1038,-0.7567472514295766,-0.8,0.0,1.0,435.0,781.0,1.0,0,404.0,1
1039,1039,-0.7917157652172186,-0.8,1.0,0.0,398.0,880.0,0.0,0,92.0,1
1040,1040,-0.6723277418656801,-0.7,0.0,1.0,377.0,519.0,1.0,0,374.0,1
1041,1041,-0.38632380713665604,-0.4,0.0,1.0,310.0,519.0,1.0,0,1081.0,1
1042,1042,-0.8394961858019719,-0.8,0.0,1.0,496.0,920.0,1.0,0,324.0,1
1043,1043,-0.5183282016609132,-0.5,0.0,1.0,446.0,844.0,1.0,0,230.0,1
1044,1044,-0.8676473642081324,-0.9,0.0,1.0,497.0,560.0,1.0,0,383.0,1
1045,1045,0.49680885085288906,0.5,1.0,1.0,288.0,630.0,1.0,1,592.0,1
1046,1046,-0.30192390182425377,-0.3,1.0,0.0,293.0,924.0,0.0,0,383.0,1
1047,1047,0.27927339677222063,0.3,1.0,1.0,443.0,886.0,1.0,1,211.0,1
1048,1048,0.5842670129500346,0.6,1.0,1.0,476.0,632.0,1.0,1,342.0,1
1049,1049,0.3388838247180891,0.3,1.0,1.0,461.0,750.0,1.0,1,459.0,1
1050,1050,0.059797267471327964,0.1,0.0,0.0,389.0,713.0,1.0,0,778.0,0
1051,1051,0.828418017631466,0.8,0.0,0.0,396.0,777.0,0.0,1,407.0,1
1052,1052,0.46222648561891855,0.5,0.0,0.0,458.0,945.0,1.0,0,67.0,0
1053,1053,-0.6910401621719342,-0.7,1.0,0.0,469.0,536.0,0.0,0,545.0,1
1054,1054,0.6686013419405966,0.7,1.0,1.0,340.0,829.0,0.0,0,-9.0,0
1055,1055,-0.3365862365057428,-0.3,0.0,1.0,460.0,648.0,1.0,0,402.0,1
1056,1056,-0.48906128283485706,-0.5,0.0,1.0,328.0,885.0,1.0,0,297.0,1
1057,1057,0.521134768378298,0.5,0.0,0.0,283.0,922.0,1.0,0,-5.0,0
1058,1058,-0.17355593577624462,-0.2,1.0,0.0,305.0,749.0,1.0,1,256.0,0
1059,1059,0.08478674685976928,0.1,1.0,1.0,268.0,995.0,1.0,1,97.0,1
1060,1060,-0.26433668612127326,-0.3,1.0,0.0,439.0,501.0,0.0,0,640.0,1
1061,1061,0.894452673169558,0.9,1.0,1.0,484.0,652.0,1.0,1,444.0,1
1062,1062,0.6032761081733374,0.6,1.0,1.0,448.0,860.0,1.0,1,232.0,1
1063,1063,-0.885329784922249,-0.9,1.0,0.0,461.0,794.0,0.0,0,195.0,1
1064,1064,-0.28429771936132553,-0.3,1.0,0.0,347.0,863.0,0.0,0,1260.0,1
1065,1065,-0.7180892716713769,-0.7,0.0,1.0,311.0,596.0,1.0,0,313.0,1
1066,1066,-0.08140043762491855,-0.1,1.0,0.0,479.0,817.0,1.0,1,784.0,0
1067,1067,-0.04701758397202904,-0.0,1.0,0.0,435.0,940.0,0.0,0,685.0,1
1068,1068,-0.3016873797144437,-0.3,1.0,0.0,330.0,814.0,0.0,0,136.0,1
1069,1069,-0.40361061166469375,-0.4,0.0,1.0,395.0,725.0,1.0,0,410.0,1
1070,1070,0.09485249087411629,0.1,1.0,1.0,413.0,954.0,0.0,0,73.0,0
1071,1071,-0.28162575883266194,-0.3,0.0,1.0,400.0,526.0,0.0,1,794.0,0
1072,1072,0.40493203850976334,0.4,1.0,1.0,465.0,998.0,1.0,1,-13.0,1
1073,1073,-0.7127667614696398,-0.7,1.0,0.0,268.0,956.0,0.0,0,216.0,1
1074,1074,0.6064303523745244,0.6,0.0,0.0,256.0,702.0,0.0,1,512.0,1
1075,1075,-0.6917160176332648,-0.7,0.0,1.0,355.0,728.0,1.0,0,197.0,1
1076,1076,0.34054718559531205,0.3,1.0,1.0,430.0,990.0,1.0,1,730.0,1
1077,1077,0.08919841888474256,0.1,1.0,1.0,448.0,533.0,0.0,0,709.0,0
1078,1078,-0.8872493169728116,-0.9,1.0,0.0,309.0,760.0,0.0,0,221.0,1
1079,1079,-0.28986858377244007,-0.3,0.0,1.0,467.0,997.0,1.0,0,206.0,1
1080,1080,-0.2443714523214895,-0.2,1.0,0.0,436.0,725.0,0.0,0,399.0,1
1081,1081,0.2209837391981041,0.2,1.0,1.0,270.0,967.0,1.0,1,73.0,1
1082,1082,-0.7600700096429784,-0.8,0.0,1.0,316.0,924.0,1.0,0,80.0,1
1083,1083,0.32083663232580817,0.3,1.0,1.0,297.0,627.0,1.0,1,876.0,1
1084,1084,0.647590817700142,0.6,0.0,0.0,315.0,547.0,1.0,0,698.0,0
1085,1085,0.6857596133679785,0.7,0.0,0.0,305.0,854.0,0.0,1,51.0,1
1086,1086,0.38899204777709084,0.4,1.0,1.0,266.0,608.0,1.0,1,556.0,1
1087,1087,0.23004912585117088,0.2,1.0,1.0,347.0,693.0,1.0,1,350.0,1
1088,1088,-0.8990957194133904,-0.9,0.0,1.0,355.0,771.0,1.0,0,384.0,1
1089,1089,-0.1849573834207382,-0.2,1.0,0.0,334.0,964.0,1.0,1,52.0,0
1090,1090,-0.42448613559895737,-0.4,0.0,1.0,337.0,762.0,1.0,0,381.0,1
1091,1091,0.4195070124750412,0.4,1.0,1.0,350.0,797.0,1.0,1,313.0,1
1092,1092,-0.37994132044064366,-0.4,0.0,1.0,261.0,793.0,1.0,0,386.0,1
1093,1093,0.596432481017663,0.6,1.0,1.0,426.0,629.0,1.0,1,435.0,1
1094,1094,-0.1848758455254923,-0.2,1.0,0.0,310.0,794.0,0.0,0,586.0,1
1095,1095,0.0005842925417730571,0.0,1.0,1.0,331.0,699.0,0.0,0,190.0,0
1096,1096,-0.46351407142694256,-0.5,1.0,0.0,310.0,923.0,1.0,1,237.0,0
1097,1097,-0.7657484983479171,-0.8,0.0,1.0,349.0,759.0,1.0,0,82.0,1
1098,1098,0.5502066546889249,0.6,1.0,1.0,304.0,868.0,1.0,1,118.0,1
1099,1099,-0.7255642819514098,-0.7,0.0,1.0,415.0,968.0,1.0,0,187.0,1
1100,1100,0.22533001577487888,0.2,0.0,0.0,388.0,685.0,1.0,0,307.0,0
1101,1101,0.445128623250712,0.4,1.0,1.0,499.0,571.0,1.0,1,550.0,1
1102,1102,-0.21112281152704837,-0.2,0.0,1.0,411.0,871.0,1.0,0,108.0,1
1103,1103,0.13944445600691846,0.1,0.0,0.0,471.0,961.0,1.0,0,88.0,0
1104,1104,-0.600546035719262,-0.6,1.0,0.0,413.0,515.0,0.0,0,602.0,1
1105,1105,0.26645052269868985,0.3,1.0,1.0,254.0,666.0,1.0,1,650.0,1
1106,1106,-0.6296895285151783,-0.6,1.0,0.0,492.0,745.0,0.0,0,443.0,1
1107,1107,0.44969297903647,0.4,1.0,1.0,416.0,698.0,1.0,1,336.0,1
1108,1108,-0.656740957709239,-0.7,0.0,1.0,342.0,677.0,1.0,0,351.0,1
1109,1109,0.740049248263226,0.7,1.0,1.0,360.0,555.0,1.0,1,475.0,1
1110,1110,0.44487751393145925,0.4,0.0,0.0,254.0,781.0,0.0,1,425.0,1
1111,1111,-0.617832510389817,-0.6,1.0,0.0,299.0,657.0,0.0,0,424.0,1
1112,1112,-0.03694044398791008,-0.0,1.0,0.0,253.0,644.0,0.0,0,373.0,1
1113,1113,0.5370585608366026,0.5,0.0,0.0,360.0,796.0,0.0,1,194.0,1
1114,1114,0.829399587833337,0.8,0.0,0.0,337.0,679.0,0.0,1,354.0,1
1115,1115,0.3986195355278094,0.4,0.0,0.0,266.0,651.0,0.0,1,733.0,1
1116,1116,-0.8928864584244898,-0.9,0.0,1.0,497.0,741.0,1.0,0,362.0,1
1117,1117,-0.07011265336466888,-0.1,1.0,0.0,372.0,918.0,0.0,0,120.0,1
1118,1118,-0.34610218982032603,-0.3,1.0,0.0,348.0,757.0,0.0,0,235.0,1
1119,1119,-0.6754550701863973,-0.7,0.0,1.0,398.0,720.0,1.0,0,292.0,1
1120,1120,0.0739475254561408,0.1,1.0,1.0,446.0,765.0,1.0,1,439.0,1
1121,1121,0.39348451308134813,0.4,0.0,0.0,287.0,988.0,1.0,0,15.0,0
1122,1122,-0.494463052898679,-0.5,0.0,1.0,324.0,575.0,1.0,0,501.0,1
1123,1123,0.18508170293007697,0.2,0.0,0.0,457.0,764.0,1.0,0,1199.0,0
1124,1124,0.16950871220069075,0.2,0.0,0.0,381.0,642.0,1.0,0,627.0,0
1125,1125,-0.3508905664466254,-0.4,1.0,0.0,392.0,774.0,1.0,1,314.0,0
1126,1126,0.003155018569869328,0.0,1.0,1.0,436.0,795.0,1.0,1,419.0,1
1127,1127,-0.7396032007187906,-0.7,1.0,0.0,444.0,873.0,0.0,0,593.0,1
1128,1128,-0.16992389153437926,-0.2,1.0,0.0,357.0,565.0,0.0,0,268.0,1
1129,1129,0.8523508431453105,0.9,1.0,1.0,351.0,850.0,1.0,1,249.0,1
1130,1130,0.563380304204412,0.6,0.0,0.0,312.0,563.0,0.0,1,375.0,1
1131,1131,-0.24314072791386987,-0.2,0.0,1.0,413.0,580.0,1.0,0,577.0,1
1132,1132,-0.04157871862307705,-0.0,0.0,1.0,473.0,927.0,1.0,0,140.0,1
1133,1133,0.3379165211531251,0.3,1.0,1.0,286.0,904.0,0.0,0,190.0,0
1134,1134,-0.08037819102925325,-0.1,1.0,0.0,261.0,609.0,1.0,1,220.0,0
1135,1135,-0.49333602412586847,-0.5,1.0,0.0,404.0,984.0,0.0,0,12.0,1
1136,1136,0.04016922638074749,0.0,0.0,0.0,381.0,730.0,0.0,1,499.0,1
1137,1137,-0.6234233690701261,-0.6,0.0,1.0,255.0,818.0,1.0,0,327.0,1
1138,1138,-0.7612724292773223,-0.8,0.0,1.0,455.0,671.0,1.0,0,384.0,1
1139,1139,-0.2774057759993763,-0.3,1.0,0.0,480.0,712.0,1.0,1,648.0,0
1140,1140,0.35743552830333647,0.4,1.0,1.0,334.0,552.0,0.0,0,954.0,0
1141,1141,-0.545284214366974,-0.5,1.0,0.0,252.0,668.0,0.0,0,630.0,1
1142,1142,-0.11917821158761399,-0.1,1.0,0.0,396.0,668.0,0.0,0,546.0,1
1143,1143,-0.5312492446102528,-0.5,0.0,1.0,323.0,904.0,1.0,0,233.0,1
1144,1144,-0.23047274624162273,-0.2,1.0,0.0,290.0,902.0,0.0,0,648.0,1
1145,1145,0.6044629402158489,0.6,0.0,0.0,454.0,689.0,0.0,1,127.0,1
1146,1146,-0.2860994998418329,-0.3,1.0,0.0,423.0,570.0,0.0,0,477.0,1
1147,1147,-0.3693599674515555,-0.4,1.0,0.0,308.0,726.0,1.0,1,536.0,0
1148,1148,-0.17374452387653727,-0.2,0.0,1.0,386.0,775.0,1.0,0,359.0,1
1149,1149,0.43105690744032665,0.4,0.0,0.0,394.0,571.0,0.0,1,1625.0,1
1150,1150,-0.3789380482308382,-0.4,1.0,0.0,465.0,991.0,0.0,0,-206.0,1
1151,1151,0.645268972310091,0.6,1.0,1.0,475.0,930.0,1.0,1,225.0,1
1152,1152,-0.11655764698237026,-0.1,0.0,1.0,368.0,914.0,1.0,0,148.0,1
1153,1153,0.3299417139812938,0.3,1.0,1.0,420.0,898.0,1.0,1,132.0,1
1154,1154,-0.09032632675576624,-0.1,0.0,1.0,358.0,823.0,1.0,0,109.0,1
1155,1155,-0.6194435650305536,-0.6,1.0,0.0,336.0,871.0,1.0,1,3.0,0
1156,1156,-0.33743986493866984,-0.3,1.0,0.0,322.0,766.0,0.0,0,342.0,1
1157,1157,0.8369239094637021,0.8,0.0,0.0,253.0,809.0,0.0,1,308.0,1
1158,1158,-0.7495437007894952,-0.7,1.0,0.0,419.0,767.0,0.0,0,124.0,1
1159,1159,-0.41890205353987564,-0.4,1.0,0.0,435.0,571.0,0.0,0,364.0,1
1160,1160,0.7415029432116845,0.7,1.0,1.0,404.0,854.0,1.0,1,142.0,1
1161,1161,0.26865563767708445,0.3,0.0,0.0,364.0,675.0,1.0,0,441.0,0
1162,1162,0.19783648658784847,0.2,1.0,1.0,338.0,611.0,1.0,1,381.0,1
1163,1163,0.6549013421225133,0.7,0.0,0.0,428.0,558.0,0.0,1,394.0,1
1164,1164,0.18085285444834553,0.2,1.0,1.0,451.0,884.0,1.0,1,145.0,1
1165,1165,0.37638281876673985,0.4,0.0,0.0,357.0,583.0,0.0,1,770.0,1
1166,1166,0.3611076909605341,0.4,0.0,0.0,271.0,578.0,1.0,0,481.0,0
1167,1167,0.6797935294001692,0.7,0.0,0.0,464.0,683.0,0.0,1,153.0,1
1168,1168,-0.7656670485613614,-0.8,1.0,0.0,433.0,993.0,0.0,0,164.0,1
1169,1169,0.20518466222199783,0.2,0.0,0.0,282.0,505.0,1.0,0,583.0,0
1170,1170,-0.12315096977787487,-0.1,1.0,0.0,425.0,726.0,1.0,1,569.0,0
1171,1171,0.5071805909525132,0.5,1.0,1.0,463.0,631.0,1.0,1,636.0,1
1172,1172,0.5535519087023951,0.6,0.0,0.0,330.0,585.0,0.0,1,915.0,1
1173,1173,-0.5958383205258275,-0.6,0.0,1.0,286.0,892.0,1.0,0,12.0,1
1174,1174,0.347010268442033,0.3,1.0,1.0,466.0,835.0,1.0,1,459.0,1
1175,1175,0.8007143770376947,0.8,1.0,1.0,466.0,735.0,1.0,1,209.0,1
1176,1176,-0.3884682113537091,-0.4,1.0,0.0,260.0,861.0,0.0,0,579.0,1
1177,1177,-0.7742525539392734,-0.8,0.0,1.0,265.0,790.0,1.0,0,485.0,1
1178,1178,0.7005086958472321,0.7,1.0,1.0,365.0,698.0,1.0,1,277.0,1
1179,1179,-0.19708834429186317,-0.2,1.0,0.0,464.0,772.0,1.0,1,624.0,0
1180,1180,-0.19891128460017882,-0.2,1.0,0.0,262.0,748.0,0.0,0,140.0,1
1181,1181,0.8153301088665078,0.8,1.0,1.0,389.0,626.0,1.0,1,225.0,1
1182,1182,0.16541793805125515,0.2,0.0,0.0,324.0,782.0,0.0,1,524.0,1
1183,1183,-0.8983229478553109,-0.9,0.0,1.0,324.0,943.0,1.0,0,213.0,1
1184,1184,0.4501916462505372,0.5,0.0,0.0,333.0,652.0,0.0,1,565.0,1
1185,1185,0.667846126114478,0.7,1.0,1.0,369.0,635.0,1.0,1,496.0,1
1186,1186,0.49199167780547837,0.5,0.0,0.0,329.0,901.0,0.0,1,410.0,1
1187,1187,-0.4609914775262646,-0.5,0.0,1.0,260.0,895.0,1.0,0,215.0,1
1188,1188,-0.44611410216779357,-0.4,1.0,0.0,311.0,773.0,0.0,0,336.0,1
1189,1189,0.7261663747314281,0.7,0.0,0.0,433.0,980.0,1.0,0,-3.0,0
1190,1190,-0.3375842064915776,-0.3,1.0,0.0,315.0,634.0,1.0,1,601.0,0
1191,1191,-0.20252980674287402,-0.2,0.0,1.0,320.0,938.0,1.0,0,52.0,1
1192,1192,-0.011358343866976317,-0.0,0.0,1.0,407.0,905.0,1.0,0,618.0,1
1193,1193,0.8866068759361593,0.9,1.0,1.0,294.0,875.0,1.0,1,231.0,1
1194,1194,0.6425533299906961,0.6,1.0,1.0,371.0,566.0,1.0,1,393.0,1
1195,1195,-0.7742683419333631,-0.8,1.0,0.0,258.0,656.0,0.0,0,156.0,1
1196,1196,-0.4441662236630249,-0.4,0.0,1.0,376.0,541.0,1.0,0,713.0,1
1197,1197,-0.8755613006302357,-0.9,1.0,0.0,411.0,783.0,0.0,0,536.0,1
1198,1198,-0.6326226249080531,-0.6,0.0,1.0,307.0,975.0,1.0,0,248.0,1
1199,1199,0.415875717318975,0.4,1.0,1.0,376.0,982.0,1.0,1,82.0,1
1200,1200,0.03773526598526067,0.0,1.0,1.0,409.0,768.0,0.0,0,203.0,0
1201,1201,-0.27310333766349615,-0.3,1.0,0.0,354.0,785.0,0.0,0,361.0,1
1202,1202,-0.8797282831400285,-0.9,0.0,1.0,487.0,883.0,1.0,0,70.0,1
1203,1203,0.8960423822887734,0.9,0.0,0.0,325.0,691.0,0.0,1,764.0,1
1204,1204,0.7024650996555509,0.7,1.0,1.0,302.0,952.0,1.0,1,86.0,1
1205,1205,-0.7843617214274679,-0.8,0.0,1.0,393.0,516.0,1.0,0,611.0,1
1206,1206,0.15735181643988183,0.2,1.0,1.0,386.0,898.0,1.0,1,146.0,1
1207,1207,0.20016952561284962,0.2,0.0,0.0,379.0,776.0,1.0,0,145.0,0
1208,1208,-0.5354457382883224,-0.5,0.0,1.0,340.0,900.0,1.0,0,120.0,1
1209,1209,0.24273192118172993,0.2,1.0,1.0,310.0,935.0,1.0,1,85.0,1
1210,1210,-0.41255362045504185,-0.4,0.0,1.0,459.0,951.0,1.0,0,480.0,1
1211,1211,-0.26801362278524243,-0.3,0.0,1.0,368.0,624.0,1.0,0,738.0,1
1212,1212,-0.11279396882644543,-0.1,0.0,1.0,380.0,884.0,1.0,0,626.0,1
1213,1213,-0.7768178596656137,-0.8,1.0,0.0,383.0,540.0,0.0,0,447.0,1
1214,1214,-0.6698418121430136,-0.7,0.0,1.0,472.0,646.0,1.0,0,482.0,1
1215,1215,0.06108359950695619,0.1,0.0,0.0,459.0,605.0,1.0,0,396.0,0
1216,1216,0.20926688538191074,0.2,1.0,1.0,306.0,989.0,1.0,1,265.0,1
1217,1217,-0.17477835247054463,-0.2,0.0,1.0,426.0,842.0,1.0,0,422.0,1
1218,1218,0.7278719187104777,0.7,0.0,0.0,404.0,656.0,0.0,1,450.0,1
1219,1219,0.11851807211047916,0.1,0.0,0.0,395.0,712.0,0.0,1,433.0,1
1220,1220,-0.637456997932943,-0.6,0.0,1.0,485.0,589.0,1.0,0,446.0,1
1221,1221,-0.39198218750523595,-0.4,0.0,1.0,372.0,720.0,1.0,0,178.0,1
1222,1222,-0.5120060145523204,-0.5,0.0,1.0,313.0,564.0,1.0,0,433.0,1
1223,1223,0.21881439146297488,0.2,0.0,0.0,372.0,556.0,1.0,0,392.0,0
1224,1224,0.188605685202048,0.2,0.0,0.0,450.0,624.0,1.0,0,586.0,0
1225,1225,0.13133159345663203,0.1,0.0,0.0,481.0,748.0,1.0,0,81.0,0
1226,1226,0.6792910763291516,0.7,0.0,0.0,261.0,850.0,0.0,1,319.0,1
1227,1227,0.7421046682474185,0.7,0.0,0.0,358.0,869.0,0.0,1,113.0,1
1228,1228,-0.19992573590601237,-0.2,0.0,1.0,448.0,912.0,1.0,0,240.0,1
1229,1229,-0.6681004554702427,-0.7,0.0,1.0,405.0,779.0,1.0,0,186.0,1
1230,1230,0.4215556578775238,0.4,0.0,0.0,347.0,614.0,1.0,0,809.0,0
1231,1231,0.7007737946862959,0.7,1.0,1.0,436.0,757.0,1.0,1,247.0,1
1232,1232,-0.21395985657943262,-0.2,0.0,1.0,391.0,613.0,1.0,0,326.0,1
1233,1233,-0.771747498584684,-0.8,0.0,1.0,437.0,794.0,1.0,0,199.0,1
1234,1234,-0.674417423772564,-0.7,0.0,1.0,276.0,640.0,1.0,0,434.0,1
1235,1235,0.3722481890485908,0.4,0.0,0.0,420.0,704.0,0.0,1,1476.0,1
1236,1236,-0.5344132822449215,-0.5,1.0,0.0,418.0,908.0,0.0,0,444.0,1
1237,1237,0.1780802256031978,0.2,0.0,0.0,299.0,608.0,1.0,0,853.0,0
1238,1238,-0.4331385210696307,-0.4,1.0,0.0,368.0,797.0,0.0,0,445.0,1
1239,1239,0.4399968208300945,0.4,1.0,1.0,359.0,888.0,1.0,1,353.0,1
1240,1240,0.5207868368181495,0.5,0.0,0.0,341.0,936.0,0.0,1,223.0,1
1241,1241,0.0826805899209746,0.1,1.0,1.0,419.0,579.0,1.0,1,542.0,1
1242,1242,0.7938896690773244,0.8,1.0,1.0,406.0,677.0,1.0,1,297.0,1
1243,1243,0.5453325139116444,0.5,1.0,1.0,379.0,861.0,1.0,1,210.0,1
1244,1244,-0.6646799774992285,-0.7,1.0,0.0,472.0,734.0,0.0,0,324.0,1
1245,1245,-0.7137988474759928,-0.7,1.0,0.0,295.0,744.0,0.0,0,141.0,1
1246,1246,0.5452362649658541,0.5,1.0,1.0,307.0,547.0,1.0,1,426.0,1
1247,1247,0.8960395314859421,0.9,0.0,0.0,351.0,636.0,0.0,1,1333.0,1
1248,1248,-0.11493498663061852,-0.1,0.0,1.0,311.0,760.0,1.0,0,629.0,1
1249,1249,0.5896506292624638,0.6,1.0,1.0,332.0,538.0,1.0,1,400.0,1
1250,1250,-0.005681512311938475,-0.0,1.0,0.0,260.0,643.0,1.0,1,327.0,0
1251,1251,-0.8826361061945209,-0.9,1.0,0.0,419.0,907.0,0.0,0,134.0,1
1252,1252,0.8300360268522763,0.8,0.0,0.0,365.0,552.0,0.0,1,413.0,1
1253,1253,0.1963701321392145,0.2,0.0,0.0,286.0,612.0,0.0,1,502.0,1
1254,1254,0.39129886002063696,0.4,1.0,1.0,371.0,780.0,0.0,0,229.0,0
1255,1255,0.8610674180144232,0.9,1.0,1.0,351.0,765.0,1.0,1,414.0,1
1256,1256,0.8968029442131281,0.9,0.0,0.0,416.0,954.0,0.0,1,370.0,1
1257,1257,0.3537265579849912,0.4,1.0,1.0,362.0,693.0,1.0,1,395.0,1
1258,1258,-0.8473047876647701,-0.8,1.0,0.0,359.0,958.0,0.0,0,103.0,1
1259,1259,-0.7368140362972639,-0.7,1.0,0.0,447.0,728.0,0.0,0,225.0,1
1260,1260,0.34643618405348897,0.3,1.0,1.0,312.0,565.0,1.0,1,413.0,1
1261,1261,-0.8453359502607929,-0.8,0.0,1.0,253.0,818.0,1.0,0,199.0,1
1262,1262,0.011320599364070039,0.0,1.0,1.0,443.0,800.0,1.0,1,277.0,1
1263,1263,0.6952083581430902,0.7,1.0,1.0,288.0,955.0,1.0,1,257.0,1
1264,1264,-0.4388762070710458,-0.4,0.0,1.0,395.0,835.0,1.0,0,110.0,1
1265,1265,0.8821041878188719,0.9,1.0,1.0,332.0,990.0,1.0,1,-102.0,1
1266,1266,-0.04049311208232187,-0.0,1.0,0.0,344.0,912.0,0.0,0,484.0,1
1267,1267,-0.0947021183032265,-0.1,1.0,0.0,488.0,859.0,1.0,1,113.0,0
1268,1268,-0.6453200922024477,-0.6,0.0,1.0,369.0,578.0,1.0,0,363.0,1
1269,1269,-0.2163416875973323,-0.2,0.0,1.0,499.0,779.0,1.0,0,292.0,1
1270,1270,0.6571573344687066,0.7,0.0,0.0,366.0,973.0,0.0,1,41.0,1
1271,1271,0.6008553553312673,0.6,1.0,1.0,281.0,614.0,1.0,1,385.0,1
1272,1272,0.23422199596076843,0.2,0.0,0.0,476.0,778.0,1.0,0,396.0,0
1273,1273,0.31079340466942973,0.3,0.0,0.0,431.0,570.0,0.0,1,779.0,1
1274,1274,-0.19777126031218883,-0.2,1.0,0.0,380.0,830.0,1.0,1,180.0,0
1275,1275,-0.7022795557057483,-0.7,1.0,0.0,326.0,629.0,0.0,0,425.0,1
1276,1276,-0.333556545144886,-0.3,0.0,1.0,466.0,786.0,0.0,1,438.0,0
1277,1277,0.6969003535123853,0.7,1.0,1.0,450.0,707.0,1.0,1,403.0,1
1278,1278,0.5192460644558364,0.5,1.0,1.0,455.0,881.0,1.0,1,134.0,1
1279,1279,0.8512808320996529,0.9,1.0,1.0,423.0,923.0,1.0,1,74.0,1
1280,1280,-0.4872975482233101,-0.5,0.0,1.0,351.0,991.0,1.0,0,258.0,1
1281,1281,-0.49803088331755363,-0.5,1.0,0.0,494.0,910.0,0.0,0,216.0,1
1282,1282,-0.6188186145611165,-0.6,0.0,1.0,290.0,718.0,1.0,0,452.0,1
1283,1283,0.3565285495844154,0.4,1.0,1.0,498.0,916.0,1.0,1,236.0,1
1284,1284,-0.6323380707520432,-0.6,0.0,1.0,469.0,682.0,1.0,0,319.0,1
1285,1285,-0.39941916683642786,-0.4,0.0,1.0,428.0,711.0,1.0,0,351.0,1
1286,1286,0.4899313644095419,0.5,0.0,0.0,306.0,933.0,0.0,1,161.0,1
1287,1287,-0.6722829486785519,-0.7,0.0,1.0,466.0,849.0,1.0,0,305.0,1
1288,1288,-0.43268494731372215,-0.4,0.0,1.0,305.0,930.0,1.0,0,285.0,1
1289,1289,-0.6405982199639964,-0.6,1.0,0.0,259.0,501.0,0.0,0,620.0,1
1290,1290,-0.4651414652321771,-0.5,1.0,0.0,429.0,826.0,1.0,1,405.0,0
1291,1291,0.6033432223480536,0.6,0.0,0.0,258.0,676.0,0.0,1,466.0,1
1292,1292,-0.017834242886496265,-0.0,1.0,0.0,270.0,785.0,1.0,1,495.0,0
1293,1293,-0.6979778859547104,-0.7,1.0,0.0,258.0,732.0,0.0,0,330.0,1
1294,1294,-0.11175489475713829,-0.1,1.0,0.0,354.0,716.0,1.0,1,280.0,0
1295,1295,-0.7398558721091084,-0.7,0.0,1.0,279.0,988.0,1.0,0,93.0,1
1296,1296,0.7454167285368708,0.7,1.0,1.0,267.0,611.0,1.0,1,462.0,1
1297,1297,0.6846089436665542,0.7,0.0,0.0,388.0,618.0,0.0,1,304.0,1
1298,1298,-0.4719023393841826,-0.5,0.0,1.0,426.0,854.0,1.0,0,360.0,1
1299,1299,-0.46819588077526564,-0.5,0.0,1.0,347.0,840.0,1.0,0,283.0,1
1300,1300,0.4794367563480645,0.5,0.0,0.0,480.0,513.0,0.0,1,737.0,1
1301,1301,-0.8475466377228392,-0.8,1.0,0.0,469.0,776.0,0.0,0,465.0,1
1302,1302,0.5398391009792157,0.5,0.0,0.0,278.0,775.0,1.0,0,117.0,0
1303,1303,0.3415192883441537,0.3,0.0,0.0,398.0,821.0,1.0,0,1091.0,0
1304,1304,-0.3019691520241221,-0.3,0.0,1.0,358.0,716.0,1.0,0,306.0,1
1305,1305,0.398682885312199,0.4,1.0,1.0,255.0,865.0,1.0,1,60.0,1
1306,1306,0.11088426926764405,0.1,1.0,1.0,358.0,574.0,1.0,1,208.0,1
1307,1307,-0.4751652931261158,-0.5,1.0,0.0,284.0,808.0,0.0,0,288.0,1
1308,1308,-0.781902409243674,-0.8,1.0,0.0,439.0,635.0,0.0,0,436.0,1
1309,1309,0.20027992662309602,0.2,1.0,1.0,356.0,579.0,1.0,1,825.0,1
1310,1310,-0.5874786531176945,-0.6,0.0,1.0,314.0,837.0,1.0,0,179.0,1
1311,1311,-0.48593249233451136,-0.5,0.0,1.0,342.0,808.0,1.0,0,390.0,1
1312,1312,-0.2151435641658198,-0.2,0.0,1.0,312.0,743.0,1.0,0,475.0,1
1313,1313,0.6793786671545211,0.7,0.0,0.0,407.0,517.0,0.0,1,606.0,1
1314,1314,0.549066747192435,0.5,1.0,1.0,282.0,551.0,1.0,1,437.0,1
1315,1315,0.5755513330755421,0.6,1.0,1.0,404.0,908.0,0.0,0,8.0,0
1316,1316,0.8686105546700137,0.9,0.0,0.0,390.0,875.0,0.0,1,345.0,1
1317,1317,0.1727711922255316,0.2,1.0,1.0,275.0,815.0,1.0,1,290.0,1
1318,1318,-0.25350069055976365,-0.3,0.0,1.0,422.0,943.0,1.0,0,95.0,1
1319,1319,-0.2890548207590027,-0.3,1.0,0.0,351.0,702.0,1.0,1,267.0,0
1320,1320,0.3910631849873255,0.4,1.0,1.0,327.0,947.0,1.0,1,-4.0,1
1321,1321,0.005367535544746338,0.0,0.0,0.0,293.0,905.0,1.0,0,182.0,0
1322,1322,0.1447714315539289,0.1,1.0,1.0,454.0,828.0,1.0,1,458.0,1
1323,1323,0.5675696372949207,0.6,0.0,0.0,467.0,727.0,1.0,0,666.0,0
1324,1324,0.7977373491124721,0.8,1.0,1.0,287.0,582.0,1.0,1,481.0,1
1325,1325,-0.5951034031728282,-0.6,1.0,0.0,464.0,712.0,0.0,0,244.0,1
1326,1326,-0.5603056846198724,-0.6,1.0,0.0,254.0,758.0,0.0,0,368.0,1
1327,1327,-0.7403085978980397,-0.7,1.0,0.0,298.0,780.0,0.0,0,252.0,1
1328,1328,-0.23958108148815627,-0.2,0.0,1.0,447.0,659.0,1.0,0,624.0,1
1329,1329,0.11030631460598939,0.1,0.0,0.0,462.0,729.0,1.0,0,1149.0,0
1330,1330,-0.3468602230580736,-0.3,0.0,1.0,435.0,735.0,1.0,0,390.0,1
1331,1331,0.7566807297489656,0.8,1.0,1.0,277.0,906.0,1.0,1,167.0,1
1332,1332,0.5296533860021314,0.5,1.0,1.0,444.0,744.0,1.0,1,362.0,1
1333,1333,-0.6369754599105851,-0.6,1.0,0.0,252.0,762.0,0.0,0,346.0,1
1334,1334,-0.3316591825998547,-0.3,0.0,1.0,430.0,649.0,1.0,0,1441.0,1
1335,1335,-0.697375928049241,-0.7,1.0,0.0,403.0,513.0,0.0,0,524.0,1
1336,1336,-0.16843609400715998,-0.2,0.0,1.0,373.0,755.0,1.0,0,352.0,1
1337,1337,-0.636023579310206,-0.6,0.0,1.0,429.0,816.0,1.0,0,325.0,1
1338,1338,-0.6517491413566343,-0.7,0.0,1.0,440.0,901.0,1.0,0,149.0,1
1339,1339,-0.7482936207978634,-0.7,0.0,1.0,381.0,568.0,1.0,0,561.0,1
1340,1340,0.13337101536615237,0.1,0.0,0.0,442.0,851.0,0.0,1,1227.0,1
1341,1341,-0.6299234408873877,-0.6,0.0,1.0,339.0,863.0,1.0,0,-72.0,1
1342,1342,-0.7344254347315392,-0.7,1.0,0.0,409.0,542.0,0.0,0,669.0,1
1343,1343,-0.28647266152150797,-0.3,0.0,1.0,395.0,842.0,0.0,1,233.0,0
1344,1344,-0.5399043949503779,-0.5,1.0,0.0,416.0,572.0,0.0,0,312.0,1
1345,1345,0.22046402624469452,0.2,1.0,1.0,310.0,817.0,1.0,1,203.0,1
1346,1346,-0.339716020598567,-0.3,0.0,1.0,374.0,702.0,1.0,0,314.0,1
1347,1347,0.7484232699572063,0.7,1.0,1.0,271.0,778.0,1.0,1,201.0,1
1348,1348,0.5917290168552897,0.6,1.0,1.0,326.0,696.0,1.0,1,238.0,1
1349,1349,0.18470902691699964,0.2,0.0,0.0,286.0,863.0,0.0,1,281.0,1
1350,1350,0.7063745598834653,0.7,0.0,0.0,377.0,727.0,0.0,1,116.0,1
1351,1351,0.5708693785322098,0.6,1.0,1.0,493.0,740.0,1.0,1,407.0,1
1352,1352,-0.41139943346763214,-0.4,0.0,1.0,257.0,729.0,1.0,0,284.0,1
1353,1353,-0.2907572136029327,-0.3,0.0,1.0,495.0,658.0,0.0,1,827.0,0
1354,1354,0.6988886676011473,0.7,1.0,1.0,302.0,823.0,1.0,1,215.0,1
1355,1355,-0.24641808416440325,-0.2,1.0,0.0,309.0,744.0,0.0,0,387.0,1
1356,1356,0.8872824915553238,0.9,1.0,1.0,427.0,874.0,1.0,1,29.0,1
1357,1357,-0.32536143865645095,-0.3,1.0,0.0,387.0,546.0,0.0,0,907.0,1
1358,1358,-0.060167561216596055,-0.1,0.0,1.0,421.0,809.0,1.0,0,330.0,1
1359,1359,-0.738734827667027,-0.7,1.0,0.0,476.0,596.0,0.0,0,308.0,1
1360,1360,0.8126737092095703,0.8,0.0,0.0,331.0,857.0,0.0,1,402.0,1
1361,1361,-0.37654833155991474,-0.4,1.0,0.0,399.0,774.0,0.0,0,537.0,1
1362,1362,-0.525874819597693,-0.5,1.0,0.0,356.0,765.0,0.0,0,149.0,1
1363,1363,-0.8857107149894288,-0.9,1.0,0.0,265.0,539.0,0.0,0,286.0,1
1364,1364,0.8001622731648416,0.8,1.0,1.0,302.0,541.0,1.0,1,387.0,1
1365,1365,-0.7428775446033886,-0.7,1.0,0.0,470.0,677.0,0.0,0,523.0,1
1366,1366,0.24541428543780885,0.2,0.0,0.0,455.0,794.0,1.0,0,1391.0,0
1367,1367,-0.0726040029949625,-0.1,1.0,0.0,399.0,775.0,1.0,1,416.0,0
1368,1368,0.4089688262081038,0.4,1.0,1.0,385.0,779.0,1.0,1,166.0,1
1369,1369,0.4904467923550332,0.5,1.0,1.0,397.0,799.0,1.0,1,354.0,1
1370,1370,-0.5709315593344011,-0.6,0.0,1.0,396.0,504.0,1.0,0,510.0,1
1371,1371,0.3982917092010706,0.4,0.0,0.0,448.0,978.0,0.0,1,424.0,1
1372,1372,-0.6798933942145301,-0.7,1.0,0.0,472.0,783.0,0.0,0,25.0,1
1373,1373,0.6313819194914053,0.6,1.0,1.0,400.0,912.0,1.0,1,318.0,1
1374,1374,0.2928314197057066,0.3,0.0,0.0,370.0,930.0,0.0,1,300.0,1
1375,1375,0.05259115049369667,0.1,0.0,0.0,471.0,547.0,1.0,0,1722.0,0
1376,1376,0.14102538407665566,0.1,1.0,1.0,303.0,928.0,1.0,1,119.0,1
1377,1377,-0.507165521446707,-0.5,0.0,1.0,380.0,852.0,1.0,0,408.0,1
1378,1378,-0.5533883451988657,-0.6,0.0,1.0,462.0,921.0,1.0,0,97.0,1
1379,1379,0.02039827244810477,0.0,1.0,1.0,250.0,531.0,0.0,0,489.0,0
1380,1380,-0.3066851125090121,-0.3,0.0,1.0,275.0,669.0,1.0,0,356.0,1
1381,1381,-0.26827326214885894,-0.3,0.0,1.0,485.0,726.0,1.0,0,459.0,1
1382,1382,0.2275568608795414,0.2,0.0,0.0,445.0,590.0,1.0,0,825.0,0
1383,1383,-0.11064191642260246,-0.1,0.0,1.0,489.0,624.0,1.0,0,1907.0,1
1384,1384,-0.5488752020436292,-0.5,0.0,1.0,260.0,750.0,1.0,0,400.0,1
1385,1385,-0.6688978163473909,-0.7,0.0,1.0,470.0,848.0,1.0,0,82.0,1
1386,1386,0.7976242570881477,0.8,1.0,1.0,494.0,737.0,1.0,1,429.0,1
1387,1387,0.6419818092862956,0.6,1.0,1.0,468.0,548.0,1.0,1,434.0,1
1388,1388,-0.1931141164540755,-0.2,0.0,1.0,317.0,689.0,0.0,1,424.0,0
1389,1389,-0.28564290917877144,-0.3,0.0,1.0,297.0,954.0,1.0,0,29.0,1
1390,1390,0.1596344745113255,0.2,0.0,0.0,280.0,802.0,1.0,0,598.0,0
1391,1391,-0.8656934207625415,-0.9,0.0,1.0,268.0,599.0,1.0,0,343.0,1
1392,1392,-0.5260914712968869,-0.5,1.0,0.0,323.0,683.0,0.0,0,324.0,1
1393,1393,0.541072850190989,0.5,1.0,1.0,399.0,549.0,1.0,1,562.0,1
1394,1394,-0.34497254788154197,-0.3,1.0,0.0,277.0,830.0,1.0,1,783.0,0
1395,1395,-0.1857451043497892,-0.2,0.0,1.0,267.0,924.0,1.0,0,1159.0,1
1396,1396,0.8373144451213196,0.8,0.0,0.0,399.0,842.0,0.0,1,239.0,1
1397,1397,-0.04209170745809909,-0.0,1.0,0.0,301.0,693.0,0.0,0,396.0,1
1398,1398,0.3838069656831665,0.4,0.0,0.0,391.0,809.0,1.0,0,510.0,0
1399,1399,0.4413812997860588,0.4,0.0,0.0,493.0,859.0,0.0,1,568.0,1
1400,1400,-0.03911223393675545,-0.0,1.0,0.0,331.0,879.0,1.0,1,-70.0,0
1401,1401,-0.5965399797891322,-0.6,0.0,1.0,348.0,845.0,1.0,0,187.0,1
1402,1402,-0.7425576889553241,-0.7,0.0,1.0,399.0,920.0,1.0,0,41.0,1
1403,1403,0.396967205064935,0.4,1.0,1.0,257.0,801.0,1.0,1,242.0,1
1404,1404,0.6464093102359395,0.6,0.0,0.0,265.0,550.0,0.0,1,525.0,1
1405,1405,-0.49421003771402977,-0.5,0.0,1.0,334.0,839.0,1.0,0,147.0,1
1406,1406,-0.3866548577287551,-0.4,0.0,1.0,255.0,624.0,1.0,0,811.0,1
1407,1407,-0.47555342281714386,-0.5,0.0,1.0,397.0,565.0,1.0,0,518.0,1
1408,1408,-0.8402976400917573,-0.8,1.0,0.0,259.0,840.0,0.0,0,181.0,1
1409,1409,0.26740232745810577,0.3,0.0,0.0,435.0,988.0,0.0,1,947.0,1
1410,1410,-0.7478412204832563,-0.7,1.0,0.0,425.0,520.0,0.0,0,365.0,1
1411,1411,-0.6020374675713238,-0.6,0.0,1.0,381.0,685.0,1.0,0,314.0,1
1412,1412,0.6729605877239239,0.7,0.0,0.0,327.0,786.0,0.0,1,307.0,1
1413,1413,-0.5117554343178747,-0.5,0.0,1.0,292.0,788.0,1.0,0,120.0,1
1414,1414,-0.5245062733278787,-0.5,0.0,1.0,466.0,518.0,1.0,0,396.0,1
1415,1415,-0.4121317097793586,-0.4,1.0,0.0,296.0,784.0,0.0,0,140.0,1
1416,1416,-0.06840754919910008,-0.1,0.0,1.0,325.0,690.0,1.0,0,515.0,1
1417,1417,0.3307795477861998,0.3,0.0,0.0,286.0,816.0,0.0,1,348.0,1
1418,1418,0.15500355067541627,0.2,1.0,1.0,482.0,551.0,1.0,1,477.0,1
1419,1419,0.1585163031756428,0.2,0.0,0.0,451.0,860.0,1.0,0,289.0,0
1420,1420,-0.041944795669390356,-0.0,1.0,0.0,289.0,943.0,0.0,0,298.0,1
1421,1421,-0.5993531280993074,-0.6,0.0,1.0,461.0,716.0,1.0,0,283.0,1
1422,1422,-0.5360417213537949,-0.5,1.0,0.0,316.0,871.0,0.0,0,203.0,1
1423,1423,-0.4598274825058713,-0.5,1.0,0.0,275.0,960.0,0.0,0,75.0,1
1424,1424,0.22840649210979003,0.2,1.0,1.0,462.0,750.0,1.0,1,278.0,1
1425,1425,-0.07373572651318983,-0.1,0.0,1.0,285.0,667.0,1.0,0,658.0,1
1426,1426,-0.12275043008026343,-0.1,0.0,1.0,414.0,670.0,1.0,0,566.0,1
1427,1427,-0.5994591693402178,-0.6,1.0,0.0,314.0,620.0,0.0,0,206.0,1
1428,1428,0.6426179648266207,0.6,0.0,0.0,448.0,731.0,0.0,1,261.0,1
1429,1429,0.7674558961926469,0.8,1.0,1.0,429.0,667.0,1.0,1,344.0,1
1430,1430,-0.6269503013475155,-0.6,1.0,0.0,349.0,718.0,0.0,0,213.0,1
1431,1431,-0.6044308220164808,-0.6,1.0,0.0,327.0,658.0,1.0,1,495.0,0
1432,1432,-0.4371745803753503,-0.4,1.0,0.0,353.0,558.0,0.0,0,759.0,1
1433,1433,0.7864987861283087,0.8,1.0,1.0,417.0,708.0,1.0,1,245.0,1
1434,1434,-0.2752758936509786,-0.3,1.0,0.0,333.0,920.0,1.0,1,517.0,0
1435,1435,-0.055549872609588435,-0.1,0.0,1.0,495.0,626.0,1.0,0,989.0,1
1436,1436,0.5298811767155575,0.5,1.0,1.0,421.0,940.0,1.0,1,459.0,1
1437,1437,0.696006124493426,0.7,1.0,1.0,458.0,757.0,1.0,1,95.0,1
1438,1438,-0.10735081409519354,-0.1,1.0,0.0,258.0,760.0,1.0,1,422.0,0
1439,1439,-0.3108484512922103,-0.3,1.0,0.0,321.0,698.0,0.0,0,451.0,1
1440,1440,0.5884581831227967,0.6,0.0,0.0,259.0,942.0,0.0,1,389.0,1
1441,1441,-0.39969703509796395,-0.4,1.0,0.0,423.0,937.0,0.0,0,70.0,1
1442,1442,0.5165730672351768,0.5,0.0,0.0,309.0,940.0,0.0,1,1061.0,1
1443,1443,0.15340963502279148,0.2,1.0,1.0,314.0,650.0,0.0,0,546.0,0
1444,1444,-0.7447200451864351,-0.7,1.0,0.0,367.0,902.0,0.0,0,91.0,1
1445,1445,-0.20231483662593663,-0.2,0.0,1.0,302.0,614.0,1.0,0,724.0,1
1446,1446,0.7899345536873198,0.8,1.0,1.0,255.0,884.0,1.0,1,71.0,1
1447,1447,-0.6232426782236663,-0.6,1.0,0.0,482.0,758.0,0.0,0,260.0,1
1448,1448,-0.03616822890465221,-0.0,0.0,1.0,277.0,576.0,0.0,1,357.0,0
1449,1449,-0.5944250145282575,-0.6,1.0,0.0,355.0,647.0,0.0,0,408.0,1
1450,1450,0.592815401584068,0.6,1.0,1.0,397.0,799.0,1.0,1,104.0,1
1451,1451,-0.7043448299018636,-0.7,1.0,0.0,256.0,708.0,0.0,0,216.0,1
1452,1452,-0.8826854163930883,-0.9,0.0,1.0,250.0,896.0,1.0,0,214.0,1
1453,1453,-0.2180395156261521,-0.2,1.0,0.0,378.0,983.0,0.0,0,309.0,1
1454,1454,-0.09373472197693444,-0.1,0.0,1.0,250.0,786.0,1.0,0,284.0,1
1455,1455,0.6016144769094426,0.6,1.0,1.0,482.0,592.0,1.0,1,286.0,1
1456,1456,-0.2535157768919102,-0.3,0.0,1.0,291.0,724.0,1.0,0,45.0,1
1457,1457,-0.1138847471388752,-0.1,0.0,1.0,320.0,703.0,1.0,0,507.0,1
1458,1458,-0.4109928579621128,-0.4,1.0,0.0,336.0,726.0,0.0,0,208.0,1
1459,1459,-0.6298509758353933,-0.6,0.0,1.0,344.0,781.0,1.0,0,495.0,1
1460,1460,0.14907138137412035,0.1,1.0,1.0,276.0,550.0,1.0,1,514.0,1
1461,1461,-0.2820181297448531,-0.3,0.0,1.0,398.0,633.0,1.0,0,469.0,1
1462,1462,-0.7302765607722153,-0.7,1.0,0.0,353.0,910.0,0.0,0,347.0,1
1463,1463,-0.6967579475538892,-0.7,1.0,0.0,290.0,742.0,0.0,0,228.0,1
1464,1464,-0.2877611446259245,-0.3,0.0,1.0,311.0,642.0,1.0,0,367.0,1
1465,1465,0.8802521124733965,0.9,1.0,1.0,271.0,900.0,1.0,1,589.0,1
1466,1466,-0.03773685163466478,-0.0,1.0,0.0,470.0,773.0,1.0,1,387.0,0
1467,1467,-0.0923851523113085,-0.1,1.0,0.0,318.0,779.0,0.0,0,573.0,1
1468,1468,0.36138511055627165,0.4,1.0,1.0,473.0,581.0,1.0,1,606.0,1
1469,1469,-0.374109303471739,-0.4,1.0,0.0,366.0,560.0,0.0,0,304.0,1
1470,1470,-0.5887912580878292,-0.6,1.0,0.0,495.0,600.0,1.0,1,435.0,0
1471,1471,-0.35867059231722265,-0.4,1.0,0.0,442.0,916.0,0.0,0,402.0,1
1472,1472,-0.8004212780284796,-0.8,0.0,1.0,381.0,661.0,1.0,0,318.0,1
1473,1473,0.8781075955112508,0.9,1.0,1.0,377.0,824.0,1.0,1,159.0,1
1474,1474,0.001423582858026018,0.0,0.0,0.0,425.0,665.0,1.0,0,430.0,0
1475,1475,0.3318397991424208,0.3,0.0,0.0,346.0,658.0,0.0,1,1036.0,1
1476,1476,0.05255461883391488,0.1,1.0,1.0,411.0,981.0,1.0,1,518.0,1
1477,1477,0.3508567687237315,0.4,0.0,0.0,447.0,670.0,1.0,0,593.0,0
1478,1478,-0.24173415393381625,-0.2,0.0,1.0,315.0,744.0,1.0,0,441.0,1
1479,1479,-0.1810531459566832,-0.2,1.0,0.0,495.0,765.0,0.0,0,290.0,1
1480,1480,-0.3219063911798421,-0.3,0.0,1.0,323.0,711.0,1.0,0,176.0,1
1481,1481,0.054435843003605267,0.1,1.0,1.0,412.0,858.0,1.0,1,20.0,1
1482,1482,0.5446053476388321,0.5,1.0,1.0,286.0,677.0,1.0,1,427.0,1
1483,1483,0.8039499856955935,0.8,0.0,0.0,471.0,948.0,0.0,1,271.0,1
1484,1484,-0.7752225674593808,-0.8,1.0,0.0,292.0,547.0,0.0,0,431.0,1
1485,1485,0.018691553134210004,0.0,1.0,1.0,296.0,823.0,1.0,1,291.0,1
1486,1486,-0.43673837337830296,-0.4,0.0,1.0,465.0,561.0,1.0,0,584.0,1
1487,1487,0.06635506294786397,0.1,1.0,1.0,477.0,616.0,1.0,1,497.0,1
1488,1488,0.7289631614002942,0.7,1.0,1.0,270.0,556.0,1.0,1,514.0,1
1489,1489,0.7102051483923159,0.7,1.0,1.0,454.0,594.0,1.0,1,542.0,1
1490,1490,0.4829460945794831,0.5,1.0,1.0,485.0,655.0,1.0,1,580.0,1
1491,1491,-0.0787204589157171,-0.1,1.0,0.0,304.0,552.0,0.0,0,524.0,1
1492,1492,0.6490966601691531,0.6,1.0,1.0,407.0,814.0,1.0,1,59.0,1
1493,1493,0.5324483817430486,0.5,0.0,0.0,411.0,850.0,0.0,1,179.0,1
1494,1494,-0.7909159055614109,-0.8,0.0,1.0,361.0,702.0,1.0,0,467.0,1
