,trial,coherence,coherence_bin,green_side,correct_side,target_onset,checker_onset,decision,green_decision,decision_time,correct_decision
0,0,-0.4690996404469769,-0.5,1.0,0.0,410.0,999.0,0.0,0,-79.0,1
1,1,-0.8880903135631126,-0.9,0.0,1.0,496.0,918.0,1.0,0,286.0,1
2,2,0.35817921331374525,0.4,1.0,1.0,367.0,621.0,1.0,1,632.0,1
3,3,0.6663940463004795,0.7,1.0,1.0,321.0,922.0,1.0,1,577.0,1
4,4,-0.493627912700795,-0.5,1.0,0.0,400.0,539.0,0.0,0,731.0,1
5,5,-0.5590555708284966,-0.6,1.0,0.0,315.0,809.0,0.0,0,346.0,1
6,6,0.6262423136115797,0.6,1.0,1.0,262.0,826.0,1.0,1,342.0,1
7,7,0.010479727867601651,0.0,0.0,0.0,471.0,768.0,0.0,1,581.0,1
8,8,0.8294568820752289,0.8,0.0,0.0,372.0,863.0,0.0,1,275.0,1
9,9,0.2435140740714098,0.2,0.0,0.0,275.0,772.0,0.0,1,493.0,1
10,10,-0.6861669369270615,-0.7,1.0,0.0,401.0,558.0,0.0,0,421.0,1
11,11,-0.2141097566519795,-0.2,0.0,1.0,315.0,548.0,1.0,0,687.0,1
12,12,-0.6693553538170752,-0.7,1.0,0.0,276.0,640.0,0.0,0,244.0,1
13,13,0.7960868399664723,0.8,1.0,1.0,466.0,696.0,1.0,1,538.0,1
14,14,-0.38040287012500273,-0.4,1.0,0.0,487.0,744.0,0.0,0,719.0,1
15,15,-0.7816466193125745,-0.8,1.0,0.0,350.0,598.0,0.0,0,572.0,1
16,16,-0.2651647473347094,-0.3,0.0,1.0,456.0,883.0,1.0,0,391.0,1
17,17,-0.12099826004345826,-0.1,1.0,0.0,317.0,591.0,0.0,0,902.0,1
18,18,0.6501838305171882,0.7,1.0,1.0,461.0,682.0,1.0,1,307.0,1
19,19,0.8674564380080877,0.9,1.0,1.0,341.0,805.0,1.0,1,234.0,1
20,20,0.8242393936844229,0.8,1.0,1.0,345.0,598.0,1.0,1,517.0,1
21,21,0.7275034575295357,0.7,0.0,0.0,435.0,778.0,0.0,1,157.0,1
22,22,-0.24319359779322025,-0.2,1.0,0.0,496.0,700.0,0.0,0,484.0,1
23,23,-0.6971226119089212,-0.7,0.0,1.0,361.0,508.0,1.0,0,521.0,1
24,24,0.3803739018312068,0.4,0.0,0.0,275.0,697.0,0.0,1,518.0,1
25,25,0.8322025678578374,0.8,0.0,0.0,498.0,673.0,0.0,1,399.0,1
26,26,-0.7120169872596979,-0.7,1.0,0.0,299.0,964.0,0.0,0,167.0,1
27,27,0.13923202072997365,0.1,0.0,0.0,270.0,515.0,0.0,1,1155.0,1
28,28,0.4085603997456678,0.4,0.0,0.0,483.0,806.0,0.0,1,191.0,1
29,29,-0.691524720869105,-0.7,1.0,0.0,451.0,813.0,0.0,0,426.0,1
30,30,-0.7994776694445191,-0.8,0.0,1.0,463.0,554.0,1.0,0,463.0,1
31,31,-0.4144155831368233,-0.4,0.0,1.0,257.0,962.0,1.0,0,281.0,1
32,32,0.12622972610395788,0.1,0.0,0.0,309.0,540.0,0.0,1,831.0,1
33,33,0.6511026935646683,0.7,1.0,1.0,437.0,633.0,1.0,1,300.0,1
34,34,0.3938925230391904,0.4,0.0,0.0,373.0,662.0,0.0,1,775.0,1
35,35,0.18826116150370187,0.2,0.0,0.0,271.0,740.0,0.0,1,699.0,1
36,36,0.5384666965798227,0.5,0.0,0.0,443.0,755.0,0.0,1,302.0,1
37,37,-0.39186412237211066,-0.4,1.0,0.0,424.0,923.0,0.0,0,243.0,1
38,38,0.8788932241492468,0.9,1.0,1.0,326.0,522.0,1.0,1,472.0,1
39,39,-0.04214897379518001,-0.0,1.0,0.0,368.0,504.0,0.0,0,588.0,1
40,40,0.4535866406484418,0.5,0.0,0.0,304.0,786.0,0.0,1,520.0,1
41,41,0.6997495600482112,0.7,0.0,0.0,358.0,835.0,0.0,1,307.0,1
42,42,0.718115374663627,0.7,1.0,1.0,390.0,912.0,1.0,1,218.0,1
43,43,0.5477652687378815,0.5,0.0,0.0,327.0,652.0,0.0,1,311.0,1
44,44,0.7230366577531312,0.7,0.0,0.0,496.0,677.0,0.0,1,247.0,1
45,45,0.7971540980629251,0.8,1.0,1.0,464.0,819.0,1.0,1,97.0,1
46,46,0.05513713367706008,0.1,0.0,0.0,443.0,683.0,1.0,0,614.0,0
47,47,0.7113875015468732,0.7,0.0,0.0,362.0,557.0,0.0,1,461.0,1
48,48,-0.8009191390840494,-0.8,1.0,0.0,290.0,797.0,0.0,0,343.0,1
49,49,0.4877656643561076,0.5,0.0,0.0,487.0,706.0,0.0,1,527.0,1
50,50,-0.07440274121997204,-0.1,0.0,1.0,351.0,626.0,1.0,0,1103.0,1
51,51,-0.4398365289130679,-0.4,1.0,0.0,441.0,958.0,0.0,0,211.0,1
52,52,0.885246188540583,0.9,1.0,1.0,329.0,792.0,1.0,1,769.0,1
53,53,0.1344587773196827,0.1,0.0,0.0,423.0,542.0,1.0,0,555.0,0
54,54,-0.6218416243484144,-0.6,1.0,0.0,252.0,700.0,0.0,0,248.0,1
55,55,-0.7842051587979318,-0.8,1.0,0.0,342.0,640.0,0.0,0,448.0,1
56,56,-0.3084822310484723,-0.3,0.0,1.0,422.0,525.0,1.0,0,593.0,1
57,57,0.1583526484375436,0.2,0.0,0.0,437.0,699.0,0.0,1,994.0,1
58,58,0.37412073516065736,0.4,1.0,1.0,483.0,674.0,1.0,1,553.0,1
59,59,-0.5952123766629032,-0.6,1.0,0.0,417.0,830.0,0.0,0,233.0,1
60,60,0.5930811412969462,0.6,1.0,1.0,455.0,529.0,1.0,1,506.0,1
61,61,-0.6461477832386622,-0.6,1.0,0.0,286.0,509.0,0.0,0,605.0,1
62,62,0.0379566721067911,0.0,1.0,1.0,402.0,779.0,1.0,1,979.0,1
63,63,0.6991298800630511,0.7,1.0,1.0,447.0,535.0,1.0,1,438.0,1
64,64,-0.09919904012657166,-0.1,1.0,0.0,458.0,663.0,0.0,0,829.0,1
65,65,0.6978139649175806,0.7,0.0,0.0,348.0,635.0,0.0,1,457.0,1
66,66,-0.4715648145684633,-0.5,1.0,0.0,424.0,522.0,0.0,0,644.0,1
67,67,-0.6790847050318929,-0.7,0.0,1.0,495.0,878.0,1.0,0,287.0,1
68,68,-0.5756784860695346,-0.6,0.0,1.0,478.0,960.0,1.0,0,142.0,1
69,69,-0.7685227095053079,-0.8,0.0,1.0,442.0,697.0,1.0,0,331.0,1
70,70,-0.264981298657319,-0.3,0.0,1.0,368.0,599.0,1.0,0,653.0,1
71,71,-0.38350659756390404,-0.4,1.0,0.0,425.0,511.0,0.0,0,534.0,1
72,72,0.5337549457695457,0.5,0.0,0.0,359.0,616.0,0.0,1,685.0,1
73,73,0.8805163234716765,0.9,0.0,0.0,270.0,686.0,0.0,1,324.0,1
74,74,-0.6500894837499251,-0.7,0.0,1.0,489.0,586.0,1.0,0,385.0,1
75,75,-0.3429936350638577,-0.3,0.0,1.0,325.0,746.0,1.0,0,679.0,1
76,76,0.6599839066249359,0.7,1.0,1.0,480.0,761.0,1.0,1,259.0,1
77,77,-0.5899238416111738,-0.6,0.0,1.0,343.0,783.0,1.0,0,424.0,1
78,78,0.6921734446120907,0.7,0.0,0.0,307.0,900.0,0.0,1,373.0,1
79,79,0.5043188792824008,0.5,0.0,0.0,468.0,856.0,0.0,1,296.0,1
80,80,0.2597205147947329,0.3,0.0,0.0,349.0,920.0,0.0,1,201.0,1
81,81,0.8001663911065048,0.8,1.0,1.0,374.0,904.0,1.0,1,322.0,1
82,82,0.020558745206021523,0.0,0.0,0.0,395.0,517.0,1.0,0,3298.0,0
83,83,-0.11505440380066345,-0.1,0.0,1.0,493.0,704.0,1.0,0,453.0,1
84,84,-0.44654654973828467,-0.4,1.0,0.0,427.0,742.0,0.0,0,681.0,1
85,85,0.2261958594436101,0.2,0.0,0.0,335.0,610.0,0.0,1,1075.0,1
86,86,-0.4879431298146812,-0.5,0.0,1.0,283.0,855.0,1.0,0,262.0,1
87,87,0.29433731508555494,0.3,1.0,1.0,403.0,795.0,1.0,1,482.0,1
88,88,0.894738238113013,0.9,0.0,0.0,459.0,806.0,0.0,1,325.0,1
89,89,-0.015759348387317518,-0.0,0.0,1.0,491.0,846.0,0.0,1,1593.0,0
90,90,-0.5832215009194519,-0.6,1.0,0.0,483.0,671.0,0.0,0,396.0,1
91,91,-0.13483721810542482,-0.1,1.0,0.0,295.0,924.0,0.0,0,561.0,1
92,92,0.8110219984979382,0.8,1.0,1.0,461.0,619.0,1.0,1,400.0,1
93,93,-0.8175388568860433,-0.8,0.0,1.0,445.0,860.0,1.0,0,115.0,1
94,94,-0.7237146906874219,-0.7,0.0,1.0,314.0,671.0,1.0,0,385.0,1
95,95,-0.31229575378930474,-0.3,1.0,0.0,374.0,972.0,0.0,0,294.0,1
96,96,-0.033338882053546626,-0.0,1.0,0.0,326.0,781.0,1.0,1,1823.0,0
97,97,-0.15467911934330536,-0.2,0.0,1.0,464.0,977.0,1.0,0,329.0,1
98,98,0.1416910351222197,0.1,0.0,0.0,364.0,688.0,0.0,1,538.0,1
99,99,0.7316270733492468,0.7,0.0,0.0,421.0,583.0,0.0,1,746.0,1
100,100,0.5374560992333665,0.5,0.0,0.0,398.0,567.0,0.0,1,485.0,1
101,101,0.7324073646287498,0.7,0.0,0.0,296.0,597.0,0.0,1,737.0,1
102,102,-0.0756551895870935,-0.1,1.0,0.0,329.0,686.0,0.0,0,1675.0,1
103,103,0.5399142688485107,0.5,0.0,0.0,291.0,696.0,0.0,1,633.0,1
104,104,-0.7466662762506394,-0.7,1.0,0.0,331.0,755.0,0.0,0,444.0,1
105,105,-0.5788697477229259,-0.6,1.0,0.0,425.0,723.0,0.0,0,352.0,1
106,106,-0.20625283077964052,-0.2,1.0,0.0,340.0,730.0,0.0,0,340.0,1
107,107,-0.13383082325482853,-0.1,1.0,0.0,451.0,838.0,0.0,0,241.0,1
108,108,0.4279081668003618,0.4,0.0,0.0,371.0,739.0,0.0,1,280.0,1
109,109,-0.5464041071630261,-0.5,0.0,1.0,482.0,880.0,1.0,0,478.0,1
110,110,0.03794942718686545,0.0,0.0,0.0,347.0,860.0,1.0,0,2893.0,0
111,111,0.7110372588221573,0.7,1.0,1.0,465.0,552.0,1.0,1,383.0,1
112,112,0.3731577917535739,0.4,1.0,1.0,449.0,769.0,1.0,1,492.0,1
113,113,0.7299961872647373,0.7,0.0,0.0,494.0,627.0,0.0,1,409.0,1
114,114,-0.45811076032224074,-0.5,1.0,0.0,259.0,782.0,0.0,0,179.0,1
115,115,-0.6110413338076246,-0.6,0.0,1.0,376.0,662.0,1.0,0,232.0,1
116,116,-0.8353847846252428,-0.8,0.0,1.0,439.0,945.0,1.0,0,236.0,1
117,117,0.36889566319906264,0.4,0.0,0.0,487.0,913.0,0.0,1,540.0,1
118,118,0.6679760845724215,0.7,1.0,1.0,485.0,955.0,1.0,1,280.0,1
119,119,-0.232203595066926,-0.2,1.0,0.0,498.0,591.0,0.0,0,531.0,1
120,120,-0.5174776818971312,-0.5,0.0,1.0,339.0,506.0,1.0,0,1005.0,1
121,121,-0.6441706666166276,-0.6,1.0,0.0,272.0,521.0,0.0,0,497.0,1
122,122,0.7173145324123661,0.7,1.0,1.0,290.0,834.0,1.0,1,366.0,1
123,123,0.7532986444686619,0.8,1.0,1.0,458.0,706.0,1.0,1,276.0,1
124,124,0.2618601338397505,0.3,1.0,1.0,267.0,836.0,1.0,1,517.0,1
125,125,0.8920091778381455,0.9,1.0,1.0,354.0,708.0,1.0,1,418.0,1
126,126,-0.0734150655110214,-0.1,0.0,1.0,490.0,598.0,1.0,0,812.0,1
127,127,-0.1142421513349744,-0.1,0.0,1.0,305.0,638.0,1.0,0,517.0,1
128,128,-0.4609142529702905,-0.5,0.0,1.0,323.0,805.0,1.0,0,292.0,1
129,129,0.8368501993588681,0.8,0.0,0.0,493.0,543.0,0.0,1,724.0,1
130,130,-0.1470949623783896,-0.1,1.0,0.0,450.0,881.0,0.0,0,1329.0,1
131,131,-0.35491986139081366,-0.4,1.0,0.0,334.0,620.0,0.0,0,416.0,1
132,132,0.7809316432776593,0.8,0.0,0.0,321.0,815.0,0.0,1,304.0,1
133,133,0.5284385705416365,0.5,1.0,1.0,389.0,502.0,1.0,1,619.0,1
134,134,0.3753672111883909,0.4,0.0,0.0,389.0,752.0,0.0,1,469.0,1
135,135,0.6475711406544883,0.6,0.0,0.0,326.0,862.0,0.0,1,472.0,1
136,136,0.4863504197288261,0.5,0.0,0.0,297.0,938.0,0.0,1,365.0,1
137,137,0.044578379820797265,0.0,1.0,1.0,448.0,918.0,1.0,1,1134.0,1
138,138,0.5726077434213354,0.6,0.0,0.0,331.0,881.0,0.0,1,238.0,1
139,139,0.23138816753607327,0.2,0.0,0.0,381.0,902.0,0.0,1,247.0,1
140,140,0.6962528529851649,0.7,1.0,1.0,316.0,834.0,1.0,1,160.0,1
141,141,-0.7632542045781493,-0.8,0.0,1.0,473.0,899.0,1.0,0,298.0,1
142,142,0.8721449578585682,0.9,0.0,0.0,392.0,558.0,0.0,1,540.0,1
143,143,-0.032943339288168505,-0.0,1.0,0.0,360.0,985.0,0.0,0,325.0,1
144,144,-0.6591830300322632,-0.7,0.0,1.0,278.0,664.0,1.0,0,418.0,1
145,145,0.2147042322357572,0.2,0.0,0.0,307.0,906.0,0.0,1,1647.0,1
146,146,-0.4570276962784828,-0.5,0.0,1.0,357.0,937.0,1.0,0,386.0,1
147,147,0.5047801166490969,0.5,0.0,0.0,451.0,536.0,0.0,1,503.0,1
148,148,0.8917246209050093,0.9,0.0,0.0,277.0,540.0,0.0,1,633.0,1
149,149,-0.5681322687050601,-0.6,0.0,1.0,297.0,720.0,1.0,0,413.0,1
150,150,0.4979052485804335,0.5,0.0,0.0,325.0,666.0,0.0,1,719.0,1
151,151,0.06886921668197887,0.1,1.0,1.0,415.0,689.0,1.0,1,836.0,1
152,152,-0.5407729587839949,-0.5,1.0,0.0,499.0,827.0,0.0,0,254.0,1
153,153,0.012463968085160593,0.0,1.0,1.0,367.0,570.0,1.0,1,893.0,1
154,154,0.8418858420437275,0.8,0.0,0.0,385.0,843.0,0.0,1,262.0,1
155,155,0.41301369803550914,0.4,1.0,1.0,335.0,679.0,1.0,1,416.0,1
156,156,0.10168734686116554,0.1,0.0,0.0,389.0,788.0,0.0,1,763.0,1
157,157,0.545132460590141,0.5,0.0,0.0,388.0,717.0,0.0,1,445.0,1
158,158,0.22413766352293873,0.2,0.0,0.0,390.0,631.0,0.0,1,709.0,1
159,159,-0.5340242233904176,-0.5,0.0,1.0,498.0,584.0,1.0,0,998.0,1
160,160,-0.6592427212947992,-0.7,1.0,0.0,445.0,510.0,0.0,0,395.0,1
161,161,0.831308588251375,0.8,1.0,1.0,481.0,539.0,1.0,1,400.0,1
162,162,0.6108695019128957,0.6,1.0,1.0,284.0,884.0,1.0,1,262.0,1
163,163,-0.10863890202341164,-0.1,1.0,0.0,296.0,704.0,0.0,0,920.0,1
164,164,0.1583653854267607,0.2,0.0,0.0,329.0,860.0,1.0,0,661.0,0
165,165,-0.42877147887941874,-0.4,1.0,0.0,310.0,675.0,0.0,0,445.0,1
166,166,0.8353382062349469,0.8,1.0,1.0,319.0,935.0,1.0,1,86.0,1
167,167,-0.35597504811838165,-0.4,1.0,0.0,441.0,984.0,0.0,0,85.0,1
168,168,-0.09714936786360195,-0.1,1.0,0.0,349.0,652.0,0.0,0,1589.0,1
169,169,0.22554756039646529,0.2,0.0,0.0,342.0,910.0,1.0,0,1118.0,0
170,170,-0.8757637133752606,-0.9,0.0,1.0,363.0,623.0,1.0,0,324.0,1
171,171,0.18332618113011356,0.2,0.0,0.0,420.0,952.0,0.0,1,658.0,1
172,172,0.14729625450868855,0.1,1.0,1.0,403.0,821.0,1.0,1,316.0,1
173,173,-0.8208137464546463,-0.8,1.0,0.0,280.0,925.0,0.0,0,75.0,1
174,174,0.45818243205410625,0.5,0.0,0.0,396.0,766.0,0.0,1,608.0,1
175,175,-0.4180536446325509,-0.4,0.0,1.0,364.0,925.0,1.0,0,241.0,1
176,176,-0.6644532780842712,-0.7,0.0,1.0,251.0,855.0,1.0,0,244.0,1
177,177,0.7258540856229373,0.7,1.0,1.0,434.0,954.0,1.0,1,222.0,1
178,178,-0.4225731819991943,-0.4,0.0,1.0,402.0,845.0,1.0,0,303.0,1
179,179,-0.482801137667353,-0.5,1.0,0.0,472.0,968.0,0.0,0,200.0,1
180,180,0.5648655709584095,0.6,0.0,0.0,382.0,512.0,0.0,1,976.0,1
181,181,0.2072529840812357,0.2,0.0,0.0,370.0,712.0,0.0,1,878.0,1
182,182,0.1294679451799311,0.1,0.0,0.0,376.0,506.0,0.0,1,1288.0,1
183,183,-0.25080752813281526,-0.3,0.0,1.0,346.0,936.0,1.0,0,468.0,1
184,184,-0.24673440501612698,-0.2,0.0,1.0,416.0,569.0,1.0,0,635.0,1
185,185,0.6729131132087623,0.7,0.0,0.0,401.0,740.0,0.0,1,289.0,1
186,186,0.039925689336504644,0.0,1.0,1.0,335.0,702.0,1.0,1,493.0,1
187,187,-0.23137957522510522,-0.2,1.0,0.0,495.0,598.0,0.0,0,497.0,1
188,188,-0.26805052038644295,-0.3,1.0,0.0,261.0,838.0,0.0,0,271.0,1
189,189,-0.6621186028879715,-0.7,0.0,1.0,324.0,773.0,1.0,0,363.0,1
190,190,-0.009626221823551995,-0.0,1.0,0.0,374.0,617.0,0.0,0,2009.0,1
191,191,-0.2591229764107008,-0.3,0.0,1.0,299.0,514.0,1.0,0,767.0,1
192,192,-0.6735955772977672,-0.7,1.0,0.0,419.0,603.0,0.0,0,598.0,1
193,193,-0.2662077890808572,-0.3,1.0,0.0,279.0,734.0,0.0,0,287.0,1
194,194,-0.48075729088490365,-0.5,0.0,1.0,257.0,846.0,1.0,0,587.0,1
195,195,0.8782321993877603,0.9,1.0,1.0,415.0,986.0,1.0,1,129.0,1
196,196,0.40476721911975433,0.4,1.0,1.0,491.0,966.0,1.0,1,333.0,1
197,197,0.16279951618404576,0.2,1.0,1.0,291.0,830.0,1.0,1,809.0,1
198,198,0.10364734479372795,0.1,1.0,1.0,363.0,823.0,1.0,1,704.0,1
199,199,-0.0115815889263724,-0.0,0.0,1.0,402.0,529.0,1.0,0,1079.0,1
200,200,0.1932045837888675,0.2,1.0,1.0,313.0,869.0,1.0,1,588.0,1
201,201,0.37578977267199665,0.4,1.0,1.0,495.0,650.0,1.0,1,625.0,1
202,202,0.866989531616856,0.9,0.0,0.0,278.0,706.0,0.0,1,316.0,1
203,203,-0.5531546230787175,-0.6,1.0,0.0,481.0,987.0,0.0,0,142.0,1
204,204,0.5686615007542294,0.6,1.0,1.0,479.0,691.0,1.0,1,370.0,1
205,205,0.6220374334801687,0.6,1.0,1.0,465.0,775.0,1.0,1,220.0,1
206,206,0.5784501840678998,0.6,0.0,0.0,415.0,721.0,0.0,1,904.0,1
207,207,0.6420562403916853,0.6,1.0,1.0,299.0,910.0,1.0,1,211.0,1
208,208,-0.13744682117017482,-0.1,1.0,0.0,456.0,783.0,0.0,0,611.0,1
209,209,-0.7358105552145868,-0.7,0.0,1.0,287.0,848.0,1.0,0,75.0,1
210,210,0.842208043879204,0.8,0.0,0.0,453.0,692.0,0.0,1,635.0,1
211,211,0.056623244363540604,0.1,1.0,1.0,404.0,590.0,1.0,1,846.0,1
212,212,-0.20040945596958126,-0.2,0.0,1.0,442.0,985.0,1.0,0,1263.0,1
213,213,-0.6543445367403871,-0.7,0.0,1.0,417.0,994.0,1.0,0,629.0,1
214,214,-0.6243398506304827,-0.6,1.0,0.0,386.0,878.0,0.0,0,126.0,1
215,215,-0.017264253490643866,-0.0,0.0,1.0,275.0,951.0,1.0,0,1114.0,1
216,216,0.4145142699995078,0.4,0.0,0.0,418.0,660.0,0.0,1,922.0,1
217,217,-0.41754123508537516,-0.4,1.0,0.0,339.0,577.0,0.0,0,524.0,1
218,218,0.4442863652056258,0.4,1.0,1.0,351.0,510.0,1.0,1,559.0,1
219,219,-0.4540525284575355,-0.5,0.0,1.0,255.0,912.0,1.0,0,243.0,1
220,220,0.3124497465115347,0.3,1.0,1.0,485.0,650.0,1.0,1,435.0,1
221,221,-0.11823270186074852,-0.1,0.0,1.0,263.0,964.0,1.0,0,3743.0,1
222,222,0.0949539298078379,0.1,0.0,0.0,444.0,722.0,0.0,1,844.0,1
223,223,-0.8590922074373367,-0.9,1.0,0.0,357.0,916.0,0.0,0,537.0,1
224,224,-0.2641653885517685,-0.3,1.0,0.0,487.0,842.0,0.0,0,261.0,1
225,225,0.14555075709451126,0.1,1.0,1.0,465.0,607.0,1.0,1,808.0,1
226,226,0.4585174376146751,0.5,1.0,1.0,282.0,911.0,1.0,1,207.0,1
227,227,-0.5787753933092425,-0.6,0.0,1.0,376.0,520.0,1.0,0,624.0,1
228,228,-0.13360561639435053,-0.1,0.0,1.0,329.0,906.0,1.0,0,635.0,1
229,229,-0.27741033509679636,-0.3,0.0,1.0,459.0,992.0,1.0,0,249.0,1
230,230,-0.30574336006314873,-0.3,1.0,0.0,379.0,720.0,0.0,0,471.0,1
231,231,0.6507591885962211,0.7,0.0,0.0,331.0,709.0,0.0,1,340.0,1
232,232,0.36187770771530536,0.4,1.0,1.0,303.0,563.0,1.0,1,864.0,1
233,233,-0.5848406923853249,-0.6,0.0,1.0,395.0,539.0,1.0,0,596.0,1
234,234,-0.8801301679287222,-0.9,1.0,0.0,447.0,966.0,0.0,0,107.0,1
235,235,0.16912240488388608,0.2,0.0,0.0,440.0,885.0,1.0,0,685.0,0
236,236,0.4842602267871391,0.5,1.0,1.0,421.0,683.0,1.0,1,296.0,1
237,237,0.07259636847776685,0.1,0.0,0.0,357.0,966.0,0.0,1,2977.0,1
238,238,0.019925817608863472,0.0,0.0,0.0,498.0,764.0,1.0,0,578.0,0
239,239,-0.3244522545966142,-0.3,0.0,1.0,399.0,573.0,1.0,0,1868.0,1
240,240,0.5060061174041187,0.5,0.0,0.0,465.0,628.0,0.0,1,667.0,1
241,241,-0.019405673705358284,-0.0,1.0,0.0,356.0,709.0,0.0,0,1305.0,1
242,242,-0.6936228270155129,-0.7,1.0,0.0,273.0,694.0,0.0,0,263.0,1
243,243,-0.21077667658140542,-0.2,0.0,1.0,321.0,809.0,1.0,0,510.0,1
244,244,-0.6944487343422945,-0.7,0.0,1.0,474.0,662.0,1.0,0,334.0,1
245,245,0.76899504394143,0.8,1.0,1.0,298.0,662.0,1.0,1,330.0,1
246,246,-0.6540928801759747,-0.7,0.0,1.0,338.0,556.0,1.0,0,456.0,1
247,247,0.1234166437748706,0.1,1.0,1.0,426.0,558.0,1.0,1,616.0,1
248,248,-0.27761645031381943,-0.3,0.0,1.0,480.0,616.0,1.0,0,784.0,1
249,249,-0.2739777830408213,-0.3,1.0,0.0,396.0,905.0,0.0,0,179.0,1
250,250,0.6376318426977,0.6,0.0,0.0,461.0,630.0,0.0,1,549.0,1
251,251,0.7306678081851404,0.7,1.0,1.0,454.0,923.0,1.0,1,363.0,1
252,252,-0.7116638316376969,-0.7,0.0,1.0,347.0,681.0,1.0,0,302.0,1
253,253,0.7019731030117026,0.7,0.0,0.0,433.0,858.0,0.0,1,459.0,1
254,254,-0.630781594955008,-0.6,1.0,0.0,385.0,731.0,0.0,0,374.0,1
255,255,0.7682327235117911,0.8,1.0,1.0,311.0,890.0,1.0,1,249.0,1
256,256,0.30868543596755627,0.3,1.0,1.0,450.0,842.0,1.0,1,298.0,1
257,257,-0.07658170346664628,-0.1,0.0,1.0,481.0,971.0,1.0,0,2118.0,1
258,258,0.3046277625522199,0.3,0.0,0.0,319.0,904.0,0.0,1,1017.0,1
259,259,-0.29272863262293347,-0.3,1.0,0.0,411.0,962.0,0.0,0,1327.0,1
260,260,-0.2947083339067956,-0.3,1.0,0.0,387.0,765.0,0.0,0,868.0,1
261,261,-0.43708263231041994,-0.4,1.0,0.0,338.0,529.0,0.0,0,713.0,1
262,262,-0.024137003385815703,-0.0,1.0,0.0,330.0,713.0,0.0,0,487.0,1
263,263,0.4191770476716553,0.4,0.0,0.0,304.0,941.0,0.0,1,465.0,1
264,264,0.0835450871586415,0.1,0.0,0.0,369.0,791.0,0.0,1,2140.0,1
265,265,-0.7384376200772689,-0.7,1.0,0.0,284.0,524.0,0.0,0,452.0,1
266,266,-0.8677673630485533,-0.9,1.0,0.0,310.0,587.0,0.0,0,393.0,1
267,267,0.1438319548359247,0.1,1.0,1.0,401.0,951.0,1.0,1,1338.0,1
268,268,-0.25597757636902485,-0.3,1.0,0.0,276.0,997.0,0.0,0,237.0,1
269,269,0.5776003198435232,0.6,1.0,1.0,448.0,693.0,1.0,1,519.0,1
270,270,0.6141006031987905,0.6,0.0,0.0,409.0,750.0,0.0,1,441.0,1
271,271,-0.5564299053907347,-0.6,1.0,0.0,457.0,666.0,0.0,0,577.0,1
272,272,-0.8204242708189505,-0.8,1.0,0.0,499.0,687.0,0.0,0,124.0,1
273,273,0.7880770310866124,0.8,0.0,0.0,464.0,576.0,0.0,1,350.0,1
274,274,0.4412818048966035,0.4,1.0,1.0,459.0,729.0,1.0,1,1062.0,1
275,275,0.5208193621182099,0.5,0.0,0.0,434.0,574.0,0.0,1,342.0,1
276,276,0.3570980495415629,0.4,1.0,1.0,322.0,504.0,1.0,1,604.0,1
277,277,0.5432749188764378,0.5,1.0,1.0,434.0,641.0,1.0,1,725.0,1
278,278,0.8745999553623135,0.9,1.0,1.0,406.0,970.0,1.0,1,4.0,1
279,279,0.6854636722489994,0.7,1.0,1.0,461.0,914.0,1.0,1,55.0,1
280,280,0.8032390615421271,0.8,0.0,0.0,422.0,753.0,0.0,1,265.0,1
281,281,-0.2188339451699035,-0.2,1.0,0.0,315.0,887.0,0.0,0,798.0,1
282,282,0.5345477354112865,0.5,0.0,0.0,420.0,656.0,0.0,1,464.0,1
283,283,0.7300101767265418,0.7,0.0,0.0,367.0,851.0,0.0,1,142.0,1
284,284,-0.41159814092378766,-0.4,0.0,1.0,487.0,537.0,1.0,0,846.0,1
285,285,0.7325664004373326,0.7,1.0,1.0,363.0,732.0,1.0,1,435.0,1
286,286,-0.2832007144663463,-0.3,1.0,0.0,277.0,597.0,0.0,0,406.0,1
287,287,-0.8196478685258622,-0.8,1.0,0.0,409.0,772.0,0.0,0,179.0,1
288,288,-0.7862355564187987,-0.8,1.0,0.0,327.0,519.0,0.0,0,524.0,1
289,289,-0.08780957685912483,-0.1,0.0,1.0,417.0,620.0,0.0,1,813.0,0
290,290,-0.3391789040730341,-0.3,0.0,1.0,322.0,836.0,1.0,0,432.0,1
291,291,-0.2643278884974368,-0.3,1.0,0.0,356.0,610.0,0.0,0,624.0,1
292,292,-0.03270527695936831,-0.0,0.0,1.0,300.0,996.0,0.0,1,484.0,0
293,293,-0.765968411579379,-0.8,1.0,0.0,377.0,860.0,0.0,0,293.0,1
294,294,-0.5749264035178137,-0.6,1.0,0.0,436.0,589.0,0.0,0,405.0,1
295,295,-0.020236515500328345,-0.0,1.0,0.0,372.0,992.0,1.0,1,1076.0,0
296,296,-0.5802690337022314,-0.6,0.0,1.0,464.0,626.0,1.0,0,440.0,1
297,297,0.01971872653777662,0.0,1.0,1.0,403.0,984.0,1.0,1,1173.0,1
298,298,0.8119863998906397,0.8,1.0,1.0,282.0,531.0,1.0,1,517.0,1
299,299,-0.34341641729569816,-0.3,0.0,1.0,276.0,786.0,1.0,0,248.0,1
300,300,-0.5994322350759796,-0.6,1.0,0.0,340.0,946.0,0.0,0,254.0,1
301,301,-0.012461562525537873,-0.0,0.0,1.0,474.0,869.0,1.0,0,347.0,1
302,302,0.4308901657755245,0.4,0.0,0.0,418.0,742.0,0.0,1,470.0,1
303,303,-0.05338171207608744,-0.1,1.0,0.0,341.0,595.0,0.0,0,634.0,1
304,304,0.736427680004966,0.7,0.0,0.0,408.0,984.0,0.0,1,248.0,1
305,305,0.22151407635018205,0.2,0.0,0.0,382.0,920.0,0.0,1,958.0,1
306,306,-0.6537445785487536,-0.7,1.0,0.0,357.0,550.0,0.0,0,483.0,1
307,307,-0.29642772867984,-0.3,1.0,0.0,275.0,886.0,0.0,0,689.0,1
308,308,0.3280475665910342,0.3,0.0,0.0,346.0,927.0,0.0,1,627.0,1
309,309,0.8099970382070979,0.8,0.0,0.0,333.0,959.0,0.0,1,328.0,1
310,310,-0.713058135081138,-0.7,1.0,0.0,282.0,739.0,0.0,0,299.0,1
311,311,0.633084661580502,0.6,1.0,1.0,309.0,814.0,1.0,1,107.0,1
312,312,0.38076497146631894,0.4,1.0,1.0,447.0,514.0,1.0,1,479.0,1
313,313,-0.6068268589056238,-0.6,1.0,0.0,353.0,648.0,0.0,0,189.0,1
314,314,-0.45106537523614737,-0.5,0.0,1.0,327.0,733.0,1.0,0,660.0,1
315,315,0.4109331595216409,0.4,0.0,0.0,484.0,551.0,0.0,1,585.0,1
316,316,-0.5275170345449254,-0.5,1.0,0.0,427.0,986.0,0.0,0,267.0,1
317,317,-0.8583403585908049,-0.9,1.0,0.0,359.0,603.0,0.0,0,368.0,1
318,318,0.7253303492723503,0.7,1.0,1.0,258.0,547.0,1.0,1,595.0,1
319,319,-0.5853228256331169,-0.6,0.0,1.0,407.0,663.0,1.0,0,350.0,1
320,320,-0.3246087132713579,-0.3,0.0,1.0,373.0,938.0,1.0,0,329.0,1
321,321,0.7281217879067184,0.7,0.0,0.0,338.0,862.0,0.0,1,240.0,1
322,322,-0.8125969195659252,-0.8,1.0,0.0,456.0,611.0,0.0,0,453.0,1
323,323,0.23951408361205562,0.2,0.0,0.0,390.0,662.0,0.0,1,478.0,1
324,324,0.15062685005777043,0.2,0.0,0.0,263.0,741.0,0.0,1,636.0,1
325,325,0.37145394895420203,0.4,0.0,0.0,438.0,785.0,0.0,1,207.0,1
326,326,-0.30154238941925793,-0.3,0.0,1.0,494.0,740.0,1.0,0,616.0,1
327,327,0.7912317868839273,0.8,0.0,0.0,428.0,887.0,0.0,1,155.0,1
328,328,0.3780079256400434,0.4,0.0,0.0,405.0,545.0,0.0,1,540.0,1
329,329,-0.8331572763672003,-0.8,0.0,1.0,283.0,661.0,1.0,0,416.0,1
330,330,-0.16550322930363182,-0.2,0.0,1.0,418.0,804.0,1.0,0,188.0,1
331,331,0.5140105133411169,0.5,0.0,0.0,286.0,620.0,0.0,1,504.0,1
332,332,-0.14713197984360726,-0.1,0.0,1.0,441.0,564.0,1.0,0,525.0,1
333,333,-0.35904197576932273,-0.4,0.0,1.0,340.0,913.0,1.0,0,417.0,1
334,334,0.08829392900006694,0.1,1.0,1.0,444.0,769.0,1.0,1,477.0,1
335,335,0.8539880920591206,0.9,1.0,1.0,331.0,730.0,1.0,1,459.0,1
336,336,-0.30399904252177445,-0.3,0.0,1.0,252.0,908.0,1.0,0,500.0,1
337,337,0.10897201914679233,0.1,0.0,0.0,413.0,510.0,0.0,1,987.0,1
338,338,-0.6479005596405771,-0.6,0.0,1.0,338.0,959.0,1.0,0,293.0,1
339,339,0.6842983769913228,0.7,1.0,1.0,273.0,746.0,1.0,1,371.0,1
340,340,0.8091310837252207,0.8,1.0,1.0,301.0,800.0,1.0,1,229.0,1
341,341,0.5731448243776353,0.6,0.0,0.0,407.0,938.0,0.0,1,115.0,1
342,342,0.2871858460719273,0.3,0.0,0.0,455.0,553.0,0.0,1,582.0,1
343,343,0.18760270994289197,0.2,0.0,0.0,382.0,520.0,0.0,1,1188.0,1
344,344,0.6344932987304636,0.6,0.0,0.0,429.0,539.0,0.0,1,612.0,1
345,345,-0.30989814401102234,-0.3,1.0,0.0,430.0,895.0,0.0,0,725.0,1
346,346,-0.5999229011207758,-0.6,0.0,1.0,496.0,532.0,1.0,0,742.0,1
347,347,-0.35876273618270516,-0.4,0.0,1.0,423.0,771.0,1.0,0,506.0,1
348,348,-0.236023326315824,-0.2,0.0,1.0,485.0,928.0,1.0,0,327.0,1
349,349,0.7059186860893155,0.7,0.0,0.0,455.0,703.0,0.0,1,502.0,1
350,350,-0.3656757073701855,-0.4,0.0,1.0,415.0,915.0,0.0,1,170.0,0
351,351,-0.3636583506594947,-0.4,1.0,0.0,318.0,641.0,0.0,0,691.0,1
352,352,-0.8135351268491148,-0.8,1.0,0.0,440.0,536.0,0.0,0,474.0,1
353,353,-0.8103354469089025,-0.8,0.0,1.0,284.0,657.0,1.0,0,369.0,1
354,354,0.5347200876747965,0.5,0.0,0.0,260.0,710.0,0.0,1,390.0,1
355,355,0.47992887992778954,0.5,1.0,1.0,354.0,867.0,1.0,1,469.0,1
356,356,0.5344697918157623,0.5,1.0,1.0,376.0,967.0,1.0,1,327.0,1
357,357,0.6713852502935297,0.7,0.0,0.0,392.0,774.0,0.0,1,294.0,1
358,358,-0.4123677708077627,-0.4,1.0,0.0,332.0,732.0,0.0,0,166.0,1
359,359,0.31752600274969767,0.3,0.0,0.0,342.0,566.0,0.0,1,462.0,1
360,360,0.42038687143718445,0.4,0.0,0.0,374.0,983.0,0.0,1,183.0,1
361,361,-0.20427523824060556,-0.2,1.0,0.0,305.0,641.0,0.0,0,444.0,1
362,362,0.14957583700189792,0.1,0.0,0.0,417.0,911.0,0.0,1,602.0,1
363,363,-0.8581146796125344,-0.9,1.0,0.0,296.0,513.0,0.0,0,541.0,1
364,364,0.04479861554391151,0.0,0.0,0.0,431.0,835.0,1.0,0,924.0,0
365,365,0.3002161917597693,0.3,1.0,1.0,393.0,922.0,1.0,1,225.0,1
366,366,-0.5560431201952312,-0.6,1.0,0.0,295.0,632.0,0.0,0,423.0,1
367,367,0.47729252291581015,0.5,1.0,1.0,436.0,826.0,1.0,1,208.0,1
368,368,0.10783859515070338,0.1,1.0,1.0,375.0,828.0,1.0,1,597.0,1
369,369,-0.1322777608672926,-0.1,0.0,1.0,307.0,830.0,0.0,1,443.0,0
370,370,-0.7093077777338647,-0.7,0.0,1.0,402.0,767.0,1.0,0,511.0,1
371,371,-0.48247486414620033,-0.5,1.0,0.0,268.0,556.0,0.0,0,516.0,1
372,372,-0.3883755660753505,-0.4,1.0,0.0,486.0,788.0,0.0,0,376.0,1
373,373,-0.8827478823463597,-0.9,1.0,0.0,270.0,877.0,0.0,0,3.0,1
374,374,-0.4829589037770737,-0.5,0.0,1.0,267.0,513.0,1.0,0,1200.0,1
375,375,-0.015554771641452358,-0.0,0.0,1.0,494.0,507.0,0.0,1,549.0,0
376,376,0.341134652114352,0.3,1.0,1.0,340.0,658.0,1.0,1,572.0,1
377,377,-0.3666773740889031,-0.4,1.0,0.0,492.0,998.0,0.0,0,340.0,1
378,378,-0.8369775211908863,-0.8,0.0,1.0,273.0,969.0,1.0,0,218.0,1
379,379,0.6943816700502851,0.7,1.0,1.0,487.0,511.0,1.0,1,422.0,1
380,380,-0.3698603150132377,-0.4,0.0,1.0,444.0,979.0,1.0,0,547.0,1
381,381,0.6529480653201744,0.7,1.0,1.0,404.0,863.0,1.0,1,333.0,1
382,382,0.23472238252804234,0.2,0.0,0.0,402.0,596.0,0.0,1,1752.0,1
383,383,0.39618992926471386,0.4,0.0,0.0,334.0,773.0,0.0,1,303.0,1
384,384,-0.42799490956688213,-0.4,0.0,1.0,286.0,927.0,1.0,0,237.0,1
385,385,-0.31818209432993716,-0.3,0.0,1.0,421.0,661.0,1.0,0,1168.0,1
386,386,-0.5037384514152925,-0.5,0.0,1.0,382.0,636.0,1.0,0,362.0,1
387,387,0.8449474919415961,0.8,1.0,1.0,436.0,583.0,1.0,1,481.0,1
388,388,0.26561263394038603,0.3,0.0,0.0,493.0,906.0,0.0,1,251.0,1
389,389,0.17326380116051088,0.2,1.0,1.0,257.0,780.0,1.0,1,433.0,1
390,390,-0.5120182018983305,-0.5,0.0,1.0,342.0,590.0,1.0,0,458.0,1
391,391,-0.051090146383310886,-0.1,1.0,0.0,300.0,866.0,0.0,0,874.0,1
392,392,-0.8417719352137715,-0.8,1.0,0.0,400.0,606.0,0.0,0,494.0,1
393,393,-0.472185704271255,-0.5,1.0,0.0,345.0,844.0,0.0,0,231.0,1
394,394,0.7414791942954176,0.7,0.0,0.0,346.0,703.0,0.0,1,521.0,1
395,395,-0.6494668123190562,-0.6,1.0,0.0,463.0,856.0,0.0,0,231.0,1
396,396,0.08674731661337964,0.1,1.0,1.0,449.0,741.0,1.0,1,730.0,1
397,397,-0.7013180758233262,-0.7,0.0,1.0,343.0,851.0,1.0,0,296.0,1
398,398,0.6158312088233601,0.6,0.0,0.0,299.0,652.0,0.0,1,419.0,1
399,399,0.09912585459108358,0.1,0.0,0.0,353.0,642.0,0.0,1,1015.0,1
400,400,0.15990932316756024,0.2,1.0,1.0,368.0,802.0,1.0,1,420.0,1
401,401,-0.3826859902174996,-0.4,1.0,0.0,317.0,786.0,0.0,0,317.0,1
402,402,-0.8040753736552906,-0.8,1.0,0.0,367.0,884.0,0.0,0,169.0,1
403,403,-0.48105219054800236,-0.5,1.0,0.0,476.0,570.0,0.0,0,274.0,1
404,404,0.28538245359632264,0.3,1.0,1.0,444.0,968.0,1.0,1,418.0,1
405,405,-0.794822385300145,-0.8,1.0,0.0,386.0,953.0,0.0,0,71.0,1
406,406,0.049392570515252476,0.0,0.0,0.0,392.0,767.0,1.0,0,791.0,0
407,407,-0.12374376850816937,-0.1,1.0,0.0,464.0,863.0,0.0,0,633.0,1
408,408,0.3589263908016814,0.4,0.0,0.0,332.0,943.0,0.0,1,585.0,1
409,409,0.041204954448094466,0.0,1.0,1.0,393.0,747.0,1.0,1,600.0,1
410,410,0.1501565308127043,0.2,1.0,1.0,440.0,925.0,1.0,1,865.0,1
411,411,-0.73645498306413,-0.7,1.0,0.0,294.0,861.0,0.0,0,305.0,1
412,412,0.5739067828338568,0.6,0.0,0.0,462.0,747.0,0.0,1,241.0,1
413,413,-0.05103979947590931,-0.1,0.0,1.0,455.0,969.0,0.0,1,6.0,0
414,414,-0.6364738285781544,-0.6,1.0,0.0,274.0,916.0,0.0,0,270.0,1
415,415,-0.19149456837882173,-0.2,0.0,1.0,340.0,706.0,1.0,0,544.0,1
416,416,0.6664953735308706,0.7,1.0,1.0,420.0,918.0,1.0,1,372.0,1
417,417,-0.1571448437260461,-0.2,0.0,1.0,268.0,536.0,1.0,0,636.0,1
418,418,0.6061914183576972,0.6,1.0,1.0,309.0,838.0,1.0,1,453.0,1
419,419,-0.07174831236076162,-0.1,1.0,0.0,467.0,750.0,1.0,1,2513.0,0
420,420,-0.5690150628398218,-0.6,1.0,0.0,457.0,993.0,0.0,0,250.0,1
421,421,0.07173798656025998,0.1,0.0,0.0,380.0,748.0,0.0,1,1602.0,1
422,422,-0.06622924414216391,-0.1,1.0,0.0,319.0,537.0,0.0,0,954.0,1
423,423,0.36630076260727373,0.4,1.0,1.0,280.0,559.0,1.0,1,1061.0,1
424,424,-0.042907168625221925,-0.0,1.0,0.0,457.0,807.0,0.0,0,1536.0,1
425,425,-0.09170510815176158,-0.1,0.0,1.0,285.0,684.0,1.0,0,441.0,1
426,426,0.6859718773249622,0.7,0.0,0.0,345.0,621.0,0.0,1,464.0,1
427,427,0.5368905372854881,0.5,1.0,1.0,421.0,549.0,1.0,1,410.0,1
428,428,0.29330947685099507,0.3,0.0,0.0,402.0,696.0,0.0,1,512.0,1
429,429,-0.32463304524960146,-0.3,0.0,1.0,386.0,957.0,1.0,0,467.0,1
430,430,-0.7996303313505947,-0.8,1.0,0.0,346.0,719.0,0.0,0,425.0,1
431,431,-0.23293108616471592,-0.2,0.0,1.0,439.0,534.0,1.0,0,647.0,1
432,432,-0.6940821645910813,-0.7,1.0,0.0,391.0,855.0,0.0,0,394.0,1
433,433,-0.8202070318787716,-0.8,1.0,0.0,325.0,509.0,0.0,0,536.0,1
434,434,0.7661104118567349,0.8,1.0,1.0,411.0,538.0,1.0,1,601.0,1
435,435,-0.1512421132555717,-0.2,0.0,1.0,374.0,519.0,1.0,0,3557.0,1
436,436,0.4943115266874557,0.5,0.0,0.0,343.0,697.0,0.0,1,680.0,1
437,437,0.8401515541838446,0.8,1.0,1.0,334.0,577.0,1.0,1,379.0,1
438,438,-0.2965222750004234,-0.3,0.0,1.0,452.0,585.0,1.0,0,1403.0,1
439,439,-0.8435333222953906,-0.8,1.0,0.0,274.0,826.0,0.0,0,330.0,1
440,440,-0.6754945360153006,-0.7,1.0,0.0,265.0,820.0,0.0,0,245.0,1
441,441,0.08371570294455188,0.1,0.0,0.0,436.0,580.0,0.0,1,874.0,1
442,442,0.12698887246264812,0.1,0.0,0.0,363.0,551.0,1.0,0,1906.0,0
443,443,0.8370827411305407,0.8,0.0,0.0,430.0,794.0,0.0,1,376.0,1
444,444,0.2200624207889409,0.2,0.0,0.0,339.0,835.0,0.0,1,956.0,1
445,445,-0.005881133343461631,-0.0,1.0,0.0,260.0,539.0,1.0,1,781.0,0
446,446,-0.7953593398263802,-0.8,0.0,1.0,382.0,614.0,1.0,0,444.0,1
447,447,0.056700068177140905,0.1,1.0,1.0,394.0,703.0,1.0,1,1143.0,1
448,448,-0.48512045225322714,-0.5,0.0,1.0,498.0,550.0,1.0,0,412.0,1
449,449,-0.3272937075904877,-0.3,1.0,0.0,318.0,659.0,0.0,0,373.0,1
450,450,-0.6081859670902119,-0.6,1.0,0.0,402.0,789.0,0.0,0,459.0,1
451,451,-0.7516766070223522,-0.8,1.0,0.0,401.0,918.0,0.0,0,101.0,1
452,452,-0.2261693619719075,-0.2,0.0,1.0,451.0,737.0,1.0,0,712.0,1
453,453,-0.49288911445630945,-0.5,0.0,1.0,465.0,718.0,1.0,0,697.0,1
454,454,0.15347791061856697,0.2,0.0,0.0,470.0,944.0,0.0,1,456.0,1
455,455,-0.5761052528453097,-0.6,1.0,0.0,261.0,665.0,0.0,0,404.0,1
456,456,0.5637315578667302,0.6,1.0,1.0,364.0,683.0,1.0,1,213.0,1
457,457,0.056112614294354435,0.1,1.0,1.0,408.0,540.0,0.0,0,532.0,0
458,458,0.6923323731872305,0.7,1.0,1.0,467.0,647.0,1.0,1,426.0,1
459,459,0.7368274031937129,0.7,1.0,1.0,377.0,870.0,1.0,1,113.0,1
460,460,0.010941508280532974,0.0,0.0,0.0,436.0,844.0,1.0,0,530.0,0
461,461,0.04876317113352924,0.0,0.0,0.0,284.0,602.0,1.0,0,1264.0,0
462,462,0.4395956464730063,0.4,0.0,0.0,364.0,734.0,0.0,1,892.0,1
463,463,-0.8897802384283705,-0.9,0.0,1.0,403.0,540.0,1.0,0,477.0,1
464,464,-0.3347219910486513,-0.3,0.0,1.0,418.0,874.0,0.0,1,158.0,0
465,465,0.6486261430078156,0.6,1.0,1.0,324.0,686.0,1.0,1,380.0,1
466,466,0.8037871382657827,0.8,1.0,1.0,445.0,576.0,1.0,1,339.0,1
467,467,0.7379060138898573,0.7,1.0,1.0,495.0,728.0,1.0,1,257.0,1
468,468,0.3588491371773773,0.4,1.0,1.0,362.0,559.0,1.0,1,1159.0,1
469,469,-0.6125843092260859,-0.6,1.0,0.0,397.0,855.0,0.0,0,238.0,1
470,470,-0.4395652168396652,-0.4,0.0,1.0,408.0,555.0,1.0,0,437.0,1
471,471,-0.8484768442842243,-0.8,0.0,1.0,460.0,901.0,1.0,0,199.0,1
472,472,0.28922962223139403,0.3,0.0,0.0,428.0,916.0,0.0,1,616.0,1
473,473,-0.23002527929109018,-0.2,0.0,1.0,346.0,731.0,1.0,0,1573.0,1
474,474,-0.6149616310181057,-0.6,1.0,0.0,427.0,958.0,0.0,0,225.0,1
475,475,-0.751168057175825,-0.8,0.0,1.0,457.0,566.0,1.0,0,357.0,1
476,476,-0.06273357672398183,-0.1,0.0,1.0,406.0,707.0,1.0,0,1467.0,1
477,477,-0.5779701554743417,-0.6,0.0,1.0,426.0,663.0,1.0,0,431.0,1
478,478,-0.25213634096700777,-0.3,0.0,1.0,463.0,824.0,1.0,0,493.0,1
479,479,-0.4853052604099591,-0.5,0.0,1.0,378.0,883.0,1.0,0,329.0,1
480,480,-0.4051086948573803,-0.4,1.0,0.0,454.0,534.0,0.0,0,612.0,1
481,481,-0.2666891535382703,-0.3,1.0,0.0,390.0,727.0,0.0,0,323.0,1
482,482,0.27674916354113244,0.3,1.0,1.0,497.0,584.0,1.0,1,649.0,1
483,483,0.434781853337178,0.4,0.0,0.0,279.0,654.0,0.0,1,537.0,1
484,484,-0.559737441246488,-0.6,1.0,0.0,471.0,770.0,0.0,0,579.0,1
485,485,-0.49722093179362564,-0.5,0.0,1.0,440.0,741.0,1.0,0,249.0,1
486,486,-0.47241510791432884,-0.5,0.0,1.0,311.0,549.0,1.0,0,570.0,1
487,487,0.06617472532267454,0.1,0.0,0.0,299.0,849.0,0.0,1,1622.0,1
488,488,-0.5832261152226734,-0.6,1.0,0.0,448.0,962.0,0.0,0,400.0,1
489,489,0.3609135540871172,0.4,1.0,1.0,409.0,514.0,1.0,1,597.0,1
490,490,0.04708003785119785,0.0,0.0,0.0,279.0,937.0,1.0,0,134.0,0
491,491,-0.30862947216044023,-0.3,0.0,1.0,488.0,895.0,1.0,0,617.0,1
492,492,-0.6723049396055137,-0.7,1.0,0.0,357.0,910.0,0.0,0,313.0,1
493,493,0.1471843470393598,0.1,0.0,0.0,273.0,624.0,0.0,1,963.0,1
494,494,0.8793785554850077,0.9,0.0,0.0,317.0,606.0,0.0,1,407.0,1
495,495,0.08780237613385278,0.1,1.0,1.0,255.0,665.0,1.0,1,570.0,1
496,496,0.7776268174126849,0.8,1.0,1.0,306.0,720.0,1.0,1,234.0,1
497,497,-0.7821836536396669,-0.8,0.0,1.0,394.0,965.0,1.0,0,271.0,1
498,498,0.014180142980960597,0.0,0.0,0.0,363.0,995.0,1.0,0,552.0,0
499,499,0.6814229096253005,0.7,1.0,1.0,311.0,948.0,1.0,1,191.0,1
500,500,-0.03214916692851555,-0.0,1.0,0.0,463.0,801.0,1.0,1,326.0,0
501,501,0.31763963397777195,0.3,0.0,0.0,438.0,866.0,0.0,1,606.0,1
502,502,0.5800019322113722,0.6,1.0,1.0,476.0,895.0,1.0,1,99.0,1
503,503,-0.7987731624402244,-0.8,0.0,1.0,499.0,971.0,1.0,0,250.0,1
504,504,-0.06820357587698911,-0.1,0.0,1.0,460.0,574.0,1.0,0,566.0,1
505,505,-0.43705574469283553,-0.4,1.0,0.0,395.0,728.0,0.0,0,497.0,1
506,506,0.33140493016965744,0.3,1.0,1.0,361.0,954.0,1.0,1,255.0,1
507,507,-0.7602654093814576,-0.8,1.0,0.0,381.0,676.0,0.0,0,313.0,1
508,508,0.2980701734003087,0.3,0.0,0.0,421.0,896.0,0.0,1,303.0,1
509,509,0.18394307551361322,0.2,1.0,1.0,486.0,985.0,1.0,1,439.0,1
510,510,-0.21568097135621656,-0.2,1.0,0.0,352.0,549.0,0.0,0,409.0,1
511,511,0.42186323383279334,0.4,0.0,0.0,495.0,553.0,0.0,1,592.0,1
512,512,-0.7994779170017406,-0.8,0.0,1.0,362.0,733.0,1.0,0,435.0,1
513,513,-0.8006541703362874,-0.8,0.0,1.0,312.0,559.0,1.0,0,379.0,1
514,514,-0.8911327728567336,-0.9,0.0,1.0,495.0,569.0,1.0,0,276.0,1
515,515,-0.6326785848598446,-0.6,0.0,1.0,370.0,575.0,1.0,0,595.0,1
516,516,0.8098770929930869,0.8,0.0,0.0,417.0,669.0,0.0,1,394.0,1
517,517,0.33625299361697014,0.3,1.0,1.0,398.0,758.0,1.0,1,354.0,1
518,518,0.26315586036942606,0.3,0.0,0.0,336.0,932.0,0.0,1,312.0,1
519,519,-0.7364300729925379,-0.7,0.0,1.0,256.0,561.0,1.0,0,953.0,1
520,520,-0.5739109676354618,-0.6,1.0,0.0,283.0,563.0,0.0,0,624.0,1
521,521,-0.7658249019821874,-0.8,0.0,1.0,318.0,523.0,1.0,0,489.0,1
522,522,-0.0630063264562235,-0.1,0.0,1.0,357.0,617.0,1.0,0,2516.0,1
523,523,-0.8763751725832738,-0.9,0.0,1.0,372.0,973.0,1.0,0,115.0,1
524,524,0.18078062599828815,0.2,1.0,1.0,291.0,551.0,1.0,1,1078.0,1
525,525,0.768006508244648,0.8,1.0,1.0,438.0,707.0,1.0,1,345.0,1
526,526,0.6859872739149137,0.7,1.0,1.0,381.0,618.0,1.0,1,411.0,1
527,527,-0.8016508221105249,-0.8,1.0,0.0,432.0,620.0,0.0,0,328.0,1
528,528,-0.42762331878463317,-0.4,1.0,0.0,445.0,772.0,0.0,0,703.0,1
529,529,-0.15527198327360636,-0.2,0.0,1.0,274.0,639.0,0.0,1,807.0,0
530,530,-0.775525480822855,-0.8,1.0,0.0,499.0,631.0,0.0,0,440.0,1
531,531,0.24273644188107923,0.2,1.0,1.0,455.0,555.0,1.0,1,460.0,1
532,532,-0.5277349526068899,-0.5,0.0,1.0,447.0,941.0,1.0,0,622.0,1
533,533,0.7248334194937761,0.7,0.0,0.0,408.0,654.0,0.0,1,288.0,1
534,534,-0.35522504057662785,-0.4,0.0,1.0,450.0,521.0,1.0,0,479.0,1
535,535,0.6097652749055914,0.6,1.0,1.0,296.0,704.0,1.0,1,370.0,1
536,536,0.8185660256987809,0.8,1.0,1.0,442.0,921.0,1.0,1,327.0,1
537,537,0.2285883885805443,0.2,0.0,0.0,296.0,647.0,0.0,1,777.0,1
538,538,0.14083629264819486,0.1,1.0,1.0,250.0,601.0,1.0,1,1699.0,1
539,539,-0.12535388319811092,-0.1,0.0,1.0,325.0,688.0,1.0,0,527.0,1
540,540,0.18614289511081494,0.2,0.0,0.0,290.0,837.0,0.0,1,653.0,1
541,541,0.20505805436590563,0.2,1.0,1.0,305.0,681.0,1.0,1,704.0,1
542,542,-0.29378143556250547,-0.3,0.0,1.0,412.0,687.0,1.0,0,441.0,1
543,543,-0.4025139904413248,-0.4,1.0,0.0,325.0,503.0,0.0,0,642.0,1
544,544,0.8181644947105468,0.8,0.0,0.0,395.0,573.0,0.0,1,672.0,1
545,545,-0.7640582365257986,-0.8,1.0,0.0,401.0,999.0,0.0,0,300.0,1
546,546,-0.4410380908142364,-0.4,1.0,0.0,434.0,812.0,0.0,0,464.0,1
547,547,-0.7620850883615854,-0.8,1.0,0.0,301.0,946.0,0.0,0,93.0,1
548,548,0.41973163838193306,0.4,1.0,1.0,341.0,980.0,1.0,1,269.0,1
549,549,-0.3832567763396487,-0.4,1.0,0.0,311.0,724.0,0.0,0,415.0,1
550,550,0.010928079397842794,0.0,1.0,1.0,448.0,808.0,1.0,1,664.0,1
551,551,0.6296040437688138,0.6,1.0,1.0,488.0,860.0,1.0,1,312.0,1
552,552,0.29371021710162626,0.3,0.0,0.0,404.0,586.0,0.0,1,790.0,1
553,553,-0.26164095721937675,-0.3,0.0,1.0,333.0,700.0,1.0,0,1037.0,1
554,554,0.6886380500005668,0.7,0.0,0.0,280.0,896.0,0.0,1,614.0,1
555,555,0.3362459547855473,0.3,0.0,0.0,434.0,576.0,0.0,1,710.0,1
556,556,-0.381426700022897,-0.4,1.0,0.0,357.0,911.0,0.0,0,392.0,1
557,557,-0.7308378883031184,-0.7,0.0,1.0,458.0,582.0,1.0,0,550.0,1
558,558,-0.49127329306754003,-0.5,1.0,0.0,475.0,571.0,0.0,0,524.0,1
559,559,-0.5427479712345061,-0.5,0.0,1.0,275.0,757.0,1.0,0,518.0,1
560,560,0.5898071755519875,0.6,0.0,0.0,359.0,737.0,0.0,1,354.0,1
561,561,-0.4446689412522346,-0.4,1.0,0.0,289.0,844.0,0.0,0,617.0,1
562,562,-0.7614498971597993,-0.8,0.0,1.0,290.0,976.0,1.0,0,174.0,1
563,563,0.5516459872230247,0.6,1.0,1.0,488.0,599.0,1.0,1,463.0,1
564,564,0.521379866133112,0.5,0.0,0.0,264.0,693.0,0.0,1,443.0,1
565,565,-0.31067784269662924,-0.3,0.0,1.0,368.0,533.0,1.0,0,589.0,1
566,566,-0.5541711241007827,-0.6,0.0,1.0,255.0,549.0,1.0,0,606.0,1
567,567,-0.4208155679167735,-0.4,0.0,1.0,446.0,962.0,1.0,0,322.0,1
568,568,-0.08079687704323013,-0.1,1.0,0.0,355.0,617.0,0.0,0,528.0,1
569,569,0.8477217047628628,0.8,0.0,0.0,273.0,630.0,0.0,1,457.0,1
570,570,-0.3990664731112007,-0.4,0.0,1.0,305.0,519.0,1.0,0,1146.0,1
571,571,-0.009188289379424286,-0.0,1.0,0.0,466.0,733.0,0.0,0,1011.0,1
572,572,-0.5636825572172506,-0.6,0.0,1.0,499.0,570.0,1.0,0,601.0,1
573,573,0.7175287518786438,0.7,0.0,0.0,459.0,765.0,0.0,1,366.0,1
574,574,0.36085894898537985,0.4,0.0,0.0,260.0,921.0,0.0,1,569.0,1
575,575,-0.6592633803288183,-0.7,0.0,1.0,344.0,796.0,1.0,0,240.0,1
576,576,-0.7501857661901928,-0.8,0.0,1.0,415.0,824.0,1.0,0,401.0,1
577,577,0.3255328487667374,0.3,0.0,0.0,451.0,822.0,0.0,1,817.0,1
578,578,0.880421794896931,0.9,1.0,1.0,271.0,633.0,1.0,1,366.0,1
579,579,-0.5504499505304985,-0.6,1.0,0.0,445.0,642.0,0.0,0,483.0,1
580,580,0.2709054931869691,0.3,1.0,1.0,430.0,644.0,1.0,1,296.0,1
581,581,-0.3793802639045024,-0.4,1.0,0.0,424.0,575.0,0.0,0,541.0,1
582,582,0.8120668589027137,0.8,0.0,0.0,378.0,681.0,0.0,1,811.0,1
583,583,-0.5742135371338399,-0.6,1.0,0.0,372.0,518.0,0.0,0,820.0,1
584,584,0.028261118305757726,0.0,1.0,1.0,387.0,695.0,0.0,0,278.0,0
585,585,-0.12947126393187047,-0.1,1.0,0.0,338.0,765.0,0.0,0,497.0,1
586,586,0.43407979970130695,0.4,0.0,0.0,478.0,703.0,0.0,1,449.0,1
587,587,0.4390789903194018,0.4,0.0,0.0,277.0,851.0,0.0,1,312.0,1
588,588,-0.8016199162001814,-0.8,1.0,0.0,286.0,886.0,0.0,0,258.0,1
589,589,0.8306628688687353,0.8,1.0,1.0,483.0,907.0,1.0,1,260.0,1
590,590,0.6501279821395832,0.7,0.0,0.0,337.0,801.0,0.0,1,272.0,1
591,591,-0.5439582544691735,-0.5,0.0,1.0,455.0,899.0,1.0,0,386.0,1
592,592,0.47304913938421345,0.5,0.0,0.0,438.0,846.0,0.0,1,216.0,1
593,593,0.41573873348271173,0.4,0.0,0.0,452.0,756.0,0.0,1,602.0,1
594,594,-0.0744346651718536,-0.1,0.0,1.0,370.0,976.0,1.0,0,524.0,1
595,595,0.6926095173709229,0.7,1.0,1.0,326.0,523.0,1.0,1,561.0,1
596,596,0.6620442812399977,0.7,1.0,1.0,447.0,788.0,1.0,1,245.0,1
597,597,0.40965918300621806,0.4,0.0,0.0,463.0,937.0,0.0,1,870.0,1
598,598,-0.08522279061948879,-0.1,0.0,1.0,479.0,682.0,1.0,0,789.0,1
599,599,0.5939279550838995,0.6,0.0,0.0,423.0,542.0,0.0,1,455.0,1
600,600,0.7952253722576582,0.8,0.0,0.0,345.0,638.0,0.0,1,447.0,1
601,601,-0.2697103969785132,-0.3,0.0,1.0,322.0,864.0,1.0,0,714.0,1
602,602,0.3029594794052647,0.3,0.0,0.0,405.0,574.0,0.0,1,861.0,1
603,603,0.4798337374872107,0.5,0.0,0.0,405.0,539.0,0.0,1,356.0,1
604,604,0.11868735327343216,0.1,0.0,0.0,297.0,759.0,0.0,1,3944.0,1
605,605,-0.2025963466168289,-0.2,1.0,0.0,271.0,968.0,0.0,0,231.0,1
606,606,0.03488570562977911,0.0,0.0,0.0,428.0,726.0,0.0,1,2196.0,1
607,607,0.7728009079404755,0.8,1.0,1.0,297.0,726.0,1.0,1,467.0,1
608,608,-0.6238371120916426,-0.6,1.0,0.0,436.0,909.0,0.0,0,265.0,1
609,609,-0.22143197398948822,-0.2,0.0,1.0,294.0,847.0,1.0,0,269.0,1
610,610,0.6079486941818467,0.6,0.0,0.0,262.0,860.0,0.0,1,508.0,1
611,611,0.38156363469411037,0.4,0.0,0.0,319.0,642.0,0.0,1,449.0,1
612,612,0.6807266673071323,0.7,0.0,0.0,370.0,713.0,0.0,1,357.0,1
613,613,0.8256892768059955,0.8,0.0,0.0,379.0,799.0,0.0,1,192.0,1
614,614,0.18960624530156311,0.2,0.0,0.0,445.0,601.0,0.0,1,1614.0,1
615,615,-0.7948026638593749,-0.8,0.0,1.0,271.0,796.0,1.0,0,433.0,1
616,616,-0.46214558941930023,-0.5,1.0,0.0,408.0,627.0,0.0,0,785.0,1
617,617,-0.7452030272524766,-0.7,0.0,1.0,254.0,737.0,1.0,0,419.0,1
618,618,-0.558889678872479,-0.6,1.0,0.0,450.0,923.0,0.0,0,157.0,1
619,619,0.1894465046717969,0.2,0.0,0.0,254.0,845.0,0.0,1,131.0,1
620,620,-0.6746831369296311,-0.7,1.0,0.0,357.0,836.0,0.0,0,477.0,1
621,621,-0.5217133947969779,-0.5,0.0,1.0,407.0,687.0,1.0,0,376.0,1
622,622,0.6093328284514193,0.6,1.0,1.0,401.0,692.0,1.0,1,437.0,1
623,623,-0.8745985244089687,-0.9,0.0,1.0,495.0,561.0,1.0,0,624.0,1
624,624,-0.33937815535010407,-0.3,0.0,1.0,439.0,769.0,1.0,0,352.0,1
625,625,-0.6335367846395268,-0.6,1.0,0.0,432.0,829.0,0.0,0,399.0,1
626,626,0.09829213988636953,0.1,0.0,0.0,381.0,833.0,0.0,1,446.0,1
627,627,-0.30626451587840164,-0.3,1.0,0.0,298.0,924.0,0.0,0,518.0,1
628,628,0.2179301348586159,0.2,1.0,1.0,426.0,543.0,1.0,1,661.0,1
629,629,-0.27882992028173115,-0.3,1.0,0.0,368.0,898.0,0.0,0,274.0,1
630,630,-0.7442691482845898,-0.7,0.0,1.0,253.0,852.0,1.0,0,185.0,1
631,631,-0.04129711049918072,-0.0,1.0,0.0,494.0,946.0,0.0,0,430.0,1
632,632,-0.4531738778860081,-0.5,1.0,0.0,441.0,996.0,0.0,0,73.0,1
633,633,0.0313506685786874,0.0,0.0,0.0,307.0,558.0,0.0,1,965.0,1
634,634,-0.5199066416890764,-0.5,1.0,0.0,260.0,910.0,0.0,0,500.0,1
635,635,0.12318034933204303,0.1,1.0,1.0,252.0,551.0,1.0,1,667.0,1
636,636,-0.8516072401748609,-0.9,1.0,0.0,474.0,639.0,0.0,0,397.0,1
637,637,0.4300603152307828,0.4,0.0,0.0,319.0,614.0,0.0,1,417.0,1
638,638,-0.35079445397360987,-0.4,0.0,1.0,388.0,761.0,1.0,0,341.0,1
639,639,0.6729666490274874,0.7,1.0,1.0,372.0,892.0,1.0,1,356.0,1
640,640,-0.17650272698933056,-0.2,1.0,0.0,345.0,524.0,0.0,0,901.0,1
641,641,-0.0756686757602717,-0.1,0.0,1.0,318.0,968.0,1.0,0,224.0,1
642,642,-0.7576287391743921,-0.8,0.0,1.0,262.0,832.0,1.0,0,166.0,1
643,643,0.25802229181441805,0.3,1.0,1.0,451.0,649.0,1.0,1,610.0,1
644,644,0.8035313128439455,0.8,0.0,0.0,480.0,520.0,0.0,1,500.0,1
645,645,0.43202531091476837,0.4,0.0,0.0,397.0,688.0,0.0,1,445.0,1
646,646,0.8362720452576035,0.8,1.0,1.0,342.0,935.0,1.0,1,153.0,1
647,647,0.12287390396332853,0.1,0.0,0.0,368.0,836.0,0.0,1,3286.0,1
648,648,0.5586273052527048,0.6,1.0,1.0,494.0,954.0,1.0,1,282.0,1
649,649,0.7140296294197191,0.7,0.0,0.0,298.0,854.0,0.0,1,158.0,1
650,650,0.7598833843494949,0.8,1.0,1.0,346.0,774.0,1.0,1,140.0,1
651,651,0.8629526219792879,0.9,0.0,0.0,299.0,849.0,0.0,1,392.0,1
652,652,-0.28398134179159196,-0.3,0.0,1.0,382.0,781.0,1.0,0,1567.0,1
653,653,0.3663823990161047,0.4,1.0,1.0,444.0,690.0,1.0,1,356.0,1
654,654,0.34732890867724364,0.3,1.0,1.0,462.0,746.0,1.0,1,572.0,1
655,655,0.7218973352825645,0.7,1.0,1.0,413.0,587.0,1.0,1,520.0,1
656,656,-0.5062992792371788,-0.5,1.0,0.0,464.0,649.0,0.0,0,567.0,1
657,657,0.3027683242099152,0.3,0.0,0.0,445.0,714.0,0.0,1,811.0,1
658,658,-0.7639403283338388,-0.8,1.0,0.0,393.0,605.0,0.0,0,472.0,1
659,659,-0.2396980976641645,-0.2,1.0,0.0,348.0,540.0,0.0,0,782.0,1
660,660,0.19307133719294567,0.2,1.0,1.0,475.0,898.0,1.0,1,287.0,1
661,661,-0.45356061221178984,-0.5,1.0,0.0,458.0,801.0,0.0,0,271.0,1
662,662,0.4118761387701112,0.4,1.0,1.0,433.0,830.0,1.0,1,267.0,1
663,663,0.4710985379009246,0.5,0.0,0.0,442.0,822.0,0.0,1,366.0,1
664,664,-0.712133210701895,-0.7,0.0,1.0,319.0,939.0,1.0,0,142.0,1
665,665,-0.5063503512618764,-0.5,1.0,0.0,351.0,812.0,0.0,0,227.0,1
666,666,0.043299340519514895,0.0,0.0,0.0,412.0,924.0,0.0,1,2524.0,1
667,667,-0.02504169118147581,-0.0,0.0,1.0,351.0,509.0,1.0,0,910.0,1
668,668,0.8075979228846769,0.8,0.0,0.0,358.0,850.0,0.0,1,382.0,1
669,669,-0.7848615328866198,-0.8,1.0,0.0,286.0,778.0,0.0,0,216.0,1
670,670,0.08033837292378643,0.1,1.0,1.0,435.0,974.0,1.0,1,391.0,1
671,671,0.37690571811671136,0.4,1.0,1.0,250.0,550.0,1.0,1,620.0,1
672,672,-0.4343018881009369,-0.4,0.0,1.0,265.0,775.0,1.0,0,490.0,1
673,673,-0.24504062185251985,-0.2,1.0,0.0,376.0,677.0,0.0,0,387.0,1
674,674,-0.27791785022278637,-0.3,0.0,1.0,399.0,578.0,1.0,0,413.0,1
675,675,0.2366889283036394,0.2,1.0,1.0,470.0,581.0,1.0,1,409.0,1
676,676,0.16198565811645171,0.2,0.0,0.0,289.0,961.0,0.0,1,540.0,1
677,677,0.33580758837298286,0.3,1.0,1.0,358.0,563.0,1.0,1,539.0,1
678,678,-0.35442802579493615,-0.4,1.0,0.0,410.0,672.0,0.0,0,778.0,1
679,679,-0.3632641285722643,-0.4,1.0,0.0,361.0,967.0,1.0,1,92.0,0
680,680,-0.19341658485667257,-0.2,1.0,0.0,485.0,654.0,0.0,0,781.0,1
681,681,0.6908898477732331,0.7,1.0,1.0,273.0,866.0,1.0,1,291.0,1
682,682,-0.8569235972690128,-0.9,1.0,0.0,311.0,891.0,0.0,0,68.0,1
683,683,-0.5842500217974209,-0.6,1.0,0.0,473.0,705.0,0.0,0,412.0,1
684,684,0.7727364265674407,0.8,1.0,1.0,311.0,619.0,1.0,1,430.0,1
685,685,-0.022414589211173452,-0.0,1.0,0.0,355.0,708.0,0.0,0,1037.0,1
686,686,0.5113222302983246,0.5,1.0,1.0,285.0,688.0,1.0,1,537.0,1
687,687,-0.8477470025810926,-0.8,1.0,0.0,481.0,678.0,0.0,0,311.0,1
688,688,0.1903129364310686,0.2,1.0,1.0,335.0,527.0,1.0,1,978.0,1
689,689,-0.07413965862504535,-0.1,0.0,1.0,469.0,962.0,1.0,0,439.0,1
690,690,0.1518972931496948,0.2,1.0,1.0,469.0,684.0,1.0,1,777.0,1
691,691,-0.2780523793762125,-0.3,0.0,1.0,348.0,877.0,1.0,0,305.0,1
692,692,0.07776654577989739,0.1,1.0,1.0,389.0,874.0,0.0,0,1127.0,0
693,693,0.5277624182241533,0.5,1.0,1.0,375.0,952.0,1.0,1,143.0,1
694,694,0.05184889206355159,0.1,0.0,0.0,330.0,819.0,0.0,1,651.0,1
695,695,-0.27773706085037275,-0.3,1.0,0.0,308.0,634.0,0.0,0,568.0,1
696,696,0.4627828430023678,0.5,1.0,1.0,462.0,633.0,1.0,1,455.0,1
697,697,-0.03669853313647953,-0.0,0.0,1.0,287.0,642.0,1.0,0,1371.0,1
698,698,-0.03986611621485714,-0.0,1.0,0.0,454.0,536.0,1.0,1,800.0,0
699,699,0.5348779829147489,0.5,0.0,0.0,411.0,923.0,0.0,1,346.0,1
700,700,0.08753416837685557,0.1,0.0,0.0,460.0,693.0,1.0,0,557.0,0
701,701,0.0053339333784648835,0.0,1.0,1.0,260.0,853.0,0.0,0,957.0,0
702,702,0.03708059002780428,0.0,0.0,0.0,403.0,687.0,1.0,0,2700.0,0
703,703,0.15275502427734533,0.2,0.0,0.0,452.0,731.0,1.0,0,837.0,0
704,704,-0.18932240164772995,-0.2,0.0,1.0,283.0,875.0,1.0,0,972.0,1
705,705,0.008363930220044002,0.0,0.0,0.0,297.0,605.0,1.0,0,618.0,0
706,706,-0.8758532333257203,-0.9,1.0,0.0,340.0,587.0,0.0,0,483.0,1
707,707,0.18274415692925128,0.2,1.0,1.0,279.0,928.0,1.0,1,743.0,1
708,708,-0.8307408037121905,-0.8,0.0,1.0,269.0,664.0,1.0,0,337.0,1
709,709,-0.822373193731385,-0.8,1.0,0.0,282.0,678.0,0.0,0,520.0,1
710,710,0.6504632294775979,0.7,0.0,0.0,402.0,756.0,0.0,1,432.0,1
711,711,-0.8248393466376166,-0.8,1.0,0.0,441.0,974.0,0.0,0,115.0,1
712,712,-0.2512709475210493,-0.3,1.0,0.0,359.0,983.0,0.0,0,248.0,1
713,713,0.8704847592070114,0.9,0.0,0.0,281.0,562.0,0.0,1,547.0,1
714,714,-0.8249536676118657,-0.8,1.0,0.0,267.0,680.0,0.0,0,483.0,1
715,715,0.8860211432176114,0.9,0.0,0.0,455.0,856.0,0.0,1,409.0,1
716,716,-0.30639945903983723,-0.3,1.0,0.0,339.0,911.0,0.0,0,170.0,1
717,717,-0.5756653353867016,-0.6,0.0,1.0,406.0,559.0,1.0,0,485.0,1
718,718,-0.30781922766605285,-0.3,1.0,0.0,354.0,588.0,0.0,0,538.0,1
719,719,-0.30220024074443996,-0.3,0.0,1.0,448.0,520.0,1.0,0,1422.0,1
720,720,-0.351964142464789,-0.4,0.0,1.0,284.0,645.0,1.0,0,1631.0,1
721,721,-0.029919968146460918,-0.0,1.0,0.0,390.0,803.0,0.0,0,1717.0,1
722,722,0.8413490170653716,0.8,0.0,0.0,319.0,547.0,0.0,1,854.0,1
723,723,0.8861447540171917,0.9,1.0,1.0,254.0,894.0,1.0,1,112.0,1
724,724,-0.1851405342388378,-0.2,0.0,1.0,429.0,931.0,1.0,0,400.0,1
725,725,0.058974909466261605,0.1,0.0,0.0,399.0,856.0,1.0,0,805.0,0
726,726,0.7416801584743217,0.7,0.0,0.0,266.0,565.0,0.0,1,699.0,1
727,727,-0.563390346920071,-0.6,0.0,1.0,341.0,803.0,1.0,0,396.0,1
728,728,-0.314376938890936,-0.3,0.0,1.0,335.0,707.0,1.0,0,618.0,1
729,729,0.06640850107671814,0.1,0.0,0.0,491.0,783.0,0.0,1,456.0,1
730,730,-0.5378912066982717,-0.5,0.0,1.0,298.0,726.0,1.0,0,406.0,1
731,731,-0.21127555921957686,-0.2,1.0,0.0,265.0,548.0,0.0,0,397.0,1
732,732,-0.1894629034168671,-0.2,1.0,0.0,429.0,895.0,0.0,0,376.0,1
733,733,-0.44539692380222456,-0.4,1.0,0.0,252.0,511.0,0.0,0,677.0,1
734,734,-0.4752256278344386,-0.5,0.0,1.0,467.0,687.0,1.0,0,266.0,1
735,735,0.4733311834535586,0.5,0.0,0.0,308.0,502.0,0.0,1,1110.0,1
736,736,0.7488663362597451,0.7,0.0,0.0,355.0,854.0,0.0,1,101.0,1
737,737,0.10198505913159772,0.1,1.0,1.0,496.0,693.0,1.0,1,651.0,1
738,738,-0.7580179178622053,-0.8,0.0,1.0,340.0,807.0,1.0,0,273.0,1
739,739,-0.36765647864280726,-0.4,1.0,0.0,276.0,556.0,0.0,0,378.0,1
740,740,-0.35156149323788255,-0.4,1.0,0.0,450.0,775.0,0.0,0,415.0,1
741,741,-0.8670121398625724,-0.9,0.0,1.0,448.0,671.0,1.0,0,281.0,1
742,742,0.5167416690718066,0.5,0.0,0.0,436.0,820.0,0.0,1,424.0,1
743,743,-0.6298339957704892,-0.6,0.0,1.0,459.0,886.0,1.0,0,235.0,1
744,744,-0.5022301125113493,-0.5,0.0,1.0,280.0,830.0,1.0,0,280.0,1
745,745,-0.7032588479126338,-0.7,0.0,1.0,413.0,979.0,1.0,0,208.0,1
746,746,-0.6713620771638786,-0.7,0.0,1.0,378.0,604.0,1.0,0,598.0,1
747,747,0.44984006431408885,0.4,1.0,1.0,443.0,972.0,1.0,1,255.0,1
748,748,-0.65053498856503,-0.7,0.0,1.0,273.0,745.0,1.0,0,342.0,1
749,749,0.053588207542530464,0.1,0.0,0.0,479.0,656.0,0.0,1,1945.0,1
750,750,0.5126021102552475,0.5,0.0,0.0,291.0,550.0,0.0,1,499.0,1
751,751,0.017533098588810248,0.0,0.0,0.0,389.0,881.0,0.0,1,2810.0,1
752,752,0.7114835300597461,0.7,1.0,1.0,280.0,576.0,1.0,1,444.0,1
753,753,0.1574717281130512,0.2,0.0,0.0,349.0,582.0,0.0,1,1319.0,1
754,754,0.6835786112715198,0.7,1.0,1.0,294.0,652.0,1.0,1,374.0,1
755,755,-0.18491608980899987,-0.2,1.0,0.0,278.0,979.0,0.0,0,353.0,1
756,756,0.2303514581490308,0.2,0.0,0.0,393.0,730.0,0.0,1,377.0,1
757,757,0.3321893364430627,0.3,0.0,0.0,415.0,514.0,0.0,1,401.0,1
758,758,0.551547638060894,0.6,0.0,0.0,462.0,699.0,0.0,1,289.0,1
759,759,0.26830139841094647,0.3,1.0,1.0,380.0,682.0,1.0,1,588.0,1
760,760,-0.5291883583778004,-0.5,1.0,0.0,405.0,808.0,0.0,0,287.0,1
761,761,0.5665234358804091,0.6,0.0,0.0,254.0,901.0,0.0,1,145.0,1
762,762,0.8491633340554335,0.8,0.0,0.0,391.0,553.0,0.0,1,586.0,1
763,763,0.4625750661583866,0.5,0.0,0.0,256.0,717.0,0.0,1,357.0,1
764,764,0.3188620414468665,0.3,0.0,0.0,332.0,567.0,0.0,1,681.0,1
765,765,-0.6025439316574979,-0.6,0.0,1.0,431.0,915.0,1.0,0,334.0,1
766,766,-0.2655044272303555,-0.3,0.0,1.0,345.0,811.0,1.0,0,334.0,1
767,767,-0.7893538644393818,-0.8,0.0,1.0,427.0,727.0,1.0,0,326.0,1
768,768,0.6070738719544256,0.6,0.0,0.0,468.0,920.0,0.0,1,142.0,1
769,769,-0.10494127197962044,-0.1,1.0,0.0,250.0,609.0,0.0,0,551.0,1
770,770,0.14682820545367592,0.1,1.0,1.0,446.0,810.0,0.0,0,624.0,0
771,771,-0.2732297122348355,-0.3,0.0,1.0,297.0,625.0,1.0,0,588.0,1
772,772,0.8358884038451279,0.8,1.0,1.0,444.0,752.0,1.0,1,334.0,1
773,773,0.8483597200545981,0.8,1.0,1.0,481.0,747.0,1.0,1,232.0,1
774,774,-0.8234748563473121,-0.8,1.0,0.0,408.0,949.0,0.0,0,93.0,1
775,775,-0.3229064222843748,-0.3,1.0,0.0,489.0,652.0,0.0,0,1049.0,1
776,776,-0.8616305071779287,-0.9,0.0,1.0,379.0,806.0,1.0,0,275.0,1
777,777,0.42127789281424055,0.4,1.0,1.0,393.0,519.0,1.0,1,528.0,1
778,778,0.7880127597581886,0.8,1.0,1.0,349.0,670.0,1.0,1,241.0,1
779,779,0.37292074477985004,0.4,0.0,0.0,438.0,702.0,0.0,1,550.0,1
780,780,0.5802685045836901,0.6,0.0,0.0,284.0,826.0,0.0,1,650.0,1
781,781,0.2646776761366617,0.3,1.0,1.0,341.0,840.0,1.0,1,669.0,1
782,782,-0.2873382692558052,-0.3,0.0,1.0,423.0,644.0,1.0,0,513.0,1
783,783,-0.21165217178554385,-0.2,1.0,0.0,258.0,853.0,0.0,0,229.0,1
784,784,-0.1277971497842305,-0.1,0.0,1.0,341.0,785.0,0.0,1,1614.0,0
785,785,0.2999736649885195,0.3,0.0,0.0,389.0,513.0,0.0,1,788.0,1
786,786,0.5720779373181851,0.6,1.0,1.0,289.0,576.0,1.0,1,565.0,1
787,787,0.1762222505985952,0.2,0.0,0.0,321.0,689.0,0.0,1,680.0,1
788,788,0.831110970405117,0.8,0.0,0.0,414.0,926.0,0.0,1,340.0,1
789,789,-0.5876864505870006,-0.6,1.0,0.0,272.0,528.0,0.0,0,410.0,1
790,790,0.001617922615648304,0.0,1.0,1.0,497.0,843.0,0.0,0,410.0,0
791,791,-0.683494687833553,-0.7,1.0,0.0,474.0,969.0,0.0,0,247.0,1
792,792,-0.005851788541852421,-0.0,1.0,0.0,347.0,767.0,1.0,1,956.0,0
793,793,0.1238789708552176,0.1,1.0,1.0,468.0,783.0,1.0,1,319.0,1
794,794,0.29487003820354485,0.3,0.0,0.0,496.0,705.0,0.0,1,299.0,1
795,795,0.4636602900504446,0.5,1.0,1.0,307.0,572.0,1.0,1,681.0,1
796,796,0.8941165825570457,0.9,0.0,0.0,433.0,838.0,0.0,1,209.0,1
797,797,-0.23861027490579734,-0.2,1.0,0.0,457.0,582.0,0.0,0,681.0,1
798,798,0.3884987350510488,0.4,0.0,0.0,306.0,963.0,0.0,1,481.0,1
799,799,0.5345453112012534,0.5,1.0,1.0,340.0,927.0,1.0,1,1153.0,1
800,800,0.6391000520511884,0.6,1.0,1.0,302.0,883.0,1.0,1,215.0,1
801,801,-0.33068024313681477,-0.3,0.0,1.0,402.0,653.0,1.0,0,545.0,1
802,802,-0.8805838903598925,-0.9,0.0,1.0,399.0,760.0,1.0,0,361.0,1
803,803,-0.46303974355727545,-0.5,1.0,0.0,462.0,701.0,0.0,0,357.0,1
804,804,-0.6501750764130195,-0.7,0.0,1.0,302.0,628.0,1.0,0,330.0,1
805,805,-0.7639009741502489,-0.8,1.0,0.0,432.0,996.0,0.0,0,212.0,1
806,806,0.894975972066412,0.9,1.0,1.0,424.0,833.0,1.0,1,123.0,1
807,807,0.13188760591351378,0.1,1.0,1.0,487.0,746.0,1.0,1,297.0,1
808,808,-0.1723288736294748,-0.2,1.0,0.0,485.0,702.0,0.0,0,423.0,1
809,809,0.24575833867873065,0.2,0.0,0.0,315.0,511.0,0.0,1,474.0,1
810,810,-0.8321100212536233,-0.8,0.0,1.0,486.0,813.0,1.0,0,401.0,1
811,811,-0.7463811964484335,-0.7,0.0,1.0,376.0,532.0,1.0,0,502.0,1
812,812,-0.331900899698233,-0.3,1.0,0.0,394.0,728.0,0.0,0,468.0,1
813,813,-0.4916960366029091,-0.5,1.0,0.0,289.0,597.0,0.0,0,454.0,1
814,814,-0.5344020850455484,-0.5,1.0,0.0,287.0,913.0,0.0,0,240.0,1
815,815,-0.15064651774588245,-0.2,1.0,0.0,332.0,525.0,0.0,0,763.0,1
816,816,0.032632355906558774,0.0,1.0,1.0,436.0,719.0,1.0,1,465.0,1
817,817,-0.16503493006832637,-0.2,0.0,1.0,310.0,969.0,1.0,0,401.0,1
818,818,-0.46475104308129245,-0.5,1.0,0.0,424.0,870.0,0.0,0,536.0,1
819,819,0.1933704860362312,0.2,0.0,0.0,441.0,977.0,0.0,1,112.0,1
820,820,0.3720268133550545,0.4,1.0,1.0,423.0,813.0,1.0,1,224.0,1
821,821,0.5875794369269968,0.6,1.0,1.0,292.0,746.0,1.0,1,412.0,1
822,822,0.6610387904571883,0.7,1.0,1.0,426.0,513.0,1.0,1,471.0,1
823,823,-0.2853971001659228,-0.3,0.0,1.0,383.0,891.0,1.0,0,186.0,1
824,824,0.3028175344178664,0.3,1.0,1.0,487.0,557.0,1.0,1,576.0,1
825,825,0.10272062797428416,0.1,1.0,1.0,280.0,525.0,1.0,1,1435.0,1
826,826,-0.36191413477820267,-0.4,0.0,1.0,456.0,956.0,1.0,0,828.0,1
827,827,0.8687619942516686,0.9,1.0,1.0,419.0,728.0,1.0,1,493.0,1
828,828,-0.3614859205344275,-0.4,1.0,0.0,275.0,902.0,0.0,0,273.0,1
829,829,0.7533644853354843,0.8,1.0,1.0,403.0,793.0,1.0,1,364.0,1
830,830,0.8431188077011617,0.8,0.0,0.0,252.0,640.0,0.0,1,328.0,1
831,831,-0.5204472896265848,-0.5,1.0,0.0,412.0,633.0,0.0,0,355.0,1
832,832,-0.11560065670732744,-0.1,1.0,0.0,278.0,687.0,0.0,0,855.0,1
833,833,0.7831302295863382,0.8,1.0,1.0,382.0,833.0,1.0,1,325.0,1
834,834,0.0667323242600365,0.1,0.0,0.0,354.0,931.0,0.0,1,105.0,1
835,835,0.04236918812581991,0.0,1.0,1.0,453.0,912.0,1.0,1,65.0,1
836,836,0.5505474713759492,0.6,1.0,1.0,270.0,736.0,1.0,1,414.0,1
837,837,-0.11288644622673327,-0.1,1.0,0.0,308.0,864.0,0.0,0,468.0,1
838,838,-0.45951274084972893,-0.5,1.0,0.0,409.0,559.0,0.0,0,532.0,1
839,839,0.5793108044797973,0.6,1.0,1.0,272.0,854.0,1.0,1,514.0,1
840,840,0.39914372591959857,0.4,1.0,1.0,342.0,796.0,1.0,1,402.0,1
841,841,0.26943483956587333,0.3,0.0,0.0,311.0,852.0,0.0,1,477.0,1
842,842,0.18585842906132177,0.2,1.0,1.0,264.0,946.0,1.0,1,260.0,1
843,843,-0.5031606294287516,-0.5,0.0,1.0,349.0,658.0,1.0,0,413.0,1
844,844,-0.8722284438022488,-0.9,0.0,1.0,487.0,687.0,1.0,0,246.0,1
845,845,-0.8337687405775697,-0.8,1.0,0.0,294.0,698.0,0.0,0,218.0,1
846,846,0.5659355604638444,0.6,0.0,0.0,426.0,916.0,0.0,1,278.0,1
847,847,0.7621455056061549,0.8,0.0,0.0,395.0,883.0,0.0,1,332.0,1
848,848,-0.820596849432266,-0.8,1.0,0.0,351.0,806.0,0.0,0,123.0,1
849,849,-0.19259108725247298,-0.2,1.0,0.0,269.0,749.0,0.0,0,372.0,1
850,850,-0.4215364007254003,-0.4,1.0,0.0,451.0,928.0,0.0,0,461.0,1
851,851,-0.43234666616514733,-0.4,0.0,1.0,256.0,864.0,1.0,0,630.0,1
852,852,-0.8271882050824053,-0.8,0.0,1.0,318.0,784.0,1.0,0,488.0,1
853,853,0.2772727580719275,0.3,1.0,1.0,367.0,690.0,1.0,1,333.0,1
854,854,0.11306743301264988,0.1,0.0,0.0,363.0,673.0,0.0,1,1004.0,1
855,855,0.6401838760265092,0.6,0.0,0.0,458.0,743.0,0.0,1,939.0,1
856,856,0.33438597188540664,0.3,0.0,0.0,297.0,971.0,0.0,1,332.0,1
857,857,-0.3620166682599162,-0.4,0.0,1.0,267.0,796.0,1.0,0,377.0,1
858,858,0.2300059022664892,0.2,0.0,0.0,298.0,921.0,0.0,1,181.0,1
859,859,-0.20734680370885528,-0.2,0.0,1.0,262.0,851.0,1.0,0,1147.0,1
860,860,-0.7412314991616175,-0.7,1.0,0.0,460.0,869.0,0.0,0,61.0,1
861,861,0.27217326645102247,0.3,0.0,0.0,465.0,712.0,0.0,1,1793.0,1
862,862,-0.3786118166497934,-0.4,0.0,1.0,485.0,765.0,1.0,0,720.0,1
863,863,0.287139680661905,0.3,1.0,1.0,464.0,863.0,1.0,1,443.0,1
864,864,-0.4145786722320192,-0.4,0.0,1.0,438.0,538.0,1.0,0,444.0,1
865,865,0.4957996894929061,0.5,0.0,0.0,460.0,756.0,0.0,1,364.0,1
866,866,-0.33580304735332556,-0.3,0.0,1.0,268.0,661.0,1.0,0,371.0,1
867,867,0.8187012720845642,0.8,1.0,1.0,301.0,882.0,1.0,1,237.0,1
868,868,-0.6195975162365817,-0.6,0.0,1.0,425.0,709.0,1.0,0,506.0,1
869,869,0.6982974990010066,0.7,1.0,1.0,411.0,513.0,1.0,1,416.0,1
870,870,0.15521940590276728,0.2,1.0,1.0,459.0,774.0,1.0,1,347.0,1
871,871,0.7499434247215212,0.7,1.0,1.0,478.0,810.0,1.0,1,422.0,1
872,872,-0.5353428684429041,-0.5,0.0,1.0,445.0,694.0,1.0,0,361.0,1
873,873,-0.4223040643122202,-0.4,0.0,1.0,292.0,926.0,1.0,0,152.0,1
874,874,-0.4931787482563496,-0.5,1.0,0.0,412.0,974.0,0.0,0,434.0,1
875,875,0.5069563759891446,0.5,0.0,0.0,449.0,798.0,0.0,1,623.0,1
876,876,0.664349615331986,0.7,0.0,0.0,334.0,885.0,0.0,1,251.0,1
877,877,0.7305697298928305,0.7,1.0,1.0,407.0,856.0,1.0,1,237.0,1
878,878,0.6517148328238639,0.7,0.0,0.0,345.0,549.0,0.0,1,556.0,1
879,879,-0.538196019686038,-0.5,0.0,1.0,273.0,941.0,1.0,0,376.0,1
880,880,0.24951837911041153,0.2,1.0,1.0,288.0,653.0,1.0,1,489.0,1
881,881,0.8002264693657796,0.8,0.0,0.0,454.0,756.0,0.0,1,330.0,1
882,882,-0.6115059049335736,-0.6,0.0,1.0,498.0,565.0,1.0,0,367.0,1
883,883,-0.5749954131439019,-0.6,1.0,0.0,474.0,864.0,0.0,0,572.0,1
884,884,0.6367894020887869,0.6,1.0,1.0,317.0,525.0,1.0,1,478.0,1
885,885,0.20976847387837017,0.2,0.0,0.0,365.0,517.0,0.0,1,938.0,1
886,886,0.11209779577993995,0.1,0.0,0.0,437.0,872.0,0.0,1,661.0,1
887,887,-0.00023351888225364714,-0.0,0.0,1.0,334.0,950.0,0.0,1,56.0,0
888,888,-0.8575273653803364,-0.9,1.0,0.0,486.0,926.0,0.0,0,178.0,1
889,889,0.7637853296159337,0.8,1.0,1.0,429.0,999.0,1.0,1,322.0,1
890,890,0.6044873904782376,0.6,1.0,1.0,333.0,560.0,1.0,1,317.0,1
891,891,-0.7878230574746542,-0.8,0.0,1.0,301.0,509.0,1.0,0,650.0,1
892,892,0.3163588661642366,0.3,1.0,1.0,314.0,539.0,1.0,1,427.0,1
893,893,-0.23312767118668454,-0.2,1.0,0.0,423.0,601.0,0.0,0,736.0,1
894,894,0.4756986785295313,0.5,1.0,1.0,269.0,677.0,1.0,1,684.0,1
895,895,0.12555964116753338,0.1,0.0,0.0,296.0,843.0,0.0,1,211.0,1
896,896,0.45418474907077855,0.5,1.0,1.0,362.0,714.0,1.0,1,464.0,1
897,897,0.18296352239227576,0.2,0.0,0.0,306.0,682.0,0.0,1,482.0,1
898,898,0.7649295312171237,0.8,0.0,0.0,390.0,911.0,0.0,1,119.0,1
899,899,0.7924842749559292,0.8,1.0,1.0,415.0,637.0,1.0,1,358.0,1
900,900,0.1423478322243944,0.1,1.0,1.0,274.0,852.0,1.0,1,754.0,1
901,901,-0.4215763717989377,-0.4,1.0,0.0,498.0,595.0,0.0,0,567.0,1
902,902,-0.7564093819087918,-0.8,0.0,1.0,390.0,830.0,1.0,0,180.0,1
903,903,0.6678546344035511,0.7,0.0,0.0,463.0,747.0,0.0,1,260.0,1
904,904,-0.05239965384601186,-0.1,1.0,0.0,487.0,862.0,0.0,0,551.0,1
905,905,-0.7739617532290292,-0.8,1.0,0.0,340.0,871.0,0.0,0,129.0,1
906,906,-0.7347322838214536,-0.7,0.0,1.0,268.0,705.0,1.0,0,607.0,1
907,907,0.628448514246308,0.6,1.0,1.0,448.0,594.0,1.0,1,338.0,1
908,908,-0.6698791106560813,-0.7,1.0,0.0,434.0,906.0,0.0,0,280.0,1
909,909,0.09493891245813968,0.1,1.0,1.0,341.0,533.0,1.0,1,626.0,1
910,910,-0.2776528831844691,-0.3,0.0,1.0,305.0,618.0,1.0,0,737.0,1
911,911,0.3971569314036306,0.4,1.0,1.0,325.0,592.0,1.0,1,573.0,1
912,912,0.6509509052621948,0.7,0.0,0.0,379.0,722.0,0.0,1,389.0,1
913,913,0.28010703464031994,0.3,0.0,0.0,279.0,858.0,0.0,1,933.0,1
914,914,0.39641331723903506,0.4,0.0,0.0,470.0,774.0,0.0,1,316.0,1
915,915,-0.6574256570381435,-0.7,0.0,1.0,306.0,935.0,1.0,0,509.0,1
916,916,0.37976765644266053,0.4,0.0,0.0,343.0,607.0,0.0,1,840.0,1
917,917,-0.408875061004792,-0.4,0.0,1.0,484.0,927.0,1.0,0,429.0,1
918,918,-0.5635821196047026,-0.6,0.0,1.0,374.0,659.0,1.0,0,507.0,1
919,919,0.585696364267824,0.6,1.0,1.0,289.0,762.0,1.0,1,369.0,1
920,920,-0.32850778571989636,-0.3,0.0,1.0,456.0,876.0,1.0,0,328.0,1
921,921,-0.7417410356531531,-0.7,1.0,0.0,381.0,971.0,0.0,0,168.0,1
922,922,0.6224046221138285,0.6,0.0,0.0,404.0,811.0,0.0,1,345.0,1
923,923,0.757609467908546,0.8,0.0,0.0,477.0,966.0,0.0,1,477.0,1
924,924,0.0874372246368984,0.1,0.0,0.0,462.0,718.0,1.0,0,1090.0,0
925,925,-0.41811443103762774,-0.4,1.0,0.0,334.0,965.0,0.0,0,811.0,1
926,926,-0.5882743750720363,-0.6,0.0,1.0,443.0,815.0,1.0,0,672.0,1
927,927,-0.024949327881731986,-0.0,1.0,0.0,413.0,790.0,1.0,1,337.0,0
928,928,-0.5246186693949677,-0.5,0.0,1.0,260.0,908.0,1.0,0,142.0,1
929,929,-0.5487294104452909,-0.5,1.0,0.0,305.0,912.0,0.0,0,263.0,1
930,930,0.029520473084403753,0.0,1.0,1.0,307.0,672.0,1.0,1,2091.0,1
931,931,-0.7808388256592451,-0.8,0.0,1.0,499.0,797.0,1.0,0,324.0,1
932,932,-0.20175740725868474,-0.2,0.0,1.0,441.0,676.0,1.0,0,713.0,1
933,933,0.5773059600776055,0.6,1.0,1.0,403.0,521.0,1.0,1,376.0,1
934,934,-0.5157967753691117,-0.5,1.0,0.0,459.0,663.0,0.0,0,388.0,1
935,935,-0.580820777341896,-0.6,0.0,1.0,416.0,530.0,1.0,0,444.0,1
936,936,-0.8665830022136461,-0.9,1.0,0.0,420.0,516.0,0.0,0,804.0,1
937,937,0.6417608800622617,0.6,1.0,1.0,452.0,816.0,1.0,1,282.0,1
938,938,-0.7446500050730467,-0.7,0.0,1.0,299.0,584.0,1.0,0,517.0,1
939,939,0.8167891607963008,0.8,1.0,1.0,426.0,986.0,1.0,1,198.0,1
940,940,-0.5836831918350405,-0.6,0.0,1.0,433.0,686.0,1.0,0,471.0,1
941,941,-0.08066885079071162,-0.1,0.0,1.0,494.0,627.0,1.0,0,969.0,1
942,942,0.10126373563407143,0.1,1.0,1.0,314.0,924.0,1.0,1,662.0,1
943,943,0.28097487189684023,0.3,0.0,0.0,298.0,703.0,0.0,1,539.0,1
944,944,0.30837041048769087,0.3,1.0,1.0,344.0,722.0,1.0,1,514.0,1
945,945,0.02901925601390276,0.0,0.0,0.0,488.0,899.0,0.0,1,1793.0,1
946,946,-0.1282692334477531,-0.1,1.0,0.0,295.0,896.0,0.0,0,849.0,1
947,947,0.24486849878431094,0.2,1.0,1.0,280.0,655.0,1.0,1,495.0,1
948,948,0.014868155123810234,0.0,1.0,1.0,375.0,586.0,0.0,0,529.0,0
949,949,-0.41899409965776374,-0.4,0.0,1.0,394.0,626.0,1.0,0,470.0,1
950,950,-0.43214664639143735,-0.4,1.0,0.0,473.0,864.0,0.0,0,153.0,1
951,951,0.07401946868611042,0.1,0.0,0.0,297.0,941.0,0.0,1,452.0,1
952,952,-0.6280060416644052,-0.6,1.0,0.0,439.0,783.0,0.0,0,298.0,1
953,953,0.22173579583868508,0.2,0.0,0.0,418.0,641.0,0.0,1,441.0,1
954,954,0.2343861311287353,0.2,1.0,1.0,408.0,971.0,1.0,1,391.0,1
955,955,0.6404867640108286,0.6,1.0,1.0,276.0,718.0,1.0,1,286.0,1
956,956,-0.8764696317435222,-0.9,0.0,1.0,487.0,809.0,1.0,0,144.0,1
957,957,0.07767669284542711,0.1,0.0,0.0,348.0,905.0,1.0,0,2027.0,0
958,958,0.5295685123453352,0.5,0.0,0.0,405.0,990.0,0.0,1,325.0,1
959,959,0.7101203280035203,0.7,0.0,0.0,329.0,742.0,0.0,1,359.0,1
960,960,-0.08509365008993397,-0.1,1.0,0.0,363.0,760.0,0.0,0,207.0,1
961,961,-0.733816490932163,-0.7,0.0,1.0,393.0,942.0,1.0,0,85.0,1
962,962,0.5256510856382081,0.5,1.0,1.0,442.0,634.0,1.0,1,344.0,1
963,963,0.1795096270064963,0.2,1.0,1.0,445.0,534.0,1.0,1,721.0,1
964,964,0.41981609904006356,0.4,1.0,1.0,313.0,539.0,1.0,1,608.0,1
965,965,0.6922713102568677,0.7,0.0,0.0,473.0,924.0,0.0,1,283.0,1
966,966,0.2858413493664197,0.3,1.0,1.0,421.0,763.0,1.0,1,916.0,1
967,967,0.5975599676902045,0.6,1.0,1.0,326.0,991.0,1.0,1,213.0,1
968,968,-0.3834595893145937,-0.4,0.0,1.0,422.0,504.0,1.0,0,964.0,1
969,969,0.5393478980212559,0.5,0.0,0.0,411.0,635.0,0.0,1,514.0,1
970,970,0.15540674123008136,0.2,0.0,0.0,367.0,996.0,1.0,0,317.0,0
971,971,-0.46226754624475125,-0.5,0.0,1.0,379.0,722.0,1.0,0,519.0,1
972,972,0.7151328653587207,0.7,0.0,0.0,484.0,538.0,0.0,1,758.0,1
973,973,-0.8655824301110302,-0.9,0.0,1.0,423.0,922.0,1.0,0,205.0,1
974,974,-0.6469405652570361,-0.6,0.0,1.0,385.0,856.0,1.0,0,609.0,1
975,975,-0.06263721640265107,-0.1,0.0,1.0,483.0,512.0,1.0,0,725.0,1
976,976,-0.0620342579074451,-0.1,1.0,0.0,478.0,759.0,0.0,0,863.0,1
977,977,0.32831807460202767,0.3,1.0,1.0,397.0,847.0,1.0,1,316.0,1
978,978,0.5560806774560537,0.6,0.0,0.0,337.0,531.0,0.0,1,742.0,1
979,979,-0.18425639948197037,-0.2,0.0,1.0,459.0,595.0,1.0,0,926.0,1
980,980,0.27997858366666317,0.3,0.0,0.0,360.0,531.0,0.0,1,1109.0,1
981,981,-0.3843389340341221,-0.4,0.0,1.0,292.0,812.0,1.0,0,296.0,1
982,982,-0.27275291226957654,-0.3,1.0,0.0,340.0,820.0,0.0,0,550.0,1
983,983,-0.8619365274382615,-0.9,0.0,1.0,316.0,584.0,1.0,0,400.0,1
984,984,-0.1671408749718104,-0.2,0.0,1.0,264.0,785.0,0.0,1,211.0,0
985,985,-0.8066957781160267,-0.8,0.0,1.0,459.0,908.0,1.0,0,143.0,1
986,986,-0.5964363351058519,-0.6,1.0,0.0,477.0,641.0,0.0,0,942.0,1
987,987,0.5264813859787213,0.5,1.0,1.0,452.0,945.0,1.0,1,203.0,1
988,988,0.45918814815717146,0.5,0.0,0.0,430.0,619.0,0.0,1,391.0,1
989,989,-0.6296302175879698,-0.6,1.0,0.0,309.0,970.0,0.0,0,231.0,1
990,990,0.21446119980679146,0.2,1.0,1.0,294.0,910.0,1.0,1,446.0,1
991,991,-0.3771234393026043,-0.4,0.0,1.0,277.0,686.0,1.0,0,1217.0,1
992,992,0.391218152403623,0.4,1.0,1.0,374.0,643.0,1.0,1,553.0,1
993,993,0.3140607382884376,0.3,1.0,1.0,456.0,850.0,1.0,1,464.0,1
994,994,0.8946022007211384,0.9,0.0,0.0,329.0,730.0,0.0,1,451.0,1
995,995,0.33307829568420144,0.3,0.0,0.0,277.0,843.0,0.0,1,410.0,1
996,996,-0.4062187709679191,-0.4,0.0,1.0,318.0,962.0,1.0,0,350.0,1
997,997,-0.3649079001714629,-0.4,1.0,0.0,433.0,615.0,0.0,0,702.0,1
998,998,0.39944703554638294,0.4,0.0,0.0,410.0,836.0,0.0,1,324.0,1
999,999,0.5412407988351987,0.5,1.0,1.0,273.0,819.0,1.0,1,408.0,1
1000,1000,0.0800770120171913,0.1,0.0,0.0,415.0,653.0,0.0,1,712.0,1
1001,1001,-0.27424234972347983,-0.3,1.0,0.0,458.0,546.0,0.0,0,786.0,1
1002,1002,0.786993207005258,0.8,1.0,1.0,319.0,627.0,1.0,1,294.0,1
1003,1003,-0.5957499580605667,-0.6,1.0,0.0,309.0,675.0,0.0,0,266.0,1
1004,1004,-0.10800725345534268,-0.1,0.0,1.0,307.0,713.0,1.0,0,1370.0,1
1005,1005,0.12836310634173798,0.1,0.0,0.0,325.0,803.0,1.0,0,792.0,0
1006,1006,-0.12445182654777298,-0.1,1.0,0.0,406.0,935.0,0.0,0,1909.0,1
1007,1007,0.29926550211551384,0.3,1.0,1.0,466.0,608.0,1.0,1,506.0,1
1008,1008,0.2966575830392001,0.3,0.0,0.0,326.0,822.0,0.0,1,572.0,1
1009,1009,-0.5685459493061087,-0.6,0.0,1.0,250.0,613.0,1.0,0,377.0,1
1010,1010,0.11890459763481076,0.1,1.0,1.0,307.0,862.0,1.0,1,991.0,1
1011,1011,-0.802605485875843,-0.8,0.0,1.0,454.0,895.0,1.0,0,231.0,1
1012,1012,-0.8943737053878594,-0.9,1.0,0.0,337.0,829.0,0.0,0,364.0,1
1013,1013,-0.5075360405589576,-0.5,0.0,1.0,328.0,550.0,1.0,0,392.0,1
1014,1014,0.2832821330510952,0.3,1.0,1.0,418.0,579.0,1.0,1,603.0,1
1015,1015,-0.7930948047807156,-0.8,1.0,0.0,422.0,917.0,0.0,0,171.0,1
1016,1016,-0.02903738280390178,-0.0,0.0,1.0,360.0,854.0,1.0,0,1976.0,1
1017,1017,-0.35822581148228905,-0.4,0.0,1.0,338.0,512.0,1.0,0,540.0,1
1018,1018,0.05980207414643324,0.1,0.0,0.0,296.0,972.0,0.0,1,1112.0,1
1019,1019,-0.08881278715414453,-0.1,1.0,0.0,421.0,704.0,0.0,0,1395.0,1
1020,1020,0.4317812174753596,0.4,1.0,1.0,259.0,996.0,1.0,1,345.0,1
1021,1021,0.8303627557853707,0.8,0.0,0.0,419.0,736.0,0.0,1,175.0,1
1022,1022,0.877125736838617,0.9,0.0,0.0,398.0,703.0,0.0,1,359.0,1
1023,1023,-0.8322069382026304,-0.8,0.0,1.0,311.0,736.0,1.0,0,363.0,1
1024,1024,-0.4124376274334499,-0.4,0.0,1.0,468.0,611.0,1.0,0,691.0,1
1025,1025,0.5710802447050994,0.6,0.0,0.0,323.0,653.0,0.0,1,364.0,1
1026,1026,-0.27503275852092446,-0.3,0.0,1.0,385.0,795.0,1.0,0,500.0,1
1027,1027,0.827642634401952,0.8,0.0,0.0,481.0,657.0,0.0,1,452.0,1
1028,1028,0.7161454719243575,0.7,0.0,0.0,263.0,543.0,0.0,1,704.0,1
1029,1029,0.8952494467735671,0.9,0.0,0.0,448.0,524.0,0.0,1,598.0,1
1030,1030,0.6670500048252418,0.7,1.0,1.0,333.0,725.0,1.0,1,422.0,1
1031,1031,0.5573906307149766,0.6,1.0,1.0,288.0,939.0,0.0,0,123.0,0
1032,1032,0.6695068591984396,0.7,1.0,1.0,438.0,857.0,1.0,1,135.0,1
1033,1033,-0.29202562160261003,-0.3,0.0,1.0,430.0,703.0,1.0,0,627.0,1
1034,1034,0.8801766361141764,0.9,1.0,1.0,435.0,707.0,1.0,1,398.0,1
1035,1035,0.13481651296519848,0.1,0.0,0.0,256.0,909.0,0.0,1,155.0,1
1036,1036,0.46117451516121977,0.5,1.0,1.0,421.0,958.0,1.0,1,221.0,1
1037,1037,-0.343074363870823,-0.3,0.0,1.0,459.0,541.0,1.0,0,380.0,1
1038,1038,0.6646067869393305,0.7,0.0,0.0,300.0,763.0,0.0,1,187.0,1
1039,1039,-0.20224715000531357,-0.2,1.0,0.0,271.0,975.0,0.0,0,404.0,1
1040,1040,-0.4630430547596395,-0.5,0.0,1.0,367.0,716.0,1.0,0,657.0,1
1041,1041,0.8852872988412542,0.9,1.0,1.0,447.0,585.0,1.0,1,468.0,1
1042,1042,0.2792269387900771,0.3,1.0,1.0,447.0,713.0,1.0,1,610.0,1
1043,1043,0.8543601777701685,0.9,0.0,0.0,497.0,907.0,0.0,1,106.0,1
1044,1044,0.49810457449104895,0.5,1.0,1.0,403.0,501.0,1.0,1,526.0,1
1045,1045,-0.01624726156928835,-0.0,1.0,0.0,468.0,722.0,0.0,0,450.0,1
1046,1046,-0.3780415322280216,-0.4,0.0,1.0,344.0,604.0,1.0,0,422.0,1
1047,1047,0.27253465119440035,0.3,0.0,0.0,446.0,737.0,0.0,1,1667.0,1
1048,1048,-0.8943047617679784,-0.9,0.0,1.0,491.0,547.0,1.0,0,432.0,1
1049,1049,0.7916645841498601,0.8,0.0,0.0,369.0,576.0,0.0,1,315.0,1
1050,1050,-0.2413970937486657,-0.2,1.0,0.0,420.0,643.0,0.0,0,1137.0,1
1051,1051,-0.2794714344245629,-0.3,1.0,0.0,276.0,634.0,0.0,0,1370.0,1
1052,1052,-0.20110931593677073,-0.2,1.0,0.0,457.0,906.0,0.0,0,397.0,1
1053,1053,0.6427988830633234,0.6,0.0,0.0,447.0,840.0,0.0,1,453.0,1
1054,1054,0.3978777324083477,0.4,1.0,1.0,344.0,750.0,1.0,1,386.0,1
1055,1055,-0.48102007371010064,-0.5,0.0,1.0,413.0,969.0,1.0,0,378.0,1
1056,1056,-0.4954760002458773,-0.5,0.0,1.0,373.0,539.0,1.0,0,518.0,1
1057,1057,-0.6746663216546358,-0.7,0.0,1.0,294.0,572.0,1.0,0,444.0,1
1058,1058,-0.18541644549184066,-0.2,0.0,1.0,344.0,819.0,1.0,0,897.0,1
1059,1059,-0.27956558401841736,-0.3,1.0,0.0,425.0,630.0,0.0,0,285.0,1
1060,1060,0.6279417507486303,0.6,0.0,0.0,491.0,918.0,0.0,1,71.0,1
1061,1061,-0.5560314684637329,-0.6,1.0,0.0,380.0,933.0,1.0,1,137.0,0
1062,1062,-0.033058959370198426,-0.0,1.0,0.0,372.0,563.0,0.0,0,1265.0,1
1063,1063,0.2169965020271284,0.2,0.0,0.0,333.0,648.0,0.0,1,859.0,1
1064,1064,0.8302446073884041,0.8,0.0,0.0,485.0,697.0,0.0,1,328.0,1
1065,1065,-0.6518547598384912,-0.7,1.0,0.0,345.0,768.0,0.0,0,307.0,1
1066,1066,0.6876487352738204,0.7,1.0,1.0,337.0,728.0,1.0,1,245.0,1
1067,1067,0.6402434675892669,0.6,1.0,1.0,344.0,691.0,1.0,1,305.0,1
1068,1068,0.19510534009283498,0.2,1.0,1.0,412.0,621.0,1.0,1,627.0,1
1069,1069,-0.6284400169777158,-0.6,0.0,1.0,270.0,726.0,1.0,0,464.0,1
1070,1070,-0.15926765650747277,-0.2,1.0,0.0,412.0,966.0,0.0,0,552.0,1
1071,1071,0.3256340393864213,0.3,1.0,1.0,373.0,550.0,1.0,1,417.0,1
1072,1072,-0.1886708781045099,-0.2,0.0,1.0,264.0,793.0,1.0,0,873.0,1
1073,1073,0.06001898837645414,0.1,1.0,1.0,444.0,852.0,1.0,1,924.0,1
1074,1074,-0.17453725905460948,-0.2,0.0,1.0,401.0,958.0,1.0,0,491.0,1
1075,1075,0.46215868773570035,0.5,0.0,0.0,467.0,605.0,0.0,1,498.0,1
1076,1076,0.7281103563648256,0.7,1.0,1.0,440.0,606.0,1.0,1,464.0,1
1077,1077,0.3091765910378602,0.3,0.0,0.0,375.0,891.0,0.0,1,534.0,1
1078,1078,0.6390179841813727,0.6,1.0,1.0,256.0,591.0,1.0,1,423.0,1
1079,1079,-0.4304440697983463,-0.4,1.0,0.0,426.0,964.0,0.0,0,300.0,1
1080,1080,-0.44873826097603714,-0.4,1.0,0.0,354.0,697.0,0.0,0,279.0,1
1081,1081,0.3720334791624925,0.4,1.0,1.0,493.0,633.0,1.0,1,524.0,1
1082,1082,-0.846446335031263,-0.8,0.0,1.0,466.0,581.0,1.0,0,453.0,1
1083,1083,-0.5898918154322463,-0.6,1.0,0.0,432.0,838.0,0.0,0,280.0,1
1084,1084,0.15668462787649318,0.2,1.0,1.0,254.0,887.0,1.0,1,559.0,1
1085,1085,-0.5682909951499859,-0.6,0.0,1.0,261.0,590.0,1.0,0,439.0,1
1086,1086,0.3668738197397091,0.4,1.0,1.0,436.0,519.0,1.0,1,505.0,1
1087,1087,0.20146969104354862,0.2,1.0,1.0,354.0,991.0,1.0,1,755.0,1
1088,1088,0.7127738218843546,0.7,0.0,0.0,431.0,920.0,0.0,1,239.0,1
1089,1089,0.2594544261173436,0.3,0.0,0.0,431.0,941.0,0.0,1,488.0,1
1090,1090,0.5543458294399973,0.6,1.0,1.0,453.0,885.0,1.0,1,262.0,1
1091,1091,0.5809927458980347,0.6,0.0,0.0,391.0,571.0,0.0,1,498.0,1
1092,1092,-0.8466670751931801,-0.8,0.0,1.0,307.0,616.0,1.0,0,357.0,1
1093,1093,-0.6980946709922482,-0.7,1.0,0.0,499.0,639.0,0.0,0,302.0,1
1094,1094,-0.30020657443856225,-0.3,1.0,0.0,306.0,943.0,0.0,0,731.0,1
1095,1095,0.43087903891918156,0.4,1.0,1.0,499.0,939.0,1.0,1,112.0,1
1096,1096,0.47069000547707895,0.5,1.0,1.0,255.0,783.0,1.0,1,152.0,1
1097,1097,0.5130682594212915,0.5,0.0,0.0,402.0,742.0,0.0,1,556.0,1
1098,1098,-0.21172475022887882,-0.2,0.0,1.0,379.0,737.0,1.0,0,2764.0,1
1099,1099,0.5600003891230473,0.6,1.0,1.0,364.0,898.0,1.0,1,238.0,1
1100,1100,0.43503407884431955,0.4,1.0,1.0,263.0,753.0,1.0,1,364.0,1
1101,1101,-0.5689132094631928,-0.6,1.0,0.0,267.0,555.0,0.0,0,668.0,1
1102,1102,-0.1805592512429789,-0.2,1.0,0.0,438.0,944.0,0.0,0,188.0,1
1103,1103,-0.7533043404135663,-0.8,0.0,1.0,299.0,645.0,1.0,0,386.0,1
1104,1104,-0.7379252671947459,-0.7,0.0,1.0,356.0,969.0,1.0,0,255.0,1
1105,1105,-0.003117462155434736,-0.0,0.0,1.0,397.0,795.0,1.0,0,418.0,1
1106,1106,-0.854498585705129,-0.9,0.0,1.0,313.0,683.0,1.0,0,384.0,1
1107,1107,-0.4543046252521109,-0.5,1.0,0.0,499.0,521.0,0.0,0,580.0,1
1108,1108,-0.2660190963857533,-0.3,0.0,1.0,488.0,870.0,1.0,0,242.0,1
1109,1109,0.6794368217995718,0.7,0.0,0.0,473.0,510.0,0.0,1,367.0,1
1110,1110,-0.7998538039206868,-0.8,1.0,0.0,405.0,763.0,0.0,0,392.0,1
1111,1111,0.7283209408031673,0.7,0.0,0.0,425.0,622.0,0.0,1,433.0,1
1112,1112,-0.3306061796481422,-0.3,0.0,1.0,349.0,637.0,1.0,0,704.0,1
1113,1113,0.23769285775222737,0.2,1.0,1.0,428.0,969.0,1.0,1,413.0,1
1114,1114,-0.44342699236281286,-0.4,0.0,1.0,332.0,870.0,1.0,0,88.0,1
1115,1115,-0.8351006156631667,-0.8,1.0,0.0,439.0,704.0,0.0,0,437.0,1
1116,1116,-0.8465212897080375,-0.8,0.0,1.0,437.0,549.0,1.0,0,374.0,1
1117,1117,-0.7958844340947843,-0.8,1.0,0.0,446.0,857.0,0.0,0,297.0,1
1118,1118,0.03588516617503845,0.0,1.0,1.0,435.0,523.0,1.0,1,3012.0,1
1119,1119,0.37823391986887167,0.4,0.0,0.0,461.0,779.0,0.0,1,710.0,1
1120,1120,0.3126041862182968,0.3,0.0,0.0,290.0,884.0,0.0,1,186.0,1
1121,1121,0.15033941264074413,0.2,1.0,1.0,473.0,718.0,1.0,1,329.0,1
1122,1122,-0.202228386665671,-0.2,1.0,0.0,463.0,673.0,0.0,0,774.0,1
1123,1123,-0.2902290983467948,-0.3,0.0,1.0,432.0,709.0,1.0,0,709.0,1
1124,1124,-0.6900690852083216,-0.7,1.0,0.0,332.0,772.0,0.0,0,296.0,1
1125,1125,-0.6046541994303265,-0.6,0.0,1.0,311.0,557.0,1.0,0,502.0,1
1126,1126,0.6069679721546785,0.6,0.0,0.0,358.0,734.0,0.0,1,478.0,1
1127,1127,-0.3900789500296111,-0.4,1.0,0.0,374.0,957.0,0.0,0,319.0,1
1128,1128,0.5305529575977707,0.5,1.0,1.0,319.0,748.0,1.0,1,223.0,1
1129,1129,-0.5812781837919008,-0.6,1.0,0.0,308.0,530.0,0.0,0,662.0,1
1130,1130,0.07976043422248713,0.1,1.0,1.0,362.0,757.0,1.0,1,3031.0,1
1131,1131,-0.8740191342530558,-0.9,0.0,1.0,304.0,816.0,1.0,0,210.0,1
1132,1132,-0.5478632523504088,-0.5,1.0,0.0,447.0,749.0,0.0,0,274.0,1
1133,1133,-0.26812662895067574,-0.3,1.0,0.0,312.0,674.0,0.0,0,714.0,1
1134,1134,-0.11500516541941375,-0.1,1.0,0.0,323.0,876.0,1.0,1,731.0,0
1135,1135,-0.17603735500377116,-0.2,1.0,0.0,439.0,847.0,0.0,0,304.0,1
1136,1136,-0.7615436130160476,-0.8,0.0,1.0,374.0,720.0,1.0,0,426.0,1
1137,1137,-0.07507582130034873,-0.1,1.0,0.0,266.0,905.0,0.0,0,1529.0,1
1138,1138,0.03447392217838563,0.0,1.0,1.0,308.0,568.0,1.0,1,654.0,1
1139,1139,0.39824885188937664,0.4,0.0,0.0,489.0,722.0,0.0,1,259.0,1
1140,1140,0.6034055215485427,0.6,0.0,0.0,477.0,877.0,0.0,1,726.0,1
1141,1141,-0.3712084723996898,-0.4,1.0,0.0,252.0,828.0,0.0,0,1020.0,1
1142,1142,0.36171893756714735,0.4,1.0,1.0,412.0,809.0,1.0,1,629.0,1
1143,1143,0.1263120332639286,0.1,1.0,1.0,431.0,833.0,1.0,1,676.0,1
1144,1144,-0.7550336942966979,-0.8,1.0,0.0,424.0,918.0,0.0,0,278.0,1
1145,1145,0.7253897609028334,0.7,1.0,1.0,316.0,502.0,1.0,1,722.0,1
1146,1146,0.4622172512211974,0.5,1.0,1.0,360.0,675.0,1.0,1,365.0,1
1147,1147,0.8195593391019035,0.8,1.0,1.0,487.0,662.0,1.0,1,371.0,1
1148,1148,0.06695171239263442,0.1,1.0,1.0,481.0,807.0,1.0,1,642.0,1
1149,1149,0.08201512074765915,0.1,0.0,0.0,328.0,992.0,1.0,0,180.0,0
1150,1150,0.5450720890772228,0.5,1.0,1.0,475.0,930.0,1.0,1,175.0,1
1151,1151,0.04365334102408258,0.0,1.0,1.0,351.0,937.0,1.0,1,162.0,1
1152,1152,-0.4504375898672815,-0.5,1.0,0.0,263.0,832.0,0.0,0,455.0,1
1153,1153,0.7925220210639911,0.8,0.0,0.0,350.0,693.0,0.0,1,407.0,1
1154,1154,0.6600536689891928,0.7,1.0,1.0,451.0,810.0,1.0,1,339.0,1
1155,1155,-0.6816211435203101,-0.7,1.0,0.0,260.0,724.0,0.0,0,496.0,1
1156,1156,-0.38994348528591505,-0.4,0.0,1.0,421.0,670.0,1.0,0,739.0,1
1157,1157,0.49088340060452296,0.5,1.0,1.0,482.0,757.0,1.0,1,301.0,1
1158,1158,0.6214787981534488,0.6,0.0,0.0,274.0,728.0,0.0,1,458.0,1
1159,1159,0.7780363431442819,0.8,1.0,1.0,496.0,788.0,1.0,1,466.0,1
1160,1160,-0.5733356862237602,-0.6,0.0,1.0,413.0,820.0,1.0,0,307.0,1
1161,1161,-0.3999543784975236,-0.4,1.0,0.0,343.0,981.0,0.0,0,636.0,1
1162,1162,-0.2922443616966002,-0.3,1.0,0.0,467.0,772.0,0.0,0,901.0,1
1163,1163,-0.1934719688164176,-0.2,1.0,0.0,257.0,698.0,0.0,0,355.0,1
1164,1164,0.8184314837466703,0.8,1.0,1.0,498.0,721.0,1.0,1,381.0,1
1165,1165,-0.5470602288133324,-0.5,0.0,1.0,352.0,999.0,1.0,0,389.0,1
1166,1166,0.2876290642634175,0.3,1.0,1.0,329.0,896.0,1.0,1,505.0,1
1167,1167,-0.8087748741050005,-0.8,0.0,1.0,476.0,721.0,1.0,0,293.0,1
1168,1168,0.7327645995882311,0.7,1.0,1.0,282.0,807.0,1.0,1,341.0,1
1169,1169,-0.4421750791719513,-0.4,0.0,1.0,481.0,609.0,1.0,0,640.0,1
1170,1170,-0.02760113854203483,-0.0,0.0,1.0,487.0,779.0,0.0,1,464.0,0
1171,1171,-0.6978311224088094,-0.7,1.0,0.0,480.0,855.0,0.0,0,295.0,1
1172,1172,0.19866265423126428,0.2,1.0,1.0,282.0,567.0,1.0,1,631.0,1
1173,1173,-0.5124688304471061,-0.5,0.0,1.0,359.0,684.0,1.0,0,367.0,1
1174,1174,0.7508943869793557,0.8,0.0,0.0,291.0,679.0,0.0,1,440.0,1
1175,1175,0.6952589989986896,0.7,0.0,0.0,449.0,796.0,0.0,1,275.0,1
1176,1176,0.09887060787158031,0.1,1.0,1.0,358.0,766.0,0.0,0,476.0,0
1177,1177,-0.2223597687675699,-0.2,1.0,0.0,371.0,842.0,0.0,0,697.0,1
1178,1178,0.5406121462384378,0.5,0.0,0.0,454.0,705.0,0.0,1,331.0,1
1179,1179,-0.78968942275683,-0.8,0.0,1.0,255.0,830.0,1.0,0,235.0,1
1180,1180,0.4580322566077063,0.5,0.0,0.0,273.0,596.0,0.0,1,701.0,1
1181,1181,0.410864806043708,0.4,1.0,1.0,261.0,815.0,1.0,1,144.0,1
1182,1182,-0.08275637774347111,-0.1,1.0,0.0,295.0,627.0,0.0,0,558.0,1
1183,1183,0.48984869595057445,0.5,0.0,0.0,250.0,999.0,0.0,1,351.0,1
1184,1184,0.048584064706054475,0.0,0.0,0.0,458.0,832.0,1.0,0,580.0,0
1185,1185,-0.5935556296988707,-0.6,0.0,1.0,268.0,956.0,1.0,0,196.0,1
1186,1186,-0.7365475042046243,-0.7,0.0,1.0,467.0,856.0,1.0,0,337.0,1
1187,1187,-0.17333581012066224,-0.2,1.0,0.0,290.0,796.0,0.0,0,754.0,1
1188,1188,0.20938792889831281,0.2,0.0,0.0,494.0,764.0,0.0,1,832.0,1
1189,1189,-0.05242134525094411,-0.1,0.0,1.0,383.0,584.0,1.0,0,2053.0,1
1190,1190,-0.20080944272193335,-0.2,0.0,1.0,466.0,908.0,1.0,0,426.0,1
1191,1191,0.1253132914486118,0.1,1.0,1.0,271.0,948.0,0.0,0,201.0,0
1192,1192,-0.6934759450160597,-0.7,1.0,0.0,351.0,965.0,0.0,0,314.0,1
1193,1193,0.4593853721107305,0.5,0.0,0.0,278.0,666.0,0.0,1,586.0,1
1194,1194,0.7558871174572702,0.8,0.0,0.0,339.0,508.0,0.0,1,433.0,1
1195,1195,-0.29387937923311613,-0.3,0.0,1.0,480.0,508.0,1.0,0,742.0,1
1196,1196,0.40391215137255754,0.4,1.0,1.0,493.0,805.0,1.0,1,402.0,1
1197,1197,-0.6050067706486251,-0.6,0.0,1.0,367.0,720.0,1.0,0,483.0,1
1198,1198,0.47839110029951837,0.5,0.0,0.0,474.0,805.0,0.0,1,241.0,1
1199,1199,-0.7277483932295874,-0.7,0.0,1.0,471.0,664.0,1.0,0,655.0,1
1200,1200,0.06908103098235219,0.1,1.0,1.0,262.0,610.0,1.0,1,798.0,1
1201,1201,-0.015885161926852298,-0.0,0.0,1.0,493.0,600.0,0.0,1,697.0,0
1202,1202,-0.21026349879348372,-0.2,1.0,0.0,396.0,800.0,0.0,0,314.0,1
1203,1203,0.21678522934204036,0.2,0.0,0.0,391.0,556.0,0.0,1,723.0,1
1204,1204,-0.8905099618241136,-0.9,0.0,1.0,281.0,834.0,1.0,0,315.0,1
1205,1205,0.6833875040506227,0.7,0.0,0.0,424.0,630.0,0.0,1,456.0,1
1206,1206,-0.18480107358244335,-0.2,0.0,1.0,346.0,610.0,1.0,0,974.0,1
1207,1207,-0.27534013093537457,-0.3,1.0,0.0,352.0,515.0,0.0,0,483.0,1
1208,1208,-0.21496609636675956,-0.2,1.0,0.0,310.0,619.0,0.0,0,521.0,1
1209,1209,-0.8910238126857215,-0.9,0.0,1.0,376.0,719.0,1.0,0,285.0,1
1210,1210,-0.17307584544475652,-0.2,1.0,0.0,455.0,737.0,0.0,0,668.0,1
1211,1211,-0.461972098791345,-0.5,1.0,0.0,316.0,522.0,0.0,0,712.0,1
1212,1212,-0.3289835168295283,-0.3,1.0,0.0,392.0,764.0,0.0,0,224.0,1
1213,1213,0.024746970349501796,0.0,1.0,1.0,439.0,741.0,1.0,1,680.0,1
1214,1214,-0.6448148192649328,-0.6,1.0,0.0,314.0,955.0,0.0,0,51.0,1
1215,1215,0.5761250997549056,0.6,1.0,1.0,304.0,838.0,1.0,1,138.0,1
1216,1216,0.4192004464347313,0.4,0.0,0.0,415.0,642.0,0.0,1,543.0,1
1217,1217,-0.15228165761960855,-0.2,0.0,1.0,282.0,617.0,1.0,0,2131.0,1
1218,1218,-0.2631516752015832,-0.3,1.0,0.0,348.0,898.0,0.0,0,334.0,1
1219,1219,0.8865481233209261,0.9,1.0,1.0,352.0,658.0,1.0,1,320.0,1
1220,1220,0.2371272304607076,0.2,0.0,0.0,277.0,540.0,1.0,0,703.0,0
1221,1221,0.35960093040156516,0.4,0.0,0.0,315.0,736.0,0.0,1,609.0,1
1222,1222,-0.6418835235095698,-0.6,1.0,0.0,388.0,971.0,0.0,0,261.0,1
1223,1223,-0.6227352739038445,-0.6,1.0,0.0,456.0,692.0,0.0,0,632.0,1
1224,1224,0.4758675700474221,0.5,0.0,0.0,284.0,661.0,0.0,1,525.0,1
1225,1225,-0.47558882772095074,-0.5,1.0,0.0,433.0,511.0,0.0,0,536.0,1
1226,1226,-0.7601526133125283,-0.8,0.0,1.0,479.0,551.0,1.0,0,730.0,1
1227,1227,0.7666787629517141,0.8,1.0,1.0,406.0,590.0,1.0,1,364.0,1
1228,1228,-0.4373068106293386,-0.4,0.0,1.0,317.0,581.0,1.0,0,532.0,1
1229,1229,-0.7044277717387113,-0.7,1.0,0.0,272.0,668.0,0.0,0,370.0,1
1230,1230,-0.13246538163059862,-0.1,0.0,1.0,333.0,646.0,1.0,0,681.0,1
1231,1231,0.8907731087431175,0.9,1.0,1.0,345.0,971.0,1.0,1,164.0,1
1232,1232,0.6529628233512811,0.7,0.0,0.0,258.0,681.0,0.0,1,231.0,1
1233,1233,-0.27899736236932093,-0.3,1.0,0.0,371.0,926.0,0.0,0,253.0,1
1234,1234,0.1408779633889804,0.1,1.0,1.0,465.0,500.0,1.0,1,585.0,1
1235,1235,-0.8642823042402878,-0.9,1.0,0.0,370.0,610.0,0.0,0,430.0,1
1236,1236,-0.5437401865423352,-0.5,0.0,1.0,368.0,682.0,1.0,0,480.0,1
1237,1237,0.7883102778957608,0.8,1.0,1.0,478.0,515.0,1.0,1,507.0,1
1238,1238,-0.6553541883696934,-0.7,1.0,0.0,278.0,665.0,0.0,0,347.0,1
1239,1239,-0.5846701617105019,-0.6,0.0,1.0,473.0,833.0,1.0,0,74.0,1
1240,1240,0.288117533583386,0.3,1.0,1.0,310.0,595.0,1.0,1,715.0,1
1241,1241,-0.559429400863886,-0.6,0.0,1.0,435.0,877.0,1.0,0,408.0,1
1242,1242,-0.20058851681300038,-0.2,0.0,1.0,321.0,902.0,1.0,0,587.0,1
1243,1243,0.5854948388686668,0.6,0.0,0.0,339.0,979.0,0.0,1,102.0,1
1244,1244,0.676828041095506,0.7,0.0,0.0,436.0,747.0,0.0,1,657.0,1
1245,1245,-0.20450853796461232,-0.2,1.0,0.0,435.0,714.0,0.0,0,611.0,1
1246,1246,-0.21117837812729046,-0.2,0.0,1.0,410.0,939.0,1.0,0,741.0,1
1247,1247,0.7517350289239343,0.8,0.0,0.0,436.0,585.0,0.0,1,329.0,1
1248,1248,0.48813102204923975,0.5,1.0,1.0,353.0,694.0,1.0,1,373.0,1
1249,1249,0.44197165712468645,0.4,1.0,1.0,256.0,703.0,1.0,1,251.0,1
1250,1250,-0.7536398143288787,-0.8,0.0,1.0,295.0,507.0,1.0,0,498.0,1
1251,1251,0.039383051451587825,0.0,0.0,0.0,411.0,918.0,0.0,1,1031.0,1
1252,1252,0.5782862465784856,0.6,0.0,0.0,322.0,603.0,0.0,1,405.0,1
1253,1253,0.4996786360227695,0.5,0.0,0.0,386.0,732.0,0.0,1,542.0,1
1254,1254,-0.8712562079542974,-0.9,0.0,1.0,370.0,503.0,1.0,0,797.0,1
1255,1255,-0.13132577221595343,-0.1,1.0,0.0,476.0,821.0,0.0,0,633.0,1
1256,1256,-0.226853983209249,-0.2,1.0,0.0,425.0,669.0,0.0,0,706.0,1
1257,1257,0.3415367003046129,0.3,1.0,1.0,487.0,797.0,1.0,1,286.0,1
1258,1258,0.8019652673050103,0.8,0.0,0.0,489.0,749.0,0.0,1,302.0,1
1259,1259,0.07957176419665424,0.1,0.0,0.0,407.0,755.0,0.0,1,1928.0,1
1260,1260,0.5897305263504137,0.6,0.0,0.0,337.0,985.0,0.0,1,328.0,1
1261,1261,0.6096151906191419,0.6,1.0,1.0,262.0,646.0,1.0,1,512.0,1
1262,1262,-0.35951686602160515,-0.4,0.0,1.0,357.0,937.0,1.0,0,386.0,1
1263,1263,0.0018565453503143203,0.0,0.0,0.0,378.0,529.0,0.0,1,723.0,1
1264,1264,-0.5458809437168055,-0.5,1.0,0.0,433.0,544.0,0.0,0,403.0,1
1265,1265,-0.3062662181631106,-0.3,1.0,0.0,480.0,580.0,0.0,0,590.0,1
1266,1266,-0.017741977207429316,-0.0,1.0,0.0,278.0,802.0,1.0,1,430.0,0
1267,1267,0.1136815697694381,0.1,0.0,0.0,272.0,585.0,1.0,0,593.0,0
1268,1268,-0.09926606432250995,-0.1,0.0,1.0,304.0,751.0,0.0,1,705.0,0
1269,1269,0.5693496512825181,0.6,1.0,1.0,318.0,870.0,1.0,1,492.0,1
1270,1270,0.14693827574328922,0.1,1.0,1.0,339.0,950.0,1.0,1,401.0,1
1271,1271,-0.6217238748799288,-0.6,0.0,1.0,348.0,607.0,1.0,0,375.0,1
1272,1272,0.09484020220009393,0.1,0.0,0.0,484.0,614.0,0.0,1,1642.0,1
1273,1273,-0.3811207265433687,-0.4,1.0,0.0,260.0,848.0,0.0,0,462.0,1
1274,1274,-0.6381321457858389,-0.6,0.0,1.0,412.0,622.0,1.0,0,546.0,1
1275,1275,-0.3894306351929403,-0.4,1.0,0.0,365.0,940.0,0.0,0,435.0,1
1276,1276,-0.8170666328692059,-0.8,0.0,1.0,471.0,773.0,1.0,0,276.0,1
1277,1277,0.8194885771752404,0.8,1.0,1.0,258.0,501.0,1.0,1,601.0,1
1278,1278,0.0766612557660592,0.1,0.0,0.0,310.0,889.0,1.0,0,281.0,0
1279,1279,0.5618359200570114,0.6,1.0,1.0,420.0,617.0,1.0,1,363.0,1
1280,1280,-0.49785341057251453,-0.5,1.0,0.0,358.0,967.0,0.0,0,315.0,1
1281,1281,0.03446099059265262,0.0,0.0,0.0,434.0,889.0,0.0,1,3137.0,1
1282,1282,0.8656561449744654,0.9,1.0,1.0,496.0,753.0,1.0,1,221.0,1
1283,1283,-0.44450816092025314,-0.4,0.0,1.0,371.0,794.0,1.0,0,385.0,1
1284,1284,-0.07152676900425448,-0.1,0.0,1.0,382.0,793.0,1.0,0,1595.0,1
1285,1285,-0.630508143602782,-0.6,0.0,1.0,391.0,665.0,1.0,0,334.0,1
1286,1286,0.22300295448389684,0.2,1.0,1.0,317.0,672.0,1.0,1,741.0,1
1287,1287,-0.8983403276531043,-0.9,1.0,0.0,471.0,705.0,0.0,0,334.0,1
1288,1288,0.23889970776280223,0.2,1.0,1.0,489.0,565.0,1.0,1,426.0,1
1289,1289,0.5235115751182274,0.5,1.0,1.0,483.0,548.0,1.0,1,589.0,1
1290,1290,0.3859466477558303,0.4,0.0,0.0,491.0,593.0,0.0,1,696.0,1
1291,1291,0.14599841043784523,0.1,0.0,0.0,307.0,826.0,0.0,1,717.0,1
1292,1292,0.8186634888347776,0.8,0.0,0.0,253.0,612.0,0.0,1,555.0,1
1293,1293,0.6292798099262619,0.6,1.0,1.0,257.0,551.0,1.0,1,592.0,1
1294,1294,0.6701492330710871,0.7,0.0,0.0,418.0,650.0,0.0,1,452.0,1
1295,1295,0.16876115814864867,0.2,1.0,1.0,390.0,972.0,1.0,1,708.0,1
1296,1296,0.8178789329069208,0.8,1.0,1.0,448.0,550.0,1.0,1,322.0,1
1297,1297,0.28837715836235345,0.3,1.0,1.0,266.0,944.0,1.0,1,300.0,1
1298,1298,0.1268933127116093,0.1,1.0,1.0,456.0,671.0,1.0,1,413.0,1
1299,1299,0.16541711568898465,0.2,0.0,0.0,371.0,540.0,0.0,1,749.0,1
1300,1300,-0.5039465060868109,-0.5,1.0,0.0,270.0,905.0,0.0,0,85.0,1
1301,1301,-0.13611998908841827,-0.1,0.0,1.0,444.0,867.0,1.0,0,229.0,1
1302,1302,0.11523127540521327,0.1,1.0,1.0,399.0,845.0,1.0,1,696.0,1
1303,1303,-0.898970349623815,-0.9,1.0,0.0,260.0,835.0,0.0,0,255.0,1
1304,1304,-0.4837487108566854,-0.5,0.0,1.0,275.0,692.0,1.0,0,663.0,1
1305,1305,-0.26561670346494715,-0.3,0.0,1.0,416.0,929.0,1.0,0,465.0,1
1306,1306,0.4561218852027472,0.5,1.0,1.0,482.0,604.0,1.0,1,344.0,1
1307,1307,-0.3604914932552252,-0.4,1.0,0.0,404.0,757.0,0.0,0,439.0,1
1308,1308,0.5524728342280426,0.6,1.0,1.0,474.0,775.0,1.0,1,371.0,1
1309,1309,0.23592780260962065,0.2,0.0,0.0,483.0,962.0,0.0,1,105.0,1
1310,1310,-0.13118604192788685,-0.1,0.0,1.0,355.0,674.0,1.0,0,361.0,1
1311,1311,-0.4130425289466216,-0.4,0.0,1.0,302.0,685.0,1.0,0,773.0,1
1312,1312,-0.47295544106120346,-0.5,1.0,0.0,462.0,623.0,0.0,0,565.0,1
1313,1313,-0.7148736341875024,-0.7,0.0,1.0,407.0,922.0,1.0,0,1081.0,1
1314,1314,-0.8203181506640312,-0.8,1.0,0.0,478.0,785.0,0.0,0,297.0,1
1315,1315,0.09333001798985852,0.1,0.0,0.0,443.0,681.0,0.0,1,846.0,1
1316,1316,-0.03317812914329277,-0.0,0.0,1.0,448.0,747.0,0.0,1,455.0,0
1317,1317,-0.48574199823803216,-0.5,0.0,1.0,285.0,998.0,1.0,0,357.0,1
1318,1318,0.019489965322325054,0.0,1.0,1.0,282.0,737.0,1.0,1,621.0,1
1319,1319,-0.849824632582697,-0.8,1.0,0.0,416.0,732.0,0.0,0,262.0,1
1320,1320,-0.4236204089681278,-0.4,1.0,0.0,405.0,933.0,0.0,0,172.0,1
1321,1321,0.5719546610291105,0.6,0.0,0.0,347.0,933.0,0.0,1,240.0,1
1322,1322,0.48183737763920054,0.5,0.0,0.0,406.0,963.0,0.0,1,641.0,1
1323,1323,0.8058010462935247,0.8,1.0,1.0,473.0,669.0,1.0,1,278.0,1
1324,1324,0.8498140123422723,0.8,1.0,1.0,427.0,769.0,1.0,1,494.0,1
1325,1325,-0.2850730460167936,-0.3,1.0,0.0,395.0,572.0,0.0,0,593.0,1
1326,1326,-0.4822697932157299,-0.5,0.0,1.0,354.0,853.0,1.0,0,343.0,1
1327,1327,-0.8303626504217693,-0.8,1.0,0.0,290.0,582.0,0.0,0,468.0,1
1328,1328,-0.30880530778270054,-0.3,1.0,0.0,463.0,990.0,0.0,0,437.0,1
1329,1329,-0.49712490353642586,-0.5,1.0,0.0,288.0,705.0,0.0,0,627.0,1
1330,1330,-0.7276704346808055,-0.7,0.0,1.0,430.0,521.0,1.0,0,509.0,1
1331,1331,-0.4700311677112664,-0.5,0.0,1.0,410.0,573.0,1.0,0,387.0,1
1332,1332,0.4671808774110452,0.5,1.0,1.0,369.0,591.0,1.0,1,520.0,1
1333,1333,-0.3579593630644554,-0.4,1.0,0.0,491.0,565.0,0.0,0,354.0,1
1334,1334,0.8798170203243313,0.9,1.0,1.0,348.0,604.0,1.0,1,448.0,1
1335,1335,0.3075653704418636,0.3,1.0,1.0,465.0,716.0,1.0,1,409.0,1
1336,1336,-0.5444913638269546,-0.5,0.0,1.0,392.0,584.0,1.0,0,724.0,1
1337,1337,0.4671375108113939,0.5,0.0,0.0,394.0,579.0,0.0,1,367.0,1
1338,1338,-0.08131675510601621,-0.1,0.0,1.0,261.0,547.0,1.0,0,542.0,1
1339,1339,-0.0786502998709937,-0.1,0.0,1.0,383.0,849.0,1.0,0,238.0,1
1340,1340,-0.19069509474763358,-0.2,0.0,1.0,472.0,588.0,0.0,1,940.0,0
1341,1341,0.15310509553612894,0.2,1.0,1.0,300.0,916.0,1.0,1,484.0,1
1342,1342,0.21828909799812035,0.2,1.0,1.0,481.0,816.0,1.0,1,773.0,1
1343,1343,0.44020323249966087,0.4,1.0,1.0,372.0,786.0,1.0,1,282.0,1
1344,1344,0.7459242891755583,0.7,1.0,1.0,290.0,640.0,1.0,1,390.0,1
1345,1345,0.31252033712293004,0.3,0.0,0.0,386.0,623.0,0.0,1,501.0,1
1346,1346,0.1630166686351554,0.2,1.0,1.0,391.0,906.0,0.0,0,483.0,0
1347,1347,0.17052280407280163,0.2,0.0,0.0,474.0,622.0,0.0,1,404.0,1
1348,1348,0.35082852767392303,0.4,1.0,1.0,408.0,797.0,1.0,1,345.0,1
1349,1349,-0.6553849490038145,-0.7,1.0,0.0,322.0,725.0,0.0,0,393.0,1
1350,1350,-0.45323890051371885,-0.5,0.0,1.0,435.0,554.0,1.0,0,611.0,1
1351,1351,0.16678622885484595,0.2,1.0,1.0,304.0,941.0,1.0,1,1435.0,1
1352,1352,-0.45895794325513795,-0.5,1.0,0.0,344.0,922.0,0.0,0,254.0,1
1353,1353,0.41739670267776086,0.4,1.0,1.0,383.0,947.0,1.0,1,180.0,1
1354,1354,0.33945651448611025,0.3,1.0,1.0,339.0,897.0,1.0,1,814.0,1
1355,1355,-0.14486137796510878,-0.1,0.0,1.0,457.0,989.0,0.0,1,4.0,0
1356,1356,0.5029146015566425,0.5,0.0,0.0,277.0,579.0,0.0,1,694.0,1
1357,1357,-0.22511456958384868,-0.2,0.0,1.0,282.0,551.0,1.0,0,667.0,1
1358,1358,0.23257173253740893,0.2,1.0,1.0,422.0,564.0,1.0,1,684.0,1
1359,1359,-0.6224053346339563,-0.6,0.0,1.0,360.0,757.0,1.0,0,343.0,1
1360,1360,-0.34265565746790794,-0.3,1.0,0.0,468.0,551.0,0.0,0,471.0,1
1361,1361,-0.5270541290488859,-0.5,0.0,1.0,255.0,623.0,1.0,0,562.0,1
1362,1362,0.06556822939670137,0.1,0.0,0.0,288.0,929.0,1.0,0,323.0,0
1363,1363,0.32704746846637367,0.3,0.0,0.0,293.0,764.0,0.0,1,653.0,1
1364,1364,-0.8899507735988745,-0.9,0.0,1.0,365.0,650.0,1.0,0,585.0,1
1365,1365,-0.47097772217085826,-0.5,1.0,0.0,280.0,597.0,0.0,0,503.0,1
1366,1366,0.73706282520787,0.7,1.0,1.0,275.0,795.0,1.0,1,330.0,1
1367,1367,0.8929618928875117,0.9,0.0,0.0,468.0,645.0,0.0,1,337.0,1
1368,1368,-0.13128306363420206,-0.1,1.0,0.0,370.0,879.0,0.0,0,391.0,1
1369,1369,0.5836153986054576,0.6,0.0,0.0,363.0,594.0,0.0,1,453.0,1
1370,1370,-0.8503221819308303,-0.9,1.0,0.0,361.0,592.0,0.0,0,577.0,1
1371,1371,0.8775180674296515,0.9,1.0,1.0,337.0,855.0,1.0,1,328.0,1
1372,1372,0.0014464014225880062,0.0,1.0,1.0,479.0,928.0,0.0,0,1093.0,0
1373,1373,0.24622196425743514,0.2,0.0,0.0,251.0,976.0,0.0,1,603.0,1
1374,1374,-0.23374886324132338,-0.2,0.0,1.0,343.0,810.0,1.0,0,307.0,1
1375,1375,0.3998949980957357,0.4,0.0,0.0,438.0,896.0,0.0,1,256.0,1
1376,1376,-0.6162716976205276,-0.6,1.0,0.0,388.0,656.0,0.0,0,446.0,1
1377,1377,0.6745517917211284,0.7,1.0,1.0,358.0,673.0,1.0,1,339.0,1
1378,1378,-0.7544340409634649,-0.8,0.0,1.0,359.0,876.0,1.0,0,125.0,1
1379,1379,0.035306005796006734,0.0,1.0,1.0,288.0,703.0,0.0,0,369.0,0
1380,1380,0.6303764235427617,0.6,0.0,0.0,370.0,822.0,0.0,1,528.0,1
1381,1381,-0.7545090256228337,-0.8,0.0,1.0,332.0,700.0,1.0,0,268.0,1
1382,1382,0.6246819406269789,0.6,0.0,0.0,496.0,837.0,0.0,1,137.0,1
1383,1383,-0.2564681162898991,-0.3,1.0,0.0,467.0,647.0,0.0,0,736.0,1
1384,1384,-0.7963028459502132,-0.8,1.0,0.0,435.0,564.0,0.0,0,541.0,1
1385,1385,0.1026911466793684,0.1,0.0,0.0,255.0,885.0,0.0,1,920.0,1
1386,1386,-0.4826302178491249,-0.5,1.0,0.0,251.0,912.0,0.0,0,117.0,1
1387,1387,-0.46895779844183194,-0.5,1.0,0.0,453.0,596.0,0.0,0,471.0,1
1388,1388,0.7922564754452425,0.8,0.0,0.0,279.0,900.0,0.0,1,201.0,1
1389,1389,-0.22839130395265272,-0.2,1.0,0.0,466.0,586.0,0.0,0,408.0,1
1390,1390,-0.2464903306352908,-0.2,0.0,1.0,264.0,827.0,1.0,0,1269.0,1
1391,1391,0.7637868347612445,0.8,0.0,0.0,311.0,904.0,0.0,1,465.0,1
1392,1392,0.5656962893138445,0.6,1.0,1.0,396.0,599.0,1.0,1,485.0,1
1393,1393,-0.1700441935975241,-0.2,1.0,0.0,264.0,908.0,0.0,0,338.0,1
1394,1394,0.14284651915390578,0.1,1.0,1.0,380.0,544.0,1.0,1,576.0,1
1395,1395,-0.04989808054938849,-0.0,0.0,1.0,330.0,631.0,0.0,1,479.0,0
1396,1396,-0.7553812655380174,-0.8,0.0,1.0,495.0,604.0,1.0,0,911.0,1
1397,1397,-0.10618925701911797,-0.1,0.0,1.0,420.0,631.0,1.0,0,1369.0,1
1398,1398,-0.09927938172279294,-0.1,1.0,0.0,427.0,975.0,0.0,0,778.0,1
1399,1399,-0.5185345553814713,-0.5,0.0,1.0,326.0,752.0,1.0,0,402.0,1
1400,1400,0.7407337856217208,0.7,0.0,0.0,290.0,863.0,0.0,1,317.0,1
1401,1401,-0.7633442736657545,-0.8,0.0,1.0,403.0,517.0,1.0,0,530.0,1
1402,1402,0.7880826729872473,0.8,1.0,1.0,453.0,842.0,1.0,1,655.0,1
1403,1403,-0.06809237010344871,-0.1,1.0,0.0,332.0,667.0,0.0,0,651.0,1
1404,1404,0.4961707027552503,0.5,0.0,0.0,365.0,528.0,0.0,1,717.0,1
1405,1405,-0.4176289602377123,-0.4,0.0,1.0,399.0,963.0,1.0,0,358.0,1
1406,1406,0.3090152943814458,0.3,0.0,0.0,482.0,955.0,1.0,0,173.0,0
1407,1407,0.06605837475936549,0.1,1.0,1.0,443.0,874.0,0.0,0,593.0,0
1408,1408,-0.680158222587778,-0.7,0.0,1.0,465.0,697.0,1.0,0,538.0,1
1409,1409,0.36908863025433913,0.4,0.0,0.0,443.0,510.0,0.0,1,587.0,1
1410,1410,-0.34128444616958287,-0.3,0.0,1.0,250.0,677.0,1.0,0,703.0,1
1411,1411,-0.3714381519255383,-0.4,0.0,1.0,456.0,975.0,1.0,0,479.0,1
1412,1412,0.08579577375033853,0.1,0.0,0.0,378.0,624.0,1.0,0,328.0,0
1413,1413,0.045884202046724165,0.0,1.0,1.0,267.0,537.0,1.0,1,596.0,1
1414,1414,-0.6042243250730008,-0.6,1.0,0.0,396.0,520.0,0.0,0,394.0,1
1415,1415,-0.4669424165650795,-0.5,1.0,0.0,315.0,984.0,0.0,0,241.0,1
1416,1416,0.12798071255371146,0.1,0.0,0.0,363.0,631.0,0.0,1,1156.0,1
1417,1417,-0.35907219076093433,-0.4,0.0,1.0,417.0,743.0,1.0,0,600.0,1
1418,1418,-0.5975587696735039,-0.6,1.0,0.0,454.0,626.0,0.0,0,420.0,1
1419,1419,-0.025324505228536687,-0.0,1.0,0.0,427.0,528.0,1.0,1,915.0,0
1420,1420,-0.6617531313879117,-0.7,1.0,0.0,264.0,650.0,0.0,0,356.0,1
1421,1421,-0.00045606558742805614,-0.0,0.0,1.0,435.0,627.0,1.0,0,1028.0,1
1422,1422,0.5054268953053186,0.5,1.0,1.0,483.0,827.0,1.0,1,340.0,1
1423,1423,0.6622619151492243,0.7,1.0,1.0,287.0,944.0,1.0,1,209.0,1
1424,1424,0.02531207698138027,0.0,0.0,0.0,371.0,522.0,1.0,0,637.0,0
1425,1425,-0.6822887582103583,-0.7,0.0,1.0,399.0,999.0,1.0,0,72.0,1
1426,1426,0.09664876428566227,0.1,1.0,1.0,285.0,813.0,0.0,0,562.0,0
1427,1427,-0.4800529481136526,-0.5,1.0,0.0,259.0,946.0,1.0,1,95.0,0
1428,1428,0.29197643751897717,0.3,1.0,1.0,498.0,996.0,1.0,1,416.0,1
1429,1429,-0.41599010305091605,-0.4,1.0,0.0,470.0,802.0,0.0,0,418.0,1
1430,1430,-0.44101099391095283,-0.4,1.0,0.0,485.0,859.0,0.0,0,296.0,1
1431,1431,0.09852246292740618,0.1,1.0,1.0,458.0,977.0,1.0,1,2645.0,1
1432,1432,-0.2795662823609608,-0.3,1.0,0.0,442.0,648.0,0.0,0,210.0,1
1433,1433,-0.6442725711764081,-0.6,1.0,0.0,255.0,902.0,0.0,0,443.0,1
1434,1434,0.568487847830505,0.6,0.0,0.0,341.0,809.0,0.0,1,420.0,1
1435,1435,-0.1481596397012258,-0.1,0.0,1.0,389.0,643.0,1.0,0,908.0,1
1436,1436,0.8906944015388715,0.9,0.0,0.0,419.0,515.0,0.0,1,766.0,1
1437,1437,-0.624214881865051,-0.6,1.0,0.0,421.0,518.0,0.0,0,431.0,1
1438,1438,-0.2316716039533805,-0.2,1.0,0.0,415.0,636.0,0.0,0,439.0,1
1439,1439,-0.6733770089422237,-0.7,1.0,0.0,481.0,656.0,0.0,0,423.0,1
1440,1440,0.8660471229979291,0.9,1.0,1.0,283.0,809.0,1.0,1,388.0,1
1441,1441,-0.22090664641469138,-0.2,0.0,1.0,397.0,935.0,1.0,0,728.0,1
1442,1442,-0.5609736031585282,-0.6,1.0,0.0,294.0,852.0,0.0,0,404.0,1
1443,1443,0.8377358870621993,0.8,1.0,1.0,252.0,653.0,1.0,1,305.0,1
1444,1444,-0.6686301792824557,-0.7,0.0,1.0,339.0,884.0,1.0,0,177.0,1
1445,1445,0.548707513274426,0.5,0.0,0.0,472.0,981.0,0.0,1,687.0,1
1446,1446,0.7118203121565948,0.7,1.0,1.0,271.0,811.0,1.0,1,348.0,1
1447,1447,0.8258172156849212,0.8,0.0,0.0,319.0,632.0,0.0,1,529.0,1
1448,1448,-0.06343491818436509,-0.1,0.0,1.0,312.0,502.0,1.0,0,1266.0,1
1449,1449,-0.3007035471874947,-0.3,0.0,1.0,411.0,539.0,1.0,0,600.0,1
1450,1450,-0.33859982221181384,-0.3,0.0,1.0,456.0,538.0,1.0,0,586.0,1
1451,1451,0.16347483206535707,0.2,1.0,1.0,332.0,638.0,0.0,0,1950.0,0
1452,1452,-0.0979199474740804,-0.1,1.0,0.0,491.0,556.0,0.0,0,493.0,1
1453,1453,0.7758689090416596,0.8,1.0,1.0,350.0,876.0,1.0,1,454.0,1
1454,1454,-0.7128311961516648,-0.7,0.0,1.0,279.0,622.0,1.0,0,339.0,1
1455,1455,0.4624659771165719,0.5,1.0,1.0,308.0,967.0,1.0,1,505.0,1
1456,1456,-0.0018311283490551888,-0.0,1.0,0.0,431.0,936.0,1.0,1,793.0,0
1457,1457,-0.7230191673126604,-0.7,0.0,1.0,362.0,680.0,1.0,0,468.0,1
1458,1458,-0.788099937775746,-0.8,1.0,0.0,438.0,934.0,0.0,0,158.0,1
1459,1459,-0.8179563727739592,-0.8,0.0,1.0,343.0,579.0,1.0,0,508.0,1
1460,1460,-0.36823578439327465,-0.4,1.0,0.0,347.0,759.0,0.0,0,524.0,1
1461,1461,-0.300889638740361,-0.3,1.0,0.0,374.0,524.0,0.0,0,532.0,1
1462,1462,-0.14022841253469398,-0.1,1.0,0.0,328.0,672.0,0.0,0,620.0,1
1463,1463,-0.7928347634008219,-0.8,1.0,0.0,467.0,549.0,0.0,0,444.0,1
1464,1464,0.8555054695097869,0.9,0.0,0.0,440.0,902.0,0.0,1,188.0,1
1465,1465,-0.766818882460415,-0.8,1.0,0.0,418.0,930.0,0.0,0,142.0,1
1466,1466,-0.0910780770632299,-0.1,0.0,1.0,261.0,536.0,1.0,0,1553.0,1
1467,1467,0.27601682515984594,0.3,0.0,0.0,254.0,956.0,0.0,1,140.0,1
1468,1468,0.11077828756189223,0.1,1.0,1.0,333.0,825.0,1.0,1,432.0,1
1469,1469,0.33841992452356184,0.3,0.0,0.0,473.0,884.0,0.0,1,443.0,1
1470,1470,-0.8451745099952078,-0.8,0.0,1.0,275.0,665.0,1.0,0,330.0,1
1471,1471,0.4358726158740859,0.4,0.0,0.0,250.0,815.0,0.0,1,255.0,1
1472,1472,-0.4766222250119025,-0.5,0.0,1.0,483.0,512.0,1.0,0,835.0,1
1473,1473,-0.6236775665117751,-0.6,1.0,0.0,263.0,870.0,0.0,0,277.0,1
1474,1474,-0.45575044248616603,-0.5,0.0,1.0,429.0,579.0,1.0,0,662.0,1
1475,1475,-0.3605390241730412,-0.4,1.0,0.0,486.0,770.0,0.0,0,254.0,1
1476,1476,-0.4226666667617072,-0.4,1.0,0.0,267.0,951.0,0.0,0,262.0,1
1477,1477,0.0681010012391009,0.1,0.0,0.0,447.0,530.0,0.0,1,783.0,1
1478,1478,0.7778291339253037,0.8,0.0,0.0,461.0,625.0,0.0,1,434.0,1
1479,1479,-0.754011809997535,-0.8,1.0,0.0,362.0,931.0,0.0,0,177.0,1
1480,1480,-0.554549116349057,-0.6,0.0,1.0,373.0,926.0,1.0,0,101.0,1
1481,1481,0.7680925263941557,0.8,0.0,0.0,453.0,808.0,0.0,1,279.0,1
1482,1482,0.6227150458805083,0.6,1.0,1.0,474.0,814.0,1.0,1,292.0,1
1483,1483,0.6978870595655816,0.7,1.0,1.0,429.0,573.0,1.0,1,418.0,1
1484,1484,0.20422091651854768,0.2,0.0,0.0,254.0,641.0,0.0,1,545.0,1
1485,1485,0.5353099592736014,0.5,0.0,0.0,294.0,652.0,0.0,1,654.0,1
1486,1486,0.4068389639026396,0.4,1.0,1.0,431.0,802.0,1.0,1,317.0,1
1487,1487,-0.5386515918484005,-0.5,1.0,0.0,385.0,507.0,0.0,0,658.0,1
1488,1488,0.22062467182813716,0.2,0.0,0.0,379.0,708.0,0.0,1,343.0,1
1489,1489,0.3437255639788276,0.3,1.0,1.0,255.0,502.0,1.0,1,483.0,1
1490,1490,0.8793381838846762,0.9,0.0,0.0,306.0,981.0,0.0,1,213.0,1
1491,1491,-0.15843957735677394,-0.2,1.0,0.0,437.0,960.0,0.0,0,283.0,1
