,trial,coherence,coherence_bin,green_side,correct_side,target_onset,checker_onset,decision,green_decision,decision_time,correct_decision
0,0,-0.6074361054197296,-0.6,1.0,0.0,329.0,868.0,0.0,0,263.0,1
1,1,-0.16800000543055726,-0.2,0.0,1.0,299.0,969.0,1.0,0,582.0,1
2,2,-0.8724204593077635,-0.9,0.0,1.0,398.0,856.0,1.0,0,176.0,1
3,3,0.28107710282899745,0.3,0.0,0.0,313.0,820.0,0.0,1,557.0,1
4,4,0.5166355598215852,0.5,1.0,1.0,304.0,860.0,1.0,1,386.0,1
5,5,-0.4416168110090014,-0.4,0.0,1.0,371.0,802.0,1.0,0,147.0,1
6,6,0.5848670149910212,0.6,0.0,0.0,335.0,880.0,0.0,1,115.0,1
7,7,0.1785844448647479,0.2,0.0,0.0,376.0,943.0,0.0,1,251.0,1
8,8,0.5681751036595982,0.6,0.0,0.0,424.0,715.0,0.0,1,151.0,1
9,9,-0.0038653821421262835,-0.0,1.0,0.0,493.0,558.0,1.0,1,679.0,0
10,10,0.38549763199190645,0.4,0.0,0.0,383.0,746.0,0.0,1,541.0,1
11,11,-0.3851693775468308,-0.4,1.0,0.0,416.0,694.0,0.0,0,470.0,1
12,12,0.6656447642097386,0.7,1.0,1.0,342.0,937.0,1.0,1,121.0,1
13,13,-0.5561544678578334,-0.6,1.0,0.0,321.0,504.0,0.0,0,485.0,1
14,14,-0.14089255770920794,-0.1,1.0,0.0,281.0,726.0,0.0,0,1283.0,1
15,15,0.6610352755344248,0.7,1.0,1.0,252.0,610.0,1.0,1,128.0,1
16,16,-0.7433857300313209,-0.7,1.0,0.0,413.0,503.0,0.0,0,304.0,1
17,17,-0.8058758705123903,-0.8,1.0,0.0,457.0,804.0,0.0,0,169.0,1
18,18,-0.6896362644343416,-0.7,1.0,0.0,258.0,827.0,0.0,0,235.0,1
19,19,-0.6570639615363492,-0.7,0.0,1.0,431.0,639.0,1.0,0,180.0,1
20,20,-0.3541282651438139,-0.4,1.0,0.0,369.0,720.0,0.0,0,641.0,1
21,21,-0.7700736943357338,-0.8,1.0,0.0,271.0,757.0,0.0,0,232.0,1
22,22,-0.12627840847682015,-0.1,1.0,0.0,330.0,612.0,0.0,0,638.0,1
23,23,0.8344137178592957,0.8,1.0,1.0,362.0,803.0,1.0,1,55.0,1
24,24,0.5744871155491452,0.6,1.0,1.0,417.0,618.0,1.0,1,515.0,1
25,25,-0.5472524446257168,-0.5,0.0,1.0,342.0,926.0,1.0,0,112.0,1
26,26,0.7505235391398944,0.8,0.0,0.0,321.0,828.0,0.0,1,171.0,1
27,27,0.48053126272276836,0.5,1.0,1.0,483.0,811.0,1.0,1,116.0,1
28,28,-0.17439539480050625,-0.2,0.0,1.0,300.0,728.0,1.0,0,272.0,1
29,29,0.8157140669513508,0.8,0.0,0.0,396.0,782.0,0.0,1,272.0,1
30,30,-0.08533027496854617,-0.1,1.0,0.0,255.0,745.0,1.0,1,740.0,0
31,31,-0.48644580333965437,-0.5,0.0,1.0,417.0,873.0,1.0,0,190.0,1
32,32,-0.006077819304229681,-0.0,1.0,0.0,450.0,852.0,1.0,1,-182.0,0
33,33,-0.26230866855808366,-0.3,1.0,0.0,261.0,907.0,0.0,0,492.0,1
34,34,-0.771810969499181,-0.8,0.0,1.0,434.0,975.0,0.0,1,-49.0,0
35,35,0.7834120520096607,0.8,0.0,0.0,491.0,513.0,0.0,1,226.0,1
36,36,-0.49614343552208934,-0.5,0.0,1.0,427.0,827.0,1.0,0,256.0,1
37,37,0.8776120857825748,0.9,0.0,0.0,355.0,975.0,0.0,1,170.0,1
38,38,-0.7198107642456354,-0.7,1.0,0.0,383.0,543.0,0.0,0,454.0,1
39,39,-0.36502565983288504,-0.4,0.0,1.0,408.0,829.0,1.0,0,353.0,1
40,40,0.48776961051230494,0.5,0.0,0.0,420.0,963.0,0.0,1,307.0,1
41,41,0.4438800612643482,0.4,1.0,1.0,387.0,903.0,1.0,1,220.0,1
42,42,-0.7377645546810734,-0.7,0.0,1.0,271.0,988.0,1.0,0,71.0,1
43,43,-0.4281002612350886,-0.4,1.0,0.0,394.0,504.0,0.0,0,472.0,1
44,44,0.014862459092507607,0.0,0.0,0.0,343.0,709.0,0.0,1,1228.0,1
45,45,-0.3806498572956861,-0.4,1.0,0.0,364.0,592.0,0.0,0,434.0,1
46,46,-0.5357996136120249,-0.5,0.0,1.0,370.0,908.0,1.0,0,192.0,1
47,47,0.2599824009894335,0.3,0.0,0.0,426.0,711.0,0.0,1,483.0,1
48,48,-0.4167017861019448,-0.4,0.0,1.0,435.0,508.0,1.0,0,377.0,1
49,49,-0.5034952076175183,-0.5,1.0,0.0,270.0,587.0,0.0,0,153.0,1
50,50,0.7577392589780957,0.8,0.0,0.0,443.0,768.0,0.0,1,229.0,1
51,51,0.5550445893506549,0.6,0.0,0.0,409.0,605.0,0.0,1,266.0,1
52,52,-0.20948264346899936,-0.2,0.0,1.0,493.0,951.0,1.0,0,246.0,1
53,53,-0.3681812001303235,-0.4,0.0,1.0,436.0,549.0,1.0,0,545.0,1
54,54,-0.8044735895590255,-0.8,0.0,1.0,277.0,594.0,1.0,0,219.0,1
55,55,0.7832099161271223,0.8,1.0,1.0,390.0,742.0,1.0,1,58.0,1
56,56,-0.7112830158194606,-0.7,1.0,0.0,418.0,589.0,0.0,0,223.0,1
57,57,-0.13313796700697378,-0.1,0.0,1.0,453.0,500.0,1.0,0,637.0,1
58,58,0.5011790512524276,0.5,0.0,0.0,488.0,908.0,0.0,1,284.0,1
59,59,0.721436173247788,0.7,1.0,1.0,427.0,861.0,1.0,1,162.0,1
60,60,-0.4938089572861672,-0.5,0.0,1.0,473.0,827.0,1.0,0,260.0,1
61,61,-0.11651876072193401,-0.1,0.0,1.0,351.0,606.0,1.0,0,1073.0,1
62,62,0.13373512299603296,0.1,0.0,0.0,376.0,954.0,0.0,1,150.0,1
63,63,-0.3991534098795413,-0.4,0.0,1.0,495.0,804.0,1.0,0,361.0,1
64,64,-0.8706919781735754,-0.9,0.0,1.0,254.0,796.0,1.0,0,200.0,1
65,65,-0.11878856768031154,-0.1,0.0,1.0,329.0,878.0,1.0,0,143.0,1
66,66,0.4835616966550832,0.5,0.0,0.0,359.0,969.0,0.0,1,472.0,1
67,67,0.01096594134425799,0.0,0.0,0.0,381.0,602.0,0.0,1,1547.0,1
68,68,0.6839656569263738,0.7,1.0,1.0,365.0,794.0,1.0,1,161.0,1
69,69,-0.17207561005086203,-0.2,1.0,0.0,368.0,797.0,0.0,0,585.0,1
70,70,0.7630107189956764,0.8,1.0,1.0,281.0,805.0,1.0,1,74.0,1
71,71,0.12322091286095882,0.1,0.0,0.0,475.0,663.0,0.0,1,2422.0,1
72,72,-0.3686161107646113,-0.4,1.0,0.0,305.0,937.0,0.0,0,298.0,1
73,73,0.3177016757078527,0.3,1.0,1.0,400.0,660.0,1.0,1,350.0,1
74,74,-0.8880927203264313,-0.9,0.0,1.0,259.0,616.0,1.0,0,185.0,1
75,75,0.5609279717992038,0.6,1.0,1.0,286.0,543.0,1.0,1,411.0,1
76,76,-0.6935215495552116,-0.7,0.0,1.0,405.0,815.0,1.0,0,200.0,1
77,77,-0.6246465913637591,-0.6,0.0,1.0,262.0,629.0,1.0,0,269.0,1
78,78,-0.8788527183424935,-0.9,1.0,0.0,384.0,909.0,0.0,0,127.0,1
79,79,0.6939463387113535,0.7,0.0,0.0,389.0,595.0,0.0,1,306.0,1
80,80,0.004850090493699111,0.0,0.0,0.0,316.0,693.0,1.0,0,861.0,0
81,81,-0.6885570114490844,-0.7,1.0,0.0,452.0,861.0,0.0,0,227.0,1
82,82,-0.2903068502968823,-0.3,1.0,0.0,371.0,854.0,0.0,0,255.0,1
83,83,0.8010517233603992,0.8,1.0,1.0,287.0,805.0,1.0,1,168.0,1
84,84,-0.6495011327581375,-0.6,0.0,1.0,434.0,911.0,1.0,0,235.0,1
85,85,-0.18224607786183222,-0.2,0.0,1.0,261.0,919.0,1.0,0,890.0,1
86,86,-0.5515552093442274,-0.6,0.0,1.0,480.0,923.0,1.0,0,337.0,1
87,87,-0.06836832402022852,-0.1,1.0,0.0,489.0,537.0,0.0,0,2394.0,1
88,88,-0.02956173207796542,-0.0,0.0,1.0,347.0,953.0,1.0,0,3700.0,1
89,89,0.5232782103629129,0.5,0.0,0.0,385.0,564.0,0.0,1,421.0,1
90,90,0.3346741415902684,0.3,0.0,0.0,312.0,866.0,0.0,1,432.0,1
91,91,0.405305980791666,0.4,1.0,1.0,289.0,501.0,1.0,1,420.0,1
92,92,-0.1505867556434055,-0.2,0.0,1.0,411.0,832.0,1.0,0,427.0,1
93,93,-0.018077875750235672,-0.0,0.0,1.0,321.0,537.0,1.0,0,1052.0,1
94,94,0.7778921982774251,0.8,0.0,0.0,292.0,989.0,0.0,1,189.0,1
95,95,-0.45315175179366657,-0.5,1.0,0.0,318.0,777.0,0.0,0,285.0,1
96,96,0.10416314549844807,0.1,1.0,1.0,330.0,847.0,1.0,1,173.0,1
97,97,0.6605008565277694,0.7,0.0,0.0,416.0,630.0,0.0,1,214.0,1
98,98,0.6918938468458214,0.7,1.0,1.0,298.0,885.0,1.0,1,127.0,1
99,99,0.3626257292067222,0.4,1.0,1.0,271.0,504.0,1.0,1,645.0,1
100,100,0.2555888274694903,0.3,1.0,1.0,273.0,833.0,1.0,1,264.0,1
101,101,0.2656152081091293,0.3,0.0,0.0,424.0,746.0,0.0,1,570.0,1
102,102,-0.2033235652963974,-0.2,1.0,0.0,481.0,565.0,0.0,0,774.0,1
103,103,0.8179410959821213,0.8,0.0,0.0,448.0,757.0,0.0,1,345.0,1
104,104,-0.6066310402262378,-0.6,0.0,1.0,487.0,846.0,1.0,0,87.0,1
105,105,0.21286990704329567,0.2,1.0,1.0,390.0,511.0,1.0,1,469.0,1
106,106,0.13688136516165816,0.1,0.0,0.0,406.0,783.0,0.0,1,931.0,1
107,107,-0.5011385081883537,-0.5,0.0,1.0,371.0,870.0,1.0,0,149.0,1
108,108,0.4381946829471165,0.4,0.0,0.0,333.0,979.0,0.0,1,148.0,1
109,109,0.6858084950596813,0.7,0.0,0.0,482.0,629.0,0.0,1,329.0,1
110,110,0.17848232023301602,0.2,0.0,0.0,473.0,870.0,0.0,1,197.0,1
111,111,0.12237912269722784,0.1,1.0,1.0,368.0,900.0,1.0,1,492.0,1
112,112,-0.4109306266308277,-0.4,0.0,1.0,322.0,848.0,1.0,0,240.0,1
113,113,0.7643672338714428,0.8,1.0,1.0,366.0,793.0,1.0,1,81.0,1
114,114,-0.761582952245618,-0.8,0.0,1.0,418.0,758.0,1.0,0,284.0,1
115,115,0.32400866910851256,0.3,1.0,1.0,324.0,542.0,1.0,1,414.0,1
116,116,0.325268158997425,0.3,1.0,1.0,288.0,969.0,1.0,1,223.0,1
117,117,-0.1601654523094318,-0.2,0.0,1.0,266.0,554.0,1.0,0,680.0,1
118,118,0.4098099718505569,0.4,0.0,0.0,304.0,696.0,0.0,1,330.0,1
119,119,-0.6989615389582817,-0.7,0.0,1.0,334.0,538.0,1.0,0,238.0,1
120,120,0.31989032920753846,0.3,1.0,1.0,289.0,963.0,1.0,1,198.0,1
121,121,0.5920892101285725,0.6,1.0,1.0,351.0,540.0,1.0,1,439.0,1
122,122,0.800415849813315,0.8,0.0,0.0,316.0,865.0,0.0,1,139.0,1
123,123,0.2990878807059586,0.3,1.0,1.0,455.0,936.0,1.0,1,179.0,1
124,124,-0.6609175450151127,-0.7,0.0,1.0,481.0,749.0,1.0,0,290.0,1
125,125,0.5056750137947762,0.5,0.0,0.0,419.0,627.0,0.0,1,334.0,1
126,126,-0.8837055111660582,-0.9,1.0,0.0,391.0,659.0,0.0,0,210.0,1
127,127,-0.06385570920887484,-0.1,0.0,1.0,333.0,655.0,1.0,0,602.0,1
128,128,0.898097235172464,0.9,0.0,0.0,461.0,692.0,0.0,1,327.0,1
129,129,-0.022202051776744613,-0.0,0.0,1.0,371.0,832.0,1.0,0,1097.0,1
130,130,0.8199915533489387,0.8,0.0,0.0,335.0,938.0,0.0,1,117.0,1
131,131,-0.5156802375495424,-0.5,0.0,1.0,411.0,969.0,1.0,0,230.0,1
132,132,-0.012449666906334422,-0.0,1.0,0.0,475.0,935.0,1.0,1,-10.0,0
133,133,0.42271095474009435,0.4,0.0,0.0,471.0,646.0,0.0,1,403.0,1
134,134,-0.2440537959673461,-0.2,0.0,1.0,457.0,536.0,1.0,0,547.0,1
135,135,0.4595910714272823,0.5,1.0,1.0,258.0,537.0,1.0,1,295.0,1
136,136,0.21312942128073764,0.2,0.0,0.0,323.0,657.0,0.0,1,740.0,1
137,137,-0.12004910083150522,-0.1,1.0,0.0,319.0,756.0,0.0,0,3475.0,1
138,138,0.4873522428791838,0.5,0.0,0.0,383.0,971.0,0.0,1,196.0,1
139,139,0.7639941676678338,0.8,0.0,0.0,393.0,549.0,0.0,1,468.0,1
140,140,-0.1993643382448399,-0.2,1.0,0.0,471.0,685.0,0.0,0,744.0,1
141,141,-0.8140927807091431,-0.8,0.0,1.0,349.0,880.0,1.0,0,101.0,1
142,142,0.8675197717079083,0.9,1.0,1.0,389.0,518.0,1.0,1,243.0,1
143,143,-0.5077843550217771,-0.5,0.0,1.0,273.0,801.0,1.0,0,626.0,1
144,144,-0.7592823490767397,-0.8,1.0,0.0,399.0,574.0,0.0,0,287.0,1
145,145,0.4861767942234848,0.5,0.0,0.0,490.0,518.0,0.0,1,352.0,1
146,146,0.6333279552323242,0.6,1.0,1.0,319.0,855.0,1.0,1,406.0,1
147,147,0.693006714973459,0.7,0.0,0.0,310.0,609.0,0.0,1,321.0,1
148,148,0.7693325016817419,0.8,1.0,1.0,359.0,516.0,1.0,1,795.0,1
149,149,0.11571698739034952,0.1,1.0,1.0,472.0,997.0,1.0,1,621.0,1
150,150,-0.25463319376107585,-0.3,1.0,0.0,414.0,683.0,0.0,0,463.0,1
151,151,0.6318170383529503,0.6,0.0,0.0,444.0,974.0,0.0,1,62.0,1
152,152,-0.36699675085564043,-0.4,1.0,0.0,323.0,719.0,0.0,0,308.0,1
153,153,-0.7318216967190961,-0.7,0.0,1.0,276.0,662.0,1.0,0,262.0,1
154,154,0.6852904698783296,0.7,1.0,1.0,306.0,794.0,1.0,1,140.0,1
155,155,0.022712295679600314,0.0,0.0,0.0,443.0,905.0,1.0,0,1152.0,0
156,156,-0.3623513433446143,-0.4,1.0,0.0,367.0,873.0,0.0,0,520.0,1
157,157,-0.30107682669166846,-0.3,1.0,0.0,250.0,937.0,0.0,0,773.0,1
158,158,0.27412866601571395,0.3,0.0,0.0,438.0,916.0,0.0,1,436.0,1
159,159,0.5296621345594686,0.5,0.0,0.0,337.0,960.0,0.0,1,53.0,1
160,160,-0.7879100127952694,-0.8,0.0,1.0,374.0,807.0,1.0,0,209.0,1
161,161,0.15442271534443386,0.2,0.0,0.0,288.0,885.0,1.0,0,417.0,0
162,162,0.6049700093796119,0.6,0.0,0.0,324.0,921.0,0.0,1,135.0,1
163,163,-0.3779748926492439,-0.4,0.0,1.0,327.0,937.0,1.0,0,206.0,1
164,164,0.17757961140880274,0.2,1.0,1.0,398.0,890.0,1.0,1,512.0,1
165,165,-0.2778778095942186,-0.3,0.0,1.0,346.0,965.0,1.0,0,399.0,1
166,166,-0.32124234825386877,-0.3,0.0,1.0,280.0,601.0,1.0,0,269.0,1
167,167,0.1711193860283241,0.2,0.0,0.0,263.0,669.0,0.0,1,848.0,1
168,168,0.3217000107117024,0.3,1.0,1.0,401.0,753.0,1.0,1,286.0,1
169,169,-0.6651702381138902,-0.7,1.0,0.0,461.0,595.0,0.0,0,224.0,1
170,170,-0.35500118644800893,-0.4,0.0,1.0,254.0,625.0,1.0,0,421.0,1
171,171,-0.498130637489199,-0.5,0.0,1.0,380.0,569.0,1.0,0,361.0,1
172,172,-0.13057957157909283,-0.1,1.0,0.0,485.0,639.0,1.0,1,266.0,0
173,173,-0.17537030113546415,-0.2,1.0,0.0,498.0,584.0,0.0,0,1938.0,1
174,174,0.5174509034407474,0.5,1.0,1.0,483.0,710.0,1.0,1,257.0,1
175,175,-0.5991331859589293,-0.6,1.0,0.0,481.0,757.0,0.0,0,232.0,1
176,176,0.4206738862574072,0.4,1.0,1.0,356.0,566.0,1.0,1,288.0,1
177,177,0.8505905475694026,0.9,0.0,0.0,297.0,814.0,0.0,1,139.0,1
178,178,-0.21254932966965512,-0.2,0.0,1.0,265.0,591.0,1.0,0,864.0,1
179,179,-0.6428721350103859,-0.6,1.0,0.0,482.0,951.0,0.0,0,147.0,1
180,180,0.775178883117622,0.8,0.0,0.0,418.0,863.0,0.0,1,199.0,1
181,181,-0.48311882659444405,-0.5,0.0,1.0,347.0,713.0,1.0,0,550.0,1
182,182,0.4256447330797314,0.4,0.0,0.0,319.0,826.0,0.0,1,245.0,1
183,183,-0.7268718729307769,-0.7,1.0,0.0,426.0,954.0,0.0,0,160.0,1
184,184,0.13814748198257798,0.1,0.0,0.0,487.0,840.0,0.0,1,433.0,1
185,185,0.13849640325842383,0.1,1.0,1.0,440.0,920.0,1.0,1,160.0,1
186,186,0.863613144511571,0.9,0.0,0.0,360.0,917.0,0.0,1,113.0,1
187,187,0.4320464232323741,0.4,0.0,0.0,457.0,711.0,0.0,1,242.0,1
188,188,-0.1518015661065093,-0.2,1.0,0.0,491.0,838.0,0.0,0,251.0,1
189,189,-0.8925279448208969,-0.9,1.0,0.0,317.0,677.0,0.0,0,326.0,1
190,190,0.15942146938437085,0.2,1.0,1.0,307.0,781.0,1.0,1,382.0,1
191,191,-0.673353043908273,-0.7,1.0,0.0,324.0,505.0,0.0,0,411.0,1
192,192,-0.3132984571056091,-0.3,1.0,0.0,366.0,534.0,0.0,0,510.0,1
193,193,-0.07970303622190666,-0.1,1.0,0.0,319.0,661.0,0.0,0,1380.0,1
194,194,-0.6857191525116838,-0.7,1.0,0.0,392.0,806.0,0.0,0,172.0,1
195,195,-0.7172350561585301,-0.7,0.0,1.0,405.0,917.0,1.0,0,108.0,1
196,196,-0.5289696282984109,-0.5,1.0,0.0,293.0,897.0,0.0,0,390.0,1
197,197,-0.894655356614083,-0.9,1.0,0.0,404.0,717.0,0.0,0,159.0,1
198,198,-0.3055376218304594,-0.3,1.0,0.0,438.0,663.0,0.0,0,269.0,1
199,199,-0.6707170801821303,-0.7,0.0,1.0,348.0,701.0,1.0,0,211.0,1
200,200,-0.6166043713938778,-0.6,0.0,1.0,415.0,984.0,0.0,1,-39.0,0
201,201,-0.37532649385122197,-0.4,0.0,1.0,368.0,618.0,1.0,0,444.0,1
202,202,0.883346891187852,0.9,0.0,0.0,471.0,898.0,0.0,1,111.0,1
203,203,-0.02816329193511835,-0.0,1.0,0.0,376.0,568.0,1.0,1,646.0,0
204,204,-0.5381697741442069,-0.5,1.0,0.0,283.0,533.0,0.0,0,614.0,1
205,205,-0.6695504278711126,-0.7,1.0,0.0,387.0,552.0,0.0,0,591.0,1
206,206,0.5074314503976537,0.5,1.0,1.0,437.0,695.0,1.0,1,228.0,1
207,207,-0.3917665080852837,-0.4,0.0,1.0,488.0,706.0,1.0,0,396.0,1
208,208,0.7769599543394908,0.8,1.0,1.0,359.0,558.0,1.0,1,323.0,1
209,209,-0.26644133003746184,-0.3,0.0,1.0,356.0,634.0,1.0,0,540.0,1
210,210,-0.6269014059897275,-0.6,0.0,1.0,492.0,694.0,1.0,0,204.0,1
211,211,-0.2219037453341801,-0.2,1.0,0.0,399.0,813.0,0.0,0,248.0,1
212,212,0.2899841608230874,0.3,0.0,0.0,332.0,858.0,0.0,1,210.0,1
213,213,0.6632963034887819,0.7,0.0,0.0,439.0,992.0,0.0,1,269.0,1
214,214,-0.6918106150103353,-0.7,1.0,0.0,381.0,866.0,0.0,0,293.0,1
215,215,-0.0739510299828301,-0.1,0.0,1.0,277.0,891.0,1.0,0,472.0,1
216,216,-0.7922918171865189,-0.8,1.0,0.0,305.0,724.0,0.0,0,161.0,1
217,217,-0.12400087471542887,-0.1,1.0,0.0,358.0,552.0,1.0,1,530.0,0
218,218,-0.6988172560615735,-0.7,0.0,1.0,382.0,633.0,1.0,0,225.0,1
219,219,0.8505756377548178,0.9,1.0,1.0,412.0,994.0,1.0,1,334.0,1
220,220,0.020571828559006633,0.0,0.0,0.0,401.0,809.0,0.0,1,1910.0,1
221,221,0.6777888546901484,0.7,1.0,1.0,456.0,763.0,1.0,1,201.0,1
222,222,-0.8470363580323313,-0.8,0.0,1.0,469.0,518.0,1.0,0,453.0,1
223,223,0.470609895816798,0.5,1.0,1.0,353.0,794.0,1.0,1,163.0,1
224,224,0.5838444509102597,0.6,1.0,1.0,257.0,887.0,1.0,1,136.0,1
225,225,0.579047385762412,0.6,0.0,0.0,255.0,734.0,0.0,1,241.0,1
226,226,0.8081124113133474,0.8,1.0,1.0,406.0,676.0,1.0,1,128.0,1
227,227,-0.25710455806958943,-0.3,1.0,0.0,425.0,915.0,0.0,0,770.0,1
228,228,-0.10313027659282081,-0.1,1.0,0.0,392.0,869.0,0.0,0,1489.0,1
229,229,0.6724356916950006,0.7,0.0,0.0,442.0,601.0,0.0,1,327.0,1
230,230,0.1428821579247258,0.1,0.0,0.0,406.0,685.0,0.0,1,3009.0,1
231,231,-0.5739358263447323,-0.6,0.0,1.0,283.0,965.0,1.0,0,192.0,1
232,232,0.8669428523933721,0.9,1.0,1.0,256.0,772.0,1.0,1,102.0,1
233,233,-0.11387504239810164,-0.1,1.0,0.0,266.0,840.0,0.0,0,1564.0,1
234,234,-0.816677825165075,-0.8,1.0,0.0,420.0,533.0,0.0,0,417.0,1
235,235,-0.5459258897349932,-0.5,1.0,0.0,409.0,841.0,0.0,0,140.0,1
236,236,0.7299325082115017,0.7,1.0,1.0,257.0,675.0,1.0,1,78.0,1
237,237,-0.4628772911320371,-0.5,0.0,1.0,319.0,614.0,1.0,0,297.0,1
238,238,-0.030506546777699928,-0.0,0.0,1.0,385.0,796.0,1.0,0,1069.0,1
239,239,-0.011530318622004931,-0.0,0.0,1.0,382.0,709.0,1.0,0,1679.0,1
240,240,0.23474348527573763,0.2,0.0,0.0,416.0,869.0,0.0,1,555.0,1
241,241,0.4698851590876548,0.5,0.0,0.0,484.0,898.0,0.0,1,248.0,1
242,242,-0.5220097235577941,-0.5,1.0,0.0,347.0,644.0,0.0,0,339.0,1
243,243,-0.8332707060276093,-0.8,0.0,1.0,468.0,508.0,1.0,0,234.0,1
244,244,0.18073831149131625,0.2,1.0,1.0,428.0,995.0,1.0,1,547.0,1
245,245,-0.4349305427522511,-0.4,0.0,1.0,255.0,830.0,1.0,0,245.0,1
246,246,0.16887831214997628,0.2,0.0,0.0,288.0,882.0,0.0,1,590.0,1
247,247,-0.8040127085161206,-0.8,0.0,1.0,308.0,960.0,1.0,0,312.0,1
248,248,0.7781177004903096,0.8,1.0,1.0,342.0,594.0,1.0,1,214.0,1
249,249,0.5431730411860402,0.5,1.0,1.0,437.0,975.0,1.0,1,-2.0,1
250,250,0.8758690268277144,0.9,1.0,1.0,320.0,718.0,1.0,1,172.0,1
251,251,0.49784202918561504,0.5,1.0,1.0,287.0,570.0,1.0,1,273.0,1
252,252,0.3835124655241803,0.4,0.0,0.0,492.0,700.0,0.0,1,428.0,1
253,253,-0.6973370101569607,-0.7,1.0,0.0,366.0,707.0,0.0,0,137.0,1
254,254,-0.13488958700213827,-0.1,0.0,1.0,288.0,980.0,1.0,0,312.0,1
255,255,-0.4652417965676076,-0.5,1.0,0.0,333.0,889.0,0.0,0,258.0,1
256,256,0.07316091344053866,0.1,0.0,0.0,377.0,958.0,0.0,1,175.0,1
257,257,0.05685322882229027,0.1,1.0,1.0,481.0,873.0,1.0,1,306.0,1
258,258,0.4039270412371646,0.4,1.0,1.0,258.0,693.0,1.0,1,289.0,1
259,259,0.6338164791811692,0.6,0.0,0.0,406.0,607.0,0.0,1,457.0,1
260,260,-0.4180564611373453,-0.4,0.0,1.0,430.0,654.0,1.0,0,446.0,1
261,261,-0.7182950586519335,-0.7,0.0,1.0,317.0,765.0,1.0,0,238.0,1
262,262,-0.7902432817557293,-0.8,0.0,1.0,383.0,886.0,1.0,0,371.0,1
263,263,0.7693903618814274,0.8,1.0,1.0,323.0,651.0,1.0,1,366.0,1
264,264,0.7208759316677279,0.7,1.0,1.0,388.0,627.0,1.0,1,425.0,1
265,265,0.3124572448124686,0.3,1.0,1.0,492.0,823.0,1.0,1,275.0,1
266,266,-0.18646808455438024,-0.2,0.0,1.0,325.0,903.0,1.0,0,242.0,1
267,267,-0.4077956193777108,-0.4,1.0,0.0,268.0,974.0,0.0,0,378.0,1
268,268,0.15206635565156879,0.2,0.0,0.0,489.0,677.0,0.0,1,1184.0,1
269,269,-0.6503394787478549,-0.7,0.0,1.0,458.0,946.0,1.0,0,96.0,1
270,270,-0.7241340509875367,-0.7,0.0,1.0,322.0,928.0,1.0,0,200.0,1
271,271,-0.2364699112972125,-0.2,1.0,0.0,344.0,621.0,0.0,0,645.0,1
272,272,-0.2986670042872578,-0.3,0.0,1.0,436.0,798.0,1.0,0,196.0,1
273,273,-0.4276511655605308,-0.4,0.0,1.0,466.0,952.0,1.0,0,232.0,1
274,274,0.22372400825236627,0.2,1.0,1.0,382.0,855.0,1.0,1,233.0,1
275,275,-0.349811425824739,-0.3,1.0,0.0,415.0,724.0,0.0,0,941.0,1
276,276,-0.3771373346259702,-0.4,0.0,1.0,267.0,897.0,1.0,0,336.0,1
277,277,0.3778587306581215,0.4,0.0,0.0,334.0,527.0,0.0,1,379.0,1
278,278,0.8068462347625344,0.8,1.0,1.0,346.0,883.0,1.0,1,171.0,1
279,279,0.18127518609471915,0.2,0.0,0.0,455.0,993.0,0.0,1,902.0,1
280,280,0.24008697102022747,0.2,1.0,1.0,363.0,735.0,1.0,1,282.0,1
281,281,0.1679808225821552,0.2,0.0,0.0,273.0,751.0,0.0,1,196.0,1
282,282,-0.03352860306649841,-0.0,0.0,1.0,450.0,571.0,1.0,0,919.0,1
283,283,-0.07680643326072067,-0.1,0.0,1.0,472.0,960.0,1.0,0,1128.0,1
284,284,-0.08619860240535937,-0.1,0.0,1.0,306.0,771.0,1.0,0,2623.0,1
285,285,-0.5505072587053506,-0.6,1.0,0.0,391.0,923.0,0.0,0,366.0,1
286,286,-0.8618278519965932,-0.9,0.0,1.0,470.0,948.0,1.0,0,82.0,1
287,287,-0.6120289160475731,-0.6,0.0,1.0,321.0,808.0,1.0,0,191.0,1
288,288,0.04006089190068496,0.0,1.0,1.0,496.0,984.0,1.0,1,660.0,1
289,289,-0.7154061991404397,-0.7,0.0,1.0,425.0,749.0,1.0,0,136.0,1
290,290,-0.5506692034186376,-0.6,1.0,0.0,353.0,863.0,0.0,0,264.0,1
291,291,0.08681482206900548,0.1,0.0,0.0,498.0,655.0,0.0,1,437.0,1
292,292,0.33712805661394374,0.3,0.0,0.0,337.0,775.0,0.0,1,358.0,1
293,293,0.31871389549191165,0.3,1.0,1.0,294.0,733.0,1.0,1,223.0,1
294,294,0.43858506486664506,0.4,1.0,1.0,399.0,758.0,1.0,1,223.0,1
295,295,0.11586657797717692,0.1,1.0,1.0,450.0,886.0,1.0,1,314.0,1
296,296,0.5912797219015157,0.6,0.0,0.0,472.0,993.0,0.0,1,155.0,1
297,297,0.3848369020494379,0.4,0.0,0.0,361.0,561.0,0.0,1,518.0,1
298,298,0.1707329031748689,0.2,1.0,1.0,359.0,814.0,1.0,1,377.0,1
299,299,0.6233174861566896,0.6,0.0,0.0,255.0,971.0,0.0,1,114.0,1
300,300,0.3341397167339767,0.3,1.0,1.0,404.0,684.0,1.0,1,292.0,1
301,301,0.34001615613550695,0.3,1.0,1.0,287.0,543.0,1.0,1,670.0,1
302,302,-0.7678748007799648,-0.8,1.0,0.0,285.0,684.0,0.0,0,171.0,1
303,303,-0.17692181606097157,-0.2,1.0,0.0,347.0,666.0,0.0,0,1037.0,1
304,304,-0.21073297897698096,-0.2,0.0,1.0,335.0,930.0,1.0,0,205.0,1
305,305,-0.09609597224429567,-0.1,1.0,0.0,307.0,815.0,1.0,1,1218.0,0
306,306,0.4937701542578884,0.5,1.0,1.0,326.0,926.0,1.0,1,78.0,1
307,307,0.5696388857762743,0.6,1.0,1.0,307.0,909.0,1.0,1,254.0,1
308,308,-0.05692799206936672,-0.1,1.0,0.0,398.0,721.0,1.0,1,1841.0,0
309,309,-0.03895964032920474,-0.0,0.0,1.0,457.0,700.0,1.0,0,2333.0,1
310,310,0.4636652531096942,0.5,0.0,0.0,289.0,542.0,0.0,1,369.0,1
311,311,0.5378938999464945,0.5,1.0,1.0,278.0,600.0,1.0,1,102.0,1
312,312,-0.31433371613989924,-0.3,0.0,1.0,369.0,660.0,1.0,0,211.0,1
313,313,0.039395397123624276,0.0,0.0,0.0,296.0,517.0,1.0,0,1127.0,0
314,314,-0.2885749148069232,-0.3,0.0,1.0,468.0,749.0,1.0,0,193.0,1
315,315,-0.059667613112214024,-0.1,1.0,0.0,487.0,595.0,0.0,0,838.0,1
316,316,0.011094756374998127,0.0,0.0,0.0,291.0,938.0,0.0,1,471.0,1
317,317,-0.633674888959585,-0.6,0.0,1.0,278.0,758.0,1.0,0,254.0,1
318,318,0.7363361656036859,0.7,1.0,1.0,297.0,616.0,1.0,1,267.0,1
319,319,-0.18233474582429643,-0.2,1.0,0.0,455.0,574.0,0.0,0,461.0,1
320,320,-0.2550266901395758,-0.3,0.0,1.0,390.0,540.0,1.0,0,590.0,1
321,321,-0.39307612103602274,-0.4,0.0,1.0,492.0,929.0,1.0,0,279.0,1
322,322,-0.7255619834182503,-0.7,1.0,0.0,300.0,631.0,0.0,0,339.0,1
323,323,0.5420354961050738,0.5,0.0,0.0,447.0,697.0,0.0,1,276.0,1
324,324,-0.5435175893880748,-0.5,1.0,0.0,317.0,957.0,0.0,0,356.0,1
325,325,-0.2657712755680839,-0.3,1.0,0.0,460.0,895.0,0.0,0,705.0,1
326,326,-0.25923469966942425,-0.3,0.0,1.0,445.0,717.0,1.0,0,298.0,1
327,327,-0.5605694967028478,-0.6,1.0,0.0,415.0,854.0,0.0,0,241.0,1
328,328,0.17053132685014283,0.2,0.0,0.0,351.0,731.0,0.0,1,298.0,1
329,329,-0.8148657527681477,-0.8,1.0,0.0,369.0,910.0,0.0,0,141.0,1
330,330,0.33306073674497283,0.3,1.0,1.0,392.0,689.0,1.0,1,439.0,1
331,331,0.6624162494827527,0.7,1.0,1.0,481.0,845.0,1.0,1,144.0,1
332,332,0.8252708292151466,0.8,1.0,1.0,446.0,531.0,1.0,1,583.0,1
333,333,-0.3279059112103998,-0.3,1.0,0.0,362.0,616.0,0.0,0,682.0,1
334,334,-0.22080471397948143,-0.2,0.0,1.0,253.0,661.0,1.0,0,286.0,1
335,335,0.2742386262130857,0.3,0.0,0.0,442.0,618.0,0.0,1,570.0,1
336,336,0.8979775647916547,0.9,1.0,1.0,260.0,778.0,1.0,1,212.0,1
337,337,-0.785778417017648,-0.8,1.0,0.0,267.0,755.0,0.0,0,168.0,1
338,338,-0.3076053454746529,-0.3,0.0,1.0,303.0,866.0,1.0,0,821.0,1
339,339,-0.2914020591720604,-0.3,0.0,1.0,303.0,974.0,1.0,0,43.0,1
340,340,0.23440153533887698,0.2,1.0,1.0,459.0,974.0,1.0,1,437.0,1
341,341,0.11568743714380514,0.1,0.0,0.0,406.0,930.0,1.0,0,474.0,0
342,342,-0.2561937404909902,-0.3,0.0,1.0,381.0,775.0,1.0,0,454.0,1
343,343,0.5755232216351086,0.6,1.0,1.0,419.0,923.0,1.0,1,158.0,1
344,344,0.8684727804629725,0.9,0.0,0.0,474.0,924.0,0.0,1,132.0,1
345,345,-0.8190109938206693,-0.8,0.0,1.0,361.0,527.0,1.0,0,392.0,1
346,346,0.7198891214708217,0.7,1.0,1.0,277.0,724.0,1.0,1,79.0,1
347,347,0.5940310603688602,0.6,1.0,1.0,496.0,950.0,1.0,1,124.0,1
348,348,-0.054745220054381094,-0.1,0.0,1.0,481.0,883.0,1.0,0,356.0,1
349,349,0.06472240840692345,0.1,1.0,1.0,347.0,574.0,1.0,1,639.0,1
350,350,0.5503241262959985,0.6,0.0,0.0,353.0,980.0,0.0,1,297.0,1
351,351,0.464967656998338,0.5,1.0,1.0,280.0,501.0,1.0,1,469.0,1
352,352,-0.6487196119789924,-0.6,1.0,0.0,454.0,598.0,0.0,0,238.0,1
353,353,-0.08604907241468207,-0.1,1.0,0.0,292.0,512.0,1.0,1,2216.0,0
354,354,-0.11738693154668567,-0.1,0.0,1.0,261.0,922.0,1.0,0,307.0,1
355,355,-0.038957448180694576,-0.0,1.0,0.0,473.0,665.0,1.0,1,842.0,0
356,356,0.004515786881978401,0.0,0.0,0.0,486.0,941.0,1.0,0,603.0,0
357,357,-0.5247289168497131,-0.5,0.0,1.0,338.0,598.0,1.0,0,544.0,1
358,358,0.10829537280867407,0.1,1.0,1.0,457.0,954.0,1.0,1,1339.0,1
359,359,0.6728042917815623,0.7,1.0,1.0,323.0,652.0,1.0,1,235.0,1
360,360,-0.8639700306795292,-0.9,1.0,0.0,351.0,604.0,0.0,0,245.0,1
361,361,0.4472367785813426,0.4,1.0,1.0,374.0,527.0,1.0,1,499.0,1
362,362,-0.46447892248846057,-0.5,1.0,0.0,344.0,974.0,0.0,0,242.0,1
363,363,-0.3523095567719884,-0.4,1.0,0.0,301.0,610.0,0.0,0,339.0,1
364,364,0.3003545116922427,0.3,1.0,1.0,412.0,523.0,1.0,1,595.0,1
365,365,-0.7611401094296373,-0.8,1.0,0.0,496.0,697.0,0.0,0,187.0,1
366,366,0.19878978346476373,0.2,0.0,0.0,482.0,548.0,0.0,1,550.0,1
367,367,0.045163644158662475,0.0,1.0,1.0,472.0,854.0,1.0,1,644.0,1
368,368,0.6134068057839362,0.6,1.0,1.0,495.0,930.0,1.0,1,195.0,1
369,369,-0.5591542001641523,-0.6,1.0,0.0,442.0,668.0,0.0,0,460.0,1
370,370,0.7144481902779801,0.7,0.0,0.0,347.0,769.0,0.0,1,134.0,1
371,371,-0.4416708352376317,-0.4,0.0,1.0,374.0,984.0,1.0,0,132.0,1
372,372,-0.16183361481109826,-0.2,0.0,1.0,321.0,512.0,1.0,0,577.0,1
373,373,-0.41501165816307467,-0.4,0.0,1.0,398.0,803.0,1.0,0,599.0,1
374,374,-0.07360333229101512,-0.1,1.0,0.0,338.0,538.0,1.0,1,504.0,0
375,375,0.48442054159157977,0.5,0.0,0.0,325.0,915.0,0.0,1,380.0,1
376,376,0.8555340206929304,0.9,0.0,0.0,490.0,609.0,0.0,1,301.0,1
377,377,0.3970761669918922,0.4,0.0,0.0,368.0,880.0,0.0,1,202.0,1
378,378,-0.8656554177255185,-0.9,0.0,1.0,367.0,920.0,1.0,0,33.0,1
379,379,0.6797477294533149,0.7,0.0,0.0,448.0,878.0,0.0,1,244.0,1
380,380,0.0193645065940099,0.0,1.0,1.0,377.0,971.0,1.0,1,222.0,1
381,381,0.4558353222329111,0.5,1.0,1.0,387.0,508.0,1.0,1,705.0,1
382,382,-0.10393380401136332,-0.1,0.0,1.0,389.0,733.0,1.0,0,428.0,1
383,383,0.4224129687412407,0.4,0.0,0.0,333.0,938.0,0.0,1,289.0,1
384,384,-0.7191100208158698,-0.7,1.0,0.0,402.0,881.0,0.0,0,157.0,1
385,385,0.64692951549197,0.6,1.0,1.0,445.0,927.0,1.0,1,58.0,1
386,386,0.04835221910772203,0.0,0.0,0.0,335.0,665.0,0.0,1,2510.0,1
387,387,0.35298304245122536,0.4,1.0,1.0,470.0,777.0,1.0,1,413.0,1
388,388,-0.12752660625852452,-0.1,0.0,1.0,348.0,614.0,1.0,0,608.0,1
389,389,0.22762607486489161,0.2,1.0,1.0,499.0,520.0,1.0,1,381.0,1
390,390,0.5717778152602057,0.6,0.0,0.0,466.0,567.0,0.0,1,517.0,1
391,391,0.3158514470925854,0.3,1.0,1.0,307.0,710.0,1.0,1,203.0,1
392,392,0.44675099994120215,0.4,0.0,0.0,308.0,851.0,0.0,1,221.0,1
393,393,0.3824844767485821,0.4,0.0,0.0,490.0,806.0,0.0,1,284.0,1
394,394,0.7484585565379552,0.7,0.0,0.0,480.0,548.0,0.0,1,262.0,1
395,395,-0.4155665384246407,-0.4,0.0,1.0,333.0,784.0,1.0,0,103.0,1
396,396,-0.5227183703135441,-0.5,0.0,1.0,479.0,992.0,1.0,0,69.0,1
397,397,-0.43330371113733274,-0.4,0.0,1.0,469.0,754.0,1.0,0,497.0,1
398,398,-0.47867897448087704,-0.5,1.0,0.0,391.0,546.0,0.0,0,233.0,1
399,399,0.6831259087130123,0.7,1.0,1.0,346.0,818.0,1.0,1,156.0,1
400,400,0.34215207837570294,0.3,1.0,1.0,362.0,698.0,1.0,1,260.0,1
401,401,-0.8252248212944219,-0.8,1.0,0.0,451.0,960.0,0.0,0,179.0,1
402,402,-0.35626971527805706,-0.4,1.0,0.0,342.0,997.0,0.0,0,421.0,1
403,403,-0.5018877959157065,-0.5,0.0,1.0,428.0,870.0,1.0,0,142.0,1
404,404,0.8083980099029996,0.8,0.0,0.0,439.0,734.0,0.0,1,497.0,1
405,405,0.34921708081894065,0.3,0.0,0.0,363.0,924.0,0.0,1,703.0,1
406,406,0.8847711526862106,0.9,1.0,1.0,427.0,658.0,1.0,1,245.0,1
407,407,-0.7378013991216741,-0.7,0.0,1.0,254.0,768.0,1.0,0,168.0,1
408,408,0.6667812742632028,0.7,1.0,1.0,473.0,507.0,1.0,1,440.0,1
409,409,0.4343986498416671,0.4,0.0,0.0,329.0,609.0,0.0,1,262.0,1
410,410,-0.542932362242357,-0.5,1.0,0.0,495.0,962.0,0.0,0,173.0,1
411,411,-0.5203383104252071,-0.5,1.0,0.0,297.0,868.0,0.0,0,415.0,1
412,412,-0.1667489198184866,-0.2,0.0,1.0,373.0,647.0,1.0,0,560.0,1
413,413,-0.4781757609210373,-0.5,0.0,1.0,259.0,866.0,1.0,0,135.0,1
414,414,0.46341586627808573,0.5,1.0,1.0,315.0,579.0,1.0,1,696.0,1
415,415,-0.8503824284701952,-0.9,0.0,1.0,352.0,778.0,1.0,0,210.0,1
416,416,-0.13203517922964103,-0.1,0.0,1.0,419.0,858.0,1.0,0,363.0,1
417,417,-0.21777199486992704,-0.2,1.0,0.0,370.0,942.0,0.0,0,448.0,1
418,418,0.8300066922274522,0.8,0.0,0.0,422.0,541.0,0.0,1,327.0,1
419,419,-0.843142434065232,-0.8,0.0,1.0,484.0,844.0,1.0,0,112.0,1
420,420,-0.7360837077007475,-0.7,0.0,1.0,357.0,846.0,1.0,0,177.0,1
421,421,-0.4928751585753134,-0.5,1.0,0.0,449.0,679.0,0.0,0,292.0,1
422,422,0.5202589608120295,0.5,0.0,0.0,363.0,809.0,0.0,1,298.0,1
423,423,0.27323277277285574,0.3,1.0,1.0,331.0,833.0,1.0,1,666.0,1
424,424,0.6921151702977185,0.7,1.0,1.0,421.0,567.0,1.0,1,312.0,1
425,425,-0.5957839664201455,-0.6,1.0,0.0,443.0,546.0,0.0,0,321.0,1
426,426,0.46580299075668175,0.5,0.0,0.0,498.0,909.0,0.0,1,223.0,1
427,427,-0.5368394717642939,-0.5,1.0,0.0,436.0,565.0,0.0,0,429.0,1
428,428,-0.2531577961718654,-0.3,0.0,1.0,353.0,985.0,1.0,0,342.0,1
429,429,-0.5506859123294694,-0.6,0.0,1.0,320.0,533.0,1.0,0,507.0,1
430,430,0.7825721081341982,0.8,0.0,0.0,257.0,710.0,0.0,1,123.0,1
431,431,0.658469964840852,0.7,0.0,0.0,311.0,996.0,0.0,1,213.0,1
432,432,-0.7907800404732195,-0.8,1.0,0.0,492.0,821.0,0.0,0,177.0,1
433,433,0.1520549708977691,0.2,0.0,0.0,300.0,591.0,0.0,1,289.0,1
434,434,0.43374795242776554,0.4,0.0,0.0,410.0,785.0,0.0,1,265.0,1
435,435,-0.6316243165205474,-0.6,1.0,0.0,389.0,617.0,0.0,0,304.0,1
436,436,0.4511061622087166,0.5,0.0,0.0,325.0,664.0,0.0,1,511.0,1
437,437,0.7933532770654704,0.8,0.0,0.0,427.0,922.0,0.0,1,151.0,1
438,438,-0.4836141031523946,-0.5,1.0,0.0,396.0,692.0,0.0,0,382.0,1
439,439,-0.8402586741161266,-0.8,1.0,0.0,492.0,726.0,0.0,0,342.0,1
440,440,-0.7920451538666731,-0.8,0.0,1.0,350.0,984.0,1.0,0,156.0,1
441,441,0.7606564875328398,0.8,1.0,1.0,279.0,628.0,1.0,1,263.0,1
442,442,0.3441541018971902,0.3,0.0,0.0,495.0,858.0,0.0,1,227.0,1
443,443,0.3252126343820406,0.3,1.0,1.0,266.0,961.0,1.0,1,183.0,1
444,444,0.35990254019891743,0.4,1.0,1.0,484.0,979.0,1.0,1,337.0,1
445,445,0.00517043007743434,0.0,1.0,1.0,443.0,640.0,1.0,1,2297.0,1
446,446,0.03755297864450302,0.0,1.0,1.0,408.0,584.0,1.0,1,2028.0,1
447,447,0.16313436978563123,0.2,0.0,0.0,329.0,599.0,0.0,1,1602.0,1
448,448,-0.5355575917929944,-0.5,0.0,1.0,299.0,890.0,1.0,0,311.0,1
449,449,0.38395948672084723,0.4,0.0,0.0,404.0,602.0,0.0,1,384.0,1
450,450,-0.27922571656091977,-0.3,1.0,0.0,352.0,617.0,0.0,0,621.0,1
451,451,0.5255613347353717,0.5,1.0,1.0,449.0,653.0,1.0,1,218.0,1
452,452,-0.6843594747935748,-0.7,1.0,0.0,317.0,734.0,0.0,0,319.0,1
453,453,0.11282738887456134,0.1,0.0,0.0,284.0,530.0,0.0,1,676.0,1
454,454,0.7621081703841216,0.8,1.0,1.0,333.0,860.0,1.0,1,217.0,1
455,455,0.08193614631631585,0.1,1.0,1.0,355.0,907.0,1.0,1,368.0,1
456,456,-0.6317253810424057,-0.6,1.0,0.0,296.0,755.0,0.0,0,279.0,1
457,457,-0.3498740219896562,-0.3,0.0,1.0,437.0,798.0,1.0,0,235.0,1
458,458,0.19367941249986342,0.2,0.0,0.0,363.0,911.0,0.0,1,366.0,1
459,459,0.12107763306078467,0.1,0.0,0.0,268.0,746.0,1.0,0,826.0,0
460,460,-0.7377873680810212,-0.7,1.0,0.0,302.0,608.0,0.0,0,340.0,1
461,461,0.6666061610980515,0.7,0.0,0.0,395.0,769.0,0.0,1,116.0,1
462,462,-0.7157337748576699,-0.7,1.0,0.0,426.0,504.0,0.0,0,520.0,1
463,463,-0.07478119175294662,-0.1,1.0,0.0,339.0,785.0,0.0,0,2306.0,1
464,464,-0.527060973089076,-0.5,1.0,0.0,292.0,806.0,0.0,0,322.0,1
465,465,-0.46019100541014035,-0.5,1.0,0.0,309.0,954.0,0.0,0,17.0,1
466,466,-0.5189852100829724,-0.5,1.0,0.0,405.0,696.0,0.0,0,319.0,1
467,467,0.17196253041082443,0.2,0.0,0.0,375.0,671.0,0.0,1,454.0,1
468,468,0.6596601757289177,0.7,0.0,0.0,412.0,627.0,0.0,1,411.0,1
469,469,-0.3762360967525048,-0.4,0.0,1.0,468.0,557.0,1.0,0,405.0,1
470,470,-0.16176991936356255,-0.2,1.0,0.0,324.0,713.0,0.0,0,513.0,1
471,471,-0.5625998183540306,-0.6,0.0,1.0,366.0,877.0,1.0,0,257.0,1
472,472,-0.6322627987953766,-0.6,1.0,0.0,303.0,662.0,0.0,0,425.0,1
473,473,-0.1761815690633054,-0.2,1.0,0.0,464.0,774.0,0.0,0,1462.0,1
474,474,-0.7142938364984256,-0.7,1.0,0.0,461.0,948.0,0.0,0,361.0,1
475,475,0.36463898938688544,0.4,0.0,0.0,406.0,858.0,0.0,1,266.0,1
476,476,-0.011756603323205272,-0.0,1.0,0.0,284.0,814.0,1.0,1,832.0,0
477,477,0.6452384842993745,0.6,1.0,1.0,453.0,990.0,1.0,1,127.0,1
478,478,-0.3600090938009446,-0.4,0.0,1.0,432.0,610.0,1.0,0,368.0,1
479,479,-0.3502166772817744,-0.4,0.0,1.0,371.0,908.0,1.0,0,281.0,1
480,480,0.3754040129027155,0.4,1.0,1.0,453.0,806.0,1.0,1,411.0,1
481,481,0.6576188149048393,0.7,0.0,0.0,372.0,701.0,0.0,1,267.0,1
482,482,0.3542525917709026,0.4,1.0,1.0,367.0,946.0,1.0,1,67.0,1
483,483,-0.38767997697760403,-0.4,0.0,1.0,498.0,679.0,1.0,0,433.0,1
484,484,-0.4332967065146099,-0.4,1.0,0.0,474.0,693.0,0.0,0,353.0,1
485,485,-0.5078334318744511,-0.5,1.0,0.0,431.0,555.0,0.0,0,374.0,1
486,486,-0.1852711646444576,-0.2,0.0,1.0,457.0,615.0,1.0,0,408.0,1
487,487,0.07779202873335489,0.1,0.0,0.0,254.0,609.0,0.0,1,667.0,1
488,488,-0.8804611370020912,-0.9,1.0,0.0,274.0,898.0,0.0,0,108.0,1
489,489,0.0383062020348528,0.0,1.0,1.0,446.0,631.0,1.0,1,1103.0,1
490,490,0.04291848379073304,0.0,0.0,0.0,393.0,607.0,0.0,1,2650.0,1
491,491,0.7505401689082806,0.8,1.0,1.0,330.0,928.0,1.0,1,132.0,1
492,492,0.004955251596955201,0.0,1.0,1.0,342.0,761.0,0.0,0,277.0,0
493,493,-0.3560208093999587,-0.4,0.0,1.0,365.0,558.0,1.0,0,587.0,1
494,494,-0.10030527949096146,-0.1,0.0,1.0,399.0,975.0,1.0,0,256.0,1
495,495,0.34063479022092424,0.3,0.0,0.0,351.0,709.0,0.0,1,460.0,1
496,496,-0.5360921671609542,-0.5,0.0,1.0,497.0,770.0,1.0,0,143.0,1
497,497,0.17311657796658098,0.2,0.0,0.0,300.0,995.0,0.0,1,105.0,1
498,498,0.14651878669788398,0.1,0.0,0.0,498.0,993.0,1.0,0,199.0,0
499,499,0.6567864075842845,0.7,0.0,0.0,448.0,884.0,0.0,1,288.0,1
500,500,-0.44275758859335296,-0.4,0.0,1.0,266.0,560.0,1.0,0,504.0,1
501,501,-0.6381137985113884,-0.6,0.0,1.0,324.0,940.0,1.0,0,96.0,1
502,502,-0.15525642247711902,-0.2,1.0,0.0,252.0,708.0,0.0,0,550.0,1
503,503,-0.21436458479750353,-0.2,0.0,1.0,327.0,668.0,1.0,0,175.0,1
504,504,-0.44337165665444217,-0.4,1.0,0.0,463.0,820.0,0.0,0,387.0,1
505,505,0.6077945655616243,0.6,0.0,0.0,436.0,718.0,0.0,1,536.0,1
506,506,-0.09725490378273627,-0.1,1.0,0.0,262.0,951.0,0.0,0,577.0,1
507,507,-0.1847416124980913,-0.2,0.0,1.0,355.0,778.0,1.0,0,847.0,1
508,508,-0.3304991021482684,-0.3,1.0,0.0,309.0,804.0,0.0,0,227.0,1
509,509,0.3881686422745888,0.4,1.0,1.0,280.0,517.0,1.0,1,363.0,1
510,510,0.38825826414622566,0.4,1.0,1.0,284.0,851.0,1.0,1,105.0,1
511,511,-0.7180915108413222,-0.7,0.0,1.0,320.0,728.0,1.0,0,172.0,1
512,512,-0.7518055183114761,-0.8,0.0,1.0,407.0,862.0,1.0,0,201.0,1
513,513,-0.7437424048169711,-0.7,0.0,1.0,354.0,896.0,1.0,0,120.0,1
514,514,0.5616630484348001,0.6,0.0,0.0,275.0,613.0,0.0,1,312.0,1
515,515,0.41115818271804894,0.4,0.0,0.0,307.0,503.0,0.0,1,570.0,1
516,516,0.2891298321105681,0.3,0.0,0.0,484.0,575.0,0.0,1,671.0,1
517,517,-0.1952781514850792,-0.2,1.0,0.0,426.0,820.0,0.0,0,344.0,1
518,518,-0.3292054637793179,-0.3,1.0,0.0,468.0,958.0,0.0,0,414.0,1
519,519,-0.43900076357872375,-0.4,1.0,0.0,363.0,903.0,0.0,0,234.0,1
520,520,0.8628802841144135,0.9,0.0,0.0,379.0,527.0,0.0,1,174.0,1
521,521,0.03599795059001909,0.0,1.0,1.0,296.0,615.0,1.0,1,859.0,1
522,522,-0.4789108726847586,-0.5,1.0,0.0,487.0,624.0,0.0,0,799.0,1
523,523,-0.21621336389986467,-0.2,0.0,1.0,370.0,508.0,1.0,0,392.0,1
524,524,-0.2633216080932038,-0.3,1.0,0.0,266.0,874.0,0.0,0,440.0,1
525,525,-0.775465502964542,-0.8,0.0,1.0,499.0,857.0,1.0,0,404.0,1
526,526,-0.6458350777132278,-0.6,0.0,1.0,281.0,815.0,1.0,0,224.0,1
527,527,-0.5980588474514168,-0.6,0.0,1.0,363.0,630.0,1.0,0,567.0,1
528,528,0.7229449384251453,0.7,0.0,0.0,438.0,765.0,0.0,1,337.0,1
529,529,-0.2905619667248426,-0.3,1.0,0.0,397.0,976.0,0.0,0,597.0,1
530,530,-0.12341865154925935,-0.1,0.0,1.0,408.0,907.0,1.0,0,225.0,1
531,531,-0.8182005777018176,-0.8,0.0,1.0,437.0,880.0,1.0,0,363.0,1
532,532,0.09685866448827685,0.1,0.0,0.0,448.0,599.0,0.0,1,2703.0,1
533,533,-0.007782623297535207,-0.0,0.0,1.0,283.0,973.0,0.0,1,444.0,0
534,534,0.7265292670971618,0.7,1.0,1.0,367.0,923.0,1.0,1,180.0,1
535,535,0.6483344321710734,0.6,0.0,0.0,496.0,615.0,0.0,1,339.0,1
536,536,0.20398221380313541,0.2,0.0,0.0,477.0,649.0,0.0,1,1104.0,1
537,537,0.02281013284205713,0.0,1.0,1.0,284.0,827.0,1.0,1,629.0,1
538,538,0.865968150862939,0.9,1.0,1.0,279.0,929.0,1.0,1,122.0,1
539,539,-0.4829495181302723,-0.5,0.0,1.0,481.0,638.0,1.0,0,1481.0,1
540,540,-0.8053860781820661,-0.8,0.0,1.0,331.0,669.0,1.0,0,310.0,1
541,541,-0.6997291146055412,-0.7,1.0,0.0,493.0,825.0,0.0,0,232.0,1
542,542,-0.24266736522882837,-0.2,1.0,0.0,282.0,968.0,0.0,0,480.0,1
543,543,0.03998693916792018,0.0,0.0,0.0,418.0,579.0,1.0,0,903.0,0
544,544,-0.3421688731474064,-0.3,1.0,0.0,318.0,819.0,0.0,0,263.0,1
545,545,0.8422961395976508,0.8,0.0,0.0,330.0,594.0,0.0,1,276.0,1
546,546,0.7493304650022475,0.7,1.0,1.0,370.0,993.0,1.0,1,117.0,1
547,547,0.22147646325365844,0.2,0.0,0.0,321.0,647.0,0.0,1,552.0,1
548,548,-0.47853147598458684,-0.5,0.0,1.0,359.0,582.0,1.0,0,289.0,1
549,549,-0.7056269961427717,-0.7,1.0,0.0,456.0,502.0,0.0,0,322.0,1
550,550,-0.8368889682987134,-0.8,0.0,1.0,410.0,731.0,1.0,0,89.0,1
551,551,0.4150687717670053,0.4,0.0,0.0,465.0,983.0,0.0,1,202.0,1
552,552,-0.5525314131717092,-0.6,1.0,0.0,401.0,762.0,0.0,0,177.0,1
553,553,-0.8725856375312089,-0.9,0.0,1.0,389.0,732.0,1.0,0,179.0,1
554,554,0.8440789496926392,0.8,1.0,1.0,478.0,687.0,1.0,1,195.0,1
555,555,-0.4570227857996976,-0.5,0.0,1.0,465.0,772.0,1.0,0,253.0,1
556,556,-0.6312677707325393,-0.6,1.0,0.0,363.0,544.0,0.0,0,583.0,1
557,557,-0.17988123803512357,-0.2,1.0,0.0,454.0,958.0,0.0,0,1608.0,1
558,558,-0.18569814421390296,-0.2,0.0,1.0,339.0,501.0,1.0,0,720.0,1
559,559,0.4934961222303428,0.5,0.0,0.0,418.0,836.0,0.0,1,216.0,1
560,560,0.7282478753165303,0.7,0.0,0.0,476.0,612.0,0.0,1,162.0,1
561,561,-0.1353363862496778,-0.1,0.0,1.0,453.0,587.0,1.0,0,510.0,1
562,562,-0.2873211739386107,-0.3,1.0,0.0,473.0,878.0,0.0,0,239.0,1
563,563,0.004808632469285312,0.0,1.0,1.0,462.0,606.0,1.0,1,712.0,1
564,564,-0.2697028286942995,-0.3,0.0,1.0,454.0,953.0,1.0,0,193.0,1
565,565,0.1632440466623296,0.2,1.0,1.0,442.0,709.0,1.0,1,719.0,1
566,566,0.6987723971606766,0.7,0.0,0.0,288.0,646.0,0.0,1,266.0,1
567,567,-0.4452889692967388,-0.4,0.0,1.0,496.0,728.0,1.0,0,356.0,1
568,568,0.737087095276956,0.7,0.0,0.0,462.0,895.0,0.0,1,133.0,1
569,569,0.07568264595388996,0.1,1.0,1.0,482.0,654.0,1.0,1,444.0,1
570,570,-0.7059552145783732,-0.7,0.0,1.0,322.0,880.0,1.0,0,168.0,1
571,571,-0.8422867687557399,-0.8,0.0,1.0,319.0,618.0,1.0,0,193.0,1
572,572,0.6572309992524986,0.7,0.0,0.0,298.0,847.0,0.0,1,355.0,1
573,573,0.3695926084091735,0.4,0.0,0.0,498.0,620.0,0.0,1,362.0,1
574,574,-0.5153544515022073,-0.5,1.0,0.0,318.0,746.0,0.0,0,426.0,1
575,575,0.6436997913316757,0.6,1.0,1.0,283.0,857.0,1.0,1,110.0,1
576,576,0.37737631387826653,0.4,0.0,0.0,485.0,720.0,0.0,1,505.0,1
577,577,-0.32540494558189703,-0.3,0.0,1.0,306.0,546.0,1.0,0,418.0,1
578,578,-0.8124536013033488,-0.8,0.0,1.0,483.0,643.0,1.0,0,264.0,1
579,579,0.5920378664346008,0.6,0.0,0.0,396.0,876.0,0.0,1,178.0,1
580,580,0.8663153557016118,0.9,1.0,1.0,326.0,618.0,1.0,1,336.0,1
581,581,0.7462948324577153,0.7,0.0,0.0,370.0,891.0,0.0,1,139.0,1
582,582,-0.05529512942648851,-0.1,0.0,1.0,440.0,751.0,1.0,0,599.0,1
583,583,0.47828878405480324,0.5,0.0,0.0,428.0,738.0,0.0,1,314.0,1
584,584,0.2187016723773091,0.2,1.0,1.0,325.0,593.0,1.0,1,512.0,1
585,585,0.1206243425134449,0.1,0.0,0.0,273.0,807.0,1.0,0,520.0,0
586,586,0.8244374205659607,0.8,0.0,0.0,347.0,612.0,0.0,1,211.0,1
587,587,-0.7776656341213108,-0.8,1.0,0.0,370.0,944.0,0.0,0,146.0,1
588,588,-0.0729341357521377,-0.1,1.0,0.0,321.0,964.0,1.0,1,1685.0,0
589,589,-0.13915608658558087,-0.1,1.0,0.0,418.0,739.0,1.0,1,173.0,0
590,590,0.5627085648509801,0.6,0.0,0.0,292.0,985.0,0.0,1,193.0,1
591,591,0.5994061307835435,0.6,0.0,0.0,381.0,817.0,0.0,1,412.0,1
592,592,0.07356021749728903,0.1,1.0,1.0,330.0,668.0,1.0,1,702.0,1
593,593,-0.3648021929623223,-0.4,1.0,0.0,265.0,912.0,0.0,0,363.0,1
594,594,-0.4907091270754173,-0.5,0.0,1.0,402.0,892.0,1.0,0,826.0,1
595,595,-0.0032882107148105577,-0.0,0.0,1.0,343.0,571.0,1.0,0,1536.0,1
596,596,0.1325630488674664,0.1,0.0,0.0,349.0,562.0,0.0,1,549.0,1
597,597,-0.29674057582423685,-0.3,1.0,0.0,254.0,621.0,0.0,0,535.0,1
598,598,-0.11645629918957423,-0.1,1.0,0.0,271.0,627.0,0.0,0,1492.0,1
599,599,-0.051058654212896015,-0.1,1.0,0.0,382.0,767.0,1.0,1,371.0,0
600,600,0.36547513890649597,0.4,1.0,1.0,456.0,672.0,1.0,1,412.0,1
601,601,-0.3447027181800876,-0.3,0.0,1.0,413.0,588.0,1.0,0,409.0,1
602,602,0.3127144848528366,0.3,1.0,1.0,283.0,676.0,1.0,1,391.0,1
603,603,-0.5279197747170299,-0.5,1.0,0.0,265.0,850.0,0.0,0,405.0,1
604,604,-0.18288035650953494,-0.2,1.0,0.0,449.0,543.0,0.0,0,718.0,1
605,605,0.05910673558991486,0.1,0.0,0.0,392.0,798.0,0.0,1,650.0,1
606,606,0.3787460109325126,0.4,1.0,1.0,482.0,898.0,1.0,1,160.0,1
607,607,-0.4709423133825382,-0.5,1.0,0.0,301.0,523.0,0.0,0,736.0,1
608,608,-0.3254058237604406,-0.3,0.0,1.0,415.0,842.0,1.0,0,273.0,1
609,609,0.4993659869181136,0.5,1.0,1.0,367.0,681.0,1.0,1,272.0,1
610,610,0.22818563694021277,0.2,0.0,0.0,305.0,741.0,0.0,1,574.0,1
611,611,0.7753691686434215,0.8,0.0,0.0,318.0,947.0,0.0,1,75.0,1
612,612,0.8170582279623587,0.8,1.0,1.0,405.0,677.0,1.0,1,188.0,1
613,613,0.5848634156174496,0.6,1.0,1.0,315.0,931.0,1.0,1,194.0,1
614,614,0.31813748187086743,0.3,0.0,0.0,262.0,819.0,0.0,1,269.0,1
615,615,-0.4881249283963232,-0.5,0.0,1.0,288.0,951.0,1.0,0,141.0,1
616,616,0.8147442744898655,0.8,1.0,1.0,488.0,824.0,1.0,1,168.0,1
617,617,-0.5084080632444588,-0.5,1.0,0.0,486.0,634.0,0.0,0,410.0,1
618,618,-0.12543941933015723,-0.1,0.0,1.0,477.0,668.0,1.0,0,905.0,1
619,619,-0.804031508095589,-0.8,0.0,1.0,263.0,695.0,1.0,0,192.0,1
620,620,0.4802124353438605,0.5,0.0,0.0,363.0,807.0,0.0,1,320.0,1
621,621,-0.14465608616834724,-0.1,1.0,0.0,476.0,769.0,0.0,0,1475.0,1
622,622,-0.7355751426476644,-0.7,1.0,0.0,392.0,874.0,0.0,0,164.0,1
623,623,0.8933757374722623,0.9,0.0,0.0,359.0,556.0,0.0,1,465.0,1
624,624,-0.39412519346531505,-0.4,0.0,1.0,408.0,966.0,1.0,0,246.0,1
625,625,0.4191501386366333,0.4,0.0,0.0,302.0,671.0,0.0,1,237.0,1
626,626,0.7480703266648018,0.7,0.0,0.0,337.0,677.0,0.0,1,186.0,1
627,627,0.010594460971067199,0.0,1.0,1.0,486.0,779.0,1.0,1,725.0,1
628,628,-0.8450226696133933,-0.8,0.0,1.0,464.0,624.0,1.0,0,302.0,1
629,629,0.20743311903146078,0.2,0.0,0.0,362.0,526.0,0.0,1,982.0,1
630,630,0.0159613848527399,0.0,1.0,1.0,306.0,752.0,1.0,1,142.0,1
631,631,-0.7860681858336553,-0.8,0.0,1.0,457.0,585.0,1.0,0,428.0,1
632,632,0.6899457143108662,0.7,1.0,1.0,299.0,706.0,1.0,1,235.0,1
633,633,0.7689604049815938,0.8,0.0,0.0,369.0,718.0,0.0,1,133.0,1
634,634,-0.3824847196990301,-0.4,1.0,0.0,433.0,804.0,0.0,0,273.0,1
635,635,-0.35049805504975173,-0.4,0.0,1.0,472.0,751.0,1.0,0,307.0,1
636,636,0.15843721804582767,0.2,1.0,1.0,479.0,639.0,1.0,1,372.0,1
637,637,-0.682431306697391,-0.7,0.0,1.0,493.0,576.0,1.0,0,611.0,1
638,638,0.4907657334311649,0.5,1.0,1.0,485.0,638.0,1.0,1,537.0,1
639,639,0.23395382391402497,0.2,1.0,1.0,313.0,722.0,1.0,1,335.0,1
640,640,-0.4356837424393931,-0.4,0.0,1.0,289.0,604.0,1.0,0,367.0,1
641,641,0.770666409209951,0.8,0.0,0.0,395.0,555.0,0.0,1,710.0,1
642,642,-0.17536570640642868,-0.2,1.0,0.0,375.0,803.0,0.0,0,1752.0,1
643,643,0.7581136336228712,0.8,0.0,0.0,329.0,639.0,0.0,1,722.0,1
644,644,0.2863192143300163,0.3,0.0,0.0,393.0,663.0,0.0,1,644.0,1
645,645,-0.010425014644734776,-0.0,1.0,0.0,353.0,512.0,1.0,1,985.0,0
646,646,-0.3562901901332516,-0.4,0.0,1.0,328.0,974.0,1.0,0,148.0,1
647,647,-0.6209874841196075,-0.6,0.0,1.0,344.0,955.0,1.0,0,171.0,1
648,648,0.0429050372159796,0.0,0.0,0.0,339.0,666.0,1.0,0,425.0,0
649,649,-0.7136958908238148,-0.7,0.0,1.0,395.0,596.0,1.0,0,399.0,1
650,650,-0.19868839148008122,-0.2,0.0,1.0,254.0,613.0,1.0,0,393.0,1
651,651,-0.6901481978287249,-0.7,1.0,0.0,372.0,544.0,0.0,0,394.0,1
652,652,-0.7701275433732853,-0.8,1.0,0.0,286.0,773.0,0.0,0,191.0,1
653,653,-0.5343187343400451,-0.5,1.0,0.0,430.0,796.0,0.0,0,114.0,1
654,654,0.3459338993484239,0.3,0.0,0.0,325.0,553.0,0.0,1,622.0,1
655,655,-0.5314853445344034,-0.5,0.0,1.0,344.0,671.0,1.0,0,235.0,1
656,656,0.8727876635558846,0.9,1.0,1.0,440.0,794.0,1.0,1,196.0,1
657,657,-0.3366383928272777,-0.3,1.0,0.0,422.0,887.0,0.0,0,291.0,1
658,658,0.28311828620748936,0.3,1.0,1.0,488.0,954.0,1.0,1,358.0,1
659,659,-0.7408465561052195,-0.7,1.0,0.0,463.0,951.0,0.0,0,56.0,1
660,660,0.06306217939369152,0.1,0.0,0.0,305.0,818.0,1.0,0,617.0,0
661,661,0.1394685714225693,0.1,0.0,0.0,344.0,831.0,1.0,0,215.0,0
662,662,0.6022944734639449,0.6,1.0,1.0,347.0,993.0,1.0,1,200.0,1
663,663,-0.8567553636505396,-0.9,0.0,1.0,424.0,752.0,1.0,0,144.0,1
664,664,-0.8571806615358486,-0.9,1.0,0.0,392.0,823.0,0.0,0,145.0,1
665,665,0.3534903256567711,0.4,1.0,1.0,305.0,671.0,1.0,1,404.0,1
666,666,-0.6879571441440661,-0.7,0.0,1.0,289.0,630.0,1.0,0,321.0,1
667,667,-0.3828711409453037,-0.4,1.0,0.0,364.0,710.0,0.0,0,406.0,1
668,668,-0.6939762306860443,-0.7,1.0,0.0,386.0,641.0,0.0,0,303.0,1
669,669,0.8871857583439385,0.9,0.0,0.0,308.0,741.0,0.0,1,171.0,1
670,670,-0.29920662876260207,-0.3,0.0,1.0,338.0,663.0,1.0,0,1239.0,1
671,671,0.6731039754791476,0.7,1.0,1.0,492.0,667.0,1.0,1,221.0,1
672,672,-0.6394800201044221,-0.6,1.0,0.0,294.0,577.0,0.0,0,299.0,1
673,673,0.2439227212724936,0.2,0.0,0.0,250.0,819.0,0.0,1,201.0,1
674,674,0.03254068810127486,0.0,1.0,1.0,442.0,594.0,1.0,1,624.0,1
675,675,-0.5041577163805568,-0.5,0.0,1.0,352.0,725.0,1.0,0,453.0,1
676,676,-0.11031496342883917,-0.1,1.0,0.0,299.0,798.0,1.0,1,863.0,0
677,677,0.38122306682254814,0.4,0.0,0.0,266.0,745.0,0.0,1,429.0,1
678,678,-0.20881135476676305,-0.2,1.0,0.0,390.0,973.0,0.0,0,507.0,1
679,679,0.5675951497635455,0.6,0.0,0.0,379.0,939.0,0.0,1,212.0,1
680,680,0.8361546465591737,0.8,1.0,1.0,258.0,607.0,1.0,1,325.0,1
681,681,-0.6778797932292686,-0.7,0.0,1.0,484.0,744.0,1.0,0,222.0,1
682,682,0.33975320538989606,0.3,1.0,1.0,430.0,573.0,1.0,1,507.0,1
683,683,-0.6241953907500151,-0.6,0.0,1.0,321.0,561.0,1.0,0,208.0,1
684,684,0.6435687386444781,0.6,0.0,0.0,307.0,748.0,0.0,1,215.0,1
685,685,-0.059828612537589865,-0.1,0.0,1.0,421.0,556.0,1.0,0,483.0,1
686,686,0.22486352872347892,0.2,0.0,0.0,307.0,552.0,0.0,1,1331.0,1
687,687,-0.1926027203336137,-0.2,0.0,1.0,485.0,841.0,1.0,0,414.0,1
688,688,0.5393970963954896,0.5,0.0,0.0,286.0,770.0,0.0,1,274.0,1
689,689,0.41800128438051043,0.4,1.0,1.0,329.0,621.0,1.0,1,400.0,1
690,690,0.5305131366443253,0.5,0.0,0.0,288.0,754.0,0.0,1,238.0,1
691,691,-0.4231575393660946,-0.4,0.0,1.0,255.0,513.0,1.0,0,482.0,1
692,692,-0.8307257521803756,-0.8,1.0,0.0,381.0,521.0,0.0,0,498.0,1
693,693,0.8969781539259868,0.9,1.0,1.0,454.0,923.0,1.0,1,433.0,1
694,694,-0.8992434555817713,-0.9,0.0,1.0,343.0,992.0,1.0,0,75.0,1
695,695,0.7742249200847685,0.8,1.0,1.0,367.0,713.0,1.0,1,180.0,1
696,696,-0.3094201488944902,-0.3,0.0,1.0,353.0,798.0,1.0,0,209.0,1
697,697,0.7624555096405022,0.8,0.0,0.0,256.0,939.0,0.0,1,115.0,1
698,698,0.42874291234207174,0.4,1.0,1.0,451.0,752.0,1.0,1,147.0,1
699,699,-0.006157841955612642,-0.0,0.0,1.0,338.0,940.0,1.0,0,1782.0,1
700,700,-0.8998038325558414,-0.9,0.0,1.0,424.0,963.0,1.0,0,243.0,1
701,701,-0.6404312699642003,-0.6,0.0,1.0,318.0,890.0,1.0,0,212.0,1
702,702,-0.45965341333918536,-0.5,1.0,0.0,337.0,615.0,0.0,0,678.0,1
703,703,0.6735978692762931,0.7,0.0,0.0,284.0,534.0,0.0,1,302.0,1
704,704,0.14080140287458975,0.1,0.0,0.0,479.0,634.0,0.0,1,967.0,1
705,705,-0.14950507165299098,-0.1,1.0,0.0,254.0,569.0,0.0,0,687.0,1
706,706,-0.4293285844883422,-0.4,0.0,1.0,387.0,952.0,1.0,0,171.0,1
707,707,-0.08913617432066334,-0.1,0.0,1.0,409.0,804.0,1.0,0,407.0,1
708,708,-0.08347042829154794,-0.1,0.0,1.0,400.0,760.0,1.0,0,1040.0,1
709,709,0.5594277155969313,0.6,0.0,0.0,303.0,913.0,0.0,1,324.0,1
710,710,-0.5550178482787758,-0.6,0.0,1.0,396.0,574.0,1.0,0,310.0,1
711,711,0.2745191302433111,0.3,0.0,0.0,410.0,592.0,0.0,1,318.0,1
712,712,0.26189017519299573,0.3,0.0,0.0,309.0,715.0,0.0,1,286.0,1
713,713,-0.010855403397064922,-0.0,0.0,1.0,351.0,837.0,1.0,0,1862.0,1
714,714,0.14843045569616808,0.1,0.0,0.0,251.0,643.0,0.0,1,686.0,1
715,715,0.013066936436802568,0.0,0.0,0.0,482.0,916.0,1.0,0,3212.0,0
716,716,-0.8420261986305105,-0.8,0.0,1.0,415.0,803.0,1.0,0,132.0,1
717,717,-0.08164649525753154,-0.1,0.0,1.0,259.0,947.0,1.0,0,394.0,1
718,718,-0.2802054011017008,-0.3,0.0,1.0,293.0,615.0,1.0,0,252.0,1
719,719,0.34955368766792516,0.3,0.0,0.0,468.0,910.0,0.0,1,272.0,1
720,720,0.003110830453638247,0.0,0.0,0.0,368.0,964.0,1.0,0,658.0,0
721,721,0.6531129838060586,0.7,0.0,0.0,407.0,597.0,0.0,1,406.0,1
722,722,-0.3672187161266106,-0.4,1.0,0.0,338.0,553.0,0.0,0,449.0,1
723,723,-0.5907527739006414,-0.6,1.0,0.0,277.0,661.0,0.0,0,382.0,1
724,724,0.5767560584080026,0.6,0.0,0.0,488.0,604.0,0.0,1,438.0,1
725,725,0.8986870743604901,0.9,1.0,1.0,463.0,886.0,1.0,1,51.0,1
726,726,-0.6956872508658541,-0.7,1.0,0.0,269.0,865.0,0.0,0,266.0,1
727,727,-0.6432542785313738,-0.6,1.0,0.0,256.0,661.0,0.0,0,263.0,1
728,728,0.5979326936972263,0.6,0.0,0.0,338.0,559.0,0.0,1,423.0,1
729,729,0.07377963825631717,0.1,0.0,0.0,317.0,631.0,0.0,1,1092.0,1
730,730,-0.25799616997122565,-0.3,0.0,1.0,491.0,540.0,1.0,0,779.0,1
731,731,-0.4270202454768486,-0.4,1.0,0.0,482.0,541.0,0.0,0,587.0,1
732,732,0.5073684283844732,0.5,0.0,0.0,336.0,564.0,0.0,1,330.0,1
733,733,0.483429138336832,0.5,1.0,1.0,475.0,569.0,1.0,1,266.0,1
734,734,-0.54791620711373,-0.5,0.0,1.0,474.0,504.0,1.0,0,372.0,1
735,735,-0.5698618476794624,-0.6,0.0,1.0,412.0,721.0,1.0,0,227.0,1
736,736,0.07177970067055295,0.1,0.0,0.0,277.0,992.0,0.0,1,1091.0,1
737,737,0.009790369041356217,0.0,1.0,1.0,463.0,767.0,1.0,1,690.0,1
738,738,-0.26057650738711535,-0.3,0.0,1.0,361.0,977.0,1.0,0,522.0,1
739,739,-0.4261782154079899,-0.4,0.0,1.0,385.0,909.0,1.0,0,156.0,1
740,740,-0.5952118569102809,-0.6,0.0,1.0,254.0,904.0,1.0,0,32.0,1
741,741,0.3276428542005304,0.3,1.0,1.0,277.0,789.0,1.0,1,274.0,1
742,742,0.2274818643685036,0.2,1.0,1.0,475.0,780.0,1.0,1,205.0,1
743,743,-0.5530171235951138,-0.6,0.0,1.0,402.0,668.0,1.0,0,260.0,1
744,744,0.3334597805314451,0.3,1.0,1.0,275.0,906.0,1.0,1,269.0,1
745,745,-0.5081834137240233,-0.5,0.0,1.0,371.0,514.0,1.0,0,315.0,1
746,746,0.25772789063325663,0.3,1.0,1.0,322.0,773.0,1.0,1,175.0,1
747,747,-0.21164675563662128,-0.2,1.0,0.0,408.0,781.0,0.0,0,411.0,1
748,748,0.01515181834579582,0.0,0.0,0.0,452.0,786.0,1.0,0,222.0,0
749,749,-0.3777019443521151,-0.4,1.0,0.0,413.0,887.0,0.0,0,420.0,1
750,750,0.818969329967654,0.8,1.0,1.0,347.0,773.0,1.0,1,110.0,1
751,751,-0.2995340051554859,-0.3,1.0,0.0,283.0,833.0,0.0,0,624.0,1
752,752,-0.27606267824943875,-0.3,1.0,0.0,290.0,532.0,0.0,0,1508.0,1
753,753,0.7083423359988407,0.7,0.0,0.0,405.0,844.0,0.0,1,31.0,1
754,754,-0.4167421827762191,-0.4,0.0,1.0,486.0,773.0,1.0,0,251.0,1
755,755,0.7202995964096593,0.7,1.0,1.0,389.0,986.0,0.0,0,-65.0,0
756,756,0.28244843119948293,0.3,0.0,0.0,491.0,776.0,0.0,1,523.0,1
757,757,-0.8349247969839169,-0.8,1.0,0.0,270.0,567.0,0.0,0,263.0,1
758,758,-0.4924597079250464,-0.5,0.0,1.0,352.0,871.0,1.0,0,77.0,1
759,759,0.7832758754998727,0.8,1.0,1.0,412.0,921.0,1.0,1,247.0,1
760,760,0.7018513510900021,0.7,1.0,1.0,395.0,624.0,1.0,1,281.0,1
761,761,-0.236164983312807,-0.2,0.0,1.0,499.0,614.0,1.0,0,247.0,1
762,762,-0.00267610184220346,-0.0,0.0,1.0,457.0,993.0,1.0,0,280.0,1
763,763,0.8572902750339947,0.9,1.0,1.0,340.0,907.0,1.0,1,73.0,1
764,764,0.3496453623517223,0.3,0.0,0.0,378.0,668.0,0.0,1,614.0,1
765,765,-0.4058184285630008,-0.4,0.0,1.0,364.0,702.0,1.0,0,354.0,1
766,766,-0.008171833873407697,-0.0,1.0,0.0,271.0,743.0,1.0,1,1066.0,0
767,767,0.7613048302922868,0.8,1.0,1.0,318.0,518.0,1.0,1,274.0,1
768,768,-0.5554184771838202,-0.6,1.0,0.0,454.0,724.0,0.0,0,302.0,1
769,769,-0.5844884114458971,-0.6,1.0,0.0,486.0,572.0,0.0,0,342.0,1
770,770,-0.5219481554628861,-0.5,0.0,1.0,373.0,793.0,1.0,0,244.0,1
771,771,0.8519927058120779,0.9,1.0,1.0,360.0,943.0,1.0,1,107.0,1
772,772,-0.18658196693764284,-0.2,0.0,1.0,420.0,925.0,1.0,0,235.0,1
773,773,-0.7020293304053467,-0.7,1.0,0.0,438.0,761.0,0.0,0,311.0,1
774,774,-0.35259526195037394,-0.4,1.0,0.0,300.0,902.0,0.0,0,328.0,1
775,775,0.8794173242035731,0.9,1.0,1.0,314.0,556.0,1.0,1,480.0,1
776,776,0.2918957118556468,0.3,0.0,0.0,399.0,618.0,0.0,1,833.0,1
777,777,-0.31396866481652397,-0.3,1.0,0.0,486.0,998.0,0.0,0,406.0,1
778,778,0.1350161958188526,0.1,1.0,1.0,449.0,984.0,1.0,1,267.0,1
779,779,0.44201068851136316,0.4,0.0,0.0,443.0,631.0,0.0,1,366.0,1
780,780,0.5687345993927083,0.6,1.0,1.0,494.0,620.0,1.0,1,356.0,1
781,781,0.3588277367746441,0.4,1.0,1.0,400.0,592.0,1.0,1,578.0,1
782,782,0.6025357277731002,0.6,1.0,1.0,353.0,935.0,1.0,1,132.0,1
783,783,0.5515881067247791,0.6,0.0,0.0,443.0,758.0,0.0,1,299.0,1
784,784,0.5565097369697264,0.6,1.0,1.0,416.0,571.0,1.0,1,303.0,1
785,785,0.742750925020956,0.7,1.0,1.0,293.0,608.0,1.0,1,389.0,1
786,786,-0.8464811055507093,-0.8,1.0,0.0,442.0,550.0,0.0,0,378.0,1
787,787,-0.7172893918439908,-0.7,1.0,0.0,331.0,867.0,0.0,0,112.0,1
788,788,-0.6723009752914023,-0.7,0.0,1.0,392.0,896.0,1.0,0,282.0,1
789,789,-0.8855715552739268,-0.9,0.0,1.0,298.0,507.0,1.0,0,325.0,1
790,790,-0.5849536459540117,-0.6,0.0,1.0,377.0,622.0,1.0,0,121.0,1
791,791,0.3802708295661016,0.4,0.0,0.0,472.0,807.0,0.0,1,181.0,1
792,792,0.3692737988419402,0.4,0.0,0.0,440.0,569.0,0.0,1,471.0,1
793,793,0.344819755254418,0.3,0.0,0.0,396.0,803.0,0.0,1,211.0,1
794,794,0.6389731227364243,0.6,1.0,1.0,409.0,507.0,1.0,1,334.0,1
795,795,0.21659066028030372,0.2,0.0,0.0,273.0,584.0,0.0,1,503.0,1
796,796,-0.016213025497443856,-0.0,0.0,1.0,434.0,976.0,1.0,0,2170.0,1
797,797,0.2526438518399706,0.3,0.0,0.0,356.0,843.0,0.0,1,871.0,1
798,798,0.476540198490519,0.5,1.0,1.0,361.0,964.0,1.0,1,105.0,1
799,799,-0.8851512632046518,-0.9,1.0,0.0,388.0,637.0,0.0,0,155.0,1
800,800,0.6584390965500543,0.7,0.0,0.0,251.0,758.0,0.0,1,201.0,1
801,801,-0.8926251008888414,-0.9,0.0,1.0,446.0,582.0,1.0,0,182.0,1
802,802,0.7383402865557035,0.7,0.0,0.0,313.0,723.0,0.0,1,144.0,1
803,803,-0.020684332116814308,-0.0,0.0,1.0,440.0,803.0,1.0,0,347.0,1
804,804,-0.14717945904406693,-0.1,0.0,1.0,356.0,993.0,1.0,0,811.0,1
805,805,-0.7813324394163746,-0.8,1.0,0.0,349.0,530.0,0.0,0,581.0,1
806,806,-0.4889831412274989,-0.5,1.0,0.0,318.0,771.0,0.0,0,231.0,1
807,807,0.2758965458211625,0.3,1.0,1.0,452.0,885.0,1.0,1,473.0,1
808,808,-0.8989758348677332,-0.9,1.0,0.0,452.0,526.0,0.0,0,292.0,1
809,809,-0.04146179268224126,-0.0,1.0,0.0,497.0,712.0,1.0,1,731.0,0
810,810,0.210444527741669,0.2,1.0,1.0,346.0,559.0,1.0,1,515.0,1
811,811,0.20478125465753794,0.2,1.0,1.0,367.0,536.0,1.0,1,517.0,1
812,812,-0.47198421836987614,-0.5,0.0,1.0,270.0,791.0,1.0,0,309.0,1
813,813,0.5603766514318905,0.6,0.0,0.0,375.0,714.0,0.0,1,171.0,1
814,814,0.7102028947253566,0.7,0.0,0.0,288.0,970.0,0.0,1,82.0,1
815,815,-0.47397864135884005,-0.5,0.0,1.0,484.0,732.0,1.0,0,214.0,1
816,816,0.12002710694292584,0.1,1.0,1.0,407.0,618.0,1.0,1,875.0,1
817,817,-0.7809891680540826,-0.8,1.0,0.0,272.0,525.0,0.0,0,363.0,1
818,818,-0.5933802278158219,-0.6,1.0,0.0,438.0,934.0,0.0,0,118.0,1
819,819,0.6373010848626642,0.6,0.0,0.0,380.0,987.0,0.0,1,213.0,1
820,820,-0.8157113318785189,-0.8,0.0,1.0,410.0,657.0,1.0,0,153.0,1
821,821,0.34791616118707835,0.3,0.0,0.0,496.0,822.0,0.0,1,252.0,1
822,822,0.08650212085980113,0.1,1.0,1.0,346.0,574.0,1.0,1,680.0,1
823,823,0.22961714721600657,0.2,0.0,0.0,445.0,655.0,0.0,1,490.0,1
824,824,-0.7177880509805499,-0.7,1.0,0.0,472.0,504.0,0.0,0,284.0,1
825,825,0.1662875502244089,0.2,1.0,1.0,294.0,511.0,1.0,1,725.0,1
826,826,0.2325436043898398,0.2,0.0,0.0,435.0,782.0,0.0,1,803.0,1
827,827,0.15191438614694952,0.2,1.0,1.0,446.0,770.0,1.0,1,314.0,1
828,828,-0.5778320526112355,-0.6,0.0,1.0,263.0,565.0,1.0,0,262.0,1
829,829,0.3396055207004135,0.3,0.0,0.0,416.0,917.0,0.0,1,347.0,1
830,830,-0.21781794607423943,-0.2,0.0,1.0,311.0,980.0,1.0,0,319.0,1
831,831,0.5628643962831795,0.6,0.0,0.0,325.0,595.0,0.0,1,630.0,1
832,832,-0.046273310428070036,-0.0,1.0,0.0,479.0,807.0,1.0,1,484.0,0
833,833,-0.0790501305013912,-0.1,0.0,1.0,338.0,645.0,1.0,0,447.0,1
834,834,0.8591788781905013,0.9,1.0,1.0,250.0,911.0,1.0,1,129.0,1
835,835,-0.5340721956160905,-0.5,0.0,1.0,423.0,971.0,1.0,0,186.0,1
836,836,0.8598628147615855,0.9,1.0,1.0,381.0,730.0,1.0,1,159.0,1
837,837,-0.16712742845299522,-0.2,1.0,0.0,342.0,848.0,0.0,0,440.0,1
838,838,-0.4039618634696853,-0.4,0.0,1.0,347.0,957.0,1.0,0,266.0,1
839,839,-0.881091014837074,-0.9,1.0,0.0,340.0,717.0,0.0,0,223.0,1
840,840,0.38432148989846115,0.4,0.0,0.0,462.0,672.0,0.0,1,386.0,1
841,841,0.02454027646084067,0.0,0.0,0.0,380.0,676.0,1.0,0,3374.0,0
842,842,-0.1295551936546645,-0.1,1.0,0.0,451.0,991.0,0.0,0,838.0,1
843,843,-0.7449101158917699,-0.7,0.0,1.0,302.0,813.0,1.0,0,155.0,1
844,844,0.33136964461878005,0.3,1.0,1.0,383.0,913.0,1.0,1,114.0,1
845,845,0.11655167676500933,0.1,0.0,0.0,459.0,589.0,0.0,1,722.0,1
846,846,-0.4302178391922462,-0.4,0.0,1.0,481.0,592.0,1.0,0,307.0,1
847,847,0.343579215020933,0.3,1.0,1.0,484.0,595.0,1.0,1,641.0,1
848,848,-0.3709159044783099,-0.4,1.0,0.0,251.0,790.0,0.0,0,279.0,1
849,849,0.40496220393015936,0.4,1.0,1.0,465.0,741.0,1.0,1,194.0,1
850,850,-0.057276909704115586,-0.1,1.0,0.0,382.0,788.0,1.0,1,1550.0,0
851,851,-0.8563715145080905,-0.9,0.0,1.0,401.0,617.0,1.0,0,472.0,1
852,852,0.4569528403279247,0.5,0.0,0.0,479.0,567.0,0.0,1,414.0,1
853,853,0.8701183874590742,0.9,0.0,0.0,337.0,744.0,0.0,1,159.0,1
854,854,0.7698369635647097,0.8,0.0,0.0,374.0,725.0,0.0,1,161.0,1
855,855,0.3583470823770384,0.4,1.0,1.0,308.0,973.0,1.0,1,179.0,1
856,856,0.18228616749069226,0.2,0.0,0.0,352.0,508.0,0.0,1,830.0,1
857,857,0.203990389911055,0.2,1.0,1.0,289.0,566.0,1.0,1,475.0,1
858,858,-0.19891833032127249,-0.2,1.0,0.0,361.0,892.0,0.0,0,547.0,1
859,859,0.6396803378801265,0.6,1.0,1.0,253.0,543.0,1.0,1,314.0,1
860,860,0.12262319041560754,0.1,1.0,1.0,464.0,759.0,1.0,1,457.0,1
861,861,0.15354166973661754,0.2,0.0,0.0,365.0,741.0,0.0,1,874.0,1
862,862,0.7077039907149406,0.7,1.0,1.0,334.0,937.0,1.0,1,429.0,1
863,863,0.7274089813996468,0.7,0.0,0.0,354.0,887.0,0.0,1,339.0,1
864,864,-0.7172615704535366,-0.7,1.0,0.0,266.0,945.0,0.0,0,309.0,1
865,865,0.07537148182834619,0.1,0.0,0.0,291.0,782.0,0.0,1,357.0,1
866,866,-0.05946581996180511,-0.1,0.0,1.0,488.0,975.0,1.0,0,307.0,1
867,867,0.11876321092510944,0.1,0.0,0.0,324.0,501.0,0.0,1,905.0,1
868,868,-0.1892547972464914,-0.2,0.0,1.0,294.0,688.0,1.0,0,208.0,1
869,869,0.7060344171536944,0.7,0.0,0.0,258.0,657.0,0.0,1,215.0,1
870,870,-0.521881406705047,-0.5,1.0,0.0,305.0,543.0,0.0,0,352.0,1
871,871,-0.4007823668015065,-0.4,1.0,0.0,328.0,567.0,0.0,0,625.0,1
872,872,0.4370046671752926,0.4,0.0,0.0,394.0,805.0,0.0,1,531.0,1
873,873,0.6078983773617931,0.6,1.0,1.0,461.0,950.0,1.0,1,289.0,1
874,874,0.8609090887129743,0.9,1.0,1.0,376.0,779.0,1.0,1,255.0,1
875,875,-0.23097698288268165,-0.2,1.0,0.0,329.0,784.0,0.0,0,247.0,1
876,876,-0.6701205803368346,-0.7,0.0,1.0,430.0,855.0,1.0,0,95.0,1
877,877,-0.1266826410540276,-0.1,0.0,1.0,465.0,819.0,1.0,0,276.0,1
878,878,-0.5934411135190311,-0.6,0.0,1.0,315.0,991.0,1.0,0,84.0,1
879,879,-0.7288198601153054,-0.7,1.0,0.0,318.0,967.0,0.0,0,35.0,1
880,880,-0.6229204991862625,-0.6,1.0,0.0,481.0,629.0,0.0,0,240.0,1
881,881,-0.8808945633067562,-0.9,1.0,0.0,427.0,582.0,0.0,0,331.0,1
882,882,-0.8155626968910249,-0.8,0.0,1.0,390.0,825.0,1.0,0,115.0,1
883,883,-0.5556136521814345,-0.6,0.0,1.0,341.0,944.0,1.0,0,175.0,1
884,884,-0.75589042693908,-0.8,1.0,0.0,335.0,546.0,0.0,0,229.0,1
885,885,0.36262196677298697,0.4,1.0,1.0,475.0,595.0,1.0,1,400.0,1
886,886,-0.5230667470594935,-0.5,0.0,1.0,456.0,791.0,1.0,0,193.0,1
887,887,-0.7223895250550434,-0.7,1.0,0.0,477.0,592.0,0.0,0,241.0,1
888,888,0.8764127349072405,0.9,1.0,1.0,356.0,520.0,1.0,1,464.0,1
889,889,0.02562371720116563,0.0,1.0,1.0,442.0,610.0,1.0,1,1248.0,1
890,890,-0.23501955408927633,-0.2,1.0,0.0,449.0,847.0,0.0,0,444.0,1
891,891,-0.1452845846886982,-0.1,1.0,0.0,370.0,607.0,0.0,0,1123.0,1
892,892,0.7834172558466667,0.8,1.0,1.0,335.0,959.0,1.0,1,16.0,1
893,893,-0.6731585402629116,-0.7,0.0,1.0,274.0,601.0,1.0,0,355.0,1
894,894,-0.1416687883371076,-0.1,1.0,0.0,459.0,612.0,0.0,0,849.0,1
895,895,-0.3321347671032443,-0.3,0.0,1.0,432.0,630.0,1.0,0,618.0,1
896,896,0.17532577856915055,0.2,0.0,0.0,287.0,543.0,1.0,0,370.0,0
897,897,0.025717689956345713,0.0,0.0,0.0,477.0,772.0,0.0,1,361.0,1
898,898,0.48077433752028276,0.5,1.0,1.0,490.0,779.0,1.0,1,671.0,1
899,899,-0.36646069972827056,-0.4,0.0,1.0,300.0,850.0,1.0,0,480.0,1
900,900,-0.3725217717783669,-0.4,0.0,1.0,302.0,732.0,1.0,0,276.0,1
901,901,-0.37073296200327377,-0.4,0.0,1.0,253.0,792.0,1.0,0,565.0,1
902,902,0.588993446378164,0.6,0.0,0.0,323.0,988.0,0.0,1,159.0,1
903,903,0.17834437078992782,0.2,0.0,0.0,370.0,523.0,0.0,1,867.0,1
904,904,0.737006960816576,0.7,0.0,0.0,288.0,545.0,0.0,1,317.0,1
905,905,-0.3583028624737047,-0.4,0.0,1.0,435.0,990.0,1.0,0,245.0,1
906,906,-0.4433749324045567,-0.4,0.0,1.0,274.0,686.0,1.0,0,420.0,1
907,907,-0.8079876708305135,-0.8,0.0,1.0,267.0,669.0,1.0,0,154.0,1
908,908,-0.37519917621742127,-0.4,0.0,1.0,276.0,813.0,1.0,0,241.0,1
909,909,0.7163317384778686,0.7,1.0,1.0,470.0,876.0,1.0,1,154.0,1
910,910,-0.27846955030570697,-0.3,0.0,1.0,368.0,921.0,1.0,0,261.0,1
911,911,0.35001337881053385,0.4,0.0,0.0,400.0,830.0,0.0,1,630.0,1
912,912,0.8094817847822985,0.8,0.0,0.0,300.0,753.0,0.0,1,147.0,1
913,913,-0.21633395067216132,-0.2,0.0,1.0,318.0,816.0,1.0,0,296.0,1
914,914,0.25465416224772397,0.3,1.0,1.0,491.0,586.0,1.0,1,323.0,1
915,915,-0.7685342670107675,-0.8,0.0,1.0,282.0,760.0,1.0,0,158.0,1
916,916,-0.1810509386375172,-0.2,0.0,1.0,320.0,833.0,1.0,0,827.0,1
917,917,-0.6331391385056369,-0.6,0.0,1.0,343.0,555.0,1.0,0,822.0,1
918,918,-0.31704712394927637,-0.3,0.0,1.0,317.0,650.0,1.0,0,363.0,1
919,919,0.23208824363433933,0.2,0.0,0.0,298.0,972.0,0.0,1,610.0,1
920,920,-0.09698261372930128,-0.1,1.0,0.0,444.0,914.0,0.0,0,1002.0,1
921,921,0.8409074040345702,0.8,1.0,1.0,394.0,966.0,1.0,1,160.0,1
922,922,-0.019236765344922135,-0.0,1.0,0.0,449.0,750.0,1.0,1,1761.0,0
923,923,-0.7297480738118566,-0.7,1.0,0.0,357.0,654.0,0.0,0,189.0,1
924,924,0.31372471126415624,0.3,1.0,1.0,397.0,570.0,1.0,1,283.0,1
925,925,0.14662522160899816,0.1,1.0,1.0,352.0,660.0,1.0,1,578.0,1
926,926,0.8467375259510203,0.8,1.0,1.0,479.0,954.0,1.0,1,157.0,1
927,927,0.2478554165787613,0.2,0.0,0.0,354.0,632.0,0.0,1,324.0,1
928,928,0.5326350847290077,0.5,0.0,0.0,493.0,932.0,0.0,1,305.0,1
929,929,-0.4648455444190492,-0.5,1.0,0.0,430.0,960.0,0.0,0,330.0,1
930,930,-0.6704506403511434,-0.7,1.0,0.0,452.0,834.0,0.0,0,214.0,1
931,931,0.8102249055891423,0.8,0.0,0.0,254.0,707.0,0.0,1,329.0,1
932,932,-0.7643004942497247,-0.8,1.0,0.0,301.0,901.0,0.0,0,148.0,1
933,933,-0.04026361897314934,-0.0,0.0,1.0,492.0,635.0,1.0,0,1823.0,1
934,934,0.38451406192280746,0.4,1.0,1.0,477.0,865.0,1.0,1,168.0,1
935,935,-0.0997807897181151,-0.1,1.0,0.0,296.0,897.0,0.0,0,807.0,1
936,936,-0.5182466449356171,-0.5,1.0,0.0,493.0,766.0,0.0,0,191.0,1
937,937,0.7281502540233006,0.7,0.0,0.0,417.0,946.0,0.0,1,147.0,1
938,938,-0.3458798870070855,-0.3,0.0,1.0,271.0,773.0,1.0,0,326.0,1
939,939,-0.7848390536188761,-0.8,1.0,0.0,467.0,746.0,0.0,0,477.0,1
940,940,0.7127074024698635,0.7,0.0,0.0,478.0,951.0,0.0,1,161.0,1
941,941,-0.4285951550383236,-0.4,1.0,0.0,304.0,583.0,0.0,0,353.0,1
942,942,-0.6854104580143271,-0.7,0.0,1.0,278.0,874.0,1.0,0,208.0,1
943,943,-0.05433727230891072,-0.1,0.0,1.0,461.0,972.0,1.0,0,897.0,1
944,944,0.551435521319266,0.6,1.0,1.0,329.0,579.0,1.0,1,362.0,1
945,945,0.41832589292613387,0.4,0.0,0.0,356.0,530.0,0.0,1,354.0,1
946,946,-0.21281765301558297,-0.2,1.0,0.0,391.0,785.0,0.0,0,1464.0,1
947,947,0.006757243543874525,0.0,1.0,1.0,258.0,787.0,1.0,1,665.0,1
948,948,-0.4293006870586119,-0.4,1.0,0.0,363.0,811.0,0.0,0,436.0,1
949,949,-0.02343241215854308,-0.0,0.0,1.0,267.0,841.0,1.0,0,422.0,1
950,950,-0.36132544653224197,-0.4,0.0,1.0,463.0,895.0,1.0,0,162.0,1
951,951,0.19398063930611598,0.2,0.0,0.0,447.0,577.0,0.0,1,666.0,1
952,952,0.5942534112721415,0.6,1.0,1.0,438.0,937.0,1.0,1,185.0,1
953,953,0.7432618227653126,0.7,1.0,1.0,372.0,843.0,1.0,1,85.0,1
954,954,-0.28242725183776995,-0.3,1.0,0.0,293.0,518.0,0.0,0,449.0,1
955,955,0.3605535292282692,0.4,0.0,0.0,289.0,570.0,0.0,1,541.0,1
956,956,-0.514393329404689,-0.5,0.0,1.0,481.0,583.0,1.0,0,296.0,1
957,957,0.5887173021848605,0.6,1.0,1.0,425.0,920.0,1.0,1,175.0,1
958,958,-0.1346331650634065,-0.1,1.0,0.0,426.0,547.0,0.0,0,2437.0,1
959,959,0.24269203779619708,0.2,1.0,1.0,488.0,526.0,1.0,1,546.0,1
960,960,-0.46522790440673334,-0.5,1.0,0.0,378.0,764.0,0.0,0,258.0,1
961,961,-0.578234706082597,-0.6,1.0,0.0,264.0,798.0,0.0,0,168.0,1
962,962,0.7418199575447352,0.7,1.0,1.0,399.0,621.0,1.0,1,470.0,1
963,963,-0.46666687596560574,-0.5,1.0,0.0,355.0,966.0,0.0,0,369.0,1
964,964,0.8737743041505056,0.9,1.0,1.0,262.0,788.0,1.0,1,130.0,1
965,965,0.5122507820238124,0.5,0.0,0.0,289.0,920.0,0.0,1,181.0,1
966,966,-0.43840950671999296,-0.4,0.0,1.0,359.0,811.0,1.0,0,160.0,1
967,967,0.59095160233718,0.6,0.0,0.0,467.0,624.0,0.0,1,309.0,1
968,968,0.20281047469809377,0.2,0.0,0.0,469.0,990.0,0.0,1,651.0,1
969,969,-0.32189904040565476,-0.3,1.0,0.0,422.0,987.0,0.0,0,611.0,1
970,970,-0.8474988294936312,-0.8,0.0,1.0,289.0,732.0,1.0,0,149.0,1
971,971,-0.19843082727100014,-0.2,0.0,1.0,405.0,724.0,1.0,0,391.0,1
972,972,-0.0076630831868355065,-0.0,1.0,0.0,277.0,521.0,1.0,1,1142.0,0
973,973,-0.15062824602375713,-0.2,0.0,1.0,485.0,923.0,1.0,0,742.0,1
974,974,0.6836881023447979,0.7,0.0,0.0,497.0,566.0,0.0,1,617.0,1
975,975,0.39464034620540034,0.4,0.0,0.0,494.0,856.0,0.0,1,130.0,1
976,976,-0.13676665742854954,-0.1,0.0,1.0,327.0,809.0,1.0,0,324.0,1
977,977,0.799999254112819,0.8,0.0,0.0,253.0,640.0,0.0,1,297.0,1
978,978,0.30745934426631305,0.3,0.0,0.0,374.0,679.0,0.0,1,497.0,1
979,979,0.3282813179547427,0.3,1.0,1.0,452.0,824.0,1.0,1,214.0,1
980,980,0.7534778000837213,0.8,0.0,0.0,336.0,781.0,0.0,1,213.0,1
981,981,-0.1492100400521309,-0.1,1.0,0.0,406.0,927.0,0.0,0,987.0,1
982,982,0.06308653968388445,0.1,1.0,1.0,359.0,901.0,1.0,1,40.0,1
983,983,-0.7613021110699203,-0.8,1.0,0.0,496.0,649.0,0.0,0,235.0,1
984,984,-0.528665274650183,-0.5,0.0,1.0,269.0,530.0,1.0,0,391.0,1
985,985,0.8236586019925737,0.8,0.0,0.0,487.0,985.0,0.0,1,118.0,1
986,986,0.5411857175953759,0.5,0.0,0.0,262.0,635.0,0.0,1,573.0,1
987,987,-0.6017488036145316,-0.6,1.0,0.0,278.0,711.0,0.0,0,151.0,1
988,988,0.7308852922223342,0.7,0.0,0.0,289.0,843.0,0.0,1,428.0,1
989,989,0.5951258597633905,0.6,0.0,0.0,472.0,529.0,0.0,1,439.0,1
990,990,0.46720691740994436,0.5,0.0,0.0,292.0,512.0,0.0,1,546.0,1
991,991,0.5878866594403777,0.6,0.0,0.0,417.0,973.0,0.0,1,260.0,1
992,992,-0.7126107947740725,-0.7,0.0,1.0,432.0,807.0,1.0,0,311.0,1
993,993,0.16117790898959494,0.2,0.0,0.0,432.0,502.0,0.0,1,746.0,1
994,994,-0.8214668211340183,-0.8,1.0,0.0,325.0,796.0,0.0,0,129.0,1
995,995,0.7750134348778895,0.8,0.0,0.0,328.0,530.0,0.0,1,362.0,1
996,996,-0.8478627200925324,-0.8,1.0,0.0,299.0,899.0,0.0,0,432.0,1
997,997,-0.6742910092104814,-0.7,0.0,1.0,260.0,746.0,1.0,0,394.0,1
998,998,-0.7965794213720432,-0.8,1.0,0.0,326.0,718.0,0.0,0,176.0,1
999,999,-0.6089033451420769,-0.6,1.0,0.0,474.0,738.0,0.0,0,178.0,1
1000,1000,-0.06160217105234078,-0.1,1.0,0.0,314.0,556.0,1.0,1,1910.0,0
1001,1001,-0.4133579521461223,-0.4,1.0,0.0,403.0,575.0,0.0,0,292.0,1
1002,1002,-0.8863431896277,-0.9,1.0,0.0,492.0,809.0,0.0,0,189.0,1
1003,1003,-0.6391399457456844,-0.6,0.0,1.0,312.0,775.0,1.0,0,333.0,1
1004,1004,0.4762615388737995,0.5,0.0,0.0,302.0,510.0,0.0,1,368.0,1
1005,1005,-0.2080150718938215,-0.2,0.0,1.0,388.0,931.0,1.0,0,251.0,1
1006,1006,0.08574555600705414,0.1,0.0,0.0,357.0,672.0,0.0,1,981.0,1
1007,1007,-0.595000068695948,-0.6,1.0,0.0,434.0,541.0,0.0,0,415.0,1
1008,1008,-0.721880140784224,-0.7,1.0,0.0,355.0,811.0,0.0,0,214.0,1
1009,1009,-0.26200242950563446,-0.3,1.0,0.0,410.0,727.0,0.0,0,903.0,1
1010,1010,0.7418898891481568,0.7,0.0,0.0,318.0,845.0,0.0,1,67.0,1
1011,1011,-0.8254105556058751,-0.8,1.0,0.0,336.0,815.0,0.0,0,109.0,1
1012,1012,0.6208837859903261,0.6,0.0,0.0,310.0,826.0,0.0,1,154.0,1
1013,1013,-0.5969201031231706,-0.6,0.0,1.0,492.0,551.0,1.0,0,297.0,1
1014,1014,-0.5803502663280211,-0.6,0.0,1.0,395.0,917.0,1.0,0,358.0,1
1015,1015,0.8644605174205587,0.9,0.0,0.0,384.0,702.0,0.0,1,324.0,1
1016,1016,0.06771584283024801,0.1,0.0,0.0,483.0,885.0,0.0,1,252.0,1
1017,1017,0.7571567794324704,0.8,1.0,1.0,455.0,545.0,1.0,1,230.0,1
1018,1018,-0.0661123178695302,-0.1,0.0,1.0,319.0,926.0,1.0,0,175.0,1
1019,1019,-0.09337494367830068,-0.1,1.0,0.0,346.0,874.0,1.0,1,-10.0,0
1020,1020,-0.6230937605066743,-0.6,0.0,1.0,284.0,833.0,1.0,0,133.0,1
1021,1021,0.4702156324136805,0.5,1.0,1.0,377.0,578.0,1.0,1,585.0,1
1022,1022,-0.8116178606115957,-0.8,0.0,1.0,359.0,592.0,1.0,0,279.0,1
1023,1023,0.20280522311555893,0.2,1.0,1.0,499.0,514.0,1.0,1,357.0,1
1024,1024,0.6599504929287895,0.7,1.0,1.0,427.0,828.0,1.0,1,35.0,1
1025,1025,-0.3918208388982606,-0.4,1.0,0.0,382.0,683.0,0.0,0,485.0,1
1026,1026,-0.2990176936951814,-0.3,1.0,0.0,288.0,968.0,0.0,0,374.0,1
1027,1027,-0.4522711987236978,-0.5,1.0,0.0,260.0,773.0,0.0,0,447.0,1
1028,1028,-0.322139792894264,-0.3,0.0,1.0,379.0,894.0,1.0,0,617.0,1
1029,1029,0.6805171861669742,0.7,1.0,1.0,355.0,724.0,1.0,1,231.0,1
1030,1030,-0.1778223616439385,-0.2,1.0,0.0,492.0,556.0,0.0,0,1722.0,1
1031,1031,-0.07467776599288789,-0.1,0.0,1.0,337.0,611.0,1.0,0,992.0,1
1032,1032,-0.8916759518987191,-0.9,0.0,1.0,373.0,670.0,1.0,0,407.0,1
1033,1033,0.6529765662476396,0.7,1.0,1.0,401.0,871.0,1.0,1,308.0,1
1034,1034,0.2909048272173921,0.3,0.0,0.0,265.0,935.0,0.0,1,840.0,1
1035,1035,-0.004619373394183612,-0.0,0.0,1.0,312.0,894.0,0.0,1,1764.0,0
1036,1036,0.8744762771780611,0.9,1.0,1.0,302.0,715.0,1.0,1,123.0,1
1037,1037,-0.5612866183705034,-0.6,1.0,0.0,302.0,890.0,0.0,0,168.0,1
1038,1038,0.09109128435102554,0.1,1.0,1.0,360.0,821.0,1.0,1,539.0,1
1039,1039,-0.43099223634111766,-0.4,0.0,1.0,423.0,625.0,1.0,0,152.0,1
1040,1040,-0.6861963859140635,-0.7,0.0,1.0,263.0,872.0,1.0,0,85.0,1
1041,1041,0.4062783678527674,0.4,0.0,0.0,410.0,598.0,0.0,1,552.0,1
1042,1042,-0.754168714387999,-0.8,1.0,0.0,375.0,869.0,0.0,0,216.0,1
1043,1043,0.7814443792424198,0.8,1.0,1.0,351.0,644.0,1.0,1,335.0,1
1044,1044,-0.011696824461528976,-0.0,1.0,0.0,397.0,907.0,1.0,1,866.0,0
1045,1045,-0.4378021004116544,-0.4,1.0,0.0,344.0,762.0,0.0,0,394.0,1
1046,1046,-0.026802842105132174,-0.0,0.0,1.0,477.0,853.0,1.0,0,140.0,1
1047,1047,0.7215685768991541,0.7,0.0,0.0,298.0,813.0,0.0,1,189.0,1
1048,1048,-0.42856982927526155,-0.4,1.0,0.0,463.0,789.0,0.0,0,668.0,1
1049,1049,-0.5899435609250521,-0.6,0.0,1.0,427.0,798.0,1.0,0,225.0,1
1050,1050,0.6690901085628601,0.7,1.0,1.0,366.0,790.0,1.0,1,104.0,1
1051,1051,0.893538679521826,0.9,1.0,1.0,284.0,592.0,1.0,1,284.0,1
1052,1052,0.7490959782608891,0.7,1.0,1.0,492.0,961.0,1.0,1,127.0,1
1053,1053,-0.7225358823424506,-0.7,0.0,1.0,415.0,542.0,1.0,0,393.0,1
1054,1054,0.4130795072666743,0.4,1.0,1.0,327.0,978.0,1.0,1,175.0,1
1055,1055,0.847686044454648,0.8,1.0,1.0,329.0,997.0,1.0,1,154.0,1
1056,1056,0.1057002030608506,0.1,0.0,0.0,293.0,968.0,0.0,1,219.0,1
1057,1057,-0.7741581695485331,-0.8,0.0,1.0,323.0,965.0,1.0,0,82.0,1
1058,1058,-0.7596709901226576,-0.8,1.0,0.0,307.0,917.0,0.0,0,236.0,1
1059,1059,-0.7524443712631612,-0.8,0.0,1.0,411.0,966.0,1.0,0,93.0,1
1060,1060,-0.6349320612833729,-0.6,1.0,0.0,284.0,619.0,0.0,0,287.0,1
1061,1061,0.0014863974692862492,0.0,0.0,0.0,347.0,509.0,0.0,1,2534.0,1
1062,1062,-0.028269152207057724,-0.0,1.0,0.0,290.0,525.0,1.0,1,1045.0,0
1063,1063,-0.37291193468594264,-0.4,1.0,0.0,386.0,581.0,0.0,0,423.0,1
1064,1064,0.7946148380689814,0.8,0.0,0.0,423.0,713.0,0.0,1,144.0,1
1065,1065,-0.45700224297481956,-0.5,0.0,1.0,291.0,969.0,1.0,0,320.0,1
1066,1066,0.7249279162931238,0.7,1.0,1.0,491.0,969.0,1.0,1,150.0,1
1067,1067,0.3072105724707185,0.3,0.0,0.0,488.0,900.0,0.0,1,202.0,1
1068,1068,-0.6872219948796779,-0.7,0.0,1.0,361.0,889.0,1.0,0,120.0,1
1069,1069,0.8021248282446855,0.8,0.0,0.0,383.0,880.0,0.0,1,177.0,1
1070,1070,-0.4088115197111525,-0.4,0.0,1.0,393.0,652.0,1.0,0,365.0,1
1071,1071,0.3095850553592011,0.3,1.0,1.0,317.0,756.0,1.0,1,437.0,1
1072,1072,0.6663391810523999,0.7,1.0,1.0,361.0,524.0,1.0,1,335.0,1
1073,1073,0.18126712436055203,0.2,0.0,0.0,361.0,990.0,0.0,1,399.0,1
1074,1074,-0.02145768002237014,-0.0,0.0,1.0,320.0,983.0,1.0,0,687.0,1
1075,1075,-0.5465538437097526,-0.5,1.0,0.0,474.0,920.0,0.0,0,166.0,1
1076,1076,0.20081697349103955,0.2,0.0,0.0,453.0,608.0,0.0,1,329.0,1
1077,1077,0.10391054014535361,0.1,1.0,1.0,438.0,670.0,1.0,1,842.0,1
1078,1078,-0.8137869722542652,-0.8,1.0,0.0,411.0,603.0,0.0,0,296.0,1
1079,1079,-0.029743264803899994,-0.0,0.0,1.0,366.0,638.0,1.0,0,466.0,1
1080,1080,0.7959195104482363,0.8,0.0,0.0,337.0,696.0,0.0,1,267.0,1
1081,1081,0.411654849223272,0.4,1.0,1.0,433.0,622.0,1.0,1,295.0,1
1082,1082,-0.7347877040581624,-0.7,1.0,0.0,363.0,795.0,0.0,0,302.0,1
1083,1083,0.7772886689698023,0.8,0.0,0.0,290.0,794.0,0.0,1,296.0,1
1084,1084,0.8378171154413122,0.8,0.0,0.0,319.0,934.0,0.0,1,537.0,1
1085,1085,-0.19863425676486068,-0.2,0.0,1.0,328.0,524.0,1.0,0,588.0,1
1086,1086,-0.6602689091118616,-0.7,1.0,0.0,483.0,973.0,0.0,0,214.0,1
1087,1087,0.3126491418329621,0.3,0.0,0.0,284.0,547.0,0.0,1,559.0,1
1088,1088,-0.1087618873052204,-0.1,0.0,1.0,317.0,538.0,1.0,0,615.0,1
1089,1089,0.12049947164956831,0.1,0.0,0.0,467.0,691.0,0.0,1,782.0,1
1090,1090,-0.4467407034335844,-0.4,0.0,1.0,434.0,985.0,1.0,0,151.0,1
1091,1091,0.04507290390391827,0.0,1.0,1.0,370.0,596.0,1.0,1,684.0,1
1092,1092,0.4741297164391741,0.5,1.0,1.0,391.0,590.0,1.0,1,299.0,1
1093,1093,0.1264192920234658,0.1,0.0,0.0,264.0,640.0,0.0,1,486.0,1
1094,1094,0.10304693142318444,0.1,1.0,1.0,311.0,890.0,1.0,1,219.0,1
1095,1095,0.29555194184945177,0.3,1.0,1.0,298.0,611.0,1.0,1,381.0,1
1096,1096,-0.37650705225826786,-0.4,1.0,0.0,469.0,836.0,0.0,0,435.0,1
1097,1097,-0.3625092223826627,-0.4,1.0,0.0,378.0,993.0,0.0,0,269.0,1
1098,1098,-0.3025181022999346,-0.3,0.0,1.0,482.0,571.0,1.0,0,457.0,1
1099,1099,0.8328617328864695,0.8,0.0,0.0,477.0,655.0,0.0,1,358.0,1
1100,1100,0.8042842902218653,0.8,0.0,0.0,481.0,635.0,0.0,1,154.0,1
1101,1101,-0.3183665539114886,-0.3,1.0,0.0,294.0,932.0,0.0,0,414.0,1
1102,1102,0.5874169716775001,0.6,0.0,0.0,261.0,598.0,0.0,1,351.0,1
1103,1103,-0.8303554993032719,-0.8,0.0,1.0,426.0,881.0,1.0,0,313.0,1
1104,1104,0.08116600139515917,0.1,1.0,1.0,387.0,932.0,1.0,1,381.0,1
1105,1105,0.8742875561543672,0.9,0.0,0.0,468.0,500.0,0.0,1,272.0,1
1106,1106,0.8631092076654424,0.9,1.0,1.0,330.0,501.0,1.0,1,489.0,1
1107,1107,0.32303867614429416,0.3,0.0,0.0,250.0,572.0,0.0,1,478.0,1
1108,1108,-0.48240933925171364,-0.5,0.0,1.0,377.0,751.0,1.0,0,552.0,1
1109,1109,-0.1725849705493978,-0.2,0.0,1.0,387.0,995.0,1.0,0,338.0,1
1110,1110,-0.7084200343536179,-0.7,0.0,1.0,410.0,887.0,1.0,0,113.0,1
1111,1111,-0.7305447166588522,-0.7,0.0,1.0,351.0,664.0,1.0,0,205.0,1
1112,1112,0.21722210009697063,0.2,1.0,1.0,345.0,977.0,1.0,1,328.0,1
1113,1113,-0.3597513903735782,-0.4,1.0,0.0,458.0,875.0,0.0,0,347.0,1
1114,1114,-0.5543099513036643,-0.6,0.0,1.0,368.0,623.0,1.0,0,189.0,1
1115,1115,-0.3966822688265532,-0.4,1.0,0.0,407.0,601.0,0.0,0,532.0,1
1116,1116,0.5128378302476327,0.5,1.0,1.0,316.0,722.0,1.0,1,192.0,1
1117,1117,0.6505061422620483,0.7,0.0,0.0,315.0,631.0,0.0,1,214.0,1
1118,1118,0.3269662072130549,0.3,1.0,1.0,399.0,625.0,1.0,1,296.0,1
1119,1119,-0.8225956786851039,-0.8,1.0,0.0,339.0,871.0,0.0,0,120.0,1
1120,1120,-0.18789162037885643,-0.2,1.0,0.0,450.0,947.0,0.0,0,833.0,1
1121,1121,0.7140889824937727,0.7,1.0,1.0,368.0,644.0,1.0,1,188.0,1
1122,1122,-0.3264363933091883,-0.3,1.0,0.0,463.0,798.0,0.0,0,449.0,1
1123,1123,-0.3967221413983899,-0.4,1.0,0.0,316.0,500.0,0.0,0,504.0,1
1124,1124,0.59958463427896,0.6,1.0,1.0,430.0,527.0,1.0,1,263.0,1
1125,1125,0.8540914265261638,0.9,0.0,0.0,402.0,781.0,0.0,1,167.0,1
1126,1126,-0.38929505402722453,-0.4,1.0,0.0,291.0,563.0,0.0,0,506.0,1
1127,1127,0.4958128708565305,0.5,1.0,1.0,384.0,743.0,1.0,1,143.0,1
1128,1128,0.8188184040803331,0.8,1.0,1.0,482.0,683.0,1.0,1,165.0,1
1129,1129,-0.23219770068109014,-0.2,0.0,1.0,475.0,611.0,1.0,0,674.0,1
1130,1130,0.7111092705739589,0.7,1.0,1.0,363.0,617.0,1.0,1,310.0,1
1131,1131,-0.7692682655366223,-0.8,0.0,1.0,357.0,561.0,1.0,0,322.0,1
1132,1132,0.7569345485686082,0.8,1.0,1.0,449.0,545.0,1.0,1,346.0,1
1133,1133,0.4801397887015936,0.5,1.0,1.0,257.0,884.0,1.0,1,319.0,1
1134,1134,0.8677673582266509,0.9,0.0,0.0,456.0,747.0,0.0,1,157.0,1
1135,1135,0.8906284852099436,0.9,0.0,0.0,358.0,884.0,0.0,1,78.0,1
1136,1136,-0.4067519185652767,-0.4,1.0,0.0,303.0,774.0,0.0,0,323.0,1
1137,1137,-0.5680743571583636,-0.6,0.0,1.0,450.0,868.0,1.0,0,342.0,1
1138,1138,0.5330522319038832,0.5,0.0,0.0,293.0,613.0,0.0,1,354.0,1
1139,1139,0.384362106922688,0.4,0.0,0.0,350.0,601.0,0.0,1,179.0,1
1140,1140,-0.22271918326792506,-0.2,0.0,1.0,437.0,821.0,1.0,0,72.0,1
1141,1141,0.1994840823760372,0.2,0.0,0.0,448.0,600.0,0.0,1,1072.0,1
1142,1142,0.19070483138479666,0.2,1.0,1.0,450.0,910.0,1.0,1,200.0,1
1143,1143,-0.5982889277303736,-0.6,0.0,1.0,251.0,684.0,1.0,0,335.0,1
1144,1144,-0.694136919423071,-0.7,1.0,0.0,261.0,802.0,0.0,0,237.0,1
1145,1145,0.4360440984708921,0.4,1.0,1.0,429.0,841.0,1.0,1,350.0,1
1146,1146,-0.6809748094728277,-0.7,1.0,0.0,303.0,948.0,0.0,0,249.0,1
1147,1147,-0.7621547788351178,-0.8,1.0,0.0,278.0,947.0,0.0,0,105.0,1
1148,1148,0.2579102882644434,0.3,1.0,1.0,311.0,738.0,1.0,1,161.0,1
1149,1149,0.43714219101770946,0.4,0.0,0.0,355.0,912.0,0.0,1,63.0,1
1150,1150,-0.44971719884309974,-0.4,1.0,0.0,464.0,941.0,0.0,0,265.0,1
1151,1151,-0.11165049216923661,-0.1,0.0,1.0,260.0,878.0,1.0,0,412.0,1
1152,1152,-0.7381016408765555,-0.7,1.0,0.0,446.0,550.0,0.0,0,324.0,1
1153,1153,-0.7291885157932204,-0.7,1.0,0.0,278.0,935.0,0.0,0,137.0,1
1154,1154,-0.23228521035361105,-0.2,1.0,0.0,346.0,523.0,0.0,0,661.0,1
1155,1155,0.4468459898003839,0.4,0.0,0.0,451.0,534.0,0.0,1,425.0,1
1156,1156,-0.20772152400487265,-0.2,1.0,0.0,450.0,923.0,1.0,1,-63.0,0
1157,1157,-0.13945261175153734,-0.1,1.0,0.0,338.0,897.0,0.0,0,205.0,1
1158,1158,0.49649186061360295,0.5,0.0,0.0,478.0,640.0,0.0,1,362.0,1
1159,1159,0.3680676962446613,0.4,1.0,1.0,254.0,850.0,1.0,1,256.0,1
1160,1160,-0.2227739438196017,-0.2,0.0,1.0,332.0,766.0,1.0,0,562.0,1
1161,1161,0.752463010017392,0.8,0.0,0.0,417.0,701.0,0.0,1,552.0,1
1162,1162,0.6885056772497545,0.7,0.0,0.0,457.0,522.0,0.0,1,541.0,1
1163,1163,-0.2462344461983087,-0.2,1.0,0.0,379.0,829.0,0.0,0,752.0,1
1164,1164,0.2242424237591124,0.2,1.0,1.0,417.0,838.0,1.0,1,245.0,1
1165,1165,0.6322257359837532,0.6,1.0,1.0,397.0,943.0,1.0,1,230.0,1
1166,1166,-0.31396250233104006,-0.3,0.0,1.0,372.0,598.0,1.0,0,550.0,1
1167,1167,-0.6563422967334607,-0.7,1.0,0.0,266.0,797.0,0.0,0,337.0,1
1168,1168,0.14274237098582254,0.1,1.0,1.0,305.0,544.0,1.0,1,611.0,1
1169,1169,0.322132739928792,0.3,0.0,0.0,486.0,503.0,0.0,1,311.0,1
1170,1170,0.27488115805761926,0.3,1.0,1.0,331.0,506.0,1.0,1,463.0,1
1171,1171,-0.007020099590816842,-0.0,1.0,0.0,328.0,828.0,1.0,1,94.0,0
1172,1172,-0.21964785188996605,-0.2,1.0,0.0,419.0,931.0,0.0,0,690.0,1
1173,1173,-0.6618885362018385,-0.7,0.0,1.0,442.0,549.0,1.0,0,219.0,1
1174,1174,0.25850881740668574,0.3,0.0,0.0,481.0,588.0,0.0,1,731.0,1
1175,1175,-0.8391829252464036,-0.8,1.0,0.0,266.0,605.0,0.0,0,329.0,1
1176,1176,0.8523251477567085,0.9,1.0,1.0,467.0,617.0,1.0,1,356.0,1
1177,1177,0.6843716287151885,0.7,1.0,1.0,391.0,979.0,1.0,1,70.0,1
1178,1178,0.6297174151513661,0.6,1.0,1.0,359.0,972.0,1.0,1,159.0,1
1179,1179,-0.7157559683194601,-0.7,1.0,0.0,392.0,604.0,0.0,0,334.0,1
1180,1180,-0.3902956053553194,-0.4,0.0,1.0,334.0,598.0,1.0,0,308.0,1
1181,1181,-0.5723453018145244,-0.6,1.0,0.0,398.0,952.0,0.0,0,330.0,1
1182,1182,-0.48568175319044055,-0.5,1.0,0.0,461.0,744.0,0.0,0,495.0,1
1183,1183,-0.3126814789708833,-0.3,0.0,1.0,455.0,976.0,1.0,0,399.0,1
1184,1184,0.0661182091903969,0.1,1.0,1.0,269.0,866.0,1.0,1,905.0,1
1185,1185,0.2617121332305875,0.3,0.0,0.0,342.0,748.0,0.0,1,680.0,1
1186,1186,0.4770033765645868,0.5,1.0,1.0,446.0,771.0,1.0,1,553.0,1
1187,1187,0.466162612561389,0.5,0.0,0.0,489.0,890.0,0.0,1,371.0,1
1188,1188,-0.028789592014390464,-0.0,1.0,0.0,315.0,854.0,0.0,0,3221.0,1
1189,1189,0.7832092367532087,0.8,0.0,0.0,426.0,830.0,0.0,1,394.0,1
1190,1190,0.6864369705335703,0.7,0.0,0.0,251.0,690.0,0.0,1,369.0,1
1191,1191,-0.7669953557055884,-0.8,1.0,0.0,441.0,714.0,0.0,0,425.0,1
1192,1192,0.4562424361432543,0.5,0.0,0.0,337.0,614.0,0.0,1,589.0,1
1193,1193,-0.6798581078640178,-0.7,1.0,0.0,303.0,609.0,0.0,0,408.0,1
1194,1194,0.740946209739663,0.7,0.0,0.0,378.0,653.0,0.0,1,229.0,1
1195,1195,0.7853371036656059,0.8,1.0,1.0,490.0,863.0,1.0,1,157.0,1
1196,1196,0.5745330767462719,0.6,0.0,0.0,462.0,734.0,0.0,1,384.0,1
1197,1197,-0.7461162095194239,-0.7,0.0,1.0,476.0,638.0,1.0,0,166.0,1
1198,1198,0.6396942922547527,0.6,1.0,1.0,454.0,660.0,1.0,1,216.0,1
1199,1199,0.5167624992812571,0.5,0.0,0.0,336.0,527.0,0.0,1,487.0,1
1200,1200,0.40168487200807,0.4,0.0,0.0,365.0,634.0,0.0,1,321.0,1
1201,1201,0.5467313734883078,0.5,1.0,1.0,391.0,867.0,1.0,1,372.0,1
1202,1202,0.5770497804074387,0.6,1.0,1.0,422.0,895.0,1.0,1,243.0,1
1203,1203,0.019832335924418687,0.0,0.0,0.0,369.0,946.0,1.0,0,3685.0,0
1204,1204,0.1570606586594051,0.2,0.0,0.0,313.0,593.0,0.0,1,1034.0,1
1205,1205,-0.6794695730911586,-0.7,0.0,1.0,410.0,909.0,1.0,0,131.0,1
1206,1206,-0.7060844322219633,-0.7,0.0,1.0,461.0,979.0,1.0,0,130.0,1
1207,1207,0.3928719739059102,0.4,1.0,1.0,287.0,550.0,1.0,1,493.0,1
1208,1208,-0.7473475814591551,-0.7,1.0,0.0,341.0,651.0,0.0,0,218.0,1
1209,1209,0.8963123329743997,0.9,1.0,1.0,469.0,607.0,1.0,1,274.0,1
1210,1210,-0.004096170212089523,-0.0,1.0,0.0,468.0,536.0,1.0,1,3356.0,0
1211,1211,0.4296970303935045,0.4,0.0,0.0,470.0,755.0,0.0,1,355.0,1
1212,1212,0.3769328628352303,0.4,1.0,1.0,418.0,721.0,1.0,1,211.0,1
1213,1213,0.639523219886985,0.6,1.0,1.0,260.0,593.0,1.0,1,297.0,1
1214,1214,0.01358462087506418,0.0,0.0,0.0,400.0,509.0,0.0,1,761.0,1
1215,1215,0.15345959240779183,0.2,0.0,0.0,431.0,686.0,1.0,0,1073.0,0
1216,1216,0.09257161732598929,0.1,0.0,0.0,410.0,605.0,0.0,1,985.0,1
1217,1217,-0.22639197825576507,-0.2,0.0,1.0,334.0,754.0,1.0,0,292.0,1
1218,1218,0.3713760667927807,0.4,1.0,1.0,369.0,837.0,1.0,1,234.0,1
1219,1219,0.6199213605621655,0.6,1.0,1.0,383.0,740.0,1.0,1,137.0,1
1220,1220,-0.798195723327461,-0.8,1.0,0.0,466.0,989.0,0.0,0,125.0,1
1221,1221,-0.13381965605802193,-0.1,1.0,0.0,282.0,611.0,0.0,0,1117.0,1
1222,1222,-0.7394845238209757,-0.7,1.0,0.0,413.0,513.0,0.0,0,304.0,1
1223,1223,-0.034340977618347424,-0.0,1.0,0.0,331.0,707.0,1.0,1,562.0,0
1224,1224,0.45024920168031335,0.5,1.0,1.0,282.0,843.0,1.0,1,65.0,1
1225,1225,0.5096733466151763,0.5,0.0,0.0,465.0,675.0,0.0,1,250.0,1
1226,1226,-0.12007265032990433,-0.1,0.0,1.0,499.0,660.0,1.0,0,621.0,1
1227,1227,0.08963755095265535,0.1,1.0,1.0,314.0,856.0,1.0,1,460.0,1
1228,1228,-0.4301747112889134,-0.4,0.0,1.0,282.0,879.0,1.0,0,169.0,1
1229,1229,-0.3855944694560488,-0.4,1.0,0.0,250.0,926.0,0.0,0,314.0,1
1230,1230,0.719375600017352,0.7,1.0,1.0,307.0,697.0,1.0,1,106.0,1
1231,1231,-0.42721729549431126,-0.4,0.0,1.0,287.0,834.0,1.0,0,379.0,1
1232,1232,-0.16440270890882058,-0.2,0.0,1.0,456.0,756.0,1.0,0,718.0,1
1233,1233,-0.36686933417520307,-0.4,1.0,0.0,351.0,573.0,0.0,0,546.0,1
1234,1234,0.11068101134550712,0.1,0.0,0.0,493.0,552.0,0.0,1,395.0,1
1235,1235,0.8771786862433834,0.9,0.0,0.0,436.0,810.0,0.0,1,234.0,1
1236,1236,-0.5402495817856305,-0.5,1.0,0.0,330.0,822.0,0.0,0,278.0,1
1237,1237,-0.3432576034652207,-0.3,1.0,0.0,345.0,738.0,0.0,0,367.0,1
1238,1238,0.13098240546254425,0.1,1.0,1.0,386.0,876.0,1.0,1,178.0,1
1239,1239,-0.802138376330447,-0.8,0.0,1.0,494.0,845.0,1.0,0,131.0,1
1240,1240,-0.1529422467837268,-0.2,0.0,1.0,442.0,500.0,1.0,0,588.0,1
1241,1241,0.5626478927826938,0.6,1.0,1.0,290.0,926.0,1.0,1,134.0,1
1242,1242,0.027516418070462678,0.0,0.0,0.0,496.0,566.0,1.0,0,1078.0,0
1243,1243,0.8745263874713941,0.9,0.0,0.0,335.0,871.0,0.0,1,154.0,1
1244,1244,0.04619931056677096,0.0,1.0,1.0,488.0,569.0,1.0,1,863.0,1
1245,1245,0.7758776405149498,0.8,1.0,1.0,423.0,698.0,1.0,1,179.0,1
1246,1246,0.7405632754099215,0.7,1.0,1.0,395.0,990.0,1.0,1,65.0,1
1247,1247,0.6994713624802268,0.7,0.0,0.0,285.0,832.0,0.0,1,233.0,1
1248,1248,0.6855481753418783,0.7,1.0,1.0,380.0,508.0,1.0,1,472.0,1
1249,1249,0.2731625275285009,0.3,1.0,1.0,458.0,999.0,1.0,1,503.0,1
1250,1250,-0.7327025689013174,-0.7,1.0,0.0,472.0,594.0,0.0,0,374.0,1
1251,1251,0.2417410366706122,0.2,1.0,1.0,389.0,698.0,1.0,1,383.0,1
1252,1252,0.7289812951093441,0.7,1.0,1.0,499.0,606.0,1.0,1,145.0,1
1253,1253,0.8229281397464508,0.8,0.0,0.0,298.0,546.0,0.0,1,186.0,1
1254,1254,0.7870778473339591,0.8,1.0,1.0,344.0,860.0,1.0,1,226.0,1
1255,1255,0.12198935498616448,0.1,1.0,1.0,489.0,867.0,1.0,1,684.0,1
1256,1256,-0.10097028385683127,-0.1,0.0,1.0,389.0,784.0,1.0,0,397.0,1
1257,1257,0.23080586646998513,0.2,0.0,0.0,467.0,779.0,0.0,1,1064.0,1
1258,1258,0.09408760032294483,0.1,1.0,1.0,335.0,888.0,1.0,1,697.0,1
1259,1259,-0.8391494069144446,-0.8,1.0,0.0,340.0,838.0,0.0,0,142.0,1
1260,1260,-0.5375103669807529,-0.5,1.0,0.0,344.0,812.0,0.0,0,494.0,1
1261,1261,0.06348660347154322,0.1,1.0,1.0,383.0,886.0,1.0,1,671.0,1
1262,1262,-0.5024993991665498,-0.5,1.0,0.0,319.0,639.0,0.0,0,542.0,1
1263,1263,0.08048417716770817,0.1,1.0,1.0,350.0,947.0,1.0,1,173.0,1
1264,1264,0.058254947950797775,0.1,1.0,1.0,435.0,807.0,1.0,1,1268.0,1
1265,1265,0.1743693451107583,0.2,1.0,1.0,322.0,995.0,1.0,1,133.0,1
1266,1266,-0.8302110441428047,-0.8,1.0,0.0,313.0,766.0,0.0,0,351.0,1
1267,1267,0.837273258758871,0.8,1.0,1.0,356.0,922.0,1.0,1,162.0,1
1268,1268,0.6102126502557458,0.6,1.0,1.0,277.0,716.0,1.0,1,217.0,1
1269,1269,0.5773988069702952,0.6,1.0,1.0,456.0,918.0,1.0,1,66.0,1
1270,1270,-0.75744534569347,-0.8,0.0,1.0,360.0,699.0,1.0,0,231.0,1
1271,1271,0.1634017283078929,0.2,0.0,0.0,302.0,680.0,0.0,1,318.0,1
1272,1272,0.28056072480419136,0.3,1.0,1.0,417.0,948.0,1.0,1,275.0,1
1273,1273,-0.15760542974927128,-0.2,1.0,0.0,290.0,862.0,1.0,1,388.0,0
1274,1274,0.7607363967888509,0.8,1.0,1.0,426.0,801.0,1.0,1,313.0,1
1275,1275,-0.18170923560693109,-0.2,0.0,1.0,251.0,667.0,1.0,0,312.0,1
1276,1276,0.5620247582149641,0.6,1.0,1.0,304.0,585.0,1.0,1,281.0,1
1277,1277,0.17639989112635057,0.2,1.0,1.0,416.0,672.0,1.0,1,592.0,1
1278,1278,0.5788354451033321,0.6,0.0,0.0,272.0,804.0,0.0,1,344.0,1
1279,1279,-0.32868791893057403,-0.3,0.0,1.0,356.0,946.0,1.0,0,98.0,1
1280,1280,-0.7123442503666665,-0.7,1.0,0.0,450.0,589.0,0.0,0,321.0,1
1281,1281,-0.7091969701591104,-0.7,1.0,0.0,355.0,665.0,0.0,0,360.0,1
1282,1282,0.270093839685453,0.3,1.0,1.0,348.0,730.0,1.0,1,572.0,1
1283,1283,-0.1402996166120115,-0.1,0.0,1.0,327.0,515.0,1.0,0,538.0,1
1284,1284,0.7801780571403832,0.8,0.0,0.0,271.0,921.0,0.0,1,138.0,1
1285,1285,0.7291770384799802,0.7,0.0,0.0,486.0,591.0,0.0,1,313.0,1
1286,1286,-0.8796973788967567,-0.9,0.0,1.0,367.0,894.0,1.0,0,69.0,1
1287,1287,0.6004501250719912,0.6,0.0,0.0,460.0,965.0,0.0,1,145.0,1
1288,1288,0.787187616770206,0.8,1.0,1.0,467.0,581.0,1.0,1,192.0,1
1289,1289,-0.29771067412140406,-0.3,0.0,1.0,445.0,649.0,1.0,0,206.0,1
1290,1290,0.5513461309409474,0.6,0.0,0.0,384.0,675.0,0.0,1,661.0,1
1291,1291,0.41908109276812777,0.4,1.0,1.0,325.0,873.0,1.0,1,302.0,1
1292,1292,-0.39517046220196483,-0.4,0.0,1.0,390.0,978.0,1.0,0,242.0,1
1293,1293,-0.3906905903060054,-0.4,1.0,0.0,359.0,829.0,0.0,0,142.0,1
1294,1294,-0.23012519283098676,-0.2,0.0,1.0,359.0,970.0,1.0,0,211.0,1
1295,1295,0.3896453377591408,0.4,1.0,1.0,271.0,995.0,1.0,1,-166.0,1
1296,1296,-0.47399882735505244,-0.5,1.0,0.0,484.0,515.0,0.0,0,671.0,1
1297,1297,0.804771230327673,0.8,0.0,0.0,385.0,681.0,0.0,1,304.0,1
1298,1298,0.6154006514439615,0.6,0.0,0.0,251.0,694.0,0.0,1,375.0,1
1299,1299,-0.03610540765013592,-0.0,1.0,0.0,496.0,744.0,1.0,1,1210.0,0
1300,1300,-0.6570806260801866,-0.7,1.0,0.0,261.0,584.0,0.0,0,485.0,1
1301,1301,-0.5367881318655807,-0.5,0.0,1.0,290.0,766.0,1.0,0,154.0,1
1302,1302,0.8222717174058171,0.8,1.0,1.0,319.0,758.0,1.0,1,63.0,1
1303,1303,0.13468849942189365,0.1,0.0,0.0,334.0,513.0,0.0,1,493.0,1
1304,1304,0.7167827909982053,0.7,1.0,1.0,472.0,790.0,1.0,1,128.0,1
1305,1305,-0.29861352520643536,-0.3,0.0,1.0,434.0,806.0,1.0,0,340.0,1
1306,1306,0.8686457142535592,0.9,1.0,1.0,424.0,762.0,1.0,1,124.0,1
1307,1307,0.380073399458175,0.4,0.0,0.0,330.0,545.0,0.0,1,505.0,1
1308,1308,0.013164944744729734,0.0,0.0,0.0,351.0,963.0,1.0,0,356.0,0
1309,1309,-0.5360140905728477,-0.5,1.0,0.0,376.0,906.0,0.0,0,258.0,1
1310,1310,-0.815539204669919,-0.8,1.0,0.0,388.0,722.0,0.0,0,250.0,1
1311,1311,0.13220925100888203,0.1,0.0,0.0,275.0,811.0,0.0,1,674.0,1
1312,1312,-0.4737246010814064,-0.5,0.0,1.0,415.0,981.0,1.0,0,204.0,1
1313,1313,-0.053326340153294405,-0.1,1.0,0.0,330.0,763.0,1.0,1,1727.0,0
1314,1314,0.21696787407168017,0.2,1.0,1.0,487.0,855.0,1.0,1,88.0,1
1315,1315,0.1217971648867392,0.1,1.0,1.0,446.0,698.0,1.0,1,466.0,1
1316,1316,-0.2483582578263146,-0.2,1.0,0.0,312.0,661.0,0.0,0,357.0,1
1317,1317,-0.4486080755132659,-0.4,1.0,0.0,406.0,833.0,0.0,0,671.0,1
1318,1318,-0.05585295927539147,-0.1,1.0,0.0,392.0,782.0,1.0,1,616.0,0
1319,1319,0.7633568940874159,0.8,0.0,0.0,478.0,868.0,0.0,1,114.0,1
1320,1320,0.8660951503455506,0.9,0.0,0.0,456.0,618.0,0.0,1,256.0,1
1321,1321,0.2148973515579261,0.2,1.0,1.0,280.0,878.0,1.0,1,252.0,1
1322,1322,-0.30388535510147086,-0.3,1.0,0.0,270.0,817.0,0.0,0,493.0,1
1323,1323,0.31942962717563106,0.3,0.0,0.0,324.0,825.0,0.0,1,221.0,1
1324,1324,0.8501146907622702,0.9,0.0,0.0,410.0,776.0,0.0,1,404.0,1
1325,1325,0.6913434343170909,0.7,0.0,0.0,362.0,713.0,0.0,1,225.0,1
1326,1326,-0.21960834276321528,-0.2,0.0,1.0,458.0,882.0,1.0,0,400.0,1
1327,1327,0.3488404518901108,0.3,1.0,1.0,323.0,677.0,1.0,1,400.0,1
1328,1328,0.40860220971412076,0.4,1.0,1.0,380.0,876.0,1.0,1,154.0,1
1329,1329,-0.24486898985188055,-0.2,1.0,0.0,330.0,548.0,0.0,0,442.0,1
1330,1330,-0.10373492747938262,-0.1,1.0,0.0,441.0,626.0,1.0,1,1083.0,0
1331,1331,0.8210167257644926,0.8,1.0,1.0,316.0,942.0,1.0,1,92.0,1
1332,1332,0.40759544180878404,0.4,0.0,0.0,494.0,864.0,0.0,1,132.0,1
1333,1333,-0.2542376113173507,-0.3,1.0,0.0,423.0,649.0,0.0,0,958.0,1
1334,1334,-0.3692435206313198,-0.4,0.0,1.0,412.0,892.0,1.0,0,416.0,1
1335,1335,-0.6324272118004612,-0.6,0.0,1.0,250.0,670.0,1.0,0,240.0,1
1336,1336,0.7520391666787137,0.8,0.0,0.0,282.0,602.0,0.0,1,786.0,1
1337,1337,0.14803754593369367,0.1,1.0,1.0,317.0,808.0,1.0,1,1015.0,1
1338,1338,0.7364532552104158,0.7,0.0,0.0,297.0,597.0,0.0,1,666.0,1
1339,1339,0.4048329694695386,0.4,1.0,1.0,320.0,856.0,1.0,1,194.0,1
1340,1340,-0.2378060546501819,-0.2,1.0,0.0,317.0,844.0,0.0,0,379.0,1
1341,1341,0.8045503198388514,0.8,0.0,0.0,438.0,674.0,0.0,1,148.0,1
1342,1342,0.3411033450738531,0.3,0.0,0.0,430.0,642.0,0.0,1,248.0,1
1343,1343,-0.10319555338454034,-0.1,1.0,0.0,343.0,588.0,1.0,1,859.0,0
1344,1344,-0.3213487697422228,-0.3,0.0,1.0,323.0,888.0,1.0,0,249.0,1
1345,1345,0.1514161552029446,0.2,0.0,0.0,253.0,778.0,0.0,1,2259.0,1
1346,1346,0.11232162875847307,0.1,0.0,0.0,350.0,574.0,1.0,0,576.0,0
1347,1347,0.571024178255625,0.6,1.0,1.0,427.0,592.0,1.0,1,641.0,1
1348,1348,-0.372874771749525,-0.4,1.0,0.0,345.0,874.0,0.0,0,231.0,1
1349,1349,0.42274178923731676,0.4,1.0,1.0,410.0,532.0,1.0,1,278.0,1
1350,1350,0.7483258716677291,0.7,1.0,1.0,300.0,964.0,1.0,1,146.0,1
1351,1351,-0.2766907598294499,-0.3,0.0,1.0,420.0,686.0,1.0,0,454.0,1
1352,1352,0.8230267868982056,0.8,0.0,0.0,319.0,753.0,0.0,1,178.0,1
1353,1353,-0.8159174193433579,-0.8,0.0,1.0,451.0,644.0,1.0,0,155.0,1
1354,1354,-0.6054608526006691,-0.6,1.0,0.0,450.0,506.0,0.0,0,294.0,1
1355,1355,-0.8835835887680898,-0.9,1.0,0.0,327.0,811.0,0.0,0,182.0,1
1356,1356,0.0899182806151756,0.1,0.0,0.0,440.0,720.0,0.0,1,650.0,1
1357,1357,0.6343176623565411,0.6,0.0,0.0,432.0,783.0,0.0,1,225.0,1
1358,1358,0.016924014785917096,0.0,0.0,0.0,350.0,859.0,1.0,0,321.0,0
1359,1359,-0.8917735767928991,-0.9,1.0,0.0,359.0,974.0,0.0,0,157.0,1
1360,1360,0.6122127931801026,0.6,1.0,1.0,453.0,533.0,1.0,1,444.0,1
1361,1361,-0.40089367433566636,-0.4,0.0,1.0,291.0,794.0,1.0,0,225.0,1
1362,1362,0.43107491407499887,0.4,0.0,0.0,350.0,825.0,0.0,1,475.0,1
1363,1363,-0.5717740912711259,-0.6,1.0,0.0,380.0,567.0,0.0,0,303.0,1
1364,1364,0.4716974283113008,0.5,1.0,1.0,405.0,996.0,1.0,1,159.0,1
1365,1365,-0.5361827665392447,-0.5,0.0,1.0,329.0,790.0,1.0,0,121.0,1
1366,1366,-0.18216404226501026,-0.2,0.0,1.0,457.0,670.0,1.0,0,753.0,1
1367,1367,-0.5854822891349858,-0.6,0.0,1.0,379.0,602.0,1.0,0,419.0,1
1368,1368,-0.46955132270632105,-0.5,1.0,0.0,498.0,826.0,0.0,0,156.0,1
1369,1369,0.6325669057806395,0.6,1.0,1.0,323.0,933.0,1.0,1,174.0,1
1370,1370,-0.6517472495235298,-0.7,1.0,0.0,426.0,735.0,0.0,0,119.0,1
1371,1371,-0.5108142533948564,-0.5,1.0,0.0,496.0,771.0,0.0,0,523.0,1
1372,1372,-0.7379219680709016,-0.7,1.0,0.0,285.0,784.0,0.0,0,111.0,1
1373,1373,0.3681365138348732,0.4,0.0,0.0,309.0,589.0,0.0,1,262.0,1
1374,1374,-0.22032634362954995,-0.2,1.0,0.0,356.0,879.0,0.0,0,545.0,1
1375,1375,-0.7024720068779737,-0.7,1.0,0.0,342.0,605.0,0.0,0,143.0,1
1376,1376,-0.7570553634818618,-0.8,0.0,1.0,418.0,797.0,1.0,0,255.0,1
1377,1377,0.8401695471478595,0.8,1.0,1.0,430.0,931.0,1.0,1,129.0,1
1378,1378,0.8747162242683085,0.9,1.0,1.0,356.0,554.0,1.0,1,590.0,1
1379,1379,-0.2927220284546219,-0.3,0.0,1.0,405.0,844.0,1.0,0,561.0,1
1380,1380,-0.7173528539136171,-0.7,1.0,0.0,373.0,761.0,0.0,0,306.0,1
1381,1381,-0.34365260169065526,-0.3,1.0,0.0,255.0,950.0,0.0,0,305.0,1
1382,1382,0.3062519399202025,0.3,0.0,0.0,414.0,556.0,0.0,1,760.0,1
1383,1383,-0.4120251977593667,-0.4,0.0,1.0,325.0,709.0,1.0,0,256.0,1
1384,1384,0.6243270581675474,0.6,1.0,1.0,261.0,698.0,1.0,1,311.0,1
1385,1385,-0.3919174734022718,-0.4,0.0,1.0,281.0,707.0,1.0,0,282.0,1
1386,1386,-0.24733635739680437,-0.2,1.0,0.0,490.0,584.0,0.0,0,436.0,1
1387,1387,0.38753609985864956,0.4,1.0,1.0,449.0,638.0,1.0,1,373.0,1
1388,1388,-0.6848103593907868,-0.7,0.0,1.0,266.0,628.0,1.0,0,366.0,1
1389,1389,0.16403326975898758,0.2,1.0,1.0,342.0,949.0,1.0,1,199.0,1
1390,1390,0.6016370163636345,0.6,0.0,0.0,361.0,747.0,0.0,1,172.0,1
1391,1391,-0.6981110327966186,-0.7,0.0,1.0,347.0,826.0,1.0,0,297.0,1
1392,1392,0.016099607041613284,0.0,1.0,1.0,292.0,707.0,1.0,1,1871.0,1
1393,1393,0.2598895310932542,0.3,1.0,1.0,300.0,712.0,1.0,1,328.0,1
1394,1394,0.8291961936843547,0.8,1.0,1.0,397.0,677.0,1.0,1,296.0,1
1395,1395,0.018008984569217845,0.0,1.0,1.0,461.0,721.0,1.0,1,2068.0,1
1396,1396,0.37365616469688867,0.4,1.0,1.0,419.0,797.0,1.0,1,184.0,1
1397,1397,0.8559611258134544,0.9,0.0,0.0,318.0,958.0,0.0,1,174.0,1
1398,1398,0.25681086583801116,0.3,0.0,0.0,441.0,605.0,0.0,1,714.0,1
1399,1399,0.5999492284155125,0.6,0.0,0.0,496.0,584.0,0.0,1,500.0,1
1400,1400,-0.12037992405369358,-0.1,1.0,0.0,298.0,767.0,0.0,0,475.0,1
1401,1401,0.6363545198431061,0.6,0.0,0.0,451.0,656.0,0.0,1,493.0,1
1402,1402,-0.43908158297472094,-0.4,0.0,1.0,263.0,809.0,1.0,0,488.0,1
1403,1403,-0.28141505357792373,-0.3,1.0,0.0,312.0,650.0,0.0,0,338.0,1
1404,1404,0.18521959882003458,0.2,1.0,1.0,273.0,922.0,1.0,1,195.0,1
1405,1405,0.8762215327955142,0.9,0.0,0.0,254.0,547.0,0.0,1,229.0,1
1406,1406,0.7367107935420011,0.7,0.0,0.0,354.0,573.0,0.0,1,233.0,1
1407,1407,0.4092103563455184,0.4,0.0,0.0,269.0,543.0,0.0,1,468.0,1
1408,1408,0.01819706749323069,0.0,1.0,1.0,493.0,918.0,1.0,1,939.0,1
1409,1409,-0.33935746776255704,-0.3,1.0,0.0,270.0,658.0,0.0,0,402.0,1
1410,1410,-0.6216590602235834,-0.6,1.0,0.0,403.0,675.0,0.0,0,322.0,1
1411,1411,0.2876486934686363,0.3,1.0,1.0,429.0,839.0,1.0,1,142.0,1
1412,1412,0.44773351847659415,0.4,1.0,1.0,365.0,808.0,1.0,1,77.0,1
1413,1413,-0.21709073622235242,-0.2,1.0,0.0,339.0,864.0,0.0,0,627.0,1
1414,1414,-0.24247865650411582,-0.2,1.0,0.0,341.0,664.0,0.0,0,1435.0,1
1415,1415,0.20792422531007826,0.2,0.0,0.0,303.0,546.0,0.0,1,1061.0,1
1416,1416,-0.5106852906102766,-0.5,1.0,0.0,461.0,825.0,0.0,0,254.0,1
1417,1417,0.5102045274872812,0.5,1.0,1.0,374.0,809.0,1.0,1,197.0,1
1418,1418,-0.7313318926016635,-0.7,0.0,1.0,373.0,797.0,1.0,0,370.0,1
1419,1419,-0.8621658617443041,-0.9,0.0,1.0,372.0,513.0,1.0,0,485.0,1
1420,1420,0.4913134825535176,0.5,1.0,1.0,282.0,991.0,1.0,1,137.0,1
1421,1421,-0.42542689676557527,-0.4,0.0,1.0,294.0,784.0,1.0,0,632.0,1
1422,1422,-0.49507688459519406,-0.5,0.0,1.0,409.0,852.0,1.0,0,389.0,1
1423,1423,0.36536534489257566,0.4,0.0,0.0,264.0,660.0,0.0,1,456.0,1
1424,1424,-0.3099602639054245,-0.3,1.0,0.0,494.0,565.0,0.0,0,721.0,1
1425,1425,-0.012094205649434198,-0.0,0.0,1.0,467.0,786.0,0.0,1,637.0,0
1426,1426,-0.6430749328529473,-0.6,1.0,0.0,265.0,945.0,0.0,0,210.0,1
1427,1427,0.258611009488631,0.3,0.0,0.0,305.0,623.0,0.0,1,482.0,1
1428,1428,-0.8201801303597854,-0.8,0.0,1.0,333.0,928.0,1.0,0,219.0,1
1429,1429,0.5316091332498772,0.5,1.0,1.0,350.0,621.0,1.0,1,599.0,1
1430,1430,0.8417021471632192,0.8,0.0,0.0,256.0,558.0,0.0,1,146.0,1
1431,1431,0.8658249747938366,0.9,1.0,1.0,437.0,654.0,1.0,1,279.0,1
1432,1432,-0.0805077104861579,-0.1,0.0,1.0,349.0,804.0,1.0,0,217.0,1
1433,1433,0.4104890197292289,0.4,1.0,1.0,260.0,927.0,1.0,1,-97.0,1
1434,1434,0.6555832694693376,0.7,1.0,1.0,403.0,811.0,1.0,1,306.0,1
1435,1435,0.12452159625689718,0.1,0.0,0.0,335.0,852.0,0.0,1,783.0,1
1436,1436,-0.5619626423904227,-0.6,0.0,1.0,285.0,589.0,1.0,0,426.0,1
1437,1437,0.18278796007253006,0.2,0.0,0.0,261.0,676.0,0.0,1,933.0,1
1438,1438,-0.062212352368310464,-0.1,0.0,1.0,420.0,648.0,1.0,0,1092.0,1
1439,1439,-0.736790004641111,-0.7,0.0,1.0,463.0,989.0,1.0,0,258.0,1
1440,1440,0.3108714071005684,0.3,0.0,0.0,469.0,698.0,0.0,1,373.0,1
1441,1441,0.5255569460401998,0.5,0.0,0.0,393.0,884.0,0.0,1,353.0,1
1442,1442,0.2122215096197707,0.2,1.0,1.0,453.0,781.0,1.0,1,306.0,1
1443,1443,-0.8636041324148849,-0.9,1.0,0.0,400.0,802.0,0.0,0,188.0,1
1444,1444,0.24523042372398873,0.2,0.0,0.0,339.0,739.0,0.0,1,312.0,1
1445,1445,0.7262431586209682,0.7,1.0,1.0,279.0,953.0,1.0,1,98.0,1
1446,1446,-0.11824704163493394,-0.1,0.0,1.0,381.0,728.0,1.0,0,661.0,1
1447,1447,-0.14603523351684755,-0.1,0.0,1.0,337.0,855.0,1.0,0,208.0,1
1448,1448,0.7128929411948158,0.7,0.0,0.0,339.0,812.0,0.0,1,249.0,1
1449,1449,-0.8387018594518246,-0.8,1.0,0.0,483.0,603.0,0.0,0,394.0,1
1450,1450,0.6568271541842495,0.7,0.0,0.0,397.0,783.0,0.0,1,240.0,1
1451,1451,-0.46813439993073164,-0.5,0.0,1.0,342.0,781.0,1.0,0,167.0,1
1452,1452,0.008626837958997324,0.0,0.0,0.0,399.0,672.0,0.0,1,1349.0,1
1453,1453,-0.37269768695846506,-0.4,0.0,1.0,438.0,845.0,1.0,0,297.0,1
1454,1454,0.5319995354394492,0.5,0.0,0.0,274.0,948.0,0.0,1,108.0,1
1455,1455,-0.24559797284234453,-0.2,1.0,0.0,472.0,633.0,0.0,0,315.0,1
1456,1456,-0.4048047309691383,-0.4,0.0,1.0,261.0,962.0,1.0,0,237.0,1
1457,1457,-0.7668659037416868,-0.8,0.0,1.0,271.0,950.0,1.0,0,229.0,1
1458,1458,-0.44371045001660575,-0.4,1.0,0.0,272.0,509.0,0.0,0,849.0,1
1459,1459,0.6357168632810436,0.6,1.0,1.0,307.0,875.0,1.0,1,88.0,1
1460,1460,-0.25362626654329556,-0.3,1.0,0.0,276.0,788.0,0.0,0,516.0,1
1461,1461,-0.7004386347381922,-0.7,0.0,1.0,460.0,845.0,1.0,0,185.0,1
1462,1462,0.8107767936936424,0.8,0.0,0.0,258.0,783.0,0.0,1,189.0,1
1463,1463,0.41004812272462743,0.4,1.0,1.0,261.0,913.0,1.0,1,226.0,1
1464,1464,0.8609950165109156,0.9,1.0,1.0,306.0,521.0,1.0,1,233.0,1
1465,1465,0.6349988419022617,0.6,0.0,0.0,342.0,928.0,0.0,1,60.0,1
1466,1466,0.5729939414371071,0.6,1.0,1.0,428.0,872.0,1.0,1,200.0,1
1467,1467,-0.7194732869187503,-0.7,1.0,0.0,324.0,848.0,0.0,0,218.0,1
1468,1468,0.22836694628211862,0.2,0.0,0.0,495.0,904.0,0.0,1,581.0,1
1469,1469,-0.3594380066666595,-0.4,1.0,0.0,327.0,784.0,0.0,0,329.0,1
1470,1470,0.14549734828040328,0.1,1.0,1.0,333.0,870.0,1.0,1,457.0,1
1471,1471,-0.4635204755691979,-0.5,0.0,1.0,295.0,548.0,1.0,0,307.0,1
1472,1472,-0.30991077840711145,-0.3,1.0,0.0,386.0,753.0,0.0,0,221.0,1
1473,1473,-0.5705073740878777,-0.6,0.0,1.0,390.0,945.0,1.0,0,235.0,1
1474,1474,-0.08920092003542213,-0.1,0.0,1.0,346.0,925.0,1.0,0,2459.0,1
1475,1475,-0.2781057487568407,-0.3,1.0,0.0,314.0,892.0,0.0,0,674.0,1
1476,1476,-0.8888665457948534,-0.9,1.0,0.0,310.0,586.0,0.0,0,104.0,1
1477,1477,0.3682567158209161,0.4,0.0,0.0,420.0,987.0,0.0,1,273.0,1
1478,1478,0.3935092504917076,0.4,1.0,1.0,406.0,593.0,1.0,1,341.0,1
1479,1479,0.59950302316741,0.6,1.0,1.0,357.0,845.0,1.0,1,158.0,1
1480,1480,0.8927645369501974,0.9,0.0,0.0,453.0,569.0,0.0,1,598.0,1
1481,1481,0.2602053010223643,0.3,0.0,0.0,286.0,556.0,0.0,1,838.0,1
1482,1482,0.7371616856242621,0.7,0.0,0.0,492.0,579.0,0.0,1,169.0,1
1483,1483,0.5894290745477403,0.6,1.0,1.0,371.0,929.0,1.0,1,0.0,1
1484,1484,0.8253085831266561,0.8,1.0,1.0,380.0,560.0,1.0,1,210.0,1
1485,1485,0.24789387716225153,0.2,0.0,0.0,491.0,671.0,0.0,1,588.0,1
1486,1486,-0.456671625882021,-0.5,0.0,1.0,317.0,650.0,1.0,0,313.0,1
1487,1487,0.401965609882294,0.4,1.0,1.0,429.0,749.0,1.0,1,212.0,1
1488,1488,0.36224039325813673,0.4,1.0,1.0,267.0,939.0,1.0,1,174.0,1
1489,1489,-0.2774658323729502,-0.3,0.0,1.0,333.0,931.0,1.0,0,176.0,1
1490,1490,0.36904188318049436,0.4,1.0,1.0,405.0,656.0,1.0,1,249.0,1
1491,1491,-0.5686789077511429,-0.6,0.0,1.0,330.0,689.0,1.0,0,231.0,1
1492,1492,0.722219780719019,0.7,1.0,1.0,423.0,516.0,1.0,1,311.0,1
1493,1493,0.3176941992930512,0.3,0.0,0.0,266.0,640.0,0.0,1,444.0,1
