,trial,coherence,coherence_bin,green_side,correct_side,target_onset,checker_onset,decision,green_decision,decision_time,correct_decision
0,0,0.04177672704616342,0.0,1.0,1.0,274.0,799.0,0.0,0,247.0,0
1,1,0.2614415891545049,0.3,0.0,0.0,285.0,706.0,0.0,1,899.0,1
2,2,-0.3011194456850401,-0.3,0.0,1.0,488.0,603.0,1.0,0,329.0,1
3,3,-0.2699358627089783,-0.3,0.0,1.0,319.0,782.0,1.0,0,209.0,1
4,4,-0.6707510437753667,-0.7,1.0,0.0,254.0,803.0,0.0,0,573.0,1
5,5,-0.7600703989396951,-0.8,1.0,0.0,368.0,562.0,0.0,0,440.0,1
6,6,0.6755144732909547,0.7,1.0,1.0,444.0,841.0,1.0,1,395.0,1
7,7,-0.7988111800241434,-0.8,1.0,0.0,384.0,677.0,0.0,0,409.0,1
8,8,-0.7982171112340678,-0.8,1.0,0.0,441.0,934.0,0.0,0,225.0,1
9,9,0.20090255491043052,0.2,0.0,0.0,494.0,577.0,1.0,0,479.0,0
10,10,-0.5785343707109772,-0.6,1.0,0.0,489.0,712.0,1.0,1,649.0,0
11,11,-0.5595759245802762,-0.6,1.0,0.0,385.0,881.0,0.0,0,394.0,1
12,12,-0.5580038465651656,-0.6,1.0,0.0,498.0,833.0,0.0,0,2229.0,1
13,13,-0.08090178023188055,-0.1,1.0,0.0,350.0,686.0,1.0,1,624.0,0
14,14,0.8957574711648232,0.9,1.0,1.0,335.0,507.0,1.0,1,478.0,1
15,15,-0.2952879882029307,-0.3,1.0,0.0,297.0,741.0,0.0,0,322.0,1
16,16,-0.5836403728925227,-0.6,0.0,1.0,372.0,986.0,0.0,1,-178.0,0
17,17,0.5857329001344059,0.6,0.0,0.0,431.0,752.0,1.0,0,437.0,0
18,18,-0.4133605240608611,-0.4,0.0,1.0,340.0,805.0,1.0,0,115.0,1
19,19,-0.19198210408691962,-0.2,1.0,0.0,402.0,792.0,1.0,1,286.0,0
20,20,0.8219227531013859,0.8,0.0,0.0,317.0,521.0,0.0,1,802.0,1
21,21,-0.5180281687402333,-0.5,1.0,0.0,256.0,663.0,0.0,0,741.0,1
22,22,-0.5025842490858439,-0.5,0.0,1.0,290.0,988.0,1.0,0,392.0,1
23,23,-0.04332732656471894,-0.0,1.0,0.0,316.0,841.0,1.0,1,1043.0,0
24,24,0.07248786522306183,0.1,0.0,0.0,279.0,568.0,1.0,0,653.0,0
25,25,-0.1568007951799365,-0.2,0.0,1.0,257.0,517.0,1.0,0,496.0,1
26,26,-0.3871843110925295,-0.4,0.0,1.0,343.0,890.0,0.0,1,197.0,0
27,27,0.24149615903067467,0.2,1.0,1.0,463.0,643.0,1.0,1,724.0,1
28,28,-0.5460609963158869,-0.5,1.0,0.0,419.0,604.0,0.0,0,557.0,1
29,29,0.09464222687283441,0.1,1.0,1.0,470.0,509.0,1.0,1,2031.0,1
30,30,-0.11286913560317835,-0.1,0.0,1.0,320.0,546.0,1.0,0,814.0,1
31,31,-0.33691415144674686,-0.3,1.0,0.0,320.0,719.0,0.0,0,951.0,1
32,32,-0.618630779705935,-0.6,1.0,0.0,341.0,653.0,0.0,0,306.0,1
33,33,0.05018750303952746,0.1,1.0,1.0,360.0,756.0,1.0,1,684.0,1
34,34,-0.5121177424231612,-0.5,1.0,0.0,362.0,798.0,0.0,0,360.0,1
35,35,0.1966205755277607,0.2,0.0,0.0,347.0,720.0,0.0,1,443.0,1
36,36,-0.36621435464595187,-0.4,0.0,1.0,410.0,593.0,1.0,0,557.0,1
37,37,0.4282653763543177,0.4,0.0,0.0,429.0,541.0,0.0,1,740.0,1
38,38,-0.7675356430466213,-0.8,1.0,0.0,317.0,853.0,0.0,0,460.0,1
39,39,0.0844372353681806,0.1,0.0,0.0,492.0,620.0,1.0,0,518.0,0
40,40,0.48276229078703137,0.5,0.0,0.0,450.0,675.0,1.0,0,345.0,0
41,41,0.04080535209446612,0.0,1.0,1.0,498.0,569.0,1.0,1,243.0,1
42,42,0.7186059702531696,0.7,1.0,1.0,405.0,789.0,1.0,1,226.0,1
43,43,-0.5459246227174401,-0.5,1.0,0.0,261.0,774.0,0.0,0,345.0,1
44,44,-0.24324741981007691,-0.2,0.0,1.0,395.0,874.0,1.0,0,751.0,1
45,45,-0.7120900560556915,-0.7,0.0,1.0,281.0,806.0,1.0,0,133.0,1
46,46,0.16056412274832732,0.2,1.0,1.0,278.0,870.0,1.0,1,762.0,1
47,47,-0.37443244026493505,-0.4,1.0,0.0,408.0,674.0,1.0,1,1048.0,0
48,48,-0.8054690796426761,-0.8,1.0,0.0,425.0,855.0,0.0,0,840.0,1
49,49,0.07293025254551488,0.1,0.0,0.0,316.0,611.0,1.0,0,623.0,0
50,50,0.04269436569497298,0.0,0.0,0.0,362.0,978.0,1.0,0,2600.0,0
51,51,-0.10307594323118874,-0.1,0.0,1.0,396.0,595.0,1.0,0,519.0,1
52,52,0.8464995219417942,0.8,0.0,0.0,459.0,581.0,0.0,1,510.0,1
53,53,0.19938767213555242,0.2,1.0,1.0,361.0,875.0,1.0,1,204.0,1
54,54,0.6392891383221814,0.6,0.0,0.0,427.0,795.0,0.0,1,438.0,1
55,55,-0.2933000079641943,-0.3,0.0,1.0,350.0,748.0,1.0,0,352.0,1
56,56,-0.44517829922225016,-0.4,0.0,1.0,404.0,563.0,1.0,0,1143.0,1
57,57,-0.8949811649360881,-0.9,0.0,1.0,359.0,549.0,1.0,0,552.0,1
58,58,-0.7470609586708403,-0.7,0.0,1.0,252.0,939.0,0.0,1,-61.0,0
59,59,-0.5078377128805078,-0.5,1.0,0.0,346.0,672.0,0.0,0,482.0,1
60,60,-0.7131675760821162,-0.7,1.0,0.0,314.0,656.0,0.0,0,430.0,1
61,61,-0.806698333587685,-0.8,1.0,0.0,392.0,522.0,0.0,0,376.0,1
62,62,-0.5170886719623162,-0.5,1.0,0.0,481.0,572.0,0.0,0,1507.0,1
63,63,0.2061522834251669,0.2,0.0,0.0,388.0,724.0,1.0,0,638.0,0
64,64,0.8372225606533087,0.8,0.0,0.0,448.0,765.0,0.0,1,807.0,1
65,65,0.2609742922243111,0.3,0.0,0.0,457.0,593.0,0.0,1,320.0,1
66,66,0.5162491674380322,0.5,0.0,0.0,441.0,664.0,0.0,1,665.0,1
67,67,-0.4089695217797658,-0.4,1.0,0.0,347.0,846.0,1.0,1,327.0,0
68,68,0.5100370669032365,0.5,0.0,0.0,272.0,893.0,0.0,1,795.0,1
69,69,-0.600647225287622,-0.6,1.0,0.0,413.0,914.0,0.0,0,73.0,1
70,70,0.2906726395927518,0.3,1.0,1.0,487.0,781.0,1.0,1,592.0,1
71,71,0.5672373110699563,0.6,0.0,0.0,336.0,930.0,0.0,1,574.0,1
72,72,0.6624688933062485,0.7,1.0,1.0,378.0,655.0,1.0,1,427.0,1
73,73,0.554330507824201,0.6,1.0,1.0,273.0,825.0,1.0,1,802.0,1
74,74,0.3161582817361025,0.3,1.0,1.0,298.0,998.0,1.0,1,134.0,1
75,75,0.7222322614418092,0.7,0.0,0.0,278.0,934.0,0.0,1,508.0,1
76,76,-0.3541816069600454,-0.4,1.0,0.0,304.0,691.0,1.0,1,2695.0,0
77,77,-0.30960650472341156,-0.3,1.0,0.0,456.0,502.0,0.0,0,742.0,1
78,78,0.05179538813792339,0.1,1.0,1.0,473.0,970.0,0.0,0,37.0,0
79,79,-0.8241863814675039,-0.8,1.0,0.0,399.0,564.0,0.0,0,497.0,1
80,80,0.587666779355064,0.6,1.0,1.0,262.0,968.0,1.0,1,50.0,1
81,81,0.5974229608080798,0.6,0.0,0.0,254.0,577.0,0.0,1,819.0,1
82,82,0.5628213639425198,0.6,0.0,0.0,404.0,895.0,0.0,1,281.0,1
83,83,0.6470037415596422,0.6,1.0,1.0,437.0,733.0,1.0,1,270.0,1
84,84,-0.5265916151571416,-0.5,0.0,1.0,390.0,798.0,1.0,0,252.0,1
85,85,0.06703936103030494,0.1,0.0,0.0,455.0,642.0,1.0,0,893.0,0
86,86,-0.8821780774082462,-0.9,1.0,0.0,366.0,785.0,0.0,0,199.0,1
87,87,0.11041410036501953,0.1,1.0,1.0,276.0,914.0,1.0,1,430.0,1
88,88,0.2621122637809653,0.3,1.0,1.0,481.0,539.0,1.0,1,430.0,1
89,89,0.7858404234022037,0.8,1.0,1.0,435.0,787.0,1.0,1,238.0,1
90,90,0.5327572967957953,0.5,0.0,0.0,324.0,933.0,0.0,1,333.0,1
91,91,-0.14135972212364567,-0.1,0.0,1.0,420.0,764.0,1.0,0,526.0,1
92,92,0.7613865992274996,0.8,1.0,1.0,411.0,844.0,1.0,1,295.0,1
93,93,0.3586242269963472,0.4,1.0,1.0,434.0,703.0,1.0,1,173.0,1
94,94,0.6882724421876821,0.7,1.0,1.0,353.0,761.0,1.0,1,326.0,1
95,95,0.11550970180350906,0.1,0.0,0.0,393.0,548.0,0.0,1,399.0,1
96,96,0.6228071207421527,0.6,1.0,1.0,402.0,724.0,1.0,1,194.0,1
97,97,0.1699283529960286,0.2,1.0,1.0,420.0,668.0,1.0,1,822.0,1
98,98,0.5433331238109701,0.5,1.0,1.0,307.0,878.0,1.0,1,315.0,1
99,99,0.6485601468109977,0.6,1.0,1.0,413.0,649.0,1.0,1,298.0,1
100,100,0.7442758367044672,0.7,0.0,0.0,338.0,678.0,0.0,1,344.0,1
101,101,-0.2586654168023691,-0.3,0.0,1.0,432.0,909.0,1.0,0,369.0,1
102,102,0.1873550215526597,0.2,1.0,1.0,366.0,631.0,1.0,1,373.0,1
103,103,0.6137883774395029,0.6,1.0,1.0,446.0,517.0,1.0,1,707.0,1
104,104,-0.17460139531388164,-0.2,0.0,1.0,265.0,840.0,1.0,0,155.0,1
105,105,0.3382487261632324,0.3,0.0,0.0,495.0,776.0,0.0,1,539.0,1
106,106,-0.044654724324180606,-0.0,1.0,0.0,423.0,705.0,1.0,1,1422.0,0
107,107,0.022228141070624763,0.0,0.0,0.0,479.0,939.0,0.0,1,592.0,1
108,108,-0.40396965572006527,-0.4,1.0,0.0,332.0,630.0,0.0,0,608.0,1
109,109,0.43019057482590883,0.4,1.0,1.0,298.0,525.0,1.0,1,437.0,1
110,110,-0.78841620335934,-0.8,0.0,1.0,425.0,886.0,1.0,0,469.0,1
111,111,0.6584771998567237,0.7,0.0,0.0,414.0,915.0,0.0,1,371.0,1
112,112,-0.5163464422078978,-0.5,0.0,1.0,318.0,956.0,1.0,0,596.0,1
113,113,0.2220986015736638,0.2,0.0,0.0,312.0,774.0,0.0,1,174.0,1
114,114,0.7102602895449991,0.7,0.0,0.0,438.0,829.0,0.0,1,443.0,1
115,115,-0.5116678438402935,-0.5,0.0,1.0,496.0,712.0,1.0,0,412.0,1
116,116,-0.6286450566008226,-0.6,0.0,1.0,444.0,553.0,1.0,0,303.0,1
117,117,0.4101147247792126,0.4,0.0,0.0,479.0,880.0,0.0,1,671.0,1
118,118,-0.13949406531877973,-0.1,1.0,0.0,472.0,577.0,0.0,0,441.0,1
119,119,-0.3917031655294907,-0.4,0.0,1.0,447.0,640.0,0.0,1,543.0,0
120,120,-0.8970420121665514,-0.9,1.0,0.0,347.0,510.0,0.0,0,623.0,1
121,121,-0.2422132355440999,-0.2,0.0,1.0,386.0,741.0,1.0,0,313.0,1
122,122,-0.8286316636314173,-0.8,0.0,1.0,272.0,687.0,1.0,0,401.0,1
123,123,-0.8758097013644159,-0.9,1.0,0.0,383.0,819.0,0.0,0,158.0,1
124,124,-0.5009928455932284,-0.5,1.0,0.0,399.0,553.0,0.0,0,828.0,1
125,125,-0.0480941164922839,-0.0,1.0,0.0,440.0,630.0,1.0,1,720.0,0
126,126,0.8228432098558763,0.8,0.0,0.0,473.0,503.0,0.0,1,444.0,1
127,127,-0.18458575165941415,-0.2,1.0,0.0,426.0,767.0,0.0,0,1067.0,1
128,128,-0.6244090974847106,-0.6,0.0,1.0,368.0,687.0,1.0,0,295.0,1
129,129,-0.633927571555545,-0.6,1.0,0.0,412.0,834.0,0.0,0,284.0,1
130,130,0.35747046453062203,0.4,1.0,1.0,460.0,757.0,1.0,1,493.0,1
131,131,0.14861887848976585,0.1,1.0,1.0,348.0,566.0,1.0,1,476.0,1
132,132,0.4878251114199813,0.5,1.0,1.0,265.0,525.0,1.0,1,720.0,1
133,133,-0.35037646865166905,-0.4,1.0,0.0,422.0,612.0,1.0,1,576.0,0
134,134,0.2523277949985193,0.3,0.0,0.0,471.0,817.0,0.0,1,1182.0,1
135,135,0.8826947281448888,0.9,0.0,0.0,492.0,909.0,0.0,1,599.0,1
136,136,-0.06059275472802139,-0.1,1.0,0.0,421.0,699.0,1.0,1,490.0,0
137,137,-0.2959587622123908,-0.3,0.0,1.0,455.0,770.0,1.0,0,2245.0,1
138,138,0.41922993685942955,0.4,1.0,1.0,315.0,945.0,1.0,1,270.0,1
139,139,0.4331824792898612,0.4,1.0,1.0,441.0,773.0,1.0,1,376.0,1
140,140,0.24523249197096575,0.2,1.0,1.0,379.0,831.0,1.0,1,1170.0,1
141,141,-0.14789682220172395,-0.1,1.0,0.0,479.0,577.0,0.0,0,494.0,1
142,142,-0.8297620821310323,-0.8,0.0,1.0,431.0,620.0,1.0,0,359.0,1
143,143,0.873799509973101,0.9,1.0,1.0,284.0,903.0,1.0,1,283.0,1
144,144,-0.1379795118883771,-0.1,1.0,0.0,435.0,748.0,1.0,1,627.0,0
145,145,0.3445984503514764,0.3,1.0,1.0,496.0,970.0,0.0,0,-36.0,0
146,146,-0.5118585554440429,-0.5,1.0,0.0,282.0,793.0,1.0,1,695.0,0
147,147,0.21622577735193194,0.2,0.0,0.0,324.0,502.0,0.0,1,584.0,1
148,148,-0.8574972702277713,-0.9,0.0,1.0,440.0,649.0,1.0,0,371.0,1
149,149,-0.6834032263213602,-0.7,1.0,0.0,259.0,653.0,0.0,0,488.0,1
150,150,0.39438940256770494,0.4,0.0,0.0,361.0,609.0,0.0,1,600.0,1
151,151,0.3866786038090536,0.4,0.0,0.0,267.0,746.0,0.0,1,737.0,1
152,152,-0.2691298333822689,-0.3,0.0,1.0,467.0,574.0,1.0,0,509.0,1
153,153,-0.7131270786754625,-0.7,0.0,1.0,387.0,590.0,1.0,0,603.0,1
154,154,-0.16121001625727305,-0.2,0.0,1.0,297.0,665.0,1.0,0,258.0,1
155,155,0.2200010312724222,0.2,0.0,0.0,463.0,591.0,0.0,1,266.0,1
156,156,0.4430011453059367,0.4,1.0,1.0,431.0,783.0,1.0,1,106.0,1
157,157,0.15945838903226128,0.2,0.0,0.0,260.0,947.0,0.0,1,643.0,1
158,158,-0.12643653973172164,-0.1,1.0,0.0,368.0,741.0,1.0,1,601.0,0
159,159,0.16256003095073923,0.2,0.0,0.0,361.0,948.0,1.0,0,451.0,0
160,160,-0.4731927882096754,-0.5,0.0,1.0,365.0,941.0,1.0,0,534.0,1
161,161,-0.08660898612383638,-0.1,0.0,1.0,480.0,873.0,1.0,0,277.0,1
162,162,0.35866981399493836,0.4,1.0,1.0,254.0,806.0,1.0,1,490.0,1
163,163,-0.2382032757324013,-0.2,0.0,1.0,383.0,826.0,1.0,0,431.0,1
164,164,0.6420874098593173,0.6,0.0,0.0,253.0,669.0,0.0,1,518.0,1
165,165,-0.12787935385906268,-0.1,1.0,0.0,258.0,790.0,1.0,1,442.0,0
166,166,0.1992864411273355,0.2,1.0,1.0,432.0,564.0,1.0,1,464.0,1
167,167,0.4286129029794289,0.4,0.0,0.0,480.0,774.0,0.0,1,366.0,1
168,168,0.3025103649838258,0.3,1.0,1.0,291.0,643.0,1.0,1,766.0,1
169,169,-0.8343754803962777,-0.8,1.0,0.0,380.0,706.0,0.0,0,374.0,1
170,170,-0.07565503333485746,-0.1,1.0,0.0,406.0,813.0,0.0,0,471.0,1
171,171,0.6806548342094881,0.7,0.0,0.0,312.0,786.0,0.0,1,602.0,1
172,172,-0.33173074200351216,-0.3,0.0,1.0,333.0,933.0,1.0,0,224.0,1
173,173,-0.8779256117859227,-0.9,0.0,1.0,383.0,937.0,1.0,0,80.0,1
174,174,0.06402693287056493,0.1,1.0,1.0,412.0,694.0,1.0,1,1284.0,1
175,175,-0.08386268855821188,-0.1,0.0,1.0,374.0,944.0,1.0,0,-28.0,1
176,176,-0.8604715997825461,-0.9,0.0,1.0,493.0,593.0,1.0,0,384.0,1
177,177,0.44876403949212806,0.4,0.0,0.0,455.0,660.0,0.0,1,1005.0,1
178,178,0.5428549767968281,0.5,0.0,0.0,489.0,695.0,0.0,1,426.0,1
179,179,-0.49368613258565347,-0.5,1.0,0.0,336.0,592.0,0.0,0,2072.0,1
180,180,0.6347806287272882,0.6,0.0,0.0,442.0,737.0,0.0,1,631.0,1
181,181,-0.23127087197779506,-0.2,0.0,1.0,349.0,658.0,1.0,0,1983.0,1
182,182,0.45645691475129213,0.5,0.0,0.0,483.0,615.0,0.0,1,502.0,1
183,183,0.04335243094059926,0.0,0.0,0.0,294.0,765.0,1.0,0,451.0,0
184,184,-0.8722711312420078,-0.9,1.0,0.0,406.0,652.0,0.0,0,332.0,1
185,185,0.14924602456672142,0.1,1.0,1.0,379.0,934.0,1.0,1,667.0,1
186,186,-0.7334844287029282,-0.7,1.0,0.0,310.0,600.0,0.0,0,450.0,1
187,187,-0.20717116891227372,-0.2,0.0,1.0,270.0,858.0,1.0,0,342.0,1
188,188,-0.8409995609747095,-0.8,1.0,0.0,399.0,769.0,0.0,0,272.0,1
189,189,-0.8288367928635806,-0.8,1.0,0.0,358.0,784.0,0.0,0,748.0,1
190,190,0.05044476617737048,0.1,0.0,0.0,400.0,960.0,0.0,1,220.0,1
191,191,-0.5021830751694488,-0.5,0.0,1.0,385.0,671.0,1.0,0,674.0,1
192,192,-0.11171037485661617,-0.1,0.0,1.0,489.0,829.0,1.0,0,222.0,1
193,193,-0.6945546010089618,-0.7,0.0,1.0,493.0,559.0,1.0,0,388.0,1
194,194,-0.8044978445950092,-0.8,0.0,1.0,374.0,616.0,1.0,0,310.0,1
195,195,0.4995088534660931,0.5,1.0,1.0,357.0,797.0,1.0,1,466.0,1
196,196,0.8669271719835595,0.9,0.0,0.0,387.0,608.0,0.0,1,685.0,1
197,197,0.34208792652244735,0.3,1.0,1.0,334.0,914.0,1.0,1,582.0,1
198,198,-0.7197622844811463,-0.7,0.0,1.0,311.0,723.0,1.0,0,316.0,1
199,199,-0.6313027873507029,-0.6,1.0,0.0,268.0,703.0,0.0,0,379.0,1
200,200,0.8301519347264285,0.8,0.0,0.0,271.0,526.0,0.0,1,523.0,1
201,201,0.7415592672604597,0.7,0.0,0.0,277.0,501.0,0.0,1,442.0,1
202,202,0.5486459570392889,0.5,1.0,1.0,388.0,528.0,1.0,1,434.0,1
203,203,-0.32630827702594745,-0.3,0.0,1.0,365.0,502.0,1.0,0,583.0,1
204,204,-0.24572366961574088,-0.2,0.0,1.0,312.0,696.0,1.0,0,382.0,1
205,205,0.719218962117462,0.7,1.0,1.0,440.0,708.0,1.0,1,432.0,1
206,206,-0.08590651506673286,-0.1,0.0,1.0,378.0,829.0,0.0,1,343.0,0
207,207,0.7893752229653698,0.8,0.0,0.0,297.0,569.0,0.0,1,454.0,1
208,208,0.2918813921332687,0.3,1.0,1.0,422.0,789.0,1.0,1,559.0,1
209,209,0.7023163924189803,0.7,0.0,0.0,496.0,697.0,0.0,1,347.0,1
210,210,-0.009588377010598226,-0.0,0.0,1.0,378.0,660.0,0.0,1,1082.0,0
211,211,0.550826788543746,0.6,0.0,0.0,395.0,727.0,0.0,1,358.0,1
212,212,-0.46802319423358457,-0.5,0.0,1.0,486.0,693.0,1.0,0,271.0,1
213,213,0.0018985578896995037,0.0,0.0,0.0,297.0,798.0,0.0,1,825.0,1
214,214,0.4659773992228523,0.5,1.0,1.0,499.0,532.0,1.0,1,549.0,1
215,215,-0.4169227096784655,-0.4,1.0,0.0,402.0,817.0,1.0,1,61.0,0
216,216,0.441872231845852,0.4,1.0,1.0,408.0,975.0,1.0,1,57.0,1
217,217,0.7862263786878979,0.8,1.0,1.0,311.0,740.0,1.0,1,229.0,1
218,218,0.4318704509222452,0.4,1.0,1.0,286.0,755.0,1.0,1,389.0,1
219,219,0.897010913043751,0.9,1.0,1.0,406.0,900.0,1.0,1,184.0,1
220,220,-0.31261587205712493,-0.3,0.0,1.0,351.0,677.0,1.0,0,362.0,1
221,221,0.8218489435882094,0.8,1.0,1.0,321.0,698.0,1.0,1,411.0,1
222,222,0.3151679474960055,0.3,0.0,0.0,436.0,601.0,1.0,0,793.0,0
223,223,-0.6357182121787472,-0.6,0.0,1.0,284.0,790.0,1.0,0,536.0,1
224,224,-0.38602807952302476,-0.4,0.0,1.0,496.0,607.0,1.0,0,717.0,1
225,225,-0.8955668500600577,-0.9,1.0,0.0,487.0,954.0,0.0,0,139.0,1
226,226,0.7053497409957895,0.7,0.0,0.0,436.0,619.0,0.0,1,435.0,1
227,227,-0.5160527241564596,-0.5,0.0,1.0,272.0,813.0,1.0,0,285.0,1
228,228,0.5106172095777702,0.5,0.0,0.0,393.0,811.0,0.0,1,126.0,1
229,229,-0.48977550463876096,-0.5,1.0,0.0,459.0,959.0,0.0,0,52.0,1
230,230,0.31156509124102094,0.3,1.0,1.0,313.0,998.0,1.0,1,9.0,1
231,231,-0.8658515068656282,-0.9,1.0,0.0,389.0,621.0,0.0,0,520.0,1
232,232,-0.060760035032388915,-0.1,1.0,0.0,311.0,677.0,1.0,1,392.0,0
233,233,-0.10945895971725872,-0.1,1.0,0.0,436.0,640.0,0.0,0,824.0,1
234,234,-0.49898332157742187,-0.5,1.0,0.0,492.0,802.0,0.0,0,716.0,1
235,235,-0.21125053444299313,-0.2,0.0,1.0,353.0,880.0,1.0,0,267.0,1
236,236,0.4079164150386464,0.4,0.0,0.0,420.0,603.0,0.0,1,307.0,1
237,237,0.23481755616787414,0.2,1.0,1.0,497.0,847.0,1.0,1,206.0,1
238,238,0.6493817520348791,0.6,1.0,1.0,416.0,984.0,1.0,1,60.0,1
239,239,0.01650126374726202,0.0,1.0,1.0,265.0,844.0,1.0,1,711.0,1
240,240,-0.1710600098998195,-0.2,0.0,1.0,277.0,663.0,1.0,0,1210.0,1
241,241,-0.33214960109894975,-0.3,1.0,0.0,463.0,779.0,1.0,1,348.0,0
242,242,-0.8042230202937607,-0.8,1.0,0.0,428.0,627.0,0.0,0,375.0,1
243,243,0.25635784240776094,0.3,0.0,0.0,297.0,722.0,0.0,1,581.0,1
244,244,-0.23579635956706013,-0.2,1.0,0.0,321.0,661.0,0.0,0,298.0,1
245,245,-0.7369036422564391,-0.7,0.0,1.0,422.0,995.0,1.0,0,453.0,1
246,246,0.8216844056164397,0.8,0.0,0.0,339.0,515.0,0.0,1,426.0,1
247,247,0.8926816267355114,0.9,1.0,1.0,323.0,793.0,1.0,1,224.0,1
248,248,-0.5859704384644296,-0.6,0.0,1.0,493.0,642.0,1.0,0,515.0,1
249,249,-0.22906319503161832,-0.2,1.0,0.0,277.0,500.0,1.0,1,1433.0,0
250,250,-0.7889193680454305,-0.8,0.0,1.0,281.0,673.0,1.0,0,716.0,1
251,251,-0.8166215182030169,-0.8,1.0,0.0,355.0,865.0,0.0,0,300.0,1
252,252,0.10594050857488424,0.1,0.0,0.0,362.0,733.0,0.0,1,355.0,1
253,253,0.7745737653739201,0.8,1.0,1.0,389.0,931.0,1.0,1,940.0,1
254,254,0.31424265964855513,0.3,0.0,0.0,483.0,713.0,0.0,1,294.0,1
255,255,0.33466265299822784,0.3,0.0,0.0,445.0,670.0,0.0,1,1205.0,1
256,256,0.4481535416496464,0.4,0.0,0.0,365.0,966.0,0.0,1,189.0,1
257,257,0.012694383507341533,0.0,1.0,1.0,273.0,853.0,1.0,1,494.0,1
258,258,0.8981195456057528,0.9,1.0,1.0,475.0,717.0,1.0,1,178.0,1
259,259,-0.6215207995753829,-0.6,1.0,0.0,258.0,759.0,0.0,0,463.0,1
260,260,-0.6643818650258215,-0.7,1.0,0.0,476.0,746.0,0.0,0,318.0,1
261,261,0.6685646660339998,0.7,0.0,0.0,429.0,612.0,0.0,1,359.0,1
262,262,-0.7320690495549901,-0.7,0.0,1.0,386.0,612.0,1.0,0,552.0,1
263,263,0.5779075387045897,0.6,0.0,0.0,288.0,828.0,0.0,1,194.0,1
264,264,-0.1680199403341316,-0.2,1.0,0.0,305.0,954.0,1.0,1,331.0,0
265,265,-0.08727683984317247,-0.1,1.0,0.0,318.0,909.0,0.0,0,863.0,1
266,266,0.8292683623662066,0.8,1.0,1.0,465.0,915.0,1.0,1,10.0,1
267,267,0.6607500611201896,0.7,1.0,1.0,460.0,535.0,1.0,1,485.0,1
268,268,-0.830917790540822,-0.8,1.0,0.0,330.0,605.0,0.0,0,435.0,1
269,269,0.5378338510767652,0.5,0.0,0.0,315.0,927.0,0.0,1,548.0,1
270,270,0.14940887094350452,0.1,0.0,0.0,425.0,698.0,0.0,1,687.0,1
271,271,-0.4085564136193005,-0.4,0.0,1.0,288.0,998.0,1.0,0,434.0,1
272,272,-0.7621258436819726,-0.8,1.0,0.0,397.0,550.0,0.0,0,383.0,1
273,273,-0.46665634324546507,-0.5,1.0,0.0,275.0,806.0,0.0,0,499.0,1
274,274,0.7528370162411638,0.8,1.0,1.0,287.0,831.0,1.0,1,332.0,1
275,275,0.567056407358484,0.6,1.0,1.0,408.0,969.0,0.0,0,-17.0,0
276,276,-0.11948815961860915,-0.1,1.0,0.0,390.0,595.0,1.0,1,1635.0,0
277,277,0.7119984694563609,0.7,0.0,0.0,474.0,637.0,0.0,1,639.0,1
278,278,-0.10024136729550526,-0.1,1.0,0.0,485.0,565.0,0.0,0,620.0,1
279,279,0.1495749006923347,0.1,1.0,1.0,434.0,560.0,1.0,1,1036.0,1
280,280,0.8156548224806265,0.8,0.0,0.0,383.0,577.0,0.0,1,310.0,1
281,281,0.23619533408301197,0.2,1.0,1.0,408.0,572.0,1.0,1,680.0,1
282,282,0.23306157743739242,0.2,0.0,0.0,424.0,726.0,1.0,0,720.0,0
283,283,-0.09548336101943455,-0.1,1.0,0.0,272.0,708.0,1.0,1,200.0,0
284,284,-0.8498538411973988,-0.8,1.0,0.0,337.0,754.0,0.0,0,509.0,1
285,285,-0.6434772751800785,-0.6,1.0,0.0,300.0,768.0,0.0,0,122.0,1
286,286,0.2729030128009938,0.3,0.0,0.0,456.0,630.0,0.0,1,444.0,1
287,287,0.795422017211138,0.8,0.0,0.0,265.0,700.0,0.0,1,315.0,1
288,288,-0.15230391804421917,-0.2,1.0,0.0,320.0,778.0,0.0,0,552.0,1
289,289,-0.6562891284964083,-0.7,0.0,1.0,262.0,933.0,1.0,0,185.0,1
290,290,0.25574368170563566,0.3,0.0,0.0,414.0,788.0,1.0,0,308.0,0
291,291,-0.8705413503833512,-0.9,1.0,0.0,407.0,565.0,0.0,0,588.0,1
292,292,0.5407115631919749,0.5,1.0,1.0,479.0,850.0,1.0,1,101.0,1
293,293,-0.8127562525549288,-0.8,0.0,1.0,369.0,959.0,1.0,0,472.0,1
294,294,-0.8188227538589059,-0.8,0.0,1.0,420.0,676.0,1.0,0,254.0,1
295,295,-0.32027805291804123,-0.3,1.0,0.0,361.0,679.0,0.0,0,630.0,1
296,296,-0.2751098118896482,-0.3,0.0,1.0,468.0,623.0,1.0,0,259.0,1
297,297,0.3405803031600688,0.3,0.0,0.0,281.0,509.0,0.0,1,930.0,1
298,298,-0.19467580421325936,-0.2,0.0,1.0,350.0,626.0,1.0,0,1974.0,1
299,299,0.16873599089800428,0.2,0.0,0.0,259.0,921.0,0.0,1,660.0,1
300,300,-0.1846845495652758,-0.2,1.0,0.0,300.0,861.0,1.0,1,459.0,0
301,301,0.36631165681799527,0.4,0.0,0.0,301.0,590.0,0.0,1,1359.0,1
302,302,0.08209526093855157,0.1,1.0,1.0,382.0,928.0,1.0,1,990.0,1
303,303,0.4728588710535423,0.5,1.0,1.0,484.0,752.0,1.0,1,264.0,1
304,304,-0.6637511345088427,-0.7,1.0,0.0,267.0,859.0,0.0,0,274.0,1
305,305,-0.2558930358371002,-0.3,1.0,0.0,414.0,997.0,1.0,1,459.0,0
306,306,0.7430952736560718,0.7,0.0,0.0,298.0,792.0,0.0,1,440.0,1
307,307,-0.035211499608025054,-0.0,0.0,1.0,388.0,550.0,0.0,1,632.0,0
308,308,0.6823183648889132,0.7,0.0,0.0,258.0,967.0,0.0,1,265.0,1
309,309,0.053450631537772075,0.1,1.0,1.0,419.0,603.0,1.0,1,1078.0,1
310,310,-0.17479439859508195,-0.2,0.0,1.0,461.0,600.0,1.0,0,1209.0,1
311,311,-0.38189912667256753,-0.4,1.0,0.0,409.0,983.0,0.0,0,1018.0,1
312,312,-0.8945233397492662,-0.9,1.0,0.0,314.0,832.0,0.0,0,454.0,1
313,313,-0.5396914500346128,-0.5,0.0,1.0,279.0,630.0,1.0,0,561.0,1
314,314,0.5046201488630994,0.5,1.0,1.0,499.0,948.0,1.0,1,213.0,1
315,315,-0.13869831057466753,-0.1,1.0,0.0,439.0,649.0,0.0,0,962.0,1
316,316,0.7546422855940457,0.8,0.0,0.0,281.0,847.0,0.0,1,792.0,1
317,317,-0.5630453845253849,-0.6,1.0,0.0,318.0,660.0,0.0,0,1262.0,1
318,318,-0.7058003292786886,-0.7,0.0,1.0,300.0,626.0,1.0,0,424.0,1
319,319,0.48683291928047845,0.5,1.0,1.0,439.0,708.0,1.0,1,413.0,1
320,320,-0.36036519792556043,-0.4,0.0,1.0,300.0,545.0,1.0,0,675.0,1
321,321,0.4308241542760175,0.4,0.0,0.0,265.0,640.0,0.0,1,335.0,1
322,322,0.08575926017918767,0.1,0.0,0.0,282.0,532.0,0.0,1,1266.0,1
323,323,0.8323447073787246,0.8,0.0,0.0,348.0,771.0,0.0,1,531.0,1
324,324,-0.40961393858785783,-0.4,1.0,0.0,432.0,584.0,0.0,0,404.0,1
325,325,0.33823837609581064,0.3,0.0,0.0,403.0,711.0,0.0,1,1176.0,1
326,326,0.7724506316848653,0.8,0.0,0.0,356.0,836.0,0.0,1,248.0,1
327,327,-0.34562196347657814,-0.3,1.0,0.0,371.0,914.0,1.0,1,45.0,0
328,328,-0.7441298690741222,-0.7,1.0,0.0,361.0,937.0,0.0,0,-88.0,1
329,329,0.4620850984642869,0.5,0.0,0.0,497.0,614.0,0.0,1,889.0,1
330,330,-0.7498736398181046,-0.7,0.0,1.0,470.0,633.0,1.0,0,787.0,1
331,331,-0.47549239883290323,-0.5,0.0,1.0,426.0,635.0,1.0,0,609.0,1
332,332,0.8974359130992543,0.9,0.0,0.0,271.0,539.0,0.0,1,460.0,1
333,333,0.4842783622602921,0.5,1.0,1.0,390.0,708.0,1.0,1,502.0,1
334,334,-0.7893980928116642,-0.8,1.0,0.0,279.0,877.0,0.0,0,874.0,1
335,335,-0.1581341979584182,-0.2,1.0,0.0,393.0,717.0,0.0,0,1280.0,1
336,336,0.19665193930975844,0.2,1.0,1.0,399.0,741.0,1.0,1,510.0,1
337,337,-0.10229732760550059,-0.1,1.0,0.0,399.0,833.0,1.0,1,528.0,0
338,338,-0.2253458142113356,-0.2,0.0,1.0,282.0,565.0,1.0,0,363.0,1
339,339,0.03210975608214717,0.0,1.0,1.0,485.0,641.0,1.0,1,514.0,1
340,340,-0.5704308382322083,-0.6,1.0,0.0,400.0,563.0,0.0,0,2087.0,1
341,341,0.4114828326216985,0.4,0.0,0.0,392.0,997.0,0.0,1,81.0,1
342,342,-0.1501118078935516,-0.2,1.0,0.0,274.0,781.0,0.0,0,655.0,1
343,343,-0.4811284148375822,-0.5,1.0,0.0,295.0,939.0,0.0,0,246.0,1
344,344,0.44685791270535036,0.4,1.0,1.0,471.0,960.0,1.0,1,169.0,1
345,345,-0.05337947996735759,-0.1,1.0,0.0,309.0,764.0,1.0,1,1057.0,0
346,346,0.8289610130643005,0.8,1.0,1.0,377.0,629.0,1.0,1,504.0,1
347,347,-0.6575581038419375,-0.7,0.0,1.0,491.0,894.0,1.0,0,265.0,1
348,348,0.4609012088020602,0.5,1.0,1.0,492.0,894.0,1.0,1,44.0,1
349,349,-0.07192072459755028,-0.1,0.0,1.0,318.0,746.0,1.0,0,506.0,1
350,350,0.4863263916735042,0.5,0.0,0.0,354.0,554.0,0.0,1,992.0,1
351,351,-0.8712247505307953,-0.9,1.0,0.0,298.0,562.0,0.0,0,360.0,1
352,352,-0.47803296445461035,-0.5,1.0,0.0,377.0,662.0,0.0,0,751.0,1
353,353,-0.36717638056020374,-0.4,1.0,0.0,334.0,747.0,0.0,0,679.0,1
354,354,0.14787835238661085,0.1,1.0,1.0,382.0,998.0,0.0,0,-80.0,0
355,355,0.2605304464530095,0.3,0.0,0.0,326.0,972.0,0.0,1,182.0,1
356,356,0.7049000701153169,0.7,1.0,1.0,469.0,545.0,1.0,1,306.0,1
357,357,-0.37900766010941045,-0.4,1.0,0.0,379.0,805.0,1.0,1,336.0,0
358,358,-0.7200567956954556,-0.7,0.0,1.0,488.0,897.0,1.0,0,65.0,1
359,359,0.09967148795023295,0.1,0.0,0.0,395.0,706.0,0.0,1,529.0,1
360,360,0.4695050732229821,0.5,1.0,1.0,333.0,780.0,1.0,1,197.0,1
361,361,0.6501289015492285,0.7,0.0,0.0,301.0,748.0,0.0,1,351.0,1
362,362,-0.6357640304292422,-0.6,1.0,0.0,251.0,849.0,0.0,0,210.0,1
363,363,-0.5154137603555335,-0.5,0.0,1.0,387.0,634.0,1.0,0,459.0,1
364,364,0.6649361182060655,0.7,1.0,1.0,490.0,769.0,1.0,1,361.0,1
365,365,0.7211542928987767,0.7,1.0,1.0,414.0,659.0,1.0,1,287.0,1
366,366,-0.8406577756163707,-0.8,1.0,0.0,294.0,877.0,1.0,1,299.0,0
367,367,0.219075769413274,0.2,0.0,0.0,474.0,686.0,0.0,1,570.0,1
368,368,0.37737136586363207,0.4,0.0,0.0,386.0,748.0,0.0,1,406.0,1
369,369,-0.6894619200246477,-0.7,1.0,0.0,350.0,934.0,0.0,0,826.0,1
370,370,0.40002726461784366,0.4,1.0,1.0,353.0,884.0,1.0,1,373.0,1
371,371,-0.28984433894605055,-0.3,0.0,1.0,265.0,624.0,1.0,0,551.0,1
372,372,-0.5014672512038398,-0.5,0.0,1.0,355.0,898.0,1.0,0,77.0,1
373,373,-0.7723441676425487,-0.8,1.0,0.0,304.0,510.0,0.0,0,516.0,1
374,374,0.630574840539755,0.6,0.0,0.0,457.0,532.0,0.0,1,571.0,1
375,375,0.8928733294873464,0.9,1.0,1.0,464.0,588.0,1.0,1,638.0,1
376,376,-0.8270703898216454,-0.8,0.0,1.0,399.0,623.0,1.0,0,428.0,1
377,377,-0.5538309540640236,-0.6,0.0,1.0,321.0,699.0,1.0,0,400.0,1
378,378,0.37537367560490165,0.4,1.0,1.0,276.0,862.0,1.0,1,182.0,1
379,379,-0.49137439778437914,-0.5,1.0,0.0,407.0,780.0,0.0,0,363.0,1
380,380,-0.5859211604006789,-0.6,0.0,1.0,270.0,747.0,1.0,0,233.0,1
381,381,-0.3289110591487516,-0.3,1.0,0.0,380.0,838.0,0.0,0,712.0,1
382,382,-0.8267014051480169,-0.8,1.0,0.0,322.0,707.0,0.0,0,281.0,1
383,383,0.1817648608014949,0.2,1.0,1.0,424.0,822.0,1.0,1,264.0,1
384,384,-0.6367088904586282,-0.6,0.0,1.0,292.0,518.0,1.0,0,470.0,1
385,385,-0.5434305612295223,-0.5,1.0,0.0,322.0,785.0,0.0,0,1433.0,1
386,386,0.010519597487810173,0.0,1.0,1.0,496.0,780.0,1.0,1,244.0,1
387,387,-0.2945828983365314,-0.3,1.0,0.0,316.0,764.0,0.0,0,440.0,1
388,388,-0.5216736825615984,-0.5,1.0,0.0,369.0,812.0,1.0,1,719.0,0
389,389,-0.22595503487675417,-0.2,0.0,1.0,282.0,999.0,1.0,0,-81.0,1
390,390,0.5338379211238212,0.5,0.0,0.0,497.0,568.0,0.0,1,815.0,1
391,391,-0.7688562972062304,-0.8,1.0,0.0,368.0,918.0,0.0,0,264.0,1
392,392,-0.46636417072245845,-0.5,0.0,1.0,299.0,654.0,1.0,0,297.0,1
393,393,0.2532842146215576,0.3,0.0,0.0,297.0,559.0,0.0,1,644.0,1
394,394,-0.3574124892461581,-0.4,0.0,1.0,378.0,743.0,1.0,0,599.0,1
395,395,-0.6773268540516075,-0.7,1.0,0.0,437.0,821.0,0.0,0,142.0,1
396,396,-0.06385255568868486,-0.1,1.0,0.0,410.0,933.0,0.0,0,117.0,1
397,397,0.548571943742055,0.5,0.0,0.0,456.0,820.0,0.0,1,94.0,1
398,398,-0.1515133136390555,-0.2,1.0,0.0,384.0,584.0,1.0,1,1002.0,0
399,399,0.821732879623236,0.8,1.0,1.0,316.0,767.0,1.0,1,477.0,1
400,400,0.8130682706457529,0.8,1.0,1.0,426.0,669.0,1.0,1,175.0,1
401,401,0.38113269700271524,0.4,0.0,0.0,482.0,841.0,0.0,1,337.0,1
402,402,0.6891962431341395,0.7,1.0,1.0,491.0,615.0,1.0,1,284.0,1
403,403,0.5956878445211188,0.6,0.0,0.0,452.0,708.0,0.0,1,440.0,1
404,404,-0.2716646599686625,-0.3,1.0,0.0,465.0,828.0,1.0,1,107.0,0
405,405,0.7070499810189713,0.7,1.0,1.0,427.0,621.0,1.0,1,422.0,1
406,406,0.8832349115109431,0.9,0.0,0.0,471.0,939.0,0.0,1,180.0,1
407,407,0.3353093716432346,0.3,0.0,0.0,406.0,707.0,0.0,1,1077.0,1
408,408,-0.73748577051325,-0.7,1.0,0.0,397.0,660.0,0.0,0,303.0,1
409,409,-0.2272615814031015,-0.2,1.0,0.0,388.0,940.0,0.0,0,402.0,1
410,410,-0.17159531218753243,-0.2,1.0,0.0,390.0,612.0,0.0,0,1738.0,1
411,411,-0.15815180854121724,-0.2,0.0,1.0,337.0,764.0,1.0,0,499.0,1
412,412,0.12786214096557125,0.1,0.0,0.0,329.0,802.0,0.0,1,709.0,1
413,413,0.72192989912274,0.7,0.0,0.0,363.0,667.0,0.0,1,440.0,1
414,414,0.19376129060557223,0.2,1.0,1.0,266.0,952.0,1.0,1,542.0,1
415,415,0.024027202959839622,0.0,0.0,0.0,453.0,606.0,1.0,0,571.0,0
416,416,0.012664224481441444,0.0,1.0,1.0,416.0,877.0,0.0,0,327.0,0
417,417,0.6689131691612987,0.7,1.0,1.0,443.0,960.0,1.0,1,187.0,1
418,418,0.5481515876584239,0.5,1.0,1.0,341.0,995.0,1.0,1,354.0,1
419,419,-0.7000778414194625,-0.7,1.0,0.0,462.0,573.0,0.0,0,375.0,1
420,420,-0.02978880365385761,-0.0,0.0,1.0,415.0,601.0,1.0,0,864.0,1
421,421,0.35333566033954533,0.4,0.0,0.0,297.0,840.0,0.0,1,253.0,1
422,422,0.19747994364821675,0.2,0.0,0.0,389.0,514.0,1.0,0,607.0,0
423,423,0.5243840671446834,0.5,0.0,0.0,449.0,908.0,0.0,1,213.0,1
424,424,-0.11187399187022984,-0.1,0.0,1.0,310.0,981.0,1.0,0,1589.0,1
425,425,-0.8861702463639531,-0.9,0.0,1.0,304.0,586.0,1.0,0,360.0,1
426,426,0.4348867989973434,0.4,0.0,0.0,272.0,998.0,0.0,1,210.0,1
427,427,-0.6173162396812191,-0.6,0.0,1.0,435.0,708.0,1.0,0,527.0,1
428,428,-0.6788247978482426,-0.7,0.0,1.0,312.0,768.0,1.0,0,620.0,1
429,429,-0.47288623407661795,-0.5,0.0,1.0,309.0,815.0,1.0,0,236.0,1
430,430,-0.8783999906185753,-0.9,1.0,0.0,382.0,597.0,0.0,0,341.0,1
431,431,-0.30736139946760677,-0.3,0.0,1.0,342.0,570.0,1.0,0,678.0,1
432,432,-0.8816739380240792,-0.9,1.0,0.0,375.0,656.0,0.0,0,579.0,1
433,433,-0.019277430754146896,-0.0,0.0,1.0,419.0,663.0,1.0,0,788.0,1
434,434,-0.5883285790904869,-0.6,0.0,1.0,310.0,966.0,1.0,0,474.0,1
435,435,-0.4217641266921551,-0.4,1.0,0.0,328.0,806.0,0.0,0,246.0,1
436,436,-0.24643645316107843,-0.2,1.0,0.0,426.0,503.0,0.0,0,1091.0,1
437,437,0.8400816895445596,0.8,1.0,1.0,401.0,749.0,1.0,1,290.0,1
438,438,-0.6704153804239353,-0.7,1.0,0.0,457.0,764.0,0.0,0,379.0,1
439,439,0.414429333597116,0.4,1.0,1.0,420.0,759.0,1.0,1,671.0,1
440,440,-0.7028303637032354,-0.7,0.0,1.0,439.0,888.0,1.0,0,143.0,1
441,441,-0.7074986036939037,-0.7,0.0,1.0,367.0,578.0,1.0,0,555.0,1
442,442,0.4147179670606117,0.4,0.0,0.0,303.0,854.0,1.0,0,773.0,0
443,443,0.8093783926900305,0.8,1.0,1.0,396.0,706.0,1.0,1,318.0,1
444,444,0.3316753541225238,0.3,0.0,0.0,314.0,914.0,0.0,1,1632.0,1
445,445,0.67915575318548,0.7,1.0,1.0,297.0,956.0,1.0,1,127.0,1
446,446,0.5167713290797588,0.5,1.0,1.0,305.0,799.0,1.0,1,306.0,1
447,447,-0.6787001956688556,-0.7,1.0,0.0,288.0,560.0,0.0,0,442.0,1
448,448,0.4286976207719816,0.4,1.0,1.0,423.0,502.0,1.0,1,535.0,1
449,449,0.21684465246321205,0.2,1.0,1.0,447.0,932.0,1.0,1,521.0,1
450,450,0.621800213238268,0.6,0.0,0.0,316.0,584.0,0.0,1,480.0,1
451,451,0.3326793615881255,0.3,1.0,1.0,305.0,881.0,1.0,1,1194.0,1
452,452,-0.30231761666796286,-0.3,0.0,1.0,405.0,749.0,1.0,0,716.0,1
453,453,0.42540816697480965,0.4,0.0,0.0,273.0,864.0,0.0,1,273.0,1
454,454,-0.27625722223756266,-0.3,0.0,1.0,413.0,975.0,1.0,0,202.0,1
455,455,-0.2228089924896055,-0.2,0.0,1.0,447.0,643.0,1.0,0,630.0,1
456,456,0.7256623215201413,0.7,1.0,1.0,371.0,580.0,1.0,1,419.0,1
457,457,-0.5524432354546696,-0.6,1.0,0.0,477.0,730.0,0.0,0,233.0,1
458,458,-0.09158632922795795,-0.1,1.0,0.0,471.0,782.0,0.0,0,467.0,1
459,459,0.6342780252892232,0.6,1.0,1.0,470.0,825.0,1.0,1,335.0,1
460,460,0.8902060072086949,0.9,1.0,1.0,407.0,873.0,1.0,1,220.0,1
461,461,-0.01706107559939063,-0.0,0.0,1.0,363.0,864.0,1.0,0,1063.0,1
462,462,-0.4548330365362044,-0.5,0.0,1.0,424.0,733.0,1.0,0,393.0,1
463,463,0.7444032744241776,0.7,0.0,0.0,371.0,850.0,0.0,1,479.0,1
464,464,-0.15433035009865748,-0.2,1.0,0.0,279.0,586.0,1.0,1,2195.0,0
465,465,0.5766495885834838,0.6,0.0,0.0,399.0,705.0,0.0,1,596.0,1
466,466,-0.7930842361780913,-0.8,1.0,0.0,461.0,823.0,0.0,0,446.0,1
467,467,-0.2606105854690095,-0.3,0.0,1.0,429.0,579.0,1.0,0,732.0,1
468,468,-0.5125577392775376,-0.5,1.0,0.0,339.0,708.0,0.0,0,413.0,1
469,469,-0.5926650961787514,-0.6,1.0,0.0,363.0,768.0,0.0,0,339.0,1
470,470,-0.08883484101597727,-0.1,0.0,1.0,325.0,927.0,1.0,0,608.0,1
471,471,0.53558723654078,0.5,1.0,1.0,492.0,948.0,1.0,1,-60.0,1
472,472,0.8205693337169749,0.8,0.0,0.0,496.0,905.0,0.0,1,269.0,1
473,473,0.341814033932731,0.3,1.0,1.0,464.0,526.0,1.0,1,560.0,1
474,474,0.4409029636514855,0.4,1.0,1.0,370.0,820.0,1.0,1,270.0,1
475,475,-0.46583909955531366,-0.5,1.0,0.0,427.0,756.0,0.0,0,377.0,1
476,476,0.20698829342085345,0.2,0.0,0.0,482.0,774.0,0.0,1,644.0,1
477,477,0.20176880974300693,0.2,0.0,0.0,392.0,974.0,1.0,0,424.0,0
478,478,-0.49807490541069704,-0.5,0.0,1.0,273.0,778.0,1.0,0,459.0,1
479,479,-0.5385849183971105,-0.5,0.0,1.0,353.0,975.0,1.0,0,402.0,1
480,480,0.8882949941014117,0.9,1.0,1.0,405.0,841.0,1.0,1,164.0,1
481,481,-0.15166533005862004,-0.2,0.0,1.0,464.0,533.0,1.0,0,513.0,1
482,482,0.8705140786556419,0.9,1.0,1.0,415.0,737.0,1.0,1,128.0,1
483,483,-0.4192793140660927,-0.4,1.0,0.0,331.0,844.0,0.0,0,675.0,1
484,484,-0.7208212123874342,-0.7,1.0,0.0,485.0,814.0,0.0,0,241.0,1
485,485,0.5604607910713967,0.6,1.0,1.0,395.0,535.0,1.0,1,500.0,1
486,486,0.027843638348183042,0.0,1.0,1.0,340.0,610.0,0.0,0,860.0,0
487,487,-0.7926405868745101,-0.8,1.0,0.0,298.0,985.0,0.0,0,87.0,1
488,488,-0.4645670508891304,-0.5,0.0,1.0,420.0,559.0,1.0,0,1001.0,1
489,489,-0.593338749929956,-0.6,0.0,1.0,317.0,812.0,1.0,0,391.0,1
490,490,0.1615272995403495,0.2,0.0,0.0,420.0,963.0,0.0,1,427.0,1
491,491,-0.6672099919918136,-0.7,1.0,0.0,461.0,767.0,0.0,0,302.0,1
492,492,0.8508460932636351,0.9,1.0,1.0,418.0,539.0,1.0,1,513.0,1
493,493,0.44534471238345164,0.4,0.0,0.0,266.0,538.0,1.0,0,1886.0,0
494,494,-0.7879720567298167,-0.8,0.0,1.0,419.0,789.0,1.0,0,192.0,1
495,495,0.34148642206090185,0.3,0.0,0.0,406.0,693.0,0.0,1,1821.0,1
496,496,0.05676495688408356,0.1,1.0,1.0,397.0,693.0,1.0,1,190.0,1
497,497,0.35657168962500474,0.4,0.0,0.0,337.0,543.0,0.0,1,590.0,1
498,498,0.3374491003741581,0.3,1.0,1.0,407.0,822.0,1.0,1,511.0,1
499,499,0.7690272175309131,0.8,1.0,1.0,317.0,858.0,1.0,1,205.0,1
500,500,0.08886959239830705,0.1,1.0,1.0,472.0,735.0,1.0,1,683.0,1
501,501,0.7488051695108572,0.7,0.0,0.0,415.0,858.0,0.0,1,257.0,1
502,502,0.7326328915592056,0.7,1.0,1.0,257.0,940.0,1.0,1,223.0,1
503,503,-0.32235921300845516,-0.3,0.0,1.0,357.0,928.0,1.0,0,275.0,1
504,504,0.596930769099908,0.6,1.0,1.0,266.0,527.0,1.0,1,457.0,1
505,505,0.4681618797760706,0.5,0.0,0.0,342.0,895.0,0.0,1,1023.0,1
506,506,0.8141923892505515,0.8,0.0,0.0,330.0,756.0,0.0,1,364.0,1
507,507,-0.23874983480995826,-0.2,0.0,1.0,424.0,561.0,1.0,0,815.0,1
508,508,0.7380626359398678,0.7,0.0,0.0,354.0,556.0,0.0,1,570.0,1
509,509,0.1735266818126523,0.2,1.0,1.0,301.0,943.0,0.0,0,66.0,0
510,510,0.8593242079349287,0.9,1.0,1.0,298.0,571.0,1.0,1,411.0,1
511,511,0.44423851867662345,0.4,0.0,0.0,289.0,627.0,0.0,1,324.0,1
512,512,0.2991004525511122,0.3,0.0,0.0,280.0,905.0,1.0,0,285.0,0
513,513,0.6142058615795288,0.6,0.0,0.0,374.0,538.0,0.0,1,268.0,1
514,514,-0.3834464342337166,-0.4,0.0,1.0,447.0,935.0,1.0,0,458.0,1
515,515,0.43047596408710465,0.4,0.0,0.0,491.0,951.0,0.0,1,128.0,1
516,516,-0.8181126101914621,-0.8,0.0,1.0,495.0,835.0,1.0,0,140.0,1
517,517,-0.08251865161852512,-0.1,1.0,0.0,489.0,989.0,1.0,1,512.0,0
518,518,0.44558391162366895,0.4,0.0,0.0,466.0,850.0,1.0,0,364.0,0
519,519,0.4689919040739269,0.5,1.0,1.0,370.0,750.0,1.0,1,200.0,1
520,520,0.11494689137617942,0.1,0.0,0.0,441.0,655.0,1.0,0,674.0,0
521,521,-0.8589621607309526,-0.9,0.0,1.0,279.0,689.0,1.0,0,132.0,1
522,522,0.6350646647813097,0.6,0.0,0.0,341.0,525.0,0.0,1,624.0,1
523,523,0.3133752053983808,0.3,0.0,0.0,317.0,787.0,0.0,1,1186.0,1
524,524,-0.5021365569565894,-0.5,1.0,0.0,301.0,509.0,0.0,0,610.0,1
525,525,0.1753748413315258,0.2,0.0,0.0,278.0,607.0,0.0,1,625.0,1
526,526,0.4253394335660111,0.4,1.0,1.0,390.0,719.0,1.0,1,871.0,1
527,527,0.38393582439378193,0.4,1.0,1.0,315.0,826.0,1.0,1,849.0,1
528,528,-0.6779533292441283,-0.7,1.0,0.0,317.0,640.0,0.0,0,1003.0,1
529,529,0.739067977895726,0.7,0.0,0.0,265.0,698.0,0.0,1,457.0,1
530,530,0.8281234521706099,0.8,0.0,0.0,279.0,617.0,0.0,1,654.0,1
531,531,0.31079903187794045,0.3,0.0,0.0,259.0,635.0,0.0,1,576.0,1
532,532,-0.7083372047081486,-0.7,0.0,1.0,470.0,877.0,1.0,0,343.0,1
533,533,0.7519957540405434,0.8,1.0,1.0,427.0,924.0,1.0,1,239.0,1
534,534,-0.21109376937534863,-0.2,1.0,0.0,412.0,826.0,1.0,1,292.0,0
535,535,-0.5504437684060511,-0.6,1.0,0.0,432.0,943.0,0.0,0,175.0,1
536,536,0.6218581266046342,0.6,0.0,0.0,264.0,695.0,0.0,1,621.0,1
537,537,-0.19143991562950402,-0.2,1.0,0.0,370.0,791.0,1.0,1,1719.0,0
538,538,-0.8980807211354512,-0.9,1.0,0.0,456.0,988.0,0.0,0,-94.0,1
539,539,-0.6431583897970171,-0.6,1.0,0.0,289.0,838.0,0.0,0,303.0,1
540,540,-0.7801049249142299,-0.8,0.0,1.0,406.0,945.0,1.0,0,279.0,1
541,541,-0.26644473330019947,-0.3,0.0,1.0,394.0,775.0,1.0,0,221.0,1
542,542,-0.007878415719918763,-0.0,0.0,1.0,440.0,670.0,1.0,0,580.0,1
543,543,-0.014911952691019081,-0.0,0.0,1.0,499.0,976.0,0.0,1,355.0,0
544,544,0.02613660962474207,0.0,0.0,0.0,372.0,602.0,1.0,0,546.0,0
545,545,-0.04702990558858566,-0.0,1.0,0.0,297.0,864.0,1.0,1,419.0,0
546,546,0.3891176391481209,0.4,1.0,1.0,275.0,767.0,1.0,1,908.0,1
547,547,0.7335995810906838,0.7,1.0,1.0,481.0,805.0,1.0,1,284.0,1
548,548,0.6438755539774764,0.6,1.0,1.0,393.0,812.0,1.0,1,285.0,1
549,549,0.49727299804332914,0.5,1.0,1.0,306.0,889.0,1.0,1,325.0,1
550,550,0.7030920058699385,0.7,1.0,1.0,318.0,545.0,1.0,1,587.0,1
551,551,0.21437867483766537,0.2,0.0,0.0,261.0,944.0,1.0,0,75.0,0
552,552,-0.8653989108777248,-0.9,1.0,0.0,313.0,874.0,0.0,0,93.0,1
553,553,-0.20571300346308097,-0.2,1.0,0.0,348.0,904.0,1.0,1,338.0,0
554,554,0.5890854838737375,0.6,0.0,0.0,336.0,883.0,0.0,1,891.0,1
555,555,0.6978374826462092,0.7,0.0,0.0,251.0,924.0,1.0,0,25.0,0
556,556,0.8692682064544718,0.9,0.0,0.0,267.0,685.0,0.0,1,308.0,1
557,557,-0.4388118457377449,-0.4,1.0,0.0,389.0,940.0,0.0,0,681.0,1
558,558,0.45516397462442015,0.5,1.0,1.0,487.0,527.0,1.0,1,476.0,1
559,559,-0.018767706833455633,-0.0,1.0,0.0,426.0,828.0,1.0,1,526.0,0
560,560,0.31894684552852104,0.3,0.0,0.0,492.0,946.0,1.0,0,232.0,0
561,561,0.1574080047073464,0.2,0.0,0.0,377.0,967.0,1.0,0,1586.0,0
562,562,0.2591283458718133,0.3,0.0,0.0,429.0,778.0,0.0,1,763.0,1
563,563,-0.8929421502347146,-0.9,1.0,0.0,320.0,765.0,0.0,0,505.0,1
564,564,0.702603847094278,0.7,1.0,1.0,452.0,578.0,1.0,1,430.0,1
565,565,-0.6474613099505568,-0.6,1.0,0.0,340.0,886.0,0.0,0,354.0,1
566,566,0.11446359444337151,0.1,1.0,1.0,260.0,558.0,1.0,1,672.0,1
567,567,-0.4516059430789892,-0.5,1.0,0.0,461.0,867.0,0.0,0,362.0,1
568,568,0.6549879358686462,0.7,0.0,0.0,343.0,888.0,0.0,1,359.0,1
569,569,-0.4632293210126308,-0.5,1.0,0.0,343.0,913.0,1.0,1,64.0,0
570,570,0.48110626596506034,0.5,1.0,1.0,435.0,740.0,1.0,1,275.0,1
571,571,-0.5957113337352629,-0.6,0.0,1.0,380.0,755.0,1.0,0,275.0,1
572,572,-0.09428337250495167,-0.1,1.0,0.0,326.0,729.0,0.0,0,2675.0,1
573,573,0.2351914417023605,0.2,0.0,0.0,438.0,619.0,0.0,1,743.0,1
574,574,0.4937806076137857,0.5,0.0,0.0,439.0,811.0,0.0,1,170.0,1
575,575,0.49875710105522086,0.5,0.0,0.0,318.0,591.0,0.0,1,691.0,1
576,576,-0.6051420998178554,-0.6,0.0,1.0,468.0,710.0,1.0,0,402.0,1
577,577,0.8656641325239779,0.9,0.0,0.0,442.0,542.0,0.0,1,356.0,1
578,578,0.7248156776377804,0.7,0.0,0.0,303.0,706.0,0.0,1,381.0,1
579,579,0.5727151754528391,0.6,0.0,0.0,361.0,890.0,0.0,1,269.0,1
580,580,0.6230871270799433,0.6,1.0,1.0,338.0,740.0,1.0,1,232.0,1
581,581,0.3998996302912595,0.4,0.0,0.0,403.0,820.0,0.0,1,717.0,1
582,582,0.8034606473614042,0.8,0.0,0.0,443.0,971.0,0.0,1,726.0,1
583,583,0.3686591371759508,0.4,1.0,1.0,485.0,884.0,1.0,1,71.0,1
584,584,0.8354139981333845,0.8,0.0,0.0,404.0,741.0,0.0,1,315.0,1
585,585,-0.6166151981909315,-0.6,1.0,0.0,448.0,912.0,0.0,0,300.0,1
586,586,0.8647927115999016,0.9,1.0,1.0,460.0,585.0,1.0,1,485.0,1
587,587,0.6187711520086355,0.6,0.0,0.0,367.0,938.0,0.0,1,115.0,1
588,588,-0.6652447541393984,-0.7,1.0,0.0,302.0,628.0,0.0,0,510.0,1
589,589,0.5161692940296237,0.5,1.0,1.0,306.0,936.0,1.0,1,-12.0,1
590,590,0.8040566035719042,0.8,1.0,1.0,370.0,543.0,1.0,1,457.0,1
591,591,0.20676722585713392,0.2,1.0,1.0,484.0,779.0,1.0,1,177.0,1
592,592,-0.3934239770111856,-0.4,0.0,1.0,446.0,651.0,1.0,0,493.0,1
593,593,-0.16352183819371435,-0.2,1.0,0.0,372.0,978.0,1.0,1,1580.0,0
594,594,0.4319854633576746,0.4,0.0,0.0,478.0,562.0,0.0,1,950.0,1
595,595,0.4813025807245249,0.5,0.0,0.0,391.0,647.0,0.0,1,332.0,1
596,596,0.29506337597041454,0.3,1.0,1.0,265.0,732.0,1.0,1,463.0,1
597,597,-0.14277771923118787,-0.1,1.0,0.0,277.0,574.0,0.0,0,1419.0,1
598,598,-0.184602831911726,-0.2,0.0,1.0,423.0,983.0,1.0,0,194.0,1
599,599,-0.0602919157109949,-0.1,1.0,0.0,308.0,878.0,1.0,1,204.0,0
600,600,0.7309711267438789,0.7,0.0,0.0,298.0,578.0,0.0,1,394.0,1
601,601,0.6593356274535925,0.7,0.0,0.0,290.0,536.0,0.0,1,354.0,1
602,602,-0.39289512101571367,-0.4,0.0,1.0,353.0,502.0,1.0,0,655.0,1
603,603,0.5527760268793761,0.6,1.0,1.0,450.0,950.0,1.0,1,170.0,1
604,604,-0.701672804723631,-0.7,1.0,0.0,374.0,538.0,0.0,0,908.0,1
605,605,0.6637234207749089,0.7,0.0,0.0,405.0,547.0,0.0,1,408.0,1
606,606,-0.0873755407967155,-0.1,1.0,0.0,387.0,780.0,0.0,0,623.0,1
607,607,0.33908899138255466,0.3,1.0,1.0,394.0,700.0,1.0,1,406.0,1
608,608,0.6670687284607769,0.7,0.0,0.0,319.0,778.0,0.0,1,263.0,1
609,609,0.19652627292511726,0.2,1.0,1.0,292.0,976.0,1.0,1,532.0,1
610,610,-0.5882448657701765,-0.6,1.0,0.0,459.0,772.0,0.0,0,299.0,1
611,611,-0.785491004328502,-0.8,0.0,1.0,299.0,645.0,1.0,0,276.0,1
612,612,0.7107110960690973,0.7,1.0,1.0,365.0,671.0,1.0,1,424.0,1
613,613,-0.17519829798564102,-0.2,0.0,1.0,338.0,797.0,0.0,1,445.0,0
614,614,-0.04237739606968971,-0.0,1.0,0.0,452.0,746.0,1.0,1,472.0,0
615,615,0.4243648766339937,0.4,1.0,1.0,426.0,943.0,1.0,1,411.0,1
616,616,0.09761424534137397,0.1,0.0,0.0,354.0,929.0,1.0,0,37.0,0
617,617,-0.851559714530246,-0.9,0.0,1.0,412.0,692.0,1.0,0,586.0,1
618,618,-0.23507804620101225,-0.2,0.0,1.0,296.0,989.0,0.0,1,155.0,0
619,619,-0.38623115800615226,-0.4,0.0,1.0,320.0,506.0,1.0,0,1564.0,1
620,620,0.45979307608258735,0.5,1.0,1.0,285.0,946.0,1.0,1,259.0,1
621,621,-0.7744359738187767,-0.8,1.0,0.0,446.0,870.0,0.0,0,304.0,1
622,622,0.5494259154483124,0.5,0.0,0.0,454.0,959.0,0.0,1,827.0,1
623,623,-0.5634145074104748,-0.6,0.0,1.0,360.0,523.0,1.0,0,517.0,1
624,624,0.3098004759500631,0.3,0.0,0.0,347.0,881.0,0.0,1,452.0,1
625,625,-0.4891253372040772,-0.5,0.0,1.0,315.0,613.0,1.0,0,562.0,1
626,626,-0.45207634726042784,-0.5,1.0,0.0,417.0,592.0,0.0,0,321.0,1
627,627,0.6518366915086252,0.7,0.0,0.0,272.0,688.0,0.0,1,1070.0,1
628,628,0.12036732875016021,0.1,0.0,0.0,345.0,981.0,1.0,0,1404.0,0
629,629,0.31338429121131794,0.3,0.0,0.0,285.0,710.0,0.0,1,275.0,1
630,630,0.38448311557611403,0.4,1.0,1.0,253.0,821.0,1.0,1,376.0,1
631,631,0.5968945600245795,0.6,0.0,0.0,489.0,570.0,0.0,1,631.0,1
632,632,-0.034594719374689054,-0.0,0.0,1.0,361.0,810.0,1.0,0,389.0,1
633,633,0.5276015682157628,0.5,1.0,1.0,470.0,522.0,1.0,1,428.0,1
634,634,0.1580461358644657,0.2,1.0,1.0,438.0,505.0,1.0,1,1247.0,1
635,635,-0.6424900828768596,-0.6,0.0,1.0,344.0,590.0,1.0,0,316.0,1
636,636,0.23953190999961105,0.2,0.0,0.0,436.0,939.0,1.0,0,265.0,0
637,637,0.5283155818619344,0.5,1.0,1.0,348.0,619.0,1.0,1,503.0,1
638,638,0.3544089393451978,0.4,0.0,0.0,390.0,588.0,0.0,1,1582.0,1
639,639,0.32707769408951803,0.3,1.0,1.0,457.0,737.0,1.0,1,246.0,1
640,640,-0.6690200357457694,-0.7,0.0,1.0,480.0,825.0,1.0,0,145.0,1
641,641,-0.18812469961705947,-0.2,0.0,1.0,469.0,755.0,1.0,0,2046.0,1
642,642,-0.5626871569745959,-0.6,1.0,0.0,358.0,604.0,0.0,0,528.0,1
643,643,-0.8058855215802655,-0.8,0.0,1.0,361.0,969.0,1.0,0,0.0,1
644,644,-0.4363711582663303,-0.4,0.0,1.0,413.0,800.0,1.0,0,167.0,1
645,645,-0.18415681046748555,-0.2,1.0,0.0,436.0,769.0,0.0,0,95.0,1
646,646,0.13078720127863896,0.1,1.0,1.0,302.0,855.0,1.0,1,483.0,1
647,647,0.1774993925039009,0.2,0.0,0.0,456.0,711.0,0.0,1,393.0,1
648,648,-0.3408666423518124,-0.3,1.0,0.0,282.0,787.0,1.0,1,1501.0,0
649,649,-0.7045357092848663,-0.7,1.0,0.0,379.0,997.0,0.0,0,394.0,1
650,650,-0.8503833603369971,-0.9,1.0,0.0,445.0,680.0,0.0,0,335.0,1
651,651,0.014520368500369973,0.0,0.0,0.0,384.0,647.0,0.0,1,649.0,1
652,652,0.3960619665414479,0.4,0.0,0.0,453.0,870.0,0.0,1,107.0,1
653,653,0.08119513490674968,0.1,1.0,1.0,419.0,971.0,1.0,1,2150.0,1
654,654,0.6190113186576401,0.6,0.0,0.0,350.0,731.0,0.0,1,1099.0,1
655,655,-0.19295288544041622,-0.2,1.0,0.0,260.0,966.0,1.0,1,134.0,0
656,656,-0.4665207319626242,-0.5,1.0,0.0,277.0,687.0,0.0,0,206.0,1
657,657,-0.6813186173353263,-0.7,0.0,1.0,436.0,956.0,1.0,0,118.0,1
658,658,0.4351222035168486,0.4,0.0,0.0,291.0,548.0,0.0,1,721.0,1
659,659,-0.42111857190956675,-0.4,1.0,0.0,423.0,780.0,1.0,1,467.0,0
660,660,-0.08818435432535587,-0.1,1.0,0.0,413.0,888.0,0.0,0,369.0,1
661,661,0.02399641818341458,0.0,0.0,0.0,332.0,976.0,1.0,0,32.0,0
662,662,0.5317299041439761,0.5,1.0,1.0,310.0,947.0,1.0,1,213.0,1
663,663,0.04007834445223868,0.0,1.0,1.0,435.0,586.0,1.0,1,629.0,1
664,664,0.8825625582067359,0.9,0.0,0.0,496.0,760.0,0.0,1,314.0,1
665,665,0.750585524656007,0.8,1.0,1.0,295.0,920.0,1.0,1,115.0,1
666,666,0.6924645682753842,0.7,0.0,0.0,331.0,957.0,1.0,0,212.0,0
667,667,-0.5530247677565896,-0.6,1.0,0.0,351.0,518.0,0.0,0,631.0,1
668,668,-0.010948498086819969,-0.0,0.0,1.0,400.0,508.0,0.0,1,842.0,0
669,669,0.3614766364413581,0.4,0.0,0.0,280.0,630.0,0.0,1,390.0,1
670,670,-0.3510081769663891,-0.4,1.0,0.0,426.0,884.0,0.0,0,670.0,1
671,671,-0.32450501170355095,-0.3,0.0,1.0,384.0,742.0,1.0,0,294.0,1
672,672,-0.3389035890308819,-0.3,1.0,0.0,254.0,763.0,0.0,0,853.0,1
673,673,0.06887486858886638,0.1,1.0,1.0,379.0,778.0,1.0,1,333.0,1
674,674,-0.7113429961278177,-0.7,0.0,1.0,271.0,510.0,1.0,0,809.0,1
675,675,-0.18409221294476985,-0.2,1.0,0.0,447.0,576.0,0.0,0,397.0,1
676,676,0.7707028427409824,0.8,0.0,0.0,315.0,716.0,0.0,1,449.0,1
677,677,0.09692808413868814,0.1,1.0,1.0,439.0,900.0,1.0,1,141.0,1
678,678,-0.11401460779442651,-0.1,0.0,1.0,372.0,894.0,1.0,0,264.0,1
679,679,0.8980470183876789,0.9,1.0,1.0,461.0,983.0,1.0,1,296.0,1
680,680,0.4916978516506286,0.5,0.0,0.0,268.0,594.0,0.0,1,828.0,1
681,681,-0.6910076434691661,-0.7,1.0,0.0,271.0,882.0,0.0,0,337.0,1
682,682,-0.6272651956751156,-0.6,1.0,0.0,316.0,768.0,0.0,0,296.0,1
683,683,0.4278856128667924,0.4,0.0,0.0,391.0,600.0,0.0,1,369.0,1
684,684,0.4522863132113214,0.5,0.0,0.0,326.0,629.0,0.0,1,325.0,1
685,685,0.8849330092782576,0.9,0.0,0.0,492.0,944.0,0.0,1,-56.0,1
686,686,-0.6454551149284586,-0.6,0.0,1.0,414.0,791.0,1.0,0,525.0,1
687,687,-0.2169700987725871,-0.2,1.0,0.0,328.0,978.0,0.0,0,1394.0,1
688,688,0.3327257980287691,0.3,1.0,1.0,321.0,854.0,1.0,1,165.0,1
689,689,0.07064616206389807,0.1,1.0,1.0,459.0,604.0,1.0,1,747.0,1
690,690,-0.5872721121937619,-0.6,1.0,0.0,499.0,801.0,0.0,0,490.0,1
691,691,0.6630346285864123,0.7,0.0,0.0,288.0,680.0,0.0,1,582.0,1
692,692,-0.13809321008225361,-0.1,0.0,1.0,435.0,802.0,1.0,0,183.0,1
693,693,-0.3671675698865483,-0.4,1.0,0.0,293.0,574.0,0.0,0,773.0,1
694,694,0.4261338473907078,0.4,0.0,0.0,406.0,502.0,0.0,1,1332.0,1
695,695,-0.6560615602164352,-0.7,0.0,1.0,457.0,782.0,1.0,0,361.0,1
696,696,0.2961009675879104,0.3,0.0,0.0,300.0,694.0,1.0,0,1716.0,0
697,697,0.5858480864987426,0.6,1.0,1.0,409.0,930.0,1.0,1,71.0,1
698,698,0.8890044519594794,0.9,1.0,1.0,442.0,843.0,1.0,1,375.0,1
699,699,0.45404821650713545,0.5,1.0,1.0,436.0,703.0,1.0,1,411.0,1
700,700,0.2634152933285042,0.3,0.0,0.0,417.0,742.0,0.0,1,311.0,1
701,701,-0.20450832826356358,-0.2,1.0,0.0,260.0,920.0,1.0,1,470.0,0
702,702,-0.4518463902572768,-0.5,1.0,0.0,439.0,940.0,0.0,0,501.0,1
703,703,-0.8187190996856151,-0.8,0.0,1.0,460.0,886.0,0.0,1,-46.0,0
704,704,-0.0032301463329029723,-0.0,0.0,1.0,494.0,508.0,1.0,0,508.0,1
705,705,-0.45899122492778877,-0.5,0.0,1.0,387.0,939.0,1.0,0,284.0,1
706,706,0.754360734670184,0.8,1.0,1.0,478.0,546.0,1.0,1,366.0,1
707,707,0.6899030017493618,0.7,0.0,0.0,383.0,929.0,0.0,1,468.0,1
708,708,0.34792182776213665,0.3,1.0,1.0,264.0,814.0,1.0,1,482.0,1
709,709,-0.8264811240919515,-0.8,1.0,0.0,297.0,883.0,0.0,0,210.0,1
710,710,0.09771856189624017,0.1,1.0,1.0,475.0,739.0,1.0,1,596.0,1
711,711,-0.11695878673802917,-0.1,1.0,0.0,294.0,986.0,0.0,0,230.0,1
712,712,0.1834987767338837,0.2,0.0,0.0,375.0,672.0,1.0,0,253.0,0
713,713,-0.009700317144401893,-0.0,0.0,1.0,452.0,610.0,1.0,0,478.0,1
714,714,0.06557024648904153,0.1,1.0,1.0,473.0,779.0,1.0,1,748.0,1
715,715,0.7348765105247786,0.7,1.0,1.0,429.0,768.0,1.0,1,433.0,1
716,716,-0.38213638149210694,-0.4,1.0,0.0,467.0,639.0,0.0,0,1074.0,1
717,717,-0.4985470910940396,-0.5,0.0,1.0,383.0,712.0,1.0,0,245.0,1
718,718,0.8531492167846145,0.9,0.0,0.0,479.0,608.0,0.0,1,513.0,1
719,719,-0.2917865927477078,-0.3,1.0,0.0,365.0,866.0,0.0,0,1459.0,1
720,720,0.8132133135581198,0.8,1.0,1.0,408.0,898.0,1.0,1,264.0,1
721,721,0.8368395493194506,0.8,1.0,1.0,332.0,740.0,1.0,1,258.0,1
722,722,0.7954881030879178,0.8,1.0,1.0,348.0,538.0,1.0,1,454.0,1
723,723,-0.1574664519080422,-0.2,0.0,1.0,336.0,654.0,1.0,0,430.0,1
724,724,-0.30947388125361674,-0.3,1.0,0.0,357.0,576.0,0.0,0,1187.0,1
725,725,-0.12883581418115875,-0.1,0.0,1.0,314.0,663.0,1.0,0,703.0,1
726,726,0.7753419329595389,0.8,1.0,1.0,275.0,588.0,1.0,1,297.0,1
727,727,-0.3885795373920913,-0.4,0.0,1.0,465.0,567.0,1.0,0,298.0,1
728,728,0.3864674376724241,0.4,0.0,0.0,330.0,751.0,1.0,0,919.0,0
729,729,-0.6080317445357337,-0.6,1.0,0.0,394.0,501.0,0.0,0,615.0,1
730,730,-0.4653489488250092,-0.5,0.0,1.0,492.0,568.0,1.0,0,410.0,1
731,731,-0.10983145340135414,-0.1,0.0,1.0,259.0,721.0,0.0,1,440.0,0
732,732,-0.4381668691767424,-0.4,1.0,0.0,360.0,696.0,0.0,0,484.0,1
733,733,0.373564863048932,0.4,0.0,0.0,395.0,982.0,1.0,0,1013.0,0
734,734,0.8020102701419586,0.8,1.0,1.0,457.0,736.0,1.0,1,557.0,1
735,735,-0.5876507321535585,-0.6,1.0,0.0,303.0,668.0,0.0,0,819.0,1
736,736,0.031382177468328165,0.0,1.0,1.0,343.0,823.0,0.0,0,174.0,0
737,737,-0.5773859139516246,-0.6,0.0,1.0,278.0,623.0,1.0,0,469.0,1
738,738,0.29386433263053713,0.3,1.0,1.0,441.0,725.0,1.0,1,784.0,1
739,739,-0.6447305018428842,-0.6,1.0,0.0,468.0,604.0,0.0,0,658.0,1
740,740,-0.8277093376146045,-0.8,1.0,0.0,337.0,798.0,0.0,0,665.0,1
741,741,-0.8024650749107257,-0.8,1.0,0.0,267.0,793.0,0.0,0,280.0,1
742,742,0.15145313647237357,0.2,0.0,0.0,396.0,608.0,0.0,1,396.0,1
743,743,0.8832780958522201,0.9,1.0,1.0,437.0,774.0,1.0,1,59.0,1
744,744,0.29766962748230286,0.3,1.0,1.0,364.0,845.0,1.0,1,391.0,1
745,745,-0.1543039905003426,-0.2,1.0,0.0,490.0,602.0,1.0,1,1088.0,0
746,746,0.5656679389613354,0.6,1.0,1.0,266.0,806.0,1.0,1,198.0,1
747,747,0.21431405877685983,0.2,1.0,1.0,257.0,672.0,1.0,1,331.0,1
748,748,-0.7869208298201997,-0.8,0.0,1.0,285.0,925.0,1.0,0,80.0,1
749,749,0.5470204280612113,0.5,1.0,1.0,385.0,952.0,0.0,0,-77.0,0
750,750,-0.7224780210947225,-0.7,0.0,1.0,389.0,864.0,1.0,0,297.0,1
751,751,0.3281360261513323,0.3,1.0,1.0,373.0,647.0,1.0,1,440.0,1
752,752,-0.13316082913652594,-0.1,1.0,0.0,352.0,601.0,1.0,1,1477.0,0
753,753,0.2215173140571164,0.2,1.0,1.0,251.0,642.0,1.0,1,237.0,1
754,754,-0.28566577164880924,-0.3,0.0,1.0,472.0,525.0,1.0,0,643.0,1
755,755,0.8452579568741995,0.8,1.0,1.0,492.0,997.0,1.0,1,31.0,1
756,756,0.7508349809305109,0.8,1.0,1.0,372.0,822.0,1.0,1,316.0,1
757,757,-0.7989591548916415,-0.8,1.0,0.0,451.0,580.0,0.0,0,369.0,1
758,758,0.7011133183625865,0.7,0.0,0.0,291.0,649.0,0.0,1,410.0,1
759,759,0.7186134249058146,0.7,0.0,0.0,420.0,512.0,0.0,1,638.0,1
760,760,0.6138317009701976,0.6,0.0,0.0,443.0,809.0,0.0,1,348.0,1
761,761,-0.6884355952968807,-0.7,1.0,0.0,325.0,774.0,0.0,0,421.0,1
762,762,0.15437102194073737,0.2,0.0,0.0,376.0,540.0,1.0,0,1604.0,0
763,763,0.5427009505375661,0.5,0.0,0.0,293.0,762.0,0.0,1,835.0,1
764,764,0.5424069072948478,0.5,1.0,1.0,277.0,947.0,1.0,1,216.0,1
765,765,-0.763835978284704,-0.8,1.0,0.0,424.0,789.0,0.0,0,257.0,1
766,766,0.25350426202860354,0.3,0.0,0.0,388.0,887.0,0.0,1,1305.0,1
767,767,-0.3263891683391673,-0.3,1.0,0.0,276.0,727.0,1.0,1,2097.0,0
768,768,-0.18608494171267254,-0.2,1.0,0.0,411.0,644.0,0.0,0,1135.0,1
769,769,0.7494611432286705,0.7,1.0,1.0,496.0,746.0,1.0,1,368.0,1
770,770,0.7317069608625483,0.7,1.0,1.0,401.0,800.0,1.0,1,159.0,1
771,771,-0.7470315863973466,-0.7,0.0,1.0,363.0,799.0,1.0,0,318.0,1
772,772,0.1213552788056681,0.1,1.0,1.0,268.0,789.0,1.0,1,173.0,1
773,773,0.7465061310761268,0.7,1.0,1.0,316.0,637.0,1.0,1,467.0,1
774,774,0.33866076126311284,0.3,1.0,1.0,435.0,633.0,1.0,1,412.0,1
775,775,0.6959898727561379,0.7,1.0,1.0,276.0,587.0,1.0,1,397.0,1
776,776,-0.06481902472386591,-0.1,1.0,0.0,404.0,878.0,1.0,1,108.0,0
777,777,-0.8166511277410573,-0.8,0.0,1.0,450.0,594.0,1.0,0,426.0,1
778,778,0.661617833844189,0.7,1.0,1.0,295.0,781.0,1.0,1,274.0,1
779,779,-0.22414100280427418,-0.2,1.0,0.0,363.0,988.0,1.0,1,-81.0,0
780,780,-0.3371728182359428,-0.3,0.0,1.0,403.0,899.0,1.0,0,258.0,1
781,781,-0.22539879276329566,-0.2,1.0,0.0,373.0,523.0,0.0,0,2534.0,1
782,782,0.8736537758643036,0.9,0.0,0.0,486.0,588.0,0.0,1,646.0,1
783,783,-0.563299924538589,-0.6,0.0,1.0,270.0,515.0,1.0,0,655.0,1
784,784,0.18683412163719149,0.2,0.0,0.0,424.0,716.0,0.0,1,160.0,1
785,785,0.24867511125170572,0.2,1.0,1.0,399.0,688.0,1.0,1,843.0,1
786,786,-0.8676847431244445,-0.9,1.0,0.0,470.0,950.0,0.0,0,130.0,1
787,787,0.42819290992732817,0.4,1.0,1.0,407.0,693.0,1.0,1,290.0,1
788,788,0.553756628232218,0.6,0.0,0.0,454.0,584.0,0.0,1,512.0,1
789,789,0.7761811814725393,0.8,1.0,1.0,251.0,572.0,1.0,1,347.0,1
790,790,-0.1090564685381945,-0.1,1.0,0.0,382.0,603.0,0.0,0,625.0,1
791,791,0.1299581799930144,0.1,1.0,1.0,368.0,942.0,0.0,0,110.0,0
792,792,-0.638175770102695,-0.6,0.0,1.0,418.0,665.0,1.0,0,407.0,1
793,793,0.8140134532256117,0.8,0.0,0.0,335.0,625.0,0.0,1,740.0,1
794,794,0.056668863484442666,0.1,1.0,1.0,283.0,569.0,1.0,1,658.0,1
795,795,0.3410954019289344,0.3,1.0,1.0,306.0,824.0,1.0,1,360.0,1
796,796,-0.33924091340607254,-0.3,1.0,0.0,301.0,564.0,1.0,1,595.0,0
797,797,0.7813883384720096,0.8,1.0,1.0,293.0,567.0,1.0,1,330.0,1
798,798,0.4557838084062734,0.5,0.0,0.0,276.0,770.0,0.0,1,504.0,1
799,799,-0.48061730135659564,-0.5,0.0,1.0,338.0,516.0,1.0,0,446.0,1
800,800,0.4452232263687409,0.4,1.0,1.0,481.0,829.0,1.0,1,350.0,1
801,801,-0.7224989843183038,-0.7,0.0,1.0,411.0,738.0,1.0,0,361.0,1
802,802,0.006777426554293364,0.0,0.0,0.0,310.0,874.0,1.0,0,276.0,0
803,803,0.8362377939568454,0.8,1.0,1.0,306.0,634.0,1.0,1,390.0,1
804,804,-0.3135551949839558,-0.3,0.0,1.0,368.0,624.0,0.0,1,668.0,0
805,805,0.2719409231372939,0.3,1.0,1.0,354.0,718.0,1.0,1,258.0,1
806,806,-0.5423422983420934,-0.5,1.0,0.0,270.0,862.0,0.0,0,588.0,1
807,807,0.1094759524737533,0.1,1.0,1.0,296.0,717.0,1.0,1,247.0,1
808,808,-0.30127339451527413,-0.3,1.0,0.0,350.0,825.0,0.0,0,235.0,1
809,809,0.3884339471211061,0.4,1.0,1.0,337.0,974.0,1.0,1,389.0,1
810,810,-0.1846167332402392,-0.2,0.0,1.0,265.0,559.0,1.0,0,696.0,1
811,811,-0.2229941806836505,-0.2,1.0,0.0,440.0,625.0,1.0,1,445.0,0
812,812,0.041944822109429514,0.0,0.0,0.0,417.0,666.0,1.0,0,687.0,0
813,813,0.09832849587073755,0.1,0.0,0.0,270.0,652.0,0.0,1,188.0,1
814,814,-0.3794353476453193,-0.4,1.0,0.0,278.0,875.0,0.0,0,1617.0,1
815,815,0.860187966972595,0.9,1.0,1.0,495.0,787.0,1.0,1,388.0,1
816,816,-0.5955877500809577,-0.6,1.0,0.0,344.0,598.0,0.0,0,818.0,1
817,817,0.3778307232174579,0.4,1.0,1.0,382.0,701.0,1.0,1,317.0,1
818,818,0.5505695329303256,0.6,0.0,0.0,362.0,723.0,0.0,1,155.0,1
819,819,0.5673782743214878,0.6,0.0,0.0,348.0,591.0,0.0,1,531.0,1
820,820,0.7961695374264183,0.8,0.0,0.0,456.0,580.0,0.0,1,514.0,1
821,821,0.8108682018385559,0.8,1.0,1.0,461.0,995.0,1.0,1,-16.0,1
822,822,0.26613655828037375,0.3,0.0,0.0,374.0,500.0,0.0,1,546.0,1
823,823,-0.8697250654603162,-0.9,1.0,0.0,443.0,655.0,0.0,0,382.0,1
824,824,0.2535890146230081,0.3,0.0,0.0,451.0,717.0,1.0,0,562.0,0
825,825,-0.013659186381961619,-0.0,0.0,1.0,406.0,552.0,1.0,0,1002.0,1
826,826,0.18400086693863738,0.2,0.0,0.0,457.0,938.0,1.0,0,805.0,0
827,827,-0.594260292780818,-0.6,0.0,1.0,478.0,888.0,1.0,0,94.0,1
828,828,0.03608110194820624,0.0,1.0,1.0,426.0,585.0,0.0,0,879.0,0
829,829,0.21052426108975297,0.2,0.0,0.0,282.0,871.0,1.0,0,247.0,0
830,830,0.5183167580569815,0.5,0.0,0.0,382.0,821.0,1.0,0,247.0,0
831,831,-0.7562817216611801,-0.8,1.0,0.0,251.0,813.0,0.0,0,546.0,1
832,832,-0.5274764021298415,-0.5,1.0,0.0,332.0,629.0,1.0,1,819.0,0
833,833,-0.31399615261236047,-0.3,0.0,1.0,292.0,617.0,1.0,0,401.0,1
834,834,0.2749897963815161,0.3,1.0,1.0,347.0,581.0,1.0,1,362.0,1
835,835,-0.8267572178090856,-0.8,1.0,0.0,275.0,960.0,1.0,1,-5.0,0
836,836,0.3799433598647245,0.4,1.0,1.0,455.0,512.0,1.0,1,423.0,1
837,837,0.5723480181228314,0.6,0.0,0.0,399.0,794.0,0.0,1,297.0,1
838,838,0.6815382999992762,0.7,0.0,0.0,294.0,799.0,0.0,1,557.0,1
839,839,-0.4593017234382141,-0.5,0.0,1.0,478.0,913.0,1.0,0,129.0,1
840,840,-0.11660802124958325,-0.1,0.0,1.0,421.0,815.0,1.0,0,114.0,1
841,841,0.2754623731974034,0.3,0.0,0.0,472.0,640.0,0.0,1,418.0,1
842,842,-0.03053360142024597,-0.0,0.0,1.0,447.0,559.0,1.0,0,1374.0,1
843,843,0.6879625706099787,0.7,1.0,1.0,380.0,868.0,1.0,1,322.0,1
844,844,-0.8657300002053121,-0.9,0.0,1.0,418.0,762.0,1.0,0,570.0,1
845,845,0.061448079866003535,0.1,1.0,1.0,302.0,811.0,1.0,1,447.0,1
846,846,-0.6420274198031265,-0.6,0.0,1.0,382.0,884.0,1.0,0,314.0,1
847,847,0.19865258164411836,0.2,0.0,0.0,475.0,720.0,0.0,1,205.0,1
848,848,-0.620132570252588,-0.6,1.0,0.0,360.0,901.0,1.0,1,89.0,0
849,849,-0.8650481891728261,-0.9,0.0,1.0,279.0,770.0,1.0,0,191.0,1
850,850,0.10906725353936475,0.1,1.0,1.0,294.0,891.0,1.0,1,1165.0,1
851,851,0.509075918283081,0.5,0.0,0.0,477.0,741.0,0.0,1,292.0,1
852,852,-0.22520363410630384,-0.2,0.0,1.0,263.0,511.0,1.0,0,506.0,1
853,853,-0.02456473990469854,-0.0,0.0,1.0,421.0,696.0,1.0,0,553.0,1
854,854,-0.18015951250065487,-0.2,1.0,0.0,351.0,780.0,0.0,0,519.0,1
855,855,0.4360805316178894,0.4,0.0,0.0,472.0,813.0,0.0,1,355.0,1
856,856,0.13183466087225992,0.1,1.0,1.0,382.0,689.0,1.0,1,939.0,1
857,857,0.24657698670602446,0.2,1.0,1.0,322.0,638.0,1.0,1,350.0,1
858,858,-0.5795803088947391,-0.6,0.0,1.0,395.0,980.0,1.0,0,65.0,1
859,859,-0.44349051528304134,-0.4,0.0,1.0,265.0,673.0,1.0,0,332.0,1
860,860,0.015282898463861883,0.0,0.0,0.0,372.0,569.0,1.0,0,849.0,0
861,861,-0.11624026942044008,-0.1,1.0,0.0,453.0,902.0,1.0,1,675.0,0
862,862,-0.04269151547457617,-0.0,1.0,0.0,311.0,717.0,1.0,1,162.0,0
863,863,0.7567799085111223,0.8,1.0,1.0,363.0,897.0,1.0,1,530.0,1
864,864,-0.7420786388777629,-0.7,1.0,0.0,395.0,799.0,0.0,0,156.0,1
865,865,0.868108088147458,0.9,1.0,1.0,252.0,607.0,1.0,1,301.0,1
866,866,0.1520866406106426,0.2,0.0,0.0,319.0,556.0,0.0,1,485.0,1
867,867,-0.2245078964313102,-0.2,0.0,1.0,483.0,599.0,1.0,0,698.0,1
868,868,0.29448889104791387,0.3,1.0,1.0,273.0,836.0,1.0,1,551.0,1
869,869,-0.3587620864349542,-0.4,1.0,0.0,300.0,777.0,0.0,0,433.0,1
870,870,0.5539509530173995,0.6,0.0,0.0,356.0,647.0,0.0,1,467.0,1
871,871,0.24247946124324937,0.2,0.0,0.0,340.0,830.0,0.0,1,960.0,1
872,872,0.04306308214752674,0.0,0.0,0.0,419.0,905.0,1.0,0,496.0,0
873,873,0.04602161176625641,0.0,1.0,1.0,303.0,915.0,1.0,1,162.0,1
874,874,0.5329630919348806,0.5,0.0,0.0,428.0,817.0,0.0,1,755.0,1
875,875,0.8431139218178282,0.8,0.0,0.0,436.0,711.0,0.0,1,243.0,1
876,876,0.05654737488740502,0.1,0.0,0.0,305.0,991.0,1.0,0,684.0,0
877,877,0.2362980142578327,0.2,0.0,0.0,436.0,653.0,1.0,0,811.0,0
878,878,-0.02471408820502552,-0.0,0.0,1.0,352.0,826.0,1.0,0,1162.0,1
879,879,0.6125122608644172,0.6,1.0,1.0,468.0,823.0,1.0,1,289.0,1
880,880,0.20165851301613025,0.2,0.0,0.0,417.0,967.0,1.0,0,306.0,0
881,881,-0.2442747833101433,-0.2,0.0,1.0,446.0,888.0,1.0,0,206.0,1
882,882,-0.8003234555806579,-0.8,0.0,1.0,419.0,999.0,1.0,0,12.0,1
883,883,-0.20620166355901848,-0.2,0.0,1.0,390.0,816.0,1.0,0,364.0,1
884,884,-0.6163318798464005,-0.6,1.0,0.0,311.0,680.0,0.0,0,369.0,1
885,885,-0.441690121492257,-0.4,0.0,1.0,398.0,930.0,1.0,0,752.0,1
886,886,0.24352527847851324,0.2,1.0,1.0,440.0,765.0,1.0,1,215.0,1
887,887,0.8918735039561857,0.9,1.0,1.0,346.0,726.0,1.0,1,248.0,1
888,888,0.7009901421430137,0.7,0.0,0.0,288.0,659.0,0.0,1,383.0,1
889,889,-0.3678306916298778,-0.4,1.0,0.0,304.0,734.0,1.0,1,732.0,0
890,890,0.4891076462017657,0.5,0.0,0.0,366.0,553.0,0.0,1,421.0,1
891,891,0.8753999946226437,0.9,1.0,1.0,300.0,728.0,1.0,1,152.0,1
892,892,-0.6812608627802716,-0.7,1.0,0.0,461.0,593.0,0.0,0,426.0,1
893,893,0.5937700786396923,0.6,1.0,1.0,431.0,716.0,1.0,1,703.0,1
894,894,0.11120884463669445,0.1,1.0,1.0,407.0,698.0,1.0,1,425.0,1
895,895,-0.5051989933418342,-0.5,0.0,1.0,326.0,672.0,1.0,0,252.0,1
896,896,-0.21014935237270727,-0.2,0.0,1.0,493.0,875.0,1.0,0,252.0,1
897,897,-0.7124088696278914,-0.7,1.0,0.0,279.0,561.0,0.0,0,450.0,1
898,898,0.015308110962591437,0.0,0.0,0.0,364.0,706.0,0.0,1,1430.0,1
899,899,0.26072492387587787,0.3,1.0,1.0,329.0,890.0,1.0,1,441.0,1
900,900,0.780462449962417,0.8,0.0,0.0,412.0,585.0,0.0,1,423.0,1
901,901,-0.5827310603794327,-0.6,0.0,1.0,471.0,797.0,1.0,0,192.0,1
902,902,0.046997002062920346,0.0,1.0,1.0,473.0,913.0,1.0,1,194.0,1
903,903,-0.7955466608740249,-0.8,1.0,0.0,316.0,973.0,0.0,0,431.0,1
904,904,0.07230160764220384,0.1,1.0,1.0,321.0,560.0,1.0,1,479.0,1
905,905,0.4141698282617995,0.4,1.0,1.0,253.0,891.0,1.0,1,496.0,1
906,906,-0.6202807738696816,-0.6,0.0,1.0,288.0,517.0,1.0,0,685.0,1
907,907,-0.3627646776414294,-0.4,1.0,0.0,344.0,518.0,0.0,0,538.0,1
908,908,0.21731089963148043,0.2,1.0,1.0,329.0,568.0,1.0,1,633.0,1
909,909,-0.7485253879418775,-0.7,1.0,0.0,373.0,890.0,1.0,1,-43.0,0
910,910,-0.5865236044916211,-0.6,0.0,1.0,416.0,938.0,1.0,0,706.0,1
911,911,-0.4707793097080836,-0.5,0.0,1.0,465.0,998.0,1.0,0,167.0,1
912,912,0.08546701466039242,0.1,0.0,0.0,438.0,901.0,1.0,0,-49.0,0
913,913,0.8012121617691917,0.8,0.0,0.0,251.0,762.0,0.0,1,247.0,1
914,914,-0.5454791809551627,-0.5,1.0,0.0,323.0,856.0,0.0,0,531.0,1
915,915,0.29202549578381254,0.3,1.0,1.0,318.0,552.0,1.0,1,600.0,1
916,916,-0.09322865660294188,-0.1,0.0,1.0,284.0,607.0,1.0,0,2049.0,1
917,917,-0.8661956769293442,-0.9,1.0,0.0,420.0,654.0,0.0,0,546.0,1
918,918,-0.6106839692443047,-0.6,1.0,0.0,428.0,859.0,0.0,0,533.0,1
919,919,0.1001452901220955,0.1,1.0,1.0,278.0,616.0,1.0,1,626.0,1
920,920,-0.7303434012188037,-0.7,0.0,1.0,275.0,698.0,1.0,0,187.0,1
921,921,0.7040080212099614,0.7,1.0,1.0,338.0,847.0,1.0,1,165.0,1
922,922,-0.38530415963546805,-0.4,1.0,0.0,314.0,522.0,0.0,0,634.0,1
923,923,-0.2921075242030692,-0.3,1.0,0.0,446.0,501.0,0.0,0,313.0,1
924,924,0.6991648949162982,0.7,0.0,0.0,451.0,596.0,0.0,1,603.0,1
925,925,0.5384007686251072,0.5,1.0,1.0,312.0,874.0,1.0,1,294.0,1
926,926,-0.7790906310106163,-0.8,1.0,0.0,325.0,801.0,0.0,0,184.0,1
927,927,0.05634150834424145,0.1,0.0,0.0,272.0,532.0,0.0,1,536.0,1
928,928,-0.8592446162189357,-0.9,0.0,1.0,272.0,985.0,0.0,1,13.0,0
929,929,0.4645551272392999,0.5,0.0,0.0,455.0,999.0,0.0,1,226.0,1
930,930,-0.6766557409714774,-0.7,0.0,1.0,266.0,608.0,1.0,0,566.0,1
931,931,0.6958079064776276,0.7,1.0,1.0,357.0,682.0,1.0,1,331.0,1
932,932,-0.8965352923073504,-0.9,0.0,1.0,271.0,520.0,1.0,0,359.0,1
933,933,-0.05473992276672812,-0.1,1.0,0.0,316.0,921.0,1.0,1,213.0,0
934,934,0.2820593711384666,0.3,1.0,1.0,335.0,951.0,1.0,1,824.0,1
935,935,-0.28676081914915763,-0.3,1.0,0.0,462.0,845.0,0.0,0,213.0,1
936,936,0.5161557842708283,0.5,1.0,1.0,327.0,832.0,1.0,1,131.0,1
937,937,-0.5133066422478836,-0.5,0.0,1.0,443.0,904.0,1.0,0,273.0,1
938,938,-0.09297127244622139,-0.1,1.0,0.0,444.0,996.0,1.0,1,550.0,0
939,939,-0.1723561617429773,-0.2,1.0,0.0,370.0,540.0,1.0,1,1700.0,0
940,940,-0.7948434495505892,-0.8,1.0,0.0,493.0,658.0,0.0,0,359.0,1
941,941,0.5413514095040578,0.5,1.0,1.0,321.0,540.0,1.0,1,1229.0,1
942,942,0.7223944127087606,0.7,1.0,1.0,369.0,897.0,1.0,1,184.0,1
943,943,0.1533016126213934,0.2,1.0,1.0,382.0,638.0,0.0,0,300.0,0
944,944,0.8975745357273227,0.9,0.0,0.0,478.0,871.0,0.0,1,401.0,1
945,945,0.19294087173422791,0.2,0.0,0.0,376.0,968.0,0.0,1,726.0,1
946,946,-0.8309786281338952,-0.8,1.0,0.0,368.0,611.0,0.0,0,351.0,1
947,947,0.1770703199161866,0.2,0.0,0.0,346.0,660.0,0.0,1,2554.0,1
948,948,-0.6078100971227689,-0.6,1.0,0.0,339.0,883.0,0.0,0,558.0,1
949,949,-0.665592881908764,-0.7,1.0,0.0,458.0,752.0,0.0,0,610.0,1
950,950,-0.7392190641015681,-0.7,0.0,1.0,300.0,793.0,1.0,0,377.0,1
951,951,0.07862642337593062,0.1,0.0,0.0,338.0,986.0,0.0,1,396.0,1
952,952,0.04249561828803783,0.0,0.0,0.0,492.0,723.0,1.0,0,405.0,0
953,953,-0.49989858971527096,-0.5,1.0,0.0,425.0,790.0,0.0,0,595.0,1
954,954,0.2583216868423156,0.3,1.0,1.0,347.0,713.0,1.0,1,300.0,1
955,955,-0.5397958056306111,-0.5,1.0,0.0,346.0,820.0,0.0,0,504.0,1
956,956,-0.4342026669915033,-0.4,0.0,1.0,349.0,576.0,1.0,0,535.0,1
957,957,-0.6755905151903054,-0.7,0.0,1.0,360.0,583.0,1.0,0,937.0,1
958,958,0.662643544740985,0.7,0.0,0.0,441.0,568.0,0.0,1,391.0,1
959,959,0.307017790056335,0.3,1.0,1.0,434.0,823.0,1.0,1,173.0,1
960,960,-0.17188347828631845,-0.2,1.0,0.0,298.0,524.0,1.0,1,1268.0,0
961,961,-0.5250652811177465,-0.5,1.0,0.0,452.0,616.0,0.0,0,1022.0,1
962,962,-0.36264528143276953,-0.4,0.0,1.0,415.0,822.0,1.0,0,253.0,1
963,963,-0.4462502314492574,-0.4,0.0,1.0,412.0,811.0,1.0,0,407.0,1
964,964,-0.3033624684395405,-0.3,1.0,0.0,388.0,596.0,0.0,0,546.0,1
965,965,-0.8092706137251084,-0.8,1.0,0.0,391.0,912.0,1.0,1,207.0,0
966,966,0.48943011814631243,0.5,1.0,1.0,300.0,823.0,1.0,1,257.0,1
967,967,0.25321936675682666,0.3,0.0,0.0,331.0,676.0,0.0,1,593.0,1
968,968,-0.11986380491155146,-0.1,1.0,0.0,304.0,884.0,1.0,1,772.0,0
969,969,-0.3662498414627855,-0.4,0.0,1.0,262.0,917.0,1.0,0,-69.0,1
970,970,0.27631886543752093,0.3,1.0,1.0,303.0,854.0,0.0,0,1983.0,0
971,971,-0.7965052256466896,-0.8,1.0,0.0,420.0,782.0,0.0,0,758.0,1
972,972,-0.1965886605957624,-0.2,1.0,0.0,469.0,689.0,1.0,1,312.0,0
973,973,0.5681606751362808,0.6,0.0,0.0,328.0,960.0,0.0,1,282.0,1
974,974,-0.6544751254313398,-0.7,1.0,0.0,334.0,993.0,0.0,0,823.0,1
975,975,0.39019371253683743,0.4,0.0,0.0,326.0,789.0,0.0,1,625.0,1
976,976,-0.10684243881234301,-0.1,0.0,1.0,498.0,718.0,1.0,0,634.0,1
977,977,0.20344794032643254,0.2,1.0,1.0,451.0,769.0,1.0,1,640.0,1
978,978,-0.2425969399165795,-0.2,1.0,0.0,435.0,874.0,0.0,0,621.0,1
979,979,-0.7230668280078865,-0.7,1.0,0.0,489.0,754.0,0.0,0,487.0,1
980,980,-0.09986843901811104,-0.1,1.0,0.0,452.0,536.0,0.0,0,392.0,1
981,981,0.6432906962756803,0.6,0.0,0.0,483.0,949.0,0.0,1,518.0,1
982,982,0.813868711955322,0.8,0.0,0.0,386.0,658.0,0.0,1,456.0,1
983,983,0.5697524408522742,0.6,1.0,1.0,270.0,639.0,1.0,1,331.0,1
984,984,0.8334687630894667,0.8,0.0,0.0,470.0,630.0,0.0,1,380.0,1
985,985,-0.20881817661538138,-0.2,1.0,0.0,356.0,720.0,0.0,0,754.0,1
986,986,-0.8845595582112608,-0.9,0.0,1.0,434.0,967.0,1.0,0,109.0,1
987,987,-0.39922139601617834,-0.4,0.0,1.0,339.0,783.0,1.0,0,448.0,1
988,988,-0.3920786572717958,-0.4,1.0,0.0,323.0,954.0,0.0,0,563.0,1
989,989,0.7943475799073308,0.8,1.0,1.0,363.0,673.0,1.0,1,504.0,1
990,990,0.17741060051925273,0.2,0.0,0.0,290.0,571.0,0.0,1,549.0,1
991,991,-0.8581000882894916,-0.9,0.0,1.0,430.0,980.0,1.0,0,240.0,1
992,992,0.4548478803077086,0.5,0.0,0.0,282.0,793.0,0.0,1,725.0,1
993,993,0.13444375088315452,0.1,0.0,0.0,495.0,516.0,1.0,0,469.0,0
994,994,-0.8839887877172948,-0.9,1.0,0.0,416.0,742.0,0.0,0,312.0,1
995,995,0.12735378437548273,0.1,1.0,1.0,359.0,809.0,1.0,1,1072.0,1
996,996,-0.7646827072277251,-0.8,1.0,0.0,289.0,717.0,0.0,0,494.0,1
997,997,-0.32925969556027834,-0.3,1.0,0.0,255.0,894.0,0.0,0,681.0,1
998,998,-0.5003062751924265,-0.5,0.0,1.0,334.0,539.0,1.0,0,707.0,1
999,999,0.7059247008597304,0.7,1.0,1.0,321.0,658.0,1.0,1,121.0,1
1000,1000,-0.11043082242880053,-0.1,0.0,1.0,425.0,754.0,1.0,0,401.0,1
1001,1001,0.1472488948966889,0.1,0.0,0.0,444.0,802.0,1.0,0,644.0,0
1002,1002,-0.312285292679115,-0.3,1.0,0.0,443.0,764.0,1.0,1,1193.0,0
1003,1003,-0.8736651136705728,-0.9,1.0,0.0,404.0,982.0,1.0,1,-26.0,0
1004,1004,-0.8178647890731653,-0.8,0.0,1.0,253.0,505.0,1.0,0,432.0,1
1005,1005,0.5870226787347937,0.6,1.0,1.0,360.0,556.0,1.0,1,504.0,1
1006,1006,0.02206187618969524,0.0,0.0,0.0,435.0,772.0,0.0,1,463.0,1
1007,1007,0.24472730921583874,0.2,0.0,0.0,368.0,784.0,1.0,0,798.0,0
1008,1008,0.7910926472491268,0.8,1.0,1.0,268.0,530.0,1.0,1,462.0,1
1009,1009,0.6487205587115311,0.6,1.0,1.0,290.0,610.0,1.0,1,470.0,1
1010,1010,-0.8844570792831552,-0.9,1.0,0.0,293.0,588.0,0.0,0,429.0,1
1011,1011,-0.5300625036817754,-0.5,1.0,0.0,466.0,743.0,0.0,0,231.0,1
1012,1012,-0.29720104363057254,-0.3,0.0,1.0,346.0,758.0,1.0,0,176.0,1
1013,1013,-0.3111738781432999,-0.3,0.0,1.0,414.0,838.0,1.0,0,308.0,1
1014,1014,-0.5131689501036567,-0.5,0.0,1.0,389.0,927.0,1.0,0,164.0,1
1015,1015,-0.4855468963115111,-0.5,1.0,0.0,469.0,551.0,0.0,0,670.0,1
1016,1016,0.2839548100516086,0.3,1.0,1.0,497.0,705.0,1.0,1,768.0,1
1017,1017,0.8859330096786188,0.9,1.0,1.0,405.0,816.0,1.0,1,229.0,1
1018,1018,0.32287780423321866,0.3,0.0,0.0,498.0,688.0,0.0,1,604.0,1
1019,1019,0.8910929653325451,0.9,1.0,1.0,382.0,640.0,1.0,1,298.0,1
1020,1020,-0.2858295581568905,-0.3,1.0,0.0,471.0,749.0,0.0,0,660.0,1
1021,1021,0.11430731486052526,0.1,1.0,1.0,324.0,568.0,1.0,1,518.0,1
1022,1022,0.4123264268724359,0.4,1.0,1.0,467.0,665.0,1.0,1,238.0,1
1023,1023,0.8233910285346459,0.8,0.0,0.0,312.0,934.0,0.0,1,244.0,1
1024,1024,-0.6426073991943302,-0.6,1.0,0.0,273.0,828.0,0.0,0,149.0,1
1025,1025,-0.7683130566131304,-0.8,1.0,0.0,388.0,775.0,0.0,0,287.0,1
1026,1026,0.07916399300604904,0.1,0.0,0.0,342.0,860.0,1.0,0,278.0,0
1027,1027,0.09290377922330317,0.1,1.0,1.0,250.0,805.0,1.0,1,265.0,1
1028,1028,0.6189053843279934,0.6,1.0,1.0,317.0,986.0,1.0,1,207.0,1
1029,1029,0.5773316985170366,0.6,0.0,0.0,260.0,933.0,0.0,1,317.0,1
1030,1030,0.6040494809519131,0.6,0.0,0.0,440.0,834.0,0.0,1,936.0,1
1031,1031,0.37493305807588817,0.4,1.0,1.0,385.0,524.0,1.0,1,461.0,1
1032,1032,-0.8274131670284022,-0.8,1.0,0.0,448.0,758.0,0.0,0,254.0,1
1033,1033,0.11857058310688917,0.1,0.0,0.0,252.0,526.0,0.0,1,1322.0,1
1034,1034,-0.2372593512147506,-0.2,1.0,0.0,331.0,574.0,1.0,1,605.0,0
1035,1035,-0.794824364650783,-0.8,1.0,0.0,409.0,561.0,0.0,0,550.0,1
1036,1036,0.8140762348329665,0.8,1.0,1.0,268.0,965.0,1.0,1,77.0,1
1037,1037,0.7114897329473183,0.7,1.0,1.0,364.0,886.0,1.0,1,160.0,1
1038,1038,-0.057939876649325206,-0.1,1.0,0.0,495.0,641.0,1.0,1,1344.0,0
1039,1039,-0.031381511164579656,-0.0,1.0,0.0,334.0,600.0,1.0,1,916.0,0
1040,1040,0.06936856756520182,0.1,0.0,0.0,359.0,956.0,0.0,1,135.0,1
1041,1041,0.13489920179609538,0.1,0.0,0.0,469.0,950.0,0.0,1,61.0,1
1042,1042,0.2682658335189868,0.3,1.0,1.0,410.0,599.0,1.0,1,951.0,1
1043,1043,-0.4013994968156286,-0.4,0.0,1.0,250.0,643.0,1.0,0,407.0,1
1044,1044,-0.0954236452475139,-0.1,0.0,1.0,296.0,600.0,1.0,0,154.0,1
1045,1045,0.40827946665382775,0.4,1.0,1.0,287.0,655.0,1.0,1,428.0,1
1046,1046,-0.24158663022713822,-0.2,0.0,1.0,316.0,813.0,1.0,0,111.0,1
1047,1047,-0.6857938836557161,-0.7,1.0,0.0,358.0,699.0,0.0,0,513.0,1
1048,1048,-0.3023739639122214,-0.3,0.0,1.0,374.0,786.0,1.0,0,550.0,1
1049,1049,-0.7826584429988307,-0.8,0.0,1.0,319.0,823.0,1.0,0,328.0,1
1050,1050,-0.38630367911652164,-0.4,0.0,1.0,307.0,992.0,1.0,0,541.0,1
1051,1051,-0.6622794416884582,-0.7,1.0,0.0,479.0,661.0,0.0,0,530.0,1
1052,1052,0.021580414105042744,0.0,0.0,0.0,291.0,577.0,1.0,0,502.0,0
1053,1053,-0.06217643402634376,-0.1,0.0,1.0,322.0,732.0,0.0,1,736.0,0
1054,1054,-0.8518609054042122,-0.9,0.0,1.0,455.0,931.0,1.0,0,204.0,1
1055,1055,0.5932835556115251,0.6,0.0,0.0,384.0,965.0,0.0,1,21.0,1
1056,1056,-0.17457762441002145,-0.2,0.0,1.0,400.0,853.0,0.0,1,607.0,0
1057,1057,-0.398527000341211,-0.4,1.0,0.0,431.0,594.0,0.0,0,585.0,1
1058,1058,-0.5733497594351296,-0.6,0.0,1.0,368.0,522.0,1.0,0,640.0,1
1059,1059,0.3428373801045862,0.3,1.0,1.0,450.0,846.0,1.0,1,214.0,1
1060,1060,-0.053839048920728216,-0.1,1.0,0.0,309.0,712.0,1.0,1,669.0,0
1061,1061,0.2988798095615669,0.3,0.0,0.0,336.0,622.0,0.0,1,502.0,1
1062,1062,-0.7758970858243048,-0.8,0.0,1.0,388.0,968.0,1.0,0,194.0,1
1063,1063,-0.3219062860258184,-0.3,1.0,0.0,382.0,993.0,0.0,0,505.0,1
1064,1064,0.382513075642985,0.4,0.0,0.0,408.0,848.0,0.0,1,694.0,1
1065,1065,0.48908423483829344,0.5,1.0,1.0,351.0,541.0,1.0,1,808.0,1
1066,1066,-0.11432106926334962,-0.1,0.0,1.0,340.0,867.0,0.0,1,43.0,0
1067,1067,0.027014661064775236,0.0,1.0,1.0,408.0,833.0,1.0,1,2019.0,1
1068,1068,0.601656580560861,0.6,1.0,1.0,459.0,890.0,1.0,1,-9.0,1
1069,1069,0.5375290169295946,0.5,1.0,1.0,397.0,789.0,1.0,1,274.0,1
1070,1070,-0.5416002029303202,-0.5,1.0,0.0,391.0,978.0,0.0,0,771.0,1
1071,1071,-0.8799491490157203,-0.9,0.0,1.0,448.0,927.0,1.0,0,145.0,1
1072,1072,0.3017352025948662,0.3,0.0,0.0,299.0,862.0,0.0,1,149.0,1
1073,1073,0.21511839745389072,0.2,1.0,1.0,434.0,720.0,1.0,1,256.0,1
1074,1074,-0.8982254621263386,-0.9,1.0,0.0,270.0,613.0,0.0,0,1237.0,1
1075,1075,0.41859731809391343,0.4,0.0,0.0,281.0,855.0,0.0,1,394.0,1
1076,1076,0.785098055869094,0.8,0.0,0.0,337.0,923.0,0.0,1,570.0,1
1077,1077,-0.7216970466563508,-0.7,1.0,0.0,402.0,950.0,1.0,1,598.0,0
1078,1078,-0.2577215490489134,-0.3,0.0,1.0,482.0,969.0,1.0,0,119.0,1
1079,1079,-0.16552126680767876,-0.2,0.0,1.0,309.0,602.0,1.0,0,309.0,1
1080,1080,-0.8057052582838906,-0.8,1.0,0.0,337.0,751.0,0.0,0,632.0,1
1081,1081,-0.1867410258548874,-0.2,0.0,1.0,325.0,520.0,1.0,0,925.0,1
1082,1082,0.5543283707943015,0.6,0.0,0.0,452.0,898.0,0.0,1,620.0,1
1083,1083,0.5236122825086292,0.5,0.0,0.0,491.0,816.0,0.0,1,543.0,1
1084,1084,0.8617978271924284,0.9,1.0,1.0,407.0,613.0,1.0,1,210.0,1
1085,1085,0.4958776101348722,0.5,0.0,0.0,351.0,751.0,0.0,1,408.0,1
1086,1086,-0.10247523960602334,-0.1,0.0,1.0,488.0,927.0,1.0,0,15.0,1
1087,1087,0.6095387022293274,0.6,0.0,0.0,288.0,646.0,0.0,1,446.0,1
1088,1088,0.5101699887776859,0.5,1.0,1.0,471.0,856.0,1.0,1,123.0,1
1089,1089,-0.09483463142768556,-0.1,1.0,0.0,445.0,549.0,1.0,1,916.0,0
1090,1090,-0.2412552529429116,-0.2,0.0,1.0,337.0,915.0,1.0,0,208.0,1
1091,1091,-0.05953967505438895,-0.1,1.0,0.0,251.0,525.0,1.0,1,824.0,0
1092,1092,0.4241974672575456,0.4,1.0,1.0,379.0,971.0,1.0,1,190.0,1
1093,1093,-0.5429006111862285,-0.5,1.0,0.0,477.0,636.0,0.0,0,237.0,1
1094,1094,-0.32864667389344016,-0.3,1.0,0.0,354.0,752.0,0.0,0,604.0,1
1095,1095,0.13938977379978212,0.1,1.0,1.0,408.0,837.0,1.0,1,405.0,1
1096,1096,-0.057307341023815295,-0.1,1.0,0.0,388.0,651.0,1.0,1,591.0,0
1097,1097,-0.5039767857837943,-0.5,1.0,0.0,350.0,560.0,0.0,0,460.0,1
1098,1098,0.5476921161820373,0.5,1.0,1.0,413.0,805.0,1.0,1,732.0,1
1099,1099,-0.8252292333418972,-0.8,1.0,0.0,252.0,871.0,0.0,0,587.0,1
1100,1100,0.5853483907872244,0.6,0.0,0.0,343.0,750.0,0.0,1,507.0,1
1101,1101,-0.14760419502864397,-0.1,0.0,1.0,273.0,881.0,1.0,0,366.0,1
1102,1102,0.8905934777872201,0.9,0.0,0.0,314.0,944.0,0.0,1,192.0,1
1103,1103,0.4301484835248842,0.4,1.0,1.0,427.0,822.0,1.0,1,281.0,1
1104,1104,0.8001558306300117,0.8,1.0,1.0,480.0,648.0,1.0,1,382.0,1
1105,1105,0.7785019081213781,0.8,1.0,1.0,311.0,701.0,1.0,1,118.0,1
1106,1106,0.6468095534531174,0.6,0.0,0.0,312.0,994.0,1.0,0,-76.0,0
1107,1107,-0.33492781967407315,-0.3,0.0,1.0,417.0,534.0,1.0,0,609.0,1
1108,1108,-0.009707643092119356,-0.0,0.0,1.0,423.0,939.0,1.0,0,1118.0,1
1109,1109,0.07562692933013448,0.1,1.0,1.0,468.0,771.0,1.0,1,411.0,1
1110,1110,-0.2117492208421975,-0.2,1.0,0.0,336.0,661.0,0.0,0,763.0,1
1111,1111,-0.3059896308659814,-0.3,0.0,1.0,482.0,571.0,1.0,0,507.0,1
1112,1112,0.1987665001312383,0.2,1.0,1.0,416.0,927.0,1.0,1,657.0,1
1113,1113,-0.7804346891429892,-0.8,0.0,1.0,441.0,963.0,1.0,0,296.0,1
1114,1114,-0.4501853978207598,-0.5,0.0,1.0,415.0,646.0,1.0,0,539.0,1
1115,1115,0.5129275695332413,0.5,0.0,0.0,420.0,644.0,0.0,1,566.0,1
1116,1116,-0.18079002571592917,-0.2,0.0,1.0,469.0,939.0,1.0,0,152.0,1
1117,1117,0.3853838050130819,0.4,0.0,0.0,476.0,874.0,0.0,1,230.0,1
1118,1118,0.8169245675562194,0.8,0.0,0.0,344.0,663.0,0.0,1,293.0,1
1119,1119,-0.3160817053136892,-0.3,1.0,0.0,471.0,822.0,0.0,0,617.0,1
1120,1120,-0.6965278118747432,-0.7,1.0,0.0,354.0,670.0,0.0,0,436.0,1
1121,1121,-0.7427402808562474,-0.7,0.0,1.0,308.0,796.0,1.0,0,196.0,1
1122,1122,-0.5219815268373498,-0.5,0.0,1.0,348.0,671.0,1.0,0,961.0,1
1123,1123,0.31355900236779843,0.3,1.0,1.0,430.0,738.0,1.0,1,432.0,1
1124,1124,0.0461746429080232,0.0,0.0,0.0,250.0,775.0,0.0,1,885.0,1
1125,1125,-0.213755882213452,-0.2,0.0,1.0,367.0,777.0,1.0,0,756.0,1
1126,1126,-0.6981527650364864,-0.7,0.0,1.0,452.0,513.0,1.0,0,495.0,1
1127,1127,-0.6278900481767485,-0.6,0.0,1.0,364.0,543.0,1.0,0,443.0,1
1128,1128,-0.37177936806089296,-0.4,1.0,0.0,302.0,999.0,1.0,1,279.0,0
1129,1129,-0.7813516747321986,-0.8,1.0,0.0,281.0,733.0,0.0,0,376.0,1
1130,1130,-0.6644050723283147,-0.7,1.0,0.0,482.0,962.0,1.0,1,56.0,0
1131,1131,0.6406917852299062,0.6,1.0,1.0,430.0,985.0,1.0,1,475.0,1
1132,1132,0.6845361620988274,0.7,0.0,0.0,338.0,675.0,0.0,1,647.0,1
1133,1133,-0.6803170798571045,-0.7,0.0,1.0,250.0,618.0,1.0,0,362.0,1
1134,1134,-0.29980342324917775,-0.3,0.0,1.0,286.0,696.0,1.0,0,598.0,1
1135,1135,-0.614409934407697,-0.6,0.0,1.0,280.0,597.0,1.0,0,503.0,1
1136,1136,-0.3370164975766248,-0.3,1.0,0.0,353.0,760.0,0.0,0,487.0,1
1137,1137,0.2543784024057033,0.3,0.0,0.0,325.0,609.0,1.0,0,716.0,0
1138,1138,-0.2626973493784567,-0.3,0.0,1.0,324.0,697.0,1.0,0,319.0,1
1139,1139,-0.8859117390501398,-0.9,1.0,0.0,494.0,583.0,0.0,0,343.0,1
1140,1140,0.07352765037145015,0.1,1.0,1.0,357.0,787.0,1.0,1,246.0,1
1141,1141,-0.0726377723776761,-0.1,1.0,0.0,492.0,859.0,0.0,0,309.0,1
1142,1142,-0.7282587040100866,-0.7,1.0,0.0,451.0,802.0,0.0,0,767.0,1
1143,1143,0.8417868009203747,0.8,0.0,0.0,307.0,885.0,0.0,1,128.0,1
1144,1144,-0.28086030259138384,-0.3,1.0,0.0,485.0,894.0,0.0,0,551.0,1
1145,1145,0.5948068491487916,0.6,1.0,1.0,394.0,564.0,1.0,1,422.0,1
1146,1146,0.24243557930738924,0.2,1.0,1.0,268.0,846.0,1.0,1,376.0,1
1147,1147,0.37857038484592376,0.4,1.0,1.0,421.0,886.0,1.0,1,333.0,1
1148,1148,0.2926460742703464,0.3,1.0,1.0,339.0,507.0,1.0,1,814.0,1
1149,1149,-0.026806752298952463,-0.0,0.0,1.0,479.0,951.0,1.0,0,230.0,1
1150,1150,-0.008025434675373089,-0.0,1.0,0.0,270.0,969.0,1.0,1,121.0,0
1151,1151,0.41360858769787023,0.4,0.0,0.0,279.0,733.0,0.0,1,278.0,1
1152,1152,-0.4170377058766836,-0.4,0.0,1.0,484.0,640.0,1.0,0,326.0,1
1153,1153,0.7691578466602585,0.8,1.0,1.0,267.0,691.0,1.0,1,252.0,1
1154,1154,-0.7365000001352766,-0.7,1.0,0.0,336.0,643.0,0.0,0,481.0,1
1155,1155,0.653082955361533,0.7,1.0,1.0,343.0,629.0,1.0,1,418.0,1
1156,1156,-0.8362489407954274,-0.8,1.0,0.0,444.0,825.0,0.0,0,151.0,1
1157,1157,-0.508615396226475,-0.5,1.0,0.0,408.0,589.0,0.0,0,253.0,1
1158,1158,0.5640289636831638,0.6,0.0,0.0,457.0,771.0,1.0,0,182.0,0
1159,1159,-0.14578135229205313,-0.1,0.0,1.0,325.0,513.0,1.0,0,742.0,1
1160,1160,-0.09729929584478458,-0.1,1.0,0.0,314.0,909.0,0.0,0,187.0,1
1161,1161,0.3425251926941416,0.3,0.0,0.0,420.0,999.0,1.0,0,1031.0,0
1162,1162,-0.42720640465752746,-0.4,1.0,0.0,315.0,932.0,1.0,1,-47.0,0
1163,1163,0.28623873562147006,0.3,0.0,0.0,413.0,933.0,0.0,1,514.0,1
1164,1164,-0.04882563580475152,-0.0,1.0,0.0,458.0,700.0,1.0,1,302.0,0
1165,1165,0.08148179043357207,0.1,1.0,1.0,317.0,756.0,1.0,1,287.0,1
1166,1166,-0.15024510972698235,-0.2,1.0,0.0,413.0,742.0,1.0,1,975.0,0
1167,1167,-0.33518091764468727,-0.3,0.0,1.0,308.0,561.0,1.0,0,401.0,1
1168,1168,0.8904671584052505,0.9,1.0,1.0,479.0,642.0,1.0,1,349.0,1
1169,1169,0.25232755121685,0.3,1.0,1.0,370.0,768.0,1.0,1,182.0,1
1170,1170,0.38869293501773405,0.4,1.0,1.0,316.0,766.0,1.0,1,258.0,1
1171,1171,0.0974851717150248,0.1,0.0,0.0,493.0,670.0,0.0,1,1367.0,1
1172,1172,0.5634608530276349,0.6,1.0,1.0,396.0,594.0,1.0,1,450.0,1
1173,1173,0.5657846998202011,0.6,0.0,0.0,320.0,725.0,0.0,1,325.0,1
1174,1174,-0.6530398852785725,-0.7,0.0,1.0,378.0,825.0,1.0,0,227.0,1
1175,1175,0.3921792549484485,0.4,0.0,0.0,347.0,722.0,0.0,1,571.0,1
1176,1176,-0.8674308219828021,-0.9,1.0,0.0,471.0,717.0,0.0,0,852.0,1
1177,1177,-0.7178296665110946,-0.7,1.0,0.0,265.0,844.0,0.0,0,601.0,1
1178,1178,-0.13529828360304708,-0.1,1.0,0.0,382.0,866.0,1.0,1,512.0,0
1179,1179,0.6959946834153868,0.7,1.0,1.0,374.0,688.0,1.0,1,278.0,1
1180,1180,0.4970016163667389,0.5,0.0,0.0,293.0,987.0,0.0,1,-60.0,1
1181,1181,-0.500275608696612,-0.5,0.0,1.0,260.0,880.0,1.0,0,50.0,1
1182,1182,0.022445161136016245,0.0,0.0,0.0,398.0,742.0,1.0,0,410.0,0
1183,1183,-0.6895044028808393,-0.7,1.0,0.0,410.0,808.0,0.0,0,932.0,1
1184,1184,0.7182242804651148,0.7,0.0,0.0,444.0,760.0,0.0,1,516.0,1
1185,1185,-0.19325994874794206,-0.2,0.0,1.0,312.0,838.0,1.0,0,20.0,1
1186,1186,0.5085360647265827,0.5,0.0,0.0,494.0,833.0,0.0,1,113.0,1
1187,1187,0.7635365579453165,0.8,1.0,1.0,490.0,608.0,1.0,1,442.0,1
1188,1188,0.4562071260732051,0.5,0.0,0.0,314.0,889.0,1.0,0,797.0,0
1189,1189,-0.732278009213887,-0.7,0.0,1.0,252.0,932.0,1.0,0,736.0,1
1190,1190,0.46811937190615616,0.5,0.0,0.0,431.0,607.0,0.0,1,542.0,1
1191,1191,0.15385884190412036,0.2,0.0,0.0,327.0,638.0,0.0,1,1285.0,1
1192,1192,-0.4414835465879209,-0.4,1.0,0.0,384.0,518.0,1.0,1,718.0,0
1193,1193,-0.18219719359287467,-0.2,0.0,1.0,493.0,733.0,1.0,0,484.0,1
1194,1194,0.13988859370826934,0.1,1.0,1.0,326.0,820.0,1.0,1,94.0,1
1195,1195,0.5919614147463007,0.6,1.0,1.0,338.0,911.0,1.0,1,31.0,1
1196,1196,0.7627517180441244,0.8,1.0,1.0,347.0,622.0,1.0,1,791.0,1
1197,1197,0.729618121729806,0.7,0.0,0.0,297.0,603.0,0.0,1,840.0,1
1198,1198,-0.5198882444409878,-0.5,1.0,0.0,370.0,831.0,0.0,0,809.0,1
1199,1199,0.8179830635446391,0.8,0.0,0.0,435.0,544.0,0.0,1,711.0,1
1200,1200,0.4568493471662044,0.5,0.0,0.0,318.0,742.0,0.0,1,580.0,1
1201,1201,0.41787038256143083,0.4,1.0,1.0,487.0,910.0,1.0,1,343.0,1
1202,1202,0.8260247538977158,0.8,0.0,0.0,334.0,886.0,0.0,1,170.0,1
1203,1203,-0.5311672991876852,-0.5,1.0,0.0,480.0,926.0,0.0,0,414.0,1
1204,1204,0.6224733303666917,0.6,1.0,1.0,489.0,677.0,1.0,1,244.0,1
1205,1205,-0.35393169331700236,-0.4,0.0,1.0,441.0,998.0,1.0,0,151.0,1
1206,1206,0.6089220342178306,0.6,1.0,1.0,256.0,713.0,1.0,1,281.0,1
1207,1207,-0.6460080156727415,-0.6,1.0,0.0,293.0,923.0,0.0,0,354.0,1
1208,1208,-0.15799665506173777,-0.2,1.0,0.0,496.0,551.0,0.0,0,2323.0,1
1209,1209,0.7658691899671822,0.8,1.0,1.0,289.0,847.0,1.0,1,174.0,1
1210,1210,0.3085842997432354,0.3,1.0,1.0,451.0,747.0,1.0,1,332.0,1
1211,1211,-0.6433662945141743,-0.6,0.0,1.0,450.0,994.0,1.0,0,106.0,1
1212,1212,-0.6223452455841938,-0.6,1.0,0.0,439.0,963.0,1.0,1,-32.0,0
1213,1213,-0.8755833973204354,-0.9,1.0,0.0,430.0,686.0,0.0,0,464.0,1
1214,1214,-0.1920869636503777,-0.2,0.0,1.0,414.0,817.0,1.0,0,279.0,1
1215,1215,0.20940831850793085,0.2,1.0,1.0,364.0,882.0,1.0,1,474.0,1
1216,1216,-0.3748964272899947,-0.4,1.0,0.0,274.0,764.0,0.0,0,822.0,1
1217,1217,-0.7850804340536861,-0.8,0.0,1.0,273.0,779.0,1.0,0,288.0,1
1218,1218,0.7411160839749739,0.7,0.0,0.0,410.0,820.0,0.0,1,230.0,1
1219,1219,-0.811442819454059,-0.8,0.0,1.0,308.0,791.0,1.0,0,281.0,1
1220,1220,0.06893629858744799,0.1,0.0,0.0,381.0,812.0,0.0,1,687.0,1
1221,1221,0.39952468875863134,0.4,0.0,0.0,336.0,904.0,1.0,0,-40.0,0
1222,1222,0.6177068822187196,0.6,1.0,1.0,384.0,949.0,1.0,1,87.0,1
1223,1223,0.34581494958873893,0.3,1.0,1.0,325.0,796.0,1.0,1,309.0,1
1224,1224,-0.5968855331198681,-0.6,0.0,1.0,460.0,720.0,0.0,1,340.0,0
1225,1225,-0.5666821240496305,-0.6,0.0,1.0,409.0,787.0,1.0,0,794.0,1
1226,1226,-0.48401627663124236,-0.5,1.0,0.0,479.0,638.0,0.0,0,803.0,1
1227,1227,0.19608489736269485,0.2,0.0,0.0,288.0,851.0,0.0,1,871.0,1
1228,1228,0.005549419383922616,0.0,1.0,1.0,308.0,679.0,1.0,1,903.0,1
1229,1229,-0.22840166812027562,-0.2,0.0,1.0,295.0,660.0,1.0,0,545.0,1
1230,1230,0.8982079371782837,0.9,0.0,0.0,325.0,876.0,0.0,1,279.0,1
1231,1231,-0.11127767964331436,-0.1,0.0,1.0,451.0,883.0,1.0,0,696.0,1
1232,1232,0.33527617906738894,0.3,0.0,0.0,498.0,989.0,0.0,1,693.0,1
1233,1233,-0.5411936319002342,-0.5,0.0,1.0,276.0,763.0,1.0,0,201.0,1
1234,1234,0.4498836383608976,0.4,1.0,1.0,264.0,875.0,0.0,0,111.0,0
1235,1235,0.6760181641110691,0.7,1.0,1.0,281.0,898.0,1.0,1,201.0,1
1236,1236,-0.7009201799375964,-0.7,1.0,0.0,389.0,758.0,0.0,0,213.0,1
1237,1237,-0.404370502380563,-0.4,0.0,1.0,367.0,632.0,1.0,0,371.0,1
1238,1238,-0.6339631409883052,-0.6,1.0,0.0,331.0,752.0,0.0,0,287.0,1
1239,1239,0.3646280144435504,0.4,1.0,1.0,326.0,908.0,1.0,1,766.0,1
1240,1240,-0.1764978577508154,-0.2,0.0,1.0,468.0,699.0,1.0,0,123.0,1
1241,1241,0.6363454646017598,0.6,0.0,0.0,296.0,862.0,0.0,1,232.0,1
1242,1242,-0.691859365569995,-0.7,0.0,1.0,339.0,940.0,1.0,0,351.0,1
1243,1243,-0.4278514052018619,-0.4,1.0,0.0,375.0,524.0,0.0,0,901.0,1
1244,1244,-0.2663520513214652,-0.3,1.0,0.0,337.0,845.0,1.0,1,548.0,0
1245,1245,0.6803983750148367,0.7,1.0,1.0,317.0,801.0,1.0,1,512.0,1
1246,1246,0.676026034024325,0.7,0.0,0.0,447.0,672.0,0.0,1,241.0,1
1247,1247,-0.0409193660227094,-0.0,1.0,0.0,253.0,555.0,1.0,1,672.0,0
1248,1248,-0.5466704852854163,-0.5,1.0,0.0,468.0,775.0,1.0,1,407.0,0
1249,1249,0.47964319751155304,0.5,0.0,0.0,469.0,605.0,0.0,1,866.0,1
1250,1250,0.09421363876248778,0.1,0.0,0.0,443.0,733.0,0.0,1,264.0,1
1251,1251,0.4439387854115139,0.4,1.0,1.0,366.0,816.0,1.0,1,438.0,1
1252,1252,0.12654945462419598,0.1,0.0,0.0,406.0,899.0,0.0,1,195.0,1
1253,1253,0.32866640499796274,0.3,0.0,0.0,297.0,861.0,0.0,1,512.0,1
1254,1254,-0.3775953399520334,-0.4,0.0,1.0,366.0,894.0,1.0,0,390.0,1
1255,1255,0.07297610722246917,0.1,1.0,1.0,401.0,620.0,1.0,1,509.0,1
1256,1256,0.1634915093108268,0.2,0.0,0.0,296.0,919.0,1.0,0,175.0,0
1257,1257,-0.522408881519753,-0.5,1.0,0.0,451.0,535.0,0.0,0,454.0,1
1258,1258,-0.18738626688391857,-0.2,1.0,0.0,342.0,674.0,1.0,1,774.0,0
1259,1259,-0.2034176609969165,-0.2,1.0,0.0,321.0,624.0,1.0,1,865.0,0
1260,1260,-0.3750151648363148,-0.4,1.0,0.0,378.0,781.0,0.0,0,221.0,1
1261,1261,0.8346169489405911,0.8,1.0,1.0,282.0,984.0,1.0,1,264.0,1
1262,1262,0.18240026421784516,0.2,0.0,0.0,386.0,590.0,0.0,1,454.0,1
1263,1263,-0.04882801749264665,-0.0,1.0,0.0,445.0,640.0,1.0,1,1005.0,0
1264,1264,0.48256958691295904,0.5,0.0,0.0,367.0,977.0,1.0,0,16.0,0
1265,1265,-0.49895093314719285,-0.5,1.0,0.0,422.0,856.0,0.0,0,1092.0,1
1266,1266,-0.35304582266533735,-0.4,1.0,0.0,435.0,520.0,0.0,0,1145.0,1
1267,1267,-0.47881481792716074,-0.5,0.0,1.0,388.0,772.0,1.0,0,270.0,1
1268,1268,0.3146854644528899,0.3,0.0,0.0,353.0,740.0,1.0,0,417.0,0
1269,1269,-0.12239107138917538,-0.1,1.0,0.0,347.0,875.0,1.0,1,698.0,0
1270,1270,0.49000647430082556,0.5,0.0,0.0,299.0,528.0,0.0,1,893.0,1
1271,1271,-0.259401637918246,-0.3,1.0,0.0,369.0,651.0,0.0,0,350.0,1
1272,1272,0.5359303608062248,0.5,1.0,1.0,347.0,778.0,1.0,1,115.0,1
1273,1273,0.8699929921777377,0.9,0.0,0.0,371.0,737.0,0.0,1,432.0,1
1274,1274,-0.14216292374720596,-0.1,1.0,0.0,251.0,605.0,1.0,1,554.0,0
1275,1275,0.5156348772674505,0.5,0.0,0.0,357.0,664.0,0.0,1,439.0,1
1276,1276,-0.3775994699054217,-0.4,1.0,0.0,357.0,954.0,0.0,0,749.0,1
1277,1277,0.14841998017500113,0.1,1.0,1.0,281.0,772.0,1.0,1,567.0,1
1278,1278,0.7578667530170725,0.8,1.0,1.0,320.0,974.0,1.0,1,26.0,1
1279,1279,0.15915607394168718,0.2,0.0,0.0,393.0,555.0,1.0,0,1012.0,0
1280,1280,0.3267696008766864,0.3,0.0,0.0,327.0,961.0,0.0,1,1782.0,1
1281,1281,-0.5664389639562181,-0.6,0.0,1.0,314.0,833.0,1.0,0,183.0,1
1282,1282,-0.10292362368909813,-0.1,0.0,1.0,390.0,671.0,1.0,0,1069.0,1
1283,1283,0.4292048255071085,0.4,1.0,1.0,312.0,728.0,1.0,1,270.0,1
1284,1284,0.8490195181388059,0.8,0.0,0.0,391.0,851.0,0.0,1,118.0,1
1285,1285,0.20571869669437215,0.2,0.0,0.0,389.0,839.0,0.0,1,652.0,1
1286,1286,-0.442527455271335,-0.4,0.0,1.0,286.0,914.0,1.0,0,240.0,1
1287,1287,0.2620575349139841,0.3,0.0,0.0,285.0,816.0,1.0,0,319.0,0
1288,1288,0.5065657950104109,0.5,1.0,1.0,432.0,801.0,1.0,1,277.0,1
1289,1289,0.5209884703510169,0.5,0.0,0.0,433.0,577.0,0.0,1,590.0,1
1290,1290,-0.2863013915964342,-0.3,0.0,1.0,425.0,927.0,1.0,0,58.0,1
1291,1291,0.8747806391911906,0.9,1.0,1.0,358.0,980.0,1.0,1,162.0,1
1292,1292,-0.45464687179312874,-0.5,0.0,1.0,276.0,663.0,1.0,0,241.0,1
1293,1293,0.5041819417630565,0.5,0.0,0.0,365.0,691.0,0.0,1,254.0,1
1294,1294,-0.656270130043504,-0.7,1.0,0.0,300.0,889.0,0.0,0,311.0,1
1295,1295,-0.5117046839295302,-0.5,1.0,0.0,489.0,910.0,0.0,0,191.0,1
1296,1296,0.04969230673145664,0.0,1.0,1.0,257.0,520.0,1.0,1,1203.0,1
1297,1297,0.7257089736085723,0.7,0.0,0.0,306.0,751.0,0.0,1,903.0,1
1298,1298,0.07383076503350816,0.1,1.0,1.0,419.0,561.0,1.0,1,550.0,1
1299,1299,0.6417085558020731,0.6,1.0,1.0,408.0,894.0,1.0,1,318.0,1
1300,1300,-0.20767372498117065,-0.2,1.0,0.0,344.0,827.0,0.0,0,589.0,1
1301,1301,0.446441206736648,0.4,1.0,1.0,301.0,622.0,1.0,1,367.0,1
1302,1302,0.7035215018058808,0.7,1.0,1.0,383.0,785.0,1.0,1,332.0,1
1303,1303,0.07036257913545707,0.1,1.0,1.0,445.0,828.0,1.0,1,367.0,1
1304,1304,0.43799352622923127,0.4,0.0,0.0,348.0,818.0,1.0,0,244.0,0
1305,1305,0.29278010552662825,0.3,0.0,0.0,326.0,964.0,1.0,0,910.0,0
1306,1306,0.15189394053841154,0.2,0.0,0.0,497.0,752.0,1.0,0,241.0,0
1307,1307,-0.7768436966558917,-0.8,0.0,1.0,437.0,590.0,1.0,0,453.0,1
1308,1308,-0.3132227770913779,-0.3,1.0,0.0,379.0,513.0,0.0,0,928.0,1
1309,1309,0.8725053406300424,0.9,0.0,0.0,484.0,702.0,0.0,1,424.0,1
1310,1310,0.2591674160339231,0.3,0.0,0.0,267.0,833.0,0.0,1,530.0,1
1311,1311,0.7537237097734598,0.8,0.0,0.0,473.0,890.0,0.0,1,417.0,1
1312,1312,0.8986610381457362,0.9,0.0,0.0,376.0,850.0,0.0,1,154.0,1
1313,1313,-0.39448252565465325,-0.4,1.0,0.0,477.0,595.0,1.0,1,528.0,0
1314,1314,0.45677218096033034,0.5,0.0,0.0,295.0,860.0,0.0,1,405.0,1
1315,1315,-0.8073691654584119,-0.8,0.0,1.0,424.0,652.0,1.0,0,294.0,1
1316,1316,-0.04383118024337063,-0.0,0.0,1.0,353.0,842.0,1.0,0,125.0,1
1317,1317,0.6456642536468121,0.6,0.0,0.0,290.0,621.0,0.0,1,449.0,1
1318,1318,0.7192872616631297,0.7,1.0,1.0,289.0,710.0,1.0,1,351.0,1
1319,1319,0.046317525214445765,0.0,0.0,0.0,315.0,565.0,1.0,0,760.0,0
1320,1320,-0.386183658921904,-0.4,1.0,0.0,346.0,787.0,0.0,0,457.0,1
1321,1321,-0.34649479718207155,-0.3,0.0,1.0,430.0,798.0,0.0,1,202.0,0
1322,1322,-0.8923249688386374,-0.9,1.0,0.0,380.0,639.0,0.0,0,291.0,1
1323,1323,0.4647529201273811,0.5,1.0,1.0,292.0,615.0,1.0,1,573.0,1
1324,1324,0.0397997224271428,0.0,0.0,0.0,320.0,515.0,1.0,0,595.0,0
1325,1325,-0.29906772804806747,-0.3,0.0,1.0,359.0,605.0,1.0,0,596.0,1
1326,1326,-0.8466541353574797,-0.8,1.0,0.0,272.0,797.0,0.0,0,281.0,1
1327,1327,0.29394521297643783,0.3,0.0,0.0,392.0,715.0,1.0,0,683.0,0
1328,1328,0.6254346922046842,0.6,0.0,0.0,426.0,723.0,0.0,1,321.0,1
1329,1329,-0.8895966824420407,-0.9,0.0,1.0,291.0,762.0,1.0,0,237.0,1
1330,1330,-0.19291916485643013,-0.2,1.0,0.0,499.0,810.0,0.0,0,831.0,1
1331,1331,-0.8922165528638712,-0.9,1.0,0.0,423.0,990.0,0.0,0,237.0,1
1332,1332,-0.7282993457296649,-0.7,0.0,1.0,254.0,511.0,1.0,0,315.0,1
1333,1333,0.40290693791495136,0.4,1.0,1.0,292.0,868.0,1.0,1,130.0,1
1334,1334,-0.42491918838304693,-0.4,0.0,1.0,296.0,788.0,1.0,0,116.0,1
1335,1335,0.4480473389366896,0.4,1.0,1.0,385.0,540.0,1.0,1,415.0,1
1336,1336,-0.08340588512055824,-0.1,1.0,0.0,387.0,903.0,0.0,0,670.0,1
1337,1337,-0.013594982189879756,-0.0,1.0,0.0,269.0,682.0,1.0,1,1679.0,0
1338,1338,-0.2199111953251185,-0.2,0.0,1.0,258.0,551.0,1.0,0,381.0,1
1339,1339,-0.5221710161431072,-0.5,0.0,1.0,298.0,699.0,1.0,0,193.0,1
1340,1340,0.8789523966951459,0.9,1.0,1.0,362.0,678.0,1.0,1,600.0,1
1341,1341,-0.8385309054920679,-0.8,0.0,1.0,285.0,614.0,1.0,0,401.0,1
1342,1342,-0.8034716766161133,-0.8,0.0,1.0,273.0,548.0,1.0,0,759.0,1
1343,1343,-0.30910444738536913,-0.3,0.0,1.0,493.0,881.0,1.0,0,836.0,1
1344,1344,0.3336997325656107,0.3,0.0,0.0,395.0,753.0,0.0,1,642.0,1
1345,1345,-0.024807235094993274,-0.0,1.0,0.0,314.0,874.0,1.0,1,272.0,0
1346,1346,0.48291513299983546,0.5,1.0,1.0,297.0,582.0,1.0,1,391.0,1
1347,1347,-0.30953593455038775,-0.3,1.0,0.0,373.0,561.0,0.0,0,366.0,1
1348,1348,-0.7792419336825818,-0.8,0.0,1.0,499.0,841.0,1.0,0,270.0,1
1349,1349,-0.12117889786424185,-0.1,0.0,1.0,371.0,598.0,1.0,0,491.0,1
1350,1350,0.30178984666290354,0.3,0.0,0.0,394.0,575.0,0.0,1,621.0,1
1351,1351,-0.8912590498710328,-0.9,0.0,1.0,291.0,572.0,1.0,0,717.0,1
1352,1352,0.5763900036940984,0.6,1.0,1.0,455.0,834.0,1.0,1,371.0,1
1353,1353,-0.886652925109904,-0.9,0.0,1.0,354.0,532.0,1.0,0,384.0,1
1354,1354,-0.6439903024149001,-0.6,1.0,0.0,296.0,867.0,0.0,0,497.0,1
1355,1355,0.755783530935693,0.8,1.0,1.0,334.0,889.0,1.0,1,127.0,1
1356,1356,-0.8872140659840556,-0.9,1.0,0.0,341.0,677.0,0.0,0,242.0,1
1357,1357,0.7898748235348193,0.8,1.0,1.0,311.0,859.0,1.0,1,170.0,1
1358,1358,-0.3635600996878924,-0.4,0.0,1.0,259.0,575.0,1.0,0,576.0,1
1359,1359,-0.5135632808943802,-0.5,1.0,0.0,317.0,673.0,0.0,0,520.0,1
1360,1360,-0.6916582696370573,-0.7,0.0,1.0,271.0,845.0,1.0,0,384.0,1
1361,1361,-0.8522984395457687,-0.9,0.0,1.0,414.0,665.0,1.0,0,281.0,1
1362,1362,0.5267392834380799,0.5,0.0,0.0,405.0,739.0,0.0,1,326.0,1
1363,1363,0.6014925027288783,0.6,0.0,0.0,445.0,807.0,0.0,1,288.0,1
1364,1364,-0.42884811523415556,-0.4,1.0,0.0,457.0,720.0,1.0,1,203.0,0
1365,1365,-0.4553286655212125,-0.5,0.0,1.0,324.0,906.0,1.0,0,80.0,1
1366,1366,0.20906856993941314,0.2,0.0,0.0,272.0,996.0,1.0,0,82.0,0
1367,1367,-0.895855222327497,-0.9,1.0,0.0,336.0,563.0,0.0,0,301.0,1
1368,1368,-0.45625862014864726,-0.5,1.0,0.0,447.0,690.0,0.0,0,793.0,1
1369,1369,-3.227385455362164e-05,-0.0,1.0,0.0,390.0,965.0,0.0,0,165.0,1
1370,1370,0.32189901011139954,0.3,0.0,0.0,374.0,790.0,0.0,1,396.0,1
1371,1371,-0.5269058575477761,-0.5,0.0,1.0,328.0,906.0,1.0,0,256.0,1
1372,1372,0.8533849636200871,0.9,1.0,1.0,440.0,941.0,1.0,1,-1.0,1
1373,1373,-0.8604597310764291,-0.9,1.0,0.0,381.0,940.0,0.0,0,229.0,1
1374,1374,-0.5784745504699655,-0.6,0.0,1.0,459.0,909.0,1.0,0,242.0,1
1375,1375,-0.8166125630409703,-0.8,0.0,1.0,306.0,828.0,1.0,0,246.0,1
1376,1376,-0.16244211969265998,-0.2,0.0,1.0,403.0,665.0,1.0,0,402.0,1
1377,1377,0.6442957924553078,0.6,0.0,0.0,460.0,643.0,0.0,1,487.0,1
1378,1378,0.8133180753324126,0.8,1.0,1.0,259.0,853.0,1.0,1,988.0,1
1379,1379,-0.4480757768656016,-0.4,0.0,1.0,467.0,984.0,1.0,0,-91.0,1
1380,1380,-0.0005064523362483531,-0.0,0.0,1.0,439.0,778.0,1.0,0,913.0,1
1381,1381,-0.27994039279269534,-0.3,0.0,1.0,432.0,908.0,1.0,0,310.0,1
1382,1382,-0.7024351772955605,-0.7,0.0,1.0,391.0,580.0,1.0,0,309.0,1
1383,1383,-0.5254040454359543,-0.5,1.0,0.0,377.0,838.0,0.0,0,815.0,1
1384,1384,0.5432806395153448,0.5,1.0,1.0,475.0,728.0,1.0,1,367.0,1
1385,1385,-0.46782697369786064,-0.5,0.0,1.0,292.0,594.0,1.0,0,344.0,1
1386,1386,-0.03568997144887076,-0.0,1.0,0.0,405.0,577.0,1.0,1,608.0,0
1387,1387,-0.7107473026393542,-0.7,1.0,0.0,255.0,910.0,1.0,1,5.0,0
1388,1388,-0.6096787554107652,-0.6,0.0,1.0,260.0,752.0,1.0,0,58.0,1
1389,1389,-0.7649661671172343,-0.8,1.0,0.0,498.0,607.0,0.0,0,295.0,1
1390,1390,-0.6667299808984583,-0.7,1.0,0.0,400.0,897.0,0.0,0,943.0,1
1391,1391,0.25985514198128346,0.3,0.0,0.0,338.0,953.0,0.0,1,859.0,1
1392,1392,0.006494177668043832,0.0,0.0,0.0,450.0,522.0,1.0,0,658.0,0
1393,1393,0.3695988534622411,0.4,1.0,1.0,427.0,526.0,1.0,1,377.0,1
1394,1394,0.31415440835425545,0.3,1.0,1.0,273.0,593.0,1.0,1,554.0,1
1395,1395,0.6440085343920291,0.6,1.0,1.0,332.0,793.0,1.0,1,295.0,1
1396,1396,-0.5843841343396721,-0.6,1.0,0.0,349.0,538.0,0.0,0,1053.0,1
1397,1397,-0.1415101896272557,-0.1,0.0,1.0,375.0,582.0,1.0,0,1313.0,1
1398,1398,-0.5601113235276011,-0.6,0.0,1.0,376.0,936.0,1.0,0,288.0,1
1399,1399,0.8577638703279177,0.9,1.0,1.0,395.0,870.0,1.0,1,265.0,1
1400,1400,0.38542133258321887,0.4,0.0,0.0,423.0,719.0,0.0,1,378.0,1
1401,1401,-0.05442262402395037,-0.1,1.0,0.0,256.0,984.0,1.0,1,750.0,0
1402,1402,0.5673282731983852,0.6,0.0,0.0,412.0,831.0,0.0,1,2107.0,1
1403,1403,-0.40761443250536245,-0.4,0.0,1.0,474.0,606.0,1.0,0,440.0,1
1404,1404,0.7280385968442525,0.7,1.0,1.0,389.0,755.0,1.0,1,616.0,1
1405,1405,0.6140683841273123,0.6,1.0,1.0,339.0,683.0,1.0,1,348.0,1
1406,1406,0.12823860947004861,0.1,1.0,1.0,298.0,761.0,1.0,1,271.0,1
1407,1407,0.789422190164406,0.8,1.0,1.0,418.0,599.0,1.0,1,323.0,1
1408,1408,-0.5295709546482817,-0.5,0.0,1.0,472.0,623.0,1.0,0,465.0,1
1409,1409,-0.030424890117949244,-0.0,0.0,1.0,436.0,641.0,1.0,0,1793.0,1
1410,1410,0.20525793673212755,0.2,0.0,0.0,358.0,991.0,1.0,0,151.0,0
1411,1411,-0.6624509513370792,-0.7,1.0,0.0,376.0,631.0,0.0,0,643.0,1
1412,1412,0.001505233705186848,0.0,1.0,1.0,387.0,679.0,1.0,1,344.0,1
1413,1413,0.30122266829766386,0.3,0.0,0.0,284.0,611.0,1.0,0,495.0,0
1414,1414,-0.05667137818092849,-0.1,1.0,0.0,487.0,531.0,0.0,0,792.0,1
1415,1415,0.7425267661914842,0.7,0.0,0.0,452.0,796.0,0.0,1,262.0,1
1416,1416,-0.6509063670218461,-0.7,1.0,0.0,374.0,675.0,0.0,0,551.0,1
1417,1417,0.32038959419937896,0.3,1.0,1.0,341.0,957.0,1.0,1,362.0,1
1418,1418,-0.759742159671803,-0.8,1.0,0.0,378.0,513.0,0.0,0,689.0,1
1419,1419,0.643827783678761,0.6,1.0,1.0,268.0,807.0,1.0,1,475.0,1
1420,1420,-0.21214385922031442,-0.2,0.0,1.0,276.0,748.0,1.0,0,426.0,1
1421,1421,0.516911626717132,0.5,1.0,1.0,278.0,718.0,1.0,1,484.0,1
1422,1422,0.03763469997369995,0.0,1.0,1.0,478.0,989.0,1.0,1,293.0,1
1423,1423,0.8554727382506345,0.9,1.0,1.0,376.0,540.0,1.0,1,304.0,1
1424,1424,0.5376523331313273,0.5,1.0,1.0,419.0,640.0,1.0,1,621.0,1
1425,1425,0.24622029115763244,0.2,1.0,1.0,409.0,708.0,1.0,1,393.0,1
1426,1426,-0.12770261548483752,-0.1,0.0,1.0,446.0,891.0,0.0,1,13.0,0
1427,1427,0.5897986461666497,0.6,1.0,1.0,480.0,768.0,1.0,1,372.0,1
1428,1428,-0.13080193982017807,-0.1,0.0,1.0,302.0,975.0,1.0,0,473.0,1
1429,1429,-0.42771954989934796,-0.4,0.0,1.0,282.0,618.0,1.0,0,300.0,1
1430,1430,0.4350382095858095,0.4,1.0,1.0,454.0,839.0,1.0,1,137.0,1
1431,1431,-0.8502246267576241,-0.9,0.0,1.0,291.0,872.0,1.0,0,597.0,1
1432,1432,0.7769691493432885,0.8,1.0,1.0,481.0,537.0,1.0,1,482.0,1
1433,1433,0.6474819731425309,0.6,1.0,1.0,362.0,839.0,1.0,1,159.0,1
1434,1434,0.8657321658314071,0.9,0.0,0.0,349.0,972.0,0.0,1,419.0,1
1435,1435,0.6974363907081468,0.7,1.0,1.0,471.0,930.0,1.0,1,119.0,1
1436,1436,-0.6417233350310032,-0.6,0.0,1.0,490.0,665.0,1.0,0,415.0,1
1437,1437,0.607920407738865,0.6,0.0,0.0,318.0,573.0,0.0,1,759.0,1
1438,1438,-0.5545763876452592,-0.6,1.0,0.0,321.0,608.0,0.0,0,491.0,1
1439,1439,-0.8285465447108857,-0.8,1.0,0.0,372.0,777.0,0.0,0,271.0,1
1440,1440,0.4216731759558551,0.4,0.0,0.0,290.0,780.0,1.0,0,970.0,0
1441,1441,0.10785525661318995,0.1,0.0,0.0,356.0,595.0,0.0,1,1099.0,1
1442,1442,0.6016239092214951,0.6,1.0,1.0,441.0,925.0,1.0,1,34.0,1
1443,1443,0.016643453230442473,0.0,0.0,0.0,344.0,940.0,0.0,1,616.0,1
1444,1444,-0.13057264129661073,-0.1,1.0,0.0,266.0,826.0,1.0,1,2808.0,0
1445,1445,-0.1537428351286646,-0.2,0.0,1.0,383.0,744.0,1.0,0,423.0,1
1446,1446,0.5576675373488634,0.6,1.0,1.0,289.0,777.0,0.0,0,304.0,0
1447,1447,-0.009944911593366745,-0.0,0.0,1.0,463.0,828.0,1.0,0,1009.0,1
1448,1448,0.4517657847789752,0.5,0.0,0.0,413.0,977.0,0.0,1,380.0,1
1449,1449,0.38338298948469374,0.4,0.0,0.0,331.0,510.0,0.0,1,1089.0,1
1450,1450,-0.3644900941740309,-0.4,0.0,1.0,408.0,620.0,1.0,0,442.0,1
1451,1451,-0.2852526943702067,-0.3,1.0,0.0,468.0,554.0,0.0,0,1308.0,1
1452,1452,-0.3732673030956417,-0.4,0.0,1.0,284.0,637.0,1.0,0,659.0,1
1453,1453,0.8019857352244185,0.8,0.0,0.0,391.0,858.0,0.0,1,361.0,1
1454,1454,-0.1656624322536172,-0.2,1.0,0.0,487.0,642.0,1.0,1,611.0,0
1455,1455,-0.6113255964479849,-0.6,0.0,1.0,437.0,738.0,1.0,0,465.0,1
1456,1456,0.18572451180084226,0.2,0.0,0.0,483.0,859.0,1.0,0,708.0,0
1457,1457,0.8106713968399991,0.8,0.0,0.0,415.0,853.0,0.0,1,312.0,1
1458,1458,0.17494876002506643,0.2,0.0,0.0,475.0,970.0,0.0,1,175.0,1
1459,1459,0.8023827807863863,0.8,0.0,0.0,399.0,623.0,0.0,1,528.0,1
1460,1460,0.5945071155561529,0.6,1.0,1.0,290.0,774.0,1.0,1,236.0,1
1461,1461,-0.11539394504286671,-0.1,1.0,0.0,298.0,583.0,1.0,1,709.0,0
1462,1462,0.3343327067809315,0.3,1.0,1.0,312.0,503.0,1.0,1,475.0,1
1463,1463,-0.8044956580904694,-0.8,0.0,1.0,398.0,731.0,1.0,0,461.0,1
1464,1464,0.02934026872547979,0.0,0.0,0.0,275.0,616.0,1.0,0,729.0,0
1465,1465,-0.6989946605927222,-0.7,1.0,0.0,367.0,916.0,0.0,0,67.0,1
1466,1466,-0.8367274151446522,-0.8,0.0,1.0,445.0,789.0,1.0,0,396.0,1
1467,1467,0.8127361901023303,0.8,1.0,1.0,487.0,895.0,1.0,1,148.0,1
1468,1468,-0.25680274666866276,-0.3,1.0,0.0,401.0,744.0,0.0,0,245.0,1
1469,1469,-0.8860549493258847,-0.9,0.0,1.0,376.0,623.0,1.0,0,491.0,1
1470,1470,0.688684389075528,0.7,1.0,1.0,300.0,645.0,1.0,1,395.0,1
1471,1471,0.6279230360927667,0.6,0.0,0.0,474.0,678.0,0.0,1,278.0,1
1472,1472,0.3408891702976006,0.3,0.0,0.0,339.0,811.0,1.0,0,150.0,0
1473,1473,-0.2802578137126933,-0.3,1.0,0.0,394.0,558.0,1.0,1,1028.0,0
1474,1474,-0.2537835654368874,-0.3,0.0,1.0,362.0,618.0,1.0,0,470.0,1
1475,1475,-0.09069814339400395,-0.1,0.0,1.0,270.0,584.0,1.0,0,246.0,1
1476,1476,-0.6377399443492868,-0.6,0.0,1.0,277.0,805.0,1.0,0,98.0,1
1477,1477,0.6775945523532897,0.7,1.0,1.0,350.0,898.0,1.0,1,92.0,1
1478,1478,-0.8915003349481175,-0.9,1.0,0.0,266.0,508.0,0.0,0,846.0,1
1479,1479,0.5250656382889572,0.5,0.0,0.0,375.0,683.0,1.0,0,942.0,0
1480,1480,0.788900686232083,0.8,1.0,1.0,460.0,837.0,0.0,0,213.0,0
1481,1481,-0.12250881876567132,-0.1,0.0,1.0,257.0,604.0,1.0,0,989.0,1
1482,1482,0.218220812086671,0.2,0.0,0.0,316.0,538.0,0.0,1,1486.0,1
1483,1483,-0.22249930914063887,-0.2,1.0,0.0,459.0,782.0,1.0,1,339.0,0
1484,1484,0.6253589726466241,0.6,0.0,0.0,284.0,893.0,0.0,1,1203.0,1
1485,1485,-0.6450598973351129,-0.6,1.0,0.0,361.0,985.0,0.0,0,414.0,1
1486,1486,-0.2755378301290624,-0.3,1.0,0.0,268.0,587.0,1.0,1,385.0,0
1487,1487,0.1472206069122558,0.1,1.0,1.0,422.0,659.0,1.0,1,249.0,1
1488,1488,0.3175813492803278,0.3,1.0,1.0,404.0,851.0,1.0,1,285.0,1
1489,1489,0.16268222591511983,0.2,0.0,0.0,377.0,821.0,1.0,0,652.0,0
1490,1490,0.49090702940348974,0.5,0.0,0.0,444.0,981.0,0.0,1,515.0,1
1491,1491,0.30880721699896585,0.3,0.0,0.0,453.0,700.0,0.0,1,437.0,1
1492,1492,0.5858436921167621,0.6,0.0,0.0,250.0,547.0,0.0,1,883.0,1
1493,1493,0.6482277927902581,0.6,0.0,0.0,464.0,763.0,0.0,1,673.0,1
