,trial,coherence,coherence_bin,correct_side,target_onset,checker_onset,decision,decision_time,correct_decision
0,0,0.3041585746513247,0.7,0.0,452.0,759.0,0.0,859.0,1
1,1,-0.7193910911682813,0.1,0.0,488.0,711.0,1.0,281.0,0
2,2,-0.30479386444507206,0.3,0.0,345.0,987.0,1.0,558.0,0
3,3,0.30865180600611186,0.7,0.0,254.0,820.0,0.0,956.0,1
4,4,-0.24143995143173047,0.4,0.0,327.0,614.0,1.0,449.0,0
5,5,-0.8588626912161095,0.1,0.0,314.0,778.0,1.0,358.0,0
6,6,-0.12796583263524375,0.4,0.0,347.0,972.0,1.0,411.0,0
7,7,0.7588930650996888,0.9,0.0,444.0,778.0,0.0,488.0,1
8,8,0.17229779865323103,0.6,0.0,270.0,815.0,0.0,1505.0,1
9,9,0.23733161759199772,0.6,0.0,398.0,708.0,0.0,1304.0,1
10,10,0.9177494033573539,1.0,0.0,257.0,800.0,0.0,303.0,1
11,11,0.6737292791815144,0.8,0.0,423.0,696.0,0.0,341.0,1
12,12,-0.3493037845770042,0.3,0.0,482.0,839.0,1.0,219.0,0
13,13,0.7407397788582328,0.9,0.0,271.0,864.0,0.0,345.0,1
14,14,-0.18914366050680997,0.4,0.0,337.0,931.0,1.0,252.0,0
15,15,-0.3455207559453859,0.3,0.0,290.0,979.0,1.0,901.0,0
16,16,-0.7945335310175625,0.1,0.0,418.0,872.0,1.0,340.0,0
17,17,-0.41466098575055943,0.3,0.0,493.0,540.0,1.0,297.0,0
18,18,0.7947998074843954,0.9,0.0,491.0,722.0,0.0,217.0,1
19,19,0.058580061306880093,0.5,0.0,484.0,944.0,0.0,742.0,1
20,20,-0.9147026127478288,0.0,0.0,289.0,528.0,1.0,213.0,0
21,21,0.4012461658991977,0.7,0.0,299.0,988.0,0.0,363.0,1
22,22,-0.13185011304310623,0.4,0.0,418.0,973.0,1.0,759.0,0
23,23,-0.08209416484010501,0.5,0.0,265.0,852.0,1.0,663.0,0
24,24,0.9839072039233994,1.0,0.0,291.0,575.0,0.0,364.0,1
25,25,0.3652938069106,0.7,0.0,423.0,593.0,0.0,484.0,1
26,26,-0.1955601859521754,0.4,0.0,496.0,957.0,1.0,517.0,0
27,27,0.32442158092989115,0.7,0.0,468.0,621.0,0.0,521.0,1
28,28,-0.29522797536408163,0.4,0.0,276.0,933.0,1.0,1901.0,0
29,29,0.713973868360736,0.9,0.0,372.0,592.0,0.0,296.0,1
30,30,0.9512493241373052,1.0,0.0,401.0,542.0,0.0,437.0,1
31,31,0.3916077157153002,0.7,0.0,448.0,861.0,0.0,261.0,1
32,32,-0.29033888296326804,0.4,0.0,443.0,686.0,1.0,501.0,0
33,33,-0.7572736492555858,0.1,0.0,475.0,588.0,1.0,397.0,0
34,34,0.16846218145636427,0.6,0.0,362.0,852.0,1.0,1886.0,0
35,35,-0.7075457436773598,0.1,0.0,449.0,873.0,1.0,258.0,0
36,36,0.541493623486957,0.8,0.0,253.0,712.0,0.0,425.0,1
37,37,0.9797905016531425,1.0,0.0,478.0,907.0,0.0,205.0,1
38,38,-0.3583016813651836,0.3,0.0,433.0,608.0,1.0,249.0,0
39,39,0.062106754126620034,0.5,0.0,290.0,859.0,0.0,1121.0,1
40,40,-0.34001125876631155,0.3,0.0,402.0,718.0,1.0,340.0,0
41,41,-0.12830739617578057,0.4,0.0,338.0,651.0,0.0,491.0,1
42,42,-0.9581221262284465,0.0,0.0,313.0,915.0,1.0,442.0,0
43,43,0.1342884702468894,0.6,0.0,306.0,555.0,1.0,1319.0,0
44,44,-0.46381501669914127,0.3,0.0,377.0,695.0,1.0,648.0,0
45,45,-0.6285948843499898,0.2,0.0,314.0,938.0,1.0,248.0,0
46,46,-0.19130320057103734,0.4,0.0,287.0,824.0,1.0,719.0,0
47,47,-0.10625967880234666,0.4,0.0,303.0,866.0,0.0,281.0,1
48,48,-0.3123319680251675,0.3,0.0,279.0,876.0,1.0,355.0,0
49,49,0.7855781339360746,0.9,0.0,364.0,506.0,0.0,360.0,1
50,50,0.5618235166448176,0.8,0.0,330.0,927.0,0.0,513.0,1
51,51,-0.9676697675870733,0.0,0.0,250.0,598.0,1.0,392.0,0
52,52,-0.7125467239687628,0.1,0.0,301.0,696.0,1.0,163.0,0
53,53,0.8320231319349063,0.9,0.0,451.0,920.0,0.0,499.0,1
54,54,-0.579315127539346,0.2,0.0,393.0,913.0,1.0,624.0,0
55,55,-0.7101245969144043,0.1,0.0,351.0,970.0,1.0,679.0,0
56,56,0.705273112408451,0.9,0.0,340.0,836.0,0.0,364.0,1
57,57,0.24184317466027117,0.6,0.0,400.0,549.0,0.0,341.0,1
58,58,0.9540263741937587,1.0,0.0,422.0,585.0,0.0,433.0,1
59,59,-0.1016178274486701,0.4,0.0,368.0,762.0,1.0,650.0,0
60,60,-0.34114905681298846,0.3,0.0,416.0,568.0,1.0,516.0,0
61,61,0.16134070645087806,0.6,0.0,466.0,527.0,0.0,1017.0,1
62,62,0.21316863499838834,0.6,0.0,388.0,934.0,0.0,1178.0,1
63,63,-0.2588373820419636,0.4,0.0,391.0,764.0,1.0,445.0,0
64,64,-0.7587980550068594,0.1,0.0,254.0,956.0,1.0,410.0,0
65,65,0.0005657582734897026,0.5,0.0,374.0,544.0,1.0,762.0,0
66,66,-0.8841586207099692,0.1,0.0,437.0,837.0,1.0,286.0,0
67,67,0.7762517488767038,0.9,0.0,479.0,919.0,0.0,452.0,1
68,68,0.7860635204530839,0.9,0.0,391.0,911.0,0.0,318.0,1
69,69,0.82128890494376,0.9,0.0,287.0,831.0,0.0,552.0,1
70,70,-0.8844221357756739,0.1,0.0,382.0,693.0,1.0,395.0,0
71,71,0.781059234136785,0.9,0.0,393.0,738.0,0.0,459.0,1
72,72,-0.32791615181491984,0.3,0.0,485.0,662.0,1.0,333.0,0
73,73,-0.7832713901805031,0.1,0.0,408.0,697.0,1.0,215.0,0
74,74,0.1407113744865387,0.6,0.0,374.0,641.0,1.0,2205.0,0
75,75,0.05179264553903873,0.5,0.0,490.0,800.0,0.0,290.0,1
76,76,0.8818466623979129,0.9,0.0,286.0,898.0,0.0,516.0,1
77,77,-0.4066266323537615,0.3,0.0,430.0,682.0,1.0,258.0,0
78,78,0.7581019989878146,0.9,0.0,413.0,752.0,0.0,455.0,1
79,79,0.7279890081433491,0.9,0.0,270.0,690.0,0.0,310.0,1
80,80,-0.3843076515810768,0.3,0.0,452.0,953.0,1.0,435.0,0
81,81,-0.0004180598422096615,0.5,0.0,385.0,598.0,1.0,1317.0,0
82,82,-0.9828601611978625,0.0,0.0,413.0,858.0,1.0,229.0,0
83,83,-0.8809264611672123,0.1,0.0,265.0,543.0,1.0,342.0,0
84,84,0.37499229476657403,0.7,0.0,334.0,990.0,0.0,406.0,1
85,85,0.9210266533696634,1.0,0.0,403.0,675.0,0.0,272.0,1
86,86,-0.05039962476378279,0.5,0.0,461.0,740.0,1.0,1729.0,0
87,87,0.5720061645866734,0.8,0.0,369.0,588.0,0.0,383.0,1
88,88,-0.059447619723776324,0.5,0.0,341.0,730.0,1.0,629.0,0
89,89,0.8172147826512071,0.9,0.0,457.0,889.0,0.0,404.0,1
90,90,-0.746860252384119,0.1,0.0,386.0,640.0,1.0,394.0,0
91,91,0.16088193069788703,0.6,0.0,409.0,997.0,0.0,434.0,1
92,92,-0.12161067793206537,0.4,0.0,262.0,963.0,1.0,865.0,0
93,93,-0.10650874153850065,0.4,0.0,449.0,574.0,1.0,1627.0,0
94,94,0.5273814954177718,0.8,0.0,421.0,983.0,0.0,276.0,1
95,95,0.7124400176144077,0.9,0.0,383.0,947.0,0.0,190.0,1
96,96,0.8968766475381684,0.9,0.0,498.0,614.0,0.0,538.0,1
97,97,-0.5195034832126129,0.2,0.0,270.0,968.0,1.0,302.0,0
98,98,-0.25207568208389586,0.4,0.0,297.0,673.0,1.0,570.0,0
99,99,0.286492403578573,0.6,0.0,386.0,865.0,0.0,419.0,1
100,100,0.04395030607381645,0.5,0.0,265.0,575.0,0.0,410.0,1
101,101,-0.4628739156946662,0.3,0.0,474.0,638.0,1.0,328.0,0
102,102,-0.932762790904393,0.0,0.0,487.0,925.0,1.0,518.0,0
103,103,-0.9225221042970895,0.0,0.0,388.0,502.0,1.0,270.0,0
104,104,0.7158783062922676,0.9,0.0,296.0,806.0,0.0,288.0,1
105,105,0.5974031809360523,0.8,0.0,392.0,883.0,0.0,375.0,1
106,106,-0.8467725493260787,0.1,0.0,282.0,951.0,1.0,637.0,0
107,107,-0.7359425389713463,0.1,0.0,328.0,619.0,1.0,433.0,0
108,108,0.2654565827066506,0.6,0.0,376.0,814.0,0.0,1330.0,1
109,109,0.2792548396859491,0.6,0.0,253.0,971.0,0.0,956.0,1
110,110,0.4947004605710845,0.7,0.0,451.0,589.0,0.0,310.0,1
111,111,0.7753679179352986,0.9,0.0,475.0,760.0,0.0,315.0,1
112,112,-0.35374839044312334,0.3,0.0,349.0,876.0,1.0,465.0,0
113,113,-0.521701254553913,0.2,0.0,462.0,947.0,1.0,361.0,0
114,114,0.4895529539332151,0.7,0.0,437.0,843.0,0.0,290.0,1
115,115,-0.24945809795637364,0.4,0.0,420.0,775.0,1.0,735.0,0
116,116,-0.8117934626664745,0.1,0.0,354.0,765.0,1.0,281.0,0
117,117,-0.7712725156670097,0.1,0.0,302.0,947.0,1.0,661.0,0
118,118,0.8611260097457845,0.9,0.0,468.0,785.0,0.0,297.0,1
119,119,-0.3869118428103371,0.3,0.0,454.0,699.0,1.0,317.0,0
120,120,0.6010514138775376,0.8,0.0,332.0,938.0,0.0,290.0,1
121,121,0.485765239928337,0.7,0.0,401.0,739.0,0.0,310.0,1
122,122,0.8817549311019128,0.9,0.0,381.0,775.0,0.0,214.0,1
123,123,-0.5259593333928518,0.2,0.0,444.0,509.0,1.0,347.0,0
124,124,0.20799434832880292,0.6,0.0,452.0,795.0,0.0,613.0,1
125,125,-0.8040138740843981,0.1,0.0,368.0,716.0,1.0,306.0,0
126,126,0.018958924379119724,0.5,0.0,439.0,788.0,1.0,313.0,0
127,127,0.43592087754726894,0.7,0.0,346.0,674.0,0.0,490.0,1
128,128,-0.9449145984447549,0.0,0.0,481.0,799.0,1.0,240.0,0
129,129,0.4549325704921694,0.7,0.0,299.0,585.0,0.0,926.0,1
130,130,-0.7019356502102649,0.1,0.0,431.0,804.0,1.0,435.0,0
131,131,0.9556628557255136,1.0,0.0,270.0,504.0,0.0,396.0,1
132,132,-0.29966496602206827,0.4,0.0,296.0,533.0,1.0,1231.0,0
133,133,-0.7280389975734176,0.1,0.0,351.0,906.0,1.0,443.0,0
134,134,0.883325955344034,0.9,0.0,429.0,849.0,0.0,402.0,1
135,135,-0.875948809524443,0.1,0.0,395.0,836.0,1.0,259.0,0
136,136,0.09542127647578846,0.5,0.0,483.0,978.0,1.0,829.0,0
137,137,0.22043090651698294,0.6,0.0,470.0,875.0,0.0,1195.0,1
138,138,0.15636225293821404,0.6,0.0,460.0,622.0,0.0,1048.0,1
139,139,-0.42023006600918267,0.3,0.0,283.0,927.0,1.0,800.0,0
140,140,0.8268470144305546,0.9,0.0,430.0,534.0,0.0,206.0,1
141,141,-0.19636808907314074,0.4,0.0,394.0,680.0,1.0,676.0,0
142,142,0.4935878549148023,0.7,0.0,267.0,816.0,0.0,207.0,1
143,143,-0.3938412408827696,0.3,0.0,478.0,740.0,1.0,462.0,0
144,144,0.5828580260628085,0.8,0.0,456.0,612.0,0.0,782.0,1
145,145,0.9159609601764818,1.0,0.0,334.0,736.0,0.0,540.0,1
146,146,-0.789235372514713,0.1,0.0,260.0,640.0,1.0,280.0,0
147,147,-0.449895894399994,0.3,0.0,285.0,566.0,1.0,539.0,0
148,148,-0.8638121529578351,0.1,0.0,448.0,992.0,1.0,230.0,0
149,149,-0.8993908900549767,0.1,0.0,474.0,760.0,1.0,266.0,0
150,150,0.7258979050879866,0.9,0.0,465.0,917.0,0.0,448.0,1
151,151,-0.9488371346094517,0.0,0.0,407.0,832.0,1.0,261.0,0
152,152,-0.5313138798149335,0.2,0.0,493.0,766.0,1.0,381.0,0
153,153,0.9088074738035592,1.0,0.0,453.0,720.0,0.0,407.0,1
154,154,0.17780769536365026,0.6,0.0,399.0,573.0,1.0,568.0,0
155,155,0.5534623337953357,0.8,0.0,316.0,646.0,0.0,208.0,1
156,156,-0.9840062576765476,0.0,0.0,354.0,682.0,1.0,334.0,0
157,157,0.3141890903112299,0.7,0.0,432.0,921.0,0.0,807.0,1
158,158,0.8444834180771885,0.9,0.0,486.0,949.0,0.0,275.0,1
159,159,-0.865254073525753,0.1,0.0,490.0,788.0,1.0,332.0,0
160,160,-0.8469585323361495,0.1,0.0,312.0,710.0,1.0,248.0,0
161,161,-0.7852335860438027,0.1,0.0,456.0,683.0,1.0,211.0,0
162,162,-0.050210255484988364,0.5,0.0,309.0,880.0,0.0,471.0,1
163,163,0.9035556322900233,1.0,0.0,255.0,947.0,0.0,288.0,1
164,164,0.5191554280947648,0.8,0.0,318.0,723.0,0.0,729.0,1
165,165,0.355375956201758,0.7,0.0,292.0,556.0,0.0,832.0,1
166,166,0.1947430989807688,0.6,0.0,308.0,762.0,0.0,1200.0,1
167,167,0.31294845106943003,0.7,0.0,252.0,964.0,0.0,294.0,1
168,168,0.48616992102208645,0.7,0.0,273.0,612.0,0.0,175.0,1
169,169,0.11960216396342727,0.6,0.0,322.0,964.0,0.0,2094.0,1
170,170,-0.17618385191328678,0.4,0.0,296.0,707.0,0.0,687.0,1
171,171,-0.16201213219773192,0.4,0.0,259.0,856.0,1.0,855.0,0
172,172,0.6065728546827618,0.8,0.0,384.0,629.0,0.0,1087.0,1
173,173,0.5036806707366843,0.8,0.0,443.0,675.0,0.0,492.0,1
174,174,-0.3051869885975458,0.3,0.0,462.0,570.0,1.0,458.0,0
175,175,-0.39010310651226754,0.3,0.0,319.0,673.0,1.0,338.0,0
176,176,-0.07571236541406612,0.5,0.0,414.0,868.0,1.0,668.0,0
177,177,0.40908054804922167,0.7,0.0,367.0,799.0,0.0,244.0,1
178,178,0.7973401775237057,0.9,0.0,301.0,677.0,0.0,372.0,1
179,179,-0.35464709548011486,0.3,0.0,362.0,685.0,1.0,443.0,0
180,180,0.9540296050252928,1.0,0.0,291.0,971.0,0.0,378.0,1
181,181,0.5200784013935333,0.8,0.0,406.0,757.0,0.0,227.0,1
182,182,0.00836676660438429,0.5,0.0,492.0,626.0,1.0,1232.0,0
183,183,-0.2540131456567922,0.4,0.0,257.0,649.0,1.0,654.0,0
184,184,0.10040840049821442,0.6,0.0,484.0,619.0,0.0,927.0,1
185,185,0.55009333044612,0.8,0.0,372.0,563.0,0.0,295.0,1
186,186,0.6269346840858727,0.8,0.0,489.0,941.0,0.0,270.0,1
187,187,0.33226334526855505,0.7,0.0,497.0,556.0,0.0,1237.0,1
188,188,0.5663847197288545,0.8,0.0,467.0,739.0,0.0,414.0,1
189,189,0.7945988242730271,0.9,0.0,343.0,804.0,0.0,363.0,1
190,190,-0.5471850687884314,0.2,0.0,378.0,763.0,1.0,279.0,0
191,191,-0.2994432494335133,0.4,0.0,476.0,918.0,1.0,796.0,0
192,192,0.8765868578863454,0.9,0.0,299.0,621.0,0.0,300.0,1
193,193,-0.9426258709077193,0.0,0.0,305.0,787.0,1.0,358.0,0
194,194,0.1763133959810972,0.6,0.0,315.0,769.0,0.0,246.0,1
195,195,0.8340416809696845,0.9,0.0,417.0,595.0,0.0,348.0,1
196,196,-0.8406162239003758,0.1,0.0,353.0,856.0,1.0,351.0,0
197,197,-0.2086587041853376,0.4,0.0,458.0,711.0,1.0,301.0,0
198,198,0.9433392357351826,1.0,0.0,381.0,839.0,0.0,360.0,1
199,199,-0.5010643879538617,0.2,0.0,289.0,751.0,1.0,420.0,0
200,200,-0.031662278707909275,0.5,0.0,342.0,693.0,0.0,205.0,1
201,201,-0.811727415085082,0.1,0.0,315.0,913.0,1.0,322.0,0
202,202,-0.7966142523001136,0.1,0.0,320.0,791.0,1.0,289.0,0
203,203,-0.1373026309389438,0.4,0.0,451.0,997.0,1.0,1452.0,0
204,204,0.6632254686804648,0.8,0.0,348.0,514.0,0.0,478.0,1
205,205,0.32023523990499525,0.7,0.0,443.0,624.0,0.0,253.0,1
206,206,-0.3959426065828726,0.3,0.0,379.0,998.0,1.0,293.0,0
207,207,0.42531442170474865,0.7,0.0,278.0,833.0,0.0,229.0,1
208,208,0.255062921066435,0.6,0.0,384.0,654.0,0.0,802.0,1
209,209,-0.674890361503742,0.2,0.0,490.0,935.0,1.0,235.0,0
210,210,0.6734485404121044,0.8,0.0,398.0,592.0,0.0,390.0,1
211,211,-0.48030163603948717,0.3,0.0,255.0,505.0,1.0,640.0,0
212,212,0.8308202350612657,0.9,0.0,264.0,663.0,0.0,243.0,1
213,213,0.9125751258758039,1.0,0.0,352.0,796.0,0.0,282.0,1
214,214,-0.742856203540291,0.1,0.0,330.0,947.0,1.0,253.0,0
215,215,0.8911137506539017,0.9,0.0,362.0,967.0,0.0,181.0,1
216,216,0.0832869297119938,0.5,0.0,363.0,564.0,0.0,1943.0,1
217,217,0.11589383961440158,0.6,0.0,322.0,727.0,1.0,511.0,0
218,218,-0.5792799282282448,0.2,0.0,374.0,990.0,1.0,186.0,0
219,219,0.9332654096356721,1.0,0.0,278.0,730.0,0.0,602.0,1
220,220,0.8161638185545361,0.9,0.0,369.0,654.0,0.0,357.0,1
221,221,0.41703198571989386,0.7,0.0,367.0,845.0,0.0,1188.0,1
222,222,-0.6036816450853857,0.2,0.0,411.0,916.0,1.0,563.0,0
223,223,0.9014210013741724,1.0,0.0,467.0,939.0,0.0,394.0,1
224,224,-0.9738577247446532,0.0,0.0,482.0,735.0,1.0,223.0,0
225,225,0.022674335314913918,0.5,0.0,370.0,560.0,1.0,1040.0,0
226,226,0.45005968626881243,0.7,0.0,285.0,868.0,0.0,377.0,1
227,227,-0.8327136205500347,0.1,0.0,310.0,871.0,1.0,339.0,0
228,228,-0.02760044112296378,0.5,0.0,313.0,692.0,1.0,1595.0,0
229,229,-0.7018304744065507,0.1,0.0,410.0,903.0,1.0,367.0,0
230,230,-0.5213748656868009,0.2,0.0,427.0,811.0,1.0,282.0,0
231,231,-0.023471390664584924,0.5,0.0,368.0,623.0,1.0,2049.0,0
232,232,-0.3860469348662341,0.3,0.0,410.0,999.0,1.0,281.0,0
233,233,-0.20715599451976896,0.4,0.0,495.0,835.0,1.0,1620.0,0
234,234,0.7757156297369692,0.9,0.0,432.0,887.0,0.0,281.0,1
235,235,0.6388250016335939,0.8,0.0,339.0,841.0,0.0,270.0,1
236,236,0.434826305805194,0.7,0.0,270.0,929.0,0.0,291.0,1
237,237,-0.6561982047900923,0.2,0.0,276.0,961.0,1.0,273.0,0
238,238,-0.15186286430400942,0.4,0.0,374.0,644.0,0.0,912.0,1
239,239,-0.7758658563705114,0.1,0.0,274.0,572.0,1.0,214.0,0
240,240,0.3642407062175119,0.7,0.0,321.0,966.0,0.0,383.0,1
241,241,0.7693020542106046,0.9,0.0,389.0,892.0,0.0,319.0,1
242,242,-0.04802822854931188,0.5,0.0,309.0,638.0,0.0,703.0,1
243,243,0.609147619629375,0.8,0.0,320.0,608.0,0.0,472.0,1
244,244,0.49070937836101125,0.7,0.0,293.0,522.0,0.0,805.0,1
245,245,-0.5168957734851256,0.2,0.0,304.0,974.0,1.0,312.0,0
246,246,-0.6778575211416293,0.2,0.0,432.0,870.0,1.0,408.0,0
247,247,-0.6561557637461681,0.2,0.0,351.0,922.0,1.0,327.0,0
248,248,0.5848030914166171,0.8,0.0,349.0,835.0,0.0,346.0,1
249,249,0.019612538317883343,0.5,0.0,305.0,746.0,1.0,469.0,0
250,250,-0.7810940200996759,0.1,0.0,426.0,578.0,1.0,566.0,0
251,251,-0.06554219082749868,0.5,0.0,377.0,561.0,1.0,602.0,0
252,252,0.5555258007500934,0.8,0.0,259.0,747.0,0.0,374.0,1
253,253,0.019129402339896462,0.5,0.0,482.0,931.0,1.0,1797.0,0
254,254,-0.48457548716363075,0.3,0.0,320.0,990.0,1.0,520.0,0
255,255,0.3294048500650344,0.7,0.0,292.0,934.0,1.0,554.0,0
256,256,-0.8937819262732545,0.1,0.0,357.0,609.0,1.0,304.0,0
257,257,-0.9768548092972262,0.0,0.0,272.0,891.0,1.0,337.0,0
258,258,0.4178168118184904,0.7,0.0,370.0,968.0,0.0,332.0,1
259,259,0.10075586850069373,0.6,0.0,482.0,923.0,0.0,655.0,1
260,260,0.9156205271384859,1.0,0.0,432.0,834.0,0.0,224.0,1
261,261,-0.16456836169783529,0.4,0.0,303.0,634.0,1.0,623.0,0
262,262,0.8494839706409079,0.9,0.0,367.0,651.0,0.0,512.0,1
263,263,-0.7607867314564636,0.1,0.0,353.0,762.0,1.0,615.0,0
264,264,0.47486966948152953,0.7,0.0,384.0,710.0,0.0,256.0,1
265,265,-0.2022204808508199,0.4,0.0,424.0,819.0,0.0,387.0,1
266,266,-0.4395560349478773,0.3,0.0,373.0,740.0,1.0,247.0,0
267,267,0.5535366641421389,0.8,0.0,457.0,543.0,0.0,370.0,1
268,268,-0.5530673316297019,0.2,0.0,301.0,601.0,1.0,458.0,0
269,269,-0.09924020762727714,0.5,0.0,412.0,834.0,1.0,3254.0,0
270,270,-0.8123053439146155,0.1,0.0,460.0,879.0,1.0,201.0,0
271,271,-0.7988239807760014,0.1,0.0,389.0,655.0,1.0,336.0,0
272,272,0.21478905203815324,0.6,0.0,403.0,620.0,0.0,307.0,1
273,273,0.39961135253007907,0.7,0.0,422.0,883.0,0.0,455.0,1
274,274,0.05369913975444662,0.5,0.0,396.0,775.0,1.0,429.0,0
275,275,-0.48621879924201017,0.3,0.0,364.0,668.0,1.0,398.0,0
276,276,-0.39085457520417966,0.3,0.0,306.0,971.0,1.0,573.0,0
277,277,0.28160167163986105,0.6,0.0,401.0,822.0,0.0,407.0,1
278,278,0.013199280430381766,0.5,0.0,409.0,751.0,1.0,790.0,0
279,279,-0.42162630029296966,0.3,0.0,318.0,983.0,1.0,429.0,0
280,280,0.6059682946163574,0.8,0.0,279.0,854.0,0.0,357.0,1
281,281,0.2172691658190644,0.6,0.0,401.0,993.0,0.0,276.0,1
282,282,-0.7623819401943004,0.1,0.0,261.0,699.0,1.0,270.0,0
283,283,-0.47509141072742245,0.3,0.0,416.0,565.0,1.0,299.0,0
284,284,-0.6900390019658198,0.2,0.0,489.0,510.0,1.0,241.0,0
285,285,0.660345462341676,0.8,0.0,364.0,805.0,0.0,1001.0,1
286,286,0.6493610447798874,0.8,0.0,294.0,834.0,0.0,402.0,1
287,287,-0.8552293174465195,0.1,0.0,360.0,774.0,1.0,216.0,0
288,288,-0.05819413728751055,0.5,0.0,496.0,573.0,0.0,2581.0,1
289,289,0.9949515580828565,1.0,0.0,256.0,908.0,0.0,326.0,1
290,290,-0.7986042729352545,0.1,0.0,412.0,601.0,1.0,117.0,0
291,291,0.7614144638932201,0.9,0.0,430.0,786.0,0.0,384.0,1
292,292,0.8462004891943167,0.9,0.0,408.0,808.0,0.0,334.0,1
293,293,0.6521514452621635,0.8,0.0,309.0,904.0,0.0,397.0,1
294,294,0.7731285166612565,0.9,0.0,258.0,941.0,0.0,331.0,1
295,295,0.9967430164138755,1.0,0.0,338.0,716.0,0.0,266.0,1
296,296,0.40585127287261225,0.7,0.0,253.0,889.0,0.0,518.0,1
297,297,0.7535364162586553,0.9,0.0,256.0,626.0,0.0,588.0,1
298,298,-0.7414055851697283,0.1,0.0,439.0,563.0,1.0,298.0,0
299,299,-0.29385718447240095,0.4,0.0,416.0,928.0,1.0,296.0,0
300,300,-0.5955842343649047,0.2,0.0,475.0,944.0,1.0,311.0,0
301,301,-0.46434700969558507,0.3,0.0,348.0,741.0,1.0,401.0,0
302,302,-0.3348435018995912,0.3,0.0,287.0,693.0,1.0,720.0,0
303,303,-0.006388670926866125,0.5,0.0,353.0,833.0,1.0,1514.0,0
304,304,-0.5871784848107742,0.2,0.0,337.0,968.0,1.0,375.0,0
305,305,0.1347226122528593,0.6,0.0,482.0,619.0,1.0,569.0,0
306,306,-0.6725874476599498,0.2,0.0,349.0,673.0,1.0,198.0,0
307,307,0.5011578806788175,0.8,0.0,405.0,558.0,0.0,777.0,1
308,308,-0.289819271014506,0.4,0.0,348.0,555.0,1.0,287.0,0
309,309,0.7626435654672399,0.9,0.0,338.0,750.0,0.0,302.0,1
310,310,0.27630100498037935,0.6,0.0,342.0,634.0,0.0,1764.0,1
311,311,-0.21720635054168969,0.4,0.0,322.0,598.0,1.0,340.0,0
312,312,-0.6850844529771845,0.2,0.0,405.0,862.0,1.0,363.0,0
313,313,-0.9044086829359295,0.0,0.0,411.0,588.0,1.0,261.0,0
314,314,-0.812249557565381,0.1,0.0,360.0,620.0,1.0,230.0,0
315,315,0.6512111447851388,0.8,0.0,389.0,752.0,0.0,369.0,1
316,316,0.15697760947101114,0.6,0.0,359.0,670.0,0.0,791.0,1
317,317,-0.6569150719969656,0.2,0.0,464.0,806.0,1.0,300.0,0
318,318,0.3783368412418262,0.7,0.0,381.0,618.0,0.0,251.0,1
319,319,0.8902748813710808,0.9,0.0,433.0,893.0,0.0,534.0,1
320,320,0.8879533477714192,0.9,0.0,308.0,787.0,0.0,325.0,1
321,321,0.4376554709157663,0.7,0.0,444.0,819.0,0.0,517.0,1
322,322,-0.18148878749825337,0.4,0.0,499.0,733.0,1.0,768.0,0
323,323,-0.09226533426747441,0.5,0.0,393.0,668.0,1.0,369.0,0
324,324,0.5137797197591913,0.8,0.0,486.0,786.0,0.0,678.0,1
325,325,0.9423703210463301,1.0,0.0,281.0,709.0,0.0,380.0,1
326,326,0.29442629864917946,0.6,0.0,261.0,861.0,0.0,498.0,1
327,327,0.16297351517369596,0.6,0.0,345.0,744.0,1.0,1541.0,0
328,328,0.1989900682654948,0.6,0.0,339.0,620.0,0.0,241.0,1
329,329,0.6954581568424567,0.8,0.0,344.0,983.0,0.0,253.0,1
330,330,-0.327231781397024,0.3,0.0,379.0,933.0,1.0,918.0,0
331,331,-0.3816693978065797,0.3,0.0,282.0,670.0,1.0,418.0,0
332,332,-0.046259192085955636,0.5,0.0,428.0,975.0,1.0,1987.0,0
333,333,0.39594813901549886,0.7,0.0,455.0,804.0,0.0,371.0,1
334,334,0.722936342491487,0.9,0.0,338.0,538.0,0.0,444.0,1
335,335,-0.8530536928653696,0.1,0.0,411.0,657.0,1.0,332.0,0
336,336,-0.21486452472006,0.4,0.0,361.0,962.0,1.0,1377.0,0
337,337,0.38408118695696825,0.7,0.0,488.0,538.0,0.0,444.0,1
338,338,0.10760114073791271,0.6,0.0,285.0,702.0,0.0,143.0,1
339,339,-0.15537090910046647,0.4,0.0,463.0,965.0,1.0,532.0,0
340,340,0.7111442819024041,0.9,0.0,436.0,658.0,0.0,236.0,1
341,341,-0.024298057458708833,0.5,0.0,492.0,866.0,0.0,1662.0,1
342,342,0.11850263123728788,0.6,0.0,359.0,845.0,0.0,416.0,1
343,343,-0.05107571833381952,0.5,0.0,466.0,529.0,1.0,1815.0,0
344,344,0.8276717004052561,0.9,0.0,484.0,966.0,0.0,460.0,1
345,345,0.9168501123684885,1.0,0.0,299.0,680.0,0.0,251.0,1
346,346,-0.18536573849890625,0.4,0.0,347.0,940.0,1.0,603.0,0
347,347,0.05574338342599927,0.5,0.0,378.0,798.0,1.0,3824.0,0
348,348,0.43150833882934747,0.7,0.0,262.0,818.0,0.0,500.0,1
349,349,0.4091996554208086,0.7,0.0,453.0,943.0,0.0,294.0,1
350,350,-0.9411445647527923,0.0,0.0,367.0,956.0,1.0,447.0,0
351,351,0.8445233596642088,0.9,0.0,290.0,938.0,0.0,352.0,1
352,352,-0.4334577429592581,0.3,0.0,284.0,774.0,1.0,332.0,0
353,353,-0.5389969641347185,0.2,0.0,307.0,520.0,1.0,403.0,0
354,354,-0.26840036823910385,0.4,0.0,372.0,892.0,0.0,326.0,1
355,355,-0.006918605397202349,0.5,0.0,446.0,683.0,1.0,951.0,0
356,356,0.19793556122467804,0.6,0.0,383.0,517.0,0.0,740.0,1
357,357,-0.310518656036866,0.3,0.0,279.0,545.0,1.0,1256.0,0
358,358,0.9301442867704481,1.0,0.0,397.0,615.0,0.0,368.0,1
359,359,-0.5307545300150547,0.2,0.0,447.0,958.0,1.0,395.0,0
360,360,-0.5827665938491349,0.2,0.0,324.0,544.0,1.0,452.0,0
361,361,0.9971803774124728,1.0,0.0,275.0,920.0,0.0,235.0,1
362,362,0.8530876072768023,0.9,0.0,412.0,528.0,0.0,340.0,1
363,363,0.5843841727920207,0.8,0.0,453.0,530.0,0.0,607.0,1
364,364,-0.19641634083704673,0.4,0.0,287.0,891.0,1.0,1152.0,0
365,365,-0.43349215497878,0.3,0.0,444.0,979.0,1.0,467.0,0
366,366,0.2900352220375777,0.6,0.0,458.0,656.0,0.0,666.0,1
367,367,0.1682362633363894,0.6,0.0,369.0,826.0,0.0,605.0,1
368,368,0.3595889584516314,0.7,0.0,279.0,713.0,0.0,118.0,1
369,369,-0.8409487415827035,0.1,0.0,460.0,756.0,1.0,284.0,0
370,370,-0.5681827277954785,0.2,0.0,435.0,526.0,1.0,409.0,0
371,371,-0.008863617163097137,0.5,0.0,383.0,687.0,1.0,840.0,0
372,372,-0.8626758584334928,0.1,0.0,343.0,602.0,1.0,275.0,0
373,373,0.9945343624896335,1.0,0.0,431.0,901.0,0.0,1008.0,1
374,374,0.5967480774690028,0.8,0.0,325.0,771.0,0.0,414.0,1
375,375,0.6637381546356758,0.8,0.0,366.0,647.0,0.0,477.0,1
376,376,0.6981244714622834,0.8,0.0,398.0,787.0,0.0,475.0,1
377,377,-0.9778392525150659,0.0,0.0,283.0,614.0,1.0,213.0,0
378,378,-0.057399359139143735,0.5,0.0,276.0,998.0,1.0,1076.0,0
379,379,0.9253822216723726,1.0,0.0,381.0,705.0,0.0,284.0,1
380,380,-0.21131725566136916,0.4,0.0,369.0,995.0,1.0,566.0,0
381,381,0.4882502429329718,0.7,0.0,444.0,613.0,0.0,433.0,1
382,382,0.05239423604868554,0.5,0.0,251.0,839.0,1.0,780.0,0
383,383,-0.7263976496988145,0.1,0.0,480.0,730.0,1.0,290.0,0
384,384,0.7999437714882205,0.9,0.0,410.0,771.0,0.0,359.0,1
385,385,0.5178470368995352,0.8,0.0,312.0,586.0,0.0,282.0,1
386,386,-0.6983213146951619,0.2,0.0,351.0,753.0,1.0,296.0,0
387,387,-0.7920655607194391,0.1,0.0,441.0,857.0,1.0,332.0,0
388,388,-0.6507901115886054,0.2,0.0,487.0,666.0,1.0,357.0,0
389,389,0.15867976519210547,0.6,0.0,468.0,544.0,0.0,508.0,1
390,390,0.7901758853268264,0.9,0.0,270.0,981.0,0.0,389.0,1
391,391,-0.13385102653496705,0.4,0.0,350.0,619.0,1.0,431.0,0
392,392,-0.20239955563233725,0.4,0.0,255.0,709.0,1.0,986.0,0
393,393,0.5771947525604104,0.8,0.0,445.0,629.0,0.0,276.0,1
394,394,0.05156870363155486,0.5,0.0,411.0,678.0,0.0,1421.0,1
395,395,0.731103843644797,0.9,0.0,486.0,525.0,0.0,349.0,1
396,396,-0.7065487523659824,0.1,0.0,292.0,645.0,1.0,273.0,0
397,397,0.010832783094919973,0.5,0.0,422.0,739.0,1.0,349.0,0
398,398,-0.9036807479133491,0.0,0.0,474.0,914.0,1.0,342.0,0
399,399,-0.5202612584695814,0.2,0.0,480.0,931.0,1.0,399.0,0
400,400,0.01631098006793885,0.5,0.0,303.0,976.0,1.0,371.0,0
401,401,0.7393134517640745,0.9,0.0,483.0,923.0,0.0,174.0,1
402,402,-0.34551090176530086,0.3,0.0,447.0,656.0,1.0,297.0,0
403,403,0.048942661232616036,0.5,0.0,480.0,613.0,1.0,557.0,0
404,404,-0.3559657969711272,0.3,0.0,400.0,694.0,1.0,516.0,0
405,405,-0.5156013820886827,0.2,0.0,480.0,866.0,1.0,224.0,0
406,406,0.366906507158963,0.7,0.0,412.0,825.0,0.0,663.0,1
407,407,0.3496124080510967,0.7,0.0,264.0,676.0,0.0,240.0,1
408,408,-0.30489679919886337,0.3,0.0,431.0,642.0,1.0,1187.0,0
409,409,-0.9786855687665597,0.0,0.0,270.0,920.0,1.0,230.0,0
410,410,0.44717750048135585,0.7,0.0,406.0,883.0,0.0,781.0,1
411,411,-0.4676911177240948,0.3,0.0,263.0,791.0,1.0,296.0,0
412,412,-0.11241496936046258,0.4,0.0,481.0,542.0,1.0,1137.0,0
413,413,-0.6225746906678438,0.2,0.0,492.0,941.0,1.0,517.0,0
414,414,0.8787492285406799,0.9,0.0,378.0,752.0,0.0,300.0,1
415,415,0.038957381801729474,0.5,0.0,332.0,531.0,0.0,1137.0,1
416,416,-0.42939451849611654,0.3,0.0,263.0,927.0,1.0,390.0,0
417,417,0.8966099823387732,0.9,0.0,431.0,899.0,0.0,220.0,1
418,418,-0.9305583205983896,0.0,0.0,332.0,715.0,1.0,543.0,0
419,419,0.7560690433204533,0.9,0.0,284.0,706.0,0.0,240.0,1
420,420,0.3555764449387073,0.7,0.0,409.0,983.0,0.0,668.0,1
421,421,-0.1671680587470188,0.4,0.0,428.0,934.0,1.0,758.0,0
422,422,0.8502752510131522,0.9,0.0,472.0,685.0,0.0,273.0,1
423,423,0.20886725021741137,0.6,0.0,472.0,852.0,0.0,346.0,1
424,424,-0.6944026139836592,0.2,0.0,338.0,576.0,1.0,286.0,0
425,425,-0.14558095938882887,0.4,0.0,394.0,765.0,1.0,661.0,0
426,426,0.7370593126123417,0.9,0.0,306.0,574.0,0.0,560.0,1
427,427,0.8498850428550542,0.9,0.0,297.0,893.0,0.0,320.0,1
428,428,0.8538707665411256,0.9,0.0,341.0,702.0,0.0,257.0,1
429,429,0.9954417989364748,1.0,0.0,332.0,524.0,0.0,214.0,1
430,430,0.7375049884386282,0.9,0.0,367.0,988.0,0.0,305.0,1
431,431,-0.12560350930761932,0.4,0.0,335.0,884.0,1.0,371.0,0
432,432,-0.009988004469957845,0.5,0.0,450.0,888.0,1.0,1092.0,0
433,433,0.7593452643583687,0.9,0.0,315.0,704.0,0.0,211.0,1
434,434,-0.7344756168644822,0.1,0.0,389.0,728.0,1.0,323.0,0
435,435,0.5279173156949852,0.8,0.0,269.0,637.0,0.0,1034.0,1
436,436,-0.5464739962552565,0.2,0.0,265.0,630.0,1.0,655.0,0
437,437,-0.3627878953933035,0.3,0.0,307.0,852.0,1.0,631.0,0
438,438,0.7177900509153718,0.9,0.0,251.0,623.0,0.0,256.0,1
439,439,0.2425746306057739,0.6,0.0,355.0,877.0,0.0,498.0,1
440,440,0.5083007942771116,0.8,0.0,300.0,744.0,0.0,296.0,1
441,441,-0.07862656758480435,0.5,0.0,425.0,856.0,1.0,909.0,0
442,442,0.059254865669382095,0.5,0.0,344.0,891.0,0.0,1695.0,1
443,443,-0.6121606080045563,0.2,0.0,400.0,925.0,1.0,185.0,0
444,444,-0.5172042527167962,0.2,0.0,442.0,552.0,1.0,306.0,0
445,445,0.25788945571386446,0.6,0.0,399.0,651.0,0.0,890.0,1
446,446,-0.59287638028018,0.2,0.0,399.0,678.0,1.0,383.0,0
447,447,0.44047955187530974,0.7,0.0,299.0,718.0,0.0,413.0,1
448,448,0.8501640212919206,0.9,0.0,435.0,710.0,0.0,295.0,1
449,449,-0.3478148488538553,0.3,0.0,333.0,774.0,1.0,293.0,0
450,450,-0.5318879940355277,0.2,0.0,495.0,702.0,1.0,253.0,0
451,451,0.31526496791103154,0.7,0.0,462.0,623.0,0.0,1515.0,1
452,452,-0.9866934419425548,0.0,0.0,266.0,804.0,1.0,300.0,0
453,453,-0.5974250991800825,0.2,0.0,262.0,956.0,1.0,192.0,0
454,454,-0.4825597178398988,0.3,0.0,284.0,976.0,1.0,390.0,0
455,455,0.7830999516633799,0.9,0.0,331.0,818.0,0.0,221.0,1
456,456,0.20378778713418977,0.6,0.0,466.0,948.0,0.0,306.0,1
457,457,-0.24576257400623036,0.4,0.0,459.0,807.0,1.0,464.0,0
458,458,0.6952010809043125,0.8,0.0,456.0,613.0,0.0,781.0,1
459,459,-0.7495338107080569,0.1,0.0,337.0,986.0,1.0,307.0,0
460,460,0.02139624747394464,0.5,0.0,471.0,824.0,1.0,935.0,0
461,461,-0.37758341583022115,0.3,0.0,260.0,794.0,1.0,256.0,0
462,462,0.9960777289997604,1.0,0.0,318.0,890.0,0.0,352.0,1
463,463,-0.20601946410108884,0.4,0.0,298.0,880.0,1.0,472.0,0
464,464,-0.6319609570508729,0.2,0.0,331.0,543.0,1.0,276.0,0
465,465,-0.5107579260667605,0.2,0.0,253.0,998.0,1.0,199.0,0
466,466,-0.35707018718547134,0.3,0.0,304.0,783.0,1.0,443.0,0
467,467,-0.811374991070605,0.1,0.0,417.0,762.0,1.0,181.0,0
468,468,-0.3074494714829623,0.3,0.0,436.0,974.0,1.0,350.0,0
469,469,-0.037172019597147,0.5,0.0,473.0,738.0,0.0,419.0,1
470,470,-0.3503816202220289,0.3,0.0,328.0,543.0,1.0,399.0,0
471,471,-0.4007460399264977,0.3,0.0,377.0,786.0,1.0,387.0,0
472,472,0.7797939475636315,0.9,0.0,387.0,527.0,0.0,296.0,1
473,473,0.20657889090617676,0.6,0.0,312.0,919.0,0.0,1629.0,1
474,474,-0.7884477982401403,0.1,0.0,435.0,802.0,1.0,273.0,0
475,475,-0.37874467841955095,0.3,0.0,356.0,654.0,1.0,230.0,0
476,476,0.2205116489127148,0.6,0.0,331.0,648.0,0.0,351.0,1
477,477,-0.43682238608993007,0.3,0.0,482.0,666.0,1.0,322.0,0
478,478,0.27509886588358334,0.6,0.0,374.0,513.0,0.0,213.0,1
479,479,-0.9330970442517821,0.0,0.0,398.0,912.0,1.0,170.0,0
480,480,-0.09586390338428563,0.5,0.0,437.0,981.0,1.0,752.0,0
481,481,0.5227680228651845,0.8,0.0,460.0,791.0,0.0,1229.0,1
482,482,0.14394829737017467,0.6,0.0,447.0,666.0,0.0,1037.0,1
483,483,-0.42449033213654097,0.3,0.0,410.0,655.0,1.0,545.0,0
484,484,0.6346950759251517,0.8,0.0,360.0,512.0,0.0,308.0,1
485,485,-0.6948632139115376,0.2,0.0,324.0,736.0,1.0,150.0,0
486,486,0.5035615201311012,0.8,0.0,297.0,976.0,0.0,607.0,1
487,487,-0.1511955871405486,0.4,0.0,452.0,713.0,1.0,1145.0,0
488,488,0.3977480263384596,0.7,0.0,294.0,908.0,0.0,1258.0,1
489,489,0.11619783922661164,0.6,0.0,276.0,543.0,0.0,291.0,1
490,490,0.16243224054021055,0.6,0.0,282.0,766.0,1.0,1962.0,0
491,491,-0.42170576434465157,0.3,0.0,260.0,644.0,1.0,736.0,0
492,492,-0.5492961772914977,0.2,0.0,488.0,744.0,1.0,328.0,0
493,493,-0.16977749561998112,0.4,0.0,362.0,509.0,1.0,309.0,0
494,494,-0.45346376840807756,0.3,0.0,365.0,761.0,1.0,244.0,0
495,495,0.27777916477246056,0.6,0.0,274.0,603.0,0.0,653.0,1
496,496,0.723358609164445,0.9,0.0,475.0,550.0,0.0,235.0,1
497,497,0.3465684746603199,0.7,0.0,479.0,731.0,0.0,1140.0,1
498,498,0.4901602310416455,0.7,0.0,322.0,647.0,0.0,191.0,1
499,499,0.8724289240531731,0.9,0.0,333.0,669.0,0.0,648.0,1
500,500,0.39175032317083547,0.7,0.0,375.0,505.0,0.0,360.0,1
501,501,-0.6168581466676168,0.2,0.0,399.0,986.0,1.0,745.0,0
502,502,0.35196984563454436,0.7,0.0,445.0,598.0,1.0,1127.0,0
503,503,-0.49663383859186006,0.3,0.0,392.0,624.0,1.0,614.0,0
504,504,0.6326088694385423,0.8,0.0,316.0,846.0,0.0,288.0,1
505,505,0.08994497092538567,0.5,0.0,363.0,929.0,0.0,508.0,1
506,506,0.07310613009532796,0.5,0.0,272.0,893.0,0.0,645.0,1
507,507,0.8548903649908894,0.9,0.0,257.0,659.0,0.0,254.0,1
508,508,-0.19477232397585764,0.4,0.0,419.0,552.0,1.0,1039.0,0
509,509,-0.24046438543566673,0.4,0.0,323.0,819.0,1.0,598.0,0
510,510,0.08333585044080083,0.5,0.0,285.0,810.0,0.0,1015.0,1
511,511,0.7438126937975296,0.9,0.0,401.0,528.0,0.0,821.0,1
512,512,-0.8452039690962172,0.1,0.0,439.0,680.0,1.0,321.0,0
513,513,0.4904584993461072,0.7,0.0,435.0,632.0,0.0,223.0,1
514,514,-0.2983409430032675,0.4,0.0,370.0,735.0,1.0,545.0,0
515,515,0.047925707956639974,0.5,0.0,419.0,840.0,0.0,581.0,1
516,516,-0.1505575157565282,0.4,0.0,361.0,802.0,1.0,527.0,0
517,517,0.7350172165562665,0.9,0.0,446.0,967.0,0.0,1067.0,1
518,518,-0.828267200005725,0.1,0.0,278.0,890.0,1.0,242.0,0
519,519,-0.5669095967922955,0.2,0.0,495.0,951.0,1.0,434.0,0
520,520,0.07165694580992654,0.5,0.0,350.0,957.0,0.0,333.0,1
521,521,0.24790802540187218,0.6,0.0,339.0,705.0,0.0,846.0,1
522,522,-0.22848851696396166,0.4,0.0,346.0,532.0,1.0,1042.0,0
523,523,-0.9822530295308536,0.0,0.0,322.0,577.0,1.0,281.0,0
524,524,-0.5684043732876614,0.2,0.0,468.0,822.0,1.0,250.0,0
525,525,0.2599107208150304,0.6,0.0,458.0,587.0,0.0,535.0,1
526,526,-0.6957067732196678,0.2,0.0,410.0,523.0,1.0,367.0,0
527,527,0.6004718853967743,0.8,0.0,439.0,604.0,0.0,477.0,1
528,528,0.3981461980826644,0.7,0.0,257.0,570.0,0.0,663.0,1
529,529,-0.3515907935373781,0.3,0.0,423.0,818.0,1.0,509.0,0
530,530,-0.4059455290009961,0.3,0.0,320.0,960.0,1.0,510.0,0
531,531,0.40868575886972014,0.7,0.0,420.0,859.0,0.0,221.0,1
532,532,-0.5862148175977313,0.2,0.0,361.0,897.0,1.0,402.0,0
533,533,-0.032334742722326615,0.5,0.0,489.0,528.0,1.0,573.0,0
534,534,-0.6651863479524636,0.2,0.0,350.0,908.0,1.0,162.0,0
535,535,-0.5828256676110566,0.2,0.0,410.0,927.0,1.0,433.0,0
536,536,0.0707878773507189,0.5,0.0,275.0,791.0,1.0,1584.0,0
537,537,-0.06184790832033382,0.5,0.0,465.0,918.0,1.0,3227.0,0
538,538,0.1195385184550648,0.6,0.0,307.0,944.0,0.0,579.0,1
539,539,0.7429733312446174,0.9,0.0,468.0,514.0,0.0,478.0,1
540,540,0.8424892787917175,0.9,0.0,459.0,804.0,0.0,247.0,1
541,541,0.9014376490892668,1.0,0.0,401.0,666.0,0.0,253.0,1
542,542,-0.38918682280128136,0.3,0.0,425.0,745.0,1.0,340.0,0
543,543,0.07382631184349009,0.5,0.0,382.0,827.0,0.0,921.0,1
544,544,-0.14132714125394985,0.4,0.0,494.0,525.0,1.0,491.0,0
545,545,-0.30940586013235616,0.3,0.0,350.0,916.0,1.0,424.0,0
546,546,-0.16961154982794202,0.4,0.0,289.0,800.0,1.0,551.0,0
547,547,0.4417004862767768,0.7,0.0,307.0,608.0,0.0,395.0,1
548,548,-0.5257043760571598,0.2,0.0,475.0,946.0,1.0,879.0,0
549,549,-0.8119274614757159,0.1,0.0,458.0,824.0,1.0,248.0,0
550,550,0.018403651406827537,0.5,0.0,451.0,952.0,0.0,1407.0,1
551,551,-0.31738737616883506,0.3,0.0,423.0,879.0,1.0,568.0,0
552,552,0.29646728053751215,0.6,0.0,251.0,752.0,0.0,367.0,1
553,553,0.6303567531384264,0.8,0.0,496.0,594.0,0.0,340.0,1
554,554,0.025876280394852014,0.5,0.0,472.0,874.0,1.0,1774.0,0
555,555,0.5840900802892584,0.8,0.0,318.0,555.0,0.0,247.0,1
556,556,0.892607447663152,0.9,0.0,398.0,852.0,0.0,480.0,1
557,557,-0.6932339044251317,0.2,0.0,439.0,759.0,1.0,452.0,0
558,558,0.5559295385649443,0.8,0.0,267.0,960.0,0.0,663.0,1
559,559,0.8704940883605592,0.9,0.0,286.0,933.0,0.0,761.0,1
560,560,0.9256665523150744,1.0,0.0,461.0,624.0,0.0,245.0,1
561,561,0.7803406733632798,0.9,0.0,422.0,685.0,0.0,203.0,1
562,562,0.2716825613789713,0.6,0.0,311.0,670.0,0.0,509.0,1
563,563,-0.16514756677788434,0.4,0.0,315.0,568.0,1.0,597.0,0
564,564,-0.25918829335160587,0.4,0.0,437.0,986.0,1.0,527.0,0
565,565,0.3063386710427016,0.7,0.0,438.0,585.0,0.0,277.0,1
566,566,0.21129228018606927,0.6,0.0,280.0,509.0,0.0,221.0,1
567,567,0.1875713847440319,0.6,0.0,435.0,511.0,0.0,394.0,1
568,568,-0.8724258508305442,0.1,0.0,397.0,652.0,1.0,331.0,0
569,569,0.09406227054516059,0.5,0.0,461.0,832.0,0.0,937.0,1
570,570,0.0259269125500734,0.5,0.0,359.0,609.0,1.0,1052.0,0
571,571,0.8389885189417221,0.9,0.0,472.0,890.0,0.0,318.0,1
572,572,-0.6405372495721311,0.2,0.0,398.0,677.0,1.0,315.0,0
573,573,-0.15480601661249493,0.4,0.0,263.0,909.0,1.0,518.0,0
574,574,-0.7126397819883599,0.1,0.0,413.0,991.0,1.0,436.0,0
575,575,-0.5637234579099841,0.2,0.0,493.0,789.0,1.0,528.0,0
576,576,0.6284749709910877,0.8,0.0,333.0,988.0,0.0,279.0,1
577,577,-0.9949170786558541,0.0,0.0,433.0,507.0,1.0,280.0,0
578,578,0.18284580570713072,0.6,0.0,337.0,723.0,0.0,290.0,1
579,579,0.38321595210027026,0.7,0.0,478.0,987.0,0.0,605.0,1
580,580,0.6937744999411486,0.8,0.0,464.0,575.0,0.0,701.0,1
581,581,-0.15198440111800848,0.4,0.0,272.0,771.0,1.0,477.0,0
582,582,0.5586576400217182,0.8,0.0,499.0,887.0,0.0,424.0,1
583,583,-0.9543555784998736,0.0,0.0,350.0,948.0,1.0,262.0,0
584,584,-0.8323983404427557,0.1,0.0,462.0,702.0,1.0,416.0,0
585,585,0.4453933618761894,0.7,0.0,387.0,527.0,0.0,316.0,1
586,586,-0.5933912806885533,0.2,0.0,365.0,686.0,1.0,419.0,0
587,587,0.4052620276980208,0.7,0.0,390.0,614.0,0.0,256.0,1
588,588,-0.9480557525048456,0.0,0.0,332.0,583.0,1.0,285.0,0
589,589,-0.36671913419248714,0.3,0.0,330.0,558.0,1.0,772.0,0
590,590,0.3538566064923645,0.7,0.0,456.0,901.0,0.0,393.0,1
591,591,0.2684179318126281,0.6,0.0,338.0,809.0,0.0,563.0,1
592,592,0.6694604877589652,0.8,0.0,334.0,934.0,0.0,332.0,1
593,593,0.817602237689445,0.9,0.0,440.0,847.0,0.0,283.0,1
594,594,-0.46768474523358416,0.3,0.0,275.0,552.0,1.0,353.0,0
595,595,-0.766205771409356,0.1,0.0,490.0,654.0,1.0,266.0,0
596,596,0.646637933480823,0.8,0.0,473.0,903.0,0.0,474.0,1
597,597,0.1502335284866514,0.6,0.0,335.0,957.0,0.0,428.0,1
598,598,0.44241443852724927,0.7,0.0,444.0,530.0,0.0,326.0,1
599,599,-0.5677264111286728,0.2,0.0,352.0,875.0,1.0,463.0,0
600,600,0.5249146976234085,0.8,0.0,439.0,731.0,0.0,410.0,1
601,601,0.5823506217032861,0.8,0.0,444.0,840.0,0.0,256.0,1
602,602,-0.09730851819505526,0.5,0.0,434.0,695.0,1.0,2101.0,0
603,603,0.584015979677766,0.8,0.0,478.0,939.0,0.0,473.0,1
604,604,-0.07682176823314313,0.5,0.0,251.0,951.0,0.0,568.0,1
605,605,0.8204506624891965,0.9,0.0,458.0,673.0,0.0,229.0,1
606,606,-0.041955193783945965,0.5,0.0,382.0,711.0,1.0,437.0,0
607,607,-0.6076296425592955,0.2,0.0,293.0,783.0,1.0,294.0,0
608,608,0.6581455918152745,0.8,0.0,317.0,662.0,0.0,561.0,1
609,609,0.4531105304739922,0.7,0.0,368.0,584.0,0.0,858.0,1
610,610,0.9202009002923501,1.0,0.0,452.0,788.0,0.0,300.0,1
611,611,-0.5926922117015334,0.2,0.0,289.0,705.0,1.0,296.0,0
612,612,0.6792824584003101,0.8,0.0,384.0,629.0,0.0,477.0,1
613,613,-0.5025671934512412,0.2,0.0,489.0,900.0,1.0,241.0,0
614,614,0.9974662157788925,1.0,0.0,482.0,850.0,0.0,338.0,1
615,615,-0.7120552522102166,0.1,0.0,258.0,885.0,1.0,417.0,0
616,616,-0.807474577724888,0.1,0.0,493.0,671.0,1.0,216.0,0
617,617,0.54183239149896,0.8,0.0,340.0,803.0,0.0,197.0,1
618,618,-0.6688797649272387,0.2,0.0,403.0,740.0,1.0,407.0,0
619,619,0.06217231124190925,0.5,0.0,307.0,568.0,0.0,825.0,1
620,620,-0.4472445298238896,0.3,0.0,393.0,664.0,1.0,713.0,0
621,621,-0.389278829804226,0.3,0.0,299.0,841.0,1.0,400.0,0
622,622,0.7152082065031125,0.9,0.0,327.0,801.0,0.0,452.0,1
623,623,0.2537692773532487,0.6,0.0,370.0,807.0,0.0,303.0,1
624,624,-0.8613770490662902,0.1,0.0,407.0,623.0,1.0,200.0,0
625,625,-0.4837080837916172,0.3,0.0,318.0,827.0,1.0,345.0,0
626,626,-0.9083608792820888,0.0,0.0,391.0,552.0,1.0,287.0,0
627,627,-0.7443877652237814,0.1,0.0,384.0,556.0,1.0,330.0,0
628,628,0.036020946887436844,0.5,0.0,272.0,761.0,0.0,647.0,1
629,629,0.26787933189696833,0.6,0.0,339.0,918.0,0.0,663.0,1
630,630,0.496537697620689,0.7,0.0,321.0,592.0,0.0,457.0,1
631,631,-0.8417869452145172,0.1,0.0,293.0,827.0,1.0,240.0,0
632,632,-0.2992746383396301,0.4,0.0,268.0,593.0,1.0,769.0,0
633,633,-0.954770246515237,0.0,0.0,434.0,812.0,1.0,254.0,0
634,634,-0.8121483806288186,0.1,0.0,250.0,530.0,1.0,390.0,0
635,635,-0.6673530576589097,0.2,0.0,365.0,632.0,1.0,323.0,0
636,636,-0.9360502628304104,0.0,0.0,437.0,925.0,1.0,278.0,0
637,637,-0.44760185252790485,0.3,0.0,439.0,970.0,1.0,431.0,0
638,638,0.08347277461540492,0.5,0.0,267.0,756.0,0.0,777.0,1
639,639,-0.32523064919444455,0.3,0.0,358.0,563.0,1.0,299.0,0
640,640,0.048728824014285355,0.5,0.0,373.0,640.0,0.0,587.0,1
641,641,0.007808318351611998,0.5,0.0,417.0,720.0,1.0,583.0,0
642,642,-0.357999750193009,0.3,0.0,335.0,687.0,1.0,318.0,0
643,643,-0.08557150646028999,0.5,0.0,319.0,788.0,1.0,673.0,0
644,644,-0.16754061261516018,0.4,0.0,315.0,960.0,1.0,325.0,0
645,645,0.20240481136487398,0.6,0.0,285.0,529.0,0.0,666.0,1
646,646,-0.9888651680312057,0.0,0.0,496.0,586.0,1.0,228.0,0
647,647,0.8667374988496968,0.9,0.0,277.0,791.0,0.0,272.0,1
648,648,-0.48083710717549755,0.3,0.0,458.0,850.0,1.0,292.0,0
649,649,-0.7760129571269281,0.1,0.0,480.0,899.0,1.0,301.0,0
650,650,-0.3843538125788293,0.3,0.0,258.0,999.0,1.0,343.0,0
651,651,-0.6562951641615924,0.2,0.0,352.0,644.0,1.0,394.0,0
652,652,0.5651621299061032,0.8,0.0,291.0,802.0,0.0,417.0,1
653,653,-0.07497256522825246,0.5,0.0,328.0,784.0,1.0,1758.0,0
654,654,0.07992152173567257,0.5,0.0,396.0,845.0,0.0,649.0,1
655,655,0.5535134584363619,0.8,0.0,292.0,683.0,0.0,345.0,1
656,656,-0.41278687706260064,0.3,0.0,464.0,662.0,1.0,394.0,0
657,657,0.03274213758636324,0.5,0.0,475.0,907.0,0.0,348.0,1
658,658,0.7746692228862917,0.9,0.0,339.0,816.0,0.0,725.0,1
659,659,0.2513680231537181,0.6,0.0,346.0,934.0,0.0,730.0,1
660,660,0.14394500196759097,0.6,0.0,294.0,780.0,1.0,1856.0,0
661,661,-0.08737437024027828,0.5,0.0,442.0,730.0,1.0,818.0,0
662,662,0.08054884183388222,0.5,0.0,468.0,721.0,0.0,371.0,1
663,663,-0.8040621519868152,0.1,0.0,454.0,967.0,1.0,279.0,0
664,664,0.12995668506231883,0.6,0.0,460.0,748.0,0.0,772.0,1
665,665,0.5037327548667951,0.8,0.0,375.0,813.0,0.0,772.0,1
666,666,-0.7999074272702584,0.1,0.0,415.0,979.0,1.0,246.0,0
667,667,0.8243527994721966,0.9,0.0,353.0,545.0,0.0,232.0,1
668,668,-0.4729054972665172,0.3,0.0,265.0,920.0,1.0,245.0,0
669,669,-0.3516552420033281,0.3,0.0,316.0,678.0,1.0,456.0,0
670,670,0.9956568436058104,1.0,0.0,332.0,784.0,0.0,244.0,1
671,671,0.9240372484579089,1.0,0.0,251.0,634.0,0.0,285.0,1
672,672,-0.555321201134088,0.2,0.0,297.0,901.0,1.0,352.0,0
673,673,0.5531047266615099,0.8,0.0,277.0,592.0,0.0,301.0,1
674,674,-0.5825456301643481,0.2,0.0,356.0,664.0,1.0,260.0,0
675,675,-0.4122289071013432,0.3,0.0,491.0,808.0,1.0,421.0,0
676,676,-0.9017540440918579,0.0,0.0,352.0,977.0,1.0,351.0,0
677,677,-0.4653203334659155,0.3,0.0,297.0,988.0,1.0,215.0,0
678,678,0.7580773204857703,0.9,0.0,300.0,879.0,0.0,321.0,1
679,679,-0.5386000290627599,0.2,0.0,451.0,640.0,1.0,549.0,0
680,680,-0.4555081762931872,0.3,0.0,276.0,578.0,1.0,486.0,0
681,681,-0.6952464426103908,0.2,0.0,466.0,899.0,1.0,375.0,0
682,682,0.420150749271353,0.7,0.0,263.0,749.0,0.0,278.0,1
683,683,-0.8493785063828212,0.1,0.0,451.0,884.0,1.0,385.0,0
684,684,-0.2175670546066839,0.4,0.0,478.0,998.0,1.0,494.0,0
685,685,0.4997923149904435,0.7,0.0,492.0,851.0,0.0,527.0,1
686,686,0.25934021787821626,0.6,0.0,344.0,953.0,0.0,393.0,1
687,687,-0.662633108935613,0.2,0.0,267.0,701.0,1.0,522.0,0
688,688,0.8985903497814267,0.9,0.0,333.0,555.0,0.0,472.0,1
689,689,-0.3087185366609877,0.3,0.0,273.0,669.0,1.0,1768.0,0
690,690,0.1664474955094295,0.6,0.0,295.0,902.0,0.0,2573.0,1
691,691,-0.4256523423061538,0.3,0.0,309.0,720.0,1.0,501.0,0
692,692,-0.6983293194317202,0.2,0.0,322.0,528.0,1.0,260.0,0
693,693,-0.4781367051922807,0.3,0.0,277.0,522.0,1.0,651.0,0
694,694,-0.10929732871998499,0.4,0.0,410.0,835.0,1.0,835.0,0
695,695,-0.36825144223574724,0.3,0.0,311.0,799.0,1.0,1240.0,0
696,696,0.16944672078477763,0.6,0.0,463.0,621.0,0.0,1406.0,1
697,697,0.7683567905270505,0.9,0.0,343.0,707.0,0.0,550.0,1
698,698,0.2246887476495869,0.6,0.0,369.0,925.0,0.0,456.0,1
699,699,-0.5524700689361739,0.2,0.0,349.0,818.0,1.0,443.0,0
700,700,-0.08079996901100106,0.5,0.0,494.0,984.0,1.0,882.0,0
701,701,0.8585250043857884,0.9,0.0,462.0,819.0,0.0,309.0,1
702,702,-0.23811390615906602,0.4,0.0,345.0,521.0,1.0,234.0,0
703,703,-0.8986136588894382,0.1,0.0,287.0,931.0,1.0,242.0,0
704,704,0.737932826402093,0.9,0.0,453.0,854.0,0.0,383.0,1
705,705,0.42601099522788766,0.7,0.0,402.0,872.0,0.0,496.0,1
706,706,0.6215434921669154,0.8,0.0,320.0,605.0,0.0,635.0,1
707,707,-0.4201729456492094,0.3,0.0,448.0,631.0,1.0,251.0,0
708,708,-0.5990503903361104,0.2,0.0,464.0,928.0,1.0,298.0,0
709,709,0.01275533347971236,0.5,0.0,462.0,515.0,1.0,1303.0,0
710,710,0.13613715748730848,0.6,0.0,384.0,563.0,0.0,303.0,1
711,711,0.7818372530629776,0.9,0.0,445.0,697.0,0.0,298.0,1
712,712,0.9984791486965192,1.0,0.0,335.0,587.0,0.0,308.0,1
713,713,-0.3133288719240568,0.3,0.0,490.0,638.0,1.0,382.0,0
714,714,0.6047056067390948,0.8,0.0,421.0,897.0,0.0,342.0,1
715,715,0.8558524925961126,0.9,0.0,478.0,736.0,0.0,536.0,1
716,716,0.7406070801334046,0.9,0.0,412.0,627.0,0.0,251.0,1
717,717,0.8119359821548464,0.9,0.0,336.0,595.0,0.0,759.0,1
718,718,-0.3808400741085649,0.3,0.0,423.0,827.0,1.0,730.0,0
719,719,-0.8364946968660789,0.1,0.0,489.0,524.0,1.0,197.0,0
720,720,-0.830232320571267,0.1,0.0,275.0,698.0,1.0,237.0,0
721,721,-0.8747181555872485,0.1,0.0,290.0,940.0,1.0,430.0,0
722,722,0.2845292662174712,0.6,0.0,279.0,628.0,0.0,673.0,1
723,723,-0.08915705167083177,0.5,0.0,419.0,934.0,1.0,1017.0,0
724,724,0.592798354847176,0.8,0.0,282.0,744.0,0.0,764.0,1
725,725,0.5047544779582893,0.8,0.0,473.0,888.0,0.0,499.0,1
726,726,-0.4824392613873396,0.3,0.0,495.0,672.0,1.0,513.0,0
727,727,0.2371566399237608,0.6,0.0,377.0,722.0,0.0,521.0,1
728,728,0.9524388053808108,1.0,0.0,441.0,751.0,0.0,348.0,1
729,729,0.3229630005248061,0.7,0.0,304.0,905.0,0.0,751.0,1
730,730,0.04694285523851627,0.5,0.0,284.0,509.0,0.0,517.0,1
731,731,0.6766193597948802,0.8,0.0,401.0,852.0,0.0,307.0,1
732,732,0.5210912679095308,0.8,0.0,266.0,837.0,0.0,1607.0,1
733,733,0.9538652552400788,1.0,0.0,347.0,747.0,0.0,606.0,1
734,734,0.2499991992664925,0.6,0.0,486.0,980.0,0.0,444.0,1
735,735,0.00999243750869172,0.5,0.0,309.0,614.0,0.0,1067.0,1
736,736,-0.9723155310549252,0.0,0.0,259.0,760.0,1.0,221.0,0
737,737,-0.605618624765204,0.2,0.0,328.0,920.0,1.0,422.0,0
738,738,-0.6035872300071168,0.2,0.0,471.0,665.0,1.0,284.0,0
739,739,-0.0995525691759056,0.5,0.0,320.0,618.0,0.0,732.0,1
740,740,0.3185596253336145,0.7,0.0,469.0,905.0,0.0,326.0,1
741,741,-0.5017732183440569,0.2,0.0,452.0,960.0,1.0,358.0,0
742,742,0.32256386786198443,0.7,0.0,286.0,780.0,0.0,354.0,1
743,743,-0.7965753234898632,0.1,0.0,320.0,577.0,1.0,283.0,0
744,744,0.907416251853661,1.0,0.0,497.0,718.0,0.0,275.0,1
745,745,0.33923126578475693,0.7,0.0,346.0,517.0,0.0,1007.0,1
746,746,0.4681482384615714,0.7,0.0,275.0,965.0,0.0,650.0,1
747,747,-0.5466181585238243,0.2,0.0,305.0,745.0,1.0,260.0,0
748,748,-0.10087285437763538,0.4,0.0,444.0,841.0,1.0,645.0,0
749,749,-0.6899642802823949,0.2,0.0,268.0,527.0,1.0,375.0,0
750,750,-0.16870779282279846,0.4,0.0,299.0,825.0,1.0,1016.0,0
751,751,0.41133380293044985,0.7,0.0,292.0,742.0,0.0,366.0,1
752,752,-0.7077556197343273,0.1,0.0,324.0,647.0,1.0,249.0,0
753,753,0.3786318920586931,0.7,0.0,373.0,763.0,0.0,364.0,1
754,754,-0.9348228004373644,0.0,0.0,410.0,844.0,1.0,286.0,0
755,755,0.3198031460995201,0.7,0.0,301.0,748.0,0.0,401.0,1
756,756,-0.05329897533452943,0.5,0.0,354.0,876.0,1.0,1580.0,0
757,757,-0.378326367031675,0.3,0.0,350.0,898.0,1.0,212.0,0
758,758,-0.11396262967552184,0.4,0.0,491.0,665.0,1.0,1174.0,0
759,759,-0.4838190480742668,0.3,0.0,369.0,518.0,1.0,343.0,0
760,760,-0.2870814275964151,0.4,0.0,348.0,779.0,1.0,713.0,0
761,761,0.11096584317709302,0.6,0.0,280.0,886.0,0.0,3464.0,1
762,762,0.46631240292870424,0.7,0.0,410.0,883.0,0.0,397.0,1
763,763,-0.4252475110256688,0.3,0.0,348.0,929.0,1.0,263.0,0
764,764,0.8207787936889686,0.9,0.0,257.0,870.0,0.0,413.0,1
765,765,-0.17960558920631176,0.4,0.0,303.0,638.0,1.0,2179.0,0
766,766,0.7495997559820633,0.9,0.0,278.0,727.0,0.0,795.0,1
767,767,-0.33684051475084886,0.3,0.0,397.0,818.0,1.0,375.0,0
768,768,0.842160994338111,0.9,0.0,314.0,612.0,0.0,374.0,1
769,769,0.7865703750955577,0.9,0.0,348.0,683.0,0.0,289.0,1
770,770,0.5905926261448111,0.8,0.0,445.0,865.0,0.0,220.0,1
771,771,-0.6298656966581091,0.2,0.0,492.0,841.0,1.0,377.0,0
772,772,0.027851996845683846,0.5,0.0,271.0,532.0,0.0,557.0,1
773,773,0.7899666066108417,0.9,0.0,452.0,776.0,0.0,552.0,1
774,774,-0.8951303872891196,0.1,0.0,424.0,875.0,1.0,331.0,0
775,775,0.1261925415774663,0.6,0.0,496.0,987.0,1.0,707.0,0
776,776,-0.13467306480327612,0.4,0.0,484.0,967.0,1.0,789.0,0
777,777,-0.2310908090613324,0.4,0.0,361.0,924.0,1.0,495.0,0
778,778,-0.014871828772959672,0.5,0.0,321.0,812.0,1.0,1127.0,0
779,779,-0.23322491781073262,0.4,0.0,350.0,998.0,1.0,1752.0,0
780,780,-0.6007489010170932,0.2,0.0,421.0,734.0,1.0,775.0,0
781,781,0.6797596378711539,0.8,0.0,391.0,879.0,0.0,1120.0,1
782,782,0.4424283249970009,0.7,0.0,476.0,503.0,0.0,591.0,1
783,783,-0.7071490715693343,0.1,0.0,494.0,851.0,1.0,235.0,0
784,784,0.6655892384920492,0.8,0.0,434.0,964.0,0.0,622.0,1
785,785,-0.6107926590771049,0.2,0.0,300.0,583.0,1.0,737.0,0
786,786,-0.6000580340965564,0.2,0.0,412.0,987.0,1.0,651.0,0
787,787,-0.6625513584754155,0.2,0.0,437.0,710.0,1.0,563.0,0
788,788,-0.6715459412085008,0.2,0.0,317.0,845.0,1.0,308.0,0
789,789,0.48252476947167766,0.7,0.0,282.0,847.0,0.0,341.0,1
790,790,0.41039377625507223,0.7,0.0,334.0,849.0,0.0,687.0,1
791,791,-0.6403413267320182,0.2,0.0,322.0,863.0,1.0,475.0,0
792,792,-0.6144648376922015,0.2,0.0,487.0,737.0,1.0,376.0,0
793,793,0.27343305946561425,0.6,0.0,298.0,772.0,0.0,420.0,1
794,794,0.6978456477216812,0.8,0.0,289.0,597.0,0.0,644.0,1
795,795,0.10147530737994259,0.6,0.0,496.0,951.0,1.0,2103.0,0
796,796,0.0730479005745781,0.5,0.0,412.0,506.0,1.0,782.0,0
797,797,0.8799706085280938,0.9,0.0,375.0,594.0,0.0,231.0,1
798,798,0.05450053991663073,0.5,0.0,442.0,566.0,0.0,1182.0,1
799,799,-0.4287058769360017,0.3,0.0,254.0,752.0,1.0,574.0,0
800,800,0.2181552187281448,0.6,0.0,464.0,610.0,0.0,506.0,1
801,801,0.25877135234321824,0.6,0.0,425.0,831.0,0.0,624.0,1
802,802,0.09724731433496747,0.5,0.0,498.0,574.0,1.0,1398.0,0
803,803,0.848958675145792,0.9,0.0,375.0,768.0,0.0,247.0,1
804,804,0.3011891674131766,0.7,0.0,460.0,676.0,0.0,254.0,1
805,805,-0.06971918970336688,0.5,0.0,446.0,859.0,1.0,1425.0,0
806,806,-0.6178401537645459,0.2,0.0,391.0,615.0,1.0,204.0,0
807,807,0.7164288445465823,0.9,0.0,311.0,600.0,0.0,829.0,1
808,808,0.17242435921884103,0.6,0.0,428.0,663.0,0.0,379.0,1
809,809,-0.35217789249095,0.3,0.0,463.0,572.0,1.0,505.0,0
810,810,-0.878311906279061,0.1,0.0,425.0,599.0,1.0,366.0,0
811,811,-0.5125087494373743,0.2,0.0,440.0,687.0,1.0,363.0,0
812,812,0.9406868581952368,1.0,0.0,446.0,907.0,0.0,377.0,1
813,813,0.8657071297683039,0.9,0.0,294.0,562.0,0.0,344.0,1
814,814,-0.8108040189317607,0.1,0.0,348.0,669.0,1.0,273.0,0
815,815,-0.21448070077882075,0.4,0.0,330.0,772.0,1.0,458.0,0
816,816,-0.4041189227537114,0.3,0.0,290.0,871.0,1.0,329.0,0
817,817,-0.07366071006598607,0.5,0.0,457.0,654.0,1.0,1539.0,0
818,818,-0.2505514064055945,0.4,0.0,416.0,782.0,1.0,302.0,0
819,819,0.34005987904777335,0.7,0.0,324.0,581.0,0.0,1995.0,1
820,820,0.47405785583906646,0.7,0.0,439.0,685.0,0.0,536.0,1
821,821,0.481376576726938,0.7,0.0,359.0,749.0,0.0,382.0,1
822,822,0.8646167548044592,0.9,0.0,258.0,537.0,0.0,415.0,1
823,823,0.5398760800385443,0.8,0.0,282.0,919.0,0.0,699.0,1
824,824,-0.23152423837006553,0.4,0.0,255.0,544.0,1.0,571.0,0
825,825,-0.17894534193104805,0.4,0.0,380.0,776.0,1.0,834.0,0
826,826,-0.8012781433812808,0.1,0.0,492.0,670.0,1.0,428.0,0
827,827,0.950870408052412,1.0,0.0,288.0,632.0,0.0,540.0,1
828,828,0.6191072067669323,0.8,0.0,488.0,825.0,0.0,547.0,1
829,829,0.12466687451271286,0.6,0.0,271.0,574.0,0.0,175.0,1
830,830,-0.6077944059785481,0.2,0.0,441.0,929.0,1.0,440.0,0
831,831,0.9457269275406315,1.0,0.0,350.0,724.0,0.0,536.0,1
832,832,-0.06330738117591195,0.5,0.0,310.0,552.0,1.0,848.0,0
833,833,-0.7000172765055146,0.1,0.0,338.0,599.0,1.0,473.0,0
834,834,0.9042798777374563,1.0,0.0,335.0,815.0,0.0,200.0,1
835,835,-0.5575391890877668,0.2,0.0,299.0,610.0,1.0,951.0,0
836,836,0.7374053116048236,0.9,0.0,266.0,815.0,0.0,999.0,1
837,837,0.6747610510322111,0.8,0.0,392.0,517.0,0.0,241.0,1
838,838,-0.6735912423873995,0.2,0.0,291.0,576.0,1.0,593.0,0
839,839,-0.01982628575459322,0.5,0.0,294.0,579.0,1.0,2357.0,0
840,840,0.4686402517454713,0.7,0.0,348.0,549.0,0.0,223.0,1
841,841,-0.7603214253350354,0.1,0.0,362.0,665.0,1.0,383.0,0
842,842,0.15267290799549782,0.6,0.0,309.0,913.0,0.0,1168.0,1
843,843,-0.4865916724034556,0.3,0.0,348.0,836.0,1.0,646.0,0
844,844,0.478997587551762,0.7,0.0,312.0,867.0,0.0,941.0,1
845,845,0.591602292826116,0.8,0.0,334.0,856.0,0.0,280.0,1
846,846,-0.2228903429740785,0.4,0.0,434.0,907.0,1.0,349.0,0
847,847,-0.1409233463767836,0.4,0.0,284.0,751.0,1.0,1365.0,0
848,848,0.033549980151961645,0.5,0.0,353.0,573.0,1.0,724.0,0
849,849,0.014960062294752774,0.5,0.0,448.0,677.0,1.0,1455.0,0
850,850,-0.8757997603316565,0.1,0.0,301.0,523.0,1.0,456.0,0
851,851,-0.9367047424039301,0.0,0.0,331.0,957.0,1.0,242.0,0
852,852,-0.036589299782846085,0.5,0.0,304.0,795.0,0.0,2161.0,1
853,853,-0.6308701227657643,0.2,0.0,341.0,995.0,1.0,334.0,0
854,854,0.9151834264364449,1.0,0.0,366.0,900.0,0.0,144.0,1
855,855,-0.2541978459363663,0.4,0.0,499.0,761.0,1.0,320.0,0
856,856,0.5719346262084837,0.8,0.0,427.0,539.0,0.0,344.0,1
857,857,0.5234694615398845,0.8,0.0,403.0,569.0,0.0,398.0,1
858,858,0.8210668437770152,0.9,0.0,328.0,751.0,0.0,561.0,1
859,859,0.2851438017926129,0.6,0.0,313.0,712.0,0.0,1255.0,1
860,860,0.19714285533956977,0.6,0.0,250.0,780.0,0.0,1480.0,1
861,861,-0.6406175706112947,0.2,0.0,373.0,715.0,1.0,462.0,0
862,862,-0.3162928195183643,0.3,0.0,398.0,846.0,1.0,606.0,0
863,863,0.14658495646739977,0.6,0.0,459.0,536.0,1.0,1395.0,0
864,864,0.735464807147933,0.9,0.0,351.0,864.0,0.0,255.0,1
865,865,0.9658177041358633,1.0,0.0,363.0,844.0,0.0,383.0,1
866,866,-0.9253274926884811,0.0,0.0,413.0,577.0,1.0,260.0,0
867,867,-0.7768463020850747,0.1,0.0,265.0,664.0,1.0,321.0,0
868,868,0.9628671320963313,1.0,0.0,376.0,637.0,0.0,1497.0,1
869,869,-0.06908035338108798,0.5,0.0,491.0,524.0,1.0,1175.0,0
870,870,-0.9750292281581567,0.0,0.0,481.0,874.0,1.0,295.0,0
871,871,-0.15267014920953548,0.4,0.0,468.0,747.0,1.0,725.0,0
872,872,0.2249468589805932,0.6,0.0,399.0,560.0,0.0,1001.0,1
873,873,0.5764820686842387,0.8,0.0,396.0,941.0,0.0,673.0,1
874,874,0.9213283650267949,1.0,0.0,263.0,776.0,0.0,461.0,1
875,875,-0.007456313002182524,0.5,0.0,462.0,831.0,1.0,1287.0,0
876,876,-0.06558097711973865,0.5,0.0,294.0,698.0,1.0,738.0,0
877,877,0.9716714464253218,1.0,0.0,397.0,657.0,0.0,386.0,1
878,878,-0.06878678521596426,0.5,0.0,388.0,812.0,1.0,910.0,0
879,879,0.33089174767902785,0.7,0.0,346.0,995.0,0.0,229.0,1
880,880,-0.9400930582569276,0.0,0.0,437.0,862.0,1.0,261.0,0
881,881,-0.6135079553572134,0.2,0.0,275.0,938.0,1.0,327.0,0
882,882,-0.8072595942491567,0.1,0.0,402.0,747.0,1.0,281.0,0
883,883,-0.09766214913873217,0.5,0.0,287.0,921.0,1.0,732.0,0
884,884,-0.4319011545816396,0.3,0.0,485.0,537.0,1.0,998.0,0
885,885,0.04914915457529778,0.5,0.0,323.0,759.0,0.0,1078.0,1
886,886,-0.08932871534999642,0.5,0.0,353.0,969.0,1.0,558.0,0
887,887,-0.09691020477702117,0.5,0.0,486.0,586.0,1.0,308.0,0
888,888,-0.7871658471774781,0.1,0.0,409.0,586.0,1.0,855.0,0
889,889,-0.46323316123539526,0.3,0.0,474.0,502.0,1.0,284.0,0
890,890,-0.3027546124811138,0.3,0.0,273.0,578.0,1.0,759.0,0
891,891,-0.3255982771017738,0.3,0.0,495.0,519.0,1.0,526.0,0
892,892,-0.557965736407565,0.2,0.0,473.0,651.0,1.0,336.0,0
893,893,0.3002133935321929,0.7,0.0,487.0,919.0,0.0,694.0,1
894,894,0.40637078929974235,0.7,0.0,352.0,882.0,0.0,566.0,1
895,895,0.5711443002633052,0.8,0.0,312.0,972.0,0.0,336.0,1
896,896,-0.6348449263212623,0.2,0.0,328.0,809.0,1.0,363.0,0
897,897,0.643384918006711,0.8,0.0,263.0,912.0,0.0,245.0,1
898,898,-0.9434361136029763,0.0,0.0,421.0,840.0,1.0,299.0,0
899,899,-0.9931114845239923,0.0,0.0,479.0,974.0,1.0,167.0,0
900,900,-0.38867330941034983,0.3,0.0,388.0,912.0,1.0,330.0,0
901,901,0.4993450704840803,0.7,0.0,417.0,692.0,0.0,401.0,1
902,902,-0.2785973266644335,0.4,0.0,456.0,874.0,1.0,580.0,0
903,903,0.6335972704735238,0.8,0.0,269.0,984.0,0.0,637.0,1
904,904,-0.49291958143142867,0.3,0.0,302.0,653.0,1.0,355.0,0
905,905,-0.8637161436838576,0.1,0.0,252.0,570.0,1.0,148.0,0
906,906,0.046084016589959864,0.5,0.0,300.0,766.0,0.0,2884.0,1
907,907,0.9974172022352665,1.0,0.0,319.0,802.0,0.0,579.0,1
908,908,0.1596884627064199,0.6,0.0,488.0,649.0,0.0,3863.0,1
909,909,-0.01585178776118612,0.5,0.0,363.0,517.0,1.0,1810.0,0
910,910,0.6802546663039226,0.8,0.0,282.0,555.0,0.0,623.0,1
911,911,0.21390629799176275,0.6,0.0,488.0,525.0,0.0,267.0,1
912,912,0.6805211775023587,0.8,0.0,404.0,640.0,0.0,586.0,1
913,913,0.9497137282610013,1.0,0.0,457.0,843.0,0.0,230.0,1
914,914,0.5609714378728614,0.8,0.0,398.0,655.0,0.0,517.0,1
915,915,0.18785199492951365,0.6,0.0,454.0,694.0,0.0,892.0,1
916,916,0.26895357590291225,0.6,0.0,447.0,831.0,1.0,1032.0,0
917,917,-0.8599602866727196,0.1,0.0,297.0,885.0,1.0,238.0,0
918,918,-0.28079429156281654,0.4,0.0,359.0,737.0,1.0,334.0,0
919,919,-0.6995491010429931,0.2,0.0,422.0,514.0,1.0,454.0,0
920,920,-0.47813809351323,0.3,0.0,462.0,678.0,1.0,280.0,0
921,921,-0.3421739400293846,0.3,0.0,431.0,734.0,1.0,205.0,0
922,922,-0.8880392274081119,0.1,0.0,395.0,682.0,1.0,353.0,0
923,923,-0.7079265497729443,0.1,0.0,282.0,794.0,1.0,294.0,0
924,924,0.7041045191386024,0.9,0.0,261.0,988.0,0.0,981.0,1
925,925,-0.716369083565009,0.1,0.0,280.0,771.0,1.0,649.0,0
926,926,-0.5358163814252412,0.2,0.0,313.0,691.0,1.0,256.0,0
927,927,-0.4041873313545896,0.3,0.0,495.0,906.0,1.0,729.0,0
928,928,-0.35675274655464717,0.3,0.0,346.0,961.0,1.0,1113.0,0
929,929,0.07244717052683369,0.5,0.0,454.0,679.0,0.0,1577.0,1
930,930,-0.44215003664478436,0.3,0.0,438.0,704.0,1.0,288.0,0
931,931,-0.7020244741135981,0.1,0.0,318.0,856.0,1.0,386.0,0
932,932,-0.479525511248893,0.3,0.0,367.0,781.0,1.0,242.0,0
933,933,0.8767173856076003,0.9,0.0,286.0,622.0,0.0,582.0,1
934,934,-0.6362136631164632,0.2,0.0,497.0,851.0,1.0,492.0,0
935,935,0.004595327348601463,0.5,0.0,432.0,631.0,0.0,1627.0,1
936,936,0.17062141668906672,0.6,0.0,478.0,796.0,0.0,3726.0,1
937,937,0.14188641780876932,0.6,0.0,384.0,992.0,0.0,454.0,1
938,938,0.006567893322830143,0.5,0.0,280.0,918.0,0.0,922.0,1
939,939,0.6664222610632289,0.8,0.0,251.0,621.0,0.0,318.0,1
940,940,-0.1410649751744617,0.4,0.0,351.0,818.0,1.0,831.0,0
941,941,0.2894509650544399,0.6,0.0,431.0,881.0,0.0,358.0,1
942,942,-0.08969451919558513,0.5,0.0,282.0,652.0,1.0,1166.0,0
943,943,0.29292736181319223,0.6,0.0,408.0,724.0,0.0,308.0,1
944,944,0.19743034462824505,0.6,0.0,309.0,746.0,0.0,1755.0,1
945,945,-0.07323296604968399,0.5,0.0,455.0,907.0,1.0,1158.0,0
946,946,0.5147254906539871,0.8,0.0,355.0,631.0,0.0,254.0,1
947,947,0.7316666993003682,0.9,0.0,388.0,696.0,0.0,766.0,1
948,948,0.012042309414132424,0.5,0.0,497.0,675.0,1.0,1238.0,0
949,949,-0.21450364369918318,0.4,0.0,367.0,698.0,1.0,515.0,0
950,950,-0.35924831178531824,0.3,0.0,408.0,824.0,1.0,1288.0,0
951,951,0.3165728658826601,0.7,0.0,318.0,890.0,0.0,302.0,1
952,952,-0.8857783556144936,0.1,0.0,409.0,704.0,1.0,247.0,0
953,953,0.7756383975110699,0.9,0.0,406.0,858.0,0.0,226.0,1
954,954,0.9301557056791936,1.0,0.0,486.0,920.0,0.0,374.0,1
955,955,-0.2718021256604113,0.4,0.0,383.0,716.0,1.0,401.0,0
956,956,-0.9366586559492969,0.0,0.0,365.0,542.0,1.0,283.0,0
957,957,0.7590304630670472,0.9,0.0,443.0,886.0,0.0,281.0,1
958,958,-0.17648341557013003,0.4,0.0,386.0,965.0,1.0,1369.0,0
959,959,0.2425515041210129,0.6,0.0,478.0,535.0,0.0,207.0,1
960,960,-0.10194321472971968,0.4,0.0,382.0,515.0,1.0,1063.0,0
961,961,-0.33070082658888134,0.3,0.0,355.0,598.0,1.0,327.0,0
962,962,0.34884846332132025,0.7,0.0,330.0,725.0,0.0,265.0,1
963,963,-0.43353441531580805,0.3,0.0,463.0,577.0,1.0,740.0,0
964,964,-0.13716936265967306,0.4,0.0,453.0,878.0,1.0,619.0,0
965,965,-0.8883913188931079,0.1,0.0,273.0,620.0,1.0,277.0,0
966,966,-0.44277327025165514,0.3,0.0,309.0,945.0,1.0,486.0,0
967,967,-0.70534882231463,0.1,0.0,348.0,851.0,1.0,271.0,0
968,968,-0.22021612236100796,0.4,0.0,351.0,605.0,1.0,374.0,0
969,969,-0.40454676002034695,0.3,0.0,490.0,726.0,1.0,594.0,0
970,970,-0.43244221188732856,0.3,0.0,303.0,504.0,1.0,433.0,0
971,971,-0.1368995726659905,0.4,0.0,468.0,738.0,0.0,384.0,1
972,972,-0.5509875686270393,0.2,0.0,490.0,863.0,1.0,417.0,0
973,973,0.9515636709405202,1.0,0.0,485.0,685.0,0.0,220.0,1
974,974,-0.33356033723772827,0.3,0.0,407.0,500.0,1.0,433.0,0
975,975,-0.7046773334356764,0.1,0.0,432.0,952.0,1.0,156.0,0
976,976,-0.8858412912337017,0.1,0.0,459.0,991.0,1.0,270.0,0
977,977,0.8894633176658922,0.9,0.0,498.0,976.0,0.0,276.0,1
978,978,0.1286541749418164,0.6,0.0,439.0,792.0,0.0,1039.0,1
979,979,0.84543650605775,0.9,0.0,472.0,665.0,0.0,283.0,1
980,980,0.18343515833604762,0.6,0.0,390.0,641.0,0.0,429.0,1
981,981,0.4901487800360329,0.7,0.0,487.0,618.0,0.0,305.0,1
982,982,0.7415775111033343,0.9,0.0,327.0,796.0,0.0,307.0,1
983,983,0.35766882561115665,0.7,0.0,360.0,860.0,0.0,2280.0,1
984,984,-0.7234828418244117,0.1,0.0,429.0,669.0,1.0,252.0,0
985,985,-0.08932238321472652,0.5,0.0,271.0,955.0,0.0,2064.0,1
986,986,-0.5243016212121316,0.2,0.0,371.0,742.0,1.0,597.0,0
987,987,-0.7697462230720402,0.1,0.0,446.0,984.0,1.0,470.0,0
988,988,-0.20942952449648744,0.4,0.0,293.0,937.0,1.0,420.0,0
989,989,-0.4729408152218433,0.3,0.0,269.0,818.0,1.0,903.0,0
990,990,0.7200508531747121,0.9,0.0,300.0,904.0,0.0,286.0,1
991,991,0.027780419436915338,0.5,0.0,318.0,731.0,0.0,551.0,1
992,992,0.07878894791135105,0.5,0.0,456.0,722.0,1.0,1142.0,0
993,993,0.8122273572475729,0.9,0.0,404.0,757.0,0.0,419.0,1
994,994,-0.782179133717984,0.1,0.0,308.0,844.0,1.0,248.0,0
995,995,-0.30190233328793603,0.3,0.0,385.0,941.0,1.0,284.0,0
996,996,-0.09532151699382752,0.5,0.0,489.0,572.0,1.0,1389.0,0
997,997,-0.6365810332801409,0.2,0.0,414.0,749.0,1.0,177.0,0
998,998,-0.6219238988256797,0.2,0.0,410.0,614.0,1.0,506.0,0
999,999,-0.5823250480681375,0.2,0.0,259.0,547.0,1.0,494.0,0
1000,1000,0.5313451373740874,0.8,0.0,447.0,565.0,0.0,888.0,1
1001,1001,0.11369029215432436,0.6,0.0,314.0,859.0,0.0,1317.0,1
1002,1002,-0.15690096896213013,0.4,0.0,297.0,620.0,1.0,413.0,0
1003,1003,-0.01248847439922085,0.5,0.0,309.0,929.0,1.0,1772.0,0
1004,1004,0.20497265247677432,0.6,0.0,478.0,830.0,0.0,602.0,1
1005,1005,0.1042767038451271,0.6,0.0,496.0,980.0,0.0,1004.0,1
1006,1006,0.2730996170410438,0.6,0.0,273.0,970.0,0.0,687.0,1
1007,1007,-0.30187422374781714,0.3,0.0,465.0,596.0,1.0,329.0,0
1008,1008,0.40569385027515237,0.7,0.0,306.0,751.0,0.0,533.0,1
1009,1009,-0.7807113956794858,0.1,0.0,282.0,624.0,1.0,394.0,0
1010,1010,-0.06692930086265969,0.5,0.0,401.0,540.0,1.0,949.0,0
1011,1011,0.1653884188655259,0.6,0.0,293.0,803.0,0.0,234.0,1
1012,1012,0.08064163919450751,0.5,0.0,285.0,596.0,1.0,159.0,0
1013,1013,-0.38470761169419565,0.3,0.0,489.0,867.0,1.0,394.0,0
1014,1014,-0.5304984133216606,0.2,0.0,461.0,758.0,1.0,531.0,0
1015,1015,0.1112258757223279,0.6,0.0,388.0,992.0,0.0,1330.0,1
1016,1016,0.8863170211900477,0.9,0.0,465.0,703.0,0.0,462.0,1
1017,1017,0.8728729720304798,0.9,0.0,348.0,747.0,0.0,295.0,1
1018,1018,0.025738697679926092,0.5,0.0,309.0,813.0,0.0,1938.0,1
1019,1019,0.17887341522725242,0.6,0.0,474.0,908.0,0.0,808.0,1
1020,1020,-0.034278314274198474,0.5,0.0,328.0,545.0,0.0,287.0,1
1021,1021,0.5939391192433716,0.8,0.0,438.0,958.0,0.0,404.0,1
1022,1022,-0.5013830868600224,0.2,0.0,380.0,638.0,1.0,522.0,0
1023,1023,-0.01958438427702469,0.5,0.0,326.0,544.0,1.0,780.0,0
1024,1024,0.32795454944936475,0.7,0.0,480.0,731.0,0.0,279.0,1
1025,1025,0.28172133692247536,0.6,0.0,406.0,883.0,0.0,251.0,1
1026,1026,0.46626263863589434,0.7,0.0,305.0,834.0,0.0,961.0,1
1027,1027,0.07408600378476371,0.5,0.0,291.0,641.0,0.0,838.0,1
1028,1028,-0.5339650003996967,0.2,0.0,323.0,875.0,1.0,652.0,0
1029,1029,0.46583567269654447,0.7,0.0,286.0,668.0,0.0,356.0,1
1030,1030,0.09843612774920141,0.5,0.0,460.0,576.0,0.0,1344.0,1
1031,1031,-0.45724826273234487,0.3,0.0,432.0,811.0,1.0,327.0,0
1032,1032,-0.22174813875715316,0.4,0.0,399.0,795.0,1.0,256.0,0
1033,1033,0.00040343062130543395,0.5,0.0,448.0,559.0,1.0,803.0,0
1034,1034,0.01387963152299565,0.5,0.0,493.0,690.0,0.0,787.0,1
1035,1035,0.982267457773252,1.0,0.0,313.0,722.0,0.0,185.0,1
1036,1036,-0.6081538565366909,0.2,0.0,400.0,580.0,1.0,570.0,0
1037,1037,0.5886029269149422,0.8,0.0,445.0,706.0,0.0,329.0,1
1038,1038,0.7470938151185906,0.9,0.0,352.0,935.0,0.0,473.0,1
1039,1039,0.44229772461902606,0.7,0.0,485.0,639.0,0.0,466.0,1
1040,1040,0.33352385054945954,0.7,0.0,293.0,766.0,0.0,341.0,1
1041,1041,0.9494556346366652,1.0,0.0,481.0,774.0,0.0,395.0,1
1042,1042,0.9865870935005296,1.0,0.0,266.0,553.0,0.0,301.0,1
1043,1043,-0.8385309212457865,0.1,0.0,384.0,878.0,1.0,408.0,0
1044,1044,0.8217210983161516,0.9,0.0,390.0,657.0,0.0,393.0,1
1045,1045,0.1894328852201197,0.6,0.0,296.0,897.0,0.0,1877.0,1
1046,1046,0.9748618320008713,1.0,0.0,486.0,940.0,0.0,314.0,1
1047,1047,-0.5648366099952657,0.2,0.0,259.0,841.0,1.0,620.0,0
1048,1048,-0.25543566538699425,0.4,0.0,350.0,674.0,1.0,776.0,0
1049,1049,0.2838405100190653,0.6,0.0,417.0,813.0,0.0,490.0,1
1050,1050,0.8437992353587886,0.9,0.0,392.0,591.0,0.0,277.0,1
1051,1051,-0.32801999459235587,0.3,0.0,333.0,544.0,1.0,1603.0,0
1052,1052,-0.11745133686958553,0.4,0.0,251.0,822.0,1.0,1097.0,0
1053,1053,0.06148276853710932,0.5,0.0,359.0,676.0,1.0,1625.0,0
1054,1054,-0.4999720557040179,0.3,0.0,485.0,540.0,1.0,245.0,0
1055,1055,-0.6413725387012184,0.2,0.0,475.0,598.0,1.0,317.0,0
1056,1056,-0.7625025759746962,0.1,0.0,427.0,505.0,1.0,368.0,0
1057,1057,-0.2885938314098082,0.4,0.0,274.0,552.0,1.0,724.0,0
1058,1058,-0.24366367736957417,0.4,0.0,467.0,680.0,1.0,373.0,0
1059,1059,0.7055674466722304,0.9,0.0,446.0,751.0,0.0,263.0,1
1060,1060,0.3969935542103846,0.7,0.0,310.0,791.0,0.0,439.0,1
1061,1061,-0.4789398920882071,0.3,0.0,331.0,858.0,1.0,941.0,0
1062,1062,0.09307095182655112,0.5,0.0,281.0,844.0,1.0,1985.0,0
1063,1063,-0.7217354789653534,0.1,0.0,262.0,720.0,1.0,288.0,0
1064,1064,-0.42029151815309196,0.3,0.0,457.0,501.0,1.0,392.0,0
1065,1065,-0.28486802690043245,0.4,0.0,347.0,814.0,1.0,759.0,0
1066,1066,0.7718366193843664,0.9,0.0,435.0,735.0,0.0,220.0,1
1067,1067,0.8439425441902222,0.9,0.0,285.0,846.0,0.0,389.0,1
1068,1068,0.7734777695587829,0.9,0.0,309.0,764.0,0.0,487.0,1
1069,1069,0.30291700756481,0.7,0.0,443.0,550.0,0.0,337.0,1
1070,1070,0.6039129531366705,0.8,0.0,259.0,578.0,0.0,393.0,1
1071,1071,0.982860129933818,1.0,0.0,281.0,707.0,0.0,432.0,1
1072,1072,0.9693173486448963,1.0,0.0,355.0,546.0,0.0,399.0,1
1073,1073,0.015990631763886043,0.5,0.0,457.0,716.0,0.0,1627.0,1
1074,1074,0.6814605151637867,0.8,0.0,383.0,663.0,0.0,374.0,1
1075,1075,0.1902637110939429,0.6,0.0,364.0,809.0,0.0,1077.0,1
1076,1076,-0.7434831269386113,0.1,0.0,482.0,841.0,1.0,287.0,0
1077,1077,-0.6730640379517989,0.2,0.0,315.0,729.0,1.0,316.0,0
1078,1078,-0.5294715626564799,0.2,0.0,408.0,631.0,1.0,261.0,0
1079,1079,-0.835132443322067,0.1,0.0,399.0,823.0,1.0,338.0,0
1080,1080,-0.6689352450389185,0.2,0.0,490.0,511.0,1.0,299.0,0
1081,1081,-0.28192760572336284,0.4,0.0,343.0,588.0,1.0,839.0,0
1082,1082,0.4211610433001134,0.7,0.0,345.0,825.0,0.0,540.0,1
1083,1083,-0.34625470894504007,0.3,0.0,338.0,503.0,1.0,809.0,0
1084,1084,-0.5003332584299778,0.2,0.0,272.0,600.0,1.0,298.0,0
1085,1085,0.47700357614861244,0.7,0.0,277.0,981.0,0.0,572.0,1
1086,1086,-0.8176821649086425,0.1,0.0,351.0,878.0,1.0,411.0,0
1087,1087,-0.07621499113550945,0.5,0.0,436.0,970.0,1.0,1724.0,0
1088,1088,0.4776990688026823,0.7,0.0,406.0,990.0,0.0,464.0,1
1089,1089,-0.060133501029122405,0.5,0.0,344.0,687.0,0.0,1309.0,1
1090,1090,0.26968149297611,0.6,0.0,312.0,546.0,0.0,1062.0,1
1091,1091,0.6997295583034291,0.8,0.0,459.0,784.0,0.0,657.0,1
1092,1092,-0.9775666955043674,0.0,0.0,317.0,698.0,1.0,315.0,0
1093,1093,-0.338335971807713,0.3,0.0,451.0,941.0,1.0,608.0,0
1094,1094,0.20366632452563893,0.6,0.0,306.0,687.0,0.0,1747.0,1
1095,1095,0.49089165227025666,0.7,0.0,335.0,882.0,0.0,943.0,1
1096,1096,0.8238884239371638,0.9,0.0,479.0,884.0,0.0,277.0,1
1097,1097,0.3112238689391673,0.7,0.0,427.0,979.0,0.0,1444.0,1
1098,1098,-0.11510132370024317,0.4,0.0,351.0,872.0,1.0,2597.0,0
1099,1099,0.22846154322866852,0.6,0.0,429.0,798.0,0.0,713.0,1
1100,1100,0.9107517734646631,1.0,0.0,296.0,917.0,0.0,487.0,1
1101,1101,0.630327475598369,0.8,0.0,435.0,655.0,0.0,530.0,1
1102,1102,-0.7668475738583109,0.1,0.0,485.0,890.0,1.0,345.0,0
1103,1103,0.33856516022224437,0.7,0.0,252.0,786.0,0.0,432.0,1
1104,1104,0.45641802866735826,0.7,0.0,421.0,745.0,0.0,454.0,1
1105,1105,0.29995659549014797,0.6,0.0,339.0,818.0,0.0,1413.0,1
1106,1106,0.5721843222707179,0.8,0.0,394.0,937.0,0.0,659.0,1
1107,1107,-0.15232934759176753,0.4,0.0,403.0,884.0,1.0,543.0,0
1108,1108,-0.7691530412209264,0.1,0.0,457.0,580.0,1.0,283.0,0
1109,1109,0.27755063230573085,0.6,0.0,256.0,574.0,0.0,370.0,1
1110,1110,-0.15995424578517725,0.4,0.0,380.0,655.0,1.0,625.0,0
1111,1111,-0.7952242483546275,0.1,0.0,368.0,976.0,1.0,226.0,0
1112,1112,-0.3235612964643766,0.3,0.0,423.0,882.0,1.0,725.0,0
1113,1113,0.8934115844070238,0.9,0.0,444.0,580.0,0.0,446.0,1
1114,1114,0.38884242922915324,0.7,0.0,269.0,826.0,0.0,315.0,1
1115,1115,0.14622496416371056,0.6,0.0,446.0,655.0,0.0,699.0,1
1116,1116,0.8773194864420928,0.9,0.0,380.0,838.0,0.0,372.0,1
1117,1117,-0.515108266623117,0.2,0.0,488.0,958.0,1.0,374.0,0
1118,1118,-0.27757510215283077,0.4,0.0,254.0,947.0,1.0,319.0,0
1119,1119,-0.648071064083686,0.2,0.0,333.0,744.0,1.0,413.0,0
1120,1120,0.7144469533417375,0.9,0.0,273.0,986.0,0.0,211.0,1
1121,1121,0.7768871061139506,0.9,0.0,280.0,627.0,0.0,283.0,1
1122,1122,0.7701922449627399,0.9,0.0,327.0,842.0,0.0,261.0,1
1123,1123,0.7121246067929285,0.9,0.0,369.0,845.0,0.0,236.0,1
1124,1124,-0.9905011391704901,0.0,0.0,341.0,669.0,1.0,350.0,0
1125,1125,0.013317440797985247,0.5,0.0,420.0,687.0,0.0,283.0,1
1126,1126,0.2637127093509497,0.6,0.0,350.0,701.0,0.0,389.0,1
1127,1127,0.7563529541178524,0.9,0.0,271.0,852.0,0.0,187.0,1
1128,1128,-0.9508449292226164,0.0,0.0,381.0,734.0,1.0,195.0,0
1129,1129,-0.7606467333594771,0.1,0.0,467.0,937.0,1.0,306.0,0
1130,1130,0.5064804171043356,0.8,0.0,281.0,893.0,0.0,406.0,1
1131,1131,0.5382297431729248,0.8,0.0,468.0,619.0,0.0,413.0,1
1132,1132,-0.1468267613839771,0.4,0.0,457.0,788.0,1.0,575.0,0
1133,1133,0.6605393411497174,0.8,0.0,324.0,909.0,0.0,427.0,1
1134,1134,0.41658644438962167,0.7,0.0,271.0,880.0,0.0,249.0,1
1135,1135,0.7675448406731156,0.9,0.0,317.0,773.0,0.0,460.0,1
1136,1136,-0.708307094846043,0.1,0.0,384.0,837.0,1.0,329.0,0
1137,1137,-0.46497878228995493,0.3,0.0,296.0,650.0,1.0,264.0,0
1138,1138,-0.9134166248560056,0.0,0.0,357.0,991.0,1.0,232.0,0
1139,1139,0.5983188456905895,0.8,0.0,263.0,979.0,0.0,708.0,1
1140,1140,-0.08056046265223493,0.5,0.0,288.0,951.0,1.0,1701.0,0
1141,1141,-0.24288135612333828,0.4,0.0,401.0,943.0,1.0,716.0,0
1142,1142,-0.7252095301833983,0.1,0.0,418.0,946.0,1.0,276.0,0
1143,1143,0.707043605841849,0.9,0.0,318.0,767.0,0.0,305.0,1
1144,1144,-0.23057077547131177,0.4,0.0,426.0,562.0,1.0,692.0,0
1145,1145,-0.7643457733714305,0.1,0.0,358.0,590.0,1.0,242.0,0
1146,1146,0.6673873882392019,0.8,0.0,284.0,546.0,0.0,280.0,1
1147,1147,-0.2942211231128329,0.4,0.0,388.0,646.0,1.0,1076.0,0
1148,1148,-0.9036971847474604,0.0,0.0,268.0,522.0,1.0,310.0,0
1149,1149,0.07251199272066478,0.5,0.0,273.0,956.0,1.0,761.0,0
1150,1150,-0.396831543338213,0.3,0.0,475.0,747.0,1.0,388.0,0
1151,1151,0.6441450986470985,0.8,0.0,390.0,695.0,0.0,405.0,1
1152,1152,0.2180301459603846,0.6,0.0,433.0,722.0,0.0,825.0,1
1153,1153,0.46279762815965886,0.7,0.0,279.0,542.0,0.0,329.0,1
1154,1154,0.5975057964580281,0.8,0.0,346.0,791.0,0.0,1073.0,1
1155,1155,0.8694467246484943,0.9,0.0,479.0,987.0,0.0,444.0,1
1156,1156,-0.3125516924010032,0.3,0.0,262.0,511.0,1.0,687.0,0
1157,1157,0.9452571955001874,1.0,0.0,390.0,750.0,0.0,270.0,1
1158,1158,-0.43351749795857186,0.3,0.0,337.0,681.0,1.0,642.0,0
1159,1159,-0.5727647941127609,0.2,0.0,347.0,789.0,1.0,304.0,0
1160,1160,-0.5651653554349692,0.2,0.0,366.0,867.0,1.0,477.0,0
1161,1161,0.2263070536104026,0.6,0.0,490.0,558.0,0.0,1532.0,1
1162,1162,-0.5620089050128936,0.2,0.0,343.0,951.0,1.0,506.0,0
1163,1163,0.42022845959995014,0.7,0.0,492.0,532.0,0.0,286.0,1
1164,1164,0.3497314956700899,0.7,0.0,417.0,701.0,0.0,532.0,1
1165,1165,-0.01197949471216675,0.5,0.0,397.0,754.0,0.0,1219.0,1
1166,1166,-0.595415856971969,0.2,0.0,393.0,633.0,1.0,274.0,0
1167,1167,-0.504789930902436,0.2,0.0,436.0,822.0,1.0,602.0,0
1168,1168,0.37178139650775965,0.7,0.0,379.0,857.0,0.0,304.0,1
1169,1169,-0.33121354340262266,0.3,0.0,322.0,677.0,1.0,551.0,0
1170,1170,-0.4522073869019698,0.3,0.0,494.0,502.0,1.0,464.0,0
1171,1171,-0.7884644779252026,0.1,0.0,349.0,546.0,1.0,385.0,0
1172,1172,-0.4573939119821633,0.3,0.0,354.0,534.0,1.0,652.0,0
1173,1173,0.8162098480222035,0.9,0.0,299.0,566.0,0.0,235.0,1
1174,1174,0.4453583040245075,0.7,0.0,386.0,573.0,0.0,441.0,1
1175,1175,0.5126140483721426,0.8,0.0,483.0,708.0,0.0,379.0,1
1176,1176,-0.1455523257439908,0.4,0.0,255.0,599.0,1.0,946.0,0
1177,1177,0.04487811541505882,0.5,0.0,373.0,712.0,1.0,2475.0,0
1178,1178,0.8320668389395036,0.9,0.0,333.0,618.0,0.0,419.0,1
1179,1179,0.9609176913445656,1.0,0.0,253.0,505.0,0.0,332.0,1
1180,1180,-0.003360851453944491,0.5,0.0,253.0,875.0,1.0,682.0,0
1181,1181,0.4508627787125423,0.7,0.0,351.0,808.0,0.0,271.0,1
1182,1182,-0.5761782881931741,0.2,0.0,390.0,654.0,1.0,936.0,0
1183,1183,0.043478632544678986,0.5,0.0,287.0,901.0,0.0,1892.0,1
1184,1184,-0.5811919706497664,0.2,0.0,277.0,729.0,1.0,164.0,0
1185,1185,0.9617335262576645,1.0,0.0,291.0,520.0,0.0,269.0,1
1186,1186,0.000236085111629869,0.5,0.0,301.0,753.0,1.0,1486.0,0
1187,1187,-0.14269949288606032,0.4,0.0,318.0,953.0,1.0,679.0,0
1188,1188,0.2900848423780671,0.6,0.0,295.0,667.0,0.0,1178.0,1
1189,1189,0.06184231428443954,0.5,0.0,321.0,904.0,0.0,945.0,1
1190,1190,0.4309960987803112,0.7,0.0,289.0,510.0,0.0,441.0,1
1191,1191,-0.9118269868187838,0.0,0.0,286.0,566.0,1.0,208.0,0
1192,1192,-0.9359472862959004,0.0,0.0,273.0,598.0,1.0,399.0,0
1193,1193,0.7209104112151481,0.9,0.0,393.0,748.0,0.0,199.0,1
1194,1194,0.6522797782279566,0.8,0.0,408.0,824.0,0.0,248.0,1
1195,1195,0.5105664302516608,0.8,0.0,291.0,938.0,0.0,471.0,1
1196,1196,-0.6957968611659058,0.2,0.0,255.0,947.0,1.0,548.0,0
1197,1197,0.7658006621235613,0.9,0.0,413.0,851.0,0.0,306.0,1
1198,1198,0.12889175243602558,0.6,0.0,325.0,537.0,0.0,278.0,1
1199,1199,0.8894947380598206,0.9,0.0,425.0,897.0,0.0,508.0,1
1200,1200,0.8269809106471886,0.9,0.0,498.0,744.0,0.0,468.0,1
1201,1201,-0.8973147987843091,0.1,0.0,280.0,934.0,1.0,286.0,0
1202,1202,0.325309726447661,0.7,0.0,469.0,947.0,0.0,934.0,1
1203,1203,-0.12496167306309847,0.4,0.0,258.0,514.0,1.0,568.0,0
1204,1204,-0.16452518970657626,0.4,0.0,394.0,895.0,1.0,1221.0,0
1205,1205,-0.20667235061957778,0.4,0.0,347.0,851.0,1.0,862.0,0
1206,1206,-0.49337983616011205,0.3,0.0,462.0,988.0,1.0,340.0,0
1207,1207,0.7031888306541574,0.9,0.0,335.0,938.0,0.0,267.0,1
1208,1208,0.4174230154134757,0.7,0.0,341.0,755.0,0.0,344.0,1
1209,1209,-0.5808421556574117,0.2,0.0,380.0,517.0,1.0,243.0,0
1210,1210,-0.09594724429116885,0.5,0.0,395.0,883.0,1.0,802.0,0
1211,1211,-0.38259738235623364,0.3,0.0,332.0,730.0,1.0,298.0,0
1212,1212,0.20227990904123883,0.6,0.0,351.0,527.0,0.0,472.0,1
1213,1213,-0.5719824354792258,0.2,0.0,282.0,616.0,1.0,302.0,0
1214,1214,0.9208494274113912,1.0,0.0,405.0,543.0,0.0,242.0,1
1215,1215,0.3368340736786115,0.7,0.0,408.0,781.0,0.0,411.0,1
1216,1216,0.9466401770798218,1.0,0.0,389.0,692.0,0.0,289.0,1
1217,1217,0.12402332125813897,0.6,0.0,378.0,914.0,1.0,1218.0,0
1218,1218,-0.18668076085113827,0.4,0.0,339.0,748.0,1.0,1513.0,0
1219,1219,-0.8203946094519803,0.1,0.0,295.0,731.0,1.0,634.0,0
1220,1220,0.09565500038970054,0.5,0.0,344.0,820.0,0.0,1406.0,1
1221,1221,-0.8980366801680126,0.1,0.0,260.0,675.0,1.0,585.0,0
1222,1222,-0.12193790195340437,0.4,0.0,284.0,746.0,1.0,320.0,0
1223,1223,-0.6545087085114392,0.2,0.0,399.0,821.0,1.0,310.0,0
1224,1224,0.37522684158795827,0.7,0.0,327.0,607.0,0.0,266.0,1
1225,1225,-0.5050398443092363,0.2,0.0,423.0,940.0,1.0,697.0,0
1226,1226,-0.7153940621514678,0.1,0.0,439.0,883.0,1.0,608.0,0
1227,1227,0.1961163880277561,0.6,0.0,443.0,990.0,0.0,2927.0,1
1228,1228,0.4544965519240174,0.7,0.0,266.0,999.0,0.0,295.0,1
1229,1229,0.7289324380422317,0.9,0.0,392.0,631.0,0.0,237.0,1
1230,1230,-0.6768290367467835,0.2,0.0,473.0,788.0,1.0,379.0,0
1231,1231,-0.5669023357773648,0.2,0.0,372.0,542.0,1.0,236.0,0
1232,1232,0.7643586957656896,0.9,0.0,315.0,525.0,0.0,320.0,1
1233,1233,0.8723785310363965,0.9,0.0,491.0,535.0,0.0,294.0,1
1234,1234,-0.060817907204731236,0.5,0.0,351.0,685.0,0.0,2324.0,1
1235,1235,0.4888093831822091,0.7,0.0,417.0,622.0,0.0,261.0,1
1236,1236,0.48433632159722784,0.7,0.0,393.0,521.0,0.0,176.0,1
1237,1237,0.0198540663960729,0.5,0.0,369.0,598.0,0.0,1393.0,1
1238,1238,0.6119844942509005,0.8,0.0,269.0,967.0,0.0,354.0,1
1239,1239,-0.5646733671495083,0.2,0.0,359.0,993.0,1.0,638.0,0
1240,1240,0.17610731452215878,0.6,0.0,386.0,674.0,0.0,450.0,1
1241,1241,0.8413261920119228,0.9,0.0,356.0,856.0,0.0,598.0,1
1242,1242,0.7882782147436669,0.9,0.0,267.0,619.0,0.0,484.0,1
1243,1243,-0.9068628849920792,0.0,0.0,367.0,787.0,1.0,236.0,0
1244,1244,0.4821368594623616,0.7,0.0,463.0,517.0,0.0,510.0,1
1245,1245,-0.29870278882843615,0.4,0.0,315.0,909.0,1.0,326.0,0
1246,1246,-0.19688294288588448,0.4,0.0,486.0,974.0,1.0,270.0,0
1247,1247,0.02537689476436622,0.5,0.0,440.0,938.0,0.0,1442.0,1
1248,1248,-0.9712724434141262,0.0,0.0,283.0,798.0,1.0,219.0,0
1249,1249,0.3318051240978974,0.7,0.0,427.0,659.0,0.0,484.0,1
1250,1250,-0.3309226385520485,0.3,0.0,495.0,989.0,1.0,746.0,0
1251,1251,0.2261450592774965,0.6,0.0,280.0,819.0,0.0,851.0,1
1252,1252,0.5839997272998145,0.8,0.0,383.0,948.0,0.0,299.0,1
1253,1253,-0.3333168212440889,0.3,0.0,427.0,557.0,1.0,456.0,0
1254,1254,-0.2534106143854997,0.4,0.0,449.0,906.0,1.0,1265.0,0
1255,1255,0.5978393622646498,0.8,0.0,349.0,842.0,0.0,489.0,1
1256,1256,0.8065077630918873,0.9,0.0,494.0,733.0,0.0,403.0,1
1257,1257,0.09304773287341672,0.5,0.0,271.0,508.0,1.0,511.0,0
1258,1258,-0.18665626720023853,0.4,0.0,380.0,985.0,1.0,1035.0,0
1259,1259,-0.8487682604013385,0.1,0.0,368.0,628.0,1.0,424.0,0
1260,1260,0.30043994238649163,0.7,0.0,393.0,743.0,0.0,294.0,1
1261,1261,-0.1543180027275457,0.4,0.0,443.0,916.0,1.0,1061.0,0
1262,1262,0.635791544095309,0.8,0.0,288.0,795.0,0.0,527.0,1
1263,1263,-0.8180978852095628,0.1,0.0,456.0,754.0,1.0,80.0,0
1264,1264,-0.5122896817339979,0.2,0.0,427.0,895.0,1.0,388.0,0
1265,1265,-0.21218074800276354,0.4,0.0,432.0,536.0,1.0,472.0,0
1266,1266,0.15217703253278314,0.6,0.0,382.0,905.0,0.0,3713.0,1
1267,1267,-0.592092558965037,0.2,0.0,375.0,999.0,1.0,406.0,0
1268,1268,0.5854690013467498,0.8,0.0,261.0,788.0,0.0,281.0,1
1269,1269,0.34277922581036524,0.7,0.0,261.0,781.0,0.0,568.0,1
1270,1270,-0.43853618053806986,0.3,0.0,299.0,546.0,1.0,585.0,0
1271,1271,0.619205321697234,0.8,0.0,451.0,926.0,0.0,243.0,1
1272,1272,-0.9362559458647663,0.0,0.0,474.0,681.0,1.0,195.0,0
1273,1273,0.4425247178432574,0.7,0.0,395.0,909.0,0.0,286.0,1
1274,1274,0.42289015666609076,0.7,0.0,471.0,977.0,0.0,292.0,1
1275,1275,0.06524931668408884,0.5,0.0,495.0,760.0,1.0,1285.0,0
1276,1276,0.9005842112411142,1.0,0.0,445.0,746.0,0.0,359.0,1
1277,1277,0.9230349866621157,1.0,0.0,384.0,902.0,0.0,144.0,1
1278,1278,0.9556432969689517,1.0,0.0,304.0,689.0,0.0,277.0,1
1279,1279,0.9231857266030665,1.0,0.0,320.0,800.0,0.0,380.0,1
1280,1280,0.8727907362366525,0.9,0.0,492.0,926.0,0.0,362.0,1
1281,1281,0.5418705528535874,0.8,0.0,359.0,736.0,0.0,275.0,1
1282,1282,0.711792317724913,0.9,0.0,286.0,756.0,0.0,398.0,1
1283,1283,0.1747719395779419,0.6,0.0,250.0,521.0,0.0,2589.0,1
1284,1284,0.2342778928453153,0.6,0.0,293.0,734.0,0.0,423.0,1
1285,1285,-0.42389521666724117,0.3,0.0,411.0,893.0,1.0,376.0,0
1286,1286,0.4579987538979071,0.7,0.0,357.0,710.0,0.0,513.0,1
1287,1287,-0.9738878157565705,0.0,0.0,425.0,844.0,1.0,241.0,0
1288,1288,-0.8198753771384666,0.1,0.0,294.0,864.0,1.0,312.0,0
1289,1289,-0.22850341805137098,0.4,0.0,483.0,537.0,1.0,1030.0,0
1290,1290,-0.549965804451936,0.2,0.0,433.0,741.0,1.0,366.0,0
1291,1291,-0.9415752416664742,0.0,0.0,443.0,614.0,1.0,253.0,0
1292,1292,-0.2539101487120352,0.4,0.0,312.0,516.0,1.0,492.0,0
1293,1293,0.23495178898999458,0.6,0.0,480.0,836.0,0.0,784.0,1
1294,1294,-0.907058806890574,0.0,0.0,413.0,675.0,1.0,292.0,0
1295,1295,0.3153770777428089,0.7,0.0,322.0,719.0,0.0,469.0,1
1296,1296,-0.2820448707463592,0.4,0.0,356.0,891.0,1.0,803.0,0
1297,1297,0.15141120920177942,0.6,0.0,315.0,743.0,0.0,682.0,1
1298,1298,-0.5217352511713078,0.2,0.0,337.0,775.0,1.0,518.0,0
1299,1299,-0.2831550614404892,0.4,0.0,292.0,768.0,1.0,660.0,0
1300,1300,0.6150176866882646,0.8,0.0,498.0,514.0,0.0,428.0,1
1301,1301,0.6626248224755817,0.8,0.0,376.0,619.0,0.0,335.0,1
1302,1302,0.4579289484083924,0.7,0.0,433.0,541.0,0.0,286.0,1
1303,1303,0.26144146326700324,0.6,0.0,305.0,701.0,0.0,824.0,1
1304,1304,0.49034797572818944,0.7,0.0,260.0,871.0,0.0,459.0,1
1305,1305,-0.5496572727595981,0.2,0.0,326.0,679.0,1.0,275.0,0
1306,1306,-0.6077984252283024,0.2,0.0,370.0,531.0,1.0,329.0,0
1307,1307,0.9543128561997953,1.0,0.0,273.0,833.0,0.0,304.0,1
1308,1308,-0.5984960660069862,0.2,0.0,304.0,712.0,1.0,194.0,0
1309,1309,0.189431714700655,0.6,0.0,444.0,607.0,0.0,339.0,1
1310,1310,-0.9572276545209748,0.0,0.0,378.0,850.0,1.0,192.0,0
1311,1311,0.06592416857816086,0.5,0.0,394.0,632.0,1.0,1054.0,0
1312,1312,0.2689924959392942,0.6,0.0,463.0,514.0,0.0,433.0,1
1313,1313,-0.5453617803499711,0.2,0.0,260.0,847.0,1.0,303.0,0
1314,1314,0.8625453127194609,0.9,0.0,318.0,587.0,0.0,265.0,1
1315,1315,-0.08130087093446181,0.5,0.0,496.0,870.0,1.0,934.0,0
1316,1316,0.7913607397019304,0.9,0.0,478.0,629.0,0.0,373.0,1
1317,1317,-0.357401986976859,0.3,0.0,410.0,910.0,1.0,250.0,0
1318,1318,-0.12276337224259137,0.4,0.0,339.0,611.0,1.0,870.0,0
1319,1319,0.5245766541244905,0.8,0.0,345.0,533.0,0.0,352.0,1
1320,1320,0.3202241102625545,0.7,0.0,415.0,680.0,0.0,295.0,1
1321,1321,-0.8629694903580503,0.1,0.0,408.0,627.0,1.0,275.0,0
1322,1322,-0.25271431626845886,0.4,0.0,398.0,627.0,1.0,385.0,0
1323,1323,0.4364682719736108,0.7,0.0,343.0,833.0,0.0,284.0,1
1324,1324,-0.5867373874551021,0.2,0.0,424.0,905.0,1.0,311.0,0
1325,1325,0.38144502539573266,0.7,0.0,420.0,510.0,0.0,490.0,1
1326,1326,0.625747355607869,0.8,0.0,278.0,785.0,0.0,177.0,1
1327,1327,-0.8055435289100235,0.1,0.0,344.0,843.0,1.0,403.0,0
1328,1328,0.8547344203787934,0.9,0.0,473.0,968.0,0.0,459.0,1
1329,1329,0.3259637220127054,0.7,0.0,388.0,608.0,0.0,344.0,1
1330,1330,0.7880764138268566,0.9,0.0,365.0,628.0,0.0,307.0,1
1331,1331,-0.41288302106138164,0.3,0.0,451.0,909.0,1.0,350.0,0
1332,1332,-0.9387701447427959,0.0,0.0,420.0,878.0,1.0,292.0,0
1333,1333,0.8718059310472328,0.9,0.0,457.0,807.0,0.0,286.0,1
1334,1334,-0.40067439130127336,0.3,0.0,280.0,607.0,1.0,673.0,0
1335,1335,-0.9045047215915389,0.0,0.0,397.0,567.0,1.0,306.0,0
1336,1336,0.05913002509524734,0.5,0.0,270.0,594.0,1.0,2116.0,0
1337,1337,-0.14217061750940574,0.4,0.0,319.0,758.0,1.0,933.0,0
1338,1338,0.9738433907472419,1.0,0.0,284.0,969.0,0.0,827.0,1
1339,1339,-0.3833556734393475,0.3,0.0,360.0,941.0,1.0,1029.0,0
1340,1340,-0.06453346704608998,0.5,0.0,462.0,838.0,0.0,1180.0,1
1341,1341,-0.02477472558074756,0.5,0.0,339.0,876.0,1.0,3345.0,0
1342,1342,-0.9127950007356358,0.0,0.0,382.0,876.0,1.0,292.0,0
1343,1343,0.4490109789325727,0.7,0.0,298.0,735.0,0.0,337.0,1
1344,1344,0.06222081141726088,0.5,0.0,475.0,597.0,0.0,938.0,1
1345,1345,-0.11600877563235978,0.4,0.0,448.0,794.0,1.0,478.0,0
1346,1346,-0.1950553078872317,0.4,0.0,460.0,546.0,1.0,1654.0,0
1347,1347,-0.9570361031498524,0.0,0.0,299.0,952.0,1.0,299.0,0
1348,1348,0.2928176555308746,0.6,0.0,366.0,597.0,0.0,1027.0,1
1349,1349,-0.35495709844051326,0.3,0.0,338.0,939.0,1.0,463.0,0
1350,1350,-0.1687699164356753,0.4,0.0,322.0,825.0,1.0,693.0,0
1351,1351,-0.4858413588253989,0.3,0.0,400.0,747.0,1.0,463.0,0
1352,1352,-0.4638839125230587,0.3,0.0,464.0,785.0,1.0,621.0,0
1353,1353,-0.17700368921541543,0.4,0.0,454.0,929.0,1.0,987.0,0
1354,1354,0.46570629782386086,0.7,0.0,392.0,817.0,0.0,301.0,1
1355,1355,-0.02615030799531959,0.5,0.0,367.0,798.0,1.0,2265.0,0
1356,1356,0.8669674617696006,0.9,0.0,251.0,750.0,0.0,279.0,1
1357,1357,0.3058996894683783,0.7,0.0,467.0,658.0,0.0,2985.0,1
1358,1358,0.7774464109456178,0.9,0.0,438.0,591.0,0.0,601.0,1
1359,1359,-0.08263096522815117,0.5,0.0,405.0,567.0,1.0,408.0,0
1360,1360,0.5700806610218787,0.8,0.0,490.0,777.0,0.0,353.0,1
1361,1361,-0.7237545714378488,0.1,0.0,324.0,527.0,1.0,219.0,0
1362,1362,-0.9437342821301782,0.0,0.0,433.0,844.0,1.0,263.0,0
1363,1363,-0.9896834070979745,0.0,0.0,294.0,614.0,1.0,302.0,0
1364,1364,-0.09871113370753681,0.5,0.0,289.0,711.0,1.0,3860.0,0
1365,1365,-0.4111783150982551,0.3,0.0,318.0,560.0,1.0,832.0,0
1366,1366,-0.5858138927769667,0.2,0.0,388.0,857.0,1.0,335.0,0
1367,1367,0.4451668187877227,0.7,0.0,287.0,755.0,0.0,428.0,1
1368,1368,0.39836958289669266,0.7,0.0,320.0,956.0,0.0,334.0,1
1369,1369,-0.6563083469979196,0.2,0.0,428.0,962.0,1.0,280.0,0
1370,1370,-0.7682132355594367,0.1,0.0,397.0,735.0,1.0,308.0,0
1371,1371,0.3316479941624426,0.7,0.0,396.0,722.0,0.0,432.0,1
1372,1372,0.30427941291573446,0.7,0.0,434.0,836.0,0.0,1190.0,1
1373,1373,0.9588559714422644,1.0,0.0,473.0,864.0,0.0,413.0,1
1374,1374,0.3529355442469986,0.7,0.0,355.0,666.0,0.0,269.0,1
1375,1375,-0.6164309304159961,0.2,0.0,379.0,609.0,1.0,202.0,0
1376,1376,-0.48832472510942027,0.3,0.0,437.0,718.0,1.0,925.0,0
1377,1377,-0.7675611674233906,0.1,0.0,417.0,963.0,1.0,390.0,0
1378,1378,0.9295464753042093,1.0,0.0,363.0,733.0,0.0,514.0,1
1379,1379,-0.8905562910665985,0.1,0.0,280.0,709.0,1.0,221.0,0
1380,1380,0.5222591545871438,0.8,0.0,317.0,833.0,0.0,280.0,1
1381,1381,-0.7930064181959948,0.1,0.0,439.0,563.0,1.0,288.0,0
1382,1382,0.020813964580331135,0.5,0.0,417.0,748.0,1.0,1165.0,0
1383,1383,-0.9423157655025767,0.0,0.0,363.0,713.0,1.0,164.0,0
1384,1384,0.5796567451753052,0.8,0.0,424.0,988.0,0.0,988.0,1
1385,1385,0.16038652204631698,0.6,0.0,255.0,800.0,0.0,765.0,1
1386,1386,0.7195312794372488,0.9,0.0,329.0,541.0,0.0,420.0,1
1387,1387,0.42418960047959287,0.7,0.0,484.0,875.0,0.0,1391.0,1
1388,1388,-0.9885407022313446,0.0,0.0,370.0,521.0,1.0,319.0,0
1389,1389,0.2581264978259019,0.6,0.0,418.0,908.0,0.0,214.0,1
1390,1390,0.6266550833263549,0.8,0.0,416.0,642.0,0.0,332.0,1
1391,1391,0.5041928468835528,0.8,0.0,253.0,646.0,0.0,481.0,1
1392,1392,-0.4555037782028861,0.3,0.0,394.0,679.0,1.0,647.0,0
1393,1393,-0.6630347006382888,0.2,0.0,338.0,905.0,1.0,237.0,0
1394,1394,-0.37564789455401604,0.3,0.0,460.0,653.0,1.0,407.0,0
1395,1395,-0.4802048185926584,0.3,0.0,375.0,691.0,1.0,424.0,0
1396,1396,-0.9397735176930593,0.0,0.0,294.0,801.0,1.0,205.0,0
1397,1397,0.2850452848336469,0.6,0.0,336.0,656.0,0.0,1118.0,1
1398,1398,-0.12172471790099793,0.4,0.0,435.0,586.0,1.0,2789.0,0
1399,1399,-0.6203822619021289,0.2,0.0,327.0,511.0,1.0,272.0,0
1400,1400,-0.2937307747456732,0.4,0.0,390.0,714.0,1.0,316.0,0
1401,1401,-0.8593430641498441,0.1,0.0,408.0,857.0,1.0,275.0,0
1402,1402,0.9682600677370503,1.0,0.0,414.0,929.0,0.0,187.0,1
1403,1403,-0.041560815488928426,0.5,0.0,306.0,801.0,1.0,1093.0,0
1404,1404,-0.7050308306266122,0.1,0.0,463.0,901.0,1.0,436.0,0
1405,1405,-0.7481050344049132,0.1,0.0,478.0,879.0,1.0,283.0,0
1406,1406,0.11275025749268042,0.6,0.0,360.0,831.0,1.0,299.0,0
1407,1407,0.4994366700255215,0.7,0.0,286.0,528.0,0.0,276.0,1
1408,1408,0.8673584455001542,0.9,0.0,302.0,870.0,0.0,308.0,1
1409,1409,0.11857369201906409,0.6,0.0,313.0,973.0,0.0,534.0,1
1410,1410,0.606033200540735,0.8,0.0,380.0,986.0,0.0,274.0,1
1411,1411,-0.2525032784763188,0.4,0.0,305.0,780.0,1.0,915.0,0
1412,1412,0.14540333082847412,0.6,0.0,424.0,979.0,0.0,467.0,1
1413,1413,0.9142378314922732,1.0,0.0,497.0,947.0,0.0,266.0,1
1414,1414,-0.8579830568555025,0.1,0.0,490.0,954.0,1.0,226.0,0
1415,1415,0.5717460449292728,0.8,0.0,341.0,889.0,0.0,310.0,1
1416,1416,-0.7938007522645465,0.1,0.0,418.0,875.0,1.0,317.0,0
1417,1417,0.9223355389614727,1.0,0.0,274.0,721.0,0.0,335.0,1
1418,1418,0.8279983773644912,0.9,0.0,331.0,629.0,0.0,220.0,1
1419,1419,-0.987275314517001,0.0,0.0,289.0,723.0,1.0,248.0,0
1420,1420,-0.12759513237419684,0.4,0.0,361.0,971.0,1.0,778.0,0
1421,1421,0.912982256558402,1.0,0.0,284.0,885.0,0.0,411.0,1
1422,1422,0.12151833606917695,0.6,0.0,306.0,764.0,0.0,1740.0,1
1423,1423,0.7866652085868864,0.9,0.0,306.0,811.0,0.0,433.0,1
1424,1424,0.9159678948014949,1.0,0.0,481.0,640.0,0.0,929.0,1
1425,1425,0.09587921284647738,0.5,0.0,422.0,996.0,1.0,1092.0,0
1426,1426,-0.46202502033440584,0.3,0.0,371.0,696.0,1.0,353.0,0
1427,1427,0.3746491707557451,0.7,0.0,310.0,827.0,0.0,1243.0,1
1428,1428,-0.9506492019555446,0.0,0.0,385.0,870.0,1.0,175.0,0
1429,1429,-0.4313455027882598,0.3,0.0,316.0,804.0,1.0,650.0,0
1430,1430,0.11186471044453539,0.6,0.0,412.0,750.0,0.0,408.0,1
1431,1431,-0.7225787971104618,0.1,0.0,318.0,594.0,1.0,528.0,0
1432,1432,-0.8698017414200803,0.1,0.0,374.0,851.0,1.0,205.0,0
1433,1433,0.665556680328925,0.8,0.0,437.0,556.0,0.0,737.0,1
1434,1434,0.24359712030790015,0.6,0.0,459.0,769.0,0.0,812.0,1
1435,1435,0.8224886926819133,0.9,0.0,308.0,502.0,0.0,430.0,1
1436,1436,-0.03784414484766607,0.5,0.0,446.0,528.0,1.0,1886.0,0
1437,1437,-0.6772134343287728,0.2,0.0,496.0,542.0,1.0,412.0,0
1438,1438,-0.26786593325669084,0.4,0.0,435.0,587.0,1.0,378.0,0
1439,1439,0.755362602414686,0.9,0.0,282.0,907.0,0.0,361.0,1
1440,1440,0.9788363678048462,1.0,0.0,371.0,543.0,0.0,326.0,1
1441,1441,0.20157435948483382,0.6,0.0,412.0,603.0,0.0,1875.0,1
1442,1442,0.27312238960067226,0.6,0.0,276.0,638.0,0.0,306.0,1
1443,1443,-0.3766879852283245,0.3,0.0,386.0,869.0,1.0,265.0,0
1444,1444,-0.8034270869004974,0.1,0.0,410.0,917.0,1.0,263.0,0
1445,1445,-0.061479812142937185,0.5,0.0,292.0,518.0,1.0,270.0,0
1446,1446,0.7340900034139095,0.9,0.0,495.0,682.0,0.0,333.0,1
1447,1447,0.646610996412436,0.8,0.0,409.0,895.0,0.0,296.0,1
1448,1448,0.5039815462415826,0.8,0.0,475.0,729.0,0.0,1326.0,1
1449,1449,-0.49315670501173003,0.3,0.0,371.0,515.0,1.0,474.0,0
1450,1450,-0.5935912794787959,0.2,0.0,442.0,529.0,1.0,289.0,0
1451,1451,-0.41786121450126323,0.3,0.0,362.0,870.0,1.0,368.0,0
1452,1452,0.5707283867926405,0.8,0.0,459.0,785.0,0.0,446.0,1
1453,1453,0.9347425831712004,1.0,0.0,354.0,935.0,0.0,391.0,1
1454,1454,-0.27099181163852215,0.4,0.0,499.0,533.0,1.0,698.0,0
1455,1455,-0.3690121229423482,0.3,0.0,303.0,887.0,1.0,750.0,0
1456,1456,-0.9849987203432384,0.0,0.0,462.0,501.0,1.0,187.0,0
1457,1457,-0.27186844425074175,0.4,0.0,484.0,892.0,1.0,644.0,0
1458,1458,0.5045882368413077,0.8,0.0,250.0,844.0,0.0,386.0,1
1459,1459,-0.25857868937760475,0.4,0.0,312.0,782.0,1.0,666.0,0
1460,1460,0.1922225313194621,0.6,0.0,275.0,924.0,0.0,1191.0,1
1461,1461,0.4532678634887195,0.7,0.0,288.0,754.0,0.0,568.0,1
1462,1462,-0.09270557542123381,0.5,0.0,350.0,849.0,1.0,2231.0,0
1463,1463,0.8777004926869085,0.9,0.0,388.0,702.0,0.0,480.0,1
1464,1464,0.767336311080749,0.9,0.0,486.0,782.0,0.0,262.0,1
1465,1465,0.26856115275127723,0.6,0.0,295.0,934.0,0.0,1221.0,1
1466,1466,-0.2706488900723094,0.4,0.0,412.0,938.0,1.0,570.0,0
1467,1467,-0.4460176028321192,0.3,0.0,371.0,864.0,1.0,465.0,0
1468,1468,0.732447739817073,0.9,0.0,433.0,967.0,0.0,780.0,1
1469,1469,0.9150987719893198,1.0,0.0,387.0,885.0,0.0,378.0,1
1470,1470,0.986892117733015,1.0,0.0,357.0,965.0,0.0,268.0,1
1471,1471,-0.13172816627656037,0.4,0.0,328.0,963.0,1.0,819.0,0
1472,1472,-0.4891609195125417,0.3,0.0,293.0,735.0,1.0,522.0,0
1473,1473,0.6786226962294892,0.8,0.0,469.0,795.0,0.0,976.0,1
1474,1474,0.184410737613401,0.6,0.0,306.0,882.0,0.0,1352.0,1
1475,1475,-0.2714877703441214,0.4,0.0,277.0,669.0,1.0,204.0,0
1476,1476,-0.39912351903998844,0.3,0.0,418.0,511.0,1.0,301.0,0
1477,1477,0.2057242898451992,0.6,0.0,287.0,996.0,0.0,1427.0,1
1478,1478,-0.27251191447940104,0.4,0.0,475.0,824.0,1.0,821.0,0
1479,1479,-0.4029122831603402,0.3,0.0,284.0,987.0,1.0,639.0,0
1480,1480,0.05330366560269795,0.5,0.0,452.0,586.0,0.0,232.0,1
1481,1481,-0.40890509265178454,0.3,0.0,337.0,902.0,1.0,1351.0,0
1482,1482,-0.9698033620377342,0.0,0.0,385.0,713.0,1.0,252.0,0
1483,1483,-0.28505385343747336,0.4,0.0,479.0,544.0,1.0,1267.0,0
1484,1484,-0.3924727847695979,0.3,0.0,310.0,856.0,1.0,334.0,0
1485,1485,0.29141444313555365,0.6,0.0,272.0,995.0,0.0,593.0,1
1486,1486,-0.2950675969033463,0.4,0.0,269.0,997.0,1.0,824.0,0
1487,1487,-0.777788571921098,0.1,0.0,412.0,821.0,1.0,327.0,0
1488,1488,0.4994824567592788,0.7,0.0,449.0,708.0,0.0,553.0,1
1489,1489,0.9328717053262405,1.0,0.0,331.0,524.0,0.0,345.0,1
1490,1490,-0.9411587407965449,0.0,0.0,424.0,505.0,1.0,311.0,0
1491,1491,-0.06966971940925792,0.5,0.0,482.0,976.0,1.0,562.0,0
1492,1492,-0.45897011073954763,0.3,0.0,480.0,860.0,1.0,450.0,0
1493,1493,0.6490665655809558,0.8,0.0,406.0,664.0,0.0,320.0,1
1494,1494,-0.6337456101757106,0.2,0.0,312.0,909.0,1.0,239.0,0
1495,1495,0.21261863030223105,0.6,0.0,314.0,858.0,0.0,618.0,1
1496,1496,0.03349218792304809,0.5,0.0,429.0,601.0,0.0,600.0,1
1497,1497,0.1784210501950645,0.6,0.0,464.0,972.0,0.0,304.0,1
1498,1498,-0.06128834356955526,0.5,0.0,427.0,739.0,1.0,264.0,0
1499,1499,-0.7008825292712186,0.1,0.0,497.0,678.0,1.0,485.0,0
1500,1500,-0.5887680405214957,0.2,0.0,305.0,695.0,1.0,880.0,0
1501,1501,-0.9462990721189015,0.0,0.0,326.0,521.0,1.0,363.0,0
1502,1502,0.20585712168259018,0.6,0.0,258.0,895.0,0.0,587.0,1
1503,1503,-0.9451645929128716,0.0,0.0,346.0,725.0,1.0,299.0,0
1504,1504,0.8582927776606657,0.9,0.0,434.0,928.0,0.0,248.0,1
1505,1505,0.36057649923529556,0.7,0.0,316.0,657.0,0.0,377.0,1
1506,1506,0.10225740281246232,0.6,0.0,355.0,686.0,0.0,459.0,1
1507,1507,0.9037589964786161,1.0,0.0,362.0,559.0,0.0,379.0,1
1508,1508,-0.18542236167301795,0.4,0.0,315.0,522.0,1.0,433.0,0
1509,1509,0.3157595198090519,0.7,0.0,275.0,821.0,0.0,1514.0,1
1510,1510,0.24982036952095976,0.6,0.0,315.0,825.0,0.0,300.0,1
1511,1511,0.8595700664646022,0.9,0.0,391.0,655.0,0.0,434.0,1
1512,1512,-0.4786311915390933,0.3,0.0,300.0,613.0,1.0,307.0,0
1513,1513,0.7470747761362737,0.9,0.0,484.0,668.0,0.0,1088.0,1
1514,1514,0.5699053767978106,0.8,0.0,457.0,585.0,0.0,268.0,1
1515,1515,-0.1317823703416232,0.4,0.0,472.0,509.0,1.0,569.0,0
1516,1516,0.4623443875962543,0.7,0.0,292.0,651.0,0.0,237.0,1
1517,1517,-0.34438067630383085,0.3,0.0,366.0,517.0,1.0,637.0,0
1518,1518,0.7455832403524956,0.9,0.0,256.0,602.0,0.0,562.0,1
1519,1519,0.4955992660299895,0.7,0.0,316.0,726.0,0.0,528.0,1
1520,1520,0.7826236929628283,0.9,0.0,413.0,682.0,0.0,405.0,1
1521,1521,0.1386726893031751,0.6,0.0,342.0,817.0,0.0,941.0,1
1522,1522,-0.23850524691651298,0.4,0.0,360.0,944.0,1.0,456.0,0
1523,1523,0.6432112607103841,0.8,0.0,264.0,886.0,0.0,540.0,1
1524,1524,0.6187474970566016,0.8,0.0,451.0,759.0,0.0,370.0,1
1525,1525,-0.7538650325121818,0.1,0.0,250.0,528.0,1.0,202.0,0
1526,1526,0.3316034343816703,0.7,0.0,444.0,683.0,0.0,303.0,1
1527,1527,-0.26991419408147577,0.4,0.0,274.0,762.0,1.0,804.0,0
1528,1528,-0.8997407762610499,0.1,0.0,371.0,837.0,1.0,242.0,0
1529,1529,-0.8198781766586758,0.1,0.0,272.0,811.0,1.0,367.0,0
1530,1530,-0.23189948685293027,0.4,0.0,322.0,797.0,1.0,911.0,0
1531,1531,-0.5653577715737252,0.2,0.0,400.0,877.0,1.0,553.0,0
1532,1532,0.7725715372422635,0.9,0.0,276.0,562.0,0.0,712.0,1
1533,1533,0.2605269455475592,0.6,0.0,378.0,544.0,0.0,308.0,1
1534,1534,0.10988982247652257,0.6,0.0,423.0,681.0,0.0,786.0,1
1535,1535,-0.5125099193643368,0.2,0.0,267.0,627.0,1.0,606.0,0
1536,1536,0.43199280296571363,0.7,0.0,315.0,961.0,0.0,584.0,1
1537,1537,0.8825171306125768,0.9,0.0,280.0,953.0,0.0,197.0,1
1538,1538,-0.07730392466548053,0.5,0.0,381.0,748.0,1.0,301.0,0
1539,1539,0.8351408894682291,0.9,0.0,286.0,667.0,0.0,257.0,1
1540,1540,0.8040323546088426,0.9,0.0,457.0,617.0,0.0,286.0,1
1541,1541,-0.8693154879030942,0.1,0.0,464.0,926.0,1.0,310.0,0
1542,1542,0.798394536803462,0.9,0.0,469.0,853.0,0.0,218.0,1
1543,1543,-0.26901620645542135,0.4,0.0,301.0,631.0,1.0,568.0,0
1544,1544,-0.1694296127860333,0.4,0.0,475.0,803.0,1.0,1462.0,0
1545,1545,-0.20454247123274172,0.4,0.0,437.0,594.0,1.0,449.0,0
1546,1546,-0.7102918004562726,0.1,0.0,370.0,810.0,1.0,230.0,0
1547,1547,0.5536535511159475,0.8,0.0,495.0,885.0,0.0,460.0,1
1548,1548,-0.030349726510301878,0.5,0.0,280.0,878.0,1.0,1792.0,0
1549,1549,-0.32877232013308766,0.3,0.0,454.0,894.0,1.0,492.0,0
1550,1550,0.38903185990591127,0.7,0.0,490.0,572.0,0.0,658.0,1
1551,1551,-0.6634818799412989,0.2,0.0,250.0,657.0,1.0,303.0,0
1552,1552,0.3062172798254206,0.7,0.0,307.0,848.0,0.0,1155.0,1
1553,1553,0.11361190269410781,0.6,0.0,332.0,702.0,0.0,1586.0,1
1554,1554,0.06077066244129958,0.5,0.0,449.0,850.0,1.0,741.0,0
1555,1555,0.7460469741995566,0.9,0.0,496.0,917.0,0.0,307.0,1
1556,1556,-0.0850899028905574,0.5,0.0,271.0,553.0,1.0,856.0,0
1557,1557,0.4751618706649017,0.7,0.0,356.0,738.0,0.0,346.0,1
1558,1558,-0.5364341006455942,0.2,0.0,266.0,644.0,1.0,330.0,0
1559,1559,0.3995657755099544,0.7,0.0,351.0,890.0,0.0,339.0,1
1560,1560,-0.9440098298259259,0.0,0.0,435.0,844.0,1.0,201.0,0
1561,1561,-0.6209598113227817,0.2,0.0,412.0,946.0,1.0,232.0,0
1562,1562,0.4029161420781515,0.7,0.0,419.0,821.0,0.0,630.0,1
1563,1563,0.8489609785939822,0.9,0.0,303.0,886.0,0.0,241.0,1
1564,1564,-0.2963590729401273,0.4,0.0,322.0,978.0,1.0,750.0,0
1565,1565,-0.6831174282481041,0.2,0.0,425.0,582.0,1.0,493.0,0
1566,1566,-0.9455492446743932,0.0,0.0,442.0,504.0,1.0,244.0,0
1567,1567,-0.9492081969361847,0.0,0.0,499.0,528.0,1.0,223.0,0
1568,1568,-0.4490868301215769,0.3,0.0,474.0,570.0,1.0,296.0,0
1569,1569,0.1862897344273713,0.6,0.0,299.0,626.0,0.0,1515.0,1
1570,1570,0.8426691451507271,0.9,0.0,350.0,999.0,0.0,231.0,1
1571,1571,0.6496481918238974,0.8,0.0,261.0,874.0,0.0,255.0,1
1572,1572,0.6387258468401302,0.8,0.0,304.0,896.0,0.0,200.0,1
1573,1573,0.9339644360935975,1.0,0.0,449.0,538.0,0.0,323.0,1
1574,1574,-0.6982613490215976,0.2,0.0,252.0,927.0,1.0,401.0,0
1575,1575,-0.8202177134558903,0.1,0.0,388.0,978.0,1.0,364.0,0
1576,1576,0.850586161665301,0.9,0.0,451.0,760.0,0.0,339.0,1
1577,1577,-0.08434010171396444,0.5,0.0,348.0,572.0,1.0,790.0,0
1578,1578,-0.29760040981687275,0.4,0.0,479.0,923.0,1.0,868.0,0
1579,1579,0.5719238245871432,0.8,0.0,383.0,901.0,0.0,486.0,1
1580,1580,0.3356558222124817,0.7,0.0,358.0,670.0,0.0,562.0,1
1581,1581,0.243823494588713,0.6,0.0,349.0,515.0,0.0,1046.0,1
1582,1582,0.2687965701437327,0.6,0.0,444.0,585.0,0.0,241.0,1
1583,1583,-0.3171027223000362,0.3,0.0,464.0,993.0,1.0,213.0,0
1584,1584,-0.4182718905023117,0.3,0.0,407.0,784.0,1.0,589.0,0
1585,1585,0.5564380881995346,0.8,0.0,396.0,502.0,0.0,282.0,1
1586,1586,0.8053835036240153,0.9,0.0,363.0,705.0,0.0,482.0,1
1587,1587,0.03997684103505361,0.5,0.0,395.0,985.0,1.0,910.0,0
1588,1588,-0.5888653056609352,0.2,0.0,426.0,939.0,1.0,425.0,0
1589,1589,0.8981370886302922,0.9,0.0,410.0,531.0,0.0,379.0,1
1590,1590,-0.813189650024108,0.1,0.0,255.0,551.0,1.0,224.0,0
1591,1591,-0.6455376065979825,0.2,0.0,426.0,702.0,1.0,452.0,0
1592,1592,-0.9998502891116157,0.0,0.0,482.0,525.0,1.0,323.0,0
1593,1593,-0.04160030815508553,0.5,0.0,354.0,765.0,1.0,2051.0,0
1594,1594,0.13835402831120214,0.6,0.0,368.0,741.0,0.0,431.0,1
1595,1595,0.2201743282894073,0.6,0.0,259.0,814.0,0.0,287.0,1
1596,1596,0.16606476589513464,0.6,0.0,437.0,714.0,0.0,319.0,1
1597,1597,0.6373849016805133,0.8,0.0,305.0,925.0,0.0,590.0,1
1598,1598,-0.20730682609162976,0.4,0.0,491.0,598.0,1.0,1111.0,0
1599,1599,0.2832315874100977,0.6,0.0,377.0,931.0,0.0,1572.0,1
1600,1600,0.2592277822425426,0.6,0.0,457.0,533.0,0.0,620.0,1
1601,1601,-0.9895907890291322,0.0,0.0,465.0,966.0,1.0,329.0,0
1602,1602,-0.15947382062667703,0.4,0.0,393.0,907.0,1.0,1070.0,0
1603,1603,0.1444668431185545,0.6,0.0,495.0,953.0,0.0,362.0,1
1604,1604,-0.6104365804441723,0.2,0.0,308.0,923.0,1.0,289.0,0
1605,1605,-0.6092555456931306,0.2,0.0,447.0,568.0,1.0,275.0,0
1606,1606,-0.575659599180548,0.2,0.0,435.0,511.0,1.0,364.0,0
1607,1607,0.24451063115850102,0.6,0.0,492.0,901.0,0.0,397.0,1
1608,1608,0.22278666656892843,0.6,0.0,473.0,634.0,0.0,523.0,1
1609,1609,-0.4108203153454455,0.3,0.0,446.0,756.0,1.0,278.0,0
1610,1610,0.05322109632079908,0.5,0.0,275.0,574.0,1.0,731.0,0
1611,1611,-0.07363788750856748,0.5,0.0,369.0,564.0,1.0,1327.0,0
1612,1612,-0.2825266669772497,0.4,0.0,267.0,558.0,1.0,665.0,0
1613,1613,0.7278821128616901,0.9,0.0,375.0,943.0,0.0,222.0,1
1614,1614,0.1746731895083482,0.6,0.0,496.0,590.0,0.0,344.0,1
1615,1615,0.13405653607215173,0.6,0.0,343.0,806.0,0.0,1631.0,1
1616,1616,0.14685719946858744,0.6,0.0,450.0,699.0,0.0,961.0,1
1617,1617,0.3349110612526669,0.7,0.0,404.0,976.0,0.0,520.0,1
1618,1618,-0.4902548083961793,0.3,0.0,285.0,953.0,1.0,292.0,0
1619,1619,0.07687537164722014,0.5,0.0,358.0,853.0,0.0,459.0,1
1620,1620,-0.1787356940035989,0.4,0.0,378.0,800.0,1.0,822.0,0
1621,1621,0.31534936539668124,0.7,0.0,351.0,758.0,0.0,1111.0,1
1622,1622,-0.42972404423351596,0.3,0.0,330.0,868.0,1.0,222.0,0
1623,1623,0.5399794096222719,0.8,0.0,261.0,977.0,0.0,262.0,1
1624,1624,0.0843285881904896,0.5,0.0,403.0,595.0,1.0,972.0,0
1625,1625,0.5553303096371658,0.8,0.0,477.0,619.0,0.0,564.0,1
1626,1626,-0.6469691959878552,0.2,0.0,297.0,599.0,1.0,384.0,0
1627,1627,0.4168956419227139,0.7,0.0,342.0,713.0,0.0,385.0,1
1628,1628,-0.577516943576095,0.2,0.0,465.0,908.0,1.0,497.0,0
1629,1629,0.40300718858227347,0.7,0.0,344.0,991.0,0.0,265.0,1
1630,1630,0.39912343424164054,0.7,0.0,294.0,854.0,0.0,232.0,1
1631,1631,-0.06368298698097075,0.5,0.0,444.0,904.0,1.0,542.0,0
1632,1632,0.28365794287639057,0.6,0.0,445.0,797.0,0.0,308.0,1
1633,1633,0.8950828729497566,0.9,0.0,278.0,695.0,0.0,237.0,1
1634,1634,-0.542732531809206,0.2,0.0,280.0,894.0,1.0,786.0,0
1635,1635,0.7014892632523309,0.9,0.0,495.0,967.0,0.0,618.0,1
1636,1636,-0.6561636184765851,0.2,0.0,279.0,604.0,1.0,237.0,0
1637,1637,-0.20959374916878248,0.4,0.0,329.0,955.0,1.0,806.0,0
1638,1638,0.9216070833248937,1.0,0.0,494.0,865.0,0.0,221.0,1
1639,1639,-0.8613694143303845,0.1,0.0,417.0,744.0,1.0,429.0,0
1640,1640,0.45476384149883975,0.7,0.0,358.0,896.0,0.0,486.0,1
1641,1641,0.8495854731460517,0.9,0.0,365.0,811.0,0.0,414.0,1
1642,1642,0.8743281927978634,0.9,0.0,404.0,800.0,0.0,416.0,1
1643,1643,-0.8949162417438459,0.1,0.0,370.0,998.0,1.0,362.0,0
1644,1644,0.18785455596544298,0.6,0.0,411.0,857.0,0.0,352.0,1
1645,1645,0.2895631727533128,0.6,0.0,446.0,924.0,0.0,630.0,1
1646,1646,0.37919391060212915,0.7,0.0,471.0,591.0,0.0,728.0,1
1647,1647,0.9407749728304127,1.0,0.0,316.0,890.0,0.0,404.0,1
1648,1648,-0.21116575012816274,0.4,0.0,344.0,654.0,1.0,1242.0,0
