,trial,coherence,coherence_bin,correct_side,target_onset,checker_onset,decision,decision_time,correct_decision,delay
0,0,-0.8939309036922012,-0.9,1,346.0,840.0,1.0,224.0,1,284.0896355538302
1,1,0.9507207087220095,1.0,0,399.0,879.0,0.0,342.0,1,7.39189369169857
2,2,-0.2576660556680519,-0.3,1,290.0,604.0,1.0,916.0,1,188.6499083502078
3,3,-0.568116990459268,-0.6,1,256.0,505.0,1.0,159.0,1,235.2175485688902
4,4,-0.29173694229356495,-0.3,1,484.0,595.0,1.0,911.0,1,193.76054134403475
5,5,0.40832588502674083,0.4,0,265.0,565.0,0.0,340.0,1,88.75111724598888
6,6,-0.5568704904079196,-0.6,1,365.0,685.0,1.0,210.0,1,233.53057356118794
7,7,-0.4376294857952825,-0.4,1,347.0,570.0,1.0,263.0,1,215.64442286929238
8,8,0.8340978566974606,0.8,0,422.0,552.0,0.0,1756.0,1,24.885321495380907
9,9,0.7425820823530533,0.7,0,379.0,972.0,0.0,1489.0,1,38.612687647042
10,10,0.9075818292297311,0.9,0,420.0,823.0,0.0,207.0,1,13.862725615540338
11,11,0.5979220139907224,0.6,0,420.0,734.0,0.0,906.0,1,60.31169790139164
12,12,0.8261062259131631,0.8,0,340.0,847.0,0.0,133.0,1,26.08406611302554
13,13,-0.8129060262097472,-0.8,1,464.0,604.0,1.0,232.0,1,271.93590393146206
14,14,-0.9258200613209027,-0.9,1,348.0,942.0,1.0,70.0,1,288.8730091981354
15,15,0.06371359774448182,0.1,0,316.0,858.0,1.0,566.0,0,140.44296033832774
16,16,-0.7902455597672822,-0.8,1,334.0,511.0,1.0,295.0,1,268.53683396509234
17,17,0.5042124758828825,0.5,0,291.0,705.0,0.0,554.0,1,74.36812861756762
18,18,0.42249109489968384,0.4,0,456.0,882.0,0.0,1312.0,1,86.62633576504743
19,19,-0.44929820382787833,-0.4,1,426.0,763.0,1.0,101.0,1,217.39473057418175
20,20,0.722370677690348,0.7,0,388.0,601.0,1.0,421.0,0,41.6443983464478
21,21,-0.4876699958332509,-0.5,1,366.0,786.0,1.0,228.0,1,223.15049937498765
22,22,-0.008171977555635701,-0.0,1,283.0,814.0,1.0,1513.0,1,151.22579663334537
23,23,0.8649365029050495,0.9,0,336.0,801.0,0.0,693.0,1,20.25952456424257
24,24,0.6667719798791163,0.7,0,432.0,899.0,0.0,1139.0,1,49.984203018132554
25,25,-0.8013861785982892,-0.8,1,435.0,968.0,1.0,337.0,1,270.2079267897434
26,26,0.3987322408343985,0.4,0,476.0,528.0,0.0,306.0,1,90.19016387484022
27,27,-0.2803338515630791,-0.3,1,485.0,643.0,1.0,172.0,1,192.05007773446187
28,28,-0.15082462279990705,-0.2,1,382.0,673.0,0.0,355.0,0,172.62369341998607
29,29,0.7284601205660342,0.7,0,307.0,864.0,0.0,299.0,1,40.73098191509488
30,30,0.24562330464987236,0.2,0,258.0,843.0,0.0,679.0,1,113.15650430251914
31,31,-0.1693521125193933,-0.2,1,434.0,612.0,1.0,994.0,1,175.402816877909
32,32,0.9442155255689995,0.9,0,407.0,792.0,0.0,541.0,1,8.367671164650082
33,33,-0.17333105420197925,-0.2,1,368.0,573.0,1.0,849.0,1,175.9996581302969
34,34,0.25985443735669,0.3,0,432.0,887.0,1.0,231.0,0,111.0218343964965
35,35,-0.281919130444916,-0.3,1,482.0,818.0,1.0,170.0,1,192.2878695667374
36,36,0.3614501826133236,0.4,0,377.0,505.0,0.0,238.0,1,95.78247260800146
37,37,-0.2890560489502114,-0.3,1,422.0,810.0,1.0,158.0,1,193.3584073425317
38,38,-0.1407476919813584,-0.1,1,393.0,850.0,1.0,227.0,1,171.11215379720375
39,39,0.0613878148769178,0.1,0,296.0,841.0,0.0,1213.0,1,140.79182776846233
40,40,-0.5694978992866517,-0.6,1,421.0,507.0,1.0,212.0,1,235.42468489299776
41,41,-0.08089785876122235,-0.1,1,371.0,582.0,1.0,1177.0,1,162.13467881418336
42,42,0.06410302156145065,0.1,0,382.0,810.0,1.0,1128.0,0,140.3845467657824
43,43,0.24825260731691645,0.2,0,343.0,598.0,0.0,469.0,1,112.76210890246253
44,44,-0.31606630610829334,-0.3,1,440.0,766.0,1.0,964.0,1,197.409945916244
45,45,-0.3239639592835315,-0.3,1,391.0,678.0,1.0,321.0,1,198.59459389252973
46,46,-0.8480402041045889,-0.8,1,373.0,865.0,1.0,422.0,1,277.20603061568835
47,47,-0.8152143890651053,-0.8,1,456.0,636.0,1.0,248.0,1,272.2821583597658
48,48,-0.2821801071695438,-0.3,1,436.0,642.0,1.0,302.0,1,192.32701607543157
49,49,0.9919138555639189,1.0,0,300.0,776.0,0.0,1014.0,1,1.21292166541217
50,50,0.9023124481483518,0.9,0,415.0,912.0,0.0,203.0,1,14.653132777747235
51,51,-0.6986092571564573,-0.7,1,277.0,666.0,1.0,337.0,1,254.7913885734686
52,52,0.6238946903752891,0.6,0,348.0,707.0,0.0,145.0,1,56.41579644370663
53,53,-0.6100429336043838,-0.6,1,359.0,528.0,1.0,563.0,1,241.50644004065757
54,54,0.7766197320507242,0.8,0,345.0,759.0,0.0,816.0,1,33.50704019239137
55,55,-0.5564017554755387,-0.6,1,404.0,618.0,1.0,1088.0,1,233.4602633213308
56,56,0.18395396051320545,0.2,0,284.0,807.0,0.0,449.0,1,122.40690592301918
57,57,0.3359621655385505,0.3,0,332.0,541.0,0.0,937.0,1,99.60567516921742
58,58,-0.30391947832456956,-0.3,1,375.0,532.0,1.0,123.0,1,195.58792174868543
59,59,0.48451727758394525,0.5,0,356.0,510.0,0.0,2214.0,1,77.32240836240821
60,60,0.6129813476980492,0.6,0,335.0,548.0,0.0,357.0,1,58.052797845292616
61,61,0.6011490477873878,0.6,0,258.0,632.0,0.0,470.0,1,59.827642831891836
62,62,-0.9118138607024275,-0.9,1,407.0,993.0,1.0,200.0,1,286.7720791053641
63,63,0.8302733438240797,0.8,0,454.0,551.0,0.0,195.0,1,25.458998426388046
64,64,0.7121568279539774,0.7,0,380.0,583.0,0.0,317.0,1,43.17647580690339
65,65,-0.061396456688367795,-0.1,1,288.0,669.0,1.0,303.0,1,159.20946850325518
66,66,0.3547728598167994,0.4,0,371.0,803.0,0.0,666.0,1,96.7840710274801
67,67,0.16298012567115716,0.2,0,496.0,502.0,0.0,832.0,1,125.55298114932643
68,68,0.8242244080910728,0.8,0,481.0,784.0,0.0,205.0,1,26.36633878633908
69,69,0.11225419861566355,0.1,0,318.0,720.0,1.0,322.0,0,133.16187020765048
70,70,0.791537835029773,0.8,0,380.0,763.0,0.0,617.0,1,31.269324745534043
71,71,-0.12381008910616398,-0.1,1,438.0,500.0,1.0,392.0,1,168.5715133659246
72,72,-0.05791547281913467,-0.1,1,308.0,653.0,1.0,349.0,1,158.6873209228702
73,73,0.6948933747125088,0.7,0,340.0,529.0,0.0,221.0,1,45.765993793123684
74,74,0.8426823157415073,0.8,0,457.0,600.0,0.0,483.0,1,23.5976526387739
75,75,0.4496941946227415,0.4,0,355.0,551.0,0.0,1274.0,1,82.54587080658877
76,76,-0.9644944461555107,-1.0,1,413.0,555.0,1.0,402.0,1,294.6741669233266
77,77,0.4759123907348808,0.5,0,376.0,684.0,0.0,420.0,1,78.61314138976788
78,78,0.21897755073898462,0.2,0,430.0,673.0,1.0,697.0,0,117.15336738915231
79,79,0.8588091001771254,0.9,0,492.0,540.0,0.0,318.0,1,21.178634973431187
80,80,-0.17512625705340845,-0.2,1,470.0,711.0,1.0,509.0,1,176.26893855801126
81,81,-0.8408027759892818,-0.8,1,303.0,673.0,1.0,204.0,1,276.12041639839225
82,82,-0.5032165405668245,-0.5,1,348.0,820.0,1.0,442.0,1,225.48248108502366
83,83,0.23973373761451078,0.2,0,258.0,750.0,0.0,902.0,1,114.03993935782339
84,84,0.5959629604050922,0.6,0,460.0,576.0,0.0,954.0,1,60.60555593923617
85,85,-0.1255477625751782,-0.1,1,432.0,725.0,1.0,243.0,1,168.83216438627673
86,86,-0.42944015811334824,-0.4,1,472.0,852.0,1.0,246.0,1,214.41602371700225
87,87,0.8614412522310106,0.9,0,442.0,638.0,0.0,2270.0,1,20.783812165348404
88,88,-0.18298949800016917,-0.2,1,345.0,715.0,1.0,500.0,1,177.44842470002538
89,89,-0.9811811995446447,-1.0,1,476.0,732.0,1.0,302.0,1,297.1771799316967
90,90,0.5520660718020836,0.6,0,328.0,968.0,0.0,294.0,1,67.19008922968747
91,91,0.49697670121492776,0.5,0,253.0,663.0,0.0,794.0,1,75.45349481776084
92,92,0.4220214660867032,0.4,0,269.0,697.0,0.0,434.0,1,86.69678008699452
93,93,0.07379510855730231,0.1,0,367.0,848.0,1.0,235.0,0,138.93073371640466
94,94,0.4389896437130465,0.4,0,302.0,931.0,0.0,877.0,1,84.15155344304303
95,95,0.9260203870887125,0.9,0,333.0,518.0,0.0,1579.0,1,11.096941936693128
96,96,0.8047507360956685,0.8,0,388.0,529.0,0.0,1243.0,1,29.287389585649727
97,97,-0.9069003341094402,-0.9,1,381.0,537.0,1.0,392.0,1,286.035050116416
98,98,-0.05495063769240516,-0.1,1,252.0,533.0,0.0,215.0,0,158.24259565386077
99,99,0.43526785032711834,0.4,0,445.0,759.0,0.0,166.0,1,84.70982245093225
100,100,0.44808459207761553,0.4,0,489.0,996.0,0.0,2255.0,1,82.78731118835768
101,101,-0.9949993566274811,-1.0,1,470.0,547.0,1.0,303.0,1,299.2499034941222
102,102,0.7723346307205687,0.8,0,354.0,728.0,0.0,228.0,1,34.14980539191469
103,103,-0.30910575609035185,-0.3,1,325.0,860.0,1.0,275.0,1,196.36586341355277
104,104,-0.46795003065752994,-0.5,1,330.0,588.0,1.0,592.0,1,220.19250459862948
105,105,-0.45590708933022617,-0.5,1,414.0,687.0,1.0,1559.0,1,218.38606339953392
106,106,0.9295093425336356,0.9,0,290.0,657.0,0.0,403.0,1,10.57359861995466
107,107,-0.17352863991387268,-0.2,1,372.0,639.0,1.0,99.0,1,176.0292959870809
108,108,0.9043332665945474,0.9,0,441.0,536.0,0.0,963.0,1,14.350010010817893
109,109,-0.9664445024029431,-1.0,1,362.0,826.0,1.0,452.0,1,294.96667536044146
110,110,-0.22344571568437077,-0.2,1,499.0,686.0,1.0,545.0,1,183.51685735265562
111,111,-0.268810581798248,-0.3,1,414.0,740.0,1.0,206.0,1,190.3215872697372
112,112,0.9756200750192148,1.0,0,375.0,954.0,0.0,181.0,1,3.656988747117784
113,113,-0.5035792010931062,-0.5,1,391.0,630.0,1.0,249.0,1,225.53688016396592
114,114,0.22367826626180554,0.2,0,486.0,756.0,1.0,268.0,0,116.44826006072917
115,115,-0.17870414831402015,-0.2,1,387.0,903.0,1.0,580.0,1,176.80562224710303
116,116,-0.9032121576396859,-0.9,1,440.0,726.0,1.0,144.0,1,285.4818236459529
117,117,0.41590601257381454,0.4,0,287.0,530.0,0.0,383.0,1,87.61409811392782
118,118,0.2819347592222652,0.3,0,271.0,675.0,0.0,504.0,1,107.70978611666023
119,119,0.6070832180535097,0.6,0,462.0,741.0,0.0,1827.0,1,58.93751729197354
120,120,0.8313718316180385,0.8,0,339.0,864.0,0.0,157.0,1,25.294225257294222
121,121,0.8807781038363316,0.9,0,327.0,652.0,0.0,111.0,1,17.88328442455026
122,122,-0.23036756843197326,-0.2,1,457.0,972.0,1.0,331.0,1,184.55513526479598
123,123,0.7176720814348989,0.7,0,474.0,684.0,1.0,282.0,0,42.349187784765164
124,124,0.35735719413770095,0.4,0,446.0,943.0,0.0,281.0,1,96.39642087934486
125,125,-0.24824861097702344,-0.2,1,296.0,988.0,1.0,1666.0,1,187.23729164655353
126,126,-0.2954201555176976,-0.3,1,307.0,962.0,1.0,271.0,1,194.31302332765463
127,127,-0.277467053237328,-0.3,1,339.0,767.0,1.0,1334.0,1,191.6200579855992
128,128,0.7498713643611574,0.7,0,473.0,576.0,0.0,371.0,1,37.519295345826386
129,129,-0.8150380713880605,-0.8,1,447.0,574.0,1.0,259.0,1,272.25571070820905
130,130,0.82159500222755,0.8,0,325.0,879.0,0.0,256.0,1,26.7607496658675
131,131,0.5944119452172509,0.6,0,414.0,793.0,0.0,2613.0,1,60.83820821741236
132,132,0.653087726147437,0.7,0,457.0,612.0,0.0,251.0,1,52.036841077884446
133,133,0.4372717399123025,0.4,0,312.0,778.0,0.0,940.0,1,84.40923901315462
134,134,-0.31921450488891545,-0.3,1,363.0,642.0,1.0,165.0,1,197.8821757333373
135,135,-0.8805306323850395,-0.9,1,431.0,736.0,1.0,133.0,1,282.0795948577559
136,136,0.2822320116139765,0.3,0,392.0,896.0,1.0,1242.0,0,107.66519825790353
137,137,-0.9364228721287313,-0.9,1,298.0,561.0,1.0,221.0,1,290.4634308193097
138,138,-0.36652255269193446,-0.4,1,353.0,668.0,1.0,89.0,1,204.97838290379016
139,139,-0.7081190899104204,-0.7,1,274.0,846.0,1.0,490.0,1,256.21786348656303
140,140,0.03248808382710844,0.0,0,461.0,540.0,0.0,259.0,1,145.12678742593374
141,141,0.8215407196791733,0.8,0,356.0,571.0,0.0,333.0,1,26.768892048124005
142,142,-0.046418895122277926,-0.0,1,473.0,917.0,0.0,190.0,0,156.96283426834168
143,143,-0.0906207688896723,-0.1,1,379.0,997.0,1.0,454.0,1,163.59311533345084
144,144,-0.4334581296203839,-0.4,1,337.0,807.0,1.0,176.0,1,215.0187194430576
145,145,-0.7449142892210672,-0.7,1,388.0,582.0,1.0,440.0,1,261.73714338316006
146,146,0.9730624385685989,1.0,0,477.0,789.0,0.0,614.0,1,4.04063421471017
147,147,0.2697755261427537,0.3,0,333.0,731.0,0.0,256.0,1,109.53367107858695
148,148,-0.28157206277496405,-0.3,1,273.0,701.0,1.0,426.0,1,192.23580941624462
149,149,0.18840504713755535,0.2,0,368.0,838.0,1.0,264.0,0,121.7392429293667
150,150,-0.7005180346059696,-0.7,1,275.0,999.0,1.0,406.0,1,255.07770519089544
151,151,0.25771105512761583,0.3,0,282.0,701.0,1.0,357.0,0,111.34334173085763
152,152,0.9344807583293222,0.9,0,257.0,628.0,0.0,405.0,1,9.827886250601669
153,153,0.5672359423631801,0.6,0,371.0,558.0,1.0,171.0,0,64.91460864552299
154,154,0.6330982946545249,0.6,0,267.0,588.0,0.0,455.0,1,55.03525580182126
155,155,-0.4031935543780003,-0.4,1,306.0,941.0,1.0,753.0,1,210.47903315670004
156,156,-0.7781841101163189,-0.8,1,353.0,891.0,1.0,276.0,1,266.7276165174478
157,157,-0.1868012723589303,-0.2,1,272.0,533.0,1.0,265.0,1,178.02019085383955
158,158,0.9952658593548489,1.0,0,322.0,774.0,0.0,314.0,1,0.7101210967726646
159,159,0.7622249758515469,0.8,0,316.0,711.0,0.0,293.0,1,35.66625362226796
160,160,-0.2217963891986816,-0.2,1,308.0,542.0,1.0,200.0,1,183.26945837980224
161,161,-0.4236508847373919,-0.4,1,253.0,921.0,1.0,496.0,1,213.54763271060878
162,162,0.6654561255342322,0.7,0,252.0,959.0,0.0,619.0,1,50.181581169865176
163,163,0.666114870334219,0.7,0,363.0,791.0,0.0,566.0,1,50.08276944986715
164,164,-0.02090091234169633,-0.0,1,419.0,683.0,0.0,678.0,0,153.13513685125446
165,165,-0.9547641097128878,-1.0,1,344.0,845.0,1.0,271.0,1,293.2146164569332
166,166,-0.35830064552701324,-0.4,1,274.0,793.0,1.0,423.0,1,203.745096829052
167,167,-0.7442055280232909,-0.7,1,373.0,711.0,1.0,786.0,1,261.63082920349365
168,168,0.530453548440408,0.5,0,423.0,841.0,0.0,726.0,1,70.43196773393879
169,169,0.24035626406241106,0.2,0,290.0,928.0,1.0,252.0,0,113.94656039063834
170,170,0.9395303481393096,0.9,0,339.0,711.0,0.0,300.0,1,9.070447779103564
171,171,-0.4348658114046722,-0.4,1,271.0,551.0,1.0,128.0,1,215.22987171070082
172,172,0.8804667105355413,0.9,0,388.0,692.0,0.0,320.0,1,17.92999341966881
173,173,0.817040758928417,0.8,0,252.0,665.0,0.0,233.0,1,27.443886160737453
174,174,0.2581597469319017,0.3,0,410.0,824.0,1.0,796.0,0,111.27603796021475
175,175,-0.2321981742410395,-0.2,1,412.0,945.0,1.0,323.0,1,184.82972613615593
176,176,0.6761999100261769,0.7,0,252.0,617.0,1.0,371.0,0,48.57001349607347
177,177,-0.08246540315965034,-0.1,1,448.0,867.0,1.0,385.0,1,162.36981047394755
178,178,-0.7051195820315068,-0.7,1,346.0,966.0,1.0,308.0,1,255.76793730472602
179,179,-0.21990868971954836,-0.2,1,428.0,507.0,1.0,685.0,1,182.98630345793225
180,180,0.8599689672582391,0.9,0,354.0,666.0,0.0,280.0,1,21.004654911264133
181,181,0.9563166363811639,1.0,0,282.0,585.0,0.0,333.0,1,6.55250454282541
182,182,0.726879578951309,0.7,0,454.0,580.0,0.0,1596.0,1,40.96806315730366
183,183,-0.08823565770920627,-0.1,1,265.0,514.0,1.0,1021.0,1,163.23534865638095
184,184,0.9741827634246119,1.0,0,298.0,544.0,0.0,128.0,1,3.872585486308222
185,185,-0.9940943624414236,-1.0,1,333.0,573.0,1.0,154.0,1,299.11415436621354
186,186,0.6113988512806023,0.6,0,257.0,644.0,0.0,559.0,1,58.29017230790965
187,187,0.30636479132248384,0.3,0,415.0,579.0,0.0,186.0,1,104.04528130162743
188,188,-0.09581454255601707,-0.1,1,315.0,839.0,0.0,1886.0,0,164.37218138340256
189,189,-0.703453824390595,-0.7,1,462.0,927.0,1.0,401.0,1,255.51807365858926
190,190,0.2187585995882193,0.2,0,263.0,981.0,0.0,2526.0,1,117.1862100617671
191,191,-0.8771219168346716,-0.9,1,275.0,883.0,1.0,162.0,1,281.56828752520073
192,192,0.19431481860307187,0.2,0,298.0,791.0,0.0,1331.0,1,120.85277720953923
193,193,0.49127537472207483,0.5,0,352.0,910.0,1.0,508.0,0,76.30869379168878
194,194,-0.2777608935196907,-0.3,1,281.0,579.0,1.0,620.0,1,191.6641340279536
195,195,0.7152598760112967,0.7,0,491.0,802.0,0.0,667.0,1,42.71101859830549
196,196,-0.6805665257269398,-0.7,1,305.0,553.0,1.0,182.0,1,252.08497885904097
197,197,0.7260015887285176,0.7,0,373.0,881.0,0.0,366.0,1,41.09976169072236
198,198,0.7994676792042525,0.8,0,429.0,798.0,0.0,493.0,1,30.07984811936212
199,199,0.9042706966827443,0.9,0,359.0,506.0,0.0,385.0,1,14.359395497588356
200,200,-0.13053511850364696,-0.1,1,430.0,958.0,1.0,392.0,1,169.58026777554704
201,201,0.960048242536558,1.0,0,395.0,926.0,0.0,309.0,1,5.992763619516306
202,202,0.12007435835089941,0.1,0,288.0,844.0,0.0,578.0,1,131.98884624736507
203,203,-0.48447619057232916,-0.5,1,338.0,612.0,1.0,210.0,1,222.67142858584938
204,204,0.06720492097669717,0.1,0,402.0,599.0,0.0,359.0,1,139.9192618534954
205,205,-0.9849771013247224,-1.0,1,311.0,801.0,1.0,738.0,1,297.74656519870837
206,206,-0.33567860273220496,-0.3,1,479.0,534.0,1.0,237.0,1,200.35179040983076
207,207,0.45508391138332005,0.5,0,295.0,679.0,1.0,586.0,0,81.737413292502
208,208,-0.959096923608582,-1.0,1,426.0,848.0,1.0,766.0,1,293.8645385412873
209,209,0.22309604000599492,0.2,0,382.0,779.0,1.0,409.0,0,116.53559399910077
210,210,0.7742340440735729,0.8,0,413.0,762.0,0.0,205.0,1,33.86489338896407
211,211,-0.3208759635749481,-0.3,1,406.0,943.0,1.0,1131.0,1,198.1313945362422
212,212,-0.1137632298583755,-0.1,1,254.0,668.0,1.0,648.0,1,167.06448447875633
213,213,0.593472818517143,0.6,0,478.0,531.0,0.0,801.0,1,60.97907722242856
214,214,-0.4317355727716472,-0.4,1,390.0,869.0,1.0,481.0,1,214.76033591574708
215,215,-0.8035948812386047,-0.8,1,339.0,620.0,1.0,131.0,1,270.5392321857907
216,216,-0.18132857207879383,-0.2,1,488.0,742.0,1.0,580.0,1,177.19928581181907
217,217,0.46018591961812394,0.5,0,393.0,881.0,1.0,2066.0,0,80.97211205728141
218,218,-0.3410921961264268,-0.3,1,370.0,762.0,1.0,368.0,1,201.163829418964
219,219,0.4703970483708333,0.5,0,488.0,580.0,0.0,342.0,1,79.440442744375
220,220,-0.1210452141037055,-0.1,1,400.0,835.0,1.0,295.0,1,168.1567821155558
221,221,0.6217188239084521,0.6,0,302.0,932.0,0.0,266.0,1,56.74217641373218
222,222,0.793115603543751,0.8,0,412.0,835.0,0.0,703.0,1,31.032659468437352
223,223,-0.7877008239309278,-0.8,1,480.0,903.0,1.0,297.0,1,268.1551235896392
224,224,-0.06070920396842139,-0.1,1,428.0,602.0,1.0,920.0,1,159.1063805952632
225,225,-0.5952174835027111,-0.6,1,420.0,767.0,1.0,153.0,1,239.28262252540665
226,226,-0.9139590686877268,-0.9,1,415.0,969.0,1.0,116.0,1,287.09386030315903
227,227,0.913303441608206,0.9,0,493.0,626.0,0.0,611.0,1,13.004483758769103
228,228,-0.08402679630099397,-0.1,1,383.0,678.0,1.0,479.0,1,162.6040194451491
229,229,0.5359637381695188,0.5,0,426.0,511.0,1.0,523.0,0,69.60543927457218
230,230,0.31007985317873854,0.3,0,313.0,983.0,1.0,414.0,0,103.48802202318922
231,231,-0.021316148638017562,-0.0,1,384.0,514.0,1.0,1442.0,1,153.19742229570264
232,232,-0.004881141495896024,-0.0,1,446.0,890.0,1.0,134.0,1,150.73217122438442
233,233,0.7081422903098686,0.7,0,263.0,923.0,0.0,234.0,1,43.7786564535197
234,234,0.7755016028592367,0.8,0,493.0,908.0,0.0,799.0,1,33.674759571114485
235,235,0.3085697674457921,0.3,0,279.0,875.0,0.0,1566.0,1,103.71453488313118
236,236,0.006463145349416388,0.0,0,366.0,656.0,1.0,188.0,0,149.03052819758753
237,237,0.2595363580403047,0.3,0,306.0,890.0,0.0,1484.0,1,111.06954629395429
238,238,0.378762347129562,0.4,0,462.0,544.0,0.0,1044.0,1,93.1856479305657
239,239,-0.1797863171998868,-0.2,1,364.0,551.0,1.0,225.0,1,176.96794757998302
240,240,-0.2376032024840007,-0.2,1,491.0,942.0,1.0,617.0,1,185.6404803726001
241,241,0.6862676103229524,0.7,0,367.0,791.0,0.0,202.0,1,47.05985845155715
242,242,-0.6607254630355273,-0.7,1,412.0,789.0,1.0,1149.0,1,249.1088194553291
243,243,-0.6814747957804226,-0.7,1,354.0,759.0,1.0,107.0,1,252.22121936706338
244,244,-0.140830588200606,-0.1,1,284.0,577.0,0.0,929.0,0,171.1245882300909
245,245,0.36353329890436714,0.4,0,376.0,850.0,0.0,1044.0,1,95.47000516434493
246,246,0.7898542596897513,0.8,0,481.0,637.0,0.0,542.0,1,31.521861046537303
247,247,0.8471509574070717,0.8,0,270.0,719.0,0.0,1661.0,1,22.927356388939245
248,248,-0.7790675436066845,-0.8,1,464.0,784.0,1.0,172.0,1,266.86013154100266
249,249,0.38224033985688033,0.4,0,329.0,633.0,0.0,758.0,1,92.66394902146796
250,250,-0.9571566732988865,-1.0,1,450.0,944.0,1.0,156.0,1,293.57350099483295
251,251,0.3937605602409291,0.4,0,346.0,754.0,0.0,380.0,1,90.93591596386064
252,252,-0.14651700875151397,-0.1,1,341.0,573.0,0.0,296.0,0,171.9775513127271
253,253,-0.9828829155751955,-1.0,1,410.0,512.0,1.0,278.0,1,297.4324373362793
254,254,0.30360281578860904,0.3,0,271.0,588.0,0.0,1481.0,1,104.45957763170864
255,255,0.43428974762339667,0.4,0,270.0,733.0,1.0,617.0,0,84.8565378564905
256,256,0.5107065076983226,0.5,0,423.0,967.0,1.0,230.0,0,73.39402384525161
257,257,0.4984489031616559,0.5,0,457.0,845.0,0.0,398.0,1,75.23266452575162
258,258,-0.2741191034849335,-0.3,1,385.0,796.0,1.0,1439.0,1,191.11786552274003
259,259,0.28537942202157196,0.3,0,405.0,983.0,0.0,3612.0,1,107.19308669676421
260,260,0.6063110966741763,0.6,0,430.0,560.0,0.0,470.0,1,59.05333549887356
261,261,0.12765891669941665,0.1,0,435.0,606.0,0.0,1539.0,1,130.8511624950875
262,262,0.7705496789223947,0.8,0,369.0,762.0,0.0,539.0,1,34.417548161640795
263,263,0.8584598030700119,0.9,0,342.0,857.0,0.0,211.0,1,21.231029539498213
264,264,-0.6641845353268891,-0.7,1,328.0,514.0,1.0,358.0,1,249.6276802990334
265,265,0.9035025897782305,0.9,0,365.0,692.0,0.0,893.0,1,14.474611533265424
266,266,-0.986028257945226,-1.0,1,394.0,532.0,1.0,424.0,1,297.9042386917839
267,267,-0.09177393146409396,-0.1,1,477.0,546.0,1.0,507.0,1,163.7660897196141
268,268,-0.36796497860896404,-0.4,1,272.0,804.0,1.0,444.0,1,205.1947467913446
269,269,0.23356298943137443,0.2,0,369.0,939.0,0.0,522.0,1,114.96555158529384
270,270,0.41382918263244806,0.4,0,493.0,688.0,0.0,1529.0,1,87.92562260513279
271,271,-0.6812850734764249,-0.7,1,365.0,594.0,1.0,191.0,1,252.19276102146372
272,272,-0.7216971796736666,-0.7,1,475.0,699.0,1.0,126.0,1,258.25457695105
273,273,-0.08354745475077352,-0.1,1,321.0,534.0,0.0,2285.0,0,162.53211821261604
274,274,-0.9111914068675953,-0.9,1,488.0,960.0,1.0,342.0,1,286.6787110301393
275,275,-0.7937900277677987,-0.8,1,499.0,604.0,1.0,187.0,1,269.0685041651698
276,276,-0.872530278956559,-0.9,1,480.0,857.0,1.0,333.0,1,280.8795418434838
277,277,0.03638317339589414,0.0,0,286.0,592.0,0.0,392.0,1,144.54252399061588
278,278,-0.7186072993491983,-0.7,1,349.0,673.0,1.0,98.0,1,257.79109490237977
279,279,0.5511859759798783,0.6,0,385.0,745.0,0.0,810.0,1,67.32210360301826
280,280,-0.8619559498697107,-0.9,1,378.0,534.0,1.0,268.0,1,279.2933924804566
281,281,0.9958633814492508,1.0,0,487.0,940.0,0.0,183.0,1,0.6204927826123807
282,282,-0.018975146837812318,-0.0,1,310.0,807.0,1.0,443.0,1,152.84627202567185
283,283,0.7810808896674557,0.8,0,370.0,803.0,0.0,237.0,1,32.837866549881646
284,284,-0.0450327240484063,-0.0,1,385.0,979.0,1.0,436.0,1,156.75490860726094
285,285,-0.3033751416240493,-0.3,1,464.0,597.0,1.0,289.0,1,195.5062712436074
286,286,-0.7305329633737196,-0.7,1,375.0,793.0,1.0,452.0,1,259.5799445060579
287,287,0.7585147465633792,0.8,0,456.0,865.0,0.0,529.0,1,36.222788015493116
288,288,0.20637397492964538,0.2,0,257.0,988.0,1.0,225.0,0,119.04390376055319
289,289,0.4285466944384819,0.4,0,401.0,733.0,0.0,2776.0,1,85.71799583422771
290,290,0.4518596720581092,0.5,0,279.0,934.0,0.0,747.0,1,82.22104919128363
291,291,-0.34093621352667514,-0.3,1,483.0,991.0,1.0,296.0,1,201.14043202900126
292,292,0.0736337948834842,0.1,0,318.0,679.0,1.0,1063.0,0,138.95493076747738
293,293,-0.30820585467913597,-0.3,1,447.0,968.0,0.0,145.0,0,196.23087820187038
294,294,-0.7840378871694589,-0.8,1,311.0,939.0,1.0,420.0,1,267.6056830754188
295,295,0.4961029074609218,0.5,0,341.0,629.0,0.0,430.0,1,75.58456388086174
296,296,-0.323387038167849,-0.3,1,390.0,880.0,1.0,340.0,1,198.50805572517734
297,297,-0.46924971690756245,-0.5,1,273.0,574.0,1.0,793.0,1,220.38745753613438
298,298,0.29800024433350436,0.3,0,437.0,838.0,0.0,185.0,1,105.29996334997435
299,299,0.09159994774194846,0.1,0,260.0,501.0,0.0,599.0,1,136.26000783870774
300,300,-0.20916981555590675,-0.2,1,440.0,973.0,1.0,617.0,1,181.375472333386
301,301,-0.21927329554953978,-0.2,1,369.0,983.0,1.0,558.0,1,182.89099433243098
302,302,0.9960955813651016,1.0,0,327.0,728.0,0.0,185.0,1,0.5856627952347648
303,303,-0.3834051710354103,-0.4,1,492.0,726.0,1.0,432.0,1,207.51077565531153
304,304,0.07276743144392706,0.1,0,397.0,508.0,1.0,1235.0,0,139.08488528341096
305,305,-0.7399071927180114,-0.7,1,451.0,512.0,1.0,267.0,1,260.9860789077017
306,306,0.4064250249843513,0.4,0,316.0,521.0,0.0,323.0,1,89.03624625234731
307,307,-0.48691008516059253,-0.5,1,280.0,930.0,1.0,280.0,1,223.0365127740889
308,308,0.08452717661740095,0.1,0,467.0,915.0,1.0,328.0,0,137.32092350738986
309,309,0.48225135943955766,0.5,0,250.0,630.0,0.0,660.0,1,77.66229608406636
310,310,-0.5116903365119441,-0.5,1,362.0,940.0,1.0,238.0,1,226.75355047679162
311,311,-0.6669098720601372,-0.7,1,415.0,680.0,1.0,95.0,1,250.0364808090206
312,312,0.7437468320492779,0.7,0,302.0,533.0,0.0,125.0,1,38.437975192608306
313,313,0.37660533329113566,0.4,0,309.0,987.0,0.0,1274.0,1,93.50920000632965
314,314,0.3631260418140645,0.4,0,463.0,900.0,0.0,227.0,1,95.53109372789032
315,315,0.05737783852443901,0.1,0,443.0,661.0,0.0,1346.0,1,141.39332422133415
316,316,0.9244059352699359,0.9,0,290.0,855.0,1.0,405.0,0,11.339109709509621
317,317,-0.49558802864026985,-0.5,1,468.0,975.0,1.0,117.0,1,224.3382042960405
318,318,-0.371508646857706,-0.4,1,408.0,653.0,1.0,499.0,1,205.7262970286559
319,319,-0.44726102095269016,-0.4,1,253.0,551.0,1.0,336.0,1,217.0891531429035
320,320,0.940459533797835,0.9,0,311.0,920.0,0.0,369.0,1,8.931069930324753
321,321,0.28275380512056647,0.3,0,448.0,667.0,0.0,1115.0,1,107.58692923191504
322,322,-0.990791929067937,-1.0,1,269.0,881.0,1.0,260.0,1,298.61878936019053
323,323,0.25369281290940227,0.3,0,408.0,838.0,1.0,584.0,0,111.94607806358967
324,324,-0.542256029007657,-0.5,1,285.0,679.0,1.0,196.0,1,231.33840435114854
325,325,-0.6476624147539598,-0.6,1,368.0,608.0,1.0,824.0,1,247.14936221309398
326,326,-0.6316694320928642,-0.6,1,379.0,976.0,1.0,215.0,1,244.75041481392964
327,327,0.4072727683488486,0.4,0,294.0,919.0,0.0,637.0,1,88.90908474767271
328,328,0.41437633705869903,0.4,0,250.0,571.0,1.0,359.0,0,87.84354944119515
329,329,0.7536977192695744,0.8,0,480.0,890.0,0.0,390.0,1,36.94534210956384
330,330,-0.0642120930301644,-0.1,1,427.0,639.0,1.0,244.0,1,159.63181395452466
331,331,-0.3140424576757843,-0.3,1,431.0,646.0,1.0,303.0,1,197.10636865136766
332,332,-0.21556343784241783,-0.2,1,267.0,718.0,1.0,865.0,1,182.33451567636268
333,333,-0.31122900238806994,-0.3,1,262.0,916.0,1.0,1502.0,1,196.68435035821048
334,334,-0.14589390952919246,-0.1,1,469.0,555.0,1.0,2816.0,1,171.88408642937887
335,335,-0.62711756740425,-0.6,1,347.0,598.0,1.0,285.0,1,244.0676351106375
336,336,-0.7601034995602327,-0.8,1,445.0,636.0,1.0,359.0,1,264.0155249340349
337,337,-0.3040645650982088,-0.3,1,310.0,631.0,1.0,129.0,1,195.60968476473133
338,338,0.4148569653074696,0.4,0,417.0,605.0,0.0,1428.0,1,87.77145520387955
339,339,-0.5450630777331413,-0.5,1,394.0,933.0,1.0,223.0,1,231.7594616599712
340,340,-0.07247228155268193,-0.1,1,322.0,837.0,1.0,161.0,1,160.87084223290228
341,341,0.057893391536107286,0.1,0,422.0,797.0,1.0,1261.0,0,141.31599126958392
342,342,-0.9875362942858164,-1.0,1,348.0,842.0,1.0,110.0,1,298.1304441428725
343,343,0.5707322042075553,0.6,0,468.0,634.0,0.0,988.0,1,64.39016936886671
344,344,0.2581480961781184,0.3,0,324.0,826.0,1.0,280.0,0,111.27778557328224
345,345,-0.11779268776241003,-0.1,1,300.0,719.0,1.0,461.0,1,167.6689031643615
346,346,-0.3173886639233947,-0.3,1,364.0,860.0,1.0,726.0,1,197.6082995885092
347,347,-0.5122705054009007,-0.5,1,300.0,787.0,1.0,453.0,1,226.8405758101351
348,348,-0.2907643829390716,-0.3,1,367.0,666.0,1.0,107.0,1,193.61465744086073
349,349,0.7605634650086883,0.8,0,428.0,677.0,0.0,825.0,1,35.91548024869675
350,350,-0.1827814788533264,-0.2,1,401.0,685.0,1.0,214.0,1,177.41722182799896
351,351,0.4918363270608139,0.5,0,252.0,944.0,0.0,864.0,1,76.2245509408779
352,352,0.502196346666848,0.5,0,428.0,946.0,0.0,186.0,1,74.6705479999728
353,353,0.44048636600498914,0.4,0,421.0,969.0,0.0,230.0,1,83.92704509925163
354,354,-0.06985759385120405,-0.1,1,316.0,864.0,0.0,1060.0,0,160.4786390776806
355,355,-0.4466668380901351,-0.4,1,333.0,678.0,1.0,1059.0,1,217.00002571352027
356,356,-0.939019098274317,-0.9,1,328.0,528.0,1.0,224.0,1,290.8528647411475
357,357,0.6709166694894433,0.7,0,451.0,890.0,0.0,289.0,1,49.36249957658351
358,358,-0.8049393417439628,-0.8,1,452.0,986.0,1.0,832.0,1,270.7409012615944
359,359,0.27728028987220954,0.3,0,307.0,645.0,0.0,598.0,1,108.40795651916856
360,360,0.1388375967980846,0.1,0,499.0,550.0,1.0,1331.0,0,129.1743604802873
361,361,-0.23593567891963052,-0.2,1,360.0,650.0,1.0,1430.0,1,185.39035183794456
362,362,-0.8335932301793276,-0.8,1,358.0,697.0,1.0,395.0,1,275.0389845268991
363,363,0.37513753561006813,0.4,0,352.0,770.0,0.0,728.0,1,93.72936965848979
364,364,-0.014729201881954923,-0.0,1,266.0,893.0,0.0,481.0,0,152.20938028229324
365,365,0.558458623561134,0.6,0,378.0,827.0,0.0,1405.0,1,66.2312064658299
366,366,-0.2581713433068842,-0.3,1,269.0,855.0,1.0,456.0,1,188.72570149603263
367,367,-0.06480562386914168,-0.1,1,382.0,755.0,1.0,853.0,1,159.72084358037125
368,368,-0.48755570663136116,-0.5,1,300.0,845.0,1.0,495.0,1,223.13335599470417
369,369,-0.008921422548865854,-0.0,1,285.0,690.0,0.0,1355.0,0,151.33821338232988
370,370,-0.3283450362551441,-0.3,1,487.0,948.0,1.0,295.0,1,199.25175543827163
371,371,0.8602580610850907,0.9,0,379.0,936.0,0.0,345.0,1,20.96129083723639
372,372,-0.4628200328673129,-0.5,1,296.0,589.0,1.0,285.0,1,219.42300493009694
373,373,-0.1718483515467233,-0.2,1,267.0,719.0,0.0,224.0,0,175.7772527320085
374,374,-0.7425732214567706,-0.7,1,436.0,769.0,1.0,125.0,1,261.3859832185156
375,375,-0.11008432365254173,-0.1,1,351.0,775.0,1.0,634.0,1,166.51264854788127
376,376,-0.5287954919799813,-0.5,1,263.0,754.0,1.0,243.0,1,229.3193237969972
377,377,0.75950167267214,0.8,0,331.0,743.0,0.0,1546.0,1,36.074749099179
378,378,0.6005019510382952,0.6,0,264.0,643.0,0.0,343.0,1,59.92470734425572
379,379,0.9999566899919006,1.0,0,359.0,928.0,0.0,733.0,1,0.0064965012149142964
380,380,0.10152566074797909,0.1,0,396.0,837.0,1.0,677.0,0,134.77115088780315
381,381,0.6087665994417699,0.6,0,401.0,799.0,1.0,210.0,0,58.68501008373451
382,382,-0.8846837061754966,-0.9,1,481.0,994.0,1.0,115.0,1,282.7025559263245
383,383,0.3188588465467874,0.3,0,489.0,830.0,1.0,191.0,0,102.17117301798189
384,384,0.04389402582606272,0.0,0,498.0,937.0,1.0,505.0,0,143.4158961260906
385,385,-0.7933028496811019,-0.8,1,400.0,576.0,1.0,184.0,1,268.9954274521653
386,386,0.2713495358725382,0.3,0,495.0,683.0,0.0,572.0,1,109.29756961911927
387,387,0.8356890698463448,0.8,0,268.0,825.0,0.0,437.0,1,24.646639523048275
388,388,-0.6556572315474916,-0.7,1,468.0,515.0,1.0,277.0,1,248.34858473212373
389,389,-0.3800934206951041,-0.4,1,323.0,551.0,1.0,256.0,1,207.01401310426562
390,390,0.917731552793146,0.9,0,414.0,570.0,0.0,566.0,1,12.3402670810281
391,391,0.9322153194864828,0.9,0,368.0,640.0,0.0,272.0,1,10.167702077027574
392,392,-0.48849913994272853,-0.5,1,429.0,988.0,1.0,253.0,1,223.27487099140927
393,393,-0.382002882692154,-0.4,1,308.0,628.0,1.0,334.0,1,207.3004324038231
394,394,-0.05591412234288473,-0.1,1,462.0,860.0,1.0,208.0,1,158.38711835143272
395,395,0.1907502271386392,0.2,0,426.0,649.0,1.0,985.0,0,121.38746592920413
396,396,-0.1042399545948629,-0.1,1,263.0,762.0,0.0,435.0,0,165.63599318922942
397,397,0.8193553673763174,0.8,0,462.0,829.0,0.0,799.0,1,27.096694893552385
398,398,0.41265635838569237,0.4,0,413.0,544.0,0.0,593.0,1,88.10154624214614
399,399,0.376248887777479,0.4,0,319.0,790.0,0.0,621.0,1,93.56266683337815
400,400,0.6143870768877879,0.6,0,296.0,665.0,0.0,489.0,1,57.84193846683181
401,401,0.41489940199404884,0.4,0,283.0,679.0,1.0,388.0,0,87.76508970089267
402,402,0.8566594032436723,0.9,0,305.0,975.0,0.0,300.0,1,21.501089513449156
403,403,-0.4759472867860144,-0.5,1,493.0,504.0,0.0,773.0,0,221.39209301790217
404,404,0.167431625143158,0.2,0,285.0,899.0,0.0,976.0,1,124.8852562285263
405,405,0.4344984378798731,0.4,0,255.0,906.0,0.0,259.0,1,84.82523431801904
406,406,-0.18646956926307934,-0.2,1,417.0,967.0,1.0,206.0,1,177.9704353894619
407,407,-0.13195984605917155,-0.1,1,328.0,622.0,1.0,200.0,1,169.79397690887572
408,408,-0.9441320953895793,-0.9,1,292.0,551.0,1.0,257.0,1,291.6198143084369
409,409,-0.13543597597712131,-0.1,1,394.0,698.0,1.0,748.0,1,170.3153963965682
410,410,-0.7046592047703646,-0.7,1,469.0,774.0,1.0,947.0,1,255.69888071555468
411,411,-0.9961798472606997,-1.0,1,468.0,602.0,1.0,210.0,1,299.426977089105
412,412,-0.1644584940896625,-0.2,1,293.0,639.0,1.0,528.0,1,174.6687741134494
413,413,0.4794322833018547,0.5,0,329.0,963.0,0.0,338.0,1,78.08515750472179
414,414,0.00792429583207599,0.0,0,293.0,521.0,1.0,646.0,0,148.8113556251886
415,415,0.8803912349920746,0.9,0,480.0,957.0,0.0,183.0,1,17.94131475118881
416,416,0.6771065770973432,0.7,0,456.0,760.0,0.0,274.0,1,48.43401343539851
417,417,-0.9895059492270928,-1.0,1,261.0,726.0,1.0,213.0,1,298.4258923840639
418,418,0.54793935877595,0.5,0,351.0,759.0,0.0,1980.0,1,67.8090961836075
419,419,-0.2110585971044321,-0.2,1,301.0,860.0,0.0,1199.0,0,181.65878956566482
420,420,-0.6188624306431152,-0.6,1,386.0,962.0,1.0,572.0,1,242.8293645964673
421,421,-0.27288432799535123,-0.3,1,319.0,667.0,1.0,304.0,1,190.9326491993027
422,422,0.3449449875996804,0.3,0,297.0,502.0,1.0,371.0,0,98.25825186004793
423,423,0.2739058448212084,0.3,0,419.0,795.0,0.0,356.0,1,108.91412327681874
424,424,0.8725199043063354,0.9,0,302.0,909.0,0.0,1389.0,1,19.12201435404969
425,425,0.32871320057357245,0.3,0,493.0,806.0,1.0,371.0,0,100.69301991396414
426,426,-0.010039569086009337,-0.0,1,482.0,563.0,1.0,155.0,1,151.5059353629014
427,427,0.8605879398579479,0.9,0,340.0,522.0,0.0,448.0,1,20.911809021307814
428,428,0.8107478131599082,0.8,0,270.0,562.0,0.0,408.0,1,28.38782802601377
429,429,-0.6521199542637923,-0.7,1,440.0,572.0,1.0,218.0,1,247.81799313956884
430,430,0.7515869858844333,0.8,0,472.0,598.0,0.0,410.0,1,37.26195211733501
431,431,-0.15438507747532926,-0.2,1,402.0,829.0,1.0,189.0,1,173.1577616212994
432,432,-0.45289456531545413,-0.5,1,413.0,600.0,1.0,237.0,1,217.93418479731812
433,433,-0.8222831187419899,-0.8,1,396.0,788.0,1.0,476.0,1,273.3424678112985
434,434,0.5698630737372983,0.6,0,325.0,593.0,1.0,82.0,0,64.52053893940526
435,435,-0.3364134108051766,-0.3,1,396.0,649.0,1.0,225.0,1,200.46201162077648
436,436,0.9100331866081273,0.9,0,416.0,953.0,0.0,121.0,1,13.49502200878091
437,437,-0.48546227649233376,-0.5,1,354.0,593.0,1.0,203.0,1,222.81934147385007
438,438,0.6231523521075055,0.6,0,493.0,682.0,0.0,1315.0,1,56.52714718387417
439,439,0.4243914324066318,0.4,0,419.0,630.0,0.0,541.0,1,86.34128513900524
440,440,0.3712979575871249,0.4,0,274.0,571.0,0.0,375.0,1,94.30530636193126
441,441,-0.8100721151783417,-0.8,1,322.0,588.0,1.0,700.0,1,271.51081727675125
442,442,0.38145779662481005,0.4,0,472.0,710.0,0.0,768.0,1,92.7813305062785
443,443,-0.6105794788245527,-0.6,1,454.0,510.0,1.0,366.0,1,241.5869218236829
444,444,-0.4050274856744498,-0.4,1,275.0,531.0,1.0,274.0,1,210.75412285116747
445,445,-0.42089958540649786,-0.4,1,327.0,789.0,1.0,264.0,1,213.1349378109747
446,446,0.10502200724338295,0.1,0,285.0,529.0,0.0,646.0,1,134.24669891349257
447,447,-0.8037235157553198,-0.8,1,295.0,601.0,1.0,84.0,1,270.55852736329797
448,448,0.5999164110185111,0.6,0,255.0,975.0,1.0,140.0,0,60.012538347223334
449,449,-0.9371556272634813,-0.9,1,446.0,992.0,1.0,172.0,1,290.5733440895222
450,450,0.9704700141720872,1.0,0,284.0,568.0,0.0,318.0,1,4.429497874186916
451,451,0.252001091988731,0.3,0,286.0,558.0,0.0,1106.0,1,112.19983620169035
452,452,0.04501663286443258,0.0,0,359.0,614.0,0.0,317.0,1,143.2475050703351
453,453,0.2643449206217261,0.3,0,447.0,717.0,0.0,726.0,1,110.34826190674109
454,454,-0.581806395875111,-0.6,1,396.0,716.0,1.0,108.0,1,237.27095938126664
455,455,0.062456237939015447,0.1,0,284.0,725.0,0.0,971.0,1,140.63156430914768
456,456,0.7264203159533329,0.7,0,316.0,583.0,0.0,1081.0,1,41.03695260700007
457,457,0.38554234353812644,0.4,0,292.0,991.0,0.0,1337.0,1,92.16864846928104
458,458,0.052498520367443735,0.1,0,307.0,950.0,1.0,363.0,0,142.12522194488344
459,459,0.921487226607083,0.9,0,334.0,978.0,0.0,678.0,1,11.776916008937544
460,460,0.8521012885944634,0.9,0,433.0,683.0,0.0,284.0,1,22.184806710830486
461,461,0.4300032857579539,0.4,0,464.0,757.0,0.0,349.0,1,85.49950713630692
462,462,0.7477649021280444,0.7,0,474.0,707.0,0.0,209.0,1,37.835264680793344
463,463,-0.6402250233639302,-0.6,1,342.0,662.0,1.0,126.0,1,246.03375350458953
464,464,-0.9009777312190028,-0.9,1,461.0,724.0,1.0,465.0,1,285.14665968285044
465,465,-0.08706720984373306,-0.1,1,344.0,603.0,1.0,583.0,1,163.06008147655996
466,466,-0.22009785071764942,-0.2,1,441.0,627.0,1.0,162.0,1,183.0146776076474
467,467,-0.9329335980819882,-0.9,1,332.0,708.0,1.0,170.0,1,289.94003971229824
468,468,0.024902210007349712,0.0,0,370.0,882.0,1.0,98.0,0,146.26466849889755
469,469,-0.30994754870584784,-0.3,1,440.0,791.0,1.0,229.0,1,196.49213230587716
470,470,0.664866122014657,0.7,0,310.0,555.0,0.0,1145.0,1,50.27008169780145
471,471,0.9446526537478424,0.9,0,434.0,920.0,0.0,176.0,1,8.302101937823647
472,472,-0.2043976566951049,-0.2,1,483.0,849.0,1.0,378.0,1,180.65964850426573
473,473,-0.6009271314546709,-0.6,1,399.0,533.0,1.0,1028.0,1,240.13906971820063
474,474,0.9896562744746789,1.0,0,300.0,690.0,0.0,810.0,1,1.5515588287981719
475,475,0.5863322960244224,0.6,0,337.0,874.0,0.0,639.0,1,62.050155596336644
476,476,0.4643248404689768,0.5,0,476.0,907.0,0.0,957.0,1,80.35127392965347
477,477,0.5842953947975309,0.6,0,259.0,801.0,0.0,1210.0,1,62.35569078037037
478,478,-0.5920149856706782,-0.6,1,324.0,641.0,1.0,105.0,1,238.80224785060173
479,479,0.4101670102504382,0.4,0,396.0,965.0,0.0,479.0,1,88.47494846243427
480,480,-0.8851472209910665,-0.9,1,323.0,760.0,1.0,217.0,1,282.77208314866
481,481,-0.3262106298940559,-0.3,1,453.0,527.0,1.0,180.0,1,198.9315944841084
482,482,0.8031226819508239,0.8,0,398.0,926.0,0.0,696.0,1,29.531597707376413
483,483,0.8094003986139213,0.8,0,437.0,837.0,0.0,876.0,1,28.589940207911802
484,484,-0.4477908469774934,-0.4,1,340.0,708.0,1.0,732.0,1,217.168627046624
485,485,-0.8673313369696143,-0.9,1,378.0,947.0,1.0,255.0,1,280.09970054544215
486,486,0.10458567220560888,0.1,0,307.0,983.0,0.0,300.0,1,134.31214916915866
487,487,0.9641888706769992,1.0,0,453.0,512.0,0.0,535.0,1,5.371669398450118
488,488,0.5110880293429496,0.5,0,487.0,941.0,0.0,1202.0,1,73.33679559855756
489,489,0.443094149190594,0.4,0,460.0,587.0,0.0,333.0,1,83.5358776214109
490,490,-0.40089971249265477,-0.4,1,280.0,741.0,1.0,129.0,1,210.1349568738982
491,491,0.997277950193352,1.0,0,347.0,972.0,0.0,261.0,1,0.40830747099720455
492,492,0.8654414380284621,0.9,0,333.0,813.0,0.0,194.0,1,20.18378429573069
493,493,0.5920406109271694,0.6,0,437.0,785.0,0.0,528.0,1,61.19390836092459
494,494,0.4672746062311166,0.5,0,271.0,807.0,1.0,582.0,0,79.9088090653325
495,495,0.12306616006531379,0.1,0,496.0,852.0,0.0,222.0,1,131.54007599020292
496,496,-0.2944172704718768,-0.3,1,375.0,651.0,1.0,204.0,1,194.16259057078153
497,497,-0.23328649926749234,-0.2,1,373.0,749.0,1.0,338.0,1,184.99297489012386
498,498,-0.554198539994718,-0.6,1,353.0,562.0,1.0,315.0,1,233.1297809992077
499,499,0.16056544621628088,0.2,0,356.0,528.0,1.0,406.0,0,125.91518306755786
500,500,-0.4819666948153527,-0.5,1,377.0,798.0,0.0,215.0,0,222.2950042223029
501,501,0.9638704018002291,1.0,0,362.0,827.0,0.0,151.0,1,5.419439729965636
502,502,-0.3642985437762367,-0.4,1,291.0,551.0,1.0,448.0,1,204.6447815664355
503,503,0.5795794701261556,0.6,0,298.0,995.0,0.0,187.0,1,63.063079481076656
504,504,0.8997968220050303,0.9,0,375.0,709.0,0.0,286.0,1,15.030476699245455
505,505,0.8816558280158835,0.9,0,468.0,882.0,0.0,470.0,1,17.751625797617475
506,506,0.25418455382844596,0.3,0,426.0,837.0,1.0,267.0,0,111.8723169257331
507,507,-0.7616342675481251,-0.8,1,268.0,813.0,1.0,589.0,1,264.24514013221875
508,508,-0.7393729738146113,-0.7,1,316.0,892.0,1.0,332.0,1,260.9059460721917
509,509,0.6962360506084015,0.7,0,381.0,752.0,0.0,447.0,1,45.56459240873977
510,510,-0.9061180459181066,-0.9,1,451.0,797.0,1.0,132.0,1,285.917706887716
511,511,0.6628987756992135,0.7,0,259.0,742.0,0.0,239.0,1,50.56518364511797
512,512,0.4714520010649643,0.5,0,461.0,600.0,0.0,1859.0,1,79.28219984025534
513,513,0.9186993256551732,0.9,0,389.0,650.0,0.0,701.0,1,12.19510115172402
514,514,0.3578658740025831,0.4,0,353.0,546.0,0.0,251.0,1,96.32011889961254
515,515,-0.45568046212061253,-0.5,1,489.0,994.0,1.0,657.0,1,218.35206931809188
516,516,0.018748298081125325,0.0,0,325.0,722.0,0.0,233.0,1,147.1877552878312
517,517,-0.2884867857454838,-0.3,1,360.0,762.0,1.0,998.0,1,193.27301786182258
518,518,0.6420841807016642,0.6,0,404.0,698.0,0.0,598.0,1,53.687372894750375
519,519,0.5870506842173806,0.6,0,377.0,632.0,0.0,521.0,1,61.94239736739291
520,520,0.009155881258038123,0.0,0,278.0,523.0,1.0,769.0,0,148.6266178112943
521,521,0.2841527051264845,0.3,0,385.0,943.0,0.0,1732.0,1,107.37709423102733
522,522,0.27347910421205546,0.3,0,411.0,786.0,1.0,2263.0,0,108.97813436819168
523,523,-0.49322546535855083,-0.5,1,469.0,974.0,1.0,247.0,1,223.98381980378264
524,524,0.23719490052156922,0.2,0,478.0,587.0,0.0,1215.0,1,114.42076492176461
525,525,-0.18114279546904877,-0.2,1,322.0,539.0,1.0,179.0,1,177.1714193203573
526,526,-0.2690990714985464,-0.3,1,357.0,630.0,1.0,503.0,1,190.36486072478195
527,527,0.042171804914753475,0.0,0,281.0,769.0,1.0,1530.0,0,143.67422926278698
528,528,-0.10469208835754973,-0.1,1,310.0,625.0,1.0,175.0,1,165.70381325363246
529,529,-0.5655288556870413,-0.6,1,298.0,952.0,1.0,180.0,1,234.82932835305618
530,530,-0.998925398510008,-1.0,1,429.0,919.0,1.0,292.0,1,299.8388097765012
531,531,-0.7607044822055602,-0.8,1,317.0,594.0,1.0,129.0,1,264.105672330834
532,532,0.9877296042021839,1.0,0,337.0,697.0,0.0,186.0,1,1.840559369672412
533,533,-0.5203071245241335,-0.5,1,486.0,927.0,1.0,277.0,1,228.04606867862003
534,534,-0.5728036499456455,-0.6,1,306.0,502.0,1.0,332.0,1,235.92054749184683
535,535,-0.4399532671069266,-0.4,1,377.0,879.0,1.0,304.0,1,215.992990066039
536,536,0.7689997780469766,0.8,0,474.0,534.0,0.0,712.0,1,34.65003329295351
537,537,-0.017179248132232816,-0.0,1,365.0,807.0,0.0,338.0,0,152.57688721983493
538,538,0.27941609838669135,0.3,0,426.0,895.0,0.0,179.0,1,108.0875852419963
539,539,0.3905477033923481,0.4,0,342.0,854.0,0.0,454.0,1,91.41784449114778
540,540,-0.5359123040478544,-0.5,1,458.0,634.0,1.0,188.0,1,230.38684560717815
541,541,0.5868721403109307,0.6,0,386.0,693.0,0.0,321.0,1,61.96917895336039
542,542,0.12142799795047865,0.1,0,441.0,991.0,1.0,618.0,0,131.7858003074282
543,543,0.30404836024668724,0.3,0,417.0,502.0,0.0,381.0,1,104.39274596299691
544,544,-0.9550904377216924,-1.0,1,418.0,584.0,1.0,178.0,1,293.26356565825387
545,545,-0.7352785228106167,-0.7,1,367.0,753.0,1.0,130.0,1,260.2917784215925
546,546,0.3716521881373567,0.4,0,269.0,560.0,0.0,991.0,1,94.2521717793965
547,547,-0.7452841905497531,-0.7,1,407.0,818.0,1.0,145.0,1,261.79262858246295
548,548,0.5112766170570657,0.5,0,451.0,786.0,0.0,203.0,1,73.30850744144014
549,549,-0.40228974285184416,-0.4,1,277.0,839.0,1.0,434.0,1,210.34346142777662
550,550,0.9826349069511202,1.0,0,292.0,505.0,0.0,423.0,1,2.604763957331968
551,551,0.7648174778743446,0.8,0,439.0,576.0,0.0,485.0,1,35.27737831884831
552,552,-0.6451868366968367,-0.6,1,417.0,630.0,1.0,403.0,1,246.77802550452552
553,553,-0.4524300421856553,-0.5,1,391.0,615.0,1.0,344.0,1,217.8645063278483
554,554,-0.03405711631306474,-0.0,1,350.0,659.0,1.0,241.0,1,155.1085674469597
555,555,-0.8744798011194692,-0.9,1,436.0,514.0,1.0,360.0,1,281.1719701679204
556,556,-0.8765896486056959,-0.9,1,305.0,692.0,1.0,283.0,1,281.48844729085437
557,557,0.008118628689104845,0.0,0,497.0,595.0,0.0,428.0,1,148.78220569663426
558,558,-0.40973845513462503,-0.4,1,404.0,689.0,1.0,1427.0,1,211.46076827019377
559,559,0.17530193619569068,0.2,0,331.0,813.0,1.0,346.0,0,123.7047095706464
560,560,0.35349279654946875,0.4,0,271.0,899.0,0.0,3830.0,1,96.97608051757969
561,561,0.6732838993884533,0.7,0,441.0,969.0,0.0,180.0,1,49.007415091732
562,562,-0.9855865444996879,-1.0,1,411.0,696.0,1.0,113.0,1,297.8379816749532
563,563,0.4297874320625179,0.4,0,456.0,834.0,0.0,990.0,1,85.53188519062232
564,564,0.4720547276657199,0.5,0,390.0,613.0,0.0,347.0,1,79.19179085014201
565,565,0.11572382388757996,0.1,0,368.0,554.0,1.0,588.0,0,132.641426416863
566,566,-0.6372253512373118,-0.6,1,375.0,648.0,1.0,687.0,1,245.58380268559677
567,567,0.7444551135173165,0.7,0,320.0,684.0,0.0,106.0,1,38.33173297240252
568,568,0.4098012535711195,0.4,0,469.0,998.0,0.0,1453.0,1,88.52981196433207
569,569,-0.5752218659237993,-0.6,1,273.0,594.0,1.0,373.0,1,236.2832798885699
570,570,-0.16026934993698783,-0.2,1,386.0,756.0,1.0,318.0,1,174.04040249054816
571,571,0.2973012288361394,0.3,0,438.0,633.0,1.0,279.0,0,105.40481567457908
572,572,0.4993204207128201,0.5,0,293.0,969.0,0.0,418.0,1,75.10193689307698
573,573,-0.9498933623971364,-0.9,1,485.0,862.0,1.0,183.0,1,292.48400435957046
574,574,0.984572021956559,1.0,0,471.0,666.0,0.0,503.0,1,2.3141967065161473
575,575,-0.9556671037168469,-1.0,1,307.0,821.0,1.0,282.0,1,293.35006555752705
576,576,0.996761218745305,1.0,0,302.0,866.0,0.0,872.0,1,0.4858171882042517
577,577,0.2616580872698935,0.3,0,253.0,954.0,1.0,563.0,0,110.75128690951598
578,578,-0.3651895088477297,-0.4,1,401.0,617.0,1.0,322.0,1,204.77842632715945
579,579,-0.22435350557226252,-0.2,1,267.0,762.0,1.0,511.0,1,183.65302583583937
580,580,-0.33249058757502037,-0.3,1,468.0,895.0,1.0,787.0,1,199.87358813625306
581,581,0.5749788304688619,0.6,0,440.0,933.0,0.0,217.0,1,63.75317542967072
582,582,-0.12257061365530153,-0.1,1,384.0,800.0,1.0,476.0,1,168.38559204829522
583,583,-0.17091656906724317,-0.2,1,435.0,566.0,1.0,179.0,1,175.6374853600865
584,584,-0.36244609398934635,-0.4,1,340.0,959.0,1.0,301.0,1,204.36691409840196
585,585,-0.9321530391605275,-0.9,1,363.0,538.0,1.0,159.0,1,289.8229558740791
586,586,0.7496589809058125,0.7,0,385.0,978.0,0.0,637.0,1,37.55115286412812
587,587,-0.3830019515809462,-0.4,1,357.0,555.0,1.0,748.0,1,207.45029273714192
588,588,-0.8766604326765075,-0.9,1,360.0,987.0,1.0,233.0,1,281.4990649014761
589,589,0.8704873937882645,0.9,0,405.0,713.0,0.0,302.0,1,19.426890931760333
590,590,0.9405856484327746,0.9,0,409.0,755.0,0.0,1276.0,1,8.912152735083811
591,591,0.7345543491832021,0.7,0,288.0,964.0,0.0,1148.0,1,39.81684762251969
592,592,0.5905311994424789,0.6,0,404.0,602.0,0.0,914.0,1,61.42032008362817
593,593,-0.6507227831452065,-0.7,1,452.0,748.0,1.0,420.0,1,247.60841747178097
594,594,0.6902598127047193,0.7,0,351.0,661.0,0.0,148.0,1,46.46102809429211
595,595,0.7361285396925317,0.7,0,341.0,916.0,0.0,253.0,1,39.58071904612025
596,596,-0.9651806706173995,-1.0,1,442.0,741.0,1.0,247.0,1,294.77710059260994
597,597,-0.45467865856622924,-0.5,1,270.0,665.0,1.0,525.0,1,218.2017987849344
598,598,0.7608643114318598,0.8,0,262.0,824.0,0.0,434.0,1,35.87035328522102
599,599,0.4347031402436643,0.4,0,339.0,826.0,0.0,915.0,1,84.79452896345036
600,600,-0.026010583031833123,-0.0,1,408.0,646.0,1.0,326.0,1,153.90158745477495
601,601,0.9626050247211106,1.0,0,360.0,668.0,0.0,522.0,1,5.6092462918334025
602,602,0.7963999411994185,0.8,0,402.0,603.0,1.0,275.0,0,30.540008820087227
603,603,-0.9280617715461392,-0.9,1,428.0,989.0,1.0,233.0,1,289.2092657319209
604,604,0.3431105374700476,0.3,0,265.0,936.0,0.0,1129.0,1,98.53341937949286
605,605,0.3820807972772984,0.4,0,306.0,699.0,0.0,2715.0,1,92.68788040840525
606,606,0.2992325944127985,0.3,0,350.0,929.0,0.0,301.0,1,105.11511083808023
607,607,0.05697257356749663,0.1,0,278.0,862.0,1.0,840.0,0,141.45411396487552
608,608,-0.9291530445649665,-0.9,1,293.0,613.0,1.0,384.0,1,289.37295668474496
609,609,-0.3569548666605098,-0.4,1,462.0,988.0,1.0,170.0,1,203.54322999907646
610,610,-0.23713607237047452,-0.2,1,276.0,807.0,0.0,437.0,0,185.57041085557117
611,611,-0.6247405693096735,-0.6,1,410.0,811.0,1.0,759.0,1,243.711085396451
612,612,0.36148940461238044,0.4,0,374.0,914.0,0.0,192.0,1,95.77658930814293
613,613,0.3253089032730956,0.3,0,449.0,503.0,1.0,208.0,0,101.20366450903566
614,614,-0.8650149341335216,-0.9,1,465.0,573.0,1.0,612.0,1,279.75224012002826
615,615,0.33009664515073345,0.3,0,381.0,502.0,0.0,367.0,1,100.48550322738998
616,616,0.5474381626115117,0.5,0,250.0,913.0,0.0,187.0,1,67.88427560827324
617,617,0.24324991691923548,0.2,0,284.0,868.0,0.0,1278.0,1,113.51251246211469
618,618,0.9696408307102056,1.0,0,490.0,687.0,0.0,173.0,1,4.5538753934691645
619,619,0.15726402645531246,0.2,0,457.0,643.0,1.0,650.0,0,126.41039603170313
620,620,-0.7749495247641307,-0.8,1,369.0,559.0,1.0,412.0,1,266.2424287146196
621,621,-0.9765993841942009,-1.0,1,339.0,958.0,1.0,243.0,1,296.48990762913013
622,622,-0.678809015637907,-0.7,1,470.0,727.0,1.0,683.0,1,251.82135234568605
623,623,0.7544379155746892,0.8,0,406.0,853.0,0.0,271.0,1,36.834312663796624
624,624,-0.8158279488577258,-0.8,1,305.0,692.0,1.0,323.0,1,272.37419232865886
625,625,0.1503462610773998,0.2,0,281.0,979.0,1.0,410.0,0,127.44806083839003
626,626,0.514134813688083,0.5,0,374.0,930.0,0.0,546.0,1,72.87977794678756
627,627,0.05392437581026943,0.1,0,481.0,676.0,0.0,173.0,1,141.91134362845958
628,628,-0.5844372740631494,-0.6,1,258.0,875.0,1.0,507.0,1,237.66559110947242
629,629,-0.5984429314774051,-0.6,1,334.0,794.0,1.0,212.0,1,239.76643972161077
630,630,0.8470338306816616,0.8,0,345.0,825.0,0.0,570.0,1,22.944925397750758
631,631,-0.1673691101094057,-0.2,1,410.0,755.0,1.0,415.0,1,175.10536651641087
632,632,0.6947013252350607,0.7,0,452.0,577.0,0.0,251.0,1,45.7948012147409
633,633,0.24088657787498202,0.2,0,497.0,676.0,1.0,157.0,0,113.8670133187527
634,634,0.7116263937904495,0.7,0,413.0,633.0,0.0,524.0,1,43.25604093143258
635,635,0.4089098815837793,0.4,0,498.0,702.0,0.0,690.0,1,88.6635177624331
636,636,-0.1037229262015742,-0.1,1,457.0,548.0,1.0,215.0,1,165.55843893023612
637,637,0.0521584581754031,0.1,0,319.0,566.0,1.0,985.0,0,142.17623127368952
638,638,0.697617371509949,0.7,0,337.0,564.0,1.0,229.0,0,45.35739427350766
639,639,-0.07355951698050633,-0.1,1,391.0,725.0,1.0,624.0,1,161.03392754707596
640,640,-0.3892356573471314,-0.4,1,381.0,912.0,1.0,377.0,1,208.3853486020697
641,641,0.8157382229830081,0.8,0,371.0,934.0,0.0,145.0,1,27.63926655254878
642,642,0.3290706378692452,0.3,0,344.0,800.0,1.0,1066.0,0,100.63940431961322
643,643,-0.8426071638146508,-0.8,1,410.0,640.0,1.0,260.0,1,276.3910745721976
644,644,0.8883325805510607,0.9,0,422.0,507.0,0.0,341.0,1,16.7501129173409
645,645,-0.2326713820329276,-0.2,1,455.0,987.0,1.0,158.0,1,184.90070730493915
646,646,-0.7142083254174971,-0.7,1,413.0,861.0,1.0,266.0,1,257.13124881262456
647,647,-0.16299469683291035,-0.2,1,269.0,820.0,1.0,751.0,1,174.44920452493656
648,648,-0.10459038220062711,-0.1,1,278.0,579.0,1.0,173.0,1,165.68855733009406
649,649,0.9550289283849673,1.0,0,368.0,967.0,0.0,235.0,1,6.7456607422549
650,650,-0.7423953624407345,-0.7,1,435.0,806.0,1.0,139.0,1,261.35930436611017
651,651,-0.911735914108899,-0.9,1,277.0,517.0,1.0,266.0,1,286.76038711633487
652,652,0.4118726198149987,0.4,0,346.0,701.0,0.0,853.0,1,88.2191070277502
653,653,-0.1100707019498035,-0.1,1,360.0,517.0,1.0,263.0,1,166.51060529247053
654,654,-0.8604710120586601,-0.9,1,366.0,617.0,1.0,307.0,1,279.070651808799
655,655,-0.9763660673306509,-1.0,1,257.0,999.0,1.0,264.0,1,296.4549100995976
656,656,-0.1791459854593156,-0.2,1,299.0,978.0,1.0,363.0,1,176.87189781889734
657,657,-0.19230295382742169,-0.2,1,472.0,657.0,1.0,231.0,1,178.84544307411326
658,658,-0.3227197388039855,-0.3,1,468.0,930.0,1.0,302.0,1,198.40796082059782
659,659,-0.5455598681922502,-0.5,1,309.0,846.0,1.0,295.0,1,231.83398022883753
660,660,0.9427815174951444,0.9,0,350.0,768.0,0.0,412.0,1,8.582772375728343
661,661,0.7769835584386233,0.8,0,326.0,780.0,0.0,174.0,1,33.452466234206504
662,662,-0.7583109504934122,-0.8,1,479.0,861.0,1.0,110.0,1,263.74664257401184
663,663,0.42150227589853295,0.4,0,309.0,858.0,0.0,1793.0,1,86.77465861522006
664,664,-0.204473707210179,-0.2,1,441.0,543.0,1.0,266.0,1,180.67105608152684
665,665,0.9575860754533054,1.0,0,359.0,624.0,0.0,377.0,1,6.3620886820041855
666,666,0.7895349470759094,0.8,0,476.0,835.0,0.0,319.0,1,31.569757938613584
667,667,0.8220242220712484,0.8,0,424.0,890.0,0.0,396.0,1,26.696366689312747
668,668,0.14644363893414614,0.1,0,275.0,693.0,1.0,212.0,0,128.0334541598781
669,669,0.7837393806783872,0.8,0,365.0,998.0,0.0,1537.0,1,32.43909289824192
670,670,0.4432327156977791,0.4,0,380.0,770.0,1.0,310.0,0,83.51509264533313
671,671,0.8580719485156372,0.9,0,298.0,929.0,0.0,363.0,1,21.289207722654425
672,672,-0.40591705234946973,-0.4,1,372.0,532.0,1.0,186.0,1,210.88755785242046
673,673,-0.0547953544089268,-0.1,1,265.0,574.0,1.0,181.0,1,158.219303161339
674,674,-0.38200800658212763,-0.4,1,486.0,977.0,1.0,267.0,1,207.30120098731913
675,675,-0.5229770286521074,-0.5,1,331.0,609.0,1.0,340.0,1,228.4465542978161
676,676,0.1364457765615088,0.1,0,400.0,843.0,0.0,757.0,1,129.53313351577367
677,677,-0.9813840117099988,-1.0,1,407.0,627.0,1.0,186.0,1,297.2076017564998
678,678,-0.47850496046540014,-0.5,1,292.0,623.0,1.0,315.0,1,221.77574406981003
679,679,-0.7192985055939134,-0.7,1,352.0,586.0,1.0,822.0,1,257.894775839087
680,680,-0.5845434972197594,-0.6,1,406.0,880.0,1.0,174.0,1,237.6815245829639
681,681,0.5002777324346825,0.5,0,298.0,829.0,0.0,633.0,1,74.95834013479762
682,682,0.6388525401166611,0.6,0,272.0,981.0,0.0,817.0,1,54.17211898250083
683,683,-0.7810057722655948,-0.8,1,496.0,854.0,1.0,190.0,1,267.15086583983924
684,684,-0.8475120498470707,-0.8,1,269.0,746.0,1.0,245.0,1,277.1268074770606
685,685,-0.3413429085735935,-0.3,1,267.0,538.0,1.0,275.0,1,201.201436286039
686,686,-0.03545851174647474,-0.0,1,464.0,505.0,0.0,341.0,0,155.3187767619712
687,687,0.43090119644757685,0.4,0,450.0,736.0,0.0,584.0,1,85.36482053286348
688,688,0.14062207201347166,0.1,0,426.0,870.0,1.0,184.0,0,128.90668919797926
689,689,0.6279485343884383,0.6,0,344.0,790.0,0.0,216.0,1,55.80771984173425
690,690,-0.24406886164279284,-0.2,1,334.0,763.0,1.0,1313.0,1,186.61032924641893
691,691,0.3650811294195955,0.4,0,298.0,703.0,1.0,369.0,0,95.23783058706069
692,692,-0.9353722597936225,-0.9,1,420.0,688.0,1.0,432.0,1,290.30583896904335
693,693,0.9950673604402036,1.0,0,350.0,895.0,0.0,205.0,1,0.7398959339694589
694,694,0.6929470473839201,0.7,0,442.0,782.0,1.0,286.0,0,46.05794289241199
695,695,0.13753434930686637,0.1,0,334.0,525.0,0.0,611.0,1,129.36984760397004
696,696,-0.7101712057676381,-0.7,1,315.0,975.0,1.0,180.0,1,256.5256808651457
697,697,0.7639711267485907,0.8,0,377.0,610.0,0.0,493.0,1,35.4043309877114
698,698,-0.228694362569543,-0.2,1,444.0,900.0,1.0,1516.0,1,184.30415438543145
699,699,0.983717000678505,1.0,0,311.0,889.0,0.0,650.0,1,2.4424498982242526
700,700,-0.28037180400896955,-0.3,1,479.0,972.0,1.0,349.0,1,192.05577060134544
701,701,0.3766136009823535,0.4,0,300.0,527.0,0.0,1033.0,1,93.50795985264698
702,702,-0.9101498991035886,-0.9,1,382.0,693.0,1.0,225.0,1,286.5224848655383
703,703,-0.5973881891837223,-0.6,1,352.0,856.0,1.0,382.0,1,239.60822837755833
704,704,0.130395146039747,0.1,0,496.0,610.0,1.0,204.0,0,130.44072809403795
705,705,0.9659921078772917,1.0,0,361.0,685.0,0.0,404.0,1,5.101183818406241
706,706,0.39613086782349916,0.4,0,272.0,610.0,0.0,1918.0,1,90.58036982647512
707,707,0.5052812933499631,0.5,0,463.0,935.0,0.0,2682.0,1,74.20780599750555
708,708,0.461195518022387,0.5,0,471.0,625.0,0.0,404.0,1,80.82067229664194
709,709,-0.5219768058618452,-0.5,1,275.0,567.0,1.0,348.0,1,228.29652087927678
710,710,0.7014390930720935,0.7,0,393.0,922.0,0.0,835.0,1,44.784136039185974
711,711,0.2325783265674446,0.2,0,416.0,647.0,0.0,377.0,1,115.11325101488332
712,712,-0.05196211665530304,-0.1,1,310.0,874.0,1.0,116.0,1,157.79431749829544
713,713,0.9860167571119611,1.0,0,285.0,953.0,0.0,452.0,1,2.0974864332058307
714,714,-0.8982048137069945,-0.9,1,442.0,633.0,1.0,275.0,1,284.73072205604916
715,715,0.4281786127746876,0.4,0,413.0,936.0,0.0,251.0,1,85.77320808379686
716,716,-0.1224191469791065,-0.1,1,276.0,757.0,1.0,297.0,1,168.362872046866
717,717,0.757218952793925,0.8,0,303.0,599.0,0.0,458.0,1,36.417157080911245
718,718,0.8322363564492263,0.8,0,499.0,977.0,0.0,534.0,1,25.16454653261605
719,719,-0.39909846084048106,-0.4,1,416.0,776.0,1.0,678.0,1,209.86476912607216
720,720,0.462120110547088,0.5,0,309.0,845.0,0.0,406.0,1,80.68198341793679
721,721,-0.0074543869824061915,-0.0,1,428.0,540.0,1.0,612.0,1,151.11815804736094
722,722,0.2331467207787874,0.2,0,417.0,700.0,1.0,263.0,0,115.0279918831819
723,723,-0.9482548936842314,-0.9,1,256.0,786.0,1.0,198.0,1,292.2382340526347
724,724,0.16648899696602526,0.2,0,448.0,782.0,1.0,420.0,0,125.02665045509622
725,725,-0.809160306436661,-0.8,1,439.0,981.0,1.0,290.0,1,271.37404596549914
726,726,0.36818432236345955,0.4,0,306.0,908.0,0.0,276.0,1,94.77235164548107
727,727,-0.41431305961351006,-0.4,1,366.0,865.0,1.0,629.0,1,212.14695894202652
728,728,0.7933472660309753,0.8,0,300.0,648.0,0.0,212.0,1,30.99791009535371
729,729,0.9853980639704456,1.0,0,294.0,646.0,0.0,670.0,1,2.1902904044331595
730,730,-0.04435295538524531,-0.0,1,367.0,772.0,1.0,81.0,1,156.65294330778678
731,731,-0.4256269550628442,-0.4,1,304.0,747.0,0.0,569.0,0,213.84404325942663
732,732,0.8789044613074437,0.9,0,341.0,569.0,0.0,260.0,1,18.164330803883445
733,733,-0.7884075032978803,-0.8,1,424.0,751.0,1.0,635.0,1,268.26112549468206
734,734,0.6396750335140906,0.6,0,392.0,820.0,0.0,308.0,1,54.04874497288641
735,735,-0.41621370871134067,-0.4,1,251.0,764.0,1.0,145.0,1,212.4320563067011
736,736,-0.19588335135917778,-0.2,1,469.0,986.0,1.0,135.0,1,179.38250270387667
737,737,-0.14950227768874824,-0.1,1,347.0,556.0,1.0,247.0,1,172.42534165331224
738,738,-0.43534545281156656,-0.4,1,469.0,795.0,1.0,706.0,1,215.301817921735
739,739,-0.9452000801938261,-0.9,1,255.0,823.0,1.0,102.0,1,291.78001202907393
740,740,-0.8293935378836577,-0.8,1,411.0,979.0,1.0,670.0,1,274.40903068254863
741,741,0.4355256432452539,0.4,0,395.0,646.0,0.0,909.0,1,84.67115351321192
742,742,-0.23038514288816936,-0.2,1,288.0,708.0,1.0,594.0,1,184.5577714332254
743,743,0.7744811062648969,0.8,0,371.0,749.0,0.0,660.0,1,33.827834060265474
744,744,0.6632657147945027,0.7,0,441.0,501.0,0.0,258.0,1,50.510142780824594
745,745,-0.12635831661661134,-0.1,1,407.0,522.0,1.0,211.0,1,168.95374749249171
746,746,-0.10490902482344566,-0.1,1,333.0,966.0,1.0,1511.0,1,165.73635372351686
747,747,0.43349840870144374,0.4,0,262.0,797.0,0.0,721.0,1,84.97523869478344
748,748,-0.38137496279088645,-0.4,1,361.0,507.0,1.0,212.0,1,207.20624441863296
749,749,-0.20011182868864186,-0.2,1,273.0,602.0,1.0,335.0,1,180.01677430329627
750,750,-0.8819947418069338,-0.9,1,254.0,919.0,1.0,147.0,1,282.29921127104006
751,751,-0.6272944351096317,-0.6,1,306.0,551.0,1.0,223.0,1,244.09416526644475
752,752,0.43251079231238077,0.4,0,404.0,633.0,0.0,443.0,1,85.12338115314289
753,753,0.39545204701027226,0.4,0,454.0,777.0,0.0,749.0,1,90.68219294845916
754,754,-0.9771846918760698,-1.0,1,345.0,513.0,1.0,262.0,1,296.5777037814105
755,755,-0.18539316646954318,-0.2,1,308.0,864.0,1.0,468.0,1,177.80897497043148
756,756,-0.14026659516027506,-0.1,1,438.0,690.0,0.0,292.0,0,171.03998927404126
757,757,-0.821182328424567,-0.8,1,495.0,657.0,1.0,218.0,1,273.177349263685
758,758,0.8041662128676639,0.8,0,411.0,914.0,1.0,145.0,0,29.375068069850418
759,759,0.23744214016917176,0.2,0,471.0,731.0,0.0,468.0,1,114.38367897462423
760,760,0.5075200396178523,0.5,0,317.0,583.0,0.0,850.0,1,73.87199405732215
761,761,-0.3874370112817038,-0.4,1,371.0,806.0,1.0,963.0,1,208.11555169225556
762,762,0.6126410504255264,0.6,0,498.0,817.0,0.0,455.0,1,58.103842436171036
763,763,0.11688157641832442,0.1,0,459.0,955.0,1.0,386.0,0,132.46776353725133
764,764,0.6958158990419494,0.7,0,495.0,627.0,0.0,1428.0,1,45.62761514370759
765,765,-0.7624821124900638,-0.8,1,285.0,866.0,1.0,339.0,1,264.3723168735096
766,766,0.7490987619363862,0.7,0,453.0,535.0,0.0,472.0,1,37.635185709542064
767,767,-0.6115204744444462,-0.6,1,396.0,783.0,1.0,411.0,1,241.72807116666692
768,768,-0.021369905180052884,-0.0,1,383.0,842.0,0.0,2565.0,0,153.20548577700794
769,769,0.19616610736015727,0.2,0,358.0,731.0,1.0,141.0,0,120.5750838959764
770,770,-0.25785007237831614,-0.3,1,499.0,832.0,1.0,179.0,1,188.67751085674743
771,771,-0.7671320405969495,-0.8,1,390.0,528.0,1.0,402.0,1,265.06980608954245
772,772,-0.15667777992459797,-0.2,1,433.0,577.0,1.0,290.0,1,173.5016669886897
773,773,0.09018985763071408,0.1,0,459.0,538.0,1.0,643.0,0,136.4715213553929
774,774,0.34360094206969527,0.3,0,431.0,818.0,0.0,1641.0,1,98.45985868954571
775,775,0.4454295598279845,0.4,0,312.0,616.0,0.0,402.0,1,83.18556602580233
776,776,0.728992640646734,0.7,0,329.0,633.0,0.0,398.0,1,40.6511039029899
777,777,-0.12596323120157837,-0.1,1,286.0,723.0,1.0,1411.0,1,168.89448468023676
778,778,0.4561553762128241,0.5,0,348.0,571.0,0.0,1191.0,1,81.57669356807638
779,779,0.07445293370454431,0.1,0,254.0,737.0,1.0,219.0,0,138.83205994431836
780,780,0.9110174160671711,0.9,0,286.0,726.0,0.0,208.0,1,13.347387589924331
781,781,0.10593741225555564,0.1,0,497.0,755.0,0.0,178.0,1,134.10938816166666
782,782,0.06555537127759514,0.1,0,317.0,834.0,1.0,2399.0,0,140.16669430836072
783,783,-0.9299161573029506,-0.9,1,442.0,725.0,1.0,183.0,1,289.4874235954426
784,784,-0.5725582903422315,-0.6,1,406.0,718.0,1.0,616.0,1,235.88374355133473
785,785,0.9858282582097981,1.0,0,406.0,570.0,1.0,294.0,0,2.1257612685302796
786,786,-0.9042304444316716,-0.9,1,348.0,994.0,1.0,758.0,1,285.6345666647507
787,787,0.15507755294537628,0.2,0,269.0,525.0,1.0,186.0,0,126.73836705819356
788,788,-0.17999156791815873,-0.2,1,367.0,699.0,1.0,1264.0,1,176.9987351877238
789,789,0.8666732407099409,0.9,0,427.0,564.0,0.0,159.0,1,19.999013893508867
790,790,-0.5126945256737363,-0.5,1,488.0,945.0,1.0,227.0,1,226.90417885106044
791,791,0.3681863599060793,0.4,0,326.0,657.0,1.0,877.0,0,94.7720460140881
792,792,0.8815489054721724,0.9,0,324.0,867.0,0.0,99.0,1,17.767664179174147
793,793,-0.7322411687185377,-0.7,1,326.0,508.0,1.0,366.0,1,259.83617530778065
794,794,-0.9179046478155806,-0.9,1,457.0,873.0,1.0,450.0,1,287.6856971723371
795,795,-0.9314111136320484,-0.9,1,461.0,757.0,1.0,222.0,1,289.71166704480726
796,796,0.3924263046398795,0.4,0,420.0,708.0,0.0,132.0,1,91.13605430401807
797,797,-0.7122020449372057,-0.7,1,418.0,833.0,1.0,349.0,1,256.83030674058085
798,798,-0.5700703002215726,-0.6,1,375.0,534.0,1.0,131.0,1,235.51054503323587
799,799,0.036656671922940864,0.0,0,370.0,725.0,0.0,695.0,1,144.50149921155887
800,800,0.811009184185526,0.8,0,386.0,897.0,0.0,397.0,1,28.348622372171096
801,801,0.9511568270550492,1.0,0,442.0,734.0,0.0,1024.0,1,7.326475941742617
802,802,-0.1419181362233508,-0.1,1,385.0,554.0,1.0,1111.0,1,171.2877204335026
803,803,0.8315121931833203,0.8,0,427.0,945.0,0.0,248.0,1,25.273171022501963
804,804,0.1739156154008803,0.2,0,384.0,579.0,0.0,777.0,1,123.91265768986796
805,805,-0.8564834257286635,-0.9,1,476.0,774.0,1.0,460.0,1,278.4725138592995
806,806,0.6749497606344255,0.7,0,443.0,741.0,0.0,376.0,1,48.75753590483618
807,807,-0.04179656366711493,-0.0,1,366.0,916.0,0.0,768.0,0,156.26948455006723
808,808,-0.009269765777005112,-0.0,1,364.0,943.0,1.0,193.0,1,151.39046486655076
809,809,-0.570858802320585,-0.6,1,463.0,790.0,1.0,177.0,1,235.62882034808774
810,810,-0.5712737372888355,-0.6,1,359.0,544.0,1.0,527.0,1,235.69106059332532
811,811,-0.16656519903679357,-0.2,1,377.0,886.0,1.0,757.0,1,174.98477985551904
812,812,0.9244544927634304,0.9,0,478.0,880.0,0.0,1772.0,1,11.331826085485442
813,813,0.045063320805753815,0.0,0,352.0,559.0,1.0,1889.0,0,143.24050187913693
814,814,0.777995933794043,0.8,0,468.0,549.0,0.0,303.0,1,33.30060993089356
815,815,0.45200119382224657,0.5,0,372.0,559.0,1.0,89.0,0,82.19982092666301
816,816,-0.3738676791279367,-0.4,1,335.0,728.0,1.0,567.0,1,206.0801518691905
817,817,0.9842563729696356,1.0,0,476.0,579.0,0.0,685.0,1,2.361544054554654
818,818,0.6299742320197432,0.6,0,348.0,913.0,0.0,159.0,1,55.503865197038515
819,819,0.01899644417179913,0.0,0,312.0,863.0,0.0,405.0,1,147.15053337423012
820,820,0.8837929044551762,0.9,0,264.0,943.0,0.0,223.0,1,17.43106433172357
821,821,-0.66581545587361,-0.7,1,326.0,983.0,1.0,161.0,1,249.8723183810415
822,822,-0.3068959443531689,-0.3,1,403.0,717.0,1.0,230.0,1,196.03439165297533
823,823,-0.4230313686446723,-0.4,1,426.0,600.0,1.0,194.0,1,213.45470529670084
824,824,-0.78960536680398,-0.8,1,327.0,550.0,1.0,313.0,1,268.440805020597
825,825,-0.6018428498336752,-0.6,1,366.0,774.0,1.0,440.0,1,240.2764274750513
826,826,-0.48941839379443697,-0.5,1,295.0,710.0,0.0,635.0,0,223.41275906916553
827,827,0.446605617304217,0.4,0,448.0,673.0,0.0,619.0,1,83.00915740436746
828,828,-0.6562861032305856,-0.7,1,492.0,622.0,1.0,236.0,1,248.44291548458784
829,829,0.5038106846233901,0.5,0,349.0,758.0,0.0,2473.0,1,74.42839730649149
830,830,0.31767746975523803,0.3,0,461.0,612.0,0.0,387.0,1,102.34837953671429
831,831,0.46695110668956086,0.5,0,287.0,795.0,0.0,638.0,1,79.95733399656586
832,832,0.610087158943101,0.6,0,308.0,742.0,0.0,1300.0,1,58.48692615853486
833,833,-0.6459392268137485,-0.6,1,294.0,933.0,1.0,783.0,1,246.89088402206227
834,834,0.033259303461531164,0.0,0,331.0,966.0,1.0,1013.0,0,145.0111044807703
835,835,0.05442487560364495,0.1,0,356.0,979.0,1.0,1825.0,0,141.83626865945325
836,836,0.00608461857819087,0.0,0,386.0,775.0,1.0,159.0,0,149.08730721327137
837,837,0.5054672525510644,0.5,0,300.0,695.0,0.0,335.0,1,74.17991211734034
838,838,0.691542500808197,0.7,0,475.0,680.0,0.0,415.0,1,46.268624878770446
839,839,-0.8823395012792359,-0.9,1,357.0,717.0,1.0,226.0,1,282.3509251918854
840,840,-0.5147713426960896,-0.5,1,385.0,721.0,0.0,704.0,0,227.21570140441344
841,841,-0.29454601784170875,-0.3,1,306.0,764.0,1.0,110.0,1,194.1819026762563
842,842,0.11306535586219058,0.1,0,413.0,985.0,1.0,1052.0,0,133.04019662067142
843,843,-0.9921366010204244,-1.0,1,364.0,749.0,1.0,467.0,1,298.82049015306364
844,844,-0.26925409799169486,-0.3,1,358.0,547.0,1.0,585.0,1,190.38811469875424
845,845,-0.5147771355035959,-0.5,1,347.0,706.0,1.0,427.0,1,227.21657032553938
846,846,0.19923675043552036,0.2,0,396.0,742.0,1.0,182.0,0,120.11448743467194
847,847,0.8368180220065835,0.8,0,346.0,757.0,1.0,257.0,0,24.477296699012474
848,848,0.7181269528858809,0.7,0,329.0,511.0,0.0,630.0,1,42.28095706711786
849,849,0.23815526730641157,0.2,0,412.0,941.0,0.0,2647.0,1,114.27670990403827
850,850,0.1022597190642498,0.1,0,273.0,639.0,0.0,1388.0,1,134.66104214036253
851,851,-0.6773577304422747,-0.7,1,331.0,957.0,1.0,92.0,1,251.6036595663412
852,852,0.7432414141411192,0.7,0,335.0,576.0,0.0,139.0,1,38.51378787883212
853,853,-0.2709771737748816,-0.3,1,423.0,970.0,1.0,657.0,1,190.64657606623226
854,854,0.6463073499173284,0.6,0,330.0,734.0,0.0,886.0,1,53.05389751240074
855,855,-0.5991218761834507,-0.6,1,411.0,695.0,1.0,224.0,1,239.86828142751762
856,856,0.7685375175395259,0.8,0,398.0,740.0,0.0,472.0,1,34.71937236907111
857,857,0.0884230076734629,0.1,0,290.0,829.0,1.0,161.0,0,136.73654884898056
858,858,0.7391340589109687,0.7,0,377.0,965.0,0.0,228.0,1,39.12989116335469
859,859,-0.6035779412709326,-0.6,1,413.0,771.0,1.0,336.0,1,240.53669119063989
860,860,0.980004951739395,1.0,0,390.0,692.0,0.0,778.0,1,2.999257239090758
861,861,0.2866821240894879,0.3,0,369.0,740.0,1.0,121.0,0,106.99768138657682
862,862,-0.665949837052205,-0.7,1,356.0,887.0,1.0,827.0,1,249.89247555783075
863,863,-0.6398386691300875,-0.6,1,252.0,942.0,1.0,246.0,1,245.9758003695131
864,864,0.3035337552020476,0.3,0,488.0,685.0,0.0,687.0,1,104.46993671969285
865,865,-0.029959577718160046,-0.0,1,274.0,671.0,1.0,695.0,1,154.49393665772402
866,866,-0.8481321489527698,-0.8,1,452.0,786.0,1.0,362.0,1,277.21982234291545
867,867,0.3622805478538942,0.4,0,390.0,953.0,0.0,167.0,1,95.65791782191587
868,868,0.724879682456506,0.7,0,441.0,839.0,0.0,290.0,1,41.2680476315241
869,869,-0.01508690668971413,-0.0,1,445.0,917.0,1.0,648.0,1,152.26303600345713
870,870,-0.234440854089899,-0.2,1,295.0,598.0,1.0,637.0,1,185.16612811348486
871,871,-0.17597579771040506,-0.2,1,464.0,812.0,1.0,634.0,1,176.39636965656075
872,872,0.698157717705981,0.7,0,379.0,819.0,0.0,632.0,1,45.27634234410285
873,873,0.8129356860247816,0.8,0,286.0,917.0,0.0,1047.0,1,28.05964709628276
874,874,-0.7817323888547325,-0.8,1,345.0,733.0,1.0,332.0,1,267.2598583282099
875,875,-0.5582788675944799,-0.6,1,385.0,983.0,1.0,212.0,1,233.74183013917198
876,876,0.8856639759436102,0.9,0,284.0,671.0,0.0,375.0,1,17.150403608458465
877,877,-0.8471691052607486,-0.8,1,331.0,564.0,1.0,415.0,1,277.0753657891123
878,878,-0.21695877886021853,-0.2,1,377.0,930.0,1.0,2873.0,1,182.54381682903278
879,879,-0.21581418407364095,-0.2,1,316.0,515.0,1.0,489.0,1,182.37212761104615
880,880,0.011567210610280654,0.0,0,375.0,777.0,1.0,908.0,0,148.2649184084579
881,881,0.08172064516627398,0.1,0,319.0,898.0,0.0,523.0,1,137.7419032250589
882,882,-0.22273936956551021,-0.2,1,393.0,778.0,1.0,209.0,1,183.41090543482653
883,883,-0.1490499864798429,-0.1,1,273.0,730.0,0.0,1997.0,0,172.35749797197644
884,884,0.7597282583247846,0.8,0,458.0,579.0,0.0,223.0,1,36.040761251282305
885,885,0.18543428503259807,0.2,0,280.0,538.0,1.0,132.0,0,122.1848572451103
886,886,-0.3844109729004106,-0.4,1,325.0,766.0,1.0,539.0,1,207.66164593506159
887,887,-0.35090345640467446,-0.4,1,260.0,961.0,1.0,849.0,1,202.63551846070118
888,888,0.4472649184941968,0.4,0,344.0,795.0,0.0,1321.0,1,82.91026222587048
889,889,-0.841564438272558,-0.8,1,385.0,532.0,1.0,473.0,1,276.2346657408837
890,890,-0.5146284616245789,-0.5,1,485.0,625.0,1.0,440.0,1,227.19426924368682
891,891,-0.13396415473238465,-0.1,1,292.0,818.0,1.0,150.0,1,170.0946232098577
892,892,-0.821646720838676,-0.8,1,255.0,653.0,1.0,202.0,1,273.2470081258014
893,893,0.046644753497764535,0.0,0,435.0,662.0,1.0,723.0,0,143.00328697533533
894,894,-0.8768987204394714,-0.9,1,298.0,636.0,1.0,486.0,1,281.5348080659207
895,895,-0.5416128405868967,-0.5,1,450.0,590.0,1.0,210.0,1,231.24192608803452
896,896,0.47940895050661014,0.5,0,397.0,933.0,0.0,720.0,1,78.08865742400847
897,897,0.2004635022751049,0.2,0,344.0,990.0,0.0,756.0,1,119.93047465873427
898,898,0.5522509463061638,0.6,0,348.0,647.0,0.0,155.0,1,67.16235805407543
899,899,-0.3452332629268329,-0.3,1,274.0,561.0,1.0,285.0,1,201.78498943902494
900,900,0.25868547785650686,0.3,0,306.0,753.0,0.0,581.0,1,111.19717832152396
901,901,0.7764480298681775,0.8,0,365.0,785.0,0.0,1500.0,1,33.53279551977337
902,902,-0.9984389063668373,-1.0,1,312.0,880.0,1.0,178.0,1,299.7658359550256
903,903,0.6179677201298335,0.6,0,372.0,815.0,0.0,693.0,1,57.30484198052498
904,904,-0.4756156652557957,-0.5,1,276.0,796.0,1.0,408.0,1,221.34234978836935
905,905,-0.6437071996774373,-0.6,1,384.0,859.0,1.0,747.0,1,246.5560799516156
906,906,-0.13788307761191287,-0.1,1,333.0,596.0,1.0,331.0,1,170.68246164178694
907,907,-0.32001972527472144,-0.3,1,460.0,823.0,1.0,167.0,1,198.00295879120821
908,908,-0.3481743182031465,-0.3,1,486.0,678.0,1.0,366.0,1,202.22614773047198
909,909,0.6660650992102151,0.7,0,404.0,813.0,0.0,203.0,1,50.09023511846774
910,910,-0.2408743340986168,-0.2,1,470.0,891.0,0.0,139.0,0,186.13115011479252
911,911,-0.9525923990268899,-1.0,1,334.0,795.0,1.0,231.0,1,292.88885985403346
912,912,0.4958385726382504,0.5,0,471.0,525.0,0.0,484.0,1,75.62421410426245
913,913,-0.7967998362473128,-0.8,1,259.0,581.0,1.0,390.0,1,269.5199754370969
914,914,0.8391235448427488,0.8,0,402.0,804.0,0.0,384.0,1,24.131468273587686
915,915,0.10019326844817389,0.1,0,316.0,666.0,1.0,348.0,0,134.97100973277392
916,916,0.8127393594029664,0.8,0,344.0,586.0,0.0,750.0,1,28.089096089555042
917,917,-0.9804703292084347,-1.0,1,313.0,896.0,1.0,191.0,1,297.0705493812652
918,918,-0.39616068470391363,-0.4,1,428.0,608.0,1.0,334.0,1,209.42410270558705
919,919,0.4203926250360346,0.4,0,267.0,534.0,0.0,769.0,1,86.9411062445948
920,920,0.08744883463383868,0.1,0,391.0,701.0,0.0,178.0,1,136.8826748049242
921,921,-0.21070963168986867,-0.2,1,385.0,807.0,1.0,1338.0,1,181.6064447534803
922,922,0.019226850527147343,0.0,0,270.0,936.0,1.0,404.0,0,147.1159724209279
923,923,0.667347728985139,0.7,0,380.0,852.0,0.0,3238.0,1,49.89784065222914
924,924,0.3358864170196123,0.3,0,277.0,644.0,0.0,699.0,1,99.61703744705815
925,925,0.3619872773591255,0.4,0,285.0,825.0,0.0,250.0,1,95.70190839613117
926,926,-0.43388034358761907,-0.4,1,450.0,878.0,1.0,1072.0,1,215.08205153814285
927,927,0.8991524068340382,0.9,0,464.0,728.0,0.0,218.0,1,15.127138974894272
928,928,-0.0005542645488882947,-0.0,1,303.0,633.0,1.0,594.0,1,150.08313968233324
929,929,-0.7030769715030569,-0.7,1,385.0,792.0,1.0,693.0,1,255.46154572545854
930,930,-0.13259740003907927,-0.1,1,402.0,689.0,1.0,1049.0,1,169.8896100058619
931,931,-0.024143733108238807,-0.0,1,415.0,907.0,1.0,468.0,1,153.62155996623582
932,932,-0.30797847632228703,-0.3,1,386.0,655.0,0.0,159.0,0,196.19677144834304
933,933,-0.6853941314762111,-0.7,1,492.0,740.0,1.0,188.0,1,252.80911972143167
934,934,0.07666449588535929,0.1,0,435.0,974.0,0.0,951.0,1,138.5003256171961
935,935,0.9174812666103396,0.9,0,490.0,743.0,0.0,167.0,1,12.377810008449064
936,936,0.3802537159146131,0.4,0,380.0,979.0,0.0,1311.0,1,92.96194261280803
937,937,0.9861547976272638,1.0,0,259.0,923.0,0.0,578.0,1,2.0767803559104347
938,938,0.6370662876059499,0.6,0,462.0,662.0,0.0,356.0,1,54.44005685910752
939,939,0.5416758982301593,0.5,0,480.0,686.0,0.0,1274.0,1,68.7486152654761
940,940,0.891880308522021,0.9,0,455.0,847.0,0.0,1298.0,1,16.217953721696844
941,941,-0.7472509745030227,-0.7,1,394.0,688.0,1.0,238.0,1,262.0876461754534
942,942,0.3516485230524684,0.4,0,304.0,553.0,0.0,213.0,1,97.25272154212973
943,943,0.9404632316135153,0.9,0,376.0,628.0,0.0,276.0,1,8.930515257972704
944,944,0.11027167496388834,0.1,0,420.0,973.0,1.0,87.0,0,133.45924875541675
945,945,-0.14538214694758667,-0.1,1,324.0,711.0,1.0,2145.0,1,171.807322042138
946,946,-0.8750751549834825,-0.9,1,400.0,629.0,1.0,241.0,1,281.26127324752235
947,947,-0.7732605845079834,-0.8,1,354.0,688.0,1.0,238.0,1,265.9890876761975
948,948,0.09586439474721509,0.1,0,496.0,872.0,0.0,1652.0,1,135.62034078791774
949,949,0.5684986014064797,0.6,0,290.0,638.0,0.0,702.0,1,64.72520978902804
950,950,-0.4696810622457397,-0.5,1,351.0,607.0,1.0,462.0,1,220.45215933686094
951,951,-0.7547427224189946,-0.8,1,435.0,686.0,1.0,169.0,1,263.21140836284917
952,952,-0.9423087587122052,-0.9,1,348.0,762.0,1.0,280.0,1,291.3463138068308
953,953,0.8079252070779801,0.8,0,254.0,993.0,0.0,743.0,1,28.811218938302986
954,954,-0.8175841722784716,-0.8,1,405.0,732.0,1.0,223.0,1,272.6376258417707
955,955,0.23585051217410213,0.2,0,430.0,641.0,0.0,1439.0,1,114.62242317388468
956,956,0.6737797057141977,0.7,0,442.0,965.0,0.0,233.0,1,48.93304414287035
957,957,0.2782004383948866,0.3,0,349.0,809.0,0.0,2082.0,1,108.26993424076701
958,958,-0.09215159909380821,-0.1,1,310.0,651.0,1.0,529.0,1,163.82273986407122
959,959,-0.9202793858300393,-0.9,1,495.0,646.0,1.0,119.0,1,288.0419078745059
960,960,0.4597464317345541,0.5,0,397.0,813.0,0.0,240.0,1,81.03803523981689
961,961,0.15296767259563215,0.2,0,365.0,699.0,1.0,216.0,0,127.05484911065518
962,962,0.0272429489641397,0.0,0,415.0,741.0,1.0,334.0,0,145.91355765537904
963,963,0.6613247062224366,0.7,0,296.0,803.0,0.0,211.0,1,50.80129406663452
964,964,0.4187251838188535,0.4,0,443.0,889.0,0.0,1238.0,1,87.19122242717198
965,965,0.4420656675417536,0.4,0,444.0,524.0,0.0,962.0,1,83.69014986873697
966,966,0.9099648477548854,0.9,0,407.0,524.0,0.0,249.0,1,13.50527283676719
967,967,0.5025734806524162,0.5,0,422.0,675.0,0.0,723.0,1,74.61397790213756
968,968,0.2804916735923306,0.3,0,346.0,596.0,0.0,548.0,1,107.9262489611504
969,969,-0.8507811994424923,-0.9,1,435.0,888.0,1.0,377.0,1,277.61717991637386
970,970,0.2319881505752459,0.2,0,255.0,874.0,0.0,861.0,1,115.20177741371312
971,971,-0.4358245579438089,-0.4,1,329.0,690.0,1.0,231.0,1,215.37368369157133
972,972,0.8149189433725232,0.8,0,368.0,584.0,0.0,258.0,1,27.762158494121515
973,973,0.9270997838868911,0.9,0,291.0,823.0,0.0,156.0,1,10.93503241696634
974,974,-0.5987616417657244,-0.6,1,344.0,724.0,1.0,222.0,1,239.81424626485867
975,975,-0.0558970760990567,-0.1,1,351.0,631.0,1.0,608.0,1,158.3845614148585
976,976,-0.8935234896372743,-0.9,1,274.0,605.0,1.0,191.0,1,284.02852344559113
977,977,-0.6998463735746869,-0.7,1,257.0,742.0,1.0,721.0,1,254.97695603620303
978,978,-0.3607476929238782,-0.4,1,256.0,887.0,1.0,1097.0,1,204.11215393858174
979,979,-0.9167881559280979,-0.9,1,380.0,531.0,1.0,159.0,1,287.5182233892147
980,980,0.5338663517114461,0.5,0,407.0,797.0,1.0,246.0,0,69.92004724328308
981,981,0.7810158061080772,0.8,0,433.0,577.0,0.0,1700.0,1,32.84762908378842
982,982,-0.22134361283557302,-0.2,1,340.0,784.0,1.0,416.0,1,183.20154192533596
983,983,-0.5545949615451624,-0.6,1,473.0,769.0,1.0,198.0,1,233.18924423177435
984,984,-0.2200366103620206,-0.2,1,378.0,874.0,1.0,838.0,1,183.0054915543031
985,985,0.1527119142385538,0.2,0,313.0,802.0,0.0,525.0,1,127.09321286421694
986,986,-0.4646729958532545,-0.5,1,264.0,719.0,1.0,487.0,1,219.70094937798817
987,987,0.22882096903879412,0.2,0,266.0,988.0,1.0,1116.0,0,115.67685464418088
988,988,-0.21270787363267796,-0.2,1,373.0,637.0,1.0,460.0,1,181.9061810449017
989,989,-0.3853317719084923,-0.4,1,265.0,974.0,1.0,251.0,1,207.79976578627384
990,990,0.7790500119623889,0.8,0,308.0,727.0,0.0,685.0,1,33.142498205641665
991,991,-0.5423684748385327,-0.5,1,254.0,858.0,1.0,218.0,1,231.35527122577992
992,992,-0.33645219461324527,-0.3,1,469.0,683.0,1.0,778.0,1,200.4678291919868
993,993,-0.6807641125526451,-0.7,1,485.0,783.0,1.0,462.0,1,252.11461688289677
994,994,-0.9544473116791978,-1.0,1,400.0,679.0,1.0,211.0,1,293.1670967518797
995,995,-0.3253664094883386,-0.3,1,302.0,879.0,0.0,489.0,0,198.8049614232508
996,996,-0.46584703263006366,-0.5,1,259.0,588.0,1.0,213.0,1,219.87705489450954
997,997,0.5116955784443167,0.5,0,280.0,843.0,0.0,517.0,1,73.2456632333525
998,998,0.5013903886203619,0.5,0,328.0,502.0,0.0,150.0,1,74.79144170694572
999,999,-0.2314043761589375,-0.2,1,277.0,850.0,0.0,963.0,0,184.71065642384062
1000,1000,-0.4006523544115972,-0.4,1,360.0,894.0,1.0,726.0,1,210.09785316173958
1001,1001,0.7746309924519508,0.8,0,403.0,533.0,0.0,1374.0,1,33.805351132207385
1002,1002,-0.10175894749396841,-0.1,1,380.0,882.0,0.0,288.0,0,165.26384212409525
1003,1003,0.56977014881858,0.6,0,448.0,628.0,0.0,364.0,1,64.534477677213
1004,1004,0.0005779790067035329,0.0,0,255.0,587.0,1.0,1208.0,0,149.91330314899446
1005,1005,-0.7244884735161432,-0.7,1,354.0,724.0,1.0,192.0,1,258.6732710274215
1006,1006,-0.9191523262602614,-0.9,1,357.0,717.0,1.0,146.0,1,287.8728489390392
1007,1007,-0.9265554388032904,-0.9,1,355.0,967.0,1.0,528.0,1,288.98331582049354
1008,1008,0.5200466903773349,0.5,0,372.0,990.0,0.0,148.0,1,71.99299644339978
1009,1009,-0.8552787377685309,-0.9,1,493.0,948.0,1.0,309.0,1,278.2918106652796
1010,1010,0.04685735831158189,0.0,0,449.0,919.0,1.0,942.0,0,142.97139625326272
1011,1011,0.834966815888661,0.8,0,363.0,904.0,0.0,253.0,1,24.754977616700856
1012,1012,0.9803630920576192,1.0,0,358.0,864.0,0.0,268.0,1,2.945536191357123
1013,1013,0.021089345010429472,0.0,0,266.0,928.0,0.0,376.0,1,146.8365982484356
1014,1014,-0.1881439585092477,-0.2,1,273.0,965.0,1.0,222.0,1,178.22159377638715
1015,1015,0.6627391259148989,0.7,0,303.0,837.0,0.0,410.0,1,50.58913111276516
1016,1016,0.7219604713158558,0.7,0,321.0,694.0,0.0,315.0,1,41.70592930262163
1017,1017,0.6391171428856655,0.6,0,358.0,834.0,0.0,698.0,1,54.13242856715018
1018,1018,0.12697188027585748,0.1,0,347.0,508.0,1.0,605.0,0,130.95421795862137
1019,1019,-0.6745897097391012,-0.7,1,274.0,657.0,1.0,409.0,1,251.18845646086518
1020,1020,0.5502423935189975,0.6,0,488.0,532.0,1.0,320.0,0,67.46364097215037
1021,1021,0.7767275936493885,0.8,0,334.0,698.0,0.0,228.0,1,33.49086095259173
1022,1022,0.298577800054566,0.3,0,492.0,572.0,1.0,286.0,0,105.2133299918151
1023,1023,-0.57062798613513,-0.6,1,321.0,704.0,1.0,245.0,1,235.5941979202695
1024,1024,-0.7757487499271274,-0.8,1,389.0,842.0,1.0,179.0,1,266.3623124890691
1025,1025,0.42885522431204515,0.4,0,370.0,522.0,1.0,978.0,0,85.67171635319323
1026,1026,-0.6603965061828208,-0.7,1,363.0,832.0,1.0,125.0,1,249.0594759274231
1027,1027,-0.259380807835617,-0.3,1,482.0,853.0,1.0,145.0,1,188.90712117534255
1028,1028,-0.13686343127364453,-0.1,1,343.0,659.0,1.0,698.0,1,170.52951469104667
1029,1029,-0.623842410800818,-0.6,1,299.0,768.0,1.0,243.0,1,243.5763616201227
1030,1030,0.05321909031697181,0.1,0,385.0,524.0,0.0,841.0,1,142.01713645245422
1031,1031,-0.2560178572620886,-0.3,1,351.0,676.0,1.0,233.0,1,188.4026785893133
1032,1032,0.5216837917210762,0.5,0,394.0,601.0,0.0,185.0,1,71.74743124183858
1033,1033,0.7313860473807872,0.7,0,290.0,758.0,0.0,1382.0,1,40.292092892881925
1034,1034,-0.6076451465083645,-0.6,1,434.0,969.0,1.0,107.0,1,241.14677197625468
1035,1035,-0.3871476377408387,-0.4,1,336.0,876.0,1.0,1148.0,1,208.0721456611258
1036,1036,-0.1129735947866517,-0.1,1,282.0,510.0,0.0,288.0,0,166.94603921799776
1037,1037,-0.6690207196655824,-0.7,1,379.0,526.0,1.0,185.0,1,250.35310794983735
1038,1038,-0.6163944345571597,-0.6,1,387.0,989.0,1.0,284.0,1,242.45916518357396
1039,1039,0.486786391432549,0.5,0,371.0,872.0,0.0,977.0,1,76.98204128511765
1040,1040,-0.6379045995138546,-0.6,1,288.0,590.0,1.0,222.0,1,245.6856899270782
1041,1041,-0.01911904575553347,-0.0,1,428.0,827.0,1.0,275.0,1,152.86785686333002
1042,1042,0.743803733716071,0.7,0,301.0,879.0,0.0,880.0,1,38.42943994258935
1043,1043,-0.8772583144599666,-0.9,1,489.0,630.0,1.0,461.0,1,281.588747168995
1044,1044,0.1220360262196285,0.1,0,283.0,825.0,0.0,352.0,1,131.69459606705573
1045,1045,-0.540781577038151,-0.5,1,397.0,697.0,1.0,146.0,1,231.11723655572266
1046,1046,-0.20713186110097226,-0.2,1,492.0,868.0,0.0,460.0,0,181.06977916514583
1047,1047,-0.08617782112121453,-0.1,1,281.0,588.0,0.0,1341.0,0,162.9266731681822
1048,1048,0.5405645273915991,0.5,0,371.0,721.0,0.0,1368.0,1,68.91532089126014
1049,1049,-0.8957700872943939,-0.9,1,349.0,759.0,1.0,122.0,1,284.3655130941591
1050,1050,0.041930559616046637,0.0,0,442.0,552.0,1.0,626.0,0,143.710416057593
1051,1051,-0.9912604512076089,-1.0,1,273.0,691.0,1.0,226.0,1,298.68906768114135
1052,1052,-0.5454461638920749,-0.5,1,406.0,563.0,1.0,351.0,1,231.81692458381124
1053,1053,0.06732803638554041,0.1,0,290.0,653.0,0.0,707.0,1,139.90079454216894
1054,1054,-0.5743204564906654,-0.6,1,410.0,608.0,1.0,962.0,1,236.1480684735998
1055,1055,0.16614741935846444,0.2,0,462.0,666.0,0.0,1872.0,1,125.07788709623033
1056,1056,-0.16948306449847972,-0.2,1,476.0,863.0,1.0,471.0,1,175.42245967477197
1057,1057,0.7286735816205339,0.7,0,369.0,970.0,0.0,271.0,1,40.69896275691992
1058,1058,-0.261964478382559,-0.3,1,371.0,608.0,0.0,281.0,0,189.29467175738384
1059,1059,-0.41998605369766895,-0.4,1,473.0,523.0,1.0,244.0,1,212.99790805465034
1060,1060,-0.45060588347780994,-0.5,1,486.0,788.0,1.0,186.0,1,217.5908825216715
1061,1061,-0.0400842970971913,-0.0,1,318.0,962.0,1.0,340.0,1,156.0126445645787
1062,1062,0.6751409719764889,0.7,0,355.0,641.0,0.0,1024.0,1,48.72885420352666
1063,1063,0.3869740607663612,0.4,0,435.0,797.0,0.0,1058.0,1,91.95389088504582
1064,1064,-0.11434921512250562,-0.1,1,366.0,673.0,0.0,301.0,0,167.15238226837585
1065,1065,0.8482709335256637,0.8,0,430.0,832.0,0.0,238.0,1,22.759359971150438
1066,1066,0.8800651836943951,0.9,0,327.0,940.0,0.0,383.0,1,17.990222445840732
1067,1067,-0.5868008432059584,-0.6,1,335.0,911.0,1.0,974.0,1,238.02012648089377
1068,1068,-0.5149062728591935,-0.5,1,329.0,721.0,1.0,230.0,1,227.23594092887905
1069,1069,0.6307590681064335,0.6,0,257.0,809.0,0.0,664.0,1,55.38613978403498
1070,1070,-0.6112926007869488,-0.6,1,428.0,702.0,1.0,540.0,1,241.69389011804233
1071,1071,0.6917426468810548,0.7,0,289.0,583.0,0.0,298.0,1,46.23860296784178
1072,1072,0.394371800365229,0.4,0,438.0,861.0,0.0,1631.0,1,90.84422994521564
1073,1073,0.003094951462511153,0.0,0,368.0,974.0,0.0,1458.0,1,149.53575728062333
1074,1074,0.5456434940274832,0.5,0,453.0,681.0,0.0,336.0,1,68.15347589587752
1075,1075,0.8165103907096178,0.8,0,383.0,925.0,0.0,782.0,1,27.523441393557324
1076,1076,0.8741542241312499,0.9,0,473.0,869.0,0.0,1658.0,1,18.876866380312517
1077,1077,-0.2678040309503682,-0.3,1,327.0,792.0,1.0,301.0,1,190.17060464255522
1078,1078,-0.4287538219425011,-0.4,1,393.0,799.0,1.0,238.0,1,214.31307329137516
1079,1079,0.4504985873089853,0.5,0,454.0,921.0,0.0,675.0,1,82.42521190365221
1080,1080,0.09260566810866,0.1,0,303.0,625.0,0.0,862.0,1,136.109149783701
1081,1081,0.3596530710060526,0.4,0,410.0,853.0,0.0,1667.0,1,96.05203934909211
1082,1082,0.9981313425295855,1.0,0,393.0,692.0,0.0,985.0,1,0.28029862056218047
1083,1083,-0.9631610902795085,-1.0,1,325.0,593.0,1.0,232.0,1,294.47416354192626
1084,1084,0.6546687548647059,0.7,0,308.0,591.0,0.0,631.0,1,51.799686770294116
1085,1085,0.06256777857623841,0.1,0,476.0,694.0,1.0,250.0,0,140.61483321356422
1086,1086,0.7331774167063527,0.7,0,301.0,634.0,0.0,1095.0,1,40.02338749404709
1087,1087,0.6232472173349584,0.6,0,448.0,508.0,0.0,364.0,1,56.51291739975625
1088,1088,-0.5305322601112845,-0.5,1,275.0,725.0,1.0,190.0,1,229.5798390166927
1089,1089,0.6558228574431904,0.7,0,307.0,669.0,0.0,1384.0,1,51.626571383521444
1090,1090,0.13664203474523684,0.1,0,368.0,859.0,0.0,593.0,1,129.50369478821446
1091,1091,-0.48571709844052857,-0.5,1,259.0,738.0,1.0,243.0,1,222.8575647660793
1092,1092,-0.7525342382610922,-0.8,1,479.0,572.0,1.0,189.0,1,262.88013573916385
1093,1093,-0.8172763426207492,-0.8,1,391.0,724.0,1.0,355.0,1,272.5914513931124
1094,1094,-0.6865000180524758,-0.7,1,277.0,631.0,1.0,132.0,1,252.97500270787137
1095,1095,0.7879970576809399,0.8,0,307.0,840.0,0.0,773.0,1,31.80044134785902
1096,1096,0.8037104711819707,0.8,0,438.0,597.0,0.0,1015.0,1,29.443429322704397
1097,1097,-0.2658353115174914,-0.3,1,301.0,732.0,1.0,587.0,1,189.87529672762372
1098,1098,0.3964546287635595,0.4,0,338.0,691.0,0.0,161.0,1,90.53180568546607
1099,1099,-0.00872106491642377,-0.0,1,269.0,969.0,1.0,252.0,1,151.30815973746357
1100,1100,0.8648873803382342,0.9,0,260.0,621.0,0.0,459.0,1,20.26689294926487
1101,1101,0.5212450223560725,0.5,0,276.0,569.0,0.0,1295.0,1,71.81324664658912
1102,1102,0.05613314466146346,0.1,0,456.0,766.0,1.0,1178.0,0,141.58002830078047
1103,1103,0.44878028382901003,0.4,0,447.0,778.0,0.0,375.0,1,82.6829574256485
1104,1104,-0.21007543530022477,-0.2,1,402.0,686.0,0.0,922.0,0,181.5113152950337
1105,1105,-0.39223164775161723,-0.4,1,403.0,525.0,1.0,562.0,1,208.8347471627426
1106,1106,-0.7259445445254533,-0.7,1,371.0,524.0,1.0,215.0,1,258.891681678818
1107,1107,0.18546173395518672,0.2,0,277.0,999.0,0.0,1004.0,1,122.180739906722
1108,1108,-0.5256963176740104,-0.5,1,439.0,894.0,1.0,337.0,1,228.85444765110157
1109,1109,0.5919784703576505,0.6,0,336.0,614.0,0.0,450.0,1,61.203229446352424
1110,1110,-0.6144955650393928,-0.6,1,324.0,914.0,1.0,182.0,1,242.17433475590892
1111,1111,0.5394857222328351,0.5,0,499.0,802.0,0.0,379.0,1,69.07714166507473
1112,1112,0.42046278294744743,0.4,0,286.0,650.0,0.0,344.0,1,86.93058255788289
1113,1113,-0.4593876678727107,-0.5,1,344.0,921.0,1.0,725.0,1,218.9081501809066
1114,1114,-0.6904842418295583,-0.7,1,406.0,567.0,1.0,107.0,1,253.57263627443373
1115,1115,-0.9226118881692529,-0.9,1,438.0,941.0,1.0,601.0,1,288.39178322538794
1116,1116,-0.9035458501166669,-0.9,1,305.0,500.0,1.0,405.0,1,285.53187751750005
1117,1117,-0.887345942295956,-0.9,1,350.0,988.0,1.0,172.0,1,283.1018913443934
1118,1118,0.7807137787816552,0.8,0,346.0,980.0,1.0,484.0,0,32.892933182751726
1119,1119,0.6293395572765001,0.6,0,312.0,522.0,0.0,236.0,1,55.599066408524976
1120,1120,0.20774286095893402,0.2,0,260.0,837.0,0.0,453.0,1,118.83857085615989
1121,1121,0.8196533507577006,0.8,0,475.0,776.0,0.0,139.0,1,27.051997386344905
1122,1122,0.09674991611284156,0.1,0,394.0,980.0,1.0,176.0,0,135.48751258307377
1123,1123,-0.21932547795351964,-0.2,1,277.0,535.0,1.0,1478.0,1,182.89882169302794
1124,1124,-0.7166415598648217,-0.7,1,288.0,888.0,1.0,284.0,1,257.49623397972323
1125,1125,-0.8084185697265476,-0.8,1,492.0,988.0,1.0,270.0,1,271.26278545898214
1126,1126,-0.9607945001701672,-1.0,1,264.0,880.0,1.0,136.0,1,294.11917502552507
1127,1127,0.9870323771832548,1.0,0,357.0,520.0,0.0,193.0,1,1.9451434225117858
1128,1128,0.3369562881138821,0.3,0,395.0,951.0,0.0,1254.0,1,99.45655678291769
1129,1129,-0.2835856904201286,-0.3,1,394.0,812.0,1.0,224.0,1,192.5378535630193
1130,1130,-0.728294026550661,-0.7,1,472.0,870.0,1.0,378.0,1,259.24410398259914
1131,1131,-0.16613338913615405,-0.2,1,308.0,959.0,1.0,333.0,1,174.92000837042312
1132,1132,0.27441870144517155,0.3,0,358.0,597.0,0.0,395.0,1,108.83719478322426
1133,1133,-0.2732348732952534,-0.3,1,256.0,528.0,1.0,376.0,1,190.985230994288
1134,1134,-0.5895762925678829,-0.6,1,267.0,576.0,1.0,507.0,1,238.43644388518243
1135,1135,0.7778893601840875,0.8,0,317.0,612.0,0.0,701.0,1,33.31659597238688
1136,1136,-0.1782536765055167,-0.2,1,467.0,746.0,0.0,667.0,0,176.73805147582752
1137,1137,-0.8102891549771127,-0.8,1,362.0,856.0,1.0,592.0,1,271.5433732465669
1138,1138,0.689157895756302,0.7,0,481.0,583.0,0.0,426.0,1,46.62631563655469
1139,1139,0.30051412598934557,0.3,0,463.0,855.0,0.0,2452.0,1,104.92288110159816
1140,1140,-0.713137368442426,-0.7,1,425.0,661.0,1.0,224.0,1,256.9706052663639
1141,1141,0.8572315552966541,0.9,0,304.0,564.0,0.0,1092.0,1,21.41526670550189
1142,1142,0.20484214169348758,0.2,0,368.0,636.0,1.0,656.0,0,119.27367874597687
1143,1143,-0.18830302756438866,-0.2,1,410.0,977.0,1.0,1303.0,1,178.2454541346583
1144,1144,0.7748618186978304,0.8,0,428.0,920.0,0.0,212.0,1,33.770727195325435
1145,1145,-0.6744355221118266,-0.7,1,403.0,728.0,1.0,199.0,1,251.16532831677398
1146,1146,-0.5268319208492489,-0.5,1,287.0,873.0,1.0,150.0,1,229.02478812738732
1147,1147,-0.31767273246232053,-0.3,1,348.0,918.0,1.0,194.0,1,197.65090986934808
1148,1148,-0.18352254889546127,-0.2,1,250.0,759.0,1.0,221.0,1,177.5283823343192
1149,1149,-0.9101898123081096,-0.9,1,296.0,797.0,1.0,267.0,1,286.52847184621646
1150,1150,0.28872272223956874,0.3,0,275.0,684.0,0.0,1411.0,1,106.69159166406469
1151,1151,0.6134101988260272,0.6,0,288.0,851.0,1.0,191.0,0,57.988470176095916
1152,1152,-0.7829183053999738,-0.8,1,487.0,792.0,1.0,351.0,1,267.43774580999604
1153,1153,-0.6217432219928718,-0.6,1,386.0,780.0,1.0,144.0,1,243.26148329893076
1154,1154,-0.8950394475272416,-0.9,1,490.0,696.0,1.0,154.0,1,284.25591712908624
1155,1155,0.4653739754004702,0.5,0,469.0,771.0,0.0,590.0,1,80.19390368992947
1156,1156,0.5132828954381234,0.5,0,492.0,740.0,0.0,498.0,1,73.00756568428149
1157,1157,0.2953504160462339,0.3,0,436.0,510.0,1.0,274.0,0,105.69743759306492
1158,1158,-0.793859170599795,-0.8,1,298.0,680.0,1.0,322.0,1,269.07887558996924
1159,1159,-0.955238468278266,-1.0,1,255.0,644.0,1.0,101.0,1,293.2857702417399
1160,1160,-0.3855554696836596,-0.4,1,276.0,671.0,1.0,783.0,1,207.83332045254895
1161,1161,-0.4853587791008349,-0.5,1,271.0,922.0,1.0,237.0,1,222.80381686512524
1162,1162,0.7543046506920823,0.8,0,451.0,697.0,0.0,172.0,1,36.854302396187656
1163,1163,-0.08317254017023412,-0.1,1,479.0,608.0,1.0,1083.0,1,162.47588102553513
1164,1164,0.7949863353057367,0.8,0,428.0,953.0,0.0,729.0,1,30.752049704139495
1165,1165,-0.8866596778838942,-0.9,1,356.0,679.0,1.0,175.0,1,282.9989516825841
1166,1166,0.7764655735254142,0.8,0,339.0,510.0,1.0,201.0,0,33.53016397118787
1167,1167,0.9814899036308189,1.0,0,442.0,669.0,0.0,319.0,1,2.776514455377166
1168,1168,-0.18320972719061057,-0.2,1,459.0,785.0,1.0,526.0,1,177.4814590785916
1169,1169,-0.2282987858215837,-0.2,1,372.0,855.0,1.0,1593.0,1,184.24481787323757
1170,1170,0.6578501110888035,0.7,0,318.0,984.0,0.0,658.0,1,51.32248333667947
1171,1171,0.7715602649841338,0.8,0,457.0,786.0,0.0,337.0,1,34.265960252379934
1172,1172,-0.9069518869323099,-0.9,1,344.0,738.0,1.0,298.0,1,286.0427830398465
1173,1173,-0.17895143466978247,-0.2,1,465.0,707.0,1.0,338.0,1,176.84271520046738
1174,1174,0.5250068392771794,0.5,0,423.0,645.0,0.0,292.0,1,71.24897410842308
1175,1175,-0.8719833064501423,-0.9,1,426.0,805.0,1.0,169.0,1,280.79749596752134
1176,1176,0.29966689138858826,0.3,0,322.0,788.0,0.0,230.0,1,105.04996629171175
1177,1177,-0.3608993045558604,-0.4,1,257.0,529.0,1.0,324.0,1,204.13489568337906
1178,1178,0.7852959826842656,0.8,0,458.0,814.0,0.0,558.0,1,32.20560259736016
1179,1179,0.8956609660512298,0.9,0,494.0,631.0,0.0,375.0,1,15.65085509231553
1180,1180,-0.6999788936455735,-0.7,1,331.0,817.0,1.0,222.0,1,254.99683404683603
1181,1181,0.37629177325741003,0.4,0,335.0,601.0,0.0,564.0,1,93.5562340113885
1182,1182,0.43330243387401945,0.4,0,447.0,883.0,0.0,1010.0,1,85.00463491889708
1183,1183,0.9147564034878781,0.9,0,362.0,787.0,0.0,341.0,1,12.786539476818282
1184,1184,-0.6265817431523788,-0.6,1,395.0,678.0,1.0,177.0,1,243.98726147285683
1185,1185,0.0811289433071547,0.1,0,327.0,987.0,0.0,1976.0,1,137.8306585039268
1186,1186,-0.756292591319337,-0.8,1,335.0,827.0,1.0,878.0,1,263.44388869790055
1187,1187,0.20371188849861688,0.2,0,390.0,978.0,0.0,212.0,1,119.44321672520746
1188,1188,0.7764111492559591,0.8,0,476.0,974.0,0.0,210.0,1,33.538327611606135
1189,1189,0.5209802783845452,0.5,0,309.0,862.0,1.0,1549.0,0,71.85295824231822
1190,1190,-0.8441009124172625,-0.8,1,482.0,571.0,1.0,587.0,1,276.6151368625894
1191,1191,0.05017571954222899,0.1,0,371.0,610.0,1.0,1539.0,0,142.47364206866564
1192,1192,-0.40990261948660267,-0.4,1,319.0,530.0,1.0,91.0,1,211.4853929229904
1193,1193,0.8474149145101071,0.8,0,265.0,728.0,0.0,347.0,1,22.887762823483936
1194,1194,0.04543973902966947,0.0,0,276.0,633.0,1.0,1041.0,0,143.18403914554958
1195,1195,-0.024681446469505097,-0.0,1,389.0,942.0,1.0,1119.0,1,153.70221697042575
1196,1196,-0.20608715249202736,-0.2,1,447.0,636.0,1.0,477.0,1,180.9130728738041
1197,1197,0.8813870054142758,0.9,0,308.0,990.0,0.0,492.0,1,17.791949187858624
1198,1198,0.5974601504761581,0.6,0,472.0,875.0,0.0,873.0,1,60.38097742857629
1199,1199,-0.7522433217244808,-0.8,1,399.0,538.0,1.0,273.0,1,262.8364982586721
1200,1200,-0.40515639591361197,-0.4,1,425.0,872.0,1.0,153.0,1,210.77345938704178
1201,1201,-0.6784317573561336,-0.7,1,472.0,595.0,1.0,263.0,1,251.76476360342005
1202,1202,-0.19938396363614386,-0.2,1,301.0,935.0,1.0,534.0,1,179.90759454542157
1203,1203,0.39766631011508324,0.4,0,422.0,900.0,0.0,1348.0,1,90.35005348273751
1204,1204,-0.3596712107265263,-0.4,1,427.0,627.0,1.0,196.0,1,203.95068160897895
1205,1205,0.4441278474352994,0.4,0,422.0,758.0,0.0,1040.0,1,83.38082288470508
1206,1206,0.5261441366530673,0.5,0,474.0,776.0,1.0,1330.0,0,71.07837950203991
1207,1207,-0.9192508085849136,-0.9,1,323.0,600.0,1.0,237.0,1,287.88762128773703
1208,1208,0.0893257114700301,0.1,0,266.0,799.0,0.0,665.0,1,136.6011432794955
1209,1209,0.6922604957765155,0.7,0,465.0,603.0,0.0,152.0,1,46.16092563352267
1210,1210,-0.014763380558646677,-0.0,1,266.0,845.0,1.0,1259.0,1,152.214507083797
1211,1211,0.38480434395143237,0.4,0,460.0,778.0,0.0,1312.0,1,92.27934840728514
1212,1212,0.43313779010709874,0.4,0,259.0,693.0,0.0,368.0,1,85.0293314839352
1213,1213,-0.7024961503332052,-0.7,1,380.0,929.0,1.0,151.0,1,255.37442254998078
1214,1214,-0.10458949195396738,-0.1,1,488.0,802.0,1.0,1030.0,1,165.6884237930951
1215,1215,0.6876280303264488,0.7,0,409.0,909.0,0.0,152.0,1,46.85579545103268
1216,1216,-0.8049219647560577,-0.8,1,300.0,865.0,1.0,265.0,1,270.73829471340866
1217,1217,-0.7854456774769376,-0.8,1,322.0,621.0,1.0,687.0,1,267.81685162154065
1218,1218,0.6152520296247479,0.6,0,355.0,521.0,0.0,214.0,1,57.71219555628782
1219,1219,0.4445187388284626,0.4,0,465.0,890.0,0.0,415.0,1,83.32218917573061
1220,1220,-0.863854405597436,-0.9,1,371.0,933.0,1.0,606.0,1,279.5781608396154
1221,1221,0.2793352475108444,0.3,0,335.0,518.0,1.0,457.0,0,108.09971287337335
1222,1222,-0.20268954945268725,-0.2,1,493.0,992.0,1.0,215.0,1,180.40343241790308
1223,1223,-0.6380082529650897,-0.6,1,319.0,799.0,1.0,222.0,1,245.70123794476345
1224,1224,-0.865481992024294,-0.9,1,315.0,734.0,1.0,431.0,1,279.8222988036441
1225,1225,0.8692016896501187,0.9,0,366.0,524.0,0.0,360.0,1,19.619746552482198
1226,1226,-0.9264768798765664,-0.9,1,464.0,526.0,1.0,190.0,1,288.97153198148493
1227,1227,0.006303680626974284,0.0,0,414.0,674.0,0.0,722.0,1,149.05444790595385
1228,1228,0.7676861725444442,0.8,0,286.0,575.0,0.0,769.0,1,34.847074118333374
1229,1229,0.053284274109601126,0.1,0,421.0,953.0,1.0,446.0,0,142.00735888355982
1230,1230,0.46621541574171066,0.5,0,272.0,519.0,0.0,179.0,1,80.06768763874341
1231,1231,-0.0943930357279974,-0.1,1,283.0,924.0,1.0,703.0,1,164.1589553591996
1232,1232,-0.5819853950490406,-0.6,1,260.0,768.0,1.0,132.0,1,237.29780925735608
1233,1233,-0.4132508245193838,-0.4,1,441.0,936.0,1.0,283.0,1,211.98762367790758
1234,1234,-0.03858880893527239,-0.0,1,315.0,759.0,1.0,506.0,1,155.78832134029085
1235,1235,-0.5450413606704707,-0.5,1,459.0,943.0,1.0,388.0,1,231.7562041005706
1236,1236,-0.10848336897917266,-0.1,1,321.0,960.0,1.0,929.0,1,166.2725053468759
1237,1237,0.6896294529424651,0.7,0,487.0,504.0,0.0,399.0,1,46.55558205863023
1238,1238,0.44246428122161174,0.4,0,301.0,898.0,0.0,651.0,1,83.63035781675823
1239,1239,0.49510986251745837,0.5,0,310.0,736.0,0.0,1164.0,1,75.73352062238125
1240,1240,-0.5202460053398301,-0.5,1,287.0,766.0,1.0,167.0,1,228.0369008009745
1241,1241,0.8925865763228378,0.9,0,396.0,850.0,0.0,464.0,1,16.112013551574332
1242,1242,0.4506915418440174,0.5,0,288.0,815.0,0.0,2637.0,1,82.3962687233974
1243,1243,0.3866223177446664,0.4,0,489.0,807.0,0.0,214.0,1,92.00665233830004
1244,1244,0.5731174137737882,0.6,0,263.0,577.0,0.0,1580.0,1,64.03238793393177
1245,1245,0.8749126446097499,0.9,0,288.0,863.0,0.0,629.0,1,18.76310330853751
1246,1246,0.36533447020728826,0.4,0,452.0,769.0,0.0,1359.0,1,95.19982946890676
1247,1247,-0.4375943019173276,-0.4,1,299.0,707.0,1.0,564.0,1,215.63914528759915
1248,1248,-0.6214632834648752,-0.6,1,392.0,884.0,1.0,294.0,1,243.2194925197313
1249,1249,-0.3834345318143406,-0.4,1,310.0,922.0,1.0,358.0,1,207.5151797721511
1250,1250,-0.5345424142963033,-0.5,1,400.0,920.0,1.0,150.0,1,230.1813621444455
1251,1251,0.7303894403752877,0.7,0,396.0,820.0,0.0,344.0,1,40.44158394370684
1252,1252,-0.8334903098915423,-0.8,1,351.0,802.0,1.0,457.0,1,275.02354648373137
1253,1253,0.11772440193669431,0.1,0,283.0,557.0,1.0,770.0,0,132.34133970949586
1254,1254,-0.766336791757747,-0.8,1,481.0,977.0,1.0,382.0,1,264.95051876366205
1255,1255,0.4888433647386401,0.5,0,280.0,623.0,0.0,307.0,1,76.67349528920398
1256,1256,0.687218743443442,0.7,0,446.0,619.0,0.0,285.0,1,46.9171884834837
1257,1257,-0.221701826498506,-0.2,1,387.0,850.0,1.0,233.0,1,183.2552739747759
1258,1258,-0.1851486793936441,-0.2,1,376.0,856.0,1.0,338.0,1,177.7723019090466
1259,1259,-0.11051605751689175,-0.1,1,325.0,989.0,1.0,596.0,1,166.57740862753377
1260,1260,0.8114416772683535,0.8,0,297.0,747.0,0.0,446.0,1,28.283748409746977
1261,1261,0.6371228997520597,0.6,0,336.0,919.0,0.0,1665.0,1,54.43156503719104
1262,1262,0.07217190961390396,0.1,0,377.0,693.0,1.0,130.0,0,139.1742135579144
1263,1263,-0.28679403323570574,-0.3,1,449.0,580.0,1.0,701.0,1,193.01910498535585
1264,1264,0.0005188207707116366,0.0,0,446.0,650.0,1.0,434.0,0,149.92217688439325
1265,1265,-0.34979797503807797,-0.3,1,491.0,827.0,1.0,812.0,1,202.46969625571168
1266,1266,-0.674686558351691,-0.7,1,446.0,526.0,1.0,308.0,1,251.20298375275365
1267,1267,-0.24519897697610316,-0.2,1,369.0,503.0,1.0,188.0,1,186.77984654641548
1268,1268,-0.7677152626693071,-0.8,1,476.0,715.0,1.0,199.0,1,265.15728940039605
1269,1269,-0.4520624862189533,-0.5,1,255.0,581.0,1.0,104.0,1,217.809372932843
1270,1270,0.944559642302911,0.9,0,375.0,813.0,0.0,482.0,1,8.31605365456335
1271,1271,-0.6238702001722272,-0.6,1,331.0,942.0,1.0,247.0,1,243.58053002583407
1272,1272,-0.34606476750292536,-0.3,1,264.0,737.0,1.0,219.0,1,201.9097151254388
1273,1273,0.2578119926095488,0.3,0,283.0,888.0,1.0,889.0,0,111.32820110856768
1274,1274,-0.5910120919245707,-0.6,1,452.0,633.0,1.0,355.0,1,238.65181378868562
1275,1275,0.5334981993809875,0.5,0,265.0,943.0,1.0,172.0,0,69.97527009285187
1276,1276,0.12973097632549613,0.1,0,256.0,777.0,1.0,2877.0,0,130.54035355117557
1277,1277,0.9111489560268251,0.9,0,490.0,824.0,0.0,196.0,1,13.327656595976233
1278,1278,-0.2081058566931313,-0.2,1,459.0,797.0,1.0,1724.0,1,181.2158785039697
1279,1279,-0.3443004286262916,-0.3,1,358.0,679.0,1.0,703.0,1,201.64506429394373
1280,1280,-0.36078225977015066,-0.4,1,263.0,968.0,1.0,159.0,1,204.1173389655226
1281,1281,0.9837040785422753,1.0,0,368.0,583.0,0.0,219.0,1,2.4443882186587107
1282,1282,-0.9412777564270218,-0.9,1,306.0,668.0,1.0,126.0,1,291.19166346405325
1283,1283,0.3031801182977647,0.3,0,253.0,675.0,0.0,1272.0,1,104.5229822553353
1284,1284,0.6224131728509348,0.6,0,427.0,622.0,0.0,1311.0,1,56.638024072359784
1285,1285,0.2599267249861279,0.3,0,290.0,778.0,1.0,352.0,0,111.01099125208081
1286,1286,-0.10003660379716361,-0.1,1,492.0,985.0,0.0,833.0,0,165.00549056957453
1287,1287,0.262617535208701,0.3,0,264.0,540.0,1.0,2926.0,0,110.60736971869486
1288,1288,-0.488263734438628,-0.5,1,276.0,657.0,1.0,297.0,1,223.23956016579422
1289,1289,0.4909143106063498,0.5,0,325.0,815.0,0.0,420.0,1,76.36285340904753
1290,1290,-0.9622449344691462,-1.0,1,381.0,611.0,1.0,108.0,1,294.3367401703719
1291,1291,0.2409475914237711,0.2,0,373.0,675.0,1.0,262.0,0,113.85786128643434
1292,1292,-0.577466915835551,-0.6,1,396.0,735.0,1.0,259.0,1,236.62003737533266
1293,1293,-0.350476605897283,-0.4,1,307.0,933.0,1.0,2140.0,1,202.57149088459246
1294,1294,0.0012528200582040405,0.0,0,491.0,630.0,1.0,1339.0,0,149.8120769912694
