,trial,coherence,coherence_bin,correct_side,target_onset,checker_onset,decision,decision_time,correct_decision,g0,gSlope
0,0,0.41748323300579915,0.4,0,463.0,519.0,0.0,228.0,1,0.869661530390821,0.0
1,1,0.37310674124100895,0.4,0,482.0,917.0,0.0,231.0,1,0.6117015655995319,0.0
2,2,-0.815103220988538,-0.8,1,485.0,933.0,1.0,182.0,1,0.9153815872784784,0.0
3,3,0.5363283905982132,0.5,0,408.0,958.0,0.0,204.0,1,0.8998806294467604,0.0
4,4,0.8162915875754839,0.8,0,307.0,601.0,0.0,462.0,1,0.18604798337067358,0.0
5,5,0.4695829816934163,0.5,0,468.0,853.0,0.0,1459.0,1,0.1469353707356722,0.0
6,6,-0.7013015377943654,-0.7,1,420.0,916.0,1.0,234.0,1,0.6576892954823881,0.0
7,7,-0.7197863406138991,-0.7,1,309.0,976.0,1.0,395.0,1,0.4172521506631619,0.0
8,8,0.8793616954749017,0.9,0,352.0,587.0,0.0,131.0,1,0.6948478141609149,0.0
9,9,0.5675576094689911,0.6,0,488.0,952.0,0.0,550.0,1,0.24344048207079755,0.0
10,10,-0.9412277417844104,-0.9,1,257.0,748.0,1.0,665.0,1,0.18663829367302534,0.0
11,11,-0.5437660503641268,-0.5,1,336.0,592.0,1.0,332.0,1,0.43246760196935885,0.0
12,12,0.31277542981732687,0.3,0,345.0,543.0,0.0,452.0,1,0.7776125652131283,0.0
13,13,-0.24451721572734608,-0.2,1,334.0,787.0,1.0,749.0,1,0.3900871872589786,0.0
14,14,0.36437332687009194,0.4,0,443.0,536.0,0.0,761.0,1,0.2380751764117658,0.0
15,15,-0.5107062911932823,-0.5,1,326.0,923.0,1.0,461.0,1,0.3409431982302459,0.0
16,16,-0.8118446719370809,-0.8,1,332.0,990.0,1.0,228.0,1,0.6576940617762224,0.0
17,17,-0.4186090718655229,-0.4,1,470.0,700.0,1.0,380.0,1,0.6394150621752601,0.0
18,18,0.8719505036545776,0.9,0,372.0,991.0,0.0,277.0,1,0.6175839045044477,0.0
19,19,0.7325714007345545,0.7,0,396.0,908.0,0.0,576.0,1,0.14841782931049263,0.0
20,20,-0.768951146902392,-0.8,1,353.0,774.0,1.0,443.0,1,0.29733744899377557,0.0
21,21,0.5701518266456711,0.6,0,279.0,948.0,0.0,313.0,1,0.8764352386076919,0.0
22,22,-0.8253356757607611,-0.8,1,412.0,772.0,1.0,346.0,1,0.3882377432611329,0.0
23,23,-0.8208397172250659,-0.8,1,383.0,792.0,1.0,315.0,1,0.4680052468985373,0.0
24,24,-0.6417787347682047,-0.6,1,366.0,810.0,1.0,204.0,1,0.9486961254569202,0.0
25,25,-0.6949698987893711,-0.7,1,403.0,884.0,1.0,223.0,1,0.7458756557181777,0.0
26,26,-0.5897549468174312,-0.6,1,364.0,563.0,1.0,223.0,1,0.7811355481987485,0.0
27,27,-0.7523694850191234,-0.8,1,262.0,520.0,1.0,268.0,1,0.7461946199035744,0.0
28,28,0.7039304655314056,0.7,0,387.0,578.0,0.0,285.0,1,0.7752720586780412,0.0
29,29,-0.8683720265751431,-0.9,1,355.0,602.0,1.0,273.0,1,0.303602402027652,0.0
30,30,-0.40001587815566464,-0.4,1,347.0,907.0,1.0,226.0,1,0.73728677508379,0.0
31,31,0.026165584100258377,0.0,0,347.0,597.0,0.0,426.0,1,0.8414908529871535,0.0
32,32,-0.6961899309800892,-0.7,1,431.0,990.0,1.0,239.0,1,0.9235094680426701,0.0
33,33,-0.9552878270400802,-1.0,1,405.0,752.0,1.0,163.0,1,0.6912681797022411,0.0
34,34,-0.0560079529437123,-0.1,1,405.0,844.0,0.0,391.0,0,0.9644697055209507,0.0
35,35,0.7666921984073627,0.8,0,371.0,898.0,0.0,221.0,1,0.9381215702496442,0.0
36,36,-0.043875339955414816,-0.0,1,274.0,655.0,1.0,4071.0,1,0.19703669841603802,0.0
37,37,0.8557067394301703,0.9,0,283.0,928.0,0.0,129.0,1,0.7976682009853763,0.0
38,38,0.7448517156662371,0.7,0,385.0,656.0,0.0,569.0,1,0.18517609795804835,0.0
39,39,-0.4504801909514544,-0.5,1,370.0,796.0,1.0,274.0,1,0.4754521763185905,0.0
40,40,0.7250654811312649,0.7,0,449.0,947.0,0.0,164.0,1,0.7542350652108978,0.0
41,41,-0.9246122058119122,-0.9,1,362.0,731.0,1.0,297.0,1,0.44763074336296893,0.0
42,42,-0.4154601461947458,-0.4,1,383.0,812.0,1.0,245.0,1,0.626369447616998,0.0
43,43,0.9922628933795707,1.0,0,371.0,633.0,0.0,256.0,1,0.6927514356630008,0.0
44,44,-0.924430938811696,-0.9,1,474.0,691.0,1.0,185.0,1,0.8787381871216994,0.0
45,45,-0.1916558342808068,-0.2,1,364.0,886.0,1.0,250.0,1,0.6715282545879955,0.0
46,46,-0.6600534829316411,-0.7,1,427.0,792.0,1.0,291.0,1,0.3933816918885418,0.0
47,47,-0.8951801194236848,-0.9,1,333.0,603.0,1.0,174.0,1,0.5640360200196739,0.0
48,48,0.8136287058414648,0.8,0,416.0,633.0,0.0,181.0,1,0.6114896975072645,0.0
49,49,0.16931204884522888,0.2,0,332.0,982.0,1.0,366.0,0,0.9069887315223424,0.0
50,50,0.8759965033234125,0.9,0,451.0,826.0,0.0,453.0,1,0.32474198822865075,0.0
51,51,0.049979159473756196,0.0,0,258.0,616.0,0.0,696.0,1,0.6547973238352941,0.0
52,52,0.8436040246349636,0.8,0,263.0,979.0,0.0,208.0,1,0.6731832659653121,0.0
53,53,0.7764092096322248,0.8,0,404.0,973.0,0.0,363.0,1,0.5691541080894013,0.0
54,54,0.3634312269902096,0.4,0,354.0,596.0,0.0,270.0,1,0.5891701784932254,0.0
55,55,-0.6542731742496828,-0.7,1,386.0,899.0,1.0,285.0,1,0.6908847385881756,0.0
56,56,0.22771787548003064,0.2,0,474.0,874.0,0.0,412.0,1,0.7985952405692984,0.0
57,57,-0.014329742274302504,-0.0,1,401.0,695.0,0.0,434.0,0,0.5781179599806687,0.0
58,58,-0.8152340125120403,-0.8,1,453.0,803.0,1.0,204.0,1,0.8030073667904492,0.0
59,59,0.8523390384229319,0.9,0,483.0,759.0,0.0,248.0,1,0.571200854542,0.0
60,60,-0.7355612092837069,-0.7,1,492.0,899.0,1.0,169.0,1,0.8264457677722673,0.0
61,61,0.9715169692235626,1.0,0,369.0,694.0,0.0,287.0,1,0.8262569957529138,0.0
62,62,-0.2535333582102086,-0.3,1,256.0,777.0,1.0,607.0,1,0.8113252063856782,0.0
63,63,-0.05026809679684607,-0.1,1,465.0,867.0,1.0,1398.0,1,0.29312075450977426,0.0
64,64,-0.740047414410983,-0.7,1,454.0,928.0,1.0,278.0,1,0.29281006068956417,0.0
65,65,0.2367017893387564,0.2,0,417.0,805.0,0.0,548.0,1,0.7774508820800506,0.0
66,66,0.7519818968380119,0.8,0,364.0,844.0,0.0,442.0,1,0.2553410111066608,0.0
67,67,0.518399174017242,0.5,0,332.0,919.0,0.0,249.0,1,0.4871361928050786,0.0
68,68,-0.07646296464884017,-0.1,1,427.0,959.0,1.0,264.0,1,0.9131787852044954,0.0
69,69,0.3760467376769612,0.4,0,277.0,579.0,0.0,344.0,1,0.40846461407203016,0.0
70,70,0.26596219530993337,0.3,0,373.0,606.0,0.0,281.0,1,0.831241244596894,0.0
71,71,-0.559602889813869,-0.6,1,422.0,763.0,1.0,355.0,1,0.5142904684508999,0.0
72,72,-0.7367059249916685,-0.7,1,456.0,945.0,1.0,319.0,1,0.830149515932637,0.0
73,73,-0.8813801384618731,-0.9,1,438.0,873.0,1.0,379.0,1,0.36027080463682815,0.0
74,74,-0.9563086565741741,-1.0,1,492.0,761.0,1.0,197.0,1,0.5655895126580139,0.0
75,75,-0.7611588640881324,-0.8,1,323.0,504.0,1.0,243.0,1,0.820842197642176,0.0
76,76,-0.09273385072753726,-0.1,1,286.0,705.0,1.0,4009.0,1,0.16472365080987206,0.0
77,77,-0.8753244399394602,-0.9,1,252.0,683.0,1.0,295.0,1,0.6426844803555665,0.0
78,78,0.4786304393019145,0.5,0,378.0,531.0,0.0,271.0,1,0.7244478801945473,0.0
79,79,-0.18838702990948475,-0.2,1,457.0,864.0,1.0,469.0,1,0.8484700186396241,0.0
80,80,-0.2719327556061042,-0.3,1,337.0,695.0,1.0,318.0,1,0.5739638744699272,0.0
81,81,-0.036576907775453193,-0.0,1,489.0,602.0,1.0,3909.0,1,0.1986805029761917,0.0
82,82,-0.5638607815171006,-0.6,1,279.0,691.0,1.0,1140.0,1,0.19604834661950504,0.0
83,83,0.9182833659198393,0.9,0,380.0,962.0,0.0,248.0,1,0.6773184521407281,0.0
84,84,-0.7795845962068741,-0.8,1,322.0,532.0,1.0,2876.0,1,0.10553624593038456,0.0
85,85,0.06543919505194773,0.1,0,431.0,966.0,0.0,353.0,1,0.7992247288673198,0.0
86,86,0.47403082930134266,0.5,0,276.0,793.0,0.0,271.0,1,0.4170082303604322,0.0
87,87,-0.08861354286855638,-0.1,1,480.0,954.0,1.0,376.0,1,0.9301172369506396,0.0
88,88,0.6952441829635951,0.7,0,332.0,848.0,0.0,180.0,1,0.8846327667488499,0.0
89,89,-0.48545335859923466,-0.5,1,486.0,965.0,1.0,289.0,1,0.8148827380543927,0.0
90,90,-0.9354999421300016,-0.9,1,259.0,982.0,1.0,239.0,1,0.8911891948774314,0.0
91,91,-0.11102833175661808,-0.1,1,431.0,919.0,1.0,1510.0,1,0.2573483623127729,0.0
92,92,0.3153259879136041,0.3,0,466.0,618.0,0.0,906.0,1,0.23218518472082222,0.0
93,93,-0.9567586328335584,-1.0,1,287.0,609.0,1.0,114.0,1,0.9972521621233444,0.0
94,94,0.7265494825957646,0.7,0,302.0,812.0,0.0,196.0,1,0.7579889336868717,0.0
95,95,0.2683635948061023,0.3,0,411.0,583.0,0.0,646.0,1,0.7053705123841211,0.0
96,96,-0.09565597278879112,-0.1,1,413.0,616.0,1.0,491.0,1,0.6475385011182234,0.0
97,97,0.9377377763915313,0.9,0,349.0,713.0,0.0,168.0,1,0.961041830924206,0.0
98,98,-0.9705560005987242,-1.0,1,250.0,708.0,1.0,972.0,1,0.12253659591984373,0.0
99,99,0.3638021235902631,0.4,0,368.0,979.0,0.0,1063.0,1,0.15391883599496367,0.0
100,100,0.03874209173608012,0.0,0,348.0,794.0,1.0,878.0,0,0.44211415406604204,0.0
101,101,-0.09395989552317308,-0.1,1,498.0,926.0,0.0,326.0,0,0.7772262488596797,0.0
102,102,0.211463094024106,0.2,0,301.0,722.0,0.0,1467.0,1,0.25508015942871265,0.0
103,103,0.7715081498538128,0.8,0,300.0,535.0,0.0,195.0,1,0.7825930655935408,0.0
104,104,0.7417752398587523,0.7,0,344.0,663.0,0.0,293.0,1,0.7231729358617038,0.0
105,105,-0.2212681474524949,-0.2,1,437.0,591.0,1.0,952.0,1,0.5620893041097459,0.0
106,106,0.3112354740572256,0.3,0,250.0,898.0,0.0,292.0,1,0.9592113016606277,0.0
107,107,-0.7973789604708676,-0.8,1,390.0,867.0,1.0,2283.0,1,0.11136678465753258,0.0
108,108,0.2654453798474745,0.3,0,425.0,820.0,0.0,285.0,1,0.5131169833744268,0.0
109,109,-0.38192373347027897,-0.4,1,452.0,835.0,1.0,463.0,1,0.6222294442761656,0.0
110,110,-0.7012112924614897,-0.7,1,260.0,877.0,1.0,223.0,1,0.7080242486720306,0.0
111,111,-0.2905977798800716,-0.3,1,261.0,852.0,1.0,377.0,1,0.661737268928866,0.0
112,112,0.7052087015532471,0.7,0,424.0,753.0,0.0,193.0,1,0.5406742265801279,0.0
113,113,0.39311116411306934,0.4,0,318.0,855.0,0.0,617.0,1,0.2733330597161217,0.0
114,114,0.6196753879158103,0.6,0,486.0,841.0,0.0,333.0,1,0.7417447131001335,0.0
115,115,0.8997391146462999,0.9,0,445.0,518.0,0.0,667.0,1,0.16310700720475807,0.0
116,116,-0.5786449094901309,-0.6,1,294.0,874.0,1.0,432.0,1,0.21735702695217762,0.0
117,117,-0.5620548026351668,-0.6,1,270.0,604.0,1.0,246.0,1,0.48997935009170446,0.0
118,118,0.8078875601325388,0.8,0,490.0,715.0,0.0,235.0,1,0.7101777953883686,0.0
119,119,0.5283337468131555,0.5,0,354.0,588.0,0.0,388.0,1,0.43033968974160486,0.0
120,120,-0.3581645720988522,-0.4,1,468.0,651.0,1.0,291.0,1,0.42274962861743026,0.0
121,121,0.6486088472021583,0.6,0,460.0,661.0,0.0,289.0,1,0.866832287906459,0.0
122,122,-0.5711055776578118,-0.6,1,292.0,668.0,1.0,780.0,1,0.14943629251573176,0.0
123,123,0.3801949422097628,0.4,0,467.0,629.0,0.0,234.0,1,0.6891630965176816,0.0
124,124,0.9266898350323409,0.9,0,288.0,604.0,0.0,318.0,1,0.3516105451078354,0.0
125,125,0.8169645713483327,0.8,0,280.0,698.0,0.0,142.0,1,0.6329389265666289,0.0
126,126,0.5524663114231085,0.6,0,471.0,641.0,0.0,168.0,1,0.8942898095171183,0.0
127,127,-0.7497191607756122,-0.7,1,466.0,607.0,1.0,177.0,1,0.7899658400571996,0.0
128,128,-0.5223117065813716,-0.5,1,402.0,676.0,1.0,382.0,1,0.5173018759519951,0.0
129,129,0.34689642723652914,0.3,0,342.0,938.0,0.0,480.0,1,0.38074486270501173,0.0
130,130,-0.5199102958469453,-0.5,1,260.0,733.0,1.0,187.0,1,0.8972862550576263,0.0
131,131,0.14419952711357165,0.1,0,346.0,801.0,0.0,523.0,1,0.19313000643243677,0.0
132,132,0.2230678001994426,0.2,0,426.0,899.0,0.0,315.0,1,0.9791837246058067,0.0
133,133,-0.7022478583646172,-0.7,1,300.0,987.0,1.0,173.0,1,0.953225834904214,0.0
134,134,-0.9920364438923961,-1.0,1,286.0,775.0,1.0,239.0,1,0.6305776207306026,0.0
135,135,0.33025327741005017,0.3,0,394.0,672.0,0.0,344.0,1,0.8572485340249686,0.0
136,136,-0.9307587140431672,-0.9,1,474.0,807.0,1.0,289.0,1,0.760554966532261,0.0
137,137,-0.7381460426846704,-0.7,1,476.0,643.0,1.0,201.0,1,0.5621033721781543,0.0
138,138,0.12476368547668715,0.1,0,394.0,607.0,1.0,569.0,0,0.7194883418681371,0.0
139,139,0.028338553099301667,0.0,0,390.0,669.0,0.0,411.0,1,0.5879738838808258,0.0
140,140,0.6832166741828154,0.7,0,450.0,541.0,0.0,1619.0,1,0.11201166476504697,0.0
141,141,-0.31837147253688847,-0.3,1,408.0,506.0,1.0,586.0,1,0.5111170183542872,0.0
142,142,0.40637184436129514,0.4,0,488.0,895.0,0.0,407.0,1,0.3534689779472825,0.0
143,143,0.14395293401563203,0.1,0,465.0,904.0,0.0,1481.0,1,0.25124242484830045,0.0
144,144,0.1379029169680961,0.1,0,259.0,831.0,0.0,430.0,1,0.8764312463343289,0.0
145,145,0.7368828583934759,0.7,0,478.0,879.0,0.0,393.0,1,0.4044246709132304,0.0
146,146,0.04617682617653096,0.0,0,306.0,529.0,0.0,1215.0,1,0.44435500290519225,0.0
147,147,0.36276719096372534,0.4,0,363.0,984.0,0.0,763.0,1,0.20022823103709608,0.0
148,148,0.6120967163965643,0.6,0,434.0,804.0,0.0,172.0,1,0.9852670649497912,0.0
149,149,-0.3725279895981788,-0.4,1,357.0,767.0,1.0,326.0,1,0.8556517897686792,0.0
150,150,-0.281383073732308,-0.3,1,259.0,912.0,1.0,239.0,1,0.7457246115135883,0.0
151,151,0.04409572231306025,0.0,0,270.0,740.0,0.0,1430.0,1,0.35250615182020906,0.0
152,152,0.5030717027555944,0.5,0,384.0,796.0,0.0,1010.0,1,0.14974928073500132,0.0
153,153,-0.5165421675101858,-0.5,1,452.0,768.0,1.0,410.0,1,0.9803686002054331,0.0
154,154,0.3959031503610946,0.4,0,459.0,829.0,0.0,582.0,1,0.2847073117204886,0.0
155,155,-0.9994246905494251,-1.0,1,497.0,840.0,1.0,293.0,1,0.7528492561947189,0.0
156,156,-0.6474993690093984,-0.6,1,499.0,689.0,1.0,402.0,1,0.3071414128445894,0.0
157,157,-0.531868657714424,-0.5,1,338.0,841.0,1.0,261.0,1,0.3908317105769943,0.0
158,158,0.4613307259028905,0.5,0,270.0,923.0,0.0,197.0,1,0.626102709951909,0.0
159,159,-0.045345409157263594,-0.0,1,479.0,607.0,1.0,634.0,1,0.4879890649283978,0.0
160,160,-0.6101311269698702,-0.6,1,475.0,850.0,1.0,285.0,1,0.8141226672729089,0.0
161,161,-0.684833418254545,-0.7,1,488.0,673.0,1.0,429.0,1,0.4200782382455558,0.0
162,162,-0.3983361690528999,-0.4,1,402.0,749.0,1.0,1019.0,1,0.19249972060864912,0.0
163,163,0.09012660727148347,0.1,0,425.0,723.0,1.0,1482.0,0,0.38263340000619883,0.0
164,164,-0.7387322551251043,-0.7,1,462.0,940.0,1.0,208.0,1,0.8469736938007213,0.0
165,165,0.7002158760135995,0.7,0,379.0,545.0,0.0,286.0,1,0.6743599207769703,0.0
166,166,-0.35441325947315616,-0.4,1,300.0,785.0,1.0,605.0,1,0.40253641976617693,0.0
167,167,-0.35006550203057385,-0.4,1,428.0,691.0,1.0,851.0,1,0.23764907361691726,0.0
168,168,0.29499407367036046,0.3,0,328.0,943.0,0.0,619.0,1,0.7818852615012175,0.0
169,169,0.3376721153967197,0.3,0,251.0,843.0,0.0,366.0,1,0.9731078355016073,0.0
170,170,-0.13301489594172966,-0.1,1,429.0,516.0,1.0,805.0,1,0.4911592900592423,0.0
171,171,0.9757866090211704,1.0,0,328.0,612.0,0.0,170.0,1,0.8812846003088358,0.0
172,172,0.9286262281286999,0.9,0,434.0,877.0,0.0,179.0,1,0.9628257053037337,0.0
173,173,-0.023215519814160368,-0.0,1,443.0,615.0,0.0,882.0,0,0.44131352406124047,0.0
174,174,0.6986325153179982,0.7,0,261.0,615.0,0.0,184.0,1,0.9205045385593975,0.0
175,175,0.9049501142761889,0.9,0,349.0,781.0,0.0,280.0,1,0.7177651037550873,0.0
176,176,-0.6799273455884547,-0.7,1,439.0,624.0,1.0,317.0,1,0.45099359284045737,0.0
177,177,-0.4293818952089261,-0.4,1,453.0,809.0,1.0,268.0,1,0.6710805784615134,0.0
178,178,0.8644431351143798,0.9,0,429.0,822.0,0.0,269.0,1,0.4237900009032003,0.0
179,179,-0.8464924998217742,-0.8,1,494.0,969.0,1.0,177.0,1,0.9152988095346742,0.0
180,180,-0.25152010837421646,-0.3,1,276.0,928.0,1.0,1096.0,1,0.15928826551591987,0.0
181,181,-0.17247135216299747,-0.2,1,280.0,732.0,1.0,648.0,1,0.3276824900129527,0.0
182,182,0.46079152191306205,0.5,0,420.0,706.0,0.0,364.0,1,0.8505718376076048,0.0
183,183,-0.43397582406333757,-0.4,1,378.0,936.0,1.0,246.0,1,0.7021748001552499,0.0
184,184,-0.22459571525470046,-0.2,1,453.0,566.0,1.0,371.0,1,0.7355654312243399,0.0
185,185,-0.3650795391200081,-0.4,1,378.0,985.0,1.0,467.0,1,0.6690463997561393,0.0
186,186,0.9190438933549956,0.9,0,447.0,745.0,0.0,418.0,1,0.3002835010946967,0.0
187,187,0.35202157923988087,0.4,0,331.0,851.0,0.0,788.0,1,0.22872496375093374,0.0
188,188,0.9568594486232038,1.0,0,405.0,534.0,0.0,281.0,1,0.33264049619978037,0.0
189,189,-0.24044063147238903,-0.2,1,341.0,945.0,1.0,304.0,1,0.6009537247413356,0.0
190,190,0.14276908807029742,0.1,0,264.0,938.0,0.0,638.0,1,0.48569273254832157,0.0
191,191,-0.6437297115970118,-0.6,1,283.0,575.0,1.0,272.0,1,0.5938193206046609,0.0
192,192,-0.9091751661698755,-0.9,1,398.0,538.0,1.0,174.0,1,0.755191476957533,0.0
193,193,0.7747131641203899,0.8,0,314.0,799.0,0.0,197.0,1,0.9165778113434402,0.0
194,194,-0.3367220533961901,-0.3,1,265.0,673.0,1.0,492.0,1,0.36587375624501484,0.0
195,195,0.4991995463053478,0.5,0,394.0,879.0,0.0,247.0,1,0.6411519727379881,0.0
196,196,0.019929998826250683,0.0,0,429.0,960.0,1.0,411.0,0,0.4632155205230879,0.0
197,197,0.4367098710551123,0.4,0,257.0,788.0,0.0,1255.0,1,0.1615808320393418,0.0
198,198,0.699606849292981,0.7,0,290.0,858.0,0.0,352.0,1,0.39796166219053564,0.0
199,199,-0.765835813325515,-0.8,1,412.0,582.0,1.0,176.0,1,0.780962067632568,0.0
200,200,-0.7788711404635067,-0.8,1,407.0,617.0,1.0,376.0,1,0.29566261599127086,0.0
201,201,-0.14869464460076753,-0.1,1,264.0,514.0,1.0,562.0,1,0.7140571303344305,0.0
202,202,0.5610975999454035,0.6,0,398.0,865.0,0.0,457.0,1,0.22866386065736036,0.0
203,203,0.2632800280244876,0.3,0,407.0,958.0,0.0,745.0,1,0.46980312886966713,0.0
204,204,0.005708696326343299,0.0,0,404.0,966.0,0.0,920.0,1,0.6172904275278236,0.0
205,205,0.7352117310123247,0.7,0,334.0,846.0,0.0,640.0,1,0.22040485238444665,0.0
206,206,-0.5662961704385685,-0.6,1,308.0,768.0,1.0,334.0,1,0.3283437944678854,0.0
207,207,-0.7415429242529921,-0.7,1,396.0,920.0,1.0,174.0,1,0.7243453191537019,0.0
208,208,0.23361126902800233,0.2,0,387.0,884.0,0.0,379.0,1,0.850993063603257,0.0
209,209,0.601083705921023,0.6,0,464.0,827.0,0.0,469.0,1,0.2558668657166092,0.0
210,210,-0.09182101664676567,-0.1,1,356.0,502.0,1.0,982.0,1,0.9735745917281081,0.0
211,211,0.42368099583475605,0.4,0,271.0,712.0,0.0,1587.0,1,0.13535118537962834,0.0
212,212,0.6202370723285087,0.6,0,324.0,805.0,0.0,151.0,1,0.7589219555966721,0.0
213,213,0.802235432225,0.8,0,464.0,712.0,0.0,194.0,1,0.92780953939528,0.0
214,214,0.9750396569285731,1.0,0,256.0,844.0,0.0,230.0,1,0.6393986653406595,0.0
215,215,0.1510096750101766,0.2,0,279.0,962.0,1.0,3759.0,0,0.14609264262804628,0.0
216,216,0.522866866916597,0.5,0,251.0,546.0,0.0,333.0,1,0.8710058104066812,0.0
217,217,0.26438106469970246,0.3,0,434.0,699.0,0.0,387.0,1,0.5391801964410262,0.0
218,218,-0.6705456753102734,-0.7,1,353.0,629.0,1.0,278.0,1,0.7404428685448966,0.0
219,219,0.3625340405805948,0.4,0,444.0,878.0,0.0,528.0,1,0.4087183919241145,0.0
220,220,0.11880357907897743,0.1,0,307.0,797.0,0.0,306.0,1,0.9248929406130828,0.0
221,221,0.730123821255753,0.7,0,415.0,855.0,0.0,250.0,1,0.7655856370214709,0.0
222,222,0.23540073432799957,0.2,0,289.0,599.0,0.0,482.0,1,0.5860234855649257,0.0
223,223,-0.4870955661369516,-0.5,1,417.0,961.0,1.0,932.0,1,0.20071922368998651,0.0
224,224,0.6734623638356361,0.7,0,305.0,978.0,0.0,387.0,1,0.5209796846647838,0.0
225,225,0.2986482579249812,0.3,0,463.0,624.0,0.0,353.0,1,0.34186948564838004,0.0
226,226,-0.3996411458806919,-0.4,1,380.0,844.0,1.0,1756.0,1,0.13661684768218482,0.0
227,227,0.10125418391026697,0.1,0,326.0,746.0,0.0,2548.0,1,0.3135795585782758,0.0
228,228,0.18265845876075892,0.2,0,366.0,512.0,0.0,902.0,1,0.4807208057140405,0.0
229,229,0.10621017358683038,0.1,0,299.0,797.0,0.0,1034.0,1,0.4948366537356014,0.0
230,230,-0.7355012767446392,-0.7,1,398.0,618.0,1.0,214.0,1,0.9218129502524429,0.0
231,231,-0.4178253783372783,-0.4,1,339.0,873.0,1.0,248.0,1,0.9465171501428644,0.0
232,232,0.241497174170354,0.2,0,485.0,902.0,0.0,1913.0,1,0.2461593147316868,0.0
233,233,0.87464953495038,0.9,0,358.0,965.0,0.0,197.0,1,0.6612125582438481,0.0
234,234,0.012536696162884109,0.0,0,291.0,546.0,0.0,453.0,1,0.8307704544322717,0.0
235,235,0.8918834628065033,0.9,0,387.0,985.0,0.0,168.0,1,0.912268000581344,0.0
236,236,-0.6318373602326324,-0.6,1,406.0,816.0,1.0,418.0,1,0.45555784203084626,0.0
237,237,-0.8885745681380584,-0.9,1,498.0,539.0,1.0,283.0,1,0.564052280741285,0.0
238,238,-0.20415610776002913,-0.2,1,371.0,777.0,1.0,182.0,1,0.6090832725410019,0.0
239,239,0.5979823138709672,0.6,0,338.0,518.0,0.0,414.0,1,0.4619622188856022,0.0
240,240,-0.17834291949195058,-0.2,1,438.0,582.0,1.0,1110.0,1,0.2746475367195734,0.0
241,241,0.9742463268021018,1.0,0,362.0,687.0,0.0,151.0,1,0.9363435217744717,0.0
242,242,0.026556173388721405,0.0,0,292.0,985.0,1.0,393.0,0,0.5457999544277957,0.0
243,243,0.10009109506470404,0.1,0,416.0,962.0,0.0,302.0,1,0.9818696064737559,0.0
244,244,-0.12409802052951813,-0.1,1,341.0,556.0,1.0,673.0,1,0.8528127217160607,0.0
245,245,0.9417342213774231,0.9,0,387.0,880.0,0.0,613.0,1,0.15432186187520977,0.0
246,246,-0.7158748754793147,-0.7,1,382.0,589.0,1.0,209.0,1,0.37530086768987114,0.0
247,247,0.612459163501635,0.6,0,266.0,951.0,0.0,343.0,1,0.35438350767802373,0.0
248,248,-0.7704127293777767,-0.8,1,387.0,547.0,1.0,136.0,1,0.8602666751065778,0.0
249,249,-0.15989829397681254,-0.2,1,304.0,791.0,1.0,755.0,1,0.25586094128638015,0.0
250,250,0.39768334951488393,0.4,0,308.0,640.0,0.0,332.0,1,0.5165357467372615,0.0
251,251,0.23113118650356124,0.2,0,354.0,661.0,0.0,345.0,1,0.4931559759896804,0.0
252,252,0.7048913466799154,0.7,0,439.0,869.0,0.0,272.0,1,0.6688060691092981,0.0
253,253,-0.13306215931974674,-0.1,1,497.0,620.0,1.0,233.0,1,0.96256736212906,0.0
254,254,0.059596332700190935,0.1,0,474.0,831.0,1.0,975.0,0,0.5829744751392126,0.0
255,255,0.2268894155094172,0.2,0,327.0,966.0,0.0,347.0,1,0.7458115762624641,0.0
256,256,-0.8330088068944617,-0.8,1,351.0,566.0,1.0,363.0,1,0.20086117720301105,0.0
257,257,0.2934163612891345,0.3,0,382.0,703.0,0.0,3915.0,1,0.11104154056836607,0.0
258,258,0.8459441187146146,0.8,0,472.0,879.0,0.0,269.0,1,0.30470419733551724,0.0
259,259,0.9522124041917341,1.0,0,253.0,936.0,0.0,311.0,1,0.2727744378398162,0.0
260,260,0.8006763546972382,0.8,0,287.0,842.0,0.0,341.0,1,0.37783569462038036,0.0
261,261,-0.5378623799651896,-0.5,1,416.0,810.0,1.0,324.0,1,0.560822534942075,0.0
262,262,0.02206299080928309,0.0,0,495.0,592.0,1.0,3913.0,0,0.16036161569954133,0.0
263,263,0.6503663530056512,0.7,0,440.0,793.0,0.0,267.0,1,0.7973272773367759,0.0
264,264,0.01897636225867072,0.0,0,430.0,602.0,1.0,418.0,0,0.7342531486320986,0.0
265,265,-0.537780557751836,-0.5,1,431.0,663.0,1.0,176.0,1,0.44170246764175936,0.0
266,266,-0.7918158772331085,-0.8,1,402.0,531.0,1.0,197.0,1,0.6334786903345434,0.0
267,267,-0.6417052415031284,-0.6,1,480.0,773.0,1.0,487.0,1,0.31644074708535463,0.0
268,268,0.4992537541785469,0.5,0,374.0,874.0,0.0,412.0,1,0.36802455818901025,0.0
269,269,-0.8944518768186029,-0.9,1,265.0,856.0,1.0,439.0,1,0.2846463611276894,0.0
270,270,-0.9695884065510376,-1.0,1,326.0,955.0,1.0,169.0,1,0.5727652010555605,0.0
271,271,0.6787780540536037,0.7,0,399.0,859.0,0.0,332.0,1,0.41869452094326554,0.0
272,272,-0.9218879429272071,-0.9,1,262.0,920.0,1.0,568.0,1,0.2106905571865971,0.0
273,273,-0.7420246545957077,-0.7,1,404.0,579.0,1.0,287.0,1,0.5705772844313868,0.0
274,274,-0.173670843266857,-0.2,1,378.0,656.0,1.0,256.0,1,0.7784290991820791,0.0
275,275,0.29304291011055716,0.3,0,422.0,589.0,0.0,649.0,1,0.4702724186446329,0.0
276,276,-0.40592547272657065,-0.4,1,436.0,766.0,1.0,208.0,1,0.90279942705206,0.0
277,277,-0.27969787994097817,-0.3,1,415.0,751.0,1.0,424.0,1,0.4423607716801293,0.0
278,278,0.0769978753071845,0.1,0,334.0,931.0,0.0,555.0,1,0.7572579420301763,0.0
279,279,-0.9680216211408383,-1.0,1,416.0,682.0,1.0,222.0,1,0.4791009182113174,0.0
280,280,0.19421102332693718,0.2,0,440.0,587.0,0.0,603.0,1,0.47591479198621245,0.0
281,281,-0.4840803854749385,-0.5,1,386.0,626.0,1.0,468.0,1,0.5952625328395198,0.0
282,282,-0.5898719070288319,-0.6,1,316.0,724.0,1.0,540.0,1,0.3320891940489136,0.0
283,283,-0.7086405937482161,-0.7,1,292.0,924.0,1.0,454.0,1,0.15934430681674042,0.0
284,284,-0.33962168191979236,-0.3,1,435.0,807.0,1.0,718.0,1,0.2401792794676606,0.0
285,285,-0.7590582665071857,-0.8,1,447.0,664.0,1.0,599.0,1,0.16105708753884201,0.0
286,286,0.44908118098583727,0.4,0,395.0,752.0,0.0,363.0,1,0.49957209559439253,0.0
287,287,0.8506123406227402,0.9,0,419.0,780.0,0.0,191.0,1,0.4265565433938201,0.0
288,288,-0.48077842081570976,-0.5,1,349.0,750.0,1.0,361.0,1,0.2813911355370231,0.0
289,289,-0.025126570032789175,-0.0,1,478.0,587.0,1.0,645.0,1,0.4213375566935138,0.0
290,290,-0.1731779664985884,-0.2,1,290.0,775.0,1.0,285.0,1,0.5398514014057975,0.0
291,291,-0.34326475855665683,-0.3,1,308.0,983.0,1.0,2079.0,1,0.15612104377568475,0.0
292,292,0.12401843346815689,0.1,0,280.0,549.0,0.0,181.0,1,0.8044975429580485,0.0
293,293,0.031254872677938694,0.0,0,332.0,681.0,0.0,2377.0,1,0.22720674521436754,0.0
294,294,0.3041357176864419,0.3,0,405.0,630.0,0.0,535.0,1,0.7145942902328982,0.0
295,295,-0.47342797109071855,-0.5,1,430.0,692.0,1.0,218.0,1,0.9985578789191012,0.0
296,296,-0.5908354608165778,-0.6,1,482.0,528.0,1.0,450.0,1,0.4412375405528489,0.0
297,297,-0.5070373815696725,-0.5,1,381.0,700.0,1.0,129.0,1,0.6574260512749595,0.0
298,298,0.7798852679397368,0.8,0,486.0,743.0,0.0,251.0,1,0.8995277303656124,0.0
299,299,-0.4076940044820516,-0.4,1,369.0,670.0,1.0,471.0,1,0.8773490852496151,0.0
300,300,-0.07450375041447854,-0.1,1,261.0,550.0,1.0,389.0,1,0.780374745911295,0.0
301,301,-0.8682443979014431,-0.9,1,276.0,739.0,1.0,225.0,1,0.7761759945537322,0.0
302,302,-0.23586564960554068,-0.2,1,439.0,843.0,1.0,318.0,1,0.7413011400398974,0.0
303,303,-0.46106985043488624,-0.5,1,301.0,952.0,1.0,587.0,1,0.28007149820192656,0.0
304,304,-0.6417301717343316,-0.6,1,353.0,745.0,1.0,302.0,1,0.36035142772358575,0.0
305,305,-0.20243376810010827,-0.2,1,391.0,869.0,1.0,230.0,1,0.8705841750119245,0.0
306,306,-0.044132115668030325,-0.0,1,312.0,978.0,1.0,690.0,1,0.5817651803772724,0.0
307,307,0.015111476156924208,0.0,0,282.0,672.0,1.0,1046.0,0,0.38261379650472693,0.0
308,308,-0.7403315737566778,-0.7,1,408.0,676.0,1.0,306.0,1,0.3832019235867601,0.0
309,309,0.7266106822217364,0.7,0,414.0,535.0,0.0,271.0,1,0.5488296417908761,0.0
310,310,0.9540204982411793,1.0,0,420.0,770.0,0.0,350.0,1,0.47545793543660597,0.0
311,311,0.6420765317522033,0.6,0,289.0,572.0,0.0,329.0,1,0.5281487878285771,0.0
312,312,-0.2677352383301541,-0.3,1,331.0,604.0,1.0,4065.0,1,0.11593477067506884,0.0
313,313,-0.12281938934812242,-0.1,1,468.0,625.0,1.0,617.0,1,0.3322044840778832,0.0
314,314,-0.19681635125687835,-0.2,1,470.0,535.0,1.0,205.0,1,0.6969872576694132,0.0
315,315,-0.37735928538093355,-0.4,1,458.0,866.0,1.0,256.0,1,0.7130448297964925,0.0
316,316,-0.6230554369375341,-0.6,1,497.0,731.0,1.0,332.0,1,0.6786321539390728,0.0
317,317,0.9374784779747678,0.9,0,477.0,938.0,0.0,285.0,1,0.8324709152708589,0.0
318,318,0.3117399053223213,0.3,0,443.0,964.0,0.0,463.0,1,0.2938652691965896,0.0
319,319,-0.2811618232686617,-0.3,1,354.0,932.0,1.0,3714.0,1,0.10862092380749253,0.0
320,320,0.6352055956691982,0.6,0,296.0,541.0,0.0,443.0,1,0.23299426194539025,0.0
321,321,0.010712320036394773,0.0,0,376.0,508.0,1.0,566.0,0,0.5328315766410179,0.0
322,322,0.40146070293244596,0.4,0,364.0,929.0,0.0,257.0,1,0.7945964408997602,0.0
323,323,0.45915840646701045,0.5,0,290.0,523.0,0.0,207.0,1,0.9725205493278501,0.0
324,324,0.3260605856156975,0.3,0,348.0,812.0,0.0,410.0,1,0.4735775118877492,0.0
325,325,0.4111684843263155,0.4,0,496.0,763.0,0.0,591.0,1,0.2789904154063226,0.0
326,326,-0.8694157740090902,-0.9,1,482.0,556.0,1.0,192.0,1,0.7443352061014891,0.0
327,327,0.4356633532769085,0.4,0,415.0,718.0,0.0,627.0,1,0.21676940339019696,0.0
328,328,-0.35179199427674757,-0.4,1,277.0,604.0,1.0,489.0,1,0.2291947758360088,0.0
329,329,-0.7227831276258407,-0.7,1,366.0,912.0,1.0,202.0,1,0.88014626827045,0.0
330,330,-0.3000805777650346,-0.3,1,480.0,960.0,1.0,410.0,1,0.4547628066973687,0.0
331,331,-0.9385014477350047,-0.9,1,341.0,735.0,1.0,204.0,1,0.7876147731930575,0.0
332,332,-0.16818867225536516,-0.2,1,352.0,564.0,1.0,684.0,1,0.3812806506728251,0.0
333,333,0.25651428254476305,0.3,0,266.0,763.0,0.0,291.0,1,0.8964781899873494,0.0
334,334,0.6277804279606811,0.6,0,480.0,847.0,0.0,373.0,1,0.4345134077688193,0.0
335,335,-0.7099761415181076,-0.7,1,318.0,678.0,1.0,424.0,1,0.20374779975537383,0.0
336,336,0.5451496461630132,0.5,0,308.0,801.0,0.0,381.0,1,0.773007553430805,0.0
337,337,0.4730438454480852,0.5,0,332.0,689.0,0.0,509.0,1,0.45921310942515037,0.0
338,338,0.030606376744088504,0.0,0,291.0,542.0,0.0,4167.0,1,0.1758487920983854,0.0
339,339,0.4903344629092363,0.5,0,296.0,704.0,0.0,270.0,1,0.3125277954365442,0.0
340,340,0.5924421024829631,0.6,0,281.0,674.0,0.0,1485.0,1,0.1303018251812734,0.0
341,341,0.6358736967317922,0.6,0,336.0,818.0,0.0,626.0,1,0.2528908925516681,0.0
342,342,-0.16442358539120572,-0.2,1,493.0,513.0,1.0,804.0,1,0.33754259219329624,0.0
343,343,-0.4325019721093524,-0.4,1,487.0,880.0,1.0,463.0,1,0.47352445141825616,0.0
344,344,-0.4478851957953287,-0.4,1,366.0,689.0,1.0,205.0,1,0.828146313597171,0.0
345,345,0.6992475328422387,0.7,0,495.0,974.0,0.0,201.0,1,0.6701915122617383,0.0
346,346,0.46731320492620476,0.5,0,363.0,785.0,0.0,192.0,1,0.5974122717112815,0.0
347,347,0.31585259702560076,0.3,0,343.0,627.0,0.0,550.0,1,0.4467914008227689,0.0
348,348,-0.7934529545032043,-0.8,1,462.0,748.0,1.0,330.0,1,0.6201128443638454,0.0
349,349,0.6197025938192828,0.6,0,473.0,807.0,0.0,230.0,1,0.9690459722795721,0.0
350,350,0.34563385042429196,0.3,0,420.0,579.0,0.0,271.0,1,0.8827464456311521,0.0
351,351,0.3557608380503603,0.4,0,493.0,518.0,0.0,299.0,1,0.4423009413846012,0.0
352,352,0.7279772319915809,0.7,0,282.0,567.0,0.0,211.0,1,0.9125125050026943,0.0
353,353,0.40811734136195943,0.4,0,291.0,817.0,0.0,3892.0,1,0.11360715898169843,0.0
354,354,-0.6526167623069756,-0.7,1,412.0,634.0,1.0,334.0,1,0.5334721047374282,0.0
355,355,-0.26012951544216967,-0.3,1,361.0,516.0,1.0,253.0,1,0.41652950317456605,0.0
356,356,0.41185748179620263,0.4,0,498.0,688.0,0.0,814.0,1,0.1856679047411487,0.0
357,357,0.40473709323565665,0.4,0,363.0,522.0,0.0,475.0,1,0.20515991108935244,0.0
358,358,-0.3837100953547432,-0.4,1,368.0,654.0,1.0,438.0,1,0.7355645198227037,0.0
359,359,-0.22992013907486597,-0.2,1,268.0,671.0,1.0,271.0,1,0.8284181154293399,0.0
360,360,0.27566147690699516,0.3,0,359.0,989.0,0.0,172.0,1,0.9347980755494941,0.0
361,361,0.2167084768821017,0.2,0,276.0,662.0,0.0,492.0,1,0.3272417688311049,0.0
362,362,-0.3357487685671634,-0.3,1,371.0,996.0,1.0,193.0,1,0.9286237739120893,0.0
363,363,-0.5000727862705625,-0.5,1,425.0,726.0,1.0,649.0,1,0.2683824896136746,0.0
364,364,0.009176789519205641,0.0,0,255.0,581.0,0.0,354.0,1,0.7041769045180353,0.0
365,365,-0.2325703617406536,-0.2,1,478.0,840.0,1.0,312.0,1,0.8847646540298759,0.0
366,366,0.7197677850483601,0.7,0,332.0,788.0,0.0,190.0,1,0.7705030978508131,0.0
367,367,0.7703958313533839,0.8,0,354.0,595.0,0.0,211.0,1,0.92296801680846,0.0
368,368,0.8787809101846005,0.9,0,305.0,679.0,0.0,236.0,1,0.40396830403298856,0.0
369,369,-0.2553263577280165,-0.3,1,477.0,722.0,1.0,891.0,1,0.20851693656245096,0.0
370,370,-0.6356903122222786,-0.6,1,468.0,760.0,1.0,242.0,1,0.530865333349431,0.0
371,371,-0.758888728904924,-0.8,1,471.0,801.0,1.0,248.0,1,0.6710849827754019,0.0
372,372,-0.7063936861228295,-0.7,1,451.0,802.0,1.0,617.0,1,0.17816976031438825,0.0
373,373,0.8450195880865947,0.8,0,347.0,916.0,0.0,147.0,1,0.711039605406535,0.0
374,374,-0.9944578661776913,-1.0,1,467.0,980.0,1.0,233.0,1,0.5210903963528388,0.0
375,375,0.17184583975997092,0.2,0,351.0,760.0,1.0,309.0,0,0.7948879174010591,0.0
376,376,0.46485422709412916,0.5,0,304.0,619.0,0.0,447.0,1,0.4369012755101631,0.0
377,377,0.7774915156067637,0.8,0,335.0,638.0,0.0,357.0,1,0.31059730409551545,0.0
378,378,-0.18703701499334202,-0.2,1,441.0,518.0,1.0,421.0,1,0.881744263830102,0.0
379,379,-0.056569484492011934,-0.1,1,488.0,723.0,1.0,259.0,1,0.8710186567145602,0.0
380,380,0.3041023294079439,0.3,0,470.0,661.0,0.0,239.0,1,0.9342405345752726,0.0
381,381,0.16826313607453858,0.2,0,318.0,550.0,0.0,4132.0,1,0.13242248232470447,0.0
382,382,-0.7305573838540291,-0.7,1,251.0,518.0,1.0,171.0,1,0.812047746833024,0.0
383,383,0.22382091477094557,0.2,0,438.0,502.0,0.0,320.0,1,0.8738257820415988,0.0
384,384,-0.6563008451770318,-0.7,1,346.0,585.0,1.0,969.0,1,0.12644265662384827,0.0
385,385,-0.18604828262040396,-0.2,1,336.0,802.0,1.0,2042.0,1,0.17118112943681257,0.0
386,386,-0.732814507825952,-0.7,1,250.0,830.0,1.0,140.0,1,0.8639770880056179,0.0
387,387,0.8007591440379045,0.8,0,266.0,950.0,0.0,214.0,1,0.6396726110271983,0.0
388,388,-0.6873222692236449,-0.7,1,281.0,706.0,1.0,333.0,1,0.35255139365369226,0.0
389,389,0.7107904936168488,0.7,0,309.0,728.0,0.0,173.0,1,0.9730877688607802,0.0
390,390,0.3184549778768242,0.3,0,382.0,910.0,0.0,278.0,1,0.8386549479590573,0.0
391,391,0.4317749737760668,0.4,0,476.0,988.0,0.0,286.0,1,0.9106764067167366,0.0
392,392,0.039290805309565746,0.0,0,392.0,784.0,0.0,274.0,1,0.4677653727041039,0.0
393,393,0.3191378411620709,0.3,0,472.0,889.0,0.0,469.0,1,0.19386619712350844,0.0
394,394,-0.049795133220533305,-0.0,1,266.0,549.0,1.0,935.0,1,0.48842680213271383,0.0
395,395,0.5139980483599456,0.5,0,302.0,642.0,0.0,456.0,1,0.519201980323462,0.0
396,396,-0.6452568165003896,-0.6,1,405.0,864.0,1.0,431.0,1,0.34822701478721746,0.0
397,397,0.10434324812307394,0.1,0,313.0,796.0,0.0,861.0,1,0.3206083765994651,0.0
398,398,0.7260485723606962,0.7,0,409.0,763.0,0.0,258.0,1,0.9742626713551963,0.0
399,399,0.049218307744533396,0.0,0,461.0,882.0,1.0,207.0,0,0.7753275610342432,0.0
400,400,0.21222506293385734,0.2,0,495.0,710.0,0.0,2325.0,1,0.2292111977549376,0.0
401,401,-0.23823782185777365,-0.2,1,396.0,540.0,1.0,564.0,1,0.6148241791575888,0.0
402,402,0.7899672216084217,0.8,0,365.0,624.0,0.0,161.0,1,0.900812822306982,0.0
403,403,-0.07361531146381806,-0.1,1,426.0,558.0,1.0,226.0,1,0.9848274350704413,0.0
404,404,0.9315508370714982,0.9,0,387.0,527.0,0.0,176.0,1,0.364672964670832,0.0
405,405,-0.20991438065498502,-0.2,1,423.0,635.0,1.0,402.0,1,0.4198898387621157,0.0
406,406,0.6799113647417734,0.7,0,390.0,711.0,0.0,439.0,1,0.8487287040456784,0.0
407,407,-0.7439573353675655,-0.7,1,308.0,686.0,1.0,906.0,1,0.18265190259198955,0.0
408,408,-0.19304312824186476,-0.2,1,284.0,900.0,1.0,1276.0,1,0.2468306884327616,0.0
409,409,0.6733269725622784,0.7,0,381.0,542.0,0.0,257.0,1,0.605166854478479,0.0
410,410,-0.0973407362143992,-0.1,1,457.0,819.0,1.0,674.0,1,0.5020784026759342,0.0
411,411,-0.5893275207757969,-0.6,1,328.0,574.0,1.0,1038.0,1,0.13709814685590288,0.0
412,412,-0.977327058594667,-1.0,1,448.0,820.0,1.0,182.0,1,0.8911101375639825,0.0
413,413,0.7453306724969369,0.7,0,318.0,948.0,0.0,274.0,1,0.5896420915306267,0.0
414,414,0.24495882559967463,0.2,0,271.0,942.0,0.0,1677.0,1,0.2522680742695146,0.0
415,415,0.7471556464098028,0.7,0,499.0,843.0,0.0,228.0,1,0.7167773912775169,0.0
416,416,0.15426014886465533,0.2,0,336.0,878.0,0.0,2326.0,1,0.23928501826861684,0.0
417,417,-0.7847581453316597,-0.8,1,282.0,792.0,1.0,536.0,1,0.2148260206784865,0.0
418,418,-0.5335320280516915,-0.5,1,401.0,743.0,1.0,246.0,1,0.5475921154153405,0.0
419,419,-0.9184300827922758,-0.9,1,355.0,789.0,1.0,236.0,1,0.5161854142758775,0.0
420,420,0.810474259202367,0.8,0,436.0,940.0,0.0,164.0,1,0.6992496061819807,0.0
421,421,-0.23121776954461404,-0.2,1,485.0,591.0,1.0,424.0,1,0.33134234674077057,0.0
422,422,-0.49524283020121374,-0.5,1,475.0,746.0,1.0,259.0,1,0.5387459499796566,0.0
423,423,-0.5925714488725562,-0.6,1,362.0,619.0,1.0,329.0,1,0.3401789267301084,0.0
424,424,0.025943433472113142,0.0,0,348.0,953.0,0.0,2679.0,1,0.2898058996648145,0.0
425,425,0.44781983204426723,0.4,0,309.0,932.0,0.0,409.0,1,0.4208011181981812,0.0
426,426,-0.6738931383499309,-0.7,1,450.0,887.0,1.0,313.0,1,0.4208836867587382,0.0
427,427,-0.32045400566498006,-0.3,1,266.0,666.0,1.0,598.0,1,0.2636453337002588,0.0
428,428,-0.9319157059402932,-0.9,1,278.0,614.0,1.0,178.0,1,0.6417294212119846,0.0
429,429,-0.9301044671540111,-0.9,1,493.0,842.0,1.0,245.0,1,0.7574820516292218,0.0
430,430,-0.820497900927623,-0.8,1,411.0,567.0,1.0,262.0,1,0.6773074081238657,0.0
431,431,0.5669047061365904,0.6,0,478.0,847.0,0.0,155.0,1,0.7399391827816942,0.0
432,432,0.9401209611084931,0.9,0,272.0,922.0,0.0,186.0,1,0.39391470935734174,0.0
433,433,0.12940293470319397,0.1,0,429.0,517.0,0.0,1204.0,1,0.2681977999990433,0.0
434,434,0.31900909970815516,0.3,0,419.0,936.0,0.0,215.0,1,0.8445360044664986,0.0
435,435,-0.9458234997522559,-0.9,1,418.0,802.0,1.0,240.0,1,0.42357366496948434,0.0
436,436,-0.7342336249333887,-0.7,1,258.0,742.0,1.0,500.0,1,0.2085397331086543,0.0
437,437,-0.982561573992798,-1.0,1,340.0,642.0,1.0,238.0,1,0.3982559306900808,0.0
438,438,0.7196003310928003,0.7,0,331.0,886.0,0.0,203.0,1,0.7081696577798624,0.0
439,439,0.10682739560654309,0.1,0,260.0,837.0,0.0,3903.0,1,0.13378605863864845,0.0
440,440,-0.5227219174281323,-0.5,1,342.0,649.0,1.0,179.0,1,0.7831489430375085,0.0
441,441,0.5601813123830606,0.6,0,371.0,819.0,0.0,330.0,1,0.3640649864117227,0.0
442,442,-0.49885922288182427,-0.5,1,284.0,707.0,1.0,1039.0,1,0.1799532720954029,0.0
443,443,0.6846613950685321,0.7,0,496.0,601.0,0.0,463.0,1,0.2739841824513887,0.0
444,444,-0.840826182925005,-0.8,1,479.0,630.0,1.0,661.0,1,0.16546129554206232,0.0
445,445,-0.28945095453351066,-0.3,1,430.0,664.0,1.0,476.0,1,0.9646933719343367,0.0
446,446,0.40503354282162496,0.4,0,306.0,560.0,0.0,474.0,1,0.40454416323835296,0.0
447,447,-0.33296457704011995,-0.3,1,300.0,823.0,1.0,1307.0,1,0.22142870913677054,0.0
448,448,0.8832901198658529,0.9,0,328.0,683.0,0.0,249.0,1,0.5127782090831341,0.0
449,449,0.11949582426516137,0.1,0,404.0,606.0,0.0,1970.0,1,0.3569998071038687,0.0
450,450,0.4023648598361067,0.4,0,312.0,786.0,0.0,392.0,1,0.9307528778587334,0.0
451,451,0.9812108773925647,1.0,0,428.0,993.0,0.0,209.0,1,0.9469961808444166,0.0
452,452,-0.6835473274111432,-0.7,1,277.0,620.0,1.0,273.0,1,0.26280587268869005,0.0
453,453,0.3705666855343104,0.4,0,456.0,711.0,0.0,603.0,1,0.32270394960942805,0.0
454,454,0.5119420761068818,0.5,0,325.0,586.0,0.0,3029.0,1,0.1092640261891339,0.0
455,455,-0.27853691799776303,-0.3,1,324.0,788.0,1.0,1058.0,1,0.27772529144116975,0.0
456,456,-0.6281088660192107,-0.6,1,345.0,574.0,1.0,321.0,1,0.3178931789110505,0.0
457,457,0.4919723747740148,0.5,0,344.0,999.0,0.0,597.0,1,0.316727725118668,0.0
458,458,-0.3846214183839103,-0.4,1,489.0,694.0,1.0,517.0,1,0.6410163400509035,0.0
459,459,-0.36469758103368854,-0.4,1,265.0,776.0,1.0,319.0,1,0.5398299706976376,0.0
460,460,0.50494147390329,0.5,0,450.0,691.0,0.0,199.0,1,0.5311144957594522,0.0
461,461,0.5382133132105604,0.5,0,296.0,990.0,0.0,334.0,1,0.7851813626811709,0.0
462,462,-0.8556918470054906,-0.9,1,372.0,928.0,1.0,320.0,1,0.3585446366308357,0.0
463,463,0.06731547771670088,0.1,0,308.0,770.0,1.0,1082.0,0,0.34779965507971117,0.0
464,464,0.8107524761727165,0.8,0,437.0,983.0,0.0,350.0,1,0.7549204429512856,0.0
465,465,0.9164101516930534,0.9,0,309.0,616.0,0.0,165.0,1,0.45793089800404707,0.0
466,466,0.8723261028308691,0.9,0,409.0,954.0,0.0,387.0,1,0.4833982359485406,0.0
467,467,-0.23378377496581515,-0.2,1,367.0,680.0,1.0,413.0,1,0.4928682933003711,0.0
468,468,-0.7465052493888533,-0.7,1,381.0,840.0,1.0,289.0,1,0.9491041136086861,0.0
469,469,0.49233895032787767,0.5,0,432.0,904.0,0.0,234.0,1,0.6616397430841363,0.0
470,470,-0.5199664745648036,-0.5,1,442.0,539.0,1.0,629.0,1,0.2843422691381342,0.0
471,471,-0.5674738103366499,-0.6,1,293.0,841.0,1.0,306.0,1,0.528520411158109,0.0
472,472,-0.13282878806504606,-0.1,1,413.0,889.0,1.0,678.0,1,0.7043899269228209,0.0
473,473,0.910660489155763,0.9,0,327.0,848.0,0.0,1635.0,1,0.1117778133825914,0.0
474,474,-0.16529259285996045,-0.2,1,406.0,893.0,1.0,971.0,1,0.2288087917961259,0.0
475,475,-0.07342496311551683,-0.1,1,265.0,568.0,1.0,1867.0,1,0.2527680472832831,0.0
476,476,-0.9414235542916729,-0.9,1,358.0,838.0,1.0,194.0,1,0.6343560094590814,0.0
477,477,-0.6046260964557246,-0.6,1,271.0,520.0,1.0,209.0,1,0.9297924813761458,0.0
478,478,0.22409536743245506,0.2,0,325.0,679.0,0.0,256.0,1,0.8502282397444358,0.0
479,479,0.8032534018557529,0.8,0,305.0,847.0,0.0,138.0,1,0.8320419369108173,0.0
480,480,0.8676180758983434,0.9,0,484.0,895.0,0.0,381.0,1,0.3929201132200295,0.0
481,481,-0.016624287672594606,-0.0,1,265.0,678.0,0.0,187.0,0,0.7445685468271244,0.0
482,482,0.34532556499392,0.3,0,399.0,767.0,0.0,304.0,1,0.6831986636792037,0.0
483,483,0.4229484546474265,0.4,0,307.0,647.0,0.0,436.0,1,0.5773402421661462,0.0
484,484,0.7606651428866062,0.8,0,425.0,788.0,0.0,467.0,1,0.27491978703919406,0.0
485,485,-0.4920334215638458,-0.5,1,367.0,719.0,1.0,684.0,1,0.24639220508678478,0.0
486,486,0.039510013701362645,0.0,0,380.0,611.0,0.0,539.0,1,0.7707250425061138,0.0
487,487,0.5265627252399063,0.5,0,432.0,857.0,0.0,221.0,1,0.8545522676082724,0.0
488,488,-0.742713909609954,-0.7,1,492.0,658.0,1.0,180.0,1,0.7514044840101269,0.0
489,489,-0.2624977542592146,-0.3,1,498.0,870.0,1.0,3632.0,1,0.1474194054781391,0.0
490,490,0.13301921377373604,0.1,0,442.0,753.0,0.0,3805.0,1,0.21524176339342335,0.0
491,491,-0.8594274423088173,-0.9,1,477.0,771.0,1.0,142.0,1,0.7856768546269234,0.0
492,492,-0.004259837917406362,-0.0,1,336.0,521.0,0.0,533.0,0,0.7786211326524011,0.0
493,493,0.5347285784573594,0.5,0,466.0,693.0,0.0,261.0,1,0.4049505102267894,0.0
494,494,0.9992788329223168,1.0,0,250.0,964.0,0.0,156.0,1,0.7097801476129714,0.0
495,495,-0.25634857949114775,-0.3,1,431.0,735.0,1.0,354.0,1,0.5251472261334269,0.0
496,496,0.06817638073874632,0.1,0,465.0,822.0,0.0,763.0,1,0.3381259006570957,0.0
497,497,0.9572499408002375,1.0,0,352.0,658.0,0.0,180.0,1,0.4534184216038911,0.0
498,498,0.15313055576512502,0.2,0,366.0,880.0,0.0,524.0,1,0.5668502964548946,0.0
499,499,-0.3331950734328992,-0.3,1,496.0,743.0,1.0,3761.0,1,0.13426465031111412,0.0
500,500,-0.15686391158206425,-0.2,1,309.0,990.0,1.0,311.0,1,0.5890453780339143,0.0
501,501,-0.8364979636493095,-0.8,1,446.0,571.0,1.0,303.0,1,0.792951906327277,0.0
502,502,0.023508957754446946,0.0,0,425.0,524.0,0.0,4051.0,1,0.1303546159463913,0.0
503,503,-0.6246488706701874,-0.6,1,376.0,918.0,1.0,316.0,1,0.5658963832414684,0.0
504,504,-0.8172867482932951,-0.8,1,275.0,903.0,1.0,1142.0,1,0.11853884062076275,0.0
505,505,-0.42310505371814044,-0.4,1,381.0,713.0,1.0,2076.0,1,0.14387003566215806,0.0
506,506,-0.4260832138766193,-0.4,1,473.0,682.0,1.0,485.0,1,0.3042249512825727,0.0
507,507,-0.2185095921660385,-0.2,1,455.0,961.0,1.0,374.0,1,0.5389315874423152,0.0
508,508,-0.3650252230077955,-0.4,1,267.0,717.0,1.0,366.0,1,0.7231418890055784,0.0
509,509,-0.8037390664415669,-0.8,1,346.0,917.0,1.0,187.0,1,0.8084627960716709,0.0
510,510,-0.3139983600786218,-0.3,1,462.0,892.0,1.0,306.0,1,0.6404698721773777,0.0
511,511,-0.33410404496971635,-0.3,1,309.0,587.0,1.0,324.0,1,0.9517956665615593,0.0
512,512,-0.5927395937662929,-0.6,1,486.0,871.0,1.0,323.0,1,0.5261070857530634,0.0
513,513,0.7830673960395389,0.8,0,331.0,519.0,0.0,350.0,1,0.5362820898613359,0.0
514,514,0.966802819836023,1.0,0,463.0,847.0,0.0,170.0,1,0.9125991270203222,0.0
515,515,0.35302732974203854,0.4,0,406.0,538.0,0.0,216.0,1,0.9967216399708765,0.0
516,516,-0.7709794343644565,-0.8,1,450.0,839.0,1.0,201.0,1,0.906234964953713,0.0
517,517,0.10526449275252303,0.1,0,370.0,560.0,0.0,930.0,1,0.2663370164966732,0.0
518,518,-0.7211804725755175,-0.7,1,284.0,952.0,1.0,234.0,1,0.5553170211415038,0.0
519,519,-0.811760141199426,-0.8,1,263.0,512.0,1.0,355.0,1,0.6890920655486963,0.0
520,520,0.5799771647979881,0.6,0,331.0,600.0,0.0,269.0,1,0.5448856244929061,0.0
521,521,-0.805352920785896,-0.8,1,479.0,903.0,1.0,268.0,1,0.540184555856411,0.0
522,522,-0.6379162609364712,-0.6,1,341.0,686.0,1.0,223.0,1,0.7332017962176846,0.0
523,523,0.6663062461920506,0.7,0,424.0,916.0,0.0,370.0,1,0.7627696256152069,0.0
524,524,-0.5278255836322234,-0.5,1,455.0,705.0,1.0,910.0,1,0.19532487774309498,0.0
525,525,0.48229708730585363,0.5,0,300.0,818.0,0.0,762.0,1,0.23293421091153543,0.0
526,526,-0.7779442266447334,-0.8,1,257.0,737.0,1.0,236.0,1,0.8862833215556394,0.0
527,527,0.4966442011146497,0.5,0,330.0,832.0,0.0,348.0,1,0.7475978382705817,0.0
528,528,-0.18265687310701062,-0.2,1,373.0,883.0,1.0,3744.0,1,0.11831047891036542,0.0
529,529,0.0843090117945493,0.1,0,434.0,932.0,1.0,784.0,0,0.6030192624955718,0.0
530,530,0.9676983971929347,1.0,0,331.0,986.0,0.0,193.0,1,0.8317955288330724,0.0
531,531,-0.8070844102173222,-0.8,1,361.0,849.0,1.0,200.0,1,0.8101234197616244,0.0
532,532,-0.06963275359931331,-0.1,1,392.0,747.0,1.0,1151.0,1,0.4623230094221904,0.0
533,533,-0.5801204763254477,-0.6,1,329.0,900.0,1.0,181.0,1,0.9666799842833435,0.0
534,534,0.6859984326533763,0.7,0,356.0,656.0,0.0,198.0,1,0.9277774931751613,0.0
535,535,-0.003960632799915098,-0.0,1,398.0,744.0,1.0,228.0,1,0.6566525657218267,0.0
536,536,0.6124792410911106,0.6,0,407.0,894.0,0.0,249.0,1,0.7400476642222428,0.0
537,537,0.9486992816350774,0.9,0,476.0,964.0,0.0,260.0,1,0.6956319113349335,0.0
538,538,0.15613219459885674,0.2,0,350.0,730.0,0.0,400.0,1,0.6783634358182216,0.0
539,539,0.4658877738774043,0.5,0,317.0,515.0,0.0,258.0,1,0.8604385892427256,0.0
540,540,0.24190013944182764,0.2,0,300.0,737.0,0.0,3963.0,1,0.12366565032468477,0.0
541,541,0.7587379847895674,0.8,0,292.0,738.0,0.0,310.0,1,0.478559651667558,0.0
542,542,0.10587290557279094,0.1,0,366.0,578.0,1.0,1166.0,0,0.38154110906305905,0.0
543,543,-0.4927444294190575,-0.5,1,465.0,518.0,1.0,577.0,1,0.2520230188441337,0.0
544,544,-0.28931192128071426,-0.3,1,443.0,643.0,1.0,734.0,1,0.23249029287849923,0.0
545,545,-0.848859688350929,-0.8,1,484.0,935.0,1.0,1061.0,1,0.10846339395921774,0.0
546,546,0.7971261663375129,0.8,0,360.0,755.0,0.0,195.0,1,0.5954315799885307,0.0
547,547,-0.3654980258346754,-0.4,1,408.0,720.0,1.0,392.0,1,0.7156221060909341,0.0
548,548,0.25750356439409483,0.3,0,325.0,843.0,0.0,3702.0,1,0.17227940945911202,0.0
549,549,0.9955220110372236,1.0,0,452.0,914.0,0.0,234.0,1,0.5007246772065408,0.0
550,550,0.8018906321802344,0.8,0,343.0,798.0,0.0,179.0,1,0.9328227283330655,0.0
551,551,-0.4313846834461097,-0.4,1,253.0,960.0,1.0,317.0,1,0.49736035614801977,0.0
552,552,-0.5189197731655069,-0.5,1,382.0,932.0,1.0,296.0,1,0.3319745898852072,0.0
553,553,0.020372875596554207,0.0,0,402.0,625.0,1.0,3973.0,0,0.18850041526284456,0.0
554,554,0.0730229775197051,0.1,0,306.0,987.0,1.0,3707.0,0,0.17581301267028698,0.0
555,555,-0.03537046155414303,-0.0,1,476.0,543.0,1.0,1441.0,1,0.19595524892499483,0.0
556,556,-0.261826249252217,-0.3,1,391.0,971.0,1.0,718.0,1,0.7646310277373287,0.0
557,557,-0.38195334225481936,-0.4,1,382.0,555.0,1.0,333.0,1,0.6301091220713518,0.0
558,558,-0.5678546666720161,-0.6,1,341.0,579.0,1.0,220.0,1,0.8051417958207084,0.0
559,559,-0.3982043838064804,-0.4,1,272.0,893.0,1.0,405.0,1,0.616990207227166,0.0
560,560,0.35819514821985265,0.4,0,471.0,588.0,0.0,231.0,1,0.6448552612474967,0.0
561,561,0.7263756521238427,0.7,0,319.0,820.0,0.0,341.0,1,0.21936251328457085,0.0
562,562,-0.8571270358354928,-0.9,1,375.0,771.0,1.0,424.0,1,0.49009725708175944,0.0
563,563,0.003954144406050686,0.0,0,466.0,933.0,0.0,471.0,1,0.6087702926878895,0.0
564,564,0.05806621428760761,0.1,0,253.0,767.0,0.0,260.0,1,0.937839439818137,0.0
565,565,-0.8361629222738722,-0.8,1,371.0,731.0,1.0,308.0,1,0.3658106540636967,0.0
566,566,-0.4331883106127974,-0.4,1,304.0,763.0,1.0,343.0,1,0.6903177411299073,0.0
567,567,0.0748463645201396,0.1,0,416.0,791.0,1.0,3793.0,0,0.18115383229344773,0.0
568,568,0.5871093745127876,0.6,0,428.0,561.0,0.0,171.0,1,0.9480635320409717,0.0
569,569,-0.8099492144927438,-0.8,1,299.0,613.0,1.0,198.0,1,0.8361154970150918,0.0
570,570,-0.5394692903406093,-0.5,1,418.0,864.0,1.0,328.0,1,0.7302078757451492,0.0
571,571,-0.9975071477509305,-1.0,1,453.0,788.0,1.0,249.0,1,0.5478632524511645,0.0
572,572,0.022440360278902283,0.0,0,367.0,691.0,0.0,1032.0,1,0.3744646313833937,0.0
573,573,-0.6930940480178072,-0.7,1,404.0,675.0,1.0,201.0,1,0.6685905556763942,0.0
574,574,0.04826670342758632,0.0,0,345.0,539.0,0.0,4116.0,1,0.14482212332954766,0.0
575,575,0.006960708667664628,0.0,0,331.0,734.0,0.0,495.0,1,0.8637290909636569,0.0
576,576,0.43832084063455756,0.4,0,381.0,711.0,0.0,218.0,1,0.5205582769540515,0.0
577,577,-0.4761688610649575,-0.5,1,362.0,647.0,1.0,3991.0,1,0.11744884759802626,0.0
578,578,0.7781780613550373,0.8,0,365.0,953.0,0.0,322.0,1,0.4748798029218453,0.0
579,579,0.8821204387296122,0.9,0,373.0,950.0,0.0,247.0,1,0.39366653539611507,0.0
580,580,0.7320273553386578,0.7,0,404.0,742.0,0.0,384.0,1,0.3032446875836281,0.0
581,581,0.9995193549331636,1.0,0,495.0,683.0,0.0,322.0,1,0.40872250339183214,0.0
582,582,0.8892774169781812,0.9,0,324.0,710.0,0.0,236.0,1,0.9630271716203607,0.0
583,583,0.16221720944794082,0.2,0,463.0,779.0,0.0,1738.0,1,0.27263912766223186,0.0
584,584,-0.8761279650529712,-0.9,1,386.0,881.0,1.0,323.0,1,0.2836673316308309,0.0
585,585,0.9844934080123982,1.0,0,417.0,515.0,0.0,288.0,1,0.38865195100018013,0.0
586,586,0.08853670881934383,0.1,0,263.0,567.0,1.0,540.0,0,0.739871467276174,0.0
587,587,0.8565673052842191,0.9,0,284.0,684.0,0.0,612.0,1,0.14163329219842624,0.0
588,588,0.15543927153497195,0.2,0,358.0,977.0,0.0,825.0,1,0.21338868294685548,0.0
589,589,0.8592925371372437,0.9,0,336.0,859.0,0.0,1195.0,1,0.10770316471438374,0.0
590,590,0.3454663272674898,0.3,0,296.0,624.0,0.0,440.0,1,0.492030318347658,0.0
591,591,0.35981370918063127,0.4,0,361.0,776.0,0.0,673.0,1,0.3763010823555044,0.0
592,592,-0.21104352188306463,-0.2,1,383.0,640.0,1.0,607.0,1,0.47796073494310964,0.0
593,593,0.7158052015111498,0.7,0,268.0,816.0,0.0,596.0,1,0.23501752361644646,0.0
594,594,0.1743359102276698,0.2,0,499.0,718.0,0.0,223.0,1,0.5952767200706777,0.0
595,595,-0.5479662060492803,-0.5,1,294.0,746.0,1.0,880.0,1,0.17395162701769093,0.0
596,596,0.5787065155657385,0.6,0,493.0,814.0,0.0,253.0,1,0.7855382419810675,0.0
597,597,-0.8589682584123566,-0.9,1,409.0,598.0,1.0,343.0,1,0.23109713939462367,0.0
598,598,-0.06363626036459191,-0.1,1,423.0,899.0,1.0,988.0,1,0.31322756892449105,0.0
599,599,0.1485039025019539,0.1,0,309.0,716.0,0.0,555.0,1,0.7828591537516781,0.0
600,600,-0.9608964746139523,-1.0,1,367.0,943.0,1.0,230.0,1,0.9722715383451364,0.0
601,601,-0.049540929222806396,-0.0,1,408.0,985.0,1.0,567.0,1,0.6553881236966805,0.0
602,602,-0.7289850522995804,-0.7,1,315.0,789.0,1.0,416.0,1,0.3754635422726613,0.0
603,603,-0.5632055715473956,-0.6,1,271.0,684.0,1.0,245.0,1,0.5987891376168735,0.0
604,604,-0.7385155673347696,-0.7,1,387.0,884.0,1.0,319.0,1,0.5030490829708092,0.0
605,605,-0.3735422168514335,-0.4,1,328.0,855.0,1.0,367.0,1,0.45461070706338036,0.0
606,606,-0.8644536501256386,-0.9,1,385.0,998.0,1.0,267.0,1,0.43625008709217805,0.0
607,607,0.46962211056034975,0.5,0,477.0,901.0,0.0,222.0,1,0.9687267303819541,0.0
608,608,0.040691175340083374,0.0,0,352.0,677.0,0.0,331.0,1,0.6489369803971827,0.0
609,609,0.5449743837388157,0.5,0,462.0,872.0,0.0,276.0,1,0.5130971224749279,0.0
610,610,-0.6171761605818287,-0.6,1,333.0,677.0,1.0,230.0,1,0.8436032081249085,0.0
611,611,0.7364223845627045,0.7,0,295.0,865.0,0.0,910.0,1,0.15297314759211894,0.0
612,612,-0.45192764444695976,-0.5,1,254.0,813.0,1.0,3933.0,1,0.10581018870677171,0.0
613,613,0.5056154826186701,0.5,0,302.0,995.0,0.0,193.0,1,0.6539228620890039,0.0
614,614,-0.3314110623587323,-0.3,1,323.0,669.0,1.0,148.0,1,0.8815388780346154,0.0
615,615,-0.8704539874926076,-0.9,1,354.0,591.0,1.0,245.0,1,0.9334578574699529,0.0
616,616,-0.01992585374575251,-0.0,1,312.0,620.0,1.0,338.0,1,0.8393124271838466,0.0
617,617,-0.9181290943328437,-0.9,1,362.0,938.0,1.0,280.0,1,0.34836186592056106,0.0
618,618,-0.6895889607041241,-0.7,1,460.0,629.0,1.0,391.0,1,0.4918754914280241,0.0
619,619,0.998791394593527,1.0,0,425.0,930.0,0.0,225.0,1,0.7325334826261782,0.0
620,620,-0.12439026705331946,-0.1,1,301.0,955.0,1.0,2194.0,1,0.15544450354929748,0.0
621,621,0.5910299299066011,0.6,0,414.0,595.0,0.0,191.0,1,0.803912305626198,0.0
622,622,-0.22254035321347443,-0.2,1,472.0,697.0,1.0,361.0,1,0.8717083357754625,0.0
623,623,0.19446001062247498,0.2,0,499.0,952.0,0.0,319.0,1,0.7036636006916712,0.0
624,624,0.4640813716160821,0.5,0,377.0,581.0,0.0,222.0,1,0.6953819297643385,0.0
625,625,0.3850478156228456,0.4,0,251.0,717.0,0.0,332.0,1,0.915443494750026,0.0
626,626,-0.859154899498277,-0.9,1,403.0,815.0,1.0,322.0,1,0.22279906690009238,0.0
627,627,-0.5443913488561134,-0.5,1,308.0,782.0,1.0,280.0,1,0.9625209571571025,0.0
628,628,-0.9243294428730615,-0.9,1,454.0,530.0,1.0,216.0,1,0.7106488824349699,0.0
629,629,0.2113981878583182,0.2,0,386.0,861.0,0.0,353.0,1,0.6703859169024842,0.0
630,630,0.9567640709985559,1.0,0,489.0,848.0,0.0,263.0,1,0.35297806595275094,0.0
631,631,0.006427679954540411,0.0,0,451.0,545.0,0.0,644.0,1,0.43495584912760754,0.0
632,632,-0.9730999167447638,-1.0,1,404.0,963.0,1.0,243.0,1,0.322585509398679,0.0
633,633,0.5145434808828899,0.5,0,419.0,692.0,0.0,339.0,1,0.5430772356000592,0.0
634,634,-0.4259206362262602,-0.4,1,454.0,849.0,1.0,227.0,1,0.5594437938943229,0.0
635,635,-0.08364007925450068,-0.1,1,259.0,557.0,1.0,1134.0,1,0.23420476710646826,0.0
636,636,0.938429008377117,0.9,0,418.0,878.0,0.0,264.0,1,0.5677688234716757,0.0
637,637,-0.2626315050248553,-0.3,1,476.0,566.0,1.0,338.0,1,0.6453558798353269,0.0
638,638,0.42870572819485386,0.4,0,478.0,858.0,0.0,414.0,1,0.399425325620697,0.0
639,639,-0.3112013915557239,-0.3,1,420.0,621.0,1.0,669.0,1,0.227179632442282,0.0
640,640,0.46217088916420335,0.5,0,286.0,946.0,0.0,158.0,1,0.5714449575927426,0.0
641,641,0.6946067549950421,0.7,0,414.0,582.0,0.0,254.0,1,0.7753882442901263,0.0
642,642,0.7958646335372095,0.8,0,419.0,947.0,0.0,534.0,1,0.2006336170744764,0.0
643,643,0.7429590610184533,0.7,0,394.0,516.0,0.0,180.0,1,0.7980821703504583,0.0
644,644,-0.8274354989616282,-0.8,1,318.0,909.0,1.0,353.0,1,0.4871506131535672,0.0
645,645,0.2561874199770191,0.3,0,355.0,850.0,0.0,395.0,1,0.87495152876582,0.0
646,646,0.6514220409181577,0.7,0,307.0,818.0,0.0,735.0,1,0.1843282399105975,0.0
647,647,0.8623580535812918,0.9,0,470.0,540.0,0.0,320.0,1,0.31349073462811117,0.0
648,648,0.2232724966278099,0.2,0,433.0,914.0,0.0,403.0,1,0.86022761289764,0.0
649,649,0.39978799832014,0.4,0,310.0,633.0,0.0,577.0,1,0.3549074007607128,0.0
650,650,-0.9843183080096702,-1.0,1,430.0,535.0,1.0,175.0,1,0.7045322428200553,0.0
651,651,0.8908352243319244,0.9,0,426.0,592.0,0.0,172.0,1,0.9841876751473454,0.0
652,652,0.1850705461787039,0.2,0,387.0,556.0,0.0,327.0,1,0.4286707680332823,0.0
653,653,0.878369108841693,0.9,0,326.0,625.0,0.0,189.0,1,0.46991137573100894,0.0
654,654,0.010713513178951972,0.0,0,300.0,778.0,0.0,662.0,1,0.4359120785830579,0.0
655,655,0.7914926116946259,0.8,0,459.0,506.0,0.0,455.0,1,0.22866147409534104,0.0
656,656,-0.27568578342478567,-0.3,1,445.0,572.0,1.0,223.0,1,0.7449188252859206,0.0
657,657,-0.5554605090431939,-0.6,1,283.0,866.0,1.0,241.0,1,0.6656171976057044,0.0
658,658,-0.7723898987906379,-0.8,1,407.0,918.0,1.0,185.0,1,0.7146620101558917,0.0
659,659,-0.49243872520018783,-0.5,1,370.0,683.0,1.0,307.0,1,0.615220649654593,0.0
660,660,0.9152839207566226,0.9,0,320.0,596.0,0.0,224.0,1,0.9014678028173871,0.0
661,661,-0.8960450791114483,-0.9,1,447.0,944.0,1.0,609.0,1,0.1831153085614023,0.0
662,662,-0.25663887010920483,-0.3,1,391.0,776.0,1.0,253.0,1,0.580814073322771,0.0
663,663,0.48734389143895607,0.5,0,344.0,843.0,0.0,363.0,1,0.29958374043782054,0.0
664,664,-0.9049985103738336,-0.9,1,468.0,511.0,1.0,211.0,1,0.6029430696040696,0.0
665,665,-0.06368713882331556,-0.1,1,456.0,763.0,1.0,321.0,1,0.8320471614729308,0.0
666,666,0.9872064867395964,1.0,0,416.0,974.0,0.0,220.0,1,0.611079304392995,0.0
667,667,-0.20655554257154107,-0.2,1,386.0,737.0,1.0,3877.0,1,0.12910309168455966,0.0
668,668,-0.5923216331626528,-0.6,1,304.0,982.0,1.0,424.0,1,0.31051049326886915,0.0
669,669,0.7037449512235303,0.7,0,470.0,586.0,0.0,264.0,1,0.7089852916893331,0.0
670,670,-0.33942200429926883,-0.3,1,311.0,984.0,1.0,585.0,1,0.43037169246551965,0.0
671,671,0.7315105687646521,0.7,0,330.0,843.0,0.0,157.0,1,0.7273850454615238,0.0
672,672,-0.5352537381271747,-0.5,1,391.0,943.0,1.0,346.0,1,0.3978424956507113,0.0
673,673,-0.40053072158090464,-0.4,1,293.0,749.0,1.0,338.0,1,0.8325688519783424,0.0
674,674,-0.4687626135205749,-0.5,1,282.0,886.0,1.0,222.0,1,0.5276518552839242,0.0
675,675,0.6675289841716858,0.7,0,268.0,626.0,0.0,316.0,1,0.7207706760668243,0.0
676,676,0.6723878302975352,0.7,0,273.0,662.0,0.0,355.0,1,0.5854216427739554,0.0
677,677,-0.7925672473672891,-0.8,1,353.0,681.0,1.0,356.0,1,0.2275803757076147,0.0
678,678,-0.16680513761277838,-0.2,1,329.0,879.0,1.0,582.0,1,0.40219703415527397,0.0
679,679,-0.11788408939553818,-0.1,1,309.0,619.0,1.0,1002.0,1,0.3167567110371502,0.0
680,680,-0.7482669387201353,-0.7,1,287.0,947.0,1.0,296.0,1,0.33769876295789614,0.0
681,681,-0.8626377323562167,-0.9,1,351.0,984.0,1.0,175.0,1,0.8879162652474117,0.0
682,682,0.30429999208126635,0.3,0,462.0,882.0,0.0,366.0,1,0.38663807189145327,0.0
683,683,-0.6945931291453196,-0.7,1,328.0,980.0,1.0,202.0,1,0.9386740397095946,0.0
684,684,-0.7151446154063612,-0.7,1,377.0,676.0,1.0,227.0,1,0.6553222438646706,0.0
685,685,0.6749209138697649,0.7,0,320.0,794.0,0.0,366.0,1,0.2565678604870869,0.0
686,686,-0.3281642544263319,-0.3,1,405.0,800.0,1.0,325.0,1,0.37524666325126876,0.0
687,687,0.6475424756632662,0.6,0,420.0,526.0,0.0,284.0,1,0.8777882069147793,0.0
688,688,-0.1000837850519114,-0.1,1,256.0,810.0,1.0,1274.0,1,0.3968180251997986,0.0
689,689,0.9552821283134605,1.0,0,463.0,792.0,0.0,165.0,1,0.7423718001897502,0.0
690,690,0.7002491345019686,0.7,0,275.0,736.0,0.0,389.0,1,0.3404854322097337,0.0
691,691,0.7804328354267462,0.8,0,303.0,999.0,0.0,188.0,1,0.7109035311719927,0.0
692,692,0.39582811742076096,0.4,0,438.0,733.0,0.0,809.0,1,0.23839911627288743,0.0
693,693,-0.005694499679109066,-0.0,1,455.0,544.0,1.0,4001.0,1,0.12260294130920318,0.0
694,694,-0.6432596077112942,-0.6,1,381.0,918.0,1.0,451.0,1,0.3636754910306337,0.0
695,695,-0.464121207458029,-0.5,1,309.0,894.0,1.0,1327.0,1,0.14490652814186347,0.0
696,696,-0.7721089745488614,-0.8,1,319.0,777.0,1.0,334.0,1,0.4564833111213259,0.0
697,697,0.08536033851732627,0.1,0,360.0,634.0,0.0,3456.0,1,0.27050145180387564,0.0
698,698,0.5456144656271005,0.5,0,464.0,883.0,0.0,383.0,1,0.6166509031437768,0.0
699,699,-0.9778358411843173,-1.0,1,327.0,893.0,1.0,340.0,1,0.4400192654949435,0.0
700,700,-0.08149677387330123,-0.1,1,466.0,504.0,1.0,670.0,1,0.9424199240353329,0.0
701,701,0.2423806954826624,0.2,0,288.0,704.0,0.0,2178.0,1,0.16456527192412823,0.0
702,702,-0.6756118415850036,-0.7,1,291.0,642.0,1.0,267.0,1,0.34140204517245376,0.0
703,703,-0.7024099846508991,-0.7,1,285.0,954.0,1.0,381.0,1,0.28790993723696323,0.0
704,704,-0.11339409000078393,-0.1,1,365.0,578.0,1.0,557.0,1,0.6469892012994579,0.0
705,705,-0.05639353903606947,-0.1,1,311.0,914.0,1.0,505.0,1,0.6110476033054687,0.0
706,706,0.710402840447049,0.7,0,351.0,882.0,0.0,217.0,1,0.9521613143612857,0.0
707,707,0.4724881803204797,0.5,0,424.0,512.0,0.0,334.0,1,0.9446127216862653,0.0
708,708,0.7935358057398869,0.8,0,347.0,515.0,0.0,258.0,1,0.3388296153241803,0.0
709,709,-0.3338028629064982,-0.3,1,477.0,988.0,1.0,205.0,1,0.7565390460879907,0.0
710,710,-0.8375558674714993,-0.8,1,309.0,904.0,1.0,577.0,1,0.21616242164870747,0.0
711,711,-0.891510928034734,-0.9,1,454.0,952.0,1.0,254.0,1,0.9483550338426184,0.0
712,712,-0.28218813561469536,-0.3,1,274.0,699.0,1.0,1027.0,1,0.2181965937567909,0.0
713,713,-0.06372612055466331,-0.1,1,432.0,949.0,1.0,439.0,1,0.4519957576992102,0.0
714,714,-0.5242179722870592,-0.5,1,492.0,816.0,1.0,312.0,1,0.9547759838798904,0.0
715,715,-0.9959186467644057,-1.0,1,308.0,701.0,1.0,351.0,1,0.6200588180206473,0.0
716,716,0.7270478077642997,0.7,0,387.0,652.0,0.0,211.0,1,0.4669071937422452,0.0
717,717,0.4949584679975041,0.5,0,304.0,770.0,0.0,166.0,1,0.9371269931000815,0.0
718,718,0.6218231334483038,0.6,0,358.0,830.0,0.0,192.0,1,0.8470348367730659,0.0
719,719,-0.7048719959158838,-0.7,1,423.0,632.0,1.0,205.0,1,0.9466469859201944,0.0
720,720,-0.12265033787251078,-0.1,1,305.0,614.0,1.0,651.0,1,0.7043580566335516,0.0
721,721,0.65526626155357,0.7,0,476.0,928.0,0.0,386.0,1,0.20824794626066123,0.0
722,722,0.022477749815478454,0.0,0,482.0,650.0,0.0,3868.0,1,0.19499337922222085,0.0
723,723,-0.3369942937625452,-0.3,1,446.0,677.0,1.0,1757.0,1,0.15406792610178416,0.0
724,724,-0.670987486002101,-0.7,1,307.0,681.0,1.0,242.0,1,0.9367483287384296,0.0
725,725,-0.9749300823776292,-1.0,1,450.0,913.0,1.0,567.0,1,0.1307074829192769,0.0
726,726,-0.7949065709111249,-0.8,1,304.0,604.0,1.0,862.0,1,0.1423643281515352,0.0
727,727,-0.7291823615143185,-0.7,1,255.0,915.0,1.0,610.0,1,0.14489666189914616,0.0
728,728,0.039510067710312624,0.0,0,450.0,733.0,0.0,3817.0,1,0.1031541060493238,0.0
729,729,0.2908059813069015,0.3,0,395.0,825.0,0.0,420.0,1,0.8287990351417167,0.0
730,730,-0.392183828877142,-0.4,1,440.0,976.0,1.0,394.0,1,0.8906753181957406,0.0
731,731,0.2887693019567281,0.3,0,312.0,923.0,0.0,265.0,1,0.4934229094581547,0.0
732,732,-0.2477495417715383,-0.2,1,444.0,626.0,1.0,420.0,1,0.875472573325778,0.0
733,733,0.32852800455640385,0.3,0,330.0,850.0,0.0,360.0,1,0.8248094764384507,0.0
734,734,0.10229251997425837,0.1,0,360.0,576.0,0.0,4064.0,1,0.1416531815830409,0.0
735,735,0.9088013533473085,0.9,0,361.0,624.0,0.0,715.0,1,0.11258891469107701,0.0
736,736,0.4690946936168059,0.5,0,447.0,710.0,0.0,493.0,1,0.8758158041467683,0.0
737,737,0.9210949309751335,0.9,0,291.0,675.0,0.0,334.0,1,0.36383855139562293,0.0
738,738,-0.8158308410533044,-0.8,1,326.0,924.0,1.0,300.0,1,0.6046792987272941,0.0
739,739,0.6855751162777308,0.7,0,439.0,594.0,0.0,287.0,1,0.5437677324621518,0.0
740,740,-0.8726177696797544,-0.9,1,380.0,894.0,1.0,356.0,1,0.25881979943589517,0.0
741,741,0.42584632796552224,0.4,0,255.0,769.0,0.0,386.0,1,0.6517795340360215,0.0
742,742,0.39390991468879366,0.4,0,455.0,539.0,0.0,436.0,1,0.4766376494023048,0.0
743,743,0.274283774013216,0.3,0,277.0,801.0,0.0,342.0,1,0.9139318267957307,0.0
744,744,0.7104939517839377,0.7,0,348.0,584.0,0.0,268.0,1,0.7169736891902053,0.0
745,745,0.5437804409368028,0.5,0,418.0,774.0,0.0,198.0,1,0.7356221070329539,0.0
746,746,0.5853169208138191,0.6,0,436.0,720.0,0.0,244.0,1,0.7792652902730846,0.0
747,747,0.29184561236609263,0.3,0,381.0,752.0,0.0,577.0,1,0.3380655516173776,0.0
748,748,0.070524299673423,0.1,0,433.0,732.0,0.0,1045.0,1,0.7365290768833418,0.0
749,749,0.03917700602939633,0.0,0,299.0,766.0,1.0,3415.0,0,0.24632247713151845,0.0
750,750,-0.5298868330411743,-0.5,1,331.0,504.0,1.0,235.0,1,0.6827959011252646,0.0
751,751,0.9030296097485448,0.9,0,254.0,790.0,0.0,376.0,1,0.23260323168194244,0.0
752,752,-0.9917905251494026,-1.0,1,425.0,671.0,1.0,194.0,1,0.7021314255875628,0.0
753,753,-0.11303154198999299,-0.1,1,476.0,835.0,1.0,1079.0,1,0.36083850605079293,0.0
754,754,0.5567958619332911,0.6,0,465.0,834.0,0.0,321.0,1,0.2917715693131025,0.0
755,755,0.15022876160308685,0.2,0,264.0,973.0,0.0,273.0,1,0.6562205881515503,0.0
756,756,0.40956925102426456,0.4,0,297.0,616.0,0.0,277.0,1,0.7459395318260683,0.0
757,757,0.6566801547626184,0.7,0,357.0,506.0,0.0,257.0,1,0.7832803452995645,0.0
758,758,0.5254928350148931,0.5,0,311.0,727.0,0.0,472.0,1,0.45704450015373443,0.0
759,759,0.2594791805094021,0.3,0,485.0,930.0,0.0,285.0,1,0.4304206585014896,0.0
760,760,-0.8698081766929455,-0.9,1,430.0,589.0,1.0,1961.0,1,0.11673762561189313,0.0
761,761,0.4217240433627587,0.4,0,456.0,938.0,0.0,496.0,1,0.7390127632148199,0.0
762,762,0.15748688487517803,0.2,0,425.0,995.0,0.0,1560.0,1,0.2640289700243209,0.0
763,763,0.2485867905339203,0.2,0,319.0,884.0,0.0,327.0,1,0.7359565031435324,0.0
764,764,0.3244844477132032,0.3,0,322.0,827.0,0.0,251.0,1,0.5547629185045523,0.0
765,765,0.6012962269101498,0.6,0,426.0,840.0,0.0,274.0,1,0.26037696573608493,0.0
766,766,0.7863128439473275,0.8,0,258.0,999.0,0.0,303.0,1,0.9445869209044592,0.0
767,767,0.8959867935786141,0.9,0,370.0,643.0,0.0,347.0,1,0.2584086421223716,0.0
768,768,0.7225702112978658,0.7,0,478.0,732.0,0.0,180.0,1,0.5980550704325183,0.0
769,769,0.04007847110926788,0.0,0,491.0,970.0,1.0,1299.0,0,0.39920268283801164,0.0
770,770,0.4663302749003957,0.5,0,488.0,513.0,0.0,259.0,1,0.4894560186150425,0.0
771,771,0.8552694658418936,0.9,0,469.0,814.0,0.0,127.0,1,0.5020929684798705,0.0
772,772,-0.4435351352381198,-0.4,1,254.0,933.0,1.0,643.0,1,0.24093509232594604,0.0
773,773,0.8121165057684774,0.8,0,408.0,848.0,0.0,234.0,1,0.7054142242817311,0.0
774,774,-0.9903988088027538,-1.0,1,406.0,861.0,1.0,213.0,1,0.5252571713408527,0.0
775,775,-0.8708011055954126,-0.9,1,493.0,585.0,1.0,192.0,1,0.9930693628862488,0.0
776,776,0.09316030062688019,0.1,0,478.0,836.0,1.0,216.0,0,0.7153628509104031,0.0
777,777,0.21468830402667916,0.2,0,427.0,985.0,0.0,1568.0,1,0.2129330873584575,0.0
778,778,0.738429698183056,0.7,0,380.0,807.0,0.0,363.0,1,0.6364897026978839,0.0
779,779,-0.7308958193761519,-0.7,1,309.0,589.0,1.0,462.0,1,0.4377779012881712,0.0
780,780,-0.4093066862376291,-0.4,1,481.0,745.0,1.0,194.0,1,0.9881633798155945,0.0
781,781,-0.643879388647115,-0.6,1,478.0,549.0,1.0,303.0,1,0.9075700922220005,0.0
782,782,-0.3971231568345903,-0.4,1,341.0,590.0,1.0,209.0,1,0.7659354176274756,0.0
783,783,-0.1317220456591821,-0.1,1,260.0,654.0,1.0,3116.0,1,0.18358850260937049,0.0
784,784,0.2865050410159111,0.3,0,453.0,663.0,0.0,1014.0,1,0.196063510698884,0.0
785,785,-0.8596469475891049,-0.9,1,499.0,543.0,1.0,208.0,1,0.6085233548916409,0.0
786,786,0.13853292910330017,0.1,0,286.0,928.0,0.0,226.0,1,0.9508825822355224,0.0
787,787,0.4176038850861581,0.4,0,271.0,564.0,0.0,375.0,1,0.7894710548533751,0.0
788,788,0.7405199882609874,0.7,0,261.0,544.0,0.0,205.0,1,0.6047166429331114,0.0
789,789,0.7714270598257567,0.8,0,349.0,520.0,0.0,291.0,1,0.3073026976166549,0.0
790,790,-0.6940057880874912,-0.7,1,277.0,592.0,1.0,1101.0,1,0.13239024654055664,0.0
791,791,-0.16813889352220213,-0.2,1,443.0,802.0,1.0,3755.0,1,0.1240962116432544,0.0
792,792,0.33036119639507966,0.3,0,421.0,729.0,0.0,270.0,1,0.47816457579082994,0.0
793,793,-0.8482780153613334,-0.8,1,271.0,554.0,1.0,255.0,1,0.8939738694116581,0.0
794,794,-0.5595297284095124,-0.6,1,264.0,647.0,1.0,139.0,1,0.9873009987533677,0.0
795,795,-0.28180690036425515,-0.3,1,449.0,575.0,1.0,536.0,1,0.3182552160315045,0.0
796,796,0.5520351379675397,0.6,0,411.0,534.0,0.0,255.0,1,0.3584425073605405,0.0
797,797,0.8689674082044867,0.9,0,347.0,738.0,0.0,175.0,1,0.7166258472896028,0.0
798,798,-0.3845267456042074,-0.4,1,262.0,502.0,1.0,1016.0,1,0.17614046307009057,0.0
799,799,0.8678064110596135,0.9,0,256.0,547.0,0.0,717.0,1,0.125788460009217,0.0
800,800,0.7116536617833078,0.7,0,398.0,548.0,0.0,414.0,1,0.2601226329938724,0.0
801,801,0.24386520631728237,0.2,0,382.0,994.0,0.0,514.0,1,0.5437116361567593,0.0
802,802,-0.46729836222614796,-0.5,1,452.0,650.0,1.0,368.0,1,0.4793093432161958,0.0
803,803,0.3603501505059057,0.4,0,336.0,687.0,0.0,407.0,1,0.841410826756696,0.0
804,804,-0.6876724594795929,-0.7,1,351.0,679.0,1.0,240.0,1,0.8491702419433359,0.0
805,805,-0.042609293008687654,-0.0,1,426.0,792.0,1.0,312.0,1,0.9150384825382475,0.0
806,806,0.6258595644480822,0.6,0,278.0,989.0,0.0,193.0,1,0.8277824679276664,0.0
807,807,-0.8581059340819972,-0.9,1,309.0,887.0,1.0,434.0,1,0.2591395633259228,0.0
808,808,-0.719463238294249,-0.7,1,424.0,507.0,1.0,229.0,1,0.8390132261938085,0.0
809,809,-0.4807497122240576,-0.5,1,370.0,879.0,1.0,201.0,1,0.9855504368548467,0.0
810,810,-0.8885974729954327,-0.9,1,486.0,687.0,1.0,227.0,1,0.6492702541608465,0.0
811,811,-0.23637084023763255,-0.2,1,430.0,753.0,1.0,447.0,1,0.3933579989145298,0.0
812,812,0.3447743405126735,0.3,0,257.0,972.0,0.0,3771.0,1,0.1479784786833794,0.0
813,813,-0.7078026954342838,-0.7,1,259.0,887.0,1.0,224.0,1,0.9924044187308685,0.0
814,814,-0.7245847943016386,-0.7,1,420.0,854.0,1.0,206.0,1,0.6892838833925289,0.0
815,815,0.8110066143672725,0.8,0,354.0,569.0,0.0,297.0,1,0.9170210102744015,0.0
816,816,0.9106565164055807,0.9,0,266.0,893.0,0.0,161.0,1,0.6496337443701087,0.0
817,817,-0.9926018833726071,-1.0,1,353.0,990.0,1.0,267.0,1,0.35334028117229965,0.0
818,818,-0.40564350270735083,-0.4,1,251.0,508.0,1.0,201.0,1,0.9216202473917277,0.0
819,819,0.5802224003288721,0.6,0,399.0,657.0,0.0,234.0,1,0.48482589636415285,0.0
820,820,0.7266702897699233,0.7,0,390.0,729.0,0.0,271.0,1,0.4999473053654424,0.0
821,821,0.7628678874492398,0.8,0,465.0,681.0,0.0,244.0,1,0.5571275674800594,0.0
822,822,0.7668464705895712,0.8,0,404.0,867.0,0.0,449.0,1,0.3142825198472148,0.0
823,823,0.6691473662445309,0.7,0,478.0,972.0,0.0,260.0,1,0.3959829393548928,0.0
824,824,0.4283495100451822,0.4,0,424.0,724.0,0.0,272.0,1,0.9516349280661658,0.0
825,825,0.31685443909968236,0.3,0,496.0,741.0,0.0,393.0,1,0.7003092345204686,0.0
826,826,0.00035356518382023694,0.0,0,315.0,763.0,0.0,1122.0,1,0.4086869056078921,0.0
827,827,-0.5832649105078513,-0.6,1,476.0,812.0,1.0,322.0,1,0.6235830132653505,0.0
828,828,0.49256006549537257,0.5,0,384.0,761.0,0.0,205.0,1,0.9156008347362268,0.0
829,829,0.6397363658214201,0.6,0,482.0,936.0,0.0,152.0,1,0.7720889987536744,0.0
830,830,-0.249348536837116,-0.2,1,352.0,981.0,1.0,337.0,1,0.7684233772705088,0.0
831,831,-0.6756173148754965,-0.7,1,448.0,518.0,1.0,254.0,1,0.948020024597063,0.0
832,832,0.17063041254427858,0.2,0,426.0,573.0,0.0,211.0,1,0.8859568480311594,0.0
833,833,-0.5636777729519296,-0.6,1,455.0,861.0,1.0,234.0,1,0.5860996358830364,0.0
834,834,0.03885354368106997,0.0,0,424.0,658.0,1.0,3208.0,0,0.2755357362190882,0.0
835,835,0.8851259823290594,0.9,0,308.0,958.0,0.0,214.0,1,0.7688794871489119,0.0
836,836,-0.5086817486576607,-0.5,1,475.0,915.0,1.0,320.0,1,0.3525467153974613,0.0
837,837,0.7927862296166377,0.8,0,465.0,938.0,0.0,477.0,1,0.27875764584013996,0.0
838,838,-0.7125327036508446,-0.7,1,422.0,511.0,1.0,307.0,1,0.44019759786369506,0.0
839,839,-0.38941269585662286,-0.4,1,454.0,728.0,1.0,328.0,1,0.5676756222652771,0.0
840,840,-0.9650368406095322,-1.0,1,375.0,610.0,1.0,225.0,1,0.7089463946837485,0.0
841,841,0.45398304226322783,0.5,0,477.0,730.0,0.0,213.0,1,0.998252390201552,0.0
842,842,0.8875030152320513,0.9,0,419.0,899.0,0.0,222.0,1,0.41040588874887807,0.0
843,843,0.49254984490758513,0.5,0,268.0,578.0,0.0,1194.0,1,0.1760452506655579,0.0
844,844,0.5458930677640836,0.5,0,310.0,559.0,0.0,521.0,1,0.22749612420761653,0.0
845,845,-0.5913633584677056,-0.6,1,300.0,922.0,1.0,258.0,1,0.6341212494603257,0.0
846,846,0.3096026058886572,0.3,0,436.0,580.0,0.0,394.0,1,0.7214257196234524,0.0
847,847,-0.2770336155784501,-0.3,1,463.0,521.0,1.0,546.0,1,0.45250932459751536,0.0
848,848,0.9170448501236981,0.9,0,330.0,543.0,0.0,307.0,1,0.5256693813022864,0.0
849,849,-0.13639719891049817,-0.1,1,264.0,995.0,1.0,881.0,1,0.3196663863738108,0.0
850,850,-0.6487345829463242,-0.6,1,431.0,942.0,1.0,837.0,1,0.16963560050607712,0.0
851,851,-0.3755971990026423,-0.4,1,280.0,709.0,1.0,261.0,1,0.4901648766142539,0.0
852,852,0.20300254703761467,0.2,0,292.0,546.0,0.0,4162.0,1,0.1143135793190234,0.0
853,853,-0.7115374147038633,-0.7,1,447.0,880.0,1.0,283.0,1,0.4121949951581344,0.0
854,854,-0.8710697580567714,-0.9,1,300.0,566.0,1.0,224.0,1,0.6183557820019053,0.0
855,855,-0.9809500193188421,-1.0,1,494.0,696.0,1.0,220.0,1,0.9269234586397211,0.0
856,856,0.8514929192581284,0.9,0,272.0,978.0,0.0,270.0,1,0.7252490352365262,0.0
857,857,-0.8224555275015044,-0.8,1,357.0,517.0,1.0,276.0,1,0.8871103165230928,0.0
858,858,-0.36560044196586117,-0.4,1,291.0,776.0,1.0,333.0,1,0.7625281093014169,0.0
859,859,0.9925628600754404,1.0,0,493.0,838.0,0.0,219.0,1,0.9259269497916933,0.0
860,860,-0.11018079955820648,-0.1,1,307.0,750.0,1.0,343.0,1,0.8776169374678086,0.0
861,861,0.3406917121113835,0.3,0,420.0,607.0,0.0,243.0,1,0.8981022634539966,0.0
862,862,0.25576236094608684,0.3,0,340.0,892.0,0.0,288.0,1,0.9327215758653666,0.0
863,863,-0.3221322930873718,-0.3,1,269.0,839.0,1.0,1412.0,1,0.2350612244222458,0.0
864,864,0.803867065779414,0.8,0,373.0,742.0,0.0,125.0,1,0.956299188845769,0.0
865,865,0.07015610205428469,0.1,0,398.0,574.0,1.0,4028.0,0,0.1563867319658906,0.0
866,866,-0.477097129499233,-0.5,1,322.0,970.0,1.0,558.0,1,0.516200471428958,0.0
867,867,-0.41055987652508485,-0.4,1,310.0,640.0,1.0,430.0,1,0.2433383445713951,0.0
868,868,0.12066898442224017,0.1,0,495.0,685.0,1.0,530.0,0,0.9551935020694361,0.0
869,869,-0.008128428602532711,-0.0,1,476.0,602.0,0.0,332.0,0,0.4197340021953495,0.0
870,870,0.4026216817764461,0.4,0,456.0,753.0,0.0,441.0,1,0.5338318263986139,0.0
871,871,0.429511441842108,0.4,0,458.0,728.0,0.0,284.0,1,0.7151494454478186,0.0
872,872,-0.9736737541586344,-1.0,1,254.0,651.0,1.0,155.0,1,0.5274601306052998,0.0
873,873,0.15036847569582412,0.2,0,486.0,911.0,0.0,3053.0,1,0.2563333585321156,0.0
874,874,-0.254769395371679,-0.3,1,423.0,827.0,1.0,510.0,1,0.8478897934941019,0.0
875,875,0.031215333666412937,0.0,0,259.0,813.0,1.0,288.0,0,0.892003139655138,0.0
876,876,-0.43710487731959513,-0.4,1,344.0,896.0,1.0,480.0,1,0.5456745791747311,0.0
877,877,-0.586859926163048,-0.6,1,328.0,759.0,1.0,273.0,1,0.7412237469616839,0.0
878,878,-0.5399620117737931,-0.5,1,276.0,826.0,1.0,458.0,1,0.33785677878099707,0.0
879,879,0.9124751813011047,0.9,0,476.0,801.0,0.0,133.0,1,0.49379911779372865,0.0
880,880,0.6980984032338797,0.7,0,379.0,808.0,0.0,553.0,1,0.5578742849760265,0.0
881,881,0.8403865393239944,0.8,0,251.0,646.0,0.0,203.0,1,0.53309190466432,0.0
882,882,-0.8988255128425462,-0.9,1,422.0,873.0,1.0,185.0,1,0.8462805947087144,0.0
883,883,-0.4017469702160248,-0.4,1,367.0,841.0,1.0,292.0,1,0.6461540816251113,0.0
884,884,-0.08620330167757695,-0.1,1,274.0,752.0,1.0,474.0,1,0.4995201568235994,0.0
885,885,0.9428848152932192,0.9,0,402.0,724.0,0.0,214.0,1,0.6244428171125851,0.0
886,886,-0.9018744116272055,-0.9,1,293.0,769.0,1.0,208.0,1,0.6818231637282469,0.0
887,887,-0.20451547739289633,-0.2,1,270.0,803.0,1.0,417.0,1,0.8164350878417945,0.0
888,888,-0.7172165463396767,-0.7,1,436.0,994.0,1.0,230.0,1,0.8739651838543193,0.0
889,889,0.7946111361318253,0.8,0,412.0,934.0,0.0,404.0,1,0.3744306970105895,0.0
890,890,-0.7398589288241235,-0.7,1,480.0,648.0,1.0,192.0,1,0.4898896604446097,0.0
891,891,0.2824390577151612,0.3,0,279.0,658.0,0.0,243.0,1,0.6624119775835616,0.0
892,892,0.7297279492737656,0.7,0,262.0,577.0,0.0,181.0,1,0.9659777034570317,0.0
893,893,-0.1593313718563183,-0.2,1,489.0,876.0,1.0,985.0,1,0.3535575647129171,0.0
894,894,0.4368336397862924,0.4,0,276.0,925.0,0.0,249.0,1,0.8907280024624188,0.0
895,895,-0.18314392780853006,-0.2,1,316.0,610.0,1.0,304.0,1,0.7598498407721421,0.0
896,896,-0.9181319744957273,-0.9,1,347.0,749.0,1.0,194.0,1,0.5582716997889333,0.0
897,897,-0.6044331201794353,-0.6,1,489.0,551.0,1.0,2500.0,1,0.14083550811932655,0.0
898,898,-0.9716078225454603,-1.0,1,269.0,972.0,1.0,289.0,1,0.6112205432375043,0.0
899,899,0.6273685574736458,0.6,0,405.0,815.0,0.0,190.0,1,0.6463677919739179,0.0
900,900,-0.9622021152527329,-1.0,1,308.0,895.0,1.0,347.0,1,0.2128809627038673,0.0
901,901,0.07586006500926934,0.1,0,413.0,950.0,1.0,347.0,0,0.9929126661590227,0.0
902,902,0.19117220991985318,0.2,0,430.0,954.0,0.0,1076.0,1,0.7185919757240831,0.0
903,903,0.5436291914557414,0.5,0,366.0,817.0,0.0,187.0,1,0.9330281559689406,0.0
904,904,-0.3400108912232509,-0.3,1,284.0,716.0,1.0,320.0,1,0.710900385782408,0.0
905,905,-0.8495507515666538,-0.8,1,323.0,617.0,1.0,540.0,1,0.25503230180078806,0.0
906,906,-0.3041053339954136,-0.3,1,489.0,716.0,1.0,205.0,1,0.72533682473603,0.0
907,907,0.5763572624398487,0.6,0,442.0,682.0,0.0,266.0,1,0.4602550658532505,0.0
908,908,-0.059797024083705574,-0.1,1,310.0,518.0,1.0,2022.0,1,0.3266349679481037,0.0
909,909,-0.523038877070898,-0.5,1,492.0,556.0,1.0,292.0,1,0.5108721034296685,0.0
910,910,0.7202671965706233,0.7,0,337.0,923.0,0.0,370.0,1,0.3220398075312347,0.0
911,911,0.13012496171526355,0.1,0,315.0,669.0,0.0,996.0,1,0.2685510626326395,0.0
912,912,0.2065540233956924,0.2,0,458.0,545.0,0.0,697.0,1,0.8320766168907181,0.0
913,913,-0.7770003209056837,-0.8,1,301.0,581.0,1.0,718.0,1,0.20541588971803998,0.0
914,914,0.9398034892041276,0.9,0,301.0,965.0,0.0,304.0,1,0.5631628027224876,0.0
915,915,0.5827559086979051,0.6,0,453.0,725.0,0.0,1432.0,1,0.14716396131688933,0.0
916,916,-0.5994974948574727,-0.6,1,417.0,728.0,1.0,475.0,1,0.41472526491478323,0.0
917,917,-0.5865807645557459,-0.6,1,353.0,668.0,1.0,239.0,1,0.5885069220261496,0.0
918,918,-0.8515827332012189,-0.9,1,475.0,749.0,1.0,356.0,1,0.27914467812055066,0.0
919,919,-0.9960428756331161,-1.0,1,341.0,733.0,1.0,136.0,1,0.9196234103270049,0.0
920,920,0.8349033153394196,0.8,0,477.0,699.0,0.0,264.0,1,0.4525799039786643,0.0
921,921,-0.31027913669848806,-0.3,1,460.0,605.0,1.0,3185.0,1,0.12279143052975439,0.0
922,922,-0.9703564643740135,-1.0,1,484.0,838.0,1.0,168.0,1,0.9390253279489958,0.0
923,923,0.08191669564620097,0.1,0,413.0,562.0,0.0,675.0,1,0.3710281603121778,0.0
924,924,0.8825255585195739,0.9,0,325.0,558.0,0.0,277.0,1,0.4471389011425806,0.0
925,925,-0.7066900253777639,-0.7,1,367.0,519.0,1.0,234.0,1,0.6496577038174656,0.0
926,926,-0.753005568862384,-0.8,1,454.0,937.0,1.0,429.0,1,0.2506382665610461,0.0
927,927,-0.4146144548800723,-0.4,1,353.0,538.0,1.0,4109.0,1,0.12383313415216854,0.0
928,928,0.3287578323551996,0.3,0,308.0,688.0,0.0,414.0,1,0.3332901462328623,0.0
929,929,-0.370737141636895,-0.4,1,305.0,544.0,1.0,421.0,1,0.513516101254489,0.0
930,930,-0.6600145934436012,-0.7,1,404.0,727.0,1.0,459.0,1,0.3311188453727749,0.0
931,931,0.9677750749901939,1.0,0,268.0,903.0,0.0,199.0,1,0.5539676477513804,0.0
932,932,-0.08877721298849384,-0.1,1,342.0,793.0,0.0,295.0,0,0.8406914057943119,0.0
933,933,-0.07909590364743657,-0.1,1,464.0,961.0,1.0,605.0,1,0.46947910761365297,0.0
934,934,-0.908672363800547,-0.9,1,270.0,837.0,1.0,183.0,1,0.8355352726811284,0.0
935,935,-0.7012545091278719,-0.7,1,426.0,759.0,1.0,225.0,1,0.5529640479161063,0.0
936,936,0.8152061688923335,0.8,0,483.0,941.0,0.0,466.0,1,0.3209275863542522,0.0
937,937,-0.31835922735777955,-0.3,1,457.0,748.0,1.0,365.0,1,0.6939950509262712,0.0
938,938,0.15231103974635274,0.2,0,368.0,641.0,0.0,3991.0,1,0.15926052481591058,0.0
939,939,0.7200168675273315,0.7,0,390.0,764.0,0.0,316.0,1,0.2380792328069012,0.0
940,940,0.6265740837873062,0.6,0,453.0,653.0,0.0,154.0,1,0.7573389740897722,0.0
941,941,-0.5078386601549096,-0.5,1,312.0,785.0,1.0,273.0,1,0.6973122802832109,0.0
942,942,-0.8227164970305016,-0.8,1,306.0,548.0,1.0,226.0,1,0.9111651580362085,0.0
943,943,-0.04372225141505681,-0.0,1,449.0,837.0,1.0,3714.0,1,0.13010804105836582,0.0
944,944,0.5975586629429555,0.6,0,365.0,700.0,0.0,185.0,1,0.8133898339250296,0.0
945,945,0.5883374358279438,0.6,0,254.0,728.0,0.0,408.0,1,0.5981969796817226,0.0
946,946,0.3869896581928498,0.4,0,405.0,722.0,0.0,273.0,1,0.6824820272400699,0.0
947,947,0.7838260946471962,0.8,0,414.0,934.0,0.0,262.0,1,0.775420804010745,0.0
948,948,-0.18248350173179473,-0.2,1,336.0,995.0,1.0,569.0,1,0.48045015233865807,0.0
949,949,-0.7954517408431772,-0.8,1,473.0,656.0,1.0,211.0,1,0.9362758459009632,0.0
950,950,-0.9297219685608935,-0.9,1,311.0,874.0,1.0,175.0,1,0.707484038067309,0.0
951,951,-0.36166270742663564,-0.4,1,292.0,827.0,1.0,471.0,1,0.6155574702060839,0.0
952,952,0.7907082286754492,0.8,0,417.0,563.0,0.0,190.0,1,0.9078106799905729,0.0
953,953,-0.7399967060290256,-0.7,1,301.0,569.0,1.0,1520.0,1,0.13841429485933593,0.0
954,954,0.47307898378515945,0.5,0,402.0,900.0,0.0,368.0,1,0.286001503489299,0.0
955,955,0.301668395426578,0.3,0,413.0,838.0,0.0,279.0,1,0.9757999765093107,0.0
956,956,-0.32989260548277954,-0.3,1,333.0,671.0,1.0,266.0,1,0.4222543549735507,0.0
957,957,-0.05196124067507979,-0.1,1,295.0,667.0,1.0,658.0,1,0.48764838969721835,0.0
958,958,0.6859835755366412,0.7,0,402.0,569.0,0.0,169.0,1,0.7277901683687663,0.0
959,959,-0.2536710613961013,-0.3,1,441.0,934.0,1.0,685.0,1,0.6864430115162589,0.0
960,960,-0.12506821054506756,-0.1,1,369.0,929.0,1.0,712.0,1,0.25940701797720855,0.0
961,961,-0.07555462072929853,-0.1,1,354.0,565.0,1.0,351.0,1,0.8108497081328533,0.0
962,962,0.28851408040040205,0.3,0,345.0,727.0,0.0,288.0,1,0.8069375089213786,0.0
963,963,0.32249070515743794,0.3,0,453.0,954.0,0.0,613.0,1,0.2739099438572225,0.0
964,964,-0.05801770379506177,-0.1,1,415.0,561.0,1.0,1004.0,1,0.6111381062722956,0.0
965,965,0.8605106410197934,0.9,0,485.0,823.0,0.0,592.0,1,0.12345449850262236,0.0
966,966,-0.8109300831516968,-0.8,1,319.0,725.0,1.0,186.0,1,0.8232009284228179,0.0
967,967,-0.9274944544665449,-0.9,1,388.0,935.0,1.0,257.0,1,0.21647755782056932,0.0
968,968,-0.52283561283894,-0.5,1,433.0,791.0,1.0,376.0,1,0.6174626347844517,0.0
969,969,0.03645144274677281,0.0,0,413.0,652.0,0.0,1055.0,1,0.495215701227658,0.0
970,970,-0.6068064064850458,-0.6,1,272.0,808.0,1.0,440.0,1,0.5062336962565842,0.0
971,971,-0.2390175561080019,-0.2,1,473.0,920.0,1.0,307.0,1,0.7223278277851459,0.0
972,972,-0.003194458806611511,-0.0,1,256.0,604.0,1.0,1180.0,1,0.30684095182661697,0.0
973,973,0.0894426360248668,0.1,0,368.0,714.0,0.0,3918.0,1,0.13297509191672893,0.0
974,974,-0.12742808355843338,-0.1,1,285.0,687.0,1.0,618.0,1,0.8602435584672998,0.0
975,975,-0.29163135616971436,-0.3,1,308.0,931.0,1.0,361.0,1,0.39317328527421036,0.0
976,976,-0.12262893287001075,-0.1,1,360.0,693.0,1.0,507.0,1,0.748772491018132,0.0
977,977,-0.8671041292945552,-0.9,1,481.0,918.0,1.0,261.0,1,0.48699318687117976,0.0
978,978,-0.3289028721789986,-0.3,1,254.0,677.0,1.0,449.0,1,0.3220631425532561,0.0
979,979,-0.8659615225257911,-0.9,1,311.0,582.0,1.0,207.0,1,0.6163402326267557,0.0
980,980,-0.4798404735366615,-0.5,1,285.0,685.0,1.0,270.0,1,0.6465265890113822,0.0
981,981,0.9500916121518841,1.0,0,335.0,777.0,0.0,318.0,1,0.3453156768136778,0.0
982,982,-0.13791128006746844,-0.1,1,494.0,710.0,1.0,676.0,1,0.44355912053563273,0.0
983,983,-0.18007292996264312,-0.2,1,498.0,834.0,1.0,308.0,1,0.6002847718866758,0.0
984,984,0.9438622904055127,0.9,0,436.0,859.0,0.0,165.0,1,0.8410122841905237,0.0
985,985,0.2785319393296204,0.3,0,415.0,557.0,0.0,308.0,1,0.8638178316080263,0.0
986,986,0.4218468633739223,0.4,0,405.0,631.0,0.0,214.0,1,0.9134194957561096,0.0
987,987,0.9451513014941861,0.9,0,327.0,796.0,0.0,107.0,1,0.99582467409439,0.0
988,988,0.09301974505132282,0.1,0,322.0,711.0,1.0,1077.0,0,0.42588432040272206,0.0
989,989,0.8918325854383982,0.9,0,345.0,623.0,0.0,202.0,1,0.4823212688559342,0.0
990,990,-0.9583221292680637,-1.0,1,270.0,581.0,1.0,199.0,1,0.28799101541621597,0.0
991,991,-0.1727242636021804,-0.2,1,497.0,874.0,1.0,1109.0,1,0.354787990576925,0.0
992,992,-0.3034146256353596,-0.3,1,435.0,539.0,1.0,286.0,1,0.8690729886553705,0.0
993,993,0.336184919340232,0.3,0,353.0,970.0,0.0,407.0,1,0.3465028451603459,0.0
994,994,0.36344693435223885,0.4,0,430.0,868.0,0.0,282.0,1,0.6887151257337032,0.0
995,995,-0.7312854621296268,-0.7,1,299.0,702.0,1.0,149.0,1,0.5425692313813681,0.0
996,996,-0.0824070181283898,-0.1,1,255.0,798.0,1.0,577.0,1,0.6077007532810834,0.0
997,997,-0.8239320209153345,-0.8,1,295.0,780.0,1.0,245.0,1,0.6093846094115536,0.0
998,998,0.7838544911459024,0.8,0,431.0,938.0,0.0,441.0,1,0.23963740490766722,0.0
999,999,-0.42291046312380476,-0.4,1,377.0,531.0,1.0,262.0,1,0.990902067430196,0.0
1000,1000,-0.24407481089526173,-0.2,1,440.0,840.0,1.0,280.0,1,0.6817982573492019,0.0
1001,1001,-0.7300885006361573,-0.7,1,258.0,603.0,1.0,429.0,1,0.2556362955830932,0.0
1002,1002,-0.9302305210532467,-0.9,1,330.0,869.0,1.0,481.0,1,0.18665953237952315,0.0
1003,1003,0.37833672304335053,0.4,0,461.0,858.0,0.0,2591.0,1,0.12607497426870748,0.0
1004,1004,-0.41399948188369895,-0.4,1,464.0,705.0,1.0,461.0,1,0.5177272397658539,0.0
1005,1005,0.9648904019509232,1.0,0,286.0,783.0,0.0,191.0,1,0.987894426351988,0.0
1006,1006,0.07995804432650333,0.1,0,435.0,938.0,0.0,417.0,1,0.5841575438647271,0.0
1007,1007,-0.013903875376448438,-0.0,1,268.0,627.0,1.0,4105.0,1,0.10558079680919821,0.0
1008,1008,0.33586634165080054,0.3,0,395.0,544.0,0.0,331.0,1,0.5413582477662271,0.0
1009,1009,0.4194987020001102,0.4,0,410.0,609.0,0.0,611.0,1,0.23303910309166317,0.0
1010,1010,-0.9206479348511443,-0.9,1,280.0,520.0,1.0,350.0,1,0.4424345219729119,0.0
1011,1011,-0.3591428178313987,-0.4,1,290.0,786.0,1.0,454.0,1,0.32561022411967483,0.0
1012,1012,-0.23544828008049135,-0.2,1,375.0,949.0,1.0,416.0,1,0.8058440895886965,0.0
1013,1013,-0.676738720307424,-0.7,1,382.0,868.0,1.0,350.0,1,0.35671504742035165,0.0
1014,1014,-0.7584788389517958,-0.8,1,492.0,863.0,1.0,255.0,1,0.8734119133292324,0.0
1015,1015,0.3824353099271671,0.4,0,482.0,930.0,0.0,1508.0,1,0.14908162479221,0.0
1016,1016,0.18752080416413142,0.2,0,362.0,997.0,0.0,441.0,1,0.546656116285834,0.0
1017,1017,0.030681656484475406,0.0,0,311.0,785.0,1.0,3904.0,0,0.14613564665419398,0.0
1018,1018,-0.02256024622055497,-0.0,1,382.0,664.0,1.0,434.0,1,0.4085296363290484,0.0
1019,1019,0.4976348577581404,0.5,0,366.0,735.0,0.0,619.0,1,0.19055555877741756,0.0
1020,1020,-0.6636225243756577,-0.7,1,275.0,801.0,1.0,214.0,1,0.7795596034871158,0.0
1021,1021,0.49336806641173303,0.5,0,270.0,961.0,0.0,349.0,1,0.38791589511602587,0.0
1022,1022,-0.47426854312414624,-0.5,1,343.0,672.0,1.0,745.0,1,0.19312334749220247,0.0
1023,1023,-0.38028366034677386,-0.4,1,463.0,725.0,1.0,202.0,1,0.993751266219776,0.0
1024,1024,0.8049380474023977,0.8,0,412.0,924.0,0.0,204.0,1,0.9840816104869309,0.0
1025,1025,0.9444357318014978,0.9,0,276.0,847.0,0.0,407.0,1,0.559843242552472,0.0
1026,1026,0.5485602479399081,0.5,0,308.0,651.0,0.0,201.0,1,0.9866539715451034,0.0
1027,1027,-0.511593055964157,-0.5,1,484.0,579.0,1.0,217.0,1,0.6594053917723116,0.0
1028,1028,0.456904064268838,0.5,0,495.0,740.0,0.0,635.0,1,0.21586835474787536,0.0
1029,1029,-0.04430330281714934,-0.0,1,343.0,778.0,0.0,3879.0,0,0.19272641789586947,0.0
1030,1030,-0.49922302768974847,-0.5,1,449.0,611.0,1.0,650.0,1,0.23628012488950087,0.0
1031,1031,0.9252625826631464,0.9,0,414.0,509.0,0.0,157.0,1,0.981574608552726,0.0
1032,1032,-0.5632426450095847,-0.6,1,406.0,763.0,1.0,591.0,1,0.24584760615896806,0.0
1033,1033,-0.7286829914393929,-0.7,1,319.0,537.0,1.0,1584.0,1,0.13065434839145176,0.0
1034,1034,0.10197383633934476,0.1,0,466.0,708.0,0.0,536.0,1,0.7673701733306003,0.0
1035,1035,-0.29163268437940215,-0.3,1,427.0,742.0,1.0,3831.0,1,0.10888648117092657,0.0
1036,1036,0.8698815806234133,0.9,0,299.0,686.0,0.0,365.0,1,0.4532325597514304,0.0
1037,1037,-0.05359743776722703,-0.1,1,491.0,850.0,1.0,679.0,1,0.7873997639680832,0.0
1038,1038,-0.6630008042724509,-0.7,1,316.0,646.0,1.0,648.0,1,0.2446557565747389,0.0
1039,1039,-0.9991333566463394,-1.0,1,469.0,970.0,1.0,211.0,1,0.5814194149364554,0.0
1040,1040,-0.6564906241953501,-0.7,1,358.0,825.0,1.0,817.0,1,0.159082270558744,0.0
1041,1041,-0.4767588057590757,-0.5,1,398.0,542.0,1.0,950.0,1,0.13908280151943536,0.0
1042,1042,-0.642385569689593,-0.6,1,460.0,706.0,1.0,204.0,1,0.5859061099697712,0.0
1043,1043,-0.09459344361214783,-0.1,1,471.0,853.0,1.0,3676.0,1,0.11585962850545017,0.0
1044,1044,0.010683857166173816,0.0,0,428.0,680.0,1.0,752.0,0,0.4955716276920217,0.0
1045,1045,0.9279783850941912,0.9,0,278.0,648.0,0.0,234.0,1,0.4490281676371052,0.0
1046,1046,-0.6455645363404063,-0.6,1,388.0,651.0,1.0,241.0,1,0.4707698703397605,0.0
1047,1047,-0.4305601246408943,-0.4,1,276.0,594.0,1.0,650.0,1,0.38527263143132073,0.0
1048,1048,0.5777185554941366,0.6,0,346.0,790.0,0.0,494.0,1,0.200670784740413,0.0
1049,1049,-0.7470589539541008,-0.7,1,470.0,547.0,1.0,193.0,1,0.8595080507178116,0.0
1050,1050,-0.7036834093486808,-0.7,1,440.0,513.0,1.0,3737.0,1,0.10485707861474557,0.0
1051,1051,-0.5943895665582211,-0.6,1,487.0,755.0,1.0,498.0,1,0.2930640508806499,0.0
1052,1052,0.1727668458077063,0.2,0,402.0,865.0,0.0,963.0,1,0.5162949445084669,0.0
1053,1053,0.6506982932581882,0.7,0,366.0,737.0,0.0,397.0,1,0.2350353911553203,0.0
1054,1054,-0.35204178597323166,-0.4,1,359.0,880.0,1.0,1111.0,1,0.18741040417903965,0.0
1055,1055,-0.8501667909815516,-0.9,1,449.0,935.0,1.0,276.0,1,0.35441511134057757,0.0
1056,1056,-0.5626327404336764,-0.6,1,450.0,983.0,1.0,227.0,1,0.5552707390729087,0.0
1057,1057,0.18103694072650223,0.2,0,473.0,960.0,0.0,587.0,1,0.40033339421371705,0.0
1058,1058,-0.12542983864941082,-0.1,1,341.0,724.0,1.0,495.0,1,0.8257042246236607,0.0
1059,1059,-0.9571972424941564,-1.0,1,400.0,730.0,1.0,200.0,1,0.4625577967752209,0.0
1060,1060,-0.42929268451895,-0.4,1,332.0,644.0,1.0,1644.0,1,0.15881187406951947,0.0
1061,1061,-0.03388899418542102,-0.0,1,295.0,608.0,1.0,4097.0,1,0.21314814361006418,0.0
1062,1062,0.5865136848991928,0.6,0,309.0,801.0,0.0,380.0,1,0.6483061416118122,0.0
1063,1063,0.7388348678747076,0.7,0,259.0,715.0,0.0,176.0,1,0.734210281500536,0.0
1064,1064,0.66444048950752,0.7,0,340.0,575.0,0.0,325.0,1,0.41261969390406605,0.0
1065,1065,0.10877681645686565,0.1,0,400.0,670.0,0.0,1970.0,1,0.42594373956998755,0.0
1066,1066,0.7378180990850964,0.7,0,383.0,854.0,0.0,273.0,1,0.8032798794728369,0.0
1067,1067,-0.1555641305510529,-0.2,1,394.0,715.0,1.0,291.0,1,0.8094764299588394,0.0
1068,1068,-0.8550032386773347,-0.9,1,420.0,869.0,1.0,261.0,1,0.49263285406982293,0.0
1069,1069,0.029191956682877773,0.0,0,389.0,954.0,0.0,957.0,1,0.3696256268827707,0.0
1070,1070,0.17324161721442644,0.2,0,443.0,978.0,1.0,1029.0,0,0.47812220168939645,0.0
1071,1071,0.09265270050088947,0.1,0,471.0,934.0,0.0,835.0,1,0.31731290223915376,0.0
1072,1072,-0.19383507344436346,-0.2,1,449.0,974.0,1.0,427.0,1,0.46562479013631486,0.0
1073,1073,-0.8344432084381563,-0.8,1,352.0,633.0,1.0,275.0,1,0.5091097377955378,0.0
1074,1074,-0.946219157856371,-0.9,1,394.0,517.0,1.0,489.0,1,0.20925638565864785,0.0
1075,1075,-0.6228637175684832,-0.6,1,296.0,614.0,1.0,400.0,1,0.24189929175271796,0.0
1076,1076,0.18450854695769126,0.2,0,322.0,821.0,0.0,357.0,1,0.26930094102672353,0.0
1077,1077,0.4014022934468542,0.4,0,455.0,511.0,0.0,1654.0,1,0.16572337009389193,0.0
1078,1078,0.554608590224587,0.6,0,386.0,539.0,0.0,605.0,1,0.19374224167138593,0.0
1079,1079,0.3292059166022656,0.3,0,308.0,838.0,0.0,304.0,1,0.37692999970691765,0.0
1080,1080,-0.485753226856662,-0.5,1,252.0,538.0,1.0,330.0,1,0.453367551144469,0.0
1081,1081,0.37253712589816224,0.4,0,322.0,657.0,0.0,331.0,1,0.4567088865981874,0.0
1082,1082,0.9261942435514712,0.9,0,365.0,648.0,0.0,237.0,1,0.5324556811246669,0.0
1083,1083,0.3523209678562125,0.4,0,339.0,893.0,0.0,478.0,1,0.5162930754964693,0.0
1084,1084,0.43928042836534265,0.4,0,379.0,982.0,0.0,359.0,1,0.6781560199966296,0.0
1085,1085,-0.5697884554600725,-0.6,1,485.0,556.0,1.0,209.0,1,0.9322622424010315,0.0
1086,1086,0.3655717837563368,0.4,0,360.0,803.0,0.0,357.0,1,0.6612923445776088,0.0
1087,1087,0.6047750774258998,0.6,0,434.0,695.0,0.0,501.0,1,0.3052386239893834,0.0
1088,1088,-0.5569837386032748,-0.6,1,326.0,775.0,1.0,359.0,1,0.4900967025518025,0.0
1089,1089,-0.5502162323162774,-0.6,1,334.0,751.0,1.0,575.0,1,0.24067327943950725,0.0
1090,1090,0.7229033045171558,0.7,0,449.0,630.0,0.0,281.0,1,0.6266505221471306,0.0
1091,1091,-0.8351796268035816,-0.8,1,256.0,974.0,1.0,160.0,1,0.9903393736829739,0.0
1092,1092,0.9568410915758627,1.0,0,274.0,740.0,0.0,176.0,1,0.6052628274496615,0.0
1093,1093,-0.08621419661911078,-0.1,1,285.0,652.0,1.0,4063.0,1,0.1512937876859108,0.0
1094,1094,-0.4019547777910395,-0.4,1,463.0,598.0,1.0,229.0,1,0.5915928641895948,0.0
1095,1095,-0.2963758551069797,-0.3,1,350.0,862.0,1.0,398.0,1,0.7832257007604845,0.0
1096,1096,0.4541984231496512,0.5,0,392.0,728.0,0.0,430.0,1,0.28648300318055886,0.0
1097,1097,-0.07330556668345367,-0.1,1,424.0,951.0,1.0,695.0,1,0.39913832062805354,0.0
1098,1098,-0.24926625459663576,-0.2,1,258.0,666.0,1.0,276.0,1,0.977433752544692,0.0
1099,1099,-0.45954652126825346,-0.5,1,447.0,857.0,1.0,206.0,1,0.8483756419206281,0.0
1100,1100,-0.8281681659407756,-0.8,1,383.0,555.0,1.0,152.0,1,0.7966343821466966,0.0
1101,1101,-0.45955280603824944,-0.5,1,260.0,509.0,1.0,341.0,1,0.29940688945640825,0.0
1102,1102,-0.17130607381782448,-0.2,1,253.0,719.0,1.0,998.0,1,0.3017839809992756,0.0
1103,1103,-0.7972417243393743,-0.8,1,424.0,697.0,1.0,409.0,1,0.23465133942508867,0.0
1104,1104,-0.27131071701145726,-0.3,1,287.0,923.0,1.0,270.0,1,0.8473581058446372,0.0
1105,1105,-0.1401896027518288,-0.1,1,295.0,521.0,1.0,1044.0,1,0.2282702025404679,0.0
1106,1106,-0.4406091029027619,-0.4,1,326.0,746.0,1.0,808.0,1,0.21691346771527614,0.0
1107,1107,-0.1010010465325284,-0.1,1,476.0,668.0,1.0,3856.0,1,0.10894337077587295,0.0
1108,1108,0.41950456650543777,0.4,0,363.0,887.0,0.0,300.0,1,0.3586334600873373,0.0
1109,1109,-0.2414386156738768,-0.2,1,444.0,622.0,1.0,1484.0,1,0.17332218883534062,0.0
1110,1110,-0.6675883006217536,-0.7,1,289.0,542.0,1.0,359.0,1,0.2686994103764365,0.0
1111,1111,0.6277282227756038,0.6,0,372.0,608.0,0.0,380.0,1,0.8958325912493054,0.0
1112,1112,0.6934038343891629,0.7,0,295.0,759.0,0.0,316.0,1,0.478087999542837,0.0
1113,1113,-0.0576403808313628,-0.1,1,400.0,731.0,1.0,3869.0,1,0.2435950091844229,0.0
1114,1114,0.9310879177042968,0.9,0,259.0,954.0,0.0,457.0,1,0.23980667000226222,0.0
1115,1115,0.7407519254274109,0.7,0,376.0,798.0,0.0,336.0,1,0.24265323755056484,0.0
1116,1116,0.156227450082163,0.2,0,389.0,919.0,0.0,732.0,1,0.7638363410871825,0.0
1117,1117,-0.2503170813716462,-0.3,1,370.0,801.0,1.0,339.0,1,0.5210097743527856,0.0
1118,1118,0.34547934874837205,0.3,0,394.0,599.0,0.0,367.0,1,0.9488407628150923,0.0
1119,1119,0.4972563943816375,0.5,0,363.0,713.0,0.0,944.0,1,0.2513229738686961,0.0
1120,1120,-0.4503845822386898,-0.5,1,473.0,733.0,1.0,244.0,1,0.5973922063693597,0.0
1121,1121,-0.85392443198494,-0.9,1,476.0,506.0,1.0,198.0,1,0.5643199177828011,0.0
1122,1122,-0.7576019675135626,-0.8,1,415.0,744.0,1.0,161.0,1,0.8622022063658659,0.0
1123,1123,0.4819128057590889,0.5,0,325.0,723.0,0.0,1062.0,1,0.18286595544651202,0.0
1124,1124,-0.10123424491408595,-0.1,1,293.0,649.0,1.0,278.0,1,0.989495859183493,0.0
1125,1125,0.554542255618969,0.6,0,289.0,671.0,0.0,280.0,1,0.3752706590031176,0.0
1126,1126,0.28929485990517545,0.3,0,417.0,880.0,0.0,403.0,1,0.5615052099391139,0.0
1127,1127,-0.4469587688652903,-0.4,1,356.0,979.0,1.0,195.0,1,0.9625507612672825,0.0
1128,1128,-0.5527912700029558,-0.6,1,252.0,578.0,1.0,450.0,1,0.7013579630955074,0.0
1129,1129,0.5430614637231743,0.5,0,438.0,847.0,0.0,275.0,1,0.5468825246676627,0.0
1130,1130,0.4321385600565135,0.4,0,265.0,838.0,0.0,3897.0,1,0.10100239739382233,0.0
1131,1131,0.44484830303094514,0.4,0,317.0,687.0,0.0,336.0,1,0.7930998789621939,0.0
1132,1132,0.6716624921389938,0.7,0,469.0,616.0,0.0,1125.0,1,0.16681506606185686,0.0
1133,1133,-0.2823196538399517,-0.3,1,477.0,586.0,1.0,337.0,1,0.42332668153889985,0.0
1134,1134,-0.4732952453716799,-0.5,1,490.0,620.0,1.0,2360.0,1,0.14031647758980995,0.0
1135,1135,-0.00708854324115471,-0.0,1,348.0,750.0,1.0,552.0,1,0.8428652279132373,0.0
1136,1136,0.9014494944746958,0.9,0,260.0,614.0,0.0,136.0,1,0.5720878906951674,0.0
1137,1137,0.9273053450420592,0.9,0,480.0,970.0,0.0,250.0,1,0.6874049800522106,0.0
1138,1138,0.9268219564368045,0.9,0,417.0,588.0,0.0,235.0,1,0.29019293149957515,0.0
1139,1139,0.8022718325381759,0.8,0,435.0,549.0,0.0,246.0,1,0.7799610783712924,0.0
1140,1140,0.5609777377930334,0.6,0,393.0,911.0,0.0,306.0,1,0.5338552445143196,0.0
1141,1141,0.24436552061844186,0.2,0,449.0,522.0,0.0,1329.0,1,0.2517016407105848,0.0
1142,1142,-0.38503416947598756,-0.4,1,370.0,652.0,1.0,388.0,1,0.45376665063100774,0.0
1143,1143,-0.5243142820460431,-0.5,1,250.0,818.0,1.0,732.0,1,0.17026933736979022,0.0
1144,1144,-0.9953256679451308,-1.0,1,440.0,869.0,1.0,211.0,1,0.631194460657023,0.0
1145,1145,0.489903715484868,0.5,0,410.0,882.0,0.0,608.0,1,0.23082673571701517,0.0
1146,1146,0.8281574707417354,0.8,0,425.0,562.0,0.0,243.0,1,0.8461393940187335,0.0
1147,1147,0.9907976676464338,1.0,0,419.0,706.0,0.0,395.0,1,0.3206858783982651,0.0
1148,1148,-0.6170447474859129,-0.6,1,368.0,964.0,1.0,228.0,1,0.9193421640225028,0.0
1149,1149,-0.9321595993057483,-0.9,1,322.0,972.0,1.0,226.0,1,0.6297025099295374,0.0
1150,1150,-0.6209893911407762,-0.6,1,267.0,550.0,1.0,463.0,1,0.41028075618888826,0.0
1151,1151,-0.9790794478187748,-1.0,1,335.0,717.0,1.0,208.0,1,0.7694941701723308,0.0
1152,1152,-0.3482511703871074,-0.3,1,395.0,500.0,1.0,675.0,1,0.2688384605968957,0.0
1153,1153,0.06410152273764802,0.1,0,463.0,856.0,1.0,561.0,0,0.9398587465970665,0.0
1154,1154,0.6535759782430197,0.7,0,455.0,769.0,0.0,256.0,1,0.66318181534772,0.0
1155,1155,0.7130112317140047,0.7,0,397.0,891.0,0.0,252.0,1,0.6359307267659281,0.0
1156,1156,0.1256790957828655,0.1,0,496.0,717.0,0.0,297.0,1,0.9164697705281638,0.0
1157,1157,0.21625070701743754,0.2,0,341.0,630.0,0.0,449.0,1,0.812072255368262,0.0
1158,1158,0.27880120910538464,0.3,0,338.0,849.0,0.0,403.0,1,0.5721046744656257,0.0
1159,1159,0.5881278832595125,0.6,0,276.0,551.0,0.0,383.0,1,0.29944364436569276,0.0
1160,1160,0.44539568456849454,0.4,0,465.0,877.0,0.0,538.0,1,0.49086741704096326,0.0
1161,1161,-0.8922630303203398,-0.9,1,307.0,914.0,1.0,239.0,1,0.8138137208883861,0.0
1162,1162,-0.9230523534320572,-0.9,1,468.0,815.0,1.0,247.0,1,0.5833487966191783,0.0
1163,1163,0.4230064689826054,0.4,0,404.0,527.0,0.0,239.0,1,0.610673941408243,0.0
1164,1164,0.9875367428814446,1.0,0,402.0,580.0,0.0,228.0,1,0.5845150490753579,0.0
1165,1165,0.7550029902508462,0.8,0,348.0,539.0,0.0,1243.0,1,0.1238956966107051,0.0
1166,1166,-0.9203948474665449,-0.9,1,252.0,894.0,1.0,224.0,1,0.8318692730253929,0.0
1167,1167,0.587406227724274,0.6,0,497.0,785.0,0.0,218.0,1,0.5313029285314106,0.0
1168,1168,-0.05776308448045797,-0.1,1,445.0,993.0,0.0,1002.0,0,0.5338757157639263,0.0
1169,1169,0.6825288052864962,0.7,0,436.0,644.0,0.0,220.0,1,0.9434786151322805,0.0
1170,1170,-0.7216662077060985,-0.7,1,257.0,859.0,1.0,194.0,1,0.9348143390222646,0.0
1171,1171,-0.4149287019733954,-0.4,1,278.0,824.0,1.0,198.0,1,0.5754549129796983,0.0
1172,1172,-0.6677861069801667,-0.7,1,320.0,691.0,1.0,379.0,1,0.2560877215047104,0.0
1173,1173,-0.5858572146907575,-0.6,1,348.0,512.0,1.0,210.0,1,0.7661452257478437,0.0
1174,1174,0.08591438431004561,0.1,0,325.0,653.0,0.0,402.0,1,0.7829282436069669,0.0
1175,1175,0.11652219616687254,0.1,0,256.0,867.0,1.0,827.0,0,0.4118986625250015,0.0
1176,1176,-0.4635291372924897,-0.5,1,434.0,601.0,1.0,335.0,1,0.8144593988954775,0.0
1177,1177,-0.7409883756849858,-0.7,1,480.0,539.0,1.0,251.0,1,0.5083401732131613,0.0
1178,1178,0.2583446473023445,0.3,0,498.0,844.0,0.0,188.0,1,0.6418107639553898,0.0
1179,1179,-0.6363183396888776,-0.6,1,258.0,845.0,1.0,427.0,1,0.26641571763346444,0.0
1180,1180,-0.8438204437994858,-0.8,1,333.0,832.0,1.0,275.0,1,0.41187426757145407,0.0
1181,1181,0.09226203777198916,0.1,0,359.0,694.0,0.0,1877.0,1,0.29424247542244747,0.0
1182,1182,0.059092077057316894,0.1,0,409.0,721.0,1.0,390.0,0,0.8925017255600755,0.0
1183,1183,-0.5860142667755752,-0.6,1,434.0,924.0,1.0,262.0,1,0.5616651305034802,0.0
1184,1184,-0.4376422294048987,-0.4,1,493.0,937.0,1.0,520.0,1,0.42724785247155084,0.0
1185,1185,0.9061736086055947,0.9,0,435.0,950.0,0.0,395.0,1,0.31923029356622523,0.0
1186,1186,0.5790192552768425,0.6,0,377.0,622.0,0.0,201.0,1,0.5309708005210544,0.0
1187,1187,-0.7732459000138552,-0.8,1,482.0,583.0,1.0,185.0,1,0.9654099659424716,0.0
1188,1188,0.012097112427707613,0.0,0,405.0,933.0,1.0,2602.0,0,0.32831285231991986,0.0
1189,1189,-0.40206495777545714,-0.4,1,409.0,558.0,1.0,293.0,1,0.5390186683488093,0.0
1190,1190,-0.6636325206061611,-0.7,1,446.0,675.0,1.0,289.0,1,0.8575212091173937,0.0
1191,1191,0.5594347679418021,0.6,0,312.0,943.0,0.0,185.0,1,0.6990217326300978,0.0
1192,1192,0.13808795777270588,0.1,0,278.0,987.0,0.0,245.0,1,0.7702360772474103,0.0
1193,1193,-0.04294750059607133,-0.0,1,309.0,794.0,1.0,757.0,1,0.7179984492766491,0.0
1194,1194,-0.021371654237352766,-0.0,1,259.0,968.0,1.0,1293.0,1,0.2889611727695101,0.0
1195,1195,-0.4763211546219712,-0.5,1,464.0,961.0,1.0,535.0,1,0.22885735828191828,0.0
1196,1196,-0.07614815008946718,-0.1,1,309.0,739.0,1.0,422.0,1,0.5330521074189878,0.0
1197,1197,0.16469688122707038,0.2,0,451.0,580.0,0.0,1119.0,1,0.239696340210108,0.0
1198,1198,-0.09297048368251248,-0.1,1,437.0,619.0,1.0,574.0,1,0.4941470211744019,0.0
1199,1199,-0.7748660773996494,-0.8,1,497.0,829.0,1.0,264.0,1,0.4875849460591676,0.0
1200,1200,-0.9888024113327052,-1.0,1,430.0,994.0,1.0,206.0,1,0.44757073028985694,0.0
1201,1201,-0.6119557059298202,-0.6,1,327.0,738.0,1.0,455.0,1,0.41713898443943354,0.0
1202,1202,-0.4329429900623447,-0.4,1,280.0,897.0,1.0,383.0,1,0.6521686976946155,0.0
1203,1203,-0.14283311830833334,-0.1,1,495.0,913.0,1.0,812.0,1,0.45949893914908524,0.0
1204,1204,-0.17007993299601543,-0.2,1,388.0,650.0,1.0,692.0,1,0.5246597355833845,0.0
1205,1205,-0.21132866019260144,-0.2,1,485.0,881.0,1.0,374.0,1,0.8379003893598578,0.0
1206,1206,0.4449270516313215,0.4,0,347.0,975.0,0.0,268.0,1,0.8729541492816794,0.0
1207,1207,0.36896867417191537,0.4,0,299.0,580.0,0.0,521.0,1,0.3275552943275305,0.0
1208,1208,0.5497805774311761,0.5,0,351.0,575.0,0.0,234.0,1,0.657593339368665,0.0
1209,1209,-0.8490896098642398,-0.8,1,342.0,523.0,1.0,535.0,1,0.15512618890005303,0.0
1210,1210,0.33603067578629564,0.3,0,471.0,663.0,0.0,436.0,1,0.3671105140174198,0.0
1211,1211,0.42684248057534724,0.4,0,328.0,994.0,0.0,458.0,1,0.5422050406675214,0.0
1212,1212,0.7975361765689626,0.8,0,401.0,724.0,0.0,235.0,1,0.5358711380698521,0.0
1213,1213,0.5045713506180671,0.5,0,473.0,887.0,0.0,250.0,1,0.9156493432139958,0.0
1214,1214,-0.7493411890445592,-0.7,1,295.0,661.0,1.0,214.0,1,0.6032196871995102,0.0
1215,1215,-0.2340785740165796,-0.2,1,350.0,794.0,1.0,1606.0,1,0.21526094698747555,0.0
1216,1216,0.10479858834149325,0.1,0,454.0,694.0,0.0,332.0,1,0.8785335361646691,0.0
1217,1217,0.6396586137764333,0.6,0,441.0,740.0,0.0,329.0,1,0.6974346158530251,0.0
1218,1218,0.833800033395284,0.8,0,445.0,541.0,0.0,204.0,1,0.7892080382548662,0.0
1219,1219,-0.6654821575756908,-0.7,1,293.0,680.0,1.0,317.0,1,0.8525630548994957,0.0
1220,1220,-0.5167961617797494,-0.5,1,357.0,798.0,1.0,285.0,1,0.7033992281381827,0.0
