,trial,coherence,coherence_bin,correct_side,target_onset,checker_onset,decision,decision_time,correct_decision,g0,gSlope
0,0,0.47245129256735274,0.5,0,284.0,739.0,0.0,1007.0,1,0.012751396967649598,0.0
1,1,-0.18244778280997354,-0.2,1,377.0,583.0,0.0,210.0,0,0.7548537467223725,0.0
2,2,-0.6565134058138462,-0.7,1,260.0,769.0,1.0,291.0,1,0.38701214292485386,0.0
3,3,0.4969679530002382,0.5,0,367.0,519.0,0.0,314.0,1,0.49673239926501755,0.0
4,4,-0.21995994259403617,-0.2,1,281.0,771.0,1.0,418.0,1,0.1949192990715073,0.0
5,5,-0.5162043318757985,-0.5,1,327.0,502.0,1.0,351.0,1,0.10989300782692957,0.0
6,6,-0.8090731789458059,-0.8,1,300.0,594.0,1.0,326.0,1,0.4374968265204524,0.0
7,7,-0.1255508034404984,-0.1,1,416.0,567.0,1.0,387.0,1,0.0055435394886816924,0.0
8,8,0.11834654696910119,0.1,0,402.0,853.0,0.0,255.0,1,0.6608012012908631,0.0
9,9,0.6662293416387917,0.7,0,390.0,772.0,0.0,298.0,1,0.45457993109332906,0.0
10,10,0.6441574051881331,0.6,0,429.0,847.0,0.0,144.0,1,0.6382341748295514,0.0
11,11,-0.5397169421435684,-0.5,1,335.0,800.0,1.0,215.0,1,0.900730143848975,0.0
12,12,0.923343617476186,0.9,0,434.0,923.0,0.0,153.0,1,0.8644471721689286,0.0
13,13,0.7959335363702549,0.8,0,488.0,741.0,0.0,331.0,1,0.006366841035098214,0.0
14,14,0.34209394504487634,0.3,0,336.0,775.0,0.0,799.0,1,0.061053130810411305,0.0
15,15,-0.6221267135873725,-0.6,1,435.0,716.0,1.0,539.0,1,0.04463062416764363,0.0
16,16,0.3823964798347075,0.4,0,488.0,719.0,0.0,513.0,1,0.6692177551928388,0.0
17,17,-0.4100459256901696,-0.4,1,467.0,736.0,1.0,397.0,1,0.271791510216266,0.0
18,18,0.841279302683325,0.8,0,292.0,926.0,0.0,192.0,1,0.873474116430395,0.0
19,19,-0.9658428976593612,-1.0,1,323.0,580.0,1.0,177.0,1,0.9071723792454608,0.0
20,20,-0.9351553442997864,-0.9,1,314.0,946.0,1.0,150.0,1,0.9461539697152361,0.0
21,21,0.8071924806763822,0.8,0,479.0,932.0,0.0,309.0,1,0.5619718852793496,0.0
22,22,0.7995613285542127,0.8,0,287.0,548.0,0.0,215.0,1,0.8015538956822693,0.0
23,23,0.575632974873028,0.6,0,439.0,818.0,0.0,743.0,1,0.08271196074191078,0.0
24,24,0.6444591619023023,0.6,0,448.0,570.0,0.0,172.0,1,0.36928397036810634,0.0
25,25,-0.054702166787294226,-0.1,1,486.0,550.0,0.0,894.0,0,0.09540163206101548,0.0
26,26,0.6394285460912958,0.6,0,416.0,727.0,0.0,317.0,1,0.7022561717909968,0.0
27,27,-0.3277550263665885,-0.3,1,469.0,767.0,1.0,394.0,1,0.21939310871518058,0.0
28,28,0.22975728649060945,0.2,0,451.0,758.0,0.0,271.0,1,0.8175996841893627,0.0
29,29,-0.5435419313944698,-0.5,1,399.0,914.0,1.0,257.0,1,0.4598196636638846,0.0
30,30,-0.5069796833544784,-0.5,1,428.0,519.0,1.0,183.0,1,0.922889084978605,0.0
31,31,0.9456847943300326,0.9,0,348.0,945.0,0.0,177.0,1,0.48566952490499693,0.0
32,32,0.16691723916403478,0.2,0,311.0,539.0,0.0,870.0,1,0.8310802127172559,0.0
33,33,-0.14789386054374876,-0.1,1,434.0,876.0,1.0,370.0,1,0.4051388654389452,0.0
34,34,-0.4214174818341079,-0.4,1,264.0,808.0,1.0,508.0,1,0.3154151158799494,0.0
35,35,-0.21195297507586885,-0.2,1,498.0,770.0,1.0,332.0,1,0.8483037670989839,0.0
36,36,-0.10171248971574287,-0.1,1,365.0,558.0,1.0,1377.0,1,0.0733463777582487,0.0
37,37,-0.6585857623127191,-0.7,1,463.0,741.0,1.0,376.0,1,0.08180562982734285,0.0
38,38,0.508968094295023,0.5,0,391.0,771.0,0.0,418.0,1,0.43674635462820677,0.0
39,39,0.4027088674699464,0.4,0,289.0,669.0,0.0,232.0,1,0.3230065903141014,0.0
40,40,0.4579452579708789,0.5,0,257.0,983.0,0.0,190.0,1,0.6395980791064215,0.0
41,41,0.8339365955639644,0.8,0,351.0,554.0,0.0,285.0,1,0.12177940768467743,0.0
42,42,0.3861234607438868,0.4,0,418.0,843.0,0.0,309.0,1,0.5422670534040132,0.0
43,43,-0.7355802062682895,-0.7,1,274.0,980.0,1.0,186.0,1,0.9885318212315661,0.0
44,44,0.4768574997760968,0.5,0,330.0,510.0,0.0,270.0,1,0.7313606289982856,0.0
45,45,0.39758119334839215,0.4,0,425.0,974.0,0.0,351.0,1,0.19373421573416016,0.0
46,46,-0.5667497786913216,-0.6,1,474.0,595.0,1.0,201.0,1,0.1537679894289674,0.0
47,47,-0.09567334237321234,-0.1,1,320.0,501.0,1.0,159.0,1,0.8994068123954537,0.0
48,48,0.11832758222891848,0.1,0,315.0,863.0,0.0,272.0,1,0.6464846399616591,0.0
49,49,0.04928629977624843,0.0,0,303.0,886.0,1.0,981.0,0,0.14919375293940584,0.0
50,50,0.04317273973248503,0.0,0,263.0,695.0,0.0,362.0,1,0.3424245067120134,0.0
51,51,-0.4912780693994703,-0.5,1,479.0,989.0,1.0,212.0,1,0.582970667857264,0.0
52,52,0.6861499027314601,0.7,0,372.0,763.0,0.0,205.0,1,0.19579387366739143,0.0
53,53,-0.5108851632633875,-0.5,1,309.0,508.0,1.0,133.0,1,0.9228879186361849,0.0
54,54,-0.9687037035995922,-1.0,1,409.0,954.0,1.0,197.0,1,0.5400724434013106,0.0
55,55,-0.7143400589620241,-0.7,1,384.0,923.0,1.0,343.0,1,0.33091606859309297,0.0
56,56,0.3276590327644797,0.3,0,340.0,607.0,0.0,313.0,1,0.07968778940690668,0.0
57,57,0.37895417290521327,0.4,0,487.0,779.0,0.0,324.0,1,0.5665576589597048,0.0
58,58,0.0002862855998000402,0.0,0,483.0,546.0,0.0,741.0,1,0.7737466451073365,0.0
59,59,-0.5381791431499483,-0.5,1,391.0,985.0,1.0,154.0,1,0.972982259059162,0.0
60,60,-0.9333614783921398,-0.9,1,331.0,951.0,1.0,168.0,1,0.8789401778524031,0.0
61,61,0.8844449604301352,0.9,0,456.0,731.0,0.0,213.0,1,0.6152918604286255,0.0
62,62,-0.37522937827684766,-0.4,1,496.0,649.0,1.0,255.0,1,0.6025205630731015,0.0
63,63,0.984651699427344,1.0,0,417.0,778.0,0.0,135.0,1,0.4694199275932278,0.0
64,64,-0.3115898111745683,-0.3,1,444.0,615.0,1.0,231.0,1,0.6120548305336656,0.0
65,65,0.8598054033321143,0.9,0,272.0,924.0,0.0,184.0,1,0.8269517828514511,0.0
66,66,0.529241436460782,0.5,0,444.0,677.0,0.0,349.0,1,0.28646337539274047,0.0
67,67,0.29386416327665743,0.3,0,360.0,665.0,0.0,275.0,1,0.8259693132584445,0.0
68,68,0.07116873224476317,0.1,0,380.0,630.0,0.0,1000.0,1,0.05326535202697247,0.0
69,69,0.20754941782328862,0.2,0,382.0,587.0,0.0,351.0,1,0.07881477416877891,0.0
70,70,-0.5432263185891821,-0.5,1,470.0,876.0,1.0,454.0,1,0.5413241310238758,0.0
71,71,0.11485499846951153,0.1,0,368.0,815.0,0.0,187.0,1,0.9663754180500297,0.0
72,72,-0.9095536308074039,-0.9,1,274.0,995.0,1.0,251.0,1,0.6639140562807302,0.0
73,73,-0.22227656870463286,-0.2,1,390.0,809.0,1.0,301.0,1,0.5275467552546746,0.0
74,74,-0.4097772685938965,-0.4,1,322.0,987.0,1.0,461.0,1,0.06976390435939028,0.0
75,75,0.37777496777290187,0.4,0,330.0,563.0,0.0,287.0,1,0.18345318868063631,0.0
76,76,-0.7360515206647729,-0.7,1,372.0,712.0,1.0,316.0,1,0.21501236981139438,0.0
77,77,0.4910309800992878,0.5,0,309.0,549.0,0.0,412.0,1,0.43891786960562684,0.0
78,78,-0.7889928794894687,-0.8,1,422.0,904.0,1.0,234.0,1,0.5308433201484963,0.0
79,79,0.352947614769312,0.4,0,382.0,813.0,0.0,265.0,1,0.8986881274714498,0.0
80,80,-0.8860233138775222,-0.9,1,363.0,651.0,1.0,136.0,1,0.5386109631172904,0.0
81,81,0.41502197730181445,0.4,0,317.0,983.0,0.0,500.0,1,0.07001113017629057,0.0
82,82,-0.6326706811087168,-0.6,1,340.0,567.0,1.0,683.0,1,0.2982498770053317,0.0
83,83,0.4217971456751075,0.4,0,250.0,633.0,0.0,337.0,1,0.5869466331016231,0.0
84,84,0.8158559292819556,0.8,0,339.0,607.0,0.0,164.0,1,0.7221467057484195,0.0
85,85,-0.9533804338069929,-1.0,1,345.0,807.0,1.0,188.0,1,0.4512934267841022,0.0
86,86,-0.4230057641527898,-0.4,1,276.0,671.0,1.0,343.0,1,0.7555882282946763,0.0
87,87,-0.6329406227699361,-0.6,1,262.0,757.0,1.0,231.0,1,0.8719001145784145,0.0
88,88,0.6076507865787057,0.6,0,341.0,819.0,0.0,290.0,1,0.5971729917326696,0.0
89,89,-0.9588040206469719,-1.0,1,305.0,632.0,1.0,213.0,1,0.4583528674774461,0.0
90,90,0.09606397770751784,0.1,0,366.0,847.0,0.0,1427.0,1,0.08698444786716364,0.0
91,91,0.010956155253952549,0.0,0,278.0,788.0,0.0,924.0,1,0.27318850475583323,0.0
92,92,0.4784138548929975,0.5,0,468.0,544.0,0.0,218.0,1,0.502703198528285,0.0
93,93,-0.8483338657104389,-0.8,1,250.0,796.0,1.0,284.0,1,0.12423147804338397,0.0
94,94,0.04035714384147715,0.0,0,347.0,588.0,1.0,625.0,0,0.046914065643184344,0.0
95,95,0.8809231468790684,0.9,0,287.0,972.0,0.0,261.0,1,0.33017342110944825,0.0
96,96,0.6900411235644734,0.7,0,314.0,744.0,0.0,312.0,1,0.7431758145561844,0.0
97,97,0.8895638421849645,0.9,0,456.0,758.0,0.0,216.0,1,0.1399148749996586,0.0
98,98,-0.2391388526085454,-0.2,1,380.0,786.0,1.0,324.0,1,0.3350040310553084,0.0
99,99,-0.5231102362374087,-0.5,1,472.0,556.0,1.0,312.0,1,0.11482841494517826,0.0
100,100,0.4470115271085007,0.4,0,458.0,998.0,0.0,344.0,1,0.7582790586159862,0.0
101,101,-0.32338239408834424,-0.3,1,472.0,701.0,1.0,227.0,1,0.7607155925995253,0.0
102,102,0.5798628315246819,0.6,0,408.0,858.0,0.0,314.0,1,0.29111583989988876,0.0
103,103,0.18823687350418639,0.2,0,443.0,753.0,0.0,174.0,1,0.8048718101680317,0.0
104,104,0.19519829546643708,0.2,0,402.0,924.0,0.0,334.0,1,0.4858211676034885,0.0
105,105,-0.8023525650357759,-0.8,1,401.0,889.0,1.0,120.0,1,0.6776418685110213,0.0
106,106,0.9914203742387935,1.0,0,471.0,673.0,0.0,206.0,1,0.2783002893780119,0.0
107,107,0.5085468639103174,0.5,0,271.0,592.0,0.0,287.0,1,0.3117732524246408,0.0
108,108,0.08728160133233032,0.1,0,382.0,681.0,0.0,307.0,1,0.8128619562472795,0.0
109,109,0.43204917242444485,0.4,0,409.0,690.0,0.0,401.0,1,0.018731115609397775,0.0
110,110,-0.8319855190972412,-0.8,1,301.0,688.0,1.0,311.0,1,0.26756011560718995,0.0
111,111,0.29679744303941025,0.3,0,353.0,606.0,0.0,411.0,1,0.40850669286108576,0.0
112,112,0.4528204004807197,0.5,0,260.0,690.0,0.0,370.0,1,0.6440343872177761,0.0
113,113,-0.44015053609891,-0.4,1,274.0,960.0,1.0,326.0,1,0.3233099702002643,0.0
114,114,-0.6952187779849446,-0.7,1,415.0,845.0,1.0,160.0,1,0.9703163119315036,0.0
115,115,0.8938993149755121,0.9,0,296.0,869.0,0.0,255.0,1,0.3724167226801667,0.0
116,116,0.267608681204931,0.3,0,399.0,935.0,0.0,216.0,1,0.8597208483945687,0.0
117,117,0.3689938526624963,0.4,0,269.0,600.0,0.0,301.0,1,0.5442897634653057,0.0
118,118,0.35480645669453925,0.4,0,295.0,874.0,0.0,321.0,1,0.5542997835191193,0.0
119,119,0.7922658829081066,0.8,0,452.0,742.0,0.0,286.0,1,0.24144204558077353,0.0
120,120,0.8963366171149907,0.9,0,449.0,875.0,0.0,136.0,1,0.7956618584975474,0.0
121,121,-0.9747290972428562,-1.0,1,434.0,793.0,1.0,193.0,1,0.8046405221358487,0.0
122,122,0.2362666558228097,0.2,0,314.0,619.0,0.0,207.0,1,0.5451593812337853,0.0
123,123,-0.4068216554269124,-0.4,1,400.0,694.0,1.0,216.0,1,0.9239991193536673,0.0
124,124,-0.07144924968050881,-0.1,1,378.0,774.0,1.0,738.0,1,0.0032789906440459093,0.0
125,125,-0.8254262156553969,-0.8,1,450.0,979.0,1.0,161.0,1,0.8496460248241151,0.0
126,126,0.8542015798064799,0.9,0,474.0,933.0,0.0,313.0,1,0.021408305718492726,0.0
127,127,0.22880658028574352,0.2,0,392.0,731.0,0.0,337.0,1,0.43651077463395105,0.0
128,128,0.6155342791068701,0.6,0,383.0,622.0,0.0,405.0,1,0.9021885267911123,0.0
129,129,0.7970099624221807,0.8,0,404.0,527.0,0.0,399.0,1,0.0702794636709061,0.0
130,130,-0.019382442610754724,-0.0,1,426.0,631.0,0.0,643.0,0,0.048040278960855165,0.0
131,131,0.1829538697068993,0.2,0,283.0,817.0,1.0,420.0,0,0.8690592625601952,0.0
132,132,0.1068799027322378,0.1,0,309.0,980.0,0.0,931.0,1,0.0793024079618766,0.0
133,133,0.829740949279679,0.8,0,358.0,968.0,0.0,304.0,1,0.34660291421111156,0.0
134,134,0.6072104285474438,0.6,0,446.0,777.0,0.0,167.0,1,0.8560243465714649,0.0
135,135,0.5793671971304413,0.6,0,446.0,650.0,0.0,144.0,1,0.9669059119943905,0.0
136,136,-0.8239293307613593,-0.8,1,328.0,558.0,1.0,194.0,1,0.32032403646552354,0.0
137,137,0.12492815691267323,0.1,0,337.0,634.0,0.0,489.0,1,0.4697138254099046,0.0
138,138,-0.1791667190465256,-0.2,1,492.0,548.0,1.0,270.0,1,0.5154505502796687,0.0
139,139,-0.23666115891493877,-0.2,1,480.0,513.0,1.0,257.0,1,0.2953536291762522,0.0
140,140,-0.5759080941549073,-0.6,1,453.0,898.0,1.0,169.0,1,0.9392925431764493,0.0
141,141,-0.6605694894675262,-0.7,1,415.0,817.0,1.0,228.0,1,0.21733891667322502,0.0
142,142,0.3222648977242124,0.3,0,263.0,800.0,0.0,257.0,1,0.5225069233416062,0.0
143,143,0.5019636073275049,0.5,0,284.0,597.0,0.0,249.0,1,0.5673779701174849,0.0
144,144,0.6503419290699144,0.7,0,276.0,668.0,0.0,206.0,1,0.4506735024963432,0.0
145,145,-0.18362029192679707,-0.2,1,397.0,651.0,0.0,252.0,0,0.4331704963271794,0.0
146,146,0.09649422225312287,0.1,0,448.0,954.0,1.0,698.0,0,0.6519479451251846,0.0
147,147,0.8264141104007499,0.8,0,311.0,605.0,0.0,264.0,1,0.38051476108249704,0.0
148,148,-0.5089559312313119,-0.5,1,357.0,923.0,1.0,200.0,1,0.4534589006907349,0.0
149,149,0.5679244835471999,0.6,0,338.0,992.0,0.0,230.0,1,0.7663650014021814,0.0
150,150,0.9328794665938736,0.9,0,438.0,732.0,0.0,220.0,1,0.4944870239400745,0.0
151,151,0.9224341257906439,0.9,0,380.0,551.0,0.0,219.0,1,0.823564003857264,0.0
152,152,-0.653504739210973,-0.7,1,253.0,782.0,1.0,375.0,1,0.7488085463813117,0.0
153,153,0.11549056765015675,0.1,0,494.0,784.0,0.0,442.0,1,0.4769931486976754,0.0
154,154,0.2288543456651615,0.2,0,382.0,846.0,0.0,312.0,1,0.8256644842606347,0.0
155,155,0.604284258977869,0.6,0,411.0,901.0,0.0,308.0,1,0.3104457074586574,0.0
156,156,0.6724427743199692,0.7,0,466.0,859.0,0.0,305.0,1,0.7156885240766764,0.0
157,157,0.24048911079332913,0.2,0,317.0,756.0,0.0,657.0,1,0.10826340403952239,0.0
158,158,-0.03195216519688704,-0.0,1,426.0,676.0,1.0,1808.0,1,0.1063286698104502,0.0
159,159,0.342298373407675,0.3,0,488.0,658.0,0.0,374.0,1,0.3301595389105064,0.0
160,160,0.7074852626291752,0.7,0,362.0,993.0,0.0,295.0,1,0.5342552933189187,0.0
161,161,-0.622190576624126,-0.6,1,352.0,768.0,1.0,250.0,1,0.08925345075192581,0.0
162,162,0.330149942658976,0.3,0,479.0,595.0,0.0,516.0,1,0.27882145704156736,0.0
163,163,-0.5228736070931406,-0.5,1,480.0,650.0,1.0,180.0,1,0.7379946849611846,0.0
164,164,-0.9240427909212305,-0.9,1,334.0,718.0,1.0,268.0,1,0.3245502262633364,0.0
165,165,-0.6901668446052924,-0.7,1,477.0,696.0,1.0,237.0,1,0.45232443100171027,0.0
166,166,-0.7708295795041193,-0.8,1,266.0,717.0,1.0,197.0,1,0.3772327833327166,0.0
167,167,0.7757368509456763,0.8,0,483.0,879.0,0.0,208.0,1,0.8289039697493424,0.0
168,168,0.745256987831104,0.7,0,471.0,958.0,0.0,341.0,1,0.3673382693735192,0.0
169,169,0.17576972070129115,0.2,0,383.0,591.0,0.0,206.0,1,0.862000727656311,0.0
170,170,-0.7880236843845603,-0.8,1,252.0,922.0,1.0,366.0,1,0.22191585305027683,0.0
171,171,0.10731161495906938,0.1,0,346.0,996.0,0.0,598.0,1,0.3871866823968395,0.0
172,172,0.8757039010156553,0.9,0,469.0,782.0,0.0,159.0,1,0.5875518952234173,0.0
173,173,0.8026845815435333,0.8,0,353.0,626.0,0.0,351.0,1,0.14588590925509826,0.0
174,174,0.13382052797281574,0.1,0,384.0,543.0,0.0,343.0,1,0.8768246325016574,0.0
175,175,0.42011198560456076,0.4,0,311.0,755.0,0.0,254.0,1,0.7569102075898315,0.0
176,176,-0.5041092214091898,-0.5,1,314.0,973.0,1.0,303.0,1,0.2942191182974466,0.0
177,177,0.9071957741969532,0.9,0,400.0,811.0,0.0,109.0,1,0.35061651168228014,0.0
178,178,-0.4722605339026873,-0.5,1,376.0,699.0,1.0,215.0,1,0.914662509758694,0.0
179,179,-0.603915316485012,-0.6,1,456.0,892.0,1.0,222.0,1,0.54555435160664,0.0
180,180,0.34447889405073107,0.3,0,327.0,508.0,0.0,285.0,1,0.2572344624810935,0.0
181,181,-0.2533504325611555,-0.3,1,390.0,781.0,1.0,509.0,1,0.02354008670872476,0.0
182,182,0.4885772696818891,0.5,0,365.0,682.0,0.0,323.0,1,0.5605137103543976,0.0
183,183,0.22945156990938265,0.2,0,287.0,709.0,0.0,244.0,1,0.8359123008912586,0.0
184,184,0.5190503263923629,0.5,0,315.0,898.0,0.0,257.0,1,0.44669333264538225,0.0
185,185,0.9779979697984029,1.0,0,480.0,787.0,0.0,113.0,1,0.7669348371200825,0.0
186,186,-0.2557982287095564,-0.3,1,463.0,901.0,1.0,416.0,1,0.4729823615761719,0.0
187,187,0.007253058239718779,0.0,0,469.0,732.0,1.0,2129.0,0,0.033023030702610146,0.0
188,188,-0.9891971144122071,-1.0,1,342.0,822.0,1.0,156.0,1,0.5098288623327536,0.0
189,189,-0.24784842082361558,-0.2,1,439.0,656.0,1.0,285.0,1,0.36630888878028756,0.0
190,190,-0.8990664345145256,-0.9,1,283.0,969.0,1.0,188.0,1,0.5911059833616948,0.0
191,191,-0.7974546464197889,-0.8,1,360.0,674.0,1.0,186.0,1,0.31174262936338804,0.0
192,192,0.3761914601170484,0.4,0,499.0,884.0,0.0,297.0,1,0.2019177679164098,0.0
193,193,-0.4744748744191212,-0.5,1,454.0,765.0,1.0,141.0,1,0.907094402868194,0.0
194,194,0.6971591252419396,0.7,0,348.0,849.0,0.0,233.0,1,0.27535407278033686,0.0
195,195,0.15943939497126958,0.2,0,252.0,706.0,0.0,1072.0,1,0.08139679163707492,0.0
196,196,-0.7185036424068065,-0.7,1,492.0,613.0,1.0,295.0,1,0.873574738814775,0.0
197,197,0.8215987433316507,0.8,0,453.0,846.0,0.0,181.0,1,0.6274307359972537,0.0
198,198,-0.3250059500987348,-0.3,1,449.0,822.0,1.0,289.0,1,0.6890066167682393,0.0
199,199,0.029818615757944533,0.0,0,358.0,679.0,0.0,243.0,1,0.7798559641387289,0.0
200,200,-0.9683089128985605,-1.0,1,264.0,801.0,1.0,185.0,1,0.17570284721153973,0.0
201,201,0.7492733214345493,0.7,0,346.0,762.0,0.0,132.0,1,0.9052473462282462,0.0
202,202,-0.0479649945399685,-0.0,1,463.0,650.0,1.0,207.0,1,0.8935289648365843,0.0
203,203,-0.5972487761280894,-0.6,1,485.0,729.0,1.0,216.0,1,0.24280416137789873,0.0
204,204,0.9249235034312344,0.9,0,365.0,732.0,0.0,123.0,1,0.9469391643868759,0.0
205,205,0.4006678866420754,0.4,0,467.0,778.0,0.0,265.0,1,0.8183509830120218,0.0
206,206,0.802267467168049,0.8,0,393.0,695.0,0.0,392.0,1,0.2828633560991647,0.0
207,207,-0.4947393183051052,-0.5,1,389.0,900.0,1.0,321.0,1,0.11538765370672421,0.0
208,208,-0.9359777949876507,-0.9,1,288.0,693.0,1.0,229.0,1,0.778794285607315,0.0
209,209,-0.8367505329932641,-0.8,1,332.0,721.0,1.0,307.0,1,0.04381743382527703,0.0
210,210,-0.06727345828636255,-0.1,1,283.0,943.0,1.0,354.0,1,0.196713491840793,0.0
211,211,-0.41469287684797784,-0.4,1,402.0,634.0,1.0,284.0,1,0.34262584216545966,0.0
212,212,-0.10008732324568848,-0.1,1,428.0,806.0,1.0,266.0,1,0.8476849158127853,0.0
213,213,0.051089030833413984,0.1,0,264.0,509.0,1.0,1887.0,0,0.11893632273750021,0.0
214,214,0.13202704321116632,0.1,0,352.0,542.0,1.0,446.0,0,0.9992296961446456,0.0
215,215,0.4144779037471389,0.4,0,428.0,978.0,0.0,414.0,1,0.09884161045063122,0.0
216,216,0.698295919534774,0.7,0,265.0,840.0,0.0,165.0,1,0.2894071835823605,0.0
217,217,0.22743964548596307,0.2,0,284.0,889.0,0.0,307.0,1,0.4690098065428985,0.0
218,218,0.32536074678329596,0.3,0,342.0,940.0,0.0,598.0,1,0.022623636677423065,0.0
219,219,-0.4186182770136704,-0.4,1,421.0,555.0,1.0,414.0,1,0.6986821309878107,0.0
220,220,-0.034171513361156425,-0.0,1,266.0,914.0,0.0,190.0,0,0.8366202086794895,0.0
221,221,-0.12363730083257374,-0.1,1,384.0,763.0,1.0,113.0,1,0.8012568498068422,0.0
222,222,0.3521226550863632,0.4,0,390.0,897.0,0.0,333.0,1,0.4729422738805453,0.0
223,223,0.734315828857391,0.7,0,297.0,819.0,0.0,244.0,1,0.3009268294064169,0.0
224,224,-0.9226625364528376,-0.9,1,374.0,594.0,1.0,292.0,1,0.46076506499910164,0.0
225,225,-0.42216570141173104,-0.4,1,407.0,998.0,1.0,415.0,1,0.7553486258076249,0.0
226,226,0.6363438222712192,0.6,0,471.0,978.0,0.0,151.0,1,0.7154039925457815,0.0
227,227,0.4772471811177157,0.5,0,275.0,772.0,0.0,193.0,1,0.3881982296255021,0.0
228,228,0.6138490454423768,0.6,0,346.0,842.0,0.0,402.0,1,0.2958037892983323,0.0
229,229,-0.09660972864017325,-0.1,1,271.0,843.0,0.0,446.0,0,0.878372429532585,0.0
230,230,-0.08538334383814994,-0.1,1,313.0,802.0,1.0,765.0,1,0.447771305074523,0.0
231,231,-0.7430506626605087,-0.7,1,407.0,880.0,1.0,213.0,1,0.047544485522982405,0.0
232,232,-0.6422456269211965,-0.6,1,374.0,749.0,1.0,227.0,1,0.7064209949478207,0.0
233,233,-0.561655759053687,-0.6,1,383.0,618.0,1.0,149.0,1,0.8462375162210629,0.0
234,234,-0.8876192311659226,-0.9,1,446.0,750.0,1.0,544.0,1,0.16625471783632106,0.0
235,235,-0.4836437631810555,-0.5,1,287.0,620.0,1.0,273.0,1,0.1808149849183749,0.0
236,236,-0.9359997025829137,-0.9,1,377.0,575.0,1.0,238.0,1,0.0681861393975095,0.0
237,237,-0.7519841972387169,-0.8,1,464.0,514.0,1.0,182.0,1,0.6209237681973353,0.0
238,238,-0.8710694902763727,-0.9,1,282.0,917.0,1.0,151.0,1,0.8412280212580958,0.0
239,239,0.2537895016348981,0.3,0,415.0,707.0,0.0,338.0,1,0.0851730269804547,0.0
240,240,0.2637127354310893,0.3,0,271.0,881.0,0.0,728.0,1,0.3980950225874701,0.0
241,241,-0.8513308154139891,-0.9,1,482.0,856.0,1.0,352.0,1,0.5684957268017367,0.0
242,242,0.175890013907962,0.2,0,289.0,676.0,0.0,495.0,1,0.6793286320944715,0.0
243,243,-0.6468876368471519,-0.6,1,465.0,862.0,1.0,163.0,1,0.9339434576627857,0.0
244,244,-0.8610411799281084,-0.9,1,278.0,810.0,1.0,122.0,1,0.7198980300851218,0.0
245,245,-0.300445383062083,-0.3,1,323.0,948.0,1.0,179.0,1,0.6762878926346275,0.0
246,246,0.12935385271336508,0.1,0,479.0,786.0,1.0,695.0,0,0.0597267149889007,0.0
247,247,0.2269632683430829,0.2,0,375.0,939.0,0.0,296.0,1,0.23714250490151,0.0
248,248,0.7771480241728204,0.8,0,467.0,500.0,0.0,343.0,1,0.28852981333522265,0.0
249,249,0.9713768656969217,1.0,0,306.0,611.0,0.0,223.0,1,0.2251313991883891,0.0
250,250,-0.6963331251548233,-0.7,1,458.0,803.0,1.0,289.0,1,0.06990132735919163,0.0
251,251,0.5140678808514263,0.5,0,322.0,605.0,0.0,473.0,1,0.0637167851489796,0.0
252,252,-0.3416519116652028,-0.3,1,442.0,876.0,1.0,252.0,1,0.19020942265917118,0.0
253,253,0.7635771759567651,0.8,0,483.0,539.0,0.0,198.0,1,0.6377954178869678,0.0
254,254,0.4292044241888402,0.4,0,316.0,946.0,0.0,368.0,1,0.44830380479249554,0.0
255,255,-0.27150411472128666,-0.3,1,264.0,529.0,1.0,447.0,1,0.9352848624707202,0.0
256,256,-0.766253495393707,-0.8,1,271.0,554.0,1.0,175.0,1,0.6922606638230127,0.0
257,257,0.8615430366353085,0.9,0,307.0,570.0,0.0,303.0,1,0.37037991931041125,0.0
258,258,0.1357608908574932,0.1,0,339.0,963.0,0.0,308.0,1,0.2705156167329297,0.0
259,259,0.9157394304732911,0.9,0,343.0,547.0,0.0,170.0,1,0.10700853312845182,0.0
260,260,-0.5503360236045742,-0.6,1,321.0,731.0,1.0,248.0,1,0.647744261515372,0.0
261,261,-0.5567393346685636,-0.6,1,357.0,873.0,1.0,250.0,1,0.1773831282806142,0.0
262,262,0.9818163396556436,1.0,0,283.0,909.0,0.0,158.0,1,0.5081549877736883,0.0
263,263,-0.46975673574416543,-0.5,1,270.0,952.0,1.0,288.0,1,0.2718836811864239,0.0
264,264,0.08618157243601021,0.1,0,481.0,939.0,0.0,670.0,1,0.1337898848292719,0.0
265,265,-0.2410139726131948,-0.2,1,320.0,675.0,1.0,785.0,1,0.15977143099626856,0.0
266,266,0.7833571701776216,0.8,0,275.0,726.0,0.0,189.0,1,0.7894673654855967,0.0
267,267,-0.9289924855361646,-0.9,1,460.0,947.0,1.0,183.0,1,0.13653839744193663,0.0
268,268,-0.08254811810538643,-0.1,1,498.0,893.0,1.0,359.0,1,0.28644773724802275,0.0
269,269,-0.8200950864745411,-0.8,1,297.0,876.0,1.0,277.0,1,0.5316632283687687,0.0
270,270,-0.7381436411581597,-0.7,1,482.0,789.0,1.0,479.0,1,0.29667328648446245,0.0
271,271,-0.3358680004161281,-0.3,1,480.0,937.0,1.0,263.0,1,0.7280337852879255,0.0
272,272,0.2069133586733518,0.2,0,325.0,928.0,0.0,327.0,1,0.6910405926864189,0.0
273,273,0.08752237941472862,0.1,0,328.0,623.0,0.0,649.0,1,0.2593380943308857,0.0
274,274,0.8077703399386755,0.8,0,311.0,839.0,0.0,260.0,1,0.5092493311227323,0.0
275,275,-0.36492181826410675,-0.4,1,273.0,958.0,1.0,469.0,1,0.45431504844327164,0.0
276,276,-0.758523443480245,-0.8,1,321.0,863.0,1.0,186.0,1,0.8480930451716266,0.0
277,277,-0.7947334821996079,-0.8,1,317.0,675.0,1.0,208.0,1,0.2808381688629519,0.0
278,278,-0.932060478761493,-0.9,1,371.0,823.0,1.0,186.0,1,0.24843473774383618,0.0
279,279,-0.545823178874278,-0.5,1,332.0,664.0,1.0,174.0,1,0.7641514359916544,0.0
280,280,0.8384538063794145,0.8,0,326.0,622.0,0.0,312.0,1,0.5745893214835519,0.0
281,281,0.40181227739305414,0.4,0,337.0,588.0,0.0,345.0,1,0.6424425773335798,0.0
282,282,-0.5074871628966595,-0.5,1,415.0,860.0,1.0,325.0,1,0.09318966123385108,0.0
283,283,-0.9007706321488829,-0.9,1,402.0,549.0,1.0,349.0,1,0.1321593830431813,0.0
284,284,-0.24026115831827832,-0.2,1,387.0,580.0,1.0,253.0,1,0.6986988192059213,0.0
285,285,0.5411805407712083,0.5,0,492.0,970.0,0.0,258.0,1,0.29514166566302735,0.0
286,286,-0.9953667837576097,-1.0,1,498.0,745.0,1.0,227.0,1,0.5031012954611606,0.0
287,287,-0.5104079460552298,-0.5,1,308.0,794.0,1.0,208.0,1,0.7770517720327346,0.0
288,288,0.1893143053426154,0.2,0,489.0,835.0,0.0,476.0,1,0.8933459621627237,0.0
289,289,-0.5824897995564808,-0.6,1,335.0,975.0,1.0,220.0,1,0.5796854380244183,0.0
290,290,-0.1867330886578098,-0.2,1,388.0,584.0,1.0,238.0,1,0.492070513406183,0.0
291,291,-0.9005686028906184,-0.9,1,415.0,511.0,1.0,584.0,1,0.27138649785595104,0.0
292,292,0.5369141319844122,0.5,0,254.0,588.0,0.0,408.0,1,0.04538605059483014,0.0
293,293,-0.023700494934781657,-0.0,1,414.0,549.0,1.0,707.0,1,0.22343397928674757,0.0
294,294,-0.09176158533401613,-0.1,1,430.0,810.0,1.0,350.0,1,0.18797162202188322,0.0
295,295,-0.5136702565803879,-0.5,1,393.0,930.0,1.0,287.0,1,0.546933947886385,0.0
296,296,-0.5022122039739043,-0.5,1,418.0,772.0,1.0,340.0,1,0.36884172031909723,0.0
297,297,-0.6562595270147635,-0.7,1,413.0,629.0,1.0,208.0,1,0.8325241064874993,0.0
298,298,0.5346782123633542,0.5,0,393.0,550.0,0.0,407.0,1,0.15176451626217335,0.0
299,299,0.9782952305466146,1.0,0,353.0,967.0,0.0,310.0,1,0.6519136680492641,0.0
300,300,-0.9555340834675075,-1.0,1,357.0,742.0,1.0,131.0,1,0.5535690423632129,0.0
301,301,0.32812744278943917,0.3,0,345.0,927.0,0.0,298.0,1,0.4571401322669997,0.0
302,302,0.04962560742146871,0.0,0,307.0,620.0,0.0,183.0,1,0.8158979456228281,0.0
303,303,-0.9001161885239006,-0.9,1,270.0,835.0,1.0,235.0,1,0.5309353289101342,0.0
304,304,0.5888429684645513,0.6,0,457.0,791.0,0.0,272.0,1,0.16952482918745992,0.0
305,305,0.4153153775419298,0.4,0,298.0,715.0,0.0,397.0,1,0.10569718949068185,0.0
306,306,0.6189130339235176,0.6,0,340.0,921.0,0.0,239.0,1,0.08795570953587817,0.0
307,307,-0.7695862349473961,-0.8,1,437.0,885.0,1.0,208.0,1,0.5734993244944865,0.0
308,308,-0.08407037266146178,-0.1,1,282.0,670.0,1.0,928.0,1,0.4596823909798561,0.0
309,309,-0.6729116360598035,-0.7,1,493.0,829.0,1.0,138.0,1,0.7471302047459133,0.0
310,310,0.23708671141005722,0.2,0,394.0,684.0,0.0,552.0,1,0.11359882482398698,0.0
311,311,0.2620981180680393,0.3,0,399.0,840.0,0.0,241.0,1,0.7401696518473979,0.0
312,312,0.4630445540272463,0.5,0,418.0,936.0,0.0,406.0,1,0.08417635461204176,0.0
313,313,0.802558095110047,0.8,0,333.0,844.0,0.0,153.0,1,0.828402855741695,0.0
314,314,0.5958748745717646,0.6,0,391.0,815.0,0.0,214.0,1,0.08847227305123784,0.0
315,315,0.571101857956738,0.6,0,362.0,693.0,0.0,225.0,1,0.32388683720915756,0.0
316,316,-0.24184211511658704,-0.2,1,370.0,864.0,1.0,396.0,1,0.05686632699083505,0.0
317,317,-0.9166878220536039,-0.9,1,286.0,503.0,1.0,231.0,1,0.4937514061901721,0.0
318,318,0.17480053264169815,0.2,0,278.0,993.0,1.0,389.0,0,0.6898519832216956,0.0
319,319,-0.4352678709158919,-0.4,1,336.0,980.0,1.0,374.0,1,0.04781514934126163,0.0
320,320,-0.7809413801788503,-0.8,1,290.0,838.0,1.0,322.0,1,0.13807888618424302,0.0
321,321,-0.4060577444799567,-0.4,1,331.0,732.0,1.0,427.0,1,0.10580714742629949,0.0
322,322,-0.08658815561867228,-0.1,1,291.0,995.0,1.0,484.0,1,0.8454898568923,0.0
323,323,0.04360696543591658,0.0,0,475.0,909.0,0.0,286.0,1,0.7594034904994083,0.0
324,324,0.33156496446795414,0.3,0,272.0,654.0,0.0,264.0,1,0.16984267689720622,0.0
325,325,-0.8590056843691236,-0.9,1,460.0,908.0,1.0,292.0,1,0.15808164439987782,0.0
326,326,0.4197974899287753,0.4,0,268.0,546.0,0.0,276.0,1,0.6809127375353892,0.0
327,327,0.9233559777312663,0.9,0,345.0,913.0,0.0,212.0,1,0.24887243530161862,0.0
328,328,-0.3398328359947682,-0.3,1,308.0,673.0,1.0,249.0,1,0.37655905578229354,0.0
329,329,-0.5302101896974083,-0.5,1,448.0,603.0,1.0,179.0,1,0.9640039806730799,0.0
330,330,0.08276181154741646,0.1,0,464.0,909.0,0.0,447.0,1,0.7072897039241884,0.0
331,331,0.6196169171454893,0.6,0,420.0,747.0,0.0,263.0,1,0.6526921612807773,0.0
332,332,0.4345969057632777,0.4,0,448.0,506.0,0.0,296.0,1,0.5241287492045756,0.0
333,333,-0.5012825276930979,-0.5,1,423.0,708.0,1.0,289.0,1,0.40478010023207434,0.0
334,334,0.008794187222424421,0.0,0,282.0,946.0,0.0,232.0,1,0.2074872890454844,0.0
335,335,-0.926478634349116,-0.9,1,493.0,939.0,1.0,248.0,1,0.5143109967641732,0.0
336,336,-0.705002064429995,-0.7,1,379.0,658.0,1.0,193.0,1,0.7109764285876055,0.0
337,337,0.3969671311497165,0.4,0,314.0,704.0,0.0,142.0,1,0.40987623555424646,0.0
338,338,0.6154793437582873,0.6,0,418.0,573.0,0.0,389.0,1,0.2857648389198567,0.0
339,339,0.4018859686919256,0.4,0,312.0,614.0,0.0,204.0,1,0.7644814314022014,0.0
340,340,-0.5893042716906993,-0.6,1,463.0,982.0,1.0,705.0,1,0.02382714265623842,0.0
341,341,-0.5959056016025677,-0.6,1,376.0,808.0,1.0,286.0,1,0.17958998615282296,0.0
342,342,0.5557926589305366,0.6,0,328.0,550.0,0.0,182.0,1,0.7163914657840633,0.0
343,343,-0.39495620876567505,-0.4,1,464.0,578.0,1.0,168.0,1,0.57289675825365,0.0
344,344,0.46254976119899327,0.5,0,449.0,546.0,0.0,215.0,1,0.4590446495754459,0.0
345,345,0.15723149408560722,0.2,0,472.0,727.0,0.0,1831.0,1,0.03121165420033578,0.0
346,346,0.3212675289653346,0.3,0,380.0,739.0,0.0,201.0,1,0.6588344207707137,0.0
347,347,0.26279186473312866,0.3,0,382.0,676.0,0.0,422.0,1,0.20761798255656905,0.0
348,348,0.6877181507604355,0.7,0,465.0,960.0,0.0,145.0,1,0.41841238824815863,0.0
349,349,-0.8599690001315976,-0.9,1,413.0,642.0,1.0,105.0,1,0.7387845512812767,0.0
350,350,-0.5901895748281516,-0.6,1,422.0,761.0,1.0,247.0,1,0.830006156133699,0.0
351,351,-0.10323707897653689,-0.1,1,296.0,593.0,1.0,581.0,1,0.3508114193752925,0.0
352,352,0.19283938737314377,0.2,0,381.0,792.0,0.0,577.0,1,0.24966888843114754,0.0
353,353,0.5424978081458258,0.5,0,425.0,738.0,0.0,277.0,1,0.14142680399255037,0.0
354,354,0.7704109454303025,0.8,0,325.0,833.0,0.0,212.0,1,0.6682875201511688,0.0
355,355,0.5499644052602801,0.5,0,454.0,598.0,0.0,148.0,1,0.7723248042145071,0.0
356,356,-0.2870642817488729,-0.3,1,330.0,682.0,1.0,238.0,1,0.34997436323577635,0.0
357,357,0.3397602133509441,0.3,0,490.0,634.0,0.0,466.0,1,0.32499292145267444,0.0
358,358,0.027319601736499388,0.0,0,462.0,958.0,1.0,750.0,0,0.19591574045173932,0.0
359,359,-0.07401778567423811,-0.1,1,289.0,576.0,1.0,445.0,1,0.837478513718459,0.0
360,360,-0.6593289579887001,-0.7,1,399.0,631.0,1.0,330.0,1,0.01331142717543976,0.0
361,361,-0.8080502406010674,-0.8,1,282.0,850.0,1.0,408.0,1,0.11888509099542377,0.0
362,362,0.25092720069340313,0.3,0,391.0,648.0,0.0,381.0,1,0.39442249467565804,0.0
363,363,0.5892203157241045,0.6,0,394.0,566.0,0.0,190.0,1,0.5682919155381717,0.0
364,364,0.24537768843297258,0.2,0,496.0,825.0,0.0,349.0,1,0.6666265750682411,0.0
365,365,0.5420025405911679,0.5,0,262.0,866.0,0.0,332.0,1,0.6818883303076659,0.0
366,366,-0.06716835756475414,-0.1,1,372.0,926.0,1.0,172.0,1,0.7519592171614059,0.0
367,367,0.5216731936231718,0.5,0,426.0,562.0,0.0,342.0,1,0.518840659291643,0.0
368,368,-0.454420274568873,-0.5,1,296.0,512.0,1.0,162.0,1,0.9353631395193622,0.0
369,369,0.3473958060938054,0.3,0,361.0,701.0,0.0,368.0,1,0.6277876319552892,0.0
370,370,0.6785895030892999,0.7,0,336.0,741.0,0.0,133.0,1,0.8811864360254326,0.0
371,371,0.11841050483811677,0.1,0,432.0,600.0,1.0,348.0,0,0.7934354208510465,0.0
372,372,0.779027599521332,0.8,0,357.0,866.0,0.0,207.0,1,0.6538440910561657,0.0
373,373,0.1691737132769997,0.2,0,498.0,517.0,0.0,255.0,1,0.23764841000729997,0.0
374,374,-0.1461107137738129,-0.1,1,315.0,588.0,1.0,177.0,1,0.601018185589837,0.0
375,375,0.7778329434469766,0.8,0,465.0,891.0,0.0,644.0,1,0.21801836673504194,0.0
376,376,0.24481920529797874,0.2,0,472.0,640.0,0.0,498.0,1,0.9461004975161906,0.0
377,377,0.683340404437087,0.7,0,290.0,768.0,0.0,202.0,1,0.1503766142242453,0.0
378,378,0.84635898777136,0.8,0,312.0,566.0,0.0,292.0,1,0.9548867224113254,0.0
379,379,-0.2681548201989419,-0.3,1,439.0,694.0,1.0,127.0,1,0.36605707481989314,0.0
380,380,-0.9111286560976328,-0.9,1,354.0,802.0,1.0,144.0,1,0.5754577953962219,0.0
381,381,0.06894126489631947,0.1,0,489.0,626.0,1.0,1345.0,0,0.16798076538284612,0.0
382,382,-0.49514246487890734,-0.5,1,295.0,959.0,1.0,206.0,1,0.6124345507957173,0.0
383,383,0.19419283321754466,0.2,0,376.0,838.0,0.0,316.0,1,0.5542785775121541,0.0
384,384,0.1547192804845956,0.2,0,466.0,819.0,0.0,505.0,1,0.35322160952220494,0.0
385,385,-0.06972370983050613,-0.1,1,352.0,550.0,0.0,418.0,0,0.9753352742659597,0.0
386,386,-0.6410392616162321,-0.6,1,485.0,916.0,1.0,719.0,1,0.03905570301886285,0.0
387,387,-0.9295873913554877,-0.9,1,465.0,638.0,1.0,267.0,1,0.7114655081831769,0.0
388,388,0.8094254373055576,0.8,0,294.0,928.0,0.0,218.0,1,0.4016399166469933,0.0
389,389,-0.977646807561902,-1.0,1,282.0,932.0,1.0,166.0,1,0.2296214211508737,0.0
390,390,-0.6924075607285403,-0.7,1,340.0,832.0,1.0,348.0,1,0.08707220072017385,0.0
391,391,0.9336489133565788,0.9,0,359.0,904.0,0.0,297.0,1,0.029943386973509623,0.0
392,392,-0.1069787755462488,-0.1,1,359.0,724.0,1.0,287.0,1,0.7322614857959038,0.0
393,393,-0.5276936474879004,-0.5,1,428.0,794.0,1.0,618.0,1,0.14607319905032146,0.0
394,394,0.14208941883152604,0.1,0,469.0,937.0,1.0,394.0,0,0.7550679366978548,0.0
395,395,-0.018608799478499582,-0.0,1,441.0,630.0,1.0,1279.0,1,0.061612942598865295,0.0
396,396,-0.3171647302748908,-0.3,1,273.0,807.0,1.0,330.0,1,0.329106990045987,0.0
397,397,-0.8377133745405683,-0.8,1,277.0,786.0,1.0,217.0,1,0.5948684193552839,0.0
398,398,-0.18413049684220395,-0.2,1,303.0,617.0,1.0,250.0,1,0.4973552596732689,0.0
399,399,0.8188195871447888,0.8,0,292.0,906.0,0.0,152.0,1,0.4523829646852694,0.0
400,400,-0.8769837734678216,-0.9,1,313.0,857.0,1.0,360.0,1,0.039057304297627105,0.0
401,401,0.9942061843847017,1.0,0,326.0,565.0,0.0,159.0,1,0.42879061637059646,0.0
402,402,-0.22364535271850783,-0.2,1,495.0,728.0,1.0,377.0,1,0.5098854928712511,0.0
403,403,-0.15820123480366877,-0.2,1,390.0,534.0,1.0,236.0,1,0.32300762253716686,0.0
404,404,0.9555902432589458,1.0,0,328.0,659.0,0.0,263.0,1,0.2616609490674763,0.0
405,405,-0.9533496054711212,-1.0,1,275.0,843.0,1.0,222.0,1,0.03792895410408992,0.0
406,406,0.48170572338875295,0.5,0,357.0,732.0,0.0,311.0,1,0.48813363988322245,0.0
407,407,0.3081113373809894,0.3,0,446.0,521.0,0.0,303.0,1,0.7871794128922001,0.0
408,408,-0.2953387633044906,-0.3,1,348.0,735.0,1.0,247.0,1,0.4983554398745108,0.0
409,409,-0.2688794649445274,-0.3,1,470.0,737.0,1.0,263.0,1,0.5183891686984504,0.0
410,410,-0.7297017088285385,-0.7,1,478.0,735.0,1.0,117.0,1,0.9686170324386038,0.0
411,411,0.4744384415409262,0.5,0,434.0,536.0,0.0,320.0,1,0.17224940013359324,0.0
412,412,-0.4738661025422304,-0.5,1,367.0,981.0,1.0,102.0,1,0.9232834425035317,0.0
413,413,0.010554978641027057,0.0,0,472.0,662.0,0.0,786.0,1,0.2385870317407307,0.0
414,414,0.06379040979645789,0.1,0,399.0,998.0,1.0,593.0,0,0.26875163536543156,0.0
415,415,-0.2775080506041232,-0.3,1,452.0,805.0,1.0,383.0,1,0.32687060538760293,0.0
416,416,-0.8540420463981495,-0.9,1,448.0,652.0,1.0,290.0,1,0.23956982627250345,0.0
417,417,-0.6651364906847388,-0.7,1,334.0,801.0,1.0,195.0,1,0.7886176833254926,0.0
418,418,0.5199036920958067,0.5,0,254.0,807.0,0.0,239.0,1,0.6465939133902697,0.0
419,419,0.7900594667926113,0.8,0,313.0,704.0,0.0,253.0,1,0.3973260384345684,0.0
420,420,0.6115462872545405,0.6,0,285.0,952.0,0.0,533.0,1,0.2495498228622577,0.0
421,421,0.8936158680150605,0.9,0,307.0,552.0,0.0,261.0,1,0.9824571110777047,0.0
422,422,-0.416986050968686,-0.4,1,449.0,773.0,1.0,228.0,1,0.5915177026391206,0.0
423,423,0.7355641627464857,0.7,0,290.0,613.0,0.0,167.0,1,0.9350133499496361,0.0
424,424,-0.6403236027505728,-0.6,1,338.0,664.0,1.0,218.0,1,0.868455054882637,0.0
425,425,-0.038037770016959405,-0.0,1,497.0,669.0,0.0,224.0,0,0.6203079932873649,0.0
426,426,-0.4544557341074873,-0.5,1,339.0,956.0,1.0,415.0,1,0.446377948914666,0.0
427,427,0.7948913809150124,0.8,0,468.0,619.0,0.0,323.0,1,0.11257193265553622,0.0
428,428,-0.5934685199443379,-0.6,1,431.0,888.0,1.0,521.0,1,0.26294260373147427,0.0
429,429,0.9587451105223315,1.0,0,299.0,805.0,0.0,236.0,1,0.6883812481490752,0.0
430,430,0.3172558980715803,0.3,0,420.0,693.0,0.0,697.0,1,0.40466480608455346,0.0
431,431,0.3509042877338959,0.4,0,441.0,683.0,0.0,216.0,1,0.7368052534518604,0.0
432,432,-0.9667090033819323,-1.0,1,259.0,888.0,1.0,163.0,1,0.7654421921360213,0.0
433,433,-0.04271170817740044,-0.0,1,347.0,870.0,1.0,243.0,1,0.7140329056263096,0.0
434,434,-0.2787414764370204,-0.3,1,313.0,918.0,1.0,389.0,1,0.4903071351398358,0.0
435,435,-0.41793486920404965,-0.4,1,401.0,867.0,1.0,742.0,1,0.07710162669484621,0.0
436,436,0.7298386005302622,0.7,0,343.0,861.0,0.0,236.0,1,0.26101659311519265,0.0
437,437,0.5591053789474136,0.6,0,296.0,564.0,0.0,250.0,1,0.5697077104845412,0.0
438,438,0.3557506630827145,0.4,0,386.0,639.0,0.0,365.0,1,0.6306894951587896,0.0
439,439,-0.7430913105742634,-0.7,1,452.0,697.0,1.0,271.0,1,0.032946972090754034,0.0
440,440,0.7094181916361602,0.7,0,286.0,710.0,0.0,374.0,1,0.19610420413704144,0.0
441,441,-0.5621317828385277,-0.6,1,427.0,871.0,1.0,142.0,1,0.8371127314041784,0.0
442,442,-0.1313377730526386,-0.1,1,447.0,858.0,1.0,315.0,1,0.6182667661990432,0.0
443,443,-0.03182238025038697,-0.0,1,289.0,627.0,1.0,364.0,1,0.17058613312362747,0.0
444,444,0.11626523301578406,0.1,0,362.0,946.0,0.0,452.0,1,0.18971816541601483,0.0
445,445,0.12009948252819203,0.1,0,253.0,804.0,0.0,1023.0,1,0.15389067703236425,0.0
446,446,0.3465913257511206,0.3,0,338.0,767.0,0.0,1475.0,1,0.07073653896700194,0.0
447,447,-0.07072050042078137,-0.1,1,412.0,566.0,1.0,342.0,1,0.7833380157657492,0.0
448,448,0.8916673991361088,0.9,0,499.0,965.0,0.0,226.0,1,0.28258784166108486,0.0
449,449,-0.410732701220065,-0.4,1,329.0,771.0,1.0,230.0,1,0.47325117931039595,0.0
450,450,0.08914378975077564,0.1,0,422.0,986.0,0.0,592.0,1,0.1244502675874678,0.0
451,451,-0.2846413483071324,-0.3,1,399.0,888.0,1.0,243.0,1,0.9618432777981915,0.0
452,452,0.20361252854690792,0.2,0,308.0,622.0,0.0,240.0,1,0.8890645083555365,0.0
453,453,0.01953492205799212,0.0,0,458.0,604.0,1.0,468.0,0,0.164951702081913,0.0
454,454,0.8692432148964246,0.9,0,282.0,839.0,0.0,189.0,1,0.3577155284676,0.0
455,455,0.9488507975704359,0.9,0,306.0,503.0,0.0,131.0,1,0.6680020301395606,0.0
456,456,-0.8349709082281263,-0.8,1,365.0,753.0,1.0,242.0,1,0.24979204990986925,0.0
457,457,0.35398204747060547,0.4,0,409.0,897.0,0.0,284.0,1,0.8219889461064251,0.0
458,458,0.2053663965802508,0.2,0,280.0,925.0,0.0,285.0,1,0.21313084972260976,0.0
459,459,0.18797232302683597,0.2,0,480.0,904.0,1.0,266.0,0,0.6646668017118602,0.0
460,460,0.6487104566005455,0.6,0,387.0,987.0,0.0,266.0,1,0.6479858300794754,0.0
461,461,0.6086406231745338,0.6,0,281.0,749.0,0.0,220.0,1,0.7511425987045957,0.0
462,462,0.7031016810899202,0.7,0,258.0,870.0,0.0,252.0,1,0.13853228234088377,0.0
463,463,0.6095691986465739,0.6,0,397.0,730.0,0.0,673.0,1,0.1499966544170137,0.0
464,464,-0.817391705530774,-0.8,1,442.0,921.0,1.0,177.0,1,0.9022726590580833,0.0
465,465,0.8198888690744546,0.8,0,276.0,621.0,0.0,123.0,1,0.8450016361423601,0.0
466,466,-0.9188933901925465,-0.9,1,329.0,501.0,1.0,190.0,1,0.8378554682514765,0.0
467,467,0.16350687105124972,0.2,0,275.0,561.0,0.0,324.0,1,0.3623083882342212,0.0
468,468,-0.45982819044320555,-0.5,1,436.0,696.0,1.0,238.0,1,0.920997130242737,0.0
469,469,0.23736496526077633,0.2,0,332.0,602.0,0.0,366.0,1,0.2389925807804626,0.0
470,470,0.5399787567799377,0.5,0,278.0,530.0,0.0,102.0,1,0.9785790235012917,0.0
471,471,-0.6695234714119107,-0.7,1,315.0,995.0,1.0,200.0,1,0.6674904972461633,0.0
472,472,0.6785154848768875,0.7,0,494.0,714.0,0.0,152.0,1,0.4654396763117702,0.0
473,473,-0.20626943694276534,-0.2,1,337.0,945.0,1.0,208.0,1,0.7740254786133253,0.0
474,474,0.28999398664709286,0.3,0,329.0,878.0,0.0,413.0,1,0.3937738527570944,0.0
475,475,0.4505220877352807,0.5,0,301.0,810.0,0.0,369.0,1,0.07666076195452443,0.0
476,476,0.9318227428666093,0.9,0,388.0,599.0,0.0,273.0,1,0.18179642321220868,0.0
477,477,-0.11931577281560912,-0.1,1,451.0,583.0,1.0,446.0,1,0.8789232226447172,0.0
478,478,0.7565695602901203,0.8,0,310.0,907.0,0.0,213.0,1,0.8537979196801634,0.0
479,479,-0.7074790202928622,-0.7,1,402.0,894.0,1.0,154.0,1,0.9619010080450883,0.0
480,480,0.3756551706281914,0.4,0,374.0,964.0,0.0,232.0,1,0.8339227331242017,0.0
481,481,-0.6130296845198226,-0.6,1,492.0,594.0,1.0,354.0,1,0.05446674735869683,0.0
482,482,0.02185347802519888,0.0,0,312.0,739.0,1.0,769.0,0,0.058722128284901975,0.0
483,483,0.9079656543432659,0.9,0,409.0,902.0,0.0,269.0,1,0.21297413593330772,0.0
484,484,0.4008321079032422,0.4,0,422.0,610.0,0.0,348.0,1,0.858672545243053,0.0
485,485,0.7431108339344439,0.7,0,452.0,646.0,0.0,282.0,1,0.6724663440750223,0.0
486,486,0.40117141990384475,0.4,0,402.0,765.0,0.0,463.0,1,0.16813599172825822,0.0
487,487,-0.6938334033228,-0.7,1,323.0,691.0,1.0,296.0,1,0.37134669523976294,0.0
488,488,-0.08171442872350121,-0.1,1,481.0,632.0,0.0,377.0,0,0.8404099819753797,0.0
489,489,0.35301039447428995,0.4,0,372.0,633.0,0.0,415.0,1,0.38525998481131885,0.0
490,490,0.510957027461374,0.5,0,326.0,956.0,0.0,418.0,1,0.4323048907468797,0.0
491,491,0.558120011075554,0.6,0,287.0,916.0,0.0,287.0,1,0.1280710735158459,0.0
492,492,-0.16038498447176597,-0.2,1,475.0,721.0,1.0,294.0,1,0.7771946575548719,0.0
493,493,0.5466343977268513,0.5,0,298.0,650.0,0.0,252.0,1,0.8032727771598686,0.0
494,494,-0.7321769111851775,-0.7,1,492.0,501.0,1.0,157.0,1,0.7937335952522997,0.0
495,495,-0.606573337255359,-0.6,1,483.0,760.0,1.0,347.0,1,0.6115792666108761,0.0
496,496,0.5013761398404553,0.5,0,361.0,574.0,0.0,435.0,1,0.2800610078713671,0.0
497,497,0.04756920767010575,0.0,0,479.0,525.0,0.0,206.0,1,0.40279476905245193,0.0
498,498,0.32975114213647116,0.3,0,296.0,674.0,0.0,640.0,1,0.04872741875298292,0.0
499,499,-0.5768886936006954,-0.6,1,418.0,997.0,1.0,255.0,1,0.6280057785835651,0.0
500,500,-0.11020702549064243,-0.1,1,271.0,794.0,1.0,275.0,1,0.6460855729561206,0.0
501,501,0.5738528595039845,0.6,0,421.0,957.0,0.0,222.0,1,0.7431299228829764,0.0
502,502,-0.6550423273933694,-0.7,1,436.0,994.0,1.0,270.0,1,0.3485085595459466,0.0
503,503,0.20424339339146003,0.2,0,489.0,625.0,1.0,1766.0,0,0.17352057650491726,0.0
504,504,0.4187379860027929,0.4,0,342.0,904.0,0.0,284.0,1,0.387643569961852,0.0
505,505,-0.4870135667720812,-0.5,1,478.0,825.0,1.0,197.0,1,0.8748626936488804,0.0
506,506,0.6893170066568111,0.7,0,325.0,810.0,0.0,265.0,1,0.21509832879127333,0.0
507,507,0.9286859495035795,0.9,0,484.0,623.0,0.0,313.0,1,0.018983522161614252,0.0
508,508,0.10259174860947806,0.1,0,320.0,886.0,1.0,644.0,0,0.7682252715627585,0.0
509,509,-0.6008700299868732,-0.6,1,462.0,604.0,1.0,244.0,1,0.38845911267883304,0.0
510,510,0.9449375250366552,0.9,0,494.0,824.0,0.0,262.0,1,0.003959141179501802,0.0
511,511,0.8356717415384967,0.8,0,250.0,954.0,0.0,176.0,1,0.9249150467643021,0.0
512,512,0.8033453381409243,0.8,0,421.0,524.0,0.0,185.0,1,0.9522628583946569,0.0
513,513,-0.4281538716095832,-0.4,1,485.0,839.0,1.0,186.0,1,0.7296004077506046,0.0
514,514,0.7372719362838365,0.7,0,485.0,747.0,0.0,268.0,1,0.24853263708158146,0.0
515,515,-0.23155646724597623,-0.2,1,490.0,994.0,1.0,546.0,1,0.06787152393333962,0.0
516,516,0.5021687636217143,0.5,0,420.0,901.0,0.0,589.0,1,0.017002396234686468,0.0
517,517,-0.8755882077690245,-0.9,1,479.0,530.0,1.0,201.0,1,0.42567512778691674,0.0
518,518,0.35838360424292603,0.4,0,492.0,629.0,0.0,369.0,1,0.8659452725359407,0.0
519,519,0.8334417521092596,0.8,0,430.0,569.0,0.0,271.0,1,0.35229646731770603,0.0
520,520,0.4747219224086159,0.5,0,496.0,989.0,0.0,125.0,1,0.8164081969978287,0.0
521,521,-0.6446056519832701,-0.6,1,324.0,870.0,1.0,226.0,1,0.9517150760669134,0.0
522,522,0.9294279665160228,0.9,0,369.0,989.0,0.0,242.0,1,0.6527008476114191,0.0
523,523,-0.47797722237718077,-0.5,1,281.0,769.0,1.0,390.0,1,0.15907918736198523,0.0
524,524,0.26627807229916445,0.3,0,456.0,595.0,0.0,1189.0,1,0.11182172694309644,0.0
525,525,-0.061844598246241445,-0.1,1,275.0,578.0,1.0,1097.0,1,0.08894760885857844,0.0
526,526,0.1463237622045761,0.1,0,347.0,899.0,0.0,734.0,1,0.485518180458,0.0
527,527,-0.015264005573070172,-0.0,1,473.0,926.0,1.0,871.0,1,0.25656858897021584,0.0
528,528,-0.997488121394112,-1.0,1,275.0,686.0,1.0,139.0,1,0.34002126886097683,0.0
529,529,0.28201921259295193,0.3,0,311.0,667.0,0.0,282.0,1,0.7530263857053885,0.0
530,530,0.48392489350740675,0.5,0,420.0,636.0,0.0,314.0,1,0.3092768280381287,0.0
531,531,-0.6249135802890184,-0.6,1,338.0,742.0,1.0,180.0,1,0.5481943378780987,0.0
532,532,-0.2245524301860793,-0.2,1,437.0,693.0,1.0,360.0,1,0.5370388958648031,0.0
533,533,-0.8649282949394217,-0.9,1,274.0,614.0,1.0,172.0,1,0.7261230444858872,0.0
534,534,-0.02010096016671903,-0.0,1,330.0,837.0,1.0,343.0,1,0.8567720406282721,0.0
535,535,-0.888427119979349,-0.9,1,305.0,948.0,1.0,257.0,1,0.36161688392081104,0.0
536,536,-0.9384475924175686,-0.9,1,349.0,949.0,1.0,192.0,1,0.7972558782350225,0.0
537,537,0.6205261984481858,0.6,0,433.0,519.0,0.0,158.0,1,0.8720321551563152,0.0
538,538,-0.530760228234783,-0.5,1,438.0,978.0,1.0,154.0,1,0.9148796821416605,0.0
539,539,0.4294380546530323,0.4,0,411.0,993.0,0.0,256.0,1,0.5857078474894075,0.0
540,540,-0.27665279435017576,-0.3,1,369.0,641.0,1.0,510.0,1,0.040961080079345624,0.0
541,541,-0.20373478428078307,-0.2,1,342.0,851.0,1.0,697.0,1,0.13387797132138723,0.0
542,542,-0.348125693884894,-0.3,1,446.0,864.0,1.0,630.0,1,0.22189151245926275,0.0
543,543,0.895876992676385,0.9,0,280.0,946.0,0.0,174.0,1,0.7867009429047149,0.0
544,544,0.2527306547687618,0.3,0,295.0,771.0,0.0,744.0,1,0.10011958372620966,0.0
545,545,-0.1930335017234024,-0.2,1,355.0,670.0,1.0,395.0,1,0.04606130637898154,0.0
546,546,0.3441606250465117,0.3,0,256.0,870.0,0.0,264.0,1,0.39362155712158564,0.0
547,547,-0.2192504337743899,-0.2,1,496.0,661.0,1.0,193.0,1,0.5336410013194561,0.0
548,548,-0.9661161072631752,-1.0,1,372.0,947.0,1.0,431.0,1,0.10211494316753511,0.0
549,549,0.5317563682815918,0.5,0,343.0,545.0,0.0,352.0,1,0.6083191961486751,0.0
550,550,0.11060769178228291,0.1,0,375.0,903.0,1.0,322.0,0,0.4727043519147216,0.0
551,551,0.4614664202783021,0.5,0,493.0,778.0,0.0,349.0,1,0.27842696367080977,0.0
552,552,0.5940536722100827,0.6,0,440.0,782.0,0.0,278.0,1,0.25608596624214053,0.0
553,553,-0.35041116970025343,-0.4,1,472.0,884.0,1.0,224.0,1,0.17288172911992006,0.0
554,554,0.786087200235748,0.8,0,257.0,822.0,0.0,181.0,1,0.3919204561477082,0.0
555,555,-0.05598156211245442,-0.1,1,473.0,767.0,1.0,420.0,1,0.6268420912440552,0.0
556,556,-0.025994858052282854,-0.0,1,341.0,902.0,1.0,297.0,1,0.6820062828289934,0.0
557,557,-0.4076724413223234,-0.4,1,388.0,831.0,1.0,231.0,1,0.6362853050906789,0.0
558,558,-0.10033046304296644,-0.1,1,467.0,670.0,1.0,183.0,1,0.8913115433010017,0.0
559,559,0.6747202253586906,0.7,0,440.0,757.0,0.0,303.0,1,0.39302540617884674,0.0
560,560,0.7379736997496953,0.7,0,272.0,925.0,0.0,143.0,1,0.43959735914071274,0.0
561,561,-0.16205559809155212,-0.2,1,499.0,962.0,1.0,779.0,1,0.042076499039843895,0.0
562,562,0.7624831774987166,0.8,0,351.0,689.0,0.0,260.0,1,0.12531145219396023,0.0
563,563,-0.8094135772352828,-0.8,1,483.0,688.0,1.0,139.0,1,0.49799615409133036,0.0
564,564,-0.3252081105733744,-0.3,1,272.0,860.0,1.0,468.0,1,0.29766386553101176,0.0
565,565,0.7239393758951382,0.7,0,447.0,728.0,0.0,215.0,1,0.7901431054516538,0.0
566,566,-0.08966968043740908,-0.1,1,358.0,807.0,1.0,185.0,1,0.47467405982385913,0.0
567,567,-0.1400192051308824,-0.1,1,456.0,577.0,1.0,447.0,1,0.6644105656516189,0.0
568,568,-0.9312543372664348,-0.9,1,345.0,704.0,1.0,201.0,1,0.4763909455781359,0.0
569,569,0.9860577375818134,1.0,0,254.0,639.0,0.0,257.0,1,0.40069131660646673,0.0
570,570,0.2817912985965543,0.3,0,492.0,794.0,0.0,214.0,1,0.8136608952417277,0.0
571,571,-0.30267820288176206,-0.3,1,328.0,604.0,1.0,238.0,1,0.0355753209089642,0.0
572,572,0.4733184319291617,0.5,0,281.0,631.0,0.0,188.0,1,0.7908982812681897,0.0
573,573,0.6269739553039411,0.6,0,386.0,690.0,0.0,174.0,1,0.3050729662058438,0.0
574,574,0.21518080703596776,0.2,0,414.0,908.0,0.0,458.0,1,0.7070592078028303,0.0
575,575,-0.04914746866739805,-0.0,1,274.0,926.0,0.0,340.0,0,0.9810081382582303,0.0
576,576,0.8968226353536184,0.9,0,400.0,859.0,0.0,121.0,1,0.6478687366861465,0.0
577,577,0.3614926489596615,0.4,0,279.0,599.0,0.0,332.0,1,0.4708266086527415,0.0
578,578,-0.9834894742604265,-1.0,1,417.0,622.0,1.0,121.0,1,0.8941449812738332,0.0
579,579,-0.0789764104105144,-0.1,1,407.0,829.0,0.0,214.0,0,0.5012738875501828,0.0
580,580,0.06207229039811635,0.1,0,424.0,747.0,0.0,359.0,1,0.785123429905959,0.0
581,581,-0.33307443453319374,-0.3,1,377.0,935.0,1.0,298.0,1,0.9036896604868612,0.0
582,582,-0.8811993067638926,-0.9,1,440.0,832.0,1.0,248.0,1,0.09891872558657533,0.0
583,583,-0.21312456018155235,-0.2,1,298.0,871.0,1.0,511.0,1,0.009365483454165102,0.0
584,584,-0.07019747194536308,-0.1,1,398.0,846.0,1.0,436.0,1,0.09903153072853599,0.0
585,585,0.40238215915399667,0.4,0,405.0,770.0,0.0,315.0,1,0.30986274619389786,0.0
586,586,-0.39304700273193394,-0.4,1,482.0,726.0,1.0,192.0,1,0.3478461397431811,0.0
587,587,0.5375152737555979,0.5,0,345.0,583.0,0.0,302.0,1,0.09687994676066713,0.0
588,588,-0.7782383576877974,-0.8,1,442.0,949.0,1.0,199.0,1,0.9482245558828936,0.0
589,589,-0.8348451668569163,-0.8,1,496.0,874.0,1.0,140.0,1,0.7607831485015918,0.0
590,590,0.11090840577315819,0.1,0,435.0,678.0,1.0,1177.0,0,0.19302533470207428,0.0
591,591,-0.7840004444613455,-0.8,1,295.0,743.0,1.0,142.0,1,0.9356214584278756,0.0
592,592,-0.41869509923085957,-0.4,1,423.0,845.0,1.0,372.0,1,0.15016028908857015,0.0
593,593,0.7899051963634376,0.8,0,494.0,927.0,0.0,129.0,1,0.9231688174313284,0.0
594,594,-0.6099780693865746,-0.6,1,485.0,639.0,1.0,256.0,1,0.18343399242715597,0.0
595,595,0.939875069120234,0.9,0,498.0,594.0,0.0,168.0,1,0.46933401693525856,0.0
596,596,-0.8788675237893786,-0.9,1,332.0,601.0,1.0,147.0,1,0.6484371092030079,0.0
597,597,-0.39166976045880086,-0.4,1,329.0,664.0,1.0,227.0,1,0.5671001468411315,0.0
598,598,-0.18013536091239413,-0.2,1,311.0,828.0,1.0,181.0,1,0.7951667723064038,0.0
599,599,-0.17860083146397687,-0.2,1,445.0,560.0,1.0,245.0,1,0.9280037569703949,0.0
600,600,-0.516083932560371,-0.5,1,348.0,876.0,1.0,226.0,1,0.6361340952437565,0.0
601,601,-0.49575289594153293,-0.5,1,470.0,685.0,1.0,545.0,1,0.23634342097236527,0.0
602,602,-0.48054612076373115,-0.5,1,278.0,898.0,1.0,554.0,1,0.0070163463443895235,0.0
603,603,0.03033890258474292,0.0,0,344.0,591.0,1.0,355.0,0,0.26428058209185856,0.0
604,604,-0.8142581780807301,-0.8,1,415.0,913.0,1.0,192.0,1,0.45076246136951803,0.0
605,605,0.12454756527400512,0.1,0,404.0,716.0,0.0,190.0,1,0.9921094690058094,0.0
606,606,0.6075252619375757,0.6,0,306.0,983.0,0.0,261.0,1,0.9929636734697771,0.0
607,607,-0.8830495826981892,-0.9,1,470.0,990.0,1.0,130.0,1,0.8045177425578295,0.0
608,608,-0.51046228270624,-0.5,1,366.0,787.0,1.0,397.0,1,0.5119282716412167,0.0
609,609,0.5105568338745561,0.5,0,446.0,554.0,0.0,470.0,1,0.17603667708616633,0.0
610,610,-0.5567667041428697,-0.6,1,487.0,919.0,1.0,74.0,1,0.9694725780350919,0.0
611,611,0.26855395272808824,0.3,0,431.0,679.0,0.0,180.0,1,0.6657916136537932,0.0
612,612,0.08113349965648609,0.1,0,497.0,539.0,0.0,434.0,1,0.8815122311501665,0.0
613,613,-0.8175070414421373,-0.8,1,413.0,691.0,1.0,296.0,1,0.4194373130384941,0.0
614,614,-0.6190050708878301,-0.6,1,363.0,657.0,1.0,190.0,1,0.20020405977782663,0.0
615,615,0.20708644963687095,0.2,0,457.0,899.0,0.0,434.0,1,0.8474015198357823,0.0
616,616,0.550607862608026,0.6,0,262.0,708.0,0.0,330.0,1,0.009151041231036938,0.0
617,617,-0.8131728164991299,-0.8,1,370.0,708.0,1.0,192.0,1,0.6797390857956441,0.0
618,618,-0.4215657444909515,-0.4,1,380.0,619.0,1.0,331.0,1,0.7126668017418475,0.0
619,619,0.08824669516248318,0.1,0,262.0,625.0,0.0,353.0,1,0.8758959505786812,0.0
620,620,0.8755153306501178,0.9,0,327.0,519.0,0.0,244.0,1,0.29844373753447107,0.0
621,621,0.857152027888094,0.9,0,385.0,638.0,0.0,237.0,1,0.7549111895059176,0.0
622,622,0.6167264880575936,0.6,0,436.0,996.0,0.0,298.0,1,0.35571229624862255,0.0
623,623,-0.5906962700248566,-0.6,1,317.0,676.0,1.0,337.0,1,0.25569247700266917,0.0
624,624,-0.911540247684933,-0.9,1,395.0,535.0,1.0,210.0,1,0.9111427224146209,0.0
625,625,-0.34611058205518397,-0.3,1,488.0,849.0,1.0,293.0,1,0.37702216733723437,0.0
626,626,0.3452704461241838,0.3,0,470.0,957.0,0.0,163.0,1,0.6912344626630652,0.0
627,627,-0.2364332744553146,-0.2,1,419.0,944.0,1.0,357.0,1,0.11154830805063343,0.0
628,628,0.1182000087416617,0.1,0,490.0,987.0,0.0,453.0,1,0.8432880054673965,0.0
629,629,-0.3513860313142618,-0.4,1,412.0,540.0,1.0,238.0,1,0.9197691937909726,0.0
630,630,-0.05306476149152495,-0.1,1,380.0,700.0,1.0,210.0,1,0.8350087488611635,0.0
631,631,0.192220816112199,0.2,0,271.0,920.0,0.0,389.0,1,0.8243692210849894,0.0
632,632,-0.055888864580342146,-0.1,1,485.0,902.0,1.0,523.0,1,0.09189111227153768,0.0
633,633,0.4687657290467344,0.5,0,432.0,522.0,0.0,616.0,1,0.13370911305859623,0.0
634,634,0.3923109676023495,0.4,0,292.0,891.0,0.0,187.0,1,0.8044550261144272,0.0
635,635,-0.26362973447782245,-0.3,1,322.0,988.0,1.0,360.0,1,0.9933638505072807,0.0
636,636,0.03350813318554913,0.0,0,290.0,815.0,0.0,235.0,1,0.9526520320379104,0.0
637,637,0.08647611763619101,0.1,0,265.0,592.0,0.0,433.0,1,0.8705747086315224,0.0
638,638,0.18267039211129577,0.2,0,446.0,991.0,0.0,393.0,1,0.03682277979602078,0.0
639,639,0.0895745238298058,0.1,0,433.0,934.0,1.0,593.0,0,0.07129577675085552,0.0
640,640,-0.21087714092448095,-0.2,1,344.0,561.0,1.0,435.0,1,0.4397411253331478,0.0
641,641,-0.972808085270306,-1.0,1,449.0,918.0,1.0,183.0,1,0.7240040931668087,0.0
642,642,-0.7418469346661967,-0.7,1,301.0,849.0,1.0,260.0,1,0.6988380257732664,0.0
643,643,0.6478298251210433,0.6,0,300.0,920.0,0.0,380.0,1,0.0439451528104533,0.0
644,644,0.02574000654665931,0.0,0,448.0,588.0,0.0,584.0,1,0.31957103629000105,0.0
645,645,-0.3924015011392521,-0.4,1,422.0,848.0,1.0,370.0,1,0.608754078395077,0.0
646,646,0.8342463928020905,0.8,0,404.0,869.0,0.0,147.0,1,0.5723923651207038,0.0
647,647,0.01562205157130947,0.0,0,345.0,809.0,1.0,1726.0,0,0.3032610193206814,0.0
648,648,0.5265454083418339,0.5,0,408.0,811.0,0.0,201.0,1,0.46684464843609497,0.0
649,649,-0.20746451424615553,-0.2,1,380.0,885.0,1.0,475.0,1,0.17165537474870307,0.0
650,650,-0.22491748713978987,-0.2,1,261.0,605.0,1.0,334.0,1,0.8484392423495637,0.0
651,651,-0.5886705028115145,-0.6,1,463.0,923.0,1.0,274.0,1,0.5443656310349682,0.0
652,652,0.6595565679150035,0.7,0,437.0,504.0,0.0,299.0,1,0.18037171235187144,0.0
653,653,-0.9136944573873425,-0.9,1,471.0,720.0,1.0,219.0,1,0.026005750691522223,0.0
654,654,0.2684187857589142,0.3,0,384.0,909.0,0.0,697.0,1,0.3285900307301972,0.0
655,655,-0.5524553173523774,-0.6,1,251.0,908.0,1.0,221.0,1,0.9072551512351262,0.0
656,656,-0.5559680267282943,-0.6,1,320.0,891.0,1.0,149.0,1,0.9462077179020562,0.0
657,657,0.6293201677280891,0.6,0,491.0,989.0,0.0,270.0,1,0.30813376644061097,0.0
658,658,0.1597336159902818,0.2,0,257.0,861.0,0.0,352.0,1,0.6516555968044582,0.0
659,659,-0.8327309717879166,-0.8,1,455.0,617.0,1.0,238.0,1,0.3025045084970138,0.0
660,660,0.760269230650195,0.8,0,433.0,889.0,0.0,128.0,1,0.821612571542931,0.0
661,661,-0.7408398153285873,-0.7,1,405.0,939.0,1.0,436.0,1,0.27986722769280703,0.0
662,662,-0.23667059258003365,-0.2,1,257.0,636.0,1.0,437.0,1,0.04597835688920748,0.0
663,663,0.37854273085379253,0.4,0,336.0,649.0,0.0,335.0,1,0.4107013377623824,0.0
664,664,-0.575725989233308,-0.6,1,308.0,657.0,1.0,245.0,1,0.3917394887557135,0.0
665,665,-0.5486383674492978,-0.5,1,420.0,933.0,1.0,357.0,1,0.2649185947509849,0.0
666,666,0.2746493745861538,0.3,0,302.0,616.0,0.0,212.0,1,0.7450325276777018,0.0
667,667,0.8781781128406272,0.9,0,287.0,605.0,0.0,238.0,1,0.7097159271519552,0.0
668,668,0.4994027251706057,0.5,0,456.0,773.0,0.0,91.0,1,0.9464663698993373,0.0
669,669,0.7716986253007716,0.8,0,428.0,726.0,0.0,216.0,1,0.9812041591716896,0.0
670,670,0.9285554845344135,0.9,0,383.0,865.0,0.0,162.0,1,0.886303587637732,0.0
671,671,-0.19114165526565063,-0.2,1,497.0,879.0,1.0,194.0,1,0.5839762743772445,0.0
672,672,0.7910428552181119,0.8,0,316.0,984.0,0.0,100.0,1,0.8055916672108083,0.0
673,673,-0.5279453056645242,-0.5,1,371.0,537.0,1.0,302.0,1,0.9209073873395657,0.0
674,674,-0.6675070342636278,-0.7,1,270.0,739.0,1.0,171.0,1,0.4567936468977827,0.0
675,675,-0.376302528405672,-0.4,1,476.0,811.0,1.0,373.0,1,0.6228375138260526,0.0
676,676,0.3575791242118922,0.4,0,372.0,520.0,0.0,388.0,1,0.23931206975596742,0.0
677,677,-0.48302380459518135,-0.5,1,403.0,691.0,1.0,176.0,1,0.7067777134234187,0.0
678,678,0.5208539679645263,0.5,0,400.0,559.0,0.0,171.0,1,0.10508278222085621,0.0
679,679,0.3077540402755523,0.3,0,317.0,531.0,0.0,292.0,1,0.6356842404192765,0.0
680,680,-0.11112946446099281,-0.1,1,410.0,618.0,1.0,372.0,1,0.6757218349732648,0.0
681,681,0.18637811694248274,0.2,0,480.0,572.0,1.0,368.0,0,0.7179744847424387,0.0
682,682,-0.9211948957719778,-0.9,1,437.0,908.0,1.0,265.0,1,0.5801459632829682,0.0
683,683,-0.15551374372561844,-0.2,1,473.0,947.0,1.0,200.0,1,0.9125031053386756,0.0
684,684,0.7175227845493484,0.7,0,345.0,807.0,0.0,328.0,1,0.00823032696505055,0.0
685,685,0.33740876155310406,0.3,0,421.0,514.0,0.0,585.0,1,0.1726825768303314,0.0
686,686,0.05187909281661662,0.1,0,268.0,923.0,0.0,519.0,1,0.1638698955327218,0.0
687,687,0.9077537487009113,0.9,0,256.0,696.0,0.0,288.0,1,0.4379929204747969,0.0
688,688,0.37059328581207773,0.4,0,301.0,793.0,0.0,366.0,1,0.7453145777451222,0.0
689,689,-0.7680575786660289,-0.8,1,447.0,559.0,1.0,324.0,1,0.5162277070012032,0.0
690,690,-0.8857618549091621,-0.9,1,271.0,672.0,1.0,237.0,1,0.809445296453899,0.0
691,691,0.5551434481780881,0.6,0,446.0,985.0,0.0,219.0,1,0.8645241634700667,0.0
692,692,0.02955507974458249,0.0,0,269.0,753.0,1.0,428.0,0,0.6687998661895342,0.0
693,693,-0.8192387236117804,-0.8,1,308.0,530.0,1.0,272.0,1,0.5927797408746379,0.0
694,694,0.648805340225183,0.6,0,396.0,757.0,0.0,357.0,1,0.15689265688107845,0.0
695,695,0.5688557441814166,0.6,0,351.0,924.0,0.0,255.0,1,0.874274213342841,0.0
696,696,-0.4695758860160322,-0.5,1,485.0,658.0,1.0,497.0,1,0.43705372223465855,0.0
697,697,-0.9065205169754964,-0.9,1,299.0,997.0,1.0,264.0,1,0.5149322102120142,0.0
698,698,0.17497626478283101,0.2,0,253.0,981.0,0.0,306.0,1,0.9187895174096337,0.0
699,699,-0.3711109410809901,-0.4,1,252.0,586.0,1.0,532.0,1,0.4026576127742819,0.0
700,700,-0.3522040723681612,-0.4,1,434.0,628.0,1.0,178.0,1,0.504809194650905,0.0
701,701,-0.8435779392437244,-0.8,1,489.0,553.0,1.0,158.0,1,0.9804911272881077,0.0
702,702,0.9837728711382157,1.0,0,482.0,661.0,0.0,527.0,1,0.06712166361839533,0.0
703,703,-0.06178193981529967,-0.1,1,463.0,580.0,0.0,307.0,0,0.8364244091270612,0.0
704,704,0.09744758700317502,0.1,0,455.0,887.0,1.0,368.0,0,0.9887204466351673,0.0
705,705,0.8195675246337399,0.8,0,405.0,701.0,0.0,244.0,1,0.6048304526503704,0.0
706,706,0.83288418809967,0.8,0,484.0,772.0,0.0,254.0,1,0.2878634489304439,0.0
707,707,0.19182583345479576,0.2,0,411.0,598.0,1.0,501.0,0,0.24648307518818302,0.0
708,708,-0.4606112728955558,-0.5,1,419.0,767.0,1.0,164.0,1,0.7668552432262354,0.0
709,709,-0.09130416256912466,-0.1,1,321.0,566.0,1.0,263.0,1,0.7405796485346414,0.0
710,710,-0.30475774361295227,-0.3,1,323.0,821.0,1.0,326.0,1,0.4609356282883105,0.0
711,711,0.12452940691334913,0.1,0,303.0,560.0,0.0,697.0,1,0.30388245822591753,0.0
712,712,-0.8631971251019623,-0.9,1,474.0,598.0,1.0,188.0,1,0.27074990539761623,0.0
713,713,-0.43485181173825915,-0.4,1,476.0,982.0,1.0,232.0,1,0.5460974226690505,0.0
714,714,-0.6168123480669212,-0.6,1,278.0,726.0,1.0,256.0,1,0.5316072404126199,0.0
715,715,0.7940666660577913,0.8,0,359.0,517.0,0.0,184.0,1,0.11836162931294436,0.0
716,716,0.3322493638394248,0.3,0,308.0,666.0,0.0,226.0,1,0.8511467707306293,0.0
717,717,0.09433151195688216,0.1,0,451.0,752.0,1.0,1057.0,0,0.2630831066517224,0.0
718,718,0.7366104698531521,0.7,0,468.0,881.0,0.0,351.0,1,0.05770715267640736,0.0
719,719,-0.43792482212864203,-0.4,1,328.0,671.0,1.0,261.0,1,0.11703423121944578,0.0
720,720,0.8862828769394506,0.9,0,489.0,751.0,0.0,270.0,1,0.42185129138914734,0.0
721,721,-0.680589590612138,-0.7,1,420.0,759.0,1.0,171.0,1,0.46043275706686704,0.0
722,722,-0.9644890796114689,-1.0,1,479.0,852.0,1.0,149.0,1,0.900011210416992,0.0
723,723,-0.8762811041194016,-0.9,1,297.0,721.0,1.0,172.0,1,0.27318533546339685,0.0
724,724,-0.3199938178900643,-0.3,1,490.0,501.0,1.0,339.0,1,0.43291138766525694,0.0
725,725,-0.07783196544645854,-0.1,1,355.0,653.0,1.0,552.0,1,0.2334491174178932,0.0
726,726,-0.9963289769006709,-1.0,1,436.0,662.0,1.0,192.0,1,0.0515383918679726,0.0
727,727,0.09104845093655811,0.1,0,424.0,941.0,0.0,775.0,1,0.25995388541961606,0.0
728,728,-0.961151003549723,-1.0,1,365.0,942.0,1.0,193.0,1,0.5254697249985819,0.0
729,729,0.5606263886381939,0.6,0,326.0,777.0,0.0,237.0,1,0.6565685251185776,0.0
730,730,-0.0996824775308125,-0.1,1,368.0,904.0,1.0,288.0,1,0.4921566531337268,0.0
731,731,-0.1691438809962298,-0.2,1,375.0,584.0,0.0,331.0,0,0.18214851030231027,0.0
732,732,0.2861105870924108,0.3,0,257.0,503.0,0.0,150.0,1,0.950124536631264,0.0
733,733,0.6099271979548966,0.6,0,332.0,581.0,0.0,317.0,1,0.7529476065371277,0.0
734,734,-0.43199008198008415,-0.4,1,450.0,960.0,1.0,420.0,1,0.19047406820545565,0.0
735,735,0.3546360897299268,0.4,0,352.0,966.0,0.0,322.0,1,0.26435464755651195,0.0
736,736,0.7256965873218113,0.7,0,356.0,701.0,0.0,83.0,1,0.9707842459422188,0.0
737,737,-0.9055893048236829,-0.9,1,292.0,703.0,1.0,175.0,1,0.3277116419144359,0.0
738,738,0.7103640649138445,0.7,0,345.0,629.0,0.0,306.0,1,0.0012915205073219527,0.0
739,739,-0.942699139624029,-0.9,1,345.0,807.0,1.0,178.0,1,0.89896662434392,0.0
740,740,0.307616564346501,0.3,0,406.0,709.0,0.0,1785.0,1,0.04086361104264169,0.0
741,741,0.04798922068878264,0.0,0,260.0,605.0,1.0,495.0,0,0.537230473768688,0.0
742,742,0.554644574204842,0.6,0,414.0,818.0,0.0,348.0,1,0.46361042178398004,0.0
743,743,0.9537016179182021,1.0,0,472.0,658.0,0.0,220.0,1,0.8922842144768217,0.0
744,744,0.7750099889371269,0.8,0,279.0,541.0,0.0,240.0,1,0.6046724482615282,0.0
745,745,-0.9240485476986169,-0.9,1,485.0,807.0,1.0,288.0,1,0.6240230014802545,0.0
746,746,-0.13849747545585966,-0.1,1,356.0,575.0,1.0,549.0,1,0.26263526901164147,0.0
747,747,0.8557113469084319,0.9,0,396.0,922.0,0.0,352.0,1,0.0847311048521796,0.0
748,748,-0.2568255957526395,-0.3,1,432.0,522.0,1.0,626.0,1,0.0643059027350259,0.0
749,749,0.25609764551113745,0.3,0,292.0,733.0,0.0,195.0,1,0.9884449946755965,0.0
750,750,-0.15203496897780822,-0.2,1,443.0,553.0,1.0,244.0,1,0.5033798594895444,0.0
751,751,-0.8640341744784557,-0.9,1,356.0,765.0,1.0,119.0,1,0.8997552731746934,0.0
752,752,-0.830174063156345,-0.8,1,483.0,672.0,1.0,235.0,1,0.8021821305511937,0.0
753,753,0.2143401769928044,0.2,0,466.0,696.0,0.0,318.0,1,0.9023767411174866,0.0
754,754,0.9457463507129953,0.9,0,418.0,505.0,0.0,247.0,1,0.06648722271258367,0.0
755,755,-0.6204053987084757,-0.6,1,293.0,829.0,1.0,278.0,1,0.6972339924794309,0.0
756,756,-0.13290860562916418,-0.1,1,488.0,754.0,1.0,298.0,1,0.5884259295087428,0.0
757,757,-0.9754253792506908,-1.0,1,412.0,929.0,1.0,199.0,1,0.49341457154617063,0.0
758,758,-0.07490676095759241,-0.1,1,449.0,526.0,0.0,385.0,0,0.7089121829651142,0.0
759,759,-0.7501200550571856,-0.8,1,279.0,916.0,1.0,265.0,1,0.7832277206778812,0.0
760,760,0.49738876056578984,0.5,0,373.0,687.0,0.0,110.0,1,0.6941283749242346,0.0
761,761,-0.46403293252862254,-0.5,1,314.0,631.0,1.0,125.0,1,0.9892352786955132,0.0
762,762,-0.095407663579258,-0.1,1,433.0,761.0,1.0,696.0,1,0.3068339419221843,0.0
763,763,0.6506322787571244,0.7,0,294.0,657.0,0.0,289.0,1,0.37013450367909373,0.0
764,764,0.45439094764781984,0.5,0,303.0,734.0,0.0,163.0,1,0.7802451633997154,0.0
765,765,-0.09027131404111577,-0.1,1,435.0,607.0,1.0,398.0,1,0.9609381988329538,0.0
766,766,-0.9991926529852981,-1.0,1,282.0,630.0,1.0,318.0,1,0.3804964435867134,0.0
767,767,-0.95262819885231,-1.0,1,267.0,630.0,1.0,173.0,1,0.8600943166668541,0.0
768,768,0.7532176120040577,0.8,0,295.0,852.0,0.0,333.0,1,0.3435484238807903,0.0
769,769,-0.8242632071333107,-0.8,1,351.0,814.0,1.0,325.0,1,0.5344497189953119,0.0
770,770,-0.012364532984732168,-0.0,1,283.0,673.0,1.0,524.0,1,0.4676118634436307,0.0
771,771,-0.7649939080105628,-0.8,1,469.0,854.0,1.0,317.0,1,0.7633215896260085,0.0
772,772,0.5909550894915461,0.6,0,413.0,636.0,0.0,231.0,1,0.495068702599995,0.0
773,773,0.6220511615728705,0.6,0,290.0,912.0,0.0,158.0,1,0.4964240702741298,0.0
774,774,0.36933842887041024,0.4,0,289.0,665.0,0.0,156.0,1,0.382195195733817,0.0
775,775,-0.15054728501215742,-0.2,1,334.0,739.0,1.0,337.0,1,0.8867211076805259,0.0
776,776,0.7462979135295276,0.7,0,488.0,819.0,0.0,233.0,1,0.8016405860549396,0.0
777,777,0.46306609929564724,0.5,0,296.0,798.0,0.0,386.0,1,0.38986586433299586,0.0
778,778,-0.8797373246159752,-0.9,1,453.0,898.0,1.0,229.0,1,0.6890272675817504,0.0
779,779,0.13456151493077084,0.1,0,389.0,777.0,0.0,314.0,1,0.7297463170806826,0.0
780,780,-0.40384100518145494,-0.4,1,414.0,596.0,1.0,180.0,1,0.4150141266967877,0.0
781,781,-0.799124028288617,-0.8,1,388.0,785.0,1.0,137.0,1,0.7665882207916097,0.0
782,782,-0.9683511070750508,-1.0,1,480.0,581.0,1.0,319.0,1,0.8018483909909564,0.0
783,783,-0.32571067692818234,-0.3,1,365.0,950.0,1.0,305.0,1,0.17475134932682967,0.0
784,784,-0.4182695578728206,-0.4,1,470.0,507.0,1.0,243.0,1,0.40297315842368453,0.0
785,785,-0.3227332242441101,-0.3,1,463.0,904.0,1.0,263.0,1,0.3194678243319883,0.0
786,786,-0.4728443037151835,-0.5,1,347.0,590.0,1.0,253.0,1,0.2466713972323964,0.0
787,787,0.3823744593991458,0.4,0,431.0,935.0,0.0,1404.0,1,0.06408996985076676,0.0
788,788,-0.5506274600478598,-0.6,1,390.0,558.0,1.0,142.0,1,0.7377598844881449,0.0
789,789,-0.42878023003864496,-0.4,1,444.0,510.0,1.0,106.0,1,0.9547581674283355,0.0
790,790,-0.8065082011199693,-0.8,1,430.0,966.0,1.0,404.0,1,0.6745380300598739,0.0
791,791,0.8658104516124971,0.9,0,415.0,524.0,0.0,111.0,1,0.7938691099625679,0.0
792,792,0.17356504315407562,0.2,0,476.0,501.0,0.0,333.0,1,0.7806856788003657,0.0
793,793,0.6827390351370908,0.7,0,344.0,999.0,0.0,287.0,1,0.6152278079328235,0.0
794,794,0.5781489913564601,0.6,0,365.0,625.0,0.0,340.0,1,0.7255417083581667,0.0
795,795,-0.37997352236137005,-0.4,1,489.0,819.0,1.0,312.0,1,0.6171704417625449,0.0
796,796,-0.8593219782337245,-0.9,1,326.0,546.0,1.0,238.0,1,0.5909756683750158,0.0
797,797,-0.37747081296311724,-0.4,1,385.0,653.0,1.0,232.0,1,0.8966335698197627,0.0
798,798,-0.46577378252465373,-0.5,1,334.0,865.0,1.0,281.0,1,0.922415496720053,0.0
799,799,0.19123789516373702,0.2,0,254.0,925.0,0.0,571.0,1,0.34890335251828475,0.0
800,800,0.6679952624003969,0.7,0,410.0,961.0,0.0,289.0,1,0.31651072582667894,0.0
801,801,0.526297678481761,0.5,0,263.0,781.0,0.0,246.0,1,0.6827284890355313,0.0
802,802,0.26024620898437756,0.3,0,441.0,649.0,0.0,250.0,1,0.3376320729184896,0.0
803,803,0.2650435686546029,0.3,0,271.0,690.0,0.0,429.0,1,0.32915815014041905,0.0
804,804,-0.5712690581606679,-0.6,1,341.0,814.0,1.0,265.0,1,0.09098368245133603,0.0
805,805,-0.7125100130154303,-0.7,1,349.0,821.0,1.0,240.0,1,0.05795581680155526,0.0
806,806,0.3249180221383019,0.3,0,435.0,824.0,1.0,151.0,0,0.6690693397160513,0.0
807,807,-0.6169559625929497,-0.6,1,276.0,743.0,1.0,101.0,1,0.9507953281485275,0.0
808,808,0.7029291511145201,0.7,0,427.0,891.0,0.0,212.0,1,0.9088013366366274,0.0
809,809,-0.1601866435729744,-0.2,1,471.0,513.0,1.0,276.0,1,0.8995722959069599,0.0
810,810,-0.462183684665316,-0.5,1,344.0,711.0,1.0,265.0,1,0.8547643335306144,0.0
811,811,0.23963827106854985,0.2,0,441.0,797.0,0.0,372.0,1,0.6431863227889066,0.0
812,812,-0.02983251267567133,-0.0,1,289.0,611.0,1.0,240.0,1,0.2763475568617271,0.0
813,813,0.3648648842071536,0.4,0,451.0,861.0,0.0,368.0,1,0.40720441883349756,0.0
814,814,-0.4590500334892227,-0.5,1,394.0,646.0,1.0,230.0,1,0.7315613767037511,0.0
815,815,0.9192990437520279,0.9,0,332.0,745.0,0.0,223.0,1,0.4360759616929498,0.0
816,816,0.5234369404717456,0.5,0,287.0,804.0,0.0,239.0,1,0.8499148267109007,0.0
817,817,-0.4096917731403946,-0.4,1,459.0,709.0,1.0,252.0,1,0.9339590977761826,0.0
818,818,0.1403052860610441,0.1,0,467.0,907.0,0.0,316.0,1,0.49536577242081714,0.0
819,819,0.4389273968778906,0.4,0,310.0,888.0,0.0,282.0,1,0.7214073072502916,0.0
820,820,-0.9156356062697155,-0.9,1,350.0,797.0,1.0,123.0,1,0.7502167787156505,0.0
821,821,0.699756104414951,0.7,0,256.0,535.0,0.0,309.0,1,0.2654343065868452,0.0
822,822,-0.6882856094701533,-0.7,1,458.0,743.0,1.0,309.0,1,0.7201708737418949,0.0
823,823,0.3017301498976195,0.3,0,351.0,707.0,0.0,542.0,1,0.07242688534802344,0.0
824,824,0.7336911344250758,0.7,0,261.0,919.0,0.0,250.0,1,0.0003238868177921628,0.0
825,825,-0.38611634768602343,-0.4,1,297.0,605.0,1.0,158.0,1,0.8091460696306917,0.0
826,826,0.6095606929794333,0.6,0,377.0,588.0,0.0,205.0,1,0.1816531959583766,0.0
827,827,0.4146765291529715,0.4,0,287.0,962.0,0.0,361.0,1,0.03657102328874562,0.0
828,828,-0.18066810722357007,-0.2,1,463.0,664.0,0.0,443.0,0,0.7385687720412834,0.0
829,829,-0.8618325587225522,-0.9,1,392.0,666.0,1.0,162.0,1,0.7263277443915844,0.0
830,830,-0.4706729753398047,-0.5,1,404.0,852.0,1.0,164.0,1,0.7021281838067942,0.0
831,831,0.22208287974157392,0.2,0,340.0,754.0,0.0,496.0,1,0.4972355728668302,0.0
832,832,-0.8537408737334722,-0.9,1,446.0,876.0,1.0,398.0,1,0.11566950620604055,0.0
833,833,-0.3193683331449666,-0.3,1,450.0,706.0,1.0,284.0,1,0.5010412165000389,0.0
834,834,-0.31176531278958874,-0.3,1,364.0,549.0,1.0,467.0,1,0.6101296966446013,0.0
835,835,0.1549501473608843,0.2,0,409.0,809.0,0.0,282.0,1,0.7268325129477751,0.0
836,836,-0.10170205292949097,-0.1,1,386.0,582.0,1.0,232.0,1,0.8517409052988418,0.0
837,837,0.04046888063021559,0.0,0,479.0,580.0,1.0,1051.0,0,0.04383520204269431,0.0
838,838,-0.9605670944575415,-1.0,1,419.0,547.0,1.0,134.0,1,0.7779107243442878,0.0
839,839,0.09746848105491823,0.1,0,318.0,604.0,0.0,1868.0,1,0.032542122862689205,0.0
840,840,-0.22606678609567865,-0.2,1,416.0,851.0,1.0,433.0,1,0.4471467657220406,0.0
841,841,0.40547098004913806,0.4,0,360.0,776.0,0.0,204.0,1,0.7310681368748222,0.0
842,842,-0.7311782492228189,-0.7,1,473.0,642.0,1.0,105.0,1,0.7765425370918106,0.0
843,843,-0.48808596716547137,-0.5,1,395.0,549.0,1.0,496.0,1,0.3540814572713785,0.0
844,844,0.08051419526176495,0.1,0,267.0,991.0,1.0,1062.0,0,0.41951272436774434,0.0
845,845,0.23625220301000738,0.2,0,255.0,612.0,0.0,403.0,1,0.9831268961572841,0.0
846,846,0.09164562971961754,0.1,0,463.0,656.0,0.0,281.0,1,0.18893395333106133,0.0
847,847,-0.04067651009061679,-0.0,1,281.0,575.0,1.0,384.0,1,0.8353448396595965,0.0
848,848,-0.6612982415203847,-0.7,1,253.0,922.0,1.0,305.0,1,0.41756490715681704,0.0
849,849,0.34947349811612205,0.3,0,417.0,536.0,0.0,717.0,1,0.12908408543506544,0.0
850,850,-0.19185379899344968,-0.2,1,385.0,551.0,1.0,234.0,1,0.9048604427395526,0.0
851,851,0.26490099608655915,0.3,0,333.0,640.0,0.0,487.0,1,0.1023259185593367,0.0
852,852,0.8725233361624574,0.9,0,251.0,675.0,0.0,164.0,1,0.7857107341909383,0.0
853,853,0.31904640447209376,0.3,0,381.0,806.0,0.0,213.0,1,0.6219693580568152,0.0
854,854,-0.26537926467878314,-0.3,1,477.0,663.0,1.0,400.0,1,0.1951029222762687,0.0
855,855,0.0012811956126146384,0.0,0,397.0,510.0,0.0,913.0,1,0.3126922518824258,0.0
856,856,0.9740092635152588,1.0,0,311.0,814.0,0.0,285.0,1,0.11989284902967334,0.0
857,857,-0.8982454216379792,-0.9,1,458.0,625.0,1.0,307.0,1,0.11120243545703068,0.0
858,858,-0.830732709643035,-0.8,1,295.0,973.0,1.0,212.0,1,0.2174651822303787,0.0
859,859,-0.005001218415967124,-0.0,1,294.0,785.0,1.0,341.0,1,0.8146495192442482,0.0
860,860,-0.09611669976378656,-0.1,1,448.0,546.0,1.0,576.0,1,0.06351180824730729,0.0
861,861,-0.5208352647121193,-0.5,1,338.0,884.0,1.0,438.0,1,0.1406924517618624,0.0
862,862,0.40134946045805386,0.4,0,361.0,797.0,0.0,252.0,1,0.3554950292956581,0.0
863,863,-0.2650624859384869,-0.3,1,330.0,814.0,1.0,436.0,1,0.20417466202573709,0.0
864,864,0.5271040524138089,0.5,0,268.0,858.0,0.0,464.0,1,0.6709267053912432,0.0
865,865,-0.1476311233001537,-0.1,1,250.0,594.0,1.0,526.0,1,0.054591726388384276,0.0
866,866,-0.680140228757125,-0.7,1,367.0,782.0,1.0,181.0,1,0.5382400055219297,0.0
867,867,0.35845173421786014,0.4,0,425.0,584.0,1.0,161.0,0,0.9840269315448706,0.0
868,868,-0.6906249101480799,-0.7,1,430.0,700.0,1.0,290.0,1,0.4359639835590611,0.0
869,869,-0.9885732035935593,-1.0,1,346.0,710.0,1.0,174.0,1,0.5108738094733812,0.0
870,870,-0.7211668639830071,-0.7,1,410.0,994.0,1.0,176.0,1,0.7330715495597051,0.0
871,871,-0.5745749908244515,-0.6,1,311.0,999.0,1.0,310.0,1,0.5234516281615688,0.0
872,872,-0.7798506154980731,-0.8,1,277.0,599.0,1.0,314.0,1,0.22057981555397654,0.0
873,873,-0.5306137679815384,-0.5,1,482.0,963.0,1.0,295.0,1,0.6795504249882035,0.0
874,874,-0.9577027430195413,-1.0,1,258.0,563.0,1.0,169.0,1,0.4736081468506863,0.0
875,875,-0.6732321193829383,-0.7,1,487.0,888.0,1.0,255.0,1,0.2685916982230001,0.0
876,876,0.3288312335126571,0.3,0,269.0,610.0,0.0,291.0,1,0.22224407315649763,0.0
877,877,0.9272777928577935,0.9,0,361.0,778.0,0.0,171.0,1,0.7439479219954701,0.0
878,878,0.14112819073914018,0.1,0,278.0,846.0,0.0,1026.0,1,0.44408788648936437,0.0
879,879,-0.3093446182927173,-0.3,1,363.0,953.0,1.0,334.0,1,0.7453311636977618,0.0
880,880,0.28920981181220085,0.3,0,267.0,980.0,0.0,193.0,1,0.6668560970242432,0.0
881,881,-0.6211146146580366,-0.6,1,457.0,989.0,1.0,324.0,1,0.024414139513158517,0.0
882,882,0.11393780157588473,0.1,0,336.0,995.0,0.0,949.0,1,0.0649038853395425,0.0
883,883,-0.5685617982950755,-0.6,1,477.0,884.0,1.0,549.0,1,0.09432855501667281,0.0
884,884,0.7829636231081036,0.8,0,296.0,835.0,0.0,159.0,1,0.5893646609895937,0.0
885,885,-0.4267054416324212,-0.4,1,400.0,682.0,1.0,498.0,1,0.6025865313430157,0.0
886,886,-0.4031334186648241,-0.4,1,282.0,760.0,1.0,458.0,1,0.4800154105237239,0.0
887,887,-0.48045677989628444,-0.5,1,364.0,880.0,1.0,236.0,1,0.8388432036886998,0.0
888,888,-0.6946054832208706,-0.7,1,334.0,970.0,1.0,226.0,1,0.3092171604131051,0.0
889,889,0.4776628438673727,0.5,0,291.0,930.0,0.0,229.0,1,0.45300338723539124,0.0
890,890,-0.48016508954583603,-0.5,1,465.0,897.0,1.0,178.0,1,0.7403132912793279,0.0
891,891,0.3909079639097246,0.4,0,261.0,864.0,0.0,275.0,1,0.032261541075237266,0.0
892,892,0.3704331378868553,0.4,0,353.0,713.0,0.0,584.0,1,0.5013727010904567,0.0
893,893,-0.16816406470415912,-0.2,1,264.0,647.0,1.0,849.0,1,0.18749145629363517,0.0
894,894,-0.9950814857895895,-1.0,1,328.0,637.0,1.0,185.0,1,0.9586845352360078,0.0
895,895,0.9223420662599975,0.9,0,456.0,685.0,0.0,229.0,1,0.3660321156681803,0.0
896,896,0.7549394888374712,0.8,0,288.0,741.0,0.0,151.0,1,0.9408316958663046,0.0
897,897,-0.14568966317766652,-0.1,1,444.0,630.0,1.0,336.0,1,0.141442226619528,0.0
898,898,-0.8544940982933584,-0.9,1,416.0,898.0,1.0,196.0,1,0.22583166879669525,0.0
899,899,0.4289078348812849,0.4,0,446.0,610.0,0.0,134.0,1,0.7604009803224218,0.0
900,900,-0.7146638278341586,-0.7,1,350.0,705.0,1.0,145.0,1,0.9221477548387361,0.0
901,901,-0.7395336724149233,-0.7,1,267.0,803.0,1.0,320.0,1,0.0527580227981127,0.0
902,902,0.6059767977569075,0.6,0,361.0,814.0,0.0,165.0,1,0.9194917112286629,0.0
903,903,0.13521174857402052,0.1,0,274.0,631.0,0.0,185.0,1,0.7559319661239905,0.0
904,904,0.5666730154078365,0.6,0,318.0,717.0,0.0,155.0,1,0.8812711453151967,0.0
905,905,0.1728710604193331,0.2,0,307.0,540.0,0.0,253.0,1,0.7635499688683185,0.0
906,906,0.010572051132674565,0.0,0,270.0,555.0,1.0,1385.0,0,0.09225752124482312,0.0
907,907,-0.6284661052995266,-0.6,1,392.0,636.0,1.0,602.0,1,0.04215177519158175,0.0
908,908,0.3410083742534338,0.3,0,279.0,899.0,0.0,452.0,1,0.0521665125923545,0.0
909,909,-0.6974940509516481,-0.7,1,289.0,661.0,1.0,370.0,1,0.2926357637293958,0.0
910,910,-0.695914794625103,-0.7,1,393.0,548.0,1.0,649.0,1,0.05847000316533024,0.0
911,911,-0.5738892933359221,-0.6,1,499.0,589.0,1.0,602.0,1,0.1120219234185631,0.0
912,912,0.14760595418146982,0.1,0,256.0,780.0,0.0,174.0,1,0.9967370681206277,0.0
913,913,0.5341343328944288,0.5,0,297.0,908.0,0.0,215.0,1,0.915604622407812,0.0
914,914,-0.8243767561780575,-0.8,1,283.0,634.0,1.0,183.0,1,0.5662862674648592,0.0
915,915,0.4904088638055466,0.5,0,385.0,560.0,0.0,205.0,1,0.8459604482075881,0.0
916,916,-0.8634262741452796,-0.9,1,265.0,976.0,1.0,279.0,1,0.11279980341092744,0.0
917,917,-0.8139027861986545,-0.8,1,388.0,929.0,1.0,173.0,1,0.20534681357516404,0.0
918,918,-0.413576735638429,-0.4,1,442.0,957.0,1.0,201.0,1,0.9318625194341331,0.0
919,919,0.2383032164803871,0.2,0,262.0,518.0,0.0,330.0,1,0.3767099289006983,0.0
920,920,0.8725371532651198,0.9,0,304.0,593.0,0.0,223.0,1,0.22142411143736573,0.0
921,921,0.30689669108134865,0.3,0,277.0,652.0,0.0,1041.0,1,0.053856062410108985,0.0
922,922,0.7189361985806884,0.7,0,291.0,753.0,0.0,246.0,1,0.33799977688292493,0.0
923,923,-0.2750979340018551,-0.3,1,330.0,733.0,1.0,257.0,1,0.6498557733007367,0.0
924,924,-0.3568840157446078,-0.4,1,283.0,963.0,1.0,364.0,1,0.2954300636950745,0.0
925,925,-0.6714596884867428,-0.7,1,387.0,793.0,1.0,150.0,1,0.8840048578468089,0.0
926,926,0.9296926843338429,0.9,0,483.0,882.0,0.0,305.0,1,0.6150012186816186,0.0
927,927,0.8389996030727513,0.8,0,365.0,812.0,0.0,223.0,1,0.6348778642906853,0.0
928,928,0.08726795426706047,0.1,0,410.0,651.0,1.0,1209.0,0,0.16228891089298414,0.0
929,929,0.01578951759988212,0.0,0,379.0,955.0,1.0,546.0,0,0.4986255649239373,0.0
930,930,-0.26607253490612615,-0.3,1,424.0,909.0,1.0,497.0,1,0.16906019607985823,0.0
931,931,0.36070245690469616,0.4,0,476.0,822.0,0.0,222.0,1,0.8844126585489283,0.0
932,932,0.43386046264522915,0.4,0,298.0,703.0,0.0,329.0,1,0.051819223304195194,0.0
933,933,0.8373938909324374,0.8,0,334.0,690.0,0.0,476.0,1,0.23290937381984644,0.0
934,934,0.9943196924520068,1.0,0,480.0,506.0,0.0,174.0,1,0.5475625493799443,0.0
935,935,-0.3447671168892459,-0.3,1,358.0,582.0,1.0,310.0,1,0.48596924894585103,0.0
936,936,-0.36339430969248343,-0.4,1,273.0,706.0,1.0,281.0,1,0.03777682364110302,0.0
937,937,-0.5607415572982717,-0.6,1,485.0,985.0,1.0,350.0,1,0.13733253276513868,0.0
938,938,0.7628590532563511,0.8,0,482.0,896.0,0.0,242.0,1,0.17856468682015836,0.0
939,939,-0.8206007476480255,-0.8,1,283.0,680.0,1.0,177.0,1,0.6186501712868965,0.0
940,940,-0.1271407831310536,-0.1,1,344.0,932.0,1.0,754.0,1,0.5960847970182892,0.0
941,941,0.41024874577814496,0.4,0,450.0,936.0,0.0,304.0,1,0.40431482460812307,0.0
942,942,-0.3476887717609256,-0.3,1,285.0,639.0,1.0,566.0,1,0.36841870605431903,0.0
943,943,0.06600346131055712,0.1,0,258.0,968.0,0.0,364.0,1,0.12047186782429375,0.0
944,944,-0.6150968415803701,-0.6,1,321.0,847.0,1.0,272.0,1,0.1853552839823256,0.0
945,945,0.936880957240686,0.9,0,447.0,829.0,0.0,194.0,1,0.2511469070768034,0.0
946,946,-0.6790698776279906,-0.7,1,345.0,720.0,1.0,275.0,1,0.5112724000989551,0.0
947,947,-0.1060322093276802,-0.1,1,255.0,675.0,1.0,1020.0,1,0.14947160399968107,0.0
948,948,-0.8947290837508806,-0.9,1,455.0,854.0,1.0,491.0,1,0.12878573092017354,0.0
949,949,0.5192308833487356,0.5,0,333.0,781.0,0.0,216.0,1,0.5929279938744147,0.0
950,950,0.5827296696935726,0.6,0,481.0,981.0,0.0,168.0,1,0.7112167756931435,0.0
951,951,-0.8343820793714567,-0.8,1,455.0,857.0,1.0,218.0,1,0.34718274686394046,0.0
952,952,0.9938480306152859,1.0,0,464.0,936.0,0.0,120.0,1,0.6627012454071933,0.0
953,953,0.2606292599538147,0.3,0,461.0,800.0,0.0,209.0,1,0.46490850761973646,0.0
954,954,-0.8628934241730217,-0.9,1,287.0,583.0,1.0,260.0,1,0.2594340706658126,0.0
955,955,0.6228937907726348,0.6,0,481.0,546.0,0.0,313.0,1,0.6280300237597738,0.0
956,956,0.15997789499891035,0.2,0,396.0,780.0,0.0,394.0,1,0.1936970563895548,0.0
957,957,0.7816150581719057,0.8,0,293.0,518.0,0.0,189.0,1,0.6462002111149877,0.0
958,958,-0.1249135846264362,-0.1,1,372.0,546.0,1.0,612.0,1,0.9886654058386121,0.0
959,959,-0.7352363814645202,-0.7,1,381.0,851.0,1.0,238.0,1,0.38702812214816096,0.0
960,960,-0.6903405271402294,-0.7,1,426.0,767.0,1.0,147.0,1,0.9876769717472934,0.0
961,961,-0.8701454553338206,-0.9,1,359.0,632.0,1.0,199.0,1,0.9270584073647433,0.0
962,962,0.32972559354500053,0.3,0,260.0,715.0,0.0,195.0,1,0.4711857409384922,0.0
963,963,-0.6182654453403473,-0.6,1,464.0,505.0,1.0,271.0,1,0.2438333485649835,0.0
964,964,-0.35253530126294463,-0.4,1,264.0,757.0,1.0,409.0,1,0.2342726437705811,0.0
965,965,0.8294197175161246,0.8,0,272.0,652.0,0.0,366.0,1,0.325393536420161,0.0
966,966,-0.6820108377705019,-0.7,1,356.0,667.0,1.0,207.0,1,0.9563402192369287,0.0
967,967,0.590054729379871,0.6,0,370.0,816.0,0.0,224.0,1,0.9921932957000887,0.0
968,968,-0.2885251335830872,-0.3,1,256.0,703.0,1.0,271.0,1,0.3607036085091282,0.0
969,969,-0.7841688387232892,-0.8,1,382.0,850.0,1.0,168.0,1,0.07361864094208692,0.0
970,970,-0.8228716280501234,-0.8,1,487.0,862.0,1.0,281.0,1,0.023580774872692167,0.0
971,971,0.3039750198278055,0.3,0,456.0,575.0,0.0,439.0,1,0.7435387833681913,0.0
972,972,0.59691617484193,0.6,0,383.0,609.0,0.0,288.0,1,0.45413377935660315,0.0
973,973,-0.47294360289817416,-0.5,1,288.0,651.0,1.0,181.0,1,0.903462524547985,0.0
974,974,-0.6614480892689649,-0.7,1,356.0,934.0,1.0,200.0,1,0.966395499339086,0.0
975,975,-0.8179247767865436,-0.8,1,414.0,899.0,1.0,417.0,1,0.05637401712356804,0.0
976,976,-0.26007349797356993,-0.3,1,489.0,626.0,1.0,465.0,1,0.10318902655198847,0.0
977,977,-0.4452749171066612,-0.4,1,494.0,833.0,1.0,453.0,1,0.17145369380099273,0.0
978,978,0.24555595272083353,0.2,0,336.0,966.0,0.0,258.0,1,0.5836792368608905,0.0
979,979,0.24612425391007253,0.2,0,298.0,973.0,0.0,209.0,1,0.6321502434380045,0.0
980,980,-0.9700506900783334,-1.0,1,452.0,828.0,1.0,190.0,1,0.5696702177918231,0.0
981,981,-0.21382596616474814,-0.2,1,390.0,966.0,1.0,264.0,1,0.46358235210275045,0.0
982,982,0.12734507022278718,0.1,0,363.0,637.0,0.0,230.0,1,0.31685322103078717,0.0
983,983,0.7640020805576189,0.8,0,323.0,827.0,0.0,170.0,1,0.13706508836940345,0.0
984,984,0.9341120152077174,0.9,0,433.0,622.0,0.0,195.0,1,0.43968295025419135,0.0
985,985,-0.061161166414830825,-0.1,1,491.0,797.0,1.0,422.0,1,0.22326245100021147,0.0
986,986,-0.31738608542594204,-0.3,1,353.0,622.0,1.0,255.0,1,0.43284566642499256,0.0
987,987,0.26655952866863064,0.3,0,398.0,719.0,0.0,563.0,1,0.3212052733869084,0.0
988,988,0.45676859668598113,0.5,0,327.0,597.0,0.0,326.0,1,0.23537104837662937,0.0
989,989,-0.2050605251116635,-0.2,1,270.0,679.0,1.0,491.0,1,0.05135177293340831,0.0
990,990,0.9640662418986452,1.0,0,294.0,627.0,0.0,279.0,1,0.5088061676455575,0.0
991,991,0.15263689344727882,0.2,0,492.0,887.0,0.0,241.0,1,0.6409164969956856,0.0
992,992,-0.6208954450391109,-0.6,1,363.0,524.0,1.0,173.0,1,0.7815675047125138,0.0
993,993,0.24682421214870343,0.2,0,410.0,707.0,0.0,123.0,1,0.8825575914877545,0.0
994,994,0.8155758844777095,0.8,0,452.0,622.0,0.0,116.0,1,0.9841787006420727,0.0
995,995,0.16550694779625763,0.2,0,496.0,523.0,0.0,371.0,1,0.9053884962716598,0.0
996,996,-0.3877696618229254,-0.4,1,413.0,948.0,1.0,269.0,1,0.16718399337462952,0.0
997,997,-0.7466466681898878,-0.7,1,394.0,607.0,1.0,369.0,1,0.14084633457248052,0.0
998,998,0.8539463892693588,0.9,0,410.0,665.0,0.0,215.0,1,0.3811975718292685,0.0
999,999,0.5236502547654258,0.5,0,335.0,678.0,0.0,297.0,1,0.8400856165488301,0.0
1000,1000,-0.346053952622835,-0.3,1,454.0,722.0,1.0,374.0,1,0.10765557108488544,0.0
1001,1001,0.777425169123009,0.8,0,250.0,713.0,0.0,177.0,1,0.3788914733377814,0.0
1002,1002,0.15153187750259445,0.2,0,362.0,709.0,0.0,439.0,1,0.06175389679425802,0.0
1003,1003,-0.1979677027230684,-0.2,1,328.0,932.0,1.0,350.0,1,0.3715543699947407,0.0
1004,1004,-0.13002697712802247,-0.1,1,321.0,589.0,1.0,350.0,1,0.2842515015660483,0.0
1005,1005,-0.8067235327661333,-0.8,1,263.0,968.0,1.0,199.0,1,0.40332795799669185,0.0
1006,1006,0.07893060149942421,0.1,0,283.0,851.0,1.0,396.0,0,0.790890907926431,0.0
1007,1007,0.31118149106263693,0.3,0,260.0,990.0,0.0,260.0,1,0.880043694453869,0.0
1008,1008,0.3228610270746817,0.3,0,393.0,511.0,0.0,996.0,1,0.0960730856888179,0.0
1009,1009,0.06841859403487649,0.1,0,252.0,793.0,1.0,355.0,0,0.8107059113155872,0.0
1010,1010,0.17778064518527592,0.2,0,377.0,596.0,0.0,747.0,1,0.009352096501073937,0.0
1011,1011,0.47257702324463535,0.5,0,405.0,882.0,0.0,453.0,1,0.07368212052032996,0.0
1012,1012,0.6904836975241753,0.7,0,416.0,922.0,0.0,212.0,1,0.5294277772780149,0.0
1013,1013,-0.3163113762117924,-0.3,1,278.0,802.0,1.0,470.0,1,0.15850155972280822,0.0
1014,1014,-0.9650153872811296,-1.0,1,257.0,766.0,1.0,187.0,1,0.7588064764341944,0.0
1015,1015,0.46673956388924753,0.5,0,477.0,693.0,0.0,280.0,1,0.6107117066326975,0.0
1016,1016,0.4038430718201458,0.4,0,379.0,934.0,0.0,137.0,1,0.9047268187536489,0.0
1017,1017,-0.9117755241117411,-0.9,1,480.0,857.0,1.0,123.0,1,0.43829496997195794,0.0
1018,1018,-0.6714217688608273,-0.7,1,494.0,916.0,1.0,150.0,1,0.7106788358779842,0.0
1019,1019,-0.8206893256995862,-0.8,1,283.0,703.0,1.0,114.0,1,0.8143931478788761,0.0
1020,1020,0.446946534931417,0.4,0,262.0,751.0,0.0,247.0,1,0.5883382484709545,0.0
1021,1021,0.5174700728062125,0.5,0,470.0,505.0,0.0,265.0,1,0.18988110585630513,0.0
1022,1022,-0.4533526754955617,-0.5,1,486.0,683.0,1.0,221.0,1,0.6616471268987555,0.0
1023,1023,-0.2502252175127959,-0.3,1,346.0,963.0,1.0,371.0,1,0.2402252625070158,0.0
1024,1024,0.06952990633806633,0.1,0,262.0,950.0,0.0,368.0,1,0.6166763117646404,0.0
1025,1025,0.4825478259999403,0.5,0,353.0,619.0,0.0,238.0,1,0.6271991453260226,0.0
1026,1026,0.8204341621102595,0.8,0,345.0,952.0,0.0,163.0,1,0.7535041677452428,0.0
1027,1027,-0.9590924646972381,-1.0,1,334.0,758.0,1.0,398.0,1,0.04644996433863047,0.0
1028,1028,-0.7120961637351231,-0.7,1,404.0,547.0,1.0,129.0,1,0.9581289466533636,0.0
1029,1029,0.5408319329490743,0.5,0,358.0,604.0,0.0,198.0,1,0.25518119389898153,0.0
1030,1030,0.7770278430684141,0.8,0,258.0,954.0,0.0,258.0,1,0.2716291205640706,0.0
1031,1031,-0.8299709532683601,-0.8,1,477.0,790.0,1.0,283.0,1,0.12959163215406877,0.0
1032,1032,-0.22467952083936127,-0.2,1,491.0,896.0,1.0,783.0,1,0.08014544041510996,0.0
1033,1033,-0.9669033301810841,-1.0,1,378.0,601.0,1.0,151.0,1,0.8131210531038932,0.0
1034,1034,-0.796893601381431,-0.8,1,485.0,653.0,1.0,412.0,1,0.4447667189997657,0.0
1035,1035,0.9124020933261983,0.9,0,374.0,663.0,0.0,353.0,1,0.08101493891507083,0.0
1036,1036,-0.10070012062599609,-0.1,1,385.0,931.0,1.0,344.0,1,0.8436365567948058,0.0
1037,1037,0.5177557098279295,0.5,0,394.0,555.0,0.0,261.0,1,0.9913512898645297,0.0
1038,1038,-0.4539289799680384,-0.5,1,385.0,661.0,1.0,224.0,1,0.9362998792908251,0.0
1039,1039,0.2407163633570646,0.2,0,460.0,897.0,0.0,283.0,1,0.32381403542804,0.0
1040,1040,0.015181742704997614,0.0,0,388.0,805.0,1.0,377.0,0,0.8935649691098477,0.0
1041,1041,0.3966763147457113,0.4,0,320.0,963.0,0.0,247.0,1,0.7410010131575113,0.0
1042,1042,0.9133621914740626,0.9,0,318.0,676.0,0.0,516.0,1,0.02879681168485526,0.0
1043,1043,0.503317004902083,0.5,0,323.0,724.0,0.0,213.0,1,0.5841510507918828,0.0
1044,1044,-0.2679118717880109,-0.3,1,432.0,769.0,1.0,389.0,1,0.33561635173325033,0.0
1045,1045,0.5464230433031043,0.5,0,340.0,557.0,0.0,903.0,1,0.0911158574578892,0.0
1046,1046,-0.032467815685437884,-0.0,1,391.0,684.0,1.0,235.0,1,0.655263188670963,0.0
1047,1047,-0.10919354657768432,-0.1,1,380.0,912.0,1.0,408.0,1,0.43247307163341153,0.0
1048,1048,0.7671619713138742,0.8,0,379.0,506.0,0.0,255.0,1,0.8582198891068837,0.0
1049,1049,-0.8718942106053251,-0.9,1,463.0,837.0,1.0,300.0,1,0.05164065993471434,0.0
1050,1050,-0.4817340951199198,-0.5,1,402.0,506.0,1.0,262.0,1,0.5942670349887474,0.0
1051,1051,-0.5965592196792153,-0.6,1,462.0,778.0,1.0,200.0,1,0.9871036918282682,0.0
1052,1052,0.3098672247956653,0.3,0,402.0,620.0,0.0,1338.0,1,0.2217372368558923,0.0
1053,1053,-0.7122499931637218,-0.7,1,340.0,592.0,1.0,248.0,1,0.24040237497123595,0.0
1054,1054,0.4698064123476884,0.5,0,450.0,533.0,0.0,207.0,1,0.7499115049970807,0.0
1055,1055,-0.3938523507295322,-0.4,1,367.0,586.0,1.0,227.0,1,0.5461259163126984,0.0
1056,1056,0.1990699370692437,0.2,0,395.0,587.0,0.0,258.0,1,0.7451569368012311,0.0
1057,1057,-0.37329165513340334,-0.4,1,430.0,788.0,1.0,332.0,1,0.1999764875887895,0.0
1058,1058,-0.6639792975380321,-0.7,1,463.0,756.0,1.0,191.0,1,0.0025797503308744307,0.0
1059,1059,-0.8073952516256278,-0.8,1,491.0,563.0,1.0,196.0,1,0.9950961371791761,0.0
1060,1060,0.6677824184058199,0.7,0,330.0,767.0,0.0,263.0,1,0.024269608943727428,0.0
1061,1061,0.2101683277831119,0.2,0,402.0,701.0,0.0,237.0,1,0.6164756850579588,0.0
1062,1062,-0.1365663144493101,-0.1,1,439.0,955.0,1.0,496.0,1,0.06605712751285198,0.0
1063,1063,0.9828248001884381,1.0,0,447.0,513.0,0.0,150.0,1,0.6669242023234587,0.0
1064,1064,-0.18432775819438518,-0.2,1,392.0,704.0,1.0,594.0,1,0.18645910283004696,0.0
1065,1065,-0.9818747384746795,-1.0,1,388.0,707.0,1.0,135.0,1,0.5155364404066074,0.0
1066,1066,-0.37696944589805703,-0.4,1,452.0,565.0,1.0,813.0,1,0.01966022550069091,0.0
1067,1067,0.9608671775280424,1.0,0,339.0,538.0,0.0,123.0,1,0.6667404658881626,0.0
1068,1068,-0.13020125893399204,-0.1,1,436.0,635.0,1.0,299.0,1,0.7013599712681309,0.0
1069,1069,0.1866977990485179,0.2,0,420.0,570.0,0.0,240.0,1,0.6256966245514282,0.0
1070,1070,0.18533747739021744,0.2,0,354.0,956.0,0.0,520.0,1,0.7270934370062975,0.0
1071,1071,-0.26170223075276877,-0.3,1,421.0,982.0,1.0,217.0,1,0.9029489513689338,0.0
1072,1072,0.132431080077539,0.1,0,378.0,612.0,0.0,350.0,1,0.8673775226600695,0.0
1073,1073,-0.40827377860380576,-0.4,1,439.0,574.0,1.0,187.0,1,0.7004534650261618,0.0
1074,1074,0.40323869648306077,0.4,0,499.0,843.0,0.0,408.0,1,0.0773176114172206,0.0
1075,1075,-0.5466455229314404,-0.5,1,386.0,741.0,1.0,303.0,1,0.8424268213146977,0.0
1076,1076,0.7016403353888965,0.7,0,464.0,583.0,0.0,323.0,1,0.30658323110361874,0.0
1077,1077,0.6257790632220792,0.6,0,357.0,711.0,0.0,152.0,1,0.9144062789239348,0.0
1078,1078,-0.37206861620135645,-0.4,1,286.0,710.0,1.0,134.0,1,0.7501416568233625,0.0
1079,1079,0.9825196523707644,1.0,0,364.0,649.0,0.0,197.0,1,0.4599306265190851,0.0
1080,1080,-0.6965113046862426,-0.7,1,442.0,814.0,1.0,144.0,1,0.7942333047826481,0.0
1081,1081,0.03229277159062849,0.0,0,468.0,904.0,1.0,678.0,0,0.32258921617171266,0.0
1082,1082,0.14339931616591062,0.1,0,336.0,626.0,0.0,538.0,1,0.7805064832392468,0.0
1083,1083,0.31618732133710603,0.3,0,262.0,639.0,0.0,399.0,1,0.2264094870483545,0.0
1084,1084,0.5719881531209523,0.6,0,320.0,995.0,0.0,185.0,1,0.961937941768249,0.0
1085,1085,-0.30858035448265664,-0.3,1,375.0,750.0,1.0,445.0,1,0.30811653106569004,0.0
1086,1086,-0.206916041069654,-0.2,1,299.0,786.0,1.0,245.0,1,0.7679508566704598,0.0
1087,1087,-0.15388731868379546,-0.2,1,339.0,819.0,1.0,262.0,1,0.755772730341584,0.0
1088,1088,-0.20996882883128665,-0.2,1,361.0,658.0,0.0,251.0,0,0.4583729928189939,0.0
1089,1089,0.3194592231994502,0.3,0,350.0,970.0,0.0,490.0,1,0.5269101557361118,0.0
1090,1090,-0.2633097368626547,-0.3,1,278.0,953.0,1.0,449.0,1,0.4232768807605508,0.0
1091,1091,0.6869307554347093,0.7,0,288.0,956.0,0.0,206.0,1,0.21205157852347678,0.0
1092,1092,-0.5907504395747074,-0.6,1,382.0,915.0,1.0,203.0,1,0.42765243473928105,0.0
1093,1093,0.985369537127577,1.0,0,391.0,638.0,0.0,141.0,1,0.48498681212067385,0.0
1094,1094,-0.1860823680756356,-0.2,1,387.0,985.0,1.0,238.0,1,0.4853847161678313,0.0
1095,1095,-0.4969393441892358,-0.5,1,395.0,752.0,1.0,393.0,1,0.03269611942442918,0.0
1096,1096,0.21314788213022395,0.2,0,448.0,618.0,0.0,784.0,1,0.22192645965294477,0.0
1097,1097,0.9592919984769417,1.0,0,412.0,725.0,0.0,173.0,1,0.5709115714330341,0.0
1098,1098,-0.16690665236436342,-0.2,1,449.0,712.0,1.0,439.0,1,0.10707819719637768,0.0
1099,1099,-0.1530658394362825,-0.2,1,254.0,992.0,1.0,684.0,1,0.2061558394909243,0.0
1100,1100,-0.9828270518465712,-1.0,1,453.0,592.0,1.0,275.0,1,0.4489813558680664,0.0
1101,1101,-0.8240981113979542,-0.8,1,266.0,697.0,1.0,197.0,1,0.06122549075556594,0.0
1102,1102,-0.17208674865109308,-0.2,1,362.0,704.0,1.0,564.0,1,0.023671274533073383,0.0
1103,1103,-0.7693667607043015,-0.8,1,451.0,906.0,1.0,273.0,1,0.8518701782788538,0.0
1104,1104,0.016831879310951203,0.0,0,383.0,700.0,1.0,287.0,0,0.079533209670956,0.0
1105,1105,-0.2305950488023636,-0.2,1,440.0,697.0,1.0,513.0,1,0.13737547220423996,0.0
1106,1106,0.03720967241853379,0.0,0,441.0,799.0,1.0,310.0,0,0.4824435364216413,0.0
1107,1107,0.20184749627147114,0.2,0,454.0,942.0,0.0,654.0,1,0.4874683646279345,0.0
1108,1108,0.2946521526160615,0.3,0,261.0,731.0,0.0,278.0,1,0.5735284274424342,0.0
1109,1109,0.9844884259985824,1.0,0,465.0,641.0,0.0,204.0,1,0.9661712570103067,0.0
1110,1110,-0.6231558865578168,-0.6,1,430.0,741.0,1.0,109.0,1,0.6288721789894028,0.0
1111,1111,0.8670131244828809,0.9,0,427.0,532.0,0.0,101.0,1,0.8800046606355425,0.0
1112,1112,-0.33046649901729497,-0.3,1,288.0,597.0,1.0,315.0,1,0.9703729424830551,0.0
1113,1113,0.7238351249970014,0.7,0,381.0,771.0,0.0,338.0,1,0.3249883237757544,0.0
1114,1114,0.38871058205999454,0.4,0,362.0,635.0,0.0,203.0,1,0.33807945810041495,0.0
1115,1115,-0.42561399737085015,-0.4,1,268.0,965.0,1.0,147.0,1,0.8882829057768185,0.0
1116,1116,0.569454623682154,0.6,0,387.0,868.0,0.0,135.0,1,0.8062853663797426,0.0
1117,1117,0.9951374150037868,1.0,0,379.0,684.0,0.0,297.0,1,0.30983020236392134,0.0
1118,1118,0.06084810821592934,0.1,0,400.0,554.0,1.0,196.0,0,0.7015212167360776,0.0
1119,1119,0.27395581707616,0.3,0,260.0,963.0,0.0,787.0,1,0.2994683515896066,0.0
1120,1120,-0.8427484219086561,-0.8,1,344.0,669.0,1.0,177.0,1,0.8511606270420128,0.0
1121,1121,0.18915967654205823,0.2,0,457.0,705.0,1.0,718.0,0,0.5389388073636132,0.0
1122,1122,-0.6901810523946412,-0.7,1,488.0,783.0,1.0,429.0,1,0.3088520957069777,0.0
1123,1123,0.7894362060825422,0.8,0,467.0,801.0,0.0,222.0,1,0.308785120225893,0.0
1124,1124,0.9153124277527915,0.9,0,430.0,590.0,0.0,240.0,1,0.2168339474670372,0.0
1125,1125,0.32913131689169406,0.3,0,455.0,851.0,0.0,284.0,1,0.6430205674802413,0.0
1126,1126,-0.12158282602771298,-0.1,1,300.0,644.0,1.0,396.0,1,0.8478826135654639,0.0
1127,1127,-0.28474205693043664,-0.3,1,388.0,889.0,1.0,223.0,1,0.08507725501111918,0.0
1128,1128,-0.8645490541154839,-0.9,1,271.0,903.0,1.0,286.0,1,0.30615544094918057,0.0
1129,1129,0.08652614498773614,0.1,0,275.0,586.0,0.0,199.0,1,0.6860713557165522,0.0
1130,1130,0.22786684200629614,0.2,0,281.0,669.0,0.0,230.0,1,0.1708797941025958,0.0
1131,1131,-0.7961639590307017,-0.8,1,413.0,508.0,1.0,129.0,1,0.9880545840655385,0.0
1132,1132,-0.5352476990580088,-0.5,1,323.0,651.0,1.0,386.0,1,0.16173654822559191,0.0
1133,1133,0.6233663036753234,0.6,0,365.0,876.0,0.0,249.0,1,0.5654748202805671,0.0
1134,1134,-0.6065619006067193,-0.6,1,483.0,605.0,1.0,202.0,1,0.9638258806338138,0.0
1135,1135,-0.5607819079926237,-0.6,1,440.0,906.0,1.0,274.0,1,0.6142834237502901,0.0
1136,1136,0.8532706146489504,0.9,0,441.0,849.0,0.0,270.0,1,0.4568221628996595,0.0
1137,1137,-0.704752171773116,-0.7,1,437.0,872.0,1.0,351.0,1,0.17040184411192538,0.0
1138,1138,0.11504509955906306,0.1,0,467.0,545.0,0.0,958.0,1,0.6834767170647388,0.0
1139,1139,0.6894228243083285,0.7,0,458.0,972.0,0.0,230.0,1,0.29903869108459735,0.0
1140,1140,-0.09061337609926534,-0.1,1,362.0,947.0,1.0,281.0,1,0.823610339582456,0.0
1141,1141,-0.1362250860563432,-0.1,1,305.0,709.0,1.0,936.0,1,0.2477552620798089,0.0
1142,1142,0.8803602051227408,0.9,0,279.0,987.0,0.0,104.0,1,0.8265898132459983,0.0
1143,1143,-0.2501856040270929,-0.3,1,470.0,744.0,1.0,246.0,1,0.595461305672247,0.0
1144,1144,-0.6416302533968388,-0.6,1,473.0,881.0,1.0,236.0,1,0.2780735186844966,0.0
1145,1145,0.716768851254949,0.7,0,484.0,545.0,0.0,1081.0,1,0.09241195124591861,0.0
1146,1146,0.2908107231045818,0.3,0,324.0,904.0,0.0,262.0,1,0.8265147846898706,0.0
1147,1147,0.6986468112702684,0.7,0,308.0,745.0,0.0,127.0,1,0.9950839458756066,0.0
1148,1148,-0.056584836989899356,-0.1,1,278.0,690.0,1.0,262.0,1,0.7463358643768843,0.0
1149,1149,0.0011371515183835612,0.0,0,462.0,959.0,1.0,229.0,0,0.9014225555657929,0.0
1150,1150,0.9285477057945577,0.9,0,362.0,568.0,0.0,170.0,1,0.4755849339673298,0.0
1151,1151,-0.07921237722573404,-0.1,1,450.0,863.0,1.0,327.0,1,0.17030549247115756,0.0
1152,1152,-0.5328151754012411,-0.5,1,385.0,817.0,1.0,138.0,1,0.998372558491807,0.0
1153,1153,-0.260519916545328,-0.3,1,494.0,880.0,1.0,196.0,1,0.9033247782838923,0.0
1154,1154,-0.3378745627917987,-0.3,1,400.0,626.0,1.0,484.0,1,0.07257472330866699,0.0
1155,1155,-0.97704492809337,-1.0,1,264.0,915.0,1.0,131.0,1,0.7190898639309213,0.0
1156,1156,0.6205524160114109,0.6,0,419.0,839.0,0.0,172.0,1,0.800873454091524,0.0
1157,1157,0.576982789440835,0.6,0,314.0,917.0,0.0,189.0,1,0.8596204781173302,0.0
1158,1158,-0.9863517460959526,-1.0,1,331.0,876.0,1.0,253.0,1,0.2268297509992543,0.0
1159,1159,0.786825795763376,0.8,0,250.0,959.0,0.0,71.0,1,0.824617747600531,0.0
1160,1160,-0.6923685222458067,-0.7,1,263.0,709.0,1.0,298.0,1,0.2523615423157165,0.0
1161,1161,0.865952522313435,0.9,0,395.0,607.0,0.0,178.0,1,0.7976637905619968,0.0
1162,1162,0.9314079091284575,0.9,0,396.0,507.0,0.0,167.0,1,0.8434350042464448,0.0
1163,1163,-0.37478780327779226,-0.4,1,328.0,560.0,1.0,232.0,1,0.5625795053616066,0.0
1164,1164,-0.7849885315399483,-0.8,1,307.0,587.0,1.0,196.0,1,0.6491930356548675,0.0
1165,1165,0.9455114926560171,0.9,0,363.0,527.0,0.0,180.0,1,0.137050711337957,0.0
1166,1166,-0.006265637450479922,-0.0,1,254.0,999.0,0.0,167.0,0,0.1813374731528602,0.0
1167,1167,0.55760486141937,0.6,0,361.0,814.0,0.0,245.0,1,0.7046016415713602,0.0
1168,1168,-0.5982340283492673,-0.6,1,358.0,641.0,1.0,641.0,1,0.017042138593742595,0.0
1169,1169,-0.3023282481181653,-0.3,1,370.0,613.0,1.0,197.0,1,0.8913151359115261,0.0
1170,1170,0.12983798449578154,0.1,0,391.0,713.0,0.0,896.0,1,0.23419316460197215,0.0
1171,1171,-0.5145320389884387,-0.5,1,272.0,980.0,1.0,208.0,1,0.3362390732692899,0.0
1172,1172,-0.3052463958604845,-0.3,1,322.0,507.0,0.0,301.0,0,0.732561143518835,0.0
1173,1173,-0.32894548746936647,-0.3,1,327.0,818.0,1.0,215.0,1,0.5595791557924306,0.0
1174,1174,0.9867647460828952,1.0,0,364.0,971.0,0.0,125.0,1,0.8990098193048062,0.0
1175,1175,0.11512279669674008,0.1,0,284.0,629.0,1.0,347.0,0,0.6037060938582216,0.0
1176,1176,0.9262241595145169,0.9,0,495.0,682.0,0.0,243.0,1,0.23840184508382056,0.0
1177,1177,0.1332734693820441,0.1,0,292.0,808.0,1.0,310.0,0,0.5931761482571173,0.0
1178,1178,0.17208830581973023,0.2,0,294.0,840.0,0.0,546.0,1,0.548015484529425,0.0
1179,1179,0.6445818492510047,0.6,0,466.0,954.0,0.0,180.0,1,0.5225644034649386,0.0
1180,1180,-0.16203872153824306,-0.2,1,285.0,523.0,1.0,462.0,1,0.24814002398026824,0.0
1181,1181,0.3295254423831455,0.3,0,423.0,963.0,0.0,424.0,1,0.3156046864495937,0.0
1182,1182,-0.4645690152508284,-0.5,1,292.0,554.0,1.0,194.0,1,0.7393352750308996,0.0
1183,1183,-0.978529222519612,-1.0,1,389.0,716.0,1.0,305.0,1,0.1555604598115452,0.0
1184,1184,0.5410765510985609,0.5,0,304.0,861.0,0.0,365.0,1,0.2223075820841992,0.0
1185,1185,0.4395438892490413,0.4,0,404.0,568.0,0.0,238.0,1,0.7264801748058822,0.0
1186,1186,0.7116735282396254,0.7,0,456.0,730.0,0.0,704.0,1,0.018612984941986044,0.0
1187,1187,-0.7216232900196948,-0.7,1,348.0,658.0,1.0,194.0,1,0.9080858635396728,0.0
1188,1188,0.8714504496359103,0.9,0,322.0,690.0,0.0,178.0,1,0.39406616934812533,0.0
1189,1189,0.982402907671146,1.0,0,457.0,538.0,0.0,235.0,1,0.11307580571894826,0.0
1190,1190,-0.4070342033834582,-0.4,1,499.0,690.0,1.0,371.0,1,0.2047478790447802,0.0
1191,1191,-0.006117414141736166,-0.0,1,295.0,765.0,1.0,2190.0,1,0.34318788392742594,0.0
1192,1192,0.4469507770299741,0.4,0,299.0,588.0,0.0,353.0,1,0.012583916177366539,0.0
1193,1193,-0.5320218244786767,-0.5,1,466.0,786.0,1.0,368.0,1,0.11978977939645497,0.0
1194,1194,0.4025690078907438,0.4,0,301.0,817.0,0.0,352.0,1,0.33616638528081066,0.0
1195,1195,0.6533685789027401,0.7,0,449.0,512.0,0.0,299.0,1,0.498663708373145,0.0
1196,1196,0.46785512122192574,0.5,0,490.0,865.0,0.0,135.0,1,0.7968952550499986,0.0
1197,1197,0.5366195246908376,0.5,0,339.0,702.0,0.0,289.0,1,0.48329716305200365,0.0
1198,1198,0.6202351802915087,0.6,0,320.0,668.0,0.0,322.0,1,0.7580205772014879,0.0
1199,1199,0.7795381107189965,0.8,0,327.0,675.0,0.0,318.0,1,0.3103388770743829,0.0
1200,1200,-0.5960011068322861,-0.6,1,327.0,919.0,1.0,164.0,1,0.21332514890488008,0.0
1201,1201,0.5184237267545848,0.5,0,447.0,532.0,0.0,311.0,1,0.784315265277737,0.0
1202,1202,0.608101333167814,0.6,0,312.0,766.0,0.0,162.0,1,0.8969279106783088,0.0
1203,1203,0.9257813347678183,0.9,0,357.0,885.0,0.0,408.0,1,0.016163062582078003,0.0
1204,1204,-0.6820506707331513,-0.7,1,406.0,681.0,1.0,143.0,1,0.8915196272991118,0.0
1205,1205,0.3766306570704747,0.4,0,290.0,545.0,0.0,375.0,1,0.35304537271465697,0.0
1206,1206,0.04000603581969697,0.0,0,490.0,756.0,1.0,334.0,0,0.6148580108950292,0.0
1207,1207,0.46748509656208226,0.5,0,370.0,878.0,0.0,172.0,1,0.6171379752031161,0.0
1208,1208,-0.7486290482797984,-0.7,1,498.0,724.0,1.0,378.0,1,0.19578730259427368,0.0
1209,1209,0.2802407505629918,0.3,0,321.0,642.0,0.0,707.0,1,0.2714806372881714,0.0
1210,1210,-0.787708708519683,-0.8,1,442.0,572.0,1.0,216.0,1,0.24003454309964756,0.0
1211,1211,0.7056275968229628,0.7,0,262.0,970.0,0.0,178.0,1,0.7263241749411071,0.0
1212,1212,-0.6772006252250551,-0.7,1,329.0,878.0,1.0,303.0,1,0.18262816132465431,0.0
1213,1213,0.4007737847799564,0.4,0,259.0,908.0,0.0,263.0,1,0.45752612226663536,0.0
1214,1214,0.23698580194443775,0.2,0,416.0,970.0,0.0,234.0,1,0.3723885173834921,0.0
1215,1215,-0.5755784123350036,-0.6,1,399.0,504.0,1.0,397.0,1,0.03079707005788246,0.0
1216,1216,-0.12773095670405454,-0.1,1,417.0,713.0,1.0,310.0,1,0.8720985812500662,0.0
1217,1217,0.46356347037564816,0.5,0,314.0,577.0,0.0,219.0,1,0.4582710863587861,0.0
1218,1218,-0.14119844338546894,-0.1,1,277.0,962.0,1.0,331.0,1,0.6910903444913995,0.0
1219,1219,-0.5635109531088782,-0.6,1,404.0,876.0,1.0,390.0,1,0.3872116643330289,0.0
1220,1220,-0.008623311233913578,-0.0,1,346.0,591.0,1.0,173.0,1,0.7181175861186836,0.0
1221,1221,0.7310555494323756,0.7,0,430.0,880.0,0.0,310.0,1,0.12124435193449234,0.0
