,trial,coherence,coherence_bin,correct_side,target_onset,checker_onset,decision,decision_time,correct_decision,g0,gSlope
0,0,0.8937450722239058,0.9,0,403.0,631.0,0.0,346.0,1,0.6826459276927692,0.002888153973665004
1,1,-0.8931563598987897,-0.9,1,255.0,659.0,1.0,196.0,1,0.7417093939801979,0.004690582477518437
2,2,-0.060214656466413885,-0.1,1,401.0,840.0,1.0,269.0,1,0.957031916744672,0.0001674769214263494
3,3,0.744367215449889,0.7,0,323.0,524.0,0.0,223.0,1,0.3229054615924113,0.0005331327818964382
4,4,-0.3260342513795289,-0.3,1,374.0,676.0,1.0,270.0,1,0.6264488305427023,0.0029971515704869324
5,5,0.18039987788854916,0.2,0,460.0,648.0,0.0,512.0,1,0.35114674940777624,0.002876792316107259
6,6,0.2259199827080305,0.2,0,437.0,874.0,0.0,309.0,1,0.4347200581847587,0.004679144911411901
7,7,-0.4787334271323185,-0.5,1,361.0,853.0,1.0,446.0,1,0.18041471133423193,0.0017646685411128132
8,8,-0.5952193587075252,-0.6,1,459.0,877.0,1.0,374.0,1,0.5357903082285228,0.00027033541775760896
9,9,-0.011998815302655341,-0.0,1,359.0,891.0,0.0,1210.0,0,0.38785043262806684,0.00033597886355707596
10,10,0.5529907530427736,0.6,0,279.0,538.0,0.0,293.0,1,0.5469365916408188,0.0030198038430097867
11,11,-0.4951945950286065,-0.5,1,436.0,638.0,1.0,326.0,1,0.7627502919444358,0.001127221821873058
12,12,0.21814511630684819,0.2,0,377.0,794.0,0.0,3829.0,1,0.8984424493957657,0.004688529341782883
13,13,-0.8472169262502938,-0.8,1,366.0,757.0,1.0,147.0,1,0.9456044798635194,0.0002111532042910147
14,14,-0.9439851373359776,-0.9,1,362.0,777.0,1.0,381.0,1,0.3655930925118046,0.0033626055783568215
15,15,-0.4028654681814672,-0.4,1,343.0,925.0,1.0,332.0,1,0.9919460576610006,0.00022746469668421588
16,16,0.2923646019171968,0.3,0,355.0,743.0,0.0,542.0,1,0.8595521656697968,0.0016552900215745443
17,17,-0.6578241193123391,-0.7,1,498.0,851.0,1.0,321.0,1,0.2262176142957052,0.001952182607970982
18,18,-0.3165090449451857,-0.3,1,297.0,657.0,1.0,296.0,1,0.018153038596782523,0.003966924750088799
19,19,-0.13435332397069155,-0.1,1,351.0,557.0,1.0,272.0,1,0.2455594551557303,0.0022032821995388993
20,20,-0.08166477664988836,-0.1,1,267.0,551.0,1.0,402.0,1,0.7976789535807594,0.0013841858184515826
21,21,0.78469487866184,0.8,0,302.0,716.0,0.0,322.0,1,0.9563599822856977,0.004319960542582099
22,22,-0.36662583651810055,-0.4,1,377.0,772.0,1.0,651.0,1,0.12384479828537565,0.0003191868332258324
23,23,0.7318398891668878,0.7,0,258.0,602.0,0.0,250.0,1,0.17097661989391633,0.0021028642632778026
24,24,-0.6566815144900828,-0.7,1,272.0,851.0,1.0,257.0,1,0.2822478083417188,0.004673325707291824
25,25,-0.3014086018315296,-0.3,1,487.0,717.0,1.0,276.0,1,0.7824466676662893,0.0016688712941425755
26,26,0.4280501138538504,0.4,0,318.0,750.0,0.0,292.0,1,0.8122030421159318,0.001454091732737498
27,27,-0.4633236818253301,-0.5,1,289.0,510.0,1.0,231.0,1,0.9947064564840004,0.0045766988282920345
28,28,-0.9365047755531111,-0.9,1,367.0,848.0,1.0,235.0,1,0.27142357984908894,0.003924013174028075
29,29,0.7330742706658768,0.7,0,322.0,566.0,0.0,242.0,1,0.6101922111750883,0.0018428670251775092
30,30,0.3658438279803755,0.4,0,252.0,800.0,0.0,468.0,1,0.35537920559990244,0.002330297125932539
31,31,0.6522669275819013,0.7,0,491.0,500.0,0.0,399.0,1,0.0236765082853575,0.0008535431958135958
32,32,-0.8864977432020471,-0.9,1,387.0,638.0,1.0,155.0,1,0.4239121192035329,0.0048401251222606415
33,33,0.20593740659199167,0.2,0,295.0,568.0,0.0,197.0,1,0.5278984740806565,0.0007029768266669412
34,34,0.012215496973420947,0.0,0,271.0,696.0,0.0,373.0,1,0.2720102307517489,0.0017764770866371966
35,35,0.258964982717651,0.3,0,484.0,574.0,0.0,452.0,1,0.995183800194371,0.0028588844285467514
36,36,-0.5938069452354056,-0.6,1,438.0,632.0,1.0,470.0,1,0.39897425753005666,0.0034588879028255404
37,37,0.1324087990281595,0.1,0,403.0,644.0,0.0,573.0,1,0.10211012666722208,0.0011312061152754715
38,38,-0.7681109193166102,-0.8,1,272.0,741.0,1.0,597.0,1,0.5888660938799418,0.0011499383948055354
39,39,-0.9082705024753774,-0.9,1,345.0,651.0,1.0,324.0,1,0.03857759986939413,0.004798110345645077
40,40,-0.9206237977022322,-0.9,1,365.0,974.0,1.0,311.0,1,0.24071946308116587,0.00407185543640189
41,41,0.6175273471533202,0.6,0,360.0,678.0,0.0,382.0,1,0.19662331280732337,0.000938951913848805
42,42,0.8333837108734179,0.8,0,432.0,902.0,0.0,426.0,1,0.5304820997361258,0.0028353678468933993
43,43,-0.5237689585048901,-0.5,1,350.0,643.0,1.0,417.0,1,0.46096665096640754,0.0016707313684032454
44,44,-0.40522201056975793,-0.4,1,304.0,669.0,1.0,387.0,1,0.7265299424845085,0.0037698315268785716
45,45,0.24627348971967655,0.2,0,383.0,725.0,0.0,272.0,1,0.46749221987629797,0.004689031259683055
46,46,0.27314675171915503,0.3,0,327.0,614.0,0.0,269.0,1,0.3069791329517,0.004857278306419539
47,47,0.7267572104121744,0.7,0,462.0,527.0,0.0,411.0,1,0.8494773948718518,0.004458407538824141
48,48,0.9626357502844418,1.0,0,460.0,506.0,0.0,324.0,1,0.004435442778011445,0.0023190975970218074
49,49,-0.07457769622284594,-0.1,1,408.0,821.0,1.0,491.0,1,0.8733314445718542,0.0032315558936426253
50,50,-0.41328751652135765,-0.4,1,255.0,560.0,1.0,255.0,1,0.37824542417933593,0.0042750330672943196
51,51,0.8082888805027719,0.8,0,286.0,913.0,0.0,261.0,1,0.7429015561890085,0.0008520443222453589
52,52,0.33700165645553315,0.3,0,456.0,643.0,0.0,501.0,1,0.7087838534423014,0.0025171670038894667
53,53,0.990134851979007,1.0,0,495.0,606.0,0.0,229.0,1,0.8394462551150697,0.0010169854926114525
54,54,0.5845870704454741,0.6,0,441.0,734.0,0.0,315.0,1,0.8777754353675196,0.002856227864557999
55,55,0.5957589651928981,0.6,0,314.0,753.0,0.0,313.0,1,0.8339594234140062,0.002325280914467859
56,56,0.6077183328013804,0.6,0,293.0,668.0,0.0,429.0,1,0.7923938255781814,0.000995421744394952
57,57,0.3914816803457455,0.4,0,363.0,857.0,0.0,350.0,1,0.8880363546595464,0.004507278403442885
58,58,-0.29559876750787883,-0.3,1,291.0,602.0,1.0,467.0,1,0.6859412971408554,4.123078447509143e-05
59,59,0.5308732711038799,0.5,0,426.0,634.0,0.0,610.0,1,0.11752031215746606,0.003979594248769098
60,60,-0.0623331917491301,-0.1,1,286.0,857.0,1.0,477.0,1,0.8990680291412142,0.0004903983776042098
61,61,0.9835461106121035,1.0,0,485.0,951.0,0.0,224.0,1,0.5676264448755469,0.0040573649133137605
62,62,-0.23197934853502766,-0.2,1,363.0,635.0,1.0,392.0,1,0.2195614199509338,0.0046038178755173935
63,63,0.8293021010557835,0.8,0,343.0,864.0,0.0,253.0,1,0.5486882657294271,0.0035060101706328563
64,64,0.47370412945858575,0.5,0,315.0,588.0,0.0,637.0,1,0.5410467378167078,0.001985320386742625
65,65,-0.8973208930434071,-0.9,1,344.0,684.0,1.0,382.0,1,0.05800168545788087,0.0034360692117484048
66,66,0.788477487527546,0.8,0,274.0,541.0,0.0,335.0,1,0.20497258730941526,0.001765104633608921
67,67,0.027891489809898973,0.0,0,468.0,556.0,0.0,436.0,1,0.5568246558201716,0.002266837576107989
68,68,0.2793553610133659,0.3,0,439.0,757.0,0.0,264.0,1,0.46495774084021624,0.0035809600526092336
69,69,-0.6297260871508943,-0.6,1,411.0,632.0,1.0,337.0,1,0.04983015666075896,0.0038291867910428827
70,70,0.9470255451094916,0.9,0,403.0,891.0,0.0,306.0,1,0.10649397083758438,0.004499462741139793
71,71,0.11017856358976674,0.1,0,288.0,921.0,1.0,801.0,0,0.8458219464659111,0.003163769133064737
72,72,-0.9024404263428538,-0.9,1,327.0,754.0,1.0,539.0,1,0.21950966832544916,0.0012205463850854209
73,73,0.3617202029567448,0.4,0,379.0,849.0,0.0,872.0,1,0.5192792988133266,0.000585371662663286
74,74,-0.8045246757490105,-0.8,1,252.0,586.0,1.0,392.0,1,0.4771950529557548,0.0012275244605568791
75,75,0.4526194391040892,0.5,0,469.0,585.0,0.0,616.0,1,0.9050518443240183,0.003936946433629509
76,76,-0.5228027727186284,-0.5,1,382.0,674.0,1.0,384.0,1,0.35039588836074576,0.002571886590479088
77,77,-0.08433441730058111,-0.1,1,270.0,636.0,1.0,704.0,1,0.4384792122933526,0.0017637781959490234
78,78,-0.5992090226164548,-0.6,1,389.0,902.0,1.0,279.0,1,0.7148319494825218,0.0017569882256218195
79,79,0.28447319688097217,0.3,0,400.0,543.0,1.0,307.0,0,0.9272194838236302,0.0017679362164524748
80,80,0.17095673997676752,0.2,0,358.0,592.0,1.0,390.0,0,0.9751241352750352,0.003113398471224105
81,81,0.12916443835281366,0.1,0,329.0,785.0,1.0,256.0,0,0.963680159354362,0.002040087499507041
82,82,-0.00580374968485553,-0.0,1,356.0,919.0,1.0,355.0,1,0.5321728744189115,0.002218614500725824
83,83,0.27144677999665134,0.3,0,460.0,572.0,0.0,178.0,1,0.4461978624101248,0.003331648144452266
84,84,0.19387035556304277,0.2,0,378.0,724.0,0.0,728.0,1,0.6892911786620872,0.0008734039413204331
85,85,0.9654609090238191,1.0,0,415.0,926.0,0.0,259.0,1,0.5890695893840108,0.0020928024260848
86,86,0.14353373668439162,0.1,0,417.0,730.0,0.0,363.0,1,0.8947874720747697,0.003966170879699723
87,87,0.8419346370161129,0.8,0,304.0,816.0,0.0,360.0,1,0.4384405109371422,0.0023710023097277483
88,88,0.9567042927737603,1.0,0,438.0,843.0,0.0,419.0,1,0.22754968788949748,6.17240531762242e-05
89,89,-0.6897254028879922,-0.7,1,286.0,564.0,1.0,360.0,1,0.6484719651997455,0.0029539261039452373
90,90,0.5924298549638614,0.6,0,445.0,713.0,0.0,302.0,1,0.1498861309709505,0.004670081699403251
91,91,0.2959654876431661,0.3,0,388.0,696.0,1.0,416.0,0,0.928624603433659,0.0047893879978247785
92,92,0.4849766659985639,0.5,0,328.0,996.0,0.0,276.0,1,0.5493589699144591,0.002829807673151604
93,93,0.01335248846120951,0.0,0,411.0,839.0,1.0,320.0,0,0.1582016462873097,0.0049283413986560415
94,94,0.034526167035150435,0.0,0,398.0,706.0,0.0,486.0,1,0.029022641588288045,0.0013415564164033467
95,95,0.47134508417404875,0.5,0,409.0,720.0,0.0,361.0,1,0.9323127529838681,0.0032143392007355216
96,96,0.30891269848998304,0.3,0,310.0,707.0,0.0,263.0,1,0.44254011800668114,0.004408365093938816
97,97,-0.5857229314135708,-0.6,1,333.0,829.0,1.0,328.0,1,0.045407492656891146,0.0015950181408278142
98,98,-0.6218153610776598,-0.6,1,482.0,621.0,1.0,357.0,1,0.7227412962945575,0.0035017308944341723
99,99,0.3433804830442009,0.3,0,272.0,600.0,0.0,328.0,1,0.7148758316077056,0.0006864726039369806
100,100,-0.9167018638978004,-0.9,1,255.0,844.0,1.0,381.0,1,0.590196294148452,0.004424305012449884
101,101,0.38566508915757525,0.4,0,452.0,978.0,0.0,730.0,1,0.6256491463864081,0.0002826615559300005
102,102,0.6852486314551982,0.7,0,283.0,758.0,0.0,299.0,1,0.1770163000581214,0.0047951218530272914
103,103,-0.12763520306470855,-0.1,1,490.0,918.0,1.0,472.0,1,0.23822520526367863,0.0034648808611076228
104,104,-0.26968208445135144,-0.3,1,299.0,953.0,1.0,1008.0,1,0.5616369930767675,0.0005244319162624833
105,105,-0.4800245451731424,-0.5,1,398.0,725.0,1.0,467.0,1,0.4304758558535804,0.0012686948304280166
106,106,0.5692065165514124,0.6,0,318.0,832.0,0.0,710.0,1,0.3127295658858851,0.0003541213362869594
107,107,0.5897678969361959,0.6,0,428.0,929.0,0.0,393.0,1,0.7677215689868785,0.002140770856706491
108,108,-0.7056293512599168,-0.7,1,342.0,929.0,1.0,189.0,1,0.2951837887419154,0.0036662249438835686
109,109,-0.743242181798007,-0.7,1,394.0,807.0,1.0,349.0,1,0.3700136692210456,0.003463751155681025
110,110,-0.17034793219543687,-0.2,1,419.0,813.0,1.0,918.0,1,0.9026874845875329,0.00020651981683422415
111,111,-0.6563915649079932,-0.7,1,431.0,838.0,1.0,281.0,1,0.010372680072287865,0.0034379635891811366
112,112,-0.466548341390151,-0.5,1,308.0,913.0,1.0,269.0,1,0.795626123778536,0.0008277674817104341
113,113,0.1922596669801233,0.2,0,278.0,619.0,1.0,413.0,0,0.25775801816256283,0.0017317951484633288
114,114,0.5898339083230764,0.6,0,270.0,662.0,0.0,428.0,1,0.10343122588103848,0.004457985044525524
115,115,0.9588003183987013,1.0,0,477.0,610.0,0.0,393.0,1,0.6480898704673884,0.0033807241233800617
116,116,0.37829687866296346,0.4,0,447.0,745.0,0.0,528.0,1,0.8907457583432248,0.0003668837963465843
117,117,-0.2680571776374474,-0.3,1,465.0,609.0,1.0,536.0,1,0.04865582249783107,0.0006006324261823332
118,118,-0.01194152245662683,-0.0,1,318.0,894.0,0.0,438.0,0,0.8684377855034476,0.004912730042838654
119,119,0.13830600986507524,0.1,0,302.0,517.0,0.0,401.0,1,0.01510738040597659,0.0026517501658899433
120,120,-0.001352871183314619,-0.0,1,381.0,662.0,0.0,1187.0,0,0.7233432516279447,0.0041001350435345
121,121,-0.4976245527639569,-0.5,1,391.0,810.0,1.0,859.0,1,0.4320499896309439,0.00021194852416888676
122,122,0.0960854118680603,0.1,0,295.0,716.0,0.0,609.0,1,0.15990435779584833,0.0006023676539512379
123,123,0.998827765597796,1.0,0,284.0,524.0,0.0,232.0,1,0.8186195969113672,0.0017438496086273493
124,124,-0.848979263236584,-0.8,1,285.0,569.0,1.0,206.0,1,0.9139803009946212,0.0016307351875299698
125,125,-0.8256594927260821,-0.8,1,274.0,823.0,1.0,353.0,1,0.8260672580221162,0.0019378534834991001
126,126,-0.6070436829323398,-0.6,1,445.0,892.0,1.0,593.0,1,0.21321845193511935,0.0009474544978108135
127,127,0.897730402675827,0.9,0,396.0,806.0,0.0,298.0,1,0.6426689055036736,0.0040943618065395464
128,128,0.5201280815335594,0.5,0,318.0,684.0,0.0,298.0,1,0.8215365465947446,0.0032109739983836394
129,129,0.295714966722582,0.3,0,432.0,723.0,0.0,575.0,1,0.1522174723931088,0.0016523719371585937
130,130,0.7730052598866317,0.8,0,307.0,854.0,0.0,179.0,1,0.871046409611822,0.004000654646068368
131,131,0.6852365209892453,0.7,0,349.0,938.0,0.0,663.0,1,0.1848095578580281,0.0013201058902686286
132,132,-0.9991025420714965,-1.0,1,457.0,823.0,1.0,690.0,1,0.2230814838306655,0.0005918365640859014
133,133,-0.039309363836382616,-0.0,1,452.0,572.0,1.0,336.0,1,0.14483268574446662,0.004677542127509778
134,134,-0.7012124347566195,-0.7,1,353.0,691.0,1.0,336.0,1,0.7991691687961116,0.004120581511381938
135,135,-0.0793332247041838,-0.1,1,281.0,865.0,0.0,1034.0,0,0.031334419201650476,0.0005500427669299057
136,136,0.09889963674280766,0.1,0,365.0,936.0,0.0,789.0,1,0.6339324661638337,0.0004636988549991322
137,137,-0.3190533928871868,-0.3,1,454.0,849.0,1.0,307.0,1,0.2938891271292301,0.004504868098021484
138,138,-0.1127943156438016,-0.1,1,492.0,821.0,1.0,277.0,1,0.8603241777267537,0.003227737959046466
139,139,0.4754362092182076,0.5,0,335.0,756.0,0.0,429.0,1,0.16145212679174525,0.002540392682861986
140,140,-0.953354694878362,-1.0,1,473.0,745.0,1.0,492.0,1,0.46692993079952705,0.0030736652608139327
141,141,0.7349061825811214,0.7,0,325.0,949.0,0.0,356.0,1,0.2762916490719288,0.004394479974829709
142,142,0.7184725025309784,0.7,0,425.0,612.0,0.0,383.0,1,0.5756570581672518,0.0024674514150649536
143,143,0.5160464915572891,0.5,0,293.0,920.0,0.0,467.0,1,0.5450010804069613,0.00013665589949798606
144,144,-0.9299808878912794,-0.9,1,352.0,986.0,1.0,382.0,1,0.616900096497028,0.0031547637250289085
145,145,-0.49793738215185424,-0.5,1,329.0,543.0,1.0,278.0,1,0.22961894615631695,0.0013007860707524483
146,146,0.16857027476262343,0.2,0,493.0,710.0,0.0,557.0,1,0.34367973525217244,0.001443869819875962
147,147,0.4788057079661381,0.5,0,468.0,737.0,0.0,715.0,1,0.7879438717350495,0.004891494620180369
148,148,0.9278591233945674,0.9,0,497.0,926.0,0.0,607.0,1,0.17406695151316876,0.00026084303803115605
149,149,-0.8544531467860674,-0.9,1,463.0,914.0,1.0,313.0,1,0.7325616746446613,0.0044427461213688195
150,150,0.8142410686958728,0.8,0,266.0,921.0,0.0,363.0,1,0.5165937088941952,0.001857410220724829
151,151,0.8511750994264324,0.9,0,488.0,968.0,0.0,294.0,1,0.5048121866685675,0.002977902369551777
152,152,-0.17198259565048235,-0.2,1,346.0,857.0,1.0,347.0,1,0.004181125685663312,0.0030702075608056716
153,153,-0.2773994192550411,-0.3,1,307.0,884.0,1.0,469.0,1,0.9836704257891805,0.0018373802986451015
154,154,0.8324493247303828,0.8,0,417.0,777.0,0.0,476.0,1,0.6095696069239599,0.0013905288974550567
155,155,-0.279285649121912,-0.3,1,282.0,835.0,0.0,453.0,0,0.8969335199542596,0.0030737467910255025
156,156,-0.2404913937410833,-0.2,1,370.0,651.0,1.0,299.0,1,0.16055984608905183,0.0009291677212579308
157,157,-0.9301798184186014,-0.9,1,491.0,584.0,1.0,365.0,1,0.8138966000118953,0.001307767690631464
158,158,-0.7336258611851996,-0.7,1,294.0,954.0,1.0,222.0,1,0.7232457070536873,0.004258334554761038
159,159,-0.7003309501522124,-0.7,1,291.0,550.0,1.0,249.0,1,0.10372346939482469,0.004245828552547238
160,160,0.7293011514325036,0.7,0,346.0,756.0,0.0,318.0,1,0.8029686691476468,0.0031525570581198282
161,161,0.4962772605558554,0.5,0,467.0,729.0,0.0,414.0,1,0.5270014572925894,0.0010777104451936098
162,162,-0.489140405209042,-0.5,1,494.0,965.0,1.0,361.0,1,0.39245459387978876,0.00402814098177959
163,163,-0.01710674687479319,-0.0,1,353.0,647.0,1.0,490.0,1,0.14403797065568003,0.00313657904016205
164,164,-0.7663040202956146,-0.8,1,388.0,890.0,1.0,402.0,1,0.000813569127191327,0.004450180797958795
165,165,0.5272899697672631,0.5,0,337.0,625.0,0.0,488.0,1,0.13083289031736012,0.00014372620855888641
166,166,-0.7917476111358186,-0.8,1,307.0,809.0,1.0,304.0,1,0.9280799386584587,0.004321910985277543
167,167,-0.9919969782452245,-1.0,1,259.0,632.0,1.0,339.0,1,0.07742194388640777,0.0014586530569475388
168,168,0.8472059624139883,0.8,0,409.0,997.0,0.0,444.0,1,0.5150994246983214,6.43397952026531e-05
169,169,0.48886822740284974,0.5,0,375.0,878.0,0.0,447.0,1,0.16609019485967869,0.002213494634360762
170,170,0.39263906871257226,0.4,0,275.0,909.0,0.0,-874.0,1,0.8133125662483294,0.0031195268019224166
171,171,0.8941864432441444,0.9,0,396.0,839.0,0.0,355.0,1,0.026342781069587318,0.0030628509298360512
172,172,0.8736481219171137,0.9,0,339.0,573.0,0.0,498.0,1,0.5194094219074007,0.0003656059980045867
173,173,0.9759736986357932,1.0,0,419.0,944.0,0.0,257.0,1,0.5973645828377419,0.0014095591575689864
174,174,0.3945515926069978,0.4,0,379.0,552.0,0.0,419.0,1,0.8845947105938975,0.0009084506701126899
175,175,-0.3512627270040354,-0.4,1,281.0,669.0,1.0,330.0,1,0.5400607594472133,0.002971944646022152
176,176,0.851907699639348,0.9,0,334.0,755.0,0.0,291.0,1,0.5083879105916288,0.0015696055176673074
177,177,0.5751281144023264,0.6,0,497.0,973.0,0.0,310.0,1,0.788426447756735,0.001035142935187252
178,178,0.8279695965720695,0.8,0,465.0,959.0,0.0,336.0,1,0.18913140899919212,0.0019164705594530691
179,179,-0.38715316272565636,-0.4,1,392.0,793.0,1.0,435.0,1,0.2081948734544803,0.002871213918324265
180,180,-0.9432581093806647,-0.9,1,365.0,960.0,1.0,525.0,1,0.3433142397281669,0.00024218152131420256
181,181,0.6351680221827445,0.6,0,334.0,563.0,0.0,313.0,1,0.255149213026837,0.0009630259792200174
182,182,-0.02359599762726372,-0.0,1,483.0,896.0,0.0,231.0,0,0.9596256068869041,0.004551036340547883
183,183,0.9686830824949426,1.0,0,396.0,793.0,0.0,341.0,1,0.8711200776354479,0.003920586461293803
184,184,0.8060387511812634,0.8,0,436.0,687.0,0.0,477.0,1,0.12504250937968153,0.0022664066108097967
185,185,0.025923485144682346,0.0,0,335.0,680.0,0.0,415.0,1,0.49288856306457196,0.0029657971978046794
186,186,-0.16082021006483904,-0.2,1,308.0,646.0,1.0,336.0,1,0.06555930130200971,0.004375659943846515
187,187,-0.3882578734673343,-0.4,1,412.0,599.0,1.0,409.0,1,0.98323789443131,5.513276837693093e-06
188,188,0.6734397313259726,0.7,0,477.0,910.0,0.0,223.0,1,0.7130209238330611,0.004216741604803182
189,189,0.07488208691048337,0.1,0,323.0,693.0,0.0,344.0,1,0.46844659130019073,0.0033923947593180377
190,190,-0.15596469651523148,-0.2,1,255.0,590.0,1.0,275.0,1,0.1140099027423872,0.003611565510517013
191,191,0.9524055889127581,1.0,0,262.0,548.0,0.0,290.0,1,0.583545094817141,0.0025879506769114066
192,192,-0.46191174077202923,-0.5,1,476.0,886.0,1.0,358.0,1,0.5196767475584719,0.0045336584645631495
193,193,-0.28199782213750413,-0.3,1,485.0,993.0,1.0,3522.0,1,0.47799893674139793,0.004211097480023539
194,194,0.574924412761064,0.6,0,487.0,704.0,1.0,159.0,0,0.056143611500558355,0.0012894338674701528
195,195,-0.27820548776980814,-0.3,1,329.0,533.0,1.0,328.0,1,0.5985847705861689,0.003917892557049636
196,196,0.4138676088579456,0.4,0,494.0,735.0,0.0,351.0,1,0.7078301518631139,0.0016893964907822951
197,197,-0.08396523571055181,-0.1,1,397.0,830.0,1.0,273.0,1,0.4509898936385076,0.0022153655744619415
198,198,0.7975090272200414,0.8,0,376.0,976.0,0.0,338.0,1,0.2690246901112294,0.0011887168553645256
199,199,0.0769510555303019,0.1,0,491.0,863.0,0.0,406.0,1,0.4386167813281603,0.001483039321801642
200,200,0.07811947198705105,0.1,0,265.0,614.0,0.0,441.0,1,0.3305118328581732,0.0004578126818816208
201,201,0.2610121408574986,0.3,0,292.0,901.0,0.0,647.0,1,0.5549496861983203,0.00045660039244650453
202,202,0.04351427008665931,0.0,0,343.0,949.0,0.0,388.0,1,0.5611060257536511,0.0038604463447432474
203,203,-0.5851168460039278,-0.6,1,340.0,529.0,1.0,281.0,1,0.3455251205331026,0.004723277862174325
204,204,0.519046450515058,0.5,0,344.0,587.0,0.0,449.0,1,0.21309123837211752,0.0017727081069353096
205,205,-0.2587385525254149,-0.3,1,298.0,760.0,1.0,592.0,1,0.28840254239857444,0.00018759180682098977
206,206,-0.406141756044359,-0.4,1,478.0,742.0,1.0,640.0,1,0.8017391254867792,0.0003983122823342161
207,207,-0.9028077097207918,-0.9,1,255.0,753.0,1.0,262.0,1,0.17672038896593723,0.0019506139963029136
208,208,0.0350581439408566,0.0,0,330.0,505.0,1.0,595.0,0,0.04600306534281107,0.001659216945668034
209,209,0.17706270654702627,0.2,0,477.0,702.0,1.0,311.0,0,0.48063099387221797,0.003692732859490241
210,210,-0.9309011636779003,-0.9,1,279.0,697.0,1.0,314.0,1,0.22539863858273645,0.0028179255444702946
211,211,0.8951796825822975,0.9,0,460.0,817.0,0.0,193.0,1,0.502516849653535,0.0026124558970630585
212,212,0.5483129879152147,0.5,0,390.0,924.0,0.0,526.0,1,0.7743427031633452,0.0003131659588184715
213,213,-0.4800987273924253,-0.5,1,433.0,531.0,1.0,446.0,1,0.6150887986644649,0.0024477489151045547
214,214,-0.7047753851505156,-0.7,1,335.0,972.0,1.0,363.0,1,0.2316722103216402,0.0038550531683522013
215,215,-0.5869086945671023,-0.6,1,276.0,877.0,1.0,287.0,1,0.08926218600198166,0.004701085679891955
216,216,0.05553403665917456,0.1,0,267.0,937.0,1.0,896.0,0,0.2747170787711992,0.0008203327092153362
217,217,-0.7334945032726445,-0.7,1,443.0,623.0,1.0,324.0,1,0.5479135150071703,0.0020875344652080564
218,218,-0.11429636385171649,-0.1,1,353.0,712.0,0.0,335.0,0,0.3100862195811924,0.003222590238743852
219,219,0.2003738112827813,0.2,0,327.0,972.0,0.0,471.0,1,0.04806311609786307,0.003580066249147335
220,220,0.8734018371912291,0.9,0,340.0,861.0,0.0,219.0,1,0.8853920024936205,0.0032425249992243488
221,221,0.03648319089939345,0.0,0,350.0,788.0,1.0,362.0,0,0.047172599157806694,0.004046515467319933
222,222,0.46346193825388093,0.5,0,411.0,771.0,0.0,378.0,1,0.7143691645985752,0.0020832883039703064
223,223,0.9232437752615708,0.9,0,256.0,995.0,0.0,209.0,1,0.5047463171711595,0.001711921136231664
224,224,0.5693253590988117,0.6,0,449.0,703.0,0.0,388.0,1,0.19880598111620185,0.004044133850381156
225,225,0.6342908558409659,0.6,0,327.0,781.0,0.0,502.0,1,0.14827211670759033,0.004768800456828416
226,226,-0.5153655175662946,-0.5,1,344.0,744.0,1.0,632.0,1,0.1145177813717354,0.002429639251256846
227,227,-0.2326179266029984,-0.2,1,302.0,796.0,1.0,612.0,1,0.3062554617202915,2.1189065057533596e-05
228,228,0.10041539442900649,0.1,0,475.0,896.0,0.0,439.0,1,0.4830006959629678,0.003428956160599289
229,229,0.7443538560364578,0.7,0,381.0,572.0,0.0,337.0,1,0.7816793002874612,0.0001830703286709945
230,230,0.8276742313662717,0.8,0,301.0,872.0,0.0,207.0,1,0.5134148327397448,0.004077429974739676
231,231,-0.4218706874511393,-0.4,1,475.0,620.0,1.0,155.0,1,0.6185893911171699,0.00268937675909933
232,232,-0.0701290333347715,-0.1,1,479.0,740.0,0.0,701.0,0,0.24884321666606013,0.0008246780541011123
233,233,-0.9803251358498637,-1.0,1,492.0,641.0,1.0,817.0,1,0.617914781022299,0.0003373818900695713
234,234,0.6349533665336842,0.6,0,454.0,541.0,0.0,255.0,1,0.9586595900120716,0.0029308318249531774
235,235,0.1592300493594383,0.2,0,290.0,881.0,0.0,509.0,1,0.09139794782264754,0.004805298135902559
236,236,-0.8995327300010227,-0.9,1,488.0,915.0,1.0,347.0,1,0.5790084848282382,0.004466288526259281
237,237,-0.30432576122078037,-0.3,1,368.0,688.0,1.0,314.0,1,0.9630105373875543,0.00033303981716461205
238,238,0.9795432392639696,1.0,0,432.0,617.0,0.0,171.0,1,0.8986844428797734,0.0040316674622045716
239,239,0.24548299893985748,0.2,0,417.0,630.0,0.0,263.0,1,0.3380543424149002,0.004517575138461713
240,240,0.25936710039611244,0.3,0,374.0,817.0,0.0,599.0,1,0.9289393496583677,0.00017354243411675242
241,241,0.19922338327039935,0.2,0,489.0,832.0,0.0,499.0,1,0.37276965485079017,0.002431388742660922
242,242,-0.7130428519973946,-0.7,1,354.0,986.0,1.0,300.0,1,0.21707929119338942,0.004379171197751062
243,243,-0.7293710454452029,-0.7,1,308.0,530.0,1.0,362.0,1,0.5107107477682405,0.0026468105594729292
244,244,-0.5477741139207921,-0.5,1,306.0,677.0,1.0,357.0,1,0.6656333355310957,0.0022115729071074497
245,245,0.8406653349988344,0.8,0,401.0,501.0,0.0,218.0,1,0.9037120595838019,0.002208239745916151
246,246,-0.7169446102625046,-0.7,1,438.0,578.0,1.0,284.0,1,0.45453943086650284,0.0035690273582277983
247,247,-0.9644458172530801,-1.0,1,335.0,906.0,1.0,419.0,1,0.03804336616353854,0.003232798692788149
248,248,0.06557542886799617,0.1,0,281.0,778.0,1.0,431.0,0,0.521803153463052,0.004532719885650146
249,249,0.6174877312875822,0.6,0,395.0,903.0,0.0,412.0,1,0.26785451309053776,0.0027230751785191623
250,250,-0.4257242111516315,-0.4,1,382.0,965.0,1.0,383.0,1,0.8764238693031209,0.0018271159574417162
251,251,-0.9026235628298416,-0.9,1,446.0,504.0,1.0,340.0,1,0.16384056762887056,0.003010451032929432
252,252,-0.6844531113681498,-0.7,1,460.0,571.0,1.0,739.0,1,0.47174393927748315,0.0012867842321640467
253,253,-0.15680238017086512,-0.2,1,425.0,768.0,1.0,237.0,1,0.2254725550577833,0.003072266016790908
254,254,-0.6953123403519339,-0.7,1,497.0,961.0,1.0,422.0,1,0.4940245882069835,0.0010478586868144857
255,255,-0.829022188077656,-0.8,1,349.0,807.0,1.0,324.0,1,0.8164092820798926,0.002832203048393383
256,256,-0.8385046048382192,-0.8,1,361.0,848.0,1.0,571.0,1,0.8770328137147229,0.00013683643197263506
257,257,0.8526132405642504,0.9,0,461.0,856.0,0.0,343.0,1,0.5855685247439172,0.00010842216887817947
258,258,-0.8448134411130335,-0.8,1,373.0,802.0,1.0,295.0,1,0.37542927811440896,0.004188618500902206
259,259,-0.6940402073689509,-0.7,1,315.0,635.0,1.0,880.0,1,0.3860194358155469,9.629677268215064e-05
260,260,0.9189605741796159,0.9,0,436.0,559.0,0.0,365.0,1,0.06353952853348199,0.0022335655616468135
261,261,-0.15730719812426774,-0.2,1,366.0,690.0,1.0,464.0,1,0.6658128113641184,0.0005018117986641613
262,262,0.09813978815688085,0.1,0,354.0,549.0,1.0,547.0,0,0.0928996819157416,0.004281091644364565
263,263,-0.387808077764743,-0.4,1,396.0,784.0,1.0,240.0,1,0.7264837628682919,0.004048435221995662
264,264,-0.288390636937216,-0.3,1,284.0,624.0,1.0,362.0,1,0.6664333499215274,0.001205373352196889
265,265,0.16737608595849052,0.2,0,386.0,599.0,0.0,465.0,1,0.21060795145646705,0.0007498722176716061
266,266,0.3057015757049417,0.3,0,417.0,993.0,0.0,470.0,1,0.08968747817862854,0.0033293128952813166
267,267,-0.12881705313863057,-0.1,1,326.0,801.0,1.0,253.0,1,0.14585410632413698,0.0025400400087540807
268,268,0.6735102467637317,0.7,0,321.0,774.0,0.0,345.0,1,0.7047333788801584,3.015468087574358e-05
269,269,0.2591861776263402,0.3,0,324.0,636.0,0.0,460.0,1,0.09998360711601195,0.002448375885059145
270,270,0.1489326516353282,0.1,0,365.0,792.0,0.0,283.0,1,0.9644779463945663,0.003494099904024005
271,271,-0.5385572641899616,-0.5,1,294.0,652.0,1.0,334.0,1,0.25698045544962755,0.0010850713534141503
272,272,-0.12795797496943728,-0.1,1,332.0,566.0,1.0,322.0,1,0.6038499327578106,0.00201615650409106
273,273,0.11492768536759734,0.1,0,290.0,783.0,0.0,497.0,1,0.9825730125988474,0.0030657187873531573
274,274,0.06369421471261605,0.1,0,432.0,925.0,0.0,1173.0,1,0.4939161908032971,0.0002259932124218561
275,275,-0.056533911912095114,-0.1,1,433.0,530.0,1.0,527.0,1,0.6363236512082949,0.0027563069208425433
276,276,0.8108536760370983,0.8,0,348.0,981.0,0.0,461.0,1,0.16183445820363052,0.0006724164556264839
277,277,-0.5836314182238227,-0.6,1,436.0,855.0,1.0,279.0,1,0.4977184611037716,0.0038817151100693347
278,278,-0.7525920992790518,-0.8,1,295.0,592.0,1.0,403.0,1,0.6196652181664338,0.00026841962515229467
279,279,0.739100795763237,0.7,0,256.0,745.0,0.0,529.0,1,0.4439729332810284,0.0005028395069108371
280,280,-0.41974854858581034,-0.4,1,277.0,873.0,1.0,320.0,1,0.14928846855203604,0.004104678210731053
281,281,0.015227324252996333,0.0,0,282.0,610.0,0.0,338.0,1,0.3424793301643214,0.004805303096297682
282,282,-0.5481068271744154,-0.5,1,333.0,831.0,1.0,376.0,1,0.07720308412766286,0.00352442903363274
283,283,0.6151988011881444,0.6,0,390.0,697.0,0.0,413.0,1,0.40330888564743417,0.00175275191410404
284,284,0.7518694991955461,0.8,0,263.0,918.0,0.0,229.0,1,0.3505072617496495,0.0016208614789801734
285,285,-0.7859738436638017,-0.8,1,443.0,668.0,1.0,289.0,1,0.5196109105077793,0.0015956533868184003
286,286,-0.6458715302654574,-0.6,1,408.0,767.0,1.0,285.0,1,0.1276405245788227,0.001995830170834009
287,287,0.4408222891606677,0.4,0,321.0,706.0,0.0,413.0,1,0.5552742042539226,0.0025169395079456887
288,288,-0.6901402289628662,-0.7,1,417.0,694.0,1.0,299.0,1,0.5232868607736716,0.0009763841614759039
289,289,0.9184687833464908,0.9,0,297.0,916.0,0.0,277.0,1,0.8512381897480363,0.0007749135154207398
290,290,-0.30797595680675705,-0.3,1,341.0,943.0,1.0,406.0,1,0.3338719588538185,0.00010856982351060085
291,291,0.40753412030247627,0.4,0,284.0,850.0,0.0,516.0,1,0.20428529481607216,0.001104917315282426
292,292,0.9607415157224397,1.0,0,296.0,797.0,0.0,207.0,1,0.7965622037692163,0.0022492418544034906
293,293,0.9280475125217766,0.9,0,388.0,732.0,0.0,310.0,1,0.6251815471691906,0.0020378688660131583
294,294,0.8675938557290894,0.9,0,336.0,509.0,0.0,385.0,1,0.2148093576301986,0.0014893234463001204
295,295,-0.7104702701827017,-0.7,1,286.0,941.0,1.0,553.0,1,0.627998044270942,0.0006546904831061295
296,296,-0.0832182812737885,-0.1,1,497.0,575.0,1.0,358.0,1,0.30317173257219576,0.004801425469473914
297,297,0.5085214791452963,0.5,0,456.0,533.0,0.0,341.0,1,0.5443336199670669,0.0006487688800242752
298,298,0.01014856434412148,0.0,0,256.0,809.0,1.0,925.0,0,0.9533336323559359,0.0008375132551098186
299,299,0.19825979155959939,0.2,0,275.0,887.0,0.0,528.0,1,0.14440798285934586,0.0007467290327183324
300,300,0.3197611324954195,0.3,0,299.0,785.0,0.0,346.0,1,0.9156184840781689,0.003430123648915307
301,301,0.5109298627888665,0.5,0,489.0,597.0,0.0,264.0,1,0.11444544780297572,0.0034410183876377506
302,302,-0.8920312428696342,-0.9,1,314.0,719.0,1.0,127.0,1,0.6759170579512478,0.003524652504122677
303,303,0.08906003960455844,0.1,0,361.0,813.0,1.0,526.0,0,0.5658638872567475,0.0012936073505552999
304,304,-0.1067104712038287,-0.1,1,350.0,587.0,1.0,533.0,1,0.9157464830661892,0.0005060335009290295
305,305,-0.5847394662369525,-0.6,1,321.0,982.0,1.0,247.0,1,0.6224472428659419,0.0033266075323318428
306,306,-0.38951643548637827,-0.4,1,298.0,755.0,1.0,337.0,1,0.19251799676378478,0.0016086213596995197
307,307,-0.48103603201630185,-0.5,1,277.0,650.0,1.0,353.0,1,0.12583538492587099,0.0011029257042010504
308,308,-0.09187692989378804,-0.1,1,489.0,806.0,1.0,405.0,1,0.5439063646227681,0.003885129648099484
309,309,-0.7477511843049438,-0.7,1,487.0,585.0,1.0,398.0,1,0.9866665351877967,0.00363483661758622
310,310,0.6535235170992082,0.7,0,263.0,734.0,0.0,303.0,1,0.9726204642906691,0.0013792691222674176
311,311,-0.2859616460507204,-0.3,1,314.0,697.0,1.0,439.0,1,0.42895727237190695,1.8468132925263946e-05
312,312,-0.9339733475559093,-0.9,1,443.0,793.0,1.0,334.0,1,0.4997710025693082,0.0034388643480381493
313,313,-0.8439297734996491,-0.8,1,420.0,995.0,1.0,445.0,1,0.4921026078856173,0.0028576927800172645
314,314,0.1691690348524706,0.2,0,464.0,769.0,1.0,727.0,0,0.10950986794708861,0.003564272970841393
315,315,0.12613416912977726,0.1,0,260.0,966.0,0.0,804.0,1,0.01831771388855563,0.0008340724375095293
316,316,0.8248402405908661,0.8,0,323.0,827.0,0.0,220.0,1,0.35556984908773626,0.0035987008470331756
317,317,-0.507564809304158,-0.5,1,451.0,967.0,1.0,542.0,1,0.3286695150317771,0.00045601098595121457
318,318,0.3417102056195882,0.3,0,340.0,764.0,0.0,656.0,1,0.297637882059265,0.0016522732203492353
319,319,0.10432969214256071,0.1,0,440.0,773.0,0.0,677.0,1,0.18381281074116185,0.00010725848055326726
320,320,-0.9435380191305358,-0.9,1,357.0,810.0,1.0,473.0,1,0.5973855342683515,0.0018087725174143255
321,321,0.7042815847134285,0.7,0,458.0,591.0,0.0,511.0,1,0.19999715640930615,0.0020009107219346282
322,322,0.09684720317897333,0.1,0,286.0,874.0,0.0,210.0,1,0.054128119039124734,0.00491047025226118
323,323,0.5282084386424848,0.5,0,395.0,828.0,0.0,307.0,1,0.3728866393938268,0.003324307965399677
324,324,0.9942528093434908,1.0,0,471.0,687.0,0.0,192.0,1,0.9959318361959957,0.0035592577502448954
325,325,-0.31362858833267593,-0.3,1,307.0,946.0,1.0,487.0,1,0.23483771812214427,0.003110400581176451
326,326,-0.46843562184891785,-0.5,1,357.0,821.0,1.0,312.0,1,0.4596631687947471,0.004325688492608881
327,327,-0.3545352745354964,-0.4,1,382.0,607.0,1.0,521.0,1,0.13805377082484094,0.003221393514261311
328,328,-0.02474580531763615,-0.0,1,250.0,565.0,1.0,535.0,1,0.9962735236400699,0.000144736550940473
329,329,-0.48941552047873094,-0.5,1,428.0,622.0,1.0,530.0,1,0.0018379543160473855,0.0015578556180360931
330,330,0.45354982336883,0.5,0,478.0,966.0,0.0,396.0,1,0.7975932806355542,0.0014828564650397375
331,331,-0.9317317640834542,-0.9,1,258.0,901.0,1.0,361.0,1,0.35066268574458626,0.002710432927128101
332,332,0.15952598772731652,0.2,0,274.0,513.0,0.0,503.0,1,0.9166686851389619,0.003004445238266302
333,333,0.1629471949906336,0.2,0,312.0,525.0,1.0,433.0,0,0.2766357600904997,0.002488495222988107
334,334,0.05761377736951134,0.1,0,296.0,765.0,1.0,279.0,0,0.6965088004435748,0.0036875730482497995
335,335,-0.2701230564591186,-0.3,1,453.0,793.0,1.0,384.0,1,0.8983134896116846,0.0028709223724828286
336,336,0.9225959540385411,0.9,0,412.0,936.0,0.0,192.0,1,0.6793143925248794,0.0018079694926097618
337,337,-0.12654683459482485,-0.1,1,381.0,631.0,1.0,348.0,1,0.4179829330244139,0.0013972564921609432
338,338,-0.997247081842981,-1.0,1,301.0,543.0,1.0,396.0,1,0.08560719154263352,0.001969327712954112
339,339,-0.07202116463840791,-0.1,1,283.0,781.0,1.0,336.0,1,0.6503124623180256,0.0049777168196148925
340,340,0.5104130448006396,0.5,0,409.0,641.0,0.0,420.0,1,0.740163109338941,0.0015419968417225006
341,341,-0.9082710610992126,-0.9,1,418.0,972.0,1.0,310.0,1,0.7825384691063728,0.004104913153637483
342,342,-0.8076098910783893,-0.8,1,420.0,916.0,1.0,224.0,1,0.7170001317732072,0.003903665650564049
343,343,0.4009208976873848,0.4,0,391.0,914.0,0.0,1115.0,1,0.02031153594315227,0.00010583633597995135
344,344,0.27189754733912963,0.3,0,361.0,652.0,0.0,457.0,1,0.14312773168964987,0.004859391356359024
345,345,-0.3285098177520569,-0.3,1,475.0,541.0,1.0,284.0,1,0.3722096216773897,0.002115484435506124
346,346,-0.07717627314641384,-0.1,1,292.0,896.0,1.0,532.0,1,0.7553798342548126,0.0028842841345582716
347,347,0.8818258092528246,0.9,0,327.0,778.0,0.0,355.0,1,0.6400891231819922,0.0021377102686699284
348,348,0.6269468863607408,0.6,0,407.0,686.0,0.0,427.0,1,0.12380081878267857,0.004763586166080777
349,349,0.34472846808630964,0.3,0,392.0,621.0,0.0,357.0,1,0.767544848396792,0.002706281431741029
350,350,0.7417250081681843,0.7,0,491.0,999.0,0.0,380.0,1,0.3568478624425149,0.0025984779776691094
351,351,-0.2741597905514581,-0.3,1,444.0,989.0,1.0,317.0,1,0.6158493386904291,0.004298123956937445
352,352,-0.09591431312132648,-0.1,1,419.0,618.0,1.0,393.0,1,0.9696343121015104,0.0010393632915681838
353,353,0.5933205754502917,0.6,0,309.0,562.0,0.0,369.0,1,0.8407739019326577,0.003709582376499785
354,354,0.37548717922779673,0.4,0,390.0,675.0,0.0,285.0,1,0.912094155340282,0.0006366749476567602
355,355,0.49755226955556764,0.5,0,324.0,880.0,0.0,586.0,1,0.33777451048398277,0.0024502193708721177
356,356,-0.8287647686968549,-0.8,1,287.0,567.0,1.0,266.0,1,0.9260458000311468,0.003097114731392769
357,357,0.9752379012934873,1.0,0,401.0,507.0,0.0,112.0,1,0.8852770308784198,0.00015253782304840258
358,358,-0.9194393306148265,-0.9,1,301.0,686.0,1.0,423.0,1,0.11529640796412433,0.0014331805701447498
359,359,0.25924270830534235,0.3,0,454.0,885.0,0.0,671.0,1,0.15239772907204308,0.001323660010547033
360,360,0.4607542338788304,0.5,0,283.0,987.0,0.0,730.0,1,0.20294690840363983,3.638787533862098e-05
361,361,-0.5000533609020827,-0.5,1,447.0,813.0,1.0,490.0,1,0.4051369322713999,0.00013711018905765315
362,362,0.1456750155097737,0.1,0,481.0,918.0,0.0,811.0,1,0.8440837836534534,0.0014342546270101925
363,363,0.7564176497698898,0.8,0,315.0,620.0,0.0,285.0,1,0.5892399501866674,0.0037243763102745753
364,364,-0.719200781769807,-0.7,1,407.0,657.0,1.0,276.0,1,0.9720024968224509,0.0045520670064292945
365,365,0.7758626736353089,0.8,0,254.0,900.0,0.0,276.0,1,0.8034853331844973,0.002589938158523811
366,366,0.014530403820181448,0.0,0,465.0,730.0,1.0,605.0,0,0.8403920053007226,0.0004340774367420214
367,367,0.3991219454385597,0.4,0,434.0,918.0,0.0,408.0,1,0.443558441982032,0.0021435903274622647
368,368,0.11979761590851679,0.1,0,483.0,996.0,1.0,461.0,0,0.0119770148353886,0.0021782071988058933
369,369,0.6533832271507074,0.7,0,408.0,538.0,0.0,484.0,1,0.6561435879899685,0.0012703269405949103
370,370,0.10167642936255494,0.1,0,372.0,723.0,0.0,315.0,1,0.5411498447884701,0.0023918395220317193
371,371,0.16486339971585218,0.2,0,343.0,926.0,0.0,591.0,1,0.970745422706286,0.0001154894718721311
372,372,-0.6997553047267357,-0.7,1,337.0,705.0,1.0,558.0,1,0.3115648082713558,0.0006843712205381896
373,373,-0.051868097270317604,-0.1,1,435.0,871.0,1.0,254.0,1,0.2844503456339156,0.0033969482906493994
374,374,0.5736528439017239,0.6,0,302.0,589.0,0.0,509.0,1,0.20583878267291844,0.0012159712789732353
375,375,-0.5850148137820126,-0.6,1,284.0,826.0,1.0,160.0,1,0.5451326858767287,0.003647228448571737
376,376,0.154265236979106,0.2,0,374.0,763.0,0.0,723.0,1,0.4771666482117096,0.0005257596540591387
377,377,-0.6034782743448939,-0.6,1,420.0,662.0,1.0,558.0,1,0.7031045773857492,0.00018867691872965055
378,378,0.2109380683580131,0.2,0,354.0,870.0,0.0,676.0,1,0.43579482029145433,0.000957048948070856
379,379,-0.3344249470643694,-0.3,1,418.0,546.0,1.0,396.0,1,0.41067699956654224,0.0003974985063391756
380,380,-0.24318563490354483,-0.2,1,461.0,581.0,1.0,238.0,1,0.35311754300048415,0.00427249193067244
381,381,0.4165580092137171,0.4,0,310.0,962.0,0.0,378.0,1,0.8874648623337106,0.001978815655462529
382,382,0.10942533026906442,0.1,0,254.0,602.0,0.0,1044.0,1,0.2926748265528133,0.00011708822157425081
383,383,-0.7560524090277461,-0.8,1,352.0,711.0,1.0,427.0,1,0.6786939226326769,0.003986966484120826
384,384,-0.8820087209264316,-0.9,1,395.0,935.0,1.0,550.0,1,0.4440263736433776,0.003027163221620444
385,385,0.3079173366026817,0.3,0,493.0,682.0,0.0,435.0,1,0.986159644803862,0.001138147928713768
386,386,-0.6760677281069214,-0.7,1,413.0,772.0,1.0,345.0,1,0.9024421880515081,0.0017744920919416035
387,387,0.1258628236058188,0.1,0,332.0,603.0,0.0,755.0,1,0.7510211348293339,0.001085928628927595
388,388,0.13376748413244632,0.1,0,251.0,885.0,0.0,174.0,1,0.7521130397920479,0.004993406830494093
389,389,0.09156074408742154,0.1,0,465.0,918.0,0.0,907.0,1,0.5646587519737905,0.004471697977512043
390,390,-0.40617340751243236,-0.4,1,310.0,597.0,1.0,333.0,1,0.6829283692803324,0.004368153142962054
391,391,0.13894461506854983,0.1,0,400.0,976.0,0.0,714.0,1,0.02949497838316395,0.0014486369325284532
392,392,-0.7143583433486393,-0.7,1,429.0,933.0,1.0,278.0,1,0.22937002627299619,0.0016545936083881935
393,393,0.1871222608701184,0.2,0,266.0,736.0,1.0,278.0,0,0.6690921518599944,0.0009685792042255603
394,394,0.004453810025725868,0.0,0,450.0,511.0,1.0,499.0,0,0.6971473449231463,0.00499771064824489
395,395,0.08138577523745072,0.1,0,278.0,854.0,1.0,428.0,0,0.15111727627096727,0.0023165516716818295
396,396,0.02869677220611999,0.0,0,307.0,944.0,1.0,589.0,0,0.21140555739724987,0.0039035019346507945
397,397,-0.29809766883569777,-0.3,1,271.0,538.0,1.0,271.0,1,0.44163278996505073,0.004819929161636911
398,398,-0.628897170279543,-0.6,1,283.0,532.0,1.0,155.0,1,0.5082355599577806,0.003034552560578206
399,399,-0.34968338191550674,-0.3,1,274.0,683.0,1.0,353.0,1,0.7785185615040232,0.0005173458361637245
400,400,0.24448104045278218,0.2,0,474.0,734.0,0.0,312.0,1,0.4172908332691161,0.0031446600379901337
401,401,0.505837077305773,0.5,0,430.0,872.0,0.0,378.0,1,0.07129444130011775,0.004153031683267243
402,402,-0.9009959647292363,-0.9,1,302.0,690.0,1.0,398.0,1,0.35408217237160033,0.0010765554194604383
403,403,0.7182162122205262,0.7,0,437.0,974.0,0.0,279.0,1,0.4639724297134291,0.0037963984011504717
404,404,-0.2768963268350373,-0.3,1,254.0,846.0,1.0,660.0,1,0.9658984407211828,0.00046595801289191777
405,405,0.8339868471976732,0.8,0,283.0,595.0,0.0,322.0,1,0.15365860039975954,0.0049286260535973125
406,406,-0.7099349825519214,-0.7,1,320.0,834.0,1.0,596.0,1,0.47669763300906975,0.00011176511966115577
407,407,-0.8377299949847914,-0.8,1,378.0,834.0,1.0,228.0,1,0.5921891427524059,0.004014030977311207
408,408,-0.20782683013552594,-0.2,1,465.0,538.0,1.0,257.0,1,0.3194884872801165,0.004283513107195121
409,409,-0.8925732107529707,-0.9,1,497.0,584.0,1.0,329.0,1,0.6970316166341216,0.0010696813800750882
410,410,0.02320131380536461,0.0,0,430.0,814.0,1.0,276.0,0,0.9550141939713184,0.004240674462755155
411,411,-0.7543764886066231,-0.8,1,479.0,517.0,1.0,414.0,1,0.42143588204621674,0.0011418330460271182
412,412,-0.5893021625929402,-0.6,1,386.0,513.0,1.0,191.0,1,0.7127470871863467,0.002215967323943101
413,413,-0.6996875242775196,-0.7,1,388.0,957.0,1.0,145.0,1,0.679981367803343,0.0017433570334499983
414,414,0.07597329622886684,0.1,0,440.0,776.0,1.0,534.0,0,0.4120810256141637,0.0007144794629023471
415,415,-0.5340159957005419,-0.5,1,456.0,641.0,1.0,383.0,1,0.9085267441902262,0.00404270797971117
416,416,-0.3424735364243714,-0.3,1,260.0,572.0,1.0,248.0,1,0.5709171193446768,0.004174166756463938
417,417,-0.3862061237997547,-0.4,1,263.0,525.0,1.0,632.0,1,0.31140659649393465,0.002073778259204402
418,418,0.9803558643040797,1.0,0,352.0,988.0,0.0,380.0,1,0.8171797376924176,0.0008725692873678226
419,419,-0.39355582683465884,-0.4,1,330.0,711.0,1.0,399.0,1,0.42882812100582834,0.0006077321732891489
420,420,-0.448354726320235,-0.4,1,412.0,694.0,1.0,944.0,1,0.2919438458993273,0.0004918397730531482
421,421,-0.5008145931289005,-0.5,1,329.0,787.0,1.0,284.0,1,0.32792207327412304,0.003372869178672621
422,422,-0.38685861278830824,-0.4,1,253.0,799.0,1.0,368.0,1,0.47958532609006344,0.0047931602106873385
423,423,0.26782277841836843,0.3,0,475.0,742.0,0.0,503.0,1,0.7414767187241904,0.0035062224721977204
424,424,0.7953768372278391,0.8,0,358.0,746.0,0.0,246.0,1,0.9460613797382501,0.003980888652110532
425,425,-0.22978769130125642,-0.2,1,371.0,896.0,1.0,293.0,1,0.19357370576840116,0.004897249284627526
426,426,0.13215017842408439,0.1,0,475.0,610.0,0.0,415.0,1,0.9887122890314334,0.004179059140948536
427,427,0.6831960950710105,0.7,0,256.0,699.0,0.0,475.0,1,0.37733933783195606,0.0028967983554051275
428,428,-0.8560896249488847,-0.9,1,296.0,632.0,1.0,502.0,1,0.25280212313934103,0.002406263823798277
429,429,0.8050052527951703,0.8,0,448.0,890.0,0.0,332.0,1,0.513808020822833,0.00027647592804038167
430,430,0.5417074925523575,0.5,0,436.0,858.0,0.0,306.0,1,0.5414214500690521,0.003080396132239934
431,431,-0.1393959602945174,-0.1,1,433.0,603.0,1.0,514.0,1,0.7272019382347218,0.0013883359114534794
432,432,-0.8921721603916375,-0.9,1,257.0,804.0,1.0,319.0,1,0.4296643592926517,0.0022247496704209733
433,433,0.713138866878217,0.7,0,281.0,678.0,0.0,331.0,1,0.33362280787074605,0.002355512965725722
434,434,0.1450131721687955,0.1,0,398.0,873.0,1.0,1299.0,0,0.3576852414630939,0.002227384410606852
435,435,-0.5884593340429911,-0.6,1,360.0,705.0,1.0,275.0,1,0.35880617212475974,0.0036126088459239466
436,436,0.37929699796662897,0.4,0,276.0,651.0,0.0,403.0,1,0.582637415028004,0.004266325345750266
437,437,-0.6023527256101644,-0.6,1,369.0,995.0,1.0,446.0,1,0.7033689938297045,0.0003992567197443864
438,438,-0.5970615303965541,-0.6,1,300.0,946.0,1.0,304.0,1,0.7007285181792109,0.0044216164977610144
439,439,-0.9253650854789708,-0.9,1,391.0,874.0,1.0,575.0,1,0.9875506129518064,0.000318164370757536
440,440,0.528012770523471,0.5,0,462.0,997.0,0.0,331.0,1,0.184006607380914,0.0029487332637529395
441,441,0.38061949807854156,0.4,0,444.0,951.0,0.0,675.0,1,0.6255441281169519,0.0017859106293318828
442,442,-0.4887744370111684,-0.5,1,469.0,792.0,1.0,619.0,1,0.764748321615303,0.00241999695578779
443,443,-0.6687633416140002,-0.7,1,350.0,787.0,1.0,323.0,1,0.7404083328571356,0.0023400287875789206
444,444,-0.16233536762847023,-0.2,1,266.0,987.0,1.0,1007.0,1,0.179080500107212,9.124620522263927e-06
445,445,0.7598629038596969,0.8,0,395.0,606.0,0.0,419.0,1,0.22103464633746528,0.001817964823209362
446,446,0.8924831153695776,0.9,0,453.0,949.0,0.0,298.0,1,0.6349153493060485,0.004273454471593308
447,447,0.04320487881972901,0.0,0,438.0,749.0,1.0,783.0,0,0.5293082803038816,0.0002155067954057782
448,448,0.033638941670629086,0.0,0,352.0,887.0,0.0,301.0,1,0.25176794760272914,0.003611835860343709
449,449,-0.50862892186935,-0.5,1,317.0,734.0,1.0,379.0,1,0.3337167686668706,0.001400779108987163
450,450,0.9574770410178444,1.0,0,425.0,849.0,0.0,246.0,1,0.5784185013695806,0.004584639216732333
451,451,0.174204088379599,0.2,0,487.0,821.0,1.0,382.0,0,0.8184894090481615,0.00341596213438022
452,452,-0.1569654242214229,-0.2,1,418.0,689.0,1.0,513.0,1,0.28255071451546687,0.004071302217954432
453,453,0.8952386449456939,0.9,0,251.0,614.0,0.0,305.0,1,0.14710824223056196,0.0020642184693029186
454,454,-0.2884859678136533,-0.3,1,341.0,629.0,1.0,580.0,1,0.2765516529442229,0.0028200692730483605
455,455,-0.3003973491739249,-0.3,1,385.0,853.0,1.0,482.0,1,0.4765343168709161,0.00046667377064191494
456,456,-0.6978880277574533,-0.7,1,270.0,916.0,1.0,434.0,1,0.4383069296240234,0.003236047256232703
457,457,0.7066840783379194,0.7,0,398.0,515.0,0.0,297.0,1,0.8654343903606854,0.0020543800538042867
458,458,-0.33613644551043054,-0.3,1,392.0,757.0,1.0,691.0,1,0.8754252900306896,0.00019157471599503707
459,459,0.3842873771633817,0.4,0,296.0,811.0,0.0,363.0,1,0.27544233982960176,0.003435713831171821
460,460,-0.3255495515818949,-0.3,1,408.0,838.0,1.0,164.0,1,0.7582695520156651,0.002247834072288835
461,461,-0.9433609478736853,-0.9,1,377.0,827.0,1.0,256.0,1,0.45867942735854317,0.00409484937079571
462,462,-0.52167374434988,-0.5,1,465.0,812.0,1.0,533.0,1,0.042458732388557574,0.0026602988632953334
463,463,-0.09728261086429213,-0.1,1,289.0,838.0,1.0,693.0,1,0.8001375348779551,0.0032368212270223913
464,464,0.5785913247361998,0.6,0,442.0,521.0,0.0,307.0,1,0.8953969988567588,6.191598810538879e-05
465,465,0.054766789684520534,0.1,0,410.0,561.0,1.0,319.0,0,0.6297179048581949,0.0020012689068601604
466,466,-0.9662908438696145,-1.0,1,305.0,761.0,1.0,304.0,1,0.8974332790204896,0.0014185995711651733
467,467,0.4808962881729888,0.5,0,393.0,812.0,0.0,435.0,1,0.4731639534739961,0.0025904314255174865
468,468,-0.8715049121624867,-0.9,1,413.0,951.0,1.0,296.0,1,0.20642257567191769,0.003955617376392088
469,469,-0.7194178845435837,-0.7,1,410.0,646.0,1.0,404.0,1,0.21544762966663178,0.004243502605110289
470,470,-0.6067687742906778,-0.6,1,325.0,927.0,1.0,448.0,1,0.4718260987018945,0.002095917954179785
471,471,-0.7876189226671566,-0.8,1,334.0,647.0,1.0,339.0,1,0.6450677679048793,0.0005567182643516944
472,472,-0.5225295747587169,-0.5,1,476.0,782.0,1.0,662.0,1,0.1669746060811793,0.0012662101818590803
473,473,0.0813851590329937,0.1,0,293.0,626.0,0.0,721.0,1,0.8064678286451488,0.001246862338580812
474,474,0.5583100559948184,0.6,0,262.0,842.0,0.0,536.0,1,0.44387626825464355,0.0015561602501115886
475,475,-0.4715071393575041,-0.5,1,462.0,928.0,1.0,430.0,1,0.6043112710167674,0.00401292179463162
476,476,0.6961497250188868,0.7,0,496.0,556.0,0.0,438.0,1,0.787613985466065,0.0003935090611836239
477,477,0.0938427920895184,0.1,0,347.0,674.0,0.0,409.0,1,0.04857392666759841,0.0016980755447688946
478,478,0.7368710472952262,0.7,0,423.0,942.0,0.0,335.0,1,0.9602620328951391,0.003994136322723659
479,479,0.11199312183941834,0.1,0,366.0,592.0,0.0,542.0,1,0.4660108887012441,0.0010526177006120912
480,480,0.7471432085497607,0.7,0,433.0,896.0,0.0,371.0,1,0.13293905922319427,0.002145291327088903
481,481,0.7545847880552821,0.8,0,429.0,590.0,0.0,251.0,1,0.7361751057380661,0.002890229216262785
482,482,0.9852819496848999,1.0,0,494.0,890.0,0.0,226.0,1,0.9260985894499096,0.004794710088993594
483,483,0.5938472465963711,0.6,0,268.0,508.0,0.0,244.0,1,0.5193171682475751,0.0010316079792113846
484,484,-0.5184220559407893,-0.5,1,337.0,548.0,1.0,495.0,1,0.181818884017091,0.0018043695521342662
485,485,-0.136298577207433,-0.1,1,272.0,557.0,1.0,501.0,1,0.9839327088015308,0.0005209606403697825
486,486,-0.4759257158479713,-0.5,1,464.0,931.0,1.0,595.0,1,0.6141412648864167,0.00033393572477990075
487,487,0.8885715731615353,0.9,0,362.0,751.0,0.0,267.0,1,0.3177706450451868,0.0012711653020413916
488,488,0.19281970689860062,0.2,0,433.0,554.0,0.0,43.0,1,0.778213229022614,0.004955608143025862
489,489,0.7009496167947373,0.7,0,326.0,892.0,0.0,352.0,1,0.4860759743354387,0.002629307216529673
490,490,-0.98921803047495,-1.0,1,303.0,557.0,1.0,290.0,1,0.5651774006905034,0.0012585970414155851
491,491,-0.06299857372862183,-0.1,1,310.0,812.0,1.0,368.0,1,0.7745150734952602,0.0012915369126171982
492,492,-0.1104378172006466,-0.1,1,375.0,533.0,1.0,302.0,1,0.8134204674553587,0.0011105512088902991
493,493,0.9150520404791291,0.9,0,412.0,549.0,0.0,459.0,1,0.4267234414273081,0.00010372400144266214
494,494,0.9288795376667287,0.9,0,425.0,840.0,0.0,445.0,1,0.25372402577958164,0.0031858968999949173
495,495,-0.13129882888930688,-0.1,1,357.0,600.0,0.0,283.0,0,0.7283074355653159,0.0035175376622985422
496,496,-0.09659825777144593,-0.1,1,272.0,982.0,1.0,726.0,1,0.908586220673519,0.004599741931412198
497,497,0.540449039558305,0.5,0,274.0,824.0,0.0,242.0,1,0.7821648697117812,0.0018809979087602191
498,498,0.9095186148266285,0.9,0,483.0,785.0,0.0,582.0,1,0.5969076971284264,0.003035141176832511
499,499,-0.9611570763392745,-1.0,1,255.0,955.0,1.0,350.0,1,0.03602829492388249,0.004246229048494007
500,500,0.557692880457713,0.6,0,499.0,721.0,0.0,430.0,1,0.28280228817361186,0.004061670515647062
501,501,-0.6697526973037042,-0.7,1,310.0,521.0,1.0,319.0,1,0.44247907132480346,0.0037441800964256415
502,502,-0.21083940250904898,-0.2,1,495.0,856.0,1.0,679.0,1,0.32195780895818904,0.0003796127244189629
503,503,-0.4112872097160001,-0.4,1,473.0,891.0,1.0,586.0,1,0.7502361505088426,0.0014474237296365332
504,504,-0.8287404133628697,-0.8,1,294.0,671.0,1.0,295.0,1,0.5280528624149808,0.0042219234860529
505,505,0.052654670614108445,0.1,0,344.0,869.0,0.0,1777.0,1,0.9203617612241733,0.0021205343694009567
506,506,0.8809013770887877,0.9,0,319.0,868.0,0.0,283.0,1,0.8258001809004718,0.004981603620098581
507,507,-0.33539019171317297,-0.3,1,331.0,580.0,1.0,479.0,1,0.20751294594229575,0.004138593578409674
508,508,0.8048762719614151,0.8,0,327.0,680.0,0.0,253.0,1,0.30100314542618556,0.001135422640482522
509,509,-0.3600869550838519,-0.4,1,388.0,673.0,1.0,559.0,1,0.8690712146772239,0.0026573978743625873
510,510,0.37027610812889633,0.4,0,343.0,764.0,0.0,423.0,1,0.21996751163582517,0.00213167509147136
511,511,-0.4802036318182994,-0.5,1,292.0,506.0,1.0,472.0,1,0.12093968168580593,0.0006329022368591142
512,512,0.6898086955691167,0.7,0,327.0,864.0,0.0,319.0,1,0.9895872516118585,0.004169869739133811
513,513,0.876690314839472,0.9,0,397.0,930.0,0.0,423.0,1,0.13131933774415594,0.002696747016507856
514,514,-0.6122086967994249,-0.6,1,326.0,838.0,1.0,506.0,1,0.07634822188772483,0.0035091238452806084
515,515,0.2446363067544164,0.2,0,387.0,729.0,0.0,554.0,1,0.2893684960909133,0.0009380270116322309
516,516,-0.3060758723223689,-0.3,1,419.0,569.0,1.0,372.0,1,0.9524922294486525,0.004860732277094761
517,517,0.3802958645912218,0.4,0,266.0,735.0,0.0,649.0,1,0.3586900666564947,0.0008902720227691513
518,518,-0.7567175508609536,-0.8,1,445.0,765.0,1.0,270.0,1,0.9626147652790613,0.0021687425429091915
519,519,-0.7366324673256635,-0.7,1,415.0,640.0,1.0,395.0,1,0.6060950934843725,0.0037735171291423853
520,520,0.6497911622947636,0.6,0,299.0,882.0,0.0,479.0,1,0.5176198682841919,0.0022146091854379664
521,521,0.5368376736732732,0.5,0,476.0,952.0,0.0,372.0,1,0.5375455782275631,0.0037810685937693864
522,522,-0.17409368403211944,-0.2,1,422.0,501.0,1.0,777.0,1,0.35525559212788616,0.0034748218068863484
523,523,-0.9681917059066627,-1.0,1,417.0,940.0,1.0,383.0,1,0.5992390852317839,0.002854230551866395
524,524,-0.6298575865569789,-0.6,1,344.0,709.0,1.0,367.0,1,0.4276088424032952,0.0023151684256728917
525,525,-0.21427233484541697,-0.2,1,299.0,746.0,1.0,245.0,1,0.5156491444963596,0.0005742158856701035
526,526,-0.4775879619122212,-0.5,1,256.0,711.0,1.0,343.0,1,0.019123237058086273,0.0008606364699197505
527,527,-0.9064732680651395,-0.9,1,412.0,726.0,1.0,462.0,1,0.07487375663468854,0.0021300524431472337
528,528,0.28206652330895876,0.3,0,408.0,525.0,0.0,487.0,1,0.11368907993439259,0.003645314787226617
529,529,-0.9599325161428516,-1.0,1,436.0,656.0,1.0,238.0,1,0.5340535304939997,0.004804936325096686
530,530,-0.25725621028409096,-0.3,1,446.0,788.0,1.0,726.0,1,0.4135525298529066,0.0006928188965548365
531,531,0.7964001946425969,0.8,0,324.0,925.0,0.0,841.0,1,0.9993554837919769,0.00475545546711539
532,532,-0.8490324864067949,-0.8,1,427.0,968.0,1.0,555.0,1,0.4196831075404718,0.001319783113460492
533,533,0.5579242962764723,0.6,0,271.0,904.0,0.0,275.0,1,0.7849149473527995,0.0018818269639576091
534,534,0.3383939948984145,0.3,0,354.0,908.0,0.0,708.0,1,0.4838787207489005,0.0011875785105921483
535,535,0.09740467192962243,0.1,0,252.0,993.0,1.0,625.0,0,0.16793493618668776,0.0027622880737977764
536,536,0.2205605061493845,0.2,0,445.0,606.0,0.0,479.0,1,0.6274917658772274,0.0019103792245746183
537,537,0.6600300526678078,0.7,0,404.0,607.0,0.0,469.0,1,0.9620981693091396,0.0004598346291407174
538,538,0.33486728953447864,0.3,0,360.0,859.0,0.0,361.0,1,0.7076922436137212,0.0016522751280674335
539,539,0.9845524421315393,1.0,0,345.0,945.0,0.0,280.0,1,0.974749313130219,0.004277642643146633
540,540,-0.764542277338055,-0.8,1,435.0,694.0,1.0,311.0,1,0.5217756232297429,0.003710125316472797
541,541,0.9684449081905442,1.0,0,449.0,776.0,0.0,255.0,1,0.5191584102951862,0.003963275340523764
542,542,0.3665575026001464,0.4,0,361.0,822.0,0.0,327.0,1,0.09307953596592411,0.0032045749858760904
543,543,0.70041953323177,0.7,0,362.0,772.0,0.0,346.0,1,0.41524082628961767,0.0021181938165879904
544,544,0.501677485007284,0.5,0,337.0,885.0,0.0,748.0,1,0.21792519305767277,0.004200362611422353
545,545,0.2011671458165103,0.2,0,469.0,597.0,0.0,524.0,1,0.47028274688449045,0.0017985592454231919
546,546,-0.9735995441144762,-1.0,1,332.0,750.0,1.0,308.0,1,0.5655738599209531,0.002739299891307481
547,547,0.5611948144170955,0.6,0,326.0,782.0,0.0,342.0,1,0.2779560155184442,0.0047596369827060045
548,548,-0.07810841924298217,-0.1,1,443.0,606.0,1.0,301.0,1,0.4134818360783793,0.0033290745467927517
549,549,-0.6493233530399547,-0.6,1,275.0,524.0,1.0,271.0,1,0.3349984040153241,0.0006936085472607128
550,550,0.8166426727890672,0.8,0,253.0,818.0,0.0,379.0,1,0.10297856959949925,0.0039993841484235945
551,551,-0.8144692353931846,-0.8,1,349.0,517.0,1.0,244.0,1,0.9336113632085589,0.003022801509644693
552,552,-0.5624773640147647,-0.6,1,283.0,847.0,0.0,-810.0,0,0.9817422559771369,0.00030920947620996953
553,553,-0.5582659405233443,-0.6,1,399.0,852.0,1.0,909.0,1,0.6970021624743956,0.0012783623373024734
554,554,-0.1288966137147578,-0.1,1,310.0,634.0,1.0,276.0,1,0.722646501603397,0.004463072995185552
555,555,0.8611370513083068,0.9,0,312.0,990.0,0.0,438.0,1,0.604314310751223,8.145248321307585e-05
556,556,-0.1911910653567206,-0.2,1,283.0,685.0,1.0,222.0,1,0.5690558657746088,0.004816756735954148
557,557,0.5736682644101747,0.6,0,257.0,502.0,0.0,171.0,1,0.39284179537893016,0.0036410511202918604
558,558,-0.015148597282530929,-0.0,1,265.0,527.0,1.0,188.0,1,0.36574719047564497,0.0033085188048430224
559,559,-0.07898650513244099,-0.1,1,396.0,505.0,1.0,519.0,1,0.14765293701861248,0.0030816236722217122
560,560,0.646161791734227,0.6,0,273.0,857.0,0.0,330.0,1,0.4923077928498788,0.0017942330132505258
561,561,-0.4624487655302689,-0.5,1,326.0,617.0,1.0,377.0,1,0.36331698861326955,0.0005668698844277448
562,562,0.6585675070126518,0.7,0,490.0,988.0,0.0,282.0,1,0.6940889769309907,0.002444765870310866
563,563,-0.4949190627793538,-0.5,1,326.0,513.0,1.0,271.0,1,0.34775336012267644,0.004964298860183263
564,564,0.10709563688938162,0.1,0,493.0,581.0,0.0,456.0,1,0.40506665183830004,0.001433132125080826
565,565,0.21674223545747595,0.2,0,417.0,760.0,0.0,393.0,1,0.02019779389670784,0.0018528479531571835
566,566,0.4446265422107696,0.4,0,270.0,868.0,1.0,332.0,0,0.09797285096746466,0.00385253057530871
567,567,0.8787307543847198,0.9,0,361.0,761.0,0.0,378.0,1,0.32522070770660405,0.0036784335810127865
568,568,-0.573794139758198,-0.6,1,416.0,746.0,1.0,408.0,1,0.1690898144681311,0.001411302973467633
569,569,-0.8095503513463778,-0.8,1,422.0,632.0,1.0,536.0,1,0.4935103049592454,0.001190010572309082
570,570,0.944587720449144,0.9,0,257.0,666.0,0.0,167.0,1,0.41658526656817607,0.004913929390120146
571,571,0.5101622839079425,0.5,0,353.0,649.0,0.0,378.0,1,0.7585941904747789,0.0001425977012517654
572,572,0.27629094103965657,0.3,0,481.0,782.0,0.0,477.0,1,0.21572710065093958,0.00015606582826908523
573,573,0.6366674381408848,0.6,0,410.0,816.0,0.0,324.0,1,0.267182587099668,0.0031532945119393204
574,574,-0.11810224527364466,-0.1,1,387.0,863.0,1.0,760.0,1,0.14188726863104617,0.00041716144076739517
575,575,-0.4239482934791412,-0.4,1,433.0,620.0,1.0,187.0,1,0.5971145625069234,0.004542633923719468
576,576,0.9833476409056601,1.0,0,455.0,588.0,0.0,257.0,1,0.010368851199565543,0.004977105891640027
577,577,-0.7481944974795114,-0.7,1,468.0,592.0,1.0,330.0,1,0.4350221072397378,0.002918707959541865
578,578,-0.4690883441448639,-0.5,1,442.0,975.0,1.0,353.0,1,0.6024768595359011,0.003920524727319481
579,579,-0.17875801311984296,-0.2,1,336.0,812.0,1.0,362.0,1,0.08818069795066918,0.004519385808535793
580,580,0.10501804434042006,0.1,0,413.0,995.0,0.0,382.0,1,0.7808718544945665,0.0034794161267913824
581,581,0.2712242064707491,0.3,0,498.0,942.0,0.0,500.0,1,0.08735500890007009,0.0013890691604155746
582,582,0.5546171866249756,0.6,0,303.0,877.0,0.0,550.0,1,0.6271304539159277,0.0010204288836756753
583,583,0.12074848102448366,0.1,0,326.0,517.0,0.0,457.0,1,0.4725305456595942,0.0013726663332014643
584,584,0.15982657458302008,0.2,0,374.0,548.0,0.0,738.0,1,0.5637605751665696,0.0015773557583346038
585,585,0.913349709380681,0.9,0,412.0,586.0,0.0,452.0,1,0.3254742080524141,0.004960035025915578
586,586,-0.9697351181366383,-1.0,1,285.0,637.0,1.0,238.0,1,0.8516823520439271,0.0020966467844158875
587,587,0.5297717977982537,0.5,0,398.0,837.0,0.0,535.0,1,0.6104024030711032,0.001477555823650305
588,588,-0.5455534739540056,-0.5,1,497.0,627.0,1.0,396.0,1,0.3826648375305711,0.0014829662615635025
589,589,0.1701414153052463,0.2,0,261.0,741.0,0.0,728.0,1,0.9592043863763655,0.0025051992375639594
590,590,0.4015801173749409,0.4,0,271.0,885.0,0.0,334.0,1,0.8886081650573088,0.004182106607518348
591,591,-0.33888297543336376,-0.3,1,266.0,759.0,1.0,405.0,1,0.14848768789049427,0.002266682217836981
592,592,0.4451289275228625,0.4,0,344.0,527.0,0.0,369.0,1,0.6858010097983261,0.003369341988569345
593,593,0.42828124982269533,0.4,0,385.0,557.0,0.0,298.0,1,0.2511676305865084,0.004915778503541441
594,594,0.31880997631683594,0.3,0,281.0,608.0,0.0,291.0,1,0.6247932746168867,0.0029874521392290227
595,595,0.7857168028518775,0.8,0,367.0,557.0,0.0,336.0,1,0.7431463415734942,0.0014070615684300264
596,596,-0.8964606739609664,-0.9,1,315.0,618.0,1.0,417.0,1,0.10819868223678653,0.004734935815937858
597,597,0.3530344191150445,0.4,0,438.0,713.0,0.0,409.0,1,0.4622556499766709,0.001556583548566557
598,598,0.3494340568009704,0.3,0,404.0,587.0,0.0,379.0,1,0.8253773903016058,0.0029682886877871214
599,599,0.9775834979406071,1.0,0,388.0,635.0,0.0,287.0,1,0.9775768474391048,0.004956517452564467
600,600,0.9369368298185377,0.9,0,368.0,660.0,0.0,262.0,1,0.34352148727913157,0.0026797170038955777
601,601,0.45908913031522247,0.5,0,306.0,800.0,0.0,144.0,1,0.14364856564800288,0.004651864709066724
602,602,-0.12400188113796107,-0.1,1,357.0,966.0,1.0,427.0,1,0.330784013180752,0.003416267564927875
603,603,0.7689198043173495,0.8,0,365.0,822.0,0.0,293.0,1,0.11562738463809985,0.0013631819901468395
604,604,0.8349454115865098,0.8,0,382.0,954.0,0.0,474.0,1,0.397064939934907,0.0018020203249988493
605,605,0.7044780519925393,0.7,0,311.0,643.0,0.0,226.0,1,0.27611354507923347,0.004500610973823106
606,606,0.5448784696480875,0.5,0,274.0,620.0,0.0,356.0,1,0.25487624443652224,0.002061453638190132
607,607,0.7813532702359307,0.8,0,257.0,886.0,0.0,277.0,1,0.12612133257380953,0.003935693149665893
608,608,-0.7430943700894985,-0.7,1,273.0,859.0,1.0,318.0,1,0.010972890397182189,0.004240922975418087
609,609,0.6028279370598373,0.6,0,433.0,654.0,0.0,283.0,1,0.96881938347754,0.0022646333447266975
610,610,0.376360638009376,0.4,0,342.0,624.0,1.0,314.0,0,0.7737595367806368,0.00465057969187828
611,611,-0.6438278017101156,-0.6,1,342.0,509.0,1.0,499.0,1,0.21794962019523523,0.0006127490116587403
612,612,-0.9496680103669013,-0.9,1,440.0,710.0,1.0,470.0,1,0.06779208630838751,0.00034597875128702493
613,613,0.283094293915771,0.3,0,469.0,698.0,0.0,483.0,1,0.26333677281813916,0.0016474834194071398
614,614,-0.08066118931179345,-0.1,1,440.0,980.0,0.0,720.0,0,0.02088404537282429,0.0026245830619068427
615,615,-0.024792106909460543,-0.0,1,448.0,517.0,1.0,265.0,1,0.8417392975725166,0.0018970764323073474
616,616,0.7869570991431232,0.8,0,271.0,575.0,0.0,284.0,1,0.2145036566543087,0.0048813488617532284
617,617,-0.3617033567021293,-0.4,1,449.0,914.0,1.0,197.0,1,0.1318145260499769,0.0032057425698083183
618,618,-0.6402310922611325,-0.6,1,459.0,745.0,1.0,556.0,1,0.5664948431449373,0.0007983284189545059
619,619,0.5059773387983906,0.5,0,469.0,509.0,0.0,392.0,1,0.29737538985894296,0.0019527130079577098
620,620,0.551664589891381,0.6,0,369.0,698.0,0.0,523.0,1,0.040302348085494266,0.0007500415544987344
621,621,-0.2771493828094562,-0.3,1,307.0,961.0,1.0,-1248.0,1,0.29079945303848953,0.001807847673999724
622,622,0.0987188328511035,0.1,0,455.0,681.0,0.0,864.0,1,0.4229155354580181,0.0007710958743007423
623,623,0.40094527183543915,0.4,0,370.0,678.0,0.0,592.0,1,0.730425187860011,0.0005868098480870638
624,624,0.6434375567705721,0.6,0,355.0,610.0,0.0,305.0,1,0.12623936568888305,0.00284396621808231
625,625,0.7293335943537542,0.7,0,260.0,836.0,0.0,304.0,1,0.3443397298022234,0.0048036923753446694
626,626,-0.3455821262511978,-0.3,1,285.0,764.0,1.0,431.0,1,0.46087447634812684,0.0028177701830533943
627,627,-0.4692803019257672,-0.5,1,417.0,849.0,1.0,344.0,1,0.8061258151613997,0.00015016733721292863
628,628,0.5464110464594305,0.5,0,269.0,879.0,0.0,262.0,1,0.048181236620623236,0.004573564720884273
629,629,0.12709949110071417,0.1,0,258.0,904.0,0.0,438.0,1,0.630273390130599,0.0047822193470150355
630,630,-0.6807633236312469,-0.7,1,303.0,698.0,1.0,639.0,1,0.1925542468414011,0.0014855548335786328
631,631,-0.06017526727885092,-0.1,1,382.0,839.0,0.0,529.0,0,0.06383127630382968,0.0038115596206318232
632,632,0.597572283448617,0.6,0,433.0,672.0,0.0,425.0,1,0.03624626172845613,0.001117957603896823
633,633,-0.1277305137810396,-0.1,1,450.0,923.0,1.0,307.0,1,0.055096564501815326,0.004820774177496246
634,634,-0.9085500541339879,-0.9,1,361.0,519.0,1.0,220.0,1,0.8205736892045651,0.0037415218226548677
635,635,-0.5197200379411271,-0.5,1,322.0,846.0,1.0,442.0,1,0.9892601486214834,0.002896049621970493
636,636,-0.7360738167387015,-0.7,1,410.0,768.0,1.0,492.0,1,0.5489986749923668,0.0009313715900038988
637,637,-0.9636475601074894,-1.0,1,341.0,820.0,1.0,279.0,1,0.12773417236169538,0.0033659963257548554
638,638,0.09125102154021647,0.1,0,364.0,712.0,1.0,254.0,0,0.8886274303217826,0.003357911188998045
639,639,-0.12342976174452258,-0.1,1,303.0,817.0,1.0,780.0,1,0.3724532255737,3.957391777167918e-05
640,640,0.8141847134136857,0.8,0,368.0,871.0,0.0,371.0,1,0.8925695461612905,0.002360267697338699
641,641,-0.928522917353723,-0.9,1,283.0,522.0,1.0,245.0,1,0.6946358047568958,0.001003065244004357
642,642,0.5481018394363579,0.5,0,252.0,514.0,0.0,394.0,1,0.6514959120729097,0.004170566220568351
643,643,-0.6042253003703317,-0.6,1,366.0,521.0,1.0,303.0,1,0.33865442597439743,0.0017576476167893084
644,644,-0.8873367066880535,-0.9,1,437.0,978.0,1.0,375.0,1,0.5053567286626934,0.0004426002464489354
645,645,-0.006056694615283131,-0.0,1,479.0,540.0,0.0,641.0,0,0.05273534868013274,0.001235743102416887
646,646,-0.30107285703280096,-0.3,1,413.0,719.0,1.0,758.0,1,0.30998334151569684,0.0010107926414585327
647,647,0.8574562446239788,0.9,0,340.0,539.0,0.0,391.0,1,0.13049950655068265,0.002268520777070368
648,648,0.8654146504367444,0.9,0,300.0,561.0,0.0,199.0,1,0.03593106041137073,0.004369988176061377
649,649,0.792372782834301,0.8,0,490.0,883.0,0.0,257.0,1,0.6475222229658488,0.002016936317278529
650,650,-0.6776194142565641,-0.7,1,476.0,939.0,1.0,275.0,1,0.8578322064927257,0.002881297357299306
651,651,-0.7670533481776862,-0.8,1,487.0,702.0,1.0,401.0,1,0.6623221416925411,0.0005937470931575689
652,652,0.6467378007950086,0.6,0,374.0,583.0,0.0,173.0,1,0.6234957247035667,0.002122090745756094
653,653,0.6472162273565709,0.6,0,363.0,996.0,0.0,241.0,1,0.8379485916470725,0.004000479037684455
654,654,-0.8382665365634421,-0.8,1,426.0,711.0,1.0,253.0,1,0.7141285981087875,0.0037124271771642454
655,655,0.2625395118529532,0.3,0,494.0,896.0,1.0,670.0,0,0.9700306528784641,0.0029093179981191973
656,656,0.378692417709535,0.4,0,440.0,936.0,0.0,464.0,1,0.5044529852458781,0.001149153201671409
657,657,-0.5090330983483156,-0.5,1,295.0,959.0,1.0,216.0,1,0.7104302188912378,0.0034582816897996416
658,658,-0.7483126647381406,-0.7,1,345.0,874.0,1.0,361.0,1,0.18401471823416815,0.0016915181354017156
659,659,0.9467808788451468,0.9,0,451.0,573.0,0.0,356.0,1,0.060197495462185446,0.00012239810485382418
660,660,-0.1455360123021352,-0.1,1,305.0,841.0,1.0,374.0,1,0.599743978900227,0.0046692301340181055
661,661,-0.5539099063452941,-0.6,1,272.0,584.0,1.0,324.0,1,0.8267561883542786,0.003412154735468793
662,662,-0.4500469153466258,-0.5,1,358.0,602.0,1.0,910.0,1,0.1244120026874026,0.00021772553708642505
663,663,-0.1572175084900893,-0.2,1,420.0,833.0,1.0,537.0,1,0.11508777899749634,0.004334895375918354
664,664,0.1271195992460723,0.1,0,473.0,638.0,0.0,439.0,1,0.23816233536609055,0.0033294323749664453
665,665,0.5277914330204894,0.5,0,302.0,520.0,0.0,488.0,1,0.8567568931073015,0.0033495423069764252
666,666,-0.9109097539188997,-0.9,1,374.0,547.0,1.0,189.0,1,0.06733652247485733,0.003660198820904439
667,667,0.055558263768813676,0.1,0,391.0,616.0,1.0,483.0,0,0.6347999633928816,0.0014168064387254475
668,668,0.0676116959557429,0.1,0,266.0,654.0,1.0,440.0,0,0.5506320021559655,0.004005781563414867
669,669,-0.9499940936121081,-0.9,1,278.0,873.0,1.0,509.0,1,0.5167508358565122,0.0019894451718299724
670,670,0.02183454815824204,0.0,0,304.0,715.0,0.0,351.0,1,0.18051570989011123,0.004580767536349381
671,671,0.994281080600552,1.0,0,429.0,551.0,0.0,270.0,1,0.5999407762000819,0.003471623499398456
672,672,0.7441340336336015,0.7,0,274.0,658.0,0.0,358.0,1,0.7806232882180217,0.0009025550862610599
673,673,0.757234845575842,0.8,0,434.0,635.0,0.0,341.0,1,0.9107185255661495,0.0031254630705886514
674,674,0.3321727771018077,0.3,0,285.0,924.0,0.0,351.0,1,0.14907753819045433,0.0031709180481226816
675,675,0.11611302868465279,0.1,0,378.0,953.0,1.0,499.0,0,0.8295474404541057,0.0018878394201458026
676,676,-0.04078974889113196,-0.0,1,268.0,569.0,1.0,213.0,1,0.7275947177149416,0.004011938069411265
677,677,-0.09961421185708197,-0.1,1,260.0,888.0,1.0,402.0,1,0.3544451413374339,0.0031167766087306487
678,678,-0.9986027821995889,-1.0,1,452.0,565.0,1.0,353.0,1,0.4358281146021318,0.002167018931703518
679,679,-0.4185680946092156,-0.4,1,286.0,790.0,1.0,694.0,1,0.02719609320417926,0.0006984487875703994
680,680,-0.7939768414661628,-0.8,1,399.0,619.0,1.0,312.0,1,0.09332126421795806,0.003787412499547471
681,681,-0.474847902688744,-0.5,1,478.0,618.0,1.0,364.0,1,0.08612126094166905,0.00235247819746132
682,682,0.045719050513518544,0.0,0,300.0,986.0,1.0,994.0,0,0.7241816496705511,1.997056008332665e-05
683,683,-0.5174140267961076,-0.5,1,382.0,929.0,1.0,299.0,1,0.9774228804457726,0.0014262405842873666
684,684,-0.2537927694304476,-0.3,1,298.0,787.0,1.0,295.0,1,0.8162907078013739,0.0016221871742656613
685,685,-0.2419297371515341,-0.2,1,448.0,566.0,1.0,326.0,1,0.05130516931651086,0.0031779671216847433
686,686,-0.4253503752030283,-0.4,1,407.0,710.0,1.0,473.0,1,0.7490299329022475,0.0012341950488047753
687,687,0.8765001624610171,0.9,0,495.0,712.0,0.0,223.0,1,0.23471380617536963,0.004721384881431216
688,688,-0.6882953228863489,-0.7,1,407.0,951.0,1.0,242.0,1,0.785207315526139,0.004904594491827205
689,689,-0.7608430261618098,-0.8,1,327.0,929.0,1.0,404.0,1,0.5729433898846862,0.0012876179227883217
690,690,0.2315132334452552,0.2,0,402.0,941.0,0.0,277.0,1,0.11776608489056739,0.0025639160079517827
691,691,0.3737341972525463,0.4,0,463.0,656.0,0.0,401.0,1,0.5236625395999469,0.0036591138816724927
692,692,-0.3746159915711076,-0.4,1,381.0,936.0,1.0,573.0,1,0.1443785715671405,0.0043340738622620455
693,693,0.8412499845781709,0.8,0,492.0,750.0,0.0,208.0,1,0.5578297610248868,0.0033738630729765184
694,694,0.7613735091154097,0.8,0,336.0,820.0,0.0,304.0,1,0.6691024367780936,0.002792458508769964
695,695,-0.3213887209009598,-0.3,1,412.0,509.0,1.0,849.0,1,0.18233130834358902,0.0006600822135309193
696,696,-0.32501521861302374,-0.3,1,259.0,601.0,1.0,350.0,1,0.6814711804684744,0.0006100568509892173
697,697,-0.9005975303822678,-0.9,1,343.0,780.0,1.0,617.0,1,0.4673014380213293,8.797476746396583e-05
698,698,0.8046196766126779,0.8,0,403.0,750.0,0.0,307.0,1,0.9309916815308356,0.004426290422392856
699,699,0.8164849362111737,0.8,0,429.0,759.0,0.0,432.0,1,0.5851815767416182,0.0027427920157533443
700,700,-0.932499968726979,-0.9,1,428.0,784.0,1.0,568.0,1,0.3414884865917309,0.004112845859476814
701,701,-0.15563933455622703,-0.2,1,456.0,928.0,1.0,586.0,1,0.10211358238257162,0.000605098624625962
702,702,-0.4400626640923089,-0.4,1,421.0,752.0,1.0,347.0,1,0.11857298215011802,0.0036854943454069367
703,703,-0.07913444354608146,-0.1,1,412.0,531.0,1.0,447.0,1,0.019246849353698803,0.004285619862554493
704,704,-0.4244689381438389,-0.4,1,472.0,800.0,1.0,308.0,1,0.24273521812926535,0.003070160406864868
705,705,-0.6501150466946963,-0.7,1,304.0,761.0,1.0,245.0,1,0.34687346991381496,0.004467288045674746
706,706,-0.26255796538262843,-0.3,1,368.0,945.0,1.0,537.0,1,0.8612415327070816,0.0005538290286349945
707,707,0.7254374187193204,0.7,0,311.0,862.0,0.0,457.0,1,0.5091455764764473,0.004299711681848282
708,708,0.7705711136206608,0.8,0,458.0,571.0,0.0,291.0,1,0.4930123741704887,0.00477973864015002
709,709,0.9582623353239452,1.0,0,255.0,897.0,0.0,328.0,1,0.9124015304452248,0.00046675198311588954
710,710,0.3576902851437831,0.4,0,474.0,986.0,0.0,560.0,1,0.9844224871856928,0.002708044412504704
711,711,0.9231476090052948,0.9,0,366.0,523.0,0.0,191.0,1,0.08266797128784942,0.0041391754129430445
712,712,-0.7943031529520057,-0.8,1,403.0,660.0,1.0,437.0,1,0.3333688620843932,0.002224607493415358
713,713,-0.42046584574422496,-0.4,1,256.0,537.0,1.0,457.0,1,0.6719679550953215,0.0017465614704597044
714,714,0.7036475341110606,0.7,0,316.0,610.0,0.0,364.0,1,0.3615790013650876,0.004071448297341467
715,715,0.24534278954272515,0.2,0,362.0,966.0,0.0,632.0,1,0.8522592774066333,0.00010860644019312582
716,716,0.5838303383305745,0.6,0,259.0,909.0,0.0,322.0,1,0.6330701913796466,0.0030011773247602107
717,717,-0.4944695038596021,-0.5,1,264.0,896.0,1.0,240.0,1,0.6719119896887611,0.0036874657394505707
718,718,-0.06631347894724282,-0.1,1,297.0,570.0,0.0,953.0,0,0.5792752509001654,0.0019394049532922453
719,719,0.5951384504945219,0.6,0,309.0,902.0,0.0,539.0,1,0.6971935035058873,0.0006784969262959279
720,720,-0.1275539666828125,-0.1,1,465.0,844.0,1.0,331.0,1,0.4265391087980964,0.004182200525935681
721,721,0.21921646730992572,0.2,0,296.0,856.0,0.0,558.0,1,0.013231355702455594,0.0038035644636466477
722,722,0.3883823567653726,0.4,0,250.0,916.0,0.0,334.0,1,0.8521607269522794,0.0014702515195663952
723,723,-0.14560020244826544,-0.1,1,283.0,627.0,1.0,610.0,1,0.6341807299731691,0.0009056895515118701
724,724,0.14673297901516125,0.1,0,251.0,556.0,1.0,433.0,0,0.32621746990490086,0.0031661103040581816
725,725,0.06892924902732278,0.1,0,255.0,787.0,1.0,318.0,0,0.7288035801114974,0.003608112304132196
726,726,0.050592714350681245,0.1,0,494.0,759.0,1.0,317.0,0,0.4174807731313611,0.0012543312833153287
727,727,-0.7534052116843148,-0.8,1,408.0,675.0,1.0,227.0,1,0.8810450549337614,0.004077726898624232
728,728,0.48115858153267976,0.5,0,495.0,620.0,0.0,355.0,1,0.7423259296398012,0.0004286099149893502
729,729,0.42600829319517364,0.4,0,432.0,876.0,0.0,362.0,1,0.7945772004985752,0.0020878942761735804
730,730,-0.106892294201826,-0.1,1,375.0,856.0,1.0,779.0,1,0.3713313185427971,0.00028121950204959225
731,731,0.09060909768135872,0.1,0,490.0,551.0,1.0,339.0,0,0.3661290957035458,0.004690231171406987
732,732,0.6188970256912454,0.6,0,323.0,958.0,0.0,339.0,1,0.6450038541903426,0.002382041139870658
733,733,0.5961090294465841,0.6,0,341.0,654.0,0.0,625.0,1,0.4401480720000003,0.0001390866590921891
734,734,-0.04775622846951233,-0.0,1,417.0,719.0,0.0,974.0,0,0.46188393821991547,0.00028747593647814816
735,735,-0.5038278710222341,-0.5,1,416.0,578.0,1.0,346.0,1,0.17081686220418613,0.0013942630621571013
736,736,0.8120404850663163,0.8,0,385.0,952.0,0.0,323.0,1,0.7893390405202375,0.0025534461245304246
737,737,0.2463802600061762,0.2,0,468.0,568.0,0.0,394.0,1,0.08372806659469634,0.0031687535861748234
738,738,-0.6791832388245289,-0.7,1,312.0,872.0,1.0,626.0,1,0.15147539341584682,0.0008675987350889636
739,739,-0.14251256050293715,-0.1,1,266.0,643.0,1.0,461.0,1,0.27827691545763367,0.0006587703566977948
740,740,-0.849646227720873,-0.8,1,304.0,943.0,1.0,313.0,1,0.30646486871416134,0.0034810888609003426
741,741,-0.3373558930646341,-0.3,1,381.0,962.0,1.0,197.0,1,0.21581738030846032,0.002575886691366501
742,742,-0.4305329509806386,-0.4,1,313.0,674.0,1.0,493.0,1,0.6051972131748121,0.0006858095377447721
743,743,0.9314433799492232,0.9,0,335.0,804.0,0.0,251.0,1,0.2805219765929583,0.0035943623201166396
744,744,0.18758056692094494,0.2,0,368.0,625.0,0.0,1327.0,1,0.05229469917696272,0.0003963981355499474
745,745,-0.7500957732467963,-0.8,1,473.0,753.0,1.0,484.0,1,0.45473658476824863,0.0017535721420493201
746,746,-0.08056289484326706,-0.1,1,282.0,651.0,1.0,297.0,1,0.8037567808747907,0.001776705004079201
747,747,-0.8186296377627038,-0.8,1,389.0,569.0,1.0,952.0,1,0.3328963632618712,0.0004680406706212459
748,748,0.7742803854888365,0.8,0,457.0,848.0,0.0,245.0,1,0.4248817703556824,0.0037125133853473536
749,749,0.9569694535051678,1.0,0,338.0,692.0,0.0,220.0,1,0.4601379635160624,0.004447688179962261
750,750,-0.17495005914873474,-0.2,1,436.0,941.0,0.0,843.0,0,0.02413830004198958,0.0012110764565056858
751,751,-0.6609642341996043,-0.7,1,424.0,731.0,1.0,355.0,1,0.21862322189685945,0.0038994954501341884
752,752,-0.2821039274172721,-0.3,1,429.0,801.0,1.0,510.0,1,0.11197158100885474,0.0007674090796321709
753,753,-0.40560863353296495,-0.4,1,484.0,616.0,1.0,340.0,1,0.41323685820322686,0.0014113214797361212
754,754,0.8662901915407935,0.9,0,275.0,860.0,0.0,345.0,1,0.3681864458830809,0.001910644800065603
755,755,0.5756126414891205,0.6,0,450.0,523.0,0.0,247.0,1,0.22793116206541675,0.00455557419225461
756,756,-0.7690803470961773,-0.8,1,407.0,926.0,1.0,197.0,1,0.9632445954050418,0.0036664332547193695
757,757,-0.003962804592833713,-0.0,1,270.0,927.0,1.0,693.0,1,0.6071235030415135,0.0006062547965194576
758,758,0.5318818025365617,0.5,0,327.0,921.0,0.0,482.0,1,0.0025048119759665255,0.00078495689479621
759,759,0.042641031937938,0.0,0,453.0,841.0,1.0,786.0,0,0.06854812898762763,0.002480353872257994
760,760,0.45899552564557644,0.5,0,312.0,747.0,0.0,341.0,1,0.9788340854189167,0.0011351391449073384
761,761,0.6182560904684187,0.6,0,274.0,739.0,1.0,197.0,0,0.627440302623736,0.0019393400959804674
762,762,0.5723608943538108,0.6,0,470.0,743.0,0.0,327.0,1,0.9615700924447105,0.0008362698795179035
763,763,0.9204321199617354,0.9,0,416.0,908.0,0.0,336.0,1,0.4333718545795202,0.001208014525126246
764,764,-0.050115094077785916,-0.1,1,355.0,618.0,1.0,387.0,1,0.5328692408066419,0.003067107084527039
765,765,-0.3717721422139677,-0.4,1,324.0,724.0,1.0,172.0,1,0.8701737164445605,0.00104796666627942
766,766,-0.30859938082389315,-0.3,1,369.0,575.0,1.0,226.0,1,0.657673664879231,0.0039787441508224546
767,767,-0.888770284287713,-0.9,1,338.0,558.0,1.0,404.0,1,0.9572551248295431,0.0005845907239072118
768,768,0.5533863078948673,0.6,0,472.0,670.0,0.0,508.0,1,0.4310628139999926,0.0010186055319008026
769,769,0.18878913210221238,0.2,0,423.0,783.0,0.0,574.0,1,0.0032092070572626863,0.001764354883897416
770,770,-0.14766286273870888,-0.1,1,487.0,724.0,1.0,369.0,1,0.8344506119374936,0.0010289038096269788
771,771,0.5970043188199261,0.6,0,312.0,554.0,0.0,404.0,1,0.7997516741022174,0.0003433774517767413
772,772,0.4498353979573986,0.4,0,421.0,774.0,0.0,755.0,1,0.16143519372565185,0.00015142662851512945
773,773,-0.030030265684050317,-0.0,1,447.0,680.0,1.0,543.0,1,0.23564667637814574,0.0010108003727608472
774,774,0.5709906510920015,0.6,0,395.0,774.0,0.0,281.0,1,0.7317633726172271,0.0032794268141909735
775,775,0.8013902617065141,0.8,0,314.0,886.0,0.0,250.0,1,0.8134199117323041,0.0032098004082896183
776,776,0.6929582804471026,0.7,0,392.0,624.0,0.0,304.0,1,0.5159749020357012,0.0017912280716562967
777,777,-0.9327691396589204,-0.9,1,304.0,662.0,1.0,224.0,1,0.7507634409150572,0.004737441464976855
778,778,-0.15729059770547238,-0.2,1,344.0,691.0,1.0,705.0,1,0.00681661942975309,0.002655720667001922
779,779,0.8730267308857891,0.9,0,257.0,783.0,0.0,490.0,1,0.9686092917592942,0.0004179364754032222
780,780,0.5823067030821127,0.6,0,443.0,711.0,0.0,556.0,1,0.13094643797147254,0.0035665682903609727
781,781,-0.26578971845835575,-0.3,1,375.0,601.0,1.0,204.0,1,0.6575621331579038,0.004988190675835479
782,782,-0.4971881700808096,-0.5,1,457.0,578.0,1.0,415.0,1,0.046586378431379916,0.003632325897477247
783,783,-0.14591901704246824,-0.1,1,483.0,880.0,1.0,397.0,1,0.6869832991708247,0.002407041294197556
784,784,0.8192910429878935,0.8,0,433.0,508.0,0.0,589.0,1,0.4982526249645922,0.00044715322184409604
785,785,-0.13668005243629633,-0.1,1,447.0,816.0,0.0,887.0,0,0.8629490751439535,0.0009466565099660901
786,786,-0.7973048619680982,-0.8,1,389.0,636.0,1.0,225.0,1,0.6607202705892531,0.0037850177796526657
787,787,-0.331527846519295,-0.3,1,481.0,580.0,1.0,259.0,1,0.6525821224014655,0.0012200967133333784
788,788,-0.047058711930710206,-0.0,1,389.0,944.0,1.0,307.0,1,0.5681691382284119,0.004760622759599399
789,789,-0.47826664416552456,-0.5,1,362.0,661.0,1.0,297.0,1,0.9376884345541963,0.002616364669502992
790,790,0.6831006041049619,0.7,0,360.0,915.0,0.0,355.0,1,0.25475660886916685,0.0039511901144321845
791,791,0.8016634552471908,0.8,0,348.0,507.0,0.0,245.0,1,0.8599369740156491,0.0026071263976299407
792,792,-0.6648571593865329,-0.7,1,360.0,668.0,1.0,272.0,1,0.3138639528988887,0.0006910517053858739
793,793,-0.7801378755024901,-0.8,1,447.0,611.0,1.0,302.0,1,0.6199774365077141,0.00036870721850386644
794,794,0.2356250963741202,0.2,0,474.0,865.0,1.0,671.0,0,0.2851883918094572,0.001371378144557574
795,795,-0.7845951804739368,-0.8,1,291.0,508.0,1.0,351.0,1,0.8424788916271683,0.0007981357749156116
796,796,-0.5193755177399968,-0.5,1,286.0,692.0,1.0,322.0,1,0.5720358117727834,0.0017076332384982423
797,797,0.47307845820557737,0.5,0,378.0,706.0,1.0,306.0,0,0.5873212567181458,0.004725166069387745
798,798,-0.5991492308423823,-0.6,1,430.0,626.0,1.0,314.0,1,0.2591670289442475,0.0010035560873486549
799,799,0.09169915402230555,0.1,0,489.0,620.0,0.0,321.0,1,0.7606947482598233,0.003591873042916865
800,800,-0.5617159332136576,-0.6,1,382.0,643.0,1.0,485.0,1,0.232230530880851,0.0014334108396143826
801,801,0.009974046342595466,0.0,0,467.0,868.0,1.0,325.0,0,0.7523178869661764,0.004878573768017681
802,802,0.47606976308204163,0.5,0,251.0,653.0,0.0,486.0,1,0.2452709531773769,0.0017664294467009724
803,803,0.007463776187244697,0.0,0,410.0,837.0,1.0,503.0,0,0.23868768859732692,0.00454013026844247
804,804,-0.6327543163555327,-0.6,1,323.0,878.0,1.0,189.0,1,0.8294482440553077,0.0037547364928530503
805,805,-0.08128194984135173,-0.1,1,470.0,985.0,1.0,405.0,1,0.22546230922259092,0.0020442793074745827
806,806,0.8810930627466076,0.9,0,345.0,661.0,0.0,224.0,1,0.6771882605535615,0.004306287157139598
807,807,-0.9088645031746316,-0.9,1,420.0,571.0,1.0,539.0,1,0.6141994661797924,0.003801252817346026
808,808,0.4925945891269474,0.5,0,328.0,840.0,0.0,372.0,1,0.753715142957083,0.0022927949047721126
809,809,-0.26417322075372174,-0.3,1,305.0,619.0,1.0,386.0,1,0.6628692983138582,0.002225881072017468
810,810,0.9021999026873684,0.9,0,321.0,927.0,0.0,382.0,1,0.07783445338174844,0.0012764193415309721
811,811,0.6566918099706609,0.7,0,305.0,697.0,0.0,378.0,1,0.7780421171403181,0.0026567702930719297
812,812,0.9265033901223456,0.9,0,409.0,666.0,0.0,375.0,1,0.38517849561780226,0.0009338427845661762
813,813,-0.6499040980129347,-0.6,1,266.0,660.0,1.0,754.0,1,0.9772005670817268,0.0009618040603459133
814,814,0.23580634254697985,0.2,0,356.0,998.0,1.0,516.0,0,0.2994824739230263,0.004080455785007149
815,815,0.29448833242420713,0.3,0,470.0,758.0,0.0,282.0,1,0.8497305320773989,0.0011822756464224737
816,816,-0.38380926747112265,-0.4,1,482.0,596.0,1.0,632.0,1,0.761563290179313,0.0007903103122402389
817,817,0.7276619634061516,0.7,0,314.0,523.0,0.0,323.0,1,0.4882624675983561,0.0037328759140477685
818,818,0.3026619306986109,0.3,0,437.0,967.0,0.0,496.0,1,0.030000721284079046,0.004315944283458449
819,819,-0.7462740181661986,-0.7,1,250.0,757.0,1.0,323.0,1,0.37767313063056873,0.004293209682282181
820,820,0.2479262580928192,0.2,0,385.0,916.0,0.0,389.0,1,0.5141568144847223,0.0018503863272893934
821,821,0.3148493274090247,0.3,0,290.0,610.0,0.0,210.0,1,0.831939632042521,0.0019689190224174203
822,822,0.9774604369123157,1.0,0,363.0,877.0,0.0,360.0,1,0.16611465369249212,0.0021935832459695475
823,823,-0.6118548127790429,-0.6,1,298.0,703.0,1.0,529.0,1,0.40913126751621554,0.0021332766211259436
824,824,-0.10577227039868276,-0.1,1,489.0,989.0,0.0,432.0,0,0.38427038605435204,0.002490930024220433
825,825,0.2846698968536816,0.3,0,374.0,780.0,0.0,516.0,1,0.8352887176718077,0.003997223797604749
826,826,-0.5458721820697578,-0.5,1,254.0,904.0,1.0,732.0,1,0.7154816457033772,0.0012225529523370365
827,827,-0.3419741072871747,-0.3,1,471.0,971.0,1.0,588.0,1,0.7658108795206867,0.0017042323389459685
828,828,0.4764958133319297,0.5,0,462.0,565.0,0.0,273.0,1,0.815771928557648,0.0009357999073553897
829,829,0.4947169099155091,0.5,0,427.0,663.0,0.0,300.0,1,0.0328336030435914,0.0035687753411616945
830,830,-0.6737191732139205,-0.7,1,250.0,702.0,1.0,518.0,1,0.5811005211394411,0.000901729992560103
831,831,0.4239587471853552,0.4,0,372.0,502.0,0.0,346.0,1,0.8900733829637373,0.002108010304377417
832,832,0.3753216715161902,0.4,0,326.0,722.0,1.0,612.0,0,0.07401463680435028,0.0007236668037635658
833,833,0.8999526226760772,0.9,0,326.0,582.0,0.0,362.0,1,0.45434147962877514,0.0016013445105322172
834,834,-0.5294679509087359,-0.5,1,288.0,908.0,1.0,354.0,1,0.6570196290482517,0.0030091983877038393
835,835,-0.9666928606428906,-1.0,1,328.0,936.0,1.0,446.0,1,0.49362705423452724,0.003328298956516445
836,836,0.6531075939338429,0.7,0,351.0,998.0,0.0,501.0,1,0.778076216174569,0.0019751623815676407
837,837,0.7980377183333318,0.8,0,493.0,835.0,0.0,402.0,1,0.13108347965771527,0.003342862621211294
838,838,0.03729980067922867,0.0,0,360.0,709.0,0.0,981.0,1,0.23386613059933448,0.00036361864922065945
839,839,0.681227314793428,0.7,0,261.0,550.0,0.0,299.0,1,0.9895600373187798,0.0021503092476091805
840,840,0.7505952663616138,0.8,0,390.0,747.0,0.0,293.0,1,0.8152664315858016,0.0015901668609186114
841,841,-0.2327870144955475,-0.2,1,267.0,959.0,1.0,344.0,1,0.93883041001665,0.0024161984764034723
842,842,-0.7346030857085972,-0.7,1,314.0,586.0,1.0,320.0,1,0.5810554258722536,0.002076418586570491
843,843,-0.7937341221724488,-0.8,1,399.0,609.0,1.0,342.0,1,0.47175466564558466,0.0018585566776288043
844,844,-0.009084883200111582,-0.0,1,459.0,633.0,1.0,908.0,1,0.045695438889209794,0.00010885651913921157
845,845,-0.30334188055661726,-0.3,1,434.0,968.0,1.0,438.0,1,0.9660448526233669,0.002045073694379261
846,846,0.7580552351510026,0.8,0,415.0,949.0,0.0,476.0,1,0.12203210419750177,0.002083297659002152
847,847,0.8473382087147523,0.8,0,386.0,763.0,0.0,241.0,1,0.9650548026824904,0.0032659123129825892
848,848,0.31668299504695074,0.3,0,265.0,568.0,0.0,277.0,1,0.5696083363918066,0.004669313783824034
849,849,-0.520655278286895,-0.5,1,308.0,523.0,1.0,569.0,1,0.10490108610711935,0.0008747452240240133
850,850,0.44381665468415843,0.4,0,330.0,763.0,0.0,757.0,1,0.276434641462201,0.0010362783663503583
851,851,-0.14052068767909276,-0.1,1,360.0,627.0,1.0,253.0,1,0.30282963453932743,0.00488641858576811
852,852,0.03952743490541355,0.0,0,317.0,540.0,1.0,243.0,0,0.7398851562344059,0.0027844653286490046
853,853,0.6510549716226808,0.7,0,393.0,772.0,0.0,225.0,1,0.7867067160454644,0.0036178044946366173
854,854,0.7640019370239963,0.8,0,363.0,835.0,0.0,382.0,1,0.926510841105855,0.0017522477990635239
855,855,0.5864420282698954,0.6,0,257.0,650.0,0.0,593.0,1,0.2600946271032475,0.0012621343718644796
856,856,-0.020369025625523562,-0.0,1,273.0,534.0,0.0,383.0,0,0.9759619821421053,0.00026873827142375795
857,857,-0.01661896846384181,-0.0,1,369.0,879.0,1.0,382.0,1,0.820167452549445,0.00160591187468696
858,858,0.3877449864289648,0.4,0,498.0,808.0,0.0,484.0,1,0.08607693494225777,0.000368074282647749
859,859,0.10066459287498586,0.1,0,307.0,655.0,0.0,368.0,1,0.8560732206264167,0.0038866079654886992
860,860,-0.2917522994381363,-0.3,1,255.0,691.0,0.0,534.0,0,0.21126249140410946,0.0007916072434120491
861,861,-0.8445740698137643,-0.8,1,474.0,782.0,1.0,474.0,1,0.855471298110881,0.0010707929299374923
862,862,0.06578233245579712,0.1,0,361.0,504.0,0.0,825.0,1,0.29719571732990724,0.0006192982323233154
863,863,0.637801095505504,0.6,0,442.0,734.0,0.0,404.0,1,0.3981788022785653,0.0033228996183683524
864,864,-0.11683558808430683,-0.1,1,380.0,625.0,1.0,835.0,1,0.18924720621220403,0.00032687192597353364
865,865,0.741351841117402,0.7,0,386.0,721.0,0.0,333.0,1,0.13770459835111015,0.004207045920810455
866,866,0.33066671229039035,0.3,0,345.0,519.0,0.0,376.0,1,0.19848277269169923,0.002551608255209217
867,867,-0.11386410981839057,-0.1,1,488.0,553.0,1.0,479.0,1,0.4700041676718184,0.0027267832603563497
868,868,-0.7837662795104174,-0.8,1,426.0,967.0,1.0,417.0,1,0.16121120931552635,0.0022732447242708844
869,869,0.17018001543190553,0.2,0,288.0,695.0,1.0,417.0,0,0.5534246931995516,0.0009524993263988879
870,870,0.8030167673065167,0.8,0,349.0,655.0,0.0,276.0,1,0.6165692423097745,0.0017182112217432482
871,871,0.05440702346667736,0.1,0,486.0,730.0,1.0,304.0,0,0.8744831365595286,0.0033263388775709698
872,872,-0.3804134336590026,-0.4,1,363.0,991.0,1.0,306.0,1,0.750843240750952,0.0021591272687782547
873,873,0.27024546058977816,0.3,0,319.0,734.0,0.0,577.0,1,0.030080073867294388,0.0010425537194830349
874,874,-0.35323528580182595,-0.4,1,475.0,969.0,1.0,566.0,1,0.39385281721985566,0.001371583300382937
875,875,-0.12444765167696259,-0.1,1,439.0,854.0,1.0,827.0,1,0.6415838811328821,0.0007976739013891748
876,876,0.30406095463057525,0.3,0,277.0,771.0,0.0,562.0,1,0.3822552133468322,0.0008612107308702993
877,877,-0.9932759336302008,-1.0,1,485.0,907.0,1.0,508.0,1,0.08462649276075529,0.0037443338019137553
878,878,0.9455390503708574,0.9,0,412.0,581.0,0.0,317.0,1,0.36807245766712005,0.0015941414590815372
879,879,0.8420367890211276,0.8,0,336.0,897.0,0.0,487.0,1,0.39666216358848716,0.003527153809305838
880,880,0.29939401780813424,0.3,0,294.0,959.0,0.0,557.0,1,0.5366292027227846,0.0028517870981470085
881,881,-0.6031500211754017,-0.6,1,279.0,717.0,1.0,254.0,1,0.503125578796506,0.004820076814239525
882,882,0.7647760331398703,0.8,0,253.0,707.0,0.0,240.0,1,0.9047652089202333,0.0015073785514366016
883,883,0.1842855918384556,0.2,0,406.0,612.0,0.0,182.0,1,0.22612930003890086,0.0027131938439635466
884,884,0.5803545902297202,0.6,0,276.0,737.0,0.0,147.0,1,0.20549111657575014,0.0026769569037746587
885,885,-0.49770858096673876,-0.5,1,342.0,742.0,1.0,446.0,1,0.17677433700948575,0.0005603272557346018
886,886,-0.1074260964793301,-0.1,1,344.0,680.0,1.0,586.0,1,0.061468693209000835,0.00026883493686293393
887,887,0.30808804821524327,0.3,0,344.0,835.0,0.0,321.0,1,0.4448800020578779,0.004216775602416096
888,888,0.6910270869980129,0.7,0,435.0,564.0,0.0,391.0,1,0.817950840259835,0.0006791045736731067
889,889,0.5859797124432802,0.6,0,416.0,552.0,0.0,382.0,1,0.6451469161402632,0.001070279167022224
890,890,0.32827290511595875,0.3,0,284.0,816.0,1.0,400.0,0,0.885273627271809,0.002858667439467729
891,891,0.09565099060265436,0.1,0,380.0,626.0,1.0,324.0,0,0.9052301750214629,0.0031036968715035303
892,892,-0.617876473762758,-0.6,1,397.0,685.0,1.0,208.0,1,0.7837619077526037,0.004798424741303514
893,893,0.46865774219997114,0.5,0,461.0,789.0,0.0,320.0,1,0.43781222758379346,0.0030276894517010707
894,894,0.23454803094641963,0.2,0,267.0,727.0,1.0,926.0,0,0.33640324504109387,0.00038163894238121333
895,895,-0.7388006681544022,-0.7,1,303.0,591.0,1.0,466.0,1,0.8177199571161368,0.0019291538063740206
896,896,0.6022679670527245,0.6,0,446.0,746.0,0.0,328.0,1,0.804102841096414,0.003920035357402764
897,897,-0.7995369396786929,-0.8,1,378.0,736.0,1.0,276.0,1,0.13364294460068182,0.002841825142307753
898,898,0.783288183435628,0.8,0,322.0,868.0,0.0,440.0,1,0.3033610807466701,0.0006685505263227759
899,899,0.7672500105934315,0.8,0,461.0,504.0,0.0,315.0,1,0.9270222035922333,0.0006738680036711848
900,900,0.5752069001110931,0.6,0,391.0,551.0,0.0,248.0,1,0.83582382998326,0.0041904311018547795
901,901,0.5767280238862775,0.6,0,311.0,563.0,0.0,286.0,1,0.29648679508313946,0.003281861075853533
902,902,0.7244396069903865,0.7,0,292.0,590.0,0.0,348.0,1,0.9629706046675939,0.000230770944754653
903,903,-0.38583279137259274,-0.4,1,388.0,639.0,1.0,373.0,1,0.5450123673565346,0.0009376459952064975
904,904,0.1584668280350845,0.2,0,371.0,507.0,0.0,572.0,1,0.41237552428317326,0.0007696584997598887
905,905,0.5272618313220121,0.5,0,428.0,671.0,0.0,651.0,1,0.4204069694901551,0.00013066424223592667
906,906,-0.6346066272862796,-0.6,1,447.0,511.0,1.0,342.0,1,0.2668650050394835,0.002180145780853343
907,907,0.006817762595354493,0.0,0,405.0,547.0,1.0,368.0,0,0.31841616905464054,0.002142338295147234
908,908,0.22446754860303608,0.2,0,257.0,556.0,0.0,447.0,1,0.5320773949551866,0.003122489028589486
909,909,-0.6167736470585015,-0.6,1,360.0,612.0,1.0,258.0,1,0.6304952491841136,0.0004334899886895882
910,910,0.6734905893753931,0.7,0,495.0,924.0,0.0,391.0,1,0.4540396149158834,0.0020373554309389198
911,911,-0.03975961240734516,-0.0,1,416.0,904.0,0.0,630.0,0,0.9208280351625336,0.00046424053151034874
912,912,0.8716096240358258,0.9,0,371.0,595.0,0.0,284.0,1,0.5553444113604059,0.0019911815950550017
913,913,-0.47877224322971523,-0.5,1,386.0,760.0,1.0,254.0,1,0.944895824210811,0.0016180737413207136
914,914,-0.038487193332296554,-0.0,1,268.0,567.0,1.0,835.0,1,0.26301525100054235,0.0009230066599804915
915,915,-0.8616177529757616,-0.9,1,409.0,812.0,1.0,539.0,1,0.5795771741902391,0.0006081456027943716
916,916,-0.5101978462667034,-0.5,1,266.0,565.0,1.0,309.0,1,0.7208822225766182,0.0014800124967454837
917,917,0.8860992064524251,0.9,0,406.0,892.0,0.0,252.0,1,0.726945128717632,0.004034026048818222
918,918,-0.26342553696883053,-0.3,1,466.0,863.0,1.0,381.0,1,0.8443764482129984,0.0029165457718857263
919,919,0.6033296460772197,0.6,0,437.0,856.0,0.0,317.0,1,0.08642223478719102,0.004039930643977423
920,920,0.9572768016340989,1.0,0,427.0,732.0,0.0,281.0,1,0.302904637682608,0.0025854804056065816
921,921,0.3268271595334893,0.3,0,452.0,924.0,0.0,624.0,1,0.7024855220952956,0.0005115451050199548
922,922,-0.537464627913212,-0.5,1,439.0,732.0,1.0,269.0,1,0.2699451463801422,0.0038806727006874763
923,923,0.22881232398049667,0.2,0,271.0,557.0,0.0,312.0,1,0.23992319524464167,0.004780862298268021
924,924,-0.8531458837807826,-0.9,1,343.0,861.0,1.0,376.0,1,0.474329704275109,0.00031827083952960523
925,925,-0.2756235534779363,-0.3,1,432.0,776.0,1.0,502.0,1,0.6927806085723257,0.003846432022942144
926,926,-0.9258003406337343,-0.9,1,485.0,837.0,1.0,498.0,1,0.5202426861863622,0.0008189953398030858
927,927,-0.39888522532389437,-0.4,1,469.0,999.0,1.0,452.0,1,0.01670397445460603,0.002608972670687037
928,928,-0.4966791806631292,-0.5,1,324.0,789.0,1.0,997.0,1,0.6710319854637272,0.00017988680664908385
929,929,-0.7898468186929979,-0.8,1,400.0,555.0,1.0,295.0,1,0.2755604124302695,0.003642467907480081
930,930,-0.6360748112411561,-0.6,1,304.0,652.0,1.0,284.0,1,0.6293947247058296,0.00392923282989348
931,931,0.6604377871963991,0.7,0,481.0,771.0,0.0,268.0,1,0.02172555212919325,0.003922596814222318
932,932,-0.5996663369194173,-0.6,1,485.0,852.0,1.0,293.0,1,0.8031414892792124,0.003377930167589742
933,933,-0.4302707708012061,-0.4,1,409.0,613.0,1.0,418.0,1,0.07798773230514844,0.0020016467584877302
934,934,-0.1187191340049023,-0.1,1,278.0,777.0,0.0,435.0,0,0.7770929047397819,0.0020755311134796777
935,935,-0.24909815488332065,-0.2,1,370.0,588.0,1.0,442.0,1,0.4529482146727647,0.0003334802671540227
936,936,0.7672698065295318,0.8,0,345.0,987.0,0.0,598.0,1,0.6696094063057121,0.003717448082801236
937,937,-0.12177400080640988,-0.1,1,485.0,506.0,1.0,459.0,1,0.6873762133665138,0.003934600477422704
938,938,0.06328712754426458,0.1,0,400.0,531.0,1.0,409.0,0,0.41358617969952627,0.003537864014386093
939,939,-0.02769413411234467,-0.0,1,300.0,825.0,1.0,505.0,1,0.3109664984289513,0.00429409012132927
940,940,-0.3674026225184841,-0.4,1,363.0,985.0,1.0,302.0,1,0.4489350550386024,0.0041051087680649
941,941,-0.038588179646457776,-0.0,1,425.0,562.0,1.0,283.0,1,0.9723753345896738,0.0032886219118845737
942,942,0.2907583442318731,0.3,0,369.0,651.0,0.0,510.0,1,0.5809459936612932,0.0012784174117934422
943,943,0.39417097021985836,0.4,0,383.0,571.0,0.0,156.0,1,0.7656476231974246,0.00445613906694255
944,944,-0.6287398723481386,-0.6,1,250.0,794.0,1.0,406.0,1,0.8914203127140871,0.0031871691527693463
945,945,-0.025729912602975524,-0.0,1,360.0,923.0,1.0,497.0,1,0.45763956213126067,0.004324555882579526
946,946,-0.21275720487351624,-0.2,1,405.0,579.0,1.0,206.0,1,0.1125512615921278,0.0038261051521714996
947,947,0.0004342458793569204,0.0,0,355.0,991.0,0.0,3654.0,1,0.6804952905478171,0.00451026068494987
948,948,0.6583440416970503,0.7,0,290.0,888.0,0.0,382.0,1,0.28150857980600974,0.0006901964663219546
949,949,0.07692816245628564,0.1,0,490.0,747.0,0.0,1083.0,1,0.18745436252223835,0.00044611660823312693
950,950,-0.1335115478750637,-0.1,1,446.0,829.0,1.0,575.0,1,0.13956806474728745,0.00469108754390703
951,951,0.2509038162103463,0.3,0,426.0,686.0,0.0,338.0,1,0.03288913802488225,0.004988294233966662
952,952,0.16533350316683215,0.2,0,444.0,964.0,0.0,332.0,1,0.15126352816603095,0.004255221417684359
953,953,-0.9123292087191706,-0.9,1,466.0,982.0,1.0,412.0,1,0.892951676309177,3.654026664852095e-05
954,954,0.17393940684248843,0.2,0,340.0,865.0,0.0,515.0,1,0.39387605295921013,0.00010202862857042416
955,955,0.08444755430287332,0.1,0,382.0,838.0,1.0,230.0,0,0.819147230341214,0.0038003894951293866
956,956,-0.13598284449078335,-0.1,1,361.0,781.0,1.0,268.0,1,0.4606450289014765,0.0025451776531154324
957,957,-0.8972473141673973,-0.9,1,456.0,633.0,1.0,631.0,1,0.363467319326364,0.0029002601479982595
958,958,0.38870845448637215,0.4,0,328.0,533.0,0.0,569.0,1,0.5965367450076394,0.0002608556265655898
959,959,0.03717375844787063,0.0,0,465.0,663.0,1.0,502.0,0,0.17121113940526655,0.002431824972138183
960,960,0.34408513709901745,0.3,0,399.0,702.0,0.0,589.0,1,0.37411749649829185,0.001218498334275706
961,961,-0.32468363822092083,-0.3,1,431.0,895.0,1.0,614.0,1,0.2596933465913196,0.0021216947420860965
962,962,-0.6700451762685493,-0.7,1,269.0,765.0,1.0,336.0,1,0.45008773207106356,0.0019486523104458742
963,963,0.7532995907353737,0.8,0,334.0,706.0,0.0,290.0,1,0.3884210531073221,0.002397722544808845
964,964,0.9881835944596291,1.0,0,494.0,575.0,0.0,161.0,1,0.4637828615401435,0.003717178643904378
965,965,-0.9904264882386697,-1.0,1,471.0,760.0,1.0,689.0,1,0.416677881659424,0.0014878737999708064
966,966,-0.6676075418484364,-0.7,1,263.0,909.0,1.0,178.0,1,0.5099979107681374,0.004991475399270604
967,967,0.00039985680983667393,0.0,0,395.0,605.0,1.0,350.0,0,0.40640478182060824,0.0013552609885021428
968,968,0.182662880889505,0.2,0,375.0,511.0,0.0,484.0,1,0.9984360707391438,0.001165310029026846
969,969,0.851203399346063,0.9,0,367.0,640.0,0.0,293.0,1,0.3176947920440013,0.0011617237738851271
970,970,-0.06963671377814729,-0.1,1,286.0,627.0,1.0,217.0,1,0.8964394272859844,0.004639845342026597
971,971,0.8358913345964831,0.8,0,353.0,621.0,0.0,216.0,1,0.8973209335787933,0.0034716876967215773
972,972,0.9798522060170651,1.0,0,388.0,750.0,0.0,382.0,1,0.07484983767761266,0.0003157104633398011
973,973,-0.8766797912885127,-0.9,1,475.0,595.0,1.0,660.0,1,0.24205173065579133,0.0032258909910300175
974,974,-0.5470707834195394,-0.5,1,364.0,715.0,1.0,251.0,1,0.40718704420495677,0.004332884985681511
975,975,-0.5538025854411401,-0.6,1,387.0,579.0,1.0,254.0,1,0.5869322165402562,0.0005993786818460806
976,976,0.6402496907354462,0.6,0,369.0,843.0,0.0,368.0,1,0.27920173966879114,0.0035133840365528892
977,977,0.8250016770295612,0.8,0,370.0,702.0,0.0,198.0,1,0.6539685995433565,0.00327516379705163
978,978,0.5724646253209242,0.6,0,346.0,804.0,0.0,500.0,1,0.5550595050340008,9.898569791431112e-06
979,979,-0.05438314106298403,-0.1,1,379.0,601.0,1.0,420.0,1,0.3358239296468355,0.0016823603885573108
980,980,-0.3583543270873304,-0.4,1,354.0,550.0,0.0,286.0,0,0.4388803369791284,0.004780918427957552
981,981,-0.265346965850219,-0.3,1,391.0,549.0,1.0,250.0,1,0.683611247991173,0.0047748483402375586
982,982,-0.3407525472120454,-0.3,1,483.0,968.0,1.0,689.0,1,0.1069595246888313,0.0017517054639957052
983,983,0.7894761528441405,0.8,0,431.0,872.0,0.0,347.0,1,0.20978066093198355,0.004562323978750106
984,984,-0.2481240045193307,-0.2,1,311.0,594.0,1.0,595.0,1,0.27511742185645416,0.0006317115217857527
985,985,-0.2742565820976808,-0.3,1,468.0,526.0,1.0,626.0,1,0.5080445284508264,0.0006648784197447272
986,986,0.014840249201283129,0.0,0,432.0,888.0,0.0,430.0,1,0.4605282357987279,0.0008251085031771705
987,987,0.5270654605123575,0.5,0,355.0,506.0,0.0,309.0,1,0.6982665580627312,0.0010462904632927079
988,988,-0.3933059017049716,-0.4,1,401.0,823.0,1.0,856.0,1,0.7541125827180132,0.0005462759178096971
989,989,0.619119488057758,0.6,0,367.0,687.0,0.0,326.0,1,0.2502225541376385,0.003592656356944523
990,990,0.49860768334374006,0.5,0,362.0,672.0,0.0,256.0,1,0.8206080144178866,0.0030136623478449953
991,991,-0.374334611061399,-0.4,1,263.0,637.0,1.0,300.0,1,0.9918152671077447,0.0032456845402450913
992,992,0.06970318026815892,0.1,0,257.0,682.0,0.0,341.0,1,0.6360135418958076,0.002690539537843787
993,993,0.12794823887623807,0.1,0,448.0,867.0,1.0,435.0,0,0.5186558072701698,0.0038779724875674516
994,994,0.4203650988151526,0.4,0,453.0,912.0,0.0,425.0,1,0.6122700526865419,0.0019028392265309536
995,995,-0.8529923224854885,-0.9,1,407.0,863.0,1.0,370.0,1,0.06521267540062792,0.003966193805584525
996,996,0.6661889671619412,0.7,0,383.0,519.0,0.0,358.0,1,0.5091259532845175,0.004126102381551441
997,997,-0.47726884375371315,-0.5,1,250.0,694.0,1.0,336.0,1,0.8119920922637899,0.0023928301470505565
998,998,-0.5991397382323291,-0.6,1,443.0,865.0,1.0,232.0,1,0.44602338956482435,0.0042811810634002185
999,999,0.2916697494483782,0.3,0,415.0,864.0,0.0,801.0,1,0.29872867874864983,0.0009164937168800175
1000,1000,0.8799705923834968,0.9,0,384.0,625.0,0.0,241.0,1,0.6068831945621668,0.004641410922047486
1001,1001,0.1816457451393314,0.2,0,251.0,534.0,0.0,335.0,1,0.8281082097459536,0.0017741555458116664
1002,1002,-0.20180751160349764,-0.2,1,327.0,720.0,1.0,593.0,1,0.4991827552734326,0.0006569271678572975
1003,1003,-0.8153699647505261,-0.8,1,264.0,742.0,1.0,324.0,1,0.29167973866768515,0.0035459223725535826
1004,1004,0.35006167206497807,0.4,0,297.0,745.0,0.0,368.0,1,0.8579468580001245,0.003153100937704912
1005,1005,-0.319674939268495,-0.3,1,361.0,770.0,1.0,349.0,1,0.5658821880166715,0.0003130530361872608
1006,1006,0.36067041792850874,0.4,0,489.0,778.0,0.0,513.0,1,0.5831742911048665,0.004728372261766053
1007,1007,-0.6707267926663514,-0.7,1,253.0,846.0,1.0,241.0,1,0.6487548297732838,0.00286885618175017
1008,1008,-0.05692396008064726,-0.1,1,452.0,717.0,0.0,3831.0,0,0.5383262701594961,0.00498132992736818
