,trial,coherence,coherence_bin,correct_side,target_onset,checker_onset,decision,decision_time,correct_decision
0,0,0.9998730331560111,1.0,0,487.0,628.0,0.0,275.0,1
1,1,-0.48544505904306123,-0.5,1,326.0,547.0,1.0,237.0,1
2,2,-0.5755854071056685,-0.6,1,376.0,516.0,1.0,208.0,1
3,3,0.695699418836548,0.7,0,437.0,812.0,0.0,301.0,1
4,4,-0.9905233905573485,-1.0,1,342.0,534.0,1.0,324.0,1
5,5,0.994531868534607,1.0,0,355.0,886.0,0.0,339.0,1
6,6,0.9922572176479922,1.0,0,462.0,924.0,0.0,394.0,1
7,7,-0.31713729770300225,-0.3,1,260.0,921.0,1.0,379.0,1
8,8,-0.32791703571705044,-0.3,1,327.0,815.0,1.0,858.0,1
9,9,-0.27501055669208885,-0.3,1,351.0,961.0,1.0,1028.0,1
10,10,-0.18279189080761982,-0.2,1,325.0,734.0,1.0,1271.0,1
11,11,-0.8998136447278546,-0.9,1,306.0,616.0,1.0,688.0,1
12,12,-0.7884493259546701,-0.8,1,340.0,725.0,1.0,535.0,1
13,13,-0.9644346456598383,-1.0,1,377.0,677.0,1.0,226.0,1
14,14,-0.8350468263427981,-0.8,1,477.0,671.0,1.0,212.0,1
15,15,-0.5607578263186284,-0.6,1,290.0,549.0,1.0,901.0,1
16,16,-0.957110956100605,-1.0,1,368.0,719.0,1.0,113.0,1
17,17,-0.48379892723622886,-0.5,1,438.0,715.0,1.0,257.0,1
18,18,-0.2613722916200405,-0.3,1,414.0,993.0,1.0,213.0,1
19,19,0.1358614372869822,0.1,0,469.0,694.0,0.0,737.0,1
20,20,0.036496916109384436,0.0,0,425.0,737.0,0.0,1448.0,1
21,21,-0.668796021124372,-0.7,1,385.0,686.0,1.0,309.0,1
22,22,0.8470851465999814,0.8,0,295.0,520.0,0.0,355.0,1
23,23,-0.6253111688968807,-0.6,1,337.0,894.0,1.0,499.0,1
24,24,-0.011226719576648891,-0.0,1,478.0,749.0,0.0,1043.0,0
25,25,-0.11605555749498797,-0.1,1,312.0,633.0,0.0,565.0,0
26,26,0.3876434142548262,0.4,0,251.0,702.0,0.0,207.0,1
27,27,0.6501825149919267,0.7,0,306.0,712.0,0.0,292.0,1
28,28,-0.37897445590367873,-0.4,1,296.0,871.0,1.0,493.0,1
29,29,-0.49088895130316756,-0.5,1,387.0,749.0,1.0,314.0,1
30,30,-0.9833897857447891,-1.0,1,496.0,547.0,1.0,697.0,1
31,31,0.2018209300022904,0.2,0,326.0,669.0,0.0,645.0,1
32,32,0.489290469537752,0.5,0,364.0,710.0,0.0,406.0,1
33,33,-0.23204264055907986,-0.2,1,291.0,633.0,1.0,246.0,1
34,34,0.35033188232887347,0.4,0,435.0,694.0,0.0,361.0,1
35,35,-0.518931042727969,-0.5,1,443.0,893.0,1.0,214.0,1
36,36,0.3265299451569976,0.3,0,293.0,807.0,0.0,490.0,1
37,37,-0.6743973064603919,-0.7,1,421.0,738.0,1.0,241.0,1
38,38,-0.2544708145784822,-0.3,1,427.0,844.0,1.0,659.0,1
39,39,0.8416224041354474,0.8,0,335.0,767.0,0.0,178.0,1
40,40,-0.1711553826715062,-0.2,1,255.0,785.0,1.0,310.0,1
41,41,-0.5057506649003549,-0.5,1,329.0,843.0,1.0,638.0,1
42,42,-0.616745544467457,-0.6,1,455.0,950.0,1.0,545.0,1
43,43,-0.754055569342253,-0.8,1,468.0,660.0,1.0,462.0,1
44,44,0.16840355598178425,0.2,0,404.0,708.0,0.0,628.0,1
45,45,-0.6126988211921134,-0.6,1,354.0,663.0,1.0,283.0,1
46,46,-0.13699355370371613,-0.1,1,384.0,855.0,1.0,721.0,1
47,47,-0.2285890674283737,-0.2,1,271.0,708.0,1.0,301.0,1
48,48,-0.8393034552482015,-0.8,1,304.0,894.0,1.0,302.0,1
49,49,0.5534689206255423,0.6,0,457.0,540.0,0.0,443.0,1
50,50,-0.961940094035288,-1.0,1,418.0,530.0,1.0,282.0,1
51,51,-0.508571988796034,-0.5,1,324.0,858.0,1.0,718.0,1
52,52,0.5426274259027724,0.5,0,478.0,694.0,0.0,248.0,1
53,53,0.216713873650217,0.2,0,342.0,651.0,0.0,307.0,1
54,54,0.8428588492412667,0.8,0,256.0,973.0,0.0,261.0,1
55,55,-0.7324850447626576,-0.7,1,268.0,670.0,1.0,322.0,1
56,56,-0.32862545452593617,-0.3,1,468.0,703.0,1.0,289.0,1
57,57,-0.9209179908314868,-0.9,1,378.0,857.0,1.0,305.0,1
58,58,0.9071170367610102,0.9,0,438.0,615.0,0.0,437.0,1
59,59,-0.2043892642363263,-0.2,1,455.0,554.0,1.0,1201.0,1
60,60,-0.7064070289291384,-0.7,1,339.0,667.0,1.0,244.0,1
61,61,0.5254812861467308,0.5,0,407.0,554.0,0.0,539.0,1
62,62,0.6649590196489759,0.7,0,410.0,956.0,0.0,394.0,1
63,63,-0.1289329980097953,-0.1,1,424.0,782.0,1.0,454.0,1
64,64,0.7487556169312126,0.7,0,476.0,888.0,0.0,226.0,1
65,65,0.2876202327214208,0.3,0,392.0,713.0,0.0,615.0,1
66,66,-0.7409834654184324,-0.7,1,373.0,854.0,1.0,703.0,1
67,67,0.6639817154732155,0.7,0,414.0,661.0,0.0,415.0,1
68,68,-0.15400167943784115,-0.2,1,317.0,836.0,0.0,2397.0,0
69,69,-0.10065426461395477,-0.1,1,394.0,757.0,1.0,389.0,1
70,70,-0.6675319324307996,-0.7,1,281.0,828.0,1.0,851.0,1
71,71,0.18684216987456082,0.2,0,434.0,509.0,0.0,367.0,1
72,72,-0.3085581051710178,-0.3,1,423.0,760.0,1.0,507.0,1
73,73,-0.4854594842903359,-0.5,1,420.0,811.0,1.0,849.0,1
74,74,-0.42059196870721904,-0.4,1,374.0,587.0,1.0,369.0,1
75,75,-0.633354149648343,-0.6,1,311.0,951.0,1.0,328.0,1
76,76,-0.9421961845229285,-0.9,1,445.0,716.0,1.0,179.0,1
77,77,-0.42814279713608516,-0.4,1,385.0,927.0,1.0,288.0,1
78,78,0.7065349830083527,0.7,0,340.0,591.0,0.0,289.0,1
79,79,0.1590437501148394,0.2,0,427.0,877.0,0.0,2226.0,1
80,80,0.8133085272679375,0.8,0,438.0,656.0,0.0,176.0,1
81,81,0.6004255274894206,0.6,0,366.0,553.0,0.0,331.0,1
82,82,-0.1457072496488605,-0.1,1,373.0,802.0,1.0,825.0,1
83,83,0.38096044643177684,0.4,0,281.0,521.0,0.0,448.0,1
84,84,-0.6926340075197472,-0.7,1,415.0,906.0,1.0,329.0,1
85,85,-0.41130109886517463,-0.4,1,414.0,740.0,1.0,216.0,1
86,86,-0.6867832558360201,-0.7,1,433.0,533.0,1.0,204.0,1
87,87,-0.2351179631653102,-0.2,1,459.0,732.0,1.0,709.0,1
88,88,-0.5833781242666516,-0.6,1,498.0,962.0,1.0,510.0,1
89,89,-0.3228289313349306,-0.3,1,401.0,967.0,1.0,782.0,1
90,90,-0.9653653446579908,-1.0,1,319.0,605.0,1.0,466.0,1
91,91,-0.44119789580225555,-0.4,1,294.0,835.0,1.0,881.0,1
92,92,-0.5374597042622153,-0.5,1,317.0,773.0,1.0,340.0,1
93,93,-0.544460799291997,-0.5,1,262.0,544.0,1.0,474.0,1
94,94,-0.7043713690544346,-0.7,1,355.0,505.0,1.0,140.0,1
95,95,0.4061541641753601,0.4,0,473.0,787.0,0.0,570.0,1
96,96,-0.7506911849627818,-0.8,1,463.0,844.0,1.0,393.0,1
97,97,-0.015132432599026524,-0.0,1,290.0,797.0,0.0,2823.0,0
98,98,0.7372461902328722,0.7,0,476.0,531.0,0.0,223.0,1
99,99,-0.026959461256333972,-0.0,1,341.0,648.0,0.0,311.0,0
100,100,-0.8628759602710336,-0.9,1,487.0,973.0,1.0,220.0,1
101,101,-0.8330596446610643,-0.8,1,284.0,667.0,1.0,339.0,1
102,102,-0.14257107487123144,-0.1,1,431.0,924.0,1.0,395.0,1
103,103,-0.7930953412302502,-0.8,1,290.0,871.0,1.0,229.0,1
104,104,-0.6722951082241522,-0.7,1,397.0,678.0,1.0,285.0,1
105,105,-0.003300917891832622,-0.0,1,417.0,823.0,0.0,1410.0,0
106,106,-0.4637275493886872,-0.5,1,478.0,962.0,1.0,530.0,1
107,107,-0.6719851846983096,-0.7,1,359.0,645.0,1.0,546.0,1
108,108,-0.18683921497107092,-0.2,1,311.0,980.0,0.0,909.0,0
109,109,0.08751355517915349,0.1,0,379.0,939.0,0.0,392.0,1
110,110,-0.3941459458903416,-0.4,1,433.0,620.0,1.0,287.0,1
111,111,-0.05762955922483459,-0.1,1,271.0,914.0,0.0,905.0,0
112,112,0.7339239190928866,0.7,0,433.0,601.0,0.0,246.0,1
113,113,0.5203361117509016,0.5,0,287.0,733.0,0.0,500.0,1
114,114,0.4183080603001921,0.4,0,384.0,631.0,0.0,435.0,1
115,115,0.7265518927109549,0.7,0,475.0,745.0,0.0,230.0,1
116,116,-0.731798985903447,-0.7,1,361.0,914.0,1.0,135.0,1
117,117,-0.6106915742916494,-0.6,1,433.0,721.0,1.0,266.0,1
118,118,0.22706741845418632,0.2,0,323.0,896.0,0.0,841.0,1
119,119,0.733161370483246,0.7,0,299.0,534.0,0.0,257.0,1
120,120,0.394347460538367,0.4,0,438.0,701.0,0.0,461.0,1
121,121,-0.8984270402467089,-0.9,1,364.0,773.0,1.0,913.0,1
122,122,0.22494907810507025,0.2,0,445.0,829.0,0.0,316.0,1
123,123,-0.7456364850000929,-0.7,1,400.0,712.0,1.0,378.0,1
124,124,-0.07329540341758611,-0.1,1,462.0,613.0,1.0,1225.0,1
125,125,-0.724804962238548,-0.7,1,384.0,924.0,1.0,372.0,1
126,126,0.5542114307751216,0.6,0,388.0,923.0,0.0,339.0,1
127,127,0.2625374039008941,0.3,0,365.0,854.0,0.0,271.0,1
128,128,-0.22270297282971674,-0.2,1,336.0,912.0,1.0,1172.0,1
129,129,-0.41944038746945833,-0.4,1,394.0,525.0,1.0,241.0,1
130,130,0.6992359924879332,0.7,0,385.0,694.0,0.0,301.0,1
131,131,0.9936359289845738,1.0,0,484.0,523.0,0.0,223.0,1
132,132,0.8644943310056472,0.9,0,309.0,743.0,0.0,188.0,1
133,133,-0.9742821875118042,-1.0,1,446.0,542.0,1.0,402.0,1
134,134,-0.8807967593215564,-0.9,1,464.0,745.0,1.0,231.0,1
135,135,-0.5916630504099243,-0.6,1,496.0,935.0,1.0,379.0,1
136,136,0.7928023269005762,0.8,0,251.0,914.0,0.0,365.0,1
137,137,0.9846283470887718,1.0,0,486.0,718.0,0.0,406.0,1
138,138,-0.6271559634689623,-0.6,1,411.0,748.0,1.0,141.0,1
139,139,-0.790025107809275,-0.8,1,304.0,524.0,1.0,432.0,1
140,140,-0.14936364147318404,-0.1,1,456.0,928.0,1.0,546.0,1
141,141,0.6237494643704984,0.6,0,459.0,719.0,0.0,272.0,1
142,142,0.47655823618758464,0.5,0,296.0,852.0,0.0,352.0,1
143,143,0.09267753267129764,0.1,0,432.0,976.0,0.0,2282.0,1
144,144,-0.03770076686258528,-0.0,1,413.0,666.0,1.0,781.0,1
145,145,-0.07875210100344288,-0.1,1,484.0,623.0,1.0,1793.0,1
146,146,0.5272369953988356,0.5,0,392.0,715.0,0.0,263.0,1
147,147,-0.6627003911629865,-0.7,1,264.0,741.0,1.0,415.0,1
148,148,0.04669638669355192,0.0,0,296.0,556.0,0.0,338.0,1
149,149,-0.17635784945897837,-0.2,1,309.0,569.0,0.0,942.0,0
150,150,0.24364431119959407,0.2,0,350.0,712.0,0.0,838.0,1
151,151,0.9711467134600069,1.0,0,381.0,910.0,0.0,279.0,1
152,152,-0.3012611654319999,-0.3,1,342.0,785.0,1.0,973.0,1
153,153,0.17585805341925886,0.2,0,440.0,988.0,0.0,342.0,1
154,154,-0.263613323090931,-0.3,1,392.0,908.0,1.0,860.0,1
155,155,0.4582297516898439,0.5,0,277.0,712.0,0.0,351.0,1
156,156,0.8391818728617664,0.8,0,352.0,967.0,0.0,251.0,1
157,157,0.5081351101529583,0.5,0,487.0,679.0,0.0,184.0,1
158,158,0.031052044362909426,0.0,0,326.0,755.0,0.0,309.0,1
159,159,-0.21911826203626372,-0.2,1,444.0,760.0,1.0,306.0,1
160,160,-0.8101661880764948,-0.8,1,422.0,954.0,1.0,184.0,1
161,161,0.42127030094284756,0.4,0,481.0,648.0,0.0,611.0,1
162,162,0.7146723638489154,0.7,0,406.0,684.0,0.0,610.0,1
163,163,0.021649956764857148,0.0,0,442.0,766.0,0.0,1692.0,1
164,164,0.8138198912462575,0.8,0,347.0,957.0,0.0,746.0,1
165,165,-0.37235553050738446,-0.4,1,379.0,842.0,1.0,689.0,1
166,166,-0.3877023460832314,-0.4,1,440.0,748.0,1.0,422.0,1
167,167,0.4522648280135684,0.5,0,343.0,632.0,0.0,225.0,1
168,168,-0.08021062448093774,-0.1,1,288.0,532.0,1.0,490.0,1
169,169,-0.0884130856162102,-0.1,1,380.0,651.0,1.0,409.0,1
170,170,-0.19393157192747168,-0.2,1,414.0,832.0,1.0,2464.0,1
171,171,0.2619776372413085,0.3,0,460.0,846.0,0.0,224.0,1
172,172,-0.4531165633032386,-0.5,1,448.0,598.0,1.0,854.0,1
173,173,-0.3499459868661301,-0.3,1,313.0,701.0,1.0,1076.0,1
174,174,-0.553173782803918,-0.6,1,425.0,698.0,1.0,307.0,1
175,175,0.8334852754230528,0.8,0,496.0,645.0,0.0,399.0,1
176,176,0.24004724442973502,0.2,0,484.0,872.0,0.0,1394.0,1
177,177,-0.30480120136861344,-0.3,1,453.0,554.0,1.0,383.0,1
178,178,0.021632551848642656,0.0,0,267.0,851.0,0.0,582.0,1
179,179,-0.8635861557317928,-0.9,1,486.0,952.0,1.0,262.0,1
180,180,0.5638213190819945,0.6,0,413.0,808.0,0.0,459.0,1
181,181,-0.6366414196793264,-0.6,1,391.0,957.0,1.0,162.0,1
182,182,0.2966736999389632,0.3,0,435.0,820.0,0.0,455.0,1
183,183,-0.6535150785709938,-0.7,1,282.0,509.0,1.0,319.0,1
184,184,-0.8306222522793798,-0.8,1,440.0,733.0,1.0,737.0,1
185,185,-0.12625764877893442,-0.1,1,400.0,982.0,1.0,478.0,1
186,186,0.07135647280152702,0.1,0,446.0,560.0,0.0,1484.0,1
187,187,-0.790830019038733,-0.8,1,334.0,537.0,1.0,289.0,1
188,188,-0.7736584099570876,-0.8,1,425.0,632.0,1.0,353.0,1
189,189,-0.9336134890851231,-0.9,1,415.0,981.0,1.0,224.0,1
190,190,0.754062214267041,0.8,0,405.0,911.0,0.0,294.0,1
191,191,-0.2868612644908808,-0.3,1,268.0,877.0,1.0,715.0,1
192,192,0.41309904664147523,0.4,0,252.0,929.0,0.0,389.0,1
193,193,0.08641711271381758,0.1,0,484.0,942.0,0.0,1154.0,1
194,194,-0.35181894237206435,-0.4,1,305.0,676.0,1.0,219.0,1
195,195,0.42209348685633286,0.4,0,475.0,895.0,0.0,330.0,1
196,196,0.5406552873573414,0.5,0,253.0,822.0,0.0,265.0,1
197,197,0.9553406262425681,1.0,0,358.0,644.0,0.0,388.0,1
198,198,-0.9603459931466176,-1.0,1,417.0,962.0,1.0,421.0,1
199,199,-0.750889319856445,-0.8,1,385.0,626.0,1.0,989.0,1
200,200,0.46711587808946975,0.5,0,289.0,787.0,0.0,264.0,1
201,201,0.7523014029384296,0.8,0,255.0,953.0,0.0,182.0,1
202,202,0.6682314068775357,0.7,0,402.0,610.0,0.0,388.0,1
203,203,-0.9567006903295441,-1.0,1,352.0,741.0,1.0,117.0,1
204,204,0.48386028453277286,0.5,0,403.0,854.0,0.0,383.0,1
205,205,0.8509030782217868,0.9,0,344.0,548.0,0.0,268.0,1
206,206,0.48276062019814114,0.5,0,346.0,726.0,0.0,368.0,1
207,207,-0.38826190694077045,-0.4,1,382.0,881.0,1.0,957.0,1
208,208,0.19095368411387192,0.2,0,438.0,586.0,0.0,956.0,1
209,209,-0.4436502161367224,-0.4,1,297.0,891.0,1.0,332.0,1
210,210,0.9592007251564947,1.0,0,336.0,547.0,0.0,417.0,1
211,211,0.9095274813567509,0.9,0,285.0,734.0,0.0,261.0,1
212,212,-0.8964719357301614,-0.9,1,444.0,782.0,1.0,194.0,1
213,213,0.5868108146490927,0.6,0,337.0,524.0,0.0,269.0,1
214,214,0.3425176950236153,0.3,0,322.0,612.0,0.0,616.0,1
215,215,0.8492461121713257,0.8,0,271.0,988.0,0.0,461.0,1
216,216,-0.645068101247946,-0.6,1,269.0,712.0,1.0,349.0,1
217,217,-0.363486799820397,-0.4,1,341.0,698.0,1.0,1831.0,1
218,218,0.035627299970480975,0.0,0,307.0,961.0,0.0,1192.0,1
219,219,0.22264026128817394,0.2,0,451.0,973.0,0.0,306.0,1
220,220,-0.18388949443238367,-0.2,1,261.0,629.0,1.0,440.0,1
221,221,0.4101300918946087,0.4,0,319.0,805.0,0.0,286.0,1
222,222,-0.5392986003737825,-0.5,1,357.0,514.0,1.0,319.0,1
223,223,0.11883320937928299,0.1,0,429.0,559.0,0.0,642.0,1
224,224,-0.403448880048211,-0.4,1,344.0,797.0,1.0,939.0,1
225,225,0.0456396376649264,0.0,0,487.0,845.0,0.0,698.0,1
226,226,0.1452903936947869,0.1,0,294.0,590.0,0.0,1446.0,1
227,227,-0.7907774388781663,-0.8,1,387.0,915.0,1.0,328.0,1
228,228,-0.8808887568135617,-0.9,1,470.0,661.0,1.0,689.0,1
229,229,-0.16585475414426432,-0.2,1,328.0,931.0,1.0,1581.0,1
230,230,-0.5924218015468867,-0.6,1,410.0,583.0,1.0,327.0,1
231,231,0.5392781351443034,0.5,0,312.0,838.0,0.0,350.0,1
232,232,-0.7488718435170161,-0.7,1,319.0,872.0,1.0,429.0,1
233,233,-0.5393640669520066,-0.5,1,408.0,639.0,1.0,463.0,1
234,234,0.412392500133403,0.4,0,370.0,812.0,0.0,298.0,1
235,235,0.12854671618990965,0.1,0,369.0,696.0,0.0,505.0,1
236,236,-0.08377032251807992,-0.1,1,393.0,515.0,1.0,432.0,1
237,237,0.14055276184280374,0.1,0,422.0,723.0,0.0,1195.0,1
238,238,0.41768610288501784,0.4,0,413.0,959.0,0.0,1598.0,1
239,239,-0.6423279361403429,-0.6,1,336.0,756.0,1.0,498.0,1
240,240,-0.5195160893055217,-0.5,1,264.0,661.0,1.0,575.0,1
241,241,0.7797440496746137,0.8,0,290.0,739.0,0.0,281.0,1
242,242,-0.6165596541069776,-0.6,1,354.0,974.0,1.0,302.0,1
243,243,0.323373387229382,0.3,0,358.0,575.0,0.0,1037.0,1
244,244,-0.2239569414188911,-0.2,1,452.0,915.0,1.0,383.0,1
245,245,-0.620602035334985,-0.6,1,423.0,606.0,1.0,331.0,1
246,246,-0.05641275334286,-0.1,1,450.0,680.0,1.0,670.0,1
247,247,-0.8888095896473929,-0.9,1,390.0,989.0,1.0,351.0,1
248,248,-0.7581221224693422,-0.8,1,343.0,947.0,1.0,920.0,1
249,249,-0.27082328190886873,-0.3,1,433.0,744.0,1.0,523.0,1
250,250,0.21781630222595671,0.2,0,401.0,794.0,0.0,385.0,1
251,251,-0.9509340206921546,-1.0,1,428.0,508.0,1.0,304.0,1
252,252,-0.9914796631283498,-1.0,1,461.0,685.0,1.0,994.0,1
253,253,-0.9913165838905245,-1.0,1,310.0,695.0,1.0,205.0,1
254,254,-0.5888298507543464,-0.6,1,317.0,851.0,1.0,292.0,1
255,255,0.5581772964821199,0.6,0,387.0,928.0,0.0,475.0,1
256,256,0.22942701184061853,0.2,0,424.0,965.0,0.0,841.0,1
257,257,0.8566091527422806,0.9,0,442.0,781.0,0.0,717.0,1
258,258,-0.2527141413349685,-0.3,1,331.0,926.0,1.0,1023.0,1
259,259,0.30714223165398713,0.3,0,392.0,667.0,0.0,451.0,1
260,260,-0.5240822281194963,-0.5,1,312.0,724.0,1.0,314.0,1
261,261,0.387701091194776,0.4,0,432.0,882.0,0.0,606.0,1
262,262,0.5702121557596942,0.6,0,304.0,841.0,0.0,275.0,1
263,263,0.760259154426354,0.8,0,255.0,924.0,0.0,151.0,1
264,264,-0.028757152394824237,-0.0,1,402.0,669.0,0.0,1189.0,0
265,265,-0.24150813652607073,-0.2,1,333.0,962.0,1.0,1545.0,1
266,266,0.08153316896507534,0.1,0,475.0,909.0,0.0,1286.0,1
267,267,-0.9255128143017866,-0.9,1,256.0,754.0,1.0,490.0,1
268,268,-0.24900388307941057,-0.2,1,263.0,896.0,1.0,451.0,1
269,269,0.2522135257667668,0.3,0,401.0,700.0,0.0,279.0,1
270,270,-0.8379806508695948,-0.8,1,451.0,976.0,1.0,243.0,1
271,271,0.03272753355521907,0.0,0,329.0,544.0,0.0,607.0,1
272,272,-0.7713223832565608,-0.8,1,454.0,881.0,1.0,255.0,1
273,273,-0.0985216352038083,-0.1,1,340.0,755.0,0.0,3905.0,0
274,274,-0.035037801308289485,-0.0,1,278.0,784.0,0.0,438.0,0
275,275,-0.49852788952233973,-0.5,1,443.0,817.0,1.0,320.0,1
276,276,0.8166421297386739,0.8,0,385.0,815.0,0.0,350.0,1
277,277,-0.9269900502384305,-0.9,1,327.0,874.0,1.0,499.0,1
278,278,0.09367206805090067,0.1,0,322.0,920.0,0.0,388.0,1
279,279,-0.10834505889894208,-0.1,1,282.0,587.0,0.0,491.0,0
280,280,0.26224859503421016,0.3,0,379.0,615.0,0.0,576.0,1
281,281,-0.16962870644755124,-0.2,1,324.0,890.0,1.0,746.0,1
282,282,-0.2374580751782256,-0.2,1,395.0,507.0,1.0,888.0,1
283,283,-0.13911769203203028,-0.1,1,494.0,738.0,1.0,378.0,1
284,284,-0.6113273522548615,-0.6,1,293.0,777.0,1.0,330.0,1
285,285,0.1890461444407825,0.2,0,292.0,978.0,0.0,450.0,1
286,286,-0.5410787517661202,-0.5,1,469.0,635.0,1.0,546.0,1
287,287,0.4292575440505213,0.4,0,387.0,799.0,0.0,354.0,1
288,288,0.8600854935324505,0.9,0,348.0,924.0,0.0,148.0,1
289,289,0.8480171795946148,0.8,0,443.0,978.0,0.0,269.0,1
290,290,-0.30129085183044224,-0.3,1,342.0,612.0,1.0,1496.0,1
291,291,-0.6838077311597086,-0.7,1,491.0,793.0,1.0,176.0,1
292,292,-0.6017972996468777,-0.6,1,425.0,664.0,1.0,561.0,1
293,293,-0.10070340318799675,-0.1,1,460.0,716.0,1.0,374.0,1
294,294,-0.6319230099206932,-0.6,1,439.0,815.0,1.0,706.0,1
295,295,0.9361448961737437,0.9,0,302.0,810.0,0.0,198.0,1
296,296,0.30600369145462336,0.3,0,401.0,718.0,0.0,251.0,1
297,297,0.5267225311385559,0.5,0,340.0,602.0,0.0,288.0,1
298,298,0.7027332470338095,0.7,0,331.0,527.0,0.0,362.0,1
299,299,-0.5643525050534826,-0.6,1,288.0,741.0,1.0,441.0,1
300,300,-0.18031540343319352,-0.2,1,325.0,785.0,1.0,3610.0,1
301,301,-0.9697278177259052,-1.0,1,372.0,515.0,1.0,163.0,1
302,302,-0.7567975016360218,-0.8,1,296.0,638.0,1.0,576.0,1
303,303,-0.6158869085829564,-0.6,1,338.0,706.0,1.0,226.0,1
304,304,0.5044033519713094,0.5,0,411.0,874.0,0.0,395.0,1
305,305,-0.22658744760075078,-0.2,1,395.0,998.0,1.0,207.0,1
306,306,0.5275302954891496,0.5,0,292.0,894.0,0.0,264.0,1
307,307,-0.9618456040413459,-1.0,1,496.0,524.0,1.0,260.0,1
308,308,0.6852504331675253,0.7,0,418.0,722.0,0.0,360.0,1
309,309,0.62184538572718,0.6,0,389.0,730.0,0.0,331.0,1
310,310,0.1338021285343094,0.1,0,457.0,587.0,0.0,3456.0,1
311,311,-0.8664514312214959,-0.9,1,330.0,691.0,1.0,499.0,1
312,312,0.46996082640293535,0.5,0,354.0,954.0,0.0,262.0,1
313,313,-0.0641008820595137,-0.1,1,256.0,533.0,1.0,4211.0,1
314,314,-0.7685909353632479,-0.8,1,282.0,584.0,1.0,424.0,1
315,315,-0.2974696152002241,-0.3,1,410.0,876.0,1.0,644.0,1
316,316,-0.7410829070403533,-0.7,1,458.0,654.0,1.0,1228.0,1
317,317,0.7909389101663082,0.8,0,415.0,637.0,0.0,328.0,1
318,318,-0.6071850262314122,-0.6,1,407.0,798.0,1.0,215.0,1
319,319,-0.19320961216495736,-0.2,1,360.0,977.0,1.0,393.0,1
320,320,0.5091830352878881,0.5,0,366.0,893.0,0.0,461.0,1
321,321,-0.7692164173149849,-0.8,1,456.0,716.0,1.0,168.0,1
322,322,0.49748672346099543,0.5,0,388.0,948.0,0.0,254.0,1
323,323,-0.7647948593985814,-0.8,1,326.0,699.0,1.0,655.0,1
324,324,0.6896686642294505,0.7,0,311.0,772.0,0.0,297.0,1
325,325,0.13456104377515654,0.1,0,298.0,861.0,0.0,901.0,1
326,326,0.09178182214037234,0.1,0,499.0,758.0,0.0,593.0,1
327,327,0.9127292435712056,0.9,0,361.0,675.0,0.0,344.0,1
328,328,0.5947731402867735,0.6,0,384.0,807.0,0.0,299.0,1
329,329,0.7082660397166369,0.7,0,293.0,940.0,0.0,307.0,1
330,330,-0.07333565455546132,-0.1,1,368.0,544.0,0.0,698.0,0
331,331,0.7754649654336463,0.8,0,316.0,818.0,0.0,156.0,1
332,332,0.8867342034817776,0.9,0,295.0,749.0,0.0,316.0,1
333,333,0.8851706215188524,0.9,0,425.0,985.0,0.0,330.0,1
334,334,0.2875208678393062,0.3,0,435.0,640.0,0.0,305.0,1
335,335,-0.21393480703193957,-0.2,1,256.0,675.0,0.0,239.0,0
336,336,0.7163300359144869,0.7,0,284.0,909.0,0.0,327.0,1
337,337,0.2889156511092368,0.3,0,494.0,678.0,0.0,338.0,1
338,338,-0.4565980567806167,-0.5,1,414.0,721.0,1.0,615.0,1
339,339,0.5613460739168015,0.6,0,281.0,847.0,0.0,252.0,1
340,340,-0.5319490208843387,-0.5,1,426.0,809.0,1.0,205.0,1
341,341,0.1972871235241822,0.2,0,489.0,881.0,0.0,330.0,1
342,342,-0.6184131824870478,-0.6,1,379.0,762.0,1.0,319.0,1
343,343,0.7871995531417717,0.8,0,476.0,561.0,0.0,283.0,1
344,344,0.7696618182089683,0.8,0,400.0,752.0,0.0,318.0,1
345,345,-0.3806504628330605,-0.4,1,397.0,942.0,1.0,481.0,1
346,346,-0.0825275377062038,-0.1,1,291.0,502.0,1.0,247.0,1
347,347,-0.46736577503545407,-0.5,1,278.0,662.0,1.0,630.0,1
348,348,0.20328330597561672,0.2,0,397.0,633.0,0.0,540.0,1
349,349,0.13682300557946858,0.1,0,349.0,801.0,0.0,400.0,1
350,350,-0.28382230304903033,-0.3,1,341.0,889.0,1.0,840.0,1
351,351,-0.7378713845719189,-0.7,1,290.0,827.0,1.0,313.0,1
352,352,0.9570758930695344,1.0,0,451.0,588.0,0.0,261.0,1
353,353,0.8563825699187544,0.9,0,463.0,669.0,0.0,288.0,1
354,354,0.4471150209213943,0.4,0,269.0,998.0,0.0,353.0,1
355,355,-0.2804265331650968,-0.3,1,497.0,537.0,1.0,776.0,1
356,356,0.15377341732901262,0.2,0,283.0,646.0,0.0,1201.0,1
357,357,-0.295231120301652,-0.3,1,339.0,713.0,1.0,658.0,1
358,358,-0.576113936190477,-0.6,1,323.0,776.0,1.0,621.0,1
359,359,0.6220374463189322,0.6,0,434.0,906.0,0.0,500.0,1
360,360,-0.24890131684258554,-0.2,1,376.0,569.0,1.0,1515.0,1
361,361,-0.7283173772744791,-0.7,1,341.0,587.0,1.0,402.0,1
362,362,-0.0847449819556858,-0.1,1,250.0,911.0,0.0,759.0,0
363,363,0.11221203373020328,0.1,0,406.0,811.0,0.0,553.0,1
364,364,-0.5851762911799505,-0.6,1,318.0,729.0,1.0,463.0,1
365,365,0.08158374383461164,0.1,0,313.0,773.0,0.0,724.0,1
366,366,0.5270830667254056,0.5,0,344.0,930.0,0.0,356.0,1
367,367,-0.8304156432056069,-0.8,1,401.0,597.0,1.0,292.0,1
368,368,0.019562847627405677,0.0,0,443.0,874.0,0.0,1253.0,1
369,369,-0.8454262080083901,-0.8,1,266.0,988.0,1.0,326.0,1
370,370,0.9702273298957456,1.0,0,262.0,561.0,0.0,317.0,1
371,371,0.4899368635761996,0.5,0,260.0,522.0,0.0,268.0,1
372,372,0.40596621940062905,0.4,0,392.0,532.0,0.0,646.0,1
373,373,-0.4361825029564421,-0.4,1,326.0,771.0,1.0,273.0,1
374,374,0.863562019200623,0.9,0,287.0,522.0,0.0,591.0,1
375,375,0.723680451763776,0.7,0,276.0,889.0,0.0,535.0,1
376,376,-0.763841752613307,-0.8,1,306.0,522.0,1.0,232.0,1
377,377,-0.8686557968810737,-0.9,1,305.0,897.0,1.0,258.0,1
378,378,0.8849400747575222,0.9,0,445.0,699.0,0.0,226.0,1
379,379,0.25927008014264774,0.3,0,322.0,619.0,0.0,279.0,1
380,380,-0.3224023537288112,-0.3,1,283.0,690.0,1.0,297.0,1
381,381,-0.8464477313797958,-0.8,1,482.0,666.0,1.0,312.0,1
382,382,-0.887657732072656,-0.9,1,465.0,910.0,1.0,245.0,1
383,383,-0.9504342303880216,-1.0,1,357.0,936.0,1.0,657.0,1
384,384,0.7265052378193999,0.7,0,318.0,907.0,0.0,295.0,1
385,385,0.8642299484582463,0.9,0,385.0,934.0,0.0,211.0,1
386,386,-0.5490283026228688,-0.5,1,499.0,792.0,1.0,379.0,1
387,387,-0.02720263289164815,-0.0,1,434.0,508.0,1.0,238.0,1
388,388,0.4930799190344004,0.5,0,305.0,627.0,0.0,798.0,1
389,389,-0.4996657547132586,-0.5,1,297.0,861.0,1.0,1412.0,1
390,390,-0.3599824860909222,-0.4,1,313.0,759.0,1.0,778.0,1
391,391,-0.7557485092036058,-0.8,1,373.0,840.0,1.0,307.0,1
392,392,-0.5975282379391911,-0.6,1,301.0,727.0,1.0,252.0,1
393,393,0.634210757642339,0.6,0,479.0,765.0,0.0,286.0,1
394,394,0.266865272952288,0.3,0,318.0,779.0,0.0,453.0,1
395,395,0.6923077218973883,0.7,0,403.0,891.0,0.0,526.0,1
396,396,0.9416022519678566,0.9,0,314.0,946.0,0.0,420.0,1
397,397,0.1347816363878307,0.1,0,266.0,828.0,1.0,376.0,0
398,398,0.5641422908902665,0.6,0,348.0,802.0,0.0,390.0,1
399,399,0.993402708116883,1.0,0,341.0,839.0,0.0,230.0,1
400,400,-0.7641633786172084,-0.8,1,457.0,696.0,1.0,347.0,1
401,401,0.26344935856595275,0.3,0,306.0,768.0,0.0,436.0,1
402,402,-0.5790671216877523,-0.6,1,355.0,926.0,1.0,209.0,1
403,403,0.9321064336556506,0.9,0,404.0,979.0,0.0,307.0,1
404,404,0.45255846109682785,0.5,0,423.0,641.0,0.0,636.0,1
405,405,-0.9363978002147539,-0.9,1,269.0,571.0,1.0,310.0,1
406,406,0.32253019737696653,0.3,0,489.0,760.0,0.0,391.0,1
407,407,-0.020781657925569297,-0.0,1,462.0,839.0,0.0,539.0,0
408,408,-0.69525330678576,-0.7,1,425.0,674.0,1.0,231.0,1
409,409,-0.09110063046559325,-0.1,1,439.0,825.0,1.0,696.0,1
410,410,-0.41519460985951206,-0.4,1,337.0,996.0,1.0,407.0,1
411,411,0.02875136694483782,0.0,0,286.0,866.0,0.0,1568.0,1
412,412,0.4582400600108414,0.5,0,410.0,525.0,0.0,485.0,1
413,413,0.26744453413202685,0.3,0,419.0,690.0,0.0,791.0,1
414,414,-0.610138555535654,-0.6,1,391.0,578.0,1.0,171.0,1
415,415,-0.5934503515960856,-0.6,1,461.0,792.0,1.0,327.0,1
416,416,0.7094190116317014,0.7,0,483.0,869.0,0.0,248.0,1
417,417,-0.9092192691450458,-0.9,1,454.0,676.0,1.0,260.0,1
418,418,0.9656639693481333,1.0,0,319.0,855.0,0.0,286.0,1
419,419,0.8009460425897423,0.8,0,328.0,968.0,0.0,274.0,1
420,420,-0.9012898932296523,-0.9,1,308.0,541.0,1.0,501.0,1
421,421,-0.15954122405911209,-0.2,1,274.0,649.0,1.0,3307.0,1
422,422,0.36395541261287345,0.4,0,483.0,795.0,0.0,752.0,1
423,423,0.6509004381990333,0.7,0,434.0,506.0,0.0,380.0,1
424,424,0.7959242712214811,0.8,0,369.0,506.0,0.0,185.0,1
425,425,-0.450569977245155,-0.5,1,379.0,606.0,1.0,215.0,1
426,426,-0.6576602521628554,-0.7,1,449.0,567.0,1.0,244.0,1
427,427,0.47479031338434474,0.5,0,386.0,573.0,0.0,501.0,1
428,428,-0.3464050936591385,-0.3,1,253.0,505.0,1.0,812.0,1
429,429,-0.32917948943214004,-0.3,1,264.0,772.0,1.0,414.0,1
430,430,0.07708501427812586,0.1,0,283.0,790.0,0.0,1907.0,1
431,431,-0.34492890040919244,-0.3,1,284.0,981.0,1.0,295.0,1
432,432,-0.2787551793640122,-0.3,1,270.0,678.0,1.0,252.0,1
433,433,0.891404078260313,0.9,0,396.0,577.0,0.0,267.0,1
434,434,-0.6295431935637035,-0.6,1,335.0,534.0,1.0,431.0,1
435,435,-0.1803308150645868,-0.2,1,399.0,800.0,1.0,1031.0,1
436,436,-0.08023907070970804,-0.1,1,372.0,880.0,0.0,798.0,0
437,437,0.6684411175491041,0.7,0,441.0,726.0,0.0,293.0,1
438,438,-0.5674470978676363,-0.6,1,283.0,739.0,1.0,348.0,1
439,439,0.45965937078454755,0.5,0,445.0,501.0,0.0,634.0,1
440,440,0.19898160277581156,0.2,0,499.0,913.0,0.0,848.0,1
441,441,0.0673924735878999,0.1,0,347.0,905.0,0.0,1608.0,1
442,442,-0.8357702800430338,-0.8,1,269.0,957.0,1.0,414.0,1
443,443,-0.1495306157584413,-0.1,1,370.0,822.0,1.0,738.0,1
444,444,0.8057260727899538,0.8,0,320.0,887.0,0.0,823.0,1
445,445,-0.33833990301105654,-0.3,1,406.0,830.0,1.0,244.0,1
446,446,-0.1167292728723619,-0.1,1,422.0,608.0,0.0,1340.0,0
447,447,-0.7140566333194662,-0.7,1,460.0,984.0,1.0,356.0,1
448,448,-0.2374836582404285,-0.2,1,379.0,587.0,1.0,494.0,1
449,449,-0.4542940005587863,-0.5,1,384.0,763.0,1.0,793.0,1
450,450,-0.0662305945970445,-0.1,1,379.0,972.0,0.0,2329.0,0
451,451,0.10641972926143906,0.1,0,263.0,794.0,0.0,673.0,1
452,452,0.09920144209732662,0.1,0,381.0,715.0,0.0,524.0,1
453,453,-0.8756750425677897,-0.9,1,298.0,640.0,1.0,442.0,1
454,454,-0.5796042988289707,-0.6,1,311.0,911.0,1.0,248.0,1
455,455,-0.5084227521927565,-0.5,1,276.0,902.0,1.0,332.0,1
456,456,0.8689581985883479,0.9,0,467.0,615.0,0.0,388.0,1
457,457,-0.43265109210393393,-0.4,1,268.0,931.0,1.0,231.0,1
458,458,0.1832907313765566,0.2,0,411.0,921.0,0.0,388.0,1
459,459,-0.024943842025186846,-0.0,1,315.0,958.0,0.0,717.0,0
460,460,0.8072815107114868,0.8,0,321.0,773.0,0.0,286.0,1
461,461,0.6179783186721814,0.6,0,295.0,815.0,0.0,380.0,1
462,462,0.3770701474693454,0.4,0,468.0,882.0,0.0,540.0,1
463,463,-0.9345716465899243,-0.9,1,450.0,817.0,1.0,313.0,1
464,464,0.4937126444498645,0.5,0,380.0,586.0,0.0,514.0,1
465,465,0.9091285389360957,0.9,0,381.0,634.0,0.0,375.0,1
466,466,-0.2819821837109042,-0.3,1,474.0,899.0,1.0,297.0,1
467,467,-0.2157814126744253,-0.2,1,384.0,789.0,1.0,557.0,1
468,468,0.473006592905695,0.5,0,261.0,602.0,0.0,677.0,1
469,469,0.1746590812454758,0.2,0,316.0,936.0,0.0,488.0,1
470,470,-0.4171716521870059,-0.4,1,310.0,975.0,1.0,295.0,1
471,471,-0.9376826851328921,-0.9,1,258.0,675.0,1.0,277.0,1
472,472,-0.12201827417463251,-0.1,1,256.0,648.0,0.0,1676.0,0
473,473,0.196429684010468,0.2,0,425.0,984.0,0.0,271.0,1
474,474,-0.8176996870251505,-0.8,1,385.0,781.0,1.0,514.0,1
475,475,0.613066891265136,0.6,0,417.0,551.0,0.0,302.0,1
476,476,0.6874838750933479,0.7,0,326.0,981.0,0.0,203.0,1
477,477,-0.19817321583946979,-0.2,1,262.0,881.0,1.0,1887.0,1
478,478,-0.2796326764067576,-0.3,1,380.0,596.0,1.0,274.0,1
479,479,-0.032220033120358815,-0.0,1,379.0,713.0,1.0,538.0,1
480,480,0.4143123901486321,0.4,0,321.0,989.0,0.0,410.0,1
481,481,-0.8445784056266423,-0.8,1,343.0,698.0,1.0,339.0,1
482,482,-0.240202315806066,-0.2,1,448.0,807.0,1.0,635.0,1
483,483,0.6142138265086841,0.6,0,431.0,667.0,0.0,302.0,1
484,484,-0.8430065142672232,-0.8,1,289.0,645.0,1.0,416.0,1
485,485,0.7094028908608556,0.7,0,446.0,926.0,0.0,388.0,1
486,486,-0.014405438617472566,-0.0,1,310.0,667.0,1.0,513.0,1
487,487,-0.1898903086579491,-0.2,1,342.0,671.0,1.0,2477.0,1
488,488,0.4681006119031035,0.5,0,302.0,776.0,0.0,322.0,1
489,489,0.7920519397659691,0.8,0,456.0,890.0,0.0,224.0,1
490,490,0.8559937459468097,0.9,0,415.0,990.0,0.0,365.0,1
491,491,-0.33560935275827664,-0.3,1,307.0,911.0,1.0,522.0,1
492,492,-0.5368424478517151,-0.5,1,477.0,966.0,1.0,287.0,1
493,493,-0.526612160519637,-0.5,1,367.0,606.0,1.0,397.0,1
494,494,0.6920292687537408,0.7,0,398.0,870.0,0.0,222.0,1
495,495,0.23006572762057997,0.2,0,472.0,719.0,0.0,769.0,1
496,496,-0.2914375513594234,-0.3,1,382.0,897.0,1.0,901.0,1
497,497,-0.5912303481734662,-0.6,1,413.0,601.0,1.0,476.0,1
498,498,-0.4386581043099942,-0.4,1,277.0,734.0,1.0,209.0,1
499,499,-0.754599215522969,-0.8,1,294.0,608.0,1.0,378.0,1
500,500,0.5313014870598918,0.5,0,445.0,639.0,0.0,276.0,1
501,501,0.25103265667802876,0.3,0,385.0,840.0,0.0,325.0,1
502,502,-0.42099474621062405,-0.4,1,430.0,861.0,1.0,479.0,1
503,503,0.35344394359492104,0.4,0,355.0,558.0,0.0,307.0,1
504,504,0.827368629060842,0.8,0,362.0,541.0,0.0,427.0,1
505,505,-0.1211655992391707,-0.1,1,372.0,632.0,1.0,1596.0,1
506,506,0.25205720023415834,0.3,0,471.0,963.0,0.0,726.0,1
507,507,0.4531977063218333,0.5,0,434.0,838.0,0.0,378.0,1
508,508,0.21483842563477462,0.2,0,387.0,662.0,0.0,211.0,1
509,509,0.8532142556360152,0.9,0,338.0,707.0,0.0,115.0,1
510,510,-0.7292465735657754,-0.7,1,332.0,528.0,1.0,710.0,1
511,511,-0.3554404872400969,-0.4,1,272.0,849.0,1.0,739.0,1
512,512,0.7903170456792448,0.8,0,264.0,718.0,0.0,198.0,1
513,513,0.0913316899365082,0.1,0,312.0,738.0,0.0,430.0,1
514,514,0.10848409232937173,0.1,0,286.0,736.0,0.0,268.0,1
515,515,-0.4238842344670035,-0.4,1,271.0,913.0,1.0,246.0,1
516,516,-0.9572656271994024,-1.0,1,283.0,562.0,1.0,255.0,1
517,517,-0.3267800687987703,-0.3,1,445.0,946.0,1.0,649.0,1
518,518,-0.8558486621814032,-0.9,1,418.0,842.0,1.0,340.0,1
519,519,-0.23226655078826042,-0.2,1,357.0,761.0,1.0,1132.0,1
520,520,0.9600751096969786,1.0,0,333.0,887.0,0.0,260.0,1
521,521,-0.9886582979404734,-1.0,1,329.0,548.0,1.0,223.0,1
522,522,-0.7592370591146476,-0.8,1,268.0,814.0,1.0,438.0,1
523,523,0.46124275885351573,0.5,0,401.0,778.0,0.0,291.0,1
524,524,-0.33649716320954504,-0.3,1,468.0,787.0,1.0,655.0,1
525,525,0.5567683140126451,0.6,0,347.0,904.0,0.0,189.0,1
526,526,0.9117181606966367,0.9,0,498.0,592.0,0.0,430.0,1
527,527,0.478267285509393,0.5,0,455.0,917.0,0.0,298.0,1
528,528,-0.33263284459472464,-0.3,1,268.0,874.0,1.0,308.0,1
529,529,-0.5610371092817008,-0.6,1,280.0,502.0,1.0,358.0,1
530,530,0.6111889157598174,0.6,0,357.0,642.0,0.0,371.0,1
531,531,-0.8555856446903629,-0.9,1,423.0,571.0,1.0,406.0,1
532,532,-0.5387769026093596,-0.5,1,495.0,561.0,1.0,284.0,1
533,533,0.835179063650179,0.8,0,334.0,806.0,0.0,410.0,1
534,534,0.29332262233768835,0.3,0,362.0,714.0,0.0,464.0,1
535,535,0.7152595458802089,0.7,0,458.0,919.0,0.0,623.0,1
536,536,-0.7515074652839415,-0.8,1,362.0,800.0,1.0,308.0,1
537,537,-0.22205688663210355,-0.2,1,358.0,859.0,1.0,613.0,1
538,538,0.7386640478583351,0.7,0,262.0,598.0,0.0,280.0,1
539,539,0.3506501378483009,0.4,0,354.0,505.0,0.0,401.0,1
540,540,0.9325457819504417,0.9,0,398.0,572.0,0.0,280.0,1
541,541,0.009972082563483031,0.0,0,262.0,501.0,1.0,417.0,0
542,542,0.10446706247315074,0.1,0,367.0,746.0,1.0,377.0,0
543,543,0.48463079771383155,0.5,0,268.0,649.0,0.0,493.0,1
544,544,0.7661329107842925,0.8,0,260.0,517.0,0.0,323.0,1
545,545,0.4760856720334836,0.5,0,266.0,670.0,0.0,434.0,1
546,546,0.8934133485257651,0.9,0,455.0,916.0,0.0,379.0,1
547,547,-0.2814799816194844,-0.3,1,490.0,761.0,1.0,689.0,1
548,548,0.8932103280921821,0.9,0,450.0,669.0,0.0,231.0,1
549,549,0.4575928329886594,0.5,0,263.0,919.0,0.0,588.0,1
550,550,0.03183828744339712,0.0,0,477.0,681.0,0.0,2002.0,1
551,551,0.3981097677288359,0.4,0,384.0,770.0,0.0,406.0,1
552,552,-0.4860425127745607,-0.5,1,264.0,656.0,1.0,320.0,1
553,553,0.05118534835315458,0.1,0,456.0,939.0,0.0,3415.0,1
554,554,-0.1035144528683416,-0.1,1,351.0,622.0,1.0,587.0,1
555,555,0.2016601140784562,0.2,0,472.0,890.0,0.0,418.0,1
556,556,-0.8563883348575156,-0.9,1,305.0,671.0,1.0,274.0,1
557,557,0.6562266212283998,0.7,0,391.0,795.0,0.0,284.0,1
558,558,0.3349131638858678,0.3,0,348.0,995.0,0.0,537.0,1
559,559,0.27803930945769006,0.3,0,306.0,690.0,0.0,284.0,1
560,560,-0.9307822592539741,-0.9,1,400.0,634.0,1.0,606.0,1
561,561,0.4099659793736088,0.4,0,415.0,702.0,0.0,453.0,1
562,562,0.06682179964284685,0.1,0,364.0,868.0,0.0,618.0,1
563,563,-0.5707722139109137,-0.6,1,438.0,851.0,1.0,271.0,1
564,564,-0.8837235525834779,-0.9,1,290.0,849.0,1.0,181.0,1
565,565,0.4498191834276837,0.4,0,475.0,942.0,0.0,403.0,1
566,566,-0.7875968855961251,-0.8,1,366.0,701.0,1.0,303.0,1
567,567,-0.6934424102427827,-0.7,1,428.0,511.0,1.0,341.0,1
568,568,0.7676978995553336,0.8,0,265.0,530.0,0.0,245.0,1
569,569,-0.7708955015296521,-0.8,1,390.0,531.0,1.0,349.0,1
570,570,-0.06315419566786207,-0.1,1,429.0,942.0,1.0,1359.0,1
571,571,-0.9291545400007437,-0.9,1,326.0,768.0,1.0,636.0,1
572,572,-0.05530479766750229,-0.1,1,321.0,943.0,0.0,586.0,0
573,573,0.6399005044769019,0.6,0,282.0,852.0,0.0,326.0,1
574,574,-0.27776922636638823,-0.3,1,460.0,883.0,1.0,607.0,1
575,575,-0.38315708376476687,-0.4,1,343.0,974.0,1.0,303.0,1
576,576,0.3981077574589218,0.4,0,495.0,658.0,0.0,627.0,1
577,577,-0.527945537148935,-0.5,1,374.0,504.0,1.0,332.0,1
578,578,0.8829364851998385,0.9,0,495.0,617.0,0.0,238.0,1
579,579,-0.8044494093334598,-0.8,1,392.0,972.0,1.0,316.0,1
580,580,-0.9876117168080836,-1.0,1,421.0,724.0,1.0,355.0,1
581,581,-0.3808619568647582,-0.4,1,447.0,788.0,1.0,525.0,1
582,582,-0.9240956431983034,-0.9,1,442.0,901.0,1.0,307.0,1
583,583,-0.7095857857884904,-0.7,1,294.0,989.0,1.0,327.0,1
584,584,-0.13544443211387303,-0.1,1,492.0,878.0,1.0,520.0,1
585,585,-0.03405224593062406,-0.0,1,350.0,972.0,0.0,638.0,0
586,586,-0.7155695344118271,-0.7,1,293.0,716.0,1.0,281.0,1
587,587,0.674775209657742,0.7,0,286.0,706.0,0.0,428.0,1
588,588,-0.5421692927311907,-0.5,1,419.0,852.0,1.0,259.0,1
589,589,0.1813807870338564,0.2,0,482.0,504.0,0.0,324.0,1
590,590,-0.49840865475927476,-0.5,1,450.0,842.0,1.0,358.0,1
591,591,-0.5878121369642864,-0.6,1,385.0,692.0,1.0,333.0,1
592,592,0.5571310292968881,0.6,0,385.0,778.0,0.0,437.0,1
593,593,-0.2647515286441777,-0.3,1,405.0,568.0,1.0,1437.0,1
594,594,0.3620743583224917,0.4,0,391.0,789.0,0.0,250.0,1
595,595,-0.584346444139271,-0.6,1,391.0,610.0,1.0,489.0,1
596,596,0.7516999535561106,0.8,0,326.0,976.0,0.0,218.0,1
597,597,0.8837742735617029,0.9,0,401.0,688.0,0.0,231.0,1
598,598,-0.811002758427462,-0.8,1,452.0,656.0,1.0,142.0,1
599,599,0.023805486889872718,0.0,0,421.0,985.0,0.0,1434.0,1
600,600,-0.7181796885905953,-0.7,1,408.0,669.0,1.0,393.0,1
601,601,-0.3700813216570904,-0.4,1,326.0,673.0,1.0,581.0,1
602,602,-0.8743759694310982,-0.9,1,321.0,757.0,1.0,182.0,1
603,603,0.7374806500554993,0.7,0,447.0,578.0,0.0,235.0,1
604,604,0.528993904348039,0.5,0,398.0,858.0,0.0,284.0,1
605,605,0.2793374710542462,0.3,0,353.0,500.0,0.0,257.0,1
606,606,0.025166330689274208,0.0,0,452.0,604.0,0.0,1794.0,1
607,607,0.45551535262550247,0.5,0,478.0,591.0,0.0,361.0,1
608,608,-0.8645307527432471,-0.9,1,318.0,803.0,1.0,209.0,1
609,609,-0.9333471293120965,-0.9,1,349.0,886.0,1.0,175.0,1
610,610,0.4673836124667128,0.5,0,480.0,505.0,0.0,325.0,1
611,611,-0.1007181838711595,-0.1,1,455.0,514.0,1.0,1851.0,1
612,612,-0.8997636282879433,-0.9,1,426.0,701.0,1.0,423.0,1
613,613,-0.9561792119779924,-1.0,1,364.0,734.0,1.0,212.0,1
614,614,-0.1452548306123953,-0.1,1,393.0,688.0,1.0,679.0,1
615,615,0.07208203170607397,0.1,0,361.0,938.0,1.0,1391.0,0
616,616,0.06841158641068357,0.1,0,458.0,834.0,0.0,1168.0,1
617,617,-0.778930605417872,-0.8,1,405.0,720.0,1.0,295.0,1
618,618,-0.2006856243430606,-0.2,1,415.0,761.0,1.0,1134.0,1
619,619,-0.1984879644067472,-0.2,1,266.0,911.0,1.0,803.0,1
620,620,0.04764009759204324,0.0,0,367.0,744.0,1.0,499.0,0
621,621,-0.7157658789393311,-0.7,1,263.0,971.0,1.0,516.0,1
622,622,-0.3217339005930351,-0.3,1,420.0,848.0,1.0,632.0,1
623,623,0.6636367772247984,0.7,0,369.0,800.0,0.0,381.0,1
624,624,0.18756575809637188,0.2,0,473.0,757.0,0.0,400.0,1
625,625,0.5921628699053554,0.6,0,416.0,918.0,0.0,186.0,1
626,626,-0.5663239927712116,-0.6,1,253.0,680.0,1.0,287.0,1
627,627,0.21327324164113803,0.2,0,258.0,531.0,0.0,551.0,1
628,628,-0.07428030369321159,-0.1,1,308.0,595.0,0.0,687.0,0
629,629,-0.8772421711334017,-0.9,1,401.0,502.0,1.0,277.0,1
630,630,-0.19228004702023482,-0.2,1,359.0,794.0,1.0,1857.0,1
631,631,-0.30107430201216756,-0.3,1,370.0,716.0,1.0,414.0,1
632,632,-0.4270607891855527,-0.4,1,403.0,610.0,1.0,307.0,1
633,633,-0.22242497969064545,-0.2,1,448.0,724.0,1.0,278.0,1
634,634,0.10179636495248712,0.1,0,358.0,829.0,0.0,903.0,1
635,635,-0.5401440247477853,-0.5,1,365.0,873.0,1.0,902.0,1
636,636,-0.7455294500737117,-0.7,1,468.0,830.0,1.0,772.0,1
637,637,0.02129449737416289,0.0,0,410.0,540.0,0.0,360.0,1
638,638,0.7420408625104844,0.7,0,361.0,644.0,0.0,215.0,1
639,639,-0.3416973383325801,-0.3,1,399.0,643.0,1.0,698.0,1
640,640,-0.35963350261742266,-0.4,1,332.0,888.0,1.0,580.0,1
641,641,-0.9122676558034684,-0.9,1,479.0,575.0,1.0,266.0,1
642,642,-0.04800605060571539,-0.0,1,361.0,619.0,1.0,770.0,1
643,643,0.7589033691129212,0.8,0,489.0,612.0,0.0,499.0,1
644,644,0.10004303093911537,0.1,0,322.0,814.0,0.0,524.0,1
645,645,0.03311775502231695,0.0,0,415.0,711.0,0.0,914.0,1
646,646,-0.4893233361091269,-0.5,1,290.0,986.0,1.0,344.0,1
647,647,0.6996131276370858,0.7,0,375.0,921.0,0.0,524.0,1
648,648,0.37695064326966987,0.4,0,455.0,983.0,0.0,292.0,1
649,649,0.7669377490527143,0.8,0,268.0,824.0,0.0,198.0,1
650,650,-0.9477466157674894,-0.9,1,318.0,613.0,1.0,639.0,1
651,651,-0.82648116080634,-0.8,1,395.0,877.0,1.0,448.0,1
652,652,-0.6489928553240627,-0.6,1,338.0,549.0,1.0,303.0,1
653,653,-0.14067673516222912,-0.1,1,458.0,834.0,1.0,688.0,1
654,654,0.7532488171888483,0.8,0,499.0,964.0,0.0,307.0,1
655,655,0.02438291760978717,0.0,0,270.0,518.0,0.0,382.0,1
656,656,-0.7161081927835384,-0.7,1,323.0,683.0,1.0,284.0,1
657,657,0.3140611342608781,0.3,0,466.0,556.0,0.0,248.0,1
658,658,0.4757088571374686,0.5,0,296.0,633.0,0.0,541.0,1
659,659,0.4075236117133789,0.4,0,256.0,979.0,0.0,255.0,1
660,660,-0.29340458836421845,-0.3,1,356.0,798.0,1.0,666.0,1
661,661,0.6719833736975456,0.7,0,280.0,935.0,0.0,265.0,1
662,662,-0.2553894261613445,-0.3,1,359.0,928.0,1.0,843.0,1
663,663,-0.7966072104849504,-0.8,1,361.0,688.0,1.0,211.0,1
664,664,-0.9773907302168616,-1.0,1,405.0,688.0,1.0,187.0,1
665,665,0.8228732626108366,0.8,0,316.0,687.0,0.0,407.0,1
666,666,0.4138878936765966,0.4,0,361.0,739.0,0.0,290.0,1
667,667,0.17881918666229035,0.2,0,432.0,866.0,0.0,2152.0,1
668,668,-0.4375660663635874,-0.4,1,456.0,547.0,1.0,587.0,1
669,669,-0.24236101842433833,-0.2,1,330.0,532.0,0.0,828.0,0
670,670,-0.5050324801875996,-0.5,1,402.0,793.0,1.0,515.0,1
671,671,0.874305845853371,0.9,0,286.0,811.0,0.0,303.0,1
672,672,0.8207573489278062,0.8,0,487.0,519.0,0.0,354.0,1
673,673,0.3611721563952377,0.4,0,263.0,973.0,0.0,454.0,1
674,674,-0.6602205277475344,-0.7,1,366.0,523.0,1.0,321.0,1
675,675,0.5726497259842911,0.6,0,262.0,608.0,0.0,270.0,1
676,676,-0.7497635823057573,-0.7,1,297.0,950.0,1.0,353.0,1
677,677,-0.9734010553375865,-1.0,1,468.0,599.0,1.0,273.0,1
678,678,-0.013530076340996233,-0.0,1,387.0,617.0,0.0,1526.0,0
679,679,-0.47111073902205525,-0.5,1,486.0,639.0,1.0,395.0,1
680,680,-0.28751373721876217,-0.3,1,439.0,676.0,1.0,445.0,1
681,681,0.04082595140640399,0.0,0,441.0,836.0,0.0,1563.0,1
682,682,0.5577087020961295,0.6,0,333.0,689.0,0.0,398.0,1
683,683,-0.7817223121483692,-0.8,1,420.0,954.0,1.0,326.0,1
684,684,-0.6324385965349149,-0.6,1,483.0,950.0,1.0,1567.0,1
685,685,0.8451748969282773,0.8,0,338.0,805.0,0.0,197.0,1
686,686,0.9534844451074409,1.0,0,476.0,587.0,0.0,327.0,1
687,687,-0.5989263529327415,-0.6,1,356.0,937.0,1.0,187.0,1
688,688,0.06951814664168565,0.1,0,365.0,966.0,0.0,449.0,1
689,689,0.04880753419925621,0.0,0,473.0,652.0,1.0,335.0,0
690,690,-0.31635871699647566,-0.3,1,391.0,873.0,1.0,1386.0,1
691,691,-0.3556120023232232,-0.4,1,473.0,932.0,1.0,625.0,1
692,692,-0.6496360543710851,-0.6,1,446.0,960.0,1.0,354.0,1
693,693,-0.35216987345872774,-0.4,1,250.0,829.0,1.0,301.0,1
694,694,0.729370021728629,0.7,0,392.0,882.0,0.0,316.0,1
695,695,0.05014817501980384,0.1,0,373.0,794.0,0.0,323.0,1
696,696,-0.5561675797643231,-0.6,1,395.0,858.0,1.0,327.0,1
697,697,0.27258741193096636,0.3,0,367.0,567.0,0.0,196.0,1
698,698,-0.22296968840021347,-0.2,1,414.0,502.0,0.0,214.0,0
699,699,-0.45954132974367146,-0.5,1,273.0,675.0,1.0,1302.0,1
700,700,-0.46337007626403137,-0.5,1,357.0,994.0,1.0,399.0,1
701,701,0.30903081217255757,0.3,0,446.0,730.0,0.0,294.0,1
702,702,-0.1964070892430192,-0.2,1,320.0,916.0,1.0,684.0,1
703,703,-0.2040178709338869,-0.2,1,405.0,974.0,1.0,1741.0,1
704,704,0.8838741511959034,0.9,0,435.0,646.0,0.0,359.0,1
705,705,-0.8508642173113312,-0.9,1,341.0,893.0,1.0,296.0,1
706,706,0.22969257377595986,0.2,0,477.0,740.0,0.0,873.0,1
707,707,0.5864030571226126,0.6,0,403.0,885.0,0.0,382.0,1
708,708,0.9071248335912645,0.9,0,471.0,701.0,0.0,368.0,1
709,709,-0.3384391660269579,-0.3,1,336.0,936.0,1.0,988.0,1
710,710,-0.29392060017473054,-0.3,1,374.0,937.0,1.0,629.0,1
711,711,0.8564062703619635,0.9,0,336.0,828.0,0.0,616.0,1
712,712,-0.8092469770509374,-0.8,1,485.0,809.0,1.0,346.0,1
713,713,0.2342924561968407,0.2,0,319.0,990.0,0.0,241.0,1
714,714,-0.3092478027433223,-0.3,1,346.0,648.0,1.0,486.0,1
715,715,-0.03488227264703081,-0.0,1,344.0,825.0,0.0,641.0,0
716,716,-0.5241620516553274,-0.5,1,463.0,868.0,1.0,459.0,1
717,717,-0.5250014900305442,-0.5,1,383.0,832.0,1.0,205.0,1
718,718,0.6078745009062425,0.6,0,276.0,903.0,0.0,271.0,1
719,719,-0.8455654402187978,-0.8,1,289.0,808.0,1.0,233.0,1
720,720,0.007491218427351232,0.0,0,277.0,950.0,1.0,1323.0,0
721,721,0.11197740615478691,0.1,0,488.0,806.0,0.0,1606.0,1
722,722,-0.8077584012543793,-0.8,1,303.0,713.0,1.0,234.0,1
723,723,0.23988586128140033,0.2,0,337.0,905.0,0.0,618.0,1
724,724,-0.2552354194943469,-0.3,1,253.0,516.0,1.0,141.0,1
725,725,0.7412745641248699,0.7,0,307.0,626.0,0.0,397.0,1
726,726,-0.9923744392190952,-1.0,1,496.0,885.0,1.0,229.0,1
727,727,0.5130652418034571,0.5,0,494.0,887.0,0.0,359.0,1
728,728,-0.5874074976202712,-0.6,1,479.0,737.0,1.0,464.0,1
729,729,-0.8722075791211332,-0.9,1,453.0,857.0,1.0,450.0,1
730,730,-0.14970268978519718,-0.1,1,419.0,845.0,0.0,686.0,0
731,731,0.5110123750713729,0.5,0,344.0,792.0,0.0,504.0,1
732,732,0.5724920591764451,0.6,0,315.0,576.0,0.0,279.0,1
733,733,0.8018464081777144,0.8,0,324.0,644.0,0.0,392.0,1
734,734,0.12062277505492247,0.1,0,421.0,978.0,0.0,1641.0,1
735,735,-0.8215342478299104,-0.8,1,397.0,799.0,1.0,404.0,1
736,736,-0.5946900827840538,-0.6,1,352.0,660.0,1.0,288.0,1
737,737,-0.6796520258535512,-0.7,1,489.0,900.0,1.0,251.0,1
738,738,-0.20453023210376964,-0.2,1,443.0,893.0,1.0,514.0,1
739,739,0.3096369444597986,0.3,0,378.0,669.0,0.0,783.0,1
740,740,-0.47870956395995945,-0.5,1,312.0,931.0,1.0,287.0,1
741,741,-0.05740715760591919,-0.1,1,348.0,888.0,1.0,384.0,1
742,742,-0.3224863251777861,-0.3,1,402.0,605.0,1.0,453.0,1
743,743,0.5238777035422493,0.5,0,359.0,850.0,0.0,331.0,1
744,744,-0.06953326051257247,-0.1,1,460.0,953.0,0.0,1537.0,0
745,745,0.8229444124246841,0.8,0,478.0,874.0,0.0,268.0,1
746,746,-0.8893704970573488,-0.9,1,329.0,710.0,1.0,301.0,1
747,747,0.6495129880057986,0.6,0,271.0,603.0,0.0,266.0,1
748,748,-0.7636130184005689,-0.8,1,447.0,690.0,1.0,443.0,1
749,749,-0.2310365911736496,-0.2,1,255.0,606.0,1.0,499.0,1
750,750,0.12406661534493901,0.1,0,375.0,565.0,0.0,650.0,1
751,751,0.9668284963275113,1.0,0,330.0,782.0,0.0,648.0,1
752,752,0.2134011175036563,0.2,0,447.0,900.0,0.0,603.0,1
753,753,0.1351891498612503,0.1,0,337.0,677.0,0.0,1106.0,1
754,754,0.7097570683062544,0.7,0,454.0,828.0,0.0,498.0,1
755,755,0.5393914076416462,0.5,0,298.0,669.0,0.0,253.0,1
756,756,0.1582496645560192,0.2,0,495.0,867.0,0.0,1538.0,1
757,757,-0.8154779451591829,-0.8,1,487.0,725.0,1.0,358.0,1
758,758,-0.9567796344042163,-1.0,1,276.0,768.0,1.0,386.0,1
759,759,-0.7374549322300503,-0.7,1,456.0,679.0,1.0,315.0,1
760,760,-0.03702633896737684,-0.0,1,486.0,883.0,1.0,3391.0,1
761,761,0.19537517331097587,0.2,0,334.0,837.0,0.0,1439.0,1
762,762,0.20380268974758797,0.2,0,300.0,637.0,0.0,443.0,1
763,763,-0.947419256435774,-0.9,1,326.0,783.0,1.0,281.0,1
764,764,0.5599270344786398,0.6,0,443.0,864.0,0.0,463.0,1
765,765,0.6263300019120317,0.6,0,287.0,687.0,0.0,386.0,1
766,766,-0.37547194199466905,-0.4,1,413.0,739.0,1.0,408.0,1
767,767,0.5940355684036323,0.6,0,388.0,823.0,0.0,569.0,1
768,768,0.6586737562659462,0.7,0,435.0,542.0,0.0,233.0,1
769,769,-0.7150165970058149,-0.7,1,267.0,816.0,1.0,327.0,1
770,770,-0.7198426214085334,-0.7,1,432.0,619.0,1.0,249.0,1
771,771,-0.766542949982568,-0.8,1,325.0,588.0,1.0,267.0,1
772,772,-0.5584191800920022,-0.6,1,341.0,867.0,1.0,432.0,1
773,773,-0.8518169287551447,-0.9,1,316.0,979.0,1.0,275.0,1
774,774,-0.36091378846035105,-0.4,1,476.0,705.0,1.0,299.0,1
775,775,-0.057848556664991335,-0.1,1,461.0,557.0,1.0,1722.0,1
776,776,-0.48046989678759644,-0.5,1,337.0,929.0,1.0,314.0,1
777,777,0.9519207045829168,1.0,0,382.0,605.0,0.0,253.0,1
778,778,-0.5409561392543636,-0.5,1,413.0,830.0,1.0,357.0,1
779,779,0.21715750828275682,0.2,0,469.0,541.0,0.0,480.0,1
780,780,-0.0025244662309424903,-0.0,1,292.0,710.0,0.0,1128.0,0
781,781,0.45209915732938555,0.5,0,308.0,603.0,0.0,269.0,1
782,782,-0.09062011382698643,-0.1,1,251.0,520.0,1.0,649.0,1
783,783,-0.5424152967491132,-0.5,1,493.0,742.0,1.0,645.0,1
784,784,0.5000574794546142,0.5,0,402.0,663.0,0.0,495.0,1
785,785,-0.44820273543032774,-0.4,1,279.0,953.0,1.0,378.0,1
786,786,-0.10286436870566162,-0.1,1,259.0,691.0,0.0,680.0,0
787,787,0.26761047402653326,0.3,0,262.0,520.0,0.0,458.0,1
788,788,-0.7265694926285551,-0.7,1,396.0,501.0,1.0,583.0,1
789,789,-0.4297396639359068,-0.4,1,462.0,724.0,1.0,464.0,1
790,790,-0.7618340091885758,-0.8,1,276.0,959.0,1.0,355.0,1
791,791,-0.8224319464039018,-0.8,1,414.0,762.0,1.0,254.0,1
792,792,-0.20423774888559776,-0.2,1,492.0,545.0,1.0,1043.0,1
793,793,0.18380796259781906,0.2,0,282.0,933.0,0.0,735.0,1
794,794,-0.3914476107110103,-0.4,1,458.0,864.0,1.0,998.0,1
795,795,0.26517664237255434,0.3,0,392.0,645.0,0.0,563.0,1
796,796,-0.09839603688792731,-0.1,1,306.0,697.0,0.0,2417.0,0
797,797,-0.6995903283992426,-0.7,1,467.0,892.0,1.0,321.0,1
798,798,0.7073569119655048,0.7,0,467.0,757.0,0.0,316.0,1
799,799,0.6568627627966945,0.7,0,422.0,932.0,0.0,356.0,1
800,800,-0.006692159992867097,-0.0,1,434.0,622.0,1.0,1564.0,1
801,801,0.695324228928015,0.7,0,407.0,659.0,0.0,264.0,1
802,802,-0.8028327427539137,-0.8,1,306.0,983.0,1.0,291.0,1
803,803,0.7440469504227567,0.7,0,440.0,622.0,0.0,438.0,1
804,804,0.15163673545937173,0.2,0,392.0,929.0,0.0,799.0,1
805,805,-0.9438738757474845,-0.9,1,421.0,740.0,1.0,129.0,1
806,806,-0.12659622806980186,-0.1,1,310.0,782.0,1.0,1098.0,1
807,807,0.6053901338079797,0.6,0,288.0,640.0,0.0,492.0,1
808,808,0.8051395511937762,0.8,0,270.0,621.0,0.0,349.0,1
809,809,0.5223085924532009,0.5,0,344.0,754.0,0.0,422.0,1
810,810,0.8511470197609545,0.9,0,314.0,594.0,0.0,222.0,1
811,811,-0.9169058509270755,-0.9,1,283.0,584.0,1.0,233.0,1
812,812,-0.47304573699039065,-0.5,1,274.0,786.0,1.0,670.0,1
813,813,-0.15958844199369238,-0.2,1,326.0,632.0,1.0,1742.0,1
814,814,-0.7476762237149073,-0.7,1,305.0,778.0,1.0,287.0,1
815,815,0.9425976495794666,0.9,0,428.0,795.0,0.0,307.0,1
816,816,-0.0909613792280235,-0.1,1,381.0,505.0,1.0,1094.0,1
817,817,-0.5228868120521062,-0.5,1,380.0,742.0,1.0,518.0,1
818,818,-0.6974124601258234,-0.7,1,483.0,870.0,1.0,547.0,1
819,819,0.009542531686750566,0.0,0,394.0,535.0,0.0,721.0,1
820,820,-0.634167689111788,-0.6,1,276.0,574.0,1.0,250.0,1
821,821,0.8811005336424493,0.9,0,361.0,633.0,0.0,266.0,1
822,822,0.33653041840426656,0.3,0,451.0,628.0,0.0,381.0,1
823,823,0.19630512534796973,0.2,0,279.0,632.0,0.0,349.0,1
824,824,0.02731251226480702,0.0,0,314.0,520.0,0.0,746.0,1
825,825,0.8549258865396863,0.9,0,403.0,882.0,0.0,315.0,1
826,826,-0.8161955334488362,-0.8,1,390.0,973.0,1.0,157.0,1
827,827,0.6007642688263906,0.6,0,250.0,817.0,0.0,293.0,1
828,828,-0.6164155465715826,-0.6,1,426.0,944.0,1.0,280.0,1
829,829,-0.5903892685917902,-0.6,1,419.0,512.0,1.0,499.0,1
830,830,0.7146350357435867,0.7,0,377.0,746.0,0.0,367.0,1
831,831,0.8382305041925429,0.8,0,281.0,788.0,0.0,301.0,1
832,832,-0.2800128568169471,-0.3,1,389.0,527.0,1.0,1614.0,1
833,833,-0.46230195096513804,-0.5,1,296.0,723.0,1.0,391.0,1
834,834,-0.9700319597122908,-1.0,1,390.0,610.0,1.0,210.0,1
835,835,-0.6589120325475462,-0.7,1,311.0,614.0,1.0,375.0,1
836,836,0.6029830928280335,0.6,0,437.0,794.0,0.0,419.0,1
837,837,-0.7188992488096315,-0.7,1,438.0,996.0,1.0,296.0,1
838,838,0.6918301274633325,0.7,0,280.0,870.0,0.0,290.0,1
839,839,0.6469101434953923,0.6,0,358.0,993.0,0.0,299.0,1
840,840,0.009074615743974723,0.0,0,345.0,600.0,0.0,695.0,1
841,841,-0.32050387962732896,-0.3,1,341.0,563.0,1.0,1006.0,1
842,842,-0.06192706631721556,-0.1,1,448.0,895.0,1.0,637.0,1
843,843,0.7865427480719871,0.8,0,440.0,713.0,0.0,277.0,1
844,844,-0.8848537295086261,-0.9,1,413.0,719.0,1.0,328.0,1
845,845,-0.7430994250596121,-0.7,1,375.0,601.0,1.0,284.0,1
846,846,0.7970356545070874,0.8,0,295.0,715.0,0.0,310.0,1
847,847,-0.7020564905791193,-0.7,1,447.0,892.0,1.0,481.0,1
848,848,0.15332866058887284,0.2,0,494.0,590.0,0.0,296.0,1
849,849,0.7446336039289576,0.7,0,419.0,880.0,0.0,121.0,1
850,850,0.5861761178314269,0.6,0,341.0,744.0,0.0,225.0,1
851,851,-0.059596914065389583,-0.1,1,291.0,688.0,0.0,1851.0,0
852,852,0.27572284473796893,0.3,0,453.0,975.0,0.0,272.0,1
853,853,-0.889225625443657,-0.9,1,488.0,544.0,1.0,188.0,1
854,854,-0.45021687084542816,-0.5,1,485.0,744.0,1.0,441.0,1
855,855,-0.27473362914525,-0.3,1,391.0,794.0,1.0,345.0,1
856,856,-0.5993363866516566,-0.6,1,435.0,869.0,1.0,386.0,1
857,857,0.5843545238343595,0.6,0,332.0,692.0,0.0,286.0,1
858,858,-0.49466613837584705,-0.5,1,330.0,973.0,1.0,447.0,1
859,859,-0.1507287658450407,-0.2,1,291.0,964.0,1.0,1175.0,1
860,860,-0.09397207042704059,-0.1,1,263.0,896.0,1.0,1381.0,1
861,861,-0.6522930136372789,-0.7,1,348.0,599.0,1.0,183.0,1
862,862,-0.05549540862996394,-0.1,1,491.0,854.0,1.0,1395.0,1
863,863,-0.035896504920465144,-0.0,1,472.0,730.0,1.0,2888.0,1
864,864,-0.8893962937095534,-0.9,1,418.0,519.0,1.0,243.0,1
865,865,-0.828917892428001,-0.8,1,301.0,689.0,1.0,260.0,1
866,866,0.35831324202046,0.4,0,356.0,508.0,0.0,286.0,1
867,867,0.8208060013586211,0.8,0,418.0,595.0,0.0,427.0,1
868,868,0.13933170509455506,0.1,0,424.0,511.0,0.0,315.0,1
869,869,-0.6936324014723076,-0.7,1,377.0,962.0,1.0,371.0,1
870,870,-0.9842797892753083,-1.0,1,450.0,932.0,1.0,318.0,1
871,871,0.941787326090116,0.9,0,272.0,924.0,0.0,324.0,1
872,872,0.911549700646985,0.9,0,489.0,746.0,0.0,305.0,1
873,873,-0.5012609224210882,-0.5,1,298.0,713.0,1.0,329.0,1
874,874,0.2904902707900352,0.3,0,478.0,514.0,0.0,528.0,1
875,875,0.17317291419695002,0.2,0,282.0,815.0,0.0,473.0,1
876,876,0.9283923366179836,0.9,0,477.0,631.0,0.0,312.0,1
877,877,0.3048937997382086,0.3,0,459.0,583.0,0.0,138.0,1
878,878,0.12083043731406429,0.1,0,339.0,630.0,0.0,301.0,1
879,879,0.33223111187722143,0.3,0,402.0,892.0,0.0,436.0,1
880,880,-0.6020134635747938,-0.6,1,493.0,974.0,1.0,363.0,1
881,881,-0.8803347995590123,-0.9,1,475.0,817.0,1.0,248.0,1
882,882,0.6345973212552083,0.6,0,260.0,620.0,0.0,290.0,1
883,883,0.5546638126922587,0.6,0,406.0,984.0,0.0,450.0,1
884,884,0.023397683854596396,0.0,0,417.0,908.0,0.0,835.0,1
885,885,-0.39495962631969106,-0.4,1,411.0,932.0,1.0,677.0,1
886,886,-0.13497759960638356,-0.1,1,299.0,756.0,1.0,315.0,1
887,887,0.052327696921782074,0.1,0,382.0,983.0,0.0,1045.0,1
888,888,-0.30741552115183257,-0.3,1,309.0,606.0,1.0,895.0,1
889,889,-0.8738566057628812,-0.9,1,399.0,587.0,1.0,454.0,1
890,890,0.7830192308745862,0.8,0,483.0,905.0,0.0,452.0,1
891,891,0.2199321898759241,0.2,0,274.0,598.0,0.0,308.0,1
892,892,-0.2438823813250104,-0.2,1,380.0,983.0,1.0,277.0,1
893,893,-0.956921733343614,-1.0,1,338.0,841.0,1.0,491.0,1
894,894,0.6536174800661823,0.7,0,457.0,700.0,0.0,503.0,1
895,895,0.5232552593802424,0.5,0,310.0,919.0,0.0,621.0,1
896,896,-0.3002954912514959,-0.3,1,432.0,914.0,1.0,334.0,1
897,897,0.9587018483287848,1.0,0,361.0,503.0,0.0,196.0,1
898,898,-0.6576077242294782,-0.7,1,322.0,739.0,1.0,499.0,1
899,899,-0.22200117572460898,-0.2,1,462.0,565.0,1.0,1153.0,1
900,900,0.6069804695745133,0.6,0,274.0,577.0,0.0,409.0,1
901,901,0.6024619815641583,0.6,0,262.0,547.0,0.0,241.0,1
902,902,0.7141854671564287,0.7,0,338.0,970.0,0.0,432.0,1
903,903,0.5612654574455103,0.6,0,457.0,577.0,0.0,246.0,1
904,904,0.4532726975757704,0.5,0,377.0,963.0,0.0,400.0,1
905,905,-0.2572752359588526,-0.3,1,366.0,752.0,1.0,302.0,1
906,906,0.5735257763421062,0.6,0,478.0,552.0,0.0,590.0,1
907,907,-0.9168043944709423,-0.9,1,300.0,939.0,1.0,231.0,1
908,908,-0.868442708005897,-0.9,1,476.0,840.0,1.0,514.0,1
909,909,0.8753785505728748,0.9,0,411.0,697.0,0.0,182.0,1
910,910,0.6470503324183716,0.6,0,305.0,916.0,0.0,379.0,1
911,911,0.8804441014879905,0.9,0,260.0,916.0,0.0,274.0,1
912,912,0.8827382722593033,0.9,0,464.0,953.0,0.0,423.0,1
913,913,-0.3195132971049075,-0.3,1,465.0,962.0,1.0,923.0,1
914,914,0.7592242101034474,0.8,0,448.0,549.0,0.0,223.0,1
915,915,-0.09444626559424751,-0.1,1,466.0,793.0,1.0,1241.0,1
916,916,-0.3962817846424469,-0.4,1,486.0,978.0,1.0,526.0,1
917,917,-0.5088103906105725,-0.5,1,293.0,932.0,1.0,195.0,1
918,918,-0.8581280097573158,-0.9,1,394.0,875.0,1.0,221.0,1
919,919,-0.38170725213550627,-0.4,1,401.0,761.0,1.0,638.0,1
920,920,0.6986667814829708,0.7,0,334.0,836.0,0.0,270.0,1
921,921,-0.3912323941147666,-0.4,1,493.0,619.0,1.0,588.0,1
922,922,-0.35331690346598,-0.4,1,255.0,738.0,1.0,447.0,1
923,923,0.7003645760858097,0.7,0,302.0,972.0,0.0,356.0,1
924,924,-0.54395302167771,-0.5,1,258.0,782.0,1.0,300.0,1
925,925,0.08962945190546456,0.1,0,309.0,773.0,0.0,898.0,1
926,926,-0.30594520160138106,-0.3,1,434.0,838.0,1.0,548.0,1
927,927,-0.8926928576456983,-0.9,1,381.0,907.0,1.0,252.0,1
928,928,0.09005622764581145,0.1,0,435.0,956.0,0.0,699.0,1
929,929,-0.2806144571486908,-0.3,1,342.0,803.0,1.0,445.0,1
930,930,-0.5952188718739051,-0.6,1,295.0,594.0,1.0,291.0,1
931,931,0.718496893534047,0.7,0,339.0,983.0,0.0,418.0,1
932,932,0.778235842026725,0.8,0,439.0,995.0,0.0,666.0,1
933,933,-0.04379709811686294,-0.0,1,296.0,713.0,1.0,3611.0,1
934,934,0.6157296824397769,0.6,0,267.0,974.0,0.0,529.0,1
935,935,0.6548373321258771,0.7,0,419.0,594.0,0.0,307.0,1
936,936,-0.5099078689211627,-0.5,1,496.0,752.0,1.0,302.0,1
937,937,-0.8765731871580129,-0.9,1,453.0,958.0,1.0,179.0,1
938,938,-0.027198942348520383,-0.0,1,369.0,515.0,0.0,386.0,0
939,939,0.35361325494759144,0.4,0,493.0,558.0,0.0,319.0,1
940,940,-0.35184236100228006,-0.4,1,345.0,747.0,1.0,578.0,1
941,941,0.2520143081687276,0.3,0,445.0,696.0,0.0,379.0,1
942,942,0.8986270130154159,0.9,0,484.0,629.0,0.0,307.0,1
943,943,0.6720857120241377,0.7,0,495.0,939.0,0.0,306.0,1
944,944,0.9879557397198575,1.0,0,454.0,509.0,0.0,247.0,1
945,945,-0.8426480269828549,-0.8,1,339.0,741.0,1.0,290.0,1
946,946,-0.7033853161832289,-0.7,1,475.0,857.0,1.0,568.0,1
947,947,-0.2662832562592201,-0.3,1,424.0,865.0,1.0,1791.0,1
948,948,0.19926424723556813,0.2,0,429.0,822.0,0.0,299.0,1
949,949,-0.2498266808534395,-0.2,1,434.0,793.0,1.0,953.0,1
950,950,-0.8332975941127942,-0.8,1,389.0,893.0,1.0,508.0,1
951,951,-0.5077198352108891,-0.5,1,444.0,888.0,1.0,428.0,1
952,952,0.4187575253374467,0.4,0,382.0,863.0,0.0,465.0,1
953,953,0.046429572050402435,0.0,0,461.0,817.0,0.0,1642.0,1
954,954,-0.7351047788030731,-0.7,1,382.0,622.0,1.0,446.0,1
955,955,-0.08706690003499529,-0.1,1,388.0,562.0,0.0,580.0,0
956,956,0.9158373576783783,0.9,0,397.0,720.0,0.0,233.0,1
957,957,0.17560829441550418,0.2,0,329.0,722.0,0.0,449.0,1
958,958,-0.0508582842380616,-0.1,1,376.0,737.0,1.0,987.0,1
959,959,-0.528508703341501,-0.5,1,435.0,585.0,1.0,530.0,1
960,960,-0.31612300746083366,-0.3,1,459.0,572.0,1.0,409.0,1
961,961,-0.15865584298472335,-0.2,1,318.0,777.0,1.0,1025.0,1
962,962,-0.3311831610801428,-0.3,1,269.0,984.0,1.0,797.0,1
963,963,-0.8030064333308797,-0.8,1,321.0,778.0,1.0,351.0,1
964,964,-0.12423068099083157,-0.1,1,498.0,614.0,1.0,1088.0,1
965,965,0.07185765000990307,0.1,0,375.0,613.0,0.0,722.0,1
966,966,0.6191680417101877,0.6,0,388.0,565.0,0.0,297.0,1
967,967,-0.5500967210889491,-0.6,1,435.0,766.0,1.0,459.0,1
968,968,-0.6071234784595418,-0.6,1,282.0,755.0,1.0,583.0,1
969,969,0.3761749472307596,0.4,0,430.0,690.0,0.0,310.0,1
970,970,-0.7124954836872162,-0.7,1,394.0,950.0,1.0,386.0,1
971,971,0.6067316062854851,0.6,0,291.0,935.0,0.0,214.0,1
972,972,0.7596167855159899,0.8,0,268.0,973.0,0.0,319.0,1
973,973,-0.3243895882371124,-0.3,1,446.0,807.0,1.0,337.0,1
974,974,-0.9397495414388322,-0.9,1,433.0,713.0,1.0,224.0,1
975,975,-0.7107550239794203,-0.7,1,293.0,878.0,1.0,289.0,1
976,976,-0.8806012715694436,-0.9,1,361.0,621.0,1.0,388.0,1
977,977,0.9895024726820631,1.0,0,370.0,506.0,0.0,354.0,1
978,978,0.3897037823933418,0.4,0,352.0,981.0,0.0,407.0,1
979,979,-0.8170488482798217,-0.8,1,441.0,915.0,1.0,284.0,1
980,980,0.6434854448985974,0.6,0,445.0,965.0,0.0,570.0,1
981,981,-0.5784236589152625,-0.6,1,491.0,676.0,1.0,493.0,1
982,982,0.8165168036126456,0.8,0,259.0,517.0,0.0,214.0,1
983,983,0.6492316245267884,0.6,0,317.0,723.0,0.0,210.0,1
984,984,0.4876232895933863,0.5,0,475.0,876.0,0.0,429.0,1
985,985,0.09167182000561058,0.1,0,366.0,893.0,1.0,581.0,0
986,986,-0.906890808733946,-0.9,1,393.0,554.0,1.0,363.0,1
987,987,-0.14857334690773327,-0.1,1,493.0,957.0,1.0,3550.0,1
988,988,0.7777075292234441,0.8,0,283.0,635.0,0.0,262.0,1
989,989,0.6184566917686984,0.6,0,449.0,519.0,0.0,272.0,1
990,990,-0.7971526746973461,-0.8,1,357.0,807.0,1.0,256.0,1
991,991,0.7807898992568301,0.8,0,316.0,587.0,0.0,437.0,1
992,992,-0.5182646145269516,-0.5,1,331.0,950.0,1.0,349.0,1
993,993,-0.23342280420945527,-0.2,1,349.0,560.0,1.0,871.0,1
994,994,-0.9101354564699142,-0.9,1,450.0,896.0,1.0,374.0,1
995,995,-0.9608068545341981,-1.0,1,277.0,562.0,1.0,211.0,1
996,996,0.9136814457208502,0.9,0,486.0,671.0,0.0,233.0,1
997,997,-0.3099207423083139,-0.3,1,459.0,915.0,1.0,776.0,1
998,998,0.4810716208926331,0.5,0,436.0,964.0,0.0,320.0,1
999,999,0.4332271703726842,0.4,0,279.0,931.0,0.0,270.0,1
1000,1000,-0.5196827048656973,-0.5,1,496.0,519.0,1.0,255.0,1
1001,1001,-0.8398882433169854,-0.8,1,437.0,999.0,1.0,404.0,1
1002,1002,0.9154530686217783,0.9,0,334.0,612.0,0.0,274.0,1
1003,1003,-0.8861921060041842,-0.9,1,490.0,726.0,1.0,614.0,1
1004,1004,-0.7470671145353309,-0.7,1,434.0,730.0,1.0,356.0,1
1005,1005,0.038441451888819644,0.0,0,415.0,826.0,0.0,1749.0,1
1006,1006,-0.9356134584906488,-0.9,1,417.0,803.0,1.0,180.0,1
1007,1007,0.4577005789919748,0.5,0,385.0,977.0,0.0,398.0,1
1008,1008,0.9852189949476009,1.0,0,463.0,796.0,0.0,241.0,1
1009,1009,-0.046528314997935416,-0.0,1,306.0,702.0,1.0,2392.0,1
1010,1010,0.8871688258810269,0.9,0,413.0,785.0,0.0,332.0,1
1011,1011,0.059392582569236296,0.1,0,337.0,933.0,0.0,1200.0,1
1012,1012,0.1418191564021447,0.1,0,255.0,869.0,0.0,466.0,1
1013,1013,-0.05083518834547207,-0.1,1,333.0,840.0,1.0,387.0,1
1014,1014,0.14705264037546928,0.1,0,447.0,614.0,0.0,479.0,1
1015,1015,-0.06466762273845972,-0.1,1,477.0,905.0,0.0,1968.0,0
1016,1016,-0.008145040217587995,-0.0,1,305.0,634.0,1.0,361.0,1
1017,1017,-0.6429342844818537,-0.6,1,441.0,940.0,1.0,319.0,1
1018,1018,-0.27427550208271567,-0.3,1,355.0,799.0,1.0,756.0,1
1019,1019,-0.9567192104313513,-1.0,1,281.0,807.0,1.0,202.0,1
1020,1020,-0.9327355468829224,-0.9,1,380.0,660.0,1.0,310.0,1
1021,1021,-0.9714697683129119,-1.0,1,374.0,912.0,1.0,164.0,1
1022,1022,0.8707118319572227,0.9,0,359.0,534.0,0.0,417.0,1
1023,1023,0.28174074567914986,0.3,0,413.0,638.0,0.0,1359.0,1
1024,1024,-0.2934795031106714,-0.3,1,282.0,635.0,1.0,423.0,1
1025,1025,0.36366063633699475,0.4,0,352.0,552.0,0.0,386.0,1
1026,1026,-0.5763037059545695,-0.6,1,371.0,822.0,1.0,617.0,1
1027,1027,0.936370326019967,0.9,0,438.0,568.0,0.0,484.0,1
1028,1028,0.055391909968626196,0.1,0,348.0,592.0,0.0,590.0,1
1029,1029,-0.5107606611607676,-0.5,1,350.0,817.0,1.0,383.0,1
1030,1030,-0.4006212451983582,-0.4,1,367.0,819.0,1.0,634.0,1
1031,1031,0.3154760354726256,0.3,0,408.0,940.0,0.0,282.0,1
1032,1032,-0.9289947375389644,-0.9,1,349.0,686.0,1.0,495.0,1
1033,1033,-0.5147695057616251,-0.5,1,284.0,713.0,1.0,773.0,1
1034,1034,0.17182383512593913,0.2,0,258.0,614.0,0.0,1468.0,1
1035,1035,0.07176318787289993,0.1,0,343.0,877.0,0.0,420.0,1
1036,1036,-0.1609060331455019,-0.2,1,421.0,639.0,1.0,1530.0,1
1037,1037,-0.897510140098241,-0.9,1,291.0,702.0,1.0,207.0,1
1038,1038,0.27455905116722334,0.3,0,360.0,925.0,0.0,255.0,1
1039,1039,0.5030270177214649,0.5,0,487.0,731.0,0.0,372.0,1
1040,1040,0.3751258792363339,0.4,0,311.0,693.0,0.0,566.0,1
1041,1041,-0.6820889370095307,-0.7,1,470.0,570.0,1.0,200.0,1
1042,1042,-0.1279184414405079,-0.1,1,429.0,676.0,1.0,765.0,1
1043,1043,0.35102331764263583,0.4,0,328.0,731.0,0.0,191.0,1
1044,1044,0.613533954890042,0.6,0,331.0,646.0,0.0,493.0,1
1045,1045,0.46194771867838536,0.5,0,384.0,922.0,0.0,154.0,1
1046,1046,0.33102995390032763,0.3,0,321.0,589.0,0.0,460.0,1
1047,1047,0.06076344083133178,0.1,0,371.0,806.0,0.0,943.0,1
1048,1048,0.2315974902536071,0.2,0,415.0,617.0,0.0,458.0,1
1049,1049,0.6592376181514834,0.7,0,342.0,720.0,0.0,418.0,1
1050,1050,0.9399617411062349,0.9,0,399.0,991.0,0.0,330.0,1
1051,1051,-0.6972819462534412,-0.7,1,322.0,734.0,1.0,344.0,1
1052,1052,0.4989821336761284,0.5,0,436.0,882.0,0.0,302.0,1
1053,1053,0.06002003219970087,0.1,0,282.0,728.0,0.0,310.0,1
1054,1054,0.2015121403214637,0.2,0,455.0,533.0,0.0,332.0,1
1055,1055,0.4627063374341944,0.5,0,376.0,548.0,0.0,416.0,1
1056,1056,-0.664527312259795,-0.7,1,498.0,538.0,1.0,234.0,1
1057,1057,0.16355106624867966,0.2,0,378.0,641.0,0.0,161.0,1
1058,1058,0.4504611859369645,0.5,0,313.0,986.0,0.0,751.0,1
1059,1059,0.9670956137913973,1.0,0,392.0,598.0,0.0,280.0,1
1060,1060,0.645426874112969,0.6,0,470.0,758.0,0.0,362.0,1
1061,1061,-0.6594689741401487,-0.7,1,354.0,724.0,1.0,312.0,1
1062,1062,-0.18324098151953572,-0.2,1,370.0,810.0,1.0,1060.0,1
1063,1063,0.3009115590116658,0.3,0,379.0,550.0,0.0,331.0,1
1064,1064,-0.7304662447792647,-0.7,1,383.0,641.0,1.0,176.0,1
1065,1065,0.03571130661263844,0.0,0,302.0,586.0,0.0,402.0,1
1066,1066,-0.7019589647641313,-0.7,1,252.0,976.0,1.0,502.0,1
1067,1067,-0.5948636223205244,-0.6,1,366.0,933.0,1.0,391.0,1
1068,1068,-0.6437662466772971,-0.6,1,323.0,957.0,1.0,640.0,1
1069,1069,-0.19676108766235756,-0.2,1,372.0,545.0,1.0,1423.0,1
1070,1070,-0.05973788707977512,-0.1,1,470.0,544.0,1.0,686.0,1
1071,1071,-0.35511181369911204,-0.4,1,354.0,637.0,1.0,889.0,1
1072,1072,0.6061596139872811,0.6,0,294.0,893.0,0.0,613.0,1
1073,1073,0.1892155468939858,0.2,0,287.0,708.0,0.0,965.0,1
1074,1074,0.36191806238138025,0.4,0,377.0,507.0,0.0,616.0,1
1075,1075,-0.3571840811752871,-0.4,1,311.0,730.0,1.0,969.0,1
1076,1076,0.31301053164742054,0.3,0,477.0,572.0,0.0,221.0,1
1077,1077,0.8680033713838204,0.9,0,470.0,842.0,0.0,218.0,1
1078,1078,-0.36971765036341964,-0.4,1,488.0,944.0,1.0,628.0,1
1079,1079,-0.17334856266582355,-0.2,1,434.0,973.0,1.0,273.0,1
1080,1080,-0.8839749388052527,-0.9,1,311.0,713.0,1.0,236.0,1
1081,1081,-0.8085550108412716,-0.8,1,295.0,657.0,1.0,228.0,1
1082,1082,0.5617060599909465,0.6,0,438.0,704.0,0.0,298.0,1
1083,1083,-0.08100639896723894,-0.1,1,462.0,785.0,1.0,333.0,1
1084,1084,0.675937743971381,0.7,0,339.0,912.0,0.0,349.0,1
1085,1085,-0.3118511234967609,-0.3,1,479.0,765.0,1.0,526.0,1
1086,1086,-0.25086932173061016,-0.3,1,495.0,926.0,1.0,1239.0,1
1087,1087,-0.5389482628869671,-0.5,1,331.0,625.0,1.0,274.0,1
1088,1088,0.672960820607563,0.7,0,298.0,802.0,0.0,310.0,1
1089,1089,-0.9296883729098635,-0.9,1,414.0,529.0,1.0,247.0,1
1090,1090,-0.9080749584707077,-0.9,1,405.0,927.0,1.0,318.0,1
1091,1091,0.9617216029873845,1.0,0,476.0,968.0,0.0,316.0,1
1092,1092,0.8592675072485778,0.9,0,379.0,783.0,0.0,618.0,1
1093,1093,-0.07447521780877153,-0.1,1,332.0,665.0,0.0,3203.0,0
1094,1094,-0.8350763418537301,-0.8,1,323.0,950.0,1.0,587.0,1
1095,1095,0.8301165932073662,0.8,0,497.0,740.0,0.0,203.0,1
1096,1096,-0.3778262658939784,-0.4,1,406.0,755.0,1.0,269.0,1
1097,1097,0.6406748119826893,0.6,0,431.0,547.0,0.0,402.0,1
1098,1098,0.009803020855963185,0.0,0,314.0,770.0,0.0,476.0,1
1099,1099,-0.42188882653179416,-0.4,1,269.0,608.0,1.0,693.0,1
1100,1100,-0.27031243547922124,-0.3,1,286.0,899.0,1.0,875.0,1
1101,1101,-0.8778954462327762,-0.9,1,267.0,767.0,1.0,156.0,1
1102,1102,0.016345204279984538,0.0,0,373.0,634.0,0.0,463.0,1
1103,1103,0.720399353708328,0.7,0,437.0,849.0,0.0,164.0,1
1104,1104,-0.5477217373094903,-0.5,1,324.0,726.0,1.0,200.0,1
1105,1105,-0.2047317457852098,-0.2,1,460.0,548.0,1.0,1462.0,1
1106,1106,0.9830735652389706,1.0,0,314.0,942.0,0.0,444.0,1
1107,1107,0.2373110845484896,0.2,0,428.0,670.0,0.0,1192.0,1
1108,1108,0.9396421046503736,0.9,0,258.0,529.0,0.0,283.0,1
1109,1109,-0.7247489455334155,-0.7,1,323.0,897.0,1.0,400.0,1
1110,1110,0.07032015219764665,0.1,0,335.0,794.0,0.0,581.0,1
1111,1111,0.9229184942076814,0.9,0,470.0,657.0,0.0,223.0,1
1112,1112,0.49774473882390646,0.5,0,255.0,711.0,0.0,274.0,1
1113,1113,0.3790698867847482,0.4,0,332.0,900.0,0.0,368.0,1
1114,1114,0.7816114127613238,0.8,0,360.0,827.0,0.0,353.0,1
1115,1115,0.34761863382432345,0.3,0,401.0,692.0,0.0,557.0,1
1116,1116,-0.8205246262361103,-0.8,1,334.0,833.0,1.0,213.0,1
1117,1117,0.8818513204836489,0.9,0,257.0,810.0,0.0,83.0,1
1118,1118,-0.5615894063533786,-0.6,1,306.0,711.0,1.0,513.0,1
1119,1119,0.32297047441059035,0.3,0,290.0,751.0,0.0,359.0,1
1120,1120,-0.8239479587493201,-0.8,1,422.0,569.0,1.0,279.0,1
1121,1121,0.7935989967529524,0.8,0,256.0,704.0,0.0,370.0,1
1122,1122,0.3423092791587241,0.3,0,464.0,919.0,0.0,497.0,1
1123,1123,0.548544903596007,0.5,0,397.0,756.0,0.0,227.0,1
1124,1124,0.5810590583601638,0.6,0,281.0,688.0,0.0,351.0,1
1125,1125,0.24828985466258668,0.2,0,357.0,526.0,0.0,847.0,1
1126,1126,0.8233584029083707,0.8,0,329.0,928.0,0.0,433.0,1
1127,1127,-0.7717642670127607,-0.8,1,345.0,846.0,1.0,479.0,1
1128,1128,-0.610592334219916,-0.6,1,268.0,606.0,1.0,386.0,1
1129,1129,0.7531822733813589,0.8,0,289.0,567.0,0.0,254.0,1
1130,1130,-0.7579095644400111,-0.8,1,438.0,948.0,1.0,424.0,1
1131,1131,-0.965354352691566,-1.0,1,300.0,857.0,1.0,273.0,1
1132,1132,0.6568369289390235,0.7,0,308.0,705.0,0.0,487.0,1
1133,1133,0.6878246393180962,0.7,0,293.0,662.0,0.0,335.0,1
1134,1134,-0.1012174156141401,-0.1,1,364.0,553.0,0.0,1263.0,0
1135,1135,-0.28981548853682026,-0.3,1,331.0,684.0,1.0,485.0,1
1136,1136,-0.9201036249195416,-0.9,1,405.0,571.0,1.0,854.0,1
1137,1137,0.9171418230449726,0.9,0,403.0,765.0,0.0,292.0,1
1138,1138,0.8558861288054354,0.9,0,470.0,545.0,0.0,315.0,1
1139,1139,0.8453512069065376,0.8,0,424.0,887.0,0.0,259.0,1
1140,1140,0.9656434665512159,1.0,0,253.0,780.0,0.0,207.0,1
1141,1141,0.6071866267861621,0.6,0,398.0,646.0,0.0,306.0,1
1142,1142,0.733308978336046,0.7,0,423.0,882.0,0.0,255.0,1
1143,1143,0.37129737882730707,0.4,0,416.0,805.0,0.0,249.0,1
1144,1144,0.1926163903752185,0.2,0,353.0,912.0,1.0,615.0,0
1145,1145,0.7184454484678648,0.7,0,290.0,615.0,0.0,295.0,1
1146,1146,-0.3888655438905899,-0.4,1,358.0,679.0,1.0,1083.0,1
1147,1147,-0.18562014859122078,-0.2,1,325.0,972.0,1.0,343.0,1
1148,1148,-0.8976606906894384,-0.9,1,378.0,804.0,1.0,238.0,1
1149,1149,-0.38013025627464136,-0.4,1,445.0,983.0,1.0,422.0,1
1150,1150,0.46733053603454966,0.5,0,462.0,988.0,0.0,350.0,1
1151,1151,-0.4112214917056758,-0.4,1,381.0,505.0,1.0,544.0,1
1152,1152,0.8245271665634974,0.8,0,443.0,639.0,0.0,418.0,1
1153,1153,-0.9166112768012631,-0.9,1,322.0,910.0,1.0,438.0,1
1154,1154,-0.1989490573854238,-0.2,1,437.0,567.0,1.0,986.0,1
1155,1155,-0.991442608932452,-1.0,1,402.0,585.0,1.0,243.0,1
1156,1156,-0.7630793979456743,-0.8,1,261.0,644.0,1.0,465.0,1
1157,1157,8.256078657509214e-05,0.0,0,407.0,851.0,1.0,262.0,0
1158,1158,0.7184970388856742,0.7,0,361.0,940.0,0.0,419.0,1
1159,1159,-0.032875878595683306,-0.0,1,278.0,670.0,0.0,1062.0,0
1160,1160,0.7326133396499381,0.7,0,417.0,783.0,0.0,300.0,1
1161,1161,0.38546102701746876,0.4,0,253.0,844.0,0.0,483.0,1
1162,1162,0.07989351266022449,0.1,0,417.0,523.0,0.0,410.0,1
1163,1163,-0.6367217725507242,-0.6,1,276.0,852.0,1.0,382.0,1
1164,1164,-0.259746091671911,-0.3,1,300.0,702.0,1.0,1668.0,1
1165,1165,-0.546982651041658,-0.5,1,319.0,666.0,1.0,475.0,1
1166,1166,-0.31913408306515767,-0.3,1,335.0,762.0,1.0,713.0,1
1167,1167,-0.954726422619252,-1.0,1,262.0,950.0,1.0,358.0,1
1168,1168,-0.5779630180006285,-0.6,1,282.0,738.0,1.0,360.0,1
1169,1169,0.06561218752403808,0.1,0,452.0,534.0,0.0,924.0,1
1170,1170,-0.03397453313352772,-0.0,1,285.0,858.0,1.0,2497.0,1
1171,1171,0.3701228656987958,0.4,0,287.0,721.0,0.0,262.0,1
1172,1172,-0.029423160525235303,-0.0,1,302.0,884.0,1.0,144.0,1
1173,1173,0.6622971025196975,0.7,0,314.0,607.0,0.0,349.0,1
1174,1174,0.08105241629915616,0.1,0,489.0,643.0,1.0,758.0,0
1175,1175,-0.8232782123913518,-0.8,1,394.0,506.0,1.0,180.0,1
1176,1176,0.07314149452268093,0.1,0,428.0,916.0,0.0,1626.0,1
1177,1177,0.337730425945193,0.3,0,369.0,886.0,0.0,575.0,1
1178,1178,0.12491964433735303,0.1,0,292.0,730.0,0.0,508.0,1
1179,1179,-0.6884335252950147,-0.7,1,329.0,884.0,1.0,427.0,1
1180,1180,0.7534232977606161,0.8,0,324.0,775.0,0.0,281.0,1
1181,1181,-0.7034525472846587,-0.7,1,263.0,748.0,1.0,269.0,1
1182,1182,-0.7966248084830518,-0.8,1,309.0,784.0,1.0,467.0,1
1183,1183,-0.32415190315255926,-0.3,1,406.0,885.0,1.0,359.0,1
1184,1184,0.825332443024223,0.8,0,450.0,874.0,0.0,276.0,1
1185,1185,0.7385781505276918,0.7,0,271.0,900.0,0.0,289.0,1
1186,1186,0.10856188839869207,0.1,0,277.0,682.0,0.0,521.0,1
1187,1187,0.43852313311703384,0.4,0,293.0,630.0,0.0,617.0,1
1188,1188,0.9469499973494291,0.9,0,333.0,913.0,0.0,344.0,1
1189,1189,-0.5697912180432008,-0.6,1,267.0,772.0,1.0,341.0,1
1190,1190,-0.5399997803086267,-0.5,1,374.0,879.0,1.0,407.0,1
1191,1191,-0.8050551693401862,-0.8,1,341.0,922.0,1.0,267.0,1
1192,1192,-0.04939629026161896,-0.0,1,324.0,626.0,0.0,770.0,0
1193,1193,0.7931893379844688,0.8,0,297.0,820.0,0.0,283.0,1
1194,1194,0.23172718416597382,0.2,0,436.0,533.0,0.0,391.0,1
1195,1195,0.8984509938404224,0.9,0,435.0,550.0,0.0,245.0,1
1196,1196,-0.9066203490414666,-0.9,1,466.0,669.0,1.0,245.0,1
1197,1197,0.7533738058760846,0.8,0,264.0,609.0,0.0,327.0,1
1198,1198,-0.9011329002537123,-0.9,1,355.0,853.0,1.0,532.0,1
1199,1199,0.9744356204592577,1.0,0,474.0,875.0,0.0,361.0,1
1200,1200,0.7364692458014332,0.7,0,285.0,610.0,0.0,375.0,1
1201,1201,-0.5679012951327742,-0.6,1,262.0,917.0,1.0,271.0,1
1202,1202,0.07066359940832179,0.1,0,398.0,934.0,1.0,3668.0,0
1203,1203,0.6989723237089835,0.7,0,359.0,606.0,0.0,365.0,1
1204,1204,-0.4285085490466656,-0.4,1,281.0,640.0,1.0,699.0,1
1205,1205,-0.3084998993111028,-0.3,1,365.0,595.0,1.0,360.0,1
1206,1206,0.07878008257547942,0.1,0,439.0,823.0,0.0,978.0,1
1207,1207,0.45523972447296934,0.5,0,298.0,877.0,0.0,355.0,1
1208,1208,0.3653193705778932,0.4,0,342.0,560.0,0.0,278.0,1
1209,1209,-0.455066261321027,-0.5,1,444.0,551.0,1.0,325.0,1
1210,1210,0.42944781577492486,0.4,0,492.0,934.0,0.0,354.0,1
1211,1211,-0.5681897521059689,-0.6,1,296.0,580.0,1.0,244.0,1
1212,1212,-0.33114216168397914,-0.3,1,288.0,756.0,1.0,726.0,1
1213,1213,-0.969600808960678,-1.0,1,401.0,716.0,1.0,193.0,1
1214,1214,-0.4674720890357449,-0.5,1,419.0,595.0,1.0,256.0,1
1215,1215,0.5558328323264607,0.6,0,351.0,674.0,0.0,235.0,1
1216,1216,0.037556814028560925,0.0,0,408.0,871.0,1.0,201.0,0
1217,1217,-0.22149038230058737,-0.2,1,319.0,961.0,1.0,1210.0,1
1218,1218,-0.9263128099314639,-0.9,1,389.0,737.0,1.0,384.0,1
1219,1219,0.400986016662898,0.4,0,286.0,794.0,0.0,330.0,1
1220,1220,-0.45019704496994795,-0.5,1,352.0,877.0,1.0,211.0,1
1221,1221,-0.2903295344255694,-0.3,1,345.0,685.0,1.0,1040.0,1
1222,1222,0.565873418588358,0.6,0,335.0,518.0,0.0,627.0,1
1223,1223,0.5012332393244534,0.5,0,352.0,824.0,0.0,284.0,1
1224,1224,-0.7388213489437627,-0.7,1,419.0,540.0,1.0,261.0,1
1225,1225,-0.2834207475194015,-0.3,1,334.0,508.0,1.0,1448.0,1
1226,1226,0.8648375595662459,0.9,0,385.0,820.0,0.0,245.0,1
1227,1227,-0.5536245792041967,-0.6,1,266.0,701.0,1.0,453.0,1
1228,1228,-0.19753276626920369,-0.2,1,448.0,586.0,1.0,746.0,1
1229,1229,0.293929815479264,0.3,0,263.0,932.0,0.0,495.0,1
1230,1230,0.8500050359681024,0.9,0,328.0,686.0,0.0,276.0,1
1231,1231,-0.15655511899736285,-0.2,1,285.0,697.0,1.0,1398.0,1
1232,1232,-0.07604229546797026,-0.1,1,345.0,728.0,0.0,1467.0,0
1233,1233,-0.8961984747470104,-0.9,1,476.0,874.0,1.0,270.0,1
1234,1234,-0.8433535785021404,-0.8,1,360.0,669.0,1.0,771.0,1
1235,1235,-0.18263135248375617,-0.2,1,289.0,700.0,0.0,951.0,0
1236,1236,-0.36204184567986375,-0.4,1,287.0,929.0,1.0,1254.0,1
1237,1237,0.7278149753147021,0.7,0,416.0,663.0,0.0,311.0,1
1238,1238,-0.3177235294789358,-0.3,1,400.0,586.0,1.0,614.0,1
1239,1239,-0.8100326996132909,-0.8,1,279.0,681.0,1.0,240.0,1
1240,1240,-0.9119238245717911,-0.9,1,496.0,898.0,1.0,416.0,1
1241,1241,0.6760377348817426,0.7,0,449.0,787.0,0.0,354.0,1
1242,1242,-0.9462277922596258,-0.9,1,370.0,640.0,1.0,380.0,1
1243,1243,-0.477319535649098,-0.5,1,365.0,970.0,1.0,325.0,1
1244,1244,0.3782011078555134,0.4,0,336.0,905.0,0.0,549.0,1
1245,1245,0.07316837787323327,0.1,0,273.0,716.0,0.0,611.0,1
1246,1246,-0.12607119795906518,-0.1,1,314.0,556.0,1.0,440.0,1
1247,1247,0.18265934616599067,0.2,0,422.0,703.0,0.0,1505.0,1
1248,1248,-0.33587059250541573,-0.3,1,465.0,647.0,1.0,258.0,1
1249,1249,0.2592583861057338,0.3,0,313.0,708.0,0.0,459.0,1
1250,1250,0.41975469183628933,0.4,0,409.0,781.0,0.0,500.0,1
1251,1251,-0.5546196365762024,-0.6,1,455.0,669.0,1.0,446.0,1
1252,1252,-0.14919311596885487,-0.1,1,459.0,647.0,1.0,884.0,1
1253,1253,-0.7169985547660727,-0.7,1,329.0,818.0,1.0,153.0,1
1254,1254,0.6071140661291459,0.6,0,369.0,585.0,0.0,356.0,1
1255,1255,-0.4707408726332978,-0.5,1,471.0,531.0,1.0,288.0,1
1256,1256,0.3126788289665252,0.3,0,462.0,945.0,0.0,433.0,1
1257,1257,-0.5729264329680988,-0.6,1,307.0,680.0,1.0,363.0,1
1258,1258,0.9694579523129254,1.0,0,478.0,521.0,0.0,231.0,1
1259,1259,-0.5218837120105644,-0.5,1,412.0,921.0,1.0,357.0,1
1260,1260,0.21049898163697467,0.2,0,399.0,776.0,0.0,275.0,1
1261,1261,-0.1737074570301651,-0.2,1,298.0,658.0,1.0,364.0,1
1262,1262,-0.7571391507206107,-0.8,1,467.0,841.0,1.0,462.0,1
1263,1263,-0.11194780125260051,-0.1,1,323.0,998.0,1.0,1019.0,1
1264,1264,-0.967304785980263,-1.0,1,274.0,725.0,1.0,591.0,1
1265,1265,0.1436555077927626,0.1,0,465.0,743.0,0.0,1042.0,1
1266,1266,-0.9763234911955532,-1.0,1,405.0,580.0,1.0,215.0,1
1267,1267,-0.7761805472517436,-0.8,1,411.0,623.0,1.0,356.0,1
1268,1268,-0.481965776767336,-0.5,1,455.0,880.0,1.0,185.0,1
1269,1269,-0.5173577394068698,-0.5,1,331.0,851.0,1.0,588.0,1
1270,1270,0.8558623015170401,0.9,0,418.0,624.0,0.0,328.0,1
1271,1271,0.5900090800769435,0.6,0,394.0,761.0,0.0,215.0,1
1272,1272,-0.2881669530502373,-0.3,1,347.0,511.0,1.0,522.0,1
1273,1273,0.5236837303273869,0.5,0,428.0,670.0,0.0,222.0,1
1274,1274,-0.5314053700190924,-0.5,1,424.0,504.0,1.0,892.0,1
1275,1275,0.49641393342754303,0.5,0,480.0,790.0,0.0,390.0,1
1276,1276,-0.09274372146358534,-0.1,1,449.0,974.0,0.0,997.0,0
1277,1277,0.11886529136082791,0.1,0,302.0,632.0,0.0,446.0,1
1278,1278,0.9215443811888584,0.9,0,442.0,637.0,0.0,411.0,1
1279,1279,-0.5139424177554772,-0.5,1,469.0,882.0,1.0,319.0,1
1280,1280,0.47398344949899895,0.5,0,256.0,875.0,0.0,259.0,1
1281,1281,-0.4043730679607074,-0.4,1,375.0,764.0,1.0,211.0,1
1282,1282,-0.5402485743244716,-0.5,1,438.0,512.0,1.0,300.0,1
1283,1283,0.9644033881198382,1.0,0,335.0,928.0,0.0,357.0,1
1284,1284,-0.1739354613735491,-0.2,1,436.0,840.0,0.0,464.0,0
1285,1285,-0.04784254890393225,-0.0,1,353.0,796.0,0.0,701.0,0
1286,1286,0.08042718227874346,0.1,0,371.0,975.0,0.0,674.0,1
1287,1287,-0.23203249738231402,-0.2,1,439.0,595.0,1.0,336.0,1
1288,1288,0.7751872470711032,0.8,0,260.0,603.0,0.0,207.0,1
1289,1289,-0.13415974829270572,-0.1,1,454.0,956.0,1.0,1150.0,1
1290,1290,0.3948509450650841,0.4,0,338.0,828.0,0.0,1104.0,1
1291,1291,0.7147876881677651,0.7,0,284.0,586.0,0.0,220.0,1
1292,1292,-0.0741733055819549,-0.1,1,362.0,744.0,0.0,494.0,0
1293,1293,-0.2418393507252199,-0.2,1,498.0,971.0,1.0,961.0,1
1294,1294,0.2537304320084428,0.3,0,277.0,821.0,0.0,352.0,1
1295,1295,0.9409088336804847,0.9,0,275.0,659.0,0.0,396.0,1
1296,1296,0.45640746914117036,0.5,0,351.0,592.0,0.0,657.0,1
1297,1297,0.742105646672315,0.7,0,440.0,596.0,0.0,234.0,1
1298,1298,-0.07516826777886498,-0.1,1,414.0,668.0,1.0,678.0,1
1299,1299,-0.46017508636302606,-0.5,1,367.0,881.0,1.0,312.0,1
1300,1300,-0.8049166623571944,-0.8,1,316.0,693.0,1.0,661.0,1
1301,1301,0.6812810921628711,0.7,0,464.0,552.0,0.0,244.0,1
1302,1302,0.307652631009236,0.3,0,378.0,708.0,0.0,604.0,1
1303,1303,-0.6411530755939103,-0.6,1,283.0,548.0,1.0,189.0,1
1304,1304,-0.0752520703103674,-0.1,1,319.0,501.0,1.0,890.0,1
1305,1305,0.6215138059784542,0.6,0,292.0,802.0,0.0,376.0,1
1306,1306,-0.42449047048228494,-0.4,1,317.0,977.0,1.0,1296.0,1
1307,1307,0.3302402062540588,0.3,0,457.0,500.0,0.0,433.0,1
1308,1308,-0.3017767779690661,-0.3,1,275.0,536.0,1.0,299.0,1
1309,1309,0.8639256973320786,0.9,0,300.0,994.0,0.0,406.0,1
1310,1310,-0.9703559496811434,-1.0,1,377.0,984.0,1.0,289.0,1
1311,1311,0.4818202618928924,0.5,0,447.0,564.0,0.0,639.0,1
1312,1312,0.9045066319099608,0.9,0,474.0,576.0,0.0,260.0,1
1313,1313,-0.6795225493456218,-0.7,1,431.0,510.0,1.0,419.0,1
1314,1314,-0.8573832566806452,-0.9,1,325.0,538.0,1.0,327.0,1
1315,1315,-0.39851830429284596,-0.4,1,287.0,572.0,1.0,561.0,1
1316,1316,-0.7084949270440815,-0.7,1,401.0,659.0,1.0,260.0,1
1317,1317,-0.614081938489327,-0.6,1,340.0,772.0,1.0,258.0,1
1318,1318,0.3261018361484773,0.3,0,304.0,905.0,0.0,631.0,1
1319,1319,0.4060843540364658,0.4,0,313.0,909.0,0.0,1238.0,1
1320,1320,0.0425230006315227,0.0,0,309.0,502.0,0.0,1559.0,1
1321,1321,0.7170765141336748,0.7,0,325.0,983.0,0.0,292.0,1
1322,1322,-0.2643153019912541,-0.3,1,373.0,780.0,1.0,757.0,1
1323,1323,0.6097114609426488,0.6,0,431.0,998.0,0.0,411.0,1
1324,1324,-0.9591045826988109,-1.0,1,340.0,594.0,1.0,786.0,1
1325,1325,0.6849277175684447,0.7,0,396.0,721.0,0.0,243.0,1
1326,1326,0.4558970071595847,0.5,0,409.0,774.0,0.0,667.0,1
1327,1327,-0.686821909151496,-0.7,1,458.0,856.0,1.0,256.0,1
1328,1328,0.8915926275598156,0.9,0,262.0,984.0,0.0,254.0,1
1329,1329,0.8979127254556978,0.9,0,307.0,606.0,0.0,377.0,1
1330,1330,0.23943013432047544,0.2,0,398.0,559.0,0.0,413.0,1
1331,1331,0.08678701785542797,0.1,0,384.0,995.0,0.0,341.0,1
1332,1332,-0.4283771157501619,-0.4,1,251.0,538.0,1.0,331.0,1
1333,1333,0.652728592991213,0.7,0,325.0,760.0,0.0,315.0,1
1334,1334,-0.7160606131959337,-0.7,1,364.0,610.0,1.0,246.0,1
1335,1335,-0.2244918491242618,-0.2,1,453.0,535.0,1.0,922.0,1
1336,1336,-0.15152678302615885,-0.2,1,314.0,774.0,1.0,742.0,1
1337,1337,0.4636094856445332,0.5,0,360.0,509.0,0.0,491.0,1
1338,1338,-0.6666606506314736,-0.7,1,353.0,749.0,1.0,288.0,1
1339,1339,-0.9119557682459192,-0.9,1,311.0,577.0,1.0,212.0,1
1340,1340,0.04722608406171824,0.0,0,430.0,898.0,0.0,2172.0,1
1341,1341,0.46670228161379756,0.5,0,397.0,668.0,0.0,385.0,1
1342,1342,-0.6837140305686165,-0.7,1,304.0,615.0,1.0,271.0,1
1343,1343,-0.09382357121349583,-0.1,1,300.0,672.0,1.0,468.0,1
1344,1344,0.9929207038173087,1.0,0,494.0,697.0,0.0,279.0,1
1345,1345,0.8404030245319376,0.8,0,414.0,595.0,0.0,241.0,1
1346,1346,0.26744340164397973,0.3,0,464.0,539.0,0.0,987.0,1
1347,1347,0.7941393408278636,0.8,0,349.0,691.0,0.0,250.0,1
1348,1348,-0.623136101606883,-0.6,1,313.0,623.0,1.0,324.0,1
1349,1349,0.23636302074494142,0.2,0,439.0,520.0,0.0,791.0,1
1350,1350,-0.44362831272832515,-0.4,1,475.0,714.0,1.0,341.0,1
1351,1351,-0.4207123141812241,-0.4,1,306.0,616.0,1.0,468.0,1
1352,1352,-0.2687513127506038,-0.3,1,296.0,583.0,1.0,1531.0,1
1353,1353,0.16840284308034548,0.2,0,466.0,570.0,0.0,1204.0,1
1354,1354,-0.5289625230759876,-0.5,1,256.0,956.0,1.0,568.0,1
1355,1355,0.20174931899763182,0.2,0,315.0,981.0,0.0,274.0,1
1356,1356,-0.7929232453092505,-0.8,1,319.0,948.0,1.0,243.0,1
1357,1357,-0.13087966326387845,-0.1,1,488.0,896.0,1.0,1666.0,1
1358,1358,0.3414646553936942,0.3,0,328.0,538.0,0.0,404.0,1
1359,1359,0.508447592546533,0.5,0,261.0,737.0,0.0,612.0,1
1360,1360,0.5186673332130316,0.5,0,436.0,698.0,0.0,326.0,1
1361,1361,0.3033443953931527,0.3,0,372.0,682.0,0.0,426.0,1
1362,1362,-0.6628227439923944,-0.7,1,329.0,780.0,1.0,221.0,1
1363,1363,0.3579301103749566,0.4,0,463.0,592.0,0.0,465.0,1
1364,1364,-0.48596066845626007,-0.5,1,354.0,714.0,1.0,552.0,1
1365,1365,0.1447532333116428,0.1,0,303.0,600.0,0.0,357.0,1
1366,1366,-0.9035628389738184,-0.9,1,465.0,614.0,1.0,291.0,1
1367,1367,0.3058553062628784,0.3,0,396.0,922.0,0.0,1602.0,1
1368,1368,-0.46610545413861226,-0.5,1,260.0,964.0,1.0,246.0,1
1369,1369,0.35177707527976687,0.4,0,266.0,813.0,0.0,721.0,1
1370,1370,-0.4709757894762161,-0.5,1,396.0,796.0,1.0,598.0,1
1371,1371,0.42120330093519565,0.4,0,338.0,842.0,0.0,680.0,1
1372,1372,-0.3322422341497018,-0.3,1,452.0,705.0,1.0,213.0,1
1373,1373,-0.11143353714592741,-0.1,1,483.0,715.0,0.0,302.0,0
1374,1374,-0.2549084149628458,-0.3,1,260.0,665.0,1.0,345.0,1
1375,1375,0.37213559231773496,0.4,0,269.0,921.0,0.0,220.0,1
1376,1376,0.10695526218426599,0.1,0,288.0,720.0,0.0,572.0,1
1377,1377,-0.7009822622614343,-0.7,1,278.0,774.0,1.0,178.0,1
1378,1378,-0.7317304586886424,-0.7,1,430.0,742.0,1.0,898.0,1
1379,1379,0.5041056063766376,0.5,0,464.0,844.0,0.0,782.0,1
1380,1380,-0.16125720211972405,-0.2,1,352.0,840.0,1.0,678.0,1
1381,1381,-0.9700758756148917,-1.0,1,456.0,944.0,1.0,250.0,1
1382,1382,-0.9269352234606014,-0.9,1,476.0,859.0,1.0,665.0,1
1383,1383,-0.46039754380810893,-0.5,1,305.0,670.0,1.0,805.0,1
1384,1384,-0.9635724666826002,-1.0,1,282.0,753.0,1.0,185.0,1
1385,1385,-0.6212001541480081,-0.6,1,442.0,767.0,1.0,331.0,1
1386,1386,0.555085060420861,0.6,0,495.0,623.0,0.0,362.0,1
1387,1387,-0.1884519663585824,-0.2,1,394.0,612.0,1.0,394.0,1
1388,1388,-0.7079855944093798,-0.7,1,252.0,768.0,1.0,240.0,1
1389,1389,0.8799952237731632,0.9,0,341.0,883.0,0.0,266.0,1
1390,1390,-0.1271307894296383,-0.1,1,426.0,584.0,1.0,1320.0,1
1391,1391,0.04361386399110767,0.0,0,498.0,510.0,0.0,442.0,1
1392,1392,-0.9007868391346325,-0.9,1,277.0,551.0,1.0,502.0,1
1393,1393,0.5331132485031471,0.5,0,361.0,695.0,0.0,354.0,1
1394,1394,0.24229634752622542,0.2,0,318.0,684.0,0.0,268.0,1
1395,1395,-0.06298438316242305,-0.1,1,341.0,900.0,0.0,1729.0,0
1396,1396,0.45185280486714796,0.5,0,461.0,820.0,0.0,319.0,1
1397,1397,0.31525694002336,0.3,0,424.0,756.0,0.0,630.0,1
1398,1398,-0.9715809673080589,-1.0,1,295.0,661.0,1.0,224.0,1
1399,1399,0.9017026715660283,0.9,0,361.0,870.0,0.0,379.0,1
1400,1400,-0.6284999896880972,-0.6,1,342.0,576.0,1.0,292.0,1
1401,1401,-0.7996685310860776,-0.8,1,364.0,744.0,1.0,622.0,1
1402,1402,-0.723989240183535,-0.7,1,394.0,765.0,1.0,661.0,1
1403,1403,0.39041373979456306,0.4,0,453.0,889.0,0.0,758.0,1
1404,1404,-0.6289603875264032,-0.6,1,338.0,994.0,1.0,458.0,1
1405,1405,-0.5185584785237976,-0.5,1,273.0,824.0,1.0,293.0,1
1406,1406,0.8761264794459442,0.9,0,275.0,979.0,0.0,276.0,1
1407,1407,-0.6336453956830153,-0.6,1,338.0,632.0,1.0,450.0,1
1408,1408,-0.300618017635472,-0.3,1,262.0,802.0,1.0,266.0,1
1409,1409,0.0932907197892463,0.1,0,284.0,610.0,1.0,656.0,0
1410,1410,0.916933290543311,0.9,0,469.0,899.0,0.0,372.0,1
1411,1411,0.24183552876640557,0.2,0,285.0,591.0,0.0,354.0,1
1412,1412,0.8793663921768307,0.9,0,434.0,610.0,0.0,226.0,1
1413,1413,-0.6407007996975704,-0.6,1,257.0,719.0,1.0,254.0,1
1414,1414,0.5661328594598494,0.6,0,273.0,964.0,0.0,253.0,1
1415,1415,0.014062859267336414,0.0,0,413.0,864.0,0.0,2243.0,1
1416,1416,-0.37830132003015504,-0.4,1,306.0,516.0,1.0,478.0,1
1417,1417,-0.7176649670032338,-0.7,1,272.0,971.0,1.0,317.0,1
1418,1418,0.37121497136543136,0.4,0,270.0,728.0,0.0,482.0,1
1419,1419,0.744299249706655,0.7,0,379.0,773.0,0.0,208.0,1
1420,1420,0.06125015515460519,0.1,0,308.0,842.0,0.0,1070.0,1
1421,1421,0.9594097154553405,1.0,0,339.0,751.0,0.0,310.0,1
1422,1422,0.6382258160791305,0.6,0,355.0,999.0,0.0,516.0,1
1423,1423,0.9807115946258975,1.0,0,462.0,571.0,0.0,577.0,1
1424,1424,0.9005355113394133,0.9,0,366.0,598.0,0.0,176.0,1
1425,1425,-0.7904296854117725,-0.8,1,330.0,516.0,1.0,234.0,1
1426,1426,-0.6666147079241664,-0.7,1,303.0,832.0,1.0,285.0,1
1427,1427,-0.9080654993031365,-0.9,1,275.0,537.0,1.0,718.0,1
1428,1428,-0.1852714498977237,-0.2,1,338.0,502.0,1.0,250.0,1
1429,1429,-0.8793968254344089,-0.9,1,394.0,861.0,1.0,285.0,1
1430,1430,-0.37740672527966734,-0.4,1,263.0,864.0,1.0,1053.0,1
1431,1431,0.5458416431878368,0.5,0,481.0,759.0,0.0,390.0,1
1432,1432,0.3789093970326889,0.4,0,287.0,741.0,0.0,472.0,1
1433,1433,0.7907443684076967,0.8,0,325.0,897.0,0.0,368.0,1
1434,1434,-0.8821886317793854,-0.9,1,356.0,932.0,1.0,1262.0,1
1435,1435,-0.10593776897922735,-0.1,1,316.0,621.0,1.0,1073.0,1
1436,1436,0.6206899958708738,0.6,0,476.0,720.0,0.0,384.0,1
1437,1437,0.6580480403712885,0.7,0,412.0,555.0,0.0,483.0,1
1438,1438,0.6629158595750446,0.7,0,420.0,749.0,0.0,271.0,1
1439,1439,0.8393263105927729,0.8,0,452.0,651.0,0.0,317.0,1
1440,1440,-0.14796412311129448,-0.1,1,347.0,704.0,1.0,379.0,1
1441,1441,0.3199456569507244,0.3,0,464.0,862.0,0.0,554.0,1
1442,1442,-0.3555033971051409,-0.4,1,336.0,811.0,1.0,383.0,1
1443,1443,-0.8754582412373391,-0.9,1,316.0,988.0,1.0,306.0,1
1444,1444,-0.6960240181702977,-0.7,1,270.0,844.0,1.0,306.0,1
1445,1445,0.3421725290925879,0.3,0,389.0,707.0,0.0,344.0,1
1446,1446,-0.9609807174980607,-1.0,1,352.0,637.0,1.0,831.0,1
1447,1447,-0.5473481575572745,-0.5,1,467.0,886.0,1.0,407.0,1
1448,1448,-0.3254395110794428,-0.3,1,254.0,626.0,1.0,370.0,1
1449,1449,0.12251936885171588,0.1,0,399.0,685.0,0.0,946.0,1
1450,1450,-0.9746809691964613,-1.0,1,432.0,778.0,1.0,240.0,1
1451,1451,-0.022705250717840908,-0.0,1,274.0,692.0,1.0,984.0,1
1452,1452,0.773432036654258,0.8,0,397.0,925.0,0.0,378.0,1
1453,1453,0.9566992650251946,1.0,0,451.0,797.0,0.0,312.0,1
1454,1454,0.07208366595282434,0.1,0,274.0,957.0,1.0,509.0,0
1455,1455,-0.7043686629304016,-0.7,1,416.0,788.0,1.0,266.0,1
1456,1456,0.5013949263421487,0.5,0,483.0,857.0,0.0,280.0,1
1457,1457,0.5985426528760298,0.6,0,263.0,510.0,0.0,487.0,1
1458,1458,0.6564810495490077,0.7,0,333.0,702.0,0.0,265.0,1
1459,1459,-0.15413976385115946,-0.2,1,495.0,789.0,1.0,1606.0,1
1460,1460,-0.6364104014941552,-0.6,1,452.0,745.0,1.0,443.0,1
1461,1461,-0.29682147229990097,-0.3,1,455.0,951.0,1.0,364.0,1
1462,1462,-0.6677879390426811,-0.7,1,407.0,610.0,1.0,403.0,1
1463,1463,0.8852841559640003,0.9,0,449.0,534.0,0.0,247.0,1
1464,1464,0.5250437458217108,0.5,0,367.0,971.0,0.0,332.0,1
1465,1465,0.21182531393725545,0.2,0,412.0,646.0,0.0,702.0,1
1466,1466,-0.31946764284404194,-0.3,1,445.0,745.0,1.0,840.0,1
1467,1467,0.6816510397417881,0.7,0,418.0,607.0,0.0,375.0,1
1468,1468,0.3075298716056545,0.3,0,373.0,951.0,0.0,426.0,1
1469,1469,-0.38388546932379275,-0.4,1,394.0,754.0,1.0,542.0,1
1470,1470,-0.9674006135588271,-1.0,1,283.0,504.0,1.0,193.0,1
1471,1471,-0.0912338291341439,-0.1,1,491.0,719.0,1.0,380.0,1
1472,1472,0.8682721220204999,0.9,0,455.0,571.0,0.0,174.0,1
1473,1473,-0.7025151858341303,-0.7,1,364.0,831.0,1.0,365.0,1
1474,1474,-0.3237076560336516,-0.3,1,370.0,957.0,0.0,553.0,0
1475,1475,-0.8579589330678856,-0.9,1,375.0,661.0,1.0,304.0,1
1476,1476,-0.980552915289175,-1.0,1,390.0,744.0,1.0,286.0,1
1477,1477,0.9691474505113984,1.0,0,466.0,822.0,0.0,362.0,1
1478,1478,0.5819350618424521,0.6,0,257.0,932.0,0.0,361.0,1
1479,1479,-0.3876901119568694,-0.4,1,285.0,602.0,1.0,463.0,1
1480,1480,-0.9862704524716879,-1.0,1,462.0,797.0,1.0,191.0,1
1481,1481,0.9319150567774781,0.9,0,448.0,641.0,0.0,131.0,1
1482,1482,0.6728004296436632,0.7,0,421.0,619.0,0.0,290.0,1
1483,1483,0.3064505467117402,0.3,0,279.0,897.0,0.0,524.0,1
1484,1484,-0.32518530770570253,-0.3,1,464.0,785.0,1.0,1511.0,1
1485,1485,0.6473090020528205,0.6,0,349.0,922.0,0.0,379.0,1
1486,1486,0.06590969386327439,0.1,0,351.0,807.0,0.0,292.0,1
1487,1487,-0.801147002051025,-0.8,1,311.0,958.0,1.0,471.0,1
1488,1488,-0.585236302328261,-0.6,1,376.0,511.0,1.0,333.0,1
1489,1489,0.37035168634201554,0.4,0,482.0,917.0,0.0,291.0,1
1490,1490,-0.0889968549582052,-0.1,1,374.0,663.0,1.0,343.0,1
1491,1491,0.4208225179374563,0.4,0,415.0,785.0,0.0,290.0,1
1492,1492,0.06793492065695461,0.1,0,413.0,934.0,0.0,633.0,1
1493,1493,0.2663044442169702,0.3,0,425.0,983.0,0.0,512.0,1
1494,1494,-0.9609106242109517,-1.0,1,411.0,635.0,1.0,294.0,1
1495,1495,-0.226117684902726,-0.2,1,348.0,631.0,1.0,831.0,1
1496,1496,0.27111961329768275,0.3,0,331.0,757.0,0.0,782.0,1
1497,1497,-0.6985410216878221,-0.7,1,355.0,963.0,1.0,652.0,1
1498,1498,-0.8736325583346534,-0.9,1,452.0,902.0,1.0,236.0,1
1499,1499,-0.8963611520971382,-0.9,1,460.0,879.0,1.0,231.0,1
1500,1500,-0.8360128876283082,-0.8,1,405.0,728.0,1.0,537.0,1
1501,1501,0.30616415320443924,0.3,0,464.0,527.0,0.0,229.0,1
1502,1502,-0.16050066255042506,-0.2,1,257.0,760.0,1.0,3983.0,1
1503,1503,0.1997271296828942,0.2,0,393.0,533.0,0.0,334.0,1
1504,1504,0.8082590195127157,0.8,0,486.0,597.0,0.0,367.0,1
1505,1505,0.8886610547913283,0.9,0,372.0,550.0,0.0,438.0,1
1506,1506,0.09280727847510484,0.1,0,339.0,863.0,0.0,1588.0,1
1507,1507,0.5153087746992693,0.5,0,317.0,660.0,0.0,733.0,1
1508,1508,-0.016153552536053217,-0.0,1,269.0,733.0,0.0,488.0,0
1509,1509,-0.3507715480327591,-0.4,1,391.0,689.0,1.0,860.0,1
1510,1510,0.02428816261581157,0.0,0,483.0,790.0,0.0,237.0,1
1511,1511,-0.6351235746286523,-0.6,1,385.0,700.0,1.0,455.0,1
1512,1512,-0.41460582982938043,-0.4,1,313.0,558.0,1.0,799.0,1
1513,1513,0.897464522556634,0.9,0,267.0,863.0,0.0,270.0,1
1514,1514,0.9589161889189515,1.0,0,492.0,865.0,0.0,323.0,1
1515,1515,0.6993270743950741,0.7,0,332.0,991.0,0.0,607.0,1
1516,1516,-0.10439133894044361,-0.1,1,482.0,940.0,1.0,1048.0,1
1517,1517,0.09232969001491376,0.1,0,482.0,794.0,0.0,1104.0,1
1518,1518,-0.6292252347105445,-0.6,1,344.0,776.0,1.0,360.0,1
1519,1519,0.9343689802565354,0.9,0,390.0,902.0,0.0,188.0,1
1520,1520,0.4775431098802716,0.5,0,292.0,806.0,0.0,482.0,1
1521,1521,0.08641723246669497,0.1,0,284.0,685.0,0.0,1071.0,1
1522,1522,0.47124879643837025,0.5,0,261.0,860.0,0.0,369.0,1
1523,1523,0.7037789861770691,0.7,0,317.0,987.0,0.0,386.0,1
1524,1524,-0.5772627365499474,-0.6,1,428.0,959.0,1.0,253.0,1
1525,1525,-0.5633006052091944,-0.6,1,256.0,714.0,1.0,1000.0,1
1526,1526,-0.4009056569771623,-0.4,1,461.0,509.0,1.0,330.0,1
1527,1527,-0.4066899904580019,-0.4,1,393.0,869.0,1.0,448.0,1
1528,1528,-0.3557469766932242,-0.4,1,454.0,917.0,1.0,679.0,1
1529,1529,-0.4863283477348095,-0.5,1,434.0,606.0,1.0,320.0,1
1530,1530,-0.5651102892221413,-0.6,1,372.0,599.0,1.0,189.0,1
1531,1531,0.6784394767488158,0.7,0,496.0,911.0,0.0,253.0,1
1532,1532,0.021507497661182873,0.0,0,352.0,709.0,0.0,589.0,1
1533,1533,0.10534161902095307,0.1,0,403.0,634.0,0.0,553.0,1
1534,1534,0.475816637552829,0.5,0,339.0,835.0,0.0,316.0,1
1535,1535,-0.774794905984493,-0.8,1,306.0,951.0,1.0,223.0,1
1536,1536,0.7275591362169336,0.7,0,474.0,564.0,0.0,342.0,1
1537,1537,-0.9886564476300925,-1.0,1,292.0,717.0,1.0,291.0,1
1538,1538,-0.8565156246076311,-0.9,1,327.0,751.0,1.0,352.0,1
1539,1539,0.889226484741438,0.9,0,481.0,907.0,0.0,272.0,1
1540,1540,-0.9179761953152454,-0.9,1,295.0,865.0,1.0,260.0,1
1541,1541,-0.4246581224346164,-0.4,1,299.0,826.0,1.0,465.0,1
1542,1542,0.8442217552772548,0.8,0,394.0,866.0,0.0,200.0,1
1543,1543,0.2751682865155727,0.3,0,482.0,736.0,0.0,592.0,1
1544,1544,-0.5074121945541279,-0.5,1,434.0,824.0,1.0,642.0,1
1545,1545,-0.6100721392653945,-0.6,1,388.0,810.0,1.0,272.0,1
1546,1546,0.4332111532506737,0.4,0,315.0,659.0,0.0,396.0,1
1547,1547,-0.3834016039528554,-0.4,1,338.0,982.0,1.0,1650.0,1
1548,1548,0.6315522474896356,0.6,0,284.0,738.0,0.0,388.0,1
1549,1549,0.8428124847470866,0.8,0,488.0,960.0,0.0,272.0,1
1550,1550,-0.02491439122107475,-0.0,1,377.0,906.0,0.0,307.0,0
1551,1551,-0.5307355730840313,-0.5,1,369.0,524.0,1.0,567.0,1
1552,1552,-0.6340924894672901,-0.6,1,314.0,657.0,1.0,289.0,1
1553,1553,0.35646297825825246,0.4,0,300.0,910.0,0.0,520.0,1
1554,1554,-0.8340508062411867,-0.8,1,330.0,786.0,1.0,204.0,1
1555,1555,0.2690637341644857,0.3,0,462.0,936.0,0.0,762.0,1
1556,1556,0.3843342968249668,0.4,0,475.0,779.0,0.0,406.0,1
1557,1557,-0.02226302402743774,-0.0,1,427.0,836.0,0.0,857.0,0
1558,1558,-0.5611728844189858,-0.6,1,277.0,596.0,1.0,277.0,1
1559,1559,-0.3163453989547078,-0.3,1,351.0,657.0,1.0,472.0,1
1560,1560,-0.5698036163308011,-0.6,1,366.0,765.0,1.0,559.0,1
1561,1561,0.4295057502777777,0.4,0,266.0,944.0,0.0,490.0,1
1562,1562,-0.9655380690098745,-1.0,1,454.0,598.0,1.0,888.0,1
1563,1563,-0.5794682058205429,-0.6,1,418.0,877.0,1.0,285.0,1
1564,1564,-0.45581858911753526,-0.5,1,307.0,806.0,1.0,377.0,1
1565,1565,-0.0340822495118458,-0.0,1,488.0,795.0,1.0,557.0,1
1566,1566,0.9279536917413229,0.9,0,253.0,547.0,0.0,340.0,1
1567,1567,-0.27419918903248397,-0.3,1,452.0,869.0,1.0,379.0,1
1568,1568,0.40061594958553126,0.4,0,469.0,612.0,0.0,389.0,1
1569,1569,0.255632445447588,0.3,0,315.0,861.0,0.0,304.0,1
1570,1570,0.5087489711156654,0.5,0,415.0,568.0,0.0,377.0,1
1571,1571,0.38430965223203906,0.4,0,476.0,895.0,0.0,339.0,1
1572,1572,-0.7519390737308138,-0.8,1,311.0,615.0,1.0,214.0,1
1573,1573,0.1208709355830373,0.1,0,262.0,715.0,0.0,693.0,1
1574,1574,0.6682897199540165,0.7,0,276.0,808.0,0.0,386.0,1
1575,1575,-0.9973435295217012,-1.0,1,424.0,594.0,1.0,622.0,1
1576,1576,0.7932367015276702,0.8,0,419.0,602.0,0.0,349.0,1
1577,1577,-0.663560213201166,-0.7,1,308.0,781.0,1.0,541.0,1
1578,1578,0.06545038040156981,0.1,0,320.0,526.0,0.0,364.0,1
1579,1579,-0.057853064222872064,-0.1,1,464.0,771.0,1.0,295.0,1
1580,1580,-0.12981083612175204,-0.1,1,300.0,799.0,1.0,101.0,1
1581,1581,0.9000203224226666,0.9,0,440.0,961.0,0.0,309.0,1
1582,1582,0.3571698615420371,0.4,0,384.0,869.0,0.0,357.0,1
1583,1583,0.6837913741261756,0.7,0,428.0,811.0,0.0,221.0,1
1584,1584,0.8013955169221179,0.8,0,250.0,810.0,0.0,300.0,1
1585,1585,-0.3813466866778561,-0.4,1,427.0,601.0,1.0,362.0,1
1586,1586,-0.6136600092314601,-0.6,1,301.0,683.0,1.0,276.0,1
1587,1587,0.6971389895215065,0.7,0,493.0,745.0,0.0,482.0,1
1588,1588,0.35321362810868995,0.4,0,310.0,786.0,0.0,634.0,1
1589,1589,-0.43348568239468666,-0.4,1,364.0,564.0,1.0,372.0,1
1590,1590,0.3059656923860521,0.3,0,384.0,644.0,0.0,642.0,1
1591,1591,0.8175677994444013,0.8,0,316.0,656.0,0.0,148.0,1
1592,1592,-0.09209486326856409,-0.1,1,434.0,534.0,0.0,2452.0,0
1593,1593,-0.5633084033016074,-0.6,1,475.0,838.0,1.0,217.0,1
1594,1594,-0.5182579749834495,-0.5,1,331.0,894.0,1.0,375.0,1
1595,1595,-0.2456889914324567,-0.2,1,414.0,854.0,1.0,592.0,1
1596,1596,0.03917021702958934,0.0,0,421.0,673.0,0.0,666.0,1
1597,1597,-0.7820410620334912,-0.8,1,390.0,808.0,1.0,182.0,1
1598,1598,0.649665621607378,0.6,0,361.0,515.0,0.0,364.0,1
1599,1599,0.7729843896642223,0.8,0,326.0,813.0,0.0,511.0,1
1600,1600,-0.6982005030248819,-0.7,1,315.0,767.0,1.0,398.0,1
1601,1601,-0.3491908597795059,-0.3,1,325.0,718.0,1.0,327.0,1
1602,1602,-0.48850763652690476,-0.5,1,461.0,910.0,1.0,679.0,1
1603,1603,-0.6919362109947986,-0.7,1,300.0,691.0,1.0,559.0,1
1604,1604,0.941231309957109,0.9,0,477.0,910.0,0.0,163.0,1
1605,1605,-0.2564414761362446,-0.3,1,329.0,908.0,1.0,1293.0,1
1606,1606,-0.27393491179382634,-0.3,1,455.0,724.0,1.0,241.0,1
1607,1607,-0.44258778210990224,-0.4,1,325.0,891.0,1.0,284.0,1
1608,1608,0.7519389504729099,0.8,0,338.0,638.0,0.0,154.0,1
1609,1609,-0.3304165598842119,-0.3,1,489.0,711.0,1.0,710.0,1
1610,1610,-0.337926531208252,-0.3,1,292.0,510.0,1.0,448.0,1
1611,1611,-0.24267112400712176,-0.2,1,381.0,834.0,1.0,205.0,1
1612,1612,-0.8075014049236438,-0.8,1,339.0,596.0,1.0,275.0,1
1613,1613,-0.8362345551987205,-0.8,1,453.0,536.0,1.0,311.0,1
1614,1614,0.20724994199281488,0.2,0,376.0,586.0,0.0,288.0,1
1615,1615,-0.6584472140412796,-0.7,1,481.0,539.0,1.0,640.0,1
1616,1616,0.2722783595187428,0.3,0,351.0,915.0,0.0,694.0,1
1617,1617,0.4089644495011253,0.4,0,457.0,837.0,0.0,536.0,1
1618,1618,0.20213630284029538,0.2,0,385.0,740.0,0.0,885.0,1
1619,1619,-0.01908085561917927,-0.0,1,343.0,922.0,0.0,865.0,0
1620,1620,0.7423616954479637,0.7,0,424.0,804.0,0.0,272.0,1
1621,1621,-0.27634453289130256,-0.3,1,387.0,814.0,1.0,669.0,1
1622,1622,0.22009237275063875,0.2,0,275.0,840.0,0.0,1255.0,1
1623,1623,0.9092568918310544,0.9,0,361.0,810.0,0.0,399.0,1
1624,1624,-0.04319561819080153,-0.0,1,281.0,581.0,0.0,4138.0,0
1625,1625,-0.5342175545132715,-0.5,1,276.0,609.0,1.0,445.0,1
1626,1626,-0.20744374292061663,-0.2,1,421.0,524.0,1.0,345.0,1
1627,1627,-0.9398263916206231,-0.9,1,292.0,953.0,1.0,135.0,1
1628,1628,-0.6114520584156993,-0.6,1,333.0,553.0,1.0,484.0,1
1629,1629,-0.3159500075998838,-0.3,1,331.0,962.0,1.0,407.0,1
1630,1630,0.5907745710431387,0.6,0,435.0,755.0,0.0,200.0,1
1631,1631,-0.4436940894141683,-0.4,1,391.0,574.0,1.0,415.0,1
1632,1632,-0.9492826904902905,-0.9,1,265.0,910.0,1.0,705.0,1
1633,1633,-0.7564253469742592,-0.8,1,331.0,865.0,1.0,314.0,1
1634,1634,-0.9248480465740947,-0.9,1,457.0,973.0,1.0,640.0,1
1635,1635,-0.4357574044337522,-0.4,1,298.0,827.0,1.0,775.0,1
1636,1636,-0.9903758075540456,-1.0,1,284.0,508.0,1.0,218.0,1
1637,1637,0.7353953639302189,0.7,0,409.0,747.0,0.0,284.0,1
1638,1638,-0.3111239174948044,-0.3,1,353.0,849.0,1.0,328.0,1
1639,1639,-0.9049505140946303,-0.9,1,267.0,852.0,1.0,531.0,1
1640,1640,-0.7500642031174374,-0.8,1,298.0,811.0,1.0,481.0,1
1641,1641,-0.5910466926192803,-0.6,1,480.0,687.0,1.0,283.0,1
1642,1642,0.8828463846505852,0.9,0,441.0,685.0,0.0,464.0,1
1643,1643,-0.9747384096048954,-1.0,1,373.0,612.0,1.0,785.0,1
1644,1644,0.983830671269595,1.0,0,357.0,761.0,0.0,292.0,1
1645,1645,0.1980993447765258,0.2,0,349.0,814.0,0.0,697.0,1
1646,1646,-0.5123218763521327,-0.5,1,251.0,929.0,1.0,330.0,1
1647,1647,0.8521882714314266,0.9,0,298.0,822.0,0.0,300.0,1
1648,1648,-0.4942651748737805,-0.5,1,405.0,584.0,1.0,311.0,1
1649,1649,-0.3109702903539282,-0.3,1,422.0,756.0,1.0,1022.0,1
1650,1650,-0.8022855007851288,-0.8,1,391.0,865.0,1.0,434.0,1
1651,1651,0.8382905015227682,0.8,0,268.0,810.0,0.0,432.0,1
1652,1652,-0.06958657703125337,-0.1,1,392.0,949.0,0.0,1019.0,0
1653,1653,-0.6604052067125439,-0.7,1,312.0,876.0,1.0,302.0,1
1654,1654,-0.6992095339440376,-0.7,1,474.0,566.0,1.0,350.0,1
1655,1655,0.6894682867015762,0.7,0,398.0,640.0,0.0,212.0,1
1656,1656,-0.4488645312502204,-0.4,1,323.0,560.0,1.0,387.0,1
1657,1657,-0.824211357315858,-0.8,1,428.0,719.0,1.0,173.0,1
1658,1658,0.0298729917275673,0.0,0,259.0,727.0,1.0,574.0,0
1659,1659,-0.11937622041072848,-0.1,1,397.0,849.0,1.0,784.0,1
1660,1660,0.40071751619128637,0.4,0,361.0,784.0,0.0,265.0,1
1661,1661,-0.10308345162783361,-0.1,1,328.0,501.0,1.0,511.0,1
1662,1662,0.4197038114916225,0.4,0,452.0,819.0,0.0,429.0,1
1663,1663,0.4079102772457035,0.4,0,374.0,937.0,0.0,299.0,1
1664,1664,-0.28214430260814005,-0.3,1,416.0,713.0,1.0,331.0,1
1665,1665,0.3995693977810231,0.4,0,370.0,922.0,0.0,218.0,1
1666,1666,-0.6348863290711682,-0.6,1,383.0,689.0,1.0,148.0,1
1667,1667,-0.7237970529346642,-0.7,1,440.0,621.0,1.0,509.0,1
1668,1668,-0.29297172108167446,-0.3,1,357.0,801.0,1.0,322.0,1
1669,1669,-0.5326512518793871,-0.5,1,281.0,905.0,1.0,394.0,1
1670,1670,-0.8652507265819527,-0.9,1,440.0,530.0,1.0,410.0,1
1671,1671,0.2032984379447198,0.2,0,274.0,590.0,0.0,876.0,1
1672,1672,0.7726936952045034,0.8,0,410.0,707.0,0.0,273.0,1
1673,1673,-0.3190715415168892,-0.3,1,336.0,663.0,1.0,461.0,1
1674,1674,-0.9354544979304615,-0.9,1,326.0,763.0,1.0,441.0,1
1675,1675,0.9241026750934831,0.9,0,444.0,798.0,0.0,308.0,1
1676,1676,-0.3269958166575222,-0.3,1,387.0,653.0,1.0,260.0,1
1677,1677,0.7540427660957709,0.8,0,383.0,759.0,0.0,368.0,1
1678,1678,0.774828384444022,0.8,0,260.0,954.0,0.0,356.0,1
1679,1679,0.0847497795297445,0.1,0,268.0,864.0,0.0,1678.0,1
1680,1680,0.31899509277865046,0.3,0,391.0,637.0,0.0,202.0,1
1681,1681,0.316764487439787,0.3,0,332.0,885.0,0.0,833.0,1
1682,1682,-0.5396221331843443,-0.5,1,434.0,628.0,1.0,528.0,1
1683,1683,0.39134003127362726,0.4,0,318.0,767.0,0.0,645.0,1
1684,1684,0.2598608245969838,0.3,0,291.0,829.0,0.0,280.0,1
1685,1685,-0.6473633642113599,-0.6,1,352.0,582.0,1.0,296.0,1
1686,1686,-0.5329764131544799,-0.5,1,403.0,734.0,1.0,483.0,1
1687,1687,-0.9777769926469408,-1.0,1,267.0,583.0,1.0,210.0,1
1688,1688,0.10582448398512634,0.1,0,268.0,530.0,0.0,962.0,1
1689,1689,-0.0627385910493885,-0.1,1,398.0,763.0,0.0,1069.0,0
