,trial,coherence,coherence_bin,correct_side,target_onset,checker_onset,decision,decision_time,correct_decision,init_y_left,init_y_right
0,0,-0.6956743351016321,-0.7,1,345.0,711.0,1.0,124.0,1,0.49537494737967874,0.49537494737967874
1,1,0.9854806932574935,1.0,0,283.0,568.0,0.0,239.0,1,0.17931250353483796,0.17931250353483796
2,2,0.6668435583921677,0.7,0,296.0,694.0,0.0,280.0,1,0.2964758052012082,0.2964758052012082
3,3,0.15898040371651745,0.2,0,383.0,756.0,0.0,621.0,1,0.2123227272365079,0.2123227272365079
4,4,-0.8713211881583602,-0.9,1,279.0,689.0,1.0,162.0,1,0.16587131434644603,0.16587131434644603
5,5,-0.26660036902076056,-0.3,1,399.0,872.0,0.0,159.0,0,0.33661882125200454,0.33661882125200454
6,6,-0.3891219490922231,-0.4,1,412.0,621.0,1.0,197.0,1,0.19141376754132888,0.19141376754132888
7,7,-0.09189856887946823,-0.1,1,300.0,652.0,0.0,808.0,0,0.30183749353461525,0.30183749353461525
8,8,-0.634044652505928,-0.6,1,489.0,548.0,1.0,133.0,1,0.41274402104095875,0.41274402104095875
9,9,0.9692155506701341,1.0,0,315.0,857.0,0.0,198.0,1,0.03563126575686665,0.03563126575686665
10,10,-0.3804576808938156,-0.4,1,410.0,588.0,1.0,402.0,1,0.3703162132797389,0.3703162132797389
11,11,0.5481576484527502,0.5,0,252.0,642.0,0.0,156.0,1,0.46157803874887493,0.46157803874887493
12,12,0.7043309090498238,0.7,0,470.0,823.0,0.0,477.0,1,0.4662037330435346,0.4662037330435346
13,13,0.7009145181859375,0.7,0,360.0,845.0,0.0,635.0,1,0.42193718396118135,0.42193718396118135
14,14,0.4975153613205192,0.5,0,337.0,674.0,0.0,279.0,1,0.38210177564757536,0.38210177564757536
15,15,0.31075436229364906,0.3,0,419.0,919.0,0.0,232.0,1,0.08574086128441832,0.08574086128441832
16,16,-0.08764868209867505,-0.1,1,281.0,839.0,0.0,190.0,0,0.1382219026800393,0.1382219026800393
17,17,0.23143091901718926,0.2,0,273.0,960.0,1.0,497.0,0,0.48320709618652297,0.48320709618652297
18,18,-0.18017372805898946,-0.2,1,382.0,536.0,0.0,472.0,0,0.3556828248177048,0.3556828248177048
19,19,0.1189269369857131,0.1,0,300.0,670.0,0.0,780.0,1,0.07219511060637501,0.07219511060637501
20,20,-0.3475355298810683,-0.3,1,364.0,653.0,1.0,63.0,1,0.28822294128571835,0.28822294128571835
21,21,0.8676721683974618,0.9,0,494.0,790.0,0.0,116.0,1,0.4488898501293536,0.4488898501293536
22,22,-0.035550478246414,-0.0,1,493.0,902.0,1.0,445.0,1,0.23811612940014953,0.23811612940014953
23,23,0.9526436947707349,1.0,0,477.0,879.0,0.0,264.0,1,0.027736856170267,0.027736856170267
24,24,-0.19519092606975752,-0.2,1,273.0,874.0,0.0,293.0,0,0.1586262538950442,0.1586262538950442
25,25,0.7322383394716467,0.7,0,388.0,930.0,0.0,142.0,1,0.3528573477970211,0.3528573477970211
26,26,-0.23950462931909366,-0.2,1,433.0,913.0,1.0,924.0,1,0.02133882839242507,0.02133882839242507
27,27,0.2694001437514577,0.3,0,275.0,956.0,0.0,179.0,1,0.18610783186228336,0.18610783186228336
28,28,0.15539832123427044,0.2,0,277.0,730.0,0.0,323.0,1,0.35297603752940887,0.35297603752940887
29,29,-0.884018946309117,-0.9,1,299.0,695.0,1.0,696.0,1,0.2785104967178662,0.2785104967178662
30,30,-0.6652955520075838,-0.7,1,385.0,683.0,1.0,352.0,1,0.13122226224973121,0.13122226224973121
31,31,-0.7523129697440738,-0.8,1,445.0,726.0,0.0,529.0,0,0.3736439058113682,0.3736439058113682
32,32,-0.20857429429687602,-0.2,1,485.0,809.0,0.0,496.0,0,0.26984297235216365,0.26984297235216365
33,33,0.19210108955923544,0.2,0,407.0,581.0,0.0,242.0,1,0.31795245753990675,0.31795245753990675
34,34,0.15417619160545493,0.2,0,318.0,532.0,0.0,150.0,1,0.27184842782473545,0.27184842782473545
35,35,-0.24335016426982925,-0.2,1,271.0,682.0,1.0,327.0,1,0.029684679916666068,0.029684679916666068
36,36,-0.17045807102178712,-0.2,1,377.0,831.0,1.0,332.0,1,0.35858630591253055,0.35858630591253055
37,37,0.23590529787687697,0.2,0,486.0,846.0,0.0,828.0,1,0.34374257263352853,0.34374257263352853
38,38,-0.15474506931091225,-0.2,1,488.0,925.0,1.0,387.0,1,0.29546696606853523,0.29546696606853523
39,39,-0.9022155651904038,-0.9,1,319.0,867.0,1.0,184.0,1,0.2783312987983458,0.2783312987983458
40,40,-0.8956770731619041,-0.9,1,454.0,853.0,1.0,613.0,1,0.347255364961652,0.347255364961652
41,41,0.08791046445430184,0.1,0,370.0,992.0,1.0,1068.0,0,0.1198540315783127,0.1198540315783127
42,42,0.3381402031975427,0.3,0,295.0,983.0,1.0,252.0,0,0.2927046350851885,0.2927046350851885
43,43,0.3311983430316101,0.3,0,391.0,848.0,0.0,861.0,1,0.20804777784926054,0.20804777784926054
44,44,-0.22576890331882726,-0.2,1,481.0,934.0,1.0,125.0,1,0.43530352750447976,0.43530352750447976
45,45,0.38033419795193946,0.4,0,290.0,601.0,1.0,299.0,0,0.07831158846180913,0.07831158846180913
46,46,-0.5704975902121847,-0.6,1,433.0,500.0,1.0,77.0,1,0.12882419436562137,0.12882419436562137
47,47,0.6722876762190917,0.7,0,260.0,698.0,0.0,462.0,1,0.07070529868954745,0.07070529868954745
48,48,-0.47154297612483753,-0.5,1,297.0,998.0,1.0,155.0,1,0.3257156699949974,0.3257156699949974
49,49,-0.7250394467711097,-0.7,1,409.0,671.0,1.0,120.0,1,0.3251721595612565,0.3251721595612565
50,50,0.7224006125805691,0.7,0,277.0,952.0,0.0,381.0,1,0.028692110661385384,0.028692110661385384
51,51,0.914366823526445,0.9,0,471.0,814.0,0.0,275.0,1,0.18788480600200552,0.18788480600200552
52,52,-0.30627094968041235,-0.3,1,428.0,606.0,1.0,836.0,1,0.4118764256950709,0.4118764256950709
53,53,-0.9513227635716033,-1.0,1,485.0,733.0,1.0,142.0,1,0.3979834091873576,0.3979834091873576
54,54,0.9408772680683546,0.9,0,343.0,894.0,0.0,623.0,1,0.24151185043046874,0.24151185043046874
55,55,0.8668876516042281,0.9,0,469.0,583.0,0.0,528.0,1,0.39499621406463936,0.39499621406463936
56,56,-0.02785143190794437,-0.0,1,279.0,977.0,0.0,834.0,0,0.2573671074270488,0.2573671074270488
57,57,-0.3087336223056578,-0.3,1,294.0,897.0,1.0,379.0,1,0.29354228196825477,0.29354228196825477
58,58,-0.06676337789387055,-0.1,1,408.0,973.0,1.0,569.0,1,0.4352924374616765,0.4352924374616765
59,59,0.03659893897299149,0.0,0,307.0,958.0,0.0,395.0,1,0.09583563998098776,0.09583563998098776
60,60,-0.4748980404394283,-0.5,1,332.0,864.0,1.0,964.0,1,0.4155291100625242,0.4155291100625242
61,61,-0.19077663189413308,-0.2,1,426.0,848.0,1.0,386.0,1,0.07019306573625961,0.07019306573625961
62,62,0.148525974063084,0.1,0,425.0,947.0,1.0,518.0,0,0.2527485253329203,0.2527485253329203
63,63,-0.5333837248257625,-0.5,1,335.0,725.0,1.0,200.0,1,0.18016370480185145,0.18016370480185145
64,64,-0.39267176643382196,-0.4,1,430.0,536.0,1.0,84.0,1,0.3111626718210122,0.3111626718210122
65,65,-0.330113508747959,-0.3,1,481.0,808.0,1.0,141.0,1,0.17621014527514667,0.17621014527514667
66,66,0.043188043309764446,0.0,0,443.0,532.0,0.0,415.0,1,0.11043269678341161,0.11043269678341161
67,67,0.46778085994134266,0.5,0,378.0,562.0,0.0,500.0,1,0.17087525808176734,0.17087525808176734
68,68,0.7152896079898818,0.7,0,253.0,557.0,0.0,750.0,1,0.008252084994062825,0.008252084994062825
69,69,0.7724016408774392,0.8,0,349.0,996.0,0.0,145.0,1,0.06099778055846533,0.06099778055846533
70,70,0.5457919564915272,0.5,0,327.0,601.0,0.0,642.0,1,0.26384559399935875,0.26384559399935875
71,71,0.9044236885691106,0.9,0,265.0,899.0,0.0,176.0,1,0.17771380177992746,0.17771380177992746
72,72,0.7137237160781762,0.7,0,334.0,900.0,0.0,536.0,1,0.45033852707347083,0.45033852707347083
73,73,0.12289038700954036,0.1,0,340.0,513.0,1.0,327.0,0,0.4905418270948685,0.4905418270948685
74,74,-0.28938739864664176,-0.3,1,382.0,667.0,0.0,381.0,0,0.11148001505201188,0.11148001505201188
75,75,0.3760674827733048,0.4,0,384.0,864.0,0.0,492.0,1,0.3923580946901234,0.3923580946901234
76,76,0.5919817025068521,0.6,0,474.0,543.0,0.0,143.0,1,0.38040148191845036,0.38040148191845036
77,77,-0.4074058560095306,-0.4,1,413.0,517.0,1.0,240.0,1,0.012900734790509905,0.012900734790509905
78,78,-0.40065226745565896,-0.4,1,493.0,517.0,1.0,120.0,1,0.2712106831378865,0.2712106831378865
79,79,-0.7199693584729752,-0.7,1,301.0,579.0,1.0,210.0,1,0.32566366057885526,0.32566366057885526
80,80,0.4986655038612575,0.5,0,455.0,644.0,0.0,201.0,1,0.272703203405388,0.272703203405388
81,81,-0.633085562468781,-0.6,1,326.0,931.0,1.0,293.0,1,0.1011006089669021,0.1011006089669021
82,82,0.47258380446629666,0.5,0,280.0,557.0,1.0,103.0,0,0.2375095539315374,0.2375095539315374
83,83,-0.44073577611320536,-0.4,1,276.0,764.0,1.0,170.0,1,0.10815490495766666,0.10815490495766666
84,84,-0.3454063245519192,-0.3,1,420.0,678.0,0.0,212.0,0,0.17293891254886712,0.17293891254886712
85,85,-0.7545427114931305,-0.8,1,499.0,861.0,1.0,580.0,1,0.20399067574150725,0.20399067574150725
86,86,-0.8286739742829241,-0.8,1,475.0,578.0,1.0,227.0,1,0.4759903215743176,0.4759903215743176
87,87,-0.9734556727835393,-1.0,1,394.0,786.0,1.0,630.0,1,0.2829955448758595,0.2829955448758595
88,88,-0.1745220240008074,-0.2,1,378.0,874.0,1.0,1968.0,1,0.10589629960681346,0.10589629960681346
89,89,-0.854403927277968,-0.9,1,365.0,672.0,1.0,363.0,1,0.06965558360983698,0.06965558360983698
90,90,0.9289611952912424,0.9,0,483.0,643.0,0.0,194.0,1,0.24355096733045445,0.24355096733045445
91,91,0.2519889287396144,0.3,0,437.0,775.0,0.0,398.0,1,0.45863947030142077,0.45863947030142077
92,92,0.5119225688493256,0.5,0,285.0,905.0,0.0,240.0,1,0.017152004398564846,0.017152004398564846
93,93,0.2120171472632264,0.2,0,468.0,630.0,1.0,102.0,0,0.4176467475806984,0.4176467475806984
94,94,-0.8172575236101962,-0.8,1,471.0,576.0,1.0,213.0,1,0.12229363867799209,0.12229363867799209
95,95,0.5613554187122047,0.6,0,489.0,742.0,1.0,219.0,0,0.49537438506563125,0.49537438506563125
96,96,0.8437901299317612,0.8,0,370.0,524.0,0.0,96.0,1,0.41477143166252994,0.41477143166252994
97,97,0.17609508914077554,0.2,0,263.0,553.0,1.0,144.0,0,0.16802016157242466,0.16802016157242466
98,98,0.2843079849879824,0.3,0,397.0,502.0,0.0,441.0,1,0.16719191132828753,0.16719191132828753
99,99,0.8313832152692748,0.8,0,338.0,707.0,0.0,415.0,1,0.3131521322104552,0.3131521322104552
100,100,0.2038552369182678,0.2,0,321.0,676.0,1.0,483.0,0,0.45717009535790637,0.45717009535790637
101,101,-0.8073511377977731,-0.8,1,348.0,585.0,1.0,427.0,1,0.24986791417285803,0.24986791417285803
102,102,0.2300320459924976,0.2,0,378.0,679.0,0.0,623.0,1,0.21411178281707355,0.21411178281707355
103,103,0.21112433023610055,0.2,0,294.0,639.0,0.0,197.0,1,0.35484987113464744,0.35484987113464744
104,104,0.5165844543925862,0.5,0,288.0,752.0,0.0,150.0,1,0.2371041658540698,0.2371041658540698
105,105,0.25032972483016325,0.3,0,272.0,995.0,1.0,473.0,0,0.29067476037814227,0.29067476037814227
106,106,0.09176458335393156,0.1,0,373.0,879.0,1.0,1798.0,0,0.14311565727806147,0.14311565727806147
107,107,0.7886190495612739,0.8,0,262.0,863.0,1.0,345.0,0,0.3932927096844663,0.3932927096844663
108,108,-0.5666955812993415,-0.6,1,279.0,786.0,1.0,595.0,1,0.29812070162588555,0.29812070162588555
109,109,-0.5099073238242953,-0.5,1,254.0,723.0,1.0,123.0,1,0.4287414973812538,0.4287414973812538
110,110,0.2575791504763656,0.3,0,297.0,580.0,0.0,443.0,1,0.07561280386148683,0.07561280386148683
111,111,-0.7640962193169198,-0.8,1,273.0,650.0,1.0,247.0,1,0.1750853968100124,0.1750853968100124
112,112,-0.9020254808343176,-0.9,1,368.0,619.0,1.0,173.0,1,0.1075959988133115,0.1075959988133115
113,113,0.36306267338051823,0.4,0,406.0,941.0,0.0,433.0,1,0.07938741521615555,0.07938741521615555
114,114,0.4586854445470543,0.5,0,309.0,941.0,0.0,90.0,1,0.24733531175298185,0.24733531175298185
115,115,0.41385551775484,0.4,0,453.0,752.0,0.0,185.0,1,0.09949531708966164,0.09949531708966164
116,116,-0.5181937269264052,-0.5,1,345.0,501.0,0.0,64.0,0,0.07553365337145651,0.07553365337145651
117,117,0.9832787148902926,1.0,0,406.0,694.0,0.0,460.0,1,0.31259941086545356,0.31259941086545356
118,118,-0.1144989404343959,-0.1,1,340.0,744.0,0.0,476.0,0,0.25861837772200336,0.25861837772200336
119,119,0.5697489561909712,0.6,0,327.0,567.0,0.0,376.0,1,0.2926222912903916,0.2926222912903916
120,120,-0.3155022898770836,-0.3,1,496.0,929.0,1.0,165.0,1,0.4373273592380267,0.4373273592380267
121,121,0.304462259938759,0.3,0,454.0,776.0,1.0,1270.0,0,0.30395151971868123,0.30395151971868123
122,122,0.11807339664425487,0.1,0,469.0,568.0,0.0,1233.0,1,0.49138840334963674,0.49138840334963674
123,123,0.11445434430852797,0.1,0,445.0,808.0,1.0,167.0,0,0.2483355199905658,0.2483355199905658
124,124,-0.5318104814142579,-0.5,1,394.0,500.0,1.0,166.0,1,0.3736325217454552,0.3736325217454552
125,125,0.8321319001312717,0.8,0,379.0,584.0,0.0,227.0,1,0.05879011309368698,0.05879011309368698
126,126,0.7252039099251655,0.7,0,472.0,691.0,0.0,417.0,1,0.13986869783226052,0.13986869783226052
127,127,-0.942212716925589,-0.9,1,447.0,958.0,1.0,245.0,1,0.2372305297260947,0.2372305297260947
128,128,-0.3049325950156323,-0.3,1,306.0,530.0,0.0,144.0,0,0.3848901678317062,0.3848901678317062
129,129,-0.033996255723157454,-0.0,1,307.0,684.0,0.0,539.0,0,0.033434437290077224,0.033434437290077224
130,130,-0.3078210156445875,-0.3,1,441.0,588.0,1.0,391.0,1,0.43044568899997,0.43044568899997
131,131,0.7116042213540936,0.7,0,417.0,950.0,0.0,303.0,1,0.271553254718804,0.271553254718804
132,132,0.9038856223742573,0.9,0,478.0,527.0,1.0,155.0,0,0.04127440826844342,0.04127440826844342
133,133,-0.5634189577617026,-0.6,1,439.0,966.0,1.0,205.0,1,0.05501445032755564,0.05501445032755564
134,134,0.4253085121059337,0.4,0,491.0,847.0,1.0,152.0,0,0.040992710864979465,0.040992710864979465
135,135,0.7832071249380756,0.8,0,278.0,909.0,0.0,293.0,1,0.4087673947257162,0.4087673947257162
136,136,-0.2583736810261006,-0.3,1,408.0,917.0,0.0,635.0,0,0.0613125230200548,0.0613125230200548
137,137,-0.2837215331465004,-0.3,1,443.0,988.0,0.0,179.0,0,0.13829026409721146,0.13829026409721146
138,138,-0.33937630679645214,-0.3,1,333.0,581.0,1.0,96.0,1,0.1173413181361388,0.1173413181361388
139,139,0.42118737055392974,0.4,0,262.0,818.0,0.0,130.0,1,0.32977187439781114,0.32977187439781114
140,140,-0.3345599393511114,-0.3,1,430.0,827.0,1.0,143.0,1,0.028471061128002795,0.028471061128002795
141,141,0.018856697685733614,0.0,0,261.0,841.0,0.0,198.0,1,0.30954930567254796,0.30954930567254796
142,142,0.7617578126320126,0.8,0,322.0,898.0,0.0,160.0,1,0.0953890589411267,0.0953890589411267
143,143,-0.4261351115407521,-0.4,1,437.0,948.0,1.0,315.0,1,0.043979487679637774,0.043979487679637774
144,144,-0.2556390200294989,-0.3,1,484.0,845.0,0.0,241.0,0,0.16817341260220653,0.16817341260220653
145,145,-0.47568739774917956,-0.5,1,371.0,744.0,1.0,175.0,1,0.20034622813286262,0.20034622813286262
146,146,-0.06625099039320936,-0.1,1,341.0,995.0,0.0,214.0,0,0.030121820982154046,0.030121820982154046
147,147,0.2302632022650748,0.2,0,377.0,931.0,0.0,272.0,1,0.2783727406774946,0.2783727406774946
148,148,0.8642415446346787,0.9,0,312.0,770.0,0.0,248.0,1,0.033541362443546996,0.033541362443546996
149,149,0.08326348925636662,0.1,0,339.0,803.0,0.0,178.0,1,0.245499698488843,0.245499698488843
150,150,-0.6790245349037878,-0.7,1,424.0,557.0,1.0,799.0,1,0.2616640019083103,0.2616640019083103
151,151,-0.2922163981297021,-0.3,1,429.0,525.0,0.0,176.0,0,0.421722689289576,0.421722689289576
152,152,-0.7219378628387134,-0.7,1,431.0,514.0,1.0,155.0,1,0.028229922136401797,0.028229922136401797
153,153,0.36403070187585396,0.4,0,380.0,982.0,0.0,138.0,1,0.48040037282497633,0.48040037282497633
154,154,-0.31225051100463896,-0.3,1,401.0,668.0,1.0,121.0,1,0.19634144058299952,0.19634144058299952
155,155,-0.6530532094911059,-0.7,1,258.0,568.0,0.0,364.0,0,0.16331260989167395,0.16331260989167395
156,156,-0.4368181812455034,-0.4,1,421.0,602.0,1.0,287.0,1,0.37870783465667696,0.37870783465667696
157,157,-0.12353969126005415,-0.1,1,495.0,777.0,1.0,208.0,1,0.39842075167532,0.39842075167532
158,158,0.40995174934464984,0.4,0,263.0,892.0,0.0,455.0,1,0.49309547895995687,0.49309547895995687
159,159,0.12839624850973363,0.1,0,492.0,606.0,1.0,882.0,0,0.14050868751098694,0.14050868751098694
160,160,-0.7962295105563861,-0.8,1,327.0,522.0,1.0,151.0,1,0.45739592081054165,0.45739592081054165
161,161,-0.7448116388608599,-0.7,1,497.0,508.0,1.0,115.0,1,0.4536243826087235,0.4536243826087235
162,162,0.7935136884157772,0.8,0,438.0,987.0,0.0,125.0,1,0.4070440145104618,0.4070440145104618
163,163,-0.4948291067318853,-0.5,1,285.0,542.0,1.0,183.0,1,0.13706880762854678,0.13706880762854678
164,164,-0.9860102448148356,-1.0,1,430.0,972.0,1.0,188.0,1,0.36907995922821896,0.36907995922821896
165,165,-0.3457350539521975,-0.3,1,415.0,804.0,1.0,601.0,1,0.04879964537688691,0.04879964537688691
166,166,0.6804124941086356,0.7,0,426.0,759.0,1.0,105.0,0,0.1975232563573952,0.1975232563573952
167,167,-0.08973344911607328,-0.1,1,283.0,952.0,1.0,385.0,1,0.416393724479521,0.416393724479521
168,168,0.5214460732215229,0.5,0,336.0,943.0,0.0,121.0,1,0.09029224391093316,0.09029224391093316
169,169,0.17851826828888573,0.2,0,357.0,772.0,1.0,871.0,0,0.0566287521295189,0.0566287521295189
170,170,-0.2427462718803055,-0.2,1,266.0,974.0,0.0,140.0,0,0.29849244940417685,0.29849244940417685
171,171,-0.2568741662521665,-0.3,1,278.0,701.0,1.0,1071.0,1,0.2265728329124015,0.2265728329124015
172,172,0.9505141766602216,1.0,0,398.0,964.0,0.0,88.0,1,0.3204188831594481,0.3204188831594481
173,173,-0.810933357395567,-0.8,1,456.0,869.0,1.0,275.0,1,0.13930876146500593,0.13930876146500593
174,174,-0.03260724491241218,-0.0,1,347.0,567.0,1.0,276.0,1,0.49797606441828035,0.49797606441828035
175,175,0.2835668904106714,0.3,0,322.0,769.0,0.0,979.0,1,0.2914002321043653,0.2914002321043653
176,176,-0.7359451326367819,-0.7,1,394.0,817.0,1.0,329.0,1,0.12529921291385143,0.12529921291385143
177,177,0.6282647281625551,0.6,0,398.0,908.0,1.0,164.0,0,0.21486902916830936,0.21486902916830936
178,178,-0.0440351850661469,-0.0,1,454.0,809.0,1.0,197.0,1,0.35420634580761046,0.35420634580761046
179,179,-0.41693634958228687,-0.4,1,497.0,970.0,1.0,93.0,1,0.38372764578335994,0.38372764578335994
180,180,-0.38284483934118607,-0.4,1,405.0,846.0,0.0,209.0,0,0.13522452171594812,0.13522452171594812
181,181,-0.2198117301466982,-0.2,1,457.0,749.0,1.0,184.0,1,0.4328719072892252,0.4328719072892252
182,182,0.7486998672350325,0.7,0,377.0,805.0,0.0,158.0,1,0.1610329210344616,0.1610329210344616
183,183,-0.3118698656136407,-0.3,1,275.0,674.0,1.0,61.0,1,0.09508227656094548,0.09508227656094548
184,184,-0.05018315747198798,-0.1,1,386.0,800.0,1.0,64.0,1,0.3842548250054799,0.3842548250054799
185,185,0.4882792909270659,0.5,0,287.0,545.0,0.0,318.0,1,0.49874314185190916,0.49874314185190916
186,186,-0.15010930069523942,-0.2,1,467.0,674.0,1.0,309.0,1,0.37598104679774125,0.37598104679774125
187,187,0.19682725373709564,0.2,0,394.0,863.0,1.0,123.0,0,0.4158408505418127,0.4158408505418127
188,188,-0.1098045577334632,-0.1,1,441.0,944.0,1.0,605.0,1,0.17093281466063287,0.17093281466063287
189,189,0.70478020916691,0.7,0,341.0,799.0,0.0,150.0,1,0.25428324619739734,0.25428324619739734
190,190,0.9951881752338823,1.0,0,494.0,794.0,0.0,292.0,1,0.24525000937276836,0.24525000937276836
191,191,-0.17685037550746419,-0.2,1,262.0,940.0,1.0,238.0,1,0.342581722778911,0.342581722778911
192,192,-0.4870741426852596,-0.5,1,310.0,977.0,1.0,173.0,1,0.2737168014391979,0.2737168014391979
193,193,0.6880749407612108,0.7,0,283.0,619.0,0.0,408.0,1,0.010334665786458974,0.010334665786458974
194,194,-0.19180264450609186,-0.2,1,364.0,705.0,1.0,81.0,1,0.05004863723971875,0.05004863723971875
195,195,-0.5510381228991907,-0.6,1,297.0,615.0,1.0,298.0,1,0.16349662274294435,0.16349662274294435
196,196,0.7553854577877674,0.8,0,352.0,892.0,0.0,176.0,1,0.192294162228681,0.192294162228681
197,197,0.9361486133533232,0.9,0,445.0,884.0,0.0,311.0,1,0.4382410666610242,0.4382410666610242
198,198,0.8630257530527734,0.9,0,296.0,643.0,0.0,221.0,1,0.18674683262184527,0.18674683262184527
199,199,-0.8837228952670331,-0.9,1,464.0,805.0,1.0,261.0,1,0.35877167878524796,0.35877167878524796
200,200,-0.12794607113542744,-0.1,1,420.0,974.0,1.0,296.0,1,0.12848731117466639,0.12848731117466639
201,201,-0.25166048822098985,-0.3,1,339.0,794.0,1.0,647.0,1,0.11916725574596138,0.11916725574596138
202,202,0.695376784874645,0.7,0,291.0,650.0,0.0,239.0,1,0.20304421516842314,0.20304421516842314
203,203,-0.3327633451635654,-0.3,1,372.0,772.0,1.0,376.0,1,0.2213540731900549,0.2213540731900549
204,204,-0.7948697519162313,-0.8,1,250.0,631.0,1.0,209.0,1,0.055284749671777045,0.055284749671777045
205,205,0.7082058955292945,0.7,0,349.0,873.0,0.0,288.0,1,0.16079482333795203,0.16079482333795203
206,206,0.2605322291122991,0.3,0,416.0,666.0,0.0,568.0,1,0.2215971582544468,0.2215971582544468
207,207,-0.9835444117817396,-1.0,1,287.0,898.0,1.0,405.0,1,0.15731456670057792,0.15731456670057792
208,208,-0.46806353712652005,-0.5,1,337.0,632.0,1.0,201.0,1,0.48532023194755874,0.48532023194755874
209,209,0.31565938162051443,0.3,0,259.0,642.0,0.0,1719.0,1,0.4598966815737047,0.4598966815737047
210,210,0.11125821705754979,0.1,0,448.0,878.0,1.0,174.0,0,0.44193632048963494,0.44193632048963494
211,211,0.6455097106083281,0.6,0,375.0,669.0,0.0,186.0,1,0.3743897419482217,0.3743897419482217
212,212,-0.29062184793635515,-0.3,1,283.0,636.0,1.0,171.0,1,0.353413496375665,0.353413496375665
213,213,0.5090787823411906,0.5,0,404.0,527.0,0.0,1449.0,1,0.2648239316637447,0.2648239316637447
214,214,0.1817799910673381,0.2,0,444.0,977.0,0.0,799.0,1,0.35548215520265286,0.35548215520265286
215,215,-0.13098976366258497,-0.1,1,253.0,678.0,1.0,929.0,1,0.14666366252458707,0.14666366252458707
216,216,-0.5898434537989077,-0.6,1,302.0,993.0,1.0,55.0,1,0.24870632260007058,0.24870632260007058
217,217,0.38195205747888794,0.4,0,450.0,897.0,0.0,183.0,1,0.12303059870611577,0.12303059870611577
218,218,0.5615480090693494,0.6,0,436.0,540.0,0.0,214.0,1,0.2726083292852316,0.2726083292852316
219,219,-0.3354186897106941,-0.3,1,375.0,935.0,0.0,630.0,0,0.05168701782506768,0.05168701782506768
220,220,-0.39250155018275734,-0.4,1,255.0,534.0,1.0,141.0,1,0.29908854024278414,0.29908854024278414
221,221,0.8982376360570243,0.9,0,426.0,806.0,0.0,238.0,1,0.3858759632682449,0.3858759632682449
222,222,-0.04381286485504976,-0.0,1,483.0,539.0,1.0,98.0,1,0.08133553267872945,0.08133553267872945
223,223,-0.9014451681283762,-0.9,1,489.0,542.0,1.0,119.0,1,0.2560059485446593,0.2560059485446593
224,224,-0.14335554278787743,-0.1,1,332.0,803.0,1.0,355.0,1,0.07404489189724972,0.07404489189724972
225,225,-0.09075981798166954,-0.1,1,486.0,990.0,1.0,114.0,1,0.2521173337112258,0.2521173337112258
226,226,-0.053330650211734554,-0.1,1,370.0,777.0,0.0,593.0,0,0.23003887915467197,0.23003887915467197
227,227,0.20009031029254776,0.2,0,280.0,757.0,1.0,703.0,0,0.16738932386134237,0.16738932386134237
228,228,0.2351801269936633,0.2,0,401.0,603.0,0.0,736.0,1,0.2877665295490803,0.2877665295490803
229,229,-0.4530515857569728,-0.5,1,476.0,945.0,1.0,109.0,1,0.4467323857103018,0.4467323857103018
230,230,0.7406091757880173,0.7,0,426.0,769.0,0.0,495.0,1,0.3153437041787279,0.3153437041787279
231,231,-0.7692831848872503,-0.8,1,348.0,832.0,1.0,330.0,1,0.24290601856201943,0.24290601856201943
232,232,0.7616020909173955,0.8,0,369.0,765.0,0.0,136.0,1,0.15426825830631197,0.15426825830631197
233,233,0.4128806439392354,0.4,0,499.0,762.0,0.0,529.0,1,0.4423652574548916,0.4423652574548916
234,234,-0.09886396886527105,-0.1,1,412.0,732.0,0.0,176.0,0,0.27883829047487957,0.27883829047487957
235,235,0.7499587224197182,0.7,0,409.0,606.0,0.0,455.0,1,0.18417532811480464,0.18417532811480464
236,236,0.5970654006187692,0.6,0,395.0,956.0,0.0,269.0,1,0.2761332987960641,0.2761332987960641
237,237,0.8889659778496342,0.9,0,302.0,766.0,0.0,212.0,1,0.14033539895674318,0.14033539895674318
238,238,0.8062748982866843,0.8,0,439.0,828.0,0.0,83.0,1,0.44447030291700257,0.44447030291700257
239,239,-0.1467167453953786,-0.1,1,373.0,688.0,1.0,169.0,1,0.3264386594920815,0.3264386594920815
240,240,-0.6243598120743477,-0.6,1,299.0,913.0,1.0,368.0,1,0.30033659502409477,0.30033659502409477
241,241,0.8280704540645432,0.8,0,312.0,783.0,0.0,585.0,1,0.32978561426562847,0.32978561426562847
242,242,0.8321971409584226,0.8,0,473.0,664.0,0.0,103.0,1,0.30964809339094523,0.30964809339094523
243,243,0.9279067938119039,0.9,0,326.0,504.0,0.0,220.0,1,0.014357729734704394,0.014357729734704394
244,244,0.39866268217254386,0.4,0,321.0,724.0,1.0,145.0,0,0.05297068755870621,0.05297068755870621
245,245,-0.6366756520289294,-0.6,1,344.0,974.0,1.0,212.0,1,0.47679567721215216,0.47679567721215216
246,246,-0.5450723084749711,-0.5,1,367.0,618.0,0.0,285.0,0,0.13522230305674993,0.13522230305674993
247,247,0.4974230286358925,0.5,0,445.0,563.0,0.0,522.0,1,0.2003159441331378,0.2003159441331378
248,248,-0.1628285976130157,-0.2,1,437.0,907.0,1.0,356.0,1,0.07562382193257144,0.07562382193257144
249,249,0.6476999236826995,0.6,0,368.0,745.0,0.0,307.0,1,0.3332228760623354,0.3332228760623354
250,250,0.8555518222547716,0.9,0,284.0,915.0,0.0,711.0,1,0.18918575653609487,0.18918575653609487
251,251,-0.06221385861792106,-0.1,1,257.0,680.0,1.0,693.0,1,0.42561041521765003,0.42561041521765003
252,252,0.4687401715133419,0.5,0,482.0,885.0,1.0,263.0,0,0.3607477688163297,0.3607477688163297
253,253,-0.6341594422017487,-0.6,1,335.0,633.0,1.0,152.0,1,0.2689816408402806,0.2689816408402806
254,254,-0.038225686129497616,-0.0,1,340.0,561.0,0.0,269.0,0,0.22295232615925054,0.22295232615925054
255,255,0.3322828952907164,0.3,0,349.0,762.0,1.0,419.0,0,0.2468422404132541,0.2468422404132541
256,256,0.572776354125909,0.6,0,441.0,664.0,0.0,265.0,1,0.3105251181564865,0.3105251181564865
257,257,-0.6251956851371412,-0.6,1,331.0,533.0,1.0,176.0,1,0.3743983936045994,0.3743983936045994
258,258,0.9696553409715878,1.0,0,478.0,715.0,0.0,177.0,1,0.22155844918498002,0.22155844918498002
259,259,-0.8354595338128883,-0.8,1,318.0,655.0,1.0,207.0,1,0.398840232001824,0.398840232001824
260,260,-0.038958766974526826,-0.0,1,488.0,910.0,0.0,72.0,0,0.2352991535461496,0.2352991535461496
261,261,-0.4789596487065899,-0.5,1,319.0,682.0,1.0,349.0,1,0.2797493500777759,0.2797493500777759
262,262,0.22226245344640905,0.2,0,377.0,597.0,0.0,416.0,1,0.43712949971984094,0.43712949971984094
263,263,-0.8526994014339178,-0.9,1,346.0,753.0,0.0,321.0,0,0.456734983660165,0.456734983660165
264,264,0.343598865579809,0.3,0,392.0,862.0,0.0,246.0,1,0.1567774933385323,0.1567774933385323
265,265,-0.3611106729548088,-0.4,1,425.0,936.0,1.0,279.0,1,0.3913968178605188,0.3913968178605188
266,266,-0.9383968664376787,-0.9,1,410.0,916.0,1.0,224.0,1,0.11097900528550214,0.11097900528550214
267,267,-0.35602942930985293,-0.4,1,271.0,504.0,1.0,775.0,1,0.15373775317723865,0.15373775317723865
268,268,0.14531266434175638,0.1,0,439.0,751.0,1.0,910.0,0,0.29606882561491055,0.29606882561491055
269,269,-0.2244283939765377,-0.2,1,351.0,531.0,1.0,948.0,1,0.4547688084430953,0.4547688084430953
270,270,0.477944074552769,0.5,0,255.0,504.0,0.0,201.0,1,0.31984569211330033,0.31984569211330033
271,271,-0.9734189430296138,-1.0,1,493.0,715.0,1.0,552.0,1,0.4169004102074582,0.4169004102074582
272,272,-0.7679859329618111,-0.8,1,369.0,867.0,1.0,114.0,1,0.12006185898226551,0.12006185898226551
273,273,0.821250711099887,0.8,0,370.0,916.0,0.0,144.0,1,0.13319122846689868,0.13319122846689868
274,274,-0.9420711104322692,-0.9,1,291.0,617.0,1.0,252.0,1,0.4073800892260714,0.4073800892260714
275,275,0.9584044509715635,1.0,0,419.0,933.0,0.0,258.0,1,0.41489533346570123,0.41489533346570123
276,276,-0.9291096889893904,-0.9,1,416.0,813.0,1.0,161.0,1,0.3157315569294797,0.3157315569294797
277,277,-0.054943444758408067,-0.1,1,357.0,571.0,1.0,142.0,1,0.15732115872227903,0.15732115872227903
278,278,-0.6985545614626893,-0.7,1,488.0,757.0,1.0,175.0,1,0.12473194767628398,0.12473194767628398
279,279,-0.6189379055863129,-0.6,1,414.0,979.0,1.0,327.0,1,0.04087066805478745,0.04087066805478745
280,280,0.41071289835641034,0.4,0,336.0,830.0,0.0,144.0,1,0.01571004125450426,0.01571004125450426
281,281,0.46992154891223437,0.5,0,393.0,790.0,0.0,387.0,1,0.2679758272218292,0.2679758272218292
282,282,0.8621757467946889,0.9,0,473.0,671.0,0.0,106.0,1,0.31635616728787724,0.31635616728787724
283,283,-0.3076780978167015,-0.3,1,465.0,550.0,0.0,795.0,0,0.08782515483719022,0.08782515483719022
284,284,0.30407088209315325,0.3,0,274.0,761.0,0.0,215.0,1,0.21878960803612968,0.21878960803612968
285,285,-0.9180533186370416,-0.9,1,412.0,694.0,1.0,94.0,1,0.3821915490541534,0.3821915490541534
286,286,-0.49338849157695797,-0.5,1,345.0,769.0,1.0,326.0,1,0.25021388459089017,0.25021388459089017
287,287,-0.7346041964392926,-0.7,1,413.0,609.0,1.0,538.0,1,0.4453032958691006,0.4453032958691006
288,288,0.7011283342773089,0.7,0,491.0,557.0,0.0,232.0,1,0.4080644847242022,0.4080644847242022
289,289,-0.08131181503529339,-0.1,1,265.0,526.0,0.0,179.0,0,0.03354951414451374,0.03354951414451374
290,290,0.9598606643126224,1.0,0,384.0,994.0,0.0,212.0,1,0.1075941480029467,0.1075941480029467
291,291,-0.14246265454357365,-0.1,1,375.0,638.0,1.0,177.0,1,0.30443812354218797,0.30443812354218797
292,292,0.8512095272302722,0.9,0,259.0,924.0,0.0,407.0,1,0.17100477930214047,0.17100477930214047
293,293,-0.514414603588851,-0.5,1,352.0,781.0,1.0,257.0,1,0.26710668640019586,0.26710668640019586
294,294,0.8050500814143555,0.8,0,452.0,930.0,0.0,448.0,1,0.3869025032778724,0.3869025032778724
295,295,0.36400579502377717,0.4,0,493.0,677.0,0.0,240.0,1,0.45538521865963677,0.45538521865963677
296,296,0.6281228834574031,0.6,0,428.0,581.0,0.0,701.0,1,0.029383591435708012,0.029383591435708012
297,297,-0.3740464966792205,-0.4,1,406.0,970.0,0.0,194.0,0,0.008702246609066655,0.008702246609066655
298,298,0.15073503792209264,0.2,0,326.0,864.0,1.0,340.0,0,0.010944131561404447,0.010944131561404447
299,299,-0.9984302155983928,-1.0,1,313.0,501.0,1.0,416.0,1,0.32923931832597275,0.32923931832597275
300,300,0.07439845415162583,0.1,0,287.0,546.0,1.0,87.0,0,0.11801465766085883,0.11801465766085883
301,301,0.6594867081988613,0.7,0,280.0,947.0,0.0,183.0,1,0.44408610502231655,0.44408610502231655
302,302,-0.685436126824813,-0.7,1,480.0,879.0,1.0,331.0,1,0.08510959157528253,0.08510959157528253
303,303,-0.850807830792043,-0.9,1,346.0,772.0,1.0,82.0,1,0.2544384036229928,0.2544384036229928
304,304,0.2579104489069921,0.3,0,487.0,764.0,1.0,539.0,0,0.007117268856134729,0.007117268856134729
305,305,-0.7274833085566168,-0.7,1,459.0,983.0,1.0,328.0,1,0.3703551584506036,0.3703551584506036
306,306,-0.11108212238355542,-0.1,1,320.0,908.0,0.0,142.0,0,0.063630291564792,0.063630291564792
307,307,-0.5938779101902958,-0.6,1,371.0,679.0,1.0,600.0,1,0.21553684778441917,0.21553684778441917
308,308,0.07570075425758005,0.1,0,445.0,656.0,1.0,269.0,0,0.23544280335897455,0.23544280335897455
309,309,0.6615959017865205,0.7,0,405.0,714.0,0.0,291.0,1,0.44810266037396446,0.44810266037396446
310,310,-0.18876443378022234,-0.2,1,432.0,542.0,1.0,266.0,1,0.016519633199036543,0.016519633199036543
311,311,-0.33384487518322414,-0.3,1,430.0,977.0,1.0,403.0,1,0.05930849363833346,0.05930849363833346
312,312,0.16073190750308197,0.2,0,349.0,684.0,0.0,457.0,1,0.11708556145509269,0.11708556145509269
313,313,0.7056260746134773,0.7,0,424.0,582.0,0.0,204.0,1,0.35966116415319316,0.35966116415319316
314,314,-0.14731283982991927,-0.1,1,356.0,655.0,1.0,269.0,1,0.1415592868306259,0.1415592868306259
315,315,0.1303573737029049,0.1,0,269.0,679.0,1.0,212.0,0,0.0492552333628925,0.0492552333628925
316,316,0.453563361416365,0.5,0,279.0,717.0,0.0,1334.0,1,0.44265065105785084,0.44265065105785084
317,317,-0.5059403784939973,-0.5,1,302.0,907.0,1.0,261.0,1,0.15259004487386746,0.15259004487386746
318,318,0.42557779642198135,0.4,0,368.0,956.0,1.0,1276.0,0,0.04982672096635948,0.04982672096635948
319,319,0.2378600613863,0.2,0,484.0,619.0,1.0,567.0,0,0.37280957727446806,0.37280957727446806
320,320,-0.9096732088119204,-0.9,1,454.0,516.0,1.0,150.0,1,0.06623386741396203,0.06623386741396203
321,321,-0.2842626428394821,-0.3,1,468.0,961.0,1.0,241.0,1,0.43855606162529254,0.43855606162529254
322,322,-0.44305872181254036,-0.4,1,446.0,928.0,1.0,756.0,1,0.15986855700919445,0.15986855700919445
323,323,-0.5189719920637426,-0.5,1,453.0,508.0,0.0,429.0,0,0.14551719010628622,0.14551719010628622
324,324,-0.010444267761380521,-0.0,1,340.0,830.0,1.0,620.0,1,0.4775655989475894,0.4775655989475894
325,325,-0.24183873930776678,-0.2,1,484.0,755.0,1.0,121.0,1,0.4163565064412367,0.4163565064412367
326,326,-0.8887751374284694,-0.9,1,469.0,902.0,1.0,129.0,1,0.2833501963404409,0.2833501963404409
327,327,0.24778433889244011,0.2,0,376.0,671.0,1.0,73.0,0,0.3289787932263866,0.3289787932263866
328,328,-0.8854846639568834,-0.9,1,435.0,818.0,1.0,177.0,1,0.20313019216991984,0.20313019216991984
329,329,0.609672269583168,0.6,0,436.0,976.0,0.0,668.0,1,0.3455526119167758,0.3455526119167758
330,330,0.8525757757770067,0.9,0,346.0,651.0,0.0,173.0,1,0.09377276472517931,0.09377276472517931
331,331,-0.9190386086433047,-0.9,1,338.0,678.0,1.0,314.0,1,0.359659482615399,0.359659482615399
332,332,0.8453038065607124,0.8,0,474.0,500.0,0.0,146.0,1,0.180138828658651,0.180138828658651
333,333,0.7233039749185066,0.7,0,388.0,899.0,0.0,63.0,1,0.22541873081852432,0.22541873081852432
334,334,-0.1888260823913226,-0.2,1,333.0,886.0,1.0,1041.0,1,0.01875386445792332,0.01875386445792332
335,335,-0.021534967792557147,-0.0,1,312.0,894.0,1.0,844.0,1,0.3188408516386449,0.3188408516386449
336,336,-0.9939798586241062,-1.0,1,351.0,795.0,1.0,154.0,1,0.3649418398080914,0.3649418398080914
337,337,0.4339937904178244,0.4,0,295.0,990.0,1.0,125.0,0,0.16746721054353508,0.16746721054353508
338,338,-0.2847848058229807,-0.3,1,418.0,925.0,1.0,207.0,1,0.4867828494820524,0.4867828494820524
339,339,-0.9721019063147587,-1.0,1,409.0,827.0,1.0,224.0,1,0.11501756041095124,0.11501756041095124
340,340,0.8677024107071327,0.9,0,499.0,592.0,0.0,169.0,1,0.16551510148094756,0.16551510148094756
341,341,-0.32799231297189957,-0.3,1,476.0,756.0,1.0,478.0,1,0.3017247097805393,0.3017247097805393
342,342,-0.9137276140456239,-0.9,1,395.0,657.0,1.0,268.0,1,0.18064329717617278,0.18064329717617278
343,343,0.7257061204853186,0.7,0,288.0,991.0,0.0,221.0,1,0.1588171069033253,0.1588171069033253
344,344,-0.652526079887014,-0.7,1,428.0,945.0,1.0,537.0,1,0.3239760139621657,0.3239760139621657
345,345,0.9470890792957065,0.9,0,423.0,704.0,0.0,253.0,1,0.37468030199510216,0.37468030199510216
346,346,0.8908616301863013,0.9,0,368.0,853.0,1.0,149.0,0,0.33611414030120895,0.33611414030120895
347,347,0.7981836029531473,0.8,0,443.0,588.0,0.0,309.0,1,0.23014961458031813,0.23014961458031813
348,348,-0.9207018202888313,-0.9,1,443.0,959.0,1.0,338.0,1,0.30104164114803794,0.30104164114803794
349,349,0.12601713724105368,0.1,0,473.0,699.0,1.0,618.0,0,0.4242714426056225,0.4242714426056225
350,350,-0.8258404654967899,-0.8,1,404.0,848.0,1.0,178.0,1,0.2837195307247303,0.2837195307247303
351,351,-0.8629908003909741,-0.9,1,482.0,892.0,1.0,246.0,1,0.4953977264630663,0.4953977264630663
352,352,-0.3905171154827858,-0.4,1,261.0,994.0,1.0,155.0,1,0.29294401712584806,0.29294401712584806
353,353,-0.9864451145250179,-1.0,1,359.0,608.0,1.0,93.0,1,0.028003877707822533,0.028003877707822533
354,354,0.23395634894389272,0.2,0,480.0,711.0,0.0,259.0,1,0.3747075811251999,0.3747075811251999
355,355,-0.9523881214995153,-1.0,1,449.0,696.0,1.0,165.0,1,0.05297020479996928,0.05297020479996928
356,356,-0.47781605833573537,-0.5,1,331.0,877.0,1.0,232.0,1,0.0016798104543832015,0.0016798104543832015
357,357,-0.5789687740928218,-0.6,1,360.0,884.0,1.0,186.0,1,0.3285404953560061,0.3285404953560061
358,358,0.8052050569008076,0.8,0,376.0,600.0,0.0,154.0,1,0.16077324107419416,0.16077324107419416
359,359,-0.28843092884587973,-0.3,1,407.0,860.0,1.0,143.0,1,0.2240125239035206,0.2240125239035206
360,360,0.22810959453770008,0.2,0,345.0,835.0,0.0,830.0,1,0.04426642403684816,0.04426642403684816
361,361,0.9933530832249269,1.0,0,461.0,582.0,0.0,237.0,1,0.4061909733571343,0.4061909733571343
362,362,-0.8029350868131004,-0.8,1,463.0,858.0,1.0,119.0,1,0.1960000755731458,0.1960000755731458
363,363,0.43535962326723165,0.4,0,409.0,694.0,1.0,627.0,0,0.01664861990058769,0.01664861990058769
364,364,-0.8759878165836337,-0.9,1,337.0,726.0,1.0,277.0,1,0.12475625209428004,0.12475625209428004
365,365,0.13037664900407275,0.1,0,392.0,797.0,1.0,41.0,0,0.472460925670767,0.472460925670767
366,366,0.9102063149402746,0.9,0,329.0,529.0,0.0,122.0,1,0.20022234639605496,0.20022234639605496
367,367,-0.9997197626449559,-1.0,1,306.0,958.0,1.0,186.0,1,0.4061943131076246,0.4061943131076246
368,368,-0.9224372747377292,-0.9,1,444.0,997.0,1.0,179.0,1,0.40782630107729656,0.40782630107729656
369,369,0.3649894504200475,0.4,0,415.0,505.0,0.0,190.0,1,0.3707629181898599,0.3707629181898599
370,370,-0.9850114159393037,-1.0,1,494.0,647.0,1.0,329.0,1,0.4154737868341042,0.4154737868341042
371,371,0.8171812918101753,0.8,0,415.0,807.0,0.0,168.0,1,0.06059457530849155,0.06059457530849155
372,372,-0.7107776201065215,-0.7,1,463.0,746.0,1.0,271.0,1,0.2849543871387056,0.2849543871387056
373,373,0.4726954199290814,0.5,0,338.0,645.0,1.0,527.0,0,0.1527669932222938,0.1527669932222938
374,374,0.809150831285046,0.8,0,420.0,528.0,0.0,242.0,1,0.30112101435789507,0.30112101435789507
375,375,0.5313380260908585,0.5,0,392.0,837.0,0.0,61.0,1,0.2989623579924235,0.2989623579924235
376,376,-0.8064847773161932,-0.8,1,380.0,634.0,1.0,106.0,1,0.12200239676636332,0.12200239676636332
377,377,-0.23110577216011263,-0.2,1,274.0,625.0,0.0,521.0,0,0.03244380536881908,0.03244380536881908
378,378,0.38300913746616905,0.4,0,257.0,921.0,0.0,472.0,1,0.41001147206696675,0.41001147206696675
379,379,0.12359534762686608,0.1,0,465.0,857.0,1.0,188.0,0,0.22126686710151416,0.22126686710151416
380,380,-0.12367081734104879,-0.1,1,276.0,809.0,1.0,175.0,1,0.08727647690339163,0.08727647690339163
381,381,-0.36987682481807393,-0.4,1,493.0,971.0,1.0,346.0,1,0.4108881283977372,0.4108881283977372
382,382,0.6201518457626325,0.6,0,414.0,574.0,0.0,212.0,1,0.4109702056101994,0.4109702056101994
383,383,-0.45272676766344166,-0.5,1,477.0,910.0,1.0,443.0,1,0.018920571458092672,0.018920571458092672
384,384,0.7264602217901859,0.7,0,329.0,993.0,0.0,368.0,1,0.07523658762866664,0.07523658762866664
385,385,-0.13196131070658423,-0.1,1,423.0,785.0,1.0,472.0,1,0.15802532318352813,0.15802532318352813
386,386,-0.7684273675637354,-0.8,1,385.0,731.0,1.0,364.0,1,0.15818592269697185,0.15818592269697185
387,387,0.536615784448135,0.5,0,467.0,734.0,0.0,139.0,1,0.4582381222301846,0.4582381222301846
388,388,-0.29132936713212887,-0.3,1,331.0,637.0,0.0,222.0,0,0.33763894985487164,0.33763894985487164
389,389,0.3458963416036738,0.3,0,338.0,957.0,1.0,795.0,0,0.26099947784240235,0.26099947784240235
390,390,-0.8291123771566442,-0.8,1,497.0,515.0,1.0,188.0,1,0.24206560523486942,0.24206560523486942
391,391,0.4002350893627009,0.4,0,261.0,701.0,0.0,458.0,1,3.5662020409499284e-06,3.5662020409499284e-06
392,392,-0.22431479045646352,-0.2,1,323.0,651.0,1.0,526.0,1,0.42472146479235806,0.42472146479235806
393,393,-0.25468731719749615,-0.3,1,250.0,900.0,1.0,270.0,1,0.24456891032369588,0.24456891032369588
394,394,0.5612051895566073,0.6,0,261.0,691.0,1.0,538.0,0,0.4630553543806976,0.4630553543806976
395,395,0.7647535463707142,0.8,0,458.0,708.0,0.0,484.0,1,0.23247357526315537,0.23247357526315537
396,396,-0.9184689864695215,-0.9,1,449.0,962.0,1.0,149.0,1,0.2727821159947388,0.2727821159947388
397,397,-0.2132438971366568,-0.2,1,312.0,766.0,1.0,1322.0,1,0.0784123343920638,0.0784123343920638
398,398,0.9771356661139332,1.0,0,391.0,931.0,0.0,358.0,1,0.3670927647906148,0.3670927647906148
399,399,0.30089538031627083,0.3,0,460.0,901.0,0.0,159.0,1,0.11204825774458405,0.11204825774458405
400,400,-0.02678082149053229,-0.0,1,308.0,845.0,1.0,117.0,1,0.26946867132064717,0.26946867132064717
401,401,0.26922678163854896,0.3,0,302.0,896.0,0.0,202.0,1,0.2892902738777636,0.2892902738777636
402,402,0.09682763005448014,0.1,0,349.0,817.0,0.0,1324.0,1,0.11033683663710703,0.11033683663710703
403,403,-0.439419450894714,-0.4,1,277.0,648.0,1.0,735.0,1,0.4221841306857771,0.4221841306857771
404,404,-0.3305153943679544,-0.3,1,348.0,947.0,1.0,145.0,1,0.4769327922989494,0.4769327922989494
405,405,-0.8343405866905733,-0.8,1,285.0,612.0,1.0,223.0,1,0.29726703207838207,0.29726703207838207
406,406,-0.9379169391771789,-0.9,1,366.0,984.0,1.0,270.0,1,0.4631804417708966,0.4631804417708966
407,407,-0.7718152739746234,-0.8,1,409.0,705.0,1.0,316.0,1,0.2944758085307247,0.2944758085307247
408,408,0.6969866471644577,0.7,0,382.0,734.0,0.0,174.0,1,0.49110959760033285,0.49110959760033285
409,409,-0.6508476607157718,-0.7,1,373.0,661.0,1.0,286.0,1,0.2254463037139502,0.2254463037139502
410,410,0.1116049830812953,0.1,0,428.0,869.0,0.0,183.0,1,0.2773994230772983,0.2773994230772983
411,411,-0.8627111873783992,-0.9,1,267.0,898.0,1.0,185.0,1,0.145380200940895,0.145380200940895
412,412,0.16024485546934764,0.2,0,287.0,653.0,0.0,200.0,1,0.14672467600478262,0.14672467600478262
413,413,-0.5156769277919546,-0.5,1,270.0,565.0,1.0,185.0,1,0.14674685994159542,0.14674685994159542
414,414,-0.030047589693170007,-0.0,1,476.0,961.0,1.0,873.0,1,0.0012917154508693685,0.0012917154508693685
415,415,0.8487876160489256,0.8,0,410.0,749.0,0.0,211.0,1,0.4659835532560278,0.4659835532560278
416,416,0.20436360096806183,0.2,0,468.0,686.0,0.0,1126.0,1,0.29235909985602876,0.29235909985602876
417,417,-0.7129278290868897,-0.7,1,448.0,724.0,1.0,698.0,1,0.21163921646404704,0.21163921646404704
418,418,-0.6841008372732551,-0.7,1,445.0,886.0,1.0,99.0,1,0.15895470301186942,0.15895470301186942
419,419,0.9400864590792886,0.9,0,396.0,761.0,0.0,253.0,1,0.11698881489758145,0.11698881489758145
420,420,0.018489008854420064,0.0,0,450.0,741.0,1.0,389.0,0,0.2625335336160014,0.2625335336160014
421,421,-0.7606207051479421,-0.8,1,388.0,531.0,1.0,141.0,1,0.1577095607430689,0.1577095607430689
422,422,0.9349350620740982,0.9,0,345.0,991.0,0.0,324.0,1,0.480969854765494,0.480969854765494
423,423,-0.8191186589814379,-0.8,1,444.0,946.0,1.0,280.0,1,0.21222417631973833,0.21222417631973833
424,424,0.2989431710282999,0.3,0,489.0,503.0,1.0,188.0,0,0.4513441696509857,0.4513441696509857
425,425,-0.6238497151319025,-0.6,1,287.0,789.0,1.0,164.0,1,0.2952245136251765,0.2952245136251765
426,426,-0.953812142998258,-1.0,1,472.0,739.0,1.0,159.0,1,0.2713824479705899,0.2713824479705899
427,427,-0.9885767740793652,-1.0,1,452.0,752.0,1.0,226.0,1,0.3434979506112473,0.3434979506112473
428,428,-0.002954628401209858,-0.0,1,411.0,612.0,0.0,147.0,0,0.18920839241356996,0.18920839241356996
429,429,0.918965147631879,0.9,0,324.0,547.0,0.0,249.0,1,0.4590939412324147,0.4590939412324147
430,430,0.18648841139381944,0.2,0,268.0,748.0,0.0,184.0,1,0.10276143988589037,0.10276143988589037
431,431,0.4022182693450984,0.4,0,468.0,914.0,1.0,218.0,0,0.4864626493372294,0.4864626493372294
432,432,-0.5730589145505958,-0.6,1,467.0,551.0,1.0,182.0,1,0.3085303759398259,0.3085303759398259
433,433,-0.5436909718629979,-0.5,1,338.0,819.0,1.0,63.0,1,0.050495284026119636,0.050495284026119636
434,434,-0.8427837303228516,-0.8,1,369.0,698.0,1.0,243.0,1,0.17393133968773927,0.17393133968773927
435,435,0.20731807617522535,0.2,0,414.0,594.0,1.0,912.0,0,0.11638525772408576,0.11638525772408576
436,436,-0.5468174245982103,-0.5,1,460.0,568.0,1.0,552.0,1,0.13330299931721556,0.13330299931721556
437,437,0.10158845417557605,0.1,0,315.0,713.0,0.0,272.0,1,0.09021500631312174,0.09021500631312174
438,438,0.5831401113597225,0.6,0,367.0,938.0,0.0,385.0,1,0.08651035461362849,0.08651035461362849
439,439,-0.3799505464837223,-0.4,1,472.0,551.0,1.0,327.0,1,0.16567989735277883,0.16567989735277883
440,440,-0.060329756019049885,-0.1,1,340.0,580.0,1.0,510.0,1,0.05266465229911299,0.05266465229911299
441,441,0.5223281544938039,0.5,0,408.0,554.0,0.0,148.0,1,0.25169883323495446,0.25169883323495446
442,442,-0.5039806660526485,-0.5,1,362.0,690.0,1.0,188.0,1,0.08657576523630356,0.08657576523630356
443,443,0.8444535470568093,0.8,0,467.0,846.0,0.0,157.0,1,0.2592909394143732,0.2592909394143732
444,444,-0.8771620281990324,-0.9,1,368.0,980.0,1.0,102.0,1,0.2851509592261062,0.2851509592261062
445,445,-0.8136010032160157,-0.8,1,374.0,909.0,1.0,157.0,1,0.10627469829884306,0.10627469829884306
446,446,0.9295744678259144,0.9,0,435.0,559.0,0.0,206.0,1,0.290821504768847,0.290821504768847
447,447,0.5960362617557868,0.6,0,319.0,911.0,0.0,150.0,1,0.34116448577756525,0.34116448577756525
448,448,-0.2826944699790648,-0.3,1,478.0,648.0,1.0,184.0,1,0.42940982570796854,0.42940982570796854
449,449,0.7053272091578309,0.7,0,283.0,738.0,0.0,509.0,1,0.4532055519824972,0.4532055519824972
450,450,0.15657577019622382,0.2,0,424.0,597.0,0.0,629.0,1,0.004981384711405523,0.004981384711405523
451,451,-0.7316123002312256,-0.7,1,368.0,618.0,1.0,664.0,1,0.35449085071805386,0.35449085071805386
452,452,0.5499707557410287,0.5,0,408.0,537.0,0.0,365.0,1,0.1897193467589917,0.1897193467589917
453,453,-0.6040749622318586,-0.6,1,355.0,735.0,1.0,730.0,1,0.29558001072737966,0.29558001072737966
454,454,0.4764018255886986,0.5,0,273.0,930.0,0.0,107.0,1,0.17348385779655984,0.17348385779655984
455,455,-0.7618113444272754,-0.8,1,440.0,636.0,1.0,104.0,1,0.23017634206689286,0.23017634206689286
456,456,-0.578792073429742,-0.6,1,396.0,558.0,1.0,226.0,1,0.3532399023957073,0.3532399023957073
457,457,0.2599123896698283,0.3,0,371.0,697.0,0.0,182.0,1,0.3427703123291727,0.3427703123291727
458,458,-0.40937201170494,-0.4,1,273.0,869.0,1.0,338.0,1,0.25464668631218446,0.25464668631218446
459,459,0.7846075583374541,0.8,0,412.0,851.0,0.0,167.0,1,0.155512453045553,0.155512453045553
460,460,-0.6314647068337944,-0.6,1,455.0,811.0,1.0,184.0,1,0.005160647994978007,0.005160647994978007
461,461,-0.7029869217587004,-0.7,1,291.0,748.0,1.0,241.0,1,0.3777874528203133,0.3777874528203133
462,462,0.4758176529166138,0.5,0,471.0,698.0,0.0,321.0,1,0.3323922979614139,0.3323922979614139
463,463,-0.0378398816673029,-0.0,1,387.0,526.0,1.0,237.0,1,0.11516829304750426,0.11516829304750426
464,464,0.5802676717003576,0.6,0,268.0,689.0,0.0,143.0,1,0.176507127780331,0.176507127780331
465,465,-0.6401615285470454,-0.6,1,498.0,587.0,1.0,295.0,1,0.3301175102575195,0.3301175102575195
466,466,-0.24140584757109074,-0.2,1,430.0,513.0,1.0,87.0,1,0.2044779660306849,0.2044779660306849
467,467,-0.33379481274139033,-0.3,1,350.0,800.0,1.0,670.0,1,0.13124508280724229,0.13124508280724229
468,468,-0.4228654534918854,-0.4,1,409.0,990.0,1.0,151.0,1,0.45486923873297513,0.45486923873297513
469,469,0.8523744543827918,0.9,0,357.0,927.0,0.0,356.0,1,0.34052489241307415,0.34052489241307415
470,470,-0.20274370213292192,-0.2,1,382.0,640.0,1.0,328.0,1,0.23753257663237448,0.23753257663237448
471,471,-0.7981186701493295,-0.8,1,300.0,894.0,1.0,126.0,1,0.0657890177989105,0.0657890177989105
472,472,-0.3992191155598652,-0.4,1,415.0,652.0,1.0,723.0,1,0.2598352256946573,0.2598352256946573
473,473,0.12865445539141418,0.1,0,250.0,717.0,1.0,133.0,0,0.2919234381671257,0.2919234381671257
474,474,-0.14492086246244917,-0.1,1,388.0,619.0,1.0,953.0,1,0.09157069808880453,0.09157069808880453
475,475,0.2667591918284855,0.3,0,263.0,587.0,1.0,400.0,0,0.08447635735299658,0.08447635735299658
476,476,0.4719702352688855,0.5,0,486.0,609.0,0.0,135.0,1,0.3379936677849894,0.3379936677849894
477,477,-0.5599346258996776,-0.6,1,353.0,686.0,1.0,241.0,1,0.13367356146687376,0.13367356146687376
478,478,0.10337070424823613,0.1,0,279.0,712.0,1.0,219.0,0,0.09622060666996946,0.09622060666996946
479,479,-0.21703396076595438,-0.2,1,372.0,930.0,0.0,148.0,0,0.49398496087149774,0.49398496087149774
480,480,-0.24789501042042228,-0.2,1,314.0,701.0,0.0,355.0,0,0.44854958030932246,0.44854958030932246
481,481,-0.7394641160791484,-0.7,1,354.0,699.0,1.0,247.0,1,0.3026727505636199,0.3026727505636199
482,482,0.3408053486311662,0.3,0,457.0,666.0,0.0,417.0,1,0.04859511758290669,0.04859511758290669
483,483,0.004989614035704193,0.0,0,364.0,629.0,0.0,147.0,1,0.48446441278457403,0.48446441278457403
484,484,0.0833267832222826,0.1,0,405.0,891.0,1.0,144.0,0,0.1766023175582041,0.1766023175582041
485,485,-0.8015678056718172,-0.8,1,441.0,534.0,1.0,305.0,1,0.289896450638297,0.289896450638297
486,486,0.8287626788880569,0.8,0,288.0,817.0,0.0,765.0,1,0.02130006125878614,0.02130006125878614
487,487,-0.3962803266989645,-0.4,1,262.0,936.0,1.0,302.0,1,0.04637529685219527,0.04637529685219527
488,488,-0.06836697235163292,-0.1,1,412.0,921.0,1.0,707.0,1,0.09054732393070936,0.09054732393070936
489,489,-0.020970641886283392,-0.0,1,295.0,764.0,0.0,271.0,0,0.009793315219776166,0.009793315219776166
490,490,-0.9552457580155156,-1.0,1,463.0,547.0,0.0,180.0,0,0.42543402400400604,0.42543402400400604
491,491,0.6701868979323162,0.7,0,307.0,548.0,0.0,245.0,1,0.21251789572894636,0.21251789572894636
492,492,0.7596871507926768,0.8,0,285.0,924.0,0.0,131.0,1,0.05246841286488102,0.05246841286488102
493,493,-0.1596654519798546,-0.2,1,437.0,993.0,1.0,230.0,1,0.46040224351632286,0.46040224351632286
494,494,0.6410921564574024,0.6,0,271.0,780.0,1.0,109.0,0,0.12335760340073032,0.12335760340073032
495,495,-0.3393234719407743,-0.3,1,442.0,625.0,1.0,293.0,1,0.10663532533377584,0.10663532533377584
496,496,-0.190250469159154,-0.2,1,271.0,948.0,1.0,311.0,1,0.46564094698340946,0.46564094698340946
497,497,-0.7045718009272126,-0.7,1,494.0,810.0,1.0,176.0,1,0.2611449596218209,0.2611449596218209
498,498,-0.04736854238207089,-0.0,1,305.0,731.0,0.0,604.0,0,0.01941907185664632,0.01941907185664632
499,499,-0.5159571767881652,-0.5,1,440.0,832.0,1.0,268.0,1,0.35131947131712854,0.35131947131712854
500,500,-0.156079799556615,-0.2,1,441.0,644.0,0.0,305.0,0,0.386330599805953,0.386330599805953
501,501,0.9469937596250295,0.9,0,360.0,810.0,0.0,100.0,1,0.3346063077300904,0.3346063077300904
502,502,-0.3812603719024794,-0.4,1,307.0,809.0,1.0,524.0,1,0.3991889505137459,0.3991889505137459
503,503,0.8758957311033937,0.9,0,348.0,734.0,0.0,658.0,1,0.0524824665614419,0.0524824665614419
504,504,0.28577652116027896,0.3,0,314.0,798.0,0.0,638.0,1,0.21155101443494484,0.21155101443494484
505,505,0.19063894045584906,0.2,0,403.0,696.0,1.0,291.0,0,0.23815248257670985,0.23815248257670985
506,506,-0.8700718502850728,-0.9,1,341.0,741.0,1.0,288.0,1,0.2348649573860837,0.2348649573860837
507,507,-0.23719533074777077,-0.2,1,381.0,702.0,0.0,157.0,0,0.32261529658395377,0.32261529658395377
508,508,-0.9174539129480392,-0.9,1,345.0,804.0,1.0,221.0,1,0.41223708069071896,0.41223708069071896
509,509,0.12611557246161786,0.1,0,429.0,847.0,1.0,144.0,0,0.007378598972214989,0.007378598972214989
510,510,-0.5386260809761216,-0.5,1,257.0,612.0,1.0,131.0,1,0.3248629820212449,0.3248629820212449
511,511,0.4037916951123568,0.4,0,326.0,822.0,0.0,132.0,1,0.2822888541501929,0.2822888541501929
512,512,-0.5561589252572079,-0.6,1,337.0,667.0,1.0,156.0,1,0.27039811650740714,0.27039811650740714
513,513,0.9081054730141576,0.9,0,312.0,919.0,0.0,139.0,1,0.31120106307156103,0.31120106307156103
514,514,-0.7123680736921072,-0.7,1,350.0,824.0,1.0,336.0,1,0.03752380066790234,0.03752380066790234
515,515,-0.7289929120948551,-0.7,1,273.0,592.0,1.0,445.0,1,0.11023355413686009,0.11023355413686009
516,516,0.5311590194585083,0.5,0,467.0,544.0,0.0,269.0,1,0.21133860871345583,0.21133860871345583
517,517,-0.7510803192338193,-0.8,1,287.0,680.0,1.0,283.0,1,0.2939717345219274,0.2939717345219274
518,518,0.3612700974309,0.4,0,495.0,682.0,0.0,663.0,1,0.07012534099758566,0.07012534099758566
519,519,-0.9359570416922585,-0.9,1,471.0,856.0,1.0,163.0,1,0.2400650255874744,0.2400650255874744
520,520,0.1678891390202344,0.2,0,408.0,922.0,0.0,330.0,1,0.3446788995478244,0.3446788995478244
521,521,0.7944235274517721,0.8,0,311.0,824.0,0.0,175.0,1,0.03445768969967061,0.03445768969967061
522,522,0.5853016223764818,0.6,0,265.0,943.0,0.0,482.0,1,0.2581020351872033,0.2581020351872033
523,523,-0.9368492390361787,-0.9,1,399.0,745.0,1.0,286.0,1,0.28049184150708956,0.28049184150708956
524,524,-0.9405202233675787,-0.9,1,331.0,503.0,1.0,86.0,1,0.020320483402469836,0.020320483402469836
525,525,-0.21271311192936193,-0.2,1,322.0,981.0,1.0,287.0,1,0.45533094592829854,0.45533094592829854
526,526,0.9522246722339516,1.0,0,419.0,587.0,0.0,454.0,1,0.22089715258790726,0.22089715258790726
527,527,-0.38047203644251315,-0.4,1,272.0,714.0,1.0,414.0,1,0.2200298273319427,0.2200298273319427
528,528,-0.7233856376843735,-0.7,1,343.0,901.0,1.0,196.0,1,0.11170830715200453,0.11170830715200453
529,529,0.3231198015907215,0.3,0,312.0,983.0,0.0,1515.0,1,0.21134845233530453,0.21134845233530453
530,530,0.3608803910664229,0.4,0,416.0,775.0,1.0,229.0,0,0.041465625463062594,0.041465625463062594
531,531,-0.8939315482633778,-0.9,1,304.0,755.0,1.0,181.0,1,0.2670367868153334,0.2670367868153334
532,532,0.16889904287138235,0.2,0,287.0,846.0,0.0,317.0,1,0.001309012567777601,0.001309012567777601
533,533,-0.03162789526635157,-0.0,1,438.0,960.0,1.0,442.0,1,0.3928954060703245,0.3928954060703245
534,534,-0.25066821310748155,-0.3,1,422.0,781.0,0.0,177.0,0,0.29858050266724384,0.29858050266724384
535,535,0.9895327008478407,1.0,0,389.0,594.0,0.0,177.0,1,0.265528242876997,0.265528242876997
536,536,0.4374416534063752,0.4,0,437.0,546.0,0.0,137.0,1,0.056554463771445684,0.056554463771445684
537,537,0.23941637806315774,0.2,0,409.0,920.0,1.0,371.0,0,0.1532490816559815,0.1532490816559815
538,538,0.014407241149264172,0.0,0,445.0,933.0,1.0,562.0,0,0.19688364905367056,0.19688364905367056
539,539,0.541632845451079,0.5,0,301.0,927.0,0.0,162.0,1,0.1445984414789881,0.1445984414789881
540,540,0.1227143736441827,0.1,0,277.0,608.0,1.0,265.0,0,0.11812539533576416,0.11812539533576416
541,541,0.6453604876317116,0.6,0,424.0,757.0,0.0,459.0,1,0.12719221897722255,0.12719221897722255
542,542,0.7691099099500156,0.8,0,289.0,905.0,0.0,86.0,1,0.09066134647437735,0.09066134647437735
543,543,0.37153547264373055,0.4,0,458.0,939.0,0.0,623.0,1,0.35879354493504345,0.35879354493504345
544,544,-0.9443063083613854,-0.9,1,360.0,973.0,1.0,127.0,1,0.3560043769857031,0.3560043769857031
545,545,-0.5537607948774985,-0.6,1,325.0,673.0,1.0,172.0,1,0.23578667062704173,0.23578667062704173
546,546,-0.6929288627666341,-0.7,1,423.0,943.0,1.0,304.0,1,0.320158761402519,0.320158761402519
547,547,-0.8009860129089044,-0.8,1,281.0,543.0,1.0,786.0,1,0.2879145467247326,0.2879145467247326
548,548,0.6946123605478718,0.7,0,253.0,564.0,0.0,373.0,1,0.3826653768544247,0.3826653768544247
549,549,0.040418234820081,0.0,0,260.0,986.0,1.0,274.0,0,0.17675638178985176,0.17675638178985176
550,550,0.506751377606107,0.5,0,260.0,820.0,0.0,590.0,1,0.2424616351232629,0.2424616351232629
551,551,0.08354740901286073,0.1,0,369.0,561.0,1.0,470.0,0,0.2059912842576785,0.2059912842576785
552,552,-0.8778666023808637,-0.9,1,330.0,751.0,1.0,79.0,1,0.08250941963104447,0.08250941963104447
553,553,0.08649677799931088,0.1,0,303.0,501.0,1.0,136.0,0,0.3589671322269247,0.3589671322269247
554,554,-0.4941810878243047,-0.5,1,481.0,693.0,1.0,446.0,1,0.30079166167823884,0.30079166167823884
555,555,-0.7556941904804291,-0.8,1,283.0,989.0,1.0,218.0,1,0.387326800955695,0.387326800955695
556,556,0.6443442629330671,0.6,0,469.0,589.0,0.0,1492.0,1,0.2329438742087626,0.2329438742087626
557,557,-0.662674298371938,-0.7,1,388.0,698.0,1.0,544.0,1,0.2949808234233814,0.2949808234233814
558,558,-0.6109173843569999,-0.6,1,403.0,869.0,0.0,318.0,0,0.39566331067510646,0.39566331067510646
559,559,-0.6745349479127736,-0.7,1,417.0,800.0,1.0,233.0,1,0.3177791644661685,0.3177791644661685
560,560,-0.3435822820415335,-0.3,1,347.0,815.0,1.0,118.0,1,0.0345207714446259,0.0345207714446259
561,561,0.2746062441879906,0.3,0,324.0,797.0,0.0,179.0,1,0.4970265902989213,0.4970265902989213
562,562,-0.9821334573844223,-1.0,1,345.0,735.0,1.0,130.0,1,0.3563321555865583,0.3563321555865583
563,563,0.8773221228849011,0.9,0,373.0,859.0,0.0,1068.0,1,0.3819290430475223,0.3819290430475223
564,564,-0.5684238585169956,-0.6,1,361.0,980.0,1.0,259.0,1,0.12086571037423599,0.12086571037423599
565,565,-0.020980605880047687,-0.0,1,445.0,962.0,1.0,533.0,1,0.27140477068426994,0.27140477068426994
566,566,-0.5759531542815182,-0.6,1,439.0,964.0,0.0,157.0,0,0.19439490637919,0.19439490637919
567,567,0.9711791368352443,1.0,0,487.0,757.0,0.0,136.0,1,0.4838474038675169,0.4838474038675169
568,568,0.049146712413946414,0.0,0,474.0,609.0,0.0,77.0,1,0.28164337182335775,0.28164337182335775
569,569,0.5716937509272522,0.6,0,255.0,945.0,0.0,370.0,1,0.19615331194400398,0.19615331194400398
570,570,-0.7280630590031489,-0.7,1,278.0,989.0,1.0,133.0,1,0.3414382225356431,0.3414382225356431
571,571,-0.7590629301306815,-0.8,1,320.0,734.0,1.0,156.0,1,0.3447591857940524,0.3447591857940524
572,572,-0.510565480543625,-0.5,1,414.0,851.0,1.0,215.0,1,0.4511834610694065,0.4511834610694065
573,573,-0.7280235951974607,-0.7,1,370.0,519.0,1.0,351.0,1,0.33927484791539386,0.33927484791539386
574,574,0.567104190858478,0.6,0,440.0,614.0,0.0,106.0,1,0.43981750033689476,0.43981750033689476
575,575,0.9008325618750099,0.9,0,407.0,904.0,0.0,289.0,1,0.00529932436762881,0.00529932436762881
576,576,0.5183495197032733,0.5,0,379.0,877.0,0.0,384.0,1,0.49731056699789,0.49731056699789
577,577,-0.9487274908880856,-0.9,1,471.0,959.0,1.0,150.0,1,0.4544166404867752,0.4544166404867752
578,578,0.3868739198085256,0.4,0,417.0,792.0,0.0,471.0,1,0.024769681509008323,0.024769681509008323
579,579,-0.6190712738310842,-0.6,1,462.0,816.0,1.0,512.0,1,0.4200127873599262,0.4200127873599262
580,580,-0.09693809233676665,-0.1,1,453.0,630.0,0.0,157.0,0,0.1910425296212907,0.1910425296212907
581,581,0.9688692558902323,1.0,0,406.0,841.0,0.0,213.0,1,0.3778197039960558,0.3778197039960558
582,582,-0.9131731470636251,-0.9,1,310.0,982.0,1.0,178.0,1,0.052034468242905474,0.052034468242905474
583,583,0.34041145848155585,0.3,0,346.0,760.0,0.0,724.0,1,0.1661816840846243,0.1661816840846243
584,584,-0.6136948340772894,-0.6,1,424.0,822.0,1.0,134.0,1,0.27729495044986907,0.27729495044986907
585,585,0.16674576227604487,0.2,0,286.0,584.0,1.0,350.0,0,0.3889234889468027,0.3889234889468027
586,586,0.3585462323012032,0.4,0,295.0,938.0,1.0,87.0,0,0.2154809841466256,0.2154809841466256
587,587,0.393885463085347,0.4,0,459.0,876.0,0.0,315.0,1,0.14162656483599956,0.14162656483599956
588,588,-0.3245330199070551,-0.3,1,296.0,725.0,0.0,249.0,0,0.31825114068976457,0.31825114068976457
589,589,0.2293638382123313,0.2,0,370.0,509.0,0.0,341.0,1,0.37662749091976583,0.37662749091976583
590,590,-0.2882076941178435,-0.3,1,419.0,715.0,0.0,226.0,0,0.1575021999628196,0.1575021999628196
591,591,0.34781024094403623,0.3,0,497.0,878.0,0.0,125.0,1,0.4811714406209922,0.4811714406209922
592,592,0.7643480269721621,0.8,0,318.0,848.0,0.0,144.0,1,0.11168302215080828,0.11168302215080828
593,593,0.4200817185132182,0.4,0,285.0,734.0,1.0,301.0,0,0.05537949217395299,0.05537949217395299
594,594,0.22774354666538166,0.2,0,324.0,964.0,0.0,262.0,1,0.18004892031290004,0.18004892031290004
595,595,-0.09549632892829885,-0.1,1,452.0,602.0,1.0,206.0,1,0.08704679882968219,0.08704679882968219
596,596,-0.14870561466214105,-0.1,1,254.0,882.0,0.0,594.0,0,0.2178812083054234,0.2178812083054234
597,597,-0.9608130950669038,-1.0,1,258.0,894.0,0.0,108.0,0,0.47541094805312856,0.47541094805312856
598,598,-0.8528573801160888,-0.9,1,413.0,710.0,1.0,237.0,1,0.45789720966410274,0.45789720966410274
599,599,-0.21874633339902516,-0.2,1,481.0,704.0,1.0,285.0,1,0.12975634541676684,0.12975634541676684
600,600,-0.6335429046963847,-0.6,1,350.0,666.0,1.0,164.0,1,0.1415418442484605,0.1415418442484605
601,601,-0.4070191271158141,-0.4,1,492.0,633.0,1.0,285.0,1,0.28302209488985225,0.28302209488985225
602,602,-0.9868073915117845,-1.0,1,274.0,891.0,1.0,95.0,1,0.4705859059115583,0.4705859059115583
603,603,-0.5571029449597225,-0.6,1,313.0,564.0,1.0,283.0,1,0.0757301719107712,0.0757301719107712
604,604,-0.10281600699816429,-0.1,1,268.0,783.0,0.0,529.0,0,0.3470956102572048,0.3470956102572048
605,605,0.31295389829113396,0.3,0,498.0,928.0,0.0,224.0,1,0.31910184272438097,0.31910184272438097
606,606,-0.492841077899663,-0.5,1,290.0,589.0,1.0,281.0,1,0.2474566278487933,0.2474566278487933
607,607,-0.33445042880910014,-0.3,1,389.0,815.0,0.0,466.0,0,0.35408613518017323,0.35408613518017323
608,608,-0.5251253377219427,-0.5,1,339.0,617.0,1.0,434.0,1,0.36597055339887424,0.36597055339887424
609,609,-0.8218203195013085,-0.8,1,485.0,821.0,1.0,54.0,1,0.012111320612437415,0.012111320612437415
610,610,-0.8623875736382836,-0.9,1,399.0,880.0,1.0,131.0,1,0.32942168293952956,0.32942168293952956
611,611,-0.6928819439410598,-0.7,1,410.0,654.0,1.0,976.0,1,0.37344600692097785,0.37344600692097785
612,612,-0.22208326998819183,-0.2,1,270.0,622.0,1.0,548.0,1,0.17083883254166876,0.17083883254166876
613,613,-0.9322478184679683,-0.9,1,371.0,692.0,1.0,477.0,1,0.32640196773825164,0.32640196773825164
614,614,-0.7680975262506746,-0.8,1,479.0,797.0,1.0,124.0,1,0.046044984023964175,0.046044984023964175
615,615,-0.8977884620075294,-0.9,1,378.0,587.0,1.0,265.0,1,0.2223362585607816,0.2223362585607816
616,616,0.32741098003279134,0.3,0,463.0,555.0,0.0,1062.0,1,0.063921834918657,0.063921834918657
617,617,0.17906690629478517,0.2,0,340.0,704.0,0.0,516.0,1,0.29906998269749946,0.29906998269749946
618,618,-0.5106441364275089,-0.5,1,400.0,590.0,1.0,160.0,1,0.24405504348214935,0.24405504348214935
619,619,0.870560822155396,0.9,0,478.0,707.0,0.0,205.0,1,0.46395875143890347,0.46395875143890347
620,620,-0.7804520178896202,-0.8,1,336.0,573.0,1.0,211.0,1,0.4417976199353903,0.4417976199353903
621,621,0.43053543055087884,0.4,0,296.0,696.0,0.0,178.0,1,0.1898129412401433,0.1898129412401433
622,622,0.8531084009856051,0.9,0,454.0,663.0,0.0,143.0,1,0.08431096290550494,0.08431096290550494
623,623,-0.4219073597941825,-0.4,1,300.0,815.0,1.0,165.0,1,0.35579461658196965,0.35579461658196965
624,624,0.06938979294485947,0.1,0,488.0,956.0,1.0,456.0,0,0.25180729931272366,0.25180729931272366
625,625,0.3329681125738857,0.3,0,279.0,667.0,0.0,1324.0,1,0.25966615640824303,0.25966615640824303
626,626,0.7470973161294057,0.7,0,412.0,937.0,0.0,281.0,1,0.23534400629663615,0.23534400629663615
627,627,-0.22554435467163958,-0.2,1,429.0,583.0,1.0,488.0,1,0.1264556054970497,0.1264556054970497
628,628,0.31989182771449953,0.3,0,367.0,683.0,0.0,820.0,1,0.31722016063794933,0.31722016063794933
629,629,0.3974222480906944,0.4,0,264.0,597.0,0.0,179.0,1,0.07757058511345971,0.07757058511345971
630,630,-0.2495855819018078,-0.2,1,386.0,767.0,0.0,177.0,0,0.4154018628473688,0.4154018628473688
631,631,0.9932095862914376,1.0,0,483.0,642.0,0.0,175.0,1,0.3651817590833424,0.3651817590833424
632,632,0.7847930468359441,0.8,0,324.0,992.0,0.0,234.0,1,0.4636360609067833,0.4636360609067833
633,633,0.3117982720769388,0.3,0,471.0,756.0,1.0,743.0,0,0.05753162147433499,0.05753162147433499
634,634,-0.9591065859705401,-1.0,1,277.0,963.0,1.0,130.0,1,0.3555345903948159,0.3555345903948159
635,635,0.16569429454283036,0.2,0,425.0,944.0,1.0,151.0,0,0.22841463633000786,0.22841463633000786
636,636,0.9511398546987733,1.0,0,365.0,760.0,0.0,365.0,1,0.15109385303796846,0.15109385303796846
637,637,-0.525829481760836,-0.5,1,427.0,718.0,1.0,455.0,1,0.3875509209759955,0.3875509209759955
638,638,-0.3594814732751519,-0.4,1,261.0,515.0,1.0,374.0,1,0.3432474569214455,0.3432474569214455
639,639,-0.6988511972158313,-0.7,1,465.0,506.0,1.0,129.0,1,0.20140338797461238,0.20140338797461238
640,640,-0.707767289723418,-0.7,1,483.0,976.0,1.0,801.0,1,0.42721945930134875,0.42721945930134875
641,641,-0.3964063870262957,-0.4,1,281.0,809.0,0.0,420.0,0,0.3672860884677478,0.3672860884677478
642,642,-0.9353496275929909,-0.9,1,420.0,752.0,1.0,188.0,1,0.03637005102940638,0.03637005102940638
643,643,-0.26039900205848765,-0.3,1,475.0,573.0,1.0,102.0,1,0.16884135022987634,0.16884135022987634
644,644,-0.4225632776755699,-0.4,1,333.0,637.0,1.0,220.0,1,0.41934090723172535,0.41934090723172535
645,645,0.13183857125070908,0.1,0,343.0,770.0,0.0,187.0,1,0.36939978361609865,0.36939978361609865
646,646,0.8947731042367333,0.9,0,270.0,572.0,0.0,138.0,1,0.248105308330539,0.248105308330539
647,647,0.3888557908155186,0.4,0,467.0,737.0,0.0,1076.0,1,0.24218897404759104,0.24218897404759104
648,648,0.16638901742887247,0.2,0,424.0,628.0,1.0,138.0,0,0.4111533897050491,0.4111533897050491
649,649,0.6193420243006531,0.6,0,441.0,570.0,1.0,669.0,0,0.008456275704137262,0.008456275704137262
650,650,-0.44019549924806745,-0.4,1,253.0,524.0,1.0,373.0,1,0.20906799777694984,0.20906799777694984
651,651,-0.9735560366353107,-1.0,1,387.0,571.0,1.0,132.0,1,0.47961572609448183,0.47961572609448183
652,652,-0.17716035261990903,-0.2,1,346.0,756.0,1.0,198.0,1,0.3839626540553431,0.3839626540553431
653,653,0.4649736141286467,0.5,0,383.0,902.0,0.0,675.0,1,0.3163876945783256,0.3163876945783256
654,654,0.023338514484585682,0.0,0,373.0,857.0,1.0,150.0,0,0.3391109379834849,0.3391109379834849
655,655,-0.7536800427131325,-0.8,1,457.0,836.0,1.0,227.0,1,0.14741929312586988,0.14741929312586988
656,656,0.1914633292785819,0.2,0,297.0,918.0,1.0,325.0,0,0.04694465357556976,0.04694465357556976
657,657,0.2622780615450606,0.3,0,302.0,965.0,0.0,143.0,1,0.03385707612419703,0.03385707612419703
658,658,-0.6809540244492056,-0.7,1,413.0,624.0,1.0,123.0,1,0.16613712830668276,0.16613712830668276
659,659,0.5034854383295384,0.5,0,301.0,897.0,0.0,182.0,1,0.44263912564151536,0.44263912564151536
660,660,0.3686898287077669,0.4,0,335.0,898.0,0.0,207.0,1,0.004046374171450873,0.004046374171450873
661,661,0.37309416277369856,0.4,0,404.0,777.0,0.0,339.0,1,0.3073026126206848,0.3073026126206848
662,662,0.6492741921085412,0.6,0,360.0,779.0,0.0,271.0,1,0.1657372337139439,0.1657372337139439
663,663,0.6526108544444662,0.7,0,283.0,979.0,0.0,358.0,1,0.17752790766180288,0.17752790766180288
664,664,0.5683065946675938,0.6,0,483.0,978.0,0.0,229.0,1,0.3873731548976228,0.3873731548976228
665,665,-0.8306241167279478,-0.8,1,281.0,735.0,1.0,124.0,1,0.05015639979068165,0.05015639979068165
666,666,0.2849961075969123,0.3,0,353.0,612.0,0.0,295.0,1,0.0664267514268373,0.0664267514268373
667,667,0.5248229791303971,0.5,0,424.0,979.0,1.0,227.0,0,0.36495758689730473,0.36495758689730473
668,668,-0.20515227580034412,-0.2,1,465.0,718.0,1.0,397.0,1,0.2191189873758696,0.2191189873758696
669,669,-0.08355262061476054,-0.1,1,389.0,948.0,0.0,483.0,0,0.3293547763360398,0.3293547763360398
670,670,-0.9477475584276791,-0.9,1,325.0,923.0,0.0,142.0,0,0.03742681747200599,0.03742681747200599
671,671,0.42283110008463876,0.4,0,479.0,985.0,0.0,246.0,1,0.08296092806645339,0.08296092806645339
672,672,0.8620287363862518,0.9,0,488.0,909.0,0.0,143.0,1,0.4021371837631322,0.4021371837631322
673,673,0.08001317502175209,0.1,0,385.0,591.0,1.0,104.0,0,0.0016985301446871826,0.0016985301446871826
674,674,-0.6489293209561853,-0.6,1,332.0,884.0,1.0,524.0,1,0.38035683415867266,0.38035683415867266
675,675,-0.15062033041154255,-0.2,1,278.0,719.0,1.0,333.0,1,0.33968370946455184,0.33968370946455184
676,676,0.3359054785408393,0.3,0,436.0,503.0,0.0,701.0,1,0.2684478152985504,0.2684478152985504
677,677,0.9201097978916659,0.9,0,303.0,539.0,0.0,208.0,1,0.15694475949192838,0.15694475949192838
678,678,-0.9943120441715674,-1.0,1,252.0,687.0,1.0,111.0,1,0.1688916202772508,0.1688916202772508
679,679,0.40663095110977654,0.4,0,334.0,860.0,0.0,86.0,1,0.41653636780720543,0.41653636780720543
680,680,0.2546498662196275,0.3,0,425.0,883.0,1.0,212.0,0,0.1559135028558173,0.1559135028558173
681,681,-0.8355896910424767,-0.8,1,378.0,596.0,1.0,266.0,1,0.499583699281709,0.499583699281709
682,682,-0.2704879210603257,-0.3,1,462.0,563.0,1.0,835.0,1,0.0758982452900685,0.0758982452900685
683,683,0.21648136109722538,0.2,0,425.0,826.0,0.0,409.0,1,0.25419384859111915,0.25419384859111915
684,684,0.50242656138847,0.5,0,287.0,916.0,0.0,207.0,1,0.3537635762828483,0.3537635762828483
685,685,0.9510084265642917,1.0,0,250.0,816.0,0.0,274.0,1,0.054584932378824336,0.054584932378824336
686,686,0.699406960174084,0.7,0,369.0,757.0,0.0,224.0,1,0.04731128411148422,0.04731128411148422
687,687,-0.5717375016103938,-0.6,1,454.0,951.0,1.0,95.0,1,0.3564183491833153,0.3564183491833153
688,688,-0.8548282708976778,-0.9,1,471.0,535.0,1.0,114.0,1,0.26784919934532625,0.26784919934532625
689,689,0.5347032784099572,0.5,0,452.0,524.0,1.0,144.0,0,0.12004701764011244,0.12004701764011244
690,690,0.8623575145402138,0.9,0,466.0,526.0,0.0,228.0,1,0.4319920800768084,0.4319920800768084
691,691,0.51948967326837,0.5,0,458.0,896.0,0.0,276.0,1,0.315207679577137,0.315207679577137
692,692,0.007688636741610466,0.0,0,300.0,852.0,1.0,308.0,0,0.24979214019283286,0.24979214019283286
693,693,0.3969607454361117,0.4,0,354.0,520.0,0.0,246.0,1,0.1399691486748747,0.1399691486748747
694,694,0.8993811522996056,0.9,0,374.0,740.0,0.0,346.0,1,0.4343359259698954,0.4343359259698954
695,695,0.7732469537790774,0.8,0,442.0,791.0,0.0,117.0,1,0.060352152717892904,0.060352152717892904
696,696,0.3380786978621515,0.3,0,258.0,721.0,0.0,111.0,1,0.28967781976591384,0.28967781976591384
697,697,0.1819319116236695,0.2,0,324.0,727.0,0.0,1079.0,1,0.3215898993947037,0.3215898993947037
698,698,-0.5102229266801672,-0.5,1,330.0,760.0,1.0,210.0,1,0.41224176901301274,0.41224176901301274
699,699,-0.6071261300087789,-0.6,1,342.0,545.0,1.0,143.0,1,0.1641394795938061,0.1641394795938061
700,700,-0.5035504685219889,-0.5,1,267.0,909.0,1.0,274.0,1,0.10875513087750893,0.10875513087750893
701,701,0.0582388171319872,0.1,0,328.0,777.0,0.0,175.0,1,0.16604203126228567,0.16604203126228567
702,702,-0.06109380719510349,-0.1,1,431.0,589.0,1.0,380.0,1,0.2585891477786934,0.2585891477786934
703,703,0.026398678412604237,0.0,0,334.0,615.0,1.0,101.0,0,0.3301370450593953,0.3301370450593953
704,704,-0.03530252551742219,-0.0,1,390.0,527.0,1.0,173.0,1,0.24565169715505214,0.24565169715505214
705,705,-0.12858163216780305,-0.1,1,283.0,503.0,1.0,234.0,1,0.17893227525789873,0.17893227525789873
706,706,-0.3029899840781134,-0.3,1,357.0,890.0,1.0,843.0,1,0.3635085738513363,0.3635085738513363
707,707,-0.29270841060253394,-0.3,1,450.0,698.0,1.0,682.0,1,0.39148604834063333,0.39148604834063333
708,708,-0.43786398570581064,-0.4,1,472.0,647.0,1.0,1121.0,1,0.15108696492440388,0.15108696492440388
709,709,0.6883105850727278,0.7,0,467.0,912.0,0.0,121.0,1,0.13436792431875577,0.13436792431875577
710,710,0.26288712264273784,0.3,0,431.0,807.0,1.0,82.0,0,0.03633536624617356,0.03633536624617356
711,711,-0.6421589312711593,-0.6,1,467.0,954.0,1.0,469.0,1,0.3195554255032167,0.3195554255032167
712,712,-0.4975712616813246,-0.5,1,269.0,798.0,1.0,703.0,1,0.2261043238812312,0.2261043238812312
713,713,0.9811926264994102,1.0,0,371.0,583.0,0.0,416.0,1,0.07637053609647448,0.07637053609647448
714,714,0.8131340708505626,0.8,0,390.0,614.0,0.0,126.0,1,0.0742535942685173,0.0742535942685173
715,715,-0.03199168087003934,-0.0,1,335.0,954.0,1.0,151.0,1,0.34312750653091534,0.34312750653091534
716,716,-0.594475645458072,-0.6,1,271.0,877.0,1.0,252.0,1,0.3948311200574755,0.3948311200574755
717,717,0.9684681454998842,1.0,0,345.0,842.0,0.0,113.0,1,0.16522579487672695,0.16522579487672695
718,718,-0.8270378905884896,-0.8,1,491.0,813.0,1.0,276.0,1,0.25369223219151465,0.25369223219151465
719,719,0.9440183739543417,0.9,0,382.0,576.0,0.0,132.0,1,0.28743170942844654,0.28743170942844654
720,720,-0.45661273127202096,-0.5,1,406.0,584.0,1.0,440.0,1,0.33053279595328006,0.33053279595328006
721,721,-0.38480738721956853,-0.4,1,359.0,839.0,1.0,182.0,1,0.3783212746720632,0.3783212746720632
722,722,-0.057418280699864654,-0.1,1,261.0,537.0,1.0,812.0,1,0.46835357244809667,0.46835357244809667
723,723,0.8462869920069689,0.8,0,408.0,566.0,0.0,596.0,1,0.30319881063434023,0.30319881063434023
724,724,0.807289914011468,0.8,0,472.0,692.0,0.0,806.0,1,0.09203370078619505,0.09203370078619505
725,725,0.9056388644748454,0.9,0,483.0,956.0,0.0,171.0,1,0.4512172560715992,0.4512172560715992
726,726,0.6874042125347188,0.7,0,440.0,520.0,0.0,480.0,1,0.3611931589735323,0.3611931589735323
727,727,-0.035020746508137135,-0.0,1,312.0,570.0,0.0,138.0,0,0.07021150337066046,0.07021150337066046
728,728,0.7414862175625723,0.7,0,385.0,952.0,0.0,163.0,1,0.1636661360425763,0.1636661360425763
729,729,0.8287910182932294,0.8,0,266.0,819.0,0.0,505.0,1,0.24300770370594993,0.24300770370594993
730,730,-0.13745626899409458,-0.1,1,432.0,654.0,1.0,394.0,1,0.2764849697348603,0.2764849697348603
731,731,-0.5459252947418178,-0.5,1,310.0,705.0,0.0,165.0,0,0.10458481535409081,0.10458481535409081
732,732,-0.47580045330182696,-0.5,1,340.0,559.0,1.0,1091.0,1,0.0452644864079455,0.0452644864079455
733,733,-0.2166079714516278,-0.2,1,337.0,995.0,0.0,278.0,0,0.29867101786368866,0.29867101786368866
734,734,0.24486680024667784,0.2,0,435.0,502.0,0.0,983.0,1,0.23753532642440084,0.23753532642440084
735,735,0.057071198246572585,0.1,0,301.0,933.0,0.0,156.0,1,0.26786003602334746,0.26786003602334746
736,736,0.1373432946208013,0.1,0,367.0,943.0,0.0,310.0,1,0.3445368917655577,0.3445368917655577
737,737,-0.745977562272873,-0.7,1,421.0,932.0,1.0,387.0,1,0.3537255308915916,0.3537255308915916
738,738,-0.15636760319988974,-0.2,1,291.0,513.0,0.0,236.0,0,0.144329688583404,0.144329688583404
739,739,0.4667828495723638,0.5,0,431.0,601.0,0.0,508.0,1,0.375758658122358,0.375758658122358
740,740,-0.8384455927344685,-0.8,1,298.0,580.0,0.0,142.0,0,0.06552654538601227,0.06552654538601227
741,741,0.32670277398235403,0.3,0,473.0,621.0,0.0,1976.0,1,0.42269178550764275,0.42269178550764275
742,742,-0.9604048052059462,-1.0,1,316.0,727.0,1.0,457.0,1,0.4155918484483404,0.4155918484483404
743,743,0.8240153719900423,0.8,0,424.0,698.0,0.0,218.0,1,0.4574179169461735,0.4574179169461735
744,744,-0.8768405381029609,-0.9,1,446.0,574.0,1.0,240.0,1,0.18107006925604568,0.18107006925604568
745,745,-0.893306550282621,-0.9,1,282.0,990.0,1.0,88.0,1,0.17104829873902777,0.17104829873902777
746,746,-0.3818532000320938,-0.4,1,485.0,506.0,1.0,139.0,1,0.30770527496678174,0.30770527496678174
747,747,-0.2887175564745008,-0.3,1,442.0,867.0,1.0,291.0,1,0.09282971217389774,0.09282971217389774
748,748,-0.3428692906555786,-0.3,1,467.0,590.0,1.0,223.0,1,0.15651441369659347,0.15651441369659347
749,749,0.7512282466144962,0.8,0,411.0,998.0,0.0,371.0,1,0.04890986485983129,0.04890986485983129
750,750,0.4433395127221078,0.4,0,351.0,750.0,0.0,1139.0,1,0.09093031116416184,0.09093031116416184
751,751,0.4618352150137439,0.5,0,467.0,980.0,1.0,563.0,0,0.03807728231415325,0.03807728231415325
752,752,0.4863376730787261,0.5,0,316.0,748.0,1.0,266.0,0,0.024313043016642943,0.024313043016642943
753,753,-0.31696045263172956,-0.3,1,293.0,804.0,1.0,273.0,1,0.49818009519371426,0.49818009519371426
754,754,0.37317540232078716,0.4,0,470.0,641.0,0.0,149.0,1,0.043164404498132136,0.043164404498132136
755,755,0.9128569987278567,0.9,0,457.0,523.0,0.0,390.0,1,0.14211930657669286,0.14211930657669286
756,756,0.2577143722098829,0.3,0,478.0,538.0,0.0,284.0,1,0.35258118720533704,0.35258118720533704
757,757,0.3964073913464665,0.4,0,466.0,712.0,0.0,442.0,1,0.4147254345600537,0.4147254345600537
758,758,0.1471658811169001,0.1,0,425.0,987.0,0.0,198.0,1,0.35399802556754606,0.35399802556754606
759,759,-0.6229044878867316,-0.6,1,491.0,605.0,1.0,424.0,1,0.047325209905236865,0.047325209905236865
760,760,-0.7170269664053135,-0.7,1,408.0,843.0,1.0,279.0,1,0.22089316322254576,0.22089316322254576
761,761,0.24317413493504114,0.2,0,382.0,885.0,1.0,273.0,0,0.27040651235636876,0.27040651235636876
762,762,0.8393319404784925,0.8,0,451.0,828.0,0.0,301.0,1,0.13029136871530228,0.13029136871530228
763,763,0.3170894068548471,0.3,0,381.0,881.0,0.0,538.0,1,0.05576600801431736,0.05576600801431736
764,764,-0.9384698665450864,-0.9,1,427.0,824.0,1.0,139.0,1,0.10221787606758959,0.10221787606758959
765,765,-0.37041598926830344,-0.4,1,441.0,678.0,1.0,611.0,1,0.32705999659773577,0.32705999659773577
766,766,0.9314115204576177,0.9,0,316.0,874.0,0.0,410.0,1,0.05660597996730404,0.05660597996730404
767,767,-0.3415830030947311,-0.3,1,282.0,591.0,1.0,297.0,1,0.18733880367498995,0.18733880367498995
768,768,0.7644994831698724,0.8,0,460.0,879.0,0.0,471.0,1,0.07737523831670362,0.07737523831670362
769,769,0.6696846054353351,0.7,0,490.0,969.0,0.0,161.0,1,0.3417772211432751,0.3417772211432751
770,770,0.45026485169207486,0.5,0,397.0,760.0,0.0,153.0,1,0.4385958184598369,0.4385958184598369
771,771,-0.5029588706625232,-0.5,1,495.0,555.0,0.0,130.0,0,0.013283044151486734,0.013283044151486734
772,772,-0.5144283647473631,-0.5,1,320.0,587.0,1.0,153.0,1,0.0706497237911129,0.0706497237911129
773,773,0.7505968911732859,0.8,0,330.0,513.0,0.0,987.0,1,0.03284551926272378,0.03284551926272378
774,774,0.8742585562580976,0.9,0,334.0,800.0,0.0,136.0,1,0.12886159467652292,0.12886159467652292
775,775,-0.7353158402806814,-0.7,1,484.0,701.0,1.0,195.0,1,0.28690081454004235,0.28690081454004235
776,776,-0.054708243138278156,-0.1,1,279.0,976.0,1.0,525.0,1,0.16002580212904688,0.16002580212904688
777,777,-0.49591924641972396,-0.5,1,445.0,716.0,1.0,709.0,1,0.15901262422833368,0.15901262422833368
778,778,0.2853065610390437,0.3,0,470.0,643.0,0.0,397.0,1,0.09204956667542358,0.09204956667542358
779,779,0.19931220855195808,0.2,0,291.0,799.0,1.0,320.0,0,0.00200376726980267,0.00200376726980267
780,780,0.2139285735537484,0.2,0,372.0,681.0,0.0,627.0,1,0.08514764557954879,0.08514764557954879
781,781,-0.16614100120137199,-0.2,1,332.0,966.0,1.0,92.0,1,0.25611529290159507,0.25611529290159507
782,782,-0.9466914212320598,-0.9,1,371.0,986.0,1.0,43.0,1,0.4275072166285172,0.4275072166285172
783,783,-0.18930075878221642,-0.2,1,272.0,631.0,0.0,157.0,0,0.22205292101318946,0.22205292101318946
784,784,-0.5498709844678957,-0.5,1,323.0,618.0,1.0,229.0,1,0.4067645825174076,0.4067645825174076
785,785,-0.23591624610248485,-0.2,1,486.0,722.0,1.0,342.0,1,0.09539491022779995,0.09539491022779995
786,786,-0.1776180379084924,-0.2,1,267.0,774.0,1.0,829.0,1,0.027776378357311726,0.027776378357311726
787,787,-0.25573173743179134,-0.3,1,261.0,900.0,1.0,909.0,1,0.03137406619948635,0.03137406619948635
788,788,0.8621797469560568,0.9,0,493.0,882.0,0.0,95.0,1,0.47093481471852255,0.47093481471852255
789,789,0.03876947611302617,0.0,0,269.0,687.0,1.0,194.0,0,0.03373534859886751,0.03373534859886751
790,790,0.5967817576758621,0.6,0,423.0,674.0,0.0,353.0,1,0.11555972729617525,0.11555972729617525
791,791,0.5743072509014102,0.6,0,483.0,914.0,0.0,213.0,1,0.36902771211083457,0.36902771211083457
792,792,-0.7772086459871947,-0.8,1,341.0,966.0,1.0,373.0,1,0.17360063702458023,0.17360063702458023
793,793,-0.9184866849369662,-0.9,1,267.0,938.0,1.0,395.0,1,0.1078238809941795,0.1078238809941795
794,794,-0.11832396044223836,-0.1,1,335.0,583.0,1.0,132.0,1,0.18542383653205596,0.18542383653205596
795,795,-0.7467152489368891,-0.7,1,473.0,865.0,1.0,712.0,1,0.3905660905627704,0.3905660905627704
796,796,-0.030687731438317156,-0.0,1,397.0,889.0,0.0,494.0,0,0.3771717101032833,0.3771717101032833
797,797,0.49634858179975705,0.5,0,311.0,873.0,0.0,596.0,1,0.4609995457437874,0.4609995457437874
798,798,-0.1388392417302715,-0.1,1,405.0,991.0,1.0,834.0,1,0.4785137746350325,0.4785137746350325
799,799,0.14349398417230597,0.1,0,360.0,932.0,0.0,178.0,1,0.15873748229693974,0.15873748229693974
800,800,-0.1369633383432851,-0.1,1,278.0,945.0,0.0,407.0,0,0.06162534646723955,0.06162534646723955
801,801,0.328375740649264,0.3,0,449.0,614.0,1.0,157.0,0,0.09874670030886945,0.09874670030886945
802,802,-0.06874656290427827,-0.1,1,401.0,813.0,0.0,1256.0,0,0.4454592726619214,0.4454592726619214
803,803,0.1284829919332482,0.1,0,264.0,539.0,1.0,247.0,0,0.31849334865686674,0.31849334865686674
804,804,-0.18270560388078882,-0.2,1,397.0,697.0,0.0,1236.0,0,0.043197911951020906,0.043197911951020906
805,805,-0.9149166821245016,-0.9,1,291.0,852.0,1.0,207.0,1,0.1327145686155648,0.1327145686155648
806,806,0.2037953391109475,0.2,0,398.0,528.0,1.0,144.0,0,0.29676613943043967,0.29676613943043967
807,807,0.21444839361869827,0.2,0,267.0,672.0,1.0,301.0,0,6.502759790805168e-06,6.502759790805168e-06
808,808,-0.13417394291017715,-0.1,1,421.0,858.0,1.0,141.0,1,0.03659547196711643,0.03659547196711643
809,809,-0.924437410744235,-0.9,1,448.0,932.0,1.0,170.0,1,0.2694701833996931,0.2694701833996931
810,810,0.4999276672856039,0.5,0,405.0,801.0,0.0,104.0,1,0.3072102086669812,0.3072102086669812
811,811,-0.2166199936409432,-0.2,1,261.0,759.0,1.0,550.0,1,0.49927836921586305,0.49927836921586305
812,812,-0.10450132907822818,-0.1,1,348.0,738.0,1.0,164.0,1,0.02567848890569091,0.02567848890569091
813,813,0.515747266781724,0.5,0,457.0,834.0,0.0,279.0,1,0.28270476177642445,0.28270476177642445
814,814,0.18713607010702504,0.2,0,338.0,645.0,1.0,797.0,0,0.1916155032532768,0.1916155032532768
815,815,0.286058810755081,0.3,0,487.0,940.0,0.0,153.0,1,0.2974000383279821,0.2974000383279821
816,816,0.5017680800493785,0.5,0,383.0,933.0,0.0,164.0,1,0.1570300464659939,0.1570300464659939
817,817,-0.6832149786235722,-0.7,1,290.0,638.0,1.0,462.0,1,0.4913004686066885,0.4913004686066885
818,818,-0.9112104110627071,-0.9,1,271.0,876.0,1.0,123.0,1,0.19353495614497868,0.19353495614497868
819,819,-0.43132290449930455,-0.4,1,419.0,704.0,1.0,247.0,1,0.1474647139059848,0.1474647139059848
820,820,-0.15292207693873894,-0.2,1,498.0,546.0,1.0,246.0,1,0.4883943607430946,0.4883943607430946
821,821,0.8335895553341399,0.8,0,258.0,640.0,1.0,452.0,0,0.254964329109148,0.254964329109148
822,822,0.7559738550985933,0.8,0,396.0,963.0,0.0,341.0,1,0.12409759879520599,0.12409759879520599
823,823,0.24916064968560847,0.2,0,369.0,941.0,1.0,310.0,0,0.1531268478586098,0.1531268478586098
824,824,-0.03690690412398223,-0.0,1,265.0,827.0,0.0,628.0,0,0.12411510768757422,0.12411510768757422
825,825,0.6059433830505396,0.6,0,397.0,588.0,0.0,465.0,1,0.07056798566320921,0.07056798566320921
826,826,-0.6933261851578043,-0.7,1,341.0,892.0,1.0,117.0,1,0.009362523507924825,0.009362523507924825
827,827,-0.11416349790717417,-0.1,1,340.0,759.0,1.0,271.0,1,0.1865545729560329,0.1865545729560329
828,828,-0.49904515562520024,-0.5,1,494.0,667.0,1.0,189.0,1,0.2944968663445599,0.2944968663445599
829,829,0.7782044803379942,0.8,0,452.0,583.0,0.0,455.0,1,0.22316328018684062,0.22316328018684062
830,830,-0.6927256998519058,-0.7,1,437.0,863.0,1.0,390.0,1,0.4475609091575223,0.4475609091575223
831,831,0.2739882668715685,0.3,0,365.0,530.0,0.0,165.0,1,0.09205381441112537,0.09205381441112537
832,832,0.417156593001518,0.4,0,273.0,655.0,1.0,182.0,0,0.09452632174187864,0.09452632174187864
833,833,-0.6652235710464987,-0.7,1,255.0,885.0,1.0,130.0,1,0.10188067076973178,0.10188067076973178
834,834,0.2972708083786031,0.3,0,498.0,519.0,1.0,163.0,0,0.13964946712036885,0.13964946712036885
835,835,-0.5300899539158754,-0.5,1,387.0,982.0,1.0,701.0,1,0.438336747076686,0.438336747076686
836,836,-0.3338144876676614,-0.3,1,401.0,861.0,1.0,208.0,1,0.0743851168531161,0.0743851168531161
837,837,-0.6155728114017331,-0.6,1,283.0,775.0,1.0,502.0,1,0.22679613208554078,0.22679613208554078
838,838,-0.4817582754770211,-0.5,1,352.0,995.0,1.0,123.0,1,0.20628480544582328,0.20628480544582328
839,839,0.12861428189369617,0.1,0,280.0,953.0,1.0,357.0,0,0.25055055464392284,0.25055055464392284
840,840,-0.25378634091066465,-0.3,1,273.0,574.0,1.0,1323.0,1,0.10839143822641101,0.10839143822641101
841,841,0.9058514395786459,0.9,0,425.0,784.0,0.0,131.0,1,0.09613356443078236,0.09613356443078236
842,842,0.8829652043619778,0.9,0,494.0,542.0,0.0,234.0,1,0.2872060638905793,0.2872060638905793
843,843,0.007564257328609436,0.0,0,472.0,985.0,1.0,223.0,0,0.3791992825371103,0.3791992825371103
844,844,0.014364335562917496,0.0,0,449.0,800.0,1.0,191.0,0,0.27279930406206016,0.27279930406206016
845,845,-0.788437819015051,-0.8,1,400.0,597.0,1.0,173.0,1,0.36784424798134063,0.36784424798134063
846,846,-0.14086145532770122,-0.1,1,266.0,821.0,1.0,503.0,1,0.29743252712316787,0.29743252712316787
847,847,-0.8792944703562864,-0.9,1,463.0,575.0,1.0,152.0,1,0.4580445303502285,0.4580445303502285
848,848,0.7285385169975598,0.7,0,294.0,653.0,0.0,183.0,1,0.02566703954706978,0.02566703954706978
849,849,0.5535742630712408,0.6,0,289.0,955.0,0.0,156.0,1,0.352160542649101,0.352160542649101
850,850,-0.5625201964286011,-0.6,1,471.0,538.0,1.0,531.0,1,0.15948755810774745,0.15948755810774745
851,851,0.5260487737098152,0.5,0,296.0,644.0,0.0,600.0,1,0.1317998617114669,0.1317998617114669
852,852,-0.05669730231659198,-0.1,1,273.0,797.0,1.0,480.0,1,0.2585512987015777,0.2585512987015777
853,853,0.4243669227097431,0.4,0,414.0,617.0,1.0,329.0,0,0.47387399517438833,0.47387399517438833
854,854,-0.9327847402246061,-0.9,1,336.0,754.0,1.0,460.0,1,0.25643586759723663,0.25643586759723663
855,855,-0.18477656298209388,-0.2,1,481.0,656.0,1.0,243.0,1,0.1310436610413261,0.1310436610413261
856,856,0.9399098888665363,0.9,0,355.0,857.0,0.0,138.0,1,0.4192820579977414,0.4192820579977414
857,857,0.3629356990950452,0.4,0,281.0,652.0,1.0,1267.0,0,0.18869310652390908,0.18869310652390908
858,858,-0.7096587720722509,-0.7,1,392.0,787.0,1.0,141.0,1,0.3229685224172449,0.3229685224172449
859,859,-0.11759161289297526,-0.1,1,383.0,604.0,1.0,53.0,1,0.1908808518181485,0.1908808518181485
860,860,0.5679925888166875,0.6,0,341.0,503.0,0.0,186.0,1,0.49757909164071934,0.49757909164071934
861,861,-0.7698042971283161,-0.8,1,319.0,646.0,1.0,435.0,1,0.3526646689385862,0.3526646689385862
862,862,-0.47502939167895275,-0.5,1,409.0,962.0,1.0,429.0,1,0.042462673705917275,0.042462673705917275
863,863,-0.16021441478159093,-0.2,1,342.0,990.0,1.0,438.0,1,0.05388326952079153,0.05388326952079153
864,864,-0.09422778614263394,-0.1,1,300.0,804.0,0.0,216.0,0,0.38958840876070316,0.38958840876070316
865,865,-0.18149223965687233,-0.2,1,489.0,880.0,1.0,211.0,1,0.4250731542294761,0.4250731542294761
866,866,-0.7786103542651281,-0.8,1,366.0,645.0,1.0,449.0,1,0.265205981250923,0.265205981250923
867,867,0.7197259766464923,0.7,0,258.0,734.0,0.0,148.0,1,0.026074387615117378,0.026074387615117378
868,868,-0.686180617586948,-0.7,1,329.0,604.0,0.0,697.0,0,0.41344035438783805,0.41344035438783805
869,869,0.6686762162954807,0.7,0,293.0,825.0,0.0,282.0,1,0.15601172509342115,0.15601172509342115
870,870,-0.8744987648254012,-0.9,1,375.0,530.0,1.0,195.0,1,0.09320039166430333,0.09320039166430333
871,871,0.913613013535441,0.9,0,307.0,850.0,0.0,313.0,1,0.04364351223379198,0.04364351223379198
872,872,0.10763847394203152,0.1,0,306.0,608.0,0.0,86.0,1,0.17820414226262754,0.17820414226262754
873,873,-0.29815649231574315,-0.3,1,329.0,984.0,0.0,327.0,0,0.23897701753070344,0.23897701753070344
874,874,0.011813249704583306,0.0,0,435.0,601.0,0.0,734.0,1,0.20893743712854496,0.20893743712854496
875,875,0.24284241053175393,0.2,0,423.0,980.0,0.0,457.0,1,0.028077605968734265,0.028077605968734265
876,876,0.03691277632457135,0.0,0,439.0,542.0,1.0,239.0,0,0.43928834403557154,0.43928834403557154
877,877,0.6143234555888595,0.6,0,350.0,706.0,0.0,364.0,1,0.10233514458368675,0.10233514458368675
878,878,-0.8590652048292615,-0.9,1,303.0,967.0,1.0,180.0,1,0.039294784134802696,0.039294784134802696
879,879,0.34982887041822375,0.3,0,354.0,586.0,0.0,170.0,1,0.35875272290971477,0.35875272290971477
880,880,0.08283411343997038,0.1,0,325.0,574.0,1.0,831.0,0,0.18793452235195052,0.18793452235195052
881,881,0.32563653848981033,0.3,0,354.0,596.0,0.0,580.0,1,0.3681953017515668,0.3681953017515668
882,882,-0.6633626735262421,-0.7,1,321.0,777.0,1.0,172.0,1,0.2804760957936949,0.2804760957936949
883,883,0.44712030683497206,0.4,0,285.0,612.0,0.0,233.0,1,0.4769570106836554,0.4769570106836554
884,884,0.7964131958426246,0.8,0,466.0,872.0,0.0,192.0,1,0.2319894750255997,0.2319894750255997
885,885,-0.9023655009726039,-0.9,1,397.0,801.0,1.0,552.0,1,0.34485444198160237,0.34485444198160237
886,886,0.055164251142191256,0.1,0,314.0,970.0,1.0,756.0,0,0.06961109498664009,0.06961109498664009
887,887,0.15656317754705107,0.2,0,499.0,705.0,0.0,406.0,1,0.43002716090957466,0.43002716090957466
888,888,0.5053367985793591,0.5,0,463.0,711.0,0.0,356.0,1,0.4405624467021804,0.4405624467021804
889,889,0.42083452706462765,0.4,0,273.0,659.0,0.0,848.0,1,0.11960507348197336,0.11960507348197336
890,890,-0.2143122168486049,-0.2,1,471.0,706.0,1.0,423.0,1,0.04276056825328778,0.04276056825328778
891,891,0.9812011628240311,1.0,0,431.0,977.0,0.0,162.0,1,0.12428946547917258,0.12428946547917258
892,892,-0.6356485360869011,-0.6,1,270.0,942.0,1.0,278.0,1,0.04317961690558475,0.04317961690558475
893,893,0.017666851568469255,0.0,0,443.0,993.0,1.0,2084.0,0,0.23662526674102524,0.23662526674102524
894,894,0.19197651113122483,0.2,0,266.0,661.0,1.0,993.0,0,0.11636559391092077,0.11636559391092077
895,895,-0.05106361014575467,-0.1,1,417.0,928.0,0.0,365.0,0,0.18702528356421122,0.18702528356421122
896,896,0.613654405175432,0.6,0,390.0,788.0,0.0,312.0,1,0.11323744666799823,0.11323744666799823
897,897,-0.09518242486906026,-0.1,1,380.0,685.0,1.0,115.0,1,0.4163180409289366,0.4163180409289366
898,898,-0.37299118249056407,-0.4,1,390.0,517.0,0.0,253.0,0,0.2899941126980449,0.2899941126980449
899,899,-0.07810740318846077,-0.1,1,270.0,607.0,0.0,173.0,0,0.20764106229990154,0.20764106229990154
900,900,-0.7267023236379102,-0.7,1,499.0,930.0,1.0,311.0,1,0.33160957584023004,0.33160957584023004
901,901,-0.9517475706374523,-1.0,1,270.0,789.0,1.0,101.0,1,0.24445181410264105,0.24445181410264105
902,902,-0.6268687851067407,-0.6,1,399.0,964.0,1.0,177.0,1,0.43795644957706026,0.43795644957706026
903,903,0.5140237920744242,0.5,0,396.0,621.0,1.0,203.0,0,0.21671388500464078,0.21671388500464078
904,904,-0.9089305612712018,-0.9,1,310.0,949.0,1.0,281.0,1,0.44299989876218654,0.44299989876218654
905,905,-0.8959894799912089,-0.9,1,376.0,520.0,1.0,254.0,1,0.4442037786764038,0.4442037786764038
906,906,0.4012349268083366,0.4,0,425.0,993.0,0.0,252.0,1,0.4906319119365981,0.4906319119365981
907,907,-0.3918901871327156,-0.4,1,436.0,769.0,1.0,125.0,1,0.036339735148245345,0.036339735148245345
908,908,0.5445770482163845,0.5,0,365.0,952.0,0.0,93.0,1,0.3574844363259241,0.3574844363259241
909,909,0.5164231443049796,0.5,0,255.0,531.0,1.0,334.0,0,0.06681655191537034,0.06681655191537034
910,910,-0.9929169475114077,-1.0,1,284.0,789.0,1.0,147.0,1,0.10454057928917654,0.10454057928917654
911,911,-0.919661455022607,-0.9,1,498.0,711.0,1.0,431.0,1,0.19765029975700238,0.19765029975700238
912,912,0.3480993730091191,0.3,0,475.0,931.0,0.0,84.0,1,0.3392763433677936,0.3392763433677936
913,913,0.7410046067418325,0.7,0,332.0,535.0,0.0,383.0,1,0.3433885647597915,0.3433885647597915
914,914,0.14388482880096087,0.1,0,266.0,886.0,1.0,88.0,0,0.06225149756339854,0.06225149756339854
915,915,0.24449190196922288,0.2,0,289.0,842.0,1.0,269.0,0,0.32723509126254324,0.32723509126254324
916,916,-0.37602639486225664,-0.4,1,475.0,750.0,0.0,145.0,0,0.1921265796821915,0.1921265796821915
917,917,0.7166106247909945,0.7,0,486.0,905.0,0.0,159.0,1,0.4761231694047493,0.4761231694047493
918,918,-0.23972902969063115,-0.2,1,369.0,535.0,1.0,146.0,1,0.22238058585926251,0.22238058585926251
919,919,-0.8146335216510696,-0.8,1,262.0,965.0,1.0,273.0,1,0.3380704515374201,0.3380704515374201
920,920,-0.422083521195888,-0.4,1,394.0,890.0,1.0,226.0,1,0.2596956103833166,0.2596956103833166
921,921,0.26553340129332414,0.3,0,282.0,857.0,0.0,291.0,1,0.20858929335741494,0.20858929335741494
922,922,-0.8203486246570928,-0.8,1,489.0,627.0,1.0,194.0,1,0.03239735275881411,0.03239735275881411
923,923,-0.0689075331790876,-0.1,1,263.0,942.0,1.0,355.0,1,0.3909555090473457,0.3909555090473457
924,924,0.3626283535080943,0.4,0,354.0,947.0,1.0,239.0,0,0.44853771003059983,0.44853771003059983
925,925,0.2645898620025309,0.3,0,320.0,540.0,0.0,430.0,1,0.16258316259297906,0.16258316259297906
926,926,0.9414255901340867,0.9,0,287.0,790.0,0.0,233.0,1,0.13608838595932155,0.13608838595932155
927,927,0.7189905267704322,0.7,0,362.0,666.0,0.0,462.0,1,0.06998492149327723,0.06998492149327723
928,928,-0.290457720556079,-0.3,1,480.0,972.0,1.0,118.0,1,0.3830827662949343,0.3830827662949343
929,929,0.46909429423752536,0.5,0,451.0,562.0,0.0,497.0,1,0.34014949631709934,0.34014949631709934
930,930,-0.3970781379608015,-0.4,1,263.0,663.0,1.0,344.0,1,0.14777863655815876,0.14777863655815876
931,931,-0.5441690857880446,-0.5,1,399.0,766.0,1.0,245.0,1,0.36281530642505083,0.36281530642505083
932,932,0.09886363945919019,0.1,0,288.0,590.0,0.0,612.0,1,0.2858140590977396,0.2858140590977396
933,933,-0.942422323761843,-0.9,1,498.0,511.0,1.0,181.0,1,0.1248448522350486,0.1248448522350486
934,934,-0.9741108645657353,-1.0,1,318.0,605.0,1.0,287.0,1,0.3149015616503382,0.3149015616503382
935,935,0.705123272251762,0.7,0,422.0,810.0,0.0,408.0,1,0.06789843377352833,0.06789843377352833
936,936,-0.6242348766890038,-0.6,1,321.0,765.0,1.0,154.0,1,0.3170665763126226,0.3170665763126226
937,937,-0.1881186728797526,-0.2,1,288.0,684.0,0.0,438.0,0,0.07253832043662206,0.07253832043662206
938,938,-0.06865197565612124,-0.1,1,258.0,699.0,1.0,463.0,1,0.37692252980601015,0.37692252980601015
939,939,0.8011725749750058,0.8,0,379.0,543.0,0.0,858.0,1,0.007531743637466004,0.007531743637466004
940,940,-0.18547622355246052,-0.2,1,296.0,991.0,1.0,513.0,1,0.3784536204646092,0.3784536204646092
941,941,-0.7039731030441341,-0.7,1,375.0,556.0,1.0,269.0,1,0.02034462468353676,0.02034462468353676
942,942,-0.6554273006087776,-0.7,1,294.0,506.0,1.0,240.0,1,0.11669969864980617,0.11669969864980617
943,943,0.8622033911532809,0.9,0,420.0,653.0,0.0,127.0,1,0.015477574285399587,0.015477574285399587
944,944,-0.7307591828060906,-0.7,1,478.0,781.0,1.0,121.0,1,0.07684423570909404,0.07684423570909404
945,945,0.5023777492271759,0.5,0,489.0,728.0,0.0,353.0,1,0.3514002167399081,0.3514002167399081
946,946,0.6237769631022776,0.6,0,387.0,887.0,0.0,366.0,1,0.42918204120451126,0.42918204120451126
947,947,-0.046384708764011906,-0.0,1,336.0,854.0,1.0,180.0,1,0.0068205179727669485,0.0068205179727669485
948,948,0.9455020954743698,0.9,0,470.0,859.0,0.0,321.0,1,0.4177243209013336,0.4177243209013336
949,949,0.7026876082715123,0.7,0,360.0,642.0,0.0,228.0,1,0.18104273710806562,0.18104273710806562
950,950,0.6995376260788573,0.7,0,418.0,629.0,0.0,163.0,1,0.4443321788407603,0.4443321788407603
951,951,0.1536916200790035,0.2,0,448.0,792.0,1.0,620.0,0,0.010350483537898414,0.010350483537898414
952,952,-0.18750285248577025,-0.2,1,287.0,503.0,1.0,80.0,1,0.2996163067031773,0.2996163067031773
953,953,-0.07479681295898288,-0.1,1,343.0,723.0,1.0,854.0,1,0.4393815840320095,0.4393815840320095
954,954,0.7414401792438008,0.7,0,402.0,983.0,0.0,245.0,1,0.3210751585852661,0.3210751585852661
955,955,0.5383229249574251,0.5,0,445.0,635.0,0.0,480.0,1,0.43326847545834435,0.43326847545834435
956,956,0.4728432531792206,0.5,0,368.0,857.0,0.0,535.0,1,0.0987380522968796,0.0987380522968796
957,957,0.24878666965980512,0.2,0,483.0,865.0,0.0,592.0,1,0.1654024257059718,0.1654024257059718
958,958,-0.9936110752204865,-1.0,1,404.0,965.0,1.0,161.0,1,0.16279058036439864,0.16279058036439864
959,959,0.9337222235447689,0.9,0,467.0,961.0,0.0,82.0,1,0.18766488326515324,0.18766488326515324
960,960,-0.7101854566171519,-0.7,1,471.0,679.0,1.0,220.0,1,0.1585346443924558,0.1585346443924558
961,961,0.35209212584193805,0.4,0,490.0,850.0,0.0,160.0,1,0.37995258280348704,0.37995258280348704
962,962,-0.10898603152993469,-0.1,1,258.0,864.0,1.0,498.0,1,0.19218396738673887,0.19218396738673887
963,963,-0.9946999413363264,-1.0,1,385.0,922.0,1.0,343.0,1,0.4688890607229775,0.4688890607229775
964,964,-0.7982854706933922,-0.8,1,431.0,559.0,1.0,200.0,1,0.06909764919692024,0.06909764919692024
965,965,0.1742414925800333,0.2,0,440.0,577.0,0.0,413.0,1,0.06846788244149055,0.06846788244149055
966,966,-0.6839765050137259,-0.7,1,373.0,796.0,1.0,401.0,1,0.34137050742106717,0.34137050742106717
967,967,0.586839017973916,0.6,0,286.0,706.0,0.0,288.0,1,0.26698709044820124,0.26698709044820124
968,968,-0.3883180582146206,-0.4,1,334.0,719.0,0.0,197.0,0,0.13227816982524315,0.13227816982524315
969,969,-0.7258671431680768,-0.7,1,439.0,506.0,1.0,85.0,1,0.11252809471401459,0.11252809471401459
970,970,-0.9413776341503151,-0.9,1,486.0,665.0,1.0,339.0,1,0.1042008487997031,0.1042008487997031
971,971,-0.6944525506302168,-0.7,1,401.0,969.0,1.0,80.0,1,0.04085953659475727,0.04085953659475727
972,972,0.49824120267300476,0.5,0,459.0,936.0,0.0,375.0,1,0.43898029931931554,0.43898029931931554
973,973,0.8690611303318292,0.9,0,312.0,590.0,0.0,348.0,1,0.27189329883634533,0.27189329883634533
974,974,-0.7763915718289376,-0.8,1,353.0,717.0,1.0,210.0,1,0.17971741115075124,0.17971741115075124
975,975,-0.7977555683350572,-0.8,1,358.0,540.0,1.0,292.0,1,0.2660777595992427,0.2660777595992427
976,976,-0.972534483381176,-1.0,1,320.0,968.0,1.0,642.0,1,0.18541562920390742,0.18541562920390742
977,977,-0.40166168580736383,-0.4,1,290.0,674.0,1.0,176.0,1,0.22406487002846676,0.22406487002846676
978,978,-0.43758153208460215,-0.4,1,287.0,529.0,1.0,104.0,1,0.24400043425333412,0.24400043425333412
979,979,-0.7049681210067968,-0.7,1,313.0,850.0,1.0,97.0,1,0.23794393799174135,0.23794393799174135
980,980,-0.01084067666520494,-0.0,1,386.0,940.0,0.0,74.0,0,0.4685158606480221,0.4685158606480221
981,981,-0.07497273834875995,-0.1,1,438.0,718.0,1.0,504.0,1,0.10838201501249622,0.10838201501249622
982,982,0.22584835583013052,0.2,0,277.0,671.0,0.0,142.0,1,0.11278958041946718,0.11278958041946718
983,983,-0.5539119683315608,-0.6,1,480.0,764.0,1.0,666.0,1,0.3922620024695261,0.3922620024695261
984,984,-0.6031167802984063,-0.6,1,303.0,837.0,1.0,280.0,1,0.14800083132854813,0.14800083132854813
985,985,-0.7159890772926145,-0.7,1,494.0,763.0,1.0,263.0,1,0.36449466964310845,0.36449466964310845
986,986,0.7161159833456276,0.7,0,447.0,543.0,0.0,220.0,1,0.3743797164510885,0.3743797164510885
987,987,-0.26440004082845214,-0.3,1,411.0,782.0,1.0,437.0,1,0.426749328500726,0.426749328500726
988,988,0.9144506214812917,0.9,0,427.0,897.0,0.0,386.0,1,0.23365985584644494,0.23365985584644494
989,989,0.865688235697927,0.9,0,376.0,647.0,0.0,187.0,1,0.08313399474064326,0.08313399474064326
990,990,-0.4583100690974855,-0.5,1,335.0,822.0,1.0,283.0,1,0.32367424407989537,0.32367424407989537
991,991,-0.6534836903623122,-0.7,1,471.0,828.0,1.0,111.0,1,0.2833943882903535,0.2833943882903535
992,992,0.6034998407335306,0.6,0,366.0,740.0,0.0,604.0,1,0.497097959264015,0.497097959264015
993,993,0.38113428082126966,0.4,0,265.0,897.0,0.0,538.0,1,0.02134478464459061,0.02134478464459061
994,994,-0.8766213145043948,-0.9,1,455.0,549.0,1.0,416.0,1,0.10845683954485402,0.10845683954485402
995,995,0.31438596921991513,0.3,0,353.0,719.0,0.0,208.0,1,0.18656984582776392,0.18656984582776392
996,996,0.6948648156316455,0.7,0,269.0,883.0,0.0,548.0,1,0.4247177790204461,0.4247177790204461
997,997,0.3041644090080442,0.3,0,293.0,653.0,1.0,224.0,0,0.19721690590959118,0.19721690590959118
998,998,-0.956290022019952,-1.0,1,342.0,682.0,1.0,306.0,1,0.2984594075741803,0.2984594075741803
999,999,-0.5525064783048772,-0.6,1,489.0,504.0,1.0,187.0,1,0.4547065268999293,0.4547065268999293
1000,1000,0.4060557060849421,0.4,0,411.0,942.0,0.0,437.0,1,0.0459266830741884,0.0459266830741884
1001,1001,-0.8673771702259097,-0.9,1,437.0,846.0,1.0,187.0,1,0.04601193381679075,0.04601193381679075
1002,1002,-0.2750364130923886,-0.3,1,317.0,952.0,1.0,231.0,1,0.07741847832423604,0.07741847832423604
1003,1003,0.5454570414758004,0.5,0,437.0,518.0,0.0,305.0,1,0.356366742030294,0.356366742030294
1004,1004,0.947432064539645,0.9,0,322.0,801.0,0.0,497.0,1,0.4227348672619488,0.4227348672619488
1005,1005,-0.6759775505980632,-0.7,1,477.0,826.0,1.0,607.0,1,0.01648835883722688,0.01648835883722688
1006,1006,0.9027955923038675,0.9,0,365.0,640.0,0.0,155.0,1,0.18331026425795094,0.18331026425795094
1007,1007,0.9514740671873818,1.0,0,458.0,844.0,0.0,388.0,1,0.2529416337102534,0.2529416337102534
1008,1008,0.8457387863720194,0.8,0,479.0,597.0,0.0,194.0,1,0.4749056701138389,0.4749056701138389
1009,1009,-0.7486613417215944,-0.7,1,320.0,570.0,0.0,200.0,0,0.21199329984447307,0.21199329984447307
1010,1010,-0.3445993809586336,-0.3,1,492.0,560.0,1.0,148.0,1,0.31265397538463346,0.31265397538463346
1011,1011,-0.2554271383244904,-0.3,1,366.0,701.0,1.0,273.0,1,0.47060236884565737,0.47060236884565737
1012,1012,0.4223514420114767,0.4,0,483.0,894.0,0.0,133.0,1,0.39563841694011115,0.39563841694011115
1013,1013,-0.5410216778221744,-0.5,1,446.0,673.0,1.0,451.0,1,0.4528938467077918,0.4528938467077918
1014,1014,-0.13155555766895222,-0.1,1,253.0,578.0,1.0,1339.0,1,0.19447194909522098,0.19447194909522098
1015,1015,-0.4466028893157177,-0.4,1,428.0,666.0,1.0,256.0,1,0.4486832120067345,0.4486832120067345
1016,1016,-0.41210214163425674,-0.4,1,257.0,949.0,1.0,334.0,1,0.1075537229975776,0.1075537229975776
1017,1017,-0.04283800307494312,-0.0,1,298.0,793.0,0.0,529.0,0,0.07672057642256602,0.07672057642256602
1018,1018,-0.5367715564550797,-0.5,1,252.0,977.0,1.0,581.0,1,0.3644725124548167,0.3644725124548167
1019,1019,-0.6128105651178097,-0.6,1,471.0,694.0,0.0,175.0,0,0.44136313219737977,0.44136313219737977
1020,1020,0.2804268790081297,0.3,0,303.0,558.0,1.0,109.0,0,0.29630232425551745,0.29630232425551745
1021,1021,-0.8365162352091142,-0.8,1,447.0,589.0,1.0,204.0,1,0.08169528605955684,0.08169528605955684
1022,1022,-0.8956593073076711,-0.9,1,436.0,881.0,1.0,73.0,1,0.2712106119278415,0.2712106119278415
1023,1023,-0.05025403195811817,-0.1,1,327.0,769.0,1.0,924.0,1,0.1610182902852163,0.1610182902852163
1024,1024,-0.5609028380953562,-0.6,1,443.0,998.0,1.0,279.0,1,0.3441341871492223,0.3441341871492223
