,trial,coherence,coherence_bin,correct_side,target_onset,checker_onset,decision,decision_time,correct_decision,g0,gSlope
0,0,0.08622362271278017,0.1,0,309.0,620.0,0.0,181.0,1,0.7875943234488524,0.003983347075551322
1,1,-0.242259536428169,-0.2,1,355.0,985.0,1.0,200.0,1,0.7803051849638247,0.003069586966278739
2,2,-0.6218118694055643,-0.6,1,301.0,505.0,1.0,204.0,1,0.49286559398258756,0.0027578292455415804
3,3,0.490883276980437,0.5,0,458.0,804.0,0.0,268.0,1,0.47451801263533655,0.00020453508889805018
4,4,-0.3978303447972116,-0.4,1,441.0,663.0,1.0,346.0,1,0.08603648130029329,0.0011819599478256892
5,5,0.16099700146091211,0.2,0,395.0,821.0,0.0,384.0,1,0.6435192449405098,0.001510742773729894
6,6,-0.6145468720777865,-0.6,1,297.0,975.0,1.0,228.0,1,0.46749058818786826,0.0017146090027347872
7,7,0.5028249675625451,0.5,0,388.0,558.0,0.0,244.0,1,0.42872747209216155,0.003049559699615414
8,8,0.35343092418469646,0.4,0,393.0,979.0,0.0,188.0,1,0.9102199701973822,0.004677098464978505
9,9,-0.8928787195448518,-0.9,1,332.0,667.0,1.0,91.0,1,0.9083831547391484,0.004925526998042305
10,10,-0.016320239990395224,-0.0,1,471.0,673.0,0.0,216.0,0,0.23037998570517648,0.0036384549750957547
11,11,-0.24687768911580932,-0.2,1,390.0,885.0,1.0,345.0,1,0.14269002505699213,0.0011193925810410532
12,12,0.5885966287521562,0.6,0,396.0,892.0,0.0,392.0,1,0.214287769050026,0.00016175622953210677
13,13,0.12438739123495846,0.1,0,464.0,630.0,0.0,256.0,1,0.7635240300812782,0.003978311296576511
14,14,0.4900079624830591,0.5,0,445.0,639.0,0.0,196.0,1,0.3762579687510269,0.002331629784731889
15,15,-0.7029995597098786,-0.7,1,436.0,877.0,1.0,197.0,1,0.4668266115651397,0.0032297392094550277
16,16,-0.8130458574232486,-0.8,1,310.0,663.0,1.0,197.0,1,0.6192285612390834,0.0010349224941170138
17,17,0.3600270762248752,0.4,0,324.0,748.0,0.0,158.0,1,0.9065304975847471,0.0048726413819572875
18,18,-0.5464646437310334,-0.5,1,284.0,637.0,1.0,269.0,1,0.8305435804374324,0.0013030069262753863
19,19,0.1229257523951024,0.1,0,344.0,713.0,0.0,173.0,1,0.38990425270117646,0.004825275450751864
20,20,0.6965286367959997,0.7,0,279.0,837.0,0.0,144.0,1,0.8010619044198909,0.0016626063655540496
21,21,-0.37536579643343315,-0.4,1,379.0,851.0,1.0,170.0,1,0.8947333996743095,0.000737603572665465
22,22,0.49432188837421065,0.5,0,347.0,571.0,0.0,272.0,1,0.45886287630917844,0.0016750012997100922
23,23,-0.6467623729826963,-0.6,1,335.0,615.0,1.0,140.0,1,0.9901150279803487,0.004842042574313993
24,24,-0.9219949406980248,-0.9,1,313.0,702.0,1.0,165.0,1,0.2284159558094193,0.003348057671131867
25,25,0.3534244968512994,0.4,0,269.0,876.0,0.0,625.0,1,0.15834391036152473,0.00011700173592717133
26,26,-0.4327723594921178,-0.4,1,369.0,626.0,0.0,185.0,0,0.8286943915226156,0.001792171628653108
27,27,-0.6649412384205244,-0.7,1,442.0,936.0,1.0,202.0,1,0.13960452585432404,0.0036559049915468457
28,28,0.617800600263132,0.6,0,378.0,960.0,0.0,252.0,1,0.31006556438460675,0.0018517819233482141
29,29,-0.5024034406158491,-0.5,1,446.0,524.0,1.0,390.0,1,0.3811733316682361,0.0008447977622635678
30,30,-0.4060373007150597,-0.4,1,483.0,692.0,1.0,245.0,1,0.12826551649736362,0.002945449328540362
31,31,-0.2618834368478071,-0.3,1,497.0,766.0,1.0,157.0,1,0.9262729367397419,0.0009071846843414022
32,32,0.6352607770370591,0.6,0,281.0,539.0,0.0,150.0,1,0.5641643381593808,0.004304273063317139
33,33,-0.6686013328253257,-0.7,1,302.0,852.0,1.0,176.0,1,0.7764389728232635,0.0028889675265811954
34,34,0.8117684803823118,0.8,0,353.0,982.0,0.0,185.0,1,0.46664056570241297,0.003813798472100185
35,35,0.08255218217013671,0.1,0,482.0,680.0,0.0,498.0,1,0.7143182081981704,0.00023789143049586292
36,36,-0.6344699765975941,-0.6,1,372.0,742.0,1.0,186.0,1,0.4937258125396735,0.0034390200080891002
37,37,-0.8688978100866258,-0.9,1,360.0,507.0,1.0,233.0,1,0.22421000342967679,0.002766319757486413
38,38,0.040577627906914104,0.0,0,482.0,656.0,1.0,282.0,0,0.23486306247040079,0.004428079898871662
39,39,0.33877376458611197,0.3,0,429.0,682.0,0.0,169.0,1,0.9502802544196843,0.004573590758423705
40,40,-0.6662598688672146,-0.7,1,275.0,500.0,1.0,115.0,1,0.7611085770734024,0.002714804088275801
41,41,0.5960558901840098,0.6,0,438.0,675.0,0.0,227.0,1,0.32211138058144606,0.0030357125183304978
42,42,0.5974406079255039,0.6,0,323.0,973.0,0.0,194.0,1,0.8077545013765599,0.0027858912405439745
43,43,0.7064817863495725,0.7,0,285.0,995.0,0.0,130.0,1,0.8791656426009495,0.00443727316727972
44,44,-0.475886275635393,-0.5,1,354.0,632.0,1.0,194.0,1,0.7748541183268358,0.004883080202097518
45,45,0.39497334293249264,0.4,0,312.0,522.0,0.0,216.0,1,0.43996705552163007,0.002303785284843789
46,46,-0.7083142193942515,-0.7,1,273.0,772.0,1.0,195.0,1,0.4129735938164758,0.001964713148243778
47,47,-0.28606242680450356,-0.3,1,387.0,809.0,1.0,204.0,1,0.7167730457715213,0.00031454273538538525
48,48,-0.08214881876802238,-0.1,1,428.0,907.0,1.0,295.0,1,0.41909773974622566,0.004241918623499594
49,49,-0.7142269546448394,-0.7,1,458.0,772.0,1.0,230.0,1,0.1313443109446445,0.0016587230073652464
50,50,-0.9254154390508993,-0.9,1,486.0,990.0,1.0,194.0,1,0.26106873614118664,0.0019067105783816725
51,51,0.08358758886808815,0.1,0,484.0,709.0,0.0,467.0,1,0.1383583362591565,0.0009299792451240957
52,52,-0.8402236102253908,-0.8,1,406.0,572.0,1.0,182.0,1,0.3483489327413902,0.00416419495318816
53,53,-0.34167055444464034,-0.3,1,390.0,979.0,1.0,291.0,1,0.6751119918492966,0.002787441519354481
54,54,0.9762659635409481,1.0,0,310.0,894.0,0.0,246.0,1,0.4071141767361668,0.002489841268593372
55,55,-0.23146205657565888,-0.2,1,365.0,752.0,1.0,283.0,1,0.5695837141697724,0.0004592707550616887
56,56,-0.4356787982911421,-0.4,1,427.0,859.0,1.0,274.0,1,0.6078221334910742,0.002908294842199561
57,57,0.08714113902358078,0.1,0,313.0,515.0,0.0,302.0,1,0.835079082647912,0.002207648207259444
58,58,0.764747605251112,0.8,0,271.0,541.0,0.0,338.0,1,0.1570201107834427,0.003377454001254492
59,59,-0.11070652057087149,-0.1,1,341.0,925.0,1.0,334.0,1,0.49023826323323416,0.0029807750386783866
60,60,0.11178617424395032,0.1,0,348.0,713.0,0.0,639.0,1,0.38720285073083693,0.0011475382374439174
61,61,-0.7957331527488436,-0.8,1,464.0,645.0,1.0,311.0,1,0.5106652062724802,0.0018375209643574054
62,62,0.8607146589810393,0.9,0,478.0,560.0,0.0,252.0,1,0.3460408744056349,0.00023734222934363724
63,63,-0.9056425631719422,-0.9,1,407.0,715.0,1.0,258.0,1,0.7945057944866692,0.000994385001770346
64,64,0.39162967324678766,0.4,0,272.0,773.0,0.0,425.0,1,0.18824326088559928,0.000231094326645217
65,65,0.21918113991067667,0.2,0,368.0,896.0,0.0,226.0,1,0.16470834316690997,0.004950592837260188
66,66,0.6369962843239692,0.6,0,411.0,931.0,0.0,178.0,1,0.9195449083493296,0.001792378857553979
67,67,1.2556766120885854e-05,0.0,0,495.0,801.0,0.0,764.0,1,0.10337435517471183,0.0004246116691709767
68,68,0.8913841287781072,0.9,0,328.0,904.0,0.0,168.0,1,0.5997672775324353,0.004190066227268779
69,69,0.8672464612041846,0.9,0,434.0,630.0,0.0,236.0,1,0.08756547417841998,0.004359713949809933
70,70,-0.18925650984238174,-0.2,1,297.0,609.0,1.0,324.0,1,0.538107583153735,0.00422398472171696
71,71,0.8613367614824732,0.9,0,402.0,691.0,0.0,217.0,1,0.9051514777327574,0.0009679868851080492
72,72,-0.828958943757826,-0.8,1,341.0,772.0,1.0,227.0,1,0.26996634692630983,0.002428561520094136
73,73,-0.9598190904824611,-1.0,1,443.0,560.0,1.0,177.0,1,0.2755871113910492,0.004295987149203513
74,74,-0.7531267537405419,-0.8,1,468.0,509.0,1.0,213.0,1,0.4030601992413466,0.0011178941843735246
75,75,-0.4197792680848358,-0.4,1,310.0,927.0,1.0,233.0,1,0.6719048775849659,0.004136443900266364
76,76,-0.30213929613692536,-0.3,1,284.0,706.0,1.0,290.0,1,0.5951421697793811,0.00360041594563329
77,77,-0.7643160853275461,-0.8,1,339.0,693.0,1.0,158.0,1,0.8708550046277078,0.004191265124469835
78,78,0.894781709332914,0.9,0,275.0,553.0,0.0,272.0,1,0.08963460335729734,0.002018677533684053
79,79,0.7974405742252155,0.8,0,364.0,521.0,0.0,195.0,1,0.9506943578848626,0.0041605782481470835
80,80,-0.4421241233800286,-0.4,1,293.0,531.0,1.0,246.0,1,0.7946476869221143,0.0017273310043805473
81,81,0.6908754031000242,0.7,0,385.0,576.0,0.0,279.0,1,0.26316920800375065,0.0012084872820397386
82,82,-0.05716413275230248,-0.1,1,447.0,561.0,1.0,442.0,1,0.41251856119096897,0.0012514826006486729
83,83,-0.048413393012478156,-0.0,1,331.0,564.0,0.0,335.0,0,0.6379751730228309,0.0033830934243592988
84,84,0.04478561980385565,0.0,0,498.0,655.0,0.0,427.0,1,0.47113420845209075,0.0010738873734095111
85,85,-0.27362267780662397,-0.3,1,308.0,738.0,1.0,464.0,1,0.07524933211030449,0.0013662553901684393
86,86,0.7018126908760633,0.7,0,431.0,508.0,0.0,361.0,1,0.354333365401741,0.0022227545328092823
87,87,0.06252163450181869,0.1,0,422.0,941.0,1.0,287.0,0,0.6265481089964509,0.0033508422448069687
88,88,-0.5314494444460007,-0.5,1,282.0,778.0,1.0,230.0,1,0.1796290464321506,0.0036846162038492525
89,89,0.5747946741694441,0.6,0,323.0,715.0,0.0,182.0,1,0.7881888802634444,0.0010251125971881886
90,90,0.288289110131674,0.3,0,284.0,989.0,0.0,217.0,1,0.9789273477066952,0.004726787676120553
91,91,-0.3341664797219899,-0.3,1,488.0,949.0,1.0,333.0,1,0.5776089309812674,0.0003688724035940488
92,92,-0.6928776369329155,-0.7,1,472.0,991.0,1.0,137.0,1,0.4601746677599937,0.0020064931761335503
93,93,-0.14785241572999364,-0.1,1,341.0,614.0,1.0,185.0,1,0.797837090203158,0.003918880767550129
94,94,-0.7866618133439998,-0.8,1,346.0,532.0,1.0,142.0,1,0.9789333422298514,0.0020518687943124913
95,95,0.8418088437109377,0.8,0,339.0,517.0,0.0,164.0,1,0.9573000110413156,0.001106403604576845
96,96,0.07058163815568697,0.1,0,432.0,550.0,0.0,278.0,1,0.5431215090547001,0.003251101389100307
97,97,-0.7497953317966837,-0.7,1,360.0,784.0,1.0,176.0,1,0.8309597559030918,0.0025824002865981327
98,98,-0.5301901717446633,-0.5,1,400.0,742.0,1.0,338.0,1,0.52722938972372,0.0002495538995154023
99,99,0.04601001251068815,0.0,0,435.0,937.0,0.0,488.0,1,0.80729852210992,0.00015300115852747155
100,100,0.15944420865800168,0.2,0,412.0,899.0,0.0,289.0,1,0.257971313060423,0.002857057085776333
101,101,0.08093337606118034,0.1,0,452.0,536.0,1.0,202.0,0,0.6197104127339601,0.0011768873652533963
102,102,0.3688483754945786,0.4,0,480.0,531.0,0.0,169.0,1,0.8330236522045469,0.0034925817065249156
103,103,0.7595510733154867,0.8,0,299.0,804.0,0.0,247.0,1,0.7652239710078352,0.0009687612401603363
104,104,-0.7594398792421739,-0.8,1,259.0,944.0,1.0,207.0,1,0.16899504072685023,0.0042780897132790995
105,105,0.4208310611517363,0.4,0,471.0,710.0,0.0,309.0,1,0.35113416629094707,0.001849727168225106
106,106,-0.9055626582279468,-0.9,1,346.0,934.0,1.0,200.0,1,0.7630464024432861,0.0028678729930730353
107,107,-0.8232527869641253,-0.8,1,292.0,522.0,1.0,276.0,1,0.12516994533599046,0.002906011727074733
108,108,0.8022703172535901,0.8,0,366.0,777.0,0.0,227.0,1,0.6019645035660133,0.0014319990271088145
109,109,-0.3628679212356636,-0.4,1,461.0,688.0,1.0,171.0,1,0.5021835017031178,0.0042633443186620755
110,110,0.9837492824656167,1.0,0,358.0,922.0,0.0,210.0,1,0.2526728408968607,0.002712412181342201
111,111,-0.03287789779600825,-0.0,1,311.0,523.0,0.0,446.0,0,0.275962923342317,0.0018178270602542835
112,112,0.9436339148468196,0.9,0,400.0,959.0,0.0,271.0,1,0.1326866206853008,0.0006669094374615348
113,113,-0.22236217311293704,-0.2,1,450.0,919.0,1.0,301.0,1,0.5804579996382415,0.0027761441994134536
114,114,-0.27249603154475843,-0.3,1,427.0,897.0,1.0,266.0,1,0.7095069081911961,0.0025810083611601067
115,115,0.6024374965645312,0.6,0,457.0,560.0,0.0,273.0,1,0.2760473919241865,0.004228540956823634
116,116,0.5064299228275293,0.5,0,418.0,677.0,0.0,315.0,1,0.4244807635146093,0.0002681166193444434
117,117,-0.6521463483948087,-0.7,1,302.0,745.0,1.0,283.0,1,0.12435082491950289,0.0010184086030632672
118,118,0.9249327681441588,0.9,0,361.0,555.0,0.0,194.0,1,0.49047085776393096,0.004509510711590908
119,119,0.43655317302465146,0.4,0,344.0,583.0,0.0,223.0,1,0.27491508875395665,0.004474485227612129
120,120,-0.07726845172688868,-0.1,1,315.0,842.0,1.0,223.0,1,0.5550322239153658,0.004235099797072847
121,121,0.8586655214005485,0.9,0,420.0,822.0,0.0,158.0,1,0.8843770812184366,0.004958777024791629
122,122,0.11446779759286319,0.1,0,438.0,521.0,0.0,521.0,1,0.20115527267164324,0.000499593575503357
123,123,-0.39356013541304113,-0.4,1,311.0,677.0,1.0,272.0,1,0.07787458998804009,0.0027259990030313696
124,124,-0.885450752240659,-0.9,1,401.0,524.0,1.0,195.0,1,0.5959233333376666,0.004494646805505755
125,125,0.4042800820806367,0.4,0,442.0,706.0,0.0,352.0,1,0.37543946278809515,0.0018972629909835648
126,126,0.9888708412545693,1.0,0,475.0,660.0,0.0,205.0,1,0.008054432273466139,0.004732720265150124
127,127,0.0831357353414075,0.1,0,261.0,626.0,0.0,283.0,1,0.7980986641001067,0.0026727585189047563
128,128,-0.08124318660352392,-0.1,1,460.0,906.0,1.0,184.0,1,0.9537248739101838,0.002375830876911463
129,129,-0.92710428956936,-0.9,1,463.0,581.0,1.0,276.0,1,0.27711511318747906,0.0007368888497151727
130,130,0.22948728432459742,0.2,0,417.0,552.0,0.0,301.0,1,0.3077487731902887,0.0027038880269681606
131,131,0.2100732346078733,0.2,0,262.0,853.0,0.0,165.0,1,0.7735663487229215,0.004014405704797452
132,132,-0.06052948172324224,-0.1,1,296.0,687.0,1.0,287.0,1,0.8070129520944076,0.004808477207683807
133,133,0.3749686341033973,0.4,0,319.0,786.0,0.0,215.0,1,0.21960045440334364,0.0026125645702481715
134,134,0.089773656887713,0.1,0,381.0,660.0,0.0,219.0,1,0.9105944822876788,0.0037835358790810226
135,135,-0.252761345382682,-0.3,1,357.0,516.0,1.0,257.0,1,0.23301134793274747,0.0021111756792028223
136,136,-0.8244962152002506,-0.8,1,303.0,743.0,1.0,184.0,1,0.0742211241813785,0.003522473142136215
137,137,0.4606453311477845,0.5,0,426.0,837.0,0.0,337.0,1,0.08987928592068595,0.0025819248696153834
138,138,-0.5868924370255435,-0.6,1,462.0,541.0,1.0,327.0,1,0.9608670770233062,0.0021620258715113437
139,139,0.11976280876648526,0.1,0,452.0,744.0,1.0,614.0,0,0.25934272581495543,0.0009923363982033172
140,140,0.2821549922472941,0.3,0,375.0,872.0,0.0,483.0,1,0.1790295790436358,0.0003264532813302784
141,141,0.261233094094671,0.3,0,427.0,996.0,0.0,277.0,1,0.8785267570698302,0.0024372478322899982
142,142,0.9166945015883328,0.9,0,417.0,773.0,0.0,260.0,1,0.7456306439093106,0.00015908338981423799
143,143,-0.5175860822604017,-0.5,1,332.0,554.0,1.0,184.0,1,0.9743306869663624,0.0029794224513855156
144,144,-0.2144987419159381,-0.2,1,284.0,704.0,1.0,252.0,1,0.7096794193500835,0.0044866433343602845
145,145,0.3000341964739961,0.3,0,434.0,716.0,0.0,430.0,1,0.27806162436995685,0.0029386981043991
146,146,-0.967198992246086,-1.0,1,495.0,802.0,1.0,213.0,1,0.5111853867761713,0.0012281028438153663
147,147,-0.18675810103851664,-0.2,1,359.0,777.0,0.0,384.0,0,0.30262632542476764,0.0023887872637272
148,148,0.09712425265144509,0.1,0,322.0,953.0,1.0,195.0,0,0.8813333540485493,0.0019156884724037255
149,149,-0.5024066134073035,-0.5,1,263.0,674.0,1.0,173.0,1,0.6515123336736205,0.003400309463339662
150,150,0.7911711256806344,0.8,0,379.0,971.0,0.0,440.0,1,0.05307859579527363,7.649367049845756e-05
151,151,0.5933538727573711,0.6,0,306.0,513.0,0.0,201.0,1,0.6591111890359905,0.0007421328667217742
152,152,-0.1722963185785149,-0.2,1,401.0,530.0,1.0,269.0,1,0.12097776597945364,0.004186837063608855
153,153,0.15691241860065208,0.2,0,494.0,683.0,1.0,233.0,0,0.6668063772467174,0.0028376951751647346
154,154,0.15232113866987573,0.2,0,465.0,776.0,0.0,619.0,1,0.007784257201540523,0.0005853522700454755
155,155,-0.09683879262281958,-0.1,1,332.0,616.0,0.0,282.0,0,0.5241072753226336,0.0026511242708908466
156,156,-0.9757301386795323,-1.0,1,464.0,692.0,1.0,264.0,1,0.07324338788014595,0.002586196956039096
157,157,0.4420068444242058,0.4,0,442.0,764.0,0.0,194.0,1,0.6728692287874689,0.004712507568873503
158,158,0.777977347474349,0.8,0,332.0,928.0,0.0,330.0,1,0.24237997711821635,0.0027668678593704373
159,159,0.9693832466708034,1.0,0,318.0,566.0,0.0,216.0,1,0.45694658381875386,0.004519766885037448
160,160,0.2462964852676981,0.2,0,335.0,623.0,0.0,272.0,1,0.28568396307389765,0.004913689311537312
161,161,0.6352684219428641,0.6,0,311.0,788.0,0.0,161.0,1,0.5052719294054744,0.0012096984597657152
162,162,0.3375097130675935,0.3,0,318.0,838.0,0.0,174.0,1,0.8535018921105415,0.004791077445258382
163,163,-0.931355933116544,-0.9,1,367.0,511.0,1.0,192.0,1,0.14252242082081212,0.0003495051829229634
164,164,0.6149225658730177,0.6,0,303.0,997.0,0.0,210.0,1,0.687704234674158,0.0005406679581881129
165,165,0.5010539931133462,0.5,0,447.0,702.0,0.0,251.0,1,0.6018132408838777,0.002612325573639091
166,166,-0.4007997414934519,-0.4,1,438.0,710.0,1.0,182.0,1,0.7442015060924826,0.0009208567225656122
167,167,0.13074126561149102,0.1,0,273.0,929.0,0.0,238.0,1,0.8743070606987936,0.0013322580737097623
168,168,-0.09706673927240028,-0.1,1,300.0,757.0,1.0,303.0,1,0.301721876149448,0.0023921823165395655
169,169,0.5133360396526723,0.5,0,478.0,501.0,0.0,201.0,1,0.5203946561463991,0.004603866219684352
170,170,0.8594379469350399,0.9,0,471.0,694.0,0.0,215.0,1,0.332119504809938,0.0036363598031192335
171,171,-0.33432489435854507,-0.3,1,392.0,674.0,1.0,304.0,1,0.6659744470337893,0.001882701734474398
172,172,0.7998741577087021,0.8,0,442.0,814.0,0.0,204.0,1,0.6066142215462513,0.00222598490700648
173,173,-0.9580502237376187,-1.0,1,445.0,827.0,1.0,288.0,1,0.23814556007245824,0.0025016163321078
174,174,-0.5426740537963624,-0.5,1,376.0,972.0,1.0,222.0,1,0.26428665002149243,0.0033720018189995096
175,175,-0.6348296357251855,-0.6,1,263.0,543.0,1.0,214.0,1,0.4534302540374404,0.0016560068478548712
176,176,-0.9811281373656049,-1.0,1,352.0,750.0,1.0,308.0,1,0.31737400044693953,0.00026433417986549524
177,177,0.36105238037218945,0.4,0,285.0,925.0,0.0,290.0,1,0.3570901053300176,0.0010090626375843764
178,178,0.5738735988040071,0.6,0,359.0,604.0,0.0,317.0,1,0.2604546498848359,0.00013359744094207094
179,179,0.5395385323035584,0.5,0,352.0,531.0,0.0,167.0,1,0.5413227317357724,0.0026928891960562125
180,180,-0.5248615437706745,-0.5,1,373.0,747.0,1.0,280.0,1,0.621302919117655,0.0019202520826104197
181,181,-0.2153201563091749,-0.2,1,460.0,876.0,1.0,394.0,1,0.018008496869494572,0.002249549274129072
182,182,0.8680351886504607,0.9,0,415.0,871.0,0.0,124.0,1,0.9988390655135192,0.0012302373145313367
183,183,-0.9505618004194845,-1.0,1,376.0,664.0,1.0,160.0,1,0.9737706417434416,0.0019394814130984834
184,184,0.6887583180837951,0.7,0,449.0,570.0,0.0,221.0,1,0.1440490004345858,0.0010933374071678303
185,185,-0.24988627909197358,-0.2,1,401.0,521.0,1.0,338.0,1,0.7904170564407412,0.0032540422860633145
186,186,-0.796447188235494,-0.8,1,282.0,543.0,1.0,165.0,1,0.5669241098614602,0.004793633846675866
187,187,-0.6077209657536211,-0.6,1,411.0,660.0,1.0,229.0,1,0.7311811819133953,0.0026243418800269455
188,188,-0.508176493708363,-0.5,1,469.0,850.0,1.0,351.0,1,0.44948974029938404,0.0005955011139360567
189,189,0.0637713286483148,0.1,0,395.0,531.0,0.0,244.0,1,0.5559536333694322,0.0028119103320852316
190,190,-0.34500347329701575,-0.3,1,424.0,952.0,1.0,144.0,1,0.5827875133535466,0.0027257393265028825
191,191,-0.19674596956306978,-0.2,1,352.0,974.0,1.0,354.0,1,0.4288594329376152,0.003828466111061121
192,192,-0.3858358788322729,-0.4,1,379.0,527.0,1.0,264.0,1,0.9546933683996673,0.001382082648961338
193,193,-0.8148181116156252,-0.8,1,392.0,640.0,1.0,168.0,1,0.057092254120431174,0.0032820312770997814
194,194,-0.9967862769994527,-1.0,1,366.0,932.0,1.0,142.0,1,0.9656879041364369,0.004096358897782779
195,195,-0.2612948700017501,-0.3,1,453.0,571.0,1.0,316.0,1,0.1470413666589555,0.0006394312921141521
196,196,-0.5691865728406087,-0.6,1,403.0,885.0,1.0,352.0,1,0.2968669829473398,0.000827495860941303
197,197,0.0926656890307127,0.1,0,330.0,670.0,1.0,240.0,0,0.47642326869716867,0.004996274236015613
198,198,-0.5739238044552946,-0.6,1,399.0,956.0,1.0,235.0,1,0.4963001863498845,0.0020419799453853253
199,199,0.3471939777526136,0.3,0,344.0,598.0,0.0,518.0,1,0.6153035592857948,0.00021591071315983813
200,200,0.822898757929549,0.8,0,255.0,845.0,0.0,360.0,1,0.7697598317085378,0.0004279149500391349
201,201,0.1732799007622272,0.2,0,450.0,612.0,0.0,138.0,1,0.7866812276985534,0.004643011585894758
202,202,0.7561026450039381,0.8,0,327.0,946.0,0.0,217.0,1,0.20018721797619887,0.004148356564202636
203,203,0.9952679691097417,1.0,0,253.0,925.0,0.0,252.0,1,0.35146523608704183,0.00014010066791801779
204,204,0.7618693766116684,0.8,0,390.0,572.0,0.0,408.0,1,0.09570540837756203,0.00024800259710306414
205,205,0.23622964742248675,0.2,0,306.0,966.0,0.0,198.0,1,0.7391632987465679,0.004170998718522448
206,206,-0.24293948457006542,-0.2,1,436.0,940.0,1.0,214.0,1,0.8495845731876601,0.0038104487442102947
207,207,0.5862661186414417,0.6,0,370.0,701.0,0.0,249.0,1,0.9823464881570974,0.0032441060694570496
208,208,-0.46374906794905146,-0.5,1,414.0,836.0,1.0,130.0,1,0.8360657762527006,0.004063278746171595
209,209,0.2165765519083176,0.2,0,257.0,657.0,0.0,476.0,1,0.2268659743455581,0.0004575926800440827
210,210,0.19777950822911183,0.2,0,480.0,954.0,0.0,236.0,1,0.10815915882217564,0.004604003715092456
211,211,0.949762226916369,0.9,0,283.0,792.0,0.0,215.0,1,0.9585232966545788,0.0009411291125607707
212,212,-0.3386836710071046,-0.3,1,372.0,944.0,1.0,294.0,1,0.27608153815423186,0.002686441487478953
213,213,0.8547860797073472,0.9,0,353.0,714.0,0.0,183.0,1,0.8973921536917945,0.003727792239363218
214,214,0.3323525388192654,0.3,0,427.0,661.0,0.0,662.0,1,0.017236375676578097,0.0008011391447365856
215,215,0.666279064564584,0.7,0,387.0,709.0,0.0,354.0,1,0.30019768047448736,0.0008553340027345369
216,216,0.994337715084898,1.0,0,319.0,543.0,0.0,168.0,1,0.4646148440828094,0.002759196270780122
217,217,-0.6237970165856932,-0.6,1,263.0,566.0,1.0,241.0,1,0.1688900024397335,0.0028052635249761356
218,218,0.692933747079461,0.7,0,352.0,906.0,0.0,182.0,1,0.6306262525419527,0.003673945662897763
219,219,-0.5781631651743524,-0.6,1,471.0,593.0,1.0,306.0,1,0.0790156318874159,0.004042655325369518
220,220,-0.8883803710565987,-0.9,1,324.0,829.0,1.0,267.0,1,0.013906045153643132,0.001297068078493026
221,221,-0.3080575269710839,-0.3,1,401.0,580.0,1.0,329.0,1,0.6622104195873665,0.0010887424633308396
222,222,0.1211173361214144,0.1,0,447.0,876.0,0.0,407.0,1,0.9692199038586673,0.000359843241080165
223,223,0.06502487130433199,0.1,0,454.0,725.0,1.0,231.0,0,0.7512824478046514,0.003825985895184591
224,224,-0.3391366994456875,-0.3,1,274.0,509.0,1.0,477.0,1,0.16830412191313526,0.0005749114921343401
225,225,0.6749170815232082,0.7,0,439.0,653.0,0.0,228.0,1,0.6441616178607218,0.004277941828672972
226,226,0.21966296148534314,0.2,0,482.0,792.0,0.0,186.0,1,0.018440994444738346,0.0034585889764659505
227,227,-0.15078358584300178,-0.2,1,484.0,977.0,1.0,359.0,1,0.9957734970284509,0.0002446007619534102
228,228,0.8977327318589154,0.9,0,476.0,544.0,0.0,330.0,1,0.1476182080602393,8.42005220439862e-05
229,229,-0.27595335864218984,-0.3,1,381.0,931.0,1.0,418.0,1,0.44929118584236105,0.0001125620573903452
230,230,0.48788645036736367,0.5,0,405.0,972.0,0.0,283.0,1,0.27414175443654265,0.0019027055990510134
231,231,0.3980877163350254,0.4,0,467.0,890.0,0.0,433.0,1,0.10097485355896052,0.0011107293976814392
232,232,-0.11014546347687171,-0.1,1,360.0,709.0,1.0,291.0,1,0.98069248667017,0.0013735919760911814
233,233,-0.3510806960671917,-0.4,1,405.0,994.0,1.0,291.0,1,0.27392003262147,0.00421334281683439
234,234,-0.680914979299224,-0.7,1,370.0,551.0,1.0,199.0,1,0.7479520875837979,0.003881114618109766
235,235,-0.8452367586957676,-0.8,1,485.0,828.0,1.0,17.0,1,0.8059549119184211,0.0018179897263515322
236,236,-0.5930334909818347,-0.6,1,363.0,752.0,1.0,295.0,1,0.44125319513164174,0.0003956262733937205
237,237,0.2997748771515292,0.3,0,479.0,867.0,0.0,204.0,1,0.20484951232767712,0.003800100923001457
238,238,-0.2447381846752068,-0.2,1,373.0,585.0,1.0,302.0,1,0.8326021056265313,0.0018852516545567561
239,239,0.2796535296344298,0.3,0,439.0,683.0,0.0,228.0,1,0.4299511342418332,0.003964184363249249
240,240,0.6460357822914105,0.6,0,345.0,574.0,0.0,151.0,1,0.2957727487588008,0.0026518715692688565
241,241,-0.6111044910049095,-0.6,1,289.0,750.0,1.0,301.0,1,0.7905369248526555,0.001802457676985243
242,242,0.39698801678357487,0.4,0,265.0,831.0,0.0,254.0,1,0.35543261935978854,0.0023629546249306216
243,243,-0.2444039117471839,-0.2,1,479.0,796.0,1.0,395.0,1,0.6682861414671979,0.0008404036850445073
244,244,0.9285555324664492,0.9,0,429.0,705.0,0.0,266.0,1,0.10320271052978003,0.001968655771311728
245,245,0.9469100911674542,0.9,0,490.0,888.0,0.0,142.0,1,0.665902608693189,0.0009755324566981267
246,246,0.7269962394811929,0.7,0,346.0,720.0,0.0,204.0,1,0.5619766308213253,0.003704751488436662
247,247,-0.00872131050955871,-0.0,1,349.0,578.0,0.0,293.0,0,0.9662160600073533,0.002891694586374231
248,248,-0.43069245322052363,-0.4,1,334.0,710.0,1.0,266.0,1,0.2109185053158451,0.004077888860239854
249,249,-0.6951647199392388,-0.7,1,320.0,651.0,1.0,149.0,1,0.8688290183707617,0.003811611618523978
250,250,-0.852210079021124,-0.9,1,259.0,730.0,1.0,221.0,1,0.11640618874734299,0.003361166322722217
251,251,0.8636272280638486,0.9,0,382.0,545.0,0.0,253.0,1,0.14697841632869046,0.0025194671132085108
252,252,-0.17271074445756063,-0.2,1,414.0,696.0,0.0,280.0,0,0.33408260976098814,0.004766765466431905
253,253,0.7402614232363314,0.7,0,472.0,820.0,0.0,208.0,1,0.266260815529485,0.004809984987482397
254,254,-0.8673484402951657,-0.9,1,314.0,592.0,1.0,294.0,1,0.6208336659325175,0.0016965953773022473
255,255,0.16211416957617764,0.2,0,324.0,918.0,0.0,358.0,1,0.8096232661366121,0.0005540635157427237
256,256,-0.021300923759567603,-0.0,1,252.0,700.0,0.0,328.0,0,0.21307380842641832,0.004559393652037453
257,257,0.12488432227921598,0.1,0,484.0,796.0,1.0,590.0,0,0.11056774591039131,0.0018472470890948656
258,258,0.21009477011203082,0.2,0,471.0,970.0,0.0,269.0,1,0.40203883299812826,0.00440202445151808
259,259,0.14486168209567674,0.1,0,387.0,551.0,0.0,402.0,1,0.49454012424767446,0.0020967228265858988
260,260,0.32078160778924114,0.3,0,463.0,730.0,0.0,187.0,1,0.44386743654394845,0.004296378874169721
261,261,0.6125744891149667,0.6,0,374.0,698.0,0.0,228.0,1,0.7293684449801495,0.000817409477433495
262,262,-0.2502401476776721,-0.3,1,333.0,997.0,0.0,370.0,0,0.5442542378082906,0.0013991619486454986
263,263,-0.4302900901989348,-0.4,1,475.0,740.0,1.0,275.0,1,0.11961790623854884,0.0025494666751824345
264,264,-0.677005304535693,-0.7,1,264.0,970.0,1.0,266.0,1,0.04697611478067554,0.0038315473082858277
265,265,0.04667690425096249,0.0,0,363.0,870.0,0.0,277.0,1,0.3539894298723032,0.00289810629588389
266,266,0.712861005110063,0.7,0,293.0,755.0,0.0,272.0,1,0.037932958473200884,0.0030315792080203496
267,267,-0.9652629445342715,-1.0,1,398.0,841.0,1.0,141.0,1,0.2211529321448349,0.003277090013597992
268,268,0.868633239010768,0.9,0,443.0,836.0,0.0,201.0,1,0.12317638308471324,0.0035557291221533526
269,269,0.9846916819518543,1.0,0,428.0,853.0,0.0,259.0,1,0.043285982681673496,0.0030760544768755073
270,270,-0.9453777568769137,-0.9,1,388.0,908.0,1.0,254.0,1,0.2724466178687641,0.0030879997609644435
271,271,0.5121129972691276,0.5,0,358.0,877.0,0.0,445.0,1,0.21001350881250824,0.0006269466570623511
272,272,-0.7103064253141977,-0.7,1,257.0,586.0,1.0,157.0,1,0.6312294537020626,0.004366663262348369
273,273,-0.13664985491469772,-0.1,1,349.0,712.0,1.0,199.0,1,0.8623159630628001,0.004139172552823385
274,274,0.8180286168574054,0.8,0,342.0,838.0,0.0,280.0,1,0.11208040050120549,0.00192876492048424
275,275,-0.8290800739990056,-0.8,1,336.0,991.0,1.0,263.0,1,0.27346686981936996,0.001445769566764078
276,276,0.3271021287215603,0.3,0,417.0,539.0,0.0,474.0,1,0.8825341269508271,9.01586454295611e-06
277,277,0.006344134663258005,0.0,0,301.0,561.0,0.0,248.0,1,0.7462003797927699,0.004413913178752269
278,278,-0.34274916384706056,-0.3,1,282.0,702.0,1.0,196.0,1,0.2087379372465733,0.0038227945889661246
279,279,-0.04656164036419641,-0.0,1,268.0,999.0,0.0,513.0,0,0.5145677839473325,0.0009308718929043574
280,280,0.4542906027428728,0.5,0,473.0,922.0,0.0,385.0,1,0.7499786278894207,0.0012024619949193315
281,281,-0.653040149068971,-0.7,1,309.0,861.0,1.0,130.0,1,0.6049006023267692,0.002397684315905133
282,282,0.9583342772808654,1.0,0,452.0,998.0,0.0,200.0,1,0.4958036824418479,0.004849087328212226
283,283,0.0017039180795968,0.0,0,301.0,809.0,0.0,320.0,1,0.3072785034126182,0.003502904607459145
284,284,0.17441642400904445,0.2,0,348.0,854.0,0.0,388.0,1,0.9985925900594782,0.001240068434966986
285,285,0.7884355114348875,0.8,0,298.0,710.0,0.0,172.0,1,0.9809097359990494,0.004794846940230033
286,286,-0.17537708388060036,-0.2,1,357.0,793.0,1.0,250.0,1,0.5846394078175626,0.003804089407671777
287,287,0.4752439259455583,0.5,0,422.0,949.0,0.0,199.0,1,0.365346631965928,0.003006399358963859
288,288,0.0502692535775362,0.1,0,339.0,703.0,0.0,508.0,1,0.5193645003761476,0.0008435228390630806
289,289,0.7235984967851139,0.7,0,371.0,675.0,0.0,224.0,1,0.11237332243824505,0.001055024296900713
290,290,-0.27109826074970167,-0.3,1,264.0,833.0,1.0,163.0,1,0.8946923566598092,0.0028129921077049
291,291,0.44654007587168953,0.4,0,446.0,906.0,0.0,138.0,1,0.46821402830967584,0.0034465983615780144
292,292,0.8334621625057825,0.8,0,445.0,585.0,0.0,330.0,1,0.22709691553669353,0.0005055864440784718
293,293,0.2693791592132879,0.3,0,412.0,979.0,0.0,219.0,1,0.7926245819087019,0.00473400742118626
294,294,0.08340120797870143,0.1,0,301.0,622.0,1.0,217.0,0,0.9655309747644194,0.003325820435077306
295,295,-0.6946734151123173,-0.7,1,424.0,741.0,1.0,265.0,1,0.6702572288074956,0.002573164664492545
296,296,-0.7833822654119351,-0.8,1,457.0,878.0,1.0,115.0,1,0.7114013392525588,0.004565722959637289
297,297,-0.1208167556297286,-0.1,1,467.0,764.0,1.0,269.0,1,0.7158641448190337,0.001252757057498392
298,298,-0.3184047983097018,-0.3,1,478.0,707.0,1.0,215.0,1,0.7855313712130004,0.004659553123578108
299,299,0.40662282598554156,0.4,0,462.0,737.0,0.0,221.0,1,0.8955151681175014,0.003689700624589412
300,300,-0.0243021971442976,-0.0,1,414.0,545.0,0.0,281.0,0,0.7371112973182435,0.0018261139791935432
301,301,-0.0989421689150698,-0.1,1,352.0,915.0,1.0,243.0,1,0.9064853705877277,0.0032048056153011198
302,302,0.5019485739571206,0.5,0,482.0,715.0,0.0,213.0,1,0.7855913863391654,0.0021718350886065453
303,303,-0.5617571365312504,-0.6,1,438.0,799.0,1.0,163.0,1,0.967455391444435,0.003563046272801967
304,304,-0.6496503155837907,-0.6,1,260.0,569.0,1.0,181.0,1,0.5796971476043188,0.002316564824731775
305,305,-0.47795683829687774,-0.5,1,252.0,556.0,1.0,242.0,1,0.7086549917011956,0.0012065600967978052
306,306,0.30318484569319804,0.3,0,350.0,885.0,0.0,245.0,1,0.37224197513819846,0.004606956883138973
307,307,-0.17339330200401126,-0.2,1,361.0,536.0,0.0,253.0,0,0.8042250945058935,0.0007867039352069671
308,308,-0.881222401715998,-0.9,1,296.0,649.0,1.0,195.0,1,0.9354783813505325,0.0037552924288786304
309,309,-0.1288160159777838,-0.1,1,347.0,702.0,0.0,351.0,0,0.9036865224015002,0.0009792049528574392
310,310,0.8767730137535088,0.9,0,301.0,872.0,0.0,277.0,1,0.587709440370475,0.001413131486648661
311,311,0.44641524968252777,0.4,0,306.0,530.0,0.0,304.0,1,0.33743422176616866,0.0007705781479595714
312,312,-0.003985666218334627,-0.0,1,363.0,721.0,0.0,286.0,0,0.5117164673172973,0.004548521633065527
313,313,0.89891278043763,0.9,0,411.0,648.0,0.0,201.0,1,0.6658645904722951,0.003340678910355758
314,314,-0.8733209124380223,-0.9,1,491.0,939.0,1.0,200.0,1,0.9730374135060624,0.001100912609393056
315,315,-0.17859706699619382,-0.2,1,446.0,739.0,1.0,275.0,1,0.886867133329352,0.0009011072715212676
316,316,0.6728278855156087,0.7,0,254.0,673.0,0.0,193.0,1,0.21811264707877331,0.0041955693657738545
317,317,0.428293772269551,0.4,0,498.0,801.0,0.0,251.0,1,0.333642081447146,0.0015124457022695854
318,318,0.5688612587963973,0.6,0,430.0,871.0,0.0,589.0,1,0.13815858857923924,0.0001548340401535292
319,319,-0.5165887131921314,-0.5,1,298.0,877.0,1.0,195.0,1,0.7815744425815085,0.002569201266108965
320,320,0.4137236148597039,0.4,0,495.0,966.0,0.0,389.0,1,0.22719618967183874,0.001271222761140708
321,321,0.6467001208594423,0.6,0,291.0,690.0,0.0,389.0,1,0.5555283930497128,0.0009087719753751633
322,322,-0.6523005009301917,-0.7,1,309.0,958.0,1.0,153.0,1,0.572946542387302,0.004728562596721226
323,323,0.9732188428804434,1.0,0,311.0,720.0,0.0,209.0,1,0.6098865947532124,0.003638654217247084
324,324,-0.4652926397387649,-0.5,1,440.0,857.0,1.0,323.0,1,0.45085690266287837,0.0006400418578674372
325,325,0.9943270919530629,1.0,0,464.0,579.0,0.0,307.0,1,0.24750084329745692,0.0020953023703887846
326,326,-0.10715440262584575,-0.1,1,408.0,530.0,1.0,392.0,1,0.30664680115027787,0.0022305851577804243
327,327,0.10026255745925816,0.1,0,295.0,523.0,1.0,312.0,0,0.7622952442549757,0.002034156908920137
328,328,-0.09026389925788658,-0.1,1,352.0,718.0,0.0,870.0,0,0.37334381841814424,0.0004189115760988954
329,329,-0.44691829534456806,-0.4,1,339.0,755.0,1.0,366.0,1,0.26889469667377,0.0010731210458131192
330,330,0.6937956681009299,0.7,0,442.0,905.0,0.0,193.0,1,0.28648416645287356,0.004784555834290584
331,331,-0.33964050166949655,-0.3,1,264.0,882.0,1.0,374.0,1,0.2916495317897295,0.0007220573731359226
332,332,-0.34711902019579255,-0.3,1,449.0,541.0,0.0,200.0,0,0.8034162292916713,0.0020104992537323912
333,333,-0.0924606349319681,-0.1,1,476.0,882.0,1.0,192.0,1,0.3281292140222647,0.00448203547940714
334,334,-0.6065748139157068,-0.6,1,484.0,966.0,1.0,270.0,1,0.0791744632196425,0.004841175453708077
335,335,0.07271562555884414,0.1,0,286.0,702.0,0.0,232.0,1,0.7404287187099227,0.0027998290207861937
336,336,0.04444955453817978,0.0,0,418.0,530.0,1.0,532.0,0,0.059140208086910784,0.002740405504256969
337,337,-0.9413942973098108,-0.9,1,407.0,924.0,1.0,169.0,1,0.9246840580728123,0.0017339539540231746
338,338,0.5375760510080838,0.5,0,264.0,759.0,0.0,417.0,1,0.5685870680579115,0.0014847812467894805
339,339,-0.037174796517322584,-0.0,1,300.0,897.0,1.0,573.0,1,0.4110442225447589,2.1151999547407986e-05
340,340,-0.94659191665061,-0.9,1,377.0,522.0,1.0,221.0,1,0.09642417328666186,0.0030532797524643017
341,341,0.06522322406908398,0.1,0,291.0,961.0,0.0,718.0,1,0.747274042260423,5.370472549288241e-05
342,342,0.713266442106258,0.7,0,377.0,742.0,0.0,171.0,1,0.8768864000474262,0.0005329643775679332
343,343,0.0791866682220348,0.1,0,376.0,890.0,0.0,184.0,1,0.8973465454818492,0.0032520658632238294
344,344,0.6104149891625845,0.6,0,460.0,676.0,0.0,414.0,1,0.7052287057753858,0.0004529848731232189
345,345,-0.7029836229916795,-0.7,1,259.0,844.0,1.0,227.0,1,0.33566449632165185,0.001997011656165875
346,346,0.6952182157711506,0.7,0,307.0,962.0,0.0,201.0,1,0.6020650417056085,0.003652736825670759
347,347,0.3103533225641988,0.3,0,318.0,580.0,0.0,152.0,1,0.8455062663083855,0.0028513820511456866
348,348,-0.42483051691931206,-0.4,1,409.0,949.0,1.0,322.0,1,0.4387287867033409,0.0017756999975029897
349,349,0.22501539571810492,0.2,0,260.0,969.0,0.0,821.0,1,0.2119738109672683,0.0004871330946145497
350,350,0.07200137134881723,0.1,0,376.0,657.0,1.0,337.0,0,0.5071986288896942,0.0027055871467293103
351,351,-0.7962807362017739,-0.8,1,330.0,648.0,1.0,142.0,1,0.40511326089850586,0.0029692950295403127
352,352,-0.06931288327518748,-0.1,1,313.0,759.0,1.0,298.0,1,0.7923474705252073,0.003268188834355458
353,353,-0.6307223535208242,-0.6,1,427.0,876.0,1.0,497.0,1,0.44948366063140555,6.367898904235004e-05
354,354,0.4651193606414419,0.5,0,485.0,577.0,0.0,258.0,1,0.6441609348744601,0.0032698860805225544
355,355,-0.6039529035120219,-0.6,1,427.0,526.0,1.0,207.0,1,0.3241930666410867,0.003541490244131565
356,356,0.18394697726193332,0.2,0,401.0,544.0,0.0,245.0,1,0.6149716017308782,0.002710203313543824
357,357,0.37084878278183075,0.4,0,471.0,839.0,0.0,270.0,1,0.5670886748738608,0.00248319515848371
358,358,-0.27213320492902615,-0.3,1,407.0,873.0,1.0,360.0,1,0.42992153180988035,5.348739997470542e-06
359,359,0.16529457294966532,0.2,0,461.0,613.0,0.0,366.0,1,0.6811080706505724,0.0036961439293854642
360,360,0.3161748972961116,0.3,0,499.0,743.0,0.0,288.0,1,0.0031702845936880664,0.004596032059882173
361,361,-0.44885565436224195,-0.4,1,398.0,698.0,1.0,194.0,1,0.041123192770761596,0.003527166178767116
362,362,-0.7886524550629357,-0.8,1,361.0,603.0,1.0,236.0,1,0.7201352194273832,0.0005922621027659475
363,363,0.5047386177417781,0.5,0,437.0,889.0,0.0,314.0,1,0.664905246026702,0.0020702724973556334
364,364,-0.004994942751934683,-0.0,1,436.0,765.0,0.0,279.0,0,0.0648849861329669,0.0037593185288570027
365,365,-0.9493160616520524,-0.9,1,423.0,587.0,1.0,180.0,1,0.3041828881394558,0.0022035051630415045
366,366,0.23678241815179768,0.2,0,272.0,898.0,0.0,260.0,1,0.5285762558605966,0.0011382758421683036
367,367,0.8337961262846125,0.8,0,316.0,831.0,0.0,333.0,1,0.7084981600540741,8.624190149550626e-05
368,368,-0.999344119052332,-1.0,1,479.0,547.0,1.0,174.0,1,0.49364176470084764,0.004457868420087627
369,369,0.23007062506218934,0.2,0,490.0,963.0,0.0,297.0,1,0.28943359158826687,0.003708051222319172
370,370,-0.7842199608273668,-0.8,1,302.0,799.0,1.0,249.0,1,0.1572894616465511,0.0017440963466899102
371,371,-0.7186650467726383,-0.7,1,453.0,758.0,1.0,189.0,1,0.8429107895761098,0.002155181516043428
372,372,0.6486225305940352,0.6,0,383.0,523.0,0.0,264.0,1,0.017306469427936122,0.0016079613657063352
373,373,-0.26868186380718506,-0.3,1,353.0,772.0,1.0,305.0,1,0.31756428328016595,0.004743954367968343
374,374,-0.8233363916301426,-0.8,1,496.0,733.0,1.0,191.0,1,0.001863021128078457,0.0044747380731619615
375,375,0.7792493588173515,0.8,0,468.0,633.0,0.0,119.0,1,0.7424487630027402,0.004907439368039961
376,376,0.8896036759149579,0.9,0,469.0,874.0,0.0,147.0,1,0.6393616967472087,0.0025133559276715707
377,377,0.4633180329153541,0.5,0,479.0,945.0,0.0,256.0,1,0.6428514699382933,0.0001472863732551155
378,378,0.4914160249242283,0.5,0,473.0,869.0,0.0,198.0,1,0.3112571795347998,0.004850946700029074
379,379,-0.5037490185013622,-0.5,1,357.0,917.0,1.0,236.0,1,0.503741476449137,0.004663720294929311
380,380,-0.7473079100046491,-0.7,1,397.0,551.0,1.0,152.0,1,0.6983388770537504,0.00241907185701079
381,381,-0.9329001022238415,-0.9,1,323.0,548.0,1.0,159.0,1,0.7688203254331603,0.00426120657421672
382,382,0.20242469703940968,0.2,0,311.0,926.0,0.0,303.0,1,0.7981877410190454,0.0013274081704774093
383,383,-0.4103378743085584,-0.4,1,466.0,900.0,1.0,224.0,1,0.5762438382269586,0.003027897777147244
384,384,-0.31117996021119243,-0.3,1,410.0,647.0,1.0,433.0,1,0.07132748488631957,0.0006409882667009243
385,385,0.44079744771388785,0.4,0,284.0,955.0,0.0,281.0,1,0.030605164197288315,0.004127557096356053
386,386,0.9890325282560297,1.0,0,410.0,863.0,0.0,227.0,1,0.24221883895927132,0.0011619342707903397
387,387,-0.6963291708828754,-0.7,1,431.0,532.0,1.0,187.0,1,0.7026351579543058,0.00021846083359808755
388,388,0.6075167893959297,0.6,0,351.0,681.0,0.0,148.0,1,0.9106902427234992,0.003264022265447828
389,389,-0.593765722674694,-0.6,1,366.0,790.0,1.0,324.0,1,0.030868952393051652,0.003411707204410647
390,390,0.6623645902218982,0.7,0,488.0,849.0,0.0,253.0,1,0.6061314055279533,0.0011915558547487665
391,391,-0.0012522548372493336,-0.0,1,332.0,688.0,0.0,250.0,0,0.24664262644266788,0.004484771988116807
392,392,0.7276374823177889,0.7,0,389.0,851.0,0.0,220.0,1,0.02300381238352689,0.003528128470047794
393,393,-0.2486680330774722,-0.2,1,374.0,687.0,0.0,319.0,0,0.6221759598203281,0.00356742471547004
394,394,-0.9394927557369015,-0.9,1,478.0,975.0,1.0,207.0,1,0.18562953068224475,0.0012472179043589938
395,395,-0.20762605359023034,-0.2,1,464.0,556.0,1.0,300.0,1,0.46146284849935326,0.0011986624858407102
396,396,0.4653577568775846,0.5,0,330.0,875.0,0.0,405.0,1,0.07642384113941958,0.0028588795228649926
397,397,0.36817081557194475,0.4,0,285.0,786.0,0.0,259.0,1,0.25233593940338594,0.003780890821469589
398,398,0.7588469220504352,0.8,0,410.0,519.0,0.0,241.0,1,0.1708582362533957,0.0035201273421415808
399,399,-0.009465651671752617,-0.0,1,274.0,951.0,0.0,445.0,0,0.6194999798095332,0.0028684914520255116
400,400,0.7959245833056543,0.8,0,404.0,840.0,0.0,386.0,1,0.06582492223204794,0.0005376357115970754
401,401,-0.5982375531730708,-0.6,1,433.0,588.0,1.0,229.0,1,0.21489073014680626,0.003649252286246434
402,402,-0.3206336004694039,-0.3,1,376.0,967.0,1.0,237.0,1,0.1739363092676911,0.0031814400632587253
403,403,-0.30552335078563564,-0.3,1,494.0,504.0,1.0,212.0,1,0.5532142952085812,0.003397259339726916
404,404,0.5875821412161282,0.6,0,343.0,989.0,0.0,148.0,1,0.5749524888173871,0.0015519220600617068
405,405,0.5883098634423312,0.6,0,264.0,928.0,0.0,428.0,1,0.13709016589343903,0.0009357056975881628
406,406,0.8500785309745271,0.9,0,257.0,522.0,0.0,101.0,1,0.44306468117084896,0.0020229617033549058
407,407,0.4448058280880065,0.4,0,407.0,570.0,0.0,333.0,1,0.6550707811690061,0.0014214240665077372
408,408,0.9255416968610972,0.9,0,484.0,967.0,0.0,209.0,1,0.709837464134877,0.0001259507738683846
409,409,0.9636813750357804,1.0,0,308.0,897.0,0.0,195.0,1,0.18528189143481455,0.0035707877000910686
410,410,0.6122525421519391,0.6,0,488.0,903.0,0.0,289.0,1,0.47913445357437723,0.002786132927191009
411,411,-0.5200288158495152,-0.5,1,442.0,538.0,1.0,200.0,1,0.1956660936943876,0.004622194785901839
412,412,0.8605391898747503,0.9,0,311.0,809.0,0.0,230.0,1,0.9717040031086005,0.0012402248877841444
413,413,0.6957807239291991,0.7,0,484.0,649.0,0.0,247.0,1,0.7508242092663552,0.0022268845443460432
414,414,0.24493495699896206,0.2,0,422.0,971.0,0.0,167.0,1,0.9199940794852648,0.0028269567416388287
415,415,0.030241802597178236,0.0,0,329.0,519.0,1.0,242.0,0,0.8965554972149522,0.0006566537340279361
416,416,-0.103959047592727,-0.1,1,254.0,811.0,0.0,285.0,0,0.2658335819725738,0.002127031431406492
417,417,-0.6692365242121658,-0.7,1,341.0,669.0,1.0,170.0,1,0.2399008595915496,0.003167374061662325
418,418,0.8032639454690327,0.8,0,403.0,883.0,0.0,194.0,1,0.28179320239387884,0.0025147464892599264
419,419,-0.0009507160534898418,-0.0,1,316.0,585.0,0.0,249.0,0,0.9644344867690056,0.0011105896102188563
420,420,0.7087655314663281,0.7,0,260.0,843.0,0.0,147.0,1,0.4881289842392509,0.0047522524832411634
421,421,-0.15532879734694638,-0.2,1,315.0,650.0,1.0,345.0,1,0.18944301544123776,0.0012997996001173956
422,422,-0.15307620844721748,-0.2,1,391.0,678.0,0.0,431.0,0,0.4851172506945234,0.004107667935161345
423,423,-0.4774695113555594,-0.5,1,348.0,974.0,1.0,198.0,1,0.21942092978192707,0.003529622633903624
424,424,0.9703563854381225,1.0,0,387.0,670.0,0.0,153.0,1,0.8830953139913386,0.002269217161159466
425,425,-0.602369698045836,-0.6,1,407.0,918.0,1.0,225.0,1,0.2506074173229461,0.004270899165455735
426,426,0.1716151088006428,0.2,0,290.0,904.0,0.0,526.0,1,0.1500125211820299,0.0001722714403982284
427,427,-0.9875527829078328,-1.0,1,377.0,997.0,1.0,136.0,1,0.3637328902059256,0.0012770288731759737
428,428,0.3960788805177775,0.4,0,278.0,938.0,0.0,234.0,1,0.04390307073584532,0.004980970920299235
429,429,0.8218886989317156,0.8,0,287.0,645.0,0.0,198.0,1,0.2595729366846302,0.004754658591764224
430,430,0.8947275332447877,0.9,0,319.0,821.0,0.0,150.0,1,0.7536270656341284,0.0033561171769173606
431,431,-0.06440131301935259,-0.1,1,297.0,709.0,1.0,264.0,1,0.5899267248134327,0.002642166396304601
432,432,-0.6645809781225394,-0.7,1,490.0,838.0,1.0,212.0,1,0.05114749229429216,0.0022717716738077645
433,433,-0.17827729974152762,-0.2,1,297.0,680.0,1.0,253.0,1,0.7494289113069403,0.0021716531211008676
434,434,0.29458736720997925,0.3,0,481.0,959.0,0.0,610.0,1,0.10222039423061136,0.0002488706561749815
435,435,-0.7903905599165597,-0.8,1,433.0,703.0,1.0,334.0,1,0.36765932395878587,1.767193273710499e-05
436,436,-0.7520754286439395,-0.8,1,425.0,907.0,1.0,308.0,1,0.061857111876942206,0.0020941446268080512
437,437,0.8879231156824245,0.9,0,387.0,688.0,0.0,255.0,1,0.14644889046515253,0.004842349439170597
438,438,-0.2435285146473931,-0.2,1,419.0,815.0,1.0,486.0,1,0.2746347909522324,0.002414038388569723
439,439,-0.12212048931369845,-0.1,1,322.0,593.0,1.0,225.0,1,0.5979047974913414,0.003026390451302111
440,440,0.09174872553696756,0.1,0,470.0,614.0,0.0,166.0,1,0.6915404433772218,0.003946397937382521
441,441,-0.6369969210093687,-0.6,1,263.0,868.0,1.0,189.0,1,0.7765828824291109,0.004004915670233075
442,442,-0.9536787105927582,-1.0,1,424.0,822.0,1.0,214.0,1,0.5321515399859765,0.003244415166823103
443,443,0.26890859770648756,0.3,0,377.0,837.0,0.0,576.0,1,0.12223612397300598,0.000814573083661988
444,444,-0.7736502585781195,-0.8,1,330.0,552.0,1.0,188.0,1,0.7585593442320162,0.0034995568752346855
445,445,0.602330373123015,0.6,0,415.0,927.0,0.0,318.0,1,0.21470418431605454,0.001307281307168285
446,446,0.5261678483420704,0.5,0,364.0,790.0,0.0,216.0,1,0.594573035944873,0.0042748936415765056
447,447,0.3563856156696812,0.4,0,260.0,605.0,0.0,335.0,1,0.4818220208464,0.0021514962738331685
448,448,-0.05290510020321837,-0.1,1,381.0,877.0,0.0,262.0,0,0.5264020665354059,0.0038616782439599086
449,449,0.8911822350805156,0.9,0,414.0,979.0,0.0,537.0,1,0.016107808739634133,0.0001472923472726323
450,450,0.2728269802157346,0.3,0,354.0,716.0,0.0,170.0,1,0.9621761858545506,0.0035972915023613715
451,451,-0.32090278093957947,-0.3,1,336.0,975.0,1.0,249.0,1,0.41223286069651144,0.0046138356829092736
452,452,0.285842977801795,0.3,0,368.0,520.0,0.0,342.0,1,0.3066004334356558,0.002127876830840681
453,453,0.46300632319512247,0.5,0,479.0,523.0,0.0,248.0,1,0.549818136972697,0.0006739309166208269
454,454,-0.9857600489934799,-1.0,1,466.0,957.0,1.0,137.0,1,0.6985555199395264,0.0010609291268520705
455,455,-0.3058699914577838,-0.3,1,467.0,682.0,1.0,271.0,1,0.9979630594271367,0.0006319198701304712
456,456,-0.7876015771529628,-0.8,1,318.0,566.0,1.0,246.0,1,0.12453649367834752,0.0010437576465990423
457,457,0.8356692221318063,0.8,0,426.0,543.0,0.0,231.0,1,0.7381713973548644,0.0007657833670412967
458,458,-0.8153258236362928,-0.8,1,383.0,986.0,1.0,221.0,1,0.23194136160490997,0.0020902134118525005
459,459,0.5661256363440472,0.6,0,486.0,828.0,0.0,276.0,1,0.05070180658329948,0.001505501951940832
460,460,-0.6139026011375206,-0.6,1,445.0,605.0,1.0,160.0,1,0.7814389748436269,0.0036623905573785575
461,461,0.32065633991482434,0.3,0,370.0,763.0,0.0,497.0,1,0.16356929580886959,0.001463910653995394
462,462,-0.4425801540446135,-0.4,1,349.0,666.0,1.0,145.0,1,0.4549172240449787,0.003727562616354527
463,463,-0.15369736003173817,-0.2,1,494.0,546.0,1.0,230.0,1,0.7580883269863917,0.003003991164388197
464,464,-0.7762892321737422,-0.8,1,463.0,641.0,1.0,106.0,1,0.7398129207804514,0.003460951896450495
465,465,-0.3932527077512271,-0.4,1,498.0,646.0,1.0,126.0,1,0.5087856390099115,0.004524742417111641
466,466,0.9848656655053343,1.0,0,348.0,788.0,0.0,174.0,1,0.8110164409137466,0.0026463971445557922
467,467,0.5025373195764937,0.5,0,497.0,840.0,0.0,213.0,1,0.4829245463594446,0.002855043531162716
468,468,0.7533297336375613,0.8,0,357.0,543.0,0.0,200.0,1,0.8316268388620605,0.001561046958097675
469,469,-0.7757923052093465,-0.8,1,436.0,700.0,1.0,224.0,1,0.21341198887133084,0.0040012347590358795
470,470,0.6716660014506806,0.7,0,372.0,887.0,0.0,201.0,1,0.9416965924064727,0.002317385577140474
471,471,0.7882052794387973,0.8,0,455.0,810.0,0.0,155.0,1,0.6092349036328076,0.0038226887991712815
472,472,-0.4737205888593292,-0.5,1,446.0,791.0,1.0,223.0,1,0.9180616938756991,0.003680061380140577
473,473,0.6118388532892185,0.6,0,286.0,897.0,0.0,917.0,1,0.4241501479839547,3.4229195860482896e-05
474,474,0.4212047292131922,0.4,0,268.0,852.0,0.0,160.0,1,0.99520766898031,0.0010589287984896017
475,475,0.6725936497487117,0.7,0,484.0,837.0,0.0,149.0,1,0.8875741816947395,0.00275164973957135
476,476,-0.4221468055206832,-0.4,1,316.0,627.0,1.0,237.0,1,0.4025882846565373,0.000983220971647732
477,477,-0.47305078160328673,-0.5,1,290.0,725.0,1.0,165.0,1,0.6941092803541984,0.0021684401029188776
478,478,0.23539624201740295,0.2,0,291.0,739.0,0.0,240.0,1,0.17113602091886915,0.003837281206346659
479,479,0.46394963069259076,0.5,0,340.0,730.0,0.0,340.0,1,0.7799386431841355,0.0004894101013457624
480,480,-0.7734477287502695,-0.8,1,367.0,539.0,1.0,324.0,1,0.21864835027306395,0.0005562105490406854
481,481,0.3689772149574353,0.4,0,476.0,791.0,0.0,93.0,1,0.7955361108586214,0.0046847179304783364
482,482,-0.2865673728754883,-0.3,1,457.0,508.0,1.0,265.0,1,0.1476831304305839,0.003416020288376082
483,483,0.339550641782145,0.3,0,259.0,774.0,0.0,277.0,1,0.32099228569474625,0.002397887327178402
484,484,-0.4433002739808731,-0.4,1,295.0,598.0,1.0,237.0,1,0.9273172827225448,0.001251871499736112
485,485,-0.36548180457040447,-0.4,1,472.0,554.0,1.0,234.0,1,0.3253069756872877,0.0028617963485458144
486,486,-0.973509998461249,-1.0,1,468.0,805.0,1.0,137.0,1,0.5271994633768499,0.003106280919706346
487,487,0.789349960260457,0.8,0,464.0,712.0,0.0,294.0,1,0.5527273603301359,0.0024667682764988766
488,488,0.21285094890202338,0.2,0,325.0,635.0,0.0,210.0,1,0.795494858901678,0.0015993456534257855
489,489,0.556726786893597,0.6,0,300.0,581.0,0.0,219.0,1,0.7519617127145454,0.0034265056024077095
490,490,-0.4899226117946285,-0.5,1,374.0,844.0,1.0,122.0,1,0.6369525137155985,0.004707165349118808
491,491,-0.8079786730582583,-0.8,1,319.0,703.0,1.0,178.0,1,0.4011369694846951,0.003961156947279883
492,492,0.8680606267330206,0.9,0,477.0,681.0,0.0,122.0,1,0.9134320638782842,0.004211321011632734
493,493,0.17670211456178686,0.2,0,446.0,545.0,1.0,279.0,0,0.9923061965364712,0.003494020002893289
494,494,0.9410485046710879,0.9,0,400.0,788.0,0.0,182.0,1,0.6241859784490915,0.002195877767029796
495,495,-0.8744704451687737,-0.9,1,398.0,608.0,1.0,184.0,1,0.1379699592379502,0.000883835623542536
496,496,0.0834549986171631,0.1,0,274.0,728.0,1.0,228.0,0,0.6662780876572022,0.004004597359769868
497,497,-0.8090309455125773,-0.8,1,466.0,993.0,1.0,111.0,1,0.43116690394284574,0.002125957618218868
498,498,0.3505646586277822,0.4,0,459.0,678.0,0.0,513.0,1,0.8707701957995182,0.00032288545615509923
499,499,-0.8091781188581002,-0.8,1,468.0,716.0,1.0,286.0,1,0.07771132476576481,0.0015350389773314305
500,500,-0.2892305570830622,-0.3,1,438.0,610.0,1.0,142.0,1,0.8975875808729485,0.004200744206990749
501,501,-0.6551359984676919,-0.7,1,479.0,966.0,1.0,205.0,1,0.7323915596337911,0.0036471841545191565
502,502,-0.03322285135378045,-0.0,1,448.0,592.0,0.0,470.0,0,0.1828475097454978,0.0030007594077167115
503,503,-0.8997902378724885,-0.9,1,374.0,658.0,1.0,258.0,1,0.007546517078762749,0.004384053701857831
504,504,-0.476381113555687,-0.5,1,294.0,886.0,1.0,170.0,1,0.6802140084176057,0.0018794823085927282
505,505,0.8703175759296649,0.9,0,494.0,963.0,0.0,193.0,1,0.8028037176076676,0.0020260480756050686
506,506,0.283221581473722,0.3,0,499.0,860.0,0.0,271.0,1,0.34516874507497863,0.004899713751904748
507,507,0.8169816169535049,0.8,0,339.0,659.0,0.0,232.0,1,0.9961127037757639,0.0013380234467580377
508,508,-0.6958025239572583,-0.7,1,396.0,985.0,1.0,299.0,1,0.40709080089910776,0.000984520911732325
509,509,0.08191036187964351,0.1,0,428.0,668.0,0.0,314.0,1,0.47494079714445614,0.0035698988622631135
510,510,-0.6327100299795538,-0.6,1,364.0,862.0,1.0,324.0,1,0.12809849831539355,0.0018001980084724589
511,511,0.49416257467881364,0.5,0,365.0,629.0,0.0,346.0,1,0.1349062616751011,0.0010513174433443519
512,512,-0.28160184148241574,-0.3,1,381.0,919.0,0.0,270.0,0,0.4575074126877702,0.004828360893777532
513,513,-0.8317949685710513,-0.8,1,256.0,718.0,1.0,236.0,1,0.370216178589888,0.0019208425308031036
514,514,0.4330156794297808,0.4,0,422.0,794.0,0.0,284.0,1,0.15240831411805122,0.003825412833559423
515,515,0.32587807847578776,0.3,0,298.0,976.0,0.0,266.0,1,0.6600334095485858,0.003700857883470189
516,516,0.30758059969713036,0.3,0,426.0,672.0,0.0,162.0,1,0.8369647455943593,0.0042080979412710655
517,517,0.06930845456996226,0.1,0,340.0,586.0,0.0,344.0,1,0.24401443296472602,0.0030196999975943307
518,518,0.4418836490602609,0.4,0,294.0,561.0,0.0,235.0,1,0.0058156363558025115,0.004772372659964706
519,519,0.23032675203248276,0.2,0,280.0,960.0,0.0,190.0,1,0.1981561573781878,0.003787810262152825
520,520,0.000621577569425158,0.0,0,401.0,975.0,0.0,264.0,1,0.5716661477438528,0.0032675500690711548
521,521,-0.7029877933586597,-0.7,1,307.0,700.0,1.0,283.0,1,0.4399345497967071,0.0029034644507817398
522,522,0.8703211592032225,0.9,0,320.0,955.0,0.0,335.0,1,0.5091999751629044,0.0012729123640361684
523,523,0.3447198771647215,0.3,0,253.0,869.0,0.0,208.0,1,0.23681017719309894,0.0031676115090198114
524,524,0.7112318290026955,0.7,0,290.0,878.0,0.0,312.0,1,0.7064399933156308,0.0006383001649568193
525,525,-0.6426488866830653,-0.6,1,469.0,647.0,1.0,234.0,1,0.651764170232296,0.00016283416504249472
526,526,0.5110528106438121,0.5,0,309.0,787.0,0.0,184.0,1,0.37364898953399617,0.003914917535384148
527,527,0.998343233736078,1.0,0,348.0,796.0,0.0,186.0,1,0.9995343633741581,0.0009143785912403557
528,528,-0.4255677571805012,-0.4,1,282.0,706.0,1.0,422.0,1,0.06966531690351085,0.0009238596968290408
529,529,0.3840844207056071,0.4,0,378.0,893.0,0.0,239.0,1,0.1972073158873755,0.004764443881726453
530,530,0.6840362555554487,0.7,0,333.0,659.0,0.0,468.0,1,0.6957660091441877,0.0005710972062394914
531,531,0.34273879832620713,0.3,0,490.0,968.0,0.0,492.0,1,0.6311519723039306,0.0016627845757920918
532,532,0.35893031157598654,0.4,0,404.0,500.0,0.0,146.0,1,0.7671685500413808,0.004324972184709495
533,533,0.805772703856116,0.8,0,441.0,864.0,0.0,165.0,1,0.33291830722200644,0.0038265991502337603
534,534,-0.6999795708400633,-0.7,1,281.0,680.0,1.0,129.0,1,0.6650757970925869,0.004674676687112275
535,535,-0.09309302996314939,-0.1,1,288.0,734.0,1.0,218.0,1,0.13357082726583458,0.002080143676554958
536,536,0.9481671026087122,0.9,0,342.0,822.0,0.0,186.0,1,0.10856664249384629,0.0017204808307613262
537,537,0.6045248249729946,0.6,0,382.0,619.0,0.0,329.0,1,0.09616336778333123,0.0021928072511741697
538,538,-0.8747231493640049,-0.9,1,494.0,551.0,1.0,135.0,1,0.8261575256577861,0.0013351264759843796
539,539,0.018025134365210693,0.0,0,277.0,763.0,0.0,250.0,1,0.4666028880996088,0.004798245092621978
540,540,0.24702989794028074,0.2,0,444.0,657.0,0.0,309.0,1,0.16790752692445177,0.003849490475682344
541,541,0.6038928207653183,0.6,0,298.0,929.0,0.0,203.0,1,0.8215419363930575,0.0014546891783294297
542,542,-0.7425373776077056,-0.7,1,272.0,845.0,1.0,313.0,1,0.578474501372816,0.0005042218110347723
543,543,0.545363943631562,0.5,0,317.0,792.0,0.0,311.0,1,0.10897398213228515,0.003192077423038591
544,544,0.02850697853192008,0.0,0,312.0,628.0,0.0,260.0,1,0.519911363873378,0.0027255157878104666
545,545,0.8343249335566629,0.8,0,316.0,637.0,0.0,237.0,1,0.294776881669795,0.0012877511508450708
546,546,0.8008618457742978,0.8,0,499.0,523.0,0.0,168.0,1,0.95879067359608,0.003931597176675281
547,547,0.7093292406619858,0.7,0,474.0,700.0,0.0,186.0,1,0.12604537037879615,0.002974345233308707
548,548,-0.7808458068648112,-0.8,1,429.0,597.0,1.0,94.0,1,0.8720184174811585,0.0020829391214971923
549,549,0.37053013752908837,0.4,0,385.0,672.0,0.0,213.0,1,0.49058931198086086,0.00420741440915012
550,550,0.7990326282889817,0.8,0,268.0,948.0,0.0,124.0,1,0.8682129953611895,0.00402221475464332
551,551,-0.5814498645297512,-0.6,1,278.0,608.0,1.0,194.0,1,0.9029249822949377,0.002277766175951435
552,552,0.5946457776459637,0.6,0,332.0,815.0,0.0,313.0,1,0.2586438088664065,0.002716296425100725
553,553,0.07809538400178107,0.1,0,288.0,753.0,0.0,389.0,1,0.01069653394981529,0.0017587381825077892
554,554,-0.8018109448562551,-0.8,1,294.0,743.0,1.0,203.0,1,0.7830431105939709,0.0008440734484215917
555,555,-0.28881931502240255,-0.3,1,346.0,779.0,0.0,325.0,0,0.9826607640971602,1.4083632754123832e-05
556,556,0.9162484286706307,0.9,0,465.0,968.0,0.0,157.0,1,0.25098366859587595,0.00457229905985629
557,557,-0.7989233933765998,-0.8,1,262.0,559.0,1.0,249.0,1,0.719439118382659,0.0006233488787423092
558,558,-0.8427855530503825,-0.8,1,448.0,837.0,1.0,185.0,1,0.8978502466360967,0.0013176666061800913
559,559,0.29114476533538935,0.3,0,308.0,644.0,0.0,568.0,1,0.17210998161629576,0.0014603734296420195
560,560,-0.2517817255734527,-0.3,1,312.0,645.0,1.0,283.0,1,0.7374919079988285,0.0035259437617407336
561,561,-0.7960216057475513,-0.8,1,390.0,622.0,1.0,228.0,1,0.5702304511563169,0.003330496084836633
562,562,0.09355784538549816,0.1,0,403.0,611.0,0.0,206.0,1,0.9308843717644109,0.003273404791845354
563,563,0.7275340674471293,0.7,0,408.0,954.0,0.0,158.0,1,0.7004600915810634,0.004491520773420023
564,564,0.8732562346630255,0.9,0,331.0,607.0,0.0,232.0,1,0.21344500086173113,0.0036492995627306402
565,565,0.9392836672262503,0.9,0,384.0,612.0,0.0,244.0,1,0.28053660790323076,0.004192860551486829
566,566,-0.8216852868723061,-0.8,1,385.0,747.0,1.0,288.0,1,0.553916955030502,0.0020005267546604755
567,567,0.594385043350049,0.6,0,375.0,581.0,0.0,224.0,1,0.9484659410243546,0.002694978250576066
568,568,-0.6421585347333485,-0.6,1,445.0,789.0,1.0,506.0,1,0.3208043732483804,0.00031692503550016516
569,569,0.20160606490048272,0.2,0,280.0,554.0,0.0,376.0,1,0.567123929602428,0.0011360377125489236
570,570,0.868835677197034,0.9,0,270.0,577.0,0.0,153.0,1,0.7456861501940107,0.002104131038402374
571,571,-0.013703866180817093,-0.0,1,285.0,794.0,0.0,221.0,0,0.8647846194121487,0.003098250224430471
572,572,0.4916296824949158,0.5,0,496.0,708.0,0.0,246.0,1,0.06109031624346384,0.0018462115754991509
573,573,0.5762127516297251,0.6,0,470.0,724.0,0.0,366.0,1,0.42729589881217944,0.0013624121202108403
574,574,0.6635775667981192,0.7,0,293.0,947.0,0.0,170.0,1,0.9290390568578705,0.0019374989779473628
575,575,0.9638353050553163,1.0,0,322.0,798.0,0.0,170.0,1,0.6883739159702948,0.003311712105357483
576,576,-0.44719282145828276,-0.4,1,490.0,561.0,1.0,159.0,1,0.7418854842902722,0.0042232995910690295
577,577,0.17531568042838352,0.2,0,400.0,996.0,1.0,254.0,0,0.93022509331864,0.0025959955717168304
578,578,0.36793894943932814,0.4,0,324.0,657.0,0.0,169.0,1,0.7347206091504812,0.0042495229973014996
579,579,-0.4512719679330901,-0.5,1,370.0,877.0,1.0,303.0,1,0.7781101942595455,0.0026010212765385605
580,580,0.7036985645008478,0.7,0,406.0,980.0,0.0,214.0,1,0.9032850217602164,0.0012288726031489362
581,581,-0.0456197472743598,-0.0,1,380.0,853.0,1.0,377.0,1,0.15139760968926208,0.0011729146786085293
582,582,-0.8647881494985628,-0.9,1,298.0,829.0,1.0,213.0,1,0.6964074840040156,0.00011644077108843575
583,583,0.44165521883945846,0.4,0,425.0,637.0,0.0,238.0,1,0.08200881549893213,0.0049830893287100605
584,584,-0.9806870229273856,-1.0,1,320.0,808.0,1.0,172.0,1,0.8525689140963539,0.004087028464167962
585,585,0.28494893165035995,0.3,0,381.0,972.0,0.0,277.0,1,0.011228707437994423,0.004181858263625478
586,586,0.35047235675947985,0.4,0,430.0,592.0,0.0,398.0,1,0.31592326428740813,0.0021192905451328115
587,587,0.049484309834233686,0.0,0,418.0,881.0,0.0,141.0,1,0.8600310345389797,0.0030919588278534955
588,588,0.9221110371269396,0.9,0,428.0,934.0,0.0,118.0,1,0.33816698450055527,0.003303733996927143
589,589,0.32376957710443466,0.3,0,261.0,804.0,0.0,315.0,1,0.5941430623723104,0.00013198441021358142
590,590,-0.342301693908599,-0.3,1,306.0,572.0,1.0,252.0,1,0.029246588980563426,0.004969843768950415
591,591,-0.9451454935300299,-0.9,1,320.0,677.0,1.0,233.0,1,0.659185942187943,0.0010427086360465232
592,592,0.30720344779693676,0.3,0,338.0,830.0,0.0,182.0,1,0.09238925466626569,0.004141568408103786
593,593,0.942956586432204,0.9,0,259.0,740.0,0.0,201.0,1,0.6582754066393597,0.002469563307504405
594,594,-0.7305537383054461,-0.7,1,368.0,536.0,1.0,246.0,1,0.25288258175291767,0.0016825008999221637
595,595,-0.5447504667350684,-0.5,1,343.0,506.0,1.0,311.0,1,0.07296367172350482,0.0006268601495586474
596,596,0.1441122316395611,0.1,0,304.0,791.0,1.0,175.0,0,0.5256792665705918,0.0047622535170389595
597,597,-0.6699444692697281,-0.7,1,313.0,952.0,1.0,175.0,1,0.6232019359177294,0.004876004158628764
598,598,0.6668467796582223,0.7,0,405.0,751.0,0.0,434.0,1,0.0651793349410229,0.0008877680670002547
599,599,-0.005783941987451913,-0.0,1,499.0,684.0,0.0,227.0,0,0.1259534368884233,0.004111442475433131
600,600,-0.2601824364158425,-0.3,1,292.0,537.0,1.0,131.0,1,0.9103671497934155,0.003093800878913342
601,601,0.3508167076088833,0.4,0,297.0,985.0,0.0,378.0,1,0.016038172192857636,0.0022955015490414843
602,602,-0.8790401151612355,-0.9,1,279.0,802.0,1.0,169.0,1,0.9069410285038864,0.00024378913179375574
603,603,0.9727983238147901,1.0,0,497.0,540.0,0.0,313.0,1,0.30077456555387894,0.0013905790430356858
604,604,0.22254406421108164,0.2,0,268.0,539.0,0.0,253.0,1,0.3616349980664749,0.0006598889876580371
605,605,-0.9704187139484339,-1.0,1,269.0,654.0,1.0,147.0,1,0.7803295056329024,0.003616016555326376
606,606,0.9378580300630894,0.9,0,487.0,694.0,0.0,169.0,1,0.815778052492303,0.0031794875317042275
607,607,-0.9700688088342495,-1.0,1,344.0,768.0,1.0,238.0,1,0.10021738615551123,0.0031329418366755468
608,608,-0.5527727201464554,-0.6,1,469.0,679.0,1.0,222.0,1,0.8967196747739966,0.002321409410862852
609,609,0.10294781778526874,0.1,0,330.0,519.0,0.0,311.0,1,0.3270535249646821,0.0038821853800763873
610,610,0.9609159278008337,1.0,0,351.0,511.0,0.0,168.0,1,0.8284813928717426,0.0023284448466582165
611,611,-0.25565294849703246,-0.3,1,383.0,622.0,1.0,175.0,1,0.11212603442582092,0.003331838119237719
612,612,0.6671929032394419,0.7,0,324.0,567.0,0.0,289.0,1,0.9418027684929425,0.00019805130052416076
613,613,-0.7219877123377147,-0.7,1,317.0,834.0,1.0,199.0,1,0.3675637907268089,0.0030136557658695267
614,614,0.6047819864010222,0.6,0,308.0,900.0,0.0,262.0,1,0.22336996750006333,0.004678239991955654
615,615,-0.5156885249559131,-0.5,1,473.0,780.0,1.0,277.0,1,0.4385590093841675,0.0029276845632511908
616,616,-0.2873935702739778,-0.3,1,482.0,736.0,1.0,222.0,1,0.7209952690288506,0.003388454468159536
617,617,0.21288393591893584,0.2,0,301.0,825.0,0.0,364.0,1,0.112086413576438,0.0025826031112750093
618,618,0.0839115661244132,0.1,0,376.0,961.0,0.0,253.0,1,0.6997602469741746,0.0032585903961739626
619,619,-0.650840963856143,-0.7,1,477.0,722.0,1.0,241.0,1,0.17999561728530455,0.0026877841287100785
620,620,0.6125639620811456,0.6,0,330.0,738.0,0.0,332.0,1,0.27377609380892265,0.00038049320683659297
621,621,0.444916749395595,0.4,0,409.0,964.0,0.0,237.0,1,0.4455655003156842,0.003246399543372125
622,622,-0.7102480160365281,-0.7,1,336.0,911.0,1.0,183.0,1,0.2650792264219958,0.0037655282873963075
623,623,-0.6475043660510238,-0.6,1,397.0,763.0,1.0,240.0,1,0.14629098882244096,0.0003288064972758631
624,624,0.8572699720965631,0.9,0,383.0,941.0,0.0,176.0,1,0.8971195061477798,0.0032225514559627738
625,625,-0.6366799798201384,-0.6,1,450.0,830.0,1.0,170.0,1,0.8364256239678522,0.0041092452938689
626,626,-0.6685910772691819,-0.7,1,374.0,716.0,1.0,170.0,1,0.8017998237889071,0.003947662052411412
627,627,0.27035770965961525,0.3,0,354.0,850.0,0.0,266.0,1,0.610183995897445,0.0019126295897553503
628,628,-0.9667020952997389,-1.0,1,376.0,764.0,1.0,190.0,1,0.35916310342282365,0.0016734258325707813
629,629,-0.5855485444386779,-0.6,1,480.0,649.0,1.0,141.0,1,0.482088840219017,0.00450105412057229
630,630,-0.9180576229040673,-0.9,1,422.0,802.0,1.0,236.0,1,0.5595084048185036,0.00013593070054533751
631,631,0.4875110057300167,0.5,0,286.0,839.0,0.0,185.0,1,0.8378172831475353,0.00039735577054169746
632,632,-0.3501158638163797,-0.4,1,422.0,820.0,0.0,158.0,0,0.89740446729513,0.0017687561592033597
633,633,-0.4497912217235045,-0.4,1,372.0,809.0,1.0,229.0,1,0.5788358497294462,0.003930078011244211
634,634,-0.25695331067294025,-0.3,1,266.0,876.0,1.0,268.0,1,0.2332199681807855,0.0038605911103402894
635,635,0.4036574074203618,0.4,0,388.0,935.0,0.0,177.0,1,0.5187058047529343,0.003239924022680769
636,636,0.10793240326954101,0.1,0,264.0,807.0,0.0,339.0,1,0.31642549329992653,0.0032444784977724446
637,637,-0.8813576534827938,-0.9,1,271.0,501.0,1.0,138.0,1,0.6323145610347028,0.004806368108241717
638,638,-0.5866161132359198,-0.6,1,390.0,777.0,1.0,263.0,1,0.3509735090625996,0.00458598579725057
639,639,0.10037142972079671,0.1,0,273.0,891.0,0.0,406.0,1,0.5949992016740329,0.0017498878814046898
640,640,-0.14173079774647612,-0.1,1,451.0,763.0,0.0,366.0,0,0.8397756720117961,6.540316169391102e-05
641,641,0.7862783200438563,0.8,0,371.0,969.0,0.0,350.0,1,0.4587322845488295,0.0010511024219067488
642,642,0.4684184876576609,0.5,0,270.0,901.0,0.0,199.0,1,0.9276583013221649,0.0005459499869469808
643,643,0.7394258200216994,0.7,0,251.0,952.0,0.0,337.0,1,0.013211558444513938,0.0007326371679989474
644,644,0.8188617768918582,0.8,0,441.0,763.0,0.0,176.0,1,0.8627569900898611,0.004901530096443666
645,645,-0.04835502294909344,-0.0,1,454.0,603.0,1.0,453.0,1,0.5237756909191165,0.0006100607087171511
646,646,0.07629587650563008,0.1,0,288.0,961.0,0.0,221.0,1,0.9448778826393185,0.002096188096254945
647,647,-0.6771674424882228,-0.7,1,309.0,691.0,1.0,230.0,1,0.2611212738282914,0.0030214694536857246
648,648,0.2869973887657613,0.3,0,433.0,732.0,0.0,235.0,1,0.5347421089702358,0.003964365261202877
649,649,0.3394254214894199,0.3,0,448.0,809.0,0.0,233.0,1,0.7055837867922294,0.001786174639225755
650,650,-0.09368479293306176,-0.1,1,319.0,578.0,1.0,293.0,1,0.675426343005103,0.0028671292731993424
651,651,-0.4496790069840235,-0.4,1,344.0,904.0,1.0,182.0,1,0.6046570123842029,0.0046221704741574695
652,652,0.5558632645374435,0.6,0,412.0,738.0,0.0,130.0,1,0.7801852146438305,0.004868677529193029
653,653,0.31560793054951697,0.3,0,275.0,748.0,1.0,207.0,0,0.8360734658321961,0.004785324836443636
654,654,-0.00011929765238205547,-0.0,1,462.0,865.0,0.0,263.0,0,0.1933303715532979,0.004986327769174027
655,655,-0.31841039952296324,-0.3,1,387.0,543.0,1.0,320.0,1,0.5649056360217778,0.0019810443878965976
656,656,0.04146763126167441,0.0,0,260.0,744.0,0.0,346.0,1,0.9432132822185063,0.0023934061482400438
657,657,-0.8705551777275389,-0.9,1,299.0,714.0,1.0,247.0,1,0.17155623822076171,0.0013723444222387814
658,658,0.4953947281893092,0.5,0,298.0,892.0,0.0,190.0,1,0.801468963744149,0.004687967225518969
659,659,0.5403954277022218,0.5,0,258.0,799.0,0.0,123.0,1,0.6981254203867642,0.002524251610060077
660,660,-0.5691538756965806,-0.6,1,449.0,767.0,1.0,124.0,1,0.6234773131019247,0.002265441386108364
661,661,0.3920645269018632,0.4,0,271.0,808.0,0.0,421.0,1,0.28277675496156096,0.0015285030562335233
662,662,0.1649705967524131,0.2,0,254.0,893.0,0.0,273.0,1,0.885941831965908,0.0030374414323913928
663,663,0.30266667267612024,0.3,0,272.0,610.0,0.0,198.0,1,0.7339449425172794,0.004195965801497251
664,664,0.4275644026550287,0.4,0,368.0,534.0,0.0,378.0,1,0.44706904828728466,0.0004771953770468679
665,665,0.8893543014257361,0.9,0,258.0,946.0,0.0,246.0,1,0.21087957524867162,0.0015411325286403387
666,666,0.7083588987034786,0.7,0,306.0,893.0,0.0,221.0,1,0.10211644818780152,0.0018974394602987177
667,667,-0.5914466725380163,-0.6,1,345.0,867.0,1.0,228.0,1,0.6918059822602903,0.0013070289120143126
668,668,-0.2726579712204713,-0.3,1,494.0,551.0,0.0,355.0,0,0.20170879840566136,0.0005366374119723178
669,669,-0.8493330580965792,-0.8,1,452.0,625.0,1.0,193.0,1,0.6273064490924702,0.002732348056815374
670,670,-0.2823413031667499,-0.3,1,307.0,997.0,1.0,416.0,1,0.01734639600747101,0.0009674832255491594
671,671,-0.08110565502542055,-0.1,1,352.0,694.0,1.0,324.0,1,0.5227286075111792,0.00105284316413013
672,672,-0.07693313653750833,-0.1,1,492.0,981.0,0.0,287.0,0,0.22158858767164302,0.003538745563415371
673,673,-0.20584354039947206,-0.2,1,342.0,796.0,1.0,232.0,1,0.24449392538095138,0.004796581948554744
674,674,0.45631223305040747,0.5,0,458.0,631.0,0.0,191.0,1,0.9709313748046152,0.0031435861881809585
675,675,0.7283319538709083,0.7,0,417.0,655.0,0.0,208.0,1,0.12778865911012094,0.0021609208669451587
676,676,0.07611040291523175,0.1,0,430.0,891.0,0.0,269.0,1,0.6454501889718467,0.0032541303234712793
677,677,-0.008779849144134433,-0.0,1,330.0,547.0,0.0,323.0,0,0.04766062226602319,0.004536620636977383
678,678,-0.016510391999873475,-0.0,1,414.0,976.0,1.0,290.0,1,0.8240460894764025,0.004503847157737938
679,679,-0.28880248036050715,-0.3,1,267.0,677.0,1.0,266.0,1,0.5123360859832646,0.0029944713283405373
680,680,-0.21812587908703795,-0.2,1,382.0,909.0,1.0,159.0,1,0.9999230876817929,0.003209178447331964
681,681,0.056640544994618125,0.1,0,265.0,607.0,0.0,348.0,1,0.3960446959546401,0.0019583624506243047
682,682,0.9434939850370612,0.9,0,284.0,960.0,0.0,146.0,1,0.5435378214689687,0.001718243321446004
683,683,-0.400618440005327,-0.4,1,468.0,674.0,1.0,198.0,1,0.7465401922519489,0.003575165685179106
684,684,0.407330021961924,0.4,0,478.0,735.0,0.0,207.0,1,0.9176473383465001,0.004645894245070141
685,685,0.5385743937843943,0.5,0,363.0,542.0,0.0,395.0,1,0.13953346510224152,0.0012933149912672359
686,686,-0.6503932210664414,-0.7,1,283.0,607.0,1.0,170.0,1,0.8467060875325848,0.0009328540467785946
687,687,0.2916831643112252,0.3,0,408.0,952.0,0.0,500.0,1,0.3454990824251529,0.0020615219541757135
688,688,-0.2647323491609699,-0.3,1,360.0,810.0,1.0,680.0,1,0.20955862828297311,0.0001701393236668647
689,689,-0.9043438720366335,-0.9,1,318.0,724.0,1.0,208.0,1,0.6864309377239506,0.004637253352954025
690,690,0.5572482172517768,0.6,0,255.0,880.0,0.0,225.0,1,0.2646553559312623,0.003510751328536089
691,691,-0.4085500505665338,-0.4,1,269.0,855.0,1.0,416.0,1,0.07802309555687792,3.2647538613812535e-05
692,692,0.6943854490210106,0.7,0,273.0,952.0,0.0,225.0,1,0.28824183308972406,0.002058746564549568
693,693,-0.3358626138211447,-0.3,1,417.0,561.0,1.0,292.0,1,0.31534212172882803,0.0033888255751629366
694,694,0.9751398197676184,1.0,0,452.0,653.0,0.0,225.0,1,0.4634280971620466,0.002553475417595045
695,695,0.007765129043675101,0.0,0,480.0,646.0,0.0,374.0,1,0.34886896666509604,0.0029438370810730224
696,696,-0.0245842497924027,-0.0,1,424.0,761.0,1.0,185.0,1,0.680559090122427,0.004741347000110541
697,697,-0.04245589255056226,-0.0,1,491.0,533.0,0.0,156.0,0,0.5046311004473285,0.0038332785986941284
698,698,-0.6073848650207361,-0.6,1,280.0,542.0,1.0,228.0,1,0.91328021050247,0.001754881308242104
699,699,-0.32923879045541704,-0.3,1,334.0,804.0,1.0,142.0,1,0.7075881022012689,0.003556754898455239
700,700,-0.78361712870219,-0.8,1,384.0,947.0,1.0,249.0,1,0.17112857988081087,0.0019285172403323719
701,701,0.1039535193756509,0.1,0,455.0,567.0,0.0,418.0,1,0.38755477939165905,0.00035846937795176335
702,702,-0.8749804884181587,-0.9,1,485.0,545.0,1.0,280.0,1,0.007908076794786112,0.0001849745759236321
703,703,0.2645056389044853,0.3,0,256.0,879.0,0.0,275.0,1,0.4945284325390491,0.0010320524195117763
704,704,-0.5827924930918118,-0.6,1,480.0,940.0,1.0,160.0,1,0.7978556778784107,0.002163999552740484
705,705,-0.125173136597722,-0.1,1,467.0,993.0,0.0,160.0,0,0.016073388935888944,0.0043116741308505055
706,706,0.8012864094371508,0.8,0,494.0,577.0,0.0,179.0,1,0.3448311853919277,0.0035348270904520364
707,707,0.21233170485485942,0.2,0,453.0,816.0,0.0,251.0,1,0.5837423584668924,0.004109529303888106
708,708,0.5077489387080139,0.5,0,329.0,524.0,0.0,317.0,1,0.9579165761982704,0.0010157888656543046
709,709,0.2913358088152951,0.3,0,378.0,624.0,0.0,338.0,1,0.4408888482234048,0.001210619474263321
710,710,-0.20657580330713055,-0.2,1,466.0,696.0,1.0,428.0,1,0.2821796012535125,0.0024510103159054537
711,711,0.6682855725002466,0.7,0,357.0,795.0,0.0,198.0,1,0.6822235287530661,0.0014634353099660957
712,712,-0.16494253067616604,-0.2,1,420.0,956.0,1.0,244.0,1,0.37678389456511274,0.0033415291894695453
713,713,0.08500108352050106,0.1,0,476.0,833.0,0.0,181.0,1,0.9488908570919555,0.0034353225498230224
714,714,0.23077263892066013,0.2,0,342.0,948.0,0.0,230.0,1,0.9280468112233028,0.0009450422342100779
715,715,-0.6145959106325816,-0.6,1,309.0,657.0,1.0,234.0,1,0.6283910912326539,0.004632853701129951
716,716,0.02453394388796659,0.0,0,478.0,729.0,1.0,593.0,0,0.03748024763817781,0.0012991089258090533
717,717,0.08268868708632282,0.1,0,335.0,860.0,0.0,225.0,1,0.5054708267979902,0.00415152596144064
718,718,0.9774774756845304,1.0,0,311.0,712.0,0.0,267.0,1,0.03512784664401214,0.0016023055194324066
719,719,0.6789287638637125,0.7,0,333.0,992.0,0.0,245.0,1,0.619998766577396,0.0018702982628981202
720,720,0.13562519448546806,0.1,0,341.0,909.0,0.0,170.0,1,0.7186688763791699,0.003819939991869081
721,721,-0.24998647682558572,-0.2,1,466.0,518.0,1.0,146.0,1,0.9803541751616683,0.003074743792281401
722,722,-0.3264883149516642,-0.3,1,481.0,511.0,1.0,298.0,1,0.4459369254752156,0.0022480392325427982
723,723,0.6529671088777667,0.7,0,293.0,568.0,0.0,469.0,1,0.5143796484448395,0.0006508573898921211
724,724,0.029101217001889168,0.0,0,409.0,722.0,1.0,359.0,0,0.8903528972674264,0.004250185308047589
725,725,0.28495816593499335,0.3,0,410.0,525.0,0.0,185.0,1,0.9149689892972098,0.0041073545915621
726,726,-0.06872329421799717,-0.1,1,256.0,752.0,1.0,272.0,1,0.815970890236604,0.0009623545395579059
727,727,0.5962962925881159,0.6,0,389.0,578.0,0.0,273.0,1,0.5990529923417788,0.0021430846512939432
728,728,0.8800468813224698,0.9,0,312.0,690.0,0.0,158.0,1,0.6221630167865753,0.004279957418229362
729,729,0.8488689332689765,0.8,0,452.0,878.0,0.0,370.0,1,0.549545698583367,3.7750569198994886e-05
730,730,-0.4183127789600829,-0.4,1,286.0,938.0,1.0,236.0,1,0.21781520011529887,0.004150525952427127
731,731,0.44280962503589505,0.4,0,322.0,967.0,0.0,171.0,1,0.44407365513794494,0.004530996386952121
732,732,-0.6302750942006567,-0.6,1,441.0,937.0,1.0,142.0,1,0.44787873172503967,0.004127520017507062
733,733,0.15726657456266957,0.2,0,454.0,954.0,0.0,262.0,1,0.40010638142031263,0.003399718293516039
734,734,-0.7603980174573435,-0.8,1,440.0,587.0,1.0,143.0,1,0.8589564296481157,0.0027460252298698758
735,735,-0.0924601175672024,-0.1,1,383.0,681.0,1.0,216.0,1,0.9449288458543768,0.0011752079580215336
736,736,0.7023742624271425,0.7,0,435.0,776.0,0.0,139.0,1,0.1750872747447879,0.004185883040959609
737,737,-0.773776374445547,-0.8,1,318.0,586.0,1.0,126.0,1,0.7514456755841081,8.24287546059288e-05
738,738,-0.1074963485152185,-0.1,1,291.0,789.0,0.0,290.0,0,0.3736824403820417,0.004774626394201354
739,739,0.9426056179205649,0.9,0,425.0,744.0,0.0,201.0,1,0.7378237011167009,0.0004557544033315875
740,740,0.29134115106634595,0.3,0,419.0,554.0,0.0,387.0,1,0.013945608136680887,0.001284495175678969
741,741,-0.7901251739454909,-0.8,1,264.0,836.0,1.0,290.0,1,0.5311708659059438,6.5741111027951e-05
742,742,0.8109841336451078,0.8,0,253.0,769.0,0.0,188.0,1,0.3609488836780037,0.0018088571309618324
743,743,0.5913540697136694,0.6,0,412.0,642.0,0.0,286.0,1,0.23503798319888103,0.0021641634992784855
744,744,0.6661371851277993,0.7,0,275.0,814.0,0.0,181.0,1,0.9336836323027615,0.002799266880691304
745,745,0.21509050851620493,0.2,0,321.0,957.0,0.0,362.0,1,0.12204240016812384,0.0027414903421545188
746,746,-0.9304740749916418,-0.9,1,272.0,510.0,1.0,418.0,1,0.12309775081601637,0.00025854887178621054
747,747,0.09693766437316298,0.1,0,462.0,636.0,0.0,1292.0,1,0.5809452614577628,0.00044491336247624305
748,748,-0.8097476914550201,-0.8,1,417.0,830.0,1.0,313.0,1,0.020618723317759713,0.0019335705059090869
749,749,-0.546742974641363,-0.5,1,476.0,703.0,1.0,561.0,1,0.314432144951571,0.00032563092848177214
750,750,0.6257003673346031,0.6,0,455.0,906.0,0.0,169.0,1,0.886605695923402,0.003197612309894579
751,751,-0.05523323985100048,-0.1,1,461.0,852.0,1.0,197.0,1,0.9212362940618347,0.004043651332767866
752,752,-0.792636873784099,-0.8,1,327.0,703.0,1.0,220.0,1,0.7579720612272351,0.0009543979269833408
753,753,-0.10263575444049922,-0.1,1,261.0,532.0,1.0,397.0,1,0.08133735212022841,0.0014503214050048097
754,754,0.30455380828259804,0.3,0,371.0,853.0,0.0,266.0,1,0.6056529671119366,0.002144013855530781
755,755,-0.1931256302911466,-0.2,1,342.0,564.0,1.0,194.0,1,0.2788184073216432,0.002362203973732762
756,756,0.6998320724532587,0.7,0,275.0,695.0,0.0,140.0,1,0.9704204555893363,0.004155113787024851
757,757,0.30944655380457275,0.3,0,454.0,931.0,0.0,575.0,1,0.5192905908574444,0.0006002496177253714
758,758,0.6712367826537897,0.7,0,348.0,510.0,0.0,232.0,1,0.1390078901912195,0.0018433226011319527
759,759,0.3445898701936958,0.3,0,472.0,939.0,0.0,299.0,1,0.6956882047453657,0.001827619110423151
760,760,0.9547520007416772,1.0,0,430.0,541.0,0.0,229.0,1,0.1334010362975795,0.0009940362639630901
761,761,-0.194662731164019,-0.2,1,487.0,924.0,1.0,179.0,1,0.9684157649082957,0.0009620948308493627
762,762,-0.581555474546158,-0.6,1,326.0,618.0,1.0,356.0,1,0.011984435081995315,0.001466164229185925
763,763,-0.9126087460026135,-0.9,1,391.0,861.0,1.0,148.0,1,0.4785737687057853,0.0046338670303835575
764,764,-0.17315402080681208,-0.2,1,311.0,596.0,1.0,373.0,1,0.335276582226668,0.001354985557649978
765,765,0.6235119625659153,0.6,0,408.0,610.0,0.0,232.0,1,0.22717087375047873,0.002740200954879897
766,766,0.3823091297995864,0.4,0,450.0,578.0,0.0,242.0,1,0.5776770366457614,0.0017780452346730995
767,767,0.0007801709876538165,0.0,0,369.0,591.0,1.0,210.0,0,0.6823856474092463,0.00104178346556975
768,768,0.07079571346200231,0.1,0,264.0,817.0,0.0,639.0,1,0.1834075436848278,0.0004980128426300412
769,769,-0.02987433248582949,-0.0,1,442.0,929.0,0.0,179.0,0,0.8379294805280424,0.004615314122626502
770,770,-0.17643721770458476,-0.2,1,360.0,560.0,1.0,540.0,1,0.1138234443824706,0.0010178613666912684
771,771,-0.05169675328297507,-0.1,1,259.0,635.0,1.0,186.0,1,0.6826678517873547,0.0035723663725949484
772,772,0.40307181885971555,0.4,0,260.0,854.0,0.0,416.0,1,0.7902260222307508,0.0013249950207782563
773,773,-0.8932428365639116,-0.9,1,319.0,676.0,1.0,195.0,1,0.7059824233202506,0.0006259232216901611
774,774,-0.21365759082625768,-0.2,1,377.0,614.0,0.0,219.0,0,0.8984574141681274,0.004825754922067806
775,775,0.36559393632659565,0.4,0,433.0,825.0,0.0,202.0,1,0.6778297314339793,0.004483350911141608
776,776,0.5318518149257858,0.5,0,304.0,733.0,0.0,263.0,1,0.35396626927072083,0.003740011754106079
777,777,0.5739150851793675,0.6,0,410.0,757.0,0.0,213.0,1,0.6992155319663823,0.0036545589316979367
778,778,-0.3098489428555746,-0.3,1,277.0,836.0,1.0,147.0,1,0.06484060112977796,0.0040316015384067976
779,779,0.44324554471328104,0.4,0,479.0,817.0,0.0,274.0,1,0.647811937673864,0.004529142599079216
780,780,-0.40383146049351537,-0.4,1,482.0,906.0,1.0,242.0,1,0.5208891740650203,0.0033632699091545393
781,781,-0.2575106524117199,-0.3,1,421.0,963.0,1.0,296.0,1,0.5781279791878713,0.00148143863397718
782,782,0.7190358658698264,0.7,0,302.0,588.0,0.0,210.0,1,0.6611746661805558,0.0011228487047367974
783,783,-0.3303097567537985,-0.3,1,268.0,634.0,1.0,348.0,1,0.37378075729835103,0.002253652982737364
784,784,0.8285211686259601,0.8,0,342.0,585.0,0.0,213.0,1,0.01982505656152933,0.004329570705517032
785,785,0.44254714949186824,0.4,0,477.0,545.0,0.0,88.0,1,0.7552847037403163,0.0005436701164512053
786,786,0.850984448286487,0.9,0,264.0,690.0,0.0,146.0,1,0.22874811657462957,0.004942546146904384
787,787,-0.4627597352861694,-0.5,1,390.0,926.0,1.0,264.0,1,0.5565800676957802,0.0010421229242561004
788,788,0.051776071619145325,0.1,0,382.0,625.0,1.0,463.0,0,0.3804365554264033,0.0007441716498275919
789,789,-0.5849539689747689,-0.6,1,273.0,763.0,1.0,324.0,1,0.115551512117686,0.002018339158259532
790,790,0.24954438109290566,0.2,0,491.0,837.0,0.0,452.0,1,0.652660218141418,0.0009922681171253128
791,791,-0.10012840025240788,-0.1,1,446.0,704.0,1.0,340.0,1,0.1388286135897523,0.0047966461756938665
792,792,0.5084645349357546,0.5,0,365.0,900.0,0.0,215.0,1,0.32306550459465155,0.0018287884325147313
793,793,0.9482229422191482,0.9,0,448.0,988.0,0.0,144.0,1,0.5474993666599043,0.0027105359620535406
794,794,0.38368788867387726,0.4,0,486.0,609.0,0.0,225.0,1,0.8828463631439033,0.0014885840407255968
795,795,-0.44347983647641853,-0.4,1,349.0,838.0,1.0,373.0,1,0.28957860802900226,0.0020118904819296474
796,796,-0.915141771724848,-0.9,1,257.0,826.0,1.0,167.0,1,0.555905854450208,0.000464596934192279
797,797,0.802489441877889,0.8,0,390.0,651.0,0.0,159.0,1,0.44769963290498793,0.0036069774275340363
798,798,0.772515900344545,0.8,0,490.0,811.0,0.0,169.0,1,0.925285333992282,0.001201836734188076
799,799,0.8629646496591592,0.9,0,445.0,562.0,0.0,163.0,1,0.9232791338581988,0.0035619701530674058
800,800,-0.005041207816686599,-0.0,1,472.0,661.0,0.0,267.0,0,0.7460210215940991,0.0035581076930580524
801,801,0.7825332749443632,0.8,0,388.0,620.0,0.0,232.0,1,0.795029749860366,0.0015763914034066552
802,802,0.29166177261325665,0.3,0,412.0,525.0,0.0,513.0,1,0.36352876144416046,0.0009517699378288191
803,803,0.28406270962162106,0.3,0,405.0,628.0,0.0,507.0,1,0.18065702726941701,0.001364682086198598
804,804,-0.9383944500606825,-0.9,1,379.0,714.0,1.0,347.0,1,0.19960995670041515,0.0012249944933611036
805,805,-0.6853006842749725,-0.7,1,478.0,896.0,1.0,206.0,1,0.3169978842638105,0.001632823347370817
806,806,0.1144234760639844,0.1,0,261.0,783.0,0.0,256.0,1,0.490729061198673,0.003413219361392097
807,807,-0.09364792005782507,-0.1,1,330.0,659.0,1.0,311.0,1,0.38822732628826273,0.001377964807027589
808,808,-0.27374873160615376,-0.3,1,274.0,689.0,1.0,237.0,1,0.34927181301207955,0.0027182013484468893
809,809,-0.20884332201189326,-0.2,1,428.0,511.0,1.0,451.0,1,0.622285959930518,0.0013852146063935383
810,810,-0.9762706946054578,-1.0,1,323.0,562.0,1.0,265.0,1,0.06530461450870728,0.0005275259451977187
811,811,0.413089636943305,0.4,0,422.0,598.0,0.0,170.0,1,0.6535128932659604,0.0035960938498667125
812,812,-0.6229780059701477,-0.6,1,279.0,622.0,1.0,249.0,1,0.6208796549455864,0.002727374893230502
813,813,-0.3029682091034207,-0.3,1,340.0,724.0,1.0,516.0,1,0.17543295074975562,0.001013500210555644
814,814,-0.2066145315059169,-0.2,1,361.0,544.0,1.0,275.0,1,0.38141155108962244,0.0013350649106356927
815,815,-0.10752360298629804,-0.1,1,326.0,811.0,0.0,273.0,0,0.5143313289463906,0.0041768739579300515
816,816,0.20293000310494413,0.2,0,358.0,927.0,0.0,235.0,1,0.6019325222641192,0.00191913416711605
817,817,-0.48878655060525267,-0.5,1,395.0,720.0,1.0,295.0,1,0.04363101238617395,0.0037165546565995733
818,818,-0.9372397899318612,-0.9,1,473.0,576.0,1.0,221.0,1,0.5524412732850887,0.0015614416826711624
819,819,-0.2726031653261194,-0.3,1,257.0,634.0,1.0,199.0,1,0.37338700388291424,0.0037322468710470264
820,820,0.10452821420936087,0.1,0,440.0,718.0,0.0,472.0,1,0.33431524642254895,0.0038525997324727747
821,821,0.7376860898743538,0.7,0,456.0,517.0,0.0,327.0,1,0.6573193297611866,0.0010571229642435198
822,822,0.2125349151896494,0.2,0,303.0,728.0,1.0,379.0,0,0.44738174914711903,0.0019946766328245023
823,823,-0.914129890544237,-0.9,1,475.0,880.0,1.0,105.0,1,0.7072738141827188,0.003997624292816425
824,824,-0.46283489591989313,-0.5,1,276.0,623.0,1.0,291.0,1,0.5724293352773855,0.0011618808701632161
825,825,-0.6117513599047395,-0.6,1,318.0,524.0,1.0,298.0,1,0.796806588087047,0.001325781430849491
826,826,-0.6715477638953278,-0.7,1,290.0,837.0,1.0,243.0,1,0.43135279083466727,0.0014877836610840529
827,827,-0.9184085623152454,-0.9,1,309.0,699.0,1.0,162.0,1,0.7725986784190313,0.004558155630754064
828,828,0.4626245882394384,0.5,0,301.0,932.0,0.0,327.0,1,0.41347466551250855,0.003080625291463389
829,829,-0.4934102819509141,-0.5,1,472.0,657.0,1.0,451.0,1,0.06703835398353786,0.0004930383579387144
830,830,-0.4862770357759052,-0.5,1,361.0,527.0,1.0,132.0,1,0.869526354370086,0.0027839388048596938
831,831,-0.35633682308685843,-0.4,1,380.0,932.0,1.0,288.0,1,0.9833618505662685,0.001462639459357079
832,832,0.6122452391518729,0.6,0,268.0,719.0,0.0,233.0,1,0.07738437276843091,0.0035594628203922387
833,833,0.7007049894192077,0.7,0,310.0,981.0,0.0,179.0,1,0.18137812335117642,0.004835236737374158
834,834,0.6364174979536412,0.6,0,281.0,932.0,0.0,247.0,1,0.0013911428244076651,0.0031687506314342266
835,835,-0.5018814251147965,-0.5,1,424.0,663.0,1.0,313.0,1,0.04358973962498858,0.004278029098512979
836,836,0.5248875692483781,0.5,0,317.0,986.0,0.0,237.0,1,0.737969470707273,0.0048540836673990045
837,837,0.7027949923113446,0.7,0,343.0,773.0,0.0,114.0,1,0.5036167702676286,0.004486228761200241
838,838,-0.3302639374187193,-0.3,1,417.0,517.0,1.0,356.0,1,0.6732801112760021,0.0011098737560104421
839,839,0.47392009165785676,0.5,0,438.0,725.0,0.0,397.0,1,0.2788646767016265,0.00040150832754913215
840,840,0.6184836244141576,0.6,0,439.0,742.0,0.0,169.0,1,0.29279360780277053,0.003223800966434308
841,841,-0.3810331847383921,-0.4,1,496.0,630.0,1.0,224.0,1,0.4477809674049382,0.004537903024679481
842,842,0.6873197433587044,0.7,0,474.0,546.0,0.0,130.0,1,0.7385466254190814,0.0039379835633970295
843,843,-0.13928096464529816,-0.1,1,345.0,547.0,1.0,288.0,1,0.7320881882043875,0.0009764979478915903
844,844,-0.8133524820960079,-0.8,1,320.0,719.0,1.0,211.0,1,0.6685361401978325,0.0009463428195896612
845,845,0.18073078803794274,0.2,0,294.0,905.0,0.0,441.0,1,0.42588725599518407,0.0013086814114836355
846,846,0.6146991160496,0.6,0,455.0,547.0,0.0,188.0,1,0.9865986631546877,0.0033002914956901746
847,847,-0.7078446461462968,-0.7,1,353.0,668.0,1.0,159.0,1,0.27799931498858477,0.004342604120373485
848,848,0.6949831699172229,0.7,0,284.0,653.0,0.0,263.0,1,0.776337849147644,0.00033511645954880157
849,849,0.11819041432744193,0.1,0,274.0,901.0,1.0,235.0,0,0.44822570810207973,0.004256413649656433
850,850,0.9660144125641033,1.0,0,454.0,785.0,0.0,181.0,1,0.19052559855131224,0.0016777523063855587
851,851,-0.15708849338335296,-0.2,1,445.0,848.0,1.0,437.0,1,0.3666346435765191,0.0034023693658748835
852,852,-0.9493755285098462,-0.9,1,296.0,940.0,1.0,194.0,1,0.30744457180322005,0.0007499626810047694
853,853,0.9848913282642568,1.0,0,308.0,842.0,0.0,170.0,1,0.8389576282213914,0.00041246886457455836
854,854,-0.29763813704114384,-0.3,1,361.0,917.0,1.0,202.0,1,0.25362092875885167,0.0034445681852861556
855,855,0.7848194700015825,0.8,0,420.0,561.0,0.0,269.0,1,0.07933871128267744,0.001695749755681395
856,856,0.9434868788670829,0.9,0,322.0,522.0,0.0,226.0,1,0.18426358116929809,0.0035500068995661413
857,857,-0.8140819186024897,-0.8,1,488.0,893.0,1.0,149.0,1,0.9501942707351542,0.004411040434805367
858,858,-0.13703792946084237,-0.1,1,298.0,812.0,0.0,190.0,0,0.5631575957753324,0.0015215574213327055
859,859,0.16609260859642427,0.2,0,347.0,542.0,0.0,471.0,1,0.12255720556597682,0.0035635357560676118
860,860,-0.9346781383950089,-0.9,1,289.0,837.0,1.0,174.0,1,0.8543938729125176,0.002574529036511673
861,861,0.547434449279244,0.5,0,472.0,624.0,0.0,194.0,1,0.7981649885432011,0.0019066779536781565
862,862,0.044679211244614825,0.0,0,427.0,929.0,0.0,254.0,1,0.026190605597435135,0.004971104803565013
863,863,0.9895884940196074,1.0,0,318.0,911.0,0.0,181.0,1,0.5970735095642797,0.0034487661961744936
864,864,-0.9223567700714836,-0.9,1,437.0,678.0,1.0,155.0,1,0.6101262972536787,0.00367226309694764
865,865,0.6166376734502972,0.6,0,304.0,774.0,0.0,262.0,1,0.8041617118540247,0.002445792248049288
866,866,-0.5467409726888235,-0.5,1,292.0,928.0,1.0,190.0,1,0.8160859265002868,0.0044681436040703995
867,867,-0.037528292436815214,-0.0,1,327.0,595.0,1.0,278.0,1,0.646550636062513,0.002335260464603816
868,868,-0.980346620018397,-1.0,1,369.0,576.0,1.0,155.0,1,0.7715575689563163,0.002703429697261204
869,869,-0.045356110949539064,-0.0,1,348.0,657.0,1.0,215.0,1,0.7364466905366782,0.001023680679618218
870,870,0.154435088170096,0.2,0,386.0,762.0,0.0,182.0,1,0.9442631847219959,0.004150486436956219
871,871,-0.1680206237407169,-0.2,1,388.0,647.0,1.0,475.0,1,0.16965546562679057,0.00228817571527853
872,872,-0.5281270437327652,-0.5,1,399.0,845.0,1.0,186.0,1,0.9901444437370627,0.003508443059140766
873,873,0.4704095321067632,0.5,0,408.0,868.0,0.0,224.0,1,0.026211866253924798,0.0036487719419576498
874,874,-0.5502281358015031,-0.6,1,282.0,924.0,1.0,344.0,1,0.37512862771278366,0.003096269795252775
875,875,0.265796616566198,0.3,0,286.0,533.0,1.0,221.0,0,0.948233470354746,0.002764052524511801
876,876,0.14088474442972432,0.1,0,434.0,960.0,0.0,236.0,1,0.41360974139441986,0.004618082171567779
877,877,0.1527419419927034,0.2,0,430.0,754.0,1.0,176.0,0,0.1938724386580405,0.00306815493969612
878,878,0.7547178607750986,0.8,0,297.0,596.0,0.0,147.0,1,0.9493021253522355,0.0046364435141543325
879,879,-0.7022697616319182,-0.7,1,415.0,919.0,1.0,226.0,1,0.19481957823886897,0.0009566434664063744
880,880,0.6397113855039909,0.6,0,254.0,673.0,0.0,623.0,1,0.18606674004300783,0.0004654761135202001
881,881,-0.608059375585436,-0.6,1,306.0,851.0,1.0,163.0,1,0.573434403874453,0.004128857196033002
882,882,-0.6548299502602104,-0.7,1,419.0,598.0,1.0,333.0,1,0.01702206028282849,0.00437358576945677
883,883,0.08881074448493598,0.1,0,363.0,950.0,1.0,207.0,0,0.9698088913767967,0.0034260904125611377
884,884,-0.4481641555296354,-0.4,1,499.0,717.0,1.0,234.0,1,0.6035749412457468,0.004568670898142808
885,885,0.12676931148598736,0.1,0,398.0,906.0,0.0,196.0,1,0.78433932736543,0.004382901343855808
886,886,-0.24272998741808816,-0.2,1,333.0,879.0,1.0,628.0,1,0.6339926757556181,8.721990773298272e-06
887,887,-0.4690348610275088,-0.5,1,373.0,911.0,1.0,216.0,1,0.4489004152919712,0.0032619752612639413
888,888,-0.897967181098694,-0.9,1,297.0,922.0,1.0,181.0,1,0.4143371671171673,0.00290902116157947
889,889,0.06146826009152129,0.1,0,364.0,786.0,1.0,440.0,0,0.826240701363939,0.0011540021671186556
890,890,-0.282609306803286,-0.3,1,272.0,515.0,1.0,393.0,1,0.05423799350939007,0.0006698834500302981
891,891,0.3824715169411226,0.4,0,433.0,637.0,0.0,210.0,1,0.8769639955949254,0.004245572714670194
892,892,-0.7328995121925639,-0.7,1,287.0,798.0,1.0,175.0,1,0.5170774111530559,0.0019623108386453364
893,893,-0.9812652697778399,-1.0,1,348.0,670.0,1.0,122.0,1,0.7365527350789831,0.0017642403672145745
894,894,0.9120890097051422,0.9,0,415.0,955.0,0.0,190.0,1,0.39717022420838,0.00480152493406866
895,895,-0.17361286560483058,-0.2,1,369.0,786.0,1.0,475.0,1,0.5065489285603924,0.00017225076725373712
896,896,0.8285687324488389,0.8,0,296.0,663.0,0.0,151.0,1,0.738464521386467,0.0024323805812339274
897,897,-0.6651985885749423,-0.7,1,251.0,951.0,1.0,168.0,1,0.10148236050158743,0.0009195468971973841
898,898,0.527912844215654,0.5,0,416.0,769.0,0.0,245.0,1,0.12982833704740548,0.0034671717181451746
899,899,-0.46987200078864166,-0.5,1,375.0,586.0,1.0,159.0,1,0.5241550973070195,0.003740378874091961
900,900,0.12971791250295017,0.1,0,407.0,745.0,0.0,478.0,1,0.011046051532166978,0.0015255564297872554
901,901,-0.7572199826943149,-0.8,1,419.0,863.0,1.0,338.0,1,0.3399147967520946,0.0012640999919719558
902,902,-0.27305671276769417,-0.3,1,291.0,501.0,1.0,348.0,1,0.9937563992874282,0.0007458913809454299
903,903,0.2586384047492678,0.3,0,315.0,610.0,0.0,445.0,1,0.7108774010939988,0.0026553721653538374
904,904,0.4470095329673818,0.4,0,409.0,577.0,0.0,284.0,1,0.3794509864425186,0.0017247025120139408
905,905,0.9315978219413557,0.9,0,480.0,656.0,0.0,334.0,1,0.40067629909619207,0.0003100826126071299
906,906,0.9405540984393008,0.9,0,351.0,943.0,0.0,266.0,1,0.26454926902876186,0.0019044887106843616
907,907,0.30185774625140116,0.3,0,389.0,940.0,0.0,251.0,1,0.576746737387932,0.001923176928492714
908,908,0.13743964577618484,0.1,0,448.0,972.0,1.0,210.0,0,0.6277983941697733,0.004670640293739122
909,909,-0.6933791231719184,-0.7,1,301.0,954.0,1.0,385.0,1,0.30319148134173524,0.0005801556176979189
910,910,0.021056828151210905,0.0,0,344.0,729.0,1.0,227.0,0,0.9590212045970526,0.004052092946405977
911,911,-0.2079769289315485,-0.2,1,349.0,693.0,1.0,458.0,1,0.6072673281303749,0.00014357098313979856
912,912,0.3116359701495184,0.3,0,278.0,788.0,0.0,354.0,1,0.5465841446192157,0.000429165907813055
913,913,0.6481405449594235,0.6,0,314.0,674.0,0.0,252.0,1,0.3173199082910334,0.001626058040835074
914,914,0.988088848332431,1.0,0,253.0,702.0,0.0,215.0,1,0.13804498046853642,0.002965377674833499
915,915,0.3949730494877499,0.4,0,256.0,769.0,0.0,205.0,1,0.14563649374726695,0.00430545291362261
916,916,0.397493513763447,0.4,0,351.0,620.0,0.0,269.0,1,0.5397862332109664,0.00125882472695746
917,917,-0.8730912293372062,-0.9,1,291.0,513.0,1.0,196.0,1,0.615765031538879,0.0006877191589615828
918,918,-0.7633002213722417,-0.8,1,289.0,503.0,1.0,178.0,1,0.9046574768816701,0.0023559188122684953
919,919,0.5471821091424096,0.5,0,438.0,637.0,0.0,165.0,1,0.9825821832208109,0.004710161282730411
920,920,0.452184805808149,0.5,0,474.0,955.0,0.0,301.0,1,0.29416528909705686,0.00012199626772721572
921,921,-0.6437793357414046,-0.6,1,341.0,694.0,1.0,175.0,1,0.07957369331540154,0.004435012705838321
922,922,0.18414573155346603,0.2,0,379.0,756.0,0.0,475.0,1,0.825827337176357,0.0001750023067222195
923,923,0.7097303431887838,0.7,0,419.0,887.0,0.0,114.0,1,0.8161342121865944,0.002929572983252589
924,924,0.5804481745134884,0.6,0,309.0,965.0,0.0,196.0,1,0.7732727800039033,0.0015528873672670984
925,925,-0.7919475435485304,-0.8,1,365.0,691.0,1.0,204.0,1,0.07084244642629522,0.001128803896641787
926,926,-0.5638653902575843,-0.6,1,282.0,855.0,1.0,283.0,1,0.23330301018319688,0.0009344959277834602
927,927,-0.16909022562998266,-0.2,1,292.0,621.0,1.0,227.0,1,0.8677722817485223,0.004958092891477119
928,928,0.5107033186138552,0.5,0,461.0,628.0,0.0,321.0,1,0.31156303904761873,0.0018330926681235688
929,929,0.5129452164361021,0.5,0,324.0,730.0,0.0,196.0,1,0.024332143345677126,0.0036844519698141054
930,930,0.48411464802478954,0.5,0,466.0,599.0,0.0,315.0,1,0.7982631804666706,0.0018900909705746444
931,931,-0.8744000139311141,-0.9,1,454.0,784.0,1.0,152.0,1,0.7989268597258635,0.0016091764932458597
932,932,-0.42553040284960786,-0.4,1,302.0,800.0,1.0,238.0,1,0.9074710333396925,0.0002908462730096667
933,933,0.5895217245717914,0.6,0,384.0,880.0,0.0,216.0,1,0.6525053918139421,0.001410126080236437
934,934,0.6761185426771501,0.7,0,442.0,795.0,0.0,143.0,1,0.8268986473005249,0.003318904014604833
935,935,-0.07509575521137823,-0.1,1,372.0,707.0,1.0,251.0,1,0.9617697764061325,0.001221807167721946
936,936,-0.5326131592621319,-0.5,1,309.0,795.0,1.0,546.0,1,0.6418794591533602,0.0004884132418263259
937,937,-0.4587211210521951,-0.5,1,495.0,547.0,1.0,258.0,1,0.7244145248423265,0.0002482157377495686
938,938,-0.8149347131131304,-0.8,1,343.0,581.0,1.0,116.0,1,0.5258674391471033,0.0031350039553849885
939,939,-0.5296413520647205,-0.5,1,350.0,540.0,1.0,210.0,1,0.4676471434302514,0.004624190014542808
940,940,-0.6120875318523742,-0.6,1,492.0,865.0,1.0,193.0,1,0.9202043540925492,0.0005466691701355819
941,941,0.5936318873007431,0.6,0,419.0,595.0,0.0,436.0,1,0.09874930893013556,0.0008232578648800215
942,942,-0.012684682793576485,-0.0,1,253.0,961.0,0.0,266.0,0,0.6090082609370513,0.004184616602625544
943,943,-0.7790726727946009,-0.8,1,490.0,572.0,1.0,158.0,1,0.9921466793376844,0.00213011101748655
944,944,0.5444759716295409,0.5,0,433.0,620.0,0.0,297.0,1,0.7386935843927653,0.0024652227564315394
945,945,-0.5733766720308828,-0.6,1,373.0,567.0,1.0,190.0,1,0.9922246767409585,0.003347344029172525
946,946,0.3314422966539381,0.3,0,367.0,581.0,0.0,252.0,1,0.9323939523175786,0.003920820344279101
947,947,-0.051527240285782705,-0.1,1,406.0,528.0,0.0,166.0,0,0.7206076876015575,0.001680435196284007
948,948,-0.9458098523776601,-0.9,1,470.0,555.0,1.0,205.0,1,0.041183014390915984,0.002112802947641014
949,949,0.8436518675721751,0.8,0,398.0,524.0,0.0,158.0,1,0.8011278830616674,0.0019898598676185587
950,950,0.4096359772274949,0.4,0,312.0,979.0,0.0,259.0,1,0.7822220984641626,0.004219959373500134
951,951,-0.13866219706978455,-0.1,1,288.0,701.0,1.0,321.0,1,0.2616890165129663,0.0019422170467764282
952,952,0.4054519653205697,0.4,0,349.0,824.0,0.0,227.0,1,0.4768749093185982,0.0028152707743406002
953,953,-0.8460946796462498,-0.8,1,316.0,650.0,1.0,144.0,1,0.5737188607442707,0.0013367801965151365
954,954,0.3497304326018522,0.3,0,271.0,814.0,0.0,295.0,1,0.7487417145529214,0.0010768998197138197
955,955,0.026202296612880538,0.0,0,374.0,501.0,1.0,265.0,0,0.6617077365682427,0.0028322506101137374
956,956,-0.9481155500278631,-0.9,1,364.0,692.0,1.0,174.0,1,0.9461804331609454,0.0037681679630467697
957,957,0.09348141146959965,0.1,0,266.0,834.0,0.0,200.0,1,0.862521481937699,0.003520034760596977
958,958,-0.5967709993878316,-0.6,1,482.0,839.0,1.0,279.0,1,0.7420180140948512,0.0008248257202280773
959,959,-0.657358594161096,-0.7,1,462.0,753.0,1.0,285.0,1,0.656647874668994,0.0025486493491300817
960,960,-0.9109022898658916,-0.9,1,457.0,533.0,1.0,130.0,1,0.997260952881032,0.00270038426092471
961,961,0.5569299305547668,0.6,0,404.0,627.0,0.0,169.0,1,0.5183375957298032,0.0038749758158663646
962,962,0.828022402724216,0.8,0,389.0,716.0,0.0,195.0,1,0.4480258051559406,0.002264578880486203
963,963,0.11095330742248177,0.1,0,291.0,532.0,1.0,177.0,0,0.8729504957168619,0.004344640802622699
964,964,0.7222763426701324,0.7,0,257.0,707.0,0.0,326.0,1,0.03723052699745377,0.00013991474419629778
965,965,0.8444880635198551,0.8,0,369.0,681.0,0.0,90.0,1,0.626886669081639,0.0019329778571164176
966,966,0.35273836426382266,0.4,0,389.0,963.0,0.0,258.0,1,0.07095459293758433,0.004193936005057588
967,967,-0.9346488471589267,-0.9,1,443.0,539.0,1.0,188.0,1,0.18332175088250702,0.003056401257072563
968,968,-0.25672022984062903,-0.3,1,469.0,840.0,1.0,291.0,1,0.719276048512843,0.0035607760695320003
969,969,-0.059941091244382294,-0.1,1,386.0,796.0,0.0,388.0,0,0.553035096506742,0.004354705842734401
970,970,-0.9980360450212356,-1.0,1,451.0,839.0,1.0,110.0,1,0.43766853940262396,0.004050492524168709
971,971,0.6588467640109679,0.7,0,412.0,786.0,0.0,352.0,1,0.09598080919915097,0.0032145507351088805
972,972,-0.8477763929308897,-0.8,1,472.0,976.0,1.0,272.0,1,0.24180124484280818,0.0011415964731573231
973,973,0.06390820502466843,0.1,0,412.0,755.0,0.0,223.0,1,0.4661353875917469,0.00425432734825399
974,974,-0.08067447153429108,-0.1,1,313.0,694.0,1.0,523.0,1,0.8347043470507574,0.000837911217288449
975,975,-0.5422962780680509,-0.5,1,332.0,610.0,1.0,158.0,1,0.718338664552326,0.003189857726268762
976,976,0.8562709538298126,0.9,0,368.0,874.0,0.0,238.0,1,0.3365179541489246,0.0013396100596526806
977,977,-0.4738600753975486,-0.5,1,407.0,584.0,1.0,189.0,1,0.9732597075353544,0.003071541206528315
978,978,-0.01822122893160283,-0.0,1,375.0,587.0,0.0,1148.0,0,0.2614448866640222,0.00017235796820028293
979,979,-0.12301962716070003,-0.1,1,386.0,530.0,1.0,394.0,1,0.09942324967016081,0.0026340411547324393
980,980,0.1135647476254471,0.1,0,290.0,710.0,0.0,230.0,1,0.8039366183834853,0.004430767730632246
981,981,-0.8307396911780227,-0.8,1,308.0,802.0,1.0,130.0,1,0.493940527143801,0.002296276255115121
982,982,-0.8892863996218296,-0.9,1,364.0,783.0,1.0,323.0,1,0.34563964355652677,0.003272617187812503
983,983,0.5233762067169507,0.5,0,428.0,829.0,0.0,253.0,1,0.5747542617265607,0.0036252328417618524
984,984,0.019357388273953502,0.0,0,462.0,988.0,0.0,340.0,1,0.6481504061306049,0.003951430641018279
985,985,-0.6391114425839552,-0.6,1,354.0,606.0,1.0,220.0,1,0.568335410155328,0.0027977132038526664
986,986,0.7880564985600895,0.8,0,376.0,710.0,0.0,234.0,1,0.919171610622022,0.0028486541904673064
987,987,-0.6571173257897704,-0.7,1,367.0,633.0,1.0,160.0,1,0.32841608382874077,0.0023875443111354344
988,988,-0.27277088883479306,-0.3,1,276.0,787.0,1.0,367.0,1,0.5286353217567028,0.0017293923287681702
989,989,0.9921357984635564,1.0,0,403.0,856.0,0.0,141.0,1,0.5513732417945855,0.003596856167077681
990,990,-0.23037786741028832,-0.2,1,450.0,549.0,1.0,351.0,1,0.6796072565795869,0.0020551318192942314
991,991,0.5489157476844857,0.5,0,452.0,893.0,0.0,215.0,1,0.6085774810178828,0.0019564177516980096
992,992,-0.5468276313230918,-0.5,1,268.0,635.0,1.0,157.0,1,0.6899987820226734,0.002441558640494914
993,993,-0.208372797809659,-0.2,1,436.0,720.0,1.0,334.0,1,0.5755532943799608,0.0018365192908833395
994,994,-0.729692267454354,-0.7,1,251.0,860.0,1.0,189.0,1,0.08941899776507067,0.0028961534909617403
995,995,-0.5350807824476114,-0.5,1,370.0,529.0,1.0,211.0,1,0.7474252302723231,0.0025012720442966576
996,996,0.7044816822514728,0.7,0,356.0,791.0,0.0,483.0,1,0.20576585421632188,0.0010988925582354919
997,997,-0.4179698044935849,-0.4,1,435.0,724.0,1.0,331.0,1,0.785670922917729,0.0016389270433603909
998,998,-0.9067914541672408,-0.9,1,412.0,881.0,1.0,227.0,1,0.568758803669675,0.001525014100465174
999,999,-0.7069818514461976,-0.7,1,488.0,598.0,1.0,234.0,1,0.47016283734284037,0.00043143550292448264
1000,1000,-0.9338691579812,-0.9,1,427.0,879.0,1.0,264.0,1,0.20303811847255226,0.001886164008755238
1001,1001,-0.6746261138293461,-0.7,1,369.0,584.0,1.0,257.0,1,0.11020984639316855,0.001781755645082423
1002,1002,0.9665057063901463,1.0,0,311.0,992.0,0.0,277.0,1,0.6266632494202283,0.00014973160841590894
1003,1003,-0.4468756970335197,-0.4,1,425.0,661.0,1.0,174.0,1,0.3125712184699052,0.003278178153365626
1004,1004,-0.9055241542125445,-0.9,1,454.0,947.0,1.0,299.0,1,0.5658895959893664,0.0017397600660738588
1005,1005,-0.9364934746365907,-0.9,1,329.0,989.0,1.0,232.0,1,0.16743178097156608,0.002697238856514081
1006,1006,0.09314197114310718,0.1,0,344.0,970.0,0.0,226.0,1,0.9478103084337193,0.00032020726892903473
1007,1007,-0.03342624676950945,-0.0,1,387.0,555.0,1.0,278.0,1,0.550481218246532,0.0045293070909513565
1008,1008,-0.20433177933079305,-0.2,1,404.0,902.0,1.0,214.0,1,0.6721670934592573,0.003363561559761508
1009,1009,0.4686004008518285,0.5,0,283.0,668.0,0.0,549.0,1,0.30443549571154116,3.507120115183671e-05
