,trial,coherence,coherence_bin,correct_side,target_onset,checker_onset,decision,decision_time,correct_decision
0,0,0.5927311057384177,0.8,True,471.0,581.0,0.0,478.0,0
1,1,0.7627076290579324,0.9,True,446.0,511.0,0.0,253.0,0
2,2,-0.235444563814174,0.4,True,285.0,987.0,1.0,588.0,1
3,3,-0.4667709185349951,0.3,True,256.0,779.0,1.0,285.0,1
4,4,0.11453497965385995,0.6,True,476.0,886.0,0.0,438.0,0
5,5,0.559971675859884,0.8,True,262.0,996.0,0.0,392.0,0
6,6,0.6126555935182321,0.8,True,389.0,746.0,0.0,285.0,0
7,7,0.9935465393958467,1.0,True,351.0,697.0,0.0,222.0,0
8,8,-0.18013032547269758,0.4,True,422.0,952.0,1.0,556.0,1
9,9,-0.6144101957113548,0.2,True,431.0,838.0,1.0,231.0,1
10,10,0.7843493991903396,0.9,True,365.0,575.0,0.0,280.0,0
11,11,0.7736949816858196,0.9,True,312.0,984.0,0.0,244.0,0
12,12,-0.049488842096468755,0.5,True,468.0,651.0,1.0,711.0,1
13,13,0.27697571787719455,0.6,True,374.0,978.0,0.0,668.0,0
14,14,0.9618026012555567,1.0,True,404.0,873.0,0.0,233.0,0
15,15,0.6275555410184761,0.8,True,338.0,979.0,0.0,263.0,0
16,16,-0.6241208151007229,0.2,True,277.0,648.0,1.0,235.0,1
17,17,-0.8567023755820791,0.1,True,493.0,557.0,1.0,220.0,1
18,18,0.8890465002957262,0.9,True,477.0,888.0,0.0,215.0,0
19,19,0.9943670284687067,1.0,True,365.0,713.0,0.0,252.0,0
20,20,-0.11165346113628538,0.4,True,440.0,618.0,1.0,772.0,1
21,21,0.2535033051965403,0.6,True,294.0,563.0,0.0,513.0,0
22,22,-0.8212657109012227,0.1,True,307.0,842.0,1.0,261.0,1
23,23,-0.10178622395554071,0.4,True,254.0,684.0,1.0,922.0,1
24,24,0.24035588243459483,0.6,True,487.0,710.0,0.0,553.0,0
25,25,0.96229918950219,1.0,True,390.0,848.0,0.0,262.0,0
26,26,0.858371011229544,0.9,True,270.0,683.0,0.0,247.0,0
27,27,-0.3206765230848634,0.3,True,383.0,591.0,1.0,246.0,1
28,28,-0.6198796214545736,0.2,True,452.0,593.0,1.0,215.0,1
29,29,-0.9428898482728694,0.0,True,316.0,585.0,1.0,229.0,1
30,30,0.7766342991320614,0.9,True,351.0,793.0,0.0,256.0,0
31,31,-0.8607668302923119,0.1,True,368.0,940.0,1.0,232.0,1
32,32,-0.9988440006643173,0.0,True,337.0,996.0,1.0,217.0,1
33,33,0.4096537257184447,0.7,True,275.0,927.0,0.0,368.0,0
34,34,0.5899499713616778,0.8,True,482.0,829.0,0.0,279.0,0
35,35,-0.4616142593348118,0.3,True,371.0,858.0,1.0,221.0,1
36,36,0.9826370149974106,1.0,True,415.0,790.0,0.0,375.0,0
37,37,0.30720690510510495,0.7,True,363.0,512.0,0.0,425.0,0
38,38,-0.9654743950283988,0.0,True,336.0,549.0,1.0,225.0,1
39,39,0.04880064390854022,0.5,True,349.0,902.0,0.0,3749.0,0
40,40,-0.11954312569579861,0.4,True,353.0,765.0,1.0,532.0,1
41,41,-0.059782637944199246,0.5,True,264.0,619.0,1.0,897.0,1
42,42,-0.7783949622267616,0.1,True,272.0,610.0,1.0,228.0,1
43,43,-0.7164789334176145,0.1,True,283.0,775.0,1.0,222.0,1
44,44,-0.07315654530342486,0.5,True,431.0,652.0,1.0,667.0,1
45,45,0.8922879281003548,0.9,True,299.0,780.0,0.0,261.0,0
46,46,-0.3030152411537479,0.3,True,465.0,653.0,1.0,262.0,1
47,47,-0.7240800305733368,0.1,True,260.0,941.0,1.0,229.0,1
48,48,-0.9600223871651559,0.0,True,418.0,729.0,1.0,253.0,1
49,49,0.9140903636834519,1.0,True,292.0,740.0,0.0,238.0,0
50,50,0.5127633688652184,0.8,True,470.0,821.0,0.0,319.0,0
51,51,-0.30772785733618213,0.3,True,482.0,713.0,1.0,245.0,1
52,52,0.8582441838253809,0.9,True,276.0,598.0,0.0,246.0,0
53,53,-0.6158510487784854,0.2,True,329.0,831.0,1.0,240.0,1
54,54,-0.30587514623448464,0.3,True,337.0,939.0,1.0,244.0,1
55,55,0.6222530032708122,0.8,True,443.0,718.0,0.0,409.0,0
56,56,0.9020948053162878,1.0,True,491.0,645.0,0.0,234.0,0
57,57,-0.0828506558458042,0.5,True,329.0,794.0,1.0,727.0,1
58,58,-0.7888651043743291,0.1,True,439.0,974.0,1.0,237.0,1
59,59,-0.6565098663271223,0.2,True,262.0,916.0,1.0,222.0,1
60,60,-0.827484675393847,0.1,True,391.0,942.0,1.0,237.0,1
61,61,-0.8361434539530506,0.1,True,442.0,627.0,1.0,271.0,1
62,62,0.6924624837055593,0.8,True,328.0,951.0,0.0,391.0,0
63,63,0.6292480119917516,0.8,True,307.0,565.0,0.0,288.0,0
64,64,-0.44164787787651694,0.3,True,498.0,707.0,1.0,265.0,1
65,65,0.4046736223472549,0.7,True,253.0,661.0,0.0,466.0,0
66,66,-0.3030386531000726,0.3,True,423.0,806.0,1.0,251.0,1
67,67,0.5439078383936353,0.8,True,295.0,929.0,0.0,276.0,0
68,68,-0.39156963531639,0.3,True,275.0,967.0,1.0,258.0,1
69,69,0.8379878220525245,0.9,True,391.0,716.0,0.0,423.0,0
70,70,-0.18881945113632215,0.4,True,479.0,558.0,1.0,363.0,1
71,71,0.4207671366885395,0.7,True,409.0,609.0,0.0,492.0,0
72,72,0.9453718306029717,1.0,True,317.0,605.0,0.0,238.0,0
73,73,-0.09487814459879362,0.5,True,402.0,929.0,1.0,499.0,1
74,74,-0.6394066854974763,0.2,True,407.0,553.0,1.0,250.0,1
75,75,-0.09137816878615967,0.5,True,470.0,882.0,1.0,668.0,1
76,76,-0.3648841143855239,0.3,True,310.0,653.0,1.0,237.0,1
77,77,-0.9498099443277408,0.0,True,345.0,670.0,1.0,225.0,1
78,78,0.3347078332347664,0.7,True,437.0,814.0,0.0,529.0,0
79,79,-0.8872140869809542,0.1,True,342.0,801.0,1.0,247.0,1
80,80,0.24629809020099125,0.6,True,329.0,589.0,0.0,532.0,0
81,81,0.555235017380453,0.8,True,487.0,977.0,0.0,246.0,0
82,82,0.0320913518280741,0.5,True,369.0,582.0,0.0,4049.0,0
83,83,0.14538100054320502,0.6,True,308.0,842.0,0.0,720.0,0
84,84,-0.7612852367268708,0.1,True,362.0,841.0,1.0,237.0,1
85,85,-0.21077074095795356,0.4,True,303.0,612.0,1.0,345.0,1
86,86,-0.8669569065780929,0.1,True,261.0,925.0,1.0,204.0,1
87,87,0.8495578157909169,0.9,True,262.0,900.0,0.0,248.0,0
88,88,-0.4240347329474463,0.3,True,480.0,951.0,1.0,459.0,1
89,89,-0.5342291221244204,0.2,True,356.0,902.0,1.0,332.0,1
90,90,-0.04905422143699578,0.5,True,363.0,804.0,1.0,343.0,1
91,91,0.3368714172314853,0.7,True,306.0,763.0,0.0,431.0,0
92,92,0.9669971169031237,1.0,True,482.0,600.0,0.0,228.0,0
93,93,0.9893640783516231,1.0,True,479.0,693.0,0.0,258.0,0
94,94,0.006035733465209914,0.5,True,416.0,773.0,1.0,1461.0,1
95,95,0.974242035307634,1.0,True,456.0,603.0,0.0,241.0,0
96,96,-0.9611321439776035,0.0,True,320.0,637.0,1.0,243.0,1
97,97,0.5814156605522074,0.8,True,478.0,553.0,0.0,439.0,0
98,98,-0.4164741166867374,0.3,True,386.0,738.0,1.0,246.0,1
99,99,0.6918893851909618,0.8,True,293.0,935.0,0.0,412.0,0
100,100,-0.20436377328826127,0.4,True,261.0,851.0,1.0,518.0,1
101,101,-0.46856047597261874,0.3,True,367.0,903.0,1.0,260.0,1
102,102,-0.7613765859290809,0.1,True,466.0,980.0,1.0,224.0,1
103,103,-0.8938013839536794,0.1,True,392.0,776.0,1.0,202.0,1
104,104,-0.6637676370625034,0.2,True,452.0,573.0,1.0,245.0,1
105,105,0.7933321562687274,0.9,True,456.0,683.0,0.0,401.0,0
106,106,-0.5224494509906883,0.2,True,454.0,565.0,1.0,301.0,1
107,107,0.24452593964195501,0.6,True,486.0,950.0,0.0,574.0,0
108,108,-0.7234980918941569,0.1,True,354.0,818.0,1.0,258.0,1
109,109,-0.48457191726254156,0.3,True,418.0,673.0,1.0,209.0,1
110,110,-0.023858311542460875,0.5,True,468.0,973.0,1.0,1269.0,1
111,111,-0.715103705674113,0.1,True,378.0,762.0,1.0,320.0,1
112,112,0.8962400968511153,0.9,True,378.0,896.0,0.0,266.0,0
113,113,0.8420881540468528,0.9,True,270.0,974.0,0.0,266.0,0
114,114,-0.6235461218080103,0.2,True,288.0,845.0,1.0,237.0,1
115,115,0.8772056012080871,0.9,True,469.0,877.0,0.0,224.0,0
116,116,0.5525130176679061,0.8,True,368.0,966.0,0.0,266.0,0
117,117,0.6915472540228302,0.8,True,455.0,979.0,0.0,256.0,0
118,118,-0.09512031469272886,0.5,True,286.0,915.0,1.0,559.0,1
119,119,0.7548512765549364,0.9,True,401.0,515.0,0.0,264.0,0
120,120,-0.533992115648845,0.2,True,463.0,653.0,1.0,274.0,1
121,121,-0.3776934289742422,0.3,True,339.0,511.0,1.0,260.0,1
122,122,0.61597366307216,0.8,True,407.0,559.0,0.0,264.0,0
123,123,0.5050193012902351,0.8,True,454.0,591.0,0.0,375.0,0
124,124,-0.8961334859772763,0.1,True,446.0,729.0,1.0,225.0,1
125,125,-0.942239273715513,0.0,True,455.0,873.0,1.0,202.0,1
126,126,0.6325427617070518,0.8,True,281.0,849.0,0.0,280.0,0
127,127,0.5736481178546149,0.8,True,261.0,875.0,0.0,514.0,0
128,128,-0.18775766563651652,0.4,True,259.0,854.0,1.0,457.0,1
129,129,-0.9763479779647566,0.0,True,311.0,673.0,1.0,206.0,1
130,130,-0.11996309645109848,0.4,True,460.0,502.0,1.0,288.0,1
131,131,0.9291298089706195,1.0,True,468.0,925.0,0.0,347.0,0
132,132,0.6548761616854661,0.8,True,269.0,664.0,0.0,277.0,0
133,133,-0.5606647018934563,0.2,True,290.0,963.0,1.0,217.0,1
134,134,-0.7739690884970882,0.1,True,459.0,941.0,1.0,240.0,1
135,135,0.6007285196688819,0.8,True,497.0,878.0,0.0,295.0,0
136,136,-0.5949836302721341,0.2,True,341.0,947.0,1.0,232.0,1
137,137,0.7971171305571618,0.9,True,414.0,563.0,0.0,233.0,0
138,138,0.7108836259839846,0.9,True,437.0,789.0,0.0,284.0,0
139,139,-0.7214942384691534,0.1,True,338.0,973.0,1.0,249.0,1
140,140,0.7658316215887975,0.9,True,473.0,887.0,0.0,280.0,0
141,141,0.9628144667549319,1.0,True,435.0,881.0,0.0,254.0,0
142,142,-0.24623044493087587,0.4,True,297.0,661.0,1.0,262.0,1
143,143,0.6267320374191148,0.8,True,291.0,797.0,0.0,252.0,0
144,144,-0.46337958989127737,0.3,True,396.0,652.0,1.0,282.0,1
145,145,0.8240661950201211,0.9,True,455.0,582.0,0.0,263.0,0
146,146,-0.2079337160094319,0.4,True,422.0,721.0,1.0,687.0,1
147,147,0.7304358071314279,0.9,True,364.0,899.0,0.0,257.0,0
148,148,-0.1220768469482798,0.4,True,366.0,984.0,1.0,480.0,1
149,149,0.5611068571785571,0.8,True,457.0,653.0,0.0,430.0,0
150,150,-0.9814065996026147,0.0,True,420.0,748.0,1.0,222.0,1
151,151,-0.15143965302995244,0.4,True,473.0,607.0,1.0,520.0,1
152,152,0.28770613397474465,0.6,True,262.0,550.0,0.0,518.0,0
153,153,-0.09744774811815371,0.5,True,403.0,927.0,1.0,480.0,1
154,154,-0.18630475868947483,0.4,True,493.0,642.0,1.0,415.0,1
155,155,-0.2036274031458445,0.4,True,271.0,684.0,1.0,315.0,1
156,156,0.027020446648119423,0.5,True,323.0,958.0,1.0,3719.0,1
157,157,-0.47057677574002255,0.3,True,300.0,589.0,1.0,251.0,1
158,158,0.3372945061970438,0.7,True,287.0,830.0,0.0,763.0,0
159,159,-0.08033182609024281,0.5,True,250.0,566.0,1.0,964.0,1
160,160,0.20859955860648127,0.6,True,439.0,785.0,0.0,456.0,0
161,161,0.4625722777507979,0.7,True,344.0,896.0,0.0,250.0,0
162,162,-0.8862435198838936,0.1,True,296.0,874.0,1.0,240.0,1
163,163,0.5724739184001044,0.8,True,356.0,809.0,0.0,245.0,0
164,164,0.06422520172723512,0.5,True,393.0,812.0,0.0,2575.0,0
165,165,-0.9843075313039633,0.0,True,319.0,683.0,1.0,208.0,1
166,166,-0.5892799114439626,0.2,True,310.0,963.0,1.0,257.0,1
167,167,-0.9823758278404864,0.0,True,337.0,720.0,1.0,203.0,1
168,168,0.5815846654103245,0.8,True,485.0,846.0,0.0,489.0,0
169,169,-0.6889357596121355,0.2,True,402.0,690.0,1.0,258.0,1
170,170,0.5449369429873376,0.8,True,294.0,987.0,0.0,279.0,0
171,171,0.2085465899194725,0.6,True,379.0,751.0,0.0,790.0,0
172,172,0.8718403000824506,0.9,True,450.0,925.0,0.0,305.0,0
173,173,0.44752659145266493,0.7,True,496.0,694.0,0.0,520.0,0
174,174,0.6020780208648113,0.8,True,438.0,800.0,0.0,272.0,0
175,175,-0.8107762165925456,0.1,True,295.0,608.0,1.0,227.0,1
176,176,-0.9117187261014414,0.0,True,422.0,573.0,1.0,215.0,1
177,177,0.2897368718006599,0.6,True,290.0,644.0,0.0,816.0,0
178,178,-0.41385494830361624,0.3,True,285.0,523.0,1.0,262.0,1
179,179,-0.5462990080047816,0.2,True,465.0,860.0,1.0,225.0,1
180,180,-0.7081548339412926,0.1,True,400.0,635.0,1.0,235.0,1
181,181,0.4701595553976967,0.7,True,374.0,780.0,0.0,466.0,0
182,182,-0.8948215572379581,0.1,True,492.0,775.0,1.0,223.0,1
183,183,-0.01990351715354044,0.5,True,298.0,814.0,1.0,2158.0,1
184,184,0.8000141841250936,0.9,True,266.0,685.0,0.0,259.0,0
185,185,-0.2894521130215528,0.4,True,329.0,511.0,1.0,410.0,1
186,186,-0.2948189003780741,0.4,True,320.0,930.0,1.0,290.0,1
187,187,0.3362154901952916,0.7,True,310.0,979.0,0.0,491.0,0
188,188,-0.15330846949781174,0.4,True,277.0,865.0,1.0,568.0,1
189,189,0.8551559400720745,0.9,True,462.0,625.0,0.0,233.0,0
190,190,0.04913414312348019,0.5,True,377.0,593.0,0.0,3430.0,0
191,191,0.19297530637620275,0.6,True,306.0,621.0,0.0,483.0,0
192,192,0.8827703450068729,0.9,True,290.0,727.0,0.0,243.0,0
193,193,0.5945117883174977,0.8,True,419.0,515.0,0.0,296.0,0
194,194,-0.46384248237359316,0.3,True,308.0,800.0,1.0,442.0,1
195,195,0.5545218244429098,0.8,True,281.0,934.0,0.0,315.0,0
196,196,0.721131531802047,0.9,True,274.0,887.0,0.0,449.0,0
197,197,-0.019312903717332297,0.5,True,394.0,918.0,1.0,718.0,1
198,198,0.10030632761788083,0.6,True,447.0,518.0,0.0,1865.0,0
199,199,0.6203533971936679,0.8,True,473.0,946.0,0.0,341.0,0
200,200,0.5606910161644085,0.8,True,463.0,835.0,0.0,292.0,0
201,201,0.24022358405992428,0.6,True,295.0,601.0,0.0,524.0,0
202,202,-0.0486566626816991,0.5,True,304.0,643.0,1.0,793.0,1
203,203,-0.09419532258201468,0.5,True,340.0,917.0,1.0,523.0,1
204,204,-0.27805284691987,0.4,True,449.0,639.0,1.0,412.0,1
205,205,-0.3634057364241603,0.3,True,387.0,886.0,1.0,257.0,1
206,206,-0.6177501860127541,0.2,True,461.0,884.0,1.0,245.0,1
207,207,-0.2107371245117846,0.4,True,318.0,837.0,1.0,315.0,1
208,208,-0.03955510302501963,0.5,True,422.0,954.0,1.0,1224.0,1
209,209,0.7647604555452394,0.9,True,434.0,814.0,0.0,302.0,0
210,210,-0.9393336422571659,0.0,True,475.0,806.0,1.0,229.0,1
211,211,-0.9796070200267679,0.0,True,470.0,709.0,1.0,231.0,1
212,212,-0.5175629249639666,0.2,True,367.0,609.0,1.0,224.0,1
213,213,-0.8974543375669362,0.1,True,400.0,945.0,1.0,235.0,1
214,214,0.860959888658724,0.9,True,261.0,623.0,0.0,246.0,0
215,215,-0.042366264686039656,0.5,True,426.0,867.0,1.0,1017.0,1
216,216,-0.5021728111776529,0.2,True,430.0,881.0,1.0,239.0,1
217,217,-0.04851750468533633,0.5,True,344.0,737.0,1.0,1309.0,1
218,218,0.7459224699390616,0.9,True,403.0,840.0,0.0,367.0,0
219,219,0.10301752194954772,0.6,True,262.0,611.0,0.0,1067.0,0
220,220,0.9238706248645137,1.0,True,354.0,804.0,0.0,272.0,0
221,221,-0.7168856436355047,0.1,True,400.0,797.0,1.0,223.0,1
222,222,-0.34300320845988996,0.3,True,460.0,887.0,1.0,493.0,1
223,223,0.24374058057030412,0.6,True,475.0,914.0,0.0,411.0,0
224,224,-0.36436048380242014,0.3,True,422.0,654.0,1.0,274.0,1
225,225,0.09432859510550151,0.5,True,258.0,707.0,0.0,1135.0,0
226,226,0.8495230105506928,0.9,True,429.0,891.0,0.0,270.0,0
227,227,0.12802428065565596,0.6,True,461.0,765.0,0.0,844.0,0
228,228,0.9111908834664859,1.0,True,335.0,676.0,0.0,209.0,0
229,229,0.6971722625688717,0.8,True,323.0,652.0,0.0,285.0,0
230,230,-0.6232804786767596,0.2,True,469.0,979.0,1.0,252.0,1
231,231,-0.8021204114686151,0.1,True,410.0,645.0,1.0,235.0,1
232,232,0.7632406413564106,0.9,True,401.0,616.0,0.0,273.0,0
233,233,-0.8287725977979463,0.1,True,274.0,508.0,1.0,278.0,1
234,234,0.3829220588311075,0.7,True,469.0,859.0,0.0,452.0,0
235,235,-0.35842655319659755,0.3,True,361.0,808.0,1.0,231.0,1
236,236,0.6715070448892746,0.8,True,483.0,839.0,0.0,478.0,0
237,237,-0.9368724020186265,0.0,True,335.0,740.0,1.0,215.0,1
238,238,0.8335587968469833,0.9,True,471.0,850.0,0.0,279.0,0
239,239,0.6920465461007084,0.8,True,438.0,767.0,0.0,275.0,0
240,240,-0.6546332644563411,0.2,True,465.0,618.0,1.0,207.0,1
241,241,-0.8996308149599725,0.1,True,455.0,800.0,1.0,215.0,1
242,242,-0.42691555322369723,0.3,True,281.0,867.0,1.0,262.0,1
243,243,-0.6869099215493659,0.2,True,263.0,879.0,1.0,198.0,1
244,244,0.6452112965537844,0.8,True,354.0,711.0,0.0,265.0,0
245,245,0.3320660823139656,0.7,True,303.0,971.0,0.0,516.0,0
246,246,0.058947534807126,0.5,True,313.0,612.0,0.0,2425.0,0
247,247,-0.16166601937003633,0.4,True,479.0,614.0,1.0,607.0,1
248,248,0.4612707075595852,0.7,True,333.0,855.0,0.0,402.0,0
249,249,-0.7405099717857524,0.1,True,326.0,906.0,1.0,248.0,1
250,250,-0.12446468312946957,0.4,True,419.0,564.0,1.0,807.0,1
251,251,-0.8811151325787603,0.1,True,476.0,695.0,1.0,259.0,1
252,252,-0.5395573783251819,0.2,True,282.0,625.0,1.0,243.0,1
253,253,0.6569228202008934,0.8,True,304.0,569.0,0.0,297.0,0
254,254,0.3655878801977497,0.7,True,414.0,883.0,0.0,493.0,0
255,255,0.14818931596600549,0.6,True,300.0,567.0,0.0,1043.0,0
256,256,-0.9689635215772452,0.0,True,477.0,989.0,1.0,204.0,1
257,257,0.7837217226028501,0.9,True,386.0,966.0,0.0,268.0,0
258,258,0.6516101077208896,0.8,True,332.0,707.0,0.0,341.0,0
259,259,-0.8109932636640755,0.1,True,355.0,667.0,1.0,238.0,1
260,260,0.27365854981095783,0.6,True,412.0,743.0,0.0,445.0,0
261,261,0.366165202026953,0.7,True,303.0,992.0,0.0,385.0,0
262,262,-0.0007918278218781438,0.5,True,254.0,590.0,1.0,1236.0,1
263,263,-0.6822753400199728,0.2,True,405.0,876.0,1.0,249.0,1
264,264,0.015235608658501931,0.5,True,444.0,820.0,1.0,3736.0,1
265,265,0.3790245112520807,0.7,True,384.0,580.0,0.0,316.0,0
266,266,-0.19165700984571554,0.4,True,250.0,674.0,1.0,446.0,1
267,267,-0.17294315155784434,0.4,True,326.0,971.0,1.0,373.0,1
268,268,-0.23956258167732658,0.4,True,394.0,856.0,1.0,420.0,1
269,269,-0.6219159187125627,0.2,True,312.0,638.0,1.0,230.0,1
270,270,0.11802433490778275,0.6,True,357.0,507.0,0.0,1066.0,0
271,271,0.050041201014419334,0.5,True,378.0,918.0,0.0,3704.0,0
272,272,-0.5452411173099692,0.2,True,491.0,710.0,1.0,229.0,1
273,273,0.628217433200281,0.8,True,313.0,982.0,0.0,245.0,0
274,274,0.2736958294220424,0.6,True,281.0,723.0,0.0,356.0,0
275,275,0.9234640929242199,1.0,True,252.0,923.0,0.0,245.0,0
276,276,0.630884496360997,0.8,True,332.0,906.0,0.0,212.0,0
277,277,-0.7225835736268902,0.1,True,499.0,676.0,1.0,245.0,1
278,278,-0.7915086270184162,0.1,True,414.0,535.0,1.0,221.0,1
279,279,-0.8121742338271014,0.1,True,440.0,782.0,1.0,238.0,1
280,280,0.8262691448582742,0.9,True,250.0,595.0,0.0,255.0,0
281,281,0.03384349230885331,0.5,True,258.0,695.0,0.0,4047.0,0
282,282,0.3476410931584706,0.7,True,429.0,745.0,0.0,486.0,0
283,283,-0.7605171001219344,0.1,True,331.0,934.0,1.0,265.0,1
284,284,-0.9107741968809873,0.0,True,421.0,990.0,1.0,209.0,1
285,285,-0.49958326922324425,0.3,True,270.0,740.0,1.0,230.0,1
286,286,0.6433420190347217,0.8,True,458.0,919.0,0.0,263.0,0
287,287,-0.7276459896337648,0.1,True,397.0,812.0,1.0,231.0,1
288,288,-0.3389140076752055,0.3,True,339.0,878.0,1.0,243.0,1
289,289,0.44841320274663055,0.7,True,255.0,539.0,0.0,426.0,0
290,290,0.6190065561906715,0.8,True,418.0,546.0,0.0,246.0,0
291,291,0.16005127868938218,0.6,True,422.0,555.0,0.0,343.0,0
292,292,0.5610924095718792,0.8,True,389.0,652.0,0.0,269.0,0
293,293,-0.35011985579749694,0.3,True,320.0,712.0,1.0,238.0,1
294,294,0.04396947476491575,0.5,True,333.0,746.0,0.0,3751.0,0
295,295,-0.2621421456502666,0.4,True,378.0,980.0,1.0,492.0,1
296,296,-0.8132268851871449,0.1,True,479.0,658.0,1.0,203.0,1
297,297,-0.7234018855778945,0.1,True,301.0,598.0,1.0,221.0,1
298,298,-0.6828772399670429,0.2,True,320.0,956.0,1.0,234.0,1
299,299,-0.7829988989386545,0.1,True,452.0,877.0,1.0,211.0,1
300,300,-0.8668229267683101,0.1,True,451.0,930.0,1.0,219.0,1
301,301,-0.5745519124957408,0.2,True,375.0,790.0,1.0,265.0,1
302,302,-0.2853689271845523,0.4,True,354.0,637.0,1.0,279.0,1
303,303,0.08268224948581837,0.5,True,281.0,610.0,0.0,1209.0,0
304,304,0.7862220727064209,0.9,True,271.0,712.0,0.0,237.0,0
305,305,-0.18372190664156896,0.4,True,356.0,579.0,1.0,785.0,1
306,306,-0.4632188974478715,0.3,True,430.0,603.0,1.0,247.0,1
307,307,-0.22657263509699255,0.4,True,453.0,633.0,1.0,404.0,1
308,308,-0.4040253326863177,0.3,True,430.0,655.0,1.0,245.0,1
309,309,0.7106826712780325,0.9,True,499.0,922.0,0.0,259.0,0
310,310,0.9452998380027964,1.0,True,274.0,799.0,0.0,267.0,0
311,311,-0.24240250641163508,0.4,True,405.0,507.0,1.0,278.0,1
312,312,0.3545761755234924,0.7,True,423.0,912.0,0.0,515.0,0
313,313,0.30436210691507304,0.7,True,305.0,976.0,0.0,459.0,0
314,314,-0.07840924711548158,0.5,True,436.0,811.0,1.0,793.0,1
315,315,0.5374427679495561,0.8,True,483.0,994.0,0.0,383.0,0
316,316,0.06547982581605782,0.5,True,319.0,571.0,0.0,2740.0,0
317,317,0.7881642584846651,0.9,True,250.0,863.0,0.0,267.0,0
318,318,0.16757444373041275,0.6,True,389.0,660.0,0.0,491.0,0
319,319,-0.2680055376166397,0.4,True,439.0,689.0,1.0,512.0,1
320,320,0.40481712543633397,0.7,True,328.0,853.0,0.0,489.0,0
321,321,0.4211642087189107,0.7,True,397.0,859.0,0.0,424.0,0
322,322,-0.3587068475012638,0.3,True,436.0,776.0,1.0,278.0,1
323,323,-0.6307306558556227,0.2,True,366.0,793.0,1.0,231.0,1
324,324,0.6447363205097218,0.8,True,282.0,604.0,0.0,344.0,0
325,325,0.31762848157271395,0.7,True,457.0,678.0,0.0,435.0,0
326,326,-0.6504517842087096,0.2,True,300.0,762.0,1.0,208.0,1
327,327,0.24247198662567526,0.6,True,437.0,856.0,0.0,577.0,0
328,328,-0.5325784475461903,0.2,True,356.0,862.0,1.0,262.0,1
329,329,-0.1345034701322534,0.4,True,498.0,574.0,1.0,618.0,1
330,330,-0.9607101221746348,0.0,True,267.0,541.0,1.0,232.0,1
331,331,-0.4132722721848845,0.3,True,458.0,593.0,1.0,279.0,1
332,332,0.5675414655207167,0.8,True,451.0,955.0,0.0,374.0,0
333,333,-0.2580274965322813,0.4,True,442.0,859.0,1.0,259.0,1
334,334,0.6139983847729074,0.8,True,299.0,698.0,0.0,313.0,0
335,335,-0.7307748972566765,0.1,True,465.0,930.0,1.0,235.0,1
336,336,0.3186444440010707,0.7,True,461.0,953.0,0.0,456.0,0
337,337,-0.08206914558424527,0.5,True,463.0,884.0,1.0,573.0,1
338,338,-0.9865281417682912,0.0,True,362.0,861.0,1.0,207.0,1
339,339,-0.8388958119854146,0.1,True,456.0,566.0,1.0,248.0,1
340,340,0.2615217506316354,0.6,True,438.0,627.0,0.0,385.0,0
341,341,0.6306001687285641,0.8,True,336.0,967.0,0.0,457.0,0
342,342,-0.7544002412169881,0.1,True,351.0,849.0,1.0,250.0,1
343,343,0.18253806996356192,0.6,True,366.0,600.0,0.0,524.0,0
344,344,-0.4219227623739339,0.3,True,257.0,590.0,1.0,273.0,1
345,345,-0.9680705380818757,0.0,True,306.0,598.0,1.0,216.0,1
346,346,0.36685348711022736,0.7,True,307.0,807.0,0.0,486.0,0
347,347,0.32004257268858805,0.7,True,257.0,669.0,0.0,564.0,0
348,348,-0.8580816322198286,0.1,True,296.0,576.0,1.0,248.0,1
349,349,-0.14375310076259917,0.4,True,301.0,896.0,1.0,303.0,1
350,350,-0.877282311060662,0.1,True,382.0,675.0,1.0,243.0,1
351,351,-0.023352741468457783,0.5,True,384.0,761.0,1.0,1825.0,1
352,352,0.7005259138351305,0.9,True,266.0,559.0,0.0,265.0,0
353,353,-0.9841169339791627,0.0,True,323.0,682.0,1.0,215.0,1
354,354,0.014404434020028445,0.5,True,326.0,821.0,0.0,3853.0,0
355,355,-0.5665041335754744,0.2,True,488.0,516.0,1.0,276.0,1
356,356,-0.4999453826766411,0.3,True,362.0,840.0,1.0,258.0,1
357,357,0.2656405911285913,0.6,True,336.0,819.0,0.0,295.0,0
358,358,-0.04832715368399265,0.5,True,474.0,677.0,1.0,689.0,1
359,359,-0.5685066199037203,0.2,True,282.0,981.0,1.0,277.0,1
360,360,0.860797064101209,0.9,True,254.0,902.0,0.0,234.0,0
361,361,-0.6917755212057974,0.2,True,495.0,601.0,1.0,274.0,1
362,362,0.9196261385971591,1.0,True,319.0,948.0,0.0,293.0,0
363,363,0.677469847615912,0.8,True,256.0,835.0,0.0,419.0,0
364,364,0.6368727126255791,0.8,True,447.0,761.0,0.0,292.0,0
365,365,0.9316623706619487,1.0,True,382.0,949.0,0.0,229.0,0
366,366,-0.7631056590802989,0.1,True,327.0,579.0,1.0,264.0,1
367,367,0.38642093827326107,0.7,True,480.0,787.0,0.0,293.0,0
368,368,-0.8452410570554225,0.1,True,265.0,887.0,1.0,258.0,1
369,369,-0.5328934885666248,0.2,True,353.0,957.0,1.0,240.0,1
370,370,0.6794739193860491,0.8,True,312.0,952.0,0.0,276.0,0
371,371,-0.4416021224157658,0.3,True,405.0,994.0,1.0,241.0,1
372,372,0.9652833630187498,1.0,True,332.0,548.0,0.0,210.0,0
373,373,0.8042433662395168,0.9,True,311.0,896.0,0.0,253.0,0
374,374,-0.050742697980008744,0.5,True,252.0,697.0,1.0,461.0,1
375,375,0.285561676552351,0.6,True,431.0,979.0,0.0,740.0,0
376,376,0.22222787409345313,0.6,True,446.0,863.0,0.0,931.0,0
377,377,0.211539932995517,0.6,True,434.0,505.0,0.0,741.0,0
378,378,0.9750755151014696,1.0,True,317.0,958.0,0.0,275.0,0
379,379,-0.3261984746452251,0.3,True,326.0,735.0,1.0,319.0,1
380,380,0.19521755432492194,0.6,True,250.0,850.0,0.0,830.0,0
381,381,0.9184379451613987,1.0,True,432.0,707.0,0.0,301.0,0
382,382,-0.9491070629013871,0.0,True,288.0,640.0,1.0,202.0,1
383,383,-0.4138816009555013,0.3,True,282.0,942.0,1.0,246.0,1
384,384,0.5054057235229945,0.8,True,453.0,563.0,0.0,274.0,0
385,385,-0.7257333425036772,0.1,True,462.0,768.0,1.0,220.0,1
386,386,0.9955055750657409,1.0,True,362.0,598.0,0.0,270.0,0
387,387,-0.24851843737172752,0.4,True,305.0,981.0,1.0,424.0,1
388,388,-0.6326034839434829,0.2,True,254.0,501.0,1.0,235.0,1
389,389,0.14930019624866775,0.6,True,347.0,960.0,0.0,863.0,0
390,390,-0.2079273399437509,0.4,True,356.0,838.0,1.0,466.0,1
391,391,0.020667733596261728,0.5,True,454.0,575.0,0.0,3971.0,0
392,392,0.7164964658231241,0.9,True,330.0,908.0,0.0,222.0,0
393,393,-0.10931795082948148,0.4,True,337.0,548.0,1.0,465.0,1
394,394,-0.2883490272596674,0.4,True,406.0,689.0,1.0,275.0,1
395,395,-0.6857671858472449,0.2,True,401.0,529.0,1.0,220.0,1
396,396,0.8318724499450643,0.9,True,384.0,607.0,0.0,269.0,0
397,397,-0.36698582728612417,0.3,True,360.0,612.0,1.0,258.0,1
398,398,-0.8787426937171783,0.1,True,374.0,704.0,1.0,232.0,1
399,399,0.5370545080924394,0.8,True,330.0,972.0,0.0,508.0,0
400,400,-0.5960927075538274,0.2,True,456.0,731.0,1.0,233.0,1
401,401,-0.04355434431893568,0.5,True,409.0,800.0,1.0,2331.0,1
402,402,-0.1603644815769183,0.4,True,439.0,786.0,1.0,405.0,1
403,403,-0.519269225244499,0.2,True,349.0,790.0,1.0,231.0,1
404,404,0.7424771337901896,0.9,True,436.0,786.0,0.0,298.0,0
405,405,-0.9637723828726084,0.0,True,451.0,990.0,1.0,209.0,1
406,406,0.7939311574564192,0.9,True,373.0,656.0,0.0,431.0,0
407,407,0.32922556056413654,0.7,True,446.0,668.0,0.0,356.0,0
408,408,-0.14674480687468727,0.4,True,298.0,593.0,1.0,569.0,1
409,409,-0.9275098082781259,0.0,True,339.0,776.0,1.0,235.0,1
410,410,-0.4256026812035152,0.3,True,391.0,986.0,1.0,223.0,1
411,411,0.22092014903428092,0.6,True,339.0,502.0,0.0,789.0,0
412,412,0.9604229307223755,1.0,True,360.0,853.0,0.0,247.0,0
413,413,0.03826382038981402,0.5,True,386.0,916.0,0.0,1638.0,0
414,414,-0.5133606284837737,0.2,True,445.0,879.0,1.0,236.0,1
415,415,-0.7745226178605014,0.1,True,255.0,961.0,1.0,224.0,1
416,416,0.6961172484899363,0.8,True,291.0,631.0,0.0,248.0,0
417,417,0.4933647255962117,0.7,True,451.0,740.0,0.0,259.0,0
418,418,0.5523784019504783,0.8,True,396.0,531.0,0.0,393.0,0
419,419,0.1779697969512386,0.6,True,280.0,807.0,0.0,503.0,0
420,420,-0.4854036360277527,0.3,True,390.0,846.0,1.0,244.0,1
421,421,0.6523390716989075,0.8,True,293.0,858.0,0.0,369.0,0
422,422,0.23839672575083326,0.6,True,270.0,890.0,0.0,480.0,0
423,423,-0.8735415424101067,0.1,True,321.0,884.0,1.0,225.0,1
424,424,0.0007348014853427731,0.5,True,488.0,583.0,1.0,1089.0,1
425,425,0.46664155819150976,0.7,True,365.0,509.0,0.0,486.0,0
426,426,-0.7516176367719638,0.1,True,317.0,904.0,1.0,229.0,1
427,427,-0.2579420483972428,0.4,True,262.0,812.0,1.0,436.0,1
428,428,-0.5352625994871161,0.2,True,349.0,615.0,1.0,256.0,1
429,429,0.960221504089944,1.0,True,417.0,640.0,0.0,233.0,0
430,430,0.35375723054055697,0.7,True,436.0,930.0,0.0,344.0,0
431,431,-0.5513666814846117,0.2,True,360.0,782.0,1.0,258.0,1
432,432,0.4322022223536435,0.7,True,313.0,563.0,0.0,334.0,0
433,433,-0.869556207640376,0.1,True,266.0,966.0,1.0,268.0,1
434,434,0.9763154857453635,1.0,True,470.0,908.0,0.0,212.0,0
435,435,0.29877779626090795,0.6,True,294.0,914.0,0.0,722.0,0
436,436,-0.34981347001437646,0.3,True,383.0,601.0,1.0,246.0,1
437,437,0.9175469586831155,1.0,True,467.0,782.0,0.0,231.0,0
438,438,0.44916947929845197,0.7,True,261.0,543.0,0.0,306.0,0
439,439,-0.2118180934353655,0.4,True,419.0,767.0,1.0,664.0,1
440,440,-0.14098082533171863,0.4,True,308.0,844.0,1.0,298.0,1
441,441,-0.7438661752144526,0.1,True,275.0,892.0,1.0,253.0,1
442,442,0.960106250047092,1.0,True,451.0,525.0,0.0,244.0,0
443,443,-0.23095112486847325,0.4,True,483.0,656.0,1.0,491.0,1
444,444,0.5993065589175324,0.8,True,326.0,578.0,0.0,266.0,0
445,445,-0.6640801250468531,0.2,True,484.0,851.0,1.0,225.0,1
446,446,-0.7640955506702083,0.1,True,339.0,567.0,1.0,234.0,1
447,447,-0.7562858171225884,0.1,True,499.0,888.0,1.0,223.0,1
448,448,0.33566888179830867,0.7,True,377.0,511.0,0.0,532.0,0
449,449,0.38742620281605267,0.7,True,495.0,870.0,0.0,535.0,0
450,450,-0.7653491139480024,0.1,True,363.0,502.0,1.0,245.0,1
451,451,0.3075274071924228,0.7,True,281.0,666.0,0.0,523.0,0
452,452,0.6020383531285529,0.8,True,262.0,671.0,0.0,377.0,0
453,453,-0.03952289107918738,0.5,True,326.0,705.0,1.0,779.0,1
454,454,0.6141696387736999,0.8,True,415.0,568.0,0.0,427.0,0
455,455,-0.5661158533546575,0.2,True,308.0,807.0,1.0,265.0,1
456,456,-0.26007921464004724,0.4,True,481.0,609.0,1.0,530.0,1
457,457,0.9629104698191269,1.0,True,482.0,763.0,0.0,215.0,0
458,458,-0.48769839323034914,0.3,True,279.0,621.0,1.0,260.0,1
459,459,-0.33740843075014393,0.3,True,410.0,922.0,1.0,268.0,1
460,460,0.7053127958534442,0.9,True,451.0,817.0,0.0,392.0,0
461,461,0.16138747879716586,0.6,True,429.0,776.0,0.0,515.0,0
462,462,-0.9776652736315765,0.0,True,262.0,741.0,1.0,227.0,1
463,463,-0.027387452885135,0.5,True,369.0,762.0,1.0,619.0,1
464,464,0.7423220184131674,0.9,True,418.0,802.0,0.0,330.0,0
465,465,0.9188201755013841,1.0,True,493.0,982.0,0.0,235.0,0
466,466,0.6556721694538987,0.8,True,310.0,896.0,0.0,524.0,0
467,467,-0.382187504674232,0.3,True,281.0,563.0,1.0,306.0,1
468,468,-0.7485355605331796,0.1,True,387.0,884.0,1.0,209.0,1
469,469,0.1596437243086426,0.6,True,268.0,575.0,0.0,697.0,0
470,470,0.5392755072795254,0.8,True,382.0,698.0,0.0,270.0,0
471,471,0.9218727313463604,1.0,True,252.0,597.0,0.0,241.0,0
472,472,0.6868361653474007,0.8,True,405.0,664.0,0.0,251.0,0
473,473,0.10759366972500484,0.6,True,457.0,546.0,0.0,947.0,0
474,474,-0.02795251821086997,0.5,True,271.0,803.0,1.0,746.0,1
475,475,0.1897822982430899,0.6,True,336.0,798.0,0.0,676.0,0
476,476,-0.5279032118680591,0.2,True,300.0,807.0,1.0,253.0,1
477,477,0.44697870359690617,0.7,True,428.0,711.0,0.0,451.0,0
478,478,-0.944416280338156,0.0,True,334.0,909.0,1.0,217.0,1
479,479,0.8180647558869703,0.9,True,497.0,668.0,0.0,245.0,0
480,480,-0.5182049991047915,0.2,True,358.0,975.0,1.0,267.0,1
481,481,-0.5082429563150308,0.2,True,381.0,775.0,1.0,404.0,1
482,482,-0.699898814175584,0.2,True,376.0,753.0,1.0,241.0,1
483,483,0.4811072190976473,0.7,True,383.0,787.0,0.0,510.0,0
484,484,-0.3669286795469764,0.3,True,335.0,710.0,1.0,415.0,1
485,485,-0.05612725485333803,0.5,True,487.0,746.0,1.0,967.0,1
486,486,0.48149180564110994,0.7,True,374.0,772.0,0.0,404.0,0
487,487,0.781115013147335,0.9,True,290.0,977.0,0.0,233.0,0
488,488,-0.449837613784106,0.3,True,359.0,561.0,1.0,240.0,1
489,489,-0.10137941315538734,0.4,True,352.0,862.0,1.0,876.0,1
490,490,-0.7734482803665992,0.1,True,355.0,900.0,1.0,225.0,1
491,491,-0.4862885963142003,0.3,True,419.0,958.0,1.0,223.0,1
492,492,-0.2731502077520669,0.4,True,447.0,605.0,1.0,278.0,1
493,493,-0.42566166777722114,0.3,True,415.0,970.0,1.0,235.0,1
494,494,-0.6505352295831301,0.2,True,376.0,755.0,1.0,229.0,1
495,495,-0.14572069306061186,0.4,True,371.0,528.0,1.0,301.0,1
496,496,-0.4572854572756597,0.3,True,319.0,676.0,1.0,235.0,1
497,497,-0.5722886570594727,0.2,True,391.0,718.0,1.0,241.0,1
498,498,-0.5323990117294566,0.2,True,295.0,574.0,1.0,231.0,1
499,499,-0.12146157768412924,0.4,True,499.0,876.0,1.0,415.0,1
500,500,0.0802735746642258,0.5,True,451.0,503.0,0.0,1706.0,0
501,501,0.7883709006616766,0.9,True,289.0,808.0,0.0,243.0,0
502,502,0.9437110743274177,1.0,True,317.0,623.0,0.0,230.0,0
503,503,0.20688119357441948,0.6,True,355.0,662.0,0.0,853.0,0
504,504,0.21373736199609739,0.6,True,446.0,899.0,0.0,485.0,0
505,505,-0.6337022430503079,0.2,True,252.0,884.0,1.0,254.0,1
506,506,-0.46559431670272367,0.3,True,263.0,728.0,1.0,239.0,1
507,507,-0.11917141238427642,0.4,True,314.0,729.0,1.0,527.0,1
508,508,0.13141664942546027,0.6,True,352.0,642.0,0.0,596.0,0
509,509,0.373986030753646,0.7,True,345.0,580.0,0.0,315.0,0
510,510,0.056071325421563234,0.5,True,355.0,884.0,0.0,1451.0,0
511,511,-0.4685187111847986,0.3,True,336.0,580.0,1.0,294.0,1
512,512,-0.7163992754263453,0.1,True,303.0,566.0,1.0,241.0,1
513,513,-0.48934794713969,0.3,True,291.0,748.0,1.0,211.0,1
514,514,0.2750649584840077,0.6,True,340.0,735.0,0.0,705.0,0
515,515,0.0659748367541999,0.5,True,478.0,573.0,0.0,2479.0,0
516,516,-0.20165684257319438,0.4,True,360.0,527.0,1.0,273.0,1
517,517,-0.1795900562201158,0.4,True,485.0,729.0,1.0,486.0,1
518,518,0.9999923907775456,1.0,True,332.0,527.0,0.0,231.0,0
519,519,0.9831438729442947,1.0,True,265.0,915.0,0.0,250.0,0
520,520,-0.87510773466169,0.1,True,267.0,796.0,1.0,217.0,1
521,521,-0.1596123067523305,0.4,True,306.0,574.0,1.0,410.0,1
522,522,0.4410459262653452,0.7,True,429.0,727.0,0.0,454.0,0
523,523,-0.8720722914319219,0.1,True,448.0,692.0,1.0,240.0,1
524,524,-0.8319674679994413,0.1,True,273.0,585.0,1.0,222.0,1
525,525,-0.9926490899297604,0.0,True,372.0,504.0,1.0,214.0,1
526,526,-0.12275036594892064,0.4,True,449.0,930.0,1.0,451.0,1
527,527,-0.7222459956318876,0.1,True,332.0,895.0,1.0,253.0,1
528,528,-0.8676173383323587,0.1,True,257.0,552.0,1.0,231.0,1
529,529,0.027716765121176046,0.5,True,301.0,503.0,0.0,1866.0,0
530,530,-0.5003154402921792,0.2,True,393.0,541.0,1.0,216.0,1
531,531,-0.15042427908400113,0.4,True,476.0,562.0,1.0,722.0,1
532,532,0.5526041232037457,0.8,True,279.0,948.0,0.0,273.0,0
533,533,-0.08254890385007752,0.5,True,375.0,618.0,1.0,377.0,1
534,534,-0.2905424703029238,0.4,True,428.0,691.0,1.0,281.0,1
535,535,0.8618372861254318,0.9,True,328.0,611.0,0.0,301.0,0
536,536,0.5665726117886254,0.8,True,325.0,575.0,0.0,270.0,0
537,537,0.21984306321190372,0.6,True,437.0,522.0,0.0,451.0,0
538,538,0.8676954167043582,0.9,True,386.0,899.0,0.0,255.0,0
539,539,0.21820609924849954,0.6,True,280.0,799.0,0.0,491.0,0
540,540,-0.2796350880219962,0.4,True,445.0,733.0,1.0,282.0,1
541,541,0.005733108120943742,0.5,True,260.0,716.0,1.0,904.0,1
542,542,-0.8672466267389112,0.1,True,366.0,756.0,1.0,218.0,1
543,543,-0.25013789796038477,0.4,True,423.0,568.0,1.0,469.0,1
544,544,-0.9974067179165935,0.0,True,494.0,689.0,1.0,217.0,1
545,545,0.03803681447298213,0.5,True,317.0,930.0,0.0,3753.0,0
546,546,0.20794072600370472,0.6,True,482.0,563.0,0.0,635.0,0
547,547,0.2525809727334638,0.6,True,339.0,617.0,0.0,684.0,0
548,548,0.4169669130231026,0.7,True,265.0,860.0,0.0,555.0,0
549,549,0.8339235110305891,0.9,True,385.0,551.0,0.0,284.0,0
550,550,-0.3727860536086396,0.3,True,270.0,769.0,1.0,261.0,1
551,551,-0.37873145992416535,0.3,True,385.0,853.0,1.0,462.0,1
552,552,0.05215144649792247,0.5,True,355.0,651.0,0.0,934.0,0
553,553,0.7507827154260736,0.9,True,277.0,631.0,0.0,232.0,0
554,554,0.5643666587740652,0.8,True,458.0,995.0,0.0,467.0,0
555,555,0.8094256447866743,0.9,True,254.0,942.0,0.0,254.0,0
556,556,-0.9905659050459557,0.0,True,381.0,638.0,1.0,211.0,1
557,557,0.2624544380803986,0.6,True,366.0,527.0,0.0,477.0,0
558,558,0.585835666300661,0.8,True,406.0,741.0,0.0,273.0,0
559,559,0.46477117549763713,0.7,True,493.0,737.0,0.0,260.0,0
560,560,-0.9568950321942249,0.0,True,376.0,901.0,1.0,233.0,1
561,561,-0.9211684106676947,0.0,True,491.0,850.0,1.0,229.0,1
562,562,-0.7020853808766796,0.1,True,375.0,807.0,1.0,268.0,1
563,563,-0.31474722230532626,0.3,True,319.0,602.0,1.0,289.0,1
564,564,-0.6513733133277657,0.2,True,479.0,932.0,1.0,219.0,1
565,565,0.5119413696395663,0.8,True,384.0,978.0,0.0,298.0,0
566,566,0.9432668365537442,1.0,True,442.0,808.0,0.0,250.0,0
567,567,-0.5213898480664396,0.2,True,385.0,656.0,1.0,269.0,1
568,568,0.4826249436189267,0.7,True,348.0,692.0,0.0,290.0,0
569,569,0.0005285486187829314,0.5,True,397.0,856.0,1.0,2207.0,1
570,570,-0.4537398737818312,0.3,True,321.0,690.0,1.0,259.0,1
571,571,-0.8229446066364596,0.1,True,278.0,810.0,1.0,222.0,1
572,572,0.5553308987348993,0.8,True,290.0,786.0,0.0,264.0,0
573,573,-0.6529615350021025,0.2,True,439.0,930.0,1.0,211.0,1
574,574,-0.21650966831027674,0.4,True,420.0,512.0,1.0,618.0,1
575,575,0.6201587099065711,0.8,True,352.0,696.0,0.0,282.0,0
576,576,-0.9943094969093169,0.0,True,279.0,687.0,1.0,224.0,1
577,577,0.0318601519377657,0.5,True,313.0,997.0,1.0,2950.0,1
578,578,0.17849119011574066,0.6,True,331.0,699.0,0.0,710.0,0
579,579,-0.16971135106724256,0.4,True,405.0,957.0,1.0,478.0,1
580,580,0.2585731330423744,0.6,True,353.0,754.0,0.0,513.0,0
581,581,-0.7222976356485808,0.1,True,418.0,633.0,1.0,199.0,1
582,582,-0.5784771183026387,0.2,True,334.0,795.0,1.0,271.0,1
583,583,-0.9402523348358929,0.0,True,371.0,972.0,1.0,227.0,1
584,584,0.28664295863374734,0.6,True,446.0,527.0,0.0,707.0,0
585,585,-0.6978229972484429,0.2,True,325.0,599.0,1.0,256.0,1
586,586,0.09367462300100038,0.5,True,257.0,907.0,0.0,856.0,0
587,587,-0.04848587558955231,0.5,True,365.0,800.0,1.0,945.0,1
588,588,0.8736288979644418,0.9,True,498.0,640.0,0.0,242.0,0
589,589,-0.3632514918077494,0.3,True,429.0,776.0,1.0,265.0,1
590,590,-0.7616115267717358,0.1,True,279.0,918.0,1.0,203.0,1
591,591,0.004709438328109883,0.5,True,374.0,595.0,1.0,4031.0,1
592,592,0.8791102348365076,0.9,True,391.0,896.0,0.0,223.0,0
593,593,-0.35735827490110594,0.3,True,467.0,588.0,1.0,275.0,1
594,594,-0.3200022203971373,0.3,True,338.0,787.0,1.0,545.0,1
595,595,0.01867541030646147,0.5,True,330.0,930.0,0.0,3740.0,0
596,596,-0.6880977129226507,0.2,True,285.0,569.0,1.0,246.0,1
597,597,-0.642232752830934,0.2,True,348.0,665.0,1.0,237.0,1
598,598,0.6257668474735945,0.8,True,456.0,875.0,0.0,389.0,0
599,599,0.6149732529237684,0.8,True,424.0,835.0,0.0,251.0,0
600,600,0.06104097552534249,0.5,True,319.0,633.0,0.0,1388.0,0
601,601,0.3326624224755461,0.7,True,373.0,765.0,0.0,412.0,0
602,602,0.9126489548455172,1.0,True,256.0,775.0,0.0,249.0,0
603,603,0.3367218034149937,0.7,True,291.0,734.0,0.0,455.0,0
604,604,0.061145856900030715,0.5,True,351.0,614.0,1.0,4035.0,1
605,605,0.5901938485746328,0.8,True,273.0,971.0,0.0,496.0,0
606,606,0.36024521358950845,0.7,True,291.0,832.0,0.0,587.0,0
607,607,0.8998075463759607,0.9,True,263.0,675.0,0.0,272.0,0
608,608,0.29359105650172856,0.6,True,370.0,748.0,0.0,322.0,0
609,609,0.2642466241015742,0.6,True,298.0,984.0,0.0,668.0,0
610,610,-0.16449378855391417,0.4,True,464.0,722.0,1.0,474.0,1
611,611,0.09370899608871519,0.5,True,471.0,844.0,0.0,1135.0,0
612,612,0.21731167602825274,0.6,True,325.0,828.0,0.0,577.0,0
613,613,-0.9123695883781966,0.0,True,450.0,668.0,1.0,242.0,1
614,614,-0.6127837166520571,0.2,True,362.0,616.0,1.0,252.0,1
615,615,0.18296853424329007,0.6,True,341.0,616.0,0.0,893.0,0
616,616,0.5585294436362289,0.8,True,498.0,665.0,0.0,357.0,0
617,617,-0.31306889732787924,0.3,True,262.0,612.0,1.0,316.0,1
618,618,0.22557560707839674,0.6,True,250.0,766.0,0.0,564.0,0
619,619,0.6727293906049796,0.8,True,385.0,592.0,0.0,233.0,0
620,620,-0.818435805809254,0.1,True,369.0,742.0,1.0,239.0,1
621,621,-0.7576245578663501,0.1,True,303.0,781.0,1.0,236.0,1
622,622,0.3632760621948108,0.7,True,321.0,605.0,0.0,564.0,0
623,623,0.8138124513480975,0.9,True,414.0,937.0,0.0,249.0,0
624,624,-0.4791668416899937,0.3,True,421.0,794.0,1.0,235.0,1
625,625,-0.07471084597800304,0.5,True,366.0,565.0,1.0,369.0,1
626,626,-0.2812122564922399,0.4,True,487.0,940.0,1.0,433.0,1
627,627,0.08069329250386148,0.5,True,476.0,806.0,0.0,888.0,0
628,628,-0.7799329468985352,0.1,True,433.0,533.0,1.0,224.0,1
629,629,0.04261059789490251,0.5,True,405.0,719.0,0.0,3876.0,0
630,630,-0.21936734297634075,0.4,True,387.0,990.0,1.0,333.0,1
631,631,-0.9482002969292675,0.0,True,319.0,746.0,1.0,225.0,1
632,632,-0.07635213004923114,0.5,True,312.0,986.0,1.0,1032.0,1
633,633,-0.9832197478277,0.0,True,425.0,587.0,1.0,228.0,1
634,634,0.6493184887943411,0.8,True,333.0,852.0,0.0,235.0,0
635,635,-0.5757928918725512,0.2,True,319.0,681.0,1.0,230.0,1
636,636,-0.13186980591638964,0.4,True,295.0,540.0,1.0,275.0,1
637,637,0.7835211369762953,0.9,True,446.0,563.0,0.0,261.0,0
638,638,-0.9076548745317965,0.0,True,467.0,604.0,1.0,219.0,1
639,639,-0.5702527180018615,0.2,True,254.0,835.0,1.0,251.0,1
640,640,-0.6055734944654452,0.2,True,463.0,669.0,1.0,238.0,1
641,641,0.05611048661934759,0.5,True,440.0,661.0,0.0,2689.0,0
642,642,0.23829204744264976,0.6,True,442.0,604.0,0.0,914.0,0
643,643,-0.7118672927198568,0.1,True,394.0,592.0,1.0,234.0,1
644,644,0.5171725907672746,0.8,True,368.0,890.0,0.0,282.0,0
645,645,0.17744547186274118,0.6,True,336.0,561.0,0.0,463.0,0
646,646,0.2560657376891631,0.6,True,404.0,521.0,0.0,645.0,0
647,647,0.3555995473769189,0.7,True,321.0,704.0,0.0,335.0,0
648,648,-0.5974056012262778,0.2,True,431.0,970.0,1.0,269.0,1
649,649,0.23992307391296142,0.6,True,289.0,793.0,0.0,878.0,0
650,650,0.04514649631752077,0.5,True,342.0,624.0,0.0,3074.0,0
651,651,0.9403606013334567,1.0,True,453.0,798.0,0.0,269.0,0
652,652,0.22315972060432077,0.6,True,404.0,728.0,0.0,668.0,0
653,653,-0.9308691250974035,0.0,True,485.0,836.0,1.0,239.0,1
654,654,-0.40243286223814345,0.3,True,367.0,863.0,1.0,240.0,1
655,655,-0.8426461949537665,0.1,True,425.0,584.0,1.0,231.0,1
656,656,0.5555939187047652,0.8,True,287.0,892.0,0.0,281.0,0
657,657,-0.9363386236388429,0.0,True,469.0,694.0,1.0,247.0,1
658,658,-0.47924921068783966,0.3,True,425.0,945.0,1.0,240.0,1
659,659,-0.2601658049754112,0.4,True,320.0,615.0,1.0,445.0,1
660,660,0.6648473401288597,0.8,True,280.0,814.0,0.0,276.0,0
661,661,-0.13937160043901664,0.4,True,405.0,661.0,1.0,524.0,1
662,662,-0.2588119424671642,0.4,True,306.0,579.0,1.0,535.0,1
663,663,-0.3493942917772328,0.3,True,292.0,757.0,1.0,261.0,1
664,664,0.588868529762776,0.8,True,317.0,847.0,0.0,366.0,0
665,665,0.6714437580885282,0.8,True,456.0,796.0,0.0,278.0,0
666,666,-0.0901451075295241,0.5,True,407.0,734.0,1.0,339.0,1
667,667,0.9250037450794959,1.0,True,439.0,929.0,0.0,252.0,0
668,668,0.49169248380419295,0.7,True,285.0,990.0,0.0,245.0,0
669,669,0.7433653697464455,0.9,True,295.0,549.0,0.0,286.0,0
670,670,0.270435826069499,0.6,True,271.0,533.0,0.0,436.0,0
671,671,0.984767114423664,1.0,True,357.0,840.0,0.0,223.0,0
672,672,-0.04418332177784112,0.5,True,337.0,634.0,1.0,1019.0,1
673,673,-0.3896973791220706,0.3,True,286.0,820.0,1.0,264.0,1
674,674,0.5554261227704766,0.8,True,349.0,974.0,0.0,487.0,0
675,675,-0.4229225090613149,0.3,True,385.0,858.0,1.0,387.0,1
676,676,0.38234908475310525,0.7,True,388.0,904.0,0.0,458.0,0
677,677,0.2195518668490204,0.6,True,481.0,540.0,0.0,629.0,0
678,678,-0.2694427836806057,0.4,True,331.0,906.0,1.0,423.0,1
679,679,0.3576774100776079,0.7,True,416.0,814.0,0.0,390.0,0
680,680,-0.43566341495164784,0.3,True,323.0,930.0,1.0,227.0,1
681,681,-0.895818751106727,0.1,True,317.0,632.0,1.0,211.0,1
682,682,0.5534937059317087,0.8,True,398.0,747.0,0.0,425.0,0
683,683,-0.6492822504195039,0.2,True,250.0,887.0,1.0,233.0,1
684,684,0.627497903263962,0.8,True,321.0,546.0,0.0,283.0,0
685,685,0.8162406537902922,0.9,True,454.0,965.0,0.0,231.0,0
686,686,0.9970441459713439,1.0,True,407.0,915.0,0.0,268.0,0
687,687,0.379290210354698,0.7,True,433.0,844.0,0.0,513.0,0
688,688,-0.6292251951919894,0.2,True,271.0,711.0,1.0,258.0,1
689,689,-0.3290597830412578,0.3,True,499.0,852.0,1.0,269.0,1
690,690,-0.356723453460817,0.3,True,461.0,547.0,1.0,302.0,1
691,691,0.49817991299606423,0.7,True,371.0,743.0,0.0,316.0,0
692,692,0.8411516806285342,0.9,True,303.0,601.0,0.0,256.0,0
693,693,-0.3362905549228701,0.3,True,404.0,601.0,1.0,245.0,1
694,694,-0.9343344115569907,0.0,True,302.0,796.0,1.0,232.0,1
695,695,-0.6206555118768857,0.2,True,265.0,629.0,1.0,236.0,1
696,696,0.49511520152872324,0.7,True,311.0,940.0,0.0,489.0,0
697,697,-0.3368246326210569,0.3,True,316.0,692.0,1.0,262.0,1
698,698,0.10399872950063371,0.6,True,269.0,858.0,0.0,1813.0,0
699,699,-0.701005739618771,0.1,True,343.0,784.0,1.0,223.0,1
700,700,0.315060235396311,0.7,True,316.0,544.0,0.0,330.0,0
701,701,0.28490341337505964,0.6,True,370.0,588.0,0.0,892.0,0
702,702,-0.2852966646660846,0.4,True,267.0,817.0,1.0,286.0,1
703,703,-0.2549066030948539,0.4,True,276.0,821.0,1.0,463.0,1
704,704,0.6059958747955907,0.8,True,315.0,580.0,0.0,375.0,0
705,705,0.12800556045125866,0.6,True,319.0,845.0,0.0,566.0,0
706,706,-0.13550461643163159,0.4,True,278.0,512.0,1.0,450.0,1
707,707,-0.35122950509367823,0.3,True,296.0,759.0,1.0,265.0,1
708,708,0.4545747548915984,0.7,True,461.0,649.0,0.0,410.0,0
709,709,0.045175216991870215,0.5,True,265.0,791.0,0.0,3944.0,0
710,710,0.4208920639937992,0.7,True,293.0,551.0,0.0,406.0,0
711,711,-0.6462924893083863,0.2,True,382.0,947.0,1.0,221.0,1
712,712,-0.6837935168826601,0.2,True,323.0,918.0,1.0,229.0,1
713,713,0.1741211982722224,0.6,True,341.0,850.0,0.0,659.0,0
714,714,0.5078056671244595,0.8,True,285.0,508.0,0.0,377.0,0
715,715,-0.4932753342520064,0.3,True,408.0,547.0,1.0,305.0,1
716,716,-0.5779108188403321,0.2,True,392.0,574.0,1.0,274.0,1
717,717,0.6443964067320633,0.8,True,274.0,606.0,0.0,300.0,0
718,718,0.2535029919546554,0.6,True,498.0,580.0,0.0,392.0,0
719,719,0.4662715779250506,0.7,True,273.0,612.0,0.0,285.0,0
720,720,-0.5135900243542211,0.2,True,494.0,854.0,1.0,222.0,1
721,721,-0.010911672810258954,0.5,True,405.0,547.0,1.0,1658.0,1
722,722,0.3703763221551599,0.7,True,308.0,961.0,0.0,301.0,0
723,723,-0.16695049826163344,0.4,True,405.0,500.0,1.0,275.0,1
724,724,-0.29636363762080253,0.4,True,331.0,593.0,1.0,406.0,1
725,725,-0.060228210183330244,0.5,True,478.0,624.0,1.0,638.0,1
726,726,-0.49562140612318406,0.3,True,350.0,750.0,1.0,290.0,1
727,727,0.7325510580666177,0.9,True,427.0,909.0,0.0,244.0,0
728,728,-0.36358709127573485,0.3,True,458.0,636.0,1.0,286.0,1
729,729,0.08691016472505497,0.5,True,374.0,599.0,0.0,1247.0,0
730,730,-0.21310555738666692,0.4,True,374.0,839.0,1.0,637.0,1
731,731,-0.1416243503630612,0.4,True,439.0,679.0,1.0,292.0,1
732,732,0.2876218528431056,0.6,True,252.0,504.0,0.0,524.0,0
733,733,-0.8673748262855696,0.1,True,311.0,979.0,1.0,240.0,1
734,734,-0.877687456780047,0.1,True,464.0,614.0,1.0,232.0,1
735,735,0.918772179843137,1.0,True,387.0,931.0,0.0,242.0,0
736,736,-0.8731394524446121,0.1,True,346.0,502.0,1.0,222.0,1
737,737,-0.30249103043506764,0.3,True,395.0,614.0,1.0,231.0,1
738,738,-0.08724619005914569,0.5,True,285.0,592.0,1.0,813.0,1
739,739,0.9205383189204877,1.0,True,280.0,754.0,0.0,226.0,0
740,740,-0.9303616891563855,0.0,True,441.0,761.0,1.0,218.0,1
741,741,0.9839589597216389,1.0,True,253.0,893.0,0.0,264.0,0
742,742,-0.6168116482501431,0.2,True,314.0,793.0,1.0,213.0,1
743,743,-0.9313678894940869,0.0,True,318.0,790.0,1.0,212.0,1
744,744,0.5526193418841552,0.8,True,451.0,717.0,0.0,412.0,0
745,745,-0.6094131042184581,0.2,True,252.0,696.0,1.0,232.0,1
746,746,-0.8334605593803688,0.1,True,351.0,648.0,1.0,221.0,1
747,747,-0.8979846689411537,0.1,True,268.0,622.0,1.0,200.0,1
748,748,-0.5321486660355517,0.2,True,329.0,726.0,1.0,295.0,1
749,749,-0.01987747523596073,0.5,True,355.0,979.0,1.0,1436.0,1
750,750,0.5373095218904735,0.8,True,341.0,900.0,0.0,259.0,0
751,751,0.5373107915283439,0.8,True,403.0,729.0,0.0,328.0,0
752,752,0.9574638596132086,1.0,True,257.0,521.0,0.0,242.0,0
753,753,0.8127059105678607,0.9,True,475.0,745.0,0.0,260.0,0
754,754,-0.02995856208253711,0.5,True,318.0,649.0,1.0,1663.0,1
755,755,0.8496991909249691,0.9,True,294.0,799.0,0.0,207.0,0
756,756,0.9170415646758823,1.0,True,445.0,630.0,0.0,335.0,0
757,757,-0.6786959300353668,0.2,True,377.0,928.0,1.0,215.0,1
758,758,-0.6581588795284758,0.2,True,331.0,765.0,1.0,244.0,1
759,759,-0.09517978382790071,0.5,True,493.0,652.0,1.0,915.0,1
760,760,-0.770929329219276,0.1,True,364.0,901.0,1.0,215.0,1
761,761,-0.7930296290464587,0.1,True,374.0,868.0,1.0,218.0,1
762,762,-0.20093113145939756,0.4,True,356.0,744.0,1.0,460.0,1
763,763,0.8885781450433687,0.9,True,350.0,831.0,0.0,289.0,0
764,764,0.697800551227084,0.8,True,447.0,837.0,0.0,236.0,0
765,765,0.7123066446048094,0.9,True,343.0,550.0,0.0,307.0,0
766,766,0.3559662749157593,0.7,True,443.0,662.0,0.0,395.0,0
767,767,0.21702236289985044,0.6,True,343.0,747.0,0.0,570.0,0
768,768,0.9026366724276356,1.0,True,364.0,532.0,0.0,254.0,0
769,769,-0.7209332116088565,0.1,True,403.0,588.0,1.0,239.0,1
770,770,0.7023015157578298,0.9,True,315.0,732.0,0.0,263.0,0
771,771,-0.011121433702614647,0.5,True,290.0,657.0,1.0,953.0,1
772,772,0.4144602320738273,0.7,True,390.0,526.0,0.0,414.0,0
773,773,-0.3336433344772771,0.3,True,472.0,566.0,1.0,322.0,1
774,774,0.8203183138868873,0.9,True,320.0,643.0,0.0,237.0,0
775,775,-0.9325647295018205,0.0,True,465.0,596.0,1.0,239.0,1
776,776,-0.7821586888582392,0.1,True,326.0,825.0,1.0,229.0,1
777,777,0.46655150670986645,0.7,True,412.0,947.0,0.0,461.0,0
778,778,0.511896535049049,0.8,True,260.0,847.0,0.0,443.0,0
779,779,0.7099154319966234,0.9,True,402.0,800.0,0.0,268.0,0
780,780,-0.6510926939064705,0.2,True,336.0,851.0,1.0,243.0,1
781,781,-0.6574433492640848,0.2,True,478.0,528.0,1.0,214.0,1
782,782,-0.31959084480197597,0.3,True,259.0,768.0,1.0,263.0,1
783,783,0.6774080736508554,0.8,True,258.0,820.0,0.0,242.0,0
784,784,0.5003751250950268,0.8,True,338.0,944.0,0.0,258.0,0
785,785,-0.5331960645270946,0.2,True,323.0,857.0,1.0,250.0,1
786,786,-0.31724386263796545,0.3,True,452.0,537.0,1.0,241.0,1
787,787,-0.43320924148013407,0.3,True,413.0,529.0,1.0,268.0,1
788,788,0.8431457565764278,0.9,True,456.0,968.0,0.0,256.0,0
789,789,0.3679819934594004,0.7,True,493.0,883.0,0.0,584.0,0
790,790,-0.8081030122361026,0.1,True,262.0,634.0,1.0,224.0,1
791,791,0.8675890880148178,0.9,True,311.0,965.0,0.0,264.0,0
792,792,-0.42135039365693605,0.3,True,373.0,500.0,1.0,297.0,1
793,793,-0.7832709950615546,0.1,True,475.0,603.0,1.0,222.0,1
794,794,0.8553727151808095,0.9,True,490.0,919.0,0.0,251.0,0
795,795,0.2793415513353128,0.6,True,294.0,565.0,0.0,631.0,0
796,796,0.23874613985357018,0.6,True,293.0,935.0,0.0,492.0,0
797,797,-0.31302709619904623,0.3,True,260.0,706.0,1.0,274.0,1
798,798,0.5331933515276643,0.8,True,432.0,886.0,0.0,492.0,0
799,799,0.5519773643589847,0.8,True,371.0,752.0,0.0,357.0,0
800,800,-0.2957542822342607,0.4,True,306.0,971.0,1.0,343.0,1
801,801,-0.8410250006781577,0.1,True,290.0,598.0,1.0,212.0,1
802,802,0.8045059941944761,0.9,True,420.0,558.0,0.0,242.0,0
803,803,-0.038503778986466175,0.5,True,318.0,926.0,1.0,3196.0,1
804,804,0.6777819010807942,0.8,True,403.0,831.0,0.0,236.0,0
805,805,-0.7428074498904587,0.1,True,436.0,750.0,1.0,214.0,1
806,806,0.916211359423927,1.0,True,287.0,820.0,0.0,243.0,0
807,807,0.7990104731718681,0.9,True,348.0,809.0,0.0,243.0,0
808,808,-0.9563433203139196,0.0,True,380.0,871.0,1.0,219.0,1
809,809,0.5831659218811271,0.8,True,362.0,742.0,0.0,306.0,0
810,810,-0.71519454591388,0.1,True,388.0,831.0,1.0,231.0,1
811,811,-0.8260949971677778,0.1,True,257.0,718.0,1.0,205.0,1
812,812,0.9549479517341262,1.0,True,333.0,827.0,0.0,260.0,0
813,813,-0.30172709451582347,0.3,True,491.0,648.0,1.0,371.0,1
814,814,-0.9957903590271677,0.0,True,332.0,713.0,1.0,215.0,1
815,815,-0.8714406886084507,0.1,True,384.0,511.0,1.0,215.0,1
816,816,0.8991870011850693,0.9,True,378.0,606.0,0.0,306.0,0
817,817,-0.20722583216381563,0.4,True,459.0,824.0,1.0,387.0,1
818,818,-0.4735040400045283,0.3,True,408.0,501.0,1.0,221.0,1
819,819,0.5526010298518813,0.8,True,404.0,813.0,0.0,253.0,0
820,820,-0.8452539442152056,0.1,True,357.0,599.0,1.0,244.0,1
821,821,0.46559900506091445,0.7,True,395.0,736.0,0.0,429.0,0
822,822,-0.18772578024275943,0.4,True,465.0,567.0,1.0,528.0,1
823,823,-0.3099890774679963,0.3,True,440.0,883.0,1.0,497.0,1
824,824,0.16752638934589958,0.6,True,377.0,562.0,0.0,581.0,0
825,825,0.03900752446002875,0.5,True,433.0,535.0,1.0,4032.0,1
826,826,0.993150356040772,1.0,True,283.0,841.0,0.0,236.0,0
827,827,-0.4774258898647139,0.3,True,297.0,978.0,1.0,225.0,1
828,828,0.3024001832865941,0.7,True,364.0,560.0,0.0,456.0,0
829,829,-0.5847611517635138,0.2,True,317.0,544.0,1.0,279.0,1
830,830,0.6437526134889309,0.8,True,344.0,755.0,0.0,271.0,0
831,831,0.8132817716054916,0.9,True,449.0,806.0,0.0,385.0,0
832,832,-0.37671777650044014,0.3,True,387.0,688.0,1.0,235.0,1
833,833,-0.46051260742642897,0.3,True,364.0,974.0,1.0,362.0,1
834,834,0.9312423633000473,1.0,True,340.0,545.0,0.0,275.0,0
835,835,0.17510099243466248,0.6,True,437.0,711.0,0.0,762.0,0
836,836,-0.10452793147449668,0.4,True,271.0,718.0,1.0,611.0,1
837,837,0.33419520234611766,0.7,True,334.0,597.0,0.0,499.0,0
838,838,-0.505975726358356,0.2,True,326.0,967.0,1.0,267.0,1
839,839,-0.2008413423261961,0.4,True,438.0,631.0,1.0,301.0,1
840,840,-0.15451456290076115,0.4,True,416.0,805.0,1.0,349.0,1
841,841,0.8773745145905618,0.9,True,320.0,914.0,0.0,256.0,0
842,842,-0.96349976911231,0.0,True,454.0,960.0,1.0,216.0,1
843,843,-0.3381370046775547,0.3,True,451.0,547.0,1.0,252.0,1
844,844,-0.6588963545017359,0.2,True,401.0,589.0,1.0,200.0,1
845,845,-0.561710176437273,0.2,True,314.0,667.0,1.0,249.0,1
846,846,-0.15961503785251208,0.4,True,332.0,506.0,1.0,492.0,1
847,847,0.6105339903290314,0.8,True,345.0,928.0,0.0,377.0,0
848,848,-0.2021008033284164,0.4,True,285.0,619.0,1.0,466.0,1
849,849,-0.9591908943971141,0.0,True,385.0,885.0,1.0,220.0,1
850,850,0.40481589465330137,0.7,True,307.0,796.0,0.0,487.0,0
851,851,0.12956508353788698,0.6,True,314.0,858.0,0.0,818.0,0
852,852,-0.6102374502505472,0.2,True,469.0,811.0,1.0,270.0,1
853,853,-0.07477296960256119,0.5,True,483.0,545.0,1.0,802.0,1
854,854,-0.6326831510351871,0.2,True,334.0,904.0,1.0,242.0,1
855,855,0.8534369282808711,0.9,True,309.0,558.0,0.0,253.0,0
856,856,0.045830109226217663,0.5,True,420.0,667.0,0.0,3913.0,0
857,857,0.7721358014811357,0.9,True,460.0,911.0,0.0,269.0,0
858,858,0.40031182663259357,0.7,True,257.0,563.0,0.0,260.0,0
859,859,0.7475635153096394,0.9,True,470.0,876.0,0.0,334.0,0
860,860,-0.38402861908318475,0.3,True,457.0,587.0,1.0,276.0,1
861,861,-0.6175671190022556,0.2,True,475.0,679.0,1.0,246.0,1
862,862,0.06510721447701773,0.5,True,359.0,745.0,0.0,3896.0,0
863,863,0.019972922833733753,0.5,True,384.0,615.0,1.0,1951.0,1
864,864,0.32986468063777163,0.7,True,340.0,553.0,0.0,397.0,0
865,865,-0.6635499286302675,0.2,True,389.0,796.0,1.0,235.0,1
866,866,0.9741234887442918,1.0,True,412.0,608.0,0.0,230.0,0
867,867,-0.14137703575653982,0.4,True,385.0,544.0,1.0,361.0,1
868,868,-0.4755038225438071,0.3,True,266.0,560.0,1.0,234.0,1
869,869,-0.7833005480154025,0.1,True,478.0,657.0,1.0,225.0,1
870,870,0.12731596134233825,0.6,True,250.0,938.0,0.0,582.0,0
871,871,-0.5280896957156698,0.2,True,389.0,794.0,1.0,237.0,1
872,872,0.41073997847738997,0.7,True,383.0,513.0,0.0,464.0,0
873,873,-0.40737915183887585,0.3,True,286.0,711.0,1.0,293.0,1
874,874,0.13270030975314384,0.6,True,371.0,670.0,0.0,699.0,0
875,875,-0.13084016912954954,0.4,True,445.0,545.0,1.0,350.0,1
876,876,0.02024511753868441,0.5,True,487.0,640.0,0.0,3873.0,0
877,877,-0.16271315957669175,0.4,True,479.0,758.0,1.0,423.0,1
878,878,-0.7845353247622007,0.1,True,393.0,729.0,1.0,258.0,1
879,879,-0.09920431788994466,0.5,True,384.0,881.0,1.0,455.0,1
880,880,-0.4529267389971341,0.3,True,356.0,930.0,1.0,274.0,1
881,881,0.31418062446282713,0.7,True,318.0,984.0,0.0,418.0,0
882,882,0.5038375581387107,0.8,True,429.0,935.0,0.0,266.0,0
883,883,-0.9242681527537329,0.0,True,442.0,841.0,1.0,207.0,1
884,884,-0.42437625825204406,0.3,True,347.0,923.0,1.0,300.0,1
885,885,-0.5018162708915659,0.2,True,495.0,821.0,1.0,234.0,1
886,886,-0.8685196558326456,0.1,True,425.0,734.0,1.0,271.0,1
887,887,-0.4642177928842277,0.3,True,403.0,906.0,1.0,221.0,1
888,888,-0.6304820399844735,0.2,True,391.0,622.0,1.0,237.0,1
889,889,-0.1387275182967862,0.4,True,371.0,955.0,1.0,304.0,1
890,890,-0.6921150776279246,0.2,True,394.0,746.0,1.0,240.0,1
891,891,-0.9588904075900426,0.0,True,496.0,875.0,1.0,219.0,1
892,892,0.3227553326508257,0.7,True,417.0,699.0,0.0,394.0,0
893,893,0.7090635478625615,0.9,True,463.0,739.0,0.0,248.0,0
894,894,-0.32629828278778117,0.3,True,431.0,702.0,1.0,297.0,1
895,895,0.9006198480876366,1.0,True,322.0,695.0,0.0,223.0,0
896,896,-0.7314299481237065,0.1,True,256.0,982.0,1.0,252.0,1
897,897,-0.8502061020017884,0.1,True,422.0,737.0,1.0,211.0,1
898,898,-0.4730338682308264,0.3,True,362.0,671.0,1.0,247.0,1
899,899,0.19287634362260064,0.6,True,374.0,667.0,0.0,439.0,0
900,900,-0.02377171597967065,0.5,True,458.0,699.0,1.0,1353.0,1
901,901,0.9439694073894744,1.0,True,317.0,992.0,0.0,221.0,0
902,902,0.7583357253844891,0.9,True,399.0,500.0,0.0,231.0,0
903,903,-0.7077707864429059,0.1,True,343.0,564.0,1.0,233.0,1
904,904,0.7268029287766831,0.9,True,493.0,982.0,0.0,275.0,0
905,905,-0.519677418395142,0.2,True,416.0,553.0,1.0,231.0,1
906,906,-0.24237535846267932,0.4,True,355.0,595.0,1.0,290.0,1
907,907,0.7286230974945751,0.9,True,440.0,823.0,0.0,417.0,0
908,908,0.4889943497715534,0.7,True,379.0,858.0,0.0,253.0,0
909,909,0.013210306145444939,0.5,True,480.0,993.0,0.0,3527.0,0
910,910,-0.7775234674509364,0.1,True,282.0,655.0,1.0,213.0,1
911,911,-0.5666304283931127,0.2,True,307.0,999.0,1.0,394.0,1
912,912,-0.45562684549561316,0.3,True,312.0,888.0,1.0,270.0,1
913,913,-0.45026924135605184,0.3,True,313.0,601.0,1.0,246.0,1
914,914,0.3923816818095076,0.7,True,499.0,917.0,0.0,524.0,0
915,915,0.17154911802570783,0.6,True,269.0,843.0,0.0,628.0,0
916,916,0.939672814813554,1.0,True,425.0,962.0,0.0,213.0,0
917,917,0.5858673504804077,0.8,True,437.0,859.0,0.0,294.0,0
918,918,0.9537255830871068,1.0,True,332.0,517.0,0.0,361.0,0
919,919,-0.27001345191101067,0.4,True,367.0,926.0,1.0,237.0,1
920,920,0.8079153679716284,0.9,True,477.0,859.0,0.0,284.0,0
921,921,-0.5191976857513174,0.2,True,291.0,991.0,1.0,248.0,1
922,922,-0.6822114347479817,0.2,True,418.0,840.0,1.0,232.0,1
923,923,-0.3273098591146304,0.3,True,382.0,617.0,1.0,281.0,1
924,924,0.6434570925491592,0.8,True,348.0,663.0,0.0,259.0,0
925,925,-0.24617932993654756,0.4,True,254.0,999.0,1.0,267.0,1
926,926,-0.31349082090316394,0.3,True,412.0,611.0,1.0,277.0,1
927,927,-0.6223480470093343,0.2,True,356.0,572.0,1.0,222.0,1
928,928,-0.20175207264791029,0.4,True,306.0,918.0,1.0,326.0,1
929,929,0.873331109700477,0.9,True,381.0,847.0,0.0,232.0,0
930,930,0.7586104569479051,0.9,True,441.0,652.0,0.0,247.0,0
931,931,-0.5912416152406661,0.2,True,327.0,604.0,1.0,249.0,1
932,932,-0.7418447466314015,0.1,True,264.0,683.0,1.0,233.0,1
933,933,0.4197502119623371,0.7,True,333.0,536.0,0.0,281.0,0
934,934,0.055656810937146695,0.5,True,394.0,941.0,0.0,1065.0,0
935,935,0.05570705499284312,0.5,True,316.0,730.0,0.0,3954.0,0
936,936,-0.9540745976887364,0.0,True,392.0,512.0,1.0,216.0,1
937,937,0.8834888899525983,0.9,True,407.0,504.0,0.0,269.0,0
938,938,-0.5642357369663595,0.2,True,321.0,999.0,1.0,250.0,1
939,939,0.4791309256880283,0.7,True,287.0,767.0,0.0,296.0,0
940,940,0.7932404508530213,0.9,True,322.0,828.0,0.0,270.0,0
941,941,-0.9084580631308752,0.0,True,359.0,780.0,1.0,241.0,1
942,942,0.6275646878086005,0.8,True,258.0,677.0,0.0,335.0,0
943,943,0.6566560410373126,0.8,True,401.0,605.0,0.0,434.0,0
944,944,-0.40147993509449953,0.3,True,494.0,738.0,1.0,248.0,1
945,945,0.6227494062185623,0.8,True,346.0,653.0,0.0,271.0,0
946,946,-0.22170237980783924,0.4,True,306.0,626.0,1.0,458.0,1
947,947,-0.08553730590202457,0.5,True,495.0,727.0,1.0,898.0,1
948,948,0.9303066109234657,1.0,True,435.0,969.0,0.0,226.0,0
949,949,-0.39252354700472125,0.3,True,446.0,826.0,1.0,268.0,1
950,950,0.9633056975039511,1.0,True,441.0,881.0,0.0,248.0,0
951,951,0.21730033476340682,0.6,True,429.0,859.0,0.0,532.0,0
952,952,0.6099117417669915,0.8,True,393.0,782.0,0.0,255.0,0
953,953,0.07035047605647349,0.5,True,436.0,892.0,0.0,1932.0,0
954,954,-0.8592278757896656,0.1,True,345.0,526.0,1.0,259.0,1
955,955,0.6739580935773619,0.8,True,302.0,663.0,0.0,285.0,0
956,956,-0.49321079483882335,0.3,True,364.0,769.0,1.0,217.0,1
957,957,-0.9852731775372701,0.0,True,325.0,740.0,1.0,205.0,1
958,958,0.19567614258750643,0.6,True,471.0,774.0,0.0,495.0,0
959,959,-0.64828378045102,0.2,True,448.0,987.0,1.0,245.0,1
960,960,0.1020443943106899,0.6,True,263.0,891.0,0.0,1226.0,0
961,961,0.7315883712740012,0.9,True,278.0,707.0,0.0,315.0,0
962,962,0.17051105963909596,0.6,True,390.0,871.0,0.0,709.0,0
963,963,-0.7643945328513093,0.1,True,353.0,859.0,1.0,218.0,1
964,964,0.6597681251859693,0.8,True,273.0,973.0,0.0,234.0,0
965,965,0.3445278866367649,0.7,True,358.0,676.0,0.0,616.0,0
966,966,0.043444308029510825,0.5,True,303.0,997.0,0.0,3700.0,0
967,967,-0.390760966282798,0.3,True,334.0,713.0,1.0,413.0,1
968,968,-0.7286015628315525,0.1,True,359.0,565.0,1.0,256.0,1
969,969,-0.5257955041640257,0.2,True,256.0,506.0,1.0,258.0,1
970,970,0.4296670336283641,0.7,True,326.0,874.0,0.0,400.0,0
971,971,0.19278546880470704,0.6,True,364.0,972.0,0.0,714.0,0
972,972,0.23339184529674672,0.6,True,431.0,516.0,0.0,813.0,0
973,973,0.05395153501285588,0.5,True,252.0,969.0,0.0,1589.0,0
974,974,0.9493053049435152,1.0,True,267.0,515.0,0.0,258.0,0
975,975,-0.6947153952515992,0.2,True,302.0,783.0,1.0,255.0,1
976,976,0.635392782476861,0.8,True,404.0,888.0,0.0,418.0,0
977,977,-0.031400177659856476,0.5,True,307.0,565.0,1.0,1608.0,1
978,978,0.3490116078496348,0.7,True,335.0,743.0,0.0,492.0,0
979,979,0.019747184442486132,0.5,True,449.0,994.0,0.0,3557.0,0
980,980,-0.8756206368380253,0.1,True,371.0,520.0,1.0,229.0,1
981,981,-0.34336172766103146,0.3,True,374.0,992.0,1.0,264.0,1
982,982,-0.9595145064502824,0.0,True,255.0,796.0,1.0,219.0,1
983,983,-0.7287125132623324,0.1,True,483.0,651.0,1.0,266.0,1
984,984,0.9217225467211367,1.0,True,383.0,613.0,0.0,204.0,0
985,985,0.4833932886300336,0.7,True,347.0,736.0,0.0,307.0,0
986,986,0.8199039477225178,0.9,True,392.0,522.0,0.0,276.0,0
987,987,-0.589515269024202,0.2,True,264.0,840.0,1.0,256.0,1
988,988,0.8145624426474338,0.9,True,330.0,820.0,0.0,270.0,0
989,989,0.8276255842580842,0.9,True,285.0,563.0,0.0,422.0,0
990,990,0.4790618579103385,0.7,True,425.0,515.0,0.0,260.0,0
991,991,0.07841669730761147,0.5,True,478.0,664.0,0.0,1678.0,0
992,992,-0.5038693185375054,0.2,True,465.0,867.0,1.0,268.0,1
993,993,-0.6606272055108908,0.2,True,311.0,874.0,1.0,215.0,1
994,994,0.8940730166814688,0.9,True,394.0,697.0,0.0,239.0,0
995,995,-0.12240497817098106,0.4,True,275.0,696.0,1.0,509.0,1
996,996,-0.6933787874260031,0.2,True,479.0,687.0,1.0,204.0,1
997,997,-0.5414889038370976,0.2,True,477.0,727.0,1.0,276.0,1
998,998,-0.013608913655214216,0.5,True,470.0,576.0,1.0,3904.0,1
999,999,-0.3447468592548353,0.3,True,438.0,680.0,1.0,232.0,1
1000,1000,-0.4511427476758587,0.3,True,284.0,878.0,1.0,228.0,1
1001,1001,-0.45210265630225654,0.3,True,483.0,801.0,1.0,236.0,1
1002,1002,-0.6008664195257465,0.2,True,429.0,521.0,1.0,250.0,1
1003,1003,-0.9378943324908113,0.0,True,425.0,894.0,1.0,231.0,1
1004,1004,-0.13143038054431466,0.4,True,343.0,986.0,1.0,471.0,1
1005,1005,0.5460408606003049,0.8,True,487.0,566.0,0.0,387.0,0
1006,1006,-0.903634446053017,0.0,True,359.0,562.0,1.0,209.0,1
1007,1007,-0.8375671234227271,0.1,True,322.0,981.0,1.0,207.0,1
1008,1008,-0.22486981218331192,0.4,True,270.0,797.0,1.0,293.0,1
1009,1009,-0.4836218933431664,0.3,True,256.0,702.0,1.0,222.0,1
1010,1010,0.6535214525963606,0.8,True,474.0,510.0,0.0,226.0,0
1011,1011,0.9453008668000462,1.0,True,370.0,554.0,0.0,256.0,0
1012,1012,-0.5655555538287544,0.2,True,322.0,904.0,1.0,244.0,1
1013,1013,-0.26153772775934847,0.4,True,483.0,590.0,1.0,407.0,1
1014,1014,-0.09272097293832915,0.5,True,450.0,670.0,1.0,550.0,1
1015,1015,-0.7010639491492361,0.1,True,273.0,926.0,1.0,241.0,1
1016,1016,0.08545579453887786,0.5,True,303.0,842.0,0.0,935.0,0
1017,1017,0.8744416712343712,0.9,True,303.0,762.0,0.0,225.0,0
1018,1018,-0.5198019322627214,0.2,True,329.0,772.0,1.0,269.0,1
1019,1019,-0.5107353055322656,0.2,True,305.0,577.0,1.0,238.0,1
1020,1020,0.9644583177938866,1.0,True,428.0,573.0,0.0,229.0,0
1021,1021,-0.6591285759956609,0.2,True,322.0,920.0,1.0,228.0,1
1022,1022,-0.15350098643343357,0.4,True,469.0,529.0,1.0,552.0,1
1023,1023,-0.7354966833995165,0.1,True,287.0,778.0,1.0,255.0,1
1024,1024,0.8206587350963297,0.9,True,364.0,875.0,0.0,251.0,0
1025,1025,-0.407858852146038,0.3,True,371.0,605.0,1.0,214.0,1
1026,1026,0.4820150013457545,0.7,True,368.0,513.0,0.0,499.0,0
1027,1027,-0.9651680490721821,0.0,True,343.0,979.0,1.0,258.0,1
1028,1028,-0.5329224887183079,0.2,True,448.0,754.0,1.0,228.0,1
1029,1029,-0.18379167521356465,0.4,True,323.0,959.0,1.0,318.0,1
1030,1030,0.20077528351308294,0.6,True,399.0,967.0,0.0,404.0,0
1031,1031,0.24421685239570246,0.6,True,412.0,745.0,0.0,813.0,0
1032,1032,0.09776843594347251,0.5,True,394.0,819.0,0.0,807.0,0
1033,1033,0.04478906152076312,0.5,True,367.0,886.0,1.0,3747.0,1
1034,1034,-0.6966090261914584,0.2,True,269.0,944.0,1.0,247.0,1
1035,1035,0.4626671090512062,0.7,True,373.0,886.0,0.0,491.0,0
1036,1036,0.7123046111401399,0.9,True,417.0,989.0,0.0,284.0,0
1037,1037,0.5656818965084673,0.8,True,463.0,750.0,0.0,407.0,0
1038,1038,-0.4084984338059523,0.3,True,384.0,997.0,1.0,239.0,1
1039,1039,-0.6968405016307018,0.2,True,476.0,577.0,1.0,217.0,1
1040,1040,-0.3789722763196035,0.3,True,324.0,502.0,1.0,234.0,1
1041,1041,-0.15069967762548964,0.4,True,264.0,930.0,1.0,646.0,1
1042,1042,-0.04953484486750215,0.5,True,497.0,869.0,1.0,684.0,1
1043,1043,-0.8335661828149492,0.1,True,433.0,792.0,1.0,225.0,1
1044,1044,-0.4560964930914233,0.3,True,266.0,575.0,1.0,329.0,1
1045,1045,-0.5407263902050816,0.2,True,306.0,875.0,1.0,339.0,1
1046,1046,0.8821840251743311,0.9,True,306.0,744.0,0.0,310.0,0
1047,1047,-0.9838885335457022,0.0,True,347.0,665.0,1.0,208.0,1
1048,1048,-0.7389762912501809,0.1,True,408.0,842.0,1.0,250.0,1
1049,1049,0.9476587795565059,1.0,True,354.0,981.0,0.0,235.0,0
1050,1050,-0.6907284932652837,0.2,True,276.0,973.0,1.0,231.0,1
1051,1051,0.9499994757067669,1.0,True,391.0,802.0,0.0,227.0,0
1052,1052,-0.7192357022369125,0.1,True,462.0,875.0,1.0,223.0,1
1053,1053,-0.4072412555046694,0.3,True,442.0,828.0,1.0,290.0,1
1054,1054,-0.17469584614054545,0.4,True,459.0,804.0,1.0,427.0,1
1055,1055,-0.8553914299505923,0.1,True,332.0,931.0,1.0,217.0,1
1056,1056,-0.903062865428951,0.0,True,342.0,508.0,1.0,230.0,1
1057,1057,-0.5908360335626197,0.2,True,262.0,922.0,1.0,216.0,1
1058,1058,0.3951884188438046,0.7,True,462.0,605.0,0.0,413.0,0
1059,1059,0.29593387141498684,0.6,True,435.0,714.0,0.0,671.0,0
1060,1060,-0.2933448655210449,0.4,True,352.0,923.0,1.0,485.0,1
1061,1061,0.7538821729138445,0.9,True,343.0,530.0,0.0,247.0,0
1062,1062,0.8709311448128245,0.9,True,372.0,957.0,0.0,211.0,0
1063,1063,0.02680570597184695,0.5,True,454.0,682.0,0.0,1774.0,0
1064,1064,-0.8761970491342799,0.1,True,451.0,823.0,1.0,216.0,1
1065,1065,-0.8052505980758935,0.1,True,355.0,781.0,1.0,244.0,1
1066,1066,-0.32581754448772027,0.3,True,322.0,836.0,1.0,302.0,1
1067,1067,-0.8457503786083556,0.1,True,478.0,686.0,1.0,226.0,1
1068,1068,-0.3379270612962617,0.3,True,388.0,557.0,1.0,345.0,1
1069,1069,-0.3370236858358715,0.3,True,490.0,761.0,1.0,269.0,1
1070,1070,0.3110522027519218,0.7,True,327.0,978.0,0.0,595.0,0
1071,1071,-0.6266322855384097,0.2,True,282.0,841.0,1.0,217.0,1
1072,1072,0.8851545826615412,0.9,True,332.0,967.0,0.0,251.0,0
1073,1073,0.12364219213946881,0.6,True,437.0,991.0,0.0,672.0,0
1074,1074,0.8395796589029247,0.9,True,484.0,947.0,0.0,249.0,0
1075,1075,-0.18855208631150577,0.4,True,275.0,858.0,1.0,337.0,1
1076,1076,-0.592374130354625,0.2,True,310.0,676.0,1.0,274.0,1
1077,1077,0.8210366029138636,0.9,True,419.0,575.0,0.0,416.0,0
1078,1078,-0.3216290755042801,0.3,True,441.0,842.0,1.0,237.0,1
1079,1079,0.3441591403830768,0.7,True,453.0,829.0,0.0,598.0,0
1080,1080,-0.2663385535720373,0.4,True,393.0,815.0,1.0,272.0,1
1081,1081,-0.053259413879739315,0.5,True,470.0,649.0,1.0,831.0,1
1082,1082,-0.8239745864852053,0.1,True,264.0,575.0,1.0,211.0,1
1083,1083,-0.52744680924411,0.2,True,275.0,797.0,1.0,248.0,1
1084,1084,-0.20144270702883205,0.4,True,303.0,544.0,1.0,393.0,1
1085,1085,0.42556760767838897,0.7,True,455.0,868.0,0.0,407.0,0
1086,1086,0.3516685729987852,0.7,True,453.0,743.0,0.0,494.0,0
1087,1087,0.9607043428661068,1.0,True,299.0,576.0,0.0,245.0,0
1088,1088,0.8648120763451006,0.9,True,371.0,565.0,0.0,224.0,0
1089,1089,0.3278098253002468,0.7,True,456.0,727.0,0.0,267.0,0
1090,1090,0.11082025484358793,0.6,True,364.0,548.0,0.0,1018.0,0
1091,1091,-0.37961249267375896,0.3,True,447.0,613.0,1.0,290.0,1
1092,1092,-0.7746242010347455,0.1,True,262.0,957.0,1.0,241.0,1
1093,1093,-0.5079015311408166,0.2,True,356.0,584.0,1.0,220.0,1
1094,1094,0.31114071462097104,0.7,True,341.0,954.0,0.0,385.0,0
1095,1095,0.9719370528622078,1.0,True,483.0,525.0,0.0,222.0,0
1096,1096,0.6440034340800542,0.8,True,297.0,764.0,0.0,259.0,0
1097,1097,-0.9472313976362259,0.0,True,336.0,879.0,1.0,205.0,1
1098,1098,0.3570643389617447,0.7,True,330.0,593.0,0.0,327.0,0
1099,1099,0.6692334573853773,0.8,True,492.0,984.0,0.0,264.0,0
1100,1100,-0.14348527366877728,0.4,True,425.0,854.0,1.0,421.0,1
1101,1101,-0.7822845647984265,0.1,True,272.0,952.0,1.0,226.0,1
1102,1102,0.961212596040887,1.0,True,282.0,983.0,0.0,245.0,0
1103,1103,-0.25626488890063936,0.4,True,274.0,703.0,1.0,383.0,1
1104,1104,0.07071809718515953,0.5,True,255.0,892.0,0.0,2033.0,0
1105,1105,0.26389918128047585,0.6,True,366.0,955.0,0.0,509.0,0
1106,1106,0.7346725988959015,0.9,True,366.0,873.0,0.0,221.0,0
1107,1107,-0.3340617760938225,0.3,True,305.0,839.0,1.0,266.0,1
1108,1108,0.1106427993391812,0.6,True,491.0,914.0,0.0,1505.0,0
1109,1109,-0.25638145928129563,0.4,True,309.0,720.0,1.0,351.0,1
1110,1110,0.12864758853653102,0.6,True,438.0,972.0,0.0,740.0,0
1111,1111,0.4528346976514648,0.7,True,469.0,899.0,0.0,272.0,0
1112,1112,-0.3885072611876963,0.3,True,280.0,714.0,1.0,266.0,1
1113,1113,-0.2398029209460517,0.4,True,426.0,708.0,1.0,366.0,1
1114,1114,-0.7243146475079476,0.1,True,327.0,894.0,1.0,219.0,1
1115,1115,-0.9255183686143924,0.0,True,288.0,764.0,1.0,208.0,1
1116,1116,0.696768630551521,0.8,True,289.0,809.0,0.0,282.0,0
1117,1117,-0.25303856350041576,0.4,True,468.0,926.0,1.0,266.0,1
1118,1118,0.5437204976167569,0.8,True,477.0,881.0,0.0,482.0,0
1119,1119,0.7040793363026705,0.9,True,400.0,702.0,0.0,248.0,0
1120,1120,0.7558516149281285,0.9,True,422.0,763.0,0.0,235.0,0
1121,1121,-0.13742254240074447,0.4,True,271.0,523.0,1.0,356.0,1
1122,1122,-0.10817983701404943,0.4,True,295.0,735.0,1.0,660.0,1
1123,1123,-0.6322767349916665,0.2,True,310.0,823.0,1.0,237.0,1
1124,1124,-0.8088425494839455,0.1,True,278.0,944.0,1.0,228.0,1
1125,1125,-0.8632749382198135,0.1,True,421.0,825.0,1.0,224.0,1
1126,1126,0.35833739150910615,0.7,True,326.0,636.0,0.0,528.0,0
1127,1127,-0.8641008649766864,0.1,True,311.0,526.0,1.0,273.0,1
1128,1128,-0.1211342588002895,0.4,True,404.0,626.0,1.0,350.0,1
1129,1129,-0.8702578999487129,0.1,True,411.0,987.0,1.0,262.0,1
1130,1130,0.23684269281624926,0.6,True,409.0,776.0,0.0,535.0,0
1131,1131,0.746205029189944,0.9,True,362.0,562.0,0.0,356.0,0
1132,1132,-0.9702720679589445,0.0,True,423.0,603.0,1.0,214.0,1
1133,1133,-0.172309227186366,0.4,True,475.0,780.0,1.0,885.0,1
1134,1134,0.39185059897253294,0.7,True,335.0,889.0,0.0,536.0,0
1135,1135,-0.9447846028026001,0.0,True,374.0,555.0,1.0,221.0,1
1136,1136,-0.681891796081298,0.2,True,306.0,526.0,1.0,218.0,1
1137,1137,-0.36739670980179917,0.3,True,481.0,869.0,1.0,230.0,1
1138,1138,0.34608284227225306,0.7,True,436.0,714.0,0.0,400.0,0
1139,1139,0.8647035591799836,0.9,True,479.0,648.0,0.0,243.0,0
1140,1140,0.3381043358016744,0.7,True,329.0,628.0,0.0,513.0,0
1141,1141,-0.7949618308438635,0.1,True,336.0,592.0,1.0,222.0,1
1142,1142,0.6780126651596983,0.8,True,265.0,916.0,0.0,439.0,0
1143,1143,-0.9174487675198066,0.0,True,435.0,970.0,1.0,225.0,1
1144,1144,0.8154037851335689,0.9,True,411.0,671.0,0.0,248.0,0
1145,1145,0.3789483683439683,0.7,True,375.0,553.0,0.0,282.0,0
1146,1146,-0.12106662095200726,0.4,True,438.0,561.0,1.0,501.0,1
1147,1147,-0.404808801429426,0.3,True,494.0,901.0,1.0,225.0,1
1148,1148,0.559922178962053,0.8,True,360.0,743.0,0.0,437.0,0
1149,1149,0.07112607566822149,0.5,True,449.0,847.0,0.0,2114.0,0
1150,1150,0.4105097092125296,0.7,True,476.0,893.0,0.0,471.0,0
1151,1151,0.8148560989711948,0.9,True,335.0,504.0,0.0,301.0,0
1152,1152,0.39594607353726063,0.7,True,445.0,716.0,0.0,459.0,0
1153,1153,0.17190765310478873,0.6,True,290.0,622.0,0.0,598.0,0
1154,1154,-0.6912194724028857,0.2,True,314.0,676.0,1.0,210.0,1
1155,1155,0.34791159678482275,0.7,True,258.0,867.0,0.0,425.0,0
1156,1156,0.5847151279771186,0.8,True,397.0,877.0,0.0,356.0,0
1157,1157,-0.3767852570521977,0.3,True,257.0,811.0,1.0,312.0,1
1158,1158,-0.5575006828075393,0.2,True,295.0,637.0,1.0,248.0,1
1159,1159,0.1338849286140229,0.6,True,342.0,671.0,0.0,817.0,0
1160,1160,-0.7446949194823993,0.1,True,394.0,558.0,1.0,238.0,1
1161,1161,0.5233812867809542,0.8,True,369.0,734.0,0.0,337.0,0
1162,1162,0.6489278868500321,0.8,True,347.0,902.0,0.0,261.0,0
1163,1163,-0.08405807756379313,0.5,True,428.0,623.0,1.0,509.0,1
1164,1164,0.24990384463142923,0.6,True,344.0,587.0,0.0,549.0,0
1165,1165,-0.47842180804191514,0.3,True,490.0,913.0,1.0,247.0,1
1166,1166,0.027191726101337466,0.5,True,407.0,634.0,0.0,3959.0,0
1167,1167,-0.4194587150089213,0.3,True,362.0,694.0,1.0,254.0,1
1168,1168,-0.694745445678274,0.2,True,278.0,762.0,1.0,260.0,1
1169,1169,0.018562957011633463,0.5,True,326.0,957.0,1.0,1797.0,1
1170,1170,-0.8071606105953428,0.1,True,436.0,627.0,1.0,217.0,1
1171,1171,-0.9989735082934803,0.0,True,337.0,729.0,1.0,214.0,1
1172,1172,0.9549592158811815,1.0,True,383.0,621.0,0.0,236.0,0
1173,1173,-0.6997027113499843,0.2,True,335.0,857.0,1.0,258.0,1
1174,1174,0.5686922551103788,0.8,True,250.0,767.0,0.0,453.0,0
1175,1175,-0.7449210222425651,0.1,True,466.0,529.0,1.0,235.0,1
1176,1176,0.633211257378486,0.8,True,312.0,936.0,0.0,252.0,0
1177,1177,0.8206039691897407,0.9,True,268.0,824.0,0.0,418.0,0
1178,1178,-0.9496983158153851,0.0,True,470.0,558.0,1.0,202.0,1
1179,1179,0.884954570458476,0.9,True,368.0,740.0,0.0,272.0,0
1180,1180,-0.6193626304456661,0.2,True,487.0,931.0,1.0,242.0,1
1181,1181,0.152682386425941,0.6,True,484.0,623.0,0.0,1013.0,0
1182,1182,-0.30217815646579727,0.3,True,334.0,990.0,1.0,296.0,1
1183,1183,-0.017418474038197296,0.5,True,450.0,765.0,1.0,2235.0,1
1184,1184,0.4175524084106015,0.7,True,344.0,847.0,0.0,489.0,0
1185,1185,-0.6798126734788146,0.2,True,283.0,574.0,1.0,233.0,1
1186,1186,-0.6035555589998225,0.2,True,472.0,934.0,1.0,274.0,1
1187,1187,0.5514219871304271,0.8,True,353.0,764.0,0.0,423.0,0
1188,1188,-0.36314990531686386,0.3,True,412.0,517.0,1.0,251.0,1
1189,1189,-0.4795232743503388,0.3,True,288.0,848.0,1.0,244.0,1
1190,1190,0.7659426764629595,0.9,True,456.0,954.0,0.0,250.0,0
1191,1191,0.9958230767118852,1.0,True,279.0,696.0,0.0,235.0,0
1192,1192,-0.6065145553676403,0.2,True,362.0,570.0,1.0,248.0,1
1193,1193,0.9062234257785517,1.0,True,447.0,624.0,0.0,249.0,0
1194,1194,0.7633627518812431,0.9,True,338.0,944.0,0.0,238.0,0
1195,1195,-0.8188373145923682,0.1,True,251.0,521.0,1.0,438.0,1
1196,1196,0.19224548878189407,0.6,True,497.0,549.0,0.0,454.0,0
1197,1197,-0.06310961977848795,0.5,True,429.0,986.0,1.0,545.0,1
1198,1198,-0.5436006540471676,0.2,True,477.0,702.0,1.0,241.0,1
1199,1199,-0.848459731626392,0.1,True,434.0,864.0,1.0,332.0,1
1200,1200,-0.9606523075009268,0.0,True,394.0,811.0,1.0,235.0,1
1201,1201,0.8755017341164313,0.9,True,269.0,931.0,0.0,240.0,0
1202,1202,0.6253972744012153,0.8,True,289.0,804.0,0.0,467.0,0
1203,1203,-0.9575661353859353,0.0,True,497.0,695.0,1.0,218.0,1
1204,1204,0.7456689718331571,0.9,True,486.0,915.0,0.0,399.0,0
1205,1205,-0.15450123155928375,0.4,True,430.0,570.0,1.0,530.0,1
1206,1206,-0.8812889384775549,0.1,True,414.0,518.0,1.0,218.0,1
1207,1207,0.6496851314693983,0.8,True,455.0,769.0,0.0,296.0,0
1208,1208,-0.2968630669567127,0.4,True,457.0,875.0,1.0,288.0,1
1209,1209,0.2357529607244071,0.6,True,279.0,628.0,0.0,793.0,0
1210,1210,-0.5177656521547194,0.2,True,330.0,586.0,1.0,294.0,1
1211,1211,-0.5049186882090129,0.2,True,361.0,590.0,1.0,239.0,1
1212,1212,0.662095241325491,0.8,True,257.0,945.0,0.0,258.0,0
1213,1213,0.3435334775235641,0.7,True,267.0,723.0,0.0,490.0,0
1214,1214,-0.9940459127520076,0.0,True,459.0,656.0,1.0,195.0,1
1215,1215,-0.05209425087891639,0.5,True,444.0,624.0,1.0,682.0,1
1216,1216,-0.18146091721217283,0.4,True,322.0,708.0,1.0,370.0,1
1217,1217,0.6316109634160307,0.8,True,483.0,867.0,0.0,440.0,0
1218,1218,0.39025965589676814,0.7,True,356.0,909.0,0.0,525.0,0
1219,1219,-0.8013340713754531,0.1,True,325.0,799.0,1.0,236.0,1
1220,1220,0.36537844077198134,0.7,True,352.0,542.0,0.0,396.0,0
1221,1221,0.9746364022409131,1.0,True,250.0,879.0,0.0,211.0,0
1222,1222,0.9583286325291269,1.0,True,464.0,523.0,0.0,273.0,0
1223,1223,0.8485517933833979,0.9,True,352.0,930.0,0.0,248.0,0
1224,1224,0.7271551571825976,0.9,True,380.0,522.0,0.0,308.0,0
1225,1225,-0.20073803863362194,0.4,True,264.0,850.0,1.0,306.0,1
1226,1226,-0.7958428481759356,0.1,True,459.0,935.0,1.0,236.0,1
1227,1227,-0.35549844450261614,0.3,True,384.0,650.0,1.0,266.0,1
1228,1228,-0.2254696122043629,0.4,True,385.0,775.0,1.0,500.0,1
1229,1229,-0.9815491505096778,0.0,True,468.0,655.0,1.0,237.0,1
1230,1230,-0.026609235390694153,0.5,True,499.0,782.0,1.0,1409.0,1
1231,1231,0.39196756179643666,0.7,True,462.0,942.0,0.0,526.0,0
1232,1232,0.4373432296526858,0.7,True,480.0,851.0,0.0,539.0,0
1233,1233,0.24742931573527227,0.6,True,329.0,802.0,0.0,519.0,0
1234,1234,-0.8418353327698933,0.1,True,385.0,861.0,1.0,244.0,1
1235,1235,-0.37416728872323124,0.3,True,417.0,551.0,1.0,252.0,1
1236,1236,0.08741975249737188,0.5,True,481.0,882.0,0.0,1057.0,0
1237,1237,0.39232709277980793,0.7,True,252.0,965.0,0.0,413.0,0
1238,1238,0.057480802171478995,0.5,True,319.0,590.0,0.0,1931.0,0
1239,1239,-0.49095414405944937,0.3,True,435.0,981.0,1.0,264.0,1
1240,1240,0.19401014649621606,0.6,True,337.0,991.0,0.0,622.0,0
1241,1241,0.004575924343280802,0.5,True,281.0,576.0,1.0,4143.0,1
1242,1242,0.6069436135778015,0.8,True,427.0,735.0,0.0,258.0,0
1243,1243,-0.19811205204186955,0.4,True,328.0,817.0,1.0,295.0,1
1244,1244,-0.9902196863079682,0.0,True,363.0,562.0,1.0,215.0,1
1245,1245,0.7477056779338949,0.9,True,293.0,849.0,0.0,288.0,0
1246,1246,-0.2464864085175329,0.4,True,345.0,644.0,1.0,491.0,1
1247,1247,-0.4438157502547502,0.3,True,274.0,562.0,1.0,234.0,1
1248,1248,-0.9107374604527965,0.0,True,282.0,623.0,1.0,235.0,1
1249,1249,-0.3416070999271288,0.3,True,400.0,615.0,1.0,265.0,1
1250,1250,-0.44032414197599334,0.3,True,397.0,718.0,1.0,235.0,1
1251,1251,-0.7011906433743202,0.1,True,399.0,834.0,1.0,207.0,1
1252,1252,0.001464836874665254,0.5,True,347.0,997.0,1.0,3336.0,1
1253,1253,0.2618920511284919,0.6,True,432.0,952.0,0.0,466.0,0
1254,1254,-0.6072611597726127,0.2,True,326.0,749.0,1.0,225.0,1
1255,1255,0.5145736359969291,0.8,True,258.0,777.0,0.0,365.0,0
1256,1256,-0.8495823628134247,0.1,True,493.0,808.0,1.0,209.0,1
1257,1257,0.5948933247186148,0.8,True,455.0,599.0,0.0,436.0,0
1258,1258,-0.46469368882523066,0.3,True,285.0,992.0,1.0,243.0,1
1259,1259,-0.589814789966806,0.2,True,454.0,641.0,1.0,245.0,1
1260,1260,0.38036213386101836,0.7,True,443.0,718.0,0.0,519.0,0
1261,1261,-0.7025769132574009,0.1,True,359.0,678.0,1.0,213.0,1
1262,1262,-0.5262395661573995,0.2,True,404.0,771.0,1.0,245.0,1
1263,1263,-0.2896907120637613,0.4,True,385.0,602.0,1.0,283.0,1
1264,1264,0.1695782810350137,0.6,True,320.0,674.0,0.0,556.0,0
1265,1265,-0.9919102106618451,0.0,True,282.0,960.0,1.0,218.0,1
1266,1266,-0.8751863077011752,0.1,True,281.0,772.0,1.0,207.0,1
1267,1267,-0.6905563192443742,0.2,True,441.0,636.0,1.0,273.0,1
1268,1268,0.6967327694723622,0.8,True,467.0,880.0,0.0,233.0,0
1269,1269,-0.6332797413409985,0.2,True,431.0,903.0,1.0,246.0,1
1270,1270,-0.4666752622924799,0.3,True,295.0,895.0,1.0,270.0,1
1271,1271,-0.8118073830366772,0.1,True,415.0,662.0,1.0,243.0,1
1272,1272,-0.44096850589107706,0.3,True,442.0,831.0,1.0,247.0,1
1273,1273,-0.11948935720408027,0.4,True,348.0,550.0,1.0,282.0,1
1274,1274,-0.30877825306502316,0.3,True,258.0,728.0,1.0,254.0,1
1275,1275,-0.5987782506847588,0.2,True,251.0,645.0,1.0,204.0,1
1276,1276,0.09202206329920748,0.5,True,365.0,579.0,0.0,1566.0,0
1277,1277,0.32350025754175515,0.7,True,363.0,714.0,0.0,313.0,0
1278,1278,-0.4228274002457497,0.3,True,428.0,691.0,1.0,311.0,1
1279,1279,0.02507197742797107,0.5,True,351.0,906.0,0.0,1453.0,0
1280,1280,0.8525837414855351,0.9,True,298.0,681.0,0.0,271.0,0
1281,1281,0.5555774460595082,0.8,True,445.0,837.0,0.0,298.0,0
1282,1282,0.31508556888539685,0.7,True,300.0,569.0,0.0,771.0,0
1283,1283,0.0912419895933001,0.5,True,348.0,606.0,0.0,3556.0,0
1284,1284,-0.3750635449851867,0.3,True,303.0,700.0,1.0,257.0,1
1285,1285,-0.6511921461604528,0.2,True,307.0,619.0,1.0,214.0,1
1286,1286,0.6057673185826251,0.8,True,337.0,809.0,0.0,294.0,0
1287,1287,-0.6086174735490211,0.2,True,441.0,847.0,1.0,262.0,1
1288,1288,0.16409774935306332,0.6,True,476.0,651.0,0.0,843.0,0
1289,1289,-0.8824623491087173,0.1,True,256.0,596.0,1.0,208.0,1
1290,1290,0.0019366249248751188,0.5,True,472.0,697.0,1.0,3831.0,1
1291,1291,-0.6293385516137826,0.2,True,456.0,811.0,1.0,193.0,1
1292,1292,-0.5785139237275276,0.2,True,497.0,728.0,1.0,215.0,1
1293,1293,-0.34119484195663774,0.3,True,356.0,798.0,1.0,286.0,1
1294,1294,-0.26809893048103905,0.4,True,485.0,988.0,1.0,267.0,1
1295,1295,-0.25512084223473086,0.4,True,485.0,514.0,1.0,411.0,1
1296,1296,-0.5427147605537339,0.2,True,499.0,825.0,1.0,226.0,1
1297,1297,-0.5662442371372287,0.2,True,389.0,551.0,1.0,240.0,1
1298,1298,0.9202876370508222,1.0,True,275.0,690.0,0.0,225.0,0
1299,1299,-0.1783109815764523,0.4,True,348.0,607.0,1.0,355.0,1
1300,1300,-0.4047403531032481,0.3,True,380.0,627.0,1.0,273.0,1
1301,1301,-0.3996567102857578,0.3,True,426.0,511.0,1.0,283.0,1
1302,1302,0.5584940960547793,0.8,True,363.0,676.0,0.0,321.0,0
1303,1303,0.6005893094218191,0.8,True,263.0,841.0,0.0,276.0,0
1304,1304,0.08684848897195385,0.5,True,482.0,566.0,0.0,2782.0,0
1305,1305,0.7219015756511187,0.9,True,319.0,578.0,0.0,283.0,0
1306,1306,0.09336295635159408,0.5,True,263.0,503.0,0.0,1424.0,0
1307,1307,-0.45153794470272945,0.3,True,365.0,964.0,1.0,251.0,1
1308,1308,-0.24407124919468592,0.4,True,441.0,892.0,1.0,317.0,1
1309,1309,-0.13661868711535585,0.4,True,472.0,533.0,1.0,795.0,1
1310,1310,0.2613866418645032,0.6,True,488.0,705.0,0.0,547.0,0
1311,1311,-0.7985957755121209,0.1,True,375.0,873.0,1.0,212.0,1
1312,1312,0.4576756585996258,0.7,True,274.0,686.0,0.0,370.0,0
1313,1313,0.20451119922123118,0.6,True,495.0,979.0,0.0,316.0,0
1314,1314,-0.7658827614472532,0.1,True,262.0,927.0,1.0,201.0,1
1315,1315,-0.1971773334794391,0.4,True,283.0,857.0,1.0,470.0,1
1316,1316,-0.3521753949378921,0.3,True,406.0,644.0,1.0,280.0,1
1317,1317,-0.78234027988625,0.1,True,433.0,728.0,1.0,229.0,1
1318,1318,0.6614880569731352,0.8,True,399.0,930.0,0.0,281.0,0
1319,1319,0.3024035759946706,0.7,True,373.0,571.0,0.0,516.0,0
1320,1320,0.10595405252731194,0.6,True,307.0,610.0,0.0,1793.0,0
1321,1321,-0.9644703302539357,0.0,True,445.0,727.0,1.0,248.0,1
1322,1322,0.25519881250077514,0.6,True,432.0,533.0,0.0,435.0,0
1323,1323,-0.5146689357516494,0.2,True,279.0,705.0,1.0,216.0,1
1324,1324,0.28229705493782853,0.6,True,259.0,573.0,0.0,298.0,0
1325,1325,0.9809588818161303,1.0,True,414.0,649.0,0.0,227.0,0
1326,1326,0.5647129605500163,0.8,True,302.0,867.0,0.0,271.0,0
1327,1327,0.11483388195432442,0.6,True,482.0,641.0,0.0,627.0,0
1328,1328,-0.27408652928287647,0.4,True,499.0,896.0,1.0,455.0,1
1329,1329,-0.5081785872948872,0.2,True,378.0,885.0,1.0,217.0,1
1330,1330,-0.2297298794082634,0.4,True,321.0,978.0,1.0,261.0,1
1331,1331,-0.3619833354554416,0.3,True,291.0,987.0,1.0,402.0,1
1332,1332,-0.1672363106006669,0.4,True,414.0,988.0,1.0,448.0,1
1333,1333,0.6219850968957383,0.8,True,487.0,610.0,0.0,233.0,0
1334,1334,-0.09408554957937376,0.5,True,327.0,756.0,1.0,317.0,1
1335,1335,0.5119185047058814,0.8,True,257.0,554.0,0.0,509.0,0
1336,1336,0.7195784160821563,0.9,True,356.0,514.0,0.0,370.0,0
1337,1337,-0.7077466478554797,0.1,True,284.0,601.0,1.0,245.0,1
1338,1338,-0.7128096414123619,0.1,True,263.0,948.0,1.0,239.0,1
1339,1339,-0.15063237755369085,0.4,True,289.0,957.0,1.0,384.0,1
1340,1340,0.4758433908303059,0.7,True,277.0,883.0,0.0,290.0,0
1341,1341,0.06419470794077342,0.5,True,339.0,503.0,0.0,2668.0,0
1342,1342,-0.7590766531328934,0.1,True,356.0,813.0,1.0,231.0,1
1343,1343,-0.3012300283506597,0.3,True,488.0,512.0,1.0,330.0,1
1344,1344,0.7335874765965333,0.9,True,408.0,984.0,0.0,258.0,0
1345,1345,-0.3074592451516054,0.3,True,497.0,963.0,1.0,310.0,1
1346,1346,0.18166891168688593,0.6,True,352.0,554.0,0.0,844.0,0
1347,1347,0.9347878044606435,1.0,True,323.0,978.0,0.0,249.0,0
1348,1348,-0.6563735706669953,0.2,True,368.0,668.0,1.0,264.0,1
1349,1349,-0.0974529451645958,0.5,True,385.0,883.0,1.0,482.0,1
1350,1350,0.6527888310984873,0.8,True,335.0,820.0,0.0,335.0,0
1351,1351,-0.879507187043693,0.1,True,442.0,687.0,1.0,251.0,1
1352,1352,0.15257953638438715,0.6,True,284.0,803.0,0.0,1013.0,0
1353,1353,0.9539893278749103,1.0,True,438.0,535.0,0.0,257.0,0
1354,1354,-0.7673913986149714,0.1,True,449.0,527.0,1.0,234.0,1
1355,1355,-0.8431974559086608,0.1,True,301.0,935.0,1.0,214.0,1
1356,1356,0.15152814138788417,0.6,True,344.0,777.0,0.0,559.0,0
1357,1357,-0.2975296333423023,0.4,True,389.0,784.0,1.0,507.0,1
1358,1358,-0.5686515263898853,0.2,True,354.0,996.0,1.0,220.0,1
1359,1359,0.9025705452536466,1.0,True,289.0,976.0,0.0,235.0,0
1360,1360,-0.009945525852974368,0.5,True,431.0,859.0,1.0,1480.0,1
1361,1361,0.9888033471452644,1.0,True,278.0,939.0,0.0,223.0,0
1362,1362,-0.7032030116385122,0.1,True,477.0,555.0,1.0,268.0,1
1363,1363,0.7624127990931806,0.9,True,415.0,500.0,0.0,235.0,0
1364,1364,-0.10761470879924917,0.4,True,439.0,957.0,1.0,574.0,1
1365,1365,0.6177174921998934,0.8,True,250.0,767.0,0.0,233.0,0
1366,1366,-0.12929302511945084,0.4,True,418.0,885.0,1.0,517.0,1
1367,1367,0.5746413692835963,0.8,True,439.0,843.0,0.0,498.0,0
1368,1368,0.9982842046786242,1.0,True,395.0,594.0,0.0,261.0,0
1369,1369,-0.2934186791264002,0.4,True,305.0,635.0,1.0,270.0,1
1370,1370,0.46978954270533335,0.7,True,488.0,703.0,0.0,299.0,0
1371,1371,0.23196191110549358,0.6,True,444.0,585.0,0.0,681.0,0
1372,1372,-0.9595346576050243,0.0,True,410.0,989.0,1.0,221.0,1
1373,1373,0.5354924171796385,0.8,True,491.0,778.0,0.0,281.0,0
1374,1374,0.01071758545514312,0.5,True,473.0,598.0,1.0,1899.0,1
1375,1375,0.9190164646766437,1.0,True,263.0,732.0,0.0,305.0,0
1376,1376,-0.9734636679582378,0.0,True,332.0,622.0,1.0,236.0,1
1377,1377,-0.5937575950923843,0.2,True,307.0,717.0,1.0,246.0,1
1378,1378,0.30145695204430134,0.7,True,278.0,693.0,0.0,559.0,0
1379,1379,-0.45362992597433194,0.3,True,395.0,664.0,1.0,251.0,1
1380,1380,-0.5204433276029532,0.2,True,355.0,582.0,1.0,273.0,1
1381,1381,-0.37869197030022095,0.3,True,339.0,759.0,1.0,352.0,1
1382,1382,0.5399867854443268,0.8,True,330.0,966.0,0.0,294.0,0
1383,1383,0.8737732867341421,0.9,True,482.0,726.0,0.0,222.0,0
1384,1384,0.5037164935981289,0.8,True,271.0,677.0,0.0,272.0,0
1385,1385,0.5561613374104151,0.8,True,393.0,879.0,0.0,268.0,0
1386,1386,0.5339886344177913,0.8,True,438.0,992.0,0.0,380.0,0
1387,1387,0.39194753232630286,0.7,True,403.0,753.0,0.0,584.0,0
1388,1388,0.4516846385613231,0.7,True,335.0,628.0,0.0,437.0,0
1389,1389,0.2200851459506692,0.6,True,388.0,834.0,0.0,938.0,0
1390,1390,-0.5253129292062331,0.2,True,262.0,864.0,1.0,304.0,1
1391,1391,-0.5411253860632463,0.2,True,308.0,933.0,1.0,239.0,1
1392,1392,-0.14441549490339334,0.4,True,414.0,595.0,1.0,431.0,1
1393,1393,-0.5828195395886708,0.2,True,369.0,578.0,1.0,253.0,1
1394,1394,-0.4017124910978256,0.3,True,265.0,956.0,1.0,289.0,1
1395,1395,-0.7162113953149103,0.1,True,428.0,540.0,1.0,232.0,1
1396,1396,0.366274862915408,0.7,True,428.0,828.0,0.0,544.0,0
1397,1397,0.8586028159939145,0.9,True,260.0,948.0,0.0,292.0,0
1398,1398,0.6951182035104289,0.8,True,282.0,616.0,0.0,242.0,0
1399,1399,-0.838586614773005,0.1,True,302.0,623.0,1.0,235.0,1
1400,1400,-0.05270723691098156,0.5,True,367.0,825.0,1.0,928.0,1
1401,1401,-0.051313279205581264,0.5,True,338.0,646.0,1.0,886.0,1
1402,1402,0.40583080344950684,0.7,True,309.0,979.0,0.0,522.0,0
1403,1403,-0.2906848100038881,0.4,True,391.0,804.0,1.0,485.0,1
1404,1404,-0.46881390514554444,0.3,True,258.0,564.0,1.0,258.0,1
1405,1405,0.02621530126767424,0.5,True,366.0,598.0,1.0,4036.0,1
1406,1406,-0.4232711827154383,0.3,True,319.0,818.0,1.0,293.0,1
1407,1407,-0.662624837925369,0.2,True,272.0,837.0,1.0,261.0,1
1408,1408,0.09022957262727282,0.5,True,493.0,720.0,0.0,1387.0,0
1409,1409,-0.4590972086736411,0.3,True,337.0,603.0,1.0,260.0,1
1410,1410,0.5564110237862816,0.8,True,401.0,585.0,0.0,254.0,0
1411,1411,0.595997113978656,0.8,True,310.0,807.0,0.0,263.0,0
1412,1412,-0.8630678353450894,0.1,True,493.0,771.0,1.0,226.0,1
1413,1413,0.049757583534636884,0.5,True,465.0,519.0,0.0,1686.0,0
1414,1414,-0.20065226679018644,0.4,True,446.0,869.0,1.0,425.0,1
1415,1415,-0.37412288587782894,0.3,True,273.0,724.0,1.0,283.0,1
1416,1416,-0.0551176032774503,0.5,True,442.0,566.0,1.0,512.0,1
1417,1417,0.03361657310375832,0.5,True,294.0,599.0,1.0,4107.0,1
1418,1418,-0.7806884146788493,0.1,True,325.0,712.0,1.0,223.0,1
1419,1419,-0.1291157404525305,0.4,True,299.0,646.0,1.0,505.0,1
1420,1420,0.23308687863812483,0.6,True,423.0,820.0,0.0,567.0,0
1421,1421,-0.6280677477973227,0.2,True,373.0,973.0,1.0,264.0,1
1422,1422,0.003344834128965246,0.5,True,478.0,991.0,0.0,3531.0,0
1423,1423,0.10868968267548396,0.6,True,363.0,666.0,0.0,1071.0,0
1424,1424,-0.5097004830109937,0.2,True,296.0,825.0,1.0,449.0,1
1425,1425,-0.4663931279711715,0.3,True,314.0,898.0,1.0,428.0,1
1426,1426,-0.20461435935000738,0.4,True,314.0,712.0,1.0,374.0,1
1427,1427,-0.8222889829774902,0.1,True,349.0,827.0,1.0,274.0,1
1428,1428,0.9241592566686565,1.0,True,303.0,503.0,0.0,444.0,0
1429,1429,0.17246585292033467,0.6,True,317.0,592.0,0.0,921.0,0
1430,1430,0.679964527448998,0.8,True,401.0,650.0,0.0,289.0,0
1431,1431,-0.5414305411772367,0.2,True,339.0,517.0,1.0,274.0,1
1432,1432,0.8883964549835375,0.9,True,445.0,958.0,0.0,347.0,0
1433,1433,0.7629097206895745,0.9,True,292.0,929.0,0.0,269.0,0
1434,1434,-0.7422234780637371,0.1,True,375.0,760.0,1.0,245.0,1
1435,1435,0.5913952282775414,0.8,True,297.0,578.0,0.0,265.0,0
1436,1436,-0.5138864331843056,0.2,True,408.0,840.0,1.0,242.0,1
1437,1437,0.5444672097656975,0.8,True,331.0,656.0,0.0,503.0,0
1438,1438,-0.9407104347980628,0.0,True,402.0,508.0,1.0,220.0,1
1439,1439,-0.6895771806963475,0.2,True,306.0,853.0,1.0,231.0,1
1440,1440,0.9234492361843663,1.0,True,476.0,713.0,0.0,231.0,0
1441,1441,0.03017399861285819,0.5,True,376.0,605.0,0.0,989.0,0
1442,1442,-0.028738220648555135,0.5,True,411.0,948.0,1.0,2491.0,1
1443,1443,-0.18207113657077523,0.4,True,278.0,538.0,1.0,324.0,1
1444,1444,-0.20314778467595818,0.4,True,320.0,918.0,1.0,502.0,1
1445,1445,-0.023524621581227034,0.5,True,455.0,886.0,1.0,599.0,1
1446,1446,0.04097511013811417,0.5,True,372.0,827.0,1.0,3801.0,1
1447,1447,0.49222452006099826,0.7,True,450.0,728.0,0.0,292.0,0
1448,1448,-0.09587769522349254,0.5,True,413.0,727.0,1.0,920.0,1
1449,1449,-0.9989042498893084,0.0,True,362.0,882.0,1.0,196.0,1
1450,1450,-0.6642598144335912,0.2,True,265.0,613.0,1.0,222.0,1
1451,1451,-0.9334016016371536,0.0,True,252.0,744.0,1.0,214.0,1
1452,1452,-0.044721544206329567,0.5,True,279.0,794.0,1.0,677.0,1
1453,1453,0.7420142251470649,0.9,True,464.0,729.0,0.0,277.0,0
1454,1454,0.4759784508028979,0.7,True,494.0,593.0,0.0,263.0,0
1455,1455,0.6802048745385836,0.8,True,435.0,965.0,0.0,280.0,0
1456,1456,0.711751938393085,0.9,True,486.0,963.0,0.0,341.0,0
1457,1457,0.6650064782713938,0.8,True,335.0,585.0,0.0,270.0,0
1458,1458,0.09127563662265237,0.5,True,421.0,594.0,0.0,1125.0,0
1459,1459,-0.679698210703418,0.2,True,436.0,794.0,1.0,260.0,1
1460,1460,0.3983526555042103,0.7,True,344.0,555.0,0.0,541.0,0
1461,1461,-0.2845548938187523,0.4,True,385.0,803.0,1.0,242.0,1
1462,1462,0.9632476822534735,1.0,True,357.0,637.0,0.0,226.0,0
1463,1463,0.9526273578653663,1.0,True,454.0,786.0,0.0,390.0,0
1464,1464,-0.24853347218266753,0.4,True,265.0,746.0,1.0,309.0,1
1465,1465,0.7071865558204273,0.9,True,374.0,758.0,0.0,268.0,0
1466,1466,-0.4671161858154258,0.3,True,349.0,530.0,1.0,211.0,1
1467,1467,0.37599506279546024,0.7,True,368.0,552.0,0.0,420.0,0
1468,1468,0.07762458522975657,0.5,True,375.0,719.0,0.0,2946.0,0
1469,1469,0.17935253967521803,0.6,True,343.0,571.0,0.0,626.0,0
1470,1470,-0.7947283729452725,0.1,True,396.0,568.0,1.0,196.0,1
1471,1471,-0.5514367874650719,0.2,True,258.0,792.0,1.0,420.0,1
1472,1472,0.5094776509684174,0.8,True,385.0,537.0,0.0,268.0,0
1473,1473,0.036506212045974706,0.5,True,462.0,999.0,1.0,1309.0,1
1474,1474,-0.8507391557005795,0.1,True,465.0,824.0,1.0,211.0,1
1475,1475,0.26631574420934223,0.6,True,438.0,886.0,0.0,396.0,0
1476,1476,0.7942603864528723,0.9,True,465.0,958.0,0.0,247.0,0
1477,1477,0.7739193944536684,0.9,True,331.0,769.0,0.0,260.0,0
1478,1478,-0.35418284265070166,0.3,True,459.0,962.0,1.0,419.0,1
1479,1479,0.9366304443566793,1.0,True,394.0,579.0,0.0,247.0,0
1480,1480,0.641486998607222,0.8,True,292.0,692.0,0.0,436.0,0
1481,1481,-0.8185347154508049,0.1,True,344.0,913.0,1.0,243.0,1
1482,1482,0.7056830999081707,0.9,True,416.0,877.0,0.0,317.0,0
1483,1483,0.7136208197230491,0.9,True,384.0,837.0,0.0,309.0,0
1484,1484,0.40368700969976756,0.7,True,490.0,693.0,0.0,527.0,0
1485,1485,0.9820215443256801,1.0,True,347.0,892.0,0.0,241.0,0
1486,1486,-0.37764269593063315,0.3,True,276.0,758.0,1.0,256.0,1
1487,1487,0.5142760970251761,0.8,True,468.0,791.0,0.0,251.0,0
1488,1488,-0.3877146163632834,0.3,True,485.0,608.0,1.0,257.0,1
1489,1489,0.8452586935005819,0.9,True,420.0,938.0,0.0,242.0,0
1490,1490,-0.2940054327943489,0.4,True,398.0,845.0,1.0,277.0,1
1491,1491,-0.2897468167953354,0.4,True,266.0,566.0,1.0,308.0,1
1492,1492,-0.48290714704239557,0.3,True,471.0,741.0,1.0,288.0,1
1493,1493,0.3108166864487001,0.7,True,409.0,526.0,0.0,435.0,0
1494,1494,0.8834493948686073,0.9,True,270.0,542.0,0.0,238.0,0
1495,1495,-0.7051705104382959,0.1,True,469.0,553.0,1.0,238.0,1
1496,1496,0.9440583473117532,1.0,True,412.0,585.0,0.0,233.0,0
1497,1497,-0.023814905501400307,0.5,True,377.0,527.0,1.0,1286.0,1
1498,1498,-0.6653538211864043,0.2,True,343.0,912.0,1.0,215.0,1
1499,1499,-0.726992171055409,0.1,True,477.0,524.0,1.0,209.0,1
1500,1500,-0.5040487054334062,0.2,True,379.0,670.0,1.0,221.0,1
1501,1501,0.37068036791628267,0.7,True,314.0,641.0,0.0,325.0,0
1502,1502,-0.42908484944159797,0.3,True,471.0,709.0,1.0,320.0,1
1503,1503,0.30336441301324535,0.7,True,260.0,808.0,0.0,292.0,0
1504,1504,-0.09420791823758612,0.5,True,261.0,565.0,1.0,944.0,1
1505,1505,-0.7727859619321553,0.1,True,337.0,515.0,1.0,228.0,1
1506,1506,0.8301124585312263,0.9,True,419.0,709.0,0.0,242.0,0
1507,1507,-0.24869294869564973,0.4,True,480.0,786.0,1.0,254.0,1
1508,1508,-0.3228436607011671,0.3,True,311.0,818.0,1.0,281.0,1
1509,1509,-0.6856303569948039,0.2,True,276.0,796.0,1.0,238.0,1
1510,1510,-0.7221915894009403,0.1,True,409.0,829.0,1.0,222.0,1
1511,1511,0.9677600272723446,1.0,True,451.0,678.0,0.0,211.0,0
1512,1512,0.1744395437806472,0.6,True,306.0,536.0,0.0,678.0,0
1513,1513,0.9041192987853006,1.0,True,431.0,934.0,0.0,245.0,0
1514,1514,-0.03922374190404643,0.5,True,353.0,646.0,1.0,1101.0,1
1515,1515,-0.9004237752121238,0.0,True,414.0,703.0,1.0,233.0,1
1516,1516,0.12372926302401255,0.6,True,460.0,858.0,0.0,1642.0,0
1517,1517,0.17703502214035716,0.6,True,471.0,577.0,0.0,752.0,0
1518,1518,-0.543564888294715,0.2,True,252.0,784.0,1.0,234.0,1
1519,1519,-0.1776727367867954,0.4,True,346.0,616.0,1.0,498.0,1
1520,1520,0.5570916777236061,0.8,True,266.0,842.0,0.0,292.0,0
1521,1521,-0.10365288892207247,0.4,True,358.0,596.0,1.0,496.0,1
1522,1522,-0.4191330373683868,0.3,True,402.0,730.0,1.0,278.0,1
1523,1523,0.5589465302474423,0.8,True,421.0,663.0,0.0,386.0,0
1524,1524,0.9210273117508114,1.0,True,383.0,517.0,0.0,240.0,0
1525,1525,-0.9903755094448148,0.0,True,302.0,902.0,1.0,216.0,1
1526,1526,0.4898397895608275,0.7,True,434.0,830.0,0.0,326.0,0
1527,1527,-0.5356601266599916,0.2,True,292.0,924.0,1.0,254.0,1
1528,1528,-0.8051505434076489,0.1,True,354.0,699.0,1.0,237.0,1
1529,1529,0.4085297754313122,0.7,True,411.0,731.0,0.0,278.0,0
1530,1530,0.5820130854021586,0.8,True,265.0,510.0,0.0,305.0,0
1531,1531,0.9903362103038817,1.0,True,360.0,552.0,0.0,258.0,0
1532,1532,-0.004899696302274492,0.5,True,385.0,887.0,1.0,1338.0,1
1533,1533,-0.45331878308329077,0.3,True,392.0,773.0,1.0,255.0,1
1534,1534,-0.3185476382887644,0.3,True,361.0,608.0,1.0,281.0,1
1535,1535,0.8926826933656045,0.9,True,271.0,707.0,0.0,242.0,0
1536,1536,0.169053665651838,0.6,True,346.0,600.0,0.0,474.0,0
1537,1537,0.6698091851293169,0.8,True,485.0,905.0,0.0,480.0,0
1538,1538,0.8812445935639068,0.9,True,436.0,986.0,0.0,378.0,0
1539,1539,0.5127466340940627,0.8,True,407.0,661.0,0.0,432.0,0
1540,1540,0.5821745217377141,0.8,True,458.0,650.0,0.0,422.0,0
1541,1541,0.4564250688908347,0.7,True,329.0,681.0,0.0,280.0,0
1542,1542,-0.0039009562995935276,0.5,True,336.0,997.0,1.0,2567.0,1
1543,1543,0.4104463137621548,0.7,True,298.0,905.0,0.0,267.0,0
1544,1544,0.9058821443858394,1.0,True,463.0,960.0,0.0,287.0,0
1545,1545,-0.4788688089745834,0.3,True,315.0,922.0,1.0,263.0,1
1546,1546,0.7072999097408883,0.9,True,322.0,745.0,0.0,283.0,0
1547,1547,0.8249521480044979,0.9,True,496.0,534.0,0.0,270.0,0
1548,1548,-0.32252658134440204,0.3,True,379.0,729.0,1.0,272.0,1
1549,1549,0.9544692223321822,1.0,True,343.0,601.0,0.0,256.0,0
1550,1550,0.966376618290927,1.0,True,389.0,715.0,0.0,266.0,0
1551,1551,0.9848509117744657,1.0,True,376.0,706.0,0.0,268.0,0
1552,1552,0.9990186501097953,1.0,True,388.0,521.0,0.0,231.0,0
1553,1553,-0.2505701716536577,0.4,True,272.0,877.0,1.0,281.0,1
1554,1554,-0.012822600409575724,0.5,True,314.0,984.0,1.0,3302.0,1
1555,1555,0.2944052998844531,0.6,True,300.0,734.0,0.0,436.0,0
1556,1556,-0.860211400163639,0.1,True,384.0,753.0,1.0,223.0,1
1557,1557,0.7509240738738965,0.9,True,377.0,787.0,0.0,256.0,0
1558,1558,0.49100403847027807,0.7,True,253.0,906.0,0.0,281.0,0
1559,1559,0.0557838507239512,0.5,True,379.0,576.0,0.0,1525.0,0
1560,1560,0.5939264295897391,0.8,True,365.0,865.0,0.0,260.0,0
1561,1561,0.3463409616903441,0.7,True,374.0,858.0,0.0,518.0,0
1562,1562,-0.3810170356935543,0.3,True,443.0,844.0,1.0,303.0,1
1563,1563,0.8573080671528384,0.9,True,309.0,829.0,0.0,272.0,0
1564,1564,-0.2119263204318551,0.4,True,349.0,788.0,1.0,463.0,1
1565,1565,0.7218804289764846,0.9,True,490.0,517.0,0.0,263.0,0
1566,1566,0.006784121476504312,0.5,True,418.0,755.0,1.0,3827.0,1
1567,1567,0.18558148374756422,0.6,True,490.0,942.0,0.0,418.0,0
1568,1568,0.7429381097681973,0.9,True,324.0,869.0,0.0,317.0,0
1569,1569,0.17125604335915834,0.6,True,406.0,713.0,0.0,621.0,0
1570,1570,0.6846311326209609,0.8,True,303.0,578.0,0.0,249.0,0
1571,1571,0.870963511795736,0.9,True,456.0,889.0,0.0,245.0,0
1572,1572,0.41028058473713513,0.7,True,404.0,774.0,0.0,532.0,0
1573,1573,0.979170045562658,1.0,True,457.0,526.0,0.0,247.0,0
1574,1574,-0.9068014165361773,0.0,True,416.0,761.0,1.0,273.0,1
1575,1575,-0.25390401355282854,0.4,True,424.0,901.0,1.0,395.0,1
1576,1576,0.3749927469666512,0.7,True,324.0,694.0,0.0,402.0,0
1577,1577,0.19243308555755534,0.6,True,371.0,796.0,0.0,843.0,0
1578,1578,0.15603948913887367,0.6,True,267.0,972.0,0.0,661.0,0
1579,1579,-0.06554259930584938,0.5,True,399.0,721.0,1.0,420.0,1
1580,1580,0.2268431276057945,0.6,True,289.0,700.0,0.0,581.0,0
1581,1581,-0.38763759044003865,0.3,True,266.0,819.0,1.0,355.0,1
1582,1582,-0.8193835219673749,0.1,True,411.0,751.0,1.0,248.0,1
1583,1583,-0.25134741260168614,0.4,True,270.0,529.0,1.0,451.0,1
1584,1584,0.9712871666125544,1.0,True,440.0,688.0,0.0,282.0,0
1585,1585,0.7218142972979003,0.9,True,387.0,564.0,0.0,259.0,0
1586,1586,0.7965740681141602,0.9,True,318.0,876.0,0.0,436.0,0
1587,1587,-0.9761833804468869,0.0,True,382.0,626.0,1.0,212.0,1
1588,1588,0.7747795468004146,0.9,True,407.0,525.0,0.0,258.0,0
1589,1589,0.18823295575108556,0.6,True,341.0,733.0,0.0,556.0,0
1590,1590,-0.07523268275780293,0.5,True,383.0,921.0,1.0,576.0,1
1591,1591,0.014642834222210688,0.5,True,409.0,854.0,1.0,3257.0,1
1592,1592,0.29801353434740574,0.6,True,477.0,808.0,0.0,575.0,0
1593,1593,0.13267962911980358,0.6,True,401.0,954.0,0.0,505.0,0
1594,1594,0.18687104162155954,0.6,True,428.0,747.0,0.0,875.0,0
1595,1595,-0.3352046470918051,0.3,True,451.0,892.0,1.0,257.0,1
1596,1596,-0.46052710800165175,0.3,True,252.0,750.0,1.0,368.0,1
1597,1597,0.5745952649769865,0.8,True,360.0,568.0,0.0,402.0,0
1598,1598,0.5387718864011952,0.8,True,394.0,773.0,0.0,453.0,0
1599,1599,-0.09543539768583464,0.5,True,350.0,823.0,1.0,377.0,1
1600,1600,-0.21422086631936743,0.4,True,292.0,535.0,1.0,343.0,1
1601,1601,0.9255975432279997,1.0,True,472.0,661.0,0.0,267.0,0
1602,1602,0.39939164768113833,0.7,True,413.0,948.0,0.0,429.0,0
1603,1603,-0.042414706589175566,0.5,True,338.0,791.0,1.0,1251.0,1
1604,1604,-0.23672305390930282,0.4,True,487.0,808.0,1.0,555.0,1
1605,1605,-0.9569455480834299,0.0,True,340.0,921.0,1.0,239.0,1
1606,1606,-0.9878434873875572,0.0,True,398.0,961.0,1.0,211.0,1
1607,1607,-0.8219399017473161,0.1,True,442.0,841.0,1.0,217.0,1
1608,1608,0.9653547954858253,1.0,True,473.0,900.0,0.0,347.0,0
1609,1609,-0.12325586330241345,0.4,True,344.0,939.0,1.0,307.0,1
1610,1610,-0.5901500090595952,0.2,True,365.0,512.0,1.0,293.0,1
1611,1611,-0.2509782511812326,0.4,True,400.0,575.0,1.0,325.0,1
1612,1612,0.3609104240006247,0.7,True,263.0,720.0,0.0,507.0,0
1613,1613,-0.5939603940030622,0.2,True,375.0,658.0,1.0,227.0,1
1614,1614,0.08067260485582106,0.5,True,334.0,773.0,0.0,913.0,0
1615,1615,0.4815535508230917,0.7,True,423.0,681.0,0.0,276.0,0
1616,1616,0.47531424358332997,0.7,True,431.0,581.0,0.0,528.0,0
1617,1617,0.5819510095545628,0.8,True,476.0,858.0,0.0,436.0,0
1618,1618,0.22561326283152283,0.6,True,414.0,891.0,0.0,565.0,0
1619,1619,-0.293332192983768,0.4,True,397.0,522.0,1.0,261.0,1
1620,1620,0.2410420078188027,0.6,True,329.0,546.0,0.0,575.0,0
1621,1621,-0.9290133776442344,0.0,True,262.0,633.0,1.0,205.0,1
1622,1622,-0.854915656373703,0.1,True,498.0,892.0,1.0,240.0,1
1623,1623,0.04337787829183659,0.5,True,489.0,862.0,0.0,2539.0,0
