,trial,coherence,coherence_bin,correct_side,target_onset,checker_onset,decision,decision_time,correct_decision,g0,gSlope
0,0,0.46010898678836365,0.5,0,250.0,642.0,0.0,278.0,1,0.6364018248953847,0.0
1,1,-0.984893726871904,-1.0,1,306.0,918.0,1.0,86.0,1,0.9726187879725888,0.0
2,2,-0.40731873150222464,-0.4,1,388.0,579.0,1.0,513.0,1,0.45038318923017806,0.0
3,3,-0.2728096643098148,-0.3,1,356.0,606.0,1.0,268.0,1,0.8498451284015957,0.0
4,4,-0.3935615114263402,-0.4,1,437.0,861.0,1.0,242.0,1,0.7192285228337328,0.0
5,5,-0.8052913494437985,-0.8,1,451.0,988.0,1.0,421.0,1,0.1774324964728634,0.0
6,6,-0.0011688298954517506,-0.0,1,399.0,520.0,1.0,401.0,1,0.7334164724133687,0.0
7,7,-0.7238765776665115,-0.7,1,466.0,850.0,1.0,374.0,1,0.3923776787232658,0.0
8,8,-0.9082672191472978,-0.9,1,408.0,662.0,1.0,330.0,1,0.2853456071571677,0.0
9,9,0.7441510143599466,0.7,0,358.0,761.0,0.0,171.0,1,0.8522651706053095,0.0
10,10,0.6880259045398742,0.7,0,430.0,625.0,0.0,865.0,1,0.12678379252733576,0.0
11,11,-0.8774386815365016,-0.9,1,431.0,679.0,1.0,200.0,1,0.7332857400029914,0.0
12,12,0.7465736716960876,0.7,0,480.0,874.0,0.0,616.0,1,0.7852540219112226,0.0
13,13,0.3410133552213539,0.3,0,324.0,525.0,0.0,611.0,1,0.39033724916737944,0.0
14,14,-0.5611671813923302,-0.6,1,488.0,745.0,1.0,207.0,1,0.7372255659557924,0.0
15,15,-0.032305080330926605,-0.0,1,270.0,836.0,0.0,734.0,0,0.8693048172007998,0.0
16,16,-0.9739814541738239,-1.0,1,429.0,587.0,1.0,154.0,1,0.8399671570207881,0.0
17,17,-0.21523624040025302,-0.2,1,424.0,958.0,1.0,378.0,1,0.3535788184912364,0.0
18,18,0.19379742756485796,0.2,0,351.0,827.0,0.0,1212.0,1,0.1943033920354214,0.0
19,19,-0.9232908113743861,-0.9,1,284.0,724.0,1.0,262.0,1,0.5517684121511636,0.0
20,20,0.1889811847508973,0.2,0,368.0,817.0,1.0,405.0,0,0.9374509141781125,0.0
21,21,0.0017069726298937216,0.0,0,304.0,983.0,0.0,923.0,1,0.982167923757648,0.0
22,22,-0.5483112519302005,-0.5,1,377.0,640.0,1.0,263.0,1,0.9909915862488187,0.0
23,23,-0.019198289437717175,-0.0,1,441.0,536.0,0.0,1163.0,0,0.5226307776460988,0.0
24,24,-0.8529143784145774,-0.9,1,274.0,846.0,1.0,430.0,1,0.16404297895549524,0.0
25,25,0.2938988156565321,0.3,0,374.0,964.0,0.0,262.0,1,0.9763084906865426,0.0
26,26,-0.9432408637637957,-0.9,1,365.0,589.0,1.0,236.0,1,0.5476523393520438,0.0
27,27,0.968295502011304,1.0,0,447.0,957.0,0.0,186.0,1,0.7126988384096876,0.0
28,28,-0.7152544188041601,-0.7,1,291.0,757.0,1.0,202.0,1,0.44353052996734943,0.0
29,29,0.5699002119043937,0.6,0,289.0,901.0,0.0,470.0,1,0.5282350304100258,0.0
30,30,-0.8923439371899677,-0.9,1,367.0,908.0,1.0,515.0,1,0.10814370319287622,0.0
31,31,-0.3005767523092364,-0.3,1,434.0,834.0,1.0,382.0,1,0.2914516458677904,0.0
32,32,0.7605508788681994,0.8,0,301.0,801.0,0.0,248.0,1,0.880373153686658,0.0
33,33,-0.13317800930505674,-0.1,1,466.0,684.0,1.0,1350.0,1,0.3063518780566498,0.0
34,34,0.26603999562516845,0.3,0,318.0,720.0,0.0,512.0,1,0.8685443087895918,0.0
35,35,0.6017068512132004,0.6,0,470.0,733.0,0.0,427.0,1,0.5721581881101948,0.0
36,36,-0.7326347865089262,-0.7,1,270.0,654.0,1.0,356.0,1,0.5118312595905905,0.0
37,37,-0.7844719995268048,-0.8,1,372.0,863.0,1.0,175.0,1,0.7844749812765375,0.0
38,38,0.6375888525274609,0.6,0,319.0,867.0,0.0,274.0,1,0.4794237111335482,0.0
39,39,-0.4794076418515256,-0.5,1,334.0,773.0,1.0,263.0,1,0.5164774657372547,0.0
40,40,0.9919521002732972,1.0,0,496.0,590.0,0.0,204.0,1,0.729056834645834,0.0
41,41,0.29544567759798723,0.3,0,299.0,509.0,0.0,692.0,1,0.23857632091675515,0.0
42,42,-0.496417474551174,-0.5,1,462.0,809.0,1.0,829.0,1,0.15240883872293992,0.0
43,43,-0.946107915655612,-0.9,1,357.0,922.0,1.0,551.0,1,0.11426988757696269,0.0
44,44,0.021416816408948103,0.0,0,283.0,501.0,1.0,1436.0,0,0.13141969322370764,0.0
45,45,0.833672485086788,0.8,0,378.0,928.0,0.0,224.0,1,0.9873673555810158,0.0
46,46,-0.4006105608412931,-0.4,1,422.0,642.0,1.0,446.0,1,0.6681863973862874,0.0
47,47,-0.11762501675826531,-0.1,1,277.0,917.0,1.0,1326.0,1,0.20647522480444985,0.0
48,48,0.3905685896459985,0.4,0,472.0,828.0,0.0,460.0,1,0.30526544477198647,0.0
49,49,0.6646288334038128,0.7,0,447.0,918.0,0.0,345.0,1,0.5107626484445404,0.0
50,50,0.16028209441023744,0.2,0,453.0,589.0,0.0,708.0,1,0.32033142393158504,0.0
51,51,-0.46936179523397836,-0.5,1,400.0,634.0,1.0,476.0,1,0.493925460424964,0.0
52,52,-0.6253068485282678,-0.6,1,496.0,623.0,1.0,541.0,1,0.4106459317472586,0.0
53,53,-0.6111753716244419,-0.6,1,460.0,639.0,1.0,131.0,1,0.7164257420474062,0.0
54,54,-0.2753830319720052,-0.3,1,280.0,594.0,1.0,566.0,1,0.9458212143813328,0.0
55,55,-0.654169962139731,-0.7,1,464.0,631.0,1.0,345.0,1,0.49236257904732095,0.0
56,56,-0.8472599555646403,-0.8,1,337.0,669.0,1.0,334.0,1,0.31488507867456766,0.0
57,57,-0.5384425101140831,-0.5,1,285.0,568.0,1.0,287.0,1,0.8028632488998381,0.0
58,58,0.5965712716112541,0.6,0,440.0,648.0,0.0,292.0,1,0.9492799857550268,0.0
59,59,-0.8956865576541886,-0.9,1,288.0,583.0,1.0,449.0,1,0.27662126637752277,0.0
60,60,-0.2963493441701719,-0.3,1,470.0,748.0,1.0,202.0,1,0.8420784508096951,0.0
61,61,0.9237927443395706,0.9,0,271.0,602.0,0.0,277.0,1,0.7858818375112572,0.0
62,62,0.883461879598193,0.9,0,477.0,923.0,0.0,150.0,1,0.8972261808008043,0.0
63,63,0.42070553450331927,0.4,0,291.0,714.0,0.0,1075.0,1,0.1940957951727328,0.0
64,64,0.6757302327181114,0.7,0,302.0,651.0,0.0,187.0,1,0.9806303727216261,0.0
65,65,-0.6734293034864007,-0.7,1,422.0,612.0,1.0,176.0,1,0.509481996506292,0.0
66,66,-0.4827027577441976,-0.5,1,419.0,675.0,1.0,346.0,1,0.4568782680347765,0.0
67,67,0.38765589536837064,0.4,0,472.0,936.0,0.0,452.0,1,0.28763616433013844,0.0
68,68,0.24813255092547393,0.2,0,460.0,623.0,0.0,307.0,1,0.943594742564983,0.0
69,69,-0.16613751846628477,-0.2,1,280.0,680.0,1.0,950.0,1,0.692655606266471,0.0
70,70,0.6586301528195291,0.7,0,496.0,962.0,0.0,452.0,1,0.21274647920582754,0.0
71,71,0.11853897358292564,0.1,0,305.0,623.0,0.0,892.0,1,0.28193788754727644,0.0
72,72,0.18660429752145835,0.2,0,455.0,595.0,0.0,860.0,1,0.7735321032292468,0.0
73,73,-0.9548411476729937,-1.0,1,429.0,901.0,1.0,340.0,1,0.17165570939003671,0.0
74,74,-0.8990860328864319,-0.9,1,357.0,829.0,1.0,244.0,1,0.8599616021613903,0.0
75,75,0.5675065845425271,0.6,0,413.0,814.0,0.0,323.0,1,0.8559048829402548,0.0
76,76,-0.1259591534790656,-0.1,1,459.0,866.0,1.0,485.0,1,0.7019607080173238,0.0
77,77,0.9138673062966778,0.9,0,365.0,783.0,0.0,722.0,1,0.1119579991717958,0.0
78,78,-0.3120452149464805,-0.3,1,495.0,927.0,1.0,998.0,1,0.9445874885948706,0.0
79,79,-0.5993065882218951,-0.6,1,404.0,609.0,1.0,467.0,1,0.1998172302692499,0.0
80,80,0.9101774751806642,0.9,0,322.0,712.0,0.0,346.0,1,0.6485784327611652,0.0
81,81,0.9934870823434672,1.0,0,259.0,844.0,0.0,317.0,1,0.2942949889772476,0.0
82,82,-0.41014705411597263,-0.4,1,312.0,951.0,1.0,1017.0,1,0.12709457978622626,0.0
83,83,0.9091197126241473,0.9,0,328.0,636.0,0.0,246.0,1,0.6981685662866588,0.0
84,84,0.6937854615172743,0.7,0,376.0,952.0,0.0,752.0,1,0.26405404542028915,0.0
85,85,0.9491071404302978,0.9,0,345.0,937.0,0.0,238.0,1,0.6670362185372413,0.0
86,86,-0.7105593169397262,-0.7,1,348.0,814.0,1.0,108.0,1,0.8877784835910403,0.0
87,87,-0.594133116395877,-0.6,1,262.0,788.0,1.0,710.0,1,0.17339917302172989,0.0
88,88,-0.7483078653259372,-0.7,1,351.0,571.0,1.0,328.0,1,0.26371581623331014,0.0
89,89,0.9203272093331252,0.9,0,468.0,616.0,0.0,236.0,1,0.6888673004768167,0.0
90,90,0.08242893925637218,0.1,0,352.0,760.0,1.0,1708.0,0,0.15019923906872126,0.0
91,91,0.03770461046466256,0.0,0,317.0,554.0,1.0,409.0,0,0.9994946884773305,0.0
92,92,0.5971931272559963,0.6,0,408.0,935.0,0.0,307.0,1,0.8938670268946691,0.0
93,93,-0.27119683603188416,-0.3,1,429.0,554.0,1.0,317.0,1,0.7394861658388122,0.0
94,94,-0.1498344460418679,-0.1,1,438.0,513.0,1.0,689.0,1,0.33771143430193007,0.0
95,95,-0.8786619211185429,-0.9,1,337.0,946.0,1.0,347.0,1,0.7281130563109834,0.0
96,96,-0.7678415366325693,-0.8,1,256.0,953.0,1.0,381.0,1,0.17798209369891752,0.0
97,97,0.23506962039758217,0.2,0,475.0,876.0,0.0,469.0,1,0.652888177254017,0.0
98,98,0.48568144356727516,0.5,0,463.0,923.0,0.0,394.0,1,0.2252635486387588,0.0
99,99,0.07015372388037933,0.1,0,295.0,819.0,0.0,386.0,1,0.9021136642263615,0.0
100,100,0.7752356730925907,0.8,0,390.0,745.0,0.0,175.0,1,0.812456589070138,0.0
101,101,-0.1718747282348323,-0.2,1,413.0,992.0,1.0,735.0,1,0.347586871044909,0.0
102,102,-0.006181626748992919,-0.0,1,254.0,512.0,0.0,984.0,0,0.8072020136268394,0.0
103,103,0.6942357778151078,0.7,0,393.0,728.0,0.0,299.0,1,0.47937674334947133,0.0
104,104,0.30753203807750196,0.3,0,251.0,871.0,0.0,248.0,1,0.4509826938453336,0.0
105,105,-0.15405203788669364,-0.2,1,371.0,985.0,1.0,804.0,1,0.3730899915593724,0.0
106,106,-0.3561351874132095,-0.4,1,354.0,619.0,1.0,657.0,1,0.19034408268146172,0.0
107,107,0.9425388252286355,0.9,0,477.0,726.0,0.0,807.0,1,0.13198686256277165,0.0
108,108,0.6182970378772561,0.6,0,266.0,632.0,0.0,402.0,1,0.36638159061202547,0.0
109,109,-0.7787232611997228,-0.8,1,284.0,574.0,1.0,142.0,1,0.8739046154969011,0.0
110,110,0.47692554292991485,0.5,0,475.0,588.0,0.0,407.0,1,0.5819348490191139,0.0
111,111,-0.3993134620635588,-0.4,1,433.0,515.0,1.0,172.0,1,0.9108341937962712,0.0
112,112,-0.17654715563087953,-0.2,1,276.0,717.0,1.0,617.0,1,0.480006234125573,0.0
113,113,0.30550649606763813,0.3,0,344.0,904.0,0.0,702.0,1,0.9745594344555064,0.0
114,114,0.5052964337665384,0.5,0,478.0,814.0,0.0,458.0,1,0.3657989268796109,0.0
115,115,0.22604801521277085,0.2,0,252.0,542.0,0.0,1556.0,1,0.5477787666353741,0.0
116,116,-0.23954874579453822,-0.2,1,461.0,752.0,1.0,807.0,1,0.6490734498232508,0.0
117,117,0.7037310792682403,0.7,0,346.0,870.0,0.0,184.0,1,0.709663970833097,0.0
118,118,-0.033492249792385964,-0.0,1,337.0,594.0,1.0,549.0,1,0.6405126943510182,0.0
119,119,-0.9292820640564696,-0.9,1,354.0,776.0,1.0,170.0,1,0.6820003633320435,0.0
120,120,-0.9787799423596428,-1.0,1,333.0,549.0,1.0,298.0,1,0.31795706694412407,0.0
121,121,0.5312838279134491,0.5,0,477.0,635.0,0.0,258.0,1,0.9679837236806372,0.0
122,122,0.8624516260156354,0.9,0,328.0,898.0,0.0,164.0,1,0.5369251315076269,0.0
123,123,0.015046587229989417,0.0,0,327.0,621.0,1.0,492.0,0,0.8116857659345248,0.0
124,124,0.7604677702718721,0.8,0,386.0,536.0,0.0,128.0,1,0.867160332311198,0.0
125,125,0.8606595608717202,0.9,0,320.0,515.0,0.0,385.0,1,0.24354108199017177,0.0
126,126,-0.31129734953652743,-0.3,1,294.0,864.0,1.0,902.0,1,0.36717035819700106,0.0
127,127,-0.5488171495576881,-0.5,1,493.0,958.0,1.0,209.0,1,0.7588404900056951,0.0
128,128,0.01672891570194146,0.0,0,341.0,619.0,0.0,750.0,1,0.9772505138397147,0.0
129,129,-0.39595006138534017,-0.4,1,347.0,700.0,1.0,473.0,1,0.36781468682008345,0.0
130,130,0.40543659038066826,0.4,0,348.0,519.0,0.0,583.0,1,0.2346415065562956,0.0
131,131,0.40088149732814693,0.4,0,363.0,785.0,0.0,602.0,1,0.2570149458948814,0.0
132,132,0.7126391495695696,0.7,0,417.0,597.0,0.0,376.0,1,0.9249238970317599,0.0
133,133,-0.13558852161147872,-0.1,1,436.0,936.0,1.0,1938.0,1,0.5022654668359617,0.0
134,134,-0.7617895975972611,-0.8,1,468.0,631.0,1.0,181.0,1,0.4268644410940329,0.0
135,135,0.6242013889155495,0.6,0,261.0,761.0,0.0,548.0,1,0.22073391444847942,0.0
136,136,-0.3053566381816044,-0.3,1,466.0,963.0,1.0,851.0,1,0.12885067515407392,0.0
137,137,-0.7024800285002182,-0.7,1,355.0,911.0,1.0,254.0,1,0.38093257823813287,0.0
138,138,0.6223347760943261,0.6,0,311.0,639.0,0.0,250.0,1,0.9800386953444333,0.0
139,139,0.6912559794129949,0.7,0,410.0,728.0,0.0,372.0,1,0.9130507308258609,0.0
140,140,-0.9996389695367782,-1.0,1,364.0,533.0,1.0,283.0,1,0.256481778607544,0.0
141,141,0.009537943820832062,0.0,0,422.0,719.0,0.0,419.0,1,0.5088512516926155,0.0
142,142,0.3613320823824804,0.4,0,390.0,975.0,0.0,455.0,1,0.658753717070916,0.0
143,143,-0.5313273429523735,-0.5,1,472.0,964.0,1.0,274.0,1,0.8550979918896262,0.0
144,144,-0.3103568870362612,-0.3,1,420.0,952.0,1.0,298.0,1,0.5605363832222781,0.0
145,145,-0.8718149923296135,-0.9,1,297.0,803.0,1.0,250.0,1,0.8974835430957144,0.0
146,146,0.1725606478151498,0.2,0,253.0,738.0,0.0,1019.0,1,0.39423654088517945,0.0
147,147,0.3502428607760619,0.4,0,457.0,697.0,0.0,816.0,1,0.40619444910179237,0.0
148,148,-0.28575992352847956,-0.3,1,493.0,770.0,1.0,1087.0,1,0.11985573944123962,0.0
149,149,-0.818052029073908,-0.8,1,455.0,772.0,1.0,253.0,1,0.75052146634384,0.0
150,150,0.1357768808363482,0.1,0,323.0,780.0,1.0,2217.0,0,0.37752984181881033,0.0
151,151,-0.09079278471343333,-0.1,1,390.0,700.0,1.0,440.0,1,0.7212380997182241,0.0
152,152,0.3467960095803422,0.3,0,293.0,509.0,0.0,378.0,1,0.41799329875166014,0.0
153,153,0.37052655520172006,0.4,0,472.0,544.0,0.0,554.0,1,0.2702684416386285,0.0
154,154,0.9993622808550482,1.0,0,483.0,502.0,0.0,175.0,1,0.5025955082031033,0.0
155,155,-0.5993521329498821,-0.6,1,419.0,915.0,1.0,296.0,1,0.8200899888524361,0.0
156,156,0.4883683310950713,0.5,0,478.0,971.0,0.0,441.0,1,0.21724707473250532,0.0
157,157,-0.9265388713347236,-0.9,1,427.0,502.0,1.0,471.0,1,0.2918859698464469,0.0
158,158,-0.965043975416785,-1.0,1,464.0,599.0,1.0,257.0,1,0.5883870675585491,0.0
159,159,-0.5201321754472605,-0.5,1,356.0,895.0,1.0,209.0,1,0.929475229878539,0.0
160,160,-0.8696635260695207,-0.9,1,330.0,931.0,1.0,349.0,1,0.26851764555972635,0.0
161,161,-0.3031447695756686,-0.3,1,306.0,872.0,1.0,392.0,1,0.4711603199142219,0.0
162,162,0.07207245111815697,0.1,0,452.0,975.0,0.0,343.0,1,0.9665053349025757,0.0
163,163,-0.5010563268449619,-0.5,1,402.0,634.0,1.0,514.0,1,0.24048465017318707,0.0
164,164,0.10791555006863152,0.1,0,481.0,950.0,0.0,499.0,1,0.7291391131181632,0.0
165,165,-0.8925862069074386,-0.9,1,320.0,669.0,1.0,201.0,1,0.6269428009815781,0.0
166,166,0.37522853597652417,0.4,0,483.0,669.0,0.0,388.0,1,0.46729952377572415,0.0
167,167,-0.24723859908533785,-0.2,1,370.0,654.0,1.0,776.0,1,0.3728702274261201,0.0
168,168,-0.32486709169141803,-0.3,1,403.0,936.0,1.0,691.0,1,0.1733017386710859,0.0
169,169,-0.25417834950809537,-0.3,1,336.0,815.0,1.0,499.0,1,0.8480902115104569,0.0
170,170,-0.7416080818214699,-0.7,1,311.0,698.0,1.0,341.0,1,0.2524328810660281,0.0
171,171,0.9074160622560654,0.9,0,303.0,691.0,0.0,416.0,1,0.4777954598773112,0.0
172,172,-0.7597071466128318,-0.8,1,377.0,737.0,1.0,136.0,1,0.5996593067571812,0.0
173,173,-0.892043717944341,-0.9,1,438.0,775.0,1.0,197.0,1,0.34651397857450106,0.0
174,174,0.9594483512357863,1.0,0,313.0,992.0,0.0,235.0,1,0.6295087662067888,0.0
175,175,-0.3074869040694381,-0.3,1,311.0,938.0,1.0,291.0,1,0.725449238424182,0.0
176,176,-0.8294369413810947,-0.8,1,366.0,892.0,1.0,192.0,1,0.6565678830387057,0.0
177,177,-0.39646043722245206,-0.4,1,302.0,855.0,1.0,343.0,1,0.3500480811373249,0.0
178,178,0.10403124654019735,0.1,0,353.0,880.0,0.0,397.0,1,0.9957249229806814,0.0
179,179,-0.8413725369993355,-0.8,1,265.0,904.0,1.0,321.0,1,0.2165108596819666,0.0
180,180,-0.1901135655613242,-0.2,1,357.0,970.0,1.0,833.0,1,0.18255483762074493,0.0
181,181,0.5193181657697223,0.5,0,353.0,851.0,0.0,276.0,1,0.5861092218625896,0.0
182,182,0.1186470913284412,0.1,0,288.0,620.0,0.0,762.0,1,0.9519163291181859,0.0
183,183,0.8817636900913379,0.9,0,352.0,687.0,0.0,381.0,1,0.3543324312744589,0.0
184,184,0.03494977596192528,0.0,0,480.0,670.0,1.0,850.0,0,0.9975364239076852,0.0
185,185,-0.48965478706205023,-0.5,1,382.0,656.0,1.0,322.0,1,0.6358003407848773,0.0
186,186,-0.048312826998780034,-0.0,1,382.0,728.0,1.0,900.0,1,0.2710915242504276,0.0
187,187,0.8501333158438424,0.9,0,384.0,738.0,0.0,288.0,1,0.623241630130021,0.0
188,188,0.12225082889976258,0.1,0,409.0,991.0,0.0,1490.0,1,0.7269271394281608,0.0
189,189,0.7904537217959815,0.8,0,308.0,515.0,0.0,237.0,1,0.5742790366321174,0.0
190,190,-0.36426881719434,-0.4,1,445.0,794.0,1.0,341.0,1,0.46225421208677286,0.0
191,191,-0.5084924600894134,-0.5,1,397.0,576.0,1.0,367.0,1,0.2981490930136281,0.0
192,192,0.6339089092576233,0.6,0,466.0,590.0,0.0,224.0,1,0.5211237453156335,0.0
193,193,-0.9959046724033664,-1.0,1,303.0,598.0,1.0,269.0,1,0.5422466787071399,0.0
194,194,0.629445891027727,0.6,0,430.0,962.0,0.0,288.0,1,0.7618392599678374,0.0
195,195,-0.01059098673370773,-0.0,1,465.0,653.0,0.0,2442.0,0,0.3039048145179206,0.0
196,196,-0.0647487344474107,-0.1,1,415.0,884.0,1.0,521.0,1,0.7844092535077046,0.0
197,197,0.04893817988729521,0.0,0,295.0,976.0,1.0,599.0,0,0.2908148741571125,0.0
198,198,-0.7727072277100644,-0.8,1,307.0,586.0,1.0,237.0,1,0.5645382501037285,0.0
199,199,-0.7648817437135986,-0.8,1,414.0,805.0,1.0,231.0,1,0.7525491483447626,0.0
200,200,0.8588296216285076,0.9,0,488.0,724.0,0.0,348.0,1,0.5916262665434483,0.0
201,201,0.0650111992991027,0.1,0,450.0,892.0,0.0,988.0,1,0.6038535262117212,0.0
202,202,0.6537434050154738,0.7,0,255.0,583.0,0.0,402.0,1,0.2919824687001076,0.0
203,203,-0.7658599196056974,-0.8,1,427.0,642.0,1.0,181.0,1,0.9526960935231467,0.0
204,204,0.047991967288181225,0.0,0,433.0,763.0,0.0,834.0,1,0.790820205703789,0.0
205,205,-0.8818937284286554,-0.9,1,408.0,732.0,1.0,210.0,1,0.7176951103244651,0.0
206,206,-0.3280831014576675,-0.3,1,277.0,755.0,1.0,148.0,1,0.9947472294152504,0.0
207,207,0.798414871345495,0.8,0,298.0,902.0,0.0,850.0,1,0.11827942480633866,0.0
208,208,-0.3182782115277847,-0.3,1,312.0,928.0,1.0,1050.0,1,0.2048807661001309,0.0
209,209,-0.9879904056505053,-1.0,1,489.0,740.0,1.0,221.0,1,0.5168895082591577,0.0
210,210,-0.6560678278122807,-0.7,1,472.0,923.0,1.0,725.0,1,0.14877371998272823,0.0
211,211,0.03198020119773881,0.0,0,275.0,850.0,0.0,505.0,1,0.8617505222806687,0.0
212,212,0.33252177905317315,0.3,0,373.0,903.0,0.0,824.0,1,0.6604229551203784,0.0
213,213,-0.8387305465203123,-0.8,1,251.0,917.0,1.0,262.0,1,0.20014027891790426,0.0
214,214,0.873090831682255,0.9,0,493.0,838.0,0.0,279.0,1,0.4599577446514417,0.0
215,215,-0.4344118141573903,-0.4,1,455.0,711.0,1.0,354.0,1,0.6622288689464388,0.0
216,216,-0.18651529304739767,-0.2,1,421.0,608.0,1.0,721.0,1,0.1928082283651274,0.0
217,217,-0.8367206121094353,-0.8,1,348.0,950.0,1.0,142.0,1,0.7001854837109146,0.0
218,218,0.35228423308549917,0.4,0,325.0,590.0,0.0,635.0,1,0.37395665650061527,0.0
219,219,-0.036549341012853453,-0.0,1,491.0,937.0,1.0,1392.0,1,0.15879349045535382,0.0
220,220,0.8038471985344917,0.8,0,308.0,550.0,0.0,422.0,1,0.25473174318640424,0.0
221,221,-0.10931922147018613,-0.1,1,360.0,762.0,1.0,408.0,1,0.9867196077564885,0.0
222,222,-0.5907415574735222,-0.6,1,476.0,924.0,1.0,340.0,1,0.9619122383963751,0.0
223,223,0.9049754559252656,0.9,0,426.0,605.0,0.0,199.0,1,0.6144877908427397,0.0
224,224,-0.7680550435828024,-0.8,1,447.0,869.0,1.0,724.0,1,0.14023581467022278,0.0
225,225,0.29849476735678726,0.3,0,441.0,817.0,0.0,302.0,1,0.9992649640882368,0.0
226,226,-0.7708340469521624,-0.8,1,256.0,514.0,1.0,290.0,1,0.5623709272772038,0.0
227,227,-0.1912818989460885,-0.2,1,332.0,638.0,1.0,1060.0,1,0.2641038591156625,0.0
228,228,-0.07018678820032553,-0.1,1,494.0,681.0,0.0,1705.0,0,0.1939947297371187,0.0
229,229,-0.3765944885539163,-0.4,1,494.0,555.0,1.0,441.0,1,0.4594687377048561,0.0
230,230,0.10606943866941876,0.1,0,444.0,791.0,0.0,675.0,1,0.6281250406479506,0.0
231,231,-0.5018574904863269,-0.5,1,377.0,734.0,1.0,159.0,1,0.8403561057324272,0.0
232,232,0.9333532321720468,0.9,0,431.0,892.0,0.0,267.0,1,0.8380704366036688,0.0
233,233,-0.1331088609944504,-0.1,1,271.0,540.0,1.0,419.0,1,0.8218509872430149,0.0
234,234,0.671723264500331,0.7,0,399.0,522.0,0.0,359.0,1,0.6855870630546568,0.0
235,235,-0.8259796170577232,-0.8,1,366.0,862.0,1.0,192.0,1,0.6814049637884958,0.0
236,236,0.15274190190277248,0.2,0,266.0,684.0,0.0,570.0,1,0.9128522707782113,0.0
237,237,-0.05561630962935804,-0.1,1,475.0,686.0,1.0,2569.0,1,0.1957977240594193,0.0
238,238,0.9609908895441384,1.0,0,337.0,647.0,0.0,236.0,1,0.7698530388240254,0.0
239,239,-0.5205528778569459,-0.5,1,313.0,521.0,1.0,356.0,1,0.2702722900939926,0.0
240,240,0.923407915732835,0.9,0,473.0,556.0,0.0,181.0,1,0.8680700407192788,0.0
241,241,-0.3138510022514913,-0.3,1,395.0,928.0,1.0,317.0,1,0.8666452159597074,0.0
242,242,0.6880832880658379,0.7,0,396.0,875.0,0.0,1049.0,1,0.11728907588734597,0.0
243,243,0.2993422090565243,0.3,0,479.0,527.0,0.0,664.0,1,0.3534297939160954,0.0
244,244,0.1581826244924951,0.2,0,493.0,847.0,0.0,660.0,1,0.5753074833089064,0.0
245,245,-0.4017693679523051,-0.4,1,285.0,933.0,1.0,312.0,1,0.3589842297677083,0.0
246,246,0.9420735139487053,0.9,0,453.0,955.0,0.0,222.0,1,0.7868374488431414,0.0
247,247,0.03247257176541152,0.0,0,436.0,938.0,1.0,3006.0,0,0.3025502632397007,0.0
248,248,0.7267854321929119,0.7,0,496.0,616.0,0.0,738.0,1,0.15043421729152806,0.0
249,249,0.8316939485008481,0.8,0,393.0,827.0,0.0,990.0,1,0.14132344886883735,0.0
250,250,-0.007926792693470963,-0.0,1,451.0,906.0,0.0,2503.0,0,0.10508538959929498,0.0
251,251,0.7854785508978699,0.8,0,393.0,616.0,0.0,291.0,1,0.8696167127653773,0.0
252,252,-0.15709404443753816,-0.2,1,358.0,670.0,1.0,792.0,1,0.2607446951619542,0.0
253,253,0.6653005110100783,0.7,0,351.0,884.0,0.0,205.0,1,0.9298622429448683,0.0
254,254,0.6274184322237264,0.6,0,252.0,556.0,0.0,402.0,1,0.4594988949352411,0.0
255,255,-0.450658014438444,-0.5,1,250.0,600.0,1.0,870.0,1,0.10612414077966718,0.0
256,256,0.18684892558030097,0.2,0,470.0,873.0,0.0,497.0,1,0.588547589413464,0.0
257,257,-0.27288483543866193,-0.3,1,473.0,811.0,1.0,646.0,1,0.2271221109914547,0.0
258,258,0.3591301542033698,0.4,0,422.0,719.0,0.0,439.0,1,0.4685239797145019,0.0
259,259,-0.29344422990191754,-0.3,1,375.0,643.0,1.0,562.0,1,0.8514342177958326,0.0
260,260,-0.9480570687658672,-0.9,1,489.0,817.0,1.0,604.0,1,0.14069704369322727,0.0
261,261,0.291690831672069,0.3,0,311.0,549.0,0.0,470.0,1,0.2838917669381499,0.0
262,262,-0.22405666804305424,-0.2,1,442.0,856.0,1.0,352.0,1,0.7114136617652747,0.0
263,263,0.03919696606473311,0.0,0,497.0,853.0,1.0,2350.0,0,0.5429265914646992,0.0
264,264,-0.39454342984616053,-0.4,1,390.0,912.0,1.0,268.0,1,0.5671369915268173,0.0
265,265,0.5732270685059455,0.6,0,412.0,570.0,0.0,528.0,1,0.8690663805741725,0.0
266,266,0.5882063172835803,0.6,0,254.0,727.0,0.0,739.0,1,0.1484499768591784,0.0
267,267,0.3244946009246903,0.3,0,382.0,593.0,0.0,215.0,1,0.6831144292392332,0.0
268,268,0.8955239675491902,0.9,0,394.0,897.0,0.0,239.0,1,0.7188691306022752,0.0
269,269,-0.10117183513020112,-0.1,1,271.0,524.0,1.0,1655.0,1,0.11862969735474829,0.0
270,270,-0.8816981167463758,-0.9,1,477.0,840.0,1.0,213.0,1,0.8595873069001049,0.0
271,271,-0.6923899173785302,-0.7,1,360.0,934.0,1.0,336.0,1,0.2960791731378343,0.0
272,272,-0.7213644404513209,-0.7,1,284.0,695.0,1.0,201.0,1,0.7149879999896839,0.0
273,273,-0.48464432133413715,-0.5,1,459.0,529.0,1.0,882.0,1,0.13132741191812372,0.0
274,274,-0.07715540672468535,-0.1,1,326.0,532.0,0.0,1022.0,0,0.47599118320896583,0.0
275,275,0.7016285783095317,0.7,0,301.0,643.0,0.0,476.0,1,0.254873975188991,0.0
276,276,-0.9439908527911989,-0.9,1,430.0,902.0,1.0,168.0,1,0.5471899753875803,0.0
277,277,-0.7707903636892657,-0.8,1,356.0,627.0,1.0,267.0,1,0.5619218062506914,0.0
278,278,0.7692682288660049,0.8,0,415.0,913.0,0.0,252.0,1,0.1679839023510804,0.0
279,279,-0.8476575016126588,-0.8,1,326.0,707.0,1.0,267.0,1,0.7507073452832291,0.0
280,280,0.8216881483067127,0.8,0,354.0,625.0,0.0,331.0,1,0.5747427254494512,0.0
281,281,-0.8126091958801791,-0.8,1,339.0,569.0,1.0,322.0,1,0.2335571970743665,0.0
282,282,0.22013918399450016,0.2,0,368.0,551.0,0.0,341.0,1,0.9461261308638066,0.0
283,283,0.5467970160759867,0.5,0,301.0,832.0,0.0,237.0,1,0.784129902252824,0.0
284,284,-0.7731877476167617,-0.8,1,366.0,500.0,1.0,274.0,1,0.8267550046910999,0.0
285,285,-0.4726806325498687,-0.5,1,363.0,735.0,1.0,332.0,1,0.7282778779974872,0.0
286,286,-0.9335614290264294,-0.9,1,297.0,831.0,1.0,182.0,1,0.9883292161296913,0.0
287,287,0.5719222959412409,0.6,0,433.0,999.0,0.0,248.0,1,0.4990128308473212,0.0
288,288,0.048341778964370974,0.0,0,497.0,684.0,1.0,1109.0,0,0.5341337511326548,0.0
289,289,0.45976737562897974,0.5,0,327.0,637.0,0.0,376.0,1,0.9440108071546786,0.0
290,290,0.3375190613543826,0.3,0,461.0,797.0,0.0,442.0,1,0.3810293514845303,0.0
291,291,-0.529841296072656,-0.5,1,381.0,801.0,1.0,378.0,1,0.4623305557173937,0.0
292,292,-0.6246648437506801,-0.6,1,474.0,946.0,1.0,180.0,1,0.7087690391433717,0.0
293,293,-0.17574710493829993,-0.2,1,440.0,549.0,1.0,1051.0,1,0.6664700223874571,0.0
294,294,0.06705103449291472,0.1,0,286.0,537.0,0.0,777.0,1,0.9054502257146374,0.0
295,295,0.8052594550823597,0.8,0,338.0,607.0,0.0,705.0,1,0.11732927943713985,0.0
296,296,-0.1413205875475716,-0.1,1,386.0,786.0,1.0,178.0,1,0.8559985842216046,0.0
297,297,0.11727778351124951,0.1,0,477.0,814.0,0.0,619.0,1,0.41422744093965214,0.0
298,298,-0.35498527989825557,-0.4,1,391.0,913.0,1.0,826.0,1,0.15668040747569542,0.0
299,299,-0.9222155830005863,-0.9,1,398.0,840.0,1.0,282.0,1,0.4972973899596349,0.0
300,300,0.2559274795481379,0.3,0,267.0,816.0,0.0,387.0,1,0.5730881289340115,0.0
301,301,-0.8126357506981532,-0.8,1,402.0,763.0,1.0,265.0,1,0.9275427411319935,0.0
302,302,0.11855442319986453,0.1,0,491.0,835.0,0.0,1134.0,1,0.3222224084068456,0.0
303,303,-0.4519438837650944,-0.5,1,315.0,640.0,1.0,475.0,1,0.43060753319276757,0.0
304,304,0.15561437526161925,0.2,0,480.0,672.0,0.0,2038.0,1,0.11475558789318188,0.0
305,305,0.4637947640013318,0.5,0,428.0,637.0,0.0,235.0,1,0.7019316664547328,0.0
306,306,0.6385483257829205,0.6,0,370.0,869.0,0.0,331.0,1,0.6094670406867408,0.0
307,307,0.33152634846899653,0.3,0,255.0,616.0,0.0,589.0,1,0.21034865191656513,0.0
308,308,-0.37062315123245093,-0.4,1,334.0,968.0,1.0,588.0,1,0.4058093725640527,0.0
309,309,-0.5361883878140714,-0.5,1,262.0,956.0,1.0,282.0,1,0.6071693288792653,0.0
310,310,-0.0456819957985497,-0.0,1,323.0,797.0,0.0,1190.0,0,0.6896180362208773,0.0
311,311,0.042544127249516395,0.0,0,358.0,575.0,0.0,547.0,1,0.8800114325070931,0.0
312,312,0.24282850278781587,0.2,0,316.0,621.0,0.0,253.0,1,0.49708891454336757,0.0
313,313,-0.6906511737225018,-0.7,1,455.0,756.0,1.0,209.0,1,0.6702996910548968,0.0
314,314,0.4076010877641272,0.4,0,427.0,752.0,0.0,1171.0,1,0.1466389974943686,0.0
315,315,0.9208760554549933,0.9,0,365.0,749.0,0.0,166.0,1,0.6221845966414226,0.0
316,316,0.6688869038135421,0.7,0,281.0,873.0,0.0,206.0,1,0.9114615577507081,0.0
317,317,0.010232255240663735,0.0,0,451.0,530.0,0.0,1389.0,1,0.13665710508509227,0.0
318,318,-0.9032948622794756,-0.9,1,333.0,573.0,1.0,274.0,1,0.38993541703711043,0.0
319,319,0.36080430295052346,0.4,0,289.0,850.0,0.0,291.0,1,0.6194553049630946,0.0
320,320,0.609830371418866,0.6,0,440.0,520.0,0.0,350.0,1,0.5516200399289278,0.0
321,321,-0.1476631746533914,-0.1,1,449.0,802.0,1.0,829.0,1,0.6475055852984307,0.0
322,322,-0.8299480310908545,-0.8,1,384.0,970.0,1.0,176.0,1,0.6973187024945119,0.0
323,323,0.18341131305705938,0.2,0,365.0,532.0,0.0,1673.0,1,0.16614249078277377,0.0
324,324,0.6255005389770809,0.6,0,257.0,830.0,0.0,293.0,1,0.5903590182287239,0.0
325,325,-0.6821759697174419,-0.7,1,452.0,556.0,1.0,182.0,1,0.7936023833537158,0.0
326,326,-0.445614809704332,-0.4,1,364.0,717.0,1.0,479.0,1,0.7950957764168016,0.0
327,327,0.6165217721169551,0.6,0,478.0,715.0,0.0,477.0,1,0.26460548289372077,0.0
328,328,-0.44346497029997667,-0.4,1,397.0,559.0,1.0,374.0,1,0.4500733195194535,0.0
329,329,0.7890147648342323,0.8,0,342.0,835.0,0.0,213.0,1,0.8921932593557381,0.0
330,330,-0.15723577768219843,-0.2,1,449.0,641.0,1.0,2120.0,1,0.9430585048019811,0.0
331,331,-0.6914120064380831,-0.7,1,430.0,834.0,1.0,546.0,1,0.3962031906487199,0.0
332,332,0.6259570368369789,0.6,0,306.0,979.0,0.0,195.0,1,0.9841164200578811,0.0
333,333,-0.6910040952967003,-0.7,1,318.0,879.0,1.0,343.0,1,0.34292142324363634,0.0
334,334,0.8368717720413059,0.8,0,454.0,933.0,0.0,223.0,1,0.5820050182980134,0.0
335,335,-0.5086993848697827,-0.5,1,381.0,616.0,1.0,493.0,1,0.33036603224511174,0.0
336,336,0.9547591632054504,1.0,0,318.0,749.0,0.0,193.0,1,0.9640736167382408,0.0
337,337,0.33396374910320903,0.3,0,317.0,926.0,0.0,897.0,1,0.20086851888421964,0.0
338,338,-0.7892241543551584,-0.8,1,402.0,665.0,1.0,203.0,1,0.7481794843129288,0.0
339,339,-0.004735066655642717,-0.0,1,490.0,802.0,1.0,1258.0,1,0.7866869372186993,0.0
340,340,-0.44457162584002385,-0.4,1,379.0,983.0,1.0,368.0,1,0.28314902081332505,0.0
341,341,0.40021927446008965,0.4,0,327.0,852.0,0.0,411.0,1,0.8133112634209351,0.0
342,342,-0.9744423612667747,-1.0,1,265.0,580.0,1.0,205.0,1,0.6063855558652074,0.0
343,343,-0.015495380316158158,-0.0,1,283.0,659.0,1.0,1338.0,1,0.3756404800917046,0.0
344,344,-0.5020218236195966,-0.5,1,462.0,959.0,1.0,249.0,1,0.6901050196185531,0.0
345,345,-0.010558856231194236,-0.0,1,398.0,706.0,1.0,1786.0,1,0.31050968515680677,0.0
346,346,0.6186638580428985,0.6,0,448.0,579.0,0.0,223.0,1,0.8067989688926016,0.0
347,347,0.21367473209423005,0.2,0,372.0,728.0,0.0,260.0,1,0.7338434187349128,0.0
348,348,-0.21024646581182416,-0.2,1,255.0,851.0,1.0,684.0,1,0.19409431509849112,0.0
349,349,-0.23305681358824448,-0.2,1,427.0,953.0,1.0,370.0,1,0.4945776200794163,0.0
350,350,-0.534497440384839,-0.5,1,398.0,627.0,1.0,485.0,1,0.20929013403677782,0.0
351,351,0.32316779151750064,0.3,0,481.0,584.0,0.0,285.0,1,0.6786502831166477,0.0
352,352,0.11677889483644566,0.1,0,413.0,660.0,0.0,1817.0,1,0.514745567764168,0.0
353,353,-0.2126261907978646,-0.2,1,468.0,875.0,1.0,667.0,1,0.25029161466517563,0.0
354,354,-0.31892306587585195,-0.3,1,329.0,886.0,1.0,1065.0,1,0.17525662282916388,0.0
355,355,0.716725344372058,0.7,0,423.0,953.0,0.0,274.0,1,0.9547331155174207,0.0
356,356,-0.1525500251569587,-0.2,1,427.0,826.0,1.0,967.0,1,0.6086274432205229,0.0
357,357,-0.3198787292740408,-0.3,1,380.0,538.0,1.0,732.0,1,0.1387051747895468,0.0
358,358,-0.6553748585263668,-0.7,1,334.0,648.0,1.0,188.0,1,0.8792088100335042,0.0
359,359,0.962999561749039,1.0,0,276.0,551.0,0.0,343.0,1,0.2594911080762294,0.0
360,360,0.8479287243172411,0.8,0,444.0,529.0,0.0,427.0,1,0.505150274042252,0.0
361,361,-0.4922774412232427,-0.5,1,471.0,822.0,1.0,287.0,1,0.94038909428985,0.0
362,362,-0.25525812297570183,-0.3,1,417.0,549.0,1.0,404.0,1,0.7501726798323775,0.0
363,363,-0.030390842258780637,-0.0,1,353.0,547.0,1.0,510.0,1,0.9602274842594514,0.0
364,364,-0.0040043715510549305,-0.0,1,379.0,548.0,1.0,543.0,1,0.34744641403611254,0.0
365,365,-0.34546836767720435,-0.3,1,324.0,584.0,1.0,382.0,1,0.6915133718774665,0.0
366,366,0.7814093021770063,0.8,0,395.0,761.0,0.0,524.0,1,0.14934950850453615,0.0
367,367,-0.8706032985627414,-0.9,1,271.0,589.0,1.0,420.0,1,0.17419368131141913,0.0
368,368,0.8009301792002563,0.8,0,390.0,740.0,0.0,240.0,1,0.9313086779670494,0.0
369,369,0.16390879708974948,0.2,0,362.0,814.0,1.0,834.0,0,0.2956169718252333,0.0
370,370,-0.8815660527011435,-0.9,1,261.0,964.0,1.0,415.0,1,0.29445849765339116,0.0
371,371,-0.7058168866520182,-0.7,1,380.0,902.0,1.0,468.0,1,0.14690644237424158,0.0
372,372,-0.7069815449654782,-0.7,1,411.0,983.0,1.0,176.0,1,0.7605177172065825,0.0
373,373,-0.6743001636730297,-0.7,1,369.0,674.0,1.0,187.0,1,0.9284369626474929,0.0
374,374,-0.4531290563346997,-0.5,1,400.0,550.0,1.0,300.0,1,0.6437440353420893,0.0
375,375,-0.7381759127121275,-0.7,1,259.0,849.0,1.0,152.0,1,0.8661546798092148,0.0
376,376,-0.34065553669292004,-0.3,1,443.0,901.0,1.0,556.0,1,0.31271254842545093,0.0
377,377,-0.7185056999445518,-0.7,1,322.0,658.0,1.0,510.0,1,0.1638893395434209,0.0
378,378,-0.4516326844848657,-0.5,1,288.0,572.0,1.0,390.0,1,0.32153581453213115,0.0
379,379,0.26557063204483233,0.3,0,320.0,894.0,1.0,476.0,0,0.879801337321404,0.0
380,380,0.1973240948918613,0.2,0,409.0,508.0,0.0,513.0,1,0.82383551724055,0.0
381,381,-0.6868346797765612,-0.7,1,350.0,834.0,1.0,236.0,1,0.9304347077271804,0.0
382,382,-0.35233875478907817,-0.4,1,434.0,765.0,1.0,321.0,1,0.8004743488672101,0.0
383,383,-0.8388487653079735,-0.8,1,385.0,618.0,1.0,107.0,1,0.9758020094610205,0.0
384,384,-0.5453996731943989,-0.5,1,455.0,912.0,1.0,263.0,1,0.8767816005512261,0.0
385,385,0.5686747655338114,0.6,0,301.0,698.0,0.0,1181.0,1,0.155848040985097,0.0
386,386,0.895736909637669,0.9,0,283.0,668.0,0.0,789.0,1,0.16483413855046639,0.0
387,387,0.5341078334533249,0.5,0,469.0,710.0,0.0,311.0,1,0.7858805931345185,0.0
388,388,-0.8286970918120156,-0.8,1,305.0,834.0,1.0,381.0,1,0.27857022513421537,0.0
389,389,-0.5551521199153344,-0.6,1,494.0,654.0,1.0,622.0,1,0.12800214787604122,0.0
390,390,-0.6041702119837784,-0.6,1,288.0,537.0,1.0,255.0,1,0.9282443925293169,0.0
391,391,0.32148564128241364,0.3,0,430.0,884.0,0.0,496.0,1,0.7956174324867682,0.0
392,392,0.921880842236289,0.9,0,497.0,518.0,0.0,245.0,1,0.820552968085415,0.0
393,393,0.4142432803649141,0.4,0,468.0,659.0,0.0,243.0,1,0.9215774455305791,0.0
394,394,-0.01526160458785597,-0.0,1,267.0,928.0,1.0,365.0,1,0.874298669881541,0.0
395,395,0.2888763330092714,0.3,0,253.0,704.0,0.0,403.0,1,0.6880854287755845,0.0
396,396,-0.19649073393961847,-0.2,1,344.0,867.0,1.0,1099.0,1,0.16401212135942372,0.0
397,397,-0.7480567413133676,-0.7,1,351.0,514.0,1.0,145.0,1,0.7240371072303053,0.0
398,398,0.310942847540177,0.3,0,315.0,631.0,0.0,434.0,1,0.4487193009996606,0.0
399,399,0.767449479631845,0.8,0,305.0,754.0,0.0,251.0,1,0.5781614918087582,0.0
400,400,0.8266440294303297,0.8,0,284.0,975.0,0.0,151.0,1,0.8716932330960339,0.0
401,401,-0.42446708890809015,-0.4,1,302.0,802.0,1.0,286.0,1,0.9572883184068647,0.0
402,402,0.0261045034903733,0.0,0,413.0,522.0,0.0,1725.0,1,0.26791880603963736,0.0
403,403,0.9315994072557712,0.9,0,449.0,694.0,0.0,217.0,1,0.37630910652779326,0.0
404,404,0.4842088701597065,0.5,0,305.0,675.0,0.0,350.0,1,0.8650920201361543,0.0
405,405,-0.08094227285241629,-0.1,1,453.0,961.0,1.0,946.0,1,0.4677525715978239,0.0
406,406,-0.6760547312073513,-0.7,1,415.0,527.0,1.0,188.0,1,0.673040181699758,0.0
407,407,0.9404044940452441,0.9,0,312.0,951.0,0.0,127.0,1,0.7524846002812761,0.0
408,408,0.4719819971660124,0.5,0,456.0,542.0,0.0,452.0,1,0.24630250511329094,0.0
409,409,0.16609884173950973,0.2,0,398.0,642.0,0.0,1280.0,1,0.2219455539110025,0.0
410,410,0.8509237819721485,0.9,0,440.0,932.0,0.0,238.0,1,0.6525120739499265,0.0
411,411,0.037904266239081164,0.0,0,467.0,593.0,0.0,430.0,1,0.8999843835002884,0.0
412,412,0.4339824897974698,0.4,0,298.0,812.0,0.0,490.0,1,0.9483094634057727,0.0
413,413,0.806797377865262,0.8,0,271.0,648.0,0.0,341.0,1,0.35169167447593086,0.0
414,414,0.09819755558106569,0.1,0,416.0,793.0,1.0,491.0,0,0.8520744120125089,0.0
415,415,-0.5633276703305117,-0.6,1,389.0,783.0,1.0,168.0,1,0.7004382149962763,0.0
416,416,-0.3420289672896777,-0.3,1,303.0,883.0,1.0,434.0,1,0.6778967264476643,0.0
417,417,0.6080425785774772,0.6,0,354.0,698.0,0.0,368.0,1,0.3172175565923297,0.0
418,418,0.2461357675978868,0.2,0,382.0,854.0,0.0,264.0,1,0.6839890475801012,0.0
419,419,-0.5851455909499892,-0.6,1,282.0,854.0,1.0,504.0,1,0.23712393756067865,0.0
420,420,0.6210111984095683,0.6,0,367.0,844.0,0.0,279.0,1,0.8227034039461851,0.0
421,421,-0.9557292366102794,-1.0,1,402.0,997.0,1.0,281.0,1,0.3805592444662048,0.0
422,422,-0.005020087546024232,-0.0,1,443.0,719.0,1.0,2278.0,1,0.166896440283672,0.0
423,423,0.5863808344315458,0.6,0,286.0,770.0,0.0,444.0,1,0.767080828646225,0.0
424,424,0.9656070123097116,1.0,0,376.0,682.0,0.0,472.0,1,0.18574332692535717,0.0
425,425,-0.43733215086519617,-0.4,1,267.0,959.0,1.0,554.0,1,0.4460306649822463,0.0
426,426,-0.5802148274129333,-0.6,1,262.0,640.0,1.0,268.0,1,0.3515152252524538,0.0
427,427,0.9952043419638938,1.0,0,254.0,941.0,0.0,165.0,1,0.8691400927091607,0.0
428,428,-0.4605756690630711,-0.5,1,378.0,670.0,1.0,572.0,1,0.1853709923384076,0.0
429,429,0.4507074044102086,0.5,0,402.0,559.0,0.0,499.0,1,0.3398025544575821,0.0
430,430,-0.4869813855854972,-0.5,1,263.0,922.0,1.0,515.0,1,0.8724956838789737,0.0
431,431,-0.1260748113179997,-0.1,1,411.0,686.0,1.0,1083.0,1,0.13486765915766566,0.0
432,432,-0.4642559199701872,-0.5,1,362.0,718.0,1.0,210.0,1,0.5697700865908552,0.0
433,433,-0.3695606469085233,-0.4,1,410.0,592.0,1.0,548.0,1,0.33978810769580203,0.0
434,434,-0.20589092503764994,-0.2,1,262.0,897.0,1.0,321.0,1,0.8754087907921951,0.0
435,435,0.6838601031510136,0.7,0,345.0,636.0,0.0,209.0,1,0.5949168559527338,0.0
436,436,0.32764835496066946,0.3,0,436.0,530.0,0.0,304.0,1,0.4950575161856232,0.0
437,437,-0.008028883392662722,-0.0,1,292.0,823.0,0.0,1495.0,0,0.4735498108900925,0.0
438,438,0.718714882413722,0.7,0,492.0,780.0,0.0,568.0,1,0.15360032223644016,0.0
439,439,0.9607230454093134,1.0,0,402.0,706.0,0.0,412.0,1,0.1946492339116738,0.0
440,440,-0.6654893242856272,-0.7,1,442.0,565.0,1.0,223.0,1,0.41789967602873046,0.0
441,441,0.6600578577761163,0.7,0,294.0,969.0,0.0,297.0,1,0.5951340612119228,0.0
442,442,-0.519689520403072,-0.5,1,260.0,659.0,1.0,411.0,1,0.3360850182196182,0.0
443,443,-0.595664382559431,-0.6,1,269.0,693.0,1.0,238.0,1,0.845454915501125,0.0
444,444,-0.7738046223314372,-0.8,1,282.0,803.0,1.0,455.0,1,0.2586877845218777,0.0
445,445,0.8976801505761585,0.9,0,339.0,756.0,0.0,195.0,1,0.6749211609985254,0.0
446,446,-0.6200346258197456,-0.6,1,359.0,916.0,1.0,315.0,1,0.3381536562249753,0.0
447,447,-0.050093810787162685,-0.1,1,327.0,966.0,1.0,887.0,1,0.424386109503344,0.0
448,448,-0.9531491605478597,-1.0,1,384.0,808.0,1.0,308.0,1,0.330084802703007,0.0
449,449,-0.8495221672939874,-0.8,1,415.0,791.0,1.0,334.0,1,0.32157114984947816,0.0
450,450,-0.45920535098412807,-0.5,1,258.0,544.0,1.0,268.0,1,0.6584673326239353,0.0
451,451,-0.03992653627666809,-0.0,1,458.0,806.0,1.0,2776.0,1,0.1517533038475965,0.0
452,452,0.6222857751505584,0.6,0,279.0,644.0,0.0,357.0,1,0.8986621809317276,0.0
453,453,-0.04010611328704017,-0.0,1,283.0,833.0,1.0,1024.0,1,0.2764583158448689,0.0
454,454,0.38777777179843587,0.4,0,395.0,718.0,0.0,317.0,1,0.8428728901317202,0.0
455,455,-0.9098707156414847,-0.9,1,434.0,769.0,1.0,177.0,1,0.5904641687486161,0.0
456,456,-0.24703073252138785,-0.2,1,431.0,676.0,1.0,1463.0,1,0.31673693477475023,0.0
457,457,-0.8283440522414163,-0.8,1,477.0,979.0,1.0,254.0,1,0.7809836850751115,0.0
458,458,-0.01724614251959733,-0.0,1,402.0,723.0,1.0,1675.0,1,0.5732545788256393,0.0
459,459,0.5254700150100893,0.5,0,411.0,526.0,0.0,593.0,1,0.2523125826452568,0.0
460,460,-0.4635329965214514,-0.5,1,390.0,787.0,1.0,533.0,1,0.31606326725015743,0.0
461,461,0.5721711325245631,0.6,0,378.0,916.0,0.0,356.0,1,0.40088179500576815,0.0
462,462,-0.0798283346077262,-0.1,1,315.0,918.0,1.0,3257.0,1,0.5482141717428874,0.0
463,463,0.5575599195890537,0.6,0,302.0,883.0,0.0,515.0,1,0.9601089946921375,0.0
464,464,-0.8130132457693298,-0.8,1,484.0,817.0,1.0,229.0,1,0.5992917242871484,0.0
465,465,0.3606790795880017,0.4,0,364.0,683.0,0.0,433.0,1,0.684896425985457,0.0
466,466,-0.19568132164341012,-0.2,1,492.0,840.0,1.0,608.0,1,0.42345782651602937,0.0
467,467,-0.15660330330020766,-0.2,1,263.0,960.0,1.0,1297.0,1,0.28751414764604144,0.0
468,468,0.1630331322881684,0.2,0,388.0,807.0,0.0,435.0,1,0.7859009864823006,0.0
469,469,0.42874975249607505,0.4,0,437.0,582.0,0.0,981.0,1,0.14621826290143955,0.0
470,470,-0.11478666858500053,-0.1,1,445.0,519.0,1.0,636.0,1,0.6653394410456838,0.0
471,471,-0.46396527072510674,-0.5,1,475.0,767.0,1.0,108.0,1,0.91078769370366,0.0
472,472,0.37351269149632915,0.4,0,436.0,657.0,0.0,1177.0,1,0.13301299607143857,0.0
473,473,-0.017206481349870684,-0.0,1,413.0,625.0,1.0,1172.0,1,0.29906972613713445,0.0
474,474,-0.19525358672091242,-0.2,1,383.0,585.0,1.0,572.0,1,0.26708780167560353,0.0
475,475,-0.18992393008726616,-0.2,1,454.0,933.0,1.0,363.0,1,0.8649442864035011,0.0
476,476,0.5372968756936507,0.5,0,496.0,804.0,0.0,150.0,1,0.8193397085995814,0.0
477,477,-0.8659726466644677,-0.9,1,377.0,845.0,1.0,298.0,1,0.31846906809621867,0.0
478,478,0.4176257491901838,0.4,0,437.0,687.0,0.0,286.0,1,0.4966445159063644,0.0
479,479,-0.10815172763663705,-0.1,1,392.0,683.0,1.0,635.0,1,0.48211066168748495,0.0
480,480,-0.3148176384459831,-0.3,1,341.0,876.0,1.0,693.0,1,0.34381892004845804,0.0
481,481,0.18234617691142452,0.2,0,251.0,862.0,0.0,957.0,1,0.28430344013348596,0.0
482,482,-0.9293228984860458,-0.9,1,326.0,878.0,1.0,226.0,1,0.7246048973772425,0.0
483,483,-0.8218818525263036,-0.8,1,258.0,995.0,1.0,277.0,1,0.9981140107259294,0.0
484,484,0.9996256030011985,1.0,0,298.0,523.0,0.0,209.0,1,0.9536851549611806,0.0
485,485,-0.17742895754859211,-0.2,1,414.0,849.0,1.0,277.0,1,0.7933428010211884,0.0
486,486,0.7025610869104795,0.7,0,346.0,988.0,0.0,336.0,1,0.4944328378697924,0.0
487,487,0.16335059445079048,0.2,0,339.0,752.0,0.0,399.0,1,0.5841780336176637,0.0
488,488,0.8437049888689787,0.8,0,458.0,686.0,0.0,256.0,1,0.941236090959666,0.0
489,489,0.9128380871672754,0.9,0,339.0,662.0,0.0,179.0,1,0.6329652089031662,0.0
490,490,0.7477112905455703,0.7,0,463.0,627.0,0.0,310.0,1,0.3606330838147995,0.0
491,491,-0.6409946178129966,-0.6,1,346.0,975.0,1.0,169.0,1,0.9513116538187849,0.0
492,492,0.8108605076511299,0.8,0,475.0,869.0,0.0,516.0,1,0.16702652775966043,0.0
493,493,0.2134105708294305,0.2,0,466.0,578.0,0.0,586.0,1,0.5114580752084184,0.0
494,494,-0.9616817639164268,-1.0,1,332.0,556.0,1.0,472.0,1,0.19201386058030678,0.0
495,495,0.6321024651048053,0.6,0,404.0,520.0,0.0,266.0,1,0.4488179124234226,0.0
496,496,0.2508681609289638,0.3,0,348.0,836.0,0.0,646.0,1,0.7239711740803678,0.0
497,497,0.3805385878676075,0.4,0,363.0,703.0,0.0,474.0,1,0.3084081495327522,0.0
498,498,0.6221813283889761,0.6,0,270.0,976.0,0.0,834.0,1,0.10418597940594089,0.0
499,499,-0.2888496417134039,-0.3,1,331.0,612.0,1.0,567.0,1,0.6678053762060008,0.0
500,500,0.1978501188204378,0.2,0,358.0,604.0,0.0,788.0,1,0.49170686660249874,0.0
501,501,0.8379333739778891,0.8,0,475.0,902.0,0.0,513.0,1,0.20391692881956197,0.0
502,502,0.8239388198655071,0.8,0,495.0,523.0,0.0,232.0,1,0.6631637295682964,0.0
503,503,0.3456653276184598,0.3,0,413.0,650.0,0.0,437.0,1,0.59495519266489,0.0
504,504,-0.13511976939706782,-0.1,1,325.0,769.0,1.0,456.0,1,0.9437529303112003,0.0
505,505,0.6574684667635187,0.7,0,292.0,899.0,0.0,209.0,1,0.5990515765541721,0.0
506,506,-0.1443356726028997,-0.1,1,299.0,796.0,1.0,1045.0,1,0.2972385126790241,0.0
507,507,-0.385414232167969,-0.4,1,341.0,653.0,1.0,196.0,1,0.9591302321513479,0.0
508,508,-0.2724251650158078,-0.3,1,326.0,564.0,1.0,940.0,1,0.12855481288671117,0.0
509,509,-0.8935427956876625,-0.9,1,252.0,677.0,1.0,191.0,1,0.7356503237375062,0.0
510,510,0.16861583882694475,0.2,0,390.0,698.0,0.0,382.0,1,0.9259493324504184,0.0
511,511,0.9251572130378423,0.9,0,289.0,974.0,0.0,317.0,1,0.18005837751653653,0.0
512,512,-0.25603733242230353,-0.3,1,464.0,767.0,1.0,569.0,1,0.37549421405422867,0.0
513,513,-0.4111982298392207,-0.4,1,359.0,881.0,1.0,300.0,1,0.9887382400796587,0.0
514,514,-0.7509194928780489,-0.8,1,275.0,658.0,1.0,327.0,1,0.7718440448329357,0.0
515,515,0.053117401224056726,0.1,0,302.0,999.0,0.0,1759.0,1,0.41723479083245263,0.0
516,516,-0.55299932340538,-0.6,1,440.0,838.0,1.0,272.0,1,0.9045236711884128,0.0
517,517,-0.4805762377509808,-0.5,1,392.0,986.0,1.0,252.0,1,0.5499214804408076,0.0
518,518,0.8578083889091741,0.9,0,434.0,631.0,0.0,125.0,1,0.977464334921655,0.0
519,519,-0.30051657321652314,-0.3,1,251.0,631.0,1.0,1398.0,1,0.17755088357038862,0.0
520,520,-0.36524192773679287,-0.4,1,423.0,878.0,1.0,289.0,1,0.7656269286620278,0.0
521,521,-0.9897950235763668,-1.0,1,272.0,801.0,1.0,197.0,1,0.43971959176674946,0.0
522,522,0.5642247398943219,0.6,0,343.0,862.0,0.0,905.0,1,0.23736423973599807,0.0
523,523,-0.10899261478530953,-0.1,1,410.0,965.0,1.0,435.0,1,0.8276525080050088,0.0
524,524,0.0797717367160029,0.1,0,474.0,698.0,0.0,1348.0,1,0.4382690045037727,0.0
525,525,-0.5733196574877792,-0.6,1,305.0,719.0,1.0,286.0,1,0.47315199792776463,0.0
526,526,0.35110308435911386,0.4,0,477.0,925.0,0.0,278.0,1,0.6992390371106206,0.0
527,527,-0.7302977368074666,-0.7,1,398.0,632.0,1.0,270.0,1,0.7400931874450583,0.0
528,528,0.6222876648282585,0.6,0,391.0,572.0,0.0,767.0,1,0.16063109986114119,0.0
529,529,-0.20697217016506353,-0.2,1,283.0,958.0,1.0,529.0,1,0.6930148425866398,0.0
530,530,-0.603196641039496,-0.6,1,253.0,696.0,1.0,271.0,1,0.9703203246598988,0.0
531,531,0.6698605090534784,0.7,0,409.0,758.0,0.0,913.0,1,0.13421221903033098,0.0
532,532,0.5854199530311699,0.6,0,319.0,938.0,0.0,303.0,1,0.8611086486611851,0.0
533,533,0.14721547163512216,0.1,0,490.0,657.0,0.0,763.0,1,0.25540671829669037,0.0
534,534,-0.47853174060897463,-0.5,1,250.0,596.0,1.0,334.0,1,0.4988928219372938,0.0
535,535,0.643435936002996,0.6,0,495.0,988.0,0.0,247.0,1,0.6920379888584262,0.0
536,536,-0.2710871727594706,-0.3,1,471.0,716.0,1.0,583.0,1,0.2298911077798381,0.0
537,537,0.49513327687063335,0.5,0,406.0,789.0,0.0,255.0,1,0.6967637649676286,0.0
538,538,-0.5116630422349511,-0.5,1,477.0,593.0,1.0,310.0,1,0.54746616118464,0.0
539,539,0.5433528169976183,0.5,0,475.0,632.0,0.0,393.0,1,0.44119165043261,0.0
540,540,0.19214313643883263,0.2,0,314.0,927.0,0.0,299.0,1,0.8330129261793573,0.0
541,541,-0.003600236232557119,-0.0,1,401.0,865.0,1.0,1904.0,1,0.17944098582009432,0.0
542,542,0.7658821233502604,0.8,0,334.0,870.0,0.0,186.0,1,0.7597092989453674,0.0
543,543,-0.04195649186529993,-0.0,1,331.0,974.0,0.0,3305.0,0,0.144176140127161,0.0
544,544,-0.4585019624592166,-0.5,1,464.0,563.0,1.0,533.0,1,0.358305901884688,0.0
545,545,-0.5909772239926947,-0.6,1,364.0,722.0,1.0,284.0,1,0.7235739176353314,0.0
546,546,-0.027121202451441118,-0.0,1,443.0,778.0,0.0,679.0,0,0.6311405177302197,0.0
547,547,-0.5665811729833408,-0.6,1,459.0,992.0,1.0,239.0,1,0.9335173741182892,0.0
548,548,0.46108463361013596,0.5,0,257.0,529.0,0.0,374.0,1,0.4316573921296911,0.0
549,549,0.743276666243774,0.7,0,253.0,541.0,0.0,1136.0,1,0.10438429516457054,0.0
550,550,0.21793315792504853,0.2,0,259.0,899.0,0.0,512.0,1,0.5579478622859936,0.0
551,551,-0.6184278603670847,-0.6,1,437.0,693.0,1.0,230.0,1,0.9997377548164537,0.0
552,552,0.48078040723940485,0.5,0,398.0,762.0,0.0,560.0,1,0.5418381707836424,0.0
553,553,0.06282278902279392,0.1,0,422.0,529.0,0.0,1619.0,1,0.30110541667361884,0.0
554,554,-0.3855402149943077,-0.4,1,309.0,886.0,1.0,355.0,1,0.32724413084628046,0.0
555,555,-0.7694582728610377,-0.8,1,445.0,905.0,1.0,250.0,1,0.3531669825021527,0.0
556,556,0.39302962219353454,0.4,0,451.0,831.0,0.0,348.0,1,0.529557421991924,0.0
557,557,-0.2546144019877514,-0.3,1,342.0,751.0,1.0,557.0,1,0.4420595938761337,0.0
558,558,0.7439655113163428,0.7,0,424.0,956.0,0.0,230.0,1,0.8195298095121795,0.0
559,559,-0.39487428852495543,-0.4,1,365.0,602.0,1.0,153.0,1,0.8206022688519107,0.0
560,560,-0.5258133443012352,-0.5,1,279.0,983.0,1.0,628.0,1,0.17153087955140978,0.0
561,561,-0.9541918481468086,-1.0,1,380.0,558.0,1.0,182.0,1,0.8999704137592405,0.0
562,562,-0.5082537956523543,-0.5,1,431.0,943.0,1.0,356.0,1,0.4207049623189356,0.0
563,563,0.9355335410054233,0.9,0,284.0,665.0,0.0,371.0,1,0.32433174421027544,0.0
564,564,-0.4384850022959561,-0.4,1,487.0,722.0,1.0,261.0,1,0.9033419164520138,0.0
565,565,-0.42802062068650915,-0.4,1,484.0,603.0,1.0,613.0,1,0.2553602398039554,0.0
566,566,-0.1623273699687524,-0.2,1,294.0,995.0,1.0,361.0,1,0.6657457791567489,0.0
567,567,-0.12031331971776904,-0.1,1,302.0,920.0,1.0,878.0,1,0.2678106361013008,0.0
568,568,0.7234467545789036,0.7,0,402.0,993.0,0.0,225.0,1,0.8987963225437483,0.0
569,569,-0.13753935148115493,-0.1,1,254.0,853.0,1.0,373.0,1,0.7439696045112214,0.0
570,570,-0.5407744794978526,-0.5,1,390.0,605.0,1.0,515.0,1,0.18475325529282716,0.0
571,571,-0.9006779971741083,-0.9,1,327.0,676.0,1.0,367.0,1,0.4703238200163886,0.0
572,572,0.9798699664885038,1.0,0,409.0,899.0,0.0,142.0,1,0.564033187271133,0.0
573,573,0.6203028902626149,0.6,0,311.0,738.0,0.0,1011.0,1,0.11620205727007742,0.0
574,574,0.24234490188763314,0.2,0,433.0,921.0,0.0,1176.0,1,0.4654470375465498,0.0
575,575,0.46486421918265486,0.5,0,423.0,957.0,0.0,620.0,1,0.6454878127464021,0.0
576,576,-0.7156747477644747,-0.7,1,417.0,777.0,1.0,296.0,1,0.45203523070208373,0.0
577,577,-0.9160364967098371,-0.9,1,489.0,681.0,1.0,210.0,1,0.918680856946625,0.0
578,578,-0.03367629577026321,-0.0,1,434.0,542.0,1.0,1404.0,1,0.22306440865633226,0.0
579,579,-0.5434637655005647,-0.5,1,330.0,787.0,1.0,383.0,1,0.1978387649945198,0.0
580,580,0.7260975860234851,0.7,0,429.0,515.0,0.0,326.0,1,0.9561662967405525,0.0
581,581,0.08335694838430219,0.1,0,417.0,979.0,0.0,444.0,1,0.7796937125123892,0.0
582,582,0.5692439936296319,0.6,0,354.0,761.0,0.0,375.0,1,0.4459649558759611,0.0
583,583,0.19926984705702733,0.2,0,482.0,525.0,0.0,753.0,1,0.50910893553241,0.0
584,584,-0.7002903594515928,-0.7,1,445.0,982.0,1.0,283.0,1,0.4120935640477471,0.0
585,585,-0.5930392441219241,-0.6,1,429.0,994.0,1.0,677.0,1,0.15480334527594167,0.0
586,586,0.8294978056210154,0.8,0,479.0,706.0,0.0,275.0,1,0.7052849208078018,0.0
587,587,-0.10675980422027687,-0.1,1,314.0,758.0,1.0,928.0,1,0.42006354148453007,0.0
588,588,-0.30212465574735603,-0.3,1,346.0,854.0,1.0,270.0,1,0.603377442234178,0.0
589,589,0.6640445467093421,0.7,0,439.0,565.0,0.0,806.0,1,0.16854649279931277,0.0
590,590,-0.8011837029929729,-0.8,1,483.0,584.0,1.0,253.0,1,0.4022059254495529,0.0
591,591,0.9984331573329046,1.0,0,398.0,954.0,0.0,268.0,1,0.7132052808125936,0.0
592,592,0.35168477531904485,0.4,0,455.0,962.0,0.0,913.0,1,0.36215265478339853,0.0
593,593,0.3491784362367809,0.3,0,445.0,723.0,0.0,562.0,1,0.7848951557384148,0.0
594,594,0.17820804721076544,0.2,0,305.0,934.0,0.0,1441.0,1,0.24697289847773035,0.0
595,595,-0.7228910061801663,-0.7,1,447.0,831.0,1.0,162.0,1,0.8789700917578388,0.0
596,596,0.8587051020311636,0.9,0,477.0,604.0,0.0,179.0,1,0.7342519280494251,0.0
597,597,0.49629691385896146,0.5,0,386.0,819.0,0.0,575.0,1,0.1546432773879271,0.0
598,598,0.4774759964676605,0.5,0,407.0,656.0,0.0,657.0,1,0.43076488495204945,0.0
599,599,0.12125022619884418,0.1,0,271.0,750.0,0.0,1619.0,1,0.5388186756513752,0.0
600,600,-0.5912716732150736,-0.6,1,283.0,902.0,1.0,485.0,1,0.3579904120082239,0.0
601,601,0.4650154741053143,0.5,0,360.0,692.0,0.0,358.0,1,0.25298116405548643,0.0
602,602,-0.30043550761211213,-0.3,1,482.0,869.0,1.0,749.0,1,0.4369543664128672,0.0
603,603,-0.8938453323910442,-0.9,1,485.0,937.0,1.0,268.0,1,0.8858744912706324,0.0
604,604,0.5933591051132923,0.6,0,328.0,781.0,0.0,221.0,1,0.8424654393649417,0.0
605,605,0.7683519385951387,0.8,0,394.0,805.0,0.0,661.0,1,0.11303782651973124,0.0
606,606,-0.8714408418450428,-0.9,1,474.0,963.0,1.0,543.0,1,0.22743160240507154,0.0
607,607,-0.9146012442670892,-0.9,1,441.0,789.0,1.0,390.0,1,0.2230964252202582,0.0
608,608,0.7109561343432138,0.7,0,469.0,664.0,0.0,187.0,1,0.7825888955302746,0.0
609,609,0.7862344850964755,0.8,0,317.0,665.0,0.0,238.0,1,0.4806144960544062,0.0
610,610,-0.5939036669906728,-0.6,1,371.0,606.0,1.0,483.0,1,0.3631700928934394,0.0
611,611,0.8365828670084727,0.8,0,253.0,820.0,0.0,267.0,1,0.7737040788852394,0.0
612,612,0.08626518344109235,0.1,0,358.0,991.0,0.0,441.0,1,0.532739736239733,0.0
613,613,0.7829633033714725,0.8,0,421.0,945.0,0.0,554.0,1,0.1599148663453167,0.0
614,614,-0.8306448449259012,-0.8,1,380.0,865.0,1.0,245.0,1,0.932716548430003,0.0
615,615,-0.8908515306799973,-0.9,1,342.0,616.0,1.0,312.0,1,0.38550522127934894,0.0
616,616,0.4967807271868947,0.5,0,265.0,997.0,0.0,238.0,1,0.498002889356707,0.0
617,617,0.6211340155640797,0.6,0,265.0,532.0,0.0,263.0,1,0.4974271238196607,0.0
618,618,-0.3390047352102279,-0.3,1,338.0,756.0,1.0,416.0,1,0.6074150487889062,0.0
619,619,0.8326492498814004,0.8,0,308.0,941.0,0.0,581.0,1,0.11290705513032444,0.0
620,620,-0.08349532227869583,-0.1,1,368.0,876.0,1.0,716.0,1,0.6382287583596993,0.0
621,621,0.7133047956533451,0.7,0,253.0,735.0,0.0,432.0,1,0.7117830268123094,0.0
622,622,-0.9948833672387887,-1.0,1,265.0,855.0,1.0,140.0,1,0.7212992479654159,0.0
623,623,0.33503662072834417,0.3,0,423.0,885.0,0.0,682.0,1,0.44138530393248854,0.0
624,624,-0.2818595179100505,-0.3,1,423.0,595.0,1.0,262.0,1,0.6723546351126549,0.0
625,625,-0.1396553839979766,-0.1,1,472.0,857.0,1.0,971.0,1,0.3495790490302601,0.0
626,626,-0.15815734030282003,-0.2,1,266.0,696.0,1.0,458.0,1,0.873791706822983,0.0
627,627,0.14535363743093233,0.1,0,310.0,595.0,0.0,1115.0,1,0.9260280356852977,0.0
628,628,-0.40922805633197945,-0.4,1,482.0,570.0,1.0,218.0,1,0.7059645468583994,0.0
629,629,0.6149975873443849,0.6,0,452.0,994.0,0.0,224.0,1,0.9924826430411549,0.0
630,630,0.6517608882377344,0.7,0,465.0,871.0,0.0,224.0,1,0.5344623114259436,0.0
631,631,0.7373908070035498,0.7,0,468.0,664.0,0.0,888.0,1,0.14316787231329542,0.0
632,632,-0.7490555762295217,-0.7,1,330.0,736.0,1.0,204.0,1,0.6223486997024695,0.0
633,633,0.8819635558296051,0.9,0,343.0,502.0,0.0,245.0,1,0.9273053503072124,0.0
634,634,-0.6034916874402476,-0.6,1,268.0,546.0,1.0,296.0,1,0.7471911876560317,0.0
635,635,-0.6580636541695613,-0.7,1,475.0,645.0,1.0,380.0,1,0.3269368445019376,0.0
636,636,-0.6155750224469696,-0.6,1,461.0,766.0,1.0,423.0,1,0.7995713349215215,0.0
637,637,-0.17910132020654124,-0.2,1,315.0,517.0,1.0,258.0,1,0.8825212619840439,0.0
638,638,-0.4436368978832175,-0.4,1,490.0,943.0,1.0,317.0,1,0.48000315354815004,0.0
639,639,-0.629890981479184,-0.6,1,322.0,925.0,1.0,163.0,1,0.7950471817550122,0.0
640,640,0.5181292878689971,0.5,0,421.0,953.0,0.0,1326.0,1,0.1070155609595631,0.0
641,641,-0.40955148065313485,-0.4,1,356.0,986.0,1.0,878.0,1,0.12601955108109916,0.0
642,642,0.4444777371068802,0.4,0,477.0,542.0,0.0,881.0,1,0.2566673347449945,0.0
643,643,0.4649545026119719,0.5,0,382.0,806.0,0.0,1512.0,1,0.12971629837620618,0.0
644,644,-0.510153503890439,-0.5,1,299.0,767.0,1.0,254.0,1,0.45176633873473493,0.0
645,645,0.6986925620810727,0.7,0,385.0,893.0,0.0,332.0,1,0.42163912587294894,0.0
646,646,0.9879912114260618,1.0,0,358.0,603.0,0.0,389.0,1,0.48022985471637114,0.0
647,647,0.5924654593393544,0.6,0,451.0,604.0,0.0,425.0,1,0.564835760757068,0.0
648,648,-0.09917754687631097,-0.1,1,475.0,569.0,1.0,1186.0,1,0.8969419492148701,0.0
649,649,-0.8296243207244147,-0.8,1,315.0,661.0,1.0,134.0,1,0.7158477401288299,0.0
650,650,0.3545193188230331,0.4,0,328.0,578.0,0.0,604.0,1,0.6191818204376605,0.0
651,651,0.530078716274877,0.5,0,390.0,542.0,0.0,338.0,1,0.4151659784997902,0.0
652,652,-0.8242431373056791,-0.8,1,395.0,625.0,1.0,150.0,1,0.9294419716026368,0.0
653,653,-0.9938775858961506,-1.0,1,282.0,935.0,1.0,163.0,1,0.7847585724546252,0.0
654,654,0.5342340320521821,0.5,0,480.0,935.0,0.0,365.0,1,0.35282346361922734,0.0
655,655,-0.19994184098332624,-0.2,1,421.0,866.0,1.0,313.0,1,0.3748603638932694,0.0
656,656,0.29142472008423614,0.3,0,442.0,762.0,0.0,856.0,1,0.2221412621152527,0.0
657,657,0.8608995215227362,0.9,0,315.0,717.0,0.0,228.0,1,0.9621982032743591,0.0
658,658,-0.10288003715737815,-0.1,1,269.0,963.0,1.0,2028.0,1,0.10494660697027967,0.0
659,659,0.2817503790838769,0.3,0,334.0,897.0,0.0,689.0,1,0.2798637237454609,0.0
660,660,-0.9127426095318636,-0.9,1,433.0,993.0,1.0,124.0,1,0.8745660206666749,0.0
661,661,0.809695624189432,0.8,0,367.0,561.0,0.0,312.0,1,0.8427214574747984,0.0
662,662,-0.22239559285076416,-0.2,1,286.0,795.0,1.0,429.0,1,0.49302773913320064,0.0
663,663,0.2329163331886719,0.2,0,477.0,784.0,0.0,369.0,1,0.8794691810051092,0.0
664,664,0.5502395914966876,0.6,0,429.0,823.0,0.0,408.0,1,0.8727257544621113,0.0
665,665,0.11419652841744665,0.1,0,477.0,701.0,0.0,562.0,1,0.7032596709390414,0.0
666,666,0.49130932709095454,0.5,0,271.0,664.0,0.0,1265.0,1,0.1438840336846624,0.0
667,667,0.22298719237114928,0.2,0,415.0,643.0,0.0,902.0,1,0.26046433327692176,0.0
668,668,-0.852610806468924,-0.9,1,274.0,874.0,1.0,182.0,1,0.5391747205121571,0.0
669,669,0.8814631762356924,0.9,0,455.0,547.0,0.0,268.0,1,0.289029741340314,0.0
670,670,-0.23878157326802918,-0.2,1,341.0,688.0,1.0,971.0,1,0.8026683675817403,0.0
671,671,-0.4959124483902835,-0.5,1,466.0,718.0,1.0,916.0,1,0.11391901976848282,0.0
672,672,0.7451276808750924,0.7,0,350.0,892.0,0.0,858.0,1,0.12160411993518154,0.0
673,673,-0.7908063098623614,-0.8,1,428.0,858.0,1.0,234.0,1,0.941856411165982,0.0
674,674,-0.1319185684655173,-0.1,1,281.0,902.0,1.0,797.0,1,0.24512224984499859,0.0
675,675,-0.09251619336963257,-0.1,1,477.0,588.0,1.0,415.0,1,0.8409205488075775,0.0
676,676,0.40699535635222617,0.4,0,290.0,988.0,0.0,282.0,1,0.4081220255966662,0.0
677,677,-0.31690384797207827,-0.3,1,413.0,890.0,1.0,357.0,1,0.40147613314953434,0.0
678,678,-0.390682769325162,-0.4,1,367.0,695.0,1.0,318.0,1,0.36141724213463555,0.0
679,679,-0.06829860982547653,-0.1,1,385.0,883.0,1.0,1522.0,1,0.27754181562776514,0.0
680,680,-0.5234121785073385,-0.5,1,437.0,769.0,1.0,304.0,1,0.3478331577048631,0.0
681,681,-0.9952610424112802,-1.0,1,451.0,517.0,1.0,292.0,1,0.34906119237358424,0.0
682,682,-0.6888689037258251,-0.7,1,262.0,943.0,1.0,665.0,1,0.1265124543849281,0.0
683,683,0.25048037087638964,0.3,0,274.0,771.0,0.0,345.0,1,0.9185248473751265,0.0
684,684,0.4988377400374431,0.5,0,480.0,585.0,0.0,425.0,1,0.39911301824523404,0.0
685,685,0.48390481285959197,0.5,0,421.0,624.0,0.0,275.0,1,0.5932214889473181,0.0
686,686,-0.004408382717314252,-0.0,1,298.0,947.0,1.0,425.0,1,0.8015218884995587,0.0
687,687,0.28756152436470495,0.3,0,446.0,784.0,0.0,350.0,1,0.84678115962292,0.0
688,688,0.3301544492104913,0.3,0,286.0,717.0,0.0,487.0,1,0.5166765882352614,0.0
689,689,0.5163840439027423,0.5,0,299.0,890.0,0.0,311.0,1,0.3554757070670602,0.0
690,690,-0.8425406659871411,-0.8,1,413.0,788.0,1.0,209.0,1,0.8828413567191182,0.0
691,691,0.7397096009030648,0.7,0,280.0,706.0,0.0,594.0,1,0.2766027059875934,0.0
692,692,0.47262879556403536,0.5,0,328.0,790.0,0.0,452.0,1,0.36061939999601855,0.0
693,693,-0.37265749057302844,-0.4,1,455.0,641.0,1.0,304.0,1,0.6346447272350518,0.0
694,694,-0.14087849639591488,-0.1,1,260.0,509.0,1.0,571.0,1,0.5803333164770405,0.0
695,695,0.5004108692615195,0.5,0,266.0,705.0,0.0,399.0,1,0.3097630767303218,0.0
696,696,0.8918918560623381,0.9,0,313.0,911.0,0.0,266.0,1,0.3824865465009394,0.0
697,697,0.5638174972725565,0.6,0,398.0,500.0,0.0,282.0,1,0.5952973594022948,0.0
698,698,0.9255126267855689,0.9,0,302.0,589.0,0.0,229.0,1,0.9221079506842745,0.0
699,699,0.942221062074299,0.9,0,381.0,511.0,0.0,218.0,1,0.9974694513798212,0.0
700,700,0.6589477126405296,0.7,0,469.0,692.0,0.0,289.0,1,0.6593123922742011,0.0
701,701,0.12301772337843864,0.1,0,376.0,636.0,0.0,578.0,1,0.8225485364471743,0.0
702,702,-0.7836983462684077,-0.8,1,482.0,660.0,1.0,188.0,1,0.9633617266413939,0.0
703,703,-0.8463409701120299,-0.8,1,487.0,931.0,1.0,352.0,1,0.3078256116804596,0.0
704,704,0.3825917373805463,0.4,0,465.0,573.0,0.0,1462.0,1,0.18004792492679927,0.0
705,705,0.13310009026299774,0.1,0,263.0,725.0,0.0,162.0,1,0.8454141926362541,0.0
706,706,-0.991338920505002,-1.0,1,268.0,873.0,1.0,239.0,1,0.43427219505038284,0.0
707,707,-0.7730857398502748,-0.8,1,435.0,580.0,1.0,295.0,1,0.3447189389224626,0.0
708,708,0.31955057268414744,0.3,0,254.0,954.0,0.0,272.0,1,0.8899801384913804,0.0
709,709,-0.5907649830557764,-0.6,1,359.0,735.0,1.0,216.0,1,0.8530140928460203,0.0
710,710,0.8617201791163074,0.9,0,485.0,662.0,0.0,203.0,1,0.6920385307252193,0.0
711,711,0.2741307198165044,0.3,0,404.0,957.0,0.0,279.0,1,0.8842431297051371,0.0
712,712,-0.558226090796883,-0.6,1,393.0,737.0,1.0,170.0,1,0.6583237258491089,0.0
713,713,-0.1918990151770652,-0.2,1,287.0,683.0,1.0,1080.0,1,0.2284869485797072,0.0
714,714,0.40772403020650505,0.4,0,404.0,811.0,0.0,205.0,1,0.8858464808322809,0.0
715,715,-0.076587957734092,-0.1,1,392.0,660.0,1.0,418.0,1,0.6431335942958037,0.0
716,716,-0.9156070022625762,-0.9,1,370.0,598.0,1.0,202.0,1,0.851110980105957,0.0
717,717,-0.8427239797270218,-0.8,1,260.0,910.0,1.0,250.0,1,0.5321607089770604,0.0
718,718,-0.9453668326387381,-0.9,1,351.0,792.0,1.0,147.0,1,0.8116286067622592,0.0
719,719,-0.6350079436189375,-0.6,1,360.0,765.0,1.0,265.0,1,0.4464617341346935,0.0
720,720,-0.29871807033672204,-0.3,1,430.0,994.0,1.0,1026.0,1,0.12507239897434935,0.0
721,721,0.6120483592253438,0.6,0,274.0,674.0,0.0,572.0,1,0.1920998070382091,0.0
722,722,0.7248301187605932,0.7,0,423.0,954.0,0.0,313.0,1,0.7737590473446734,0.0
723,723,0.3198833394688818,0.3,0,456.0,806.0,0.0,1308.0,1,0.16551969155922858,0.0
724,724,0.31389762279529654,0.3,0,466.0,669.0,0.0,335.0,1,0.8699888520802836,0.0
725,725,0.6077461967845303,0.6,0,283.0,889.0,0.0,188.0,1,0.8157688548279945,0.0
726,726,-0.8977752540873081,-0.9,1,339.0,517.0,1.0,134.0,1,0.8568742569976295,0.0
727,727,-0.29228732583517303,-0.3,1,499.0,788.0,1.0,993.0,1,0.6879579301570384,0.0
728,728,-0.1429080593221852,-0.1,1,462.0,709.0,1.0,809.0,1,0.26934910505388476,0.0
729,729,-0.10311050939907185,-0.1,1,259.0,800.0,1.0,1591.0,1,0.1674690169407167,0.0
730,730,-0.32745952024854574,-0.3,1,334.0,816.0,1.0,330.0,1,0.8719352482090957,0.0
731,731,-0.6225251888859593,-0.6,1,418.0,946.0,1.0,176.0,1,0.6402198175757369,0.0
732,732,0.36007711967179334,0.4,0,297.0,713.0,0.0,650.0,1,0.4170161226252884,0.0
733,733,0.6823629484039497,0.7,0,349.0,661.0,0.0,230.0,1,0.7616886460132569,0.0
734,734,0.9850315482032579,1.0,0,275.0,751.0,0.0,294.0,1,0.3968346488752714,0.0
735,735,-0.34643602240352345,-0.3,1,327.0,554.0,1.0,239.0,1,0.5708390577002924,0.0
736,736,-0.6852632394379483,-0.7,1,401.0,503.0,1.0,356.0,1,0.5899527896729161,0.0
737,737,-0.6506101690157451,-0.7,1,397.0,645.0,1.0,368.0,1,0.40028861679221606,0.0
738,738,0.9742399411631142,1.0,0,340.0,902.0,0.0,198.0,1,0.7360538509094556,0.0
739,739,0.6876507123631082,0.7,0,371.0,801.0,0.0,548.0,1,0.15795805240920638,0.0
740,740,-0.731775355640311,-0.7,1,329.0,707.0,1.0,604.0,1,0.1541171141812089,0.0
741,741,0.10544743909842547,0.1,0,284.0,844.0,0.0,1172.0,1,0.3661459904072236,0.0
742,742,-0.6877179746732429,-0.7,1,347.0,971.0,1.0,292.0,1,0.4066842046637871,0.0
743,743,-0.5115592728717717,-0.5,1,476.0,962.0,1.0,262.0,1,0.5093973802505184,0.0
744,744,0.04062150922835972,0.0,0,325.0,763.0,1.0,1572.0,0,0.6943877882578727,0.0
745,745,0.3842025615074256,0.4,0,418.0,906.0,0.0,856.0,1,0.264305764360954,0.0
746,746,-0.8161367555321783,-0.8,1,445.0,810.0,1.0,145.0,1,0.8978704468629404,0.0
747,747,0.8216490098897629,0.8,0,343.0,610.0,0.0,567.0,1,0.205053419557932,0.0
748,748,-0.08624583100407057,-0.1,1,497.0,558.0,1.0,1545.0,1,0.21529364005883767,0.0
749,749,-0.7958292360777568,-0.8,1,400.0,893.0,1.0,217.0,1,0.8275210751164422,0.0
750,750,0.9852644620527558,1.0,0,483.0,570.0,0.0,187.0,1,0.3125862979677366,0.0
751,751,-0.7272239285887325,-0.7,1,455.0,650.0,1.0,335.0,1,0.3268637999803671,0.0
752,752,0.5998708228744056,0.6,0,268.0,951.0,0.0,401.0,1,0.20380729415182341,0.0
753,753,-0.9435443013977436,-0.9,1,441.0,939.0,1.0,160.0,1,0.7446415785639777,0.0
754,754,0.48883114548533824,0.5,0,492.0,662.0,0.0,506.0,1,0.3958814750622469,0.0
755,755,-0.061795032848029896,-0.1,1,390.0,690.0,1.0,640.0,1,0.7038171898957583,0.0
756,756,0.9272057365292845,0.9,0,407.0,660.0,0.0,1233.0,1,0.10367673669411652,0.0
757,757,-0.5051763669400091,-0.5,1,374.0,778.0,1.0,378.0,1,0.7231516256779031,0.0
758,758,0.36085960920774984,0.4,0,498.0,702.0,0.0,260.0,1,0.719085411456892,0.0
759,759,-0.5870662043453847,-0.6,1,431.0,943.0,1.0,396.0,1,0.2665645785621419,0.0
760,760,-0.7884729437563949,-0.8,1,324.0,720.0,1.0,216.0,1,0.6222182733362293,0.0
761,761,-0.7518778057708493,-0.8,1,272.0,741.0,1.0,237.0,1,0.6247738886782966,0.0
762,762,0.7628493725086474,0.8,0,294.0,550.0,0.0,236.0,1,0.9453411863532094,0.0
763,763,0.4907592638143419,0.5,0,451.0,944.0,0.0,505.0,1,0.3979413029885971,0.0
764,764,0.9703390039831294,1.0,0,259.0,526.0,0.0,345.0,1,0.4553778171718772,0.0
765,765,-0.656228474923223,-0.7,1,327.0,500.0,1.0,323.0,1,0.4581526724500763,0.0
766,766,0.1851842610796155,0.2,0,297.0,670.0,0.0,1163.0,1,0.2994671464996853,0.0
767,767,0.9789700045741037,1.0,0,465.0,649.0,0.0,306.0,1,0.8230450713491362,0.0
768,768,-0.10846075775950492,-0.1,1,306.0,622.0,1.0,302.0,1,0.8980860832645143,0.0
769,769,0.4208650801937037,0.4,0,463.0,759.0,0.0,728.0,1,0.20235658789925198,0.0
770,770,0.44155485317889265,0.4,0,441.0,640.0,0.0,479.0,1,0.3961225641585785,0.0
771,771,-0.44797555180421833,-0.4,1,268.0,696.0,1.0,366.0,1,0.5744072979381527,0.0
772,772,0.5750272499192066,0.6,0,457.0,903.0,0.0,630.0,1,0.1795665487384071,0.0
773,773,0.4480114206243848,0.4,0,479.0,823.0,0.0,368.0,1,0.47409325874886343,0.0
774,774,0.3930474509093942,0.4,0,399.0,634.0,0.0,377.0,1,0.32291683652871883,0.0
775,775,0.8476447963014502,0.8,0,325.0,968.0,0.0,617.0,1,0.17954522410701398,0.0
776,776,0.2316557607488503,0.2,0,340.0,697.0,0.0,923.0,1,0.41752798146312187,0.0
777,777,-0.349642330158922,-0.3,1,313.0,829.0,1.0,788.0,1,0.1252932905118766,0.0
778,778,0.6368455732464933,0.6,0,324.0,545.0,0.0,421.0,1,0.4294911475913151,0.0
779,779,0.5018575875341345,0.5,0,312.0,521.0,0.0,347.0,1,0.9276505895339591,0.0
780,780,-0.6981911680978539,-0.7,1,383.0,863.0,1.0,284.0,1,0.6282961895118506,0.0
781,781,-0.5141177477576484,-0.5,1,349.0,696.0,1.0,275.0,1,0.8914917407668954,0.0
782,782,0.46673245503194893,0.5,0,434.0,615.0,0.0,511.0,1,0.40073588903573965,0.0
783,783,-0.7060620205517685,-0.7,1,271.0,586.0,1.0,463.0,1,0.8324997688494485,0.0
784,784,-0.22877816440909915,-0.2,1,372.0,777.0,1.0,261.0,1,0.7004269326146949,0.0
785,785,0.36037181491088344,0.4,0,408.0,767.0,0.0,1135.0,1,0.17748899924388417,0.0
786,786,0.9127268737868182,0.9,0,484.0,529.0,0.0,277.0,1,0.6506965019380847,0.0
787,787,-0.18869474731067282,-0.2,1,478.0,725.0,1.0,367.0,1,0.3736244529281938,0.0
788,788,0.2933974581314285,0.3,0,369.0,629.0,0.0,822.0,1,0.1534486919937883,0.0
789,789,0.9318658003514897,0.9,0,385.0,781.0,0.0,214.0,1,0.8725268703932404,0.0
790,790,-0.1654670947794008,-0.2,1,287.0,613.0,1.0,210.0,1,0.4888947316084391,0.0
791,791,0.49988409450647997,0.5,0,315.0,929.0,0.0,356.0,1,0.5945333210014123,0.0
792,792,-0.7250814069694633,-0.7,1,466.0,643.0,1.0,291.0,1,0.3357284817830385,0.0
793,793,-0.8533373187910571,-0.9,1,257.0,961.0,1.0,232.0,1,0.8796900119269059,0.0
794,794,0.6281141813951436,0.6,0,409.0,548.0,0.0,773.0,1,0.16539071618389822,0.0
795,795,-0.4651228036846542,-0.5,1,441.0,759.0,1.0,370.0,1,0.6569667676124584,0.0
796,796,-0.8050362266351547,-0.8,1,257.0,534.0,1.0,469.0,1,0.18632378752933004,0.0
797,797,0.9400033125434681,0.9,0,320.0,892.0,0.0,158.0,1,0.85128159658518,0.0
798,798,0.6093600627532998,0.6,0,492.0,523.0,0.0,255.0,1,0.7471498692309504,0.0
799,799,0.3179798505941449,0.3,0,285.0,618.0,0.0,297.0,1,0.9297244168067057,0.0
800,800,0.6079981634276943,0.6,0,362.0,515.0,0.0,253.0,1,0.6705754151451341,0.0
801,801,-0.6995205839403844,-0.7,1,374.0,963.0,1.0,323.0,1,0.5886819857228313,0.0
802,802,-0.35634935847561633,-0.4,1,423.0,836.0,1.0,311.0,1,0.9177188175831356,0.0
803,803,-0.80209544911513,-0.8,1,308.0,607.0,1.0,255.0,1,0.8207122023551106,0.0
804,804,-0.4877932182435172,-0.5,1,439.0,787.0,1.0,814.0,1,0.14573845046190256,0.0
805,805,0.05808669811263156,0.1,0,437.0,757.0,1.0,1466.0,0,0.23544173792313952,0.0
806,806,-0.0218058851318097,-0.0,1,357.0,574.0,1.0,879.0,1,0.8362356064773611,0.0
807,807,0.5252761940721558,0.5,0,393.0,808.0,0.0,399.0,1,0.5562418379305211,0.0
808,808,-0.7085536493546236,-0.7,1,338.0,507.0,1.0,205.0,1,0.5136323012594325,0.0
809,809,-0.08433472659103369,-0.1,1,325.0,586.0,1.0,559.0,1,0.7267103496400615,0.0
810,810,-0.5039162148313168,-0.5,1,291.0,607.0,1.0,222.0,1,0.665795182522386,0.0
811,811,0.5532053039432849,0.6,0,441.0,967.0,0.0,272.0,1,0.996326960703661,0.0
812,812,0.3953709089050239,0.4,0,255.0,572.0,0.0,1103.0,1,0.6955297045679982,0.0
813,813,-0.45234440910089235,-0.5,1,325.0,773.0,1.0,622.0,1,0.25387528217800265,0.0
814,814,-0.947658360527962,-0.9,1,281.0,746.0,1.0,223.0,1,0.5447635747123251,0.0
815,815,-0.47780970356994534,-0.5,1,376.0,707.0,1.0,727.0,1,0.2214335208347155,0.0
816,816,0.021712432924055225,0.0,0,300.0,551.0,1.0,1289.0,0,0.5877021635366686,0.0
817,817,0.267448565418412,0.3,0,350.0,814.0,0.0,706.0,1,0.9796414283612244,0.0
818,818,-0.8779494999882047,-0.9,1,495.0,923.0,1.0,372.0,1,0.1679827439792928,0.0
819,819,0.4554034465906087,0.5,0,396.0,577.0,0.0,277.0,1,0.6823854267399755,0.0
820,820,0.1552815286190874,0.2,0,393.0,931.0,0.0,546.0,1,0.37520833762121497,0.0
821,821,0.14247200730102416,0.1,0,281.0,847.0,0.0,262.0,1,0.7021087633342441,0.0
822,822,0.5262586887064609,0.5,0,350.0,854.0,0.0,346.0,1,0.5210587579851536,0.0
823,823,0.41780732168419776,0.4,0,293.0,809.0,0.0,1158.0,1,0.12530163483111487,0.0
824,824,0.5498367547101695,0.5,0,435.0,836.0,0.0,379.0,1,0.4108688211690906,0.0
825,825,-0.08985103255190907,-0.1,1,290.0,797.0,1.0,533.0,1,0.24460052583954167,0.0
826,826,0.02132959498827347,0.0,0,341.0,964.0,1.0,805.0,0,0.5081578135147193,0.0
827,827,-0.8208297749217159,-0.8,1,294.0,860.0,1.0,156.0,1,0.8154184550548764,0.0
828,828,-0.3299483337057849,-0.3,1,284.0,545.0,1.0,571.0,1,0.5367729451199367,0.0
829,829,0.7276359229813509,0.7,0,327.0,666.0,0.0,137.0,1,0.7855859490503602,0.0
830,830,-0.3370574793881651,-0.3,1,286.0,869.0,1.0,585.0,1,0.3961943187125413,0.0
831,831,-0.8154448451111997,-0.8,1,486.0,957.0,1.0,277.0,1,0.4626124370150908,0.0
832,832,-0.5063510502317983,-0.5,1,288.0,957.0,1.0,235.0,1,0.992656432413578,0.0
833,833,-0.3264582720362743,-0.3,1,498.0,546.0,1.0,646.0,1,0.18328219652886713,0.0
834,834,0.2639450312909506,0.3,0,372.0,500.0,0.0,928.0,1,0.540703129329302,0.0
835,835,0.17473223216587197,0.2,0,321.0,596.0,0.0,233.0,1,0.7640243277206041,0.0
836,836,0.8010880813911725,0.8,0,398.0,850.0,0.0,242.0,1,0.6600491078517149,0.0
837,837,-0.253723297447769,-0.3,1,326.0,946.0,1.0,338.0,1,0.8508044298103056,0.0
838,838,0.1643499510311699,0.2,0,471.0,704.0,0.0,1285.0,1,0.9376449122162969,0.0
839,839,-0.5965204455834017,-0.6,1,281.0,876.0,1.0,313.0,1,0.36087527084148807,0.0
840,840,0.2719300586811748,0.3,0,385.0,788.0,0.0,277.0,1,0.6185888399525038,0.0
841,841,0.4192908922859171,0.4,0,310.0,814.0,0.0,256.0,1,0.7776924395697504,0.0
842,842,0.599854075345202,0.6,0,446.0,992.0,0.0,802.0,1,0.2085022107564229,0.0
843,843,0.22968104066633832,0.2,0,315.0,678.0,0.0,487.0,1,0.450384174001742,0.0
844,844,-0.9928340048239421,-1.0,1,479.0,639.0,1.0,142.0,1,0.7450423718794856,0.0
845,845,0.8932288151114967,0.9,0,462.0,530.0,0.0,228.0,1,0.72026950491736,0.0
846,846,0.6101963256642491,0.6,0,337.0,974.0,0.0,509.0,1,0.5673971069445182,0.0
847,847,-0.0902231480143929,-0.1,1,399.0,635.0,1.0,1686.0,1,0.167947281940931,0.0
848,848,-0.32455022669856604,-0.3,1,316.0,624.0,1.0,430.0,1,0.28197938795988237,0.0
849,849,0.46122874562490046,0.5,0,454.0,952.0,0.0,804.0,1,0.170209059928849,0.0
850,850,0.5040758977558213,0.5,0,325.0,691.0,0.0,384.0,1,0.9623884453209522,0.0
851,851,0.8752743996001,0.9,0,343.0,925.0,0.0,222.0,1,0.7035971736168268,0.0
852,852,-0.20445069114889103,-0.2,1,257.0,782.0,1.0,541.0,1,0.3409713015908588,0.0
853,853,0.8466337646989757,0.8,0,486.0,712.0,0.0,612.0,1,0.16272218076733225,0.0
854,854,-0.39302123471005856,-0.4,1,433.0,777.0,1.0,390.0,1,0.39399373754214495,0.0
855,855,-0.9695373014165471,-1.0,1,299.0,617.0,1.0,184.0,1,0.7917980261216084,0.0
856,856,0.4038499668949811,0.4,0,269.0,940.0,0.0,411.0,1,0.3487796576514617,0.0
857,857,0.05402221922739092,0.1,0,434.0,852.0,1.0,384.0,0,0.7880158265152297,0.0
858,858,0.49892249877436456,0.5,0,276.0,674.0,0.0,190.0,1,0.8738097324733034,0.0
859,859,0.10790778613561947,0.1,0,279.0,730.0,1.0,181.0,0,0.7414753196219768,0.0
860,860,-0.1619591837257699,-0.2,1,329.0,537.0,1.0,1054.0,1,0.4343584667184016,0.0
861,861,0.6894512700512816,0.7,0,327.0,670.0,0.0,343.0,1,0.8419043771848468,0.0
862,862,0.87730894175245,0.9,0,457.0,957.0,0.0,286.0,1,0.49077141549225634,0.0
863,863,0.9613315835536782,1.0,0,336.0,721.0,0.0,193.0,1,0.490942687751007,0.0
864,864,0.21430219852797916,0.2,0,356.0,885.0,0.0,209.0,1,0.9201120319990763,0.0
865,865,0.2248845821819201,0.2,0,360.0,782.0,0.0,278.0,1,0.9551984006739145,0.0
866,866,0.9082421372978717,0.9,0,331.0,850.0,0.0,349.0,1,0.5831321202759682,0.0
867,867,0.26920289431586575,0.3,0,345.0,527.0,0.0,468.0,1,0.7150118011657534,0.0
868,868,-0.7727455933315426,-0.8,1,427.0,989.0,1.0,244.0,1,0.5718597865354452,0.0
869,869,-0.7667955981427221,-0.8,1,269.0,799.0,1.0,252.0,1,0.5411359395885178,0.0
870,870,-0.7354041111606633,-0.7,1,412.0,804.0,1.0,394.0,1,0.19103625147894993,0.0
871,871,-0.7666498464684304,-0.8,1,390.0,786.0,1.0,274.0,1,0.4507973314911613,0.0
872,872,-0.18072677311458185,-0.2,1,276.0,884.0,1.0,520.0,1,0.9208510055481871,0.0
873,873,0.6383834663110035,0.6,0,379.0,973.0,0.0,408.0,1,0.31188942110263085,0.0
874,874,-0.6917132845640073,-0.7,1,463.0,517.0,1.0,320.0,1,0.3323640407481331,0.0
875,875,-0.9042592857666707,-0.9,1,369.0,880.0,1.0,191.0,1,0.3891714646099166,0.0
876,876,0.7462123763789328,0.7,0,284.0,806.0,0.0,930.0,1,0.1474002765338715,0.0
877,877,0.6382214280310432,0.6,0,452.0,720.0,0.0,278.0,1,0.7776261421349712,0.0
878,878,-0.6311814674035194,-0.6,1,383.0,882.0,1.0,235.0,1,0.5294645339286573,0.0
879,879,-0.7703173068629448,-0.8,1,414.0,675.0,1.0,151.0,1,0.6672538134571315,0.0
880,880,-0.8572562233692318,-0.9,1,497.0,646.0,1.0,227.0,1,0.6225739923381561,0.0
881,881,-0.518423684168521,-0.5,1,489.0,769.0,1.0,222.0,1,0.7475375847722973,0.0
882,882,-0.16640468813048748,-0.2,1,434.0,836.0,1.0,700.0,1,0.5698828470941442,0.0
883,883,-0.5581965429155527,-0.6,1,345.0,925.0,1.0,260.0,1,0.6992338549786509,0.0
884,884,-0.6658318469944637,-0.7,1,479.0,943.0,1.0,168.0,1,0.6855213863131476,0.0
885,885,-0.517624460320474,-0.5,1,369.0,710.0,1.0,311.0,1,0.31566007229988696,0.0
886,886,-0.7910948976129728,-0.8,1,471.0,796.0,1.0,223.0,1,0.8543394351366249,0.0
887,887,0.15217831568505558,0.2,0,285.0,840.0,0.0,355.0,1,0.7563598747645011,0.0
888,888,0.32938358380802235,0.3,0,250.0,730.0,0.0,410.0,1,0.45873558137111403,0.0
889,889,-0.8386223487141209,-0.8,1,287.0,764.0,1.0,219.0,1,0.5897291745653471,0.0
890,890,0.5427875245874692,0.5,0,405.0,909.0,0.0,426.0,1,0.6863732499487223,0.0
891,891,0.26714077992205154,0.3,0,409.0,968.0,0.0,713.0,1,0.34577416388075255,0.0
892,892,0.01942283369885245,0.0,0,302.0,853.0,0.0,615.0,1,0.7261866448805981,0.0
893,893,-0.5432246597335442,-0.5,1,391.0,635.0,1.0,384.0,1,0.28008319969140805,0.0
894,894,0.8868528409945384,0.9,0,423.0,991.0,0.0,196.0,1,0.8683494749586929,0.0
895,895,0.8293720766378456,0.8,0,280.0,849.0,0.0,791.0,1,0.10987531628509586,0.0
896,896,-0.2653768179998308,-0.3,1,280.0,627.0,1.0,1063.0,1,0.224744634651538,0.0
897,897,0.5866717154573831,0.6,0,270.0,586.0,0.0,144.0,1,0.9998185825396869,0.0
898,898,0.6967101435596421,0.7,0,362.0,732.0,0.0,186.0,1,0.9263985461390356,0.0
899,899,0.17543944599569894,0.2,0,468.0,619.0,0.0,403.0,1,0.9167650852380714,0.0
900,900,-0.3044486507181212,-0.3,1,410.0,892.0,1.0,208.0,1,0.9548729211063703,0.0
901,901,-0.7646256573970267,-0.8,1,472.0,918.0,1.0,400.0,1,0.2517610411031506,0.0
902,902,-0.741898472496882,-0.7,1,380.0,877.0,1.0,233.0,1,0.4052533198794771,0.0
903,903,-0.9565123832284494,-1.0,1,402.0,603.0,1.0,565.0,1,0.12919533745911796,0.0
904,904,-0.8752102960863142,-0.9,1,411.0,937.0,1.0,592.0,1,0.21798006096954253,0.0
905,905,0.25995210732333596,0.3,0,363.0,597.0,0.0,450.0,1,0.2962242647548557,0.0
906,906,0.21026617810116965,0.2,0,324.0,655.0,0.0,1221.0,1,0.16507238828182702,0.0
907,907,0.6851842324036588,0.7,0,263.0,985.0,0.0,192.0,1,0.9070551593358038,0.0
908,908,0.4457347620903731,0.4,0,299.0,565.0,0.0,776.0,1,0.18505073934562716,0.0
909,909,0.6298054199766883,0.6,0,293.0,540.0,0.0,247.0,1,0.8716977332603884,0.0
910,910,0.018191693425213318,0.0,0,277.0,733.0,0.0,1170.0,1,0.5361070267011265,0.0
911,911,0.9665440924330042,1.0,0,380.0,849.0,0.0,201.0,1,0.6060134534482416,0.0
912,912,0.1899021508875769,0.2,0,253.0,531.0,0.0,506.0,1,0.8282295402714428,0.0
913,913,0.7684297972771916,0.8,0,262.0,734.0,0.0,254.0,1,0.40535930226456685,0.0
914,914,-0.787522528953374,-0.8,1,367.0,589.0,1.0,244.0,1,0.8916124883270465,0.0
915,915,0.4816807432679626,0.5,0,414.0,734.0,0.0,182.0,1,0.8938592661264702,0.0
916,916,0.050963123443065195,0.1,0,278.0,804.0,0.0,978.0,1,0.16130205908519007,0.0
917,917,-0.8014575330173113,-0.8,1,288.0,883.0,1.0,319.0,1,0.24840825158993543,0.0
918,918,-0.9251774106184898,-0.9,1,271.0,661.0,1.0,218.0,1,0.7255948745205459,0.0
919,919,0.3302664890273488,0.3,0,306.0,938.0,0.0,246.0,1,0.6922631980889872,0.0
920,920,0.4937568708676692,0.5,0,431.0,966.0,0.0,403.0,1,0.2609536317034925,0.0
921,921,-0.31319241504595263,-0.3,1,468.0,548.0,1.0,394.0,1,0.7919892054075967,0.0
922,922,-0.8028008541164668,-0.8,1,354.0,841.0,1.0,225.0,1,0.7307735828853567,0.0
923,923,0.19302376561055157,0.2,0,359.0,524.0,0.0,977.0,1,0.25441140006314245,0.0
924,924,-0.35179245969412953,-0.4,1,439.0,523.0,1.0,278.0,1,0.997291402504519,0.0
925,925,0.6859200174643394,0.7,0,453.0,637.0,0.0,330.0,1,0.57900097145673,0.0
926,926,-0.6099903341421902,-0.6,1,323.0,639.0,1.0,488.0,1,0.2829703682002074,0.0
927,927,0.4708337355978256,0.5,0,458.0,721.0,0.0,221.0,1,0.5619410789781635,0.0
928,928,-0.06942182369900651,-0.1,1,316.0,905.0,1.0,439.0,1,0.7073848072403484,0.0
929,929,0.8546227712088295,0.9,0,344.0,624.0,0.0,102.0,1,0.9104993922997086,0.0
930,930,0.7478929315180818,0.7,0,473.0,641.0,0.0,466.0,1,0.2795526903693212,0.0
931,931,-0.5110825387321807,-0.5,1,277.0,820.0,1.0,513.0,1,0.23897028424147143,0.0
932,932,0.1566638394130404,0.2,0,491.0,959.0,0.0,1180.0,1,0.3905753523609884,0.0
933,933,0.6940702643080223,0.7,0,305.0,857.0,0.0,418.0,1,0.35293734278959477,0.0
934,934,0.10350456634340577,0.1,0,333.0,999.0,0.0,548.0,1,0.5889365402879754,0.0
935,935,0.691156514928843,0.7,0,493.0,647.0,0.0,300.0,1,0.25839367583886486,0.0
936,936,-0.7919465205220082,-0.8,1,347.0,799.0,1.0,374.0,1,0.23620284094325975,0.0
937,937,0.10302096286815132,0.1,0,287.0,569.0,0.0,984.0,1,0.3575523512735014,0.0
938,938,0.1570411683719688,0.2,0,438.0,678.0,0.0,1354.0,1,0.46027946384146046,0.0
939,939,0.36582371115124324,0.4,0,397.0,620.0,0.0,363.0,1,0.7804478836461123,0.0
940,940,-0.5880693223206519,-0.6,1,392.0,767.0,1.0,171.0,1,0.8893928111979693,0.0
941,941,-0.6993604234554056,-0.7,1,442.0,613.0,1.0,365.0,1,0.42511683306980885,0.0
942,942,-0.5689848136224858,-0.6,1,403.0,898.0,1.0,469.0,1,0.24512819872132613,0.0
943,943,0.07458449919314947,0.1,0,279.0,750.0,0.0,531.0,1,0.9203478331341017,0.0
944,944,-0.4513440998794416,-0.5,1,464.0,794.0,1.0,322.0,1,0.81890046674442,0.0
945,945,0.534023955582672,0.5,0,363.0,878.0,0.0,509.0,1,0.2566142466056249,0.0
946,946,0.26292109614631265,0.3,0,419.0,843.0,0.0,318.0,1,0.43142350072239843,0.0
947,947,0.19630697366168626,0.2,0,269.0,949.0,0.0,602.0,1,0.5687902430202685,0.0
948,948,-0.20717581950034547,-0.2,1,347.0,611.0,1.0,302.0,1,0.5873897765835919,0.0
949,949,0.2045476705287015,0.2,0,472.0,702.0,0.0,1906.0,1,0.11400048213521255,0.0
950,950,-0.4273653869870646,-0.4,1,306.0,786.0,1.0,198.0,1,0.8286250249303508,0.0
951,951,-0.2022702822318021,-0.2,1,418.0,537.0,1.0,765.0,1,0.22262562922584211,0.0
952,952,-0.5425639679349534,-0.5,1,489.0,816.0,1.0,315.0,1,0.45279716632005995,0.0
953,953,-0.46521736152926096,-0.5,1,255.0,653.0,1.0,262.0,1,0.8748020021034669,0.0
954,954,0.4953193367746276,0.5,0,293.0,533.0,0.0,464.0,1,0.7687928623563682,0.0
955,955,0.3446394461038682,0.3,0,369.0,743.0,0.0,1208.0,1,0.324499783708173,0.0
956,956,0.31067338595161664,0.3,0,373.0,721.0,0.0,756.0,1,0.31162932405304133,0.0
957,957,0.386214501768255,0.4,0,321.0,547.0,0.0,592.0,1,0.2387509960046231,0.0
958,958,-0.9014386958740896,-0.9,1,358.0,511.0,1.0,571.0,1,0.13895721581420553,0.0
959,959,-0.30915457906869803,-0.3,1,252.0,542.0,1.0,216.0,1,0.4835576386856051,0.0
960,960,-0.22657209450046656,-0.2,1,435.0,548.0,0.0,487.0,0,0.8946902369729273,0.0
961,961,-0.8931870029963398,-0.9,1,407.0,736.0,1.0,187.0,1,0.9813262216185726,0.0
962,962,0.7415537575033229,0.7,0,385.0,515.0,0.0,300.0,1,0.395564318249526,0.0
963,963,-0.9088525755451968,-0.9,1,405.0,982.0,1.0,133.0,1,0.8915168253358751,0.0
964,964,-0.2541681210143223,-0.3,1,452.0,993.0,1.0,575.0,1,0.20621522977594986,0.0
965,965,0.46328699810641427,0.5,0,393.0,919.0,0.0,1188.0,1,0.33677951943777007,0.0
966,966,-0.005780034928346556,-0.0,1,362.0,615.0,1.0,553.0,1,0.937440300906734,0.0
967,967,-0.05316182716413276,-0.1,1,318.0,794.0,1.0,2208.0,1,0.19309555698821224,0.0
968,968,-0.13224055922878541,-0.1,1,470.0,803.0,1.0,1277.0,1,0.20848278916081087,0.0
969,969,0.2929520472697009,0.3,0,448.0,505.0,0.0,357.0,1,0.906890596529427,0.0
970,970,0.4591278326310011,0.5,0,488.0,892.0,0.0,420.0,1,0.7165526321983414,0.0
971,971,0.32505916919201705,0.3,0,457.0,910.0,0.0,593.0,1,0.43888539863621867,0.0
972,972,0.3557624848982379,0.4,0,499.0,657.0,0.0,234.0,1,0.9884534185618854,0.0
973,973,0.04292081653004298,0.0,0,324.0,778.0,0.0,508.0,1,0.7491787801688214,0.0
974,974,0.6893006117171938,0.7,0,286.0,569.0,0.0,975.0,1,0.10000171465805505,0.0
975,975,-0.5666324208309093,-0.6,1,313.0,769.0,1.0,408.0,1,0.21426537428090325,0.0
976,976,-0.12086801110827183,-0.1,1,389.0,668.0,1.0,353.0,1,0.7294279358408469,0.0
977,977,-0.26378225388052146,-0.3,1,490.0,547.0,1.0,993.0,1,0.11100035841668665,0.0
978,978,0.4490012511348904,0.4,0,321.0,562.0,0.0,337.0,1,0.6883779729487859,0.0
979,979,0.589627398494472,0.6,0,308.0,527.0,0.0,445.0,1,0.5865390479894073,0.0
980,980,-0.9480210182753697,-0.9,1,409.0,649.0,1.0,372.0,1,0.20881700526677308,0.0
981,981,-0.2933761410282365,-0.3,1,362.0,697.0,1.0,581.0,1,0.6981323209122873,0.0
982,982,-0.04964632933854585,-0.0,1,411.0,555.0,0.0,1164.0,0,0.5910698053682338,0.0
983,983,-0.8234751871041832,-0.8,1,272.0,892.0,1.0,186.0,1,0.8350114164497581,0.0
984,984,0.9664429307557758,1.0,0,309.0,751.0,0.0,230.0,1,0.8298102070402025,0.0
985,985,-0.1904455174633768,-0.2,1,259.0,518.0,1.0,823.0,1,0.3194327652939355,0.0
986,986,0.16097324610798514,0.2,0,437.0,949.0,0.0,824.0,1,0.4896097451076368,0.0
987,987,-0.5300698365825416,-0.5,1,461.0,525.0,1.0,314.0,1,0.34346471659229877,0.0
988,988,-0.0312886324358701,-0.0,1,416.0,698.0,1.0,826.0,1,0.7114825396441621,0.0
989,989,0.1286465630421163,0.1,0,466.0,532.0,0.0,1762.0,1,0.26967297987690847,0.0
990,990,-0.3753959669315208,-0.4,1,258.0,713.0,1.0,259.0,1,0.8387362667539108,0.0
991,991,-0.45264613875282955,-0.5,1,252.0,871.0,1.0,157.0,1,0.9191364051223718,0.0
992,992,0.9846628885674524,1.0,0,449.0,648.0,0.0,363.0,1,0.5437862759211771,0.0
993,993,-0.6099685909884587,-0.6,1,304.0,649.0,1.0,777.0,1,0.10407371269761344,0.0
994,994,-0.8029816076523324,-0.8,1,433.0,821.0,1.0,256.0,1,0.736489119215831,0.0
995,995,0.24592227666448685,0.2,0,384.0,812.0,0.0,354.0,1,0.5995007062074508,0.0
996,996,0.5746858040713696,0.6,0,474.0,979.0,0.0,167.0,1,0.9737097431647855,0.0
997,997,-0.18215159487202492,-0.2,1,393.0,595.0,1.0,612.0,1,0.27886666282034733,0.0
998,998,-0.9481387067288298,-0.9,1,431.0,834.0,1.0,145.0,1,0.5929927915293427,0.0
999,999,0.6734403986761703,0.7,0,309.0,850.0,0.0,501.0,1,0.2207790642970225,0.0
1000,1000,0.6180926236797577,0.6,0,344.0,809.0,0.0,457.0,1,0.3747760898477692,0.0
1001,1001,-0.35152042221106683,-0.4,1,343.0,916.0,1.0,511.0,1,0.37671486358653516,0.0
1002,1002,0.9675625359158557,1.0,0,497.0,873.0,0.0,670.0,1,0.14829529616298429,0.0
1003,1003,-0.010637660879786015,-0.0,1,426.0,817.0,1.0,227.0,1,0.9875130998816389,0.0
1004,1004,0.3092514765267751,0.3,0,322.0,571.0,0.0,877.0,1,0.213552859237574,0.0
1005,1005,-0.3493758405591525,-0.3,1,472.0,985.0,1.0,463.0,1,0.3461955796544463,0.0
1006,1006,-0.3925625874782934,-0.4,1,268.0,743.0,1.0,429.0,1,0.6928294854392401,0.0
1007,1007,-0.17963836868011818,-0.2,1,435.0,979.0,1.0,1046.0,1,0.28305919845728333,0.0
1008,1008,0.733278859521471,0.7,0,475.0,979.0,0.0,156.0,1,0.9465016466749503,0.0
1009,1009,0.6183327414778979,0.6,0,322.0,668.0,0.0,600.0,1,0.1747164951459807,0.0
1010,1010,-0.17828278462775504,-0.2,1,386.0,948.0,1.0,566.0,1,0.54726048561003,0.0
1011,1011,-0.3264576975372848,-0.3,1,334.0,949.0,1.0,497.0,1,0.30066040464122684,0.0
1012,1012,-0.5508718375633292,-0.6,1,459.0,500.0,1.0,181.0,1,0.8996803019649261,0.0
1013,1013,-0.7332894078274841,-0.7,1,384.0,951.0,1.0,235.0,1,0.6078520275620947,0.0
1014,1014,-0.6634538940192036,-0.7,1,345.0,657.0,1.0,308.0,1,0.3759698336337891,0.0
1015,1015,-0.6687914295130604,-0.7,1,320.0,766.0,1.0,324.0,1,0.3853833733279216,0.0
1016,1016,-0.6219375999558248,-0.6,1,428.0,846.0,1.0,176.0,1,0.4642944793095174,0.0
1017,1017,0.5730558755825217,0.6,0,392.0,663.0,0.0,335.0,1,0.4048375916807724,0.0
1018,1018,0.5038783658663433,0.5,0,421.0,855.0,0.0,494.0,1,0.28940586014838704,0.0
1019,1019,-0.5806678708064352,-0.6,1,400.0,730.0,1.0,300.0,1,0.5411925746821726,0.0
1020,1020,-0.39750527966244964,-0.4,1,305.0,884.0,1.0,411.0,1,0.3476165808661254,0.0
1021,1021,-0.4382965759330806,-0.4,1,254.0,669.0,1.0,487.0,1,0.46170297493522483,0.0
1022,1022,-0.41885247294390004,-0.4,1,353.0,992.0,1.0,275.0,1,0.9358316781306864,0.0
1023,1023,-0.10520108379702942,-0.1,1,375.0,767.0,1.0,1338.0,1,0.19749811078216709,0.0
1024,1024,-0.7088883917855067,-0.7,1,322.0,950.0,1.0,398.0,1,0.19385626188259836,0.0
1025,1025,-0.5126176713470052,-0.5,1,471.0,927.0,1.0,202.0,1,0.906523375121309,0.0
1026,1026,0.11575806791004561,0.1,0,440.0,780.0,0.0,3780.0,1,0.10956644658134553,0.0
1027,1027,0.0006930712389541238,0.0,0,457.0,911.0,0.0,562.0,1,0.5708266450856403,0.0
1028,1028,-0.7362814925590322,-0.7,1,405.0,842.0,1.0,183.0,1,0.9106095382927889,0.0
1029,1029,-0.5250278275298443,-0.5,1,326.0,769.0,1.0,615.0,1,0.16388602910617694,0.0
1030,1030,-0.5859691378609222,-0.6,1,369.0,543.0,1.0,288.0,1,0.6972981398504359,0.0
1031,1031,-0.49282882034941866,-0.5,1,350.0,600.0,1.0,360.0,1,0.3716575882395543,0.0
1032,1032,-0.1313164250229919,-0.1,1,417.0,525.0,1.0,718.0,1,0.21206368063801329,0.0
1033,1033,-0.6093593773268053,-0.6,1,312.0,689.0,1.0,209.0,1,0.7672788037525518,0.0
1034,1034,-0.4304959149796965,-0.4,1,441.0,555.0,1.0,204.0,1,0.9424636606575149,0.0
1035,1035,0.09241658844122203,0.1,0,386.0,630.0,0.0,1024.0,1,0.42732982424647825,0.0
1036,1036,-0.47596475793525284,-0.5,1,364.0,505.0,1.0,571.0,1,0.659992217279891,0.0
1037,1037,-0.9618316912464899,-1.0,1,276.0,666.0,1.0,258.0,1,0.5733449012222147,0.0
1038,1038,-0.127700271995975,-0.1,1,415.0,954.0,1.0,701.0,1,0.8050021598886297,0.0
1039,1039,-0.34083725233542883,-0.3,1,485.0,942.0,1.0,403.0,1,0.5150011248723756,0.0
1040,1040,-0.5155013764864997,-0.5,1,481.0,894.0,1.0,575.0,1,0.2718964631891183,0.0
1041,1041,0.8047603650356743,0.8,0,304.0,924.0,0.0,152.0,1,0.8337030038078372,0.0
1042,1042,0.3941303367781681,0.4,0,262.0,916.0,0.0,502.0,1,0.4536927639264864,0.0
1043,1043,-0.1444266475133864,-0.1,1,293.0,652.0,1.0,1035.0,1,0.7461879076373856,0.0
1044,1044,-0.36579997610947546,-0.4,1,341.0,569.0,1.0,390.0,1,0.6587900956505218,0.0
1045,1045,-0.2026771803004137,-0.2,1,301.0,805.0,1.0,334.0,1,0.7434522887459221,0.0
1046,1046,-0.8764341029570766,-0.9,1,466.0,975.0,1.0,239.0,1,0.6775907742809711,0.0
1047,1047,-0.9652299653249052,-1.0,1,378.0,538.0,1.0,164.0,1,0.47913307718809106,0.0
1048,1048,0.9391747118875147,0.9,0,395.0,745.0,0.0,320.0,1,0.3504329765808223,0.0
1049,1049,-0.44254488530518477,-0.4,1,385.0,655.0,1.0,290.0,1,0.808687434790875,0.0
1050,1050,-0.08929056305779492,-0.1,1,474.0,694.0,1.0,512.0,1,0.8349181481222017,0.0
1051,1051,0.018636041394498815,0.0,0,314.0,772.0,0.0,3914.0,1,0.1192167526153883,0.0
1052,1052,0.11100269274105878,0.1,0,496.0,670.0,0.0,564.0,1,0.8693355075558059,0.0
1053,1053,0.805274300439438,0.8,0,277.0,848.0,0.0,435.0,1,0.1607946942137642,0.0
1054,1054,-0.15354452844005095,-0.2,1,328.0,702.0,1.0,410.0,1,0.3626382853513884,0.0
1055,1055,-0.41503927440543276,-0.4,1,420.0,718.0,1.0,332.0,1,0.3640643845600434,0.0
1056,1056,-0.07099340097760898,-0.1,1,326.0,511.0,0.0,993.0,0,0.5375480475524925,0.0
1057,1057,-0.9882835870214774,-1.0,1,463.0,589.0,1.0,128.0,1,0.9090984439913304,0.0
1058,1058,-0.39781747612314566,-0.4,1,296.0,754.0,1.0,810.0,1,0.30871958615746975,0.0
1059,1059,-0.7098213332857066,-0.7,1,426.0,785.0,1.0,229.0,1,0.4259441122857798,0.0
1060,1060,-0.19001789258580737,-0.2,1,402.0,534.0,1.0,764.0,1,0.27052821736139215,0.0
1061,1061,-0.2950845404848579,-0.3,1,418.0,863.0,1.0,429.0,1,0.9385311586596935,0.0
1062,1062,-0.8646253153355843,-0.9,1,255.0,757.0,1.0,218.0,1,0.8632874931123162,0.0
1063,1063,-0.4838235576267784,-0.5,1,348.0,951.0,1.0,191.0,1,0.5124075753188975,0.0
1064,1064,0.1913950535601019,0.2,0,375.0,892.0,1.0,913.0,0,0.7723605907153691,0.0
1065,1065,-0.41509512308951013,-0.4,1,398.0,596.0,1.0,216.0,1,0.9604416916902366,0.0
1066,1066,0.1346341091313803,0.1,0,418.0,544.0,0.0,978.0,1,0.6163282615914222,0.0
1067,1067,0.9371077061548936,0.9,0,479.0,812.0,0.0,269.0,1,0.588945072766876,0.0
1068,1068,0.3808250266677218,0.4,0,288.0,810.0,0.0,662.0,1,0.15912020316448017,0.0
1069,1069,-0.5709302198256534,-0.6,1,484.0,608.0,1.0,818.0,1,0.10204465029053922,0.0
1070,1070,0.25215967142111695,0.3,0,365.0,538.0,0.0,317.0,1,0.8963245877051209,0.0
1071,1071,0.8434617261532897,0.8,0,310.0,849.0,0.0,341.0,1,0.3323792703568672,0.0
1072,1072,0.6456093616611616,0.6,0,373.0,738.0,0.0,399.0,1,0.26705918204644763,0.0
1073,1073,0.21169140836037958,0.2,0,264.0,991.0,0.0,715.0,1,0.33396180712029216,0.0
1074,1074,0.6961267681622769,0.7,0,335.0,866.0,0.0,209.0,1,0.7286946916012432,0.0
1075,1075,0.8229759381108748,0.8,0,271.0,639.0,0.0,710.0,1,0.15060785460590495,0.0
1076,1076,-0.9483396500078349,-0.9,1,378.0,758.0,1.0,194.0,1,0.686327983873965,0.0
1077,1077,0.6969713403583839,0.7,0,416.0,769.0,0.0,335.0,1,0.3096923440887806,0.0
1078,1078,0.10407654574223812,0.1,0,425.0,767.0,1.0,908.0,0,0.524802617001949,0.0
1079,1079,-0.5848232346417506,-0.6,1,470.0,766.0,1.0,364.0,1,0.3053414829901183,0.0
1080,1080,0.5598822629505538,0.6,0,377.0,642.0,0.0,271.0,1,0.48442000304897237,0.0
1081,1081,0.93320658979326,0.9,0,493.0,643.0,0.0,544.0,1,0.16434108400005937,0.0
1082,1082,0.4035024627300212,0.4,0,286.0,894.0,0.0,380.0,1,0.506943281848836,0.0
1083,1083,0.5861333726124669,0.6,0,326.0,588.0,0.0,256.0,1,0.8066040314968684,0.0
1084,1084,0.9044947567746011,0.9,0,299.0,700.0,0.0,171.0,1,0.5562441638813329,0.0
1085,1085,-0.6969049282398398,-0.7,1,490.0,718.0,1.0,372.0,1,0.20108984309020206,0.0
1086,1086,0.5618864042187435,0.6,0,342.0,911.0,0.0,567.0,1,0.2791546790189372,0.0
1087,1087,-0.9187905223661841,-0.9,1,486.0,931.0,1.0,383.0,1,0.17020747034440484,0.0
1088,1088,0.7502798152247085,0.8,0,413.0,783.0,0.0,224.0,1,0.5750307268867192,0.0
1089,1089,-0.016611221133354892,-0.0,1,306.0,589.0,0.0,565.0,0,0.6813168451675785,0.0
1090,1090,-0.7571032257316392,-0.8,1,449.0,653.0,1.0,198.0,1,0.8087626212981366,0.0
1091,1091,0.3635095938299566,0.4,0,349.0,644.0,0.0,1027.0,1,0.20202852784672817,0.0
1092,1092,-0.3304066071449143,-0.3,1,360.0,686.0,1.0,774.0,1,0.2985126423480894,0.0
1093,1093,0.4076073472729873,0.4,0,491.0,859.0,0.0,190.0,1,0.9577131078698083,0.0
1094,1094,0.18445016637880807,0.2,0,273.0,930.0,0.0,567.0,1,0.45989605972793135,0.0
1095,1095,0.5901343635317386,0.6,0,361.0,630.0,0.0,289.0,1,0.8142412752078845,0.0
1096,1096,0.9245323132800085,0.9,0,349.0,931.0,0.0,260.0,1,0.5080377471079934,0.0
1097,1097,0.06658634161263155,0.1,0,456.0,847.0,1.0,887.0,0,0.7348248752332607,0.0
1098,1098,0.9001611590631864,0.9,0,458.0,798.0,0.0,234.0,1,0.6582100216002484,0.0
1099,1099,-0.3593561904326472,-0.4,1,348.0,779.0,1.0,883.0,1,0.11240072208521423,0.0
1100,1100,0.16884667921613228,0.2,0,451.0,722.0,0.0,1497.0,1,0.41053000378519644,0.0
1101,1101,-0.38286643104460305,-0.4,1,320.0,714.0,1.0,1086.0,1,0.1738626669383565,0.0
1102,1102,-0.8371199108918246,-0.8,1,354.0,679.0,1.0,447.0,1,0.2662122466881284,0.0
1103,1103,-0.9695193134245794,-1.0,1,293.0,807.0,1.0,240.0,1,0.38627609301591326,0.0
1104,1104,0.3759796016655832,0.4,0,381.0,755.0,0.0,914.0,1,0.13261625479489894,0.0
1105,1105,0.7776467998192502,0.8,0,411.0,800.0,0.0,349.0,1,0.2871598250609066,0.0
1106,1106,-0.11280794590109977,-0.1,1,322.0,919.0,1.0,639.0,1,0.7892317487226261,0.0
1107,1107,0.29325021167388887,0.3,0,496.0,523.0,0.0,501.0,1,0.6754331488815126,0.0
1108,1108,-0.2206024639075097,-0.2,1,495.0,671.0,1.0,824.0,1,0.24813115593112473,0.0
1109,1109,0.2933407308212328,0.3,0,421.0,941.0,0.0,508.0,1,0.5284195131704634,0.0
1110,1110,-0.25811026853529473,-0.3,1,273.0,562.0,1.0,785.0,1,0.2957140552658014,0.0
1111,1111,-0.05226597908231034,-0.1,1,345.0,526.0,0.0,639.0,0,0.65781974072538,0.0
1112,1112,-0.4493382163321946,-0.4,1,390.0,901.0,1.0,529.0,1,0.22232885664203894,0.0
1113,1113,0.19753730729109642,0.2,0,358.0,934.0,0.0,718.0,1,0.24051393704592952,0.0
1114,1114,0.9096388417355024,0.9,0,456.0,736.0,0.0,338.0,1,0.619099941802572,0.0
1115,1115,-0.19647852485535178,-0.2,1,400.0,909.0,1.0,1041.0,1,0.2368359723345757,0.0
1116,1116,-0.9342442804590847,-0.9,1,450.0,721.0,1.0,279.0,1,0.6092125535600743,0.0
1117,1117,-0.2552619830943843,-0.3,1,412.0,852.0,1.0,526.0,1,0.5425509163905279,0.0
1118,1118,0.4248779366565223,0.4,0,323.0,958.0,0.0,489.0,1,0.8442450299222809,0.0
1119,1119,0.14310013814108902,0.1,0,269.0,790.0,0.0,821.0,1,0.2357766532430383,0.0
1120,1120,0.29555419093863833,0.3,0,268.0,883.0,0.0,919.0,1,0.20433948265861518,0.0
1121,1121,-0.706332272788533,-0.7,1,409.0,813.0,1.0,178.0,1,0.4685244161381764,0.0
1122,1122,0.27943930311930365,0.3,0,411.0,726.0,0.0,293.0,1,0.7522702202192443,0.0
1123,1123,-0.34241964245807455,-0.3,1,270.0,809.0,1.0,471.0,1,0.360694672463719,0.0
1124,1124,-0.9817207573556499,-1.0,1,296.0,668.0,1.0,186.0,1,0.667970191541983,0.0
1125,1125,-0.16474606062888908,-0.2,1,488.0,936.0,1.0,896.0,1,0.6287424878517881,0.0
1126,1126,-0.1595905575256955,-0.2,1,493.0,946.0,1.0,931.0,1,0.3567862439811985,0.0
1127,1127,-0.6301211971561622,-0.6,1,304.0,740.0,1.0,276.0,1,0.9570766081293522,0.0
1128,1128,0.6536237337765072,0.7,0,313.0,945.0,0.0,292.0,1,0.6766461479899052,0.0
1129,1129,0.7265899110799237,0.7,0,405.0,800.0,0.0,225.0,1,0.6821346298479353,0.0
1130,1130,-0.0759522991941175,-0.1,1,484.0,842.0,1.0,774.0,1,0.9875270539752965,0.0
1131,1131,0.8249573080378836,0.8,0,313.0,975.0,0.0,452.0,1,0.5360386979169212,0.0
1132,1132,-0.10493268401775846,-0.1,1,322.0,512.0,1.0,636.0,1,0.6656059234017819,0.0
1133,1133,0.36011659065339185,0.4,0,447.0,756.0,0.0,377.0,1,0.6573262636862788,0.0
1134,1134,0.2452720876844976,0.2,0,432.0,645.0,0.0,973.0,1,0.27272624132025725,0.0
1135,1135,0.920363944085111,0.9,0,419.0,888.0,0.0,413.0,1,0.2672901647622432,0.0
1136,1136,0.8556385395460844,0.9,0,427.0,987.0,0.0,246.0,1,0.5459435838118468,0.0
1137,1137,-0.37100305297911484,-0.4,1,272.0,585.0,1.0,713.0,1,0.14526765330784933,0.0
1138,1138,0.7879912111939926,0.8,0,263.0,566.0,0.0,321.0,1,0.5842399077774215,0.0
1139,1139,0.6119979517535343,0.6,0,296.0,754.0,0.0,210.0,1,0.7070300521685012,0.0
1140,1140,0.28213163780009753,0.3,0,378.0,981.0,0.0,291.0,1,0.8320468358551301,0.0
1141,1141,-0.45934045732605466,-0.5,1,383.0,600.0,1.0,277.0,1,0.8160955120485969,0.0
1142,1142,0.5521342861882219,0.6,0,462.0,538.0,0.0,380.0,1,0.9428894539304005,0.0
1143,1143,-0.8577870595619894,-0.9,1,443.0,744.0,1.0,223.0,1,0.6434875912205317,0.0
1144,1144,0.49400848838110445,0.5,0,478.0,823.0,0.0,359.0,1,0.3022492463850257,0.0
1145,1145,-0.6549075122696473,-0.7,1,388.0,805.0,1.0,367.0,1,0.7335083078701141,0.0
1146,1146,0.1681215514794423,0.2,0,442.0,721.0,0.0,857.0,1,0.7819288805933313,0.0
1147,1147,-0.3016472186520278,-0.3,1,417.0,521.0,1.0,562.0,1,0.28198693138218317,0.0
1148,1148,-0.19484300831403756,-0.2,1,395.0,844.0,1.0,381.0,1,0.4136182327668253,0.0
1149,1149,-0.7897451788225713,-0.8,1,374.0,699.0,1.0,217.0,1,0.6206699330267945,0.0
1150,1150,-0.09137817140143789,-0.1,1,345.0,693.0,1.0,1292.0,1,0.15890802513105978,0.0
1151,1151,0.8538498805687809,0.9,0,460.0,861.0,0.0,329.0,1,0.5209357873237481,0.0
1152,1152,-0.4799536535957454,-0.5,1,257.0,715.0,1.0,218.0,1,0.9575046213335869,0.0
1153,1153,0.8394613475397783,0.8,0,418.0,821.0,0.0,781.0,1,0.156885088486119,0.0
1154,1154,-0.3314928636174659,-0.3,1,446.0,632.0,1.0,172.0,1,0.817868418986516,0.0
1155,1155,-0.24956758582061367,-0.2,1,324.0,958.0,1.0,568.0,1,0.6214610893074679,0.0
1156,1156,-0.8424515856131898,-0.8,1,488.0,864.0,1.0,488.0,1,0.14727762985135634,0.0
1157,1157,-0.1048437409783951,-0.1,1,451.0,727.0,1.0,302.0,1,0.5939053327541923,0.0
1158,1158,-0.8802767366760698,-0.9,1,469.0,617.0,1.0,584.0,1,0.12916014518127839,0.0
1159,1159,0.29816928742906734,0.3,0,489.0,560.0,0.0,491.0,1,0.6783627033634573,0.0
1160,1160,-0.5268515730075796,-0.5,1,283.0,527.0,1.0,560.0,1,0.21687883997231092,0.0
1161,1161,-0.2253098759679455,-0.2,1,427.0,715.0,1.0,1438.0,1,0.10186181629825469,0.0
1162,1162,-0.3614366420052,-0.4,1,281.0,827.0,1.0,212.0,1,0.8887384599973397,0.0
1163,1163,-0.09050972814478597,-0.1,1,389.0,900.0,1.0,891.0,1,0.6287127467783568,0.0
1164,1164,-0.10858131239102553,-0.1,1,319.0,533.0,1.0,468.0,1,0.7244205455172018,0.0
1165,1165,-0.11525689172430131,-0.1,1,453.0,711.0,1.0,806.0,1,0.7539267111762522,0.0
1166,1166,-0.5068321029470442,-0.5,1,253.0,878.0,1.0,809.0,1,0.26217958444595507,0.0
1167,1167,-0.8156859189882375,-0.8,1,406.0,737.0,1.0,197.0,1,0.5583723979998907,0.0
1168,1168,-0.7501474597334945,-0.8,1,487.0,940.0,1.0,373.0,1,0.24360277057752772,0.0
1169,1169,0.8328657091845593,0.8,0,378.0,893.0,0.0,209.0,1,0.9230045360011687,0.0
1170,1170,0.5048168188994397,0.5,0,276.0,677.0,0.0,197.0,1,0.5166776567171851,0.0
1171,1171,-0.8293881284385156,-0.8,1,387.0,941.0,1.0,642.0,1,0.1049849717203115,0.0
1172,1172,0.3281058959163541,0.3,0,274.0,773.0,0.0,143.0,1,0.6744165366511147,0.0
1173,1173,0.06312335304711492,0.1,0,282.0,805.0,0.0,413.0,1,0.6547697530608169,0.0
1174,1174,-0.9104274559949697,-0.9,1,442.0,659.0,1.0,239.0,1,0.9882139762532474,0.0
1175,1175,-0.1838624868045251,-0.2,1,293.0,817.0,1.0,800.0,1,0.2628416866503601,0.0
1176,1176,0.20172376619701726,0.2,0,342.0,667.0,0.0,811.0,1,0.25421413143756405,0.0
1177,1177,-0.7331529811244255,-0.7,1,371.0,889.0,1.0,190.0,1,0.9150001439089399,0.0
1178,1178,-0.6490506431901133,-0.6,1,441.0,657.0,1.0,212.0,1,0.7923133177551183,0.0
1179,1179,-0.08691906475402145,-0.1,1,272.0,706.0,0.0,352.0,0,0.9232488726637613,0.0
1180,1180,0.9529865738381331,1.0,0,252.0,668.0,0.0,150.0,1,0.9515028482176803,0.0
1181,1181,-0.6092696584421253,-0.6,1,282.0,515.0,1.0,233.0,1,0.46840374617694425,0.0
1182,1182,0.8352669178077619,0.8,0,429.0,917.0,0.0,194.0,1,0.6676080046727557,0.0
1183,1183,-0.9884311021006558,-1.0,1,448.0,795.0,1.0,227.0,1,0.8656719771260665,0.0
1184,1184,0.35137308952426705,0.4,0,451.0,792.0,0.0,1437.0,1,0.12483221111814628,0.0
1185,1185,-0.4726582607368437,-0.5,1,327.0,628.0,1.0,325.0,1,0.2981642785972872,0.0
1186,1186,0.8344453544414399,0.8,0,472.0,621.0,0.0,167.0,1,0.5520848974739584,0.0
1187,1187,-0.7737361032136678,-0.8,1,372.0,665.0,1.0,513.0,1,0.14009094148368129,0.0
1188,1188,0.3162635051010334,0.3,0,359.0,894.0,0.0,537.0,1,0.5625107134771824,0.0
1189,1189,0.4532846336739458,0.5,0,289.0,823.0,0.0,298.0,1,0.4095515118564671,0.0
1190,1190,-0.7669623592420236,-0.8,1,409.0,804.0,1.0,317.0,1,0.25306519166546276,0.0
1191,1191,0.4791737472403117,0.5,0,489.0,859.0,0.0,342.0,1,0.7267311142991735,0.0
1192,1192,-0.4360442503951174,-0.4,1,382.0,523.0,1.0,605.0,1,0.29762519951561567,0.0
1193,1193,-0.24025152682305273,-0.2,1,412.0,607.0,1.0,381.0,1,0.3533761003190191,0.0
1194,1194,0.29478494469623295,0.3,0,326.0,571.0,0.0,833.0,1,0.18603018564844437,0.0
1195,1195,-0.5898844389970879,-0.6,1,433.0,702.0,1.0,245.0,1,0.7418287874710195,0.0
1196,1196,-0.13026411772083146,-0.1,1,356.0,502.0,1.0,622.0,1,0.5394318241936037,0.0
1197,1197,-0.38188112815737507,-0.4,1,379.0,989.0,1.0,372.0,1,0.3477531537941374,0.0
1198,1198,-0.9451252713240579,-0.9,1,370.0,988.0,1.0,332.0,1,0.3184238513751301,0.0
1199,1199,0.05513444067542639,0.1,0,423.0,679.0,0.0,838.0,1,0.1880893614706059,0.0
1200,1200,0.6807384258821643,0.7,0,290.0,915.0,0.0,265.0,1,0.7782296591722083,0.0
1201,1201,-0.4349212947426524,-0.4,1,415.0,543.0,1.0,172.0,1,0.9064197990563729,0.0
1202,1202,-0.5302322347573283,-0.5,1,362.0,559.0,1.0,779.0,1,0.13268367539495235,0.0
1203,1203,0.9380132167754363,0.9,0,255.0,793.0,0.0,172.0,1,0.6455372841983253,0.0
1204,1204,0.4607975036005867,0.5,0,385.0,945.0,0.0,180.0,1,0.9101048351745236,0.0
1205,1205,0.5215689421728966,0.5,0,428.0,817.0,0.0,575.0,1,0.1926756103114206,0.0
1206,1206,0.143613526362933,0.1,0,438.0,578.0,1.0,2014.0,0,0.318313198956155,0.0
1207,1207,0.26373500965173347,0.3,0,372.0,959.0,0.0,319.0,1,0.5200580549424468,0.0
1208,1208,0.2607419987258386,0.3,0,300.0,748.0,0.0,442.0,1,0.8800926645336706,0.0
1209,1209,-0.5983729924719454,-0.6,1,480.0,605.0,1.0,345.0,1,0.698579358811446,0.0
1210,1210,-0.9923605339644161,-1.0,1,269.0,674.0,1.0,267.0,1,0.4843127091980075,0.0
1211,1211,0.14813287951936682,0.1,0,352.0,852.0,1.0,1086.0,0,0.5311170917687921,0.0
1212,1212,-0.06440044269058776,-0.1,1,419.0,946.0,1.0,715.0,1,0.8802905491343128,0.0
1213,1213,-0.2607576004161618,-0.3,1,483.0,638.0,1.0,859.0,1,0.2539726160193022,0.0
1214,1214,-0.7114520976156782,-0.7,1,268.0,738.0,1.0,314.0,1,0.426993901098608,0.0
1215,1215,-0.6801007337820486,-0.7,1,303.0,862.0,1.0,265.0,1,0.48722582474138443,0.0
1216,1216,0.788219456017283,0.8,0,314.0,962.0,0.0,234.0,1,0.6491541103699952,0.0
1217,1217,-0.21295923503428038,-0.2,1,437.0,961.0,1.0,462.0,1,0.5615707176879353,0.0
1218,1218,0.42648284414308346,0.4,0,298.0,644.0,0.0,588.0,1,0.2318097798757091,0.0
1219,1219,0.5577059420622588,0.6,0,437.0,509.0,0.0,314.0,1,0.7119361681348836,0.0
1220,1220,-0.11903263945624976,-0.1,1,363.0,678.0,1.0,349.0,1,0.7024705772484924,0.0
