,trial,coherence,coherence_bin,correct_side,target_onset,checker_onset,decision,decision_time,correct_decision,g0,gSlope
0,0,0.4089627188385099,0.4,0,451.0,526.0,0.0,223.0,1,0.6006348975004542,0.0
1,1,0.6160902112325604,0.6,0,435.0,718.0,0.0,277.0,1,0.8233774581919704,0.0
2,2,0.053717054979924184,0.1,0,341.0,623.0,0.0,1596.0,1,0.15802229780793445,0.0
3,3,-0.8066831228090743,-0.8,1,277.0,501.0,1.0,272.0,1,0.22991106998529892,0.0
4,4,0.4670243203871547,0.5,0,471.0,745.0,0.0,494.0,1,0.1549826783508605,0.0
5,5,0.7827209454596697,0.8,0,420.0,586.0,0.0,234.0,1,0.7262351336791368,0.0
6,6,0.5262002758058482,0.5,0,360.0,922.0,0.0,318.0,1,0.5652406560844065,0.0
7,7,-0.3658372045484162,-0.4,1,302.0,562.0,1.0,356.0,1,0.9750328737460041,0.0
8,8,-0.0670810121203842,-0.1,1,444.0,704.0,0.0,122.0,0,0.48408297969402414,0.0
9,9,-0.025868027069988697,-0.0,1,327.0,834.0,1.0,419.0,1,0.7093064662670027,0.0
10,10,0.012730661807280441,0.0,0,302.0,913.0,0.0,315.0,1,0.6330291772600976,0.0
11,11,0.9853691775752331,1.0,0,460.0,546.0,0.0,194.0,1,0.5390382439857374,0.0
12,12,-0.9542653806470507,-1.0,1,344.0,810.0,1.0,196.0,1,0.7592522057325769,0.0
13,13,-0.28156648901535064,-0.3,1,342.0,600.0,1.0,238.0,1,0.663857025597312,0.0
14,14,0.06280800124702068,0.1,0,458.0,760.0,1.0,292.0,0,0.46915496757215036,0.0
15,15,-0.8632120874127984,-0.9,1,363.0,806.0,1.0,241.0,1,0.34455126723024376,0.0
16,16,-0.7147911666986217,-0.7,1,380.0,643.0,1.0,167.0,1,0.9131058052061055,0.0
17,17,-0.14568680709388393,-0.1,1,397.0,701.0,1.0,152.0,1,0.9555980968093485,0.0
18,18,-0.11906008440188498,-0.1,1,496.0,636.0,1.0,248.0,1,0.2700849015025375,0.0
19,19,-0.987883617136172,-1.0,1,454.0,514.0,1.0,182.0,1,0.4434894850677651,0.0
20,20,-0.20333774186548026,-0.2,1,472.0,565.0,1.0,383.0,1,0.2780737150776297,0.0
21,21,0.5584764731472169,0.6,0,351.0,595.0,0.0,314.0,1,0.4445876838512087,0.0
22,22,0.18405517125697024,0.2,0,403.0,766.0,0.0,1211.0,1,0.1626722435143751,0.0
23,23,-0.5387583698445635,-0.5,1,486.0,800.0,1.0,54.0,1,0.8953668330899639,0.0
24,24,-0.09513268517043416,-0.1,1,309.0,714.0,0.0,357.0,0,0.3435064336952527,0.0
25,25,0.47028812991863167,0.5,0,428.0,525.0,0.0,267.0,1,0.4909862849469723,0.0
26,26,-0.07062257341909972,-0.1,1,281.0,836.0,1.0,273.0,1,0.606992258704333,0.0
27,27,-0.5780294561576673,-0.6,1,482.0,621.0,1.0,357.0,1,0.2886264884703933,0.0
28,28,-0.5292694571514542,-0.5,1,313.0,940.0,1.0,207.0,1,0.48537928915398587,0.0
29,29,-0.7601118537983655,-0.8,1,393.0,548.0,1.0,219.0,1,0.6205351982558047,0.0
30,30,0.1830811593159427,0.2,0,310.0,715.0,0.0,245.0,1,0.9181269350540362,0.0
31,31,-0.11199370567614708,-0.1,1,446.0,663.0,1.0,331.0,1,0.549237878729857,0.0
32,32,0.3801019861926742,0.4,0,320.0,611.0,0.0,389.0,1,0.9465533316218686,0.0
33,33,-0.0018535072442924516,-0.0,1,251.0,932.0,0.0,1017.0,0,0.23464336771011224,0.0
34,34,-0.01378159320618777,-0.0,1,440.0,694.0,1.0,386.0,1,0.6828201934898568,0.0
35,35,0.13142060472275707,0.1,0,440.0,952.0,0.0,468.0,1,0.6401744256525915,0.0
36,36,0.7655816485961808,0.8,0,406.0,717.0,0.0,247.0,1,0.47009743076971733,0.0
37,37,0.4396141237144966,0.4,0,474.0,886.0,0.0,260.0,1,0.40979095829834933,0.0
38,38,-0.29912583359009925,-0.3,1,472.0,827.0,1.0,61.0,1,0.9656301456794051,0.0
39,39,-0.16910608718079478,-0.2,1,365.0,533.0,1.0,792.0,1,0.34629237649390043,0.0
40,40,-0.373018160637286,-0.4,1,496.0,540.0,1.0,894.0,1,0.1098570452763633,0.0
41,41,-0.6989686577354364,-0.7,1,441.0,703.0,1.0,196.0,1,0.9320565994115898,0.0
42,42,0.35594002063313557,0.4,0,433.0,845.0,0.0,302.0,1,0.29374447163567063,0.0
43,43,-0.6323749635656166,-0.6,1,398.0,524.0,1.0,428.0,1,0.5449934222250568,0.0
44,44,-0.8373657690702929,-0.8,1,373.0,670.0,1.0,167.0,1,0.9401385199905048,0.0
45,45,0.6340780229413174,0.6,0,437.0,881.0,0.0,222.0,1,0.6298220633295611,0.0
46,46,0.2598241232441294,0.3,0,330.0,966.0,0.0,284.0,1,0.5205630423623758,0.0
47,47,-0.008965294000427448,-0.0,1,432.0,702.0,0.0,406.0,0,0.49675029268579474,0.0
48,48,0.8208878022241222,0.8,0,482.0,577.0,0.0,311.0,1,0.3632411044551176,0.0
49,49,0.20055960997503774,0.2,0,321.0,714.0,1.0,285.0,0,0.8503975255609212,0.0
50,50,0.3615960225613688,0.4,0,396.0,934.0,0.0,2720.0,1,0.10392156383119755,0.0
51,51,0.3341838763025671,0.3,0,326.0,747.0,0.0,287.0,1,0.47930788990845363,0.0
52,52,-0.8448179859810812,-0.8,1,461.0,582.0,1.0,187.0,1,0.7127314107966578,0.0
53,53,0.7867655611956328,0.8,0,314.0,756.0,0.0,190.0,1,0.4027186655367766,0.0
54,54,-0.6987416504059065,-0.7,1,325.0,610.0,1.0,255.0,1,0.33023784597131506,0.0
55,55,-0.3835346764745242,-0.4,1,439.0,758.0,1.0,273.0,1,0.43837528055749464,0.0
56,56,-0.342683110229802,-0.3,1,299.0,837.0,1.0,304.0,1,0.8450203003019697,0.0
57,57,0.27170050403887114,0.3,0,274.0,820.0,0.0,1886.0,1,0.1463004548896695,0.0
58,58,-0.5950585203944296,-0.6,1,429.0,909.0,1.0,302.0,1,0.6560339699944068,0.0
59,59,-0.6423433493426411,-0.6,1,387.0,731.0,1.0,242.0,1,0.47686685469577816,0.0
60,60,-0.6594823776566063,-0.7,1,465.0,642.0,1.0,303.0,1,0.32700291272549764,0.0
61,61,-0.41463201414512585,-0.4,1,382.0,896.0,1.0,322.0,1,0.2949210896370223,0.0
62,62,0.6996294750804919,0.7,0,428.0,734.0,0.0,258.0,1,0.2973301954706937,0.0
63,63,0.4973071639806328,0.5,0,315.0,951.0,0.0,-866.0,1,0.7880273106004773,0.0
64,64,-0.0660813674974936,-0.1,1,278.0,623.0,1.0,319.0,1,0.845245922669749,0.0
65,65,-0.9658865389114155,-1.0,1,468.0,767.0,1.0,335.0,1,0.16063690263149222,0.0
66,66,-0.13987262684074442,-0.1,1,374.0,801.0,1.0,365.0,1,0.5741856905331121,0.0
67,67,-0.10428737121072618,-0.1,1,306.0,517.0,1.0,287.0,1,0.7931034259926575,0.0
68,68,-0.5776462174325667,-0.6,1,277.0,869.0,1.0,184.0,1,0.6918826058466789,0.0
69,69,0.2192412127792991,0.2,0,291.0,608.0,0.0,281.0,1,0.8892207536302715,0.0
70,70,-0.4011711210245823,-0.4,1,271.0,806.0,1.0,253.0,1,0.2604499644245701,0.0
71,71,-0.23707104726426853,-0.2,1,416.0,764.0,1.0,330.0,1,0.5897051483666176,0.0
72,72,0.170487918438182,0.2,0,347.0,965.0,0.0,218.0,1,0.7793657568990601,0.0
73,73,-0.23429014778945145,-0.2,1,417.0,682.0,1.0,411.0,1,0.7897377255475357,0.0
74,74,-0.37901665361287384,-0.4,1,436.0,713.0,1.0,291.0,1,0.8711593501313831,0.0
75,75,0.6610105482805595,0.7,0,328.0,621.0,0.0,321.0,1,0.4950718127585644,0.0
76,76,0.5119559595412038,0.5,0,389.0,686.0,0.0,215.0,1,0.9978211240159066,0.0
77,77,-0.9159072918043274,-0.9,1,421.0,613.0,1.0,266.0,1,0.698691275131399,0.0
78,78,-0.8459562851110036,-0.8,1,434.0,817.0,1.0,189.0,1,0.267316265806156,0.0
79,79,0.889281608049789,0.9,0,423.0,542.0,0.0,335.0,1,0.23571974711561172,0.0
80,80,-0.3357788214359798,-0.3,1,390.0,728.0,1.0,252.0,1,0.593724414287496,0.0
81,81,-0.10685697524253857,-0.1,1,425.0,561.0,1.0,684.0,1,0.34173252980787405,0.0
82,82,0.003605006424886259,0.0,0,259.0,830.0,0.0,421.0,1,0.46556013012613373,0.0
83,83,0.3343503362163853,0.3,0,482.0,694.0,0.0,324.0,1,0.5269003383260562,0.0
84,84,-0.5936764126958378,-0.6,1,486.0,580.0,1.0,204.0,1,0.9027125611191646,0.0
85,85,-0.16481672447571305,-0.2,1,395.0,595.0,0.0,320.0,0,0.6053187952989475,0.0
86,86,0.5637455075092388,0.6,0,428.0,528.0,0.0,244.0,1,0.8570057845501391,0.0
87,87,-0.09805580330970964,-0.1,1,371.0,801.0,1.0,298.0,1,0.663032947750331,0.0
88,88,-0.36050570087429024,-0.4,1,367.0,831.0,1.0,472.0,1,0.15919489244436863,0.0
89,89,0.2954471309744726,0.3,0,389.0,890.0,0.0,391.0,1,0.39805700650052567,0.0
90,90,0.9740301867962913,1.0,0,396.0,657.0,0.0,317.0,1,0.2904345114254994,0.0
91,91,0.29280057563388584,0.3,0,448.0,762.0,0.0,320.0,1,0.9504398143495533,0.0
92,92,-0.880210549039735,-0.9,1,393.0,671.0,1.0,126.0,1,0.7625146963574821,0.0
93,93,0.866907690351099,0.9,0,305.0,763.0,0.0,232.0,1,0.8283830794862512,0.0
94,94,0.5566222869554598,0.6,0,271.0,787.0,0.0,222.0,1,0.7818097588200539,0.0
95,95,0.6283452521706603,0.6,0,461.0,558.0,0.0,331.0,1,0.390094524013031,0.0
96,96,0.20960329552990964,0.2,0,392.0,716.0,0.0,232.0,1,0.8397567407691302,0.0
97,97,0.03887172107531223,0.0,0,482.0,698.0,0.0,3450.0,1,0.1658024809169502,0.0
98,98,-0.02159323111082423,-0.0,1,437.0,872.0,1.0,341.0,1,0.7656626176537379,0.0
99,99,-0.18468412565171666,-0.2,1,497.0,654.0,1.0,459.0,1,0.29896102153825954,0.0
100,100,0.3866318359591827,0.4,0,399.0,874.0,0.0,237.0,1,0.5989880327822847,0.0
101,101,-0.2363728383554713,-0.2,1,311.0,506.0,1.0,213.0,1,0.8934541008278497,0.0
102,102,0.5470165166068901,0.5,0,302.0,508.0,0.0,210.0,1,0.4295555791065159,0.0
103,103,0.5263277085757267,0.5,0,449.0,713.0,0.0,308.0,1,0.4174117001610187,0.0
104,104,-0.7534885461175849,-0.8,1,400.0,994.0,1.0,116.0,1,0.375467384481707,0.0
105,105,0.6745247199373645,0.7,0,321.0,871.0,0.0,258.0,1,0.9820872473764239,0.0
106,106,-0.7461851064961735,-0.7,1,297.0,826.0,1.0,117.0,1,0.6785572603931348,0.0
107,107,0.5512933388053165,0.6,0,283.0,516.0,0.0,241.0,1,0.7838463923131087,0.0
108,108,-0.8801137635520542,-0.9,1,272.0,558.0,1.0,260.0,1,0.416870919890891,0.0
109,109,-0.5106067594457981,-0.5,1,340.0,831.0,1.0,169.0,1,0.6931680552120519,0.0
110,110,-0.09525694761571546,-0.1,1,398.0,915.0,1.0,277.0,1,0.3818972301403345,0.0
111,111,0.17736506940203278,0.2,0,283.0,859.0,0.0,278.0,1,0.35425000483985014,0.0
112,112,-0.15363630159009856,-0.2,1,340.0,591.0,1.0,609.0,1,0.3790054218511433,0.0
113,113,-0.46357826430312854,-0.5,1,405.0,851.0,1.0,524.0,1,0.15131255403911092,0.0
114,114,-0.1605643093426432,-0.2,1,435.0,772.0,1.0,343.0,1,0.5115652408009485,0.0
115,115,-0.2060178813427893,-0.2,1,362.0,803.0,1.0,205.0,1,0.566030491384003,0.0
116,116,0.3825122981564224,0.4,0,276.0,922.0,0.0,392.0,1,0.2702180347976215,0.0
117,117,-0.05475572656904615,-0.1,1,278.0,736.0,1.0,136.0,1,0.9468434130904589,0.0
118,118,-0.1901543422148415,-0.2,1,270.0,795.0,1.0,305.0,1,0.41719529291194324,0.0
119,119,0.633181929156253,0.6,0,459.0,999.0,0.0,192.0,1,0.9897941339775986,0.0
120,120,0.9032791718641475,0.9,0,460.0,770.0,0.0,180.0,1,0.9592201089403616,0.0
121,121,-0.606587073140255,-0.6,1,336.0,743.0,1.0,101.0,1,0.7562292092789333,0.0
122,122,-0.5329674650966472,-0.5,1,482.0,920.0,1.0,308.0,1,0.3556720064275778,0.0
123,123,-0.59420182391226,-0.6,1,367.0,756.0,1.0,247.0,1,0.673937149439321,0.0
124,124,0.29318268890911825,0.3,0,327.0,719.0,0.0,494.0,1,0.7259478416742299,0.0
125,125,-0.5274619765541471,-0.5,1,403.0,986.0,1.0,-39.0,1,0.7788585238522748,0.0
126,126,0.08026036237530443,0.1,0,282.0,702.0,1.0,1366.0,0,0.2038541369954626,0.0
127,127,-0.6244380192275627,-0.6,1,481.0,762.0,1.0,237.0,1,0.6890839947522247,0.0
128,128,-0.4488822419937275,-0.4,1,316.0,518.0,1.0,236.0,1,0.47219359663167637,0.0
129,129,0.334856297465852,0.3,0,334.0,512.0,1.0,354.0,0,0.4852804608917667,0.0
130,130,-0.025154107646724988,-0.0,1,463.0,808.0,0.0,3729.0,0,0.10229973529781641,0.0
131,131,0.5663912492633043,0.6,0,353.0,828.0,0.0,299.0,1,0.4679113131154876,0.0
132,132,-0.2982552331057524,-0.3,1,478.0,633.0,1.0,279.0,1,0.22960234166373156,0.0
133,133,-0.8855324551650319,-0.9,1,402.0,935.0,1.0,513.0,1,0.12751124832294758,0.0
134,134,0.9768074437806431,1.0,0,473.0,531.0,0.0,186.0,1,0.7598991231153633,0.0
135,135,0.054380147338928264,0.1,0,313.0,880.0,1.0,217.0,0,0.8144090432328447,0.0
136,136,-0.3819085125036361,-0.4,1,396.0,962.0,1.0,362.0,1,0.757204134017807,0.0
137,137,0.3407443704916555,0.3,0,288.0,575.0,0.0,357.0,1,0.7724534597625058,0.0
138,138,0.7957947066453235,0.8,0,342.0,681.0,0.0,227.0,1,0.866761595858593,0.0
139,139,-0.7087718415342321,-0.7,1,329.0,738.0,1.0,193.0,1,0.7034941814542343,0.0
140,140,0.9183994795061843,0.9,0,287.0,546.0,0.0,227.0,1,0.8591117203860327,0.0
141,141,-0.8528684918802303,-0.9,1,280.0,745.0,1.0,295.0,1,0.3466184671377735,0.0
142,142,-0.15539532852310134,-0.2,1,452.0,521.0,1.0,257.0,1,0.9766471116875831,0.0
143,143,0.5045188151464339,0.5,0,475.0,984.0,0.0,211.0,1,0.786622494127506,0.0
144,144,0.7484709478522045,0.7,0,436.0,690.0,0.0,304.0,1,0.37446812442285127,0.0
145,145,0.9468725250457379,0.9,0,461.0,694.0,0.0,405.0,1,0.16402078881014764,0.0
146,146,0.018916454995140386,0.0,0,343.0,991.0,1.0,256.0,0,0.6684267265669638,0.0
147,147,0.47736190649393206,0.5,0,415.0,958.0,0.0,217.0,1,0.873238408447935,0.0
148,148,0.7521380998761933,0.8,0,491.0,581.0,0.0,548.0,1,0.208073066289569,0.0
149,149,-0.9516459920988651,-1.0,1,378.0,577.0,1.0,195.0,1,0.7528394110055683,0.0
150,150,0.5330743551996773,0.5,0,287.0,699.0,0.0,484.0,1,0.144677419685476,0.0
151,151,0.8096489196870758,0.8,0,295.0,997.0,0.0,348.0,1,0.23242972760127711,0.0
152,152,0.6384903805837014,0.6,0,373.0,909.0,1.0,-252.0,0,0.9748850757879027,0.0
153,153,0.10102846828719447,0.1,0,423.0,590.0,0.0,487.0,1,0.20499898172910525,0.0
154,154,0.45152816417130714,0.5,0,390.0,523.0,0.0,457.0,1,0.4485951641505831,0.0
155,155,0.25524349998065765,0.3,0,372.0,706.0,0.0,262.0,1,0.43755632636039654,0.0
156,156,0.223055753035019,0.2,0,432.0,644.0,0.0,554.0,1,0.2369713602445827,0.0
157,157,-0.10813778132526908,-0.1,1,389.0,679.0,1.0,212.0,1,0.9622864621911453,0.0
158,158,-0.4816216796470716,-0.5,1,290.0,666.0,1.0,354.0,1,0.3045214013430848,0.0
159,159,0.22376194747061184,0.2,0,463.0,707.0,0.0,320.0,1,0.313196223786199,0.0
160,160,-0.15549087817332352,-0.2,1,460.0,763.0,1.0,287.0,1,0.7268031342087358,0.0
161,161,-0.16537302343438243,-0.2,1,452.0,992.0,1.0,246.0,1,0.3939708152292264,0.0
162,162,0.7112696259053537,0.7,0,302.0,807.0,0.0,391.0,1,0.21823512750527996,0.0
163,163,-0.4631405967133737,-0.5,1,395.0,539.0,1.0,326.0,1,0.14272203085339016,0.0
164,164,-0.8579687295352381,-0.9,1,377.0,757.0,1.0,176.0,1,0.42307448404940984,0.0
165,165,0.8400537252051199,0.8,0,452.0,911.0,0.0,177.0,1,0.8968755352453653,0.0
166,166,-0.5794170523273472,-0.6,1,325.0,568.0,1.0,167.0,1,0.49299658344036434,0.0
167,167,-0.3101373919518502,-0.3,1,307.0,532.0,1.0,291.0,1,0.6388062671136183,0.0
168,168,-0.2854482127293456,-0.3,1,318.0,589.0,1.0,213.0,1,0.9486601880785748,0.0
169,169,-0.8622475406611747,-0.9,1,494.0,756.0,1.0,330.0,1,0.2071282955070773,0.0
170,170,-0.1956992500356287,-0.2,1,432.0,534.0,1.0,254.0,1,0.9038670764837096,0.0
171,171,0.6131452673159283,0.6,0,321.0,908.0,0.0,221.0,1,0.31028125928378514,0.0
172,172,0.4395269115586973,0.4,0,357.0,695.0,0.0,398.0,1,0.25718430738887704,0.0
173,173,0.5958395700081425,0.6,0,408.0,833.0,0.0,419.0,1,0.3460384330705133,0.0
174,174,-0.6254837062576042,-0.6,1,429.0,924.0,1.0,217.0,1,0.8666929696393829,0.0
175,175,-0.7912437484191301,-0.8,1,360.0,528.0,1.0,202.0,1,0.4836745733074521,0.0
176,176,0.0784368307410932,0.1,0,379.0,585.0,0.0,296.0,1,0.8569774892838968,0.0
177,177,0.16275858130332255,0.2,0,348.0,645.0,0.0,477.0,1,0.8630891529806805,0.0
178,178,-0.22797981781115162,-0.2,1,281.0,792.0,1.0,347.0,1,0.9078223224503759,0.0
179,179,-0.9318771977340878,-0.9,1,313.0,790.0,1.0,247.0,1,0.4329135549311055,0.0
180,180,-0.13514657909050776,-0.1,1,280.0,522.0,1.0,158.0,1,0.4867848589969248,0.0
181,181,0.48177569436264656,0.5,0,470.0,829.0,0.0,231.0,1,0.5447825100744883,0.0
182,182,0.05881518509140227,0.1,0,393.0,812.0,0.0,1015.0,1,0.18044925894772884,0.0
183,183,-0.5952642928006553,-0.6,1,390.0,753.0,1.0,357.0,1,0.1592490434729456,0.0
184,184,0.13492102063281752,0.1,0,452.0,672.0,0.0,2036.0,1,0.17495587867022883,0.0
185,185,0.11780578613518511,0.1,0,387.0,992.0,1.0,301.0,0,0.606960002479207,0.0
186,186,0.8317700618221504,0.8,0,437.0,660.0,0.0,503.0,1,0.191087698581441,0.0
187,187,0.02212768935604359,0.0,0,377.0,727.0,1.0,316.0,0,0.7050814356761397,0.0
188,188,0.8784127314879067,0.9,0,324.0,864.0,0.0,432.0,1,0.1387170561948832,0.0
189,189,-0.11856224788472258,-0.1,1,335.0,770.0,1.0,235.0,1,0.9590933379604533,0.0
190,190,-0.6581266498245064,-0.7,1,466.0,969.0,1.0,285.0,1,0.3617465057913444,0.0
191,191,0.8514130925199042,0.9,0,371.0,655.0,0.0,284.0,1,0.3748573302272208,0.0
192,192,-0.19039681694681687,-0.2,1,257.0,701.0,1.0,232.0,1,0.7953375891745059,0.0
193,193,-0.8653965028937591,-0.9,1,347.0,581.0,1.0,242.0,1,0.3956443183795343,0.0
194,194,0.5636533273364126,0.6,0,470.0,884.0,0.0,626.0,1,0.11881873332668597,0.0
195,195,0.3291268004057746,0.3,0,334.0,842.0,0.0,-966.0,1,0.9361954385529143,0.0
196,196,0.006013956403419174,0.0,0,380.0,638.0,0.0,342.0,1,0.5162847114832028,0.0
197,197,0.5920655444832661,0.6,0,263.0,714.0,0.0,173.0,1,0.7749850788162255,0.0
198,198,0.8151671155001528,0.8,0,499.0,813.0,0.0,128.0,1,0.9732776372330534,0.0
199,199,-0.40504862672020336,-0.4,1,341.0,943.0,1.0,236.0,1,0.4300291672961941,0.0
200,200,0.03249081150649258,0.0,0,483.0,666.0,0.0,451.0,1,0.642378865983996,0.0
201,201,-0.3809071369182966,-0.4,1,374.0,811.0,1.0,265.0,1,0.4155092658551083,0.0
202,202,0.3495044481323466,0.3,0,438.0,677.0,0.0,385.0,1,0.8189791772861104,0.0
203,203,-0.4157354386400276,-0.4,1,313.0,944.0,1.0,193.0,1,0.6225428556856761,0.0
204,204,0.9813958501069615,1.0,0,390.0,555.0,0.0,215.0,1,0.28378284342016646,0.0
205,205,-0.08240082793742198,-0.1,1,438.0,910.0,1.0,482.0,1,0.2603460728751311,0.0
206,206,-0.2982891193824806,-0.3,1,467.0,504.0,1.0,359.0,1,0.5628614167863277,0.0
207,207,0.03320775133779508,0.0,0,403.0,576.0,1.0,181.0,0,0.9886947953013693,0.0
208,208,-0.47497591035750797,-0.5,1,348.0,667.0,1.0,-505.0,1,0.9993555152057819,0.0
209,209,0.09043129686372442,0.1,0,267.0,801.0,0.0,502.0,1,0.4872563812187347,0.0
210,210,-0.8415220924537621,-0.8,1,499.0,966.0,1.0,165.0,1,0.7884823094889047,0.0
211,211,-0.9790081461811067,-1.0,1,310.0,944.0,1.0,316.0,1,0.21256155208962524,0.0
212,212,0.5278497412003444,0.5,0,431.0,864.0,0.0,605.0,1,0.14439369309386696,0.0
213,213,0.021355258043880054,0.0,0,257.0,794.0,1.0,309.0,0,0.3232587539950328,0.0
214,214,-0.6585105482426552,-0.7,1,270.0,528.0,1.0,292.0,1,0.28576280447696223,0.0
215,215,0.3353223146938784,0.3,0,446.0,844.0,0.0,380.0,1,0.5653801287191035,0.0
216,216,-0.3634787647781348,-0.4,1,351.0,973.0,1.0,496.0,1,0.2660145599308126,0.0
217,217,0.7710005020195352,0.8,0,440.0,982.0,0.0,168.0,1,0.6917512428524812,0.0
218,218,0.7963184253730404,0.8,0,338.0,675.0,0.0,217.0,1,0.3878771307407277,0.0
219,219,-0.3053321139299432,-0.3,1,305.0,592.0,1.0,1083.0,1,0.10985255189364379,0.0
220,220,0.8395993962892174,0.8,0,326.0,912.0,0.0,352.0,1,0.5499511743355333,0.0
221,221,0.34139848593681754,0.3,0,335.0,854.0,0.0,281.0,1,0.8958933869313178,0.0
222,222,-0.7961221563691896,-0.8,1,323.0,637.0,1.0,230.0,1,0.451484972674863,0.0
223,223,0.5397717105159034,0.5,0,399.0,969.0,0.0,202.0,1,0.5477837438443008,0.0
224,224,0.022469964461260927,0.0,0,267.0,632.0,0.0,1091.0,1,0.17754735422689993,0.0
225,225,0.1416193386439304,0.1,0,284.0,500.0,0.0,226.0,1,0.9683575369602575,0.0
226,226,0.7068883728171222,0.7,0,261.0,898.0,0.0,361.0,1,0.46912546089154317,0.0
227,227,0.7485321309230668,0.7,0,330.0,784.0,0.0,246.0,1,0.6668273180658345,0.0
228,228,0.27414913263888097,0.3,0,493.0,731.0,0.0,326.0,1,0.5739005149746266,0.0
229,229,0.5682469562324699,0.6,0,406.0,710.0,0.0,174.0,1,0.9890258379024484,0.0
230,230,0.9372502570442485,0.9,0,292.0,586.0,0.0,222.0,1,0.225081884522914,0.0
231,231,0.8948533404550645,0.9,0,377.0,949.0,0.0,144.0,1,0.6703312771090228,0.0
232,232,0.6519374403710434,0.7,0,462.0,552.0,0.0,226.0,1,0.6534836215402761,0.0
233,233,0.7484210508983278,0.7,0,318.0,949.0,0.0,293.0,1,0.8649254797779076,0.0
234,234,0.22323115806842053,0.2,0,409.0,927.0,1.0,264.0,0,0.6997197121651761,0.0
235,235,0.2386733118342712,0.2,0,277.0,762.0,0.0,281.0,1,0.9431013587229845,0.0
236,236,0.8123503957253233,0.8,0,315.0,523.0,0.0,142.0,1,0.7778026084448496,0.0
237,237,-0.33580787108964505,-0.3,1,367.0,658.0,1.0,475.0,1,0.20063948191082528,0.0
238,238,-0.3525628138584631,-0.4,1,431.0,988.0,1.0,141.0,1,0.9120234165994061,0.0
239,239,0.9103929307294056,0.9,0,339.0,755.0,0.0,166.0,1,0.8339638554276642,0.0
240,240,0.8711392009558176,0.9,0,316.0,948.0,0.0,266.0,1,0.4447942376650289,0.0
241,241,-0.5278910493780884,-0.5,1,467.0,929.0,1.0,224.0,1,0.38208106477644244,0.0
242,242,0.9166615657607995,0.9,0,297.0,706.0,0.0,187.0,1,0.373515330194654,0.0
243,243,0.8043375681302642,0.8,0,497.0,968.0,0.0,325.0,1,0.31279524885830545,0.0
244,244,-0.2682812385750015,-0.3,1,308.0,549.0,1.0,253.0,1,0.963650486137696,0.0
245,245,-0.44693000772335134,-0.4,1,476.0,631.0,1.0,303.0,1,0.838058017554401,0.0
246,246,-0.877248850124952,-0.9,1,450.0,764.0,1.0,146.0,1,0.8983116051147464,0.0
247,247,-0.2765876760050425,-0.3,1,350.0,625.0,1.0,175.0,1,0.7299298168806925,0.0
248,248,-0.07302262649177327,-0.1,1,333.0,603.0,1.0,304.0,1,0.3430128655960604,0.0
249,249,0.18783042071181644,0.2,0,444.0,894.0,0.0,302.0,1,0.8022016330994095,0.0
250,250,0.6319770249631431,0.6,0,295.0,566.0,0.0,389.0,1,0.7212472476463915,0.0
251,251,0.5762089743452121,0.6,0,486.0,634.0,0.0,230.0,1,0.6341680360268864,0.0
252,252,-0.4420849191413925,-0.4,1,419.0,685.0,1.0,186.0,1,0.9970536271682986,0.0
253,253,0.7664462459714414,0.8,0,484.0,773.0,0.0,243.0,1,0.5906939882923655,0.0
254,254,0.7907096443987771,0.8,0,365.0,725.0,0.0,230.0,1,0.5437714542300354,0.0
255,255,0.14879437087893477,0.1,0,310.0,646.0,0.0,124.0,1,0.7005489758341805,0.0
256,256,0.6686633777096285,0.7,0,400.0,827.0,0.0,203.0,1,0.5040818452989081,0.0
257,257,-0.6936416808461541,-0.7,1,480.0,727.0,1.0,503.0,1,0.11511604908113657,0.0
258,258,-0.06673255631114938,-0.1,1,253.0,617.0,1.0,4130.0,1,0.17134229486107283,0.0
259,259,-0.8202076330839774,-0.8,1,394.0,690.0,1.0,126.0,1,0.8792619935820847,0.0
260,260,-0.48362882828941345,-0.5,1,401.0,853.0,1.0,216.0,1,0.8021684688023165,0.0
261,261,-0.8853474863922945,-0.9,1,486.0,870.0,1.0,264.0,1,0.3927744892567949,0.0
262,262,0.6991701222835778,0.7,0,344.0,973.0,0.0,233.0,1,0.7794940642624801,0.0
263,263,0.6106065063286972,0.6,0,385.0,789.0,0.0,246.0,1,0.6433341605849774,0.0
264,264,-0.9894878457901433,-1.0,1,436.0,884.0,1.0,240.0,1,0.35351575981966454,0.0
265,265,-0.701549528241614,-0.7,1,372.0,738.0,1.0,180.0,1,0.5495591956072332,0.0
266,266,0.08486464093172708,0.1,0,356.0,694.0,0.0,140.0,1,0.927368075042814,0.0
267,267,0.41619102507845085,0.4,0,345.0,971.0,0.0,284.0,1,0.5196264763857789,0.0
268,268,0.029634515927976945,0.0,0,469.0,567.0,0.0,3534.0,1,0.14714388865498051,0.0
269,269,0.14418881615004198,0.1,0,480.0,636.0,1.0,204.0,0,0.9552519631449884,0.0
270,270,-0.32265786446380673,-0.3,1,383.0,643.0,1.0,294.0,1,0.3375296108356183,0.0
271,271,0.3994996067972656,0.4,0,348.0,611.0,0.0,231.0,1,0.47445439697806857,0.0
272,272,-0.027350226215433926,-0.0,1,498.0,917.0,0.0,535.0,0,0.5560191548289766,0.0
273,273,-0.017987503748129186,-0.0,1,405.0,551.0,1.0,344.0,1,0.4234085104770804,0.0
274,274,-0.45382654521037114,-0.5,1,336.0,590.0,1.0,314.0,1,0.7931280073742258,0.0
275,275,-0.022431137677325852,-0.0,1,442.0,830.0,0.0,2008.0,0,0.1957184050335225,0.0
276,276,-0.7324120613427729,-0.7,1,319.0,775.0,1.0,206.0,1,0.41944453078443156,0.0
277,277,-0.4183409005935912,-0.4,1,499.0,632.0,1.0,359.0,1,0.4026336164723786,0.0
278,278,0.7293432323176268,0.7,0,496.0,844.0,0.0,290.0,1,0.4932816666297548,0.0
279,279,0.7415654437947334,0.7,0,422.0,570.0,0.0,178.0,1,0.5705459277608315,0.0
280,280,-0.9348973750994729,-0.9,1,385.0,971.0,1.0,534.0,1,0.10015332643684646,0.0
281,281,-0.11960339051566171,-0.1,1,475.0,788.0,1.0,1417.0,1,0.20076824112072378,0.0
282,282,0.2474550554572592,0.2,0,325.0,500.0,0.0,675.0,1,0.3147895593281298,0.0
283,283,-0.9616927137015454,-1.0,1,498.0,667.0,1.0,95.0,1,0.9023516654726449,0.0
284,284,0.9910413159102105,1.0,0,290.0,673.0,0.0,287.0,1,0.6349395367242783,0.0
285,285,0.4778370842557187,0.5,0,414.0,751.0,0.0,295.0,1,0.7026703842138374,0.0
286,286,0.864760384565253,0.9,0,358.0,690.0,0.0,62.0,1,0.96520609398448,0.0
287,287,-0.09312958016603456,-0.1,1,487.0,932.0,1.0,571.0,1,0.5791872866776029,0.0
288,288,0.2893537696085702,0.3,0,271.0,614.0,0.0,285.0,1,0.5074459208881708,0.0
289,289,-0.020411622951984176,-0.0,1,436.0,946.0,0.0,2418.0,0,0.15755142561649169,0.0
290,290,0.49313263035102994,0.5,0,484.0,771.0,0.0,175.0,1,0.7008864141127195,0.0
291,291,-0.6027289752245619,-0.6,1,269.0,893.0,1.0,288.0,1,0.7201843351327286,0.0
292,292,0.05791005989325515,0.1,0,283.0,984.0,0.0,213.0,1,0.8303221842062288,0.0
293,293,-0.8393433423579739,-0.8,1,362.0,615.0,1.0,183.0,1,0.6388209833601619,0.0
294,294,0.3607792909956722,0.4,0,438.0,853.0,0.0,349.0,1,0.5680622122253827,0.0
295,295,0.8538281700067636,0.9,0,411.0,579.0,0.0,210.0,1,0.5807109395623055,0.0
296,296,0.5459328743591922,0.5,0,473.0,881.0,0.0,366.0,1,0.8225141863847752,0.0
297,297,-0.9333824998237077,-0.9,1,417.0,968.0,1.0,205.0,1,0.6487570408198899,0.0
298,298,0.3332742147722114,0.3,0,477.0,865.0,0.0,418.0,1,0.27533472703618167,0.0
299,299,0.45894586767409207,0.5,0,285.0,926.0,0.0,399.0,1,0.5113301824182873,0.0
300,300,-0.3873101394347802,-0.4,1,473.0,981.0,1.0,306.0,1,0.7195936991932075,0.0
301,301,-0.26449700130198806,-0.3,1,393.0,536.0,1.0,171.0,1,0.9730473940934036,0.0
302,302,0.751091744516142,0.8,0,322.0,785.0,0.0,283.0,1,0.6848097805810512,0.0
303,303,0.046921246146263806,0.0,0,316.0,612.0,1.0,-458.0,0,0.8576693684857817,0.0
304,304,-0.7867505755075785,-0.8,1,470.0,514.0,1.0,196.0,1,0.8778030475140918,0.0
305,305,-0.11734490815755327,-0.1,1,316.0,647.0,0.0,277.0,0,0.673355227588711,0.0
306,306,-0.27242307915647945,-0.3,1,361.0,776.0,1.0,323.0,1,0.6149911092344339,0.0
307,307,-0.6723604249863939,-0.7,1,471.0,819.0,1.0,250.0,1,0.5026415539216313,0.0
308,308,-0.906232460980839,-0.9,1,282.0,862.0,1.0,146.0,1,0.6764885783142424,0.0
309,309,0.5214217313476641,0.5,0,276.0,930.0,0.0,314.0,1,0.21364960560397422,0.0
310,310,-0.34967242404612087,-0.3,1,314.0,567.0,1.0,189.0,1,0.7147395195969168,0.0
311,311,-0.20745737517280638,-0.2,1,437.0,671.0,1.0,482.0,1,0.17673703751953201,0.0
312,312,-0.7272405669464033,-0.7,1,281.0,818.0,1.0,191.0,1,0.3616867833538252,0.0
313,313,-0.3776845625013925,-0.4,1,375.0,545.0,1.0,360.0,1,0.48387711668386746,0.0
314,314,0.6778315595536883,0.7,0,324.0,586.0,0.0,240.0,1,0.3168851150620471,0.0
315,315,-0.6749825419688873,-0.7,1,291.0,520.0,1.0,279.0,1,0.33118713900056224,0.0
316,316,-0.80073605016704,-0.8,1,365.0,724.0,1.0,231.0,1,0.29265267079948937,0.0
317,317,0.04645890800343255,0.0,0,257.0,530.0,0.0,233.0,1,0.7528314260838859,0.0
318,318,0.3771577137213675,0.4,0,421.0,633.0,0.0,166.0,1,0.7230178161361465,0.0
319,319,0.9119160923389524,0.9,0,485.0,698.0,0.0,277.0,1,0.5361448364635932,0.0
320,320,0.7806614060390886,0.8,0,392.0,894.0,0.0,174.0,1,0.5246765387932085,0.0
321,321,-0.10014381852316401,-0.1,1,339.0,581.0,1.0,260.0,1,0.616072268172554,0.0
322,322,-0.3257175358755078,-0.3,1,275.0,746.0,1.0,369.0,1,0.8430653368068872,0.0
323,323,-0.2708686458759648,-0.3,1,402.0,947.0,1.0,321.0,1,0.9297942777542236,0.0
324,324,0.36473482396716084,0.4,0,330.0,840.0,0.0,430.0,1,0.2690461069810506,0.0
325,325,0.34449955840695234,0.3,0,379.0,681.0,0.0,320.0,1,0.47929775869219815,0.0
326,326,0.779106000285219,0.8,0,429.0,657.0,0.0,184.0,1,0.539299487903602,0.0
327,327,0.9140841354699987,0.9,0,381.0,929.0,0.0,160.0,1,0.38946962412295305,0.0
328,328,0.6701768419699223,0.7,0,348.0,560.0,0.0,-568.0,1,0.4499382738468818,0.0
329,329,-0.9351649996810916,-0.9,1,421.0,638.0,1.0,241.0,1,0.9796367480211455,0.0
330,330,-0.18473020877861046,-0.2,1,456.0,896.0,1.0,438.0,1,0.7036001461347612,0.0
331,331,0.6247567441851578,0.6,0,455.0,912.0,0.0,113.0,1,0.595912646075113,0.0
332,332,0.5344535092415688,0.5,0,378.0,803.0,0.0,249.0,1,0.5493262894305747,0.0
333,333,0.5064560320957334,0.5,0,434.0,846.0,0.0,320.0,1,0.8593719981694161,0.0
334,334,-0.7113361395613231,-0.7,1,358.0,535.0,1.0,267.0,1,0.544530427432315,0.0
335,335,0.45746590824869604,0.5,0,363.0,910.0,0.0,387.0,1,0.3269825449035466,0.0
336,336,-0.44877423435475516,-0.4,1,460.0,642.0,1.0,208.0,1,0.4052315395576439,0.0
337,337,0.9741447868065423,1.0,0,314.0,720.0,0.0,136.0,1,0.8820324909924081,0.0
338,338,-0.37263572056784366,-0.4,1,473.0,654.0,1.0,143.0,1,0.8433462416762989,0.0
339,339,0.09867234048035733,0.1,0,263.0,519.0,0.0,238.0,1,0.8018561971802215,0.0
340,340,-0.8156349301303472,-0.8,1,399.0,551.0,1.0,250.0,1,0.35376073691032917,0.0
341,341,0.10094452119120789,0.1,0,299.0,707.0,0.0,384.0,1,0.9544926170508622,0.0
342,342,-0.06453659060847095,-0.1,1,473.0,581.0,1.0,366.0,1,0.7799242380049975,0.0
343,343,-0.6602640467324821,-0.7,1,301.0,718.0,1.0,101.0,1,0.8720747733155575,0.0
344,344,0.41519377364992316,0.4,0,350.0,652.0,0.0,1438.0,1,0.1018122736489274,0.0
345,345,0.06548693085060098,0.1,0,342.0,826.0,0.0,252.0,1,0.9667039524645459,0.0
346,346,0.6290215689008698,0.6,0,445.0,581.0,0.0,544.0,1,0.22706413493773647,0.0
347,347,-0.10192361318943255,-0.1,1,338.0,825.0,1.0,277.0,1,0.5118303059672218,0.0
348,348,0.587934859028415,0.6,0,322.0,836.0,0.0,282.0,1,0.5758453623206465,0.0
349,349,-0.29046700545898707,-0.3,1,451.0,765.0,1.0,404.0,1,0.3104709840066698,0.0
350,350,-0.372956331910564,-0.4,1,432.0,922.0,1.0,216.0,1,0.7578948091714108,0.0
351,351,-0.39477707795248373,-0.4,1,411.0,746.0,1.0,543.0,1,0.17236576712122292,0.0
352,352,-0.48006522635358473,-0.5,1,492.0,647.0,1.0,281.0,1,0.2681051158633424,0.0
353,353,-0.648644212186611,-0.6,1,297.0,980.0,1.0,453.0,1,0.18052413620401464,0.0
354,354,-0.6857912188227573,-0.7,1,325.0,680.0,1.0,185.0,1,0.9859930336479252,0.0
355,355,-0.3903077485058515,-0.4,1,418.0,596.0,1.0,406.0,1,0.9929799424849924,0.0
356,356,0.05850211542135897,0.1,0,443.0,633.0,0.0,224.0,1,0.8451428436921582,0.0
357,357,-0.22727335848460983,-0.2,1,273.0,673.0,1.0,274.0,1,0.7568732303959427,0.0
358,358,0.3006490862928386,0.3,0,429.0,834.0,0.0,277.0,1,0.24142918024781496,0.0
359,359,0.6990057642189633,0.7,0,495.0,561.0,0.0,434.0,1,0.16550780154382672,0.0
360,360,0.8190698583936125,0.8,0,402.0,545.0,0.0,303.0,1,0.48740641080385405,0.0
361,361,-0.4164091955309932,-0.4,1,349.0,994.0,1.0,277.0,1,0.7518141477162659,0.0
362,362,0.5979804646185436,0.6,0,433.0,632.0,0.0,355.0,1,0.45874320847669203,0.0
363,363,0.05701460137894809,0.1,0,277.0,627.0,0.0,426.0,1,0.36663049728455055,0.0
364,364,0.5808343219156471,0.6,0,435.0,626.0,0.0,289.0,1,0.9310207285432469,0.0
365,365,0.5623779659852242,0.6,0,438.0,638.0,0.0,204.0,1,0.774990402559992,0.0
366,366,-0.42094564018508906,-0.4,1,273.0,978.0,1.0,179.0,1,0.4273448600808206,0.0
367,367,0.9867984766330238,1.0,0,291.0,604.0,0.0,215.0,1,0.5424353733305939,0.0
368,368,0.30664912689742074,0.3,0,299.0,992.0,0.0,309.0,1,0.49940996076439104,0.0
369,369,-0.2676261712891599,-0.3,1,293.0,781.0,1.0,156.0,1,0.8615475190278693,0.0
370,370,-0.6883840773137719,-0.7,1,344.0,749.0,1.0,127.0,1,0.9017227044868446,0.0
371,371,-0.12302006518236763,-0.1,1,452.0,878.0,0.0,250.0,0,0.9193918337945485,0.0
372,372,0.3856533164955722,0.4,0,412.0,825.0,0.0,263.0,1,0.6773894784697255,0.0
373,373,0.2964355284102058,0.3,0,408.0,658.0,0.0,844.0,1,0.1548228009258337,0.0
374,374,-0.8565445564356484,-0.9,1,390.0,838.0,1.0,412.0,1,0.1296050235923333,0.0
375,375,0.4312557474916614,0.4,0,471.0,832.0,0.0,787.0,1,0.11918719320145484,0.0
376,376,0.32315229244585764,0.3,0,409.0,979.0,0.0,162.0,1,0.5123357031206562,0.0
377,377,-0.7325629445432837,-0.7,1,443.0,523.0,1.0,164.0,1,0.7363196505597118,0.0
378,378,0.7865459493631022,0.8,0,425.0,901.0,0.0,204.0,1,0.9335983017233344,0.0
379,379,-0.6630924639638751,-0.7,1,377.0,550.0,1.0,193.0,1,0.9148777143270838,0.0
380,380,-0.40015382029646496,-0.4,1,408.0,783.0,1.0,349.0,1,0.2100625271717136,0.0
381,381,0.7518668044599515,0.8,0,334.0,809.0,0.0,387.0,1,0.4279844571044279,0.0
382,382,-0.8881316084378854,-0.9,1,319.0,544.0,1.0,227.0,1,0.6513551793666759,0.0
383,383,-0.5640921160136008,-0.6,1,322.0,932.0,1.0,536.0,1,0.10369307421762117,0.0
384,384,0.4072650626917653,0.4,0,369.0,779.0,0.0,262.0,1,0.6381002485837699,0.0
385,385,0.049699562945322295,0.0,0,440.0,628.0,0.0,532.0,1,0.3540096378002425,0.0
386,386,-0.9210326017516888,-0.9,1,315.0,970.0,1.0,345.0,1,0.2990016193400863,0.0
387,387,-0.511892752924503,-0.5,1,448.0,854.0,1.0,228.0,1,0.9436906037985631,0.0
388,388,0.948700724589085,0.9,0,491.0,847.0,0.0,182.0,1,0.573561217923278,0.0
389,389,-0.548135557800707,-0.5,1,429.0,505.0,1.0,246.0,1,0.850465865269664,0.0
390,390,-0.6125564274827369,-0.6,1,295.0,935.0,1.0,320.0,1,0.41830699697618023,0.0
391,391,-0.3842149917718407,-0.4,1,369.0,845.0,1.0,196.0,1,0.5450131015904943,0.0
392,392,-0.3173296383715589,-0.3,1,303.0,781.0,1.0,416.0,1,0.17726950595496033,0.0
393,393,0.5735287075167832,0.6,0,312.0,857.0,0.0,201.0,1,0.5354415638046706,0.0
394,394,-0.5890205583154309,-0.6,1,415.0,592.0,1.0,213.0,1,0.9481698915175482,0.0
395,395,0.754115657945859,0.8,0,458.0,542.0,0.0,190.0,1,0.3971252086074044,0.0
396,396,0.17722046936826197,0.2,0,322.0,915.0,0.0,323.0,1,0.9890493802021879,0.0
397,397,-0.6849703085548262,-0.7,1,294.0,706.0,1.0,290.0,1,0.5519222446346893,0.0
398,398,-0.1540518347908304,-0.2,1,329.0,997.0,1.0,234.0,1,0.9698900097689026,0.0
399,399,-0.04592560379720623,-0.0,1,373.0,593.0,1.0,144.0,1,0.592236241967812,0.0
400,400,-0.07570542503727351,-0.1,1,267.0,619.0,0.0,4114.0,0,0.14527518493339545,0.0
401,401,-0.8334621025956532,-0.8,1,318.0,951.0,1.0,311.0,1,0.1483654388508231,0.0
402,402,0.0178312450880036,0.0,0,304.0,762.0,1.0,514.0,0,0.32715330623227357,0.0
403,403,0.35240595735589575,0.4,0,357.0,881.0,0.0,272.0,1,0.5953362152498183,0.0
404,404,-0.9791842275870017,-1.0,1,498.0,721.0,1.0,311.0,1,0.17770026296551222,0.0
405,405,0.7622160499458086,0.8,0,450.0,988.0,0.0,182.0,1,0.8887163462959017,0.0
406,406,-0.36780617722028586,-0.4,1,447.0,789.0,1.0,314.0,1,0.6373459247383287,0.0
407,407,0.9765249796957178,1.0,0,319.0,812.0,0.0,169.0,1,0.45281563508859346,0.0
408,408,-0.9552202202853637,-1.0,1,354.0,972.0,1.0,214.0,1,0.9520983301218332,0.0
409,409,0.8030495000004301,0.8,0,252.0,923.0,0.0,185.0,1,0.89004700376545,0.0
410,410,-0.6775311760460259,-0.7,1,478.0,973.0,1.0,449.0,1,0.1926878593846127,0.0
411,411,-0.9041362191824673,-0.9,1,474.0,820.0,1.0,166.0,1,0.6655295707317009,0.0
412,412,-0.9818556359597514,-1.0,1,305.0,530.0,1.0,365.0,1,0.19003159952958315,0.0
413,413,-0.471310083055801,-0.5,1,375.0,605.0,1.0,310.0,1,0.338861370353467,0.0
414,414,-0.8702455652021894,-0.9,1,408.0,599.0,1.0,143.0,1,0.9278219000121883,0.0
415,415,0.3262400241079708,0.3,0,441.0,746.0,0.0,203.0,1,0.8409102165102492,0.0
416,416,-0.39425616398832397,-0.4,1,459.0,951.0,1.0,300.0,1,0.2779491372581441,0.0
417,417,0.9485906199110448,0.9,0,253.0,837.0,0.0,320.0,1,0.30573401883172346,0.0
418,418,-0.8283452366293353,-0.8,1,253.0,675.0,1.0,182.0,1,0.8557735621012101,0.0
419,419,0.42563595434580925,0.4,0,483.0,788.0,0.0,389.0,1,0.3537605005899741,0.0
420,420,-0.7417016912593279,-0.7,1,265.0,870.0,1.0,255.0,1,0.6829012735062523,0.0
421,421,-0.06564645012120285,-0.1,1,475.0,731.0,1.0,3794.0,1,0.11706662202645685,0.0
422,422,-0.2253153035554596,-0.2,1,364.0,589.0,0.0,347.0,0,0.6403343385998717,0.0
423,423,-0.4836409483101518,-0.5,1,478.0,721.0,1.0,241.0,1,0.7581671606444684,0.0
424,424,0.7889518045189443,0.8,0,333.0,952.0,0.0,465.0,1,0.22598016831578072,0.0
425,425,0.6972489896259182,0.7,0,385.0,886.0,0.0,199.0,1,0.8347685484156588,0.0
426,426,-0.4565358588131381,-0.5,1,377.0,598.0,1.0,245.0,1,0.4496524298381075,0.0
427,427,-0.3297221874022278,-0.3,1,443.0,994.0,1.0,163.0,1,0.6067141817595137,0.0
428,428,-0.5765683548137988,-0.6,1,378.0,568.0,1.0,214.0,1,0.6398540640264281,0.0
429,429,-0.778657400108635,-0.8,1,302.0,679.0,1.0,239.0,1,0.4328586915607695,0.0
430,430,-0.7675123108607922,-0.8,1,268.0,755.0,1.0,217.0,1,0.3741359531041806,0.0
431,431,-0.9637703394439083,-1.0,1,439.0,583.0,1.0,238.0,1,0.8318130655260157,0.0
432,432,0.5353027447363188,0.5,0,383.0,742.0,0.0,205.0,1,0.8434246502324032,0.0
433,433,-0.7734995483631402,-0.8,1,404.0,630.0,1.0,476.0,1,0.11183806392107995,0.0
434,434,-0.42509426600887035,-0.4,1,386.0,964.0,1.0,230.0,1,0.6455308386644076,0.0
435,435,0.41098410352925585,0.4,0,314.0,849.0,0.0,367.0,1,0.7880968925743658,0.0
436,436,-0.8330580673856152,-0.8,1,380.0,856.0,1.0,134.0,1,0.9644260812100987,0.0
437,437,-0.9531940041775384,-1.0,1,274.0,619.0,1.0,117.0,1,0.5286702429991771,0.0
438,438,-0.581839085269733,-0.6,1,357.0,833.0,1.0,120.0,1,0.9265513659442197,0.0
439,439,0.8800876299614737,0.9,0,342.0,730.0,0.0,158.0,1,0.3977336386468877,0.0
440,440,0.7662613959541531,0.8,0,359.0,929.0,0.0,182.0,1,0.7916177823421038,0.0
441,441,0.6964707559602428,0.7,0,326.0,964.0,0.0,160.0,1,0.9811353108839925,0.0
442,442,-0.7481673568306195,-0.7,1,335.0,595.0,1.0,230.0,1,0.9321657718678377,0.0
443,443,0.008532206810378806,0.0,0,476.0,663.0,0.0,571.0,1,0.6914009457338375,0.0
444,444,-0.2672031560903101,-0.3,1,462.0,955.0,1.0,343.0,1,0.7350758110009599,0.0
445,445,-0.2697381711061084,-0.3,1,483.0,837.0,1.0,260.0,1,0.819593818455748,0.0
446,446,0.8504411067005091,0.9,0,297.0,730.0,0.0,253.0,1,0.9286604965737795,0.0
447,447,0.6996658665585149,0.7,0,316.0,782.0,0.0,272.0,1,0.7149260020300922,0.0
448,448,0.3874963468394106,0.4,0,334.0,849.0,0.0,337.0,1,0.22574949748120401,0.0
449,449,-0.25058027562301444,-0.3,1,274.0,502.0,1.0,374.0,1,0.3005495884960448,0.0
450,450,-0.27126865710284354,-0.3,1,379.0,892.0,1.0,269.0,1,0.6522299134002509,0.0
451,451,0.29234677266314635,0.3,0,270.0,734.0,0.0,446.0,1,0.2017789370106328,0.0
452,452,0.90496628002801,0.9,0,268.0,735.0,0.0,217.0,1,0.6553310346639855,0.0
453,453,0.15328234384124007,0.2,0,286.0,897.0,0.0,267.0,1,0.9316878449648315,0.0
454,454,-0.2776683870367944,-0.3,1,457.0,910.0,1.0,343.0,1,0.21288123386870011,0.0
455,455,-0.1589284796756174,-0.2,1,313.0,748.0,1.0,369.0,1,0.8118666742324406,0.0
456,456,0.21951805011365866,0.2,0,331.0,778.0,0.0,191.0,1,0.9192023931238248,0.0
457,457,-0.9985154036927657,-1.0,1,356.0,718.0,1.0,296.0,1,0.19832180132453525,0.0
458,458,-0.6925268252914512,-0.7,1,279.0,915.0,1.0,246.0,1,0.7852136828304052,0.0
459,459,-0.7838715989784695,-0.8,1,415.0,795.0,1.0,180.0,1,0.3892065252756468,0.0
460,460,-0.2705747777923013,-0.3,1,455.0,720.0,1.0,175.0,1,0.9211739259349256,0.0
461,461,-0.3844826398164094,-0.4,1,398.0,649.0,0.0,253.0,0,0.6188514893169978,0.0
462,462,0.6556131883520546,0.7,0,388.0,984.0,0.0,188.0,1,0.7764064580508585,0.0
463,463,0.7491018993730769,0.7,0,468.0,979.0,0.0,433.0,1,0.2066106353198627,0.0
464,464,0.4186426909178522,0.4,0,309.0,737.0,0.0,274.0,1,0.9840402895696885,0.0
465,465,0.1726001588257582,0.2,0,456.0,656.0,0.0,408.0,1,0.33040755879952544,0.0
466,466,-0.9771094663064552,-1.0,1,481.0,770.0,1.0,99.0,1,0.560282939572835,0.0
467,467,-0.39970722109514134,-0.4,1,327.0,815.0,1.0,238.0,1,0.6972655785720542,0.0
468,468,0.015027932270712085,0.0,0,387.0,619.0,0.0,214.0,1,0.67191780895083,0.0
469,469,-0.731340356841536,-0.7,1,266.0,669.0,1.0,95.0,1,0.6915467734179366,0.0
470,470,-0.4579621718270728,-0.5,1,381.0,775.0,1.0,204.0,1,0.9469362993037387,0.0
471,471,0.8210200309936011,0.8,0,413.0,591.0,0.0,196.0,1,0.6432041283145171,0.0
472,472,0.45774885855306024,0.5,0,348.0,952.0,0.0,330.0,1,0.44150954416402977,0.0
473,473,-0.6219258505645269,-0.6,1,281.0,678.0,1.0,211.0,1,0.9102357538111477,0.0
474,474,-0.11610056847553474,-0.1,1,349.0,989.0,1.0,282.0,1,0.4583229527910684,0.0
475,475,0.7735491923003222,0.8,0,284.0,829.0,0.0,167.0,1,0.8911171870841648,0.0
476,476,0.5737585043123083,0.6,0,284.0,712.0,0.0,314.0,1,0.4958594039468145,0.0
477,477,0.5888792842238904,0.6,0,283.0,691.0,0.0,266.0,1,0.22930999132343927,0.0
478,478,0.25911314941439456,0.3,0,265.0,928.0,1.0,237.0,0,0.9091297292249281,0.0
479,479,0.07648692969239268,0.1,0,394.0,781.0,0.0,3825.0,1,0.1007688510923988,0.0
480,480,0.363465376130085,0.4,0,398.0,853.0,0.0,279.0,1,0.7681612517221444,0.0
481,481,0.9986532229854677,1.0,0,280.0,895.0,0.0,165.0,1,0.9898398425521141,0.0
482,482,0.44231887856599905,0.4,0,463.0,633.0,0.0,184.0,1,0.9410160184417207,0.0
483,483,-0.8449238763217464,-0.8,1,349.0,896.0,1.0,175.0,1,0.7220359332177351,0.0
484,484,-0.7005736390901112,-0.7,1,257.0,679.0,1.0,234.0,1,0.29432860772291203,0.0
485,485,-0.8364612149534976,-0.8,1,318.0,995.0,1.0,287.0,1,0.3713988763126621,0.0
486,486,0.04088204391527306,0.0,0,290.0,508.0,0.0,492.0,1,0.23801154956050838,0.0
487,487,0.5654714169549329,0.6,0,274.0,633.0,0.0,273.0,1,0.6519090839688304,0.0
488,488,-0.1509624391629314,-0.2,1,464.0,794.0,1.0,252.0,1,0.4149595795420927,0.0
489,489,-0.9387842450558512,-0.9,1,496.0,697.0,1.0,327.0,1,0.2848682770063142,0.0
490,490,-0.20189704850879453,-0.2,1,291.0,681.0,1.0,288.0,1,0.9608973098830043,0.0
491,491,0.3395833124058447,0.3,0,310.0,854.0,0.0,566.0,1,0.23950573250831347,0.0
492,492,-0.508648899605542,-0.5,1,342.0,551.0,1.0,277.0,1,0.3238535105896846,0.0
493,493,0.7867012854970621,0.8,0,316.0,582.0,0.0,312.0,1,0.722018545151679,0.0
494,494,0.7882614622098101,0.8,0,432.0,714.0,0.0,174.0,1,0.5615963527390241,0.0
495,495,0.7150485445789061,0.7,0,474.0,840.0,0.0,176.0,1,0.437814338050978,0.0
496,496,0.004571119041959282,0.0,0,446.0,712.0,1.0,142.0,0,0.37535218821747507,0.0
497,497,-0.04627065692559862,-0.0,1,293.0,904.0,1.0,313.0,1,0.4812363234889421,0.0
498,498,0.4506603529515789,0.5,0,311.0,788.0,0.0,171.0,1,0.9834095849057131,0.0
499,499,0.8969423946266772,0.9,0,418.0,928.0,0.0,224.0,1,0.9573680915823736,0.0
500,500,-0.1359146036247132,-0.1,1,346.0,941.0,0.0,463.0,0,0.9487893510376468,0.0
501,501,-0.26168115755553223,-0.3,1,284.0,972.0,1.0,374.0,1,0.23771467324476386,0.0
502,502,0.7335760456277538,0.7,0,414.0,874.0,0.0,132.0,1,0.8774673202397845,0.0
503,503,0.45703991163577196,0.5,0,337.0,934.0,0.0,319.0,1,0.3275163426796436,0.0
504,504,0.6424876367508772,0.6,0,473.0,701.0,0.0,356.0,1,0.657793489066788,0.0
505,505,0.57428104173903,0.6,0,466.0,909.0,0.0,305.0,1,0.4052978584191378,0.0
506,506,0.022378621134344634,0.0,0,447.0,944.0,0.0,3609.0,1,0.1310272812401294,0.0
507,507,-0.16097612536146988,-0.2,1,311.0,632.0,1.0,237.0,1,0.6524377327274564,0.0
508,508,0.95199145275631,1.0,0,492.0,848.0,0.0,130.0,1,0.3419368601019608,0.0
509,509,0.6667269024471969,0.7,0,346.0,996.0,0.0,298.0,1,0.4401204870819546,0.0
510,510,0.49465583553041137,0.5,0,495.0,881.0,0.0,184.0,1,0.710531520620363,0.0
511,511,0.4315064160878037,0.4,0,328.0,610.0,0.0,812.0,1,0.13264150118416929,0.0
512,512,-0.3826499708060578,-0.4,1,352.0,688.0,1.0,460.0,1,0.44533558526543415,0.0
513,513,-0.2469216226614579,-0.2,1,402.0,536.0,1.0,182.0,1,0.9904036086279759,0.0
514,514,0.4372467083820293,0.4,0,272.0,589.0,0.0,259.0,1,0.6940748056034212,0.0
515,515,0.9472675466065663,0.9,0,479.0,658.0,0.0,113.0,1,0.41735290406708414,0.0
516,516,0.02747674642996656,0.0,0,392.0,811.0,1.0,3797.0,0,0.1687842838200717,0.0
517,517,0.22424812310659892,0.2,0,360.0,656.0,0.0,614.0,1,0.3693931205399431,0.0
518,518,0.1973670474110485,0.2,0,386.0,970.0,0.0,374.0,1,0.6057912714013041,0.0
519,519,0.3644686582771972,0.4,0,316.0,595.0,0.0,299.0,1,0.396060893248371,0.0
520,520,0.04231501595046061,0.0,0,253.0,723.0,0.0,284.0,1,0.86322339765543,0.0
521,521,0.41226303713584356,0.4,0,496.0,840.0,0.0,734.0,1,0.14981048027335359,0.0
522,522,-0.7278305647851775,-0.7,1,263.0,513.0,1.0,364.0,1,0.17294868862355367,0.0
523,523,0.27525584714321205,0.3,0,431.0,857.0,0.0,1662.0,1,0.10524443132092737,0.0
524,524,0.014175806942898106,0.0,0,351.0,547.0,0.0,192.0,1,0.4429425962227471,0.0
525,525,-0.3101361969425305,-0.3,1,297.0,547.0,1.0,286.0,1,0.6789298821671222,0.0
526,526,-0.8234654534229087,-0.8,1,423.0,525.0,1.0,362.0,1,0.11984697897795843,0.0
527,527,0.7990479986216834,0.8,0,329.0,953.0,0.0,308.0,1,0.32191392731284085,0.0
528,528,0.09374477625984312,0.1,0,387.0,542.0,0.0,231.0,1,0.5793269209953601,0.0
529,529,0.8967086782008906,0.9,0,395.0,536.0,0.0,279.0,1,0.5521988979491024,0.0
530,530,-0.3695136534294716,-0.4,1,450.0,553.0,1.0,337.0,1,0.6438832668193946,0.0
531,531,0.16072482891471918,0.2,0,372.0,676.0,0.0,382.0,1,0.4829631305976714,0.0
532,532,0.5705850639177874,0.6,0,277.0,539.0,0.0,444.0,1,0.3427115843272791,0.0
533,533,-0.1332080445521311,-0.1,1,431.0,923.0,0.0,336.0,0,0.7591696657625661,0.0
534,534,-0.6388182830392795,-0.6,1,300.0,908.0,1.0,212.0,1,0.8054043944462149,0.0
535,535,0.4729107489938711,0.5,0,388.0,896.0,0.0,346.0,1,0.25893516554563034,0.0
536,536,-0.5606830918782253,-0.6,1,406.0,684.0,1.0,210.0,1,0.6558588363410054,0.0
537,537,0.45811334707309004,0.5,0,437.0,887.0,0.0,336.0,1,0.6084475288964855,0.0
538,538,0.956585995718028,1.0,0,262.0,805.0,0.0,193.0,1,0.2781033064482497,0.0
539,539,-0.1107478506940811,-0.1,1,342.0,889.0,1.0,279.0,1,0.6386898297595677,0.0
540,540,0.5523217861601217,0.6,0,465.0,535.0,0.0,180.0,1,0.7860979495102243,0.0
541,541,0.5411404539209088,0.5,0,378.0,838.0,0.0,204.0,1,0.9159779695129711,0.0
542,542,0.47669973102788754,0.5,0,350.0,865.0,0.0,205.0,1,0.5384751564612675,0.0
543,543,-0.20067092749839333,-0.2,1,461.0,752.0,1.0,477.0,1,0.4823612827598214,0.0
544,544,-0.4236580649743551,-0.4,1,277.0,793.0,1.0,380.0,1,0.30044304292923874,0.0
545,545,0.810679839659209,0.8,0,401.0,833.0,0.0,316.0,1,0.30888450152826064,0.0
546,546,0.3230852873882202,0.3,0,413.0,712.0,0.0,-185.0,1,0.9333768817988171,0.0
547,547,0.9344840801722816,0.9,0,446.0,526.0,0.0,148.0,1,0.9846492231126703,0.0
548,548,0.3696696420676844,0.4,0,375.0,968.0,0.0,517.0,1,0.4201620893823703,0.0
549,549,-0.16245082774508757,-0.2,1,469.0,922.0,1.0,719.0,1,0.3389237945248386,0.0
550,550,0.00742354712893234,0.0,0,446.0,985.0,0.0,309.0,1,0.423680432000188,0.0
551,551,-0.8028503728341951,-0.8,1,296.0,966.0,1.0,178.0,1,0.4704887654229627,0.0
552,552,0.3385737202640444,0.3,0,357.0,789.0,0.0,604.0,1,0.14515945643029515,0.0
553,553,0.6790107733658504,0.7,0,435.0,821.0,0.0,474.0,1,0.24013706724294404,0.0
554,554,0.4420215161084158,0.4,0,492.0,531.0,0.0,627.0,1,0.1610425553352902,0.0
555,555,-0.49377314100544445,-0.5,1,295.0,942.0,1.0,183.0,1,0.5000025368710989,0.0
556,556,-0.3054330819180793,-0.3,1,367.0,533.0,1.0,340.0,1,0.3609620587499214,0.0
557,557,-0.5936197721961403,-0.6,1,376.0,517.0,1.0,317.0,1,0.16902898758947188,0.0
558,558,0.7897791337305402,0.8,0,455.0,667.0,0.0,288.0,1,0.9208995924574906,0.0
559,559,0.9707362243931856,1.0,0,449.0,942.0,0.0,189.0,1,0.5102441620696008,0.0
560,560,0.5473071632203801,0.5,0,266.0,726.0,0.0,248.0,1,0.3282396193072993,0.0
561,561,-0.8111523995629486,-0.8,1,447.0,822.0,1.0,211.0,1,0.8345954223143597,0.0
562,562,-0.17227046986363614,-0.2,1,498.0,751.0,1.0,351.0,1,0.8334210150797126,0.0
563,563,0.3679304305858857,0.4,0,410.0,746.0,0.0,444.0,1,0.17986234306175652,0.0
564,564,0.9870285803380439,1.0,0,275.0,574.0,0.0,391.0,1,0.1892256707208099,0.0
565,565,0.6541266099772018,0.7,0,327.0,505.0,0.0,248.0,1,0.6480637329390663,0.0
566,566,0.8151076363814438,0.8,0,346.0,800.0,0.0,324.0,1,0.16436107820840395,0.0
567,567,-0.9619064008558684,-1.0,1,486.0,514.0,1.0,220.0,1,0.5048973308099204,0.0
568,568,0.4875807798756746,0.5,0,255.0,646.0,0.0,229.0,1,0.5143637077341574,0.0
569,569,0.24553602042481137,0.2,0,293.0,615.0,0.0,902.0,1,0.1512911202392933,0.0
570,570,0.21321584131629212,0.2,0,255.0,768.0,0.0,527.0,1,0.44045489831811013,0.0
571,571,-0.45173721303633463,-0.5,1,413.0,800.0,1.0,167.0,1,0.4933648273657353,0.0
572,572,0.991857107384245,1.0,0,293.0,748.0,0.0,279.0,1,0.29576058078270784,0.0
573,573,-0.5573055080515377,-0.6,1,467.0,791.0,1.0,342.0,1,0.1847538297274983,0.0
574,574,0.11489133947765429,0.1,0,396.0,567.0,0.0,867.0,1,0.22101852525639032,0.0
575,575,-0.1780849846315984,-0.2,1,348.0,936.0,1.0,3716.0,1,0.10831316444926511,0.0
576,576,-0.5201551283631534,-0.5,1,368.0,854.0,1.0,198.0,1,0.406184000546969,0.0
577,577,-0.9625481725700729,-1.0,1,304.0,909.0,1.0,137.0,1,0.6880045052889934,0.0
578,578,0.9032581215939721,0.9,0,306.0,799.0,0.0,445.0,1,0.12985033203795954,0.0
579,579,0.061383331152325527,0.1,0,292.0,711.0,0.0,3397.0,1,0.1823605148571466,0.0
580,580,-0.5699167094545801,-0.6,1,431.0,514.0,1.0,105.0,1,0.5873245487360857,0.0
581,581,-0.04715304935449893,-0.0,1,476.0,594.0,1.0,250.0,1,0.9178518672003909,0.0
582,582,-0.7711803753110642,-0.8,1,422.0,722.0,1.0,126.0,1,0.9239853578085921,0.0
583,583,0.34971855709431154,0.3,0,377.0,802.0,0.0,281.0,1,0.8059277089925363,0.0
584,584,-0.32205393768325097,-0.3,1,454.0,694.0,1.0,522.0,1,0.15898134214912604,0.0
585,585,-0.39682291285328053,-0.4,1,390.0,709.0,1.0,201.0,1,0.9807031277596981,0.0
586,586,0.9823489794477185,1.0,0,451.0,566.0,0.0,203.0,1,0.9563243075649528,0.0
587,587,-0.3436863375502399,-0.3,1,276.0,550.0,1.0,334.0,1,0.2683026966459429,0.0
588,588,0.7431393632794063,0.7,0,497.0,962.0,0.0,221.0,1,0.5751776410770166,0.0
589,589,-0.2149143951151089,-0.2,1,345.0,571.0,1.0,484.0,1,0.25088455393025644,0.0
590,590,0.39067727310009115,0.4,0,389.0,749.0,0.0,452.0,1,0.3727048903781598,0.0
591,591,-0.324219709051744,-0.3,1,324.0,756.0,1.0,310.0,1,0.8528132289519508,0.0
592,592,0.5084368606458796,0.5,0,401.0,855.0,0.0,164.0,1,0.8678557706059775,0.0
593,593,0.12043404318036721,0.1,0,268.0,538.0,1.0,-396.0,0,0.8514982820133002,0.0
594,594,0.48036780582650995,0.5,0,441.0,667.0,0.0,242.0,1,0.7846293610689901,0.0
595,595,-0.896802947937626,-0.9,1,320.0,882.0,1.0,238.0,1,0.5188607957510295,0.0
596,596,-0.36443451618901634,-0.4,1,364.0,825.0,1.0,281.0,1,0.5008529604476444,0.0
597,597,-0.751391977999269,-0.8,1,396.0,837.0,1.0,317.0,1,0.6878221000487166,0.0
598,598,-0.8934073348557692,-0.9,1,351.0,944.0,1.0,205.0,1,0.33165798486654796,0.0
599,599,-0.03235221568641111,-0.0,1,409.0,618.0,1.0,583.0,1,0.4818341956774611,0.0
600,600,-0.39161899579640136,-0.4,1,298.0,742.0,1.0,240.0,1,0.895863535959336,0.0
601,601,0.006060385896390352,0.0,0,472.0,844.0,0.0,764.0,1,0.26190995773742676,0.0
602,602,0.289110597795073,0.3,0,273.0,762.0,0.0,215.0,1,0.8863079425405908,0.0
603,603,0.3926952512376034,0.4,0,371.0,867.0,0.0,382.0,1,0.3427592433859714,0.0
604,604,-0.5303552315515401,-0.5,1,315.0,777.0,1.0,28.0,1,0.8725788829179597,0.0
605,605,0.9132653464523204,0.9,0,365.0,518.0,0.0,227.0,1,0.254339354756282,0.0
606,606,0.88069393207229,0.9,0,350.0,773.0,0.0,317.0,1,0.700355381223527,0.0
607,607,-0.09925205985256569,-0.1,1,431.0,814.0,1.0,475.0,1,0.26815327897260954,0.0
608,608,0.6450329017023304,0.6,0,275.0,965.0,0.0,280.0,1,0.38846093842039753,0.0
609,609,-0.7470951667298333,-0.7,1,446.0,881.0,1.0,293.0,1,0.19142820774840832,0.0
610,610,-0.746048413197465,-0.7,1,380.0,639.0,1.0,171.0,1,0.9480590924306324,0.0
611,611,-0.3270099389714376,-0.3,1,284.0,751.0,1.0,45.0,1,0.7736565009650018,0.0
612,612,0.22073231248713432,0.2,0,254.0,629.0,0.0,237.0,1,0.9327048710445971,0.0
613,613,0.8470216133358295,0.8,0,441.0,867.0,0.0,232.0,1,0.5573569632117599,0.0
614,614,-0.5663889103469697,-0.6,1,399.0,502.0,1.0,389.0,1,0.3130836560826195,0.0
615,615,-0.5230280212423781,-0.5,1,293.0,707.0,1.0,270.0,1,0.9525415013683951,0.0
616,616,-0.28586054947124273,-0.3,1,354.0,522.0,1.0,154.0,1,0.630192170878201,0.0
617,617,0.836357425532509,0.8,0,369.0,887.0,0.0,344.0,1,0.16438487385743825,0.0
618,618,-0.23035952817589678,-0.2,1,435.0,823.0,1.0,342.0,1,0.5051319501016257,0.0
619,619,0.4345529429312933,0.4,0,351.0,506.0,0.0,223.0,1,0.5304735323371497,0.0
620,620,0.5213783561602316,0.5,0,461.0,738.0,0.0,1231.0,1,0.1006572508643479,0.0
621,621,0.29062423888894884,0.3,0,411.0,502.0,0.0,457.0,1,0.2830427234194376,0.0
622,622,-0.215544750859765,-0.2,1,389.0,569.0,1.0,252.0,1,0.5353441284380096,0.0
623,623,-0.23972251063330852,-0.2,1,443.0,821.0,1.0,156.0,1,0.9510369906342689,0.0
624,624,0.3887287621698787,0.4,0,391.0,509.0,0.0,290.0,1,0.5601425891554634,0.0
625,625,0.14769907951953964,0.1,0,280.0,751.0,0.0,939.0,1,0.40644027966239515,0.0
626,626,-0.5779062285708341,-0.6,1,425.0,809.0,1.0,136.0,1,0.7543350479930473,0.0
627,627,-0.9951709445923287,-1.0,1,364.0,535.0,1.0,191.0,1,0.5411830418645329,0.0
628,628,-0.8262875372878034,-0.8,1,336.0,912.0,1.0,192.0,1,0.8806388135002444,0.0
629,629,-0.028467537059212455,-0.0,1,495.0,946.0,1.0,229.0,1,0.8402209905439545,0.0
630,630,-0.9899821124503962,-1.0,1,311.0,841.0,1.0,198.0,1,0.8863118120077939,0.0
631,631,0.4242757268005741,0.4,0,474.0,833.0,0.0,393.0,1,0.676099961194468,0.0
632,632,-0.2659275227274336,-0.3,1,330.0,842.0,0.0,298.0,0,0.5989966166546807,0.0
633,633,-0.1532209137671583,-0.2,1,307.0,793.0,1.0,440.0,1,0.18208474672667518,0.0
634,634,0.034535458998045776,0.0,0,423.0,663.0,0.0,324.0,1,0.8757212377531965,0.0
635,635,-0.048608088015902995,-0.0,1,356.0,888.0,1.0,276.0,1,0.6870477238224135,0.0
636,636,-0.2878036622040434,-0.3,1,313.0,512.0,1.0,225.0,1,0.39375948159633356,0.0
637,637,0.1410587421695575,0.1,0,353.0,950.0,1.0,167.0,0,0.47701866418587,0.0
638,638,-0.41708079084893623,-0.4,1,305.0,708.0,1.0,177.0,1,0.6139573059893604,0.0
639,639,-0.32868240612147237,-0.3,1,465.0,888.0,1.0,177.0,1,0.954554552064276,0.0
640,640,-0.9606490751291108,-1.0,1,259.0,566.0,1.0,185.0,1,0.6893130408324449,0.0
641,641,-0.26521709587792075,-0.3,1,354.0,541.0,1.0,335.0,1,0.3264245348653849,0.0
642,642,0.7660255648801761,0.8,0,482.0,652.0,0.0,216.0,1,0.49226699914172534,0.0
643,643,0.6156906578470844,0.6,0,393.0,729.0,0.0,228.0,1,0.9998455432659744,0.0
644,644,0.2808142378380487,0.3,0,342.0,847.0,0.0,281.0,1,0.6321286889402274,0.0
645,645,-0.7697630774276718,-0.8,1,405.0,689.0,1.0,186.0,1,0.8997573468872369,0.0
646,646,-0.501019028657008,-0.5,1,330.0,990.0,1.0,280.0,1,0.2861309726802327,0.0
647,647,-0.3894560784496617,-0.4,1,383.0,524.0,1.0,163.0,1,0.49636431989794794,0.0
648,648,-0.9281525478455241,-0.9,1,355.0,711.0,1.0,264.0,1,0.7916918025554077,0.0
649,649,-0.73335227324886,-0.7,1,439.0,513.0,1.0,118.0,1,0.9003604131375054,0.0
650,650,0.2762404253739261,0.3,0,350.0,517.0,0.0,283.0,1,0.9335773468176806,0.0
651,651,-0.534277426881403,-0.5,1,373.0,529.0,1.0,278.0,1,0.3504438340328977,0.0
652,652,-0.9247053427504273,-0.9,1,314.0,621.0,1.0,145.0,1,0.8118748821686911,0.0
653,653,-0.7935809555837898,-0.8,1,405.0,803.0,1.0,192.0,1,0.578007848015634,0.0
654,654,-0.08106027880713085,-0.1,1,478.0,701.0,1.0,431.0,1,0.247707637136243,0.0
655,655,0.6269534078162913,0.6,0,477.0,530.0,0.0,243.0,1,0.5275014282369955,0.0
656,656,0.284641434819064,0.3,0,325.0,873.0,0.0,452.0,1,0.15855814635216092,0.0
657,657,0.3401596987920925,0.3,0,345.0,512.0,1.0,313.0,0,0.6966246954014153,0.0
658,658,0.08374111036197451,0.1,0,436.0,575.0,0.0,3989.0,1,0.14555106630717463,0.0
659,659,-0.6062014009089007,-0.6,1,422.0,662.0,1.0,266.0,1,0.36794525755779084,0.0
660,660,-0.5826110233734922,-0.6,1,317.0,799.0,1.0,274.0,1,0.3022705542423755,0.0
661,661,-0.9256782393149205,-0.9,1,478.0,921.0,0.0,-79.0,0,0.8929329864380409,0.0
662,662,0.483498406005745,0.5,0,296.0,551.0,0.0,353.0,1,0.41281791900104536,0.0
663,663,0.37653898518840223,0.4,0,431.0,788.0,0.0,261.0,1,0.5500308093553768,0.0
664,664,0.8591975821993338,0.9,0,338.0,867.0,0.0,305.0,1,0.32735398820127215,0.0
665,665,-0.8054765539891053,-0.8,1,406.0,590.0,1.0,214.0,1,0.43574093034925643,0.0
666,666,-0.7480724706071671,-0.7,1,280.0,934.0,1.0,176.0,1,0.6292538853562546,0.0
667,667,-0.318304291426724,-0.3,1,305.0,607.0,1.0,428.0,1,0.2815944915404268,0.0
668,668,0.7861594785326413,0.8,0,345.0,721.0,0.0,254.0,1,0.33530651077766516,0.0
669,669,0.7959354363089579,0.8,0,352.0,753.0,0.0,175.0,1,0.6346536902826047,0.0
670,670,0.5396324642149399,0.5,0,381.0,858.0,0.0,321.0,1,0.5523870375116483,0.0
671,671,0.8560811305155338,0.9,0,456.0,848.0,0.0,246.0,1,0.916699433343009,0.0
672,672,0.8766467643309979,0.9,0,425.0,900.0,0.0,195.0,1,0.8855196519748155,0.0
673,673,0.6610339220683343,0.7,0,275.0,980.0,0.0,265.0,1,0.4317255796354298,0.0
674,674,0.31133874212992874,0.3,0,470.0,900.0,1.0,290.0,0,0.7844091305895794,0.0
675,675,-0.8042917379294834,-0.8,1,452.0,830.0,1.0,288.0,1,0.5045846348401425,0.0
676,676,0.3886485960050783,0.4,0,387.0,601.0,0.0,322.0,1,0.2860146188681843,0.0
677,677,-0.7111760534112073,-0.7,1,332.0,761.0,1.0,227.0,1,0.821231961730652,0.0
678,678,-0.5733796985787389,-0.6,1,391.0,736.0,1.0,143.0,1,0.8156321787689405,0.0
679,679,-0.5347943902190955,-0.5,1,363.0,785.0,1.0,192.0,1,0.9199229023054428,0.0
680,680,-0.07604362488055627,-0.1,1,332.0,766.0,1.0,3032.0,1,0.18598869375973484,0.0
681,681,0.4835878434037042,0.5,0,494.0,534.0,0.0,202.0,1,0.6472495584590048,0.0
682,682,0.6152081001412157,0.6,0,463.0,979.0,0.0,318.0,1,0.7223593250917965,0.0
683,683,-0.8648969687508403,-0.9,1,345.0,889.0,1.0,106.0,1,0.8320752430628511,0.0
684,684,-0.06795835991257926,-0.1,1,413.0,640.0,0.0,257.0,0,0.7922292295299291,0.0
685,685,0.125624337022338,0.1,0,398.0,631.0,0.0,311.0,1,0.4856401071721055,0.0
686,686,0.7598901171606645,0.8,0,264.0,665.0,0.0,231.0,1,0.61082861841435,0.0
687,687,-0.6453693227075732,-0.6,1,419.0,746.0,1.0,195.0,1,0.926958590861282,0.0
688,688,0.47047820239871463,0.5,0,496.0,553.0,0.0,341.0,1,0.3020331890469884,0.0
689,689,-0.5829072876874319,-0.6,1,464.0,553.0,1.0,183.0,1,0.8199587934635724,0.0
690,690,-0.3799575452272075,-0.4,1,491.0,926.0,1.0,233.0,1,0.39267687769257864,0.0
691,691,0.6690467812981955,0.7,0,338.0,524.0,0.0,778.0,1,0.11365177319407507,0.0
692,692,0.012615949912393232,0.0,0,471.0,599.0,1.0,330.0,0,0.5352204474232001,0.0
693,693,0.6524871608564036,0.7,0,389.0,597.0,0.0,764.0,1,0.12028013296306662,0.0
694,694,-0.9304961520444823,-0.9,1,427.0,933.0,1.0,210.0,1,0.6485463690204477,0.0
695,695,0.8694732196254573,0.9,0,260.0,974.0,0.0,266.0,1,0.41403453468411544,0.0
696,696,-0.8730716611787819,-0.9,1,390.0,546.0,0.0,-286.0,0,0.7886864371809739,0.0
697,697,-0.36549206782667665,-0.4,1,363.0,811.0,1.0,206.0,1,0.6556182813122977,0.0
698,698,0.7662386479936998,0.8,0,317.0,509.0,0.0,294.0,1,0.3356396638740795,0.0
699,699,0.8318217652554485,0.8,0,350.0,922.0,0.0,168.0,1,0.680639703771037,0.0
700,700,0.00214817372810594,0.0,0,405.0,807.0,0.0,1808.0,1,0.1927684102691288,0.0
701,701,0.5891153736117904,0.6,0,327.0,879.0,0.0,384.0,1,0.22902692947058406,0.0
702,702,-0.06987369449587533,-0.1,1,478.0,516.0,0.0,496.0,0,0.33353643962268764,0.0
703,703,0.1382065321924606,0.1,0,497.0,909.0,0.0,214.0,1,0.37291891896714824,0.0
704,704,-0.12154017786708105,-0.1,1,329.0,795.0,1.0,276.0,1,0.5993298676118475,0.0
705,705,-0.24178878809272097,-0.2,1,390.0,641.0,1.0,329.0,1,0.37909215314281786,0.0
706,706,0.26084576848502916,0.3,0,328.0,989.0,0.0,343.0,1,0.9556673785755898,0.0
707,707,0.08149134557713933,0.1,0,459.0,757.0,0.0,254.0,1,0.5344983346964272,0.0
708,708,-0.4360747826332987,-0.4,1,317.0,707.0,1.0,586.0,1,0.13224263638709713,0.0
709,709,0.36673248720070317,0.4,0,466.0,998.0,0.0,306.0,1,0.4361676514041063,0.0
710,710,-0.2125579267102018,-0.2,1,312.0,910.0,1.0,208.0,1,0.6808657855361949,0.0
711,711,0.4582290803335318,0.5,0,439.0,589.0,0.0,342.0,1,0.2583450055684348,0.0
712,712,-0.45712978012598415,-0.5,1,297.0,714.0,1.0,239.0,1,0.5458716529195157,0.0
713,713,0.5965987439102312,0.6,0,388.0,845.0,0.0,267.0,1,0.9689949039007774,0.0
714,714,0.7582631171491991,0.8,0,415.0,782.0,0.0,263.0,1,0.5620318032455051,0.0
715,715,0.33378786492793155,0.3,0,460.0,945.0,0.0,265.0,1,0.5221242132905407,0.0
716,716,-0.06329669694861573,-0.1,1,394.0,922.0,1.0,904.0,1,0.18406491510121908,0.0
717,717,0.5379562804580009,0.5,0,445.0,815.0,0.0,230.0,1,0.496058440523659,0.0
718,718,-0.23023649614092112,-0.2,1,490.0,784.0,1.0,326.0,1,0.8210712263216033,0.0
719,719,-0.434303957042661,-0.4,1,300.0,897.0,1.0,443.0,1,0.18330822959796084,0.0
720,720,-0.1977806988338202,-0.2,1,351.0,555.0,1.0,314.0,1,0.7548220366630302,0.0
721,721,0.9176716321437952,0.9,0,465.0,720.0,0.0,195.0,1,0.9285881475480819,0.0
722,722,0.8284903728416368,0.8,0,469.0,863.0,0.0,188.0,1,0.3862221933164136,0.0
723,723,0.4353793377677022,0.4,0,355.0,606.0,0.0,239.0,1,0.4692496451690812,0.0
724,724,0.09074419467164985,0.1,0,483.0,704.0,0.0,1603.0,1,0.17338125553450257,0.0
725,725,-0.7475441079391498,-0.7,1,336.0,832.0,1.0,212.0,1,0.32116484716417926,0.0
726,726,-0.6482968914894438,-0.6,1,444.0,892.0,1.0,234.0,1,0.2802178358489279,0.0
727,727,0.19294633246985726,0.2,0,306.0,638.0,0.0,396.0,1,0.620580723492546,0.0
728,728,0.9787022270571175,1.0,0,317.0,575.0,0.0,188.0,1,0.5347168688649763,0.0
729,729,0.3677057380847746,0.4,0,333.0,753.0,0.0,434.0,1,0.21222705446532536,0.0
730,730,0.20505023865347627,0.2,0,485.0,536.0,0.0,729.0,1,0.1979986859972825,0.0
731,731,-0.6132082072101577,-0.6,1,332.0,602.0,1.0,316.0,1,0.316684057116755,0.0
732,732,0.499660990165387,0.5,0,367.0,689.0,0.0,224.0,1,0.7525393198271659,0.0
733,733,-0.7940876180078502,-0.8,1,250.0,584.0,1.0,356.0,1,0.19153848648060628,0.0
734,734,-0.44022152594114616,-0.4,1,426.0,987.0,1.0,157.0,1,0.363666444053929,0.0
735,735,-0.7209365592096775,-0.7,1,274.0,897.0,1.0,159.0,1,0.6479357148192204,0.0
736,736,-0.15494843669599367,-0.2,1,265.0,612.0,1.0,1483.0,1,0.1483805089838307,0.0
737,737,-0.007544679317566416,-0.0,1,355.0,743.0,1.0,342.0,1,0.5269909239334106,0.0
738,738,0.5900171952009492,0.6,0,387.0,787.0,0.0,266.0,1,0.34330448367742794,0.0
739,739,-0.5006302266197515,-0.5,1,343.0,514.0,1.0,313.0,1,0.5526283674930511,0.0
740,740,-0.8090717400237335,-0.8,1,306.0,984.0,1.0,80.0,1,0.939835654883187,0.0
741,741,0.8886076529329294,0.9,0,337.0,819.0,0.0,244.0,1,0.6827015010058207,0.0
742,742,0.6834117799525665,0.7,0,342.0,770.0,0.0,208.0,1,0.6257831292850751,0.0
743,743,-0.3104698459028703,-0.3,1,499.0,980.0,1.0,361.0,1,0.9092216071326563,0.0
744,744,0.9695077366659404,1.0,0,274.0,994.0,0.0,182.0,1,0.817574649415957,0.0
745,745,0.9027719573074471,0.9,0,301.0,881.0,0.0,278.0,1,0.33226704944647817,0.0
746,746,-0.3175502782216264,-0.3,1,318.0,876.0,1.0,486.0,1,0.22263584517804552,0.0
747,747,-0.3963925913579758,-0.4,1,379.0,624.0,1.0,197.0,1,0.8731213404703518,0.0
748,748,-0.36974810739898145,-0.4,1,440.0,807.0,1.0,363.0,1,0.421872183645432,0.0
749,749,0.4791214547054361,0.5,0,367.0,906.0,0.0,447.0,1,0.22353954442151325,0.0
750,750,-0.6506837878978922,-0.7,1,341.0,828.0,1.0,281.0,1,0.38237961977113466,0.0
751,751,-0.847676315839587,-0.8,1,375.0,918.0,1.0,227.0,1,0.6362528386623019,0.0
752,752,-0.3761155387319619,-0.4,1,292.0,978.0,1.0,130.0,1,0.8266569181178458,0.0
753,753,0.48013648760636474,0.5,0,286.0,521.0,0.0,283.0,1,0.5595210382643137,0.0
754,754,-0.5491286057304201,-0.5,1,276.0,702.0,1.0,212.0,1,0.859124900534495,0.0
755,755,0.5052545799205712,0.5,0,369.0,906.0,0.0,145.0,1,0.8621860587142762,0.0
756,756,-0.1565332499290355,-0.2,1,408.0,882.0,1.0,190.0,1,0.6689575494938481,0.0
757,757,-0.572030686726624,-0.6,1,442.0,827.0,1.0,151.0,1,0.8746294262754072,0.0
758,758,0.5656950266159679,0.6,0,254.0,749.0,0.0,287.0,1,0.3204078871117294,0.0
759,759,-0.15623863083863054,-0.2,1,394.0,614.0,1.0,302.0,1,0.47458591189836874,0.0
760,760,-0.07759594306098294,-0.1,1,494.0,663.0,1.0,303.0,1,0.7779899733045754,0.0
761,761,-0.1877876501659872,-0.2,1,410.0,812.0,0.0,-942.0,0,0.8602293314348,0.0
762,762,0.45010839914241085,0.5,0,471.0,702.0,0.0,397.0,1,0.27374836567201905,0.0
763,763,0.8542486168582355,0.9,0,409.0,927.0,0.0,204.0,1,0.5732443277594078,0.0
764,764,0.20313422346664778,0.2,0,304.0,906.0,0.0,290.0,1,0.8521853210154025,0.0
765,765,0.8797342684153426,0.9,0,268.0,739.0,0.0,103.0,1,0.6916694452562759,0.0
766,766,-0.5270769543428449,-0.5,1,447.0,856.0,1.0,237.0,1,0.9494652867987712,0.0
767,767,0.6207721536080943,0.6,0,381.0,551.0,0.0,328.0,1,0.7808839793094408,0.0
768,768,0.9480401449473257,0.9,0,422.0,807.0,0.0,241.0,1,0.5679574154904821,0.0
769,769,0.5711662390808816,0.6,0,296.0,578.0,0.0,236.0,1,0.5787652987341652,0.0
770,770,-0.49285692971719075,-0.5,1,469.0,934.0,1.0,277.0,1,0.5075208000477812,0.0
771,771,-0.8504252999692701,-0.9,1,425.0,739.0,1.0,256.0,1,0.27472048296492957,0.0
772,772,-0.258281303008729,-0.3,1,268.0,600.0,0.0,352.0,0,0.3934684310535762,0.0
773,773,0.7554475606075115,0.8,0,343.0,563.0,1.0,164.0,0,0.9385336145526312,0.0
774,774,0.8886837054316137,0.9,0,426.0,792.0,0.0,262.0,1,0.4162692855410194,0.0
775,775,-0.3744833582783369,-0.4,1,451.0,721.0,1.0,138.0,1,0.7887981818605866,0.0
776,776,-0.04711263248820674,-0.0,1,251.0,793.0,0.0,386.0,0,0.6334266230475778,0.0
777,777,0.8902696361414846,0.9,0,487.0,663.0,0.0,330.0,1,0.3878742164675014,0.0
778,778,-0.9654479679061212,-1.0,1,386.0,846.0,1.0,158.0,1,0.809901338873134,0.0
779,779,-0.011420126259285457,-0.0,1,416.0,764.0,0.0,3820.0,0,0.13056426212385572,0.0
780,780,-0.8075195823280847,-0.8,1,332.0,566.0,1.0,192.0,1,0.42341627081491573,0.0
781,781,0.23837332010815904,0.2,0,429.0,925.0,0.0,716.0,1,0.2103079616644306,0.0
782,782,0.09498402336436129,0.1,0,392.0,604.0,0.0,684.0,1,0.25123617120465375,0.0
783,783,0.1138905643401864,0.1,0,340.0,792.0,0.0,638.0,1,0.5405307571144936,0.0
784,784,0.24957203299492647,0.2,0,385.0,589.0,0.0,616.0,1,0.28657987227548787,0.0
785,785,-0.264387372923218,-0.3,1,371.0,592.0,1.0,227.0,1,0.6005171125364372,0.0
786,786,0.8517246053329537,0.9,0,275.0,694.0,0.0,291.0,1,0.31477962885641025,0.0
787,787,-0.98843505955688,-1.0,1,460.0,920.0,1.0,210.0,1,0.5308263369912298,0.0
788,788,-0.12899183048667284,-0.1,1,253.0,855.0,0.0,502.0,0,0.4129192907254592,0.0
789,789,0.10582459224811247,0.1,0,365.0,824.0,0.0,391.0,1,0.4060006546155579,0.0
790,790,0.7280236451987832,0.7,0,268.0,955.0,0.0,547.0,1,0.15686581177701114,0.0
791,791,0.5364702702318498,0.5,0,407.0,879.0,0.0,804.0,1,0.12087473808367405,0.0
792,792,-0.17156484074122647,-0.2,1,418.0,529.0,0.0,283.0,0,0.8871023227208182,0.0
793,793,0.6246341565923323,0.6,0,483.0,887.0,0.0,330.0,1,0.35826699169475074,0.0
794,794,-0.08553114761576963,-0.1,1,297.0,988.0,1.0,335.0,1,0.8947256534616006,0.0
795,795,-0.9710908386232269,-1.0,1,411.0,849.0,1.0,340.0,1,0.1562569389422374,0.0
796,796,0.9497819161272063,0.9,0,367.0,603.0,1.0,0.0,0,0.9023415809758489,0.0
797,797,0.5774419463900278,0.6,0,450.0,704.0,0.0,366.0,1,0.6205253415672786,0.0
798,798,0.3534851102382617,0.4,0,492.0,815.0,0.0,143.0,1,0.9883266833118323,0.0
799,799,-0.9563497207728577,-1.0,1,493.0,893.0,1.0,254.0,1,0.4379820019430807,0.0
800,800,0.9387949146725598,0.9,0,334.0,958.0,0.0,218.0,1,0.5671875954637722,0.0
801,801,-0.7801640562537138,-0.8,1,314.0,586.0,1.0,230.0,1,0.9682845009680054,0.0
802,802,-0.25449062402763434,-0.3,1,400.0,540.0,1.0,320.0,1,0.347840083225612,0.0
803,803,-0.47428003311306854,-0.5,1,297.0,779.0,1.0,184.0,1,0.7251685297408197,0.0
804,804,0.9525350292291224,1.0,0,403.0,796.0,0.0,231.0,1,0.4926341259718502,0.0
805,805,-0.41921765232576713,-0.4,1,355.0,610.0,1.0,235.0,1,0.6135062326289291,0.0
806,806,-0.5907256520116573,-0.6,1,373.0,572.0,1.0,295.0,1,0.2861687528996282,0.0
807,807,-0.16480049052293322,-0.2,1,407.0,531.0,1.0,1012.0,1,0.15693412363618678,0.0
808,808,0.7556313428289392,0.8,0,494.0,876.0,0.0,200.0,1,0.5156063025708072,0.0
809,809,0.1983589831645285,0.2,0,489.0,781.0,1.0,210.0,0,0.9036157765112459,0.0
810,810,0.675659938615276,0.7,0,424.0,776.0,0.0,350.0,1,0.415798361075823,0.0
811,811,0.871884678726552,0.9,0,406.0,630.0,0.0,344.0,1,0.2805456592897948,0.0
812,812,0.0027113372280715975,0.0,0,329.0,843.0,0.0,268.0,1,0.6962706659170531,0.0
813,813,-0.8127305775917928,-0.8,1,337.0,528.0,1.0,225.0,1,0.466082151569024,0.0
814,814,0.175532988469842,0.2,0,404.0,716.0,0.0,100.0,1,0.7978054825651385,0.0
815,815,-0.6857143428077088,-0.7,1,461.0,870.0,1.0,299.0,1,0.537515648230729,0.0
816,816,0.5794947159184156,0.6,0,352.0,614.0,0.0,284.0,1,0.7300221761025186,0.0
817,817,0.6891241670536641,0.7,0,342.0,977.0,0.0,231.0,1,0.7863320496755186,0.0
818,818,-0.836859110044075,-0.8,1,497.0,545.0,1.0,178.0,1,0.57455394289558,0.0
819,819,0.40721196763318335,0.4,0,287.0,910.0,0.0,203.0,1,0.8612859185187015,0.0
820,820,-0.8413675296366112,-0.8,1,319.0,603.0,1.0,318.0,1,0.17352588242111325,0.0
821,821,-0.2552888713704089,-0.3,1,441.0,814.0,1.0,3745.0,1,0.10430957363790544,0.0
822,822,-0.1967549033410918,-0.2,1,496.0,609.0,0.0,215.0,0,0.9451426591697404,0.0
823,823,-0.015102373218743192,-0.0,1,371.0,983.0,1.0,286.0,1,0.9934764235770459,0.0
824,824,-0.9022375302050512,-0.9,1,294.0,576.0,1.0,10.0,1,0.5850693299241261,0.0
825,825,-0.15019527613109118,-0.2,1,480.0,892.0,1.0,748.0,1,0.22898547935495892,0.0
826,826,0.49353454388606144,0.5,0,345.0,920.0,0.0,205.0,1,0.6825929160180165,0.0
827,827,0.8088813388569489,0.8,0,258.0,878.0,0.0,284.0,1,0.4542714632076349,0.0
828,828,-0.4934653544574634,-0.5,1,376.0,822.0,1.0,182.0,1,0.5090081521824387,0.0
829,829,0.054336809352003135,0.1,0,428.0,900.0,0.0,822.0,1,0.22868705351544802,0.0
830,830,-0.9341751616311764,-0.9,1,407.0,890.0,1.0,163.0,1,0.9387788427485524,0.0
831,831,-0.6809297920376969,-0.7,1,384.0,971.0,1.0,185.0,1,0.4747974882452415,0.0
832,832,0.17110676621904153,0.2,0,487.0,767.0,0.0,856.0,1,0.24697092821117822,0.0
833,833,-0.14958420491216318,-0.1,1,444.0,746.0,1.0,200.0,1,0.2962188595669968,0.0
834,834,0.664242147956809,0.7,0,268.0,529.0,0.0,283.0,1,0.402290816878919,0.0
835,835,-0.5002851060232343,-0.5,1,416.0,774.0,1.0,590.0,1,0.11565776729266847,0.0
836,836,-0.27460569060164475,-0.3,1,446.0,699.0,1.0,225.0,1,0.9101747062498133,0.0
837,837,0.773499146890241,0.8,0,394.0,927.0,0.0,199.0,1,0.3272472641862858,0.0
838,838,0.8656502328492686,0.9,0,372.0,552.0,0.0,296.0,1,0.2666826284505999,0.0
839,839,-0.04282908119696649,-0.0,1,401.0,749.0,0.0,750.0,0,0.3078497926458821,0.0
840,840,-0.43872650253212164,-0.4,1,400.0,842.0,1.0,258.0,1,0.35336768373531346,0.0
841,841,0.3202684573874748,0.3,0,252.0,740.0,0.0,308.0,1,0.8972074728371984,0.0
842,842,-0.8507856902695046,-0.9,1,374.0,996.0,1.0,180.0,1,0.4784946759963846,0.0
843,843,0.5633001600917238,0.6,0,478.0,613.0,0.0,229.0,1,0.3189904438103305,0.0
844,844,-0.2789884362397075,-0.3,1,322.0,905.0,0.0,303.0,0,0.8944499843976027,0.0
845,845,0.42620300306513714,0.4,0,303.0,728.0,0.0,389.0,1,0.19189626173321173,0.0
846,846,-0.6104761075552216,-0.6,1,337.0,805.0,1.0,168.0,1,0.8293103408924607,0.0
847,847,0.5761796876743472,0.6,0,327.0,558.0,0.0,175.0,1,0.998655041956332,0.0
848,848,-0.8657875844460536,-0.9,1,438.0,879.0,1.0,143.0,1,0.6610725180000687,0.0
849,849,0.23005780050790503,0.2,0,453.0,722.0,0.0,485.0,1,0.254345785665795,0.0
850,850,0.9753278871575106,1.0,0,392.0,888.0,0.0,240.0,1,0.36248729751382847,0.0
851,851,-0.6159792269200794,-0.6,1,389.0,966.0,1.0,205.0,1,0.812442435072947,0.0
852,852,0.13959301012726866,0.1,0,456.0,672.0,0.0,152.0,1,0.8074277199141008,0.0
853,853,0.37339810717421074,0.4,0,297.0,633.0,0.0,370.0,1,0.45741379618308053,0.0
854,854,-0.8046151730932551,-0.8,1,464.0,762.0,1.0,324.0,1,0.16869173432692713,0.0
855,855,0.5638015829336158,0.6,0,333.0,712.0,0.0,405.0,1,0.530064908336713,0.0
856,856,0.3385095949480761,0.3,0,482.0,661.0,0.0,297.0,1,0.6384775132671464,0.0
857,857,-0.24493772975543404,-0.2,1,394.0,764.0,1.0,392.0,1,0.7058530311194731,0.0
858,858,-0.7528204652782033,-0.8,1,450.0,729.0,1.0,191.0,1,0.3895358979995909,0.0
859,859,-0.35232603902619153,-0.4,1,269.0,622.0,1.0,239.0,1,0.9954824842723076,0.0
860,860,0.7157277379754783,0.7,0,279.0,745.0,0.0,546.0,1,0.13944250048753573,0.0
861,861,0.8382506267761438,0.8,0,456.0,876.0,0.0,308.0,1,0.5609192852484404,0.0
862,862,-0.9626251238310912,-1.0,1,287.0,603.0,1.0,230.0,1,0.9758778456088527,0.0
863,863,0.06967918314595889,0.1,0,257.0,885.0,1.0,378.0,0,0.7628236285253505,0.0
864,864,-0.017252471228017763,-0.0,1,394.0,995.0,1.0,281.0,1,0.8700761845765598,0.0
865,865,0.012885113567695283,0.0,0,324.0,677.0,0.0,319.0,1,0.8103471009765428,0.0
866,866,0.06968997946078792,0.1,0,465.0,824.0,0.0,281.0,1,0.7651225801753815,0.0
867,867,-0.788772410247526,-0.8,1,362.0,691.0,1.0,137.0,1,0.9794030721242951,0.0
868,868,-0.7322203222678931,-0.7,1,483.0,803.0,1.0,104.0,1,0.7671143677703349,0.0
869,869,-0.5525080553949144,-0.6,1,260.0,505.0,1.0,275.0,1,0.5008857704003145,0.0
870,870,-0.1378985790748659,-0.1,1,453.0,571.0,1.0,646.0,1,0.25246889793808414,0.0
871,871,0.9782355684923827,1.0,0,353.0,612.0,0.0,215.0,1,0.4048303875778797,0.0
872,872,0.689262323876676,0.7,0,295.0,798.0,0.0,357.0,1,0.2366279870378035,0.0
873,873,0.3491070075274081,0.3,0,384.0,505.0,0.0,561.0,1,0.30318337236954285,0.0
874,874,0.007788807524921948,0.0,0,457.0,909.0,1.0,754.0,0,0.20384078048374846,0.0
875,875,-0.25609268683957853,-0.3,1,456.0,900.0,1.0,324.0,1,0.42815208638290025,0.0
876,876,0.35654869924935917,0.4,0,330.0,950.0,0.0,340.0,1,0.5461511521910046,0.0
877,877,0.03255244170822236,0.0,0,370.0,705.0,0.0,385.0,1,0.6464541484990214,0.0
878,878,-0.2783195895407793,-0.3,1,358.0,784.0,1.0,438.0,1,0.16900030326021476,0.0
879,879,0.06671595541122644,0.1,0,379.0,562.0,0.0,439.0,1,0.2979885290867925,0.0
880,880,-0.6442003683154152,-0.6,1,256.0,952.0,1.0,312.0,1,0.2959319950746308,0.0
881,881,-0.5807549029148631,-0.6,1,383.0,952.0,1.0,305.0,1,0.7187075830979275,0.0
882,882,-0.8956150180665132,-0.9,1,339.0,553.0,1.0,268.0,1,0.5885839085154058,0.0
883,883,-0.7954494598762683,-0.8,1,395.0,627.0,1.0,158.0,1,0.6967050314899548,0.0
884,884,-0.5897383207422946,-0.6,1,282.0,894.0,1.0,424.0,1,0.14840333741655096,0.0
885,885,-0.9785081985912001,-1.0,1,278.0,925.0,1.0,197.0,1,0.44037621669124827,0.0
886,886,0.9837195930694373,1.0,0,409.0,567.0,0.0,224.0,1,0.32783024389891313,0.0
887,887,-0.7222185788982327,-0.7,1,275.0,571.0,1.0,264.0,1,0.2948237177250467,0.0
888,888,-0.703684554728776,-0.7,1,331.0,741.0,1.0,468.0,1,0.13250863092091686,0.0
889,889,-0.9436224279682421,-0.9,1,347.0,672.0,1.0,131.0,1,0.6021667893649679,0.0
890,890,-0.35896607789134394,-0.4,1,363.0,896.0,1.0,281.0,1,0.5162892263940182,0.0
891,891,-0.18595295570562875,-0.2,1,313.0,850.0,1.0,317.0,1,0.4470272009718309,0.0
892,892,-0.3401233342070611,-0.3,1,293.0,686.0,1.0,151.0,1,0.8879335089063672,0.0
893,893,0.6353523203583151,0.6,0,332.0,699.0,0.0,279.0,1,0.6185224290407996,0.0
894,894,-0.02130054880023957,-0.0,1,414.0,844.0,0.0,472.0,0,0.8265401031545492,0.0
895,895,-0.844231968644269,-0.8,1,419.0,996.0,1.0,195.0,1,0.6431303063490721,0.0
896,896,0.7075817179827177,0.7,0,337.0,698.0,0.0,345.0,1,0.5260010891599382,0.0
897,897,0.33520563180833385,0.3,0,250.0,803.0,0.0,727.0,1,0.1781618132473882,0.0
898,898,0.8824298212522919,0.9,0,332.0,882.0,0.0,206.0,1,0.9588114364804209,0.0
899,899,0.70994082418304,0.7,0,300.0,981.0,0.0,309.0,1,0.6964206363741389,0.0
900,900,-0.3942890145345479,-0.4,1,297.0,622.0,1.0,201.0,1,0.46245858904199477,0.0
901,901,0.9908538307748986,1.0,0,476.0,937.0,0.0,307.0,1,0.3801891097565351,0.0
902,902,0.22012385396301815,0.2,0,373.0,501.0,0.0,366.0,1,0.7877220314394573,0.0
903,903,-0.5063838903152025,-0.5,1,251.0,573.0,1.0,716.0,1,0.10365916762444422,0.0
904,904,-0.7951597143250555,-0.8,1,408.0,868.0,1.0,204.0,1,0.4350512887989465,0.0
905,905,-0.61570979294774,-0.6,1,283.0,705.0,1.0,262.0,1,0.3261893251384053,0.0
906,906,0.34651196320023336,0.3,0,362.0,954.0,0.0,184.0,1,0.9195940661365669,0.0
907,907,-0.712111231324762,-0.7,1,368.0,530.0,1.0,152.0,1,0.6333150008066291,0.0
908,908,0.7690696078175936,0.8,0,288.0,960.0,0.0,522.0,1,0.14181403439487572,0.0
909,909,0.04924000783466731,0.0,0,403.0,886.0,0.0,301.0,1,0.3855315605121804,0.0
910,910,0.8211855115311806,0.8,0,491.0,550.0,0.0,279.0,1,0.6994346910048421,0.0
911,911,-0.31449129175668533,-0.3,1,411.0,530.0,1.0,219.0,1,0.4155199418697012,0.0
912,912,-0.340913247417322,-0.3,1,308.0,585.0,1.0,247.0,1,0.8439729655056254,0.0
913,913,-0.9773856988518899,-1.0,1,480.0,919.0,1.0,231.0,1,0.8731084875903165,0.0
914,914,-0.2467067388512354,-0.2,1,494.0,558.0,1.0,378.0,1,0.2803775304065676,0.0
915,915,-0.6672225559024427,-0.7,1,483.0,855.0,1.0,132.0,1,0.9159122340848161,0.0
916,916,0.32945997820074924,0.3,0,385.0,852.0,0.0,213.0,1,0.7674546741580294,0.0
917,917,0.18086810644637508,0.2,0,317.0,509.0,0.0,984.0,1,0.13907250542998106,0.0
918,918,0.7320477785481057,0.7,0,364.0,764.0,0.0,162.0,1,0.990304968280749,0.0
919,919,-0.029914034295426273,-0.0,1,457.0,837.0,1.0,366.0,1,0.3980604929583076,0.0
920,920,0.6073509093121208,0.6,0,415.0,797.0,0.0,818.0,1,0.12735186180866556,0.0
921,921,-0.47186070191961527,-0.5,1,255.0,540.0,1.0,155.0,1,0.5441251002525475,0.0
922,922,0.6091903299050387,0.6,0,463.0,974.0,0.0,153.0,1,0.9747811880532019,0.0
923,923,0.06351086209849388,0.1,0,387.0,659.0,1.0,194.0,0,0.7389385094978745,0.0
924,924,0.05622851479906177,0.1,0,259.0,964.0,0.0,247.0,1,0.9875661953127508,0.0
925,925,0.12132160211352194,0.1,0,332.0,679.0,0.0,669.0,1,0.45775325835836234,0.0
926,926,-0.4661909821651222,-0.5,1,384.0,733.0,1.0,213.0,1,0.4562611531155445,0.0
927,927,-0.9467025389866579,-0.9,1,335.0,953.0,1.0,182.0,1,0.9723785294688897,0.0
928,928,0.8284088841757307,0.8,0,354.0,939.0,0.0,147.0,1,0.9429182448439195,0.0
929,929,-0.8006586761106567,-0.8,1,410.0,976.0,1.0,174.0,1,0.9404841254074715,0.0
930,930,-0.5169138177914436,-0.5,1,299.0,712.0,1.0,99.0,1,0.8123572840097436,0.0
931,931,0.08617582370929888,0.1,0,399.0,725.0,1.0,496.0,0,0.6339333339529466,0.0
932,932,0.16147867227752188,0.2,0,315.0,747.0,0.0,198.0,1,0.9889228840507206,0.0
933,933,-0.09697166919970068,-0.1,1,423.0,890.0,1.0,367.0,1,0.5915193204861747,0.0
934,934,-0.9040023999305455,-0.9,1,278.0,589.0,1.0,203.0,1,0.9287604700036941,0.0
935,935,0.00793451814468904,0.0,0,391.0,812.0,1.0,347.0,0,0.478436444351805,0.0
936,936,-0.3130952374647884,-0.3,1,445.0,502.0,1.0,203.0,1,0.7595064430585023,0.0
937,937,0.3866989500923377,0.4,0,471.0,996.0,0.0,673.0,1,0.17442107800969353,0.0
938,938,0.7607326222940434,0.8,0,490.0,757.0,0.0,353.0,1,0.42581016313593556,0.0
939,939,-0.11219429940470982,-0.1,1,252.0,911.0,1.0,277.0,1,0.41879190753041184,0.0
940,940,-0.13971314163654847,-0.1,1,363.0,992.0,1.0,235.0,1,0.7322430527934639,0.0
941,941,0.6641159985983027,0.7,0,412.0,979.0,0.0,239.0,1,0.672197923091823,0.0
942,942,0.6232395244261506,0.6,0,335.0,812.0,0.0,263.0,1,0.5880607974578466,0.0
943,943,0.3593422563763198,0.4,0,282.0,799.0,0.0,429.0,1,0.42764295822325205,0.0
944,944,0.2822938137182289,0.3,0,397.0,917.0,0.0,1276.0,1,0.1322459407526587,0.0
945,945,0.04675755206556631,0.0,0,389.0,686.0,1.0,315.0,0,0.5188506554359665,0.0
946,946,0.9928916443319042,1.0,0,296.0,580.0,0.0,294.0,1,0.19987462582787585,0.0
947,947,0.5627838340792439,0.6,0,370.0,680.0,0.0,350.0,1,0.6299804490518602,0.0
948,948,0.638437339399577,0.6,0,407.0,644.0,0.0,359.0,1,0.3568655247943052,0.0
949,949,0.3346965883270243,0.3,0,252.0,571.0,0.0,327.0,1,0.9150490017720788,0.0
950,950,0.9907409262351254,1.0,0,470.0,678.0,0.0,162.0,1,0.5244796664354306,0.0
951,951,0.3965143120003711,0.4,0,312.0,697.0,0.0,341.0,1,0.6561173367838028,0.0
952,952,-0.2253248820976428,-0.2,1,465.0,805.0,1.0,280.0,1,0.9271646145328127,0.0
953,953,0.47100081509391045,0.5,0,338.0,861.0,0.0,311.0,1,0.5493042956908111,0.0
954,954,-0.2445370623472063,-0.2,1,455.0,701.0,1.0,314.0,1,0.9720470222161045,0.0
955,955,0.18581176977797442,0.2,0,289.0,889.0,0.0,772.0,1,0.23863420704002958,0.0
956,956,0.7649689460031877,0.8,0,388.0,888.0,0.0,224.0,1,0.3949622333257211,0.0
957,957,-0.2171221225345359,-0.2,1,465.0,682.0,1.0,343.0,1,0.6494007208450637,0.0
958,958,0.6286999106862892,0.6,0,415.0,969.0,0.0,546.0,1,0.18249552898576976,0.0
959,959,-0.17305462939604355,-0.2,1,446.0,577.0,1.0,307.0,1,0.46672500836072617,0.0
960,960,0.45868975705255166,0.5,0,283.0,831.0,0.0,316.0,1,0.8886510463088679,0.0
961,961,0.07525137411880789,0.1,0,284.0,650.0,0.0,356.0,1,0.865540480050015,0.0
962,962,-0.36623307787548853,-0.4,1,252.0,611.0,1.0,327.0,1,0.25590562484912616,0.0
963,963,-0.47450391326779373,-0.5,1,471.0,839.0,1.0,620.0,1,0.1503325073505177,0.0
964,964,0.6162875983558107,0.6,0,454.0,697.0,0.0,609.0,1,0.13852521616416666,0.0
965,965,0.05863027009223232,0.1,0,481.0,605.0,0.0,414.0,1,0.2584296593216918,0.0
966,966,-0.6387342958204236,-0.6,1,394.0,863.0,1.0,193.0,1,0.6726595096635252,0.0
967,967,0.7765464742796522,0.8,0,430.0,532.0,0.0,278.0,1,0.2978337493965346,0.0
968,968,-0.19259480981401467,-0.2,1,469.0,925.0,1.0,86.0,1,0.4931581515453016,0.0
969,969,0.14326881636593058,0.1,0,290.0,615.0,0.0,305.0,1,0.3399851761828241,0.0
970,970,0.2964342115399152,0.3,0,344.0,581.0,0.0,465.0,1,0.33455725498883543,0.0
971,971,-0.24144530219407323,-0.2,1,489.0,958.0,1.0,363.0,1,0.6028053109170912,0.0
972,972,0.0872694758356578,0.1,0,397.0,793.0,1.0,320.0,0,0.5417668778346281,0.0
973,973,0.2270546158490354,0.2,0,431.0,755.0,0.0,464.0,1,0.8677869804098541,0.0
974,974,-0.14548586729236956,-0.1,1,289.0,815.0,1.0,236.0,1,0.47225580164549286,0.0
975,975,0.09912021460327392,0.1,0,376.0,616.0,1.0,518.0,0,0.2888849936643321,0.0
976,976,0.21064454523291576,0.2,0,429.0,626.0,0.0,385.0,1,0.8763950641979013,0.0
977,977,0.021673404012259923,0.0,0,281.0,911.0,0.0,3808.0,1,0.10549211862770087,0.0
978,978,0.030669318269932244,0.0,0,289.0,874.0,1.0,207.0,0,0.5946786422861607,0.0
979,979,-0.3995016479663729,-0.4,1,496.0,550.0,1.0,284.0,1,0.768921898944712,0.0
980,980,0.9023007424561149,0.9,0,335.0,900.0,0.0,235.0,1,0.7094764612724497,0.0
981,981,0.5541960346829695,0.6,0,342.0,583.0,0.0,265.0,1,0.41481382780875276,0.0
982,982,-0.16942203949012624,-0.2,1,271.0,823.0,1.0,356.0,1,0.8948258130815762,0.0
983,983,-0.4892714471418951,-0.5,1,346.0,629.0,0.0,125.0,0,0.7511643022316408,0.0
984,984,0.9899472458539758,1.0,0,251.0,849.0,0.0,190.0,1,0.9233418448340066,0.0
985,985,-0.42838836894848864,-0.4,1,486.0,648.0,1.0,346.0,1,0.21540334681414874,0.0
986,986,0.5100016658996676,0.5,0,432.0,603.0,0.0,315.0,1,0.28036759273024636,0.0
987,987,-0.31780206760590457,-0.3,1,458.0,790.0,1.0,212.0,1,0.9436029352115848,0.0
988,988,-0.7352709957943802,-0.7,1,346.0,684.0,1.0,240.0,1,0.2747118864604259,0.0
989,989,-0.16901313503857707,-0.2,1,493.0,950.0,0.0,347.0,0,0.6111172827663424,0.0
990,990,-0.875178554220031,-0.9,1,371.0,547.0,1.0,262.0,1,0.3166093680821768,0.0
991,991,-0.6870748923671821,-0.7,1,281.0,993.0,1.0,276.0,1,0.20629270399548522,0.0
992,992,0.921424490249876,0.9,0,251.0,876.0,0.0,183.0,1,0.5004870692907853,0.0
993,993,0.7728001524736137,0.8,0,466.0,675.0,0.0,209.0,1,0.7900754986933906,0.0
994,994,-0.5876283735704959,-0.6,1,403.0,571.0,1.0,186.0,1,0.9326715270669994,0.0
995,995,-0.6414593604988192,-0.6,1,269.0,871.0,1.0,190.0,1,0.8092159554150322,0.0
996,996,0.8472491740747783,0.8,0,429.0,783.0,0.0,188.0,1,0.9418177320701384,0.0
997,997,0.44732953010443177,0.4,0,412.0,566.0,0.0,272.0,1,0.3416191574762211,0.0
998,998,-0.032205176773541844,-0.0,1,301.0,627.0,1.0,632.0,1,0.6293259996931598,0.0
999,999,0.7197433565467806,0.7,0,488.0,981.0,0.0,151.0,1,0.8073009071558291,0.0
1000,1000,-0.9764054629365579,-1.0,1,413.0,541.0,1.0,266.0,1,0.7092308719992267,0.0
1001,1001,0.32918295877988357,0.3,0,463.0,997.0,0.0,220.0,1,0.8010130293953813,0.0
1002,1002,0.6601923737732935,0.7,0,483.0,663.0,0.0,284.0,1,0.3889818189365839,0.0
1003,1003,-0.06401425086134815,-0.1,1,251.0,813.0,1.0,386.0,1,0.5631454077760571,0.0
1004,1004,-0.8809251722690199,-0.9,1,263.0,884.0,1.0,163.0,1,0.5312954887757539,0.0
1005,1005,-0.5723660088510754,-0.6,1,487.0,845.0,1.0,228.0,1,0.5056821412607997,0.0
1006,1006,-0.7100488888624361,-0.7,1,401.0,751.0,1.0,258.0,1,0.9423908458326283,0.0
1007,1007,0.1551299458686135,0.2,0,334.0,584.0,0.0,352.0,1,0.53614805429411,0.0
1008,1008,0.28723329062885505,0.3,0,363.0,724.0,0.0,233.0,1,0.7414220461179998,0.0
1009,1009,0.8515127328631096,0.9,0,438.0,880.0,0.0,212.0,1,0.8048400061403623,0.0
1010,1010,0.04595071658218863,0.0,0,338.0,836.0,1.0,116.0,0,0.8821251323195858,0.0
1011,1011,0.4295371618720858,0.4,0,292.0,713.0,0.0,345.0,1,0.4400244232431081,0.0
1012,1012,0.8893916749839135,0.9,0,480.0,583.0,0.0,137.0,1,0.7257174382961156,0.0
1013,1013,-0.8234598849076389,-0.8,1,450.0,808.0,1.0,182.0,1,0.9599449363505504,0.0
1014,1014,0.8951405504250305,0.9,0,384.0,585.0,0.0,331.0,1,0.212330879538437,0.0
1015,1015,-0.027170686935769517,-0.0,1,366.0,787.0,0.0,257.0,0,0.8556717539920243,0.0
1016,1016,0.9715710207978601,1.0,0,443.0,953.0,0.0,274.0,1,0.49747695263539127,0.0
1017,1017,-0.9963387947190729,-1.0,1,417.0,916.0,1.0,167.0,1,0.5368698173216447,0.0
1018,1018,-0.3724575868621711,-0.4,1,301.0,792.0,1.0,467.0,1,0.22236474030981535,0.0
1019,1019,0.4236561320811256,0.4,0,286.0,990.0,0.0,184.0,1,0.8959960936752361,0.0
1020,1020,0.7900389152460019,0.8,0,293.0,693.0,0.0,184.0,1,0.3160246353292553,0.0
1021,1021,-0.8597781495385808,-0.9,1,290.0,508.0,1.0,142.0,1,0.8325307781804934,0.0
1022,1022,0.8056503913673501,0.8,0,319.0,793.0,0.0,288.0,1,0.6036675111987854,0.0
1023,1023,-0.4263849933545396,-0.4,1,268.0,910.0,1.0,312.0,1,0.5908317895089686,0.0
1024,1024,-0.040284829740750316,-0.0,1,462.0,994.0,0.0,124.0,0,0.7632777418112126,0.0
1025,1025,-0.4283832385075035,-0.4,1,488.0,519.0,1.0,453.0,1,0.1194472289174611,0.0
1026,1026,-0.5377794743580755,-0.5,1,315.0,714.0,1.0,471.0,1,0.22453803018173096,0.0
1027,1027,-0.5470868508175992,-0.5,1,386.0,789.0,1.0,165.0,1,0.7806435969780546,0.0
1028,1028,-0.8403157103419039,-0.8,1,274.0,525.0,1.0,241.0,1,0.48178604940036407,0.0
1029,1029,0.8870575371853426,0.9,0,449.0,832.0,0.0,269.0,1,0.36618749017175767,0.0
1030,1030,-0.0777279692788082,-0.1,1,402.0,829.0,1.0,419.0,1,0.6856801439184125,0.0
1031,1031,-0.6541399607793723,-0.7,1,368.0,826.0,1.0,586.0,1,0.11187094216246438,0.0
1032,1032,0.05577100026191406,0.1,0,499.0,659.0,1.0,402.0,0,0.7715161680231232,0.0
1033,1033,-0.30784510713301816,-0.3,1,343.0,898.0,1.0,319.0,1,0.4440056965310841,0.0
1034,1034,0.05729913468416137,0.1,0,477.0,936.0,1.0,297.0,0,0.529659125603896,0.0
1035,1035,-0.6433512210103571,-0.6,1,424.0,952.0,1.0,174.0,1,0.7061144368354286,0.0
1036,1036,-0.3522791898870914,-0.4,1,466.0,803.0,1.0,221.0,1,0.39661528384520695,0.0
1037,1037,0.38361400048608707,0.4,0,355.0,594.0,0.0,221.0,1,0.4455464327409099,0.0
1038,1038,0.24154622175416152,0.2,0,374.0,974.0,0.0,602.0,1,0.2499455230490359,0.0
1039,1039,0.02491823797904935,0.0,0,292.0,833.0,1.0,365.0,0,0.7238904372801009,0.0
1040,1040,-0.4415121222591891,-0.4,1,311.0,623.0,1.0,196.0,1,0.6673209879828398,0.0
1041,1041,0.9682841512984719,1.0,0,261.0,813.0,0.0,196.0,1,0.8642239379105937,0.0
1042,1042,-0.30315920595440793,-0.3,1,339.0,643.0,1.0,358.0,1,0.8162215050032966,0.0
1043,1043,-0.8841948520215348,-0.9,1,487.0,939.0,1.0,84.0,1,0.33476687045091036,0.0
1044,1044,0.43297179426367594,0.4,0,309.0,696.0,0.0,175.0,1,0.7405691504269899,0.0
1045,1045,0.2925302781973811,0.3,0,307.0,638.0,0.0,285.0,1,0.734202179895799,0.0
1046,1046,0.625813961883201,0.6,0,283.0,633.0,0.0,284.0,1,0.9600939600624789,0.0
1047,1047,-0.4417051310535496,-0.4,1,416.0,953.0,1.0,281.0,1,0.8387554625605488,0.0
1048,1048,-0.9004675570902418,-0.9,1,350.0,608.0,1.0,332.0,1,0.14135556427688817,0.0
1049,1049,0.8785564455554489,0.9,0,443.0,627.0,0.0,310.0,1,0.3468586111563991,0.0
1050,1050,-0.4808571581397927,-0.5,1,378.0,593.0,1.0,149.0,1,0.8269423129978031,0.0
1051,1051,0.20496305369794832,0.2,0,389.0,891.0,0.0,-310.0,1,0.817541923963334,0.0
1052,1052,-0.8203723657866719,-0.8,1,276.0,616.0,1.0,138.0,1,0.8840072996067122,0.0
1053,1053,0.03855345743500216,0.0,0,440.0,533.0,0.0,717.0,1,0.5155738332082738,0.0
1054,1054,0.707298310216014,0.7,0,256.0,587.0,0.0,507.0,1,0.1767918840263316,0.0
1055,1055,-0.6354244862419691,-0.6,1,252.0,771.0,1.0,237.0,1,0.8792093576467935,0.0
1056,1056,0.28272594398947115,0.3,0,366.0,848.0,0.0,596.0,1,0.18938336257791322,0.0
1057,1057,0.010198729795514394,0.0,0,275.0,541.0,1.0,604.0,0,0.29577970536082865,0.0
1058,1058,-0.9165955482126793,-0.9,1,293.0,848.0,1.0,209.0,1,0.7061590079121329,0.0
1059,1059,0.864424488986808,0.9,0,319.0,940.0,0.0,261.0,1,0.3047162198721508,0.0
1060,1060,-0.5225869847079192,-0.5,1,474.0,850.0,1.0,276.0,1,0.6958730523971645,0.0
1061,1061,-0.13618579435011036,-0.1,1,254.0,664.0,1.0,272.0,1,0.8094441509007145,0.0
1062,1062,0.24378345683759584,0.2,0,394.0,825.0,0.0,1061.0,1,0.15748885723424402,0.0
1063,1063,0.3612781780140655,0.4,0,462.0,622.0,0.0,256.0,1,0.3736020676924259,0.0
1064,1064,-0.8608108177965561,-0.9,1,305.0,593.0,1.0,122.0,1,0.8897171207637548,0.0
1065,1065,0.14131268846593636,0.1,0,491.0,808.0,1.0,211.0,0,0.7936700456324258,0.0
1066,1066,0.5328598352464748,0.5,0,398.0,564.0,0.0,98.0,1,0.7809780636958139,0.0
1067,1067,-0.029977148275706966,-0.0,1,310.0,736.0,1.0,254.0,1,0.7623253798265575,0.0
1068,1068,0.47209556952506593,0.5,0,453.0,589.0,0.0,298.0,1,0.7954423873149125,0.0
1069,1069,0.5331674449582577,0.5,0,440.0,770.0,0.0,270.0,1,0.35728633604686866,0.0
1070,1070,0.9598691293239279,1.0,0,381.0,523.0,0.0,206.0,1,0.2083521145905145,0.0
1071,1071,0.9390540126461542,0.9,0,432.0,821.0,0.0,217.0,1,0.7346929599596064,0.0
1072,1072,0.8089944933434503,0.8,0,478.0,545.0,0.0,217.0,1,0.44227301908837924,0.0
1073,1073,-0.75875993560817,-0.8,1,389.0,863.0,1.0,338.0,1,0.18366993283349073,0.0
1074,1074,0.21371023981889348,0.2,0,471.0,642.0,0.0,347.0,1,0.9203143633411991,0.0
1075,1075,-0.029183104702060758,-0.0,1,404.0,678.0,0.0,138.0,0,0.9136319794433077,0.0
1076,1076,0.9470747345852075,0.9,0,430.0,833.0,0.0,167.0,1,0.9159519228131053,0.0
1077,1077,0.41024762857472474,0.4,0,483.0,731.0,0.0,236.0,1,0.8406445835221894,0.0
1078,1078,0.7474690743145747,0.7,0,279.0,638.0,0.0,143.0,1,0.4289543587521618,0.0
1079,1079,0.318294729567147,0.3,0,449.0,723.0,0.0,328.0,1,0.7899750951168767,0.0
1080,1080,-0.23237298555778407,-0.2,1,273.0,956.0,1.0,1291.0,1,0.12336267486459838,0.0
1081,1081,-0.41378951383952,-0.4,1,301.0,509.0,1.0,280.0,1,0.5902784244555522,0.0
1082,1082,-0.6217380851269318,-0.6,1,286.0,799.0,1.0,175.0,1,0.6600623052570218,0.0
1083,1083,0.9873774952927097,1.0,0,424.0,758.0,0.0,418.0,1,0.17516415632211707,0.0
1084,1084,-0.690171707252186,-0.7,1,267.0,666.0,1.0,177.0,1,0.708975926083502,0.0
1085,1085,-0.039282357815152213,-0.0,1,345.0,664.0,1.0,221.0,1,0.6505737560931749,0.0
1086,1086,-0.9032539973963027,-0.9,1,424.0,816.0,1.0,120.0,1,0.9719671312784104,0.0
1087,1087,-0.41405334143482775,-0.4,1,453.0,816.0,1.0,111.0,1,0.7914186770906526,0.0
1088,1088,0.25578152277817345,0.3,0,340.0,631.0,0.0,249.0,1,0.7324651087617724,0.0
1089,1089,0.5527629462924208,0.6,0,473.0,799.0,0.0,38.0,1,0.9120851145460528,0.0
1090,1090,-0.4941134878999458,-0.5,1,390.0,826.0,1.0,234.0,1,0.5412772916703851,0.0
1091,1091,0.838454907991669,0.8,0,457.0,966.0,0.0,237.0,1,0.36232928077214455,0.0
1092,1092,-0.9257105294728165,-0.9,1,419.0,929.0,1.0,162.0,1,0.7063812181782386,0.0
1093,1093,-0.791976777661545,-0.8,1,379.0,957.0,1.0,204.0,1,0.7975537024680729,0.0
1094,1094,0.6493275028105083,0.6,0,432.0,747.0,0.0,211.0,1,0.8692749689914956,0.0
1095,1095,0.8295516533501741,0.8,0,294.0,567.0,0.0,689.0,1,0.1326331098721907,0.0
1096,1096,0.7186819329913137,0.7,0,260.0,713.0,0.0,217.0,1,0.5654959193943844,0.0
1097,1097,-0.3763140885260574,-0.4,1,309.0,521.0,1.0,270.0,1,0.8802641420919778,0.0
1098,1098,-0.9946303139336037,-1.0,1,253.0,931.0,1.0,176.0,1,0.6341010549106287,0.0
1099,1099,0.6183049653899406,0.6,0,461.0,792.0,0.0,257.0,1,0.45164165199561646,0.0
1100,1100,0.5782492946872326,0.6,0,279.0,751.0,0.0,350.0,1,0.44963965709601283,0.0
1101,1101,0.7713039375309532,0.8,0,379.0,556.0,0.0,335.0,1,0.21848845824396795,0.0
1102,1102,0.35809093173743123,0.4,0,453.0,709.0,0.0,368.0,1,0.4440841894085208,0.0
1103,1103,-0.8833098417280583,-0.9,1,427.0,849.0,1.0,224.0,1,0.5974554736601555,0.0
1104,1104,0.37312994939584176,0.4,0,384.0,805.0,0.0,-739.0,1,0.7631437743250106,0.0
1105,1105,-0.33480282921426197,-0.3,1,253.0,956.0,1.0,251.0,1,0.698179032162985,0.0
1106,1106,-0.48893428187754906,-0.5,1,288.0,514.0,1.0,148.0,1,0.9541137210084258,0.0
1107,1107,-0.44998630624787395,-0.4,1,412.0,787.0,1.0,211.0,1,0.9686138412231229,0.0
1108,1108,0.571425184840828,0.6,0,390.0,591.0,0.0,329.0,1,0.27419959859945287,0.0
1109,1109,-0.15479002404194753,-0.2,1,357.0,951.0,1.0,412.0,1,0.43528651747013236,0.0
1110,1110,0.9066250867800327,0.9,0,309.0,657.0,0.0,194.0,1,0.334900781611442,0.0
1111,1111,0.2023509482622201,0.2,0,419.0,851.0,0.0,270.0,1,0.8283202798142744,0.0
1112,1112,-0.7640724558228218,-0.8,1,413.0,582.0,1.0,155.0,1,0.8054020708599808,0.0
1113,1113,0.9563807956845649,1.0,0,499.0,617.0,0.0,224.0,1,0.37687093360556634,0.0
1114,1114,0.829833682269218,0.8,0,499.0,706.0,0.0,235.0,1,0.7481998832581087,0.0
1115,1115,0.5865618315234138,0.6,0,345.0,624.0,0.0,241.0,1,0.811894699977435,0.0
1116,1116,0.0051364724743137025,0.0,0,340.0,845.0,0.0,285.0,1,0.8990320409248251,0.0
1117,1117,0.3965793629253245,0.4,0,283.0,779.0,0.0,238.0,1,0.987210829191267,0.0
1118,1118,0.44452986646358084,0.4,0,458.0,652.0,0.0,330.0,1,0.5130655640639871,0.0
1119,1119,0.9673831634529699,1.0,0,363.0,593.0,0.0,214.0,1,0.9718421722452625,0.0
1120,1120,-0.6200345853943043,-0.6,1,487.0,628.0,1.0,125.0,1,0.9016897083724178,0.0
1121,1121,-0.17124139081358525,-0.2,1,315.0,875.0,1.0,-370.0,1,0.9663080218779424,0.0
1122,1122,-0.7145695650979791,-0.7,1,398.0,940.0,1.0,302.0,1,0.22263246713836282,0.0
1123,1123,-0.884577819358743,-0.9,1,418.0,701.0,1.0,141.0,1,0.703325549063064,0.0
1124,1124,-0.6907351770543706,-0.7,1,349.0,545.0,1.0,456.0,1,0.11096517565137665,0.0
1125,1125,-0.09280769794902843,-0.1,1,373.0,866.0,1.0,361.0,1,0.9399541724290428,0.0
1126,1126,-0.7660967205927156,-0.8,1,361.0,822.0,1.0,217.0,1,0.21997611788344673,0.0
1127,1127,0.3275043465612699,0.3,0,352.0,908.0,0.0,630.0,1,0.2809650107334493,0.0
1128,1128,0.05780509506308129,0.1,0,369.0,684.0,0.0,487.0,1,0.5818193607890565,0.0
1129,1129,-0.4592640035280784,-0.5,1,260.0,713.0,1.0,377.0,1,0.4213890632810119,0.0
1130,1130,0.6084110749899678,0.6,0,375.0,594.0,0.0,201.0,1,0.44083684337228435,0.0
1131,1131,-0.3702762681433982,-0.4,1,384.0,838.0,1.0,328.0,1,0.6245866599425401,0.0
1132,1132,-0.6758607697630079,-0.7,1,284.0,972.0,1.0,284.0,1,0.5240810516065552,0.0
1133,1133,-0.0581260824441987,-0.1,1,260.0,696.0,0.0,284.0,0,0.5402282915951805,0.0
1134,1134,-0.9213571038643675,-0.9,1,476.0,511.0,1.0,263.0,1,0.22311355882127815,0.0
1135,1135,-0.9614291251298313,-1.0,1,383.0,784.0,1.0,133.0,1,0.5537880600406995,0.0
1136,1136,-0.4045729042550814,-0.4,1,373.0,683.0,1.0,334.0,1,0.5098236443706656,0.0
1137,1137,0.708820687128692,0.7,0,295.0,788.0,0.0,327.0,1,0.5209472745555537,0.0
1138,1138,-0.7500225900569559,-0.8,1,387.0,632.0,1.0,131.0,1,0.9325671690487424,0.0
1139,1139,-0.7800772651348122,-0.8,1,446.0,593.0,1.0,171.0,1,0.8556159536954746,0.0
1140,1140,0.16517111077427105,0.2,0,499.0,614.0,0.0,397.0,1,0.6047613691646109,0.0
1141,1141,0.7367266245789059,0.7,0,258.0,997.0,0.0,215.0,1,0.5717727829548084,0.0
1142,1142,-0.39968883406195843,-0.4,1,475.0,630.0,1.0,355.0,1,0.7849113341658175,0.0
1143,1143,-0.3282467799202895,-0.3,1,336.0,562.0,1.0,182.0,1,0.6925566124042437,0.0
1144,1144,0.5268856363694345,0.5,0,449.0,839.0,0.0,1412.0,1,0.10612567608853501,0.0
1145,1145,-0.9823393192442735,-1.0,1,422.0,689.0,1.0,209.0,1,0.7578473680861862,0.0
1146,1146,0.31943510059407987,0.3,0,386.0,670.0,0.0,564.0,1,0.2641018670438484,0.0
1147,1147,0.06807291882331956,0.1,0,473.0,749.0,1.0,208.0,0,0.5387973489696379,0.0
1148,1148,-0.3759985028052002,-0.4,1,468.0,980.0,1.0,672.0,1,0.16320946312469953,0.0
1149,1149,0.39512840996930665,0.4,0,414.0,854.0,0.0,392.0,1,0.4177379863294135,0.0
1150,1150,-0.8321427731564313,-0.8,1,397.0,577.0,1.0,366.0,1,0.23738969572895885,0.0
1151,1151,0.556813639435711,0.6,0,340.0,538.0,0.0,342.0,1,0.8158804220957868,0.0
1152,1152,0.7078653143132381,0.7,0,339.0,781.0,0.0,240.0,1,0.5282610846531051,0.0
1153,1153,0.7793213647681476,0.8,0,410.0,847.0,0.0,393.0,1,0.19733130056796017,0.0
1154,1154,-0.2616869534375108,-0.3,1,437.0,652.0,1.0,381.0,1,0.48102812694779473,0.0
1155,1155,0.4291610414433631,0.4,0,314.0,652.0,0.0,224.0,1,0.8260030768459428,0.0
1156,1156,-0.7192777932063548,-0.7,1,450.0,699.0,1.0,131.0,1,0.4051927174113088,0.0
1157,1157,0.5754367236408817,0.6,0,490.0,722.0,0.0,478.0,1,0.20795121157047752,0.0
1158,1158,0.7795974935866989,0.8,0,371.0,965.0,0.0,344.0,1,0.4072755334365352,0.0
1159,1159,-0.26780267484579334,-0.3,1,307.0,673.0,1.0,300.0,1,0.5719200030258685,0.0
1160,1160,-0.6984260470747201,-0.7,1,473.0,651.0,1.0,176.0,1,0.4192023197136153,0.0
1161,1161,-0.7362393748566753,-0.7,1,409.0,645.0,1.0,186.0,1,0.779457536805896,0.0
1162,1162,-0.4841459681925826,-0.5,1,469.0,578.0,1.0,313.0,1,0.16523424785101712,0.0
1163,1163,0.40170159318502074,0.4,0,316.0,659.0,0.0,315.0,1,0.7674943046050038,0.0
1164,1164,0.15769407011265635,0.2,0,408.0,981.0,0.0,661.0,1,0.21556609177843666,0.0
1165,1165,0.5299595029580091,0.5,0,320.0,643.0,0.0,307.0,1,0.33204985060364833,0.0
1166,1166,-0.6189904402561639,-0.6,1,250.0,558.0,1.0,222.0,1,0.9124716682727553,0.0
1167,1167,0.7923519063798015,0.8,0,312.0,952.0,0.0,186.0,1,0.5256317154669559,0.0
1168,1168,-0.46330701805565466,-0.5,1,353.0,840.0,1.0,97.0,1,0.9180737273719503,0.0
1169,1169,0.7050814483940153,0.7,0,336.0,792.0,0.0,262.0,1,0.6507267688034164,0.0
1170,1170,0.9650756503069073,1.0,0,353.0,813.0,0.0,244.0,1,0.7799876081230787,0.0
1171,1171,-0.12316081954208813,-0.1,1,389.0,860.0,1.0,191.0,1,0.6825519339965503,0.0
1172,1172,-0.47870131853166287,-0.5,1,261.0,779.0,1.0,350.0,1,0.47996499119318914,0.0
1173,1173,-0.9514475893254861,-1.0,1,430.0,963.0,1.0,157.0,1,0.4937212213924004,0.0
1174,1174,-0.19300505128232293,-0.2,1,490.0,869.0,1.0,161.0,1,0.9711326176275915,0.0
1175,1175,-0.35951305739411765,-0.4,1,270.0,500.0,1.0,360.0,1,0.9297978169341627,0.0
1176,1176,-0.45638147503534676,-0.5,1,269.0,888.0,1.0,123.0,1,0.5865924452807301,0.0
1177,1177,-0.06630812956241083,-0.1,1,314.0,885.0,1.0,411.0,1,0.584190855414417,0.0
1178,1178,0.8573225341049933,0.9,0,451.0,958.0,0.0,151.0,1,0.6340036143390844,0.0
1179,1179,0.9838176894619308,1.0,0,444.0,835.0,0.0,241.0,1,0.4131515614337462,0.0
1180,1180,0.11171549346135046,0.1,0,493.0,508.0,0.0,629.0,1,0.6288005909724997,0.0
1181,1181,-0.8137323376662084,-0.8,1,295.0,796.0,1.0,129.0,1,0.4791609535991569,0.0
1182,1182,0.33441180895945144,0.3,0,322.0,633.0,0.0,545.0,1,0.349458655468199,0.0
1183,1183,0.40455853916037454,0.4,0,289.0,907.0,0.0,294.0,1,0.9546338816337371,0.0
1184,1184,-0.12812471289333605,-0.1,1,258.0,555.0,1.0,477.0,1,0.6588933562629267,0.0
1185,1185,0.10512605822787235,0.1,0,375.0,529.0,0.0,276.0,1,0.5732001392645861,0.0
1186,1186,0.42816857828449617,0.4,0,277.0,784.0,0.0,439.0,1,0.7436330870318557,0.0
1187,1187,-0.9761521637346278,-1.0,1,466.0,546.0,1.0,208.0,1,0.6230923977530843,0.0
1188,1188,-0.9547534077853339,-1.0,1,343.0,580.0,1.0,127.0,1,0.8215778876418832,0.0
1189,1189,0.8431025712689384,0.8,0,383.0,589.0,0.0,238.0,1,0.340480143062752,0.0
1190,1190,0.8091661126310423,0.8,0,472.0,704.0,0.0,264.0,1,0.7154621890382044,0.0
1191,1191,-0.6197056537344636,-0.6,1,435.0,744.0,1.0,281.0,1,0.42735955865100916,0.0
1192,1192,-0.8117638756773227,-0.8,1,480.0,916.0,1.0,184.0,1,0.7770160336279317,0.0
1193,1193,-0.49599869467096336,-0.5,1,283.0,511.0,1.0,346.0,1,0.2003060351692112,0.0
1194,1194,-0.5926662431225664,-0.6,1,480.0,589.0,1.0,251.0,1,0.30831756331464955,0.0
1195,1195,0.23445497864078235,0.2,0,464.0,936.0,0.0,270.0,1,0.5969547319334025,0.0
1196,1196,-0.10381717071609908,-0.1,1,410.0,875.0,0.0,205.0,0,0.9279923224929602,0.0
1197,1197,0.7215601302164949,0.7,0,457.0,792.0,0.0,221.0,1,0.6035520830796758,0.0
1198,1198,-0.6325544210066101,-0.6,1,370.0,951.0,1.0,199.0,1,0.4485989606836771,0.0
1199,1199,-0.13238689609131704,-0.1,1,368.0,578.0,1.0,534.0,1,0.8695572960962884,0.0
1200,1200,0.45028605062214355,0.5,0,266.0,914.0,0.0,380.0,1,0.2413358273482218,0.0
1201,1201,0.11720288751999974,0.1,0,376.0,519.0,0.0,495.0,1,0.35311808320136606,0.0
1202,1202,0.9002041740402122,0.9,0,363.0,728.0,0.0,279.0,1,0.6237599352492386,0.0
1203,1203,-0.6182813705597721,-0.6,1,421.0,703.0,1.0,226.0,1,0.910360748130188,0.0
1204,1204,-0.9662210174731807,-1.0,1,344.0,981.0,1.0,165.0,1,0.6228155865294073,0.0
1205,1205,0.20180245740880443,0.2,0,424.0,512.0,0.0,384.0,1,0.431661782457768,0.0
1206,1206,0.6647133621858576,0.7,0,315.0,639.0,0.0,436.0,1,0.21310738005727253,0.0
1207,1207,-0.6191364856226595,-0.6,1,385.0,884.0,1.0,201.0,1,0.8191919588274627,0.0
1208,1208,0.31154464877931876,0.3,0,323.0,703.0,0.0,344.0,1,0.7323712351563024,0.0
1209,1209,-0.19171355950282898,-0.2,1,312.0,512.0,0.0,416.0,0,0.4048943448997909,0.0
1210,1210,0.744014469745222,0.7,0,255.0,663.0,0.0,302.0,1,0.7299945486320505,0.0
1211,1211,-0.8499288747812297,-0.8,1,486.0,575.0,1.0,339.0,1,0.270396587148368,0.0
1212,1212,-0.8386082803282482,-0.8,1,489.0,815.0,1.0,86.0,1,0.8865545451952407,0.0
1213,1213,-0.6494678820087085,-0.6,1,418.0,849.0,1.0,243.0,1,0.337868895326012,0.0
1214,1214,-0.1114085504034783,-0.1,1,374.0,574.0,0.0,232.0,0,0.4011012486693748,0.0
1215,1215,-0.9189001963987142,-0.9,1,396.0,932.0,1.0,332.0,1,0.15106729591636295,0.0
1216,1216,-0.13288409338700347,-0.1,1,491.0,991.0,1.0,3518.0,1,0.14021209020246886,0.0
1217,1217,0.7852496835047027,0.8,0,471.0,926.0,0.0,253.0,1,0.7511823281800634,0.0
1218,1218,0.35754260833025797,0.4,0,269.0,748.0,0.0,383.0,1,0.28173437916429966,0.0
1219,1219,0.028151134328430416,0.0,0,440.0,765.0,1.0,325.0,0,0.4465573950905771,0.0
1220,1220,0.6072502996826903,0.6,0,470.0,722.0,0.0,318.0,1,0.7343423192857951,0.0
1221,1221,-0.9894139180554127,-1.0,1,386.0,990.0,1.0,184.0,1,0.6174452754336149,0.0
1222,1222,-0.554542837609759,-0.6,1,416.0,839.0,1.0,475.0,1,0.10585886325530745,0.0
