,trial,coherence,coherence_bin,correct_side,target_onset,checker_onset,decision,decision_time,correct_decision
0,0,0.8711286206863582,0.9,0,476.0,563.0,0.0,661.0,1
1,1,-0.011121446840580473,-0.0,1,470.0,749.0,1.0,231.0,1
2,2,0.6400855267592176,0.6,0,385.0,590.0,0.0,265.0,1
3,3,-0.7175571883776879,-0.7,1,421.0,507.0,1.0,262.0,1
4,4,0.31042508688537884,0.3,0,489.0,702.0,0.0,109.0,1
5,5,0.39546197806961847,0.4,0,491.0,894.0,1.0,1825.0,0
6,6,-0.1051300737762284,-0.1,1,413.0,936.0,1.0,1371.0,1
7,7,0.11725799819224236,0.1,0,476.0,942.0,1.0,1082.0,0
8,8,-0.023197781558186525,-0.0,1,250.0,809.0,0.0,401.0,0
9,9,0.39244775899504036,0.4,0,479.0,584.0,0.0,197.0,1
10,10,-0.8730754537760874,-0.9,1,394.0,939.0,1.0,337.0,1
11,11,0.8787976953018639,0.9,0,498.0,570.0,0.0,922.0,1
12,12,-0.1966006289185942,-0.2,1,321.0,610.0,1.0,259.0,1
13,13,-0.14490566318477538,-0.1,1,414.0,937.0,1.0,339.0,1
14,14,-0.18603031665282055,-0.2,1,459.0,533.0,1.0,2238.0,1
15,15,-0.6496226421622862,-0.6,1,355.0,803.0,1.0,402.0,1
16,16,-0.35846915700992055,-0.4,1,495.0,829.0,1.0,846.0,1
17,17,0.48530564368804163,0.5,0,372.0,964.0,1.0,184.0,0
18,18,-0.3753138679622654,-0.4,1,338.0,967.0,1.0,475.0,1
19,19,-0.9957343550808282,-1.0,1,438.0,713.0,1.0,179.0,1
20,20,0.6536341483592432,0.7,0,372.0,653.0,0.0,185.0,1
21,21,0.48158084923045585,0.5,0,375.0,643.0,0.0,652.0,1
22,22,-0.9934639846693865,-1.0,1,347.0,981.0,1.0,112.0,1
23,23,-0.4531771321024951,-0.5,1,459.0,514.0,1.0,357.0,1
24,24,-0.3167565543663342,-0.3,1,495.0,742.0,1.0,473.0,1
25,25,-0.8054108438815952,-0.8,1,341.0,753.0,1.0,576.0,1
26,26,0.6837932675146399,0.7,0,414.0,591.0,0.0,445.0,1
27,27,-0.2120915505826677,-0.2,1,478.0,911.0,1.0,231.0,1
28,28,-0.8222243609420756,-0.8,1,257.0,533.0,1.0,200.0,1
29,29,-0.27589502678742694,-0.3,1,426.0,868.0,1.0,476.0,1
30,30,0.6108874583830355,0.6,0,316.0,881.0,0.0,473.0,1
31,31,0.6306980268560778,0.6,0,365.0,715.0,0.0,260.0,1
32,32,-0.8335473966014204,-0.8,1,413.0,892.0,1.0,155.0,1
33,33,0.1200541717910959,0.1,0,389.0,526.0,1.0,285.0,0
34,34,0.04925395542421929,0.0,0,366.0,871.0,1.0,133.0,0
35,35,-0.45898139355360357,-0.5,1,472.0,529.0,1.0,709.0,1
36,36,-0.772501258733844,-0.8,1,482.0,879.0,1.0,749.0,1
37,37,-0.6328205411854881,-0.6,1,491.0,629.0,1.0,270.0,1
38,38,-0.39224710099052107,-0.4,1,293.0,875.0,1.0,1792.0,1
39,39,-0.014052999397907051,-0.0,1,468.0,845.0,1.0,317.0,1
40,40,0.4611196221325955,0.5,0,292.0,656.0,0.0,302.0,1
41,41,-0.5624806403557021,-0.6,1,265.0,572.0,1.0,973.0,1
42,42,-0.7854288915781409,-0.8,1,379.0,545.0,1.0,166.0,1
43,43,-0.36705023729243225,-0.4,1,268.0,945.0,1.0,207.0,1
44,44,-0.29018777353721226,-0.3,1,270.0,787.0,1.0,423.0,1
45,45,0.2773764498469815,0.3,0,295.0,841.0,1.0,384.0,0
46,46,-0.7616163947067467,-0.8,1,391.0,877.0,1.0,162.0,1
47,47,0.25550857205894495,0.3,0,388.0,882.0,1.0,1200.0,0
48,48,-0.1282430967852921,-0.1,1,344.0,596.0,1.0,1480.0,1
49,49,0.9824216277848492,1.0,0,325.0,916.0,0.0,439.0,1
50,50,0.14854267746065175,0.1,0,335.0,982.0,0.0,843.0,1
51,51,-0.12359442107309615,-0.1,1,484.0,677.0,1.0,229.0,1
52,52,0.8091348075388476,0.8,0,268.0,994.0,0.0,418.0,1
53,53,-0.06899235714167284,-0.1,1,310.0,883.0,1.0,937.0,1
54,54,0.7443263975464922,0.7,0,471.0,628.0,0.0,1481.0,1
55,55,0.18606152946108256,0.2,0,267.0,885.0,0.0,158.0,1
56,56,-0.10456259598850703,-0.1,1,438.0,635.0,1.0,1487.0,1
57,57,-0.3554066027030567,-0.4,1,360.0,579.0,1.0,881.0,1
58,58,-0.5782600167429339,-0.6,1,256.0,797.0,1.0,577.0,1
59,59,-0.003277079888808432,-0.0,1,415.0,593.0,1.0,2332.0,1
60,60,0.9689975169920535,1.0,0,296.0,700.0,0.0,254.0,1
61,61,0.25076680729975775,0.3,0,298.0,639.0,0.0,293.0,1
62,62,-0.6141922055049265,-0.6,1,254.0,521.0,1.0,235.0,1
63,63,0.13799703020883802,0.1,0,324.0,839.0,0.0,127.0,1
64,64,0.03685375541455138,0.0,0,303.0,682.0,0.0,635.0,1
65,65,0.80940431511213,0.8,0,275.0,842.0,0.0,863.0,1
66,66,-0.5339988994939693,-0.5,1,419.0,985.0,1.0,216.0,1
67,67,0.09957942845106049,0.1,0,304.0,995.0,0.0,571.0,1
68,68,-0.7200977872126237,-0.7,1,294.0,662.0,1.0,374.0,1
69,69,-0.8963780814992253,-0.9,1,347.0,767.0,1.0,126.0,1
70,70,0.698748459733318,0.7,0,333.0,614.0,0.0,713.0,1
71,71,-0.8323178867873993,-0.8,1,321.0,574.0,1.0,115.0,1
72,72,-0.44779400911209044,-0.4,1,299.0,669.0,1.0,562.0,1
73,73,-0.848560035352685,-0.8,1,324.0,778.0,1.0,128.0,1
74,74,-0.28213850761596704,-0.3,1,466.0,739.0,1.0,1115.0,1
75,75,-0.6107498110761074,-0.6,1,481.0,627.0,1.0,72.0,1
76,76,-0.0879780202973719,-0.1,1,429.0,546.0,1.0,205.0,1
77,77,0.3557651699101785,0.4,0,434.0,776.0,0.0,390.0,1
78,78,-0.09483113861149306,-0.1,1,413.0,855.0,1.0,102.0,1
79,79,-0.23351115256292787,-0.2,1,368.0,676.0,0.0,1246.0,0
80,80,0.5274923300142098,0.5,0,368.0,875.0,0.0,167.0,1
81,81,0.6568772126389002,0.7,0,306.0,769.0,0.0,755.0,1
82,82,-0.6372909622580498,-0.6,1,488.0,671.0,1.0,261.0,1
83,83,0.596875840859787,0.6,0,324.0,782.0,0.0,874.0,1
84,84,0.9758662070938622,1.0,0,271.0,992.0,0.0,387.0,1
85,85,-0.6581550762783237,-0.7,1,258.0,529.0,1.0,233.0,1
86,86,-0.3591604440343139,-0.4,1,419.0,630.0,1.0,101.0,1
87,87,0.39002265125604496,0.4,0,490.0,661.0,0.0,739.0,1
88,88,0.4567504793362591,0.5,0,396.0,991.0,0.0,123.0,1
89,89,-0.977767474141275,-1.0,1,355.0,857.0,1.0,218.0,1
90,90,0.3860919917046306,0.4,0,395.0,722.0,0.0,433.0,1
91,91,0.6824879208382102,0.7,0,447.0,514.0,0.0,609.0,1
92,92,-0.9051139940679238,-0.9,1,289.0,680.0,1.0,131.0,1
93,93,0.8481836964945866,0.8,0,411.0,655.0,0.0,334.0,1
94,94,-0.9984261509461876,-1.0,1,349.0,754.0,1.0,107.0,1
95,95,-0.7718828554378907,-0.8,1,499.0,595.0,1.0,396.0,1
96,96,-0.5534553942606384,-0.6,1,314.0,545.0,1.0,191.0,1
97,97,-0.567085710741442,-0.6,1,321.0,605.0,1.0,944.0,1
98,98,0.1400929404568778,0.1,0,385.0,769.0,0.0,706.0,1
99,99,0.3213581000044001,0.3,0,347.0,711.0,0.0,1892.0,1
100,100,0.9063684024675112,0.9,0,256.0,878.0,0.0,506.0,1
101,101,-0.6594929913318157,-0.7,1,268.0,618.0,1.0,404.0,1
102,102,-0.31113064723815587,-0.3,1,392.0,714.0,0.0,754.0,0
103,103,0.8188062543625811,0.8,0,307.0,813.0,0.0,760.0,1
104,104,-0.08566365627332595,-0.1,1,306.0,721.0,0.0,683.0,0
105,105,-0.4369950053204117,-0.4,1,332.0,742.0,1.0,946.0,1
106,106,-0.01116195512274265,-0.0,1,465.0,811.0,0.0,934.0,0
107,107,0.394721114638902,0.4,0,406.0,850.0,0.0,294.0,1
108,108,0.4565816048465765,0.5,0,342.0,965.0,0.0,243.0,1
109,109,-0.29939310317018464,-0.3,1,337.0,681.0,1.0,432.0,1
110,110,-0.8918794381814055,-0.9,1,329.0,617.0,1.0,224.0,1
111,111,0.21684343280709895,0.2,0,422.0,598.0,0.0,140.0,1
112,112,0.12783040112010124,0.1,0,433.0,986.0,0.0,311.0,1
113,113,0.7599190186118541,0.8,0,474.0,721.0,0.0,345.0,1
114,114,-0.44933729841965997,-0.4,1,468.0,881.0,1.0,441.0,1
115,115,0.5298329564530209,0.5,0,414.0,642.0,0.0,734.0,1
116,116,-0.5154366495563623,-0.5,1,362.0,842.0,1.0,136.0,1
117,117,0.11532413217593795,0.1,0,297.0,504.0,1.0,279.0,0
118,118,-0.23370840237504797,-0.2,1,455.0,890.0,1.0,525.0,1
119,119,-0.8579400450956431,-0.9,1,465.0,738.0,1.0,127.0,1
120,120,-0.9997015814985255,-1.0,1,444.0,973.0,1.0,263.0,1
121,121,-0.31324035621723145,-0.3,1,491.0,618.0,1.0,441.0,1
122,122,-0.7550839749756681,-0.8,1,483.0,560.0,1.0,217.0,1
123,123,0.9679131070134372,1.0,0,481.0,928.0,0.0,221.0,1
124,124,-0.018280008698139838,-0.0,1,262.0,980.0,1.0,1638.0,1
125,125,-0.8944705732179297,-0.9,1,306.0,694.0,1.0,330.0,1
126,126,-0.8540825490524826,-0.9,1,279.0,718.0,1.0,313.0,1
127,127,-0.2948724059410026,-0.3,1,280.0,581.0,1.0,219.0,1
128,128,-0.6114438330594372,-0.6,1,293.0,889.0,1.0,988.0,1
129,129,0.5309713028456049,0.5,0,299.0,557.0,0.0,1094.0,1
130,130,-0.0870496892391539,-0.1,1,492.0,903.0,1.0,105.0,1
131,131,0.32647069725536526,0.3,0,468.0,527.0,0.0,265.0,1
132,132,0.8810775656475613,0.9,0,333.0,895.0,0.0,132.0,1
133,133,0.3393746696875628,0.3,0,446.0,958.0,1.0,376.0,0
134,134,-0.30203112323741865,-0.3,1,343.0,952.0,1.0,275.0,1
135,135,-0.11035092838050975,-0.1,1,399.0,991.0,1.0,110.0,1
136,136,0.5625145925082573,0.6,0,429.0,679.0,0.0,882.0,1
137,137,0.8669117224641643,0.9,0,394.0,571.0,0.0,445.0,1
138,138,0.7194819760371369,0.7,0,399.0,638.0,0.0,533.0,1
139,139,-0.26423481801751336,-0.3,1,413.0,682.0,1.0,205.0,1
140,140,0.6354581386506548,0.6,0,273.0,868.0,0.0,109.0,1
141,141,0.81644299212232,0.8,0,366.0,544.0,0.0,840.0,1
142,142,-0.3918089476628732,-0.4,1,253.0,897.0,1.0,200.0,1
143,143,-0.4950028211328745,-0.5,1,394.0,804.0,1.0,92.0,1
144,144,0.48149384490071223,0.5,0,393.0,766.0,1.0,401.0,0
145,145,0.45504190913731324,0.5,0,499.0,636.0,0.0,525.0,1
146,146,-0.8056702671077278,-0.8,1,354.0,818.0,1.0,208.0,1
147,147,-0.25348711637162324,-0.3,1,319.0,601.0,1.0,400.0,1
148,148,0.8930828886959685,0.9,0,256.0,661.0,0.0,223.0,1
149,149,0.5950682072143305,0.6,0,402.0,675.0,0.0,883.0,1
150,150,-0.03408911131665038,-0.0,1,308.0,826.0,1.0,476.0,1
151,151,0.4839023825766331,0.5,0,306.0,727.0,0.0,187.0,1
152,152,-0.7422673549392609,-0.7,1,413.0,720.0,1.0,347.0,1
153,153,0.6857445807557141,0.7,0,357.0,983.0,0.0,790.0,1
154,154,0.04423478163571404,0.0,0,497.0,836.0,0.0,517.0,1
155,155,-0.9883475262600439,-1.0,1,381.0,681.0,1.0,548.0,1
156,156,0.9224474891040306,0.9,0,428.0,954.0,0.0,428.0,1
157,157,0.05704556583743692,0.1,0,394.0,532.0,0.0,654.0,1
158,158,-0.5752791481442316,-0.6,1,258.0,668.0,1.0,194.0,1
159,159,0.9926173988035614,1.0,0,294.0,944.0,0.0,182.0,1
160,160,0.5926121139918514,0.6,0,309.0,815.0,0.0,346.0,1
161,161,0.7180231181995815,0.7,0,371.0,963.0,0.0,356.0,1
162,162,0.2655853087535338,0.3,0,459.0,546.0,0.0,475.0,1
163,163,-0.21659323781932138,-0.2,1,396.0,853.0,1.0,1441.0,1
164,164,-0.6215168419642421,-0.6,1,385.0,833.0,1.0,682.0,1
165,165,-0.9269541950677027,-0.9,1,396.0,611.0,1.0,163.0,1
166,166,0.8527065398325229,0.9,0,316.0,902.0,0.0,482.0,1
167,167,-0.006316037089396653,-0.0,1,306.0,786.0,1.0,538.0,1
168,168,0.7099223373293051,0.7,0,318.0,607.0,0.0,285.0,1
169,169,-0.10088528881388004,-0.1,1,496.0,547.0,1.0,1297.0,1
170,170,0.5536272075817681,0.6,0,311.0,895.0,0.0,454.0,1
171,171,-0.5774850659266069,-0.6,1,385.0,836.0,1.0,89.0,1
172,172,0.595840242450046,0.6,0,319.0,775.0,0.0,836.0,1
173,173,0.6481827491031114,0.6,0,484.0,982.0,0.0,874.0,1
174,174,-0.02918052042055752,-0.0,1,292.0,555.0,1.0,1433.0,1
175,175,-0.5538625542626043,-0.6,1,298.0,767.0,1.0,155.0,1
176,176,-0.031734836187131465,-0.0,1,377.0,929.0,0.0,1754.0,0
177,177,-0.3605933828482544,-0.4,1,375.0,575.0,1.0,160.0,1
178,178,0.8879785714190391,0.9,0,357.0,839.0,0.0,554.0,1
179,179,0.3506268072360046,0.4,0,373.0,905.0,1.0,1222.0,0
180,180,-0.28930947566303433,-0.3,1,386.0,794.0,1.0,810.0,1
181,181,-0.011752974091611357,-0.0,1,428.0,785.0,1.0,677.0,1
182,182,-0.9811118022491081,-1.0,1,468.0,527.0,1.0,175.0,1
183,183,-0.09220878413207667,-0.1,1,383.0,664.0,1.0,363.0,1
184,184,0.36993083918449443,0.4,0,394.0,723.0,0.0,693.0,1
185,185,-0.048077663386519864,-0.0,1,304.0,875.0,0.0,401.0,0
186,186,-0.25588093346784535,-0.3,1,452.0,588.0,1.0,1260.0,1
187,187,0.9806877573059556,1.0,0,450.0,813.0,0.0,277.0,1
188,188,-0.557251693594615,-0.6,1,363.0,630.0,1.0,407.0,1
189,189,-0.19936024216949955,-0.2,1,450.0,737.0,1.0,363.0,1
190,190,-0.261648509116158,-0.3,1,410.0,876.0,1.0,334.0,1
191,191,0.9119047003544649,0.9,0,397.0,645.0,0.0,218.0,1
192,192,0.4331952175847702,0.4,0,420.0,833.0,0.0,1497.0,1
193,193,0.041810040111129654,0.0,0,473.0,764.0,1.0,363.0,0
194,194,0.11342812236003375,0.1,0,291.0,573.0,1.0,696.0,0
195,195,0.1539220226429001,0.2,0,305.0,846.0,1.0,1359.0,0
196,196,0.38422513067551844,0.4,0,476.0,933.0,1.0,131.0,0
197,197,-0.43915402536398207,-0.4,1,323.0,950.0,1.0,157.0,1
198,198,0.17180942848612513,0.2,0,250.0,722.0,0.0,468.0,1
199,199,-0.04146359389675247,-0.0,1,288.0,930.0,0.0,282.0,0
200,200,0.5987805982551799,0.6,0,489.0,815.0,1.0,256.0,0
201,201,-0.912471918753005,-0.9,1,354.0,555.0,1.0,451.0,1
202,202,0.32411261561482396,0.3,0,476.0,604.0,1.0,250.0,0
203,203,-0.16832067533245998,-0.2,1,259.0,530.0,1.0,161.0,1
204,204,0.36718317799038247,0.4,0,474.0,929.0,0.0,657.0,1
205,205,-0.672468718527496,-0.7,1,268.0,518.0,1.0,294.0,1
206,206,0.004145275758337563,0.0,0,480.0,552.0,1.0,228.0,0
207,207,-0.8320261363174781,-0.8,1,255.0,806.0,1.0,169.0,1
208,208,0.49858088258742206,0.5,0,373.0,629.0,0.0,368.0,1
209,209,-0.7823885868324068,-0.8,1,376.0,722.0,0.0,392.0,0
210,210,0.7123443395168496,0.7,0,464.0,915.0,0.0,281.0,1
211,211,0.12835092440005358,0.1,0,348.0,697.0,0.0,915.0,1
212,212,-0.6929277482291287,-0.7,1,384.0,729.0,1.0,327.0,1
213,213,0.9557445084203116,1.0,0,470.0,865.0,0.0,355.0,1
214,214,-0.3958669179215808,-0.4,1,268.0,922.0,1.0,590.0,1
215,215,0.05239503789375011,0.1,0,495.0,606.0,1.0,209.0,0
216,216,-0.2781848932913109,-0.3,1,375.0,925.0,1.0,220.0,1
217,217,-0.31166708040880753,-0.3,1,379.0,754.0,1.0,567.0,1
218,218,0.0243615448959571,0.0,0,454.0,522.0,1.0,844.0,0
219,219,-0.45094195156915395,-0.5,1,421.0,519.0,1.0,520.0,1
220,220,-0.19664300720794037,-0.2,1,354.0,564.0,1.0,612.0,1
221,221,-0.6266357460147136,-0.6,1,472.0,598.0,1.0,840.0,1
222,222,-0.8236297136775559,-0.8,1,313.0,758.0,1.0,579.0,1
223,223,-0.8520456004034391,-0.9,1,333.0,625.0,1.0,712.0,1
224,224,0.7489689562416553,0.7,0,485.0,842.0,0.0,533.0,1
225,225,-0.3110501653999611,-0.3,1,357.0,954.0,1.0,219.0,1
226,226,0.18533306850946207,0.2,0,335.0,519.0,1.0,1246.0,0
227,227,0.10230699597146908,0.1,0,400.0,984.0,1.0,796.0,0
228,228,-0.1529614608165788,-0.2,1,494.0,515.0,1.0,601.0,1
229,229,0.20133761956024587,0.2,0,310.0,860.0,1.0,470.0,0
230,230,-0.5712186025562422,-0.6,1,306.0,795.0,1.0,229.0,1
231,231,0.5414814279003042,0.5,0,374.0,612.0,0.0,504.0,1
232,232,0.7476914460542208,0.7,0,257.0,924.0,0.0,739.0,1
233,233,0.7862464535935259,0.8,0,273.0,672.0,0.0,195.0,1
234,234,0.5596417272427974,0.6,0,409.0,819.0,0.0,962.0,1
235,235,-0.7441892550698797,-0.7,1,339.0,619.0,1.0,62.0,1
236,236,-0.764200849039298,-0.8,1,260.0,682.0,1.0,228.0,1
237,237,-0.22166786897591395,-0.2,1,366.0,886.0,1.0,378.0,1
238,238,-0.8953325411246145,-0.9,1,407.0,876.0,1.0,697.0,1
239,239,0.22793065463818252,0.2,0,384.0,613.0,1.0,693.0,0
240,240,-0.16129115597905774,-0.2,1,478.0,543.0,1.0,209.0,1
241,241,0.9070390688623855,0.9,0,479.0,840.0,0.0,1061.0,1
242,242,-0.8585336655027012,-0.9,1,356.0,919.0,1.0,145.0,1
243,243,0.1582236982302927,0.2,0,305.0,747.0,0.0,968.0,1
244,244,-0.23004852775528062,-0.2,1,251.0,587.0,1.0,1302.0,1
245,245,-0.9122598704848173,-0.9,1,409.0,583.0,1.0,268.0,1
246,246,-0.8591905785239982,-0.9,1,298.0,607.0,1.0,195.0,1
247,247,-0.30054793093967613,-0.3,1,299.0,939.0,1.0,912.0,1
248,248,0.22247105614941431,0.2,0,293.0,707.0,0.0,340.0,1
249,249,-0.3746811293699006,-0.4,1,267.0,628.0,1.0,1655.0,1
250,250,0.31081340877481,0.3,0,362.0,536.0,0.0,802.0,1
251,251,0.39967966168423885,0.4,0,498.0,567.0,0.0,385.0,1
252,252,0.16765434439686655,0.2,0,482.0,967.0,1.0,291.0,0
253,253,-0.893065937851002,-0.9,1,417.0,784.0,1.0,249.0,1
254,254,0.7541042431078468,0.8,0,286.0,886.0,0.0,618.0,1
255,255,-0.03628480756188712,-0.0,1,368.0,930.0,0.0,292.0,0
256,256,0.9416979005686756,0.9,0,452.0,720.0,0.0,668.0,1
257,257,-0.45328566931842285,-0.5,1,282.0,825.0,1.0,263.0,1
258,258,-0.6526883484027353,-0.7,1,421.0,511.0,1.0,328.0,1
259,259,-0.006231374211595142,-0.0,1,448.0,885.0,1.0,427.0,1
260,260,-0.42255827106560595,-0.4,1,457.0,830.0,1.0,633.0,1
261,261,-0.154199918655626,-0.2,1,328.0,680.0,0.0,402.0,0
262,262,0.788356643086072,0.8,0,293.0,547.0,0.0,970.0,1
263,263,-0.136857857560561,-0.1,1,267.0,893.0,1.0,340.0,1
264,264,0.008254786602299502,0.0,0,432.0,937.0,0.0,701.0,1
265,265,-0.6537576608201987,-0.7,1,304.0,840.0,1.0,166.0,1
266,266,-0.1981181632250748,-0.2,1,432.0,624.0,1.0,364.0,1
267,267,0.2969122189715372,0.3,0,425.0,669.0,0.0,1256.0,1
268,268,0.796475100068196,0.8,0,251.0,798.0,0.0,351.0,1
269,269,-0.7991555664558807,-0.8,1,267.0,637.0,1.0,326.0,1
270,270,0.019321272596956707,0.0,0,455.0,621.0,1.0,614.0,0
271,271,0.553042272661536,0.6,0,428.0,645.0,0.0,987.0,1
272,272,0.6419940843662895,0.6,0,415.0,866.0,0.0,689.0,1
273,273,-0.078877956140192,-0.1,1,254.0,970.0,1.0,166.0,1
274,274,-0.15651108806043568,-0.2,1,272.0,803.0,1.0,185.0,1
275,275,-0.36369994354293067,-0.4,1,353.0,785.0,1.0,412.0,1
276,276,0.7484035858977998,0.7,0,271.0,738.0,0.0,161.0,1
277,277,0.29095565089847075,0.3,0,357.0,637.0,0.0,356.0,1
278,278,-0.385400960422841,-0.4,1,438.0,743.0,0.0,249.0,0
279,279,-0.8285896290583201,-0.8,1,433.0,510.0,1.0,417.0,1
280,280,0.3611275749773588,0.4,0,271.0,672.0,0.0,527.0,1
281,281,0.7846099674400215,0.8,0,284.0,766.0,0.0,610.0,1
282,282,0.4269025812583698,0.4,0,493.0,736.0,1.0,201.0,0
283,283,0.9401669657267899,0.9,0,421.0,852.0,0.0,297.0,1
284,284,-0.598498274222018,-0.6,1,428.0,749.0,1.0,463.0,1
285,285,0.347566763395476,0.3,0,348.0,972.0,0.0,2120.0,1
286,286,-0.724001294821657,-0.7,1,339.0,766.0,1.0,625.0,1
287,287,0.283881766674271,0.3,0,332.0,730.0,1.0,248.0,0
288,288,0.05468879129854476,0.1,0,455.0,688.0,1.0,127.0,0
289,289,-0.6558646999248507,-0.7,1,381.0,597.0,1.0,272.0,1
290,290,0.28227951463391765,0.3,0,397.0,586.0,1.0,457.0,0
291,291,0.8445807417109574,0.8,0,424.0,965.0,0.0,691.0,1
292,292,-0.1358887656703569,-0.1,1,396.0,866.0,1.0,1518.0,1
293,293,-0.7883964600487472,-0.8,1,375.0,686.0,1.0,469.0,1
294,294,-0.48273419549604735,-0.5,1,347.0,750.0,1.0,303.0,1
295,295,0.27270089996540303,0.3,0,373.0,793.0,0.0,374.0,1
296,296,0.4049946410262739,0.4,0,452.0,754.0,0.0,254.0,1
297,297,0.9754898596136798,1.0,0,363.0,948.0,0.0,579.0,1
298,298,0.6279292032968968,0.6,0,256.0,731.0,0.0,833.0,1
299,299,-0.5625775643109163,-0.6,1,373.0,799.0,1.0,288.0,1
300,300,0.21363382926028818,0.2,0,343.0,530.0,0.0,357.0,1
301,301,-0.9000517432413704,-0.9,1,293.0,961.0,1.0,676.0,1
302,302,-0.04637626701817532,-0.0,1,356.0,550.0,1.0,324.0,1
303,303,0.6258972912144156,0.6,0,342.0,961.0,0.0,1637.0,1
304,304,0.4510783693923386,0.5,0,353.0,800.0,0.0,1307.0,1
305,305,-0.8356193936961813,-0.8,1,326.0,956.0,1.0,498.0,1
306,306,-0.7166101915762177,-0.7,1,352.0,874.0,1.0,574.0,1
307,307,0.6547528486083698,0.7,0,279.0,723.0,0.0,478.0,1
308,308,0.5016853157314245,0.5,0,340.0,504.0,0.0,1076.0,1
309,309,-0.6474867798586446,-0.6,1,468.0,892.0,1.0,380.0,1
310,310,-0.2526171310354486,-0.3,1,268.0,950.0,1.0,142.0,1
311,311,-0.3792109928872307,-0.4,1,487.0,945.0,1.0,398.0,1
312,312,-0.8449689506034297,-0.8,1,384.0,988.0,1.0,178.0,1
313,313,-0.1507570988607856,-0.2,1,386.0,526.0,1.0,238.0,1
314,314,0.7240569690208414,0.7,0,435.0,935.0,0.0,650.0,1
315,315,0.24004994542599145,0.2,0,409.0,655.0,1.0,1026.0,0
316,316,0.289404459289911,0.3,0,372.0,545.0,0.0,843.0,1
317,317,0.07618555764079793,0.1,0,297.0,826.0,0.0,537.0,1
318,318,-0.01107866817414882,-0.0,1,478.0,840.0,0.0,812.0,0
319,319,-0.8966893297892615,-0.9,1,271.0,994.0,1.0,165.0,1
320,320,0.7285266629768423,0.7,0,419.0,507.0,0.0,294.0,1
321,321,-0.04706964956341464,-0.0,1,292.0,675.0,1.0,413.0,1
322,322,0.1673519561627641,0.2,0,462.0,752.0,1.0,456.0,0
323,323,0.12403675162480332,0.1,0,272.0,987.0,1.0,801.0,0
324,324,-0.2801890104500755,-0.3,1,420.0,981.0,1.0,329.0,1
325,325,-0.34370270274455383,-0.3,1,476.0,767.0,1.0,417.0,1
326,326,0.9134626937162498,0.9,0,291.0,534.0,0.0,665.0,1
327,327,0.8560591274924911,0.9,0,474.0,871.0,0.0,555.0,1
328,328,0.9705641516185817,1.0,0,477.0,643.0,0.0,290.0,1
329,329,0.023765276044176886,0.0,0,414.0,829.0,1.0,297.0,0
330,330,0.15366389593449958,0.2,0,498.0,544.0,0.0,328.0,1
331,331,-0.8153587780228329,-0.8,1,260.0,606.0,1.0,1654.0,1
332,332,0.9337382513489343,0.9,0,423.0,922.0,0.0,1225.0,1
333,333,-0.9289520258896007,-0.9,1,275.0,527.0,1.0,198.0,1
334,334,0.6410778263875716,0.6,0,456.0,507.0,0.0,467.0,1
335,335,-0.6565339009846745,-0.7,1,451.0,867.0,1.0,392.0,1
336,336,0.17141997550977428,0.2,0,354.0,726.0,0.0,1130.0,1
337,337,-0.8286165723747814,-0.8,1,416.0,865.0,1.0,359.0,1
338,338,-0.8391343853683597,-0.8,1,383.0,653.0,1.0,374.0,1
339,339,-0.6029131334698379,-0.6,1,453.0,525.0,1.0,412.0,1
340,340,0.05342479058985994,0.1,0,469.0,912.0,0.0,389.0,1
341,341,0.8022714730145881,0.8,0,404.0,813.0,0.0,473.0,1
342,342,0.7608748477209026,0.8,0,492.0,679.0,0.0,1309.0,1
343,343,0.06079510062958193,0.1,0,471.0,645.0,0.0,584.0,1
344,344,0.8130256833107967,0.8,0,446.0,661.0,0.0,373.0,1
345,345,-0.7744751192101329,-0.8,1,409.0,553.0,1.0,338.0,1
346,346,0.7262021706511117,0.7,0,393.0,874.0,0.0,193.0,1
347,347,-0.20402336102274243,-0.2,1,453.0,650.0,1.0,447.0,1
348,348,0.5156836857927269,0.5,0,477.0,964.0,0.0,249.0,1
349,349,0.9731843317114177,1.0,0,470.0,806.0,0.0,734.0,1
350,350,0.2703394417820373,0.3,0,453.0,648.0,0.0,989.0,1
351,351,0.8411903732674775,0.8,0,269.0,522.0,0.0,1099.0,1
352,352,-0.04970414826212788,-0.0,1,405.0,586.0,0.0,279.0,0
353,353,-0.6282861958061832,-0.6,1,336.0,576.0,1.0,138.0,1
354,354,0.02103199004441514,0.0,0,321.0,711.0,1.0,368.0,0
355,355,0.5523642019627437,0.6,0,406.0,866.0,0.0,1178.0,1
356,356,0.13838418283077192,0.1,0,474.0,692.0,0.0,1414.0,1
357,357,-0.14955701574681068,-0.1,1,434.0,930.0,1.0,346.0,1
358,358,0.3085962424294615,0.3,0,349.0,524.0,0.0,87.0,1
359,359,-0.40164784996313285,-0.4,1,445.0,677.0,1.0,1618.0,1
360,360,0.8508387188270776,0.9,0,327.0,745.0,0.0,998.0,1
361,361,0.07456603497448988,0.1,0,266.0,807.0,0.0,1367.0,1
362,362,-0.15926098607195494,-0.2,1,379.0,851.0,1.0,1520.0,1
363,363,0.5796420862209304,0.6,0,489.0,620.0,0.0,1881.0,1
364,364,0.6935808052235515,0.7,0,283.0,955.0,0.0,182.0,1
365,365,0.3840261432614114,0.4,0,496.0,504.0,1.0,570.0,0
366,366,0.4382285346048107,0.4,0,396.0,875.0,0.0,89.0,1
367,367,0.7318050690381426,0.7,0,352.0,542.0,0.0,336.0,1
368,368,0.9893533746671794,1.0,0,331.0,567.0,0.0,412.0,1
369,369,-0.31528161792890974,-0.3,1,375.0,672.0,1.0,333.0,1
370,370,-0.9636350831364038,-1.0,1,358.0,786.0,1.0,266.0,1
371,371,-0.4265124995801768,-0.4,1,280.0,513.0,1.0,657.0,1
372,372,-0.9561874137335076,-1.0,1,403.0,573.0,1.0,174.0,1
373,373,-0.861010881004548,-0.9,1,336.0,628.0,1.0,206.0,1
374,374,-0.7510516488817462,-0.8,1,496.0,828.0,1.0,356.0,1
375,375,-0.3133833391072649,-0.3,1,295.0,803.0,1.0,982.0,1
376,376,-0.18468769931590834,-0.2,1,452.0,560.0,1.0,488.0,1
377,377,-0.7500485674377062,-0.8,1,401.0,850.0,1.0,189.0,1
378,378,-0.9553018191294051,-1.0,1,408.0,643.0,1.0,259.0,1
379,379,-0.899737864326061,-0.9,1,295.0,752.0,1.0,143.0,1
380,380,0.011037338301718824,0.0,0,250.0,696.0,1.0,784.0,0
381,381,-0.26803444344529015,-0.3,1,353.0,920.0,1.0,327.0,1
382,382,0.7038152943322669,0.7,0,256.0,580.0,0.0,604.0,1
383,383,-0.6860494016244745,-0.7,1,320.0,682.0,1.0,208.0,1
384,384,0.5857023634465306,0.6,0,250.0,634.0,0.0,186.0,1
385,385,-0.7856210109150283,-0.8,1,352.0,636.0,1.0,352.0,1
386,386,-0.1458867932707344,-0.1,1,325.0,894.0,0.0,401.0,0
387,387,-0.7440552335469435,-0.7,1,395.0,949.0,1.0,256.0,1
388,388,0.8404154815126164,0.8,0,307.0,650.0,0.0,483.0,1
389,389,-0.6927578218616914,-0.7,1,371.0,918.0,1.0,771.0,1
390,390,0.7152634381131215,0.7,0,462.0,552.0,1.0,106.0,0
391,391,-0.5916358618553086,-0.6,1,420.0,827.0,1.0,263.0,1
392,392,0.7842855698354105,0.8,0,295.0,698.0,0.0,337.0,1
393,393,0.1321135647810765,0.1,0,303.0,799.0,0.0,208.0,1
394,394,0.9814888646149356,1.0,0,268.0,832.0,0.0,170.0,1
395,395,0.9000156224928713,0.9,0,408.0,910.0,0.0,982.0,1
396,396,0.9130522683933633,0.9,0,463.0,713.0,0.0,204.0,1
397,397,0.18789019602563228,0.2,0,251.0,923.0,1.0,106.0,0
398,398,0.1345521126248066,0.1,0,471.0,915.0,1.0,2474.0,0
399,399,-0.7552172992703248,-0.8,1,252.0,979.0,1.0,89.0,1
400,400,-0.6528903923208329,-0.7,1,348.0,608.0,1.0,314.0,1
401,401,0.5600799914425152,0.6,0,450.0,657.0,0.0,1053.0,1
402,402,0.07500798946936627,0.1,0,264.0,885.0,1.0,121.0,0
403,403,-0.5028726094886118,-0.5,1,414.0,849.0,1.0,847.0,1
404,404,-0.2538852006558119,-0.3,1,373.0,815.0,1.0,302.0,1
405,405,-0.11146447813750737,-0.1,1,338.0,947.0,1.0,685.0,1
406,406,-0.37959435911323736,-0.4,1,479.0,752.0,1.0,1209.0,1
407,407,-0.11104949221454063,-0.1,1,452.0,814.0,1.0,514.0,1
408,408,-0.1998505483833648,-0.2,1,448.0,658.0,0.0,754.0,0
409,409,0.06133465261382742,0.1,0,408.0,996.0,1.0,2396.0,0
410,410,-0.9944099425005233,-1.0,1,486.0,851.0,1.0,423.0,1
411,411,-0.0336482121548094,-0.0,1,311.0,589.0,1.0,450.0,1
412,412,0.6867040397385538,0.7,0,468.0,629.0,0.0,203.0,1
413,413,0.5987926545483568,0.6,0,257.0,940.0,0.0,683.0,1
414,414,-0.1217076030842732,-0.1,1,279.0,766.0,1.0,1845.0,1
415,415,-0.520695212499656,-0.5,1,497.0,990.0,1.0,143.0,1
416,416,0.9350309742840093,0.9,0,267.0,872.0,0.0,241.0,1
417,417,0.7423631758200215,0.7,0,405.0,931.0,0.0,434.0,1
418,418,0.7695078164185685,0.8,0,440.0,834.0,0.0,446.0,1
419,419,0.32259693274949064,0.3,0,436.0,631.0,0.0,683.0,1
420,420,0.9588037871087802,1.0,0,411.0,613.0,0.0,246.0,1
421,421,0.2224976750555312,0.2,0,495.0,978.0,0.0,2927.0,1
422,422,0.47323534941516887,0.5,0,484.0,663.0,0.0,353.0,1
423,423,-0.8439022167393697,-0.8,1,359.0,748.0,1.0,223.0,1
424,424,0.9627814733134399,1.0,0,481.0,543.0,0.0,146.0,1
425,425,0.6086897740358872,0.6,0,416.0,926.0,0.0,1108.0,1
426,426,-0.25533626798178477,-0.3,1,430.0,716.0,1.0,464.0,1
427,427,0.3538958881436236,0.4,0,457.0,559.0,0.0,484.0,1
428,428,-0.5601061790194477,-0.6,1,421.0,645.0,1.0,154.0,1
429,429,0.7357988371342514,0.7,0,295.0,702.0,0.0,273.0,1
430,430,0.14762057963049235,0.1,0,273.0,702.0,1.0,385.0,0
431,431,-0.014410485236668436,-0.0,1,297.0,776.0,1.0,2017.0,1
432,432,-0.20310498664884724,-0.2,1,382.0,993.0,1.0,445.0,1
433,433,0.6508599331557314,0.7,0,267.0,951.0,0.0,562.0,1
434,434,0.12296714829466371,0.1,0,343.0,721.0,0.0,526.0,1
435,435,-0.29594536362231283,-0.3,1,295.0,715.0,1.0,560.0,1
436,436,-0.22232366784344215,-0.2,1,373.0,780.0,0.0,3847.0,0
437,437,-0.7036355207691396,-0.7,1,442.0,848.0,1.0,110.0,1
438,438,-0.9199692281277196,-0.9,1,428.0,745.0,1.0,387.0,1
439,439,-0.890717724182327,-0.9,1,291.0,831.0,1.0,798.0,1
440,440,-0.06953632036879265,-0.1,1,366.0,621.0,1.0,903.0,1
441,441,-0.1442778056158185,-0.1,1,310.0,662.0,1.0,298.0,1
442,442,-0.07225527651039676,-0.1,1,385.0,967.0,1.0,708.0,1
443,443,0.9808319675188255,1.0,0,307.0,512.0,0.0,321.0,1
444,444,-0.11664678863984212,-0.1,1,432.0,601.0,1.0,537.0,1
445,445,0.5962484127579655,0.6,0,418.0,907.0,0.0,125.0,1
446,446,-0.3256947150176668,-0.3,1,453.0,984.0,1.0,263.0,1
447,447,0.4700749014158805,0.5,0,349.0,758.0,0.0,513.0,1
448,448,-0.5512302200308337,-0.6,1,412.0,732.0,1.0,376.0,1
449,449,0.04335789967832904,0.0,0,407.0,571.0,1.0,932.0,0
450,450,-0.9714989877133138,-1.0,1,438.0,901.0,1.0,651.0,1
451,451,-0.8741787874258673,-0.9,1,403.0,628.0,1.0,259.0,1
452,452,0.7591615625099948,0.8,0,426.0,906.0,0.0,578.0,1
453,453,0.8675010662226896,0.9,0,333.0,612.0,0.0,425.0,1
454,454,-0.8072021064275736,-0.8,1,480.0,632.0,1.0,168.0,1
455,455,0.9946952760396042,1.0,0,314.0,687.0,0.0,209.0,1
456,456,0.10819409724721818,0.1,0,283.0,709.0,1.0,418.0,0
457,457,-0.6667332276805058,-0.7,1,396.0,932.0,1.0,332.0,1
458,458,-0.4861349846052556,-0.5,1,283.0,533.0,0.0,304.0,0
459,459,0.4576577029137887,0.5,0,335.0,992.0,0.0,733.0,1
460,460,-0.5032311010989996,-0.5,1,414.0,566.0,1.0,360.0,1
461,461,0.33113446826258697,0.3,0,383.0,988.0,1.0,939.0,0
462,462,-0.3883624623381108,-0.4,1,272.0,731.0,1.0,467.0,1
463,463,-0.942395658710178,-0.9,1,464.0,838.0,1.0,248.0,1
464,464,-0.248767468384554,-0.2,1,347.0,999.0,1.0,344.0,1
465,465,0.7285287266384564,0.7,0,464.0,663.0,0.0,983.0,1
466,466,-0.8707458938541324,-0.9,1,314.0,794.0,1.0,212.0,1
467,467,0.04911307358473427,0.0,0,304.0,573.0,0.0,453.0,1
468,468,0.020872330366068947,0.0,0,456.0,812.0,0.0,132.0,1
469,469,0.7939565301292484,0.8,0,401.0,835.0,0.0,94.0,1
470,470,-0.5046935646655772,-0.5,1,433.0,666.0,1.0,231.0,1
471,471,0.23812524364994303,0.2,0,287.0,744.0,0.0,289.0,1
472,472,0.8864868616117725,0.9,0,341.0,985.0,0.0,244.0,1
473,473,0.09181546271532892,0.1,0,449.0,931.0,1.0,1210.0,0
474,474,0.13550265392808636,0.1,0,444.0,695.0,1.0,291.0,0
475,475,0.7519204395181218,0.8,0,378.0,774.0,0.0,528.0,1
476,476,0.8925932795117744,0.9,0,335.0,787.0,0.0,508.0,1
477,477,-0.2569779483546306,-0.3,1,418.0,755.0,1.0,447.0,1
478,478,0.05447397708975754,0.1,0,458.0,657.0,0.0,1285.0,1
479,479,0.15042695992573085,0.2,0,455.0,815.0,0.0,500.0,1
480,480,0.0676279715644359,0.1,0,278.0,755.0,0.0,297.0,1
481,481,-0.17773502896903648,-0.2,1,405.0,653.0,1.0,302.0,1
482,482,-0.7922715256213841,-0.8,1,485.0,844.0,1.0,241.0,1
483,483,0.9139114994378315,0.9,0,478.0,682.0,0.0,150.0,1
484,484,0.41568545163941106,0.4,0,444.0,515.0,1.0,761.0,0
485,485,0.7462754084485914,0.7,0,352.0,812.0,0.0,996.0,1
486,486,-0.44484778541769754,-0.4,1,272.0,523.0,1.0,175.0,1
487,487,-0.607450646290606,-0.6,1,445.0,501.0,1.0,564.0,1
488,488,0.27190893021136153,0.3,0,446.0,597.0,0.0,267.0,1
489,489,0.9796376750075295,1.0,0,351.0,757.0,0.0,292.0,1
490,490,-0.5553158902649997,-0.6,1,313.0,547.0,1.0,1040.0,1
491,491,-0.5211988391919178,-0.5,1,368.0,759.0,1.0,253.0,1
492,492,0.9990302044925388,1.0,0,303.0,640.0,0.0,207.0,1
493,493,-0.3026968442348601,-0.3,1,383.0,633.0,1.0,304.0,1
494,494,-0.647506689224991,-0.6,1,320.0,655.0,1.0,515.0,1
495,495,0.8890496631417626,0.9,0,363.0,709.0,0.0,198.0,1
496,496,0.05769332394190929,0.1,0,398.0,736.0,1.0,786.0,0
497,497,0.08428921431282865,0.1,0,451.0,797.0,0.0,372.0,1
498,498,-0.8110178455765469,-0.8,1,350.0,700.0,1.0,110.0,1
499,499,0.9262247061989886,0.9,0,401.0,531.0,0.0,708.0,1
500,500,0.39692945618181685,0.4,0,414.0,771.0,0.0,1205.0,1
501,501,-0.038805222661541405,-0.0,1,434.0,983.0,0.0,393.0,0
502,502,0.2243768889784974,0.2,0,390.0,639.0,1.0,101.0,0
503,503,0.5418268763033338,0.5,0,365.0,750.0,0.0,685.0,1
504,504,-0.85469563281887,-0.9,1,434.0,841.0,1.0,165.0,1
505,505,-0.5146625929248836,-0.5,1,277.0,866.0,1.0,337.0,1
506,506,0.7424462755037171,0.7,0,309.0,559.0,0.0,322.0,1
507,507,0.17044733354813824,0.2,0,319.0,981.0,1.0,270.0,0
508,508,0.9006744495186423,0.9,0,342.0,679.0,0.0,699.0,1
509,509,0.9595081249775916,1.0,0,258.0,700.0,0.0,382.0,1
510,510,0.08188359883305885,0.1,0,485.0,630.0,1.0,805.0,0
511,511,0.5508519286266631,0.6,0,409.0,743.0,0.0,788.0,1
512,512,-0.834276341351569,-0.8,1,452.0,815.0,1.0,93.0,1
513,513,-0.8694143527313765,-0.9,1,420.0,572.0,1.0,468.0,1
514,514,-0.5346053391621604,-0.5,1,338.0,645.0,1.0,177.0,1
515,515,0.1516998255498716,0.2,0,445.0,952.0,0.0,913.0,1
516,516,0.3195534292901161,0.3,0,352.0,998.0,0.0,1150.0,1
517,517,0.33512364155081276,0.3,0,438.0,842.0,0.0,420.0,1
518,518,-0.1859088887145759,-0.2,1,268.0,632.0,1.0,170.0,1
519,519,0.4606663995673501,0.5,0,443.0,894.0,0.0,603.0,1
520,520,-0.4416398292268411,-0.4,1,432.0,971.0,1.0,177.0,1
521,521,-0.10814445346367796,-0.1,1,289.0,677.0,1.0,284.0,1
522,522,0.18747525301354084,0.2,0,347.0,986.0,0.0,527.0,1
523,523,-0.08632426445187713,-0.1,1,479.0,700.0,0.0,201.0,0
524,524,-0.6266380791255248,-0.6,1,493.0,993.0,1.0,94.0,1
525,525,0.9516409609433432,1.0,0,296.0,854.0,0.0,320.0,1
526,526,0.754680430518867,0.8,0,436.0,828.0,0.0,546.0,1
527,527,0.03870606917269148,0.0,0,372.0,551.0,1.0,137.0,0
528,528,-0.23009489597496402,-0.2,1,413.0,944.0,1.0,473.0,1
529,529,0.9503086199988635,1.0,0,339.0,962.0,0.0,839.0,1
530,530,-0.952908906101823,-1.0,1,319.0,861.0,1.0,270.0,1
531,531,0.915138435511129,0.9,0,359.0,988.0,0.0,193.0,1
532,532,-0.9366950599738599,-0.9,1,351.0,799.0,1.0,70.0,1
533,533,-0.4350541511843047,-0.4,1,322.0,845.0,1.0,213.0,1
534,534,-0.30414479606343137,-0.3,1,394.0,654.0,1.0,972.0,1
535,535,-0.16010159965653958,-0.2,1,278.0,683.0,1.0,459.0,1
536,536,0.5379320243342323,0.5,0,346.0,800.0,0.0,234.0,1
537,537,-0.5778232718207343,-0.6,1,397.0,618.0,1.0,195.0,1
538,538,-0.23190954464893498,-0.2,1,412.0,995.0,1.0,433.0,1
539,539,0.40346070374180654,0.4,0,344.0,676.0,0.0,380.0,1
540,540,0.40252608532039846,0.4,0,381.0,667.0,0.0,612.0,1
541,541,0.5335624199894593,0.5,0,451.0,773.0,0.0,956.0,1
542,542,-0.8222429870215011,-0.8,1,399.0,861.0,1.0,170.0,1
543,543,0.040674229612014834,0.0,0,295.0,509.0,0.0,736.0,1
544,544,0.046226375470455494,0.0,0,377.0,591.0,1.0,922.0,0
545,545,0.4533929324903285,0.5,0,284.0,889.0,0.0,587.0,1
546,546,0.4955274981470965,0.5,0,451.0,811.0,0.0,228.0,1
547,547,0.3758880012986947,0.4,0,386.0,664.0,0.0,610.0,1
548,548,-0.9764341197778359,-1.0,1,255.0,969.0,1.0,106.0,1
549,549,0.31558220333927545,0.3,0,282.0,919.0,1.0,179.0,0
550,550,0.5781398486606653,0.6,0,409.0,843.0,1.0,358.0,0
551,551,0.9930362573487739,1.0,0,273.0,628.0,0.0,349.0,1
552,552,0.5373517222315252,0.5,0,310.0,794.0,0.0,1226.0,1
553,553,0.9105401831784707,0.9,0,277.0,843.0,0.0,440.0,1
554,554,0.3699001458071123,0.4,0,287.0,666.0,1.0,507.0,0
555,555,0.4717209047756985,0.5,0,305.0,984.0,1.0,551.0,0
556,556,0.6790453971393433,0.7,0,267.0,571.0,0.0,252.0,1
557,557,-0.31760106541679867,-0.3,1,478.0,817.0,1.0,345.0,1
558,558,0.8797352022387726,0.9,0,304.0,944.0,0.0,582.0,1
559,559,0.6323072989245055,0.6,0,469.0,902.0,0.0,559.0,1
560,560,0.8286881767734184,0.8,0,494.0,619.0,0.0,357.0,1
561,561,-0.7110752689487863,-0.7,1,454.0,728.0,1.0,348.0,1
562,562,-0.5843420926019056,-0.6,1,404.0,926.0,1.0,250.0,1
563,563,-0.09243562830080809,-0.1,1,421.0,696.0,0.0,343.0,0
564,564,0.28036338309137854,0.3,0,251.0,807.0,0.0,742.0,1
565,565,-0.7158383741046301,-0.7,1,468.0,555.0,1.0,147.0,1
566,566,0.128278698640917,0.1,0,443.0,922.0,1.0,225.0,0
567,567,0.4272458111727455,0.4,0,453.0,881.0,0.0,1236.0,1
568,568,0.07729216491314062,0.1,0,272.0,531.0,1.0,647.0,0
569,569,-0.7114363685389269,-0.7,1,352.0,666.0,1.0,162.0,1
570,570,0.8336306357275842,0.8,0,485.0,801.0,0.0,394.0,1
571,571,-0.7537079285371626,-0.8,1,491.0,580.0,1.0,109.0,1
572,572,-0.7864534086155173,-0.8,1,258.0,559.0,1.0,213.0,1
573,573,0.7307307352083785,0.7,0,271.0,871.0,0.0,108.0,1
574,574,0.888391607990914,0.9,0,324.0,548.0,0.0,468.0,1
575,575,-0.7473533912374863,-0.7,1,349.0,835.0,1.0,536.0,1
576,576,-0.31129766918978685,-0.3,1,425.0,816.0,1.0,239.0,1
577,577,-0.45107936156451656,-0.5,1,299.0,955.0,1.0,286.0,1
578,578,-0.16667348659026482,-0.2,1,466.0,708.0,1.0,836.0,1
579,579,0.6195353278900242,0.6,0,488.0,688.0,0.0,354.0,1
580,580,-0.05943520191342433,-0.1,1,278.0,669.0,1.0,1073.0,1
581,581,0.6524563271385448,0.7,0,438.0,625.0,0.0,437.0,1
582,582,0.6841322652224335,0.7,0,478.0,847.0,0.0,235.0,1
583,583,-0.6893060975246574,-0.7,1,472.0,988.0,1.0,390.0,1
584,584,0.9061673252804212,0.9,0,326.0,566.0,0.0,238.0,1
585,585,-0.6182987976323642,-0.6,1,475.0,606.0,1.0,429.0,1
586,586,-0.9966698085945778,-1.0,1,376.0,942.0,1.0,152.0,1
587,587,-0.6896426667730675,-0.7,1,487.0,739.0,1.0,284.0,1
588,588,-0.6422918536854618,-0.6,1,378.0,803.0,1.0,289.0,1
589,589,-0.8822785704735048,-0.9,1,396.0,695.0,1.0,619.0,1
590,590,-0.13024252261411084,-0.1,1,259.0,556.0,1.0,285.0,1
591,591,-0.002399505729239415,-0.0,1,281.0,716.0,1.0,333.0,1
592,592,0.26236741581221823,0.3,0,416.0,769.0,0.0,425.0,1
593,593,-0.4080284879050675,-0.4,1,410.0,829.0,1.0,481.0,1
594,594,0.12943315025179336,0.1,0,359.0,565.0,1.0,366.0,0
595,595,-0.5099124264573567,-0.5,1,406.0,583.0,1.0,481.0,1
596,596,0.8794362118555201,0.9,0,301.0,830.0,0.0,179.0,1
597,597,0.2919336789195126,0.3,0,272.0,961.0,0.0,407.0,1
598,598,-0.7987449598404512,-0.8,1,321.0,941.0,1.0,338.0,1
599,599,-0.4529875230483238,-0.5,1,321.0,880.0,1.0,769.0,1
600,600,-0.601580286729495,-0.6,1,261.0,616.0,1.0,263.0,1
601,601,-0.9568306030904639,-1.0,1,342.0,965.0,1.0,473.0,1
602,602,0.977214826264466,1.0,0,318.0,995.0,0.0,327.0,1
603,603,-0.7380376229226275,-0.7,1,327.0,584.0,1.0,109.0,1
604,604,-0.9631956375322632,-1.0,1,374.0,810.0,1.0,186.0,1
605,605,-0.5615425381664452,-0.6,1,450.0,779.0,1.0,341.0,1
606,606,0.3302991916396243,0.3,0,330.0,771.0,0.0,309.0,1
607,607,0.7656480470900309,0.8,0,254.0,656.0,0.0,240.0,1
608,608,0.8709610205077076,0.9,0,369.0,705.0,0.0,266.0,1
609,609,0.6870723197817801,0.7,0,328.0,900.0,0.0,462.0,1
610,610,0.34284956488440255,0.3,0,470.0,829.0,1.0,621.0,0
611,611,0.01409058746231584,0.0,0,347.0,918.0,1.0,415.0,0
612,612,-0.43977562894968214,-0.4,1,252.0,856.0,1.0,472.0,1
613,613,0.366034132677465,0.4,0,459.0,748.0,0.0,633.0,1
614,614,0.1381276234116493,0.1,0,404.0,920.0,0.0,1156.0,1
615,615,0.38302736148590544,0.4,0,442.0,931.0,1.0,667.0,0
616,616,-0.2779387077954265,-0.3,1,474.0,779.0,1.0,107.0,1
617,617,-0.5490933735202168,-0.5,1,451.0,609.0,1.0,160.0,1
618,618,-0.020489531458934618,-0.0,1,309.0,610.0,1.0,1531.0,1
619,619,-0.0022427566463663062,-0.0,1,326.0,833.0,1.0,2281.0,1
620,620,-0.8979753073334218,-0.9,1,381.0,653.0,1.0,106.0,1
621,621,-0.32255816418062855,-0.3,1,472.0,940.0,1.0,238.0,1
622,622,-0.6473496417212456,-0.6,1,408.0,712.0,1.0,420.0,1
623,623,0.2604235956434211,0.3,0,434.0,657.0,0.0,2869.0,1
624,624,-0.08055571902163794,-0.1,1,335.0,507.0,1.0,728.0,1
625,625,-0.962763225613749,-1.0,1,317.0,970.0,1.0,973.0,1
626,626,0.11901678209023103,0.1,0,355.0,749.0,0.0,1066.0,1
627,627,0.5860092916650452,0.6,0,405.0,653.0,0.0,262.0,1
628,628,0.07118748546933418,0.1,0,375.0,904.0,1.0,561.0,0
629,629,-0.741097212604386,-0.7,1,313.0,789.0,1.0,378.0,1
630,630,0.9442582063616931,0.9,0,384.0,999.0,0.0,647.0,1
631,631,0.16738809134823063,0.2,0,475.0,884.0,0.0,1031.0,1
632,632,-0.7160244278303713,-0.7,1,467.0,628.0,1.0,405.0,1
633,633,-0.15380768557319957,-0.2,1,491.0,567.0,1.0,292.0,1
634,634,-0.7603412554189652,-0.8,1,338.0,627.0,1.0,695.0,1
635,635,0.5431471984367064,0.5,0,427.0,979.0,0.0,814.0,1
636,636,-0.6749210673059935,-0.7,1,266.0,738.0,1.0,216.0,1
637,637,0.7903750454111653,0.8,0,286.0,714.0,0.0,340.0,1
638,638,0.5377334370331364,0.5,0,336.0,913.0,0.0,391.0,1
639,639,0.5782138499033722,0.6,0,250.0,957.0,0.0,363.0,1
640,640,-0.29261556454067894,-0.3,1,498.0,716.0,1.0,586.0,1
641,641,-0.12828748560708503,-0.1,1,349.0,534.0,1.0,277.0,1
642,642,-0.03791484695864278,-0.0,1,487.0,793.0,0.0,680.0,0
643,643,0.20673637222859131,0.2,0,317.0,972.0,0.0,1081.0,1
644,644,-0.42977532477223135,-0.4,1,480.0,597.0,1.0,163.0,1
645,645,0.7944261109313955,0.8,0,291.0,650.0,0.0,339.0,1
646,646,-0.5761071953345194,-0.6,1,419.0,882.0,1.0,459.0,1
647,647,-0.030733971769392632,-0.0,1,353.0,701.0,0.0,886.0,0
648,648,0.22670358989613115,0.2,0,457.0,806.0,1.0,507.0,0
649,649,0.5717421778334437,0.6,0,414.0,796.0,0.0,1490.0,1
650,650,0.7573399548562734,0.8,0,431.0,951.0,1.0,138.0,0
651,651,0.3153635327581339,0.3,0,354.0,647.0,0.0,579.0,1
652,652,0.6200401482047884,0.6,0,257.0,829.0,0.0,234.0,1
653,653,-0.1700996433207107,-0.2,1,470.0,514.0,1.0,966.0,1
654,654,-0.6407161552128968,-0.6,1,367.0,928.0,1.0,615.0,1
655,655,-0.6014277416393035,-0.6,1,464.0,713.0,1.0,853.0,1
656,656,-0.9048494299728307,-0.9,1,434.0,735.0,1.0,221.0,1
657,657,0.9924215046066172,1.0,0,288.0,935.0,0.0,257.0,1
658,658,0.2791065157899144,0.3,0,389.0,768.0,1.0,183.0,0
659,659,0.4230632691090195,0.4,0,345.0,741.0,0.0,704.0,1
660,660,-0.7959656645259081,-0.8,1,404.0,820.0,1.0,276.0,1
661,661,0.3662654117482951,0.4,0,427.0,604.0,0.0,679.0,1
662,662,-0.6436383147673204,-0.6,1,272.0,512.0,1.0,396.0,1
663,663,0.2644352487034223,0.3,0,415.0,989.0,0.0,726.0,1
664,664,0.7630292259369527,0.8,0,265.0,880.0,0.0,495.0,1
665,665,-0.07616841701240684,-0.1,1,369.0,899.0,1.0,772.0,1
666,666,-0.2432291534342359,-0.2,1,313.0,849.0,0.0,1108.0,0
667,667,0.43289437208795034,0.4,0,268.0,584.0,0.0,998.0,1
668,668,0.3700532614602927,0.4,0,474.0,801.0,0.0,345.0,1
669,669,0.9239056173532678,0.9,0,373.0,654.0,0.0,293.0,1
670,670,-0.6378062582023301,-0.6,1,488.0,855.0,1.0,647.0,1
671,671,0.727554167437972,0.7,0,489.0,511.0,0.0,940.0,1
672,672,0.32907874278507565,0.3,0,474.0,798.0,1.0,338.0,0
673,673,0.04775365635073969,0.0,0,344.0,809.0,1.0,147.0,0
674,674,-0.5255474525086139,-0.5,1,346.0,589.0,1.0,615.0,1
675,675,-0.6329889134036275,-0.6,1,254.0,752.0,1.0,314.0,1
676,676,-0.09624322282017239,-0.1,1,396.0,671.0,1.0,223.0,1
677,677,-0.0008301655651008488,-0.0,1,465.0,628.0,0.0,517.0,0
678,678,0.15941129111561314,0.2,0,461.0,872.0,0.0,1977.0,1
679,679,0.19474166599958176,0.2,0,354.0,600.0,0.0,586.0,1
680,680,-0.49153879657988764,-0.5,1,292.0,842.0,1.0,366.0,1
681,681,-0.5275938005235483,-0.5,1,487.0,525.0,1.0,128.0,1
682,682,0.970962492760082,1.0,0,290.0,994.0,0.0,146.0,1
683,683,-0.3143021132285355,-0.3,1,389.0,947.0,1.0,1494.0,1
684,684,-0.6827821966083383,-0.7,1,307.0,741.0,1.0,172.0,1
685,685,0.9846101865131769,1.0,0,284.0,639.0,0.0,667.0,1
686,686,0.3615605279359473,0.4,0,318.0,814.0,0.0,318.0,1
687,687,-0.42654333872454475,-0.4,1,336.0,902.0,1.0,282.0,1
688,688,0.9051846490620432,0.9,0,437.0,543.0,0.0,740.0,1
689,689,0.3261691014912873,0.3,0,490.0,588.0,0.0,1872.0,1
690,690,-0.2375058917403694,-0.2,1,332.0,671.0,1.0,237.0,1
691,691,-0.6790378474545968,-0.7,1,383.0,922.0,1.0,355.0,1
692,692,0.07767988594450959,0.1,0,278.0,622.0,1.0,1500.0,0
693,693,0.9100491644668336,0.9,0,339.0,909.0,0.0,332.0,1
694,694,0.8416054791626353,0.8,0,460.0,577.0,0.0,283.0,1
695,695,-0.7305411289542216,-0.7,1,423.0,983.0,1.0,104.0,1
696,696,0.6522056111554035,0.7,0,424.0,534.0,0.0,262.0,1
697,697,-0.18986686773271044,-0.2,1,402.0,580.0,1.0,318.0,1
698,698,-0.4087028038527156,-0.4,1,423.0,971.0,1.0,276.0,1
699,699,0.8808382444750784,0.9,0,390.0,773.0,0.0,257.0,1
700,700,-0.24840623397770356,-0.2,1,323.0,599.0,1.0,288.0,1
701,701,-0.2334864207939602,-0.2,1,266.0,895.0,1.0,369.0,1
702,702,-0.7333995488844518,-0.7,1,402.0,910.0,1.0,138.0,1
703,703,0.7767567774133344,0.8,0,417.0,739.0,0.0,504.0,1
704,704,0.6166414689589359,0.6,0,382.0,760.0,0.0,798.0,1
705,705,0.8155831485816503,0.8,0,279.0,503.0,0.0,468.0,1
706,706,0.7765701155261515,0.8,0,258.0,801.0,0.0,631.0,1
707,707,0.3941666032301092,0.4,0,355.0,561.0,1.0,314.0,0
708,708,-0.2627741577158478,-0.3,1,291.0,747.0,1.0,272.0,1
709,709,0.09862744963667036,0.1,0,266.0,992.0,1.0,2142.0,0
710,710,-0.5950642398024046,-0.6,1,449.0,906.0,1.0,565.0,1
711,711,-0.24608089999427496,-0.2,1,419.0,989.0,1.0,982.0,1
712,712,0.8447398522699876,0.8,0,430.0,823.0,0.0,337.0,1
713,713,-0.5540206580467053,-0.6,1,372.0,935.0,1.0,333.0,1
714,714,0.4067624324654926,0.4,0,399.0,763.0,0.0,278.0,1
715,715,0.20592492912004468,0.2,0,308.0,561.0,1.0,391.0,0
716,716,0.5594061967235451,0.6,0,267.0,771.0,0.0,522.0,1
717,717,0.4578629135604406,0.5,0,256.0,550.0,0.0,834.0,1
718,718,0.5736616232473102,0.6,0,426.0,786.0,0.0,348.0,1
719,719,-0.9538367246120583,-1.0,1,385.0,949.0,1.0,376.0,1
720,720,0.13711272130568064,0.1,0,468.0,698.0,0.0,234.0,1
721,721,0.3720671012828174,0.4,0,263.0,904.0,0.0,2313.0,1
722,722,-0.09850427870811895,-0.1,1,447.0,706.0,1.0,567.0,1
723,723,0.1264744341142534,0.1,0,323.0,932.0,0.0,275.0,1
724,724,-0.33151040838820167,-0.3,1,379.0,653.0,1.0,278.0,1
725,725,-0.8920595384961574,-0.9,1,338.0,739.0,1.0,363.0,1
726,726,-0.6239844139905244,-0.6,1,257.0,535.0,1.0,388.0,1
727,727,-0.21779267647288636,-0.2,1,335.0,755.0,1.0,590.0,1
728,728,-0.5014773772323782,-0.5,1,354.0,839.0,1.0,397.0,1
729,729,-0.718765845349222,-0.7,1,372.0,580.0,1.0,1208.0,1
730,730,0.7670843512995729,0.8,0,383.0,639.0,0.0,218.0,1
731,731,0.6131349322867599,0.6,0,416.0,796.0,0.0,318.0,1
732,732,0.6398576703205576,0.6,0,491.0,786.0,0.0,733.0,1
733,733,0.6573429052506727,0.7,0,251.0,953.0,0.0,606.0,1
734,734,0.8670253904718013,0.9,0,343.0,959.0,0.0,368.0,1
735,735,0.6414277692465815,0.6,0,386.0,739.0,0.0,255.0,1
736,736,-0.8942026987050349,-0.9,1,427.0,876.0,1.0,617.0,1
737,737,-0.09653599763529042,-0.1,1,250.0,699.0,1.0,1411.0,1
738,738,0.7468865570096559,0.7,0,377.0,671.0,0.0,282.0,1
739,739,-0.7179111650862764,-0.7,1,272.0,841.0,1.0,947.0,1
740,740,-0.37757296857751665,-0.4,1,419.0,598.0,1.0,743.0,1
741,741,-0.5752242086613644,-0.6,1,385.0,955.0,1.0,150.0,1
742,742,0.8102445297860135,0.8,0,266.0,874.0,0.0,340.0,1
743,743,0.9138818130385542,0.9,0,489.0,928.0,0.0,313.0,1
744,744,0.35192208965790917,0.4,0,454.0,630.0,0.0,416.0,1
745,745,-0.49935429181048585,-0.5,1,385.0,593.0,1.0,192.0,1
746,746,-0.7216300056255289,-0.7,1,337.0,696.0,1.0,527.0,1
747,747,-0.14950605497455838,-0.1,1,358.0,628.0,1.0,504.0,1
748,748,0.16333927194823272,0.2,0,466.0,815.0,1.0,639.0,0
749,749,-0.7652845466381917,-0.8,1,476.0,650.0,1.0,174.0,1
750,750,0.34020821943143265,0.3,0,366.0,937.0,1.0,127.0,0
751,751,-0.8679594819488099,-0.9,1,283.0,971.0,1.0,126.0,1
752,752,-0.37350726435455117,-0.4,1,281.0,820.0,1.0,369.0,1
753,753,-0.8035050180115482,-0.8,1,459.0,667.0,1.0,224.0,1
754,754,0.6602584808837597,0.7,0,269.0,837.0,0.0,544.0,1
755,755,-0.1439559968745785,-0.1,1,462.0,826.0,1.0,462.0,1
756,756,0.3872212961801207,0.4,0,313.0,693.0,0.0,314.0,1
757,757,0.8740918311456396,0.9,0,498.0,607.0,0.0,265.0,1
758,758,0.8781146313739967,0.9,0,341.0,591.0,0.0,398.0,1
759,759,0.727157808968772,0.7,0,335.0,680.0,0.0,295.0,1
760,760,0.014912450749072548,0.0,0,423.0,774.0,1.0,2593.0,0
761,761,-0.5080572232388192,-0.5,1,344.0,996.0,1.0,1320.0,1
762,762,-0.7724950370947805,-0.8,1,273.0,518.0,1.0,249.0,1
763,763,0.9961553827004328,1.0,0,449.0,975.0,0.0,266.0,1
764,764,-0.4291945570818596,-0.4,1,470.0,680.0,1.0,230.0,1
765,765,-0.7201790935461152,-0.7,1,455.0,797.0,1.0,418.0,1
766,766,-0.022905506783216678,-0.0,1,414.0,875.0,1.0,571.0,1
767,767,0.6164340199532676,0.6,0,391.0,517.0,0.0,592.0,1
768,768,0.5960857324175872,0.6,0,274.0,877.0,0.0,179.0,1
769,769,0.7366934323383334,0.7,0,427.0,807.0,1.0,726.0,0
770,770,-0.7815610527834012,-0.8,1,454.0,868.0,1.0,848.0,1
771,771,0.8788084913028327,0.9,0,309.0,707.0,0.0,444.0,1
772,772,-0.09155436187519306,-0.1,1,446.0,543.0,1.0,391.0,1
773,773,-0.7096628162116405,-0.7,1,303.0,990.0,1.0,87.0,1
774,774,0.0640240427414529,0.1,0,340.0,871.0,0.0,639.0,1
775,775,0.18573392397332156,0.2,0,397.0,769.0,1.0,314.0,0
776,776,-0.2667912675543809,-0.3,1,488.0,885.0,1.0,827.0,1
777,777,0.5538393724574133,0.6,0,300.0,920.0,0.0,310.0,1
778,778,-0.02899428360600509,-0.0,1,406.0,682.0,1.0,132.0,1
779,779,-0.47533512497025243,-0.5,1,337.0,820.0,1.0,473.0,1
780,780,-0.6701397200762143,-0.7,1,325.0,887.0,1.0,108.0,1
781,781,0.389975199427794,0.4,0,428.0,737.0,0.0,265.0,1
782,782,-0.9141261193441657,-0.9,1,472.0,693.0,1.0,105.0,1
783,783,0.4239168595837641,0.4,0,332.0,501.0,0.0,297.0,1
784,784,-0.12688680870261648,-0.1,1,460.0,695.0,1.0,125.0,1
785,785,0.4240922553815476,0.4,0,293.0,927.0,0.0,160.0,1
786,786,0.20853782096273998,0.2,0,282.0,544.0,0.0,2024.0,1
787,787,-0.9802727760320851,-1.0,1,491.0,936.0,1.0,533.0,1
788,788,-0.41862665613439964,-0.4,1,270.0,828.0,1.0,482.0,1
789,789,-0.5291388053887331,-0.5,1,480.0,882.0,1.0,208.0,1
790,790,0.551839215656778,0.6,0,328.0,988.0,0.0,854.0,1
791,791,-0.9191856521827007,-0.9,1,431.0,822.0,1.0,477.0,1
792,792,-0.09165007472790987,-0.1,1,258.0,687.0,0.0,775.0,0
793,793,-0.831757548376896,-0.8,1,474.0,568.0,1.0,248.0,1
794,794,0.7365641264289715,0.7,0,258.0,544.0,0.0,388.0,1
795,795,-0.8815308299365976,-0.9,1,310.0,559.0,1.0,141.0,1
796,796,-0.22704284460368496,-0.2,1,481.0,529.0,1.0,680.0,1
797,797,-0.7895731196710145,-0.8,1,287.0,745.0,1.0,148.0,1
798,798,-0.9350612913622256,-0.9,1,328.0,557.0,1.0,165.0,1
799,799,-0.23791206647026453,-0.2,1,358.0,957.0,1.0,985.0,1
800,800,-0.6634099129120588,-0.7,1,470.0,921.0,1.0,629.0,1
801,801,0.6747946468047927,0.7,0,496.0,544.0,0.0,580.0,1
802,802,-0.7670755986955433,-0.8,1,376.0,624.0,1.0,650.0,1
803,803,0.3409538663056595,0.3,0,459.0,750.0,0.0,1071.0,1
804,804,-0.3134939170014721,-0.3,1,312.0,928.0,1.0,230.0,1
805,805,-0.5533783729485586,-0.6,1,412.0,647.0,1.0,291.0,1
806,806,0.8381509218864858,0.8,0,356.0,829.0,0.0,225.0,1
807,807,0.7787584612681153,0.8,0,397.0,585.0,0.0,438.0,1
808,808,-0.551857291240216,-0.6,1,416.0,978.0,1.0,926.0,1
809,809,0.5162474609647039,0.5,0,473.0,764.0,0.0,283.0,1
810,810,0.7981290683446005,0.8,0,395.0,590.0,0.0,305.0,1
811,811,0.014655420220945237,0.0,0,409.0,537.0,1.0,414.0,0
812,812,0.3791172777928551,0.4,0,322.0,774.0,0.0,474.0,1
813,813,-0.23911232700970952,-0.2,1,385.0,874.0,1.0,2061.0,1
814,814,-0.4082644149609447,-0.4,1,445.0,599.0,1.0,1086.0,1
815,815,0.6294740151837726,0.6,0,256.0,944.0,0.0,310.0,1
816,816,-0.9163345401706686,-0.9,1,389.0,534.0,1.0,237.0,1
817,817,0.4662224250683278,0.5,0,335.0,913.0,1.0,962.0,0
818,818,0.08511841512237894,0.1,0,304.0,894.0,1.0,852.0,0
819,819,-0.44465567164444253,-0.4,1,255.0,617.0,1.0,558.0,1
820,820,-0.5868699750202255,-0.6,1,453.0,657.0,1.0,180.0,1
821,821,-0.6236551272740936,-0.6,1,417.0,819.0,1.0,94.0,1
822,822,-0.31145177080519604,-0.3,1,391.0,802.0,0.0,257.0,0
823,823,-0.9793643826630383,-1.0,1,319.0,715.0,1.0,436.0,1
824,824,-0.6833149079393246,-0.7,1,363.0,752.0,1.0,2035.0,1
825,825,-0.17381665534392976,-0.2,1,255.0,920.0,0.0,1095.0,0
826,826,-0.2831433095404541,-0.3,1,412.0,589.0,1.0,379.0,1
827,827,-0.08763422712816693,-0.1,1,412.0,598.0,1.0,710.0,1
828,828,0.9310587596562323,0.9,0,276.0,744.0,0.0,590.0,1
829,829,-0.6935725982962833,-0.7,1,422.0,566.0,1.0,922.0,1
830,830,0.7020361192619518,0.7,0,402.0,690.0,0.0,1088.0,1
831,831,-0.9881403842391476,-1.0,1,497.0,895.0,1.0,628.0,1
832,832,0.6254789778926169,0.6,0,376.0,869.0,0.0,265.0,1
833,833,0.4524824390476221,0.5,0,383.0,822.0,0.0,455.0,1
834,834,-0.5187972192819992,-0.5,1,367.0,550.0,1.0,173.0,1
835,835,0.38271863648393145,0.4,0,288.0,854.0,0.0,1978.0,1
836,836,0.4665840868066342,0.5,0,393.0,678.0,0.0,1789.0,1
837,837,0.24091073745751013,0.2,0,280.0,678.0,1.0,1002.0,0
838,838,0.09857181023860484,0.1,0,259.0,980.0,1.0,371.0,0
839,839,-0.3550207923501869,-0.4,1,474.0,858.0,0.0,178.0,0
840,840,0.23841245682511447,0.2,0,263.0,774.0,0.0,573.0,1
841,841,0.9594880091767803,1.0,0,310.0,589.0,0.0,501.0,1
842,842,-0.40192486274270567,-0.4,1,341.0,839.0,1.0,690.0,1
843,843,-0.7994093012591525,-0.8,1,372.0,918.0,1.0,290.0,1
844,844,-0.5735765924558001,-0.6,1,338.0,882.0,1.0,310.0,1
845,845,0.30909956009623407,0.3,0,485.0,535.0,1.0,540.0,0
846,846,0.5775803810946747,0.6,0,417.0,940.0,1.0,113.0,0
847,847,0.9326003477450115,0.9,0,496.0,571.0,0.0,443.0,1
848,848,0.9749814360180686,1.0,0,350.0,959.0,0.0,361.0,1
849,849,0.08574174621704334,0.1,0,436.0,661.0,0.0,803.0,1
850,850,-0.4010957426586266,-0.4,1,309.0,974.0,1.0,967.0,1
851,851,0.012736587727427917,0.0,0,383.0,753.0,1.0,434.0,0
852,852,-0.8823644591860091,-0.9,1,468.0,598.0,1.0,204.0,1
853,853,-0.5012205826545304,-0.5,1,315.0,683.0,1.0,362.0,1
854,854,-0.23931521622521235,-0.2,1,493.0,509.0,1.0,838.0,1
855,855,-0.03010839777862162,-0.0,1,400.0,783.0,1.0,767.0,1
856,856,0.7170030489142591,0.7,0,303.0,880.0,0.0,557.0,1
857,857,-0.23077701019907915,-0.2,1,345.0,848.0,1.0,567.0,1
858,858,-0.005156860189946988,-0.0,1,364.0,926.0,1.0,500.0,1
859,859,0.07420840000121043,0.1,0,466.0,581.0,1.0,903.0,0
860,860,0.5925703585425806,0.6,0,277.0,746.0,0.0,217.0,1
861,861,-0.7562143008097646,-0.8,1,276.0,627.0,1.0,387.0,1
862,862,-0.7218184440388109,-0.7,1,484.0,742.0,1.0,234.0,1
863,863,-0.28813259642934064,-0.3,1,413.0,738.0,1.0,309.0,1
864,864,-0.9440205437183775,-0.9,1,449.0,610.0,1.0,121.0,1
865,865,-0.4103153296330364,-0.4,1,447.0,695.0,1.0,378.0,1
866,866,-0.8532745274602958,-0.9,1,458.0,542.0,1.0,890.0,1
867,867,-0.5810386768177771,-0.6,1,361.0,826.0,1.0,133.0,1
868,868,-0.28963056800747866,-0.3,1,441.0,911.0,1.0,198.0,1
869,869,0.3943933494252059,0.4,0,255.0,646.0,0.0,1309.0,1
870,870,-0.4194243531820998,-0.4,1,485.0,752.0,1.0,333.0,1
871,871,-0.17750573272804337,-0.2,1,426.0,720.0,1.0,674.0,1
872,872,0.6429576011917346,0.6,0,370.0,897.0,0.0,453.0,1
873,873,0.13061502979221062,0.1,0,475.0,532.0,0.0,1573.0,1
874,874,-0.3857621832107714,-0.4,1,421.0,921.0,1.0,248.0,1
875,875,-0.9268817904867266,-0.9,1,498.0,771.0,1.0,411.0,1
876,876,-0.14026666008133803,-0.1,1,252.0,884.0,1.0,734.0,1
877,877,0.7908542568335817,0.8,0,399.0,878.0,0.0,583.0,1
878,878,-0.9675475497105313,-1.0,1,483.0,643.0,1.0,224.0,1
879,879,-0.014245029272728305,-0.0,1,498.0,520.0,1.0,412.0,1
880,880,0.44395998383791313,0.4,0,454.0,716.0,0.0,370.0,1
881,881,-0.1211031858738516,-0.1,1,334.0,994.0,0.0,522.0,0
882,882,-0.8306798345084991,-0.8,1,357.0,674.0,1.0,1219.0,1
883,883,0.9673248157853565,1.0,0,308.0,623.0,0.0,189.0,1
884,884,-0.058116137933369894,-0.1,1,302.0,655.0,1.0,253.0,1
885,885,0.4529721984904489,0.5,0,422.0,649.0,1.0,229.0,0
886,886,-0.9572423548350717,-1.0,1,314.0,997.0,1.0,409.0,1
887,887,-0.24899880733581004,-0.2,1,359.0,617.0,1.0,544.0,1
888,888,-0.6418437612701615,-0.6,1,288.0,590.0,1.0,182.0,1
889,889,0.7834695645843643,0.8,0,449.0,808.0,0.0,843.0,1
890,890,-0.49123466157024587,-0.5,1,281.0,754.0,1.0,335.0,1
891,891,-0.9211843948103373,-0.9,1,319.0,608.0,1.0,373.0,1
892,892,-0.45458358276467337,-0.5,1,319.0,968.0,1.0,203.0,1
893,893,-0.5413645260631252,-0.5,1,405.0,522.0,1.0,253.0,1
894,894,-0.6486160751913093,-0.6,1,452.0,602.0,1.0,186.0,1
895,895,-0.027761787377585057,-0.0,1,302.0,717.0,1.0,941.0,1
896,896,0.20021886690177082,0.2,0,353.0,838.0,0.0,229.0,1
897,897,-0.6197463612801348,-0.6,1,432.0,810.0,1.0,238.0,1
898,898,-0.779350794827155,-0.8,1,268.0,835.0,1.0,287.0,1
899,899,-0.01869229633239211,-0.0,1,274.0,969.0,1.0,447.0,1
900,900,-0.0016900258238536914,-0.0,1,386.0,821.0,0.0,693.0,0
901,901,0.676382392561955,0.7,0,275.0,840.0,0.0,385.0,1
902,902,0.33026674265437106,0.3,0,419.0,526.0,0.0,685.0,1
903,903,-0.9523337873867983,-1.0,1,428.0,964.0,1.0,128.0,1
904,904,-0.4641073847487833,-0.5,1,297.0,777.0,1.0,1216.0,1
905,905,0.1833455874041403,0.2,0,286.0,684.0,1.0,190.0,0
906,906,-0.15016364892076473,-0.2,1,310.0,933.0,1.0,477.0,1
907,907,-0.06712967719873131,-0.1,1,403.0,818.0,0.0,309.0,0
908,908,0.8256289045056888,0.8,0,458.0,976.0,0.0,236.0,1
909,909,-0.18897076223870068,-0.2,1,379.0,869.0,1.0,372.0,1
910,910,-0.6575092880124591,-0.7,1,344.0,888.0,1.0,288.0,1
911,911,-0.03370521347816746,-0.0,1,345.0,971.0,1.0,114.0,1
912,912,0.357423475686073,0.4,0,381.0,624.0,0.0,1435.0,1
913,913,0.11944486662877862,0.1,0,479.0,779.0,1.0,352.0,0
914,914,0.7925285299903815,0.8,0,363.0,773.0,0.0,364.0,1
915,915,0.11853306358606153,0.1,0,266.0,761.0,1.0,433.0,0
916,916,-0.4650452085841308,-0.5,1,380.0,928.0,1.0,192.0,1
917,917,0.4820417661656151,0.5,0,426.0,821.0,0.0,1453.0,1
918,918,0.3927363115213989,0.4,0,431.0,598.0,0.0,241.0,1
919,919,0.8655692472645851,0.9,0,301.0,681.0,0.0,258.0,1
920,920,0.10427857302185828,0.1,0,460.0,948.0,1.0,412.0,0
921,921,0.44607058205157335,0.4,0,335.0,683.0,0.0,372.0,1
922,922,0.6813069481365868,0.7,0,459.0,986.0,0.0,845.0,1
923,923,-0.5796767633058839,-0.6,1,497.0,725.0,1.0,388.0,1
924,924,-0.6401388209650789,-0.6,1,464.0,544.0,1.0,112.0,1
925,925,0.8485607017662837,0.8,0,314.0,714.0,0.0,152.0,1
926,926,0.8379663329736471,0.8,0,280.0,507.0,0.0,403.0,1
927,927,0.5469787799379113,0.5,0,274.0,536.0,0.0,1090.0,1
928,928,0.4985401780226195,0.5,0,434.0,703.0,0.0,263.0,1
929,929,0.4823934716165641,0.5,0,458.0,554.0,0.0,258.0,1
930,930,0.9017341550700986,0.9,0,270.0,835.0,0.0,465.0,1
931,931,0.2583297117098651,0.3,0,474.0,873.0,0.0,2193.0,1
932,932,-0.6607868507301766,-0.7,1,447.0,799.0,1.0,494.0,1
933,933,-0.6543043435010234,-0.7,1,466.0,777.0,1.0,227.0,1
934,934,-0.1884140791232447,-0.2,1,448.0,851.0,1.0,131.0,1
935,935,0.10853201703858506,0.1,0,343.0,604.0,0.0,553.0,1
936,936,-0.43864744634182795,-0.4,1,255.0,949.0,1.0,386.0,1
937,937,-0.41885288643362895,-0.4,1,358.0,947.0,1.0,135.0,1
938,938,-0.9656067955419385,-1.0,1,374.0,768.0,1.0,158.0,1
939,939,-0.44274790048397983,-0.4,1,316.0,918.0,1.0,1386.0,1
940,940,0.9762832704912914,1.0,0,335.0,630.0,0.0,205.0,1
941,941,0.713042012862497,0.7,0,369.0,643.0,0.0,618.0,1
942,942,-0.5353178989713243,-0.5,1,459.0,983.0,1.0,578.0,1
943,943,0.6312812264394077,0.6,0,293.0,836.0,0.0,361.0,1
944,944,0.09280814614631505,0.1,0,299.0,815.0,0.0,876.0,1
945,945,0.8676037498844364,0.9,0,352.0,675.0,0.0,423.0,1
946,946,-0.8039381544014945,-0.8,1,402.0,812.0,1.0,116.0,1
947,947,0.5257203700199882,0.5,0,389.0,644.0,0.0,607.0,1
948,948,0.33682709253715415,0.3,0,470.0,816.0,0.0,664.0,1
949,949,0.8207915865988915,0.8,0,329.0,603.0,0.0,778.0,1
950,950,0.9712254113361969,1.0,0,350.0,967.0,0.0,503.0,1
951,951,-0.09981322542539961,-0.1,1,414.0,607.0,1.0,929.0,1
952,952,0.7628513932157164,0.8,0,360.0,837.0,0.0,223.0,1
953,953,0.09473484734389692,0.1,0,329.0,504.0,1.0,997.0,0
954,954,-0.6227585502068467,-0.6,1,288.0,617.0,1.0,275.0,1
955,955,0.45339753354722157,0.5,0,257.0,523.0,0.0,290.0,1
956,956,-0.9731333301811775,-1.0,1,463.0,610.0,1.0,697.0,1
957,957,0.6130784845685424,0.6,0,284.0,539.0,0.0,137.0,1
958,958,-0.7326275736508965,-0.7,1,444.0,614.0,1.0,312.0,1
959,959,-0.8226873195650792,-0.8,1,348.0,637.0,1.0,235.0,1
960,960,0.8981728103507287,0.9,0,322.0,857.0,0.0,131.0,1
961,961,-0.8147238388661808,-0.8,1,350.0,939.0,1.0,91.0,1
962,962,0.07821113723715944,0.1,0,348.0,664.0,0.0,428.0,1
963,963,-0.9327844863869215,-0.9,1,476.0,703.0,1.0,181.0,1
964,964,0.8751447646788042,0.9,0,376.0,891.0,0.0,213.0,1
965,965,-0.7727610666792293,-0.8,1,495.0,516.0,1.0,739.0,1
966,966,0.8830717168737845,0.9,0,391.0,754.0,0.0,235.0,1
967,967,0.07849167729710538,0.1,0,442.0,950.0,0.0,1558.0,1
968,968,0.272330809733923,0.3,0,374.0,626.0,0.0,210.0,1
969,969,0.40835181689022093,0.4,0,397.0,812.0,0.0,721.0,1
970,970,-0.2613116307570682,-0.3,1,318.0,710.0,1.0,252.0,1
971,971,-0.7536053502554088,-0.8,1,255.0,932.0,1.0,243.0,1
972,972,0.4198844315000372,0.4,0,301.0,940.0,0.0,159.0,1
973,973,-0.8030379141145603,-0.8,1,487.0,919.0,1.0,334.0,1
974,974,-0.8518019341829048,-0.9,1,455.0,613.0,1.0,292.0,1
975,975,0.8243106665210995,0.8,0,443.0,969.0,0.0,538.0,1
976,976,-0.3931735066989237,-0.4,1,278.0,787.0,1.0,1565.0,1
977,977,0.9073017245547128,0.9,0,432.0,635.0,0.0,213.0,1
978,978,-0.21595220264398862,-0.2,1,403.0,649.0,1.0,678.0,1
979,979,-0.8902431610664061,-0.9,1,453.0,889.0,1.0,118.0,1
980,980,0.6544646904997418,0.7,0,263.0,981.0,0.0,936.0,1
981,981,0.38354826663217767,0.4,0,253.0,858.0,1.0,149.0,0
982,982,0.5831375306915676,0.6,0,471.0,917.0,0.0,412.0,1
983,983,0.0879307982429931,0.1,0,467.0,789.0,1.0,604.0,0
984,984,0.3325109291403847,0.3,0,314.0,943.0,0.0,1173.0,1
985,985,0.3161918031702915,0.3,0,442.0,840.0,0.0,628.0,1
986,986,0.023188887627940025,0.0,0,349.0,507.0,1.0,794.0,0
987,987,-0.2812492671061282,-0.3,1,292.0,787.0,1.0,231.0,1
988,988,-0.21380477747324877,-0.2,1,478.0,549.0,1.0,323.0,1
989,989,0.14111990096348315,0.1,0,338.0,632.0,0.0,220.0,1
990,990,-0.6879771306267293,-0.7,1,437.0,783.0,1.0,180.0,1
991,991,0.15298345323495455,0.2,0,393.0,639.0,0.0,648.0,1
992,992,-0.9918717510494881,-1.0,1,418.0,778.0,1.0,224.0,1
993,993,-0.840550043278484,-0.8,1,378.0,837.0,1.0,305.0,1
994,994,-0.2171859695262035,-0.2,1,408.0,705.0,1.0,1117.0,1
995,995,0.7465018870506437,0.7,0,408.0,797.0,0.0,485.0,1
996,996,0.5252767516539285,0.5,0,359.0,997.0,0.0,764.0,1
997,997,-0.04327411035989304,-0.0,1,479.0,929.0,1.0,172.0,1
998,998,0.10278126513486363,0.1,0,299.0,920.0,0.0,561.0,1
999,999,-0.568121225590787,-0.6,1,416.0,986.0,1.0,838.0,1
1000,1000,0.7958116881097246,0.8,0,367.0,996.0,0.0,147.0,1
1001,1001,0.318441523529301,0.3,0,423.0,862.0,1.0,625.0,0
1002,1002,-0.3154417239935179,-0.3,1,333.0,598.0,1.0,119.0,1
1003,1003,0.37018331527420023,0.4,0,385.0,805.0,0.0,260.0,1
1004,1004,0.23331175653803937,0.2,0,273.0,840.0,0.0,1187.0,1
1005,1005,-0.1654716085502368,-0.2,1,340.0,778.0,1.0,72.0,1
1006,1006,-0.8432029968539303,-0.8,1,451.0,754.0,1.0,565.0,1
1007,1007,-0.19774264919031737,-0.2,1,447.0,952.0,1.0,311.0,1
1008,1008,-0.421903333573723,-0.4,1,366.0,888.0,1.0,186.0,1
1009,1009,-0.311570052751291,-0.3,1,415.0,540.0,1.0,725.0,1
1010,1010,-0.09428765392029037,-0.1,1,495.0,578.0,1.0,277.0,1
1011,1011,-0.49416672849669063,-0.5,1,311.0,843.0,1.0,266.0,1
1012,1012,0.6772471246497849,0.7,0,452.0,999.0,0.0,469.0,1
1013,1013,0.5598009939212147,0.6,0,288.0,565.0,0.0,447.0,1
1014,1014,0.9892843740646717,1.0,0,444.0,970.0,0.0,386.0,1
1015,1015,-0.9534623925556145,-1.0,1,381.0,590.0,1.0,189.0,1
1016,1016,-0.36992471723256726,-0.4,1,300.0,714.0,1.0,196.0,1
1017,1017,0.955376452775142,1.0,0,408.0,921.0,0.0,211.0,1
1018,1018,0.00803635494970445,0.0,0,446.0,892.0,1.0,212.0,0
1019,1019,0.2166552807318176,0.2,0,317.0,577.0,1.0,126.0,0
1020,1020,0.4239969143233502,0.4,0,351.0,561.0,0.0,1258.0,1
1021,1021,-0.22035059161350423,-0.2,1,451.0,827.0,1.0,282.0,1
1022,1022,-0.2529706847081845,-0.3,1,308.0,939.0,1.0,503.0,1
1023,1023,-0.2984823123129541,-0.3,1,349.0,511.0,1.0,550.0,1
1024,1024,-0.6301674761935769,-0.6,1,300.0,980.0,1.0,340.0,1
1025,1025,-0.33099032852376165,-0.3,1,494.0,719.0,1.0,197.0,1
1026,1026,0.715011710415038,0.7,0,331.0,961.0,0.0,168.0,1
1027,1027,0.5069807080605055,0.5,0,392.0,527.0,0.0,471.0,1
1028,1028,0.35702670169591144,0.4,0,349.0,664.0,0.0,107.0,1
1029,1029,-0.24750468999404873,-0.2,1,433.0,926.0,0.0,321.0,0
1030,1030,0.6098153517626457,0.6,0,266.0,682.0,0.0,632.0,1
1031,1031,-0.8086580201805371,-0.8,1,462.0,634.0,1.0,234.0,1
1032,1032,0.9467931109614565,0.9,0,338.0,589.0,0.0,183.0,1
1033,1033,-0.36612098980999663,-0.4,1,466.0,663.0,1.0,681.0,1
1034,1034,0.7414192373816781,0.7,0,379.0,506.0,0.0,125.0,1
1035,1035,0.07815075346801303,0.1,0,306.0,686.0,1.0,628.0,0
1036,1036,0.11405804984299261,0.1,0,474.0,547.0,1.0,449.0,0
1037,1037,-0.4459083957438639,-0.4,1,447.0,855.0,1.0,658.0,1
1038,1038,-0.47410368299334404,-0.5,1,465.0,619.0,1.0,426.0,1
1039,1039,0.9688437302980939,1.0,0,484.0,827.0,0.0,269.0,1
1040,1040,0.6412231119399723,0.6,0,436.0,624.0,0.0,560.0,1
1041,1041,-0.1372197863278064,-0.1,1,295.0,625.0,1.0,490.0,1
1042,1042,0.8046517383368763,0.8,0,289.0,890.0,0.0,791.0,1
1043,1043,0.1031158839669577,0.1,0,422.0,576.0,1.0,172.0,0
1044,1044,-0.7172370641736336,-0.7,1,404.0,692.0,1.0,134.0,1
1045,1045,-0.09551128482602578,-0.1,1,253.0,976.0,1.0,541.0,1
1046,1046,-0.9196043292374299,-0.9,1,384.0,785.0,1.0,201.0,1
1047,1047,-0.453304236827641,-0.5,1,411.0,816.0,1.0,313.0,1
1048,1048,0.06104529264189007,0.1,0,333.0,858.0,0.0,479.0,1
1049,1049,0.9888717317034679,1.0,0,276.0,730.0,0.0,244.0,1
1050,1050,-0.1974784911531322,-0.2,1,363.0,575.0,0.0,142.0,0
1051,1051,0.13359281596283257,0.1,0,486.0,595.0,1.0,629.0,0
1052,1052,-0.07493503192773221,-0.1,1,327.0,792.0,1.0,911.0,1
1053,1053,0.2766960410907564,0.3,0,287.0,995.0,1.0,898.0,0
1054,1054,-0.16379509778167267,-0.2,1,262.0,875.0,1.0,723.0,1
1055,1055,0.280233204065393,0.3,0,413.0,757.0,0.0,860.0,1
1056,1056,0.30271509208505987,0.3,0,442.0,600.0,0.0,88.0,1
1057,1057,0.36961772969579054,0.4,0,259.0,662.0,0.0,1639.0,1
1058,1058,-0.17595144259326978,-0.2,1,288.0,601.0,1.0,301.0,1
1059,1059,-0.6870567449173328,-0.7,1,402.0,984.0,1.0,634.0,1
1060,1060,-0.573397991361132,-0.6,1,347.0,622.0,1.0,81.0,1
1061,1061,-0.13720691330639023,-0.1,1,427.0,660.0,1.0,883.0,1
1062,1062,0.5244356867723496,0.5,0,437.0,992.0,1.0,141.0,0
1063,1063,-0.8574305265312787,-0.9,1,340.0,575.0,1.0,265.0,1
1064,1064,0.9665485063148864,1.0,0,374.0,873.0,0.0,1433.0,1
1065,1065,0.5813417709441864,0.6,0,435.0,508.0,0.0,647.0,1
1066,1066,-0.37937182848699935,-0.4,1,275.0,502.0,1.0,1513.0,1
1067,1067,0.775448173884866,0.8,0,325.0,770.0,0.0,365.0,1
1068,1068,0.9798945899331446,1.0,0,348.0,888.0,0.0,264.0,1
1069,1069,0.41176239137383774,0.4,0,430.0,893.0,1.0,357.0,0
1070,1070,-0.36465271819936795,-0.4,1,366.0,627.0,1.0,1077.0,1
1071,1071,0.1791817956115589,0.2,0,461.0,738.0,1.0,401.0,0
1072,1072,-0.28114066536461224,-0.3,1,456.0,800.0,0.0,524.0,0
1073,1073,-0.5570847666286234,-0.6,1,433.0,782.0,1.0,615.0,1
1074,1074,0.4168114772979272,0.4,0,483.0,696.0,0.0,441.0,1
1075,1075,0.45376789169297016,0.5,0,330.0,955.0,0.0,195.0,1
1076,1076,0.773203272229924,0.8,0,281.0,775.0,0.0,894.0,1
1077,1077,0.1303717388149812,0.1,0,319.0,608.0,0.0,183.0,1
1078,1078,-0.18015707385389446,-0.2,1,282.0,717.0,1.0,831.0,1
1079,1079,0.8420865907710251,0.8,0,366.0,754.0,0.0,350.0,1
1080,1080,0.9805206984446684,1.0,0,420.0,658.0,0.0,222.0,1
1081,1081,0.7103142362613397,0.7,0,386.0,848.0,0.0,1316.0,1
1082,1082,0.13787664067114314,0.1,0,363.0,727.0,1.0,370.0,0
1083,1083,0.9624716590408584,1.0,0,267.0,699.0,0.0,764.0,1
1084,1084,-0.7136433677091614,-0.7,1,341.0,928.0,1.0,221.0,1
1085,1085,-0.5833660260461413,-0.6,1,339.0,810.0,1.0,521.0,1
1086,1086,0.5176251015889166,0.5,0,433.0,783.0,0.0,1134.0,1
1087,1087,-0.6133204354939963,-0.6,1,445.0,992.0,1.0,563.0,1
1088,1088,0.6148020163325296,0.6,0,261.0,635.0,0.0,244.0,1
1089,1089,0.2819765586239136,0.3,0,482.0,625.0,0.0,1573.0,1
1090,1090,-0.9529725573724215,-1.0,1,430.0,962.0,1.0,108.0,1
1091,1091,0.7907574896368503,0.8,0,272.0,765.0,0.0,293.0,1
1092,1092,-0.04840440917172417,-0.0,1,393.0,883.0,0.0,404.0,0
1093,1093,-0.15754046611066408,-0.2,1,339.0,969.0,1.0,142.0,1
1094,1094,-0.5454132725557377,-0.5,1,354.0,698.0,1.0,278.0,1
1095,1095,0.47370999060368546,0.5,0,354.0,905.0,0.0,411.0,1
1096,1096,0.043421581552880895,0.0,0,416.0,973.0,0.0,401.0,1
1097,1097,-0.4475170974455984,-0.4,1,310.0,840.0,0.0,330.0,0
1098,1098,0.5357269240511313,0.5,0,428.0,855.0,0.0,127.0,1
1099,1099,-0.9019046673420883,-0.9,1,419.0,983.0,1.0,1378.0,1
1100,1100,-0.925801706437078,-0.9,1,296.0,540.0,1.0,114.0,1
1101,1101,-0.4884484350169167,-0.5,1,328.0,765.0,1.0,287.0,1
1102,1102,-0.653350225729183,-0.7,1,440.0,647.0,1.0,183.0,1
1103,1103,0.10659280109874203,0.1,0,298.0,975.0,1.0,267.0,0
1104,1104,0.5492958172088644,0.5,0,482.0,874.0,0.0,464.0,1
1105,1105,-0.7230157326202662,-0.7,1,461.0,584.0,1.0,755.0,1
1106,1106,0.6803306891246734,0.7,0,465.0,780.0,0.0,495.0,1
1107,1107,0.882929015092339,0.9,0,453.0,961.0,0.0,406.0,1
1108,1108,0.6692736408232081,0.7,0,466.0,901.0,0.0,183.0,1
1109,1109,-0.7808639587264417,-0.8,1,496.0,980.0,1.0,794.0,1
1110,1110,0.2574601402115544,0.3,0,359.0,737.0,0.0,994.0,1
1111,1111,0.8276344823054798,0.8,0,418.0,596.0,0.0,576.0,1
1112,1112,-0.8462023445528322,-0.8,1,435.0,574.0,1.0,171.0,1
1113,1113,-0.0017362973855077346,-0.0,1,451.0,517.0,1.0,282.0,1
1114,1114,0.7041788818212513,0.7,0,324.0,682.0,0.0,1734.0,1
1115,1115,-0.8954912191955391,-0.9,1,485.0,941.0,1.0,354.0,1
1116,1116,0.2968447992651917,0.3,0,262.0,998.0,0.0,660.0,1
1117,1117,0.9011464786796641,0.9,0,282.0,909.0,0.0,689.0,1
1118,1118,0.007179570346482533,0.0,0,463.0,906.0,1.0,201.0,0
1119,1119,0.6351614226668107,0.6,0,385.0,756.0,0.0,529.0,1
1120,1120,-0.45489464397118784,-0.5,1,486.0,670.0,1.0,254.0,1
1121,1121,-0.5366835103537628,-0.5,1,490.0,812.0,1.0,288.0,1
1122,1122,-0.19412818580038516,-0.2,1,437.0,655.0,1.0,248.0,1
1123,1123,-0.6198293210053782,-0.6,1,276.0,977.0,1.0,307.0,1
1124,1124,-0.3365548161047174,-0.3,1,345.0,647.0,1.0,1248.0,1
1125,1125,-0.45186952991008034,-0.5,1,257.0,607.0,1.0,746.0,1
1126,1126,-0.3854331015673138,-0.4,1,349.0,968.0,1.0,403.0,1
1127,1127,0.1232412140052419,0.1,0,392.0,934.0,0.0,964.0,1
1128,1128,-0.49405747226133756,-0.5,1,486.0,920.0,1.0,764.0,1
1129,1129,0.15245740160407606,0.2,0,438.0,651.0,1.0,161.0,0
1130,1130,0.8980110336930747,0.9,0,397.0,940.0,0.0,403.0,1
1131,1131,-0.1963381451550834,-0.2,1,437.0,537.0,1.0,616.0,1
1132,1132,0.8675927502066412,0.9,0,458.0,861.0,0.0,551.0,1
1133,1133,-0.9223643198714393,-0.9,1,359.0,542.0,1.0,1009.0,1
1134,1134,-0.029935301417227222,-0.0,1,346.0,934.0,0.0,320.0,0
1135,1135,0.5348611844309841,0.5,0,433.0,865.0,0.0,1622.0,1
1136,1136,-0.7069446205581236,-0.7,1,400.0,934.0,1.0,646.0,1
1137,1137,-0.9739012469989443,-1.0,1,295.0,912.0,1.0,143.0,1
1138,1138,-0.9561862539011985,-1.0,1,417.0,717.0,1.0,206.0,1
1139,1139,-0.278184597097614,-0.3,1,352.0,758.0,1.0,140.0,1
1140,1140,0.8827357588651779,0.9,0,479.0,648.0,0.0,413.0,1
1141,1141,0.6013219209356988,0.6,0,459.0,730.0,0.0,171.0,1
1142,1142,0.585321276889641,0.6,0,448.0,677.0,0.0,315.0,1
1143,1143,0.18672799139283058,0.2,0,490.0,934.0,0.0,566.0,1
1144,1144,0.8783532453443987,0.9,0,351.0,722.0,0.0,187.0,1
1145,1145,-0.3468148053992166,-0.3,1,457.0,819.0,1.0,1284.0,1
1146,1146,0.8183907709900438,0.8,0,323.0,618.0,0.0,639.0,1
1147,1147,-0.07682079499509586,-0.1,1,336.0,863.0,0.0,1851.0,0
1148,1148,0.5196036789699883,0.5,0,310.0,959.0,0.0,321.0,1
1149,1149,0.5131820519587533,0.5,0,260.0,613.0,0.0,797.0,1
1150,1150,0.17346913001341813,0.2,0,335.0,732.0,0.0,663.0,1
1151,1151,0.8558915213993736,0.9,0,275.0,914.0,0.0,151.0,1
1152,1152,0.8579651192096802,0.9,0,294.0,841.0,0.0,225.0,1
1153,1153,-0.21765111718225238,-0.2,1,427.0,842.0,1.0,891.0,1
1154,1154,0.07514601795492348,0.1,0,360.0,924.0,0.0,186.0,1
1155,1155,0.47079940498043915,0.5,0,410.0,529.0,0.0,471.0,1
1156,1156,-0.9898125987166386,-1.0,1,475.0,823.0,1.0,212.0,1
1157,1157,-0.9539060094035514,-1.0,1,436.0,773.0,1.0,331.0,1
1158,1158,-0.08836859317685275,-0.1,1,474.0,776.0,0.0,780.0,0
1159,1159,0.7768313691727857,0.8,0,377.0,822.0,0.0,171.0,1
1160,1160,0.6841528276869109,0.7,0,367.0,735.0,0.0,228.0,1
1161,1161,0.5365374652935646,0.5,0,463.0,970.0,0.0,307.0,1
1162,1162,0.04293660096512397,0.0,0,373.0,644.0,1.0,653.0,0
1163,1163,0.6425326939420537,0.6,0,496.0,716.0,0.0,428.0,1
1164,1164,-0.9149690093977485,-0.9,1,396.0,533.0,1.0,71.0,1
1165,1165,0.061353470416218636,0.1,0,425.0,998.0,1.0,427.0,0
1166,1166,0.8930818211149387,0.9,0,335.0,894.0,0.0,321.0,1
1167,1167,0.35215105713880024,0.4,0,308.0,687.0,1.0,245.0,0
1168,1168,0.3277972646462042,0.3,0,272.0,800.0,1.0,368.0,0
1169,1169,0.1844536026322401,0.2,0,250.0,885.0,1.0,705.0,0
1170,1170,-0.2104960743801625,-0.2,1,460.0,689.0,1.0,681.0,1
1171,1171,0.09715335366614197,0.1,0,324.0,869.0,0.0,1317.0,1
1172,1172,-0.10656607005208918,-0.1,1,263.0,677.0,1.0,370.0,1
1173,1173,-0.42709649174823183,-0.4,1,373.0,553.0,1.0,334.0,1
1174,1174,0.7343829041839813,0.7,0,394.0,942.0,0.0,374.0,1
1175,1175,-0.36766315594580123,-0.4,1,498.0,879.0,1.0,353.0,1
1176,1176,0.6054660364624433,0.6,0,255.0,695.0,1.0,690.0,0
1177,1177,0.8187706511326083,0.8,0,305.0,558.0,0.0,337.0,1
1178,1178,0.10999241917022395,0.1,0,496.0,658.0,1.0,536.0,0
1179,1179,-0.2471712809525679,-0.2,1,316.0,650.0,0.0,274.0,0
1180,1180,0.19444610719265998,0.2,0,419.0,655.0,0.0,1136.0,1
1181,1181,0.6246573100946657,0.6,0,444.0,932.0,0.0,354.0,1
1182,1182,0.11111787348039237,0.1,0,274.0,566.0,0.0,430.0,1
1183,1183,-0.9888218451671,-1.0,1,477.0,631.0,1.0,632.0,1
1184,1184,0.7076282138268286,0.7,0,419.0,872.0,0.0,149.0,1
1185,1185,-0.03713402085761075,-0.0,1,263.0,827.0,1.0,910.0,1
1186,1186,0.46427407692699774,0.5,0,266.0,763.0,0.0,741.0,1
1187,1187,0.009216198886128346,0.0,0,290.0,864.0,1.0,696.0,0
1188,1188,0.9670789577572372,1.0,0,376.0,747.0,0.0,827.0,1
1189,1189,0.2631349781111765,0.3,0,285.0,870.0,0.0,1465.0,1
1190,1190,0.3452584742501583,0.3,0,437.0,596.0,0.0,1497.0,1
1191,1191,0.7016283972134345,0.7,0,376.0,500.0,0.0,614.0,1
1192,1192,-0.5391239032349382,-0.5,1,355.0,857.0,1.0,578.0,1
1193,1193,0.5048308513381747,0.5,0,334.0,678.0,0.0,558.0,1
1194,1194,-0.5799496820973362,-0.6,1,443.0,657.0,1.0,560.0,1
1195,1195,0.1293679253414548,0.1,0,296.0,894.0,1.0,420.0,0
1196,1196,0.7525477373250518,0.8,0,265.0,538.0,0.0,1117.0,1
1197,1197,-0.711867825373969,-0.7,1,287.0,964.0,1.0,279.0,1
1198,1198,-0.2962159353881513,-0.3,1,319.0,750.0,1.0,601.0,1
1199,1199,-0.4611542080017854,-0.5,1,428.0,763.0,1.0,819.0,1
1200,1200,-0.4343976177326314,-0.4,1,499.0,563.0,0.0,168.0,0
1201,1201,0.3474478657608846,0.3,0,299.0,821.0,0.0,690.0,1
1202,1202,0.1447736377945268,0.1,0,254.0,889.0,0.0,1897.0,1
1203,1203,-0.7194956981145753,-0.7,1,455.0,959.0,1.0,196.0,1
1204,1204,-0.3801550296193903,-0.4,1,459.0,733.0,1.0,1008.0,1
1205,1205,0.8281588808913238,0.8,0,476.0,800.0,0.0,214.0,1
1206,1206,-0.7410739404649316,-0.7,1,324.0,617.0,1.0,249.0,1
1207,1207,-0.7586507205728066,-0.8,1,359.0,786.0,1.0,325.0,1
1208,1208,0.23832817155638364,0.2,0,464.0,703.0,0.0,653.0,1
1209,1209,-0.577594531526695,-0.6,1,406.0,959.0,1.0,165.0,1
1210,1210,-0.2496167431369749,-0.2,1,302.0,755.0,1.0,263.0,1
1211,1211,-0.895504767006355,-0.9,1,339.0,588.0,1.0,163.0,1
1212,1212,0.5541826419853029,0.6,0,470.0,750.0,0.0,490.0,1
1213,1213,-0.004470675833784021,-0.0,1,352.0,970.0,0.0,248.0,0
1214,1214,-0.2536928025788685,-0.3,1,479.0,951.0,1.0,740.0,1
1215,1215,0.1532537148144535,0.2,0,265.0,948.0,1.0,357.0,0
1216,1216,0.6527376356668726,0.7,0,471.0,658.0,0.0,1411.0,1
1217,1217,-0.16523094224107693,-0.2,1,340.0,922.0,1.0,348.0,1
1218,1218,-0.9041529514519047,-0.9,1,465.0,664.0,1.0,231.0,1
1219,1219,0.6964158898984718,0.7,0,429.0,581.0,0.0,210.0,1
1220,1220,-0.8891272219084123,-0.9,1,279.0,909.0,1.0,182.0,1
1221,1221,0.2293103162464445,0.2,0,316.0,780.0,0.0,354.0,1
1222,1222,0.6408958473934505,0.6,0,429.0,988.0,0.0,213.0,1
1223,1223,0.2248875343358323,0.2,0,254.0,680.0,1.0,316.0,0
1224,1224,0.5402471933634574,0.5,0,270.0,513.0,0.0,1017.0,1
1225,1225,0.6947574003827532,0.7,0,342.0,818.0,0.0,640.0,1
1226,1226,-0.24397581115631906,-0.2,1,493.0,771.0,1.0,1506.0,1
1227,1227,0.6716371112019763,0.7,0,336.0,833.0,0.0,181.0,1
1228,1228,-0.28674111238790356,-0.3,1,369.0,721.0,1.0,120.0,1
1229,1229,0.83260590803931,0.8,0,442.0,868.0,0.0,240.0,1
1230,1230,0.7749902680456664,0.8,0,267.0,936.0,0.0,607.0,1
1231,1231,0.09318926255260385,0.1,0,476.0,573.0,1.0,1051.0,0
1232,1232,-0.508231816511451,-0.5,1,332.0,784.0,1.0,174.0,1
1233,1233,0.9311200330395777,0.9,0,347.0,579.0,0.0,874.0,1
1234,1234,-0.1552615685823857,-0.2,1,451.0,613.0,1.0,816.0,1
1235,1235,-0.49736713705508784,-0.5,1,421.0,598.0,1.0,1431.0,1
1236,1236,0.9674707226181589,1.0,0,383.0,729.0,0.0,298.0,1
1237,1237,-0.8400681437508337,-0.8,1,311.0,603.0,1.0,106.0,1
1238,1238,-0.1546667801940902,-0.2,1,420.0,545.0,1.0,385.0,1
1239,1239,-0.8317316047955421,-0.8,1,399.0,867.0,1.0,264.0,1
1240,1240,0.7274009156189043,0.7,0,414.0,600.0,0.0,616.0,1
1241,1241,0.4508034290168752,0.5,0,495.0,882.0,1.0,233.0,0
1242,1242,-0.02146319498789362,-0.0,1,323.0,959.0,1.0,748.0,1
1243,1243,-0.8215861187819025,-0.8,1,253.0,544.0,1.0,193.0,1
1244,1244,-0.9257668895641415,-0.9,1,453.0,975.0,1.0,432.0,1
1245,1245,-0.6526363121439438,-0.7,1,380.0,500.0,1.0,300.0,1
1246,1246,-0.28166921975848913,-0.3,1,253.0,900.0,1.0,687.0,1
1247,1247,-0.7849996306292777,-0.8,1,294.0,847.0,1.0,219.0,1
1248,1248,-0.5662653738962351,-0.6,1,321.0,744.0,1.0,145.0,1
1249,1249,0.7361646197798792,0.7,0,340.0,930.0,0.0,300.0,1
1250,1250,0.6876585338842465,0.7,0,313.0,911.0,0.0,826.0,1
1251,1251,0.8739689681718881,0.9,0,359.0,851.0,0.0,170.0,1
1252,1252,0.5484902150191684,0.5,0,335.0,903.0,0.0,2372.0,1
1253,1253,0.18280361435681836,0.2,0,455.0,948.0,0.0,497.0,1
1254,1254,0.07598893247472849,0.1,0,278.0,775.0,1.0,897.0,0
1255,1255,-0.7617699871611665,-0.8,1,463.0,518.0,1.0,179.0,1
1256,1256,0.24381830943062188,0.2,0,489.0,565.0,0.0,106.0,1
1257,1257,-0.37017364791479945,-0.4,1,485.0,535.0,1.0,90.0,1
1258,1258,0.6738157053060647,0.7,0,432.0,604.0,1.0,414.0,0
1259,1259,0.707288654205033,0.7,0,389.0,756.0,0.0,205.0,1
1260,1260,0.9360511925215844,0.9,0,326.0,610.0,0.0,574.0,1
1261,1261,0.3878976617199428,0.4,0,288.0,519.0,0.0,223.0,1
1262,1262,-0.003961258246629518,-0.0,1,274.0,888.0,1.0,1818.0,1
1263,1263,-0.6943672942601067,-0.7,1,438.0,620.0,1.0,242.0,1
1264,1264,0.06529755520832436,0.1,0,438.0,535.0,1.0,547.0,0
1265,1265,-0.46954690225098106,-0.5,1,271.0,992.0,0.0,297.0,0
1266,1266,-0.3885776794706399,-0.4,1,314.0,973.0,1.0,193.0,1
1267,1267,-0.8065722635836643,-0.8,1,271.0,581.0,1.0,528.0,1
1268,1268,0.5387724404634111,0.5,0,368.0,927.0,1.0,225.0,0
1269,1269,0.414998776207431,0.4,0,479.0,892.0,0.0,329.0,1
1270,1270,0.8812700551123462,0.9,0,441.0,565.0,0.0,504.0,1
1271,1271,-0.16911067179114347,-0.2,1,463.0,733.0,0.0,434.0,0
1272,1272,0.582614321819801,0.6,0,483.0,630.0,0.0,687.0,1
1273,1273,-0.048042249927327196,-0.0,1,423.0,788.0,1.0,959.0,1
1274,1274,0.13143326818889567,0.1,0,375.0,631.0,1.0,1164.0,0
1275,1275,0.9777714636314543,1.0,0,381.0,917.0,0.0,852.0,1
1276,1276,0.129012777874161,0.1,0,306.0,577.0,0.0,297.0,1
1277,1277,-0.10640913350446879,-0.1,1,461.0,565.0,1.0,474.0,1
1278,1278,-0.3269750215657068,-0.3,1,436.0,618.0,1.0,706.0,1
1279,1279,0.3816048098898255,0.4,0,326.0,691.0,1.0,2673.0,0
1280,1280,-0.7586176021291575,-0.8,1,272.0,872.0,1.0,96.0,1
1281,1281,0.49742219900861184,0.5,0,430.0,697.0,0.0,173.0,1
1282,1282,-0.26607525791486974,-0.3,1,466.0,655.0,1.0,909.0,1
1283,1283,-0.9289516492640999,-0.9,1,294.0,603.0,1.0,153.0,1
1284,1284,0.05942485203628811,0.1,0,265.0,591.0,1.0,274.0,0
1285,1285,-0.11166715065564459,-0.1,1,288.0,686.0,1.0,846.0,1
1286,1286,-0.19493546883909807,-0.2,1,481.0,777.0,1.0,802.0,1
1287,1287,-0.5402275973253354,-0.5,1,297.0,541.0,1.0,212.0,1
1288,1288,-0.29083671739286365,-0.3,1,273.0,673.0,1.0,124.0,1
1289,1289,0.5136023021758425,0.5,0,429.0,528.0,0.0,313.0,1
1290,1290,-0.9979358096109219,-1.0,1,295.0,669.0,1.0,216.0,1
1291,1291,0.8453209604002583,0.8,0,418.0,712.0,0.0,320.0,1
1292,1292,-0.3344287306702163,-0.3,1,382.0,878.0,1.0,380.0,1
1293,1293,-0.8435445793409699,-0.8,1,354.0,745.0,1.0,491.0,1
1294,1294,0.041467957757695295,0.0,0,461.0,659.0,1.0,640.0,0
1295,1295,0.4089212960353745,0.4,0,270.0,623.0,0.0,527.0,1
1296,1296,0.6390536113653302,0.6,0,344.0,912.0,0.0,604.0,1
1297,1297,0.533720938299991,0.5,0,479.0,586.0,0.0,335.0,1
1298,1298,-0.20538646466610477,-0.2,1,379.0,557.0,1.0,354.0,1
1299,1299,0.8659559773360801,0.9,0,356.0,680.0,0.0,1064.0,1
1300,1300,0.11979452893020182,0.1,0,275.0,667.0,0.0,2078.0,1
1301,1301,-0.09808739425003199,-0.1,1,421.0,817.0,0.0,302.0,0
1302,1302,0.7903313562469174,0.8,0,404.0,808.0,0.0,288.0,1
1303,1303,-0.9142721858929648,-0.9,1,485.0,911.0,1.0,264.0,1
1304,1304,0.9598655175197301,1.0,0,370.0,547.0,0.0,993.0,1
1305,1305,-0.5417226225971103,-0.5,1,252.0,934.0,1.0,1104.0,1
1306,1306,0.5898520360068633,0.6,0,329.0,641.0,1.0,340.0,0
1307,1307,0.29165600580587925,0.3,0,483.0,984.0,0.0,263.0,1
1308,1308,-0.006462316285806846,-0.0,1,264.0,625.0,1.0,941.0,1
1309,1309,0.24296578800057844,0.2,0,296.0,767.0,1.0,2777.0,0
1310,1310,0.9367432832814089,0.9,0,404.0,901.0,0.0,215.0,1
1311,1311,0.16569955227257327,0.2,0,253.0,600.0,1.0,2187.0,0
1312,1312,-0.8974437845584693,-0.9,1,466.0,892.0,1.0,262.0,1
1313,1313,-0.1301466442672905,-0.1,1,401.0,888.0,1.0,121.0,1
1314,1314,-0.7108500308831658,-0.7,1,306.0,638.0,1.0,476.0,1
1315,1315,-0.669508213179743,-0.7,1,270.0,645.0,1.0,195.0,1
1316,1316,-0.2993500250577532,-0.3,1,298.0,652.0,1.0,220.0,1
1317,1317,0.015407382763390487,0.0,0,340.0,522.0,1.0,258.0,0
1318,1318,0.21287699671173144,0.2,0,352.0,796.0,0.0,332.0,1
1319,1319,0.5102577827118944,0.5,0,482.0,783.0,1.0,1575.0,0
1320,1320,-0.20597404577310874,-0.2,1,313.0,802.0,1.0,235.0,1
1321,1321,-0.3851800034676338,-0.4,1,296.0,777.0,1.0,437.0,1
1322,1322,0.01707809723311704,0.0,0,301.0,781.0,0.0,178.0,1
1323,1323,-0.9407317277604978,-0.9,1,408.0,517.0,1.0,155.0,1
1324,1324,0.21047962558274524,0.2,0,475.0,846.0,1.0,429.0,0
1325,1325,0.4933809558544471,0.5,0,475.0,709.0,1.0,1086.0,0
1326,1326,-0.43503187529400966,-0.4,1,351.0,793.0,1.0,226.0,1
1327,1327,-0.8411085555384303,-0.8,1,369.0,759.0,1.0,252.0,1
1328,1328,-0.1231850855605956,-0.1,1,375.0,935.0,1.0,340.0,1
1329,1329,0.5242346287486801,0.5,0,488.0,646.0,0.0,276.0,1
1330,1330,-0.406098805031629,-0.4,1,285.0,906.0,1.0,859.0,1
1331,1331,0.8816192283907622,0.9,0,367.0,533.0,0.0,1130.0,1
1332,1332,0.5687539984491499,0.6,0,381.0,912.0,0.0,337.0,1
1333,1333,-0.46806644786550367,-0.5,1,278.0,796.0,1.0,506.0,1
1334,1334,-0.8900296145011324,-0.9,1,469.0,802.0,1.0,469.0,1
1335,1335,0.6526810893705335,0.7,0,361.0,744.0,0.0,205.0,1
1336,1336,-0.08428083603071035,-0.1,1,330.0,561.0,1.0,499.0,1
1337,1337,-0.8497948887395943,-0.8,1,394.0,647.0,1.0,229.0,1
1338,1338,-0.39918496232749234,-0.4,1,342.0,622.0,1.0,706.0,1
1339,1339,-0.6009126011445494,-0.6,1,345.0,970.0,1.0,275.0,1
1340,1340,0.6421610117831045,0.6,0,396.0,686.0,0.0,398.0,1
1341,1341,-0.5129163155249916,-0.5,1,320.0,723.0,1.0,517.0,1
1342,1342,0.8765979063020974,0.9,0,343.0,645.0,0.0,1212.0,1
1343,1343,-0.21696299417144793,-0.2,1,468.0,601.0,1.0,801.0,1
1344,1344,-0.11056933508957911,-0.1,1,310.0,631.0,1.0,299.0,1
1345,1345,0.8577991987257354,0.9,0,266.0,821.0,0.0,203.0,1
1346,1346,-0.36132557852257197,-0.4,1,394.0,729.0,1.0,367.0,1
1347,1347,0.11292939133930191,0.1,0,420.0,657.0,1.0,1113.0,0
1348,1348,0.6592740509294395,0.7,0,423.0,558.0,0.0,369.0,1
1349,1349,-0.7110770646461815,-0.7,1,458.0,674.0,1.0,558.0,1
1350,1350,-0.04210461301413537,-0.0,1,251.0,614.0,1.0,915.0,1
1351,1351,-0.9688845178530774,-1.0,1,365.0,639.0,1.0,346.0,1
1352,1352,0.038585594500793574,0.0,0,464.0,933.0,0.0,1363.0,1
1353,1353,-0.9300769737602341,-0.9,1,399.0,994.0,1.0,557.0,1
1354,1354,0.4102112938554432,0.4,0,431.0,797.0,0.0,1592.0,1
1355,1355,0.8569912334242065,0.9,0,399.0,896.0,0.0,175.0,1
1356,1356,0.41326867811103485,0.4,0,314.0,875.0,0.0,891.0,1
1357,1357,-0.7941198840056343,-0.8,1,376.0,804.0,1.0,1070.0,1
1358,1358,0.7898386186984636,0.8,0,455.0,864.0,0.0,451.0,1
1359,1359,0.47070215061187426,0.5,0,364.0,623.0,0.0,393.0,1
1360,1360,-0.1494582500606576,-0.1,1,373.0,832.0,1.0,895.0,1
1361,1361,0.7946289155102879,0.8,0,424.0,874.0,0.0,272.0,1
1362,1362,-0.7904008366734157,-0.8,1,376.0,504.0,1.0,110.0,1
1363,1363,-0.5186961769433593,-0.5,1,432.0,993.0,1.0,315.0,1
1364,1364,-0.7015171408861534,-0.7,1,346.0,619.0,1.0,375.0,1
1365,1365,-0.612834057837498,-0.6,1,491.0,852.0,1.0,167.0,1
1366,1366,-0.4158474739088487,-0.4,1,295.0,766.0,1.0,359.0,1
1367,1367,0.8417468471014546,0.8,0,325.0,912.0,0.0,643.0,1
1368,1368,0.24473976639462047,0.2,0,365.0,568.0,0.0,557.0,1
1369,1369,0.3620563001748931,0.4,0,498.0,609.0,0.0,473.0,1
1370,1370,-0.15160019155377702,-0.2,1,313.0,641.0,1.0,336.0,1
1371,1371,-0.9418222723577154,-0.9,1,458.0,998.0,1.0,184.0,1
1372,1372,0.41746142273451525,0.4,0,479.0,969.0,0.0,702.0,1
1373,1373,0.6772403414748545,0.7,0,406.0,554.0,1.0,100.0,0
1374,1374,0.5242721964797117,0.5,0,282.0,508.0,0.0,1160.0,1
1375,1375,-0.7789485568343173,-0.8,1,454.0,885.0,1.0,161.0,1
1376,1376,0.1486230192824658,0.1,0,345.0,629.0,1.0,346.0,0
1377,1377,-0.19248559212314675,-0.2,1,392.0,807.0,1.0,771.0,1
1378,1378,-0.9228635298744163,-0.9,1,306.0,873.0,1.0,491.0,1
1379,1379,-0.11957434215926988,-0.1,1,469.0,857.0,1.0,184.0,1
1380,1380,0.13814713045392035,0.1,0,337.0,557.0,1.0,1896.0,0
1381,1381,0.42440602149987017,0.4,0,418.0,858.0,0.0,264.0,1
1382,1382,-0.7176104815001931,-0.7,1,388.0,676.0,1.0,186.0,1
1383,1383,0.6391709828078267,0.6,0,330.0,519.0,0.0,691.0,1
1384,1384,0.48664581241077154,0.5,0,347.0,786.0,0.0,1247.0,1
1385,1385,-0.7499050264092297,-0.7,1,334.0,918.0,1.0,128.0,1
1386,1386,0.5703958093028016,0.6,0,322.0,613.0,0.0,565.0,1
1387,1387,0.2661567819516548,0.3,0,304.0,798.0,1.0,508.0,0
1388,1388,0.8109026320002322,0.8,0,490.0,705.0,0.0,445.0,1
1389,1389,0.9527921767202654,1.0,0,473.0,905.0,0.0,112.0,1
1390,1390,-0.7058157343898614,-0.7,1,251.0,549.0,1.0,340.0,1
1391,1391,0.8531925164963685,0.9,0,388.0,904.0,0.0,378.0,1
1392,1392,0.0883130149092346,0.1,0,255.0,759.0,1.0,356.0,0
1393,1393,-0.5114371603745402,-0.5,1,311.0,927.0,1.0,432.0,1
1394,1394,0.4156735009338719,0.4,0,299.0,920.0,1.0,291.0,0
1395,1395,0.8262829522244428,0.8,0,301.0,955.0,0.0,264.0,1
1396,1396,0.89588332834031,0.9,0,476.0,688.0,0.0,826.0,1
1397,1397,-0.5164349442021063,-0.5,1,450.0,823.0,1.0,497.0,1
1398,1398,0.9470863254895787,0.9,0,431.0,749.0,0.0,220.0,1
1399,1399,0.5725278688238702,0.6,0,259.0,547.0,0.0,584.0,1
1400,1400,0.9336941531179317,0.9,0,353.0,687.0,0.0,1000.0,1
1401,1401,-0.4524852117599729,-0.5,1,330.0,619.0,1.0,721.0,1
1402,1402,-0.2105621425439299,-0.2,1,284.0,885.0,0.0,1051.0,0
1403,1403,-0.07645536219330529,-0.1,1,495.0,775.0,0.0,250.0,0
1404,1404,0.8339829384260571,0.8,0,294.0,574.0,0.0,242.0,1
1405,1405,0.37587266778206496,0.4,0,492.0,687.0,0.0,401.0,1
1406,1406,-0.29795732940545827,-0.3,1,346.0,875.0,1.0,769.0,1
1407,1407,0.524333024432877,0.5,0,299.0,859.0,0.0,342.0,1
1408,1408,-0.9833571579559841,-1.0,1,384.0,789.0,1.0,177.0,1
1409,1409,-0.8420028706765916,-0.8,1,301.0,577.0,1.0,282.0,1
1410,1410,-0.2790111794197776,-0.3,1,422.0,670.0,1.0,248.0,1
1411,1411,0.38180723659707083,0.4,0,263.0,742.0,0.0,345.0,1
1412,1412,-0.41061617693529895,-0.4,1,350.0,858.0,1.0,242.0,1
1413,1413,-0.024366154092833048,-0.0,1,468.0,970.0,1.0,202.0,1
1414,1414,0.5061596501029793,0.5,0,346.0,584.0,0.0,660.0,1
1415,1415,0.23689727546705597,0.2,0,484.0,795.0,1.0,781.0,0
1416,1416,0.6148102559154331,0.6,0,276.0,882.0,0.0,142.0,1
1417,1417,-0.5067136185453782,-0.5,1,315.0,990.0,1.0,1075.0,1
1418,1418,-0.6120583262967296,-0.6,1,267.0,706.0,1.0,267.0,1
1419,1419,0.11637345279666045,0.1,0,402.0,665.0,0.0,493.0,1
1420,1420,0.7889185591640757,0.8,0,304.0,779.0,0.0,247.0,1
1421,1421,0.17691202246455884,0.2,0,499.0,505.0,0.0,486.0,1
1422,1422,0.4069690067744618,0.4,0,447.0,990.0,1.0,303.0,0
1423,1423,0.5413046496770362,0.5,0,271.0,903.0,0.0,256.0,1
1424,1424,0.8862337112070438,0.9,0,330.0,887.0,0.0,673.0,1
1425,1425,0.30129024964793816,0.3,0,422.0,789.0,0.0,789.0,1
1426,1426,-0.8368580491257145,-0.8,1,277.0,703.0,1.0,170.0,1
1427,1427,0.2390432185349376,0.2,0,464.0,991.0,0.0,355.0,1
1428,1428,-0.7408885723482708,-0.7,1,289.0,698.0,1.0,193.0,1
1429,1429,-0.2150929812183724,-0.2,1,344.0,752.0,1.0,814.0,1
1430,1430,-0.729728718953994,-0.7,1,429.0,775.0,1.0,416.0,1
1431,1431,0.6293231015462795,0.6,0,280.0,966.0,0.0,224.0,1
1432,1432,0.25857049834640033,0.3,0,427.0,903.0,1.0,1340.0,0
1433,1433,0.730931233500812,0.7,0,379.0,717.0,1.0,94.0,0
1434,1434,-0.4775500552454439,-0.5,1,380.0,750.0,1.0,280.0,1
1435,1435,0.10075212905474329,0.1,0,391.0,649.0,1.0,140.0,0
1436,1436,-0.6297117610203129,-0.6,1,274.0,998.0,1.0,198.0,1
1437,1437,0.9788166726458558,1.0,0,493.0,877.0,0.0,250.0,1
1438,1438,-0.9094812991684553,-0.9,1,296.0,682.0,1.0,252.0,1
1439,1439,-0.02707469833055476,-0.0,1,495.0,978.0,0.0,1087.0,0
1440,1440,-0.5890530608756437,-0.6,1,431.0,917.0,0.0,412.0,0
1441,1441,-0.4732603583223418,-0.5,1,470.0,569.0,1.0,751.0,1
1442,1442,-0.4140442633294623,-0.4,1,407.0,736.0,1.0,577.0,1
1443,1443,0.4989498986371783,0.5,0,324.0,512.0,0.0,304.0,1
1444,1444,0.7338192926772202,0.7,0,449.0,930.0,0.0,321.0,1
1445,1445,0.8257655002047635,0.8,0,494.0,798.0,0.0,518.0,1
1446,1446,-0.31005558494764074,-0.3,1,385.0,775.0,1.0,500.0,1
1447,1447,0.8491122165117073,0.8,0,433.0,505.0,0.0,212.0,1
1448,1448,0.007179707967199356,0.0,0,354.0,791.0,1.0,215.0,0
1449,1449,-0.2317082519148297,-0.2,1,390.0,538.0,0.0,482.0,0
1450,1450,0.4546410380714079,0.5,0,437.0,621.0,0.0,562.0,1
1451,1451,-0.4951643680836917,-0.5,1,314.0,904.0,1.0,162.0,1
1452,1452,-0.14771210541472413,-0.1,1,254.0,584.0,1.0,1322.0,1
1453,1453,0.37503383750233943,0.4,0,357.0,987.0,0.0,616.0,1
1454,1454,0.6821950499348979,0.7,0,398.0,893.0,0.0,1009.0,1
1455,1455,0.9640835890436386,1.0,0,435.0,753.0,0.0,572.0,1
1456,1456,0.4387516678987857,0.4,0,472.0,991.0,0.0,497.0,1
1457,1457,0.8768938692747199,0.9,0,375.0,501.0,0.0,204.0,1
1458,1458,0.136670111841805,0.1,0,454.0,841.0,0.0,175.0,1
1459,1459,0.4354581520739156,0.4,0,389.0,722.0,0.0,229.0,1
1460,1460,0.6526525679337807,0.7,0,426.0,702.0,0.0,672.0,1
1461,1461,-0.5924967918004083,-0.6,1,375.0,554.0,1.0,91.0,1
1462,1462,0.8081062714790428,0.8,0,378.0,938.0,0.0,204.0,1
1463,1463,-0.9857834606054579,-1.0,1,289.0,628.0,1.0,373.0,1
1464,1464,0.12640854342991292,0.1,0,413.0,785.0,1.0,782.0,0
1465,1465,-0.8943939685278393,-0.9,1,460.0,966.0,1.0,804.0,1
1466,1466,-0.846929189782158,-0.8,1,298.0,912.0,1.0,740.0,1
1467,1467,-0.5026193219007238,-0.5,1,256.0,873.0,1.0,561.0,1
1468,1468,-0.034619039527936435,-0.0,1,331.0,518.0,1.0,1831.0,1
1469,1469,-0.039081830807338624,-0.0,1,417.0,517.0,1.0,146.0,1
1470,1470,0.0281508633896288,0.0,0,256.0,956.0,0.0,998.0,1
1471,1471,0.5154210266130559,0.5,0,499.0,595.0,1.0,96.0,0
1472,1472,0.24559861269940297,0.2,0,413.0,935.0,0.0,402.0,1
1473,1473,-0.972196473418314,-1.0,1,483.0,623.0,1.0,334.0,1
1474,1474,0.770121938681982,0.8,0,486.0,920.0,0.0,134.0,1
1475,1475,-0.06385549190092354,-0.1,1,407.0,793.0,1.0,330.0,1
1476,1476,0.11278449262045465,0.1,0,440.0,666.0,0.0,834.0,1
1477,1477,0.945111007747629,0.9,0,417.0,591.0,0.0,812.0,1
1478,1478,-0.4837687974051361,-0.5,1,426.0,751.0,1.0,293.0,1
1479,1479,-0.9332220693775053,-0.9,1,406.0,786.0,1.0,168.0,1
1480,1480,0.29725149822619024,0.3,0,487.0,567.0,0.0,246.0,1
1481,1481,0.027426658083834266,0.0,0,250.0,968.0,1.0,262.0,0
1482,1482,0.45060917630521224,0.5,0,332.0,861.0,0.0,1157.0,1
1483,1483,-0.44327162950024457,-0.4,1,308.0,694.0,1.0,168.0,1
1484,1484,-0.29849528323383434,-0.3,1,258.0,954.0,1.0,238.0,1
1485,1485,-0.13041202863014756,-0.1,1,379.0,815.0,1.0,376.0,1
1486,1486,-0.8992720635302298,-0.9,1,385.0,855.0,1.0,260.0,1
1487,1487,-0.5868235123950469,-0.6,1,428.0,962.0,1.0,940.0,1
1488,1488,-0.6156775427033854,-0.6,1,303.0,682.0,1.0,175.0,1
1489,1489,0.059473965349005065,0.1,0,398.0,710.0,1.0,2592.0,0
1490,1490,0.6662995169301735,0.7,0,431.0,526.0,0.0,433.0,1
1491,1491,0.31900307961440144,0.3,0,320.0,828.0,0.0,322.0,1
1492,1492,-0.644854004772526,-0.6,1,277.0,765.0,1.0,138.0,1
1493,1493,0.6187943837242855,0.6,0,341.0,965.0,0.0,334.0,1
1494,1494,0.5727392892520051,0.6,0,412.0,781.0,0.0,377.0,1
1495,1495,-0.9630185569604917,-1.0,1,387.0,653.0,1.0,350.0,1
1496,1496,0.783415828178025,0.8,0,317.0,614.0,0.0,399.0,1
1497,1497,-0.666034323834916,-0.7,1,336.0,671.0,1.0,613.0,1
1498,1498,-0.33349541972679564,-0.3,1,440.0,811.0,1.0,329.0,1
1499,1499,-0.12695576235638728,-0.1,1,351.0,761.0,1.0,258.0,1
1500,1500,0.5460778314532533,0.5,0,451.0,632.0,0.0,417.0,1
1501,1501,0.9112766792136691,0.9,0,437.0,944.0,0.0,449.0,1
1502,1502,-0.8678603488326102,-0.9,1,353.0,795.0,1.0,332.0,1
1503,1503,0.9989845224397942,1.0,0,486.0,633.0,0.0,301.0,1
1504,1504,0.10843376136903671,0.1,0,446.0,502.0,0.0,922.0,1
1505,1505,-0.9463239141086341,-0.9,1,353.0,920.0,1.0,287.0,1
1506,1506,0.6463374985579551,0.6,0,397.0,653.0,0.0,210.0,1
1507,1507,0.663488826746754,0.7,0,389.0,998.0,0.0,493.0,1
1508,1508,-0.6817101825884453,-0.7,1,475.0,629.0,1.0,606.0,1
1509,1509,0.06814435365750526,0.1,0,294.0,674.0,0.0,532.0,1
1510,1510,-0.10463523765656024,-0.1,1,451.0,787.0,1.0,492.0,1
1511,1511,-0.6932092498458293,-0.7,1,347.0,837.0,1.0,196.0,1
1512,1512,0.6773140201523051,0.7,0,483.0,554.0,0.0,933.0,1
1513,1513,-0.26608329396437447,-0.3,1,317.0,974.0,1.0,819.0,1
1514,1514,-0.4734207453655257,-0.5,1,313.0,951.0,1.0,786.0,1
1515,1515,-0.9787904008355781,-1.0,1,426.0,943.0,1.0,391.0,1
1516,1516,-0.0501751398750685,-0.1,1,357.0,749.0,1.0,224.0,1
1517,1517,0.10619247235433815,0.1,0,445.0,750.0,0.0,295.0,1
1518,1518,-0.07191610022128381,-0.1,1,306.0,656.0,0.0,528.0,0
1519,1519,0.19634630605568626,0.2,0,378.0,772.0,0.0,250.0,1
1520,1520,-0.5462612268052485,-0.5,1,391.0,664.0,1.0,285.0,1
1521,1521,-0.7734788992308064,-0.8,1,346.0,745.0,1.0,239.0,1
1522,1522,0.6739044568611692,0.7,0,464.0,696.0,0.0,390.0,1
1523,1523,0.607542733035779,0.6,0,377.0,990.0,0.0,113.0,1
1524,1524,0.8283810772150402,0.8,0,251.0,999.0,0.0,230.0,1
1525,1525,-0.35728080462516476,-0.4,1,294.0,929.0,1.0,357.0,1
1526,1526,-0.043660164341486674,-0.0,1,452.0,554.0,0.0,874.0,0
1527,1527,0.5800598984181606,0.6,0,324.0,920.0,0.0,936.0,1
1528,1528,0.4097579318664897,0.4,0,277.0,789.0,0.0,1384.0,1
1529,1529,-0.12320231334937004,-0.1,1,279.0,798.0,1.0,873.0,1
1530,1530,0.8922346023576553,0.9,0,340.0,635.0,0.0,105.0,1
1531,1531,-0.44776804351290034,-0.4,1,349.0,617.0,1.0,164.0,1
1532,1532,-0.3590919973346052,-0.4,1,403.0,605.0,1.0,332.0,1
1533,1533,0.004191238244842577,0.0,0,492.0,603.0,1.0,715.0,0
1534,1534,-0.8831304312132997,-0.9,1,467.0,707.0,1.0,146.0,1
1535,1535,-0.553211583860967,-0.6,1,391.0,830.0,1.0,209.0,1
1536,1536,0.09228340557189152,0.1,0,364.0,758.0,1.0,658.0,0
1537,1537,-0.7099759885677306,-0.7,1,419.0,606.0,1.0,115.0,1
1538,1538,0.7237903291926617,0.7,0,255.0,981.0,0.0,254.0,1
1539,1539,0.3531429396098318,0.4,0,373.0,842.0,0.0,995.0,1
1540,1540,0.7409757864027648,0.7,0,371.0,977.0,0.0,232.0,1
1541,1541,-0.7665321147501567,-0.8,1,282.0,714.0,1.0,484.0,1
1542,1542,0.16887846587353783,0.2,0,408.0,824.0,1.0,208.0,0
1543,1543,-0.2649809181180891,-0.3,1,496.0,565.0,1.0,349.0,1
1544,1544,-0.5257063214037854,-0.5,1,300.0,566.0,1.0,154.0,1
1545,1545,0.7014033138527171,0.7,0,433.0,649.0,0.0,248.0,1
1546,1546,-0.8072880382990861,-0.8,1,467.0,529.0,1.0,494.0,1
1547,1547,-0.8635318271804602,-0.9,1,296.0,640.0,1.0,174.0,1
1548,1548,-0.043632193330177316,-0.0,1,259.0,553.0,1.0,368.0,1
1549,1549,0.7552163956275264,0.8,0,432.0,882.0,0.0,706.0,1
1550,1550,0.8233134276364509,0.8,0,393.0,811.0,0.0,296.0,1
1551,1551,-0.9357573108302955,-0.9,1,373.0,521.0,1.0,276.0,1
1552,1552,0.49793277888286647,0.5,0,362.0,736.0,1.0,462.0,0
1553,1553,0.22536631934911244,0.2,0,405.0,907.0,0.0,238.0,1
1554,1554,-0.7913728134942513,-0.8,1,363.0,943.0,1.0,904.0,1
1555,1555,0.3529594779560714,0.4,0,384.0,520.0,0.0,206.0,1
1556,1556,-0.5143267877534063,-0.5,1,486.0,511.0,1.0,643.0,1
1557,1557,-0.07705820157197896,-0.1,1,253.0,605.0,1.0,222.0,1
1558,1558,-0.8868236964476777,-0.9,1,348.0,926.0,1.0,396.0,1
1559,1559,-0.4524310390150237,-0.5,1,481.0,608.0,1.0,191.0,1
1560,1560,-0.5871181585268777,-0.6,1,427.0,929.0,1.0,354.0,1
1561,1561,-0.09113680979429128,-0.1,1,378.0,566.0,1.0,516.0,1
1562,1562,0.1885641068809727,0.2,0,459.0,563.0,0.0,138.0,1
1563,1563,-0.095327597239516,-0.1,1,464.0,508.0,1.0,318.0,1
1564,1564,0.6589392168678068,0.7,0,332.0,707.0,0.0,1441.0,1
1565,1565,0.70035817512405,0.7,0,276.0,898.0,0.0,566.0,1
1566,1566,0.9018582621147562,0.9,0,304.0,627.0,0.0,519.0,1
1567,1567,0.2846553859891865,0.3,0,267.0,603.0,0.0,2750.0,1
1568,1568,0.7635512739007804,0.8,0,398.0,890.0,0.0,132.0,1
1569,1569,-0.74298327958561,-0.7,1,273.0,602.0,1.0,475.0,1
1570,1570,-0.1645515026706661,-0.2,1,414.0,939.0,1.0,237.0,1
1571,1571,0.06378857996035725,0.1,0,439.0,851.0,1.0,1550.0,0
1572,1572,0.33561834784239286,0.3,0,375.0,847.0,0.0,528.0,1
1573,1573,0.27782981836527365,0.3,0,346.0,556.0,0.0,288.0,1
1574,1574,0.6825237972286704,0.7,0,394.0,998.0,0.0,1288.0,1
1575,1575,-0.28304969801695545,-0.3,1,462.0,529.0,1.0,179.0,1
1576,1576,0.4699234756488644,0.5,0,318.0,945.0,0.0,57.0,1
1577,1577,0.3361447003352871,0.3,0,487.0,753.0,0.0,180.0,1
1578,1578,0.8460016951057079,0.8,0,366.0,631.0,0.0,373.0,1
1579,1579,0.708521225890212,0.7,0,499.0,858.0,0.0,113.0,1
1580,1580,0.16928345214043405,0.2,0,435.0,827.0,1.0,2328.0,0
1581,1581,0.7273952797210756,0.7,0,465.0,637.0,0.0,178.0,1
1582,1582,0.5614758427674118,0.6,0,467.0,874.0,0.0,309.0,1
1583,1583,-0.9526723466866649,-1.0,1,271.0,924.0,1.0,175.0,1
1584,1584,-0.34011733448631065,-0.3,1,400.0,764.0,1.0,596.0,1
1585,1585,0.2927604305608804,0.3,0,353.0,810.0,0.0,2047.0,1
1586,1586,-0.7312507536026693,-0.7,1,337.0,992.0,1.0,541.0,1
1587,1587,-0.9407831187312141,-0.9,1,337.0,785.0,1.0,138.0,1
1588,1588,0.186328940863147,0.2,0,373.0,953.0,0.0,1424.0,1
1589,1589,0.25103207714075126,0.3,0,297.0,809.0,1.0,1624.0,0
1590,1590,-0.4760017815409181,-0.5,1,269.0,507.0,1.0,134.0,1
1591,1591,0.8003369444804045,0.8,0,315.0,965.0,0.0,1160.0,1
1592,1592,0.9667176395770773,1.0,0,498.0,805.0,0.0,537.0,1
1593,1593,-0.8200423507879213,-0.8,1,386.0,695.0,1.0,179.0,1
1594,1594,0.2691174652253383,0.3,0,371.0,939.0,0.0,1030.0,1
1595,1595,0.7700205069390618,0.8,0,474.0,755.0,0.0,841.0,1
1596,1596,-0.008376625084358436,-0.0,1,428.0,837.0,1.0,225.0,1
1597,1597,0.4043387999582757,0.4,0,268.0,997.0,0.0,175.0,1
1598,1598,0.9369803473796616,0.9,0,497.0,746.0,0.0,757.0,1
1599,1599,-0.8951010169169633,-0.9,1,428.0,600.0,1.0,172.0,1
1600,1600,0.9962920289465949,1.0,0,419.0,600.0,0.0,241.0,1
1601,1601,0.6848959216126822,0.7,0,427.0,523.0,0.0,210.0,1
1602,1602,-0.23697080806158333,-0.2,1,329.0,843.0,1.0,188.0,1
1603,1603,0.2157355468899187,0.2,0,431.0,598.0,1.0,2051.0,0
1604,1604,-0.8938878635453258,-0.9,1,384.0,525.0,1.0,311.0,1
1605,1605,0.5406880584843241,0.5,0,349.0,531.0,0.0,1120.0,1
1606,1606,-0.7837052920985161,-0.8,1,317.0,603.0,1.0,1030.0,1
1607,1607,0.14063911419238906,0.1,0,463.0,903.0,1.0,994.0,0
1608,1608,0.10886512390353564,0.1,0,339.0,549.0,0.0,932.0,1
1609,1609,0.9242894335627223,0.9,0,493.0,591.0,0.0,456.0,1
1610,1610,0.4157562806291917,0.4,0,421.0,817.0,0.0,382.0,1
1611,1611,0.16599749286554166,0.2,0,264.0,983.0,0.0,1163.0,1
1612,1612,0.007277859545419485,0.0,0,256.0,851.0,0.0,203.0,1
1613,1613,-0.2501931545596243,-0.3,1,496.0,870.0,1.0,134.0,1
1614,1614,0.6688550846866788,0.7,0,311.0,572.0,1.0,567.0,0
1615,1615,0.6095083780603994,0.6,0,449.0,917.0,1.0,674.0,0
1616,1616,-0.558839368555365,-0.6,1,494.0,950.0,1.0,146.0,1
1617,1617,0.36325318713787613,0.4,0,482.0,655.0,0.0,433.0,1
1618,1618,0.292510324906305,0.3,0,393.0,750.0,0.0,247.0,1
1619,1619,0.8449341063492266,0.8,0,354.0,769.0,0.0,467.0,1
1620,1620,0.5610198171960032,0.6,0,256.0,781.0,0.0,823.0,1
1621,1621,-0.7981754630684517,-0.8,1,323.0,566.0,1.0,331.0,1
1622,1622,-0.8155688916190189,-0.8,1,301.0,963.0,1.0,166.0,1
1623,1623,0.22132148337405777,0.2,0,438.0,840.0,0.0,622.0,1
1624,1624,-0.9972728063435945,-1.0,1,347.0,880.0,1.0,203.0,1
1625,1625,0.2788831162324166,0.3,0,475.0,814.0,1.0,721.0,0
1626,1626,0.3526901917805354,0.4,0,479.0,954.0,0.0,667.0,1
1627,1627,-0.2761661943209084,-0.3,1,418.0,820.0,1.0,912.0,1
1628,1628,-0.8234911507654097,-0.8,1,291.0,809.0,1.0,290.0,1
1629,1629,0.820176782539294,0.8,0,272.0,769.0,0.0,849.0,1
1630,1630,0.3170620046370216,0.3,0,256.0,866.0,0.0,438.0,1
1631,1631,-0.23899495067764231,-0.2,1,270.0,760.0,1.0,120.0,1
1632,1632,0.8493382847327082,0.8,0,422.0,674.0,0.0,574.0,1
1633,1633,0.8488190106959397,0.8,0,273.0,790.0,0.0,157.0,1
1634,1634,0.4104923572036767,0.4,0,373.0,623.0,0.0,1384.0,1
1635,1635,0.7868058834547909,0.8,0,328.0,581.0,0.0,481.0,1
1636,1636,0.061028959196422816,0.1,0,371.0,853.0,1.0,576.0,0
1637,1637,0.6181356556351563,0.6,0,282.0,700.0,0.0,408.0,1
1638,1638,-0.4295084595165368,-0.4,1,416.0,921.0,1.0,293.0,1
1639,1639,-0.028603165670730846,-0.0,1,479.0,760.0,0.0,201.0,0
1640,1640,-0.008067630376847879,-0.0,1,326.0,838.0,1.0,196.0,1
1641,1641,0.6948199092675773,0.7,0,387.0,905.0,0.0,198.0,1
1642,1642,-0.5416827584646042,-0.5,1,423.0,706.0,1.0,561.0,1
1643,1643,0.7249395136489631,0.7,0,390.0,618.0,0.0,542.0,1
1644,1644,-0.5358931593025182,-0.5,1,395.0,685.0,1.0,390.0,1
1645,1645,-0.842896644072813,-0.8,1,369.0,997.0,1.0,164.0,1
1646,1646,-0.06275072051171282,-0.1,1,395.0,842.0,1.0,233.0,1
1647,1647,-0.46099963035228075,-0.5,1,342.0,655.0,1.0,263.0,1
1648,1648,0.24201778086586834,0.2,0,459.0,797.0,1.0,334.0,0
1649,1649,0.4074083459908038,0.4,0,338.0,772.0,0.0,290.0,1
1650,1650,-0.2983455100972512,-0.3,1,365.0,966.0,1.0,79.0,1
1651,1651,0.4656503045106182,0.5,0,331.0,525.0,0.0,1054.0,1
1652,1652,-0.8616495473308139,-0.9,1,349.0,828.0,1.0,523.0,1
1653,1653,-0.4934879043446945,-0.5,1,284.0,563.0,1.0,1193.0,1
1654,1654,-0.09258098372525114,-0.1,1,371.0,701.0,0.0,328.0,0
1655,1655,-0.1447594730785926,-0.1,1,375.0,835.0,1.0,430.0,1
1656,1656,0.8541684580637299,0.9,0,250.0,680.0,0.0,200.0,1
1657,1657,-0.7661140168990126,-0.8,1,467.0,740.0,1.0,363.0,1
1658,1658,-0.8215685634477421,-0.8,1,406.0,540.0,1.0,74.0,1
1659,1659,0.8188227083123822,0.8,0,410.0,791.0,0.0,429.0,1
1660,1660,-0.34057156117351495,-0.3,1,288.0,903.0,1.0,819.0,1
1661,1661,-0.038898770450681575,-0.0,1,374.0,782.0,1.0,394.0,1
1662,1662,-0.8152377310496217,-0.8,1,350.0,631.0,1.0,209.0,1
1663,1663,0.9461691553799991,0.9,0,483.0,787.0,0.0,350.0,1
1664,1664,0.7456842195887554,0.7,0,491.0,985.0,0.0,854.0,1
1665,1665,-0.45445938238793726,-0.5,1,420.0,894.0,1.0,476.0,1
1666,1666,0.1526998711739247,0.2,0,321.0,856.0,0.0,543.0,1
1667,1667,-0.6744052147934803,-0.7,1,419.0,930.0,1.0,611.0,1
1668,1668,0.6617655712837136,0.7,0,391.0,577.0,0.0,992.0,1
1669,1669,0.737407787044323,0.7,0,337.0,839.0,0.0,504.0,1
1670,1670,-0.4361910185742759,-0.4,1,468.0,723.0,1.0,139.0,1
1671,1671,0.6259105117668824,0.6,0,310.0,818.0,0.0,1912.0,1
1672,1672,-0.2819002490497158,-0.3,1,360.0,546.0,1.0,654.0,1
1673,1673,-0.9082680888999246,-0.9,1,361.0,753.0,1.0,256.0,1
1674,1674,0.7267259563991122,0.7,0,449.0,651.0,0.0,520.0,1
1675,1675,-0.2460601101023041,-0.2,1,317.0,908.0,1.0,355.0,1
1676,1676,-0.48087675052173884,-0.5,1,367.0,818.0,1.0,605.0,1
1677,1677,-0.4788237073219763,-0.5,1,298.0,707.0,1.0,165.0,1
1678,1678,0.1602037972234902,0.2,0,327.0,994.0,1.0,939.0,0
1679,1679,0.06913476097496529,0.1,0,363.0,621.0,1.0,226.0,0
1680,1680,-0.17115202108934913,-0.2,1,396.0,675.0,1.0,149.0,1
1681,1681,-0.16337550815161395,-0.2,1,250.0,764.0,1.0,1066.0,1
1682,1682,0.5778076626405542,0.6,0,471.0,823.0,0.0,266.0,1
1683,1683,0.42912548682920937,0.4,0,453.0,638.0,1.0,179.0,0
1684,1684,-0.2100185282799849,-0.2,1,378.0,993.0,1.0,449.0,1
1685,1685,0.7143774388457098,0.7,0,336.0,758.0,0.0,486.0,1
1686,1686,0.23397611985189437,0.2,0,397.0,976.0,1.0,1707.0,0
1687,1687,0.47691366682322256,0.5,0,414.0,724.0,0.0,262.0,1
1688,1688,-0.348776726511848,-0.3,1,424.0,511.0,1.0,1195.0,1
1689,1689,-0.6550466573646145,-0.7,1,383.0,666.0,1.0,221.0,1
1690,1690,-0.5333839233615494,-0.5,1,365.0,503.0,1.0,202.0,1
