,trial,coherence,coherence_bin,green_side,correct_side,target_onset,checker_onset,decision,green_decision,decision_time,correct_decision
0,0,0.09446567095187997,0.1,1.0,1.0,262.0,805.0,1.0,1,193.0,1
1,1,-0.5053100140547676,-0.5,0.0,1.0,398.0,821.0,1.0,0,271.0,1
2,2,0.662057502267165,0.7,0.0,0.0,402.0,983.0,0.0,1,185.0,1
3,3,0.5155912462324644,0.5,0.0,0.0,324.0,870.0,0.0,1,446.0,1
4,4,-0.619637192763137,-0.6,1.0,0.0,456.0,985.0,0.0,0,129.0,1
5,5,-0.5417979565209443,-0.5,1.0,0.0,387.0,743.0,0.0,0,260.0,1
6,6,-0.7525867612408125,-0.8,1.0,0.0,371.0,608.0,0.0,0,141.0,1
7,7,0.17122717478439242,0.2,1.0,1.0,492.0,833.0,1.0,1,25.0,1
8,8,0.7786559684083553,0.8,0.0,0.0,403.0,840.0,0.0,1,307.0,1
9,9,-0.0716541465734426,-0.1,1.0,0.0,261.0,861.0,0.0,0,178.0,1
10,10,0.07212477020893371,0.1,1.0,1.0,308.0,803.0,0.0,0,589.0,0
11,11,-0.3995822378867223,-0.4,0.0,1.0,377.0,615.0,1.0,0,328.0,1
12,12,0.047708780489270186,0.0,1.0,1.0,349.0,878.0,1.0,1,133.0,1
13,13,0.3673340480294406,0.4,0.0,0.0,340.0,812.0,0.0,1,168.0,1
14,14,0.5018480592206832,0.5,0.0,0.0,258.0,910.0,0.0,1,232.0,1
15,15,-0.2768692958910729,-0.3,0.0,1.0,275.0,921.0,1.0,0,294.0,1
16,16,-0.12451291787606955,-0.1,1.0,0.0,476.0,565.0,0.0,0,709.0,1
17,17,-0.4598595014590204,-0.5,0.0,1.0,485.0,963.0,1.0,0,492.0,1
18,18,-0.5676680237190448,-0.6,0.0,1.0,284.0,844.0,1.0,0,192.0,1
19,19,-0.7493483962616116,-0.7,0.0,1.0,394.0,735.0,1.0,0,91.0,1
20,20,-0.6050418643885289,-0.6,1.0,0.0,307.0,560.0,0.0,0,333.0,1
21,21,-0.5042135844466014,-0.5,0.0,1.0,462.0,651.0,1.0,0,327.0,1
22,22,-0.770162710430689,-0.8,0.0,1.0,364.0,615.0,1.0,0,231.0,1
23,23,0.540826067832722,0.5,1.0,1.0,457.0,582.0,1.0,1,361.0,1
24,24,-0.2375811055364896,-0.2,0.0,1.0,476.0,613.0,1.0,0,1751.0,1
25,25,-0.7843458512060484,-0.8,1.0,0.0,425.0,867.0,0.0,0,68.0,1
26,26,0.6910162653422106,0.7,1.0,1.0,351.0,779.0,1.0,1,240.0,1
27,27,-0.2614314966804504,-0.3,0.0,1.0,313.0,652.0,1.0,0,85.0,1
28,28,0.5353442379273495,0.5,1.0,1.0,322.0,740.0,1.0,1,318.0,1
29,29,0.21750932612015295,0.2,0.0,0.0,264.0,774.0,0.0,1,312.0,1
30,30,-0.24548087871209756,-0.2,1.0,0.0,310.0,963.0,0.0,0,257.0,1
31,31,0.5432540291484725,0.5,1.0,1.0,447.0,774.0,1.0,1,269.0,1
32,32,0.03493482545497506,0.0,0.0,0.0,437.0,970.0,0.0,1,443.0,1
33,33,-0.06657579365056576,-0.1,0.0,1.0,418.0,830.0,1.0,0,382.0,1
34,34,0.5855579781375019,0.6,0.0,0.0,448.0,714.0,0.0,1,88.0,1
35,35,0.1726486774414212,0.2,1.0,1.0,495.0,963.0,0.0,0,1282.0,0
36,36,0.3549064408351611,0.4,0.0,0.0,291.0,898.0,0.0,1,281.0,1
37,37,0.669838066284662,0.7,1.0,1.0,335.0,860.0,1.0,1,695.0,1
38,38,0.10124286116952408,0.1,1.0,1.0,300.0,637.0,0.0,0,1703.0,0
39,39,-0.24132341043930594,-0.2,1.0,0.0,462.0,654.0,0.0,0,284.0,1
40,40,-0.6365546292807767,-0.6,1.0,0.0,492.0,740.0,0.0,0,338.0,1
41,41,-0.4675201535036679,-0.5,1.0,0.0,410.0,737.0,0.0,0,623.0,1
42,42,0.5390972209098958,0.5,0.0,0.0,420.0,605.0,0.0,1,215.0,1
43,43,0.2610777568360113,0.3,0.0,0.0,465.0,976.0,0.0,1,209.0,1
44,44,0.06486196411860456,0.1,1.0,1.0,273.0,714.0,1.0,1,463.0,1
45,45,0.6357357825837516,0.6,0.0,0.0,252.0,774.0,0.0,1,384.0,1
46,46,-0.6156832182303449,-0.6,0.0,1.0,467.0,891.0,1.0,0,112.0,1
47,47,0.6994796935424453,0.7,0.0,0.0,317.0,550.0,0.0,1,173.0,1
48,48,0.023412910835792333,0.0,0.0,0.0,489.0,503.0,0.0,1,528.0,1
49,49,-0.8545847639610165,-0.9,1.0,0.0,254.0,798.0,0.0,0,438.0,1
50,50,0.6985129938771745,0.7,0.0,0.0,465.0,956.0,0.0,1,409.0,1
51,51,-0.6753050759083347,-0.7,1.0,0.0,326.0,725.0,0.0,0,189.0,1
52,52,0.3358340704667816,0.3,0.0,0.0,313.0,887.0,0.0,1,450.0,1
53,53,-0.6544458417616676,-0.7,0.0,1.0,458.0,724.0,1.0,0,658.0,1
54,54,-0.8575431315195106,-0.9,1.0,0.0,273.0,672.0,0.0,0,245.0,1
55,55,-0.37382705799633553,-0.4,1.0,0.0,442.0,785.0,0.0,0,243.0,1
56,56,0.5290564496647464,0.5,0.0,0.0,335.0,529.0,0.0,1,246.0,1
57,57,-0.4536047535816567,-0.5,1.0,0.0,350.0,805.0,0.0,0,265.0,1
58,58,0.10888450440635522,0.1,0.0,0.0,461.0,990.0,0.0,1,279.0,1
59,59,0.0542624186007189,0.1,0.0,0.0,314.0,582.0,0.0,1,724.0,1
60,60,0.004255493523197762,0.0,0.0,0.0,311.0,516.0,0.0,1,683.0,1
61,61,0.3712861993740001,0.4,0.0,0.0,355.0,948.0,0.0,1,847.0,1
62,62,-0.8503611067299507,-0.9,1.0,0.0,405.0,748.0,0.0,0,187.0,1
63,63,-0.1717672817111704,-0.2,1.0,0.0,490.0,589.0,0.0,0,181.0,1
64,64,-0.6950495442341315,-0.7,0.0,1.0,260.0,993.0,1.0,0,217.0,1
65,65,-0.5954565048294101,-0.6,0.0,1.0,437.0,773.0,1.0,0,200.0,1
66,66,0.05621326687946826,0.1,1.0,1.0,380.0,737.0,0.0,0,433.0,0
67,67,0.1438206576047002,0.1,0.0,0.0,486.0,877.0,1.0,0,67.0,0
68,68,-0.5293833462280899,-0.5,1.0,0.0,456.0,875.0,0.0,0,69.0,1
69,69,0.1317426875922153,0.1,1.0,1.0,408.0,672.0,1.0,1,230.0,1
70,70,0.6039274625261998,0.6,0.0,0.0,367.0,851.0,0.0,1,172.0,1
71,71,-0.05065208592107073,-0.1,0.0,1.0,310.0,717.0,0.0,1,313.0,0
72,72,0.018801295871754165,0.0,0.0,0.0,475.0,598.0,1.0,0,297.0,0
73,73,0.04418002447796632,0.0,0.0,0.0,489.0,708.0,1.0,0,283.0,0
74,74,-0.15571524827977568,-0.2,0.0,1.0,334.0,928.0,1.0,0,1078.0,1
75,75,0.434014968760312,0.4,0.0,0.0,264.0,972.0,0.0,1,144.0,1
76,76,-0.1056583451332681,-0.1,1.0,0.0,268.0,615.0,0.0,0,217.0,1
77,77,-0.5020595386757258,-0.5,0.0,1.0,326.0,850.0,1.0,0,134.0,1
78,78,-0.6089139099560182,-0.6,1.0,0.0,251.0,718.0,0.0,0,211.0,1
79,79,-0.8468815719822401,-0.8,0.0,1.0,310.0,568.0,1.0,0,152.0,1
80,80,-0.584802937291806,-0.6,1.0,0.0,379.0,952.0,0.0,0,179.0,1
81,81,-0.39707023990278656,-0.4,1.0,0.0,296.0,696.0,0.0,0,388.0,1
82,82,0.6830607374598753,0.7,0.0,0.0,392.0,634.0,0.0,1,44.0,1
83,83,0.8223845937369548,0.8,0.0,0.0,261.0,594.0,0.0,1,225.0,1
84,84,-0.05868371696408747,-0.1,0.0,1.0,406.0,812.0,0.0,1,1372.0,0
85,85,0.21687585973797463,0.2,0.0,0.0,492.0,883.0,1.0,0,125.0,0
86,86,0.09114623629875351,0.1,0.0,0.0,463.0,759.0,0.0,1,358.0,1
87,87,-0.7009892976780928,-0.7,0.0,1.0,265.0,611.0,1.0,0,254.0,1
88,88,-0.8471031240758902,-0.8,1.0,0.0,481.0,853.0,0.0,0,26.0,1
89,89,-0.31501647321374293,-0.3,1.0,0.0,301.0,501.0,0.0,0,558.0,1
90,90,0.2770654765526438,0.3,1.0,1.0,345.0,805.0,1.0,1,1380.0,1
91,91,-0.360697768085817,-0.4,1.0,0.0,272.0,765.0,0.0,0,293.0,1
92,92,0.2042758647702262,0.2,0.0,0.0,442.0,778.0,0.0,1,520.0,1
93,93,0.24179178917461497,0.2,0.0,0.0,499.0,778.0,0.0,1,613.0,1
94,94,0.7465537751052388,0.7,1.0,1.0,330.0,769.0,1.0,1,151.0,1
95,95,-0.07228228211297127,-0.1,0.0,1.0,367.0,527.0,0.0,1,806.0,0
96,96,0.8673375949666119,0.9,1.0,1.0,356.0,710.0,1.0,1,184.0,1
97,97,0.4593084227781238,0.5,1.0,1.0,313.0,598.0,1.0,1,469.0,1
98,98,0.05543347767007356,0.1,1.0,1.0,418.0,737.0,1.0,1,435.0,1
99,99,-0.012359493546617029,-0.0,0.0,1.0,380.0,662.0,1.0,0,928.0,1
100,100,-0.15086521158088417,-0.2,0.0,1.0,481.0,907.0,1.0,0,-208.0,1
101,101,-0.31124351280563545,-0.3,0.0,1.0,311.0,994.0,1.0,0,645.0,1
102,102,0.2736075322385333,0.3,1.0,1.0,349.0,824.0,1.0,1,267.0,1
103,103,-0.7196940809848906,-0.7,1.0,0.0,498.0,553.0,0.0,0,209.0,1
104,104,0.746766738367142,0.7,0.0,0.0,355.0,912.0,0.0,1,183.0,1
105,105,-0.609161089346699,-0.6,0.0,1.0,335.0,580.0,1.0,0,145.0,1
106,106,-0.8747462296357387,-0.9,0.0,1.0,310.0,640.0,1.0,0,230.0,1
107,107,0.21091677452336144,0.2,1.0,1.0,299.0,751.0,1.0,1,250.0,1
108,108,-0.8569571941066007,-0.9,0.0,1.0,291.0,531.0,1.0,0,168.0,1
109,109,-0.03273991666615328,-0.0,1.0,0.0,256.0,517.0,0.0,0,477.0,1
110,110,0.7462057026005392,0.7,1.0,1.0,355.0,796.0,1.0,1,119.0,1
111,111,-0.6211243434040757,-0.6,0.0,1.0,405.0,960.0,1.0,0,225.0,1
112,112,0.35732156823173,0.4,0.0,0.0,336.0,857.0,0.0,1,307.0,1
113,113,-0.5122416581994478,-0.5,0.0,1.0,470.0,770.0,1.0,0,260.0,1
114,114,0.1128063257840054,0.1,1.0,1.0,352.0,906.0,0.0,0,452.0,0
115,115,0.8141668033300994,0.8,1.0,1.0,373.0,992.0,1.0,1,215.0,1
116,116,0.5217054515393634,0.5,0.0,0.0,351.0,597.0,0.0,1,172.0,1
117,117,-0.7402947401859716,-0.7,1.0,0.0,277.0,971.0,0.0,0,192.0,1
118,118,-0.0011682351637752886,-0.0,0.0,1.0,288.0,616.0,0.0,1,436.0,0
119,119,-0.30953188242756124,-0.3,0.0,1.0,464.0,680.0,1.0,0,256.0,1
120,120,-0.18020426437125836,-0.2,0.0,1.0,339.0,641.0,1.0,0,330.0,1
121,121,0.3888760784350228,0.4,0.0,0.0,366.0,783.0,0.0,1,171.0,1
122,122,0.47775474763825987,0.5,1.0,1.0,330.0,703.0,1.0,1,527.0,1
123,123,0.6139074953960474,0.6,1.0,1.0,398.0,957.0,1.0,1,325.0,1
124,124,-0.42352600758837594,-0.4,0.0,1.0,261.0,736.0,1.0,0,243.0,1
125,125,0.680695374042222,0.7,1.0,1.0,472.0,923.0,1.0,1,225.0,1
126,126,-0.8103363351628339,-0.8,1.0,0.0,428.0,913.0,0.0,0,239.0,1
127,127,-0.3379162023277419,-0.3,1.0,0.0,319.0,732.0,0.0,0,309.0,1
128,128,-0.01682349470634481,-0.0,0.0,1.0,479.0,631.0,1.0,0,-590.0,1
129,129,-0.07613805972828314,-0.1,0.0,1.0,323.0,937.0,0.0,1,980.0,0
130,130,0.20963670799033685,0.2,0.0,0.0,262.0,592.0,0.0,1,306.0,1
131,131,-0.31727062177755083,-0.3,1.0,0.0,261.0,645.0,0.0,0,424.0,1
132,132,0.00982945809217306,0.0,0.0,0.0,459.0,791.0,0.0,1,850.0,1
133,133,0.5216872202610933,0.5,1.0,1.0,398.0,526.0,1.0,1,346.0,1
134,134,-0.6305280275747305,-0.6,0.0,1.0,360.0,893.0,1.0,0,17.0,1
135,135,-0.7708226149382484,-0.8,0.0,1.0,308.0,991.0,1.0,0,251.0,1
136,136,0.35273537700726376,0.4,1.0,1.0,295.0,990.0,1.0,1,235.0,1
137,137,0.1294029765797987,0.1,0.0,0.0,272.0,713.0,0.0,1,285.0,1
138,138,-0.4372476870214405,-0.4,1.0,0.0,303.0,886.0,0.0,0,171.0,1
139,139,0.7071323567448456,0.7,1.0,1.0,286.0,869.0,1.0,1,285.0,1
140,140,-0.7566061596660488,-0.8,0.0,1.0,258.0,546.0,1.0,0,236.0,1
141,141,0.858223720559023,0.9,0.0,0.0,330.0,525.0,0.0,1,445.0,1
142,142,-0.10057932211060339,-0.1,1.0,0.0,363.0,561.0,0.0,0,1156.0,1
143,143,-0.370478179812183,-0.4,0.0,1.0,324.0,632.0,1.0,0,354.0,1
144,144,0.09142732437005063,0.1,1.0,1.0,271.0,764.0,1.0,1,485.0,1
145,145,-0.11254805163306636,-0.1,1.0,0.0,464.0,899.0,1.0,1,297.0,0
146,146,0.25077111592626145,0.3,0.0,0.0,389.0,539.0,0.0,1,792.0,1
147,147,0.5976822760584123,0.6,1.0,1.0,478.0,893.0,1.0,1,29.0,1
148,148,0.45822316161335197,0.5,1.0,1.0,309.0,923.0,1.0,1,238.0,1
149,149,-0.36556591863918875,-0.4,1.0,0.0,417.0,744.0,0.0,0,169.0,1
150,150,-0.16716099868650924,-0.2,1.0,0.0,283.0,955.0,1.0,1,742.0,0
151,151,0.6937018872181607,0.7,1.0,1.0,445.0,863.0,1.0,1,142.0,1
152,152,-0.3320634313284657,-0.3,1.0,0.0,339.0,818.0,0.0,0,133.0,1
153,153,-0.7532108544796989,-0.8,0.0,1.0,255.0,648.0,1.0,0,297.0,1
154,154,0.7480260413517367,0.7,0.0,0.0,354.0,562.0,0.0,1,164.0,1
155,155,-0.2618296623227261,-0.3,1.0,0.0,391.0,852.0,0.0,0,367.0,1
156,156,0.11672166053131183,0.1,1.0,1.0,317.0,686.0,1.0,1,337.0,1
157,157,0.0010753230951232595,0.0,1.0,1.0,430.0,690.0,0.0,0,730.0,0
158,158,-0.012734310689529793,-0.0,1.0,0.0,319.0,781.0,0.0,0,1170.0,1
159,159,0.7097492345414115,0.7,1.0,1.0,367.0,849.0,1.0,1,74.0,1
160,160,-0.333713663098535,-0.3,0.0,1.0,454.0,543.0,1.0,0,343.0,1
161,161,0.7112107496523902,0.7,1.0,1.0,314.0,569.0,1.0,1,267.0,1
162,162,-0.8484967717402604,-0.8,1.0,0.0,473.0,566.0,0.0,0,301.0,1
163,163,0.5202683791623853,0.5,0.0,0.0,334.0,692.0,0.0,1,264.0,1
164,164,-0.24913008134855252,-0.2,1.0,0.0,438.0,580.0,0.0,0,462.0,1
165,165,-0.512375614686845,-0.5,0.0,1.0,302.0,964.0,1.0,0,244.0,1
166,166,-0.8147086924398205,-0.8,0.0,1.0,421.0,672.0,1.0,0,177.0,1
167,167,-0.3696160156920044,-0.4,1.0,0.0,320.0,641.0,0.0,0,189.0,1
168,168,0.6499952047141927,0.6,1.0,1.0,496.0,868.0,1.0,1,376.0,1
169,169,0.20371138307622638,0.2,0.0,0.0,473.0,906.0,0.0,1,441.0,1
170,170,0.6460362491899684,0.6,0.0,0.0,413.0,676.0,0.0,1,151.0,1
171,171,0.7286549043371188,0.7,0.0,0.0,449.0,957.0,0.0,1,494.0,1
172,172,-0.8308760072453127,-0.8,0.0,1.0,276.0,795.0,1.0,0,239.0,1
173,173,0.841493493581917,0.8,0.0,0.0,384.0,512.0,0.0,1,534.0,1
174,174,0.16309192022271823,0.2,0.0,0.0,298.0,695.0,0.0,1,477.0,1
175,175,-0.8835203662894183,-0.9,0.0,1.0,341.0,775.0,1.0,0,194.0,1
176,176,-0.32855931210972267,-0.3,1.0,0.0,432.0,690.0,0.0,0,258.0,1
177,177,0.7437432440968027,0.7,0.0,0.0,388.0,991.0,0.0,1,221.0,1
178,178,0.5406365598819348,0.5,0.0,0.0,321.0,748.0,0.0,1,91.0,1
179,179,-0.38469951898045607,-0.4,1.0,0.0,346.0,769.0,0.0,0,395.0,1
180,180,-0.8198573256620777,-0.8,0.0,1.0,391.0,565.0,1.0,0,344.0,1
181,181,-0.6425530135659641,-0.6,0.0,1.0,458.0,629.0,1.0,0,183.0,1
182,182,-0.41328711410623775,-0.4,1.0,0.0,292.0,574.0,0.0,0,364.0,1
183,183,0.8666527637424551,0.9,0.0,0.0,492.0,609.0,0.0,1,289.0,1
184,184,-0.007224548177674817,-0.0,1.0,0.0,484.0,844.0,0.0,0,502.0,1
185,185,0.5710655555928422,0.6,0.0,0.0,310.0,683.0,0.0,1,487.0,1
186,186,0.7587035038900086,0.8,1.0,1.0,332.0,597.0,1.0,1,321.0,1
187,187,0.750487993989683,0.8,1.0,1.0,412.0,510.0,0.0,0,408.0,0
188,188,0.5897515929961877,0.6,1.0,1.0,457.0,563.0,1.0,1,390.0,1
189,189,-0.44848970407832733,-0.4,0.0,1.0,410.0,644.0,1.0,0,116.0,1
190,190,0.534277703350405,0.5,0.0,0.0,358.0,522.0,0.0,1,340.0,1
191,191,-0.7176674902971186,-0.7,0.0,1.0,352.0,732.0,1.0,0,146.0,1
192,192,-0.6265415449782881,-0.6,1.0,0.0,294.0,864.0,0.0,0,102.0,1
193,193,0.8280329262990848,0.8,0.0,0.0,493.0,917.0,0.0,1,90.0,1
194,194,-0.799763117841439,-0.8,1.0,0.0,257.0,886.0,0.0,0,117.0,1
195,195,0.13086816988778593,0.1,1.0,1.0,440.0,858.0,1.0,1,642.0,1
196,196,-0.5431948455242145,-0.5,0.0,1.0,443.0,898.0,1.0,0,49.0,1
197,197,-0.5735063824990947,-0.6,1.0,0.0,494.0,633.0,0.0,0,493.0,1
198,198,-0.3364432514057113,-0.3,0.0,1.0,277.0,599.0,1.0,0,994.0,1
199,199,-0.8336847967552578,-0.8,1.0,0.0,430.0,967.0,0.0,0,243.0,1
200,200,-0.5547076621279157,-0.6,0.0,1.0,405.0,572.0,1.0,0,193.0,1
201,201,-0.3822643317285216,-0.4,1.0,0.0,435.0,630.0,0.0,0,385.0,1
202,202,-0.0859896083073115,-0.1,1.0,0.0,458.0,700.0,0.0,0,122.0,1
203,203,0.7142122005314725,0.7,1.0,1.0,491.0,582.0,1.0,1,187.0,1
204,204,-0.6826530392271675,-0.7,0.0,1.0,431.0,976.0,1.0,0,363.0,1
205,205,0.34712831651268317,0.3,0.0,0.0,449.0,661.0,0.0,1,140.0,1
206,206,0.32548919897623285,0.3,1.0,1.0,407.0,995.0,0.0,0,258.0,0
207,207,-0.23142386536968185,-0.2,0.0,1.0,412.0,940.0,1.0,0,848.0,1
208,208,0.334127756818842,0.3,1.0,1.0,286.0,548.0,1.0,1,406.0,1
209,209,-0.6207662165070709,-0.6,1.0,0.0,371.0,641.0,0.0,0,168.0,1
210,210,0.43664435845242766,0.4,0.0,0.0,295.0,943.0,0.0,1,52.0,1
211,211,-0.5871917401572238,-0.6,0.0,1.0,259.0,981.0,0.0,1,30.0,0
212,212,-0.4674837063786194,-0.5,1.0,0.0,418.0,849.0,0.0,0,363.0,1
213,213,-0.14293397648008133,-0.1,0.0,1.0,286.0,756.0,1.0,0,308.0,1
214,214,-0.42188070752163215,-0.4,0.0,1.0,391.0,535.0,1.0,0,374.0,1
215,215,-0.6584847738492932,-0.7,0.0,1.0,311.0,585.0,1.0,0,94.0,1
216,216,-0.15782211580422,-0.2,0.0,1.0,491.0,623.0,1.0,0,466.0,1
217,217,0.7661728062208156,0.8,1.0,1.0,354.0,964.0,1.0,1,252.0,1
218,218,0.10648322029231816,0.1,0.0,0.0,400.0,747.0,1.0,0,-37.0,0
219,219,0.8080739481921441,0.8,1.0,1.0,369.0,801.0,1.0,1,320.0,1
220,220,-0.8491583383293714,-0.8,1.0,0.0,298.0,889.0,1.0,1,43.0,0
221,221,-0.42692075182322714,-0.4,0.0,1.0,262.0,773.0,0.0,1,25.0,0
222,222,-0.11325694611852644,-0.1,1.0,0.0,353.0,750.0,0.0,0,137.0,1
223,223,0.058328818888117695,0.1,1.0,1.0,423.0,904.0,1.0,1,163.0,1
224,224,-0.5232935341687954,-0.5,0.0,1.0,342.0,957.0,1.0,0,141.0,1
225,225,-0.2277412410650057,-0.2,0.0,1.0,478.0,820.0,0.0,1,532.0,0
226,226,0.5530190877608417,0.6,1.0,1.0,449.0,648.0,1.0,1,283.0,1
227,227,0.4956275334239425,0.5,1.0,1.0,363.0,573.0,1.0,1,364.0,1
228,228,0.13102873657549396,0.1,0.0,0.0,463.0,611.0,0.0,1,236.0,1
229,229,0.32446988822404255,0.3,1.0,1.0,357.0,509.0,1.0,1,594.0,1
230,230,0.3166310562956963,0.3,0.0,0.0,367.0,607.0,0.0,1,4026.0,1
231,231,-0.8537996322643909,-0.9,1.0,0.0,378.0,602.0,0.0,0,270.0,1
232,232,0.49870362109709265,0.5,0.0,0.0,298.0,985.0,0.0,1,87.0,1
233,233,0.3124217419075975,0.3,1.0,1.0,493.0,528.0,1.0,1,239.0,1
234,234,-0.15098421407888374,-0.2,0.0,1.0,270.0,932.0,1.0,0,848.0,1
235,235,0.04695334823509678,0.0,1.0,1.0,434.0,917.0,0.0,0,1619.0,0
236,236,-0.6133730865143456,-0.6,0.0,1.0,439.0,921.0,1.0,0,200.0,1
237,237,0.15845531370775368,0.2,0.0,0.0,455.0,563.0,0.0,1,142.0,1
238,238,0.16345551528536795,0.2,0.0,0.0,452.0,604.0,0.0,1,314.0,1
239,239,0.5339499915416236,0.5,1.0,1.0,404.0,713.0,1.0,1,183.0,1
240,240,0.6377885651669458,0.6,1.0,1.0,353.0,649.0,1.0,1,228.0,1
241,241,0.4096685701045829,0.4,1.0,1.0,414.0,800.0,1.0,1,296.0,1
242,242,-0.8991101319942957,-0.9,0.0,1.0,373.0,987.0,1.0,0,180.0,1
243,243,0.06391781748458214,0.1,1.0,1.0,279.0,692.0,0.0,0,839.0,0
244,244,-0.39806575610396555,-0.4,0.0,1.0,421.0,687.0,0.0,1,12.0,0
245,245,0.0636399470342317,0.1,0.0,0.0,398.0,607.0,0.0,1,1065.0,1
246,246,-0.41481830350905563,-0.4,1.0,0.0,280.0,722.0,0.0,0,238.0,1
247,247,0.30087052300976,0.3,0.0,0.0,309.0,838.0,0.0,1,203.0,1
248,248,-0.3283706501642948,-0.3,0.0,1.0,451.0,717.0,1.0,0,282.0,1
249,249,0.87180940270883,0.9,1.0,1.0,488.0,871.0,1.0,1,191.0,1
250,250,0.8319724599879065,0.8,1.0,1.0,382.0,552.0,1.0,1,356.0,1
251,251,-0.7179077266187409,-0.7,1.0,0.0,309.0,887.0,0.0,0,294.0,1
252,252,-0.11657345722137946,-0.1,1.0,0.0,348.0,729.0,1.0,1,13.0,0
253,253,-0.16715890561565927,-0.2,1.0,0.0,381.0,619.0,0.0,0,350.0,1
254,254,-0.6240296587548859,-0.6,1.0,0.0,264.0,944.0,0.0,0,182.0,1
255,255,-0.42384863721133564,-0.4,1.0,0.0,386.0,784.0,0.0,0,240.0,1
256,256,0.031440154339506865,0.0,0.0,0.0,356.0,633.0,0.0,1,1131.0,1
257,257,-0.09057519241131118,-0.1,0.0,1.0,289.0,748.0,1.0,0,243.0,1
258,258,0.010119519228867446,0.0,1.0,1.0,298.0,729.0,1.0,1,543.0,1
259,259,0.2133034336389824,0.2,0.0,0.0,307.0,981.0,0.0,1,812.0,1
260,260,-0.5518885930227707,-0.6,1.0,0.0,483.0,573.0,0.0,0,454.0,1
261,261,-0.02884711905728521,-0.0,1.0,0.0,377.0,933.0,0.0,0,280.0,1
262,262,-0.339927412783689,-0.3,1.0,0.0,337.0,507.0,0.0,0,316.0,1
263,263,-0.5084696820156549,-0.5,1.0,0.0,422.0,782.0,0.0,0,196.0,1
264,264,0.5899396349767742,0.6,0.0,0.0,421.0,576.0,0.0,1,333.0,1
265,265,-0.8589654998611854,-0.9,0.0,1.0,449.0,602.0,1.0,0,519.0,1
266,266,-0.04197265441966469,-0.0,1.0,0.0,296.0,934.0,0.0,0,150.0,1
267,267,0.1331095687672793,0.1,0.0,0.0,457.0,886.0,0.0,1,107.0,1
268,268,-0.7950270475998908,-0.8,1.0,0.0,443.0,995.0,0.0,0,142.0,1
269,269,0.8903588151682628,0.9,0.0,0.0,389.0,570.0,0.0,1,261.0,1
270,270,0.45154927875928086,0.5,1.0,1.0,393.0,982.0,1.0,1,695.0,1
271,271,0.009358026989700785,0.0,1.0,1.0,295.0,639.0,0.0,0,726.0,0
272,272,0.1915961618244425,0.2,0.0,0.0,433.0,534.0,0.0,1,433.0,1
273,273,0.30751332334921055,0.3,1.0,1.0,285.0,579.0,1.0,1,206.0,1
274,274,0.16614678564315766,0.2,0.0,0.0,436.0,735.0,0.0,1,569.0,1
275,275,-0.7985062177491519,-0.8,1.0,0.0,468.0,607.0,0.0,0,305.0,1
276,276,-0.7232801834441555,-0.7,0.0,1.0,444.0,812.0,1.0,0,154.0,1
277,277,-0.01547320866466284,-0.0,0.0,1.0,390.0,814.0,1.0,0,186.0,1
278,278,0.5441942508570513,0.5,1.0,1.0,347.0,609.0,1.0,1,294.0,1
279,279,0.14081777296448805,0.1,1.0,1.0,281.0,624.0,1.0,1,455.0,1
280,280,-0.3117253896846278,-0.3,0.0,1.0,364.0,871.0,1.0,0,355.0,1
281,281,-0.773301426245217,-0.8,1.0,0.0,469.0,787.0,0.0,0,134.0,1
282,282,-0.4172733733065441,-0.4,1.0,0.0,266.0,854.0,0.0,0,150.0,1
283,283,0.33695428133835714,0.3,1.0,1.0,495.0,938.0,1.0,1,427.0,1
284,284,0.8634766768728132,0.9,0.0,0.0,494.0,870.0,0.0,1,216.0,1
285,285,0.061487815100993215,0.1,1.0,1.0,362.0,931.0,1.0,1,907.0,1
286,286,-0.5740028691143519,-0.6,1.0,0.0,339.0,681.0,0.0,0,350.0,1
287,287,-0.6241773707419044,-0.6,1.0,0.0,421.0,639.0,0.0,0,310.0,1
288,288,0.4031302685362238,0.4,1.0,1.0,299.0,536.0,0.0,0,185.0,0
289,289,0.674519372821781,0.7,1.0,1.0,330.0,930.0,1.0,1,530.0,1
290,290,0.7994103944329239,0.8,1.0,1.0,485.0,640.0,1.0,1,365.0,1
291,291,-0.3551492303535587,-0.4,1.0,0.0,434.0,887.0,0.0,0,129.0,1
292,292,-0.4514495161864173,-0.5,1.0,0.0,444.0,747.0,0.0,0,269.0,1
293,293,-0.7378263670510089,-0.7,0.0,1.0,446.0,547.0,1.0,0,207.0,1
294,294,0.31035720643144404,0.3,1.0,1.0,368.0,543.0,1.0,1,439.0,1
295,295,-0.2803268941997695,-0.3,0.0,1.0,372.0,502.0,1.0,0,296.0,1
296,296,-0.21430397817127067,-0.2,1.0,0.0,473.0,676.0,0.0,0,441.0,1
297,297,0.8493043267217592,0.8,0.0,0.0,334.0,589.0,0.0,1,307.0,1
298,298,-0.49504260544222406,-0.5,0.0,1.0,273.0,514.0,1.0,0,263.0,1
299,299,0.7698350963825565,0.8,0.0,0.0,361.0,744.0,0.0,1,165.0,1
300,300,-0.08152496509490892,-0.1,1.0,0.0,355.0,560.0,1.0,1,575.0,0
301,301,-0.8309779389696613,-0.8,1.0,0.0,481.0,662.0,0.0,0,447.0,1
302,302,-0.1287017776514956,-0.1,1.0,0.0,370.0,747.0,0.0,0,913.0,1
303,303,0.751153586667714,0.8,1.0,1.0,304.0,987.0,1.0,1,199.0,1
304,304,0.13277024180374075,0.1,1.0,1.0,278.0,882.0,1.0,1,1020.0,1
305,305,0.21289403803155216,0.2,0.0,0.0,392.0,594.0,0.0,1,404.0,1
306,306,-0.516478286291922,-0.5,0.0,1.0,376.0,667.0,1.0,0,267.0,1
307,307,0.57130921817426,0.6,1.0,1.0,404.0,809.0,1.0,1,287.0,1
308,308,-0.5431738213974757,-0.5,0.0,1.0,425.0,745.0,1.0,0,220.0,1
309,309,0.41794267601866253,0.4,0.0,0.0,334.0,633.0,0.0,1,153.0,1
310,310,-0.10761505746462008,-0.1,0.0,1.0,278.0,819.0,0.0,1,763.0,0
311,311,0.1048769991219366,0.1,1.0,1.0,411.0,776.0,1.0,1,653.0,1
312,312,0.713681784100077,0.7,1.0,1.0,368.0,835.0,1.0,1,187.0,1
313,313,0.7116290404879725,0.7,0.0,0.0,417.0,875.0,0.0,1,148.0,1
314,314,0.5632897688499462,0.6,1.0,1.0,470.0,598.0,1.0,1,282.0,1
315,315,0.05964520150955033,0.1,1.0,1.0,428.0,681.0,1.0,1,1371.0,1
316,316,0.8067308104303913,0.8,0.0,0.0,257.0,858.0,0.0,1,195.0,1
317,317,0.2849450776012742,0.3,0.0,0.0,284.0,520.0,0.0,1,326.0,1
318,318,0.6858729715340396,0.7,0.0,0.0,443.0,911.0,0.0,1,456.0,1
319,319,-0.6802689499493739,-0.7,1.0,0.0,264.0,776.0,0.0,0,220.0,1
320,320,0.0938571616670969,0.1,0.0,0.0,489.0,601.0,1.0,0,170.0,0
321,321,0.7991563684996278,0.8,1.0,1.0,255.0,789.0,1.0,1,96.0,1
322,322,0.07636082006792366,0.1,0.0,0.0,339.0,608.0,0.0,1,453.0,1
323,323,0.7807052186772235,0.8,1.0,1.0,252.0,540.0,1.0,1,268.0,1
324,324,0.14461686247839023,0.1,1.0,1.0,480.0,982.0,1.0,1,278.0,1
325,325,-0.5253804127679197,-0.5,0.0,1.0,252.0,892.0,1.0,0,256.0,1
326,326,-0.7649599948615233,-0.8,1.0,0.0,371.0,744.0,0.0,0,165.0,1
327,327,-0.6779812765899009,-0.7,1.0,0.0,294.0,817.0,0.0,0,139.0,1
328,328,0.4796163413285571,0.5,1.0,1.0,441.0,629.0,1.0,1,310.0,1
329,329,0.7313363443870805,0.7,1.0,1.0,347.0,764.0,1.0,1,179.0,1
330,330,-0.33512411006289844,-0.3,0.0,1.0,307.0,538.0,1.0,0,245.0,1
331,331,0.2408766370339156,0.2,0.0,0.0,386.0,550.0,0.0,1,264.0,1
332,332,0.1922794763764456,0.2,1.0,1.0,348.0,558.0,1.0,1,584.0,1
333,333,0.605289103181689,0.6,1.0,1.0,297.0,533.0,1.0,1,240.0,1
334,334,0.442473217387901,0.4,0.0,0.0,258.0,904.0,0.0,1,298.0,1
335,335,-0.0834516990181623,-0.1,0.0,1.0,264.0,787.0,1.0,0,159.0,1
336,336,0.0716388061204879,0.1,0.0,0.0,472.0,617.0,0.0,1,761.0,1
337,337,0.022210927225878252,0.0,0.0,0.0,328.0,812.0,0.0,1,120.0,1
338,338,0.6016193027494944,0.6,0.0,0.0,467.0,669.0,0.0,1,174.0,1
339,339,-0.5835095052280216,-0.6,0.0,1.0,423.0,555.0,1.0,0,132.0,1
340,340,0.31197768548959537,0.3,1.0,1.0,422.0,904.0,1.0,1,554.0,1
341,341,-0.7551142242985308,-0.8,1.0,0.0,425.0,578.0,0.0,0,277.0,1
342,342,-0.39009591260147325,-0.4,0.0,1.0,489.0,703.0,1.0,0,548.0,1
343,343,0.24709101793534705,0.2,0.0,0.0,342.0,752.0,0.0,1,246.0,1
344,344,0.7998511045429714,0.8,0.0,0.0,296.0,693.0,0.0,1,241.0,1
345,345,-0.7423711110317222,-0.7,1.0,0.0,451.0,513.0,0.0,0,226.0,1
346,346,-0.7397399128657902,-0.7,1.0,0.0,318.0,654.0,0.0,0,308.0,1
347,347,0.7475935676865547,0.7,1.0,1.0,364.0,515.0,1.0,1,341.0,1
348,348,0.19337346255623722,0.2,0.0,0.0,359.0,747.0,0.0,1,1134.0,1
349,349,-0.859877212645243,-0.9,1.0,0.0,291.0,820.0,0.0,0,169.0,1
350,350,0.8527601321888364,0.9,1.0,1.0,478.0,889.0,1.0,1,233.0,1
351,351,-0.026665920800935106,-0.0,1.0,0.0,290.0,812.0,0.0,0,168.0,1
352,352,0.899561238460168,0.9,1.0,1.0,405.0,809.0,1.0,1,276.0,1
353,353,0.24619759567743815,0.2,0.0,0.0,335.0,920.0,0.0,1,135.0,1
354,354,0.8896267531366765,0.9,0.0,0.0,394.0,528.0,0.0,1,118.0,1
355,355,-0.809025719198121,-0.8,0.0,1.0,440.0,691.0,1.0,0,379.0,1
356,356,0.037814617173795195,0.0,1.0,1.0,418.0,548.0,1.0,1,1624.0,1
357,357,-0.28257185285380204,-0.3,1.0,0.0,292.0,997.0,0.0,0,101.0,1
358,358,-0.12019329457001027,-0.1,0.0,1.0,312.0,844.0,0.0,1,744.0,0
359,359,-0.15929694394284166,-0.2,0.0,1.0,343.0,915.0,1.0,0,102.0,1
360,360,0.6104788144233649,0.6,0.0,0.0,471.0,602.0,0.0,1,127.0,1
361,361,-0.59088465990103,-0.6,0.0,1.0,285.0,502.0,1.0,0,243.0,1
362,362,0.7130904011088038,0.7,0.0,0.0,283.0,835.0,0.0,1,102.0,1
363,363,0.4677300188879058,0.5,1.0,1.0,291.0,653.0,1.0,1,336.0,1
364,364,0.07454861841886173,0.1,0.0,0.0,373.0,551.0,0.0,1,1256.0,1
365,365,0.5502394766962634,0.6,1.0,1.0,401.0,813.0,1.0,1,346.0,1
366,366,0.7762040763868213,0.8,0.0,0.0,384.0,505.0,0.0,1,171.0,1
367,367,0.8177390191749344,0.8,1.0,1.0,456.0,804.0,1.0,1,210.0,1
368,368,-0.7133303336846832,-0.7,0.0,1.0,421.0,701.0,1.0,0,138.0,1
369,369,-0.7126875666900676,-0.7,0.0,1.0,452.0,714.0,1.0,0,154.0,1
370,370,-0.10940749093108948,-0.1,1.0,0.0,498.0,525.0,0.0,0,777.0,1
371,371,-0.26721611629396547,-0.3,1.0,0.0,272.0,910.0,0.0,0,848.0,1
372,372,-0.16649105636045192,-0.2,0.0,1.0,282.0,723.0,1.0,0,145.0,1
373,373,0.6999299103253306,0.7,0.0,0.0,438.0,591.0,0.0,1,281.0,1
374,374,0.8317336048401015,0.8,1.0,1.0,297.0,936.0,1.0,1,267.0,1
375,375,-0.4208773497206259,-0.4,1.0,0.0,316.0,559.0,0.0,0,455.0,1
376,376,0.6571258408260409,0.7,0.0,0.0,472.0,653.0,0.0,1,205.0,1
377,377,-0.8404960464381692,-0.8,0.0,1.0,323.0,978.0,1.0,0,209.0,1
378,378,-0.6333518921654606,-0.6,1.0,0.0,493.0,820.0,0.0,0,567.0,1
379,379,0.1759114299954766,0.2,1.0,1.0,396.0,770.0,1.0,1,874.0,1
380,380,0.21027218002617876,0.2,0.0,0.0,476.0,963.0,1.0,0,421.0,0
381,381,-0.686570688320618,-0.7,1.0,0.0,363.0,570.0,0.0,0,537.0,1
382,382,-0.8042202095017654,-0.8,0.0,1.0,384.0,829.0,1.0,0,-383.0,1
383,383,-0.2407959147161901,-0.2,1.0,0.0,491.0,786.0,0.0,0,983.0,1
384,384,0.49235873870012903,0.5,1.0,1.0,308.0,910.0,1.0,1,342.0,1
385,385,-0.8220111017848902,-0.8,0.0,1.0,448.0,597.0,1.0,0,435.0,1
386,386,-0.3316122674394856,-0.3,1.0,0.0,339.0,731.0,0.0,0,60.0,1
387,387,-0.6254201073809273,-0.6,0.0,1.0,286.0,950.0,1.0,0,204.0,1
388,388,-0.2938057869058742,-0.3,0.0,1.0,347.0,941.0,1.0,0,592.0,1
389,389,0.6664356675924493,0.7,0.0,0.0,400.0,956.0,0.0,1,244.0,1
390,390,0.3641729121503511,0.4,0.0,0.0,251.0,718.0,0.0,1,51.0,1
391,391,-0.04412411658219417,-0.0,1.0,0.0,288.0,849.0,1.0,1,383.0,0
392,392,-0.813628710375658,-0.8,1.0,0.0,329.0,846.0,0.0,0,275.0,1
393,393,-0.2761847822522695,-0.3,0.0,1.0,333.0,644.0,1.0,0,333.0,1
394,394,-0.5887601099727175,-0.6,0.0,1.0,460.0,534.0,1.0,0,206.0,1
395,395,-0.6167327026214078,-0.6,0.0,1.0,358.0,512.0,1.0,0,150.0,1
396,396,-0.274855148022237,-0.3,1.0,0.0,386.0,615.0,0.0,0,449.0,1
397,397,-0.8904768820983855,-0.9,1.0,0.0,468.0,596.0,0.0,0,266.0,1
398,398,0.863450372067588,0.9,0.0,0.0,447.0,545.0,0.0,1,108.0,1
399,399,0.5618515913221477,0.6,0.0,0.0,444.0,685.0,0.0,1,341.0,1
400,400,-0.7631699992734771,-0.8,1.0,0.0,418.0,763.0,1.0,1,-191.0,0
401,401,0.8772288822136433,0.9,1.0,1.0,309.0,945.0,1.0,1,286.0,1
402,402,-0.652217504939605,-0.7,1.0,0.0,473.0,534.0,0.0,0,593.0,1
403,403,0.3252844726019216,0.3,1.0,1.0,400.0,639.0,1.0,1,291.0,1
404,404,-0.090105499692687,-0.1,0.0,1.0,307.0,981.0,1.0,0,-18.0,1
405,405,-0.7081723882753141,-0.7,0.0,1.0,315.0,869.0,1.0,0,166.0,1
406,406,0.18420508943113434,0.2,0.0,0.0,324.0,848.0,0.0,1,298.0,1
407,407,-0.7223720006003091,-0.7,1.0,0.0,439.0,717.0,0.0,0,174.0,1
408,408,-0.5196350230596709,-0.5,0.0,1.0,251.0,776.0,1.0,0,163.0,1
409,409,0.21862464155172068,0.2,0.0,0.0,415.0,722.0,0.0,1,463.0,1
410,410,-0.11756757454003874,-0.1,0.0,1.0,470.0,850.0,1.0,0,60.0,1
411,411,0.023725726036308403,0.0,1.0,1.0,499.0,843.0,0.0,0,538.0,0
412,412,0.25031001313860923,0.3,0.0,0.0,356.0,596.0,0.0,1,148.0,1
413,413,-0.2101096670587076,-0.2,1.0,0.0,283.0,981.0,0.0,0,76.0,1
414,414,0.6342429713732115,0.6,1.0,1.0,464.0,743.0,1.0,1,993.0,1
415,415,-0.35021086854824746,-0.4,0.0,1.0,439.0,583.0,1.0,0,268.0,1
416,416,0.2861721449966753,0.3,1.0,1.0,305.0,509.0,1.0,1,626.0,1
417,417,0.004134954478812847,0.0,1.0,1.0,414.0,602.0,0.0,0,484.0,0
418,418,-0.37151694092459087,-0.4,1.0,0.0,330.0,861.0,0.0,0,319.0,1
419,419,-0.6251034232363557,-0.6,0.0,1.0,355.0,994.0,1.0,0,221.0,1
420,420,0.7345840136503169,0.7,0.0,0.0,374.0,640.0,0.0,1,296.0,1
421,421,0.265134746603506,0.3,1.0,1.0,426.0,888.0,1.0,1,676.0,1
422,422,-0.7093702004804879,-0.7,1.0,0.0,403.0,696.0,0.0,0,281.0,1
423,423,0.2652684148729846,0.3,1.0,1.0,319.0,633.0,1.0,1,778.0,1
424,424,0.07535076000474494,0.1,0.0,0.0,266.0,632.0,0.0,1,572.0,1
425,425,-0.41712015615323955,-0.4,1.0,0.0,467.0,693.0,0.0,0,380.0,1
426,426,0.31628207280433485,0.3,0.0,0.0,394.0,949.0,0.0,1,227.0,1
427,427,0.17459354752363498,0.2,1.0,1.0,490.0,794.0,1.0,1,266.0,1
428,428,-0.7330784754875745,-0.7,0.0,1.0,420.0,760.0,1.0,0,150.0,1
429,429,0.5315553631477369,0.5,1.0,1.0,279.0,648.0,1.0,1,443.0,1
430,430,0.7806053559570293,0.8,1.0,1.0,473.0,880.0,1.0,1,257.0,1
431,431,0.06380580422675108,0.1,0.0,0.0,289.0,926.0,0.0,1,255.0,1
432,432,-0.8551148493957467,-0.9,0.0,1.0,358.0,827.0,1.0,0,235.0,1
433,433,0.4047390941082457,0.4,1.0,1.0,346.0,558.0,1.0,1,406.0,1
434,434,-0.35512694356038976,-0.4,1.0,0.0,412.0,715.0,0.0,0,363.0,1
435,435,-0.22312109872230945,-0.2,1.0,0.0,374.0,601.0,0.0,0,445.0,1
436,436,-0.7454912284084098,-0.7,0.0,1.0,455.0,744.0,1.0,0,191.0,1
437,437,-0.5465960604488254,-0.5,0.0,1.0,345.0,607.0,1.0,0,168.0,1
438,438,-0.04806370075557387,-0.0,0.0,1.0,451.0,696.0,1.0,0,433.0,1
439,439,0.36063766017297294,0.4,0.0,0.0,453.0,567.0,0.0,1,50.0,1
440,440,0.8054920332303314,0.8,1.0,1.0,342.0,936.0,1.0,1,302.0,1
441,441,0.02273727287634475,0.0,0.0,0.0,324.0,632.0,0.0,1,1004.0,1
442,442,0.48150441733266136,0.5,1.0,1.0,284.0,642.0,1.0,1,214.0,1
443,443,0.269718674094925,0.3,0.0,0.0,401.0,548.0,0.0,1,861.0,1
444,444,-0.232772101867462,-0.2,0.0,1.0,257.0,999.0,0.0,1,84.0,0
445,445,-0.11417584614151366,-0.1,1.0,0.0,470.0,608.0,0.0,0,432.0,1
446,446,0.4859938229027384,0.5,0.0,0.0,314.0,831.0,0.0,1,285.0,1
447,447,-0.40459137317878735,-0.4,1.0,0.0,325.0,997.0,0.0,0,58.0,1
448,448,0.18742432246489205,0.2,0.0,0.0,255.0,722.0,0.0,1,153.0,1
449,449,-0.6226135116412899,-0.6,0.0,1.0,442.0,933.0,1.0,0,235.0,1
450,450,-0.6910327906391465,-0.7,0.0,1.0,263.0,665.0,1.0,0,92.0,1
451,451,-0.26412503104447527,-0.3,1.0,0.0,257.0,990.0,0.0,0,223.0,1
452,452,0.6891313047944608,0.7,0.0,0.0,281.0,950.0,0.0,1,499.0,1
453,453,-0.5496969825820441,-0.5,1.0,0.0,418.0,878.0,0.0,0,154.0,1
454,454,-0.41157151221861177,-0.4,1.0,0.0,457.0,971.0,0.0,0,232.0,1
455,455,-0.17559751976339777,-0.2,1.0,0.0,433.0,764.0,0.0,0,763.0,1
456,456,0.1357427544408204,0.1,0.0,0.0,469.0,858.0,0.0,1,853.0,1
457,457,0.20967702330351645,0.2,0.0,0.0,295.0,940.0,1.0,0,65.0,0
458,458,-0.019830023808142694,-0.0,1.0,0.0,413.0,500.0,0.0,0,257.0,1
459,459,0.26811711968130114,0.3,0.0,0.0,347.0,862.0,0.0,1,81.0,1
460,460,0.1257858633588963,0.1,1.0,1.0,366.0,669.0,1.0,1,365.0,1
461,461,0.3701781059700423,0.4,0.0,0.0,358.0,612.0,0.0,1,500.0,1
462,462,-0.8720539238814375,-0.9,0.0,1.0,412.0,937.0,1.0,0,81.0,1
463,463,0.4039788205908591,0.4,1.0,1.0,284.0,720.0,1.0,1,336.0,1
464,464,-0.6982818364102561,-0.7,1.0,0.0,326.0,647.0,0.0,0,157.0,1
465,465,0.07318764925353194,0.1,0.0,0.0,343.0,828.0,1.0,0,429.0,0
466,466,0.5522490797965299,0.6,1.0,1.0,296.0,980.0,1.0,1,94.0,1
467,467,-0.5340234743608561,-0.5,1.0,0.0,405.0,558.0,0.0,0,387.0,1
468,468,-0.6587982268889928,-0.7,1.0,0.0,400.0,536.0,0.0,0,394.0,1
469,469,-0.4575257377062658,-0.5,0.0,1.0,296.0,669.0,1.0,0,75.0,1
470,470,0.03034743307549126,0.0,0.0,0.0,428.0,609.0,0.0,1,173.0,1
471,471,-0.35887815261573885,-0.4,1.0,0.0,463.0,515.0,0.0,0,72.0,1
472,472,0.7546324185130601,0.8,1.0,1.0,288.0,963.0,1.0,1,409.0,1
473,473,-0.15760355037498053,-0.2,1.0,0.0,494.0,866.0,0.0,0,360.0,1
474,474,-0.21487359214432333,-0.2,1.0,0.0,312.0,766.0,0.0,0,632.0,1
475,475,-0.4102761307306403,-0.4,1.0,0.0,258.0,691.0,0.0,0,121.0,1
476,476,0.47093175521007946,0.5,1.0,1.0,317.0,929.0,1.0,1,234.0,1
477,477,-0.7231869164105698,-0.7,1.0,0.0,397.0,850.0,0.0,0,753.0,1
478,478,0.5409214721701522,0.5,1.0,1.0,343.0,580.0,1.0,1,157.0,1
479,479,-0.29961249946102353,-0.3,0.0,1.0,423.0,877.0,1.0,0,340.0,1
480,480,0.7543715426664651,0.8,1.0,1.0,449.0,772.0,1.0,1,439.0,1
481,481,-0.4254793466656792,-0.4,1.0,0.0,358.0,844.0,1.0,1,-492.0,0
482,482,0.16177009016646438,0.2,0.0,0.0,290.0,571.0,0.0,1,589.0,1
483,483,0.2855079767794536,0.3,1.0,1.0,347.0,675.0,1.0,1,1048.0,1
484,484,-0.7705729805502061,-0.8,1.0,0.0,358.0,726.0,0.0,0,206.0,1
485,485,0.6859020296308048,0.7,1.0,1.0,455.0,959.0,1.0,1,766.0,1
486,486,-0.8181282756585874,-0.8,0.0,1.0,422.0,798.0,1.0,0,160.0,1
487,487,-0.28955087622735565,-0.3,0.0,1.0,481.0,642.0,0.0,1,-233.0,0
488,488,0.22972880122064032,0.2,1.0,1.0,362.0,758.0,1.0,1,310.0,1
489,489,-0.42692187071031795,-0.4,1.0,0.0,367.0,580.0,0.0,0,253.0,1
490,490,-0.41692273911031946,-0.4,0.0,1.0,357.0,541.0,1.0,0,242.0,1
491,491,-0.24843016884085412,-0.2,0.0,1.0,311.0,760.0,1.0,0,479.0,1
492,492,0.4079013327870312,0.4,0.0,0.0,366.0,675.0,0.0,1,309.0,1
493,493,-0.8185221813564457,-0.8,0.0,1.0,397.0,996.0,1.0,0,77.0,1
494,494,0.5224036124463406,0.5,0.0,0.0,400.0,544.0,0.0,1,476.0,1
495,495,0.6480893855854603,0.6,0.0,0.0,394.0,954.0,0.0,1,62.0,1
496,496,0.8893808656504768,0.9,1.0,1.0,347.0,561.0,1.0,1,402.0,1
497,497,-0.01790523198661209,-0.0,0.0,1.0,434.0,885.0,1.0,0,881.0,1
498,498,-0.28980058204978465,-0.3,1.0,0.0,430.0,700.0,0.0,0,230.0,1
499,499,0.8480007621650637,0.8,0.0,0.0,273.0,743.0,0.0,1,254.0,1
500,500,0.7853757981095272,0.8,0.0,0.0,451.0,575.0,0.0,1,344.0,1
501,501,0.6142129581841519,0.6,1.0,1.0,386.0,549.0,1.0,1,85.0,1
502,502,0.7953815858923395,0.8,0.0,0.0,274.0,736.0,0.0,1,200.0,1
503,503,0.2629829622625358,0.3,0.0,0.0,357.0,575.0,0.0,1,388.0,1
504,504,0.7428625704432198,0.7,0.0,0.0,485.0,889.0,0.0,1,126.0,1
505,505,0.18950057157757783,0.2,1.0,1.0,365.0,838.0,1.0,1,287.0,1
506,506,-0.5404063254828838,-0.5,1.0,0.0,484.0,565.0,0.0,0,431.0,1
507,507,0.6028747717095168,0.6,1.0,1.0,409.0,807.0,1.0,1,164.0,1
508,508,0.3390643657977356,0.3,1.0,1.0,274.0,541.0,0.0,0,205.0,0
509,509,-0.17678825117458008,-0.2,0.0,1.0,422.0,873.0,1.0,0,175.0,1
510,510,-0.1825770288920069,-0.2,1.0,0.0,402.0,726.0,0.0,0,382.0,1
511,511,-0.13891118759983478,-0.1,1.0,0.0,430.0,920.0,1.0,1,130.0,0
512,512,0.5166127749316881,0.5,1.0,1.0,344.0,940.0,1.0,1,846.0,1
513,513,-0.8860512644492423,-0.9,1.0,0.0,330.0,712.0,0.0,0,338.0,1
514,514,-0.1147641779942542,-0.1,0.0,1.0,253.0,975.0,1.0,0,152.0,1
515,515,-0.12562288784515085,-0.1,1.0,0.0,308.0,705.0,0.0,0,677.0,1
516,516,-0.62752055699796,-0.6,0.0,1.0,311.0,661.0,1.0,0,298.0,1
517,517,-0.8695149531949639,-0.9,1.0,0.0,497.0,835.0,0.0,0,198.0,1
518,518,-0.5373715608428311,-0.5,0.0,1.0,290.0,694.0,1.0,0,166.0,1
519,519,-0.24370253659481844,-0.2,0.0,1.0,463.0,840.0,1.0,0,307.0,1
520,520,-0.035140561376719726,-0.0,0.0,1.0,466.0,856.0,1.0,0,2078.0,1
521,521,-0.23602572532596233,-0.2,0.0,1.0,301.0,928.0,1.0,0,541.0,1
522,522,-0.8966962601758656,-0.9,1.0,0.0,451.0,586.0,0.0,0,233.0,1
523,523,0.5894667286870429,0.6,1.0,1.0,464.0,605.0,1.0,1,251.0,1
524,524,0.074978451000981,0.1,1.0,1.0,438.0,551.0,0.0,0,411.0,0
525,525,-0.015880470792189794,-0.0,0.0,1.0,251.0,995.0,0.0,1,404.0,0
526,526,-0.7073672447359699,-0.7,0.0,1.0,494.0,729.0,1.0,0,167.0,1
527,527,0.058052560683417354,0.1,0.0,0.0,472.0,724.0,0.0,1,394.0,1
528,528,0.6255304742176285,0.6,0.0,0.0,407.0,657.0,0.0,1,226.0,1
529,529,0.380428134870446,0.4,0.0,0.0,267.0,754.0,0.0,1,209.0,1
530,530,0.8384186254127467,0.8,1.0,1.0,271.0,501.0,1.0,1,308.0,1
531,531,-0.02484400001165521,-0.0,0.0,1.0,344.0,631.0,1.0,0,215.0,1
532,532,-0.48701279867410013,-0.5,1.0,0.0,427.0,686.0,0.0,0,267.0,1
533,533,0.31415285811966165,0.3,0.0,0.0,279.0,650.0,0.0,1,101.0,1
534,534,0.6224153263092055,0.6,0.0,0.0,412.0,534.0,0.0,1,134.0,1
535,535,0.0071581523024539795,0.0,1.0,1.0,304.0,739.0,0.0,0,197.0,0
536,536,0.5035330935912218,0.5,0.0,0.0,425.0,744.0,0.0,1,191.0,1
537,537,-0.5598602108967456,-0.6,1.0,0.0,374.0,817.0,0.0,0,199.0,1
538,538,0.7581152369130476,0.8,1.0,1.0,370.0,965.0,1.0,1,555.0,1
539,539,-0.3317973528982876,-0.3,1.0,0.0,309.0,584.0,0.0,0,457.0,1
540,540,-0.37704641132379435,-0.4,0.0,1.0,473.0,751.0,1.0,0,186.0,1
541,541,-0.7616729119273403,-0.8,1.0,0.0,274.0,762.0,0.0,0,94.0,1
542,542,0.22898084325300105,0.2,0.0,0.0,277.0,510.0,0.0,1,653.0,1
543,543,-0.22526828506854213,-0.2,1.0,0.0,469.0,724.0,0.0,0,897.0,1
544,544,-0.6517467442045971,-0.7,0.0,1.0,479.0,569.0,1.0,0,262.0,1
545,545,0.5464215681822596,0.5,1.0,1.0,363.0,574.0,1.0,1,303.0,1
546,546,0.7043224964445126,0.7,1.0,1.0,391.0,545.0,1.0,1,284.0,1
547,547,0.2404587173442111,0.2,1.0,1.0,432.0,672.0,1.0,1,436.0,1
548,548,0.15447946501934584,0.2,1.0,1.0,454.0,549.0,1.0,1,687.0,1
549,549,0.5013349052726138,0.5,0.0,0.0,464.0,892.0,0.0,1,184.0,1
550,550,0.5072961612399044,0.5,1.0,1.0,335.0,999.0,1.0,1,636.0,1
551,551,-0.019726906537944622,-0.0,1.0,0.0,323.0,973.0,0.0,0,494.0,1
552,552,0.010954485695782612,0.0,0.0,0.0,443.0,556.0,0.0,1,531.0,1
553,553,0.4100179647308192,0.4,1.0,1.0,270.0,935.0,1.0,1,405.0,1
554,554,-0.18040591351891977,-0.2,1.0,0.0,371.0,604.0,0.0,0,715.0,1
555,555,0.3668812627799948,0.4,0.0,0.0,431.0,803.0,0.0,1,216.0,1
556,556,-0.26429261087731937,-0.3,1.0,0.0,432.0,876.0,0.0,0,182.0,1
557,557,0.7987717457011102,0.8,0.0,0.0,286.0,815.0,0.0,1,209.0,1
558,558,-0.825499061639816,-0.8,0.0,1.0,493.0,778.0,1.0,0,199.0,1
559,559,0.5433245374656918,0.5,1.0,1.0,443.0,675.0,1.0,1,122.0,1
560,560,-0.588229489604585,-0.6,1.0,0.0,407.0,780.0,0.0,0,93.0,1
561,561,-0.17306772357187217,-0.2,1.0,0.0,269.0,926.0,0.0,0,765.0,1
562,562,0.054386069144098825,0.1,1.0,1.0,348.0,620.0,1.0,1,432.0,1
563,563,-0.8419596196573623,-0.8,1.0,0.0,311.0,914.0,0.0,0,75.0,1
564,564,0.5579756048991914,0.6,1.0,1.0,291.0,539.0,1.0,1,310.0,1
565,565,-0.7970802593301614,-0.8,0.0,1.0,412.0,522.0,1.0,0,226.0,1
566,566,-0.10298948486313686,-0.1,0.0,1.0,339.0,654.0,0.0,1,617.0,0
567,567,-0.388273809648643,-0.4,1.0,0.0,459.0,608.0,0.0,0,323.0,1
568,568,-0.13728837147893358,-0.1,0.0,1.0,436.0,851.0,1.0,0,313.0,1
569,569,-0.869968377028176,-0.9,0.0,1.0,429.0,674.0,1.0,0,237.0,1
570,570,-0.7225142580370335,-0.7,1.0,0.0,347.0,665.0,0.0,0,298.0,1
571,571,0.31618992491432085,0.3,1.0,1.0,350.0,759.0,1.0,1,171.0,1
572,572,-0.5756002046531798,-0.6,0.0,1.0,409.0,595.0,1.0,0,436.0,1
573,573,-0.11662796422217492,-0.1,1.0,0.0,389.0,969.0,0.0,0,282.0,1
574,574,-0.5283060973474376,-0.5,0.0,1.0,398.0,900.0,1.0,0,212.0,1
575,575,0.6872503961821245,0.7,0.0,0.0,486.0,652.0,0.0,1,282.0,1
576,576,0.5588812228817249,0.6,0.0,0.0,359.0,672.0,0.0,1,329.0,1
577,577,0.17974252517726297,0.2,1.0,1.0,460.0,932.0,1.0,1,308.0,1
578,578,-0.6736602282984817,-0.7,0.0,1.0,478.0,883.0,1.0,0,329.0,1
579,579,-0.6419980886816863,-0.6,1.0,0.0,389.0,515.0,0.0,0,116.0,1
580,580,-0.7988565529353482,-0.8,0.0,1.0,297.0,728.0,1.0,0,75.0,1
581,581,0.6648090968240087,0.7,1.0,1.0,405.0,690.0,1.0,1,305.0,1
582,582,0.3959621406230668,0.4,1.0,1.0,393.0,947.0,1.0,1,790.0,1
583,583,-0.5706888700778792,-0.6,1.0,0.0,370.0,606.0,0.0,0,124.0,1
584,584,-0.11885700743594174,-0.1,0.0,1.0,384.0,899.0,1.0,0,407.0,1
585,585,-0.7511283076823437,-0.8,1.0,0.0,379.0,878.0,0.0,0,223.0,1
586,586,0.6141416722478356,0.6,0.0,0.0,319.0,987.0,0.0,1,134.0,1
587,587,-0.6343661614994398,-0.6,0.0,1.0,494.0,916.0,1.0,0,180.0,1
588,588,-0.19548437106094763,-0.2,0.0,1.0,367.0,981.0,0.0,1,112.0,0
589,589,-0.7927382299903577,-0.8,1.0,0.0,322.0,855.0,1.0,1,163.0,0
590,590,-0.16515266203504364,-0.2,1.0,0.0,295.0,619.0,0.0,0,1036.0,1
591,591,0.6169483385183413,0.6,1.0,1.0,311.0,656.0,1.0,1,433.0,1
592,592,-0.3284689797449871,-0.3,0.0,1.0,483.0,539.0,1.0,0,298.0,1
593,593,0.2534495707398109,0.3,0.0,0.0,392.0,909.0,0.0,1,569.0,1
594,594,-0.07491655077263593,-0.1,1.0,0.0,389.0,837.0,0.0,0,374.0,1
595,595,0.7064037993908524,0.7,0.0,0.0,320.0,833.0,0.0,1,167.0,1
596,596,0.24069094353643516,0.2,0.0,0.0,478.0,615.0,0.0,1,177.0,1
597,597,0.5408884262465411,0.5,1.0,1.0,406.0,533.0,1.0,1,241.0,1
598,598,0.5369877603674137,0.5,0.0,0.0,289.0,582.0,0.0,1,179.0,1
599,599,0.06144073349048673,0.1,0.0,0.0,338.0,891.0,0.0,1,221.0,1
600,600,-0.22010204955864987,-0.2,1.0,0.0,422.0,991.0,0.0,0,237.0,1
601,601,0.2672506244099594,0.3,0.0,0.0,452.0,893.0,0.0,1,95.0,1
602,602,0.7878309595587795,0.8,0.0,0.0,392.0,866.0,0.0,1,282.0,1
603,603,0.046239003163794035,0.0,0.0,0.0,263.0,701.0,0.0,1,596.0,1
604,604,-0.6407250137398108,-0.6,1.0,0.0,263.0,936.0,0.0,0,261.0,1
605,605,-0.8537046110691235,-0.9,1.0,0.0,455.0,582.0,0.0,0,203.0,1
606,606,0.19953244442631013,0.2,0.0,0.0,408.0,548.0,0.0,1,384.0,1
607,607,0.5952679200288941,0.6,0.0,0.0,421.0,596.0,0.0,1,273.0,1
608,608,0.011985907344920221,0.0,1.0,1.0,398.0,869.0,1.0,1,973.0,1
609,609,0.6776536954827791,0.7,1.0,1.0,332.0,782.0,1.0,1,306.0,1
610,610,0.3294622759476987,0.3,0.0,0.0,413.0,816.0,0.0,1,111.0,1
611,611,0.7597642487451112,0.8,0.0,0.0,316.0,715.0,0.0,1,89.0,1
612,612,0.43853757890316414,0.4,0.0,0.0,348.0,868.0,0.0,1,254.0,1
613,613,-0.026028203961009688,-0.0,0.0,1.0,347.0,962.0,1.0,0,221.0,1
614,614,0.7396842602721466,0.7,1.0,1.0,269.0,855.0,1.0,1,406.0,1
615,615,0.4287518951453785,0.4,1.0,1.0,449.0,979.0,1.0,1,192.0,1
616,616,0.47463003978184426,0.5,1.0,1.0,309.0,849.0,1.0,1,132.0,1
617,617,-0.8490727466676169,-0.8,1.0,0.0,477.0,959.0,0.0,0,344.0,1
618,618,0.831023207282286,0.8,0.0,0.0,367.0,792.0,0.0,1,111.0,1
619,619,0.6805133713196493,0.7,0.0,0.0,250.0,668.0,0.0,1,362.0,1
620,620,-0.17666489333511115,-0.2,0.0,1.0,466.0,829.0,1.0,0,975.0,1
621,621,0.6594939817263182,0.7,0.0,0.0,446.0,876.0,0.0,1,228.0,1
622,622,0.8564948603246644,0.9,0.0,0.0,387.0,844.0,0.0,1,69.0,1
623,623,-0.20566789996321877,-0.2,0.0,1.0,387.0,761.0,1.0,0,212.0,1
624,624,-0.7807513839491862,-0.8,1.0,0.0,459.0,656.0,0.0,0,135.0,1
625,625,-0.6852541405292938,-0.7,0.0,1.0,422.0,564.0,1.0,0,224.0,1
626,626,0.5924716821381167,0.6,0.0,0.0,308.0,991.0,1.0,0,31.0,0
627,627,0.7863162171395718,0.8,0.0,0.0,336.0,789.0,0.0,1,155.0,1
628,628,-0.2258432124560249,-0.2,1.0,0.0,363.0,918.0,0.0,0,59.0,1
629,629,0.22708806122327652,0.2,1.0,1.0,312.0,863.0,0.0,0,205.0,0
630,630,0.766263648306229,0.8,0.0,0.0,307.0,760.0,0.0,1,183.0,1
631,631,-0.4772654457483512,-0.5,1.0,0.0,466.0,900.0,0.0,0,404.0,1
632,632,-0.7977951723460459,-0.8,0.0,1.0,256.0,898.0,1.0,0,86.0,1
633,633,0.4567092351578642,0.5,0.0,0.0,450.0,951.0,0.0,1,239.0,1
634,634,-0.645133813613874,-0.6,0.0,1.0,398.0,994.0,1.0,0,128.0,1
635,635,0.32646326017513216,0.3,0.0,0.0,320.0,916.0,0.0,1,404.0,1
636,636,-0.09343789367923283,-0.1,1.0,0.0,485.0,804.0,0.0,0,791.0,1
637,637,-0.7432461140619132,-0.7,0.0,1.0,389.0,507.0,1.0,0,204.0,1
638,638,0.4054113304382082,0.4,0.0,0.0,462.0,846.0,0.0,1,222.0,1
639,639,-0.8532068563840712,-0.9,1.0,0.0,278.0,953.0,0.0,0,219.0,1
640,640,-0.4036310483428745,-0.4,1.0,0.0,337.0,530.0,0.0,0,233.0,1
641,641,0.5318990215174259,0.5,1.0,1.0,306.0,987.0,1.0,1,297.0,1
642,642,0.6736645840143273,0.7,1.0,1.0,477.0,540.0,1.0,1,373.0,1
643,643,-0.27938256584290044,-0.3,1.0,0.0,425.0,919.0,0.0,0,1756.0,1
644,644,0.7656665283677814,0.8,0.0,0.0,490.0,621.0,0.0,1,219.0,1
645,645,-0.4865419661878729,-0.5,0.0,1.0,473.0,960.0,1.0,0,107.0,1
646,646,-0.24362385864789549,-0.2,0.0,1.0,439.0,716.0,1.0,0,515.0,1
647,647,-0.5941192045684165,-0.6,0.0,1.0,340.0,774.0,1.0,0,316.0,1
648,648,0.42238175756257623,0.4,1.0,1.0,274.0,881.0,1.0,1,155.0,1
649,649,-0.4297681645502608,-0.4,1.0,0.0,380.0,883.0,0.0,0,187.0,1
650,650,-0.48211317250159175,-0.5,1.0,0.0,351.0,699.0,0.0,0,100.0,1
651,651,0.22393748788363455,0.2,0.0,0.0,406.0,501.0,0.0,1,303.0,1
652,652,0.2464570913869889,0.2,1.0,1.0,355.0,727.0,0.0,0,318.0,0
653,653,-0.14475581967449713,-0.1,1.0,0.0,401.0,900.0,1.0,1,199.0,0
654,654,-0.8263206970135756,-0.8,0.0,1.0,285.0,914.0,0.0,1,61.0,0
655,655,0.7494478051246339,0.7,0.0,0.0,393.0,845.0,0.0,1,142.0,1
656,656,-0.2688830874754148,-0.3,0.0,1.0,409.0,539.0,1.0,0,422.0,1
657,657,0.14880197246362215,0.1,0.0,0.0,382.0,636.0,0.0,1,142.0,1
658,658,0.5100721813441155,0.5,0.0,0.0,385.0,816.0,0.0,1,839.0,1
659,659,0.8237155223114926,0.8,0.0,0.0,386.0,930.0,0.0,1,264.0,1
660,660,-0.0489675932578727,-0.0,0.0,1.0,316.0,675.0,1.0,0,59.0,1
661,661,-0.49674547028211735,-0.5,0.0,1.0,394.0,770.0,1.0,0,176.0,1
662,662,0.07155290543601989,0.1,0.0,0.0,350.0,605.0,1.0,0,55.0,0
663,663,-0.2058714446746509,-0.2,1.0,0.0,419.0,699.0,0.0,0,92.0,1
664,664,0.6185231987054051,0.6,1.0,1.0,261.0,604.0,1.0,1,725.0,1
665,665,-0.6745609929312667,-0.7,0.0,1.0,408.0,670.0,1.0,0,672.0,1
666,666,-0.6074892944706558,-0.6,0.0,1.0,342.0,807.0,1.0,0,321.0,1
667,667,-0.6033157340521136,-0.6,1.0,0.0,388.0,540.0,0.0,0,242.0,1
668,668,-0.4314368942156214,-0.4,0.0,1.0,297.0,605.0,1.0,0,78.0,1
669,669,-0.38331182927944785,-0.4,1.0,0.0,364.0,635.0,0.0,0,441.0,1
670,670,0.3534854998900788,0.4,0.0,0.0,484.0,557.0,0.0,1,449.0,1
671,671,0.2632014678466025,0.3,0.0,0.0,350.0,962.0,0.0,1,148.0,1
672,672,0.3098265773445713,0.3,0.0,0.0,464.0,528.0,0.0,1,498.0,1
673,673,0.4981153634254668,0.5,1.0,1.0,414.0,914.0,1.0,1,482.0,1
674,674,-0.04148344558964534,-0.0,0.0,1.0,385.0,657.0,0.0,1,1088.0,0
675,675,0.24631701881675838,0.2,0.0,0.0,368.0,839.0,0.0,1,983.0,1
676,676,-0.862842522564752,-0.9,1.0,0.0,347.0,685.0,0.0,0,148.0,1
677,677,0.6852306220905914,0.7,0.0,0.0,324.0,747.0,0.0,1,199.0,1
678,678,0.3637431242489576,0.4,0.0,0.0,299.0,641.0,1.0,0,60.0,0
679,679,-0.3016250348924283,-0.3,1.0,0.0,388.0,785.0,0.0,0,367.0,1
680,680,-0.8209908157854884,-0.8,1.0,0.0,271.0,945.0,0.0,0,104.0,1
681,681,-0.7551568657096934,-0.8,0.0,1.0,440.0,859.0,1.0,0,231.0,1
682,682,0.6691776033622964,0.7,0.0,0.0,372.0,823.0,0.0,1,165.0,1
683,683,-0.6027305886029024,-0.6,1.0,0.0,316.0,757.0,0.0,0,277.0,1
684,684,0.18072775068440328,0.2,0.0,0.0,488.0,943.0,0.0,1,409.0,1
685,685,-0.20416269430178347,-0.2,1.0,0.0,391.0,837.0,0.0,0,122.0,1
686,686,-0.2850841172918843,-0.3,1.0,0.0,474.0,576.0,0.0,0,380.0,1
687,687,0.13972216295507522,0.1,0.0,0.0,370.0,948.0,0.0,1,3682.0,1
688,688,0.23985044774220132,0.2,0.0,0.0,370.0,620.0,0.0,1,170.0,1
689,689,-0.6902642473521858,-0.7,0.0,1.0,400.0,882.0,1.0,0,128.0,1
690,690,0.3235029585194217,0.3,1.0,1.0,479.0,958.0,1.0,1,563.0,1
691,691,0.40559814367847424,0.4,0.0,0.0,482.0,710.0,0.0,1,218.0,1
692,692,-0.8016488689507327,-0.8,1.0,0.0,263.0,514.0,0.0,0,73.0,1
693,693,-0.38343671981118466,-0.4,1.0,0.0,365.0,573.0,0.0,0,422.0,1
694,694,0.5813066444608389,0.6,0.0,0.0,391.0,769.0,0.0,1,420.0,1
695,695,-0.24747327597782198,-0.2,1.0,0.0,444.0,816.0,0.0,0,340.0,1
696,696,-0.6002861928354751,-0.6,0.0,1.0,420.0,834.0,1.0,0,156.0,1
697,697,-0.33478298437609477,-0.3,1.0,0.0,428.0,952.0,0.0,0,310.0,1
698,698,-0.2803855007022742,-0.3,0.0,1.0,348.0,522.0,1.0,0,450.0,1
699,699,0.7649632923658375,0.8,1.0,1.0,465.0,952.0,1.0,1,243.0,1
700,700,0.6012088365379625,0.6,0.0,0.0,499.0,965.0,0.0,1,86.0,1
701,701,0.15762580351941213,0.2,0.0,0.0,284.0,528.0,0.0,1,558.0,1
702,702,-0.05444169886377759,-0.1,0.0,1.0,276.0,904.0,1.0,0,1160.0,1
703,703,0.7553077514546215,0.8,0.0,0.0,427.0,653.0,0.0,1,120.0,1
704,704,-0.582235892140234,-0.6,0.0,1.0,287.0,657.0,1.0,0,306.0,1
705,705,0.4347387087845759,0.4,1.0,1.0,402.0,695.0,1.0,1,273.0,1
706,706,0.06579868286368118,0.1,1.0,1.0,409.0,576.0,0.0,0,1295.0,0
707,707,-0.011240632703436892,-0.0,1.0,0.0,349.0,682.0,0.0,0,479.0,1
708,708,0.01520130526666641,0.0,1.0,1.0,380.0,914.0,0.0,0,366.0,0
709,709,0.3008399922188739,0.3,0.0,0.0,259.0,688.0,0.0,1,293.0,1
710,710,0.24767634589442877,0.2,1.0,1.0,386.0,746.0,1.0,1,668.0,1
711,711,0.5421702954931272,0.5,0.0,0.0,370.0,524.0,0.0,1,276.0,1
712,712,0.2577915104268548,0.3,1.0,1.0,343.0,825.0,1.0,1,612.0,1
713,713,0.5774685629496773,0.6,0.0,0.0,495.0,989.0,0.0,1,36.0,1
714,714,-0.5242276975090874,-0.5,0.0,1.0,284.0,991.0,1.0,0,295.0,1
715,715,0.801074220449871,0.8,1.0,1.0,484.0,628.0,1.0,1,288.0,1
716,716,-0.6796122478577892,-0.7,0.0,1.0,444.0,667.0,1.0,0,329.0,1
717,717,-0.8436522611974114,-0.8,1.0,0.0,273.0,918.0,0.0,0,259.0,1
718,718,-0.7248892904707829,-0.7,0.0,1.0,456.0,561.0,1.0,0,283.0,1
719,719,-0.21127978088165178,-0.2,0.0,1.0,295.0,501.0,1.0,0,404.0,1
720,720,-0.6204149094364435,-0.6,1.0,0.0,325.0,732.0,0.0,0,73.0,1
721,721,-0.6566633620205303,-0.7,1.0,0.0,428.0,916.0,0.0,0,376.0,1
722,722,0.3645842658953332,0.4,0.0,0.0,421.0,767.0,0.0,1,242.0,1
723,723,-0.17127209291057877,-0.2,0.0,1.0,314.0,933.0,1.0,0,1203.0,1
724,724,-0.48083644861759844,-0.5,1.0,0.0,434.0,701.0,0.0,0,305.0,1
725,725,-0.6456361095242146,-0.6,0.0,1.0,281.0,975.0,1.0,0,214.0,1
726,726,0.18660620200397038,0.2,0.0,0.0,428.0,998.0,1.0,0,54.0,0
727,727,-0.6677633670301393,-0.7,0.0,1.0,399.0,702.0,1.0,0,259.0,1
728,728,0.29169311122207764,0.3,1.0,1.0,343.0,805.0,1.0,1,102.0,1
729,729,-0.3241361601642391,-0.3,1.0,0.0,422.0,970.0,0.0,0,288.0,1
730,730,-0.5998933922835517,-0.6,0.0,1.0,432.0,887.0,1.0,0,51.0,1
731,731,0.0033140545473003824,0.0,0.0,0.0,406.0,503.0,1.0,0,261.0,0
732,732,-0.3164798382408225,-0.3,1.0,0.0,344.0,853.0,0.0,0,333.0,1
733,733,0.6639453572494459,0.7,0.0,0.0,461.0,665.0,0.0,1,284.0,1
734,734,0.6694884840441265,0.7,1.0,1.0,346.0,567.0,1.0,1,307.0,1
735,735,0.6448890624236777,0.6,1.0,1.0,445.0,642.0,1.0,1,343.0,1
736,736,-0.258916286539571,-0.3,1.0,0.0,386.0,570.0,0.0,0,164.0,1
737,737,0.22468231379199988,0.2,1.0,1.0,456.0,570.0,1.0,1,774.0,1
738,738,-0.8944051989552536,-0.9,1.0,0.0,349.0,560.0,0.0,0,551.0,1
739,739,0.70062255597557,0.7,0.0,0.0,269.0,760.0,0.0,1,421.0,1
740,740,-0.552603167401963,-0.6,1.0,0.0,373.0,577.0,0.0,0,320.0,1
741,741,-0.3769700282130213,-0.4,0.0,1.0,368.0,848.0,1.0,0,404.0,1
742,742,0.26360982789548537,0.3,1.0,1.0,442.0,775.0,0.0,0,193.0,0
743,743,-0.4192306679877296,-0.4,0.0,1.0,478.0,595.0,0.0,1,27.0,0
744,744,-0.46456901469786227,-0.5,1.0,0.0,310.0,857.0,0.0,0,63.0,1
745,745,-0.10679286875723448,-0.1,0.0,1.0,310.0,604.0,1.0,0,796.0,1
746,746,-0.8551590065090917,-0.9,0.0,1.0,283.0,701.0,1.0,0,106.0,1
747,747,0.4132539993864214,0.4,1.0,1.0,492.0,845.0,1.0,1,73.0,1
748,748,0.6105576612646432,0.6,1.0,1.0,272.0,991.0,1.0,1,637.0,1
749,749,0.4617632003067308,0.5,1.0,1.0,481.0,632.0,1.0,1,487.0,1
750,750,0.8732173836409299,0.9,1.0,1.0,355.0,541.0,1.0,1,264.0,1
751,751,-0.6745643488085488,-0.7,1.0,0.0,401.0,538.0,0.0,0,231.0,1
752,752,-0.32076107760862094,-0.3,1.0,0.0,254.0,998.0,0.0,0,238.0,1
753,753,0.20182574868844327,0.2,1.0,1.0,450.0,711.0,1.0,1,39.0,1
754,754,0.048976727631327543,0.0,1.0,1.0,273.0,641.0,1.0,1,2156.0,1
755,755,0.7868998474049959,0.8,0.0,0.0,490.0,838.0,0.0,1,62.0,1
756,756,-0.3636965378191088,-0.4,1.0,0.0,495.0,645.0,0.0,0,270.0,1
757,757,-0.45434889706782655,-0.5,1.0,0.0,307.0,943.0,0.0,0,120.0,1
758,758,-0.7511823955371969,-0.8,1.0,0.0,267.0,567.0,0.0,0,276.0,1
759,759,-0.2889736189588482,-0.3,0.0,1.0,296.0,596.0,1.0,0,1618.0,1
760,760,0.5417974345816622,0.5,1.0,1.0,479.0,649.0,1.0,1,512.0,1
761,761,-0.41356453470038007,-0.4,0.0,1.0,418.0,597.0,1.0,0,185.0,1
762,762,-0.650941903138955,-0.7,1.0,0.0,388.0,632.0,0.0,0,170.0,1
763,763,0.8309031515371391,0.8,0.0,0.0,359.0,905.0,0.0,1,256.0,1
764,764,-0.5448452814787679,-0.5,1.0,0.0,258.0,866.0,0.0,0,106.0,1
765,765,-0.0717881419327161,-0.1,0.0,1.0,333.0,875.0,1.0,0,792.0,1
766,766,-0.6418656060788897,-0.6,0.0,1.0,265.0,708.0,1.0,0,247.0,1
767,767,-0.49995158070604995,-0.5,1.0,0.0,396.0,842.0,0.0,0,272.0,1
768,768,-0.8376141733901169,-0.8,0.0,1.0,264.0,987.0,1.0,0,209.0,1
769,769,-0.36893305538176546,-0.4,1.0,0.0,416.0,626.0,0.0,0,338.0,1
770,770,0.08229895048539082,0.1,1.0,1.0,384.0,856.0,1.0,1,3060.0,1
771,771,-0.03158987078760811,-0.0,0.0,1.0,461.0,542.0,0.0,1,877.0,0
772,772,0.7589710501637627,0.8,1.0,1.0,353.0,748.0,1.0,1,349.0,1
773,773,0.6839886915612773,0.7,0.0,0.0,393.0,571.0,0.0,1,266.0,1
774,774,0.06517169397253209,0.1,1.0,1.0,364.0,967.0,1.0,1,319.0,1
775,775,0.03048512663352898,0.0,0.0,0.0,259.0,818.0,1.0,0,203.0,0
776,776,-0.04088684916185392,-0.0,0.0,1.0,286.0,695.0,1.0,0,169.0,1
777,777,0.2343330385664747,0.2,1.0,1.0,376.0,962.0,1.0,1,72.0,1
778,778,-0.7181553880102824,-0.7,1.0,0.0,442.0,533.0,0.0,0,355.0,1
779,779,-0.8833100876504077,-0.9,1.0,0.0,264.0,506.0,0.0,0,330.0,1
780,780,-0.8594097835191854,-0.9,0.0,1.0,378.0,803.0,1.0,0,299.0,1
781,781,-0.3763934362652166,-0.4,1.0,0.0,265.0,860.0,0.0,0,55.0,1
782,782,0.35317080868319495,0.4,0.0,0.0,478.0,763.0,0.0,1,309.0,1
783,783,0.05669329254646338,0.1,0.0,0.0,355.0,609.0,0.0,1,1586.0,1
784,784,-0.8602134982999913,-0.9,1.0,0.0,255.0,612.0,0.0,0,23.0,1
785,785,0.5504967861044431,0.6,0.0,0.0,314.0,847.0,0.0,1,139.0,1
786,786,-0.09195215997930706,-0.1,0.0,1.0,335.0,836.0,1.0,0,1529.0,1
787,787,0.8955040242821756,0.9,0.0,0.0,414.0,591.0,0.0,1,225.0,1
788,788,0.6295918762886746,0.6,1.0,1.0,394.0,565.0,1.0,1,261.0,1
789,789,-0.2738631972364107,-0.3,0.0,1.0,314.0,975.0,1.0,0,401.0,1
790,790,-0.09311783162917986,-0.1,1.0,0.0,300.0,819.0,0.0,0,451.0,1
791,791,-0.05882589541428496,-0.1,1.0,0.0,492.0,770.0,0.0,0,808.0,1
792,792,-0.16949312867055988,-0.2,0.0,1.0,272.0,661.0,1.0,0,347.0,1
793,793,-0.2642658035510955,-0.3,1.0,0.0,264.0,858.0,0.0,0,848.0,1
794,794,-0.16293994140398205,-0.2,0.0,1.0,431.0,516.0,1.0,0,473.0,1
795,795,0.3778614039865863,0.4,0.0,0.0,372.0,937.0,0.0,1,91.0,1
796,796,-0.2568526277524559,-0.3,0.0,1.0,383.0,911.0,1.0,0,406.0,1
797,797,0.3290908968724048,0.3,1.0,1.0,400.0,750.0,1.0,1,310.0,1
798,798,0.1412233256655352,0.1,0.0,0.0,458.0,831.0,0.0,1,441.0,1
799,799,-0.8920327736184667,-0.9,1.0,0.0,374.0,792.0,0.0,0,224.0,1
800,800,-0.11163644489361146,-0.1,1.0,0.0,398.0,533.0,0.0,0,469.0,1
801,801,0.4339484465132425,0.4,1.0,1.0,306.0,797.0,1.0,1,527.0,1
802,802,0.5229612297002374,0.5,1.0,1.0,427.0,876.0,1.0,1,587.0,1
803,803,0.49557533379534824,0.5,1.0,1.0,436.0,636.0,1.0,1,468.0,1
804,804,-0.08641144662286726,-0.1,1.0,0.0,486.0,729.0,0.0,0,785.0,1
805,805,0.44950693369089734,0.4,1.0,1.0,345.0,761.0,1.0,1,84.0,1
806,806,-0.5076411414856199,-0.5,0.0,1.0,344.0,752.0,1.0,0,124.0,1
807,807,-0.13013892124873372,-0.1,0.0,1.0,393.0,992.0,1.0,0,535.0,1
808,808,-0.39051291883290395,-0.4,1.0,0.0,435.0,697.0,0.0,0,388.0,1
809,809,0.33478309559258335,0.3,0.0,0.0,316.0,961.0,0.0,1,223.0,1
810,810,-0.20214236657722595,-0.2,0.0,1.0,353.0,731.0,1.0,0,1566.0,1
811,811,-0.6702448775446018,-0.7,1.0,0.0,349.0,818.0,0.0,0,153.0,1
812,812,0.2587734118069457,0.3,1.0,1.0,354.0,942.0,1.0,1,84.0,1
813,813,0.7396819173439771,0.7,1.0,1.0,255.0,920.0,1.0,1,225.0,1
814,814,-0.624284157875894,-0.6,0.0,1.0,258.0,997.0,1.0,0,135.0,1
815,815,0.01952031116201891,0.0,0.0,0.0,304.0,629.0,1.0,0,1357.0,0
816,816,0.8405068941285857,0.8,0.0,0.0,376.0,707.0,1.0,0,-543.0,0
817,817,-0.8045074873604625,-0.8,1.0,0.0,427.0,926.0,0.0,0,157.0,1
818,818,-0.7900561850184725,-0.8,0.0,1.0,360.0,883.0,1.0,0,207.0,1
819,819,0.6909453938303541,0.7,1.0,1.0,291.0,685.0,1.0,1,344.0,1
820,820,0.21284019756342054,0.2,0.0,0.0,300.0,600.0,0.0,1,890.0,1
821,821,-0.10920611223118037,-0.1,0.0,1.0,454.0,951.0,0.0,1,65.0,0
822,822,-0.3961925425416236,-0.4,0.0,1.0,264.0,619.0,0.0,1,137.0,0
823,823,0.6044252214710465,0.6,0.0,0.0,465.0,568.0,0.0,1,227.0,1
824,824,-0.48158277008833617,-0.5,1.0,0.0,360.0,640.0,0.0,0,330.0,1
825,825,0.7978500393211093,0.8,1.0,1.0,276.0,923.0,1.0,1,131.0,1
826,826,0.21014284713918208,0.2,0.0,0.0,489.0,573.0,0.0,1,238.0,1
827,827,0.4991007475405994,0.5,1.0,1.0,438.0,890.0,1.0,1,352.0,1
828,828,0.43283198684108026,0.4,0.0,0.0,270.0,771.0,0.0,1,259.0,1
829,829,0.5202052664845612,0.5,0.0,0.0,439.0,734.0,0.0,1,327.0,1
830,830,0.6101619669798778,0.6,1.0,1.0,323.0,719.0,1.0,1,238.0,1
831,831,0.27545233287453275,0.3,0.0,0.0,397.0,985.0,0.0,1,288.0,1
832,832,0.48072673126501775,0.5,1.0,1.0,419.0,605.0,1.0,1,406.0,1
833,833,-0.19650812148364194,-0.2,0.0,1.0,339.0,967.0,1.0,0,464.0,1
834,834,0.07294232408387635,0.1,1.0,1.0,251.0,795.0,1.0,1,594.0,1
835,835,-0.1535648713869472,-0.2,1.0,0.0,312.0,722.0,0.0,0,86.0,1
836,836,0.23809734673808614,0.2,1.0,1.0,260.0,657.0,1.0,1,303.0,1
837,837,-0.443717776160842,-0.4,1.0,0.0,268.0,929.0,0.0,0,333.0,1
838,838,-0.685889975198912,-0.7,1.0,0.0,493.0,864.0,0.0,0,193.0,1
839,839,-0.5563532493690797,-0.6,1.0,0.0,351.0,818.0,0.0,0,141.0,1
840,840,-0.8106296983682495,-0.8,1.0,0.0,418.0,797.0,0.0,0,425.0,1
841,841,-0.2791969609842265,-0.3,1.0,0.0,465.0,931.0,0.0,0,394.0,1
842,842,0.11081127220885112,0.1,0.0,0.0,267.0,571.0,0.0,1,312.0,1
843,843,0.42164986194584897,0.4,1.0,1.0,406.0,617.0,1.0,1,497.0,1
844,844,0.10894612838651685,0.1,1.0,1.0,400.0,969.0,1.0,1,311.0,1
845,845,0.3863243919339415,0.4,1.0,1.0,340.0,659.0,0.0,0,41.0,0
846,846,-0.38504896184860626,-0.4,0.0,1.0,359.0,544.0,1.0,0,347.0,1
847,847,-0.6844701503108099,-0.7,0.0,1.0,291.0,605.0,1.0,0,194.0,1
848,848,0.6020724112196955,0.6,0.0,0.0,396.0,651.0,0.0,1,163.0,1
849,849,-0.1137356175412888,-0.1,1.0,0.0,300.0,904.0,0.0,0,356.0,1
850,850,-0.17847578744117842,-0.2,1.0,0.0,391.0,657.0,0.0,0,912.0,1
851,851,0.7385886011227386,0.7,1.0,1.0,278.0,787.0,1.0,1,225.0,1
852,852,0.3407226880606974,0.3,0.0,0.0,401.0,873.0,0.0,1,296.0,1
853,853,0.2928507014706899,0.3,0.0,0.0,275.0,570.0,0.0,1,485.0,1
854,854,0.795515230490495,0.8,0.0,0.0,304.0,839.0,0.0,1,87.0,1
855,855,-0.319268700355577,-0.3,0.0,1.0,303.0,636.0,1.0,0,111.0,1
856,856,-0.7410364316130355,-0.7,0.0,1.0,413.0,942.0,1.0,0,95.0,1
857,857,-0.1406072869882249,-0.1,0.0,1.0,315.0,824.0,1.0,0,411.0,1
858,858,0.2021546386427976,0.2,1.0,1.0,378.0,676.0,1.0,1,696.0,1
859,859,-0.22111451884824673,-0.2,0.0,1.0,424.0,695.0,1.0,0,71.0,1
860,860,-0.26203596770656434,-0.3,0.0,1.0,431.0,674.0,1.0,0,225.0,1
861,861,0.036459457125210704,0.0,0.0,0.0,367.0,623.0,0.0,1,500.0,1
862,862,0.04231587549537963,0.0,1.0,1.0,301.0,834.0,0.0,0,285.0,0
863,863,0.19871177258855688,0.2,1.0,1.0,419.0,587.0,1.0,1,374.0,1
864,864,-0.3888787345625059,-0.4,1.0,0.0,348.0,909.0,0.0,0,253.0,1
865,865,0.029049011829821336,0.0,1.0,1.0,288.0,535.0,1.0,1,1307.0,1
866,866,-0.6704412918487587,-0.7,1.0,0.0,437.0,806.0,0.0,0,307.0,1
867,867,0.5515444676533517,0.6,0.0,0.0,276.0,591.0,0.0,1,223.0,1
868,868,0.13102459180841486,0.1,0.0,0.0,392.0,779.0,0.0,1,219.0,1
869,869,0.5201758450370483,0.5,0.0,0.0,406.0,748.0,0.0,1,1126.0,1
870,870,0.07086602487297788,0.1,1.0,1.0,268.0,713.0,1.0,1,699.0,1
871,871,0.19710351344742116,0.2,0.0,0.0,263.0,817.0,0.0,1,660.0,1
872,872,-0.18224591012750901,-0.2,0.0,1.0,380.0,872.0,1.0,0,498.0,1
873,873,-0.28875845139138634,-0.3,0.0,1.0,286.0,669.0,1.0,0,445.0,1
874,874,0.5690301396189582,0.6,0.0,0.0,460.0,754.0,0.0,1,116.0,1
875,875,0.7834401785734059,0.8,0.0,0.0,377.0,545.0,0.0,1,238.0,1
876,876,0.6758319585896152,0.7,1.0,1.0,347.0,512.0,1.0,1,241.0,1
877,877,-0.09300858815607149,-0.1,0.0,1.0,485.0,784.0,1.0,0,121.0,1
878,878,-0.6780018667884093,-0.7,0.0,1.0,312.0,507.0,1.0,0,161.0,1
879,879,-0.41017972160790933,-0.4,1.0,0.0,354.0,917.0,0.0,0,139.0,1
880,880,0.4633304312316552,0.5,0.0,0.0,435.0,828.0,0.0,1,407.0,1
881,881,-0.5069217532120561,-0.5,0.0,1.0,472.0,917.0,1.0,0,171.0,1
882,882,0.43835879939865496,0.4,0.0,0.0,484.0,561.0,0.0,1,165.0,1
883,883,0.09313181148733773,0.1,0.0,0.0,357.0,811.0,0.0,1,252.0,1
884,884,-0.7873571977009551,-0.8,0.0,1.0,326.0,553.0,1.0,0,151.0,1
885,885,-0.24008420928587915,-0.2,0.0,1.0,275.0,990.0,1.0,0,295.0,1
886,886,0.8062649253081181,0.8,0.0,0.0,405.0,868.0,0.0,1,187.0,1
887,887,-0.36855597324733336,-0.4,1.0,0.0,484.0,880.0,0.0,0,236.0,1
888,888,-0.34997878612431244,-0.3,1.0,0.0,451.0,666.0,0.0,0,353.0,1
889,889,-0.411003235643082,-0.4,0.0,1.0,355.0,550.0,1.0,0,385.0,1
890,890,-0.7332415414287088,-0.7,1.0,0.0,434.0,866.0,0.0,0,350.0,1
891,891,-0.027781164260298308,-0.0,1.0,0.0,388.0,655.0,0.0,0,427.0,1
892,892,-0.419049521280562,-0.4,1.0,0.0,355.0,858.0,0.0,0,447.0,1
893,893,-0.022226757406151543,-0.0,0.0,1.0,425.0,744.0,1.0,0,81.0,1
894,894,-0.634393856664893,-0.6,1.0,0.0,372.0,962.0,0.0,0,236.0,1
895,895,0.6467580612935936,0.6,1.0,1.0,382.0,578.0,0.0,0,-40.0,0
896,896,-0.6753643620746544,-0.7,1.0,0.0,378.0,591.0,0.0,0,251.0,1
897,897,0.13153872499126484,0.1,1.0,1.0,283.0,964.0,1.0,1,1313.0,1
898,898,0.31890091825463307,0.3,1.0,1.0,371.0,774.0,1.0,1,395.0,1
899,899,0.617098403496322,0.6,0.0,0.0,262.0,560.0,0.0,1,358.0,1
900,900,-0.3903863427502373,-0.4,1.0,0.0,493.0,910.0,0.0,0,77.0,1
901,901,0.17135119281692524,0.2,1.0,1.0,389.0,854.0,1.0,1,347.0,1
902,902,0.16414610584830902,0.2,0.0,0.0,327.0,791.0,0.0,1,-298.0,1
903,903,0.7855286225972252,0.8,0.0,0.0,266.0,820.0,0.0,1,234.0,1
904,904,-0.6698034144717233,-0.7,1.0,0.0,469.0,644.0,0.0,0,277.0,1
905,905,-0.8177654038583106,-0.8,0.0,1.0,495.0,767.0,1.0,0,138.0,1
906,906,-0.8121459845388089,-0.8,1.0,0.0,425.0,747.0,0.0,0,188.0,1
907,907,-0.3836453632328054,-0.4,1.0,0.0,488.0,748.0,0.0,0,204.0,1
908,908,-0.1257208978963723,-0.1,1.0,0.0,488.0,875.0,0.0,0,287.0,1
909,909,-0.18143757363576263,-0.2,0.0,1.0,477.0,926.0,1.0,0,747.0,1
910,910,0.7312954480967185,0.7,1.0,1.0,336.0,844.0,1.0,1,290.0,1
911,911,0.7686412718660286,0.8,1.0,1.0,310.0,642.0,1.0,1,198.0,1
912,912,-0.09820237696440115,-0.1,0.0,1.0,489.0,759.0,1.0,0,1352.0,1
913,913,0.227808320148419,0.2,1.0,1.0,344.0,687.0,1.0,1,459.0,1
914,914,0.25715534134656626,0.3,0.0,0.0,333.0,583.0,0.0,1,264.0,1
915,915,-0.5349360210706903,-0.5,1.0,0.0,338.0,683.0,0.0,0,209.0,1
916,916,0.5914315673742284,0.6,0.0,0.0,386.0,829.0,0.0,1,225.0,1
917,917,-0.253543486746283,-0.3,1.0,0.0,276.0,836.0,0.0,0,388.0,1
918,918,-0.1318977917613683,-0.1,0.0,1.0,317.0,809.0,1.0,0,684.0,1
919,919,0.09562470305379556,0.1,1.0,1.0,412.0,658.0,1.0,1,310.0,1
920,920,-0.36903045285987035,-0.4,0.0,1.0,337.0,703.0,1.0,0,320.0,1
921,921,-0.8673027979032212,-0.9,0.0,1.0,499.0,930.0,1.0,0,571.0,1
922,922,0.40461257584205945,0.4,0.0,0.0,430.0,914.0,0.0,1,446.0,1
923,923,0.2720274614557897,0.3,0.0,0.0,370.0,541.0,0.0,1,19.0,1
924,924,0.7331411705363665,0.7,1.0,1.0,255.0,712.0,1.0,1,243.0,1
925,925,0.3274090053551272,0.3,0.0,0.0,287.0,522.0,0.0,1,441.0,1
926,926,0.2775235658009868,0.3,0.0,0.0,418.0,856.0,0.0,1,2826.0,1
927,927,0.6492939718594256,0.6,0.0,0.0,460.0,839.0,0.0,1,131.0,1
928,928,-0.29924633529562705,-0.3,0.0,1.0,480.0,997.0,1.0,0,573.0,1
929,929,0.5179768473722629,0.5,1.0,1.0,364.0,711.0,1.0,1,445.0,1
930,930,0.6456510275015005,0.6,1.0,1.0,264.0,638.0,1.0,1,228.0,1
931,931,-0.6519614110848287,-0.7,0.0,1.0,423.0,857.0,1.0,0,220.0,1
932,932,0.8264546690331348,0.8,1.0,1.0,430.0,890.0,1.0,1,340.0,1
933,933,-0.5716803047699368,-0.6,1.0,0.0,253.0,977.0,0.0,0,200.0,1
934,934,-0.811944267344806,-0.8,0.0,1.0,421.0,952.0,1.0,0,277.0,1
935,935,-0.32659776053979805,-0.3,1.0,0.0,346.0,763.0,0.0,0,381.0,1
936,936,-0.44624829721834697,-0.4,1.0,0.0,251.0,518.0,0.0,0,351.0,1
937,937,0.2538628285201966,0.3,1.0,1.0,491.0,611.0,1.0,1,198.0,1
938,938,0.7272177751548329,0.7,1.0,1.0,382.0,913.0,1.0,1,305.0,1
939,939,0.8440390175751177,0.8,0.0,0.0,495.0,994.0,0.0,1,171.0,1
940,940,-0.6089434714987878,-0.6,1.0,0.0,363.0,787.0,0.0,0,250.0,1
941,941,-0.04374465692396323,-0.0,0.0,1.0,406.0,854.0,0.0,1,3740.0,0
942,942,0.8963643724934337,0.9,0.0,0.0,402.0,882.0,0.0,1,76.0,1
943,943,0.18588945318909633,0.2,0.0,0.0,271.0,839.0,0.0,1,170.0,1
944,944,-0.14153503230891973,-0.1,1.0,0.0,337.0,655.0,0.0,0,538.0,1
945,945,0.11956572418979328,0.1,1.0,1.0,280.0,678.0,1.0,1,202.0,1
946,946,-0.23408804107361247,-0.2,0.0,1.0,285.0,763.0,1.0,0,612.0,1
947,947,-0.10356411609453176,-0.1,0.0,1.0,294.0,958.0,1.0,0,988.0,1
948,948,-0.8032614953424329,-0.8,1.0,0.0,439.0,855.0,0.0,0,246.0,1
949,949,-0.17985393320421572,-0.2,1.0,0.0,358.0,894.0,0.0,0,978.0,1
950,950,-0.8622089118043033,-0.9,1.0,0.0,483.0,878.0,0.0,0,189.0,1
951,951,-0.22656019617354328,-0.2,0.0,1.0,437.0,630.0,1.0,0,73.0,1
952,952,0.1589829580997585,0.2,1.0,1.0,391.0,922.0,1.0,1,297.0,1
953,953,0.6164102740721632,0.6,0.0,0.0,462.0,851.0,0.0,1,297.0,1
954,954,-0.6505305348573431,-0.7,0.0,1.0,341.0,873.0,1.0,0,146.0,1
955,955,-0.25156771347005524,-0.3,1.0,0.0,301.0,859.0,0.0,0,330.0,1
956,956,-0.36685492469724024,-0.4,1.0,0.0,380.0,804.0,0.0,0,1106.0,1
957,957,0.645423902271525,0.6,1.0,1.0,439.0,880.0,1.0,1,351.0,1
958,958,0.238480602874373,0.2,1.0,1.0,338.0,657.0,1.0,1,165.0,1
959,959,0.25791060575549796,0.3,0.0,0.0,250.0,804.0,0.0,1,526.0,1
960,960,0.4223898315151561,0.4,0.0,0.0,445.0,844.0,0.0,1,191.0,1
961,961,0.39610474519024763,0.4,1.0,1.0,389.0,661.0,1.0,1,220.0,1
962,962,0.4696229304938403,0.5,1.0,1.0,475.0,717.0,1.0,1,298.0,1
963,963,-0.00023430795122425518,-0.0,0.0,1.0,312.0,723.0,1.0,0,285.0,1
964,964,0.4642003315687605,0.5,0.0,0.0,261.0,860.0,0.0,1,459.0,1
965,965,0.18300578285842228,0.2,1.0,1.0,388.0,791.0,0.0,0,221.0,0
966,966,-0.3546956872755058,-0.4,1.0,0.0,357.0,605.0,0.0,0,178.0,1
967,967,-0.19164934287804214,-0.2,0.0,1.0,450.0,900.0,1.0,0,190.0,1
968,968,0.2692136878822148,0.3,0.0,0.0,288.0,864.0,0.0,1,278.0,1
969,969,-0.2686981502171766,-0.3,1.0,0.0,305.0,562.0,1.0,1,583.0,0
970,970,-0.2183429751968392,-0.2,1.0,0.0,436.0,932.0,0.0,0,652.0,1
971,971,-0.8714218772978952,-0.9,0.0,1.0,253.0,948.0,1.0,0,149.0,1
972,972,0.25824117630786436,0.3,0.0,0.0,470.0,720.0,0.0,1,420.0,1
973,973,0.555886161712868,0.6,0.0,0.0,313.0,860.0,0.0,1,177.0,1
974,974,-0.3541933388829588,-0.4,1.0,0.0,277.0,872.0,0.0,0,361.0,1
975,975,0.8288701342255337,0.8,1.0,1.0,305.0,692.0,1.0,1,333.0,1
976,976,-0.5818480052078387,-0.6,0.0,1.0,260.0,575.0,1.0,0,175.0,1
977,977,-0.0577410767466382,-0.1,0.0,1.0,344.0,596.0,1.0,0,1380.0,1
978,978,-0.22951549008412708,-0.2,1.0,0.0,385.0,821.0,0.0,0,324.0,1
979,979,-0.01750156955116622,-0.0,0.0,1.0,301.0,609.0,0.0,1,300.0,0
980,980,0.3620317304208346,0.4,1.0,1.0,386.0,684.0,0.0,0,-500.0,0
981,981,-0.7847134167371599,-0.8,1.0,0.0,294.0,858.0,0.0,0,198.0,1
982,982,-0.3666521673261799,-0.4,1.0,0.0,363.0,883.0,0.0,0,354.0,1
983,983,0.20336650473323215,0.2,1.0,1.0,458.0,582.0,1.0,1,450.0,1
984,984,-0.1927276933790314,-0.2,0.0,1.0,494.0,764.0,1.0,0,282.0,1
985,985,0.6046337092182196,0.6,1.0,1.0,317.0,580.0,1.0,1,273.0,1
986,986,-0.4305911546320195,-0.4,0.0,1.0,380.0,683.0,1.0,0,107.0,1
987,987,-0.18699917612176786,-0.2,1.0,0.0,439.0,690.0,0.0,0,131.0,1
988,988,0.7488535357228577,0.7,0.0,0.0,483.0,709.0,0.0,1,218.0,1
989,989,0.8387102214434995,0.8,1.0,1.0,382.0,705.0,1.0,1,323.0,1
990,990,-0.04828019573911069,-0.0,0.0,1.0,387.0,661.0,0.0,1,822.0,0
991,991,-0.6299229925465684,-0.6,0.0,1.0,295.0,999.0,0.0,1,56.0,0
992,992,0.4560644414099123,0.5,1.0,1.0,271.0,842.0,1.0,1,507.0,1
993,993,0.2389554951213998,0.2,0.0,0.0,318.0,824.0,0.0,1,618.0,1
994,994,-0.8844033866103609,-0.9,0.0,1.0,399.0,691.0,1.0,0,100.0,1
995,995,0.7999971202321378,0.8,0.0,0.0,344.0,634.0,0.0,1,192.0,1
996,996,-0.899319145945294,-0.9,0.0,1.0,491.0,965.0,1.0,0,44.0,1
997,997,0.329700013369952,0.3,1.0,1.0,458.0,631.0,1.0,1,591.0,1
998,998,-0.790274080218032,-0.8,0.0,1.0,387.0,955.0,1.0,0,178.0,1
999,999,0.8302982443421166,0.8,0.0,0.0,255.0,609.0,0.0,1,236.0,1
1000,1000,0.4100987098852199,0.4,1.0,1.0,499.0,983.0,1.0,1,178.0,1
1001,1001,0.7027881862176312,0.7,0.0,0.0,344.0,634.0,0.0,1,152.0,1
1002,1002,0.2690650821948891,0.3,1.0,1.0,354.0,605.0,1.0,1,391.0,1
1003,1003,-0.584172438979297,-0.6,1.0,0.0,349.0,571.0,0.0,0,270.0,1
1004,1004,-0.011807466030226643,-0.0,1.0,0.0,458.0,875.0,1.0,1,417.0,0
1005,1005,0.03941412251624077,0.0,1.0,1.0,268.0,709.0,0.0,0,413.0,0
1006,1006,0.7515549791105355,0.8,0.0,0.0,464.0,505.0,0.0,1,131.0,1
1007,1007,-0.37370279718772037,-0.4,0.0,1.0,316.0,569.0,1.0,0,105.0,1
1008,1008,-0.8108310089823663,-0.8,0.0,1.0,465.0,736.0,1.0,0,139.0,1
1009,1009,0.7447471227643573,0.7,1.0,1.0,466.0,980.0,1.0,1,294.0,1
1010,1010,-0.8158445556317603,-0.8,1.0,0.0,300.0,621.0,0.0,0,119.0,1
1011,1011,-0.16349376417989914,-0.2,0.0,1.0,467.0,559.0,1.0,0,1844.0,1
1012,1012,-0.024601125039545813,-0.0,1.0,0.0,434.0,646.0,0.0,0,360.0,1
1013,1013,0.7811524399682809,0.8,0.0,0.0,429.0,908.0,0.0,1,163.0,1
1014,1014,-0.24813724942550996,-0.2,0.0,1.0,472.0,528.0,1.0,0,740.0,1
1015,1015,-0.5555757124328086,-0.6,1.0,0.0,443.0,623.0,0.0,0,474.0,1
1016,1016,0.4449736642487777,0.4,1.0,1.0,390.0,585.0,1.0,1,385.0,1
1017,1017,0.2823884918444114,0.3,0.0,0.0,377.0,777.0,0.0,1,376.0,1
1018,1018,0.11913807110783525,0.1,0.0,0.0,254.0,866.0,0.0,1,590.0,1
1019,1019,0.08854045973134295,0.1,0.0,0.0,476.0,970.0,0.0,1,1714.0,1
1020,1020,0.03523602658097447,0.0,1.0,1.0,296.0,924.0,0.0,0,240.0,0
1021,1021,-0.6983749687773254,-0.7,0.0,1.0,342.0,722.0,1.0,0,206.0,1
1022,1022,0.023091379244977617,0.0,0.0,0.0,421.0,823.0,0.0,1,1206.0,1
1023,1023,-0.8185820874479142,-0.8,0.0,1.0,317.0,504.0,1.0,0,129.0,1
1024,1024,-0.08488396680094679,-0.1,0.0,1.0,481.0,731.0,1.0,0,168.0,1
1025,1025,-0.8902118754689964,-0.9,1.0,0.0,333.0,748.0,0.0,0,279.0,1
1026,1026,-0.36632775215142754,-0.4,0.0,1.0,311.0,564.0,1.0,0,215.0,1
1027,1027,-0.5765787400726277,-0.6,1.0,0.0,412.0,841.0,0.0,0,187.0,1
1028,1028,-0.6337167719933545,-0.6,0.0,1.0,331.0,568.0,1.0,0,241.0,1
1029,1029,0.18638460333195883,0.2,0.0,0.0,498.0,632.0,0.0,1,170.0,1
1030,1030,-0.5993992774963215,-0.6,0.0,1.0,256.0,883.0,1.0,0,261.0,1
1031,1031,0.31506194721772685,0.3,1.0,1.0,272.0,693.0,1.0,1,465.0,1
1032,1032,-0.1978692548166121,-0.2,1.0,0.0,383.0,594.0,0.0,0,203.0,1
1033,1033,0.1735781279770342,0.2,0.0,0.0,436.0,787.0,0.0,1,357.0,1
1034,1034,-0.400844851470268,-0.4,1.0,0.0,493.0,974.0,0.0,0,133.0,1
1035,1035,-0.7478987880003821,-0.7,1.0,0.0,333.0,637.0,0.0,0,390.0,1
1036,1036,0.07828299485041335,0.1,0.0,0.0,269.0,812.0,0.0,1,49.0,1
1037,1037,-0.4514235380629052,-0.5,1.0,0.0,435.0,766.0,0.0,0,139.0,1
1038,1038,-0.1487303632339958,-0.1,0.0,1.0,258.0,771.0,1.0,0,161.0,1
1039,1039,-0.06014819944723748,-0.1,1.0,0.0,440.0,518.0,1.0,1,962.0,0
1040,1040,0.39360740148521456,0.4,1.0,1.0,443.0,597.0,1.0,1,720.0,1
1041,1041,0.4792009680466808,0.5,0.0,0.0,357.0,531.0,0.0,1,252.0,1
1042,1042,-0.8485562576106639,-0.8,1.0,0.0,329.0,764.0,0.0,0,307.0,1
1043,1043,-0.24941021534568153,-0.2,1.0,0.0,495.0,922.0,0.0,0,283.0,1
1044,1044,-0.3423402638599412,-0.3,0.0,1.0,408.0,580.0,0.0,1,92.0,0
1045,1045,0.29482904887956674,0.3,1.0,1.0,435.0,713.0,1.0,1,722.0,1
1046,1046,0.18985950138556695,0.2,1.0,1.0,428.0,795.0,1.0,1,307.0,1
1047,1047,0.4648489903805898,0.5,0.0,0.0,288.0,616.0,0.0,1,156.0,1
1048,1048,0.45131820003873113,0.5,0.0,0.0,411.0,812.0,0.0,1,187.0,1
1049,1049,-0.8926615097970351,-0.9,1.0,0.0,437.0,872.0,0.0,0,51.0,1
1050,1050,0.10338378376276591,0.1,1.0,1.0,414.0,795.0,0.0,0,281.0,0
1051,1051,-0.2384419693937042,-0.2,1.0,0.0,258.0,963.0,0.0,0,339.0,1
1052,1052,-0.4028414643486248,-0.4,1.0,0.0,474.0,870.0,0.0,0,36.0,1
1053,1053,-0.6767479623309458,-0.7,1.0,0.0,485.0,703.0,0.0,0,312.0,1
1054,1054,-0.12001680553103033,-0.1,1.0,0.0,415.0,843.0,0.0,0,192.0,1
1055,1055,0.24682857256073631,0.2,1.0,1.0,375.0,549.0,1.0,1,-274.0,1
1056,1056,0.13026844628318457,0.1,1.0,1.0,297.0,934.0,1.0,1,559.0,1
1057,1057,0.13401568419501808,0.1,1.0,1.0,425.0,854.0,1.0,1,1601.0,1
1058,1058,-0.0826080334746031,-0.1,0.0,1.0,338.0,677.0,0.0,1,895.0,0
1059,1059,0.6664295313404353,0.7,1.0,1.0,459.0,832.0,1.0,1,369.0,1
1060,1060,-0.3144986716786621,-0.3,1.0,0.0,312.0,658.0,0.0,0,570.0,1
1061,1061,0.7533076480816864,0.8,1.0,1.0,280.0,768.0,0.0,0,52.0,0
1062,1062,-0.5918510398004394,-0.6,1.0,0.0,380.0,634.0,0.0,0,286.0,1
1063,1063,0.7069088184011935,0.7,1.0,1.0,345.0,511.0,1.0,1,404.0,1
1064,1064,0.6838010637412629,0.7,0.0,0.0,439.0,997.0,0.0,1,214.0,1
1065,1065,0.511507961793973,0.5,0.0,0.0,407.0,988.0,0.0,1,125.0,1
1066,1066,0.30714567317440145,0.3,1.0,1.0,285.0,833.0,1.0,1,782.0,1
1067,1067,0.7165397018885916,0.7,0.0,0.0,491.0,951.0,0.0,1,248.0,1
1068,1068,-0.745172907434592,-0.7,1.0,0.0,317.0,561.0,0.0,0,362.0,1
1069,1069,-0.5088786865959549,-0.5,1.0,0.0,331.0,959.0,0.0,0,210.0,1
1070,1070,0.8177562865228977,0.8,0.0,0.0,344.0,832.0,0.0,1,164.0,1
1071,1071,-0.006646481555924066,-0.0,0.0,1.0,410.0,600.0,1.0,0,320.0,1
1072,1072,-0.13246593180541777,-0.1,0.0,1.0,350.0,505.0,0.0,1,615.0,0
1073,1073,0.3438407454660336,0.3,0.0,0.0,267.0,801.0,0.0,1,-178.0,1
1074,1074,-0.401270272547101,-0.4,0.0,1.0,292.0,900.0,1.0,0,-632.0,1
1075,1075,0.8922683182113863,0.9,1.0,1.0,336.0,565.0,1.0,1,369.0,1
1076,1076,0.7138871528878373,0.7,1.0,1.0,286.0,668.0,1.0,1,276.0,1
1077,1077,-0.36411076151165844,-0.4,1.0,0.0,461.0,578.0,0.0,0,201.0,1
1078,1078,-0.2859607663897815,-0.3,0.0,1.0,302.0,539.0,1.0,0,229.0,1
1079,1079,-0.24092568051267205,-0.2,0.0,1.0,436.0,748.0,1.0,0,556.0,1
1080,1080,-0.08754107808240774,-0.1,1.0,0.0,306.0,798.0,0.0,0,1026.0,1
1081,1081,-0.6348533042928663,-0.6,1.0,0.0,254.0,605.0,0.0,0,421.0,1
1082,1082,0.1365783229168379,0.1,0.0,0.0,454.0,600.0,0.0,1,406.0,1
1083,1083,0.4346465138093164,0.4,1.0,1.0,425.0,978.0,1.0,1,527.0,1
1084,1084,0.16195096638831552,0.2,0.0,0.0,403.0,756.0,0.0,1,391.0,1
1085,1085,-0.7601025459387442,-0.8,1.0,0.0,487.0,693.0,0.0,0,410.0,1
1086,1086,0.6539037002807849,0.7,0.0,0.0,251.0,804.0,0.0,1,255.0,1
1087,1087,0.7123194205780038,0.7,1.0,1.0,392.0,516.0,1.0,1,482.0,1
1088,1088,-0.8865847844191005,-0.9,1.0,0.0,374.0,597.0,0.0,0,269.0,1
1089,1089,0.778935729174446,0.8,1.0,1.0,300.0,587.0,1.0,1,263.0,1
1090,1090,-0.4341362363055745,-0.4,1.0,0.0,303.0,715.0,0.0,0,232.0,1
1091,1091,-0.6888782478663251,-0.7,0.0,1.0,429.0,926.0,1.0,0,95.0,1
1092,1092,-0.8481673320968028,-0.8,0.0,1.0,316.0,507.0,1.0,0,97.0,1
1093,1093,0.1202165962716889,0.1,0.0,0.0,491.0,800.0,0.0,1,109.0,1
1094,1094,-0.049602978020649724,-0.0,1.0,0.0,280.0,582.0,0.0,0,578.0,1
1095,1095,0.25219723214543077,0.3,1.0,1.0,488.0,733.0,1.0,1,419.0,1
1096,1096,-0.550445337491124,-0.6,1.0,0.0,310.0,645.0,0.0,0,295.0,1
1097,1097,-0.04172022174642498,-0.0,0.0,1.0,296.0,981.0,0.0,1,323.0,0
1098,1098,-0.6402356476644018,-0.6,0.0,1.0,365.0,570.0,1.0,0,175.0,1
1099,1099,-0.09041373919415008,-0.1,1.0,0.0,451.0,509.0,0.0,0,720.0,1
1100,1100,0.36774756759300986,0.4,0.0,0.0,362.0,847.0,0.0,1,161.0,1
1101,1101,-0.24734046354819528,-0.2,0.0,1.0,400.0,847.0,1.0,0,1023.0,1
1102,1102,0.8425642951894564,0.8,1.0,1.0,418.0,767.0,1.0,1,185.0,1
1103,1103,0.7086953552304317,0.7,0.0,0.0,260.0,748.0,0.0,1,452.0,1
1104,1104,-0.7710863351729835,-0.8,1.0,0.0,263.0,624.0,0.0,0,213.0,1
1105,1105,-0.8666646168282367,-0.9,0.0,1.0,251.0,740.0,1.0,0,139.0,1
1106,1106,0.5451097008329252,0.5,1.0,1.0,386.0,518.0,1.0,1,276.0,1
1107,1107,-0.2239548085166284,-0.2,0.0,1.0,460.0,882.0,1.0,0,608.0,1
1108,1108,0.005810690705049026,0.0,0.0,0.0,398.0,959.0,0.0,1,133.0,1
1109,1109,0.6975430622501689,0.7,1.0,1.0,338.0,892.0,1.0,1,300.0,1
1110,1110,0.06445967177162393,0.1,1.0,1.0,260.0,553.0,1.0,1,1167.0,1
1111,1111,-0.6925527030091851,-0.7,0.0,1.0,437.0,739.0,1.0,0,234.0,1
1112,1112,-0.788978450047762,-0.8,0.0,1.0,381.0,782.0,1.0,0,237.0,1
1113,1113,-0.46621876684599345,-0.5,0.0,1.0,309.0,912.0,1.0,0,129.0,1
1114,1114,0.010014917271920054,0.0,1.0,1.0,413.0,978.0,0.0,0,1439.0,0
1115,1115,-0.6411218651755453,-0.6,0.0,1.0,410.0,736.0,1.0,0,124.0,1
1116,1116,-0.5897562616236425,-0.6,0.0,1.0,392.0,631.0,1.0,0,57.0,1
1117,1117,-0.2383560273255546,-0.2,1.0,0.0,463.0,661.0,0.0,0,176.0,1
1118,1118,-0.36134248536626934,-0.4,0.0,1.0,353.0,609.0,1.0,0,268.0,1
1119,1119,-0.1788479184484565,-0.2,0.0,1.0,260.0,861.0,1.0,0,559.0,1
1120,1120,-0.3670980103209386,-0.4,1.0,0.0,374.0,690.0,0.0,0,146.0,1
1121,1121,0.7868188318231296,0.8,0.0,0.0,378.0,992.0,0.0,1,210.0,1
1122,1122,0.4967189494903633,0.5,1.0,1.0,428.0,540.0,1.0,1,432.0,1
1123,1123,0.10394878038684319,0.1,0.0,0.0,478.0,528.0,0.0,1,594.0,1
1124,1124,0.13353695522967046,0.1,0.0,0.0,443.0,593.0,0.0,1,1854.0,1
1125,1125,-0.6807994094933111,-0.7,0.0,1.0,343.0,525.0,1.0,0,102.0,1
1126,1126,0.00960184778716966,0.0,1.0,1.0,366.0,763.0,0.0,0,2851.0,0
1127,1127,-0.5313998102030284,-0.5,1.0,0.0,409.0,725.0,0.0,0,536.0,1
1128,1128,-0.40752070671917967,-0.4,0.0,1.0,389.0,786.0,1.0,0,155.0,1
1129,1129,0.1309712907445585,0.1,1.0,1.0,350.0,918.0,0.0,0,662.0,0
1130,1130,-0.1047941152785814,-0.1,1.0,0.0,312.0,709.0,0.0,0,359.0,1
1131,1131,0.32339820049616985,0.3,1.0,1.0,417.0,780.0,1.0,1,393.0,1
1132,1132,0.6362002948555553,0.6,1.0,1.0,403.0,555.0,1.0,1,252.0,1
1133,1133,0.504522031696229,0.5,0.0,0.0,270.0,961.0,0.0,1,299.0,1
1134,1134,0.435913902856473,0.4,1.0,1.0,264.0,981.0,1.0,1,-435.0,1
1135,1135,0.6437938209284783,0.6,1.0,1.0,332.0,524.0,1.0,1,384.0,1
1136,1136,-0.22277052408919906,-0.2,1.0,0.0,378.0,904.0,0.0,0,218.0,1
1137,1137,0.44930973117217,0.4,0.0,0.0,491.0,719.0,0.0,1,180.0,1
1138,1138,0.27235014695992044,0.3,1.0,1.0,341.0,822.0,1.0,1,197.0,1
1139,1139,0.8034170496805876,0.8,1.0,1.0,483.0,873.0,1.0,1,204.0,1
1140,1140,0.31695450629392774,0.3,0.0,0.0,446.0,684.0,0.0,1,110.0,1
1141,1141,-0.20110913976009903,-0.2,0.0,1.0,463.0,655.0,1.0,0,1162.0,1
1142,1142,-0.5817906147360674,-0.6,1.0,0.0,303.0,834.0,0.0,0,803.0,1
1143,1143,0.15625226286518934,0.2,0.0,0.0,392.0,826.0,1.0,0,302.0,0
1144,1144,0.40674450609660096,0.4,1.0,1.0,380.0,714.0,1.0,1,336.0,1
1145,1145,0.7013833429079429,0.7,1.0,1.0,369.0,795.0,1.0,1,266.0,1
1146,1146,-0.06102866236336768,-0.1,0.0,1.0,356.0,902.0,1.0,0,642.0,1
1147,1147,-0.8996217613516546,-0.9,1.0,0.0,416.0,583.0,0.0,0,231.0,1
1148,1148,-0.1001574272675928,-0.1,0.0,1.0,443.0,578.0,0.0,1,279.0,0
1149,1149,-0.4667375144112827,-0.5,0.0,1.0,470.0,981.0,1.0,0,309.0,1
1150,1150,-0.8224912129723864,-0.8,1.0,0.0,388.0,582.0,0.0,0,70.0,1
1151,1151,0.6639033200298005,0.7,0.0,0.0,315.0,988.0,0.0,1,177.0,1
1152,1152,0.46159778995030487,0.5,1.0,1.0,480.0,815.0,1.0,1,145.0,1
1153,1153,-0.6717827048264663,-0.7,0.0,1.0,360.0,908.0,1.0,0,262.0,1
1154,1154,-0.7672138760001734,-0.8,1.0,0.0,499.0,839.0,0.0,0,42.0,1
1155,1155,-0.6435539862723914,-0.6,0.0,1.0,436.0,971.0,1.0,0,233.0,1
1156,1156,-0.5875059944315792,-0.6,1.0,0.0,392.0,782.0,0.0,0,166.0,1
1157,1157,-0.03619087952924327,-0.0,1.0,0.0,393.0,554.0,1.0,1,283.0,0
1158,1158,0.49150822826408114,0.5,0.0,0.0,348.0,619.0,0.0,1,153.0,1
1159,1159,0.09261508612545977,0.1,1.0,1.0,373.0,986.0,1.0,1,1291.0,1
1160,1160,-0.872221174023216,-0.9,0.0,1.0,321.0,940.0,1.0,0,339.0,1
1161,1161,-0.23812316995027205,-0.2,1.0,0.0,386.0,642.0,0.0,0,392.0,1
1162,1162,-0.11183468795529572,-0.1,1.0,0.0,311.0,986.0,0.0,0,633.0,1
1163,1163,0.3144191105231343,0.3,0.0,0.0,425.0,589.0,0.0,1,576.0,1
1164,1164,0.5021678236684867,0.5,0.0,0.0,253.0,747.0,0.0,1,310.0,1
1165,1165,-0.3859681085932102,-0.4,1.0,0.0,342.0,699.0,0.0,0,249.0,1
1166,1166,0.4327229304258068,0.4,0.0,0.0,402.0,530.0,0.0,1,228.0,1
1167,1167,-0.3605037152527526,-0.4,1.0,0.0,330.0,849.0,0.0,0,481.0,1
1168,1168,-0.34169575756914816,-0.3,1.0,0.0,265.0,586.0,0.0,0,349.0,1
1169,1169,-0.6383284991327307,-0.6,0.0,1.0,261.0,818.0,1.0,0,121.0,1
1170,1170,0.42178866403234305,0.4,0.0,0.0,356.0,991.0,0.0,1,223.0,1
1171,1171,0.4968289072615314,0.5,1.0,1.0,255.0,703.0,1.0,1,302.0,1
1172,1172,0.3823548018738937,0.4,1.0,1.0,369.0,678.0,1.0,1,483.0,1
1173,1173,-0.21772633069863556,-0.2,0.0,1.0,323.0,701.0,1.0,0,146.0,1
1174,1174,0.12279543032094364,0.1,0.0,0.0,443.0,598.0,1.0,0,359.0,0
1175,1175,0.39985726729562365,0.4,1.0,1.0,483.0,704.0,1.0,1,243.0,1
1176,1176,-0.1172222182363637,-0.1,1.0,0.0,277.0,672.0,0.0,0,1251.0,1
1177,1177,-0.6203549165299397,-0.6,0.0,1.0,335.0,786.0,1.0,0,239.0,1
1178,1178,0.6188203097241664,0.6,1.0,1.0,300.0,537.0,1.0,1,193.0,1
1179,1179,0.17635917877453033,0.2,1.0,1.0,270.0,642.0,1.0,1,288.0,1
1180,1180,-0.6833596596066873,-0.7,1.0,0.0,493.0,941.0,0.0,0,146.0,1
1181,1181,-0.0031182121133097596,-0.0,0.0,1.0,388.0,620.0,0.0,1,242.0,0
1182,1182,-0.011820625043549193,-0.0,0.0,1.0,449.0,526.0,0.0,1,825.0,0
1183,1183,0.09592959783406696,0.1,1.0,1.0,384.0,666.0,1.0,1,390.0,1
1184,1184,-0.778398969570033,-0.8,0.0,1.0,264.0,601.0,1.0,0,115.0,1
1185,1185,0.8027782425706963,0.8,0.0,0.0,416.0,880.0,0.0,1,404.0,1
1186,1186,-0.048345089482643266,-0.0,1.0,0.0,330.0,769.0,0.0,0,2071.0,1
1187,1187,-0.2559303993483676,-0.3,1.0,0.0,439.0,969.0,0.0,0,342.0,1
1188,1188,0.01760069959518573,0.0,1.0,1.0,468.0,763.0,0.0,0,389.0,0
1189,1189,-0.2017268929890479,-0.2,1.0,0.0,257.0,590.0,0.0,0,333.0,1
1190,1190,-0.7594425983710388,-0.8,0.0,1.0,251.0,552.0,1.0,0,337.0,1
1191,1191,0.6496361924326638,0.6,1.0,1.0,251.0,910.0,1.0,1,59.0,1
1192,1192,0.8928094206763427,0.9,0.0,0.0,331.0,774.0,0.0,1,205.0,1
1193,1193,-0.0394348190008299,-0.0,1.0,0.0,431.0,821.0,1.0,1,388.0,0
1194,1194,0.060899219658431925,0.1,1.0,1.0,497.0,529.0,1.0,1,374.0,1
1195,1195,0.09229816932678392,0.1,0.0,0.0,337.0,793.0,0.0,1,270.0,1
1196,1196,0.7951117716594219,0.8,0.0,0.0,285.0,739.0,0.0,1,126.0,1
1197,1197,-0.15067688434367177,-0.2,1.0,0.0,393.0,900.0,0.0,0,1227.0,1
1198,1198,0.02993217300021922,0.0,1.0,1.0,343.0,978.0,1.0,1,239.0,1
1199,1199,0.3228599797411388,0.3,1.0,1.0,361.0,590.0,1.0,1,459.0,1
1200,1200,0.008215546718751687,0.0,0.0,0.0,499.0,918.0,1.0,0,-367.0,0
1201,1201,0.8796190824365088,0.9,0.0,0.0,326.0,818.0,0.0,1,106.0,1
1202,1202,0.46711097463996054,0.5,1.0,1.0,389.0,886.0,1.0,1,275.0,1
1203,1203,-0.5838530584078679,-0.6,0.0,1.0,472.0,599.0,1.0,0,279.0,1
1204,1204,0.12292500756498603,0.1,0.0,0.0,356.0,755.0,0.0,1,149.0,1
1205,1205,-0.31353130703176046,-0.3,0.0,1.0,396.0,905.0,1.0,0,1139.0,1
1206,1206,-0.5095363311220074,-0.5,1.0,0.0,425.0,555.0,0.0,0,310.0,1
1207,1207,-0.8392972661223778,-0.8,1.0,0.0,456.0,585.0,0.0,0,439.0,1
1208,1208,0.11386092784630708,0.1,1.0,1.0,344.0,962.0,1.0,1,574.0,1
1209,1209,0.8962332855168728,0.9,0.0,0.0,318.0,666.0,0.0,1,206.0,1
1210,1210,-0.41456136967127205,-0.4,0.0,1.0,389.0,891.0,1.0,0,410.0,1
1211,1211,0.09722505776863677,0.1,1.0,1.0,255.0,656.0,0.0,0,849.0,0
1212,1212,-0.7971940008487438,-0.8,1.0,0.0,328.0,854.0,0.0,0,188.0,1
1213,1213,-0.6440018998759436,-0.6,1.0,0.0,411.0,588.0,0.0,0,221.0,1
1214,1214,-0.3133292023428934,-0.3,1.0,0.0,300.0,587.0,0.0,0,343.0,1
1215,1215,-0.6235755381171465,-0.6,1.0,0.0,443.0,641.0,0.0,0,386.0,1
1216,1216,-0.620414034106229,-0.6,0.0,1.0,371.0,800.0,0.0,1,39.0,0
1217,1217,-0.3056191497778471,-0.3,0.0,1.0,353.0,570.0,1.0,0,317.0,1
1218,1218,-0.7266346149290714,-0.7,1.0,0.0,489.0,677.0,0.0,0,374.0,1
1219,1219,-0.8393564955824033,-0.8,1.0,0.0,275.0,993.0,0.0,0,212.0,1
1220,1220,0.14352274271869392,0.1,1.0,1.0,411.0,504.0,1.0,1,1175.0,1
1221,1221,-0.22111413462758545,-0.2,0.0,1.0,385.0,965.0,1.0,0,510.0,1
1222,1222,-0.11116894074496841,-0.1,0.0,1.0,297.0,963.0,1.0,0,40.0,1
1223,1223,0.8244809896869275,0.8,1.0,1.0,358.0,532.0,1.0,1,300.0,1
1224,1224,0.738106535554612,0.7,0.0,0.0,370.0,978.0,0.0,1,52.0,1
1225,1225,-0.2989456712129148,-0.3,1.0,0.0,437.0,829.0,0.0,0,294.0,1
1226,1226,0.1500922613914205,0.2,0.0,0.0,283.0,826.0,0.0,1,161.0,1
1227,1227,0.4349533022382249,0.4,0.0,0.0,252.0,554.0,0.0,1,444.0,1
1228,1228,0.5350060691837618,0.5,1.0,1.0,284.0,739.0,1.0,1,217.0,1
1229,1229,0.710441280847285,0.7,1.0,1.0,305.0,567.0,1.0,1,268.0,1
1230,1230,-0.47756424936240227,-0.5,1.0,0.0,499.0,870.0,0.0,0,241.0,1
1231,1231,0.13466344362922322,0.1,0.0,0.0,286.0,976.0,0.0,1,128.0,1
1232,1232,0.5392503149454916,0.5,1.0,1.0,436.0,607.0,1.0,1,537.0,1
1233,1233,-0.7133263389363115,-0.7,0.0,1.0,389.0,810.0,1.0,0,131.0,1
1234,1234,0.779416795936093,0.8,1.0,1.0,331.0,520.0,1.0,1,279.0,1
1235,1235,0.541912443526592,0.5,1.0,1.0,486.0,671.0,1.0,1,323.0,1
1236,1236,0.8338099485353138,0.8,0.0,0.0,336.0,839.0,0.0,1,115.0,1
1237,1237,0.006698723999289391,0.0,1.0,1.0,453.0,538.0,0.0,0,1279.0,0
1238,1238,0.3531136202620774,0.4,1.0,1.0,455.0,516.0,1.0,1,179.0,1
1239,1239,-0.627816936537553,-0.6,1.0,0.0,468.0,534.0,0.0,0,418.0,1
1240,1240,-0.2341375322435454,-0.2,1.0,0.0,302.0,821.0,0.0,0,847.0,1
1241,1241,-0.7809533932228386,-0.8,1.0,0.0,482.0,800.0,0.0,0,468.0,1
1242,1242,0.013891906663587084,0.0,1.0,1.0,437.0,862.0,1.0,1,111.0,1
1243,1243,-0.8060665264005825,-0.8,0.0,1.0,491.0,565.0,1.0,0,264.0,1
1244,1244,0.5858399564848392,0.6,1.0,1.0,363.0,662.0,1.0,1,415.0,1
1245,1245,0.4580084976102742,0.5,1.0,1.0,338.0,657.0,1.0,1,155.0,1
1246,1246,0.8176250875215211,0.8,0.0,0.0,256.0,918.0,0.0,1,156.0,1
1247,1247,0.03733480804821587,0.0,1.0,1.0,430.0,817.0,1.0,1,153.0,1
1248,1248,0.3044719419900316,0.3,0.0,0.0,298.0,904.0,0.0,1,388.0,1
1249,1249,0.5904546245682646,0.6,1.0,1.0,343.0,926.0,1.0,1,411.0,1
1250,1250,-0.4495807575762492,-0.4,1.0,0.0,304.0,880.0,0.0,0,316.0,1
1251,1251,-0.889378692266664,-0.9,1.0,0.0,397.0,517.0,0.0,0,246.0,1
1252,1252,0.5043046326114183,0.5,0.0,0.0,349.0,764.0,0.0,1,447.0,1
1253,1253,-0.6392890068636272,-0.6,1.0,0.0,361.0,770.0,0.0,0,119.0,1
1254,1254,0.5279548033387961,0.5,1.0,1.0,477.0,543.0,1.0,1,320.0,1
1255,1255,0.5651285920630179,0.6,0.0,0.0,355.0,838.0,0.0,1,207.0,1
1256,1256,-0.449931869360189,-0.4,0.0,1.0,270.0,973.0,1.0,0,337.0,1
1257,1257,0.3739607087768454,0.4,1.0,1.0,350.0,661.0,1.0,1,409.0,1
1258,1258,-0.14547250814094825,-0.1,0.0,1.0,318.0,844.0,1.0,0,258.0,1
1259,1259,0.7151165024179068,0.7,1.0,1.0,373.0,599.0,1.0,1,158.0,1
1260,1260,0.08143144070727282,0.1,1.0,1.0,283.0,571.0,1.0,1,1166.0,1
1261,1261,-0.1730009810227513,-0.2,1.0,0.0,255.0,636.0,0.0,0,399.0,1
1262,1262,-0.3952972737277213,-0.4,1.0,0.0,327.0,728.0,0.0,0,185.0,1
1263,1263,0.38418480074094374,0.4,1.0,1.0,354.0,505.0,1.0,1,291.0,1
1264,1264,0.7000001916690693,0.7,1.0,1.0,402.0,826.0,1.0,1,232.0,1
1265,1265,0.3208954201250128,0.3,1.0,1.0,480.0,848.0,1.0,1,292.0,1
1266,1266,0.8943749468715195,0.9,0.0,0.0,491.0,715.0,0.0,1,324.0,1
1267,1267,0.2619079356550825,0.3,0.0,0.0,318.0,982.0,1.0,0,90.0,0
1268,1268,-0.20987957234507504,-0.2,1.0,0.0,367.0,679.0,0.0,0,1124.0,1
1269,1269,-0.6916534417012075,-0.7,1.0,0.0,327.0,670.0,0.0,0,293.0,1
1270,1270,0.4088591273199528,0.4,1.0,1.0,398.0,984.0,1.0,1,658.0,1
1271,1271,-0.49054914644868886,-0.5,1.0,0.0,251.0,813.0,0.0,0,226.0,1
1272,1272,-0.10342230809490527,-0.1,0.0,1.0,477.0,864.0,1.0,0,919.0,1
1273,1273,-0.4959558180614531,-0.5,1.0,0.0,346.0,836.0,0.0,0,268.0,1
1274,1274,-0.5278458578176894,-0.5,0.0,1.0,259.0,514.0,1.0,0,277.0,1
1275,1275,-0.48126373618300755,-0.5,0.0,1.0,279.0,609.0,1.0,0,232.0,1
1276,1276,-0.436090834298914,-0.4,0.0,1.0,446.0,951.0,1.0,0,333.0,1
1277,1277,-0.3518173059819233,-0.4,1.0,0.0,324.0,786.0,0.0,0,90.0,1
1278,1278,-0.32544256406422667,-0.3,0.0,1.0,407.0,835.0,1.0,0,168.0,1
1279,1279,0.4582351305783051,0.5,1.0,1.0,423.0,563.0,1.0,1,494.0,1
1280,1280,0.24349760651953078,0.2,0.0,0.0,464.0,627.0,0.0,1,329.0,1
1281,1281,-0.8904205943755787,-0.9,0.0,1.0,354.0,710.0,1.0,0,156.0,1
1282,1282,-0.7640183113011225,-0.8,1.0,0.0,406.0,533.0,0.0,0,41.0,1
1283,1283,-0.39366806515146047,-0.4,0.0,1.0,298.0,877.0,1.0,0,365.0,1
1284,1284,-0.1795140242023725,-0.2,1.0,0.0,430.0,877.0,0.0,0,163.0,1
1285,1285,-0.20500778097235828,-0.2,1.0,0.0,291.0,967.0,0.0,0,142.0,1
1286,1286,0.028972729600054148,0.0,0.0,0.0,380.0,832.0,0.0,1,1138.0,1
1287,1287,-0.0759215668261346,-0.1,0.0,1.0,380.0,549.0,0.0,1,1331.0,0
1288,1288,-0.39898589663565986,-0.4,0.0,1.0,499.0,756.0,1.0,0,195.0,1
1289,1289,0.16006256593306556,0.2,1.0,1.0,293.0,505.0,0.0,0,82.0,0
1290,1290,-0.2910512182213666,-0.3,1.0,0.0,362.0,907.0,0.0,0,271.0,1
1291,1291,0.17650872714602028,0.2,0.0,0.0,481.0,843.0,0.0,1,236.0,1
1292,1292,0.44411486096582176,0.4,1.0,1.0,468.0,573.0,1.0,1,419.0,1
1293,1293,0.6645685655045203,0.7,0.0,0.0,411.0,881.0,0.0,1,538.0,1
1294,1294,0.04008396661904856,0.0,0.0,0.0,481.0,738.0,1.0,0,91.0,0
1295,1295,-0.05937539990001417,-0.1,1.0,0.0,405.0,637.0,0.0,0,538.0,1
1296,1296,0.3146759777173044,0.3,0.0,0.0,395.0,800.0,1.0,0,85.0,0
1297,1297,0.7193900094317159,0.7,1.0,1.0,436.0,785.0,1.0,1,189.0,1
1298,1298,0.05616351547695275,0.1,1.0,1.0,273.0,547.0,0.0,0,790.0,0
1299,1299,0.09348301349563048,0.1,1.0,1.0,383.0,851.0,1.0,1,1386.0,1
1300,1300,-0.03515202326803879,-0.0,0.0,1.0,297.0,599.0,0.0,1,854.0,0
1301,1301,-0.8745108299924952,-0.9,0.0,1.0,303.0,647.0,1.0,0,170.0,1
1302,1302,-0.3165054403309566,-0.3,1.0,0.0,272.0,928.0,0.0,0,270.0,1
1303,1303,-0.41857148729697713,-0.4,1.0,0.0,389.0,591.0,0.0,0,440.0,1
1304,1304,-0.3413890895025231,-0.3,0.0,1.0,431.0,591.0,1.0,0,248.0,1
1305,1305,-0.36931198470179105,-0.4,1.0,0.0,445.0,771.0,0.0,0,304.0,1
1306,1306,-0.8694758083460584,-0.9,0.0,1.0,332.0,758.0,0.0,1,50.0,0
1307,1307,-0.5221821112377989,-0.5,0.0,1.0,479.0,916.0,1.0,0,265.0,1
1308,1308,0.4228140106237185,0.4,0.0,0.0,410.0,969.0,0.0,1,171.0,1
1309,1309,-0.09027951006389667,-0.1,1.0,0.0,326.0,770.0,0.0,0,324.0,1
1310,1310,0.8442500848746725,0.8,1.0,1.0,402.0,540.0,1.0,1,318.0,1
1311,1311,-0.4840958116219046,-0.5,0.0,1.0,428.0,825.0,1.0,0,257.0,1
1312,1312,0.521290870056827,0.5,1.0,1.0,277.0,881.0,1.0,1,452.0,1
1313,1313,-0.07190512923435066,-0.1,0.0,1.0,277.0,605.0,1.0,0,728.0,1
1314,1314,-0.3348138621310036,-0.3,0.0,1.0,277.0,725.0,1.0,0,48.0,1
1315,1315,0.3589002550153134,0.4,1.0,1.0,314.0,930.0,1.0,1,156.0,1
1316,1316,0.8753872368989698,0.9,1.0,1.0,446.0,816.0,1.0,1,328.0,1
1317,1317,0.1783803587513314,0.2,1.0,1.0,474.0,945.0,1.0,1,551.0,1
1318,1318,0.49715928696443445,0.5,0.0,0.0,469.0,629.0,0.0,1,212.0,1
1319,1319,-0.6445987355222831,-0.6,0.0,1.0,316.0,693.0,1.0,0,141.0,1
1320,1320,0.834212696363588,0.8,1.0,1.0,419.0,547.0,1.0,1,304.0,1
1321,1321,0.364252878277063,0.4,1.0,1.0,352.0,673.0,1.0,1,455.0,1
1322,1322,-0.21104064421920787,-0.2,1.0,0.0,477.0,748.0,0.0,0,175.0,1
1323,1323,0.5972345114382595,0.6,1.0,1.0,408.0,994.0,1.0,1,248.0,1
1324,1324,0.7202942635229742,0.7,1.0,1.0,352.0,807.0,1.0,1,221.0,1
1325,1325,-0.2161566857659768,-0.2,0.0,1.0,301.0,672.0,1.0,0,117.0,1
1326,1326,-0.06848250900137243,-0.1,0.0,1.0,284.0,854.0,1.0,0,322.0,1
1327,1327,0.8352132746895448,0.8,0.0,0.0,253.0,920.0,0.0,1,27.0,1
1328,1328,-0.4611183376143332,-0.5,0.0,1.0,427.0,851.0,1.0,0,282.0,1
1329,1329,-0.18133327431127677,-0.2,0.0,1.0,338.0,850.0,1.0,0,942.0,1
1330,1330,0.515660571285575,0.5,0.0,0.0,290.0,910.0,1.0,0,50.0,0
1331,1331,0.8038709180398919,0.8,0.0,0.0,442.0,504.0,0.0,1,184.0,1
1332,1332,0.826721418185031,0.8,0.0,0.0,490.0,531.0,0.0,1,79.0,1
1333,1333,0.3034863064719292,0.3,1.0,1.0,258.0,560.0,1.0,1,432.0,1
1334,1334,-0.07563703277264267,-0.1,1.0,0.0,458.0,558.0,0.0,0,454.0,1
1335,1335,-0.16090591583445146,-0.2,1.0,0.0,272.0,600.0,0.0,0,528.0,1
1336,1336,-0.8295230850892454,-0.8,1.0,0.0,301.0,986.0,0.0,0,333.0,1
1337,1337,-0.6844987301842366,-0.7,0.0,1.0,393.0,536.0,1.0,0,101.0,1
1338,1338,-0.7962278440740317,-0.8,0.0,1.0,430.0,544.0,1.0,0,116.0,1
1339,1339,0.532305331704387,0.5,0.0,0.0,292.0,811.0,0.0,1,27.0,1
1340,1340,-0.12321078868491775,-0.1,1.0,0.0,434.0,601.0,0.0,0,645.0,1
1341,1341,0.5440973466638127,0.5,1.0,1.0,291.0,819.0,1.0,1,250.0,1
1342,1342,-0.6780174350546313,-0.7,1.0,0.0,303.0,988.0,0.0,0,179.0,1
1343,1343,0.6221500571369699,0.6,1.0,1.0,414.0,665.0,1.0,1,211.0,1
1344,1344,0.4674108568980918,0.5,0.0,0.0,356.0,917.0,0.0,1,267.0,1
1345,1345,0.41593913338900645,0.4,0.0,0.0,400.0,508.0,0.0,1,412.0,1
1346,1346,0.4767864268056551,0.5,0.0,0.0,427.0,682.0,0.0,1,411.0,1
1347,1347,-0.8506564940793153,-0.9,1.0,0.0,252.0,966.0,0.0,0,22.0,1
1348,1348,-0.8058370305858935,-0.8,1.0,0.0,481.0,688.0,0.0,0,101.0,1
1349,1349,0.07902356484705009,0.1,1.0,1.0,412.0,836.0,1.0,1,162.0,1
1350,1350,0.6627614310742814,0.7,0.0,0.0,374.0,721.0,0.0,1,115.0,1
1351,1351,-0.7185314069584925,-0.7,0.0,1.0,312.0,723.0,1.0,0,505.0,1
1352,1352,0.46002641450204973,0.5,1.0,1.0,311.0,886.0,1.0,1,253.0,1
1353,1353,0.010913561538065775,0.0,1.0,1.0,442.0,866.0,1.0,1,652.0,1
1354,1354,-0.1085767119521791,-0.1,0.0,1.0,274.0,826.0,1.0,0,240.0,1
1355,1355,-0.5411592115901379,-0.5,0.0,1.0,358.0,569.0,1.0,0,223.0,1
1356,1356,-0.19827037505574918,-0.2,1.0,0.0,384.0,894.0,0.0,0,702.0,1
1357,1357,-0.24906882387358376,-0.2,1.0,0.0,439.0,997.0,0.0,0,164.0,1
1358,1358,-0.7196250479008702,-0.7,0.0,1.0,331.0,543.0,1.0,0,236.0,1
1359,1359,0.7739755661449356,0.8,0.0,0.0,447.0,676.0,0.0,1,227.0,1
1360,1360,0.33395372282281965,0.3,1.0,1.0,261.0,992.0,1.0,1,197.0,1
1361,1361,-0.5492233371125994,-0.5,0.0,1.0,456.0,872.0,1.0,0,152.0,1
1362,1362,0.014552550367880501,0.0,1.0,1.0,348.0,908.0,1.0,1,3544.0,1
1363,1363,0.3272954609553306,0.3,1.0,1.0,376.0,952.0,1.0,1,282.0,1
1364,1364,-0.7799290403128998,-0.8,0.0,1.0,427.0,724.0,1.0,0,229.0,1
1365,1365,-0.18710040942070427,-0.2,0.0,1.0,364.0,598.0,1.0,0,398.0,1
1366,1366,0.04635010218758251,0.0,0.0,0.0,358.0,644.0,0.0,1,48.0,1
1367,1367,0.6728628726939966,0.7,1.0,1.0,276.0,606.0,1.0,1,398.0,1
1368,1368,-0.19425432265103415,-0.2,0.0,1.0,271.0,609.0,1.0,0,210.0,1
1369,1369,0.7823939831845966,0.8,0.0,0.0,469.0,644.0,0.0,1,357.0,1
1370,1370,-0.31385344095499845,-0.3,1.0,0.0,465.0,907.0,0.0,0,228.0,1
1371,1371,-0.3968728067365548,-0.4,0.0,1.0,359.0,692.0,1.0,0,159.0,1
1372,1372,0.32678054807217227,0.3,1.0,1.0,346.0,863.0,1.0,1,541.0,1
1373,1373,-0.38391773051270206,-0.4,0.0,1.0,311.0,726.0,1.0,0,243.0,1
1374,1374,-0.8310193653975124,-0.8,0.0,1.0,320.0,877.0,1.0,0,143.0,1
1375,1375,-0.7615669969343805,-0.8,1.0,0.0,305.0,890.0,0.0,0,115.0,1
1376,1376,-0.4159868164773823,-0.4,1.0,0.0,277.0,535.0,0.0,0,458.0,1
1377,1377,0.6802084036412265,0.7,0.0,0.0,484.0,835.0,0.0,1,201.0,1
1378,1378,-0.7213962395697124,-0.7,1.0,0.0,302.0,636.0,0.0,0,372.0,1
1379,1379,0.7977018052948447,0.8,0.0,0.0,429.0,977.0,0.0,1,194.0,1
1380,1380,0.556614747448951,0.6,0.0,0.0,459.0,928.0,0.0,1,503.0,1
1381,1381,0.1869484288484019,0.2,1.0,1.0,377.0,873.0,1.0,1,630.0,1
1382,1382,-0.20527885262738443,-0.2,1.0,0.0,319.0,864.0,0.0,0,357.0,1
1383,1383,-0.8155282472160058,-0.8,0.0,1.0,301.0,656.0,1.0,0,193.0,1
1384,1384,0.7676176758970635,0.8,1.0,1.0,265.0,894.0,1.0,1,231.0,1
1385,1385,0.27151588120539183,0.3,0.0,0.0,289.0,755.0,0.0,1,136.0,1
1386,1386,-0.035090479976984,-0.0,1.0,0.0,481.0,791.0,0.0,0,528.0,1
1387,1387,-0.7687232894218177,-0.8,1.0,0.0,395.0,566.0,0.0,0,299.0,1
1388,1388,-0.17415295776111606,-0.2,0.0,1.0,415.0,729.0,1.0,0,1646.0,1
1389,1389,-0.5084611728084654,-0.5,1.0,0.0,301.0,932.0,0.0,0,47.0,1
1390,1390,-0.15704039070909626,-0.2,0.0,1.0,361.0,782.0,1.0,0,517.0,1
1391,1391,-0.1426592220253664,-0.1,1.0,0.0,343.0,781.0,0.0,0,236.0,1
1392,1392,-0.5839001941343659,-0.6,0.0,1.0,401.0,605.0,1.0,0,134.0,1
1393,1393,0.27764144663564905,0.3,1.0,1.0,375.0,538.0,1.0,1,557.0,1
1394,1394,0.01962946991617165,0.0,1.0,1.0,272.0,729.0,1.0,1,119.0,1
1395,1395,-0.32979779640845885,-0.3,0.0,1.0,387.0,595.0,0.0,1,58.0,0
1396,1396,-0.803255202448148,-0.8,0.0,1.0,471.0,650.0,0.0,1,-91.0,0
1397,1397,0.2416132624638,0.2,1.0,1.0,308.0,578.0,1.0,1,504.0,1
1398,1398,0.5193158959460188,0.5,0.0,0.0,454.0,620.0,0.0,1,446.0,1
1399,1399,0.7965639805475854,0.8,1.0,1.0,253.0,790.0,1.0,1,237.0,1
1400,1400,-0.5705254057556929,-0.6,0.0,1.0,326.0,773.0,1.0,0,81.0,1
1401,1401,0.0009907033492455586,0.0,0.0,0.0,416.0,824.0,0.0,1,310.0,1
1402,1402,0.43155083964984187,0.4,0.0,0.0,374.0,532.0,0.0,1,474.0,1
1403,1403,-0.48120119876658835,-0.5,1.0,0.0,299.0,559.0,0.0,0,292.0,1
1404,1404,-0.10295861115066107,-0.1,0.0,1.0,408.0,682.0,0.0,1,490.0,0
1405,1405,0.6877254267602207,0.7,0.0,0.0,404.0,508.0,0.0,1,338.0,1
1406,1406,0.028818636006956,0.0,1.0,1.0,424.0,890.0,0.0,0,2116.0,0
1407,1407,-0.4149613963490946,-0.4,1.0,0.0,410.0,933.0,0.0,0,97.0,1
1408,1408,0.021936563367576767,0.0,0.0,0.0,287.0,741.0,1.0,0,762.0,0
1409,1409,-0.8799310344305362,-0.9,0.0,1.0,279.0,620.0,1.0,0,131.0,1
1410,1410,0.5147710078122666,0.5,1.0,1.0,480.0,746.0,1.0,1,304.0,1
1411,1411,0.575521464776514,0.6,0.0,0.0,398.0,814.0,0.0,1,238.0,1
1412,1412,-0.08699827735321719,-0.1,1.0,0.0,483.0,655.0,0.0,0,532.0,1
1413,1413,-0.21253630662318634,-0.2,1.0,0.0,481.0,660.0,0.0,0,389.0,1
1414,1414,0.8490927635147797,0.8,1.0,1.0,412.0,889.0,0.0,0,29.0,0
1415,1415,0.7270565707442814,0.7,1.0,1.0,261.0,584.0,1.0,1,295.0,1
1416,1416,0.4321992202713377,0.4,0.0,0.0,368.0,817.0,0.0,1,95.0,1
1417,1417,-0.6641491305046819,-0.7,1.0,0.0,360.0,958.0,0.0,0,12.0,1
1418,1418,0.23024496764388414,0.2,0.0,0.0,452.0,652.0,0.0,1,546.0,1
1419,1419,0.6638506588511771,0.7,0.0,0.0,461.0,877.0,0.0,1,22.0,1
1420,1420,0.5634581235836652,0.6,0.0,0.0,274.0,572.0,0.0,1,404.0,1
1421,1421,0.23105806170444698,0.2,0.0,0.0,273.0,864.0,0.0,1,43.0,1
1422,1422,-0.720541292301431,-0.7,0.0,1.0,424.0,766.0,1.0,0,110.0,1
1423,1423,0.7693246176714693,0.8,0.0,0.0,423.0,923.0,0.0,1,104.0,1
1424,1424,0.34893786133698634,0.3,1.0,1.0,454.0,727.0,1.0,1,359.0,1
1425,1425,-0.17117498358832584,-0.2,0.0,1.0,268.0,625.0,0.0,1,77.0,0
1426,1426,0.5085437137207868,0.5,0.0,0.0,367.0,690.0,0.0,1,173.0,1
1427,1427,0.2430859659626895,0.2,0.0,0.0,371.0,551.0,0.0,1,208.0,1
1428,1428,0.3312588141911551,0.3,0.0,0.0,316.0,685.0,0.0,1,319.0,1
1429,1429,-0.463989300496957,-0.5,1.0,0.0,464.0,932.0,0.0,0,614.0,1
1430,1430,0.8632891015298106,0.9,0.0,0.0,252.0,577.0,0.0,1,151.0,1
1431,1431,-0.5123934202824263,-0.5,0.0,1.0,498.0,791.0,1.0,0,301.0,1
1432,1432,0.8238790598181885,0.8,0.0,0.0,335.0,710.0,0.0,1,345.0,1
1433,1433,-0.30194198095550906,-0.3,0.0,1.0,293.0,933.0,1.0,0,314.0,1
1434,1434,-0.33446722169763776,-0.3,1.0,0.0,274.0,507.0,0.0,0,149.0,1
1435,1435,-0.042991291481082494,-0.0,1.0,0.0,442.0,505.0,0.0,0,483.0,1
1436,1436,0.49441113494638034,0.5,1.0,1.0,312.0,983.0,1.0,1,345.0,1
1437,1437,-0.26308643169445944,-0.3,0.0,1.0,485.0,768.0,1.0,0,187.0,1
1438,1438,-0.6381346239813825,-0.6,1.0,0.0,344.0,830.0,0.0,0,156.0,1
1439,1439,0.2033900285947442,0.2,1.0,1.0,450.0,814.0,1.0,1,3116.0,1
1440,1440,-0.26130667777869765,-0.3,1.0,0.0,478.0,590.0,0.0,0,482.0,1
1441,1441,0.15213557705901215,0.2,1.0,1.0,368.0,615.0,1.0,1,1677.0,1
1442,1442,-0.6717169510926153,-0.7,1.0,0.0,451.0,587.0,0.0,0,342.0,1
1443,1443,-0.2395973120044136,-0.2,0.0,1.0,307.0,993.0,0.0,1,30.0,0
1444,1444,-0.6644254970789867,-0.7,1.0,0.0,456.0,690.0,0.0,0,244.0,1
1445,1445,0.6651221397658974,0.7,0.0,0.0,280.0,812.0,0.0,1,178.0,1
1446,1446,-0.19656854101863852,-0.2,0.0,1.0,296.0,688.0,1.0,0,636.0,1
1447,1447,-0.5564043779425085,-0.6,0.0,1.0,330.0,856.0,1.0,0,244.0,1
1448,1448,0.8386618571888836,0.8,1.0,1.0,294.0,584.0,1.0,1,152.0,1
1449,1449,0.8244656500151649,0.8,0.0,0.0,407.0,769.0,0.0,1,264.0,1
1450,1450,-0.4754027960269593,-0.5,1.0,0.0,298.0,546.0,0.0,0,286.0,1
1451,1451,0.1940326713960322,0.2,1.0,1.0,407.0,754.0,1.0,1,159.0,1
1452,1452,-0.7059094681240472,-0.7,1.0,0.0,493.0,510.0,0.0,0,257.0,1
1453,1453,0.6531024457180307,0.7,1.0,1.0,367.0,883.0,1.0,1,340.0,1
1454,1454,0.5508067882734838,0.6,1.0,1.0,343.0,692.0,1.0,1,125.0,1
1455,1455,-0.04522852839130387,-0.0,0.0,1.0,300.0,965.0,0.0,1,355.0,0
1456,1456,-0.7144383147935692,-0.7,0.0,1.0,450.0,907.0,1.0,0,103.0,1
1457,1457,-0.843919697713498,-0.8,0.0,1.0,419.0,992.0,1.0,0,159.0,1
1458,1458,0.2724489388926675,0.3,0.0,0.0,429.0,709.0,0.0,1,272.0,1
1459,1459,-0.20485042716732416,-0.2,1.0,0.0,370.0,833.0,0.0,0,337.0,1
1460,1460,0.01095250641815626,0.0,1.0,1.0,411.0,756.0,0.0,0,243.0,0
1461,1461,-0.7840526983427984,-0.8,0.0,1.0,425.0,798.0,1.0,0,237.0,1
1462,1462,0.3120392636377566,0.3,1.0,1.0,405.0,925.0,1.0,1,180.0,1
1463,1463,-0.24877860053221723,-0.2,0.0,1.0,377.0,638.0,1.0,0,475.0,1
1464,1464,0.1491948700063429,0.1,0.0,0.0,487.0,542.0,0.0,1,1171.0,1
1465,1465,-0.8194701512368591,-0.8,1.0,0.0,492.0,738.0,0.0,0,170.0,1
1466,1466,0.3050129367389819,0.3,1.0,1.0,387.0,592.0,1.0,1,561.0,1
1467,1467,0.23362771988001196,0.2,0.0,0.0,479.0,981.0,0.0,1,290.0,1
1468,1468,0.4564234126715875,0.5,0.0,0.0,390.0,574.0,1.0,0,96.0,0
1469,1469,-0.7507812558291975,-0.8,0.0,1.0,413.0,839.0,1.0,0,218.0,1
1470,1470,0.8877618560060797,0.9,0.0,0.0,311.0,804.0,0.0,1,115.0,1
1471,1471,0.5262137388867315,0.5,0.0,0.0,427.0,536.0,0.0,1,657.0,1
1472,1472,-0.6180979047391695,-0.6,1.0,0.0,253.0,604.0,0.0,0,213.0,1
1473,1473,0.017758561478902646,0.0,0.0,0.0,382.0,922.0,0.0,1,286.0,1
1474,1474,-0.6732670425751348,-0.7,0.0,1.0,265.0,658.0,1.0,0,87.0,1
1475,1475,-0.6703685797614527,-0.7,1.0,0.0,405.0,904.0,0.0,0,111.0,1
1476,1476,0.6125771371154191,0.6,1.0,1.0,367.0,627.0,1.0,1,346.0,1
1477,1477,-0.005911527388536397,-0.0,1.0,0.0,343.0,920.0,0.0,0,997.0,1
1478,1478,-0.06475934698729924,-0.1,0.0,1.0,485.0,917.0,0.0,1,108.0,0
1479,1479,0.389206712419628,0.4,1.0,1.0,327.0,576.0,1.0,1,397.0,1
1480,1480,-0.6890393361994473,-0.7,0.0,1.0,250.0,907.0,1.0,0,163.0,1
1481,1481,-0.31712221100604865,-0.3,0.0,1.0,306.0,740.0,0.0,1,54.0,0
1482,1482,-0.5228251062679738,-0.5,1.0,0.0,437.0,515.0,0.0,0,298.0,1
1483,1483,-0.314856218524042,-0.3,0.0,1.0,281.0,850.0,1.0,0,169.0,1
1484,1484,0.7552902348818397,0.8,1.0,1.0,414.0,525.0,1.0,1,371.0,1
1485,1485,-0.1756026528219342,-0.2,0.0,1.0,258.0,743.0,1.0,0,599.0,1
1486,1486,0.4831754958684923,0.5,0.0,0.0,363.0,696.0,0.0,1,121.0,1
1487,1487,-0.26308167606520827,-0.3,0.0,1.0,493.0,919.0,1.0,0,408.0,1
1488,1488,0.011838112692807101,0.0,1.0,1.0,471.0,630.0,1.0,1,1509.0,1
1489,1489,-0.19440948137059066,-0.2,1.0,0.0,400.0,896.0,0.0,0,134.0,1
1490,1490,-0.2434450151523201,-0.2,1.0,0.0,474.0,863.0,0.0,0,623.0,1
1491,1491,-0.40016368092661814,-0.4,0.0,1.0,288.0,609.0,1.0,0,173.0,1
1492,1492,0.7207982777136636,0.7,0.0,0.0,311.0,650.0,0.0,1,239.0,1
1493,1493,-0.2558129493976403,-0.3,1.0,0.0,364.0,893.0,0.0,0,283.0,1
