,trial,coherence,coherence_bin,correct_side,target_onset,checker_onset,decision,decision_time,correct_decision,g0,gSlope
0,0,0.8932241008127819,0.9,0,371.0,797.0,0.0,3832.0,1,0.022271225775181813,0.0
1,1,0.8166842388025843,0.8,0,460.0,535.0,0.0,155.0,1,1.4999861354147785,0.0
2,2,0.3696501754723449,0.4,0,303.0,846.0,0.0,1181.0,1,0.21427997383231556,0.0
3,3,-0.20101998411166622,-0.2,1,270.0,858.0,1.0,852.0,1,0.33586290840535615,0.0
4,4,-0.8794977089464793,-0.9,1,438.0,858.0,1.0,254.0,1,0.6702819909042617,0.0
5,5,0.22804916438801603,0.2,0,274.0,891.0,1.0,155.0,0,1.6665438057971682,0.0
6,6,0.2029043953625569,0.2,0,451.0,543.0,0.0,256.0,1,1.5008280387788586,0.0
7,7,-0.09713911736076986,-0.1,1,411.0,650.0,0.0,149.0,0,1.8868846836790363,0.0
8,8,-0.11671974607263103,-0.1,1,438.0,847.0,1.0,635.0,1,1.4301669069659035,0.0
9,9,0.3818799594289728,0.4,0,283.0,691.0,0.0,886.0,1,0.7916718563477323,0.0
10,10,0.6764582015477665,0.7,0,425.0,611.0,0.0,194.0,1,1.1414011320331479,0.0
11,11,-0.9840695230427008,-1.0,1,305.0,906.0,1.0,159.0,1,1.4692870352262215,0.0
12,12,0.8973864128123612,0.9,0,379.0,909.0,0.0,162.0,1,0.7021150539625525,0.0
13,13,0.33493731509589897,0.3,0,269.0,995.0,0.0,356.0,1,0.5584550778436193,0.0
14,14,0.44092120267838375,0.4,0,283.0,766.0,0.0,3951.0,1,0.014765216451032348,0.0
15,15,0.5461135411098714,0.5,0,436.0,750.0,0.0,424.0,1,0.47007542898318766,0.0
16,16,0.7685070512694863,0.8,0,471.0,596.0,0.0,153.0,1,1.3927767474446322,0.0
17,17,-0.9153355069968676,-0.9,1,446.0,856.0,1.0,138.0,1,1.763808909338058,0.0
18,18,0.7664343523447428,0.8,0,442.0,954.0,0.0,44.0,1,1.009278979585589,0.0
19,19,0.22446864085153706,0.2,0,324.0,661.0,0.0,195.0,1,0.8969971802975227,0.0
20,20,-0.026547551656644908,-0.0,1,428.0,798.0,1.0,3774.0,1,0.012133245150114602,0.0
21,21,0.23131037244526875,0.2,0,305.0,910.0,0.0,1475.0,1,0.2401936704396579,0.0
22,22,-0.7872457916255498,-0.8,1,352.0,642.0,1.0,236.0,1,0.9058898109497979,0.0
23,23,-0.641887490512439,-0.6,1,393.0,869.0,1.0,178.0,1,1.288686324344192,0.0
24,24,-0.9188330762810388,-0.9,1,269.0,978.0,1.0,243.0,1,0.5939219823146267,0.0
25,25,-0.29972231806158844,-0.3,1,452.0,834.0,1.0,724.0,1,0.1766121056422154,0.0
26,26,-0.4023906760607616,-0.4,1,356.0,796.0,1.0,208.0,1,1.2995343028881068,0.0
27,27,0.4246735308318754,0.4,0,457.0,684.0,0.0,1869.0,1,0.13835490169346754,0.0
28,28,0.21232898458761595,0.2,0,389.0,732.0,0.0,409.0,1,1.9802142617709084,0.0
29,29,-0.38038651211142227,-0.4,1,486.0,620.0,1.0,264.0,1,1.0220131481105321,0.0
30,30,-0.10942064012129271,-0.1,1,453.0,958.0,1.0,3589.0,1,0.03761045089113546,0.0
31,31,0.28070180204381634,0.3,0,354.0,889.0,0.0,197.0,1,0.7464557407751702,0.0
32,32,-0.5158429769603929,-0.5,1,335.0,900.0,1.0,3765.0,1,0.0004274676151065915,0.0
33,33,0.9827092617525084,1.0,0,286.0,669.0,0.0,135.0,1,0.7196180889195061,0.0
34,34,0.3533972076796954,0.4,0,269.0,570.0,0.0,181.0,1,1.0758797011714138,0.0
35,35,0.06593025911811301,0.1,0,261.0,841.0,1.0,3028.0,0,0.782967718649531,0.0
36,36,0.7769897838651507,0.8,0,260.0,633.0,0.0,147.0,1,1.904835800898608,0.0
37,37,0.7077146938186885,0.7,0,471.0,912.0,0.0,3617.0,1,0.004374950443425618,0.0
38,38,0.337633119678858,0.3,0,394.0,830.0,0.0,436.0,1,0.7981722217170597,0.0
39,39,0.4937858940807205,0.5,0,335.0,887.0,0.0,308.0,1,1.3782714015422282,0.0
40,40,0.8699572437452301,0.9,0,304.0,676.0,0.0,110.0,1,1.0629063495403703,0.0
41,41,-0.8559687158382121,-0.9,1,371.0,773.0,1.0,246.0,1,0.5249627312034575,0.0
42,42,-0.9827592497613244,-1.0,1,443.0,680.0,1.0,117.0,1,1.3763189794560655,0.0
43,43,-0.26134498444775756,-0.3,1,312.0,813.0,1.0,625.0,1,0.8475023287803705,0.0
44,44,0.5646850478368062,0.6,0,353.0,943.0,0.0,224.0,1,1.539363495814511,0.0
45,45,-0.43676652284079287,-0.4,1,258.0,646.0,1.0,4096.0,1,0.022822709422430032,0.0
46,46,0.6286582281113535,0.6,0,337.0,519.0,0.0,154.0,1,0.8303619912992195,0.0
47,47,-0.5068394878659639,-0.5,1,433.0,660.0,1.0,827.0,1,0.13262550583969124,0.0
48,48,0.12343875600476228,0.1,0,413.0,585.0,0.0,1972.0,1,0.4930087958156246,0.0
49,49,0.057047429162044416,0.1,0,321.0,738.0,0.0,2211.0,1,0.21618196447869042,0.0
50,50,0.989835226561,1.0,0,291.0,976.0,0.0,123.0,1,1.7862617152201536,0.0
51,51,-0.3960670891865701,-0.4,1,489.0,545.0,1.0,286.0,1,1.4762134523514856,0.0
52,52,-0.6558572143957664,-0.7,1,288.0,688.0,1.0,184.0,1,1.3230621479750329,0.0
53,53,0.40529228189355493,0.4,0,292.0,733.0,0.0,135.0,1,1.863168249421179,0.0
54,54,-0.49298307684098197,-0.5,1,455.0,719.0,1.0,536.0,1,0.48742749297558285,0.0
55,55,0.9179599060554982,0.9,0,336.0,617.0,0.0,87.0,1,1.9035074078173755,0.0
56,56,-0.4562653310793028,-0.5,1,430.0,754.0,1.0,316.0,1,1.9820838566062333,0.0
57,57,-0.5408741170778808,-0.5,1,254.0,832.0,1.0,274.0,1,0.8401414780627738,0.0
58,58,0.5065012016366501,0.5,0,418.0,787.0,0.0,415.0,1,1.1245672289935635,0.0
59,59,0.7240226078323835,0.7,0,444.0,782.0,0.0,1184.0,1,0.07866917168236065,0.0
60,60,-0.498748468691818,-0.5,1,287.0,799.0,1.0,274.0,1,1.6675102243931217,0.0
61,61,0.04752041608165536,0.0,0,471.0,713.0,0.0,486.0,1,1.036195070664038,0.0
62,62,-0.22373752940419922,-0.2,1,263.0,982.0,1.0,145.0,1,1.222950677273262,0.0
63,63,0.3327252865937149,0.3,0,496.0,671.0,0.0,173.0,1,1.9944280876516263,0.0
64,64,-0.9045069363857521,-0.9,1,310.0,914.0,1.0,306.0,1,0.8189069023638198,0.0
65,65,0.49157264045705196,0.5,0,305.0,907.0,0.0,328.0,1,0.7377130742082016,0.0
66,66,0.3401926422507253,0.3,0,397.0,956.0,0.0,147.0,1,1.9247986892121016,0.0
67,67,0.8616747001647171,0.9,0,269.0,584.0,0.0,327.0,1,0.4380185143080584,0.0
68,68,-0.5299007425172972,-0.5,1,319.0,655.0,1.0,296.0,1,0.8002159600858187,0.0
69,69,0.6895358354009784,0.7,0,323.0,745.0,0.0,1792.0,1,0.0823126484399459,0.0
70,70,0.1548710422779611,0.2,0,259.0,556.0,0.0,415.0,1,0.9756729533716613,0.0
71,71,-0.8270681945547715,-0.8,1,436.0,656.0,1.0,108.0,1,1.8214907213969753,0.0
72,72,0.5001800055476888,0.5,0,465.0,645.0,0.0,270.0,1,1.3057270415048297,0.0
73,73,-0.053827400784544954,-0.1,1,285.0,928.0,1.0,637.0,1,1.779192153098266,0.0
74,74,0.29550876108748736,0.3,0,304.0,862.0,0.0,184.0,1,1.42636237984488,0.0
75,75,0.22775451080014042,0.2,0,392.0,540.0,0.0,178.0,1,0.6839556791033694,0.0
76,76,0.4763908589936303,0.5,0,456.0,578.0,0.0,146.0,1,0.7372594503875172,0.0
77,77,0.06309652600730531,0.1,0,263.0,642.0,0.0,245.0,1,1.689322064153098,0.0
78,78,-0.8282537303181066,-0.8,1,317.0,718.0,1.0,255.0,1,0.4581430933336086,0.0
79,79,-0.18270970507690731,-0.2,1,289.0,678.0,1.0,323.0,1,1.6708133706429644,0.0
80,80,0.282001803420302,0.3,0,347.0,533.0,0.0,420.0,1,0.7232790667030204,0.0
81,81,-0.7931238892497481,-0.8,1,430.0,844.0,1.0,266.0,1,0.43237763355497805,0.0
82,82,0.8322389281742919,0.8,0,304.0,654.0,0.0,652.0,1,0.46843751833835023,0.0
83,83,0.25669406224134805,0.3,0,281.0,538.0,0.0,591.0,1,1.9945963064263323,0.0
84,84,0.7669556309529242,0.8,0,278.0,869.0,0.0,273.0,1,0.40444592823640746,0.0
85,85,-0.9321328037405601,-0.9,1,461.0,858.0,1.0,131.0,1,0.8850871203817858,0.0
86,86,-0.5342284518214506,-0.5,1,426.0,981.0,1.0,443.0,1,0.43370623327065894,0.0
87,87,-0.7761362985522846,-0.8,1,364.0,716.0,1.0,100.0,1,1.6964262305137472,0.0
88,88,-0.06652638487757057,-0.1,1,478.0,566.0,0.0,196.0,0,1.1561461799283779,0.0
89,89,0.8011291607897257,0.8,0,420.0,560.0,0.0,190.0,1,1.2218555569819838,0.0
90,90,0.5904840700397416,0.6,0,325.0,981.0,0.0,374.0,1,0.9061850295383658,0.0
91,91,-0.34935649006365943,-0.3,1,490.0,902.0,1.0,228.0,1,1.31814338896385,0.0
92,92,0.3668156933362945,0.4,0,314.0,994.0,0.0,332.0,1,0.9674296307516388,0.0
93,93,-0.10496313648383526,-0.1,1,458.0,690.0,1.0,302.0,1,1.5577667817472778,0.0
94,94,0.777836767223564,0.8,0,480.0,901.0,0.0,379.0,1,0.3657840654013771,0.0
95,95,-0.12259127940717751,-0.1,1,420.0,755.0,1.0,3825.0,1,0.2099392241375957,0.0
96,96,0.18354964460696133,0.2,0,496.0,828.0,0.0,466.0,1,0.43728418974342276,0.0
97,97,0.883351596834367,0.9,0,432.0,591.0,0.0,87.0,1,1.5198549599089037,0.0
98,98,0.20694559026072223,0.2,0,429.0,865.0,0.0,1266.0,1,0.141982597079096,0.0
99,99,0.10702262067187984,0.1,0,495.0,650.0,0.0,1455.0,1,0.37666876667405935,0.0
100,100,-0.2783425905096737,-0.3,1,483.0,877.0,1.0,1000.0,1,0.12363046699134173,0.0
101,101,-0.3681454690492747,-0.4,1,270.0,959.0,1.0,371.0,1,1.427334481932035,0.0
102,102,-0.22438949027318755,-0.2,1,468.0,922.0,1.0,1010.0,1,1.454890707527816,0.0
103,103,0.6739134980503245,0.7,0,340.0,785.0,0.0,315.0,1,1.502580769080229,0.0
104,104,0.9277759985698024,0.9,0,463.0,662.0,0.0,285.0,1,0.3878143370017546,0.0
105,105,0.0702220553475077,0.1,0,354.0,771.0,0.0,525.0,1,0.5619354874191813,0.0
106,106,-0.5888221593183407,-0.6,1,259.0,767.0,1.0,284.0,1,1.8740585249013335,0.0
107,107,0.1888328260884211,0.2,0,450.0,899.0,0.0,351.0,1,1.0480112608297238,0.0
108,108,-0.13885288787583705,-0.1,1,270.0,728.0,1.0,682.0,1,0.6949476183379664,0.0
109,109,-0.25126786029295944,-0.3,1,484.0,782.0,1.0,604.0,1,1.836547296271218,0.0
110,110,0.1207529682561741,0.1,0,490.0,804.0,0.0,346.0,1,1.2475639286921894,0.0
111,111,-0.6948053731000063,-0.7,1,484.0,780.0,1.0,1136.0,1,0.08061238662797954,0.0
112,112,0.011794357876373729,0.0,0,468.0,636.0,1.0,816.0,0,0.22982155095847023,0.0
113,113,0.5386439095524971,0.5,0,382.0,914.0,0.0,354.0,1,0.7857217875831632,0.0
114,114,-0.2629484359418781,-0.3,1,382.0,805.0,1.0,323.0,1,1.7049133516575772,0.0
115,115,-0.6497945596736612,-0.6,1,400.0,751.0,1.0,149.0,1,1.0176775187744045,0.0
116,116,-0.6977840852365598,-0.7,1,468.0,633.0,1.0,189.0,1,1.220734130952817,0.0
117,117,-0.24770049358500645,-0.2,1,425.0,709.0,1.0,436.0,1,1.0968604986140356,0.0
118,118,0.058800415285805485,0.1,0,387.0,531.0,0.0,212.0,1,1.7062803679010947,0.0
119,119,-0.33495464187093726,-0.3,1,285.0,765.0,1.0,750.0,1,0.1366853798911094,0.0
120,120,-0.30072780843630165,-0.3,1,419.0,837.0,1.0,224.0,1,0.689946600761093,0.0
121,121,0.3965577549881891,0.4,0,317.0,783.0,0.0,260.0,1,0.8203770065872886,0.0
122,122,-0.6168556565012706,-0.6,1,330.0,575.0,1.0,465.0,1,1.2096274416944353,0.0
123,123,-0.2277190451416955,-0.2,1,390.0,583.0,1.0,1077.0,1,0.2856145057254247,0.0
124,124,-0.7905653773189762,-0.8,1,317.0,654.0,1.0,89.0,1,1.1190678914889074,0.0
125,125,0.057660182091286316,0.1,0,369.0,890.0,0.0,3031.0,1,0.6413628938746216,0.0
126,126,0.920258381763551,0.9,0,325.0,838.0,0.0,37.0,1,1.5416199009415685,0.0
127,127,0.08514992583604064,0.1,0,484.0,804.0,0.0,542.0,1,0.7050724136615283,0.0
128,128,0.5437275441800304,0.5,0,465.0,592.0,0.0,333.0,1,0.5777401716074742,0.0
129,129,-0.004026654524226014,-0.0,1,291.0,596.0,0.0,1213.0,0,0.8789583677589761,0.0
130,130,-0.8120624459838681,-0.8,1,349.0,713.0,1.0,138.0,1,1.3505414475166528,0.0
131,131,-0.5941535750725333,-0.6,1,351.0,983.0,1.0,466.0,1,0.5010721805525267,0.0
132,132,0.3430740930620011,0.3,0,297.0,983.0,0.0,360.0,1,1.835673165166541,0.0
133,133,-0.2826745630305074,-0.3,1,478.0,923.0,1.0,169.0,1,1.5028022903240994,0.0
134,134,0.5051754745291024,0.5,0,413.0,957.0,0.0,200.0,1,0.7912105710713548,0.0
135,135,0.8233288170640396,0.8,0,337.0,819.0,0.0,194.0,1,0.846909474796746,0.0
136,136,-0.7912054075854245,-0.8,1,460.0,670.0,1.0,130.0,1,1.236708401019596,0.0
137,137,-0.48456480762794274,-0.5,1,365.0,741.0,1.0,144.0,1,1.2175644366750304,0.0
138,138,-0.9949929630091185,-1.0,1,394.0,775.0,1.0,151.0,1,1.3721674859677782,0.0
139,139,-0.37674338417718123,-0.4,1,262.0,700.0,1.0,138.0,1,0.9145083083811316,0.0
140,140,-0.031367373863635084,-0.0,1,462.0,568.0,0.0,200.0,0,1.7942689223041488,0.0
141,141,-0.9543620624483413,-1.0,1,377.0,795.0,1.0,288.0,1,0.6395717584177409,0.0
142,142,-0.9406614823855728,-0.9,1,254.0,827.0,1.0,769.0,1,0.10672816075699831,0.0
143,143,-0.6144624579170039,-0.6,1,436.0,852.0,1.0,252.0,1,1.419191077157934,0.0
144,144,-0.405939591373609,-0.4,1,338.0,692.0,1.0,470.0,1,0.49735112163226236,0.0
145,145,0.9330879486877124,0.9,0,330.0,949.0,0.0,91.0,1,1.9593504455554733,0.0
146,146,0.23192414517131854,0.2,0,415.0,655.0,0.0,390.0,1,1.7971248747341015,0.0
147,147,0.09887718402701462,0.1,0,388.0,999.0,0.0,543.0,1,1.0923748686476866,0.0
148,148,-0.8728998233485499,-0.9,1,300.0,752.0,1.0,158.0,1,1.7471122194415476,0.0
149,149,0.3056477847770296,0.3,0,264.0,869.0,0.0,1267.0,1,0.24693518219740862,0.0
150,150,-0.46684967943675226,-0.5,1,356.0,657.0,1.0,177.0,1,1.450195903377019,0.0
151,151,-0.6966008345365733,-0.7,1,394.0,812.0,1.0,3794.0,1,0.01830599351336004,0.0
152,152,0.8360744753589568,0.8,0,333.0,791.0,0.0,476.0,1,0.20902402776932338,0.0
153,153,-0.6755084831933831,-0.7,1,404.0,677.0,1.0,609.0,1,0.12223149463514416,0.0
154,154,-0.6201091735501176,-0.6,1,479.0,548.0,1.0,273.0,1,1.7136332988602834,0.0
155,155,-0.1610800419477194,-0.2,1,386.0,692.0,1.0,482.0,1,1.58098703810438,0.0
156,156,-0.6592060586339779,-0.7,1,389.0,990.0,1.0,111.0,1,1.8214105022270834,0.0
157,157,-0.06013571432250142,-0.1,1,257.0,655.0,1.0,778.0,1,0.7199797846965408,0.0
158,158,0.017725575054010623,0.0,0,255.0,840.0,0.0,1835.0,1,0.7132497861977842,0.0
159,159,0.05223375312737932,0.1,0,304.0,602.0,0.0,424.0,1,1.3986450499110579,0.0
160,160,-0.6744841234184311,-0.7,1,492.0,651.0,1.0,197.0,1,1.1216015335736587,0.0
161,161,-0.7902535000160333,-0.8,1,281.0,887.0,1.0,172.0,1,1.281727383824549,0.0
162,162,0.42189528539154386,0.4,0,312.0,783.0,0.0,265.0,1,0.9050173528884513,0.0
163,163,0.06537410688924372,0.1,0,347.0,687.0,0.0,236.0,1,1.6681065229367331,0.0
164,164,0.0339740699059734,0.0,0,311.0,780.0,0.0,3729.0,1,0.12458843455568203,0.0
165,165,0.29685380808256534,0.3,0,270.0,842.0,0.0,538.0,1,0.42997389100326133,0.0
166,166,-0.7205900852443319,-0.7,1,312.0,558.0,1.0,190.0,1,1.124376587376781,0.0
167,167,-0.8907077135484123,-0.9,1,413.0,943.0,1.0,214.0,1,0.8327551886794073,0.0
168,168,-0.4181780441579306,-0.4,1,266.0,644.0,1.0,490.0,1,0.8323317151966432,0.0
169,169,-0.7603829985907533,-0.8,1,410.0,523.0,1.0,217.0,1,0.9222130875037609,0.0
170,170,0.013990011309096273,0.0,0,304.0,833.0,0.0,683.0,1,0.8187115500203856,0.0
171,171,0.25221253597650706,0.3,0,392.0,840.0,0.0,218.0,1,1.9240387104196581,0.0
172,172,-0.16278662762143514,-0.2,1,386.0,996.0,1.0,748.0,1,0.6274847288248135,0.0
173,173,0.16726257034041936,0.2,0,484.0,696.0,0.0,460.0,1,1.0732852973864597,0.0
174,174,-0.6046405038744294,-0.6,1,363.0,937.0,1.0,450.0,1,0.3353641103651763,0.0
175,175,0.5742434536131373,0.6,0,454.0,964.0,0.0,222.0,1,1.5323820163798785,0.0
176,176,0.49327803242389656,0.5,0,254.0,517.0,0.0,59.0,1,1.806616107047142,0.0
177,177,0.052373605307237225,0.1,0,382.0,669.0,0.0,1209.0,1,1.029747029076728,0.0
178,178,-0.13931609967108005,-0.1,1,386.0,695.0,1.0,1539.0,1,0.3138721581398156,0.0
179,179,-0.6049189047649732,-0.6,1,443.0,831.0,1.0,426.0,1,0.33915561919483816,0.0
180,180,0.22120004839466634,0.2,0,327.0,878.0,0.0,805.0,1,0.27310437527906517,0.0
181,181,0.4768743936013369,0.5,0,495.0,867.0,0.0,368.0,1,1.3745834204431164,0.0
182,182,-0.7836667354083873,-0.8,1,352.0,680.0,1.0,208.0,1,1.312796536646611,0.0
183,183,0.3554655492422363,0.4,0,431.0,817.0,0.0,122.0,1,1.8650412968213412,0.0
184,184,-0.8989668283000312,-0.9,1,457.0,980.0,1.0,353.0,1,0.2368862365849651,0.0
185,185,0.4594965715303738,0.5,0,449.0,873.0,0.0,128.0,1,1.6864912517654504,0.0
186,186,-0.7420140286073733,-0.7,1,312.0,763.0,1.0,265.0,1,1.8397641926527448,0.0
187,187,0.7333286887164894,0.7,0,354.0,988.0,0.0,158.0,1,1.7322098459849191,0.0
188,188,-0.836363121733684,-0.8,1,299.0,535.0,1.0,506.0,1,0.17925472463449,0.0
189,189,0.9091998840696878,0.9,0,320.0,965.0,0.0,515.0,1,0.2889017921496013,0.0
190,190,-0.8024478205593437,-0.8,1,358.0,873.0,1.0,199.0,1,1.6795597289304205,0.0
191,191,0.721048106338879,0.7,0,373.0,835.0,0.0,342.0,1,0.4602702393350917,0.0
192,192,0.25470575046340693,0.3,0,366.0,917.0,0.0,237.0,1,1.9318813750744714,0.0
193,193,0.22021102171586016,0.2,0,488.0,830.0,0.0,232.0,1,0.7262619710401446,0.0
194,194,-0.0012999819383550104,-0.0,1,337.0,915.0,1.0,618.0,1,1.8234644692334954,0.0
195,195,-0.9411345111942611,-0.9,1,447.0,858.0,1.0,195.0,1,1.6714233855630607,0.0
196,196,-0.42123164293993254,-0.4,1,468.0,569.0,1.0,563.0,1,1.667086560607606,0.0
197,197,0.7216253655768301,0.7,0,321.0,953.0,0.0,156.0,1,0.6120884224971634,0.0
198,198,0.3846553240543287,0.4,0,338.0,671.0,0.0,2301.0,1,0.0908004404610121,0.0
199,199,-0.5341899595360491,-0.5,1,479.0,561.0,1.0,280.0,1,0.7605942403105377,0.0
200,200,-0.8090275816042956,-0.8,1,458.0,994.0,1.0,478.0,1,0.1899149955762014,0.0
201,201,0.2370992498435478,0.2,0,488.0,559.0,0.0,363.0,1,0.8888498692699471,0.0
202,202,-0.6656599728498269,-0.7,1,496.0,874.0,1.0,190.0,1,1.4703872227692112,0.0
203,203,-0.7422129640208222,-0.7,1,498.0,699.0,1.0,183.0,1,1.3584239493494326,0.0
204,204,-0.46448285709867765,-0.5,1,256.0,505.0,1.0,519.0,1,0.9183086497776995,0.0
205,205,-0.9029488759261108,-0.9,1,496.0,642.0,1.0,192.0,1,1.0702723837993633,0.0
206,206,0.2562368430852442,0.3,0,341.0,645.0,0.0,1554.0,1,0.15360286573836435,0.0
207,207,0.5845208579286667,0.6,0,341.0,589.0,0.0,230.0,1,1.5116551816035229,0.0
208,208,-0.5489865247752539,-0.5,1,404.0,807.0,1.0,269.0,1,0.9696281376168694,0.0
209,209,0.3815936290450679,0.4,0,300.0,832.0,0.0,158.0,1,1.987260008006046,0.0
210,210,-0.8434522236456754,-0.8,1,341.0,957.0,1.0,122.0,1,1.3595284488747057,0.0
211,211,0.7818945175615672,0.8,0,457.0,962.0,0.0,111.0,1,1.8740270358035906,0.0
212,212,-0.056732538398072796,-0.1,1,255.0,540.0,1.0,665.0,1,1.4076996212845514,0.0
213,213,0.2592566194045547,0.3,0,340.0,577.0,0.0,393.0,1,1.601774886953131,0.0
214,214,-0.5959691677583385,-0.6,1,330.0,843.0,1.0,597.0,1,0.39819325729087596,0.0
215,215,-0.40962032388989345,-0.4,1,307.0,705.0,1.0,178.0,1,1.7479356161585273,0.0
216,216,-0.3268786154830896,-0.3,1,441.0,560.0,1.0,1379.0,1,0.15087577814386322,0.0
217,217,-0.02776098763261392,-0.0,1,316.0,889.0,0.0,355.0,0,1.3155220615738625,0.0
218,218,-0.612570176414523,-0.6,1,417.0,750.0,1.0,253.0,1,0.9780805485449808,0.0
219,219,0.47033153224660906,0.5,0,464.0,711.0,0.0,515.0,1,0.3145856026015943,0.0
220,220,0.6631762828007377,0.7,0,372.0,988.0,0.0,330.0,1,0.6390782542726163,0.0
221,221,-0.34061512240145264,-0.3,1,294.0,652.0,1.0,364.0,1,0.3718238428094718,0.0
222,222,0.37735211539081703,0.4,0,451.0,872.0,0.0,487.0,1,0.5939068576217708,0.0
223,223,-0.7455601590607728,-0.7,1,272.0,867.0,1.0,131.0,1,1.6151591793586266,0.0
224,224,0.013148443863953974,0.0,0,337.0,850.0,0.0,3813.0,1,0.22986735506529188,0.0
225,225,0.7040148066697265,0.7,0,387.0,793.0,0.0,1170.0,1,0.11322907899954182,0.0
226,226,-0.9177248978478139,-0.9,1,275.0,749.0,1.0,136.0,1,1.819412794967528,0.0
227,227,0.5617981318324241,0.6,0,360.0,920.0,0.0,110.0,1,1.9339395202541445,0.0
228,228,0.8774280426169101,0.9,0,328.0,858.0,0.0,154.0,1,1.6977074027493324,0.0
229,229,0.27659181755988893,0.3,0,292.0,804.0,0.0,94.0,1,1.9225961905197089,0.0
230,230,0.3062298619663164,0.3,0,491.0,641.0,0.0,268.0,1,1.2454569655672612,0.0
231,231,0.8483533383089565,0.8,0,324.0,955.0,0.0,211.0,1,0.3409191497416737,0.0
232,232,-0.5340478129717534,-0.5,1,320.0,922.0,1.0,148.0,1,1.1143950443003203,0.0
233,233,0.5665296030638496,0.6,0,430.0,928.0,0.0,392.0,1,0.5906315440574554,0.0
234,234,-0.8827438754857089,-0.9,1,255.0,693.0,1.0,522.0,1,0.19058193311385474,0.0
235,235,-0.6995602096792821,-0.7,1,421.0,706.0,1.0,423.0,1,0.25054256477354,0.0
236,236,0.13829552159791603,0.1,0,324.0,549.0,0.0,697.0,1,0.7233607464430358,0.0
237,237,0.34347281771866967,0.3,0,335.0,603.0,0.0,202.0,1,1.6460715983204186,0.0
238,238,-0.04466885154893285,-0.0,1,472.0,879.0,1.0,619.0,1,1.3695716139476966,0.0
239,239,0.8007571081620994,0.8,0,457.0,679.0,0.0,224.0,1,1.8548816232531011,0.0
240,240,-0.49310362612027125,-0.5,1,391.0,678.0,1.0,311.0,1,1.0001830913542882,0.0
241,241,-0.2127968631020436,-0.2,1,390.0,775.0,1.0,775.0,1,0.6318229311414321,0.0
242,242,-0.7194335143168105,-0.7,1,282.0,501.0,1.0,147.0,1,0.6129135779242536,0.0
243,243,-0.23403861059524145,-0.2,1,499.0,773.0,1.0,628.0,1,1.736641795846114,0.0
244,244,-0.3297562317351155,-0.3,1,495.0,751.0,1.0,94.0,1,1.405835907293185,0.0
245,245,0.3577248026133377,0.4,0,455.0,836.0,0.0,469.0,1,0.5417569133483793,0.0
246,246,0.514146427794022,0.5,0,337.0,727.0,0.0,516.0,1,0.37741728857763523,0.0
247,247,-0.31279369594010875,-0.3,1,327.0,794.0,1.0,219.0,1,1.4174268285916731,0.0
248,248,-0.3623733813851233,-0.4,1,463.0,620.0,1.0,757.0,1,0.7136764986632538,0.0
249,249,0.13148168312347974,0.1,0,406.0,844.0,0.0,320.0,1,1.9887688736859381,0.0
250,250,0.682465756295257,0.7,0,361.0,569.0,0.0,290.0,1,0.7658972236309853,0.0
251,251,0.06646853343967707,0.1,0,381.0,867.0,0.0,292.0,1,0.8319895570870797,0.0
252,252,0.0060569358771307424,0.0,0,348.0,907.0,0.0,3745.0,1,0.36068110164239586,0.0
253,253,-0.7479331924206942,-0.7,1,460.0,891.0,1.0,639.0,1,0.1673056786524123,0.0
254,254,0.00146162511355441,0.0,0,296.0,880.0,0.0,634.0,1,0.5385431862884322,0.0
255,255,0.6214759230372016,0.6,0,334.0,577.0,0.0,479.0,1,0.2263285868292093,0.0
256,256,0.9695470332592022,1.0,0,313.0,762.0,0.0,245.0,1,0.3616025866991788,0.0
257,257,0.8902944533728463,0.9,0,254.0,765.0,0.0,81.0,1,1.848286317795001,0.0
258,258,0.7941180686753153,0.8,0,255.0,837.0,0.0,118.0,1,1.8948115930707372,0.0
259,259,0.8473091915964437,0.8,0,372.0,862.0,0.0,216.0,1,0.6736300113723686,0.0
260,260,-0.789941275333619,-0.8,1,429.0,854.0,1.0,247.0,1,0.30729935387729124,0.0
261,261,-0.8053096640314648,-0.8,1,451.0,941.0,1.0,518.0,1,0.35351082924962696,0.0
262,262,0.1455200256100817,0.1,0,329.0,547.0,0.0,424.0,1,0.9835909151729447,0.0
263,263,-0.5452253326025418,-0.5,1,485.0,894.0,1.0,941.0,1,0.15310481926063413,0.0
264,264,-0.6235556347003022,-0.6,1,400.0,976.0,1.0,244.0,1,1.009746358363563,0.0
265,265,-0.666011092721803,-0.7,1,481.0,937.0,1.0,332.0,1,0.942405096845031,0.0
266,266,-0.4034446548012993,-0.4,1,266.0,804.0,1.0,200.0,1,0.7954652742333601,0.0
267,267,-0.6909367253509113,-0.7,1,265.0,906.0,1.0,169.0,1,1.5288614815881651,0.0
268,268,-0.11272784934902957,-0.1,1,497.0,712.0,1.0,3201.0,1,0.24371192046574564,0.0
269,269,0.1394688614401025,0.1,0,465.0,564.0,0.0,771.0,1,0.3574145418630146,0.0
270,270,0.1707271629832945,0.2,0,312.0,789.0,0.0,279.0,1,0.8710839671000778,0.0
271,271,0.7787641666751277,0.8,0,266.0,690.0,0.0,104.0,1,1.4058373699193518,0.0
272,272,0.12098031200791204,0.1,0,321.0,978.0,0.0,541.0,1,1.0133505710984771,0.0
273,273,0.27767782960291676,0.3,0,257.0,600.0,0.0,173.0,1,1.3570596810924103,0.0
274,274,0.3452260019509641,0.3,0,370.0,678.0,0.0,252.0,1,0.38896931744382934,0.0
275,275,-0.28473395300014803,-0.3,1,299.0,681.0,1.0,100.0,1,1.8251514360557626,0.0
276,276,-0.6714269752177593,-0.7,1,373.0,736.0,1.0,211.0,1,0.9049289313157864,0.0
277,277,0.528176814449252,0.5,0,302.0,827.0,0.0,3871.0,1,0.02536100343005665,0.0
278,278,0.9446114817229216,0.9,0,392.0,871.0,0.0,367.0,1,0.28687502029884304,0.0
279,279,0.07401084353345766,0.1,0,403.0,780.0,0.0,1317.0,1,0.22693059520288372,0.0
280,280,-0.12707126014710624,-0.1,1,469.0,914.0,1.0,917.0,1,0.3871583376398957,0.0
281,281,0.7564538026197616,0.8,0,357.0,852.0,0.0,341.0,1,0.9562175178319947,0.0
282,282,-0.43606248660164226,-0.4,1,367.0,607.0,1.0,366.0,1,1.2441297463229013,0.0
283,283,-0.1331794031731801,-0.1,1,371.0,995.0,1.0,924.0,1,0.9633569934060899,0.0
284,284,0.6581946279283011,0.7,0,436.0,919.0,0.0,185.0,1,0.8613115582082818,0.0
285,285,0.7458047952897822,0.7,0,277.0,713.0,0.0,220.0,1,0.7548179610230903,0.0
286,286,-0.2986681757722467,-0.3,1,460.0,956.0,1.0,294.0,1,1.2678094017078037,0.0
287,287,0.7068303929578332,0.7,0,411.0,698.0,0.0,91.0,1,1.428264399585822,0.0
288,288,0.9001424904159185,0.9,0,430.0,680.0,0.0,260.0,1,0.7129478233305977,0.0
289,289,-0.8092080973788103,-0.8,1,356.0,622.0,1.0,512.0,1,0.2360975785432542,0.0
290,290,-0.7054456773336006,-0.7,1,274.0,655.0,1.0,261.0,1,0.4926442650354075,0.0
291,291,0.27787607432792516,0.3,0,412.0,937.0,0.0,201.0,1,1.457071408507565,0.0
292,292,0.08555660578115054,0.1,0,364.0,715.0,0.0,171.0,1,1.0662500119545726,0.0
293,293,-0.8000088122435938,-0.8,1,343.0,880.0,1.0,157.0,1,1.0485160921222945,0.0
294,294,-0.5963716918004385,-0.6,1,413.0,622.0,1.0,305.0,1,1.415279787377874,0.0
295,295,0.5642800997556341,0.6,0,442.0,993.0,0.0,195.0,1,0.7772492156140134,0.0
296,296,-0.17219275403799084,-0.2,1,467.0,960.0,1.0,1013.0,1,0.5522991056674442,0.0
297,297,-0.6846683173843147,-0.7,1,263.0,621.0,1.0,1006.0,1,0.07082211031416574,0.0
298,298,-0.9775400863528396,-1.0,1,478.0,556.0,1.0,116.0,1,1.9219656440813309,0.0
299,299,-0.6350556106471701,-0.6,1,321.0,901.0,1.0,228.0,1,1.5505868543343673,0.0
300,300,-0.2708157970148315,-0.3,1,498.0,823.0,1.0,329.0,1,0.8584284419773491,0.0
301,301,0.5511582903534269,0.6,0,299.0,607.0,0.0,544.0,1,0.4366470242517366,0.0
302,302,-0.5029966587551438,-0.5,1,306.0,779.0,1.0,215.0,1,1.6660247941505844,0.0
303,303,0.9431041378369798,0.9,0,411.0,798.0,0.0,261.0,1,0.40778793363459753,0.0
304,304,-0.4037624324195972,-0.4,1,293.0,824.0,1.0,393.0,1,0.8664872858347024,0.0
305,305,0.43412686498600084,0.4,0,406.0,974.0,0.0,340.0,1,1.161962194283597,0.0
306,306,0.5297284980528842,0.5,0,447.0,507.0,0.0,906.0,1,0.13486228398708766,0.0
307,307,-0.06812010545526159,-0.1,1,358.0,815.0,0.0,2917.0,0,0.2862074562670949,0.0
308,308,0.8485836630304873,0.8,0,377.0,677.0,0.0,226.0,1,0.974443435090369,0.0
309,309,0.07310843329241146,0.1,0,475.0,757.0,0.0,828.0,1,1.305653055635007,0.0
310,310,-0.6765219363198967,-0.7,1,488.0,711.0,1.0,281.0,1,0.8862153203566043,0.0
311,311,0.947867194850855,0.9,0,315.0,689.0,0.0,106.0,1,1.7856743249872253,0.0
312,312,0.7052701076073002,0.7,0,330.0,506.0,0.0,174.0,1,0.7085856138008777,0.0
313,313,-0.7322821460067483,-0.7,1,424.0,867.0,1.0,129.0,1,1.3237627160134593,0.0
314,314,-0.637891362566944,-0.6,1,298.0,948.0,1.0,604.0,1,0.22436175847193285,0.0
315,315,-0.2748526859880964,-0.3,1,448.0,997.0,1.0,475.0,1,0.9862722903012082,0.0
316,316,-0.7352927361472466,-0.7,1,401.0,825.0,1.0,254.0,1,0.3496016556032777,0.0
317,317,-0.8846866994416438,-0.9,1,301.0,954.0,1.0,175.0,1,0.8294392175088654,0.0
318,318,0.15287875854285127,0.2,0,426.0,651.0,0.0,253.0,1,1.363809606135905,0.0
319,319,0.2356610293011967,0.2,0,416.0,987.0,0.0,247.0,1,0.9323010347909078,0.0
320,320,-0.2734085076820998,-0.3,1,276.0,707.0,1.0,1017.0,1,0.9202759057345025,0.0
321,321,-0.7393171396893954,-0.7,1,262.0,644.0,1.0,84.0,1,1.88036777625578,0.0
322,322,0.11986785717146264,0.1,0,416.0,800.0,0.0,764.0,1,1.3696584350102177,0.0
323,323,0.862309656428891,0.9,0,408.0,783.0,0.0,279.0,1,0.4169212530123323,0.0
324,324,-0.8652985359305221,-0.9,1,467.0,632.0,1.0,121.0,1,1.2926472852206745,0.0
325,325,-0.12305300288877064,-0.1,1,446.0,512.0,0.0,432.0,0,0.9690009092971938,0.0
326,326,-0.6118584131750187,-0.6,1,387.0,601.0,1.0,312.0,1,1.0392480880570314,0.0
327,327,0.542101466668111,0.5,0,291.0,773.0,0.0,266.0,1,0.9853049282952615,0.0
328,328,-0.4346104747375048,-0.4,1,287.0,512.0,1.0,211.0,1,1.4590377017964333,0.0
329,329,0.2740037973861824,0.3,0,453.0,591.0,0.0,256.0,1,1.935550188627277,0.0
330,330,0.3320284087703922,0.3,0,272.0,933.0,0.0,305.0,1,1.5654455348369998,0.0
331,331,0.782733157235596,0.8,0,280.0,802.0,0.0,198.0,1,1.8168554349978299,0.0
332,332,0.10834699888008137,0.1,0,330.0,507.0,0.0,1913.0,1,0.24891947573197393,0.0
333,333,-0.4613986607089364,-0.5,1,302.0,862.0,1.0,76.0,1,1.7385554507937078,0.0
334,334,-0.08447368307867142,-0.1,1,490.0,727.0,1.0,1673.0,1,0.17455622368322055,0.0
335,335,0.2530451875297428,0.3,0,288.0,827.0,0.0,155.0,1,1.2312472986453398,0.0
336,336,-0.6050432882553443,-0.6,1,439.0,520.0,1.0,301.0,1,0.4330016695985275,0.0
337,337,0.09842042829781183,0.1,0,376.0,986.0,0.0,2798.0,1,0.27628202635251164,0.0
338,338,-0.6639585066617932,-0.7,1,436.0,586.0,1.0,228.0,1,1.030422145433821,0.0
339,339,-0.8366820839767866,-0.8,1,272.0,673.0,1.0,375.0,1,0.5106020050090723,0.0
340,340,-0.6658313275533665,-0.7,1,314.0,913.0,1.0,193.0,1,0.9613145434189097,0.0
341,341,-0.9102667440460006,-0.9,1,464.0,535.0,1.0,221.0,1,0.9945652420753048,0.0
342,342,-0.6889008482883456,-0.7,1,395.0,839.0,1.0,426.0,1,0.5800761555793501,0.0
343,343,0.9138987480020371,0.9,0,371.0,863.0,0.0,86.0,1,1.699486278872713,0.0
344,344,0.9895236754555805,1.0,0,401.0,954.0,0.0,105.0,1,1.8086818674540337,0.0
345,345,0.7559694178749428,0.8,0,447.0,612.0,0.0,221.0,1,0.7880229422239675,0.0
346,346,-0.890584800719175,-0.9,1,260.0,999.0,1.0,141.0,1,1.4191182575411447,0.0
347,347,-0.35898062516843887,-0.4,1,428.0,714.0,1.0,388.0,1,0.8063353883298376,0.0
348,348,0.9575922806349195,1.0,0,344.0,664.0,0.0,302.0,1,0.2638164876691107,0.0
349,349,0.12264113257891363,0.1,0,338.0,988.0,0.0,1034.0,1,0.20256989406894332,0.0
350,350,0.8186153372019305,0.8,0,270.0,691.0,0.0,109.0,1,1.656579893703011,0.0
351,351,0.5133415244850754,0.5,0,394.0,676.0,0.0,130.0,1,0.766620597232188,0.0
352,352,-0.7299050184520295,-0.7,1,384.0,611.0,1.0,395.0,1,0.6543277245798982,0.0
353,353,0.49947249973929964,0.5,0,369.0,650.0,0.0,321.0,1,1.1357301740360837,0.0
354,354,0.6722129494518767,0.7,0,309.0,975.0,0.0,296.0,1,0.5135602321233275,0.0
355,355,-0.8180154608335801,-0.8,1,350.0,659.0,1.0,381.0,1,0.3172307442489388,0.0
356,356,0.39560503822143533,0.4,0,364.0,606.0,0.0,300.0,1,1.7744592074231986,0.0
357,357,0.7033370781891142,0.7,0,426.0,776.0,0.0,218.0,1,0.5776749320936034,0.0
358,358,0.9357397193436947,0.9,0,259.0,663.0,0.0,198.0,1,0.33595243992443313,0.0
359,359,-0.6905744810431877,-0.7,1,250.0,608.0,1.0,202.0,1,0.6926838308298795,0.0
360,360,0.7968414140644833,0.8,0,486.0,764.0,0.0,110.0,1,1.5566785003607377,0.0
361,361,0.20233548347049513,0.2,0,432.0,523.0,0.0,415.0,1,0.7177222155610765,0.0
362,362,-0.4258962372876869,-0.4,1,468.0,747.0,1.0,215.0,1,1.1863949639253453,0.0
363,363,-0.41438146483737404,-0.4,1,305.0,724.0,1.0,321.0,1,1.203314103375366,0.0
364,364,-0.24137993220959042,-0.2,1,428.0,846.0,1.0,716.0,1,1.1230778922675486,0.0
365,365,0.5915919850604332,0.6,0,344.0,885.0,0.0,521.0,1,0.5498547130481302,0.0
366,366,0.958348178817408,1.0,0,283.0,787.0,0.0,130.0,1,1.2796297416067184,0.0
367,367,0.7276465992733199,0.7,0,251.0,722.0,0.0,267.0,1,1.1509240406338284,0.0
368,368,0.47676020887381076,0.5,0,432.0,818.0,0.0,530.0,1,1.5032623051755647,0.0
369,369,-0.817242837332266,-0.8,1,415.0,894.0,1.0,521.0,1,0.30891155246146806,0.0
370,370,-0.4997001751465968,-0.5,1,279.0,779.0,1.0,292.0,1,1.6223996883325968,0.0
371,371,0.056413292019183325,0.1,0,392.0,852.0,0.0,2676.0,1,0.15240155448810833,0.0
372,372,0.14266705193336837,0.1,0,429.0,975.0,0.0,1026.0,1,0.8194687707464843,0.0
373,373,0.012068517994332284,0.0,0,346.0,974.0,0.0,480.0,1,1.8483892289324475,0.0
374,374,-0.8107490518646456,-0.8,1,349.0,974.0,1.0,287.0,1,0.22394037608888873,0.0
375,375,-0.9400606563483103,-0.9,1,449.0,853.0,1.0,348.0,1,0.45539494563511584,0.0
376,376,0.9331723462891612,0.9,0,297.0,625.0,0.0,138.0,1,1.062149909927977,0.0
377,377,0.9556656723972421,1.0,0,473.0,889.0,0.0,118.0,1,1.4523607383262347,0.0
378,378,-0.7281107559631168,-0.7,1,386.0,829.0,1.0,275.0,1,0.7198263687442572,0.0
379,379,-0.5445034180420338,-0.5,1,327.0,843.0,1.0,500.0,1,1.1531425226254006,0.0
380,380,-0.3550593883322346,-0.4,1,497.0,982.0,1.0,851.0,1,0.4113933407973416,0.0
381,381,0.44039239554863996,0.4,0,329.0,788.0,0.0,283.0,1,0.7239339519997547,0.0
382,382,0.0520233653687554,0.1,0,254.0,885.0,0.0,2781.0,1,0.1217815208798001,0.0
383,383,-0.28932643892998633,-0.3,1,354.0,572.0,1.0,214.0,1,1.7335907206790326,0.0
384,384,0.2407195665835291,0.2,0,329.0,860.0,0.0,251.0,1,1.3815495363162371,0.0
385,385,-0.6899615869920079,-0.7,1,288.0,818.0,1.0,94.0,1,1.4149648809676907,0.0
386,386,-0.6887764921362722,-0.7,1,404.0,653.0,1.0,153.0,1,1.4985879248135499,0.0
387,387,0.9339114865338778,0.9,0,261.0,650.0,0.0,159.0,1,1.0970547462801505,0.0
388,388,-0.9530118428017376,-1.0,1,492.0,795.0,1.0,203.0,1,0.9762135076290535,0.0
389,389,0.42510332811310714,0.4,0,431.0,941.0,0.0,208.0,1,1.4303568747778732,0.0
390,390,-0.7070501673397378,-0.7,1,423.0,544.0,1.0,273.0,1,0.2832743963402078,0.0
391,391,-0.22586770363673403,-0.2,1,401.0,548.0,1.0,781.0,1,1.5651204631342033,0.0
392,392,-0.041964789692473525,-0.0,1,323.0,933.0,0.0,944.0,0,0.5515969884145591,0.0
393,393,-0.9671563384636928,-1.0,1,342.0,779.0,1.0,669.0,1,0.08266180235469589,0.0
394,394,0.2593247675358885,0.3,0,347.0,795.0,0.0,268.0,1,0.6554191397643288,0.0
395,395,-0.5201592935796207,-0.5,1,258.0,807.0,1.0,235.0,1,1.464993442945427,0.0
396,396,0.6054655051057263,0.6,0,292.0,818.0,0.0,230.0,1,1.194758063541166,0.0
397,397,0.26746281781397707,0.3,0,422.0,800.0,0.0,3778.0,1,0.08197271067847356,0.0
398,398,0.6180175405669779,0.6,0,324.0,624.0,0.0,282.0,1,1.8100046275308228,0.0
399,399,-0.21354880842136548,-0.2,1,378.0,544.0,1.0,468.0,1,0.6131700753394356,0.0
400,400,-0.892569949314082,-0.9,1,445.0,619.0,1.0,176.0,1,1.1535895375438254,0.0
401,401,-0.7769937290676117,-0.8,1,360.0,533.0,1.0,247.0,1,1.0847565932226306,0.0
402,402,-0.6781076041601595,-0.7,1,278.0,856.0,1.0,156.0,1,0.9951595927023498,0.0
403,403,-0.6510760445717847,-0.7,1,464.0,936.0,1.0,1000.0,1,0.08611340751706908,0.0
404,404,0.6553901622405074,0.7,0,325.0,894.0,0.0,981.0,1,0.17288723129416717,0.0
405,405,-0.8428536383248828,-0.8,1,340.0,710.0,0.0,-720.0,0,1.9704851988719734,0.0
406,406,-0.47479003852726787,-0.5,1,319.0,962.0,1.0,209.0,1,1.434485946688832,0.0
407,407,0.7091406563155966,0.7,0,293.0,954.0,0.0,893.0,1,0.14536766987967087,0.0
408,408,-0.6598970075177886,-0.7,1,283.0,722.0,1.0,2525.0,1,0.028402263036028774,0.0
409,409,0.2729395220401336,0.3,0,433.0,776.0,0.0,531.0,1,1.0154673040998772,0.0
410,410,0.8351621705233128,0.8,0,266.0,799.0,0.0,3935.0,1,0.044748224202606934,0.0
411,411,0.1681541434379148,0.2,0,351.0,884.0,1.0,535.0,0,1.2165643933569459,0.0
412,412,0.26155351253644676,0.3,0,448.0,936.0,0.0,266.0,1,1.9933899869350369,0.0
413,413,-0.876441449045199,-0.9,1,465.0,982.0,1.0,183.0,1,1.0733212681221327,0.0
414,414,-0.2692233606763228,-0.3,1,397.0,632.0,1.0,1471.0,1,0.30692914623271705,0.0
415,415,0.9503504526333628,1.0,0,441.0,967.0,0.0,72.0,1,1.4854920844938222,0.0
416,416,0.31525606500615133,0.3,0,277.0,584.0,0.0,939.0,1,0.7020742763864434,0.0
417,417,0.9144651296046711,0.9,0,436.0,766.0,0.0,308.0,1,0.29028695313299213,0.0
418,418,-0.3660475114174233,-0.4,1,382.0,999.0,1.0,829.0,1,0.1496245172947921,0.0
419,419,-0.692738712591306,-0.7,1,436.0,756.0,1.0,268.0,1,1.1164339203230524,0.0
420,420,-0.39119550490226174,-0.4,1,426.0,929.0,1.0,505.0,1,1.861709694263329,0.0
421,421,-0.17990866765553082,-0.2,1,435.0,922.0,1.0,433.0,1,1.865072839537652,0.0
422,422,-0.19935257812200713,-0.2,1,485.0,899.0,1.0,1126.0,1,0.24514320792587196,0.0
423,423,-0.4558004800195805,-0.5,1,350.0,516.0,1.0,154.0,1,1.328295412760829,0.0
424,424,-0.7597201356464165,-0.8,1,256.0,800.0,1.0,984.0,1,0.07737678914150758,0.0
425,425,0.1746709498253458,0.2,0,254.0,693.0,0.0,213.0,1,0.49877660114494016,0.0
426,426,0.5646137731130565,0.6,0,357.0,513.0,0.0,280.0,1,1.1762514465505414,0.0
427,427,-0.7116097900825318,-0.7,1,402.0,847.0,1.0,121.0,1,1.9681341526635276,0.0
428,428,-0.10970248364017565,-0.1,1,309.0,756.0,1.0,455.0,1,1.6431586133584066,0.0
429,429,0.43106584101425827,0.4,0,338.0,630.0,0.0,132.0,1,1.0783812517981917,0.0
430,430,-0.7735532232176798,-0.8,1,489.0,880.0,1.0,381.0,1,0.4268154866312799,0.0
431,431,-0.7949896066819315,-0.8,1,404.0,528.0,1.0,98.0,1,1.4137435396091864,0.0
432,432,0.24696284449298145,0.2,0,316.0,839.0,0.0,3845.0,1,0.023076147948010606,0.0
433,433,0.4744717586198477,0.5,0,397.0,907.0,0.0,206.0,1,1.8853719066618646,0.0
434,434,-0.6773350972112431,-0.7,1,453.0,920.0,1.0,407.0,1,0.739893131275859,0.0
435,435,0.9895164302816906,1.0,0,454.0,877.0,0.0,149.0,1,1.8239047352594338,0.0
436,436,0.5935523090971317,0.6,0,385.0,704.0,0.0,201.0,1,0.9673347901183558,0.0
437,437,0.6930223860582803,0.7,0,339.0,768.0,0.0,203.0,1,0.5514457641863235,0.0
438,438,0.6576101608090996,0.7,0,488.0,951.0,0.0,251.0,1,1.515612734701073,0.0
439,439,0.9284797597956169,0.9,0,299.0,844.0,0.0,147.0,1,1.2959336521130242,0.0
440,440,0.6849222321454935,0.7,0,338.0,754.0,0.0,448.0,1,0.21147230557407304,0.0
441,441,0.557346001902012,0.6,0,389.0,519.0,0.0,842.0,1,0.26508573140770886,0.0
442,442,-0.3981612705480866,-0.4,1,269.0,833.0,1.0,1388.0,1,0.11841328158125997,0.0
443,443,0.29977796090871056,0.3,0,474.0,605.0,0.0,231.0,1,1.0719766521248737,0.0
444,444,-0.01855550431906816,-0.0,1,330.0,624.0,0.0,4046.0,0,0.24479647249923642,0.0
445,445,0.6074612985663692,0.6,0,255.0,753.0,0.0,292.0,1,0.6632046866741159,0.0
446,446,-0.47656523994075295,-0.5,1,428.0,875.0,1.0,257.0,1,1.6402955161029746,0.0
447,447,-0.7574834391954302,-0.8,1,495.0,663.0,1.0,3462.0,1,0.024055774332135238,0.0
448,448,-0.7163778024460097,-0.7,1,301.0,654.0,1.0,375.0,1,0.9801190172523055,0.0
449,449,-0.2908672221656339,-0.3,1,486.0,600.0,1.0,524.0,1,0.6180690351147304,0.0
450,450,-0.5158139385446818,-0.5,1,262.0,611.0,1.0,247.0,1,1.366457825766493,0.0
451,451,0.7796341059257343,0.8,0,317.0,805.0,0.0,158.0,1,1.7738271598058117,0.0
452,452,-0.6084503225507341,-0.6,1,269.0,804.0,1.0,247.0,1,1.389606377322836,0.0
453,453,0.29440551154958694,0.3,0,276.0,749.0,0.0,425.0,1,1.609456852248262,0.0
454,454,0.8836750572881218,0.9,0,282.0,785.0,0.0,113.0,1,0.655528365212229,0.0
455,455,-0.9166938997672729,-0.9,1,451.0,760.0,1.0,159.0,1,0.7672583140168228,0.0
456,456,-0.6006082083940556,-0.6,1,298.0,916.0,1.0,116.0,1,1.33405431423561,0.0
457,457,0.9965185616693946,1.0,0,490.0,925.0,0.0,145.0,1,1.8522741989817273,0.0
458,458,0.36736821437546086,0.4,0,440.0,732.0,0.0,508.0,1,0.2645172014466277,0.0
459,459,0.5506203694873268,0.6,0,302.0,710.0,0.0,198.0,1,1.9854760739627346,0.0
460,460,-0.4458808904840459,-0.4,1,495.0,763.0,1.0,302.0,1,1.3401192654246774,0.0
461,461,-0.6903764442888161,-0.7,1,400.0,769.0,1.0,191.0,1,1.4427234853061348,0.0
462,462,0.3189894345966662,0.3,0,405.0,839.0,0.0,546.0,1,0.505382220408743,0.0
463,463,0.8764034148937903,0.9,0,410.0,645.0,0.0,145.0,1,1.0990411120765995,0.0
464,464,-0.8967721619247164,-0.9,1,402.0,891.0,1.0,167.0,1,1.3494962893818654,0.0
465,465,-0.6213730616596673,-0.6,1,280.0,966.0,1.0,294.0,1,0.5122510110950504,0.0
466,466,0.4559365135046374,0.5,0,334.0,582.0,0.0,254.0,1,0.965723762154864,0.0
467,467,-0.34800755790634375,-0.3,1,289.0,932.0,1.0,469.0,1,1.9242552181328398,0.0
468,468,0.47250333165285574,0.5,0,424.0,981.0,0.0,805.0,1,0.2986188478728091,0.0
469,469,0.11016594261145563,0.1,0,386.0,817.0,0.0,877.0,1,0.2421512713792,0.0
470,470,0.2645973771384278,0.3,0,470.0,626.0,0.0,404.0,1,0.9586214652263709,0.0
471,471,0.9183767418925104,0.9,0,311.0,783.0,0.0,136.0,1,1.2093073269215353,0.0
472,472,0.7526775227968561,0.8,0,361.0,810.0,0.0,169.0,1,1.1187205693498403,0.0
473,473,-0.4133048625351805,-0.4,1,352.0,563.0,1.0,605.0,1,1.0606647300539371,0.0
474,474,0.1723447478211111,0.2,0,341.0,590.0,0.0,519.0,1,1.5729572058366856,0.0
475,475,-0.3926881766767796,-0.4,1,494.0,582.0,1.0,354.0,1,1.6081007678695347,0.0
476,476,-0.15232319542512407,-0.2,1,360.0,767.0,1.0,863.0,1,0.668784587970549,0.0
477,477,-0.15175323470592295,-0.2,1,298.0,947.0,1.0,935.0,1,0.5715840654085795,0.0
478,478,-0.8631824888137807,-0.9,1,418.0,648.0,1.0,204.0,1,1.3272651489586285,0.0
479,479,0.4745476275141949,0.5,0,296.0,688.0,0.0,146.0,1,1.9227306668731672,0.0
480,480,0.1944185690469169,0.2,0,460.0,917.0,0.0,2133.0,1,0.48591521196348975,0.0
481,481,-0.4413784981728073,-0.4,1,452.0,734.0,1.0,334.0,1,0.8419175785649224,0.0
482,482,0.48882090512902976,0.5,0,421.0,679.0,0.0,320.0,1,1.7648958633661302,0.0
483,483,-0.5218257107836386,-0.5,1,485.0,669.0,1.0,356.0,1,0.9604053882355807,0.0
484,484,0.16564739071409162,0.2,0,494.0,833.0,0.0,623.0,1,1.2065471153932716,0.0
485,485,-0.018451362626569434,-0.0,1,277.0,845.0,0.0,408.0,0,1.218891749150569,0.0
486,486,0.6787900715815791,0.7,0,394.0,764.0,0.0,292.0,1,0.7340264641949561,0.0
487,487,0.12582573180714074,0.1,0,377.0,718.0,0.0,215.0,1,1.5461621255424922,0.0
488,488,-0.054713451686402514,-0.1,1,443.0,986.0,1.0,161.0,1,0.6818477033539532,0.0
489,489,-0.5878205107577958,-0.6,1,400.0,525.0,1.0,185.0,1,0.6922654251004465,0.0
490,490,-0.6343990882258201,-0.6,1,469.0,966.0,1.0,445.0,1,0.8106439373322774,0.0
491,491,0.003875420670401475,0.0,0,301.0,691.0,0.0,138.0,1,1.9423678038588248,0.0
492,492,-0.2567429024370895,-0.3,1,414.0,902.0,1.0,144.0,1,1.7282884025715035,0.0
493,493,0.2250185284421231,0.2,0,451.0,709.0,0.0,470.0,1,1.5347880265037444,0.0
494,494,-0.8411977731728488,-0.8,1,250.0,593.0,1.0,247.0,1,1.1244328852851313,0.0
495,495,0.08722511571619695,0.1,0,314.0,777.0,1.0,199.0,0,1.944752767832734,0.0
496,496,-0.8910976288389723,-0.9,1,443.0,623.0,1.0,254.0,1,0.8195222628621786,0.0
497,497,0.35004492644959284,0.4,0,360.0,748.0,0.0,452.0,1,0.4282204341842568,0.0
498,498,0.5976029793674051,0.6,0,271.0,715.0,0.0,54.0,1,1.8441042054309156,0.0
499,499,-0.4960829775131901,-0.5,1,303.0,698.0,1.0,149.0,1,1.4295671607110567,0.0
500,500,0.7174027003402559,0.7,0,455.0,563.0,0.0,292.0,1,1.4374658277531964,0.0
501,501,0.6361971323567959,0.6,0,454.0,875.0,0.0,421.0,1,0.36742234502650417,0.0
502,502,0.01946721460910039,0.0,0,459.0,621.0,0.0,130.0,1,1.8646792928889087,0.0
503,503,-0.8095269074700979,-0.8,1,445.0,982.0,1.0,83.0,1,1.5348059393061289,0.0
504,504,0.45924773635348326,0.5,0,308.0,990.0,0.0,132.0,1,1.6418626385135604,0.0
505,505,0.9527932521727751,1.0,0,412.0,727.0,0.0,191.0,1,0.5280173684678331,0.0
506,506,-0.8840755707444907,-0.9,1,379.0,976.0,1.0,135.0,1,1.3690113673238027,0.0
507,507,-0.4283396531678729,-0.4,1,342.0,761.0,1.0,277.0,1,0.9775097901942209,0.0
508,508,-0.15933964923734356,-0.2,1,258.0,538.0,1.0,1834.0,1,0.3080315146421633,0.0
509,509,0.8236539672599617,0.8,0,398.0,921.0,0.0,721.0,1,0.11924222171235521,0.0
510,510,-0.0777361511872694,-0.1,1,416.0,659.0,1.0,1805.0,1,0.21830612685720863,0.0
511,511,-0.6588967318907268,-0.7,1,402.0,626.0,1.0,202.0,1,1.0418621054437158,0.0
512,512,-0.40482470380007096,-0.4,1,299.0,911.0,1.0,480.0,1,0.748775591890958,0.0
513,513,-0.2698636770491676,-0.3,1,436.0,940.0,1.0,334.0,1,1.9179521865020175,0.0
514,514,-0.8292202591836613,-0.8,1,332.0,840.0,1.0,188.0,1,1.5337514683944398,0.0
515,515,0.2643833254650718,0.3,0,340.0,706.0,0.0,224.0,1,1.7156663438314839,0.0
516,516,0.5317337045958959,0.5,0,454.0,788.0,0.0,328.0,1,1.2830040064646822,0.0
517,517,-0.9607066693989923,-1.0,1,392.0,587.0,1.0,181.0,1,1.1822670745059547,0.0
518,518,-0.8071957414376965,-0.8,1,275.0,906.0,1.0,129.0,1,1.671687073478981,0.0
519,519,-0.03782788526092995,-0.0,1,425.0,898.0,1.0,937.0,1,1.7253995739692813,0.0
520,520,0.02725273342232626,0.0,0,499.0,605.0,0.0,416.0,1,0.9729485557942763,0.0
521,521,-0.5545549636342979,-0.6,1,442.0,684.0,1.0,234.0,1,0.5285777952624049,0.0
522,522,0.6558742514051477,0.7,0,378.0,501.0,0.0,191.0,1,1.6043043885698771,0.0
523,523,-0.7054309403251802,-0.7,1,425.0,778.0,1.0,367.0,1,0.2367980084679826,0.0
524,524,-0.504054768234629,-0.5,1,418.0,786.0,1.0,1296.0,1,0.06204763299369831,0.0
525,525,0.8610388885205367,0.9,0,359.0,789.0,0.0,112.0,1,1.9385469131537065,0.0
526,526,-0.9146599056439779,-0.9,1,487.0,523.0,1.0,300.0,1,1.0059607718224548,0.0
527,527,-0.7115355630050448,-0.7,1,307.0,972.0,1.0,341.0,1,0.3167765143132495,0.0
528,528,-0.7113861317931993,-0.7,1,485.0,902.0,1.0,193.0,1,0.6912284464041021,0.0
529,529,-0.810645282095301,-0.8,1,314.0,832.0,1.0,134.0,1,1.8530522360492292,0.0
530,530,-0.22271232890158021,-0.2,1,419.0,930.0,1.0,1461.0,1,0.3708499153772049,0.0
531,531,-0.9360385456507399,-0.9,1,353.0,707.0,1.0,200.0,1,0.5167017920362811,0.0
532,532,0.7924081806487668,0.8,0,261.0,563.0,0.0,126.0,1,1.4915736134844326,0.0
533,533,0.7031531562192754,0.7,0,455.0,821.0,0.0,324.0,1,0.3647240116025372,0.0
534,534,-0.3337497731842316,-0.3,1,317.0,531.0,1.0,192.0,1,1.2902483178659565,0.0
535,535,-0.17691448984520997,-0.2,1,364.0,930.0,1.0,576.0,1,0.4280765565872944,0.0
536,536,-0.6948043924941731,-0.7,1,322.0,510.0,1.0,358.0,1,0.676703855955366,0.0
537,537,-0.325320812004811,-0.3,1,371.0,816.0,1.0,403.0,1,1.378441114019937,0.0
538,538,0.6799802185491397,0.7,0,478.0,909.0,0.0,313.0,1,0.9598281572973977,0.0
539,539,0.6243206370724992,0.6,0,280.0,792.0,0.0,208.0,1,1.7796579352361466,0.0
540,540,-0.811564446086255,-0.8,1,435.0,659.0,1.0,136.0,1,1.5788475622174396,0.0
541,541,-0.7361178014616407,-0.7,1,269.0,871.0,1.0,960.0,1,0.08084180784995465,0.0
542,542,0.3209494148273784,0.3,0,310.0,629.0,0.0,281.0,1,1.255506631895121,0.0
543,543,-0.6899303823846898,-0.7,1,288.0,806.0,1.0,1316.0,1,0.06545684597687718,0.0
544,544,-0.5765506187168195,-0.6,1,437.0,550.0,1.0,363.0,1,0.2056660306228475,0.0
545,545,0.420378283887787,0.4,0,320.0,974.0,0.0,206.0,1,1.9867939388002924,0.0
546,546,0.8091737075520324,0.8,0,496.0,908.0,0.0,306.0,1,0.7261577896985854,0.0
547,547,0.31541164172812297,0.3,0,323.0,946.0,0.0,331.0,1,1.5083033994882882,0.0
548,548,0.6228008962802205,0.6,0,418.0,769.0,0.0,153.0,1,0.6042245882296156,0.0
549,549,0.016693858846458687,0.0,0,299.0,784.0,0.0,207.0,1,1.6820722940085093,0.0
550,550,0.05076928261552682,0.1,0,364.0,797.0,0.0,2579.0,1,0.11502831633419652,0.0
551,551,0.7766803479352855,0.8,0,445.0,971.0,0.0,84.0,1,1.5729574950288767,0.0
552,552,0.6494839984509988,0.6,0,291.0,903.0,0.0,216.0,1,0.6637704839325202,0.0
553,553,-0.9343959476302597,-0.9,1,494.0,852.0,1.0,44.0,1,1.278475960331548,0.0
554,554,-0.7097113356143221,-0.7,1,272.0,811.0,1.0,237.0,1,1.050567972504916,0.0
555,555,0.8690013667601315,0.9,0,353.0,704.0,0.0,273.0,1,0.4030308245781238,0.0
556,556,-0.40779385999598494,-0.4,1,397.0,895.0,1.0,188.0,1,1.4716299528997094,0.0
557,557,0.6715580161787251,0.7,0,397.0,562.0,0.0,151.0,1,1.8933280389985008,0.0
558,558,0.9922443837246024,1.0,0,298.0,793.0,0.0,99.0,1,1.3964516894295205,0.0
559,559,0.670815108764863,0.7,0,468.0,896.0,0.0,266.0,1,0.875463852262828,0.0
560,560,-0.4620983485653054,-0.5,1,259.0,681.0,1.0,370.0,1,0.983567970201694,0.0
561,561,0.7143584404842225,0.7,0,484.0,777.0,0.0,99.0,1,1.4699948947081916,0.0
562,562,-0.9459201137685733,-0.9,1,490.0,835.0,1.0,75.0,1,1.9893480751290287,0.0
563,563,0.48548936744987414,0.5,0,445.0,934.0,0.0,211.0,1,0.5647880520075852,0.0
564,564,0.20217259476097982,0.2,0,333.0,940.0,0.0,1347.0,1,0.20863602399543235,0.0
565,565,-0.5365611073597061,-0.5,1,258.0,702.0,1.0,670.0,1,0.27752219283634516,0.0
566,566,0.54587984047259,0.5,0,252.0,756.0,0.0,152.0,1,1.3290831285385953,0.0
567,567,-0.6584401290557542,-0.7,1,258.0,900.0,1.0,402.0,1,0.40327152502750274,0.0
568,568,-0.8770073981553279,-0.9,1,368.0,732.0,1.0,180.0,1,0.4832330761712813,0.0
569,569,0.6175528284971858,0.6,0,341.0,501.0,0.0,198.0,1,1.4878855581228791,0.0
570,570,0.8497608420150433,0.8,0,401.0,737.0,0.0,132.0,1,1.1762900129366114,0.0
571,571,0.7133636793583076,0.7,0,423.0,738.0,0.0,69.0,1,1.252316674691407,0.0
572,572,-0.8755227576701115,-0.9,1,428.0,586.0,1.0,846.0,1,0.09629457226897697,0.0
573,573,-0.6288330055984916,-0.6,1,367.0,605.0,1.0,168.0,1,1.5616870682300885,0.0
574,574,0.48914068877791106,0.5,0,382.0,916.0,0.0,292.0,1,1.0144903188196113,0.0
575,575,-0.34247371389609693,-0.3,1,305.0,910.0,1.0,395.0,1,0.4777708705902477,0.0
576,576,0.02014822754933232,0.0,0,480.0,513.0,0.0,4007.0,1,0.11642297891412845,0.0
577,577,-0.5348673824188543,-0.5,1,475.0,782.0,1.0,303.0,1,0.427354957959031,0.0
578,578,-0.493389119066328,-0.5,1,309.0,983.0,1.0,168.0,1,1.925883544262155,0.0
579,579,-0.15474192967621803,-0.2,1,444.0,719.0,1.0,227.0,1,1.4701141329783263,0.0
580,580,-0.8622303888621119,-0.9,1,366.0,536.0,1.0,268.0,1,0.6807256324717317,0.0
581,581,-0.07896332691940033,-0.1,1,276.0,683.0,1.0,331.0,1,1.2793101718274822,0.0
582,582,0.5829891103370726,0.6,0,362.0,761.0,0.0,187.0,1,1.7299351911738627,0.0
583,583,-0.556318626822502,-0.6,1,362.0,895.0,1.0,513.0,1,0.1928867447057201,0.0
584,584,0.05925453599327435,0.1,0,428.0,738.0,0.0,1424.0,1,0.8754778815085218,0.0
585,585,0.732751032981759,0.7,0,423.0,993.0,0.0,1764.0,1,0.09118274039311758,0.0
586,586,-0.2999772049458387,-0.3,1,434.0,762.0,1.0,494.0,1,0.9067891867784765,0.0
587,587,0.6644657270171335,0.7,0,300.0,874.0,0.0,3826.0,1,0.01707320151198921,0.0
588,588,-0.08052538034169654,-0.1,1,403.0,713.0,1.0,1344.0,1,0.23640683397319573,0.0
589,589,0.6352604390645491,0.6,0,444.0,925.0,0.0,311.0,1,0.8666229626379947,0.0
590,590,-0.46044118554443947,-0.5,1,461.0,722.0,1.0,257.0,1,1.4219857444234694,0.0
591,591,0.7669524891472006,0.8,0,346.0,579.0,0.0,165.0,1,1.4309303057641354,0.0
592,592,0.1823246739470492,0.2,0,423.0,690.0,0.0,297.0,1,1.2920638872026644,0.0
593,593,0.5258129564942764,0.5,0,255.0,593.0,0.0,332.0,1,0.36735294694678333,0.0
594,594,-0.9121942505810252,-0.9,1,315.0,587.0,1.0,98.0,1,1.977387231289988,0.0
595,595,0.31298441078504147,0.3,0,289.0,805.0,0.0,336.0,1,1.8993528116288194,0.0
596,596,0.49875301213099554,0.5,0,394.0,897.0,0.0,89.0,1,1.7811244597409093,0.0
597,597,-0.24532279972504512,-0.2,1,377.0,724.0,1.0,289.0,1,0.7774209004292838,0.0
598,598,0.055503053129526636,0.1,0,307.0,583.0,0.0,4110.0,1,0.10643823325925661,0.0
599,599,-0.8592362816862913,-0.9,1,366.0,819.0,1.0,135.0,1,1.2235995611755037,0.0
600,600,0.6676678131125555,0.7,0,338.0,762.0,0.0,3900.0,1,0.0321748825586714,0.0
601,601,-0.46144512929305814,-0.5,1,479.0,783.0,1.0,218.0,1,1.1569972374034199,0.0
602,602,-0.7342948698361316,-0.7,1,479.0,748.0,1.0,223.0,1,0.9023389861757181,0.0
603,603,0.07292039304781306,0.1,0,289.0,913.0,0.0,3368.0,1,0.1758696891932443,0.0
604,604,0.8259934189303113,0.8,0,270.0,779.0,0.0,151.0,1,1.3388719346767861,0.0
605,605,-0.01955441486457077,-0.0,1,354.0,733.0,1.0,2223.0,1,0.22692106904936948,0.0
606,606,0.5670248873717991,0.6,0,310.0,500.0,0.0,600.0,1,0.22718285517092207,0.0
607,607,-0.5695909408105253,-0.6,1,277.0,781.0,1.0,342.0,1,0.35978286777886237,0.0
608,608,0.4718692120432353,0.5,0,463.0,643.0,0.0,214.0,1,1.7040952889326304,0.0
609,609,-0.9067433128048223,-0.9,1,454.0,883.0,1.0,113.0,1,0.9755202051474461,0.0
610,610,0.6650332701584503,0.7,0,369.0,621.0,0.0,180.0,1,1.092769760212734,0.0
611,611,-0.7056574908469542,-0.7,1,261.0,551.0,1.0,178.0,1,1.6633272620683315,0.0
612,612,0.6005035921252841,0.6,0,253.0,781.0,0.0,116.0,1,0.5865050405182153,0.0
613,613,-0.4826651767978096,-0.5,1,465.0,616.0,1.0,559.0,1,0.5420164165619015,0.0
614,614,-0.8546936796320412,-0.9,1,311.0,875.0,1.0,464.0,1,0.30744048597670726,0.0
615,615,-0.28575943668983306,-0.3,1,351.0,542.0,1.0,477.0,1,1.5951886600662655,0.0
616,616,0.20646031961028832,0.2,0,450.0,912.0,0.0,518.0,1,1.3524264588524486,0.0
617,617,0.9593028307499314,1.0,0,351.0,820.0,0.0,169.0,1,1.9182009058930298,0.0
618,618,-0.6727836485141212,-0.7,1,435.0,593.0,1.0,152.0,1,1.1359041916866168,0.0
619,619,0.036519440161407735,0.0,0,328.0,645.0,0.0,347.0,1,1.6411892047325574,0.0
620,620,0.8945148461264893,0.9,0,467.0,557.0,0.0,216.0,1,0.9564367639854312,0.0
621,621,0.38795848094933394,0.4,0,312.0,574.0,0.0,174.0,1,1.565675249487118,0.0
622,622,0.9146474783848018,0.9,0,309.0,738.0,0.0,73.0,1,1.7207453838713558,0.0
623,623,0.7104838744743689,0.7,0,321.0,905.0,0.0,3774.0,1,0.0581990929207048,0.0
624,624,0.3497722074102305,0.3,0,338.0,577.0,0.0,685.0,1,0.4377496112510597,0.0
625,625,-0.07099482384060485,-0.1,1,411.0,960.0,1.0,449.0,1,1.1558122678755571,0.0
626,626,0.19835277695349451,0.2,0,479.0,726.0,0.0,295.0,1,1.7891516449596323,0.0
627,627,0.5414000757757627,0.5,0,375.0,833.0,0.0,1682.0,1,0.07961452041278982,0.0
628,628,0.4248719688507232,0.4,0,424.0,786.0,0.0,290.0,1,0.6914574481777864,0.0
629,629,-0.8368935914273778,-0.8,1,411.0,510.0,1.0,229.0,1,1.2467067523666262,0.0
630,630,0.6708786977174896,0.7,0,394.0,565.0,0.0,401.0,1,0.3262700730252446,0.0
631,631,-0.5585303533221126,-0.6,1,266.0,567.0,1.0,207.0,1,1.5009294292173874,0.0
632,632,-0.6194142859479435,-0.6,1,258.0,935.0,1.0,587.0,1,0.5405132417258938,0.0
633,633,-0.23856521416290377,-0.2,1,440.0,963.0,1.0,657.0,1,0.5515518609315206,0.0
634,634,0.8492064279604468,0.8,0,353.0,715.0,0.0,562.0,1,0.12730183596098632,0.0
635,635,0.21122782519584815,0.2,0,330.0,977.0,0.0,763.0,1,1.009606731225208,0.0
636,636,-0.9234987388280722,-0.9,1,308.0,966.0,1.0,146.0,1,1.473163961451865,0.0
637,637,-0.9813316195049209,-1.0,1,468.0,508.0,1.0,314.0,1,0.18417453994851085,0.0
638,638,0.8145719933961901,0.8,0,311.0,767.0,0.0,132.0,1,0.6983485176704063,0.0
639,639,0.6424248392414489,0.6,0,268.0,780.0,0.0,132.0,1,1.6063708036036417,0.0
640,640,0.6929140509734504,0.7,0,385.0,836.0,0.0,199.0,1,0.887676198103345,0.0
641,641,-0.7932459053112006,-0.8,1,366.0,687.0,1.0,197.0,1,1.8941562610675382,0.0
642,642,0.783068402693226,0.8,0,342.0,768.0,0.0,150.0,1,1.4494334160238116,0.0
643,643,0.5314378479929518,0.5,0,299.0,888.0,0.0,193.0,1,1.223689899368853,0.0
644,644,0.4180214090306975,0.4,0,490.0,784.0,0.0,626.0,1,0.24778440229250354,0.0
645,645,0.38800759686037556,0.4,0,492.0,709.0,0.0,349.0,1,0.45298267901232303,0.0
646,646,0.6728004735772124,0.7,0,427.0,606.0,0.0,87.0,1,1.948322084182171,0.0
647,647,-0.9685039090403449,-1.0,1,312.0,848.0,1.0,440.0,1,0.21301987539236444,0.0
648,648,0.5138743877687801,0.5,0,306.0,982.0,0.0,3712.0,1,0.07874413709314299,0.0
649,649,0.1023805319650164,0.1,0,384.0,951.0,0.0,415.0,1,1.0082318006956326,0.0
650,650,-0.38524800448103336,-0.4,1,428.0,857.0,1.0,675.0,1,0.36975954827033797,0.0
651,651,-0.2453869623720828,-0.2,1,368.0,848.0,1.0,224.0,1,1.0883451880210335,0.0
652,652,-0.6194583016069282,-0.6,1,326.0,993.0,1.0,181.0,1,1.0963559412493158,0.0
653,653,0.9694469201676172,1.0,0,259.0,685.0,0.0,56.0,1,1.8565154396553227,0.0
654,654,0.9040626145531483,0.9,0,292.0,687.0,0.0,241.0,1,1.3242615983851158,0.0
655,655,-0.9605007377315598,-1.0,1,340.0,568.0,1.0,132.0,1,0.9008638561946816,0.0
656,656,-0.7717892376811619,-0.8,1,335.0,882.0,1.0,273.0,1,0.46876554752341093,0.0
657,657,-0.729061531789053,-0.7,1,251.0,799.0,1.0,230.0,1,1.1343768571652566,0.0
658,658,-0.8584006352119216,-0.9,1,450.0,695.0,1.0,295.0,1,0.5634523240550029,0.0
659,659,0.6598192377075895,0.7,0,336.0,935.0,0.0,89.0,1,1.1156120633069144,0.0
660,660,-0.7923479927074815,-0.8,1,282.0,873.0,1.0,225.0,1,0.6697245986024909,0.0
661,661,-0.1680041742166789,-0.2,1,488.0,874.0,1.0,708.0,1,0.9777172624725095,0.0
662,662,0.48459590463399027,0.5,0,385.0,818.0,0.0,397.0,1,0.4454399361578718,0.0
663,663,0.3553779307945575,0.4,0,353.0,950.0,0.0,317.0,1,1.1942837457773066,0.0
664,664,0.09178433455723267,0.1,0,372.0,531.0,0.0,467.0,1,1.9525682327714198,0.0
665,665,-0.8094994402737565,-0.8,1,283.0,830.0,1.0,217.0,1,0.5480383616630549,0.0
666,666,-0.8490741791737606,-0.8,1,317.0,585.0,1.0,368.0,1,0.22571464851513445,0.0
667,667,-0.9319896865424593,-0.9,1,261.0,712.0,1.0,157.0,1,1.9298725455288723,0.0
668,668,0.43436119033899745,0.4,0,423.0,755.0,0.0,342.0,1,0.9131683997279549,0.0
669,669,0.4809432479466984,0.5,0,495.0,721.0,0.0,184.0,1,1.535275452523013,0.0
670,670,-0.04988154266515865,-0.0,1,323.0,903.0,1.0,1744.0,1,0.7501104051060561,0.0
671,671,-0.5023890442132968,-0.5,1,251.0,733.0,1.0,436.0,1,0.4150269980958672,0.0
672,672,-0.31286748954643784,-0.3,1,333.0,569.0,1.0,828.0,1,1.1060773791390177,0.0
673,673,-0.1074713293685392,-0.1,1,483.0,941.0,0.0,736.0,0,0.8726659083348782,0.0
674,674,0.9356231062868112,0.9,0,477.0,801.0,0.0,3722.0,1,0.00353398197400856,0.0
675,675,0.4567673447091336,0.5,0,352.0,917.0,0.0,2141.0,1,0.09090364748511681,0.0
676,676,-0.8581767046306712,-0.9,1,413.0,977.0,1.0,130.0,1,1.4233396791728494,0.0
677,677,-0.4694859449273594,-0.5,1,488.0,867.0,1.0,345.0,1,0.9498602433271086,0.0
678,678,0.4232697458322705,0.4,0,337.0,897.0,0.0,226.0,1,1.9256935647654976,0.0
679,679,0.13738428339490483,0.1,0,356.0,854.0,0.0,150.0,1,1.8194581420854192,0.0
680,680,0.8343493776518418,0.8,0,393.0,989.0,0.0,108.0,1,0.5120606534896459,0.0
681,681,0.5177028817990843,0.5,0,353.0,916.0,0.0,441.0,1,0.3174714622486876,0.0
682,682,-0.10577515777054391,-0.1,1,257.0,943.0,1.0,440.0,1,1.7794578131911667,0.0
683,683,-0.8925403903599405,-0.9,1,473.0,768.0,1.0,119.0,1,0.9206249068181023,0.0
684,684,0.28318280470758483,0.3,0,277.0,579.0,0.0,264.0,1,1.2726277178508132,0.0
685,685,-0.2610203549842154,-0.3,1,269.0,833.0,1.0,1238.0,1,0.37885180505677307,0.0
686,686,0.7669407520824203,0.8,0,263.0,675.0,0.0,132.0,1,1.2844869150434897,0.0
687,687,-0.7518879151629516,-0.8,1,450.0,787.0,1.0,253.0,1,0.7489360925295141,0.0
688,688,-0.36880671288427047,-0.4,1,471.0,985.0,1.0,2704.0,1,0.3752788567049514,0.0
689,689,0.9492699120573054,0.9,0,308.0,503.0,0.0,159.0,1,1.6146298108855535,0.0
690,690,-0.3840951011223559,-0.4,1,379.0,853.0,1.0,308.0,1,1.3478725147162374,0.0
691,691,0.4445615763894144,0.4,0,457.0,865.0,0.0,598.0,1,0.5498703073165023,0.0
692,692,0.8495526926016874,0.8,0,474.0,641.0,0.0,165.0,1,1.4496022955301808,0.0
693,693,0.4145065576589102,0.4,0,391.0,587.0,0.0,482.0,1,0.32634836268882483,0.0
694,694,0.7351269610053124,0.7,0,347.0,737.0,0.0,146.0,1,1.8248298482500513,0.0
695,695,0.08740561797590463,0.1,0,284.0,886.0,0.0,1170.0,1,0.4256708241568319,0.0
696,696,-0.5348468983014807,-0.5,1,418.0,689.0,1.0,613.0,1,0.6350464118863544,0.0
697,697,-0.9775061254834041,-1.0,1,320.0,891.0,1.0,129.0,1,1.5890307594510993,0.0
698,698,-0.7786125914218067,-0.8,1,340.0,546.0,1.0,744.0,1,0.1133442758277814,0.0
699,699,-0.23717914728729306,-0.2,1,452.0,520.0,1.0,1178.0,1,0.29607278827347927,0.0
700,700,-0.7545600937373238,-0.8,1,473.0,776.0,1.0,381.0,1,0.4824801878579168,0.0
701,701,-0.683051104341245,-0.7,1,329.0,732.0,1.0,219.0,1,1.6766787289408602,0.0
702,702,0.7492884201654784,0.7,0,297.0,509.0,0.0,154.0,1,1.6529248794616491,0.0
703,703,-0.5034331279912332,-0.5,1,436.0,568.0,1.0,156.0,1,1.1158165043334929,0.0
704,704,0.0858224209032572,0.1,0,482.0,620.0,0.0,408.0,1,0.8207294324115433,0.0
705,705,0.2485296818511804,0.2,0,402.0,785.0,0.0,853.0,1,1.3244749687843136,0.0
706,706,-0.17916596486891478,-0.2,1,343.0,619.0,1.0,1598.0,1,1.467307480175233,0.0
707,707,0.11891921164888486,0.1,0,254.0,876.0,0.0,410.0,1,1.8970375928491892,0.0
708,708,0.2193857417057401,0.2,0,315.0,676.0,1.0,169.0,0,1.625069204504114,0.0
709,709,0.30643070035900344,0.3,0,333.0,633.0,0.0,4034.0,1,0.023383929123939273,0.0
710,710,0.5520692457681666,0.6,0,299.0,825.0,0.0,286.0,1,0.5844444725671374,0.0
711,711,-0.6826824142284418,-0.7,1,437.0,707.0,1.0,236.0,1,0.8783792231826633,0.0
712,712,-0.8457571891625986,-0.8,1,379.0,809.0,1.0,122.0,1,1.8904658300172317,0.0
713,713,-0.9435796282548736,-0.9,1,382.0,556.0,1.0,92.0,1,1.9008463335562418,0.0
714,714,0.7181240474377444,0.7,0,416.0,874.0,0.0,230.0,1,1.2968294425372164,0.0
715,715,-0.3375452255876703,-0.3,1,467.0,511.0,1.0,192.0,1,1.3056881992022848,0.0
716,716,0.020526210374862908,0.0,0,259.0,606.0,0.0,875.0,1,1.1568638671825566,0.0
717,717,0.9307574516157884,0.9,0,470.0,997.0,0.0,83.0,1,1.6874123849443574,0.0
718,718,0.2709226940099432,0.3,0,251.0,635.0,0.0,174.0,1,1.3912645914083601,0.0
719,719,-0.4411757278424955,-0.4,1,337.0,969.0,1.0,564.0,1,0.36275573247592363,0.0
720,720,0.2572502482816088,0.3,0,450.0,982.0,0.0,238.0,1,1.0361136318646367,0.0
721,721,0.8953039082557965,0.9,0,367.0,686.0,0.0,187.0,1,0.9374083798398016,0.0
722,722,0.8209478047067169,0.8,0,303.0,536.0,0.0,131.0,1,1.8423565012418532,0.0
723,723,0.22985404727713243,0.2,0,414.0,861.0,1.0,135.0,0,1.5674132357218304,0.0
724,724,-0.38907095388338964,-0.4,1,295.0,995.0,1.0,580.0,1,0.2264743014177093,0.0
725,725,-0.5265652950944764,-0.5,1,392.0,593.0,1.0,185.0,1,1.1250853103723555,0.0
726,726,-0.8645929947263677,-0.9,1,359.0,826.0,1.0,105.0,1,1.984135936568589,0.0
727,727,-0.31190446391196613,-0.3,1,304.0,673.0,1.0,373.0,1,1.0749650133113864,0.0
728,728,-0.3335871151918153,-0.3,1,405.0,860.0,1.0,2165.0,1,0.05503125137620968,0.0
729,729,-0.5930209624238725,-0.6,1,347.0,773.0,1.0,240.0,1,1.4160835481518947,0.0
730,730,-0.6825316215600021,-0.7,1,266.0,548.0,1.0,236.0,1,1.2081122284913897,0.0
731,731,0.6157432966186474,0.6,0,349.0,756.0,0.0,135.0,1,1.7032726355105414,0.0
732,732,-0.28210673217311033,-0.3,1,498.0,938.0,1.0,634.0,1,1.8886096430670851,0.0
733,733,0.7438515781075727,0.7,0,383.0,635.0,0.0,162.0,1,1.4112363111449682,0.0
734,734,-0.5818548475927368,-0.6,1,493.0,705.0,1.0,372.0,1,1.4629106871375466,0.0
735,735,0.8021322753485309,0.8,0,265.0,734.0,0.0,481.0,1,0.22264449850808976,0.0
736,736,0.050204643521135406,0.1,0,299.0,523.0,0.0,198.0,1,1.718911407763267,0.0
737,737,0.6636135298739863,0.7,0,351.0,627.0,0.0,352.0,1,0.31131616740974266,0.0
738,738,-0.6203798955281441,-0.6,1,306.0,668.0,1.0,386.0,1,0.5087110282037852,0.0
739,739,0.475849302169157,0.5,0,307.0,589.0,0.0,454.0,1,1.1114908745501935,0.0
740,740,-0.4747810730453377,-0.5,1,257.0,529.0,1.0,304.0,1,0.7642629343008076,0.0
741,741,-0.9775868228435194,-1.0,1,431.0,939.0,1.0,100.0,1,1.8675159182858334,0.0
742,742,0.4588683369915607,0.5,0,427.0,883.0,0.0,280.0,1,1.7120934984797105,0.0
743,743,-0.526888769580862,-0.5,1,316.0,954.0,1.0,330.0,1,1.243522484236333,0.0
744,744,0.9167059695774573,0.9,0,404.0,648.0,0.0,218.0,1,0.9620961381856246,0.0
745,745,0.41845891132216595,0.4,0,447.0,674.0,0.0,3879.0,1,0.025925922729665096,0.0
746,746,0.27921253751702135,0.3,0,379.0,557.0,0.0,214.0,1,1.380367176877004,0.0
747,747,0.2641299058271991,0.3,0,321.0,666.0,0.0,483.0,1,1.1851677007449686,0.0
748,748,0.45473943723130383,0.5,0,352.0,522.0,0.0,186.0,1,1.6836635644169495,0.0
749,749,0.7096128511254693,0.7,0,458.0,652.0,0.0,180.0,1,0.937226731781764,0.0
750,750,0.7683838620858081,0.8,0,318.0,680.0,0.0,232.0,1,0.8799530519781327,0.0
751,751,0.07731951502338386,0.1,0,298.0,945.0,1.0,167.0,0,1.2824026297426132,0.0
752,752,0.5171059030091818,0.5,0,330.0,994.0,0.0,186.0,1,1.6305588982369514,0.0
753,753,0.9839150404431869,1.0,0,257.0,797.0,0.0,86.0,1,1.5972859071705003,0.0
754,754,-0.2732047399763087,-0.3,1,474.0,550.0,1.0,616.0,1,0.5769854222111273,0.0
755,755,0.16280183915650137,0.2,0,296.0,961.0,0.0,133.0,1,1.2195360342847337,0.0
756,756,-0.05151484808825035,-0.1,1,403.0,629.0,0.0,898.0,0,1.0224517026521178,0.0
757,757,-0.6005843363751777,-0.6,1,286.0,871.0,1.0,363.0,1,0.9833613897564624,0.0
758,758,0.2809214677878724,0.3,0,372.0,659.0,0.0,289.0,1,0.9465310660120698,0.0
759,759,-0.07449197456251389,-0.1,1,305.0,821.0,1.0,404.0,1,1.8985098666331819,0.0
760,760,0.1652799956973079,0.2,0,421.0,596.0,0.0,233.0,1,1.922166511629638,0.0
761,761,-0.5575805548342359,-0.6,1,358.0,781.0,1.0,191.0,1,1.695911353573958,0.0
762,762,-0.39404525450281214,-0.4,1,422.0,934.0,1.0,344.0,1,1.2636486534831306,0.0
763,763,-0.8528437310362593,-0.9,1,355.0,532.0,1.0,203.0,1,1.06223871181208,0.0
764,764,0.8568393257565297,0.9,0,359.0,733.0,0.0,98.0,1,1.6800775922309792,0.0
765,765,-0.47373359138624727,-0.5,1,354.0,825.0,1.0,181.0,1,0.9386563119725391,0.0
766,766,-0.05874442442313588,-0.1,1,468.0,932.0,0.0,3600.0,0,0.1854321329405495,0.0
767,767,0.8701353481101177,0.9,0,372.0,541.0,0.0,257.0,1,0.37393752722747386,0.0
768,768,-0.9103159211557252,-0.9,1,296.0,756.0,1.0,168.0,1,0.9502056249308573,0.0
769,769,-0.8757439389056181,-0.9,1,385.0,878.0,1.0,457.0,1,0.21286552966608707,0.0
770,770,-0.9856991138081683,-1.0,1,460.0,724.0,1.0,706.0,1,0.15397185824451531,0.0
771,771,0.41493314445709806,0.4,0,400.0,678.0,0.0,312.0,1,1.3033130013495111,0.0
772,772,0.3330643950728296,0.3,0,495.0,564.0,0.0,641.0,1,0.4649806028777741,0.0
773,773,-0.18742843440616141,-0.2,1,396.0,522.0,1.0,772.0,1,0.6757280514420254,0.0
774,774,-0.6134023262624775,-0.6,1,314.0,823.0,1.0,123.0,1,1.1215725956369487,0.0
775,775,0.7104506756771334,0.7,0,377.0,997.0,0.0,356.0,1,0.8363075393621826,0.0
776,776,-0.15697284195667915,-0.2,1,389.0,624.0,1.0,857.0,1,1.1222202124254697,0.0
777,777,-0.23868466075677142,-0.2,1,467.0,882.0,1.0,361.0,1,1.3353967798302198,0.0
778,778,0.28083084838747707,0.3,0,458.0,952.0,0.0,590.0,1,0.4820075171522382,0.0
779,779,-0.2931735528310715,-0.3,1,411.0,717.0,1.0,362.0,1,0.5894089988463496,0.0
780,780,0.24674933508412966,0.2,0,259.0,968.0,0.0,333.0,1,0.8180440365515054,0.0
781,781,0.7194936708123421,0.7,0,337.0,893.0,0.0,270.0,1,0.7028338174966156,0.0
782,782,0.49399131444743993,0.5,0,367.0,800.0,0.0,213.0,1,0.9149772380570871,0.0
783,783,0.9286268570829266,0.9,0,356.0,859.0,0.0,155.0,1,1.337723760358032,0.0
784,784,0.4168287709067906,0.4,0,407.0,888.0,0.0,245.0,1,1.8038959171476197,0.0
785,785,0.5928968306079228,0.6,0,261.0,836.0,0.0,163.0,1,1.3577797060165202,0.0
786,786,0.6571574954657384,0.7,0,480.0,900.0,0.0,130.0,1,1.0646187172673205,0.0
787,787,0.48363863396596596,0.5,0,321.0,559.0,0.0,290.0,1,1.0142977715012045,0.0
788,788,0.2819598730785662,0.3,0,423.0,625.0,0.0,432.0,1,1.570285794796807,0.0
789,789,0.2895736699741438,0.3,0,274.0,838.0,0.0,218.0,1,1.654733707976055,0.0
790,790,-0.829451795843535,-0.8,1,260.0,932.0,1.0,498.0,1,0.20973361359028408,0.0
791,791,0.7264053348548558,0.7,0,393.0,699.0,0.0,88.0,1,1.7015453188564356,0.0
792,792,-0.49819016605967414,-0.5,1,491.0,639.0,1.0,180.0,1,1.7389106636279743,0.0
793,793,-0.8577226216656244,-0.9,1,373.0,873.0,1.0,84.0,1,1.5987714801068993,0.0
794,794,0.6614125804423825,0.7,0,294.0,500.0,0.0,186.0,1,1.3868485993360347,0.0
795,795,-0.8445054282049043,-0.8,1,318.0,726.0,1.0,216.0,1,1.475147667454343,0.0
796,796,-0.9860186955530257,-1.0,1,443.0,604.0,1.0,143.0,1,1.4281587536074734,0.0
797,797,-0.8668005048163523,-0.9,1,496.0,959.0,1.0,115.0,1,1.986324070936277,0.0
798,798,0.17793104119399428,0.2,0,433.0,741.0,0.0,2206.0,1,0.16923778977077286,0.0
799,799,-0.15539473244448687,-0.2,1,294.0,741.0,1.0,935.0,1,0.6226406952018555,0.0
800,800,-0.5371714101243041,-0.5,1,253.0,954.0,1.0,403.0,1,0.9989960890167915,0.0
801,801,-0.9264039146926004,-0.9,1,462.0,868.0,1.0,80.0,1,1.231449073385196,0.0
802,802,0.9018687936227843,0.9,0,280.0,984.0,0.0,116.0,1,1.8861461618010322,0.0
803,803,0.7226890833512756,0.7,0,368.0,637.0,0.0,335.0,1,0.47097013464855597,0.0
804,804,0.18252663944697067,0.2,0,282.0,955.0,0.0,3033.0,1,0.09048118168522068,0.0
805,805,-0.9074646068159444,-0.9,1,435.0,854.0,1.0,231.0,1,0.44984245122767264,0.0
806,806,-0.04562529309843444,-0.0,1,493.0,813.0,0.0,1644.0,0,0.4849443062969845,0.0
807,807,-0.8951367922663271,-0.9,1,455.0,745.0,1.0,120.0,1,1.8749589738654358,0.0
808,808,-0.7480498507617583,-0.7,1,252.0,724.0,1.0,794.0,1,0.08828495440140749,0.0
809,809,-0.22385569484535717,-0.2,1,351.0,692.0,1.0,1277.0,1,0.3130648088708501,0.0
810,810,-0.8991239024142952,-0.9,1,496.0,793.0,1.0,191.0,1,0.559026041891953,0.0
811,811,-0.834040335745746,-0.8,1,365.0,824.0,1.0,511.0,1,0.4579867676959799,0.0
812,812,-0.5241740329901039,-0.5,1,257.0,879.0,1.0,114.0,1,1.9318589600803255,0.0
813,813,-0.37425584368848197,-0.4,1,487.0,725.0,1.0,948.0,1,0.26078032111557703,0.0
814,814,-0.15199836606874428,-0.2,1,490.0,992.0,1.0,708.0,1,1.2060680663235679,0.0
815,815,0.09820066796958304,0.1,0,399.0,709.0,0.0,822.0,1,0.8300696682872044,0.0
816,816,-0.0871660437107622,-0.1,1,342.0,537.0,0.0,541.0,0,1.825947272134863,0.0
817,817,-0.6271318116783462,-0.6,1,298.0,917.0,1.0,155.0,1,1.9786821359079263,0.0
818,818,-0.24798137040975288,-0.2,1,433.0,724.0,1.0,1623.0,1,0.12462250950554177,0.0
819,819,-0.47365056103744596,-0.5,1,412.0,548.0,1.0,130.0,1,1.2209439208015909,0.0
820,820,-0.6853653494868044,-0.7,1,288.0,964.0,1.0,468.0,1,0.43167053207231887,0.0
821,821,-0.3584702894238301,-0.4,1,475.0,901.0,1.0,224.0,1,1.708633172271351,0.0
822,822,0.58180719472959,0.6,0,256.0,804.0,0.0,3940.0,1,0.01507663934138348,0.0
823,823,0.6384691798452082,0.6,0,490.0,898.0,0.0,222.0,1,1.8627984727006852,0.0
824,824,0.09734384695926224,0.1,0,349.0,746.0,0.0,445.0,1,1.0430322342594196,0.0
825,825,-0.25181635772488487,-0.3,1,371.0,732.0,1.0,957.0,1,0.28943055435346965,0.0
826,826,-0.2575056516865941,-0.3,1,311.0,630.0,1.0,379.0,1,0.5261308590621308,0.0
827,827,-0.32403453038865737,-0.3,1,438.0,727.0,1.0,1475.0,1,0.09846439271114549,0.0
828,828,-0.7730956231153885,-0.8,1,363.0,747.0,1.0,170.0,1,1.4213170634793821,0.0
829,829,-0.5015199714625727,-0.5,1,465.0,656.0,1.0,329.0,1,0.4911433012679969,0.0
830,830,-0.3116077689703969,-0.3,1,499.0,823.0,1.0,238.0,1,1.9896827584193617,0.0
831,831,-0.955223862468735,-1.0,1,343.0,537.0,1.0,190.0,1,0.3654403830278141,0.0
832,832,-0.925488390233626,-0.9,1,492.0,888.0,1.0,560.0,1,0.17147515934636526,0.0
833,833,0.16291788669896023,0.2,0,444.0,652.0,0.0,514.0,1,0.47952530097340973,0.0
834,834,-0.12486566243983921,-0.1,1,293.0,675.0,1.0,1912.0,1,0.09833456706958321,0.0
835,835,0.5302303588365425,0.5,0,336.0,523.0,0.0,811.0,1,0.29855777304730347,0.0
836,836,0.26129236861818295,0.3,0,488.0,534.0,0.0,288.0,1,1.1483533492056373,0.0
837,837,-0.9624193223147821,-1.0,1,314.0,991.0,1.0,145.0,1,0.7761718329211722,0.0
838,838,0.9644084661087058,1.0,0,477.0,594.0,0.0,129.0,1,0.69887756331048,0.0
839,839,0.7099960846030144,0.7,0,386.0,708.0,0.0,126.0,1,1.0523753019092117,0.0
840,840,-0.6843111992520259,-0.7,1,456.0,933.0,1.0,121.0,1,1.8635412313400888,0.0
841,841,0.9899969304481469,1.0,0,470.0,666.0,0.0,184.0,1,0.8358135194853291,0.0
842,842,-0.4565326636589926,-0.5,1,311.0,985.0,1.0,484.0,1,0.8627716302550597,0.0
843,843,-0.5808523796322465,-0.6,1,332.0,819.0,1.0,109.0,1,1.5130746459437527,0.0
844,844,0.8299413690473012,0.8,0,282.0,756.0,0.0,212.0,1,1.0426426345607402,0.0
845,845,0.4468234209827322,0.4,0,376.0,976.0,0.0,1278.0,1,0.21639098658029066,0.0
846,846,-0.9403347655029535,-0.9,1,472.0,655.0,1.0,33.0,1,1.6422836489444546,0.0
847,847,0.33908369973359553,0.3,0,278.0,595.0,0.0,397.0,1,1.016023421791671,0.0
848,848,0.27800472898308337,0.3,0,274.0,757.0,0.0,509.0,1,1.0812535946511592,0.0
849,849,-0.9809694027161546,-1.0,1,307.0,579.0,1.0,354.0,1,0.31481659501219617,0.0
850,850,0.9906853398568387,1.0,0,411.0,615.0,0.0,184.0,1,0.5435706262699143,0.0
851,851,0.7137135283866778,0.7,0,458.0,879.0,0.0,183.0,1,1.0516939829732037,0.0
852,852,0.5756553864653846,0.6,0,485.0,860.0,0.0,185.0,1,0.8582264839472642,0.0
853,853,-0.02164698647780905,-0.0,1,408.0,838.0,1.0,1854.0,1,0.48736403237686177,0.0
854,854,-0.3847201743031936,-0.4,1,281.0,921.0,1.0,158.0,1,1.1698837790429237,0.0
855,855,-0.024168492218694215,-0.0,1,348.0,529.0,0.0,4123.0,0,0.6351061861733187,0.0
856,856,0.27731027274712594,0.3,0,390.0,648.0,0.0,162.0,1,1.333797351557154,0.0
857,857,-0.046914648764607714,-0.0,1,305.0,839.0,0.0,136.0,0,1.6573667899700422,0.0
858,858,-0.6789548683025708,-0.7,1,384.0,541.0,1.0,455.0,1,0.27995435003734004,0.0
859,859,0.3057633860954623,0.3,0,409.0,645.0,0.0,2086.0,1,0.13693153605802078,0.0
860,860,0.43133865550501804,0.4,0,348.0,792.0,0.0,270.0,1,1.6926833240046766,0.0
861,861,0.9347817618633656,0.9,0,493.0,755.0,0.0,562.0,1,0.14274579743473037,0.0
862,862,-0.788227122455893,-0.8,1,344.0,913.0,1.0,133.0,1,1.1881729506154255,0.0
863,863,0.06883492059911767,0.1,0,361.0,557.0,0.0,3492.0,1,0.3706362562180445,0.0
864,864,0.5672882888846675,0.6,0,314.0,717.0,0.0,119.0,1,1.167502980006511,0.0
865,865,0.2633668074881452,0.3,0,318.0,673.0,0.0,559.0,1,1.9362023154369656,0.0
866,866,0.9368192262071264,0.9,0,446.0,510.0,0.0,304.0,1,0.40153021885981155,0.0
867,867,0.5957375971044203,0.6,0,494.0,730.0,0.0,146.0,1,1.4781571798328004,0.0
868,868,-0.6219745773339349,-0.6,1,346.0,732.0,1.0,372.0,1,0.8200262004616123,0.0
869,869,-0.4231345536814781,-0.4,1,403.0,817.0,1.0,770.0,1,0.24831651626798434,0.0
870,870,-0.20241771027004796,-0.2,1,477.0,711.0,1.0,162.0,1,1.2232025798749455,0.0
871,871,0.8377110088935618,0.8,0,312.0,852.0,0.0,356.0,1,0.289683543759659,0.0
872,872,-0.21452348911955887,-0.2,1,453.0,928.0,1.0,599.0,1,1.6355724812453412,0.0
873,873,0.17132662439288193,0.2,0,389.0,967.0,0.0,834.0,1,0.6084889615216258,0.0
874,874,0.3341250010950625,0.3,0,487.0,815.0,0.0,3698.0,1,0.05299638680194896,0.0
875,875,-0.1489628624839805,-0.1,1,374.0,643.0,1.0,1273.0,1,0.8101969151724067,0.0
876,876,-0.20426240748075442,-0.2,1,286.0,613.0,1.0,581.0,1,0.5958626678599508,0.0
877,877,-0.552596481462744,-0.6,1,427.0,854.0,1.0,279.0,1,0.5700213708345445,0.0
878,878,0.014852377636286551,0.0,0,460.0,649.0,0.0,3891.0,1,0.12519795061878924,0.0
879,879,0.5033146315660113,0.5,0,261.0,976.0,0.0,213.0,1,1.1445742424069072,0.0
880,880,-0.8706721603432781,-0.9,1,273.0,682.0,1.0,145.0,1,0.7645994315870197,0.0
881,881,0.2732282489598923,0.3,0,466.0,517.0,0.0,617.0,1,1.0563726534416435,0.0
882,882,-0.4097573551788587,-0.4,1,468.0,901.0,1.0,331.0,1,1.4634144629415056,0.0
883,883,0.30694617715969996,0.3,0,328.0,582.0,0.0,370.0,1,1.9220281616538961,0.0
884,884,0.9337887970947722,0.9,0,362.0,694.0,0.0,224.0,1,0.32344948657445993,0.0
885,885,-0.8440473264661523,-0.8,1,470.0,536.0,1.0,354.0,1,0.4029789076826251,0.0
886,886,-0.694777556864445,-0.7,1,302.0,827.0,1.0,281.0,1,0.7653582283967617,0.0
887,887,-0.4663812492761177,-0.5,1,278.0,661.0,1.0,191.0,1,1.3680785152614616,0.0
888,888,-0.34844423809458425,-0.3,1,425.0,606.0,1.0,1039.0,1,0.1320814837173332,0.0
889,889,-0.5556066226107739,-0.6,1,479.0,694.0,1.0,357.0,1,1.129428109642508,0.0
890,890,0.7397840435640635,0.7,0,402.0,771.0,0.0,137.0,1,1.3176783829554735,0.0
891,891,0.6184835077385897,0.6,0,366.0,810.0,0.0,164.0,1,0.9126784217823092,0.0
892,892,-0.8300655700149182,-0.8,1,274.0,635.0,1.0,121.0,1,1.8535183715841734,0.0
893,893,0.38163569707225764,0.4,0,394.0,506.0,0.0,480.0,1,1.6970288967747291,0.0
894,894,0.33815066688503737,0.3,0,265.0,932.0,0.0,243.0,1,1.13908147580714,0.0
895,895,0.5992481370375617,0.6,0,393.0,635.0,0.0,802.0,1,0.2394189061385703,0.0
896,896,-0.44823908316726,-0.4,1,251.0,918.0,1.0,241.0,1,1.5373878569641635,0.0
897,897,0.13815467121973524,0.1,0,304.0,758.0,0.0,398.0,1,1.606573423573703,0.0
898,898,0.06629238517592229,0.1,0,310.0,811.0,0.0,609.0,1,0.7086806012324227,0.0
899,899,0.4709081667562429,0.5,0,395.0,618.0,0.0,257.0,1,0.6833699278175831,0.0
900,900,-0.05462856152808171,-0.1,1,404.0,991.0,1.0,2415.0,1,0.8770316135857597,0.0
901,901,0.2844025165804851,0.3,0,451.0,570.0,0.0,369.0,1,1.2680034479222815,0.0
902,902,0.05498619730754073,0.1,0,456.0,766.0,0.0,2018.0,1,0.7821367366839624,0.0
903,903,0.6216397201708421,0.6,0,307.0,905.0,0.0,258.0,1,1.4704637603639095,0.0
904,904,0.750117711669632,0.8,0,485.0,601.0,0.0,194.0,1,0.5714261547132784,0.0
905,905,-0.41009462131735264,-0.4,1,415.0,973.0,1.0,322.0,1,0.8539256333068013,0.0
906,906,-0.23452614699192642,-0.2,1,402.0,701.0,1.0,2727.0,1,0.08900992662767049,0.0
907,907,0.8553629364611726,0.9,0,349.0,874.0,0.0,137.0,1,1.1665951529927039,0.0
908,908,0.5783817623203957,0.6,0,454.0,732.0,0.0,284.0,1,1.0935886881628427,0.0
909,909,0.6489419700007029,0.6,0,402.0,609.0,0.0,569.0,1,0.539695267074294,0.0
910,910,-0.09896594042100348,-0.1,1,394.0,797.0,1.0,3809.0,1,0.012315315236865798,0.0
911,911,-0.3287165082267589,-0.3,1,411.0,664.0,1.0,655.0,1,0.5536710028007639,0.0
912,912,-0.23026851873022358,-0.2,1,388.0,845.0,1.0,877.0,1,0.6643634956397044,0.0
913,913,0.5043744259164753,0.5,0,362.0,574.0,0.0,174.0,1,0.9259834245028171,0.0
914,914,-0.7815374985297712,-0.8,1,364.0,893.0,1.0,283.0,1,1.24821028648365,0.0
915,915,-0.5628350281821117,-0.6,1,465.0,830.0,1.0,245.0,1,1.5146353492644489,0.0
916,916,0.8672080530651014,0.9,0,361.0,999.0,0.0,720.0,1,0.1771161031864168,0.0
917,917,0.04646982116321685,0.0,0,288.0,969.0,0.0,703.0,1,1.9912854570399021,0.0
918,918,-0.9636477616520358,-1.0,1,347.0,838.0,1.0,795.0,1,0.08881621042467636,0.0
919,919,0.016566293030482404,0.0,0,335.0,679.0,0.0,2406.0,1,0.26609320216392507,0.0
920,920,0.9035325957333895,0.9,0,437.0,893.0,0.0,210.0,1,0.2922365058395122,0.0
921,921,0.6303947897412698,0.6,0,253.0,621.0,0.0,826.0,1,0.3520650843655775,0.0
922,922,-0.8151746466738352,-0.8,1,285.0,592.0,1.0,603.0,1,0.13762478909486897,0.0
923,923,0.08796016108596061,0.1,0,281.0,624.0,0.0,1265.0,1,0.41973603512197033,0.0
924,924,0.9589317855887416,1.0,0,378.0,729.0,0.0,193.0,1,0.5835576603181911,0.0
925,925,-0.40497001684329037,-0.4,1,453.0,812.0,1.0,95.0,1,1.562458736550925,0.0
926,926,0.27804974264905824,0.3,0,317.0,652.0,0.0,541.0,1,0.7627893507840042,0.0
927,927,0.11282749872886688,0.1,0,460.0,915.0,0.0,185.0,1,1.655430840507703,0.0
928,928,0.7950058991630833,0.8,0,352.0,875.0,0.0,373.0,1,0.4799561260076328,0.0
929,929,0.5382685171550983,0.5,0,304.0,677.0,0.0,239.0,1,1.5716153378606248,0.0
930,930,0.23483306340984678,0.2,0,340.0,795.0,0.0,145.0,1,0.8583642223357761,0.0
931,931,-0.7287573683450934,-0.7,1,407.0,819.0,1.0,174.0,1,0.8892267365157842,0.0
932,932,0.8787817660765556,0.9,0,326.0,630.0,0.0,354.0,1,0.28600994632218324,0.0
933,933,0.8845750622278203,0.9,0,421.0,789.0,0.0,580.0,1,0.13197257538680218,0.0
934,934,0.38162375513070157,0.4,0,312.0,600.0,0.0,618.0,1,0.1765585241267027,0.0
935,935,-0.9884000712106642,-1.0,1,379.0,530.0,1.0,151.0,1,1.2803298506144276,0.0
936,936,-0.7649122327608697,-0.8,1,344.0,544.0,1.0,502.0,1,0.20631434691635842,0.0
937,937,-0.7071286137373436,-0.7,1,353.0,512.0,1.0,155.0,1,1.1539451097466629,0.0
938,938,-0.7136911636290959,-0.7,1,465.0,808.0,1.0,127.0,1,0.6943848179768577,0.0
939,939,0.6534898090552261,0.7,0,305.0,734.0,0.0,121.0,1,1.9342766813056742,0.0
940,940,0.2395068768922044,0.2,0,482.0,829.0,0.0,229.0,1,1.2349404343778243,0.0
941,941,0.9324186818576667,0.9,0,338.0,621.0,0.0,151.0,1,1.127474838104295,0.0
942,942,0.35105915889446004,0.4,0,370.0,585.0,0.0,255.0,1,1.8536145620612394,0.0
943,943,-0.654490032199518,-0.7,1,413.0,799.0,1.0,258.0,1,0.6867801067881045,0.0
944,944,0.08108993321754898,0.1,0,460.0,568.0,0.0,232.0,1,0.9727628278231275,0.0
945,945,0.12998210436614932,0.1,0,385.0,518.0,0.0,667.0,1,1.253704082484013,0.0
946,946,-0.8385040735195168,-0.8,1,337.0,636.0,1.0,707.0,1,0.10518385006340059,0.0
947,947,0.350322966426696,0.4,0,379.0,539.0,0.0,402.0,1,0.8781212133651932,0.0
948,948,-0.2609009867615517,-0.3,1,406.0,517.0,1.0,317.0,1,1.4340152826040673,0.0
949,949,-0.7459491986585951,-0.7,1,494.0,540.0,1.0,116.0,1,0.8931902824063591,0.0
950,950,-0.36130700942235516,-0.4,1,487.0,527.0,1.0,1466.0,1,0.05915900927115558,0.0
951,951,0.20625170823269312,0.2,0,472.0,652.0,0.0,576.0,1,0.5063139849911329,0.0
952,952,0.9615899808031108,1.0,0,253.0,969.0,0.0,168.0,1,1.9075330804893873,0.0
953,953,0.0010568777616790648,0.0,0,469.0,681.0,0.0,240.0,1,1.472408364457365,0.0
954,954,0.1724457912458366,0.2,0,250.0,606.0,0.0,384.0,1,0.7710882071172038,0.0
955,955,-0.5059700479157325,-0.5,1,447.0,628.0,1.0,605.0,1,0.3273228431474613,0.0
956,956,0.5667265326442974,0.6,0,381.0,588.0,0.0,161.0,1,1.6744211531998856,0.0
957,957,-0.5828067071084593,-0.6,1,291.0,688.0,1.0,311.0,1,0.8416419979019438,0.0
958,958,-0.44895137337449165,-0.4,1,327.0,629.0,1.0,224.0,1,1.770707213877594,0.0
959,959,0.31473429711735346,0.3,0,379.0,607.0,0.0,4014.0,1,0.017156612199995536,0.0
960,960,0.04725459995904013,0.0,0,399.0,636.0,0.0,2425.0,1,0.5037452053390372,0.0
961,961,0.4526536502234484,0.5,0,401.0,689.0,0.0,590.0,1,0.346547797945135,0.0
962,962,-0.9463436065765887,-0.9,1,282.0,548.0,1.0,230.0,1,0.46029807909581777,0.0
963,963,-0.8215120022639675,-0.8,1,453.0,608.0,1.0,169.0,1,1.1986219679302454,0.0
964,964,-0.26260758782766125,-0.3,1,480.0,902.0,1.0,288.0,1,1.4312085905432241,0.0
965,965,0.19622825157743273,0.2,0,348.0,970.0,0.0,582.0,1,0.9791448769514859,0.0
966,966,0.39878168776089007,0.4,0,341.0,900.0,0.0,219.0,1,1.8071695228117417,0.0
967,967,-0.05236869193765337,-0.1,1,433.0,599.0,1.0,3968.0,1,0.6332689163854484,0.0
968,968,-0.020142456749153048,-0.0,1,412.0,934.0,1.0,234.0,1,1.9502527026089338,0.0
969,969,0.32788560866586103,0.3,0,361.0,554.0,0.0,115.0,1,1.508645531163614,0.0
970,970,0.19827254451535192,0.2,0,250.0,583.0,0.0,207.0,1,1.93485867346884,0.0
971,971,0.7782233535882128,0.8,0,485.0,822.0,0.0,253.0,1,0.8913700450373212,0.0
972,972,0.16059169527695216,0.2,0,438.0,905.0,0.0,547.0,1,1.3647347761940065,0.0
973,973,0.6088677133462388,0.6,0,360.0,527.0,0.0,4113.0,1,0.010369822590159394,0.0
974,974,-0.17626715677084248,-0.2,1,445.0,671.0,1.0,1914.0,1,1.2770349945890433,0.0
975,975,-0.9153500346841992,-0.9,1,274.0,769.0,1.0,197.0,1,1.0287715276178198,0.0
976,976,-0.8841400129093122,-0.9,1,456.0,724.0,1.0,80.0,1,1.4221273486494437,0.0
977,977,0.9539386673229784,1.0,0,495.0,901.0,0.0,524.0,1,0.1835196978825635,0.0
978,978,-0.12026515278445515,-0.1,1,369.0,987.0,0.0,2864.0,0,0.475629214711371,0.0
979,979,-0.2955134005127056,-0.3,1,296.0,630.0,1.0,174.0,1,1.1095686998674463,0.0
980,980,-0.3098830738750131,-0.3,1,257.0,903.0,1.0,520.0,1,1.201647530926289,0.0
981,981,-0.7986653366453131,-0.8,1,330.0,762.0,1.0,88.0,1,1.943422170329562,0.0
982,982,0.9646460675424309,1.0,0,295.0,758.0,0.0,257.0,1,0.9928142478012112,0.0
983,983,-0.95841510063571,-1.0,1,358.0,945.0,1.0,137.0,1,1.7695062549708847,0.0
984,984,0.25987210340744293,0.3,0,368.0,521.0,0.0,171.0,1,1.9808590377658892,0.0
985,985,0.047367141937289414,0.0,0,383.0,799.0,0.0,1698.0,1,0.25063217510335356,0.0
986,986,-0.4377718780380011,-0.4,1,408.0,776.0,1.0,216.0,1,1.0740260020661776,0.0
987,987,-0.39367741610101525,-0.4,1,331.0,963.0,1.0,436.0,1,0.36298621129884046,0.0
988,988,0.2408875916577582,0.2,0,493.0,673.0,0.0,454.0,1,0.677751737932192,0.0
989,989,-0.04054948072087039,-0.0,1,442.0,582.0,0.0,1176.0,0,0.8817124366221925,0.0
990,990,0.1326925993379373,0.1,0,361.0,846.0,0.0,313.0,1,1.4225587980653918,0.0
991,991,-0.26529897166110494,-0.3,1,471.0,663.0,1.0,996.0,1,0.15394729530966256,0.0
992,992,0.15006801771506417,0.2,0,291.0,931.0,0.0,1458.0,1,0.5371050256020862,0.0
993,993,0.4093770760146578,0.4,0,429.0,766.0,0.0,365.0,1,1.7886977214628546,0.0
994,994,-0.23824610854415584,-0.2,1,378.0,778.0,1.0,144.0,1,1.595341611884715,0.0
995,995,0.33568953900030696,0.3,0,464.0,866.0,0.0,260.0,1,1.4948062148412904,0.0
996,996,0.40452014737239406,0.4,0,363.0,720.0,0.0,247.0,1,0.5940598399575452,0.0
997,997,0.11992444995250429,0.1,0,417.0,974.0,0.0,3609.0,1,0.1033191991021063,0.0
998,998,-0.784879642622065,-0.8,1,409.0,778.0,1.0,143.0,1,1.8570306246919694,0.0
999,999,-0.4661697628314081,-0.5,1,397.0,516.0,1.0,267.0,1,1.326706416605772,0.0
1000,1000,0.3686515647958355,0.4,0,301.0,969.0,0.0,520.0,1,0.8170158444417521,0.0
1001,1001,-0.46334812497556666,-0.5,1,420.0,626.0,1.0,164.0,1,1.095412079119272,0.0
1002,1002,-0.531314617326117,-0.5,1,453.0,713.0,1.0,314.0,1,0.9300885400081971,0.0
1003,1003,0.9267239085058345,0.9,0,400.0,721.0,0.0,139.0,1,1.5579457897665507,0.0
1004,1004,0.0771435468589714,0.1,0,282.0,789.0,0.0,639.0,1,1.3031141399798023,0.0
1005,1005,-0.22233260468266036,-0.2,1,360.0,878.0,0.0,1812.0,0,1.0028702626526786,0.0
1006,1006,-0.2852503835968694,-0.3,1,489.0,605.0,1.0,2576.0,1,0.05655234451662938,0.0
1007,1007,0.6933895826175154,0.7,0,375.0,523.0,0.0,102.0,1,1.0868099666524673,0.0
1008,1008,-0.08080895020887313,-0.1,1,313.0,810.0,1.0,2517.0,1,1.1056099612083883,0.0
1009,1009,-0.9206169185827948,-0.9,1,316.0,634.0,1.0,180.0,1,1.715294473194938,0.0
1010,1010,-0.6045484550860414,-0.6,1,359.0,581.0,1.0,1010.0,1,0.11050857729634322,0.0
1011,1011,-0.42540761988980647,-0.4,1,347.0,726.0,1.0,1227.0,1,0.2619522971062198,0.0
1012,1012,0.29377782771274186,0.3,0,253.0,908.0,0.0,379.0,1,0.7818186834282665,0.0
1013,1013,0.9822711001657953,1.0,0,304.0,547.0,0.0,649.0,1,0.16239048406080392,0.0
1014,1014,0.4479895627579802,0.4,0,458.0,862.0,0.0,380.0,1,1.6951510906436291,0.0
1015,1015,-0.0695544555971841,-0.1,1,393.0,722.0,0.0,195.0,0,1.7529721324198793,0.0
1016,1016,0.04221050267477344,0.0,0,252.0,656.0,0.0,192.0,1,1.518900915315353,0.0
1017,1017,0.876523075932417,0.9,0,420.0,864.0,0.0,206.0,1,1.554701624858214,0.0
1018,1018,0.7562543596132913,0.8,0,271.0,513.0,0.0,126.0,1,0.896848811416183,0.0
1019,1019,0.4664300426316026,0.5,0,419.0,988.0,0.0,403.0,1,0.4291323679274257,0.0
1020,1020,-0.11897328442089994,-0.1,1,484.0,967.0,0.0,649.0,0,0.5052006635060158,0.0
1021,1021,-0.649773241889368,-0.6,1,472.0,747.0,1.0,731.0,1,0.21827402567852183,0.0
1022,1022,0.6497286661065895,0.6,0,492.0,818.0,0.0,130.0,1,0.908674627580536,0.0
1023,1023,-0.7416484950480737,-0.7,1,296.0,554.0,1.0,520.0,1,0.14025894742841438,0.0
1024,1024,-0.9883491940672782,-1.0,1,291.0,828.0,1.0,121.0,1,1.415881293858427,0.0
1025,1025,-0.8210586916930085,-0.8,1,260.0,626.0,1.0,204.0,1,1.345984549864666,0.0
1026,1026,-0.22019669317274304,-0.2,1,447.0,802.0,1.0,621.0,1,0.3688428081635666,0.0
1027,1027,0.8357809366008222,0.8,0,429.0,779.0,0.0,152.0,1,1.8054837577881628,0.0
1028,1028,-0.370329982325718,-0.4,1,411.0,852.0,1.0,147.0,1,1.8779747060119862,0.0
1029,1029,0.9910562833919907,1.0,0,290.0,890.0,0.0,200.0,1,0.7666957797958496,0.0
1030,1030,-0.8335763598235602,-0.8,1,443.0,624.0,1.0,293.0,1,1.442522349587916,0.0
1031,1031,0.9893001478799968,1.0,0,338.0,593.0,0.0,109.0,1,1.0503125332863181,0.0
1032,1032,-0.3257077453772885,-0.3,1,457.0,838.0,1.0,695.0,1,0.39855265590145805,0.0
1033,1033,-0.8938502399121442,-0.9,1,412.0,786.0,1.0,212.0,1,1.8929842192769608,0.0
1034,1034,0.33555921127928867,0.3,0,387.0,771.0,0.0,372.0,1,0.49738643294271245,0.0
1035,1035,-0.6094762015746844,-0.6,1,356.0,934.0,1.0,460.0,1,0.7678428058077493,0.0
1036,1036,0.1657212902210845,0.2,0,265.0,565.0,0.0,420.0,1,1.4888542650922962,0.0
1037,1037,0.16335866572031055,0.2,0,375.0,791.0,1.0,334.0,0,1.0097922609856504,0.0
1038,1038,0.87080049358975,0.9,0,329.0,820.0,0.0,101.0,1,1.3118501941165575,0.0
1039,1039,0.19111996086306626,0.2,0,488.0,932.0,0.0,370.0,1,1.462273488692429,0.0
1040,1040,0.2568253123947837,0.3,0,449.0,955.0,0.0,96.0,1,1.814164584710145,0.0
1041,1041,-0.6922574165102704,-0.7,1,276.0,796.0,1.0,278.0,1,0.6726586663283238,0.0
1042,1042,-0.7270235621553944,-0.7,1,372.0,585.0,1.0,163.0,1,1.6359061808634887,0.0
1043,1043,0.19154638730924156,0.2,0,301.0,752.0,0.0,1347.0,1,0.7516684438927768,0.0
1044,1044,0.48992747030338735,0.5,0,401.0,758.0,0.0,321.0,1,0.8099983617999253,0.0
1045,1045,0.23280730683662765,0.2,0,400.0,781.0,0.0,189.0,1,1.8132369641082033,0.0
1046,1046,0.1965536238653538,0.2,0,266.0,713.0,0.0,211.0,1,0.9448171656157118,0.0
1047,1047,-0.5858899976354919,-0.6,1,433.0,735.0,1.0,292.0,1,1.049584933179707,0.0
1048,1048,-0.6797010766154981,-0.7,1,290.0,885.0,1.0,375.0,1,1.1950664717142214,0.0
1049,1049,-0.14095401782460337,-0.1,1,428.0,628.0,1.0,804.0,1,0.930373428808781,0.0
1050,1050,-0.5588677290711441,-0.6,1,272.0,543.0,1.0,315.0,1,0.9374722808069702,0.0
1051,1051,-0.2558426965275069,-0.3,1,421.0,776.0,1.0,423.0,1,1.2539690952339375,0.0
1052,1052,-0.380013347955088,-0.4,1,475.0,938.0,1.0,657.0,1,0.20918672362366109,0.0
1053,1053,-0.9136992567076949,-0.9,1,427.0,550.0,1.0,193.0,1,0.36207527722829624,0.0
1054,1054,0.650440512748089,0.7,0,465.0,533.0,0.0,252.0,1,1.4065308488334003,0.0
1055,1055,0.7811609569587032,0.8,0,255.0,903.0,0.0,132.0,1,1.9437019282028332,0.0
1056,1056,-0.6759350801732069,-0.7,1,296.0,594.0,1.0,310.0,1,0.9571067011653602,0.0
1057,1057,-0.14294922036045166,-0.1,1,405.0,969.0,0.0,956.0,0,1.0494872200438117,0.0
1058,1058,0.9649301854230363,1.0,0,252.0,703.0,0.0,75.0,1,1.995454287468261,0.0
1059,1059,0.8288750051965568,0.8,0,461.0,625.0,0.0,294.0,1,1.3100119665269505,0.0
1060,1060,-0.8836974270358431,-0.9,1,416.0,913.0,1.0,151.0,1,1.9831649934812845,0.0
1061,1061,0.7880184874233123,0.8,0,397.0,871.0,0.0,142.0,1,1.4041626095509545,0.0
1062,1062,-0.7652023137243844,-0.8,1,408.0,989.0,1.0,983.0,1,0.05099221535746645,0.0
1063,1063,-0.9143152249536526,-0.9,1,252.0,681.0,1.0,207.0,1,1.063024934930516,0.0
1064,1064,-0.994032370028394,-1.0,1,361.0,797.0,1.0,122.0,1,1.6731308521726198,0.0
1065,1065,0.7286581441595572,0.7,0,282.0,580.0,0.0,268.0,1,1.482025429232938,0.0
1066,1066,-0.7335647997059587,-0.7,1,380.0,970.0,1.0,120.0,1,1.4007434046165086,0.0
1067,1067,0.8513014381420396,0.9,0,311.0,864.0,0.0,215.0,1,0.5558527372058191,0.0
1068,1068,0.538946567458944,0.5,0,257.0,690.0,0.0,113.0,1,1.47656824847105,0.0
1069,1069,-0.09499613995354395,-0.1,1,336.0,862.0,0.0,392.0,0,0.9892774448184176,0.0
1070,1070,0.2972136995206649,0.3,0,377.0,862.0,0.0,111.0,1,1.9359907240970158,0.0
1071,1071,0.34109829013173254,0.3,0,477.0,635.0,0.0,278.0,1,1.018756057367659,0.0
1072,1072,-0.5582530525221951,-0.6,1,359.0,778.0,1.0,343.0,1,1.007618837221084,0.0
1073,1073,0.6694041398812283,0.7,0,471.0,647.0,0.0,232.0,1,0.6756984082191047,0.0
1074,1074,-0.1326681437769217,-0.1,1,265.0,583.0,1.0,4152.0,1,0.6949319501419242,0.0
1075,1075,-0.060789171819404464,-0.1,1,254.0,656.0,0.0,700.0,0,1.8630146913640402,0.0
1076,1076,0.8929100424563399,0.9,0,425.0,600.0,0.0,95.0,1,1.776749287290657,0.0
1077,1077,-0.683959168604269,-0.7,1,379.0,627.0,1.0,254.0,1,1.055302877687584,0.0
1078,1078,0.9449011509285759,0.9,0,418.0,936.0,0.0,136.0,1,1.1221149740653868,0.0
1079,1079,0.6450446732424027,0.6,0,381.0,641.0,0.0,468.0,1,0.34903817714654806,0.0
1080,1080,-0.359224320967213,-0.4,1,495.0,653.0,1.0,362.0,1,1.5863768459663485,0.0
1081,1081,-0.7277350232634772,-0.7,1,406.0,675.0,1.0,159.0,1,0.8379805992939227,0.0
1082,1082,-0.4404834268067803,-0.4,1,305.0,993.0,1.0,342.0,1,1.6545257554344008,0.0
1083,1083,0.48592752520236915,0.5,0,321.0,993.0,0.0,166.0,1,1.9409755335279952,0.0
1084,1084,-0.6338247913344639,-0.6,1,302.0,610.0,1.0,318.0,1,1.5968267448545954,0.0
1085,1085,-0.8575869961856704,-0.9,1,436.0,502.0,1.0,202.0,1,1.5038065059012349,0.0
1086,1086,-0.475824081625958,-0.5,1,473.0,920.0,1.0,147.0,1,1.3075230269817948,0.0
1087,1087,-0.9475543393409345,-0.9,1,382.0,645.0,1.0,323.0,1,0.5887614617650541,0.0
1088,1088,0.05771779840304525,0.1,0,311.0,678.0,0.0,961.0,1,0.7806348985184106,0.0
1089,1089,-0.001690049288657569,-0.0,1,255.0,799.0,1.0,276.0,1,1.4142011181934264,0.0
1090,1090,0.8144154218203994,0.8,0,316.0,986.0,0.0,158.0,1,1.257749223959015,0.0
1091,1091,0.5821350840962745,0.6,0,417.0,964.0,0.0,319.0,1,0.8699351501169332,0.0
1092,1092,-0.957954260618838,-1.0,1,473.0,883.0,1.0,244.0,1,0.6851579239809065,0.0
1093,1093,0.5718854575699199,0.6,0,288.0,580.0,0.0,2772.0,1,0.08602942653342471,0.0
1094,1094,0.8621636083138446,0.9,0,311.0,645.0,0.0,54.0,1,1.890501616461996,0.0
1095,1095,-0.6254296465506823,-0.6,1,439.0,646.0,1.0,215.0,1,1.311250801945828,0.0
1096,1096,0.9278226815795865,0.9,0,383.0,626.0,0.0,81.0,1,1.0723013748765433,0.0
1097,1097,0.28111448632521285,0.3,0,386.0,520.0,0.0,184.0,1,1.3107855425502544,0.0
1098,1098,-0.08122817616409428,-0.1,1,321.0,959.0,1.0,3720.0,1,0.1912396838143955,0.0
1099,1099,-0.313644852634293,-0.3,1,346.0,982.0,1.0,1002.0,1,0.4220607103536582,0.0
1100,1100,-0.5777380240760288,-0.6,1,373.0,870.0,1.0,187.0,1,1.7929337027442407,0.0
1101,1101,0.764510802600286,0.8,0,290.0,552.0,0.0,108.0,1,1.4048298350501731,0.0
1102,1102,0.10147487559896717,0.1,0,398.0,963.0,0.0,2009.0,1,0.8579730430988493,0.0
1103,1103,0.10902634781801579,0.1,0,357.0,747.0,0.0,2746.0,1,0.496057192404485,0.0
1104,1104,0.45075932475156266,0.5,0,271.0,768.0,0.0,261.0,1,1.3181422532958618,0.0
1105,1105,-0.21100769956464238,-0.2,1,462.0,563.0,1.0,255.0,1,0.7911674813407441,0.0
1106,1106,0.5369057545375939,0.5,0,262.0,991.0,0.0,167.0,1,1.7463099455147173,0.0
1107,1107,0.8879326240903738,0.9,0,286.0,719.0,0.0,125.0,1,1.1534974512305496,0.0
1108,1108,-0.21889847907351423,-0.2,1,261.0,906.0,1.0,363.0,1,1.242456347587053,0.0
1109,1109,-0.6080939918208164,-0.6,1,388.0,882.0,1.0,260.0,1,1.5055501845685482,0.0
1110,1110,0.9722707567364712,1.0,0,434.0,544.0,0.0,72.0,1,1.762249659992404,0.0
1111,1111,-0.5471918062492258,-0.5,1,282.0,800.0,1.0,68.0,1,1.7324202633116272,0.0
1112,1112,0.6961609237425783,0.7,0,451.0,625.0,0.0,94.0,1,1.556767708640463,0.0
1113,1113,-0.7185919258928823,-0.7,1,419.0,877.0,1.0,224.0,1,1.5593390242724117,0.0
1114,1114,-0.47735103908425014,-0.5,1,327.0,559.0,1.0,354.0,1,1.05924875551143,0.0
1115,1115,-0.6779199169336676,-0.7,1,366.0,854.0,1.0,180.0,1,1.66456569690576,0.0
1116,1116,-0.20806012893836057,-0.2,1,401.0,502.0,1.0,407.0,1,0.48852337322560846,0.0
1117,1117,0.5330258393959504,0.5,0,259.0,879.0,0.0,1222.0,1,0.14085211023106226,0.0
1118,1118,-0.3311496487520995,-0.3,1,433.0,783.0,1.0,1524.0,1,0.2084803531665329,0.0
1119,1119,0.5382826185808831,0.5,0,497.0,533.0,0.0,110.0,1,1.1080025241276776,0.0
1120,1120,0.5727714420183221,0.6,0,362.0,756.0,0.0,352.0,1,1.2766016484685623,0.0
1121,1121,-0.5260679519129381,-0.5,1,268.0,785.0,1.0,307.0,1,1.01166020862602,0.0
1122,1122,0.5114019476316991,0.5,0,474.0,829.0,0.0,377.0,1,0.973862067870308,0.0
1123,1123,-0.9365174498758073,-0.9,1,399.0,909.0,1.0,182.0,1,1.2333030779330483,0.0
1124,1124,0.6597669510288164,0.7,0,396.0,779.0,0.0,195.0,1,0.6535868273581626,0.0
1125,1125,0.1208002198192113,0.1,0,299.0,984.0,0.0,327.0,1,1.7736509803503262,0.0
1126,1126,-0.8836859853126244,-0.9,1,363.0,739.0,1.0,3898.0,1,0.006118237919429781,0.0
1127,1127,-0.5317746573684015,-0.5,1,494.0,913.0,1.0,293.0,1,0.8625900074023078,0.0
1128,1128,-0.6386972736019627,-0.6,1,334.0,884.0,1.0,182.0,1,1.0433954645899082,0.0
1129,1129,0.8716714983575871,0.9,0,327.0,953.0,0.0,250.0,1,0.3515491101390755,0.0
1130,1130,0.7931388032950604,0.8,0,257.0,796.0,0.0,237.0,1,1.8400512245221095,0.0
1131,1131,0.18933738288513768,0.2,0,325.0,998.0,0.0,297.0,1,0.7820473276741198,0.0
1132,1132,0.1619804982070474,0.2,0,413.0,615.0,0.0,1162.0,1,0.20258287268517639,0.0
1133,1133,0.4880312957387529,0.5,0,446.0,768.0,0.0,276.0,1,0.6967684052838008,0.0
1134,1134,0.01988745509611456,0.0,0,312.0,880.0,0.0,98.0,1,1.378296221047231,0.0
1135,1135,-0.5552788946671321,-0.6,1,320.0,756.0,1.0,404.0,1,0.7682545616268057,0.0
1136,1136,0.4063110996573671,0.4,0,261.0,714.0,0.0,225.0,1,1.4229889312567283,0.0
1137,1137,-0.5031780634374627,-0.5,1,384.0,636.0,1.0,180.0,1,1.9845782878749534,0.0
1138,1138,-0.7972566395805636,-0.8,1,349.0,951.0,1.0,240.0,1,1.6537444458348463,0.0
1139,1139,0.5370138979446957,0.5,0,306.0,862.0,0.0,162.0,1,1.9764174720087198,0.0
1140,1140,0.7270615458577534,0.7,0,296.0,830.0,0.0,94.0,1,1.3503987322599582,0.0
1141,1141,0.9715992322979461,1.0,0,345.0,701.0,0.0,184.0,1,0.544325460413676,0.0
1142,1142,0.779386860814105,0.8,0,340.0,970.0,0.0,190.0,1,1.428070225429737,0.0
1143,1143,0.2846305039132073,0.3,0,372.0,564.0,0.0,374.0,1,1.4052325315553806,0.0
1144,1144,0.5147502438069091,0.5,0,429.0,509.0,0.0,142.0,1,0.9004538013236705,0.0
1145,1145,0.903132163468811,0.9,0,430.0,955.0,0.0,195.0,1,0.7788476646732079,0.0
1146,1146,-0.19348566555626046,-0.2,1,280.0,669.0,1.0,111.0,1,1.839810672103374,0.0
1147,1147,0.9978867850753559,1.0,0,336.0,910.0,0.0,114.0,1,1.4056485881442509,0.0
1148,1148,0.575315863813211,0.6,0,376.0,710.0,0.0,144.0,1,1.7156042267035814,0.0
1149,1149,0.5271183106191557,0.5,0,416.0,974.0,0.0,350.0,1,1.1825802723126924,0.0
1150,1150,0.3187855782951021,0.3,0,309.0,562.0,0.0,169.0,1,0.9454817279662586,0.0
1151,1151,0.5061274119978538,0.5,0,259.0,735.0,0.0,106.0,1,1.9219063201726374,0.0
1152,1152,-0.7269989676299757,-0.7,1,367.0,965.0,1.0,308.0,1,1.9479417407841328,0.0
1153,1153,-0.36388167317935527,-0.4,1,454.0,749.0,1.0,247.0,1,1.9665566366608886,0.0
1154,1154,-0.29836528553348396,-0.3,1,443.0,745.0,1.0,472.0,1,1.8518988249100183,0.0
1155,1155,-0.8493446933869679,-0.8,1,336.0,592.0,1.0,92.0,1,1.2591188124881099,0.0
1156,1156,-0.20508141101969257,-0.2,1,465.0,768.0,1.0,387.0,1,0.6211055901988931,0.0
1157,1157,-0.22700760012921495,-0.2,1,317.0,929.0,1.0,174.0,1,1.7771513181096552,0.0
1158,1158,-0.7949469024458233,-0.8,1,332.0,680.0,1.0,128.0,1,1.7392856394903171,0.0
1159,1159,0.12683859273939735,0.1,0,385.0,670.0,0.0,485.0,1,1.6770917384491775,0.0
1160,1160,0.6770991937836439,0.7,0,391.0,924.0,0.0,175.0,1,1.643443177239519,0.0
1161,1161,-0.5768936501670727,-0.6,1,376.0,769.0,1.0,225.0,1,1.8083837111362528,0.0
1162,1162,-0.17118346922784533,-0.2,1,346.0,852.0,1.0,662.0,1,1.480963082529433,0.0
1163,1163,-0.21015590980143828,-0.2,1,418.0,704.0,1.0,238.0,1,0.750219756197605,0.0
1164,1164,0.040412054478386805,0.0,0,409.0,647.0,0.0,914.0,1,0.64720830148766,0.0
1165,1165,0.5308891857047753,0.5,0,348.0,978.0,0.0,114.0,1,1.9255222340975773,0.0
1166,1166,-0.7261067533057071,-0.7,1,479.0,586.0,1.0,355.0,1,0.7489601624129296,0.0
1167,1167,0.11011679173025235,0.1,0,278.0,876.0,0.0,686.0,1,1.7051223208820196,0.0
1168,1168,-0.05394215887522158,-0.1,1,349.0,508.0,0.0,4143.0,0,0.014178254739775742,0.0
1169,1169,-0.3166372897379546,-0.3,1,330.0,588.0,1.0,1932.0,1,0.10185352781691859,0.0
1170,1170,0.5719884775544053,0.6,0,451.0,996.0,0.0,303.0,1,0.6790444106020088,0.0
1171,1171,0.20681163094799793,0.2,0,338.0,845.0,0.0,257.0,1,1.5327536527741714,0.0
1172,1172,0.05918034948098505,0.1,0,495.0,855.0,0.0,390.0,1,1.8103772897807655,0.0
1173,1173,0.06607135033720812,0.1,0,447.0,770.0,0.0,3783.0,1,0.05208569467322177,0.0
1174,1174,-0.43439717729990024,-0.4,1,278.0,684.0,1.0,628.0,1,0.36925708765485865,0.0
1175,1175,-0.781247864989254,-0.8,1,435.0,934.0,1.0,371.0,1,0.7076818825099489,0.0
1176,1176,-0.6701636410986374,-0.7,1,337.0,646.0,1.0,227.0,1,1.450067639497461,0.0
1177,1177,0.45982955758360333,0.5,0,310.0,741.0,0.0,199.0,1,1.104869563759511,0.0
1178,1178,-0.763246121174163,-0.8,1,317.0,502.0,1.0,931.0,1,0.1087320573038435,0.0
1179,1179,-0.7663882636451891,-0.8,1,381.0,613.0,1.0,226.0,1,1.3543024919343465,0.0
1180,1180,-0.9896772936802667,-1.0,1,259.0,781.0,1.0,180.0,1,1.1029238826962726,0.0
1181,1181,-0.46265150308417136,-0.5,1,411.0,997.0,1.0,532.0,1,1.3116244051110677,0.0
1182,1182,-0.6032260818281108,-0.6,1,374.0,650.0,1.0,266.0,1,0.5452626596585097,0.0
1183,1183,-0.48831649502051366,-0.5,1,266.0,659.0,1.0,245.0,1,1.7199411505582505,0.0
1184,1184,-0.4283995247540784,-0.4,1,258.0,697.0,1.0,365.0,1,1.14026996360651,0.0
1185,1185,-0.7361610710011433,-0.7,1,425.0,683.0,1.0,172.0,1,0.9681968893648385,0.0
1186,1186,-0.65434567967948,-0.7,1,472.0,742.0,1.0,156.0,1,0.8784033625985077,0.0
1187,1187,0.42005134886634865,0.4,0,288.0,805.0,0.0,417.0,1,0.9682204150528417,0.0
1188,1188,-0.5415467200228419,-0.5,1,422.0,694.0,1.0,134.0,1,1.6384692384175008,0.0
1189,1189,-0.7009433361105672,-0.7,1,256.0,721.0,1.0,463.0,1,0.3393575016775432,0.0
1190,1190,0.383019926370608,0.4,0,330.0,936.0,0.0,224.0,1,1.321937264339961,0.0
1191,1191,0.8861025685954929,0.9,0,331.0,617.0,0.0,92.0,1,1.8583530790150629,0.0
1192,1192,0.7357800645337957,0.7,0,275.0,823.0,0.0,142.0,1,1.2967544289507413,0.0
1193,1193,0.10996018494189053,0.1,0,403.0,923.0,1.0,1594.0,0,0.7187741825278999,0.0
1194,1194,-0.9298336001036711,-0.9,1,268.0,681.0,1.0,261.0,1,0.34324622132208193,0.0
1195,1195,0.6818335212846887,0.7,0,277.0,837.0,0.0,216.0,1,1.033899152462652,0.0
1196,1196,-0.05928382958041345,-0.1,1,419.0,651.0,0.0,1810.0,0,0.7257299657391656,0.0
1197,1197,-0.699766091228154,-0.7,1,376.0,806.0,1.0,228.0,1,0.7202125365579068,0.0
1198,1198,0.4874994781162354,0.5,0,321.0,603.0,0.0,116.0,1,1.6711858326625257,0.0
1199,1199,-0.601815936447808,-0.6,1,262.0,964.0,1.0,464.0,1,0.3452338223298994,0.0
1200,1200,0.3460931061489967,0.3,0,341.0,921.0,1.0,108.0,0,1.6013662747912438,0.0
1201,1201,-0.5348374478015281,-0.5,1,339.0,689.0,1.0,202.0,1,0.5986511335692557,0.0
1202,1202,0.29060552559145036,0.3,0,438.0,642.0,0.0,350.0,1,0.8811297559413156,0.0
1203,1203,0.6299001547438738,0.6,0,399.0,971.0,0.0,230.0,1,1.6677361840593208,0.0
1204,1204,0.38581902311844263,0.4,0,269.0,696.0,0.0,195.0,1,1.2978143893000453,0.0
1205,1205,-0.3549795008526728,-0.4,1,451.0,580.0,1.0,1169.0,1,0.532996989274455,0.0
1206,1206,0.44997856020257343,0.4,0,403.0,929.0,0.0,228.0,1,0.8827584327154425,0.0
1207,1207,-0.9964554825167355,-1.0,1,498.0,501.0,1.0,201.0,1,1.8271455087142128,0.0
1208,1208,0.9265751393540622,0.9,0,253.0,694.0,0.0,243.0,1,0.3725955326082011,0.0
1209,1209,0.4231103812951962,0.4,0,409.0,597.0,0.0,254.0,1,0.9310408289613583,0.0
1210,1210,-0.6535947281527228,-0.7,1,313.0,694.0,1.0,293.0,1,0.3493747829766829,0.0
1211,1211,0.8592027908693931,0.9,0,330.0,602.0,0.0,118.0,1,1.6818748746633236,0.0
1212,1212,0.8596499110315592,0.9,0,373.0,553.0,0.0,144.0,1,1.1986100057207634,0.0
1213,1213,-0.0402280350594586,-0.0,1,419.0,512.0,0.0,839.0,0,1.3904156856660674,0.0
1214,1214,0.6945066958549346,0.7,0,410.0,944.0,0.0,246.0,1,1.1506753017294542,0.0
1215,1215,-0.28574298897139827,-0.3,1,252.0,667.0,1.0,161.0,1,1.7603589293608966,0.0
1216,1216,0.5791267281120898,0.6,0,393.0,699.0,0.0,298.0,1,0.5451937374773552,0.0
1217,1217,0.3516499049932653,0.4,0,399.0,519.0,0.0,662.0,1,0.7866548675845038,0.0
1218,1218,0.10761085692351346,0.1,0,378.0,625.0,0.0,507.0,1,1.169001342550081,0.0
1219,1219,0.8084553458282899,0.8,0,401.0,849.0,0.0,120.0,1,1.6220636652325764,0.0
1220,1220,-0.006354350850071411,-0.0,1,389.0,647.0,0.0,1134.0,0,0.8379814212793637,0.0
1221,1221,0.7447400526623491,0.7,0,306.0,521.0,0.0,183.0,1,1.0999225010112734,0.0
1222,1222,-0.036108338673180196,-0.0,1,318.0,823.0,0.0,299.0,0,1.097252975390342,0.0
1223,1223,0.9780387315566827,1.0,0,366.0,720.0,0.0,284.0,1,0.41108239629315935,0.0
1224,1224,0.24845069365410555,0.2,0,352.0,928.0,0.0,70.0,1,1.6625862368971522,0.0
