,trial,coherence,coherence_bin,correct_side,target_onset,checker_onset,decision,decision_time,correct_decision,g0,gSlope
0,0,0.3132790257579001,0.3,0,357.0,940.0,0.0,1293.0,1,0.014675392208961226,0.0
1,1,-0.580549901615977,-0.6,1,365.0,785.0,1.0,340.0,1,0.015226791373478377,0.0
2,2,0.24356938724109312,0.2,0,426.0,542.0,0.0,572.0,1,0.032701808080014994,0.0
3,3,-0.003274694940859968,-0.0,1,493.0,956.0,1.0,321.0,1,6.354352155312215e-05,0.0
4,4,-0.43463449346137195,-0.4,1,290.0,607.0,1.0,523.0,1,0.029866822247054805,0.0
5,5,-0.5253151290200035,-0.5,1,336.0,663.0,1.0,671.0,1,0.08687399246944948,0.0
6,6,0.7725865941184131,0.8,0,409.0,836.0,0.0,445.0,1,0.079640740728619,0.0
7,7,-0.9355095289826172,-0.9,1,397.0,900.0,1.0,613.0,1,0.08071340275586728,0.0
8,8,-0.600379458520085,-0.6,1,490.0,690.0,1.0,430.0,1,0.012480499018004977,0.0
9,9,-0.790479125555912,-0.8,1,253.0,712.0,1.0,195.0,1,0.07076485489213351,0.0
10,10,0.9623507183209274,1.0,0,391.0,655.0,0.0,324.0,1,0.021757785133737308,0.0
11,11,-0.5896464565744877,-0.6,1,471.0,733.0,1.0,736.0,1,0.07490851151081304,0.0
12,12,-0.4691737668823721,-0.5,1,437.0,796.0,1.0,367.0,1,0.043042985314986563,0.0
13,13,0.636856561658802,0.6,0,346.0,664.0,0.0,270.0,1,0.09404064960511305,0.0
14,14,-0.21465424613313933,-0.2,1,258.0,916.0,1.0,776.0,1,0.04598325432506786,0.0
15,15,0.08363817551575692,0.1,0,476.0,719.0,0.0,825.0,1,0.0752034798460129,0.0
16,16,0.5910404084273204,0.6,0,311.0,942.0,0.0,477.0,1,0.08120670784431107,0.0
17,17,0.18093990285849992,0.2,0,434.0,640.0,0.0,1186.0,1,0.08437093262514012,0.0
18,18,0.06179199452805628,0.1,0,411.0,619.0,0.0,1210.0,1,0.06314852900554829,0.0
19,19,0.988457496210619,1.0,0,311.0,759.0,0.0,460.0,1,0.048536182600200276,0.0
20,20,-0.39591732977048677,-0.4,1,391.0,557.0,1.0,572.0,1,0.030744242231195706,0.0
21,21,0.8557965483706738,0.9,0,401.0,635.0,0.0,234.0,1,0.08879487518125878,0.0
22,22,-0.5646306280116056,-0.6,1,258.0,809.0,1.0,553.0,1,0.07315557181739725,0.0
23,23,0.07334796384916964,0.1,0,410.0,977.0,0.0,633.0,1,0.07907077977659047,0.0
24,24,0.7767109050539933,0.8,0,369.0,861.0,0.0,150.0,1,0.06975501024441498,0.0
25,25,-0.46929752065480645,-0.5,1,427.0,842.0,1.0,571.0,1,0.05640942071045982,0.0
26,26,0.8487120511645205,0.8,0,251.0,547.0,0.0,232.0,1,0.07687216555328086,0.0
27,27,-0.06610199322737742,-0.1,1,488.0,933.0,0.0,329.0,0,0.07953779903016653,0.0
28,28,-0.030230213967920916,-0.0,1,423.0,920.0,1.0,927.0,1,0.07157506279753799,0.0
29,29,-0.853089488915366,-0.9,1,250.0,912.0,1.0,188.0,1,0.004307956607887431,0.0
30,30,0.15083650261585158,0.2,0,421.0,829.0,1.0,220.0,0,0.09587174399250264,0.0
31,31,0.991654225317661,1.0,0,260.0,963.0,0.0,267.0,1,0.016021501830414543,0.0
32,32,0.7056699880249342,0.7,0,372.0,820.0,0.0,818.0,1,0.07008026194894688,0.0
33,33,0.6263502016383682,0.6,0,491.0,890.0,0.0,309.0,1,0.05434016254596653,0.0
34,34,0.798143291019489,0.8,0,372.0,574.0,0.0,434.0,1,0.06049787864696698,0.0
35,35,-0.5625891296796592,-0.6,1,428.0,844.0,1.0,318.0,1,0.02460264812037385,0.0
36,36,-0.017365623363341243,-0.0,1,414.0,805.0,1.0,781.0,1,0.026865563822169303,0.0
37,37,0.6449133989322817,0.6,0,407.0,953.0,0.0,260.0,1,0.026826574174027753,0.0
38,38,0.8031478877834448,0.8,0,267.0,920.0,0.0,573.0,1,0.08901491401710478,0.0
39,39,-0.8772438766352761,-0.9,1,253.0,710.0,1.0,447.0,1,0.04968795121245509,0.0
40,40,0.7050283276103861,0.7,0,346.0,877.0,0.0,347.0,1,0.0961450762822167,0.0
41,41,-0.36276982540592484,-0.4,1,493.0,723.0,1.0,444.0,1,0.01018032697196426,0.0
42,42,-0.04605902086941338,-0.0,1,298.0,977.0,1.0,555.0,1,0.09174593804347488,0.0
43,43,0.33419144133266965,0.3,0,316.0,727.0,0.0,417.0,1,0.003777622497010591,0.0
44,44,0.9271382187016517,0.9,0,349.0,690.0,0.0,281.0,1,0.014715671355581184,0.0
45,45,0.32140383617221957,0.3,0,396.0,943.0,0.0,631.0,1,0.00844961471544985,0.0
46,46,0.6414751199030495,0.6,0,382.0,664.0,0.0,614.0,1,0.06476506099249628,0.0
47,47,0.7726123116523076,0.8,0,457.0,881.0,0.0,492.0,1,0.04395111016818755,0.0
48,48,-0.16315529403085494,-0.2,1,476.0,728.0,1.0,886.0,1,1.116670878184012e-05,0.0
49,49,-0.4767815080511364,-0.5,1,497.0,648.0,1.0,375.0,1,0.0648272615129533,0.0
50,50,-0.8417015464097555,-0.8,1,477.0,859.0,1.0,304.0,1,0.040545305423879574,0.0
51,51,0.8313713859793082,0.8,0,462.0,997.0,0.0,441.0,1,0.00555033521282583,0.0
52,52,0.17170609142666948,0.2,0,353.0,770.0,0.0,747.0,1,0.0035312490654586972,0.0
53,53,0.5982522327836515,0.6,0,324.0,926.0,0.0,190.0,1,0.05130274912010954,0.0
54,54,-0.7367219420655065,-0.7,1,329.0,542.0,1.0,199.0,1,0.032127575947704226,0.0
55,55,0.31051262746989794,0.3,0,401.0,596.0,0.0,1243.0,1,0.043697136647364514,0.0
56,56,0.5889302610810756,0.6,0,449.0,747.0,0.0,244.0,1,0.09496200702649121,0.0
57,57,-0.22222944124727895,-0.2,1,407.0,642.0,1.0,631.0,1,0.046516686260278155,0.0
58,58,0.9133232098949275,0.9,0,449.0,717.0,0.0,244.0,1,0.07968016675890549,0.0
59,59,0.010604458163322228,0.0,0,341.0,997.0,1.0,1192.0,0,0.007435159634972855,0.0
60,60,-0.12548863258002685,-0.1,1,438.0,663.0,1.0,779.0,1,0.05131394558937668,0.0
61,61,-0.03719108949023564,-0.0,1,493.0,783.0,1.0,1244.0,1,0.07633631056108024,0.0
62,62,0.493582918146132,0.5,0,358.0,924.0,0.0,268.0,1,0.04458750587238955,0.0
63,63,-0.7764404215169576,-0.8,1,311.0,936.0,1.0,453.0,1,0.06895262372046328,0.0
64,64,0.029836786912689872,0.0,0,318.0,508.0,1.0,684.0,0,0.027226114411989234,0.0
65,65,-0.020661961660369377,-0.0,1,477.0,733.0,1.0,3380.0,1,0.028478592413474713,0.0
66,66,0.08153693279373586,0.1,0,261.0,583.0,0.0,626.0,1,0.04158255938084876,0.0
67,67,-0.8337367719899871,-0.8,1,361.0,614.0,1.0,255.0,1,0.031521509209081665,0.0
68,68,-0.45122250652278484,-0.5,1,438.0,739.0,1.0,483.0,1,0.05834474365062347,0.0
69,69,-0.3843912178363178,-0.4,1,371.0,505.0,1.0,854.0,1,0.012228217741472059,0.0
70,70,0.5576018590986869,0.6,0,403.0,890.0,0.0,457.0,1,0.08296282809791357,0.0
71,71,-0.9161019281745,-0.9,1,383.0,593.0,1.0,314.0,1,0.0038135725226719932,0.0
72,72,0.11095415867658787,0.1,0,327.0,794.0,0.0,589.0,1,0.04723935443806257,0.0
73,73,0.9206339614376409,0.9,0,363.0,964.0,0.0,273.0,1,0.08805528202555696,0.0
74,74,0.5824944030470514,0.6,0,341.0,902.0,0.0,417.0,1,0.008216208096939293,0.0
75,75,0.7466649925147077,0.7,0,452.0,723.0,0.0,255.0,1,0.021533341433183764,0.0
76,76,0.9720420314903591,1.0,0,441.0,961.0,0.0,268.0,1,0.09281568530480594,0.0
77,77,-0.9034099702367053,-0.9,1,476.0,878.0,1.0,166.0,1,0.06380344367295955,0.0
78,78,-0.9142733171343531,-0.9,1,388.0,534.0,1.0,468.0,1,0.008310549274062762,0.0
79,79,0.5031980694269922,0.5,0,351.0,940.0,0.0,359.0,1,0.01009805171407604,0.0
80,80,0.7328734338967617,0.7,0,287.0,735.0,0.0,378.0,1,0.0709930927855344,0.0
81,81,-0.7074827502696064,-0.7,1,497.0,625.0,1.0,238.0,1,0.09116670292842716,0.0
82,82,-0.7993353261408489,-0.8,1,427.0,922.0,1.0,321.0,1,0.029830437134048385,0.0
83,83,-0.47672800285161054,-0.5,1,420.0,687.0,1.0,293.0,1,0.06486923144217054,0.0
84,84,-0.3875198210676718,-0.4,1,293.0,523.0,1.0,674.0,1,0.08716233106003249,0.0
85,85,-0.4038649572031092,-0.4,1,353.0,796.0,1.0,491.0,1,0.05541568544257234,0.0
86,86,0.5524782393968828,0.6,0,480.0,788.0,0.0,592.0,1,0.0877934329854429,0.0
87,87,-0.7355759133593609,-0.7,1,347.0,588.0,1.0,255.0,1,0.016882480329788254,0.0
88,88,-0.11026648135137451,-0.1,1,390.0,663.0,1.0,467.0,1,0.04791748462050384,0.0
89,89,-0.3799661319424148,-0.4,1,381.0,892.0,1.0,397.0,1,0.0770355286578182,0.0
90,90,0.8262161099508205,0.8,0,397.0,554.0,0.0,259.0,1,0.07079974924881553,0.0
91,91,0.466435136889211,0.5,0,424.0,927.0,0.0,399.0,1,0.018034305861295563,0.0
92,92,-0.9888090234674032,-1.0,1,269.0,825.0,1.0,466.0,1,0.04955661997456824,0.0
93,93,-0.031588972122361,-0.0,1,250.0,650.0,1.0,810.0,1,0.023246153067509368,0.0
94,94,0.8961323056021717,0.9,0,414.0,778.0,0.0,398.0,1,0.023220853183093783,0.0
95,95,0.0488862472832321,0.0,0,357.0,843.0,1.0,280.0,0,0.0958167943502891,0.0
96,96,-0.05361953792248797,-0.1,1,342.0,732.0,1.0,736.0,1,0.01838524272399631,0.0
97,97,0.5028255403032231,0.5,0,330.0,845.0,0.0,355.0,1,0.08298411801427924,0.0
98,98,0.604596764156744,0.6,0,294.0,989.0,0.0,337.0,1,0.0986704151429884,0.0
99,99,-0.10173600077275058,-0.1,1,257.0,584.0,1.0,589.0,1,0.08703351602315014,0.0
100,100,0.18728232564212766,0.2,0,415.0,643.0,0.0,972.0,1,0.07206004444960108,0.0
101,101,0.23621294984885433,0.2,0,448.0,791.0,0.0,2261.0,1,0.06591110733646037,0.0
102,102,-0.12190229970318334,-0.1,1,388.0,641.0,1.0,831.0,1,0.018959836460276148,0.0
103,103,0.5609587605689266,0.6,0,370.0,932.0,0.0,268.0,1,0.09206768802180354,0.0
104,104,-0.2864289634344668,-0.3,1,371.0,980.0,1.0,679.0,1,0.07660580541315586,0.0
105,105,0.07397151289044457,0.1,0,328.0,898.0,0.0,754.0,1,0.09707497640342605,0.0
106,106,0.04422631559874568,0.0,0,344.0,863.0,1.0,2813.0,0,0.07082706780500471,0.0
107,107,0.10833573124579154,0.1,0,424.0,768.0,0.0,418.0,1,0.07934005244219555,0.0
108,108,0.9387390138607521,0.9,0,254.0,774.0,0.0,692.0,1,0.0970223583347926,0.0
109,109,-0.9495706964232897,-0.9,1,319.0,865.0,1.0,326.0,1,0.09614513785331319,0.0
110,110,-0.06917332305100143,-0.1,1,254.0,576.0,1.0,890.0,1,0.04183587394837848,0.0
111,111,0.560041564218192,0.6,0,364.0,629.0,0.0,447.0,1,0.06423791841129911,0.0
112,112,-0.7334023677774779,-0.7,1,272.0,885.0,1.0,283.0,1,0.09027983468467736,0.0
113,113,-0.5323257925569711,-0.5,1,484.0,874.0,1.0,322.0,1,0.07406927091988019,0.0
114,114,0.506232172723339,0.5,0,377.0,560.0,0.0,323.0,1,0.00029409062319263324,0.0
115,115,0.7729642201908804,0.8,0,483.0,590.0,0.0,357.0,1,0.09108932434649161,0.0
116,116,0.9092456847716532,0.9,0,375.0,971.0,0.0,164.0,1,0.0761909499093742,0.0
117,117,-0.11713894101413747,-0.1,1,342.0,764.0,1.0,1594.0,1,0.070243700081731,0.0
118,118,0.15481303421943493,0.2,0,478.0,667.0,0.0,425.0,1,0.03938660208838221,0.0
119,119,0.2954779757386059,0.3,0,375.0,946.0,0.0,359.0,1,0.038910876400292296,0.0
120,120,0.40272689199487566,0.4,0,468.0,502.0,0.0,380.0,1,0.06615395854729354,0.0
121,121,0.6826481408525016,0.7,0,416.0,768.0,0.0,316.0,1,0.09824850336834645,0.0
122,122,0.7691637667535796,0.8,0,445.0,875.0,0.0,300.0,1,0.013757295385665459,0.0
123,123,-0.9391285891480445,-0.9,1,275.0,816.0,1.0,289.0,1,0.025886040036633442,0.0
124,124,0.5437889628339789,0.5,0,335.0,851.0,0.0,1174.0,1,0.08414556034069605,0.0
125,125,0.187675779815355,0.2,0,402.0,725.0,0.0,803.0,1,0.07793747472950005,0.0
126,126,-0.9495731322651373,-0.9,1,256.0,522.0,1.0,372.0,1,0.04035268635353809,0.0
127,127,0.7553970467786446,0.8,0,306.0,755.0,0.0,199.0,1,0.013498778720996474,0.0
128,128,0.5235869184567352,0.5,0,315.0,580.0,0.0,505.0,1,0.05032015816713199,0.0
129,129,0.5045208770480298,0.5,0,488.0,880.0,0.0,222.0,1,0.04035844129699373,0.0
130,130,-0.37967890802886495,-0.4,1,277.0,978.0,1.0,435.0,1,0.08130926212697331,0.0
131,131,-0.5210096716488419,-0.5,1,415.0,715.0,1.0,300.0,1,0.014724732213240423,0.0
132,132,-0.8287328318168405,-0.8,1,427.0,714.0,1.0,339.0,1,0.022572294716103593,0.0
133,133,0.9389025040010139,0.9,0,481.0,651.0,0.0,308.0,1,0.07639467145263407,0.0
134,134,-0.04946118214701278,-0.0,1,341.0,831.0,1.0,1388.0,1,0.08451800918726732,0.0
135,135,0.5614623500817935,0.6,0,272.0,926.0,0.0,242.0,1,0.08134378878222581,0.0
136,136,-0.04703427491597778,-0.0,1,350.0,958.0,0.0,422.0,0,0.004473439865807694,0.0
137,137,0.8607432065052414,0.9,0,432.0,959.0,0.0,209.0,1,0.03719888101899978,0.0
138,138,-0.8535264256737176,-0.9,1,436.0,594.0,1.0,370.0,1,0.013614313645211141,0.0
139,139,-0.26134257956774665,-0.3,1,455.0,989.0,1.0,496.0,1,0.0022169671102707958,0.0
140,140,-0.21829498921450918,-0.2,1,420.0,517.0,1.0,533.0,1,0.06603089283711454,0.0
141,141,-0.3093346678628317,-0.3,1,343.0,816.0,1.0,351.0,1,0.022099649472044902,0.0
142,142,-0.7875714362890021,-0.8,1,480.0,720.0,1.0,260.0,1,0.0989990002420583,0.0
143,143,-0.6046223776019757,-0.6,1,282.0,631.0,1.0,407.0,1,0.05641134551995545,0.0
144,144,-0.17236405073962846,-0.2,1,267.0,664.0,1.0,1149.0,1,0.023070651967423406,0.0
145,145,0.37563430728232783,0.4,0,294.0,664.0,0.0,372.0,1,0.047307492719724675,0.0
146,146,-0.31934562693826796,-0.3,1,303.0,643.0,1.0,284.0,1,0.07991478445930379,0.0
147,147,0.6443328715873222,0.6,0,283.0,866.0,0.0,321.0,1,0.060126544095971235,0.0
148,148,0.6919103440410195,0.7,0,332.0,847.0,0.0,271.0,1,0.03365985761891762,0.0
149,149,-0.8869392714750137,-0.9,1,436.0,564.0,1.0,260.0,1,0.0964763650281407,0.0
150,150,-0.7287304367173313,-0.7,1,410.0,523.0,1.0,317.0,1,0.09404112197313838,0.0
151,151,-0.5776130078779607,-0.6,1,329.0,753.0,1.0,548.0,1,0.09221888135739943,0.0
152,152,0.4458384852271726,0.4,0,336.0,946.0,0.0,318.0,1,0.03629550823418126,0.0
153,153,-0.7255965939000539,-0.7,1,261.0,900.0,1.0,279.0,1,0.006830834264664943,0.0
154,154,0.16115572728810523,0.2,0,267.0,686.0,0.0,827.0,1,0.05361694499124967,0.0
155,155,0.5440372845059838,0.5,0,458.0,806.0,0.0,276.0,1,0.08807854136137934,0.0
156,156,0.25423003571540925,0.3,0,341.0,771.0,0.0,348.0,1,0.0489285660392291,0.0
157,157,-0.018483862449433675,-0.0,1,338.0,816.0,1.0,1956.0,1,0.004450798832851421,0.0
158,158,0.9463884456157052,0.9,0,252.0,617.0,0.0,501.0,1,0.034372128470844046,0.0
159,159,0.19976747943253548,0.2,0,368.0,814.0,0.0,168.0,1,0.09061559849767775,0.0
160,160,-0.9528832702383945,-1.0,1,275.0,703.0,1.0,262.0,1,0.017476168218173726,0.0
161,161,0.07028824724665128,0.1,0,279.0,505.0,1.0,316.0,0,0.06527297902948469,0.0
162,162,-0.45305451028414745,-0.5,1,477.0,738.0,1.0,495.0,1,0.04964558383957021,0.0
163,163,0.26539369184954853,0.3,0,421.0,698.0,0.0,361.0,1,0.019720802734463607,0.0
164,164,0.1796783143351557,0.2,0,440.0,778.0,0.0,692.0,1,0.0990525216124214,0.0
165,165,-0.14949334028694117,-0.1,1,478.0,672.0,1.0,440.0,1,0.09885595307746826,0.0
166,166,-0.19979457133522538,-0.2,1,367.0,672.0,1.0,351.0,1,0.032534568809516974,0.0
167,167,0.9903300701361495,1.0,0,424.0,873.0,0.0,493.0,1,0.0687121944638966,0.0
168,168,0.33109497859499015,0.3,0,453.0,996.0,0.0,511.0,1,0.08248231571836667,0.0
169,169,0.3623277549573478,0.4,0,346.0,719.0,0.0,835.0,1,0.03355003169396444,0.0
170,170,-0.5999973701465071,-0.6,1,426.0,658.0,1.0,356.0,1,0.049623731989459956,0.0
171,171,0.5995136916045676,0.6,0,404.0,520.0,0.0,206.0,1,0.020971490127697303,0.0
172,172,-0.4077031921130876,-0.4,1,418.0,557.0,1.0,345.0,1,0.07958624659817716,0.0
173,173,-0.7342518387047721,-0.7,1,431.0,787.0,1.0,142.0,1,0.041033391769195904,0.0
174,174,0.9104713358745387,0.9,0,372.0,527.0,0.0,811.0,1,0.005933393138795585,0.0
175,175,0.21280675017852269,0.2,0,340.0,673.0,0.0,287.0,1,0.03705594328997398,0.0
176,176,-0.17843226141696533,-0.2,1,367.0,645.0,1.0,818.0,1,0.013454171578716168,0.0
177,177,0.11445302820129988,0.1,0,267.0,579.0,0.0,834.0,1,0.0677553255564604,0.0
178,178,0.5199590070430762,0.5,0,476.0,689.0,0.0,395.0,1,0.044829668073040965,0.0
179,179,0.45599075379768705,0.5,0,316.0,894.0,0.0,350.0,1,0.014017610704508299,0.0
180,180,-0.9631451803007698,-1.0,1,469.0,883.0,1.0,288.0,1,0.07799054674098477,0.0
181,181,0.6783958660271892,0.7,0,430.0,775.0,0.0,165.0,1,0.06387315186490909,0.0
182,182,0.7993933568768703,0.8,0,484.0,568.0,0.0,348.0,1,0.00014444337732485434,0.0
183,183,-0.48405465851641893,-0.5,1,354.0,616.0,1.0,550.0,1,0.016560073318537195,0.0
184,184,0.9897328472048619,1.0,0,444.0,659.0,0.0,137.0,1,0.06879849142013209,0.0
185,185,0.022833978281493694,0.0,0,319.0,575.0,0.0,476.0,1,0.053803852878090246,0.0
186,186,0.583150375680731,0.6,0,459.0,551.0,0.0,390.0,1,0.04050120430157916,0.0
187,187,-0.12768193358219082,-0.1,1,388.0,686.0,1.0,926.0,1,0.043046434132670355,0.0
188,188,-0.3929399085793246,-0.4,1,484.0,958.0,1.0,678.0,1,0.046296035485832304,0.0
189,189,0.2886882855891264,0.3,0,489.0,959.0,0.0,602.0,1,0.029469007379809523,0.0
190,190,0.7241945334785811,0.7,0,477.0,796.0,0.0,327.0,1,0.054234959213779146,0.0
191,191,-0.6580672532333742,-0.7,1,257.0,810.0,1.0,243.0,1,0.08309199432071274,0.0
192,192,-0.30937309063745233,-0.3,1,391.0,622.0,1.0,1197.0,1,0.07188431412626048,0.0
193,193,0.8153871522751135,0.8,0,260.0,525.0,0.0,355.0,1,0.0945190525806976,0.0
194,194,-0.6641405649310335,-0.7,1,267.0,988.0,1.0,295.0,1,0.08280768403012526,0.0
195,195,-0.1492722066544807,-0.1,1,333.0,837.0,1.0,770.0,1,0.09700878337658952,0.0
196,196,0.09191452948214196,0.1,0,449.0,882.0,0.0,2009.0,1,0.04942491014914479,0.0
197,197,0.25670923188029326,0.3,0,301.0,805.0,0.0,764.0,1,0.06650096261909554,0.0
198,198,0.28903064260966027,0.3,0,410.0,893.0,0.0,537.0,1,0.03253512976176098,0.0
199,199,-0.12718971534564427,-0.1,1,372.0,845.0,1.0,663.0,1,0.08565629453666387,0.0
200,200,0.938610557717499,0.9,0,295.0,745.0,0.0,270.0,1,0.04089693813172708,0.0
201,201,-0.2174422630546744,-0.2,1,336.0,633.0,1.0,1431.0,1,0.03812668324222434,0.0
202,202,-0.5282104180076261,-0.5,1,483.0,973.0,1.0,374.0,1,0.011482352325016565,0.0
203,203,-0.4967477525926658,-0.5,1,435.0,683.0,1.0,302.0,1,0.011782999728739786,0.0
204,204,0.8302768793120574,0.8,0,407.0,580.0,0.0,213.0,1,0.008021272294281323,0.0
205,205,-0.25359785910776456,-0.3,1,406.0,805.0,1.0,809.0,1,0.08784686897646093,0.0
206,206,0.18098408064450022,0.2,0,410.0,889.0,0.0,591.0,1,0.06509796183554409,0.0
207,207,-0.49485208011796145,-0.5,1,461.0,768.0,1.0,341.0,1,0.09635070540598732,0.0
208,208,0.7169062278969647,0.7,0,288.0,777.0,0.0,375.0,1,0.09150011101601958,0.0
209,209,0.49185117480485796,0.5,0,314.0,949.0,0.0,477.0,1,0.0514819445794189,0.0
210,210,0.9841157286116642,1.0,0,412.0,891.0,0.0,387.0,1,0.06892951362170414,0.0
211,211,-0.28190243510668145,-0.3,1,325.0,720.0,1.0,475.0,1,0.02197204870082439,0.0
212,212,0.39087818107452166,0.4,0,417.0,875.0,0.0,458.0,1,0.013289901965700335,0.0
213,213,-0.6952667816542002,-0.7,1,403.0,799.0,1.0,278.0,1,0.04107816406318962,0.0
214,214,-0.18160369878491256,-0.2,1,478.0,576.0,1.0,456.0,1,0.06695210635907259,0.0
215,215,0.5576462436078122,0.6,0,399.0,836.0,0.0,585.0,1,0.02194183822403464,0.0
216,216,-0.9583914766169912,-1.0,1,261.0,946.0,1.0,303.0,1,0.051854489113473394,0.0
217,217,0.5583602696299783,0.6,0,491.0,765.0,0.0,314.0,1,0.07276143115190935,0.0
218,218,-5.6680509412210256e-05,-0.0,1,320.0,595.0,0.0,325.0,0,0.09095441780153363,0.0
219,219,-0.8060116097302479,-0.8,1,355.0,727.0,1.0,268.0,1,0.06934519668557053,0.0
220,220,0.4792293507073122,0.5,0,256.0,930.0,0.0,354.0,1,0.06277391766976717,0.0
221,221,0.36256459805306007,0.4,0,261.0,808.0,0.0,501.0,1,0.09934327845341402,0.0
222,222,-0.44409240489304813,-0.4,1,411.0,829.0,1.0,320.0,1,0.08067330058343374,0.0
223,223,-0.5144878804002018,-0.5,1,360.0,782.0,1.0,328.0,1,0.08596292039112768,0.0
224,224,-0.2439823193725763,-0.2,1,252.0,985.0,1.0,513.0,1,0.0764928378557954,0.0
225,225,0.1537633395219571,0.2,0,380.0,732.0,0.0,558.0,1,0.0304113540094883,0.0
226,226,-0.498245803536433,-0.5,1,355.0,558.0,1.0,717.0,1,0.008407035404624785,0.0
227,227,-0.7634275870999925,-0.8,1,426.0,994.0,1.0,500.0,1,0.0730725845950545,0.0
228,228,-0.38513280934478833,-0.4,1,269.0,500.0,1.0,451.0,1,0.011435133137847631,0.0
229,229,-0.33784029395266013,-0.3,1,415.0,714.0,1.0,451.0,1,0.04051125136158389,0.0
230,230,0.5054095375174581,0.5,0,370.0,917.0,0.0,543.0,1,0.03127332895169478,0.0
231,231,0.18964251668474774,0.2,0,395.0,934.0,0.0,1501.0,1,0.009717536752155987,0.0
232,232,-0.7881297133646341,-0.8,1,412.0,795.0,1.0,223.0,1,0.012536796618396585,0.0
233,233,-0.39328724108776747,-0.4,1,355.0,698.0,1.0,477.0,1,0.089136306946765,0.0
234,234,-0.8517028199218282,-0.9,1,360.0,938.0,1.0,222.0,1,0.08534601489084793,0.0
235,235,-0.5044314052543641,-0.5,1,303.0,983.0,1.0,384.0,1,0.018802040416140753,0.0
236,236,-0.2290717373148281,-0.2,1,342.0,601.0,1.0,407.0,1,0.005666741186022218,0.0
237,237,0.1999097427539771,0.2,0,264.0,577.0,0.0,789.0,1,0.052207924192820124,0.0
238,238,-0.017150496497338796,-0.0,1,369.0,746.0,0.0,725.0,0,0.03151871745486327,0.0
239,239,-0.08763644142859728,-0.1,1,382.0,548.0,1.0,1150.0,1,0.07725132728303602,0.0
240,240,-0.9704922178663282,-1.0,1,366.0,641.0,1.0,383.0,1,0.08081024048714526,0.0
241,241,0.04838923255037342,0.0,0,438.0,691.0,0.0,821.0,1,0.09930087252969025,0.0
242,242,-0.44750338920362065,-0.4,1,296.0,799.0,1.0,515.0,1,0.08675148411659553,0.0
243,243,0.8736449475644712,0.9,0,270.0,686.0,0.0,344.0,1,0.09316797037416144,0.0
244,244,-0.5033058240307027,-0.5,1,348.0,993.0,1.0,529.0,1,0.08458008518978458,0.0
245,245,-0.53640557270958,-0.5,1,276.0,775.0,1.0,389.0,1,0.023575046660401847,0.0
246,246,-0.9638934205045964,-1.0,1,421.0,505.0,1.0,144.0,1,0.01406812657686547,0.0
247,247,0.1749151006445926,0.2,0,306.0,703.0,0.0,831.0,1,0.07869336107882162,0.0
248,248,-0.6699819609061093,-0.7,1,321.0,659.0,1.0,300.0,1,0.015470445621640627,0.0
249,249,0.5232208109023069,0.5,0,299.0,773.0,0.0,238.0,1,0.05821118469598934,0.0
250,250,0.21318716116992942,0.2,0,476.0,905.0,0.0,339.0,1,0.06034090507694667,0.0
251,251,0.28724137031510044,0.3,0,293.0,745.0,0.0,492.0,1,0.09342746617698522,0.0
252,252,-0.2695445845110336,-0.3,1,252.0,544.0,1.0,754.0,1,0.08711999080056272,0.0
253,253,0.7791240276139664,0.8,0,417.0,616.0,0.0,227.0,1,0.08763923887979574,0.0
254,254,0.09463473527489885,0.1,0,446.0,626.0,1.0,328.0,0,0.0461702299826523,0.0
255,255,0.2024253185664533,0.2,0,331.0,835.0,0.0,394.0,1,0.08476352240179086,0.0
256,256,0.36496388505825283,0.4,0,442.0,939.0,0.0,519.0,1,0.04728161521177602,0.0
257,257,0.39147357949478834,0.4,0,479.0,607.0,0.0,544.0,1,0.04423331195776793,0.0
258,258,-0.3443885869965997,-0.3,1,386.0,820.0,1.0,624.0,1,0.02605766180384709,0.0
259,259,-0.7813399199489011,-0.8,1,453.0,613.0,1.0,274.0,1,0.061933277249985666,0.0
260,260,0.538215622985664,0.5,0,346.0,963.0,0.0,281.0,1,0.0010083191673842418,0.0
261,261,0.03630855397633037,0.0,0,338.0,959.0,0.0,303.0,1,0.04066724225395466,0.0
262,262,-0.7380246706302893,-0.7,1,276.0,846.0,1.0,338.0,1,0.016351196215132414,0.0
263,263,-0.8005702737083187,-0.8,1,300.0,990.0,1.0,390.0,1,0.07404144277836147,0.0
264,264,-0.5339182650824634,-0.5,1,443.0,668.0,1.0,239.0,1,0.034188010662721494,0.0
265,265,0.4281328788465255,0.4,0,389.0,918.0,0.0,383.0,1,0.08280624180044112,0.0
266,266,0.9503123893437406,1.0,0,431.0,533.0,0.0,266.0,1,0.08684553362050064,0.0
267,267,-0.8746772510489358,-0.9,1,269.0,778.0,1.0,313.0,1,0.06999156053643701,0.0
268,268,0.5065982895680039,0.5,0,261.0,997.0,0.0,422.0,1,0.03558729542734961,0.0
269,269,0.2849534814302712,0.3,0,256.0,664.0,0.0,470.0,1,0.0821187285537238,0.0
270,270,0.3657832857691745,0.4,0,344.0,814.0,0.0,442.0,1,0.05472424927036981,0.0
271,271,0.04037982483862712,0.0,0,451.0,993.0,0.0,526.0,1,0.05026460144587687,0.0
272,272,-0.4717018091796139,-0.5,1,428.0,821.0,1.0,431.0,1,0.05183951570617366,0.0
273,273,0.7681485359596836,0.8,0,288.0,929.0,0.0,283.0,1,0.02862403633756344,0.0
274,274,-0.8986763676373453,-0.9,1,396.0,933.0,1.0,371.0,1,0.07638514926989909,0.0
275,275,-0.8393694514242698,-0.8,1,349.0,929.0,1.0,192.0,1,0.05451894876388506,0.0
276,276,0.7397258266585938,0.7,0,443.0,723.0,0.0,344.0,1,0.027890194734083596,0.0
277,277,0.6064991539152282,0.6,0,318.0,954.0,0.0,408.0,1,0.032023215368863,0.0
278,278,-0.6129044780784505,-0.6,1,312.0,822.0,1.0,436.0,1,0.03422780012517459,0.0
279,279,0.06138597266819379,0.1,0,407.0,700.0,1.0,423.0,0,0.03488453657491639,0.0
280,280,-0.7967660661050351,-0.8,1,384.0,726.0,1.0,290.0,1,0.06752755358582545,0.0
281,281,0.4787702788530832,0.5,0,488.0,710.0,0.0,532.0,1,0.09206247241188344,0.0
282,282,0.9902053597412064,1.0,0,346.0,579.0,0.0,385.0,1,0.09278888134426462,0.0
283,283,-0.7793257678116059,-0.8,1,487.0,882.0,1.0,441.0,1,0.07228837276065207,0.0
284,284,0.7269229725064155,0.7,0,393.0,538.0,0.0,399.0,1,0.07718384640458364,0.0
285,285,-0.8225568234952982,-0.8,1,349.0,762.0,1.0,299.0,1,0.06558244824955832,0.0
286,286,-0.9322427872107801,-0.9,1,499.0,506.0,1.0,335.0,1,0.019769248734056277,0.0
287,287,-0.6405965441749331,-0.6,1,254.0,748.0,1.0,318.0,1,0.08918961229865663,0.0
288,288,0.825191664808999,0.8,0,266.0,636.0,0.0,208.0,1,0.09631264746515979,0.0
289,289,-0.3140723685694409,-0.3,1,479.0,772.0,1.0,549.0,1,0.03525042909439382,0.0
290,290,0.5859936664630423,0.6,0,271.0,774.0,0.0,445.0,1,0.024470773404969795,0.0
291,291,-0.6254809067229199,-0.6,1,373.0,800.0,1.0,357.0,1,0.005485863144638248,0.0
292,292,-0.3584502665307747,-0.4,1,469.0,715.0,1.0,576.0,1,0.09871939714624539,0.0
293,293,-0.670942220689154,-0.7,1,295.0,971.0,1.0,874.0,1,0.02055202031210328,0.0
294,294,0.8246233593318082,0.8,0,335.0,705.0,0.0,240.0,1,0.06628437660095982,0.0
295,295,-0.12261294580236481,-0.1,1,333.0,743.0,1.0,1544.0,1,0.055576262366515784,0.0
296,296,-0.0644491394952924,-0.1,1,327.0,771.0,1.0,392.0,1,0.02684315970604817,0.0
297,297,-0.09333515089524425,-0.1,1,390.0,785.0,1.0,265.0,1,0.04944328210204873,0.0
298,298,0.8466926701997477,0.8,0,437.0,605.0,0.0,268.0,1,0.05742126703615628,0.0
299,299,-0.9146739714522696,-0.9,1,441.0,650.0,1.0,329.0,1,0.023991115333854476,0.0
300,300,-0.3034419310543275,-0.3,1,446.0,913.0,1.0,451.0,1,0.0356132072648916,0.0
301,301,0.45611758640531197,0.5,0,254.0,831.0,0.0,385.0,1,0.042392655639831134,0.0
302,302,-0.17754005027352715,-0.2,1,477.0,557.0,1.0,856.0,1,0.07244215303787961,0.0
303,303,0.9747572688464679,1.0,0,265.0,954.0,0.0,161.0,1,0.025527951006133455,0.0
304,304,0.8492109355263948,0.8,0,376.0,614.0,0.0,240.0,1,0.06806097432267082,0.0
305,305,-0.09018994713413808,-0.1,1,310.0,870.0,1.0,760.0,1,0.09169875305255842,0.0
306,306,0.11423539934401328,0.1,0,376.0,774.0,1.0,370.0,0,0.09223306579409608,0.0
307,307,-0.5718152060722366,-0.6,1,362.0,663.0,1.0,295.0,1,0.015046496784359431,0.0
308,308,-0.7643831982220544,-0.8,1,348.0,864.0,1.0,388.0,1,0.09567097500729126,0.0
309,309,0.4576374027225698,0.5,0,280.0,525.0,0.0,1115.0,1,0.08467858868175598,0.0
310,310,-0.2562960075569449,-0.3,1,274.0,684.0,1.0,542.0,1,0.09043598883168742,0.0
311,311,-0.10114883206692915,-0.1,1,314.0,626.0,1.0,680.0,1,0.06002362986088974,0.0
312,312,-0.70852053481515,-0.7,1,374.0,901.0,1.0,515.0,1,0.0004992312523587894,0.0
313,313,-0.46381754362525496,-0.5,1,484.0,811.0,1.0,365.0,1,0.019039823142946388,0.0
314,314,-0.36006563258137114,-0.4,1,459.0,996.0,1.0,745.0,1,0.019792949722091613,0.0
315,315,0.7732694597399037,0.8,0,455.0,708.0,0.0,287.0,1,0.03060574683291194,0.0
316,316,0.2716009685651384,0.3,0,302.0,823.0,0.0,535.0,1,0.06252237424713646,0.0
317,317,0.1867040808243252,0.2,0,343.0,864.0,0.0,2083.0,1,0.0762920402428952,0.0
318,318,0.8805828176008512,0.9,0,450.0,957.0,0.0,363.0,1,0.07999192015463547,0.0
319,319,-0.12348215972475907,-0.1,1,445.0,663.0,1.0,792.0,1,0.09242105396566622,0.0
320,320,-0.9574086602931153,-1.0,1,257.0,822.0,1.0,151.0,1,0.09945657767416263,0.0
321,321,0.2663928562404134,0.3,0,450.0,964.0,0.0,546.0,1,0.017766245257050485,0.0
322,322,-0.9080209937582535,-0.9,1,346.0,893.0,1.0,251.0,1,0.040504566029503725,0.0
323,323,-0.8863882697488201,-0.9,1,391.0,543.0,1.0,366.0,1,0.07277661637245261,0.0
324,324,-0.33487821628029213,-0.3,1,472.0,506.0,1.0,362.0,1,0.07210581438894945,0.0
325,325,-0.9697337931743626,-1.0,1,251.0,525.0,1.0,224.0,1,0.05013248575666818,0.0
326,326,0.7018185371820247,0.7,0,462.0,786.0,0.0,222.0,1,0.05599733453395944,0.0
327,327,0.5618025027542912,0.6,0,381.0,931.0,0.0,348.0,1,0.04120640861987245,0.0
328,328,-0.31755805256341696,-0.3,1,441.0,505.0,1.0,484.0,1,0.013054257054913155,0.0
329,329,-0.06425051364726975,-0.1,1,341.0,736.0,1.0,783.0,1,0.09017072525645789,0.0
330,330,0.9509088868366085,1.0,0,332.0,817.0,0.0,201.0,1,0.0680244402551085,0.0
331,331,0.6882562313146379,0.7,0,483.0,940.0,0.0,397.0,1,0.01939358345165513,0.0
332,332,0.02794694856186908,0.0,0,448.0,526.0,0.0,536.0,1,0.0015203749903702657,0.0
333,333,-0.7819668219428544,-0.8,1,337.0,679.0,1.0,274.0,1,0.03237443372842954,0.0
334,334,-0.950170188454003,-1.0,1,444.0,592.0,1.0,834.0,1,0.023084014058897685,0.0
335,335,-0.11143534536415256,-0.1,1,326.0,659.0,1.0,285.0,1,0.059634586057036754,0.0
336,336,0.2814159451865572,0.3,0,479.0,650.0,1.0,531.0,0,0.03790084136870562,0.0
337,337,-0.276459739033726,-0.3,1,469.0,703.0,1.0,808.0,1,0.09774103634504756,0.0
338,338,-0.7231577176365303,-0.7,1,317.0,668.0,1.0,245.0,1,0.015304212597791312,0.0
339,339,0.08998515655231443,0.1,0,336.0,579.0,1.0,1215.0,0,0.014128684110823643,0.0
340,340,-0.7390757505636749,-0.7,1,269.0,738.0,1.0,283.0,1,0.014397591550708466,0.0
341,341,0.20621729478148487,0.2,0,375.0,718.0,0.0,647.0,1,0.08594888986136935,0.0
342,342,0.7403601922883443,0.7,0,418.0,905.0,0.0,267.0,1,0.07083884441703675,0.0
343,343,-0.3401322989536517,-0.3,1,317.0,784.0,1.0,439.0,1,0.04938431091679335,0.0
344,344,-0.15668496968017975,-0.2,1,362.0,828.0,0.0,1160.0,0,0.05388797754370133,0.0
345,345,0.0849189060702078,0.1,0,341.0,810.0,0.0,2309.0,1,0.03528191519570376,0.0
346,346,-0.4079767452982723,-0.4,1,343.0,902.0,1.0,275.0,1,0.05510281449012131,0.0
347,347,-0.8646700399521923,-0.9,1,428.0,745.0,1.0,377.0,1,0.012627672670379453,0.0
348,348,0.2312352165636884,0.2,0,342.0,949.0,0.0,379.0,1,0.06934794136254369,0.0
349,349,-0.26445021424446646,-0.3,1,321.0,733.0,1.0,976.0,1,0.09354229500983754,0.0
350,350,-0.5605950519301248,-0.6,1,455.0,982.0,1.0,333.0,1,0.055657849681687854,0.0
351,351,-0.4466353617680501,-0.4,1,404.0,804.0,1.0,362.0,1,0.0011467579049023514,0.0
352,352,0.840816654941211,0.8,0,454.0,801.0,0.0,225.0,1,0.06246602467442597,0.0
353,353,0.04877561443750422,0.0,0,456.0,642.0,0.0,3562.0,1,0.07489808525038733,0.0
354,354,0.6599970806442099,0.7,0,310.0,958.0,0.0,332.0,1,0.04356522697913086,0.0
355,355,-0.9821144793727001,-1.0,1,278.0,749.0,1.0,243.0,1,0.042274583550261646,0.0
356,356,-0.4067843323596678,-0.4,1,443.0,844.0,1.0,423.0,1,0.07191185392799947,0.0
357,357,-0.8395035295259499,-0.8,1,465.0,802.0,1.0,173.0,1,0.03992858779286659,0.0
358,358,0.9422697629410504,0.9,0,350.0,551.0,0.0,399.0,1,0.08208156435315878,0.0
359,359,0.8837298217665222,0.9,0,251.0,794.0,0.0,205.0,1,0.08472204681227885,0.0
360,360,0.5205509878721044,0.5,0,425.0,585.0,0.0,1280.0,1,0.09745082911377917,0.0
361,361,0.23665127038335587,0.2,0,320.0,979.0,0.0,371.0,1,0.09767652935013488,0.0
362,362,0.8270735604941544,0.8,0,366.0,505.0,0.0,299.0,1,0.04105917344761202,0.0
363,363,-0.4710252606206591,-0.5,1,346.0,535.0,1.0,219.0,1,0.0301095828428141,0.0
364,364,-0.3781533558189023,-0.4,1,409.0,865.0,1.0,666.0,1,0.0005497198023602156,0.0
365,365,-0.03173760613478849,-0.0,1,450.0,746.0,0.0,624.0,0,0.09051436187886146,0.0
366,366,0.06220631177397018,0.1,0,353.0,934.0,0.0,433.0,1,0.019133867810396468,0.0
367,367,-0.9845506093481635,-1.0,1,455.0,700.0,1.0,535.0,1,0.033675603590310535,0.0
368,368,-0.6449525028730121,-0.6,1,357.0,508.0,1.0,225.0,1,0.05699446065591606,0.0
369,369,0.7102747178727231,0.7,0,453.0,959.0,0.0,538.0,1,0.06990536485118508,0.0
370,370,0.3612237786093042,0.4,0,442.0,850.0,0.0,798.0,1,0.07975515588737342,0.0
371,371,-0.6965192778520359,-0.7,1,387.0,519.0,1.0,274.0,1,0.03586687982684881,0.0
372,372,0.9206573895756363,0.9,0,306.0,993.0,0.0,351.0,1,0.002283329157082181,0.0
373,373,0.931747939146284,0.9,0,454.0,560.0,0.0,296.0,1,0.014774712612939812,0.0
374,374,0.5277512252502647,0.5,0,348.0,767.0,0.0,395.0,1,0.059517635357162514,0.0
375,375,-0.9500605224096625,-1.0,1,339.0,861.0,1.0,220.0,1,0.039501283925272745,0.0
376,376,-0.41676363933694227,-0.4,1,459.0,596.0,1.0,415.0,1,0.04962427362393173,0.0
377,377,-0.06511080140444903,-0.1,1,328.0,584.0,1.0,348.0,1,0.09543985227170043,0.0
378,378,-0.8617179247950788,-0.9,1,323.0,674.0,1.0,373.0,1,0.0792925670281865,0.0
379,379,-0.7839321809094675,-0.8,1,269.0,658.0,1.0,303.0,1,0.03725124785407204,0.0
380,380,0.4619682979820092,0.5,0,481.0,668.0,0.0,251.0,1,0.07611168084755333,0.0
381,381,-0.11558552889631057,-0.1,1,265.0,654.0,1.0,641.0,1,0.03564692287184297,0.0
382,382,0.06418336456550122,0.1,0,449.0,677.0,1.0,584.0,0,0.06554505941866863,0.0
383,383,0.8586269717443553,0.9,0,383.0,986.0,0.0,331.0,1,0.07908427136799638,0.0
384,384,0.647062635869599,0.6,0,359.0,781.0,0.0,410.0,1,0.06638798566815717,0.0
385,385,0.7659653642176465,0.8,0,443.0,715.0,0.0,252.0,1,0.03158706688613242,0.0
386,386,-0.8862994683331009,-0.9,1,461.0,741.0,1.0,338.0,1,0.04087014850573282,0.0
387,387,-0.3475220562636374,-0.3,1,250.0,519.0,1.0,401.0,1,0.009021654011728919,0.0
388,388,-0.11659459799487881,-0.1,1,385.0,518.0,0.0,1537.0,0,0.03097782773868342,0.0
389,389,-0.6013433770202627,-0.6,1,258.0,630.0,1.0,422.0,1,0.08171554565308611,0.0
390,390,-0.842732362490475,-0.8,1,352.0,525.0,1.0,273.0,1,0.025781213210427013,0.0
391,391,-0.5291988613436156,-0.5,1,426.0,872.0,1.0,342.0,1,0.002431859637063949,0.0
392,392,0.20618100778598203,0.2,0,290.0,617.0,0.0,523.0,1,0.02771599339448676,0.0
393,393,0.048183121684525654,0.0,0,409.0,747.0,0.0,1454.0,1,0.09546345687587773,0.0
394,394,-0.8738905085843651,-0.9,1,280.0,544.0,1.0,346.0,1,0.041852009397470295,0.0
395,395,-0.678232467978704,-0.7,1,411.0,713.0,1.0,216.0,1,0.004939376007314644,0.0
396,396,-0.2532814813897566,-0.3,1,319.0,536.0,1.0,755.0,1,0.0836928264025373,0.0
397,397,0.28659349518453947,0.3,0,390.0,596.0,0.0,484.0,1,0.07669135490733936,0.0
398,398,-0.46267188700283035,-0.5,1,462.0,901.0,1.0,287.0,1,0.08248210717663526,0.0
399,399,-0.15117484972764506,-0.2,1,257.0,977.0,1.0,526.0,1,0.09949298617923602,0.0
400,400,-0.04082764490073876,-0.0,1,270.0,869.0,0.0,941.0,0,0.008271043871197392,0.0
401,401,-0.923431371949289,-0.9,1,451.0,936.0,1.0,363.0,1,0.059609694101293666,0.0
402,402,-0.5483952020839769,-0.5,1,474.0,952.0,1.0,494.0,1,0.05002457306400085,0.0
403,403,0.09795956596715816,0.1,0,263.0,715.0,1.0,1742.0,0,0.014516692732015302,0.0
404,404,-0.6605008737475802,-0.7,1,474.0,975.0,1.0,311.0,1,0.053874866125434955,0.0
405,405,-0.017241174658131797,-0.0,1,424.0,746.0,0.0,2850.0,0,0.010902729324868733,0.0
406,406,-0.8364257218529128,-0.8,1,489.0,666.0,1.0,175.0,1,0.076725828695132,0.0
407,407,0.43469348607497493,0.4,0,399.0,708.0,0.0,553.0,1,0.007514521382135309,0.0
408,408,-0.8417916369118656,-0.8,1,440.0,812.0,1.0,438.0,1,0.058117611026173924,0.0
409,409,0.7366118678313343,0.7,0,482.0,637.0,0.0,421.0,1,0.05044657204193175,0.0
410,410,-0.9398294148574533,-0.9,1,422.0,940.0,1.0,308.0,1,0.0999938853559659,0.0
411,411,-0.8172789245725682,-0.8,1,447.0,593.0,1.0,430.0,1,0.010743538252421603,0.0
412,412,-0.6933090249241387,-0.7,1,429.0,988.0,1.0,353.0,1,0.057157217162093946,0.0
413,413,-0.42408007250431123,-0.4,1,337.0,816.0,1.0,477.0,1,0.08542115260861492,0.0
414,414,-0.2686560339196291,-0.3,1,458.0,653.0,1.0,419.0,1,0.010469262465904017,0.0
415,415,0.33364110504758404,0.3,0,487.0,935.0,0.0,468.0,1,0.05746483743661408,0.0
416,416,0.48218473093480774,0.5,0,299.0,588.0,0.0,323.0,1,0.050236863742671306,0.0
417,417,-0.17239515191338795,-0.2,1,459.0,507.0,1.0,724.0,1,0.03420744144623921,0.0
418,418,-0.3553779069514986,-0.4,1,448.0,977.0,1.0,665.0,1,0.040966208920972094,0.0
419,419,-0.24741388267212194,-0.2,1,253.0,714.0,1.0,483.0,1,0.09129884597569903,0.0
420,420,-0.985769140114952,-1.0,1,395.0,986.0,1.0,239.0,1,0.008152319866484204,0.0
421,421,0.5770896114097146,0.6,0,342.0,956.0,0.0,432.0,1,0.017481130858639428,0.0
422,422,0.11617844321974213,0.1,0,477.0,771.0,0.0,1712.0,1,0.049806118118639414,0.0
423,423,-0.740531153166123,-0.7,1,428.0,924.0,1.0,348.0,1,0.021415592466824587,0.0
424,424,-0.3610968981489626,-0.4,1,317.0,883.0,1.0,530.0,1,0.06924812820096483,0.0
425,425,0.04117766432202696,0.0,0,369.0,896.0,1.0,3325.0,0,0.08198611863870718,0.0
426,426,0.5293388459543433,0.5,0,311.0,810.0,0.0,249.0,1,0.09753857800709359,0.0
427,427,0.22113294909383496,0.2,0,465.0,677.0,0.0,468.0,1,0.016546418485795477,0.0
428,428,0.3644129934455371,0.4,0,378.0,522.0,0.0,490.0,1,0.00414967726998492,0.0
429,429,-0.08453305212193629,-0.1,1,280.0,898.0,0.0,742.0,0,0.005776995807345253,0.0
430,430,0.7276508877314478,0.7,0,251.0,517.0,0.0,382.0,1,0.042432592161748856,0.0
431,431,0.34744859649533755,0.3,0,467.0,951.0,0.0,402.0,1,0.06728229700700938,0.0
432,432,0.8101212895094365,0.8,0,378.0,964.0,0.0,458.0,1,0.05828805530374101,0.0
433,433,-0.2873759079241758,-0.3,1,321.0,591.0,1.0,468.0,1,0.05518361093879333,0.0
434,434,-0.42226722406467543,-0.4,1,498.0,535.0,1.0,427.0,1,0.08429729301750498,0.0
435,435,0.2183432201872455,0.2,0,347.0,718.0,0.0,1405.0,1,0.054430794248761266,0.0
436,436,0.3301120971693685,0.3,0,371.0,775.0,0.0,314.0,1,0.07111039495049927,0.0
437,437,-0.8864172192951032,-0.9,1,272.0,771.0,1.0,297.0,1,0.010152335818799076,0.0
438,438,-0.7239849870792092,-0.7,1,383.0,522.0,1.0,345.0,1,0.07383871348084062,0.0
439,439,0.07716098765886681,0.1,0,318.0,539.0,0.0,1793.0,1,0.014822556886896144,0.0
440,440,0.2440276654407263,0.2,0,365.0,562.0,0.0,423.0,1,0.03181975299214467,0.0
441,441,0.6364768703163763,0.6,0,468.0,895.0,0.0,347.0,1,0.0826192795853659,0.0
442,442,-0.3505763099889434,-0.4,1,466.0,889.0,1.0,455.0,1,0.08964396666172307,0.0
443,443,0.6393661798636405,0.6,0,267.0,809.0,0.0,244.0,1,0.08911008552749215,0.0
444,444,-0.42989123536803886,-0.4,1,304.0,754.0,1.0,862.0,1,0.0003071044207842766,0.0
445,445,0.2709468026939128,0.3,0,301.0,949.0,0.0,1220.0,1,0.0922260295929484,0.0
446,446,-0.0649310978359996,-0.1,1,323.0,812.0,1.0,225.0,1,0.04334975913974401,0.0
447,447,0.9692374618182384,1.0,0,343.0,612.0,0.0,375.0,1,0.07801706936415219,0.0
448,448,0.266059881122517,0.3,0,353.0,653.0,0.0,874.0,1,0.08058790154837521,0.0
449,449,-0.8658131775584088,-0.9,1,258.0,762.0,1.0,400.0,1,0.07155646262083214,0.0
450,450,-0.33854115749550506,-0.3,1,452.0,850.0,1.0,398.0,1,0.09989070795670915,0.0
451,451,-0.9085846641410882,-0.9,1,391.0,837.0,1.0,332.0,1,0.06626756789141094,0.0
452,452,-0.8604376119634118,-0.9,1,487.0,852.0,1.0,361.0,1,0.07444614697262396,0.0
453,453,0.7662081137672445,0.8,0,483.0,876.0,0.0,631.0,1,0.05186425714767892,0.0
454,454,-0.1399576003575087,-0.1,1,273.0,584.0,1.0,1193.0,1,0.028198582107314008,0.0
455,455,0.8548301996220518,0.9,0,316.0,503.0,0.0,131.0,1,0.0889728660467699,0.0
456,456,-0.15902638160881866,-0.2,1,270.0,734.0,1.0,496.0,1,0.09624677046312828,0.0
457,457,-0.9196287016783058,-0.9,1,364.0,781.0,1.0,415.0,1,0.09318125924447374,0.0
458,458,-0.9291206121948217,-0.9,1,410.0,757.0,1.0,243.0,1,0.0640543083362914,0.0
459,459,-0.6992498627541921,-0.7,1,255.0,560.0,1.0,485.0,1,0.03978055316075525,0.0
460,460,-0.6115927079499572,-0.6,1,354.0,900.0,1.0,336.0,1,0.040438883697479944,0.0
461,461,-0.05830682660244535,-0.1,1,436.0,691.0,1.0,1043.0,1,0.07529409718505511,0.0
462,462,-0.19075571508435774,-0.2,1,377.0,973.0,1.0,540.0,1,0.06121294201030515,0.0
463,463,-0.7092920528992848,-0.7,1,417.0,762.0,1.0,261.0,1,0.07815008531940287,0.0
464,464,-0.6914076968984908,-0.7,1,385.0,801.0,1.0,264.0,1,0.09994850918420889,0.0
465,465,-0.6890476433015915,-0.7,1,368.0,844.0,1.0,418.0,1,0.06584381089353623,0.0
466,466,-0.1460986840336549,-0.1,1,335.0,878.0,1.0,267.0,1,0.03184562089848884,0.0
467,467,-0.08659655262857391,-0.1,1,433.0,827.0,1.0,400.0,1,0.020796058105543802,0.0
468,468,0.9160976830066911,0.9,0,292.0,641.0,0.0,317.0,1,0.022262191001857435,0.0
469,469,-0.7774222095858276,-0.8,1,278.0,866.0,1.0,236.0,1,0.03744616143995343,0.0
470,470,-0.38664476436291473,-0.4,1,273.0,858.0,1.0,399.0,1,0.0674770062612484,0.0
471,471,-0.37198298878018843,-0.4,1,436.0,873.0,1.0,831.0,1,0.09173570472496967,0.0
472,472,0.7642223069612044,0.8,0,442.0,667.0,0.0,151.0,1,0.021415842325452152,0.0
473,473,0.6580680038755173,0.7,0,427.0,979.0,0.0,214.0,1,0.05078627785917186,0.0
474,474,-0.39548275541423217,-0.4,1,326.0,522.0,1.0,472.0,1,0.06756943191580525,0.0
475,475,-0.563791714391038,-0.6,1,491.0,664.0,1.0,785.0,1,0.05434477726302498,0.0
476,476,-0.8490550077499985,-0.8,1,285.0,549.0,1.0,316.0,1,0.08088313722444572,0.0
477,477,-0.924159860019014,-0.9,1,340.0,542.0,1.0,298.0,1,0.04198821200448886,0.0
478,478,-0.869289654985185,-0.9,1,329.0,939.0,1.0,212.0,1,0.08751554964668483,0.0
479,479,0.5755771055223315,0.6,0,371.0,641.0,0.0,458.0,1,0.05008748278298042,0.0
480,480,0.7773435870727969,0.8,0,342.0,813.0,0.0,225.0,1,0.06160569240883793,0.0
481,481,-0.014397330223167026,-0.0,1,412.0,692.0,0.0,1616.0,0,0.08225467432929907,0.0
482,482,-0.4593039300058075,-0.5,1,305.0,888.0,1.0,437.0,1,0.08638308473290505,0.0
483,483,-0.8915696704108407,-0.9,1,403.0,985.0,1.0,392.0,1,0.060071990119437396,0.0
484,484,0.31535130264620714,0.3,0,264.0,646.0,0.0,720.0,1,0.08156609643079761,0.0
485,485,-0.5803870538292561,-0.6,1,445.0,754.0,1.0,281.0,1,0.010209170940971936,0.0
486,486,-0.8537150373929441,-0.9,1,253.0,742.0,1.0,275.0,1,0.06441959246408555,0.0
487,487,0.9424735669807511,0.9,0,397.0,613.0,0.0,350.0,1,0.04912943031781944,0.0
488,488,0.5352836468795423,0.5,0,315.0,695.0,0.0,420.0,1,0.09590308111939644,0.0
489,489,0.08874694712224529,0.1,0,485.0,576.0,0.0,1589.0,1,0.010969155979494017,0.0
490,490,-0.11628531636775574,-0.1,1,259.0,769.0,0.0,1002.0,0,0.061095958682095546,0.0
491,491,0.0922560129332648,0.1,0,369.0,983.0,1.0,478.0,0,0.09336584934968759,0.0
492,492,0.6000066165201619,0.6,0,296.0,858.0,0.0,306.0,1,0.05785117193015854,0.0
493,493,-0.11823062765200598,-0.1,1,499.0,884.0,1.0,267.0,1,0.03376969247946994,0.0
494,494,-0.11781436294719416,-0.1,1,468.0,791.0,1.0,1181.0,1,0.08317152891599519,0.0
495,495,-0.6369011063751415,-0.6,1,301.0,823.0,1.0,326.0,1,0.04483283983343139,0.0
496,496,-0.574251187831915,-0.6,1,476.0,539.0,1.0,605.0,1,0.07481166673279721,0.0
497,497,0.22205295688349103,0.2,0,370.0,526.0,0.0,514.0,1,0.012346171749015901,0.0
498,498,-0.5719763177888295,-0.6,1,408.0,859.0,1.0,403.0,1,0.05289371585405568,0.0
499,499,-0.4240606556434845,-0.4,1,273.0,622.0,1.0,535.0,1,0.06925411620151177,0.0
500,500,-0.6238896207734179,-0.6,1,298.0,807.0,1.0,295.0,1,0.04346535072389101,0.0
501,501,0.6025628981796458,0.6,0,361.0,890.0,0.0,319.0,1,0.09393581188608359,0.0
502,502,0.3339257655301284,0.3,0,288.0,816.0,0.0,356.0,1,0.01467998317575402,0.0
503,503,-0.3916967305049217,-0.4,1,259.0,794.0,1.0,457.0,1,0.09445264495773341,0.0
504,504,-0.590053403815922,-0.6,1,398.0,783.0,1.0,529.0,1,0.08157066891887596,0.0
505,505,0.9699597362029824,1.0,0,464.0,653.0,0.0,263.0,1,0.0861056857842459,0.0
506,506,-0.8284342818450381,-0.8,1,341.0,586.0,1.0,363.0,1,0.06390303476906557,0.0
507,507,-0.6679934025296308,-0.7,1,319.0,666.0,1.0,405.0,1,0.07426444204081638,0.0
508,508,0.2622088595464962,0.3,0,277.0,613.0,0.0,340.0,1,0.07502731548754701,0.0
509,509,-0.16813147772415404,-0.2,1,275.0,646.0,1.0,539.0,1,0.07553998545638563,0.0
510,510,0.535710478185571,0.5,0,291.0,624.0,0.0,425.0,1,0.0791458061024658,0.0
511,511,-0.01879455865263835,-0.0,1,295.0,638.0,0.0,1247.0,0,0.0642207265161323,0.0
512,512,0.4348400334176328,0.4,0,371.0,922.0,0.0,987.0,1,0.03146810462045331,0.0
513,513,0.2482757113775942,0.2,0,451.0,665.0,0.0,414.0,1,0.041913167204014716,0.0
514,514,-0.8353455144047413,-0.8,1,317.0,746.0,1.0,87.0,1,0.05928483259890077,0.0
515,515,-0.5562555824561877,-0.6,1,275.0,856.0,1.0,379.0,1,0.03483674939956575,0.0
516,516,0.8914711418110715,0.9,0,383.0,635.0,0.0,252.0,1,0.0915983710184574,0.0
517,517,-0.554167404545338,-0.6,1,487.0,845.0,1.0,388.0,1,0.08135854087367488,0.0
518,518,0.42271307189522167,0.4,0,468.0,546.0,0.0,1386.0,1,0.06714776332259265,0.0
519,519,-0.516380455021735,-0.5,1,293.0,912.0,1.0,445.0,1,0.03781857857867447,0.0
520,520,-0.7387440163313985,-0.7,1,383.0,730.0,1.0,527.0,1,0.02615047997940533,0.0
521,521,-0.6656653398443593,-0.7,1,324.0,687.0,1.0,429.0,1,0.00219027964659948,0.0
522,522,0.6039931320278951,0.6,0,270.0,558.0,0.0,322.0,1,0.08133924649375394,0.0
523,523,-0.13263606451733567,-0.1,1,413.0,828.0,1.0,899.0,1,0.04485359476315142,0.0
524,524,0.21842197712107758,0.2,0,290.0,582.0,0.0,528.0,1,0.06405951441433838,0.0
525,525,0.6714868945969708,0.7,0,395.0,975.0,0.0,350.0,1,0.09189229460313719,0.0
526,526,0.6291654984920201,0.6,0,492.0,826.0,0.0,432.0,1,0.035098628999793435,0.0
527,527,-0.3969831089709679,-0.4,1,416.0,535.0,1.0,239.0,1,0.041807160262198585,0.0
528,528,0.08384488126548129,0.1,0,274.0,526.0,0.0,920.0,1,0.04244548342571217,0.0
529,529,-0.9946616300396023,-1.0,1,342.0,531.0,1.0,177.0,1,0.0005517458558427779,0.0
530,530,0.4886420793125845,0.5,0,309.0,597.0,0.0,374.0,1,0.09678035791804727,0.0
531,531,0.8640058478216088,0.9,0,269.0,664.0,0.0,377.0,1,0.06297987273628507,0.0
532,532,0.91202578900648,0.9,0,275.0,689.0,0.0,176.0,1,0.08210238153893501,0.0
533,533,0.7860708967105781,0.8,0,333.0,825.0,0.0,272.0,1,0.04371810632077222,0.0
534,534,-0.42445138270450156,-0.4,1,485.0,825.0,1.0,560.0,1,0.06010081686948887,0.0
535,535,0.028072294475419257,0.0,0,434.0,568.0,0.0,948.0,1,0.019866695403155655,0.0
536,536,-0.36332947938105153,-0.4,1,473.0,500.0,1.0,297.0,1,0.08697756552614183,0.0
537,537,-0.4456012896505679,-0.4,1,252.0,524.0,1.0,524.0,1,0.09187236231130978,0.0
538,538,0.0634068292989185,0.1,0,465.0,561.0,0.0,524.0,1,0.010406943721564078,0.0
539,539,0.18246082168342403,0.2,0,418.0,755.0,0.0,307.0,1,0.03256168703416034,0.0
540,540,-0.4352637824985053,-0.4,1,436.0,881.0,1.0,323.0,1,0.06613785120601001,0.0
541,541,0.8998843667631151,0.9,0,474.0,956.0,0.0,210.0,1,0.00466393973507997,0.0
542,542,-0.14354496892547464,-0.1,1,423.0,957.0,0.0,890.0,0,0.055766000335269766,0.0
543,543,0.03781396963196193,0.0,0,499.0,867.0,0.0,1274.0,1,0.009241589471207378,0.0
544,544,-0.029493956078754158,-0.0,1,309.0,973.0,1.0,308.0,1,0.07660544143433812,0.0
545,545,-0.20816885025185594,-0.2,1,360.0,524.0,1.0,816.0,1,0.06089691344674619,0.0
546,546,0.409342580777067,0.4,0,379.0,985.0,0.0,1276.0,1,0.013250045903289221,0.0
547,547,-0.5094318452599718,-0.5,1,282.0,560.0,1.0,338.0,1,0.05195348043283987,0.0
548,548,0.5713888254214918,0.6,0,412.0,686.0,0.0,472.0,1,0.0980854948668307,0.0
549,549,-0.7417942815970962,-0.7,1,250.0,865.0,1.0,515.0,1,0.0804228041761905,0.0
550,550,0.2375917959118723,0.2,0,375.0,535.0,0.0,330.0,1,0.07709335036210324,0.0
551,551,0.26572995439009217,0.3,0,312.0,998.0,0.0,460.0,1,0.05673474323349675,0.0
552,552,-0.19996221228838085,-0.2,1,278.0,968.0,1.0,294.0,1,0.0025522193500517433,0.0
553,553,-0.8025754303925066,-0.8,1,391.0,648.0,1.0,251.0,1,0.04331128169387949,0.0
554,554,0.29063201835060903,0.3,0,338.0,698.0,0.0,874.0,1,0.06549055983989938,0.0
555,555,0.6761186095346561,0.7,0,468.0,948.0,0.0,414.0,1,0.0062093750789326335,0.0
556,556,0.8422319991012965,0.8,0,473.0,617.0,0.0,280.0,1,0.06204401728601369,0.0
557,557,0.5385968758422934,0.5,0,411.0,714.0,0.0,465.0,1,0.043646952536432505,0.0
558,558,-0.5536984296036913,-0.6,1,417.0,752.0,1.0,281.0,1,0.035779380535937565,0.0
559,559,0.1581517729534938,0.2,0,279.0,654.0,0.0,487.0,1,0.030144424615748344,0.0
560,560,-0.07250500302819973,-0.1,1,299.0,755.0,1.0,1686.0,1,0.07031304546042476,0.0
561,561,0.7559080079227061,0.8,0,489.0,785.0,0.0,426.0,1,0.0018118112140064202,0.0
562,562,0.40962526548216505,0.4,0,457.0,500.0,0.0,723.0,1,0.04338898764272717,0.0
563,563,0.18318189433710708,0.2,0,497.0,944.0,0.0,309.0,1,0.05694454566163627,0.0
564,564,-0.019314159108270612,-0.0,1,417.0,885.0,1.0,1228.0,1,0.05646526185791895,0.0
565,565,0.9690186819581397,1.0,0,289.0,972.0,0.0,229.0,1,0.050532544174758914,0.0
566,566,0.7223556394202755,0.7,0,467.0,679.0,0.0,214.0,1,0.06801466572230366,0.0
567,567,-0.38291705940304555,-0.4,1,458.0,523.0,1.0,449.0,1,0.06736647076241371,0.0
568,568,-0.6995963989086906,-0.7,1,405.0,554.0,1.0,201.0,1,0.09757321351719267,0.0
569,569,-0.5284367356885089,-0.5,1,296.0,886.0,1.0,268.0,1,0.02121391732738738,0.0
570,570,-0.4204352638206579,-0.4,1,455.0,735.0,1.0,300.0,1,0.03405874138280784,0.0
571,571,0.42179710678589766,0.4,0,407.0,511.0,0.0,532.0,1,0.031007966363811403,0.0
572,572,-0.9992695169706707,-1.0,1,390.0,699.0,1.0,341.0,1,0.053736004387984364,0.0
573,573,0.15789486113490891,0.2,0,253.0,787.0,0.0,1020.0,1,0.038185391031204774,0.0
574,574,0.7783710491584424,0.8,0,281.0,683.0,0.0,256.0,1,0.08514128791477271,0.0
575,575,-0.23908762075806278,-0.2,1,387.0,570.0,1.0,2153.0,1,0.05226794171137711,0.0
576,576,0.13925025734897023,0.1,0,327.0,960.0,0.0,603.0,1,0.03887871667422366,0.0
577,577,0.7740857077641154,0.8,0,397.0,599.0,0.0,214.0,1,0.09375392636655372,0.0
578,578,0.47855121150034563,0.5,0,335.0,602.0,0.0,463.0,1,0.004902745641123397,0.0
579,579,-0.9682185869883762,-1.0,1,393.0,973.0,1.0,294.0,1,0.071621553506175,0.0
580,580,-0.2978691276298049,-0.3,1,289.0,557.0,1.0,734.0,1,0.046804175965375984,0.0
581,581,0.08082338544159962,0.1,0,283.0,611.0,0.0,416.0,1,0.08310037262636048,0.0
582,582,0.34235311751838804,0.3,0,297.0,514.0,0.0,499.0,1,0.029046581839201738,0.0
583,583,0.6105626997988711,0.6,0,351.0,986.0,0.0,353.0,1,0.02864750279847518,0.0
584,584,-0.4962294385834245,-0.5,1,321.0,888.0,1.0,231.0,1,0.05819206109358165,0.0
585,585,0.5104777791534159,0.5,0,337.0,900.0,0.0,533.0,1,0.08095671113892344,0.0
586,586,0.49445699400378196,0.5,0,365.0,838.0,0.0,427.0,1,0.08012218257762327,0.0
587,587,0.2420871875342503,0.2,0,269.0,897.0,0.0,364.0,1,0.0291773968457726,0.0
588,588,-0.6352234830889891,-0.6,1,325.0,756.0,1.0,659.0,1,0.04819870459265904,0.0
589,589,-0.09035640366496422,-0.1,1,418.0,925.0,1.0,597.0,1,0.05026705126714518,0.0
590,590,-0.34027185589923437,-0.3,1,333.0,955.0,1.0,552.0,1,0.04382657698878093,0.0
591,591,0.1571685037088577,0.2,0,425.0,762.0,1.0,1193.0,0,0.057526709955993474,0.0
592,592,0.8909643259265183,0.9,0,299.0,536.0,0.0,235.0,1,0.009507670719943817,0.0
593,593,0.4837759382218365,0.5,0,467.0,845.0,0.0,258.0,1,0.09583447903270609,0.0
594,594,-0.13971274631725183,-0.1,1,342.0,854.0,1.0,464.0,1,0.09546783733577595,0.0
595,595,0.8325275438044595,0.8,0,319.0,994.0,0.0,357.0,1,0.08169495489020057,0.0
596,596,-0.7845826071551854,-0.8,1,270.0,955.0,1.0,525.0,1,0.026749247876515992,0.0
597,597,-0.6311649053607924,-0.6,1,254.0,524.0,1.0,242.0,1,0.009370992560722902,0.0
598,598,0.5009659343399064,0.5,0,303.0,785.0,0.0,422.0,1,0.09529802281279454,0.0
599,599,-0.29141023900285634,-0.3,1,467.0,730.0,1.0,403.0,1,0.025118175094630525,0.0
600,600,-0.8045659676454946,-0.8,1,475.0,577.0,1.0,248.0,1,0.0052095946400423365,0.0
601,601,-0.05490073177971655,-0.1,1,410.0,863.0,0.0,1727.0,0,0.07179286342674344,0.0
602,602,-0.6123240586675569,-0.6,1,412.0,526.0,1.0,292.0,1,0.08370334819816143,0.0
603,603,0.9554198182843667,1.0,0,436.0,787.0,0.0,397.0,1,0.022759295372240473,0.0
604,604,0.6258497249308588,0.6,0,345.0,549.0,0.0,446.0,1,0.09356121879534181,0.0
605,605,-0.37489525989094896,-0.4,1,475.0,514.0,1.0,731.0,1,0.08937285732152675,0.0
606,606,-0.5736201276412645,-0.6,1,461.0,608.0,1.0,201.0,1,0.027967544085713947,0.0
607,607,-0.7230116266537452,-0.7,1,349.0,906.0,1.0,355.0,1,0.07625794358397217,0.0
608,608,-0.7349230701125471,-0.7,1,460.0,555.0,1.0,415.0,1,0.053125314747855173,0.0
609,609,0.024283965000819974,0.0,0,361.0,777.0,0.0,662.0,1,0.030191079945917867,0.0
610,610,0.2416925776536032,0.2,0,338.0,729.0,0.0,463.0,1,0.059384798351771184,0.0
611,611,-0.7771534003378171,-0.8,1,395.0,575.0,1.0,330.0,1,0.025480873553361472,0.0
612,612,0.7644846108362404,0.8,0,294.0,509.0,0.0,597.0,1,0.006430980786848207,0.0
613,613,0.5681625256545713,0.6,0,458.0,990.0,0.0,292.0,1,0.08623380064869077,0.0
614,614,-0.28493655362274994,-0.3,1,396.0,905.0,1.0,229.0,1,0.018913306252545815,0.0
615,615,-0.4402950134798691,-0.4,1,273.0,775.0,1.0,462.0,1,0.0667205306336173,0.0
616,616,-0.8876774798967828,-0.9,1,428.0,730.0,1.0,242.0,1,0.02547735638654284,0.0
617,617,0.6863016032731186,0.7,0,261.0,920.0,0.0,249.0,1,0.01931879526441035,0.0
618,618,0.3413814440891785,0.3,0,417.0,629.0,0.0,354.0,1,0.09462457496354186,0.0
619,619,-0.957638589451512,-1.0,1,448.0,627.0,1.0,135.0,1,0.044161345763276086,0.0
620,620,0.975117089240376,1.0,0,358.0,794.0,0.0,188.0,1,0.08548084574550523,0.0
621,621,0.8661697700981328,0.9,0,396.0,599.0,0.0,615.0,1,0.07555484318177123,0.0
622,622,0.7260278960324387,0.7,0,449.0,583.0,0.0,298.0,1,0.08800669378992973,0.0
623,623,0.7203394718254725,0.7,0,483.0,680.0,0.0,267.0,1,0.042085531831498185,0.0
624,624,-0.730739863726164,-0.7,1,254.0,873.0,1.0,353.0,1,0.013647358072980554,0.0
625,625,-0.3462936273601471,-0.3,1,386.0,627.0,1.0,237.0,1,0.036408182538554025,0.0
626,626,-0.42850569620005796,-0.4,1,415.0,792.0,1.0,593.0,1,0.05233326421475526,0.0
627,627,-0.30382937749144845,-0.3,1,329.0,730.0,1.0,391.0,1,0.0983397221022737,0.0
628,628,0.1825876402494273,0.2,0,491.0,597.0,0.0,1132.0,1,0.024393297764698552,0.0
629,629,-0.1614118260110171,-0.2,1,417.0,704.0,1.0,1689.0,1,0.021907367612399,0.0
630,630,-0.6001582210813989,-0.6,1,297.0,904.0,1.0,429.0,1,0.08791303610382677,0.0
631,631,0.3536882767420684,0.4,0,297.0,815.0,0.0,528.0,1,0.07334694272770044,0.0
632,632,-0.6352308600163104,-0.6,1,438.0,867.0,1.0,415.0,1,0.07918109849953947,0.0
633,633,-0.730427501362992,-0.7,1,340.0,573.0,1.0,667.0,1,0.08912296259876658,0.0
634,634,0.7984899397164149,0.8,0,366.0,773.0,0.0,171.0,1,0.006926716290599211,0.0
635,635,-0.33630327760371403,-0.3,1,469.0,947.0,1.0,434.0,1,0.07352221943089915,0.0
636,636,-0.935715162891386,-0.9,1,456.0,630.0,1.0,244.0,1,0.02174590039149518,0.0
637,637,0.41711682766485203,0.4,0,267.0,695.0,0.0,538.0,1,0.0636795929942366,0.0
638,638,-0.5031477026030968,-0.5,1,326.0,664.0,1.0,230.0,1,0.06068556037951629,0.0
639,639,0.21720474498311027,0.2,0,349.0,763.0,0.0,1908.0,1,0.057744453777908,0.0
640,640,0.013491279572430459,0.0,0,268.0,796.0,1.0,836.0,0,0.059566589363317574,0.0
641,641,-0.12541189454867885,-0.1,1,447.0,781.0,0.0,672.0,0,0.04658324414768914,0.0
642,642,0.8826361837209051,0.9,0,290.0,500.0,0.0,260.0,1,0.06191614724521313,0.0
643,643,-0.8235621789714271,-0.8,1,401.0,993.0,1.0,356.0,1,0.09506293359119945,0.0
644,644,-0.3033651833238442,-0.3,1,358.0,947.0,1.0,315.0,1,0.0860679069037706,0.0
645,645,0.03934587262057465,0.0,0,429.0,510.0,0.0,1091.0,1,0.0580257673058893,0.0
646,646,0.8584746518697381,0.9,0,495.0,864.0,0.0,111.0,1,0.04447841322656999,0.0
647,647,-0.5047017168255221,-0.5,1,304.0,893.0,1.0,643.0,1,0.030042141895074405,0.0
648,648,0.2118623338103438,0.2,0,438.0,647.0,0.0,445.0,1,0.07012149718874049,0.0
649,649,-0.8117600209437192,-0.8,1,289.0,828.0,1.0,273.0,1,0.04995843149142977,0.0
650,650,-0.4992137289656262,-0.5,1,358.0,567.0,1.0,395.0,1,0.04136895645505523,0.0
651,651,0.7714737389287316,0.8,0,253.0,912.0,0.0,245.0,1,0.0779316753862654,0.0
652,652,-0.3561017134354254,-0.4,1,319.0,937.0,1.0,454.0,1,0.020928560224477612,0.0
653,653,-0.8011396759569986,-0.8,1,406.0,985.0,1.0,409.0,1,0.05974530885861258,0.0
654,654,0.2754485238963733,0.3,0,300.0,727.0,0.0,513.0,1,0.0015479078063530773,0.0
655,655,0.6976754427139695,0.7,0,474.0,917.0,0.0,339.0,1,0.09112333877693325,0.0
656,656,0.4581025407539958,0.5,0,494.0,698.0,0.0,298.0,1,0.09651330906064437,0.0
657,657,0.2392649878753197,0.2,0,439.0,805.0,0.0,406.0,1,0.02821358121861166,0.0
658,658,-0.07422129773500785,-0.1,1,494.0,624.0,1.0,1632.0,1,0.05222483596744903,0.0
659,659,0.5924290115119102,0.6,0,473.0,953.0,0.0,334.0,1,0.007946083456230602,0.0
660,660,0.36188595812314484,0.4,0,277.0,866.0,0.0,367.0,1,0.06632119718902331,0.0
661,661,-0.6964209317335324,-0.7,1,493.0,710.0,1.0,377.0,1,0.0426642429243394,0.0
662,662,0.8020592885268027,0.8,0,309.0,647.0,0.0,234.0,1,0.06269235621197497,0.0
663,663,-0.44600887762921504,-0.4,1,421.0,848.0,1.0,551.0,1,0.08918651226066886,0.0
664,664,-0.46945368183236735,-0.5,1,411.0,757.0,1.0,202.0,1,0.09312100981541449,0.0
665,665,0.021975263467080675,0.0,0,473.0,759.0,0.0,538.0,1,0.01073724726014863,0.0
666,666,-0.46163672327898775,-0.5,1,360.0,762.0,1.0,608.0,1,0.059424468061576155,0.0
667,667,0.9867018567824031,1.0,0,338.0,573.0,0.0,469.0,1,0.01565342160659281,0.0
668,668,0.5822624117663897,0.6,0,443.0,601.0,0.0,416.0,1,0.07174342687136767,0.0
669,669,-0.5374639805475059,-0.5,1,452.0,531.0,1.0,517.0,1,0.04016420418781851,0.0
670,670,-0.8416714467446953,-0.8,1,498.0,712.0,1.0,240.0,1,0.021954311435625175,0.0
671,671,-0.4214159451344972,-0.4,1,482.0,618.0,1.0,410.0,1,0.0880204016592272,0.0
672,672,0.5174268860097317,0.5,0,289.0,825.0,0.0,466.0,1,0.06000596446920314,0.0
673,673,-5.254465576443046e-05,-0.0,1,378.0,986.0,1.0,546.0,1,0.019295216498212687,0.0
674,674,-0.37316522493555526,-0.4,1,489.0,726.0,1.0,465.0,1,0.059128260793980626,0.0
675,675,0.3481140008968946,0.3,0,481.0,988.0,0.0,411.0,1,0.07492185728406044,0.0
676,676,0.7262927242709087,0.7,0,362.0,951.0,0.0,277.0,1,0.041655471995499176,0.0
677,677,-0.8573513483746831,-0.9,1,356.0,892.0,1.0,492.0,1,0.06931256804453792,0.0
678,678,-0.6905467982931839,-0.7,1,287.0,715.0,1.0,248.0,1,0.08155903927041196,0.0
679,679,0.9023413114704413,0.9,0,386.0,754.0,0.0,240.0,1,0.06970052128174863,0.0
680,680,-0.6155979756356376,-0.6,1,362.0,988.0,1.0,320.0,1,0.07774492314256809,0.0
681,681,0.9745397478229203,1.0,0,460.0,814.0,0.0,226.0,1,0.0036252659444682925,0.0
682,682,0.6256741948301152,0.6,0,281.0,524.0,0.0,295.0,1,0.0837566303920882,0.0
683,683,-0.23070942752249612,-0.2,1,408.0,866.0,1.0,386.0,1,0.019998713802383085,0.0
684,684,-0.607874309453462,-0.6,1,480.0,971.0,1.0,649.0,1,0.002785916091461782,0.0
685,685,0.6819484620294423,0.7,0,419.0,932.0,0.0,339.0,1,0.010327043844718187,0.0
686,686,-0.8219652997990923,-0.8,1,339.0,683.0,1.0,458.0,1,0.057765914802566744,0.0
687,687,0.6477550034049431,0.6,0,359.0,898.0,0.0,1373.0,1,0.0987025978648225,0.0
688,688,-0.41496996278979137,-0.4,1,498.0,717.0,1.0,775.0,1,0.072048987203244,0.0
689,689,-0.3187188132153651,-0.3,1,388.0,751.0,1.0,391.0,1,0.017893042486100377,0.0
690,690,0.4822697765258792,0.5,0,421.0,873.0,0.0,316.0,1,0.07995110491882525,0.0
691,691,-0.8629370982385385,-0.9,1,424.0,838.0,1.0,298.0,1,0.02809881400282851,0.0
692,692,0.7664913409841139,0.8,0,416.0,757.0,0.0,337.0,1,0.008827987399166693,0.0
693,693,0.8207940025098761,0.8,0,406.0,796.0,0.0,448.0,1,0.008838249231747043,0.0
694,694,-0.7281914236028169,-0.7,1,329.0,856.0,1.0,395.0,1,0.000264186998809135,0.0
695,695,-0.06580953078440066,-0.1,1,429.0,622.0,1.0,359.0,1,0.08933749483389042,0.0
696,696,0.9526949657545181,1.0,0,312.0,915.0,0.0,153.0,1,0.030223102716970554,0.0
697,697,0.24723509785024977,0.2,0,322.0,931.0,0.0,577.0,1,0.07764864561924545,0.0
698,698,0.910243584111013,0.9,0,285.0,580.0,0.0,255.0,1,0.0535583484162566,0.0
699,699,0.5759161872250174,0.6,0,424.0,893.0,0.0,243.0,1,0.05265588860789847,0.0
700,700,-0.24902215884471146,-0.2,1,415.0,909.0,1.0,216.0,1,0.08602136794036108,0.0
701,701,0.3433246873602065,0.3,0,283.0,555.0,0.0,282.0,1,0.03748674029580442,0.0
702,702,-0.7076816934766483,-0.7,1,372.0,966.0,1.0,222.0,1,0.04356857923431251,0.0
703,703,0.9652937503102608,1.0,0,259.0,941.0,0.0,260.0,1,0.05862333445837961,0.0
704,704,0.6494304593391882,0.6,0,404.0,800.0,0.0,316.0,1,0.0732689390964117,0.0
705,705,0.16082683457540825,0.2,0,373.0,778.0,0.0,739.0,1,0.0007655059272419385,0.0
706,706,-0.3568880927183784,-0.4,1,336.0,990.0,1.0,814.0,1,0.05039384107027747,0.0
707,707,0.5455737732827599,0.5,0,347.0,802.0,0.0,291.0,1,0.07976556641867946,0.0
708,708,-0.7458696057803351,-0.7,1,374.0,920.0,1.0,296.0,1,0.002184507328219898,0.0
709,709,0.9134785329182982,0.9,0,490.0,724.0,0.0,266.0,1,0.07131592702267624,0.0
710,710,0.694825043319129,0.7,0,410.0,846.0,0.0,324.0,1,0.03723982417055316,0.0
711,711,0.1469835446385337,0.1,0,477.0,645.0,0.0,508.0,1,0.0684083829848124,0.0
712,712,-0.6496011450746106,-0.6,1,318.0,882.0,1.0,280.0,1,0.021393117682350263,0.0
713,713,0.7753800967320117,0.8,0,273.0,907.0,0.0,200.0,1,0.03492252652412851,0.0
714,714,0.10458609481952985,0.1,0,297.0,583.0,1.0,760.0,0,0.08802830030908078,0.0
715,715,0.5956866794278155,0.6,0,431.0,587.0,0.0,352.0,1,0.05588727553067013,0.0
716,716,-0.9347580606551726,-0.9,1,333.0,901.0,1.0,356.0,1,0.036194016811677554,0.0
717,717,-0.2443261968053223,-0.2,1,497.0,686.0,1.0,777.0,1,0.03367695033089183,0.0
718,718,0.3806581199530994,0.4,0,440.0,900.0,0.0,220.0,1,0.07192879831445265,0.0
719,719,-0.08918073484026845,-0.1,1,335.0,750.0,1.0,575.0,1,0.07853040138078447,0.0
720,720,0.32142867178977763,0.3,0,263.0,708.0,0.0,439.0,1,0.03897120810525783,0.0
721,721,-0.02206786461067023,-0.0,1,397.0,883.0,0.0,2130.0,0,0.057610480539707715,0.0
722,722,-0.2761987297717845,-0.3,1,395.0,935.0,1.0,220.0,1,0.08150749456913065,0.0
723,723,-0.3036256573519247,-0.3,1,479.0,628.0,1.0,483.0,1,0.08322041622151473,0.0
724,724,0.44462770678440133,0.4,0,372.0,978.0,0.0,370.0,1,0.08890879860871316,0.0
725,725,0.6023030954202397,0.6,0,484.0,778.0,0.0,418.0,1,0.03700683289297137,0.0
726,726,0.5934260724594502,0.6,0,266.0,945.0,0.0,259.0,1,0.017907322680895798,0.0
727,727,-0.5532967895275775,-0.6,1,484.0,816.0,1.0,530.0,1,0.0012025108633504256,0.0
728,728,0.076327822832019,0.1,0,355.0,907.0,0.0,988.0,1,0.05011707877547627,0.0
729,729,-0.8267747350097618,-0.8,1,323.0,540.0,1.0,197.0,1,0.06069689985734255,0.0
730,730,0.9445540468236022,0.9,0,463.0,992.0,0.0,245.0,1,0.06474072981075578,0.0
731,731,-0.42641852173553874,-0.4,1,492.0,628.0,1.0,350.0,1,0.08121928927258963,0.0
732,732,-0.1772821193760874,-0.2,1,304.0,712.0,1.0,824.0,1,0.0933830082711682,0.0
733,733,-0.790823881928514,-0.8,1,457.0,841.0,1.0,372.0,1,0.012551244979638498,0.0
734,734,0.17673904501986204,0.2,0,458.0,809.0,0.0,413.0,1,0.02866155694193702,0.0
735,735,0.9848281240288437,1.0,0,350.0,530.0,0.0,360.0,1,0.011231695382010621,0.0
736,736,-0.08076654126786598,-0.1,1,266.0,892.0,1.0,792.0,1,0.06038832731404501,0.0
737,737,0.6146350556018443,0.6,0,383.0,937.0,0.0,300.0,1,0.08135463674252488,0.0
738,738,-0.09967821505139662,-0.1,1,323.0,618.0,1.0,1199.0,1,0.07879360415654973,0.0
739,739,-0.6184894683497215,-0.6,1,392.0,943.0,1.0,435.0,1,0.0953133687243437,0.0
740,740,-0.774764609751424,-0.8,1,383.0,737.0,1.0,320.0,1,0.099376377827881,0.0
741,741,0.0903198889280663,0.1,0,368.0,863.0,0.0,839.0,1,0.0934252765555699,0.0
742,742,0.7181033007696569,0.7,0,367.0,788.0,0.0,245.0,1,0.06947719090005705,0.0
743,743,0.4750728614062403,0.5,0,366.0,844.0,0.0,420.0,1,0.03555745504155906,0.0
744,744,-0.24445547314035787,-0.2,1,307.0,602.0,1.0,721.0,1,0.08007071843764851,0.0
745,745,0.5112157781066284,0.5,0,302.0,898.0,0.0,240.0,1,0.04010345883332808,0.0
746,746,-0.6163335169550395,-0.6,1,475.0,701.0,1.0,424.0,1,0.04453783792350387,0.0
747,747,0.8911881762290725,0.9,0,431.0,529.0,0.0,180.0,1,0.0004007053627216872,0.0
748,748,-0.6715218212592178,-0.7,1,402.0,638.0,1.0,610.0,1,0.07904165894012878,0.0
749,749,0.11779707179309118,0.1,0,261.0,963.0,0.0,736.0,1,0.029735540378707216,0.0
750,750,0.6853220924159715,0.7,0,257.0,945.0,0.0,408.0,1,0.020109005948903236,0.0
751,751,-0.9859217390494632,-1.0,1,419.0,911.0,1.0,430.0,1,0.011181033722090762,0.0
752,752,-0.4361424814192323,-0.4,1,432.0,592.0,1.0,626.0,1,0.08539331160785417,0.0
753,753,0.9489533982332949,0.9,0,474.0,561.0,0.0,255.0,1,0.0743558865863676,0.0
754,754,0.9695285858345939,1.0,0,474.0,871.0,0.0,295.0,1,0.06308610887192549,0.0
755,755,0.7814824586070561,0.8,0,309.0,533.0,0.0,268.0,1,0.022234949647963187,0.0
756,756,-0.6242096043889203,-0.6,1,273.0,914.0,1.0,513.0,1,0.031591244447409475,0.0
757,757,0.23712462397035483,0.2,0,261.0,954.0,0.0,885.0,1,0.0883745894070546,0.0
758,758,-0.7235694330238145,-0.7,1,467.0,519.0,1.0,204.0,1,0.0722082483538856,0.0
759,759,-0.8824168586618386,-0.9,1,274.0,594.0,1.0,192.0,1,0.08634692451359208,0.0
760,760,-0.7777200365487018,-0.8,1,340.0,879.0,1.0,691.0,1,0.08053791837266969,0.0
761,761,-0.5595123654474949,-0.6,1,270.0,715.0,1.0,405.0,1,0.052288617229116666,0.0
762,762,-0.12374116272348923,-0.1,1,443.0,584.0,1.0,773.0,1,0.042952201284325454,0.0
763,763,0.18360089329969065,0.2,0,484.0,619.0,0.0,907.0,1,0.014134622073912995,0.0
764,764,0.5742018991259252,0.6,0,441.0,937.0,0.0,612.0,1,0.05432298390359206,0.0
765,765,-0.38115449948211233,-0.4,1,481.0,580.0,1.0,519.0,1,0.0016986561854151706,0.0
766,766,-0.6863714912427101,-0.7,1,277.0,910.0,1.0,353.0,1,0.09492079412057591,0.0
767,767,-0.3931116458749315,-0.4,1,321.0,918.0,1.0,671.0,1,0.046250795727330964,0.0
768,768,-0.7236669508603621,-0.7,1,332.0,879.0,1.0,279.0,1,0.033210492228760484,0.0
769,769,0.416659987012735,0.4,0,457.0,950.0,0.0,653.0,1,0.011730388722383734,0.0
770,770,0.9396671788187754,0.9,0,348.0,750.0,0.0,202.0,1,0.014233809210818816,0.0
771,771,0.595864266745592,0.6,0,310.0,990.0,0.0,460.0,1,0.03965842317143912,0.0
772,772,-0.33497314786358157,-0.3,1,344.0,883.0,1.0,243.0,1,0.04879927695141359,0.0
773,773,0.28622012487521675,0.3,0,391.0,574.0,0.0,545.0,1,0.013416272811968845,0.0
774,774,0.672291158364821,0.7,0,260.0,987.0,0.0,423.0,1,0.021162907054108962,0.0
775,775,0.989126067637389,1.0,0,297.0,879.0,0.0,304.0,1,0.07634624601765658,0.0
776,776,0.3438335431040207,0.3,0,437.0,721.0,0.0,872.0,1,0.027070160057886684,0.0
777,777,0.5490331264939774,0.5,0,261.0,741.0,0.0,268.0,1,0.029650863065759894,0.0
778,778,0.3044503221207837,0.3,0,281.0,551.0,0.0,428.0,1,0.043553841174789845,0.0
779,779,-0.17079255974711693,-0.2,1,278.0,897.0,1.0,1305.0,1,0.05991372352459892,0.0
780,780,0.4776997574559789,0.5,0,351.0,597.0,0.0,492.0,1,0.0659764085430543,0.0
781,781,0.4394200208341781,0.4,0,386.0,920.0,0.0,364.0,1,0.009850016818508734,0.0
782,782,-0.6492537657422168,-0.6,1,466.0,505.0,1.0,419.0,1,0.011254253390393432,0.0
783,783,0.27537194329056525,0.3,0,472.0,720.0,0.0,428.0,1,0.018133600009479323,0.0
784,784,-0.5471449108602433,-0.5,1,348.0,936.0,1.0,296.0,1,0.01198411689312917,0.0
785,785,-0.753921557394307,-0.8,1,347.0,504.0,1.0,309.0,1,0.06807205140014366,0.0
786,786,0.7804266905977182,0.8,0,494.0,953.0,0.0,153.0,1,0.020306276270343294,0.0
787,787,-0.8386924936711533,-0.8,1,319.0,527.0,1.0,224.0,1,0.004272125218386602,0.0
788,788,0.36478651693281083,0.4,0,334.0,710.0,0.0,636.0,1,0.06571073855906596,0.0
789,789,-0.3163486993511242,-0.3,1,268.0,501.0,1.0,281.0,1,0.03954520186367819,0.0
790,790,-0.7295967639022496,-0.7,1,345.0,501.0,1.0,354.0,1,0.0021287745762625155,0.0
791,791,-0.30449869697588006,-0.3,1,304.0,891.0,1.0,805.0,1,0.0008254155174044598,0.0
792,792,0.19430227643441134,0.2,0,370.0,525.0,0.0,495.0,1,0.05111687383048107,0.0
793,793,0.9463562466339179,0.9,0,375.0,665.0,0.0,300.0,1,0.0907848875996585,0.0
794,794,-0.8234025668376646,-0.8,1,355.0,699.0,1.0,256.0,1,0.012840409690218336,0.0
795,795,-0.8093408760537173,-0.8,1,475.0,965.0,1.0,340.0,1,0.04347913609663262,0.0
796,796,-0.24084981771698044,-0.2,1,433.0,848.0,1.0,499.0,1,0.010119566596500885,0.0
797,797,0.08457706083265548,0.1,0,372.0,944.0,0.0,454.0,1,0.04143809173956227,0.0
798,798,-0.2956502625675357,-0.3,1,279.0,990.0,1.0,1091.0,1,0.013892723900775318,0.0
799,799,0.2336271369382099,0.2,0,336.0,898.0,0.0,1916.0,1,0.00042802257871127347,0.0
800,800,0.14547796419226966,0.1,0,456.0,864.0,0.0,390.0,1,0.03509888212063938,0.0
801,801,-0.9411432713577246,-0.9,1,421.0,546.0,1.0,343.0,1,0.06252497797196759,0.0
802,802,-0.3492719768219388,-0.3,1,286.0,956.0,1.0,538.0,1,0.017749760956633675,0.0
803,803,-0.8602211857673439,-0.9,1,293.0,807.0,1.0,230.0,1,0.09929932820828885,0.0
804,804,-0.5782582207086149,-0.6,1,266.0,669.0,1.0,475.0,1,0.021331849911674017,0.0
805,805,-0.8247580357049118,-0.8,1,304.0,999.0,1.0,397.0,1,0.07974819034958802,0.0
806,806,0.2894743522759431,0.3,0,468.0,623.0,0.0,769.0,1,0.07062775218641996,0.0
807,807,-0.37880052962749744,-0.4,1,469.0,710.0,1.0,621.0,1,0.09809638077481654,0.0
808,808,-0.8761278608126637,-0.9,1,287.0,709.0,1.0,404.0,1,0.02686411207472228,0.0
809,809,-0.7765995626264715,-0.8,1,400.0,825.0,1.0,285.0,1,0.07265440310851784,0.0
810,810,-0.3502015555161233,-0.4,1,342.0,588.0,1.0,520.0,1,0.003412458188155321,0.0
811,811,0.4476372746568711,0.4,0,430.0,883.0,0.0,567.0,1,0.0964482463250772,0.0
812,812,-0.6999269884275015,-0.7,1,339.0,572.0,1.0,279.0,1,0.06305480761482535,0.0
813,813,0.10673880997830443,0.1,0,297.0,519.0,0.0,1144.0,1,0.02716491969981907,0.0
814,814,0.1905721697726197,0.2,0,289.0,732.0,0.0,519.0,1,0.06884479374834608,0.0
815,815,-0.18149512958816105,-0.2,1,431.0,937.0,1.0,402.0,1,0.08764349529356118,0.0
816,816,0.3876285158678263,0.4,0,277.0,953.0,0.0,800.0,1,0.07777869435065166,0.0
817,817,0.3611496989486185,0.4,0,409.0,809.0,0.0,572.0,1,0.0030422117164388696,0.0
818,818,0.7575584584091044,0.8,0,429.0,960.0,0.0,451.0,1,0.00023957486916779125,0.0
819,819,-0.9014318763741129,-0.9,1,473.0,790.0,1.0,267.0,1,0.028151555848556643,0.0
820,820,-0.45634297813856617,-0.5,1,325.0,519.0,1.0,446.0,1,0.06291479697864415,0.0
821,821,-0.8430271298264718,-0.8,1,357.0,931.0,1.0,282.0,1,0.020206667314168716,0.0
822,822,-0.9736372357518355,-1.0,1,479.0,548.0,1.0,313.0,1,0.05050474682109784,0.0
823,823,-0.8627480750070919,-0.9,1,461.0,698.0,1.0,331.0,1,0.05813331669462845,0.0
824,824,0.8439297507083516,0.8,0,403.0,969.0,0.0,188.0,1,0.02423334907096293,0.0
825,825,0.21580977108686805,0.2,0,452.0,901.0,1.0,427.0,0,0.09803072237530347,0.0
826,826,0.16884115334974803,0.2,0,466.0,548.0,0.0,656.0,1,0.04838902212783572,0.0
827,827,0.10367843223091078,0.1,0,438.0,747.0,0.0,525.0,1,0.09585868844370164,0.0
828,828,-0.220652322700418,-0.2,1,473.0,567.0,1.0,700.0,1,0.09234447307761855,0.0
829,829,-0.6284821054526664,-0.6,1,331.0,631.0,1.0,248.0,1,0.08895828097701695,0.0
830,830,-0.5443701707550366,-0.5,1,313.0,974.0,1.0,543.0,1,0.028732716275259165,0.0
831,831,-0.02119666950371646,-0.0,1,480.0,822.0,1.0,2018.0,1,0.0490030444251876,0.0
832,832,0.8219481219397238,0.8,0,296.0,610.0,0.0,314.0,1,0.08963185470350035,0.0
833,833,0.18633662667628048,0.2,0,318.0,804.0,0.0,1078.0,1,0.09471039456168132,0.0
834,834,0.9292036233879699,0.9,0,343.0,896.0,0.0,441.0,1,0.08158731411880503,0.0
835,835,-0.5311437321277725,-0.5,1,418.0,860.0,1.0,342.0,1,0.06885766761951928,0.0
836,836,0.4966160087516167,0.5,0,411.0,647.0,0.0,412.0,1,0.07471409699638679,0.0
837,837,0.11631526911295031,0.1,0,389.0,920.0,0.0,601.0,1,0.011173488588502135,0.0
838,838,0.8988444153513004,0.9,0,481.0,514.0,0.0,185.0,1,0.03280631519642148,0.0
839,839,0.38137992261647824,0.4,0,292.0,821.0,0.0,1017.0,1,0.05608192445858216,0.0
840,840,0.855403781809702,0.9,0,388.0,690.0,0.0,232.0,1,0.00730159585638207,0.0
841,841,-0.027921313557431438,-0.0,1,416.0,926.0,1.0,538.0,1,0.012109506959656603,0.0
842,842,-0.03248044226363733,-0.0,1,320.0,516.0,1.0,1424.0,1,0.03529353331775472,0.0
843,843,0.4149985749890104,0.4,0,382.0,515.0,0.0,673.0,1,0.01487968268745904,0.0
844,844,0.6111810931740675,0.6,0,490.0,713.0,0.0,587.0,1,0.09182766653604724,0.0
845,845,0.6110126822475479,0.6,0,382.0,844.0,0.0,364.0,1,0.004768271462436436,0.0
846,846,0.4581395880904289,0.5,0,309.0,528.0,0.0,553.0,1,0.008068597270378331,0.0
847,847,-0.9286064838190025,-0.9,1,445.0,745.0,1.0,250.0,1,0.0787986291840026,0.0
848,848,0.796562355012929,0.8,0,495.0,875.0,0.0,330.0,1,0.014141614038654228,0.0
849,849,-0.3647233855864911,-0.4,1,287.0,794.0,1.0,569.0,1,0.06535783842931409,0.0
850,850,-0.09014098013554128,-0.1,1,363.0,559.0,0.0,508.0,0,0.035737124792844514,0.0
851,851,-0.5946095904453903,-0.6,1,314.0,814.0,1.0,312.0,1,0.047866715337087744,0.0
852,852,-0.4624434161666653,-0.5,1,308.0,522.0,1.0,480.0,1,0.06982874860123339,0.0
853,853,-0.4734839165428939,-0.5,1,363.0,793.0,1.0,284.0,1,0.07634993248095984,0.0
854,854,-0.31005097740440646,-0.3,1,330.0,687.0,1.0,223.0,1,0.033530083153000226,0.0
855,855,-0.6009608155618069,-0.6,1,330.0,783.0,1.0,737.0,1,0.06615633939444296,0.0
856,856,0.14851301650638993,0.1,0,264.0,571.0,0.0,1565.0,1,0.045106538359559016,0.0
857,857,0.978796682042518,1.0,0,349.0,658.0,0.0,323.0,1,0.07874352614821563,0.0
858,858,-0.6992059392723995,-0.7,1,250.0,579.0,1.0,391.0,1,0.02243301112622699,0.0
859,859,0.5753204736882533,0.6,0,447.0,756.0,0.0,567.0,1,0.055323786285894905,0.0
860,860,-0.0011874333087091848,-0.0,1,382.0,799.0,1.0,489.0,1,0.004899574169828536,0.0
861,861,-0.0007737223532235937,-0.0,1,335.0,532.0,0.0,1433.0,0,0.01949264453439934,0.0
862,862,0.8280425124608419,0.8,0,301.0,802.0,0.0,237.0,1,0.09638556995177411,0.0
863,863,0.037207501066161,0.0,0,466.0,831.0,0.0,1873.0,1,0.034652514566656946,0.0
864,864,-0.7082377942657401,-0.7,1,403.0,513.0,1.0,304.0,1,0.01356282160017308,0.0
865,865,-0.5664592745412922,-0.6,1,278.0,967.0,1.0,455.0,1,0.09839218883696843,0.0
866,866,0.9731398038272168,1.0,0,333.0,919.0,0.0,258.0,1,0.09476171803081103,0.0
867,867,0.8550843082910418,0.9,0,486.0,873.0,0.0,321.0,1,0.08765973280095612,0.0
868,868,0.24870156215070005,0.2,0,489.0,989.0,0.0,492.0,1,0.042107818584339235,0.0
869,869,-0.26336232485182864,-0.3,1,368.0,943.0,1.0,209.0,1,0.09560368528125447,0.0
870,870,0.5044525860856044,0.5,0,263.0,543.0,0.0,364.0,1,0.0678710464474711,0.0
871,871,-0.7241619273595741,-0.7,1,250.0,732.0,1.0,258.0,1,0.027652736168294813,0.0
872,872,0.5413621851812249,0.5,0,286.0,831.0,0.0,383.0,1,0.03523378289262372,0.0
873,873,0.42596039356692006,0.4,0,454.0,603.0,0.0,433.0,1,0.0712474965356,0.0
874,874,-0.9751778228914401,-1.0,1,426.0,897.0,1.0,457.0,1,0.06616014822696693,0.0
875,875,-0.5239243584658222,-0.5,1,269.0,812.0,1.0,329.0,1,0.09705808572990174,0.0
876,876,0.6810349832931872,0.7,0,475.0,859.0,0.0,516.0,1,0.06339548959334769,0.0
877,877,-0.01967952892348479,-0.0,1,355.0,794.0,1.0,541.0,1,0.03835720400988325,0.0
878,878,0.765308147182205,0.8,0,300.0,965.0,0.0,295.0,1,0.021023776577237474,0.0
879,879,0.20163533749509743,0.2,0,327.0,796.0,0.0,797.0,1,0.038482227855934664,0.0
880,880,-0.5138403715292972,-0.5,1,329.0,658.0,1.0,413.0,1,0.025692397759774388,0.0
881,881,-0.8170474993672578,-0.8,1,310.0,866.0,1.0,224.0,1,0.0791161150282246,0.0
882,882,0.9499586180591517,0.9,0,337.0,663.0,0.0,490.0,1,0.021484006194528973,0.0
883,883,-0.7794400497736809,-0.8,1,429.0,802.0,1.0,329.0,1,0.014904996030043761,0.0
884,884,-0.19175266135678126,-0.2,1,499.0,839.0,1.0,322.0,1,0.07044417966544515,0.0
885,885,0.7310937816723424,0.7,0,284.0,694.0,0.0,232.0,1,0.02671439554789791,0.0
886,886,-0.4490925132867787,-0.4,1,304.0,908.0,1.0,368.0,1,0.032021092298647504,0.0
887,887,0.3525618872621705,0.4,0,440.0,811.0,0.0,349.0,1,0.034836639066170905,0.0
888,888,0.8966228092168578,0.9,0,253.0,800.0,0.0,217.0,1,0.003880870664040148,0.0
889,889,0.06791136281358057,0.1,0,338.0,519.0,0.0,3073.0,1,0.02329477592393966,0.0
890,890,0.9733900288306301,1.0,0,468.0,506.0,0.0,266.0,1,0.08654321137733673,0.0
891,891,0.9247484077263961,0.9,0,434.0,552.0,0.0,214.0,1,0.01617199967685411,0.0
892,892,-0.7760258735491801,-0.8,1,479.0,850.0,1.0,451.0,1,0.06404348735536962,0.0
893,893,-0.4945055167552883,-0.5,1,445.0,816.0,1.0,189.0,1,0.09089944523763034,0.0
894,894,-0.9562947397093753,-1.0,1,494.0,870.0,1.0,376.0,1,0.03395607258769292,0.0
895,895,0.36796515346059255,0.4,0,461.0,684.0,0.0,645.0,1,0.023676055183942248,0.0
896,896,-0.5622139269480999,-0.6,1,446.0,963.0,1.0,481.0,1,0.03381148893926721,0.0
897,897,-0.3174594491730949,-0.3,1,310.0,512.0,1.0,338.0,1,0.045608167053764054,0.0
898,898,0.5412047387968875,0.5,0,409.0,870.0,0.0,191.0,1,0.04638932938014106,0.0
899,899,0.05853415775634696,0.1,0,325.0,931.0,0.0,834.0,1,0.031607425799994995,0.0
900,900,-0.9626283611639399,-1.0,1,491.0,748.0,1.0,251.0,1,0.001249428002477515,0.0
901,901,-0.5812866992544157,-0.6,1,322.0,568.0,1.0,390.0,1,0.01658879861258248,0.0
902,902,0.6806546182616378,0.7,0,325.0,651.0,0.0,344.0,1,0.06491911159410807,0.0
903,903,-0.9605746325674513,-1.0,1,279.0,741.0,1.0,240.0,1,0.028238094499352273,0.0
904,904,0.23837568511218454,0.2,0,428.0,634.0,0.0,548.0,1,0.09864213442026504,0.0
905,905,-0.7139172796161184,-0.7,1,342.0,944.0,1.0,284.0,1,0.07472137089337182,0.0
906,906,0.2168722672775012,0.2,0,392.0,719.0,0.0,949.0,1,0.021484397382640553,0.0
907,907,0.06387437256971418,0.1,0,424.0,623.0,0.0,703.0,1,0.03899621976618835,0.0
908,908,-0.7545590357999112,-0.8,1,444.0,766.0,1.0,300.0,1,0.055380591436329396,0.0
909,909,-0.7480764552027839,-0.7,1,282.0,638.0,1.0,670.0,1,0.01875082845287115,0.0
910,910,-0.5283841488226977,-0.5,1,483.0,807.0,1.0,760.0,1,0.045604599108125136,0.0
911,911,-0.2794711325369452,-0.3,1,363.0,977.0,1.0,770.0,1,0.06315494375998065,0.0
912,912,0.35534228982168314,0.4,0,277.0,777.0,0.0,466.0,1,0.00014179649320207323,0.0
913,913,-0.903445973596595,-0.9,1,288.0,631.0,1.0,421.0,1,0.07872550809900027,0.0
914,914,-0.5913312061139839,-0.6,1,383.0,837.0,1.0,280.0,1,0.007552223677158843,0.0
915,915,0.3726702632663177,0.4,0,253.0,742.0,0.0,505.0,1,0.04893757971502564,0.0
916,916,0.8796182173921518,0.9,0,319.0,889.0,0.0,252.0,1,0.07128142375302886,0.0
917,917,0.2582550357717177,0.3,0,269.0,953.0,0.0,638.0,1,0.03499803254163362,0.0
918,918,0.47970135423658977,0.5,0,379.0,555.0,0.0,296.0,1,0.07144899225198167,0.0
919,919,0.16112300034739047,0.2,0,387.0,839.0,0.0,1064.0,1,0.022872066803557592,0.0
920,920,-0.9684385043218342,-1.0,1,339.0,686.0,1.0,325.0,1,0.009084828013555802,0.0
921,921,0.6780284841456019,0.7,0,390.0,912.0,0.0,1318.0,1,0.07188944221340807,0.0
922,922,0.023628157883554213,0.0,0,488.0,543.0,0.0,629.0,1,0.043316461089211056,0.0
923,923,-0.031631470283032925,-0.0,1,469.0,908.0,1.0,683.0,1,0.043437592920788526,0.0
924,924,-0.6857497316756971,-0.7,1,417.0,570.0,1.0,403.0,1,0.035911587485035666,0.0
925,925,-0.733965006951762,-0.7,1,466.0,644.0,1.0,350.0,1,0.06090508322028394,0.0
926,926,-0.028866534267306898,-0.0,1,314.0,896.0,1.0,880.0,1,0.03553359911715714,0.0
927,927,-0.05295011915549175,-0.1,1,298.0,595.0,1.0,857.0,1,0.09252055275556653,0.0
928,928,0.07135297837580756,0.1,0,470.0,574.0,0.0,746.0,1,0.05902382795296817,0.0
929,929,-0.09118688691417876,-0.1,1,456.0,999.0,1.0,295.0,1,0.07083127132298211,0.0
930,930,-0.480359762483898,-0.5,1,458.0,583.0,1.0,509.0,1,0.0986240224335514,0.0
931,931,0.3842729410335708,0.4,0,389.0,718.0,0.0,273.0,1,0.07459519353441567,0.0
932,932,0.7160292324132551,0.7,0,349.0,699.0,0.0,222.0,1,0.07459101746084609,0.0
933,933,0.892309187174307,0.9,0,409.0,944.0,0.0,307.0,1,0.03448425285708245,0.0
934,934,-0.579071980668973,-0.6,1,338.0,681.0,1.0,591.0,1,0.04444383764497914,0.0
935,935,-0.38318727188713764,-0.4,1,350.0,660.0,1.0,470.0,1,0.04806112840666136,0.0
936,936,0.8219616531018392,0.8,0,329.0,828.0,0.0,173.0,1,0.016505986514837957,0.0
937,937,-0.34681356481683556,-0.3,1,341.0,544.0,1.0,345.0,1,0.09891495067116109,0.0
938,938,-0.017777374218555853,-0.0,1,429.0,627.0,1.0,2374.0,1,0.06568312882225638,0.0
939,939,-0.8578032779050033,-0.9,1,401.0,944.0,1.0,185.0,1,0.0567968188959298,0.0
940,940,0.5745299696166146,0.6,0,463.0,830.0,0.0,517.0,1,0.01790745649401945,0.0
941,941,0.8390082643781125,0.8,0,479.0,816.0,0.0,175.0,1,0.02544486608854133,0.0
942,942,0.7390062012676843,0.7,0,381.0,901.0,0.0,308.0,1,0.0016729634237101277,0.0
943,943,-0.9404270955560643,-0.9,1,337.0,802.0,1.0,301.0,1,0.03706359020307903,0.0
944,944,-0.28706927267666726,-0.3,1,350.0,717.0,1.0,783.0,1,0.05679414730863065,0.0
945,945,0.21455144143899996,0.2,0,253.0,691.0,0.0,986.0,1,0.051351730989596694,0.0
946,946,0.4180711480405179,0.4,0,430.0,747.0,0.0,403.0,1,0.06336310979883845,0.0
947,947,0.3826933861556623,0.4,0,397.0,591.0,0.0,322.0,1,0.09666406933200283,0.0
948,948,0.4323306707212802,0.4,0,275.0,915.0,0.0,430.0,1,0.09995234011709209,0.0
949,949,-0.24416908362325995,-0.2,1,422.0,847.0,1.0,641.0,1,0.004732346820555922,0.0
950,950,0.43544197156928677,0.4,0,423.0,964.0,0.0,833.0,1,0.0015001251870521593,0.0
951,951,-0.37782367456746835,-0.4,1,463.0,659.0,1.0,308.0,1,0.07812395764380792,0.0
952,952,0.056210049769658266,0.1,0,492.0,850.0,0.0,638.0,1,0.008475835857389803,0.0
953,953,0.47847538689603675,0.5,0,423.0,739.0,0.0,558.0,1,0.09079042340767551,0.0
954,954,-0.03864104454268502,-0.0,1,342.0,836.0,0.0,722.0,0,0.06652958409865162,0.0
955,955,-0.36517382217208794,-0.4,1,377.0,570.0,1.0,463.0,1,0.0006516087162654838,0.0
956,956,-0.48180077769173346,-0.5,1,308.0,929.0,1.0,293.0,1,0.0781239825425877,0.0
957,957,0.6634469117346915,0.7,0,346.0,569.0,0.0,525.0,1,0.04301010117332702,0.0
958,958,-0.10284128046854102,-0.1,1,469.0,985.0,1.0,496.0,1,0.014256866808441838,0.0
959,959,0.5731852840716141,0.6,0,482.0,857.0,0.0,301.0,1,0.08759589088620579,0.0
960,960,-0.30939085142426825,-0.3,1,482.0,913.0,1.0,495.0,1,0.07902697299064834,0.0
961,961,-0.3722291282811132,-0.4,1,412.0,705.0,1.0,623.0,1,0.050234403764218095,0.0
962,962,-0.46836305235352427,-0.5,1,330.0,694.0,1.0,286.0,1,0.07297083707344433,0.0
963,963,-0.3307185005355806,-0.3,1,352.0,833.0,1.0,205.0,1,0.044994397687638576,0.0
964,964,-0.6202347327756768,-0.6,1,303.0,811.0,1.0,316.0,1,0.07860006551243405,0.0
965,965,0.008100463916818068,0.0,0,293.0,985.0,1.0,2082.0,0,0.015637487490355897,0.0
966,966,-0.1902231198372124,-0.2,1,421.0,924.0,1.0,455.0,1,0.07838369067407482,0.0
967,967,-0.383054888657967,-0.4,1,499.0,731.0,1.0,480.0,1,0.024293781696439223,0.0
968,968,0.36075957608310816,0.4,0,319.0,852.0,0.0,259.0,1,0.022824554600367555,0.0
969,969,0.28118611346343414,0.3,0,373.0,929.0,0.0,398.0,1,0.02017150109328395,0.0
970,970,-0.7098449117690118,-0.7,1,257.0,894.0,1.0,299.0,1,0.054682901993363876,0.0
971,971,0.21944978662343395,0.2,0,405.0,544.0,0.0,631.0,1,0.07214806939019423,0.0
972,972,0.765059995623828,0.8,0,352.0,610.0,0.0,348.0,1,0.0013825074305868436,0.0
973,973,-0.5224477333845738,-0.5,1,394.0,734.0,1.0,232.0,1,0.09866901797919486,0.0
974,974,-0.823666132328321,-0.8,1,269.0,618.0,1.0,423.0,1,0.09838770476593657,0.0
975,975,-0.05683270466161505,-0.1,1,401.0,993.0,1.0,396.0,1,0.09973539681299014,0.0
976,976,0.023497959088131903,0.0,0,465.0,774.0,0.0,761.0,1,0.083753570644989,0.0
977,977,-0.19588855600286292,-0.2,1,324.0,698.0,1.0,508.0,1,0.08571781589729538,0.0
978,978,-0.028819222473277284,-0.0,1,363.0,901.0,0.0,896.0,0,0.07171992332456621,0.0
979,979,-0.9510704735358548,-1.0,1,312.0,654.0,1.0,334.0,1,0.03717708519603946,0.0
980,980,-0.8484978921291413,-0.8,1,476.0,532.0,1.0,332.0,1,0.06602672231897326,0.0
981,981,0.9099876256327142,0.9,0,447.0,774.0,0.0,269.0,1,0.0032740014771262095,0.0
982,982,0.25264766929791493,0.3,0,367.0,532.0,0.0,751.0,1,0.044221858895005274,0.0
983,983,-0.436597078536785,-0.4,1,478.0,782.0,1.0,220.0,1,0.08923683330679316,0.0
984,984,-0.7323115048488187,-0.7,1,446.0,761.0,1.0,363.0,1,0.03230502097574062,0.0
985,985,-0.8574886464755835,-0.9,1,261.0,871.0,1.0,188.0,1,0.07246319781082938,0.0
986,986,-0.7349852010081099,-0.7,1,421.0,763.0,1.0,326.0,1,0.044551267470056055,0.0
987,987,0.45964892796461365,0.5,0,434.0,870.0,0.0,266.0,1,0.07631351373485024,0.0
988,988,0.40084259032513225,0.4,0,447.0,560.0,0.0,383.0,1,0.06635939570458331,0.0
989,989,0.07062305988272555,0.1,0,300.0,956.0,1.0,634.0,0,0.04382631940491012,0.0
990,990,0.18907786464541343,0.2,0,497.0,790.0,0.0,1433.0,1,0.03342600991867952,0.0
991,991,-0.9581920634619003,-1.0,1,372.0,970.0,1.0,408.0,1,0.09504771627700914,0.0
992,992,0.5342520838999472,0.5,0,322.0,920.0,0.0,348.0,1,0.0786574647334723,0.0
993,993,-0.4826854733313317,-0.5,1,312.0,984.0,1.0,534.0,1,0.07123010192144848,0.0
994,994,-0.5684612053840579,-0.6,1,275.0,547.0,1.0,378.0,1,0.031138884160361726,0.0
995,995,-0.9038602788660186,-0.9,1,404.0,862.0,1.0,344.0,1,0.05418124783190497,0.0
996,996,-0.05206138704917063,-0.1,1,495.0,608.0,1.0,1467.0,1,0.07897817905440445,0.0
997,997,0.2884453376073923,0.3,0,486.0,616.0,0.0,578.0,1,0.09764522963802671,0.0
998,998,0.5994797947934416,0.6,0,368.0,597.0,0.0,425.0,1,0.02077801921419824,0.0
999,999,0.7637615100885413,0.8,0,427.0,622.0,0.0,381.0,1,0.011130368770487975,0.0
1000,1000,-0.0025493924152730774,-0.0,1,261.0,862.0,1.0,1007.0,1,0.045707684900479564,0.0
1001,1001,0.25762517397253126,0.3,0,430.0,941.0,0.0,1019.0,1,0.00204967306641769,0.0
1002,1002,-0.2023619334869371,-0.2,1,325.0,533.0,1.0,712.0,1,0.08755713540309246,0.0
1003,1003,0.10797098423392049,0.1,0,378.0,591.0,0.0,611.0,1,0.09650780197999481,0.0
1004,1004,0.4415491933005089,0.4,0,251.0,501.0,0.0,508.0,1,0.03657761076455536,0.0
1005,1005,0.4342177896631332,0.4,0,250.0,856.0,0.0,234.0,1,0.06569901306987412,0.0
1006,1006,-0.7276756010819359,-0.7,1,298.0,597.0,1.0,325.0,1,0.0196120392204565,0.0
1007,1007,0.35712393722166125,0.4,0,250.0,590.0,0.0,820.0,1,0.09783913368171704,0.0
1008,1008,0.8668694278121953,0.9,0,311.0,500.0,0.0,239.0,1,0.09527106553300861,0.0
1009,1009,0.4752217685416982,0.5,0,372.0,942.0,0.0,476.0,1,0.05885403982902017,0.0
1010,1010,-0.9156799297336615,-0.9,1,275.0,559.0,1.0,426.0,1,0.0342359462161493,0.0
1011,1011,0.2611271068699266,0.3,0,499.0,545.0,0.0,626.0,1,0.09002967109117643,0.0
1012,1012,0.05724138536996093,0.1,0,359.0,753.0,1.0,2278.0,0,0.031241687809634523,0.0
1013,1013,-0.42711895349660023,-0.4,1,384.0,789.0,1.0,237.0,1,0.05031976737643116,0.0
1014,1014,-0.2793100540377922,-0.3,1,396.0,802.0,1.0,342.0,1,0.010692780035486172,0.0
1015,1015,-0.7234128636416652,-0.7,1,294.0,923.0,1.0,253.0,1,0.06067476588151319,0.0
1016,1016,0.19403027340924672,0.2,0,287.0,773.0,0.0,1220.0,1,0.016961303611671908,0.0
1017,1017,-0.7710076573110647,-0.8,1,261.0,874.0,1.0,235.0,1,0.0052729425543225576,0.0
1018,1018,-0.23852261349872994,-0.2,1,429.0,556.0,1.0,1015.0,1,0.010022760735019865,0.0
1019,1019,0.6046344256909351,0.6,0,284.0,529.0,0.0,437.0,1,0.0744195905482135,0.0
1020,1020,-0.32582184294135597,-0.3,1,260.0,662.0,1.0,268.0,1,0.09113028377429094,0.0
1021,1021,-0.8660169352793836,-0.9,1,310.0,756.0,1.0,354.0,1,0.07123519188097015,0.0
1022,1022,0.7747024027985332,0.8,0,447.0,795.0,0.0,558.0,1,0.03202608289855615,0.0
1023,1023,0.6942068148434055,0.7,0,269.0,502.0,0.0,339.0,1,0.08400235602204713,0.0
1024,1024,-0.8602322065772301,-0.9,1,478.0,530.0,1.0,332.0,1,0.018130850859326732,0.0
1025,1025,0.03740165273569618,0.0,0,407.0,522.0,0.0,651.0,1,0.06914694611425909,0.0
1026,1026,0.5159697508753698,0.5,0,330.0,524.0,0.0,696.0,1,0.033503515151274976,0.0
1027,1027,0.6370084386876917,0.6,0,313.0,723.0,0.0,354.0,1,0.03859696165678425,0.0
1028,1028,-0.7457902964937289,-0.7,1,378.0,851.0,1.0,311.0,1,0.034400584884995276,0.0
1029,1029,-0.6761648639064315,-0.7,1,348.0,952.0,1.0,240.0,1,0.09569395085946106,0.0
1030,1030,0.6339666718762977,0.6,0,357.0,884.0,0.0,179.0,1,0.06647511831104001,0.0
1031,1031,-0.2737832673119893,-0.3,1,440.0,526.0,1.0,1204.0,1,0.09495715777680515,0.0
1032,1032,-0.7292513727371033,-0.7,1,287.0,992.0,1.0,291.0,1,0.00599957101324613,0.0
1033,1033,0.3595068962347725,0.4,0,491.0,732.0,0.0,487.0,1,0.05690362439896995,0.0
1034,1034,-0.04999553197059181,-0.0,1,419.0,985.0,1.0,1376.0,1,0.04197883215365583,0.0
1035,1035,0.8249635148975021,0.8,0,397.0,510.0,0.0,983.0,1,0.06214380581462945,0.0
1036,1036,-0.2946155183127812,-0.3,1,435.0,532.0,1.0,663.0,1,0.03055540504282831,0.0
1037,1037,0.9747088691461196,1.0,0,336.0,561.0,0.0,313.0,1,0.04223557508961552,0.0
1038,1038,0.5252498054889809,0.5,0,445.0,786.0,0.0,329.0,1,0.008883270827865431,0.0
1039,1039,-0.5364078146219089,-0.5,1,470.0,568.0,1.0,522.0,1,0.04494988368890077,0.0
1040,1040,0.007850705905879662,0.0,0,484.0,754.0,0.0,392.0,1,0.06853504921194858,0.0
1041,1041,0.9727577983002378,1.0,0,400.0,894.0,0.0,336.0,1,0.0025739193076279145,0.0
1042,1042,0.11470567410217947,0.1,0,387.0,938.0,0.0,1715.0,1,0.09899659219076855,0.0
1043,1043,0.49474157554173015,0.5,0,294.0,798.0,0.0,308.0,1,0.07163439356964992,0.0
1044,1044,-0.9307813530985609,-0.9,1,325.0,567.0,1.0,378.0,1,0.07086551088867248,0.0
1045,1045,-0.45555546614266995,-0.5,1,353.0,982.0,1.0,415.0,1,0.07744752866840511,0.0
1046,1046,0.8096920297182142,0.8,0,396.0,990.0,0.0,254.0,1,0.02703858192262142,0.0
1047,1047,0.5942878512896932,0.6,0,487.0,627.0,0.0,306.0,1,0.01428862051949763,0.0
1048,1048,-0.10379744980310579,-0.1,1,488.0,795.0,1.0,307.0,1,0.06888842551435675,0.0
1049,1049,0.4062283624477465,0.4,0,267.0,796.0,0.0,377.0,1,0.012031420943100214,0.0
1050,1050,-0.34005146585516055,-0.3,1,346.0,670.0,1.0,1214.0,1,0.062365704202173966,0.0
1051,1051,0.0657065127530676,0.1,0,416.0,809.0,0.0,945.0,1,0.08371649315132627,0.0
1052,1052,0.7561848002116343,0.8,0,267.0,670.0,0.0,403.0,1,0.07347716664127295,0.0
1053,1053,-0.5549517011199225,-0.6,1,378.0,635.0,1.0,387.0,1,0.07500872173438461,0.0
1054,1054,0.15817980996058578,0.2,0,273.0,785.0,0.0,622.0,1,0.025132056334168797,0.0
1055,1055,0.8627742317062619,0.9,0,350.0,709.0,0.0,231.0,1,0.0927617684178929,0.0
1056,1056,0.27214115750702805,0.3,0,376.0,611.0,0.0,563.0,1,0.013159698216301252,0.0
1057,1057,0.17674397442470324,0.2,0,433.0,747.0,1.0,690.0,0,0.08683024612738925,0.0
1058,1058,-0.6167104100641789,-0.6,1,300.0,875.0,1.0,465.0,1,0.026651225099823775,0.0
1059,1059,-0.7708043324064806,-0.8,1,284.0,958.0,1.0,298.0,1,0.0071838799222474605,0.0
1060,1060,-0.8401571376787793,-0.8,1,313.0,553.0,1.0,244.0,1,0.04730105703831028,0.0
1061,1061,-0.05695291054389284,-0.1,1,475.0,650.0,1.0,195.0,1,0.08563674465157023,0.0
1062,1062,-0.40974882643206545,-0.4,1,312.0,662.0,1.0,306.0,1,0.022364274881563753,0.0
1063,1063,-0.9312117689348847,-0.9,1,345.0,900.0,1.0,265.0,1,0.03907719427044414,0.0
1064,1064,0.22364993775407682,0.2,0,362.0,707.0,0.0,511.0,1,0.031705615207938596,0.0
1065,1065,0.4077746776861382,0.4,0,494.0,570.0,0.0,526.0,1,0.010525607676656203,0.0
1066,1066,-0.8233830211112674,-0.8,1,396.0,918.0,1.0,346.0,1,0.06870171764835159,0.0
1067,1067,0.8276970239598247,0.8,0,450.0,603.0,0.0,207.0,1,0.09161950319057442,0.0
1068,1068,0.49321205306365634,0.5,0,425.0,657.0,0.0,318.0,1,0.03264527928737542,0.0
1069,1069,-0.1834090804053783,-0.2,1,436.0,919.0,1.0,1395.0,1,0.04518651197068925,0.0
1070,1070,0.13731196318483874,0.1,0,419.0,561.0,0.0,1460.0,1,0.08219519346581243,0.0
1071,1071,0.9496093802554462,0.9,0,294.0,537.0,0.0,219.0,1,0.08578691072608355,0.0
1072,1072,-0.10712730782244462,-0.1,1,287.0,677.0,1.0,796.0,1,0.045957135832373264,0.0
1073,1073,-0.82400640144128,-0.8,1,428.0,848.0,1.0,474.0,1,0.08780015713742478,0.0
1074,1074,-0.49493902256454403,-0.5,1,259.0,576.0,1.0,245.0,1,0.025197636399188574,0.0
1075,1075,0.17166382068111452,0.2,0,374.0,860.0,0.0,556.0,1,0.035998460258526835,0.0
1076,1076,0.06064024899820408,0.1,0,408.0,669.0,0.0,843.0,1,0.02483890578230761,0.0
1077,1077,0.925610247980134,0.9,0,417.0,662.0,0.0,161.0,1,0.09459778659973402,0.0
1078,1078,0.6186238534014221,0.6,0,304.0,883.0,0.0,253.0,1,0.029555285418632473,0.0
1079,1079,0.4273411043820954,0.4,0,419.0,601.0,0.0,410.0,1,0.005086219387691071,0.0
1080,1080,0.11332316309380253,0.1,0,470.0,529.0,0.0,411.0,1,0.0009865838429788721,0.0
1081,1081,-0.8446856592646845,-0.8,1,324.0,576.0,1.0,480.0,1,0.005219665053138667,0.0
1082,1082,0.16963903075617215,0.2,0,321.0,987.0,0.0,802.0,1,0.008485708432087402,0.0
1083,1083,-0.9578599161431549,-1.0,1,328.0,746.0,1.0,326.0,1,0.04127026312695708,0.0
1084,1084,0.14321697636832842,0.1,0,463.0,909.0,0.0,1128.0,1,0.015341821144996038,0.0
1085,1085,0.3040947577212729,0.3,0,292.0,900.0,0.0,638.0,1,0.09697122837833873,0.0
1086,1086,0.1719394960119267,0.2,0,427.0,578.0,0.0,685.0,1,0.019004790954140573,0.0
1087,1087,-0.09127878999909722,-0.1,1,343.0,535.0,1.0,562.0,1,0.007007946434946399,0.0
1088,1088,-0.36809650937244287,-0.4,1,287.0,549.0,1.0,534.0,1,0.05800830057205959,0.0
1089,1089,0.9411457405060228,0.9,0,433.0,789.0,0.0,378.0,1,0.0005017181234220902,0.0
1090,1090,-0.2740064393401689,-0.3,1,310.0,913.0,1.0,407.0,1,0.053056500994339374,0.0
1091,1091,0.35776289845857434,0.4,0,402.0,892.0,0.0,666.0,1,0.07491096609677565,0.0
1092,1092,-0.23448263191541252,-0.2,1,464.0,810.0,1.0,846.0,1,0.02621300020085329,0.0
1093,1093,-0.1821171089472844,-0.2,1,407.0,600.0,1.0,733.0,1,0.06741548152127706,0.0
1094,1094,0.5931559201209098,0.6,0,266.0,828.0,0.0,236.0,1,0.006055942856962149,0.0
1095,1095,0.17665141655921124,0.2,0,327.0,565.0,0.0,618.0,1,0.09518147356866981,0.0
1096,1096,0.898459407623732,0.9,0,400.0,652.0,0.0,218.0,1,0.06276238245312303,0.0
1097,1097,0.08778097461457346,0.1,0,367.0,993.0,0.0,310.0,1,0.008036459685558139,0.0
1098,1098,-0.8512872164392178,-0.9,1,375.0,751.0,1.0,184.0,1,0.03876561160537874,0.0
1099,1099,0.8235340700042244,0.8,0,323.0,592.0,0.0,185.0,1,0.012869485595138353,0.0
1100,1100,-0.15662324812735018,-0.2,1,420.0,830.0,1.0,690.0,1,0.02910470077373848,0.0
1101,1101,-0.6857641092844544,-0.7,1,428.0,726.0,1.0,376.0,1,0.011393237540877212,0.0
1102,1102,-0.2578540562746032,-0.3,1,405.0,788.0,1.0,637.0,1,0.01683771782109651,0.0
1103,1103,-0.4299944127523536,-0.4,1,337.0,963.0,1.0,330.0,1,0.06907868419493188,0.0
1104,1104,-0.3914979465753088,-0.4,1,477.0,998.0,1.0,535.0,1,0.02023370533992367,0.0
1105,1105,-0.0812193139073345,-0.1,1,362.0,921.0,1.0,267.0,1,0.08500680813615236,0.0
1106,1106,-0.3386431726205641,-0.3,1,487.0,823.0,1.0,270.0,1,0.019336227119970618,0.0
1107,1107,-0.9109360772944817,-0.9,1,493.0,699.0,1.0,268.0,1,0.04916166331037067,0.0
1108,1108,-0.532033122355067,-0.5,1,389.0,802.0,1.0,279.0,1,0.0679427298517653,0.0
1109,1109,0.4527244350293722,0.5,0,346.0,790.0,0.0,434.0,1,0.09803525843192784,0.0
1110,1110,-0.8731796033916619,-0.9,1,389.0,970.0,1.0,671.0,1,0.01804753358511264,0.0
1111,1111,-0.5358401551780503,-0.5,1,360.0,744.0,1.0,336.0,1,0.09669165288004705,0.0
1112,1112,-0.6365532015419786,-0.6,1,478.0,605.0,1.0,297.0,1,0.052295844864427767,0.0
1113,1113,-0.9948093109747307,-1.0,1,303.0,777.0,1.0,500.0,1,0.05479214592104871,0.0
1114,1114,0.2972435222602374,0.3,0,270.0,771.0,0.0,639.0,1,0.026380206785411243,0.0
1115,1115,0.44434717358107134,0.4,0,379.0,943.0,0.0,328.0,1,0.09051129459552017,0.0
1116,1116,0.5397629710943546,0.5,0,420.0,854.0,0.0,436.0,1,0.09266576241725674,0.0
1117,1117,-0.9712160665630052,-1.0,1,443.0,559.0,1.0,408.0,1,0.059328649893662024,0.0
1118,1118,0.9334951714897544,0.9,0,443.0,951.0,0.0,206.0,1,0.06001127275788844,0.0
1119,1119,-0.7128674431605664,-0.7,1,426.0,832.0,1.0,252.0,1,0.040068236084329335,0.0
1120,1120,0.38286141038758537,0.4,0,490.0,846.0,0.0,464.0,1,0.041914678795745744,0.0
1121,1121,-0.6491885996167184,-0.6,1,366.0,876.0,1.0,318.0,1,0.006597146861096349,0.0
1122,1122,-0.6106028161959576,-0.6,1,263.0,697.0,1.0,490.0,1,0.04999730153331507,0.0
1123,1123,0.14001717384553047,0.1,0,440.0,547.0,0.0,973.0,1,0.01775553384548445,0.0
1124,1124,-0.19700243322319633,-0.2,1,492.0,971.0,1.0,567.0,1,0.0481859803123883,0.0
1125,1125,-0.017827559826633088,-0.0,1,400.0,708.0,0.0,402.0,0,0.08162377906481247,0.0
1126,1126,0.08779849779635152,0.1,0,311.0,924.0,0.0,565.0,1,0.011174214149918949,0.0
1127,1127,-0.6065008529998599,-0.6,1,411.0,698.0,1.0,291.0,1,0.07494094562041648,0.0
1128,1128,-0.24401451281439557,-0.2,1,363.0,702.0,1.0,625.0,1,0.05592511184116396,0.0
1129,1129,-0.2999692588102818,-0.3,1,424.0,983.0,1.0,263.0,1,0.014180822197515531,0.0
1130,1130,-0.6011272687884117,-0.6,1,419.0,852.0,1.0,429.0,1,0.0067554819196891,0.0
1131,1131,0.6442800324384461,0.6,0,470.0,776.0,0.0,214.0,1,0.001923590953003429,0.0
1132,1132,0.22222009030583023,0.2,0,316.0,858.0,0.0,1066.0,1,0.015676133766510558,0.0
1133,1133,-0.3412298073051401,-0.3,1,329.0,569.0,1.0,892.0,1,0.052450785363751265,0.0
1134,1134,0.018246460115658003,0.0,0,418.0,963.0,0.0,1159.0,1,0.025472520027014136,0.0
1135,1135,-0.6147247011776853,-0.6,1,481.0,811.0,1.0,278.0,1,0.010228982787741304,0.0
1136,1136,0.9369319643476988,0.9,0,445.0,689.0,0.0,176.0,1,0.081797501870078,0.0
1137,1137,0.690641482063987,0.7,0,470.0,869.0,0.0,491.0,1,0.013452370428824134,0.0
1138,1138,-0.23716521801912704,-0.2,1,402.0,623.0,1.0,595.0,1,0.07655893290497917,0.0
1139,1139,0.30293530124493984,0.3,0,364.0,969.0,0.0,437.0,1,0.011736469008910167,0.0
1140,1140,-0.3466252807589718,-0.3,1,288.0,615.0,1.0,347.0,1,0.018473273630563926,0.0
1141,1141,0.5555927253950939,0.6,0,282.0,618.0,0.0,420.0,1,0.0709545972647944,0.0
1142,1142,0.2148331465516069,0.2,0,450.0,626.0,0.0,884.0,1,0.049593234950246645,0.0
1143,1143,-0.8922846265424038,-0.9,1,476.0,903.0,1.0,231.0,1,0.0024026150375566213,0.0
1144,1144,-0.48228039508422227,-0.5,1,463.0,842.0,1.0,375.0,1,0.05084257475109255,0.0
1145,1145,0.8950146408142476,0.9,0,336.0,714.0,0.0,350.0,1,0.008921101313349023,0.0
1146,1146,-0.4154137138864624,-0.4,1,259.0,740.0,1.0,431.0,1,0.08245947786662329,0.0
1147,1147,-0.08825582055223213,-0.1,1,492.0,680.0,1.0,358.0,1,0.019811705993992526,0.0
1148,1148,-0.9444231038542632,-0.9,1,302.0,950.0,1.0,168.0,1,0.08172411248291128,0.0
1149,1149,-0.5727311822069885,-0.6,1,478.0,777.0,1.0,415.0,1,0.009969869655428211,0.0
1150,1150,-0.18356625011339722,-0.2,1,415.0,886.0,1.0,489.0,1,0.006409230145752065,0.0
1151,1151,0.9005284025976159,0.9,0,451.0,860.0,0.0,229.0,1,0.032297371450780966,0.0
1152,1152,-0.9811116205753108,-1.0,1,327.0,910.0,1.0,293.0,1,0.04951037290929075,0.0
1153,1153,-0.8054283264049238,-0.8,1,416.0,758.0,1.0,586.0,1,0.0033958473130538125,0.0
1154,1154,0.12499752417953913,0.1,0,436.0,585.0,1.0,489.0,0,0.05414435400177167,0.0
1155,1155,-0.46927072045532436,-0.5,1,497.0,733.0,1.0,400.0,1,0.0635105988374763,0.0
1156,1156,0.9826430820681435,1.0,0,324.0,917.0,0.0,309.0,1,0.022750283378419424,0.0
1157,1157,-0.5768353316686732,-0.6,1,464.0,817.0,1.0,399.0,1,0.09451511068206775,0.0
1158,1158,0.3703490336353692,0.4,0,276.0,794.0,0.0,550.0,1,0.03975950560633421,0.0
1159,1159,-0.6080973500263913,-0.6,1,447.0,898.0,1.0,205.0,1,0.025626245270831752,0.0
1160,1160,-0.5498252071053666,-0.5,1,436.0,550.0,1.0,374.0,1,0.05716134924092359,0.0
1161,1161,-0.9628084187027248,-1.0,1,360.0,896.0,1.0,214.0,1,0.025712087816464627,0.0
1162,1162,-0.7713390640531674,-0.8,1,403.0,583.0,1.0,234.0,1,0.01976393467014158,0.0
1163,1163,0.274786327722488,0.3,0,295.0,987.0,0.0,288.0,1,0.0534032743741275,0.0
1164,1164,0.9182963530114194,0.9,0,462.0,524.0,0.0,274.0,1,0.056918703964757435,0.0
1165,1165,-0.3332374346735647,-0.3,1,300.0,652.0,1.0,548.0,1,0.09869236895927913,0.0
1166,1166,0.6192073823830719,0.6,0,336.0,941.0,0.0,593.0,1,0.05191826088273227,0.0
1167,1167,-0.4937468667783629,-0.5,1,417.0,764.0,1.0,409.0,1,0.006945081088138062,0.0
1168,1168,0.7200525414729242,0.7,0,319.0,988.0,0.0,423.0,1,0.011616401205528759,0.0
1169,1169,0.40108513928737843,0.4,0,329.0,664.0,0.0,427.0,1,0.05182524262744925,0.0
1170,1170,-0.001156950172625848,-0.0,1,377.0,978.0,0.0,615.0,0,0.06440285122932074,0.0
1171,1171,-0.3338389859901534,-0.3,1,311.0,698.0,1.0,881.0,1,0.0543301635997179,0.0
1172,1172,0.5277514265671568,0.5,0,448.0,907.0,0.0,385.0,1,0.011002066408957824,0.0
1173,1173,0.5554660313492357,0.6,0,295.0,981.0,0.0,444.0,1,0.053870466056801763,0.0
1174,1174,-0.46698757874424124,-0.5,1,309.0,834.0,1.0,327.0,1,0.045043362737429885,0.0
1175,1175,-0.7055521530185607,-0.7,1,430.0,645.0,1.0,255.0,1,0.00209405713550519,0.0
1176,1176,-0.8318668548701917,-0.8,1,251.0,808.0,1.0,321.0,1,0.036071511657354706,0.0
1177,1177,0.4771985745466105,0.5,0,430.0,631.0,0.0,1189.0,1,0.0017000532742502906,0.0
1178,1178,0.02457278649663386,0.0,0,352.0,609.0,0.0,789.0,1,0.03305158234241556,0.0
1179,1179,0.5089500079866451,0.5,0,342.0,722.0,0.0,656.0,1,0.047726062395660775,0.0
1180,1180,0.49460475346563837,0.5,0,344.0,503.0,0.0,343.0,1,0.024155144009565144,0.0
1181,1181,0.6880058682440815,0.7,0,467.0,604.0,0.0,419.0,1,0.09151131197729545,0.0
1182,1182,-0.07908126263126625,-0.1,1,267.0,671.0,1.0,952.0,1,0.024277625457100806,0.0
1183,1183,-0.8258105232154354,-0.8,1,411.0,820.0,1.0,319.0,1,0.05099275183519674,0.0
1184,1184,-0.4062749925931879,-0.4,1,425.0,843.0,1.0,362.0,1,0.04621736891557831,0.0
1185,1185,0.8081527153907742,0.8,0,482.0,502.0,0.0,596.0,1,0.02630242107645009,0.0
1186,1186,0.000590436119084492,0.0,0,450.0,571.0,0.0,1079.0,1,0.0029045608960408757,0.0
1187,1187,0.4135376682642218,0.4,0,323.0,853.0,0.0,444.0,1,0.04842592666524137,0.0
1188,1188,0.6279549551957126,0.6,0,342.0,952.0,0.0,346.0,1,0.044282639221991604,0.0
1189,1189,-0.9318516548386488,-0.9,1,329.0,639.0,1.0,322.0,1,0.06735886981483362,0.0
1190,1190,0.47956964752589415,0.5,0,280.0,863.0,0.0,247.0,1,0.053572608666286894,0.0
1191,1191,-0.7099117773394557,-0.7,1,456.0,948.0,1.0,446.0,1,0.034450125620274955,0.0
1192,1192,-0.7068093747410888,-0.7,1,282.0,526.0,1.0,282.0,1,0.06283426653974107,0.0
1193,1193,0.22089010434745893,0.2,0,263.0,604.0,0.0,563.0,1,0.04310841151914279,0.0
1194,1194,0.32002731958512065,0.3,0,298.0,897.0,0.0,325.0,1,0.07257196354679434,0.0
1195,1195,0.1970239332614836,0.2,0,330.0,552.0,0.0,478.0,1,0.040737934375662505,0.0
1196,1196,-0.9360688442699983,-0.9,1,487.0,603.0,1.0,260.0,1,0.0008686319637384644,0.0
1197,1197,0.2988498790280063,0.3,0,444.0,514.0,0.0,392.0,1,0.06488089396141067,0.0
1198,1198,-0.923344687250595,-0.9,1,251.0,801.0,1.0,228.0,1,0.0881372640341316,0.0
1199,1199,0.7712778955401471,0.8,0,282.0,784.0,0.0,254.0,1,0.010843387981217034,0.0
1200,1200,0.4596735613125891,0.5,0,355.0,835.0,0.0,260.0,1,0.054805563652795035,0.0
1201,1201,0.49908792038605876,0.5,0,293.0,925.0,0.0,492.0,1,0.08867474667900249,0.0
1202,1202,-0.33512068275022444,-0.3,1,275.0,630.0,1.0,495.0,1,0.03052116348645464,0.0
1203,1203,-0.9456106686016259,-0.9,1,261.0,841.0,1.0,418.0,1,0.08347816644601425,0.0
1204,1204,0.7296750692365581,0.7,0,487.0,937.0,0.0,216.0,1,0.011469041745097953,0.0
