,trial,coherence,coherence_bin,green_side,correct_side,target_onset,checker_onset,decision,green_decision,decision_time,correct_decision
0,0,0.15015004047002634,0.2,1.0,1.0,392.0,815.0,1.0,1,293.0,1
1,1,0.4612854443018314,0.5,0.0,0.0,393.0,997.0,0.0,1,60.0,1
2,2,0.3803290583163924,0.4,0.0,0.0,447.0,834.0,0.0,1,179.0,1
3,3,-0.4364421445552525,-0.4,0.0,1.0,416.0,537.0,1.0,0,357.0,1
4,4,0.6341392015597661,0.6,0.0,0.0,477.0,544.0,0.0,1,179.0,1
5,5,0.14684414631745513,0.1,1.0,1.0,354.0,609.0,1.0,1,267.0,1
6,6,-0.6684902740430154,-0.7,1.0,0.0,260.0,559.0,0.0,0,211.0,1
7,7,-0.6799687486624886,-0.7,0.0,1.0,455.0,988.0,1.0,0,277.0,1
8,8,0.4930414137009983,0.5,1.0,1.0,304.0,691.0,1.0,1,175.0,1
9,9,0.4291403657576486,0.4,1.0,1.0,293.0,999.0,1.0,1,258.0,1
10,10,0.321712231571491,0.3,0.0,0.0,488.0,729.0,0.0,1,33.0,1
11,11,0.04879116458815658,0.0,1.0,1.0,306.0,820.0,1.0,1,404.0,1
12,12,0.5288395180000139,0.5,0.0,0.0,302.0,692.0,0.0,1,256.0,1
13,13,0.7204592112467977,0.7,1.0,1.0,295.0,760.0,1.0,1,175.0,1
14,14,0.7358355446612502,0.7,0.0,0.0,395.0,874.0,0.0,1,51.0,1
15,15,0.42256558095869867,0.4,1.0,1.0,450.0,897.0,1.0,1,233.0,1
16,16,0.30982580141749094,0.3,1.0,1.0,345.0,882.0,1.0,1,233.0,1
17,17,0.8359397908135723,0.8,0.0,0.0,348.0,731.0,0.0,1,181.0,1
18,18,0.07706787437893559,0.1,0.0,0.0,384.0,553.0,1.0,0,473.0,0
19,19,-0.6900527104456617,-0.7,1.0,0.0,349.0,822.0,0.0,0,119.0,1
20,20,0.25223370258295097,0.3,1.0,1.0,261.0,830.0,1.0,1,319.0,1
21,21,-0.2638212103075044,-0.3,0.0,1.0,409.0,631.0,1.0,0,460.0,1
22,22,-0.8913295682203297,-0.9,1.0,0.0,372.0,629.0,0.0,0,189.0,1
23,23,0.7878526153982551,0.8,1.0,1.0,404.0,539.0,1.0,1,197.0,1
24,24,-0.8273079454092584,-0.8,1.0,0.0,333.0,592.0,0.0,0,185.0,1
25,25,-0.18979319451009935,-0.2,1.0,0.0,489.0,777.0,0.0,0,284.0,1
26,26,-0.7433920698660875,-0.7,1.0,0.0,493.0,651.0,0.0,0,206.0,1
27,27,-0.5822675788054983,-0.6,0.0,1.0,488.0,780.0,1.0,0,212.0,1
28,28,0.1614157714434229,0.2,1.0,1.0,475.0,585.0,1.0,1,150.0,1
29,29,0.4177388017859641,0.4,0.0,0.0,487.0,779.0,0.0,1,144.0,1
30,30,-0.14754000361953779,-0.1,1.0,0.0,470.0,762.0,0.0,0,368.0,1
31,31,0.5730423704242583,0.6,0.0,0.0,457.0,680.0,0.0,1,123.0,1
32,32,-0.6013723153561447,-0.6,0.0,1.0,321.0,612.0,1.0,0,427.0,1
33,33,-0.045891530325521734,-0.0,1.0,0.0,471.0,767.0,1.0,1,212.0,0
34,34,0.6643868000769332,0.7,1.0,1.0,427.0,606.0,1.0,1,207.0,1
35,35,-0.35723446074545395,-0.4,0.0,1.0,485.0,605.0,1.0,0,320.0,1
36,36,0.6726479229901966,0.7,0.0,0.0,403.0,776.0,0.0,1,151.0,1
37,37,-0.168908550029237,-0.2,1.0,0.0,468.0,910.0,0.0,0,552.0,1
38,38,-0.2820945496644047,-0.3,0.0,1.0,283.0,975.0,1.0,0,342.0,1
39,39,-0.8800554411549453,-0.9,0.0,1.0,251.0,910.0,1.0,0,209.0,1
40,40,0.8153536667058955,0.8,0.0,0.0,272.0,530.0,0.0,1,148.0,1
41,41,-0.2610640192254291,-0.3,0.0,1.0,270.0,603.0,1.0,0,917.0,1
42,42,-0.32532176476198094,-0.3,1.0,0.0,383.0,838.0,0.0,0,229.0,1
43,43,-0.4747229102251512,-0.5,1.0,0.0,318.0,995.0,0.0,0,157.0,1
44,44,0.23076637593584304,0.2,1.0,1.0,353.0,707.0,1.0,1,330.0,1
45,45,0.310520245143003,0.3,1.0,1.0,473.0,682.0,1.0,1,155.0,1
46,46,-0.7183459532948808,-0.7,1.0,0.0,253.0,629.0,0.0,0,208.0,1
47,47,-0.7297606242929586,-0.7,0.0,1.0,490.0,913.0,1.0,0,277.0,1
48,48,0.5972165588388517,0.6,1.0,1.0,472.0,536.0,1.0,1,232.0,1
49,49,-0.7902898905279383,-0.8,0.0,1.0,408.0,633.0,1.0,0,369.0,1
50,50,0.04326554681515604,0.0,0.0,0.0,416.0,507.0,0.0,1,307.0,1
51,51,-0.5944732726429478,-0.6,1.0,0.0,316.0,904.0,0.0,0,180.0,1
52,52,0.07254378897362468,0.1,0.0,0.0,251.0,692.0,0.0,1,287.0,1
53,53,-0.10479979562083597,-0.1,1.0,0.0,421.0,899.0,0.0,0,370.0,1
54,54,0.603263232316808,0.6,0.0,0.0,326.0,889.0,0.0,1,135.0,1
55,55,-0.017243372636214116,-0.0,0.0,1.0,414.0,867.0,0.0,1,229.0,0
56,56,0.09463058509947986,0.1,1.0,1.0,370.0,598.0,1.0,1,352.0,1
57,57,0.4161901774600322,0.4,1.0,1.0,374.0,750.0,1.0,1,306.0,1
58,58,-0.24733537713397047,-0.2,0.0,1.0,448.0,588.0,1.0,0,694.0,1
59,59,-0.5829711228510703,-0.6,0.0,1.0,273.0,962.0,1.0,0,335.0,1
60,60,0.5621949054916434,0.6,1.0,1.0,284.0,838.0,1.0,1,268.0,1
61,61,-0.7143897083059314,-0.7,1.0,0.0,344.0,570.0,0.0,0,226.0,1
62,62,-0.5770706092671525,-0.6,0.0,1.0,463.0,527.0,1.0,0,310.0,1
63,63,-0.3247082293083706,-0.3,1.0,0.0,302.0,621.0,0.0,0,287.0,1
64,64,0.30647820293562333,0.3,0.0,0.0,459.0,956.0,0.0,1,95.0,1
65,65,0.10031821197257529,0.1,1.0,1.0,414.0,986.0,1.0,1,380.0,1
66,66,0.40914863648562394,0.4,1.0,1.0,346.0,504.0,1.0,1,280.0,1
67,67,0.1809907805827392,0.2,0.0,0.0,367.0,966.0,0.0,1,97.0,1
68,68,-0.8755518997165948,-0.9,0.0,1.0,256.0,526.0,1.0,0,228.0,1
69,69,0.7955630136338004,0.8,0.0,0.0,370.0,615.0,0.0,1,135.0,1
70,70,0.18786806159130032,0.2,1.0,1.0,278.0,973.0,1.0,1,359.0,1
71,71,0.05795719840472402,0.1,1.0,1.0,310.0,679.0,1.0,1,261.0,1
72,72,0.2013768621372175,0.2,1.0,1.0,439.0,504.0,1.0,1,377.0,1
73,73,-0.8471997754515345,-0.8,0.0,1.0,352.0,720.0,1.0,0,158.0,1
74,74,-0.4822247256526902,-0.5,1.0,0.0,265.0,948.0,0.0,0,207.0,1
75,75,-0.6329220334711632,-0.6,0.0,1.0,257.0,520.0,1.0,0,263.0,1
76,76,0.1848996937754247,0.2,0.0,0.0,276.0,804.0,0.0,1,350.0,1
77,77,0.6384382160064498,0.6,1.0,1.0,493.0,565.0,1.0,1,202.0,1
78,78,-0.46216373755526363,-0.5,1.0,0.0,356.0,982.0,0.0,0,232.0,1
79,79,-0.4271776471626257,-0.4,0.0,1.0,266.0,531.0,1.0,0,403.0,1
80,80,0.21831180357599222,0.2,1.0,1.0,274.0,916.0,1.0,1,320.0,1
81,81,-0.5227691390853435,-0.5,1.0,0.0,298.0,950.0,0.0,0,192.0,1
82,82,0.3973379675377383,0.4,1.0,1.0,324.0,920.0,1.0,1,206.0,1
83,83,0.5058111203879595,0.5,0.0,0.0,304.0,837.0,0.0,1,29.0,1
84,84,0.04911240483453205,0.0,1.0,1.0,450.0,762.0,1.0,1,378.0,1
85,85,0.738975764956186,0.7,0.0,0.0,428.0,731.0,0.0,1,101.0,1
86,86,-0.48493993901223803,-0.5,1.0,0.0,450.0,991.0,0.0,0,189.0,1
87,87,-0.32793983768664436,-0.3,1.0,0.0,462.0,865.0,0.0,0,233.0,1
88,88,0.7151041067898806,0.7,0.0,0.0,457.0,945.0,0.0,1,88.0,1
89,89,-0.5005231619871382,-0.5,0.0,1.0,293.0,967.0,1.0,0,350.0,1
90,90,-0.7714398920465224,-0.8,1.0,0.0,305.0,527.0,0.0,0,178.0,1
91,91,-0.6903626100591691,-0.7,0.0,1.0,427.0,791.0,1.0,0,292.0,1
92,92,0.7397421823886478,0.7,1.0,1.0,323.0,777.0,1.0,1,180.0,1
93,93,-0.8134209190878677,-0.8,1.0,0.0,486.0,986.0,0.0,0,168.0,1
94,94,-0.23351387586430505,-0.2,0.0,1.0,386.0,644.0,1.0,0,1130.0,1
95,95,-0.5887874834588154,-0.6,1.0,0.0,275.0,835.0,0.0,0,320.0,1
96,96,0.5448114008580981,0.5,1.0,1.0,462.0,840.0,1.0,1,188.0,1
97,97,0.4832020425906326,0.5,0.0,0.0,462.0,861.0,0.0,1,67.0,1
98,98,-0.1556341162266749,-0.2,0.0,1.0,311.0,525.0,1.0,0,864.0,1
99,99,0.3144860304074203,0.3,1.0,1.0,315.0,965.0,1.0,1,190.0,1
100,100,-0.03526729195383893,-0.0,0.0,1.0,429.0,937.0,0.0,1,94.0,0
101,101,-0.28566018950702643,-0.3,0.0,1.0,413.0,934.0,1.0,0,543.0,1
102,102,0.05969894258611974,0.1,1.0,1.0,458.0,818.0,1.0,1,684.0,1
103,103,0.3068730912730565,0.3,0.0,0.0,447.0,870.0,0.0,1,93.0,1
104,104,0.12353300979187687,0.1,0.0,0.0,483.0,550.0,0.0,1,217.0,1
105,105,0.19705955194079106,0.2,1.0,1.0,413.0,961.0,1.0,1,196.0,1
106,106,-0.5128541029380644,-0.5,1.0,0.0,390.0,982.0,0.0,0,198.0,1
107,107,-0.6415062897233519,-0.6,1.0,0.0,306.0,827.0,0.0,0,217.0,1
108,108,-0.2008593698808756,-0.2,0.0,1.0,288.0,536.0,1.0,0,436.0,1
109,109,-0.4181213403430903,-0.4,0.0,1.0,465.0,516.0,1.0,0,429.0,1
110,110,0.8841625450441789,0.9,0.0,0.0,469.0,657.0,0.0,1,114.0,1
111,111,0.17531565548928596,0.2,1.0,1.0,346.0,811.0,1.0,1,233.0,1
112,112,0.5684047192463145,0.6,0.0,0.0,386.0,598.0,0.0,1,156.0,1
113,113,-0.2854766105316222,-0.3,1.0,0.0,317.0,697.0,0.0,0,266.0,1
114,114,-0.6764823296201938,-0.7,1.0,0.0,447.0,917.0,0.0,0,216.0,1
115,115,0.08506512466913518,0.1,0.0,0.0,304.0,663.0,0.0,1,363.0,1
116,116,-0.6083608007758496,-0.6,1.0,0.0,388.0,861.0,0.0,0,181.0,1
117,117,0.38490151876510137,0.4,0.0,0.0,378.0,997.0,0.0,1,105.0,1
118,118,-0.7626138665951938,-0.8,1.0,0.0,306.0,956.0,0.0,0,138.0,1
119,119,-0.31706884070671126,-0.3,0.0,1.0,338.0,856.0,1.0,0,576.0,1
120,120,-0.04056396159352471,-0.0,1.0,0.0,471.0,696.0,1.0,1,373.0,0
121,121,-0.1842680503999765,-0.2,0.0,1.0,487.0,770.0,1.0,0,373.0,1
122,122,-0.6927743543252493,-0.7,0.0,1.0,302.0,622.0,1.0,0,376.0,1
123,123,-0.29226519996692,-0.3,0.0,1.0,256.0,573.0,1.0,0,541.0,1
124,124,0.8186194874810403,0.8,0.0,0.0,353.0,920.0,0.0,1,117.0,1
125,125,0.19425855173160544,0.2,1.0,1.0,259.0,802.0,1.0,1,479.0,1
126,126,0.7869119309250264,0.8,1.0,1.0,273.0,861.0,1.0,1,136.0,1
127,127,0.2981629767437547,0.3,1.0,1.0,333.0,878.0,1.0,1,159.0,1
128,128,0.2771332001476815,0.3,0.0,0.0,317.0,901.0,0.0,1,242.0,1
129,129,0.005781164098763281,0.0,0.0,0.0,498.0,780.0,0.0,1,42.0,1
130,130,-0.48477458017446146,-0.5,1.0,0.0,278.0,749.0,0.0,0,203.0,1
131,131,0.3866998125281035,0.4,1.0,1.0,321.0,586.0,1.0,1,243.0,1
132,132,0.2821761303155771,0.3,1.0,1.0,362.0,757.0,1.0,1,291.0,1
133,133,0.37068499649522735,0.4,1.0,1.0,423.0,887.0,1.0,1,170.0,1
134,134,0.7817468215309041,0.8,0.0,0.0,341.0,700.0,0.0,1,159.0,1
135,135,0.22079912720667372,0.2,0.0,0.0,447.0,892.0,0.0,1,201.0,1
136,136,-0.8260919113991579,-0.8,0.0,1.0,308.0,646.0,1.0,0,206.0,1
137,137,0.6207366187937816,0.6,0.0,0.0,301.0,948.0,0.0,1,111.0,1
138,138,-0.395047751170193,-0.4,0.0,1.0,409.0,614.0,1.0,0,357.0,1
139,139,-0.2347552405033586,-0.2,1.0,0.0,383.0,918.0,0.0,0,429.0,1
140,140,0.8502665810709397,0.9,1.0,1.0,411.0,737.0,1.0,1,292.0,1
141,141,-0.6230142492460707,-0.6,1.0,0.0,364.0,811.0,0.0,0,175.0,1
142,142,-0.3821756913298616,-0.4,0.0,1.0,299.0,689.0,1.0,0,512.0,1
143,143,0.31790563721907217,0.3,1.0,1.0,488.0,997.0,1.0,1,125.0,1
144,144,-0.6412188198625044,-0.6,1.0,0.0,251.0,969.0,0.0,0,140.0,1
145,145,0.2750107024761884,0.3,1.0,1.0,324.0,648.0,1.0,1,198.0,1
146,146,-0.6941082514108974,-0.7,0.0,1.0,464.0,529.0,1.0,0,267.0,1
147,147,-0.6913442590329686,-0.7,0.0,1.0,444.0,968.0,1.0,0,428.0,1
148,148,-0.07001932239574182,-0.1,1.0,0.0,334.0,770.0,0.0,0,966.0,1
149,149,0.06547702133076527,0.1,1.0,1.0,369.0,552.0,1.0,1,379.0,1
150,150,0.8369099707530391,0.8,0.0,0.0,362.0,707.0,0.0,1,71.0,1
151,151,0.19027718234847646,0.2,0.0,0.0,268.0,830.0,0.0,1,322.0,1
152,152,0.5542681834443403,0.6,1.0,1.0,479.0,738.0,1.0,1,203.0,1
153,153,0.45849650851169976,0.5,0.0,0.0,287.0,998.0,0.0,1,105.0,1
154,154,0.21939250799387733,0.2,1.0,1.0,331.0,557.0,1.0,1,332.0,1
155,155,0.8222814569395048,0.8,1.0,1.0,337.0,840.0,1.0,1,243.0,1
156,156,-0.6921063228759733,-0.7,0.0,1.0,490.0,936.0,1.0,0,374.0,1
157,157,-0.3391513610254262,-0.3,0.0,1.0,486.0,563.0,1.0,0,1051.0,1
158,158,0.0916398838340392,0.1,1.0,1.0,453.0,887.0,1.0,1,530.0,1
159,159,0.34224840739419304,0.3,0.0,0.0,346.0,691.0,0.0,1,63.0,1
160,160,-0.2755338589255426,-0.3,0.0,1.0,362.0,794.0,1.0,0,444.0,1
161,161,-0.5320272126789403,-0.5,0.0,1.0,349.0,747.0,1.0,0,314.0,1
162,162,-0.2990014237510782,-0.3,0.0,1.0,441.0,996.0,1.0,0,363.0,1
163,163,-0.27725386615381487,-0.3,0.0,1.0,492.0,871.0,1.0,0,667.0,1
164,164,0.6997895126255574,0.7,1.0,1.0,281.0,954.0,1.0,1,135.0,1
165,165,0.8711611108770093,0.9,0.0,0.0,401.0,684.0,0.0,1,105.0,1
166,166,-0.7135999748115506,-0.7,0.0,1.0,449.0,784.0,1.0,0,277.0,1
167,167,0.6992749772199148,0.7,1.0,1.0,394.0,576.0,1.0,1,150.0,1
168,168,-0.3582429122630423,-0.4,0.0,1.0,370.0,924.0,1.0,0,256.0,1
169,169,0.6374721749092923,0.6,1.0,1.0,348.0,566.0,1.0,1,266.0,1
170,170,0.8284080192401039,0.8,0.0,0.0,331.0,608.0,0.0,1,211.0,1
171,171,0.13044123888214043,0.1,1.0,1.0,383.0,985.0,1.0,1,252.0,1
172,172,0.16795771986136743,0.2,1.0,1.0,334.0,746.0,1.0,1,190.0,1
173,173,0.25764741683030234,0.3,1.0,1.0,421.0,893.0,1.0,1,226.0,1
174,174,0.486943754262552,0.5,1.0,1.0,307.0,596.0,1.0,1,417.0,1
175,175,0.6049010347094349,0.6,1.0,1.0,426.0,607.0,1.0,1,167.0,1
176,176,0.6757952862329347,0.7,1.0,1.0,349.0,822.0,1.0,1,189.0,1
177,177,0.5542154579540509,0.6,0.0,0.0,422.0,760.0,0.0,1,158.0,1
178,178,0.17112760863170762,0.2,0.0,0.0,431.0,961.0,0.0,1,128.0,1
179,179,-0.6702285639129483,-0.7,0.0,1.0,325.0,980.0,1.0,0,205.0,1
180,180,0.3396268919834623,0.3,0.0,0.0,377.0,763.0,0.0,1,180.0,1
181,181,0.6864918183839527,0.7,0.0,0.0,402.0,801.0,0.0,1,117.0,1
182,182,0.0028238893543955923,0.0,0.0,0.0,447.0,895.0,0.0,1,328.0,1
183,183,0.3928863780895161,0.4,0.0,0.0,388.0,627.0,0.0,1,425.0,1
184,184,-0.07272054769701308,-0.1,1.0,0.0,265.0,520.0,0.0,0,375.0,1
185,185,0.6649040986603808,0.7,0.0,0.0,299.0,905.0,0.0,1,96.0,1
186,186,0.2530925841214423,0.3,0.0,0.0,425.0,612.0,0.0,1,153.0,1
187,187,-0.41380352239209445,-0.4,0.0,1.0,300.0,723.0,1.0,0,377.0,1
188,188,-0.4124922322725581,-0.4,1.0,0.0,343.0,717.0,0.0,0,180.0,1
189,189,0.188039861413143,0.2,0.0,0.0,422.0,720.0,0.0,1,258.0,1
190,190,-0.794100768276336,-0.8,1.0,0.0,263.0,940.0,0.0,0,157.0,1
191,191,0.8585411390230392,0.9,0.0,0.0,255.0,641.0,0.0,1,84.0,1
192,192,0.47996985154829985,0.5,0.0,0.0,386.0,656.0,0.0,1,158.0,1
193,193,0.6421968449201133,0.6,1.0,1.0,479.0,616.0,1.0,1,275.0,1
194,194,0.6978312733089426,0.7,1.0,1.0,425.0,739.0,1.0,1,156.0,1
195,195,-0.6216431612367141,-0.6,0.0,1.0,373.0,840.0,1.0,0,257.0,1
196,196,0.6209111523825291,0.6,1.0,1.0,446.0,934.0,1.0,1,200.0,1
197,197,-0.8888611837751533,-0.9,0.0,1.0,490.0,683.0,1.0,0,187.0,1
198,198,-0.5375056930978739,-0.5,0.0,1.0,303.0,796.0,1.0,0,321.0,1
199,199,-0.6780629108707728,-0.7,0.0,1.0,279.0,772.0,1.0,0,229.0,1
200,200,0.7976206007445658,0.8,0.0,0.0,355.0,967.0,0.0,1,118.0,1
201,201,0.7031474659696385,0.7,1.0,1.0,337.0,753.0,1.0,1,170.0,1
202,202,0.26962219865627157,0.3,0.0,0.0,466.0,756.0,0.0,1,108.0,1
203,203,-0.31224868650624393,-0.3,0.0,1.0,336.0,976.0,1.0,0,368.0,1
204,204,0.0375044345218396,0.0,1.0,1.0,278.0,679.0,1.0,1,723.0,1
205,205,0.7009545182000728,0.7,1.0,1.0,304.0,794.0,1.0,1,192.0,1
206,206,-0.5694071257344326,-0.6,0.0,1.0,285.0,596.0,1.0,0,289.0,1
207,207,0.7275125268433552,0.7,0.0,0.0,453.0,517.0,0.0,1,150.0,1
208,208,-0.1736185619179883,-0.2,0.0,1.0,304.0,583.0,1.0,0,483.0,1
209,209,0.6954934413114983,0.7,0.0,0.0,497.0,624.0,0.0,1,219.0,1
210,210,-0.013778332290034667,-0.0,1.0,0.0,265.0,678.0,1.0,1,307.0,0
211,211,0.340933974432475,0.3,1.0,1.0,412.0,651.0,1.0,1,117.0,1
212,212,-0.4481935056314103,-0.4,0.0,1.0,334.0,609.0,1.0,0,247.0,1
213,213,0.06069648083091006,0.1,1.0,1.0,355.0,580.0,1.0,1,645.0,1
214,214,-0.899369603719858,-0.9,1.0,0.0,495.0,745.0,0.0,0,180.0,1
215,215,-0.6789285535859975,-0.7,0.0,1.0,480.0,922.0,1.0,0,438.0,1
216,216,-0.2568518988382692,-0.3,1.0,0.0,396.0,525.0,0.0,0,269.0,1
217,217,-0.5640475957239925,-0.6,0.0,1.0,454.0,557.0,1.0,0,319.0,1
218,218,-0.39971721242751335,-0.4,0.0,1.0,354.0,548.0,1.0,0,298.0,1
219,219,0.11015582938937618,0.1,1.0,1.0,434.0,772.0,1.0,1,854.0,1
220,220,0.21886742051449015,0.2,0.0,0.0,324.0,694.0,0.0,1,132.0,1
221,221,-0.7937118942921505,-0.8,0.0,1.0,259.0,516.0,1.0,0,245.0,1
222,222,-0.17765170519998297,-0.2,0.0,1.0,349.0,691.0,1.0,0,590.0,1
223,223,-0.4775397247106011,-0.5,1.0,0.0,410.0,513.0,0.0,0,217.0,1
224,224,-0.8238644839882315,-0.8,1.0,0.0,476.0,657.0,0.0,0,197.0,1
225,225,0.14780037545370617,0.1,0.0,0.0,265.0,607.0,0.0,1,238.0,1
226,226,0.12568269679353306,0.1,1.0,1.0,474.0,771.0,1.0,1,235.0,1
227,227,-0.43543803332102426,-0.4,0.0,1.0,419.0,946.0,1.0,0,245.0,1
228,228,-0.8256761678080016,-0.8,1.0,0.0,437.0,966.0,0.0,0,137.0,1
229,229,-0.7537313866345117,-0.8,0.0,1.0,498.0,723.0,1.0,0,199.0,1
230,230,0.4417272818105863,0.4,1.0,1.0,358.0,628.0,1.0,1,204.0,1
231,231,0.6606118703159808,0.7,0.0,0.0,406.0,689.0,0.0,1,75.0,1
232,232,-0.06945233182127886,-0.1,0.0,1.0,250.0,521.0,1.0,0,489.0,1
233,233,0.2964588867900543,0.3,0.0,0.0,351.0,506.0,0.0,1,323.0,1
234,234,0.24974556454810737,0.2,0.0,0.0,319.0,584.0,0.0,1,327.0,1
235,235,0.22557045114030994,0.2,0.0,0.0,306.0,699.0,0.0,1,175.0,1
236,236,0.588284729295501,0.6,0.0,0.0,405.0,782.0,0.0,1,93.0,1
237,237,0.8988253383325676,0.9,0.0,0.0,433.0,740.0,0.0,1,87.0,1
238,238,-0.1987190134197242,-0.2,0.0,1.0,488.0,887.0,1.0,0,355.0,1
239,239,-0.2159540441503609,-0.2,0.0,1.0,377.0,781.0,1.0,0,752.0,1
240,240,0.19845928264434443,0.2,1.0,1.0,378.0,761.0,1.0,1,231.0,1
241,241,-0.509752427187707,-0.5,1.0,0.0,317.0,774.0,0.0,0,229.0,1
242,242,-0.038427090622969895,-0.0,0.0,1.0,479.0,690.0,0.0,1,311.0,0
243,243,-0.7500863085687377,-0.8,1.0,0.0,461.0,549.0,0.0,0,270.0,1
244,244,-0.723717329872391,-0.7,0.0,1.0,294.0,754.0,1.0,0,192.0,1
245,245,-0.8663136768314474,-0.9,1.0,0.0,350.0,935.0,0.0,0,175.0,1
246,246,-0.07266210232521852,-0.1,0.0,1.0,304.0,603.0,0.0,1,303.0,0
247,247,-0.23350954680620428,-0.2,0.0,1.0,307.0,889.0,1.0,0,464.0,1
248,248,-0.43605821292551245,-0.4,1.0,0.0,466.0,681.0,0.0,0,213.0,1
249,249,-0.3714469663602774,-0.4,0.0,1.0,304.0,596.0,1.0,0,370.0,1
250,250,-0.18043549233984246,-0.2,1.0,0.0,276.0,520.0,0.0,0,514.0,1
251,251,-0.24732779019472506,-0.2,1.0,0.0,360.0,722.0,1.0,1,158.0,0
252,252,0.587207684398159,0.6,0.0,0.0,391.0,647.0,0.0,1,122.0,1
253,253,-0.36229554685482734,-0.4,0.0,1.0,398.0,949.0,0.0,1,-157.0,0
254,254,-0.6346260150536407,-0.6,0.0,1.0,337.0,521.0,1.0,0,222.0,1
255,255,0.8299651733305796,0.8,1.0,1.0,476.0,811.0,1.0,1,103.0,1
256,256,-0.2359890208146127,-0.2,1.0,0.0,435.0,671.0,0.0,0,334.0,1
257,257,-0.5296634632737987,-0.5,0.0,1.0,292.0,602.0,1.0,0,296.0,1
258,258,0.2701724090988592,0.3,0.0,0.0,462.0,721.0,0.0,1,107.0,1
259,259,-0.8670665809151047,-0.9,0.0,1.0,459.0,947.0,1.0,0,224.0,1
260,260,-0.7419781338240734,-0.7,1.0,0.0,398.0,582.0,0.0,0,240.0,1
261,261,0.7951091345226685,0.8,0.0,0.0,467.0,536.0,0.0,1,127.0,1
262,262,-0.12165686994439118,-0.1,0.0,1.0,494.0,786.0,0.0,1,170.0,0
263,263,-0.8237257919438986,-0.8,1.0,0.0,483.0,990.0,0.0,0,137.0,1
264,264,0.3550223672582796,0.4,0.0,0.0,421.0,761.0,0.0,1,188.0,1
265,265,0.8009911428716224,0.8,1.0,1.0,451.0,599.0,1.0,1,260.0,1
266,266,-0.15412521425236492,-0.2,1.0,0.0,279.0,619.0,0.0,0,482.0,1
267,267,0.7905717304255332,0.8,1.0,1.0,352.0,716.0,1.0,1,192.0,1
268,268,0.8989372159390959,0.9,1.0,1.0,410.0,740.0,1.0,1,170.0,1
269,269,0.3366906519391283,0.3,0.0,0.0,273.0,823.0,0.0,1,94.0,1
270,270,-0.40144664032135563,-0.4,1.0,0.0,447.0,883.0,0.0,0,190.0,1
271,271,0.8557089415691778,0.9,1.0,1.0,308.0,974.0,1.0,1,198.0,1
272,272,-0.8837049603048315,-0.9,1.0,0.0,386.0,588.0,0.0,0,206.0,1
273,273,0.20341808128693384,0.2,1.0,1.0,423.0,982.0,1.0,1,385.0,1
274,274,0.675422623873864,0.7,0.0,0.0,374.0,942.0,0.0,1,104.0,1
275,275,0.05599560773734158,0.1,1.0,1.0,294.0,902.0,1.0,1,384.0,1
276,276,0.2104799924410533,0.2,0.0,0.0,457.0,680.0,0.0,1,163.0,1
277,277,0.8182845784365308,0.8,0.0,0.0,400.0,552.0,0.0,1,178.0,1
278,278,0.30247021839800203,0.3,1.0,1.0,406.0,966.0,1.0,1,148.0,1
279,279,0.5630776042193887,0.6,1.0,1.0,329.0,907.0,1.0,1,194.0,1
280,280,-0.26515937830978076,-0.3,1.0,0.0,265.0,684.0,0.0,0,441.0,1
281,281,-0.8352260854994077,-0.8,1.0,0.0,319.0,669.0,0.0,0,212.0,1
282,282,-0.5459173877778054,-0.5,1.0,0.0,318.0,511.0,0.0,0,261.0,1
283,283,0.6922122243959373,0.7,0.0,0.0,456.0,893.0,0.0,1,171.0,1
284,284,-0.8784003411461802,-0.9,1.0,0.0,259.0,551.0,0.0,0,220.0,1
285,285,-0.21629712325442185,-0.2,0.0,1.0,281.0,730.0,1.0,0,549.0,1
286,286,-0.2196458345104041,-0.2,0.0,1.0,492.0,865.0,1.0,0,293.0,1
287,287,0.07012110350979428,0.1,1.0,1.0,377.0,776.0,1.0,1,887.0,1
288,288,-0.8227536674695248,-0.8,1.0,0.0,473.0,577.0,0.0,0,170.0,1
289,289,-0.235617842575776,-0.2,1.0,0.0,272.0,770.0,1.0,1,68.0,0
290,290,-0.632902415832081,-0.6,1.0,0.0,321.0,576.0,0.0,0,233.0,1
291,291,-0.7624175847477648,-0.8,1.0,0.0,287.0,825.0,0.0,0,188.0,1
292,292,0.6951459411966255,0.7,0.0,0.0,496.0,527.0,0.0,1,237.0,1
293,293,0.0838112883091593,0.1,0.0,0.0,290.0,524.0,0.0,1,296.0,1
294,294,0.8482772763631178,0.8,1.0,1.0,358.0,883.0,1.0,1,149.0,1
295,295,-0.31347851903018054,-0.3,1.0,0.0,450.0,820.0,0.0,0,220.0,1
296,296,0.20250770994586376,0.2,1.0,1.0,364.0,867.0,1.0,1,239.0,1
297,297,-0.03743236434008068,-0.0,1.0,0.0,354.0,670.0,0.0,0,1016.0,1
298,298,-0.13290171588096866,-0.1,1.0,0.0,454.0,847.0,0.0,0,269.0,1
299,299,0.8392259164437997,0.8,1.0,1.0,445.0,795.0,1.0,1,80.0,1
300,300,0.002096742714252864,0.0,1.0,1.0,330.0,879.0,1.0,1,681.0,1
301,301,-0.8267618833286621,-0.8,1.0,0.0,458.0,882.0,0.0,0,170.0,1
302,302,-0.48196757971822884,-0.5,1.0,0.0,482.0,590.0,0.0,0,208.0,1
303,303,-0.489367969879068,-0.5,0.0,1.0,466.0,676.0,1.0,0,278.0,1
304,304,-0.5216579581602162,-0.5,0.0,1.0,358.0,559.0,1.0,0,403.0,1
305,305,0.5000786215746559,0.5,1.0,1.0,481.0,848.0,1.0,1,171.0,1
306,306,-0.8021078374833359,-0.8,0.0,1.0,478.0,526.0,1.0,0,226.0,1
307,307,0.14155656474146883,0.1,0.0,0.0,269.0,567.0,0.0,1,284.0,1
308,308,-0.4957951704694664,-0.5,1.0,0.0,338.0,808.0,0.0,0,244.0,1
309,309,-0.8399420613895139,-0.8,1.0,0.0,460.0,942.0,0.0,0,178.0,1
310,310,0.5432881575463614,0.5,0.0,0.0,426.0,651.0,0.0,1,183.0,1
311,311,-0.32220205808452973,-0.3,1.0,0.0,298.0,839.0,0.0,0,293.0,1
312,312,0.4262082726113662,0.4,1.0,1.0,479.0,636.0,1.0,1,305.0,1
313,313,0.8328022836832826,0.8,0.0,0.0,341.0,959.0,0.0,1,30.0,1
314,314,0.6392095398763983,0.6,0.0,0.0,415.0,515.0,0.0,1,300.0,1
315,315,0.6468446876850539,0.6,1.0,1.0,416.0,570.0,1.0,1,184.0,1
316,316,0.47465472602866854,0.5,1.0,1.0,446.0,848.0,1.0,1,206.0,1
317,317,0.374611922394403,0.4,0.0,0.0,428.0,675.0,0.0,1,177.0,1
318,318,0.5911880714850292,0.6,0.0,0.0,402.0,878.0,0.0,1,110.0,1
319,319,-0.5198558126718476,-0.5,1.0,0.0,261.0,979.0,0.0,0,140.0,1
320,320,-0.07515984206759285,-0.1,1.0,0.0,365.0,833.0,0.0,0,302.0,1
321,321,-0.6265967818265841,-0.6,1.0,0.0,303.0,609.0,0.0,0,168.0,1
322,322,-0.6625307780197455,-0.7,0.0,1.0,488.0,686.0,1.0,0,236.0,1
323,323,0.07614423881249699,0.1,1.0,1.0,435.0,785.0,1.0,1,180.0,1
324,324,-0.8978637684861132,-0.9,1.0,0.0,250.0,931.0,0.0,0,129.0,1
325,325,-0.6110219540932937,-0.6,1.0,0.0,422.0,605.0,0.0,0,213.0,1
326,326,0.630929514788603,0.6,0.0,0.0,298.0,907.0,0.0,1,25.0,1
327,327,-0.8894804737865668,-0.9,1.0,0.0,490.0,777.0,0.0,0,223.0,1
328,328,-0.32456846973756126,-0.3,0.0,1.0,282.0,756.0,1.0,0,362.0,1
329,329,-0.5278958585591641,-0.5,1.0,0.0,496.0,976.0,0.0,0,178.0,1
330,330,0.32069070526572163,0.3,0.0,0.0,492.0,957.0,0.0,1,121.0,1
331,331,0.6202058808263543,0.6,0.0,0.0,455.0,972.0,0.0,1,-27.0,1
332,332,-0.782150571378819,-0.8,1.0,0.0,349.0,783.0,0.0,0,168.0,1
333,333,0.13788918876502299,0.1,1.0,1.0,403.0,946.0,1.0,1,161.0,1
334,334,0.3071313248179305,0.3,0.0,0.0,289.0,856.0,0.0,1,45.0,1
335,335,0.21643931416302464,0.2,0.0,0.0,254.0,543.0,0.0,1,243.0,1
336,336,-0.8621992636800027,-0.9,1.0,0.0,398.0,668.0,0.0,0,194.0,1
337,337,0.5795967825245892,0.6,0.0,0.0,259.0,505.0,0.0,1,436.0,1
338,338,0.3012572958430887,0.3,1.0,1.0,252.0,978.0,1.0,1,220.0,1
339,339,-0.16880638540301862,-0.2,1.0,0.0,473.0,728.0,0.0,0,689.0,1
340,340,0.7607328329903901,0.8,1.0,1.0,446.0,908.0,1.0,1,146.0,1
341,341,0.6304952953475133,0.6,0.0,0.0,295.0,656.0,0.0,1,139.0,1
342,342,0.2415579915529774,0.2,1.0,1.0,316.0,568.0,1.0,1,276.0,1
343,343,0.7287011171276571,0.7,1.0,1.0,456.0,843.0,1.0,1,171.0,1
344,344,0.48340952870608234,0.5,1.0,1.0,403.0,730.0,1.0,1,227.0,1
345,345,0.26631945323192985,0.3,1.0,1.0,465.0,962.0,1.0,1,213.0,1
346,346,-0.46064618191656265,-0.5,1.0,0.0,417.0,843.0,0.0,0,210.0,1
347,347,-0.24808302863727494,-0.2,0.0,1.0,483.0,859.0,1.0,0,508.0,1
348,348,0.6095941928832674,0.6,1.0,1.0,309.0,576.0,1.0,1,185.0,1
349,349,0.23860356371329894,0.2,0.0,0.0,367.0,971.0,0.0,1,72.0,1
350,350,0.3270015061402446,0.3,0.0,0.0,383.0,716.0,0.0,1,201.0,1
351,351,0.12792167496147966,0.1,1.0,1.0,321.0,752.0,1.0,1,137.0,1
352,352,0.7169367867728523,0.7,1.0,1.0,266.0,899.0,1.0,1,175.0,1
353,353,0.6305953883611993,0.6,0.0,0.0,262.0,885.0,0.0,1,123.0,1
354,354,-0.6580272699561014,-0.7,1.0,0.0,469.0,717.0,0.0,0,224.0,1
355,355,-0.16559602026561326,-0.2,1.0,0.0,375.0,627.0,0.0,0,318.0,1
356,356,0.8802920205730861,0.9,1.0,1.0,379.0,602.0,1.0,1,289.0,1
357,357,-0.7175257071110571,-0.7,1.0,0.0,378.0,520.0,0.0,0,172.0,1
358,358,0.2544974019145302,0.3,0.0,0.0,477.0,563.0,0.0,1,300.0,1
359,359,0.403315898782337,0.4,0.0,0.0,337.0,700.0,0.0,1,233.0,1
360,360,0.71797808913349,0.7,1.0,1.0,442.0,771.0,1.0,1,227.0,1
361,361,-0.8092607894047782,-0.8,1.0,0.0,468.0,967.0,0.0,0,175.0,1
362,362,-0.03692587745073517,-0.0,0.0,1.0,392.0,840.0,0.0,1,278.0,0
363,363,0.5773365617559515,0.6,0.0,0.0,440.0,900.0,0.0,1,60.0,1
364,364,0.8842654519490357,0.9,0.0,0.0,444.0,594.0,0.0,1,172.0,1
365,365,-0.8034223161405591,-0.8,0.0,1.0,473.0,517.0,1.0,0,240.0,1
366,366,0.0919911536502317,0.1,0.0,0.0,437.0,540.0,0.0,1,503.0,1
367,367,-0.7654972518881835,-0.8,0.0,1.0,395.0,634.0,1.0,0,221.0,1
368,368,0.01722787005713111,0.0,1.0,1.0,326.0,875.0,1.0,1,459.0,1
369,369,0.10104481145274014,0.1,1.0,1.0,425.0,560.0,1.0,1,515.0,1
370,370,-0.4438413002818524,-0.4,0.0,1.0,426.0,553.0,1.0,0,291.0,1
371,371,-0.36541079144362365,-0.4,0.0,1.0,445.0,844.0,1.0,0,431.0,1
372,372,-0.12274612185469247,-0.1,1.0,0.0,398.0,820.0,0.0,0,2322.0,1
373,373,-0.15217918571350975,-0.2,1.0,0.0,322.0,551.0,0.0,0,557.0,1
374,374,-0.7957073221557355,-0.8,1.0,0.0,489.0,668.0,0.0,0,283.0,1
375,375,-0.8266190399396762,-0.8,1.0,0.0,284.0,722.0,0.0,0,174.0,1
376,376,-0.036433755346768626,-0.0,0.0,1.0,299.0,603.0,1.0,0,538.0,1
377,377,0.10820662118750024,0.1,0.0,0.0,389.0,781.0,0.0,1,170.0,1
378,378,-0.2813134288362863,-0.3,0.0,1.0,455.0,930.0,1.0,0,505.0,1
379,379,0.05237128174540662,0.1,0.0,0.0,493.0,797.0,0.0,1,280.0,1
380,380,0.7682275387337153,0.8,1.0,1.0,259.0,690.0,1.0,1,131.0,1
381,381,0.35741330316000164,0.4,1.0,1.0,362.0,718.0,1.0,1,430.0,1
382,382,0.437538588248057,0.4,1.0,1.0,329.0,855.0,1.0,1,216.0,1
383,383,0.39976090464533975,0.4,1.0,1.0,318.0,589.0,1.0,1,363.0,1
384,384,0.7361784566514479,0.7,1.0,1.0,475.0,735.0,1.0,1,160.0,1
385,385,-0.6792270139766917,-0.7,1.0,0.0,328.0,953.0,0.0,0,159.0,1
386,386,-0.3513050724154342,-0.4,1.0,0.0,479.0,901.0,0.0,0,260.0,1
387,387,0.0758530299050646,0.1,0.0,0.0,299.0,859.0,0.0,1,242.0,1
388,388,0.4162815920195092,0.4,1.0,1.0,378.0,730.0,1.0,1,222.0,1
389,389,-0.16370856409474344,-0.2,1.0,0.0,328.0,549.0,0.0,0,513.0,1
390,390,-0.4192660591367848,-0.4,1.0,0.0,287.0,588.0,0.0,0,265.0,1
391,391,-0.7053805394316444,-0.7,0.0,1.0,328.0,606.0,1.0,0,246.0,1
392,392,0.6437827758713152,0.6,1.0,1.0,418.0,986.0,1.0,1,176.0,1
393,393,-0.8166211817367096,-0.8,1.0,0.0,364.0,754.0,0.0,0,162.0,1
394,394,0.29843443987600204,0.3,0.0,0.0,465.0,824.0,0.0,1,71.0,1
395,395,-0.10375420620452347,-0.1,0.0,1.0,254.0,748.0,1.0,0,518.0,1
396,396,-0.5293964795128512,-0.5,1.0,0.0,430.0,750.0,0.0,0,370.0,1
397,397,-0.8971397591512673,-0.9,1.0,0.0,436.0,840.0,0.0,0,174.0,1
398,398,-0.5313596701406917,-0.5,0.0,1.0,474.0,835.0,1.0,0,271.0,1
399,399,-0.20405109640099128,-0.2,1.0,0.0,309.0,516.0,0.0,0,385.0,1
400,400,-0.0076476950872302885,-0.0,0.0,1.0,326.0,639.0,0.0,1,435.0,0
401,401,0.20949105547831126,0.2,0.0,0.0,304.0,505.0,0.0,1,231.0,1
402,402,0.8932663200865668,0.9,0.0,0.0,373.0,960.0,0.0,1,57.0,1
403,403,-0.11373677980909103,-0.1,0.0,1.0,313.0,735.0,0.0,1,382.0,0
404,404,0.6676177419186266,0.7,1.0,1.0,393.0,696.0,1.0,1,171.0,1
405,405,-0.6280423714279553,-0.6,0.0,1.0,460.0,824.0,1.0,0,206.0,1
406,406,-0.4571985405826856,-0.5,1.0,0.0,391.0,867.0,0.0,0,152.0,1
407,407,-0.5778278182662641,-0.6,0.0,1.0,484.0,546.0,1.0,0,300.0,1
408,408,-0.8947501604101423,-0.9,1.0,0.0,324.0,810.0,0.0,0,126.0,1
409,409,-0.556227748226813,-0.6,1.0,0.0,265.0,754.0,0.0,0,181.0,1
410,410,-0.828260946193281,-0.8,1.0,0.0,493.0,524.0,0.0,0,163.0,1
411,411,0.5577399776443398,0.6,1.0,1.0,381.0,623.0,1.0,1,236.0,1
412,412,-0.7559851827325235,-0.8,1.0,0.0,398.0,870.0,0.0,0,142.0,1
413,413,-0.8218394100175601,-0.8,0.0,1.0,311.0,731.0,1.0,0,268.0,1
414,414,0.36759995760673114,0.4,0.0,0.0,277.0,864.0,0.0,1,119.0,1
415,415,-0.4398360238688115,-0.4,0.0,1.0,349.0,719.0,1.0,0,262.0,1
416,416,-0.3955562264814304,-0.4,1.0,0.0,421.0,840.0,0.0,0,239.0,1
417,417,0.2778833891005831,0.3,1.0,1.0,413.0,686.0,1.0,1,291.0,1
418,418,-0.06941061471824761,-0.1,0.0,1.0,356.0,969.0,1.0,0,965.0,1
419,419,-0.4412014282939488,-0.4,1.0,0.0,287.0,837.0,0.0,0,236.0,1
420,420,0.10343077639038667,0.1,1.0,1.0,423.0,513.0,1.0,1,354.0,1
421,421,0.24395164137313097,0.2,0.0,0.0,462.0,720.0,0.0,1,78.0,1
422,422,0.12020752380553679,0.1,0.0,0.0,381.0,736.0,0.0,1,73.0,1
423,423,-0.8571514180523678,-0.9,1.0,0.0,423.0,820.0,0.0,0,167.0,1
424,424,-0.5761569946306551,-0.6,0.0,1.0,481.0,822.0,1.0,0,257.0,1
425,425,-0.3828536283629177,-0.4,1.0,0.0,277.0,909.0,0.0,0,244.0,1
426,426,-0.1255328217788112,-0.1,1.0,0.0,486.0,728.0,0.0,0,416.0,1
427,427,0.681909195444342,0.7,1.0,1.0,329.0,980.0,1.0,1,141.0,1
428,428,-0.08821229560984656,-0.1,1.0,0.0,497.0,610.0,0.0,0,653.0,1
429,429,0.20164272963137508,0.2,0.0,0.0,413.0,842.0,0.0,1,95.0,1
430,430,-0.6079006808800893,-0.6,0.0,1.0,319.0,737.0,1.0,0,294.0,1
431,431,0.21780343330923013,0.2,0.0,0.0,266.0,556.0,0.0,1,258.0,1
432,432,0.6202632354904744,0.6,0.0,0.0,391.0,948.0,0.0,1,81.0,1
433,433,0.3060414402364574,0.3,0.0,0.0,265.0,688.0,0.0,1,127.0,1
434,434,-0.5801873139995772,-0.6,0.0,1.0,359.0,784.0,1.0,0,237.0,1
435,435,-0.3924356196470007,-0.4,1.0,0.0,391.0,702.0,0.0,0,267.0,1
436,436,0.6694474152695528,0.7,1.0,1.0,490.0,687.0,1.0,1,203.0,1
437,437,-0.47804481129313675,-0.5,1.0,0.0,328.0,631.0,0.0,0,211.0,1
438,438,0.4083919439939653,0.4,0.0,0.0,383.0,527.0,0.0,1,150.0,1
439,439,-0.37200306533181293,-0.4,1.0,0.0,353.0,728.0,0.0,0,209.0,1
440,440,0.05944084096450153,0.1,0.0,0.0,356.0,678.0,0.0,1,246.0,1
441,441,0.15797093409179108,0.2,1.0,1.0,380.0,721.0,1.0,1,259.0,1
442,442,-0.11237927922250968,-0.1,1.0,0.0,369.0,500.0,0.0,0,521.0,1
443,443,0.35838985004109947,0.4,1.0,1.0,490.0,615.0,1.0,1,245.0,1
444,444,0.5373322873230452,0.5,0.0,0.0,338.0,864.0,0.0,1,158.0,1
445,445,0.5612424470547207,0.6,1.0,1.0,284.0,554.0,1.0,1,272.0,1
446,446,0.8315686907481911,0.8,0.0,0.0,302.0,537.0,0.0,1,171.0,1
447,447,-0.7449802072131506,-0.7,0.0,1.0,303.0,638.0,1.0,0,259.0,1
448,448,-0.1581057754377102,-0.2,0.0,1.0,483.0,739.0,1.0,0,388.0,1
449,449,-0.3280954312293738,-0.3,0.0,1.0,312.0,914.0,1.0,0,284.0,1
450,450,0.3001715601309579,0.3,0.0,0.0,426.0,894.0,0.0,1,160.0,1
451,451,-0.5847125310325056,-0.6,1.0,0.0,417.0,600.0,0.0,0,243.0,1
452,452,-0.13092389950227123,-0.1,0.0,1.0,355.0,848.0,0.0,1,187.0,0
453,453,0.41836412564840064,0.4,0.0,0.0,285.0,585.0,0.0,1,280.0,1
454,454,-0.24491544447461966,-0.2,1.0,0.0,275.0,600.0,0.0,0,345.0,1
455,455,0.334585111617527,0.3,0.0,0.0,299.0,620.0,0.0,1,441.0,1
456,456,-0.6198022751945809,-0.6,1.0,0.0,367.0,958.0,0.0,0,175.0,1
457,457,-0.2663872833729387,-0.3,0.0,1.0,375.0,873.0,1.0,0,452.0,1
458,458,0.7622114588625762,0.8,0.0,0.0,439.0,948.0,0.0,1,203.0,1
459,459,0.48636925998269753,0.5,0.0,0.0,353.0,705.0,0.0,1,92.0,1
460,460,-0.6937109041717819,-0.7,0.0,1.0,355.0,999.0,1.0,0,176.0,1
461,461,0.48398102347544414,0.5,1.0,1.0,498.0,603.0,1.0,1,199.0,1
462,462,0.19795980440825767,0.2,1.0,1.0,381.0,774.0,1.0,1,355.0,1
463,463,0.39817201853469475,0.4,0.0,0.0,465.0,567.0,0.0,1,428.0,1
464,464,-0.17229052128766587,-0.2,0.0,1.0,433.0,961.0,0.0,1,246.0,0
465,465,-0.13108270310746528,-0.1,0.0,1.0,251.0,757.0,1.0,0,1002.0,1
466,466,-0.3072596392827033,-0.3,1.0,0.0,450.0,868.0,0.0,0,342.0,1
467,467,-0.6935915845499981,-0.7,0.0,1.0,330.0,832.0,1.0,0,228.0,1
468,468,0.6477659933218062,0.6,1.0,1.0,351.0,862.0,1.0,1,137.0,1
469,469,-0.15488106463906415,-0.2,0.0,1.0,258.0,945.0,1.0,0,667.0,1
470,470,0.0968479339040077,0.1,1.0,1.0,264.0,699.0,1.0,1,287.0,1
471,471,-0.3807714743740418,-0.4,0.0,1.0,376.0,667.0,1.0,0,337.0,1
472,472,-0.7441232529690209,-0.7,1.0,0.0,255.0,848.0,0.0,0,197.0,1
473,473,0.7619587134064457,0.8,1.0,1.0,335.0,518.0,1.0,1,247.0,1
474,474,-0.7750007475584584,-0.8,1.0,0.0,369.0,770.0,0.0,0,141.0,1
475,475,0.33909045965094287,0.3,0.0,0.0,490.0,866.0,0.0,1,164.0,1
476,476,-0.6123845031665884,-0.6,1.0,0.0,404.0,572.0,0.0,0,264.0,1
477,477,-0.4119062089484662,-0.4,0.0,1.0,295.0,570.0,1.0,0,355.0,1
478,478,-0.45364361039577844,-0.5,0.0,1.0,339.0,928.0,1.0,0,323.0,1
479,479,0.5583899180859103,0.6,0.0,0.0,465.0,751.0,0.0,1,184.0,1
480,480,0.26716440682443887,0.3,0.0,0.0,482.0,986.0,0.0,1,232.0,1
481,481,-0.23471551070088092,-0.2,0.0,1.0,341.0,682.0,1.0,0,367.0,1
482,482,-0.07334698925690886,-0.1,0.0,1.0,374.0,819.0,1.0,0,1957.0,1
483,483,0.7132737373140922,0.7,1.0,1.0,484.0,762.0,1.0,1,264.0,1
484,484,-0.1717666569308932,-0.2,1.0,0.0,411.0,705.0,0.0,0,374.0,1
485,485,0.7370150589260803,0.7,0.0,0.0,334.0,780.0,0.0,1,116.0,1
486,486,0.622921489516994,0.6,0.0,0.0,253.0,574.0,0.0,1,153.0,1
487,487,0.2509923093784602,0.3,1.0,1.0,355.0,900.0,1.0,1,365.0,1
488,488,-0.8296448217040927,-0.8,1.0,0.0,268.0,949.0,0.0,0,213.0,1
489,489,-0.37767759705317294,-0.4,0.0,1.0,483.0,868.0,1.0,0,479.0,1
490,490,-0.4315898783188264,-0.4,0.0,1.0,420.0,656.0,1.0,0,324.0,1
491,491,-0.1380889953576746,-0.1,0.0,1.0,393.0,932.0,1.0,0,335.0,1
492,492,0.018411244361156376,0.0,0.0,0.0,339.0,682.0,0.0,1,539.0,1
493,493,-0.8514563284814588,-0.9,1.0,0.0,426.0,968.0,0.0,0,176.0,1
494,494,-0.6366925006678856,-0.6,1.0,0.0,466.0,819.0,0.0,0,225.0,1
495,495,-0.7029112730897469,-0.7,1.0,0.0,323.0,544.0,0.0,0,183.0,1
496,496,-0.43968084208176866,-0.4,0.0,1.0,405.0,549.0,1.0,0,376.0,1
497,497,0.11836282191350433,0.1,1.0,1.0,378.0,530.0,1.0,1,722.0,1
498,498,-0.3533326628694571,-0.4,1.0,0.0,480.0,899.0,0.0,0,281.0,1
499,499,0.6341402606391225,0.6,1.0,1.0,494.0,989.0,1.0,1,167.0,1
500,500,0.5222078524980808,0.5,1.0,1.0,307.0,501.0,1.0,1,712.0,1
501,501,-0.3535979634298114,-0.4,1.0,0.0,476.0,987.0,0.0,0,217.0,1
502,502,0.06298650973873676,0.1,0.0,0.0,467.0,788.0,0.0,1,235.0,1
503,503,0.122003189900736,0.1,0.0,0.0,318.0,699.0,0.0,1,363.0,1
504,504,0.13755525430833637,0.1,1.0,1.0,268.0,558.0,1.0,1,354.0,1
505,505,-0.6402370003155993,-0.6,1.0,0.0,461.0,859.0,0.0,0,160.0,1
506,506,0.7396378330175074,0.7,1.0,1.0,443.0,900.0,1.0,1,157.0,1
507,507,-0.5818536417426117,-0.6,1.0,0.0,464.0,718.0,0.0,0,228.0,1
508,508,0.8813066101087225,0.9,0.0,0.0,330.0,629.0,0.0,1,941.0,1
509,509,0.515644783203491,0.5,0.0,0.0,292.0,534.0,0.0,1,324.0,1
510,510,-0.5384724232931418,-0.5,0.0,1.0,393.0,905.0,1.0,0,262.0,1
511,511,0.7570954406507749,0.8,0.0,0.0,372.0,968.0,0.0,1,230.0,1
512,512,-0.7587189936813785,-0.8,0.0,1.0,377.0,599.0,1.0,0,324.0,1
513,513,-0.20709504332999717,-0.2,0.0,1.0,293.0,787.0,1.0,0,470.0,1
514,514,-0.33904529300302355,-0.3,0.0,1.0,374.0,654.0,1.0,0,372.0,1
515,515,-0.6185275146728365,-0.6,0.0,1.0,432.0,732.0,1.0,0,236.0,1
516,516,-0.3069804852909501,-0.3,1.0,0.0,315.0,827.0,0.0,0,228.0,1
517,517,-0.45991632460857645,-0.5,1.0,0.0,307.0,641.0,0.0,0,242.0,1
518,518,-0.29224315973099746,-0.3,1.0,0.0,457.0,788.0,0.0,0,185.0,1
519,519,0.18553454756423216,0.2,1.0,1.0,315.0,872.0,1.0,1,273.0,1
520,520,-0.08059277898042472,-0.1,1.0,0.0,306.0,729.0,1.0,1,285.0,0
521,521,0.08385419821435636,0.1,0.0,0.0,488.0,713.0,0.0,1,179.0,1
522,522,-0.2572167371125338,-0.3,1.0,0.0,400.0,760.0,0.0,0,660.0,1
523,523,-0.274946561477473,-0.3,0.0,1.0,490.0,816.0,1.0,0,334.0,1
524,524,-0.8743001488547436,-0.9,1.0,0.0,324.0,911.0,0.0,0,225.0,1
525,525,0.0017366721722947842,0.0,0.0,0.0,446.0,964.0,0.0,1,1100.0,1
526,526,0.2249899461924313,0.2,1.0,1.0,448.0,693.0,1.0,1,249.0,1
527,527,-0.09171888406070616,-0.1,1.0,0.0,276.0,918.0,0.0,0,596.0,1
528,528,0.8139614466574007,0.8,0.0,0.0,258.0,879.0,0.0,1,133.0,1
529,529,-0.4527891479646428,-0.5,1.0,0.0,321.0,545.0,0.0,0,224.0,1
530,530,0.09215067423778733,0.1,1.0,1.0,355.0,598.0,1.0,1,327.0,1
531,531,-0.8375634562752671,-0.8,1.0,0.0,285.0,728.0,0.0,0,137.0,1
532,532,0.3702435223362951,0.4,1.0,1.0,316.0,624.0,1.0,1,330.0,1
533,533,0.4680358561412735,0.5,0.0,0.0,341.0,604.0,0.0,1,425.0,1
534,534,-0.049727125574443254,-0.0,1.0,0.0,339.0,984.0,0.0,0,797.0,1
535,535,-0.291637020279247,-0.3,1.0,0.0,445.0,812.0,0.0,0,193.0,1
536,536,-0.7463269455103309,-0.7,1.0,0.0,459.0,850.0,0.0,0,241.0,1
537,537,-0.8553375573588883,-0.9,0.0,1.0,370.0,858.0,1.0,0,252.0,1
538,538,-0.8689904765851229,-0.9,1.0,0.0,294.0,960.0,0.0,0,156.0,1
539,539,-0.009960072411087983,-0.0,0.0,1.0,306.0,567.0,0.0,1,737.0,0
540,540,0.5491714293652789,0.5,0.0,0.0,331.0,788.0,0.0,1,181.0,1
541,541,-0.8376258218839799,-0.8,1.0,0.0,265.0,591.0,0.0,0,144.0,1
542,542,0.6286427363133619,0.6,1.0,1.0,426.0,923.0,1.0,1,121.0,1
543,543,-0.8802605698130116,-0.9,1.0,0.0,491.0,646.0,0.0,0,173.0,1
544,544,-0.8715214915740318,-0.9,1.0,0.0,269.0,505.0,0.0,0,206.0,1
545,545,-0.5444250494612826,-0.5,1.0,0.0,472.0,943.0,0.0,0,225.0,1
546,546,-0.16211591501371225,-0.2,0.0,1.0,288.0,897.0,1.0,0,475.0,1
547,547,0.33287460501456645,0.3,0.0,0.0,427.0,567.0,0.0,1,246.0,1
548,548,0.5815306114170476,0.6,1.0,1.0,377.0,624.0,1.0,1,169.0,1
549,549,-0.08440848666894318,-0.1,0.0,1.0,286.0,512.0,1.0,0,622.0,1
550,550,-0.4294299225788459,-0.4,1.0,0.0,403.0,927.0,0.0,0,250.0,1
551,551,0.5902532493034406,0.6,0.0,0.0,439.0,994.0,0.0,1,87.0,1
552,552,0.7923704051771282,0.8,0.0,0.0,493.0,876.0,0.0,1,31.0,1
553,553,-0.05873211723629357,-0.1,0.0,1.0,308.0,708.0,0.0,1,504.0,0
554,554,-0.03921489872240924,-0.0,1.0,0.0,357.0,620.0,1.0,1,553.0,0
555,555,-0.13183024044318647,-0.1,1.0,0.0,269.0,796.0,0.0,0,855.0,1
556,556,0.49770505554210376,0.5,0.0,0.0,264.0,674.0,0.0,1,182.0,1
557,557,-0.13957864888401428,-0.1,0.0,1.0,253.0,983.0,1.0,0,444.0,1
558,558,-0.6097085214739442,-0.6,1.0,0.0,266.0,931.0,0.0,0,293.0,1
559,559,0.8030963561346031,0.8,0.0,0.0,348.0,536.0,0.0,1,216.0,1
560,560,0.7480645260417437,0.7,1.0,1.0,302.0,807.0,1.0,1,171.0,1
561,561,0.6973094052023575,0.7,1.0,1.0,322.0,874.0,1.0,1,184.0,1
562,562,-0.3599772272537204,-0.4,0.0,1.0,313.0,671.0,1.0,0,766.0,1
563,563,0.51012199427596,0.5,0.0,0.0,307.0,830.0,0.0,1,393.0,1
564,564,0.15077476219655972,0.2,1.0,1.0,292.0,847.0,1.0,1,681.0,1
565,565,-0.7816269935021048,-0.8,1.0,0.0,399.0,786.0,0.0,0,165.0,1
566,566,-0.19617602139547397,-0.2,1.0,0.0,464.0,988.0,0.0,0,258.0,1
567,567,-0.6634133038086749,-0.7,1.0,0.0,279.0,534.0,0.0,0,197.0,1
568,568,-0.08147425475480807,-0.1,0.0,1.0,331.0,993.0,0.0,1,316.0,0
569,569,0.5012026359931084,0.5,1.0,1.0,254.0,745.0,1.0,1,201.0,1
570,570,-0.8639407578078195,-0.9,1.0,0.0,341.0,847.0,0.0,0,82.0,1
571,571,-0.2029298446771035,-0.2,1.0,0.0,295.0,552.0,0.0,0,413.0,1
572,572,0.12694062798717864,0.1,1.0,1.0,344.0,749.0,1.0,1,1037.0,1
573,573,0.606881357575291,0.6,1.0,1.0,436.0,904.0,1.0,1,200.0,1
574,574,-0.21636217433173677,-0.2,0.0,1.0,479.0,698.0,1.0,0,503.0,1
575,575,-0.4905852212056805,-0.5,1.0,0.0,326.0,638.0,0.0,0,266.0,1
576,576,-0.2858086695399473,-0.3,0.0,1.0,354.0,505.0,1.0,0,561.0,1
577,577,0.5567804775427837,0.6,0.0,0.0,492.0,796.0,0.0,1,92.0,1
578,578,0.3190661172476902,0.3,1.0,1.0,447.0,521.0,1.0,1,172.0,1
579,579,-0.6759428740098823,-0.7,1.0,0.0,418.0,892.0,0.0,0,140.0,1
580,580,-0.7199056093043834,-0.7,1.0,0.0,345.0,576.0,0.0,0,149.0,1
581,581,-0.492440583218966,-0.5,1.0,0.0,293.0,606.0,0.0,0,331.0,1
582,582,0.5850873052239162,0.6,0.0,0.0,453.0,615.0,0.0,1,262.0,1
583,583,0.5130469436613495,0.5,1.0,1.0,411.0,634.0,1.0,1,285.0,1
584,584,0.06763601417649445,0.1,1.0,1.0,492.0,564.0,1.0,1,274.0,1
585,585,-0.19511770259759753,-0.2,0.0,1.0,459.0,615.0,1.0,0,256.0,1
586,586,-0.5612279324668972,-0.6,0.0,1.0,435.0,810.0,1.0,0,275.0,1
587,587,0.7150468934764455,0.7,0.0,0.0,450.0,644.0,0.0,1,106.0,1
588,588,-0.13237036140135072,-0.1,0.0,1.0,402.0,917.0,0.0,1,281.0,0
589,589,-0.26241522555500196,-0.3,1.0,0.0,433.0,622.0,0.0,0,245.0,1
590,590,0.2935002234365115,0.3,0.0,0.0,413.0,502.0,0.0,1,215.0,1
591,591,0.7719218745169331,0.8,1.0,1.0,325.0,999.0,1.0,1,206.0,1
592,592,0.4843055031076028,0.5,1.0,1.0,472.0,996.0,1.0,1,182.0,1
593,593,0.15690036418222697,0.2,1.0,1.0,351.0,777.0,1.0,1,392.0,1
594,594,-0.4121319537469963,-0.4,1.0,0.0,400.0,690.0,0.0,0,240.0,1
595,595,-0.2950492650773142,-0.3,1.0,0.0,274.0,723.0,0.0,0,303.0,1
596,596,0.30721270846304727,0.3,1.0,1.0,495.0,700.0,1.0,1,125.0,1
597,597,-0.3956578750748463,-0.4,1.0,0.0,482.0,915.0,0.0,0,393.0,1
598,598,0.4223686980859097,0.4,1.0,1.0,253.0,952.0,1.0,1,215.0,1
599,599,0.3938079708566248,0.4,1.0,1.0,385.0,895.0,1.0,1,200.0,1
600,600,0.13375152016956882,0.1,0.0,0.0,391.0,541.0,0.0,1,248.0,1
601,601,-0.3268349590772107,-0.3,1.0,0.0,293.0,674.0,0.0,0,233.0,1
602,602,0.809413835123764,0.8,1.0,1.0,443.0,839.0,1.0,1,58.0,1
603,603,-0.11039178636334701,-0.1,1.0,0.0,266.0,730.0,0.0,0,434.0,1
604,604,0.2447537643496901,0.2,0.0,0.0,428.0,610.0,0.0,1,222.0,1
605,605,0.26255285352739144,0.3,0.0,0.0,445.0,750.0,0.0,1,95.0,1
606,606,-0.8762856851263736,-0.9,1.0,0.0,459.0,574.0,0.0,0,127.0,1
607,607,-0.6668937559562265,-0.7,0.0,1.0,442.0,580.0,1.0,0,258.0,1
608,608,-0.6916177612916349,-0.7,1.0,0.0,270.0,862.0,0.0,0,168.0,1
609,609,-0.26234108693155,-0.3,0.0,1.0,419.0,882.0,1.0,0,429.0,1
610,610,-0.306927693543694,-0.3,1.0,0.0,386.0,684.0,1.0,1,130.0,0
611,611,-0.2833137598591845,-0.3,1.0,0.0,333.0,890.0,0.0,0,217.0,1
612,612,-0.49432611171571234,-0.5,1.0,0.0,340.0,701.0,0.0,0,319.0,1
613,613,0.25146179157784865,0.3,1.0,1.0,282.0,699.0,1.0,1,389.0,1
614,614,0.7710286419947531,0.8,0.0,0.0,305.0,625.0,0.0,1,190.0,1
615,615,-0.6748698436641939,-0.7,1.0,0.0,443.0,707.0,0.0,0,210.0,1
616,616,-0.673748983914661,-0.7,0.0,1.0,306.0,745.0,1.0,0,239.0,1
617,617,0.12863541304363724,0.1,0.0,0.0,452.0,640.0,0.0,1,178.0,1
618,618,0.13626098776532147,0.1,1.0,1.0,434.0,734.0,1.0,1,312.0,1
619,619,0.07038333392664964,0.1,0.0,0.0,422.0,634.0,0.0,1,184.0,1
620,620,0.3057035112720218,0.3,0.0,0.0,279.0,773.0,0.0,1,218.0,1
621,621,0.4428252434218486,0.4,0.0,0.0,385.0,840.0,0.0,1,55.0,1
622,622,0.2624675329993654,0.3,1.0,1.0,291.0,555.0,1.0,1,364.0,1
623,623,-0.7496107608363152,-0.7,1.0,0.0,298.0,609.0,0.0,0,253.0,1
624,624,-0.8403483060089215,-0.8,0.0,1.0,459.0,658.0,1.0,0,223.0,1
625,625,-0.3814168905736439,-0.4,0.0,1.0,351.0,923.0,1.0,0,626.0,1
626,626,0.8393078164409401,0.8,0.0,0.0,267.0,862.0,0.0,1,131.0,1
627,627,-0.344673225527407,-0.3,1.0,0.0,318.0,898.0,0.0,0,214.0,1
628,628,-0.0018999812815186923,-0.0,0.0,1.0,330.0,802.0,0.0,1,258.0,0
629,629,-0.17467362126163455,-0.2,0.0,1.0,297.0,908.0,1.0,0,825.0,1
630,630,0.07516265088758267,0.1,1.0,1.0,418.0,705.0,1.0,1,557.0,1
631,631,0.4986666452999341,0.5,0.0,0.0,258.0,966.0,0.0,1,56.0,1
632,632,-0.7742426457412568,-0.8,0.0,1.0,322.0,964.0,1.0,0,244.0,1
633,633,-0.73472153303937,-0.7,1.0,0.0,365.0,625.0,0.0,0,150.0,1
634,634,-0.30007113238872096,-0.3,0.0,1.0,254.0,822.0,1.0,0,424.0,1
635,635,-0.4115818858363026,-0.4,0.0,1.0,284.0,621.0,1.0,0,405.0,1
636,636,-0.8374305900187139,-0.8,1.0,0.0,494.0,604.0,0.0,0,252.0,1
637,637,0.291676023932092,0.3,1.0,1.0,289.0,669.0,1.0,1,232.0,1
638,638,-0.8819320842178433,-0.9,1.0,0.0,250.0,921.0,0.0,0,129.0,1
639,639,0.4947986574971065,0.5,1.0,1.0,341.0,998.0,1.0,1,321.0,1
640,640,0.12473544997634589,0.1,1.0,1.0,485.0,627.0,1.0,1,288.0,1
641,641,0.7556900690649325,0.8,0.0,0.0,288.0,781.0,0.0,1,31.0,1
642,642,0.20116401341108714,0.2,1.0,1.0,461.0,768.0,1.0,1,521.0,1
643,643,-0.022374724125294843,-0.0,1.0,0.0,463.0,618.0,1.0,1,159.0,0
644,644,0.8826084308558161,0.9,0.0,0.0,447.0,787.0,0.0,1,66.0,1
645,645,-0.6377083696988443,-0.6,0.0,1.0,327.0,527.0,1.0,0,446.0,1
646,646,0.3137603710617446,0.3,0.0,0.0,331.0,618.0,0.0,1,201.0,1
647,647,0.5675763985769237,0.6,0.0,0.0,375.0,721.0,0.0,1,114.0,1
648,648,0.6455128827466162,0.6,1.0,1.0,482.0,969.0,1.0,1,149.0,1
649,649,-0.111391865974095,-0.1,1.0,0.0,399.0,873.0,0.0,0,408.0,1
650,650,-0.7738089740350237,-0.8,1.0,0.0,303.0,972.0,0.0,0,155.0,1
651,651,0.294809289216314,0.3,1.0,1.0,265.0,688.0,1.0,1,207.0,1
652,652,-0.21324094155966378,-0.2,0.0,1.0,490.0,541.0,1.0,0,419.0,1
653,653,0.102485836152853,0.1,0.0,0.0,254.0,961.0,0.0,1,145.0,1
654,654,0.1962708553707423,0.2,1.0,1.0,265.0,791.0,1.0,1,264.0,1
655,655,-0.870570635147041,-0.9,0.0,1.0,274.0,904.0,1.0,0,262.0,1
656,656,-0.30892086954580655,-0.3,1.0,0.0,335.0,730.0,0.0,0,255.0,1
657,657,-0.8514561117174556,-0.9,0.0,1.0,293.0,742.0,1.0,0,205.0,1
658,658,0.4561680504651745,0.5,0.0,0.0,290.0,912.0,0.0,1,118.0,1
659,659,-0.23550095875603216,-0.2,0.0,1.0,282.0,606.0,1.0,0,632.0,1
660,660,-0.3578723742295338,-0.4,0.0,1.0,420.0,808.0,1.0,0,372.0,1
661,661,0.40903129794214743,0.4,1.0,1.0,426.0,844.0,1.0,1,210.0,1
662,662,-0.7294906154934281,-0.7,1.0,0.0,476.0,681.0,0.0,0,133.0,1
663,663,0.09232413885345125,0.1,0.0,0.0,438.0,531.0,0.0,1,181.0,1
664,664,0.6934384201037552,0.7,0.0,0.0,268.0,897.0,0.0,1,145.0,1
665,665,0.7158387896603663,0.7,0.0,0.0,403.0,575.0,0.0,1,172.0,1
666,666,0.45854648596593905,0.5,1.0,1.0,323.0,973.0,1.0,1,244.0,1
667,667,0.22323782078234966,0.2,1.0,1.0,461.0,719.0,1.0,1,210.0,1
668,668,0.23817871537089907,0.2,1.0,1.0,498.0,912.0,1.0,1,230.0,1
669,669,-0.07224932918420401,-0.1,0.0,1.0,340.0,780.0,0.0,1,640.0,0
670,670,-0.6396704290981583,-0.6,1.0,0.0,305.0,786.0,0.0,0,189.0,1
671,671,-0.5054414992659537,-0.5,1.0,0.0,291.0,518.0,0.0,0,261.0,1
672,672,0.5981223481168599,0.6,0.0,0.0,427.0,509.0,0.0,1,174.0,1
673,673,0.5477586514424743,0.5,0.0,0.0,319.0,505.0,0.0,1,336.0,1
674,674,-0.8408899317381777,-0.8,1.0,0.0,322.0,791.0,0.0,0,137.0,1
675,675,-0.87077053375701,-0.9,0.0,1.0,424.0,610.0,1.0,0,306.0,1
676,676,-0.07870743700915428,-0.1,0.0,1.0,353.0,641.0,0.0,1,446.0,0
677,677,-0.7410029015353299,-0.7,1.0,0.0,266.0,821.0,0.0,0,233.0,1
678,678,-0.620616515492552,-0.6,1.0,0.0,266.0,929.0,0.0,0,285.0,1
679,679,-0.7539533212566357,-0.8,0.0,1.0,486.0,581.0,1.0,0,343.0,1
680,680,0.8723524728592372,0.9,1.0,1.0,283.0,560.0,1.0,1,217.0,1
681,681,0.38415761733350784,0.4,1.0,1.0,298.0,583.0,1.0,1,169.0,1
682,682,-0.6558670493987656,-0.7,0.0,1.0,480.0,539.0,1.0,0,201.0,1
683,683,0.756832910110656,0.8,1.0,1.0,447.0,598.0,1.0,1,225.0,1
684,684,0.21158158509300706,0.2,0.0,0.0,268.0,699.0,0.0,1,163.0,1
685,685,0.6790811892770673,0.7,1.0,1.0,344.0,733.0,1.0,1,183.0,1
686,686,0.6318584613315746,0.6,1.0,1.0,451.0,864.0,1.0,1,155.0,1
687,687,-0.2501231137880757,-0.3,0.0,1.0,383.0,502.0,1.0,0,875.0,1
688,688,0.5310141169119112,0.5,1.0,1.0,439.0,787.0,1.0,1,144.0,1
689,689,0.8146872016680523,0.8,0.0,0.0,335.0,883.0,0.0,1,112.0,1
690,690,0.4841240721269412,0.5,1.0,1.0,297.0,833.0,1.0,1,340.0,1
691,691,-0.716984113083258,-0.7,1.0,0.0,401.0,544.0,0.0,0,235.0,1
692,692,-0.48546662150790687,-0.5,1.0,0.0,355.0,647.0,0.0,0,168.0,1
693,693,0.6976733123835749,0.7,0.0,0.0,339.0,506.0,0.0,1,165.0,1
694,694,0.5791492766703042,0.6,0.0,0.0,308.0,789.0,0.0,1,143.0,1
695,695,-0.3504461388234088,-0.4,1.0,0.0,317.0,808.0,0.0,0,265.0,1
696,696,-0.8180743156775966,-0.8,0.0,1.0,446.0,694.0,1.0,0,220.0,1
697,697,-0.02426321629586614,-0.0,1.0,0.0,430.0,819.0,1.0,1,3751.0,0
698,698,0.21460736041936512,0.2,0.0,0.0,338.0,669.0,0.0,1,253.0,1
699,699,-0.6576390757363504,-0.7,0.0,1.0,367.0,985.0,1.0,0,208.0,1
700,700,0.4182336129261256,0.4,0.0,0.0,261.0,600.0,0.0,1,149.0,1
701,701,-0.762978110769621,-0.8,0.0,1.0,267.0,510.0,1.0,0,273.0,1
702,702,0.7038191080426771,0.7,0.0,0.0,258.0,596.0,0.0,1,306.0,1
703,703,-0.6338720280386498,-0.6,0.0,1.0,287.0,807.0,1.0,0,256.0,1
704,704,-0.7781455977396724,-0.8,1.0,0.0,379.0,557.0,0.0,0,194.0,1
705,705,-0.4256943439732627,-0.4,0.0,1.0,455.0,546.0,1.0,0,579.0,1
706,706,0.613179950468015,0.6,1.0,1.0,275.0,565.0,1.0,1,230.0,1
707,707,-0.7732180779465747,-0.8,0.0,1.0,431.0,922.0,1.0,0,277.0,1
708,708,-0.16169850040938005,-0.2,1.0,0.0,395.0,825.0,1.0,1,240.0,0
709,709,-0.04825664298751142,-0.0,1.0,0.0,313.0,608.0,1.0,1,199.0,0
710,710,-0.0009087681003762116,-0.0,0.0,1.0,275.0,789.0,0.0,1,576.0,0
711,711,-0.6460825393281487,-0.6,0.0,1.0,332.0,970.0,1.0,0,288.0,1
712,712,-0.22999045871259138,-0.2,0.0,1.0,345.0,845.0,0.0,1,-90.0,0
713,713,-0.2781885506164513,-0.3,0.0,1.0,456.0,610.0,1.0,0,454.0,1
714,714,-0.8720679406313747,-0.9,0.0,1.0,460.0,688.0,1.0,0,222.0,1
715,715,0.584792553109997,0.6,0.0,0.0,390.0,623.0,0.0,1,207.0,1
716,716,0.08773238934621264,0.1,1.0,1.0,261.0,570.0,1.0,1,229.0,1
717,717,-0.6339423688207808,-0.6,1.0,0.0,282.0,826.0,0.0,0,182.0,1
718,718,-0.17798801479119308,-0.2,0.0,1.0,441.0,907.0,0.0,1,-198.0,0
719,719,0.3083368890317527,0.3,0.0,0.0,478.0,906.0,0.0,1,166.0,1
720,720,-0.17667013214499372,-0.2,1.0,0.0,345.0,973.0,0.0,0,352.0,1
721,721,0.4306060148759593,0.4,1.0,1.0,467.0,846.0,1.0,1,227.0,1
722,722,0.34889778347076017,0.3,0.0,0.0,377.0,722.0,0.0,1,261.0,1
723,723,0.8802118544940535,0.9,1.0,1.0,365.0,702.0,1.0,1,183.0,1
724,724,0.5841104457135079,0.6,0.0,0.0,424.0,512.0,0.0,1,284.0,1
725,725,0.41256941208233855,0.4,1.0,1.0,325.0,706.0,1.0,1,219.0,1
726,726,0.693873360241494,0.7,1.0,1.0,277.0,706.0,1.0,1,187.0,1
727,727,0.49016384380441147,0.5,1.0,1.0,438.0,978.0,1.0,1,164.0,1
728,728,0.7605901305014505,0.8,0.0,0.0,438.0,976.0,0.0,1,106.0,1
729,729,0.44179360466577944,0.4,0.0,0.0,403.0,822.0,0.0,1,135.0,1
730,730,-0.05125237053716403,-0.1,1.0,0.0,417.0,992.0,0.0,0,391.0,1
731,731,-0.5371851463014942,-0.5,1.0,0.0,342.0,606.0,0.0,0,152.0,1
732,732,0.7825439451038817,0.8,1.0,1.0,385.0,952.0,1.0,1,163.0,1
733,733,-0.11634678555184996,-0.1,1.0,0.0,269.0,583.0,0.0,0,418.0,1
734,734,-0.06671704279207646,-0.1,0.0,1.0,326.0,670.0,0.0,1,444.0,0
735,735,0.19023405872913568,0.2,1.0,1.0,404.0,886.0,1.0,1,380.0,1
736,736,-0.12776917691606748,-0.1,0.0,1.0,366.0,913.0,1.0,0,1261.0,1
737,737,-0.004829325732131573,-0.0,0.0,1.0,439.0,915.0,0.0,1,236.0,0
738,738,0.8807347837508269,0.9,0.0,0.0,420.0,877.0,0.0,1,63.0,1
739,739,0.3723774716716971,0.4,1.0,1.0,461.0,580.0,1.0,1,209.0,1
740,740,-0.46728029624808914,-0.5,1.0,0.0,366.0,667.0,0.0,0,157.0,1
741,741,-0.8935524978999329,-0.9,0.0,1.0,481.0,598.0,1.0,0,251.0,1
742,742,-0.2242417817036434,-0.2,0.0,1.0,411.0,641.0,1.0,0,358.0,1
743,743,-0.5303480576359405,-0.5,1.0,0.0,451.0,675.0,0.0,0,274.0,1
744,744,0.2885310872268393,0.3,0.0,0.0,299.0,708.0,0.0,1,163.0,1
745,745,-0.6368903791514732,-0.6,1.0,0.0,466.0,768.0,0.0,0,156.0,1
746,746,-0.36947487329245277,-0.4,1.0,0.0,309.0,873.0,0.0,0,258.0,1
747,747,-0.04508108644737918,-0.0,0.0,1.0,391.0,763.0,0.0,1,376.0,0
748,748,-0.6705571128124125,-0.7,1.0,0.0,327.0,558.0,0.0,0,235.0,1
749,749,-0.39693520802698634,-0.4,1.0,0.0,447.0,769.0,0.0,0,194.0,1
750,750,0.6523033056208897,0.7,0.0,0.0,323.0,544.0,0.0,1,133.0,1
751,751,-0.2477711432227987,-0.2,0.0,1.0,408.0,626.0,1.0,0,296.0,1
752,752,0.027750123646618663,0.0,0.0,0.0,469.0,797.0,1.0,0,464.0,0
753,753,-0.7111044624455001,-0.7,1.0,0.0,459.0,662.0,0.0,0,339.0,1
754,754,0.7737115408319276,0.8,0.0,0.0,436.0,918.0,0.0,1,46.0,1
755,755,0.8853022726288192,0.9,0.0,0.0,288.0,815.0,0.0,1,87.0,1
756,756,-0.4791994358284134,-0.5,0.0,1.0,336.0,952.0,1.0,0,262.0,1
757,757,-0.6278190386841466,-0.6,1.0,0.0,291.0,595.0,0.0,0,164.0,1
758,758,0.3912293661023417,0.4,1.0,1.0,472.0,884.0,1.0,1,174.0,1
759,759,0.4930966612755058,0.5,0.0,0.0,410.0,826.0,0.0,1,114.0,1
760,760,-0.0030815449575900544,-0.0,1.0,0.0,455.0,756.0,1.0,1,1189.0,0
761,761,0.42491863212504655,0.4,0.0,0.0,380.0,949.0,0.0,1,201.0,1
762,762,-0.6525868379989869,-0.7,0.0,1.0,370.0,909.0,1.0,0,191.0,1
763,763,0.1554584640017488,0.2,1.0,1.0,499.0,672.0,1.0,1,389.0,1
764,764,-0.4800136068405632,-0.5,1.0,0.0,366.0,654.0,0.0,0,300.0,1
765,765,-0.8368301243026774,-0.8,0.0,1.0,443.0,885.0,1.0,0,192.0,1
766,766,0.3376288612134791,0.3,0.0,0.0,279.0,604.0,0.0,1,177.0,1
767,767,-0.45647695762340584,-0.5,1.0,0.0,394.0,704.0,0.0,0,212.0,1
768,768,-0.6750670051774545,-0.7,1.0,0.0,294.0,792.0,0.0,0,184.0,1
769,769,0.7765504108403533,0.8,0.0,0.0,454.0,968.0,0.0,1,88.0,1
770,770,-0.6074130277140841,-0.6,0.0,1.0,359.0,977.0,1.0,0,234.0,1
771,771,0.7419515622732012,0.7,0.0,0.0,316.0,791.0,0.0,1,73.0,1
772,772,-0.49116285251356523,-0.5,1.0,0.0,253.0,801.0,0.0,0,196.0,1
773,773,0.7406218835038493,0.7,0.0,0.0,277.0,523.0,0.0,1,550.0,1
774,774,-0.3353885117753882,-0.3,0.0,1.0,349.0,867.0,1.0,0,424.0,1
775,775,0.365809283592743,0.4,1.0,1.0,420.0,993.0,1.0,1,177.0,1
776,776,0.8118520487358009,0.8,1.0,1.0,389.0,745.0,1.0,1,156.0,1
777,777,-0.7717308089145032,-0.8,1.0,0.0,312.0,818.0,0.0,0,170.0,1
778,778,-0.10355565188368698,-0.1,0.0,1.0,496.0,763.0,1.0,0,541.0,1
779,779,0.10899165421594559,0.1,1.0,1.0,334.0,773.0,1.0,1,223.0,1
780,780,-0.352170471467831,-0.4,0.0,1.0,396.0,702.0,1.0,0,472.0,1
781,781,-0.080188069053298,-0.1,0.0,1.0,410.0,776.0,0.0,1,3814.0,0
782,782,0.3336447114128268,0.3,1.0,1.0,437.0,874.0,1.0,1,159.0,1
783,783,0.6128944992589674,0.6,0.0,0.0,434.0,984.0,0.0,1,92.0,1
784,784,0.47138675685426745,0.5,1.0,1.0,351.0,559.0,1.0,1,490.0,1
785,785,-0.670960234972588,-0.7,1.0,0.0,256.0,623.0,0.0,0,171.0,1
786,786,-0.22596387127896744,-0.2,1.0,0.0,277.0,849.0,0.0,0,214.0,1
787,787,-0.6796944285361186,-0.7,0.0,1.0,324.0,635.0,1.0,0,191.0,1
788,788,0.48570067127586924,0.5,0.0,0.0,493.0,839.0,0.0,1,118.0,1
789,789,-0.34966966165667623,-0.3,0.0,1.0,303.0,663.0,1.0,0,434.0,1
790,790,-0.7675123462715602,-0.8,0.0,1.0,409.0,761.0,1.0,0,240.0,1
791,791,0.08511656008134871,0.1,1.0,1.0,330.0,763.0,1.0,1,247.0,1
792,792,0.8481446393420152,0.8,1.0,1.0,364.0,781.0,1.0,1,175.0,1
793,793,0.561147195883248,0.6,0.0,0.0,345.0,914.0,0.0,1,101.0,1
794,794,-0.3211529869012425,-0.3,0.0,1.0,441.0,882.0,0.0,1,37.0,0
795,795,0.5862968833839949,0.6,1.0,1.0,412.0,679.0,1.0,1,209.0,1
796,796,0.055875833872550795,0.1,0.0,0.0,454.0,845.0,0.0,1,101.0,1
797,797,0.12467207466635133,0.1,1.0,1.0,282.0,824.0,1.0,1,424.0,1
798,798,-0.3490455411375458,-0.3,0.0,1.0,460.0,558.0,1.0,0,522.0,1
799,799,-0.6235861560231329,-0.6,1.0,0.0,276.0,693.0,0.0,0,211.0,1
800,800,-0.4226257540663481,-0.4,0.0,1.0,493.0,560.0,1.0,0,277.0,1
801,801,-0.16844499265016288,-0.2,0.0,1.0,472.0,864.0,1.0,0,374.0,1
802,802,-0.4378520859227391,-0.4,0.0,1.0,384.0,636.0,1.0,0,390.0,1
803,803,-0.04319922707458801,-0.0,1.0,0.0,384.0,619.0,1.0,1,507.0,0
804,804,0.08382738066012485,0.1,0.0,0.0,387.0,822.0,0.0,1,91.0,1
805,805,0.6637145605486573,0.7,1.0,1.0,452.0,595.0,1.0,1,133.0,1
806,806,-0.03091045002938464,-0.0,1.0,0.0,483.0,536.0,0.0,0,761.0,1
807,807,0.1463746077545699,0.1,0.0,0.0,425.0,589.0,0.0,1,96.0,1
808,808,0.6294760953953006,0.6,1.0,1.0,281.0,560.0,1.0,1,239.0,1
809,809,-0.44586046792174683,-0.4,0.0,1.0,493.0,667.0,1.0,0,240.0,1
810,810,-0.5762647067197624,-0.6,1.0,0.0,415.0,611.0,0.0,0,184.0,1
811,811,-0.05057879007599608,-0.1,1.0,0.0,372.0,541.0,1.0,1,327.0,0
812,812,-0.49487794210251845,-0.5,0.0,1.0,409.0,605.0,1.0,0,276.0,1
813,813,0.8920968240801049,0.9,1.0,1.0,464.0,592.0,1.0,1,174.0,1
814,814,-0.11568884820783887,-0.1,1.0,0.0,385.0,988.0,0.0,0,437.0,1
815,815,0.27474513366657927,0.3,0.0,0.0,283.0,728.0,0.0,1,99.0,1
816,816,-0.7515983495060878,-0.8,0.0,1.0,425.0,999.0,1.0,0,356.0,1
817,817,-0.617537514079074,-0.6,1.0,0.0,499.0,757.0,0.0,0,214.0,1
818,818,-0.6751981884332096,-0.7,1.0,0.0,448.0,807.0,0.0,0,235.0,1
819,819,0.7329356415854945,0.7,1.0,1.0,468.0,702.0,1.0,1,110.0,1
820,820,0.7061000299431633,0.7,0.0,0.0,276.0,526.0,0.0,1,158.0,1
821,821,-0.15212645382660572,-0.2,1.0,0.0,402.0,647.0,0.0,0,441.0,1
822,822,0.5966235546931947,0.6,1.0,1.0,335.0,627.0,1.0,1,238.0,1
823,823,-0.8260136364486569,-0.8,1.0,0.0,255.0,519.0,0.0,0,186.0,1
824,824,0.507454606644998,0.5,0.0,0.0,494.0,789.0,0.0,1,107.0,1
825,825,0.07021282407773854,0.1,1.0,1.0,353.0,956.0,1.0,1,281.0,1
826,826,-0.8176089059169002,-0.8,1.0,0.0,452.0,901.0,0.0,0,177.0,1
827,827,-0.700029136363415,-0.7,0.0,1.0,455.0,637.0,1.0,0,258.0,1
828,828,-0.477631179788301,-0.5,1.0,0.0,360.0,890.0,0.0,0,330.0,1
829,829,-0.872216684922013,-0.9,1.0,0.0,307.0,713.0,0.0,0,240.0,1
830,830,-0.21026039278892272,-0.2,0.0,1.0,457.0,554.0,1.0,0,789.0,1
831,831,0.8412151541599026,0.8,1.0,1.0,256.0,740.0,1.0,1,194.0,1
832,832,-0.08712447854504646,-0.1,0.0,1.0,440.0,546.0,1.0,0,454.0,1
833,833,-0.6742377037953109,-0.7,1.0,0.0,484.0,974.0,0.0,0,162.0,1
834,834,-0.8010160636081431,-0.8,1.0,0.0,354.0,835.0,0.0,0,191.0,1
835,835,-0.5921159228817559,-0.6,1.0,0.0,462.0,505.0,0.0,0,223.0,1
836,836,-0.1336634812303078,-0.1,1.0,0.0,453.0,697.0,0.0,0,600.0,1
837,837,-0.20327842332659551,-0.2,0.0,1.0,353.0,889.0,1.0,0,738.0,1
838,838,-0.5197599076395714,-0.5,1.0,0.0,353.0,598.0,0.0,0,249.0,1
839,839,-0.6246927206956815,-0.6,0.0,1.0,414.0,538.0,1.0,0,278.0,1
840,840,0.752870478388085,0.8,1.0,1.0,327.0,638.0,1.0,1,205.0,1
841,841,0.07190030475431919,0.1,1.0,1.0,483.0,611.0,1.0,1,476.0,1
842,842,0.1311697640928805,0.1,1.0,1.0,292.0,587.0,1.0,1,291.0,1
843,843,0.7498374027456841,0.7,1.0,1.0,262.0,569.0,1.0,1,319.0,1
844,844,-0.015382267454723375,-0.0,1.0,0.0,367.0,886.0,1.0,1,537.0,0
845,845,0.4074921883145076,0.4,0.0,0.0,390.0,572.0,0.0,1,208.0,1
846,846,-0.6992903713819107,-0.7,0.0,1.0,268.0,594.0,1.0,0,258.0,1
847,847,0.574792989617727,0.6,1.0,1.0,421.0,622.0,1.0,1,217.0,1
848,848,-0.506376885015448,-0.5,0.0,1.0,476.0,820.0,1.0,0,334.0,1
849,849,-0.6900951613843277,-0.7,1.0,0.0,367.0,941.0,0.0,0,122.0,1
850,850,0.1773629375014295,0.2,1.0,1.0,294.0,612.0,1.0,1,974.0,1
851,851,-0.08976280555565286,-0.1,1.0,0.0,492.0,763.0,0.0,0,275.0,1
852,852,0.8606329421543811,0.9,0.0,0.0,350.0,805.0,0.0,1,85.0,1
853,853,-0.6426145841073199,-0.6,1.0,0.0,329.0,770.0,0.0,0,191.0,1
854,854,0.6446662524751295,0.6,0.0,0.0,266.0,578.0,0.0,1,186.0,1
855,855,0.38001559146593034,0.4,0.0,0.0,487.0,935.0,0.0,1,118.0,1
856,856,-0.6397824186807417,-0.6,0.0,1.0,369.0,661.0,1.0,0,290.0,1
857,857,0.5895749409538386,0.6,0.0,0.0,355.0,641.0,0.0,1,344.0,1
858,858,-0.6991496560463856,-0.7,1.0,0.0,449.0,528.0,0.0,0,353.0,1
859,859,-0.22606182891343984,-0.2,1.0,0.0,282.0,965.0,0.0,0,273.0,1
860,860,0.35477694072175747,0.4,0.0,0.0,323.0,887.0,0.0,1,210.0,1
861,861,0.8563927445147933,0.9,1.0,1.0,372.0,827.0,1.0,1,221.0,1
862,862,-0.14913543669290485,-0.1,0.0,1.0,314.0,627.0,1.0,0,339.0,1
863,863,-0.8449635184601569,-0.8,0.0,1.0,432.0,667.0,1.0,0,211.0,1
864,864,-0.34667558888531225,-0.3,1.0,0.0,391.0,668.0,0.0,0,291.0,1
865,865,0.5538990971943037,0.6,0.0,0.0,282.0,854.0,0.0,1,94.0,1
866,866,-0.5167043698996143,-0.5,0.0,1.0,421.0,516.0,1.0,0,403.0,1
867,867,0.4747783827591906,0.5,0.0,0.0,318.0,573.0,0.0,1,169.0,1
868,868,0.8957432433775127,0.9,1.0,1.0,270.0,941.0,1.0,1,219.0,1
869,869,-0.42506285397944504,-0.4,0.0,1.0,392.0,566.0,1.0,0,362.0,1
870,870,-0.11990814409097572,-0.1,1.0,0.0,311.0,640.0,0.0,0,449.0,1
871,871,-0.18740135373036648,-0.2,0.0,1.0,498.0,821.0,1.0,0,1311.0,1
872,872,-0.40379211535968745,-0.4,0.0,1.0,322.0,681.0,1.0,0,327.0,1
873,873,0.3495294385506841,0.3,0.0,0.0,273.0,857.0,0.0,1,200.0,1
874,874,0.6871816624074362,0.7,1.0,1.0,346.0,528.0,1.0,1,266.0,1
875,875,-0.8730187601970902,-0.9,0.0,1.0,495.0,792.0,1.0,0,173.0,1
876,876,0.6487402857369401,0.6,1.0,1.0,491.0,622.0,1.0,1,247.0,1
877,877,-0.8543239581362863,-0.9,0.0,1.0,339.0,573.0,1.0,0,208.0,1
878,878,-0.24464914881748334,-0.2,0.0,1.0,440.0,917.0,0.0,1,-57.0,0
879,879,-0.4088989441778798,-0.4,1.0,0.0,372.0,910.0,0.0,0,238.0,1
880,880,-0.1840258983700659,-0.2,0.0,1.0,494.0,705.0,1.0,0,561.0,1
881,881,-0.6924308447753471,-0.7,0.0,1.0,434.0,970.0,1.0,0,296.0,1
882,882,-0.8219892733559576,-0.8,0.0,1.0,491.0,765.0,1.0,0,224.0,1
883,883,0.05596554408981258,0.1,1.0,1.0,372.0,916.0,1.0,1,3712.0,1
884,884,0.03517051829039519,0.0,0.0,0.0,490.0,699.0,0.0,1,321.0,1
885,885,-0.8813387307211762,-0.9,0.0,1.0,449.0,748.0,1.0,0,233.0,1
886,886,-0.12705373382277274,-0.1,0.0,1.0,489.0,688.0,1.0,0,2733.0,1
887,887,0.8948662422112744,0.9,1.0,1.0,293.0,982.0,1.0,1,155.0,1
888,888,-0.8286558369548211,-0.8,1.0,0.0,349.0,502.0,0.0,0,269.0,1
889,889,0.5269271481585874,0.5,0.0,0.0,383.0,520.0,0.0,1,147.0,1
890,890,-0.37158218433392176,-0.4,1.0,0.0,413.0,687.0,0.0,0,220.0,1
891,891,0.5558725151275316,0.6,1.0,1.0,473.0,648.0,1.0,1,199.0,1
892,892,0.029777579297604162,0.0,0.0,0.0,470.0,843.0,0.0,1,227.0,1
893,893,-0.7060881471208791,-0.7,1.0,0.0,468.0,886.0,0.0,0,156.0,1
894,894,0.2831257117219844,0.3,0.0,0.0,498.0,640.0,0.0,1,302.0,1
895,895,0.294060277957248,0.3,0.0,0.0,308.0,793.0,0.0,1,79.0,1
896,896,0.2183784240415242,0.2,1.0,1.0,460.0,691.0,1.0,1,209.0,1
897,897,0.2234749958957366,0.2,1.0,1.0,475.0,580.0,1.0,1,185.0,1
898,898,0.19859519090890687,0.2,1.0,1.0,338.0,646.0,1.0,1,376.0,1
899,899,0.29913644095075476,0.3,1.0,1.0,269.0,783.0,1.0,1,598.0,1
900,900,-0.8948497307211546,-0.9,0.0,1.0,435.0,936.0,1.0,0,219.0,1
901,901,0.1908051743422291,0.2,1.0,1.0,320.0,556.0,1.0,1,324.0,1
902,902,-0.10229475197807647,-0.1,1.0,0.0,494.0,887.0,0.0,0,319.0,1
903,903,0.26232848970691947,0.3,0.0,0.0,439.0,556.0,0.0,1,135.0,1
904,904,0.6243855293441504,0.6,0.0,0.0,313.0,660.0,0.0,1,77.0,1
905,905,0.1000025794928604,0.1,0.0,0.0,302.0,641.0,1.0,0,387.0,0
906,906,0.7740600313714269,0.8,1.0,1.0,427.0,675.0,1.0,1,128.0,1
907,907,-0.3312711625478312,-0.3,1.0,0.0,432.0,982.0,0.0,0,196.0,1
908,908,0.14461926416841864,0.1,0.0,0.0,353.0,991.0,0.0,1,216.0,1
909,909,0.7263933671514916,0.7,1.0,1.0,462.0,787.0,1.0,1,151.0,1
910,910,0.7187183406624958,0.7,0.0,0.0,475.0,640.0,0.0,1,155.0,1
911,911,0.5827779744857918,0.6,1.0,1.0,339.0,771.0,1.0,1,290.0,1
912,912,0.3015841947616039,0.3,0.0,0.0,480.0,800.0,0.0,1,80.0,1
913,913,-0.5827105219973109,-0.6,1.0,0.0,373.0,540.0,0.0,0,167.0,1
914,914,-0.5400339017262248,-0.5,1.0,0.0,266.0,757.0,0.0,0,157.0,1
915,915,0.1595093939163411,0.2,1.0,1.0,432.0,801.0,1.0,1,277.0,1
916,916,0.04804884118081321,0.0,1.0,1.0,498.0,921.0,1.0,1,1221.0,1
917,917,-0.23915795295550113,-0.2,0.0,1.0,358.0,514.0,1.0,0,818.0,1
918,918,0.2075202398638435,0.2,0.0,0.0,299.0,765.0,0.0,1,-74.0,1
919,919,-0.5434654572285031,-0.5,1.0,0.0,453.0,927.0,0.0,0,160.0,1
920,920,0.8933983462037961,0.9,0.0,0.0,386.0,662.0,0.0,1,102.0,1
921,921,0.06046456329447847,0.1,1.0,1.0,430.0,765.0,1.0,1,325.0,1
922,922,-0.843264082453828,-0.8,0.0,1.0,268.0,943.0,1.0,0,209.0,1
923,923,-0.5880536555895592,-0.6,1.0,0.0,320.0,814.0,0.0,0,186.0,1
924,924,-0.24856290113537882,-0.2,1.0,0.0,451.0,911.0,0.0,0,208.0,1
925,925,0.3338554802284327,0.3,0.0,0.0,269.0,969.0,0.0,1,112.0,1
926,926,0.5635600385084988,0.6,0.0,0.0,347.0,734.0,0.0,1,219.0,1
927,927,-0.28399111442222624,-0.3,1.0,0.0,372.0,903.0,0.0,0,315.0,1
928,928,0.47867807993381783,0.5,1.0,1.0,492.0,842.0,1.0,1,136.0,1
929,929,-0.6496170802291084,-0.6,0.0,1.0,363.0,697.0,1.0,0,270.0,1
930,930,-0.4629462001171368,-0.5,1.0,0.0,338.0,746.0,0.0,0,216.0,1
931,931,0.7040926142255753,0.7,1.0,1.0,352.0,685.0,1.0,1,143.0,1
932,932,0.6466903551160704,0.6,0.0,0.0,311.0,956.0,0.0,1,83.0,1
933,933,0.6314956399023469,0.6,0.0,0.0,472.0,906.0,0.0,1,132.0,1
934,934,0.8623122944882992,0.9,1.0,1.0,328.0,844.0,1.0,1,188.0,1
935,935,0.7052235043052345,0.7,0.0,0.0,437.0,774.0,0.0,1,49.0,1
936,936,0.12807993402976636,0.1,1.0,1.0,380.0,552.0,1.0,1,228.0,1
937,937,-0.6701159380576471,-0.7,0.0,1.0,318.0,802.0,1.0,0,220.0,1
938,938,0.3684504728721777,0.4,1.0,1.0,268.0,846.0,1.0,1,196.0,1
939,939,-0.35064091031882905,-0.4,1.0,0.0,313.0,933.0,0.0,0,234.0,1
940,940,-0.16557098755842203,-0.2,0.0,1.0,431.0,535.0,1.0,0,544.0,1
941,941,0.27565230465907986,0.3,1.0,1.0,354.0,740.0,1.0,1,196.0,1
942,942,-0.7555442695056624,-0.8,1.0,0.0,379.0,759.0,0.0,0,132.0,1
943,943,-0.3247061728561037,-0.3,0.0,1.0,314.0,604.0,1.0,0,412.0,1
944,944,0.7583986543434676,0.8,1.0,1.0,340.0,673.0,1.0,1,167.0,1
945,945,-0.0864361391746129,-0.1,0.0,1.0,356.0,909.0,0.0,1,1065.0,0
946,946,0.41354485088429194,0.4,0.0,0.0,267.0,680.0,0.0,1,143.0,1
947,947,-0.1437654085797091,-0.1,0.0,1.0,326.0,626.0,1.0,0,348.0,1
948,948,0.3276299777130761,0.3,1.0,1.0,287.0,974.0,1.0,1,439.0,1
949,949,0.24403127186186813,0.2,1.0,1.0,328.0,652.0,1.0,1,210.0,1
950,950,-0.6083911525456922,-0.6,1.0,0.0,454.0,696.0,0.0,0,170.0,1
951,951,0.23389037531295365,0.2,0.0,0.0,382.0,665.0,0.0,1,213.0,1
952,952,-0.7748994606849346,-0.8,0.0,1.0,276.0,571.0,1.0,0,253.0,1
953,953,-0.38781719113721314,-0.4,0.0,1.0,334.0,852.0,1.0,0,384.0,1
954,954,0.15938477766074965,0.2,1.0,1.0,290.0,613.0,1.0,1,217.0,1
955,955,0.7678812812983121,0.8,1.0,1.0,499.0,546.0,1.0,1,255.0,1
956,956,-0.7903548302121169,-0.8,1.0,0.0,290.0,654.0,0.0,0,216.0,1
957,957,-0.5418917347989478,-0.5,1.0,0.0,359.0,613.0,0.0,0,208.0,1
958,958,-0.11639989650120164,-0.1,1.0,0.0,496.0,611.0,0.0,0,473.0,1
959,959,0.45030121253299915,0.5,1.0,1.0,453.0,608.0,1.0,1,229.0,1
960,960,-0.1990668658341529,-0.2,0.0,1.0,463.0,534.0,1.0,0,503.0,1
961,961,0.30568497558955043,0.3,1.0,1.0,454.0,527.0,1.0,1,189.0,1
962,962,-0.646032150431296,-0.6,0.0,1.0,337.0,872.0,0.0,1,31.0,0
963,963,0.6661304073885544,0.7,1.0,1.0,452.0,566.0,1.0,1,172.0,1
964,964,-0.2830707985504627,-0.3,0.0,1.0,482.0,789.0,1.0,0,579.0,1
965,965,-0.20107061849205787,-0.2,0.0,1.0,264.0,734.0,1.0,0,462.0,1
966,966,0.775426677935123,0.8,0.0,0.0,254.0,831.0,0.0,1,125.0,1
967,967,0.8398711181001332,0.8,0.0,0.0,447.0,952.0,0.0,1,61.0,1
968,968,0.4772297798567854,0.5,1.0,1.0,447.0,981.0,1.0,1,282.0,1
969,969,0.8124931702288541,0.8,1.0,1.0,278.0,715.0,1.0,1,117.0,1
970,970,-0.6519979719299187,-0.7,0.0,1.0,367.0,644.0,1.0,0,299.0,1
971,971,-0.20060482293188608,-0.2,0.0,1.0,466.0,873.0,1.0,0,3151.0,1
972,972,-0.6936497639986289,-0.7,0.0,1.0,420.0,965.0,1.0,0,165.0,1
973,973,0.7601155666201512,0.8,0.0,0.0,499.0,980.0,0.0,1,181.0,1
974,974,-0.1087675039257816,-0.1,0.0,1.0,342.0,748.0,1.0,0,550.0,1
975,975,0.5322516633699265,0.5,0.0,0.0,352.0,647.0,0.0,1,121.0,1
976,976,-0.49995812938128403,-0.5,1.0,0.0,285.0,627.0,0.0,0,258.0,1
977,977,-0.14232737494113812,-0.1,1.0,0.0,408.0,578.0,0.0,0,404.0,1
978,978,0.1498233630626199,0.1,1.0,1.0,367.0,582.0,1.0,1,291.0,1
979,979,-0.7545652006397379,-0.8,1.0,0.0,311.0,621.0,0.0,0,268.0,1
980,980,-0.27892913067534875,-0.3,0.0,1.0,393.0,580.0,1.0,0,537.0,1
981,981,0.8621695093982708,0.9,0.0,0.0,440.0,674.0,0.0,1,76.0,1
982,982,0.06444664433508185,0.1,0.0,0.0,417.0,761.0,0.0,1,92.0,1
983,983,-0.5819183717290762,-0.6,1.0,0.0,287.0,919.0,0.0,0,274.0,1
984,984,0.47843107009256725,0.5,1.0,1.0,327.0,892.0,1.0,1,211.0,1
985,985,0.6194706829628002,0.6,0.0,0.0,297.0,641.0,0.0,1,122.0,1
986,986,-0.8413590514115296,-0.8,1.0,0.0,251.0,713.0,0.0,0,136.0,1
987,987,-0.35780006978508816,-0.4,0.0,1.0,400.0,984.0,0.0,1,-124.0,0
988,988,0.15534495826685013,0.2,0.0,0.0,376.0,667.0,0.0,1,237.0,1
989,989,0.4538231844949855,0.5,0.0,0.0,449.0,805.0,0.0,1,86.0,1
990,990,0.697441428317669,0.7,1.0,1.0,382.0,593.0,1.0,1,315.0,1
991,991,0.8812900167329246,0.9,1.0,1.0,293.0,999.0,1.0,1,218.0,1
992,992,0.11087469164388641,0.1,0.0,0.0,495.0,609.0,0.0,1,176.0,1
993,993,0.011484351865434506,0.0,0.0,0.0,403.0,773.0,0.0,1,584.0,1
994,994,-0.06546769158796495,-0.1,0.0,1.0,489.0,658.0,0.0,1,123.0,0
995,995,-0.5692769092907402,-0.6,0.0,1.0,420.0,884.0,1.0,0,306.0,1
996,996,0.8896637826580892,0.9,1.0,1.0,422.0,996.0,1.0,1,122.0,1
997,997,0.7876911048959613,0.8,0.0,0.0,373.0,853.0,0.0,1,104.0,1
998,998,0.3048719872780191,0.3,0.0,0.0,379.0,627.0,0.0,1,104.0,1
999,999,-0.8214613577864114,-0.8,0.0,1.0,366.0,720.0,1.0,0,274.0,1
1000,1000,-0.7399497289669295,-0.7,0.0,1.0,259.0,537.0,1.0,0,224.0,1
1001,1001,-0.34182363973825614,-0.3,0.0,1.0,388.0,749.0,1.0,0,233.0,1
1002,1002,-0.5627490051801609,-0.6,0.0,1.0,296.0,504.0,1.0,0,520.0,1
1003,1003,0.8930210425652257,0.9,1.0,1.0,288.0,621.0,1.0,1,171.0,1
1004,1004,-0.5099354301854182,-0.5,1.0,0.0,417.0,922.0,0.0,0,161.0,1
1005,1005,-0.18350283729244088,-0.2,1.0,0.0,414.0,601.0,0.0,0,445.0,1
1006,1006,-0.7400072115002383,-0.7,0.0,1.0,373.0,692.0,1.0,0,295.0,1
1007,1007,0.5348662880052403,0.5,1.0,1.0,364.0,609.0,1.0,1,137.0,1
1008,1008,0.75374696198135,0.8,0.0,0.0,425.0,533.0,0.0,1,532.0,1
1009,1009,0.37641938177065326,0.4,0.0,0.0,488.0,851.0,0.0,1,81.0,1
1010,1010,-0.7357479793201375,-0.7,1.0,0.0,258.0,541.0,0.0,0,211.0,1
1011,1011,0.056014471412384026,0.1,0.0,0.0,403.0,997.0,0.0,1,110.0,1
1012,1012,-0.13232673996261013,-0.1,1.0,0.0,359.0,717.0,0.0,0,454.0,1
1013,1013,0.38641218022764134,0.4,0.0,0.0,301.0,722.0,0.0,1,307.0,1
1014,1014,0.1866215671523438,0.2,0.0,0.0,435.0,956.0,0.0,1,129.0,1
1015,1015,0.6897328353397026,0.7,0.0,0.0,344.0,970.0,0.0,1,-134.0,1
1016,1016,0.5423773795841774,0.5,0.0,0.0,404.0,639.0,0.0,1,147.0,1
1017,1017,-0.7312769579883847,-0.7,0.0,1.0,442.0,955.0,0.0,1,-137.0,0
1018,1018,-0.12209405070617674,-0.1,1.0,0.0,360.0,784.0,0.0,0,386.0,1
1019,1019,0.0023778504223939123,0.0,1.0,1.0,442.0,690.0,0.0,0,648.0,0
1020,1020,0.20123668112588022,0.2,0.0,0.0,268.0,616.0,0.0,1,266.0,1
1021,1021,-0.7723391870463221,-0.8,1.0,0.0,488.0,848.0,0.0,0,134.0,1
1022,1022,0.39484567703646734,0.4,0.0,0.0,303.0,621.0,0.0,1,146.0,1
1023,1023,-0.14114313693190506,-0.1,1.0,0.0,447.0,834.0,0.0,0,289.0,1
1024,1024,0.3709963816342968,0.4,0.0,0.0,349.0,999.0,0.0,1,82.0,1
1025,1025,-0.27610001996126565,-0.3,0.0,1.0,257.0,500.0,1.0,0,803.0,1
1026,1026,-0.4382306359476466,-0.4,1.0,0.0,374.0,583.0,0.0,0,363.0,1
1027,1027,-0.8604758425450224,-0.9,1.0,0.0,427.0,708.0,0.0,0,135.0,1
1028,1028,0.7516885744597107,0.8,0.0,0.0,489.0,668.0,0.0,1,113.0,1
1029,1029,0.1278068109395608,0.1,0.0,0.0,355.0,649.0,0.0,1,576.0,1
1030,1030,-0.4578773287746384,-0.5,0.0,1.0,452.0,536.0,1.0,0,552.0,1
1031,1031,-0.13895092357070937,-0.1,0.0,1.0,415.0,879.0,1.0,0,1046.0,1
1032,1032,0.8313471669819309,0.8,0.0,0.0,341.0,657.0,0.0,1,132.0,1
1033,1033,-0.7694588909417072,-0.8,0.0,1.0,467.0,646.0,1.0,0,157.0,1
1034,1034,0.22980659817119042,0.2,1.0,1.0,358.0,839.0,1.0,1,263.0,1
1035,1035,-0.40713570404228744,-0.4,0.0,1.0,383.0,986.0,1.0,0,281.0,1
1036,1036,-0.3655475497750248,-0.4,1.0,0.0,427.0,736.0,0.0,0,247.0,1
1037,1037,0.8534710330529788,0.9,0.0,0.0,499.0,601.0,0.0,1,90.0,1
1038,1038,0.30976512917734567,0.3,1.0,1.0,490.0,800.0,1.0,1,300.0,1
1039,1039,-0.332367802333291,-0.3,0.0,1.0,258.0,676.0,1.0,0,396.0,1
1040,1040,0.368787010118672,0.4,1.0,1.0,457.0,648.0,1.0,1,285.0,1
1041,1041,0.37671587961392217,0.4,0.0,0.0,283.0,849.0,0.0,1,198.0,1
1042,1042,0.5134884337911295,0.5,0.0,0.0,355.0,937.0,0.0,1,108.0,1
1043,1043,-0.7618629461856561,-0.8,0.0,1.0,435.0,697.0,1.0,0,238.0,1
1044,1044,-0.4510875435520685,-0.5,0.0,1.0,377.0,705.0,1.0,0,308.0,1
1045,1045,-0.8385937614831791,-0.8,1.0,0.0,425.0,822.0,0.0,0,153.0,1
1046,1046,-0.30658613510488664,-0.3,1.0,0.0,375.0,563.0,0.0,0,242.0,1
1047,1047,0.7064822498602071,0.7,1.0,1.0,390.0,675.0,1.0,1,115.0,1
1048,1048,0.11233422250238723,0.1,1.0,1.0,428.0,640.0,1.0,1,702.0,1
1049,1049,0.018554445381398388,0.0,1.0,1.0,361.0,738.0,1.0,1,3901.0,1
1050,1050,0.7875110834191251,0.8,0.0,0.0,372.0,895.0,0.0,1,163.0,1
1051,1051,-0.025147649609440714,-0.0,1.0,0.0,252.0,859.0,1.0,1,409.0,0
1052,1052,-0.7424413008357651,-0.7,0.0,1.0,393.0,798.0,1.0,0,249.0,1
1053,1053,-0.1651419645953206,-0.2,0.0,1.0,313.0,898.0,1.0,0,729.0,1
1054,1054,-0.7529466014053217,-0.8,1.0,0.0,353.0,773.0,0.0,0,274.0,1
1055,1055,0.30428872346423874,0.3,0.0,0.0,441.0,791.0,0.0,1,218.0,1
1056,1056,-0.1566171337798572,-0.2,0.0,1.0,375.0,611.0,1.0,0,544.0,1
1057,1057,-0.7195857101831178,-0.7,1.0,0.0,485.0,631.0,0.0,0,194.0,1
1058,1058,-0.8355045543490366,-0.8,0.0,1.0,325.0,537.0,1.0,0,198.0,1
1059,1059,-0.4480081077116847,-0.4,0.0,1.0,342.0,769.0,1.0,0,269.0,1
1060,1060,0.865009317532509,0.9,0.0,0.0,377.0,959.0,0.0,1,94.0,1
1061,1061,-0.15961935784897963,-0.2,1.0,0.0,395.0,726.0,0.0,0,379.0,1
1062,1062,0.8703993589376696,0.9,1.0,1.0,426.0,790.0,1.0,1,204.0,1
1063,1063,0.6451785988380249,0.6,1.0,1.0,263.0,751.0,1.0,1,206.0,1
1064,1064,0.7027111149151056,0.7,0.0,0.0,456.0,795.0,0.0,1,139.0,1
1065,1065,-0.11733288983911205,-0.1,0.0,1.0,381.0,976.0,0.0,1,-157.0,0
1066,1066,-0.46959423023335345,-0.5,0.0,1.0,361.0,818.0,1.0,0,431.0,1
1067,1067,-0.2610277132200516,-0.3,0.0,1.0,360.0,872.0,1.0,0,3768.0,1
1068,1068,0.7497739812865561,0.7,0.0,0.0,401.0,884.0,0.0,1,115.0,1
1069,1069,-0.08893054826863511,-0.1,0.0,1.0,346.0,860.0,1.0,0,344.0,1
1070,1070,0.7488373114211123,0.7,0.0,0.0,328.0,694.0,0.0,1,108.0,1
1071,1071,0.5925556914303322,0.6,1.0,1.0,296.0,865.0,1.0,1,189.0,1
1072,1072,-0.3264452044924233,-0.3,1.0,0.0,301.0,980.0,0.0,0,329.0,1
1073,1073,0.22186494730009299,0.2,1.0,1.0,485.0,521.0,1.0,1,484.0,1
1074,1074,0.7734969579605478,0.8,1.0,1.0,473.0,837.0,1.0,1,230.0,1
1075,1075,-0.6984367347294328,-0.7,0.0,1.0,439.0,607.0,1.0,0,214.0,1
1076,1076,-0.33201861659533405,-0.3,0.0,1.0,466.0,708.0,1.0,0,366.0,1
1077,1077,0.041683422622200705,0.0,0.0,0.0,441.0,866.0,0.0,1,173.0,1
1078,1078,0.6832880002751563,0.7,1.0,1.0,466.0,977.0,1.0,1,227.0,1
1079,1079,0.3056581242904305,0.3,0.0,0.0,307.0,851.0,0.0,1,32.0,1
1080,1080,-0.17678338142736671,-0.2,0.0,1.0,424.0,632.0,1.0,0,344.0,1
1081,1081,-0.3693177034996423,-0.4,0.0,1.0,349.0,858.0,1.0,0,313.0,1
1082,1082,0.8851673560333425,0.9,1.0,1.0,269.0,958.0,1.0,1,193.0,1
1083,1083,-0.750553915450864,-0.8,0.0,1.0,490.0,663.0,1.0,0,207.0,1
1084,1084,0.19726592127617615,0.2,1.0,1.0,372.0,727.0,1.0,1,301.0,1
1085,1085,0.6531673657856415,0.7,1.0,1.0,495.0,703.0,1.0,1,252.0,1
1086,1086,0.8352034933883913,0.8,1.0,1.0,493.0,944.0,1.0,1,173.0,1
1087,1087,-0.45334522004976396,-0.5,1.0,0.0,491.0,580.0,0.0,0,189.0,1
1088,1088,0.5597178571795899,0.6,0.0,0.0,263.0,609.0,0.0,1,148.0,1
1089,1089,0.2905932251442872,0.3,1.0,1.0,393.0,517.0,1.0,1,150.0,1
1090,1090,-0.7304178293622952,-0.7,1.0,0.0,269.0,698.0,0.0,0,203.0,1
1091,1091,-0.6097639590258879,-0.6,1.0,0.0,394.0,738.0,0.0,0,178.0,1
1092,1092,0.08250651828000821,0.1,1.0,1.0,371.0,953.0,1.0,1,146.0,1
1093,1093,-0.7679384294364273,-0.8,1.0,0.0,379.0,507.0,0.0,0,174.0,1
1094,1094,0.880908786286687,0.9,0.0,0.0,322.0,886.0,0.0,1,72.0,1
1095,1095,-0.5172665342152625,-0.5,0.0,1.0,342.0,942.0,1.0,0,216.0,1
1096,1096,0.19286195871687417,0.2,1.0,1.0,251.0,903.0,1.0,1,176.0,1
1097,1097,-0.3127359044328105,-0.3,0.0,1.0,358.0,773.0,1.0,0,669.0,1
1098,1098,0.7755395081568707,0.8,1.0,1.0,376.0,992.0,1.0,1,142.0,1
1099,1099,0.4915618770371354,0.5,1.0,1.0,410.0,759.0,1.0,1,201.0,1
1100,1100,-0.656392415000388,-0.7,1.0,0.0,318.0,682.0,0.0,0,190.0,1
1101,1101,0.45573491959802526,0.5,0.0,0.0,432.0,759.0,0.0,1,179.0,1
1102,1102,0.027389296416649445,0.0,1.0,1.0,296.0,582.0,1.0,1,4122.0,1
1103,1103,0.8781356709577365,0.9,0.0,0.0,292.0,861.0,0.0,1,127.0,1
1104,1104,0.46141675138766136,0.5,1.0,1.0,428.0,522.0,1.0,1,310.0,1
1105,1105,0.7344213860254923,0.7,1.0,1.0,337.0,575.0,1.0,1,258.0,1
1106,1106,0.5018678920822258,0.5,0.0,0.0,466.0,584.0,0.0,1,120.0,1
1107,1107,0.47622073440218127,0.5,1.0,1.0,368.0,921.0,1.0,1,261.0,1
1108,1108,0.4280420732017417,0.4,1.0,1.0,270.0,698.0,1.0,1,202.0,1
1109,1109,-0.5820062541303584,-0.6,1.0,0.0,277.0,769.0,0.0,0,254.0,1
1110,1110,-0.2818355778124775,-0.3,1.0,0.0,457.0,851.0,0.0,0,262.0,1
1111,1111,-0.33165449865343843,-0.3,0.0,1.0,291.0,946.0,1.0,0,273.0,1
1112,1112,-0.24252834130236534,-0.2,1.0,0.0,356.0,543.0,0.0,0,301.0,1
1113,1113,-0.342919673522606,-0.3,0.0,1.0,290.0,756.0,1.0,0,524.0,1
1114,1114,-0.498084225945219,-0.5,1.0,0.0,276.0,540.0,0.0,0,234.0,1
1115,1115,0.01714640534147438,0.0,0.0,0.0,436.0,563.0,0.0,1,321.0,1
1116,1116,0.8380324550338173,0.8,0.0,0.0,286.0,904.0,0.0,1,100.0,1
1117,1117,-0.7169861614507012,-0.7,0.0,1.0,318.0,982.0,1.0,0,200.0,1
1118,1118,-0.7624993286469993,-0.8,0.0,1.0,432.0,982.0,1.0,0,266.0,1
1119,1119,0.23174072998471906,0.2,1.0,1.0,381.0,533.0,1.0,1,406.0,1
1120,1120,0.5387882062690775,0.5,0.0,0.0,401.0,646.0,0.0,1,183.0,1
1121,1121,0.7110947555482136,0.7,0.0,0.0,478.0,960.0,0.0,1,72.0,1
1122,1122,-0.5751282178567199,-0.6,1.0,0.0,315.0,858.0,0.0,0,247.0,1
1123,1123,-0.022399217450871145,-0.0,1.0,0.0,259.0,634.0,1.0,1,457.0,0
1124,1124,-0.7648738908981572,-0.8,1.0,0.0,459.0,725.0,0.0,0,146.0,1
1125,1125,-0.2867572418141906,-0.3,1.0,0.0,397.0,686.0,0.0,0,297.0,1
1126,1126,-0.16927481458068638,-0.2,1.0,0.0,421.0,678.0,0.0,0,301.0,1
1127,1127,0.18753324578435382,0.2,0.0,0.0,340.0,651.0,0.0,1,259.0,1
1128,1128,-0.14985495813382876,-0.1,0.0,1.0,427.0,881.0,0.0,1,3692.0,0
1129,1129,0.683071307035238,0.7,0.0,0.0,398.0,707.0,0.0,1,645.0,1
1130,1130,-0.5610646704005016,-0.6,1.0,0.0,331.0,559.0,0.0,0,210.0,1
1131,1131,0.1973987148869779,0.2,0.0,0.0,425.0,638.0,0.0,1,157.0,1
1132,1132,0.4665836074473112,0.5,1.0,1.0,266.0,632.0,1.0,1,532.0,1
1133,1133,-0.5984319021883808,-0.6,1.0,0.0,327.0,742.0,0.0,0,221.0,1
1134,1134,-0.5828868986466453,-0.6,1.0,0.0,409.0,958.0,0.0,0,143.0,1
1135,1135,-0.2237038062533122,-0.2,1.0,0.0,333.0,668.0,0.0,0,329.0,1
1136,1136,0.24715499819821296,0.2,1.0,1.0,411.0,676.0,1.0,1,263.0,1
1137,1137,-0.7167504120116172,-0.7,1.0,0.0,396.0,862.0,0.0,0,212.0,1
1138,1138,-0.34998485617544783,-0.3,1.0,0.0,348.0,575.0,0.0,0,237.0,1
1139,1139,-0.7292474199526797,-0.7,0.0,1.0,397.0,747.0,1.0,0,216.0,1
1140,1140,-0.08622029374643791,-0.1,1.0,0.0,484.0,575.0,0.0,0,511.0,1
1141,1141,0.08755254687046199,0.1,0.0,0.0,332.0,702.0,1.0,0,486.0,0
1142,1142,-0.0006406293017643394,-0.0,1.0,0.0,409.0,651.0,1.0,1,510.0,0
1143,1143,-0.25692575088030667,-0.3,1.0,0.0,331.0,978.0,0.0,0,151.0,1
1144,1144,0.2719456507421275,0.3,0.0,0.0,376.0,553.0,0.0,1,511.0,1
1145,1145,-0.4512459562661075,-0.5,1.0,0.0,477.0,614.0,0.0,0,209.0,1
1146,1146,0.3584342367365593,0.4,0.0,0.0,298.0,536.0,0.0,1,286.0,1
1147,1147,-0.8434254792848174,-0.8,1.0,0.0,446.0,890.0,0.0,0,104.0,1
1148,1148,-0.15569865331406252,-0.2,0.0,1.0,445.0,927.0,0.0,1,168.0,0
1149,1149,-0.08303300514074141,-0.1,0.0,1.0,445.0,702.0,1.0,0,443.0,1
1150,1150,0.0755298427173885,0.1,1.0,1.0,430.0,963.0,1.0,1,407.0,1
1151,1151,-0.512526969161711,-0.5,0.0,1.0,357.0,511.0,1.0,0,372.0,1
1152,1152,-0.23300963322472734,-0.2,1.0,0.0,421.0,638.0,0.0,0,201.0,1
1153,1153,0.7741856923272191,0.8,0.0,0.0,283.0,749.0,0.0,1,138.0,1
1154,1154,-0.7830849853770856,-0.8,0.0,1.0,438.0,779.0,1.0,0,183.0,1
1155,1155,-0.6313006115884188,-0.6,0.0,1.0,263.0,635.0,1.0,0,282.0,1
1156,1156,0.37688866514474795,0.4,1.0,1.0,497.0,777.0,1.0,1,86.0,1
1157,1157,0.7929441443858863,0.8,0.0,0.0,431.0,578.0,0.0,1,91.0,1
1158,1158,-0.16086821852014854,-0.2,1.0,0.0,318.0,575.0,0.0,0,247.0,1
1159,1159,0.5962867789099008,0.6,1.0,1.0,360.0,695.0,1.0,1,295.0,1
1160,1160,-0.4306548322971923,-0.4,1.0,0.0,405.0,797.0,0.0,0,178.0,1
1161,1161,-0.8901041731262113,-0.9,0.0,1.0,267.0,500.0,1.0,0,183.0,1
1162,1162,-0.011961258818740661,-0.0,0.0,1.0,312.0,766.0,0.0,1,172.0,0
1163,1163,-0.4877823437741157,-0.5,0.0,1.0,393.0,995.0,1.0,0,312.0,1
1164,1164,0.3396583603153064,0.3,0.0,0.0,313.0,506.0,0.0,1,141.0,1
1165,1165,0.1105087660660854,0.1,0.0,0.0,333.0,796.0,0.0,1,441.0,1
1166,1166,-0.0337187504738895,-0.0,0.0,1.0,352.0,992.0,0.0,1,406.0,0
1167,1167,-0.8098316979755574,-0.8,1.0,0.0,376.0,719.0,0.0,0,135.0,1
1168,1168,0.13210022767578178,0.1,0.0,0.0,388.0,565.0,0.0,1,317.0,1
1169,1169,-0.4129833475662637,-0.4,0.0,1.0,285.0,699.0,1.0,0,266.0,1
1170,1170,0.7256468460023476,0.7,0.0,0.0,299.0,830.0,0.0,1,81.0,1
1171,1171,0.7841839962093372,0.8,0.0,0.0,329.0,687.0,0.0,1,94.0,1
1172,1172,0.18785614725343291,0.2,0.0,0.0,426.0,644.0,0.0,1,130.0,1
1173,1173,-0.16397627245066337,-0.2,1.0,0.0,391.0,787.0,0.0,0,462.0,1
1174,1174,-0.2814000072888331,-0.3,0.0,1.0,479.0,551.0,1.0,0,510.0,1
1175,1175,-0.7057436728647982,-0.7,0.0,1.0,300.0,796.0,1.0,0,254.0,1
1176,1176,-0.379643297150696,-0.4,0.0,1.0,259.0,753.0,1.0,0,438.0,1
1177,1177,-0.6721443697701992,-0.7,0.0,1.0,487.0,828.0,1.0,0,265.0,1
1178,1178,0.005930295685355302,0.0,0.0,0.0,343.0,998.0,0.0,1,249.0,1
1179,1179,-0.26288814815953887,-0.3,1.0,0.0,462.0,787.0,0.0,0,331.0,1
1180,1180,0.32929446173418075,0.3,0.0,0.0,420.0,649.0,0.0,1,251.0,1
1181,1181,0.443411078767867,0.4,1.0,1.0,269.0,730.0,1.0,1,231.0,1
1182,1182,0.7185757046807192,0.7,1.0,1.0,388.0,792.0,1.0,1,210.0,1
1183,1183,0.2019051758603737,0.2,1.0,1.0,334.0,573.0,1.0,1,423.0,1
1184,1184,-0.19682633311655884,-0.2,0.0,1.0,435.0,954.0,1.0,0,3611.0,1
1185,1185,0.21137901375757095,0.2,0.0,0.0,360.0,858.0,0.0,1,172.0,1
1186,1186,0.2802068132036123,0.3,1.0,1.0,360.0,773.0,1.0,1,237.0,1
1187,1187,0.4309748605741638,0.4,0.0,0.0,386.0,517.0,0.0,1,167.0,1
1188,1188,-0.11962145359488474,-0.1,0.0,1.0,444.0,903.0,0.0,1,63.0,0
1189,1189,0.01649268190256714,0.0,0.0,0.0,379.0,689.0,1.0,0,382.0,0
1190,1190,-0.6627289476535959,-0.7,0.0,1.0,344.0,982.0,1.0,0,194.0,1
1191,1191,0.23356383635042055,0.2,0.0,0.0,311.0,630.0,0.0,1,159.0,1
1192,1192,-0.802430329711034,-0.8,0.0,1.0,318.0,825.0,1.0,0,317.0,1
1193,1193,-0.24630880228458485,-0.2,1.0,0.0,277.0,615.0,0.0,0,298.0,1
1194,1194,0.8847847591748396,0.9,1.0,1.0,477.0,952.0,1.0,1,141.0,1
1195,1195,0.6560988873771995,0.7,0.0,0.0,274.0,868.0,0.0,1,98.0,1
1196,1196,0.34483848317336696,0.3,0.0,0.0,485.0,859.0,0.0,1,56.0,1
1197,1197,-0.007017967508165968,-0.0,0.0,1.0,356.0,625.0,0.0,1,719.0,0
1198,1198,-0.26280910425313986,-0.3,1.0,0.0,332.0,712.0,0.0,0,296.0,1
1199,1199,-0.588487098414206,-0.6,1.0,0.0,452.0,512.0,0.0,0,236.0,1
1200,1200,-0.6140204013740957,-0.6,0.0,1.0,301.0,771.0,1.0,0,528.0,1
1201,1201,0.15409543161792028,0.2,0.0,0.0,497.0,585.0,0.0,1,78.0,1
1202,1202,-0.2932545177463489,-0.3,1.0,0.0,314.0,713.0,0.0,0,263.0,1
1203,1203,-0.3249994278002125,-0.3,0.0,1.0,273.0,505.0,1.0,0,452.0,1
1204,1204,0.6849221517807663,0.7,1.0,1.0,420.0,996.0,1.0,1,304.0,1
1205,1205,-0.3003545483594299,-0.3,0.0,1.0,301.0,783.0,1.0,0,246.0,1
1206,1206,0.6346861868972696,0.6,0.0,0.0,309.0,817.0,0.0,1,104.0,1
1207,1207,-0.5310435387545716,-0.5,1.0,0.0,296.0,924.0,0.0,0,210.0,1
1208,1208,-0.19221269119115236,-0.2,1.0,0.0,374.0,649.0,0.0,0,437.0,1
1209,1209,-0.6592464292054228,-0.7,1.0,0.0,425.0,845.0,0.0,0,220.0,1
1210,1210,0.37665551363045424,0.4,1.0,1.0,316.0,812.0,1.0,1,222.0,1
1211,1211,-0.03511541380640093,-0.0,0.0,1.0,425.0,562.0,0.0,1,2333.0,0
1212,1212,-0.5782914519455338,-0.6,0.0,1.0,291.0,514.0,1.0,0,315.0,1
1213,1213,-0.12696710789645704,-0.1,1.0,0.0,318.0,590.0,0.0,0,412.0,1
1214,1214,0.1923941963103989,0.2,1.0,1.0,465.0,975.0,1.0,1,300.0,1
1215,1215,-0.7746019777787914,-0.8,1.0,0.0,414.0,899.0,0.0,0,177.0,1
1216,1216,0.7885485891049656,0.8,0.0,0.0,484.0,773.0,0.0,1,223.0,1
1217,1217,-0.3993895258880863,-0.4,0.0,1.0,340.0,962.0,1.0,0,388.0,1
1218,1218,-0.8240561834242971,-0.8,0.0,1.0,393.0,980.0,1.0,0,197.0,1
1219,1219,-0.32182312439086,-0.3,0.0,1.0,322.0,811.0,1.0,0,517.0,1
1220,1220,-0.22170050865852464,-0.2,1.0,0.0,328.0,884.0,0.0,0,388.0,1
1221,1221,-0.6724777448702633,-0.7,0.0,1.0,409.0,779.0,1.0,0,242.0,1
1222,1222,0.48890010951282636,0.5,1.0,1.0,322.0,723.0,1.0,1,275.0,1
1223,1223,0.07218013036359017,0.1,1.0,1.0,258.0,528.0,1.0,1,384.0,1
1224,1224,0.22544752387580524,0.2,1.0,1.0,283.0,881.0,1.0,1,206.0,1
1225,1225,0.5086947587350227,0.5,1.0,1.0,465.0,748.0,1.0,1,237.0,1
1226,1226,0.657567226884569,0.7,1.0,1.0,274.0,859.0,1.0,1,137.0,1
1227,1227,-0.39940917626542094,-0.4,1.0,0.0,440.0,746.0,0.0,0,254.0,1
1228,1228,0.8885750950848988,0.9,0.0,0.0,320.0,613.0,0.0,1,157.0,1
1229,1229,0.791347230222094,0.8,0.0,0.0,299.0,510.0,0.0,1,121.0,1
1230,1230,0.1586610907891154,0.2,1.0,1.0,345.0,947.0,1.0,1,208.0,1
1231,1231,-0.5232106830550862,-0.5,0.0,1.0,465.0,992.0,1.0,0,233.0,1
1232,1232,-0.5292929648116065,-0.5,1.0,0.0,279.0,794.0,0.0,0,307.0,1
1233,1233,-0.8411019270631906,-0.8,1.0,0.0,330.0,627.0,0.0,0,163.0,1
1234,1234,0.5264377611448595,0.5,0.0,0.0,419.0,526.0,0.0,1,135.0,1
1235,1235,0.6891117756508837,0.7,0.0,0.0,457.0,713.0,0.0,1,100.0,1
1236,1236,0.8089579402515942,0.8,0.0,0.0,259.0,604.0,0.0,1,157.0,1
1237,1237,-0.3687224189868118,-0.4,1.0,0.0,302.0,984.0,0.0,0,244.0,1
1238,1238,-0.6516429603579295,-0.7,0.0,1.0,350.0,651.0,1.0,0,239.0,1
1239,1239,-0.08157453023025896,-0.1,0.0,1.0,332.0,979.0,0.0,1,79.0,0
1240,1240,0.08432302115600565,0.1,1.0,1.0,258.0,807.0,1.0,1,3935.0,1
1241,1241,-0.47037663799386276,-0.5,0.0,1.0,449.0,890.0,1.0,0,321.0,1
1242,1242,0.5516443173283273,0.6,1.0,1.0,404.0,876.0,1.0,1,170.0,1
1243,1243,0.6370665236786167,0.6,1.0,1.0,414.0,628.0,1.0,1,178.0,1
1244,1244,-0.7797200213866564,-0.8,0.0,1.0,471.0,850.0,1.0,0,209.0,1
1245,1245,-0.214517344113764,-0.2,0.0,1.0,272.0,788.0,1.0,0,3940.0,1
1246,1246,-0.17982526003432386,-0.2,1.0,0.0,336.0,573.0,0.0,0,321.0,1
1247,1247,0.4288078841737385,0.4,0.0,0.0,344.0,828.0,0.0,1,148.0,1
1248,1248,0.7443000580303266,0.7,1.0,1.0,272.0,887.0,1.0,1,211.0,1
1249,1249,0.28984278510318695,0.3,0.0,0.0,461.0,663.0,0.0,1,146.0,1
1250,1250,-0.40336085153774714,-0.4,0.0,1.0,307.0,752.0,1.0,0,311.0,1
1251,1251,-0.3069436524946737,-0.3,1.0,0.0,296.0,632.0,0.0,0,392.0,1
1252,1252,0.07350701539672766,0.1,0.0,0.0,353.0,856.0,0.0,1,71.0,1
1253,1253,-0.490886628051405,-0.5,0.0,1.0,356.0,890.0,1.0,0,374.0,1
1254,1254,-0.1024354809068384,-0.1,1.0,0.0,493.0,509.0,0.0,0,538.0,1
1255,1255,0.5841767902141769,0.6,1.0,1.0,420.0,820.0,1.0,1,220.0,1
1256,1256,-0.5837386631438648,-0.6,0.0,1.0,262.0,847.0,1.0,0,441.0,1
1257,1257,0.513766820670032,0.5,0.0,0.0,356.0,827.0,0.0,1,127.0,1
1258,1258,0.03838348722216123,0.0,0.0,0.0,339.0,767.0,0.0,1,174.0,1
1259,1259,0.5730934521743024,0.6,1.0,1.0,298.0,693.0,1.0,1,189.0,1
1260,1260,0.7016214808284357,0.7,0.0,0.0,332.0,925.0,0.0,1,173.0,1
1261,1261,-0.24509530077820652,-0.2,0.0,1.0,270.0,864.0,1.0,0,466.0,1
1262,1262,-0.611406642164826,-0.6,0.0,1.0,359.0,923.0,0.0,1,28.0,0
1263,1263,0.8524738371874662,0.9,0.0,0.0,267.0,934.0,0.0,1,159.0,1
1264,1264,-0.1122036115797419,-0.1,0.0,1.0,295.0,939.0,1.0,0,426.0,1
1265,1265,-0.4093499953383804,-0.4,1.0,0.0,455.0,942.0,0.0,0,143.0,1
1266,1266,-0.09723220000514954,-0.1,0.0,1.0,366.0,790.0,1.0,0,1524.0,1
1267,1267,0.14245429225277173,0.1,0.0,0.0,375.0,962.0,0.0,1,243.0,1
1268,1268,-0.3109829051821048,-0.3,0.0,1.0,370.0,880.0,1.0,0,350.0,1
1269,1269,-0.4400160695278276,-0.4,1.0,0.0,455.0,597.0,0.0,0,268.0,1
1270,1270,0.7165243837361358,0.7,0.0,0.0,438.0,895.0,0.0,1,107.0,1
1271,1271,0.8438567370015778,0.8,0.0,0.0,427.0,886.0,0.0,1,67.0,1
1272,1272,-0.022119062344216567,-0.0,0.0,1.0,339.0,675.0,1.0,0,606.0,1
1273,1273,-0.18144329944870985,-0.2,0.0,1.0,316.0,742.0,1.0,0,852.0,1
1274,1274,0.4475771958415259,0.4,1.0,1.0,499.0,702.0,1.0,1,169.0,1
1275,1275,-0.8914645427067404,-0.9,0.0,1.0,299.0,921.0,1.0,0,200.0,1
1276,1276,0.6549707552327232,0.7,1.0,1.0,407.0,980.0,1.0,1,183.0,1
1277,1277,-0.7676793766270448,-0.8,1.0,0.0,325.0,503.0,0.0,0,172.0,1
1278,1278,0.36530012826855474,0.4,1.0,1.0,278.0,722.0,1.0,1,310.0,1
1279,1279,-0.7221022385950205,-0.7,1.0,0.0,299.0,757.0,0.0,0,224.0,1
1280,1280,0.21357310326551937,0.2,1.0,1.0,313.0,593.0,1.0,1,1054.0,1
1281,1281,0.030062146045926497,0.0,0.0,0.0,422.0,661.0,0.0,1,167.0,1
1282,1282,0.8307052475090259,0.8,0.0,0.0,422.0,915.0,0.0,1,163.0,1
1283,1283,-0.6727180278783559,-0.7,0.0,1.0,436.0,602.0,1.0,0,282.0,1
1284,1284,-0.016926260096141954,-0.0,0.0,1.0,415.0,800.0,0.0,1,195.0,0
1285,1285,-0.17581117840675464,-0.2,0.0,1.0,396.0,993.0,1.0,0,1001.0,1
1286,1286,0.015491478903908673,0.0,1.0,1.0,289.0,560.0,1.0,1,541.0,1
1287,1287,-0.06510933593586743,-0.1,1.0,0.0,426.0,875.0,0.0,0,3019.0,1
1288,1288,-0.8386976947513916,-0.8,1.0,0.0,491.0,933.0,0.0,0,196.0,1
1289,1289,-0.45598068274088027,-0.5,0.0,1.0,361.0,797.0,1.0,0,352.0,1
1290,1290,-0.8841210167477929,-0.9,0.0,1.0,329.0,663.0,1.0,0,158.0,1
1291,1291,0.5809439307115732,0.6,0.0,0.0,301.0,658.0,0.0,1,411.0,1
1292,1292,0.777183173267921,0.8,1.0,1.0,304.0,922.0,1.0,1,144.0,1
1293,1293,-0.5015341598801056,-0.5,1.0,0.0,353.0,589.0,0.0,0,208.0,1
1294,1294,-0.5644991782357331,-0.6,1.0,0.0,488.0,587.0,0.0,0,225.0,1
1295,1295,-0.66378394164642,-0.7,0.0,1.0,381.0,621.0,1.0,0,298.0,1
1296,1296,-0.47639710791318085,-0.5,0.0,1.0,477.0,682.0,1.0,0,251.0,1
1297,1297,-0.12225178583456053,-0.1,0.0,1.0,257.0,612.0,1.0,0,461.0,1
1298,1298,-0.7268300219751009,-0.7,0.0,1.0,395.0,908.0,1.0,0,227.0,1
1299,1299,0.5294273466581826,0.5,1.0,1.0,365.0,912.0,1.0,1,223.0,1
1300,1300,0.11723562151580824,0.1,0.0,0.0,480.0,643.0,0.0,1,137.0,1
1301,1301,-0.7195487905472162,-0.7,1.0,0.0,309.0,723.0,0.0,0,138.0,1
1302,1302,0.0917664381498633,0.1,0.0,0.0,261.0,805.0,0.0,1,134.0,1
1303,1303,0.2584872807563098,0.3,0.0,0.0,279.0,816.0,0.0,1,245.0,1
1304,1304,-0.016747008601837865,-0.0,0.0,1.0,405.0,772.0,0.0,1,443.0,0
1305,1305,0.7025413277270686,0.7,1.0,1.0,292.0,876.0,1.0,1,132.0,1
1306,1306,-0.057106264764145376,-0.1,0.0,1.0,411.0,769.0,1.0,0,680.0,1
1307,1307,-0.4582638650921689,-0.5,1.0,0.0,344.0,998.0,0.0,0,148.0,1
1308,1308,-0.2937887980909387,-0.3,0.0,1.0,362.0,758.0,1.0,0,1110.0,1
1309,1309,0.3910292688129263,0.4,1.0,1.0,317.0,829.0,1.0,1,244.0,1
1310,1310,-0.4429079134649354,-0.4,0.0,1.0,258.0,679.0,1.0,0,343.0,1
1311,1311,0.40993122102703616,0.4,1.0,1.0,281.0,613.0,1.0,1,276.0,1
1312,1312,-0.6026190923256407,-0.6,1.0,0.0,387.0,886.0,0.0,0,207.0,1
1313,1313,0.8818620154008593,0.9,0.0,0.0,371.0,846.0,0.0,1,73.0,1
1314,1314,-0.2900447324947123,-0.3,0.0,1.0,411.0,663.0,1.0,0,406.0,1
1315,1315,-0.6189700892161694,-0.6,0.0,1.0,276.0,933.0,1.0,0,161.0,1
1316,1316,0.4355076649083339,0.4,1.0,1.0,425.0,676.0,1.0,1,289.0,1
1317,1317,0.5584466721855915,0.6,0.0,0.0,394.0,920.0,0.0,1,96.0,1
1318,1318,0.04989153828939774,0.0,1.0,1.0,452.0,732.0,1.0,1,366.0,1
1319,1319,-0.046986357951056434,-0.0,1.0,0.0,376.0,800.0,1.0,1,294.0,0
1320,1320,0.6935489984038957,0.7,0.0,0.0,259.0,980.0,0.0,1,171.0,1
1321,1321,0.3297866216183588,0.3,0.0,0.0,487.0,673.0,0.0,1,130.0,1
1322,1322,-0.49185661490186244,-0.5,1.0,0.0,440.0,727.0,0.0,0,253.0,1
1323,1323,0.30031283517851504,0.3,1.0,1.0,481.0,983.0,1.0,1,196.0,1
1324,1324,0.4990030571984133,0.5,1.0,1.0,493.0,659.0,1.0,1,178.0,1
1325,1325,-0.4185694457849161,-0.4,0.0,1.0,472.0,685.0,1.0,0,313.0,1
1326,1326,-0.35442014304629355,-0.4,0.0,1.0,359.0,695.0,1.0,0,486.0,1
1327,1327,-0.3456485048480312,-0.3,0.0,1.0,458.0,736.0,1.0,0,326.0,1
1328,1328,0.04028702929519956,0.0,1.0,1.0,335.0,985.0,1.0,1,3680.0,1
1329,1329,-0.6540101535575097,-0.7,0.0,1.0,383.0,696.0,1.0,0,251.0,1
1330,1330,0.4410420965890204,0.4,1.0,1.0,437.0,695.0,1.0,1,228.0,1
1331,1331,-0.1761538432343417,-0.2,0.0,1.0,488.0,921.0,1.0,0,941.0,1
1332,1332,-0.520389730577453,-0.5,1.0,0.0,282.0,505.0,0.0,0,203.0,1
1333,1333,-0.5231404753816562,-0.5,1.0,0.0,311.0,509.0,0.0,0,250.0,1
1334,1334,-0.3433569560226466,-0.3,0.0,1.0,453.0,580.0,1.0,0,567.0,1
1335,1335,0.16397369832926845,0.2,1.0,1.0,457.0,813.0,1.0,1,250.0,1
1336,1336,-0.14409172150449545,-0.1,0.0,1.0,460.0,737.0,1.0,0,1663.0,1
1337,1337,-0.42880409773672457,-0.4,1.0,0.0,343.0,901.0,0.0,0,356.0,1
1338,1338,-0.00021973682801879058,-0.0,1.0,0.0,380.0,533.0,1.0,1,577.0,0
1339,1339,-0.491514389488799,-0.5,1.0,0.0,333.0,901.0,0.0,0,206.0,1
1340,1340,-0.11615232567144973,-0.1,1.0,0.0,387.0,821.0,0.0,0,542.0,1
1341,1341,-0.4965266341300943,-0.5,1.0,0.0,442.0,549.0,0.0,0,249.0,1
1342,1342,-0.865792748907937,-0.9,0.0,1.0,320.0,557.0,1.0,0,203.0,1
1343,1343,0.6718264018813359,0.7,1.0,1.0,251.0,515.0,1.0,1,204.0,1
1344,1344,0.6377914368864296,0.6,0.0,0.0,292.0,600.0,0.0,1,158.0,1
1345,1345,-0.7205053026140008,-0.7,0.0,1.0,288.0,903.0,1.0,0,189.0,1
1346,1346,-0.7882884302970802,-0.8,0.0,1.0,346.0,727.0,1.0,0,237.0,1
1347,1347,-0.6181210756356861,-0.6,1.0,0.0,408.0,709.0,0.0,0,243.0,1
1348,1348,0.012247180980432537,0.0,0.0,0.0,310.0,506.0,0.0,1,344.0,1
1349,1349,-0.7373370378488637,-0.7,1.0,0.0,360.0,667.0,0.0,0,273.0,1
1350,1350,-0.37224082414975224,-0.4,0.0,1.0,390.0,780.0,1.0,0,250.0,1
1351,1351,0.48141828015450916,0.5,0.0,0.0,402.0,716.0,0.0,1,102.0,1
1352,1352,-0.17496766925747276,-0.2,0.0,1.0,272.0,543.0,1.0,0,2455.0,1
1353,1353,0.8896172462631419,0.9,0.0,0.0,372.0,770.0,0.0,1,118.0,1
1354,1354,-0.08201981223390564,-0.1,0.0,1.0,351.0,694.0,1.0,0,415.0,1
1355,1355,0.7359385272935838,0.7,1.0,1.0,364.0,822.0,1.0,1,154.0,1
1356,1356,-0.5072702963133633,-0.5,0.0,1.0,415.0,516.0,1.0,0,429.0,1
1357,1357,0.8873295813512555,0.9,1.0,1.0,413.0,803.0,1.0,1,214.0,1
1358,1358,-0.3595860283144068,-0.4,1.0,0.0,434.0,804.0,0.0,0,242.0,1
1359,1359,0.543898283671766,0.5,1.0,1.0,409.0,545.0,1.0,1,236.0,1
1360,1360,0.25668337135581265,0.3,1.0,1.0,426.0,960.0,1.0,1,524.0,1
1361,1361,0.21261905138031356,0.2,0.0,0.0,493.0,791.0,0.0,1,176.0,1
1362,1362,0.5106717935680626,0.5,0.0,0.0,258.0,990.0,0.0,1,162.0,1
1363,1363,-0.5246071885684693,-0.5,0.0,1.0,328.0,670.0,1.0,0,292.0,1
1364,1364,-0.22704713416076616,-0.2,0.0,1.0,303.0,925.0,1.0,0,692.0,1
1365,1365,-0.5711917576350665,-0.6,1.0,0.0,362.0,636.0,0.0,0,182.0,1
1366,1366,-0.48500660927202777,-0.5,1.0,0.0,365.0,567.0,0.0,0,208.0,1
1367,1367,-0.47965123552831246,-0.5,1.0,0.0,428.0,885.0,0.0,0,227.0,1
1368,1368,-0.3042524322805338,-0.3,1.0,0.0,446.0,950.0,0.0,0,244.0,1
1369,1369,0.6287108608449451,0.6,0.0,0.0,356.0,857.0,0.0,1,77.0,1
1370,1370,-0.42167804258160235,-0.4,0.0,1.0,483.0,517.0,1.0,0,230.0,1
1371,1371,-0.08001460431733898,-0.1,0.0,1.0,360.0,641.0,1.0,0,689.0,1
1372,1372,-0.49753172414595404,-0.5,1.0,0.0,393.0,604.0,0.0,0,233.0,1
1373,1373,0.10230672906956195,0.1,1.0,1.0,440.0,551.0,1.0,1,309.0,1
1374,1374,0.698330137725874,0.7,0.0,0.0,356.0,835.0,0.0,1,179.0,1
1375,1375,0.4095869427795219,0.4,1.0,1.0,491.0,988.0,1.0,1,231.0,1
1376,1376,0.3939953389133478,0.4,1.0,1.0,382.0,774.0,1.0,1,294.0,1
1377,1377,0.7153843908085288,0.7,0.0,0.0,260.0,526.0,0.0,1,174.0,1
1378,1378,-0.8271868909121443,-0.8,0.0,1.0,354.0,577.0,1.0,0,209.0,1
1379,1379,-0.5381117273248861,-0.5,0.0,1.0,333.0,868.0,1.0,0,279.0,1
1380,1380,0.8178725334010698,0.8,1.0,1.0,359.0,871.0,1.0,1,150.0,1
1381,1381,0.5307178635258701,0.5,1.0,1.0,290.0,970.0,1.0,1,200.0,1
1382,1382,-0.1452498534453881,-0.1,1.0,0.0,498.0,599.0,1.0,1,213.0,0
1383,1383,0.7200443734240595,0.7,1.0,1.0,402.0,700.0,1.0,1,138.0,1
1384,1384,-0.7897208111490917,-0.8,0.0,1.0,290.0,549.0,1.0,0,211.0,1
1385,1385,0.2788104485404611,0.3,1.0,1.0,286.0,720.0,1.0,1,324.0,1
1386,1386,-0.0771110839769048,-0.1,0.0,1.0,457.0,971.0,0.0,1,42.0,0
1387,1387,-0.017655752428591742,-0.0,1.0,0.0,310.0,729.0,1.0,1,311.0,0
1388,1388,0.31225332458121857,0.3,0.0,0.0,325.0,852.0,0.0,1,253.0,1
1389,1389,-0.5835222086028846,-0.6,1.0,0.0,288.0,986.0,0.0,0,206.0,1
1390,1390,0.7985320538619646,0.8,0.0,0.0,293.0,510.0,0.0,1,187.0,1
1391,1391,0.8272979067750866,0.8,0.0,0.0,394.0,828.0,0.0,1,148.0,1
1392,1392,-0.6610095607802785,-0.7,0.0,1.0,429.0,536.0,1.0,0,305.0,1
1393,1393,0.8654508969930442,0.9,0.0,0.0,359.0,677.0,0.0,1,94.0,1
1394,1394,0.04677641059032678,0.0,0.0,0.0,433.0,591.0,0.0,1,506.0,1
1395,1395,-0.4557367595859935,-0.5,1.0,0.0,300.0,786.0,0.0,0,174.0,1
1396,1396,-0.7751989274515535,-0.8,1.0,0.0,391.0,689.0,0.0,0,190.0,1
1397,1397,0.48104666997114387,0.5,0.0,0.0,331.0,536.0,0.0,1,473.0,1
1398,1398,-0.6494979943780652,-0.6,1.0,0.0,452.0,683.0,0.0,0,205.0,1
1399,1399,0.4702994394444969,0.5,1.0,1.0,363.0,672.0,1.0,1,235.0,1
1400,1400,0.21832596468031518,0.2,0.0,0.0,490.0,833.0,0.0,1,67.0,1
1401,1401,0.43601858390692605,0.4,0.0,0.0,338.0,629.0,0.0,1,173.0,1
1402,1402,0.7541591080722708,0.8,0.0,0.0,358.0,787.0,0.0,1,145.0,1
1403,1403,0.6027974818194283,0.6,1.0,1.0,279.0,685.0,1.0,1,296.0,1
1404,1404,-0.8681635037103553,-0.9,0.0,1.0,363.0,626.0,1.0,0,261.0,1
1405,1405,-0.7680991508524245,-0.8,0.0,1.0,384.0,765.0,1.0,0,251.0,1
1406,1406,0.1780174852392501,0.2,0.0,0.0,305.0,828.0,0.0,1,1797.0,1
1407,1407,-0.7183873087435456,-0.7,0.0,1.0,421.0,739.0,1.0,0,220.0,1
1408,1408,0.41038956807628646,0.4,1.0,1.0,353.0,620.0,1.0,1,237.0,1
1409,1409,0.6153543480643661,0.6,0.0,0.0,392.0,765.0,0.0,1,63.0,1
1410,1410,-0.8062458470019199,-0.8,0.0,1.0,351.0,684.0,1.0,0,215.0,1
1411,1411,-0.7300661904433572,-0.7,0.0,1.0,258.0,988.0,0.0,1,-86.0,0
1412,1412,-0.07770515486096152,-0.1,0.0,1.0,414.0,842.0,0.0,1,224.0,0
1413,1413,0.33002054824875804,0.3,0.0,0.0,370.0,772.0,0.0,1,178.0,1
1414,1414,0.6631687453782641,0.7,0.0,0.0,270.0,928.0,0.0,1,92.0,1
1415,1415,0.03680831800204398,0.0,1.0,1.0,267.0,753.0,1.0,1,230.0,1
1416,1416,0.562612814870214,0.6,0.0,0.0,415.0,601.0,0.0,1,174.0,1
1417,1417,0.2048433369466004,0.2,1.0,1.0,323.0,631.0,1.0,1,486.0,1
1418,1418,0.02491206819630798,0.0,1.0,1.0,250.0,615.0,1.0,1,255.0,1
1419,1419,-0.8855444085435155,-0.9,1.0,0.0,346.0,812.0,0.0,0,182.0,1
1420,1420,-0.24679674873045354,-0.2,0.0,1.0,484.0,597.0,1.0,0,609.0,1
1421,1421,-0.3581959115646697,-0.4,0.0,1.0,439.0,767.0,1.0,0,384.0,1
1422,1422,-0.813405759736435,-0.8,0.0,1.0,263.0,544.0,1.0,0,303.0,1
1423,1423,-0.8307745949294385,-0.8,0.0,1.0,316.0,991.0,1.0,0,203.0,1
1424,1424,0.4108952834556766,0.4,1.0,1.0,283.0,927.0,1.0,1,210.0,1
1425,1425,-0.8410314490671659,-0.8,1.0,0.0,293.0,526.0,0.0,0,171.0,1
1426,1426,0.2216517140289168,0.2,1.0,1.0,456.0,854.0,1.0,1,270.0,1
1427,1427,-0.7741848970246177,-0.8,0.0,1.0,498.0,984.0,1.0,0,308.0,1
1428,1428,-0.3588632126306266,-0.4,1.0,0.0,401.0,931.0,0.0,0,198.0,1
1429,1429,0.6215435596292594,0.6,0.0,0.0,366.0,713.0,0.0,1,121.0,1
1430,1430,0.0668652461404039,0.1,0.0,0.0,440.0,627.0,0.0,1,173.0,1
1431,1431,-0.3547995376686235,-0.4,1.0,0.0,450.0,597.0,0.0,0,173.0,1
1432,1432,-0.6987333290899751,-0.7,1.0,0.0,475.0,676.0,0.0,0,199.0,1
1433,1433,-0.28550609092845525,-0.3,1.0,0.0,318.0,514.0,0.0,0,278.0,1
1434,1434,0.8566277869533007,0.9,1.0,1.0,293.0,932.0,1.0,1,165.0,1
1435,1435,-0.5117621562205984,-0.5,0.0,1.0,263.0,636.0,1.0,0,251.0,1
1436,1436,-0.7948978144271373,-0.8,0.0,1.0,428.0,742.0,1.0,0,190.0,1
1437,1437,0.7768923451505886,0.8,1.0,1.0,256.0,604.0,1.0,1,360.0,1
1438,1438,-0.8761543421531469,-0.9,0.0,1.0,478.0,852.0,1.0,0,180.0,1
1439,1439,-0.08501076217586279,-0.1,1.0,0.0,474.0,714.0,1.0,1,332.0,0
1440,1440,-0.7282901523037908,-0.7,0.0,1.0,433.0,865.0,1.0,0,172.0,1
1441,1441,-0.3531743108781552,-0.4,0.0,1.0,488.0,530.0,1.0,0,372.0,1
1442,1442,-0.090383722606035,-0.1,1.0,0.0,324.0,705.0,0.0,0,491.0,1
1443,1443,0.29079487846861685,0.3,0.0,0.0,412.0,887.0,0.0,1,171.0,1
1444,1444,0.6018142018407843,0.6,1.0,1.0,307.0,861.0,1.0,1,112.0,1
1445,1445,-0.8670080165580513,-0.9,0.0,1.0,423.0,748.0,1.0,0,199.0,1
1446,1446,-0.6363510066733598,-0.6,1.0,0.0,442.0,588.0,0.0,0,190.0,1
1447,1447,0.7004080167872292,0.7,0.0,0.0,314.0,986.0,0.0,1,120.0,1
1448,1448,-0.08441136819594652,-0.1,1.0,0.0,389.0,715.0,0.0,0,496.0,1
1449,1449,-0.010341616837270307,-0.0,0.0,1.0,347.0,611.0,1.0,0,502.0,1
1450,1450,0.4133618936144524,0.4,1.0,1.0,425.0,956.0,1.0,1,219.0,1
1451,1451,0.4649691935280412,0.5,1.0,1.0,269.0,699.0,1.0,1,402.0,1
1452,1452,0.8604823635239826,0.9,0.0,0.0,476.0,891.0,0.0,1,73.0,1
1453,1453,0.7617318553889324,0.8,0.0,0.0,262.0,693.0,0.0,1,115.0,1
1454,1454,-0.5020277593737736,-0.5,1.0,0.0,432.0,728.0,0.0,0,230.0,1
1455,1455,-0.6114865674926139,-0.6,1.0,0.0,258.0,702.0,0.0,0,160.0,1
1456,1456,-0.4320546312513871,-0.4,0.0,1.0,458.0,847.0,1.0,0,375.0,1
1457,1457,-0.2409550732899971,-0.2,0.0,1.0,478.0,895.0,1.0,0,397.0,1
1458,1458,0.06224730953732094,0.1,0.0,0.0,405.0,761.0,0.0,1,274.0,1
1459,1459,-0.1382357951172376,-0.1,1.0,0.0,432.0,527.0,0.0,0,851.0,1
1460,1460,-0.19897591937978265,-0.2,0.0,1.0,452.0,902.0,1.0,0,296.0,1
1461,1461,0.769209088113025,0.8,0.0,0.0,494.0,846.0,0.0,1,50.0,1
1462,1462,0.6574740070316926,0.7,0.0,0.0,463.0,764.0,0.0,1,173.0,1
1463,1463,-0.5441693892156185,-0.5,1.0,0.0,357.0,886.0,0.0,0,187.0,1
1464,1464,-0.8645810599797602,-0.9,0.0,1.0,315.0,698.0,1.0,0,207.0,1
1465,1465,0.8090354528259504,0.8,0.0,0.0,256.0,942.0,0.0,1,72.0,1
1466,1466,-0.032249670608948566,-0.0,0.0,1.0,258.0,754.0,1.0,0,388.0,1
1467,1467,-0.7420834350608574,-0.7,0.0,1.0,302.0,630.0,1.0,0,308.0,1
1468,1468,0.19697278100792215,0.2,0.0,0.0,388.0,655.0,0.0,1,277.0,1
1469,1469,-0.7518770080129491,-0.8,1.0,0.0,309.0,949.0,0.0,0,202.0,1
1470,1470,-0.14582242757044594,-0.1,0.0,1.0,425.0,787.0,1.0,0,3788.0,1
1471,1471,-0.7801052172201023,-0.8,0.0,1.0,428.0,902.0,1.0,0,180.0,1
1472,1472,0.575781430448337,0.6,0.0,0.0,252.0,621.0,0.0,1,157.0,1
1473,1473,-0.2310752741799712,-0.2,1.0,0.0,345.0,877.0,0.0,0,208.0,1
1474,1474,-0.42718564933279596,-0.4,1.0,0.0,329.0,944.0,0.0,0,287.0,1
1475,1475,0.8614121238793814,0.9,1.0,1.0,322.0,594.0,1.0,1,304.0,1
1476,1476,0.024157950733928013,0.0,1.0,1.0,284.0,944.0,0.0,0,1732.0,0
1477,1477,-0.1049425858141736,-0.1,0.0,1.0,424.0,756.0,0.0,1,330.0,0
1478,1478,-0.7753491719092652,-0.8,1.0,0.0,328.0,542.0,0.0,0,210.0,1
1479,1479,0.489332411175884,0.5,1.0,1.0,350.0,576.0,1.0,1,234.0,1
1480,1480,0.7117570581042613,0.7,1.0,1.0,250.0,873.0,1.0,1,217.0,1
1481,1481,0.25285778598911,0.3,0.0,0.0,408.0,989.0,0.0,1,-157.0,1
1482,1482,0.35590607862746115,0.4,0.0,0.0,255.0,829.0,0.0,1,246.0,1
1483,1483,0.3223866040651865,0.3,1.0,1.0,483.0,907.0,1.0,1,130.0,1
1484,1484,-0.7474539325135772,-0.7,0.0,1.0,252.0,835.0,1.0,0,413.0,1
1485,1485,-0.5587106478254058,-0.6,1.0,0.0,263.0,981.0,0.0,0,186.0,1
1486,1486,-0.7648582299140544,-0.8,1.0,0.0,477.0,976.0,0.0,0,137.0,1
1487,1487,-0.759951824336117,-0.8,0.0,1.0,357.0,756.0,1.0,0,427.0,1
1488,1488,0.6023341644917156,0.6,0.0,0.0,497.0,936.0,0.0,1,107.0,1
1489,1489,-0.6496940884293201,-0.6,0.0,1.0,491.0,690.0,1.0,0,219.0,1
1490,1490,0.5548039658101759,0.6,0.0,0.0,443.0,971.0,0.0,1,106.0,1
1491,1491,-0.6092659263841846,-0.6,0.0,1.0,317.0,875.0,1.0,0,248.0,1
1492,1492,-0.12164090442656739,-0.1,0.0,1.0,293.0,858.0,1.0,0,1349.0,1
1493,1493,0.014971820106292388,0.0,1.0,1.0,331.0,845.0,1.0,1,1984.0,1
