,trial,coherence,coherence_bin,green_side,correct_side,target_onset,checker_onset,decision,green_decision,decision_time,correct_decision
0,0,-0.1305879801478732,-0.1,1.0,0.0,255.0,885.0,1.0,1,-690.0,0
1,1,0.7418702380126524,0.7,1.0,1.0,435.0,775.0,1.0,1,40.0,1
2,2,-0.14684788309397634,-0.1,0.0,1.0,424.0,576.0,0.0,1,-180.0,0
3,3,0.41086284622876057,0.4,1.0,1.0,439.0,544.0,1.0,1,-803.0,1
4,4,0.34353464903755515,0.3,0.0,0.0,295.0,856.0,0.0,1,-331.0,1
5,5,-0.5775107827491262,-0.6,1.0,0.0,406.0,770.0,1.0,1,-96.0,0
6,6,-0.5533911665689757,-0.6,1.0,0.0,322.0,803.0,0.0,0,55.0,1
7,7,-0.5105441969021249,-0.5,0.0,1.0,327.0,678.0,0.0,1,-795.0,0
8,8,0.4699548899279077,0.5,0.0,0.0,275.0,805.0,1.0,0,-1050.0,0
9,9,0.8430427862051041,0.8,0.0,0.0,292.0,589.0,1.0,0,209.0,0
10,10,0.24738693226069952,0.2,1.0,1.0,268.0,864.0,0.0,0,-672.0,0
11,11,-0.04455133263650346,-0.0,1.0,0.0,283.0,549.0,0.0,0,108.0,1
12,12,-0.6302499341079026,-0.6,0.0,1.0,485.0,649.0,0.0,1,-704.0,0
13,13,-0.16443692816823097,-0.2,0.0,1.0,401.0,701.0,0.0,1,108.0,0
14,14,-0.3093519241264314,-0.3,1.0,0.0,492.0,604.0,1.0,1,64.0,0
15,15,0.09496021437158364,0.1,0.0,0.0,471.0,893.0,1.0,0,36.0,0
16,16,0.2152294554930595,0.2,1.0,1.0,339.0,671.0,1.0,1,230.0,1
17,17,0.14302072862776793,0.1,1.0,1.0,432.0,995.0,1.0,1,33.0,1
18,18,-0.76922804370654,-0.8,1.0,0.0,374.0,561.0,1.0,1,35.0,0
19,19,-0.704883042931565,-0.7,0.0,1.0,317.0,587.0,1.0,0,86.0,1
20,20,0.5688330012585326,0.6,0.0,0.0,400.0,814.0,0.0,1,96.0,1
21,21,0.07978014650011533,0.1,0.0,0.0,301.0,564.0,0.0,1,355.0,1
22,22,0.6036351888986481,0.6,1.0,1.0,278.0,953.0,1.0,1,-401.0,1
23,23,0.07069541031267157,0.1,1.0,1.0,332.0,996.0,1.0,1,122.0,1
24,24,-0.35123357684950895,-0.4,0.0,1.0,413.0,998.0,0.0,1,-361.0,0
25,25,-0.44416098352611805,-0.4,0.0,1.0,406.0,627.0,0.0,1,177.0,0
26,26,-0.8623588799555106,-0.9,1.0,0.0,310.0,728.0,0.0,0,12.0,1
27,27,-0.6650571379349383,-0.7,0.0,1.0,468.0,680.0,0.0,1,-168.0,0
28,28,-0.39509553449302726,-0.4,0.0,1.0,419.0,608.0,1.0,0,63.0,1
29,29,-0.28047491954665815,-0.3,0.0,1.0,387.0,798.0,1.0,0,385.0,1
30,30,-0.4904838986644499,-0.5,0.0,1.0,331.0,718.0,0.0,1,-49.0,0
31,31,-0.05500494362041042,-0.1,0.0,1.0,480.0,975.0,0.0,1,-55.0,0
32,32,0.714840243015289,0.7,0.0,0.0,428.0,708.0,0.0,1,44.0,1
33,33,0.588425798027416,0.6,1.0,1.0,401.0,940.0,1.0,1,-171.0,1
34,34,-0.65891596480698,-0.7,1.0,0.0,466.0,884.0,1.0,1,-50.0,0
35,35,0.5110706677258942,0.5,1.0,1.0,372.0,568.0,1.0,1,80.0,1
36,36,0.4680005059073685,0.5,1.0,1.0,465.0,794.0,1.0,1,11.0,1
37,37,0.43205739146706057,0.4,1.0,1.0,266.0,515.0,1.0,1,-41.0,1
38,38,0.7297758191496341,0.7,1.0,1.0,400.0,571.0,1.0,1,199.0,1
39,39,0.27731077792216696,0.3,0.0,0.0,287.0,800.0,1.0,0,53.0,0
40,40,-0.16747700789009978,-0.2,1.0,0.0,425.0,608.0,1.0,1,-1013.0,0
41,41,-0.5574132752683552,-0.6,1.0,0.0,479.0,627.0,1.0,1,-246.0,0
42,42,0.7581292423552769,0.8,1.0,1.0,291.0,687.0,1.0,1,-238.0,1
43,43,-0.749033315130885,-0.7,0.0,1.0,310.0,834.0,1.0,0,126.0,1
44,44,-0.8527207554143409,-0.9,1.0,0.0,381.0,744.0,1.0,1,-225.0,0
45,45,-0.48553829089105266,-0.5,0.0,1.0,452.0,767.0,0.0,1,-109.0,0
46,46,-0.8814053021268751,-0.9,1.0,0.0,254.0,943.0,0.0,0,23.0,1
47,47,0.5871407835519783,0.6,0.0,0.0,456.0,889.0,0.0,1,-605.0,1
48,48,-0.22750192994899066,-0.2,0.0,1.0,343.0,590.0,1.0,0,77.0,1
49,49,-0.3212734969160357,-0.3,1.0,0.0,298.0,710.0,1.0,1,72.0,0
50,50,-0.7532485478289557,-0.8,1.0,0.0,415.0,530.0,0.0,0,-895.0,1
51,51,0.7897379581758391,0.8,1.0,1.0,407.0,665.0,1.0,1,88.0,1
52,52,-0.26324734844927444,-0.3,1.0,0.0,426.0,673.0,0.0,0,101.0,1
53,53,0.6670276301200452,0.7,1.0,1.0,348.0,691.0,1.0,1,-809.0,1
54,54,-0.6106236366987748,-0.6,1.0,0.0,439.0,823.0,0.0,0,-282.0,1
55,55,-0.6405794453733915,-0.6,1.0,0.0,490.0,874.0,0.0,0,-1234.0,1
56,56,0.14646109864101764,0.1,1.0,1.0,410.0,541.0,1.0,1,-751.0,1
57,57,0.17997485255217105,0.2,1.0,1.0,270.0,665.0,1.0,1,65.0,1
58,58,0.7015514317755484,0.7,1.0,1.0,368.0,633.0,1.0,1,119.0,1
59,59,0.5408945370619479,0.5,1.0,1.0,331.0,868.0,1.0,1,-499.0,1
60,60,0.24940284055256245,0.2,0.0,0.0,388.0,630.0,0.0,1,212.0,1
61,61,0.4604849748223997,0.5,1.0,1.0,322.0,969.0,1.0,1,19.0,1
62,62,0.2979631794581544,0.3,0.0,0.0,482.0,706.0,0.0,1,-158.0,1
63,63,-0.6667919311264803,-0.7,1.0,0.0,383.0,628.0,0.0,0,-851.0,1
64,64,-0.46326564981302215,-0.5,0.0,1.0,392.0,972.0,0.0,1,-944.0,0
65,65,0.2996266514053324,0.3,0.0,0.0,252.0,837.0,0.0,1,-689.0,1
66,66,-0.7297339743807909,-0.7,1.0,0.0,437.0,892.0,1.0,1,61.0,0
67,67,0.2648990768816245,0.3,1.0,1.0,315.0,671.0,1.0,1,-556.0,1
68,68,0.2388163530464983,0.2,0.0,0.0,281.0,563.0,0.0,1,-734.0,1
69,69,0.2555903378344163,0.3,0.0,0.0,268.0,979.0,1.0,0,83.0,0
70,70,0.5155465487126599,0.5,0.0,0.0,457.0,601.0,0.0,1,42.0,1
71,71,0.06776899405016235,0.1,1.0,1.0,473.0,773.0,1.0,1,-486.0,1
72,72,0.0334539640420487,0.0,1.0,1.0,365.0,719.0,1.0,1,76.0,1
73,73,0.727965713056037,0.7,1.0,1.0,409.0,757.0,1.0,1,54.0,1
74,74,0.08072191277741247,0.1,0.0,0.0,499.0,528.0,0.0,1,-287.0,1
75,75,0.21690815730893453,0.2,0.0,0.0,418.0,691.0,1.0,0,41.0,0
76,76,0.8697847718350956,0.9,1.0,1.0,323.0,907.0,1.0,1,80.0,1
77,77,0.711246979175954,0.7,1.0,1.0,360.0,605.0,1.0,1,-875.0,1
78,78,0.26159492940788776,0.3,0.0,0.0,456.0,525.0,1.0,0,-471.0,0
79,79,0.5726295456661447,0.6,0.0,0.0,348.0,670.0,1.0,0,82.0,0
80,80,0.17492423615080332,0.2,0.0,0.0,426.0,934.0,0.0,1,-470.0,1
81,81,-0.7259143965888991,-0.7,1.0,0.0,428.0,959.0,1.0,1,-367.0,0
82,82,0.17433591802946935,0.2,0.0,0.0,394.0,738.0,0.0,1,128.0,1
83,83,0.017917967955277225,0.0,0.0,0.0,287.0,589.0,0.0,1,124.0,1
84,84,0.8100842287244084,0.8,0.0,0.0,364.0,602.0,0.0,1,94.0,1
85,85,-0.6927034360576013,-0.7,0.0,1.0,324.0,793.0,1.0,0,153.0,1
86,86,-0.42810758898839874,-0.4,0.0,1.0,264.0,996.0,0.0,1,100.0,0
87,87,0.17747251265976327,0.2,0.0,0.0,463.0,710.0,0.0,1,17.0,1
88,88,0.3011256521237117,0.3,1.0,1.0,435.0,894.0,0.0,0,71.0,0
89,89,0.5314331965313556,0.5,0.0,0.0,281.0,518.0,1.0,0,81.0,0
90,90,-0.30362761185605414,-0.3,1.0,0.0,449.0,538.0,1.0,1,143.0,0
91,91,-0.8272093726443291,-0.8,1.0,0.0,377.0,937.0,0.0,0,-1154.0,1
92,92,-0.43897427372762887,-0.4,0.0,1.0,250.0,878.0,0.0,1,-58.0,0
93,93,0.7602383933759419,0.8,0.0,0.0,272.0,925.0,0.0,1,103.0,1
94,94,-0.7622434000658517,-0.8,1.0,0.0,395.0,668.0,1.0,1,-143.0,0
95,95,-0.5390005125986774,-0.5,0.0,1.0,463.0,923.0,0.0,1,104.0,0
96,96,-0.8413299448609828,-0.8,0.0,1.0,382.0,766.0,1.0,0,72.0,1
97,97,-0.5835244680975658,-0.6,0.0,1.0,260.0,901.0,1.0,0,299.0,1
98,98,0.2559459492232815,0.3,1.0,1.0,447.0,624.0,1.0,1,-731.0,1
99,99,0.4218565146384107,0.4,0.0,0.0,308.0,559.0,1.0,0,83.0,0
100,100,-0.021811282144595934,-0.0,0.0,1.0,282.0,720.0,0.0,1,-522.0,0
101,101,-0.280485800148388,-0.3,0.0,1.0,450.0,513.0,1.0,0,47.0,1
102,102,-0.014452105525300074,-0.0,0.0,1.0,457.0,599.0,1.0,0,-736.0,1
103,103,0.15119611688623846,0.2,1.0,1.0,454.0,500.0,1.0,1,116.0,1
104,104,0.671220294818521,0.7,0.0,0.0,266.0,542.0,1.0,0,-628.0,0
105,105,-0.06073748507915411,-0.1,0.0,1.0,360.0,907.0,0.0,1,-427.0,0
106,106,-0.513991007843313,-0.5,1.0,0.0,425.0,575.0,1.0,1,-130.0,0
107,107,0.7194721023034604,0.7,1.0,1.0,496.0,995.0,0.0,0,-1401.0,0
108,108,-0.7797555816665676,-0.8,0.0,1.0,435.0,510.0,1.0,0,-625.0,1
109,109,0.8695542479126269,0.9,1.0,1.0,439.0,707.0,1.0,1,64.0,1
110,110,0.10400737160589724,0.1,1.0,1.0,371.0,848.0,1.0,1,-1199.0,1
111,111,-0.6849829661532673,-0.7,1.0,0.0,420.0,879.0,1.0,1,51.0,0
112,112,0.8315999280309497,0.8,1.0,1.0,327.0,803.0,1.0,1,-490.0,1
113,113,0.7107010965193784,0.7,1.0,1.0,260.0,506.0,1.0,1,34.0,1
114,114,-0.2727665413244357,-0.3,0.0,1.0,469.0,998.0,0.0,1,-177.0,0
115,115,0.5745422736832085,0.6,1.0,1.0,287.0,554.0,1.0,1,-511.0,1
116,116,-0.1576720889832839,-0.2,1.0,0.0,288.0,628.0,1.0,1,174.0,0
117,117,0.8295569172028016,0.8,1.0,1.0,410.0,651.0,1.0,1,89.0,1
118,118,0.2795262592088107,0.3,1.0,1.0,309.0,625.0,1.0,1,116.0,1
119,119,-0.545814876966128,-0.5,1.0,0.0,320.0,751.0,0.0,0,-991.0,1
120,120,0.8322219182134899,0.8,0.0,0.0,283.0,943.0,1.0,0,174.0,0
121,121,0.44684141070418903,0.4,1.0,1.0,334.0,954.0,1.0,1,142.0,1
122,122,-0.5829555409214426,-0.6,1.0,0.0,393.0,989.0,1.0,1,-1122.0,0
123,123,0.11154160827220039,0.1,0.0,0.0,381.0,739.0,0.0,1,0.0,1
124,124,-0.28368058347790437,-0.3,1.0,0.0,250.0,726.0,1.0,1,-876.0,0
125,125,0.8298890825690733,0.8,0.0,0.0,284.0,565.0,1.0,0,191.0,0
126,126,-0.713148802615273,-0.7,1.0,0.0,254.0,686.0,0.0,0,230.0,1
127,127,-0.5621210172313699,-0.6,0.0,1.0,310.0,872.0,0.0,1,28.0,0
128,128,-0.13311721165910917,-0.1,1.0,0.0,494.0,829.0,1.0,1,-393.0,0
129,129,-0.8298968199932195,-0.8,0.0,1.0,423.0,916.0,1.0,0,71.0,1
130,130,0.2874709462721404,0.3,1.0,1.0,341.0,808.0,1.0,1,-309.0,1
131,131,-0.43588073069609384,-0.4,0.0,1.0,483.0,937.0,1.0,0,190.0,1
132,132,-0.13833754704537837,-0.1,0.0,1.0,474.0,813.0,0.0,1,-397.0,0
133,133,-0.31525965699800873,-0.3,0.0,1.0,350.0,569.0,1.0,0,-799.0,1
134,134,-0.2022128141122328,-0.2,1.0,0.0,294.0,595.0,1.0,1,-319.0,0
135,135,0.5937074673027404,0.6,1.0,1.0,378.0,592.0,0.0,0,-830.0,0
136,136,-0.08461284927672208,-0.1,0.0,1.0,399.0,911.0,0.0,1,-350.0,0
137,137,-0.8306022791099652,-0.8,1.0,0.0,277.0,978.0,1.0,1,95.0,0
138,138,-0.49370766377176273,-0.5,0.0,1.0,267.0,500.0,1.0,0,63.0,1
139,139,0.09600042637559525,0.1,1.0,1.0,424.0,805.0,1.0,1,-869.0,1
140,140,0.1975921962636703,0.2,0.0,0.0,447.0,964.0,0.0,1,-1251.0,1
141,141,-0.8029950942042192,-0.8,0.0,1.0,389.0,756.0,1.0,0,195.0,1
142,142,-0.6878838926476749,-0.7,0.0,1.0,274.0,824.0,0.0,1,-378.0,0
143,143,0.8771124786480645,0.9,1.0,1.0,363.0,916.0,1.0,1,-329.0,1
144,144,-0.534996317187743,-0.5,0.0,1.0,344.0,824.0,1.0,0,162.0,1
145,145,-0.6467976425591835,-0.6,1.0,0.0,356.0,899.0,1.0,1,-1165.0,0
146,146,0.826450265119487,0.8,0.0,0.0,461.0,743.0,0.0,1,-34.0,1
147,147,0.3432677145669062,0.3,0.0,0.0,337.0,834.0,0.0,1,-311.0,1
148,148,-0.5915951875538468,-0.6,0.0,1.0,470.0,718.0,0.0,1,12.0,0
149,149,0.21579446353150245,0.2,1.0,1.0,319.0,678.0,1.0,1,43.0,1
150,150,0.8615337337503769,0.9,1.0,1.0,288.0,728.0,1.0,1,-886.0,1
151,151,-0.8241131373550916,-0.8,1.0,0.0,256.0,640.0,0.0,0,-746.0,1
152,152,0.643247317622707,0.6,0.0,0.0,436.0,935.0,0.0,1,-31.0,1
153,153,-0.7950155682384376,-0.8,1.0,0.0,277.0,752.0,1.0,1,-579.0,0
154,154,-0.8766868187911548,-0.9,1.0,0.0,341.0,860.0,1.0,1,-831.0,0
155,155,0.6445463597011919,0.6,1.0,1.0,325.0,967.0,0.0,0,-262.0,0
156,156,0.06261933614080717,0.1,1.0,1.0,448.0,957.0,0.0,0,-395.0,0
157,157,-0.6644018974109619,-0.7,1.0,0.0,410.0,881.0,1.0,1,-431.0,0
158,158,0.08147008232457353,0.1,1.0,1.0,356.0,701.0,1.0,1,473.0,1
159,159,-0.4178530918421243,-0.4,1.0,0.0,314.0,673.0,1.0,1,-337.0,0
160,160,0.42086117459662764,0.4,0.0,0.0,475.0,814.0,0.0,1,-1049.0,1
161,161,0.1982217152947,0.2,1.0,1.0,490.0,653.0,1.0,1,117.0,1
162,162,-0.18603740302206506,-0.2,0.0,1.0,408.0,917.0,1.0,0,-885.0,1
163,163,-0.5846019819867274,-0.6,1.0,0.0,385.0,695.0,0.0,0,140.0,1
164,164,0.578402948047449,0.6,1.0,1.0,289.0,672.0,1.0,1,-201.0,1
165,165,-0.32078392529640887,-0.3,1.0,0.0,295.0,693.0,1.0,1,32.0,0
166,166,0.8599213876505548,0.9,1.0,1.0,486.0,751.0,1.0,1,193.0,1
167,167,0.34981275884562424,0.3,1.0,1.0,322.0,879.0,1.0,1,49.0,1
168,168,0.13750493466775604,0.1,1.0,1.0,292.0,535.0,1.0,1,-627.0,1
169,169,-0.0644130082756933,-0.1,1.0,0.0,347.0,597.0,0.0,0,66.0,1
170,170,0.4442935958727231,0.4,1.0,1.0,314.0,606.0,1.0,1,450.0,1
171,171,-0.15484093597397808,-0.2,0.0,1.0,327.0,779.0,1.0,0,184.0,1
172,172,-0.4933713252386412,-0.5,0.0,1.0,416.0,719.0,0.0,1,-115.0,0
173,173,0.3616859342010891,0.4,1.0,1.0,479.0,699.0,0.0,0,-1048.0,0
174,174,-0.241786611569901,-0.2,0.0,1.0,291.0,624.0,1.0,0,45.0,1
175,175,-0.4676412673529379,-0.5,1.0,0.0,383.0,996.0,1.0,1,-1349.0,0
176,176,-0.5465427909704268,-0.5,0.0,1.0,398.0,627.0,1.0,0,125.0,1
177,177,0.6256284447162982,0.6,0.0,0.0,466.0,962.0,0.0,1,-1068.0,1
178,178,0.6606060287246104,0.7,1.0,1.0,421.0,580.0,1.0,1,-61.0,1
179,179,0.17169752810690475,0.2,0.0,0.0,350.0,786.0,1.0,0,-876.0,0
180,180,0.1982133060664456,0.2,0.0,0.0,405.0,977.0,0.0,1,178.0,1
181,181,0.5504758640543482,0.6,0.0,0.0,285.0,885.0,0.0,1,-660.0,1
182,182,0.09079682201876138,0.1,0.0,0.0,252.0,991.0,0.0,1,-333.0,1
183,183,-0.45835585957037406,-0.5,0.0,1.0,384.0,770.0,0.0,1,76.0,0
184,184,-0.18087556728734455,-0.2,1.0,0.0,415.0,754.0,0.0,0,111.0,1
185,185,-0.5060545941263577,-0.5,1.0,0.0,342.0,679.0,0.0,0,-851.0,1
186,186,0.7264132538920366,0.7,1.0,1.0,488.0,784.0,1.0,1,-1212.0,1
187,187,-0.8256729161965024,-0.8,0.0,1.0,493.0,959.0,1.0,0,148.0,1
188,188,-0.44481296530644476,-0.4,1.0,0.0,313.0,575.0,0.0,0,-238.0,1
189,189,-0.6891599891270609,-0.7,1.0,0.0,417.0,986.0,1.0,1,-943.0,0
190,190,0.6771328058206637,0.7,0.0,0.0,279.0,673.0,0.0,1,58.0,1
191,191,-0.13657202082806286,-0.1,1.0,0.0,365.0,679.0,0.0,0,306.0,1
192,192,0.20273904104040186,0.2,0.0,0.0,269.0,739.0,1.0,0,52.0,0
193,193,-0.5785004798535995,-0.6,1.0,0.0,274.0,838.0,1.0,1,-232.0,0
194,194,-0.19882812542577932,-0.2,1.0,0.0,437.0,732.0,0.0,0,-349.0,1
195,195,-0.20751030850571928,-0.2,1.0,0.0,408.0,829.0,1.0,1,-1147.0,0
196,196,0.3490741319687224,0.3,1.0,1.0,320.0,525.0,1.0,1,125.0,1
197,197,0.7370139302099398,0.7,1.0,1.0,422.0,578.0,1.0,1,50.0,1
198,198,-0.707888326242024,-0.7,0.0,1.0,462.0,683.0,1.0,0,85.0,1
199,199,-0.2569596244718777,-0.3,1.0,0.0,417.0,680.0,1.0,1,33.0,0
200,200,0.6541682678525141,0.7,1.0,1.0,265.0,618.0,1.0,1,-853.0,1
201,201,0.10029283148040558,0.1,1.0,1.0,414.0,660.0,1.0,1,-874.0,1
202,202,0.6172170663281235,0.6,0.0,0.0,465.0,658.0,1.0,0,57.0,0
203,203,0.07641309511848227,0.1,1.0,1.0,282.0,804.0,1.0,1,-326.0,1
204,204,-0.7248611842741425,-0.7,0.0,1.0,274.0,569.0,1.0,0,57.0,1
205,205,0.18335530966579305,0.2,0.0,0.0,312.0,551.0,0.0,1,67.0,1
206,206,0.838028726300526,0.8,1.0,1.0,339.0,941.0,1.0,1,60.0,1
207,207,-0.10105059510941672,-0.1,1.0,0.0,283.0,795.0,1.0,1,-368.0,0
208,208,-0.5630560059114602,-0.6,1.0,0.0,431.0,515.0,1.0,1,64.0,0
209,209,0.05281273356041383,0.1,1.0,1.0,442.0,741.0,0.0,0,-1073.0,0
210,210,0.6332067689036912,0.6,1.0,1.0,326.0,604.0,1.0,1,70.0,1
211,211,-0.34533253085514304,-0.3,1.0,0.0,292.0,679.0,1.0,1,-491.0,0
212,212,0.8476587976760962,0.8,1.0,1.0,253.0,691.0,0.0,0,-664.0,0
213,213,0.8121703942260977,0.8,0.0,0.0,459.0,957.0,0.0,1,-386.0,1
214,214,-0.11940363214561267,-0.1,1.0,0.0,279.0,983.0,1.0,1,-42.0,0
215,215,-0.6453563893351868,-0.6,1.0,0.0,427.0,825.0,1.0,1,-412.0,0
216,216,0.6005112166054213,0.6,0.0,0.0,383.0,956.0,0.0,1,231.0,1
217,217,0.04201236873656089,0.0,1.0,1.0,409.0,831.0,0.0,0,-1130.0,0
218,218,0.6117124722096107,0.6,1.0,1.0,332.0,516.0,1.0,1,-148.0,1
219,219,0.3051314918312761,0.3,1.0,1.0,343.0,984.0,1.0,1,-417.0,1
220,220,0.8746096042379855,0.9,1.0,1.0,481.0,914.0,1.0,1,45.0,1
221,221,-0.6098550195657035,-0.6,1.0,0.0,260.0,891.0,0.0,0,-711.0,1
222,222,-0.718973056289447,-0.7,1.0,0.0,298.0,622.0,0.0,0,30.0,1
223,223,-0.27338372730319593,-0.3,0.0,1.0,432.0,611.0,1.0,0,77.0,1
224,224,-0.6931795666891706,-0.7,1.0,0.0,367.0,783.0,1.0,1,120.0,0
225,225,-0.6917864734252261,-0.7,1.0,0.0,378.0,894.0,0.0,0,-202.0,1
226,226,0.7480873205421888,0.7,0.0,0.0,450.0,824.0,0.0,1,-304.0,1
227,227,0.7262889110601972,0.7,0.0,0.0,477.0,940.0,0.0,1,-937.0,1
228,228,0.5766633685656245,0.6,1.0,1.0,254.0,826.0,1.0,1,-1040.0,1
229,229,0.46816220678470477,0.5,1.0,1.0,263.0,790.0,0.0,0,-53.0,0
230,230,-0.3353619802690897,-0.3,0.0,1.0,375.0,664.0,0.0,1,61.0,0
231,231,-0.6848637972516801,-0.7,0.0,1.0,335.0,641.0,1.0,0,-606.0,1
232,232,-0.728266990011969,-0.7,1.0,0.0,422.0,784.0,0.0,0,-556.0,1
233,233,-0.7666846734783382,-0.8,1.0,0.0,488.0,976.0,0.0,0,-624.0,1
234,234,0.40446329711582363,0.4,1.0,1.0,439.0,801.0,0.0,0,50.0,0
235,235,-0.3454133812244651,-0.3,1.0,0.0,491.0,533.0,1.0,1,-444.0,0
236,236,-0.8122255679593257,-0.8,1.0,0.0,275.0,985.0,0.0,0,110.0,1
237,237,0.29266225393856315,0.3,0.0,0.0,372.0,997.0,0.0,1,-289.0,1
238,238,0.2592568258467437,0.3,1.0,1.0,482.0,706.0,0.0,0,-1048.0,0
239,239,0.7809119388555924,0.8,0.0,0.0,456.0,848.0,0.0,1,46.0,1
240,240,-0.10801567910610077,-0.1,1.0,0.0,412.0,614.0,1.0,1,-156.0,0
241,241,0.4265461843323569,0.4,1.0,1.0,312.0,806.0,1.0,1,-1108.0,1
242,242,-0.7041863695370234,-0.7,1.0,0.0,355.0,827.0,1.0,1,28.0,0
243,243,-0.8901298291258675,-0.9,0.0,1.0,377.0,924.0,1.0,0,-731.0,1
244,244,-0.3782153880903312,-0.4,1.0,0.0,430.0,535.0,1.0,1,-435.0,0
245,245,-0.22033684489403016,-0.2,1.0,0.0,370.0,764.0,1.0,1,36.0,0
246,246,0.5539605446146741,0.6,1.0,1.0,333.0,964.0,1.0,1,-137.0,1
247,247,-0.03587901862911491,-0.0,1.0,0.0,404.0,749.0,1.0,1,-13.0,0
248,248,0.7669244176849804,0.8,0.0,0.0,377.0,801.0,1.0,0,-688.0,0
249,249,-0.28147951157522566,-0.3,1.0,0.0,429.0,779.0,0.0,0,-1178.0,1
250,250,0.8982641178142924,0.9,0.0,0.0,445.0,682.0,0.0,1,33.0,1
251,251,-0.48325484227992344,-0.5,1.0,0.0,364.0,659.0,0.0,0,-283.0,1
252,252,0.036675105348871306,0.0,0.0,0.0,291.0,720.0,0.0,1,39.0,1
253,253,0.5639552450208548,0.6,1.0,1.0,453.0,600.0,1.0,1,37.0,1
254,254,0.10084796643718319,0.1,0.0,0.0,382.0,516.0,1.0,0,62.0,0
255,255,0.27110867879935496,0.3,1.0,1.0,425.0,686.0,0.0,0,-1061.0,0
256,256,-0.006071789886036627,-0.0,1.0,0.0,347.0,605.0,0.0,0,108.0,1
257,257,0.7596659060379932,0.8,1.0,1.0,464.0,559.0,0.0,0,17.0,0
258,258,0.007408742437663873,0.0,0.0,0.0,476.0,837.0,0.0,1,27.0,1
259,259,-0.8190373781996186,-0.8,1.0,0.0,303.0,795.0,0.0,0,32.0,1
260,260,0.8850611635789912,0.9,1.0,1.0,380.0,658.0,1.0,1,-458.0,1
261,261,-0.11020973269204737,-0.1,0.0,1.0,280.0,827.0,0.0,1,-57.0,0
262,262,-0.3420546290325134,-0.3,1.0,0.0,368.0,561.0,0.0,0,781.0,1
263,263,-0.765694217807838,-0.8,0.0,1.0,466.0,754.0,1.0,0,-710.0,1
264,264,-0.7055315230420229,-0.7,1.0,0.0,472.0,696.0,0.0,0,-1018.0,1
265,265,-0.37860267744908294,-0.4,0.0,1.0,464.0,508.0,0.0,1,-452.0,0
266,266,0.1572085376684148,0.2,1.0,1.0,291.0,957.0,0.0,0,32.0,0
267,267,0.7925404540695878,0.8,0.0,0.0,465.0,907.0,0.0,1,58.0,1
268,268,-0.7966621445029433,-0.8,1.0,0.0,274.0,618.0,1.0,1,-202.0,0
269,269,0.6577571164658952,0.7,1.0,1.0,382.0,756.0,1.0,1,2.0,1
270,270,0.738566356429828,0.7,0.0,0.0,481.0,579.0,0.0,1,-1050.0,1
271,271,0.6256949501732653,0.6,1.0,1.0,277.0,749.0,1.0,1,-36.0,1
272,272,-0.2654551760004361,-0.3,0.0,1.0,391.0,811.0,0.0,1,-392.0,0
273,273,-0.7675049755803266,-0.8,0.0,1.0,287.0,816.0,1.0,0,137.0,1
274,274,0.07704093826409353,0.1,1.0,1.0,391.0,669.0,1.0,1,60.0,1
275,275,-0.3333100614886779,-0.3,0.0,1.0,392.0,839.0,0.0,1,-1081.0,0
276,276,-0.4470224276091332,-0.4,0.0,1.0,379.0,749.0,0.0,1,62.0,0
277,277,-0.7678410592975927,-0.8,0.0,1.0,494.0,547.0,1.0,0,59.0,1
278,278,0.3417585996726248,0.3,0.0,0.0,278.0,678.0,0.0,1,204.0,1
279,279,-0.19241628574201597,-0.2,0.0,1.0,436.0,694.0,0.0,1,-530.0,0
280,280,0.6533148565197379,0.7,0.0,0.0,419.0,904.0,0.0,1,-1313.0,1
281,281,-0.7568172500739627,-0.8,0.0,1.0,259.0,962.0,1.0,0,-1211.0,1
282,282,-0.39685836662798013,-0.4,1.0,0.0,487.0,624.0,1.0,1,-1051.0,0
283,283,-0.7817570089587889,-0.8,0.0,1.0,369.0,969.0,0.0,1,22.0,0
284,284,0.4026279597598915,0.4,0.0,0.0,305.0,681.0,0.0,1,94.0,1
285,285,-0.6269578625137369,-0.6,1.0,0.0,457.0,855.0,1.0,1,-102.0,0
286,286,-0.8255978758117072,-0.8,1.0,0.0,282.0,962.0,1.0,1,-4.0,0
287,287,0.7750452435298779,0.8,1.0,1.0,418.0,616.0,1.0,1,-104.0,1
288,288,-0.5420623499253929,-0.5,0.0,1.0,480.0,960.0,0.0,1,-1280.0,0
289,289,-0.7395614847031867,-0.7,1.0,0.0,278.0,861.0,1.0,1,-419.0,0
290,290,0.44060094338224787,0.4,1.0,1.0,347.0,695.0,1.0,1,-282.0,1
291,291,0.1739658802131313,0.2,0.0,0.0,334.0,575.0,0.0,1,471.0,1
292,292,-0.5850160326279834,-0.6,1.0,0.0,430.0,743.0,0.0,0,-483.0,1
293,293,0.5148008157266585,0.5,1.0,1.0,427.0,555.0,1.0,1,108.0,1
294,294,0.2159123937046722,0.2,0.0,0.0,464.0,934.0,0.0,1,-188.0,1
295,295,0.12479718600869993,0.1,1.0,1.0,328.0,548.0,1.0,1,44.0,1
296,296,0.007766173277961919,0.0,0.0,0.0,366.0,650.0,1.0,0,84.0,0
297,297,0.5680736419473281,0.6,0.0,0.0,428.0,588.0,1.0,0,64.0,0
298,298,-0.4774812903094033,-0.5,1.0,0.0,448.0,718.0,1.0,1,34.0,0
299,299,0.2713043486298151,0.3,1.0,1.0,262.0,894.0,1.0,1,24.0,1
300,300,0.4915507449083053,0.5,1.0,1.0,293.0,926.0,1.0,1,-309.0,1
301,301,0.6878479437011137,0.7,0.0,0.0,410.0,611.0,1.0,0,399.0,0
302,302,-0.7132063325704063,-0.7,1.0,0.0,350.0,613.0,1.0,1,107.0,0
303,303,-0.44131658298940185,-0.4,1.0,0.0,264.0,581.0,1.0,1,-115.0,0
304,304,0.33265579064410933,0.3,0.0,0.0,298.0,710.0,0.0,1,-18.0,1
305,305,-0.7818729000388036,-0.8,0.0,1.0,402.0,563.0,1.0,0,65.0,1
306,306,-0.600842029785182,-0.6,1.0,0.0,420.0,806.0,1.0,1,-216.0,0
307,307,-0.4054908775082309,-0.4,0.0,1.0,314.0,871.0,1.0,0,75.0,1
308,308,0.009570224929627669,0.0,1.0,1.0,300.0,648.0,0.0,0,-458.0,0
309,309,0.5872975044359529,0.6,0.0,0.0,461.0,760.0,0.0,1,-521.0,1
310,310,-0.876502538771128,-0.9,1.0,0.0,302.0,953.0,1.0,1,-695.0,0
311,311,0.5560308498452494,0.6,0.0,0.0,344.0,980.0,0.0,1,-134.0,1
312,312,0.6613456629794129,0.7,0.0,0.0,417.0,517.0,1.0,0,-674.0,0
313,313,0.18777878361209177,0.2,0.0,0.0,498.0,644.0,1.0,0,38.0,0
314,314,-0.5517937480217494,-0.6,0.0,1.0,255.0,773.0,0.0,1,-8.0,0
315,315,-0.4798106488273341,-0.5,1.0,0.0,348.0,747.0,1.0,1,-195.0,0
316,316,0.6715087534731027,0.7,1.0,1.0,488.0,675.0,1.0,1,67.0,1
317,317,-0.43213396995818065,-0.4,0.0,1.0,251.0,751.0,1.0,0,-602.0,1
318,318,-0.41658849059005953,-0.4,0.0,1.0,251.0,720.0,0.0,1,19.0,0
319,319,-0.4361518192413504,-0.4,0.0,1.0,473.0,749.0,0.0,1,-52.0,0
320,320,-0.6831972452005273,-0.7,0.0,1.0,419.0,873.0,1.0,0,-572.0,1
321,321,-0.5736861639914578,-0.6,1.0,0.0,380.0,886.0,1.0,1,-1226.0,0
322,322,0.001687888190893272,0.0,1.0,1.0,320.0,955.0,0.0,0,-5.0,0
323,323,0.7215926021463405,0.7,1.0,1.0,482.0,988.0,1.0,1,20.0,1
324,324,-0.292383913345575,-0.3,0.0,1.0,433.0,653.0,1.0,0,-1076.0,1
325,325,0.4051743716445121,0.4,0.0,0.0,368.0,898.0,1.0,0,144.0,0
326,326,0.35162928941750426,0.4,1.0,1.0,411.0,767.0,0.0,0,72.0,0
327,327,0.2250094701369284,0.2,1.0,1.0,479.0,725.0,1.0,1,26.0,1
328,328,-0.6777794110888744,-0.7,1.0,0.0,365.0,911.0,1.0,1,24.0,0
329,329,-0.34229243114145336,-0.3,1.0,0.0,297.0,815.0,1.0,1,48.0,0
330,330,-0.243955861091546,-0.2,1.0,0.0,479.0,706.0,1.0,1,-1065.0,0
331,331,-0.07778267942806016,-0.1,1.0,0.0,372.0,608.0,1.0,1,-60.0,0
332,332,0.6955181518413901,0.7,1.0,1.0,375.0,642.0,1.0,1,43.0,1
333,333,-0.06932497922952174,-0.1,0.0,1.0,397.0,936.0,0.0,1,-833.0,0
334,334,0.46230138247013686,0.5,1.0,1.0,430.0,772.0,1.0,1,-772.0,1
335,335,-0.7805693360339578,-0.8,1.0,0.0,484.0,720.0,0.0,0,26.0,1
336,336,-0.5369278679447815,-0.5,1.0,0.0,287.0,532.0,0.0,0,211.0,1
337,337,0.7778974506016701,0.8,1.0,1.0,476.0,774.0,1.0,1,-580.0,1
338,338,-0.4354207641776062,-0.4,1.0,0.0,352.0,907.0,1.0,1,-219.0,0
339,339,0.166318026025717,0.2,1.0,1.0,391.0,950.0,1.0,1,49.0,1
340,340,-0.4373425731578372,-0.4,0.0,1.0,285.0,906.0,0.0,1,9.0,0
341,341,0.683736132813484,0.7,1.0,1.0,306.0,635.0,1.0,1,359.0,1
342,342,0.44130721082716284,0.4,1.0,1.0,389.0,886.0,1.0,1,285.0,1
343,343,-0.746396817680042,-0.7,1.0,0.0,406.0,719.0,1.0,1,45.0,0
344,344,0.09878043311447349,0.1,0.0,0.0,273.0,554.0,1.0,0,73.0,0
345,345,0.724215477854467,0.7,0.0,0.0,378.0,977.0,0.0,1,-345.0,1
346,346,0.21483985433322295,0.2,0.0,0.0,261.0,614.0,1.0,0,85.0,0
347,347,-0.010338767378128444,-0.0,1.0,0.0,470.0,751.0,1.0,1,-311.0,0
348,348,-0.30340764996941316,-0.3,0.0,1.0,330.0,503.0,1.0,0,87.0,1
349,349,0.885935472289806,0.9,1.0,1.0,347.0,682.0,0.0,0,-229.0,0
350,350,0.1956953589665108,0.2,0.0,0.0,318.0,875.0,1.0,0,127.0,0
351,351,-0.6835154301362093,-0.7,1.0,0.0,347.0,771.0,0.0,0,92.0,1
352,352,0.43840540315839294,0.4,1.0,1.0,396.0,978.0,1.0,1,236.0,1
353,353,0.43502085534993273,0.4,1.0,1.0,444.0,638.0,1.0,1,-472.0,1
354,354,0.0657530749339178,0.1,1.0,1.0,276.0,681.0,1.0,1,113.0,1
355,355,0.6669445086308797,0.7,1.0,1.0,299.0,997.0,0.0,0,-416.0,0
356,356,-0.08223475395030011,-0.1,1.0,0.0,317.0,983.0,0.0,0,-820.0,1
357,357,0.5282822071765833,0.5,1.0,1.0,345.0,942.0,1.0,1,3.0,1
358,358,-0.36216520923028184,-0.4,0.0,1.0,476.0,899.0,1.0,0,-1335.0,1
359,359,-0.09806997750319235,-0.1,0.0,1.0,390.0,650.0,0.0,1,30.0,0
360,360,-0.775979440087902,-0.8,0.0,1.0,467.0,510.0,1.0,0,143.0,1
361,361,0.8614852190429417,0.9,1.0,1.0,284.0,545.0,0.0,0,1.0,0
362,362,-0.7310167459663999,-0.7,0.0,1.0,382.0,681.0,0.0,1,-933.0,0
363,363,-0.48671696543970894,-0.5,1.0,0.0,432.0,721.0,1.0,1,-903.0,0
364,364,-0.15847350415872175,-0.2,1.0,0.0,266.0,517.0,1.0,1,637.0,0
365,365,-0.32755474375251215,-0.3,1.0,0.0,391.0,648.0,1.0,1,11.0,0
366,366,0.8046496025926705,0.8,1.0,1.0,298.0,619.0,1.0,1,53.0,1
367,367,0.42093786227089713,0.4,0.0,0.0,395.0,797.0,0.0,1,-422.0,1
368,368,-0.12050241272838735,-0.1,0.0,1.0,423.0,622.0,1.0,0,185.0,1
369,369,0.6892570153439722,0.7,0.0,0.0,280.0,714.0,1.0,0,126.0,0
370,370,0.5185596666581799,0.5,1.0,1.0,396.0,621.0,0.0,0,13.0,0
371,371,-0.1696029428909499,-0.2,1.0,0.0,266.0,596.0,1.0,1,-732.0,0
372,372,-0.3515482045930638,-0.4,0.0,1.0,415.0,945.0,0.0,1,-30.0,0
373,373,0.07250221173968519,0.1,0.0,0.0,408.0,502.0,0.0,1,-440.0,1
374,374,0.4541640377510535,0.5,0.0,0.0,391.0,927.0,0.0,1,-118.0,1
375,375,-0.45242187836198205,-0.5,0.0,1.0,316.0,950.0,1.0,0,94.0,1
376,376,-0.5387493201370677,-0.5,1.0,0.0,301.0,984.0,1.0,1,-465.0,0
377,377,0.1383797292252461,0.1,0.0,0.0,408.0,945.0,1.0,0,-693.0,0
378,378,0.13028803827122915,0.1,0.0,0.0,460.0,512.0,0.0,1,-942.0,1
379,379,-0.7527868580289903,-0.8,0.0,1.0,259.0,709.0,1.0,0,132.0,1
380,380,0.0885305267464801,0.1,1.0,1.0,344.0,574.0,1.0,1,82.0,1
381,381,0.7654199176946529,0.8,1.0,1.0,450.0,720.0,1.0,1,160.0,1
382,382,0.6942003595331135,0.7,1.0,1.0,435.0,892.0,1.0,1,13.0,1
383,383,0.4775171888868138,0.5,0.0,0.0,329.0,580.0,0.0,1,-339.0,1
384,384,-0.5248472290003492,-0.5,1.0,0.0,261.0,847.0,0.0,0,-798.0,1
385,385,0.815560298792008,0.8,0.0,0.0,464.0,530.0,1.0,0,-414.0,0
386,386,0.4921805506605107,0.5,1.0,1.0,344.0,696.0,1.0,1,-620.0,1
387,387,0.7773406137956355,0.8,0.0,0.0,262.0,507.0,1.0,0,81.0,0
388,388,-0.19099420870958106,-0.2,0.0,1.0,279.0,797.0,0.0,1,-376.0,0
389,389,0.2390283243578023,0.2,0.0,0.0,316.0,595.0,1.0,0,39.0,0
390,390,0.25164916025512396,0.3,1.0,1.0,315.0,665.0,1.0,1,-970.0,1
391,391,-0.2719415124895598,-0.3,0.0,1.0,343.0,768.0,0.0,1,-561.0,0
392,392,-0.8599577738209127,-0.9,1.0,0.0,299.0,989.0,1.0,1,-158.0,0
393,393,0.14492014104228657,0.1,0.0,0.0,274.0,941.0,0.0,1,-425.0,1
394,394,0.5607196587837763,0.6,0.0,0.0,316.0,791.0,0.0,1,-777.0,1
395,395,-0.771738453552037,-0.8,0.0,1.0,322.0,799.0,1.0,0,-821.0,1
396,396,0.8832959113794575,0.9,1.0,1.0,353.0,843.0,0.0,0,-196.0,0
397,397,-0.09685323576522831,-0.1,0.0,1.0,394.0,950.0,0.0,1,-964.0,0
398,398,0.43207743032967494,0.4,0.0,0.0,292.0,866.0,0.0,1,32.0,1
399,399,-0.7092307140181394,-0.7,1.0,0.0,438.0,758.0,0.0,0,94.0,1
400,400,-0.5670182492136344,-0.6,1.0,0.0,431.0,680.0,1.0,1,19.0,0
401,401,-0.4512871530146594,-0.5,0.0,1.0,291.0,961.0,1.0,0,-1132.0,1
402,402,-0.8034493924791214,-0.8,0.0,1.0,388.0,773.0,1.0,0,109.0,1
403,403,0.32608009885188116,0.3,0.0,0.0,315.0,546.0,1.0,0,59.0,0
404,404,0.6838008155765972,0.7,1.0,1.0,434.0,565.0,1.0,1,31.0,1
405,405,-0.2549083693821863,-0.3,0.0,1.0,298.0,783.0,0.0,1,-351.0,0
406,406,0.24054202184812856,0.2,1.0,1.0,260.0,830.0,1.0,1,-130.0,1
407,407,-0.6248666573684742,-0.6,0.0,1.0,327.0,720.0,1.0,0,293.0,1
408,408,-0.864875459343965,-0.9,0.0,1.0,373.0,963.0,0.0,1,-336.0,0
409,409,0.4923582964258585,0.5,1.0,1.0,383.0,818.0,1.0,1,-361.0,1
410,410,-0.01569037409334273,-0.0,0.0,1.0,283.0,609.0,1.0,0,-182.0,1
411,411,0.19013150513216737,0.2,1.0,1.0,276.0,507.0,1.0,1,57.0,1
412,412,0.8777384268239657,0.9,0.0,0.0,432.0,936.0,0.0,1,-468.0,1
413,413,-0.05963069989897496,-0.1,0.0,1.0,271.0,617.0,1.0,0,-558.0,1
414,414,-0.6271355233245337,-0.6,0.0,1.0,478.0,904.0,0.0,1,28.0,0
415,415,0.8026683274766667,0.8,1.0,1.0,284.0,618.0,1.0,1,98.0,1
416,416,0.8036337463974353,0.8,0.0,0.0,324.0,939.0,0.0,1,17.0,1
417,417,0.31328629849525547,0.3,0.0,0.0,367.0,987.0,0.0,1,-114.0,1
418,418,0.7672580377676613,0.8,0.0,0.0,323.0,665.0,0.0,1,112.0,1
419,419,-0.04533512675044915,-0.0,0.0,1.0,396.0,638.0,1.0,0,116.0,1
420,420,-0.0879601417772371,-0.1,1.0,0.0,350.0,989.0,1.0,1,-19.0,0
421,421,-0.7267454665999757,-0.7,1.0,0.0,429.0,855.0,1.0,1,126.0,0
422,422,-0.2758592714127266,-0.3,1.0,0.0,347.0,972.0,1.0,1,-429.0,0
423,423,-0.25421050080354035,-0.3,0.0,1.0,425.0,995.0,1.0,0,270.0,1
424,424,-0.5099424035663587,-0.5,1.0,0.0,309.0,965.0,1.0,1,16.0,0
425,425,-0.43874795608309514,-0.4,1.0,0.0,440.0,717.0,0.0,0,-1127.0,1
426,426,0.5434339883825544,0.5,0.0,0.0,321.0,894.0,0.0,1,-165.0,1
427,427,-0.49278110830241895,-0.5,1.0,0.0,311.0,588.0,0.0,0,101.0,1
428,428,0.7542206177919678,0.8,1.0,1.0,412.0,955.0,0.0,0,23.0,0
429,429,-0.6490247754502052,-0.6,0.0,1.0,494.0,662.0,0.0,1,-436.0,0
430,430,0.545992919260648,0.5,1.0,1.0,427.0,650.0,0.0,0,-467.0,0
431,431,0.20786795123044832,0.2,0.0,0.0,421.0,818.0,0.0,1,51.0,1
432,432,0.7035467083778942,0.7,0.0,0.0,340.0,828.0,1.0,0,72.0,0
433,433,-0.014940834793088609,-0.0,0.0,1.0,306.0,806.0,0.0,1,48.0,0
434,434,0.47281409117755346,0.5,1.0,1.0,274.0,902.0,1.0,1,-1156.0,1
435,435,0.7548653877147956,0.8,0.0,0.0,330.0,874.0,0.0,1,-284.0,1
436,436,0.3303761341998409,0.3,0.0,0.0,328.0,586.0,1.0,0,86.0,0
437,437,-0.29999751971737887,-0.3,0.0,1.0,387.0,675.0,1.0,0,88.0,1
438,438,0.1331653151403397,0.1,1.0,1.0,304.0,971.0,1.0,1,35.0,1
439,439,0.24934579451471695,0.2,1.0,1.0,351.0,579.0,1.0,1,-370.0,1
440,440,-0.3973798987409263,-0.4,1.0,0.0,359.0,751.0,1.0,1,10.0,0
441,441,0.3572885323793723,0.4,0.0,0.0,256.0,925.0,0.0,1,-51.0,1
442,442,0.024152256210188572,0.0,1.0,1.0,385.0,566.0,1.0,1,99.0,1
443,443,0.4839343442522269,0.5,0.0,0.0,357.0,977.0,1.0,0,-1244.0,0
444,444,-0.022858110390041153,-0.0,0.0,1.0,493.0,789.0,0.0,1,28.0,0
445,445,0.34407574456161616,0.3,0.0,0.0,330.0,818.0,0.0,1,12.0,1
446,446,-0.7603748532046881,-0.8,0.0,1.0,273.0,835.0,1.0,0,-1098.0,1
447,447,-0.3097878652293766,-0.3,1.0,0.0,464.0,831.0,0.0,0,-355.0,1
448,448,-0.5558687622993568,-0.6,1.0,0.0,396.0,994.0,0.0,0,40.0,1
449,449,0.536905181337853,0.5,0.0,0.0,427.0,823.0,0.0,1,30.0,1
450,450,0.10888217530471189,0.1,0.0,0.0,438.0,819.0,1.0,0,-1007.0,0
451,451,-0.8492403877837811,-0.8,1.0,0.0,364.0,720.0,1.0,1,126.0,0
452,452,-0.03478608093852997,-0.0,1.0,0.0,299.0,968.0,1.0,1,-887.0,0
453,453,0.8084018756244385,0.8,0.0,0.0,334.0,964.0,1.0,0,62.0,0
454,454,0.28665367571207356,0.3,0.0,0.0,454.0,511.0,0.0,1,-55.0,1
455,455,-0.8827378788713384,-0.9,0.0,1.0,267.0,679.0,1.0,0,-726.0,1
456,456,0.49721505704576885,0.5,1.0,1.0,265.0,592.0,1.0,1,213.0,1
457,457,0.025210312866966844,0.0,0.0,0.0,401.0,617.0,0.0,1,-268.0,1
458,458,-0.34864712765015493,-0.3,0.0,1.0,419.0,779.0,0.0,1,-778.0,0
459,459,0.440804484366354,0.4,1.0,1.0,497.0,965.0,1.0,1,58.0,1
460,460,-0.5512237059703389,-0.6,1.0,0.0,389.0,879.0,0.0,0,-788.0,1
461,461,0.1925930927574343,0.2,1.0,1.0,407.0,576.0,1.0,1,-143.0,1
462,462,0.3012484334399933,0.3,0.0,0.0,329.0,581.0,1.0,0,90.0,0
463,463,0.6626267829534166,0.7,0.0,0.0,295.0,936.0,0.0,1,59.0,1
464,464,0.12630064385398632,0.1,0.0,0.0,354.0,598.0,1.0,0,-742.0,0
465,465,-0.1221289543954388,-0.1,1.0,0.0,368.0,657.0,1.0,1,35.0,0
466,466,0.6277363557407364,0.6,1.0,1.0,466.0,905.0,1.0,1,59.0,1
467,467,0.07144435256974924,0.1,1.0,1.0,492.0,877.0,1.0,1,-919.0,1
468,468,-0.5953633530169925,-0.6,0.0,1.0,354.0,586.0,0.0,1,-210.0,0
469,469,-0.28580931255942066,-0.3,0.0,1.0,264.0,734.0,1.0,0,62.0,1
470,470,0.1277189529693875,0.1,0.0,0.0,479.0,507.0,1.0,0,-856.0,0
471,471,-0.5630330774026162,-0.6,0.0,1.0,289.0,865.0,1.0,0,56.0,1
472,472,-0.8223357289860708,-0.8,0.0,1.0,470.0,538.0,0.0,1,-808.0,0
473,473,0.5774164449575695,0.6,1.0,1.0,339.0,544.0,0.0,0,-423.0,0
474,474,-0.6712056208857642,-0.7,0.0,1.0,444.0,534.0,1.0,0,-768.0,1
475,475,0.27019922726352485,0.3,0.0,0.0,418.0,791.0,0.0,1,-89.0,1
476,476,0.5136306163532941,0.5,0.0,0.0,357.0,829.0,0.0,1,-386.0,1
477,477,-0.8816709437725434,-0.9,1.0,0.0,329.0,606.0,1.0,1,45.0,0
478,478,-0.15441419299816728,-0.2,1.0,0.0,468.0,534.0,1.0,1,48.0,0
479,479,0.2350034979692469,0.2,0.0,0.0,337.0,956.0,0.0,1,-553.0,1
480,480,0.41691840226344723,0.4,0.0,0.0,354.0,632.0,1.0,0,74.0,0
481,481,-0.18309672306239977,-0.2,1.0,0.0,425.0,631.0,0.0,0,44.0,1
482,482,0.7524635639062031,0.8,1.0,1.0,407.0,695.0,1.0,1,18.0,1
483,483,-0.42670767506133894,-0.4,1.0,0.0,282.0,758.0,1.0,1,30.0,0
484,484,0.3580544305867678,0.4,1.0,1.0,299.0,583.0,1.0,1,28.0,1
485,485,-0.5860326772343485,-0.6,1.0,0.0,305.0,771.0,0.0,0,664.0,1
486,486,-0.30214122936140186,-0.3,1.0,0.0,374.0,985.0,1.0,1,-209.0,0
487,487,-0.7145649794317235,-0.7,0.0,1.0,493.0,764.0,0.0,1,43.0,0
488,488,-0.340239697286845,-0.3,0.0,1.0,303.0,709.0,0.0,1,-42.0,0
489,489,-0.020907875050862668,-0.0,0.0,1.0,395.0,825.0,0.0,1,-290.0,0
490,490,-0.19102169437289096,-0.2,0.0,1.0,494.0,634.0,1.0,0,92.0,1
491,491,0.179823968919688,0.2,0.0,0.0,303.0,585.0,0.0,1,182.0,1
492,492,-0.34464659209036874,-0.3,0.0,1.0,494.0,729.0,0.0,1,-1203.0,0
493,493,-0.46167514323868947,-0.5,1.0,0.0,325.0,568.0,0.0,0,237.0,1
494,494,0.7084401611881289,0.7,0.0,0.0,496.0,529.0,1.0,0,145.0,0
495,495,-0.5660127991087052,-0.6,0.0,1.0,425.0,717.0,1.0,0,138.0,1
496,496,0.10859121358473678,0.1,1.0,1.0,448.0,861.0,1.0,1,-139.0,1
497,497,-0.3965755132796627,-0.4,1.0,0.0,492.0,603.0,1.0,1,65.0,0
498,498,0.8740353561281736,0.9,1.0,1.0,315.0,655.0,1.0,1,100.0,1
499,499,-0.8305262909899782,-0.8,1.0,0.0,375.0,729.0,1.0,1,-1044.0,0
500,500,0.7071646109692228,0.7,1.0,1.0,265.0,602.0,0.0,0,-267.0,0
501,501,-0.38655265553093177,-0.4,1.0,0.0,385.0,713.0,1.0,1,-8.0,0
502,502,-0.8802722584891953,-0.9,0.0,1.0,490.0,603.0,1.0,0,77.0,1
503,503,-0.879413681284072,-0.9,1.0,0.0,253.0,720.0,0.0,0,97.0,1
504,504,0.020786286458808534,0.0,1.0,1.0,329.0,901.0,0.0,0,-960.0,0
505,505,0.6118068546129266,0.6,1.0,1.0,446.0,610.0,1.0,1,124.0,1
506,506,0.6530871582490289,0.7,0.0,0.0,479.0,638.0,0.0,1,13.0,1
507,507,0.8895370721720045,0.9,1.0,1.0,313.0,615.0,1.0,1,-218.0,1
508,508,-0.317151668791364,-0.3,0.0,1.0,375.0,885.0,0.0,1,-430.0,0
509,509,0.1881555605840758,0.2,0.0,0.0,257.0,876.0,1.0,0,27.0,0
510,510,0.7060431866467162,0.7,0.0,0.0,461.0,505.0,0.0,1,-886.0,1
511,511,-0.30926879196582846,-0.3,0.0,1.0,482.0,962.0,0.0,1,-114.0,0
512,512,-0.5571527249656233,-0.6,0.0,1.0,263.0,601.0,0.0,1,-774.0,0
513,513,0.49468059354801464,0.5,0.0,0.0,418.0,636.0,0.0,1,-74.0,1
514,514,0.7029771166080202,0.7,1.0,1.0,457.0,641.0,1.0,1,192.0,1
515,515,-0.860695055326141,-0.9,1.0,0.0,252.0,674.0,0.0,0,154.0,1
516,516,0.025150161514332803,0.0,0.0,0.0,389.0,993.0,0.0,1,48.0,1
517,517,0.1965519037270803,0.2,1.0,1.0,496.0,532.0,0.0,0,32.0,0
518,518,-0.7898349290832255,-0.8,0.0,1.0,386.0,722.0,1.0,0,82.0,1
519,519,-0.8305181547904765,-0.8,1.0,0.0,394.0,956.0,0.0,0,-1100.0,1
520,520,-0.18279543388574027,-0.2,0.0,1.0,327.0,972.0,0.0,1,-519.0,0
521,521,0.5296433882062245,0.5,0.0,0.0,441.0,819.0,1.0,0,-810.0,0
522,522,0.28453680632231293,0.3,0.0,0.0,256.0,615.0,1.0,0,79.0,0
523,523,-0.48595735988986627,-0.5,0.0,1.0,406.0,637.0,1.0,0,157.0,1
524,524,-0.43981758787537045,-0.4,0.0,1.0,382.0,798.0,1.0,0,400.0,1
525,525,-0.48196807304955064,-0.5,0.0,1.0,279.0,931.0,0.0,1,20.0,0
526,526,0.32206999285346016,0.3,0.0,0.0,252.0,794.0,1.0,0,-1006.0,0
527,527,0.38437362853732504,0.4,1.0,1.0,467.0,601.0,1.0,1,2.0,1
528,528,-0.7524168276992911,-0.8,0.0,1.0,268.0,910.0,1.0,0,102.0,1
529,529,-0.7986393309097775,-0.8,0.0,1.0,445.0,652.0,0.0,1,-237.0,0
530,530,0.33235886375361734,0.3,0.0,0.0,409.0,768.0,1.0,0,113.0,0
531,531,0.48857798724059587,0.5,0.0,0.0,335.0,915.0,1.0,0,-850.0,0
532,532,0.8500785049172018,0.9,1.0,1.0,256.0,645.0,1.0,1,-41.0,1
533,533,-0.29857117500201324,-0.3,1.0,0.0,457.0,647.0,0.0,0,26.0,1
534,534,0.32705731623492895,0.3,1.0,1.0,451.0,749.0,1.0,1,20.0,1
535,535,-0.6448479678462524,-0.6,1.0,0.0,251.0,987.0,0.0,0,202.0,1
536,536,0.09074929005965204,0.1,0.0,0.0,257.0,624.0,1.0,0,59.0,0
537,537,0.41541708881413475,0.4,0.0,0.0,313.0,668.0,0.0,1,109.0,1
538,538,0.6872781134475544,0.7,0.0,0.0,476.0,776.0,0.0,1,-702.0,1
539,539,-0.22428871602875045,-0.2,1.0,0.0,474.0,846.0,1.0,1,-740.0,0
540,540,-0.10658769690943282,-0.1,1.0,0.0,320.0,622.0,0.0,0,-142.0,1
541,541,-0.896779062759472,-0.9,1.0,0.0,338.0,926.0,1.0,1,-824.0,0
542,542,-0.059598212450621024,-0.1,1.0,0.0,287.0,668.0,1.0,1,35.0,0
543,543,0.5471077111014578,0.5,0.0,0.0,264.0,748.0,1.0,0,78.0,0
544,544,0.21799320992794613,0.2,1.0,1.0,467.0,894.0,1.0,1,79.0,1
545,545,-0.3779239177959365,-0.4,1.0,0.0,355.0,914.0,1.0,1,-189.0,0
546,546,-0.7215907502070977,-0.7,1.0,0.0,294.0,838.0,0.0,0,208.0,1
547,547,0.05411262255546978,0.1,1.0,1.0,409.0,689.0,1.0,1,22.0,1
548,548,0.6948599251699871,0.7,1.0,1.0,308.0,886.0,1.0,1,16.0,1
549,549,0.3216993002507874,0.3,0.0,0.0,339.0,802.0,0.0,1,19.0,1
550,550,0.4547061057365208,0.5,0.0,0.0,482.0,913.0,0.0,1,-1265.0,1
551,551,-0.4654328529236093,-0.5,1.0,0.0,445.0,852.0,1.0,1,43.0,0
552,552,0.08952559579786179,0.1,1.0,1.0,422.0,896.0,1.0,1,-848.0,1
553,553,0.28908220895139725,0.3,1.0,1.0,458.0,723.0,0.0,0,-881.0,0
554,554,-0.6775668874385656,-0.7,1.0,0.0,394.0,880.0,1.0,1,46.0,0
555,555,-0.010878299227692123,-0.0,1.0,0.0,327.0,986.0,1.0,1,-93.0,0
556,556,0.19177587364489013,0.2,1.0,1.0,462.0,904.0,1.0,1,-1366.0,1
557,557,0.5335923599057145,0.5,0.0,0.0,265.0,781.0,0.0,1,34.0,1
558,558,0.48331883418680144,0.5,0.0,0.0,494.0,545.0,0.0,1,141.0,1
559,559,0.37379551953193324,0.4,1.0,1.0,387.0,804.0,1.0,1,89.0,1
560,560,-0.8132882305589936,-0.8,1.0,0.0,464.0,884.0,1.0,1,-268.0,0
561,561,0.30137812284521714,0.3,0.0,0.0,420.0,833.0,0.0,1,-383.0,1
562,562,-0.6586557230738197,-0.7,1.0,0.0,304.0,817.0,0.0,0,59.0,1
563,563,-0.049138833339781196,-0.0,0.0,1.0,462.0,671.0,1.0,0,17.0,1
564,564,-0.40400911253554933,-0.4,0.0,1.0,436.0,933.0,1.0,0,81.0,1
565,565,-0.076886384472871,-0.1,0.0,1.0,273.0,824.0,0.0,1,-7.0,0
566,566,-0.43214101981285347,-0.4,0.0,1.0,440.0,709.0,0.0,1,-699.0,0
567,567,-0.3639811562851013,-0.4,1.0,0.0,317.0,541.0,0.0,0,22.0,1
568,568,-0.5572601450243637,-0.6,1.0,0.0,380.0,761.0,1.0,1,109.0,0
569,569,0.23686166174582401,0.2,0.0,0.0,473.0,585.0,0.0,1,72.0,1
570,570,0.7694647878800261,0.8,0.0,0.0,452.0,892.0,1.0,0,26.0,0
571,571,-0.8730742805882059,-0.9,0.0,1.0,462.0,512.0,0.0,1,-954.0,0
572,572,-0.004981643842489225,-0.0,1.0,0.0,323.0,682.0,1.0,1,-585.0,0
573,573,-0.1346246044007805,-0.1,0.0,1.0,448.0,574.0,1.0,0,158.0,1
574,574,0.8526697861366551,0.9,1.0,1.0,478.0,889.0,1.0,1,63.0,1
575,575,-0.7554315025501268,-0.8,0.0,1.0,269.0,654.0,0.0,1,-353.0,0
576,576,-0.031736278667222395,-0.0,0.0,1.0,334.0,614.0,0.0,1,-928.0,0
577,577,-0.5641413007931178,-0.6,0.0,1.0,410.0,824.0,0.0,1,-214.0,0
578,578,-0.8634313499940823,-0.9,1.0,0.0,407.0,545.0,0.0,0,208.0,1
579,579,0.577807133472222,0.6,1.0,1.0,370.0,816.0,1.0,1,34.0,1
580,580,0.4999593887475092,0.5,0.0,0.0,326.0,985.0,0.0,1,-961.0,1
581,581,0.7029586666710229,0.7,1.0,1.0,466.0,789.0,1.0,1,145.0,1
582,582,-0.2628572760522425,-0.3,1.0,0.0,402.0,602.0,1.0,1,56.0,0
583,583,-0.021185520503735566,-0.0,1.0,0.0,454.0,678.0,0.0,0,-292.0,1
584,584,0.14149838979830942,0.1,0.0,0.0,292.0,763.0,0.0,1,-255.0,1
585,585,-0.030921425400934455,-0.0,0.0,1.0,473.0,565.0,1.0,0,52.0,1
586,586,0.7130475757465032,0.7,0.0,0.0,391.0,649.0,0.0,1,70.0,1
587,587,0.1988204561436847,0.2,0.0,0.0,422.0,580.0,1.0,0,158.0,0
588,588,-0.6532352315806711,-0.7,0.0,1.0,282.0,684.0,0.0,1,-76.0,0
589,589,0.4591800039839581,0.5,1.0,1.0,486.0,561.0,1.0,1,123.0,1
590,590,-0.8694260614933328,-0.9,1.0,0.0,383.0,694.0,1.0,1,53.0,0
591,591,0.6510802124610103,0.7,0.0,0.0,444.0,997.0,0.0,1,-381.0,1
592,592,0.6987934136106299,0.7,1.0,1.0,450.0,580.0,1.0,1,350.0,1
593,593,-0.24203935542820754,-0.2,0.0,1.0,315.0,573.0,0.0,1,22.0,0
594,594,-0.05846307988407484,-0.1,1.0,0.0,263.0,889.0,1.0,1,-302.0,0
595,595,-0.7975119109227646,-0.8,0.0,1.0,292.0,834.0,0.0,1,34.0,0
596,596,0.49567199251033045,0.5,1.0,1.0,467.0,678.0,1.0,1,-415.0,1
597,597,0.22031360717622073,0.2,1.0,1.0,347.0,693.0,1.0,1,160.0,1
598,598,-0.08938091422292094,-0.1,0.0,1.0,318.0,957.0,0.0,1,-55.0,0
599,599,-0.4550427377947038,-0.5,0.0,1.0,319.0,531.0,1.0,0,130.0,1
600,600,-0.7019210644134123,-0.7,0.0,1.0,463.0,686.0,0.0,1,-379.0,0
601,601,0.28985526703166886,0.3,1.0,1.0,274.0,980.0,1.0,1,-274.0,1
602,602,-0.37303823100958544,-0.4,0.0,1.0,464.0,689.0,0.0,1,-123.0,0
603,603,0.2101989307110531,0.2,1.0,1.0,333.0,987.0,1.0,1,-810.0,1
604,604,-0.8818803086077441,-0.9,0.0,1.0,423.0,591.0,1.0,0,96.0,1
605,605,-0.3146288799601482,-0.3,0.0,1.0,372.0,783.0,0.0,1,-985.0,0
606,606,-0.1402653339977915,-0.1,0.0,1.0,463.0,842.0,1.0,0,105.0,1
607,607,-0.5134102324086405,-0.5,1.0,0.0,260.0,661.0,1.0,1,99.0,0
608,608,-0.8055851779172205,-0.8,0.0,1.0,321.0,927.0,1.0,0,82.0,1
609,609,0.11251419973354315,0.1,0.0,0.0,323.0,643.0,0.0,1,14.0,1
610,610,-0.14488604474498423,-0.1,0.0,1.0,371.0,816.0,1.0,0,-757.0,1
611,611,0.2415981443992491,0.2,1.0,1.0,424.0,864.0,1.0,1,-398.0,1
612,612,0.6566644952666704,0.7,0.0,0.0,282.0,766.0,0.0,1,-458.0,1
613,613,-0.06152184804968208,-0.1,0.0,1.0,431.0,962.0,0.0,1,-1363.0,0
614,614,0.1607676932747314,0.2,0.0,0.0,325.0,629.0,1.0,0,66.0,0
615,615,-0.8439545567962464,-0.8,1.0,0.0,328.0,928.0,0.0,0,-306.0,1
616,616,0.5943746793887362,0.6,0.0,0.0,391.0,706.0,0.0,1,-907.0,1
617,617,0.7356712864670344,0.7,1.0,1.0,280.0,552.0,0.0,0,68.0,0
618,618,-0.7809749130504057,-0.8,0.0,1.0,354.0,891.0,0.0,1,55.0,0
619,619,0.1766640902906328,0.2,0.0,0.0,270.0,812.0,0.0,1,318.0,1
620,620,-0.14516595769736196,-0.1,1.0,0.0,423.0,771.0,1.0,1,76.0,0
621,621,-0.34167794064478385,-0.3,1.0,0.0,258.0,830.0,1.0,1,92.0,0
622,622,-0.5144097067132303,-0.5,0.0,1.0,489.0,890.0,0.0,1,-319.0,0
623,623,0.7310951718823785,0.7,0.0,0.0,402.0,990.0,1.0,0,-932.0,0
624,624,-0.7175433863462132,-0.7,1.0,0.0,260.0,905.0,0.0,0,105.0,1
625,625,0.3756874484361167,0.4,1.0,1.0,282.0,872.0,1.0,1,-844.0,1
626,626,-0.5909222021606646,-0.6,1.0,0.0,416.0,531.0,1.0,1,103.0,0
627,627,0.8228957732459153,0.8,1.0,1.0,271.0,530.0,1.0,1,159.0,1
628,628,0.8334178011554915,0.8,1.0,1.0,456.0,830.0,1.0,1,-1166.0,1
629,629,0.1285970808454392,0.1,0.0,0.0,445.0,694.0,0.0,1,-359.0,1
630,630,0.8345958046740424,0.8,1.0,1.0,377.0,862.0,1.0,1,-539.0,1
631,631,0.5047644474182184,0.5,1.0,1.0,480.0,992.0,1.0,1,-2.0,1
632,632,-0.8644672295642617,-0.9,0.0,1.0,274.0,656.0,1.0,0,120.0,1
633,633,-0.7481336177959879,-0.7,1.0,0.0,426.0,834.0,1.0,1,0.0,0
634,634,-0.28485649021995363,-0.3,0.0,1.0,374.0,774.0,0.0,1,-148.0,0
635,635,0.6743401720440859,0.7,0.0,0.0,419.0,778.0,1.0,0,-1137.0,0
636,636,-0.6647855999413597,-0.7,0.0,1.0,423.0,604.0,1.0,0,153.0,1
637,637,-0.6073593785267263,-0.6,1.0,0.0,344.0,725.0,1.0,1,-1009.0,0
638,638,-0.7877782328386854,-0.8,1.0,0.0,282.0,517.0,0.0,0,61.0,1
639,639,-0.8529858378882738,-0.9,0.0,1.0,344.0,599.0,0.0,1,-73.0,0
640,640,0.5981454858781495,0.6,1.0,1.0,400.0,746.0,1.0,1,-6.0,1
641,641,-0.4978941713196677,-0.5,0.0,1.0,255.0,848.0,0.0,1,27.0,0
642,642,0.705818091828894,0.7,0.0,0.0,361.0,950.0,0.0,1,-351.0,1
643,643,0.7573802782045801,0.8,0.0,0.0,278.0,671.0,0.0,1,-139.0,1
644,644,0.07276897251006953,0.1,0.0,0.0,410.0,756.0,1.0,0,44.0,0
645,645,0.5141702578946848,0.5,1.0,1.0,306.0,653.0,1.0,1,-489.0,1
646,646,0.3893656333864738,0.4,1.0,1.0,357.0,559.0,1.0,1,54.0,1
647,647,-0.8496836567651168,-0.8,1.0,0.0,362.0,856.0,1.0,1,42.0,0
648,648,-0.022859344306863094,-0.0,0.0,1.0,250.0,931.0,1.0,0,-1011.0,1
649,649,0.48580698185214943,0.5,0.0,0.0,437.0,888.0,0.0,1,35.0,1
650,650,0.5881100277337793,0.6,1.0,1.0,423.0,710.0,1.0,1,27.0,1
651,651,-0.3239669047306677,-0.3,0.0,1.0,387.0,750.0,1.0,0,43.0,1
652,652,-0.2922171327838846,-0.3,1.0,0.0,441.0,763.0,0.0,0,-974.0,1
653,653,-0.38626110398135927,-0.4,1.0,0.0,286.0,831.0,0.0,0,123.0,1
654,654,-0.4490639759077705,-0.4,1.0,0.0,410.0,964.0,0.0,0,-64.0,1
655,655,-0.33633003035179465,-0.3,1.0,0.0,455.0,903.0,1.0,1,72.0,0
656,656,-0.8699411731320442,-0.9,0.0,1.0,450.0,567.0,1.0,0,-107.0,1
657,657,0.31178155507662375,0.3,0.0,0.0,485.0,850.0,0.0,1,-115.0,1
658,658,-0.6918157373233726,-0.7,1.0,0.0,269.0,565.0,1.0,1,56.0,0
659,659,-0.4715888510279477,-0.5,0.0,1.0,340.0,726.0,0.0,1,-56.0,0
660,660,0.09332782603472134,0.1,1.0,1.0,297.0,679.0,0.0,0,44.0,0
661,661,-0.8230964010886275,-0.8,0.0,1.0,414.0,606.0,1.0,0,60.0,1
662,662,-0.23984174521666113,-0.2,1.0,0.0,250.0,979.0,0.0,0,171.0,1
663,663,-0.14880206986902877,-0.1,1.0,0.0,438.0,598.0,1.0,1,24.0,0
664,664,0.07961229210642062,0.1,0.0,0.0,267.0,666.0,0.0,1,77.0,1
665,665,-0.21095153724477234,-0.2,1.0,0.0,472.0,599.0,0.0,0,-941.0,1
666,666,-0.5832034739251111,-0.6,0.0,1.0,262.0,621.0,0.0,1,37.0,0
667,667,0.2915954559727135,0.3,0.0,0.0,466.0,559.0,0.0,1,95.0,1
668,668,-0.5073812027012292,-0.5,0.0,1.0,252.0,941.0,0.0,1,-1073.0,0
669,669,-0.15677743324604976,-0.2,0.0,1.0,465.0,769.0,0.0,1,-784.0,0
670,670,-0.02721237962473988,-0.0,0.0,1.0,291.0,940.0,0.0,1,-261.0,0
671,671,0.6908723945454868,0.7,1.0,1.0,488.0,927.0,1.0,1,-1185.0,1
672,672,0.673848870756255,0.7,0.0,0.0,473.0,890.0,0.0,1,-303.0,1
673,673,0.7862113120633548,0.8,0.0,0.0,390.0,685.0,0.0,1,-305.0,1
674,674,-0.6974745682536323,-0.7,1.0,0.0,309.0,874.0,0.0,0,137.0,1
675,675,-0.5327265292748216,-0.5,0.0,1.0,341.0,814.0,0.0,1,-225.0,0
676,676,-0.538809779279255,-0.5,0.0,1.0,325.0,814.0,0.0,1,-529.0,0
677,677,-0.4933335374222962,-0.5,1.0,0.0,315.0,617.0,0.0,0,88.0,1
678,678,-0.8543676273239077,-0.9,0.0,1.0,368.0,877.0,0.0,1,85.0,0
679,679,-0.18211252236817388,-0.2,0.0,1.0,316.0,666.0,1.0,0,108.0,1
680,680,-0.6597408522080164,-0.7,0.0,1.0,302.0,788.0,0.0,1,-420.0,0
681,681,-0.733875084036614,-0.7,1.0,0.0,437.0,735.0,1.0,1,28.0,0
682,682,-0.28454041124953644,-0.3,0.0,1.0,469.0,651.0,0.0,1,-320.0,0
683,683,-0.41379407757384556,-0.4,1.0,0.0,299.0,987.0,0.0,0,-26.0,1
684,684,0.3420677759276506,0.3,1.0,1.0,414.0,846.0,0.0,0,-420.0,0
685,685,0.4532751157339502,0.5,1.0,1.0,271.0,748.0,1.0,1,51.0,1
686,686,-0.7132907858101406,-0.7,1.0,0.0,474.0,898.0,1.0,1,-582.0,0
687,687,-0.5904263521392363,-0.6,0.0,1.0,368.0,947.0,0.0,1,-555.0,0
688,688,0.6390280221271384,0.6,0.0,0.0,465.0,736.0,0.0,1,39.0,1
689,689,-0.5551133529955994,-0.6,1.0,0.0,284.0,643.0,1.0,1,-107.0,0
690,690,-0.42600368330039856,-0.4,1.0,0.0,329.0,935.0,1.0,1,36.0,0
691,691,-0.1117162654789563,-0.1,0.0,1.0,469.0,746.0,0.0,1,-15.0,0
692,692,-0.8820731430466152,-0.9,1.0,0.0,418.0,693.0,1.0,1,69.0,0
693,693,-0.0593431003597894,-0.1,0.0,1.0,485.0,789.0,0.0,1,-244.0,0
694,694,-0.39286385450383887,-0.4,1.0,0.0,303.0,633.0,1.0,1,114.0,0
695,695,0.8303564985967943,0.8,0.0,0.0,419.0,560.0,1.0,0,-859.0,0
696,696,0.015631229827889004,0.0,1.0,1.0,370.0,972.0,0.0,0,108.0,0
697,697,0.5274197746249863,0.5,1.0,1.0,349.0,867.0,1.0,1,-156.0,1
698,698,-0.25501486193587863,-0.3,1.0,0.0,306.0,936.0,1.0,1,68.0,0
699,699,0.8246969179605775,0.8,0.0,0.0,472.0,746.0,0.0,1,92.0,1
700,700,0.6787522008364576,0.7,0.0,0.0,329.0,992.0,0.0,1,-1191.0,1
701,701,-0.8549523204449077,-0.9,0.0,1.0,372.0,804.0,1.0,0,104.0,1
702,702,0.21253308652426572,0.2,1.0,1.0,440.0,676.0,1.0,1,-1016.0,1
703,703,0.5034308993364852,0.5,0.0,0.0,302.0,961.0,0.0,1,-283.0,1
704,704,0.6162601733114582,0.6,1.0,1.0,391.0,523.0,1.0,1,6.0,1
705,705,-0.6224337733404057,-0.6,1.0,0.0,498.0,994.0,1.0,1,-512.0,0
706,706,0.12109896501032835,0.1,0.0,0.0,401.0,527.0,0.0,1,82.0,1
707,707,0.32734800593555347,0.3,0.0,0.0,371.0,709.0,1.0,0,100.0,0
708,708,0.3612708279328499,0.4,0.0,0.0,344.0,843.0,0.0,1,-1167.0,1
709,709,0.5922658827221169,0.6,0.0,0.0,438.0,795.0,0.0,1,-883.0,1
710,710,-0.26295333431112644,-0.3,0.0,1.0,403.0,685.0,0.0,1,32.0,0
711,711,0.35362113264638173,0.4,0.0,0.0,321.0,538.0,1.0,0,-359.0,0
712,712,0.4937866869049373,0.5,1.0,1.0,392.0,593.0,0.0,0,45.0,0
713,713,0.1031119121192664,0.1,1.0,1.0,493.0,980.0,1.0,1,17.0,1
714,714,-0.6216299978679876,-0.6,0.0,1.0,321.0,541.0,1.0,0,258.0,1
715,715,-0.44351306169982235,-0.4,1.0,0.0,469.0,593.0,1.0,1,68.0,0
716,716,-0.012615547659867388,-0.0,1.0,0.0,284.0,818.0,1.0,1,38.0,0
717,717,-0.8624247095544423,-0.9,1.0,0.0,294.0,549.0,0.0,0,17.0,1
718,718,-0.8615119749084819,-0.9,1.0,0.0,261.0,865.0,1.0,1,-426.0,0
719,719,-0.8613315263497385,-0.9,1.0,0.0,287.0,795.0,0.0,0,-592.0,1
720,720,-0.2637792948101444,-0.3,0.0,1.0,283.0,790.0,0.0,1,37.0,0
721,721,0.5513612388493087,0.6,1.0,1.0,412.0,623.0,1.0,1,105.0,1
722,722,-0.757507243935498,-0.8,0.0,1.0,262.0,744.0,0.0,1,54.0,0
723,723,-0.18981498097705773,-0.2,1.0,0.0,497.0,913.0,1.0,1,-500.0,0
724,724,-0.4056200311234966,-0.4,1.0,0.0,461.0,511.0,0.0,0,-342.0,1
725,725,-0.12633032782382037,-0.1,0.0,1.0,461.0,762.0,1.0,0,77.0,1
726,726,-0.11914304015120636,-0.1,0.0,1.0,443.0,944.0,1.0,0,-1307.0,1
727,727,-0.5063282015237534,-0.5,0.0,1.0,482.0,679.0,0.0,1,139.0,0
728,728,0.0399328970375441,0.0,1.0,1.0,332.0,784.0,1.0,1,294.0,1
729,729,0.21386800707032727,0.2,1.0,1.0,475.0,608.0,1.0,1,87.0,1
730,730,-0.4706582664175519,-0.5,1.0,0.0,472.0,758.0,1.0,1,-480.0,0
731,731,0.009423746229296093,0.0,0.0,0.0,303.0,767.0,0.0,1,290.0,1
732,732,0.5660412972921901,0.6,0.0,0.0,357.0,795.0,0.0,1,18.0,1
733,733,-0.35504442631540456,-0.4,0.0,1.0,445.0,931.0,0.0,1,-906.0,0
734,734,0.20536214456344337,0.2,0.0,0.0,358.0,602.0,0.0,1,50.0,1
735,735,-0.6112646015932355,-0.6,0.0,1.0,306.0,821.0,1.0,0,43.0,1
736,736,0.287555551809472,0.3,1.0,1.0,466.0,861.0,1.0,1,-297.0,1
737,737,0.6024500744888935,0.6,1.0,1.0,313.0,879.0,1.0,1,-452.0,1
738,738,-0.6835237519585493,-0.7,0.0,1.0,360.0,964.0,1.0,0,-1154.0,1
739,739,-0.709355105312168,-0.7,0.0,1.0,435.0,999.0,1.0,0,76.0,1
740,740,-0.39486772370583956,-0.4,0.0,1.0,257.0,732.0,1.0,0,81.0,1
741,741,-0.10194290393373828,-0.1,1.0,0.0,281.0,990.0,0.0,0,99.0,1
742,742,-0.34962742356037346,-0.3,1.0,0.0,370.0,952.0,1.0,1,-142.0,0
743,743,-0.7833574123671915,-0.8,0.0,1.0,418.0,582.0,1.0,0,-850.0,1
744,744,0.6139102325954023,0.6,1.0,1.0,358.0,937.0,1.0,1,-705.0,1
745,745,-0.3036351129596814,-0.3,1.0,0.0,489.0,922.0,1.0,1,29.0,0
746,746,-0.4359327531019186,-0.4,1.0,0.0,331.0,734.0,0.0,0,95.0,1
747,747,0.14524506542000293,0.1,0.0,0.0,258.0,771.0,0.0,1,-69.0,1
748,748,-0.5940269489124996,-0.6,1.0,0.0,491.0,563.0,1.0,1,-1034.0,0
749,749,-0.3649417975493259,-0.4,1.0,0.0,360.0,751.0,1.0,1,69.0,0
750,750,0.06819173510166299,0.1,0.0,0.0,434.0,961.0,1.0,0,-1175.0,0
751,751,-0.5119732059027038,-0.5,0.0,1.0,441.0,783.0,0.0,1,-1144.0,0
752,752,0.46253582953445893,0.5,1.0,1.0,352.0,865.0,1.0,1,-1117.0,1
753,753,-0.3384550009016071,-0.3,1.0,0.0,389.0,919.0,1.0,1,-508.0,0
754,754,0.8450974599636557,0.8,0.0,0.0,324.0,792.0,1.0,0,124.0,0
755,755,-0.6022469269916341,-0.6,0.0,1.0,344.0,624.0,1.0,0,-168.0,1
756,756,0.44621438228966037,0.4,0.0,0.0,270.0,677.0,1.0,0,63.0,0
757,757,-0.1825855290453261,-0.2,0.0,1.0,447.0,655.0,1.0,0,188.0,1
758,758,-0.02255655722642025,-0.0,1.0,0.0,365.0,864.0,1.0,1,71.0,0
759,759,-0.5366244841708494,-0.5,0.0,1.0,352.0,624.0,1.0,0,314.0,1
760,760,-0.010703012812368518,-0.0,1.0,0.0,468.0,745.0,0.0,0,-223.0,1
761,761,-0.42371518032980854,-0.4,1.0,0.0,437.0,881.0,0.0,0,-518.0,1
762,762,-0.33075417379971794,-0.3,1.0,0.0,489.0,628.0,1.0,1,-237.0,0
763,763,-0.8116559984390888,-0.8,1.0,0.0,333.0,835.0,0.0,0,92.0,1
764,764,0.48167055439897843,0.5,0.0,0.0,487.0,890.0,0.0,1,-527.0,1
765,765,0.22075731645858243,0.2,1.0,1.0,403.0,746.0,1.0,1,51.0,1
766,766,-0.2559499991833034,-0.3,0.0,1.0,382.0,790.0,0.0,1,48.0,0
767,767,0.07060888794557862,0.1,1.0,1.0,467.0,646.0,1.0,1,127.0,1
768,768,-0.6387026567001821,-0.6,1.0,0.0,260.0,998.0,0.0,0,62.0,1
769,769,-0.20915483990519568,-0.2,0.0,1.0,475.0,550.0,0.0,1,-915.0,0
770,770,-0.6896402523048926,-0.7,0.0,1.0,268.0,544.0,0.0,1,-752.0,0
771,771,0.6380488785965032,0.6,1.0,1.0,430.0,628.0,1.0,1,-778.0,1
772,772,-0.7874809448432014,-0.8,0.0,1.0,298.0,808.0,1.0,0,194.0,1
773,773,-0.28267452453402053,-0.3,0.0,1.0,320.0,919.0,0.0,1,21.0,0
774,774,0.26336612939670057,0.3,0.0,0.0,434.0,591.0,1.0,0,485.0,0
775,775,-0.1313596779933317,-0.1,0.0,1.0,444.0,596.0,0.0,1,-280.0,0
776,776,-0.4920103711531934,-0.5,1.0,0.0,458.0,566.0,0.0,0,176.0,1
777,777,-0.6048720214360199,-0.6,0.0,1.0,267.0,678.0,1.0,0,185.0,1
778,778,-0.39626589312541416,-0.4,1.0,0.0,465.0,755.0,0.0,0,30.0,1
779,779,-0.2558296652354255,-0.3,1.0,0.0,281.0,691.0,1.0,1,68.0,0
780,780,0.5491586703363188,0.5,1.0,1.0,463.0,933.0,1.0,1,-416.0,1
781,781,0.5436309865865142,0.5,0.0,0.0,384.0,955.0,0.0,1,51.0,1
782,782,0.1476672688273325,0.1,0.0,0.0,483.0,693.0,1.0,0,54.0,0
783,783,-0.15367105580224072,-0.2,0.0,1.0,444.0,806.0,0.0,1,-320.0,0
784,784,0.8370842547707947,0.8,0.0,0.0,321.0,938.0,0.0,1,-429.0,1
785,785,0.7595258183104391,0.8,0.0,0.0,418.0,534.0,1.0,0,138.0,0
786,786,0.5224990219980455,0.5,0.0,0.0,280.0,642.0,0.0,1,-162.0,1
787,787,-0.8907724871276371,-0.9,0.0,1.0,490.0,564.0,0.0,1,-894.0,0
788,788,-0.8561685294564559,-0.9,0.0,1.0,290.0,775.0,0.0,1,-345.0,0
789,789,0.39478266791713856,0.4,1.0,1.0,417.0,795.0,1.0,1,-32.0,1
790,790,-0.7807489947855972,-0.8,0.0,1.0,318.0,750.0,1.0,0,292.0,1
791,791,-0.7426694190529236,-0.7,0.0,1.0,273.0,847.0,1.0,0,70.0,1
792,792,-0.8517834053388034,-0.9,1.0,0.0,276.0,761.0,1.0,1,63.0,0
793,793,0.2155681181408292,0.2,0.0,0.0,440.0,606.0,0.0,1,154.0,1
794,794,0.6088039296202049,0.6,0.0,0.0,310.0,666.0,1.0,0,-416.0,0
795,795,0.2460257387961785,0.2,0.0,0.0,364.0,835.0,0.0,1,51.0,1
796,796,0.5410189972597924,0.5,1.0,1.0,262.0,786.0,1.0,1,-78.0,1
797,797,0.14004552001168713,0.1,0.0,0.0,440.0,916.0,1.0,0,74.0,0
798,798,-0.24156768399852002,-0.2,0.0,1.0,384.0,647.0,1.0,0,129.0,1
799,799,-0.7852473360898472,-0.8,0.0,1.0,373.0,850.0,1.0,0,77.0,1
800,800,0.31952538384251217,0.3,0.0,0.0,392.0,548.0,0.0,1,-610.0,1
801,801,-0.8673583261914081,-0.9,1.0,0.0,469.0,845.0,1.0,1,-284.0,0
802,802,-0.14411932851589937,-0.1,1.0,0.0,354.0,870.0,0.0,0,-74.0,1
803,803,0.5161644249487102,0.5,1.0,1.0,327.0,758.0,1.0,1,-365.0,1
804,804,0.3026865003616618,0.3,1.0,1.0,466.0,861.0,1.0,1,73.0,1
805,805,0.8726247903242209,0.9,0.0,0.0,323.0,861.0,1.0,0,-1144.0,0
806,806,-0.42720558558937893,-0.4,0.0,1.0,362.0,874.0,0.0,1,-16.0,0
807,807,-0.3407731408551802,-0.3,0.0,1.0,474.0,943.0,1.0,0,133.0,1
808,808,-0.502593432736673,-0.5,1.0,0.0,331.0,926.0,1.0,1,-177.0,0
809,809,-0.013197894227016338,-0.0,1.0,0.0,496.0,529.0,1.0,1,-225.0,0
810,810,0.5455886722638782,0.5,1.0,1.0,383.0,641.0,1.0,1,-184.0,1
811,811,-0.5741522223434754,-0.6,0.0,1.0,400.0,648.0,0.0,1,-368.0,0
812,812,0.7227513196943544,0.7,1.0,1.0,381.0,902.0,0.0,0,-1163.0,0
813,813,-0.8039733315251674,-0.8,0.0,1.0,263.0,756.0,1.0,0,51.0,1
814,814,0.005612083000216095,0.0,0.0,0.0,428.0,731.0,1.0,0,71.0,0
815,815,-0.7125453829637827,-0.7,1.0,0.0,407.0,674.0,1.0,1,-421.0,0
816,816,0.5657072819148675,0.6,1.0,1.0,307.0,707.0,1.0,1,-344.0,1
817,817,0.030814623228134885,0.0,0.0,0.0,312.0,892.0,1.0,0,436.0,0
818,818,-0.2388891753877872,-0.2,1.0,0.0,392.0,613.0,1.0,1,-575.0,0
819,819,-0.7779705389430311,-0.8,1.0,0.0,342.0,818.0,1.0,1,-530.0,0
820,820,0.7418359524411834,0.7,0.0,0.0,261.0,932.0,0.0,1,-263.0,1
821,821,-0.572083169245883,-0.6,1.0,0.0,483.0,952.0,1.0,1,45.0,0
822,822,-0.2886601736256992,-0.3,1.0,0.0,285.0,681.0,1.0,1,-156.0,0
823,823,0.39102333798957656,0.4,0.0,0.0,455.0,622.0,1.0,0,113.0,0
824,824,0.15102582016834087,0.2,0.0,0.0,483.0,981.0,0.0,1,-184.0,1
825,825,-0.6002336764542189,-0.6,1.0,0.0,414.0,901.0,1.0,1,45.0,0
826,826,-0.10622528304540702,-0.1,1.0,0.0,443.0,823.0,1.0,1,44.0,0
827,827,0.08045997340270095,0.1,1.0,1.0,435.0,804.0,1.0,1,-1219.0,1
828,828,0.02252523758242686,0.0,0.0,0.0,388.0,794.0,0.0,1,138.0,1
829,829,0.5819716165461454,0.6,0.0,0.0,332.0,992.0,0.0,1,-174.0,1
830,830,0.16951361464004255,0.2,1.0,1.0,293.0,693.0,1.0,1,14.0,1
831,831,-0.6524494611588818,-0.7,1.0,0.0,323.0,665.0,1.0,1,72.0,0
832,832,-0.2998747035089466,-0.3,0.0,1.0,329.0,796.0,1.0,0,65.0,1
833,833,0.8015693842811679,0.8,0.0,0.0,290.0,968.0,0.0,1,-1208.0,1
834,834,-0.37314731397189416,-0.4,1.0,0.0,405.0,810.0,1.0,1,-15.0,0
835,835,-0.2644679264245756,-0.3,0.0,1.0,348.0,908.0,0.0,1,34.0,0
836,836,0.17065968197692805,0.2,1.0,1.0,266.0,684.0,1.0,1,200.0,1
837,837,-0.6053297783664093,-0.6,1.0,0.0,369.0,856.0,1.0,1,-945.0,0
838,838,0.7054737977396707,0.7,1.0,1.0,395.0,799.0,1.0,1,-1024.0,1
839,839,0.8381264244841767,0.8,1.0,1.0,468.0,940.0,1.0,1,12.0,1
840,840,0.7590600776722097,0.8,0.0,0.0,250.0,894.0,1.0,0,66.0,0
841,841,-0.5745663237276918,-0.6,1.0,0.0,475.0,951.0,1.0,1,-156.0,0
842,842,0.11481612245837913,0.1,1.0,1.0,363.0,737.0,1.0,1,-120.0,1
843,843,-0.7474058139393572,-0.7,1.0,0.0,474.0,924.0,1.0,1,42.0,0
844,844,0.1504800630960449,0.2,0.0,0.0,297.0,929.0,0.0,1,-6.0,1
845,845,-0.20883294528549812,-0.2,1.0,0.0,365.0,921.0,1.0,1,-276.0,0
846,846,0.10305288567018189,0.1,0.0,0.0,479.0,603.0,0.0,1,-42.0,1
847,847,-0.7929807297218455,-0.8,0.0,1.0,390.0,674.0,1.0,0,66.0,1
848,848,0.29866972492031263,0.3,0.0,0.0,456.0,990.0,0.0,1,-656.0,1
849,849,0.4265655737179289,0.4,1.0,1.0,407.0,590.0,1.0,1,193.0,1
850,850,0.22073284721789543,0.2,0.0,0.0,445.0,751.0,0.0,1,-246.0,1
851,851,0.24745768607889562,0.2,1.0,1.0,452.0,876.0,0.0,0,-148.0,0
852,852,0.3576105075789636,0.4,1.0,1.0,380.0,541.0,0.0,0,19.0,0
853,853,-0.37362033522733173,-0.4,1.0,0.0,312.0,708.0,1.0,1,80.0,0
854,854,0.15998475907502485,0.2,0.0,0.0,397.0,892.0,0.0,1,-99.0,1
855,855,0.11385328297858133,0.1,1.0,1.0,497.0,981.0,1.0,1,-458.0,1
856,856,-0.661908551938373,-0.7,1.0,0.0,439.0,945.0,1.0,1,-114.0,0
857,857,-0.331998405998726,-0.3,1.0,0.0,329.0,685.0,1.0,1,-214.0,0
858,858,0.4657341059235379,0.5,1.0,1.0,412.0,945.0,1.0,1,-787.0,1
859,859,0.5689423790600553,0.6,0.0,0.0,334.0,911.0,1.0,0,55.0,0
860,860,0.5898364470558858,0.6,1.0,1.0,323.0,803.0,0.0,0,-376.0,0
861,861,0.6355377717888347,0.6,0.0,0.0,391.0,755.0,0.0,1,-1116.0,1
862,862,-0.2912703117267261,-0.3,1.0,0.0,423.0,628.0,1.0,1,-231.0,0
863,863,0.015076603064849925,0.0,0.0,0.0,356.0,531.0,1.0,0,213.0,0
864,864,-0.26277009697979026,-0.3,1.0,0.0,333.0,879.0,0.0,0,-462.0,1
865,865,-0.15110858434804486,-0.2,1.0,0.0,290.0,776.0,0.0,0,-596.0,1
866,866,-0.49060531620933456,-0.5,0.0,1.0,300.0,896.0,0.0,1,-106.0,0
867,867,0.3506625425429656,0.4,1.0,1.0,420.0,788.0,1.0,1,202.0,1
868,868,0.013240341382033005,0.0,0.0,0.0,421.0,976.0,0.0,1,-717.0,1
869,869,-0.4643398170445726,-0.5,1.0,0.0,495.0,976.0,1.0,1,-721.0,0
870,870,0.3373699751947069,0.3,0.0,0.0,459.0,670.0,1.0,0,81.0,0
871,871,-0.13669633923060864,-0.1,0.0,1.0,388.0,908.0,0.0,1,14.0,0
872,872,-0.25131362473782215,-0.3,1.0,0.0,442.0,821.0,1.0,1,-513.0,0
873,873,-0.11606891307802802,-0.1,0.0,1.0,412.0,516.0,1.0,0,42.0,1
874,874,-0.02243066021840745,-0.0,0.0,1.0,427.0,721.0,1.0,0,102.0,1
875,875,0.553502453960958,0.6,0.0,0.0,434.0,896.0,0.0,1,-170.0,1
876,876,0.5196093453885638,0.5,0.0,0.0,385.0,793.0,1.0,0,82.0,0
877,877,-0.40768250853044613,-0.4,1.0,0.0,391.0,562.0,0.0,0,37.0,1
878,878,0.6943040115224747,0.7,0.0,0.0,433.0,703.0,0.0,1,-186.0,1
879,879,0.8155032192961064,0.8,0.0,0.0,287.0,546.0,0.0,1,-763.0,1
880,880,-0.5256326297100302,-0.5,0.0,1.0,494.0,883.0,0.0,1,103.0,0
881,881,-0.86332097788387,-0.9,0.0,1.0,476.0,772.0,1.0,0,72.0,1
882,882,0.6182840265792225,0.6,0.0,0.0,350.0,661.0,1.0,0,-631.0,0
883,883,-0.2901012653649453,-0.3,1.0,0.0,350.0,996.0,1.0,1,34.0,0
884,884,-0.578313156327297,-0.6,1.0,0.0,264.0,778.0,1.0,1,-872.0,0
885,885,-0.06659128038437168,-0.1,0.0,1.0,340.0,551.0,0.0,1,-831.0,0
886,886,0.8924307114705116,0.9,1.0,1.0,330.0,906.0,1.0,1,4.0,1
887,887,-0.626365526156876,-0.6,1.0,0.0,412.0,959.0,1.0,1,-1331.0,0
888,888,-0.829710797608745,-0.8,0.0,1.0,419.0,507.0,1.0,0,114.0,1
889,889,-0.4766932597465203,-0.5,1.0,0.0,271.0,791.0,1.0,1,-1042.0,0
890,890,0.1836289785041415,0.2,0.0,0.0,295.0,732.0,1.0,0,33.0,0
891,891,0.25287972117872515,0.3,1.0,1.0,356.0,769.0,1.0,1,-215.0,1
892,892,0.1395413290910238,0.1,0.0,0.0,299.0,614.0,1.0,0,67.0,0
893,893,0.38528152406041405,0.4,0.0,0.0,353.0,512.0,0.0,1,145.0,1
894,894,0.24660390183863223,0.2,0.0,0.0,303.0,997.0,0.0,1,-530.0,1
895,895,-0.8718167904541197,-0.9,0.0,1.0,478.0,536.0,1.0,0,106.0,1
896,896,0.29014972229416636,0.3,1.0,1.0,422.0,632.0,1.0,1,56.0,1
897,897,0.8523531308570164,0.9,1.0,1.0,479.0,566.0,1.0,1,135.0,1
898,898,0.6540588427049919,0.7,0.0,0.0,298.0,703.0,1.0,0,149.0,0
899,899,-0.366625551030488,-0.4,1.0,0.0,444.0,593.0,1.0,1,-17.0,0
900,900,-0.6224465054606674,-0.6,1.0,0.0,283.0,648.0,0.0,0,349.0,1
901,901,-0.28075080700321653,-0.3,1.0,0.0,411.0,878.0,1.0,1,-179.0,0
902,902,-0.7961896314159052,-0.8,1.0,0.0,452.0,951.0,1.0,1,-603.0,0
903,903,0.7858448046637364,0.8,1.0,1.0,471.0,936.0,1.0,1,-697.0,1
904,904,-0.526352843175036,-0.5,0.0,1.0,305.0,596.0,0.0,1,-111.0,0
905,905,-0.42887181146354125,-0.4,0.0,1.0,451.0,523.0,1.0,0,-584.0,1
906,906,-0.4404773101772944,-0.4,1.0,0.0,346.0,725.0,0.0,0,-651.0,1
907,907,-0.7918313363812295,-0.8,1.0,0.0,440.0,607.0,1.0,1,-347.0,0
908,908,-0.2320429275025313,-0.2,1.0,0.0,381.0,968.0,1.0,1,-929.0,0
909,909,-0.12905565452950096,-0.1,1.0,0.0,421.0,581.0,0.0,0,38.0,1
910,910,0.1178633172123641,0.1,0.0,0.0,273.0,832.0,0.0,1,85.0,1
911,911,0.6591476484840532,0.7,1.0,1.0,346.0,892.0,0.0,0,-1018.0,0
912,912,0.7063816588665955,0.7,1.0,1.0,450.0,564.0,1.0,1,126.0,1
913,913,-0.06482559191867066,-0.1,1.0,0.0,283.0,922.0,1.0,1,35.0,0
914,914,0.07846984625170539,0.1,1.0,1.0,311.0,747.0,1.0,1,-188.0,1
915,915,-0.2797478944775905,-0.3,0.0,1.0,273.0,552.0,0.0,1,-525.0,0
916,916,0.3385609199075875,0.3,1.0,1.0,326.0,922.0,0.0,0,-588.0,0
917,917,0.1255909089645061,0.1,0.0,0.0,439.0,948.0,1.0,0,223.0,0
918,918,-0.39164606694989645,-0.4,1.0,0.0,393.0,893.0,1.0,1,74.0,0
919,919,0.4803090944774623,0.5,1.0,1.0,252.0,944.0,0.0,0,-736.0,0
920,920,-0.6775521074311242,-0.7,0.0,1.0,477.0,979.0,0.0,1,54.0,0
921,921,-0.42088835116052997,-0.4,1.0,0.0,360.0,879.0,0.0,0,-339.0,1
922,922,0.018744622534377364,0.0,1.0,1.0,431.0,618.0,0.0,0,-39.0,0
923,923,0.32756248319100456,0.3,0.0,0.0,298.0,996.0,0.0,1,386.0,1
924,924,0.6807441101854271,0.7,0.0,0.0,360.0,803.0,1.0,0,97.0,0
925,925,0.016370177725926527,0.0,0.0,0.0,468.0,598.0,0.0,1,44.0,1
926,926,0.4448901018752315,0.4,1.0,1.0,421.0,856.0,1.0,1,73.0,1
927,927,-0.4350753380193359,-0.4,1.0,0.0,468.0,608.0,1.0,1,94.0,0
928,928,0.8236421322848401,0.8,1.0,1.0,328.0,961.0,0.0,0,-119.0,0
929,929,0.6030413036295662,0.6,1.0,1.0,285.0,736.0,1.0,1,-41.0,1
930,930,0.035467838756066294,0.0,0.0,0.0,307.0,590.0,1.0,0,83.0,0
931,931,-0.4213065339241362,-0.4,0.0,1.0,342.0,919.0,0.0,1,-531.0,0
932,932,-0.18908184050032661,-0.2,1.0,0.0,371.0,817.0,1.0,1,-858.0,0
933,933,0.2381711927344986,0.2,0.0,0.0,373.0,625.0,1.0,0,-858.0,0
934,934,-0.023171294265629805,-0.0,1.0,0.0,430.0,629.0,1.0,1,81.0,0
935,935,-0.7391533088385795,-0.7,0.0,1.0,384.0,875.0,1.0,0,61.0,1
936,936,0.14350023983725257,0.1,1.0,1.0,402.0,974.0,1.0,1,-256.0,1
937,937,0.6964477162954515,0.7,0.0,0.0,345.0,636.0,0.0,1,-111.0,1
938,938,0.6378845281939848,0.6,0.0,0.0,334.0,749.0,1.0,0,47.0,0
939,939,-0.500418038473162,-0.5,1.0,0.0,437.0,929.0,1.0,1,-456.0,0
940,940,0.4086155624770641,0.4,1.0,1.0,376.0,833.0,1.0,1,221.0,1
941,941,0.533849771507419,0.5,0.0,0.0,464.0,858.0,0.0,1,-172.0,1
942,942,0.38354404236368234,0.4,0.0,0.0,305.0,587.0,0.0,1,-792.0,1
943,943,0.7320845576207108,0.7,1.0,1.0,273.0,871.0,0.0,0,-664.0,0
944,944,0.6646703896018796,0.7,1.0,1.0,420.0,882.0,1.0,1,8.0,1
945,945,0.7716133111019762,0.8,0.0,0.0,373.0,550.0,1.0,0,107.0,0
946,946,-0.09053266560209816,-0.1,0.0,1.0,293.0,662.0,1.0,0,-695.0,1
947,947,-0.3735657888143913,-0.4,1.0,0.0,431.0,887.0,1.0,1,122.0,0
948,948,-0.3112070130822958,-0.3,0.0,1.0,487.0,530.0,0.0,1,-977.0,0
949,949,0.2847596184377389,0.3,1.0,1.0,395.0,531.0,0.0,0,-396.0,0
950,950,0.8182769469752903,0.8,0.0,0.0,317.0,984.0,0.0,1,-11.0,1
951,951,0.361148128929757,0.4,1.0,1.0,414.0,549.0,1.0,1,87.0,1
952,952,0.46001187663331067,0.5,0.0,0.0,475.0,694.0,1.0,0,131.0,0
953,953,0.1870269797475702,0.2,0.0,0.0,277.0,540.0,1.0,0,73.0,0
954,954,0.5090045861429541,0.5,0.0,0.0,481.0,898.0,0.0,1,-19.0,1
955,955,0.4378186428371945,0.4,1.0,1.0,492.0,825.0,0.0,0,23.0,0
956,956,0.703283162774705,0.7,1.0,1.0,277.0,838.0,1.0,1,15.0,1
957,957,-0.4963758402721803,-0.5,1.0,0.0,296.0,822.0,1.0,1,-1058.0,0
958,958,0.5946267351468425,0.6,0.0,0.0,413.0,535.0,0.0,1,342.0,1
959,959,-0.39011078605320226,-0.4,0.0,1.0,258.0,746.0,1.0,0,466.0,1
960,960,-0.37877070054388084,-0.4,1.0,0.0,481.0,515.0,1.0,1,214.0,0
961,961,-0.48640007362864346,-0.5,0.0,1.0,307.0,649.0,0.0,1,-536.0,0
962,962,-0.13551246629645752,-0.1,1.0,0.0,269.0,751.0,1.0,1,10.0,0
963,963,0.23236041531062146,0.2,1.0,1.0,422.0,553.0,1.0,1,-765.0,1
964,964,-0.8074263160054229,-0.8,1.0,0.0,426.0,994.0,1.0,1,20.0,0
965,965,0.8125181270374705,0.8,0.0,0.0,349.0,879.0,0.0,1,-48.0,1
966,966,-0.10679735842215798,-0.1,1.0,0.0,323.0,844.0,1.0,1,63.0,0
967,967,0.7828131756857158,0.8,0.0,0.0,331.0,719.0,0.0,1,290.0,1
968,968,-0.7479880271939452,-0.7,1.0,0.0,456.0,957.0,1.0,1,-203.0,0
969,969,0.6775777797766772,0.7,1.0,1.0,446.0,699.0,1.0,1,-1045.0,1
970,970,0.6601638394857229,0.7,1.0,1.0,254.0,656.0,0.0,0,-610.0,0
971,971,0.10491356946479302,0.1,1.0,1.0,328.0,661.0,1.0,1,281.0,1
972,972,0.6882405470140754,0.7,0.0,0.0,380.0,715.0,0.0,1,-325.0,1
973,973,0.2602534087780829,0.3,1.0,1.0,455.0,938.0,1.0,1,-173.0,1
974,974,0.37394025006622644,0.4,1.0,1.0,490.0,729.0,1.0,1,-959.0,1
975,975,-0.05574628044366259,-0.1,1.0,0.0,313.0,814.0,1.0,1,63.0,0
976,976,0.5263443553994954,0.5,0.0,0.0,412.0,689.0,0.0,1,169.0,1
977,977,-0.5151353372857488,-0.5,1.0,0.0,405.0,840.0,1.0,1,35.0,0
978,978,-0.16599316488675953,-0.2,1.0,0.0,438.0,682.0,1.0,1,-910.0,0
979,979,-0.0762116249788819,-0.1,0.0,1.0,278.0,745.0,0.0,1,-73.0,0
980,980,-0.6585572612753338,-0.7,0.0,1.0,369.0,649.0,0.0,1,122.0,0
981,981,0.7480739116205589,0.7,1.0,1.0,360.0,675.0,1.0,1,55.0,1
982,982,0.4659568662777934,0.5,0.0,0.0,359.0,577.0,0.0,1,214.0,1
983,983,0.3132004729307186,0.3,0.0,0.0,373.0,520.0,1.0,0,107.0,0
984,984,-0.8293829243468621,-0.8,0.0,1.0,491.0,544.0,0.0,1,-215.0,0
985,985,-0.20363936232765922,-0.2,0.0,1.0,448.0,557.0,0.0,1,-305.0,0
986,986,0.7681524192469552,0.8,0.0,0.0,466.0,562.0,1.0,0,-218.0,0
987,987,-0.7308983654619889,-0.7,1.0,0.0,255.0,747.0,1.0,1,-92.0,0
988,988,-0.17817456949237465,-0.2,1.0,0.0,278.0,977.0,1.0,1,25.0,0
989,989,-0.34328852142100275,-0.3,1.0,0.0,350.0,538.0,0.0,0,102.0,1
990,990,0.7841768287432415,0.8,1.0,1.0,445.0,972.0,1.0,1,-527.0,1
991,991,-0.3609656248794523,-0.4,0.0,1.0,278.0,979.0,1.0,0,43.0,1
992,992,-0.8287398611522677,-0.8,1.0,0.0,483.0,913.0,1.0,1,4.0,0
993,993,-0.23873209067934342,-0.2,0.0,1.0,255.0,737.0,0.0,1,-892.0,0
994,994,0.20964110491808963,0.2,0.0,0.0,379.0,803.0,0.0,1,-32.0,1
995,995,0.43299301566917336,0.4,0.0,0.0,289.0,651.0,0.0,1,140.0,1
996,996,-0.26755507257567246,-0.3,0.0,1.0,476.0,848.0,1.0,0,-874.0,1
997,997,-0.8369934786448161,-0.8,1.0,0.0,257.0,623.0,0.0,0,130.0,1
998,998,0.3244744546354731,0.3,1.0,1.0,496.0,534.0,0.0,0,20.0,0
999,999,-0.03899668539000123,-0.0,0.0,1.0,334.0,796.0,1.0,0,50.0,1
1000,1000,0.39206406476436884,0.4,1.0,1.0,266.0,855.0,1.0,1,-151.0,1
1001,1001,0.6697258056258985,0.7,0.0,0.0,385.0,811.0,1.0,0,-1176.0,0
1002,1002,-0.11502830031831757,-0.1,1.0,0.0,256.0,955.0,1.0,1,29.0,0
1003,1003,0.06481359292553679,0.1,1.0,1.0,331.0,981.0,1.0,1,-362.0,1
1004,1004,-0.16108624460540644,-0.2,0.0,1.0,376.0,805.0,0.0,1,-331.0,0
1005,1005,-0.25978910132307664,-0.3,1.0,0.0,493.0,985.0,0.0,0,-1428.0,1
1006,1006,0.7660592640478937,0.8,1.0,1.0,313.0,867.0,1.0,1,-550.0,1
1007,1007,0.02481044627572082,0.0,1.0,1.0,279.0,763.0,1.0,1,-762.0,1
1008,1008,-0.6622528617243123,-0.7,1.0,0.0,411.0,690.0,1.0,1,29.0,0
1009,1009,-0.1448040675353024,-0.1,1.0,0.0,457.0,971.0,1.0,1,-328.0,0
1010,1010,-0.18227365416826247,-0.2,0.0,1.0,374.0,821.0,0.0,1,-425.0,0
1011,1011,0.3561969350515689,0.4,1.0,1.0,448.0,684.0,1.0,1,28.0,1
1012,1012,0.12316295354605378,0.1,0.0,0.0,327.0,890.0,1.0,0,-1217.0,0
1013,1013,-0.4710292955513429,-0.5,1.0,0.0,323.0,543.0,1.0,1,44.0,0
1014,1014,0.846305042653939,0.8,0.0,0.0,356.0,879.0,0.0,1,15.0,1
1015,1015,0.6353206383162292,0.6,0.0,0.0,432.0,528.0,1.0,0,190.0,0
1016,1016,-0.7086845083179676,-0.7,1.0,0.0,303.0,752.0,1.0,1,55.0,0
1017,1017,-0.2046749672585274,-0.2,1.0,0.0,283.0,891.0,1.0,1,-944.0,0
1018,1018,0.7341165988081603,0.7,0.0,0.0,427.0,772.0,0.0,1,81.0,1
1019,1019,-0.024671713810127005,-0.0,0.0,1.0,336.0,546.0,1.0,0,-872.0,1
1020,1020,-0.22916861953329914,-0.2,0.0,1.0,435.0,987.0,0.0,1,58.0,0
1021,1021,-0.26276218394073125,-0.3,1.0,0.0,401.0,926.0,0.0,0,43.0,1
1022,1022,0.2493270297328839,0.2,0.0,0.0,386.0,668.0,1.0,0,136.0,0
1023,1023,-0.719006034206616,-0.7,0.0,1.0,461.0,876.0,1.0,0,83.0,1
1024,1024,0.3610062442618137,0.4,1.0,1.0,461.0,568.0,1.0,1,-19.0,1
1025,1025,0.4134361002811172,0.4,0.0,0.0,457.0,995.0,0.0,1,28.0,1
1026,1026,-0.3270378989295961,-0.3,1.0,0.0,348.0,766.0,0.0,0,-174.0,1
1027,1027,-0.2362410455600309,-0.2,0.0,1.0,323.0,739.0,1.0,0,108.0,1
1028,1028,0.46553479275280807,0.5,0.0,0.0,491.0,889.0,1.0,0,-1060.0,0
1029,1029,0.2756153918601828,0.3,0.0,0.0,320.0,981.0,0.0,1,-541.0,1
1030,1030,-0.42116964072586055,-0.4,0.0,1.0,400.0,518.0,1.0,0,82.0,1
1031,1031,0.7922537629175918,0.8,1.0,1.0,300.0,570.0,1.0,1,30.0,1
1032,1032,0.5198524812877122,0.5,1.0,1.0,489.0,922.0,0.0,0,-591.0,0
1033,1033,0.8152225503349307,0.8,1.0,1.0,473.0,892.0,1.0,1,-595.0,1
1034,1034,0.524993942003455,0.5,1.0,1.0,494.0,839.0,1.0,1,47.0,1
1035,1035,0.21796986664126583,0.2,1.0,1.0,459.0,502.0,1.0,1,39.0,1
1036,1036,-0.6925355910563404,-0.7,1.0,0.0,267.0,726.0,0.0,0,-313.0,1
1037,1037,0.7174073194913427,0.7,1.0,1.0,343.0,698.0,1.0,1,359.0,1
1038,1038,-0.5613543506393323,-0.6,0.0,1.0,273.0,725.0,1.0,0,92.0,1
1039,1039,-0.24330269613105981,-0.2,0.0,1.0,418.0,771.0,0.0,1,-159.0,0
1040,1040,-0.5952751560428768,-0.6,1.0,0.0,384.0,887.0,1.0,1,-891.0,0
1041,1041,0.19137832856645287,0.2,0.0,0.0,497.0,872.0,1.0,0,51.0,0
1042,1042,-0.4604330122456271,-0.5,1.0,0.0,496.0,758.0,1.0,1,-634.0,0
1043,1043,0.5539890516777611,0.6,0.0,0.0,391.0,805.0,0.0,1,-456.0,1
1044,1044,-0.19326205498611337,-0.2,0.0,1.0,401.0,973.0,1.0,0,-1314.0,1
1045,1045,-0.23436509028110342,-0.2,0.0,1.0,324.0,669.0,1.0,0,197.0,1
1046,1046,0.6940022096184412,0.7,1.0,1.0,402.0,998.0,0.0,0,-410.0,0
1047,1047,0.0262228521049771,0.0,1.0,1.0,311.0,915.0,1.0,1,-956.0,1
1048,1048,0.6457445539619951,0.6,0.0,0.0,395.0,607.0,0.0,1,-152.0,1
1049,1049,0.8652870066778172,0.9,1.0,1.0,355.0,886.0,0.0,0,-641.0,0
1050,1050,-0.27194135547024856,-0.3,0.0,1.0,257.0,621.0,0.0,1,32.0,0
1051,1051,0.13976833765082952,0.1,0.0,0.0,449.0,569.0,1.0,0,102.0,0
1052,1052,0.6984172259801428,0.7,1.0,1.0,461.0,832.0,1.0,1,-173.0,1
1053,1053,0.3507316077787678,0.4,1.0,1.0,402.0,792.0,1.0,1,-64.0,1
1054,1054,0.5633935099397077,0.6,1.0,1.0,340.0,914.0,1.0,1,26.0,1
1055,1055,0.03922846775808764,0.0,1.0,1.0,339.0,804.0,0.0,0,-123.0,0
1056,1056,0.5146758666954993,0.5,1.0,1.0,448.0,570.0,1.0,1,52.0,1
1057,1057,0.35905023468773944,0.4,0.0,0.0,359.0,969.0,0.0,1,-388.0,1
1058,1058,-0.5091472512043405,-0.5,0.0,1.0,423.0,715.0,0.0,1,-8.0,0
1059,1059,0.5748689481646106,0.6,0.0,0.0,422.0,971.0,0.0,1,-273.0,1
1060,1060,-0.05461316374033731,-0.1,0.0,1.0,397.0,513.0,1.0,0,130.0,1
1061,1061,-0.47663591194893423,-0.5,0.0,1.0,320.0,845.0,1.0,0,65.0,1
1062,1062,0.37964635147829984,0.4,0.0,0.0,339.0,502.0,0.0,1,-51.0,1
1063,1063,-0.4424453532492799,-0.4,0.0,1.0,393.0,953.0,1.0,0,84.0,1
1064,1064,-0.8466051437779183,-0.8,0.0,1.0,293.0,919.0,0.0,1,-192.0,0
1065,1065,0.7653542367815943,0.8,0.0,0.0,472.0,860.0,1.0,0,198.0,0
1066,1066,0.3056999874662355,0.3,0.0,0.0,332.0,848.0,1.0,0,60.0,0
1067,1067,0.022736750355932034,0.0,0.0,0.0,389.0,576.0,1.0,0,45.0,0
1068,1068,-0.12400002741542471,-0.1,1.0,0.0,492.0,826.0,0.0,0,-28.0,1
1069,1069,-0.3010510505966315,-0.3,0.0,1.0,364.0,637.0,1.0,0,69.0,1
1070,1070,0.7546081989971894,0.8,1.0,1.0,498.0,621.0,0.0,0,-219.0,0
1071,1071,0.5939199124049529,0.6,1.0,1.0,448.0,874.0,1.0,1,58.0,1
1072,1072,0.11305860096080445,0.1,1.0,1.0,252.0,529.0,1.0,1,119.0,1
1073,1073,0.3394107271595589,0.3,0.0,0.0,301.0,699.0,0.0,1,-180.0,1
1074,1074,0.10327020184425517,0.1,1.0,1.0,331.0,520.0,1.0,1,79.0,1
1075,1075,0.2831488310263911,0.3,0.0,0.0,291.0,681.0,0.0,1,-72.0,1
1076,1076,-0.850044842343271,-0.9,1.0,0.0,468.0,964.0,0.0,0,-952.0,1
1077,1077,-0.5871557309637736,-0.6,1.0,0.0,327.0,834.0,0.0,0,39.0,1
1078,1078,0.016784733919258055,0.0,1.0,1.0,437.0,789.0,1.0,1,14.0,1
1079,1079,-0.5635741763061435,-0.6,1.0,0.0,385.0,800.0,1.0,1,75.0,0
1080,1080,0.16933896893660572,0.2,1.0,1.0,324.0,742.0,1.0,1,-606.0,1
1081,1081,0.7900280627406936,0.8,0.0,0.0,268.0,746.0,0.0,1,36.0,1
1082,1082,0.20923610399205372,0.2,1.0,1.0,356.0,932.0,1.0,1,162.0,1
1083,1083,0.29162958013715923,0.3,1.0,1.0,281.0,652.0,0.0,0,47.0,0
1084,1084,-0.5919928298647911,-0.6,1.0,0.0,466.0,791.0,1.0,1,-167.0,0
1085,1085,0.6708223034277786,0.7,0.0,0.0,349.0,652.0,1.0,0,119.0,0
1086,1086,0.09428816944767426,0.1,0.0,0.0,296.0,654.0,0.0,1,1180.0,1
1087,1087,-0.08855838697050245,-0.1,0.0,1.0,394.0,819.0,1.0,0,97.0,1
1088,1088,-0.726930109068572,-0.7,0.0,1.0,471.0,729.0,0.0,1,30.0,0
1089,1089,-0.5309240322532552,-0.5,1.0,0.0,348.0,995.0,1.0,1,137.0,0
1090,1090,0.32290150030453535,0.3,0.0,0.0,483.0,908.0,0.0,1,-191.0,1
1091,1091,-0.060919876124674976,-0.1,1.0,0.0,323.0,545.0,0.0,0,-738.0,1
1092,1092,-0.33633693964318667,-0.3,0.0,1.0,401.0,755.0,0.0,1,-286.0,0
1093,1093,-0.656756066403708,-0.7,0.0,1.0,482.0,671.0,0.0,1,-273.0,0
1094,1094,-0.7529547594080521,-0.8,1.0,0.0,383.0,770.0,1.0,1,27.0,0
1095,1095,0.30175961549529784,0.3,0.0,0.0,340.0,629.0,1.0,0,61.0,0
1096,1096,-0.12915284298111385,-0.1,0.0,1.0,480.0,926.0,0.0,1,24.0,0
1097,1097,-0.6945334647142418,-0.7,0.0,1.0,447.0,697.0,1.0,0,-204.0,1
1098,1098,0.8985250496287193,0.9,0.0,0.0,454.0,536.0,1.0,0,80.0,0
1099,1099,-0.8032843835709865,-0.8,1.0,0.0,417.0,596.0,0.0,0,57.0,1
1100,1100,-0.31292738463152237,-0.3,0.0,1.0,478.0,518.0,1.0,0,54.0,1
1101,1101,-0.8445950914123767,-0.8,1.0,0.0,431.0,905.0,1.0,1,14.0,0
1102,1102,-0.2792562330048517,-0.3,0.0,1.0,466.0,519.0,1.0,0,85.0,1
1103,1103,0.2916328393173827,0.3,1.0,1.0,253.0,548.0,0.0,0,-251.0,0
1104,1104,0.3613495829402732,0.4,0.0,0.0,303.0,554.0,0.0,1,73.0,1
1105,1105,0.34910815382559524,0.3,0.0,0.0,437.0,938.0,1.0,0,95.0,0
1106,1106,0.3643586383494287,0.4,1.0,1.0,419.0,682.0,1.0,1,59.0,1
1107,1107,-0.21813807061304902,-0.2,1.0,0.0,301.0,522.0,1.0,1,77.0,0
1108,1108,0.45177031458184824,0.5,0.0,0.0,472.0,767.0,1.0,0,41.0,0
1109,1109,0.2762666134748152,0.3,1.0,1.0,312.0,995.0,1.0,1,-617.0,1
1110,1110,0.8912819325571048,0.9,0.0,0.0,439.0,875.0,0.0,1,-374.0,1
1111,1111,0.490426596368828,0.5,1.0,1.0,333.0,852.0,0.0,0,85.0,0
1112,1112,-0.06665082756965357,-0.1,0.0,1.0,303.0,720.0,0.0,1,-83.0,0
1113,1113,-0.4323897851023163,-0.4,1.0,0.0,432.0,828.0,1.0,1,0.0,0
1114,1114,-0.4018386233551138,-0.4,1.0,0.0,402.0,808.0,1.0,1,140.0,0
1115,1115,0.1965184147679334,0.2,1.0,1.0,283.0,835.0,0.0,0,-628.0,0
1116,1116,0.6624493159396122,0.7,1.0,1.0,283.0,585.0,1.0,1,62.0,1
1117,1117,0.8097701979739645,0.8,0.0,0.0,404.0,674.0,0.0,1,-558.0,1
1118,1118,0.6668137785478906,0.7,0.0,0.0,412.0,526.0,0.0,1,22.0,1
1119,1119,-0.8833164759731099,-0.9,1.0,0.0,283.0,948.0,1.0,1,59.0,0
1120,1120,-0.45791195035602894,-0.5,0.0,1.0,418.0,868.0,0.0,1,-196.0,0
1121,1121,-0.46692112963859483,-0.5,1.0,0.0,349.0,743.0,0.0,0,-522.0,1
1122,1122,-0.6034187296846412,-0.6,0.0,1.0,396.0,689.0,0.0,1,105.0,0
1123,1123,-0.4861128051978244,-0.5,0.0,1.0,469.0,997.0,0.0,1,-306.0,0
1124,1124,0.6038848029915768,0.6,0.0,0.0,441.0,624.0,0.0,1,135.0,1
1125,1125,-0.5658091261176539,-0.6,0.0,1.0,260.0,964.0,1.0,0,316.0,1
1126,1126,0.511054221212531,0.5,0.0,0.0,390.0,596.0,0.0,1,44.0,1
1127,1127,-0.06989179234249243,-0.1,0.0,1.0,298.0,836.0,1.0,0,146.0,1
1128,1128,0.43574013569037306,0.4,0.0,0.0,320.0,590.0,0.0,1,-400.0,1
1129,1129,-0.04554112205814698,-0.0,1.0,0.0,291.0,901.0,0.0,0,-432.0,1
1130,1130,0.024632011113282615,0.0,1.0,1.0,486.0,832.0,1.0,1,22.0,1
1131,1131,0.8974112045319943,0.9,1.0,1.0,434.0,731.0,0.0,0,-1145.0,0
1132,1132,-0.33271784533133497,-0.3,1.0,0.0,357.0,948.0,1.0,1,-235.0,0
1133,1133,-0.7653692691489277,-0.8,0.0,1.0,446.0,690.0,0.0,1,-346.0,0
1134,1134,-0.6337880469703501,-0.6,1.0,0.0,469.0,951.0,1.0,1,50.0,0
1135,1135,-0.28372202220950304,-0.3,0.0,1.0,367.0,573.0,1.0,0,80.0,1
1136,1136,-0.31702817493675783,-0.3,1.0,0.0,256.0,540.0,1.0,1,114.0,0
1137,1137,-0.15766179565680094,-0.2,0.0,1.0,391.0,832.0,1.0,0,27.0,1
1138,1138,-0.5133634858471212,-0.5,1.0,0.0,466.0,623.0,1.0,1,131.0,0
1139,1139,-0.7211277761033059,-0.7,1.0,0.0,415.0,918.0,0.0,0,-733.0,1
1140,1140,-0.5786621422514648,-0.6,1.0,0.0,439.0,863.0,0.0,0,358.0,1
1141,1141,0.5054321257691107,0.5,1.0,1.0,319.0,520.0,1.0,1,121.0,1
1142,1142,-0.563658232703548,-0.6,0.0,1.0,476.0,595.0,0.0,1,29.0,0
1143,1143,-0.1813247270309135,-0.2,1.0,0.0,499.0,910.0,1.0,1,81.0,0
1144,1144,-0.666313953894538,-0.7,0.0,1.0,470.0,849.0,0.0,1,-209.0,0
1145,1145,-0.32989024783748766,-0.3,1.0,0.0,467.0,547.0,0.0,0,-1014.0,1
1146,1146,-0.324237308460289,-0.3,1.0,0.0,460.0,841.0,1.0,1,49.0,0
1147,1147,-0.4852297479958221,-0.5,1.0,0.0,491.0,747.0,1.0,1,82.0,0
1148,1148,0.45132797643738665,0.5,1.0,1.0,441.0,692.0,1.0,1,-323.0,1
1149,1149,-0.2192886792159311,-0.2,0.0,1.0,431.0,900.0,0.0,1,39.0,0
1150,1150,0.25176646201179265,0.3,1.0,1.0,452.0,606.0,1.0,1,92.0,1
1151,1151,-0.21315763787566688,-0.2,1.0,0.0,274.0,777.0,1.0,1,29.0,0
1152,1152,0.5051756417632584,0.5,1.0,1.0,461.0,848.0,1.0,1,91.0,1
1153,1153,-0.4561510493459892,-0.5,0.0,1.0,437.0,668.0,0.0,1,65.0,0
1154,1154,0.2744599060280931,0.3,1.0,1.0,340.0,881.0,1.0,1,-421.0,1
1155,1155,-0.6576646864889263,-0.7,0.0,1.0,421.0,515.0,1.0,0,114.0,1
1156,1156,0.2618688613008656,0.3,0.0,0.0,325.0,664.0,1.0,0,121.0,0
1157,1157,-0.6183418110586734,-0.6,0.0,1.0,268.0,846.0,0.0,1,-524.0,0
1158,1158,0.6519859221856249,0.7,0.0,0.0,274.0,867.0,0.0,1,-411.0,1
1159,1159,-0.13756740073587626,-0.1,0.0,1.0,273.0,760.0,1.0,0,77.0,1
1160,1160,-0.1599864151700061,-0.2,0.0,1.0,321.0,789.0,1.0,0,70.0,1
1161,1161,0.004671732686289287,0.0,1.0,1.0,379.0,506.0,1.0,1,-245.0,1
1162,1162,0.4336661054735659,0.4,0.0,0.0,373.0,619.0,1.0,0,68.0,0
1163,1163,0.22947029103229222,0.2,0.0,0.0,368.0,789.0,1.0,0,113.0,0
1164,1164,-0.2610275301444426,-0.3,0.0,1.0,274.0,986.0,0.0,1,-1200.0,0
1165,1165,-0.26658092548422563,-0.3,0.0,1.0,467.0,686.0,0.0,1,-223.0,0
1166,1166,0.8231906219426631,0.8,1.0,1.0,296.0,726.0,1.0,1,88.0,1
1167,1167,-0.09478781195223407,-0.1,1.0,0.0,476.0,992.0,0.0,0,-328.0,1
1168,1168,0.1831122341251975,0.2,1.0,1.0,340.0,939.0,1.0,1,-239.0,1
1169,1169,-0.3977320217625081,-0.4,1.0,0.0,463.0,804.0,1.0,1,93.0,0
1170,1170,0.18570711790662375,0.2,1.0,1.0,407.0,660.0,1.0,1,153.0,1
1171,1171,-0.5528411436460632,-0.6,1.0,0.0,460.0,855.0,0.0,0,-1135.0,1
1172,1172,0.5957901865239265,0.6,0.0,0.0,253.0,636.0,1.0,0,41.0,0
1173,1173,0.8538602247440946,0.9,1.0,1.0,310.0,509.0,1.0,1,61.0,1
1174,1174,0.3185512278256416,0.3,0.0,0.0,442.0,602.0,1.0,0,126.0,0
1175,1175,0.5240899743900854,0.5,0.0,0.0,415.0,639.0,1.0,0,46.0,0
1176,1176,-0.6404124397562942,-0.6,1.0,0.0,329.0,504.0,0.0,0,-283.0,1
1177,1177,0.048016058884910784,0.0,0.0,0.0,413.0,651.0,1.0,0,106.0,0
1178,1178,-0.09439189142327409,-0.1,1.0,0.0,499.0,714.0,1.0,1,37.0,0
1179,1179,-0.2291423474527361,-0.2,1.0,0.0,453.0,908.0,1.0,1,-511.0,0
1180,1180,0.4903244646851891,0.5,0.0,0.0,429.0,849.0,1.0,0,52.0,0
1181,1181,-0.4436240800346939,-0.4,1.0,0.0,285.0,502.0,0.0,0,443.0,1
1182,1182,0.15676271449979506,0.2,1.0,1.0,281.0,591.0,0.0,0,-312.0,0
1183,1183,-0.8241998076999429,-0.8,1.0,0.0,370.0,861.0,1.0,1,-491.0,0
1184,1184,0.27398517399053357,0.3,0.0,0.0,292.0,813.0,0.0,1,-545.0,1
1185,1185,0.06713730821178265,0.1,1.0,1.0,288.0,825.0,0.0,0,17.0,0
1186,1186,-0.5964237101285861,-0.6,0.0,1.0,299.0,590.0,0.0,1,-179.0,0
1187,1187,-0.17711821990856258,-0.2,0.0,1.0,445.0,957.0,0.0,1,-1362.0,0
1188,1188,-0.259286618690585,-0.3,0.0,1.0,479.0,575.0,0.0,1,46.0,0
1189,1189,0.34677692168701724,0.3,1.0,1.0,465.0,551.0,1.0,1,64.0,1
1190,1190,-0.4984249168084163,-0.5,0.0,1.0,374.0,879.0,0.0,1,-243.0,0
1191,1191,0.08194628278481042,0.1,1.0,1.0,343.0,795.0,1.0,1,-378.0,1
1192,1192,-0.6646482360903414,-0.7,0.0,1.0,399.0,722.0,1.0,0,-861.0,1
1193,1193,0.35312969484015,0.4,1.0,1.0,307.0,518.0,1.0,1,175.0,1
1194,1194,-0.38282452034970904,-0.4,1.0,0.0,455.0,849.0,0.0,0,-1254.0,1
1195,1195,0.5181528797006515,0.5,0.0,0.0,334.0,750.0,0.0,1,16.0,1
1196,1196,-0.2140066225965197,-0.2,1.0,0.0,283.0,856.0,0.0,0,-959.0,1
1197,1197,0.1477814123356923,0.1,0.0,0.0,436.0,709.0,1.0,0,-1085.0,0
1198,1198,0.8756258877304451,0.9,1.0,1.0,445.0,942.0,1.0,1,-47.0,1
1199,1199,0.6946025216462594,0.7,0.0,0.0,420.0,754.0,0.0,1,-334.0,1
1200,1200,0.07285371550662156,0.1,1.0,1.0,453.0,716.0,0.0,0,-1129.0,0
1201,1201,-0.32915701978162326,-0.3,1.0,0.0,383.0,957.0,1.0,1,-470.0,0
1202,1202,-0.6613046250467656,-0.7,1.0,0.0,306.0,834.0,1.0,1,70.0,0
1203,1203,-0.06379348553794595,-0.1,0.0,1.0,250.0,732.0,1.0,0,98.0,1
1204,1204,0.07250134447153467,0.1,1.0,1.0,290.0,546.0,0.0,0,-296.0,0
1205,1205,0.6992153356471745,0.7,0.0,0.0,314.0,563.0,0.0,1,-167.0,1
1206,1206,0.22819785729973907,0.2,1.0,1.0,303.0,623.0,1.0,1,24.0,1
1207,1207,0.5721806680645686,0.6,1.0,1.0,256.0,889.0,0.0,0,-65.0,0
1208,1208,-0.634996475377333,-0.6,1.0,0.0,333.0,960.0,1.0,1,-963.0,0
1209,1209,0.549400099814425,0.5,0.0,0.0,456.0,676.0,0.0,1,-512.0,1
1210,1210,0.4162475948387615,0.4,0.0,0.0,367.0,878.0,0.0,1,115.0,1
1211,1211,-0.11438273236109853,-0.1,1.0,0.0,441.0,810.0,0.0,0,-851.0,1
1212,1212,0.18485431343007785,0.2,1.0,1.0,259.0,542.0,1.0,1,79.0,1
1213,1213,-0.756895010279475,-0.8,1.0,0.0,269.0,502.0,1.0,1,-51.0,0
1214,1214,0.4996247440834348,0.5,1.0,1.0,313.0,981.0,0.0,0,-14.0,0
1215,1215,-0.6835180334760835,-0.7,0.0,1.0,462.0,776.0,1.0,0,-548.0,1
1216,1216,-0.19460735334237167,-0.2,0.0,1.0,459.0,787.0,0.0,1,24.0,0
1217,1217,0.1912923428817993,0.2,1.0,1.0,436.0,519.0,1.0,1,-185.0,1
1218,1218,-0.1624755914951821,-0.2,1.0,0.0,419.0,719.0,1.0,1,-728.0,0
1219,1219,-0.4788874130965376,-0.5,1.0,0.0,360.0,759.0,1.0,1,131.0,0
1220,1220,-0.2888120242788036,-0.3,1.0,0.0,420.0,518.0,1.0,1,52.0,0
1221,1221,0.07259841574319426,0.1,1.0,1.0,257.0,861.0,0.0,0,-538.0,0
1222,1222,0.010509345605973497,0.0,0.0,0.0,263.0,511.0,1.0,0,116.0,0
1223,1223,-0.577319518230331,-0.6,1.0,0.0,372.0,843.0,1.0,1,-545.0,0
1224,1224,0.5337052227486455,0.5,1.0,1.0,455.0,707.0,1.0,1,-412.0,1
1225,1225,0.11700238586142697,0.1,1.0,1.0,483.0,619.0,1.0,1,148.0,1
1226,1226,-0.4294879463334823,-0.4,1.0,0.0,336.0,912.0,1.0,1,32.0,0
1227,1227,-0.6664908412128432,-0.7,1.0,0.0,302.0,900.0,0.0,0,-1042.0,1
1228,1228,-0.49033983975143647,-0.5,1.0,0.0,421.0,769.0,0.0,0,-1110.0,1
1229,1229,-0.17748363022551283,-0.2,0.0,1.0,292.0,578.0,1.0,0,160.0,1
1230,1230,0.6190688142585065,0.6,0.0,0.0,366.0,813.0,0.0,1,-169.0,1
1231,1231,-0.7505884847184026,-0.8,1.0,0.0,483.0,985.0,0.0,0,-1368.0,1
1232,1232,0.8294502313430917,0.8,0.0,0.0,493.0,568.0,0.0,1,-291.0,1
1233,1233,-0.3621228015432092,-0.4,1.0,0.0,456.0,785.0,1.0,1,19.0,0
1234,1234,-0.074960811915329,-0.1,1.0,0.0,304.0,590.0,1.0,1,236.0,0
1235,1235,0.8677528868376277,0.9,0.0,0.0,266.0,627.0,0.0,1,177.0,1
1236,1236,-0.32678783723743754,-0.3,0.0,1.0,404.0,669.0,1.0,0,-863.0,1
1237,1237,0.630612865399694,0.6,1.0,1.0,342.0,545.0,1.0,1,-547.0,1
1238,1238,-0.115353943808854,-0.1,0.0,1.0,471.0,579.0,1.0,0,-960.0,1
1239,1239,-0.45442521670976577,-0.5,1.0,0.0,394.0,776.0,1.0,1,100.0,0
1240,1240,0.6502967304956145,0.7,1.0,1.0,358.0,518.0,0.0,0,-776.0,0
1241,1241,0.38804516031177927,0.4,1.0,1.0,381.0,814.0,1.0,1,45.0,1
1242,1242,-0.016379059700884047,-0.0,0.0,1.0,329.0,587.0,0.0,1,224.0,0
1243,1243,0.011426031757644228,0.0,0.0,0.0,254.0,711.0,1.0,0,115.0,0
1244,1244,0.3374324833493195,0.3,0.0,0.0,370.0,558.0,0.0,1,-638.0,1
1245,1245,0.873679222162128,0.9,1.0,1.0,253.0,911.0,1.0,1,-404.0,1
1246,1246,-0.5273745475285447,-0.5,0.0,1.0,297.0,888.0,0.0,1,-305.0,0
1247,1247,0.6002432700358956,0.6,1.0,1.0,414.0,903.0,1.0,1,-417.0,1
1248,1248,0.2673608033493019,0.3,0.0,0.0,284.0,930.0,0.0,1,-1194.0,1
1249,1249,0.006930174280125545,0.0,0.0,0.0,268.0,738.0,1.0,0,64.0,0
1250,1250,0.7130433978997687,0.7,0.0,0.0,334.0,629.0,0.0,1,-193.0,1
1251,1251,-0.5786635214038015,-0.6,0.0,1.0,370.0,714.0,1.0,0,-594.0,1
1252,1252,0.21874507778100416,0.2,0.0,0.0,288.0,993.0,0.0,1,189.0,1
1253,1253,0.21089357874637404,0.2,0.0,0.0,397.0,764.0,0.0,1,-471.0,1
1254,1254,-0.6266349857881555,-0.6,1.0,0.0,276.0,823.0,1.0,1,-979.0,0
1255,1255,0.3038530152960056,0.3,0.0,0.0,434.0,828.0,0.0,1,28.0,1
1256,1256,0.1330429426011911,0.1,0.0,0.0,343.0,574.0,1.0,0,53.0,0
1257,1257,-0.0980951786361498,-0.1,0.0,1.0,280.0,954.0,0.0,1,-124.0,0
1258,1258,0.30637878815699005,0.3,0.0,0.0,359.0,819.0,0.0,1,-88.0,1
1259,1259,0.593723860324575,0.6,1.0,1.0,464.0,674.0,0.0,0,-1118.0,0
1260,1260,0.3873027156334935,0.4,1.0,1.0,438.0,787.0,1.0,1,65.0,1
1261,1261,0.3788409201884685,0.4,0.0,0.0,423.0,813.0,0.0,1,4.0,1
1262,1262,0.6940365206063493,0.7,0.0,0.0,451.0,712.0,1.0,0,77.0,0
1263,1263,-0.6120442738831637,-0.6,0.0,1.0,447.0,747.0,0.0,1,-724.0,0
1264,1264,0.5266861875276897,0.5,1.0,1.0,477.0,931.0,0.0,0,42.0,0
1265,1265,-0.6082499033005859,-0.6,1.0,0.0,292.0,960.0,1.0,1,48.0,0
1266,1266,0.37438819920899646,0.4,0.0,0.0,485.0,960.0,0.0,1,-105.0,1
1267,1267,-0.14230195199268025,-0.1,1.0,0.0,286.0,770.0,1.0,1,24.0,0
1268,1268,0.38161534029752164,0.4,1.0,1.0,378.0,627.0,0.0,0,-975.0,0
1269,1269,0.32088467225605666,0.3,0.0,0.0,458.0,947.0,1.0,0,75.0,0
1270,1270,0.6218801480743402,0.6,1.0,1.0,426.0,981.0,1.0,1,143.0,1
1271,1271,-0.10879003532300102,-0.1,1.0,0.0,313.0,578.0,1.0,1,99.0,0
1272,1272,0.7966634560208908,0.8,1.0,1.0,289.0,975.0,0.0,0,-994.0,0
1273,1273,-0.30489141751890303,-0.3,1.0,0.0,311.0,557.0,1.0,1,32.0,0
1274,1274,-0.10327525370822077,-0.1,0.0,1.0,345.0,550.0,0.0,1,-685.0,0
1275,1275,0.13908703493325525,0.1,1.0,1.0,373.0,527.0,1.0,1,-890.0,1
1276,1276,0.15996919372135154,0.2,1.0,1.0,266.0,774.0,1.0,1,-60.0,1
1277,1277,0.8727207539767144,0.9,1.0,1.0,297.0,807.0,1.0,1,76.0,1
1278,1278,-0.617327906219661,-0.6,0.0,1.0,461.0,816.0,0.0,1,13.0,0
1279,1279,0.7455378877431734,0.7,0.0,0.0,392.0,906.0,1.0,0,-578.0,0
1280,1280,-0.612381977930126,-0.6,1.0,0.0,413.0,777.0,1.0,1,-330.0,0
1281,1281,0.833831095183052,0.8,0.0,0.0,324.0,888.0,1.0,0,128.0,0
1282,1282,-0.5483038152095512,-0.5,1.0,0.0,434.0,662.0,0.0,0,144.0,1
1283,1283,0.179292009691563,0.2,0.0,0.0,336.0,877.0,0.0,1,47.0,1
1284,1284,0.2003464552032984,0.2,0.0,0.0,306.0,808.0,1.0,0,86.0,0
1285,1285,-0.44729401528938045,-0.4,0.0,1.0,302.0,904.0,1.0,0,234.0,1
1286,1286,0.40438823611009844,0.4,1.0,1.0,291.0,776.0,1.0,1,-487.0,1
1287,1287,0.7593452737188074,0.8,1.0,1.0,489.0,725.0,1.0,1,-404.0,1
1288,1288,0.7160595420098762,0.7,0.0,0.0,445.0,779.0,0.0,1,-464.0,1
1289,1289,0.3592266742546574,0.4,0.0,0.0,316.0,674.0,0.0,1,-40.0,1
1290,1290,0.38382510123775926,0.4,0.0,0.0,329.0,914.0,0.0,1,17.0,1
1291,1291,-0.4992680386328094,-0.5,1.0,0.0,482.0,555.0,1.0,1,53.0,0
1292,1292,0.17933654800494991,0.2,0.0,0.0,486.0,936.0,1.0,0,68.0,0
1293,1293,0.7584636486362114,0.8,0.0,0.0,297.0,832.0,1.0,0,211.0,0
1294,1294,-0.8695153317236093,-0.9,0.0,1.0,281.0,942.0,1.0,0,27.0,1
1295,1295,0.5886989581434251,0.6,0.0,0.0,456.0,961.0,0.0,1,-1307.0,1
1296,1296,0.11759225321400091,0.1,0.0,0.0,276.0,632.0,0.0,1,-118.0,1
1297,1297,0.15550208512558805,0.2,1.0,1.0,368.0,665.0,1.0,1,27.0,1
1298,1298,0.6943185440170104,0.7,1.0,1.0,491.0,854.0,1.0,1,-615.0,1
1299,1299,-0.8603208914460908,-0.9,1.0,0.0,442.0,736.0,0.0,0,92.0,1
1300,1300,-0.24879968587146528,-0.2,1.0,0.0,339.0,586.0,1.0,1,65.0,0
1301,1301,-0.7550924511218832,-0.8,1.0,0.0,321.0,720.0,0.0,0,169.0,1
1302,1302,-0.3923211532152663,-0.4,1.0,0.0,367.0,951.0,1.0,1,72.0,0
1303,1303,-0.3761763173601569,-0.4,0.0,1.0,438.0,660.0,1.0,0,202.0,1
1304,1304,-0.5284438663200206,-0.5,1.0,0.0,361.0,835.0,1.0,1,84.0,0
1305,1305,0.7025853776241905,0.7,1.0,1.0,404.0,737.0,1.0,1,29.0,1
1306,1306,0.23864876863762696,0.2,0.0,0.0,315.0,518.0,1.0,0,97.0,0
1307,1307,-0.7455659311091187,-0.7,0.0,1.0,491.0,917.0,1.0,0,-1368.0,1
1308,1308,0.23970221925720947,0.2,0.0,0.0,443.0,547.0,0.0,1,-610.0,1
1309,1309,0.22531644000503415,0.2,0.0,0.0,420.0,729.0,1.0,0,-239.0,0
1310,1310,0.7981598327509046,0.8,1.0,1.0,312.0,919.0,1.0,1,9.0,1
1311,1311,0.3502157265639806,0.4,0.0,0.0,327.0,874.0,0.0,1,19.0,1
1312,1312,0.19981188724802845,0.2,0.0,0.0,305.0,970.0,1.0,0,245.0,0
1313,1313,0.34049173227483165,0.3,1.0,1.0,337.0,573.0,0.0,0,-430.0,0
1314,1314,0.07189994771065977,0.1,0.0,0.0,309.0,720.0,0.0,1,-699.0,1
1315,1315,-0.1692675325931764,-0.2,0.0,1.0,250.0,501.0,1.0,0,59.0,1
1316,1316,0.43436207701132423,0.4,1.0,1.0,434.0,543.0,1.0,1,43.0,1
1317,1317,0.004490310346529913,0.0,1.0,1.0,364.0,500.0,1.0,1,-854.0,1
1318,1318,0.22447672824244547,0.2,0.0,0.0,417.0,736.0,0.0,1,-3.0,1
1319,1319,0.7169438926702209,0.7,1.0,1.0,389.0,722.0,1.0,1,149.0,1
1320,1320,-0.7243361822754718,-0.7,1.0,0.0,495.0,662.0,0.0,0,193.0,1
1321,1321,0.7047944709017052,0.7,0.0,0.0,443.0,885.0,1.0,0,-1218.0,0
1322,1322,0.307774337906351,0.3,1.0,1.0,291.0,646.0,1.0,1,-517.0,1
1323,1323,0.8848075309599562,0.9,0.0,0.0,335.0,719.0,0.0,1,-614.0,1
1324,1324,-0.8357626096165515,-0.8,0.0,1.0,275.0,984.0,0.0,1,-99.0,0
1325,1325,0.7341950863043408,0.7,1.0,1.0,428.0,553.0,1.0,1,-651.0,1
1326,1326,-0.33061853502913063,-0.3,0.0,1.0,319.0,930.0,1.0,0,211.0,1
1327,1327,0.1181846751653971,0.1,0.0,0.0,263.0,565.0,1.0,0,82.0,0
1328,1328,0.5994820099696209,0.6,0.0,0.0,483.0,650.0,1.0,0,277.0,0
1329,1329,0.705286310051341,0.7,0.0,0.0,414.0,781.0,1.0,0,-1185.0,0
1330,1330,0.8154646524514225,0.8,1.0,1.0,269.0,925.0,1.0,1,-844.0,1
1331,1331,-0.37390471092547195,-0.4,1.0,0.0,271.0,605.0,0.0,0,-466.0,1
1332,1332,-0.7676920466545047,-0.8,1.0,0.0,442.0,890.0,0.0,0,-1142.0,1
1333,1333,-0.7491718064563396,-0.7,0.0,1.0,349.0,692.0,1.0,0,79.0,1
1334,1334,-0.7065177002373769,-0.7,1.0,0.0,426.0,803.0,1.0,1,-139.0,0
1335,1335,-0.20527692956145505,-0.2,0.0,1.0,376.0,972.0,0.0,1,-278.0,0
1336,1336,-0.7797999114516677,-0.8,1.0,0.0,297.0,605.0,0.0,0,-502.0,1
1337,1337,-0.4215839436360468,-0.4,1.0,0.0,448.0,948.0,1.0,1,-336.0,0
1338,1338,0.7330428928589067,0.7,1.0,1.0,306.0,879.0,1.0,1,165.0,1
1339,1339,0.06805878225393469,0.1,1.0,1.0,419.0,751.0,0.0,0,-1030.0,0
1340,1340,0.519584626026624,0.5,0.0,0.0,336.0,632.0,0.0,1,22.0,1
1341,1341,-0.36096954790032176,-0.4,0.0,1.0,266.0,771.0,1.0,0,63.0,1
1342,1342,0.38937027795944756,0.4,0.0,0.0,310.0,831.0,0.0,1,69.0,1
1343,1343,-0.8647717797276507,-0.9,0.0,1.0,259.0,533.0,1.0,0,98.0,1
1344,1344,0.13766347767477194,0.1,1.0,1.0,405.0,611.0,1.0,1,24.0,1
1345,1345,0.48248102597018583,0.5,1.0,1.0,483.0,733.0,1.0,1,-46.0,1
1346,1346,0.10062967354870367,0.1,1.0,1.0,379.0,766.0,1.0,1,-1085.0,1
1347,1347,0.8782532622190432,0.9,0.0,0.0,377.0,995.0,1.0,0,108.0,0
1348,1348,-0.7732251641782113,-0.8,0.0,1.0,450.0,576.0,0.0,1,-246.0,0
1349,1349,0.11704003045109757,0.1,1.0,1.0,292.0,594.0,0.0,0,-66.0,0
1350,1350,0.8539097701693347,0.9,1.0,1.0,491.0,703.0,0.0,0,-264.0,0
1351,1351,0.8446186242840547,0.8,0.0,0.0,253.0,884.0,1.0,0,-617.0,0
1352,1352,0.4465462221818729,0.4,0.0,0.0,358.0,587.0,0.0,1,335.0,1
1353,1353,-0.8639746412714214,-0.9,0.0,1.0,436.0,607.0,1.0,0,-643.0,1
1354,1354,-0.6870552654753725,-0.7,0.0,1.0,417.0,909.0,0.0,1,-506.0,0
1355,1355,0.3229510185980876,0.3,0.0,0.0,276.0,951.0,0.0,1,-567.0,1
1356,1356,-0.19520967376736442,-0.2,0.0,1.0,324.0,689.0,0.0,1,57.0,0
1357,1357,0.5926372737103417,0.6,1.0,1.0,478.0,695.0,1.0,1,17.0,1
1358,1358,0.17202858079937033,0.2,0.0,0.0,306.0,820.0,0.0,1,-716.0,1
1359,1359,0.7373378474446944,0.7,1.0,1.0,492.0,523.0,0.0,0,-485.0,0
1360,1360,-0.23253472264135677,-0.2,1.0,0.0,319.0,890.0,0.0,0,91.0,1
1361,1361,0.6415114339111897,0.6,0.0,0.0,473.0,636.0,0.0,1,21.0,1
1362,1362,0.17710986147878904,0.2,1.0,1.0,431.0,998.0,1.0,1,71.0,1
1363,1363,-0.7721350225096734,-0.8,0.0,1.0,315.0,543.0,0.0,1,-728.0,0
1364,1364,0.8875056441926646,0.9,0.0,0.0,354.0,556.0,0.0,1,-210.0,1
1365,1365,-0.8440906939132855,-0.8,0.0,1.0,471.0,808.0,0.0,1,91.0,0
1366,1366,-0.18149875851675634,-0.2,1.0,0.0,456.0,601.0,1.0,1,-1027.0,0
1367,1367,0.771495197064591,0.8,1.0,1.0,470.0,654.0,1.0,1,96.0,1
1368,1368,0.8457936920885062,0.8,0.0,0.0,412.0,922.0,0.0,1,-64.0,1
1369,1369,-0.30915087775817607,-0.3,0.0,1.0,431.0,756.0,0.0,1,-1087.0,0
1370,1370,-0.3433288755945665,-0.3,1.0,0.0,318.0,817.0,1.0,1,75.0,0
1371,1371,-0.014206126022759946,-0.0,0.0,1.0,325.0,612.0,0.0,1,-7.0,0
1372,1372,0.4010680415593152,0.4,0.0,0.0,370.0,744.0,0.0,1,36.0,1
1373,1373,0.6791350327114994,0.7,0.0,0.0,372.0,975.0,1.0,0,-1317.0,0
1374,1374,0.7112596441151796,0.7,0.0,0.0,448.0,523.0,1.0,0,-531.0,0
1375,1375,0.3132295831425199,0.3,0.0,0.0,351.0,972.0,0.0,1,-163.0,1
1376,1376,-0.5368221690905584,-0.5,0.0,1.0,336.0,588.0,1.0,0,66.0,1
1377,1377,-0.6216857744848951,-0.6,1.0,0.0,361.0,782.0,1.0,1,-293.0,0
1378,1378,0.3907604331120268,0.4,0.0,0.0,373.0,988.0,0.0,1,-91.0,1
1379,1379,0.7162916264483693,0.7,1.0,1.0,455.0,976.0,1.0,1,79.0,1
1380,1380,-0.812939143359603,-0.8,1.0,0.0,418.0,896.0,1.0,1,-104.0,0
1381,1381,0.25938695395973677,0.3,1.0,1.0,422.0,509.0,1.0,1,69.0,1
1382,1382,0.5899005646876104,0.6,1.0,1.0,287.0,939.0,0.0,0,-316.0,0
1383,1383,-0.5803312534921565,-0.6,0.0,1.0,458.0,690.0,0.0,1,-138.0,0
1384,1384,-0.6854290825051799,-0.7,0.0,1.0,406.0,625.0,0.0,1,-961.0,0
1385,1385,0.4381593032589962,0.4,0.0,0.0,270.0,885.0,0.0,1,-715.0,1
1386,1386,-0.8301620912537927,-0.8,1.0,0.0,492.0,943.0,1.0,1,-425.0,0
1387,1387,0.5336263140709429,0.5,0.0,0.0,461.0,782.0,0.0,1,-1233.0,1
1388,1388,-0.3556645373452716,-0.4,1.0,0.0,465.0,918.0,1.0,1,-423.0,0
1389,1389,-0.463957720159981,-0.5,1.0,0.0,300.0,729.0,1.0,1,-209.0,0
1390,1390,0.10657063692342528,0.1,0.0,0.0,479.0,594.0,1.0,0,57.0,0
1391,1391,-0.3714369657306741,-0.4,1.0,0.0,255.0,607.0,1.0,1,-422.0,0
1392,1392,0.6253773411480031,0.6,1.0,1.0,352.0,652.0,1.0,1,36.0,1
1393,1393,-0.7453380482486465,-0.7,1.0,0.0,492.0,638.0,0.0,0,40.0,1
1394,1394,0.24506633966128677,0.2,0.0,0.0,469.0,668.0,1.0,0,1003.0,0
1395,1395,0.4916881884279266,0.5,0.0,0.0,305.0,837.0,1.0,0,-802.0,0
1396,1396,-0.15126343829528643,-0.2,0.0,1.0,340.0,843.0,0.0,1,-43.0,0
1397,1397,0.3276005603444291,0.3,1.0,1.0,358.0,842.0,1.0,1,80.0,1
1398,1398,0.515980614103935,0.5,0.0,0.0,313.0,613.0,0.0,1,54.0,1
1399,1399,-0.4706573694794219,-0.5,1.0,0.0,298.0,673.0,1.0,1,159.0,0
1400,1400,0.5050322050921124,0.5,0.0,0.0,462.0,541.0,0.0,1,27.0,1
1401,1401,-0.747948651562854,-0.7,0.0,1.0,400.0,723.0,0.0,1,-1103.0,0
1402,1402,0.024647537936539288,0.0,1.0,1.0,349.0,673.0,1.0,1,38.0,1
1403,1403,0.547823953688151,0.5,1.0,1.0,350.0,855.0,1.0,1,-575.0,1
1404,1404,0.5689411246665966,0.6,1.0,1.0,367.0,642.0,1.0,1,101.0,1
1405,1405,0.42929964887100514,0.4,1.0,1.0,450.0,856.0,1.0,1,34.0,1
1406,1406,-0.4185242773589233,-0.4,0.0,1.0,327.0,705.0,1.0,0,-802.0,1
1407,1407,0.8017482565419275,0.8,0.0,0.0,285.0,586.0,0.0,1,49.0,1
1408,1408,-0.8615594787369895,-0.9,1.0,0.0,489.0,800.0,1.0,1,71.0,0
1409,1409,0.010898880289409663,0.0,1.0,1.0,465.0,841.0,1.0,1,-236.0,1
1410,1410,-0.5619030406459163,-0.6,0.0,1.0,295.0,857.0,0.0,1,-1112.0,0
1411,1411,0.3125245700962097,0.3,0.0,0.0,416.0,843.0,1.0,0,101.0,0
1412,1412,0.014239587091628425,0.0,1.0,1.0,470.0,878.0,1.0,1,-1318.0,1
1413,1413,0.3043990028194693,0.3,0.0,0.0,306.0,660.0,0.0,1,24.0,1
1414,1414,0.3896294183848187,0.4,0.0,0.0,439.0,651.0,0.0,1,-200.0,1
1415,1415,0.6249956310536798,0.6,0.0,0.0,294.0,713.0,0.0,1,-277.0,1
1416,1416,-0.12492064201007713,-0.1,1.0,0.0,377.0,753.0,1.0,1,70.0,0
1417,1417,-0.08660113863981778,-0.1,0.0,1.0,496.0,873.0,0.0,1,11.0,0
1418,1418,-0.4374993591060138,-0.4,0.0,1.0,304.0,532.0,1.0,0,104.0,1
1419,1419,0.7189679151714466,0.7,0.0,0.0,329.0,721.0,0.0,1,70.0,1
1420,1420,0.11102690969122009,0.1,1.0,1.0,487.0,599.0,0.0,0,-206.0,0
1421,1421,0.44389353189446534,0.4,0.0,0.0,477.0,612.0,1.0,0,71.0,0
1422,1422,-0.8977753490174963,-0.9,1.0,0.0,394.0,663.0,0.0,0,-1027.0,1
1423,1423,-0.7705548014026298,-0.8,1.0,0.0,465.0,555.0,1.0,1,40.0,0
1424,1424,0.8697059501534042,0.9,1.0,1.0,257.0,614.0,0.0,0,-321.0,0
1425,1425,0.10332860529993615,0.1,0.0,0.0,425.0,981.0,0.0,1,-626.0,1
1426,1426,-0.039064325539976075,-0.0,1.0,0.0,350.0,786.0,1.0,1,-1086.0,0
1427,1427,-0.07111732933724679,-0.1,0.0,1.0,338.0,851.0,0.0,1,-599.0,0
1428,1428,-0.27924822167752184,-0.3,1.0,0.0,377.0,898.0,0.0,0,-455.0,1
1429,1429,-0.06723155452819352,-0.1,0.0,1.0,497.0,513.0,1.0,0,410.0,1
1430,1430,-0.7872608547664829,-0.8,1.0,0.0,292.0,752.0,0.0,0,-494.0,1
1431,1431,-0.10056893946112222,-0.1,1.0,0.0,428.0,859.0,0.0,0,-687.0,1
1432,1432,0.7002666063587769,0.7,0.0,0.0,269.0,905.0,0.0,1,-264.0,1
1433,1433,-0.8658528154214751,-0.9,0.0,1.0,327.0,798.0,0.0,1,55.0,0
1434,1434,-0.08005548757068492,-0.1,1.0,0.0,472.0,666.0,1.0,1,-38.0,0
1435,1435,0.4831101286193248,0.5,0.0,0.0,458.0,640.0,1.0,0,-818.0,0
1436,1436,0.41966914184682913,0.4,1.0,1.0,452.0,785.0,1.0,1,-407.0,1
1437,1437,0.4209325437023893,0.4,0.0,0.0,288.0,588.0,0.0,1,114.0,1
1438,1438,0.8355596847671684,0.8,0.0,0.0,351.0,981.0,0.0,1,-222.0,1
1439,1439,0.3379524233560368,0.3,1.0,1.0,294.0,908.0,0.0,0,-802.0,0
1440,1440,-0.6557072723279084,-0.7,1.0,0.0,296.0,844.0,0.0,0,-680.0,1
1441,1441,0.47585994017218136,0.5,0.0,0.0,460.0,973.0,1.0,0,157.0,0
1442,1442,0.34851130503577366,0.3,1.0,1.0,269.0,795.0,1.0,1,-814.0,1
1443,1443,-0.2691530725187009,-0.3,1.0,0.0,350.0,860.0,1.0,1,40.0,0
1444,1444,0.4911493830026944,0.5,1.0,1.0,281.0,517.0,1.0,1,72.0,1
1445,1445,-0.2357149396123004,-0.2,0.0,1.0,268.0,873.0,0.0,1,289.0,0
1446,1446,-0.05530894985930401,-0.1,1.0,0.0,269.0,841.0,1.0,1,-230.0,0
1447,1447,-0.7751065380561871,-0.8,0.0,1.0,318.0,740.0,1.0,0,262.0,1
1448,1448,-0.10541711517730823,-0.1,0.0,1.0,373.0,871.0,0.0,1,16.0,0
1449,1449,0.18186871236449542,0.2,1.0,1.0,275.0,941.0,1.0,1,64.0,1
1450,1450,-0.26057524424750067,-0.3,0.0,1.0,434.0,746.0,0.0,1,50.0,0
1451,1451,0.3739953498457408,0.4,0.0,0.0,485.0,798.0,0.0,1,-1043.0,1
1452,1452,0.06939008143801884,0.1,1.0,1.0,276.0,752.0,1.0,1,-38.0,1
1453,1453,-0.8238099295396754,-0.8,1.0,0.0,259.0,622.0,1.0,1,39.0,0
1454,1454,-0.8176224275414512,-0.8,0.0,1.0,410.0,534.0,1.0,0,176.0,1
1455,1455,-0.7122119201611704,-0.7,0.0,1.0,362.0,693.0,1.0,0,95.0,1
1456,1456,-0.6969427038806436,-0.7,0.0,1.0,348.0,766.0,0.0,1,76.0,0
1457,1457,-0.34934397675348494,-0.3,1.0,0.0,472.0,612.0,0.0,0,-824.0,1
1458,1458,0.7035254833701744,0.7,1.0,1.0,469.0,719.0,1.0,1,32.0,1
1459,1459,-0.6263188169659293,-0.6,1.0,0.0,400.0,663.0,1.0,1,37.0,0
1460,1460,0.14504798763250693,0.1,0.0,0.0,399.0,785.0,0.0,1,-4.0,1
1461,1461,0.3704910794038475,0.4,1.0,1.0,307.0,777.0,1.0,1,66.0,1
1462,1462,0.8124780583698022,0.8,0.0,0.0,359.0,775.0,0.0,1,76.0,1
1463,1463,-0.7502628832864199,-0.8,0.0,1.0,462.0,645.0,1.0,0,73.0,1
1464,1464,0.8759766635748077,0.9,0.0,0.0,420.0,965.0,0.0,1,-475.0,1
1465,1465,0.35579210480612733,0.4,0.0,0.0,483.0,703.0,1.0,0,-1146.0,0
1466,1466,0.5779478831892858,0.6,0.0,0.0,461.0,540.0,0.0,1,-901.0,1
1467,1467,0.13888711049472657,0.1,0.0,0.0,498.0,602.0,0.0,1,10.0,1
1468,1468,-0.3493758356846396,-0.3,0.0,1.0,284.0,744.0,0.0,1,42.0,0
1469,1469,-0.31245644871288103,-0.3,1.0,0.0,355.0,524.0,1.0,1,31.0,0
1470,1470,0.8695936179304103,0.9,0.0,0.0,278.0,720.0,0.0,1,-558.0,1
1471,1471,0.06275354969912905,0.1,0.0,0.0,463.0,588.0,0.0,1,49.0,1
1472,1472,-0.43675965528364835,-0.4,1.0,0.0,307.0,592.0,1.0,1,171.0,0
1473,1473,0.5912657139494911,0.6,0.0,0.0,359.0,914.0,1.0,0,-1093.0,0
1474,1474,-0.7990521350788743,-0.8,0.0,1.0,443.0,915.0,0.0,1,-758.0,0
1475,1475,0.8177293485180098,0.8,1.0,1.0,263.0,749.0,1.0,1,-422.0,1
1476,1476,0.6049019516082731,0.6,1.0,1.0,373.0,688.0,1.0,1,-71.0,1
1477,1477,-0.13863893869536803,-0.1,1.0,0.0,270.0,589.0,0.0,0,-329.0,1
1478,1478,-0.462960715498793,-0.5,0.0,1.0,338.0,822.0,1.0,0,-1020.0,1
1479,1479,-0.5528690297358496,-0.6,0.0,1.0,466.0,743.0,0.0,1,-369.0,0
1480,1480,-0.7607261250455488,-0.8,1.0,0.0,349.0,811.0,0.0,0,-200.0,1
1481,1481,-0.22004804224390195,-0.2,1.0,0.0,478.0,648.0,0.0,0,-1016.0,1
1482,1482,0.7427470191154507,0.7,0.0,0.0,291.0,716.0,1.0,0,93.0,0
1483,1483,-0.2521701628555182,-0.3,0.0,1.0,453.0,699.0,0.0,1,-882.0,0
1484,1484,0.06148791205203086,0.1,1.0,1.0,325.0,513.0,1.0,1,142.0,1
1485,1485,-0.20211034014164897,-0.2,0.0,1.0,438.0,685.0,1.0,0,-933.0,1
1486,1486,-0.8855987161908097,-0.9,0.0,1.0,321.0,845.0,0.0,1,-16.0,0
1487,1487,-0.4922773424438443,-0.5,0.0,1.0,339.0,629.0,1.0,0,-818.0,1
1488,1488,-0.19758446722849998,-0.2,0.0,1.0,356.0,956.0,0.0,1,-292.0,0
1489,1489,0.7951043816671263,0.8,1.0,1.0,253.0,640.0,1.0,1,187.0,1
