,trial,coherence,coherence_bin,correct_side,target_onset,checker_onset,decision,decision_time,correct_decision,g0,gSlope
0,0,0.3765192538161368,0.4,0,274.0,695.0,0.0,291.0,1,0.03431263658329098,0.0
1,1,-0.05641443930427337,-0.1,1,337.0,980.0,0.0,403.0,0,0.09734631991203414,0.0
2,2,0.2325326091979114,0.2,0,442.0,942.0,0.0,676.0,1,0.0938183653513549,0.0
3,3,-0.7368263128925174,-0.7,1,368.0,576.0,1.0,366.0,1,0.08639098212823271,0.0
4,4,-0.9169914023179988,-0.9,1,296.0,913.0,1.0,451.0,1,0.019077596641412356,0.0
5,5,0.3996316276934506,0.4,0,293.0,592.0,0.0,195.0,1,0.019480853936998766,0.0
6,6,-0.9421290624215979,-0.9,1,465.0,701.0,1.0,374.0,1,0.04795965437655532,0.0
7,7,0.4111551658456525,0.4,0,452.0,574.0,0.0,3974.0,1,0.04800497156156089,0.0
8,8,0.8348943506080411,0.8,0,361.0,721.0,0.0,348.0,1,0.09787472553008575,0.0
9,9,-0.4968302841190626,-0.5,1,301.0,885.0,0.0,2384.0,0,0.06215781053507089,0.0
10,10,0.9098518534240427,0.9,0,407.0,762.0,0.0,1411.0,1,0.058463215339321854,0.0
11,11,0.44001902497010414,0.4,0,473.0,675.0,0.0,342.0,1,0.01975131926371944,0.0
12,12,-0.9767251496396772,-1.0,1,407.0,585.0,1.0,408.0,1,0.052363980261847104,0.0
13,13,-0.26020332189671347,-0.3,1,256.0,724.0,0.0,850.0,0,0.051289076426490415,0.0
14,14,0.7460828019537509,0.7,0,279.0,663.0,0.0,218.0,1,0.08155172370102046,0.0
15,15,-0.9413038416584221,-0.9,1,335.0,993.0,1.0,522.0,1,0.00048551624965815777,0.0
16,16,-0.5856752973311219,-0.6,1,493.0,819.0,1.0,958.0,1,0.041309615520231636,0.0
17,17,0.843725142767624,0.8,0,495.0,567.0,0.0,368.0,1,0.02332781605952229,0.0
18,18,0.8790576140670558,0.9,0,305.0,775.0,0.0,3920.0,1,0.08627872272788259,0.0
19,19,-0.08131421824610774,-0.1,1,424.0,897.0,0.0,2279.0,0,0.02246309391060335,0.0
20,20,-0.015344883567353751,-0.0,1,352.0,717.0,0.0,1571.0,0,0.0016198967865887926,0.0
21,21,0.8473131372814826,0.8,0,283.0,916.0,0.0,201.0,1,0.09654407069581776,0.0
22,22,0.17877263108912422,0.2,0,436.0,988.0,0.0,466.0,1,0.012359464877214245,0.0
23,23,-0.8817228572562212,-0.9,1,477.0,895.0,1.0,378.0,1,0.0531904672183208,0.0
24,24,-0.04329447753093274,-0.0,1,304.0,503.0,0.0,273.0,0,0.011420852182881315,0.0
25,25,0.37882405805742403,0.4,0,390.0,599.0,0.0,1311.0,1,0.014510713824602306,0.0
26,26,-0.8661828169043255,-0.9,1,269.0,548.0,1.0,513.0,1,0.06426028279772732,0.0
27,27,-0.8849765884540903,-0.9,1,473.0,585.0,1.0,782.0,1,0.01868845749715995,0.0
28,28,0.15106168301291856,0.2,0,499.0,754.0,0.0,397.0,1,0.06499814239947214,0.0
29,29,-0.5468863252991203,-0.5,1,265.0,825.0,1.0,370.0,1,0.040138103238921634,0.0
30,30,-0.14178140304204545,-0.1,1,335.0,636.0,0.0,609.0,0,0.03319071606019491,0.0
31,31,0.38497522769741854,0.4,0,431.0,655.0,0.0,304.0,1,0.015018226835175608,0.0
32,32,0.46128818142506,0.5,0,414.0,958.0,0.0,3218.0,1,0.024154888900823845,0.0
33,33,-0.2181513167465181,-0.2,1,451.0,867.0,0.0,1242.0,0,0.050193563181538385,0.0
34,34,0.6406710435775043,0.6,0,370.0,702.0,0.0,178.0,1,0.06705904209309524,0.0
35,35,-0.8264267538222305,-0.8,1,375.0,829.0,1.0,446.0,1,0.06083391129908421,0.0
36,36,-0.8712700968516571,-0.9,1,299.0,870.0,1.0,381.0,1,0.027223529619505027,0.0
37,37,-0.9366246950206338,-0.9,1,451.0,614.0,1.0,565.0,1,0.09316946082279988,0.0
38,38,-0.3691449608659847,-0.4,1,319.0,844.0,0.0,497.0,0,0.0417931754111904,0.0
39,39,0.6144811636758949,0.6,0,282.0,909.0,0.0,519.0,1,0.08119534848063242,0.0
40,40,-0.12296558853623019,-0.1,1,305.0,823.0,0.0,1172.0,0,0.044629861550887065,0.0
41,41,-0.7959608667791203,-0.8,1,426.0,866.0,1.0,378.0,1,0.0323713649526409,0.0
42,42,-0.9206201702340719,-0.9,1,254.0,767.0,1.0,329.0,1,0.0244261717100131,0.0
43,43,-0.11823874604496254,-0.1,1,497.0,523.0,0.0,740.0,0,0.062051339474696855,0.0
44,44,-0.44778001450615035,-0.4,1,443.0,623.0,1.0,354.0,1,0.09494841611455923,0.0
45,45,0.27530757671235184,0.3,0,328.0,856.0,0.0,366.0,1,0.05861384134615049,0.0
46,46,-0.3797120902506992,-0.4,1,349.0,864.0,1.0,2687.0,1,0.07679756922291296,0.0
47,47,0.7491434448797971,0.7,0,467.0,648.0,0.0,365.0,1,0.07917846156674252,0.0
48,48,-0.316108295780529,-0.3,1,374.0,773.0,0.0,903.0,0,0.002604553865110326,0.0
49,49,-0.023063077612320848,-0.0,1,466.0,525.0,0.0,379.0,0,0.04467638338589432,0.0
50,50,-0.9797540367500677,-1.0,1,278.0,876.0,1.0,396.0,1,0.010481498766556364,0.0
51,51,-0.3074399791878868,-0.3,1,324.0,886.0,1.0,330.0,1,0.055804653677757846,0.0
52,52,0.40174892833209563,0.4,0,470.0,820.0,0.0,1950.0,1,0.0012573715346009375,0.0
53,53,-0.9490341553095196,-0.9,1,256.0,866.0,1.0,618.0,1,0.04684175560993734,0.0
54,54,-0.46066258505317226,-0.5,1,452.0,875.0,1.0,643.0,1,0.027777533424690682,0.0
55,55,-0.8813908639456618,-0.9,1,488.0,975.0,1.0,497.0,1,0.09120312478293151,0.0
56,56,-0.6822684341198784,-0.7,1,496.0,742.0,1.0,662.0,1,0.04809003221385171,0.0
57,57,-0.7495912800569315,-0.7,1,432.0,579.0,1.0,789.0,1,0.020762855363277478,0.0
58,58,0.26005409555162795,0.3,0,267.0,770.0,0.0,253.0,1,0.09047964233832229,0.0
59,59,-0.07562747210266352,-0.1,1,335.0,826.0,0.0,839.0,0,0.014452051785454135,0.0
60,60,0.9337980526526775,0.9,0,450.0,878.0,0.0,312.0,1,0.01579558941457877,0.0
61,61,0.6078154324449505,0.6,0,324.0,960.0,0.0,3716.0,1,0.08942822230678615,0.0
62,62,0.6578547007376738,0.7,0,413.0,971.0,0.0,526.0,1,0.08992977818928143,0.0
63,63,0.9569735851567953,1.0,0,329.0,879.0,0.0,452.0,1,0.04010274304638484,0.0
64,64,-0.8314653359423507,-0.8,1,336.0,641.0,1.0,253.0,1,0.04837768074389942,0.0
65,65,0.22015660910589574,0.2,0,437.0,550.0,0.0,613.0,1,0.007869698470046094,0.0
66,66,-0.0792451456044474,-0.1,1,337.0,533.0,0.0,810.0,0,0.04826800756311298,0.0
67,67,0.23825586061893267,0.2,0,499.0,682.0,0.0,379.0,1,0.08345630638204164,0.0
68,68,0.273939101745619,0.3,0,304.0,932.0,0.0,314.0,1,0.0940644039466377,0.0
69,69,-0.12574732260232335,-0.1,1,381.0,963.0,0.0,496.0,0,0.035836130076707766,0.0
70,70,0.8593408144422983,0.9,0,269.0,754.0,0.0,307.0,1,0.09479563160782366,0.0
71,71,0.4512258273199705,0.5,0,330.0,990.0,0.0,500.0,1,0.060412058403971174,0.0
72,72,0.9791337612099777,1.0,0,341.0,799.0,0.0,1650.0,1,0.08399294768200663,0.0
73,73,-0.25531875086653133,-0.3,1,438.0,846.0,0.0,536.0,0,0.08175767782235986,0.0
74,74,0.6908643036996951,0.7,0,310.0,700.0,0.0,190.0,1,0.07633573323697142,0.0
75,75,0.24336530914140764,0.2,0,443.0,581.0,0.0,1526.0,1,0.06130605697530131,0.0
76,76,-0.036244918878903576,-0.0,1,262.0,830.0,0.0,528.0,0,0.09997302495048449,0.0
77,77,-0.43816923072191294,-0.4,1,341.0,831.0,1.0,418.0,1,0.01476236623249091,0.0
78,78,0.04941899063367283,0.0,0,344.0,527.0,0.0,369.0,1,0.09427551459596997,0.0
79,79,-0.9320920895872828,-0.9,1,338.0,768.0,1.0,304.0,1,0.016345926940240087,0.0
80,80,0.9272675566014268,0.9,0,308.0,690.0,0.0,272.0,1,0.06909574392440851,0.0
81,81,-0.8972981308173853,-0.9,1,433.0,734.0,1.0,573.0,1,0.09875366870673452,0.0
82,82,0.7439647707094481,0.7,0,367.0,648.0,0.0,335.0,1,0.06590337893463105,0.0
83,83,0.825561650457648,0.8,0,339.0,846.0,0.0,195.0,1,0.016185179702506627,0.0
84,84,0.3293400760222347,0.3,0,338.0,612.0,0.0,1790.0,1,0.07144911716845319,0.0
85,85,-0.9310099664428129,-0.9,1,269.0,589.0,1.0,262.0,1,0.04533496631942955,0.0
86,86,0.643013743437868,0.6,0,462.0,762.0,0.0,1536.0,1,0.09296552350807136,0.0
87,87,-0.9815364143117777,-1.0,1,461.0,666.0,1.0,593.0,1,0.05394089863856705,0.0
88,88,-0.5453681361436244,-0.5,1,267.0,903.0,1.0,840.0,1,0.01931334685152543,0.0
89,89,0.9174055188988337,0.9,0,355.0,601.0,0.0,284.0,1,0.03353669055658375,0.0
90,90,-0.29804207522933335,-0.3,1,320.0,646.0,0.0,854.0,0,0.036876011912103726,0.0
91,91,0.49723070592335605,0.5,0,253.0,737.0,0.0,360.0,1,0.0331924425981048,0.0
92,92,0.5694419512120394,0.6,0,299.0,563.0,0.0,368.0,1,0.08700550773683677,0.0
93,93,0.4322392530261199,0.4,0,377.0,949.0,0.0,354.0,1,0.08486201620600654,0.0
94,94,-0.01046468644177967,-0.0,1,402.0,787.0,0.0,311.0,0,0.012902828355212226,0.0
95,95,-0.21317310152225888,-0.2,1,380.0,582.0,0.0,1958.0,0,0.09441648994490026,0.0
96,96,-0.7323209887932112,-0.7,1,264.0,538.0,1.0,658.0,1,0.09287777361054006,0.0
97,97,-0.6530989685594835,-0.7,1,273.0,620.0,1.0,1027.0,1,0.02846111499282701,0.0
98,98,0.030934179555381247,0.0,0,356.0,875.0,0.0,169.0,1,0.05763326920526736,0.0
99,99,0.17853028584242558,0.2,0,311.0,944.0,0.0,265.0,1,0.055140674292468744,0.0
100,100,-0.44578358139438334,-0.4,1,335.0,688.0,0.0,1037.0,0,0.026969065905502243,0.0
101,101,-0.1524004208458989,-0.2,1,256.0,957.0,0.0,507.0,0,0.0481533752422643,0.0
102,102,0.35656274218579553,0.4,0,446.0,626.0,0.0,258.0,1,0.01731111379778909,0.0
103,103,0.19270235857263351,0.2,0,449.0,830.0,0.0,3141.0,1,0.0456827827424065,0.0
104,104,-0.03506779572774299,-0.0,1,251.0,902.0,0.0,1857.0,0,0.04732561135496102,0.0
105,105,0.3583844677646122,0.4,0,472.0,880.0,0.0,308.0,1,0.05705841669482582,0.0
106,106,-0.1869736918670042,-0.2,1,371.0,623.0,0.0,3086.0,0,0.04740177535304692,0.0
107,107,-0.3284183901314104,-0.3,1,345.0,982.0,1.0,373.0,1,0.012129915078981769,0.0
108,108,0.41398664803962504,0.4,0,253.0,844.0,0.0,323.0,1,0.09225207052802736,0.0
109,109,0.6507778114348637,0.7,0,394.0,813.0,0.0,3453.0,1,0.05442713951419921,0.0
110,110,0.7311378727096891,0.7,0,431.0,988.0,0.0,271.0,1,0.03879732048953221,0.0
111,111,-0.5364214553363174,-0.5,1,406.0,949.0,1.0,435.0,1,0.00420462856505609,0.0
112,112,-0.04125566572742567,-0.0,1,301.0,731.0,0.0,2158.0,0,0.09122518995894331,0.0
113,113,0.9766725553662083,1.0,0,447.0,756.0,0.0,407.0,1,0.02080344066136021,0.0
114,114,-0.2943417763115139,-0.3,1,307.0,504.0,0.0,849.0,0,0.018030047815738217,0.0
115,115,0.05260315848946728,0.1,0,296.0,740.0,0.0,294.0,1,0.05054248296818118,0.0
116,116,-0.5934474206710068,-0.6,1,466.0,916.0,1.0,318.0,1,0.09823770413304082,0.0
117,117,0.9743199900369934,1.0,0,254.0,581.0,0.0,195.0,1,0.052955595591169594,0.0
118,118,0.7822217064955288,0.8,0,462.0,885.0,0.0,343.0,1,0.09602744321287675,0.0
119,119,0.4989867994616919,0.5,0,410.0,860.0,0.0,410.0,1,0.02651139566693196,0.0
120,120,0.8364857248583608,0.8,0,390.0,827.0,0.0,293.0,1,0.053316703147317124,0.0
121,121,0.2070604735567516,0.2,0,474.0,687.0,0.0,459.0,1,0.08978593560248435,0.0
122,122,-0.2235225884770462,-0.2,1,466.0,773.0,0.0,781.0,0,0.02940848902923242,0.0
123,123,0.40156926791710346,0.4,0,477.0,964.0,0.0,309.0,1,0.002560421225187637,0.0
124,124,-0.05166799806963196,-0.1,1,252.0,691.0,0.0,907.0,0,0.059872735550079194,0.0
125,125,-0.5004325651091048,-0.5,1,263.0,584.0,0.0,1053.0,0,0.006110302853125383,0.0
126,126,0.7487859884370729,0.7,0,329.0,799.0,0.0,512.0,1,0.01872232560999856,0.0
127,127,0.5622228825130509,0.6,0,388.0,606.0,0.0,466.0,1,0.013415961040477221,0.0
128,128,0.5669323989777908,0.6,0,397.0,524.0,0.0,299.0,1,0.07906225626723104,0.0
129,129,0.8894744915831547,0.9,0,284.0,896.0,0.0,170.0,1,0.09829380036477078,0.0
130,130,-0.9306027977255165,-0.9,1,387.0,948.0,1.0,415.0,1,0.06513995425949086,0.0
131,131,-0.1339171698592947,-0.1,1,293.0,612.0,0.0,725.0,0,0.07194686336183613,0.0
132,132,-0.3679869030422982,-0.4,1,317.0,601.0,0.0,752.0,0,0.030175212166902388,0.0
133,133,0.7686308994023259,0.8,0,427.0,908.0,0.0,365.0,1,0.0011870247803577707,0.0
134,134,0.19233250371504473,0.2,0,394.0,624.0,0.0,382.0,1,0.03984573371037678,0.0
135,135,0.28257767021165714,0.3,0,336.0,636.0,0.0,1458.0,1,0.06330513273357732,0.0
136,136,-0.3913768102383688,-0.4,1,492.0,957.0,0.0,451.0,0,0.04054861856754169,0.0
137,137,0.8111319999202347,0.8,0,486.0,926.0,0.0,1438.0,1,0.020947762896246926,0.0
138,138,-0.09557470985961558,-0.1,1,387.0,647.0,0.0,706.0,0,0.06597396908851878,0.0
139,139,0.27473913864431365,0.3,0,406.0,773.0,0.0,401.0,1,0.07262600198498835,0.0
140,140,-0.06415299938266061,-0.1,1,289.0,908.0,0.0,1383.0,0,0.012921073821345797,0.0
141,141,0.6523265864141348,0.7,0,284.0,800.0,0.0,266.0,1,0.08268355862212357,0.0
142,142,0.07388191029980251,0.1,0,278.0,597.0,0.0,615.0,1,0.09380916962034334,0.0
143,143,-0.30286279783719205,-0.3,1,476.0,662.0,0.0,1072.0,0,0.00020421288108123383,0.0
144,144,-0.6851739902869429,-0.7,1,295.0,836.0,1.0,649.0,1,0.04425784602847327,0.0
145,145,0.6319418151145981,0.6,0,477.0,555.0,0.0,1248.0,1,0.0007535512955404444,0.0
146,146,0.409857767600744,0.4,0,468.0,713.0,0.0,3379.0,1,0.013426394827595646,0.0
147,147,0.19753504873329164,0.2,0,497.0,703.0,0.0,340.0,1,0.06802726572141696,0.0
148,148,0.5024817180767249,0.5,0,477.0,646.0,0.0,277.0,1,0.00013875349054770503,0.0
149,149,-0.8580300547749355,-0.9,1,390.0,539.0,1.0,931.0,1,0.010287543912339138,0.0
150,150,0.741847536224642,0.7,0,289.0,750.0,0.0,351.0,1,0.09807826608460801,0.0
151,151,0.4599615753483095,0.5,0,401.0,623.0,0.0,1606.0,1,0.07093666633053465,0.0
152,152,0.5917249641058469,0.6,0,490.0,961.0,0.0,409.0,1,0.09712509443014547,0.0
153,153,0.3114346035476454,0.3,0,469.0,685.0,0.0,446.0,1,0.07371017207267047,0.0
154,154,-0.3510094421016847,-0.4,1,261.0,881.0,1.0,1858.0,1,0.05464978326849658,0.0
155,155,0.8893448520579446,0.9,0,260.0,511.0,0.0,319.0,1,0.04048009316475446,0.0
156,156,0.6452584452446379,0.6,0,299.0,718.0,0.0,3983.0,1,0.0733600738062237,0.0
157,157,0.15210362480066775,0.2,0,481.0,843.0,0.0,456.0,1,0.023258031155447924,0.0
158,158,0.5835201678140414,0.6,0,486.0,661.0,0.0,523.0,1,0.05328117668791377,0.0
159,159,0.25282065709046386,0.3,0,474.0,549.0,0.0,427.0,1,0.09255895611648814,0.0
160,160,0.2869882953561118,0.3,0,493.0,801.0,0.0,526.0,1,0.0317797943577104,0.0
161,161,0.943560569033874,0.9,0,385.0,702.0,0.0,253.0,1,0.08739488783270195,0.0
162,162,-0.032358771398100616,-0.0,1,346.0,573.0,0.0,551.0,0,0.003108690506512546,0.0
163,163,-0.6579725604254447,-0.7,1,367.0,966.0,1.0,227.0,1,0.03964324580954061,0.0
164,164,0.6920485444393574,0.7,0,334.0,580.0,0.0,236.0,1,0.05456413280454934,0.0
165,165,-0.4956550712510499,-0.5,1,357.0,564.0,1.0,559.0,1,0.022125140553508806,0.0
166,166,0.8480842963096902,0.8,0,359.0,943.0,0.0,3698.0,1,0.048265321959910235,0.0
167,167,0.11296821016866576,0.1,0,351.0,893.0,0.0,296.0,1,0.0005777662715243159,0.0
168,168,0.7990188860548817,0.8,0,298.0,945.0,0.0,167.0,1,0.0553510184765053,0.0
169,169,0.4067083105660454,0.4,0,258.0,741.0,0.0,411.0,1,0.037208836106957355,0.0
170,170,-0.8229714101082743,-0.8,1,393.0,624.0,1.0,403.0,1,0.019103769509523628,0.0
171,171,-0.6068765402618288,-0.6,1,428.0,913.0,1.0,579.0,1,0.09517366122328653,0.0
172,172,0.8283528447607298,0.8,0,416.0,920.0,0.0,2944.0,1,0.02107453524518137,0.0
173,173,-0.1486906299631665,-0.1,1,350.0,694.0,0.0,466.0,0,0.005354422974982099,0.0
174,174,0.7001874715590166,0.7,0,397.0,518.0,0.0,1835.0,1,0.09079020865078033,0.0
175,175,-0.8701623000953718,-0.9,1,485.0,936.0,1.0,389.0,1,0.08499141979772756,0.0
176,176,0.8248327594976006,0.8,0,375.0,769.0,0.0,2086.0,1,0.02519394434722151,0.0
177,177,-0.9582596157302103,-1.0,1,270.0,774.0,1.0,406.0,1,0.05326108119423002,0.0
178,178,-0.014030733272438534,-0.0,1,442.0,692.0,0.0,426.0,0,0.00534839968003471,0.0
179,179,-0.9126571316863459,-0.9,1,470.0,617.0,1.0,423.0,1,0.04375886149017116,0.0
180,180,-0.13852619490550389,-0.1,1,456.0,910.0,0.0,524.0,0,0.013053442259329397,0.0
181,181,-0.5258288737515913,-0.5,1,387.0,742.0,1.0,1411.0,1,0.011275181831125093,0.0
182,182,-0.8224244109216312,-0.8,1,465.0,871.0,1.0,564.0,1,0.09486065700956789,0.0
183,183,0.2842853461138328,0.3,0,375.0,915.0,0.0,450.0,1,0.02880666487237903,0.0
184,184,0.56654312594831,0.6,0,446.0,835.0,0.0,349.0,1,0.07468496873286055,0.0
185,185,-0.24697098903140158,-0.2,1,367.0,826.0,0.0,577.0,0,0.03381614227699821,0.0
186,186,-0.0850629975151711,-0.1,1,429.0,855.0,0.0,3286.0,0,0.060030973609999566,0.0
187,187,-0.5522699998371523,-0.6,1,418.0,955.0,1.0,737.0,1,0.059962306351185615,0.0
188,188,0.909139481895108,0.9,0,437.0,572.0,0.0,411.0,1,0.027216700613870028,0.0
189,189,0.41165098423254687,0.4,0,489.0,534.0,0.0,187.0,1,0.01746798963467159,0.0
190,190,0.6688377415958651,0.7,0,454.0,905.0,0.0,371.0,1,0.005194574142704256,0.0
191,191,0.6129189916299431,0.6,0,415.0,999.0,0.0,156.0,1,0.09291422844508353,0.0
192,192,0.9209565196115421,0.9,0,454.0,877.0,0.0,329.0,1,0.0385742840038904,0.0
193,193,0.0787162423410519,0.1,0,377.0,599.0,0.0,674.0,1,0.050653417455691234,0.0
194,194,0.24438297330890824,0.2,0,264.0,522.0,0.0,534.0,1,0.04270207944667721,0.0
195,195,0.9264468575604023,0.9,0,397.0,884.0,0.0,259.0,1,0.07427837759549387,0.0
196,196,0.40084637695900205,0.4,0,429.0,870.0,0.0,471.0,1,0.005960148167995039,0.0
197,197,-0.5644008381859014,-0.6,1,415.0,979.0,1.0,466.0,1,0.016671481754524067,0.0
198,198,0.3706850643298052,0.4,0,307.0,573.0,0.0,540.0,1,0.04086891331219104,0.0
199,199,-0.34196921851514195,-0.3,1,463.0,517.0,0.0,3870.0,0,0.02535239413738485,0.0
200,200,-0.2287612792784024,-0.2,1,342.0,939.0,0.0,2569.0,0,0.06768795997211079,0.0
201,201,0.3543184816559437,0.4,0,466.0,569.0,0.0,365.0,1,0.03608700956015367,0.0
202,202,-0.5178291979544529,-0.5,1,420.0,681.0,0.0,709.0,0,0.006849306080870943,0.0
203,203,-0.899070959107835,-0.9,1,274.0,612.0,1.0,274.0,1,0.023633579266537277,0.0
204,204,-0.43217177882983915,-0.4,1,383.0,640.0,1.0,537.0,1,0.012639264011534269,0.0
205,205,-0.42855000581959724,-0.4,1,414.0,932.0,1.0,484.0,1,0.09012229228974446,0.0
206,206,0.3268031799827582,0.3,0,378.0,975.0,0.0,2157.0,1,0.04588768857685382,0.0
207,207,0.2974667890722098,0.3,0,382.0,597.0,0.0,3721.0,1,0.0013064074874981069,0.0
208,208,-0.45032904048408096,-0.5,1,410.0,597.0,1.0,663.0,1,0.0782527652130014,0.0
209,209,-0.6525521277061865,-0.7,1,363.0,872.0,1.0,555.0,1,0.0596351896451823,0.0
210,210,0.17014944115074782,0.2,0,471.0,707.0,0.0,772.0,1,0.015728162747812115,0.0
211,211,-0.9774792813978324,-1.0,1,492.0,658.0,1.0,280.0,1,0.07995114142739101,0.0
212,212,0.19367632745650232,0.2,0,496.0,587.0,0.0,457.0,1,0.021453251498666216,0.0
213,213,0.233466071314256,0.2,0,278.0,897.0,0.0,265.0,1,0.07327139894987077,0.0
214,214,-0.6860415470076877,-0.7,1,289.0,701.0,1.0,590.0,1,0.05064624251627933,0.0
215,215,0.20402821134340354,0.2,0,357.0,827.0,0.0,806.0,1,0.08264758440304888,0.0
216,216,-0.9628055653827086,-1.0,1,482.0,703.0,1.0,365.0,1,0.024204791851526367,0.0
217,217,0.42878131145119514,0.4,0,448.0,849.0,0.0,283.0,1,0.04287873774732781,0.0
218,218,-0.04477482073559891,-0.0,1,498.0,662.0,0.0,830.0,0,0.07624715600936012,0.0
219,219,0.7048285050540968,0.7,0,330.0,905.0,0.0,315.0,1,0.017697008865151267,0.0
220,220,-0.26691679676497504,-0.3,1,263.0,814.0,1.0,1103.0,1,0.099931026146989,0.0
221,221,0.6706936002902146,0.7,0,337.0,971.0,0.0,422.0,1,0.09689170212932013,0.0
222,222,-0.3511661968556925,-0.4,1,465.0,910.0,0.0,1675.0,0,0.05275840455492989,0.0
223,223,-0.4534152916843761,-0.5,1,365.0,942.0,1.0,553.0,1,0.02019494790262363,0.0
224,224,0.20400171623891494,0.2,0,384.0,815.0,0.0,291.0,1,0.020714875740257623,0.0
225,225,-0.2016530280754283,-0.2,1,392.0,580.0,0.0,658.0,0,0.0883441646743825,0.0
226,226,-0.6258535973170225,-0.6,1,295.0,662.0,1.0,503.0,1,0.06262170299053088,0.0
227,227,-0.22429005980463912,-0.2,1,468.0,846.0,0.0,1186.0,0,0.061604516869665275,0.0
228,228,-0.915802353845804,-0.9,1,439.0,665.0,1.0,316.0,1,0.06756909553082532,0.0
229,229,-0.2822259376859009,-0.3,1,441.0,812.0,0.0,2317.0,0,0.037220709560047305,0.0
230,230,0.9046663675011128,0.9,0,414.0,641.0,0.0,3945.0,1,0.005670449600803718,0.0
231,231,0.9380225241065523,0.9,0,481.0,514.0,0.0,305.0,1,0.08898345469676405,0.0
232,232,0.5261730694679501,0.5,0,332.0,611.0,0.0,557.0,1,0.03465206334360432,0.0
233,233,-0.6399074880065008,-0.6,1,340.0,856.0,1.0,284.0,1,0.07505105167963351,0.0
234,234,0.4041210498738139,0.4,0,473.0,956.0,0.0,311.0,1,0.01202787762975286,0.0
235,235,-0.9800623497399326,-1.0,1,425.0,943.0,1.0,672.0,1,0.06475390700627624,0.0
236,236,-0.5656626842153838,-0.6,1,400.0,872.0,1.0,1238.0,1,0.05759766293645407,0.0
237,237,0.21217113723422454,0.2,0,488.0,595.0,0.0,547.0,1,0.09713719945869724,0.0
238,238,0.06627036815620957,0.1,0,263.0,983.0,0.0,604.0,1,0.07826373011853216,0.0
239,239,0.5229686947473755,0.5,0,314.0,757.0,0.0,1659.0,1,0.030461717118711863,0.0
240,240,-0.10239875768200646,-0.1,1,433.0,540.0,0.0,927.0,0,0.03171354014512974,0.0
241,241,-0.1529542739557046,-0.2,1,315.0,598.0,0.0,597.0,0,0.0846101299294659,0.0
242,242,-0.3569105255988594,-0.4,1,487.0,847.0,1.0,1346.0,1,0.08979971554290021,0.0
243,243,0.1112359124774196,0.1,0,417.0,929.0,0.0,2654.0,1,0.015283527934195108,0.0
244,244,-0.7275679630972005,-0.7,1,343.0,600.0,1.0,467.0,1,0.05269465697234169,0.0
245,245,-0.41543853955216803,-0.4,1,311.0,683.0,0.0,606.0,0,0.06784488298847623,0.0
246,246,-0.8717275849450583,-0.9,1,404.0,839.0,1.0,527.0,1,0.006026257479572805,0.0
247,247,0.21885842591399185,0.2,0,474.0,612.0,0.0,554.0,1,0.06904014235185559,0.0
248,248,0.7069484801217487,0.7,0,436.0,831.0,0.0,243.0,1,0.010012542689035165,0.0
249,249,0.45846491207989315,0.5,0,498.0,603.0,0.0,669.0,1,0.03328662471288597,0.0
250,250,-0.07447964409270424,-0.1,1,272.0,861.0,0.0,487.0,0,0.04788196837806494,0.0
251,251,0.020404957788582534,0.0,0,265.0,611.0,0.0,554.0,1,0.007330006699487135,0.0
252,252,-0.31709910318059054,-0.3,1,433.0,947.0,0.0,1210.0,0,0.05987994291625486,0.0
253,253,-0.5939855592586321,-0.6,1,391.0,733.0,1.0,736.0,1,0.020125827200607172,0.0
254,254,0.5364493618817714,0.5,0,330.0,962.0,0.0,338.0,1,0.08655791438294295,0.0
255,255,0.300936525527816,0.3,0,337.0,890.0,0.0,553.0,1,0.08030695576387625,0.0
256,256,-0.03188516131517094,-0.0,1,368.0,516.0,0.0,1386.0,0,0.039698259410762965,0.0
257,257,0.07011877913687337,0.1,0,416.0,883.0,0.0,2251.0,1,0.03230694797688144,0.0
258,258,-0.7699323458553633,-0.8,1,438.0,828.0,1.0,384.0,1,0.06972592384813606,0.0
259,259,-0.45635649467498873,-0.5,1,453.0,615.0,1.0,1112.0,1,0.028665708229437648,0.0
260,260,-0.12017739248042814,-0.1,1,323.0,586.0,0.0,361.0,0,0.0040580595751465885,0.0
261,261,-0.9389725859744298,-0.9,1,365.0,958.0,1.0,677.0,1,0.031228561918824307,0.0
262,262,0.013736765872219614,0.0,0,377.0,602.0,0.0,471.0,1,0.07301645595143956,0.0
263,263,-0.1995744858942501,-0.2,1,273.0,594.0,1.0,603.0,1,0.08111038339785749,0.0
264,264,-0.07829831851354552,-0.1,1,370.0,623.0,0.0,647.0,0,0.042252940815976005,0.0
265,265,-0.021984393643178057,-0.0,1,393.0,746.0,0.0,1741.0,0,0.015305097952032899,0.0
266,266,-0.7060184991957459,-0.7,1,447.0,931.0,1.0,502.0,1,0.017376092996116376,0.0
267,267,-0.49377381120960595,-0.5,1,357.0,507.0,1.0,596.0,1,0.0980371980418534,0.0
268,268,0.5752744618077246,0.6,0,388.0,777.0,0.0,275.0,1,0.04306589084766902,0.0
269,269,0.8715933068012598,0.9,0,439.0,722.0,0.0,339.0,1,0.07161155036916038,0.0
270,270,-0.6693703382476179,-0.7,1,351.0,675.0,1.0,454.0,1,0.04619633766513551,0.0
271,271,-0.159738889065286,-0.2,1,413.0,997.0,0.0,1200.0,0,0.0854623022904912,0.0
272,272,0.02358041418456569,0.0,0,370.0,788.0,0.0,582.0,1,0.003284726903404689,0.0
273,273,0.7362334308487055,0.7,0,405.0,996.0,0.0,3599.0,1,0.0467138484687794,0.0
274,274,0.09929770088211964,0.1,0,284.0,747.0,0.0,759.0,1,0.09628035740870282,0.0
275,275,0.9934084561279612,1.0,0,384.0,595.0,0.0,81.0,1,0.08747729362758808,0.0
276,276,-0.4882319287473724,-0.5,1,342.0,781.0,1.0,1047.0,1,0.033677684331052136,0.0
277,277,-0.6550636190203596,-0.7,1,294.0,701.0,1.0,405.0,1,0.07186796351062211,0.0
278,278,0.6149207071462608,0.6,0,305.0,556.0,0.0,819.0,1,0.04167099856295468,0.0
279,279,0.14945914794031756,0.1,0,378.0,738.0,0.0,564.0,1,0.02496459158950767,0.0
280,280,0.19268465310117566,0.2,0,283.0,656.0,0.0,451.0,1,0.049452776721992275,0.0
281,281,0.5150665564053822,0.5,0,251.0,611.0,0.0,4138.0,1,0.06055212120219823,0.0
282,282,0.44023215998837717,0.4,0,425.0,935.0,0.0,580.0,1,0.0067281919668235384,0.0
283,283,0.24422666583695252,0.2,0,460.0,849.0,0.0,401.0,1,0.025275624723741032,0.0
284,284,-0.44693032497469565,-0.4,1,294.0,705.0,1.0,2871.0,1,0.027677285846850454,0.0
285,285,0.9802258105806345,1.0,0,252.0,568.0,0.0,4180.0,1,0.022902477646210895,0.0
286,286,-0.055653498596293094,-0.1,1,393.0,677.0,0.0,610.0,0,0.015247631302256938,0.0
287,287,-0.9648080094266036,-1.0,1,342.0,669.0,1.0,379.0,1,0.08312667548630098,0.0
288,288,0.7520630592281048,0.8,0,332.0,544.0,0.0,344.0,1,0.0014428735880765654,0.0
289,289,-0.6824019887878789,-0.7,1,400.0,560.0,1.0,610.0,1,0.08438901377214492,0.0
290,290,0.9756228227520654,1.0,0,425.0,568.0,0.0,4007.0,1,0.095189199299948,0.0
291,291,-0.9585443595453109,-1.0,1,300.0,609.0,1.0,371.0,1,0.026013903057987054,0.0
292,292,-0.41428959471394,-0.4,1,386.0,994.0,1.0,660.0,1,0.000510928266370525,0.0
293,293,0.9100077445715473,0.9,0,440.0,909.0,0.0,261.0,1,0.0121159719842603,0.0
294,294,-0.7076661658505343,-0.7,1,255.0,769.0,1.0,406.0,1,0.00601962687518306,0.0
295,295,0.867879157195383,0.9,0,438.0,537.0,0.0,385.0,1,0.005240182166440566,0.0
296,296,-0.9833786336430475,-1.0,1,269.0,644.0,1.0,427.0,1,0.017015400593540442,0.0
297,297,-0.037712091480781584,-0.0,1,268.0,704.0,0.0,368.0,0,0.08212570465129174,0.0
298,298,0.9208131498609506,0.9,0,402.0,694.0,0.0,3904.0,1,0.07355029569933048,0.0
299,299,0.6571118549046047,0.7,0,493.0,968.0,0.0,309.0,1,0.016544243503003177,0.0
300,300,0.9915563720082665,1.0,0,274.0,971.0,0.0,325.0,1,0.059709250263865955,0.0
301,301,0.37587167642261643,0.4,0,418.0,701.0,0.0,411.0,1,0.058462026329215315,0.0
302,302,0.5307995101382377,0.5,0,390.0,536.0,0.0,624.0,1,0.031599051426901496,0.0
303,303,0.3906785223232909,0.4,0,420.0,980.0,0.0,250.0,1,0.02072129511147497,0.0
304,304,-0.5280369568032401,-0.5,1,449.0,775.0,1.0,296.0,1,0.09750398338958005,0.0
305,305,-0.4605366735608569,-0.5,1,405.0,518.0,1.0,3007.0,1,0.004937154672278255,0.0
306,306,0.5480929721250132,0.5,0,466.0,679.0,0.0,395.0,1,0.01049007543046624,0.0
307,307,0.7908714947630506,0.8,0,427.0,847.0,0.0,346.0,1,0.08173605946066687,0.0
308,308,-0.27473313808060884,-0.3,1,310.0,786.0,0.0,1274.0,0,0.08665225601925929,0.0
309,309,0.33530185518742295,0.3,0,353.0,986.0,0.0,1441.0,1,0.021874711320229723,0.0
310,310,-0.6260488035565357,-0.6,1,318.0,875.0,1.0,227.0,1,0.03670095165778151,0.0
311,311,-0.9271120292641781,-0.9,1,374.0,893.0,1.0,273.0,1,0.0397172071100573,0.0
312,312,0.8526607928165229,0.9,0,325.0,881.0,0.0,3794.0,1,0.05805528567346968,0.0
313,313,-0.044212317276854485,-0.0,1,477.0,618.0,0.0,1095.0,0,0.0635515751707532,0.0
314,314,-0.729253394812716,-0.7,1,253.0,846.0,1.0,471.0,1,0.06369779154885669,0.0
315,315,-0.045900432167930605,-0.0,1,284.0,965.0,0.0,911.0,0,0.04065530624609585,0.0
316,316,0.6543457764035419,0.7,0,471.0,895.0,0.0,294.0,1,0.05610779623708883,0.0
317,317,-0.3331620186015529,-0.3,1,317.0,511.0,0.0,2022.0,0,0.09222950943628491,0.0
318,318,-0.6234351233630548,-0.6,1,338.0,688.0,1.0,454.0,1,0.03377283815073608,0.0
319,319,0.7635040965297781,0.8,0,266.0,905.0,0.0,359.0,1,0.09519304516464017,0.0
320,320,0.6455877464021411,0.6,0,311.0,597.0,0.0,462.0,1,0.0234225164400272,0.0
321,321,-0.8829005786701418,-0.9,1,277.0,948.0,1.0,425.0,1,0.09867137374593944,0.0
322,322,0.029692477013292917,0.0,0,257.0,824.0,0.0,669.0,1,0.024319198424576506,0.0
323,323,-0.8504859155315982,-0.9,1,250.0,593.0,1.0,467.0,1,0.05467525919372013,0.0
324,324,0.472745312995946,0.5,0,438.0,899.0,0.0,303.0,1,0.02192113377823234,0.0
325,325,-0.6237614718245286,-0.6,1,415.0,830.0,1.0,945.0,1,0.09445637153625892,0.0
326,326,-0.06760126012041745,-0.1,1,392.0,721.0,0.0,377.0,0,0.05093656636019672,0.0
327,327,0.4084358503861236,0.4,0,498.0,894.0,0.0,618.0,1,0.03966691974843739,0.0
328,328,0.34665075501903764,0.3,0,397.0,912.0,0.0,1151.0,1,0.09800340216828443,0.0
329,329,-0.7933391164633719,-0.8,1,330.0,561.0,1.0,839.0,1,0.09645076641459485,0.0
330,330,-0.7643550538450363,-0.8,1,316.0,764.0,1.0,560.0,1,0.037189117575256204,0.0
331,331,0.7343294194994365,0.7,0,348.0,844.0,0.0,228.0,1,0.03635454228926678,0.0
332,332,0.6101024811179281,0.6,0,322.0,984.0,0.0,344.0,1,0.05463341271246053,0.0
333,333,0.060144939000315034,0.1,0,395.0,674.0,0.0,881.0,1,0.04544041303548482,0.0
334,334,-0.03771862012995908,-0.0,1,258.0,579.0,0.0,653.0,0,0.081729720085649,0.0
335,335,0.5447382144769062,0.5,0,484.0,799.0,0.0,577.0,1,0.012708419624747747,0.0
336,336,0.6119435337647319,0.6,0,297.0,896.0,0.0,537.0,1,0.029367313475110225,0.0
337,337,-0.05223264576745423,-0.1,1,309.0,624.0,0.0,907.0,0,0.048599411040183574,0.0
338,338,0.5292896153501354,0.5,0,390.0,735.0,0.0,395.0,1,0.04276920328466523,0.0
339,339,0.7281869323793959,0.7,0,484.0,671.0,0.0,2455.0,1,0.03822205455303959,0.0
340,340,-0.8981319266719252,-0.9,1,306.0,921.0,1.0,303.0,1,0.0949996747185997,0.0
341,341,-0.5575531263775357,-0.6,1,441.0,545.0,1.0,1574.0,1,0.07311194511044744,0.0
342,342,0.8664415202254103,0.9,0,379.0,671.0,0.0,170.0,1,0.001230098102261823,0.0
343,343,-0.12764216045528398,-0.1,1,342.0,854.0,0.0,444.0,0,0.014081838750129428,0.0
344,344,0.999659777879355,1.0,0,379.0,602.0,0.0,4019.0,1,0.002737344436683742,0.0
345,345,0.10730572061119448,0.1,0,282.0,912.0,0.0,446.0,1,0.046967013970581895,0.0
346,346,0.10310277634917075,0.1,0,273.0,572.0,0.0,1785.0,1,0.09424430261652093,0.0
347,347,0.5893968099575191,0.6,0,458.0,939.0,0.0,2883.0,1,0.024891214099762693,0.0
348,348,0.5969593767181911,0.6,0,379.0,661.0,0.0,290.0,1,0.008644927564817129,0.0
349,349,-0.9200011931624239,-0.9,1,416.0,574.0,1.0,870.0,1,0.04030510674760282,0.0
350,350,0.5913749812087681,0.6,0,271.0,738.0,0.0,291.0,1,0.03221906201882734,0.0
351,351,0.6281465973426656,0.6,0,335.0,937.0,0.0,388.0,1,0.0973901657347425,0.0
352,352,0.34341414254849445,0.3,0,466.0,800.0,0.0,444.0,1,0.012792021744345072,0.0
353,353,-0.8736935671365511,-0.9,1,336.0,679.0,1.0,365.0,1,0.0030693615676313014,0.0
354,354,-0.7289579919078588,-0.7,1,388.0,828.0,1.0,344.0,1,0.07563994782070882,0.0
355,355,-0.5817913047281578,-0.6,1,264.0,690.0,1.0,536.0,1,0.004174314524125089,0.0
356,356,-0.2997731537267727,-0.3,1,264.0,674.0,0.0,452.0,0,0.05909290059768697,0.0
357,357,-0.6201379717191806,-0.6,1,448.0,605.0,1.0,487.0,1,0.07514400554455926,0.0
358,358,0.34615783531372735,0.3,0,256.0,569.0,0.0,195.0,1,0.0899061409164747,0.0
359,359,0.054639195039244415,0.1,0,263.0,684.0,0.0,533.0,1,0.044142475068627375,0.0
360,360,-0.9945198726914373,-1.0,1,457.0,529.0,1.0,324.0,1,0.04168334490280612,0.0
361,361,0.5427405602597855,0.5,0,266.0,802.0,0.0,1932.0,1,0.06472431016187914,0.0
362,362,0.08862039408033007,0.1,0,311.0,948.0,0.0,441.0,1,0.07443716829358736,0.0
363,363,-0.7736275630178195,-0.8,1,426.0,542.0,1.0,602.0,1,0.030832036633162963,0.0
364,364,0.9628665195494737,1.0,0,499.0,857.0,0.0,494.0,1,0.0773846518506972,0.0
365,365,-0.5345718051863679,-0.5,1,306.0,840.0,0.0,894.0,0,0.06805662087311082,0.0
366,366,-0.5443233648804486,-0.5,1,443.0,634.0,1.0,1193.0,1,0.0502011410233627,0.0
367,367,0.7461377272924075,0.7,0,436.0,870.0,0.0,1624.0,1,0.07554850827568743,0.0
368,368,0.6222357272615104,0.6,0,372.0,981.0,0.0,247.0,1,0.088334358339019,0.0
369,369,-0.37758798441338315,-0.4,1,330.0,964.0,1.0,596.0,1,0.09812609763314721,0.0
370,370,-0.9988774451840632,-1.0,1,470.0,587.0,1.0,363.0,1,0.07423621505389859,0.0
371,371,0.6948100737298479,0.7,0,490.0,629.0,0.0,391.0,1,0.07022705690772058,0.0
372,372,0.7780502873985791,0.8,0,445.0,669.0,0.0,2056.0,1,0.01127587307508171,0.0
373,373,0.7364990733942973,0.7,0,466.0,515.0,0.0,279.0,1,0.009447827685712562,0.0
374,374,0.9130071821853947,0.9,0,473.0,702.0,0.0,165.0,1,0.08347715815012324,0.0
375,375,-0.12721370522180098,-0.1,1,287.0,753.0,0.0,580.0,0,0.009129911085264753,0.0
376,376,0.357803305483255,0.4,0,341.0,877.0,0.0,762.0,1,0.027517816163996647,0.0
377,377,0.9211091062388823,0.9,0,406.0,957.0,0.0,157.0,1,0.06771212393435207,0.0
378,378,0.4295402468652114,0.4,0,265.0,717.0,0.0,298.0,1,0.06473858811375892,0.0
379,379,-0.8169524874824567,-0.8,1,454.0,563.0,1.0,353.0,1,0.09228516413907056,0.0
380,380,0.2001063543164665,0.2,0,481.0,853.0,0.0,346.0,1,0.06004215122749526,0.0
381,381,0.9994719684945108,1.0,0,318.0,815.0,0.0,3867.0,1,0.06937484642820572,0.0
382,382,0.11630282693317628,0.1,0,252.0,631.0,0.0,457.0,1,0.013418867333531204,0.0
383,383,-0.8728627610123574,-0.9,1,357.0,834.0,1.0,489.0,1,0.0197502919485721,0.0
384,384,0.3776575240022646,0.4,0,439.0,545.0,0.0,776.0,1,0.08353875687558177,0.0
385,385,0.14135882416360968,0.1,0,365.0,796.0,0.0,659.0,1,0.015047548156601254,0.0
386,386,-0.7910584847369673,-0.8,1,305.0,753.0,1.0,382.0,1,0.054484864202341644,0.0
387,387,-0.12864639557685398,-0.1,1,497.0,810.0,0.0,533.0,0,0.08710938702717005,0.0
388,388,0.41074354980234373,0.4,0,458.0,883.0,0.0,3659.0,1,0.05904195693758048,0.0
389,389,0.9119273355839896,0.9,0,423.0,828.0,0.0,299.0,1,0.05528132603002879,0.0
390,390,-0.7485604921517635,-0.7,1,463.0,835.0,1.0,502.0,1,0.018009714609495964,0.0
391,391,-0.05777966015887315,-0.1,1,317.0,563.0,0.0,800.0,0,0.05592065299585728,0.0
392,392,-0.7649149929489676,-0.8,1,406.0,572.0,1.0,342.0,1,0.09325135298818588,0.0
393,393,-0.9674458156370052,-1.0,1,275.0,830.0,1.0,505.0,1,0.02595744309824114,0.0
394,394,-0.1487276848742516,-0.1,1,341.0,530.0,0.0,2549.0,0,0.06765015833749442,0.0
395,395,-0.32316966503120836,-0.3,1,288.0,507.0,0.0,805.0,0,0.030560889100467482,0.0
396,396,0.2780968907902419,0.3,0,302.0,884.0,0.0,254.0,1,0.04537451109346263,0.0
397,397,-0.16056382705171535,-0.2,1,495.0,591.0,0.0,464.0,0,0.0011404233143486266,0.0
398,398,-0.2875300873563278,-0.3,1,444.0,670.0,0.0,2136.0,0,0.03264827017130804,0.0
399,399,-0.41737630780791424,-0.4,1,259.0,513.0,0.0,1858.0,0,0.0015870140384950716,0.0
400,400,-0.9519431136251995,-1.0,1,458.0,508.0,1.0,334.0,1,0.0574633246119731,0.0
401,401,0.47275331416623545,0.5,0,441.0,518.0,0.0,451.0,1,0.09080719583128806,0.0
402,402,-0.25896855203900193,-0.3,1,454.0,905.0,0.0,771.0,0,0.036304712693951205,0.0
403,403,-0.11190184016417426,-0.1,1,365.0,955.0,0.0,800.0,0,0.05071424820385866,0.0
404,404,0.7551790132400273,0.8,0,283.0,659.0,0.0,268.0,1,0.04847710340513618,0.0
405,405,0.9200865141713486,0.9,0,484.0,944.0,0.0,282.0,1,0.029480480519408173,0.0
406,406,0.1322383008213628,0.1,0,264.0,542.0,0.0,334.0,1,0.08673897117163101,0.0
407,407,-0.3900419471826224,-0.4,1,440.0,644.0,1.0,536.0,1,0.09062413656057014,0.0
408,408,-0.11808480067850846,-0.1,1,352.0,814.0,0.0,1124.0,0,0.052134329216682054,0.0
409,409,0.46931852696562437,0.5,0,458.0,683.0,0.0,259.0,1,0.0565207629070206,0.0
410,410,0.07518644081288328,0.1,0,332.0,621.0,0.0,527.0,1,0.02491374894039038,0.0
411,411,0.1883996190897006,0.2,0,288.0,897.0,0.0,425.0,1,0.0010613752343744953,0.0
412,412,0.9144119292637451,0.9,0,486.0,728.0,0.0,276.0,1,0.0345631852043165,0.0
413,413,0.34892613478580503,0.3,0,371.0,762.0,0.0,1997.0,1,0.04723416764110064,0.0
414,414,-0.846583664676188,-0.8,1,437.0,744.0,1.0,939.0,1,0.011754702972140207,0.0
415,415,-0.5919251308373723,-0.6,1,274.0,616.0,1.0,330.0,1,0.03330716484744093,0.0
416,416,0.6183871391449824,0.6,0,495.0,735.0,0.0,260.0,1,0.03454523953777005,0.0
417,417,0.27444905785091156,0.3,0,494.0,931.0,0.0,2445.0,1,0.046782376551960325,0.0
418,418,-0.7170016703177258,-0.7,1,406.0,851.0,1.0,343.0,1,0.016504532041175645,0.0
419,419,0.7144376966926473,0.7,0,451.0,658.0,0.0,611.0,1,0.04575271793652084,0.0
420,420,0.06866576167628935,0.1,0,491.0,967.0,0.0,332.0,1,0.0799162775989623,0.0
421,421,0.17562690113301826,0.2,0,389.0,788.0,0.0,333.0,1,0.08758664475358661,0.0
422,422,0.09903868373938263,0.1,0,263.0,937.0,0.0,520.0,1,0.07073880223207678,0.0
423,423,-0.22952870832306882,-0.2,1,280.0,522.0,0.0,2378.0,0,0.09729477348703797,0.0
424,424,-0.1979241228629871,-0.2,1,297.0,783.0,0.0,570.0,0,0.014361799994236868,0.0
425,425,0.29654605462585204,0.3,0,434.0,511.0,0.0,485.0,1,0.0615455417189161,0.0
426,426,-0.7114514233820268,-0.7,1,424.0,531.0,1.0,615.0,1,0.09010525201106964,0.0
427,427,0.6002711990014895,0.6,0,456.0,540.0,0.0,94.0,1,0.03962711876762122,0.0
428,428,0.2633444130914948,0.3,0,311.0,587.0,0.0,242.0,1,0.07979053953641771,0.0
429,429,-0.09243132149891498,-0.1,1,405.0,769.0,0.0,546.0,0,0.05563142958011678,0.0
430,430,-0.7150329614467372,-0.7,1,436.0,722.0,1.0,882.0,1,0.06157187291930131,0.0
431,431,-0.2022592190716439,-0.2,1,342.0,804.0,0.0,584.0,0,0.08457979641195394,0.0
432,432,-0.6650177912520956,-0.7,1,330.0,793.0,1.0,747.0,1,0.08856626988154156,0.0
433,433,-0.36075550508248266,-0.4,1,268.0,725.0,1.0,2687.0,1,0.09092209059981299,0.0
434,434,0.8047236917812226,0.8,0,282.0,711.0,0.0,277.0,1,0.08643031618527744,0.0
435,435,-0.7005219813537145,-0.7,1,307.0,535.0,1.0,508.0,1,0.08436159432365647,0.0
436,436,0.8999998174390962,0.9,0,448.0,793.0,0.0,339.0,1,0.061501219872199135,0.0
437,437,-0.40484298160978494,-0.4,1,380.0,727.0,0.0,2343.0,0,0.07347124856515666,0.0
438,438,-0.32974579664543424,-0.3,1,410.0,867.0,0.0,1873.0,0,0.016214200733707374,0.0
439,439,0.07096632562600513,0.1,0,407.0,909.0,0.0,2354.0,1,0.02698087403080779,0.0
440,440,0.31496933163888974,0.3,0,451.0,929.0,0.0,340.0,1,0.04667204554876131,0.0
441,441,0.9576205851695125,1.0,0,421.0,790.0,0.0,439.0,1,0.09266956710259251,0.0
442,442,-0.11543586075933843,-0.1,1,361.0,548.0,0.0,611.0,0,0.06680375326867138,0.0
443,443,0.2746093731369512,0.3,0,490.0,594.0,0.0,3916.0,1,0.016467186131234903,0.0
444,444,-0.28964716728323503,-0.3,1,428.0,962.0,0.0,1250.0,0,0.026075494135176527,0.0
445,445,-0.9608026991193941,-1.0,1,252.0,619.0,1.0,599.0,1,0.014344211356225567,0.0
446,446,0.20544428916695612,0.2,0,323.0,839.0,0.0,508.0,1,0.07217775281904706,0.0
447,447,0.6399513486693997,0.6,0,265.0,906.0,0.0,569.0,1,0.07349436954991136,0.0
448,448,0.6253992424219557,0.6,0,278.0,936.0,0.0,226.0,1,0.0752752208868837,0.0
449,449,0.527132457214297,0.5,0,440.0,713.0,0.0,357.0,1,0.08999787073197346,0.0
450,450,-0.016889693852434773,-0.0,1,299.0,798.0,0.0,433.0,0,0.028300023302943844,0.0
451,451,-0.21494117930575207,-0.2,1,274.0,926.0,0.0,630.0,0,0.03222851379847679,0.0
452,452,0.6164511553258152,0.6,0,255.0,618.0,0.0,187.0,1,0.044087035905764044,0.0
453,453,0.9307625202816443,0.9,0,389.0,739.0,0.0,182.0,1,0.003921304787625735,0.0
454,454,-0.09769887108104847,-0.1,1,417.0,776.0,0.0,877.0,0,0.016189673365592995,0.0
455,455,-0.7495238608377592,-0.7,1,435.0,755.0,1.0,1360.0,1,0.08306457924909921,0.0
456,456,-0.8801512548089667,-0.9,1,418.0,921.0,1.0,331.0,1,0.03142085362463808,0.0
457,457,0.6317806308964844,0.6,0,482.0,752.0,0.0,306.0,1,0.03604372060006951,0.0
458,458,0.6710072416068829,0.7,0,260.0,592.0,0.0,228.0,1,0.09890232851666601,0.0
459,459,0.2351250785881287,0.2,0,299.0,564.0,0.0,1027.0,1,0.07568412689005163,0.0
460,460,0.5354607918970122,0.5,0,258.0,605.0,0.0,517.0,1,0.014935343923323942,0.0
461,461,0.7405005375739948,0.7,0,267.0,977.0,0.0,426.0,1,0.033278367304699054,0.0
462,462,-0.11451005895179267,-0.1,1,267.0,658.0,0.0,525.0,0,0.07098786963833728,0.0
463,463,-0.8322748946764873,-0.8,1,277.0,508.0,1.0,305.0,1,0.07388661964746233,0.0
464,464,0.5968356055593473,0.6,0,308.0,979.0,0.0,233.0,1,0.09777681801717195,0.0
465,465,0.9896803054785772,1.0,0,340.0,801.0,0.0,349.0,1,0.02490116324601173,0.0
466,466,-0.968374266322499,-1.0,1,412.0,927.0,1.0,781.0,1,0.019650150865510786,0.0
467,467,-0.5462633029532431,-0.5,1,279.0,672.0,1.0,809.0,1,0.035630188506637274,0.0
468,468,0.6446669156485609,0.6,0,317.0,827.0,0.0,566.0,1,0.031221287941106093,0.0
469,469,0.012869325751335037,0.0,0,342.0,548.0,1.0,4110.0,0,0.07553227937103468,0.0
470,470,-0.4630542192832765,-0.5,1,454.0,844.0,1.0,1372.0,1,0.0032061758351620397,0.0
471,471,-0.14371642670766205,-0.1,1,318.0,878.0,0.0,474.0,0,0.03066815423479934,0.0
472,472,0.7758183529557716,0.8,0,413.0,814.0,0.0,273.0,1,0.01494604907640631,0.0
473,473,0.372244757859294,0.4,0,255.0,644.0,0.0,421.0,1,0.04119183133990026,0.0
474,474,-0.679072089713171,-0.7,1,270.0,881.0,1.0,449.0,1,0.07634485250161716,0.0
475,475,-0.9216496672679226,-0.9,1,299.0,777.0,1.0,364.0,1,0.01879402080770627,0.0
476,476,-0.12321611306198954,-0.1,1,465.0,623.0,0.0,452.0,0,0.034522564728518536,0.0
477,477,-0.7721611548884257,-0.8,1,270.0,686.0,1.0,564.0,1,0.06813874235796664,0.0
478,478,-0.5723269732733458,-0.6,1,448.0,813.0,1.0,629.0,1,0.08488834177987457,0.0
479,479,0.958593562912299,1.0,0,413.0,722.0,0.0,245.0,1,0.017543068589785528,0.0
480,480,0.25234704252434326,0.3,0,411.0,693.0,0.0,196.0,1,0.04591017438100636,0.0
481,481,0.41279693734059064,0.4,0,420.0,550.0,0.0,270.0,1,0.019945572602846275,0.0
482,482,0.2988165412015493,0.3,0,273.0,715.0,0.0,732.0,1,0.08307748972616001,0.0
483,483,-0.21530317978684388,-0.2,1,346.0,957.0,0.0,2707.0,0,0.04777377143948718,0.0
484,484,-0.21439875321904056,-0.2,1,390.0,667.0,0.0,723.0,0,0.01794431950314115,0.0
485,485,0.46006337893513294,0.5,0,271.0,846.0,0.0,383.0,1,0.03101613497780601,0.0
486,486,-0.8733026363188112,-0.9,1,291.0,630.0,1.0,369.0,1,0.0024938602779148392,0.0
487,487,0.12533276120719572,0.1,0,455.0,501.0,0.0,534.0,1,0.013869247522954365,0.0
488,488,0.5978367754178477,0.6,0,318.0,643.0,0.0,389.0,1,0.042058855822682706,0.0
489,489,-0.34805689860170896,-0.3,1,316.0,695.0,0.0,509.0,0,0.06996306996517691,0.0
490,490,-0.1390845036791699,-0.1,1,339.0,564.0,0.0,767.0,0,0.07317705751435614,0.0
491,491,-0.694379889150526,-0.7,1,250.0,506.0,1.0,354.0,1,0.030862088446961866,0.0
492,492,-0.1291163285554371,-0.1,1,279.0,685.0,0.0,246.0,0,0.04769046930765747,0.0
493,493,0.30757706248810135,0.3,0,428.0,536.0,0.0,266.0,1,0.017276182695415764,0.0
494,494,0.325432324467549,0.3,0,318.0,659.0,0.0,333.0,1,0.010226428221110384,0.0
495,495,-0.6099256505153157,-0.6,1,383.0,842.0,1.0,1225.0,1,0.014891188649520149,0.0
496,496,-0.827392497943124,-0.8,1,470.0,735.0,1.0,635.0,1,0.039859077118535625,0.0
497,497,0.9026626021587378,0.9,0,455.0,937.0,0.0,168.0,1,0.04640410387865604,0.0
498,498,-0.814451033787964,-0.8,1,357.0,548.0,1.0,415.0,1,0.08191775569787618,0.0
499,499,-0.6053536720034007,-0.6,1,352.0,558.0,1.0,1170.0,1,0.040306345831503866,0.0
500,500,0.5102201398543453,0.5,0,338.0,592.0,0.0,4070.0,1,0.04244351989322048,0.0
501,501,-0.7606545537905904,-0.8,1,354.0,987.0,1.0,1439.0,1,0.0275809179747871,0.0
502,502,0.10293627300571218,0.1,0,362.0,520.0,0.0,2358.0,1,0.060528475117333114,0.0
503,503,-0.15451245799438484,-0.2,1,355.0,631.0,0.0,694.0,0,0.05039970931675855,0.0
504,504,-0.9918507138310317,-1.0,1,428.0,701.0,1.0,471.0,1,0.003992317506654119,0.0
505,505,-0.00964808894986513,-0.0,1,479.0,899.0,0.0,592.0,0,0.07771374435355816,0.0
506,506,-0.14163095483767063,-0.1,1,494.0,617.0,0.0,229.0,0,0.09936176406176343,0.0
507,507,-0.052541325559419816,-0.1,1,400.0,602.0,0.0,368.0,0,0.006529564879964212,0.0
508,508,0.06829630239756512,0.1,0,437.0,542.0,0.0,1631.0,1,0.03622401036019931,0.0
509,509,0.9941263489390719,1.0,0,419.0,870.0,0.0,241.0,1,0.017280585765754964,0.0
510,510,0.07337246330487135,0.1,0,287.0,912.0,0.0,681.0,1,0.04763323144999352,0.0
511,511,0.5663317451684982,0.6,0,421.0,724.0,0.0,215.0,1,0.09192625022340217,0.0
512,512,-0.8335841791235481,-0.8,1,351.0,906.0,1.0,313.0,1,0.067739713263645,0.0
513,513,-0.549830281272462,-0.5,1,384.0,672.0,0.0,2934.0,0,0.05666133849528341,0.0
514,514,-0.6961471993264028,-0.7,1,275.0,756.0,1.0,469.0,1,0.052240621433778424,0.0
515,515,0.06364568029429418,0.1,0,277.0,583.0,0.0,280.0,1,0.017717641131182217,0.0
516,516,0.5964015769782995,0.6,0,398.0,987.0,0.0,355.0,1,0.023629481477651305,0.0
517,517,-0.3922524318264409,-0.4,1,313.0,522.0,1.0,525.0,1,0.09745952609733227,0.0
518,518,-0.9019136283567593,-0.9,1,468.0,966.0,1.0,546.0,1,0.011843707049380592,0.0
519,519,-0.4447827125626167,-0.4,1,363.0,632.0,1.0,345.0,1,0.020513229023153157,0.0
520,520,-0.337349005098756,-0.3,1,410.0,585.0,1.0,475.0,1,0.032570790563372545,0.0
521,521,0.9508463530090006,1.0,0,463.0,778.0,0.0,299.0,1,0.027706616805926544,0.0
522,522,0.6280775538474255,0.6,0,256.0,925.0,0.0,539.0,1,0.05646920117708631,0.0
523,523,-0.66967542412899,-0.7,1,324.0,524.0,1.0,812.0,1,0.08675540501839968,0.0
524,524,-0.6207094072257142,-0.6,1,495.0,890.0,1.0,515.0,1,0.03736670141173674,0.0
525,525,0.31056644652618504,0.3,0,287.0,697.0,0.0,346.0,1,0.005028351857813329,0.0
526,526,0.06041906403045849,0.1,0,336.0,554.0,0.0,500.0,1,0.0754565626953978,0.0
527,527,0.12079765514736618,0.1,0,308.0,507.0,0.0,535.0,1,0.07459882947361728,0.0
528,528,-0.14556730520949324,-0.1,1,311.0,948.0,0.0,1011.0,0,0.08462996737913725,0.0
529,529,-0.942381981770632,-0.9,1,360.0,836.0,1.0,484.0,1,0.04637629409651566,0.0
530,530,-0.7223497321345111,-0.7,1,431.0,541.0,1.0,258.0,1,0.0793582594509351,0.0
531,531,-0.2197905024157243,-0.2,1,364.0,617.0,0.0,609.0,0,0.051315233638860994,0.0
532,532,-0.002654551341851219,-0.0,1,473.0,831.0,0.0,536.0,0,0.007767375204685557,0.0
533,533,-0.31261528907279135,-0.3,1,475.0,843.0,0.0,1112.0,0,0.03625889623820427,0.0
534,534,0.9954415164057775,1.0,0,422.0,875.0,0.0,273.0,1,0.0628247146130202,0.0
535,535,0.8483736981386714,0.8,0,377.0,617.0,0.0,1396.0,1,0.0102971614403925,0.0
536,536,-0.900735164616673,-0.9,1,366.0,843.0,1.0,261.0,1,0.08110950734649547,0.0
537,537,-0.3269901528808865,-0.3,1,335.0,516.0,0.0,1709.0,0,0.07145327134368551,0.0
538,538,-0.5156933209087466,-0.5,1,431.0,808.0,1.0,631.0,1,0.08473625817011315,0.0
539,539,-0.6218831408582663,-0.6,1,414.0,525.0,1.0,501.0,1,0.04781445648740752,0.0
540,540,0.015856314591976783,0.0,0,299.0,646.0,0.0,1345.0,1,0.026170818926485984,0.0
541,541,0.4602045839903406,0.5,0,366.0,895.0,0.0,1759.0,1,0.0325108300080209,0.0
542,542,0.5008947171272506,0.5,0,478.0,701.0,0.0,381.0,1,0.023544997521115465,0.0
543,543,-0.3498859180410352,-0.3,1,344.0,751.0,1.0,345.0,1,0.030608810527506927,0.0
544,544,-0.07493045543420207,-0.1,1,468.0,525.0,0.0,227.0,0,0.051548184242716615,0.0
545,545,0.7603343077862328,0.8,0,297.0,880.0,0.0,563.0,1,0.001440305049548163,0.0
546,546,0.3742200679687073,0.4,0,477.0,786.0,0.0,337.0,1,0.032790637346416344,0.0
547,547,0.5225478074028875,0.5,0,421.0,862.0,0.0,357.0,1,0.07091656773088825,0.0
548,548,-0.4975693890407673,-0.5,1,426.0,825.0,1.0,1469.0,1,0.09519966934307612,0.0
549,549,0.23017889624604404,0.2,0,398.0,890.0,0.0,502.0,1,0.08757789140172005,0.0
550,550,-0.8581962475209617,-0.9,1,431.0,512.0,1.0,567.0,1,0.05359055425989021,0.0
551,551,0.36450766436300186,0.4,0,301.0,735.0,0.0,354.0,1,0.08907571063761585,0.0
552,552,0.556166764457926,0.6,0,356.0,748.0,0.0,246.0,1,0.04016537861640786,0.0
553,553,0.9593548790231876,1.0,0,270.0,931.0,0.0,349.0,1,0.08163958490240812,0.0
554,554,0.24388808333314071,0.2,0,485.0,681.0,0.0,394.0,1,0.060601321820381894,0.0
555,555,-0.1750797050620878,-0.2,1,324.0,811.0,0.0,615.0,0,0.039289473971286376,0.0
556,556,0.333684199261598,0.3,0,267.0,627.0,0.0,1726.0,1,0.07803412001373386,0.0
557,557,0.9906813810749997,1.0,0,422.0,893.0,0.0,425.0,1,0.09235106360601347,0.0
558,558,0.08673499120256722,0.1,0,340.0,733.0,0.0,507.0,1,0.0809476798564595,0.0
559,559,-0.8028111229195927,-0.8,1,372.0,976.0,1.0,752.0,1,0.03420857302183502,0.0
560,560,0.28379416628483,0.3,0,309.0,846.0,0.0,255.0,1,0.004863659012201583,0.0
561,561,-0.383626962878598,-0.4,1,275.0,574.0,0.0,2911.0,0,0.09771885056841129,0.0
562,562,-0.035757317111035025,-0.0,1,487.0,749.0,0.0,554.0,0,0.039383833420808395,0.0
563,563,-0.21107254769569517,-0.2,1,325.0,690.0,0.0,1955.0,0,0.002814131039024215,0.0
564,564,0.8606591073788672,0.9,0,406.0,840.0,0.0,154.0,1,0.0873759695290847,0.0
565,565,0.8755995327403108,0.9,0,343.0,579.0,0.0,258.0,1,0.07162183347966633,0.0
566,566,-0.5369722797207068,-0.5,1,391.0,827.0,1.0,662.0,1,0.023742378495663765,0.0
567,567,0.4292985871193604,0.4,0,269.0,681.0,0.0,310.0,1,0.030140308616459,0.0
568,568,-0.14736330095628558,-0.1,1,435.0,686.0,0.0,1219.0,0,0.05225435577036949,0.0
569,569,0.10934523935107299,0.1,0,383.0,957.0,0.0,3660.0,1,0.08433690912838579,0.0
570,570,-0.8638331470462282,-0.9,1,304.0,975.0,1.0,591.0,1,0.017936949210192767,0.0
571,571,0.8522673692775582,0.9,0,300.0,778.0,0.0,282.0,1,0.0340465591654403,0.0
572,572,-0.6039930495159564,-0.6,1,499.0,651.0,1.0,570.0,1,0.0016640566771765509,0.0
573,573,0.5356920672319381,0.5,0,386.0,991.0,0.0,323.0,1,0.06901437812346888,0.0
574,574,0.6494744019182737,0.6,0,403.0,966.0,0.0,231.0,1,0.05874356500211014,0.0
575,575,0.9575616670076956,1.0,0,274.0,661.0,0.0,315.0,1,0.04515330871835502,0.0
576,576,-0.9699466365982119,-1.0,1,422.0,847.0,1.0,301.0,1,0.07196413456054328,0.0
577,577,-0.0562142768519418,-0.1,1,262.0,825.0,0.0,2183.0,0,0.017737480329614166,0.0
578,578,-0.6439479990856858,-0.6,1,363.0,920.0,1.0,287.0,1,0.06438703312219576,0.0
579,579,0.8914752826581391,0.9,0,490.0,988.0,0.0,252.0,1,0.035103937803606655,0.0
580,580,0.2026912598510382,0.2,0,280.0,525.0,0.0,505.0,1,0.05134126740790366,0.0
581,581,-0.12710184922912582,-0.1,1,341.0,984.0,0.0,705.0,0,0.08173168492433762,0.0
582,582,0.1930560832121211,0.2,0,481.0,695.0,0.0,3824.0,1,0.07202678666626759,0.0
583,583,-0.019805633198773487,-0.0,1,394.0,853.0,0.0,2833.0,0,0.02575932449720343,0.0
584,584,0.4826486488845054,0.5,0,441.0,519.0,0.0,490.0,1,0.06168809612568729,0.0
585,585,0.23956310569149353,0.2,0,252.0,695.0,0.0,2403.0,1,0.07400717476602792,0.0
586,586,0.3658536197955393,0.4,0,312.0,956.0,0.0,612.0,1,0.09305793362597518,0.0
587,587,0.8556216083723505,0.9,0,371.0,988.0,0.0,331.0,1,0.05844641280531729,0.0
588,588,0.4641255004519069,0.5,0,442.0,708.0,0.0,280.0,1,0.038671648099259694,0.0
589,589,-0.5741406404628544,-0.6,1,384.0,777.0,1.0,329.0,1,0.03531097910278105,0.0
590,590,-0.6752271279305733,-0.7,1,319.0,756.0,1.0,385.0,1,0.08888418879047189,0.0
591,591,-0.201324387520728,-0.2,1,317.0,642.0,0.0,1331.0,0,0.08813336993037096,0.0
592,592,-0.5228245833092604,-0.5,1,476.0,696.0,1.0,1198.0,1,0.060755509798717,0.0
593,593,-0.28165528579099575,-0.3,1,312.0,555.0,0.0,4133.0,0,0.010884345947278252,0.0
594,594,-0.19938794000812177,-0.2,1,254.0,549.0,0.0,847.0,0,0.047245394009701236,0.0
595,595,0.41446027824047893,0.4,0,316.0,588.0,0.0,436.0,1,0.06420741064063716,0.0
596,596,0.39043992132330874,0.4,0,494.0,852.0,0.0,1994.0,1,0.07621948437336454,0.0
597,597,0.372261997601665,0.4,0,492.0,530.0,0.0,2248.0,1,0.035322990903816236,0.0
598,598,-0.02304529946942746,-0.0,1,447.0,959.0,0.0,274.0,0,0.06889853216731005,0.0
599,599,0.6777668062126627,0.7,0,310.0,893.0,0.0,287.0,1,0.056544550476331036,0.0
600,600,0.782783618265263,0.8,0,415.0,635.0,0.0,300.0,1,0.07158911192333943,0.0
601,601,0.07756435427314146,0.1,0,289.0,654.0,0.0,647.0,1,0.028707701023748068,0.0
602,602,0.849821176768949,0.8,0,361.0,908.0,0.0,351.0,1,0.010810382628775607,0.0
603,603,-0.7816914158597572,-0.8,1,498.0,539.0,1.0,333.0,1,0.09745573296977011,0.0
604,604,-0.4258023873035728,-0.4,1,375.0,840.0,1.0,905.0,1,0.09727582534148443,0.0
605,605,0.5552889763994402,0.6,0,286.0,571.0,0.0,363.0,1,0.07855861069734633,0.0
606,606,-0.4244553850804458,-0.4,1,270.0,793.0,0.0,797.0,0,0.0418691875986288,0.0
607,607,-0.04546471964568588,-0.0,1,269.0,609.0,0.0,432.0,0,0.014414439388291312,0.0
608,608,0.1637666548856649,0.2,0,493.0,631.0,0.0,606.0,1,0.06562000109714676,0.0
609,609,0.9237170350182333,0.9,0,317.0,731.0,0.0,3952.0,1,0.024894726112910628,0.0
610,610,0.4307469386328029,0.4,0,393.0,585.0,0.0,1552.0,1,0.036314524203723934,0.0
611,611,-0.9696423498602489,-1.0,1,491.0,975.0,1.0,354.0,1,0.0810147035483513,0.0
612,612,-0.25721636851175367,-0.3,1,327.0,735.0,0.0,2818.0,0,0.08004886555166496,0.0
613,613,-0.6586632916292499,-0.7,1,338.0,992.0,1.0,1120.0,1,0.01596109079249396,0.0
614,614,0.4345758605058343,0.4,0,354.0,924.0,0.0,3722.0,1,0.07990120735948485,0.0
615,615,0.82076315962061,0.8,0,372.0,775.0,0.0,273.0,1,0.019019492598250056,0.0
616,616,0.20404503631705562,0.2,0,381.0,900.0,0.0,419.0,1,0.02079661122039607,0.0
617,617,-0.7148385008684404,-0.7,1,274.0,817.0,1.0,389.0,1,0.02182017865213858,0.0
618,618,-0.42972463187147913,-0.4,1,470.0,893.0,1.0,1017.0,1,0.011933425428439382,0.0
619,619,0.23178223041869161,0.2,0,420.0,792.0,0.0,528.0,1,0.03182682701695829,0.0
620,620,0.9009151808692359,0.9,0,355.0,568.0,0.0,207.0,1,0.07818686153735505,0.0
621,621,-0.12401590318677158,-0.1,1,438.0,744.0,0.0,1828.0,0,0.057914783623883484,0.0
622,622,0.7275406384769163,0.7,0,303.0,686.0,0.0,3271.0,1,0.07915106425558849,0.0
623,623,-0.21482737541207753,-0.2,1,443.0,851.0,0.0,676.0,0,0.08968103401249286,0.0
624,624,-0.09339334676917854,-0.1,1,266.0,831.0,0.0,753.0,0,0.038552664913789496,0.0
625,625,-0.21524040105369568,-0.2,1,299.0,569.0,0.0,1072.0,0,0.0770383502176278,0.0
626,626,-0.3005669617682247,-0.3,1,484.0,937.0,0.0,1489.0,0,0.003032490578873126,0.0
627,627,-0.48408668114304976,-0.5,1,258.0,628.0,1.0,544.0,1,0.0010736745065552777,0.0
628,628,-0.6203593225749717,-0.6,1,345.0,815.0,0.0,670.0,0,0.06155392727058432,0.0
629,629,0.25734746836303946,0.3,0,298.0,734.0,0.0,2248.0,1,0.06332707075608023,0.0
630,630,0.11475686658849749,0.1,0,293.0,591.0,0.0,336.0,1,0.0940805889037783,0.0
631,631,-0.4830008526226919,-0.5,1,365.0,745.0,0.0,690.0,0,0.013250551308630565,0.0
632,632,-0.01977534034395978,-0.0,1,436.0,752.0,0.0,522.0,0,0.028779936238553995,0.0
633,633,-0.7536195845014004,-0.8,1,328.0,652.0,1.0,580.0,1,0.09815534994436159,0.0
634,634,0.6022222085595508,0.6,0,381.0,738.0,0.0,1131.0,1,0.007076747576231057,0.0
635,635,0.4919339448731457,0.5,0,255.0,833.0,0.0,352.0,1,0.08816343715576852,0.0
636,636,0.25199591442887925,0.3,0,269.0,524.0,0.0,307.0,1,0.02726220760918915,0.0
637,637,0.8121235219505574,0.8,0,473.0,548.0,0.0,219.0,1,0.034948766027027324,0.0
638,638,-0.10151141022310006,-0.1,1,288.0,670.0,0.0,342.0,0,0.02022777106451497,0.0
639,639,-0.3957238271004542,-0.4,1,387.0,707.0,0.0,976.0,0,0.07806592248105099,0.0
640,640,-0.21682495291009007,-0.2,1,378.0,892.0,0.0,900.0,0,0.0038597355482020146,0.0
641,641,-0.15424919228396328,-0.2,1,405.0,868.0,0.0,1407.0,0,0.02544503164308123,0.0
642,642,-0.49797827036672837,-0.5,1,367.0,830.0,0.0,613.0,0,0.040105253886098535,0.0
643,643,0.8240067759113829,0.8,0,482.0,569.0,0.0,339.0,1,0.016254202203231816,0.0
644,644,-0.04115151802819428,-0.0,1,467.0,562.0,0.0,531.0,0,0.07839869633209184,0.0
645,645,-0.733542419158522,-0.7,1,466.0,803.0,1.0,491.0,1,0.02542166689407556,0.0
646,646,0.9033240089478674,0.9,0,427.0,916.0,0.0,287.0,1,0.034740387405600794,0.0
647,647,-0.05932344682354218,-0.1,1,480.0,574.0,0.0,526.0,0,0.020140677673223775,0.0
648,648,-0.7157864822661855,-0.7,1,446.0,737.0,1.0,437.0,1,0.05138976822357312,0.0
649,649,0.4065171664662284,0.4,0,252.0,736.0,0.0,2592.0,1,0.09274102369915944,0.0
650,650,0.5536679920127907,0.6,0,476.0,722.0,0.0,312.0,1,0.03059160213234592,0.0
651,651,0.9492704402936147,0.9,0,255.0,883.0,0.0,302.0,1,0.03147670614225482,0.0
652,652,-0.5990797157903704,-0.6,1,460.0,606.0,1.0,904.0,1,0.0065632984088667586,0.0
653,653,-0.06772477741352034,-0.1,1,258.0,773.0,0.0,449.0,0,0.04363773716807452,0.0
654,654,0.18844916464742467,0.2,0,298.0,872.0,0.0,580.0,1,0.02904395516852143,0.0
655,655,0.5844442548651048,0.6,0,468.0,924.0,0.0,3608.0,1,0.07768617424411192,0.0
656,656,0.18856072835301996,0.2,0,273.0,695.0,0.0,342.0,1,0.09805719784824107,0.0
657,657,0.2148667500358432,0.2,0,420.0,959.0,0.0,421.0,1,0.024016113466403335,0.0
658,658,-0.5335882888852859,-0.5,1,406.0,822.0,1.0,472.0,1,0.0266837461282307,0.0
659,659,0.09009774176547158,0.1,0,272.0,764.0,0.0,584.0,1,0.017792898965023684,0.0
660,660,-0.8166892177520824,-0.8,1,469.0,594.0,1.0,467.0,1,0.030609314828206204,0.0
661,661,0.9718224671503237,1.0,0,334.0,728.0,0.0,238.0,1,0.052246627319444405,0.0
662,662,0.3935329303165589,0.4,0,460.0,716.0,0.0,3824.0,1,0.004744049724886379,0.0
663,663,-0.5290110043250009,-0.5,1,450.0,756.0,1.0,484.0,1,0.03547704459784319,0.0
664,664,0.3848411834039709,0.4,0,256.0,933.0,0.0,311.0,1,0.06914446558567588,0.0
665,665,0.3588349773442321,0.4,0,432.0,909.0,0.0,269.0,1,0.013894614875757418,0.0
666,666,-0.9691255244585855,-1.0,1,487.0,710.0,1.0,413.0,1,0.032061823184832874,0.0
667,667,0.04559535465725628,0.0,0,309.0,698.0,0.0,723.0,1,0.08030618387880266,0.0
668,668,-0.724822347259445,-0.7,1,373.0,688.0,1.0,489.0,1,0.03251576805795622,0.0
669,669,-0.24058151185873067,-0.2,1,476.0,803.0,1.0,1771.0,1,0.05159646206773442,0.0
670,670,-0.013822404170939384,-0.0,1,450.0,989.0,0.0,391.0,0,0.05196436855561343,0.0
671,671,-0.35827470514760007,-0.4,1,406.0,925.0,0.0,2389.0,0,0.0006419908976294631,0.0
672,672,0.8444381141809005,0.8,0,270.0,701.0,0.0,309.0,1,0.047462561719067556,0.0
673,673,-0.21801858195863777,-0.2,1,391.0,872.0,0.0,3287.0,0,0.06346248350996696,0.0
674,674,0.9246205417371784,0.9,0,352.0,589.0,0.0,4059.0,1,0.0640850419736002,0.0
675,675,0.699672029713786,0.7,0,344.0,807.0,0.0,219.0,1,0.05053931973575172,0.0
676,676,-0.6884918307945072,-0.7,1,485.0,951.0,1.0,464.0,1,0.030935296852573835,0.0
677,677,0.041242903554074006,0.0,0,455.0,971.0,0.0,454.0,1,0.04251397053234695,0.0
678,678,-0.4353249359908633,-0.4,1,372.0,861.0,1.0,517.0,1,0.043460712553209095,0.0
679,679,-0.1765822830474455,-0.2,1,325.0,666.0,0.0,799.0,0,0.04594133289299192,0.0
680,680,-0.869178913431623,-0.9,1,434.0,709.0,1.0,527.0,1,0.09511214764328098,0.0
681,681,0.9717616675136931,1.0,0,296.0,763.0,0.0,231.0,1,0.014472816131131128,0.0
682,682,0.14058013910287848,0.1,0,376.0,667.0,0.0,447.0,1,0.09558305369264801,0.0
683,683,0.8780166233395885,0.9,0,360.0,535.0,0.0,365.0,1,0.003302229832211734,0.0
684,684,-0.4909956973044842,-0.5,1,384.0,851.0,1.0,1445.0,1,0.0662433987245311,0.0
685,685,0.18294498419109906,0.2,0,308.0,842.0,0.0,320.0,1,0.0737351989551744,0.0
686,686,-0.4027760299856096,-0.4,1,348.0,653.0,1.0,1019.0,1,0.060052534347278,0.0
687,687,0.2545564442474313,0.3,0,442.0,728.0,0.0,400.0,1,0.05733884204906527,0.0
688,688,0.49554479071218194,0.5,0,439.0,613.0,0.0,328.0,1,0.04979897624415191,0.0
689,689,0.5296363535256758,0.5,0,456.0,547.0,0.0,337.0,1,0.09065154885997115,0.0
690,690,0.34857467439413714,0.3,0,379.0,806.0,0.0,235.0,1,0.025057289216857903,0.0
691,691,-0.001716115830867615,-0.0,1,315.0,566.0,0.0,369.0,0,0.03047287481282407,0.0
692,692,-0.9809650432675787,-1.0,1,250.0,764.0,1.0,356.0,1,0.07830611568301725,0.0
693,693,-0.8938569688251454,-0.9,1,450.0,915.0,1.0,625.0,1,0.06344519568740022,0.0
694,694,-0.5104759350485797,-0.5,1,266.0,546.0,1.0,368.0,1,0.07893401012764704,0.0
695,695,-0.36726073428500383,-0.4,1,361.0,906.0,0.0,1263.0,0,0.07881236962431082,0.0
696,696,0.08992100540594761,0.1,0,265.0,674.0,0.0,1961.0,1,0.01996257704777542,0.0
697,697,0.645547647158232,0.6,0,426.0,903.0,0.0,221.0,1,0.051716609749336645,0.0
698,698,-0.617686134568459,-0.6,1,395.0,672.0,1.0,473.0,1,0.07772790730203266,0.0
699,699,0.9262550315477551,0.9,0,312.0,801.0,0.0,177.0,1,0.09273032705717983,0.0
700,700,0.5505277856131503,0.6,0,252.0,999.0,0.0,3749.0,1,0.03461391422171849,0.0
701,701,-0.9514391734024443,-1.0,1,487.0,555.0,1.0,478.0,1,0.07637666288392406,0.0
702,702,0.645176814545007,0.6,0,493.0,921.0,0.0,226.0,1,0.05356540147620206,0.0
703,703,0.2351947212909027,0.2,0,291.0,813.0,0.0,236.0,1,0.06295910322326487,0.0
704,704,-0.1345263386231892,-0.1,1,331.0,970.0,0.0,829.0,0,0.01562156044512817,0.0
705,705,0.8223888276243725,0.8,0,355.0,820.0,0.0,375.0,1,0.026592808793732693,0.0
706,706,0.007806105527627949,0.0,0,335.0,725.0,0.0,440.0,1,0.06181834047719886,0.0
707,707,-0.453564034416841,-0.5,1,396.0,998.0,1.0,586.0,1,0.07426682923118362,0.0
708,708,0.8532876475142857,0.9,0,381.0,697.0,0.0,422.0,1,0.04296573198791425,0.0
709,709,0.16682719063594154,0.2,0,383.0,738.0,0.0,399.0,1,0.05049124994360108,0.0
710,710,-0.04366284955410804,-0.0,1,268.0,909.0,0.0,313.0,0,0.07757218328336517,0.0
711,711,0.7401402139276614,0.7,0,365.0,666.0,0.0,2799.0,1,0.04394155410005082,0.0
712,712,-0.7718149742912601,-0.8,1,328.0,760.0,1.0,412.0,1,0.05712413882229661,0.0
713,713,-0.8380014450911961,-0.8,1,317.0,970.0,1.0,473.0,1,0.06988260566999796,0.0
714,714,0.4429526788068905,0.4,0,350.0,930.0,0.0,340.0,1,0.05314051736814882,0.0
715,715,0.4133618588544581,0.4,0,444.0,979.0,0.0,227.0,1,0.06602653655631067,0.0
716,716,-0.4732646849834661,-0.5,1,290.0,974.0,1.0,526.0,1,0.009000674426813727,0.0
717,717,0.6587187489455273,0.7,0,265.0,958.0,0.0,237.0,1,0.07099472238935134,0.0
718,718,0.45308191592981517,0.5,0,461.0,540.0,0.0,279.0,1,0.05579995826272917,0.0
719,719,0.3615767823791398,0.4,0,476.0,539.0,0.0,345.0,1,0.0862518498575235,0.0
720,720,0.7480064469549854,0.7,0,294.0,572.0,0.0,224.0,1,0.03739746195085684,0.0
721,721,0.1327356603350911,0.1,0,377.0,522.0,0.0,351.0,1,0.044406116279669505,0.0
722,722,-0.5048091611206276,-0.5,1,392.0,529.0,1.0,729.0,1,0.06926217195025351,0.0
723,723,0.04394159665813091,0.0,0,381.0,699.0,0.0,640.0,1,0.08202641030238497,0.0
724,724,-0.22390438261531065,-0.2,1,423.0,778.0,0.0,1339.0,0,0.04839664776698386,0.0
725,725,-0.13282758790031068,-0.1,1,405.0,577.0,0.0,2368.0,0,0.007094927318206279,0.0
726,726,-0.2670264588600266,-0.3,1,453.0,582.0,0.0,1135.0,0,0.08412117296197169,0.0
727,727,0.8396255742460932,0.8,0,473.0,740.0,0.0,167.0,1,0.030202584353798013,0.0
728,728,0.5199430396670301,0.5,0,498.0,650.0,0.0,402.0,1,0.03196140388711107,0.0
729,729,0.6602931731404771,0.7,0,460.0,857.0,0.0,223.0,1,0.09285316895937018,0.0
730,730,0.3994816707577251,0.4,0,447.0,889.0,0.0,2724.0,1,0.05626079034927309,0.0
731,731,-0.07782099737141035,-0.1,1,468.0,510.0,0.0,702.0,0,0.018254286195619886,0.0
732,732,-0.6596639054591404,-0.7,1,403.0,970.0,1.0,477.0,1,0.0835404557304355,0.0
733,733,0.8006379174572673,0.8,0,330.0,862.0,0.0,228.0,1,0.07636980812553971,0.0
734,734,0.5308415053101829,0.5,0,285.0,757.0,0.0,298.0,1,0.04853732693701664,0.0
735,735,0.519890273476648,0.5,0,476.0,839.0,0.0,305.0,1,0.09718850546177216,0.0
736,736,-0.8116269888136154,-0.8,1,269.0,880.0,1.0,471.0,1,0.06636868143093162,0.0
737,737,-0.7400942719861066,-0.7,1,388.0,860.0,1.0,432.0,1,0.06434630579062432,0.0
738,738,-0.10959567306247342,-0.1,1,449.0,654.0,0.0,727.0,0,0.060203565498607774,0.0
739,739,-0.7696764245067973,-0.8,1,320.0,634.0,1.0,466.0,1,0.011469933214963125,0.0
740,740,0.9181268757070191,0.9,0,360.0,951.0,0.0,309.0,1,0.07156593857020176,0.0
741,741,-0.35242849610549154,-0.4,1,394.0,991.0,1.0,315.0,1,0.030445076496598056,0.0
742,742,0.20119844728454472,0.2,0,409.0,843.0,0.0,1208.0,1,0.07418478340284343,0.0
743,743,0.7463133930020085,0.7,0,455.0,911.0,0.0,334.0,1,0.09289801683814641,0.0
744,744,-0.3917143384919506,-0.4,1,478.0,676.0,1.0,366.0,1,0.007838156445454603,0.0
745,745,0.27492212026226315,0.3,0,431.0,904.0,0.0,415.0,1,0.06929921407012603,0.0
746,746,0.5466513245703923,0.5,0,260.0,533.0,0.0,437.0,1,0.05825588186326073,0.0
747,747,-0.8358175951338547,-0.8,1,498.0,837.0,1.0,475.0,1,0.01927797118928555,0.0
748,748,0.6721416207754063,0.7,0,367.0,675.0,0.0,288.0,1,0.06397370377071675,0.0
749,749,0.08479447896798598,0.1,0,267.0,581.0,0.0,1982.0,1,0.02374654353265191,0.0
750,750,0.43711300545432863,0.4,0,476.0,784.0,0.0,280.0,1,0.051290988689849104,0.0
751,751,0.6290932417231949,0.6,0,451.0,619.0,0.0,200.0,1,0.044899635855063215,0.0
752,752,-0.6828745271044594,-0.7,1,457.0,781.0,1.0,382.0,1,0.04759880395078536,0.0
753,753,-0.5886746298763466,-0.6,1,274.0,979.0,1.0,547.0,1,0.046911887149465786,0.0
754,754,-0.6267221399616254,-0.6,1,462.0,530.0,1.0,798.0,1,0.050486062256262315,0.0
755,755,0.18885111929853493,0.2,0,398.0,550.0,0.0,552.0,1,0.024547444891670323,0.0
756,756,-0.3576059340657425,-0.4,1,452.0,600.0,0.0,1488.0,0,0.0774390332892419,0.0
757,757,-0.8911304293033255,-0.9,1,445.0,697.0,1.0,468.0,1,0.022355765447878963,0.0
758,758,-0.06056758639644122,-0.1,1,353.0,524.0,0.0,483.0,0,0.030195889358087015,0.0
759,759,-0.21584582248683182,-0.2,1,351.0,617.0,0.0,412.0,0,0.04820678346660963,0.0
760,760,-0.4391784883074583,-0.4,1,450.0,736.0,0.0,1024.0,0,0.02196188777556467,0.0
761,761,-0.16481177396610525,-0.2,1,444.0,911.0,0.0,575.0,0,0.0553607164933364,0.0
762,762,-0.7469345273521093,-0.7,1,467.0,641.0,1.0,422.0,1,0.022710492456064792,0.0
763,763,0.9189238861786935,0.9,0,259.0,998.0,0.0,453.0,1,0.08733615798998617,0.0
764,764,-0.6695801588772139,-0.7,1,378.0,622.0,1.0,480.0,1,0.045894132772783286,0.0
765,765,-0.5757019833658055,-0.6,1,299.0,782.0,1.0,449.0,1,0.03380246180035367,0.0
766,766,0.4167867490237611,0.4,0,453.0,889.0,0.0,3658.0,1,0.007290007809265198,0.0
767,767,-0.21443990773203891,-0.2,1,398.0,612.0,0.0,1000.0,0,0.09476371873027775,0.0
768,768,0.41343947421156146,0.4,0,375.0,959.0,0.0,166.0,1,0.07096270862531062,0.0
769,769,0.7692872686920942,0.8,0,261.0,808.0,0.0,251.0,1,0.0834131441081111,0.0
770,770,0.5286974552689117,0.5,0,395.0,820.0,0.0,255.0,1,0.012238404850139429,0.0
771,771,0.15506302301241304,0.2,0,295.0,684.0,0.0,221.0,1,0.033395668126388625,0.0
772,772,-0.93883321297067,-0.9,1,344.0,944.0,1.0,442.0,1,0.01806812250527694,0.0
773,773,-0.06394671284964049,-0.1,1,349.0,953.0,0.0,728.0,0,0.01954086739849317,0.0
774,774,0.7955313259320536,0.8,0,255.0,522.0,0.0,1873.0,1,0.01984123840483878,0.0
775,775,-0.21089120632556924,-0.2,1,430.0,944.0,0.0,976.0,0,0.07893283379711996,0.0
776,776,-0.16417242876211802,-0.2,1,474.0,820.0,0.0,326.0,0,0.04956986742795454,0.0
777,777,0.051808380920904895,0.1,0,495.0,751.0,0.0,1104.0,1,0.05764647172258469,0.0
778,778,-0.29195243730028797,-0.3,1,341.0,875.0,0.0,894.0,0,0.04877435054038311,0.0
779,779,-0.7496559555130666,-0.7,1,446.0,716.0,1.0,398.0,1,0.08295006331136995,0.0
780,780,0.7551185421307487,0.8,0,256.0,834.0,0.0,230.0,1,0.054841494796022974,0.0
781,781,-0.5467428270125907,-0.5,1,312.0,685.0,1.0,1343.0,1,0.07488195941802656,0.0
782,782,-0.5220221542687651,-0.5,1,424.0,574.0,1.0,922.0,1,0.002535083253208748,0.0
783,783,-0.5395994560171455,-0.5,1,320.0,726.0,1.0,894.0,1,0.023554850333128985,0.0
784,784,0.9914792869641198,1.0,0,408.0,903.0,0.0,3689.0,1,0.008075510939135689,0.0
785,785,0.17392475339989022,0.2,0,440.0,758.0,0.0,942.0,1,0.0920242579083241,0.0
786,786,-0.7345337028332741,-0.7,1,278.0,876.0,1.0,296.0,1,0.009684631012482715,0.0
787,787,0.7104411849225654,0.7,0,269.0,772.0,0.0,449.0,1,0.07160876269513014,0.0
788,788,-0.07657431258664382,-0.1,1,273.0,515.0,0.0,812.0,0,0.027128769118015095,0.0
789,789,0.3776091662263559,0.4,0,463.0,812.0,0.0,605.0,1,0.03386216150958896,0.0
790,790,0.6803184546838594,0.7,0,479.0,910.0,0.0,351.0,1,0.08583517063743572,0.0
791,791,0.5137269553867228,0.5,0,394.0,743.0,0.0,223.0,1,0.04828921074788135,0.0
792,792,-0.016424124725009648,-0.0,1,364.0,844.0,0.0,462.0,0,0.09760817062939867,0.0
793,793,-0.2101996848087,-0.2,1,324.0,723.0,0.0,633.0,0,0.04943907345092427,0.0
794,794,0.40848308449490167,0.4,0,306.0,845.0,0.0,419.0,1,0.02442465084909895,0.0
795,795,-0.41578123074783546,-0.4,1,269.0,701.0,1.0,400.0,1,0.05211580123959291,0.0
796,796,0.06117364091758537,0.1,0,369.0,866.0,0.0,555.0,1,0.07017855639716379,0.0
797,797,0.6778948818322477,0.7,0,317.0,625.0,0.0,258.0,1,0.09322227976031708,0.0
798,798,0.24784884338733915,0.2,0,362.0,893.0,0.0,285.0,1,0.04716185353324005,0.0
799,799,-0.5830602038200383,-0.6,1,292.0,506.0,1.0,642.0,1,0.03320872549443984,0.0
800,800,-0.9022446580487764,-0.9,1,392.0,683.0,1.0,295.0,1,0.06630682925224628,0.0
801,801,-0.21986822219327196,-0.2,1,406.0,815.0,0.0,1619.0,0,0.07663559348424744,0.0
802,802,0.8682126518951523,0.9,0,276.0,613.0,0.0,261.0,1,0.06977670518817161,0.0
803,803,0.15250082815346655,0.2,0,478.0,911.0,0.0,3611.0,1,0.011071719452691288,0.0
804,804,0.6248988685726589,0.6,0,365.0,725.0,0.0,290.0,1,0.022451606692888516,0.0
805,805,-0.7323189782308521,-0.7,1,374.0,982.0,1.0,224.0,1,0.039293303177021954,0.0
806,806,0.28999456141976654,0.3,0,444.0,678.0,0.0,348.0,1,0.03989971448406753,0.0
807,807,0.07063500303472114,0.1,0,271.0,861.0,0.0,598.0,1,0.05517407906488258,0.0
808,808,0.13276280119916262,0.1,0,434.0,788.0,0.0,408.0,1,0.009335825700789446,0.0
809,809,0.1237998994645888,0.1,0,299.0,894.0,0.0,1967.0,1,0.09789182274583899,0.0
810,810,-0.7715188948201217,-0.8,1,267.0,928.0,1.0,695.0,1,0.05688278130198513,0.0
811,811,0.9122204381964492,0.9,0,365.0,623.0,0.0,172.0,1,0.08865346204949959,0.0
812,812,0.11903336444371337,0.1,0,338.0,569.0,0.0,563.0,1,0.06615021349812128,0.0
813,813,-0.9990236247854034,-1.0,1,278.0,500.0,1.0,322.0,1,0.03274207604140792,0.0
814,814,-0.566020579688328,-0.6,1,413.0,889.0,1.0,738.0,1,0.001746006401205924,0.0
815,815,0.383836006167813,0.4,0,365.0,646.0,0.0,189.0,1,0.041575654698765924,0.0
816,816,-0.06601718650423072,-0.1,1,473.0,777.0,0.0,640.0,0,0.024490992770743448,0.0
817,817,0.20550274649001588,0.2,0,472.0,810.0,0.0,698.0,1,0.03296529891040408,0.0
818,818,-0.418412103081615,-0.4,1,391.0,877.0,0.0,802.0,0,0.01542875295552778,0.0
819,819,0.1877102899652141,0.2,0,271.0,775.0,0.0,654.0,1,0.07915150998594958,0.0
820,820,-0.4701616590925355,-0.5,1,319.0,643.0,1.0,4038.0,1,0.022951918790702755,0.0
821,821,-0.2602699064486642,-0.3,1,314.0,519.0,0.0,4037.0,0,0.05933820350981389,0.0
822,822,0.40899778027962674,0.4,0,299.0,659.0,0.0,392.0,1,0.07478493569794012,0.0
823,823,0.9989042717125987,1.0,0,308.0,833.0,0.0,239.0,1,0.06513175506034252,0.0
824,824,0.7706540460635769,0.8,0,475.0,532.0,0.0,383.0,1,0.06774017302341949,0.0
825,825,0.6516122613876767,0.7,0,323.0,970.0,0.0,457.0,1,0.09770063261176953,0.0
826,826,-0.45020905280771806,-0.5,1,335.0,595.0,1.0,570.0,1,0.014343313338675556,0.0
827,827,-0.7692958450708636,-0.8,1,407.0,912.0,1.0,571.0,1,0.05295586166754062,0.0
828,828,0.5115918669488124,0.5,0,355.0,694.0,0.0,3951.0,1,0.009747449801502063,0.0
829,829,-0.7594972474547874,-0.8,1,347.0,795.0,1.0,238.0,1,0.045031063564021756,0.0
830,830,-0.8694578749933792,-0.9,1,343.0,624.0,1.0,333.0,1,0.017081948059921147,0.0
831,831,-0.24682789296991103,-0.2,1,269.0,726.0,0.0,235.0,0,0.05784041231215575,0.0
832,832,0.13517815270857403,0.1,0,386.0,702.0,0.0,272.0,1,0.09789270066381474,0.0
833,833,0.11329951056261289,0.1,0,335.0,729.0,0.0,586.0,1,0.007536617098207321,0.0
834,834,0.4055987987836047,0.4,0,262.0,767.0,0.0,421.0,1,0.0036283877205571025,0.0
835,835,-0.40384713079561974,-0.4,1,256.0,905.0,0.0,919.0,0,0.07703449064022033,0.0
836,836,0.4556781148963316,0.5,0,464.0,856.0,0.0,360.0,1,0.09999053003735675,0.0
837,837,0.2396413713977752,0.2,0,273.0,738.0,0.0,289.0,1,0.09287608188061182,0.0
838,838,0.6982130600271854,0.7,0,404.0,929.0,0.0,287.0,1,0.07523965012940508,0.0
839,839,0.9092593309894972,0.9,0,411.0,761.0,0.0,528.0,1,0.06754354802561295,0.0
840,840,0.11011348910292917,0.1,0,415.0,870.0,0.0,775.0,1,0.018452522945264338,0.0
841,841,-0.05066212411594884,-0.1,1,465.0,972.0,0.0,323.0,0,0.09988998690037072,0.0
842,842,-0.9925742434733795,-1.0,1,325.0,928.0,1.0,397.0,1,0.03127676239793953,0.0
843,843,0.3684800266508097,0.4,0,357.0,994.0,0.0,469.0,1,0.05845627272285863,0.0
844,844,-0.6560344085353653,-0.7,1,497.0,824.0,1.0,319.0,1,0.012230030274001458,0.0
845,845,0.3529931971492297,0.4,0,416.0,511.0,0.0,193.0,1,0.07843273911494135,0.0
846,846,0.8601605645862791,0.9,0,428.0,946.0,0.0,306.0,1,0.033007108218421635,0.0
847,847,0.8503100158797403,0.9,0,381.0,707.0,0.0,1512.0,1,0.002420830868041979,0.0
848,848,-0.37363504237365563,-0.4,1,408.0,806.0,0.0,1236.0,0,0.08380207861941913,0.0
849,849,0.07697681473206708,0.1,0,353.0,983.0,0.0,1044.0,1,0.0242804324665455,0.0
850,850,-0.44755444044440895,-0.4,1,291.0,870.0,1.0,2449.0,1,0.09227917802609562,0.0
851,851,0.9557263723057117,1.0,0,281.0,502.0,0.0,317.0,1,0.02910203544578054,0.0
852,852,0.23908916817290504,0.2,0,287.0,532.0,0.0,891.0,1,0.057828443098044226,0.0
853,853,0.7335889899124539,0.7,0,258.0,977.0,0.0,225.0,1,0.023545250449490886,0.0
854,854,-0.9124988910042495,-0.9,1,370.0,707.0,1.0,323.0,1,0.09021623259270509,0.0
855,855,0.6630976091666207,0.7,0,446.0,992.0,0.0,212.0,1,0.032473718133975725,0.0
856,856,-0.5706488973084354,-0.6,1,396.0,970.0,1.0,654.0,1,0.08780280829330889,0.0
857,857,-0.887650507945458,-0.9,1,331.0,798.0,1.0,411.0,1,0.092187302731291,0.0
858,858,0.2864527152534717,0.3,0,452.0,719.0,0.0,399.0,1,0.07383851976635347,0.0
859,859,0.9810522837035394,1.0,0,367.0,741.0,0.0,262.0,1,0.00816308670351057,0.0
860,860,-0.35669263591592726,-0.4,1,386.0,572.0,0.0,542.0,0,0.08252111076407899,0.0
861,861,-0.13052173170274606,-0.1,1,455.0,933.0,0.0,432.0,0,0.03787440386615568,0.0
862,862,0.22429640594532052,0.2,0,326.0,567.0,0.0,347.0,1,0.05467832508196459,0.0
863,863,0.3979155348763759,0.4,0,356.0,873.0,0.0,581.0,1,0.08181360182674731,0.0
864,864,0.5775837269533142,0.6,0,297.0,998.0,0.0,345.0,1,0.03955419777005671,0.0
865,865,0.11844447369576283,0.1,0,377.0,913.0,0.0,500.0,1,0.08364782066234394,0.0
866,866,-0.9204928502202074,-0.9,1,350.0,859.0,1.0,411.0,1,0.00692419241842095,0.0
867,867,0.11366642996465415,0.1,0,302.0,906.0,0.0,242.0,1,0.05208516991944805,0.0
868,868,-0.11494807455581024,-0.1,1,478.0,691.0,0.0,1041.0,0,0.09224944956642789,0.0
869,869,-0.9630796884890467,-1.0,1,385.0,628.0,1.0,357.0,1,0.056231625158085344,0.0
870,870,0.8470726840399121,0.8,0,445.0,924.0,0.0,2361.0,1,0.03477371138009242,0.0
871,871,0.3923144359202033,0.4,0,395.0,958.0,0.0,3647.0,1,0.03116353565671717,0.0
872,872,-0.8135363914351528,-0.8,1,407.0,583.0,1.0,480.0,1,0.05397024653485699,0.0
873,873,-0.6325188588150772,-0.6,1,349.0,987.0,1.0,1944.0,1,0.0023271527388966542,0.0
874,874,-0.8070188316025897,-0.8,1,353.0,673.0,1.0,414.0,1,0.07013569889465927,0.0
875,875,-0.807588995830268,-0.8,1,378.0,645.0,1.0,537.0,1,0.07260924606505972,0.0
876,876,0.5050591376816689,0.5,0,419.0,958.0,0.0,273.0,1,0.04828271576338895,0.0
877,877,0.5443594492186079,0.5,0,330.0,882.0,0.0,458.0,1,0.030450807175472917,0.0
878,878,0.4452279152792231,0.4,0,435.0,641.0,0.0,374.0,1,0.04789475315992501,0.0
879,879,0.08849246054659932,0.1,0,298.0,988.0,0.0,564.0,1,0.016398528807318014,0.0
880,880,-0.9018182265399324,-0.9,1,392.0,888.0,1.0,380.0,1,0.0761689901409841,0.0
881,881,-0.7316318300899436,-0.7,1,365.0,566.0,1.0,259.0,1,0.054449739631785454,0.0
882,882,-0.4339621469627719,-0.4,1,317.0,644.0,0.0,2149.0,0,0.0014669781886543555,0.0
883,883,-0.059882897758484877,-0.1,1,463.0,633.0,0.0,2494.0,0,0.04872630816500895,0.0
884,884,-0.8397295549747434,-0.8,1,411.0,747.0,1.0,542.0,1,0.010839966562573257,0.0
885,885,0.1714136059135143,0.2,0,280.0,789.0,0.0,451.0,1,0.056887795342103635,0.0
886,886,-0.8433489126642959,-0.8,1,469.0,807.0,1.0,324.0,1,0.09671558607162513,0.0
887,887,-0.4963027013420005,-0.5,1,331.0,734.0,1.0,305.0,1,0.09497044002228769,0.0
888,888,-0.1816544640729867,-0.2,1,290.0,896.0,0.0,434.0,0,0.08827326771314525,0.0
889,889,-0.24562910761766465,-0.2,1,430.0,816.0,0.0,534.0,0,0.09421079051376481,0.0
890,890,0.49846761179907917,0.5,0,350.0,851.0,0.0,349.0,1,0.06939004512060502,0.0
891,891,0.9014462817978897,0.9,0,343.0,898.0,0.0,3239.0,1,0.06230241808147807,0.0
892,892,-0.2015665874197996,-0.2,1,418.0,996.0,0.0,946.0,0,0.009794144412818796,0.0
893,893,-0.4217778205717033,-0.4,1,446.0,504.0,1.0,330.0,1,0.08048377470911058,0.0
894,894,-0.07701606918511827,-0.1,1,464.0,754.0,0.0,722.0,0,0.08047031005525224,0.0
895,895,-0.0007745431283450177,-0.0,1,329.0,740.0,0.0,491.0,0,0.06481821291109033,0.0
896,896,-0.9355210410519503,-0.9,1,326.0,738.0,1.0,356.0,1,0.0881828907531435,0.0
897,897,-0.34481332854587854,-0.3,1,451.0,755.0,1.0,724.0,1,0.02825113428213587,0.0
898,898,0.606736622650069,0.6,0,420.0,506.0,0.0,264.0,1,0.09525874880988157,0.0
899,899,0.7953839007061208,0.8,0,465.0,758.0,0.0,447.0,1,0.05128709875838936,0.0
900,900,0.18721883197722833,0.2,0,265.0,959.0,0.0,1666.0,1,0.00995339101069086,0.0
901,901,-0.6363619447831013,-0.6,1,415.0,522.0,1.0,1413.0,1,0.07092331284848526,0.0
902,902,0.128539403427806,0.1,0,270.0,986.0,0.0,824.0,1,0.09380233475399045,0.0
903,903,-0.15957728366753665,-0.2,1,262.0,944.0,0.0,1124.0,0,0.0235285806940701,0.0
904,904,0.5906390697543735,0.6,0,391.0,804.0,0.0,275.0,1,0.0925614580799014,0.0
905,905,-0.2660654392541193,-0.3,1,462.0,775.0,0.0,523.0,0,0.05628498536181752,0.0
906,906,-0.11318141745508603,-0.1,1,302.0,543.0,0.0,1135.0,0,0.09755170689531947,0.0
907,907,0.3519097032999394,0.4,0,496.0,942.0,0.0,3562.0,1,0.03405545035383617,0.0
908,908,0.07218796776173564,0.1,0,366.0,650.0,0.0,424.0,1,0.007629217820017898,0.0
909,909,-0.8120803834880961,-0.8,1,268.0,510.0,1.0,362.0,1,0.02151743954313151,0.0
910,910,-0.7610620156652168,-0.8,1,359.0,756.0,1.0,475.0,1,0.09285206321455804,0.0
911,911,0.1850496330648117,0.2,0,391.0,965.0,0.0,304.0,1,0.04063525700221739,0.0
912,912,-0.5403006991147088,-0.5,1,277.0,543.0,1.0,1000.0,1,0.09837467873354597,0.0
913,913,-0.4857232907971325,-0.5,1,441.0,816.0,0.0,803.0,0,0.002262913515393017,0.0
914,914,0.48930782712078735,0.5,0,263.0,841.0,0.0,336.0,1,0.0380080823115759,0.0
915,915,-0.26613889602742646,-0.3,1,474.0,579.0,0.0,647.0,0,0.03627827827453,0.0
916,916,0.6863194268594182,0.7,0,455.0,748.0,0.0,197.0,1,0.02476857112078328,0.0
917,917,-0.3687622080752755,-0.4,1,274.0,688.0,0.0,3588.0,0,0.06146695014242068,0.0
918,918,0.5118223790576995,0.5,0,363.0,867.0,0.0,550.0,1,0.016446149236312935,0.0
919,919,-0.4234024812537538,-0.4,1,397.0,636.0,0.0,1397.0,0,0.07771707991379072,0.0
920,920,0.4573875681674564,0.5,0,343.0,874.0,0.0,393.0,1,0.08876655434531838,0.0
921,921,-0.8216443402502134,-0.8,1,303.0,550.0,1.0,597.0,1,0.08072168903680106,0.0
922,922,-0.4444892756053562,-0.4,1,485.0,587.0,1.0,1298.0,1,0.043802222701177895,0.0
923,923,0.6019118723040939,0.6,0,297.0,872.0,0.0,341.0,1,0.08343956401464746,0.0
924,924,0.6494037252243212,0.6,0,488.0,872.0,0.0,630.0,1,0.00845764528968761,0.0
925,925,-0.1511805855795505,-0.2,1,454.0,991.0,0.0,1385.0,0,0.0965497114975553,0.0
926,926,-0.8050359346391587,-0.8,1,341.0,575.0,1.0,324.0,1,0.03297513185233093,0.0
927,927,-0.8555097472447306,-0.9,1,264.0,544.0,1.0,442.0,1,0.016310675298330614,0.0
928,928,0.5209506452857842,0.5,0,306.0,644.0,0.0,370.0,1,0.0968086698083747,0.0
929,929,0.5877023321027739,0.6,0,339.0,572.0,0.0,369.0,1,0.0020930463357493045,0.0
930,930,-0.503512535646542,-0.5,1,308.0,757.0,1.0,525.0,1,0.08635450106240017,0.0
931,931,-0.3558501466991988,-0.4,1,384.0,634.0,1.0,752.0,1,0.048536037254465064,0.0
932,932,-0.03957325342106821,-0.0,1,285.0,566.0,0.0,669.0,0,0.042687935739624254,0.0
933,933,0.17277647066720392,0.2,0,458.0,609.0,0.0,453.0,1,0.04113349479598974,0.0
934,934,-0.04133340580834455,-0.0,1,308.0,883.0,0.0,709.0,0,0.07766022562363695,0.0
935,935,-0.5567370063005852,-0.6,1,274.0,848.0,1.0,638.0,1,0.04429473601613593,0.0
936,936,0.4260120421712956,0.4,0,330.0,659.0,0.0,4011.0,1,0.08382387615536335,0.0
937,937,-0.9253540962300022,-0.9,1,470.0,859.0,1.0,291.0,1,0.09307280301166279,0.0
938,938,0.7684670178257156,0.8,0,279.0,831.0,0.0,330.0,1,0.08590310606735331,0.0
939,939,-0.2741502852663582,-0.3,1,436.0,660.0,0.0,2214.0,0,0.07771195736731255,0.0
940,940,0.9213443169987545,0.9,0,444.0,707.0,0.0,299.0,1,0.037415721565384676,0.0
941,941,0.35548119505364206,0.4,0,275.0,753.0,0.0,462.0,1,0.06315518907005936,0.0
942,942,-0.1073391372640553,-0.1,1,276.0,594.0,0.0,1390.0,0,0.05821707099848605,0.0
943,943,0.3138179316291074,0.3,0,387.0,828.0,0.0,175.0,1,0.020326995570097674,0.0
944,944,-0.8546008357677364,-0.9,1,295.0,821.0,1.0,574.0,1,0.026124880906932636,0.0
945,945,0.7177560883757528,0.7,0,320.0,616.0,0.0,3094.0,1,0.02189477091252966,0.0
946,946,-0.7564092395639108,-0.8,1,479.0,553.0,1.0,568.0,1,0.016051344801340673,0.0
947,947,-0.16505630622050904,-0.2,1,475.0,753.0,0.0,572.0,0,0.02717482862136693,0.0
948,948,0.18230078631663393,0.2,0,382.0,988.0,0.0,360.0,1,0.020243021703885245,0.0
949,949,0.8861405563719791,0.9,0,320.0,682.0,0.0,258.0,1,0.011518126753765146,0.0
950,950,-0.8167191043499833,-0.8,1,422.0,792.0,1.0,476.0,1,0.07176566432010952,0.0
951,951,0.7674391995600083,0.8,0,271.0,597.0,0.0,262.0,1,0.04657621390174617,0.0
952,952,0.5613365316944774,0.6,0,368.0,574.0,0.0,398.0,1,0.09448091096293705,0.0
953,953,0.023353472406082654,0.0,0,430.0,575.0,0.0,435.0,1,0.07231626373999958,0.0
954,954,-0.9329808570932261,-0.9,1,486.0,846.0,1.0,388.0,1,0.004773524929530393,0.0
955,955,0.9530955708447564,1.0,0,289.0,629.0,0.0,292.0,1,0.0633986225769632,0.0
956,956,0.9620509012125311,1.0,0,339.0,709.0,0.0,2052.0,1,0.04317281068462421,0.0
957,957,-0.12294880524414609,-0.1,1,253.0,889.0,0.0,468.0,0,0.08966965671004742,0.0
958,958,-0.47893339264886414,-0.5,1,499.0,504.0,0.0,737.0,0,0.04911800479332893,0.0
959,959,0.33480995221096377,0.3,0,439.0,588.0,0.0,463.0,1,0.04759550042062666,0.0
960,960,-0.7836221794939042,-0.8,1,340.0,971.0,1.0,509.0,1,0.03747928295388169,0.0
961,961,0.33660811008252156,0.3,0,367.0,762.0,0.0,2961.0,1,0.0580635504920467,0.0
962,962,-0.1452206263960394,-0.1,1,429.0,777.0,1.0,474.0,1,0.027856771461609742,0.0
963,963,-0.35686720188127263,-0.4,1,490.0,711.0,0.0,2879.0,0,0.05321959770791961,0.0
964,964,0.04143545759651546,0.0,0,288.0,757.0,0.0,345.0,1,0.022527461591219912,0.0
965,965,0.22612908914839314,0.2,0,302.0,563.0,0.0,1605.0,1,0.009930392071390527,0.0
966,966,-0.5234999625014134,-0.5,1,253.0,591.0,1.0,496.0,1,0.06163577828264049,0.0
967,967,-0.4891307220176726,-0.5,1,385.0,604.0,1.0,701.0,1,0.0778816025053136,0.0
968,968,-0.43208447513437465,-0.4,1,431.0,603.0,1.0,896.0,1,0.022268976190349787,0.0
969,969,0.9395888062468547,0.9,0,318.0,880.0,0.0,232.0,1,0.04212652293529876,0.0
970,970,0.4700327059974583,0.5,0,483.0,809.0,0.0,348.0,1,0.009081242920686572,0.0
971,971,-0.37306558562461856,-0.4,1,309.0,826.0,1.0,675.0,1,0.08652233190438134,0.0
972,972,0.5539066819089455,0.6,0,280.0,709.0,0.0,341.0,1,0.014694004211020285,0.0
973,973,0.931999665143231,0.9,0,406.0,578.0,0.0,2256.0,1,0.022075603697913615,0.0
974,974,-0.7906763504164491,-0.8,1,490.0,975.0,1.0,415.0,1,0.021973275569547902,0.0
975,975,-0.26992284201908756,-0.3,1,362.0,703.0,0.0,665.0,0,0.049494199830010355,0.0
976,976,-0.4848764501510503,-0.5,1,299.0,968.0,1.0,503.0,1,0.07346631793907032,0.0
977,977,0.14450354442823277,0.1,0,341.0,525.0,0.0,1124.0,1,0.03410557997146461,0.0
978,978,0.006544898218415529,0.0,0,350.0,731.0,0.0,3919.0,1,0.09551519603118838,0.0
979,979,0.2419189409729745,0.2,0,363.0,707.0,0.0,190.0,1,0.06627081142196439,0.0
980,980,0.5546957867271003,0.6,0,308.0,551.0,0.0,3231.0,1,0.06541282356038929,0.0
981,981,0.5444109991378046,0.5,0,383.0,501.0,0.0,1396.0,1,0.07332851765246548,0.0
982,982,-0.5421382951002816,-0.5,1,276.0,659.0,1.0,775.0,1,0.09309177861761654,0.0
983,983,0.43042305203965925,0.4,0,257.0,657.0,0.0,396.0,1,0.08282692955566773,0.0
984,984,0.7334540112871284,0.7,0,261.0,569.0,0.0,4170.0,1,0.014195219190475472,0.0
985,985,-0.5591865962925615,-0.6,1,321.0,665.0,1.0,664.0,1,0.07642416074792054,0.0
986,986,0.8638170850602831,0.9,0,269.0,548.0,0.0,203.0,1,0.06521917325408448,0.0
987,987,0.8889046506402565,0.9,0,423.0,884.0,0.0,133.0,1,0.031158010588985787,0.0
988,988,0.5580619013156602,0.6,0,359.0,738.0,0.0,203.0,1,0.035340188851629775,0.0
989,989,-0.7046812824524387,-0.7,1,488.0,997.0,1.0,345.0,1,0.05900685513190789,0.0
990,990,-0.8744108154243309,-0.9,1,405.0,737.0,1.0,368.0,1,0.002293448119538932,0.0
991,991,0.1619420451137612,0.2,0,340.0,693.0,0.0,377.0,1,0.07314326532643171,0.0
992,992,-0.8176838558300354,-0.8,1,418.0,525.0,1.0,357.0,1,0.05697782788641731,0.0
993,993,0.599998425564521,0.6,0,339.0,538.0,0.0,303.0,1,0.0632038740209956,0.0
994,994,-0.6983376379470894,-0.7,1,395.0,590.0,1.0,375.0,1,0.026322701296044693,0.0
995,995,0.7137861110136945,0.7,0,431.0,954.0,0.0,395.0,1,0.011112648822926618,0.0
996,996,-0.7803078946135875,-0.8,1,322.0,607.0,1.0,611.0,1,0.038358675080301455,0.0
997,997,0.9857088497019553,1.0,0,388.0,912.0,0.0,280.0,1,0.027957505556461093,0.0
998,998,0.7012944963419461,0.7,0,267.0,841.0,0.0,242.0,1,0.0923483026587796,0.0
999,999,0.9644941313791724,1.0,0,251.0,587.0,0.0,302.0,1,0.09130460996358654,0.0
1000,1000,0.3215840457148311,0.3,0,448.0,650.0,0.0,452.0,1,0.09301305225543977,0.0
1001,1001,0.43833755334641333,0.4,0,424.0,817.0,0.0,239.0,1,0.0037322538794442917,0.0
1002,1002,-0.6688710398630957,-0.7,1,440.0,706.0,1.0,364.0,1,0.04951280067060454,0.0
1003,1003,-0.40770905049804207,-0.4,1,431.0,584.0,0.0,745.0,0,0.099776717182547,0.0
1004,1004,-0.9343488367186439,-0.9,1,340.0,555.0,1.0,415.0,1,0.06772809151369467,0.0
1005,1005,0.5747292662215915,0.6,0,253.0,843.0,0.0,204.0,1,0.0762984744496887,0.0
1006,1006,-0.07744556523579815,-0.1,1,365.0,862.0,0.0,1093.0,0,0.06188790445624076,0.0
1007,1007,0.2665491539696663,0.3,0,441.0,699.0,0.0,570.0,1,0.005832304434627789,0.0
1008,1008,-0.3551450418046276,-0.4,1,443.0,520.0,1.0,827.0,1,0.027106956012933982,0.0
1009,1009,-0.3399709272857161,-0.3,1,356.0,919.0,1.0,1705.0,1,0.09806599396738398,0.0
1010,1010,0.5156248374701315,0.5,0,351.0,651.0,0.0,458.0,1,0.09186239717603155,0.0
1011,1011,-0.733320832495705,-0.7,1,413.0,627.0,1.0,330.0,1,0.030807801160194284,0.0
1012,1012,-0.24445391230965474,-0.2,1,348.0,608.0,0.0,434.0,0,0.054124495892518915,0.0
1013,1013,0.6280660192549619,0.6,0,431.0,535.0,0.0,304.0,1,0.07002666841633905,0.0
1014,1014,-0.6275427833189138,-0.6,1,284.0,890.0,1.0,996.0,1,0.043795749474030456,0.0
1015,1015,0.755952816099376,0.8,0,323.0,742.0,0.0,1645.0,1,0.06806012931147297,0.0
1016,1016,-0.03080648052173962,-0.0,1,376.0,947.0,0.0,997.0,0,0.029102333831322047,0.0
1017,1017,0.39260982215043283,0.4,0,378.0,512.0,0.0,1440.0,1,0.04042227288746948,0.0
1018,1018,-0.004549368833288936,-0.0,1,382.0,778.0,0.0,500.0,0,0.06817667133573989,0.0
1019,1019,0.7683038534084365,0.8,0,461.0,988.0,0.0,3551.0,1,0.0947198448156564,0.0
1020,1020,0.9771605121278308,1.0,0,403.0,994.0,0.0,183.0,1,0.06794782754083258,0.0
1021,1021,-0.7372437505985501,-0.7,1,264.0,815.0,1.0,371.0,1,0.0425233757839669,0.0
1022,1022,-0.5201547277310927,-0.5,1,378.0,542.0,1.0,720.0,1,0.018289875583218953,0.0
1023,1023,0.981221538152635,1.0,0,292.0,776.0,0.0,212.0,1,0.05934676390266966,0.0
1024,1024,-0.9061989103179944,-0.9,1,436.0,567.0,1.0,317.0,1,0.09704182161337821,0.0
1025,1025,0.36231902894357315,0.4,0,412.0,654.0,0.0,254.0,1,0.051933829027055935,0.0
1026,1026,0.4164465112351896,0.4,0,498.0,704.0,0.0,3798.0,1,0.025959761082839972,0.0
1027,1027,-0.4387516650049894,-0.4,1,472.0,930.0,1.0,528.0,1,0.013580300962496029,0.0
1028,1028,0.7410362273520392,0.7,0,484.0,984.0,0.0,3532.0,1,0.08196499577569694,0.0
1029,1029,0.19444927595097417,0.2,0,373.0,987.0,0.0,330.0,1,0.0014558803819935573,0.0
1030,1030,0.8741906233176326,0.9,0,260.0,623.0,0.0,257.0,1,0.022613171729226413,0.0
1031,1031,0.14541553354528292,0.1,0,314.0,714.0,0.0,592.0,1,0.02803332465066092,0.0
1032,1032,0.5228074030082701,0.5,0,480.0,796.0,0.0,454.0,1,0.09203876844035296,0.0
1033,1033,-0.2973748883716978,-0.3,1,475.0,648.0,0.0,2447.0,0,0.0856930089331314,0.0
1034,1034,-0.4690115490862956,-0.5,1,269.0,868.0,1.0,3513.0,1,0.028890082195986422,0.0
1035,1035,0.6917506727176048,0.7,0,269.0,858.0,0.0,323.0,1,0.029610461578206893,0.0
1036,1036,-0.13537106131508803,-0.1,1,406.0,765.0,0.0,419.0,0,0.06835685750765605,0.0
1037,1037,0.42568950736304134,0.4,0,445.0,691.0,0.0,2814.0,1,0.06883775857229128,0.0
1038,1038,-0.4718978220688934,-0.5,1,289.0,529.0,1.0,852.0,1,0.09891940669980495,0.0
1039,1039,0.983317957101425,1.0,0,407.0,731.0,0.0,292.0,1,0.08053545505845407,0.0
1040,1040,0.016631372673028944,0.0,0,473.0,676.0,0.0,331.0,1,0.06936891282476408,0.0
1041,1041,0.8439552714487379,0.8,0,453.0,650.0,0.0,247.0,1,0.028379203312663984,0.0
1042,1042,-0.4838245013358311,-0.5,1,443.0,891.0,1.0,516.0,1,0.045696063634941365,0.0
1043,1043,-0.04734869067714653,-0.0,1,400.0,636.0,0.0,484.0,0,0.056891353588382855,0.0
1044,1044,-0.6088711428932194,-0.6,1,290.0,564.0,1.0,566.0,1,0.052977921776130914,0.0
1045,1045,0.7998414657384214,0.8,0,336.0,566.0,0.0,368.0,1,0.06913656799830006,0.0
1046,1046,0.034740152562259485,0.0,0,459.0,875.0,0.0,1396.0,1,0.09974537938316821,0.0
1047,1047,0.9675911988742902,1.0,0,251.0,603.0,0.0,266.0,1,0.02034264759012182,0.0
1048,1048,0.8262862119942471,0.8,0,274.0,872.0,0.0,374.0,1,0.07213676187298196,0.0
1049,1049,0.4767708780829516,0.5,0,267.0,834.0,0.0,309.0,1,0.051520435487084175,0.0
1050,1050,-0.9623385652872429,-1.0,1,460.0,962.0,1.0,548.0,1,0.04093674647223681,0.0
1051,1051,0.9788428449870683,1.0,0,417.0,998.0,0.0,145.0,1,0.061122814870568136,0.0
1052,1052,-0.7607731983569206,-0.8,1,357.0,845.0,1.0,568.0,1,0.02816969139228025,0.0
1053,1053,0.6331006713549336,0.6,0,270.0,519.0,0.0,281.0,1,0.052571983416501544,0.0
1054,1054,-0.6219461514566804,-0.6,1,366.0,815.0,1.0,539.0,1,0.01522673457007645,0.0
1055,1055,0.7168085901963233,0.7,0,489.0,921.0,0.0,440.0,1,0.013211347393383012,0.0
1056,1056,0.25779881383495185,0.3,0,268.0,885.0,0.0,397.0,1,0.09907821700572342,0.0
1057,1057,0.9954677734228927,1.0,0,418.0,531.0,0.0,221.0,1,0.020172173368836102,0.0
1058,1058,-0.2055944678952062,-0.2,1,390.0,700.0,0.0,540.0,0,0.01553041245410476,0.0
1059,1059,-0.895093701441054,-0.9,1,455.0,625.0,1.0,660.0,1,0.09937878408564867,0.0
1060,1060,0.7097040064040712,0.7,0,452.0,567.0,0.0,1461.0,1,0.05627967910658188,0.0
1061,1061,0.4560391296906958,0.5,0,471.0,845.0,0.0,814.0,1,0.09689546620107364,0.0
1062,1062,-0.5157497459788329,-0.5,1,402.0,665.0,1.0,493.0,1,0.058875646460057045,0.0
1063,1063,0.013113130911829751,0.0,0,265.0,996.0,0.0,919.0,1,0.03896437525817692,0.0
1064,1064,0.5820143043168315,0.6,0,454.0,762.0,0.0,1584.0,1,0.06780639686829915,0.0
1065,1065,0.616006219649629,0.6,0,397.0,952.0,0.0,3651.0,1,0.0844804919491932,0.0
1066,1066,-0.6134975833110099,-0.6,1,277.0,793.0,1.0,490.0,1,0.024921568413810182,0.0
1067,1067,-0.37213089135090494,-0.4,1,267.0,750.0,1.0,803.0,1,0.014750426137747652,0.0
1068,1068,-0.4321700559170014,-0.4,1,287.0,906.0,0.0,507.0,0,0.09831307581304198,0.0
1069,1069,-0.40405765647656455,-0.4,1,335.0,822.0,0.0,593.0,0,0.038943634696822396,0.0
1070,1070,-0.24592266605310553,-0.2,1,288.0,998.0,0.0,684.0,0,0.0638856899045232,0.0
1071,1071,0.24133599073822065,0.2,0,488.0,599.0,0.0,783.0,1,0.09451027018126074,0.0
1072,1072,-0.6567065658103766,-0.7,1,359.0,719.0,1.0,542.0,1,0.030682917795850553,0.0
1073,1073,-0.14050185768367185,-0.1,1,261.0,800.0,0.0,1819.0,0,0.024552966683317346,0.0
1074,1074,-0.5995307661751046,-0.6,1,341.0,757.0,1.0,482.0,1,0.0989429599477953,0.0
1075,1075,-0.5939128759860886,-0.6,1,281.0,912.0,1.0,557.0,1,0.07052825493954333,0.0
1076,1076,0.48671951933615953,0.5,0,391.0,660.0,0.0,299.0,1,0.01216462496339661,0.0
1077,1077,0.8032190323502182,0.8,0,270.0,808.0,0.0,622.0,1,0.02271267416768884,0.0
1078,1078,-0.7270873210752855,-0.7,1,320.0,926.0,1.0,454.0,1,0.04138350338487743,0.0
1079,1079,-0.8448111350106031,-0.8,1,298.0,820.0,1.0,532.0,1,0.09835264286093943,0.0
1080,1080,-0.4527298777330364,-0.5,1,454.0,568.0,0.0,1488.0,0,0.08334581239420805,0.0
1081,1081,-0.2288575516389122,-0.2,1,424.0,922.0,0.0,574.0,0,0.09250455821278902,0.0
1082,1082,0.9669461743815058,1.0,0,360.0,927.0,0.0,3713.0,1,0.045762080649893636,0.0
1083,1083,0.16566737013517296,0.2,0,307.0,716.0,0.0,307.0,1,0.013252701310768568,0.0
1084,1084,0.43726971898131706,0.4,0,408.0,518.0,0.0,4074.0,1,0.07393470293355006,0.0
1085,1085,-0.03354878030755759,-0.0,1,320.0,774.0,0.0,386.0,0,0.047367020395349284,0.0
1086,1086,-0.5820066924688212,-0.6,1,404.0,520.0,1.0,346.0,1,0.019356770338352782,0.0
1087,1087,-0.6709096842960138,-0.7,1,352.0,535.0,1.0,423.0,1,0.06762465463422246,0.0
1088,1088,0.42793276075457265,0.4,0,299.0,761.0,0.0,1580.0,1,0.017771787196234456,0.0
1089,1089,0.6310214022283929,0.6,0,367.0,516.0,0.0,267.0,1,0.01402798344459303,0.0
1090,1090,-0.3061914515914701,-0.3,1,358.0,864.0,0.0,2438.0,0,0.09798773557122559,0.0
1091,1091,-0.7704184558125384,-0.8,1,281.0,679.0,1.0,550.0,1,0.09343927229184942,0.0
1092,1092,-0.606692675145823,-0.6,1,436.0,580.0,1.0,384.0,1,0.08824116179870396,0.0
1093,1093,-0.673795942516916,-0.7,1,311.0,966.0,1.0,473.0,1,0.07616140446242359,0.0
1094,1094,-0.1107708184947842,-0.1,1,343.0,767.0,0.0,370.0,0,0.025968780856613628,0.0
1095,1095,-0.5221505995482854,-0.5,1,436.0,981.0,1.0,473.0,1,0.005915867242694695,0.0
1096,1096,0.2579571396789875,0.3,0,334.0,503.0,0.0,303.0,1,0.09620516620189125,0.0
1097,1097,0.022804227725573112,0.0,0,273.0,703.0,0.0,574.0,1,0.006106981176762461,0.0
1098,1098,-0.1784680444836193,-0.2,1,332.0,531.0,0.0,367.0,0,0.003356777951210666,0.0
1099,1099,0.950978276741582,1.0,0,461.0,688.0,0.0,3851.0,1,0.05045123702048268,0.0
1100,1100,0.09116121407609201,0.1,0,288.0,662.0,0.0,220.0,1,0.05548862341000804,0.0
1101,1101,-0.9725314217477616,-1.0,1,287.0,629.0,1.0,414.0,1,0.08143575307971043,0.0
1102,1102,-0.5114766324508067,-0.5,1,299.0,812.0,0.0,499.0,0,0.023984207296500318,0.0
1103,1103,0.23610323202576544,0.2,0,446.0,567.0,0.0,437.0,1,0.08288396261049953,0.0
1104,1104,0.7393544991743448,0.7,0,357.0,512.0,0.0,191.0,1,0.04884551717690575,0.0
1105,1105,-0.06587506357104767,-0.1,1,420.0,996.0,0.0,524.0,0,0.08817090929372881,0.0
1106,1106,-0.3370493680993256,-0.3,1,401.0,560.0,0.0,589.0,0,0.05939154755858424,0.0
1107,1107,0.2626351468069634,0.3,0,257.0,787.0,0.0,536.0,1,0.030077115697932356,0.0
1108,1108,0.37539135532263135,0.4,0,269.0,514.0,0.0,307.0,1,0.06657016664487887,0.0
1109,1109,-0.5839859957853617,-0.6,1,410.0,588.0,1.0,602.0,1,0.06897296488386155,0.0
1110,1110,-0.7619422964741107,-0.8,1,403.0,767.0,1.0,1020.0,1,0.0767545741635934,0.0
1111,1111,-0.195129995017858,-0.2,1,312.0,987.0,0.0,1611.0,0,0.015727035327507567,0.0
1112,1112,0.23630575235015105,0.2,0,433.0,671.0,0.0,226.0,1,0.08902493491389929,0.0
1113,1113,0.4015454118110109,0.4,0,457.0,569.0,0.0,344.0,1,0.03831349546414619,0.0
1114,1114,-0.6184789685321013,-0.6,1,438.0,556.0,1.0,1216.0,1,0.08965811129511504,0.0
1115,1115,0.22844561706875255,0.2,0,372.0,600.0,0.0,548.0,1,0.016434257796303097,0.0
1116,1116,0.6889804265323687,0.7,0,337.0,516.0,0.0,177.0,1,0.05881107375301125,0.0
1117,1117,0.6873412797457688,0.7,0,466.0,535.0,0.0,239.0,1,0.043642433030912225,0.0
1118,1118,-0.024889513008381492,-0.0,1,253.0,732.0,0.0,745.0,0,0.06902590096397286,0.0
1119,1119,-0.19820273949427758,-0.2,1,270.0,816.0,0.0,1104.0,0,0.02914742002113634,0.0
1120,1120,0.8142632159192447,0.8,0,385.0,712.0,0.0,523.0,1,0.09293249000376863,0.0
1121,1121,-0.6409106993351081,-0.6,1,323.0,606.0,1.0,711.0,1,0.04093237844734822,0.0
1122,1122,0.9709273294592067,1.0,0,385.0,950.0,0.0,575.0,1,0.06725642304733014,0.0
1123,1123,0.707333222501507,0.7,0,346.0,624.0,0.0,280.0,1,0.001163113247468517,0.0
1124,1124,-0.48572064873228493,-0.5,1,330.0,705.0,1.0,375.0,1,0.055395510602000014,0.0
1125,1125,-0.37663491078156985,-0.4,1,358.0,913.0,0.0,2819.0,0,0.045951040625856934,0.0
1126,1126,-0.42218064996684856,-0.4,1,321.0,745.0,1.0,864.0,1,0.02683153901606543,0.0
1127,1127,0.5986067354406468,0.6,0,354.0,724.0,0.0,312.0,1,0.029039614228222644,0.0
1128,1128,0.45740841375112984,0.5,0,306.0,521.0,0.0,253.0,1,0.06261082847776984,0.0
1129,1129,0.29110908578973405,0.3,0,300.0,677.0,0.0,303.0,1,0.06666805238882893,0.0
1130,1130,0.8173688991295751,0.8,0,391.0,503.0,0.0,176.0,1,0.0673835891612744,0.0
1131,1131,0.4860806783204952,0.5,0,421.0,862.0,0.0,3717.0,1,0.05908682186684566,0.0
1132,1132,-0.9893812198493634,-1.0,1,498.0,595.0,1.0,357.0,1,0.028262040818499302,0.0
1133,1133,0.6899443751935037,0.7,0,423.0,589.0,0.0,268.0,1,0.056062383416226526,0.0
1134,1134,-0.6297349153858185,-0.6,1,267.0,621.0,1.0,972.0,1,0.04926990681066698,0.0
1135,1135,-0.12162506481629864,-0.1,1,329.0,601.0,0.0,530.0,0,0.03320076889803778,0.0
1136,1136,0.5698030646749421,0.6,0,351.0,991.0,0.0,158.0,1,0.023540762665352447,0.0
1137,1137,-0.8031292502940464,-0.8,1,405.0,522.0,1.0,543.0,1,0.0861547233203949,0.0
1138,1138,0.2482616909831865,0.2,0,450.0,524.0,0.0,1106.0,1,0.01399698803208107,0.0
1139,1139,-0.2510037820983724,-0.3,1,491.0,755.0,0.0,414.0,0,0.07325443217151159,0.0
1140,1140,-0.941712717979369,-0.9,1,263.0,697.0,1.0,480.0,1,0.026159081984490518,0.0
1141,1141,-0.3482419756181965,-0.3,1,259.0,515.0,0.0,1606.0,0,0.0740619550975882,0.0
1142,1142,-0.588480437005658,-0.6,1,300.0,957.0,1.0,603.0,1,0.09749798899010226,0.0
1143,1143,-0.6238252805579949,-0.6,1,286.0,589.0,1.0,605.0,1,0.0010913284562535709,0.0
1144,1144,0.026460240333145313,0.0,0,422.0,621.0,0.0,2847.0,1,0.06520938802241998,0.0
1145,1145,-0.24812946202070174,-0.2,1,306.0,979.0,0.0,695.0,0,0.055834191748772216,0.0
1146,1146,-0.6210577032679463,-0.6,1,386.0,800.0,1.0,414.0,1,0.009567060947950234,0.0
1147,1147,0.33738142714209807,0.3,0,261.0,700.0,0.0,649.0,1,0.018513179989052088,0.0
1148,1148,0.6909525086848296,0.7,0,431.0,877.0,0.0,282.0,1,0.033213705777050975,0.0
1149,1149,0.7643637138090074,0.8,0,464.0,860.0,0.0,296.0,1,0.03882463459242387,0.0
1150,1150,0.5773990789080259,0.6,0,320.0,745.0,0.0,415.0,1,0.002747690982208595,0.0
1151,1151,-0.30943067568098925,-0.3,1,409.0,743.0,0.0,678.0,0,0.05787686264234121,0.0
1152,1152,0.1466086131066342,0.1,0,369.0,595.0,0.0,536.0,1,0.028056771599732203,0.0
1153,1153,0.5020651166862473,0.5,0,484.0,986.0,0.0,550.0,1,0.05288518776479273,0.0
1154,1154,0.37339910038159463,0.4,0,460.0,700.0,0.0,370.0,1,0.02136397447628298,0.0
1155,1155,0.37159272330100435,0.4,0,457.0,782.0,0.0,2181.0,1,0.0971242126489607,0.0
1156,1156,0.3916390145573372,0.4,0,346.0,922.0,0.0,422.0,1,0.056275516298554096,0.0
1157,1157,-0.2980681930030442,-0.3,1,472.0,865.0,0.0,723.0,0,0.04365547463029158,0.0
1158,1158,-0.24291900669806177,-0.2,1,458.0,583.0,1.0,559.0,1,0.03380453418681907,0.0
1159,1159,-0.7336613007033785,-0.7,1,498.0,721.0,1.0,491.0,1,0.08643904378724826,0.0
1160,1160,-0.4295320990132143,-0.4,1,277.0,620.0,1.0,433.0,1,0.07260641320486054,0.0
1161,1161,-0.4226380567006214,-0.4,1,422.0,502.0,1.0,1736.0,1,0.080807737774727,0.0
1162,1162,0.0334069498177314,0.0,0,464.0,809.0,0.0,457.0,1,0.09814750122383911,0.0
1163,1163,-0.8971459670317974,-0.9,1,324.0,551.0,1.0,625.0,1,0.035945200181398365,0.0
1164,1164,0.9471856516418136,0.9,0,264.0,984.0,0.0,242.0,1,0.020379149935431697,0.0
1165,1165,0.7962848496485266,0.8,0,467.0,524.0,0.0,179.0,1,0.06359646443112128,0.0
1166,1166,-0.35453830112375706,-0.4,1,269.0,766.0,0.0,2925.0,0,0.008561850331726883,0.0
1167,1167,-0.8429002183386025,-0.8,1,402.0,620.0,1.0,608.0,1,0.01790159408646459,0.0
1168,1168,0.467988571600076,0.5,0,410.0,907.0,0.0,393.0,1,0.09156201207262185,0.0
1169,1169,0.7257375166929003,0.7,0,400.0,619.0,0.0,281.0,1,0.01589698356249115,0.0
1170,1170,0.1384252234051857,0.1,0,434.0,508.0,0.0,548.0,1,0.022659979356171048,0.0
1171,1171,0.2960772464415715,0.3,0,486.0,747.0,0.0,377.0,1,0.09631917561961266,0.0
1172,1172,0.15027739141981855,0.2,0,301.0,668.0,0.0,491.0,1,0.03047079775382283,0.0
1173,1173,-0.9919978202028046,-1.0,1,429.0,987.0,1.0,434.0,1,0.015262270402256584,0.0
1174,1174,0.06503758447724839,0.1,0,378.0,809.0,0.0,463.0,1,0.08259141381769343,0.0
1175,1175,-0.9932879169714834,-1.0,1,309.0,793.0,1.0,548.0,1,0.05725734943494157,0.0
1176,1176,-0.23567022884213595,-0.2,1,346.0,909.0,0.0,345.0,0,0.04032701890020787,0.0
1177,1177,-0.09736384783839092,-0.1,1,301.0,612.0,0.0,417.0,0,0.0529902528596119,0.0
1178,1178,-0.6163122433396535,-0.6,1,436.0,765.0,1.0,479.0,1,0.0838562519611889,0.0
1179,1179,-0.7118737097953471,-0.7,1,404.0,850.0,1.0,456.0,1,0.05059654188658588,0.0
1180,1180,0.4002358695582622,0.4,0,349.0,954.0,0.0,1827.0,1,0.07951456553483259,0.0
1181,1181,0.18129164234746664,0.2,0,471.0,831.0,0.0,2488.0,1,0.031399320859838764,0.0
1182,1182,-0.5649556115670762,-0.6,1,461.0,848.0,1.0,471.0,1,0.015025740749321571,0.0
1183,1183,-0.5474720802580937,-0.5,1,407.0,882.0,1.0,951.0,1,0.07290972757551537,0.0
1184,1184,-0.0575637899520447,-0.1,1,491.0,856.0,0.0,833.0,0,0.09185768721428783,0.0
1185,1185,0.01016135852369171,0.0,0,457.0,633.0,0.0,300.0,1,0.04713106823111335,0.0
1186,1186,0.2532084504839833,0.3,0,395.0,801.0,0.0,3074.0,1,0.03754193628843991,0.0
1187,1187,0.45325753803193614,0.5,0,484.0,874.0,0.0,602.0,1,0.0631922972548563,0.0
1188,1188,0.5416989821818927,0.5,0,291.0,864.0,0.0,2715.0,1,0.07926437045306052,0.0
1189,1189,-0.9914197623511407,-1.0,1,424.0,881.0,1.0,735.0,1,0.013353656680284055,0.0
1190,1190,-0.9383794579328646,-0.9,1,387.0,830.0,1.0,303.0,1,0.0834473297808678,0.0
1191,1191,0.286439773682317,0.3,0,323.0,604.0,0.0,2013.0,1,0.012630880866236939,0.0
1192,1192,0.6920944355597043,0.7,0,349.0,931.0,0.0,300.0,1,0.029562836450559783,0.0
1193,1193,-0.4851199537231523,-0.5,1,486.0,961.0,0.0,663.0,0,0.07350111428240845,0.0
1194,1194,-0.37909268562900666,-0.4,1,339.0,665.0,0.0,1496.0,0,0.03870462453843587,0.0
1195,1195,0.8504473799475232,0.9,0,400.0,765.0,0.0,235.0,1,0.053325800545642094,0.0
1196,1196,-0.9813288973373127,-1.0,1,354.0,928.0,1.0,358.0,1,0.040073881620596274,0.0
1197,1197,0.7777329512383551,0.8,0,373.0,681.0,0.0,186.0,1,0.05069925156635572,0.0
1198,1198,0.05584607974157896,0.1,0,398.0,997.0,0.0,375.0,1,0.04901012761496694,0.0
1199,1199,-0.8872708288137627,-0.9,1,268.0,692.0,1.0,550.0,1,0.0016479287827254052,0.0
1200,1200,-0.46396841309421477,-0.5,1,321.0,919.0,0.0,820.0,0,0.056384135459688324,0.0
1201,1201,-0.12148843972278178,-0.1,1,275.0,679.0,0.0,306.0,0,0.0533386218922513,0.0
1202,1202,0.7785720620002632,0.8,0,356.0,567.0,0.0,257.0,1,0.05542400246890993,0.0
1203,1203,0.04815081861492532,0.0,0,466.0,639.0,0.0,295.0,1,0.0690653847749732,0.0
