,trial,coherence,coherence_bin,green_side,correct_side,target_onset,checker_onset,decision,green_decision,decision_time,correct_decision
0,0,0.46449013724695554,0.5,1.0,1.0,442.0,801.0,0.0,0,1757.0,0
1,1,-0.0218748180695153,-0.0,0.0,1.0,449.0,801.0,0.0,1,1750.0,0
2,2,0.19825009133267602,0.2,0.0,0.0,381.0,575.0,0.0,1,2044.0,1
3,3,-0.1795754462471928,-0.2,0.0,1.0,362.0,768.0,0.0,1,1870.0,0
4,4,-0.06388118262984666,-0.1,0.0,1.0,386.0,572.0,0.0,1,-738.0,0
5,5,0.7807287850923218,0.8,1.0,1.0,310.0,649.0,0.0,0,2041.0,0
6,6,0.5130330535680848,0.5,0.0,0.0,396.0,893.0,0.0,1,1711.0,1
7,7,-0.587757386082574,-0.6,0.0,1.0,270.0,863.0,0.0,1,1867.0,0
8,8,0.06448995872014507,0.1,1.0,1.0,377.0,690.0,1.0,1,-917.0,1
9,9,0.5243461031460798,0.5,0.0,0.0,438.0,629.0,0.0,1,1933.0,1
10,10,-0.5432966196591185,-0.5,1.0,0.0,422.0,753.0,0.0,0,1825.0,1
11,11,0.42049826813979496,0.4,1.0,1.0,308.0,754.0,0.0,0,1938.0,0
12,12,-0.8658958409722515,-0.9,0.0,1.0,444.0,872.0,0.0,1,1684.0,0
13,13,0.36961863024664277,0.4,0.0,0.0,382.0,787.0,0.0,1,1831.0,1
14,14,0.1929467751462074,0.2,0.0,0.0,331.0,843.0,1.0,0,-1154.0,0
15,15,0.6710213939490658,0.7,0.0,0.0,318.0,510.0,0.0,1,2172.0,1
16,16,-0.39797841113160526,-0.4,0.0,1.0,290.0,925.0,0.0,1,1785.0,0
17,17,-0.29729877650997516,-0.3,1.0,0.0,280.0,694.0,0.0,0,2026.0,1
18,18,-0.5787266877331456,-0.6,1.0,0.0,349.0,922.0,0.0,0,1729.0,1
19,19,0.6386659726432945,0.6,1.0,1.0,368.0,681.0,0.0,0,1951.0,0
20,20,-0.5202904446619281,-0.5,1.0,0.0,326.0,725.0,0.0,0,1949.0,1
21,21,-0.322118251834689,-0.3,0.0,1.0,333.0,671.0,0.0,1,1996.0,0
22,22,0.5265823709984075,0.5,0.0,0.0,290.0,903.0,0.0,1,1807.0,1
23,23,0.4888154391716967,0.5,0.0,0.0,374.0,910.0,0.0,1,1716.0,1
24,24,0.6419670430411094,0.6,0.0,0.0,409.0,763.0,0.0,1,-1122.0,1
25,25,-0.2906886675690603,-0.3,1.0,0.0,457.0,961.0,0.0,0,1582.0,1
26,26,0.23510245688302123,0.2,0.0,0.0,395.0,925.0,0.0,1,1680.0,1
27,27,0.14361041392665863,0.1,1.0,1.0,474.0,595.0,0.0,0,1931.0,0
28,28,0.40280587954833125,0.4,0.0,0.0,373.0,614.0,0.0,1,2013.0,1
29,29,-0.12507716542453495,-0.1,1.0,0.0,434.0,581.0,0.0,0,1985.0,1
30,30,0.3483195980135724,0.3,0.0,0.0,291.0,781.0,1.0,0,-922.0,0
31,31,-0.7991551191594846,-0.8,0.0,1.0,377.0,712.0,0.0,1,1911.0,0
32,32,-0.5518362484996739,-0.6,1.0,0.0,360.0,779.0,0.0,0,1861.0,1
33,33,0.38334972528513067,0.4,0.0,0.0,394.0,808.0,0.0,1,1798.0,1
34,34,0.8299987349457877,0.8,1.0,1.0,498.0,910.0,0.0,0,1592.0,0
35,35,0.3360226736179842,0.3,1.0,1.0,486.0,667.0,0.0,0,1847.0,0
36,36,-0.8863673297871494,-0.9,1.0,0.0,391.0,524.0,0.0,0,2085.0,1
37,37,0.4249877984273621,0.4,1.0,1.0,467.0,972.0,0.0,0,1561.0,0
38,38,-0.0754303473138952,-0.1,0.0,1.0,354.0,888.0,0.0,1,1758.0,0
39,39,0.2831162840879441,0.3,0.0,0.0,392.0,509.0,0.0,1,2099.0,1
40,40,-0.759850745460524,-0.8,0.0,1.0,381.0,999.0,0.0,1,1620.0,0
41,41,-0.5766948663987139,-0.6,0.0,1.0,466.0,691.0,0.0,1,1843.0,0
42,42,0.6298957491548253,0.6,1.0,1.0,434.0,665.0,0.0,0,1901.0,0
43,43,-0.28960891610804906,-0.3,1.0,0.0,460.0,549.0,0.0,0,1991.0,1
44,44,0.471204784296931,0.5,1.0,1.0,284.0,897.0,0.0,0,-1181.0,0
45,45,0.23766069731940054,0.2,0.0,0.0,335.0,728.0,0.0,1,-843.0,1
46,46,0.453257039393434,0.5,0.0,0.0,318.0,544.0,0.0,1,2138.0,1
47,47,-0.0624291391180426,-0.1,0.0,1.0,327.0,639.0,0.0,1,2034.0,0
48,48,0.8399548840479604,0.8,1.0,1.0,396.0,982.0,0.0,0,1622.0,0
49,49,-0.11679281480757175,-0.1,1.0,0.0,358.0,789.0,0.0,0,1853.0,1
50,50,-0.33171570902922143,-0.3,0.0,1.0,329.0,852.0,0.0,1,1819.0,0
51,51,-0.002972631795919445,-0.0,1.0,0.0,473.0,984.0,0.0,0,1543.0,1
52,52,-0.6857194386463715,-0.7,0.0,1.0,386.0,618.0,0.0,1,1996.0,0
53,53,0.11325860013715838,0.1,1.0,1.0,321.0,647.0,0.0,0,2032.0,0
54,54,0.8059524040897813,0.8,1.0,1.0,321.0,745.0,0.0,0,1934.0,0
55,55,-0.7945817763110283,-0.8,1.0,0.0,495.0,990.0,0.0,0,1515.0,1
56,56,-0.038085131847922504,-0.0,0.0,1.0,423.0,505.0,0.0,1,2072.0,0
57,57,0.650313628380624,0.7,0.0,0.0,399.0,735.0,0.0,1,1866.0,1
58,58,-0.0390647515641952,-0.0,0.0,1.0,433.0,713.0,0.0,1,1854.0,0
59,59,0.778009107060145,0.8,0.0,0.0,390.0,826.0,0.0,1,1784.0,1
60,60,0.017089727151072376,0.0,1.0,1.0,358.0,889.0,0.0,0,1753.0,0
61,61,0.02101896164746564,0.0,1.0,1.0,406.0,551.0,0.0,0,2043.0,0
62,62,-0.3031457592150718,-0.3,0.0,1.0,288.0,903.0,0.0,1,1809.0,0
63,63,0.8123156002139565,0.8,1.0,1.0,491.0,728.0,0.0,0,-1149.0,0
64,64,0.5605838531279618,0.6,1.0,1.0,348.0,730.0,1.0,1,-1078.0,1
65,65,-0.1678437962389604,-0.2,1.0,0.0,354.0,690.0,0.0,0,1956.0,1
66,66,-0.7667998128912122,-0.8,1.0,0.0,377.0,938.0,0.0,0,1685.0,1
67,67,-0.20070860453283657,-0.2,1.0,0.0,378.0,904.0,1.0,1,-1252.0,0
68,68,0.49624513696312567,0.5,0.0,0.0,273.0,609.0,0.0,1,2118.0,1
69,69,-0.417129254331222,-0.4,1.0,0.0,292.0,837.0,0.0,0,1871.0,1
70,70,-0.20346533116527765,-0.2,0.0,1.0,320.0,775.0,1.0,0,-1045.0,1
71,71,0.51692358272992,0.5,0.0,0.0,357.0,511.0,0.0,1,2132.0,1
72,72,0.3404830089051961,0.3,1.0,1.0,255.0,579.0,0.0,0,2166.0,0
73,73,-0.5612604044785447,-0.6,1.0,0.0,276.0,746.0,0.0,0,1978.0,1
74,74,0.8817857334708438,0.9,1.0,1.0,437.0,622.0,0.0,0,1941.0,0
75,75,0.6501757286609172,0.7,0.0,0.0,388.0,970.0,0.0,1,1642.0,1
76,76,0.700960013796372,0.7,0.0,0.0,299.0,696.0,0.0,1,2005.0,1
77,77,0.6009279623564284,0.6,1.0,1.0,313.0,568.0,0.0,0,2119.0,0
78,78,0.8654848110128618,0.9,1.0,1.0,285.0,823.0,0.0,0,1892.0,0
79,79,0.7898808933423872,0.8,1.0,1.0,346.0,858.0,1.0,1,-1174.0,1
80,80,-0.21180692093227071,-0.2,0.0,1.0,420.0,783.0,0.0,1,1797.0,0
81,81,-0.4762223974721917,-0.5,1.0,0.0,375.0,685.0,0.0,0,1940.0,1
82,82,-0.7610679685294356,-0.8,1.0,0.0,323.0,855.0,0.0,0,1822.0,1
83,83,0.23911568984932308,0.2,0.0,0.0,394.0,908.0,0.0,1,1698.0,1
84,84,0.3410510339950198,0.3,0.0,0.0,444.0,713.0,0.0,1,-1147.0,1
85,85,0.7651739138152519,0.8,0.0,0.0,304.0,878.0,0.0,1,1818.0,1
86,86,0.6197676660403632,0.6,1.0,1.0,384.0,711.0,0.0,0,1905.0,0
87,87,-0.21081817016280002,-0.2,0.0,1.0,275.0,631.0,0.0,1,2094.0,0
88,88,0.054865116900009836,0.1,0.0,0.0,493.0,679.0,0.0,1,1828.0,1
89,89,0.5653679811675377,0.6,0.0,0.0,360.0,843.0,0.0,1,1797.0,1
90,90,0.013104267412351933,0.0,1.0,1.0,323.0,739.0,0.0,0,-892.0,0
91,91,0.738017671855134,0.7,1.0,1.0,314.0,999.0,0.0,0,1687.0,0
92,92,-0.15927777205679017,-0.2,1.0,0.0,411.0,832.0,0.0,0,1757.0,1
93,93,-0.0531635354157457,-0.1,1.0,0.0,419.0,668.0,0.0,0,-1037.0,1
94,94,-0.3458281856493325,-0.3,0.0,1.0,388.0,794.0,0.0,1,1818.0,0
95,95,0.354337389285181,0.4,0.0,0.0,277.0,884.0,0.0,1,1839.0,1
96,96,-0.7348781385820684,-0.7,0.0,1.0,425.0,681.0,0.0,1,1894.0,0
97,97,-0.7522444587684417,-0.8,0.0,1.0,435.0,584.0,0.0,1,1981.0,0
98,98,0.8284938915235734,0.8,0.0,0.0,268.0,661.0,0.0,1,2071.0,1
99,99,0.7387012346003946,0.7,0.0,0.0,480.0,637.0,0.0,1,1883.0,1
100,100,0.7111187309017905,0.7,0.0,0.0,378.0,723.0,0.0,1,-681.0,1
101,101,0.7548251661031403,0.8,0.0,0.0,455.0,680.0,0.0,1,1865.0,1
102,102,-0.4126938954125467,-0.4,0.0,1.0,387.0,504.0,0.0,1,2109.0,0
103,103,0.2665001912819577,0.3,1.0,1.0,369.0,774.0,0.0,0,-1103.0,0
104,104,0.23312404408458354,0.2,1.0,1.0,455.0,522.0,0.0,0,2023.0,0
105,105,0.09718745586702737,0.1,0.0,0.0,366.0,855.0,0.0,1,1779.0,1
106,106,-0.01586568470637162,-0.0,1.0,0.0,471.0,500.0,0.0,0,2029.0,1
107,107,0.7425956239112653,0.7,1.0,1.0,327.0,759.0,1.0,1,-1056.0,1
108,108,0.5839922789523967,0.6,1.0,1.0,377.0,622.0,0.0,0,2001.0,0
109,109,0.013558941154260373,0.0,1.0,1.0,383.0,740.0,0.0,0,1877.0,0
110,110,-0.09516546781209079,-0.1,0.0,1.0,479.0,600.0,0.0,1,1921.0,0
111,111,-0.13602688848226285,-0.1,0.0,1.0,369.0,545.0,0.0,1,2086.0,0
112,112,0.014158629184309879,0.0,0.0,0.0,362.0,714.0,0.0,1,1924.0,1
113,113,0.6760619710758101,0.7,1.0,1.0,262.0,671.0,0.0,0,2067.0,0
114,114,-0.60807326870347,-0.6,1.0,0.0,325.0,810.0,0.0,0,1865.0,1
115,115,0.14189729025998765,0.1,1.0,1.0,376.0,969.0,0.0,0,1655.0,0
116,116,-0.13455105297881675,-0.1,0.0,1.0,421.0,675.0,0.0,1,1904.0,0
117,117,0.016760774715729676,0.0,0.0,0.0,434.0,504.0,0.0,1,2062.0,1
118,118,0.07470023672891501,0.1,1.0,1.0,499.0,700.0,0.0,0,1801.0,0
119,119,-0.11171640476217959,-0.1,0.0,1.0,473.0,856.0,0.0,1,1671.0,0
120,120,0.6033561119560978,0.6,1.0,1.0,446.0,974.0,0.0,0,1580.0,0
121,121,-0.1773999068278006,-0.2,1.0,0.0,341.0,681.0,0.0,0,1978.0,1
122,122,0.7145214926627151,0.7,1.0,1.0,303.0,807.0,0.0,0,1890.0,0
123,123,0.41164392229902036,0.4,0.0,0.0,344.0,847.0,0.0,1,1809.0,1
124,124,0.8177495402950595,0.8,0.0,0.0,310.0,607.0,0.0,1,2083.0,1
125,125,-0.6073410587263315,-0.6,0.0,1.0,259.0,792.0,0.0,1,1949.0,0
126,126,-0.5996025746494762,-0.6,1.0,0.0,495.0,571.0,0.0,0,1934.0,1
127,127,-0.026698511915437928,-0.0,0.0,1.0,395.0,672.0,0.0,1,-1047.0,0
128,128,0.06347943636884268,0.1,0.0,0.0,392.0,989.0,0.0,1,1619.0,1
129,129,-0.3913111617199583,-0.4,1.0,0.0,400.0,854.0,0.0,0,1746.0,1
130,130,-0.2698092852386159,-0.3,1.0,0.0,322.0,845.0,0.0,0,-1017.0,1
131,131,0.6588802667536374,0.7,0.0,0.0,447.0,698.0,0.0,1,1855.0,1
132,132,0.7666057892367245,0.8,0.0,0.0,291.0,550.0,0.0,1,2159.0,1
133,133,-0.7940118357889914,-0.8,1.0,0.0,322.0,609.0,0.0,0,2069.0,1
134,134,-0.6251577492088989,-0.6,1.0,0.0,316.0,548.0,0.0,0,2136.0,1
135,135,0.012013010810542069,0.0,1.0,1.0,348.0,937.0,1.0,1,-1175.0,1
136,136,-0.2440850202078917,-0.2,1.0,0.0,267.0,669.0,0.0,0,2064.0,1
137,137,-0.7373391263389366,-0.7,0.0,1.0,295.0,504.0,0.0,1,2201.0,0
138,138,-0.6913212917281792,-0.7,1.0,0.0,489.0,999.0,0.0,0,1512.0,1
139,139,-0.5934194062881123,-0.6,1.0,0.0,472.0,796.0,0.0,0,1732.0,1
140,140,-0.6167083075705502,-0.6,0.0,1.0,390.0,941.0,1.0,0,-1261.0,1
141,141,0.2830776086110868,0.3,1.0,1.0,254.0,758.0,0.0,0,1988.0,0
142,142,-0.2954330520185253,-0.3,0.0,1.0,457.0,514.0,0.0,1,2029.0,0
143,143,0.5617132805197939,0.6,0.0,0.0,482.0,751.0,0.0,1,1767.0,1
144,144,0.5170834391294211,0.5,1.0,1.0,417.0,809.0,0.0,0,1774.0,0
145,145,0.7449102973676339,0.7,0.0,0.0,261.0,845.0,0.0,1,1894.0,1
146,146,0.4337753738941018,0.4,1.0,1.0,393.0,853.0,0.0,0,1754.0,0
147,147,-0.1803949326854296,-0.2,1.0,0.0,407.0,630.0,0.0,0,1963.0,1
148,148,0.6988244132232627,0.7,0.0,0.0,291.0,552.0,0.0,1,2157.0,1
149,149,0.4118673654981265,0.4,1.0,1.0,323.0,590.0,0.0,0,2087.0,0
150,150,0.3224123593451814,0.3,0.0,0.0,385.0,894.0,0.0,1,1721.0,1
151,151,-0.882893987267211,-0.9,1.0,0.0,483.0,686.0,0.0,0,1831.0,1
152,152,0.4438481186160482,0.4,0.0,0.0,414.0,710.0,0.0,1,1876.0,1
153,153,-0.7363266589571129,-0.7,0.0,1.0,391.0,532.0,0.0,1,2077.0,0
154,154,-0.046701442127980775,-0.0,0.0,1.0,307.0,856.0,1.0,0,-1143.0,1
155,155,0.5117720009557208,0.5,1.0,1.0,272.0,716.0,0.0,0,-918.0,0
156,156,-0.2162878554714348,-0.2,1.0,0.0,271.0,648.0,0.0,0,2081.0,1
157,157,0.39581621575668013,0.4,0.0,0.0,445.0,526.0,0.0,1,-941.0,1
158,158,0.7290863199813445,0.7,1.0,1.0,292.0,797.0,0.0,0,1911.0,0
159,159,-0.6459392682139597,-0.6,1.0,0.0,341.0,837.0,0.0,0,1822.0,1
160,160,-0.1344994103316629,-0.1,0.0,1.0,293.0,661.0,0.0,1,2046.0,0
161,161,0.19838625488655148,0.2,1.0,1.0,295.0,889.0,0.0,0,1816.0,0
162,162,-0.5899671235374899,-0.6,0.0,1.0,405.0,900.0,0.0,1,1695.0,0
163,163,-0.724705289917168,-0.7,1.0,0.0,488.0,929.0,0.0,0,1583.0,1
164,164,0.8457611704162508,0.8,0.0,0.0,321.0,539.0,0.0,1,2140.0,1
165,165,0.031878242837305226,0.0,0.0,0.0,490.0,735.0,0.0,1,1775.0,1
166,166,-0.1851155691522136,-0.2,0.0,1.0,363.0,867.0,0.0,1,1770.0,0
167,167,0.28315639325603714,0.3,0.0,0.0,298.0,910.0,0.0,1,1792.0,1
168,168,0.17428798303536108,0.2,1.0,1.0,416.0,846.0,0.0,0,1738.0,0
169,169,-0.23435748903062836,-0.2,1.0,0.0,327.0,657.0,0.0,0,2016.0,1
170,170,-0.39682701950948884,-0.4,1.0,0.0,464.0,635.0,0.0,0,1901.0,1
171,171,0.6440134450639602,0.6,1.0,1.0,279.0,622.0,0.0,0,2099.0,0
172,172,-0.1930536727347646,-0.2,1.0,0.0,375.0,518.0,0.0,0,2107.0,1
173,173,-0.5566689669560186,-0.6,0.0,1.0,406.0,526.0,1.0,0,-762.0,1
174,174,0.2107574308709198,0.2,0.0,0.0,268.0,990.0,0.0,1,1742.0,1
175,175,-0.3639013874091672,-0.4,1.0,0.0,382.0,688.0,0.0,0,1930.0,1
176,176,-0.18436820722234826,-0.2,0.0,1.0,377.0,819.0,0.0,1,1804.0,0
177,177,0.38661119986388626,0.4,1.0,1.0,375.0,765.0,0.0,0,-1090.0,0
178,178,-0.022643466645452137,-0.0,1.0,0.0,308.0,618.0,0.0,0,2074.0,1
179,179,0.8713314615870141,0.9,0.0,0.0,273.0,911.0,0.0,1,1816.0,1
180,180,0.6790061096782148,0.7,1.0,1.0,358.0,984.0,0.0,0,1658.0,0
181,181,-0.08399455902429476,-0.1,1.0,0.0,493.0,877.0,0.0,0,1630.0,1
182,182,0.6307153331700305,0.6,1.0,1.0,448.0,840.0,0.0,0,1712.0,0
183,183,-0.6148106411030079,-0.6,0.0,1.0,410.0,567.0,0.0,1,2023.0,0
184,184,-0.6348000112095389,-0.6,0.0,1.0,371.0,507.0,0.0,1,2122.0,0
185,185,0.6286330881124192,0.6,0.0,0.0,425.0,876.0,0.0,1,1699.0,1
186,186,-0.8264149958024585,-0.8,0.0,1.0,431.0,905.0,0.0,1,1664.0,0
187,187,-0.03207375300374449,-0.0,0.0,1.0,489.0,745.0,0.0,1,1766.0,0
188,188,0.2084331714486899,0.2,1.0,1.0,430.0,739.0,0.0,0,1831.0,0
189,189,0.13408688299078386,0.1,1.0,1.0,439.0,941.0,0.0,0,-1340.0,0
190,190,0.8157328109462806,0.8,1.0,1.0,348.0,542.0,0.0,0,2110.0,0
191,191,-0.09908347197034961,-0.1,0.0,1.0,386.0,980.0,0.0,1,1634.0,0
192,192,0.6825279753144043,0.7,0.0,0.0,268.0,780.0,0.0,1,1952.0,1
193,193,0.8185827850515611,0.8,1.0,1.0,482.0,812.0,0.0,0,1706.0,0
194,194,0.004631841478724419,0.0,1.0,1.0,361.0,603.0,0.0,0,2036.0,0
195,195,-0.04333146254037412,-0.0,0.0,1.0,412.0,686.0,0.0,1,1902.0,0
196,196,-0.877590615504152,-0.9,1.0,0.0,466.0,902.0,0.0,0,1632.0,1
197,197,-0.30958479535640326,-0.3,1.0,0.0,387.0,715.0,0.0,0,1898.0,1
198,198,0.5631566851703972,0.6,0.0,0.0,324.0,573.0,0.0,1,2103.0,1
199,199,-0.605666697703086,-0.6,0.0,1.0,455.0,551.0,0.0,1,1994.0,0
200,200,0.8818044259047279,0.9,0.0,0.0,493.0,528.0,0.0,1,1979.0,1
201,201,0.4805138792688394,0.5,0.0,0.0,385.0,838.0,0.0,1,1777.0,1
202,202,-0.4876027586238635,-0.5,0.0,1.0,256.0,827.0,0.0,1,1917.0,0
203,203,0.4511775889974824,0.5,1.0,1.0,283.0,925.0,0.0,0,1792.0,0
204,204,0.5597996424271726,0.6,0.0,0.0,361.0,915.0,0.0,1,1724.0,1
205,205,-0.35521661003948624,-0.4,0.0,1.0,377.0,686.0,0.0,1,1937.0,0
206,206,0.09452033207241128,0.1,1.0,1.0,371.0,588.0,0.0,0,2041.0,0
207,207,0.2962093893622163,0.3,0.0,0.0,379.0,794.0,0.0,1,1827.0,1
208,208,-0.7144580354891286,-0.7,1.0,0.0,469.0,879.0,0.0,0,1652.0,1
209,209,-0.14023994640715653,-0.1,1.0,0.0,295.0,838.0,0.0,0,1867.0,1
210,210,0.05914092428846429,0.1,0.0,0.0,251.0,715.0,1.0,0,-936.0,0
211,211,-0.026752752262814594,-0.0,1.0,0.0,268.0,679.0,0.0,0,2053.0,1
212,212,0.12825288768043508,0.1,1.0,1.0,443.0,838.0,0.0,0,1719.0,0
213,213,-0.5188959137601921,-0.5,1.0,0.0,420.0,933.0,0.0,0,1647.0,1
214,214,-0.7476111177743955,-0.7,0.0,1.0,301.0,907.0,0.0,1,1792.0,0
215,215,-0.07073599100270644,-0.1,0.0,1.0,349.0,618.0,0.0,1,2033.0,0
216,216,-0.09080176891333269,-0.1,0.0,1.0,476.0,756.0,0.0,1,1768.0,0
217,217,0.22038108947482626,0.2,1.0,1.0,272.0,554.0,0.0,0,2174.0,0
218,218,-0.5833126331489507,-0.6,0.0,1.0,318.0,719.0,0.0,1,1963.0,0
219,219,-0.33242406747091713,-0.3,0.0,1.0,340.0,992.0,0.0,1,1668.0,0
220,220,0.02849087008479445,0.0,0.0,0.0,432.0,523.0,0.0,1,2045.0,1
221,221,0.5546197275800308,0.6,0.0,0.0,464.0,654.0,0.0,1,1882.0,1
222,222,0.028838074198077712,0.0,1.0,1.0,433.0,817.0,0.0,0,1750.0,0
223,223,-0.53448492729371,-0.5,0.0,1.0,444.0,674.0,0.0,1,1882.0,0
224,224,0.8786809612199463,0.9,1.0,1.0,434.0,782.0,0.0,0,1784.0,0
225,225,0.7739880566523875,0.8,0.0,0.0,260.0,525.0,0.0,1,2215.0,1
226,226,0.770961605692673,0.8,0.0,0.0,257.0,631.0,0.0,1,2112.0,1
227,227,0.4823046333953337,0.5,0.0,0.0,426.0,656.0,0.0,1,-1022.0,1
228,228,0.08977577089647404,0.1,0.0,0.0,370.0,602.0,0.0,1,2028.0,1
229,229,-0.40865683211060794,-0.4,1.0,0.0,269.0,998.0,0.0,0,1733.0,1
230,230,0.34299169058382584,0.3,1.0,1.0,259.0,763.0,0.0,0,1978.0,0
231,231,-0.49671994590425284,-0.5,0.0,1.0,286.0,995.0,0.0,1,1719.0,0
232,232,0.3093582626876331,0.3,0.0,0.0,381.0,852.0,0.0,1,1767.0,1
233,233,0.47353364267868014,0.5,1.0,1.0,360.0,503.0,0.0,0,2137.0,0
234,234,-0.6888751945841181,-0.7,0.0,1.0,485.0,915.0,0.0,1,1600.0,0
235,235,0.8006341264537283,0.8,1.0,1.0,493.0,725.0,0.0,0,-1198.0,0
236,236,0.03202696151455653,0.0,0.0,0.0,348.0,952.0,0.0,1,1700.0,1
237,237,0.15723550054942825,0.2,1.0,1.0,399.0,751.0,0.0,0,1850.0,0
238,238,-0.7257314533581283,-0.7,0.0,1.0,377.0,710.0,1.0,0,-1087.0,1
239,239,0.04097232618589097,0.0,1.0,1.0,295.0,760.0,0.0,0,1945.0,0
240,240,-0.11433670766649884,-0.1,1.0,0.0,300.0,584.0,0.0,0,2116.0,1
241,241,-0.7867574945825543,-0.8,0.0,1.0,339.0,905.0,0.0,1,1756.0,0
242,242,-0.09587735299189215,-0.1,0.0,1.0,335.0,613.0,0.0,1,2052.0,0
243,243,0.7122130724907242,0.7,1.0,1.0,446.0,997.0,0.0,0,1557.0,0
244,244,-0.26961028005863474,-0.3,1.0,0.0,333.0,912.0,0.0,0,1755.0,1
245,245,-0.8091504605811288,-0.8,1.0,0.0,418.0,907.0,0.0,0,1675.0,1
246,246,-0.3651465990941244,-0.4,1.0,0.0,342.0,856.0,0.0,0,1802.0,1
247,247,-0.8821862102813238,-0.9,0.0,1.0,415.0,634.0,0.0,1,-1049.0,0
248,248,-0.7538165333176524,-0.8,0.0,1.0,465.0,772.0,1.0,0,-1207.0,1
249,249,0.130575480561954,0.1,0.0,0.0,316.0,914.0,1.0,0,-1130.0,0
250,250,-0.35121143996463344,-0.4,0.0,1.0,389.0,694.0,0.0,1,1917.0,0
251,251,0.8996334727666594,0.9,0.0,0.0,401.0,997.0,0.0,1,1602.0,1
252,252,-0.7154748104241822,-0.7,0.0,1.0,468.0,928.0,0.0,1,1604.0,0
253,253,0.3911671838703922,0.4,0.0,0.0,354.0,778.0,0.0,1,1868.0,1
254,254,0.7092604207140859,0.7,0.0,0.0,426.0,885.0,0.0,1,1689.0,1
255,255,-0.5653452992178924,-0.6,0.0,1.0,397.0,663.0,0.0,1,1940.0,0
256,256,-0.8612298340862851,-0.9,0.0,1.0,275.0,871.0,0.0,1,1854.0,0
257,257,0.8016414942201494,0.8,1.0,1.0,250.0,975.0,0.0,0,1775.0,0
258,258,-0.5355024185191484,-0.5,1.0,0.0,416.0,615.0,0.0,0,1969.0,1
259,259,-0.34040927863473036,-0.3,1.0,0.0,377.0,742.0,0.0,0,1881.0,1
260,260,0.49977274139085626,0.5,0.0,0.0,323.0,891.0,0.0,1,-1204.0,1
261,261,-0.050811627073555465,-0.1,0.0,1.0,384.0,513.0,0.0,1,2103.0,0
262,262,0.7460722134798906,0.7,0.0,0.0,299.0,660.0,0.0,1,2041.0,1
263,263,0.29532176020471945,0.3,1.0,1.0,423.0,874.0,0.0,0,1703.0,0
264,264,0.6626824157219392,0.7,1.0,1.0,308.0,913.0,0.0,0,-1191.0,0
265,265,0.22255220467683456,0.2,1.0,1.0,432.0,878.0,0.0,0,1690.0,0
266,266,0.07041940500706934,0.1,0.0,0.0,262.0,867.0,0.0,1,1871.0,1
267,267,-0.6656667149186347,-0.7,0.0,1.0,353.0,556.0,0.0,1,2091.0,0
268,268,-0.36755378363895697,-0.4,1.0,0.0,273.0,857.0,0.0,0,1870.0,1
269,269,-0.05130500188462439,-0.1,1.0,0.0,341.0,753.0,0.0,0,1906.0,1
270,270,0.5216753407619336,0.5,0.0,0.0,474.0,884.0,0.0,1,1642.0,1
271,271,0.7829268946262101,0.8,1.0,1.0,364.0,639.0,0.0,0,1997.0,0
272,272,0.3330307726336278,0.3,0.0,0.0,451.0,772.0,0.0,1,1777.0,1
273,273,0.12895293265267893,0.1,0.0,0.0,404.0,545.0,0.0,1,2051.0,1
274,274,0.08449378088706061,0.1,1.0,1.0,406.0,812.0,0.0,0,1782.0,0
275,275,0.33480040787043286,0.3,1.0,1.0,258.0,523.0,0.0,0,2219.0,0
276,276,-0.5284223859926409,-0.5,0.0,1.0,469.0,988.0,0.0,1,1543.0,0
277,277,0.5201767795748876,0.5,0.0,0.0,447.0,550.0,0.0,1,2003.0,1
278,278,-0.7774543669200593,-0.8,0.0,1.0,495.0,822.0,1.0,0,-1167.0,1
279,279,-0.7644427623216832,-0.8,1.0,0.0,256.0,876.0,0.0,0,1868.0,1
280,280,0.506883409646906,0.5,0.0,0.0,288.0,872.0,0.0,1,1840.0,1
281,281,-0.8129203043329963,-0.8,0.0,1.0,268.0,565.0,0.0,1,-593.0,0
282,282,0.15780571310696623,0.2,0.0,0.0,439.0,641.0,0.0,1,1920.0,1
283,283,-0.27102367342812317,-0.3,1.0,0.0,322.0,906.0,0.0,0,1772.0,1
284,284,-0.49986250965397816,-0.5,0.0,1.0,478.0,803.0,0.0,1,1719.0,0
285,285,0.5992305553076928,0.6,1.0,1.0,483.0,754.0,0.0,0,1763.0,0
286,286,-0.5370736481691418,-0.5,0.0,1.0,385.0,754.0,0.0,1,1861.0,0
287,287,-0.6057841763414611,-0.6,0.0,1.0,402.0,977.0,0.0,1,1621.0,0
288,288,-0.5546472840401011,-0.6,0.0,1.0,325.0,641.0,0.0,1,2034.0,0
289,289,0.757149472705806,0.8,0.0,0.0,400.0,946.0,0.0,1,-816.0,1
290,290,0.5511864666186354,0.6,1.0,1.0,297.0,688.0,0.0,0,2015.0,0
291,291,-0.18586738020513938,-0.2,1.0,0.0,367.0,774.0,0.0,0,1859.0,1
292,292,0.3784745573025189,0.4,0.0,0.0,448.0,640.0,0.0,1,1912.0,1
293,293,0.5517627072424739,0.6,1.0,1.0,437.0,599.0,0.0,0,1964.0,0
294,294,0.46621862187543084,0.5,1.0,1.0,467.0,515.0,0.0,0,2018.0,0
295,295,-0.8298927237867191,-0.8,1.0,0.0,434.0,790.0,0.0,0,1776.0,1
296,296,-0.5148493930525806,-0.5,1.0,0.0,257.0,920.0,0.0,0,1823.0,1
297,297,0.7595679962408525,0.8,0.0,0.0,380.0,659.0,0.0,1,1961.0,1
298,298,0.48621058896270875,0.5,1.0,1.0,472.0,902.0,0.0,0,-1254.0,0
299,299,0.15322202384297212,0.2,1.0,1.0,279.0,873.0,0.0,0,-1072.0,0
300,300,0.5578945679651642,0.6,1.0,1.0,364.0,847.0,0.0,0,-831.0,0
301,301,0.7004277284202204,0.7,1.0,1.0,438.0,775.0,0.0,0,1787.0,0
302,302,-0.575465660217428,-0.6,0.0,1.0,332.0,751.0,0.0,1,1917.0,0
303,303,0.2669745637339752,0.3,0.0,0.0,470.0,654.0,0.0,1,1876.0,1
304,304,0.28841772884044337,0.3,0.0,0.0,349.0,527.0,0.0,1,2124.0,1
305,305,0.20240898806975915,0.2,1.0,1.0,258.0,564.0,0.0,0,2178.0,0
306,306,0.2830706179006034,0.3,0.0,0.0,273.0,814.0,0.0,1,1913.0,1
307,307,-0.2452334704447019,-0.2,0.0,1.0,282.0,947.0,0.0,1,1771.0,0
308,308,0.8162674538427094,0.8,1.0,1.0,404.0,809.0,0.0,0,1787.0,0
309,309,-0.5186189434663593,-0.5,1.0,0.0,284.0,581.0,0.0,0,2135.0,1
310,310,0.5921577732503859,0.6,0.0,0.0,277.0,964.0,0.0,1,-1211.0,1
311,311,0.37726487068596415,0.4,1.0,1.0,324.0,973.0,0.0,0,1703.0,0
312,312,-0.19401546843259632,-0.2,0.0,1.0,293.0,717.0,0.0,1,1990.0,0
313,313,0.35105895525253195,0.4,1.0,1.0,490.0,996.0,0.0,0,1514.0,0
314,314,0.7655268966128214,0.8,0.0,0.0,489.0,797.0,0.0,1,1714.0,1
315,315,-0.36184945287106085,-0.4,0.0,1.0,327.0,806.0,0.0,1,1867.0,0
316,316,-0.26817498509550886,-0.3,0.0,1.0,494.0,827.0,0.0,1,1679.0,0
317,317,-0.4083778359987927,-0.4,1.0,0.0,293.0,556.0,0.0,0,2151.0,1
318,318,0.2763149503891439,0.3,1.0,1.0,372.0,875.0,0.0,0,1753.0,0
319,319,0.6030887922334515,0.6,1.0,1.0,477.0,878.0,0.0,0,1645.0,0
320,320,-0.13817046084644913,-0.1,0.0,1.0,300.0,720.0,0.0,1,1980.0,0
321,321,-0.8961416448755859,-0.9,1.0,0.0,331.0,989.0,0.0,0,1680.0,1
322,322,-0.3120487286068716,-0.3,1.0,0.0,454.0,834.0,0.0,0,1712.0,1
323,323,0.1443205117032419,0.1,1.0,1.0,277.0,830.0,1.0,1,-727.0,1
324,324,-0.5659951608514786,-0.6,1.0,0.0,298.0,698.0,1.0,1,-916.0,0
325,325,0.12509493299732866,0.1,1.0,1.0,322.0,559.0,0.0,0,2119.0,0
326,326,0.7274095260510222,0.7,1.0,1.0,322.0,517.0,0.0,0,2161.0,0
327,327,-0.7075889555359485,-0.7,0.0,1.0,468.0,657.0,0.0,1,1875.0,0
328,328,-0.11999512913958932,-0.1,0.0,1.0,331.0,748.0,0.0,1,1921.0,0
329,329,0.31156255818231393,0.3,1.0,1.0,332.0,996.0,0.0,0,1672.0,0
330,330,0.28882288145219837,0.3,0.0,0.0,313.0,506.0,0.0,1,-759.0,1
331,331,-0.2201245539393718,-0.2,0.0,1.0,257.0,832.0,0.0,1,1911.0,0
332,332,-0.6384308726443798,-0.6,0.0,1.0,397.0,931.0,0.0,1,1672.0,0
333,333,0.20878490769213764,0.2,1.0,1.0,400.0,665.0,0.0,0,1935.0,0
334,334,0.330707345857593,0.3,1.0,1.0,410.0,672.0,0.0,0,1918.0,0
335,335,-0.2512192613545591,-0.3,1.0,0.0,401.0,955.0,0.0,0,1644.0,1
336,336,-0.3639041688105277,-0.4,1.0,0.0,258.0,637.0,0.0,0,2105.0,1
337,337,0.37356362955227895,0.4,0.0,0.0,453.0,720.0,0.0,1,1827.0,1
338,338,0.4070431794180388,0.4,0.0,0.0,396.0,627.0,0.0,1,1977.0,1
339,339,-0.8389882765881708,-0.8,0.0,1.0,279.0,801.0,0.0,1,1920.0,0
340,340,0.2519506171866671,0.3,1.0,1.0,303.0,631.0,0.0,0,2066.0,0
341,341,-0.19064234676559255,-0.2,1.0,0.0,358.0,924.0,0.0,0,1718.0,1
342,342,0.3532451739652659,0.4,0.0,0.0,328.0,787.0,0.0,1,1885.0,1
343,343,-0.5302037491418519,-0.5,0.0,1.0,462.0,952.0,0.0,1,1586.0,0
344,344,-0.5210582181061594,-0.5,0.0,1.0,352.0,992.0,0.0,1,-1304.0,0
345,345,-0.5947461453510694,-0.6,1.0,0.0,315.0,603.0,0.0,0,2082.0,1
346,346,0.6102639966184565,0.6,1.0,1.0,388.0,827.0,0.0,0,1785.0,0
347,347,-0.034289763373912874,-0.0,1.0,0.0,379.0,891.0,0.0,0,1730.0,1
348,348,-0.5638318720805855,-0.6,0.0,1.0,304.0,764.0,0.0,1,-1068.0,0
349,349,-0.037684909893002216,-0.0,0.0,1.0,408.0,559.0,0.0,1,2033.0,0
350,350,-0.5268655104888875,-0.5,0.0,1.0,442.0,941.0,0.0,1,1617.0,0
351,351,-0.18830605042021697,-0.2,0.0,1.0,278.0,576.0,0.0,1,2146.0,0
352,352,-0.23496368046097404,-0.2,0.0,1.0,297.0,884.0,0.0,1,1819.0,0
353,353,0.48690190387230825,0.5,1.0,1.0,300.0,906.0,0.0,0,1794.0,0
354,354,-0.2604978273683112,-0.3,0.0,1.0,327.0,533.0,0.0,1,2140.0,0
355,355,-0.06879882724886088,-0.1,1.0,0.0,305.0,958.0,0.0,0,1737.0,1
356,356,-0.34417553335381545,-0.3,0.0,1.0,293.0,545.0,0.0,1,-828.0,0
357,357,-0.42828574804817726,-0.4,0.0,1.0,366.0,795.0,0.0,1,1839.0,0
358,358,0.4847336180350511,0.5,1.0,1.0,285.0,819.0,1.0,1,-1084.0,1
359,359,0.34004624955793294,0.3,1.0,1.0,292.0,606.0,0.0,0,2102.0,0
360,360,0.24308321603808924,0.2,0.0,0.0,390.0,543.0,0.0,1,2067.0,1
361,361,-0.21137299434796386,-0.2,0.0,1.0,334.0,728.0,0.0,1,1938.0,0
362,362,0.3121450457475826,0.3,0.0,0.0,375.0,587.0,0.0,1,2038.0,1
363,363,-0.1096368711192931,-0.1,1.0,0.0,328.0,850.0,0.0,0,1822.0,1
364,364,-0.4140078617211668,-0.4,1.0,0.0,384.0,979.0,0.0,0,-1333.0,1
365,365,0.6412418912448096,0.6,0.0,0.0,286.0,859.0,0.0,1,1855.0,1
366,366,0.6354989057050789,0.6,1.0,1.0,407.0,932.0,0.0,0,1661.0,0
367,367,-0.739482392931583,-0.7,1.0,0.0,372.0,647.0,0.0,0,1981.0,1
368,368,0.4595374466571659,0.5,1.0,1.0,253.0,985.0,1.0,1,-1098.0,1
369,369,-0.18363009531174346,-0.2,1.0,0.0,275.0,656.0,0.0,0,2069.0,1
370,370,-0.4571554592524018,-0.5,1.0,0.0,318.0,818.0,0.0,0,1864.0,1
371,371,0.23657680728585306,0.2,0.0,0.0,281.0,723.0,0.0,1,1996.0,1
372,372,0.3847828645850767,0.4,1.0,1.0,483.0,979.0,0.0,0,-1092.0,0
373,373,-0.810646531480925,-0.8,1.0,0.0,460.0,698.0,0.0,0,1842.0,1
374,374,-0.46721983542404605,-0.5,1.0,0.0,391.0,738.0,0.0,0,1871.0,1
375,375,-0.23033603054710539,-0.2,1.0,0.0,353.0,956.0,0.0,0,1691.0,1
376,376,0.7486726210469122,0.7,1.0,1.0,342.0,945.0,0.0,0,1713.0,0
377,377,0.03023813787519447,0.0,1.0,1.0,271.0,770.0,0.0,0,-1041.0,0
378,378,-0.05579384930671116,-0.1,0.0,1.0,465.0,658.0,0.0,1,1877.0,0
379,379,-0.3676084373046091,-0.4,0.0,1.0,459.0,721.0,0.0,1,1820.0,0
380,380,-0.5560792228827014,-0.6,0.0,1.0,408.0,534.0,0.0,1,2058.0,0
381,381,0.6668030192143598,0.7,0.0,0.0,388.0,660.0,0.0,1,-1008.0,1
382,382,0.5523476222312532,0.6,1.0,1.0,456.0,591.0,1.0,1,-867.0,1
383,383,-0.6466063695859373,-0.6,0.0,1.0,427.0,511.0,0.0,1,2062.0,0
384,384,0.062354267609527114,0.1,1.0,1.0,253.0,555.0,0.0,0,2192.0,0
385,385,-0.1943599240567151,-0.2,1.0,0.0,298.0,738.0,1.0,1,-996.0,0
386,386,-0.36427884406794453,-0.4,1.0,0.0,415.0,938.0,0.0,0,1647.0,1
387,387,-0.3811279680185997,-0.4,0.0,1.0,399.0,541.0,0.0,1,2060.0,0
388,388,-0.8260605492793467,-0.8,1.0,0.0,324.0,789.0,1.0,1,-1113.0,0
389,389,0.8872745188722756,0.9,1.0,1.0,429.0,720.0,0.0,0,1851.0,0
390,390,0.06970407896414665,0.1,1.0,1.0,384.0,699.0,1.0,1,-1003.0,1
391,391,0.867069426571848,0.9,1.0,1.0,263.0,639.0,0.0,0,2098.0,0
392,392,-0.648992996196421,-0.6,0.0,1.0,394.0,832.0,0.0,1,1774.0,0
393,393,0.33805426948051476,0.3,1.0,1.0,398.0,795.0,0.0,0,1807.0,0
394,394,-0.6935431905234081,-0.7,0.0,1.0,412.0,848.0,0.0,1,1740.0,0
395,395,-0.04340527832908081,-0.0,1.0,0.0,491.0,995.0,0.0,0,1514.0,1
396,396,0.6672617686438668,0.7,0.0,0.0,385.0,774.0,0.0,1,1841.0,1
397,397,-0.16806909859971375,-0.2,1.0,0.0,448.0,757.0,0.0,0,1795.0,1
398,398,-0.025723256754532686,-0.0,1.0,0.0,315.0,576.0,0.0,0,2109.0,1
399,399,0.4663360485967908,0.5,0.0,0.0,379.0,838.0,0.0,1,1783.0,1
400,400,-0.271038258072304,-0.3,1.0,0.0,463.0,530.0,0.0,0,2007.0,1
401,401,0.379436680341095,0.4,1.0,1.0,397.0,886.0,0.0,0,1717.0,0
402,402,-0.8245722903986187,-0.8,1.0,0.0,260.0,984.0,0.0,0,1756.0,1
403,403,-0.6869777096826406,-0.7,0.0,1.0,290.0,784.0,0.0,1,1926.0,0
404,404,0.5723966975084603,0.6,0.0,0.0,436.0,779.0,0.0,1,1785.0,1
405,405,-0.48038045704788573,-0.5,1.0,0.0,444.0,883.0,0.0,0,1673.0,1
406,406,-0.343724746495063,-0.3,1.0,0.0,411.0,998.0,0.0,0,1591.0,1
407,407,0.21895769780982477,0.2,1.0,1.0,359.0,737.0,0.0,0,1904.0,0
408,408,0.1522220219631828,0.2,0.0,0.0,274.0,711.0,0.0,1,2015.0,1
409,409,0.2169071484141042,0.2,0.0,0.0,342.0,911.0,0.0,1,1747.0,1
410,410,0.6225077656146935,0.6,1.0,1.0,297.0,934.0,0.0,0,1769.0,0
411,411,-0.15056467760333925,-0.2,0.0,1.0,437.0,913.0,0.0,1,1650.0,0
412,412,0.29060925252710723,0.3,0.0,0.0,346.0,947.0,0.0,1,1707.0,1
413,413,-0.33902671143150487,-0.3,0.0,1.0,266.0,925.0,0.0,1,1809.0,0
414,414,0.7746431469625569,0.8,1.0,1.0,488.0,968.0,0.0,0,1544.0,0
415,415,0.17684043855340625,0.2,1.0,1.0,399.0,591.0,0.0,0,2010.0,0
416,416,-0.074367863654066,-0.1,0.0,1.0,448.0,756.0,0.0,1,1796.0,0
417,417,-0.28494934759000645,-0.3,1.0,0.0,499.0,905.0,0.0,0,1596.0,1
418,418,0.47839697955464355,0.5,0.0,0.0,296.0,889.0,0.0,1,1815.0,1
419,419,0.05240792535417449,0.1,1.0,1.0,278.0,598.0,0.0,0,2124.0,0
420,420,0.3485589908888743,0.3,0.0,0.0,291.0,570.0,0.0,1,2139.0,1
421,421,0.13687087617971894,0.1,0.0,0.0,490.0,969.0,0.0,1,1541.0,1
422,422,0.04535488227041573,0.0,1.0,1.0,399.0,965.0,0.0,0,1636.0,0
423,423,-0.015229485103435692,-0.0,1.0,0.0,486.0,931.0,0.0,0,1583.0,1
424,424,0.7600269627583413,0.8,0.0,0.0,377.0,677.0,0.0,1,1946.0,1
425,425,-0.6323341594441028,-0.6,0.0,1.0,360.0,625.0,0.0,1,2015.0,0
426,426,0.266323475735572,0.3,0.0,0.0,322.0,776.0,0.0,1,-998.0,1
427,427,-0.8436570508766861,-0.8,0.0,1.0,390.0,507.0,0.0,1,2103.0,0
428,428,-0.02643165635868505,-0.0,0.0,1.0,446.0,957.0,0.0,1,-1343.0,0
429,429,-0.3396412003548306,-0.3,0.0,1.0,258.0,562.0,0.0,1,2180.0,0
430,430,-0.1591758557415648,-0.2,1.0,0.0,377.0,635.0,0.0,0,1988.0,1
431,431,0.8334334229904602,0.8,0.0,0.0,367.0,755.0,0.0,1,1878.0,1
432,432,0.6692561078953007,0.7,1.0,1.0,397.0,520.0,0.0,0,2083.0,0
433,433,0.4152566827409193,0.4,1.0,1.0,373.0,630.0,0.0,0,1997.0,0
434,434,-0.8747001649392718,-0.9,1.0,0.0,393.0,929.0,0.0,0,1678.0,1
435,435,-0.24049586582890936,-0.2,1.0,0.0,435.0,845.0,0.0,0,1720.0,1
436,436,0.7101625044117786,0.7,1.0,1.0,482.0,717.0,1.0,1,-1129.0,1
437,437,-0.7226969624547837,-0.7,1.0,0.0,315.0,533.0,0.0,0,2152.0,1
438,438,0.6115767289435178,0.6,0.0,0.0,344.0,800.0,0.0,1,1856.0,1
439,439,0.6005974123694909,0.6,0.0,0.0,348.0,668.0,0.0,1,1984.0,1
440,440,0.018065515950551503,0.0,0.0,0.0,458.0,804.0,0.0,1,1738.0,1
441,441,-0.6814453090794015,-0.7,0.0,1.0,318.0,629.0,0.0,1,2053.0,0
442,442,0.3085476738629632,0.3,1.0,1.0,359.0,940.0,0.0,0,1701.0,0
443,443,0.7633821573897054,0.8,0.0,0.0,367.0,510.0,0.0,1,2123.0,1
444,444,-0.4819960824258635,-0.5,0.0,1.0,347.0,545.0,0.0,1,2108.0,0
445,445,-0.1423935437198014,-0.1,0.0,1.0,316.0,786.0,0.0,1,1898.0,0
446,446,-0.6429105023729953,-0.6,1.0,0.0,459.0,862.0,0.0,0,1679.0,1
447,447,0.6417733030976821,0.6,1.0,1.0,490.0,539.0,0.0,0,1971.0,0
448,448,0.46902932452981305,0.5,1.0,1.0,447.0,883.0,1.0,1,-1330.0,1
449,449,-0.3031584754543969,-0.3,1.0,0.0,498.0,606.0,0.0,0,-824.0,1
450,450,0.5729054095151392,0.6,1.0,1.0,329.0,930.0,0.0,0,1741.0,0
451,451,0.571532098366276,0.6,1.0,1.0,353.0,940.0,0.0,0,1707.0,0
452,452,0.7873704930162234,0.8,1.0,1.0,327.0,726.0,0.0,0,1947.0,0
453,453,-0.23764466624575886,-0.2,0.0,1.0,435.0,653.0,0.0,1,1912.0,0
454,454,0.3605205774710508,0.4,0.0,0.0,369.0,686.0,0.0,1,1945.0,1
455,455,-0.6265331263689242,-0.6,1.0,0.0,321.0,875.0,0.0,0,-1136.0,1
456,456,0.8811298263250783,0.9,0.0,0.0,339.0,789.0,0.0,1,1872.0,1
457,457,0.03983306651035279,0.0,0.0,0.0,286.0,892.0,0.0,1,1822.0,1
458,458,-0.5282828678626295,-0.5,0.0,1.0,368.0,768.0,0.0,1,1864.0,0
459,459,0.614696201903029,0.6,0.0,0.0,395.0,865.0,0.0,1,1740.0,1
460,460,-0.8903788600802895,-0.9,0.0,1.0,380.0,934.0,0.0,1,1686.0,0
461,461,0.39152694509370833,0.4,1.0,1.0,494.0,852.0,0.0,0,1654.0,0
462,462,-0.8875417924920337,-0.9,1.0,0.0,295.0,606.0,0.0,0,-881.0,1
463,463,0.275634667715155,0.3,1.0,1.0,456.0,827.0,0.0,0,1717.0,0
464,464,-0.84527546799623,-0.8,1.0,0.0,254.0,782.0,0.0,0,1964.0,1
465,465,-0.12438841784865462,-0.1,1.0,0.0,259.0,568.0,0.0,0,2173.0,1
466,466,0.47387642275358377,0.5,1.0,1.0,258.0,747.0,0.0,0,1995.0,0
467,467,0.1272408667770054,0.1,1.0,1.0,297.0,757.0,0.0,0,1946.0,0
468,468,-0.3943851161102906,-0.4,0.0,1.0,273.0,844.0,0.0,1,1883.0,0
469,469,0.5667213909120138,0.6,1.0,1.0,316.0,522.0,0.0,0,2162.0,0
470,470,0.6100947875075339,0.6,0.0,0.0,498.0,588.0,0.0,1,1914.0,1
471,471,0.35682002508504385,0.4,1.0,1.0,355.0,810.0,0.0,0,-985.0,0
472,472,-0.7259726930452154,-0.7,1.0,0.0,334.0,806.0,0.0,0,1860.0,1
473,473,-0.3978153792576501,-0.4,0.0,1.0,322.0,517.0,0.0,1,2161.0,0
474,474,-0.33082347298044723,-0.3,1.0,0.0,499.0,518.0,0.0,0,1983.0,1
475,475,-0.49349665874687126,-0.5,1.0,0.0,338.0,638.0,0.0,0,2024.0,1
476,476,0.4801519697336526,0.5,1.0,1.0,302.0,584.0,0.0,0,2114.0,0
477,477,0.8402553328977534,0.8,0.0,0.0,456.0,838.0,0.0,1,1706.0,1
478,478,-0.5653195665311257,-0.6,0.0,1.0,481.0,509.0,0.0,1,2010.0,0
479,479,-0.582273435538103,-0.6,1.0,0.0,331.0,747.0,0.0,0,1922.0,1
480,480,0.3349651795525165,0.3,0.0,0.0,305.0,882.0,0.0,1,1813.0,1
481,481,-0.3408529483172159,-0.3,0.0,1.0,308.0,689.0,0.0,1,2003.0,0
482,482,0.8831348746339657,0.9,0.0,0.0,331.0,649.0,0.0,1,2020.0,1
483,483,0.37764839921415605,0.4,0.0,0.0,337.0,773.0,0.0,1,1890.0,1
484,484,0.23389738165476837,0.2,0.0,0.0,491.0,852.0,0.0,1,1657.0,1
485,485,-0.42526165107001773,-0.4,0.0,1.0,341.0,785.0,0.0,1,1874.0,0
486,486,-0.6743726165632128,-0.7,1.0,0.0,498.0,794.0,0.0,0,1708.0,1
487,487,0.6402100968742751,0.6,0.0,0.0,374.0,968.0,0.0,1,-1342.0,1
488,488,0.16164642343216806,0.2,1.0,1.0,259.0,646.0,0.0,0,2095.0,0
489,489,-0.102740730092302,-0.1,0.0,1.0,302.0,561.0,0.0,1,-813.0,0
490,490,-0.19502064426808496,-0.2,0.0,1.0,369.0,972.0,0.0,1,1659.0,0
491,491,0.7335031899331844,0.7,1.0,1.0,483.0,694.0,0.0,0,1823.0,0
492,492,0.707703249612995,0.7,0.0,0.0,398.0,753.0,0.0,1,1849.0,1
493,493,-0.5596423801859916,-0.6,0.0,1.0,292.0,726.0,0.0,1,1982.0,0
494,494,0.33872019958650623,0.3,1.0,1.0,417.0,539.0,0.0,0,2044.0,0
495,495,0.3024335958068681,0.3,0.0,0.0,320.0,652.0,0.0,1,2028.0,1
496,496,-0.48724018882935294,-0.5,0.0,1.0,397.0,963.0,0.0,1,-1280.0,0
497,497,0.12362278940922977,0.1,1.0,1.0,361.0,848.0,0.0,0,1791.0,0
498,498,-0.6647898834693143,-0.7,1.0,0.0,412.0,845.0,0.0,0,1743.0,1
499,499,0.33010386244534373,0.3,0.0,0.0,297.0,567.0,0.0,1,2136.0,1
500,500,0.441321851957312,0.4,0.0,0.0,474.0,847.0,0.0,1,1679.0,1
501,501,-0.02510610071741437,-0.0,0.0,1.0,355.0,510.0,0.0,1,2135.0,0
502,502,-0.012781578914560332,-0.0,1.0,0.0,272.0,508.0,0.0,0,-640.0,1
503,503,0.5344589019355489,0.5,0.0,0.0,388.0,963.0,0.0,1,1649.0,1
504,504,0.7047738248810428,0.7,0.0,0.0,252.0,713.0,0.0,1,2035.0,1
505,505,-0.6083860887020003,-0.6,1.0,0.0,473.0,809.0,0.0,0,1718.0,1
506,506,-0.47110409893777794,-0.5,1.0,0.0,301.0,975.0,0.0,0,1724.0,1
507,507,0.4347899656270061,0.4,0.0,0.0,326.0,708.0,0.0,1,1966.0,1
508,508,-0.8714070766179391,-0.9,0.0,1.0,309.0,712.0,0.0,1,1979.0,0
509,509,-0.3443926212460986,-0.3,0.0,1.0,434.0,697.0,0.0,1,1869.0,0
510,510,-0.16576024987835658,-0.2,0.0,1.0,434.0,994.0,0.0,1,1572.0,0
511,511,-0.8726721282713062,-0.9,1.0,0.0,378.0,625.0,0.0,0,1997.0,1
512,512,0.01361780940544155,0.0,0.0,0.0,334.0,734.0,0.0,1,-1028.0,1
513,513,-0.04241492586123019,-0.0,1.0,0.0,331.0,959.0,0.0,0,1710.0,1
514,514,-0.8009392524996325,-0.8,0.0,1.0,273.0,880.0,0.0,1,1847.0,0
515,515,-0.09811109731148138,-0.1,0.0,1.0,416.0,691.0,0.0,1,1893.0,0
516,516,0.07627137522931393,0.1,0.0,0.0,446.0,649.0,0.0,1,1905.0,1
517,517,0.7097265920424353,0.7,1.0,1.0,484.0,833.0,0.0,0,1683.0,0
518,518,-0.7708868743476998,-0.8,0.0,1.0,251.0,720.0,0.0,1,2029.0,0
519,519,0.7086164419174518,0.7,1.0,1.0,480.0,880.0,0.0,0,1640.0,0
520,520,-0.49651022512330556,-0.5,1.0,0.0,471.0,898.0,0.0,0,1631.0,1
521,521,-0.531306977241307,-0.5,0.0,1.0,362.0,510.0,0.0,1,-642.0,0
522,522,0.6773789918445828,0.7,0.0,0.0,379.0,569.0,0.0,1,2052.0,1
523,523,-0.06583884506622162,-0.1,0.0,1.0,481.0,670.0,0.0,1,1849.0,0
524,524,0.34013020219638956,0.3,1.0,1.0,482.0,882.0,0.0,0,1636.0,0
525,525,0.1717704265380532,0.2,0.0,0.0,355.0,817.0,0.0,1,1828.0,1
526,526,0.05878687575080255,0.1,0.0,0.0,325.0,741.0,0.0,1,1934.0,1
527,527,0.51246070127011,0.5,1.0,1.0,309.0,892.0,0.0,0,1799.0,0
528,528,0.491892195923027,0.5,1.0,1.0,290.0,701.0,0.0,0,2009.0,0
529,529,0.04631995568959313,0.0,0.0,0.0,305.0,899.0,0.0,1,1796.0,1
530,530,0.6395537700289745,0.6,1.0,1.0,264.0,513.0,0.0,0,-457.0,0
531,531,-0.3555778726156277,-0.4,1.0,0.0,333.0,896.0,0.0,0,1771.0,1
532,532,0.859502180329034,0.9,1.0,1.0,268.0,539.0,0.0,0,2193.0,0
533,533,0.7075842574097685,0.7,0.0,0.0,317.0,715.0,1.0,0,-972.0,0
534,534,-0.42974063814506297,-0.4,0.0,1.0,428.0,524.0,0.0,1,2048.0,0
535,535,0.6271000866687856,0.6,1.0,1.0,391.0,632.0,0.0,0,1977.0,0
536,536,-0.8762452925451172,-0.9,1.0,0.0,451.0,906.0,0.0,0,1643.0,1
537,537,-0.22647674270533646,-0.2,1.0,0.0,250.0,848.0,0.0,0,1902.0,1
538,538,0.7539971102136539,0.8,1.0,1.0,429.0,548.0,0.0,0,2023.0,0
539,539,-0.122257064112399,-0.1,1.0,0.0,259.0,880.0,0.0,0,1861.0,1
540,540,-0.20006354157706885,-0.2,0.0,1.0,423.0,510.0,0.0,1,2067.0,0
541,541,0.00024956438795298297,0.0,1.0,1.0,457.0,569.0,0.0,0,1974.0,0
542,542,0.2959526854186537,0.3,0.0,0.0,368.0,807.0,0.0,1,1825.0,1
543,543,0.32935270682476936,0.3,1.0,1.0,437.0,883.0,0.0,0,1680.0,0
544,544,-0.8801980200269259,-0.9,1.0,0.0,348.0,737.0,0.0,0,1915.0,1
545,545,-0.13621399599010342,-0.1,1.0,0.0,370.0,936.0,1.0,1,-1176.0,0
546,546,-0.5878901005096329,-0.6,1.0,0.0,475.0,833.0,0.0,0,1692.0,1
547,547,-0.7167557902191053,-0.7,0.0,1.0,309.0,942.0,0.0,1,1749.0,0
548,548,-0.09671992794796058,-0.1,1.0,0.0,268.0,703.0,0.0,0,2029.0,1
549,549,0.78215287843687,0.8,0.0,0.0,403.0,883.0,0.0,1,1714.0,1
550,550,-0.7180011699726048,-0.7,1.0,0.0,254.0,579.0,0.0,0,2167.0,1
551,551,0.07463365319056592,0.1,0.0,0.0,429.0,695.0,0.0,1,1876.0,1
552,552,-0.6701275957964892,-0.7,1.0,0.0,259.0,528.0,0.0,0,2213.0,1
553,553,0.24176193645836042,0.2,0.0,0.0,309.0,580.0,0.0,1,2111.0,1
554,554,-0.8673205324180746,-0.9,1.0,0.0,462.0,728.0,0.0,0,1810.0,1
555,555,0.8720064896663672,0.9,0.0,0.0,277.0,510.0,0.0,1,2213.0,1
556,556,0.19943650918856604,0.2,1.0,1.0,477.0,569.0,0.0,0,1954.0,0
557,557,0.6937565340104513,0.7,1.0,1.0,409.0,862.0,0.0,0,1729.0,0
558,558,-0.28772581481878134,-0.3,0.0,1.0,302.0,518.0,0.0,1,2180.0,0
559,559,-0.10804521496568842,-0.1,1.0,0.0,464.0,768.0,0.0,0,1768.0,1
560,560,-0.6466203974890941,-0.6,1.0,0.0,434.0,803.0,0.0,0,1763.0,1
561,561,0.5418327669163946,0.5,0.0,0.0,396.0,581.0,0.0,1,2023.0,1
562,562,-0.4284219623037438,-0.4,1.0,0.0,328.0,901.0,0.0,0,1771.0,1
563,563,0.8538913155454536,0.9,1.0,1.0,499.0,749.0,0.0,0,1752.0,0
564,564,0.8812681074303882,0.9,1.0,1.0,355.0,730.0,0.0,0,1915.0,0
565,565,0.41424838633878125,0.4,1.0,1.0,458.0,998.0,0.0,0,1544.0,0
566,566,0.7582592869166013,0.8,1.0,1.0,386.0,957.0,0.0,0,1657.0,0
567,567,-0.42124787546121584,-0.4,1.0,0.0,498.0,863.0,0.0,0,1639.0,1
568,568,0.7808283555886305,0.8,1.0,1.0,388.0,881.0,0.0,0,1731.0,0
569,569,-0.06224596141233707,-0.1,1.0,0.0,487.0,747.0,0.0,0,1766.0,1
570,570,-0.45594980633942683,-0.5,1.0,0.0,308.0,525.0,0.0,0,2167.0,1
571,571,-0.24894936065594375,-0.2,1.0,0.0,426.0,588.0,0.0,0,1986.0,1
572,572,0.16836461460473384,0.2,0.0,0.0,462.0,607.0,0.0,1,1931.0,1
573,573,0.8120942414356441,0.8,0.0,0.0,309.0,882.0,1.0,0,-1101.0,0
574,574,0.18425012931426743,0.2,0.0,0.0,254.0,596.0,0.0,1,2150.0,1
575,575,0.728078654401438,0.7,1.0,1.0,334.0,503.0,0.0,0,2163.0,0
576,576,-0.7930128971858104,-0.8,1.0,0.0,393.0,900.0,0.0,0,1707.0,1
577,577,0.48437146078354887,0.5,0.0,0.0,466.0,870.0,0.0,1,-1246.0,1
578,578,-0.7325388230638119,-0.7,1.0,0.0,420.0,711.0,0.0,0,1869.0,1
579,579,-0.676073440780425,-0.7,0.0,1.0,355.0,538.0,0.0,1,2107.0,0
580,580,0.3078462634403939,0.3,1.0,1.0,264.0,591.0,0.0,0,2145.0,0
581,581,0.5535033617643693,0.6,1.0,1.0,454.0,992.0,0.0,0,1554.0,0
582,582,0.6304056259862482,0.6,0.0,0.0,483.0,996.0,1.0,0,-1459.0,0
583,583,-0.6523799850213949,-0.7,0.0,1.0,402.0,586.0,0.0,1,2012.0,0
584,584,-0.2166752866338313,-0.2,0.0,1.0,482.0,877.0,0.0,1,1641.0,0
585,585,0.8647782411504873,0.9,1.0,1.0,363.0,645.0,0.0,0,1992.0,0
586,586,0.01640392877465935,0.0,1.0,1.0,382.0,697.0,0.0,0,1921.0,0
587,587,0.10796764271105885,0.1,1.0,1.0,352.0,698.0,0.0,0,1950.0,0
588,588,-0.8840484972580074,-0.9,1.0,0.0,391.0,768.0,0.0,0,-1129.0,1
589,589,0.06010252996267795,0.1,0.0,0.0,264.0,692.0,0.0,1,2044.0,1
590,590,0.6753646068372045,0.7,0.0,0.0,453.0,942.0,0.0,1,1605.0,1
591,591,-0.4331470180727324,-0.4,1.0,0.0,481.0,955.0,0.0,0,1564.0,1
592,592,-0.6619115085774374,-0.7,1.0,0.0,481.0,860.0,0.0,0,1659.0,1
593,593,0.8777960186625858,0.9,1.0,1.0,496.0,539.0,0.0,0,1965.0,0
594,594,-0.4688262847703082,-0.5,0.0,1.0,414.0,715.0,0.0,1,1871.0,0
595,595,-0.8991943914061556,-0.9,1.0,0.0,325.0,899.0,0.0,0,1776.0,1
596,596,-0.08063391765958061,-0.1,0.0,1.0,436.0,639.0,0.0,1,1925.0,0
597,597,0.5007429512219802,0.5,1.0,1.0,497.0,948.0,0.0,0,1555.0,0
598,598,-0.8339892120993115,-0.8,0.0,1.0,261.0,866.0,0.0,1,1873.0,0
599,599,-0.4474164049337122,-0.4,1.0,0.0,376.0,588.0,0.0,0,2036.0,1
600,600,0.12253498611087121,0.1,1.0,1.0,444.0,702.0,0.0,0,1854.0,0
601,601,-0.09567736991662446,-0.1,1.0,0.0,299.0,555.0,0.0,0,2146.0,1
602,602,-0.14811020802872588,-0.1,0.0,1.0,455.0,886.0,1.0,0,-1291.0,1
603,603,-0.765021103784526,-0.8,1.0,0.0,328.0,568.0,0.0,0,2104.0,1
604,604,0.12423988141208275,0.1,0.0,0.0,312.0,842.0,0.0,1,1846.0,1
605,605,0.7721203761022212,0.8,0.0,0.0,469.0,939.0,0.0,1,1592.0,1
606,606,0.3943193699651496,0.4,1.0,1.0,298.0,626.0,0.0,0,2076.0,0
607,607,-0.6397902641571199,-0.6,0.0,1.0,284.0,524.0,0.0,1,2192.0,0
608,608,0.06291433061069251,0.1,0.0,0.0,273.0,709.0,0.0,1,2018.0,1
609,609,-0.38210130143935905,-0.4,0.0,1.0,378.0,504.0,0.0,1,-862.0,0
610,610,-0.48841107938559053,-0.5,0.0,1.0,357.0,842.0,0.0,1,1801.0,0
611,611,-0.8765590501726388,-0.9,1.0,0.0,407.0,730.0,0.0,0,1863.0,1
612,612,-0.8907676217987833,-0.9,0.0,1.0,388.0,710.0,0.0,1,1902.0,0
613,613,-0.5338499187176986,-0.5,1.0,0.0,430.0,545.0,0.0,0,2025.0,1
614,614,-0.8192154229819772,-0.8,1.0,0.0,316.0,624.0,0.0,0,2060.0,1
615,615,0.43451003654437603,0.4,1.0,1.0,403.0,767.0,0.0,0,1830.0,0
616,616,0.5301061870071401,0.5,0.0,0.0,482.0,831.0,0.0,1,1687.0,1
617,617,-0.24542793959092135,-0.2,1.0,0.0,454.0,938.0,0.0,0,1608.0,1
618,618,0.011029441034100307,0.0,0.0,0.0,268.0,919.0,0.0,1,1813.0,1
619,619,-0.10371894510375246,-0.1,1.0,0.0,460.0,971.0,0.0,0,1569.0,1
620,620,-0.88539063954967,-0.9,0.0,1.0,409.0,942.0,0.0,1,1649.0,0
621,621,-0.4900929321702067,-0.5,1.0,0.0,336.0,899.0,0.0,0,1765.0,1
622,622,0.17749716011410055,0.2,1.0,1.0,453.0,658.0,0.0,0,1889.0,0
623,623,0.17056156562950242,0.2,1.0,1.0,467.0,679.0,0.0,0,1854.0,0
624,624,0.2947959585278418,0.3,1.0,1.0,336.0,975.0,0.0,0,1689.0,0
625,625,-0.17352151474406885,-0.2,1.0,0.0,467.0,711.0,0.0,0,1822.0,1
626,626,0.2030441551379002,0.2,1.0,1.0,311.0,830.0,0.0,0,1859.0,0
627,627,-0.761136189217918,-0.8,0.0,1.0,282.0,573.0,0.0,1,2145.0,0
628,628,-0.43649060770623255,-0.4,1.0,0.0,473.0,537.0,0.0,0,1990.0,1
629,629,0.02961484306801032,0.0,1.0,1.0,345.0,900.0,0.0,0,1755.0,0
630,630,0.5350593800904603,0.5,1.0,1.0,492.0,855.0,0.0,0,1653.0,0
631,631,-0.6518761573445624,-0.7,1.0,0.0,419.0,625.0,0.0,0,1956.0,1
632,632,0.8337606858178904,0.8,0.0,0.0,438.0,568.0,0.0,1,1994.0,1
633,633,-0.82463862028149,-0.8,1.0,0.0,382.0,642.0,0.0,0,1976.0,1
634,634,0.4684794780106446,0.5,1.0,1.0,312.0,764.0,0.0,0,1924.0,0
635,635,0.16701242885063639,0.2,1.0,1.0,376.0,810.0,0.0,0,1814.0,0
636,636,-0.42670417083959655,-0.4,1.0,0.0,376.0,575.0,0.0,0,2049.0,1
637,637,0.37798251866419263,0.4,1.0,1.0,320.0,746.0,0.0,0,1934.0,0
638,638,0.14154552139143906,0.1,0.0,0.0,387.0,962.0,0.0,1,1651.0,1
639,639,-0.6673376073220973,-0.7,0.0,1.0,470.0,610.0,0.0,1,1920.0,0
640,640,0.09875179088703212,0.1,0.0,0.0,483.0,984.0,0.0,1,1533.0,1
641,641,-0.5791053540297058,-0.6,0.0,1.0,289.0,994.0,1.0,0,-1273.0,1
642,642,-0.6668735358916635,-0.7,1.0,0.0,417.0,761.0,0.0,0,1822.0,1
643,643,-0.16658833714362764,-0.2,0.0,1.0,289.0,504.0,0.0,1,2207.0,0
644,644,0.6953040106472322,0.7,0.0,0.0,432.0,718.0,0.0,1,1850.0,1
645,645,0.6725018103535646,0.7,0.0,0.0,359.0,699.0,0.0,1,1942.0,1
646,646,0.7386134722198604,0.7,1.0,1.0,323.0,918.0,0.0,0,1759.0,0
647,647,0.7259727796553529,0.7,0.0,0.0,310.0,583.0,0.0,1,2107.0,1
648,648,0.33549931663531296,0.3,0.0,0.0,399.0,680.0,0.0,1,1921.0,1
649,649,0.5290704195428818,0.5,0.0,0.0,459.0,988.0,0.0,1,1553.0,1
650,650,-0.07823318292058401,-0.1,0.0,1.0,462.0,902.0,0.0,1,1636.0,0
651,651,0.8208474943586955,0.8,0.0,0.0,353.0,858.0,0.0,1,1789.0,1
652,652,-0.550096472353298,-0.6,0.0,1.0,441.0,954.0,1.0,0,-1325.0,1
653,653,-0.6041874411349447,-0.6,1.0,0.0,436.0,536.0,0.0,0,-882.0,1
654,654,-0.344672337503939,-0.3,1.0,0.0,366.0,523.0,0.0,0,2111.0,1
655,655,0.09762324876431416,0.1,1.0,1.0,361.0,667.0,0.0,0,1972.0,0
656,656,-0.7444496687491329,-0.7,1.0,0.0,334.0,655.0,0.0,0,2011.0,1
657,657,0.30058962296384373,0.3,1.0,1.0,382.0,672.0,0.0,0,1946.0,0
658,658,-0.17044699670479557,-0.2,1.0,0.0,369.0,575.0,0.0,0,2056.0,1
659,659,0.7531186667481263,0.8,0.0,0.0,491.0,622.0,0.0,1,1887.0,1
660,660,0.1374812628122143,0.1,0.0,0.0,456.0,666.0,0.0,1,1878.0,1
661,661,0.2722789243012894,0.3,0.0,0.0,333.0,994.0,0.0,1,1673.0,1
662,662,-0.1039744365134595,-0.1,0.0,1.0,434.0,672.0,0.0,1,1894.0,0
663,663,0.5735902128200431,0.6,1.0,1.0,405.0,933.0,0.0,0,1662.0,0
664,664,0.855132405627857,0.9,0.0,0.0,392.0,793.0,0.0,1,1815.0,1
665,665,-0.11548541232994913,-0.1,0.0,1.0,463.0,733.0,0.0,1,1804.0,0
666,666,0.6960978057168122,0.7,0.0,0.0,496.0,762.0,0.0,1,1742.0,1
667,667,0.5834412426526342,0.6,1.0,1.0,454.0,728.0,0.0,0,1818.0,0
668,668,0.5994725576890195,0.6,1.0,1.0,421.0,947.0,0.0,0,1632.0,0
669,669,-0.2491786378562142,-0.2,1.0,0.0,315.0,914.0,0.0,0,1771.0,1
670,670,-0.556873852933949,-0.6,0.0,1.0,480.0,716.0,0.0,1,1804.0,0
671,671,0.057512018455617264,0.1,0.0,0.0,419.0,815.0,0.0,1,-1184.0,1
672,672,0.027992935430246946,0.0,0.0,0.0,319.0,912.0,0.0,1,1769.0,1
673,673,0.16261041316384828,0.2,0.0,0.0,397.0,610.0,0.0,1,1993.0,1
674,674,0.8856949007492151,0.9,1.0,1.0,386.0,680.0,0.0,0,1934.0,0
675,675,-0.2153855830159721,-0.2,1.0,0.0,493.0,929.0,0.0,0,1578.0,1
676,676,-0.2436388947285033,-0.2,1.0,0.0,491.0,626.0,0.0,0,1883.0,1
677,677,0.7957559485480762,0.8,0.0,0.0,301.0,522.0,0.0,1,2177.0,1
678,678,0.3680720709578612,0.4,1.0,1.0,497.0,649.0,0.0,0,1854.0,0
679,679,0.7405000761253672,0.7,1.0,1.0,397.0,748.0,0.0,0,1855.0,0
680,680,0.5585127285571639,0.6,1.0,1.0,487.0,984.0,0.0,0,1529.0,0
681,681,-0.36318485860492034,-0.4,0.0,1.0,450.0,945.0,0.0,1,1605.0,0
682,682,-0.8656802581630754,-0.9,0.0,1.0,462.0,902.0,0.0,1,1636.0,0
683,683,0.2008385666300495,0.2,0.0,0.0,441.0,674.0,0.0,1,1885.0,1
684,684,-0.8203784150835624,-0.8,0.0,1.0,381.0,949.0,0.0,1,1670.0,0
685,685,-0.7425686840251038,-0.7,0.0,1.0,356.0,702.0,0.0,1,1942.0,0
686,686,-0.7597603716515335,-0.8,0.0,1.0,434.0,877.0,0.0,1,1689.0,0
687,687,-0.662067426638936,-0.7,0.0,1.0,399.0,864.0,0.0,1,1737.0,0
688,688,-0.6891030127146915,-0.7,1.0,0.0,334.0,569.0,0.0,0,2097.0,1
689,689,-0.6934595982450563,-0.7,1.0,0.0,446.0,634.0,0.0,0,1920.0,1
690,690,-0.6970953266291222,-0.7,0.0,1.0,288.0,928.0,0.0,1,1784.0,0
691,691,-0.02367373877896084,-0.0,1.0,0.0,477.0,926.0,0.0,0,1597.0,1
692,692,-0.05676973784484862,-0.1,1.0,0.0,290.0,742.0,0.0,0,1968.0,1
693,693,0.8458504661278122,0.8,1.0,1.0,301.0,963.0,0.0,0,1736.0,0
694,694,0.01808783155869953,0.0,1.0,1.0,261.0,512.0,0.0,0,2227.0,0
695,695,0.14408432063258847,0.1,0.0,0.0,263.0,895.0,0.0,1,1842.0,1
696,696,-0.6719215741065703,-0.7,1.0,0.0,272.0,863.0,0.0,0,1865.0,1
697,697,-0.4737160790523937,-0.5,0.0,1.0,258.0,684.0,0.0,1,2058.0,0
698,698,-0.620938330897848,-0.6,1.0,0.0,377.0,745.0,0.0,0,1878.0,1
699,699,-0.724522587540394,-0.7,1.0,0.0,489.0,534.0,0.0,0,1977.0,1
700,700,-0.5163145864948588,-0.5,0.0,1.0,343.0,763.0,0.0,1,1894.0,0
701,701,0.41942414814282547,0.4,1.0,1.0,412.0,982.0,1.0,1,-1374.0,1
702,702,0.616377036028526,0.6,1.0,1.0,368.0,749.0,0.0,0,1883.0,0
703,703,-0.05027544648361015,-0.1,1.0,0.0,388.0,840.0,0.0,0,1772.0,1
704,704,0.4069024569089047,0.4,0.0,0.0,452.0,724.0,0.0,1,1824.0,1
705,705,0.5631616623356525,0.6,1.0,1.0,321.0,711.0,0.0,0,1968.0,0
706,706,0.28575036838571355,0.3,1.0,1.0,366.0,576.0,0.0,0,2058.0,0
707,707,-0.4079041262465954,-0.4,1.0,0.0,338.0,929.0,0.0,0,1733.0,1
708,708,0.0083858503164288,0.0,0.0,0.0,490.0,804.0,0.0,1,1706.0,1
709,709,-0.6712333840362945,-0.7,1.0,0.0,370.0,676.0,0.0,0,1954.0,1
710,710,0.06513203638925069,0.1,0.0,0.0,342.0,645.0,0.0,1,2013.0,1
711,711,0.5903429514213484,0.6,0.0,0.0,344.0,756.0,0.0,1,1900.0,1
712,712,-0.36360144935904126,-0.4,0.0,1.0,382.0,713.0,0.0,1,1905.0,0
713,713,-0.5424118799921516,-0.5,1.0,0.0,382.0,739.0,0.0,0,1879.0,1
714,714,0.10452690672886866,0.1,0.0,0.0,317.0,870.0,0.0,1,1813.0,1
715,715,0.5108606196294913,0.5,1.0,1.0,397.0,545.0,1.0,1,-922.0,1
716,716,0.30134410696917746,0.3,0.0,0.0,416.0,506.0,0.0,1,2078.0,1
717,717,-0.47817666522332536,-0.5,1.0,0.0,492.0,549.0,0.0,0,1959.0,1
718,718,0.3422398027758441,0.3,1.0,1.0,321.0,503.0,0.0,0,2176.0,0
719,719,0.013485187591611103,0.0,0.0,0.0,286.0,967.0,0.0,1,1747.0,1
720,720,-0.46133077363363545,-0.5,0.0,1.0,264.0,972.0,0.0,1,1764.0,0
721,721,-0.8429860064770299,-0.8,1.0,0.0,495.0,540.0,0.0,0,1965.0,1
722,722,0.6730699620069994,0.7,1.0,1.0,276.0,569.0,0.0,0,2155.0,0
723,723,-0.7350267658671363,-0.7,1.0,0.0,325.0,724.0,0.0,0,1951.0,1
724,724,0.44431228052035576,0.4,1.0,1.0,412.0,816.0,0.0,0,1772.0,0
725,725,0.2894899960793026,0.3,1.0,1.0,308.0,827.0,0.0,0,1865.0,0
726,726,0.2920866696985679,0.3,0.0,0.0,394.0,898.0,0.0,1,1708.0,1
727,727,0.6271531915848719,0.6,0.0,0.0,353.0,547.0,0.0,1,2100.0,1
728,728,0.2467861197045692,0.2,1.0,1.0,276.0,717.0,0.0,0,2007.0,0
729,729,0.4582744372019648,0.5,1.0,1.0,254.0,627.0,0.0,0,2119.0,0
730,730,0.4323655927043212,0.4,0.0,0.0,394.0,889.0,0.0,1,1717.0,1
731,731,-0.4308268699460203,-0.4,1.0,0.0,398.0,905.0,0.0,0,1697.0,1
732,732,-0.4459519755019467,-0.4,1.0,0.0,315.0,569.0,0.0,0,2116.0,1
733,733,0.7043256674512711,0.7,1.0,1.0,343.0,516.0,0.0,0,2141.0,0
734,734,0.6071040518072027,0.6,0.0,0.0,429.0,908.0,0.0,1,1663.0,1
735,735,-0.43827040458630917,-0.4,1.0,0.0,290.0,577.0,0.0,0,2133.0,1
736,736,0.07792177260666133,0.1,0.0,0.0,289.0,925.0,0.0,1,1786.0,1
737,737,0.7837723086672582,0.8,0.0,0.0,369.0,731.0,0.0,1,1900.0,1
738,738,-0.23780732543738659,-0.2,0.0,1.0,356.0,629.0,0.0,1,2015.0,0
739,739,-0.05993769936123694,-0.1,0.0,1.0,493.0,643.0,0.0,1,1864.0,0
740,740,0.7972180167465895,0.8,1.0,1.0,475.0,558.0,0.0,0,1967.0,0
741,741,-0.5852380837411287,-0.6,0.0,1.0,450.0,538.0,0.0,1,2012.0,0
742,742,-0.37402033424968373,-0.4,1.0,0.0,281.0,885.0,0.0,0,-1026.0,1
743,743,0.48816435868305275,0.5,0.0,0.0,357.0,530.0,0.0,1,-797.0,1
744,744,0.4420917325884056,0.4,1.0,1.0,444.0,882.0,0.0,0,1674.0,0
745,745,-0.5581992916536272,-0.6,1.0,0.0,289.0,617.0,0.0,0,2094.0,1
746,746,-0.8330007197986732,-0.8,0.0,1.0,324.0,906.0,0.0,1,1770.0,0
747,747,-0.1711753058041593,-0.2,1.0,0.0,430.0,579.0,0.0,0,1991.0,1
748,748,0.7347244705222852,0.7,1.0,1.0,315.0,903.0,0.0,0,1782.0,0
749,749,0.7618382870086741,0.8,1.0,1.0,358.0,554.0,0.0,0,2088.0,0
750,750,0.0021837481239970202,0.0,0.0,0.0,331.0,765.0,0.0,1,1904.0,1
751,751,-0.8705958456373196,-0.9,0.0,1.0,323.0,987.0,0.0,1,1690.0,0
752,752,-0.6079637044968089,-0.6,1.0,0.0,456.0,874.0,0.0,0,1670.0,1
753,753,0.48619053681675883,0.5,0.0,0.0,400.0,970.0,0.0,1,1630.0,1
754,754,-0.7836966745743427,-0.8,0.0,1.0,380.0,899.0,0.0,1,1721.0,0
755,755,-0.7216352026818701,-0.7,1.0,0.0,359.0,564.0,0.0,0,2077.0,1
756,756,-0.8445188101142421,-0.8,0.0,1.0,324.0,882.0,0.0,1,1794.0,0
757,757,0.8899336939943184,0.9,0.0,0.0,418.0,786.0,1.0,0,-984.0,0
758,758,-0.7293121959854532,-0.7,1.0,0.0,280.0,670.0,0.0,0,2050.0,1
759,759,-0.893129953301964,-0.9,1.0,0.0,430.0,972.0,0.0,0,1598.0,1
760,760,0.5630232308403306,0.6,0.0,0.0,277.0,771.0,0.0,1,-848.0,1
761,761,0.460752302072032,0.5,0.0,0.0,314.0,903.0,0.0,1,1783.0,1
762,762,0.6191557258316479,0.6,0.0,0.0,446.0,642.0,0.0,1,1912.0,1
763,763,0.8381749352367426,0.8,0.0,0.0,471.0,837.0,0.0,1,1692.0,1
764,764,-0.21730629759275544,-0.2,1.0,0.0,353.0,622.0,0.0,0,2025.0,1
765,765,0.5517123476329494,0.6,1.0,1.0,269.0,840.0,1.0,1,-1069.0,1
766,766,0.24766445384838665,0.2,0.0,0.0,326.0,578.0,0.0,1,2096.0,1
767,767,0.6954377977359406,0.7,0.0,0.0,322.0,907.0,0.0,1,1771.0,1
768,768,0.49362436272798427,0.5,0.0,0.0,497.0,821.0,0.0,1,1682.0,1
769,769,-0.11291798919612972,-0.1,0.0,1.0,306.0,525.0,0.0,1,2169.0,0
770,770,0.20311237135469906,0.2,0.0,0.0,468.0,875.0,0.0,1,1657.0,1
771,771,0.2798116231089035,0.3,0.0,0.0,461.0,648.0,0.0,1,1891.0,1
772,772,-0.7884180648562676,-0.8,1.0,0.0,465.0,524.0,0.0,0,2011.0,1
773,773,0.6102245323782037,0.6,0.0,0.0,340.0,993.0,0.0,1,1667.0,1
774,774,-0.027418878978072936,-0.0,0.0,1.0,405.0,890.0,0.0,1,1705.0,0
775,775,0.7866575026954606,0.8,1.0,1.0,359.0,851.0,0.0,0,1790.0,0
776,776,0.6798955168077258,0.7,0.0,0.0,445.0,954.0,0.0,1,1601.0,1
777,777,-0.41415522844632424,-0.4,1.0,0.0,302.0,940.0,0.0,0,1758.0,1
778,778,-0.33232471382130957,-0.3,0.0,1.0,373.0,860.0,0.0,1,1767.0,0
779,779,-0.5693494726352444,-0.6,0.0,1.0,337.0,859.0,0.0,1,1804.0,0
780,780,-0.6731488014572934,-0.7,0.0,1.0,291.0,739.0,0.0,1,1970.0,0
781,781,0.2387005426193055,0.2,1.0,1.0,455.0,628.0,0.0,0,1917.0,0
782,782,0.7838666583788684,0.8,0.0,0.0,475.0,741.0,0.0,1,1784.0,1
783,783,-0.08446661725136007,-0.1,1.0,0.0,279.0,923.0,0.0,0,1798.0,1
784,784,-0.6221367429654083,-0.6,0.0,1.0,378.0,934.0,0.0,1,1688.0,0
785,785,0.6086241427565225,0.6,0.0,0.0,329.0,934.0,0.0,1,1737.0,1
786,786,-0.8811105831187205,-0.9,0.0,1.0,444.0,814.0,0.0,1,1742.0,0
787,787,-0.2680247682751138,-0.3,0.0,1.0,361.0,667.0,0.0,1,1972.0,0
788,788,0.20383005046151348,0.2,1.0,1.0,392.0,944.0,0.0,0,1664.0,0
789,789,-0.715528196921802,-0.7,1.0,0.0,343.0,929.0,0.0,0,1728.0,1
790,790,0.7248187815908728,0.7,1.0,1.0,417.0,750.0,0.0,0,-1137.0,0
791,791,0.5686989918575426,0.6,0.0,0.0,396.0,506.0,0.0,1,2098.0,1
792,792,0.061579900732098625,0.1,0.0,0.0,315.0,523.0,0.0,1,2162.0,1
793,793,-0.6152898744988019,-0.6,1.0,0.0,414.0,500.0,1.0,1,-764.0,0
794,794,0.7937537173064174,0.8,0.0,0.0,298.0,885.0,0.0,1,-453.0,1
795,795,0.5753498434283287,0.6,1.0,1.0,427.0,534.0,0.0,0,2039.0,0
796,796,-0.48591758331795726,-0.5,1.0,0.0,274.0,886.0,0.0,0,1840.0,1
797,797,-0.5448785119035329,-0.5,0.0,1.0,284.0,930.0,0.0,1,1786.0,0
798,798,-0.44513973427527354,-0.4,0.0,1.0,478.0,776.0,0.0,1,1746.0,0
799,799,-0.8434082786497237,-0.8,1.0,0.0,342.0,830.0,0.0,0,1828.0,1
800,800,-0.3270865259294887,-0.3,1.0,0.0,354.0,969.0,0.0,0,-1303.0,1
801,801,0.4816836475195013,0.5,0.0,0.0,399.0,630.0,0.0,1,1971.0,1
802,802,-0.3815375555008417,-0.4,1.0,0.0,393.0,508.0,0.0,0,2099.0,1
803,803,-0.3039653167986175,-0.3,0.0,1.0,406.0,743.0,0.0,1,1851.0,0
804,804,0.49010134635802716,0.5,1.0,1.0,448.0,530.0,0.0,0,2022.0,0
805,805,0.5612607019696295,0.6,1.0,1.0,422.0,835.0,0.0,0,1743.0,0
806,806,-0.15866253955394194,-0.2,1.0,0.0,310.0,671.0,0.0,0,2019.0,1
807,807,0.48011866622439003,0.5,0.0,0.0,447.0,947.0,0.0,1,1606.0,1
808,808,0.4588910345818208,0.5,0.0,0.0,309.0,721.0,0.0,1,-980.0,1
809,809,0.2691627284525534,0.3,1.0,1.0,486.0,956.0,0.0,0,1558.0,0
810,810,-0.8987763900534513,-0.9,1.0,0.0,323.0,818.0,0.0,0,1859.0,1
811,811,0.5558460391143037,0.6,1.0,1.0,496.0,538.0,0.0,0,-1004.0,0
812,812,-0.7096945321923862,-0.7,1.0,0.0,288.0,767.0,0.0,0,1945.0,1
813,813,-0.021234235398328027,-0.0,0.0,1.0,456.0,580.0,0.0,1,1964.0,0
814,814,0.0008946394138277247,0.0,1.0,1.0,495.0,795.0,0.0,0,1710.0,0
815,815,0.6652021441453532,0.7,1.0,1.0,309.0,691.0,0.0,0,2000.0,0
816,816,0.710688815255425,0.7,1.0,1.0,452.0,755.0,0.0,0,1793.0,0
817,817,0.582966060906556,0.6,1.0,1.0,492.0,651.0,0.0,0,1857.0,0
818,818,-0.5327280223497621,-0.5,1.0,0.0,441.0,801.0,0.0,0,1758.0,1
819,819,-0.5628935550349485,-0.6,0.0,1.0,304.0,976.0,0.0,1,1720.0,0
820,820,0.3009983743989014,0.3,1.0,1.0,470.0,587.0,0.0,0,1943.0,0
821,821,-0.0153397944580409,-0.0,0.0,1.0,363.0,787.0,0.0,1,1850.0,0
822,822,0.3213269320558235,0.3,0.0,0.0,419.0,644.0,0.0,1,1937.0,1
823,823,-0.42655084460472364,-0.4,0.0,1.0,266.0,759.0,0.0,1,1975.0,0
824,824,-0.5648856518936199,-0.6,0.0,1.0,358.0,802.0,0.0,1,1840.0,0
825,825,-0.2580100271144885,-0.3,1.0,0.0,410.0,988.0,0.0,0,1602.0,1
826,826,-0.2329107724607562,-0.2,1.0,0.0,404.0,818.0,0.0,0,1778.0,1
827,827,-0.718486729149194,-0.7,0.0,1.0,371.0,913.0,0.0,1,1716.0,0
828,828,-0.6040855861776524,-0.6,1.0,0.0,329.0,909.0,0.0,0,1762.0,1
829,829,0.33603754775720585,0.3,0.0,0.0,269.0,570.0,1.0,0,-749.0,0
830,830,0.8660139092024343,0.9,1.0,1.0,284.0,814.0,0.0,0,1902.0,0
831,831,-0.7250596149724606,-0.7,1.0,0.0,331.0,836.0,0.0,0,1833.0,1
832,832,0.856888323794314,0.9,1.0,1.0,278.0,709.0,0.0,0,-907.0,0
833,833,-0.8375134223870938,-0.8,1.0,0.0,258.0,791.0,0.0,0,1951.0,1
834,834,0.5969135558140531,0.6,1.0,1.0,280.0,770.0,0.0,0,1950.0,0
835,835,-0.10214340049590698,-0.1,1.0,0.0,289.0,761.0,0.0,0,1950.0,1
836,836,-0.1988181866410358,-0.2,1.0,0.0,370.0,539.0,0.0,0,2091.0,1
837,837,0.5184522057787256,0.5,0.0,0.0,454.0,711.0,0.0,1,-1025.0,1
838,838,-0.0431680259027718,-0.0,1.0,0.0,304.0,678.0,1.0,1,-702.0,0
839,839,0.536753457331289,0.5,1.0,1.0,484.0,805.0,0.0,0,1711.0,0
840,840,0.4052414720374097,0.4,0.0,0.0,393.0,750.0,0.0,1,1857.0,1
841,841,0.562639636506674,0.6,1.0,1.0,300.0,924.0,0.0,0,1776.0,0
842,842,0.44771070415138114,0.4,0.0,0.0,313.0,697.0,0.0,1,1990.0,1
843,843,0.8312369278350632,0.8,1.0,1.0,306.0,802.0,0.0,0,1892.0,0
844,844,-0.7793528110123163,-0.8,0.0,1.0,413.0,710.0,0.0,1,1877.0,0
845,845,-0.8985383326894708,-0.9,0.0,1.0,374.0,878.0,0.0,1,1748.0,0
846,846,-0.48422593355780724,-0.5,1.0,0.0,430.0,966.0,0.0,0,1604.0,1
847,847,-0.486194176157926,-0.5,1.0,0.0,318.0,935.0,0.0,0,1747.0,1
848,848,0.27186824173208823,0.3,0.0,0.0,499.0,631.0,0.0,1,1870.0,1
849,849,-0.048183802958071564,-0.0,0.0,1.0,454.0,975.0,0.0,1,1571.0,0
850,850,0.5738704370794111,0.6,0.0,0.0,381.0,658.0,0.0,1,1961.0,1
851,851,0.1563768369820181,0.2,1.0,1.0,303.0,567.0,1.0,1,-840.0,1
852,852,0.3262030766201015,0.3,0.0,0.0,401.0,734.0,0.0,1,1865.0,1
853,853,-0.5895076954269569,-0.6,0.0,1.0,446.0,736.0,1.0,0,-1142.0,1
854,854,0.814014800327353,0.8,0.0,0.0,346.0,749.0,1.0,0,-1095.0,0
855,855,-0.045015324276402424,-0.0,0.0,1.0,307.0,964.0,1.0,0,-1271.0,1
856,856,-0.03139546857959519,-0.0,0.0,1.0,292.0,823.0,0.0,1,1885.0,0
857,857,-0.12264674883183602,-0.1,1.0,0.0,276.0,650.0,0.0,0,2074.0,1
858,858,0.7783927094565045,0.8,1.0,1.0,300.0,595.0,0.0,0,2105.0,0
859,859,0.7748531518775154,0.8,1.0,1.0,478.0,758.0,0.0,0,1764.0,0
860,860,0.6538324854804377,0.7,1.0,1.0,333.0,917.0,0.0,0,1750.0,0
861,861,-0.5328664533572572,-0.5,1.0,0.0,465.0,687.0,0.0,0,1848.0,1
862,862,0.8253034122382615,0.8,1.0,1.0,340.0,689.0,1.0,1,-1009.0,1
863,863,0.7282728408369229,0.7,1.0,1.0,435.0,853.0,0.0,0,1712.0,0
864,864,-0.7937047586105123,-0.8,1.0,0.0,482.0,756.0,0.0,0,1762.0,1
865,865,-0.23761833781730068,-0.2,0.0,1.0,400.0,864.0,0.0,1,1736.0,0
866,866,0.24047189222937415,0.2,0.0,0.0,250.0,749.0,0.0,1,2001.0,1
867,867,-0.17904195590996008,-0.2,1.0,0.0,457.0,809.0,0.0,0,1734.0,1
868,868,0.31134337360209263,0.3,0.0,0.0,326.0,729.0,0.0,1,1945.0,1
869,869,-0.3703215642211032,-0.4,1.0,0.0,259.0,701.0,0.0,0,2040.0,1
870,870,0.4357345875547468,0.4,1.0,1.0,347.0,821.0,0.0,0,1832.0,0
871,871,-0.027000583329553907,-0.0,0.0,1.0,252.0,662.0,0.0,1,2086.0,0
872,872,0.8062290733815544,0.8,0.0,0.0,332.0,996.0,0.0,1,1672.0,1
873,873,-0.6402347166836078,-0.6,0.0,1.0,364.0,558.0,1.0,0,-872.0,1
874,874,0.8113539779703843,0.8,1.0,1.0,413.0,528.0,0.0,0,2059.0,0
875,875,-0.0931678493011493,-0.1,1.0,0.0,301.0,609.0,0.0,0,2090.0,1
876,876,0.2489561629244591,0.2,0.0,0.0,431.0,729.0,0.0,1,1840.0,1
877,877,0.13333451886479153,0.1,1.0,1.0,254.0,540.0,0.0,0,2206.0,0
878,878,-0.47432182856425986,-0.5,0.0,1.0,346.0,644.0,0.0,1,2010.0,0
879,879,-0.3863423181499218,-0.4,1.0,0.0,284.0,981.0,0.0,0,1735.0,1
880,880,0.42665347240171514,0.4,1.0,1.0,401.0,576.0,0.0,0,2023.0,0
881,881,0.6493808688632489,0.6,1.0,1.0,452.0,688.0,0.0,0,1860.0,0
882,882,0.5635553558267491,0.6,0.0,0.0,419.0,594.0,0.0,1,1987.0,1
883,883,-0.7560349627407954,-0.8,0.0,1.0,411.0,761.0,1.0,0,-1022.0,1
884,884,-0.7794173011010407,-0.8,1.0,0.0,342.0,615.0,0.0,0,2043.0,1
885,885,0.42415631859879144,0.4,1.0,1.0,320.0,588.0,0.0,0,2092.0,0
886,886,-0.2552019715071092,-0.3,1.0,0.0,275.0,819.0,0.0,0,1906.0,1
887,887,0.18298859042792792,0.2,0.0,0.0,407.0,667.0,0.0,1,1926.0,1
888,888,-0.6023389855374939,-0.6,0.0,1.0,280.0,845.0,0.0,1,1875.0,0
889,889,-0.369383418989208,-0.4,0.0,1.0,444.0,707.0,0.0,1,1849.0,0
890,890,0.09463683207868878,0.1,1.0,1.0,447.0,656.0,0.0,0,1897.0,0
891,891,-0.5525564490674144,-0.6,0.0,1.0,349.0,934.0,0.0,1,1717.0,0
892,892,0.29842738639195476,0.3,1.0,1.0,390.0,891.0,0.0,0,1719.0,0
893,893,0.09791164308283151,0.1,1.0,1.0,445.0,983.0,1.0,1,-1368.0,1
894,894,-0.706703109875176,-0.7,1.0,0.0,320.0,715.0,0.0,0,1965.0,1
895,895,0.1768710582705607,0.2,1.0,1.0,403.0,526.0,0.0,0,2071.0,0
896,896,0.40947092273031116,0.4,1.0,1.0,306.0,863.0,0.0,0,1831.0,0
897,897,-0.7081412289039302,-0.7,0.0,1.0,278.0,735.0,0.0,1,1987.0,0
898,898,-0.2533293966929716,-0.3,0.0,1.0,259.0,722.0,1.0,0,-951.0,1
899,899,0.48403121892425716,0.5,0.0,0.0,435.0,827.0,0.0,1,1738.0,1
900,900,0.4830698907996315,0.5,0.0,0.0,425.0,949.0,0.0,1,1626.0,1
901,901,0.40041479472181873,0.4,1.0,1.0,433.0,919.0,0.0,0,1648.0,0
902,902,-0.7705732224580188,-0.8,0.0,1.0,313.0,829.0,0.0,1,1858.0,0
903,903,-0.09739645614895898,-0.1,1.0,0.0,328.0,693.0,0.0,0,1979.0,1
904,904,-0.277727225528949,-0.3,1.0,0.0,352.0,740.0,0.0,0,1908.0,1
905,905,-0.5197471878307133,-0.5,1.0,0.0,352.0,748.0,0.0,0,1900.0,1
906,906,-0.31198452132733023,-0.3,1.0,0.0,411.0,853.0,0.0,0,1736.0,1
907,907,0.0065316572426963315,0.0,0.0,0.0,486.0,911.0,0.0,1,1603.0,1
908,908,-0.5731604902723011,-0.6,1.0,0.0,268.0,753.0,0.0,0,1979.0,1
909,909,0.8746171691595753,0.9,1.0,1.0,470.0,529.0,0.0,0,2001.0,0
910,910,0.5288191054373218,0.5,0.0,0.0,285.0,716.0,0.0,1,1999.0,1
911,911,-0.058710754637231855,-0.1,1.0,0.0,334.0,857.0,0.0,0,1809.0,1
912,912,-0.11551678025109635,-0.1,1.0,0.0,337.0,699.0,0.0,0,1964.0,1
913,913,-0.8832481448029714,-0.9,1.0,0.0,274.0,857.0,0.0,0,1869.0,1
914,914,0.6922456628215347,0.7,0.0,0.0,400.0,815.0,0.0,1,1785.0,1
915,915,0.33077752235807034,0.3,0.0,0.0,381.0,780.0,0.0,1,-971.0,1
916,916,0.5663623870584847,0.6,1.0,1.0,307.0,828.0,0.0,0,-965.0,0
917,917,0.3126160326627002,0.3,0.0,0.0,253.0,535.0,0.0,1,2212.0,1
918,918,-0.13181507664809333,-0.1,0.0,1.0,345.0,634.0,0.0,1,2021.0,0
919,919,-0.7280919491939354,-0.7,0.0,1.0,494.0,869.0,0.0,1,1637.0,0
920,920,0.805771204771912,0.8,0.0,0.0,478.0,987.0,0.0,1,1535.0,1
921,921,0.11099377792530796,0.1,1.0,1.0,409.0,591.0,0.0,0,2000.0,0
922,922,-0.6482952790722225,-0.6,1.0,0.0,331.0,886.0,0.0,0,-1147.0,1
923,923,-0.7225420802853098,-0.7,0.0,1.0,341.0,764.0,0.0,1,1895.0,0
924,924,0.2098661458131338,0.2,1.0,1.0,383.0,732.0,0.0,0,1885.0,0
925,925,-0.3752671322479314,-0.4,1.0,0.0,453.0,562.0,0.0,0,1985.0,1
926,926,0.38630963889947145,0.4,1.0,1.0,428.0,674.0,0.0,0,1898.0,0
927,927,0.004182857125274997,0.0,1.0,1.0,428.0,515.0,0.0,0,2057.0,0
928,928,-0.36477837991010764,-0.4,0.0,1.0,290.0,972.0,0.0,1,1738.0,0
929,929,-0.491056763968093,-0.5,1.0,0.0,438.0,510.0,0.0,0,2052.0,1
930,930,0.20130198182328785,0.2,1.0,1.0,272.0,716.0,0.0,0,-818.0,0
931,931,-0.1279971243191802,-0.1,1.0,0.0,457.0,620.0,0.0,0,1923.0,1
932,932,0.4661702628539729,0.5,0.0,0.0,362.0,945.0,0.0,1,1693.0,1
933,933,0.007118077269897327,0.0,0.0,0.0,274.0,712.0,0.0,1,2014.0,1
934,934,0.8144408689533816,0.8,1.0,1.0,425.0,886.0,0.0,0,1689.0,0
935,935,0.5319323386103813,0.5,0.0,0.0,309.0,580.0,0.0,1,2111.0,1
936,936,0.4095628265471415,0.4,1.0,1.0,337.0,998.0,0.0,0,1665.0,0
937,937,-0.8547861473221691,-0.9,1.0,0.0,486.0,991.0,0.0,0,1523.0,1
938,938,-0.13025739584853213,-0.1,1.0,0.0,359.0,615.0,0.0,0,2026.0,1
939,939,0.2697904631800655,0.3,0.0,0.0,295.0,897.0,0.0,1,1808.0,1
940,940,0.7808770312101686,0.8,0.0,0.0,382.0,731.0,0.0,1,1887.0,1
941,941,-0.11932020627295725,-0.1,1.0,0.0,293.0,807.0,0.0,0,1900.0,1
942,942,0.1655300707725592,0.2,1.0,1.0,279.0,720.0,0.0,0,2001.0,0
943,943,0.33146684485342737,0.3,0.0,0.0,368.0,791.0,0.0,1,1841.0,1
944,944,0.15382118897013697,0.2,0.0,0.0,307.0,662.0,0.0,1,2031.0,1
945,945,0.5150694401226904,0.5,1.0,1.0,272.0,528.0,0.0,0,2200.0,0
946,946,0.8470266101078979,0.8,1.0,1.0,388.0,691.0,0.0,0,1921.0,0
947,947,-0.6945153971696522,-0.7,1.0,0.0,434.0,915.0,0.0,0,1651.0,1
948,948,-0.7083468442205497,-0.7,1.0,0.0,430.0,953.0,0.0,0,1617.0,1
949,949,0.834937698916174,0.8,1.0,1.0,471.0,668.0,0.0,0,-1109.0,0
950,950,-0.6237902253661394,-0.6,1.0,0.0,459.0,627.0,0.0,0,-1086.0,1
951,951,0.5959120775873198,0.6,0.0,0.0,463.0,742.0,0.0,1,1795.0,1
952,952,0.5902756365566385,0.6,1.0,1.0,403.0,962.0,0.0,0,1635.0,0
953,953,-0.3356187478309992,-0.3,0.0,1.0,494.0,508.0,0.0,1,1998.0,0
954,954,-0.3662300961212409,-0.4,1.0,0.0,414.0,566.0,0.0,0,2020.0,1
955,955,0.2883301479344952,0.3,0.0,0.0,254.0,934.0,0.0,1,1812.0,1
956,956,0.008599407778086099,0.0,1.0,1.0,290.0,601.0,0.0,0,2109.0,0
957,957,0.5422362406064717,0.5,1.0,1.0,367.0,927.0,0.0,0,1706.0,0
958,958,0.5712959967983197,0.6,0.0,0.0,283.0,992.0,0.0,1,1725.0,1
959,959,0.6474554228904951,0.6,0.0,0.0,433.0,847.0,0.0,1,-460.0,1
960,960,-0.7447951678908918,-0.7,0.0,1.0,375.0,821.0,0.0,1,1804.0,0
961,961,0.045660727497184084,0.0,1.0,1.0,290.0,920.0,0.0,0,1790.0,0
962,962,0.2799309270173823,0.3,1.0,1.0,329.0,944.0,0.0,0,1727.0,0
963,963,0.458271505971655,0.5,1.0,1.0,325.0,597.0,0.0,0,2078.0,0
964,964,0.194785973043185,0.2,1.0,1.0,440.0,921.0,0.0,0,1639.0,0
965,965,-0.3618502595741222,-0.4,1.0,0.0,265.0,822.0,0.0,0,1913.0,1
966,966,0.47169525242851285,0.5,0.0,0.0,482.0,971.0,0.0,1,1547.0,1
967,967,-0.21555106659572443,-0.2,1.0,0.0,293.0,541.0,0.0,0,2166.0,1
968,968,-0.7785404308711984,-0.8,1.0,0.0,435.0,705.0,0.0,0,-1060.0,1
969,969,0.21613022399840587,0.2,0.0,0.0,419.0,846.0,0.0,1,1735.0,1
970,970,-0.17652434801373895,-0.2,0.0,1.0,449.0,611.0,0.0,1,1940.0,0
971,971,0.61611885772798,0.6,1.0,1.0,359.0,817.0,0.0,0,1824.0,0
972,972,0.3602340010872792,0.4,0.0,0.0,304.0,782.0,0.0,1,-1066.0,1
973,973,0.3260502363443277,0.3,0.0,0.0,411.0,734.0,0.0,1,-1125.0,1
974,974,-0.1597702298820075,-0.2,1.0,0.0,340.0,538.0,0.0,0,2122.0,1
975,975,-0.40905568112341045,-0.4,1.0,0.0,290.0,601.0,0.0,0,2109.0,1
976,976,-0.16047755865283153,-0.2,1.0,0.0,491.0,749.0,0.0,0,1760.0,1
977,977,0.7695477638673355,0.8,0.0,0.0,351.0,773.0,1.0,0,-1124.0,0
978,978,0.7163666035441684,0.7,1.0,1.0,343.0,718.0,0.0,0,1939.0,0
979,979,0.24171189614883948,0.2,1.0,1.0,280.0,817.0,0.0,0,1903.0,0
980,980,0.8139567768333739,0.8,0.0,0.0,258.0,717.0,1.0,0,-875.0,0
981,981,0.28626524440066914,0.3,1.0,1.0,330.0,599.0,1.0,1,-679.0,1
982,982,-0.7512192927148051,-0.8,0.0,1.0,461.0,831.0,0.0,1,1708.0,0
983,983,-0.3509646063480605,-0.4,1.0,0.0,449.0,845.0,0.0,0,1706.0,1
984,984,0.7443484096215326,0.7,1.0,1.0,329.0,558.0,1.0,1,-867.0,1
985,985,0.32405310292723033,0.3,1.0,1.0,390.0,528.0,0.0,0,2082.0,0
986,986,0.8944745277888085,0.9,0.0,0.0,252.0,768.0,0.0,1,1980.0,1
987,987,0.8945993394152906,0.9,0.0,0.0,461.0,850.0,0.0,1,1689.0,1
988,988,0.852018975118085,0.9,0.0,0.0,292.0,518.0,0.0,1,2190.0,1
989,989,0.2936462359000097,0.3,1.0,1.0,278.0,955.0,0.0,0,1767.0,0
990,990,0.7068270307266168,0.7,0.0,0.0,405.0,823.0,0.0,1,1772.0,1
991,991,-0.4200915478489062,-0.4,0.0,1.0,392.0,814.0,0.0,1,1794.0,0
992,992,0.2178420216874538,0.2,1.0,1.0,297.0,608.0,0.0,0,2095.0,0
993,993,-0.26623641383242747,-0.3,0.0,1.0,310.0,584.0,0.0,1,2106.0,0
994,994,-0.41345527958765504,-0.4,0.0,1.0,299.0,707.0,0.0,1,1994.0,0
995,995,0.7994025740022755,0.8,1.0,1.0,288.0,783.0,0.0,0,1929.0,0
996,996,-0.8396388533283632,-0.8,0.0,1.0,252.0,608.0,0.0,1,-730.0,0
997,997,-0.8981242610233924,-0.9,1.0,0.0,499.0,936.0,1.0,1,-1415.0,0
998,998,-0.5024740536561436,-0.5,0.0,1.0,340.0,813.0,0.0,1,-1073.0,0
999,999,-0.7462619435178921,-0.7,1.0,0.0,267.0,513.0,0.0,0,2220.0,1
1000,1000,-0.15057155822751622,-0.2,0.0,1.0,253.0,870.0,0.0,1,1877.0,0
1001,1001,-0.24249150298301814,-0.2,1.0,0.0,343.0,730.0,0.0,0,1927.0,1
1002,1002,0.541441748341935,0.5,0.0,0.0,456.0,544.0,0.0,1,2000.0,1
1003,1003,-0.7550584338037728,-0.8,1.0,0.0,455.0,789.0,0.0,0,1756.0,1
1004,1004,0.8147275047787393,0.8,1.0,1.0,481.0,501.0,0.0,0,2018.0,0
1005,1005,-0.3129600904400156,-0.3,0.0,1.0,473.0,613.0,0.0,1,1914.0,0
1006,1006,0.4261005092741169,0.4,0.0,0.0,298.0,539.0,0.0,1,2163.0,1
1007,1007,-0.6850813885179923,-0.7,0.0,1.0,481.0,554.0,1.0,0,-1025.0,1
1008,1008,0.4047378529189053,0.4,0.0,0.0,374.0,702.0,0.0,1,1924.0,1
1009,1009,-0.7764658284254341,-0.8,0.0,1.0,275.0,898.0,0.0,1,1827.0,0
1010,1010,-0.1945322260947172,-0.2,1.0,0.0,387.0,680.0,0.0,0,1933.0,1
1011,1011,-0.49917369122795446,-0.5,0.0,1.0,372.0,569.0,0.0,1,2059.0,0
1012,1012,0.06802445263610402,0.1,1.0,1.0,295.0,792.0,0.0,0,1913.0,0
1013,1013,0.7860132948543842,0.8,0.0,0.0,367.0,905.0,0.0,1,1728.0,1
1014,1014,0.16577949219508448,0.2,0.0,0.0,427.0,602.0,0.0,1,1971.0,1
1015,1015,-0.19969636098422783,-0.2,1.0,0.0,312.0,612.0,0.0,0,2076.0,1
1016,1016,0.8913874259978977,0.9,0.0,0.0,487.0,587.0,0.0,1,1926.0,1
1017,1017,0.651655117388024,0.7,0.0,0.0,373.0,603.0,0.0,1,2024.0,1
1018,1018,0.25842211082672384,0.3,0.0,0.0,326.0,610.0,0.0,1,2064.0,1
1019,1019,-0.6743059902550006,-0.7,0.0,1.0,450.0,920.0,0.0,1,1630.0,0
1020,1020,-0.8419844180906262,-0.8,0.0,1.0,413.0,892.0,0.0,1,1695.0,0
1021,1021,0.21393870204498067,0.2,1.0,1.0,405.0,961.0,0.0,0,1634.0,0
1022,1022,-0.295983639588667,-0.3,1.0,0.0,260.0,876.0,0.0,0,1864.0,1
1023,1023,0.4938961595507926,0.5,1.0,1.0,263.0,979.0,0.0,0,1758.0,0
1024,1024,-0.27594139893600145,-0.3,0.0,1.0,431.0,806.0,0.0,1,1763.0,0
1025,1025,0.48436575586984565,0.5,1.0,1.0,356.0,528.0,0.0,0,2116.0,0
1026,1026,0.008922149873642038,0.0,0.0,0.0,334.0,714.0,0.0,1,1952.0,1
1027,1027,0.5066964978301055,0.5,0.0,0.0,438.0,657.0,0.0,1,1905.0,1
1028,1028,-0.25172860445328105,-0.3,1.0,0.0,335.0,773.0,0.0,0,1892.0,1
1029,1029,0.4311902303743639,0.4,0.0,0.0,314.0,758.0,0.0,1,1928.0,1
1030,1030,-0.8051059656982914,-0.8,0.0,1.0,377.0,676.0,0.0,1,1947.0,0
1031,1031,-0.2511951448415999,-0.3,1.0,0.0,278.0,702.0,0.0,0,2020.0,1
1032,1032,0.031644657710722,0.0,1.0,1.0,430.0,773.0,0.0,0,1797.0,0
1033,1033,-0.436812725619319,-0.4,1.0,0.0,282.0,766.0,0.0,0,1952.0,1
1034,1034,-0.26545676668172213,-0.3,0.0,1.0,340.0,546.0,0.0,1,2114.0,0
1035,1035,0.6010372584374027,0.6,0.0,0.0,292.0,768.0,0.0,1,1940.0,1
1036,1036,0.07970161406051035,0.1,1.0,1.0,376.0,745.0,0.0,0,1879.0,0
1037,1037,-0.05406004627348371,-0.1,0.0,1.0,351.0,889.0,0.0,1,1760.0,0
1038,1038,-0.37453886921004853,-0.4,1.0,0.0,316.0,873.0,0.0,0,1811.0,1
1039,1039,-0.21237212422617113,-0.2,0.0,1.0,252.0,923.0,0.0,1,1825.0,0
1040,1040,0.4981381425427277,0.5,1.0,1.0,366.0,903.0,0.0,0,1731.0,0
1041,1041,0.22128563213268293,0.2,1.0,1.0,267.0,924.0,0.0,0,-1101.0,0
1042,1042,0.5138066189984681,0.5,0.0,0.0,443.0,832.0,0.0,1,1725.0,1
1043,1043,-0.12372778430793918,-0.1,0.0,1.0,359.0,773.0,1.0,0,-812.0,1
1044,1044,0.7985190306698523,0.8,0.0,0.0,300.0,515.0,0.0,1,2185.0,1
1045,1045,0.8273942580871932,0.8,1.0,1.0,258.0,507.0,0.0,0,2235.0,0
1046,1046,-0.04659447809876871,-0.0,0.0,1.0,306.0,748.0,0.0,1,1946.0,0
1047,1047,-0.820871126323403,-0.8,1.0,0.0,346.0,890.0,0.0,0,1764.0,1
1048,1048,-0.4637054919046125,-0.5,1.0,0.0,430.0,621.0,0.0,0,1949.0,1
1049,1049,0.36846778746411146,0.4,1.0,1.0,372.0,555.0,0.0,0,2073.0,0
1050,1050,0.8407580794178603,0.8,1.0,1.0,419.0,546.0,0.0,0,2035.0,0
1051,1051,0.16986804267258637,0.2,1.0,1.0,254.0,531.0,0.0,0,2215.0,0
1052,1052,0.3263196574426347,0.3,0.0,0.0,253.0,896.0,0.0,1,1851.0,1
1053,1053,-0.2608191445757382,-0.3,1.0,0.0,488.0,634.0,0.0,0,1878.0,1
1054,1054,0.8736096478451191,0.9,1.0,1.0,298.0,608.0,0.0,0,2094.0,0
1055,1055,-0.7156765641862616,-0.7,1.0,0.0,328.0,679.0,0.0,0,1993.0,1
1056,1056,-0.5625606294870784,-0.6,0.0,1.0,321.0,937.0,0.0,1,1742.0,0
1057,1057,-0.02846806984393846,-0.0,1.0,0.0,378.0,666.0,0.0,0,1956.0,1
1058,1058,-0.3448789632436269,-0.3,1.0,0.0,409.0,986.0,1.0,1,-1305.0,0
1059,1059,-0.4205567513220869,-0.4,1.0,0.0,253.0,986.0,0.0,0,1761.0,1
1060,1060,0.2959052787047366,0.3,0.0,0.0,489.0,718.0,0.0,1,1793.0,1
1061,1061,0.25404746824237445,0.3,0.0,0.0,275.0,961.0,1.0,0,-1236.0,0
1062,1062,-0.521688684539603,-0.5,1.0,0.0,273.0,539.0,0.0,0,2188.0,1
1063,1063,0.521041548841959,0.5,1.0,1.0,442.0,585.0,0.0,0,1973.0,0
1064,1064,-0.0005561088146069926,-0.0,0.0,1.0,438.0,637.0,0.0,1,1925.0,0
1065,1065,-0.5069825664787224,-0.5,1.0,0.0,496.0,797.0,0.0,0,1707.0,1
1066,1066,-0.18766514656421163,-0.2,0.0,1.0,404.0,577.0,0.0,1,2019.0,0
1067,1067,0.004056159568974982,0.0,1.0,1.0,423.0,984.0,0.0,0,1593.0,0
1068,1068,0.5078700983735028,0.5,0.0,0.0,402.0,884.0,0.0,1,1714.0,1
1069,1069,0.5367065606797011,0.5,1.0,1.0,481.0,728.0,0.0,0,1791.0,0
1070,1070,0.6621042268224356,0.7,0.0,0.0,312.0,737.0,0.0,1,1951.0,1
1071,1071,0.0292364184387921,0.0,1.0,1.0,475.0,855.0,0.0,0,1670.0,0
1072,1072,0.6827696843290257,0.7,0.0,0.0,332.0,841.0,0.0,1,1827.0,1
1073,1073,0.17837396163101282,0.2,1.0,1.0,471.0,821.0,0.0,0,1708.0,0
1074,1074,0.7141713068758196,0.7,1.0,1.0,496.0,589.0,0.0,0,1915.0,0
1075,1075,0.41029255299629275,0.4,1.0,1.0,386.0,811.0,0.0,0,1803.0,0
1076,1076,0.5158043022977964,0.5,1.0,1.0,430.0,761.0,0.0,0,1809.0,0
1077,1077,0.740866748179236,0.7,1.0,1.0,384.0,573.0,1.0,1,-927.0,1
1078,1078,-0.11046444350487605,-0.1,1.0,0.0,367.0,779.0,0.0,0,1854.0,1
1079,1079,0.7607050511373398,0.8,0.0,0.0,424.0,760.0,0.0,1,1816.0,1
1080,1080,-0.5387454328875865,-0.5,1.0,0.0,489.0,946.0,0.0,0,1565.0,1
1081,1081,-0.038226470631209986,-0.0,0.0,1.0,347.0,617.0,0.0,1,2036.0,0
1082,1082,0.6240592755604618,0.6,1.0,1.0,498.0,987.0,0.0,0,1515.0,0
1083,1083,-0.4320801202075814,-0.4,0.0,1.0,325.0,508.0,0.0,1,2167.0,0
1084,1084,-0.7241101724477912,-0.7,1.0,0.0,388.0,538.0,0.0,0,2074.0,1
1085,1085,-0.614421508637864,-0.6,1.0,0.0,291.0,840.0,0.0,0,1869.0,1
1086,1086,0.26907469554633,0.3,0.0,0.0,396.0,704.0,0.0,1,1900.0,1
1087,1087,-0.42925892108357444,-0.4,0.0,1.0,318.0,974.0,0.0,1,1708.0,0
1088,1088,0.811195376077461,0.8,0.0,0.0,283.0,745.0,0.0,1,-998.0,1
1089,1089,-0.31165860743770335,-0.3,1.0,0.0,492.0,912.0,0.0,0,1596.0,1
1090,1090,-0.1868025774375559,-0.2,0.0,1.0,498.0,785.0,0.0,1,1717.0,0
1091,1091,-0.7498327011782863,-0.7,0.0,1.0,440.0,870.0,0.0,1,1690.0,0
1092,1092,0.8760506285134441,0.9,0.0,0.0,451.0,909.0,0.0,1,1640.0,1
1093,1093,-0.15018784117692896,-0.2,0.0,1.0,441.0,565.0,0.0,1,1994.0,0
1094,1094,0.8818467255279739,0.9,1.0,1.0,342.0,676.0,0.0,0,1982.0,0
1095,1095,-0.13295076516349302,-0.1,1.0,0.0,317.0,961.0,0.0,0,1722.0,1
1096,1096,-0.39175770255654885,-0.4,0.0,1.0,377.0,847.0,0.0,1,1776.0,0
1097,1097,-0.8909286074684233,-0.9,0.0,1.0,328.0,903.0,0.0,1,1769.0,0
1098,1098,0.7507393108033437,0.8,1.0,1.0,421.0,966.0,0.0,0,1613.0,0
1099,1099,-0.3944766217166209,-0.4,0.0,1.0,473.0,550.0,0.0,1,1977.0,0
1100,1100,0.7550560490080228,0.8,1.0,1.0,496.0,544.0,0.0,0,1960.0,0
1101,1101,-0.8531072601141638,-0.9,1.0,0.0,288.0,541.0,0.0,0,2171.0,1
1102,1102,-0.38297960236929285,-0.4,0.0,1.0,478.0,734.0,0.0,1,1788.0,0
1103,1103,-0.4784835793940801,-0.5,1.0,0.0,384.0,583.0,0.0,0,2033.0,1
1104,1104,-0.20058474530385217,-0.2,1.0,0.0,442.0,858.0,0.0,0,1700.0,1
1105,1105,-0.2363658756068565,-0.2,0.0,1.0,363.0,696.0,0.0,1,1941.0,0
1106,1106,0.7462711636145657,0.7,0.0,0.0,488.0,917.0,0.0,1,1595.0,1
1107,1107,-0.3940420169279232,-0.4,1.0,0.0,498.0,840.0,0.0,0,1662.0,1
1108,1108,-0.26885835551084647,-0.3,0.0,1.0,292.0,723.0,0.0,1,-985.0,0
1109,1109,0.7450244280874726,0.7,0.0,0.0,463.0,928.0,0.0,1,1609.0,1
1110,1110,-0.7837070654981395,-0.8,1.0,0.0,483.0,595.0,0.0,0,1922.0,1
1111,1111,-0.09967036173307753,-0.1,0.0,1.0,261.0,623.0,0.0,1,2116.0,0
1112,1112,0.5729324770116163,0.6,1.0,1.0,272.0,754.0,0.0,0,1974.0,0
1113,1113,0.37445773307042407,0.4,0.0,0.0,499.0,924.0,0.0,1,1577.0,1
1114,1114,0.35712208994404404,0.4,0.0,0.0,253.0,815.0,0.0,1,1932.0,1
1115,1115,0.18735623255965927,0.2,0.0,0.0,445.0,539.0,0.0,1,2016.0,1
1116,1116,-0.33404349674514233,-0.3,0.0,1.0,481.0,848.0,0.0,1,1671.0,0
1117,1117,0.7876899527345623,0.8,0.0,0.0,307.0,823.0,0.0,1,1870.0,1
1118,1118,-0.0760207671629124,-0.1,0.0,1.0,260.0,516.0,0.0,1,2224.0,0
1119,1119,0.3926963642868396,0.4,1.0,1.0,484.0,507.0,1.0,1,-991.0,1
1120,1120,0.11035689631266721,0.1,1.0,1.0,376.0,983.0,0.0,0,1641.0,0
1121,1121,-0.004608030339127045,-0.0,0.0,1.0,295.0,541.0,0.0,1,2164.0,0
1122,1122,-0.12088780791715914,-0.1,1.0,0.0,492.0,965.0,0.0,0,1543.0,1
1123,1123,0.10927404672093777,0.1,0.0,0.0,433.0,838.0,0.0,1,1729.0,1
1124,1124,-0.5699649269562481,-0.6,1.0,0.0,462.0,794.0,0.0,0,1744.0,1
1125,1125,-0.8149314734354209,-0.8,0.0,1.0,302.0,639.0,0.0,1,2059.0,0
1126,1126,0.31241546014759536,0.3,1.0,1.0,463.0,598.0,0.0,0,1939.0,0
1127,1127,-0.5898674555184993,-0.6,0.0,1.0,260.0,720.0,0.0,1,2020.0,0
1128,1128,-0.6531267391323978,-0.7,1.0,0.0,294.0,605.0,0.0,0,2101.0,1
1129,1129,-0.120354325980917,-0.1,0.0,1.0,469.0,997.0,0.0,1,1534.0,0
1130,1130,-0.4974616454636841,-0.5,0.0,1.0,272.0,823.0,0.0,1,1905.0,0
1131,1131,0.8199826485465372,0.8,0.0,0.0,354.0,666.0,0.0,1,-960.0,1
1132,1132,-0.4989196980343389,-0.5,1.0,0.0,271.0,575.0,0.0,0,2154.0,1
1133,1133,-0.5696669236072834,-0.6,1.0,0.0,428.0,507.0,0.0,0,2065.0,1
1134,1134,0.05973970662021022,0.1,0.0,0.0,439.0,563.0,0.0,1,1998.0,1
1135,1135,-0.7040956277983652,-0.7,1.0,0.0,456.0,625.0,0.0,0,1919.0,1
1136,1136,0.804341953895623,0.8,0.0,0.0,459.0,707.0,1.0,0,-1136.0,0
1137,1137,-0.1269437178394508,-0.1,0.0,1.0,418.0,835.0,0.0,1,1747.0,0
1138,1138,-0.10092245225100271,-0.1,0.0,1.0,456.0,695.0,0.0,1,1849.0,0
1139,1139,0.5797654136772609,0.6,0.0,0.0,394.0,588.0,0.0,1,2018.0,1
1140,1140,0.2083681872978459,0.2,0.0,0.0,388.0,972.0,0.0,1,1640.0,1
1141,1141,0.19449331366395295,0.2,1.0,1.0,433.0,588.0,0.0,0,1979.0,0
1142,1142,0.5595597276596623,0.6,1.0,1.0,299.0,756.0,0.0,0,-915.0,0
1143,1143,-0.18515678837982263,-0.2,1.0,0.0,493.0,861.0,0.0,0,1646.0,1
1144,1144,-0.36354739525243873,-0.4,1.0,0.0,265.0,772.0,0.0,0,1963.0,1
1145,1145,-0.037369631821366656,-0.0,1.0,0.0,331.0,671.0,0.0,0,1998.0,1
1146,1146,0.5554123416892173,0.6,1.0,1.0,413.0,852.0,0.0,0,1735.0,0
1147,1147,0.05249894666574795,0.1,1.0,1.0,298.0,895.0,0.0,0,1807.0,0
1148,1148,-0.729394874828935,-0.7,1.0,0.0,411.0,991.0,0.0,0,1598.0,1
1149,1149,-0.6892571469157432,-0.7,0.0,1.0,487.0,635.0,0.0,1,1878.0,0
1150,1150,-0.5017829046703528,-0.5,0.0,1.0,481.0,787.0,0.0,1,1732.0,0
1151,1151,0.7900715392546575,0.8,0.0,0.0,368.0,804.0,0.0,1,1828.0,1
1152,1152,0.37205914653571026,0.4,0.0,0.0,358.0,979.0,0.0,1,-1187.0,1
1153,1153,-0.1971080059032716,-0.2,1.0,0.0,387.0,635.0,0.0,0,1978.0,1
1154,1154,-0.5731472974683782,-0.6,1.0,0.0,377.0,801.0,0.0,0,1822.0,1
1155,1155,-0.7540533337335096,-0.8,1.0,0.0,473.0,534.0,0.0,0,-927.0,1
1156,1156,-0.8146311791947279,-0.8,0.0,1.0,462.0,797.0,0.0,1,1741.0,0
1157,1157,-0.42479974277166593,-0.4,1.0,0.0,360.0,879.0,0.0,0,1761.0,1
1158,1158,-0.3204568296779722,-0.3,1.0,0.0,473.0,907.0,0.0,0,1620.0,1
1159,1159,0.6255247185269565,0.6,1.0,1.0,362.0,881.0,0.0,0,1757.0,0
1160,1160,-0.3797861761725132,-0.4,0.0,1.0,469.0,848.0,0.0,1,1683.0,0
1161,1161,-0.8709208254865195,-0.9,1.0,0.0,436.0,594.0,0.0,0,1970.0,1
1162,1162,-0.8580117600790083,-0.9,0.0,1.0,379.0,931.0,0.0,1,1690.0,0
1163,1163,-0.24366406960192555,-0.2,1.0,0.0,300.0,824.0,0.0,0,1876.0,1
1164,1164,-0.8299407956035857,-0.8,1.0,0.0,334.0,762.0,0.0,0,-936.0,1
1165,1165,-0.7304362491065068,-0.7,1.0,0.0,342.0,742.0,0.0,0,1916.0,1
1166,1166,-0.6929714502611816,-0.7,1.0,0.0,415.0,779.0,1.0,1,-764.0,0
1167,1167,0.20056761179363358,0.2,1.0,1.0,297.0,971.0,0.0,0,1732.0,0
1168,1168,0.8631493582042385,0.9,0.0,0.0,266.0,837.0,0.0,1,1897.0,1
1169,1169,0.3316049965655926,0.3,1.0,1.0,406.0,633.0,0.0,0,1961.0,0
1170,1170,0.1897952325325557,0.2,0.0,0.0,375.0,565.0,0.0,1,2060.0,1
1171,1171,0.5728304577851849,0.6,0.0,0.0,292.0,941.0,0.0,1,1767.0,1
1172,1172,-0.3641813795138211,-0.4,0.0,1.0,298.0,726.0,0.0,1,-924.0,0
1173,1173,0.43208865169070376,0.4,1.0,1.0,408.0,891.0,1.0,1,-1139.0,1
1174,1174,0.1707224502386776,0.2,1.0,1.0,345.0,837.0,0.0,0,1818.0,0
1175,1175,0.2524450140246123,0.3,0.0,0.0,458.0,788.0,0.0,1,1754.0,1
1176,1176,0.37204979880020994,0.4,1.0,1.0,307.0,514.0,0.0,0,2179.0,0
1177,1177,-0.0856047685078688,-0.1,1.0,0.0,277.0,581.0,0.0,0,2142.0,1
1178,1178,0.043165708534438685,0.0,0.0,0.0,365.0,563.0,0.0,1,2072.0,1
1179,1179,0.2779926836379515,0.3,1.0,1.0,495.0,684.0,0.0,0,1821.0,0
1180,1180,0.6284944369370696,0.6,0.0,0.0,433.0,627.0,0.0,1,-840.0,1
1181,1181,-0.24430725444890655,-0.2,0.0,1.0,438.0,596.0,0.0,1,1966.0,0
1182,1182,-0.8020930666956425,-0.8,1.0,0.0,493.0,526.0,0.0,0,1981.0,1
1183,1183,0.4296705027761566,0.4,1.0,1.0,467.0,778.0,0.0,0,1755.0,0
1184,1184,-0.3517617237799041,-0.4,0.0,1.0,471.0,641.0,0.0,1,1888.0,0
1185,1185,-0.8031816797560812,-0.8,0.0,1.0,399.0,916.0,0.0,1,1685.0,0
1186,1186,-0.21466845777586763,-0.2,1.0,0.0,376.0,943.0,0.0,0,1681.0,1
1187,1187,-0.0934437876432731,-0.1,1.0,0.0,325.0,975.0,0.0,0,1700.0,1
1188,1188,-0.7350487480461937,-0.7,0.0,1.0,414.0,945.0,1.0,0,-999.0,1
1189,1189,-0.3563629887692433,-0.4,1.0,0.0,296.0,999.0,0.0,0,1705.0,1
1190,1190,0.5389690583103869,0.5,0.0,0.0,376.0,816.0,0.0,1,1808.0,1
1191,1191,-0.14577304749156128,-0.1,0.0,1.0,457.0,996.0,0.0,1,1547.0,0
1192,1192,-0.7894708271446551,-0.8,1.0,0.0,277.0,987.0,0.0,0,1736.0,1
1193,1193,-0.26593572639001317,-0.3,1.0,0.0,253.0,606.0,0.0,0,2141.0,1
1194,1194,-0.33617356124678754,-0.3,0.0,1.0,268.0,502.0,0.0,1,2230.0,0
1195,1195,0.5453627067374921,0.5,1.0,1.0,315.0,660.0,0.0,0,-855.0,0
1196,1196,-0.024504893180289034,-0.0,0.0,1.0,385.0,632.0,0.0,1,1983.0,0
1197,1197,-0.3359129753134942,-0.3,1.0,0.0,375.0,627.0,0.0,0,-852.0,1
1198,1198,0.4493189593561834,0.4,0.0,0.0,319.0,910.0,0.0,1,1771.0,1
1199,1199,0.8588772690852774,0.9,0.0,0.0,260.0,550.0,1.0,0,-700.0,0
1200,1200,0.8636365435336254,0.9,0.0,0.0,364.0,560.0,0.0,1,2076.0,1
1201,1201,0.06953428661936134,0.1,1.0,1.0,363.0,937.0,0.0,0,-1270.0,0
1202,1202,-0.6252715399755808,-0.6,0.0,1.0,334.0,829.0,0.0,1,1837.0,0
1203,1203,-0.3815404047165023,-0.4,0.0,1.0,315.0,634.0,0.0,1,2051.0,0
1204,1204,-0.7145958825324639,-0.7,1.0,0.0,392.0,692.0,0.0,0,1916.0,1
1205,1205,0.6781921046962273,0.7,1.0,1.0,331.0,821.0,0.0,0,1848.0,0
1206,1206,0.6415989186390246,0.6,0.0,0.0,415.0,579.0,0.0,1,2006.0,1
1207,1207,0.5101243277021269,0.5,0.0,0.0,266.0,812.0,0.0,1,1922.0,1
1208,1208,-0.4717766912138851,-0.5,1.0,0.0,347.0,868.0,0.0,0,1785.0,1
1209,1209,0.607612477319233,0.6,0.0,0.0,402.0,521.0,0.0,1,2077.0,1
1210,1210,-0.8196396734822158,-0.8,1.0,0.0,409.0,824.0,1.0,1,-1183.0,0
1211,1211,-0.052600227081454065,-0.1,1.0,0.0,282.0,623.0,0.0,0,2095.0,1
1212,1212,-0.17566623116831748,-0.2,0.0,1.0,448.0,747.0,0.0,1,-1145.0,0
1213,1213,0.7208485182196139,0.7,0.0,0.0,412.0,955.0,0.0,1,1633.0,1
1214,1214,0.8924461174757002,0.9,1.0,1.0,341.0,950.0,0.0,0,1709.0,0
1215,1215,0.09960328563367993,0.1,0.0,0.0,316.0,911.0,1.0,0,-1147.0,0
1216,1216,0.8092186168903385,0.8,0.0,0.0,425.0,653.0,0.0,1,1922.0,1
1217,1217,-0.5280023745406885,-0.5,0.0,1.0,293.0,589.0,0.0,1,2118.0,0
1218,1218,0.4790850552927196,0.5,0.0,0.0,403.0,954.0,0.0,1,1643.0,1
1219,1219,0.42801783319303655,0.4,1.0,1.0,298.0,606.0,0.0,0,2096.0,0
1220,1220,0.261556553099476,0.3,1.0,1.0,342.0,799.0,0.0,0,1859.0,0
1221,1221,-0.19922103717033202,-0.2,1.0,0.0,356.0,610.0,0.0,0,2034.0,1
1222,1222,-0.07382290203974895,-0.1,0.0,1.0,431.0,761.0,0.0,1,1808.0,0
1223,1223,-0.879540556780212,-0.9,0.0,1.0,476.0,688.0,0.0,1,1836.0,0
1224,1224,-0.2798563985380984,-0.3,1.0,0.0,463.0,780.0,0.0,0,1757.0,1
1225,1225,0.519535425164282,0.5,0.0,0.0,417.0,780.0,0.0,1,1803.0,1
1226,1226,0.6195531644114446,0.6,0.0,0.0,407.0,519.0,0.0,1,2074.0,1
1227,1227,0.4789667168500479,0.5,1.0,1.0,424.0,799.0,0.0,0,1777.0,0
1228,1228,-0.7162582841480762,-0.7,1.0,0.0,337.0,614.0,0.0,0,2049.0,1
1229,1229,0.5866078519386243,0.6,1.0,1.0,462.0,807.0,0.0,0,1731.0,0
1230,1230,-0.7151837456131813,-0.7,0.0,1.0,306.0,518.0,1.0,0,-804.0,1
1231,1231,0.07913558973124613,0.1,1.0,1.0,255.0,724.0,0.0,0,2021.0,0
1232,1232,0.2352854148884561,0.2,0.0,0.0,417.0,948.0,0.0,1,1635.0,1
1233,1233,-0.8494517167566762,-0.8,0.0,1.0,421.0,757.0,0.0,1,1822.0,0
1234,1234,0.28619192046231057,0.3,1.0,1.0,407.0,967.0,0.0,0,1626.0,0
1235,1235,0.5799123795639792,0.6,0.0,0.0,305.0,707.0,0.0,1,1988.0,1
1236,1236,0.5365142993342827,0.5,1.0,1.0,270.0,658.0,0.0,0,2072.0,0
1237,1237,0.8355950302513272,0.8,1.0,1.0,375.0,754.0,0.0,0,1871.0,0
1238,1238,-0.1408522185583797,-0.1,0.0,1.0,358.0,845.0,0.0,1,1797.0,0
1239,1239,-0.31496407984022246,-0.3,0.0,1.0,346.0,642.0,0.0,1,2012.0,0
1240,1240,0.6866004721969031,0.7,1.0,1.0,334.0,891.0,0.0,0,1775.0,0
1241,1241,-0.3386386988053852,-0.3,1.0,0.0,466.0,666.0,0.0,0,1868.0,1
1242,1242,-0.08946229823031904,-0.1,1.0,0.0,346.0,888.0,0.0,0,1766.0,1
1243,1243,0.3492153395179495,0.3,1.0,1.0,295.0,746.0,0.0,0,1959.0,0
1244,1244,0.02094263743710345,0.0,1.0,1.0,320.0,619.0,0.0,0,2061.0,0
1245,1245,-0.8399986036116882,-0.8,0.0,1.0,421.0,790.0,0.0,1,1789.0,0
1246,1246,-0.71606644492143,-0.7,1.0,0.0,353.0,806.0,0.0,0,1841.0,1
1247,1247,-0.6240118706868377,-0.6,0.0,1.0,400.0,545.0,0.0,1,2055.0,0
1248,1248,0.36376689277038177,0.4,1.0,1.0,380.0,882.0,0.0,0,1738.0,0
1249,1249,-0.6992080852280258,-0.7,0.0,1.0,403.0,974.0,0.0,1,1623.0,0
1250,1250,0.13197140509865168,0.1,1.0,1.0,300.0,979.0,0.0,0,1721.0,0
1251,1251,-0.2979460270869525,-0.3,1.0,0.0,345.0,984.0,0.0,0,1671.0,1
1252,1252,-0.19402123055020626,-0.2,1.0,0.0,273.0,695.0,0.0,0,2032.0,1
1253,1253,0.2222724868536884,0.2,1.0,1.0,293.0,533.0,0.0,0,2174.0,0
1254,1254,0.6091082396412663,0.6,0.0,0.0,252.0,804.0,0.0,1,1944.0,1
1255,1255,0.5450607149137153,0.5,0.0,0.0,378.0,805.0,0.0,1,1817.0,1
1256,1256,0.8311328592911028,0.8,0.0,0.0,442.0,505.0,0.0,1,2053.0,1
1257,1257,0.4904127435333291,0.5,0.0,0.0,397.0,739.0,0.0,1,1864.0,1
1258,1258,-0.09171323754259231,-0.1,0.0,1.0,301.0,929.0,0.0,1,1770.0,0
1259,1259,-0.16111023211700515,-0.2,0.0,1.0,435.0,524.0,0.0,1,2041.0,0
1260,1260,-0.06885098575247228,-0.1,0.0,1.0,420.0,515.0,0.0,1,2065.0,0
1261,1261,0.619241137981639,0.6,0.0,0.0,426.0,695.0,0.0,1,1879.0,1
1262,1262,0.03135435402634845,0.0,0.0,0.0,465.0,568.0,0.0,1,1967.0,1
1263,1263,0.40236755039315375,0.4,0.0,0.0,344.0,700.0,1.0,0,-1024.0,0
1264,1264,-0.3946077423424088,-0.4,1.0,0.0,353.0,989.0,0.0,0,1658.0,1
1265,1265,-0.8962896985613849,-0.9,0.0,1.0,262.0,792.0,0.0,1,1946.0,0
1266,1266,-0.8308536738103731,-0.8,0.0,1.0,470.0,916.0,0.0,1,1614.0,0
1267,1267,-0.3202008386635947,-0.3,1.0,0.0,348.0,541.0,0.0,0,-839.0,1
1268,1268,0.12135329174185794,0.1,0.0,0.0,447.0,940.0,0.0,1,1613.0,1
1269,1269,0.6980318367700723,0.7,0.0,0.0,372.0,557.0,0.0,1,2071.0,1
1270,1270,-0.09211944581461062,-0.1,1.0,0.0,312.0,878.0,0.0,0,1810.0,1
1271,1271,0.7999084200238252,0.8,0.0,0.0,398.0,526.0,0.0,1,2076.0,1
1272,1272,0.8345233768466919,0.8,1.0,1.0,324.0,734.0,0.0,0,1942.0,0
1273,1273,-0.4982054911953742,-0.5,1.0,0.0,322.0,709.0,0.0,0,1969.0,1
1274,1274,-0.5925288537835001,-0.6,0.0,1.0,283.0,697.0,0.0,1,2020.0,0
1275,1275,0.1940650500666231,0.2,1.0,1.0,412.0,644.0,0.0,0,1944.0,0
1276,1276,0.12554145848460296,0.1,0.0,0.0,460.0,627.0,0.0,1,1913.0,1
1277,1277,-0.709896408408792,-0.7,1.0,0.0,392.0,925.0,0.0,0,-1287.0,1
1278,1278,-0.6555337463249546,-0.7,0.0,1.0,429.0,609.0,0.0,1,1962.0,0
1279,1279,0.35720289000219674,0.4,0.0,0.0,384.0,726.0,0.0,1,-1100.0,1
1280,1280,-0.5609700153318804,-0.6,0.0,1.0,362.0,598.0,0.0,1,2040.0,0
1281,1281,0.177707347816633,0.2,0.0,0.0,263.0,831.0,0.0,1,1906.0,1
1282,1282,-0.14407641276202976,-0.1,1.0,0.0,410.0,908.0,0.0,0,-1218.0,1
1283,1283,-0.569376997853849,-0.6,1.0,0.0,404.0,547.0,0.0,0,2049.0,1
1284,1284,-0.8859467434496521,-0.9,0.0,1.0,301.0,812.0,0.0,1,1887.0,0
1285,1285,-0.5335987024756612,-0.5,0.0,1.0,484.0,805.0,0.0,1,1711.0,0
1286,1286,-0.18546092366375067,-0.2,0.0,1.0,375.0,924.0,0.0,1,1701.0,0
1287,1287,0.2751881581882024,0.3,0.0,0.0,493.0,931.0,0.0,1,1576.0,1
1288,1288,0.8979802842242418,0.9,0.0,0.0,423.0,820.0,0.0,1,1757.0,1
1289,1289,-0.10298312562427281,-0.1,1.0,0.0,391.0,771.0,0.0,0,1838.0,1
1290,1290,-0.4553955485971355,-0.5,1.0,0.0,468.0,815.0,0.0,0,1717.0,1
1291,1291,0.4157409096630452,0.4,0.0,0.0,367.0,632.0,0.0,1,2001.0,1
1292,1292,0.44596095471135044,0.4,0.0,0.0,286.0,730.0,0.0,1,1984.0,1
1293,1293,0.49202771439142456,0.5,0.0,0.0,364.0,740.0,0.0,1,1896.0,1
1294,1294,0.19246471741918325,0.2,0.0,0.0,482.0,791.0,0.0,1,1727.0,1
1295,1295,0.2845150497731751,0.3,0.0,0.0,405.0,952.0,0.0,1,1643.0,1
1296,1296,0.3472502514900616,0.3,1.0,1.0,343.0,829.0,0.0,0,1828.0,0
1297,1297,0.08369875063348753,0.1,0.0,0.0,305.0,861.0,0.0,1,1834.0,1
1298,1298,-0.26003898968413075,-0.3,1.0,0.0,456.0,573.0,0.0,0,1971.0,1
1299,1299,-0.2184716103270521,-0.2,0.0,1.0,373.0,538.0,0.0,1,2089.0,0
1300,1300,0.6588553613249458,0.7,1.0,1.0,266.0,993.0,0.0,0,1741.0,0
1301,1301,0.020785530304547106,0.0,0.0,0.0,250.0,623.0,0.0,1,2127.0,1
1302,1302,-0.8215770500397768,-0.8,0.0,1.0,285.0,980.0,0.0,1,1735.0,0
1303,1303,0.7465971292435739,0.7,1.0,1.0,286.0,948.0,0.0,0,1766.0,0
1304,1304,-0.6952097380431627,-0.7,0.0,1.0,317.0,696.0,0.0,1,1987.0,0
1305,1305,0.03724648821227561,0.0,0.0,0.0,271.0,908.0,0.0,1,1821.0,1
1306,1306,0.3092635437886385,0.3,1.0,1.0,280.0,824.0,0.0,0,1896.0,0
1307,1307,0.7015828860316041,0.7,1.0,1.0,481.0,952.0,0.0,0,1567.0,0
1308,1308,0.5423733199276629,0.5,0.0,0.0,257.0,576.0,0.0,1,2167.0,1
1309,1309,0.8253911001610802,0.8,0.0,0.0,348.0,632.0,0.0,1,2020.0,1
1310,1310,0.23286197617155902,0.2,0.0,0.0,475.0,885.0,0.0,1,1640.0,1
1311,1311,0.8525605785156086,0.9,1.0,1.0,478.0,804.0,0.0,0,1718.0,0
1312,1312,0.07504452630223346,0.1,0.0,0.0,253.0,981.0,0.0,1,1766.0,1
1313,1313,0.5024200040634427,0.5,0.0,0.0,326.0,806.0,1.0,0,-942.0,0
1314,1314,0.611643293560337,0.6,0.0,0.0,458.0,996.0,0.0,1,1546.0,1
1315,1315,-0.8036334001426269,-0.8,0.0,1.0,495.0,636.0,0.0,1,1869.0,0
1316,1316,0.33626997496074107,0.3,0.0,0.0,474.0,861.0,0.0,1,1665.0,1
1317,1317,-0.10583767798665333,-0.1,1.0,0.0,413.0,740.0,0.0,0,1847.0,1
1318,1318,-0.745309028316997,-0.7,1.0,0.0,380.0,716.0,0.0,0,1904.0,1
1319,1319,0.14343953058262138,0.1,1.0,1.0,328.0,575.0,0.0,0,2097.0,0
1320,1320,-0.863639014818824,-0.9,0.0,1.0,376.0,673.0,0.0,1,1951.0,0
1321,1321,-0.34223824425824745,-0.3,0.0,1.0,401.0,714.0,0.0,1,-995.0,0
1322,1322,0.5394063979503058,0.5,0.0,0.0,319.0,514.0,0.0,1,2167.0,1
1323,1323,0.601757426153989,0.6,0.0,0.0,431.0,625.0,0.0,1,1944.0,1
1324,1324,-0.8060256218309482,-0.8,0.0,1.0,250.0,652.0,0.0,1,2098.0,0
1325,1325,0.337789334057531,0.3,0.0,0.0,320.0,992.0,0.0,1,-1022.0,1
1326,1326,-0.5502242259303836,-0.6,1.0,0.0,362.0,988.0,0.0,0,1650.0,1
1327,1327,-0.23176416241667286,-0.2,1.0,0.0,337.0,542.0,0.0,0,2121.0,1
1328,1328,-0.8939395717714061,-0.9,1.0,0.0,295.0,927.0,0.0,0,1778.0,1
1329,1329,-0.7925431231194163,-0.8,0.0,1.0,458.0,770.0,0.0,1,-1228.0,0
1330,1330,-0.41588513399049926,-0.4,0.0,1.0,259.0,738.0,1.0,0,-847.0,1
1331,1331,0.8855225995926267,0.9,0.0,0.0,402.0,818.0,0.0,1,1780.0,1
1332,1332,0.2285843379640634,0.2,0.0,0.0,370.0,776.0,0.0,1,1854.0,1
1333,1333,0.752091781421797,0.8,0.0,0.0,444.0,890.0,0.0,1,1666.0,1
1334,1334,-0.5222887826645571,-0.5,0.0,1.0,264.0,683.0,0.0,1,-897.0,0
1335,1335,0.36496045428351376,0.4,0.0,0.0,292.0,994.0,0.0,1,1714.0,1
1336,1336,0.06750490671650666,0.1,0.0,0.0,338.0,546.0,0.0,1,2116.0,1
1337,1337,0.4213109683638382,0.4,1.0,1.0,299.0,821.0,0.0,0,1880.0,0
1338,1338,-0.3755102798668122,-0.4,0.0,1.0,320.0,763.0,0.0,1,1917.0,0
1339,1339,0.6581393750261583,0.7,1.0,1.0,475.0,733.0,0.0,0,1792.0,0
1340,1340,-0.046843524643937595,-0.0,1.0,0.0,360.0,996.0,0.0,0,1644.0,1
1341,1341,-0.7506310631792987,-0.8,0.0,1.0,494.0,526.0,0.0,1,1980.0,0
1342,1342,0.4968821990829665,0.5,0.0,0.0,281.0,816.0,0.0,1,-1067.0,1
1343,1343,-0.0021812440002915157,-0.0,0.0,1.0,308.0,805.0,0.0,1,1887.0,0
1344,1344,0.5196194469325283,0.5,0.0,0.0,344.0,747.0,0.0,1,1909.0,1
1345,1345,0.8188091408667061,0.8,1.0,1.0,286.0,880.0,0.0,0,1834.0,0
1346,1346,0.6268199708758199,0.6,0.0,0.0,313.0,770.0,0.0,1,1917.0,1
1347,1347,-0.8544687720775058,-0.9,1.0,0.0,482.0,928.0,1.0,1,-1380.0,0
1348,1348,-0.2831684317417251,-0.3,1.0,0.0,294.0,552.0,0.0,0,2154.0,1
1349,1349,-0.10775957537456615,-0.1,0.0,1.0,448.0,706.0,0.0,1,1846.0,0
1350,1350,-0.05901965052767666,-0.1,1.0,0.0,281.0,598.0,0.0,0,2121.0,1
1351,1351,-0.5083845836176584,-0.5,1.0,0.0,363.0,817.0,0.0,0,1820.0,1
1352,1352,0.18115758807234894,0.2,1.0,1.0,475.0,773.0,0.0,0,-1188.0,0
1353,1353,-0.10464557490738535,-0.1,1.0,0.0,277.0,658.0,0.0,0,2065.0,1
1354,1354,0.2029144774957775,0.2,1.0,1.0,454.0,716.0,0.0,0,1830.0,0
1355,1355,0.24633567659347777,0.2,0.0,0.0,330.0,911.0,0.0,1,1759.0,1
1356,1356,-0.8186972475825858,-0.8,1.0,0.0,263.0,602.0,0.0,0,2135.0,1
1357,1357,0.1437572456338475,0.1,1.0,1.0,334.0,799.0,1.0,1,-993.0,1
1358,1358,0.41249069043274,0.4,1.0,1.0,304.0,626.0,0.0,0,2070.0,0
1359,1359,0.2837720296445435,0.3,0.0,0.0,456.0,792.0,0.0,1,1752.0,1
1360,1360,-0.055210368901701945,-0.1,0.0,1.0,387.0,742.0,0.0,1,1871.0,0
1361,1361,0.24583775421872522,0.2,0.0,0.0,436.0,566.0,0.0,1,1998.0,1
1362,1362,-0.5342042645087418,-0.5,0.0,1.0,348.0,544.0,0.0,1,2108.0,0
1363,1363,-0.6808259783827366,-0.7,0.0,1.0,324.0,770.0,0.0,1,1906.0,0
1364,1364,-0.09138607813207722,-0.1,1.0,0.0,456.0,905.0,0.0,0,1639.0,1
1365,1365,0.39234982574445854,0.4,1.0,1.0,415.0,888.0,0.0,0,1697.0,0
1366,1366,0.3761650043812107,0.4,1.0,1.0,480.0,872.0,0.0,0,1648.0,0
1367,1367,0.6547735998493901,0.7,0.0,0.0,340.0,730.0,0.0,1,1930.0,1
1368,1368,-0.05421508959192056,-0.1,1.0,0.0,438.0,741.0,0.0,0,1821.0,1
1369,1369,0.5102449815470614,0.5,1.0,1.0,377.0,658.0,0.0,0,1965.0,0
1370,1370,-0.09409256083318462,-0.1,0.0,1.0,310.0,540.0,0.0,1,2150.0,0
1371,1371,-0.6716175532215946,-0.7,0.0,1.0,325.0,703.0,0.0,1,1972.0,0
1372,1372,-0.29017194319528794,-0.3,1.0,0.0,270.0,986.0,0.0,0,1744.0,1
1373,1373,-0.02086788352586033,-0.0,1.0,0.0,423.0,937.0,0.0,0,1640.0,1
1374,1374,-0.7802023243095909,-0.8,1.0,0.0,368.0,923.0,0.0,0,1709.0,1
1375,1375,0.6361047895321655,0.6,1.0,1.0,400.0,686.0,0.0,0,-1026.0,0
1376,1376,0.33657265958120475,0.3,0.0,0.0,375.0,730.0,0.0,1,1895.0,1
1377,1377,-0.6036241233243036,-0.6,1.0,0.0,407.0,800.0,0.0,0,1793.0,1
1378,1378,0.5824396951960279,0.6,1.0,1.0,424.0,539.0,0.0,0,2037.0,0
1379,1379,0.8636961256402255,0.9,1.0,1.0,369.0,737.0,0.0,0,1894.0,0
1380,1380,-0.6695522755043855,-0.7,0.0,1.0,290.0,925.0,1.0,0,-1165.0,1
1381,1381,0.5789303873863384,0.6,0.0,0.0,279.0,729.0,0.0,1,1992.0,1
1382,1382,-0.6155891207378682,-0.6,1.0,0.0,478.0,535.0,0.0,0,1987.0,1
1383,1383,-0.1248776820330294,-0.1,0.0,1.0,458.0,949.0,0.0,1,1593.0,0
1384,1384,-0.5849501070561767,-0.6,1.0,0.0,278.0,580.0,0.0,0,2142.0,1
1385,1385,-0.8293330107622724,-0.8,1.0,0.0,411.0,774.0,0.0,0,1815.0,1
1386,1386,-0.5739029914142101,-0.6,1.0,0.0,412.0,905.0,0.0,0,1683.0,1
1387,1387,-0.5776697401071862,-0.6,1.0,0.0,440.0,758.0,0.0,0,1802.0,1
1388,1388,0.005244801450558945,0.0,0.0,0.0,290.0,896.0,0.0,1,1814.0,1
1389,1389,-0.09696038755099523,-0.1,1.0,0.0,429.0,754.0,0.0,0,1817.0,1
1390,1390,-0.3789133942370002,-0.4,1.0,0.0,288.0,799.0,0.0,0,1913.0,1
1391,1391,0.8831476463114251,0.9,0.0,0.0,399.0,859.0,0.0,1,1742.0,1
1392,1392,-0.15003184580889717,-0.2,1.0,0.0,462.0,780.0,0.0,0,-1112.0,1
1393,1393,0.3182394652020587,0.3,1.0,1.0,395.0,965.0,0.0,0,1640.0,0
1394,1394,0.42384035992593805,0.4,0.0,0.0,404.0,603.0,0.0,1,1993.0,1
1395,1395,-0.7773359133435174,-0.8,0.0,1.0,350.0,911.0,0.0,1,1739.0,0
1396,1396,-0.22509832536669183,-0.2,1.0,0.0,480.0,981.0,0.0,0,1539.0,1
1397,1397,0.46186824890463163,0.5,1.0,1.0,251.0,958.0,0.0,0,1791.0,0
1398,1398,0.5823740714833793,0.6,1.0,1.0,252.0,605.0,0.0,0,2143.0,0
1399,1399,-0.3107061611409535,-0.3,0.0,1.0,261.0,501.0,0.0,1,2238.0,0
1400,1400,-0.7125133363225545,-0.7,0.0,1.0,259.0,569.0,0.0,1,2172.0,0
1401,1401,0.2619541661840904,0.3,1.0,1.0,439.0,507.0,0.0,0,2054.0,0
1402,1402,-0.7248267560194889,-0.7,0.0,1.0,350.0,516.0,0.0,1,-796.0,0
1403,1403,-0.6859940541819948,-0.7,0.0,1.0,455.0,531.0,0.0,1,2014.0,0
1404,1404,0.7618008947313265,0.8,1.0,1.0,488.0,616.0,0.0,0,1896.0,0
1405,1405,-0.6439682556888862,-0.6,1.0,0.0,287.0,799.0,0.0,0,-1036.0,1
1406,1406,0.02674704378680992,0.0,1.0,1.0,442.0,943.0,0.0,0,1615.0,0
1407,1407,0.4728935706740415,0.5,0.0,0.0,386.0,548.0,0.0,1,2066.0,1
1408,1408,0.4760690191235256,0.5,0.0,0.0,313.0,764.0,0.0,1,1923.0,1
1409,1409,-0.26730676842665346,-0.3,0.0,1.0,396.0,840.0,0.0,1,1764.0,0
1410,1410,-0.687808542936899,-0.7,0.0,1.0,444.0,799.0,0.0,1,1757.0,0
1411,1411,0.8513179119007402,0.9,1.0,1.0,277.0,894.0,0.0,0,1829.0,0
1412,1412,-0.3383216467829554,-0.3,0.0,1.0,380.0,558.0,0.0,1,2062.0,0
1413,1413,-0.27629396439788023,-0.3,1.0,0.0,254.0,870.0,0.0,0,1876.0,1
1414,1414,0.38793030076316437,0.4,1.0,1.0,318.0,607.0,0.0,0,2075.0,0
1415,1415,0.7361811333777061,0.7,0.0,0.0,379.0,525.0,0.0,1,2096.0,1
1416,1416,0.720363557264658,0.7,1.0,1.0,335.0,906.0,0.0,0,1759.0,0
1417,1417,-0.20281666908953433,-0.2,0.0,1.0,391.0,835.0,0.0,1,1774.0,0
1418,1418,-0.6613773479570945,-0.7,1.0,0.0,357.0,995.0,0.0,0,1648.0,1
1419,1419,0.20052557857558384,0.2,1.0,1.0,274.0,837.0,0.0,0,1889.0,0
1420,1420,0.2693601626953418,0.3,1.0,1.0,492.0,817.0,0.0,0,1691.0,0
1421,1421,-0.19098589571514668,-0.2,1.0,0.0,299.0,788.0,0.0,0,1913.0,1
1422,1422,-0.25944938020189967,-0.3,0.0,1.0,443.0,712.0,0.0,1,1845.0,0
1423,1423,-0.46753311692309657,-0.5,0.0,1.0,424.0,652.0,0.0,1,1924.0,0
1424,1424,-0.5384634935181574,-0.5,1.0,0.0,482.0,751.0,0.0,0,1767.0,1
1425,1425,-0.8809006655464382,-0.9,0.0,1.0,333.0,564.0,0.0,1,2103.0,0
1426,1426,0.6952044480158247,0.7,0.0,0.0,448.0,613.0,1.0,0,-1051.0,0
1427,1427,0.8902579541254053,0.9,1.0,1.0,262.0,657.0,0.0,0,2081.0,0
1428,1428,0.46085858948206304,0.5,1.0,1.0,469.0,724.0,0.0,0,1807.0,0
1429,1429,-0.41326204780393855,-0.4,1.0,0.0,375.0,510.0,0.0,0,2115.0,1
1430,1430,0.84571968536396,0.8,0.0,0.0,401.0,714.0,0.0,1,-1065.0,1
1431,1431,0.6167436904164701,0.6,0.0,0.0,470.0,852.0,0.0,1,1678.0,1
1432,1432,0.3794172742136316,0.4,1.0,1.0,319.0,622.0,0.0,0,2059.0,0
1433,1433,-0.7290244727361267,-0.7,1.0,0.0,463.0,812.0,0.0,0,1725.0,1
1434,1434,0.3312570829981548,0.3,1.0,1.0,386.0,925.0,1.0,1,-1161.0,1
1435,1435,0.7545487715956894,0.8,1.0,1.0,293.0,864.0,0.0,0,1843.0,0
1436,1436,0.1254419563913346,0.1,0.0,0.0,314.0,917.0,1.0,0,-991.0,0
1437,1437,-0.23419587524629637,-0.2,1.0,0.0,460.0,823.0,1.0,1,-1143.0,0
1438,1438,-0.5280707496784653,-0.5,1.0,0.0,422.0,948.0,0.0,0,1630.0,1
1439,1439,-0.8986050766655246,-0.9,0.0,1.0,401.0,540.0,0.0,1,2059.0,0
1440,1440,-0.558730911269643,-0.6,1.0,0.0,428.0,888.0,0.0,0,1684.0,1
1441,1441,-0.18630199558466343,-0.2,1.0,0.0,372.0,788.0,0.0,0,1840.0,1
1442,1442,0.15331165646790612,0.2,1.0,1.0,324.0,726.0,0.0,0,1950.0,0
1443,1443,0.17187886709767264,0.2,1.0,1.0,338.0,665.0,0.0,0,1997.0,0
1444,1444,-0.7379039854999601,-0.7,1.0,0.0,467.0,750.0,0.0,0,1783.0,1
1445,1445,-0.40122480063843274,-0.4,1.0,0.0,331.0,660.0,0.0,0,2009.0,1
1446,1446,0.8590935868501998,0.9,0.0,0.0,470.0,966.0,0.0,1,1564.0,1
1447,1447,0.6232044949375216,0.6,0.0,0.0,348.0,817.0,0.0,1,1835.0,1
1448,1448,-0.5253437626243834,-0.5,0.0,1.0,270.0,911.0,0.0,1,1819.0,0
1449,1449,-0.19764552210846853,-0.2,0.0,1.0,489.0,615.0,0.0,1,1896.0,0
1450,1450,0.7111780176693084,0.7,1.0,1.0,306.0,640.0,0.0,0,2054.0,0
1451,1451,-0.009973236309507527,-0.0,1.0,0.0,360.0,905.0,0.0,0,1735.0,1
1452,1452,-0.8311044103314791,-0.8,0.0,1.0,395.0,817.0,0.0,1,1788.0,0
1453,1453,-0.6306019972701271,-0.6,0.0,1.0,389.0,624.0,0.0,1,1987.0,0
1454,1454,0.031403850134525624,0.0,0.0,0.0,498.0,742.0,0.0,1,1760.0,1
1455,1455,0.6724068614866813,0.7,0.0,0.0,309.0,555.0,1.0,0,-864.0,0
1456,1456,0.2222707742696851,0.2,0.0,0.0,487.0,734.0,0.0,1,1779.0,1
1457,1457,0.26471401055130295,0.3,1.0,1.0,250.0,518.0,0.0,0,2232.0,0
1458,1458,-0.48643878956551967,-0.5,1.0,0.0,281.0,672.0,0.0,0,2047.0,1
1459,1459,0.1250506998933757,0.1,0.0,0.0,366.0,503.0,0.0,1,2131.0,1
1460,1460,0.883350535732642,0.9,0.0,0.0,312.0,772.0,0.0,1,1916.0,1
1461,1461,-0.575661824641774,-0.6,1.0,0.0,388.0,756.0,0.0,0,1856.0,1
1462,1462,0.28989930602039016,0.3,0.0,0.0,280.0,911.0,0.0,1,1809.0,1
1463,1463,0.5419723907524826,0.5,1.0,1.0,450.0,889.0,0.0,0,1661.0,0
1464,1464,0.2694062706359063,0.3,1.0,1.0,276.0,535.0,0.0,0,2189.0,0
1465,1465,-0.5280055998925064,-0.5,1.0,0.0,437.0,936.0,0.0,0,1627.0,1
1466,1466,-0.5116989764227917,-0.5,1.0,0.0,278.0,639.0,0.0,0,2083.0,1
1467,1467,0.4477995795068527,0.4,1.0,1.0,321.0,735.0,0.0,0,1944.0,0
1468,1468,0.6010280879879949,0.6,0.0,0.0,367.0,869.0,0.0,1,1764.0,1
1469,1469,-0.2570141222592155,-0.3,0.0,1.0,478.0,896.0,0.0,1,1626.0,0
1470,1470,-0.28353505637184073,-0.3,1.0,0.0,258.0,874.0,0.0,0,1868.0,1
1471,1471,-0.6323478164853125,-0.6,0.0,1.0,412.0,755.0,0.0,1,1833.0,0
