,trial,coherence,coherence_bin,green_side,correct_side,target_onset,checker_onset,decision,green_decision,decision_time,correct_decision
0,0,-0.31298841722873527,-0.3,1.0,0.0,317.0,535.0,0.0,0,328.0,1
1,1,0.10374698414073047,0.1,0.0,0.0,287.0,519.0,0.0,1,444.0,1
2,2,-0.32301716060207986,-0.3,1.0,0.0,344.0,688.0,0.0,0,298.0,1
3,3,-0.45425871478425334,-0.5,1.0,0.0,462.0,780.0,0.0,0,278.0,1
4,4,-0.6800250310342701,-0.7,1.0,0.0,499.0,681.0,0.0,0,200.0,1
5,5,-0.1373480342663962,-0.1,1.0,0.0,445.0,969.0,0.0,0,216.0,1
6,6,0.0850765964758321,0.1,1.0,1.0,444.0,573.0,1.0,1,683.0,1
7,7,0.0016274533069640107,0.0,1.0,1.0,403.0,851.0,0.0,0,2236.0,0
8,8,0.2337330381949344,0.2,0.0,0.0,280.0,857.0,0.0,1,443.0,1
9,9,-0.17931271863228637,-0.2,1.0,0.0,260.0,840.0,0.0,0,270.0,1
10,10,-0.5943380478811306,-0.6,0.0,1.0,360.0,561.0,1.0,0,349.0,1
11,11,-0.6043872313024763,-0.6,1.0,0.0,294.0,831.0,0.0,0,125.0,1
12,12,-0.5029074856104425,-0.5,0.0,1.0,449.0,869.0,1.0,0,142.0,1
13,13,0.3282065580910526,0.3,1.0,1.0,451.0,899.0,1.0,1,200.0,1
14,14,0.5491966993173097,0.5,0.0,0.0,477.0,883.0,0.0,1,80.0,1
15,15,0.6358483501942916,0.6,1.0,1.0,471.0,747.0,1.0,1,192.0,1
16,16,0.2614473621260679,0.3,1.0,1.0,345.0,631.0,1.0,1,264.0,1
17,17,0.7949380533491727,0.8,0.0,0.0,318.0,946.0,0.0,1,166.0,1
18,18,-0.11420392366074061,-0.1,0.0,1.0,368.0,620.0,1.0,0,582.0,1
19,19,0.11213906766249881,0.1,0.0,0.0,472.0,808.0,0.0,1,300.0,1
20,20,-0.6274194993918529,-0.6,1.0,0.0,454.0,604.0,0.0,0,292.0,1
21,21,0.8556782473286942,0.9,1.0,1.0,417.0,682.0,1.0,1,591.0,1
22,22,-0.28699050613785004,-0.3,1.0,0.0,414.0,824.0,0.0,0,172.0,1
23,23,-0.12901493736023995,-0.1,0.0,1.0,252.0,740.0,1.0,0,278.0,1
24,24,0.0593539513350827,0.1,1.0,1.0,429.0,573.0,1.0,1,718.0,1
25,25,-0.22498572727493094,-0.2,1.0,0.0,394.0,768.0,0.0,0,208.0,1
26,26,-0.04857293415812314,-0.0,1.0,0.0,416.0,718.0,0.0,0,436.0,1
27,27,0.8612039406001107,0.9,0.0,0.0,305.0,947.0,0.0,1,188.0,1
28,28,-0.6041418638537503,-0.6,1.0,0.0,264.0,512.0,0.0,0,314.0,1
29,29,0.6497839284185204,0.6,0.0,0.0,326.0,533.0,0.0,1,291.0,1
30,30,0.14612300943794299,0.1,0.0,0.0,360.0,519.0,0.0,1,491.0,1
31,31,-0.218632884403425,-0.2,1.0,0.0,385.0,644.0,0.0,0,231.0,1
32,32,-0.006453236335475343,-0.0,0.0,1.0,372.0,786.0,1.0,0,2072.0,1
33,33,0.10342539291131969,0.1,1.0,1.0,252.0,870.0,1.0,1,358.0,1
34,34,-0.05408248285820805,-0.1,1.0,0.0,329.0,820.0,0.0,0,151.0,1
35,35,-0.06990873147531129,-0.1,1.0,0.0,435.0,964.0,0.0,0,461.0,1
36,36,0.36236416234678026,0.4,0.0,0.0,251.0,969.0,0.0,1,110.0,1
37,37,-0.07411517577260018,-0.1,0.0,1.0,453.0,821.0,1.0,0,486.0,1
38,38,-0.8277526966620278,-0.8,1.0,0.0,370.0,522.0,0.0,0,288.0,1
39,39,-0.5448189737055575,-0.5,0.0,1.0,350.0,610.0,1.0,0,220.0,1
40,40,-0.0770366204493168,-0.1,1.0,0.0,265.0,781.0,0.0,0,224.0,1
41,41,-0.34162291063589356,-0.3,0.0,1.0,380.0,824.0,1.0,0,246.0,1
42,42,0.6716359767869436,0.7,0.0,0.0,254.0,561.0,0.0,1,215.0,1
43,43,0.6258956931983451,0.6,1.0,1.0,358.0,837.0,1.0,1,325.0,1
44,44,-0.3662961524399386,-0.4,1.0,0.0,484.0,580.0,0.0,0,326.0,1
45,45,0.26761079659157383,0.3,0.0,0.0,451.0,922.0,0.0,1,157.0,1
46,46,0.43608533098293434,0.4,0.0,0.0,301.0,572.0,0.0,1,337.0,1
47,47,-0.2526792427254312,-0.3,0.0,1.0,458.0,738.0,1.0,0,304.0,1
48,48,0.6550607927054578,0.7,0.0,0.0,324.0,541.0,0.0,1,295.0,1
49,49,-0.8452607632109878,-0.8,1.0,0.0,301.0,894.0,0.0,0,215.0,1
50,50,-0.019622306448958904,-0.0,1.0,0.0,382.0,923.0,0.0,0,3695.0,1
51,51,-0.43291484933159863,-0.4,0.0,1.0,269.0,730.0,1.0,0,241.0,1
52,52,0.8574843903050545,0.9,1.0,1.0,336.0,900.0,1.0,1,94.0,1
53,53,0.45171934312205686,0.5,1.0,1.0,499.0,713.0,1.0,1,258.0,1
54,54,0.12494661447978739,0.1,1.0,1.0,274.0,875.0,1.0,1,281.0,1
55,55,-0.4489882641906719,-0.4,1.0,0.0,367.0,560.0,0.0,0,313.0,1
56,56,-0.3642351061495078,-0.4,1.0,0.0,339.0,664.0,0.0,0,217.0,1
57,57,0.6921921206642726,0.7,1.0,1.0,338.0,517.0,1.0,1,345.0,1
58,58,0.13318797341891575,0.1,0.0,0.0,354.0,523.0,0.0,1,603.0,1
59,59,0.5929724410804053,0.6,1.0,1.0,289.0,735.0,1.0,1,126.0,1
60,60,-0.1975689846900327,-0.2,1.0,0.0,484.0,685.0,0.0,0,251.0,1
61,61,0.542818225815274,0.5,1.0,1.0,390.0,793.0,1.0,1,407.0,1
62,62,-0.8420822583959325,-0.8,0.0,1.0,429.0,580.0,1.0,0,341.0,1
63,63,0.3149764356915369,0.3,1.0,1.0,476.0,970.0,1.0,1,154.0,1
64,64,0.3639067070835015,0.4,1.0,1.0,388.0,804.0,1.0,1,248.0,1
65,65,0.21714187495098225,0.2,1.0,1.0,472.0,523.0,1.0,1,455.0,1
66,66,0.8380802093349043,0.8,1.0,1.0,446.0,881.0,1.0,1,183.0,1
67,67,0.2501693096207954,0.3,0.0,0.0,335.0,548.0,0.0,1,397.0,1
68,68,0.29478940632389505,0.3,1.0,1.0,371.0,723.0,1.0,1,296.0,1
69,69,0.14655042333637514,0.1,0.0,0.0,495.0,724.0,0.0,1,521.0,1
70,70,-0.44822736598165375,-0.4,0.0,1.0,392.0,731.0,1.0,0,207.0,1
71,71,0.09142727561201325,0.1,1.0,1.0,487.0,533.0,1.0,1,550.0,1
72,72,0.6797518874550706,0.7,0.0,0.0,305.0,634.0,0.0,1,221.0,1
73,73,0.5062729367304705,0.5,0.0,0.0,446.0,978.0,0.0,1,196.0,1
74,74,-0.2074294754167959,-0.2,1.0,0.0,299.0,581.0,0.0,0,480.0,1
75,75,0.4670462380854624,0.5,1.0,1.0,468.0,765.0,1.0,1,177.0,1
76,76,0.5662565876223645,0.6,1.0,1.0,479.0,742.0,1.0,1,539.0,1
77,77,0.6985372205107135,0.7,0.0,0.0,459.0,787.0,0.0,1,274.0,1
78,78,-0.4071014310139229,-0.4,0.0,1.0,292.0,514.0,1.0,0,304.0,1
79,79,0.49221055948014414,0.5,0.0,0.0,476.0,960.0,0.0,1,104.0,1
80,80,0.28371835061595296,0.3,0.0,0.0,282.0,873.0,0.0,1,265.0,1
81,81,0.4540735995669588,0.5,1.0,1.0,461.0,706.0,1.0,1,273.0,1
82,82,0.4284423746842564,0.4,1.0,1.0,370.0,985.0,1.0,1,125.0,1
83,83,-0.8561488197151871,-0.9,1.0,0.0,280.0,938.0,0.0,0,182.0,1
84,84,0.8835916216268102,0.9,0.0,0.0,409.0,853.0,0.0,1,98.0,1
85,85,-0.12309799323851967,-0.1,0.0,1.0,359.0,793.0,1.0,0,388.0,1
86,86,-0.09917752790829171,-0.1,1.0,0.0,326.0,691.0,0.0,0,423.0,1
87,87,-0.30549585014739666,-0.3,1.0,0.0,386.0,641.0,0.0,0,283.0,1
88,88,0.6298488512248167,0.6,0.0,0.0,419.0,565.0,0.0,1,256.0,1
89,89,0.36284672019823694,0.4,0.0,0.0,407.0,502.0,0.0,1,511.0,1
90,90,0.8644820893141615,0.9,0.0,0.0,316.0,709.0,0.0,1,185.0,1
91,91,-0.4103018691240135,-0.4,1.0,0.0,444.0,977.0,0.0,0,469.0,1
92,92,0.01864056331765973,0.0,1.0,1.0,344.0,601.0,1.0,1,1185.0,1
93,93,0.1875468920193829,0.2,1.0,1.0,383.0,673.0,1.0,1,474.0,1
94,94,0.3762687585625041,0.4,1.0,1.0,284.0,914.0,1.0,1,172.0,1
95,95,0.7113717282480628,0.7,1.0,1.0,356.0,653.0,1.0,1,201.0,1
96,96,0.3540713451676164,0.4,1.0,1.0,368.0,581.0,1.0,1,371.0,1
97,97,-0.060709799673589804,-0.1,0.0,1.0,268.0,716.0,1.0,0,316.0,1
98,98,-0.30123749618803153,-0.3,0.0,1.0,322.0,580.0,1.0,0,428.0,1
99,99,0.4994062546706185,0.5,0.0,0.0,474.0,971.0,0.0,1,215.0,1
100,100,-0.8179066900859124,-0.8,0.0,1.0,296.0,711.0,1.0,0,333.0,1
101,101,0.4638777191637805,0.5,1.0,1.0,258.0,647.0,1.0,1,105.0,1
102,102,-0.3004825529361138,-0.3,0.0,1.0,251.0,622.0,1.0,0,277.0,1
103,103,-0.7352325823415815,-0.7,0.0,1.0,418.0,509.0,1.0,0,283.0,1
104,104,0.8195476006374557,0.8,0.0,0.0,453.0,535.0,0.0,1,212.0,1
105,105,0.02594312656730291,0.0,1.0,1.0,312.0,659.0,1.0,1,949.0,1
106,106,0.0182080916754358,0.0,1.0,1.0,287.0,730.0,1.0,1,3763.0,1
107,107,-0.6245479268960561,-0.6,0.0,1.0,454.0,654.0,1.0,0,322.0,1
108,108,-0.7862836539547677,-0.8,1.0,0.0,445.0,534.0,0.0,0,261.0,1
109,109,0.709996113347834,0.7,1.0,1.0,252.0,564.0,1.0,1,334.0,1
110,110,-0.4016879345609912,-0.4,0.0,1.0,251.0,801.0,1.0,0,278.0,1
111,111,0.7198620915600445,0.7,1.0,1.0,468.0,802.0,1.0,1,220.0,1
112,112,-0.32092828013862207,-0.3,1.0,0.0,491.0,616.0,0.0,0,563.0,1
113,113,-0.44292352646843663,-0.4,1.0,0.0,466.0,618.0,0.0,0,426.0,1
114,114,-0.18708364521991405,-0.2,0.0,1.0,289.0,849.0,1.0,0,272.0,1
115,115,0.613603111479014,0.6,0.0,0.0,487.0,594.0,0.0,1,229.0,1
116,116,-0.5371489376572947,-0.5,0.0,1.0,279.0,778.0,1.0,0,563.0,1
117,117,0.7330911653835136,0.7,1.0,1.0,485.0,713.0,1.0,1,142.0,1
118,118,-0.40236885400508815,-0.4,1.0,0.0,425.0,861.0,0.0,0,324.0,1
119,119,0.690019986476548,0.7,1.0,1.0,447.0,545.0,1.0,1,548.0,1
120,120,-0.4770178237229812,-0.5,1.0,0.0,451.0,639.0,0.0,0,230.0,1
121,121,-0.6577845821994466,-0.7,1.0,0.0,374.0,507.0,0.0,0,299.0,1
122,122,-0.34569278574945383,-0.3,0.0,1.0,304.0,596.0,1.0,0,280.0,1
123,123,0.17057190389828125,0.2,0.0,0.0,265.0,905.0,0.0,1,410.0,1
124,124,0.7276507183742426,0.7,0.0,0.0,295.0,890.0,0.0,1,195.0,1
125,125,0.6677090563966709,0.7,0.0,0.0,365.0,804.0,0.0,1,361.0,1
126,126,0.3591487261967695,0.4,1.0,1.0,260.0,947.0,1.0,1,93.0,1
127,127,0.3721265691069725,0.4,1.0,1.0,409.0,775.0,1.0,1,236.0,1
128,128,-0.6240852715488924,-0.6,0.0,1.0,468.0,639.0,1.0,0,213.0,1
129,129,-0.11170873379847124,-0.1,0.0,1.0,289.0,588.0,1.0,0,593.0,1
130,130,0.20335444092607158,0.2,1.0,1.0,429.0,960.0,1.0,1,181.0,1
131,131,0.2980713230458366,0.3,1.0,1.0,499.0,539.0,1.0,1,342.0,1
132,132,-0.49522135377031695,-0.5,1.0,0.0,410.0,842.0,0.0,0,168.0,1
133,133,-0.34058993452538655,-0.3,0.0,1.0,345.0,835.0,1.0,0,100.0,1
134,134,-0.2919573424387961,-0.3,0.0,1.0,342.0,944.0,1.0,0,364.0,1
135,135,-0.08728558385836094,-0.1,1.0,0.0,408.0,740.0,0.0,0,382.0,1
136,136,-0.49790214846077857,-0.5,0.0,1.0,334.0,859.0,1.0,0,207.0,1
137,137,-0.04074015987201729,-0.0,0.0,1.0,338.0,541.0,1.0,0,2141.0,1
138,138,0.29803181488510055,0.3,1.0,1.0,444.0,516.0,1.0,1,380.0,1
139,139,-0.12359109826776227,-0.1,0.0,1.0,273.0,785.0,1.0,0,242.0,1
140,140,0.7306615644093643,0.7,0.0,0.0,417.0,568.0,0.0,1,215.0,1
141,141,0.6699762752681026,0.7,0.0,0.0,343.0,981.0,0.0,1,296.0,1
142,142,0.5964347692174053,0.6,1.0,1.0,485.0,854.0,1.0,1,121.0,1
143,143,-0.5810623773413777,-0.6,1.0,0.0,387.0,845.0,0.0,0,118.0,1
144,144,-0.5548903390480997,-0.6,1.0,0.0,455.0,953.0,0.0,0,212.0,1
145,145,0.46424109423071835,0.5,1.0,1.0,454.0,644.0,1.0,1,242.0,1
146,146,-0.7879299698372182,-0.8,1.0,0.0,425.0,522.0,0.0,0,243.0,1
147,147,-0.22014943092737915,-0.2,1.0,0.0,470.0,984.0,0.0,0,596.0,1
148,148,-0.22617706136546645,-0.2,1.0,0.0,472.0,742.0,0.0,0,416.0,1
149,149,0.251106383908971,0.3,0.0,0.0,293.0,757.0,0.0,1,220.0,1
150,150,-0.485516927548085,-0.5,1.0,0.0,260.0,922.0,0.0,0,98.0,1
151,151,-0.1290840038258514,-0.1,0.0,1.0,465.0,519.0,1.0,0,596.0,1
152,152,0.8164298157602031,0.8,0.0,0.0,446.0,551.0,0.0,1,163.0,1
153,153,-0.3900026338717447,-0.4,0.0,1.0,410.0,699.0,1.0,0,331.0,1
154,154,-0.7512507933150154,-0.8,0.0,1.0,354.0,852.0,1.0,0,164.0,1
155,155,-0.30332666854439116,-0.3,1.0,0.0,454.0,524.0,0.0,0,362.0,1
156,156,-0.3000269875926268,-0.3,0.0,1.0,439.0,747.0,1.0,0,244.0,1
157,157,-0.4450317277475337,-0.4,1.0,0.0,455.0,845.0,0.0,0,160.0,1
158,158,-0.6804983996491762,-0.7,1.0,0.0,458.0,789.0,0.0,0,213.0,1
159,159,-0.6728417407637504,-0.7,1.0,0.0,330.0,600.0,0.0,0,230.0,1
160,160,-0.2616150757380129,-0.3,0.0,1.0,386.0,512.0,1.0,0,452.0,1
161,161,-0.5813032347647376,-0.6,0.0,1.0,495.0,948.0,1.0,0,117.0,1
162,162,-0.61913509146082,-0.6,1.0,0.0,370.0,719.0,0.0,0,171.0,1
163,163,-0.572657828113502,-0.6,0.0,1.0,444.0,952.0,1.0,0,164.0,1
164,164,0.8512717550868151,0.9,0.0,0.0,442.0,765.0,0.0,1,153.0,1
165,165,0.6489895534379649,0.6,0.0,0.0,397.0,988.0,0.0,1,75.0,1
166,166,-0.007244982186203619,-0.0,1.0,0.0,372.0,887.0,0.0,0,691.0,1
167,167,0.4626139160832211,0.5,1.0,1.0,378.0,985.0,1.0,1,87.0,1
168,168,-0.6514987910346033,-0.7,1.0,0.0,388.0,671.0,0.0,0,241.0,1
169,169,-0.3677469072022348,-0.4,1.0,0.0,274.0,955.0,0.0,0,161.0,1
170,170,-0.397046046024481,-0.4,0.0,1.0,301.0,999.0,1.0,0,210.0,1
171,171,0.5957079656016074,0.6,1.0,1.0,319.0,832.0,1.0,1,99.0,1
172,172,-0.364117043580679,-0.4,1.0,0.0,271.0,580.0,0.0,0,269.0,1
173,173,0.5099647052546249,0.5,1.0,1.0,428.0,724.0,1.0,1,158.0,1
174,174,-0.05863629811420379,-0.1,0.0,1.0,298.0,566.0,1.0,0,946.0,1
175,175,-0.13465610806528194,-0.1,1.0,0.0,322.0,821.0,0.0,0,277.0,1
176,176,0.8219779301463831,0.8,1.0,1.0,383.0,536.0,1.0,1,281.0,1
177,177,-0.31874035221879116,-0.3,0.0,1.0,453.0,507.0,1.0,0,340.0,1
178,178,0.11817408369206694,0.1,0.0,0.0,284.0,749.0,0.0,1,447.0,1
179,179,0.7194910783942553,0.7,0.0,0.0,278.0,605.0,0.0,1,217.0,1
180,180,0.4897905286535923,0.5,0.0,0.0,259.0,729.0,0.0,1,272.0,1
181,181,-0.7929744029738363,-0.8,1.0,0.0,451.0,995.0,0.0,0,124.0,1
182,182,0.7458120177862019,0.7,0.0,0.0,447.0,973.0,0.0,1,210.0,1
183,183,0.2763634364742108,0.3,0.0,0.0,459.0,575.0,0.0,1,536.0,1
184,184,-0.6454750567542875,-0.6,1.0,0.0,464.0,977.0,0.0,0,209.0,1
185,185,-0.04303791194821471,-0.0,0.0,1.0,402.0,954.0,1.0,0,664.0,1
186,186,-0.03449543651134901,-0.0,0.0,1.0,314.0,626.0,1.0,0,1470.0,1
187,187,0.6340938860480557,0.6,0.0,0.0,411.0,957.0,0.0,1,162.0,1
188,188,0.37286010512575085,0.4,1.0,1.0,392.0,856.0,1.0,1,112.0,1
189,189,-0.32557555609952227,-0.3,1.0,0.0,302.0,500.0,0.0,0,308.0,1
190,190,-0.513124367481061,-0.5,0.0,1.0,449.0,664.0,1.0,0,287.0,1
191,191,0.43364424344627805,0.4,0.0,0.0,360.0,854.0,0.0,1,236.0,1
192,192,0.7823069414239064,0.8,1.0,1.0,337.0,933.0,1.0,1,180.0,1
193,193,0.45059628746953384,0.5,1.0,1.0,259.0,702.0,1.0,1,189.0,1
194,194,0.8224835850645832,0.8,0.0,0.0,382.0,865.0,0.0,1,133.0,1
195,195,-0.4881182331233366,-0.5,0.0,1.0,316.0,961.0,1.0,0,123.0,1
196,196,-0.4070724438712649,-0.4,0.0,1.0,269.0,534.0,1.0,0,297.0,1
197,197,0.47691719949967004,0.5,1.0,1.0,457.0,651.0,1.0,1,402.0,1
198,198,-0.5474767656618471,-0.5,1.0,0.0,477.0,526.0,0.0,0,327.0,1
199,199,-0.6096723814319738,-0.6,0.0,1.0,385.0,549.0,1.0,0,326.0,1
200,200,0.6856181482334803,0.7,1.0,1.0,425.0,728.0,1.0,1,107.0,1
201,201,-0.6167980328492391,-0.6,0.0,1.0,301.0,630.0,1.0,0,349.0,1
202,202,0.5579259742930963,0.6,1.0,1.0,337.0,723.0,1.0,1,250.0,1
203,203,-0.7164193893427698,-0.7,1.0,0.0,347.0,970.0,0.0,0,253.0,1
204,204,-0.730836208937788,-0.7,0.0,1.0,494.0,913.0,1.0,0,153.0,1
205,205,0.005176213835320631,0.0,0.0,0.0,260.0,656.0,0.0,1,3824.0,1
206,206,0.32591751839715577,0.3,0.0,0.0,398.0,680.0,0.0,1,222.0,1
207,207,-0.8266456003993727,-0.8,1.0,0.0,327.0,661.0,0.0,0,282.0,1
208,208,0.3252945055444024,0.3,0.0,0.0,347.0,525.0,0.0,1,448.0,1
209,209,-0.6629766322639,-0.7,0.0,1.0,426.0,900.0,1.0,0,354.0,1
210,210,-0.6196473234293174,-0.6,0.0,1.0,317.0,690.0,1.0,0,393.0,1
211,211,0.868423445140733,0.9,1.0,1.0,440.0,775.0,1.0,1,195.0,1
212,212,0.6765033822447676,0.7,1.0,1.0,493.0,676.0,1.0,1,241.0,1
213,213,-0.877131024824947,-0.9,0.0,1.0,400.0,886.0,1.0,0,74.0,1
214,214,-0.31123300890171657,-0.3,0.0,1.0,352.0,530.0,1.0,0,638.0,1
215,215,-0.5973955876632373,-0.6,1.0,0.0,348.0,776.0,0.0,0,196.0,1
216,216,0.19809500471525243,0.2,1.0,1.0,318.0,948.0,1.0,1,254.0,1
217,217,-0.24894540311013447,-0.2,1.0,0.0,285.0,868.0,0.0,0,227.0,1
218,218,-0.8499576134177304,-0.8,1.0,0.0,459.0,518.0,0.0,0,313.0,1
219,219,0.6684310560946197,0.7,0.0,0.0,298.0,764.0,0.0,1,158.0,1
220,220,0.7850799130303839,0.8,0.0,0.0,375.0,932.0,0.0,1,173.0,1
221,221,0.12347550995835588,0.1,1.0,1.0,309.0,917.0,1.0,1,344.0,1
222,222,0.8114880794884435,0.8,0.0,0.0,392.0,622.0,0.0,1,246.0,1
223,223,-0.07149479314831653,-0.1,1.0,0.0,366.0,754.0,0.0,0,410.0,1
224,224,-0.11922941662431141,-0.1,0.0,1.0,279.0,597.0,1.0,0,604.0,1
225,225,-0.5265278149784618,-0.5,1.0,0.0,277.0,841.0,0.0,0,122.0,1
226,226,0.457790194507408,0.5,0.0,0.0,320.0,647.0,0.0,1,223.0,1
227,227,-0.19117829645823536,-0.2,1.0,0.0,469.0,955.0,0.0,0,286.0,1
228,228,-0.663691586936725,-0.7,0.0,1.0,430.0,985.0,1.0,0,125.0,1
229,229,0.2825009688630534,0.3,1.0,1.0,267.0,829.0,1.0,1,214.0,1
230,230,0.28634740145468973,0.3,0.0,0.0,348.0,904.0,0.0,1,218.0,1
231,231,-0.5113287422349646,-0.5,1.0,0.0,429.0,614.0,0.0,0,297.0,1
232,232,0.7738947421785655,0.8,0.0,0.0,386.0,657.0,0.0,1,197.0,1
233,233,0.2414319366201364,0.2,1.0,1.0,378.0,919.0,1.0,1,193.0,1
234,234,0.730895968293732,0.7,1.0,1.0,429.0,760.0,1.0,1,241.0,1
235,235,0.5796182597444087,0.6,1.0,1.0,277.0,603.0,1.0,1,340.0,1
236,236,0.5794975543777184,0.6,0.0,0.0,473.0,886.0,0.0,1,191.0,1
237,237,-0.30611821005192685,-0.3,0.0,1.0,458.0,759.0,1.0,0,243.0,1
238,238,-0.18092745325452997,-0.2,0.0,1.0,330.0,952.0,1.0,0,308.0,1
239,239,-0.8762518975597662,-0.9,0.0,1.0,400.0,719.0,1.0,0,171.0,1
240,240,-0.12493944404553314,-0.1,1.0,0.0,377.0,728.0,0.0,0,325.0,1
241,241,0.7803470737043324,0.8,1.0,1.0,435.0,583.0,1.0,1,372.0,1
242,242,-0.7587895055251435,-0.8,0.0,1.0,253.0,540.0,1.0,0,347.0,1
243,243,0.12573606573699803,0.1,0.0,0.0,334.0,574.0,0.0,1,652.0,1
244,244,0.8128002218667748,0.8,0.0,0.0,418.0,751.0,0.0,1,201.0,1
245,245,0.1484814859960467,0.1,1.0,1.0,362.0,649.0,1.0,1,459.0,1
246,246,0.10823723474749813,0.1,0.0,0.0,377.0,567.0,0.0,1,496.0,1
247,247,0.5839431583660805,0.6,1.0,1.0,348.0,522.0,1.0,1,210.0,1
248,248,-0.5512591015710384,-0.6,0.0,1.0,340.0,582.0,1.0,0,318.0,1
249,249,-0.520945943592547,-0.5,1.0,0.0,459.0,801.0,0.0,0,460.0,1
250,250,-0.6344163784084978,-0.6,1.0,0.0,446.0,702.0,0.0,0,172.0,1
251,251,-0.09528051058610232,-0.1,1.0,0.0,393.0,919.0,0.0,0,248.0,1
252,252,0.7306933512076922,0.7,0.0,0.0,392.0,795.0,0.0,1,193.0,1
253,253,-0.1928947553552447,-0.2,0.0,1.0,252.0,814.0,1.0,0,374.0,1
254,254,0.8238258907353172,0.8,0.0,0.0,250.0,519.0,0.0,1,241.0,1
255,255,-0.7620547260792521,-0.8,1.0,0.0,394.0,558.0,0.0,0,308.0,1
256,256,0.021011161265452105,0.0,0.0,0.0,410.0,879.0,0.0,1,2611.0,1
257,257,-0.5355690063384944,-0.5,0.0,1.0,488.0,728.0,1.0,0,304.0,1
258,258,-0.07382099158785804,-0.1,1.0,0.0,252.0,582.0,0.0,0,856.0,1
259,259,-0.8637874450119629,-0.9,0.0,1.0,408.0,964.0,1.0,0,78.0,1
260,260,0.11619521835627411,0.1,0.0,0.0,389.0,982.0,0.0,1,159.0,1
261,261,-0.8423869347779699,-0.8,0.0,1.0,463.0,728.0,1.0,0,469.0,1
262,262,-0.5330227502765612,-0.5,0.0,1.0,448.0,710.0,1.0,0,252.0,1
263,263,-0.20452229166534242,-0.2,1.0,0.0,260.0,999.0,0.0,0,411.0,1
264,264,0.3254792550308089,0.3,1.0,1.0,401.0,715.0,1.0,1,684.0,1
265,265,-0.8336487018273714,-0.8,0.0,1.0,469.0,608.0,1.0,0,343.0,1
266,266,-0.04731999702119061,-0.0,1.0,0.0,412.0,912.0,0.0,0,1106.0,1
267,267,0.5660535643259025,0.6,1.0,1.0,398.0,705.0,1.0,1,217.0,1
268,268,-0.6144116343025032,-0.6,1.0,0.0,488.0,554.0,0.0,0,278.0,1
269,269,-0.5737639307028335,-0.6,1.0,0.0,271.0,605.0,0.0,0,274.0,1
270,270,-0.39397810408109524,-0.4,1.0,0.0,456.0,786.0,0.0,0,228.0,1
271,271,0.8144993912844632,0.8,0.0,0.0,256.0,846.0,0.0,1,198.0,1
272,272,0.1409978908478976,0.1,1.0,1.0,261.0,681.0,1.0,1,378.0,1
273,273,-0.48243503633678364,-0.5,0.0,1.0,266.0,597.0,1.0,0,577.0,1
274,274,0.36733559405806415,0.4,0.0,0.0,277.0,775.0,0.0,1,238.0,1
275,275,-0.6478844694850832,-0.6,0.0,1.0,411.0,694.0,1.0,0,265.0,1
276,276,-0.012666693032920895,-0.0,0.0,1.0,251.0,747.0,1.0,0,1572.0,1
277,277,0.3975797151520838,0.4,1.0,1.0,427.0,834.0,1.0,1,199.0,1
278,278,-0.7946318867849539,-0.8,1.0,0.0,408.0,724.0,0.0,0,168.0,1
279,279,-0.045632527715325444,-0.0,0.0,1.0,317.0,963.0,1.0,0,880.0,1
280,280,-0.5156660995075015,-0.5,0.0,1.0,289.0,693.0,1.0,0,318.0,1
281,281,-0.1814187486439791,-0.2,0.0,1.0,346.0,919.0,1.0,0,265.0,1
282,282,0.31140334407986126,0.3,0.0,0.0,397.0,670.0,0.0,1,233.0,1
283,283,-0.8939213828674643,-0.9,0.0,1.0,363.0,590.0,1.0,0,357.0,1
284,284,-0.6742274731887351,-0.7,0.0,1.0,489.0,661.0,1.0,0,220.0,1
285,285,0.2051209277042937,0.2,1.0,1.0,296.0,584.0,1.0,1,890.0,1
286,286,-0.04247853168962901,-0.0,1.0,0.0,298.0,629.0,0.0,0,763.0,1
287,287,-0.09983971783608159,-0.1,0.0,1.0,486.0,909.0,1.0,0,1075.0,1
288,288,0.5322908433414316,0.5,1.0,1.0,316.0,733.0,1.0,1,261.0,1
289,289,-0.7327808088579105,-0.7,1.0,0.0,358.0,846.0,0.0,0,86.0,1
290,290,0.3566078767681472,0.4,0.0,0.0,418.0,690.0,0.0,1,182.0,1
291,291,-0.7967864157025685,-0.8,0.0,1.0,493.0,724.0,1.0,0,193.0,1
292,292,-0.4768226056606873,-0.5,0.0,1.0,384.0,897.0,1.0,0,139.0,1
293,293,0.8917984335080379,0.9,0.0,0.0,454.0,686.0,0.0,1,170.0,1
294,294,0.4761785421059771,0.5,1.0,1.0,327.0,578.0,1.0,1,465.0,1
295,295,0.3204366466514631,0.3,0.0,0.0,255.0,661.0,0.0,1,434.0,1
296,296,-0.8109943987630267,-0.8,0.0,1.0,330.0,565.0,1.0,0,335.0,1
297,297,0.7511762701903316,0.8,1.0,1.0,305.0,762.0,1.0,1,163.0,1
298,298,-0.6127743435146495,-0.6,1.0,0.0,270.0,869.0,0.0,0,251.0,1
299,299,-0.71264304226017,-0.7,0.0,1.0,478.0,880.0,1.0,0,292.0,1
300,300,0.6176568137447059,0.6,0.0,0.0,435.0,721.0,0.0,1,164.0,1
301,301,0.36345234409843596,0.4,0.0,0.0,471.0,942.0,0.0,1,137.0,1
302,302,-0.6001359923743504,-0.6,1.0,0.0,261.0,625.0,0.0,0,384.0,1
303,303,0.6457879095297593,0.6,0.0,0.0,266.0,606.0,0.0,1,238.0,1
304,304,-0.6269792751976551,-0.6,1.0,0.0,423.0,594.0,0.0,0,343.0,1
305,305,0.22751050345363633,0.2,1.0,1.0,360.0,511.0,1.0,1,359.0,1
306,306,-0.2931907167333614,-0.3,0.0,1.0,400.0,786.0,1.0,0,214.0,1
307,307,-0.4341792212510032,-0.4,1.0,0.0,474.0,668.0,0.0,0,388.0,1
308,308,-0.7934974516523954,-0.8,1.0,0.0,332.0,678.0,0.0,0,210.0,1
309,309,0.7610049462643599,0.8,1.0,1.0,415.0,518.0,1.0,1,287.0,1
310,310,0.24697502025982876,0.2,0.0,0.0,364.0,719.0,0.0,1,347.0,1
311,311,-0.37791628953236667,-0.4,0.0,1.0,452.0,905.0,1.0,0,183.0,1
312,312,-0.7050930138753909,-0.7,0.0,1.0,253.0,733.0,1.0,0,224.0,1
313,313,-0.31685641887173455,-0.3,0.0,1.0,284.0,913.0,1.0,0,183.0,1
314,314,0.6524188293386485,0.7,1.0,1.0,488.0,812.0,1.0,1,320.0,1
315,315,-0.40631953499462803,-0.4,0.0,1.0,281.0,819.0,1.0,0,180.0,1
316,316,-0.4136251033071194,-0.4,1.0,0.0,482.0,767.0,0.0,0,191.0,1
317,317,-0.6575162360947947,-0.7,1.0,0.0,358.0,764.0,0.0,0,188.0,1
318,318,-0.7913968575561944,-0.8,0.0,1.0,397.0,500.0,1.0,0,363.0,1
319,319,-0.09030244841459034,-0.1,0.0,1.0,435.0,725.0,1.0,0,440.0,1
320,320,-0.5067825318380976,-0.5,0.0,1.0,280.0,676.0,1.0,0,254.0,1
321,321,0.6477776194056298,0.6,1.0,1.0,455.0,961.0,1.0,1,124.0,1
322,322,0.861420401293172,0.9,1.0,1.0,288.0,593.0,1.0,1,259.0,1
323,323,-0.7380567351691918,-0.7,1.0,0.0,442.0,953.0,0.0,0,105.0,1
324,324,-0.3393692034280379,-0.3,1.0,0.0,313.0,695.0,0.0,0,322.0,1
325,325,-0.30958734764205076,-0.3,0.0,1.0,316.0,616.0,1.0,0,258.0,1
326,326,-0.5332403793005731,-0.5,1.0,0.0,395.0,504.0,0.0,0,211.0,1
327,327,-0.09321644195381695,-0.1,0.0,1.0,462.0,870.0,1.0,0,448.0,1
328,328,0.12566108345196703,0.1,0.0,0.0,320.0,618.0,0.0,1,672.0,1
329,329,0.2089649329544182,0.2,1.0,1.0,353.0,681.0,1.0,1,346.0,1
330,330,0.3822897585045314,0.4,0.0,0.0,328.0,795.0,0.0,1,417.0,1
331,331,0.6881031497551581,0.7,1.0,1.0,354.0,665.0,1.0,1,231.0,1
332,332,0.4980614485891167,0.5,1.0,1.0,446.0,935.0,1.0,1,139.0,1
333,333,0.5827387451248006,0.6,1.0,1.0,394.0,854.0,1.0,1,82.0,1
334,334,-0.4089634347150757,-0.4,1.0,0.0,416.0,732.0,0.0,0,532.0,1
335,335,-0.5515438806271977,-0.6,1.0,0.0,444.0,615.0,0.0,0,241.0,1
336,336,-0.4537554733532566,-0.5,1.0,0.0,277.0,787.0,0.0,0,346.0,1
337,337,-0.648675951079575,-0.6,0.0,1.0,290.0,633.0,1.0,0,307.0,1
338,338,-0.37691869246670107,-0.4,0.0,1.0,489.0,920.0,1.0,0,191.0,1
339,339,0.04806764252588447,0.0,0.0,0.0,385.0,905.0,0.0,1,520.0,1
340,340,-0.2818446602437802,-0.3,0.0,1.0,487.0,566.0,1.0,0,457.0,1
341,341,-0.5271303304728376,-0.5,1.0,0.0,292.0,511.0,0.0,0,517.0,1
342,342,0.2224594267184984,0.2,0.0,0.0,440.0,730.0,0.0,1,360.0,1
343,343,-0.6536352273901478,-0.7,0.0,1.0,302.0,591.0,1.0,0,277.0,1
344,344,-0.2553622963838813,-0.3,0.0,1.0,370.0,718.0,1.0,0,342.0,1
345,345,-0.6789733454231983,-0.7,1.0,0.0,274.0,826.0,0.0,0,210.0,1
346,346,0.5760379343401533,0.6,0.0,0.0,444.0,919.0,0.0,1,187.0,1
347,347,0.697618893287128,0.7,1.0,1.0,330.0,911.0,1.0,1,229.0,1
348,348,0.3175291645136181,0.3,1.0,1.0,315.0,753.0,1.0,1,322.0,1
349,349,-0.8565019856665318,-0.9,0.0,1.0,468.0,814.0,1.0,0,128.0,1
350,350,-0.01947969289970297,-0.0,0.0,1.0,269.0,859.0,1.0,0,862.0,1
351,351,-0.7454602999205477,-0.7,1.0,0.0,441.0,776.0,0.0,0,193.0,1
352,352,0.19594752977409613,0.2,1.0,1.0,304.0,692.0,1.0,1,334.0,1
353,353,-0.03404446927488658,-0.0,1.0,0.0,284.0,858.0,0.0,0,1788.0,1
354,354,-0.2522701124280964,-0.3,1.0,0.0,410.0,771.0,0.0,0,309.0,1
355,355,-0.8572066926192896,-0.9,1.0,0.0,455.0,516.0,0.0,0,359.0,1
356,356,0.1740751497388381,0.2,0.0,0.0,343.0,865.0,0.0,1,232.0,1
357,357,0.7174826172608156,0.7,0.0,0.0,344.0,921.0,0.0,1,345.0,1
358,358,0.662278498988622,0.7,0.0,0.0,365.0,906.0,0.0,1,109.0,1
359,359,0.29100205467593077,0.3,1.0,1.0,397.0,534.0,1.0,1,1079.0,1
360,360,0.7021234805725126,0.7,1.0,1.0,253.0,956.0,1.0,1,91.0,1
361,361,-0.20351670720395398,-0.2,0.0,1.0,264.0,770.0,1.0,0,216.0,1
362,362,-0.18816127577826014,-0.2,0.0,1.0,387.0,992.0,1.0,0,151.0,1
363,363,-0.4562415378903584,-0.5,1.0,0.0,289.0,544.0,0.0,0,427.0,1
364,364,0.510999585199477,0.5,1.0,1.0,415.0,651.0,1.0,1,244.0,1
365,365,0.6149307547193844,0.6,0.0,0.0,320.0,581.0,0.0,1,319.0,1
366,366,-0.8091178298929161,-0.8,1.0,0.0,300.0,741.0,0.0,0,189.0,1
367,367,-0.172939126541385,-0.2,1.0,0.0,439.0,595.0,0.0,0,306.0,1
368,368,0.7276971780057472,0.7,0.0,0.0,397.0,927.0,0.0,1,156.0,1
369,369,0.2963198729625848,0.3,0.0,0.0,260.0,675.0,0.0,1,265.0,1
370,370,0.05078378511792703,0.1,1.0,1.0,431.0,665.0,1.0,1,434.0,1
371,371,-0.14744590812236802,-0.1,1.0,0.0,383.0,702.0,0.0,0,505.0,1
372,372,0.1044627265159751,0.1,0.0,0.0,478.0,556.0,0.0,1,566.0,1
373,373,0.49750112758783527,0.5,1.0,1.0,443.0,738.0,1.0,1,159.0,1
374,374,-0.5664389276366142,-0.6,0.0,1.0,365.0,997.0,1.0,0,98.0,1
375,375,0.5203084207801024,0.5,1.0,1.0,302.0,781.0,1.0,1,187.0,1
376,376,0.1078439117086013,0.1,1.0,1.0,339.0,867.0,1.0,1,634.0,1
377,377,0.42415806305533,0.4,1.0,1.0,337.0,634.0,1.0,1,219.0,1
378,378,0.5984265713790703,0.6,1.0,1.0,313.0,761.0,1.0,1,146.0,1
379,379,-0.05805045900334893,-0.1,1.0,0.0,267.0,988.0,0.0,0,295.0,1
380,380,0.7797144417713161,0.8,1.0,1.0,393.0,525.0,1.0,1,382.0,1
381,381,0.4667324543507284,0.5,1.0,1.0,352.0,745.0,1.0,1,203.0,1
382,382,0.8118599624080555,0.8,1.0,1.0,430.0,682.0,1.0,1,338.0,1
383,383,0.5523004426234545,0.6,1.0,1.0,295.0,840.0,1.0,1,175.0,1
384,384,0.22020573190682058,0.2,1.0,1.0,457.0,924.0,1.0,1,309.0,1
385,385,-0.18402820599019232,-0.2,1.0,0.0,337.0,616.0,0.0,0,517.0,1
386,386,0.871035741913215,0.9,1.0,1.0,477.0,981.0,1.0,1,112.0,1
387,387,-0.7340638314688938,-0.7,1.0,0.0,409.0,666.0,0.0,0,235.0,1
388,388,0.7741294849843129,0.8,0.0,0.0,369.0,567.0,0.0,1,244.0,1
389,389,0.490306863933926,0.5,1.0,1.0,457.0,900.0,1.0,1,73.0,1
390,390,-0.08551926649788621,-0.1,0.0,1.0,460.0,702.0,1.0,0,1058.0,1
391,391,-0.8669930943264709,-0.9,1.0,0.0,407.0,792.0,0.0,0,421.0,1
392,392,-0.4467613883838349,-0.4,0.0,1.0,450.0,687.0,1.0,0,273.0,1
393,393,-0.5407341142697044,-0.5,0.0,1.0,460.0,720.0,1.0,0,280.0,1
394,394,0.40518921058891133,0.4,0.0,0.0,364.0,521.0,0.0,1,625.0,1
395,395,0.6469010736041679,0.6,0.0,0.0,391.0,863.0,0.0,1,126.0,1
396,396,-0.8426969627285135,-0.8,0.0,1.0,285.0,924.0,1.0,0,71.0,1
397,397,0.2810161698739798,0.3,1.0,1.0,395.0,642.0,1.0,1,223.0,1
398,398,-0.05238865941551585,-0.1,1.0,0.0,432.0,828.0,0.0,0,1230.0,1
399,399,-0.6614158426070081,-0.7,0.0,1.0,265.0,686.0,1.0,0,319.0,1
400,400,-0.09035824855171048,-0.1,1.0,0.0,370.0,812.0,0.0,0,698.0,1
401,401,-0.05071005336882539,-0.1,1.0,0.0,455.0,841.0,0.0,0,404.0,1
402,402,0.10012250973057901,0.1,0.0,0.0,477.0,850.0,0.0,1,303.0,1
403,403,-0.5656230927940167,-0.6,0.0,1.0,253.0,525.0,1.0,0,612.0,1
404,404,-0.29677808007799966,-0.3,1.0,0.0,461.0,704.0,0.0,0,215.0,1
405,405,-0.3090754258976708,-0.3,1.0,0.0,390.0,652.0,0.0,0,448.0,1
406,406,-0.1587896898636011,-0.2,1.0,0.0,479.0,838.0,0.0,0,213.0,1
407,407,0.7056361087765478,0.7,0.0,0.0,485.0,572.0,0.0,1,283.0,1
408,408,-0.02480784155707172,-0.0,0.0,1.0,451.0,532.0,1.0,0,1397.0,1
409,409,0.4880309625845619,0.5,1.0,1.0,391.0,711.0,1.0,1,238.0,1
410,410,0.5008724325981585,0.5,0.0,0.0,498.0,868.0,0.0,1,134.0,1
411,411,-0.04473622443594494,-0.0,1.0,0.0,317.0,576.0,0.0,0,937.0,1
412,412,-0.07045542311593278,-0.1,0.0,1.0,458.0,722.0,1.0,0,750.0,1
413,413,0.7634655855222544,0.8,0.0,0.0,301.0,778.0,0.0,1,261.0,1
414,414,0.3968089040645867,0.4,0.0,0.0,442.0,852.0,0.0,1,216.0,1
415,415,-0.03808816558927164,-0.0,0.0,1.0,312.0,661.0,1.0,0,2647.0,1
416,416,-0.6081517282555853,-0.6,1.0,0.0,468.0,856.0,0.0,0,156.0,1
417,417,0.0027235153325970707,0.0,1.0,1.0,293.0,677.0,1.0,1,1310.0,1
418,418,-0.2525598711984369,-0.3,0.0,1.0,486.0,585.0,1.0,0,419.0,1
419,419,-0.1388388806291021,-0.1,0.0,1.0,258.0,647.0,1.0,0,365.0,1
420,420,-0.05789143033469746,-0.1,1.0,0.0,371.0,909.0,0.0,0,200.0,1
421,421,-0.6961449533131465,-0.7,0.0,1.0,375.0,794.0,1.0,0,331.0,1
422,422,0.8138373569144005,0.8,0.0,0.0,356.0,698.0,0.0,1,136.0,1
423,423,0.46306358186880925,0.5,0.0,0.0,461.0,851.0,0.0,1,138.0,1
424,424,0.4210967466344203,0.4,1.0,1.0,395.0,963.0,1.0,1,112.0,1
425,425,-0.8697172126681512,-0.9,1.0,0.0,431.0,886.0,0.0,0,133.0,1
426,426,0.5515168561204186,0.6,1.0,1.0,278.0,585.0,1.0,1,377.0,1
427,427,-0.09927363017577229,-0.1,1.0,0.0,332.0,886.0,0.0,0,572.0,1
428,428,0.7505243961925369,0.8,1.0,1.0,468.0,742.0,1.0,1,390.0,1
429,429,0.44874410407150134,0.4,0.0,0.0,458.0,778.0,0.0,1,164.0,1
430,430,0.4123748596069411,0.4,1.0,1.0,408.0,972.0,1.0,1,140.0,1
431,431,0.8174779044805719,0.8,1.0,1.0,327.0,709.0,1.0,1,134.0,1
432,432,-0.06943228846534988,-0.1,0.0,1.0,467.0,729.0,1.0,0,394.0,1
433,433,-0.7636996692286444,-0.8,1.0,0.0,461.0,767.0,0.0,0,262.0,1
434,434,0.00937074026435325,0.0,0.0,0.0,280.0,527.0,1.0,0,4193.0,0
435,435,-0.05521262294751672,-0.1,0.0,1.0,372.0,915.0,1.0,0,543.0,1
436,436,0.1757461927134235,0.2,0.0,0.0,465.0,522.0,0.0,1,413.0,1
437,437,-0.013943587194370166,-0.0,0.0,1.0,397.0,504.0,1.0,0,1159.0,1
438,438,-0.2578244609759498,-0.3,1.0,0.0,278.0,527.0,0.0,0,475.0,1
439,439,-0.6182880710934902,-0.6,1.0,0.0,411.0,571.0,0.0,0,218.0,1
440,440,0.03235104313001802,0.0,1.0,1.0,400.0,859.0,1.0,1,1211.0,1
441,441,0.8854997779390609,0.9,1.0,1.0,384.0,635.0,1.0,1,281.0,1
442,442,-0.15481651248221795,-0.2,0.0,1.0,355.0,745.0,1.0,0,340.0,1
443,443,-0.2150338433520287,-0.2,0.0,1.0,466.0,722.0,1.0,0,392.0,1
444,444,-0.5515129485342676,-0.6,0.0,1.0,310.0,803.0,1.0,0,247.0,1
445,445,0.6141753013247823,0.6,1.0,1.0,316.0,591.0,1.0,1,273.0,1
446,446,0.6597658320544494,0.7,1.0,1.0,266.0,810.0,1.0,1,114.0,1
447,447,-0.14394899201833022,-0.1,1.0,0.0,299.0,764.0,0.0,0,327.0,1
448,448,-0.5677103009786166,-0.6,0.0,1.0,349.0,751.0,1.0,0,390.0,1
449,449,-0.6279463242902218,-0.6,0.0,1.0,459.0,513.0,1.0,0,428.0,1
450,450,-0.8434420598449426,-0.8,0.0,1.0,274.0,919.0,1.0,0,67.0,1
451,451,-0.8400127159036932,-0.8,1.0,0.0,260.0,955.0,0.0,0,175.0,1
452,452,-0.212065199103314,-0.2,1.0,0.0,492.0,841.0,0.0,0,167.0,1
453,453,0.15776336486052112,0.2,0.0,0.0,331.0,933.0,0.0,1,256.0,1
454,454,-0.3780958520027661,-0.4,1.0,0.0,494.0,681.0,0.0,0,235.0,1
455,455,-0.8364937072420124,-0.8,1.0,0.0,378.0,897.0,0.0,0,45.0,1
456,456,0.37301611022030035,0.4,1.0,1.0,291.0,783.0,1.0,1,316.0,1
457,457,-0.6306380616660964,-0.6,1.0,0.0,498.0,760.0,0.0,0,302.0,1
458,458,0.655630767327721,0.7,0.0,0.0,382.0,986.0,0.0,1,82.0,1
459,459,0.5700793301360184,0.6,1.0,1.0,302.0,866.0,1.0,1,172.0,1
460,460,-0.8083734865292064,-0.8,0.0,1.0,458.0,847.0,1.0,0,105.0,1
461,461,0.8942117455328856,0.9,1.0,1.0,385.0,923.0,1.0,1,342.0,1
462,462,0.45244841609553543,0.5,0.0,0.0,344.0,538.0,0.0,1,358.0,1
463,463,-0.7436076388472308,-0.7,1.0,0.0,391.0,785.0,0.0,0,284.0,1
464,464,0.3212225692723091,0.3,0.0,0.0,335.0,812.0,0.0,1,213.0,1
465,465,0.1514293482860759,0.2,0.0,0.0,260.0,606.0,0.0,1,384.0,1
466,466,0.8199535983991583,0.8,0.0,0.0,368.0,545.0,0.0,1,377.0,1
467,467,-0.7260579978536277,-0.7,1.0,0.0,365.0,704.0,0.0,0,211.0,1
468,468,0.44579017767153484,0.4,1.0,1.0,301.0,662.0,1.0,1,267.0,1
469,469,0.09411314162658735,0.1,0.0,0.0,442.0,555.0,0.0,1,493.0,1
470,470,-0.6571392629841689,-0.7,1.0,0.0,347.0,935.0,0.0,0,208.0,1
471,471,-0.24242955516364717,-0.2,1.0,0.0,289.0,778.0,0.0,0,493.0,1
472,472,0.6453985930862939,0.6,0.0,0.0,375.0,828.0,0.0,1,197.0,1
473,473,-0.7677852733574528,-0.8,1.0,0.0,490.0,782.0,0.0,0,258.0,1
474,474,0.20138581101934505,0.2,1.0,1.0,493.0,589.0,1.0,1,538.0,1
475,475,-0.0009856119744477976,-0.0,0.0,1.0,321.0,671.0,0.0,1,3898.0,0
476,476,0.3234839322444235,0.3,1.0,1.0,457.0,748.0,1.0,1,205.0,1
477,477,0.6485643343885595,0.6,1.0,1.0,475.0,816.0,1.0,1,139.0,1
478,478,-0.8293288773969514,-0.8,0.0,1.0,367.0,510.0,1.0,0,333.0,1
479,479,-0.08489752922101668,-0.1,1.0,0.0,418.0,845.0,0.0,0,367.0,1
480,480,0.016582263925887686,0.0,0.0,0.0,383.0,822.0,0.0,1,1695.0,1
481,481,-0.3762333475747497,-0.4,1.0,0.0,257.0,694.0,0.0,0,369.0,1
482,482,0.8103731540584794,0.8,0.0,0.0,378.0,957.0,0.0,1,135.0,1
483,483,-0.23303167722818618,-0.2,0.0,1.0,409.0,759.0,1.0,0,342.0,1
484,484,0.1415026230208597,0.1,1.0,1.0,448.0,981.0,1.0,1,441.0,1
485,485,0.14383084912690702,0.1,1.0,1.0,452.0,710.0,1.0,1,308.0,1
486,486,-0.7605744521030301,-0.8,0.0,1.0,289.0,757.0,1.0,0,424.0,1
487,487,-0.23815035654287364,-0.2,1.0,0.0,311.0,903.0,0.0,0,126.0,1
488,488,0.24655141708963824,0.2,0.0,0.0,395.0,895.0,0.0,1,260.0,1
489,489,0.11926666483513493,0.1,1.0,1.0,310.0,769.0,1.0,1,511.0,1
490,490,-0.6805746269361036,-0.7,0.0,1.0,497.0,964.0,1.0,0,159.0,1
491,491,0.4049563343248087,0.4,0.0,0.0,358.0,554.0,0.0,1,418.0,1
492,492,0.691867846891779,0.7,0.0,0.0,377.0,611.0,0.0,1,382.0,1
493,493,0.05777739759227496,0.1,1.0,1.0,292.0,764.0,1.0,1,534.0,1
494,494,-0.04160822682530452,-0.0,1.0,0.0,384.0,552.0,0.0,0,654.0,1
495,495,0.677820671720983,0.7,0.0,0.0,336.0,525.0,0.0,1,369.0,1
496,496,0.8475901020454498,0.8,1.0,1.0,299.0,640.0,1.0,1,291.0,1
497,497,-0.25394525655261235,-0.3,1.0,0.0,469.0,734.0,0.0,0,257.0,1
498,498,0.15543445891807128,0.2,1.0,1.0,345.0,528.0,1.0,1,517.0,1
499,499,0.5414463582979702,0.5,0.0,0.0,327.0,806.0,0.0,1,157.0,1
500,500,-0.7014327322456482,-0.7,1.0,0.0,357.0,557.0,0.0,0,196.0,1
501,501,0.8706936367743706,0.9,1.0,1.0,493.0,773.0,1.0,1,144.0,1
502,502,-0.21004755707072476,-0.2,0.0,1.0,400.0,597.0,1.0,0,243.0,1
503,503,-0.6495515939942627,-0.6,1.0,0.0,401.0,918.0,0.0,0,271.0,1
504,504,-0.5438465395075918,-0.5,0.0,1.0,327.0,823.0,1.0,0,170.0,1
505,505,0.0350531317015077,0.0,0.0,0.0,466.0,520.0,0.0,1,1144.0,1
506,506,-0.44653131347507696,-0.4,1.0,0.0,427.0,604.0,0.0,0,379.0,1
507,507,0.500981818518292,0.5,0.0,0.0,289.0,531.0,0.0,1,260.0,1
508,508,-0.8097605091059046,-0.8,0.0,1.0,428.0,715.0,1.0,0,277.0,1
509,509,-0.5978032323354983,-0.6,0.0,1.0,261.0,513.0,1.0,0,316.0,1
510,510,-0.7784905427203782,-0.8,1.0,0.0,328.0,808.0,0.0,0,214.0,1
511,511,-0.637369434678826,-0.6,0.0,1.0,443.0,746.0,1.0,0,231.0,1
512,512,0.2971057323821854,0.3,0.0,0.0,399.0,677.0,0.0,1,194.0,1
513,513,-0.6922902922131602,-0.7,1.0,0.0,399.0,750.0,0.0,0,171.0,1
514,514,-0.015280349907448754,-0.0,1.0,0.0,335.0,897.0,0.0,0,2308.0,1
515,515,-0.817552567780364,-0.8,1.0,0.0,462.0,678.0,0.0,0,190.0,1
516,516,-0.7028278316346582,-0.7,1.0,0.0,422.0,987.0,0.0,0,71.0,1
517,517,0.07238867432179785,0.1,0.0,0.0,404.0,533.0,0.0,1,533.0,1
518,518,0.09155807235389213,0.1,0.0,0.0,325.0,971.0,0.0,1,284.0,1
519,519,-0.8526708672630039,-0.9,1.0,0.0,265.0,543.0,0.0,0,192.0,1
520,520,-0.38146175161270013,-0.4,1.0,0.0,486.0,676.0,0.0,0,298.0,1
521,521,-0.8281711302511999,-0.8,0.0,1.0,254.0,537.0,1.0,0,239.0,1
522,522,0.35080334733118834,0.4,1.0,1.0,342.0,758.0,1.0,1,370.0,1
523,523,-0.3629382267340805,-0.4,0.0,1.0,483.0,789.0,1.0,0,228.0,1
524,524,-0.215757680319704,-0.2,0.0,1.0,371.0,798.0,1.0,0,351.0,1
525,525,-0.5593486194704297,-0.6,1.0,0.0,439.0,946.0,0.0,0,125.0,1
526,526,0.30240484607036844,0.3,1.0,1.0,411.0,599.0,1.0,1,340.0,1
527,527,0.023070004542938283,0.0,0.0,0.0,361.0,879.0,0.0,1,410.0,1
528,528,0.19965434224746448,0.2,1.0,1.0,467.0,741.0,1.0,1,412.0,1
529,529,-0.6917854593644681,-0.7,0.0,1.0,449.0,992.0,1.0,0,109.0,1
530,530,-0.30280553163610124,-0.3,1.0,0.0,350.0,554.0,0.0,0,496.0,1
531,531,-0.011616924559222586,-0.0,1.0,0.0,426.0,953.0,0.0,0,1061.0,1
532,532,-0.7425193963587641,-0.7,0.0,1.0,442.0,571.0,1.0,0,237.0,1
533,533,-0.5190035588466437,-0.5,0.0,1.0,315.0,698.0,1.0,0,177.0,1
534,534,0.8164818272870807,0.8,0.0,0.0,373.0,633.0,0.0,1,194.0,1
535,535,0.3627050806351769,0.4,0.0,0.0,474.0,917.0,0.0,1,169.0,1
536,536,-0.09118897827635064,-0.1,0.0,1.0,268.0,522.0,1.0,0,510.0,1
537,537,0.4956326916235244,0.5,0.0,0.0,474.0,755.0,0.0,1,301.0,1
538,538,-0.6122839238427841,-0.6,0.0,1.0,440.0,972.0,1.0,0,108.0,1
539,539,-0.2315297090477355,-0.2,1.0,0.0,365.0,546.0,0.0,0,519.0,1
540,540,-0.056781356413836304,-0.1,0.0,1.0,381.0,839.0,1.0,0,660.0,1
541,541,-0.11146315618958669,-0.1,0.0,1.0,480.0,637.0,1.0,0,423.0,1
542,542,-0.8643089176942305,-0.9,1.0,0.0,444.0,866.0,0.0,0,170.0,1
543,543,0.16026464526395634,0.2,0.0,0.0,438.0,855.0,0.0,1,277.0,1
544,544,0.7548067944611688,0.8,0.0,0.0,296.0,608.0,0.0,1,166.0,1
545,545,-0.07646912393911076,-0.1,1.0,0.0,438.0,792.0,0.0,0,370.0,1
546,546,0.8549098897491131,0.9,1.0,1.0,431.0,585.0,1.0,1,294.0,1
547,547,0.12083412723997211,0.1,0.0,0.0,306.0,560.0,0.0,1,344.0,1
548,548,-0.5374324424759815,-0.5,0.0,1.0,310.0,939.0,1.0,0,141.0,1
549,549,0.2125786029417528,0.2,0.0,0.0,475.0,501.0,0.0,1,324.0,1
550,550,-0.4194810580550325,-0.4,0.0,1.0,298.0,928.0,1.0,0,174.0,1
551,551,0.7112960884010949,0.7,0.0,0.0,486.0,552.0,0.0,1,212.0,1
552,552,0.8924897598114628,0.9,1.0,1.0,418.0,602.0,1.0,1,290.0,1
553,553,0.6502007546142187,0.7,1.0,1.0,348.0,504.0,1.0,1,288.0,1
554,554,0.3959355726801165,0.4,0.0,0.0,449.0,740.0,0.0,1,191.0,1
555,555,-0.42252757301532906,-0.4,1.0,0.0,257.0,808.0,0.0,0,195.0,1
556,556,-0.5286125152249261,-0.5,1.0,0.0,396.0,799.0,0.0,0,485.0,1
557,557,0.06409021599468556,0.1,0.0,0.0,463.0,624.0,0.0,1,983.0,1
558,558,-0.5411492287602127,-0.5,1.0,0.0,422.0,682.0,0.0,0,456.0,1
559,559,-0.03446028734188966,-0.0,0.0,1.0,382.0,784.0,1.0,0,484.0,1
560,560,-0.8190111036944508,-0.8,0.0,1.0,315.0,845.0,1.0,0,260.0,1
561,561,0.875878741397132,0.9,0.0,0.0,279.0,953.0,0.0,1,128.0,1
562,562,-0.13860929272567346,-0.1,0.0,1.0,353.0,573.0,1.0,0,644.0,1
563,563,0.2102275171756377,0.2,0.0,0.0,281.0,792.0,0.0,1,257.0,1
564,564,0.6548025328113151,0.7,0.0,0.0,398.0,853.0,0.0,1,109.0,1
565,565,0.522381310570247,0.5,0.0,0.0,391.0,640.0,0.0,1,259.0,1
566,566,-0.6720116344801392,-0.7,0.0,1.0,318.0,971.0,1.0,0,131.0,1
567,567,-0.5874114318802746,-0.6,1.0,0.0,400.0,967.0,0.0,0,63.0,1
568,568,0.7583917155815475,0.8,0.0,0.0,348.0,619.0,0.0,1,263.0,1
569,569,0.06033401923454895,0.1,0.0,0.0,445.0,700.0,0.0,1,605.0,1
570,570,0.17718775893791971,0.2,0.0,0.0,349.0,667.0,0.0,1,254.0,1
571,571,-0.11387346682243071,-0.1,0.0,1.0,343.0,700.0,1.0,0,357.0,1
572,572,-0.27082332465690895,-0.3,1.0,0.0,266.0,618.0,0.0,0,366.0,1
573,573,-0.048228695722475456,-0.0,0.0,1.0,298.0,623.0,1.0,0,959.0,1
574,574,-0.3512110552495934,-0.4,0.0,1.0,289.0,639.0,1.0,0,342.0,1
575,575,0.4899284769289268,0.5,0.0,0.0,441.0,559.0,0.0,1,180.0,1
576,576,0.5045522691954457,0.5,0.0,0.0,349.0,990.0,0.0,1,151.0,1
577,577,0.6224142841940182,0.6,0.0,0.0,377.0,817.0,0.0,1,126.0,1
578,578,-0.8333333277990428,-0.8,1.0,0.0,377.0,504.0,0.0,0,289.0,1
579,579,0.5654109455538668,0.6,1.0,1.0,364.0,731.0,1.0,1,285.0,1
580,580,-0.14490019403209986,-0.1,0.0,1.0,485.0,685.0,1.0,0,410.0,1
581,581,-0.8466916699944856,-0.8,1.0,0.0,417.0,968.0,0.0,0,285.0,1
582,582,0.5234590085557015,0.5,0.0,0.0,374.0,999.0,0.0,1,127.0,1
583,583,0.4541555211004692,0.5,1.0,1.0,330.0,677.0,1.0,1,293.0,1
584,584,-0.3354936309462787,-0.3,1.0,0.0,282.0,994.0,0.0,0,114.0,1
585,585,0.8857396449460205,0.9,1.0,1.0,304.0,733.0,1.0,1,253.0,1
586,586,-0.1673734630512549,-0.2,0.0,1.0,471.0,513.0,1.0,0,466.0,1
587,587,0.48400863149677675,0.5,1.0,1.0,314.0,806.0,1.0,1,220.0,1
588,588,0.30311504044938087,0.3,1.0,1.0,420.0,627.0,1.0,1,323.0,1
589,589,0.27757039434584885,0.3,0.0,0.0,416.0,546.0,0.0,1,458.0,1
590,590,0.566541301289904,0.6,0.0,0.0,381.0,772.0,0.0,1,187.0,1
591,591,0.8841549287267753,0.9,1.0,1.0,348.0,673.0,1.0,1,229.0,1
592,592,-0.11515951623534726,-0.1,0.0,1.0,314.0,703.0,1.0,0,773.0,1
593,593,-0.0054303133615597465,-0.0,1.0,0.0,381.0,771.0,0.0,0,2018.0,1
594,594,-0.42938670763011716,-0.4,1.0,0.0,400.0,911.0,0.0,0,129.0,1
595,595,0.45254045381305275,0.5,0.0,0.0,495.0,784.0,0.0,1,171.0,1
596,596,-0.4200529111229791,-0.4,0.0,1.0,280.0,782.0,1.0,0,478.0,1
597,597,0.23928327439455177,0.2,1.0,1.0,418.0,914.0,1.0,1,178.0,1
598,598,0.41145876647740554,0.4,1.0,1.0,406.0,907.0,1.0,1,527.0,1
599,599,-0.6400066001856246,-0.6,1.0,0.0,389.0,557.0,0.0,0,274.0,1
600,600,0.24950685889843138,0.2,0.0,0.0,274.0,819.0,0.0,1,277.0,1
601,601,0.48073262733922817,0.5,0.0,0.0,304.0,898.0,0.0,1,168.0,1
602,602,0.07465094105079695,0.1,1.0,1.0,366.0,601.0,1.0,1,763.0,1
603,603,0.6539681088304464,0.7,1.0,1.0,371.0,683.0,1.0,1,206.0,1
604,604,-0.7821900435390557,-0.8,0.0,1.0,369.0,817.0,1.0,0,264.0,1
605,605,-0.055376251862927384,-0.1,0.0,1.0,261.0,704.0,1.0,0,785.0,1
606,606,0.8446785993056473,0.8,1.0,1.0,492.0,527.0,1.0,1,221.0,1
607,607,-0.24293970852893954,-0.2,0.0,1.0,428.0,934.0,1.0,0,288.0,1
608,608,-0.4488529500485493,-0.4,1.0,0.0,303.0,660.0,0.0,0,277.0,1
609,609,0.8081924032177737,0.8,0.0,0.0,443.0,686.0,0.0,1,311.0,1
610,610,-0.29105349235904165,-0.3,0.0,1.0,376.0,757.0,1.0,0,267.0,1
611,611,0.8593729375071476,0.9,1.0,1.0,285.0,845.0,1.0,1,100.0,1
612,612,0.5173625781422578,0.5,0.0,0.0,485.0,800.0,0.0,1,145.0,1
613,613,-0.3849647946468405,-0.4,1.0,0.0,434.0,748.0,0.0,0,358.0,1
614,614,-0.3737479004597424,-0.4,1.0,0.0,353.0,602.0,0.0,0,245.0,1
615,615,-0.3042259656999786,-0.3,1.0,0.0,270.0,989.0,0.0,0,61.0,1
616,616,-0.6024293837049421,-0.6,0.0,1.0,348.0,850.0,1.0,0,152.0,1
617,617,-0.6938583038839679,-0.7,1.0,0.0,312.0,756.0,0.0,0,262.0,1
618,618,-0.3949795827270247,-0.4,0.0,1.0,456.0,808.0,1.0,0,296.0,1
619,619,-0.06467466325917737,-0.1,0.0,1.0,369.0,503.0,1.0,0,528.0,1
620,620,-0.3255746478863839,-0.3,0.0,1.0,432.0,521.0,1.0,0,347.0,1
621,621,-0.08108288192066093,-0.1,0.0,1.0,433.0,547.0,1.0,0,460.0,1
622,622,-0.7272100276722104,-0.7,0.0,1.0,315.0,973.0,1.0,0,42.0,1
623,623,-0.22952606277711218,-0.2,0.0,1.0,380.0,767.0,1.0,0,343.0,1
624,624,-0.897949016117127,-0.9,1.0,0.0,380.0,792.0,0.0,0,218.0,1
625,625,-0.09782354215420386,-0.1,1.0,0.0,499.0,511.0,0.0,0,410.0,1
626,626,0.7256286133776496,0.7,0.0,0.0,380.0,817.0,0.0,1,143.0,1
627,627,0.23429603557868972,0.2,1.0,1.0,460.0,865.0,1.0,1,205.0,1
628,628,0.4523119793236544,0.5,0.0,0.0,255.0,954.0,0.0,1,161.0,1
629,629,-0.49923957984159856,-0.5,1.0,0.0,346.0,648.0,0.0,0,386.0,1
630,630,0.8756985245921217,0.9,0.0,0.0,465.0,559.0,0.0,1,196.0,1
631,631,-0.8525714814725859,-0.9,0.0,1.0,496.0,517.0,1.0,0,387.0,1
632,632,-0.00719632581491747,-0.0,0.0,1.0,462.0,891.0,1.0,0,3647.0,1
633,633,2.6604757460857442e-05,0.0,1.0,1.0,335.0,611.0,1.0,1,4054.0,1
634,634,0.6925708389150799,0.7,1.0,1.0,474.0,599.0,1.0,1,327.0,1
635,635,-0.7354089101400034,-0.7,0.0,1.0,368.0,899.0,1.0,0,233.0,1
636,636,0.7228971611253859,0.7,0.0,0.0,462.0,643.0,0.0,1,175.0,1
637,637,-0.7599617810177699,-0.8,0.0,1.0,387.0,547.0,1.0,0,296.0,1
638,638,-0.6260098576462145,-0.6,1.0,0.0,376.0,907.0,0.0,0,207.0,1
639,639,-0.780014705483439,-0.8,1.0,0.0,434.0,510.0,0.0,0,266.0,1
640,640,0.40137576620744253,0.4,0.0,0.0,454.0,581.0,0.0,1,255.0,1
641,641,0.799439278648639,0.8,1.0,1.0,353.0,710.0,1.0,1,227.0,1
642,642,-0.5464007208196037,-0.5,1.0,0.0,381.0,936.0,0.0,0,203.0,1
643,643,0.6385098302132742,0.6,0.0,0.0,329.0,569.0,0.0,1,262.0,1
644,644,-0.5145590528400408,-0.5,0.0,1.0,471.0,900.0,1.0,0,279.0,1
645,645,-0.293162351523212,-0.3,1.0,0.0,291.0,525.0,0.0,0,334.0,1
646,646,0.6299190210831446,0.6,0.0,0.0,279.0,560.0,0.0,1,231.0,1
647,647,0.7097181169775418,0.7,1.0,1.0,448.0,766.0,1.0,1,96.0,1
648,648,0.8282724786537127,0.8,0.0,0.0,472.0,505.0,0.0,1,143.0,1
649,649,0.594139095428364,0.6,0.0,0.0,255.0,619.0,0.0,1,246.0,1
650,650,-0.022692794389410187,-0.0,1.0,0.0,479.0,580.0,0.0,0,2671.0,1
651,651,0.42367295455008314,0.4,0.0,0.0,392.0,719.0,0.0,1,239.0,1
652,652,0.6278421487641687,0.6,1.0,1.0,314.0,974.0,1.0,1,92.0,1
653,653,0.7193649967520707,0.7,0.0,0.0,402.0,809.0,0.0,1,149.0,1
654,654,0.04027065653003381,0.0,1.0,1.0,331.0,918.0,1.0,1,2061.0,1
655,655,0.5831422788037922,0.6,1.0,1.0,427.0,786.0,1.0,1,257.0,1
656,656,0.10047493713337297,0.1,0.0,0.0,339.0,776.0,0.0,1,615.0,1
657,657,-0.449648120069761,-0.4,1.0,0.0,474.0,788.0,0.0,0,168.0,1
658,658,0.2580698483138054,0.3,1.0,1.0,498.0,653.0,1.0,1,249.0,1
659,659,-0.4531648002457846,-0.5,0.0,1.0,355.0,929.0,1.0,0,96.0,1
660,660,-0.7597309979875931,-0.8,0.0,1.0,439.0,911.0,1.0,0,100.0,1
661,661,-0.5589669630071417,-0.6,0.0,1.0,303.0,720.0,1.0,0,307.0,1
662,662,-0.35864635271134815,-0.4,0.0,1.0,359.0,533.0,1.0,0,268.0,1
663,663,0.30647601759543075,0.3,1.0,1.0,274.0,974.0,1.0,1,172.0,1
664,664,-0.8020662214324091,-0.8,0.0,1.0,350.0,896.0,1.0,0,154.0,1
665,665,-0.7701554980058622,-0.8,0.0,1.0,286.0,965.0,1.0,0,169.0,1
666,666,0.35637642615180865,0.4,1.0,1.0,445.0,989.0,1.0,1,106.0,1
667,667,-0.5873350909678693,-0.6,0.0,1.0,293.0,559.0,1.0,0,368.0,1
668,668,-0.252450588784897,-0.3,0.0,1.0,427.0,824.0,1.0,0,209.0,1
669,669,-0.528636430753447,-0.5,0.0,1.0,433.0,808.0,1.0,0,199.0,1
670,670,-0.13256485137693086,-0.1,0.0,1.0,468.0,741.0,1.0,0,351.0,1
671,671,0.8658605090903883,0.9,1.0,1.0,272.0,604.0,1.0,1,504.0,1
672,672,0.6163226159037284,0.6,0.0,0.0,399.0,709.0,0.0,1,232.0,1
673,673,0.678867234544991,0.7,1.0,1.0,413.0,786.0,1.0,1,301.0,1
674,674,-0.22259090927056002,-0.2,0.0,1.0,481.0,664.0,1.0,0,375.0,1
675,675,0.07568438414727219,0.1,0.0,0.0,436.0,742.0,0.0,1,402.0,1
676,676,-0.36028061756491914,-0.4,0.0,1.0,260.0,925.0,1.0,0,225.0,1
677,677,-0.6779596950055881,-0.7,1.0,0.0,322.0,779.0,0.0,0,449.0,1
678,678,0.3752512817837558,0.4,0.0,0.0,251.0,514.0,0.0,1,405.0,1
679,679,0.0730223753672321,0.1,1.0,1.0,446.0,716.0,1.0,1,1118.0,1
680,680,-0.023509879377534126,-0.0,0.0,1.0,251.0,978.0,1.0,0,1121.0,1
681,681,0.821134114727574,0.8,1.0,1.0,404.0,557.0,1.0,1,309.0,1
682,682,-0.11390493232011989,-0.1,1.0,0.0,438.0,861.0,0.0,0,311.0,1
683,683,-0.3836179115235354,-0.4,0.0,1.0,482.0,521.0,1.0,0,397.0,1
684,684,0.07223071901712086,0.1,0.0,0.0,331.0,559.0,0.0,1,670.0,1
685,685,-0.3656505763475001,-0.4,1.0,0.0,401.0,678.0,0.0,0,251.0,1
686,686,-0.7703084661794154,-0.8,0.0,1.0,460.0,998.0,1.0,0,102.0,1
687,687,0.26248153353735637,0.3,1.0,1.0,312.0,623.0,1.0,1,315.0,1
688,688,0.4287230883778076,0.4,0.0,0.0,483.0,533.0,0.0,1,274.0,1
689,689,0.38657702591601273,0.4,0.0,0.0,459.0,595.0,0.0,1,566.0,1
690,690,0.5630100543143485,0.6,0.0,0.0,454.0,731.0,0.0,1,185.0,1
691,691,-0.2932616801377347,-0.3,1.0,0.0,298.0,655.0,0.0,0,287.0,1
692,692,-0.8619739819346207,-0.9,0.0,1.0,390.0,817.0,1.0,0,263.0,1
693,693,0.03492847694737322,0.0,0.0,0.0,282.0,839.0,0.0,1,459.0,1
694,694,-0.5960706408358842,-0.6,0.0,1.0,475.0,799.0,1.0,0,166.0,1
695,695,0.13567031528495044,0.1,0.0,0.0,477.0,804.0,0.0,1,229.0,1
696,696,-0.2357749179352704,-0.2,0.0,1.0,352.0,500.0,1.0,0,568.0,1
697,697,0.07430479700697978,0.1,1.0,1.0,286.0,900.0,1.0,1,544.0,1
698,698,-0.8280781095437024,-0.8,0.0,1.0,388.0,736.0,1.0,0,236.0,1
699,699,-0.07231664778627256,-0.1,0.0,1.0,294.0,877.0,1.0,0,729.0,1
700,700,0.252465098612355,0.3,1.0,1.0,403.0,695.0,1.0,1,462.0,1
701,701,0.1279187599709709,0.1,1.0,1.0,477.0,875.0,1.0,1,258.0,1
702,702,-0.6155122346339703,-0.6,1.0,0.0,334.0,816.0,0.0,0,170.0,1
703,703,0.8609280699948471,0.9,1.0,1.0,395.0,897.0,1.0,1,158.0,1
704,704,-0.5033650320784652,-0.5,1.0,0.0,421.0,849.0,0.0,0,210.0,1
705,705,-0.49615739080704274,-0.5,1.0,0.0,281.0,710.0,0.0,0,189.0,1
706,706,-0.8828092382990742,-0.9,1.0,0.0,312.0,986.0,0.0,0,102.0,1
707,707,-0.13310922073867404,-0.1,0.0,1.0,439.0,701.0,1.0,0,330.0,1
708,708,-0.8927753772660176,-0.9,0.0,1.0,472.0,763.0,1.0,0,185.0,1
709,709,-0.07340062199322317,-0.1,1.0,0.0,427.0,833.0,0.0,0,600.0,1
710,710,-0.6165016972081809,-0.6,1.0,0.0,426.0,795.0,0.0,0,169.0,1
711,711,0.8019069689064305,0.8,1.0,1.0,347.0,524.0,1.0,1,419.0,1
712,712,0.012005801412284245,0.0,1.0,1.0,462.0,884.0,1.0,1,2564.0,1
713,713,0.37717885648400784,0.4,1.0,1.0,437.0,912.0,1.0,1,161.0,1
714,714,0.8366135105516729,0.8,1.0,1.0,463.0,536.0,1.0,1,571.0,1
715,715,-0.08259349236179847,-0.1,0.0,1.0,377.0,521.0,1.0,0,582.0,1
716,716,-0.3306797502905985,-0.3,1.0,0.0,351.0,768.0,0.0,0,531.0,1
717,717,-0.6018323087069131,-0.6,1.0,0.0,280.0,756.0,0.0,0,184.0,1
718,718,-0.8111107541257261,-0.8,0.0,1.0,294.0,668.0,1.0,0,248.0,1
719,719,-0.5825184181788684,-0.6,1.0,0.0,322.0,782.0,0.0,0,146.0,1
720,720,0.14721271206700826,0.1,1.0,1.0,292.0,829.0,1.0,1,259.0,1
721,721,-0.73292054645608,-0.7,1.0,0.0,473.0,819.0,0.0,0,238.0,1
722,722,-0.0759154519452282,-0.1,1.0,0.0,409.0,783.0,0.0,0,278.0,1
723,723,-0.012243346024762292,-0.0,0.0,1.0,347.0,591.0,1.0,0,4062.0,1
724,724,-0.5862806046631921,-0.6,0.0,1.0,259.0,641.0,1.0,0,180.0,1
725,725,-0.5567823741600735,-0.6,1.0,0.0,394.0,603.0,0.0,0,293.0,1
726,726,-0.09023152801514744,-0.1,0.0,1.0,473.0,687.0,1.0,0,560.0,1
727,727,-0.15404248458477643,-0.2,1.0,0.0,359.0,939.0,0.0,0,242.0,1
728,728,0.8580325445211306,0.9,0.0,0.0,342.0,580.0,0.0,1,258.0,1
729,729,-0.03663143022307569,-0.0,0.0,1.0,278.0,882.0,1.0,0,800.0,1
730,730,-0.6888234019497668,-0.7,1.0,0.0,299.0,959.0,0.0,0,122.0,1
731,731,-0.5336627241740197,-0.5,1.0,0.0,275.0,530.0,0.0,0,525.0,1
732,732,-0.8830276727313752,-0.9,0.0,1.0,448.0,615.0,1.0,0,377.0,1
733,733,0.27268450624369767,0.3,1.0,1.0,330.0,674.0,1.0,1,286.0,1
734,734,0.01862922542350076,0.0,1.0,1.0,317.0,866.0,1.0,1,787.0,1
735,735,0.5773664083405922,0.6,1.0,1.0,381.0,834.0,1.0,1,185.0,1
736,736,-0.5974859402917136,-0.6,1.0,0.0,287.0,621.0,0.0,0,192.0,1
737,737,0.8226160516334106,0.8,0.0,0.0,447.0,588.0,0.0,1,175.0,1
738,738,-0.03875815867830479,-0.0,0.0,1.0,458.0,904.0,1.0,0,1468.0,1
739,739,0.7629607611487125,0.8,1.0,1.0,402.0,540.0,1.0,1,158.0,1
740,740,0.6431249806204843,0.6,1.0,1.0,403.0,632.0,1.0,1,205.0,1
741,741,-0.02091489476403796,-0.0,1.0,0.0,431.0,946.0,0.0,0,293.0,1
742,742,-0.19231547662857273,-0.2,0.0,1.0,456.0,936.0,1.0,0,48.0,1
743,743,0.004722398780610315,0.0,0.0,0.0,440.0,991.0,1.0,0,759.0,0
744,744,-0.45795686491929355,-0.5,1.0,0.0,338.0,867.0,0.0,0,115.0,1
745,745,0.34510578565274275,0.3,1.0,1.0,484.0,833.0,1.0,1,343.0,1
746,746,-0.5222934011743485,-0.5,0.0,1.0,445.0,822.0,1.0,0,213.0,1
747,747,0.7274655735631707,0.7,1.0,1.0,468.0,729.0,1.0,1,213.0,1
748,748,0.5092386594803041,0.5,1.0,1.0,279.0,577.0,1.0,1,234.0,1
749,749,-0.8530355252517067,-0.9,0.0,1.0,385.0,581.0,1.0,0,314.0,1
750,750,0.2641819568745446,0.3,0.0,0.0,417.0,865.0,0.0,1,248.0,1
751,751,-0.8806714061531906,-0.9,1.0,0.0,416.0,690.0,0.0,0,314.0,1
752,752,0.041207775341958186,0.0,0.0,0.0,363.0,630.0,0.0,1,457.0,1
753,753,-0.5237455286635453,-0.5,1.0,0.0,327.0,803.0,0.0,0,410.0,1
754,754,0.16729846719495323,0.2,1.0,1.0,480.0,816.0,1.0,1,204.0,1
755,755,-0.8768538036274822,-0.9,1.0,0.0,258.0,990.0,0.0,0,222.0,1
756,756,0.6850429717582452,0.7,0.0,0.0,403.0,832.0,0.0,1,145.0,1
757,757,-0.3890120497195192,-0.4,1.0,0.0,494.0,846.0,0.0,0,110.0,1
758,758,0.11619817420500678,0.1,0.0,0.0,319.0,535.0,0.0,1,556.0,1
759,759,0.82361108654455,0.8,0.0,0.0,370.0,696.0,0.0,1,144.0,1
760,760,-0.3197743506430464,-0.3,1.0,0.0,440.0,620.0,0.0,0,420.0,1
761,761,0.31997618025362906,0.3,0.0,0.0,343.0,883.0,0.0,1,184.0,1
762,762,-0.7018337066495024,-0.7,1.0,0.0,323.0,791.0,0.0,0,326.0,1
763,763,-0.16179702868119683,-0.2,1.0,0.0,415.0,989.0,0.0,0,116.0,1
764,764,0.08533632786077805,0.1,1.0,1.0,405.0,969.0,1.0,1,316.0,1
765,765,0.5917163395776125,0.6,0.0,0.0,404.0,792.0,0.0,1,54.0,1
766,766,0.8179474682965407,0.8,0.0,0.0,498.0,975.0,0.0,1,167.0,1
767,767,-0.2969645366896859,-0.3,1.0,0.0,331.0,544.0,0.0,0,425.0,1
768,768,0.40643916380178335,0.4,1.0,1.0,420.0,824.0,1.0,1,236.0,1
769,769,0.6899280525712778,0.7,0.0,0.0,322.0,649.0,0.0,1,179.0,1
770,770,0.6347152373155748,0.6,0.0,0.0,325.0,907.0,0.0,1,118.0,1
771,771,-0.5643676243918391,-0.6,1.0,0.0,282.0,940.0,0.0,0,58.0,1
772,772,0.3056749340235546,0.3,0.0,0.0,384.0,513.0,0.0,1,383.0,1
773,773,-0.12830091385150522,-0.1,1.0,0.0,254.0,901.0,0.0,0,575.0,1
774,774,0.44559553414545017,0.4,0.0,0.0,295.0,901.0,0.0,1,144.0,1
775,775,-0.8027050616936788,-0.8,1.0,0.0,468.0,614.0,0.0,0,278.0,1
776,776,0.3549355401203468,0.4,0.0,0.0,337.0,763.0,0.0,1,170.0,1
777,777,-0.1391970296221674,-0.1,0.0,1.0,423.0,534.0,1.0,0,593.0,1
778,778,0.7732545861721519,0.8,0.0,0.0,431.0,583.0,0.0,1,356.0,1
779,779,0.39620264069324473,0.4,1.0,1.0,320.0,824.0,1.0,1,176.0,1
780,780,0.8316472004857075,0.8,0.0,0.0,368.0,614.0,0.0,1,228.0,1
781,781,-0.3713624301453148,-0.4,1.0,0.0,482.0,871.0,0.0,0,457.0,1
782,782,-0.6406616922933579,-0.6,1.0,0.0,295.0,979.0,0.0,0,356.0,1
783,783,-0.7687775427728127,-0.8,1.0,0.0,437.0,744.0,0.0,0,139.0,1
784,784,-0.3087993531932287,-0.3,1.0,0.0,346.0,961.0,0.0,0,533.0,1
785,785,-0.47100625044790934,-0.5,0.0,1.0,479.0,843.0,1.0,0,158.0,1
786,786,-0.2681153254384788,-0.3,1.0,0.0,371.0,531.0,0.0,0,278.0,1
787,787,0.5809028327355158,0.6,0.0,0.0,352.0,903.0,0.0,1,115.0,1
788,788,0.2704394349499796,0.3,0.0,0.0,315.0,993.0,0.0,1,522.0,1
789,789,-0.345847672854822,-0.3,0.0,1.0,394.0,661.0,1.0,0,465.0,1
790,790,0.63168927063479,0.6,1.0,1.0,353.0,917.0,1.0,1,90.0,1
791,791,0.5803636821805006,0.6,0.0,0.0,365.0,730.0,0.0,1,155.0,1
792,792,-0.7202795010044364,-0.7,1.0,0.0,344.0,859.0,0.0,0,367.0,1
793,793,0.1205502422072281,0.1,1.0,1.0,348.0,963.0,1.0,1,189.0,1
794,794,-0.005591741703245057,-0.0,0.0,1.0,459.0,574.0,1.0,0,2127.0,1
795,795,-0.07693992440982311,-0.1,1.0,0.0,419.0,596.0,0.0,0,745.0,1
796,796,-0.27636929995412973,-0.3,1.0,0.0,318.0,604.0,0.0,0,478.0,1
797,797,-0.3847776192551937,-0.4,0.0,1.0,274.0,690.0,1.0,0,246.0,1
798,798,-0.3225228392446542,-0.3,1.0,0.0,480.0,540.0,0.0,0,520.0,1
799,799,0.49962241878646096,0.5,1.0,1.0,257.0,836.0,1.0,1,157.0,1
800,800,-0.5370552843371226,-0.5,1.0,0.0,354.0,917.0,0.0,0,179.0,1
801,801,0.6926748365683376,0.7,0.0,0.0,498.0,984.0,0.0,1,108.0,1
802,802,-0.5582028144178278,-0.6,1.0,0.0,343.0,910.0,0.0,0,147.0,1
803,803,0.8809636278483909,0.9,0.0,0.0,408.0,619.0,0.0,1,403.0,1
804,804,0.6458596688084061,0.6,0.0,0.0,358.0,980.0,0.0,1,162.0,1
805,805,-0.5249946423763743,-0.5,0.0,1.0,300.0,549.0,1.0,0,391.0,1
806,806,0.5436074631546489,0.5,1.0,1.0,386.0,652.0,1.0,1,292.0,1
807,807,-0.09000186410493005,-0.1,1.0,0.0,307.0,637.0,0.0,0,616.0,1
808,808,0.6065541478202422,0.6,1.0,1.0,255.0,737.0,1.0,1,188.0,1
809,809,-0.06975170413311271,-0.1,0.0,1.0,292.0,690.0,1.0,0,678.0,1
810,810,0.8969475250810192,0.9,1.0,1.0,252.0,709.0,1.0,1,219.0,1
811,811,0.3365666515596294,0.3,0.0,0.0,477.0,647.0,0.0,1,466.0,1
812,812,-0.4449343474671013,-0.4,1.0,0.0,359.0,500.0,0.0,0,261.0,1
813,813,0.2828277201662569,0.3,0.0,0.0,276.0,612.0,0.0,1,582.0,1
814,814,-0.06865766796045247,-0.1,0.0,1.0,461.0,889.0,1.0,0,780.0,1
815,815,0.6434383292303075,0.6,1.0,1.0,336.0,934.0,1.0,1,110.0,1
816,816,0.2520962527474523,0.3,1.0,1.0,491.0,971.0,1.0,1,168.0,1
817,817,-0.6783411954367751,-0.7,0.0,1.0,445.0,684.0,1.0,0,221.0,1
818,818,0.6734923230024584,0.7,1.0,1.0,319.0,825.0,1.0,1,156.0,1
819,819,0.55885749310474,0.6,0.0,0.0,449.0,759.0,0.0,1,182.0,1
820,820,0.2265688165017704,0.2,1.0,1.0,327.0,783.0,1.0,1,240.0,1
821,821,0.16687733098434776,0.2,0.0,0.0,326.0,537.0,0.0,1,617.0,1
822,822,-0.3505088132879345,-0.4,1.0,0.0,474.0,991.0,0.0,0,555.0,1
823,823,-0.35063821554861807,-0.4,1.0,0.0,382.0,889.0,0.0,0,299.0,1
824,824,0.6504669900348682,0.7,0.0,0.0,358.0,781.0,0.0,1,161.0,1
825,825,0.6722095020886406,0.7,0.0,0.0,499.0,649.0,0.0,1,222.0,1
826,826,0.06467589352481273,0.1,1.0,1.0,440.0,688.0,1.0,1,1402.0,1
827,827,-0.11297466366214137,-0.1,0.0,1.0,427.0,662.0,1.0,0,311.0,1
828,828,-0.09249066081792001,-0.1,1.0,0.0,494.0,594.0,0.0,0,372.0,1
829,829,0.42082168768503314,0.4,1.0,1.0,285.0,748.0,1.0,1,257.0,1
830,830,0.42033691947511576,0.4,1.0,1.0,376.0,605.0,1.0,1,329.0,1
831,831,-0.12224164208574961,-0.1,0.0,1.0,338.0,987.0,1.0,0,255.0,1
832,832,0.7743637724811187,0.8,0.0,0.0,428.0,779.0,0.0,1,203.0,1
833,833,0.3478342263979016,0.3,1.0,1.0,326.0,837.0,1.0,1,217.0,1
834,834,0.5075787139760065,0.5,1.0,1.0,333.0,592.0,1.0,1,345.0,1
835,835,0.38945412588073036,0.4,1.0,1.0,264.0,978.0,1.0,1,138.0,1
836,836,-0.8691001495308072,-0.9,1.0,0.0,343.0,866.0,0.0,0,71.0,1
837,837,-0.446291596586615,-0.4,1.0,0.0,263.0,716.0,0.0,0,481.0,1
838,838,0.5300027924829195,0.5,0.0,0.0,406.0,790.0,0.0,1,324.0,1
839,839,0.4478417199678254,0.4,1.0,1.0,289.0,787.0,1.0,1,134.0,1
840,840,0.19268463650045498,0.2,0.0,0.0,281.0,584.0,0.0,1,335.0,1
841,841,0.29801073164943526,0.3,0.0,0.0,385.0,756.0,0.0,1,139.0,1
842,842,0.5614256984202463,0.6,0.0,0.0,371.0,613.0,0.0,1,386.0,1
843,843,0.08269408687100932,0.1,0.0,0.0,355.0,777.0,0.0,1,358.0,1
844,844,0.5100938834314263,0.5,1.0,1.0,311.0,968.0,1.0,1,141.0,1
845,845,-0.8974275412651535,-0.9,1.0,0.0,254.0,971.0,0.0,0,245.0,1
846,846,-0.47126862201188385,-0.5,0.0,1.0,464.0,653.0,1.0,0,323.0,1
847,847,0.3085609756225044,0.3,1.0,1.0,421.0,565.0,1.0,1,504.0,1
848,848,-0.750090285319719,-0.8,0.0,1.0,386.0,561.0,1.0,0,353.0,1
849,849,-0.7900791144974453,-0.8,0.0,1.0,482.0,815.0,1.0,0,263.0,1
850,850,-0.5460826670832324,-0.5,0.0,1.0,252.0,784.0,1.0,0,194.0,1
851,851,-0.5867279740244749,-0.6,1.0,0.0,412.0,962.0,0.0,0,156.0,1
852,852,0.46926087564579644,0.5,1.0,1.0,473.0,537.0,1.0,1,390.0,1
853,853,-0.4068373142804545,-0.4,0.0,1.0,310.0,630.0,1.0,0,630.0,1
854,854,0.7886208894633978,0.8,0.0,0.0,365.0,768.0,0.0,1,177.0,1
855,855,-0.6003479910995408,-0.6,0.0,1.0,347.0,593.0,1.0,0,470.0,1
856,856,-0.8155408160690991,-0.8,0.0,1.0,333.0,823.0,1.0,0,134.0,1
857,857,-0.4779814891166868,-0.5,1.0,0.0,289.0,866.0,0.0,0,295.0,1
858,858,0.2594637791498581,0.3,1.0,1.0,438.0,940.0,1.0,1,132.0,1
859,859,0.6468935384099647,0.6,1.0,1.0,478.0,621.0,1.0,1,341.0,1
860,860,0.3011914286255267,0.3,0.0,0.0,460.0,951.0,0.0,1,199.0,1
861,861,-0.6090784650533965,-0.6,0.0,1.0,373.0,592.0,1.0,0,275.0,1
862,862,-0.5738227174085719,-0.6,0.0,1.0,397.0,790.0,1.0,0,193.0,1
863,863,-0.09823939153943262,-0.1,1.0,0.0,343.0,616.0,0.0,0,611.0,1
864,864,-0.8088326980167807,-0.8,0.0,1.0,472.0,528.0,1.0,0,270.0,1
865,865,0.13867142799973775,0.1,0.0,0.0,488.0,588.0,0.0,1,504.0,1
866,866,-0.6507597285168694,-0.7,0.0,1.0,474.0,933.0,1.0,0,103.0,1
867,867,-0.12322410950066187,-0.1,1.0,0.0,394.0,504.0,0.0,0,532.0,1
868,868,0.736017482034148,0.7,0.0,0.0,435.0,882.0,0.0,1,123.0,1
869,869,-0.3993324142306608,-0.4,1.0,0.0,271.0,706.0,0.0,0,223.0,1
870,870,0.6150798845147835,0.6,0.0,0.0,360.0,650.0,0.0,1,230.0,1
871,871,0.04323092333528622,0.0,1.0,1.0,470.0,877.0,1.0,1,893.0,1
872,872,-0.6247163488254359,-0.6,0.0,1.0,270.0,663.0,1.0,0,267.0,1
873,873,-0.46941863299359404,-0.5,1.0,0.0,477.0,714.0,0.0,0,189.0,1
874,874,-0.10089410420676515,-0.1,1.0,0.0,350.0,744.0,0.0,0,876.0,1
875,875,0.41588734388666604,0.4,1.0,1.0,437.0,790.0,1.0,1,283.0,1
876,876,-0.22187844269515344,-0.2,0.0,1.0,479.0,893.0,1.0,0,138.0,1
877,877,0.42606017526646134,0.4,1.0,1.0,305.0,678.0,1.0,1,237.0,1
878,878,0.10268300431846289,0.1,0.0,0.0,260.0,703.0,0.0,1,627.0,1
879,879,-0.3731880135307495,-0.4,0.0,1.0,469.0,612.0,1.0,0,229.0,1
880,880,0.7133717958376499,0.7,1.0,1.0,271.0,555.0,1.0,1,274.0,1
881,881,-0.8251849535370678,-0.8,1.0,0.0,307.0,520.0,0.0,0,453.0,1
882,882,-0.37643798190072286,-0.4,0.0,1.0,469.0,596.0,1.0,0,485.0,1
883,883,0.14480870183465877,0.1,0.0,0.0,355.0,992.0,0.0,1,193.0,1
884,884,-0.5337399572574801,-0.5,0.0,1.0,391.0,711.0,1.0,0,328.0,1
885,885,-0.3698219384432109,-0.4,1.0,0.0,457.0,795.0,0.0,0,438.0,1
886,886,-0.33353627097173666,-0.3,0.0,1.0,464.0,714.0,1.0,0,282.0,1
887,887,-0.768310844424799,-0.8,0.0,1.0,493.0,721.0,1.0,0,336.0,1
888,888,0.18917856845486936,0.2,0.0,0.0,371.0,716.0,0.0,1,353.0,1
889,889,-0.46944406897430374,-0.5,0.0,1.0,275.0,620.0,1.0,0,335.0,1
890,890,-0.4742691444652285,-0.5,0.0,1.0,328.0,959.0,1.0,0,133.0,1
891,891,-0.3936411700772814,-0.4,0.0,1.0,490.0,501.0,1.0,0,709.0,1
892,892,0.47357038305192767,0.5,1.0,1.0,458.0,820.0,1.0,1,142.0,1
893,893,-0.31204939273898147,-0.3,1.0,0.0,424.0,757.0,0.0,0,269.0,1
894,894,-0.5533838120626675,-0.6,1.0,0.0,325.0,757.0,0.0,0,78.0,1
895,895,-0.8493816045494494,-0.8,1.0,0.0,383.0,992.0,0.0,0,85.0,1
896,896,0.642141308733252,0.6,0.0,0.0,366.0,790.0,0.0,1,174.0,1
897,897,0.8079360769125917,0.8,0.0,0.0,389.0,921.0,0.0,1,110.0,1
898,898,0.8252469904428575,0.8,1.0,1.0,482.0,737.0,1.0,1,211.0,1
899,899,0.07532000964242913,0.1,0.0,0.0,392.0,931.0,0.0,1,437.0,1
900,900,0.20544531784405773,0.2,1.0,1.0,369.0,625.0,1.0,1,366.0,1
901,901,0.8485132477798941,0.8,1.0,1.0,292.0,862.0,1.0,1,96.0,1
902,902,-0.7088806961215706,-0.7,0.0,1.0,427.0,979.0,1.0,0,124.0,1
903,903,-0.3491633539754446,-0.3,0.0,1.0,344.0,867.0,1.0,0,179.0,1
904,904,-0.3484879144238866,-0.3,1.0,0.0,346.0,904.0,0.0,0,200.0,1
905,905,-0.040167898410703784,-0.0,0.0,1.0,475.0,802.0,1.0,0,1403.0,1
906,906,-0.6638058621754668,-0.7,0.0,1.0,417.0,595.0,1.0,0,378.0,1
907,907,0.4472064639631689,0.4,0.0,0.0,381.0,781.0,0.0,1,228.0,1
908,908,0.5150094224007608,0.5,1.0,1.0,325.0,596.0,1.0,1,359.0,1
909,909,0.7238043286446026,0.7,1.0,1.0,345.0,882.0,1.0,1,83.0,1
910,910,0.2866973782328336,0.3,1.0,1.0,489.0,532.0,1.0,1,409.0,1
911,911,0.699333080754826,0.7,0.0,0.0,256.0,978.0,0.0,1,146.0,1
912,912,-0.7511271512569028,-0.8,0.0,1.0,402.0,831.0,1.0,0,287.0,1
913,913,-0.7583441587540916,-0.8,0.0,1.0,438.0,899.0,1.0,0,143.0,1
914,914,-0.3119454760162881,-0.3,1.0,0.0,337.0,658.0,0.0,0,365.0,1
915,915,0.8260498586405379,0.8,1.0,1.0,375.0,633.0,1.0,1,282.0,1
916,916,-0.04269945467333491,-0.0,1.0,0.0,323.0,906.0,0.0,0,791.0,1
917,917,0.5149554081668831,0.5,0.0,0.0,334.0,737.0,0.0,1,239.0,1
918,918,-0.3884490728885147,-0.4,0.0,1.0,314.0,599.0,1.0,0,337.0,1
919,919,-0.08044025515629105,-0.1,0.0,1.0,308.0,711.0,1.0,0,361.0,1
920,920,0.8658108274337223,0.9,0.0,0.0,470.0,506.0,0.0,1,184.0,1
921,921,-0.31990774281633205,-0.3,0.0,1.0,437.0,578.0,1.0,0,295.0,1
922,922,-0.804998817660553,-0.8,1.0,0.0,268.0,833.0,0.0,0,159.0,1
923,923,0.08517450744365918,0.1,0.0,0.0,363.0,655.0,0.0,1,492.0,1
924,924,-0.14347978762633662,-0.1,1.0,0.0,431.0,654.0,0.0,0,275.0,1
925,925,0.36204954776194553,0.4,1.0,1.0,254.0,737.0,1.0,1,139.0,1
926,926,0.816035578822821,0.8,1.0,1.0,448.0,945.0,1.0,1,97.0,1
927,927,0.32288546219100167,0.3,0.0,0.0,276.0,677.0,0.0,1,247.0,1
928,928,0.5581919680234481,0.6,0.0,0.0,381.0,948.0,0.0,1,161.0,1
929,929,-0.7204909615103899,-0.7,0.0,1.0,427.0,896.0,1.0,0,247.0,1
930,930,0.5016854347084131,0.5,0.0,0.0,496.0,788.0,0.0,1,226.0,1
931,931,-0.8447189795635522,-0.8,1.0,0.0,264.0,541.0,0.0,0,255.0,1
932,932,-0.054571204541009166,-0.1,0.0,1.0,390.0,798.0,1.0,0,432.0,1
933,933,-0.44461592126517585,-0.4,1.0,0.0,452.0,700.0,0.0,0,198.0,1
934,934,0.2520070718387971,0.3,0.0,0.0,490.0,558.0,0.0,1,422.0,1
935,935,-0.03227946241516255,-0.0,1.0,0.0,365.0,959.0,0.0,0,326.0,1
936,936,0.7823788337741516,0.8,1.0,1.0,423.0,630.0,1.0,1,307.0,1
937,937,0.3105967511875011,0.3,1.0,1.0,463.0,504.0,1.0,1,243.0,1
938,938,-0.10280409834373438,-0.1,1.0,0.0,496.0,610.0,0.0,0,544.0,1
939,939,0.7737441295607251,0.8,1.0,1.0,409.0,839.0,1.0,1,82.0,1
940,940,0.7787940035874356,0.8,0.0,0.0,407.0,576.0,0.0,1,227.0,1
941,941,0.09104710724240805,0.1,0.0,0.0,285.0,914.0,0.0,1,301.0,1
942,942,-0.36883059632908877,-0.4,0.0,1.0,413.0,962.0,1.0,0,125.0,1
943,943,-0.8347417433566812,-0.8,0.0,1.0,327.0,826.0,1.0,0,367.0,1
944,944,-0.7314851675287141,-0.7,1.0,0.0,423.0,941.0,0.0,0,216.0,1
945,945,-0.09652506024892826,-0.1,1.0,0.0,491.0,542.0,0.0,0,707.0,1
946,946,-0.2834038020484636,-0.3,0.0,1.0,296.0,819.0,1.0,0,245.0,1
947,947,0.24318049251843898,0.2,0.0,0.0,318.0,909.0,0.0,1,133.0,1
948,948,-0.27553011838460306,-0.3,0.0,1.0,289.0,645.0,1.0,0,316.0,1
949,949,-0.042751957565391074,-0.0,1.0,0.0,382.0,600.0,0.0,0,508.0,1
950,950,0.7029028594520202,0.7,0.0,0.0,452.0,692.0,0.0,1,376.0,1
951,951,-0.2376815667546991,-0.2,0.0,1.0,462.0,893.0,1.0,0,225.0,1
952,952,0.6344423262125186,0.6,1.0,1.0,443.0,856.0,1.0,1,141.0,1
953,953,0.17150959127879928,0.2,0.0,0.0,429.0,650.0,0.0,1,581.0,1
954,954,-0.2541924300718663,-0.3,0.0,1.0,490.0,560.0,1.0,0,340.0,1
955,955,-0.235986508381698,-0.2,0.0,1.0,388.0,871.0,1.0,0,241.0,1
956,956,-0.1389917671432035,-0.1,0.0,1.0,370.0,711.0,1.0,0,379.0,1
957,957,-0.0010919968440324945,-0.0,0.0,1.0,270.0,727.0,1.0,0,763.0,1
958,958,0.834020969658937,0.8,1.0,1.0,351.0,975.0,1.0,1,64.0,1
959,959,0.16738364644148251,0.2,1.0,1.0,296.0,724.0,1.0,1,390.0,1
960,960,0.3034738891734471,0.3,1.0,1.0,412.0,787.0,1.0,1,151.0,1
961,961,-0.38843286650628683,-0.4,0.0,1.0,461.0,586.0,1.0,0,523.0,1
962,962,0.1597701647724309,0.2,0.0,0.0,410.0,954.0,0.0,1,266.0,1
963,963,-0.8619543355173137,-0.9,1.0,0.0,332.0,976.0,0.0,0,242.0,1
964,964,0.2788800654999025,0.3,0.0,0.0,319.0,708.0,0.0,1,383.0,1
965,965,0.8908570831406334,0.9,1.0,1.0,326.0,843.0,1.0,1,71.0,1
966,966,-0.8002244852904551,-0.8,0.0,1.0,298.0,781.0,1.0,0,311.0,1
967,967,0.6148648352747904,0.6,0.0,0.0,367.0,848.0,0.0,1,275.0,1
968,968,0.44456312132184916,0.4,0.0,0.0,394.0,547.0,0.0,1,509.0,1
969,969,0.39196325729582304,0.4,0.0,0.0,402.0,935.0,0.0,1,163.0,1
970,970,-0.2407856817735271,-0.2,0.0,1.0,384.0,882.0,1.0,0,264.0,1
971,971,-0.1942569272234509,-0.2,0.0,1.0,313.0,952.0,1.0,0,165.0,1
972,972,0.010926252022664618,0.0,0.0,0.0,343.0,816.0,1.0,0,3841.0,0
973,973,-0.712552937595651,-0.7,0.0,1.0,436.0,760.0,1.0,0,234.0,1
974,974,0.7451235693871022,0.7,0.0,0.0,301.0,678.0,0.0,1,151.0,1
975,975,0.2913499054161376,0.3,0.0,0.0,385.0,728.0,0.0,1,397.0,1
976,976,-0.4341360519671114,-0.4,0.0,1.0,305.0,754.0,1.0,0,221.0,1
977,977,0.8164496025911244,0.8,1.0,1.0,479.0,931.0,1.0,1,100.0,1
978,978,0.8320607820719786,0.8,0.0,0.0,431.0,768.0,0.0,1,141.0,1
979,979,0.865354148407217,0.9,1.0,1.0,407.0,876.0,1.0,1,227.0,1
980,980,-0.06369749955519466,-0.1,1.0,0.0,287.0,520.0,0.0,0,1003.0,1
981,981,-0.19458236365926906,-0.2,0.0,1.0,461.0,755.0,1.0,0,264.0,1
982,982,-0.2481880248447561,-0.2,1.0,0.0,402.0,723.0,0.0,0,325.0,1
983,983,0.8935027473292684,0.9,0.0,0.0,493.0,684.0,0.0,1,193.0,1
984,984,-0.32136489712138516,-0.3,1.0,0.0,310.0,750.0,0.0,0,440.0,1
985,985,0.559250065602768,0.6,0.0,0.0,377.0,645.0,0.0,1,198.0,1
986,986,0.02405788500178041,0.0,0.0,0.0,320.0,513.0,0.0,1,3957.0,1
987,987,0.4572628569473548,0.5,1.0,1.0,269.0,830.0,1.0,1,111.0,1
988,988,0.3859040528447145,0.4,0.0,0.0,352.0,927.0,0.0,1,151.0,1
989,989,-0.7866413931388379,-0.8,0.0,1.0,348.0,983.0,1.0,0,69.0,1
990,990,0.6935004258525271,0.7,1.0,1.0,466.0,510.0,1.0,1,294.0,1
991,991,0.7021400825856609,0.7,1.0,1.0,269.0,621.0,1.0,1,230.0,1
992,992,0.37099622714193814,0.4,0.0,0.0,289.0,656.0,0.0,1,455.0,1
993,993,0.7154813699527064,0.7,0.0,0.0,252.0,577.0,0.0,1,471.0,1
994,994,-0.719314662944891,-0.7,1.0,0.0,324.0,803.0,0.0,0,103.0,1
995,995,0.020395133928423514,0.0,0.0,0.0,284.0,548.0,0.0,1,3698.0,1
996,996,-0.8944700146577768,-0.9,1.0,0.0,495.0,740.0,0.0,0,235.0,1
997,997,-0.2911020107742215,-0.3,0.0,1.0,268.0,701.0,1.0,0,401.0,1
998,998,0.24267886716201315,0.2,0.0,0.0,288.0,770.0,0.0,1,222.0,1
999,999,0.3224907883339255,0.3,1.0,1.0,490.0,590.0,1.0,1,330.0,1
1000,1000,-0.14548662713703475,-0.1,0.0,1.0,313.0,873.0,1.0,0,294.0,1
1001,1001,-0.23949610940304644,-0.2,0.0,1.0,472.0,742.0,1.0,0,296.0,1
1002,1002,-0.44929278636116976,-0.4,0.0,1.0,421.0,916.0,1.0,0,153.0,1
1003,1003,-0.8734570902749166,-0.9,0.0,1.0,283.0,974.0,1.0,0,213.0,1
1004,1004,-0.39940639324636296,-0.4,0.0,1.0,392.0,726.0,1.0,0,302.0,1
1005,1005,0.7064261863630986,0.7,1.0,1.0,417.0,870.0,1.0,1,183.0,1
1006,1006,-0.26771209436454946,-0.3,1.0,0.0,408.0,728.0,0.0,0,154.0,1
1007,1007,-0.3981793028206174,-0.4,1.0,0.0,332.0,965.0,0.0,0,173.0,1
1008,1008,0.8837650139098864,0.9,1.0,1.0,295.0,695.0,1.0,1,180.0,1
1009,1009,0.059327216864699994,0.1,0.0,0.0,490.0,565.0,0.0,1,645.0,1
1010,1010,0.8658285510596363,0.9,1.0,1.0,447.0,506.0,1.0,1,207.0,1
1011,1011,-0.05099043423558858,-0.1,1.0,0.0,313.0,769.0,0.0,0,938.0,1
1012,1012,0.24266724518842675,0.2,1.0,1.0,456.0,621.0,1.0,1,503.0,1
1013,1013,-0.6517435628168204,-0.7,1.0,0.0,364.0,721.0,0.0,0,115.0,1
1014,1014,0.07619857498169802,0.1,0.0,0.0,340.0,597.0,0.0,1,593.0,1
1015,1015,-0.2946598347238464,-0.3,1.0,0.0,488.0,539.0,0.0,0,253.0,1
1016,1016,0.8903980434850537,0.9,0.0,0.0,462.0,776.0,0.0,1,212.0,1
1017,1017,0.71884263768304,0.7,1.0,1.0,357.0,785.0,1.0,1,148.0,1
1018,1018,0.6355511065030809,0.6,1.0,1.0,410.0,762.0,1.0,1,358.0,1
1019,1019,0.7104597325195842,0.7,1.0,1.0,313.0,968.0,1.0,1,139.0,1
1020,1020,-0.6988427868541938,-0.7,1.0,0.0,258.0,736.0,0.0,0,146.0,1
1021,1021,-0.41776579336410347,-0.4,1.0,0.0,369.0,980.0,0.0,0,121.0,1
1022,1022,0.36927996849137823,0.4,1.0,1.0,401.0,912.0,1.0,1,257.0,1
1023,1023,-0.5012322254266068,-0.5,1.0,0.0,313.0,633.0,0.0,0,204.0,1
1024,1024,-0.429313716718638,-0.4,1.0,0.0,376.0,694.0,0.0,0,300.0,1
1025,1025,-0.45718608119078824,-0.5,0.0,1.0,256.0,856.0,1.0,0,108.0,1
1026,1026,-0.6354929372644138,-0.6,0.0,1.0,452.0,763.0,1.0,0,395.0,1
1027,1027,-0.7457307513754199,-0.7,1.0,0.0,467.0,630.0,0.0,0,433.0,1
1028,1028,0.6831042518906646,0.7,1.0,1.0,291.0,861.0,1.0,1,108.0,1
1029,1029,0.8507996778134334,0.9,1.0,1.0,268.0,736.0,1.0,1,176.0,1
1030,1030,0.35588204828899495,0.4,0.0,0.0,343.0,791.0,0.0,1,346.0,1
1031,1031,-0.32719197264855415,-0.3,1.0,0.0,299.0,981.0,0.0,0,300.0,1
1032,1032,-0.5270011764174525,-0.5,1.0,0.0,380.0,715.0,0.0,0,235.0,1
1033,1033,-0.4443415274172418,-0.4,0.0,1.0,275.0,941.0,1.0,0,274.0,1
1034,1034,-0.13670289495702692,-0.1,0.0,1.0,282.0,750.0,1.0,0,148.0,1
1035,1035,0.2716001952935422,0.3,1.0,1.0,355.0,546.0,1.0,1,499.0,1
1036,1036,0.4441261489856728,0.4,0.0,0.0,313.0,931.0,0.0,1,46.0,1
1037,1037,-0.777123023170319,-0.8,1.0,0.0,317.0,530.0,0.0,0,283.0,1
1038,1038,0.09435829021080888,0.1,1.0,1.0,490.0,570.0,1.0,1,1030.0,1
1039,1039,-0.6087886612476885,-0.6,0.0,1.0,488.0,752.0,1.0,0,260.0,1
1040,1040,0.572297695200425,0.6,0.0,0.0,412.0,586.0,0.0,1,182.0,1
1041,1041,0.7067607061205526,0.7,1.0,1.0,491.0,565.0,1.0,1,254.0,1
1042,1042,-0.12715457644904637,-0.1,0.0,1.0,274.0,713.0,1.0,0,443.0,1
1043,1043,-0.326272139738893,-0.3,0.0,1.0,366.0,558.0,1.0,0,396.0,1
1044,1044,-0.11074676434454578,-0.1,0.0,1.0,456.0,697.0,1.0,0,437.0,1
1045,1045,0.7012185584162213,0.7,1.0,1.0,353.0,758.0,1.0,1,239.0,1
1046,1046,0.03364065814307582,0.0,1.0,1.0,421.0,794.0,1.0,1,745.0,1
1047,1047,-0.10707849965151339,-0.1,0.0,1.0,285.0,743.0,1.0,0,542.0,1
1048,1048,-0.27266449736889997,-0.3,1.0,0.0,397.0,823.0,0.0,0,340.0,1
1049,1049,0.6725102383948963,0.7,0.0,0.0,394.0,632.0,0.0,1,174.0,1
1050,1050,-0.11766810503501735,-0.1,0.0,1.0,293.0,853.0,1.0,0,284.0,1
1051,1051,-0.4242722886287582,-0.4,1.0,0.0,402.0,742.0,0.0,0,246.0,1
1052,1052,-0.6983208814095793,-0.7,1.0,0.0,457.0,502.0,0.0,0,341.0,1
1053,1053,0.056186366365536644,0.1,0.0,0.0,414.0,877.0,0.0,1,959.0,1
1054,1054,0.0016670781519788624,0.0,1.0,1.0,323.0,767.0,0.0,0,2680.0,0
1055,1055,-0.25113155537681486,-0.3,1.0,0.0,276.0,843.0,0.0,0,91.0,1
1056,1056,-0.023784999882180413,-0.0,0.0,1.0,449.0,533.0,1.0,0,848.0,1
1057,1057,0.4749858293481787,0.5,1.0,1.0,403.0,813.0,1.0,1,244.0,1
1058,1058,0.8053861353367885,0.8,0.0,0.0,309.0,914.0,0.0,1,97.0,1
1059,1059,0.7881526302072664,0.8,0.0,0.0,393.0,731.0,0.0,1,146.0,1
1060,1060,0.8981075450107269,0.9,0.0,0.0,468.0,734.0,0.0,1,168.0,1
1061,1061,-0.24145400521208904,-0.2,0.0,1.0,290.0,848.0,1.0,0,282.0,1
1062,1062,-0.5577417740536937,-0.6,0.0,1.0,496.0,617.0,1.0,0,377.0,1
1063,1063,0.347548071791299,0.3,0.0,0.0,387.0,558.0,0.0,1,295.0,1
1064,1064,-0.24319377519260799,-0.2,0.0,1.0,284.0,883.0,1.0,0,293.0,1
1065,1065,0.637396969644099,0.6,1.0,1.0,389.0,616.0,1.0,1,505.0,1
1066,1066,-0.25030509288922165,-0.3,1.0,0.0,365.0,969.0,0.0,0,266.0,1
1067,1067,0.3445833296621702,0.3,0.0,0.0,460.0,840.0,0.0,1,210.0,1
1068,1068,-0.6612586902308631,-0.7,0.0,1.0,316.0,707.0,1.0,0,157.0,1
1069,1069,-0.17162371690507516,-0.2,0.0,1.0,421.0,747.0,1.0,0,452.0,1
1070,1070,-0.2894457660206976,-0.3,0.0,1.0,433.0,844.0,1.0,0,253.0,1
1071,1071,0.8908094631471587,0.9,0.0,0.0,364.0,586.0,0.0,1,180.0,1
1072,1072,0.2726753072888529,0.3,1.0,1.0,339.0,622.0,1.0,1,339.0,1
1073,1073,0.11727804993031443,0.1,0.0,0.0,377.0,518.0,0.0,1,725.0,1
1074,1074,-0.754130840009969,-0.8,0.0,1.0,266.0,601.0,1.0,0,253.0,1
1075,1075,-0.8557498374307241,-0.9,0.0,1.0,480.0,616.0,1.0,0,274.0,1
1076,1076,0.7731232479772173,0.8,0.0,0.0,454.0,888.0,0.0,1,208.0,1
1077,1077,0.5613288553831183,0.6,0.0,0.0,494.0,829.0,0.0,1,177.0,1
1078,1078,-0.6477509427428736,-0.6,0.0,1.0,268.0,667.0,1.0,0,265.0,1
1079,1079,0.3037625693660112,0.3,0.0,0.0,465.0,519.0,0.0,1,646.0,1
1080,1080,0.5776217153809885,0.6,1.0,1.0,490.0,873.0,1.0,1,237.0,1
1081,1081,0.7634161646405174,0.8,1.0,1.0,317.0,703.0,1.0,1,210.0,1
1082,1082,-0.5555261233491912,-0.6,1.0,0.0,338.0,865.0,0.0,0,257.0,1
1083,1083,-0.07792122801928736,-0.1,0.0,1.0,469.0,703.0,1.0,0,878.0,1
1084,1084,-0.8175295560370279,-0.8,1.0,0.0,292.0,924.0,0.0,0,164.0,1
1085,1085,0.5888518572432905,0.6,0.0,0.0,461.0,759.0,0.0,1,220.0,1
1086,1086,0.5676963597204784,0.6,1.0,1.0,380.0,749.0,1.0,1,251.0,1
1087,1087,0.8698243744581254,0.9,0.0,0.0,384.0,779.0,0.0,1,137.0,1
1088,1088,0.4532040639988114,0.5,1.0,1.0,432.0,618.0,1.0,1,280.0,1
1089,1089,0.7447116153085137,0.7,1.0,1.0,478.0,680.0,1.0,1,512.0,1
1090,1090,-0.4422891089474687,-0.4,0.0,1.0,454.0,637.0,1.0,0,259.0,1
1091,1091,0.33335594527271406,0.3,1.0,1.0,482.0,665.0,1.0,1,333.0,1
1092,1092,-0.6866021243197662,-0.7,1.0,0.0,407.0,679.0,0.0,0,234.0,1
1093,1093,-0.4828077631347329,-0.5,0.0,1.0,380.0,715.0,1.0,0,195.0,1
1094,1094,0.7089339482094917,0.7,1.0,1.0,326.0,937.0,1.0,1,57.0,1
1095,1095,0.4876876241447984,0.5,1.0,1.0,456.0,682.0,1.0,1,512.0,1
1096,1096,0.6674688566643282,0.7,0.0,0.0,338.0,642.0,0.0,1,250.0,1
1097,1097,0.23903818205245708,0.2,1.0,1.0,443.0,795.0,1.0,1,412.0,1
1098,1098,0.259861755692694,0.3,0.0,0.0,448.0,932.0,0.0,1,140.0,1
1099,1099,0.3541444968950903,0.4,0.0,0.0,274.0,823.0,0.0,1,183.0,1
1100,1100,-0.7580243623000823,-0.8,0.0,1.0,281.0,634.0,1.0,0,265.0,1
1101,1101,-0.6669367033008797,-0.7,0.0,1.0,464.0,608.0,1.0,0,308.0,1
1102,1102,0.31591289811170953,0.3,1.0,1.0,296.0,942.0,1.0,1,102.0,1
1103,1103,-0.8307136569387111,-0.8,0.0,1.0,428.0,618.0,1.0,0,364.0,1
1104,1104,0.8689717938933231,0.9,0.0,0.0,385.0,794.0,0.0,1,201.0,1
1105,1105,0.7398131567024403,0.7,1.0,1.0,412.0,895.0,1.0,1,113.0,1
1106,1106,0.18531176225894364,0.2,0.0,0.0,307.0,717.0,0.0,1,486.0,1
1107,1107,-0.037135256821442364,-0.0,0.0,1.0,416.0,757.0,1.0,0,537.0,1
1108,1108,-0.6315696954264471,-0.6,1.0,0.0,395.0,730.0,0.0,0,265.0,1
1109,1109,0.3991855257878031,0.4,0.0,0.0,369.0,517.0,0.0,1,274.0,1
1110,1110,-0.10067416333882229,-0.1,1.0,0.0,340.0,861.0,0.0,0,509.0,1
1111,1111,0.5954498279829522,0.6,1.0,1.0,462.0,663.0,1.0,1,235.0,1
1112,1112,0.4127084555800685,0.4,0.0,0.0,404.0,899.0,0.0,1,247.0,1
1113,1113,0.5085609821670541,0.5,1.0,1.0,475.0,670.0,1.0,1,195.0,1
1114,1114,0.15421641386263285,0.2,0.0,0.0,462.0,620.0,0.0,1,638.0,1
1115,1115,-0.7862735362491349,-0.8,0.0,1.0,417.0,692.0,1.0,0,501.0,1
1116,1116,0.2774132116930791,0.3,0.0,0.0,347.0,895.0,0.0,1,218.0,1
1117,1117,-0.876859657727145,-0.9,0.0,1.0,303.0,682.0,1.0,0,275.0,1
1118,1118,0.4006416899816475,0.4,0.0,0.0,468.0,533.0,0.0,1,269.0,1
1119,1119,-0.8625739639518489,-0.9,1.0,0.0,317.0,575.0,0.0,0,238.0,1
1120,1120,-0.7141004419228887,-0.7,0.0,1.0,294.0,549.0,1.0,0,447.0,1
1121,1121,0.5259132625155961,0.5,0.0,0.0,469.0,568.0,0.0,1,323.0,1
1122,1122,-0.659841172713813,-0.7,0.0,1.0,463.0,516.0,1.0,0,331.0,1
1123,1123,-0.7601382308254125,-0.8,0.0,1.0,308.0,530.0,1.0,0,222.0,1
1124,1124,0.24498488555110443,0.2,0.0,0.0,252.0,974.0,0.0,1,194.0,1
1125,1125,0.8826772487875186,0.9,1.0,1.0,441.0,938.0,1.0,1,71.0,1
1126,1126,0.41184946532575994,0.4,0.0,0.0,457.0,950.0,0.0,1,83.0,1
1127,1127,0.7483818975942643,0.7,1.0,1.0,492.0,900.0,1.0,1,128.0,1
1128,1128,0.5821796841061436,0.6,1.0,1.0,424.0,893.0,1.0,1,303.0,1
1129,1129,0.734138942935964,0.7,1.0,1.0,361.0,582.0,1.0,1,257.0,1
1130,1130,0.7013251830272057,0.7,1.0,1.0,435.0,896.0,1.0,1,79.0,1
1131,1131,-0.5975352129104612,-0.6,0.0,1.0,495.0,594.0,1.0,0,291.0,1
1132,1132,0.4170866642381915,0.4,1.0,1.0,381.0,629.0,1.0,1,490.0,1
1133,1133,-0.26571889072234867,-0.3,0.0,1.0,289.0,595.0,1.0,0,256.0,1
1134,1134,-0.7734549618498681,-0.8,1.0,0.0,356.0,568.0,0.0,0,216.0,1
1135,1135,-0.48861973865931513,-0.5,0.0,1.0,348.0,735.0,1.0,0,297.0,1
1136,1136,0.49398450519976056,0.5,0.0,0.0,367.0,689.0,0.0,1,504.0,1
1137,1137,0.6230547531577085,0.6,0.0,0.0,343.0,784.0,0.0,1,133.0,1
1138,1138,0.130200548468684,0.1,1.0,1.0,472.0,751.0,1.0,1,287.0,1
1139,1139,-0.8224020579716034,-0.8,0.0,1.0,358.0,531.0,1.0,0,341.0,1
1140,1140,-0.5723126264072422,-0.6,1.0,0.0,345.0,644.0,0.0,0,271.0,1
1141,1141,0.6594848127587393,0.7,1.0,1.0,469.0,999.0,1.0,1,42.0,1
1142,1142,0.8973719904285581,0.9,1.0,1.0,413.0,807.0,1.0,1,150.0,1
1143,1143,0.4114089464335172,0.4,1.0,1.0,280.0,623.0,1.0,1,317.0,1
1144,1144,0.613261999818545,0.6,1.0,1.0,378.0,686.0,1.0,1,196.0,1
1145,1145,-0.8981081841751422,-0.9,0.0,1.0,329.0,500.0,1.0,0,301.0,1
1146,1146,0.3322310040281754,0.3,0.0,0.0,334.0,615.0,0.0,1,251.0,1
1147,1147,0.1837605009428266,0.2,1.0,1.0,416.0,970.0,1.0,1,214.0,1
1148,1148,0.11073156713025478,0.1,0.0,0.0,369.0,620.0,0.0,1,351.0,1
1149,1149,-0.6850081074627001,-0.7,1.0,0.0,340.0,918.0,0.0,0,102.0,1
1150,1150,-0.06620625266464508,-0.1,0.0,1.0,402.0,844.0,1.0,0,664.0,1
1151,1151,0.20086010710015956,0.2,0.0,0.0,445.0,527.0,0.0,1,438.0,1
1152,1152,-0.4310224193319773,-0.4,1.0,0.0,318.0,816.0,0.0,0,166.0,1
1153,1153,0.07397644934677639,0.1,1.0,1.0,300.0,579.0,1.0,1,751.0,1
1154,1154,-0.5353020206435068,-0.5,0.0,1.0,420.0,598.0,1.0,0,532.0,1
1155,1155,0.7129431978133499,0.7,1.0,1.0,272.0,850.0,1.0,1,148.0,1
1156,1156,-0.7858863803602701,-0.8,0.0,1.0,312.0,600.0,1.0,0,258.0,1
1157,1157,0.3563552429042779,0.4,0.0,0.0,480.0,768.0,0.0,1,222.0,1
1158,1158,-0.07690059303880081,-0.1,0.0,1.0,420.0,819.0,1.0,0,311.0,1
1159,1159,0.7059927650777139,0.7,0.0,0.0,348.0,603.0,0.0,1,279.0,1
1160,1160,-0.15212578407118893,-0.2,0.0,1.0,305.0,720.0,1.0,0,345.0,1
1161,1161,0.6610640580321275,0.7,0.0,0.0,423.0,660.0,0.0,1,197.0,1
1162,1162,0.021710348206746,0.0,1.0,1.0,265.0,937.0,1.0,1,3798.0,1
1163,1163,0.07968187025796247,0.1,1.0,1.0,325.0,748.0,1.0,1,547.0,1
1164,1164,-0.3323079254096123,-0.3,0.0,1.0,445.0,818.0,1.0,0,227.0,1
1165,1165,-0.2894386142135251,-0.3,1.0,0.0,274.0,728.0,0.0,0,218.0,1
1166,1166,-0.38829321248062054,-0.4,0.0,1.0,427.0,624.0,1.0,0,139.0,1
1167,1167,0.7839722040465765,0.8,1.0,1.0,467.0,714.0,1.0,1,339.0,1
1168,1168,-0.15221131453561632,-0.2,0.0,1.0,426.0,636.0,1.0,0,348.0,1
1169,1169,-0.07755054564267305,-0.1,0.0,1.0,488.0,689.0,1.0,0,493.0,1
1170,1170,-0.7710069303377701,-0.8,0.0,1.0,342.0,982.0,1.0,0,96.0,1
1171,1171,0.756121781823846,0.8,0.0,0.0,331.0,873.0,0.0,1,156.0,1
1172,1172,-0.13738232028149766,-0.1,1.0,0.0,483.0,808.0,0.0,0,209.0,1
1173,1173,-0.18143403745850706,-0.2,1.0,0.0,261.0,550.0,0.0,0,599.0,1
1174,1174,0.2865590187234569,0.3,0.0,0.0,373.0,687.0,0.0,1,260.0,1
1175,1175,-0.6854002100951608,-0.7,1.0,0.0,254.0,738.0,0.0,0,228.0,1
1176,1176,0.5266757652280015,0.5,0.0,0.0,443.0,781.0,0.0,1,216.0,1
1177,1177,-0.6304105211458171,-0.6,0.0,1.0,353.0,822.0,1.0,0,205.0,1
1178,1178,-0.33803841363009945,-0.3,0.0,1.0,455.0,849.0,1.0,0,156.0,1
1179,1179,-0.2783276453328424,-0.3,1.0,0.0,337.0,853.0,0.0,0,530.0,1
1180,1180,-0.5379681735944248,-0.5,1.0,0.0,359.0,856.0,0.0,0,495.0,1
1181,1181,0.8777425469598991,0.9,0.0,0.0,346.0,858.0,0.0,1,126.0,1
1182,1182,-0.4436078392187748,-0.4,0.0,1.0,429.0,749.0,1.0,0,182.0,1
1183,1183,0.3511441001105854,0.4,1.0,1.0,304.0,861.0,1.0,1,115.0,1
1184,1184,-0.29824608117691387,-0.3,0.0,1.0,390.0,777.0,1.0,0,283.0,1
1185,1185,0.6675541257563448,0.7,0.0,0.0,312.0,588.0,0.0,1,190.0,1
1186,1186,0.3748119040873287,0.4,0.0,0.0,390.0,943.0,0.0,1,47.0,1
1187,1187,0.75331436098622,0.8,0.0,0.0,259.0,554.0,0.0,1,407.0,1
1188,1188,-0.1353336054913158,-0.1,1.0,0.0,278.0,518.0,0.0,0,544.0,1
1189,1189,-0.04488381194777624,-0.0,0.0,1.0,252.0,689.0,1.0,0,1359.0,1
1190,1190,-0.23229338346593265,-0.2,1.0,0.0,468.0,991.0,0.0,0,211.0,1
1191,1191,0.8990100811131018,0.9,1.0,1.0,317.0,555.0,1.0,1,308.0,1
1192,1192,-0.3618764479075003,-0.4,0.0,1.0,388.0,721.0,1.0,0,191.0,1
1193,1193,-0.6640102407996022,-0.7,1.0,0.0,409.0,810.0,0.0,0,121.0,1
1194,1194,0.8951822194099278,0.9,1.0,1.0,494.0,655.0,1.0,1,261.0,1
1195,1195,-0.4782274873360474,-0.5,0.0,1.0,342.0,895.0,1.0,0,113.0,1
1196,1196,0.07838716207720797,0.1,0.0,0.0,459.0,752.0,0.0,1,349.0,1
1197,1197,-0.7348337244359495,-0.7,1.0,0.0,320.0,791.0,0.0,0,439.0,1
1198,1198,-0.107546350156691,-0.1,0.0,1.0,302.0,874.0,1.0,0,284.0,1
1199,1199,0.3153982354046946,0.3,1.0,1.0,266.0,508.0,1.0,1,546.0,1
1200,1200,-0.12908095149976073,-0.1,0.0,1.0,324.0,942.0,1.0,0,324.0,1
1201,1201,-0.5981644398043557,-0.6,0.0,1.0,446.0,528.0,1.0,0,466.0,1
1202,1202,0.34724954650601536,0.3,1.0,1.0,412.0,721.0,1.0,1,357.0,1
1203,1203,0.10606383089273541,0.1,0.0,0.0,321.0,703.0,0.0,1,356.0,1
1204,1204,0.27904975011994904,0.3,1.0,1.0,467.0,664.0,1.0,1,419.0,1
1205,1205,0.4202178199345138,0.4,1.0,1.0,318.0,844.0,1.0,1,138.0,1
1206,1206,0.6170050851815,0.6,1.0,1.0,347.0,765.0,1.0,1,148.0,1
1207,1207,0.11723861967738392,0.1,0.0,0.0,467.0,640.0,0.0,1,613.0,1
1208,1208,-0.5366596743397511,-0.5,1.0,0.0,411.0,681.0,0.0,0,188.0,1
1209,1209,0.6529456832574713,0.7,1.0,1.0,352.0,554.0,1.0,1,214.0,1
1210,1210,0.6182070832749312,0.6,0.0,0.0,345.0,727.0,0.0,1,198.0,1
1211,1211,-0.041467461450519716,-0.0,1.0,0.0,498.0,853.0,0.0,0,519.0,1
1212,1212,0.7289691861345148,0.7,1.0,1.0,289.0,955.0,1.0,1,106.0,1
1213,1213,0.3477141032193042,0.3,0.0,0.0,359.0,520.0,0.0,1,261.0,1
1214,1214,-0.7846534949602004,-0.8,1.0,0.0,279.0,652.0,0.0,0,229.0,1
1215,1215,0.14273905760172256,0.1,1.0,1.0,457.0,655.0,1.0,1,368.0,1
1216,1216,-0.8035707879195778,-0.8,0.0,1.0,499.0,604.0,1.0,0,227.0,1
1217,1217,-0.46836647961173694,-0.5,0.0,1.0,343.0,860.0,1.0,0,157.0,1
1218,1218,0.5717464488999872,0.6,0.0,0.0,377.0,880.0,0.0,1,73.0,1
1219,1219,0.16333424278541775,0.2,1.0,1.0,498.0,855.0,1.0,1,257.0,1
1220,1220,0.6120380590607896,0.6,1.0,1.0,487.0,981.0,1.0,1,62.0,1
1221,1221,0.07956676210047298,0.1,0.0,0.0,388.0,918.0,0.0,1,314.0,1
1222,1222,-0.0661097848108384,-0.1,1.0,0.0,451.0,556.0,0.0,0,503.0,1
1223,1223,-0.8128758148645179,-0.8,0.0,1.0,354.0,732.0,1.0,0,304.0,1
1224,1224,0.38521938642065334,0.4,1.0,1.0,310.0,804.0,1.0,1,226.0,1
1225,1225,0.3421430593024727,0.3,0.0,0.0,286.0,539.0,0.0,1,395.0,1
1226,1226,-0.647769325263134,-0.6,1.0,0.0,470.0,707.0,0.0,0,223.0,1
1227,1227,0.7961080822393695,0.8,0.0,0.0,446.0,620.0,0.0,1,544.0,1
1228,1228,0.46094952754355145,0.5,0.0,0.0,334.0,593.0,0.0,1,293.0,1
1229,1229,0.17324384447117536,0.2,0.0,0.0,465.0,602.0,0.0,1,383.0,1
1230,1230,0.7129435601117097,0.7,1.0,1.0,306.0,540.0,1.0,1,344.0,1
1231,1231,0.25709223427568506,0.3,1.0,1.0,292.0,699.0,1.0,1,429.0,1
1232,1232,-0.6139484682451188,-0.6,1.0,0.0,261.0,664.0,0.0,0,245.0,1
1233,1233,0.7594233473801147,0.8,1.0,1.0,349.0,941.0,1.0,1,140.0,1
1234,1234,-0.5159882923427079,-0.5,1.0,0.0,277.0,682.0,0.0,0,171.0,1
1235,1235,-0.2002537652722679,-0.2,0.0,1.0,482.0,725.0,1.0,0,433.0,1
1236,1236,-0.6306795015513003,-0.6,0.0,1.0,259.0,501.0,1.0,0,280.0,1
1237,1237,0.07097032577447193,0.1,1.0,1.0,447.0,891.0,1.0,1,922.0,1
1238,1238,0.052442523931855334,0.1,0.0,0.0,320.0,908.0,0.0,1,552.0,1
1239,1239,0.14925093873598627,0.1,0.0,0.0,256.0,962.0,0.0,1,132.0,1
1240,1240,0.3519981083703191,0.4,0.0,0.0,385.0,615.0,0.0,1,370.0,1
1241,1241,0.8265461389551892,0.8,1.0,1.0,362.0,763.0,1.0,1,215.0,1
1242,1242,-0.5466370278383179,-0.5,0.0,1.0,362.0,964.0,1.0,0,254.0,1
1243,1243,-0.5861989048984699,-0.6,1.0,0.0,304.0,797.0,0.0,0,229.0,1
1244,1244,-0.12077069956434383,-0.1,0.0,1.0,445.0,730.0,1.0,0,455.0,1
1245,1245,0.7470477139280737,0.7,0.0,0.0,461.0,580.0,0.0,1,239.0,1
1246,1246,0.46475655602292243,0.5,0.0,0.0,344.0,773.0,0.0,1,183.0,1
1247,1247,-0.6022613858433001,-0.6,1.0,0.0,429.0,722.0,0.0,0,309.0,1
1248,1248,0.6219139328214577,0.6,1.0,1.0,484.0,996.0,1.0,1,80.0,1
1249,1249,-0.2404559104973546,-0.2,0.0,1.0,326.0,967.0,1.0,0,327.0,1
1250,1250,-0.18018763353426925,-0.2,0.0,1.0,495.0,625.0,1.0,0,410.0,1
1251,1251,0.6079580897749292,0.6,1.0,1.0,391.0,695.0,1.0,1,254.0,1
1252,1252,-0.5559740915389941,-0.6,0.0,1.0,363.0,607.0,1.0,0,400.0,1
1253,1253,-0.7307311652161324,-0.7,1.0,0.0,375.0,647.0,0.0,0,148.0,1
1254,1254,-0.34915824053564626,-0.3,1.0,0.0,437.0,781.0,0.0,0,222.0,1
1255,1255,0.7013923487136714,0.7,0.0,0.0,275.0,982.0,0.0,1,93.0,1
1256,1256,0.008353180724902765,0.0,1.0,1.0,451.0,614.0,0.0,0,2565.0,0
1257,1257,-0.5445719391220716,-0.5,0.0,1.0,442.0,949.0,1.0,0,239.0,1
1258,1258,-0.8503206022502312,-0.9,0.0,1.0,493.0,891.0,1.0,0,106.0,1
1259,1259,-0.3858497389651163,-0.4,1.0,0.0,411.0,651.0,0.0,0,228.0,1
1260,1260,-0.4435329936459981,-0.4,0.0,1.0,352.0,885.0,1.0,0,153.0,1
1261,1261,-0.571530945058292,-0.6,1.0,0.0,271.0,626.0,0.0,0,183.0,1
1262,1262,0.26821780725294897,0.3,0.0,0.0,275.0,875.0,0.0,1,120.0,1
1263,1263,0.011201324291175374,0.0,1.0,1.0,411.0,592.0,1.0,1,2237.0,1
1264,1264,-0.7091805947303979,-0.7,1.0,0.0,405.0,824.0,0.0,0,231.0,1
1265,1265,0.4808689376383547,0.5,0.0,0.0,395.0,682.0,0.0,1,213.0,1
1266,1266,0.7338816017432187,0.7,1.0,1.0,307.0,503.0,1.0,1,350.0,1
1267,1267,0.8997591417407856,0.9,1.0,1.0,409.0,667.0,1.0,1,184.0,1
1268,1268,0.023530231420274772,0.0,0.0,0.0,370.0,754.0,0.0,1,1056.0,1
1269,1269,-0.7774845128816004,-0.8,0.0,1.0,492.0,622.0,1.0,0,286.0,1
1270,1270,0.6679652823298029,0.7,1.0,1.0,355.0,552.0,1.0,1,273.0,1
1271,1271,-0.7071955292832941,-0.7,0.0,1.0,486.0,661.0,1.0,0,293.0,1
1272,1272,-0.48969229258812036,-0.5,0.0,1.0,261.0,759.0,1.0,0,270.0,1
1273,1273,-0.0959185082672156,-0.1,1.0,0.0,410.0,599.0,0.0,0,351.0,1
1274,1274,-0.76112574177902,-0.8,0.0,1.0,484.0,605.0,1.0,0,521.0,1
1275,1275,-0.40689332008417495,-0.4,1.0,0.0,348.0,775.0,0.0,0,107.0,1
1276,1276,0.44102759421270343,0.4,0.0,0.0,264.0,513.0,0.0,1,223.0,1
1277,1277,-0.7952845906833796,-0.8,0.0,1.0,260.0,915.0,1.0,0,145.0,1
1278,1278,0.3335961919893894,0.3,1.0,1.0,270.0,852.0,1.0,1,128.0,1
1279,1279,-0.4334637720230467,-0.4,1.0,0.0,275.0,508.0,0.0,0,527.0,1
1280,1280,0.03868418269632745,0.0,0.0,0.0,255.0,884.0,0.0,1,521.0,1
1281,1281,0.8231222972181219,0.8,1.0,1.0,460.0,908.0,1.0,1,82.0,1
1282,1282,0.7020697723267771,0.7,1.0,1.0,395.0,799.0,1.0,1,176.0,1
1283,1283,-0.08930655426923528,-0.1,1.0,0.0,407.0,687.0,0.0,0,736.0,1
1284,1284,-0.1055972378250678,-0.1,1.0,0.0,427.0,626.0,0.0,0,377.0,1
1285,1285,-0.7082094990577749,-0.7,1.0,0.0,487.0,907.0,0.0,0,276.0,1
1286,1286,0.3532951650391122,0.4,1.0,1.0,268.0,940.0,1.0,1,202.0,1
1287,1287,-0.22888000986135315,-0.2,0.0,1.0,415.0,895.0,1.0,0,310.0,1
1288,1288,-0.5154795802865391,-0.5,1.0,0.0,325.0,831.0,0.0,0,144.0,1
1289,1289,0.7130829861429776,0.7,1.0,1.0,289.0,562.0,1.0,1,409.0,1
1290,1290,-0.6151642063288791,-0.6,1.0,0.0,434.0,749.0,0.0,0,207.0,1
1291,1291,0.022548804243414877,0.0,0.0,0.0,363.0,872.0,0.0,1,2015.0,1
1292,1292,0.6874798207458396,0.7,0.0,0.0,384.0,960.0,0.0,1,176.0,1
1293,1293,-0.17093217922391002,-0.2,1.0,0.0,352.0,771.0,0.0,0,377.0,1
1294,1294,0.5747288823415354,0.6,1.0,1.0,427.0,953.0,1.0,1,110.0,1
1295,1295,0.8939799341580578,0.9,1.0,1.0,345.0,997.0,1.0,1,178.0,1
1296,1296,-0.5660269812011809,-0.6,1.0,0.0,276.0,522.0,0.0,0,202.0,1
1297,1297,0.5908338041683258,0.6,0.0,0.0,425.0,998.0,0.0,1,117.0,1
1298,1298,0.8249400695778945,0.8,1.0,1.0,469.0,796.0,1.0,1,125.0,1
1299,1299,0.2398019276530018,0.2,0.0,0.0,464.0,547.0,0.0,1,499.0,1
1300,1300,0.6781302739130072,0.7,1.0,1.0,417.0,552.0,1.0,1,551.0,1
1301,1301,0.40355089926389753,0.4,0.0,0.0,369.0,819.0,0.0,1,362.0,1
1302,1302,-0.5204867861875117,-0.5,0.0,1.0,446.0,878.0,1.0,0,216.0,1
1303,1303,0.8516229888604466,0.9,1.0,1.0,344.0,644.0,1.0,1,312.0,1
1304,1304,0.1881969542682963,0.2,1.0,1.0,367.0,522.0,1.0,1,591.0,1
1305,1305,0.24886169535249258,0.2,0.0,0.0,420.0,547.0,0.0,1,623.0,1
1306,1306,0.750109037060534,0.8,1.0,1.0,261.0,610.0,1.0,1,159.0,1
1307,1307,-0.45590333678767464,-0.5,1.0,0.0,425.0,944.0,0.0,0,461.0,1
1308,1308,0.5495283709482316,0.5,1.0,1.0,277.0,802.0,1.0,1,131.0,1
1309,1309,-0.21816900725274424,-0.2,0.0,1.0,474.0,513.0,1.0,0,443.0,1
1310,1310,-0.21340346092804074,-0.2,1.0,0.0,292.0,699.0,0.0,0,409.0,1
1311,1311,-0.8040789565268807,-0.8,0.0,1.0,267.0,824.0,1.0,0,299.0,1
1312,1312,-0.1476993737674801,-0.1,1.0,0.0,338.0,868.0,0.0,0,234.0,1
1313,1313,-0.5655295970649783,-0.6,0.0,1.0,375.0,879.0,1.0,0,146.0,1
1314,1314,-0.43099975373654903,-0.4,0.0,1.0,379.0,954.0,1.0,0,167.0,1
1315,1315,-0.7275488504306394,-0.7,0.0,1.0,415.0,861.0,1.0,0,154.0,1
1316,1316,-0.641256829814242,-0.6,0.0,1.0,261.0,752.0,1.0,0,707.0,1
1317,1317,-0.5992039829788544,-0.6,1.0,0.0,250.0,907.0,0.0,0,203.0,1
1318,1318,-0.7782981902721348,-0.8,1.0,0.0,258.0,533.0,0.0,0,289.0,1
1319,1319,0.8870569936730611,0.9,1.0,1.0,314.0,552.0,1.0,1,284.0,1
1320,1320,0.3167721561452327,0.3,1.0,1.0,276.0,899.0,1.0,1,175.0,1
1321,1321,-0.27617495786277924,-0.3,1.0,0.0,263.0,524.0,0.0,0,853.0,1
1322,1322,-0.1857070302144489,-0.2,0.0,1.0,268.0,755.0,1.0,0,317.0,1
1323,1323,0.6846497727780544,0.7,0.0,0.0,338.0,619.0,0.0,1,343.0,1
1324,1324,0.4139717835931601,0.4,0.0,0.0,412.0,905.0,0.0,1,173.0,1
1325,1325,-0.42468489150195887,-0.4,1.0,0.0,258.0,992.0,0.0,0,140.0,1
1326,1326,-0.1866628547360889,-0.2,1.0,0.0,380.0,863.0,0.0,0,137.0,1
1327,1327,-0.22307138744676624,-0.2,0.0,1.0,307.0,623.0,1.0,0,330.0,1
1328,1328,0.23103349069220525,0.2,1.0,1.0,301.0,956.0,1.0,1,193.0,1
1329,1329,0.24005369942638055,0.2,1.0,1.0,445.0,727.0,1.0,1,208.0,1
1330,1330,-0.5255881188764421,-0.5,0.0,1.0,363.0,762.0,1.0,0,325.0,1
1331,1331,-0.42989975574992784,-0.4,0.0,1.0,272.0,917.0,1.0,0,181.0,1
1332,1332,-0.06199151749052245,-0.1,0.0,1.0,429.0,917.0,1.0,0,474.0,1
1333,1333,0.48447206067933124,0.5,0.0,0.0,324.0,953.0,0.0,1,143.0,1
1334,1334,-0.34146672513619913,-0.3,0.0,1.0,306.0,900.0,1.0,0,184.0,1
1335,1335,-0.5073510995333026,-0.5,0.0,1.0,481.0,817.0,1.0,0,252.0,1
1336,1336,-0.03234910542203995,-0.0,0.0,1.0,362.0,760.0,1.0,0,1778.0,1
1337,1337,0.014858336281082574,0.0,1.0,1.0,437.0,718.0,1.0,1,3845.0,1
1338,1338,0.1369528752881327,0.1,1.0,1.0,437.0,759.0,1.0,1,694.0,1
1339,1339,-0.5649435272596276,-0.6,0.0,1.0,283.0,777.0,1.0,0,220.0,1
1340,1340,-0.20046429470333726,-0.2,1.0,0.0,369.0,625.0,0.0,0,526.0,1
1341,1341,-0.3005687935371768,-0.3,0.0,1.0,401.0,518.0,1.0,0,411.0,1
1342,1342,0.29074404701219125,0.3,0.0,0.0,491.0,591.0,0.0,1,268.0,1
1343,1343,0.15164535069370755,0.2,1.0,1.0,397.0,661.0,1.0,1,542.0,1
1344,1344,-0.3028197290945933,-0.3,1.0,0.0,466.0,764.0,0.0,0,200.0,1
1345,1345,-0.028061671660647436,-0.0,0.0,1.0,433.0,905.0,1.0,0,312.0,1
1346,1346,-0.6113226046602613,-0.6,0.0,1.0,348.0,553.0,1.0,0,309.0,1
1347,1347,-0.3163188187129625,-0.3,1.0,0.0,355.0,707.0,0.0,0,328.0,1
1348,1348,-0.46246350139323905,-0.5,1.0,0.0,470.0,667.0,0.0,0,353.0,1
1349,1349,0.12906297438966152,0.1,0.0,0.0,391.0,716.0,0.0,1,323.0,1
1350,1350,-0.5371671904442346,-0.5,1.0,0.0,317.0,763.0,0.0,0,460.0,1
1351,1351,0.2772478763469127,0.3,1.0,1.0,299.0,759.0,1.0,1,482.0,1
1352,1352,0.8060092009576524,0.8,1.0,1.0,326.0,561.0,1.0,1,333.0,1
1353,1353,-0.11768461019690757,-0.1,1.0,0.0,374.0,808.0,0.0,0,448.0,1
1354,1354,-0.6439072450927528,-0.6,0.0,1.0,280.0,972.0,1.0,0,168.0,1
1355,1355,0.629621787192571,0.6,0.0,0.0,492.0,652.0,0.0,1,356.0,1
1356,1356,-0.7752428997572078,-0.8,0.0,1.0,269.0,909.0,1.0,0,272.0,1
1357,1357,0.8329522002997406,0.8,0.0,0.0,316.0,541.0,0.0,1,193.0,1
1358,1358,0.7689681957107889,0.8,1.0,1.0,269.0,976.0,1.0,1,115.0,1
1359,1359,0.8503814560141393,0.9,0.0,0.0,295.0,516.0,0.0,1,229.0,1
1360,1360,0.07642827276056063,0.1,1.0,1.0,459.0,750.0,1.0,1,2681.0,1
1361,1361,-0.09578151452156536,-0.1,1.0,0.0,307.0,511.0,0.0,0,812.0,1
1362,1362,0.22530032573814818,0.2,1.0,1.0,399.0,575.0,1.0,1,386.0,1
1363,1363,0.5788114410390824,0.6,0.0,0.0,282.0,839.0,0.0,1,159.0,1
1364,1364,0.01713689759165371,0.0,1.0,1.0,292.0,856.0,1.0,1,3852.0,1
1365,1365,-0.7895026158367122,-0.8,0.0,1.0,391.0,578.0,1.0,0,361.0,1
1366,1366,-0.7713316770748716,-0.8,1.0,0.0,445.0,502.0,0.0,0,273.0,1
1367,1367,0.5266869697144797,0.5,0.0,0.0,406.0,531.0,0.0,1,303.0,1
1368,1368,0.47418920128457265,0.5,1.0,1.0,337.0,952.0,1.0,1,81.0,1
1369,1369,0.8281615327952762,0.8,0.0,0.0,344.0,843.0,0.0,1,443.0,1
1370,1370,-0.6671515126281369,-0.7,1.0,0.0,263.0,603.0,0.0,0,224.0,1
1371,1371,-0.34486435348272393,-0.3,1.0,0.0,277.0,822.0,0.0,0,321.0,1
1372,1372,0.3605296889493562,0.4,0.0,0.0,307.0,983.0,0.0,1,160.0,1
1373,1373,-0.4056420962777132,-0.4,0.0,1.0,361.0,917.0,1.0,0,142.0,1
1374,1374,-0.15730336242192022,-0.2,0.0,1.0,492.0,595.0,1.0,0,413.0,1
1375,1375,-0.6423479259180206,-0.6,1.0,0.0,257.0,652.0,0.0,0,221.0,1
1376,1376,-0.5704621304011469,-0.6,1.0,0.0,427.0,645.0,0.0,0,188.0,1
1377,1377,-0.7708686735195235,-0.8,1.0,0.0,312.0,624.0,0.0,0,254.0,1
1378,1378,-0.7508308790775983,-0.8,0.0,1.0,469.0,518.0,1.0,0,223.0,1
1379,1379,-0.4192485926259593,-0.4,1.0,0.0,333.0,631.0,0.0,0,396.0,1
1380,1380,0.4527302263062888,0.5,1.0,1.0,375.0,537.0,1.0,1,478.0,1
1381,1381,0.5361873870007928,0.5,1.0,1.0,450.0,791.0,1.0,1,189.0,1
1382,1382,0.4322569139414846,0.4,0.0,0.0,498.0,507.0,0.0,1,425.0,1
1383,1383,0.3244320456221229,0.3,1.0,1.0,485.0,595.0,1.0,1,330.0,1
1384,1384,0.37876564244824984,0.4,1.0,1.0,281.0,507.0,1.0,1,452.0,1
1385,1385,-0.6678357646260118,-0.7,0.0,1.0,430.0,889.0,1.0,0,201.0,1
1386,1386,0.20048839067322166,0.2,1.0,1.0,408.0,778.0,1.0,1,404.0,1
1387,1387,-0.7360372778813465,-0.7,0.0,1.0,429.0,732.0,1.0,0,179.0,1
1388,1388,0.8689589999590427,0.9,1.0,1.0,418.0,688.0,1.0,1,284.0,1
1389,1389,-0.5452473203352898,-0.5,0.0,1.0,267.0,630.0,1.0,0,443.0,1
1390,1390,0.23206142885222614,0.2,1.0,1.0,474.0,685.0,1.0,1,301.0,1
1391,1391,0.07439009259670348,0.1,1.0,1.0,326.0,958.0,1.0,1,496.0,1
1392,1392,-0.8694230901349385,-0.9,0.0,1.0,423.0,663.0,1.0,0,314.0,1
1393,1393,-0.7623377672436902,-0.8,1.0,0.0,291.0,875.0,0.0,0,304.0,1
1394,1394,0.3020405021375222,0.3,1.0,1.0,409.0,892.0,1.0,1,259.0,1
1395,1395,-0.8466068389525719,-0.8,0.0,1.0,284.0,946.0,1.0,0,170.0,1
1396,1396,0.7260888388540402,0.7,1.0,1.0,453.0,737.0,1.0,1,140.0,1
1397,1397,-0.5408009574994743,-0.5,1.0,0.0,353.0,691.0,0.0,0,246.0,1
1398,1398,-0.606614083462922,-0.6,1.0,0.0,251.0,837.0,0.0,0,422.0,1
1399,1399,0.12830853988849567,0.1,0.0,0.0,346.0,549.0,0.0,1,425.0,1
1400,1400,0.08893081326213115,0.1,1.0,1.0,468.0,839.0,1.0,1,363.0,1
1401,1401,0.17890876047932036,0.2,0.0,0.0,485.0,922.0,0.0,1,283.0,1
1402,1402,-0.8995943504917194,-0.9,1.0,0.0,390.0,617.0,0.0,0,293.0,1
1403,1403,-0.15185854731081172,-0.2,1.0,0.0,419.0,614.0,0.0,0,537.0,1
1404,1404,-0.38062740164842224,-0.4,0.0,1.0,496.0,581.0,1.0,0,823.0,1
1405,1405,-0.06280400750792525,-0.1,1.0,0.0,477.0,908.0,0.0,0,635.0,1
1406,1406,0.005254443274615106,0.0,0.0,0.0,270.0,751.0,0.0,1,2839.0,1
1407,1407,-0.8051489093673747,-0.8,1.0,0.0,422.0,728.0,0.0,0,240.0,1
1408,1408,-0.11955438040818056,-0.1,0.0,1.0,475.0,766.0,1.0,0,469.0,1
1409,1409,-0.41385368603579636,-0.4,1.0,0.0,283.0,700.0,0.0,0,467.0,1
1410,1410,-0.42173274054352455,-0.4,0.0,1.0,314.0,789.0,1.0,0,137.0,1
1411,1411,0.5159485783252108,0.5,0.0,0.0,474.0,661.0,0.0,1,235.0,1
1412,1412,0.8660523767457459,0.9,1.0,1.0,470.0,921.0,1.0,1,159.0,1
1413,1413,-0.3961765073958281,-0.4,0.0,1.0,499.0,575.0,1.0,0,356.0,1
1414,1414,-0.27256638689793955,-0.3,0.0,1.0,467.0,822.0,1.0,0,301.0,1
1415,1415,0.5331069745934244,0.5,1.0,1.0,424.0,941.0,1.0,1,175.0,1
1416,1416,-0.2546097194062349,-0.3,0.0,1.0,368.0,507.0,1.0,0,425.0,1
1417,1417,-0.8938379355024685,-0.9,1.0,0.0,311.0,517.0,0.0,0,392.0,1
1418,1418,-0.159387359689248,-0.2,0.0,1.0,335.0,932.0,1.0,0,163.0,1
1419,1419,-0.4520238336272671,-0.5,1.0,0.0,371.0,967.0,0.0,0,162.0,1
1420,1420,-0.06978633626802133,-0.1,0.0,1.0,440.0,992.0,1.0,0,408.0,1
1421,1421,0.11447887070711948,0.1,0.0,0.0,318.0,775.0,0.0,1,337.0,1
1422,1422,0.22348918002260298,0.2,0.0,0.0,427.0,840.0,0.0,1,123.0,1
1423,1423,-0.5164805831628398,-0.5,1.0,0.0,286.0,731.0,0.0,0,103.0,1
1424,1424,0.4328948123530968,0.4,1.0,1.0,387.0,687.0,1.0,1,186.0,1
1425,1425,0.08215841609681851,0.1,1.0,1.0,349.0,907.0,1.0,1,534.0,1
1426,1426,-0.8412627942893424,-0.8,0.0,1.0,411.0,709.0,1.0,0,440.0,1
1427,1427,0.586301783457258,0.6,1.0,1.0,371.0,722.0,1.0,1,197.0,1
1428,1428,0.8387433354700876,0.8,0.0,0.0,453.0,558.0,0.0,1,419.0,1
1429,1429,0.5303753220129784,0.5,0.0,0.0,400.0,576.0,0.0,1,194.0,1
1430,1430,0.34768954586125866,0.3,0.0,0.0,338.0,608.0,0.0,1,264.0,1
1431,1431,-0.0946939665214157,-0.1,1.0,0.0,373.0,945.0,0.0,0,192.0,1
1432,1432,-0.4421813389172764,-0.4,1.0,0.0,270.0,535.0,0.0,0,395.0,1
1433,1433,0.7170560087384693,0.7,1.0,1.0,432.0,593.0,1.0,1,265.0,1
1434,1434,-0.14274079120027494,-0.1,0.0,1.0,349.0,570.0,1.0,0,291.0,1
1435,1435,0.22178404303861654,0.2,1.0,1.0,266.0,538.0,1.0,1,426.0,1
1436,1436,-0.4013472518674889,-0.4,0.0,1.0,276.0,568.0,1.0,0,446.0,1
1437,1437,0.21008756109314664,0.2,1.0,1.0,299.0,738.0,1.0,1,173.0,1
1438,1438,-0.39046778655882575,-0.4,1.0,0.0,451.0,938.0,0.0,0,181.0,1
1439,1439,0.37140013786063764,0.4,0.0,0.0,441.0,877.0,0.0,1,232.0,1
1440,1440,0.345095148965752,0.3,1.0,1.0,333.0,727.0,1.0,1,250.0,1
1441,1441,-0.14314885165832403,-0.1,0.0,1.0,331.0,628.0,1.0,0,471.0,1
1442,1442,0.08942047038806422,0.1,0.0,0.0,353.0,890.0,0.0,1,247.0,1
1443,1443,-0.5837356003510599,-0.6,1.0,0.0,254.0,605.0,0.0,0,311.0,1
1444,1444,0.6399262305812742,0.6,0.0,0.0,313.0,900.0,0.0,1,207.0,1
1445,1445,0.7142712473029006,0.7,0.0,0.0,307.0,939.0,0.0,1,264.0,1
1446,1446,-0.8045121236685614,-0.8,0.0,1.0,385.0,712.0,1.0,0,263.0,1
1447,1447,-0.47550807060884265,-0.5,0.0,1.0,363.0,518.0,1.0,0,379.0,1
1448,1448,0.8507491668547976,0.9,1.0,1.0,355.0,770.0,1.0,1,235.0,1
1449,1449,-0.457795711642831,-0.5,0.0,1.0,265.0,941.0,1.0,0,114.0,1
1450,1450,-0.0670665798916078,-0.1,1.0,0.0,486.0,985.0,0.0,0,549.0,1
1451,1451,-0.653477212814189,-0.7,1.0,0.0,384.0,570.0,0.0,0,246.0,1
1452,1452,0.07266910293141382,0.1,1.0,1.0,282.0,907.0,1.0,1,301.0,1
1453,1453,0.005551182677059452,0.0,0.0,0.0,351.0,756.0,0.0,1,3893.0,1
1454,1454,0.12944977055308426,0.1,0.0,0.0,281.0,679.0,0.0,1,370.0,1
1455,1455,0.4778682871723955,0.5,0.0,0.0,413.0,902.0,0.0,1,85.0,1
1456,1456,0.43445385798324143,0.4,0.0,0.0,333.0,582.0,0.0,1,255.0,1
1457,1457,-0.8423600487979104,-0.8,1.0,0.0,356.0,627.0,0.0,0,257.0,1
1458,1458,0.27772875641527495,0.3,0.0,0.0,484.0,934.0,0.0,1,162.0,1
1459,1459,0.15790053577014673,0.2,1.0,1.0,431.0,626.0,1.0,1,343.0,1
1460,1460,-0.4949660157073878,-0.5,0.0,1.0,280.0,789.0,1.0,0,201.0,1
1461,1461,-0.16978068924462275,-0.2,0.0,1.0,443.0,702.0,1.0,0,395.0,1
1462,1462,0.27607570732689946,0.3,1.0,1.0,490.0,502.0,1.0,1,478.0,1
1463,1463,-0.5601633599446556,-0.6,0.0,1.0,371.0,836.0,1.0,0,123.0,1
1464,1464,-0.7786304686312133,-0.8,0.0,1.0,282.0,787.0,1.0,0,261.0,1
1465,1465,-0.15233143199183508,-0.2,1.0,0.0,299.0,770.0,0.0,0,361.0,1
1466,1466,-0.44912770820987485,-0.4,0.0,1.0,399.0,776.0,1.0,0,195.0,1
1467,1467,-0.2161197974831035,-0.2,0.0,1.0,371.0,744.0,1.0,0,345.0,1
1468,1468,0.28934028005959955,0.3,0.0,0.0,271.0,885.0,0.0,1,204.0,1
1469,1469,-0.25430968342057025,-0.3,0.0,1.0,465.0,801.0,1.0,0,244.0,1
1470,1470,-0.7776424279056379,-0.8,0.0,1.0,473.0,877.0,1.0,0,160.0,1
1471,1471,0.5300824307259894,0.5,0.0,0.0,356.0,833.0,0.0,1,281.0,1
1472,1472,0.15869142252361768,0.2,1.0,1.0,350.0,551.0,1.0,1,769.0,1
1473,1473,-0.024458744686140954,-0.0,1.0,0.0,343.0,742.0,0.0,0,365.0,1
1474,1474,0.4880832908821836,0.5,0.0,0.0,474.0,949.0,0.0,1,207.0,1
1475,1475,0.45051451607255155,0.5,1.0,1.0,400.0,959.0,1.0,1,81.0,1
1476,1476,-0.36114509427144625,-0.4,1.0,0.0,474.0,564.0,0.0,0,372.0,1
1477,1477,0.5060089404886928,0.5,0.0,0.0,284.0,936.0,0.0,1,120.0,1
1478,1478,-0.0610640990111071,-0.1,0.0,1.0,263.0,531.0,1.0,0,846.0,1
1479,1479,0.8650289140593873,0.9,0.0,0.0,492.0,923.0,0.0,1,145.0,1
1480,1480,-0.47483487441621286,-0.5,0.0,1.0,420.0,737.0,1.0,0,183.0,1
1481,1481,-0.05407152362826306,-0.1,0.0,1.0,308.0,975.0,1.0,0,137.0,1
1482,1482,0.4312258986309231,0.4,1.0,1.0,498.0,502.0,1.0,1,410.0,1
1483,1483,0.5333879475671909,0.5,0.0,0.0,420.0,584.0,0.0,1,236.0,1
1484,1484,-0.715932327076059,-0.7,1.0,0.0,282.0,683.0,0.0,0,235.0,1
1485,1485,-0.6876534977617202,-0.7,1.0,0.0,350.0,654.0,0.0,0,236.0,1
1486,1486,-0.8892029555678512,-0.9,1.0,0.0,275.0,911.0,0.0,0,104.0,1
1487,1487,-0.6404748526127355,-0.6,0.0,1.0,348.0,679.0,1.0,0,193.0,1
1488,1488,0.14373272566517536,0.1,0.0,0.0,301.0,657.0,0.0,1,352.0,1
1489,1489,-0.5952064256917384,-0.6,1.0,0.0,402.0,567.0,0.0,0,231.0,1
1490,1490,-0.06803508983176065,-0.1,1.0,0.0,441.0,523.0,0.0,0,1046.0,1
1491,1491,0.6254702407437877,0.6,1.0,1.0,463.0,821.0,1.0,1,186.0,1
1492,1492,0.5380917934185033,0.5,1.0,1.0,499.0,761.0,1.0,1,210.0,1
