,trial,coherence,coherence_bin,green_side,correct_side,target_onset,checker_onset,decision,green_decision,decision_time,correct_decision
0,0,0.22777506893709865,0.2,1.0,1.0,253.0,603.0,1.0,1,494.0,1
1,1,-0.490660356964934,-0.5,1.0,0.0,465.0,841.0,0.0,0,184.0,1
2,2,-0.6490981060023095,-0.6,1.0,0.0,403.0,769.0,0.0,0,208.0,1
3,3,0.8367098732997841,0.8,1.0,1.0,254.0,673.0,1.0,1,213.0,1
4,4,-0.3362872944008304,-0.3,0.0,1.0,499.0,899.0,1.0,0,162.0,1
5,5,0.3459301197885133,0.3,0.0,0.0,289.0,612.0,0.0,1,409.0,1
6,6,0.4508324480506193,0.5,0.0,0.0,423.0,512.0,0.0,1,295.0,1
7,7,-0.3542136872831546,-0.4,0.0,1.0,263.0,685.0,1.0,0,212.0,1
8,8,-0.7976590018752387,-0.8,0.0,1.0,499.0,752.0,1.0,0,139.0,1
9,9,-0.2122869418295954,-0.2,0.0,1.0,304.0,928.0,1.0,0,548.0,1
10,10,0.660356625594512,0.7,0.0,0.0,316.0,919.0,0.0,1,315.0,1
11,11,0.4488889600819893,0.4,1.0,1.0,254.0,911.0,1.0,1,475.0,1
12,12,0.28308409926729394,0.3,1.0,1.0,297.0,575.0,1.0,1,438.0,1
13,13,-0.8464233895968027,-0.8,0.0,1.0,398.0,670.0,1.0,0,192.0,1
14,14,-0.5603641467608119,-0.6,1.0,0.0,271.0,804.0,0.0,0,195.0,1
15,15,-0.22150648771475612,-0.2,1.0,0.0,295.0,595.0,0.0,0,570.0,1
16,16,0.1526365183555235,0.2,0.0,0.0,478.0,597.0,0.0,1,1905.0,1
17,17,0.09202203255306662,0.1,0.0,0.0,355.0,865.0,0.0,1,1780.0,1
18,18,-0.26344605511862196,-0.3,0.0,1.0,399.0,643.0,1.0,0,548.0,1
19,19,-0.4655567487966857,-0.5,0.0,1.0,394.0,831.0,1.0,0,535.0,1
20,20,0.0825543789491493,0.1,0.0,0.0,361.0,707.0,0.0,1,1392.0,1
21,21,0.21047274532099525,0.2,0.0,0.0,467.0,690.0,0.0,1,883.0,1
22,22,0.013308026882656532,0.0,0.0,0.0,335.0,651.0,1.0,0,1844.0,0
23,23,-0.5339248448638971,-0.5,1.0,0.0,485.0,545.0,0.0,0,270.0,1
24,24,-0.11333671693386715,-0.1,1.0,0.0,333.0,568.0,0.0,0,1169.0,1
25,25,0.48428590867846155,0.5,0.0,0.0,275.0,680.0,0.0,1,375.0,1
26,26,0.1663367212952448,0.2,0.0,0.0,443.0,820.0,0.0,1,1057.0,1
27,27,0.014075951775895157,0.0,1.0,1.0,306.0,749.0,1.0,1,1945.0,1
28,28,0.09065960998124734,0.1,0.0,0.0,264.0,639.0,0.0,1,2097.0,1
29,29,0.8501111348506011,0.9,1.0,1.0,385.0,885.0,1.0,1,240.0,1
30,30,-0.2689349290578419,-0.3,1.0,0.0,354.0,895.0,0.0,0,411.0,1
31,31,-0.20751417893494684,-0.2,0.0,1.0,379.0,666.0,1.0,0,275.0,1
32,32,-0.09960458434424468,-0.1,0.0,1.0,412.0,695.0,1.0,0,873.0,1
33,33,-0.5492161923249207,-0.5,0.0,1.0,463.0,553.0,1.0,0,244.0,1
34,34,0.5181390257763318,0.5,0.0,0.0,433.0,925.0,0.0,1,252.0,1
35,35,-0.5300621910644776,-0.5,0.0,1.0,309.0,977.0,1.0,0,194.0,1
36,36,-0.3428071609598691,-0.3,0.0,1.0,300.0,509.0,1.0,0,191.0,1
37,37,0.4576745677802888,0.5,0.0,0.0,475.0,942.0,0.0,1,223.0,1
38,38,0.8594572159472312,0.9,0.0,0.0,432.0,948.0,0.0,1,150.0,1
39,39,0.4404974330792769,0.4,1.0,1.0,293.0,947.0,1.0,1,200.0,1
40,40,-0.47260964573247416,-0.5,1.0,0.0,386.0,761.0,0.0,0,523.0,1
41,41,0.3775329181670234,0.4,1.0,1.0,335.0,703.0,1.0,1,192.0,1
42,42,0.005367004455661073,0.0,1.0,1.0,446.0,802.0,0.0,0,1302.0,0
43,43,0.7348035895021633,0.7,1.0,1.0,431.0,626.0,1.0,1,193.0,1
44,44,0.8994665876179632,0.9,1.0,1.0,493.0,933.0,1.0,1,114.0,1
45,45,0.6963536061412353,0.7,1.0,1.0,461.0,922.0,1.0,1,117.0,1
46,46,0.6875139516170922,0.7,0.0,0.0,404.0,949.0,0.0,1,217.0,1
47,47,0.7597777664440967,0.8,1.0,1.0,339.0,630.0,1.0,1,181.0,1
48,48,0.7131485310780062,0.7,0.0,0.0,311.0,989.0,0.0,1,170.0,1
49,49,0.13296230278525767,0.1,1.0,1.0,474.0,779.0,1.0,1,1747.0,1
50,50,-0.7097599976022302,-0.7,0.0,1.0,368.0,545.0,1.0,0,227.0,1
51,51,-0.1010104333625127,-0.1,0.0,1.0,465.0,973.0,1.0,0,392.0,1
52,52,-0.17882806954706354,-0.2,1.0,0.0,299.0,551.0,0.0,0,520.0,1
53,53,-0.5188604396040783,-0.5,1.0,0.0,415.0,687.0,0.0,0,238.0,1
54,54,-0.5279535476675912,-0.5,0.0,1.0,401.0,598.0,1.0,0,201.0,1
55,55,-0.13095361413258,-0.1,0.0,1.0,251.0,953.0,1.0,0,836.0,1
56,56,-0.876538458305903,-0.9,1.0,0.0,485.0,744.0,0.0,0,161.0,1
57,57,0.7154715350958974,0.7,1.0,1.0,372.0,787.0,1.0,1,81.0,1
58,58,-0.7892811561049224,-0.8,0.0,1.0,302.0,524.0,1.0,0,184.0,1
59,59,0.016097063109378862,0.0,0.0,0.0,327.0,794.0,1.0,0,1879.0,0
60,60,0.4822994563557915,0.5,0.0,0.0,449.0,645.0,0.0,1,296.0,1
61,61,-0.5457411865017003,-0.5,0.0,1.0,264.0,770.0,1.0,0,186.0,1
62,62,0.7655230019253682,0.8,1.0,1.0,337.0,578.0,1.0,1,125.0,1
63,63,-0.8192163135425219,-0.8,1.0,0.0,265.0,661.0,0.0,0,214.0,1
64,64,-0.8287924507737366,-0.8,1.0,0.0,416.0,533.0,0.0,0,271.0,1
65,65,-0.056547642926297104,-0.1,0.0,1.0,260.0,872.0,1.0,0,1238.0,1
66,66,0.5446855145827968,0.5,0.0,0.0,352.0,827.0,0.0,1,101.0,1
67,67,-0.842870042548484,-0.8,0.0,1.0,308.0,755.0,1.0,0,147.0,1
68,68,0.6663512238967398,0.7,1.0,1.0,422.0,747.0,1.0,1,191.0,1
69,69,0.5292064520578138,0.5,1.0,1.0,364.0,876.0,1.0,1,340.0,1
70,70,0.4189234393952713,0.4,0.0,0.0,321.0,628.0,0.0,1,311.0,1
71,71,0.21277767538722758,0.2,1.0,1.0,464.0,682.0,1.0,1,244.0,1
72,72,0.22758256688361655,0.2,0.0,0.0,449.0,989.0,0.0,1,372.0,1
73,73,-0.3570672304528355,-0.4,0.0,1.0,382.0,887.0,1.0,0,341.0,1
74,74,-0.41810031270951653,-0.4,1.0,0.0,447.0,586.0,0.0,0,367.0,1
75,75,0.740215466257269,0.7,0.0,0.0,385.0,823.0,0.0,1,162.0,1
76,76,-0.26122033547130863,-0.3,0.0,1.0,363.0,806.0,1.0,0,461.0,1
77,77,-0.1671698194160387,-0.2,1.0,0.0,344.0,974.0,0.0,0,262.0,1
78,78,0.49527948802454536,0.5,1.0,1.0,315.0,702.0,1.0,1,113.0,1
79,79,-0.2230968403718564,-0.2,1.0,0.0,474.0,597.0,0.0,0,1109.0,1
80,80,0.8524007064929254,0.9,0.0,0.0,478.0,935.0,0.0,1,77.0,1
81,81,0.3948563435280664,0.4,1.0,1.0,285.0,630.0,1.0,1,935.0,1
82,82,0.8602723537225369,0.9,1.0,1.0,253.0,825.0,1.0,1,122.0,1
83,83,-0.8016792804102778,-0.8,1.0,0.0,357.0,842.0,0.0,0,161.0,1
84,84,-0.5149353257504725,-0.5,1.0,0.0,487.0,771.0,0.0,0,232.0,1
85,85,0.4014554265178597,0.4,0.0,0.0,309.0,588.0,0.0,1,363.0,1
86,86,-0.33275559755068007,-0.3,0.0,1.0,386.0,527.0,1.0,0,367.0,1
87,87,-0.30983988888809477,-0.3,1.0,0.0,444.0,753.0,0.0,0,473.0,1
88,88,0.78797418988414,0.8,0.0,0.0,407.0,903.0,0.0,1,230.0,1
89,89,-0.3077638078909034,-0.3,1.0,0.0,273.0,559.0,0.0,0,458.0,1
90,90,0.8796982894465041,0.9,1.0,1.0,475.0,785.0,1.0,1,350.0,1
91,91,0.48586050368676414,0.5,1.0,1.0,487.0,904.0,1.0,1,209.0,1
92,92,-0.5666031338100268,-0.6,0.0,1.0,437.0,895.0,1.0,0,18.0,1
93,93,0.3788644737024206,0.4,1.0,1.0,379.0,559.0,1.0,1,322.0,1
94,94,-0.17068619700525423,-0.2,0.0,1.0,474.0,941.0,1.0,0,85.0,1
95,95,-0.11092078461956856,-0.1,0.0,1.0,314.0,847.0,1.0,0,1829.0,1
96,96,0.006954668277246334,0.0,1.0,1.0,394.0,551.0,1.0,1,1295.0,1
97,97,-0.5720855310027684,-0.6,0.0,1.0,449.0,681.0,1.0,0,180.0,1
98,98,-0.2979833823881838,-0.3,1.0,0.0,315.0,687.0,0.0,0,198.0,1
99,99,0.04145179910968855,0.0,0.0,0.0,363.0,703.0,0.0,1,1934.0,1
100,100,0.013665814586471425,0.0,1.0,1.0,342.0,827.0,1.0,1,1831.0,1
101,101,0.6333221002679369,0.6,1.0,1.0,421.0,924.0,1.0,1,245.0,1
102,102,0.6901959982568818,0.7,1.0,1.0,356.0,880.0,1.0,1,424.0,1
103,103,-0.8925372064519584,-0.9,1.0,0.0,464.0,669.0,0.0,0,267.0,1
104,104,0.4032769413423941,0.4,0.0,0.0,371.0,896.0,0.0,1,243.0,1
105,105,0.34258967793255757,0.3,0.0,0.0,298.0,941.0,0.0,1,161.0,1
106,106,0.1286440145966884,0.1,0.0,0.0,251.0,963.0,0.0,1,1786.0,1
107,107,0.2856371596466122,0.3,1.0,1.0,446.0,697.0,1.0,1,517.0,1
108,108,0.6686514050702889,0.7,1.0,1.0,265.0,547.0,1.0,1,118.0,1
109,109,-0.13609624623787364,-0.1,0.0,1.0,496.0,526.0,1.0,0,558.0,1
110,110,-0.8957103155591172,-0.9,0.0,1.0,325.0,717.0,1.0,0,458.0,1
111,111,0.8347895556661998,0.8,0.0,0.0,348.0,603.0,0.0,1,169.0,1
112,112,0.7385273805977944,0.7,0.0,0.0,395.0,773.0,0.0,1,182.0,1
113,113,0.13559410417336892,0.1,1.0,1.0,436.0,717.0,1.0,1,1847.0,1
114,114,0.7494579737213324,0.7,0.0,0.0,434.0,872.0,0.0,1,164.0,1
115,115,-0.5171362478636112,-0.5,0.0,1.0,457.0,524.0,1.0,0,199.0,1
116,116,-0.36202068278268573,-0.4,1.0,0.0,403.0,560.0,0.0,0,417.0,1
117,117,0.27682763704418634,0.3,0.0,0.0,431.0,716.0,0.0,1,303.0,1
118,118,0.4450587908636937,0.4,1.0,1.0,296.0,557.0,1.0,1,417.0,1
119,119,0.3428532602527091,0.3,1.0,1.0,484.0,741.0,1.0,1,355.0,1
120,120,-0.8439868925198666,-0.8,0.0,1.0,496.0,825.0,1.0,0,129.0,1
121,121,0.44149762137279536,0.4,1.0,1.0,459.0,601.0,1.0,1,330.0,1
122,122,0.1662727377909231,0.2,1.0,1.0,406.0,654.0,1.0,1,1300.0,1
123,123,0.021890057931281293,0.0,0.0,0.0,449.0,768.0,1.0,0,1783.0,0
124,124,-0.4962754941400279,-0.5,0.0,1.0,360.0,866.0,1.0,0,174.0,1
125,125,0.02641333271447055,0.0,0.0,0.0,332.0,532.0,1.0,0,1316.0,0
126,126,0.8180102493407518,0.8,1.0,1.0,362.0,832.0,1.0,1,196.0,1
127,127,0.26299193379002095,0.3,0.0,0.0,396.0,724.0,0.0,1,520.0,1
128,128,0.4539352800583848,0.5,1.0,1.0,471.0,985.0,1.0,1,214.0,1
129,129,0.6663321800827621,0.7,1.0,1.0,278.0,873.0,1.0,1,389.0,1
130,130,-0.06754471366113446,-0.1,1.0,0.0,334.0,703.0,0.0,0,1053.0,1
131,131,0.46693930265859496,0.5,1.0,1.0,289.0,581.0,1.0,1,390.0,1
132,132,0.2814360587529875,0.3,0.0,0.0,464.0,573.0,0.0,1,623.0,1
133,133,0.007015218772679521,0.0,0.0,0.0,400.0,824.0,1.0,0,1776.0,0
134,134,0.28714408140101944,0.3,0.0,0.0,425.0,795.0,0.0,1,360.0,1
135,135,-0.6956872470417713,-0.7,0.0,1.0,349.0,513.0,1.0,0,108.0,1
136,136,-0.1126973732615214,-0.1,0.0,1.0,401.0,791.0,1.0,0,1338.0,1
137,137,0.7103503133151677,0.7,0.0,0.0,480.0,604.0,0.0,1,186.0,1
138,138,-0.316776217797741,-0.3,0.0,1.0,374.0,721.0,1.0,0,875.0,1
139,139,-0.5850116670638088,-0.6,1.0,0.0,302.0,966.0,0.0,0,172.0,1
140,140,0.47990392865755493,0.5,0.0,0.0,258.0,585.0,0.0,1,207.0,1
141,141,0.445899061827573,0.4,1.0,1.0,306.0,727.0,1.0,1,377.0,1
142,142,-0.7835027226076215,-0.8,0.0,1.0,367.0,587.0,1.0,0,136.0,1
143,143,-0.5335597816833428,-0.5,0.0,1.0,268.0,727.0,1.0,0,695.0,1
144,144,0.04031002658686955,0.0,0.0,0.0,298.0,661.0,0.0,1,2041.0,1
145,145,-0.37831748835210854,-0.4,0.0,1.0,296.0,677.0,1.0,0,687.0,1
146,146,0.1064972422158138,0.1,0.0,0.0,275.0,869.0,1.0,0,1856.0,0
147,147,0.591179522659277,0.6,1.0,1.0,276.0,854.0,1.0,1,120.0,1
148,148,0.5431685831627192,0.5,0.0,0.0,451.0,808.0,0.0,1,201.0,1
149,149,-0.174160764848998,-0.2,1.0,0.0,436.0,930.0,0.0,0,564.0,1
150,150,-0.8116808726449057,-0.8,1.0,0.0,435.0,961.0,0.0,0,144.0,1
151,151,-0.7212617213482913,-0.7,0.0,1.0,412.0,879.0,1.0,0,199.0,1
152,152,0.865622677255269,0.9,1.0,1.0,462.0,522.0,1.0,1,196.0,1
153,153,0.5025098132595297,0.5,1.0,1.0,286.0,866.0,1.0,1,298.0,1
154,154,-0.8984401807069612,-0.9,0.0,1.0,457.0,962.0,1.0,0,81.0,1
155,155,0.8970400382676685,0.9,0.0,0.0,288.0,641.0,0.0,1,201.0,1
156,156,0.0005094933027607329,0.0,1.0,1.0,400.0,906.0,1.0,1,594.0,1
157,157,-0.4055911916820135,-0.4,1.0,0.0,281.0,818.0,0.0,0,381.0,1
158,158,0.5010331299512928,0.5,0.0,0.0,429.0,511.0,0.0,1,360.0,1
159,159,-0.6801946370421224,-0.7,1.0,0.0,386.0,787.0,0.0,0,297.0,1
160,160,-0.3797733307950013,-0.4,1.0,0.0,460.0,920.0,0.0,0,190.0,1
161,161,-0.1034771788763943,-0.1,0.0,1.0,452.0,829.0,1.0,0,799.0,1
162,162,0.028122005547871698,0.0,0.0,0.0,266.0,966.0,1.0,0,1768.0,0
163,163,-0.4156736982169392,-0.4,1.0,0.0,371.0,752.0,0.0,0,257.0,1
164,164,-0.7844579633694757,-0.8,1.0,0.0,348.0,815.0,0.0,0,47.0,1
165,165,0.2912536691606368,0.3,0.0,0.0,292.0,755.0,0.0,1,283.0,1
166,166,-0.32406254493256514,-0.3,1.0,0.0,368.0,883.0,0.0,0,419.0,1
167,167,-0.16378005985231614,-0.2,0.0,1.0,434.0,555.0,1.0,0,451.0,1
168,168,0.44522600126444456,0.4,0.0,0.0,450.0,853.0,0.0,1,187.0,1
169,169,-0.022000707633699657,-0.0,1.0,0.0,458.0,598.0,1.0,1,1944.0,0
170,170,-0.15938797175983,-0.2,1.0,0.0,267.0,623.0,0.0,0,510.0,1
171,171,0.6807345773513424,0.7,1.0,1.0,374.0,807.0,1.0,1,389.0,1
172,172,-0.16360665840239352,-0.2,1.0,0.0,422.0,967.0,0.0,0,301.0,1
173,173,0.6860488217056165,0.7,1.0,1.0,354.0,596.0,1.0,1,150.0,1
174,174,-0.5830210290176626,-0.6,1.0,0.0,490.0,965.0,0.0,0,335.0,1
175,175,-0.453254049748595,-0.5,1.0,0.0,311.0,835.0,0.0,0,184.0,1
176,176,0.3159452484797297,0.3,0.0,0.0,495.0,998.0,0.0,1,377.0,1
177,177,-0.0944590380710596,-0.1,1.0,0.0,392.0,980.0,0.0,0,1628.0,1
178,178,-0.6042039609552722,-0.6,1.0,0.0,469.0,645.0,0.0,0,246.0,1
179,179,-0.230365087182285,-0.2,0.0,1.0,424.0,674.0,1.0,0,702.0,1
180,180,0.25546736752365773,0.3,1.0,1.0,392.0,575.0,1.0,1,223.0,1
181,181,0.22475917896930275,0.2,0.0,0.0,365.0,627.0,0.0,1,1348.0,1
182,182,0.40828126735810233,0.4,1.0,1.0,276.0,938.0,1.0,1,416.0,1
183,183,0.8407730242700487,0.8,1.0,1.0,473.0,990.0,1.0,1,107.0,1
184,184,0.3859235228297774,0.4,0.0,0.0,301.0,615.0,0.0,1,504.0,1
185,185,0.1388322259229201,0.1,1.0,1.0,267.0,733.0,1.0,1,550.0,1
186,186,0.24201267371763924,0.2,1.0,1.0,358.0,727.0,1.0,1,555.0,1
187,187,-0.8172750842800282,-0.8,0.0,1.0,401.0,978.0,1.0,0,101.0,1
188,188,0.0884048682127625,0.1,1.0,1.0,370.0,911.0,1.0,1,429.0,1
189,189,-0.7859672392273434,-0.8,1.0,0.0,333.0,631.0,0.0,0,176.0,1
190,190,0.4134641375228433,0.4,1.0,1.0,324.0,680.0,1.0,1,656.0,1
191,191,-0.4686429328053282,-0.5,0.0,1.0,384.0,850.0,1.0,0,146.0,1
192,192,-0.4184185260221,-0.4,1.0,0.0,432.0,593.0,0.0,0,85.0,1
193,193,-0.7182775407375017,-0.7,0.0,1.0,300.0,924.0,1.0,0,156.0,1
194,194,-0.6287611723391879,-0.6,1.0,0.0,459.0,615.0,0.0,0,186.0,1
195,195,-0.6894195903761271,-0.7,1.0,0.0,406.0,546.0,0.0,0,168.0,1
196,196,-0.5222263811238163,-0.5,0.0,1.0,260.0,704.0,1.0,0,236.0,1
197,197,-0.24494042599480992,-0.2,0.0,1.0,300.0,839.0,1.0,0,571.0,1
198,198,-0.5276528691242135,-0.5,1.0,0.0,292.0,556.0,0.0,0,382.0,1
199,199,-0.7161484702383416,-0.7,1.0,0.0,251.0,699.0,0.0,0,200.0,1
200,200,-0.6506178400523916,-0.7,0.0,1.0,458.0,618.0,1.0,0,634.0,1
201,201,-0.0483965272375797,-0.0,1.0,0.0,378.0,876.0,0.0,0,256.0,1
202,202,-0.8739384054266963,-0.9,1.0,0.0,326.0,684.0,0.0,0,360.0,1
203,203,0.8545861109164313,0.9,0.0,0.0,480.0,764.0,0.0,1,136.0,1
204,204,-0.4357835099489041,-0.4,1.0,0.0,346.0,766.0,0.0,0,168.0,1
205,205,0.21656169832990646,0.2,1.0,1.0,300.0,741.0,1.0,1,189.0,1
206,206,0.7968193843646078,0.8,1.0,1.0,333.0,914.0,1.0,1,93.0,1
207,207,-0.6981172979186729,-0.7,0.0,1.0,419.0,800.0,1.0,0,201.0,1
208,208,-0.8039799966498533,-0.8,0.0,1.0,337.0,626.0,1.0,0,217.0,1
209,209,-0.5382877640856623,-0.5,0.0,1.0,424.0,729.0,1.0,0,137.0,1
210,210,0.620624746079807,0.6,1.0,1.0,380.0,780.0,1.0,1,130.0,1
211,211,0.23041283795513612,0.2,1.0,1.0,338.0,718.0,1.0,1,154.0,1
212,212,0.6230573216214085,0.6,0.0,0.0,402.0,794.0,0.0,1,254.0,1
213,213,0.5392022731943861,0.5,1.0,1.0,298.0,901.0,1.0,1,181.0,1
214,214,0.7713645962873482,0.8,1.0,1.0,472.0,930.0,1.0,1,158.0,1
215,215,0.11176425488157549,0.1,0.0,0.0,368.0,713.0,0.0,1,1919.0,1
216,216,-0.8983669068317074,-0.9,1.0,0.0,283.0,872.0,0.0,0,335.0,1
217,217,0.402412597675751,0.4,0.0,0.0,394.0,619.0,0.0,1,607.0,1
218,218,0.6825977348555051,0.7,1.0,1.0,252.0,584.0,1.0,1,114.0,1
219,219,-0.13305039285283005,-0.1,1.0,0.0,476.0,860.0,0.0,0,534.0,1
220,220,-0.04751032437236169,-0.0,1.0,0.0,498.0,915.0,0.0,0,1587.0,1
221,221,-0.6293244640317499,-0.6,0.0,1.0,348.0,793.0,1.0,0,199.0,1
222,222,0.7188147709161502,0.7,0.0,0.0,449.0,618.0,0.0,1,253.0,1
223,223,0.10653238577092738,0.1,0.0,0.0,300.0,648.0,0.0,1,1142.0,1
224,224,-0.8975742607556224,-0.9,1.0,0.0,352.0,604.0,0.0,0,164.0,1
225,225,-0.8057855756015989,-0.8,1.0,0.0,269.0,631.0,0.0,0,160.0,1
226,226,-0.8867849669330267,-0.9,1.0,0.0,254.0,790.0,0.0,0,146.0,1
227,227,-0.5526683155102474,-0.6,1.0,0.0,287.0,572.0,0.0,0,371.0,1
228,228,-0.6019191495441831,-0.6,1.0,0.0,316.0,879.0,0.0,0,55.0,1
229,229,0.1368473277311385,0.1,0.0,0.0,445.0,963.0,0.0,1,1152.0,1
230,230,-0.2863663980393093,-0.3,0.0,1.0,301.0,924.0,1.0,0,175.0,1
231,231,-0.011113101800516056,-0.0,1.0,0.0,397.0,596.0,1.0,1,2007.0,0
232,232,-0.8733902812615536,-0.9,1.0,0.0,488.0,952.0,0.0,0,290.0,1
233,233,0.0681830025889435,0.1,0.0,0.0,259.0,810.0,1.0,0,1931.0,0
234,234,0.7267896021962245,0.7,0.0,0.0,481.0,908.0,0.0,1,151.0,1
235,235,-0.6333970766472383,-0.6,1.0,0.0,415.0,666.0,0.0,0,219.0,1
236,236,-0.4980601954329547,-0.5,0.0,1.0,295.0,929.0,1.0,0,126.0,1
237,237,-0.06636435366227655,-0.1,1.0,0.0,310.0,875.0,0.0,0,1745.0,1
238,238,0.12382207278551205,0.1,0.0,0.0,315.0,816.0,0.0,1,1869.0,1
239,239,-0.38056111196913667,-0.4,1.0,0.0,374.0,795.0,0.0,0,421.0,1
240,240,-0.4677347069101549,-0.5,0.0,1.0,300.0,804.0,1.0,0,176.0,1
241,241,0.7687051986819479,0.8,0.0,0.0,325.0,782.0,0.0,1,193.0,1
242,242,0.6832514525511283,0.7,0.0,0.0,274.0,553.0,0.0,1,313.0,1
243,243,0.15066675808327823,0.2,0.0,0.0,350.0,540.0,0.0,1,630.0,1
244,244,-0.7240750786299339,-0.7,0.0,1.0,344.0,792.0,1.0,0,154.0,1
245,245,-0.7490423938832601,-0.7,1.0,0.0,479.0,983.0,0.0,0,178.0,1
246,246,-0.34789686718673496,-0.3,0.0,1.0,480.0,550.0,1.0,0,550.0,1
247,247,0.6825112665279932,0.7,1.0,1.0,480.0,685.0,1.0,1,175.0,1
248,248,0.7524931935896532,0.8,1.0,1.0,358.0,831.0,1.0,1,241.0,1
249,249,-0.13131198887438156,-0.1,1.0,0.0,308.0,718.0,0.0,0,1424.0,1
250,250,-0.10669496252716193,-0.1,0.0,1.0,366.0,552.0,1.0,0,2082.0,1
251,251,0.38668101907914354,0.4,0.0,0.0,251.0,507.0,0.0,1,272.0,1
252,252,0.7935658567056935,0.8,1.0,1.0,340.0,922.0,1.0,1,308.0,1
253,253,0.7321471261403197,0.7,1.0,1.0,488.0,954.0,1.0,1,248.0,1
254,254,-0.28077782840722476,-0.3,1.0,0.0,285.0,643.0,0.0,0,852.0,1
255,255,0.2611225816972004,0.3,1.0,1.0,340.0,791.0,1.0,1,1219.0,1
256,256,-0.28892266534444366,-0.3,1.0,0.0,480.0,934.0,0.0,0,256.0,1
257,257,-0.8777579529780767,-0.9,0.0,1.0,421.0,595.0,1.0,0,224.0,1
258,258,-0.7960974681544171,-0.8,0.0,1.0,328.0,912.0,1.0,0,140.0,1
259,259,-0.011316096922962204,-0.0,0.0,1.0,268.0,696.0,1.0,0,2036.0,1
260,260,0.6264358152395612,0.6,1.0,1.0,351.0,723.0,1.0,1,396.0,1
261,261,0.6604149671944449,0.7,1.0,1.0,330.0,674.0,1.0,1,316.0,1
262,262,-0.753297275047594,-0.8,1.0,0.0,283.0,977.0,0.0,0,110.0,1
263,263,0.3773759028107989,0.4,1.0,1.0,471.0,571.0,1.0,1,668.0,1
264,264,0.2992649687269048,0.3,0.0,0.0,472.0,911.0,0.0,1,687.0,1
265,265,-0.14858607282993452,-0.1,1.0,0.0,435.0,692.0,0.0,0,563.0,1
266,266,-0.007891231977324442,-0.0,0.0,1.0,476.0,678.0,1.0,0,476.0,1
267,267,0.5761123206605613,0.6,1.0,1.0,377.0,931.0,1.0,1,152.0,1
268,268,0.030673442676171003,0.0,1.0,1.0,342.0,626.0,1.0,1,382.0,1
269,269,-0.5989285354710217,-0.6,0.0,1.0,315.0,602.0,1.0,0,243.0,1
270,270,0.6297564763054685,0.6,0.0,0.0,305.0,722.0,0.0,1,213.0,1
271,271,-0.4417731166516192,-0.4,0.0,1.0,356.0,934.0,1.0,0,190.0,1
272,272,0.6002782819171751,0.6,0.0,0.0,364.0,709.0,0.0,1,147.0,1
273,273,0.34251030855218734,0.3,0.0,0.0,492.0,796.0,0.0,1,242.0,1
274,274,0.8891400862434763,0.9,0.0,0.0,274.0,774.0,0.0,1,182.0,1
275,275,-0.8559121188012684,-0.9,0.0,1.0,321.0,882.0,1.0,0,97.0,1
276,276,-0.4077435130165388,-0.4,1.0,0.0,251.0,840.0,0.0,0,159.0,1
277,277,-0.3119859883091596,-0.3,0.0,1.0,279.0,792.0,1.0,0,279.0,1
278,278,-0.8439470740028475,-0.8,0.0,1.0,389.0,677.0,1.0,0,94.0,1
279,279,-0.6742836165913677,-0.7,0.0,1.0,339.0,753.0,1.0,0,148.0,1
280,280,0.6901062907476619,0.7,1.0,1.0,350.0,913.0,1.0,1,147.0,1
281,281,0.45284323842790764,0.5,0.0,0.0,276.0,824.0,0.0,1,290.0,1
282,282,-0.5174678857604473,-0.5,1.0,0.0,433.0,819.0,0.0,0,98.0,1
283,283,0.5546204454851608,0.6,1.0,1.0,498.0,621.0,1.0,1,211.0,1
284,284,0.7214077938721158,0.7,1.0,1.0,465.0,709.0,1.0,1,166.0,1
285,285,0.11509365550519035,0.1,1.0,1.0,476.0,745.0,1.0,1,1779.0,1
286,286,0.09762988299772268,0.1,1.0,1.0,274.0,815.0,1.0,1,1911.0,1
287,287,-0.8769430907396255,-0.9,0.0,1.0,440.0,902.0,1.0,0,68.0,1
288,288,-0.23002359829346852,-0.2,0.0,1.0,473.0,513.0,1.0,0,1014.0,1
289,289,-0.3408704692751464,-0.3,0.0,1.0,379.0,588.0,1.0,0,263.0,1
290,290,0.8498095163333895,0.8,0.0,0.0,252.0,535.0,0.0,1,283.0,1
291,291,0.6811369997928548,0.7,1.0,1.0,432.0,724.0,1.0,1,74.0,1
292,292,-0.8320144566000722,-0.8,1.0,0.0,346.0,637.0,0.0,0,117.0,1
293,293,0.4611493399543859,0.5,1.0,1.0,368.0,782.0,1.0,1,320.0,1
294,294,-0.20732095198050926,-0.2,1.0,0.0,272.0,903.0,0.0,0,555.0,1
295,295,0.21354250299645539,0.2,1.0,1.0,283.0,810.0,1.0,1,627.0,1
296,296,-0.5606373385115409,-0.6,1.0,0.0,454.0,552.0,0.0,0,414.0,1
297,297,0.3176794929598462,0.3,0.0,0.0,446.0,932.0,0.0,1,252.0,1
298,298,-0.8380045311227166,-0.8,0.0,1.0,252.0,616.0,1.0,0,402.0,1
299,299,-0.5140492395994962,-0.5,1.0,0.0,474.0,719.0,0.0,0,147.0,1
300,300,0.5012484066287205,0.5,0.0,0.0,394.0,576.0,0.0,1,320.0,1
301,301,-0.2731082295111059,-0.3,1.0,0.0,321.0,890.0,0.0,0,319.0,1
302,302,0.6599609279569781,0.7,0.0,0.0,431.0,511.0,0.0,1,218.0,1
303,303,0.8876914833370927,0.9,0.0,0.0,491.0,525.0,0.0,1,124.0,1
304,304,0.15164092360892834,0.2,0.0,0.0,372.0,665.0,0.0,1,1963.0,1
305,305,0.4953124186516814,0.5,0.0,0.0,391.0,741.0,0.0,1,238.0,1
306,306,-0.3028782622410905,-0.3,1.0,0.0,364.0,817.0,0.0,0,429.0,1
307,307,0.4573505732533346,0.5,1.0,1.0,349.0,894.0,1.0,1,137.0,1
308,308,-0.5078402268860411,-0.5,0.0,1.0,419.0,919.0,1.0,0,332.0,1
309,309,-0.14644079942943933,-0.1,0.0,1.0,480.0,710.0,1.0,0,1440.0,1
310,310,0.16395276121758318,0.2,0.0,0.0,446.0,963.0,0.0,1,411.0,1
311,311,-0.01420556573038445,-0.0,1.0,0.0,443.0,959.0,0.0,0,88.0,1
312,312,-0.0852285008520075,-0.1,0.0,1.0,294.0,789.0,1.0,0,1437.0,1
313,313,0.591550011659368,0.6,1.0,1.0,489.0,586.0,1.0,1,165.0,1
314,314,0.044182323940902934,0.0,1.0,1.0,444.0,532.0,1.0,1,2024.0,1
315,315,-0.6524531929197126,-0.7,1.0,0.0,332.0,583.0,0.0,0,345.0,1
316,316,0.8551333987872879,0.9,0.0,0.0,353.0,592.0,0.0,1,155.0,1
317,317,0.3288398126019486,0.3,1.0,1.0,283.0,600.0,1.0,1,417.0,1
318,318,0.4738074572015162,0.5,1.0,1.0,352.0,501.0,1.0,1,297.0,1
319,319,-0.6365807863291069,-0.6,0.0,1.0,328.0,961.0,1.0,0,111.0,1
320,320,0.23139675889068123,0.2,1.0,1.0,396.0,709.0,1.0,1,465.0,1
321,321,-0.8326173383055606,-0.8,1.0,0.0,254.0,538.0,0.0,0,388.0,1
322,322,-0.05429709012568873,-0.1,0.0,1.0,429.0,736.0,1.0,0,385.0,1
323,323,-0.7540766368629747,-0.8,0.0,1.0,333.0,632.0,1.0,0,175.0,1
324,324,0.5506290442426071,0.6,1.0,1.0,347.0,565.0,1.0,1,428.0,1
325,325,-0.8733773498633803,-0.9,1.0,0.0,408.0,809.0,0.0,0,233.0,1
326,326,0.5485292869257384,0.5,0.0,0.0,409.0,704.0,0.0,1,157.0,1
327,327,-0.19522511485291572,-0.2,0.0,1.0,333.0,604.0,1.0,0,323.0,1
328,328,-0.4345616777959142,-0.4,1.0,0.0,365.0,964.0,0.0,0,321.0,1
329,329,0.5537548470364174,0.6,0.0,0.0,447.0,738.0,0.0,1,315.0,1
330,330,0.4364086408988971,0.4,0.0,0.0,313.0,947.0,0.0,1,270.0,1
331,331,0.135466954682124,0.1,0.0,0.0,262.0,829.0,0.0,1,1909.0,1
332,332,0.4577119921923557,0.5,0.0,0.0,359.0,670.0,0.0,1,221.0,1
333,333,-0.390914540356184,-0.4,1.0,0.0,334.0,769.0,0.0,0,637.0,1
334,334,-0.32991847921665607,-0.3,1.0,0.0,492.0,544.0,0.0,0,324.0,1
335,335,-0.5592325928518584,-0.6,0.0,1.0,287.0,748.0,1.0,0,125.0,1
336,336,-0.867525630989125,-0.9,1.0,0.0,432.0,602.0,0.0,0,196.0,1
337,337,-0.7894770170652952,-0.8,0.0,1.0,389.0,683.0,1.0,0,308.0,1
338,338,0.31741566902222484,0.3,0.0,0.0,497.0,706.0,0.0,1,447.0,1
339,339,0.6971231731436506,0.7,1.0,1.0,258.0,809.0,1.0,1,503.0,1
340,340,0.5398016100153183,0.5,1.0,1.0,474.0,921.0,1.0,1,645.0,1
341,341,-0.4739475657782243,-0.5,0.0,1.0,466.0,939.0,1.0,0,115.0,1
342,342,-0.7015119478177599,-0.7,1.0,0.0,394.0,557.0,0.0,0,289.0,1
343,343,0.552426825679211,0.6,1.0,1.0,254.0,569.0,1.0,1,457.0,1
344,344,-0.30727861492632047,-0.3,0.0,1.0,424.0,928.0,1.0,0,548.0,1
345,345,-0.26863731530345025,-0.3,0.0,1.0,391.0,758.0,1.0,0,641.0,1
346,346,-0.5104369869784035,-0.5,0.0,1.0,469.0,658.0,1.0,0,243.0,1
347,347,0.01444115616548347,0.0,0.0,0.0,480.0,505.0,1.0,0,2015.0,0
348,348,-0.006251650168624279,-0.0,0.0,1.0,352.0,587.0,1.0,0,2061.0,1
349,349,-0.1434579013545706,-0.1,1.0,0.0,385.0,837.0,0.0,0,238.0,1
350,350,-0.44940606304583125,-0.4,0.0,1.0,307.0,510.0,1.0,0,263.0,1
351,351,-0.11325442919404805,-0.1,0.0,1.0,380.0,546.0,1.0,0,1054.0,1
352,352,-0.820557202015818,-0.8,0.0,1.0,431.0,503.0,1.0,0,186.0,1
353,353,-0.037416168383824444,-0.0,0.0,1.0,277.0,691.0,1.0,0,452.0,1
354,354,-0.7302414330728776,-0.7,0.0,1.0,448.0,884.0,1.0,0,328.0,1
355,355,-0.07217917852618527,-0.1,1.0,0.0,359.0,696.0,0.0,0,1945.0,1
356,356,0.6990793880947536,0.7,0.0,0.0,331.0,901.0,0.0,1,158.0,1
357,357,-0.6796954386155063,-0.7,0.0,1.0,346.0,881.0,1.0,0,193.0,1
358,358,0.6156555306052963,0.6,1.0,1.0,296.0,649.0,1.0,1,205.0,1
359,359,-0.23324782159197455,-0.2,1.0,0.0,383.0,621.0,0.0,0,516.0,1
360,360,-0.07174417845293724,-0.1,0.0,1.0,307.0,884.0,1.0,0,419.0,1
361,361,0.6657296436213146,0.7,0.0,0.0,496.0,881.0,0.0,1,173.0,1
362,362,0.28426426658598547,0.3,1.0,1.0,319.0,687.0,1.0,1,284.0,1
363,363,-0.48850069636831583,-0.5,0.0,1.0,334.0,545.0,1.0,0,271.0,1
364,364,-0.46803414701311474,-0.5,0.0,1.0,481.0,623.0,1.0,0,266.0,1
365,365,0.18998659528023432,0.2,1.0,1.0,367.0,940.0,1.0,1,653.0,1
366,366,0.38801972908587723,0.4,0.0,0.0,433.0,549.0,0.0,1,318.0,1
367,367,0.8724533456624864,0.9,1.0,1.0,264.0,700.0,1.0,1,206.0,1
368,368,-0.5930036187484375,-0.6,0.0,1.0,321.0,788.0,1.0,0,171.0,1
369,369,-0.32491538656111063,-0.3,1.0,0.0,282.0,793.0,0.0,0,245.0,1
370,370,-0.7492509580332827,-0.7,1.0,0.0,466.0,826.0,0.0,0,218.0,1
371,371,-0.8186725581169388,-0.8,0.0,1.0,448.0,868.0,1.0,0,84.0,1
372,372,0.55855077316638,0.6,0.0,0.0,259.0,763.0,0.0,1,278.0,1
373,373,0.7072063645242487,0.7,1.0,1.0,285.0,703.0,1.0,1,332.0,1
374,374,-0.4463994779583687,-0.4,1.0,0.0,496.0,552.0,0.0,0,342.0,1
375,375,0.018617716893434832,0.0,1.0,1.0,316.0,855.0,0.0,0,1829.0,0
376,376,0.4837131988854214,0.5,0.0,0.0,470.0,531.0,0.0,1,289.0,1
377,377,0.07917166606678638,0.1,0.0,0.0,321.0,717.0,1.0,0,1962.0,0
378,378,-0.8401359211604792,-0.8,1.0,0.0,277.0,881.0,0.0,0,192.0,1
379,379,-0.4489041399485002,-0.4,0.0,1.0,372.0,779.0,1.0,0,139.0,1
380,380,0.843539074366766,0.8,1.0,1.0,411.0,609.0,1.0,1,90.0,1
381,381,0.43624945522004366,0.4,1.0,1.0,499.0,565.0,1.0,1,656.0,1
382,382,-0.0008993130822532169,-0.0,0.0,1.0,276.0,708.0,1.0,0,2016.0,1
383,383,-0.2022941359348297,-0.2,1.0,0.0,397.0,859.0,0.0,0,1354.0,1
384,384,0.5832678173477276,0.6,0.0,0.0,330.0,713.0,0.0,1,137.0,1
385,385,-0.6398761238449514,-0.6,1.0,0.0,270.0,653.0,0.0,0,127.0,1
386,386,-0.857838828886808,-0.9,1.0,0.0,359.0,851.0,0.0,0,40.0,1
387,387,0.6252519261943276,0.6,0.0,0.0,267.0,698.0,0.0,1,245.0,1
388,388,-0.7740168813582196,-0.8,0.0,1.0,293.0,800.0,1.0,0,167.0,1
389,389,-0.7368657430163121,-0.7,1.0,0.0,257.0,773.0,0.0,0,180.0,1
390,390,-0.6541844901074552,-0.7,1.0,0.0,305.0,987.0,0.0,0,98.0,1
391,391,-0.165395807670634,-0.2,0.0,1.0,273.0,913.0,1.0,0,234.0,1
392,392,0.45890977189995985,0.5,0.0,0.0,423.0,903.0,0.0,1,234.0,1
393,393,-0.5909568324728525,-0.6,0.0,1.0,407.0,760.0,1.0,0,613.0,1
394,394,0.15178090101713215,0.2,1.0,1.0,452.0,807.0,1.0,1,1701.0,1
395,395,0.39129500239923953,0.4,1.0,1.0,331.0,571.0,1.0,1,268.0,1
396,396,-0.11497800490841092,-0.1,1.0,0.0,322.0,930.0,0.0,0,1538.0,1
397,397,-0.03751181682550253,-0.0,1.0,0.0,407.0,660.0,1.0,1,1933.0,0
398,398,-0.4663633194500863,-0.5,1.0,0.0,402.0,501.0,0.0,0,157.0,1
399,399,-0.07574412473156789,-0.1,1.0,0.0,365.0,845.0,0.0,0,1790.0,1
400,400,0.6409064767826159,0.6,1.0,1.0,283.0,800.0,1.0,1,487.0,1
401,401,0.43843667685900856,0.4,1.0,1.0,440.0,935.0,1.0,1,215.0,1
402,402,-0.30751021991031335,-0.3,0.0,1.0,492.0,568.0,1.0,0,160.0,1
403,403,-0.5939340029090239,-0.6,1.0,0.0,399.0,774.0,0.0,0,237.0,1
404,404,-0.8760498766822574,-0.9,0.0,1.0,253.0,700.0,1.0,0,137.0,1
405,405,-0.18733480330617258,-0.2,0.0,1.0,432.0,646.0,1.0,0,322.0,1
406,406,0.06393197404115625,0.1,0.0,0.0,356.0,873.0,1.0,0,1771.0,0
407,407,0.6823966988064202,0.7,1.0,1.0,253.0,567.0,1.0,1,280.0,1
408,408,0.6445098872350111,0.6,0.0,0.0,334.0,671.0,0.0,1,195.0,1
409,409,-0.10648873645744361,-0.1,1.0,0.0,456.0,606.0,0.0,0,908.0,1
410,410,-0.3535594637436138,-0.4,1.0,0.0,285.0,637.0,0.0,0,398.0,1
411,411,0.29461879751311526,0.3,0.0,0.0,271.0,716.0,0.0,1,503.0,1
412,412,-0.4146827779413298,-0.4,0.0,1.0,286.0,772.0,1.0,0,232.0,1
413,413,0.33613311310886107,0.3,1.0,1.0,392.0,642.0,1.0,1,1136.0,1
414,414,0.7326465811427431,0.7,0.0,0.0,371.0,540.0,0.0,1,249.0,1
415,415,-0.47449638828016644,-0.5,1.0,0.0,288.0,842.0,0.0,0,310.0,1
416,416,0.29830415977655556,0.3,1.0,1.0,303.0,590.0,1.0,1,297.0,1
417,417,-0.8697076783227994,-0.9,1.0,0.0,357.0,921.0,0.0,0,162.0,1
418,418,-0.7315885757049749,-0.7,1.0,0.0,440.0,518.0,0.0,0,292.0,1
419,419,0.0691944560249379,0.1,1.0,1.0,341.0,721.0,1.0,1,1938.0,1
420,420,-0.8626386758271302,-0.9,1.0,0.0,444.0,598.0,0.0,0,278.0,1
421,421,0.4771678898776822,0.5,0.0,0.0,455.0,621.0,0.0,1,234.0,1
422,422,-0.7543370665522703,-0.8,1.0,0.0,399.0,980.0,0.0,0,151.0,1
423,423,-0.6550433762592485,-0.7,1.0,0.0,391.0,970.0,0.0,0,-121.0,1
424,424,0.6941724668440307,0.7,0.0,0.0,441.0,903.0,0.0,1,126.0,1
425,425,0.2296227959305327,0.2,1.0,1.0,310.0,745.0,1.0,1,1505.0,1
426,426,-0.3046404122501928,-0.3,1.0,0.0,415.0,519.0,0.0,0,386.0,1
427,427,-0.648506674545952,-0.6,1.0,0.0,375.0,775.0,0.0,0,160.0,1
428,428,0.6480227746508161,0.6,1.0,1.0,270.0,505.0,1.0,1,345.0,1
429,429,0.8880508122212426,0.9,0.0,0.0,446.0,691.0,0.0,1,183.0,1
430,430,0.3036752100995649,0.3,0.0,0.0,487.0,812.0,0.0,1,361.0,1
431,431,-0.2199629108347989,-0.2,0.0,1.0,390.0,590.0,1.0,0,340.0,1
432,432,0.20726132599444924,0.2,0.0,0.0,364.0,626.0,0.0,1,880.0,1
433,433,0.28161841523831554,0.3,0.0,0.0,441.0,634.0,0.0,1,295.0,1
434,434,-0.46111724333963916,-0.5,1.0,0.0,496.0,955.0,0.0,0,459.0,1
435,435,0.5593836042746697,0.6,1.0,1.0,327.0,501.0,1.0,1,342.0,1
436,436,-0.027515955131444336,-0.0,1.0,0.0,435.0,703.0,1.0,1,1862.0,0
437,437,-0.5173492068131462,-0.5,1.0,0.0,255.0,936.0,0.0,0,209.0,1
438,438,-0.7030043490004737,-0.7,1.0,0.0,419.0,547.0,0.0,0,224.0,1
439,439,0.6158551973483438,0.6,0.0,0.0,495.0,502.0,0.0,1,293.0,1
440,440,-0.36135608128386965,-0.4,0.0,1.0,394.0,988.0,1.0,0,168.0,1
441,441,0.6771022123453306,0.7,0.0,0.0,405.0,634.0,0.0,1,401.0,1
442,442,0.104076040962927,0.1,1.0,1.0,341.0,682.0,1.0,1,1977.0,1
443,443,-0.4870296795723018,-0.5,1.0,0.0,396.0,744.0,0.0,0,180.0,1
444,444,0.1317909755838519,0.1,0.0,0.0,279.0,535.0,0.0,1,2186.0,1
445,445,0.8854191833387929,0.9,1.0,1.0,340.0,691.0,1.0,1,539.0,1
446,446,0.11706199406300188,0.1,0.0,0.0,433.0,589.0,0.0,1,1978.0,1
447,447,-0.2566535626355031,-0.3,0.0,1.0,350.0,582.0,1.0,0,418.0,1
448,448,-0.840899750592063,-0.8,0.0,1.0,445.0,565.0,1.0,0,210.0,1
449,449,0.43699371912890295,0.4,1.0,1.0,468.0,687.0,1.0,1,5.0,1
450,450,-0.7926887682246113,-0.8,1.0,0.0,255.0,950.0,0.0,0,305.0,1
451,451,0.7863898717878318,0.8,1.0,1.0,318.0,600.0,1.0,1,192.0,1
452,452,0.7726896254177894,0.8,1.0,1.0,323.0,979.0,1.0,1,718.0,1
453,453,0.8294611974481786,0.8,1.0,1.0,325.0,623.0,1.0,1,312.0,1
454,454,0.898143665579903,0.9,0.0,0.0,466.0,841.0,0.0,1,183.0,1
455,455,0.09335027784729144,0.1,0.0,0.0,353.0,543.0,0.0,1,2104.0,1
456,456,-0.37565590584630715,-0.4,0.0,1.0,472.0,894.0,1.0,0,304.0,1
457,457,-0.8589469465863909,-0.9,1.0,0.0,398.0,652.0,0.0,0,300.0,1
458,458,0.8949540049123116,0.9,0.0,0.0,346.0,575.0,0.0,1,179.0,1
459,459,0.8040053572644165,0.8,0.0,0.0,428.0,935.0,0.0,1,237.0,1
460,460,0.0459007360878112,0.0,1.0,1.0,303.0,804.0,1.0,1,1893.0,1
461,461,0.8097776454307265,0.8,1.0,1.0,345.0,968.0,1.0,1,187.0,1
462,462,-0.08804094159682418,-0.1,1.0,0.0,437.0,585.0,0.0,0,1978.0,1
463,463,0.10194339021271104,0.1,1.0,1.0,276.0,510.0,1.0,1,904.0,1
464,464,0.38533435149995887,0.4,0.0,0.0,304.0,834.0,0.0,1,302.0,1
465,465,-0.6166372830296685,-0.6,1.0,0.0,409.0,661.0,0.0,0,100.0,1
466,466,-0.019436741776392097,-0.0,1.0,0.0,399.0,950.0,0.0,0,1651.0,1
467,467,-0.6679643412593382,-0.7,0.0,1.0,498.0,926.0,1.0,0,826.0,1
468,468,0.26676414183451735,0.3,0.0,0.0,311.0,996.0,0.0,1,253.0,1
469,469,-0.7200669720601984,-0.7,0.0,1.0,333.0,507.0,1.0,0,230.0,1
470,470,0.6107329100176083,0.6,0.0,0.0,275.0,771.0,0.0,1,204.0,1
471,471,-0.35458001226043,-0.4,0.0,1.0,306.0,802.0,1.0,0,172.0,1
472,472,-0.7433156964836178,-0.7,1.0,0.0,321.0,507.0,0.0,0,292.0,1
473,473,-0.09268323264685407,-0.1,1.0,0.0,427.0,955.0,1.0,1,1618.0,0
474,474,0.8240653886114385,0.8,0.0,0.0,329.0,744.0,0.0,1,157.0,1
475,475,-0.3198676977039646,-0.3,1.0,0.0,463.0,676.0,0.0,0,361.0,1
476,476,0.2986525230348692,0.3,1.0,1.0,264.0,965.0,1.0,1,241.0,1
477,477,-0.7836145034910138,-0.8,0.0,1.0,413.0,901.0,1.0,0,166.0,1
478,478,-0.6623809117314842,-0.7,1.0,0.0,482.0,685.0,0.0,0,193.0,1
479,479,-0.8368527756221759,-0.8,1.0,0.0,355.0,509.0,0.0,0,406.0,1
480,480,0.7142952385137987,0.7,1.0,1.0,470.0,777.0,1.0,1,153.0,1
481,481,-0.4592970060691963,-0.5,1.0,0.0,394.0,927.0,0.0,0,159.0,1
482,482,-0.21274730953026433,-0.2,0.0,1.0,322.0,865.0,1.0,0,473.0,1
483,483,-0.6344963083805439,-0.6,0.0,1.0,258.0,669.0,1.0,0,343.0,1
484,484,0.2850803174594446,0.3,0.0,0.0,395.0,555.0,0.0,1,400.0,1
485,485,-0.8400843894477606,-0.8,1.0,0.0,311.0,863.0,0.0,0,146.0,1
486,486,-0.8050988977787485,-0.8,0.0,1.0,447.0,922.0,1.0,0,141.0,1
487,487,-0.6217297861026572,-0.6,0.0,1.0,448.0,582.0,1.0,0,240.0,1
488,488,0.4911002515590327,0.5,0.0,0.0,410.0,531.0,0.0,1,229.0,1
489,489,0.4804044087112106,0.5,1.0,1.0,340.0,643.0,1.0,1,327.0,1
490,490,-0.6858537506686411,-0.7,0.0,1.0,476.0,538.0,1.0,0,396.0,1
491,491,-0.1621466796746045,-0.2,0.0,1.0,283.0,569.0,1.0,0,388.0,1
492,492,-0.0027140241243157615,-0.0,0.0,1.0,323.0,544.0,1.0,0,793.0,1
493,493,0.27114622491450235,0.3,1.0,1.0,391.0,508.0,1.0,1,1101.0,1
494,494,0.5491965563915108,0.5,0.0,0.0,296.0,768.0,0.0,1,146.0,1
495,495,0.04123011158140799,0.0,0.0,0.0,329.0,876.0,0.0,1,1795.0,1
496,496,-0.3753836864213279,-0.4,0.0,1.0,265.0,603.0,1.0,0,892.0,1
497,497,-0.5705389717643694,-0.6,1.0,0.0,305.0,713.0,0.0,0,172.0,1
498,498,0.5820296903918637,0.6,0.0,0.0,481.0,760.0,0.0,1,219.0,1
499,499,0.6109705021543507,0.6,1.0,1.0,487.0,688.0,1.0,1,355.0,1
500,500,0.16003074364340997,0.2,0.0,0.0,499.0,573.0,0.0,1,1128.0,1
501,501,-0.5420239071757922,-0.5,0.0,1.0,283.0,830.0,1.0,0,277.0,1
502,502,0.13980027066978484,0.1,1.0,1.0,345.0,898.0,1.0,1,1337.0,1
503,503,-0.743039365390168,-0.7,1.0,0.0,406.0,883.0,0.0,0,111.0,1
504,504,0.7127530911070655,0.7,0.0,0.0,428.0,617.0,0.0,1,195.0,1
505,505,0.0039153864334039445,0.0,1.0,1.0,379.0,693.0,0.0,0,1928.0,0
506,506,0.14463592893697086,0.1,0.0,0.0,266.0,607.0,0.0,1,1937.0,1
507,507,0.7368673357729646,0.7,0.0,0.0,431.0,584.0,0.0,1,255.0,1
508,508,-0.008863060852309257,-0.0,1.0,0.0,359.0,685.0,0.0,0,1956.0,1
509,509,-0.12460061611948392,-0.1,1.0,0.0,417.0,955.0,0.0,0,928.0,1
510,510,0.47765848468062544,0.5,1.0,1.0,265.0,818.0,1.0,1,867.0,1
511,511,0.6388687265735323,0.6,0.0,0.0,418.0,815.0,0.0,1,177.0,1
512,512,-0.3458905481197382,-0.3,1.0,0.0,297.0,782.0,0.0,0,291.0,1
513,513,-0.2788743249298852,-0.3,0.0,1.0,290.0,788.0,1.0,0,312.0,1
514,514,-0.24834325391183598,-0.2,0.0,1.0,377.0,661.0,1.0,0,262.0,1
515,515,-0.23268635359051004,-0.2,0.0,1.0,305.0,576.0,1.0,0,439.0,1
516,516,0.1950259345777764,0.2,0.0,0.0,433.0,568.0,0.0,1,549.0,1
517,517,-0.27599753887751555,-0.3,1.0,0.0,429.0,824.0,0.0,0,377.0,1
518,518,-0.3231480469604112,-0.3,1.0,0.0,458.0,770.0,0.0,0,322.0,1
519,519,0.11120668384743959,0.1,1.0,1.0,437.0,798.0,1.0,1,505.0,1
520,520,-0.51939542953669,-0.5,1.0,0.0,451.0,803.0,1.0,1,16.0,0
521,521,-0.728510971718686,-0.7,0.0,1.0,462.0,600.0,1.0,0,198.0,1
522,522,0.06105165704386162,0.1,0.0,0.0,411.0,714.0,1.0,0,1875.0,0
523,523,0.5787263715157857,0.6,0.0,0.0,412.0,700.0,0.0,1,208.0,1
524,524,0.08978316646898121,0.1,1.0,1.0,490.0,695.0,1.0,1,1815.0,1
525,525,0.47978910038993716,0.5,1.0,1.0,380.0,773.0,1.0,1,307.0,1
526,526,0.6635605870277758,0.7,0.0,0.0,486.0,940.0,0.0,1,144.0,1
527,527,-0.5158217521315112,-0.5,0.0,1.0,357.0,677.0,1.0,0,306.0,1
528,528,-0.5317016664741889,-0.5,1.0,0.0,360.0,814.0,0.0,0,206.0,1
529,529,0.5799229464960914,0.6,1.0,1.0,471.0,761.0,1.0,1,468.0,1
530,530,0.6771225152155803,0.7,0.0,0.0,475.0,635.0,0.0,1,270.0,1
531,531,0.5000841332165521,0.5,1.0,1.0,413.0,799.0,1.0,1,248.0,1
532,532,-0.24531997776396985,-0.2,1.0,0.0,360.0,662.0,0.0,0,338.0,1
533,533,-0.4098124199223458,-0.4,0.0,1.0,470.0,991.0,1.0,0,309.0,1
534,534,-0.18443181355904192,-0.2,1.0,0.0,412.0,908.0,0.0,0,210.0,1
535,535,0.3591098721446594,0.4,0.0,0.0,285.0,687.0,0.0,1,388.0,1
536,536,0.2632975728258159,0.3,1.0,1.0,396.0,601.0,1.0,1,763.0,1
537,537,-0.33426018448138994,-0.3,0.0,1.0,458.0,600.0,1.0,0,262.0,1
538,538,0.6047989682444469,0.6,1.0,1.0,425.0,720.0,1.0,1,155.0,1
539,539,-0.44327597782126726,-0.4,1.0,0.0,310.0,923.0,0.0,0,177.0,1
540,540,0.5617272645021095,0.6,0.0,0.0,431.0,560.0,0.0,1,149.0,1
541,541,-0.7210432021296176,-0.7,0.0,1.0,373.0,798.0,1.0,0,199.0,1
542,542,-0.10158844902146391,-0.1,0.0,1.0,338.0,652.0,1.0,0,310.0,1
543,543,-0.10468080986171324,-0.1,1.0,0.0,252.0,984.0,0.0,0,1114.0,1
544,544,0.48247849074282667,0.5,1.0,1.0,284.0,633.0,1.0,1,203.0,1
545,545,0.6500577728996361,0.7,0.0,0.0,324.0,734.0,0.0,1,322.0,1
546,546,0.710318162922228,0.7,1.0,1.0,432.0,642.0,1.0,1,186.0,1
547,547,0.07499378789904287,0.1,0.0,0.0,398.0,522.0,0.0,1,2080.0,1
548,548,0.027920499653442676,0.0,1.0,1.0,482.0,504.0,0.0,0,2014.0,0
549,549,0.7447818892177452,0.7,1.0,1.0,405.0,768.0,1.0,1,107.0,1
550,550,0.6563244339800584,0.7,0.0,0.0,448.0,953.0,0.0,1,169.0,1
551,551,-0.18918897586763794,-0.2,0.0,1.0,441.0,825.0,1.0,0,224.0,1
552,552,-0.18628659620153454,-0.2,1.0,0.0,285.0,868.0,0.0,0,277.0,1
553,553,-0.47160520938103595,-0.5,0.0,1.0,392.0,719.0,1.0,0,229.0,1
554,554,-0.3977049484353574,-0.4,1.0,0.0,393.0,736.0,0.0,0,161.0,1
555,555,-0.49491219939767583,-0.5,0.0,1.0,287.0,791.0,1.0,0,132.0,1
556,556,-0.1499354470547627,-0.1,0.0,1.0,462.0,988.0,1.0,0,710.0,1
557,557,0.1899702318852724,0.2,1.0,1.0,400.0,952.0,1.0,1,748.0,1
558,558,-0.31538473411452617,-0.3,1.0,0.0,291.0,951.0,0.0,0,228.0,1
559,559,0.027483707186425455,0.0,1.0,1.0,383.0,896.0,1.0,1,1721.0,1
560,560,-0.8439283630509806,-0.8,1.0,0.0,264.0,988.0,0.0,0,198.0,1
561,561,-0.3453486649480785,-0.3,1.0,0.0,334.0,884.0,0.0,0,432.0,1
562,562,-0.6725244777941523,-0.7,1.0,0.0,456.0,540.0,0.0,0,544.0,1
563,563,-0.2724088634337679,-0.3,1.0,0.0,420.0,781.0,0.0,0,199.0,1
564,564,-0.6943646887377162,-0.7,1.0,0.0,487.0,930.0,0.0,0,203.0,1
565,565,0.16588040783311475,0.2,0.0,0.0,367.0,644.0,0.0,1,329.0,1
566,566,0.5414733707054823,0.5,0.0,0.0,297.0,640.0,0.0,1,173.0,1
567,567,0.7919345596049857,0.8,0.0,0.0,427.0,979.0,0.0,1,154.0,1
568,568,0.8258052672034187,0.8,1.0,1.0,352.0,886.0,1.0,1,412.0,1
569,569,0.190679552847146,0.2,0.0,0.0,304.0,818.0,0.0,1,378.0,1
570,570,0.5120875281954537,0.5,1.0,1.0,482.0,622.0,1.0,1,276.0,1
571,571,0.381651908254277,0.4,1.0,1.0,327.0,906.0,1.0,1,107.0,1
572,572,0.08699490933950704,0.1,0.0,0.0,276.0,923.0,1.0,0,1801.0,0
573,573,0.12613346245029222,0.1,0.0,0.0,285.0,592.0,0.0,1,2123.0,1
574,574,-0.4788365540988423,-0.5,1.0,0.0,437.0,524.0,0.0,0,359.0,1
575,575,0.12608026164061437,0.1,1.0,1.0,438.0,920.0,1.0,1,592.0,1
576,576,0.09263030321325327,0.1,0.0,0.0,297.0,858.0,1.0,0,945.0,0
577,577,-0.10629775266209562,-0.1,1.0,0.0,282.0,785.0,0.0,0,1933.0,1
578,578,-0.2156125357138825,-0.2,1.0,0.0,462.0,548.0,0.0,0,260.0,1
579,579,0.8681447188275219,0.9,1.0,1.0,336.0,636.0,1.0,1,628.0,1
580,580,0.4081994542632549,0.4,0.0,0.0,461.0,693.0,0.0,1,406.0,1
581,581,0.33099944595204367,0.3,1.0,1.0,384.0,548.0,1.0,1,698.0,1
582,582,0.09276064190990396,0.1,1.0,1.0,452.0,533.0,1.0,1,2015.0,1
583,583,-0.5434107086039905,-0.5,1.0,0.0,498.0,589.0,0.0,0,273.0,1
584,584,-0.33156026000055616,-0.3,1.0,0.0,391.0,552.0,0.0,0,337.0,1
585,585,-0.8433640331561535,-0.8,0.0,1.0,326.0,544.0,1.0,0,330.0,1
586,586,0.15733361440934546,0.2,1.0,1.0,430.0,713.0,1.0,1,417.0,1
587,587,-0.6937150120478218,-0.7,0.0,1.0,497.0,992.0,1.0,0,81.0,1
588,588,-0.2800643055020583,-0.3,0.0,1.0,334.0,765.0,1.0,0,531.0,1
589,589,0.6644259752480793,0.7,0.0,0.0,372.0,524.0,0.0,1,174.0,1
590,590,-0.1969238486811994,-0.2,0.0,1.0,297.0,785.0,1.0,0,318.0,1
591,591,0.39966882974891405,0.4,0.0,0.0,469.0,604.0,0.0,1,497.0,1
592,592,-0.05049931793788576,-0.1,0.0,1.0,255.0,774.0,1.0,0,551.0,1
593,593,-0.17565342677388684,-0.2,1.0,0.0,330.0,737.0,0.0,0,233.0,1
594,594,-0.5162680832187021,-0.5,0.0,1.0,384.0,743.0,1.0,0,163.0,1
595,595,0.694687392476918,0.7,0.0,0.0,390.0,905.0,0.0,1,135.0,1
596,596,0.31226289396872964,0.3,0.0,0.0,281.0,895.0,0.0,1,304.0,1
597,597,0.263627012717507,0.3,0.0,0.0,373.0,642.0,0.0,1,385.0,1
598,598,0.6854031793815399,0.7,0.0,0.0,284.0,945.0,1.0,0,-39.0,0
599,599,-0.5505854940749373,-0.6,0.0,1.0,390.0,806.0,1.0,0,124.0,1
600,600,-0.6791167195822732,-0.7,1.0,0.0,293.0,673.0,0.0,0,474.0,1
601,601,-0.23472459210545826,-0.2,0.0,1.0,471.0,982.0,1.0,0,57.0,1
602,602,0.0761402637459383,0.1,1.0,1.0,454.0,761.0,1.0,1,1695.0,1
603,603,0.1035209906144886,0.1,0.0,0.0,364.0,869.0,1.0,0,1767.0,0
604,604,0.49640832944408253,0.5,0.0,0.0,283.0,723.0,0.0,1,244.0,1
605,605,-0.6292652512952268,-0.6,1.0,0.0,430.0,934.0,0.0,0,366.0,1
606,606,0.15390936294538615,0.2,1.0,1.0,282.0,834.0,1.0,1,1884.0,1
607,607,-0.7483783326703999,-0.7,0.0,1.0,252.0,689.0,1.0,0,189.0,1
608,608,-0.7848897558924369,-0.8,1.0,0.0,433.0,626.0,0.0,0,161.0,1
609,609,0.23669404991559284,0.2,0.0,0.0,454.0,925.0,0.0,1,591.0,1
610,610,-0.7167522749408928,-0.7,1.0,0.0,382.0,979.0,0.0,0,159.0,1
611,611,-0.4824983477954779,-0.5,1.0,0.0,356.0,809.0,0.0,0,95.0,1
612,612,-0.28886059130224506,-0.3,1.0,0.0,327.0,790.0,0.0,0,473.0,1
613,613,0.08934560542243974,0.1,0.0,0.0,255.0,521.0,1.0,0,2224.0,0
614,614,0.04806393119818908,0.0,1.0,1.0,283.0,628.0,0.0,0,2089.0,0
615,615,0.8305476778273876,0.8,1.0,1.0,349.0,982.0,1.0,1,189.0,1
616,616,0.47509412861766587,0.5,0.0,0.0,392.0,883.0,0.0,1,295.0,1
617,617,0.7710935098988477,0.8,0.0,0.0,473.0,812.0,0.0,1,245.0,1
618,618,0.3341179800873716,0.3,0.0,0.0,331.0,833.0,0.0,1,196.0,1
619,619,0.47832331040416987,0.5,0.0,0.0,266.0,808.0,1.0,0,-124.0,0
620,620,-0.7460034034762366,-0.7,0.0,1.0,409.0,929.0,1.0,0,102.0,1
621,621,0.3695697677051709,0.4,1.0,1.0,373.0,670.0,1.0,1,237.0,1
622,622,0.039586900961586124,0.0,1.0,1.0,411.0,511.0,1.0,1,2078.0,1
623,623,-0.21130009456466026,-0.2,1.0,0.0,420.0,694.0,0.0,0,806.0,1
624,624,-0.6369714899198962,-0.6,1.0,0.0,303.0,866.0,0.0,0,271.0,1
625,625,0.8856606364700509,0.9,1.0,1.0,370.0,913.0,1.0,1,157.0,1
626,626,-0.12379357850251249,-0.1,0.0,1.0,472.0,814.0,1.0,0,234.0,1
627,627,-0.11126028052967751,-0.1,0.0,1.0,365.0,938.0,1.0,0,97.0,1
628,628,0.6227814199113838,0.6,0.0,0.0,341.0,583.0,0.0,1,266.0,1
629,629,-0.6467535379936327,-0.6,1.0,0.0,496.0,892.0,0.0,0,72.0,1
630,630,-0.18276634703081196,-0.2,0.0,1.0,256.0,976.0,1.0,0,1218.0,1
631,631,-0.37882775808191016,-0.4,1.0,0.0,482.0,836.0,0.0,0,402.0,1
632,632,0.40720990100286414,0.4,0.0,0.0,358.0,583.0,0.0,1,449.0,1
633,633,0.014989052834037175,0.0,1.0,1.0,344.0,509.0,0.0,0,2147.0,0
634,634,0.3762901613767501,0.4,1.0,1.0,359.0,531.0,1.0,1,1380.0,1
635,635,-0.14185374314829458,-0.1,0.0,1.0,255.0,758.0,1.0,0,537.0,1
636,636,-0.11651244303159691,-0.1,0.0,1.0,319.0,563.0,1.0,0,1708.0,1
637,637,0.7145364240149562,0.7,0.0,0.0,390.0,598.0,0.0,1,252.0,1
638,638,-0.33306467662815,-0.3,1.0,0.0,456.0,685.0,0.0,0,-11.0,1
639,639,-0.7887726152720227,-0.8,0.0,1.0,405.0,646.0,1.0,0,149.0,1
640,640,0.00019880580216524724,0.0,1.0,1.0,329.0,699.0,0.0,0,1972.0,0
641,641,0.6962054919861668,0.7,1.0,1.0,440.0,577.0,1.0,1,323.0,1
642,642,0.7313290286887416,0.7,0.0,0.0,340.0,769.0,0.0,1,101.0,1
643,643,-0.7726396632468044,-0.8,1.0,0.0,294.0,790.0,0.0,0,216.0,1
644,644,0.27042546736191164,0.3,0.0,0.0,463.0,782.0,0.0,1,315.0,1
645,645,0.5005799175005042,0.5,1.0,1.0,475.0,899.0,1.0,1,196.0,1
646,646,-0.5700240596206658,-0.6,0.0,1.0,260.0,526.0,1.0,0,484.0,1
647,647,-0.8015618628002347,-0.8,1.0,0.0,347.0,548.0,0.0,0,145.0,1
648,648,0.5678449070191319,0.6,0.0,0.0,445.0,687.0,0.0,1,198.0,1
649,649,0.14183712261463166,0.1,0.0,0.0,374.0,587.0,0.0,1,629.0,1
650,650,-0.060599043695927945,-0.1,0.0,1.0,354.0,863.0,1.0,0,593.0,1
651,651,-0.7308659605918939,-0.7,0.0,1.0,335.0,657.0,1.0,0,108.0,1
652,652,0.2864295368041606,0.3,0.0,0.0,495.0,627.0,0.0,1,478.0,1
653,653,0.7067173511170807,0.7,0.0,0.0,341.0,814.0,0.0,1,125.0,1
654,654,-0.7506004736389126,-0.8,0.0,1.0,424.0,618.0,1.0,0,188.0,1
655,655,-0.661504730837873,-0.7,1.0,0.0,461.0,516.0,0.0,0,473.0,1
656,656,0.6357880057089521,0.6,0.0,0.0,275.0,989.0,0.0,1,136.0,1
657,657,-0.5331809994571906,-0.5,0.0,1.0,472.0,624.0,1.0,0,124.0,1
658,658,-0.0013702444426101357,-0.0,0.0,1.0,269.0,836.0,1.0,0,795.0,1
659,659,-0.7153753764133406,-0.7,0.0,1.0,303.0,760.0,1.0,0,177.0,1
660,660,-0.8917330942194422,-0.9,0.0,1.0,457.0,961.0,1.0,0,232.0,1
661,661,-0.7723607756404214,-0.8,1.0,0.0,324.0,547.0,0.0,0,269.0,1
662,662,0.8915972324185918,0.9,1.0,1.0,353.0,784.0,1.0,1,153.0,1
663,663,0.4881181633559045,0.5,0.0,0.0,287.0,789.0,0.0,1,154.0,1
664,664,0.5031750253460506,0.5,1.0,1.0,298.0,855.0,1.0,1,157.0,1
665,665,-0.20750723546458139,-0.2,0.0,1.0,367.0,829.0,1.0,0,444.0,1
666,666,-0.584912196495055,-0.6,1.0,0.0,360.0,864.0,0.0,0,176.0,1
667,667,0.7456866796238534,0.7,0.0,0.0,298.0,789.0,0.0,1,293.0,1
668,668,-0.7458489556164847,-0.7,1.0,0.0,293.0,964.0,0.0,0,103.0,1
669,669,-0.8737742645276015,-0.9,0.0,1.0,487.0,897.0,1.0,0,326.0,1
670,670,-0.5569674158633744,-0.6,1.0,0.0,434.0,991.0,0.0,0,175.0,1
671,671,-0.6336024047499931,-0.6,0.0,1.0,294.0,749.0,1.0,0,117.0,1
672,672,0.8649972905481135,0.9,1.0,1.0,422.0,871.0,1.0,1,197.0,1
673,673,0.7811889486453233,0.8,1.0,1.0,433.0,953.0,1.0,1,154.0,1
674,674,-0.728055621533414,-0.7,1.0,0.0,365.0,551.0,0.0,0,194.0,1
675,675,0.7864817151314157,0.8,0.0,0.0,355.0,671.0,0.0,1,124.0,1
676,676,0.22290085941118465,0.2,1.0,1.0,320.0,920.0,1.0,1,260.0,1
677,677,0.4841872376772448,0.5,1.0,1.0,366.0,626.0,1.0,1,148.0,1
678,678,-0.6910562080653796,-0.7,1.0,0.0,331.0,754.0,0.0,0,445.0,1
679,679,-0.49053828538408834,-0.5,1.0,0.0,467.0,506.0,0.0,0,367.0,1
680,680,-0.11749953890860187,-0.1,0.0,1.0,294.0,666.0,1.0,0,350.0,1
681,681,0.8859060614427311,0.9,0.0,0.0,288.0,901.0,0.0,1,151.0,1
682,682,-0.4902237821630151,-0.5,0.0,1.0,289.0,785.0,1.0,0,216.0,1
683,683,0.6452705384038154,0.6,1.0,1.0,473.0,993.0,1.0,1,194.0,1
684,684,-0.779360374109045,-0.8,0.0,1.0,434.0,902.0,1.0,0,-6.0,1
685,685,0.44808234289010185,0.4,1.0,1.0,371.0,776.0,1.0,1,293.0,1
686,686,0.5195839155524361,0.5,1.0,1.0,287.0,950.0,1.0,1,253.0,1
687,687,0.4329817841890119,0.4,1.0,1.0,285.0,641.0,1.0,1,384.0,1
688,688,-0.6132163629637901,-0.6,1.0,0.0,311.0,515.0,0.0,0,344.0,1
689,689,-0.4612485862765457,-0.5,0.0,1.0,362.0,780.0,1.0,0,128.0,1
690,690,-0.32959210991560295,-0.3,1.0,0.0,337.0,907.0,0.0,0,246.0,1
691,691,0.44376937658836535,0.4,0.0,0.0,351.0,515.0,0.0,1,454.0,1
692,692,-0.3821087903438156,-0.4,0.0,1.0,381.0,692.0,1.0,0,257.0,1
693,693,-0.26477055393221627,-0.3,1.0,0.0,306.0,955.0,0.0,0,279.0,1
694,694,0.08728828555186285,0.1,1.0,1.0,430.0,672.0,1.0,1,1898.0,1
695,695,0.617596019668852,0.6,1.0,1.0,311.0,941.0,1.0,1,328.0,1
696,696,0.48653637604667266,0.5,1.0,1.0,399.0,638.0,1.0,1,393.0,1
697,697,-0.5784260636456073,-0.6,1.0,0.0,400.0,556.0,0.0,0,354.0,1
698,698,-0.37202717024954246,-0.4,0.0,1.0,453.0,597.0,1.0,0,240.0,1
699,699,0.5922118463942011,0.6,0.0,0.0,461.0,933.0,0.0,1,256.0,1
700,700,-0.39585902376559035,-0.4,0.0,1.0,472.0,647.0,1.0,0,121.0,1
701,701,0.6163425109070445,0.6,0.0,0.0,387.0,549.0,0.0,1,224.0,1
702,702,0.6658670783646076,0.7,1.0,1.0,367.0,816.0,1.0,1,107.0,1
703,703,-0.017606758962683378,-0.0,0.0,1.0,435.0,539.0,1.0,0,2026.0,1
704,704,-0.1881682147372361,-0.2,1.0,0.0,321.0,516.0,0.0,0,593.0,1
705,705,0.5998383718829347,0.6,0.0,0.0,390.0,919.0,0.0,1,291.0,1
706,706,-0.3730199009449805,-0.4,0.0,1.0,466.0,892.0,1.0,0,622.0,1
707,707,-0.8638030738908961,-0.9,1.0,0.0,425.0,861.0,0.0,0,134.0,1
708,708,-0.8223037379911227,-0.8,1.0,0.0,302.0,869.0,0.0,0,149.0,1
709,709,0.05130298707446068,0.1,1.0,1.0,317.0,698.0,0.0,0,995.0,0
710,710,0.8204487994901409,0.8,1.0,1.0,253.0,581.0,1.0,1,296.0,1
711,711,-0.6416886864777332,-0.6,0.0,1.0,466.0,962.0,1.0,0,622.0,1
712,712,-0.7724218961805162,-0.8,0.0,1.0,323.0,701.0,1.0,0,146.0,1
713,713,-0.04849509889560544,-0.0,1.0,0.0,344.0,552.0,1.0,1,2104.0,0
714,714,0.43469335124822905,0.4,1.0,1.0,468.0,627.0,1.0,1,355.0,1
715,715,-0.766352498727449,-0.8,1.0,0.0,493.0,762.0,0.0,0,95.0,1
716,716,0.40440685304865254,0.4,0.0,0.0,358.0,957.0,0.0,1,245.0,1
717,717,-0.4031239065624869,-0.4,0.0,1.0,319.0,501.0,1.0,0,190.0,1
718,718,0.7347181215452153,0.7,1.0,1.0,481.0,561.0,1.0,1,568.0,1
719,719,0.14468060268590388,0.1,1.0,1.0,267.0,772.0,1.0,1,1961.0,1
720,720,-0.6580174284981468,-0.7,1.0,0.0,301.0,821.0,0.0,0,268.0,1
721,721,-0.7359438289414673,-0.7,0.0,1.0,459.0,702.0,1.0,0,1089.0,1
722,722,0.31895515296027643,0.3,0.0,0.0,272.0,896.0,0.0,1,282.0,1
723,723,0.758363041479975,0.8,1.0,1.0,408.0,676.0,1.0,1,166.0,1
724,724,-0.1559624861015514,-0.2,0.0,1.0,362.0,955.0,1.0,0,543.0,1
725,725,-0.14677772062177064,-0.1,1.0,0.0,453.0,754.0,0.0,0,1383.0,1
726,726,0.703001514109498,0.7,0.0,0.0,289.0,610.0,0.0,1,231.0,1
727,727,0.2911014262584498,0.3,1.0,1.0,369.0,593.0,1.0,1,558.0,1
728,728,-0.5340245565342472,-0.5,1.0,0.0,492.0,774.0,0.0,0,224.0,1
729,729,0.8962073985487174,0.9,1.0,1.0,372.0,825.0,1.0,1,233.0,1
730,730,0.8125674484775084,0.8,0.0,0.0,415.0,559.0,0.0,1,176.0,1
731,731,0.06287004210897429,0.1,1.0,1.0,430.0,821.0,1.0,1,109.0,1
732,732,-0.040056977133263505,-0.0,1.0,0.0,311.0,549.0,0.0,0,1780.0,1
733,733,0.09573560797319725,0.1,0.0,0.0,392.0,539.0,0.0,1,2069.0,1
734,734,-0.3258891372107826,-0.3,1.0,0.0,437.0,565.0,0.0,0,218.0,1
735,735,-0.8183148600102201,-0.8,0.0,1.0,382.0,916.0,1.0,0,-188.0,1
736,736,0.45064326784138375,0.5,0.0,0.0,497.0,801.0,0.0,1,372.0,1
737,737,0.19229533368763463,0.2,0.0,0.0,345.0,990.0,0.0,1,495.0,1
738,738,-0.46600843697410604,-0.5,1.0,0.0,300.0,607.0,0.0,0,373.0,1
739,739,-0.3009074967468247,-0.3,1.0,0.0,474.0,914.0,0.0,0,-18.0,1
740,740,0.5247286783346069,0.5,0.0,0.0,485.0,594.0,0.0,1,271.0,1
741,741,0.8003133165848334,0.8,0.0,0.0,327.0,769.0,0.0,1,134.0,1
742,742,0.001306128741964896,0.0,0.0,0.0,298.0,856.0,1.0,0,1846.0,0
743,743,-0.42669987171074564,-0.4,0.0,1.0,372.0,906.0,1.0,0,12.0,1
744,744,0.34657891938999186,0.3,0.0,0.0,326.0,672.0,0.0,1,432.0,1
745,745,-0.45407362915000143,-0.5,1.0,0.0,254.0,915.0,0.0,0,101.0,1
746,746,-0.6172370661747923,-0.6,0.0,1.0,401.0,508.0,1.0,0,401.0,1
747,747,0.4110099922448841,0.4,0.0,0.0,274.0,710.0,0.0,1,306.0,1
748,748,0.2577791563584261,0.3,0.0,0.0,269.0,689.0,0.0,1,662.0,1
749,749,-0.7047779154297599,-0.7,1.0,0.0,331.0,529.0,0.0,0,250.0,1
750,750,0.7208125366294545,0.7,0.0,0.0,367.0,508.0,0.0,1,185.0,1
751,751,-0.4981418740766615,-0.5,0.0,1.0,426.0,795.0,1.0,0,69.0,1
752,752,0.3665141345032178,0.4,0.0,0.0,289.0,528.0,0.0,1,403.0,1
753,753,0.8136446476916382,0.8,0.0,0.0,275.0,630.0,0.0,1,225.0,1
754,754,0.01657983157433629,0.0,1.0,1.0,393.0,962.0,1.0,1,1645.0,1
755,755,0.09031144358925147,0.1,0.0,0.0,439.0,721.0,1.0,0,1840.0,0
756,756,-0.4781291557616952,-0.5,0.0,1.0,452.0,508.0,1.0,0,470.0,1
757,757,0.8186635867603601,0.8,0.0,0.0,265.0,922.0,0.0,1,223.0,1
758,758,0.5807014448870592,0.6,1.0,1.0,483.0,582.0,1.0,1,185.0,1
759,759,-0.2995659111729144,-0.3,1.0,0.0,301.0,576.0,0.0,0,403.0,1
760,760,0.48697309758124463,0.5,1.0,1.0,302.0,853.0,1.0,1,305.0,1
761,761,-0.8618937567477118,-0.9,0.0,1.0,426.0,765.0,1.0,0,289.0,1
762,762,-0.6806420162969042,-0.7,0.0,1.0,410.0,998.0,1.0,0,132.0,1
763,763,-0.5844331361856382,-0.6,0.0,1.0,410.0,840.0,1.0,0,110.0,1
764,764,0.2863310156790736,0.3,0.0,0.0,421.0,971.0,0.0,1,778.0,1
765,765,-0.5362879034676047,-0.5,1.0,0.0,372.0,585.0,0.0,0,233.0,1
766,766,-0.29379137801561583,-0.3,0.0,1.0,422.0,829.0,1.0,0,339.0,1
767,767,-0.04184111950969005,-0.0,1.0,0.0,447.0,812.0,0.0,0,1741.0,1
768,768,-0.6892141579218694,-0.7,1.0,0.0,302.0,832.0,0.0,0,146.0,1
769,769,0.7326811738416424,0.7,0.0,0.0,369.0,955.0,1.0,0,-334.0,0
770,770,-0.01782444564514163,-0.0,1.0,0.0,346.0,881.0,0.0,0,1773.0,1
771,771,-0.32857210425599026,-0.3,0.0,1.0,288.0,522.0,1.0,0,1690.0,1
772,772,0.11394879539601666,0.1,1.0,1.0,259.0,703.0,1.0,1,698.0,1
773,773,0.1939123615474191,0.2,1.0,1.0,452.0,842.0,1.0,1,296.0,1
774,774,-0.14616980639482802,-0.1,0.0,1.0,364.0,996.0,1.0,0,200.0,1
775,775,0.03478195805843087,0.0,0.0,0.0,429.0,909.0,1.0,0,1662.0,0
776,776,0.6108323014159626,0.6,1.0,1.0,483.0,549.0,1.0,1,178.0,1
777,777,-0.2826576845069855,-0.3,0.0,1.0,313.0,680.0,1.0,0,417.0,1
778,778,0.8540877160592925,0.9,1.0,1.0,342.0,825.0,1.0,1,273.0,1
779,779,0.4407823586585532,0.4,1.0,1.0,323.0,568.0,1.0,1,199.0,1
780,780,-0.023929299437316587,-0.0,0.0,1.0,255.0,770.0,1.0,0,985.0,1
781,781,-0.5532702594692624,-0.6,1.0,0.0,450.0,573.0,0.0,0,157.0,1
782,782,-0.8316457524414045,-0.8,0.0,1.0,426.0,777.0,1.0,0,107.0,1
783,783,-0.7791322811475546,-0.8,0.0,1.0,374.0,840.0,1.0,0,236.0,1
784,784,0.7936343067687989,0.8,0.0,0.0,321.0,523.0,0.0,1,236.0,1
785,785,0.619147456336229,0.6,0.0,0.0,370.0,853.0,1.0,0,-13.0,0
786,786,-0.7865706504308423,-0.8,1.0,0.0,268.0,988.0,0.0,0,214.0,1
787,787,0.031791775845961934,0.0,1.0,1.0,271.0,933.0,1.0,1,1796.0,1
788,788,0.4211417863095356,0.4,0.0,0.0,305.0,600.0,0.0,1,275.0,1
789,789,0.6822089409611952,0.7,1.0,1.0,369.0,504.0,1.0,1,97.0,1
790,790,-0.12131983830499704,-0.1,1.0,0.0,405.0,623.0,0.0,0,762.0,1
791,791,-0.3302289227542181,-0.3,0.0,1.0,291.0,701.0,1.0,0,218.0,1
792,792,-0.17016065532677127,-0.2,0.0,1.0,356.0,845.0,1.0,0,249.0,1
793,793,-0.05335465243074722,-0.1,0.0,1.0,495.0,832.0,1.0,0,1673.0,1
794,794,0.6514209705250654,0.7,1.0,1.0,456.0,710.0,1.0,1,214.0,1
795,795,-0.7271745308770067,-0.7,0.0,1.0,492.0,752.0,1.0,0,166.0,1
796,796,-0.7025858180598613,-0.7,1.0,0.0,492.0,704.0,0.0,0,124.0,1
797,797,0.7649739354198647,0.8,0.0,0.0,320.0,938.0,0.0,1,162.0,1
798,798,0.497354369763955,0.5,0.0,0.0,455.0,685.0,0.0,1,300.0,1
799,799,-0.2598281756172235,-0.3,1.0,0.0,385.0,830.0,0.0,0,255.0,1
800,800,-0.6320840593244716,-0.6,1.0,0.0,314.0,872.0,0.0,0,74.0,1
801,801,0.6558797604546706,0.7,1.0,1.0,292.0,909.0,1.0,1,149.0,1
802,802,-0.4597815227271475,-0.5,1.0,0.0,489.0,572.0,0.0,0,259.0,1
803,803,0.6681306035363567,0.7,0.0,0.0,468.0,511.0,0.0,1,241.0,1
804,804,-0.8215180196443412,-0.8,0.0,1.0,300.0,720.0,1.0,0,150.0,1
805,805,-0.008445011172548256,-0.0,1.0,0.0,498.0,669.0,0.0,0,233.0,1
806,806,-0.7106367526992264,-0.7,0.0,1.0,320.0,823.0,1.0,0,107.0,1
807,807,-0.2351849175452445,-0.2,1.0,0.0,497.0,543.0,0.0,0,560.0,1
808,808,-0.3047382850761201,-0.3,0.0,1.0,431.0,776.0,1.0,0,313.0,1
809,809,0.23840759493170338,0.2,1.0,1.0,455.0,903.0,1.0,1,302.0,1
810,810,-0.45693196831146665,-0.5,0.0,1.0,308.0,833.0,1.0,0,269.0,1
811,811,-0.4033844439438405,-0.4,1.0,0.0,394.0,544.0,0.0,0,282.0,1
812,812,0.5859720767856939,0.6,1.0,1.0,291.0,794.0,1.0,1,325.0,1
813,813,0.2925129400200307,0.3,0.0,0.0,304.0,721.0,0.0,1,635.0,1
814,814,-0.19338904973456306,-0.2,0.0,1.0,440.0,710.0,1.0,0,590.0,1
815,815,0.012885137155472237,0.0,0.0,0.0,424.0,717.0,0.0,1,1859.0,1
816,816,-0.5502469069425925,-0.6,1.0,0.0,465.0,693.0,0.0,0,-18.0,1
817,817,0.7437463580666227,0.7,1.0,1.0,376.0,577.0,1.0,1,197.0,1
818,818,0.3971627490524893,0.4,0.0,0.0,356.0,651.0,0.0,1,293.0,1
819,819,0.8546114665163024,0.9,1.0,1.0,440.0,632.0,1.0,1,108.0,1
820,820,0.7812767783229216,0.8,1.0,1.0,321.0,801.0,1.0,1,98.0,1
821,821,0.09788191920130007,0.1,0.0,0.0,454.0,726.0,1.0,0,1820.0,0
822,822,-0.06755818883064901,-0.1,0.0,1.0,399.0,541.0,1.0,0,600.0,1
823,823,-0.48598423561548965,-0.5,0.0,1.0,413.0,544.0,1.0,0,173.0,1
824,824,0.4222134282796365,0.4,1.0,1.0,372.0,647.0,1.0,1,1191.0,1
825,825,-0.664046735014073,-0.7,1.0,0.0,330.0,896.0,0.0,0,44.0,1
826,826,0.8523885814760302,0.9,1.0,1.0,293.0,658.0,1.0,1,199.0,1
827,827,0.6421653639609245,0.6,0.0,0.0,296.0,979.0,0.0,1,245.0,1
828,828,0.14014617025139853,0.1,1.0,1.0,334.0,555.0,1.0,1,1711.0,1
829,829,-0.03794493042508218,-0.0,1.0,0.0,264.0,654.0,0.0,0,1712.0,1
830,830,-0.6917567210407046,-0.7,1.0,0.0,497.0,981.0,0.0,0,272.0,1
831,831,-0.6202187191070316,-0.6,0.0,1.0,313.0,659.0,1.0,0,138.0,1
832,832,-0.405248905385753,-0.4,0.0,1.0,478.0,986.0,1.0,0,-4.0,1
833,833,-0.2990712367442361,-0.3,1.0,0.0,265.0,637.0,0.0,0,608.0,1
834,834,-0.2789750045334909,-0.3,0.0,1.0,310.0,750.0,1.0,0,220.0,1
835,835,0.2423192863005369,0.2,1.0,1.0,391.0,979.0,1.0,1,300.0,1
836,836,0.3223895153608033,0.3,1.0,1.0,278.0,663.0,1.0,1,339.0,1
837,837,0.5620202719632806,0.6,1.0,1.0,459.0,615.0,1.0,1,426.0,1
838,838,0.5321606922377612,0.5,1.0,1.0,322.0,601.0,1.0,1,707.0,1
839,839,-0.0651769476481866,-0.1,1.0,0.0,327.0,706.0,1.0,1,1967.0,0
840,840,0.6748822512790896,0.7,1.0,1.0,433.0,912.0,1.0,1,65.0,1
841,841,-0.5118869118965146,-0.5,1.0,0.0,397.0,663.0,0.0,0,510.0,1
842,842,0.06372646451194475,0.1,0.0,0.0,291.0,992.0,0.0,1,1717.0,1
843,843,-0.683312194915357,-0.7,1.0,0.0,350.0,977.0,0.0,0,163.0,1
844,844,-0.681472255823455,-0.7,0.0,1.0,250.0,991.0,1.0,0,239.0,1
845,845,-0.4883751364591832,-0.5,1.0,0.0,262.0,516.0,0.0,0,462.0,1
846,846,0.4896725838723158,0.5,0.0,0.0,413.0,813.0,0.0,1,144.0,1
847,847,0.3795711162417258,0.4,0.0,0.0,352.0,775.0,0.0,1,323.0,1
848,848,-0.688026440115957,-0.7,1.0,0.0,281.0,816.0,0.0,0,353.0,1
849,849,-0.21622290438641856,-0.2,0.0,1.0,371.0,649.0,1.0,0,520.0,1
850,850,-0.25936063679509036,-0.3,0.0,1.0,318.0,973.0,1.0,0,479.0,1
851,851,-0.2730042421313609,-0.3,0.0,1.0,252.0,903.0,1.0,0,415.0,1
852,852,0.11238209295523471,0.1,1.0,1.0,352.0,816.0,1.0,1,1832.0,1
853,853,-0.13063044225278464,-0.1,0.0,1.0,277.0,898.0,1.0,0,75.0,1
854,854,-0.6457719592645318,-0.6,1.0,0.0,434.0,627.0,0.0,0,179.0,1
855,855,0.2285322394648467,0.2,1.0,1.0,409.0,655.0,1.0,1,1836.0,1
856,856,0.8599042438630949,0.9,1.0,1.0,474.0,826.0,1.0,1,170.0,1
857,857,-0.7987651839824526,-0.8,1.0,0.0,478.0,989.0,0.0,0,253.0,1
858,858,0.5150286065108972,0.5,1.0,1.0,472.0,544.0,1.0,1,474.0,1
859,859,0.5241968072368347,0.5,1.0,1.0,275.0,964.0,1.0,1,261.0,1
860,860,0.7665991783832317,0.8,0.0,0.0,491.0,717.0,0.0,1,242.0,1
861,861,0.6187329078673706,0.6,0.0,0.0,497.0,687.0,0.0,1,226.0,1
862,862,0.04330453904916398,0.0,0.0,0.0,482.0,775.0,1.0,0,1743.0,0
863,863,-0.19522728776752163,-0.2,0.0,1.0,350.0,969.0,1.0,0,141.0,1
864,864,0.6911060886169119,0.7,0.0,0.0,303.0,806.0,0.0,1,291.0,1
865,865,0.5585679875183914,0.6,1.0,1.0,253.0,708.0,1.0,1,189.0,1
866,866,-0.6493647558277333,-0.6,0.0,1.0,299.0,889.0,1.0,0,202.0,1
867,867,0.8225414838625339,0.8,1.0,1.0,388.0,655.0,1.0,1,117.0,1
868,868,0.8930176005181535,0.9,0.0,0.0,261.0,963.0,0.0,1,36.0,1
869,869,0.2537363430234886,0.3,0.0,0.0,278.0,856.0,0.0,1,266.0,1
870,870,-0.5644328214160839,-0.6,0.0,1.0,304.0,739.0,1.0,0,117.0,1
871,871,0.4041480869227637,0.4,1.0,1.0,372.0,600.0,1.0,1,2028.0,1
872,872,-0.012857880085816564,-0.0,1.0,0.0,409.0,810.0,0.0,0,1781.0,1
873,873,0.4009529989170063,0.4,1.0,1.0,433.0,898.0,1.0,1,579.0,1
874,874,0.1194610071802732,0.1,1.0,1.0,301.0,958.0,1.0,1,871.0,1
875,875,0.494487208497267,0.5,1.0,1.0,287.0,861.0,1.0,1,222.0,1
876,876,0.8617564518601281,0.9,1.0,1.0,463.0,573.0,1.0,1,254.0,1
877,877,-0.032372783024258056,-0.0,1.0,0.0,365.0,577.0,0.0,0,2058.0,1
878,878,0.578612559652857,0.6,0.0,0.0,346.0,891.0,0.0,1,193.0,1
879,879,-0.08563762598366575,-0.1,1.0,0.0,498.0,705.0,0.0,0,1057.0,1
880,880,-0.533003783378982,-0.5,1.0,0.0,262.0,993.0,0.0,0,145.0,1
881,881,0.8899586021150162,0.9,0.0,0.0,356.0,939.0,0.0,1,125.0,1
882,882,-0.5122037530795502,-0.5,0.0,1.0,352.0,536.0,1.0,0,282.0,1
883,883,0.4424585128717643,0.4,1.0,1.0,312.0,931.0,1.0,1,347.0,1
884,884,0.1318443111339046,0.1,0.0,0.0,263.0,529.0,0.0,1,1918.0,1
885,885,0.5738959325477814,0.6,0.0,0.0,470.0,894.0,0.0,1,136.0,1
886,886,-0.24862851896687543,-0.2,0.0,1.0,374.0,831.0,1.0,0,335.0,1
887,887,-0.6899972811515703,-0.7,1.0,0.0,348.0,628.0,0.0,0,274.0,1
888,888,-0.3092390544919654,-0.3,0.0,1.0,390.0,778.0,1.0,0,412.0,1
889,889,-0.49249266541292575,-0.5,1.0,0.0,376.0,835.0,0.0,0,209.0,1
890,890,0.7534646220624176,0.8,0.0,0.0,342.0,592.0,0.0,1,186.0,1
891,891,0.0016921419104735103,0.0,0.0,0.0,318.0,955.0,1.0,0,1727.0,0
892,892,-0.27845925444662545,-0.3,1.0,0.0,478.0,746.0,0.0,0,596.0,1
893,893,0.006404183830395316,0.0,1.0,1.0,426.0,637.0,1.0,1,1937.0,1
894,894,0.6673527343430846,0.7,1.0,1.0,498.0,636.0,1.0,1,76.0,1
895,895,-0.14845562452550165,-0.1,1.0,0.0,473.0,599.0,0.0,0,438.0,1
896,896,0.10796336037039433,0.1,0.0,0.0,270.0,833.0,0.0,1,1897.0,1
897,897,0.7178154537165761,0.7,0.0,0.0,288.0,511.0,0.0,1,181.0,1
898,898,0.27233766347156985,0.3,0.0,0.0,388.0,910.0,0.0,1,542.0,1
899,899,0.8379300532303281,0.8,1.0,1.0,299.0,836.0,1.0,1,125.0,1
900,900,-0.8823628427394596,-0.9,1.0,0.0,300.0,982.0,0.0,0,188.0,1
901,901,0.8050905091960167,0.8,0.0,0.0,419.0,639.0,0.0,1,192.0,1
902,902,0.7340163407674726,0.7,1.0,1.0,268.0,639.0,1.0,1,123.0,1
903,903,0.8491446443521408,0.8,1.0,1.0,290.0,985.0,1.0,1,115.0,1
904,904,0.4977644952669745,0.5,1.0,1.0,372.0,982.0,1.0,1,196.0,1
905,905,0.8552214315324497,0.9,1.0,1.0,286.0,683.0,1.0,1,341.0,1
906,906,-0.6288024065776601,-0.6,0.0,1.0,256.0,897.0,1.0,0,277.0,1
907,907,-0.7753150599762375,-0.8,0.0,1.0,355.0,518.0,1.0,0,157.0,1
908,908,-0.8735900576409459,-0.9,1.0,0.0,371.0,787.0,0.0,0,162.0,1
909,909,-0.3865280896831308,-0.4,0.0,1.0,332.0,700.0,1.0,0,178.0,1
910,910,-0.4751355717823097,-0.5,0.0,1.0,469.0,961.0,1.0,0,350.0,1
911,911,-0.04206988565080316,-0.0,1.0,0.0,455.0,688.0,0.0,0,1857.0,1
912,912,-0.011891517408462615,-0.0,1.0,0.0,449.0,674.0,0.0,0,1877.0,1
913,913,-0.7531646722623073,-0.8,0.0,1.0,253.0,784.0,1.0,0,313.0,1
914,914,0.5071107601332069,0.5,0.0,0.0,381.0,714.0,0.0,1,325.0,1
915,915,0.2565286990155399,0.3,1.0,1.0,313.0,757.0,1.0,1,370.0,1
916,916,-0.09221647524190424,-0.1,1.0,0.0,469.0,997.0,0.0,0,174.0,1
917,917,-0.4701619470493593,-0.5,1.0,0.0,486.0,683.0,0.0,0,531.0,1
918,918,0.08740970105253687,0.1,0.0,0.0,474.0,916.0,1.0,0,1610.0,0
919,919,0.2688621572266353,0.3,0.0,0.0,433.0,949.0,0.0,1,1198.0,1
920,920,-0.22836454186727528,-0.2,1.0,0.0,437.0,906.0,0.0,0,407.0,1
921,921,-0.8578211061684249,-0.9,1.0,0.0,271.0,949.0,0.0,0,100.0,1
922,922,0.49998667068203806,0.5,0.0,0.0,324.0,863.0,0.0,1,153.0,1
923,923,-0.5493504639442364,-0.5,0.0,1.0,420.0,531.0,1.0,0,159.0,1
924,924,-0.7800883707780315,-0.8,0.0,1.0,465.0,951.0,1.0,0,174.0,1
925,925,-0.08326936508308169,-0.1,0.0,1.0,465.0,880.0,1.0,0,285.0,1
926,926,-0.7818770718966378,-0.8,1.0,0.0,268.0,502.0,0.0,0,180.0,1
927,927,-0.8143145265849369,-0.8,1.0,0.0,363.0,884.0,0.0,0,113.0,1
928,928,-0.4730193261340257,-0.5,1.0,0.0,372.0,826.0,0.0,0,502.0,1
929,929,-0.08974839531418544,-0.1,1.0,0.0,255.0,708.0,0.0,0,627.0,1
930,930,0.7872068267884561,0.8,1.0,1.0,451.0,898.0,1.0,1,311.0,1
931,931,-0.8971212817951899,-0.9,0.0,1.0,391.0,504.0,1.0,0,345.0,1
932,932,0.5752506042824171,0.6,0.0,0.0,488.0,770.0,0.0,1,242.0,1
933,933,0.6157617835349795,0.6,1.0,1.0,474.0,636.0,1.0,1,190.0,1
934,934,-0.1435151236241886,-0.1,1.0,0.0,330.0,947.0,0.0,0,1723.0,1
935,935,-0.07508396157418751,-0.1,0.0,1.0,497.0,974.0,1.0,0,549.0,1
936,936,-0.2605992146724434,-0.3,1.0,0.0,381.0,756.0,0.0,0,373.0,1
937,937,0.07279435513179344,0.1,0.0,0.0,318.0,637.0,1.0,0,2045.0,0
938,938,0.7258254352209687,0.7,1.0,1.0,437.0,938.0,1.0,1,745.0,1
939,939,-0.222941285108879,-0.2,0.0,1.0,257.0,635.0,1.0,0,228.0,1
940,940,-0.37138459701833937,-0.4,1.0,0.0,409.0,793.0,0.0,0,398.0,1
941,941,0.5085487376533192,0.5,1.0,1.0,384.0,869.0,1.0,1,367.0,1
942,942,0.8078158957187881,0.8,0.0,0.0,304.0,919.0,0.0,1,127.0,1
943,943,-0.6579411680698898,-0.7,1.0,0.0,381.0,528.0,0.0,0,311.0,1
944,944,0.35009550391406996,0.4,0.0,0.0,284.0,790.0,0.0,1,396.0,1
945,945,0.4195030881427727,0.4,1.0,1.0,472.0,629.0,1.0,1,239.0,1
946,946,0.2055682693643287,0.2,0.0,0.0,476.0,617.0,0.0,1,1697.0,1
947,947,-0.5527989326557796,-0.6,1.0,0.0,371.0,587.0,0.0,0,82.0,1
948,948,0.6991469843321584,0.7,0.0,0.0,472.0,622.0,0.0,1,236.0,1
949,949,0.4695335344214292,0.5,0.0,0.0,267.0,857.0,0.0,1,296.0,1
950,950,0.7986826524959719,0.8,1.0,1.0,258.0,925.0,1.0,1,297.0,1
951,951,-0.5438084187581472,-0.5,0.0,1.0,362.0,626.0,1.0,0,152.0,1
952,952,-0.3361316728657665,-0.3,0.0,1.0,472.0,593.0,1.0,0,805.0,1
953,953,-0.7808503021868344,-0.8,1.0,0.0,495.0,728.0,0.0,0,237.0,1
954,954,0.89891638224032,0.9,1.0,1.0,341.0,816.0,1.0,1,103.0,1
955,955,0.453884812802429,0.5,1.0,1.0,367.0,817.0,1.0,1,616.0,1
956,956,-0.641512648831573,-0.6,0.0,1.0,462.0,974.0,1.0,0,144.0,1
957,957,0.22339642491913903,0.2,1.0,1.0,464.0,960.0,1.0,1,496.0,1
958,958,0.7734351445369033,0.8,1.0,1.0,308.0,639.0,1.0,1,173.0,1
959,959,0.49842524158537593,0.5,0.0,0.0,373.0,941.0,0.0,1,286.0,1
960,960,-0.5534637085278109,-0.6,1.0,0.0,416.0,911.0,0.0,0,73.0,1
961,961,-0.4275898099274656,-0.4,0.0,1.0,320.0,686.0,1.0,0,274.0,1
962,962,0.6005991097582496,0.6,1.0,1.0,460.0,666.0,1.0,1,294.0,1
963,963,0.7894793128364633,0.8,1.0,1.0,466.0,755.0,1.0,1,139.0,1
964,964,0.30878093330069933,0.3,1.0,1.0,368.0,508.0,1.0,1,424.0,1
965,965,0.565654306076686,0.6,1.0,1.0,464.0,965.0,1.0,1,241.0,1
966,966,0.6170621914230175,0.6,1.0,1.0,474.0,892.0,1.0,1,184.0,1
967,967,0.744755003090395,0.7,0.0,0.0,304.0,643.0,0.0,1,233.0,1
968,968,-0.35529066336979775,-0.4,1.0,0.0,259.0,506.0,0.0,0,1015.0,1
969,969,-0.5172419961593657,-0.5,1.0,0.0,433.0,559.0,0.0,0,148.0,1
970,970,0.006149731264226688,0.0,1.0,1.0,316.0,504.0,1.0,1,2180.0,1
971,971,-0.2502938913620564,-0.3,0.0,1.0,492.0,765.0,1.0,0,343.0,1
972,972,-0.4530672275164476,-0.5,0.0,1.0,283.0,550.0,1.0,0,447.0,1
973,973,0.3964385518610146,0.4,0.0,0.0,271.0,603.0,0.0,1,306.0,1
974,974,0.8948045208480327,0.9,1.0,1.0,347.0,935.0,1.0,1,138.0,1
975,975,-0.7207492811794775,-0.7,1.0,0.0,495.0,872.0,0.0,0,163.0,1
976,976,0.5511187042849116,0.6,1.0,1.0,262.0,792.0,1.0,1,206.0,1
977,977,0.31887850426250564,0.3,1.0,1.0,295.0,730.0,1.0,1,425.0,1
978,978,-0.2387188320158562,-0.2,1.0,0.0,382.0,588.0,0.0,0,410.0,1
979,979,0.22739727871643167,0.2,0.0,0.0,464.0,550.0,0.0,1,916.0,1
980,980,-0.20811862504242773,-0.2,0.0,1.0,289.0,810.0,1.0,0,61.0,1
981,981,-0.13892459442072846,-0.1,1.0,0.0,317.0,552.0,0.0,0,1701.0,1
982,982,-0.5795139396430169,-0.6,1.0,0.0,321.0,531.0,0.0,0,178.0,1
983,983,-0.496924265371569,-0.5,0.0,1.0,480.0,864.0,1.0,0,86.0,1
984,984,-0.6083092009118489,-0.6,1.0,0.0,428.0,779.0,0.0,0,213.0,1
985,985,0.7402835865770226,0.7,1.0,1.0,499.0,837.0,1.0,1,184.0,1
986,986,-0.41059304803936975,-0.4,0.0,1.0,410.0,702.0,1.0,0,248.0,1
987,987,-0.2849989909383356,-0.3,1.0,0.0,341.0,554.0,0.0,0,505.0,1
988,988,0.3601152725742597,0.4,1.0,1.0,376.0,855.0,1.0,1,249.0,1
989,989,0.5696425853594979,0.6,0.0,0.0,295.0,709.0,0.0,1,256.0,1
990,990,0.2013512760726638,0.2,0.0,0.0,279.0,900.0,0.0,1,291.0,1
991,991,0.6833261796978837,0.7,1.0,1.0,431.0,896.0,1.0,1,153.0,1
992,992,-0.26754106429105884,-0.3,1.0,0.0,450.0,927.0,0.0,0,373.0,1
993,993,-0.33052392938048103,-0.3,0.0,1.0,407.0,938.0,1.0,0,145.0,1
994,994,-0.4479963094098558,-0.4,1.0,0.0,391.0,691.0,0.0,0,268.0,1
995,995,-0.28144497040260397,-0.3,1.0,0.0,467.0,626.0,0.0,0,187.0,1
996,996,-0.31351272484441317,-0.3,1.0,0.0,464.0,650.0,0.0,0,406.0,1
997,997,-0.7863515283915108,-0.8,0.0,1.0,365.0,558.0,1.0,0,147.0,1
998,998,-0.18428998615246373,-0.2,1.0,0.0,390.0,721.0,0.0,0,1889.0,1
999,999,-0.8151371479131669,-0.8,1.0,0.0,379.0,792.0,0.0,0,129.0,1
1000,1000,0.28773382454133756,0.3,1.0,1.0,271.0,929.0,1.0,1,850.0,1
1001,1001,-0.30980306830531645,-0.3,1.0,0.0,348.0,796.0,0.0,0,336.0,1
1002,1002,-0.7321192304679668,-0.7,1.0,0.0,470.0,744.0,0.0,0,156.0,1
1003,1003,0.16801560663113213,0.2,0.0,0.0,467.0,947.0,0.0,1,1586.0,1
1004,1004,-0.8773574292993727,-0.9,0.0,1.0,289.0,701.0,1.0,0,60.0,1
1005,1005,-0.36786940505630683,-0.4,1.0,0.0,476.0,705.0,0.0,0,239.0,1
1006,1006,0.2797397791028754,0.3,0.0,0.0,310.0,694.0,0.0,1,326.0,1
1007,1007,-0.4286595333890035,-0.4,0.0,1.0,385.0,972.0,1.0,0,233.0,1
1008,1008,-0.5208084749422373,-0.5,1.0,0.0,422.0,841.0,0.0,0,217.0,1
1009,1009,-0.2030963506829898,-0.2,1.0,0.0,371.0,579.0,0.0,0,530.0,1
1010,1010,0.09696616943751935,0.1,0.0,0.0,461.0,742.0,0.0,1,1797.0,1
1011,1011,0.2717833235460868,0.3,0.0,0.0,493.0,912.0,0.0,1,365.0,1
1012,1012,0.6818691110766198,0.7,1.0,1.0,292.0,980.0,1.0,1,238.0,1
1013,1013,-0.8131680903854243,-0.8,1.0,0.0,418.0,627.0,0.0,0,245.0,1
1014,1014,0.20508670017796227,0.2,1.0,1.0,430.0,525.0,1.0,1,645.0,1
1015,1015,0.26415034907022894,0.3,1.0,1.0,378.0,585.0,1.0,1,157.0,1
1016,1016,0.47626643770240673,0.5,0.0,0.0,494.0,946.0,0.0,1,280.0,1
1017,1017,0.6522233568163195,0.7,1.0,1.0,330.0,573.0,1.0,1,217.0,1
1018,1018,0.3979108366793612,0.4,1.0,1.0,431.0,656.0,1.0,1,503.0,1
1019,1019,0.37128360005091754,0.4,0.0,0.0,457.0,777.0,1.0,0,-14.0,0
1020,1020,0.8807442844607539,0.9,1.0,1.0,352.0,710.0,1.0,1,158.0,1
1021,1021,-0.7280864370922236,-0.7,1.0,0.0,398.0,956.0,0.0,0,226.0,1
1022,1022,-0.5343644709886217,-0.5,1.0,0.0,449.0,909.0,0.0,0,142.0,1
1023,1023,-0.1788808078472175,-0.2,0.0,1.0,490.0,799.0,1.0,0,401.0,1
1024,1024,-0.4541832156953742,-0.5,0.0,1.0,409.0,685.0,1.0,0,66.0,1
1025,1025,-0.07988593107916508,-0.1,1.0,0.0,381.0,683.0,0.0,0,1186.0,1
1026,1026,0.01684751713624466,0.0,1.0,1.0,250.0,676.0,0.0,0,1594.0,0
1027,1027,0.2012128543614885,0.2,0.0,0.0,422.0,750.0,0.0,1,1828.0,1
1028,1028,0.5119956484852585,0.5,0.0,0.0,468.0,886.0,1.0,0,-114.0,0
1029,1029,0.6985319712716965,0.7,0.0,0.0,403.0,699.0,0.0,1,138.0,1
1030,1030,0.8826815456002349,0.9,0.0,0.0,318.0,551.0,0.0,1,161.0,1
1031,1031,-0.4414296344789124,-0.4,1.0,0.0,421.0,812.0,0.0,0,147.0,1
1032,1032,-0.7202404184487285,-0.7,0.0,1.0,494.0,852.0,1.0,0,364.0,1
1033,1033,0.21427579258947305,0.2,1.0,1.0,478.0,620.0,1.0,1,412.0,1
1034,1034,0.28774788775056137,0.3,0.0,0.0,357.0,625.0,0.0,1,448.0,1
1035,1035,0.8006728029370506,0.8,0.0,0.0,483.0,762.0,0.0,1,175.0,1
1036,1036,-0.37905671693842713,-0.4,1.0,0.0,316.0,812.0,0.0,0,282.0,1
1037,1037,0.48097326829452147,0.5,0.0,0.0,488.0,989.0,0.0,1,213.0,1
1038,1038,0.7864350141974384,0.8,1.0,1.0,381.0,543.0,1.0,1,326.0,1
1039,1039,-0.12562805592824755,-0.1,1.0,0.0,481.0,558.0,0.0,0,961.0,1
1040,1040,-0.29102443751013196,-0.3,0.0,1.0,262.0,907.0,1.0,0,131.0,1
1041,1041,-0.16027834690685006,-0.2,1.0,0.0,325.0,661.0,0.0,0,1274.0,1
1042,1042,0.5585939325316981,0.6,1.0,1.0,441.0,601.0,1.0,1,218.0,1
1043,1043,0.37781709915549444,0.4,1.0,1.0,328.0,874.0,1.0,1,208.0,1
1044,1044,-0.6645369818895627,-0.7,1.0,0.0,432.0,909.0,0.0,0,249.0,1
1045,1045,-0.009351994057183233,-0.0,1.0,0.0,354.0,882.0,1.0,1,1524.0,0
1046,1046,-0.48436954267492793,-0.5,0.0,1.0,299.0,799.0,1.0,0,292.0,1
1047,1047,0.03349597212713318,0.0,0.0,0.0,415.0,736.0,0.0,1,1849.0,1
1048,1048,-0.5087459951381048,-0.5,1.0,0.0,290.0,849.0,0.0,0,211.0,1
1049,1049,0.3896871996330674,0.4,0.0,0.0,255.0,695.0,0.0,1,480.0,1
1050,1050,0.3823007507109625,0.4,0.0,0.0,357.0,691.0,0.0,1,302.0,1
1051,1051,0.16805669689378278,0.2,1.0,1.0,413.0,504.0,1.0,1,903.0,1
1052,1052,-0.5827211406580124,-0.6,0.0,1.0,380.0,968.0,1.0,0,42.0,1
1053,1053,-0.4240179276159829,-0.4,0.0,1.0,398.0,752.0,1.0,0,150.0,1
1054,1054,0.31266231069653616,0.3,0.0,0.0,410.0,821.0,0.0,1,179.0,1
1055,1055,0.8274554118260201,0.8,1.0,1.0,345.0,913.0,1.0,1,52.0,1
1056,1056,0.4876456499976821,0.5,1.0,1.0,479.0,812.0,1.0,1,369.0,1
1057,1057,-0.7727487963835307,-0.8,0.0,1.0,295.0,599.0,1.0,0,156.0,1
1058,1058,-0.34240609235861297,-0.3,0.0,1.0,492.0,958.0,1.0,0,200.0,1
1059,1059,0.2944017150246797,0.3,0.0,0.0,350.0,833.0,0.0,1,607.0,1
1060,1060,0.6048639777271511,0.6,0.0,0.0,263.0,830.0,0.0,1,297.0,1
1061,1061,-0.6853734224910677,-0.7,0.0,1.0,495.0,903.0,1.0,0,122.0,1
1062,1062,0.4367605237715998,0.4,1.0,1.0,371.0,592.0,1.0,1,307.0,1
1063,1063,0.7276985906519252,0.7,1.0,1.0,452.0,738.0,1.0,1,280.0,1
1064,1064,0.7341834248160172,0.7,0.0,0.0,435.0,938.0,0.0,1,167.0,1
1065,1065,-0.7007241697778916,-0.7,0.0,1.0,319.0,568.0,1.0,0,163.0,1
1066,1066,-0.6745780767876147,-0.7,0.0,1.0,347.0,586.0,1.0,0,187.0,1
1067,1067,0.5698580984401421,0.6,0.0,0.0,339.0,593.0,0.0,1,218.0,1
1068,1068,-0.34411909836916077,-0.3,0.0,1.0,415.0,764.0,1.0,0,71.0,1
1069,1069,-0.7715630002932168,-0.8,1.0,0.0,362.0,768.0,0.0,0,350.0,1
1070,1070,0.16467447758930864,0.2,0.0,0.0,406.0,821.0,0.0,1,1273.0,1
1071,1071,0.6299751648831823,0.6,0.0,0.0,320.0,802.0,0.0,1,248.0,1
1072,1072,0.770775048800525,0.8,0.0,0.0,299.0,728.0,0.0,1,143.0,1
1073,1073,0.699513214553951,0.7,1.0,1.0,460.0,947.0,1.0,1,193.0,1
1074,1074,0.8614092332927789,0.9,1.0,1.0,385.0,703.0,1.0,1,92.0,1
1075,1075,-0.4320165124071916,-0.4,1.0,0.0,465.0,673.0,0.0,0,322.0,1
1076,1076,-0.2428766159686565,-0.2,1.0,0.0,341.0,936.0,0.0,0,213.0,1
1077,1077,-0.32723211517863016,-0.3,0.0,1.0,309.0,744.0,1.0,0,297.0,1
1078,1078,0.3642909057840654,0.4,1.0,1.0,414.0,781.0,1.0,1,55.0,1
1079,1079,0.10418398840727094,0.1,0.0,0.0,365.0,677.0,0.0,1,1958.0,1
1080,1080,0.7981662782090889,0.8,0.0,0.0,293.0,999.0,0.0,1,168.0,1
1081,1081,-0.3421471301944511,-0.3,0.0,1.0,321.0,785.0,1.0,0,124.0,1
1082,1082,-0.32126693887964497,-0.3,1.0,0.0,298.0,629.0,0.0,0,513.0,1
1083,1083,0.6441915864397468,0.6,1.0,1.0,405.0,864.0,1.0,1,311.0,1
1084,1084,-0.356387696630454,-0.4,1.0,0.0,321.0,821.0,0.0,0,238.0,1
1085,1085,0.1701078933434238,0.2,1.0,1.0,289.0,972.0,1.0,1,799.0,1
1086,1086,-0.7089876515646133,-0.7,1.0,0.0,285.0,938.0,0.0,0,147.0,1
1087,1087,-0.6498870472087876,-0.6,1.0,0.0,363.0,778.0,0.0,0,219.0,1
1088,1088,-0.4747393374696654,-0.5,1.0,0.0,281.0,794.0,0.0,0,385.0,1
1089,1089,-0.3113314335452759,-0.3,1.0,0.0,252.0,761.0,0.0,0,307.0,1
1090,1090,0.8124142558094348,0.8,1.0,1.0,296.0,763.0,1.0,1,181.0,1
1091,1091,-0.15128766769351576,-0.2,0.0,1.0,314.0,596.0,1.0,0,670.0,1
1092,1092,-0.39551144171395813,-0.4,1.0,0.0,317.0,932.0,0.0,0,211.0,1
1093,1093,0.1296037155812485,0.1,0.0,0.0,339.0,872.0,0.0,1,679.0,1
1094,1094,0.3934479601471953,0.4,0.0,0.0,261.0,976.0,0.0,1,933.0,1
1095,1095,-0.7689426904458521,-0.8,0.0,1.0,278.0,939.0,1.0,0,123.0,1
1096,1096,-0.5339477555022804,-0.5,0.0,1.0,444.0,532.0,1.0,0,284.0,1
1097,1097,-0.7081147701524153,-0.7,1.0,0.0,353.0,756.0,0.0,0,321.0,1
1098,1098,-0.8924260768201496,-0.9,0.0,1.0,312.0,787.0,1.0,0,311.0,1
1099,1099,0.013688644956495133,0.0,0.0,0.0,353.0,570.0,0.0,1,2077.0,1
1100,1100,0.22960824650668166,0.2,0.0,0.0,492.0,895.0,0.0,1,213.0,1
1101,1101,0.8342787564775757,0.8,1.0,1.0,280.0,951.0,1.0,1,289.0,1
1102,1102,-0.8568230286613031,-0.9,0.0,1.0,347.0,517.0,1.0,0,166.0,1
1103,1103,0.2271397813222894,0.2,0.0,0.0,338.0,682.0,0.0,1,990.0,1
1104,1104,-0.367202310055036,-0.4,1.0,0.0,311.0,617.0,0.0,0,462.0,1
1105,1105,0.8241123480820548,0.8,0.0,0.0,451.0,697.0,0.0,1,192.0,1
1106,1106,0.006455585147228771,0.0,0.0,0.0,277.0,989.0,1.0,0,294.0,0
1107,1107,-0.4540032327640347,-0.5,0.0,1.0,427.0,961.0,1.0,0,132.0,1
1108,1108,-0.19540032663754736,-0.2,1.0,0.0,291.0,778.0,0.0,0,211.0,1
1109,1109,0.17474038740147468,0.2,0.0,0.0,350.0,655.0,0.0,1,385.0,1
1110,1110,-0.704405703051676,-0.7,0.0,1.0,477.0,861.0,1.0,0,192.0,1
1111,1111,0.7454110045074339,0.7,1.0,1.0,359.0,505.0,1.0,1,176.0,1
1112,1112,-0.3974995596180527,-0.4,0.0,1.0,355.0,711.0,1.0,0,254.0,1
1113,1113,-0.1883678223214995,-0.2,0.0,1.0,474.0,870.0,1.0,0,166.0,1
1114,1114,-0.8098091227348102,-0.8,0.0,1.0,463.0,798.0,1.0,0,109.0,1
1115,1115,0.023957787415521237,0.0,0.0,0.0,340.0,875.0,1.0,0,1785.0,0
1116,1116,-0.5563547888881881,-0.6,1.0,0.0,286.0,713.0,0.0,0,231.0,1
1117,1117,-0.6268043087199813,-0.6,1.0,0.0,265.0,690.0,0.0,0,255.0,1
1118,1118,-0.1627833613998687,-0.2,1.0,0.0,252.0,542.0,0.0,0,2206.0,1
1119,1119,0.5831277803136933,0.6,1.0,1.0,441.0,840.0,1.0,1,249.0,1
1120,1120,-0.15095705036570417,-0.2,1.0,0.0,270.0,937.0,0.0,0,583.0,1
1121,1121,-0.345209762420137,-0.3,1.0,0.0,364.0,817.0,0.0,0,309.0,1
1122,1122,0.7513428836708714,0.8,0.0,0.0,297.0,654.0,0.0,1,179.0,1
1123,1123,-0.7292629013300991,-0.7,1.0,0.0,360.0,809.0,0.0,0,141.0,1
1124,1124,0.4994765713783508,0.5,1.0,1.0,463.0,648.0,1.0,1,269.0,1
1125,1125,0.3208839331184109,0.3,1.0,1.0,463.0,933.0,1.0,1,274.0,1
1126,1126,-0.480304439388616,-0.5,0.0,1.0,251.0,776.0,1.0,0,313.0,1
1127,1127,-0.2785329909248525,-0.3,0.0,1.0,259.0,974.0,1.0,0,377.0,1
1128,1128,-0.2627388910308537,-0.3,0.0,1.0,307.0,649.0,1.0,0,484.0,1
1129,1129,-0.8441750537885129,-0.8,0.0,1.0,427.0,529.0,1.0,0,104.0,1
1130,1130,-0.19951717685322035,-0.2,0.0,1.0,457.0,947.0,1.0,0,236.0,1
1131,1131,-0.1640775383402363,-0.2,0.0,1.0,294.0,792.0,1.0,0,1204.0,1
1132,1132,0.5825665932060425,0.6,1.0,1.0,425.0,882.0,1.0,1,233.0,1
1133,1133,-0.03702970646174253,-0.0,1.0,0.0,345.0,997.0,0.0,0,1658.0,1
1134,1134,-0.7067509385729679,-0.7,1.0,0.0,490.0,737.0,0.0,0,263.0,1
1135,1135,-0.48831910109435833,-0.5,1.0,0.0,325.0,988.0,0.0,0,197.0,1
1136,1136,-0.007870772215744948,-0.0,1.0,0.0,442.0,628.0,1.0,1,1930.0,0
1137,1137,0.19016142374725165,0.2,1.0,1.0,346.0,570.0,1.0,1,2084.0,1
1138,1138,-0.23802612027974512,-0.2,1.0,0.0,361.0,649.0,0.0,0,560.0,1
1139,1139,-0.20817195446527192,-0.2,1.0,0.0,440.0,786.0,0.0,0,384.0,1
1140,1140,-0.3514036026851509,-0.4,0.0,1.0,392.0,854.0,1.0,0,114.0,1
1141,1141,-0.0869868598663367,-0.1,1.0,0.0,443.0,957.0,0.0,0,1290.0,1
1142,1142,-0.5585796244007896,-0.6,0.0,1.0,355.0,626.0,1.0,0,249.0,1
1143,1143,0.07065413431844736,0.1,1.0,1.0,497.0,631.0,1.0,1,1332.0,1
1144,1144,0.019064192104581212,0.0,0.0,0.0,388.0,536.0,1.0,0,956.0,0
1145,1145,0.30482498382777556,0.3,0.0,0.0,321.0,981.0,0.0,1,468.0,1
1146,1146,-0.5797787509759407,-0.6,0.0,1.0,285.0,538.0,1.0,0,767.0,1
1147,1147,-0.4690917914551422,-0.5,0.0,1.0,393.0,704.0,1.0,0,423.0,1
1148,1148,-0.14575751704856077,-0.1,0.0,1.0,270.0,626.0,1.0,0,1114.0,1
1149,1149,-0.5108529028505775,-0.5,1.0,0.0,447.0,513.0,0.0,0,290.0,1
1150,1150,-0.4824009765163888,-0.5,1.0,0.0,390.0,704.0,0.0,0,166.0,1
1151,1151,-0.5417639934318165,-0.5,0.0,1.0,260.0,869.0,1.0,0,131.0,1
1152,1152,0.574148832719163,0.6,0.0,0.0,277.0,931.0,0.0,1,142.0,1
1153,1153,-0.5449147057848734,-0.5,1.0,0.0,402.0,700.0,0.0,0,348.0,1
1154,1154,-0.8182888500076567,-0.8,1.0,0.0,254.0,767.0,0.0,0,139.0,1
1155,1155,-0.10185212563490043,-0.1,1.0,0.0,317.0,946.0,0.0,0,367.0,1
1156,1156,-0.8474932086322157,-0.8,0.0,1.0,424.0,607.0,1.0,0,319.0,1
1157,1157,-0.6714930902931819,-0.7,1.0,0.0,307.0,628.0,0.0,0,135.0,1
1158,1158,0.12480576058378745,0.1,1.0,1.0,482.0,556.0,1.0,1,952.0,1
1159,1159,0.4398070182905903,0.4,1.0,1.0,357.0,980.0,1.0,1,183.0,1
1160,1160,-0.01670023701762602,-0.0,1.0,0.0,412.0,884.0,0.0,0,1704.0,1
1161,1161,-0.20493305659280092,-0.2,1.0,0.0,307.0,575.0,0.0,0,468.0,1
1162,1162,-0.642340982760538,-0.6,0.0,1.0,357.0,681.0,1.0,0,122.0,1
1163,1163,-0.7388067425136948,-0.7,0.0,1.0,442.0,558.0,1.0,0,140.0,1
1164,1164,-0.4060270311621036,-0.4,0.0,1.0,291.0,937.0,1.0,0,242.0,1
1165,1165,-0.3643627960858322,-0.4,0.0,1.0,487.0,937.0,1.0,0,346.0,1
1166,1166,0.018454361496585858,0.0,0.0,0.0,307.0,510.0,0.0,1,2183.0,1
1167,1167,0.3098352292233061,0.3,1.0,1.0,494.0,961.0,1.0,1,395.0,1
1168,1168,-0.3114430674969858,-0.3,1.0,0.0,253.0,769.0,0.0,0,308.0,1
1169,1169,0.7677161525359618,0.8,0.0,0.0,327.0,994.0,0.0,1,119.0,1
1170,1170,-0.47508072458125505,-0.5,1.0,0.0,386.0,809.0,0.0,0,195.0,1
1171,1171,-0.06499357496262681,-0.1,1.0,0.0,488.0,980.0,0.0,0,1532.0,1
1172,1172,0.013347820572862212,0.0,1.0,1.0,273.0,519.0,0.0,0,738.0,0
1173,1173,0.7008690177401439,0.7,1.0,1.0,456.0,883.0,1.0,1,221.0,1
1174,1174,-0.7186212590783696,-0.7,1.0,0.0,465.0,715.0,0.0,0,290.0,1
1175,1175,-0.29086253227729486,-0.3,0.0,1.0,433.0,666.0,1.0,0,261.0,1
1176,1176,-0.49969524393056036,-0.5,0.0,1.0,454.0,688.0,1.0,0,368.0,1
1177,1177,0.15765336617682502,0.2,1.0,1.0,339.0,687.0,1.0,1,1974.0,1
1178,1178,0.6665726322905318,0.7,1.0,1.0,282.0,560.0,1.0,1,138.0,1
1179,1179,-0.08338783045471487,-0.1,0.0,1.0,429.0,812.0,1.0,0,1759.0,1
1180,1180,-0.501629020539484,-0.5,0.0,1.0,473.0,672.0,1.0,0,165.0,1
1181,1181,0.3227970725513508,0.3,0.0,0.0,330.0,740.0,0.0,1,250.0,1
1182,1182,-0.6745598731051591,-0.7,0.0,1.0,336.0,631.0,1.0,0,103.0,1
1183,1183,0.5400009112136887,0.5,0.0,0.0,324.0,834.0,0.0,1,422.0,1
1184,1184,-0.4349398752253131,-0.4,0.0,1.0,381.0,983.0,1.0,0,-4.0,1
1185,1185,0.7047785905029703,0.7,0.0,0.0,400.0,991.0,0.0,1,239.0,1
1186,1186,-0.8877442767556755,-0.9,0.0,1.0,357.0,531.0,1.0,0,702.0,1
1187,1187,0.4253533901831751,0.4,0.0,0.0,465.0,742.0,0.0,1,323.0,1
1188,1188,0.8180394993516159,0.8,0.0,0.0,368.0,725.0,0.0,1,167.0,1
1189,1189,-0.8416657556771184,-0.8,0.0,1.0,361.0,795.0,1.0,0,104.0,1
1190,1190,-0.2609073226656209,-0.3,1.0,0.0,395.0,946.0,0.0,0,-131.0,1
1191,1191,0.5631262684997621,0.6,0.0,0.0,404.0,556.0,0.0,1,240.0,1
1192,1192,-0.752274238299657,-0.8,0.0,1.0,292.0,803.0,1.0,0,-25.0,1
1193,1193,0.5449887426748167,0.5,0.0,0.0,323.0,811.0,0.0,1,286.0,1
1194,1194,0.29778209914145515,0.3,0.0,0.0,382.0,831.0,0.0,1,407.0,1
1195,1195,-0.35281840188483127,-0.4,0.0,1.0,399.0,856.0,1.0,0,485.0,1
1196,1196,0.7609829016280764,0.8,1.0,1.0,358.0,828.0,1.0,1,294.0,1
1197,1197,-0.8178261104520738,-0.8,1.0,0.0,486.0,517.0,0.0,0,327.0,1
1198,1198,-0.4929024804954473,-0.5,0.0,1.0,466.0,647.0,1.0,0,807.0,1
1199,1199,0.25869909036982663,0.3,0.0,0.0,270.0,555.0,0.0,1,635.0,1
1200,1200,-0.8342176457107794,-0.8,1.0,0.0,401.0,747.0,0.0,0,532.0,1
1201,1201,-0.07126059315265121,-0.1,0.0,1.0,473.0,865.0,1.0,0,52.0,1
1202,1202,0.4636751153021107,0.5,0.0,0.0,300.0,763.0,0.0,1,307.0,1
1203,1203,-0.2647201239009407,-0.3,0.0,1.0,305.0,850.0,1.0,0,135.0,1
1204,1204,0.36377444688438787,0.4,1.0,1.0,332.0,662.0,1.0,1,836.0,1
1205,1205,0.8669394418274717,0.9,1.0,1.0,424.0,979.0,1.0,1,197.0,1
1206,1206,-0.8808777183267709,-0.9,0.0,1.0,274.0,862.0,1.0,0,44.0,1
1207,1207,0.22488940387787537,0.2,1.0,1.0,490.0,508.0,1.0,1,712.0,1
1208,1208,-0.0863247771064789,-0.1,1.0,0.0,407.0,727.0,0.0,0,1636.0,1
1209,1209,-0.35386177139747776,-0.4,0.0,1.0,386.0,545.0,1.0,0,119.0,1
1210,1210,-0.7900214881529403,-0.8,1.0,0.0,391.0,975.0,0.0,0,164.0,1
1211,1211,-0.5043024576686883,-0.5,0.0,1.0,487.0,509.0,1.0,0,164.0,1
1212,1212,0.031555241172814386,0.0,0.0,0.0,405.0,512.0,1.0,0,2083.0,0
1213,1213,-0.20222668534597543,-0.2,0.0,1.0,430.0,543.0,1.0,0,777.0,1
1214,1214,0.5925152325959883,0.6,0.0,0.0,314.0,514.0,0.0,1,342.0,1
1215,1215,-0.7013553973832494,-0.7,0.0,1.0,316.0,728.0,1.0,0,66.0,1
1216,1216,0.034925545379591916,0.0,1.0,1.0,259.0,933.0,0.0,0,1808.0,0
1217,1217,0.7551379528501111,0.8,0.0,0.0,255.0,544.0,0.0,1,171.0,1
1218,1218,-0.17611487644104162,-0.2,1.0,0.0,427.0,691.0,0.0,0,402.0,1
1219,1219,0.2877042218723679,0.3,1.0,1.0,433.0,904.0,1.0,1,503.0,1
1220,1220,-0.6956606334393091,-0.7,0.0,1.0,410.0,840.0,1.0,0,620.0,1
1221,1221,-0.32069980346924476,-0.3,1.0,0.0,369.0,978.0,0.0,0,213.0,1
1222,1222,0.5064601169939368,0.5,0.0,0.0,335.0,737.0,0.0,1,208.0,1
1223,1223,0.34296133889248737,0.3,1.0,1.0,459.0,800.0,1.0,1,341.0,1
1224,1224,0.5897072387898666,0.6,0.0,0.0,300.0,795.0,0.0,1,205.0,1
1225,1225,-0.6154584283803821,-0.6,0.0,1.0,368.0,609.0,1.0,0,233.0,1
1226,1226,0.7917225680252481,0.8,0.0,0.0,437.0,975.0,0.0,1,198.0,1
1227,1227,0.7128955265563427,0.7,0.0,0.0,300.0,534.0,0.0,1,176.0,1
1228,1228,0.046419980171656605,0.0,0.0,0.0,400.0,592.0,0.0,1,2008.0,1
1229,1229,0.3868203802090403,0.4,0.0,0.0,438.0,950.0,0.0,1,382.0,1
1230,1230,-0.7361620003846593,-0.7,1.0,0.0,263.0,883.0,0.0,0,104.0,1
1231,1231,0.6874297999902504,0.7,1.0,1.0,382.0,650.0,1.0,1,138.0,1
1232,1232,-0.5816450759462446,-0.6,0.0,1.0,363.0,628.0,1.0,0,179.0,1
1233,1233,0.2686986636539418,0.3,1.0,1.0,487.0,665.0,1.0,1,348.0,1
1234,1234,0.1550132203416975,0.2,0.0,0.0,435.0,737.0,0.0,1,1828.0,1
1235,1235,-0.48027592990815376,-0.5,1.0,0.0,412.0,527.0,0.0,0,171.0,1
1236,1236,0.33499647887373996,0.3,0.0,0.0,375.0,578.0,0.0,1,457.0,1
1237,1237,-0.1884215678827168,-0.2,0.0,1.0,262.0,950.0,1.0,0,258.0,1
1238,1238,-0.8539252360445853,-0.9,1.0,0.0,472.0,677.0,0.0,0,91.0,1
1239,1239,-0.7774407423597212,-0.8,0.0,1.0,332.0,907.0,1.0,0,171.0,1
1240,1240,0.21340400777726332,0.2,1.0,1.0,463.0,580.0,1.0,1,1087.0,1
1241,1241,-0.5216815943546699,-0.5,0.0,1.0,331.0,938.0,1.0,0,101.0,1
1242,1242,0.21476974208235433,0.2,0.0,0.0,363.0,976.0,0.0,1,851.0,1
1243,1243,0.39412397742486427,0.4,0.0,0.0,410.0,942.0,0.0,1,198.0,1
1244,1244,-0.3845575481860387,-0.4,1.0,0.0,482.0,938.0,0.0,0,200.0,1
1245,1245,0.6013444749708047,0.6,1.0,1.0,464.0,982.0,1.0,1,154.0,1
1246,1246,0.0077959677370230684,0.0,0.0,0.0,398.0,866.0,1.0,0,1736.0,0
1247,1247,0.7133097992017962,0.7,0.0,0.0,394.0,849.0,0.0,1,197.0,1
1248,1248,0.3118534287518021,0.3,1.0,1.0,332.0,782.0,1.0,1,316.0,1
1249,1249,-0.14287405739244718,-0.1,0.0,1.0,481.0,952.0,1.0,0,787.0,1
1250,1250,-0.3966521100195992,-0.4,0.0,1.0,435.0,735.0,1.0,0,150.0,1
1251,1251,-0.5415248777495407,-0.5,1.0,0.0,286.0,841.0,0.0,0,253.0,1
1252,1252,0.3032748105234454,0.3,0.0,0.0,475.0,556.0,0.0,1,499.0,1
1253,1253,-0.2647891596011154,-0.3,0.0,1.0,462.0,681.0,1.0,0,497.0,1
1254,1254,0.2802276694017519,0.3,0.0,0.0,285.0,707.0,0.0,1,278.0,1
1255,1255,0.3698868960284637,0.4,1.0,1.0,315.0,951.0,1.0,1,184.0,1
1256,1256,-0.22520698689083485,-0.2,0.0,1.0,384.0,549.0,1.0,0,607.0,1
1257,1257,0.8644276263676741,0.9,0.0,0.0,495.0,599.0,0.0,1,186.0,1
1258,1258,0.657655578999406,0.7,0.0,0.0,292.0,557.0,0.0,1,201.0,1
1259,1259,0.7010448034747366,0.7,1.0,1.0,450.0,829.0,1.0,1,151.0,1
1260,1260,-0.1204849912509125,-0.1,0.0,1.0,258.0,874.0,1.0,0,168.0,1
1261,1261,-0.7911218900305322,-0.8,1.0,0.0,431.0,907.0,0.0,0,332.0,1
1262,1262,0.17897639660010645,0.2,1.0,1.0,393.0,757.0,1.0,1,690.0,1
1263,1263,-0.735512340037837,-0.7,1.0,0.0,462.0,774.0,0.0,0,74.0,1
1264,1264,0.25416881807298897,0.3,1.0,1.0,342.0,543.0,1.0,1,265.0,1
1265,1265,-0.49465551721511153,-0.5,0.0,1.0,293.0,801.0,1.0,0,146.0,1
1266,1266,-0.39951222905069617,-0.4,0.0,1.0,342.0,524.0,1.0,0,384.0,1
1267,1267,0.4243369032366565,0.4,1.0,1.0,398.0,798.0,1.0,1,264.0,1
1268,1268,0.48491261646988326,0.5,1.0,1.0,420.0,674.0,1.0,1,226.0,1
1269,1269,0.6027854544745262,0.6,1.0,1.0,373.0,830.0,1.0,1,107.0,1
1270,1270,0.11716108000570202,0.1,0.0,0.0,257.0,688.0,0.0,1,2035.0,1
1271,1271,-0.29645959727646476,-0.3,1.0,0.0,488.0,691.0,0.0,0,301.0,1
1272,1272,0.19173561511528636,0.2,0.0,0.0,472.0,929.0,0.0,1,679.0,1
1273,1273,-0.7083709503918514,-0.7,0.0,1.0,415.0,676.0,1.0,0,119.0,1
1274,1274,0.5064212476098319,0.5,1.0,1.0,461.0,563.0,1.0,1,436.0,1
1275,1275,-0.3769724640161992,-0.4,0.0,1.0,291.0,711.0,1.0,0,348.0,1
1276,1276,-0.86128955785731,-0.9,0.0,1.0,458.0,676.0,1.0,0,236.0,1
1277,1277,-0.19323356028220373,-0.2,0.0,1.0,472.0,854.0,1.0,0,214.0,1
1278,1278,-0.4404060867937389,-0.4,0.0,1.0,433.0,981.0,1.0,0,236.0,1
1279,1279,0.1567340954212405,0.2,0.0,0.0,285.0,730.0,0.0,1,655.0,1
1280,1280,-0.8977466237266186,-0.9,1.0,0.0,498.0,787.0,0.0,0,135.0,1
1281,1281,0.4549612678611873,0.5,1.0,1.0,478.0,663.0,1.0,1,249.0,1
1282,1282,-0.4695745860527926,-0.5,0.0,1.0,486.0,510.0,1.0,0,334.0,1
1283,1283,0.049762399981809535,0.0,1.0,1.0,481.0,528.0,1.0,1,1991.0,1
1284,1284,0.8741643617422586,0.9,1.0,1.0,260.0,659.0,1.0,1,51.0,1
1285,1285,-0.1155112514098866,-0.1,0.0,1.0,440.0,825.0,1.0,0,245.0,1
1286,1286,-0.8778222111330185,-0.9,0.0,1.0,278.0,611.0,1.0,0,301.0,1
1287,1287,-0.09849923391125381,-0.1,1.0,0.0,343.0,979.0,1.0,1,1678.0,0
1288,1288,0.0033025314850704257,0.0,0.0,0.0,354.0,633.0,1.0,0,893.0,0
1289,1289,0.827561662581812,0.8,1.0,1.0,463.0,756.0,1.0,1,291.0,1
1290,1290,0.4393909163931601,0.4,0.0,0.0,467.0,870.0,0.0,1,203.0,1
1291,1291,0.039643319893094775,0.0,0.0,0.0,469.0,600.0,0.0,1,1931.0,1
1292,1292,0.5971077003779711,0.6,0.0,0.0,305.0,825.0,0.0,1,210.0,1
1293,1293,0.2589375992209665,0.3,1.0,1.0,458.0,707.0,1.0,1,715.0,1
1294,1294,0.18986005522225768,0.2,1.0,1.0,494.0,529.0,1.0,1,1557.0,1
1295,1295,-0.6894979731893518,-0.7,0.0,1.0,466.0,785.0,1.0,0,139.0,1
1296,1296,-0.1950399341529424,-0.2,1.0,0.0,458.0,944.0,0.0,0,358.0,1
1297,1297,-0.33891691138683167,-0.3,1.0,0.0,427.0,523.0,0.0,0,370.0,1
1298,1298,0.09618065156020683,0.1,1.0,1.0,454.0,713.0,1.0,1,1833.0,1
1299,1299,0.748968499962707,0.7,0.0,0.0,288.0,815.0,0.0,1,247.0,1
1300,1300,-0.8969748699254398,-0.9,0.0,1.0,342.0,707.0,1.0,0,551.0,1
1301,1301,-0.6361326770443867,-0.6,0.0,1.0,287.0,598.0,1.0,0,175.0,1
1302,1302,0.10106453650884994,0.1,1.0,1.0,300.0,520.0,1.0,1,2180.0,1
1303,1303,-0.6101592718466144,-0.6,0.0,1.0,319.0,923.0,1.0,0,78.0,1
1304,1304,0.43962372841040953,0.4,1.0,1.0,361.0,546.0,1.0,1,343.0,1
1305,1305,0.8026064449349676,0.8,1.0,1.0,343.0,853.0,1.0,1,74.0,1
1306,1306,0.8058460434034044,0.8,0.0,0.0,326.0,710.0,0.0,1,134.0,1
1307,1307,-0.5971843601458191,-0.6,1.0,0.0,271.0,952.0,0.0,0,147.0,1
1308,1308,-0.11564793506157078,-0.1,0.0,1.0,308.0,771.0,1.0,0,371.0,1
1309,1309,-0.8679968538587132,-0.9,0.0,1.0,344.0,772.0,1.0,0,214.0,1
1310,1310,-0.18347839699461055,-0.2,1.0,0.0,367.0,751.0,0.0,0,302.0,1
1311,1311,0.06255038067516205,0.1,0.0,0.0,429.0,677.0,1.0,0,1894.0,0
1312,1312,0.3559266917225118,0.4,1.0,1.0,333.0,697.0,1.0,1,230.0,1
1313,1313,0.4053020118453613,0.4,1.0,1.0,381.0,860.0,1.0,1,279.0,1
1314,1314,-0.5948039588430138,-0.6,0.0,1.0,274.0,703.0,1.0,0,263.0,1
1315,1315,0.7151671462198809,0.7,1.0,1.0,387.0,748.0,1.0,1,95.0,1
1316,1316,0.5745632582090677,0.6,0.0,0.0,314.0,733.0,0.0,1,193.0,1
1317,1317,0.44211484686198166,0.4,1.0,1.0,368.0,944.0,1.0,1,118.0,1
1318,1318,-0.6165035713562358,-0.6,0.0,1.0,312.0,907.0,1.0,0,171.0,1
1319,1319,0.8372121864073588,0.8,0.0,0.0,459.0,533.0,0.0,1,188.0,1
1320,1320,0.25642113854700976,0.3,1.0,1.0,443.0,718.0,1.0,1,129.0,1
1321,1321,0.6700401657905967,0.7,1.0,1.0,298.0,801.0,1.0,1,351.0,1
1322,1322,0.025080220251389562,0.0,1.0,1.0,458.0,843.0,1.0,1,1599.0,1
1323,1323,-0.017285038256937946,-0.0,0.0,1.0,462.0,570.0,1.0,0,128.0,1
1324,1324,0.6667953704145598,0.7,1.0,1.0,381.0,950.0,1.0,1,269.0,1
1325,1325,-0.27951017273962575,-0.3,1.0,0.0,497.0,536.0,0.0,0,1447.0,1
1326,1326,0.37588037949636444,0.4,0.0,0.0,473.0,888.0,0.0,1,259.0,1
1327,1327,0.03795566505904946,0.0,1.0,1.0,474.0,686.0,1.0,1,1840.0,1
1328,1328,-0.6235270903366257,-0.6,0.0,1.0,411.0,976.0,1.0,0,123.0,1
1329,1329,0.027653235066902426,0.0,1.0,1.0,258.0,510.0,0.0,0,2232.0,0
1330,1330,0.42622808759970854,0.4,0.0,0.0,402.0,700.0,0.0,1,408.0,1
1331,1331,-0.6758900520613691,-0.7,0.0,1.0,309.0,993.0,1.0,0,148.0,1
1332,1332,-0.18956683004692432,-0.2,1.0,0.0,445.0,697.0,0.0,0,448.0,1
1333,1333,0.18512776083659233,0.2,1.0,1.0,342.0,742.0,1.0,1,596.0,1
1334,1334,0.7006000750349289,0.7,0.0,0.0,335.0,504.0,0.0,1,131.0,1
1335,1335,0.8318784823734763,0.8,0.0,0.0,263.0,524.0,0.0,1,273.0,1
1336,1336,0.410625855234669,0.4,1.0,1.0,373.0,589.0,1.0,1,478.0,1
1337,1337,-0.18016252469079141,-0.2,0.0,1.0,263.0,849.0,1.0,0,1408.0,1
1338,1338,0.3418150562560013,0.3,1.0,1.0,349.0,886.0,1.0,1,435.0,1
1339,1339,0.8094840111076563,0.8,0.0,0.0,364.0,872.0,0.0,1,104.0,1
1340,1340,-0.5709106822427681,-0.6,0.0,1.0,388.0,929.0,1.0,0,163.0,1
1341,1341,0.26216559441773735,0.3,1.0,1.0,457.0,710.0,1.0,1,963.0,1
1342,1342,0.8964938192075395,0.9,0.0,0.0,300.0,587.0,0.0,1,123.0,1
1343,1343,0.15473825476284786,0.2,0.0,0.0,446.0,789.0,0.0,1,375.0,1
1344,1344,-0.8361966715422428,-0.8,1.0,0.0,472.0,954.0,0.0,0,104.0,1
1345,1345,-0.37316235451835367,-0.4,1.0,0.0,311.0,786.0,0.0,0,303.0,1
1346,1346,0.18345467893760115,0.2,0.0,0.0,309.0,957.0,0.0,1,994.0,1
1347,1347,0.4178890124437177,0.4,0.0,0.0,443.0,511.0,0.0,1,356.0,1
1348,1348,-0.014560534390340218,-0.0,0.0,1.0,402.0,680.0,1.0,0,798.0,1
1349,1349,-0.20110733583214568,-0.2,0.0,1.0,444.0,986.0,1.0,0,510.0,1
1350,1350,0.8527078844038446,0.9,0.0,0.0,390.0,917.0,0.0,1,163.0,1
1351,1351,0.5479571970219174,0.5,0.0,0.0,250.0,704.0,0.0,1,256.0,1
1352,1352,0.5753274097038475,0.6,1.0,1.0,487.0,673.0,1.0,1,220.0,1
1353,1353,0.4379370814661053,0.4,1.0,1.0,482.0,589.0,1.0,1,589.0,1
1354,1354,-0.26009584004799347,-0.3,1.0,0.0,486.0,791.0,0.0,0,333.0,1
1355,1355,0.0077286796850613015,0.0,1.0,1.0,497.0,697.0,1.0,1,1806.0,1
1356,1356,0.12139481268186769,0.1,0.0,0.0,407.0,511.0,0.0,1,2082.0,1
1357,1357,-0.685481867754013,-0.7,1.0,0.0,346.0,821.0,0.0,0,83.0,1
1358,1358,-0.40030970456191384,-0.4,0.0,1.0,333.0,635.0,1.0,0,332.0,1
1359,1359,-0.3373164827762092,-0.3,1.0,0.0,462.0,744.0,0.0,0,194.0,1
1360,1360,-0.3387506286158769,-0.3,1.0,0.0,268.0,676.0,0.0,0,346.0,1
1361,1361,0.6734611277318844,0.7,1.0,1.0,288.0,847.0,1.0,1,215.0,1
1362,1362,0.6833511868272714,0.7,0.0,0.0,281.0,919.0,0.0,1,110.0,1
1363,1363,0.6360157160934087,0.6,1.0,1.0,437.0,783.0,1.0,1,190.0,1
1364,1364,0.49986953369149767,0.5,1.0,1.0,289.0,844.0,1.0,1,227.0,1
1365,1365,0.22413306164883984,0.2,1.0,1.0,435.0,860.0,1.0,1,545.0,1
1366,1366,-0.15375106787843917,-0.2,1.0,0.0,387.0,914.0,0.0,0,459.0,1
1367,1367,-0.563554303239846,-0.6,1.0,0.0,444.0,771.0,0.0,0,185.0,1
1368,1368,0.2627234963626016,0.3,0.0,0.0,259.0,767.0,0.0,1,1554.0,1
1369,1369,0.13929171215397795,0.1,1.0,1.0,388.0,932.0,1.0,1,990.0,1
1370,1370,-0.07102791782102269,-0.1,0.0,1.0,290.0,889.0,1.0,0,391.0,1
1371,1371,-0.4773263175144693,-0.5,1.0,0.0,485.0,699.0,0.0,0,376.0,1
1372,1372,-0.19039594914048774,-0.2,1.0,0.0,447.0,744.0,0.0,0,1729.0,1
1373,1373,-0.22079685356445733,-0.2,0.0,1.0,320.0,503.0,1.0,0,267.0,1
1374,1374,-0.39878947739894566,-0.4,0.0,1.0,307.0,565.0,1.0,0,278.0,1
1375,1375,-0.008454770596728278,-0.0,0.0,1.0,470.0,678.0,1.0,0,812.0,1
1376,1376,0.2765569470168431,0.3,1.0,1.0,252.0,931.0,1.0,1,677.0,1
1377,1377,0.44767759645664096,0.4,0.0,0.0,391.0,682.0,0.0,1,187.0,1
1378,1378,0.8667208913154919,0.9,0.0,0.0,273.0,700.0,0.0,1,137.0,1
1379,1379,0.15223227955800012,0.2,1.0,1.0,255.0,985.0,1.0,1,1090.0,1
1380,1380,-0.051744707255926725,-0.1,1.0,0.0,494.0,677.0,0.0,0,1829.0,1
1381,1381,-0.8299818922161197,-0.8,0.0,1.0,458.0,867.0,1.0,0,125.0,1
1382,1382,-0.8468356636803049,-0.8,1.0,0.0,485.0,664.0,0.0,0,111.0,1
1383,1383,0.05202596193446696,0.1,0.0,0.0,450.0,856.0,1.0,0,1694.0,0
1384,1384,0.37563908579782657,0.4,1.0,1.0,335.0,807.0,1.0,1,368.0,1
1385,1385,-0.49877066465020664,-0.5,0.0,1.0,266.0,788.0,1.0,0,86.0,1
1386,1386,-0.7406807850147906,-0.7,0.0,1.0,421.0,507.0,1.0,0,462.0,1
1387,1387,-0.3771549524034299,-0.4,0.0,1.0,318.0,985.0,1.0,0,187.0,1
1388,1388,-0.7540701693468583,-0.8,0.0,1.0,405.0,666.0,1.0,0,159.0,1
1389,1389,-0.19376389593127097,-0.2,0.0,1.0,298.0,684.0,1.0,0,1728.0,1
1390,1390,-0.36941019387977725,-0.4,1.0,0.0,256.0,519.0,0.0,0,325.0,1
1391,1391,-0.4689889619184262,-0.5,0.0,1.0,267.0,833.0,1.0,0,360.0,1
1392,1392,-0.38890102599056287,-0.4,1.0,0.0,498.0,953.0,0.0,0,139.0,1
1393,1393,0.8592103817853597,0.9,0.0,0.0,461.0,527.0,0.0,1,122.0,1
1394,1394,-0.6571256655058468,-0.7,1.0,0.0,448.0,818.0,0.0,0,164.0,1
1395,1395,0.4393421404320935,0.4,1.0,1.0,326.0,989.0,1.0,1,605.0,1
1396,1396,0.25933675529620837,0.3,1.0,1.0,385.0,699.0,1.0,1,236.0,1
1397,1397,0.26752584158520365,0.3,0.0,0.0,327.0,873.0,0.0,1,760.0,1
1398,1398,0.66584336410024,0.7,0.0,0.0,330.0,683.0,0.0,1,197.0,1
1399,1399,-0.40846545026761566,-0.4,1.0,0.0,358.0,541.0,0.0,0,141.0,1
1400,1400,0.3834268072222994,0.4,0.0,0.0,328.0,757.0,0.0,1,265.0,1
1401,1401,-0.2747088788544907,-0.3,1.0,0.0,488.0,606.0,0.0,0,366.0,1
1402,1402,-0.6599449938008289,-0.7,0.0,1.0,477.0,924.0,1.0,0,179.0,1
1403,1403,0.045205212564914055,0.0,0.0,0.0,318.0,824.0,1.0,0,1858.0,0
1404,1404,-0.23065653281289233,-0.2,1.0,0.0,420.0,808.0,0.0,0,732.0,1
1405,1405,-0.40043736831125715,-0.4,1.0,0.0,448.0,899.0,0.0,0,543.0,1
1406,1406,0.25224854736095514,0.3,0.0,0.0,366.0,628.0,0.0,1,586.0,1
1407,1407,0.25642790185481334,0.3,1.0,1.0,478.0,904.0,1.0,1,328.0,1
1408,1408,0.7703075303440111,0.8,1.0,1.0,356.0,949.0,1.0,1,185.0,1
1409,1409,-0.16183210133143344,-0.2,1.0,0.0,466.0,661.0,0.0,0,723.0,1
1410,1410,0.7044337578691494,0.7,0.0,0.0,376.0,693.0,0.0,1,201.0,1
1411,1411,-0.6656955436745692,-0.7,1.0,0.0,338.0,678.0,0.0,0,234.0,1
1412,1412,-0.7495082226254506,-0.7,1.0,0.0,318.0,896.0,0.0,0,196.0,1
1413,1413,-0.8520933898831399,-0.9,1.0,0.0,489.0,834.0,0.0,0,117.0,1
1414,1414,-0.7932134671002278,-0.8,1.0,0.0,343.0,817.0,0.0,0,190.0,1
1415,1415,0.638224986457694,0.6,0.0,0.0,496.0,885.0,0.0,1,229.0,1
1416,1416,0.88956143246391,0.9,1.0,1.0,323.0,569.0,1.0,1,138.0,1
1417,1417,-0.489551127608104,-0.5,1.0,0.0,392.0,571.0,0.0,0,157.0,1
1418,1418,0.4386422179797508,0.4,0.0,0.0,457.0,637.0,0.0,1,296.0,1
1419,1419,0.8885246955296008,0.9,1.0,1.0,349.0,868.0,1.0,1,303.0,1
1420,1420,0.4367082050426362,0.4,0.0,0.0,297.0,772.0,0.0,1,291.0,1
1421,1421,0.1695625871222387,0.2,0.0,0.0,292.0,900.0,0.0,1,688.0,1
1422,1422,-0.3545442901659962,-0.4,0.0,1.0,487.0,615.0,1.0,0,138.0,1
1423,1423,0.34637896436194915,0.3,1.0,1.0,352.0,545.0,1.0,1,833.0,1
1424,1424,-0.633764808026454,-0.6,0.0,1.0,414.0,568.0,1.0,0,258.0,1
1425,1425,0.09438991636698879,0.1,0.0,0.0,300.0,714.0,1.0,0,1986.0,0
1426,1426,-0.7926340965102853,-0.8,0.0,1.0,380.0,660.0,1.0,0,140.0,1
1427,1427,0.3414058296424193,0.3,0.0,0.0,453.0,651.0,0.0,1,566.0,1
1428,1428,-0.6273510090217627,-0.6,1.0,0.0,427.0,776.0,0.0,0,437.0,1
1429,1429,-0.10659134497463751,-0.1,1.0,0.0,480.0,539.0,0.0,0,1981.0,1
1430,1430,-0.2117030171299613,-0.2,0.0,1.0,333.0,551.0,1.0,0,1596.0,1
1431,1431,0.5039588542109915,0.5,1.0,1.0,464.0,669.0,1.0,1,237.0,1
1432,1432,0.3356885195999407,0.3,1.0,1.0,287.0,695.0,1.0,1,318.0,1
1433,1433,0.27179504102199814,0.3,1.0,1.0,251.0,642.0,1.0,1,497.0,1
1434,1434,-0.8985134422369863,-0.9,0.0,1.0,347.0,641.0,1.0,0,22.0,1
1435,1435,-0.1867451809323033,-0.2,1.0,0.0,430.0,716.0,0.0,0,714.0,1
1436,1436,-0.25755726700593784,-0.3,0.0,1.0,317.0,952.0,1.0,0,261.0,1
1437,1437,-0.4667957890917089,-0.5,1.0,0.0,290.0,948.0,0.0,0,312.0,1
1438,1438,-0.15269380034734292,-0.2,1.0,0.0,364.0,862.0,0.0,0,424.0,1
1439,1439,-0.27860888212647117,-0.3,0.0,1.0,394.0,619.0,1.0,0,817.0,1
1440,1440,0.28329503263696265,0.3,0.0,0.0,300.0,805.0,0.0,1,445.0,1
1441,1441,0.5411435306574074,0.5,0.0,0.0,433.0,595.0,0.0,1,272.0,1
1442,1442,0.1767692345399171,0.2,0.0,0.0,466.0,693.0,0.0,1,1181.0,1
1443,1443,-0.8513506502590097,-0.9,0.0,1.0,431.0,902.0,1.0,0,47.0,1
1444,1444,-0.05780126233725247,-0.1,0.0,1.0,323.0,565.0,1.0,0,2112.0,1
1445,1445,-0.4252698903633437,-0.4,0.0,1.0,297.0,899.0,1.0,0,234.0,1
1446,1446,-0.8621995869553125,-0.9,1.0,0.0,324.0,979.0,0.0,0,157.0,1
1447,1447,0.29410829301267494,0.3,1.0,1.0,385.0,914.0,1.0,1,461.0,1
1448,1448,0.38054476854576647,0.4,0.0,0.0,486.0,740.0,0.0,1,424.0,1
1449,1449,-0.8685661238410883,-0.9,0.0,1.0,309.0,557.0,1.0,0,104.0,1
1450,1450,-0.4688092753567463,-0.5,1.0,0.0,295.0,613.0,0.0,0,292.0,1
1451,1451,0.8402355168909107,0.8,0.0,0.0,349.0,913.0,0.0,1,158.0,1
1452,1452,0.8365306343032052,0.8,0.0,0.0,488.0,937.0,0.0,1,235.0,1
1453,1453,-0.07253741428723026,-0.1,0.0,1.0,337.0,574.0,1.0,0,919.0,1
1454,1454,0.5642854182428799,0.6,0.0,0.0,471.0,984.0,0.0,1,195.0,1
1455,1455,-0.4082707124565254,-0.4,1.0,0.0,480.0,676.0,0.0,0,134.0,1
1456,1456,-0.5350999755765353,-0.5,0.0,1.0,448.0,882.0,1.0,0,60.0,1
1457,1457,-0.2863988171094628,-0.3,0.0,1.0,327.0,582.0,1.0,0,311.0,1
1458,1458,0.15299639203691762,0.2,1.0,1.0,410.0,811.0,1.0,1,1779.0,1
1459,1459,-0.5192974889519523,-0.5,0.0,1.0,450.0,577.0,1.0,0,213.0,1
1460,1460,0.5876618560531249,0.6,1.0,1.0,344.0,976.0,1.0,1,160.0,1
1461,1461,-0.37204402861872865,-0.4,1.0,0.0,277.0,744.0,0.0,0,229.0,1
1462,1462,0.80844764373858,0.8,0.0,0.0,363.0,978.0,0.0,1,339.0,1
1463,1463,-0.4969374529418208,-0.5,0.0,1.0,252.0,772.0,1.0,0,186.0,1
1464,1464,-0.7218019063274879,-0.7,1.0,0.0,405.0,851.0,0.0,0,124.0,1
1465,1465,0.01139831554965931,0.0,0.0,0.0,402.0,505.0,1.0,0,703.0,0
1466,1466,-0.3976985408322663,-0.4,0.0,1.0,472.0,842.0,1.0,0,126.0,1
1467,1467,0.24393208603947947,0.2,1.0,1.0,277.0,806.0,1.0,1,217.0,1
1468,1468,0.6091269499881907,0.6,1.0,1.0,484.0,641.0,1.0,1,555.0,1
1469,1469,-0.5422966679250085,-0.5,0.0,1.0,305.0,856.0,1.0,0,479.0,1
1470,1470,0.239808492910074,0.2,0.0,0.0,258.0,766.0,0.0,1,516.0,1
1471,1471,0.0924070135350431,0.1,1.0,1.0,419.0,896.0,1.0,1,1545.0,1
1472,1472,-0.3460776681334412,-0.3,0.0,1.0,262.0,684.0,1.0,0,214.0,1
1473,1473,0.0936742962155297,0.1,1.0,1.0,466.0,869.0,1.0,1,465.0,1
1474,1474,0.5220880275915224,0.5,0.0,0.0,258.0,877.0,0.0,1,215.0,1
1475,1475,0.28008389938107847,0.3,1.0,1.0,262.0,872.0,1.0,1,216.0,1
1476,1476,-0.6968440030519315,-0.7,1.0,0.0,256.0,969.0,0.0,0,25.0,1
1477,1477,-0.7337092043028616,-0.7,1.0,0.0,436.0,601.0,0.0,0,343.0,1
1478,1478,0.4157150333047771,0.4,1.0,1.0,306.0,840.0,1.0,1,514.0,1
1479,1479,0.3498705191545294,0.3,1.0,1.0,425.0,712.0,1.0,1,303.0,1
1480,1480,0.6998786364770672,0.7,0.0,0.0,484.0,789.0,0.0,1,187.0,1
1481,1481,-0.2197583680815255,-0.2,1.0,0.0,450.0,918.0,0.0,0,332.0,1
1482,1482,-0.16586712852720942,-0.2,1.0,0.0,267.0,609.0,0.0,0,504.0,1
1483,1483,-0.6102947401224834,-0.6,0.0,1.0,277.0,857.0,1.0,0,226.0,1
1484,1484,-0.7054184725882962,-0.7,0.0,1.0,426.0,874.0,1.0,0,120.0,1
1485,1485,-0.3551820533543023,-0.4,0.0,1.0,262.0,844.0,1.0,0,384.0,1
1486,1486,-0.5080075504447973,-0.5,0.0,1.0,497.0,946.0,1.0,0,237.0,1
1487,1487,-0.5625753602908632,-0.6,1.0,0.0,381.0,832.0,0.0,0,217.0,1
1488,1488,-0.18581243235646772,-0.2,1.0,0.0,498.0,572.0,0.0,0,850.0,1
1489,1489,-0.5299271237994734,-0.5,1.0,0.0,480.0,692.0,0.0,0,188.0,1
1490,1490,-0.43125289911450415,-0.4,0.0,1.0,457.0,615.0,1.0,0,268.0,1
