,trial,coherence,coherence_bin,green_side,correct_side,target_onset,checker_onset,decision,green_decision,decision_time,correct_decision
0,0,-0.7435802686055955,-0.7,0.0,1.0,397.0,614.0,0.0,1,-841.0,0
1,1,-0.18988944074613423,-0.2,0.0,1.0,471.0,817.0,0.0,1,3712.0,0
2,2,-0.15102401596809123,-0.2,0.0,1.0,443.0,781.0,0.0,1,3776.0,0
3,3,-0.46763214756974486,-0.5,0.0,1.0,400.0,826.0,1.0,0,-1186.0,1
4,4,0.7167715563111486,0.7,0.0,0.0,470.0,645.0,0.0,1,3885.0,1
5,5,0.5151797964503454,0.5,0.0,0.0,399.0,931.0,0.0,1,3670.0,1
6,6,0.07205683997305479,0.1,0.0,0.0,336.0,917.0,0.0,1,3747.0,1
7,7,-0.09727821773040146,-0.1,0.0,1.0,351.0,556.0,0.0,1,4093.0,0
8,8,-0.03800815937316948,-0.0,0.0,1.0,426.0,868.0,0.0,1,3706.0,0
9,9,-0.2435423185592489,-0.2,0.0,1.0,424.0,556.0,0.0,1,4020.0,0
10,10,0.776293790138085,0.8,1.0,1.0,458.0,995.0,1.0,1,-1423.0,1
11,11,-0.14490058968606578,-0.1,1.0,0.0,461.0,580.0,0.0,0,3959.0,1
12,12,0.6108361178767802,0.6,1.0,1.0,347.0,794.0,0.0,0,3859.0,0
13,13,0.8659576755234294,0.9,0.0,0.0,438.0,706.0,0.0,1,3856.0,1
14,14,-0.4498955008333419,-0.4,1.0,0.0,485.0,577.0,0.0,0,3938.0,1
15,15,-0.0223584287380445,-0.0,0.0,1.0,388.0,770.0,0.0,1,3842.0,0
16,16,0.6796902562846846,0.7,0.0,0.0,360.0,598.0,0.0,1,4042.0,1
17,17,-0.41167835467179387,-0.4,0.0,1.0,465.0,730.0,0.0,1,3805.0,0
18,18,-0.06572255228595092,-0.1,1.0,0.0,467.0,853.0,0.0,0,3680.0,1
19,19,-0.1190335092942616,-0.1,0.0,1.0,418.0,938.0,0.0,1,3644.0,0
20,20,-0.645055991605052,-0.6,0.0,1.0,270.0,873.0,0.0,1,3857.0,0
21,21,0.7808710391292805,0.8,0.0,0.0,457.0,540.0,0.0,1,-967.0,1
22,22,-0.4969851829621239,-0.5,1.0,0.0,431.0,515.0,0.0,0,4054.0,1
23,23,0.46111431432787586,0.5,1.0,1.0,414.0,555.0,0.0,0,4031.0,0
24,24,0.727353727925942,0.7,0.0,0.0,306.0,533.0,0.0,1,4161.0,1
25,25,-0.658733480114815,-0.7,0.0,1.0,276.0,756.0,0.0,1,3968.0,0
26,26,-0.1026712077154176,-0.1,0.0,1.0,340.0,754.0,0.0,1,3906.0,0
27,27,0.6983767549208814,0.7,0.0,0.0,457.0,722.0,1.0,0,-1119.0,0
28,28,0.2554795273128744,0.3,1.0,1.0,287.0,901.0,0.0,0,3812.0,0
29,29,0.4236296615581535,0.4,1.0,1.0,266.0,912.0,0.0,0,3822.0,0
30,30,-0.3385221206690414,-0.3,1.0,0.0,419.0,937.0,0.0,0,3644.0,1
31,31,-0.3646069960683421,-0.4,0.0,1.0,300.0,713.0,0.0,1,3987.0,0
32,32,0.35121672071477994,0.4,1.0,1.0,465.0,799.0,0.0,0,3736.0,0
33,33,-0.8704707673123543,-0.9,0.0,1.0,407.0,761.0,0.0,1,3832.0,0
34,34,0.19224507131076474,0.2,1.0,1.0,426.0,836.0,0.0,0,3738.0,0
35,35,-0.5488870257535421,-0.5,0.0,1.0,333.0,619.0,0.0,1,4048.0,0
36,36,-0.11000717516861125,-0.1,1.0,0.0,451.0,506.0,0.0,0,4043.0,1
37,37,0.0014391670338289586,0.0,0.0,0.0,446.0,598.0,0.0,1,3956.0,1
38,38,-0.7733081104517073,-0.8,0.0,1.0,424.0,611.0,0.0,1,3965.0,0
39,39,-0.8027569366180294,-0.8,0.0,1.0,435.0,923.0,0.0,1,3642.0,0
40,40,0.8159541375774298,0.8,0.0,0.0,344.0,739.0,0.0,1,3917.0,1
41,41,-0.06870581948356724,-0.1,0.0,1.0,250.0,915.0,0.0,1,3835.0,0
42,42,0.8395481659776546,0.8,1.0,1.0,371.0,548.0,0.0,0,4081.0,0
43,43,0.21289321177029585,0.2,1.0,1.0,389.0,575.0,0.0,0,4036.0,0
44,44,-0.12278966099291089,-0.1,0.0,1.0,309.0,975.0,0.0,1,3716.0,0
45,45,0.591933546162679,0.6,0.0,0.0,405.0,879.0,0.0,1,3716.0,1
46,46,0.0837447908286798,0.1,1.0,1.0,372.0,714.0,0.0,0,3914.0,0
47,47,0.21957476217621508,0.2,1.0,1.0,382.0,853.0,0.0,0,3765.0,0
48,48,0.047446493039322246,0.0,0.0,0.0,465.0,825.0,0.0,1,3710.0,1
49,49,-0.499589219596123,-0.5,0.0,1.0,322.0,939.0,0.0,1,3739.0,0
50,50,-0.07111337768228909,-0.1,0.0,1.0,404.0,784.0,0.0,1,3812.0,0
51,51,0.18197627067374145,0.2,0.0,0.0,324.0,567.0,0.0,1,4109.0,1
52,52,0.3128735468681253,0.3,1.0,1.0,391.0,606.0,0.0,0,4003.0,0
53,53,-0.22657941258647474,-0.2,0.0,1.0,479.0,779.0,0.0,1,-1188.0,0
54,54,0.3508596803883509,0.4,1.0,1.0,343.0,943.0,0.0,0,3714.0,0
55,55,0.6911039686063757,0.7,0.0,0.0,403.0,615.0,0.0,1,3982.0,1
56,56,-0.7714077126945589,-0.8,1.0,0.0,400.0,957.0,0.0,0,3643.0,1
57,57,-0.501441150071976,-0.5,1.0,0.0,455.0,763.0,0.0,0,3782.0,1
58,58,-0.3097115284507438,-0.3,1.0,0.0,366.0,846.0,0.0,0,3788.0,1
59,59,0.5011692794710393,0.5,1.0,1.0,312.0,565.0,0.0,0,-757.0,0
60,60,-0.15422184794715965,-0.2,1.0,0.0,457.0,896.0,0.0,0,3647.0,1
61,61,-0.6031177719031828,-0.6,0.0,1.0,327.0,541.0,0.0,1,4132.0,0
62,62,0.3701064791061709,0.4,0.0,0.0,436.0,994.0,0.0,1,3570.0,1
63,63,0.43616330197029096,0.4,1.0,1.0,279.0,870.0,0.0,0,3851.0,0
64,64,-0.2431957838753076,-0.2,0.0,1.0,326.0,646.0,0.0,1,4028.0,0
65,65,0.01746327075891141,0.0,1.0,1.0,469.0,644.0,0.0,0,3887.0,0
66,66,0.7597670928685766,0.8,1.0,1.0,316.0,730.0,1.0,1,-1036.0,1
67,67,-0.21402937577771264,-0.2,0.0,1.0,262.0,921.0,0.0,1,3817.0,0
68,68,0.19997197726868865,0.2,1.0,1.0,452.0,700.0,0.0,0,3848.0,0
69,69,-0.5150240252557104,-0.5,1.0,0.0,486.0,906.0,0.0,0,3608.0,1
70,70,-0.10522557690412992,-0.1,1.0,0.0,433.0,554.0,0.0,0,4013.0,1
71,71,-0.08053585166035526,-0.1,1.0,0.0,454.0,806.0,0.0,0,3740.0,1
72,72,-0.848163906445051,-0.8,0.0,1.0,298.0,558.0,0.0,1,4144.0,0
73,73,0.7722561456933482,0.8,1.0,1.0,250.0,695.0,0.0,0,4055.0,0
74,74,-0.16083905608092142,-0.2,1.0,0.0,496.0,689.0,0.0,0,3815.0,1
75,75,0.8202323264072037,0.8,0.0,0.0,383.0,899.0,0.0,1,3718.0,1
76,76,-0.6276021624379662,-0.6,0.0,1.0,441.0,721.0,0.0,1,3838.0,0
77,77,0.867683479150099,0.9,0.0,0.0,439.0,951.0,0.0,1,3610.0,1
78,78,0.4088622986666005,0.4,0.0,0.0,373.0,501.0,0.0,1,4126.0,1
79,79,-0.8941788555046759,-0.9,1.0,0.0,468.0,527.0,0.0,0,4005.0,1
80,80,-0.6584389734948074,-0.7,0.0,1.0,399.0,617.0,0.0,1,3984.0,0
81,81,0.5868322224333317,0.6,1.0,1.0,327.0,526.0,1.0,1,-813.0,1
82,82,-0.2753268741838445,-0.3,0.0,1.0,485.0,529.0,0.0,1,3986.0,0
83,83,-0.6328889016341337,-0.6,0.0,1.0,405.0,533.0,0.0,1,4062.0,0
84,84,0.817814281557767,0.8,0.0,0.0,448.0,992.0,1.0,0,-1430.0,0
85,85,-0.8252193952485061,-0.8,0.0,1.0,292.0,610.0,0.0,1,4098.0,0
86,86,-0.8455345908424928,-0.8,0.0,1.0,307.0,600.0,0.0,1,4093.0,0
87,87,-0.45856990919236357,-0.5,1.0,0.0,428.0,867.0,0.0,0,3705.0,1
88,88,-0.6393883429758435,-0.6,0.0,1.0,295.0,695.0,1.0,0,-960.0,1
89,89,0.7776375189351296,0.8,1.0,1.0,473.0,948.0,0.0,0,3579.0,0
90,90,-0.8806570661710956,-0.9,0.0,1.0,413.0,839.0,0.0,1,3748.0,0
91,91,0.29546298112626757,0.3,1.0,1.0,301.0,817.0,0.0,0,3882.0,0
92,92,-0.44906806354471257,-0.4,0.0,1.0,286.0,859.0,0.0,1,3855.0,0
93,93,-0.42285051483572045,-0.4,1.0,0.0,454.0,513.0,0.0,0,4033.0,1
94,94,0.5994264583985404,0.6,1.0,1.0,396.0,807.0,0.0,0,3797.0,0
95,95,-0.2170250882898943,-0.2,1.0,0.0,346.0,581.0,0.0,0,4073.0,1
96,96,0.28052617429083593,0.3,0.0,0.0,434.0,867.0,0.0,1,3699.0,1
97,97,0.3705701698058913,0.4,0.0,0.0,464.0,888.0,0.0,1,3648.0,1
98,98,0.2519075346003131,0.3,0.0,0.0,287.0,861.0,0.0,1,3852.0,1
99,99,-0.22620967397453473,-0.2,0.0,1.0,339.0,705.0,0.0,1,3956.0,0
100,100,0.4300182177012136,0.4,1.0,1.0,461.0,740.0,0.0,0,3799.0,0
101,101,0.7835501627824392,0.8,0.0,0.0,480.0,735.0,1.0,0,-1025.0,0
102,102,-0.8600594040646313,-0.9,0.0,1.0,478.0,771.0,0.0,1,3751.0,0
103,103,-0.6232550605090519,-0.6,0.0,1.0,400.0,604.0,0.0,1,3996.0,0
104,104,0.05396651297817201,0.1,1.0,1.0,369.0,916.0,0.0,0,3715.0,0
105,105,-0.29203499977564173,-0.3,1.0,0.0,348.0,655.0,1.0,1,-973.0,0
106,106,0.4198535391479953,0.4,1.0,1.0,452.0,902.0,0.0,0,3646.0,0
107,107,0.880919511702985,0.9,0.0,0.0,446.0,969.0,0.0,1,3585.0,1
108,108,0.21740831650070047,0.2,1.0,1.0,431.0,925.0,0.0,0,3644.0,0
109,109,-0.24209277733574008,-0.2,1.0,0.0,386.0,817.0,0.0,0,3797.0,1
110,110,0.11430199155435228,0.1,1.0,1.0,319.0,751.0,0.0,0,3930.0,0
111,111,0.6636671119776322,0.7,0.0,0.0,354.0,811.0,0.0,1,3835.0,1
112,112,0.793495455487882,0.8,0.0,0.0,420.0,817.0,0.0,1,3763.0,1
113,113,-0.47163551304839524,-0.5,0.0,1.0,400.0,723.0,0.0,1,3877.0,0
114,114,0.3554781445164882,0.4,0.0,0.0,473.0,943.0,0.0,1,3584.0,1
115,115,-0.4878593785943783,-0.5,0.0,1.0,394.0,531.0,0.0,1,4075.0,0
116,116,-0.5589830158901354,-0.6,1.0,0.0,250.0,656.0,0.0,0,4094.0,1
117,117,-0.18103794812781304,-0.2,0.0,1.0,449.0,509.0,1.0,0,-868.0,1
118,118,-0.23759260728839793,-0.2,1.0,0.0,286.0,638.0,0.0,0,4076.0,1
119,119,-0.7707368421319662,-0.8,1.0,0.0,404.0,810.0,0.0,0,-1184.0,1
120,120,-0.3720713590778767,-0.4,1.0,0.0,383.0,868.0,0.0,0,3749.0,1
121,121,0.748350262829255,0.7,0.0,0.0,275.0,825.0,0.0,1,3900.0,1
122,122,0.20759083643382448,0.2,0.0,0.0,426.0,684.0,0.0,1,3890.0,1
123,123,-0.7131317101908825,-0.7,1.0,0.0,355.0,580.0,0.0,0,4065.0,1
124,124,-0.48271828709328307,-0.5,1.0,0.0,325.0,616.0,0.0,0,4059.0,1
125,125,-0.4127571919487533,-0.4,1.0,0.0,255.0,533.0,0.0,0,4212.0,1
126,126,-0.8296534521702619,-0.8,0.0,1.0,269.0,985.0,0.0,1,-1214.0,0
127,127,-0.06939150911670156,-0.1,0.0,1.0,405.0,804.0,0.0,1,3791.0,0
128,128,-0.11649683069585226,-0.1,1.0,0.0,399.0,849.0,0.0,0,3752.0,1
129,129,0.0024216555414012797,0.0,1.0,1.0,352.0,729.0,0.0,0,3919.0,0
130,130,0.7479954354316182,0.7,0.0,0.0,422.0,852.0,0.0,1,3726.0,1
131,131,0.48615722425534325,0.5,1.0,1.0,340.0,533.0,0.0,0,4127.0,0
132,132,0.40661626769192327,0.4,0.0,0.0,348.0,742.0,0.0,1,3910.0,1
133,133,0.13737938608383338,0.1,1.0,1.0,430.0,756.0,0.0,0,3814.0,0
134,134,-0.394035002851422,-0.4,1.0,0.0,298.0,786.0,0.0,0,3916.0,1
135,135,-0.5187865060383045,-0.5,0.0,1.0,388.0,701.0,0.0,1,3911.0,0
136,136,0.1296454980501961,0.1,1.0,1.0,338.0,829.0,0.0,0,3833.0,0
137,137,0.49393132016682106,0.5,1.0,1.0,309.0,560.0,0.0,0,4131.0,0
138,138,0.25534924032802386,0.3,1.0,1.0,336.0,550.0,0.0,0,-816.0,0
139,139,-0.5452698293578941,-0.5,0.0,1.0,345.0,801.0,0.0,1,-1096.0,0
140,140,0.7352656140578037,0.7,1.0,1.0,407.0,821.0,1.0,1,-1188.0,1
141,141,0.08528370359831572,0.1,0.0,0.0,336.0,690.0,0.0,1,3974.0,1
142,142,-0.5510628924320815,-0.6,0.0,1.0,456.0,577.0,0.0,1,3967.0,0
143,143,-0.017855742308369282,-0.0,1.0,0.0,349.0,925.0,0.0,0,3726.0,1
144,144,-0.8837717065237484,-0.9,0.0,1.0,485.0,716.0,1.0,0,-1111.0,1
145,145,-0.7001552801773283,-0.7,0.0,1.0,492.0,578.0,0.0,1,-1030.0,0
146,146,-0.3853086313656976,-0.4,0.0,1.0,254.0,562.0,0.0,1,-816.0,0
147,147,0.002106098418243385,0.0,0.0,0.0,379.0,847.0,0.0,1,3774.0,1
148,148,-0.11424845105223858,-0.1,0.0,1.0,416.0,940.0,0.0,1,3644.0,0
149,149,-0.13901773193603006,-0.1,1.0,0.0,481.0,910.0,0.0,0,3609.0,1
150,150,0.21419467937470993,0.2,0.0,0.0,493.0,566.0,0.0,1,3941.0,1
151,151,0.794842866865059,0.8,1.0,1.0,256.0,967.0,0.0,0,3777.0,0
152,152,0.495677039292295,0.5,1.0,1.0,327.0,904.0,0.0,0,3769.0,0
153,153,-0.009853436347080913,-0.0,0.0,1.0,459.0,916.0,0.0,1,3625.0,0
154,154,0.8329202122880265,0.8,0.0,0.0,267.0,977.0,0.0,1,3756.0,1
155,155,-0.14908150369776996,-0.1,1.0,0.0,404.0,979.0,0.0,0,3617.0,1
156,156,-0.6352588651268026,-0.6,0.0,1.0,433.0,703.0,0.0,1,3864.0,0
157,157,-0.4352275776357474,-0.4,1.0,0.0,315.0,754.0,0.0,0,3931.0,1
158,158,-0.7711823186040724,-0.8,0.0,1.0,460.0,751.0,0.0,1,3789.0,0
159,159,0.7087325904095468,0.7,1.0,1.0,293.0,875.0,0.0,0,3832.0,0
160,160,0.762126895334572,0.8,1.0,1.0,422.0,772.0,0.0,0,3806.0,0
161,161,0.6963825527418791,0.7,1.0,1.0,371.0,527.0,0.0,0,4102.0,0
162,162,0.5621066616168536,0.6,0.0,0.0,272.0,584.0,0.0,1,4144.0,1
163,163,0.7935628439947949,0.8,0.0,0.0,252.0,815.0,0.0,1,3933.0,1
164,164,0.8403661748202468,0.8,1.0,1.0,261.0,796.0,0.0,0,3943.0,0
165,165,0.45933363443821074,0.5,1.0,1.0,434.0,760.0,1.0,1,-854.0,1
166,166,-0.6422782395277427,-0.6,0.0,1.0,329.0,754.0,0.0,1,3917.0,0
167,167,-0.7273310420215564,-0.7,1.0,0.0,320.0,666.0,0.0,0,4014.0,1
168,168,-0.7163527829720725,-0.7,0.0,1.0,407.0,513.0,0.0,1,-800.0,0
169,169,0.0634859429898954,0.1,0.0,0.0,287.0,643.0,0.0,1,4070.0,1
170,170,0.01579421274186843,0.0,0.0,0.0,490.0,946.0,0.0,1,3564.0,1
171,171,-0.4684852018617148,-0.5,0.0,1.0,279.0,705.0,0.0,1,4016.0,0
172,172,0.01810241871820395,0.0,1.0,1.0,294.0,761.0,0.0,0,3945.0,0
173,173,-0.3876236599135071,-0.4,1.0,0.0,370.0,994.0,0.0,0,3636.0,1
174,174,-0.7032978894133144,-0.7,1.0,0.0,370.0,738.0,0.0,0,3892.0,1
175,175,0.2284603902023986,0.2,1.0,1.0,265.0,669.0,0.0,0,4066.0,0
176,176,0.726118836476957,0.7,0.0,0.0,353.0,737.0,0.0,1,3910.0,1
177,177,0.7968101135636255,0.8,0.0,0.0,448.0,849.0,0.0,1,3703.0,1
178,178,-0.8654595079094782,-0.9,1.0,0.0,258.0,883.0,0.0,0,3859.0,1
179,179,0.5325528809422825,0.5,0.0,0.0,468.0,942.0,1.0,0,-1280.0,0
180,180,-0.6843422410087019,-0.7,1.0,0.0,470.0,844.0,0.0,0,3686.0,1
181,181,-0.6775445143016735,-0.7,0.0,1.0,488.0,635.0,0.0,1,3877.0,0
182,182,-0.3780834088455892,-0.4,1.0,0.0,338.0,660.0,0.0,0,4002.0,1
183,183,-0.42729192604790667,-0.4,0.0,1.0,410.0,901.0,0.0,1,3689.0,0
184,184,-0.03515115220926324,-0.0,0.0,1.0,332.0,808.0,0.0,1,3860.0,0
185,185,-0.10636316073089858,-0.1,0.0,1.0,313.0,783.0,0.0,1,3904.0,0
186,186,-0.3992377168773381,-0.4,1.0,0.0,471.0,611.0,0.0,0,3918.0,1
187,187,-0.5338824949265453,-0.5,1.0,0.0,294.0,607.0,0.0,0,4099.0,1
188,188,-0.38500904877183184,-0.4,1.0,0.0,426.0,513.0,0.0,0,4061.0,1
189,189,0.47992203311238313,0.5,1.0,1.0,471.0,906.0,0.0,0,3623.0,0
190,190,-0.7046007935293561,-0.7,0.0,1.0,325.0,556.0,0.0,1,4119.0,0
191,191,-0.6197047302575249,-0.6,1.0,0.0,464.0,684.0,0.0,0,3852.0,1
192,192,-0.6828835588451613,-0.7,1.0,0.0,258.0,776.0,0.0,0,3966.0,1
193,193,-0.07045430223584292,-0.1,0.0,1.0,332.0,564.0,0.0,1,4104.0,0
194,194,0.8074310972067861,0.8,1.0,1.0,469.0,831.0,1.0,1,-1210.0,1
195,195,0.01858695517355813,0.0,1.0,1.0,251.0,693.0,0.0,0,4056.0,0
196,196,0.6089964537197833,0.6,0.0,0.0,275.0,581.0,0.0,1,4144.0,1
197,197,0.34187952659279797,0.3,1.0,1.0,416.0,618.0,0.0,0,3966.0,0
198,198,-0.059612629018936825,-0.1,0.0,1.0,384.0,750.0,0.0,1,3866.0,0
199,199,-0.6136307801738541,-0.6,1.0,0.0,483.0,545.0,0.0,0,3972.0,1
200,200,-0.0690220370577368,-0.1,1.0,0.0,479.0,853.0,0.0,0,3668.0,1
201,201,-0.10738272910654156,-0.1,1.0,0.0,444.0,995.0,0.0,0,3561.0,1
202,202,0.5180175625506956,0.5,1.0,1.0,366.0,849.0,0.0,0,3785.0,0
203,203,0.29756137307236574,0.3,1.0,1.0,305.0,992.0,0.0,0,3703.0,0
204,204,-0.6981542721623493,-0.7,1.0,0.0,475.0,635.0,0.0,0,3890.0,1
205,205,0.45576639694136867,0.5,0.0,0.0,486.0,790.0,0.0,1,3724.0,1
206,206,-0.6399169277684145,-0.6,1.0,0.0,295.0,702.0,0.0,0,4003.0,1
207,207,-0.88664267550868,-0.9,0.0,1.0,308.0,783.0,0.0,1,3909.0,0
208,208,0.661204397818922,0.7,0.0,0.0,360.0,782.0,0.0,1,3858.0,1
209,209,0.4347550234450873,0.4,1.0,1.0,359.0,509.0,0.0,0,4132.0,0
210,210,0.5545844628405573,0.6,0.0,0.0,277.0,645.0,0.0,1,4078.0,1
211,211,0.00558638894239849,0.0,0.0,0.0,399.0,535.0,0.0,1,4066.0,1
212,212,0.05923908584193316,0.1,0.0,0.0,335.0,806.0,0.0,1,3859.0,1
213,213,-0.29005923380069154,-0.3,1.0,0.0,270.0,753.0,0.0,0,3977.0,1
214,214,-0.7895771933614962,-0.8,1.0,0.0,318.0,940.0,0.0,0,3742.0,1
215,215,-0.8319421989374384,-0.8,0.0,1.0,359.0,943.0,0.0,1,3698.0,0
216,216,0.6747100304725807,0.7,1.0,1.0,277.0,620.0,0.0,0,4103.0,0
217,217,-0.34881813957901275,-0.3,1.0,0.0,456.0,588.0,0.0,0,3956.0,1
218,218,0.2929161691620713,0.3,1.0,1.0,430.0,544.0,0.0,0,-944.0,0
219,219,-0.5696238105420856,-0.6,1.0,0.0,276.0,889.0,0.0,0,3835.0,1
220,220,0.8070341052943938,0.8,1.0,1.0,370.0,837.0,0.0,0,3793.0,0
221,221,0.8721321886919841,0.9,0.0,0.0,305.0,553.0,0.0,1,4142.0,1
222,222,-0.28674307645760666,-0.3,0.0,1.0,298.0,552.0,0.0,1,4150.0,0
223,223,0.5049554419212229,0.5,1.0,1.0,406.0,764.0,0.0,0,3830.0,0
224,224,0.0713266034631449,0.1,1.0,1.0,425.0,893.0,0.0,0,3682.0,0
225,225,-0.054122513474519796,-0.1,0.0,1.0,294.0,626.0,0.0,1,4080.0,0
226,226,-0.6064918770186787,-0.6,0.0,1.0,289.0,916.0,0.0,1,3795.0,0
227,227,-0.11111159751474053,-0.1,0.0,1.0,263.0,872.0,0.0,1,3865.0,0
228,228,-0.42090945521625955,-0.4,1.0,0.0,433.0,765.0,0.0,0,3802.0,1
229,229,0.5986883905368677,0.6,0.0,0.0,367.0,801.0,0.0,1,3832.0,1
230,230,0.419426986091893,0.4,1.0,1.0,308.0,707.0,0.0,0,3985.0,0
231,231,0.8102712723155506,0.8,1.0,1.0,402.0,889.0,0.0,0,3709.0,0
232,232,-0.8744105680256622,-0.9,1.0,0.0,416.0,723.0,0.0,0,3861.0,1
233,233,-0.07114608581862225,-0.1,1.0,0.0,490.0,852.0,0.0,0,3658.0,1
234,234,-0.16702395621404964,-0.2,0.0,1.0,435.0,894.0,0.0,1,3671.0,0
235,235,0.5564862240854506,0.6,0.0,0.0,497.0,563.0,0.0,1,3940.0,1
236,236,0.2387234391902674,0.2,1.0,1.0,380.0,883.0,0.0,0,3737.0,0
237,237,0.6377055955189831,0.6,0.0,0.0,293.0,697.0,0.0,1,4010.0,1
238,238,-0.30971800100861024,-0.3,0.0,1.0,436.0,894.0,0.0,1,3670.0,0
239,239,0.13652804498231108,0.1,0.0,0.0,465.0,912.0,0.0,1,3623.0,1
240,240,-0.7706698351948436,-0.8,0.0,1.0,273.0,674.0,0.0,1,4053.0,0
241,241,0.6885397958231231,0.7,0.0,0.0,486.0,678.0,0.0,1,3836.0,1
242,242,0.17087784134812123,0.2,1.0,1.0,424.0,613.0,0.0,0,3963.0,0
243,243,0.12110444067875858,0.1,0.0,0.0,258.0,634.0,0.0,1,4108.0,1
244,244,0.8078479641225774,0.8,1.0,1.0,285.0,681.0,0.0,0,4034.0,0
245,245,0.3552186780772747,0.4,1.0,1.0,295.0,535.0,0.0,0,4170.0,0
246,246,-0.4223557873243361,-0.4,0.0,1.0,402.0,549.0,0.0,1,4049.0,0
247,247,-0.3561131193261444,-0.4,0.0,1.0,446.0,827.0,0.0,1,3727.0,0
248,248,0.7307200221768771,0.7,1.0,1.0,435.0,865.0,0.0,0,3700.0,0
249,249,-0.5752380981682221,-0.6,0.0,1.0,429.0,571.0,0.0,1,4000.0,0
250,250,-0.05690741438365954,-0.1,1.0,0.0,445.0,931.0,0.0,0,3624.0,1
251,251,-0.5230932882434384,-0.5,1.0,0.0,401.0,595.0,0.0,0,4004.0,1
252,252,-0.3854035861536864,-0.4,1.0,0.0,256.0,582.0,0.0,0,4162.0,1
253,253,0.047203792193579064,0.0,0.0,0.0,321.0,769.0,0.0,1,3910.0,1
254,254,0.2883626484715708,0.3,1.0,1.0,478.0,502.0,0.0,0,4020.0,0
255,255,0.45054677054858716,0.5,0.0,0.0,426.0,506.0,0.0,1,4068.0,1
256,256,-0.5153427290381021,-0.5,0.0,1.0,431.0,691.0,0.0,1,3878.0,0
257,257,0.6271559135433294,0.6,0.0,0.0,476.0,949.0,0.0,1,3575.0,1
258,258,-0.19294674419141178,-0.2,1.0,0.0,369.0,780.0,0.0,0,3851.0,1
259,259,-0.32210397482121256,-0.3,0.0,1.0,361.0,893.0,0.0,1,3746.0,0
260,260,-0.16904930156396636,-0.2,1.0,0.0,295.0,578.0,0.0,0,4127.0,1
261,261,-0.07177944959256977,-0.1,0.0,1.0,465.0,783.0,0.0,1,3752.0,0
262,262,-0.6988214940845211,-0.7,0.0,1.0,400.0,554.0,0.0,1,4046.0,0
263,263,0.2842327921702542,0.3,1.0,1.0,391.0,503.0,0.0,0,4106.0,0
264,264,-0.3706603399975851,-0.4,1.0,0.0,357.0,517.0,0.0,0,4126.0,1
265,265,0.8910467425168594,0.9,0.0,0.0,302.0,823.0,0.0,1,-1055.0,1
266,266,-0.3022305344498405,-0.3,1.0,0.0,497.0,888.0,0.0,0,3615.0,1
267,267,0.8823884495956226,0.9,0.0,0.0,479.0,716.0,0.0,1,3805.0,1
268,268,-0.13799979089834857,-0.1,1.0,0.0,270.0,755.0,0.0,0,3975.0,1
269,269,0.7763482232295486,0.8,0.0,0.0,435.0,544.0,0.0,1,4021.0,1
270,270,0.8124396040051381,0.8,0.0,0.0,497.0,875.0,0.0,1,3628.0,1
271,271,-0.40578338817170606,-0.4,1.0,0.0,387.0,867.0,0.0,0,3746.0,1
272,272,0.5210091404049658,0.5,1.0,1.0,400.0,522.0,0.0,0,4078.0,0
273,273,-0.05738639563271242,-0.1,1.0,0.0,252.0,992.0,0.0,0,3756.0,1
274,274,0.8501962976336553,0.9,1.0,1.0,422.0,799.0,0.0,0,3779.0,0
275,275,0.45660425930417514,0.5,1.0,1.0,269.0,936.0,0.0,0,3795.0,0
276,276,-0.28575238425690097,-0.3,1.0,0.0,290.0,643.0,0.0,0,4067.0,1
277,277,-0.6084562041849775,-0.6,1.0,0.0,496.0,676.0,0.0,0,3828.0,1
278,278,0.851891336936257,0.9,0.0,0.0,374.0,737.0,0.0,1,3889.0,1
279,279,-0.8575816396891391,-0.9,1.0,0.0,392.0,824.0,0.0,0,3784.0,1
280,280,-0.5849729432442705,-0.6,1.0,0.0,386.0,731.0,0.0,0,3883.0,1
281,281,-0.6685512382939234,-0.7,1.0,0.0,372.0,720.0,0.0,0,3908.0,1
282,282,-0.19626536984598086,-0.2,1.0,0.0,421.0,790.0,0.0,0,3789.0,1
283,283,0.6950564901307718,0.7,0.0,0.0,282.0,942.0,0.0,1,-1154.0,1
284,284,-0.4517484584662666,-0.5,1.0,0.0,389.0,796.0,0.0,0,3815.0,1
285,285,-0.7523868894965846,-0.8,0.0,1.0,303.0,835.0,0.0,1,3862.0,0
286,286,0.07922827115799214,0.1,0.0,0.0,417.0,842.0,0.0,1,3741.0,1
287,287,0.8088357609164393,0.8,1.0,1.0,486.0,678.0,0.0,0,-1024.0,0
288,288,0.6014159373542319,0.6,0.0,0.0,479.0,644.0,0.0,1,3877.0,1
289,289,0.10250757216817374,0.1,0.0,0.0,414.0,752.0,0.0,1,-1146.0,1
290,290,0.5469314945540146,0.5,0.0,0.0,496.0,596.0,0.0,1,3908.0,1
291,291,0.3578327754601981,0.4,0.0,0.0,463.0,518.0,0.0,1,4019.0,1
292,292,-0.5006550375959069,-0.5,1.0,0.0,420.0,958.0,1.0,1,-1358.0,0
293,293,-0.10287507847325639,-0.1,1.0,0.0,278.0,518.0,0.0,0,4204.0,1
294,294,0.30343368145968663,0.3,1.0,1.0,496.0,529.0,0.0,0,3975.0,0
295,295,0.8718695995713007,0.9,0.0,0.0,306.0,601.0,0.0,1,-867.0,1
296,296,-0.3913716029729668,-0.4,1.0,0.0,409.0,807.0,0.0,0,3784.0,1
297,297,0.743109519640427,0.7,0.0,0.0,324.0,917.0,0.0,1,3759.0,1
298,298,0.5133014392008356,0.5,0.0,0.0,279.0,718.0,0.0,1,4003.0,1
299,299,0.26004733970994376,0.3,1.0,1.0,406.0,837.0,0.0,0,3757.0,0
300,300,0.16358543456946661,0.2,0.0,0.0,437.0,878.0,0.0,1,3685.0,1
301,301,0.8930061346992834,0.9,1.0,1.0,266.0,501.0,1.0,1,-737.0,1
302,302,-0.6343296092731439,-0.6,1.0,0.0,290.0,929.0,0.0,0,3781.0,1
303,303,-0.20470544243174282,-0.2,1.0,0.0,281.0,942.0,0.0,0,3777.0,1
304,304,-0.5054410518707113,-0.5,0.0,1.0,485.0,886.0,1.0,0,-1321.0,1
305,305,0.466535944176765,0.5,0.0,0.0,267.0,577.0,0.0,1,4156.0,1
306,306,-0.2523903901776865,-0.3,0.0,1.0,446.0,611.0,0.0,1,3943.0,0
307,307,-0.6037716822598367,-0.6,0.0,1.0,299.0,547.0,0.0,1,4154.0,0
308,308,-0.8655458237172601,-0.9,1.0,0.0,499.0,707.0,0.0,0,3794.0,1
309,309,-0.3785631107811811,-0.4,0.0,1.0,383.0,738.0,0.0,1,-1091.0,0
310,310,-0.804675528073104,-0.8,0.0,1.0,259.0,951.0,0.0,1,3790.0,0
311,311,0.8082947930799874,0.8,0.0,0.0,303.0,692.0,0.0,1,4005.0,1
312,312,0.39359051938149425,0.4,1.0,1.0,300.0,955.0,0.0,0,3745.0,0
313,313,0.39480942914407324,0.4,1.0,1.0,431.0,748.0,1.0,1,-1179.0,1
314,314,-0.10108989970238402,-0.1,0.0,1.0,426.0,828.0,0.0,1,3746.0,0
315,315,-0.5978541045137775,-0.6,1.0,0.0,490.0,932.0,0.0,0,3578.0,1
316,316,-0.4803655946907004,-0.5,1.0,0.0,488.0,740.0,0.0,0,3772.0,1
317,317,-0.401325441876805,-0.4,1.0,0.0,373.0,757.0,0.0,0,3870.0,1
318,318,-0.011043021839956868,-0.0,0.0,1.0,341.0,518.0,0.0,1,4141.0,0
319,319,-0.8333948955401411,-0.8,1.0,0.0,326.0,543.0,0.0,0,4131.0,1
320,320,0.5434957499668948,0.5,1.0,1.0,382.0,870.0,1.0,1,-1132.0,1
321,321,-0.4530364480137196,-0.5,1.0,0.0,451.0,984.0,0.0,0,3565.0,1
322,322,-0.6243336750287265,-0.6,1.0,0.0,427.0,854.0,0.0,0,3719.0,1
323,323,0.05745212846802472,0.1,1.0,1.0,381.0,819.0,0.0,0,-1100.0,0
324,324,0.7086782355867866,0.7,1.0,1.0,485.0,533.0,0.0,0,3982.0,0
325,325,0.3597205555623887,0.4,1.0,1.0,426.0,854.0,0.0,0,3720.0,0
326,326,0.6597629789495253,0.7,1.0,1.0,400.0,560.0,0.0,0,4040.0,0
327,327,0.8209279191494175,0.8,0.0,0.0,365.0,902.0,0.0,1,3733.0,1
328,328,0.7908168100389171,0.8,1.0,1.0,355.0,806.0,0.0,0,3839.0,0
329,329,-0.664254853187995,-0.7,1.0,0.0,390.0,806.0,0.0,0,3804.0,1
330,330,0.6407329661178557,0.6,0.0,0.0,332.0,809.0,0.0,1,3859.0,1
331,331,-0.18480430835460426,-0.2,0.0,1.0,379.0,563.0,0.0,1,4058.0,0
332,332,-0.0420706069938358,-0.0,1.0,0.0,282.0,902.0,0.0,0,3816.0,1
333,333,-0.683834974418827,-0.7,1.0,0.0,391.0,754.0,0.0,0,3855.0,1
334,334,-0.035213422569154496,-0.0,0.0,1.0,292.0,757.0,0.0,1,3951.0,0
335,335,-0.6491976336905171,-0.6,1.0,0.0,466.0,744.0,1.0,1,-1140.0,0
336,336,0.14793099158905643,0.1,1.0,1.0,365.0,599.0,0.0,0,4036.0,0
337,337,-0.43756643558429414,-0.4,0.0,1.0,461.0,980.0,0.0,1,3559.0,0
338,338,0.3356806722812752,0.3,0.0,0.0,467.0,929.0,0.0,1,3604.0,1
339,339,0.14878277228506398,0.1,0.0,0.0,266.0,608.0,0.0,1,4126.0,1
340,340,-0.7158941686605946,-0.7,1.0,0.0,384.0,912.0,0.0,0,3704.0,1
341,341,-0.40485236229445465,-0.4,1.0,0.0,386.0,507.0,0.0,0,4107.0,1
342,342,-0.5797044384598866,-0.6,1.0,0.0,343.0,600.0,1.0,1,-793.0,0
343,343,-0.3709481705025588,-0.4,0.0,1.0,452.0,985.0,0.0,1,3563.0,0
344,344,-0.15554277275129835,-0.2,0.0,1.0,316.0,774.0,0.0,1,3910.0,0
345,345,-0.7360931550255637,-0.7,1.0,0.0,454.0,722.0,0.0,0,3824.0,1
346,346,-0.2872303354234228,-0.3,0.0,1.0,296.0,612.0,0.0,1,4092.0,0
347,347,-0.7026413837687768,-0.7,1.0,0.0,346.0,743.0,0.0,0,3911.0,1
348,348,0.8353522312921638,0.8,1.0,1.0,443.0,999.0,0.0,0,-1322.0,0
349,349,-0.008666642341366493,-0.0,1.0,0.0,362.0,964.0,0.0,0,3674.0,1
350,350,0.4199852651407062,0.4,1.0,1.0,447.0,513.0,0.0,0,4040.0,0
351,351,0.009364099393311398,0.0,1.0,1.0,259.0,906.0,0.0,0,3835.0,0
352,352,-0.8064217728618353,-0.8,0.0,1.0,435.0,547.0,0.0,1,4018.0,0
353,353,0.8013485376804464,0.8,1.0,1.0,256.0,834.0,0.0,0,3910.0,0
354,354,0.25450856047389736,0.3,0.0,0.0,490.0,908.0,0.0,1,3602.0,1
355,355,0.86081625856882,0.9,1.0,1.0,427.0,894.0,0.0,0,3679.0,0
356,356,-0.6170548146077237,-0.6,0.0,1.0,331.0,970.0,0.0,1,3699.0,0
357,357,-0.5592223043776667,-0.6,0.0,1.0,455.0,984.0,0.0,1,3561.0,0
358,358,0.23517209486013602,0.2,0.0,0.0,479.0,644.0,0.0,1,3877.0,1
359,359,-0.3557145263170469,-0.4,0.0,1.0,494.0,630.0,0.0,1,3876.0,0
360,360,-0.6547891794575427,-0.7,0.0,1.0,335.0,543.0,0.0,1,4122.0,0
361,361,-0.4370878226437357,-0.4,0.0,1.0,491.0,529.0,0.0,1,3980.0,0
362,362,-0.538846480583401,-0.5,0.0,1.0,376.0,748.0,0.0,1,3876.0,0
363,363,-0.037327902735080576,-0.0,1.0,0.0,456.0,538.0,0.0,0,4006.0,1
364,364,0.13275500130617368,0.1,0.0,0.0,383.0,511.0,0.0,1,4106.0,1
365,365,-0.8487418134445887,-0.8,0.0,1.0,490.0,839.0,1.0,0,-1309.0,1
366,366,-0.5918900094512314,-0.6,1.0,0.0,438.0,678.0,0.0,0,3884.0,1
367,367,-0.8545534862072707,-0.9,1.0,0.0,484.0,993.0,0.0,0,3523.0,1
368,368,0.5813624798874003,0.6,0.0,0.0,441.0,900.0,0.0,1,3659.0,1
369,369,-0.011710049396601807,-0.0,0.0,1.0,307.0,835.0,0.0,1,3858.0,0
370,370,-0.8929180794884563,-0.9,0.0,1.0,477.0,762.0,0.0,1,3761.0,0
371,371,0.13216376155835985,0.1,1.0,1.0,258.0,839.0,1.0,1,-987.0,1
372,372,0.8680970597910943,0.9,1.0,1.0,416.0,802.0,0.0,0,3782.0,0
373,373,0.8419704489297607,0.8,1.0,1.0,460.0,634.0,0.0,0,3906.0,0
374,374,0.7951004302476598,0.8,0.0,0.0,382.0,922.0,0.0,1,3696.0,1
375,375,-0.6579426371179662,-0.7,1.0,0.0,443.0,785.0,0.0,0,-1218.0,1
376,376,-0.293273998370872,-0.3,1.0,0.0,425.0,561.0,0.0,0,4014.0,1
377,377,-0.07189315431620102,-0.1,0.0,1.0,408.0,979.0,0.0,1,3613.0,0
378,378,-0.6620838206368705,-0.7,1.0,0.0,363.0,634.0,0.0,0,4003.0,1
379,379,-0.10315650353500583,-0.1,1.0,0.0,416.0,855.0,0.0,0,3729.0,1
380,380,0.14539183410472123,0.1,0.0,0.0,316.0,888.0,0.0,1,3796.0,1
381,381,0.3849036562999556,0.4,1.0,1.0,495.0,878.0,0.0,0,3627.0,0
382,382,0.4015861882542854,0.4,0.0,0.0,331.0,983.0,0.0,1,3686.0,1
383,383,0.44567063553141983,0.4,1.0,1.0,257.0,546.0,0.0,0,4197.0,0
384,384,-0.3751179407022259,-0.4,1.0,0.0,461.0,976.0,1.0,1,-1357.0,0
385,385,0.8506094616892982,0.9,0.0,0.0,333.0,524.0,0.0,1,4143.0,1
386,386,-0.37278687492092466,-0.4,0.0,1.0,402.0,959.0,0.0,1,3639.0,0
387,387,0.5763003648380941,0.6,1.0,1.0,443.0,632.0,0.0,0,3925.0,0
388,388,-0.3552019902535418,-0.4,1.0,0.0,420.0,809.0,0.0,0,3771.0,1
389,389,-0.7595483613532786,-0.8,1.0,0.0,394.0,502.0,0.0,0,-876.0,1
390,390,0.36893477150773213,0.4,0.0,0.0,370.0,707.0,0.0,1,-1057.0,1
391,391,0.8802259127612898,0.9,1.0,1.0,376.0,673.0,0.0,0,3951.0,0
392,392,0.5463369113271687,0.5,1.0,1.0,391.0,572.0,0.0,0,-783.0,0
393,393,0.565516756148288,0.6,0.0,0.0,332.0,561.0,0.0,1,4107.0,1
394,394,-0.5217206178948726,-0.5,0.0,1.0,367.0,663.0,0.0,1,3970.0,0
395,395,-0.4768202577066235,-0.5,0.0,1.0,400.0,682.0,0.0,1,3918.0,0
396,396,0.5325571580390559,0.5,1.0,1.0,290.0,801.0,0.0,0,3909.0,0
397,397,-0.4792220772718797,-0.5,1.0,0.0,499.0,759.0,0.0,0,3742.0,1
398,398,-0.056765573920961154,-0.1,0.0,1.0,386.0,684.0,0.0,1,3930.0,0
399,399,-0.016832262660749553,-0.0,1.0,0.0,373.0,671.0,0.0,0,3956.0,1
400,400,0.6437548112834418,0.6,0.0,0.0,368.0,763.0,0.0,1,3869.0,1
401,401,0.6931963111215195,0.7,0.0,0.0,472.0,594.0,0.0,1,3934.0,1
402,402,-0.4048193908140665,-0.4,0.0,1.0,321.0,831.0,0.0,1,3848.0,0
403,403,0.11851936654055473,0.1,0.0,0.0,262.0,945.0,0.0,1,3793.0,1
404,404,-0.5513981519096891,-0.6,0.0,1.0,281.0,663.0,0.0,1,4056.0,0
405,405,-0.6482236838623148,-0.6,0.0,1.0,413.0,848.0,0.0,1,3739.0,0
406,406,-0.5261682373698846,-0.5,1.0,0.0,457.0,840.0,0.0,0,3703.0,1
407,407,-0.2745780462689479,-0.3,0.0,1.0,285.0,906.0,0.0,1,3809.0,0
408,408,0.47440316631731283,0.5,1.0,1.0,413.0,687.0,0.0,0,-1020.0,0
409,409,0.42288142763031555,0.4,0.0,0.0,480.0,797.0,0.0,1,3723.0,1
410,410,0.1987666182819624,0.2,1.0,1.0,399.0,966.0,0.0,0,3635.0,0
411,411,-0.42237215518520094,-0.4,0.0,1.0,414.0,557.0,0.0,1,4029.0,0
412,412,-0.7275332968008535,-0.7,1.0,0.0,444.0,916.0,0.0,0,3640.0,1
413,413,0.6503872984153573,0.7,0.0,0.0,323.0,621.0,0.0,1,4056.0,1
414,414,0.4000762606624316,0.4,0.0,0.0,307.0,804.0,0.0,1,3889.0,1
415,415,-0.00889537446032862,-0.0,0.0,1.0,469.0,980.0,0.0,1,3551.0,0
416,416,0.36402224556521035,0.4,1.0,1.0,270.0,959.0,0.0,0,3771.0,0
417,417,-0.54621268409598,-0.5,1.0,0.0,305.0,729.0,0.0,0,3966.0,1
418,418,0.06748944213851948,0.1,1.0,1.0,326.0,512.0,0.0,0,4162.0,0
419,419,0.4703916357519792,0.5,1.0,1.0,328.0,685.0,0.0,0,3987.0,0
420,420,-0.009575208384581146,-0.0,0.0,1.0,311.0,945.0,0.0,1,3744.0,0
421,421,-0.5498665056925518,-0.5,0.0,1.0,431.0,787.0,0.0,1,3782.0,0
422,422,-0.3344078534092664,-0.3,1.0,0.0,300.0,912.0,0.0,0,3788.0,1
423,423,0.6806219800839733,0.7,1.0,1.0,377.0,720.0,0.0,0,3903.0,0
424,424,-0.1687140069253339,-0.2,1.0,0.0,288.0,969.0,0.0,0,3743.0,1
425,425,-0.26634934734117455,-0.3,0.0,1.0,385.0,648.0,0.0,1,3967.0,0
426,426,0.4835217237415258,0.5,1.0,1.0,494.0,560.0,0.0,0,3946.0,0
427,427,-0.5370547258009732,-0.5,1.0,0.0,344.0,864.0,0.0,0,3792.0,1
428,428,0.7646269028572096,0.8,0.0,0.0,452.0,617.0,0.0,1,3931.0,1
429,429,0.6104763356055588,0.6,1.0,1.0,296.0,785.0,0.0,0,3919.0,0
430,430,-0.019454123204046492,-0.0,0.0,1.0,313.0,630.0,0.0,1,4057.0,0
431,431,-0.5555871709579085,-0.6,0.0,1.0,259.0,533.0,0.0,1,4208.0,0
432,432,0.7624544911879606,0.8,0.0,0.0,333.0,986.0,0.0,1,3681.0,1
433,433,-0.4231793655931907,-0.4,0.0,1.0,496.0,783.0,0.0,1,3721.0,0
434,434,0.4388677137648608,0.4,0.0,0.0,348.0,578.0,0.0,1,-866.0,1
435,435,-0.12352266062960804,-0.1,1.0,0.0,446.0,732.0,0.0,0,3822.0,1
436,436,0.8959629788029174,0.9,1.0,1.0,356.0,564.0,0.0,0,4080.0,0
437,437,0.4357408371799475,0.4,1.0,1.0,353.0,599.0,0.0,0,4048.0,0
438,438,-0.028615572860157146,-0.0,0.0,1.0,453.0,838.0,0.0,1,3709.0,0
439,439,0.5507758985608969,0.6,1.0,1.0,304.0,879.0,0.0,0,3817.0,0
440,440,-0.6864643775200482,-0.7,0.0,1.0,421.0,893.0,0.0,1,3686.0,0
441,441,-0.15295152709890458,-0.2,0.0,1.0,377.0,627.0,1.0,0,-964.0,1
442,442,0.015302769630400892,0.0,0.0,0.0,392.0,697.0,0.0,1,-989.0,1
443,443,-0.26195954577006664,-0.3,0.0,1.0,285.0,846.0,0.0,1,3869.0,0
444,444,0.7884699917533745,0.8,1.0,1.0,496.0,635.0,0.0,0,3869.0,0
445,445,-0.8354898856986497,-0.8,1.0,0.0,479.0,711.0,0.0,0,3810.0,1
446,446,0.21637555322117963,0.2,0.0,0.0,291.0,957.0,0.0,1,3752.0,1
447,447,0.020703954992543183,0.0,1.0,1.0,303.0,976.0,0.0,0,3721.0,0
448,448,-0.7764139895487593,-0.8,1.0,0.0,334.0,864.0,0.0,0,3802.0,1
449,449,-0.825869860319494,-0.8,1.0,0.0,263.0,576.0,0.0,0,4161.0,1
450,450,-0.30358938676548586,-0.3,1.0,0.0,358.0,817.0,0.0,0,3825.0,1
451,451,-0.3368833625517138,-0.3,0.0,1.0,398.0,859.0,0.0,1,3743.0,0
452,452,0.5147209619305609,0.5,1.0,1.0,432.0,897.0,0.0,0,3671.0,0
453,453,0.7187824070433811,0.7,0.0,0.0,259.0,910.0,0.0,1,3831.0,1
454,454,-0.5069908870024625,-0.5,1.0,0.0,434.0,663.0,0.0,0,3903.0,1
455,455,-0.7784239630703234,-0.8,0.0,1.0,358.0,709.0,0.0,1,3933.0,0
456,456,-0.15106974700614106,-0.2,1.0,0.0,282.0,963.0,0.0,0,3755.0,1
457,457,0.09421176978181256,0.1,0.0,0.0,252.0,592.0,0.0,1,4156.0,1
458,458,0.8249683320120876,0.8,1.0,1.0,421.0,888.0,0.0,0,3691.0,0
459,459,-0.3148381628505049,-0.3,1.0,0.0,258.0,597.0,1.0,1,-685.0,0
460,460,0.3965995177505429,0.4,1.0,1.0,286.0,945.0,0.0,0,3769.0,0
461,461,-0.38822219010430925,-0.4,1.0,0.0,374.0,545.0,0.0,0,4081.0,1
462,462,-0.21420659364057315,-0.2,0.0,1.0,365.0,914.0,0.0,1,3721.0,0
463,463,0.01589153026307366,0.0,0.0,0.0,401.0,845.0,0.0,1,3754.0,1
464,464,0.5792180372841981,0.6,0.0,0.0,312.0,853.0,0.0,1,3835.0,1
465,465,0.3925163092485432,0.4,1.0,1.0,425.0,568.0,0.0,0,4007.0,0
466,466,-0.781139364154162,-0.8,1.0,0.0,324.0,534.0,0.0,0,4142.0,1
467,467,0.31675962224311516,0.3,0.0,0.0,317.0,927.0,0.0,1,-1164.0,1
468,468,-0.8129877939101827,-0.8,0.0,1.0,303.0,681.0,0.0,1,4016.0,0
469,469,-0.6573930609992422,-0.7,1.0,0.0,456.0,588.0,0.0,0,3956.0,1
470,470,-0.8672589149670404,-0.9,0.0,1.0,271.0,953.0,1.0,0,-1114.0,1
471,471,0.010648618034728607,0.0,0.0,0.0,312.0,982.0,0.0,1,3706.0,1
472,472,-0.6636756994748906,-0.7,0.0,1.0,436.0,787.0,0.0,1,3777.0,0
473,473,-0.3343481558246353,-0.3,0.0,1.0,406.0,736.0,0.0,1,3858.0,0
474,474,0.029673174473672237,0.0,0.0,0.0,411.0,926.0,0.0,1,3663.0,1
475,475,0.43273402618305556,0.4,0.0,0.0,292.0,633.0,0.0,1,4075.0,1
476,476,0.21005335637131217,0.2,0.0,0.0,333.0,669.0,0.0,1,3998.0,1
477,477,0.7683315884029004,0.8,1.0,1.0,350.0,784.0,0.0,0,3866.0,0
478,478,0.0348180385481881,0.0,0.0,0.0,264.0,706.0,0.0,1,4030.0,1
479,479,0.2647433375238487,0.3,0.0,0.0,398.0,750.0,0.0,1,3852.0,1
480,480,-0.253506598791125,-0.3,1.0,0.0,485.0,977.0,0.0,0,3538.0,1
481,481,-0.8987757004173879,-0.9,0.0,1.0,357.0,542.0,0.0,1,4101.0,0
482,482,0.8854629545823439,0.9,0.0,0.0,346.0,625.0,0.0,1,4029.0,1
483,483,0.8538128795996577,0.9,0.0,0.0,391.0,910.0,0.0,1,3699.0,1
484,484,0.8824173895680357,0.9,0.0,0.0,330.0,527.0,0.0,1,4143.0,1
485,485,0.14201887236978383,0.1,0.0,0.0,368.0,792.0,0.0,1,3840.0,1
486,486,-0.6072914587361022,-0.6,1.0,0.0,380.0,593.0,0.0,0,4027.0,1
487,487,0.15563498197859815,0.2,0.0,0.0,391.0,748.0,0.0,1,3861.0,1
488,488,0.18295718551862616,0.2,1.0,1.0,456.0,855.0,0.0,0,3689.0,0
489,489,0.08291028698627612,0.1,0.0,0.0,413.0,679.0,0.0,1,3908.0,1
490,490,-0.7431514982116499,-0.7,0.0,1.0,477.0,848.0,0.0,1,3675.0,0
491,491,-0.5884540732187217,-0.6,1.0,0.0,485.0,891.0,0.0,0,-1326.0,1
492,492,-0.13140940788811462,-0.1,0.0,1.0,491.0,576.0,0.0,1,3933.0,0
493,493,0.06738052527233984,0.1,1.0,1.0,492.0,643.0,0.0,0,3865.0,0
494,494,-0.01337209690208141,-0.0,0.0,1.0,399.0,613.0,0.0,1,3988.0,0
495,495,-0.05334532238866507,-0.1,1.0,0.0,477.0,589.0,0.0,0,3934.0,1
496,496,0.33442034493570316,0.3,0.0,0.0,425.0,510.0,0.0,1,4065.0,1
497,497,-0.03243233401412515,-0.0,0.0,1.0,339.0,675.0,0.0,1,3986.0,0
498,498,-0.7983959901182774,-0.8,1.0,0.0,459.0,997.0,0.0,0,3544.0,1
499,499,-0.016941199850737387,-0.0,1.0,0.0,327.0,839.0,0.0,0,3834.0,1
500,500,0.3509475568746451,0.4,0.0,0.0,482.0,712.0,0.0,1,3806.0,1
501,501,0.8478137424027384,0.8,1.0,1.0,484.0,601.0,0.0,0,-985.0,0
502,502,-0.35610626940109,-0.4,1.0,0.0,375.0,836.0,0.0,0,3789.0,1
503,503,0.07236444303297873,0.1,1.0,1.0,451.0,543.0,0.0,0,4006.0,0
504,504,-0.6151067091167772,-0.6,0.0,1.0,281.0,900.0,0.0,1,3819.0,0
505,505,-0.27938848763846436,-0.3,0.0,1.0,261.0,668.0,0.0,1,4071.0,0
506,506,0.8382726835237125,0.8,1.0,1.0,366.0,701.0,0.0,0,3933.0,0
507,507,0.6945297182249189,0.7,0.0,0.0,333.0,885.0,0.0,1,3782.0,1
508,508,0.3066596268350371,0.3,1.0,1.0,268.0,709.0,0.0,0,4023.0,0
509,509,0.8410784593368389,0.8,1.0,1.0,392.0,580.0,1.0,1,-802.0,1
510,510,-0.7283318172520131,-0.7,1.0,0.0,260.0,849.0,0.0,0,3891.0,1
511,511,0.5470219183249175,0.5,0.0,0.0,314.0,733.0,0.0,1,3953.0,1
512,512,-0.6784107024749652,-0.7,1.0,0.0,299.0,530.0,0.0,0,4171.0,1
513,513,0.653811048789665,0.7,1.0,1.0,311.0,648.0,0.0,0,4041.0,0
514,514,-0.8516173062024426,-0.9,1.0,0.0,334.0,946.0,0.0,0,3720.0,1
515,515,0.8505614474350455,0.9,0.0,0.0,384.0,931.0,0.0,1,3685.0,1
516,516,-0.5219103461744468,-0.5,1.0,0.0,318.0,869.0,0.0,0,3813.0,1
517,517,-0.8222594200035732,-0.8,1.0,0.0,397.0,597.0,0.0,0,4006.0,1
518,518,-0.548021080608095,-0.5,0.0,1.0,455.0,516.0,0.0,1,4029.0,0
519,519,0.3641007092560985,0.4,0.0,0.0,318.0,850.0,0.0,1,3832.0,1
520,520,-0.7822844349287802,-0.8,0.0,1.0,313.0,629.0,0.0,1,4058.0,0
521,521,-0.05781279700554365,-0.1,1.0,0.0,290.0,833.0,0.0,0,3877.0,1
522,522,0.4954647888137248,0.5,1.0,1.0,422.0,509.0,0.0,0,4069.0,0
523,523,-0.32541396261627187,-0.3,0.0,1.0,378.0,790.0,0.0,1,3832.0,0
524,524,0.30430842149539095,0.3,0.0,0.0,406.0,839.0,0.0,1,3755.0,1
525,525,0.4163266325717764,0.4,1.0,1.0,335.0,971.0,0.0,0,3694.0,0
526,526,0.8922074168931765,0.9,1.0,1.0,354.0,776.0,0.0,0,-1110.0,0
527,527,0.4089847272310917,0.4,0.0,0.0,429.0,834.0,0.0,1,3737.0,1
528,528,0.5407768349378764,0.5,1.0,1.0,441.0,571.0,0.0,0,3988.0,0
529,529,-0.7217401517040498,-0.7,1.0,0.0,333.0,669.0,0.0,0,3998.0,1
530,530,0.08722361008463753,0.1,1.0,1.0,380.0,773.0,0.0,0,3847.0,0
531,531,-0.3529939663897572,-0.4,0.0,1.0,418.0,892.0,0.0,1,3690.0,0
532,532,0.1185368328904145,0.1,1.0,1.0,428.0,663.0,0.0,0,3909.0,0
533,533,-0.1564299449811507,-0.2,0.0,1.0,413.0,669.0,0.0,1,3918.0,0
534,534,0.5798595344350842,0.6,0.0,0.0,264.0,558.0,0.0,1,4178.0,1
535,535,0.1469281616631456,0.1,1.0,1.0,419.0,617.0,0.0,0,3964.0,0
536,536,-0.12711594099524337,-0.1,1.0,0.0,409.0,808.0,0.0,0,-1137.0,1
537,537,0.30360155288968815,0.3,0.0,0.0,432.0,713.0,0.0,1,3855.0,1
538,538,0.42267881092990456,0.4,1.0,1.0,418.0,814.0,0.0,0,-1222.0,0
539,539,0.07973340354411051,0.1,1.0,1.0,480.0,868.0,0.0,0,3652.0,0
540,540,0.3307406035228414,0.3,0.0,0.0,344.0,524.0,0.0,1,-688.0,1
541,541,-0.20127266787032727,-0.2,1.0,0.0,263.0,826.0,0.0,0,3911.0,1
542,542,-0.38801522994961657,-0.4,1.0,0.0,345.0,856.0,0.0,0,3799.0,1
543,543,0.7424805611077318,0.7,0.0,0.0,299.0,896.0,0.0,1,3805.0,1
544,544,-0.062251809604215835,-0.1,0.0,1.0,386.0,735.0,0.0,1,-1101.0,0
545,545,0.15979281615876595,0.2,1.0,1.0,318.0,727.0,0.0,0,3955.0,0
546,546,-0.3024251391865681,-0.3,1.0,0.0,415.0,849.0,0.0,0,3736.0,1
547,547,0.24237328439735684,0.2,1.0,1.0,265.0,529.0,0.0,0,4206.0,0
548,548,-0.5083127893616517,-0.5,1.0,0.0,316.0,875.0,0.0,0,3809.0,1
549,549,-0.3897671266162104,-0.4,0.0,1.0,393.0,659.0,0.0,1,3948.0,0
550,550,0.8530810598920818,0.9,0.0,0.0,258.0,667.0,0.0,1,4075.0,1
551,551,0.04047122290554617,0.0,0.0,0.0,429.0,815.0,0.0,1,3756.0,1
552,552,0.3224086088450483,0.3,0.0,0.0,436.0,914.0,0.0,1,3650.0,1
553,553,0.7615902659851904,0.8,1.0,1.0,321.0,724.0,0.0,0,3955.0,0
554,554,-0.541948961708719,-0.5,1.0,0.0,425.0,856.0,0.0,0,3719.0,1
555,555,-0.10113726486153285,-0.1,1.0,0.0,282.0,873.0,0.0,0,3845.0,1
556,556,-0.3258876812682636,-0.3,0.0,1.0,386.0,720.0,0.0,1,3894.0,0
557,557,0.4860611521352646,0.5,1.0,1.0,487.0,658.0,0.0,0,3855.0,0
558,558,-0.17423748125716254,-0.2,0.0,1.0,361.0,532.0,0.0,1,4107.0,0
559,559,-0.43424344450596275,-0.4,1.0,0.0,308.0,634.0,0.0,0,4058.0,1
560,560,0.4832921797272166,0.5,1.0,1.0,378.0,722.0,0.0,0,3900.0,0
561,561,-0.637263253857326,-0.6,0.0,1.0,299.0,763.0,0.0,1,3938.0,0
562,562,0.504153032806863,0.5,1.0,1.0,431.0,902.0,0.0,0,3667.0,0
563,563,0.3344728267590368,0.3,1.0,1.0,289.0,806.0,0.0,0,3905.0,0
564,564,-0.14980429551879482,-0.1,1.0,0.0,316.0,840.0,0.0,0,3844.0,1
565,565,-0.008622042504140559,-0.0,1.0,0.0,335.0,512.0,0.0,0,4153.0,1
566,566,-0.23104088049634808,-0.2,1.0,0.0,387.0,715.0,1.0,1,-1042.0,0
567,567,-0.4127988261113552,-0.4,0.0,1.0,467.0,988.0,0.0,1,3545.0,0
568,568,-0.5070457676395037,-0.5,0.0,1.0,288.0,784.0,0.0,1,-1032.0,0
569,569,0.3734966060229644,0.4,0.0,0.0,456.0,664.0,0.0,1,3880.0,1
570,570,-0.3258218851347593,-0.3,1.0,0.0,335.0,622.0,0.0,0,4043.0,1
571,571,-0.6326907877435016,-0.6,0.0,1.0,307.0,521.0,0.0,1,4172.0,0
572,572,0.6278699333151988,0.6,1.0,1.0,348.0,589.0,0.0,0,4063.0,0
573,573,-0.2062569740436826,-0.2,0.0,1.0,456.0,785.0,0.0,1,3759.0,0
574,574,0.1310386642047746,0.1,0.0,0.0,471.0,662.0,0.0,1,3867.0,1
575,575,-0.7799988784822474,-0.8,0.0,1.0,361.0,574.0,0.0,1,4065.0,0
576,576,-0.5438004093325922,-0.5,1.0,0.0,304.0,515.0,0.0,0,4181.0,1
577,577,0.07271710707000278,0.1,0.0,0.0,398.0,721.0,0.0,1,3881.0,1
578,578,0.42533600736488275,0.4,1.0,1.0,281.0,564.0,0.0,0,4155.0,0
579,579,-0.7520741875797853,-0.8,0.0,1.0,355.0,572.0,0.0,1,4073.0,0
580,580,-0.477342562103534,-0.5,0.0,1.0,307.0,592.0,0.0,1,4101.0,0
581,581,0.6541456099156343,0.7,0.0,0.0,359.0,580.0,0.0,1,-879.0,1
582,582,0.17377655579576368,0.2,0.0,0.0,493.0,737.0,0.0,1,3770.0,1
583,583,0.565985495025849,0.6,0.0,0.0,351.0,671.0,0.0,1,3978.0,1
584,584,-0.3051443956813813,-0.3,0.0,1.0,417.0,990.0,0.0,1,3593.0,0
585,585,-0.8947124734555569,-0.9,1.0,0.0,379.0,549.0,0.0,0,4072.0,1
586,586,-0.37855438548057285,-0.4,1.0,0.0,356.0,514.0,0.0,0,4130.0,1
587,587,0.2835729903793808,0.3,0.0,0.0,460.0,608.0,0.0,1,3932.0,1
588,588,-0.6771915013283766,-0.7,0.0,1.0,268.0,991.0,0.0,1,3741.0,0
589,589,0.4203331734292278,0.4,1.0,1.0,283.0,858.0,0.0,0,-1051.0,0
590,590,-0.4042109419283289,-0.4,1.0,0.0,361.0,947.0,0.0,0,3692.0,1
591,591,-0.24862892090476452,-0.2,0.0,1.0,366.0,855.0,0.0,1,3779.0,0
592,592,-0.6276998868843415,-0.6,0.0,1.0,366.0,932.0,1.0,0,-1288.0,1
593,593,0.8783454231566225,0.9,1.0,1.0,353.0,683.0,0.0,0,3964.0,0
594,594,0.07414706952217531,0.1,1.0,1.0,325.0,529.0,0.0,0,4146.0,0
595,595,0.017296769852659044,0.0,0.0,0.0,329.0,856.0,0.0,1,3815.0,1
596,596,0.8329890650834452,0.8,0.0,0.0,282.0,769.0,0.0,1,3949.0,1
597,597,0.7624975877618018,0.8,0.0,0.0,491.0,786.0,0.0,1,3723.0,1
598,598,-0.2906342953780725,-0.3,1.0,0.0,358.0,896.0,0.0,0,3746.0,1
599,599,0.7172843528155689,0.7,1.0,1.0,375.0,934.0,0.0,0,3691.0,0
600,600,0.4334405097477513,0.4,1.0,1.0,354.0,654.0,0.0,0,3992.0,0
601,601,0.33958379249312987,0.3,1.0,1.0,412.0,512.0,0.0,0,-844.0,0
602,602,-0.2448480008549654,-0.2,1.0,0.0,279.0,832.0,0.0,0,3889.0,1
603,603,-0.1337440972395011,-0.1,0.0,1.0,419.0,864.0,0.0,1,3717.0,0
604,604,-0.12245978856933948,-0.1,0.0,1.0,458.0,643.0,0.0,1,3899.0,0
605,605,0.8862525313999844,0.9,1.0,1.0,384.0,534.0,0.0,0,4082.0,0
606,606,0.2933259827339204,0.3,0.0,0.0,292.0,624.0,0.0,1,4084.0,1
607,607,0.05330528835565862,0.1,1.0,1.0,391.0,994.0,0.0,0,3615.0,0
608,608,0.3820830150913094,0.4,1.0,1.0,353.0,509.0,0.0,0,4138.0,0
609,609,-0.10170897354727582,-0.1,0.0,1.0,472.0,793.0,0.0,1,3735.0,0
610,610,0.8356508660962881,0.8,0.0,0.0,459.0,908.0,0.0,1,3633.0,1
611,611,-0.5290240820049036,-0.5,1.0,0.0,336.0,894.0,0.0,0,3770.0,1
612,612,-0.880941180341655,-0.9,1.0,0.0,475.0,721.0,0.0,0,3804.0,1
613,613,0.4853225148853878,0.5,0.0,0.0,361.0,619.0,0.0,1,4020.0,1
614,614,-0.45452418673384787,-0.5,0.0,1.0,443.0,852.0,0.0,1,3705.0,0
615,615,0.3472087974216479,0.3,1.0,1.0,320.0,986.0,0.0,0,3694.0,0
616,616,-0.6824046129656448,-0.7,0.0,1.0,314.0,505.0,0.0,1,4181.0,0
617,617,0.2040317025976911,0.2,0.0,0.0,440.0,874.0,0.0,1,3686.0,1
618,618,-0.04922427620217684,-0.0,1.0,0.0,271.0,585.0,0.0,0,4144.0,1
619,619,0.7584506821738198,0.8,0.0,0.0,482.0,574.0,0.0,1,3944.0,1
620,620,0.5375426511289499,0.5,1.0,1.0,480.0,687.0,0.0,0,3833.0,0
621,621,0.6691011074224135,0.7,1.0,1.0,291.0,780.0,0.0,0,3929.0,0
622,622,0.8566997508050423,0.9,0.0,0.0,424.0,923.0,0.0,1,3653.0,1
623,623,-0.1465894056947391,-0.1,1.0,0.0,475.0,828.0,0.0,0,3697.0,1
624,624,-0.37508174225235436,-0.4,1.0,0.0,375.0,576.0,0.0,0,4049.0,1
625,625,-0.5651420867037733,-0.6,1.0,0.0,352.0,909.0,0.0,0,3739.0,1
626,626,-0.20448777762712844,-0.2,1.0,0.0,406.0,765.0,0.0,0,3829.0,1
627,627,0.277663028854361,0.3,1.0,1.0,456.0,659.0,0.0,0,3885.0,0
628,628,-0.24660950150108796,-0.2,0.0,1.0,412.0,503.0,0.0,1,4085.0,0
629,629,-0.1465795585705415,-0.1,1.0,0.0,320.0,826.0,0.0,0,3854.0,1
630,630,0.897046697816473,0.9,1.0,1.0,373.0,796.0,0.0,0,3831.0,0
631,631,-0.22347452107999655,-0.2,1.0,0.0,361.0,680.0,0.0,0,3959.0,1
632,632,0.3852002458878806,0.4,0.0,0.0,472.0,539.0,0.0,1,3989.0,1
633,633,0.5710553003762918,0.6,0.0,0.0,403.0,659.0,0.0,1,3938.0,1
634,634,-0.4944421625164219,-0.5,0.0,1.0,455.0,760.0,0.0,1,3785.0,0
635,635,-0.36740811278280816,-0.4,1.0,0.0,395.0,706.0,0.0,0,3899.0,1
636,636,-0.7578110593205226,-0.8,0.0,1.0,294.0,833.0,1.0,0,-1117.0,1
637,637,-0.47194804805878304,-0.5,1.0,0.0,437.0,833.0,0.0,0,3730.0,1
638,638,0.10568104753155894,0.1,1.0,1.0,367.0,947.0,0.0,0,3686.0,0
639,639,0.799932164042965,0.8,1.0,1.0,469.0,507.0,0.0,0,4024.0,0
640,640,-0.6242929019280623,-0.6,0.0,1.0,295.0,858.0,0.0,1,3847.0,0
641,641,0.36716429110653237,0.4,0.0,0.0,382.0,544.0,0.0,1,4074.0,1
642,642,0.4699065552607097,0.5,0.0,0.0,477.0,774.0,0.0,1,3749.0,1
643,643,0.06015877297212335,0.1,1.0,1.0,344.0,516.0,0.0,0,4140.0,0
644,644,-0.5117509962796523,-0.5,0.0,1.0,333.0,552.0,0.0,1,4115.0,0
645,645,-0.7662056118311473,-0.8,1.0,0.0,490.0,726.0,0.0,0,3784.0,1
646,646,0.5819654332624017,0.6,1.0,1.0,341.0,717.0,0.0,0,3942.0,0
647,647,-0.5550189635135947,-0.6,1.0,0.0,280.0,840.0,0.0,0,3880.0,1
648,648,0.5384486062653667,0.5,0.0,0.0,486.0,641.0,0.0,1,3873.0,1
649,649,-0.6332479919768648,-0.6,1.0,0.0,250.0,582.0,0.0,0,4168.0,1
650,650,-0.6711118633165378,-0.7,0.0,1.0,295.0,613.0,0.0,1,4092.0,0
651,651,-0.2996450076086111,-0.3,1.0,0.0,260.0,586.0,0.0,0,4154.0,1
652,652,0.3397777366587641,0.3,0.0,0.0,480.0,537.0,0.0,1,3983.0,1
653,653,0.8355691964852351,0.8,1.0,1.0,255.0,817.0,0.0,0,3928.0,0
654,654,-0.7853151741708081,-0.8,1.0,0.0,263.0,776.0,0.0,0,3961.0,1
655,655,0.23438579620057765,0.2,1.0,1.0,392.0,924.0,0.0,0,3684.0,0
656,656,0.04326530497463099,0.0,0.0,0.0,340.0,642.0,0.0,1,4018.0,1
657,657,0.7392865628908171,0.7,1.0,1.0,279.0,918.0,0.0,0,3803.0,0
658,658,-0.6376874039363196,-0.6,1.0,0.0,354.0,950.0,0.0,0,3696.0,1
659,659,-0.8320662234112364,-0.8,1.0,0.0,487.0,911.0,1.0,1,-1338.0,0
660,660,-0.14623967691528605,-0.1,1.0,0.0,432.0,519.0,0.0,0,4049.0,1
661,661,-0.03223891220398711,-0.0,0.0,1.0,363.0,873.0,0.0,1,3764.0,0
662,662,0.11691326844617767,0.1,0.0,0.0,302.0,961.0,1.0,0,-1053.0,0
663,663,0.8830509085276471,0.9,0.0,0.0,309.0,831.0,0.0,1,3860.0,1
664,664,0.8228319174383943,0.8,1.0,1.0,250.0,743.0,0.0,0,4007.0,0
665,665,-0.2514893548502153,-0.3,0.0,1.0,258.0,616.0,0.0,1,4126.0,0
666,666,-0.23469516278720126,-0.2,0.0,1.0,440.0,647.0,1.0,0,-997.0,1
667,667,0.39246559665619263,0.4,0.0,0.0,477.0,565.0,0.0,1,3958.0,1
668,668,0.6900861470442933,0.7,1.0,1.0,404.0,898.0,0.0,0,3698.0,0
669,669,0.4089391201666731,0.4,0.0,0.0,459.0,795.0,0.0,1,3746.0,1
670,670,-0.7977078046767064,-0.8,1.0,0.0,416.0,775.0,0.0,0,3809.0,1
671,671,0.8919538825339911,0.9,1.0,1.0,380.0,784.0,0.0,0,3836.0,0
672,672,0.14818975270643298,0.1,0.0,0.0,296.0,591.0,0.0,1,4113.0,1
673,673,-0.5334194749417203,-0.5,1.0,0.0,318.0,598.0,0.0,0,4084.0,1
674,674,0.017730384824869216,0.0,0.0,0.0,257.0,803.0,0.0,1,-940.0,1
675,675,0.649269195476751,0.6,0.0,0.0,321.0,755.0,0.0,1,3924.0,1
676,676,-0.8044933848586722,-0.8,0.0,1.0,476.0,904.0,0.0,1,3620.0,0
677,677,-0.5865337786581188,-0.6,0.0,1.0,359.0,777.0,0.0,1,3864.0,0
678,678,0.6277386190610702,0.6,0.0,0.0,434.0,508.0,0.0,1,4058.0,1
679,679,0.05101259849715667,0.1,0.0,0.0,419.0,837.0,0.0,1,3744.0,1
680,680,-0.7921776548783682,-0.8,0.0,1.0,409.0,560.0,0.0,1,4031.0,0
681,681,-0.1412209091715877,-0.1,0.0,1.0,478.0,771.0,0.0,1,3751.0,0
682,682,0.17318433779955067,0.2,1.0,1.0,252.0,739.0,0.0,0,4009.0,0
683,683,-0.04693905269850995,-0.0,1.0,0.0,467.0,880.0,0.0,0,3653.0,1
684,684,-0.45029354454669607,-0.5,1.0,0.0,440.0,506.0,0.0,0,4054.0,1
685,685,0.6889576607791318,0.7,1.0,1.0,464.0,721.0,1.0,1,-1175.0,1
686,686,-0.8386534846205357,-0.8,0.0,1.0,372.0,963.0,0.0,1,3665.0,0
687,687,0.8451282741065728,0.8,0.0,0.0,399.0,589.0,0.0,1,4012.0,1
688,688,0.8840379950688314,0.9,1.0,1.0,287.0,929.0,0.0,0,3784.0,0
689,689,0.43044655985868385,0.4,1.0,1.0,310.0,804.0,0.0,0,3886.0,0
690,690,-0.8234838457976491,-0.8,1.0,0.0,357.0,599.0,0.0,0,4044.0,1
691,691,-0.49161055840405643,-0.5,1.0,0.0,320.0,587.0,0.0,0,4093.0,1
692,692,0.20888882058998803,0.2,1.0,1.0,467.0,665.0,1.0,1,-1112.0,1
693,693,0.843491652448454,0.8,1.0,1.0,488.0,964.0,0.0,0,3548.0,0
694,694,-0.3764810176103309,-0.4,1.0,0.0,344.0,835.0,0.0,0,3821.0,1
695,695,0.6364777326269359,0.6,1.0,1.0,287.0,573.0,0.0,0,4140.0,0
696,696,-0.45939530803383505,-0.5,0.0,1.0,256.0,695.0,0.0,1,4049.0,0
697,697,0.41910042567046146,0.4,1.0,1.0,254.0,515.0,0.0,0,4231.0,0
698,698,-0.6560893722577904,-0.7,1.0,0.0,253.0,531.0,0.0,0,4216.0,1
699,699,0.3803238517809301,0.4,1.0,1.0,430.0,742.0,0.0,0,3828.0,0
700,700,0.11796608502792172,0.1,0.0,0.0,309.0,632.0,0.0,1,4059.0,1
701,701,0.33418026667921363,0.3,1.0,1.0,406.0,961.0,0.0,0,3633.0,0
702,702,0.8967202383654377,0.9,1.0,1.0,491.0,824.0,0.0,0,3685.0,0
703,703,0.18424657049993776,0.2,0.0,0.0,348.0,593.0,0.0,1,4059.0,1
704,704,-0.146043445448525,-0.1,1.0,0.0,347.0,767.0,0.0,0,3886.0,1
705,705,0.3167346018758076,0.3,1.0,1.0,398.0,623.0,0.0,0,3979.0,0
706,706,0.6264680161594628,0.6,0.0,0.0,457.0,917.0,0.0,1,3626.0,1
707,707,0.8460576998012167,0.8,1.0,1.0,441.0,808.0,0.0,0,3751.0,0
708,708,-0.5254937722931374,-0.5,0.0,1.0,345.0,703.0,0.0,1,3952.0,0
709,709,-0.1935389181725431,-0.2,1.0,0.0,270.0,615.0,0.0,0,4115.0,1
710,710,0.4235234903083721,0.4,1.0,1.0,430.0,849.0,0.0,0,3721.0,0
711,711,-0.29928270285702885,-0.3,1.0,0.0,257.0,946.0,0.0,0,-1193.0,1
712,712,0.5942643716414907,0.6,1.0,1.0,260.0,945.0,0.0,0,3795.0,0
713,713,0.2543963175550389,0.3,0.0,0.0,407.0,949.0,0.0,1,3644.0,1
714,714,-0.44278600799599077,-0.4,0.0,1.0,355.0,784.0,0.0,1,3861.0,0
715,715,-0.1290155739560741,-0.1,0.0,1.0,265.0,551.0,0.0,1,4184.0,0
716,716,-0.7526912346378237,-0.8,0.0,1.0,470.0,789.0,0.0,1,3741.0,0
717,717,0.6339196655098222,0.6,1.0,1.0,439.0,864.0,0.0,0,3697.0,0
718,718,0.3252228163371743,0.3,1.0,1.0,404.0,680.0,0.0,0,-904.0,0
719,719,-0.29809766301473695,-0.3,1.0,0.0,498.0,608.0,0.0,0,3894.0,1
720,720,0.4817346359933562,0.5,0.0,0.0,491.0,556.0,0.0,1,3953.0,1
721,721,-0.34060354079297317,-0.3,0.0,1.0,458.0,742.0,0.0,1,3800.0,0
722,722,-0.2726580043773985,-0.3,0.0,1.0,367.0,712.0,0.0,1,3921.0,0
723,723,0.8603274464573799,0.9,1.0,1.0,330.0,980.0,0.0,0,3690.0,0
724,724,-0.7162874644016518,-0.7,1.0,0.0,463.0,765.0,1.0,1,-1208.0,0
725,725,-0.0034398713240462175,-0.0,1.0,0.0,444.0,909.0,0.0,0,3647.0,1
726,726,0.3258721256946554,0.3,0.0,0.0,334.0,889.0,0.0,1,3777.0,1
727,727,-0.3425398320725249,-0.3,0.0,1.0,328.0,662.0,0.0,1,4010.0,0
728,728,0.6736622403802713,0.7,1.0,1.0,319.0,979.0,0.0,0,3702.0,0
729,729,0.09051634155991906,0.1,1.0,1.0,394.0,504.0,0.0,0,4102.0,0
730,730,0.05720992549467219,0.1,0.0,0.0,318.0,746.0,0.0,1,3936.0,1
731,731,0.20784922111010296,0.2,1.0,1.0,437.0,904.0,0.0,0,3659.0,0
732,732,0.8300718221972584,0.8,0.0,0.0,276.0,734.0,0.0,1,3990.0,1
733,733,-0.022443646004794426,-0.0,0.0,1.0,337.0,758.0,0.0,1,3905.0,0
734,734,-0.3134027497531594,-0.3,1.0,0.0,436.0,545.0,0.0,0,4019.0,1
735,735,-0.7240262899797855,-0.7,1.0,0.0,401.0,767.0,0.0,0,3832.0,1
736,736,-0.5813740336394486,-0.6,1.0,0.0,331.0,739.0,0.0,0,3930.0,1
737,737,0.055906681399113256,0.1,0.0,0.0,340.0,874.0,0.0,1,3786.0,1
738,738,-0.3687786146814013,-0.4,1.0,0.0,332.0,581.0,0.0,0,4087.0,1
739,739,-0.018104166434391167,-0.0,0.0,1.0,436.0,749.0,0.0,1,3815.0,0
740,740,0.35053350288007257,0.4,1.0,1.0,361.0,978.0,0.0,0,3661.0,0
741,741,0.20322494648447298,0.2,0.0,0.0,471.0,902.0,0.0,1,3627.0,1
742,742,0.3188965463895318,0.3,0.0,0.0,275.0,781.0,0.0,1,3944.0,1
743,743,-0.13183239753470788,-0.1,1.0,0.0,333.0,859.0,0.0,0,3808.0,1
744,744,0.3070602665997265,0.3,1.0,1.0,449.0,805.0,0.0,0,3746.0,0
745,745,-0.28380081301691196,-0.3,0.0,1.0,354.0,754.0,0.0,1,3892.0,0
746,746,0.43820715839119495,0.4,0.0,0.0,291.0,660.0,0.0,1,4049.0,1
747,747,0.8854461062009925,0.9,1.0,1.0,322.0,582.0,0.0,0,4096.0,0
748,748,-0.07835479257942923,-0.1,0.0,1.0,448.0,641.0,0.0,1,-1049.0,0
749,749,-0.7518040560627424,-0.8,1.0,0.0,260.0,899.0,0.0,0,3841.0,1
750,750,0.5950870055755805,0.6,0.0,0.0,325.0,790.0,0.0,1,3885.0,1
751,751,-0.21443203153820933,-0.2,1.0,0.0,360.0,925.0,0.0,0,3715.0,1
752,752,0.825589585658998,0.8,0.0,0.0,449.0,772.0,0.0,1,3779.0,1
753,753,-0.02166071547950943,-0.0,0.0,1.0,282.0,915.0,0.0,1,3803.0,0
754,754,-0.31024123102375145,-0.3,0.0,1.0,465.0,806.0,0.0,1,3729.0,0
755,755,-0.41124971670793836,-0.4,0.0,1.0,491.0,789.0,0.0,1,3720.0,0
756,756,-0.75711942815139,-0.8,0.0,1.0,273.0,709.0,0.0,1,-932.0,0
757,757,0.05592716748536131,0.1,1.0,1.0,292.0,865.0,0.0,0,3843.0,0
758,758,0.6484057712127084,0.6,1.0,1.0,259.0,573.0,0.0,0,4168.0,0
759,759,-0.4227311848390045,-0.4,0.0,1.0,360.0,975.0,0.0,1,3665.0,0
760,760,-0.10055807421232876,-0.1,0.0,1.0,395.0,717.0,0.0,1,3888.0,0
761,761,0.047376124660897245,0.0,1.0,1.0,422.0,836.0,0.0,0,3742.0,0
762,762,-0.3248161043564989,-0.3,0.0,1.0,376.0,965.0,0.0,1,3659.0,0
763,763,0.1723640064000468,0.2,1.0,1.0,307.0,679.0,0.0,0,4014.0,0
764,764,0.8186576064800967,0.8,0.0,0.0,379.0,861.0,0.0,1,3760.0,1
765,765,0.6802440045008785,0.7,1.0,1.0,328.0,921.0,0.0,0,3751.0,0
766,766,0.5098803604982708,0.5,0.0,0.0,449.0,504.0,0.0,1,4047.0,1
767,767,0.4505086681275884,0.5,1.0,1.0,321.0,865.0,0.0,0,3814.0,0
768,768,-0.8287285098522306,-0.8,0.0,1.0,380.0,632.0,0.0,1,3988.0,0
769,769,0.16955146313560643,0.2,0.0,0.0,312.0,596.0,0.0,1,4092.0,1
770,770,-0.3831088989475776,-0.4,0.0,1.0,452.0,522.0,0.0,1,-864.0,0
771,771,-0.7108421071669689,-0.7,0.0,1.0,343.0,537.0,0.0,1,4120.0,0
772,772,-0.39511853078461423,-0.4,1.0,0.0,410.0,694.0,0.0,0,3896.0,1
773,773,-0.5343380281901692,-0.5,1.0,0.0,254.0,996.0,0.0,0,3750.0,1
774,774,0.0033600750701281434,0.0,1.0,1.0,284.0,918.0,0.0,0,3798.0,0
775,775,0.34406989284505574,0.3,0.0,0.0,281.0,941.0,0.0,1,3778.0,1
776,776,-0.8011231195423913,-0.8,0.0,1.0,408.0,613.0,0.0,1,3979.0,0
777,777,-0.6321879313888414,-0.6,1.0,0.0,290.0,950.0,0.0,0,3760.0,1
778,778,-0.7991794238593796,-0.8,0.0,1.0,386.0,512.0,0.0,1,4102.0,0
779,779,-0.21030219429716357,-0.2,1.0,0.0,387.0,534.0,0.0,0,-871.0,1
780,780,0.42683085681375654,0.4,1.0,1.0,309.0,929.0,0.0,0,3762.0,0
781,781,-0.14717774086636604,-0.1,1.0,0.0,358.0,959.0,0.0,0,3683.0,1
782,782,0.19742426129186763,0.2,0.0,0.0,322.0,990.0,0.0,1,3688.0,1
783,783,-0.41511137683151483,-0.4,0.0,1.0,265.0,907.0,0.0,1,3828.0,0
784,784,-0.6322828702336512,-0.6,1.0,0.0,251.0,549.0,0.0,0,4200.0,1
785,785,-0.04806516136197614,-0.0,1.0,0.0,311.0,773.0,0.0,0,3916.0,1
786,786,0.03859025632389512,0.0,1.0,1.0,366.0,591.0,0.0,0,4043.0,0
787,787,0.4139759528525707,0.4,1.0,1.0,286.0,514.0,0.0,0,4200.0,0
788,788,-0.8660835933608185,-0.9,0.0,1.0,377.0,911.0,0.0,1,3712.0,0
789,789,-0.4138707085175364,-0.4,1.0,0.0,464.0,818.0,0.0,0,3718.0,1
790,790,0.3975496492705598,0.4,1.0,1.0,457.0,665.0,0.0,0,3878.0,0
791,791,0.4634126853519772,0.5,1.0,1.0,285.0,632.0,0.0,0,4083.0,0
792,792,0.6851505311829774,0.7,0.0,0.0,330.0,735.0,0.0,1,3935.0,1
793,793,-0.3441260247848542,-0.3,0.0,1.0,305.0,925.0,0.0,1,3770.0,0
794,794,0.000389703677885489,0.0,0.0,0.0,392.0,635.0,0.0,1,3973.0,1
795,795,0.848080283179908,0.8,1.0,1.0,496.0,746.0,0.0,0,3758.0,0
796,796,-0.16765962993080474,-0.2,1.0,0.0,270.0,832.0,0.0,0,3898.0,1
797,797,0.8099978934620288,0.8,0.0,0.0,498.0,721.0,0.0,1,3781.0,1
798,798,-0.3800485127149199,-0.4,1.0,0.0,286.0,645.0,0.0,0,4069.0,1
799,799,0.21613300196083396,0.2,0.0,0.0,261.0,840.0,0.0,1,-1101.0,1
800,800,-0.4740615793829362,-0.5,1.0,0.0,475.0,935.0,0.0,0,3590.0,1
801,801,0.5559534247895864,0.6,1.0,1.0,261.0,659.0,0.0,0,4080.0,0
802,802,-0.807452144707219,-0.8,1.0,0.0,445.0,843.0,0.0,0,3712.0,1
803,803,0.5952768672997136,0.6,1.0,1.0,291.0,720.0,0.0,0,-921.0,0
804,804,0.3135961829579058,0.3,1.0,1.0,472.0,883.0,1.0,1,-1255.0,1
805,805,0.8375945833426762,0.8,0.0,0.0,362.0,670.0,0.0,1,3968.0,1
806,806,-0.8843544176288294,-0.9,0.0,1.0,407.0,850.0,0.0,1,3743.0,0
807,807,-0.3942704598936967,-0.4,1.0,0.0,274.0,513.0,0.0,0,4213.0,1
808,808,-0.4325978898980012,-0.4,0.0,1.0,433.0,755.0,0.0,1,3812.0,0
809,809,0.4977477134682641,0.5,0.0,0.0,286.0,541.0,0.0,1,4173.0,1
810,810,0.18358756299954837,0.2,1.0,1.0,495.0,658.0,0.0,0,3847.0,0
811,811,0.27882882178521695,0.3,0.0,0.0,405.0,504.0,0.0,1,4091.0,1
812,812,0.03646890204571407,0.0,1.0,1.0,464.0,977.0,0.0,0,3559.0,0
813,813,-0.4469926433054284,-0.4,1.0,0.0,262.0,618.0,0.0,0,4120.0,1
814,814,-0.05994852760511482,-0.1,1.0,0.0,474.0,997.0,0.0,0,3529.0,1
815,815,-0.6745653406588794,-0.7,0.0,1.0,357.0,902.0,0.0,1,3741.0,0
816,816,0.7703766565304583,0.8,1.0,1.0,478.0,528.0,0.0,0,3994.0,0
817,817,0.5515535168110498,0.6,1.0,1.0,407.0,573.0,0.0,0,4020.0,0
818,818,-0.34943408267605125,-0.3,0.0,1.0,447.0,976.0,0.0,1,3577.0,0
819,819,-0.4299490670874921,-0.4,0.0,1.0,280.0,728.0,0.0,1,3992.0,0
820,820,0.004266623527002356,0.0,1.0,1.0,340.0,877.0,0.0,0,3783.0,0
821,821,-0.8099184189769655,-0.8,1.0,0.0,449.0,811.0,0.0,0,3740.0,1
822,822,0.8689839003702603,0.9,0.0,0.0,258.0,666.0,0.0,1,4076.0,1
823,823,0.7386771274566167,0.7,0.0,0.0,466.0,954.0,0.0,1,3580.0,1
824,824,0.43246049225705085,0.4,1.0,1.0,303.0,960.0,0.0,0,3737.0,0
825,825,0.047868871279982406,0.0,0.0,0.0,328.0,549.0,0.0,1,-817.0,1
826,826,0.8016504509639882,0.8,0.0,0.0,255.0,665.0,0.0,1,4080.0,1
827,827,0.3354002222424587,0.3,1.0,1.0,287.0,994.0,0.0,0,3719.0,0
828,828,-0.28826413819167085,-0.3,0.0,1.0,388.0,560.0,0.0,1,4052.0,0
829,829,0.00402799898123074,0.0,1.0,1.0,442.0,545.0,0.0,0,-957.0,0
830,830,0.4215943442531508,0.4,0.0,0.0,450.0,641.0,0.0,1,3909.0,1
831,831,-0.7150326008741865,-0.7,0.0,1.0,435.0,556.0,0.0,1,4009.0,0
832,832,0.26218494557624117,0.3,0.0,0.0,406.0,556.0,0.0,1,4038.0,1
833,833,-0.4952098250591928,-0.5,1.0,0.0,443.0,893.0,0.0,0,3664.0,1
834,834,-0.006742397565477121,-0.0,1.0,0.0,260.0,742.0,0.0,0,3998.0,1
835,835,0.27702231144581557,0.3,1.0,1.0,308.0,987.0,0.0,0,3705.0,0
836,836,-0.5402589650830053,-0.5,0.0,1.0,419.0,620.0,1.0,0,-969.0,1
837,837,-0.3525646797011349,-0.4,1.0,0.0,382.0,530.0,0.0,0,4088.0,1
838,838,-0.6267685449874731,-0.6,1.0,0.0,256.0,631.0,0.0,0,4113.0,1
839,839,-0.09775561330950511,-0.1,1.0,0.0,463.0,728.0,0.0,0,3809.0,1
840,840,-0.16394488221155534,-0.2,0.0,1.0,351.0,776.0,0.0,1,3873.0,0
841,841,-0.6485210818711029,-0.6,1.0,0.0,329.0,735.0,0.0,0,3936.0,1
842,842,0.5196784928871193,0.5,1.0,1.0,435.0,621.0,0.0,0,-1006.0,0
843,843,0.027655877899929293,0.0,1.0,1.0,253.0,672.0,0.0,0,4075.0,0
844,844,0.13761731260506027,0.1,0.0,0.0,284.0,536.0,0.0,1,4180.0,1
845,845,-0.7509133753581165,-0.8,1.0,0.0,310.0,618.0,0.0,0,4072.0,1
846,846,-0.6660629156866138,-0.7,1.0,0.0,358.0,894.0,0.0,0,3748.0,1
847,847,-0.06618173791480819,-0.1,0.0,1.0,320.0,768.0,0.0,1,3912.0,0
848,848,-0.6944736845983377,-0.7,0.0,1.0,442.0,706.0,0.0,1,3852.0,0
849,849,-0.036524801507732074,-0.0,1.0,0.0,330.0,668.0,0.0,0,4002.0,1
850,850,0.04228320835766575,0.0,0.0,0.0,489.0,620.0,0.0,1,3891.0,1
851,851,-0.010015644307149851,-0.0,0.0,1.0,481.0,836.0,0.0,1,3683.0,0
852,852,-0.2478882083939108,-0.2,1.0,0.0,318.0,715.0,0.0,0,3967.0,1
853,853,0.06851868118965054,0.1,1.0,1.0,403.0,529.0,0.0,0,4068.0,0
854,854,0.8718915600459117,0.9,0.0,0.0,490.0,575.0,0.0,1,3935.0,1
855,855,-0.25699849259101415,-0.3,1.0,0.0,333.0,834.0,0.0,0,3833.0,1
856,856,-0.08361133031126577,-0.1,0.0,1.0,412.0,981.0,0.0,1,3607.0,0
857,857,-0.41870196071155213,-0.4,1.0,0.0,383.0,691.0,0.0,0,3926.0,1
858,858,0.11348679247285409,0.1,0.0,0.0,354.0,901.0,0.0,1,3745.0,1
859,859,-0.7589382442740213,-0.8,1.0,0.0,286.0,531.0,0.0,0,4183.0,1
860,860,-0.09857296926874892,-0.1,1.0,0.0,431.0,563.0,0.0,0,4006.0,1
861,861,-0.258039809540369,-0.3,1.0,0.0,255.0,742.0,0.0,0,4003.0,1
862,862,-0.265418961755566,-0.3,0.0,1.0,370.0,657.0,0.0,1,3973.0,0
863,863,-0.1964262716373577,-0.2,1.0,0.0,428.0,518.0,0.0,0,4054.0,1
864,864,-0.7805897335281875,-0.8,0.0,1.0,314.0,893.0,0.0,1,3793.0,0
865,865,-0.34364073633730874,-0.3,1.0,0.0,358.0,728.0,0.0,0,3914.0,1
866,866,-0.6893166811129221,-0.7,1.0,0.0,348.0,930.0,0.0,0,3722.0,1
867,867,-0.6528061320896855,-0.7,1.0,0.0,263.0,708.0,0.0,0,4029.0,1
868,868,0.003586936706613364,0.0,1.0,1.0,260.0,588.0,0.0,0,4152.0,0
869,869,0.8816937297473318,0.9,1.0,1.0,471.0,734.0,0.0,0,3795.0,0
870,870,0.6597278465221016,0.7,0.0,0.0,408.0,637.0,0.0,1,3955.0,1
871,871,-0.6359433319471209,-0.6,1.0,0.0,452.0,596.0,0.0,0,3952.0,1
872,872,-0.7625729849080045,-0.8,1.0,0.0,322.0,758.0,0.0,0,3920.0,1
873,873,-0.6519559998213404,-0.7,0.0,1.0,258.0,917.0,0.0,1,3825.0,0
874,874,0.8382340012834105,0.8,0.0,0.0,432.0,849.0,1.0,0,-1261.0,0
875,875,-0.4337206074925308,-0.4,1.0,0.0,391.0,893.0,0.0,0,3716.0,1
876,876,0.2502536437194117,0.3,1.0,1.0,410.0,589.0,0.0,0,4001.0,0
877,877,-0.5365038978656496,-0.5,0.0,1.0,423.0,500.0,0.0,1,4077.0,0
878,878,0.7354384654599496,0.7,1.0,1.0,415.0,573.0,0.0,0,4012.0,0
879,879,0.4335505855013574,0.4,1.0,1.0,418.0,690.0,0.0,0,3892.0,0
880,880,0.4750720373551559,0.5,1.0,1.0,488.0,917.0,0.0,0,3595.0,0
881,881,-0.16446673204336848,-0.2,0.0,1.0,342.0,868.0,0.0,1,3790.0,0
882,882,0.18919246464628936,0.2,0.0,0.0,270.0,752.0,0.0,1,3978.0,1
883,883,0.6111021364614585,0.6,1.0,1.0,252.0,736.0,0.0,0,4012.0,0
884,884,0.8428596690177491,0.8,0.0,0.0,295.0,828.0,0.0,1,3877.0,1
885,885,-0.02185425469344937,-0.0,0.0,1.0,453.0,755.0,0.0,1,-1208.0,0
886,886,0.6842870046993138,0.7,0.0,0.0,464.0,675.0,0.0,1,3861.0,1
887,887,-0.494800167308236,-0.5,0.0,1.0,400.0,975.0,0.0,1,3625.0,0
888,888,0.47223200868221993,0.5,0.0,0.0,491.0,554.0,0.0,1,3955.0,1
889,889,-0.02958605402958181,-0.0,0.0,1.0,318.0,583.0,0.0,1,4099.0,0
890,890,0.24894236143994208,0.2,0.0,0.0,434.0,907.0,1.0,0,-1251.0,0
891,891,0.7106279487723056,0.7,1.0,1.0,460.0,705.0,0.0,0,3835.0,0
892,892,-0.6305757785879297,-0.6,0.0,1.0,286.0,995.0,0.0,1,3719.0,0
893,893,-0.596651961153936,-0.6,0.0,1.0,271.0,774.0,0.0,1,3955.0,0
894,894,-0.38869031266063936,-0.4,0.0,1.0,382.0,526.0,0.0,1,4092.0,0
895,895,0.23896401977669302,0.2,1.0,1.0,377.0,677.0,0.0,0,3946.0,0
896,896,0.09958766476298464,0.1,0.0,0.0,471.0,781.0,1.0,0,-1102.0,0
897,897,-0.08826943149850963,-0.1,0.0,1.0,356.0,580.0,0.0,1,-886.0,0
898,898,0.03704951578211457,0.0,1.0,1.0,371.0,693.0,0.0,0,3936.0,0
899,899,0.10429206442610017,0.1,0.0,0.0,448.0,580.0,0.0,1,3972.0,1
900,900,-0.3001393393413153,-0.3,1.0,0.0,298.0,929.0,0.0,0,3773.0,1
901,901,0.5435840654905822,0.5,1.0,1.0,334.0,998.0,0.0,0,3668.0,0
902,902,0.22637312189881553,0.2,1.0,1.0,497.0,742.0,0.0,0,3761.0,0
903,903,0.2731190277542065,0.3,0.0,0.0,313.0,898.0,0.0,1,3789.0,1
904,904,0.685087355393584,0.7,0.0,0.0,274.0,897.0,0.0,1,3829.0,1
905,905,0.8374269341639243,0.8,0.0,0.0,335.0,916.0,0.0,1,3749.0,1
906,906,0.11172201104416313,0.1,0.0,0.0,449.0,919.0,0.0,1,3632.0,1
907,907,-0.5635430381260842,-0.6,0.0,1.0,265.0,873.0,0.0,1,3862.0,0
908,908,-0.8652538792012372,-0.9,0.0,1.0,351.0,882.0,0.0,1,3767.0,0
909,909,0.05979946863383023,0.1,0.0,0.0,284.0,815.0,0.0,1,3901.0,1
910,910,-0.7253007127584624,-0.7,1.0,0.0,369.0,853.0,0.0,0,3778.0,1
911,911,0.5099758010163083,0.5,0.0,0.0,491.0,545.0,0.0,1,3964.0,1
912,912,-0.3145239554970308,-0.3,0.0,1.0,322.0,863.0,0.0,1,3815.0,0
913,913,0.5050201180732964,0.5,1.0,1.0,306.0,666.0,0.0,0,4028.0,0
914,914,0.7967535655146508,0.8,1.0,1.0,276.0,973.0,0.0,0,3751.0,0
915,915,-0.5468518963365006,-0.5,1.0,0.0,322.0,556.0,0.0,0,4122.0,1
916,916,-0.5384314820073963,-0.5,1.0,0.0,383.0,674.0,0.0,0,3943.0,1
917,917,-0.3620340132849622,-0.4,0.0,1.0,260.0,992.0,0.0,1,-1202.0,0
918,918,-0.2157950423193966,-0.2,1.0,0.0,410.0,751.0,1.0,1,-1091.0,0
919,919,0.8402625390733881,0.8,0.0,0.0,292.0,778.0,1.0,0,-1000.0,0
920,920,-0.263893914017187,-0.3,1.0,0.0,254.0,837.0,0.0,0,3909.0,1
921,921,-0.7203076618027515,-0.7,1.0,0.0,417.0,568.0,0.0,0,4015.0,1
922,922,-0.40505513943152843,-0.4,0.0,1.0,377.0,566.0,0.0,1,4057.0,0
923,923,-0.8201544139585442,-0.8,0.0,1.0,293.0,831.0,0.0,1,3876.0,0
924,924,0.07560068081947846,0.1,1.0,1.0,394.0,684.0,0.0,0,3922.0,0
925,925,-0.21769560484511508,-0.2,0.0,1.0,482.0,655.0,0.0,1,3863.0,0
926,926,0.18658310411590306,0.2,0.0,0.0,340.0,994.0,0.0,1,3666.0,1
927,927,0.36585916827583287,0.4,1.0,1.0,435.0,783.0,0.0,0,3782.0,0
928,928,-0.6222922481196345,-0.6,1.0,0.0,465.0,755.0,0.0,0,3780.0,1
929,929,-0.8361349244194293,-0.8,1.0,0.0,255.0,802.0,0.0,0,3943.0,1
930,930,0.3578549734270843,0.4,1.0,1.0,251.0,767.0,0.0,0,3982.0,0
931,931,0.3377605682281032,0.3,1.0,1.0,298.0,867.0,0.0,0,3835.0,0
932,932,-0.31595832533166657,-0.3,1.0,0.0,408.0,982.0,0.0,0,3610.0,1
933,933,0.2113545195541423,0.2,0.0,0.0,252.0,765.0,0.0,1,3983.0,1
934,934,-0.14967512610418687,-0.1,1.0,0.0,265.0,767.0,0.0,0,3968.0,1
935,935,-0.15904704083833188,-0.2,0.0,1.0,269.0,978.0,0.0,1,3753.0,0
936,936,-0.6891583747722128,-0.7,0.0,1.0,493.0,993.0,0.0,1,3514.0,0
937,937,-0.7108170907095049,-0.7,0.0,1.0,296.0,980.0,0.0,1,3724.0,0
938,938,-0.6322901626338132,-0.6,0.0,1.0,379.0,660.0,0.0,1,3961.0,0
939,939,-0.28623094970521734,-0.3,0.0,1.0,387.0,658.0,0.0,1,3955.0,0
940,940,-0.6467301271714914,-0.6,1.0,0.0,434.0,602.0,0.0,0,3964.0,1
941,941,-0.19496737848561274,-0.2,1.0,0.0,350.0,829.0,0.0,0,3821.0,1
942,942,-0.8617181853013869,-0.9,0.0,1.0,267.0,811.0,0.0,1,3922.0,0
943,943,-0.41188233356869697,-0.4,1.0,0.0,273.0,597.0,0.0,0,4130.0,1
944,944,-0.6285218468729294,-0.6,1.0,0.0,331.0,584.0,0.0,0,-905.0,1
945,945,0.4283035362338229,0.4,1.0,1.0,295.0,643.0,0.0,0,4062.0,0
946,946,0.600303856592549,0.6,1.0,1.0,418.0,904.0,0.0,0,3678.0,0
947,947,0.4805579211735441,0.5,1.0,1.0,288.0,512.0,0.0,0,4200.0,0
948,948,-0.27678246250294003,-0.3,1.0,0.0,375.0,970.0,0.0,0,3655.0,1
949,949,-0.3386123093305766,-0.3,0.0,1.0,426.0,919.0,1.0,0,-1235.0,1
950,950,-0.733030148009947,-0.7,1.0,0.0,460.0,601.0,0.0,0,3939.0,1
951,951,0.5003991091280285,0.5,0.0,0.0,251.0,882.0,0.0,1,3867.0,1
952,952,0.751079798737334,0.8,0.0,0.0,341.0,822.0,0.0,1,3837.0,1
953,953,0.5386696328189425,0.5,0.0,0.0,354.0,626.0,0.0,1,4020.0,1
954,954,0.8078666241263143,0.8,1.0,1.0,463.0,708.0,0.0,0,3829.0,0
955,955,-0.418106663071518,-0.4,1.0,0.0,361.0,573.0,0.0,0,4066.0,1
956,956,-0.08023201517683998,-0.1,1.0,0.0,296.0,698.0,0.0,0,4006.0,1
957,957,0.19760402477934658,0.2,0.0,0.0,382.0,520.0,0.0,1,4098.0,1
958,958,0.19852100548626106,0.2,1.0,1.0,338.0,581.0,0.0,0,4081.0,0
959,959,0.3276532142700489,0.3,1.0,1.0,368.0,728.0,0.0,0,3904.0,0
960,960,0.5818049697682565,0.6,0.0,0.0,354.0,761.0,0.0,1,3885.0,1
961,961,-0.7844201163299092,-0.8,1.0,0.0,324.0,908.0,0.0,0,3768.0,1
962,962,-0.6986096013517028,-0.7,0.0,1.0,363.0,995.0,0.0,1,3642.0,0
963,963,-0.32849954884544263,-0.3,0.0,1.0,279.0,533.0,0.0,1,-712.0,0
964,964,0.3297568685038966,0.3,1.0,1.0,413.0,798.0,0.0,0,3789.0,0
965,965,0.36342281910488616,0.4,1.0,1.0,485.0,509.0,0.0,0,4006.0,0
966,966,0.01468726881983251,0.0,1.0,1.0,458.0,658.0,0.0,0,3884.0,0
967,967,0.4688477732674089,0.5,0.0,0.0,377.0,897.0,0.0,1,3726.0,1
968,968,-0.7373568138131773,-0.7,1.0,0.0,411.0,959.0,0.0,0,3630.0,1
969,969,-0.5827002611207239,-0.6,0.0,1.0,253.0,849.0,0.0,1,3898.0,0
970,970,0.22623405942688002,0.2,0.0,0.0,404.0,963.0,0.0,1,3633.0,1
971,971,-0.1386137352466542,-0.1,1.0,0.0,442.0,680.0,0.0,0,-1082.0,1
972,972,0.23892041916687956,0.2,0.0,0.0,331.0,957.0,0.0,1,3712.0,1
973,973,0.8581206419671091,0.9,1.0,1.0,324.0,958.0,0.0,0,3718.0,0
974,974,0.5733437959547479,0.6,0.0,0.0,386.0,577.0,0.0,1,4037.0,1
975,975,-0.44433905209856733,-0.4,0.0,1.0,309.0,784.0,0.0,1,3907.0,0
976,976,-0.5129060304561243,-0.5,0.0,1.0,353.0,798.0,0.0,1,3849.0,0
977,977,-0.5544764188409703,-0.6,0.0,1.0,296.0,948.0,0.0,1,-1024.0,0
978,978,0.392488575066145,0.4,1.0,1.0,415.0,748.0,0.0,0,3837.0,0
979,979,-0.4355322705090399,-0.4,1.0,0.0,301.0,975.0,0.0,0,3724.0,1
980,980,0.27811333424796547,0.3,0.0,0.0,300.0,740.0,0.0,1,3960.0,1
981,981,0.04472083958922757,0.0,0.0,0.0,270.0,868.0,0.0,1,3862.0,1
982,982,0.19995056642764297,0.2,1.0,1.0,275.0,785.0,0.0,0,3940.0,0
983,983,0.16578186219356683,0.2,1.0,1.0,461.0,877.0,0.0,0,3662.0,0
984,984,0.015371984269096028,0.0,0.0,0.0,300.0,734.0,0.0,1,3966.0,1
985,985,-0.616459590748514,-0.6,1.0,0.0,366.0,621.0,0.0,0,4013.0,1
986,986,-0.6182501199852326,-0.6,0.0,1.0,290.0,717.0,0.0,1,3993.0,0
987,987,0.7072233667996876,0.7,0.0,0.0,366.0,651.0,0.0,1,3983.0,1
988,988,-0.8544025664078039,-0.9,0.0,1.0,290.0,872.0,0.0,1,3838.0,0
989,989,0.8355901006789838,0.8,0.0,0.0,259.0,739.0,0.0,1,4002.0,1
990,990,0.6617187041592513,0.7,0.0,0.0,364.0,591.0,0.0,1,-895.0,1
991,991,0.4101388342161082,0.4,0.0,0.0,307.0,500.0,0.0,1,4193.0,1
992,992,-0.7879169596784295,-0.8,0.0,1.0,308.0,700.0,0.0,1,3992.0,0
993,993,0.09857080790088546,0.1,0.0,0.0,272.0,923.0,0.0,1,3805.0,1
994,994,0.37116425540553866,0.4,1.0,1.0,366.0,938.0,0.0,0,3696.0,0
995,995,0.32316144930823165,0.3,0.0,0.0,358.0,698.0,0.0,1,3944.0,1
996,996,-0.03313380863253135,-0.0,1.0,0.0,431.0,807.0,0.0,0,3762.0,1
997,997,0.8108799512267287,0.8,0.0,0.0,462.0,827.0,0.0,1,-1259.0,1
998,998,-0.10917172931033392,-0.1,1.0,0.0,388.0,994.0,0.0,0,3618.0,1
999,999,-0.7461103123552743,-0.7,1.0,0.0,309.0,701.0,0.0,0,3990.0,1
1000,1000,0.4112515943951983,0.4,1.0,1.0,326.0,834.0,0.0,0,3840.0,0
1001,1001,0.6532936805438637,0.7,0.0,0.0,484.0,689.0,0.0,1,3827.0,1
1002,1002,-0.2941356048435627,-0.3,0.0,1.0,471.0,527.0,0.0,1,4002.0,0
1003,1003,-0.8595135085645826,-0.9,1.0,0.0,415.0,938.0,0.0,0,3647.0,1
1004,1004,0.732235490758811,0.7,1.0,1.0,480.0,577.0,0.0,0,3943.0,0
1005,1005,-0.6497554847427538,-0.6,1.0,0.0,258.0,997.0,0.0,0,3745.0,1
1006,1006,-0.8332768374976983,-0.8,1.0,0.0,499.0,912.0,0.0,0,3589.0,1
1007,1007,-0.8092386871342411,-0.8,1.0,0.0,447.0,534.0,0.0,0,4019.0,1
1008,1008,-0.45621956300993644,-0.5,0.0,1.0,326.0,643.0,0.0,1,4031.0,0
1009,1009,-0.5546017083181198,-0.6,0.0,1.0,335.0,535.0,0.0,1,4130.0,0
1010,1010,-0.8382960910226739,-0.8,1.0,0.0,377.0,717.0,0.0,0,3906.0,1
1011,1011,-0.38231669427048254,-0.4,0.0,1.0,279.0,650.0,0.0,1,4071.0,0
1012,1012,0.0033521311708070156,0.0,1.0,1.0,418.0,641.0,0.0,0,3941.0,0
1013,1013,-0.1887884276583337,-0.2,1.0,0.0,435.0,682.0,0.0,0,3883.0,1
1014,1014,-0.19106898659562255,-0.2,1.0,0.0,267.0,913.0,0.0,0,3820.0,1
1015,1015,0.2513941158138032,0.3,0.0,0.0,315.0,797.0,0.0,1,3888.0,1
1016,1016,0.7606113666308075,0.8,1.0,1.0,338.0,604.0,0.0,0,4058.0,0
1017,1017,0.2522119783828781,0.3,1.0,1.0,426.0,612.0,0.0,0,3962.0,0
1018,1018,-0.8596013795549604,-0.9,1.0,0.0,387.0,837.0,0.0,0,3776.0,1
1019,1019,0.5290402089409653,0.5,0.0,0.0,482.0,905.0,0.0,1,3613.0,1
1020,1020,-0.6059973278613202,-0.6,0.0,1.0,269.0,567.0,0.0,1,4164.0,0
1021,1021,0.4446826226171142,0.4,1.0,1.0,454.0,654.0,0.0,0,3892.0,0
1022,1022,0.05108910508165554,0.1,1.0,1.0,362.0,597.0,0.0,0,4041.0,0
1023,1023,-0.4222984169335235,-0.4,1.0,0.0,496.0,831.0,0.0,0,3673.0,1
1024,1024,-0.49235820627695964,-0.5,1.0,0.0,347.0,659.0,0.0,0,3994.0,1
1025,1025,0.20177415377875751,0.2,1.0,1.0,425.0,676.0,0.0,0,3899.0,0
1026,1026,-0.8251472697611658,-0.8,1.0,0.0,435.0,585.0,0.0,0,3980.0,1
1027,1027,-0.1761872245124979,-0.2,0.0,1.0,339.0,728.0,0.0,1,3933.0,0
1028,1028,0.5289391738122776,0.5,1.0,1.0,457.0,561.0,0.0,0,3982.0,0
1029,1029,-0.5535753985126096,-0.6,1.0,0.0,301.0,803.0,0.0,0,3896.0,1
1030,1030,-0.6484662573701463,-0.6,0.0,1.0,431.0,654.0,0.0,1,3915.0,0
1031,1031,-0.8412563996317959,-0.8,1.0,0.0,457.0,626.0,0.0,0,3917.0,1
1032,1032,-0.892329367264506,-0.9,1.0,0.0,374.0,854.0,0.0,0,3772.0,1
1033,1033,0.6652497358846124,0.7,1.0,1.0,303.0,931.0,0.0,0,3766.0,0
1034,1034,0.6078147416092948,0.6,0.0,0.0,291.0,868.0,0.0,1,3841.0,1
1035,1035,0.7126721480407924,0.7,1.0,1.0,273.0,633.0,0.0,0,4094.0,0
1036,1036,-0.7941228197104995,-0.8,0.0,1.0,463.0,807.0,0.0,1,3730.0,0
1037,1037,-0.266680126726731,-0.3,0.0,1.0,475.0,971.0,0.0,1,3554.0,0
1038,1038,0.39413310045976624,0.4,1.0,1.0,325.0,660.0,0.0,0,4015.0,0
1039,1039,-0.26537423335082555,-0.3,0.0,1.0,472.0,612.0,0.0,1,3916.0,0
1040,1040,-0.6328294836875173,-0.6,0.0,1.0,397.0,973.0,0.0,1,3630.0,0
1041,1041,-0.7094825641994179,-0.7,0.0,1.0,287.0,878.0,0.0,1,3835.0,0
1042,1042,-0.06192443882042864,-0.1,0.0,1.0,337.0,863.0,0.0,1,3800.0,0
1043,1043,0.32948380522904863,0.3,0.0,0.0,466.0,929.0,0.0,1,3605.0,1
1044,1044,-0.39609421895526786,-0.4,0.0,1.0,374.0,607.0,0.0,1,4019.0,0
1045,1045,-0.44030976969728036,-0.4,0.0,1.0,381.0,627.0,0.0,1,3992.0,0
1046,1046,0.7348075656471039,0.7,0.0,0.0,459.0,932.0,0.0,1,3609.0,1
1047,1047,-0.020470187999335088,-0.0,1.0,0.0,496.0,773.0,0.0,0,3731.0,1
1048,1048,0.23221353340192696,0.2,0.0,0.0,417.0,580.0,0.0,1,-817.0,1
1049,1049,0.6118805647501505,0.6,1.0,1.0,300.0,867.0,1.0,1,-1037.0,1
1050,1050,0.011257397832942218,0.0,1.0,1.0,285.0,695.0,0.0,0,4020.0,0
1051,1051,-0.2766242499377499,-0.3,1.0,0.0,377.0,706.0,0.0,0,3917.0,1
1052,1052,0.030436627002955352,0.0,1.0,1.0,475.0,603.0,0.0,0,-1018.0,0
1053,1053,0.2765080325380068,0.3,1.0,1.0,328.0,829.0,0.0,0,3843.0,0
1054,1054,-0.43842257362156273,-0.4,0.0,1.0,322.0,774.0,0.0,1,3904.0,0
1055,1055,-0.030774798333098152,-0.0,1.0,0.0,431.0,614.0,0.0,0,-1035.0,1
1056,1056,0.8084323293308943,0.8,0.0,0.0,479.0,673.0,0.0,1,3848.0,1
1057,1057,0.2250387670091497,0.2,0.0,0.0,304.0,960.0,1.0,0,-1154.0,0
1058,1058,0.6551145568588651,0.7,1.0,1.0,380.0,752.0,0.0,0,3868.0,0
1059,1059,0.48191551697522217,0.5,1.0,1.0,307.0,849.0,0.0,0,3844.0,0
1060,1060,0.6500755474393441,0.7,0.0,0.0,445.0,722.0,0.0,1,3833.0,1
1061,1061,0.19760976348798975,0.2,1.0,1.0,468.0,514.0,0.0,0,4018.0,0
1062,1062,-0.6692549798579006,-0.7,1.0,0.0,333.0,970.0,0.0,0,3697.0,1
1063,1063,-0.7868966626399314,-0.8,0.0,1.0,302.0,750.0,0.0,1,3948.0,0
1064,1064,0.09255081575019175,0.1,1.0,1.0,324.0,885.0,0.0,0,3791.0,0
1065,1065,-0.6682354678823244,-0.7,0.0,1.0,267.0,627.0,0.0,1,4106.0,0
1066,1066,0.24515785610173524,0.2,1.0,1.0,362.0,539.0,0.0,0,4099.0,0
1067,1067,0.5240282378971964,0.5,1.0,1.0,495.0,830.0,0.0,0,3675.0,0
1068,1068,-0.4393964998274761,-0.4,0.0,1.0,354.0,776.0,0.0,1,3870.0,0
1069,1069,-0.40219722053562496,-0.4,1.0,0.0,296.0,915.0,0.0,0,3789.0,1
1070,1070,-0.1277477795213211,-0.1,0.0,1.0,268.0,860.0,0.0,1,3872.0,0
1071,1071,-0.8944696587718565,-0.9,0.0,1.0,253.0,764.0,0.0,1,3983.0,0
1072,1072,0.6012890217168655,0.6,1.0,1.0,256.0,772.0,0.0,0,3972.0,0
1073,1073,-0.8997400406310928,-0.9,0.0,1.0,441.0,730.0,0.0,1,3829.0,0
1074,1074,0.6082194931008792,0.6,0.0,0.0,294.0,903.0,0.0,1,3803.0,1
1075,1075,-0.6086349837979723,-0.6,1.0,0.0,426.0,944.0,0.0,0,3630.0,1
1076,1076,-0.3828597250584319,-0.4,0.0,1.0,278.0,631.0,0.0,1,4091.0,0
1077,1077,-0.4626180878167666,-0.5,1.0,0.0,420.0,535.0,0.0,0,4045.0,1
1078,1078,-0.6058806759136042,-0.6,1.0,0.0,419.0,997.0,0.0,0,3584.0,1
1079,1079,-0.007902110258022343,-0.0,1.0,0.0,265.0,515.0,0.0,0,4220.0,1
1080,1080,-0.8213768008118058,-0.8,0.0,1.0,445.0,888.0,0.0,1,3667.0,0
1081,1081,0.0011125448781642566,0.0,0.0,0.0,448.0,727.0,0.0,1,3825.0,1
1082,1082,-0.600861129022484,-0.6,1.0,0.0,490.0,924.0,0.0,0,3586.0,1
1083,1083,0.8668205756656596,0.9,1.0,1.0,386.0,689.0,0.0,0,3925.0,0
1084,1084,-0.17950658522606688,-0.2,1.0,0.0,433.0,807.0,0.0,0,3760.0,1
1085,1085,-0.8608987399702941,-0.9,0.0,1.0,492.0,505.0,0.0,1,-907.0,0
1086,1086,-0.6680137648033655,-0.7,0.0,1.0,332.0,761.0,1.0,0,-863.0,1
1087,1087,0.026496191385383838,0.0,1.0,1.0,371.0,946.0,0.0,0,3683.0,0
1088,1088,0.8341099707748482,0.8,1.0,1.0,485.0,621.0,0.0,0,3894.0,0
1089,1089,-0.203851888224596,-0.2,0.0,1.0,432.0,513.0,0.0,1,4055.0,0
1090,1090,-0.11462009637897852,-0.1,0.0,1.0,356.0,673.0,0.0,1,3971.0,0
1091,1091,-0.12813860534735932,-0.1,0.0,1.0,352.0,572.0,0.0,1,4076.0,0
1092,1092,0.057713675778126694,0.1,0.0,0.0,417.0,774.0,1.0,0,-991.0,0
1093,1093,0.06000437406836334,0.1,0.0,0.0,491.0,937.0,0.0,1,3572.0,1
1094,1094,-0.19448364247374916,-0.2,1.0,0.0,389.0,900.0,0.0,0,3711.0,1
1095,1095,-0.3340827898163551,-0.3,1.0,0.0,274.0,981.0,0.0,0,3745.0,1
1096,1096,-0.8700890610988699,-0.9,1.0,0.0,284.0,795.0,0.0,0,3921.0,1
1097,1097,0.3241517231263441,0.3,0.0,0.0,428.0,755.0,0.0,1,3817.0,1
1098,1098,0.1286391489197639,0.1,0.0,0.0,429.0,976.0,0.0,1,3595.0,1
1099,1099,-0.7059208850847846,-0.7,1.0,0.0,336.0,768.0,0.0,0,3896.0,1
1100,1100,-0.4949583384193839,-0.5,1.0,0.0,371.0,771.0,0.0,0,3858.0,1
1101,1101,0.05985140666418454,0.1,0.0,0.0,429.0,819.0,0.0,1,3752.0,1
1102,1102,-0.6024466812326063,-0.6,0.0,1.0,352.0,862.0,0.0,1,3786.0,0
1103,1103,0.5870838813937617,0.6,1.0,1.0,429.0,910.0,0.0,0,3661.0,0
1104,1104,-0.6047204770025059,-0.6,0.0,1.0,387.0,616.0,0.0,1,3997.0,0
1105,1105,-0.13913026815445206,-0.1,0.0,1.0,477.0,818.0,0.0,1,3705.0,0
1106,1106,0.06282197205215789,0.1,0.0,0.0,251.0,571.0,0.0,1,4178.0,1
1107,1107,-0.1897680019723753,-0.2,1.0,0.0,399.0,754.0,0.0,0,3847.0,1
1108,1108,0.3949820977355508,0.4,1.0,1.0,371.0,856.0,0.0,0,3773.0,0
1109,1109,-0.018495095742096512,-0.0,0.0,1.0,348.0,892.0,0.0,1,3760.0,0
1110,1110,0.6904748533140911,0.7,1.0,1.0,250.0,893.0,0.0,0,3857.0,0
1111,1111,-0.13603571337555576,-0.1,1.0,0.0,464.0,775.0,0.0,0,3761.0,1
1112,1112,-0.8367395511363636,-0.8,0.0,1.0,395.0,691.0,0.0,1,3914.0,0
1113,1113,0.2039857174342995,0.2,1.0,1.0,395.0,826.0,0.0,0,3779.0,0
1114,1114,0.2488167734652259,0.2,0.0,0.0,383.0,942.0,0.0,1,3675.0,1
1115,1115,-0.013659919965732792,-0.0,1.0,0.0,429.0,666.0,0.0,0,3905.0,1
1116,1116,0.24452802581827238,0.2,1.0,1.0,374.0,706.0,0.0,0,3920.0,0
1117,1117,0.19024117888781833,0.2,1.0,1.0,445.0,805.0,0.0,0,3750.0,0
1118,1118,-0.42234848012559617,-0.4,1.0,0.0,339.0,614.0,0.0,0,4047.0,1
1119,1119,0.5529286629997373,0.6,1.0,1.0,408.0,818.0,0.0,0,3774.0,0
1120,1120,0.8188178169022203,0.8,1.0,1.0,498.0,963.0,0.0,0,3539.0,0
1121,1121,0.6469062823750037,0.6,1.0,1.0,453.0,709.0,0.0,0,3838.0,0
1122,1122,0.4152645895601387,0.4,0.0,0.0,450.0,695.0,0.0,1,3855.0,1
1123,1123,0.5183755602584575,0.5,1.0,1.0,329.0,836.0,0.0,0,3835.0,0
1124,1124,0.8339534311233961,0.8,0.0,0.0,295.0,565.0,0.0,1,4140.0,1
1125,1125,-0.04556849164176424,-0.0,0.0,1.0,434.0,863.0,0.0,1,3703.0,0
1126,1126,0.17145095487460116,0.2,0.0,0.0,324.0,840.0,0.0,1,3836.0,1
1127,1127,0.3056651135355283,0.3,1.0,1.0,435.0,673.0,0.0,0,3892.0,0
1128,1128,0.22340822661510884,0.2,0.0,0.0,469.0,655.0,0.0,1,3876.0,1
1129,1129,0.7656830177942208,0.8,1.0,1.0,382.0,859.0,0.0,0,-1201.0,0
1130,1130,-0.7334160767389258,-0.7,1.0,0.0,393.0,614.0,0.0,0,-1007.0,1
1131,1131,-0.5600966384245185,-0.6,1.0,0.0,442.0,562.0,0.0,0,3996.0,1
1132,1132,0.4261195136549959,0.4,0.0,0.0,495.0,761.0,0.0,1,3744.0,1
1133,1133,-0.27105783793922456,-0.3,0.0,1.0,470.0,595.0,0.0,1,3935.0,0
1134,1134,0.7735912765048251,0.8,1.0,1.0,426.0,902.0,1.0,1,-1178.0,1
1135,1135,0.5677348607464417,0.6,0.0,0.0,280.0,866.0,0.0,1,3854.0,1
1136,1136,-0.29051394336180236,-0.3,0.0,1.0,355.0,546.0,0.0,1,4099.0,0
1137,1137,-0.08055360722132332,-0.1,1.0,0.0,468.0,955.0,0.0,0,3577.0,1
1138,1138,0.722334074489046,0.7,0.0,0.0,466.0,538.0,0.0,1,3996.0,1
1139,1139,-0.2434554456187763,-0.2,0.0,1.0,409.0,543.0,0.0,1,4048.0,0
1140,1140,0.6730647399976571,0.7,0.0,0.0,472.0,578.0,1.0,0,-940.0,0
1141,1141,0.29139153601970735,0.3,0.0,0.0,330.0,731.0,0.0,1,3939.0,1
1142,1142,-0.6770815715182382,-0.7,1.0,0.0,475.0,795.0,0.0,0,3730.0,1
1143,1143,-0.1898931862850728,-0.2,0.0,1.0,374.0,670.0,0.0,1,3956.0,0
1144,1144,0.23950406571611638,0.2,0.0,0.0,444.0,583.0,0.0,1,3973.0,1
1145,1145,-0.758475405402456,-0.8,1.0,0.0,470.0,825.0,0.0,0,3705.0,1
1146,1146,0.27570176979031447,0.3,1.0,1.0,280.0,930.0,0.0,0,3790.0,0
1147,1147,-0.54800978637286,-0.5,1.0,0.0,314.0,848.0,0.0,0,3838.0,1
1148,1148,0.8126750889293152,0.8,0.0,0.0,379.0,878.0,0.0,1,3743.0,1
1149,1149,0.654851725882278,0.7,1.0,1.0,286.0,889.0,0.0,0,3825.0,0
1150,1150,-0.6477272272413421,-0.6,0.0,1.0,282.0,959.0,0.0,1,3759.0,0
1151,1151,-0.5983971441070701,-0.6,0.0,1.0,431.0,763.0,0.0,1,3806.0,0
1152,1152,-0.8861519401188198,-0.9,1.0,0.0,455.0,685.0,0.0,0,3860.0,1
1153,1153,-0.5998560929768268,-0.6,1.0,0.0,307.0,758.0,0.0,0,3935.0,1
1154,1154,-0.6228483423977706,-0.6,1.0,0.0,297.0,895.0,0.0,0,3808.0,1
1155,1155,0.3036023383819516,0.3,0.0,0.0,373.0,677.0,0.0,1,3950.0,1
1156,1156,-0.1663813961929379,-0.2,1.0,0.0,388.0,858.0,0.0,0,3754.0,1
1157,1157,-0.7264503749570773,-0.7,0.0,1.0,315.0,815.0,0.0,1,3870.0,0
1158,1158,0.06682662285187702,0.1,1.0,1.0,457.0,859.0,0.0,0,-1206.0,0
1159,1159,0.6086851758363713,0.6,0.0,0.0,464.0,691.0,0.0,1,3845.0,1
1160,1160,-0.4884892115117387,-0.5,0.0,1.0,444.0,513.0,0.0,1,4043.0,0
1161,1161,-0.17478221018206352,-0.2,1.0,0.0,382.0,692.0,0.0,0,3926.0,1
1162,1162,0.8116858098125223,0.8,1.0,1.0,434.0,697.0,0.0,0,3869.0,0
1163,1163,0.715881235535128,0.7,1.0,1.0,270.0,590.0,0.0,0,4140.0,0
1164,1164,-0.593269018722401,-0.6,0.0,1.0,350.0,800.0,0.0,1,3850.0,0
1165,1165,-0.5332738488081805,-0.5,0.0,1.0,286.0,730.0,0.0,1,3984.0,0
1166,1166,-0.1824301935414615,-0.2,1.0,0.0,413.0,964.0,0.0,0,3623.0,1
1167,1167,-0.657265040989083,-0.7,0.0,1.0,493.0,991.0,0.0,1,3516.0,0
1168,1168,0.4192993166986817,0.4,0.0,0.0,459.0,546.0,0.0,1,3995.0,1
1169,1169,0.1804386851718346,0.2,1.0,1.0,323.0,676.0,0.0,0,4001.0,0
1170,1170,-0.6111587108132219,-0.6,1.0,0.0,459.0,842.0,0.0,0,3699.0,1
1171,1171,-0.42760676260419456,-0.4,0.0,1.0,454.0,617.0,0.0,1,3929.0,0
1172,1172,-0.12720324552904372,-0.1,0.0,1.0,469.0,710.0,0.0,1,3821.0,0
1173,1173,-0.8595918798258129,-0.9,0.0,1.0,416.0,666.0,0.0,1,3918.0,0
1174,1174,0.10135327012596729,0.1,1.0,1.0,295.0,944.0,0.0,0,3761.0,0
1175,1175,0.6017117849382477,0.6,1.0,1.0,371.0,933.0,0.0,0,3696.0,0
1176,1176,-0.09677727846990969,-0.1,0.0,1.0,287.0,704.0,0.0,1,4009.0,0
1177,1177,0.2044935404123075,0.2,0.0,0.0,425.0,564.0,0.0,1,4011.0,1
1178,1178,-0.2610806175905177,-0.3,0.0,1.0,495.0,615.0,0.0,1,3890.0,0
1179,1179,0.4385972215366932,0.4,1.0,1.0,415.0,745.0,0.0,0,3840.0,0
1180,1180,0.41103179815417124,0.4,0.0,0.0,352.0,583.0,0.0,1,4065.0,1
1181,1181,-0.8895171999080286,-0.9,1.0,0.0,325.0,949.0,1.0,1,-1274.0,0
1182,1182,-0.3438645453508178,-0.3,1.0,0.0,493.0,639.0,0.0,0,3868.0,1
1183,1183,0.6797520260212778,0.7,1.0,1.0,484.0,808.0,0.0,0,3708.0,0
1184,1184,-0.30205035244344725,-0.3,0.0,1.0,354.0,929.0,0.0,1,3717.0,0
1185,1185,-0.7160743003538299,-0.7,0.0,1.0,378.0,901.0,0.0,1,3721.0,0
1186,1186,0.6963538066236105,0.7,0.0,0.0,355.0,596.0,0.0,1,4049.0,1
1187,1187,-0.029321395262850936,-0.0,0.0,1.0,289.0,900.0,0.0,1,3811.0,0
1188,1188,0.8475407731898609,0.8,1.0,1.0,273.0,986.0,0.0,0,3741.0,0
1189,1189,0.6372345837124483,0.6,0.0,0.0,473.0,601.0,0.0,1,3926.0,1
1190,1190,0.18058374201121008,0.2,1.0,1.0,364.0,665.0,0.0,0,3971.0,0
1191,1191,0.23976247461985867,0.2,1.0,1.0,450.0,868.0,0.0,0,3682.0,0
1192,1192,-0.548390736935569,-0.5,1.0,0.0,378.0,726.0,0.0,0,3896.0,1
1193,1193,-0.7780996340039907,-0.8,1.0,0.0,329.0,962.0,0.0,0,3709.0,1
1194,1194,-0.4265623248356511,-0.4,1.0,0.0,454.0,559.0,0.0,0,-913.0,1
1195,1195,-0.3694960474315605,-0.4,0.0,1.0,421.0,621.0,0.0,1,-902.0,0
1196,1196,0.2262870011588144,0.2,1.0,1.0,490.0,820.0,0.0,0,3690.0,0
1197,1197,0.35522051740805705,0.4,0.0,0.0,280.0,502.0,0.0,1,4218.0,1
1198,1198,0.4942276583153743,0.5,1.0,1.0,306.0,527.0,0.0,0,4167.0,0
1199,1199,0.35380945977732303,0.4,1.0,1.0,371.0,854.0,0.0,0,3775.0,0
1200,1200,0.5678755583902674,0.6,1.0,1.0,407.0,667.0,0.0,0,3926.0,0
1201,1201,0.8591738033362192,0.9,0.0,0.0,287.0,838.0,0.0,1,3875.0,1
1202,1202,-0.4597067958399208,-0.5,0.0,1.0,396.0,921.0,0.0,1,3683.0,0
1203,1203,0.4094980755037575,0.4,0.0,0.0,438.0,768.0,0.0,1,3794.0,1
1204,1204,0.8249497569191534,0.8,0.0,0.0,486.0,916.0,0.0,1,3598.0,1
1205,1205,-0.5500609641766347,-0.6,0.0,1.0,498.0,717.0,0.0,1,3785.0,0
1206,1206,0.4845109484501401,0.5,0.0,0.0,477.0,929.0,0.0,1,3594.0,1
1207,1207,-0.48276323128862786,-0.5,1.0,0.0,416.0,597.0,0.0,0,3987.0,1
1208,1208,0.29763251993097584,0.3,1.0,1.0,309.0,827.0,0.0,0,3864.0,0
1209,1209,-0.3726844815953513,-0.4,0.0,1.0,407.0,978.0,1.0,0,-1365.0,1
1210,1210,0.2250062221308432,0.2,0.0,0.0,284.0,841.0,0.0,1,3875.0,1
1211,1211,-0.5821294464492979,-0.6,1.0,0.0,398.0,698.0,0.0,0,3904.0,1
1212,1212,0.8357432378641204,0.8,1.0,1.0,254.0,959.0,0.0,0,3787.0,0
1213,1213,-0.8751447867928999,-0.9,0.0,1.0,488.0,812.0,0.0,1,3700.0,0
1214,1214,-0.5736347702805296,-0.6,1.0,0.0,355.0,562.0,0.0,0,4083.0,1
1215,1215,0.6211525314198533,0.6,1.0,1.0,441.0,958.0,0.0,0,3601.0,0
1216,1216,-0.6015982320843917,-0.6,1.0,0.0,294.0,937.0,0.0,0,3769.0,1
1217,1217,-0.3696138006995622,-0.4,0.0,1.0,342.0,576.0,0.0,1,4082.0,0
1218,1218,0.18110100251591177,0.2,0.0,0.0,292.0,804.0,0.0,1,3904.0,1
1219,1219,0.6477990422800303,0.6,0.0,0.0,407.0,711.0,0.0,1,3882.0,1
1220,1220,-0.6596195942677789,-0.7,0.0,1.0,384.0,588.0,0.0,1,4028.0,0
1221,1221,-0.3925169911024322,-0.4,1.0,0.0,298.0,558.0,0.0,0,4144.0,1
1222,1222,-0.30572475306865465,-0.3,0.0,1.0,312.0,890.0,0.0,1,3798.0,0
1223,1223,-0.7244591729210758,-0.7,1.0,0.0,271.0,596.0,0.0,0,4133.0,1
1224,1224,0.5342238425162388,0.5,0.0,0.0,286.0,564.0,0.0,1,4150.0,1
1225,1225,0.6905213248699512,0.7,0.0,0.0,491.0,705.0,0.0,1,3804.0,1
1226,1226,-0.054603560127884254,-0.1,0.0,1.0,305.0,758.0,0.0,1,3937.0,0
1227,1227,-0.07847338600475584,-0.1,1.0,0.0,403.0,956.0,0.0,0,3641.0,1
1228,1228,-0.5936633300768818,-0.6,1.0,0.0,410.0,928.0,0.0,0,3662.0,1
1229,1229,0.08869691537079571,0.1,0.0,0.0,337.0,723.0,0.0,1,3940.0,1
1230,1230,-0.8662495514959381,-0.9,0.0,1.0,466.0,856.0,1.0,0,-1302.0,1
1231,1231,0.4742424550060512,0.5,0.0,0.0,259.0,740.0,0.0,1,4001.0,1
1232,1232,0.3790740383770329,0.4,1.0,1.0,291.0,980.0,0.0,0,3729.0,0
1233,1233,-0.7150133310745179,-0.7,1.0,0.0,419.0,675.0,0.0,0,3906.0,1
1234,1234,0.030592289135426,0.0,1.0,1.0,390.0,959.0,0.0,0,3651.0,0
1235,1235,-0.4200913454092891,-0.4,0.0,1.0,416.0,772.0,0.0,1,3812.0,0
1236,1236,0.7043650241753369,0.7,1.0,1.0,348.0,965.0,0.0,0,3687.0,0
1237,1237,0.5180933221922795,0.5,0.0,0.0,354.0,931.0,0.0,1,3715.0,1
1238,1238,-0.21904848651283904,-0.2,0.0,1.0,499.0,778.0,0.0,1,3723.0,0
1239,1239,0.2511903014201867,0.3,0.0,0.0,416.0,649.0,0.0,1,3935.0,1
1240,1240,0.47570868467592675,0.5,1.0,1.0,341.0,727.0,0.0,0,3932.0,0
1241,1241,-0.1967480093822639,-0.2,1.0,0.0,475.0,516.0,0.0,0,4009.0,1
1242,1242,0.7179107907127983,0.7,0.0,0.0,293.0,982.0,0.0,1,3725.0,1
1243,1243,0.049779495386793715,0.0,0.0,0.0,446.0,839.0,0.0,1,3715.0,1
1244,1244,-0.2823306983831586,-0.3,1.0,0.0,459.0,655.0,0.0,0,3886.0,1
1245,1245,0.7372914615125473,0.7,1.0,1.0,359.0,886.0,0.0,0,3755.0,0
1246,1246,0.1268004613240824,0.1,0.0,0.0,444.0,960.0,0.0,1,-1314.0,1
1247,1247,-0.23132593248972166,-0.2,1.0,0.0,354.0,647.0,0.0,0,3999.0,1
1248,1248,-0.7565105092179074,-0.8,1.0,0.0,360.0,630.0,0.0,0,4010.0,1
1249,1249,-0.6795969330810907,-0.7,1.0,0.0,359.0,659.0,0.0,0,3982.0,1
1250,1250,0.6942139319146651,0.7,0.0,0.0,420.0,661.0,0.0,1,3919.0,1
1251,1251,-0.7274253340368373,-0.7,1.0,0.0,421.0,986.0,0.0,0,3593.0,1
1252,1252,0.06607516527438595,0.1,0.0,0.0,447.0,839.0,0.0,1,3714.0,1
1253,1253,0.7628984759672258,0.8,1.0,1.0,396.0,964.0,1.0,1,-1160.0,1
1254,1254,0.6127956928631767,0.6,1.0,1.0,392.0,725.0,0.0,0,-1077.0,0
1255,1255,0.8414373171961743,0.8,0.0,0.0,261.0,904.0,0.0,1,3835.0,1
1256,1256,-0.2035404143206917,-0.2,0.0,1.0,255.0,728.0,0.0,1,4017.0,0
1257,1257,-0.10743664514697926,-0.1,1.0,0.0,288.0,708.0,0.0,0,4004.0,1
1258,1258,-0.2815488588537083,-0.3,1.0,0.0,325.0,737.0,0.0,0,3938.0,1
1259,1259,0.8905139748591785,0.9,1.0,1.0,477.0,722.0,0.0,0,3801.0,0
1260,1260,-0.8072125384810676,-0.8,1.0,0.0,430.0,517.0,0.0,0,4053.0,1
1261,1261,0.23491837617176048,0.2,0.0,0.0,455.0,759.0,0.0,1,3786.0,1
1262,1262,0.6364788179809345,0.6,0.0,0.0,415.0,820.0,0.0,1,3765.0,1
1263,1263,-0.08558128909334539,-0.1,0.0,1.0,480.0,847.0,0.0,1,3673.0,0
1264,1264,-0.158054772687518,-0.2,0.0,1.0,312.0,891.0,0.0,1,3797.0,0
1265,1265,-0.7412985538832035,-0.7,0.0,1.0,408.0,501.0,0.0,1,4091.0,0
1266,1266,0.11146029490561993,0.1,0.0,0.0,270.0,712.0,0.0,1,4018.0,1
1267,1267,0.8209735026674193,0.8,0.0,0.0,252.0,518.0,1.0,0,-680.0,0
1268,1268,-0.5239828794706983,-0.5,0.0,1.0,373.0,529.0,0.0,1,4098.0,0
1269,1269,-0.47833284929608344,-0.5,0.0,1.0,464.0,797.0,0.0,1,3739.0,0
1270,1270,0.19744694942078633,0.2,0.0,0.0,357.0,902.0,0.0,1,3741.0,1
1271,1271,-0.7938656867433798,-0.8,0.0,1.0,475.0,977.0,0.0,1,3548.0,0
1272,1272,0.009966681636459196,0.0,0.0,0.0,483.0,881.0,0.0,1,3636.0,1
1273,1273,0.18203871069760102,0.2,0.0,0.0,468.0,726.0,0.0,1,3806.0,1
1274,1274,0.18129784762561763,0.2,1.0,1.0,494.0,871.0,0.0,0,3635.0,0
1275,1275,0.7195842864841856,0.7,0.0,0.0,258.0,755.0,0.0,1,3987.0,1
1276,1276,0.6176995924872758,0.6,0.0,0.0,449.0,841.0,0.0,1,3710.0,1
1277,1277,0.4704624427539953,0.5,1.0,1.0,421.0,620.0,0.0,0,3959.0,0
1278,1278,-0.042361401636967444,-0.0,0.0,1.0,323.0,920.0,0.0,1,3757.0,0
1279,1279,0.23900649132869678,0.2,0.0,0.0,420.0,925.0,0.0,1,-1185.0,1
1280,1280,0.886293078642964,0.9,0.0,0.0,485.0,838.0,0.0,1,3677.0,1
1281,1281,0.023533366963954472,0.0,0.0,0.0,275.0,959.0,0.0,1,3766.0,1
1282,1282,0.7826174450381768,0.8,1.0,1.0,428.0,574.0,0.0,0,3998.0,0
1283,1283,-0.052792984043308344,-0.1,0.0,1.0,298.0,654.0,0.0,1,-952.0,0
1284,1284,0.48821247801152123,0.5,1.0,1.0,494.0,932.0,0.0,0,3574.0,0
1285,1285,0.2759923586536589,0.3,1.0,1.0,303.0,583.0,0.0,0,4114.0,0
1286,1286,-0.7302964860284239,-0.7,1.0,0.0,313.0,624.0,0.0,0,4063.0,1
1287,1287,0.12053153897233859,0.1,1.0,1.0,307.0,820.0,0.0,0,3873.0,0
1288,1288,-0.5958728407935849,-0.6,1.0,0.0,458.0,936.0,0.0,0,3606.0,1
1289,1289,-0.21004795854660785,-0.2,1.0,0.0,458.0,914.0,0.0,0,3628.0,1
1290,1290,0.5195160670733353,0.5,0.0,0.0,432.0,863.0,0.0,1,3705.0,1
1291,1291,0.8691648758264746,0.9,1.0,1.0,486.0,764.0,0.0,0,3750.0,0
1292,1292,-0.3011688663751261,-0.3,0.0,1.0,284.0,751.0,0.0,1,3965.0,0
1293,1293,-0.7147421681362097,-0.7,1.0,0.0,269.0,531.0,0.0,0,4200.0,1
1294,1294,0.04946518308597547,0.0,0.0,0.0,427.0,781.0,0.0,1,3792.0,1
1295,1295,-0.4228464305363903,-0.4,0.0,1.0,426.0,817.0,1.0,0,-1163.0,1
1296,1296,0.7172459792062095,0.7,1.0,1.0,320.0,796.0,0.0,0,3884.0,0
1297,1297,0.2633151255202847,0.3,1.0,1.0,254.0,780.0,0.0,0,3966.0,0
1298,1298,-0.23950511858439705,-0.2,1.0,0.0,395.0,596.0,0.0,0,4009.0,1
1299,1299,-0.5029002336971613,-0.5,1.0,0.0,267.0,652.0,0.0,0,-839.0,1
1300,1300,-0.5971960737303568,-0.6,1.0,0.0,286.0,854.0,0.0,0,3860.0,1
1301,1301,0.08295032021330417,0.1,1.0,1.0,254.0,521.0,0.0,0,4225.0,0
1302,1302,0.8516442011868451,0.9,1.0,1.0,402.0,722.0,0.0,0,3876.0,0
1303,1303,-0.6323753583983707,-0.6,1.0,0.0,464.0,912.0,0.0,0,3624.0,1
1304,1304,0.20094502367910672,0.2,1.0,1.0,362.0,828.0,0.0,0,-1150.0,0
1305,1305,-0.06458837993472433,-0.1,0.0,1.0,410.0,669.0,0.0,1,3921.0,0
1306,1306,-0.7394527872248717,-0.7,0.0,1.0,360.0,619.0,0.0,1,4021.0,0
1307,1307,0.4325657192694258,0.4,0.0,0.0,490.0,679.0,0.0,1,3831.0,1
1308,1308,-0.6189465413808375,-0.6,0.0,1.0,282.0,527.0,0.0,1,4191.0,0
1309,1309,-0.31565589468155986,-0.3,0.0,1.0,392.0,801.0,0.0,1,3807.0,0
1310,1310,-0.6481051255937629,-0.6,0.0,1.0,267.0,601.0,0.0,1,4132.0,0
1311,1311,-0.7600723048977822,-0.8,0.0,1.0,438.0,873.0,0.0,1,-1251.0,0
1312,1312,-0.6605519766039214,-0.7,1.0,0.0,269.0,906.0,1.0,1,-1165.0,0
1313,1313,-0.015374721796098334,-0.0,1.0,0.0,300.0,553.0,0.0,0,4147.0,1
1314,1314,0.7292090016383833,0.7,0.0,0.0,368.0,537.0,0.0,1,4095.0,1
1315,1315,-0.748004369465664,-0.7,0.0,1.0,467.0,927.0,0.0,1,3606.0,0
1316,1316,-0.33072390137826535,-0.3,0.0,1.0,478.0,943.0,0.0,1,3579.0,0
1317,1317,-0.2200252569901242,-0.2,0.0,1.0,403.0,697.0,0.0,1,-1100.0,0
1318,1318,0.02496871701139436,0.0,1.0,1.0,304.0,703.0,1.0,1,-967.0,1
1319,1319,0.7314369939650452,0.7,0.0,0.0,470.0,946.0,0.0,1,3584.0,1
1320,1320,0.14904694437027988,0.1,1.0,1.0,270.0,691.0,0.0,0,-901.0,0
1321,1321,-0.08559241819454222,-0.1,0.0,1.0,345.0,871.0,0.0,1,3784.0,0
1322,1322,-0.23507995141584337,-0.2,1.0,0.0,332.0,819.0,0.0,0,3849.0,1
1323,1323,-0.10472614861263563,-0.1,0.0,1.0,350.0,754.0,0.0,1,3896.0,0
1324,1324,-0.05166495456097475,-0.1,0.0,1.0,305.0,984.0,0.0,1,3711.0,0
1325,1325,-0.20453174112736106,-0.2,1.0,0.0,326.0,997.0,1.0,1,-1273.0,0
1326,1326,0.6682188654131561,0.7,0.0,0.0,320.0,736.0,0.0,1,3944.0,1
1327,1327,0.7548797610049757,0.8,0.0,0.0,332.0,846.0,0.0,1,3822.0,1
1328,1328,-0.43634550513103126,-0.4,1.0,0.0,345.0,911.0,0.0,0,3744.0,1
1329,1329,-0.41334179738652327,-0.4,1.0,0.0,444.0,508.0,0.0,0,4048.0,1
1330,1330,-0.7637316686870574,-0.8,1.0,0.0,421.0,760.0,0.0,0,-1121.0,1
1331,1331,0.09336339008989647,0.1,1.0,1.0,326.0,668.0,0.0,0,4006.0,0
1332,1332,-0.7597423108947767,-0.8,1.0,0.0,251.0,972.0,0.0,0,3777.0,1
1333,1333,0.2249284092669971,0.2,0.0,0.0,379.0,972.0,0.0,1,3649.0,1
1334,1334,0.6729703014569989,0.7,1.0,1.0,475.0,794.0,0.0,0,3731.0,0
1335,1335,0.8332814438071688,0.8,0.0,0.0,419.0,592.0,0.0,1,3989.0,1
1336,1336,-0.08894297414909857,-0.1,0.0,1.0,400.0,726.0,0.0,1,3874.0,0
1337,1337,0.8192686348714552,0.8,1.0,1.0,269.0,798.0,0.0,0,3933.0,0
1338,1338,-0.572897486674832,-0.6,0.0,1.0,497.0,969.0,0.0,1,3534.0,0
1339,1339,-0.6934614902893304,-0.7,1.0,0.0,466.0,612.0,0.0,0,3922.0,1
1340,1340,0.2671120195044633,0.3,1.0,1.0,274.0,617.0,0.0,0,4109.0,0
1341,1341,0.2574210132328799,0.3,0.0,0.0,262.0,588.0,0.0,1,4150.0,1
1342,1342,-0.26971090932577,-0.3,1.0,0.0,499.0,692.0,0.0,0,3809.0,1
1343,1343,-0.7816393422918027,-0.8,1.0,0.0,454.0,733.0,0.0,0,3813.0,1
1344,1344,-0.8016936712671068,-0.8,0.0,1.0,496.0,950.0,0.0,1,3554.0,0
1345,1345,0.6449798425904835,0.6,0.0,0.0,443.0,733.0,0.0,1,3824.0,1
1346,1346,0.8380478949996834,0.8,1.0,1.0,416.0,736.0,0.0,0,3848.0,0
1347,1347,0.5113755506823926,0.5,0.0,0.0,310.0,572.0,0.0,1,4118.0,1
1348,1348,0.17454117750170284,0.2,1.0,1.0,389.0,813.0,0.0,0,-1002.0,0
1349,1349,-0.4768168051007055,-0.5,0.0,1.0,371.0,541.0,0.0,1,4088.0,0
1350,1350,0.5948380630362199,0.6,1.0,1.0,250.0,520.0,0.0,0,-710.0,0
1351,1351,-0.47744209428570616,-0.5,0.0,1.0,401.0,626.0,0.0,1,3973.0,0
1352,1352,-0.42413626725638365,-0.4,0.0,1.0,282.0,685.0,0.0,1,4033.0,0
1353,1353,0.2504118401328873,0.3,0.0,0.0,328.0,559.0,0.0,1,4113.0,1
1354,1354,0.15648105043523908,0.2,1.0,1.0,295.0,548.0,0.0,0,4157.0,0
1355,1355,-0.4996979411810232,-0.5,0.0,1.0,412.0,619.0,0.0,1,3969.0,0
1356,1356,0.5897420572129447,0.6,1.0,1.0,451.0,973.0,0.0,0,3576.0,0
1357,1357,0.8827056682064672,0.9,0.0,0.0,427.0,501.0,0.0,1,4072.0,1
1358,1358,0.45493568979442245,0.5,1.0,1.0,452.0,687.0,0.0,0,3861.0,0
1359,1359,0.33806828941840117,0.3,1.0,1.0,278.0,596.0,0.0,0,4126.0,0
1360,1360,-0.41702001146122414,-0.4,1.0,0.0,324.0,728.0,0.0,0,3948.0,1
1361,1361,0.0926742718242437,0.1,0.0,0.0,292.0,930.0,0.0,1,3778.0,1
1362,1362,-0.08262611694692368,-0.1,0.0,1.0,416.0,663.0,0.0,1,3921.0,0
1363,1363,0.1999673206178335,0.2,1.0,1.0,299.0,648.0,0.0,0,4053.0,0
1364,1364,-0.23430882542595743,-0.2,1.0,0.0,387.0,619.0,0.0,0,3994.0,1
1365,1365,0.7648990106236851,0.8,0.0,0.0,335.0,603.0,0.0,1,4062.0,1
1366,1366,0.3935589769686577,0.4,0.0,0.0,268.0,760.0,0.0,1,3972.0,1
1367,1367,0.28545916963037,0.3,0.0,0.0,320.0,926.0,0.0,1,3754.0,1
1368,1368,0.33171591562148584,0.3,0.0,0.0,380.0,938.0,0.0,1,3682.0,1
1369,1369,-0.20342251510765808,-0.2,1.0,0.0,444.0,630.0,0.0,0,3926.0,1
1370,1370,0.12433301961826315,0.1,1.0,1.0,285.0,577.0,0.0,0,4138.0,0
1371,1371,-0.7597830936288923,-0.8,0.0,1.0,466.0,680.0,0.0,1,3854.0,0
1372,1372,-0.7332104407159186,-0.7,0.0,1.0,342.0,794.0,0.0,1,3864.0,0
1373,1373,0.5510495180198131,0.6,1.0,1.0,257.0,878.0,0.0,0,3865.0,0
1374,1374,-0.387886993703501,-0.4,0.0,1.0,456.0,979.0,0.0,1,3565.0,0
1375,1375,0.5709417400323938,0.6,0.0,0.0,259.0,785.0,0.0,1,3956.0,1
1376,1376,-0.12191109100964015,-0.1,0.0,1.0,255.0,973.0,0.0,1,3772.0,0
1377,1377,0.3419158538522905,0.3,0.0,0.0,464.0,755.0,0.0,1,-1089.0,1
1378,1378,0.1888054336311481,0.2,1.0,1.0,462.0,728.0,0.0,0,3810.0,0
1379,1379,0.06680783819033698,0.1,0.0,0.0,283.0,586.0,0.0,1,4131.0,1
1380,1380,0.34790880956886083,0.3,0.0,0.0,332.0,513.0,0.0,1,4155.0,1
1381,1381,0.7693106742011994,0.8,1.0,1.0,362.0,671.0,0.0,0,3967.0,0
1382,1382,-0.07166683446477395,-0.1,0.0,1.0,375.0,649.0,0.0,1,3976.0,0
1383,1383,0.6014091783392957,0.6,0.0,0.0,467.0,702.0,0.0,1,3831.0,1
1384,1384,-0.08959071509000516,-0.1,0.0,1.0,434.0,876.0,0.0,1,3690.0,0
1385,1385,-0.003005442195499919,-0.0,1.0,0.0,287.0,797.0,0.0,0,3916.0,1
1386,1386,0.21382260893994476,0.2,1.0,1.0,489.0,826.0,0.0,0,3685.0,0
1387,1387,0.8850096747474162,0.9,1.0,1.0,352.0,840.0,0.0,0,3808.0,0
1388,1388,0.7830999096936203,0.8,0.0,0.0,293.0,526.0,0.0,1,4181.0,1
1389,1389,-0.36756262904286485,-0.4,1.0,0.0,397.0,752.0,0.0,0,3851.0,1
1390,1390,0.08457847175407474,0.1,1.0,1.0,393.0,624.0,1.0,1,-997.0,1
1391,1391,-0.23102721454810604,-0.2,0.0,1.0,488.0,983.0,0.0,1,3529.0,0
1392,1392,0.03159137845156823,0.0,1.0,1.0,401.0,561.0,0.0,0,4038.0,0
1393,1393,0.28348075794794825,0.3,0.0,0.0,451.0,594.0,0.0,1,3955.0,1
1394,1394,0.5675528006244855,0.6,0.0,0.0,482.0,902.0,0.0,1,3616.0,1
1395,1395,-0.3430786631501246,-0.3,0.0,1.0,414.0,819.0,0.0,1,3767.0,0
1396,1396,0.7015348650714713,0.7,0.0,0.0,305.0,772.0,0.0,1,3923.0,1
1397,1397,-0.8418285772255404,-0.8,1.0,0.0,250.0,505.0,1.0,1,-545.0,0
1398,1398,-0.6913943065598386,-0.7,1.0,0.0,339.0,607.0,0.0,0,4054.0,1
1399,1399,0.7002050053322039,0.7,1.0,1.0,480.0,831.0,0.0,0,3689.0,0
1400,1400,-0.7377272888130997,-0.7,0.0,1.0,428.0,907.0,1.0,0,-1275.0,1
1401,1401,0.786438140231715,0.8,1.0,1.0,488.0,520.0,0.0,0,3992.0,0
1402,1402,0.133471480222077,0.1,1.0,1.0,415.0,777.0,1.0,1,-1192.0,1
1403,1403,0.31244023678481037,0.3,0.0,0.0,290.0,842.0,0.0,1,3868.0,1
1404,1404,-0.008704712248131186,-0.0,0.0,1.0,260.0,686.0,0.0,1,4054.0,0
1405,1405,-0.009121481496866202,-0.0,1.0,0.0,291.0,554.0,0.0,0,4155.0,1
1406,1406,-0.16726787986501035,-0.2,0.0,1.0,266.0,618.0,0.0,1,4116.0,0
1407,1407,-0.5620341569257861,-0.6,1.0,0.0,426.0,971.0,0.0,0,3603.0,1
1408,1408,-0.5682181511578961,-0.6,0.0,1.0,251.0,970.0,1.0,0,-1121.0,1
1409,1409,0.687533792245521,0.7,0.0,0.0,471.0,700.0,0.0,1,3829.0,1
1410,1410,0.5604328750270214,0.6,1.0,1.0,436.0,684.0,0.0,0,3880.0,0
1411,1411,-0.8061277663633062,-0.8,0.0,1.0,388.0,892.0,0.0,1,3720.0,0
1412,1412,-0.4221455715917277,-0.4,0.0,1.0,354.0,967.0,0.0,1,3679.0,0
1413,1413,-0.10514034065304212,-0.1,1.0,0.0,399.0,940.0,0.0,0,3661.0,1
1414,1414,0.029580431408848806,0.0,0.0,0.0,324.0,851.0,0.0,1,3825.0,1
1415,1415,0.5940693572790755,0.6,0.0,0.0,363.0,892.0,0.0,1,3745.0,1
1416,1416,0.3036634086178248,0.3,0.0,0.0,482.0,782.0,0.0,1,3736.0,1
1417,1417,0.5409319770350681,0.5,0.0,0.0,291.0,891.0,0.0,1,3818.0,1
1418,1418,0.5380128648021459,0.5,0.0,0.0,487.0,787.0,0.0,1,3726.0,1
1419,1419,-0.009216330566488407,-0.0,1.0,0.0,272.0,777.0,0.0,0,3951.0,1
1420,1420,-0.4669186651918991,-0.5,0.0,1.0,257.0,809.0,0.0,1,3934.0,0
1421,1421,-0.6505292915835275,-0.7,0.0,1.0,442.0,510.0,0.0,1,4048.0,0
1422,1422,0.6025778383691046,0.6,0.0,0.0,353.0,865.0,0.0,1,-1208.0,1
1423,1423,-0.3174112007645721,-0.3,1.0,0.0,324.0,542.0,0.0,0,4134.0,1
1424,1424,0.20843535227877308,0.2,1.0,1.0,448.0,871.0,0.0,0,3681.0,0
1425,1425,-0.4685580997949242,-0.5,1.0,0.0,315.0,593.0,0.0,0,4092.0,1
1426,1426,0.6897936729470394,0.7,1.0,1.0,409.0,856.0,0.0,0,3735.0,0
1427,1427,0.04460511425581748,0.0,0.0,0.0,386.0,878.0,0.0,1,-1244.0,1
1428,1428,-0.8184368625949575,-0.8,0.0,1.0,316.0,605.0,0.0,1,4079.0,0
1429,1429,0.0339914842391954,0.0,0.0,0.0,255.0,927.0,0.0,1,3818.0,1
1430,1430,-0.2685325885207891,-0.3,0.0,1.0,294.0,720.0,0.0,1,3986.0,0
1431,1431,0.03680768623562203,0.0,0.0,0.0,436.0,817.0,0.0,1,3747.0,1
1432,1432,0.25859764126481133,0.3,1.0,1.0,449.0,856.0,0.0,0,3695.0,0
1433,1433,0.1032168784040165,0.1,0.0,0.0,410.0,655.0,0.0,1,3935.0,1
1434,1434,-0.82527726316752,-0.8,1.0,0.0,434.0,721.0,1.0,1,-1005.0,0
1435,1435,0.2625211916244444,0.3,0.0,0.0,417.0,628.0,0.0,1,3955.0,1
1436,1436,-0.7659255904055808,-0.8,0.0,1.0,360.0,625.0,0.0,1,4015.0,0
1437,1437,0.13539117504505083,0.1,1.0,1.0,446.0,940.0,0.0,0,3614.0,0
1438,1438,0.5623074558022828,0.6,0.0,0.0,432.0,955.0,0.0,1,3613.0,1
1439,1439,0.16064164138547,0.2,1.0,1.0,270.0,723.0,1.0,1,-903.0,1
1440,1440,0.5028078772036527,0.5,0.0,0.0,433.0,936.0,0.0,1,3631.0,1
1441,1441,-0.38974173858440175,-0.4,1.0,0.0,263.0,657.0,0.0,0,4080.0,1
1442,1442,0.25492324733966754,0.3,1.0,1.0,330.0,692.0,0.0,0,3978.0,0
1443,1443,-0.4990824536123377,-0.5,0.0,1.0,486.0,747.0,1.0,0,-1123.0,1
1444,1444,0.7525186270837835,0.8,0.0,0.0,323.0,582.0,0.0,1,4095.0,1
1445,1445,-0.7198694373291536,-0.7,1.0,0.0,486.0,648.0,0.0,0,3866.0,1
1446,1446,0.05934229346586084,0.1,0.0,0.0,333.0,852.0,0.0,1,3815.0,1
1447,1447,0.030769687639326193,0.0,1.0,1.0,311.0,865.0,0.0,0,3824.0,0
1448,1448,-0.7544460948581394,-0.8,1.0,0.0,426.0,965.0,0.0,0,3609.0,1
1449,1449,0.6223277833584772,0.6,1.0,1.0,349.0,538.0,0.0,0,4113.0,0
1450,1450,0.4405675418509917,0.4,1.0,1.0,346.0,854.0,0.0,0,3800.0,0
1451,1451,-0.33760447753012734,-0.3,1.0,0.0,390.0,542.0,0.0,0,-882.0,1
1452,1452,-0.6451296108079896,-0.6,1.0,0.0,312.0,547.0,0.0,0,4141.0,1
1453,1453,0.7884468388940066,0.8,1.0,1.0,417.0,838.0,0.0,0,3745.0,0
1454,1454,0.24713849527693033,0.2,0.0,0.0,291.0,967.0,0.0,1,3742.0,1
1455,1455,-0.25090909261422734,-0.3,0.0,1.0,331.0,893.0,0.0,1,3776.0,0
1456,1456,0.17147049637789114,0.2,0.0,0.0,305.0,955.0,0.0,1,3740.0,1
1457,1457,0.37847250171323876,0.4,1.0,1.0,299.0,803.0,0.0,0,3898.0,0
1458,1458,0.23371264842115436,0.2,0.0,0.0,426.0,572.0,0.0,1,4002.0,1
1459,1459,-0.5051874239839316,-0.5,1.0,0.0,313.0,664.0,0.0,0,4023.0,1
1460,1460,-0.4154202971771234,-0.4,0.0,1.0,447.0,723.0,0.0,1,3830.0,0
1461,1461,-0.22267862464572408,-0.2,1.0,0.0,323.0,566.0,0.0,0,4111.0,1
1462,1462,-0.159706370216258,-0.2,1.0,0.0,396.0,928.0,0.0,0,3676.0,1
1463,1463,-0.6213443533740248,-0.6,0.0,1.0,496.0,515.0,0.0,1,3989.0,0
1464,1464,0.5620685151461055,0.6,0.0,0.0,454.0,751.0,0.0,1,3795.0,1
1465,1465,-0.5708861095890216,-0.6,0.0,1.0,495.0,902.0,0.0,1,3603.0,0
1466,1466,0.35934463219742374,0.4,1.0,1.0,389.0,731.0,1.0,1,-910.0,1
1467,1467,-0.37057475106912574,-0.4,1.0,0.0,374.0,696.0,0.0,0,3930.0,1
1468,1468,0.6659861753683954,0.7,1.0,1.0,385.0,824.0,0.0,0,3791.0,0
1469,1469,0.468657267518897,0.5,1.0,1.0,438.0,520.0,0.0,0,4042.0,0
