,trial,coherence,coherence_bin,green_side,correct_side,target_onset,checker_onset,decision,green_decision,decision_time,correct_decision
0,0,0.647797629311465,0.6,0.0,0.0,460.0,970.0,0.0,1,290.0,1
1,1,-0.27583740041347427,-0.3,1.0,0.0,300.0,714.0,0.0,0,1986.0,1
2,2,0.6910822907899822,0.7,0.0,0.0,387.0,766.0,0.0,1,887.0,1
3,3,-0.04825986138288785,-0.0,0.0,1.0,250.0,681.0,1.0,0,889.0,1
4,4,-0.7023289898874998,-0.7,0.0,1.0,407.0,846.0,1.0,0,167.0,1
5,5,0.06368673776374145,0.1,0.0,0.0,422.0,563.0,1.0,0,265.0,0
6,6,-0.6236359352582689,-0.6,1.0,0.0,297.0,933.0,0.0,0,90.0,1
7,7,-0.06250419255492579,-0.1,0.0,1.0,446.0,764.0,1.0,0,1010.0,1
8,8,-0.5397100072974322,-0.5,1.0,0.0,391.0,834.0,0.0,0,135.0,1
9,9,-0.06433377583458522,-0.1,1.0,0.0,305.0,902.0,0.0,0,1793.0,1
10,10,0.4217720300829525,0.4,0.0,0.0,270.0,520.0,0.0,1,2210.0,1
11,11,0.4344812396320804,0.4,1.0,1.0,450.0,701.0,1.0,1,539.0,1
12,12,0.036758201296270276,0.0,1.0,1.0,495.0,517.0,0.0,0,1988.0,0
13,13,0.72074094462231,0.7,1.0,1.0,491.0,516.0,1.0,1,343.0,1
14,14,0.7110108276875743,0.7,0.0,0.0,274.0,668.0,0.0,1,208.0,1
15,15,0.2981073923871157,0.3,1.0,1.0,326.0,908.0,1.0,1,-164.0,1
16,16,0.10187577467651454,0.1,0.0,0.0,269.0,708.0,0.0,1,2023.0,1
17,17,0.24663110383674913,0.2,0.0,0.0,478.0,972.0,0.0,1,690.0,1
18,18,0.7677318293215033,0.8,0.0,0.0,482.0,652.0,0.0,1,146.0,1
19,19,-0.661797558395129,-0.7,0.0,1.0,373.0,640.0,1.0,0,507.0,1
20,20,0.7057395966127215,0.7,0.0,0.0,380.0,989.0,0.0,1,161.0,1
21,21,-0.505603563629311,-0.5,0.0,1.0,296.0,588.0,1.0,0,316.0,1
22,22,0.3701408251019517,0.4,1.0,1.0,406.0,670.0,1.0,1,504.0,1
23,23,0.8015432229640248,0.8,0.0,0.0,289.0,899.0,0.0,1,322.0,1
24,24,0.4821420316052921,0.5,1.0,1.0,301.0,847.0,1.0,1,122.0,1
25,25,-0.4956669002794636,-0.5,0.0,1.0,430.0,578.0,1.0,0,282.0,1
26,26,0.3908929347024427,0.4,1.0,1.0,427.0,907.0,1.0,1,306.0,1
27,27,0.053733579374009244,0.1,0.0,0.0,419.0,829.0,1.0,0,1142.0,0
28,28,0.21981822524485872,0.2,1.0,1.0,257.0,636.0,1.0,1,717.0,1
29,29,0.36043236817572966,0.4,1.0,1.0,445.0,721.0,1.0,1,244.0,1
30,30,-0.18501735402809105,-0.2,1.0,0.0,318.0,571.0,0.0,0,2111.0,1
31,31,-0.26141900840867294,-0.3,0.0,1.0,479.0,919.0,1.0,0,252.0,1
32,32,-0.09208725020976749,-0.1,0.0,1.0,481.0,753.0,1.0,0,886.0,1
33,33,0.055906820390862144,0.1,1.0,1.0,341.0,536.0,1.0,1,1623.0,1
34,34,-0.5946672587052233,-0.6,0.0,1.0,349.0,966.0,1.0,0,215.0,1
35,35,-0.6341385941958976,-0.6,0.0,1.0,313.0,637.0,1.0,0,120.0,1
36,36,0.1659538201825429,0.2,0.0,0.0,271.0,719.0,1.0,0,2010.0,0
37,37,0.490813643309122,0.5,0.0,0.0,335.0,754.0,0.0,1,481.0,1
38,38,-0.038094608984378664,-0.0,1.0,0.0,360.0,987.0,1.0,1,1653.0,0
39,39,-0.36014117402723445,-0.4,0.0,1.0,255.0,526.0,1.0,0,159.0,1
40,40,0.6415433921376822,0.6,1.0,1.0,422.0,988.0,1.0,1,240.0,1
41,41,-0.7719828274805841,-0.8,0.0,1.0,360.0,629.0,1.0,0,161.0,1
42,42,-0.5340324865650068,-0.5,1.0,0.0,494.0,798.0,0.0,0,568.0,1
43,43,-0.8320563871895582,-0.8,1.0,0.0,264.0,531.0,0.0,0,305.0,1
44,44,0.6172074016168309,0.6,0.0,0.0,301.0,723.0,0.0,1,546.0,1
45,45,0.19251693364581868,0.2,0.0,0.0,318.0,941.0,0.0,1,1741.0,1
46,46,-0.3912707267739476,-0.4,0.0,1.0,449.0,645.0,1.0,0,526.0,1
47,47,0.4827542041431988,0.5,1.0,1.0,460.0,916.0,1.0,1,504.0,1
48,48,-0.18665591066368303,-0.2,0.0,1.0,466.0,883.0,1.0,0,381.0,1
49,49,0.16688694877544086,0.2,0.0,0.0,395.0,834.0,0.0,1,901.0,1
50,50,0.4035205395580236,0.4,1.0,1.0,411.0,609.0,1.0,1,340.0,1
51,51,-0.08767578964303935,-0.1,0.0,1.0,275.0,647.0,1.0,0,988.0,1
52,52,-0.39439297160766873,-0.4,0.0,1.0,251.0,716.0,1.0,0,363.0,1
53,53,0.5525399119355815,0.6,0.0,0.0,281.0,603.0,0.0,1,736.0,1
54,54,0.8510837996261315,0.9,1.0,1.0,334.0,656.0,1.0,1,310.0,1
55,55,-0.5445751064537555,-0.5,1.0,0.0,452.0,623.0,0.0,0,375.0,1
56,56,-0.16729288906610373,-0.2,0.0,1.0,496.0,732.0,1.0,0,1052.0,1
57,57,-0.20495859014995765,-0.2,0.0,1.0,386.0,636.0,1.0,0,378.0,1
58,58,0.7274328941881073,0.7,1.0,1.0,290.0,980.0,1.0,1,90.0,1
59,59,-0.804359509023407,-0.8,1.0,0.0,263.0,581.0,0.0,0,426.0,1
60,60,0.4052399673668102,0.4,1.0,1.0,420.0,522.0,1.0,1,608.0,1
61,61,-0.14688995102661873,-0.1,0.0,1.0,445.0,807.0,1.0,0,1038.0,1
62,62,0.5578167947285012,0.6,1.0,1.0,391.0,962.0,1.0,1,297.0,1
63,63,-0.389999333137792,-0.4,0.0,1.0,438.0,975.0,1.0,0,117.0,1
64,64,-0.5602120143678051,-0.6,0.0,1.0,264.0,979.0,1.0,0,197.0,1
65,65,0.41782980362225886,0.4,1.0,1.0,425.0,543.0,1.0,1,142.0,1
66,66,-0.8909987984701329,-0.9,0.0,1.0,403.0,640.0,1.0,0,207.0,1
67,67,0.7151048172703441,0.7,1.0,1.0,472.0,925.0,1.0,1,213.0,1
68,68,-0.3333068969190124,-0.3,1.0,0.0,453.0,560.0,0.0,0,1987.0,1
69,69,0.19442470149713798,0.2,0.0,0.0,373.0,793.0,0.0,1,1834.0,1
70,70,0.3972234016502122,0.4,0.0,0.0,290.0,665.0,0.0,1,645.0,1
71,71,-0.8058065716277781,-0.8,0.0,1.0,429.0,815.0,1.0,0,-274.0,1
72,72,0.21914642478021407,0.2,0.0,0.0,452.0,909.0,0.0,1,1639.0,1
73,73,-0.4192056024909846,-0.4,0.0,1.0,410.0,950.0,1.0,0,50.0,1
74,74,0.25824918256047724,0.3,1.0,1.0,277.0,541.0,1.0,1,672.0,1
75,75,0.3571607294008087,0.4,0.0,0.0,309.0,702.0,0.0,1,499.0,1
76,76,-0.20065036503398515,-0.2,0.0,1.0,263.0,730.0,1.0,0,407.0,1
77,77,0.8148986844807325,0.8,0.0,0.0,281.0,703.0,0.0,1,1886.0,1
78,78,-0.08689647295202962,-0.1,1.0,0.0,440.0,541.0,0.0,0,2019.0,1
79,79,-0.6856679370663221,-0.7,0.0,1.0,492.0,738.0,1.0,0,330.0,1
80,80,-0.38294405991416713,-0.4,1.0,0.0,446.0,786.0,0.0,0,1228.0,1
81,81,0.7396262533513712,0.7,1.0,1.0,318.0,988.0,1.0,1,284.0,1
82,82,0.44924564559314695,0.4,1.0,1.0,306.0,684.0,1.0,1,320.0,1
83,83,-0.5807415373950036,-0.6,0.0,1.0,301.0,882.0,1.0,0,117.0,1
84,84,0.8558268617225037,0.9,1.0,1.0,470.0,941.0,1.0,1,239.0,1
85,85,-0.8689963743277459,-0.9,0.0,1.0,285.0,976.0,1.0,0,99.0,1
86,86,-0.010582176321015324,-0.0,1.0,0.0,260.0,720.0,1.0,1,2020.0,0
87,87,-0.8653735893889165,-0.9,0.0,1.0,297.0,709.0,1.0,0,124.0,1
88,88,0.7639086165829857,0.8,1.0,1.0,322.0,958.0,1.0,1,200.0,1
89,89,-0.6512682058187127,-0.7,0.0,1.0,270.0,832.0,1.0,0,208.0,1
90,90,0.1102921091462229,0.1,1.0,1.0,465.0,650.0,1.0,1,1885.0,1
91,91,0.6386083082740618,0.6,0.0,0.0,362.0,778.0,0.0,1,230.0,1
92,92,-0.8756968514624452,-0.9,1.0,0.0,270.0,990.0,0.0,0,250.0,1
93,93,0.7579745105970958,0.8,0.0,0.0,279.0,885.0,0.0,1,186.0,1
94,94,-0.2623319500198138,-0.3,0.0,1.0,292.0,643.0,1.0,0,175.0,1
95,95,-0.09212328101227962,-0.1,0.0,1.0,442.0,734.0,1.0,0,594.0,1
96,96,-0.6525423949303248,-0.7,1.0,0.0,476.0,987.0,0.0,0,697.0,1
97,97,0.2755959205921016,0.3,1.0,1.0,371.0,840.0,1.0,1,769.0,1
98,98,0.14027506213112184,0.1,1.0,1.0,334.0,850.0,1.0,1,736.0,1
99,99,-0.6007728942038247,-0.6,0.0,1.0,257.0,927.0,1.0,0,176.0,1
100,100,0.05492349256301743,0.1,0.0,0.0,258.0,878.0,1.0,0,204.0,0
101,101,0.31263879541926565,0.3,1.0,1.0,313.0,507.0,1.0,1,640.0,1
102,102,-0.6656214533410238,-0.7,1.0,0.0,293.0,875.0,0.0,0,242.0,1
103,103,0.3245066785715648,0.3,1.0,1.0,495.0,984.0,1.0,1,381.0,1
104,104,-0.026585124731359766,-0.0,0.0,1.0,422.0,588.0,1.0,0,380.0,1
105,105,-0.17318376703230676,-0.2,1.0,0.0,334.0,600.0,0.0,0,2066.0,1
106,106,-0.4902381620173294,-0.5,0.0,1.0,363.0,605.0,1.0,0,242.0,1
107,107,-0.7435156473976497,-0.7,0.0,1.0,339.0,958.0,1.0,0,423.0,1
108,108,0.5838001140878158,0.6,0.0,0.0,276.0,990.0,0.0,1,184.0,1
109,109,-0.18039199220934077,-0.2,0.0,1.0,334.0,707.0,1.0,0,109.0,1
110,110,0.5934867294792493,0.6,0.0,0.0,452.0,600.0,0.0,1,478.0,1
111,111,0.5444887470859622,0.5,1.0,1.0,303.0,592.0,1.0,1,265.0,1
112,112,-0.3439043624133773,-0.3,0.0,1.0,486.0,843.0,1.0,0,221.0,1
113,113,0.3659113137765634,0.4,0.0,0.0,441.0,651.0,0.0,1,978.0,1
114,114,0.334956566401731,0.3,1.0,1.0,266.0,506.0,1.0,1,1108.0,1
115,115,0.25927190819330026,0.3,1.0,1.0,442.0,549.0,1.0,1,279.0,1
116,116,-0.8714020868390785,-0.9,1.0,0.0,428.0,546.0,0.0,0,196.0,1
117,117,0.17380832472312846,0.2,0.0,0.0,341.0,552.0,0.0,1,2107.0,1
118,118,0.33282273904625825,0.3,1.0,1.0,359.0,764.0,1.0,1,667.0,1
119,119,-0.7100672950739706,-0.7,0.0,1.0,455.0,947.0,1.0,0,278.0,1
120,120,0.6834858494144479,0.7,1.0,1.0,468.0,727.0,1.0,1,175.0,1
121,121,-0.28880752481458594,-0.3,0.0,1.0,282.0,639.0,1.0,0,79.0,1
122,122,-0.673455125075813,-0.7,0.0,1.0,402.0,839.0,1.0,0,199.0,1
123,123,-0.4072917364103681,-0.4,0.0,1.0,313.0,628.0,1.0,0,49.0,1
124,124,-0.6721720422513557,-0.7,1.0,0.0,272.0,546.0,0.0,0,312.0,1
125,125,-0.4670089873963668,-0.5,0.0,1.0,302.0,552.0,1.0,0,376.0,1
126,126,-0.17256881314661887,-0.2,0.0,1.0,342.0,732.0,1.0,0,256.0,1
127,127,0.3460596964036621,0.3,1.0,1.0,262.0,617.0,1.0,1,551.0,1
128,128,-0.6838624177201134,-0.7,1.0,0.0,390.0,943.0,0.0,0,677.0,1
129,129,0.8765380377045103,0.9,1.0,1.0,444.0,731.0,1.0,1,215.0,1
130,130,-0.5727060502016215,-0.6,1.0,0.0,496.0,852.0,0.0,0,372.0,1
131,131,-0.18888779162475422,-0.2,0.0,1.0,320.0,582.0,1.0,0,828.0,1
132,132,-0.552211915402638,-0.6,1.0,0.0,381.0,824.0,0.0,0,375.0,1
133,133,0.33139979400936814,0.3,0.0,0.0,382.0,652.0,0.0,1,986.0,1
134,134,0.03371622101931271,0.0,1.0,1.0,496.0,883.0,1.0,1,1621.0,1
135,135,-0.02283814649411975,-0.0,0.0,1.0,473.0,915.0,1.0,0,1612.0,1
136,136,-0.07556210699264632,-0.1,1.0,0.0,475.0,969.0,0.0,0,1556.0,1
137,137,-0.5569463118945173,-0.6,0.0,1.0,411.0,884.0,1.0,0,315.0,1
138,138,-0.4703729931768933,-0.5,0.0,1.0,277.0,946.0,1.0,0,237.0,1
139,139,0.6589226274252612,0.7,1.0,1.0,417.0,622.0,1.0,1,201.0,1
140,140,-0.597211188260981,-0.6,1.0,0.0,394.0,602.0,0.0,0,794.0,1
141,141,0.16699584293941772,0.2,1.0,1.0,390.0,892.0,1.0,1,1168.0,1
142,142,-0.1623006150030596,-0.2,1.0,0.0,433.0,780.0,0.0,0,1787.0,1
143,143,-0.40003723064984265,-0.4,1.0,0.0,275.0,985.0,0.0,0,690.0,1
144,144,0.119169409959483,0.1,1.0,1.0,478.0,852.0,1.0,1,1400.0,1
145,145,0.6102274116999399,0.6,0.0,0.0,310.0,931.0,0.0,1,369.0,1
146,146,0.07151302740894216,0.1,1.0,1.0,333.0,781.0,1.0,1,1016.0,1
147,147,-0.693173873483646,-0.7,1.0,0.0,307.0,920.0,0.0,0,213.0,1
148,148,0.45901476032186783,0.5,0.0,0.0,426.0,963.0,0.0,1,1611.0,1
149,149,0.5069152432599237,0.5,0.0,0.0,324.0,744.0,0.0,1,1282.0,1
150,150,0.49617367767209986,0.5,1.0,1.0,255.0,887.0,1.0,1,298.0,1
151,151,-0.33527033366726555,-0.3,0.0,1.0,266.0,876.0,1.0,0,438.0,1
152,152,-0.5128090959817921,-0.5,1.0,0.0,392.0,537.0,0.0,0,1591.0,1
153,153,-0.6075599581898918,-0.6,1.0,0.0,259.0,829.0,0.0,0,142.0,1
154,154,-0.19871046132754178,-0.2,1.0,0.0,263.0,900.0,0.0,0,757.0,1
155,155,0.7715919295200476,0.8,1.0,1.0,277.0,736.0,1.0,1,147.0,1
156,156,-0.7378307069800016,-0.7,0.0,1.0,497.0,556.0,1.0,0,207.0,1
157,157,0.8523045775964112,0.9,1.0,1.0,262.0,703.0,1.0,1,205.0,1
158,158,-0.045231423332926624,-0.0,0.0,1.0,335.0,777.0,1.0,0,848.0,1
159,159,0.27292583113465463,0.3,1.0,1.0,471.0,978.0,1.0,1,331.0,1
160,160,0.164604152759401,0.2,1.0,1.0,395.0,625.0,1.0,1,220.0,1
161,161,-0.8871171134471134,-0.9,0.0,1.0,267.0,795.0,1.0,0,108.0,1
162,162,-0.1353666260530415,-0.1,1.0,0.0,459.0,819.0,1.0,1,1722.0,0
163,163,0.555702747586872,0.6,0.0,0.0,399.0,975.0,0.0,1,236.0,1
164,164,-0.8516572266866869,-0.9,1.0,0.0,403.0,604.0,0.0,0,213.0,1
165,165,-0.35744469349054475,-0.4,0.0,1.0,455.0,777.0,1.0,0,88.0,1
166,166,0.27073723910691727,0.3,0.0,0.0,405.0,674.0,0.0,1,1921.0,1
167,167,0.5699450627324033,0.6,1.0,1.0,464.0,779.0,1.0,1,327.0,1
168,168,-0.2569696926153321,-0.3,1.0,0.0,446.0,876.0,0.0,0,1118.0,1
169,169,0.030420291854858283,0.0,0.0,0.0,389.0,594.0,1.0,0,2017.0,0
170,170,0.10707061805919482,0.1,1.0,1.0,428.0,567.0,1.0,1,1705.0,1
171,171,0.408763780717711,0.4,0.0,0.0,308.0,540.0,0.0,1,652.0,1
172,172,0.7078680864830745,0.7,0.0,0.0,275.0,742.0,0.0,1,153.0,1
173,173,-0.5143590167875203,-0.5,1.0,0.0,353.0,934.0,0.0,0,363.0,1
174,174,0.11275251143561882,0.1,0.0,0.0,406.0,745.0,1.0,0,1649.0,0
175,175,-0.1196504700643789,-0.1,0.0,1.0,427.0,700.0,1.0,0,493.0,1
176,176,0.6340738762493062,0.6,1.0,1.0,471.0,668.0,1.0,1,281.0,1
177,177,0.2143144953235493,0.2,0.0,0.0,315.0,571.0,0.0,1,64.0,1
178,178,0.6796451586573887,0.7,1.0,1.0,471.0,894.0,1.0,1,145.0,1
179,179,0.5014833060754255,0.5,0.0,0.0,429.0,561.0,0.0,1,1690.0,1
180,180,0.4243379273610025,0.4,1.0,1.0,311.0,573.0,1.0,1,186.0,1
181,181,-0.1376196874921335,-0.1,0.0,1.0,254.0,901.0,1.0,0,185.0,1
182,182,-0.005877936081312818,-0.0,0.0,1.0,408.0,715.0,1.0,0,197.0,1
183,183,0.06448422624970451,0.1,1.0,1.0,401.0,866.0,1.0,1,1393.0,1
184,184,-0.13397841048435777,-0.1,0.0,1.0,383.0,874.0,1.0,0,343.0,1
185,185,0.8165209493968407,0.8,0.0,0.0,274.0,975.0,0.0,1,311.0,1
186,186,-0.5610381609140103,-0.6,0.0,1.0,388.0,863.0,1.0,0,189.0,1
187,187,-0.6769681693741694,-0.7,0.0,1.0,475.0,792.0,1.0,0,303.0,1
188,188,-0.5209083096596069,-0.5,1.0,0.0,498.0,580.0,0.0,0,632.0,1
189,189,-0.5792912570423813,-0.6,1.0,0.0,291.0,646.0,0.0,0,833.0,1
190,190,-0.6862553391561341,-0.7,1.0,0.0,331.0,824.0,0.0,0,375.0,1
191,191,-0.6275908508303132,-0.6,1.0,0.0,266.0,748.0,0.0,0,286.0,1
192,192,0.8859961695465165,0.9,1.0,1.0,424.0,560.0,1.0,1,246.0,1
193,193,0.07949311017667893,0.1,1.0,1.0,266.0,964.0,1.0,1,780.0,1
194,194,0.020699047378429314,0.0,0.0,0.0,264.0,799.0,1.0,0,1937.0,0
195,195,-0.7063401371824432,-0.7,1.0,0.0,499.0,680.0,0.0,0,591.0,1
196,196,-0.11353708184452516,-0.1,0.0,1.0,277.0,818.0,1.0,0,255.0,1
197,197,0.3519927192439979,0.4,1.0,1.0,360.0,724.0,1.0,1,576.0,1
198,198,-0.0542664972989908,-0.1,1.0,0.0,371.0,737.0,1.0,1,1892.0,0
199,199,-0.014765196530902913,-0.0,1.0,0.0,305.0,697.0,0.0,0,1998.0,1
200,200,0.8979787084884318,0.9,0.0,0.0,297.0,666.0,0.0,1,197.0,1
201,201,-0.15697680166560646,-0.2,0.0,1.0,324.0,897.0,1.0,0,19.0,1
202,202,-0.8901674897954568,-0.9,0.0,1.0,336.0,721.0,1.0,0,333.0,1
203,203,-0.07540962202530843,-0.1,1.0,0.0,436.0,616.0,0.0,0,1948.0,1
204,204,-0.7997502193243692,-0.8,1.0,0.0,326.0,709.0,0.0,0,325.0,1
205,205,-0.08715690776826557,-0.1,1.0,0.0,430.0,884.0,1.0,1,1686.0,0
206,206,0.19684441556219057,0.2,0.0,0.0,417.0,963.0,0.0,1,890.0,1
207,207,-0.1907947674463618,-0.2,0.0,1.0,286.0,543.0,1.0,0,1171.0,1
208,208,0.5121651199080989,0.5,1.0,1.0,420.0,664.0,1.0,1,416.0,1
209,209,0.7381698785433145,0.7,1.0,1.0,372.0,849.0,1.0,1,109.0,1
210,210,0.23718111268957254,0.2,1.0,1.0,462.0,763.0,1.0,1,625.0,1
211,211,-0.35979153017433263,-0.4,1.0,0.0,373.0,871.0,0.0,0,416.0,1
212,212,0.3585018197042925,0.4,0.0,0.0,276.0,887.0,0.0,1,487.0,1
213,213,0.8512612233304019,0.9,0.0,0.0,333.0,678.0,0.0,1,1239.0,1
214,214,-0.2367233348291723,-0.2,0.0,1.0,417.0,841.0,1.0,0,222.0,1
215,215,0.8728570327153419,0.9,0.0,0.0,281.0,767.0,0.0,1,182.0,1
216,216,-0.14183455111807786,-0.1,0.0,1.0,409.0,767.0,1.0,0,774.0,1
217,217,0.1863820426626145,0.2,0.0,0.0,307.0,633.0,0.0,1,2060.0,1
218,218,0.8311995538360276,0.8,1.0,1.0,353.0,967.0,1.0,1,100.0,1
219,219,0.7124256398087642,0.7,0.0,0.0,439.0,536.0,0.0,1,425.0,1
220,220,-0.5890310291676762,-0.6,0.0,1.0,381.0,534.0,1.0,0,325.0,1
221,221,-0.6347793378278861,-0.6,0.0,1.0,398.0,692.0,1.0,0,270.0,1
222,222,0.2814483447656758,0.3,0.0,0.0,254.0,570.0,0.0,1,676.0,1
223,223,0.5835670060756059,0.6,0.0,0.0,460.0,652.0,0.0,1,648.0,1
224,224,-0.2774969764914639,-0.3,1.0,0.0,491.0,921.0,0.0,0,1588.0,1
225,225,-0.7251944483474668,-0.7,1.0,0.0,489.0,822.0,0.0,0,239.0,1
226,226,-0.25145963458390275,-0.3,1.0,0.0,298.0,635.0,0.0,0,2067.0,1
227,227,0.1613776132161443,0.2,1.0,1.0,376.0,519.0,1.0,1,1615.0,1
228,228,-0.5624108395611382,-0.6,0.0,1.0,426.0,997.0,1.0,0,237.0,1
229,229,-0.3191797163833965,-0.3,1.0,0.0,458.0,929.0,0.0,0,683.0,1
230,230,0.7889385772839898,0.8,1.0,1.0,483.0,771.0,1.0,1,106.0,1
231,231,-0.7987057947102802,-0.8,0.0,1.0,419.0,852.0,1.0,0,29.0,1
232,232,-0.360333466151196,-0.4,1.0,0.0,268.0,928.0,0.0,0,1404.0,1
233,233,0.25876921024408983,0.3,0.0,0.0,490.0,609.0,0.0,1,1901.0,1
234,234,-0.45650635748891094,-0.5,1.0,0.0,280.0,528.0,0.0,0,1092.0,1
235,235,0.4318572926821692,0.4,1.0,1.0,371.0,968.0,1.0,1,371.0,1
236,236,0.2594737232178853,0.3,1.0,1.0,269.0,870.0,1.0,1,911.0,1
237,237,0.28741187216402453,0.3,1.0,1.0,310.0,698.0,1.0,1,92.0,1
238,238,-0.8085705784774141,-0.8,0.0,1.0,266.0,549.0,1.0,0,255.0,1
239,239,-0.20607827814745938,-0.2,0.0,1.0,466.0,882.0,1.0,0,202.0,1
240,240,-0.5296392625748818,-0.5,1.0,0.0,277.0,872.0,0.0,0,461.0,1
241,241,-0.361871663240638,-0.4,0.0,1.0,305.0,753.0,1.0,0,182.0,1
242,242,0.7209577279535347,0.7,0.0,0.0,480.0,519.0,0.0,1,281.0,1
243,243,0.8449513176700597,0.8,0.0,0.0,453.0,608.0,0.0,1,489.0,1
244,244,0.8180118480704274,0.8,1.0,1.0,330.0,731.0,1.0,1,159.0,1
245,245,-0.48404379216072324,-0.5,1.0,0.0,309.0,562.0,0.0,0,339.0,1
246,246,0.312162748529177,0.3,1.0,1.0,370.0,706.0,1.0,1,524.0,1
247,247,-0.31192966398004485,-0.3,1.0,0.0,331.0,702.0,0.0,0,1967.0,1
248,248,-0.5335547982738325,-0.5,0.0,1.0,462.0,665.0,1.0,0,93.0,1
249,249,-0.3941327851431876,-0.4,1.0,0.0,284.0,858.0,0.0,0,1858.0,1
250,250,0.7435046701434621,0.7,0.0,0.0,267.0,980.0,1.0,0,-267.0,0
251,251,-0.22113611411143475,-0.2,1.0,0.0,476.0,612.0,0.0,0,1912.0,1
252,252,0.6673086590769516,0.7,0.0,0.0,272.0,585.0,0.0,1,663.0,1
253,253,-0.6385492718805001,-0.6,1.0,0.0,451.0,599.0,0.0,0,370.0,1
254,254,0.23881999385680175,0.2,0.0,0.0,347.0,851.0,0.0,1,1302.0,1
255,255,0.011229308980223784,0.0,1.0,1.0,404.0,604.0,1.0,1,1992.0,1
256,256,-0.20784001953899367,-0.2,1.0,0.0,410.0,510.0,1.0,1,2080.0,0
257,257,-0.47799350342951563,-0.5,0.0,1.0,460.0,956.0,1.0,0,234.0,1
258,258,0.8183318631022763,0.8,1.0,1.0,262.0,994.0,1.0,1,164.0,1
259,259,-0.17499537399039655,-0.2,0.0,1.0,407.0,797.0,1.0,0,296.0,1
260,260,-0.8897435106219509,-0.9,0.0,1.0,467.0,811.0,1.0,0,42.0,1
261,261,-0.7776634707255878,-0.8,0.0,1.0,356.0,941.0,1.0,0,93.0,1
262,262,0.34792484101927046,0.3,0.0,0.0,497.0,939.0,0.0,1,584.0,1
263,263,-0.21429461846044928,-0.2,0.0,1.0,284.0,847.0,1.0,0,129.0,1
264,264,-0.7803282881653112,-0.8,1.0,0.0,462.0,796.0,0.0,0,282.0,1
265,265,0.7440613960990382,0.7,0.0,0.0,467.0,975.0,1.0,0,8.0,0
266,266,0.7821099704479392,0.8,1.0,1.0,292.0,560.0,1.0,1,328.0,1
267,267,-0.13235260920025715,-0.1,0.0,1.0,258.0,612.0,1.0,0,500.0,1
268,268,-0.256518430596711,-0.3,0.0,1.0,429.0,584.0,1.0,0,227.0,1
269,269,0.0047663753928862684,0.0,1.0,1.0,314.0,651.0,1.0,1,2035.0,1
270,270,0.28168654853309094,0.3,0.0,0.0,385.0,848.0,0.0,1,1687.0,1
271,271,0.8186768479440988,0.8,1.0,1.0,337.0,638.0,1.0,1,275.0,1
272,272,0.13372242260700673,0.1,1.0,1.0,488.0,713.0,1.0,1,759.0,1
273,273,0.62803317498534,0.6,0.0,0.0,282.0,991.0,0.0,1,257.0,1
274,274,0.25590552074789386,0.3,1.0,1.0,308.0,538.0,1.0,1,434.0,1
275,275,-0.08123947290745448,-0.1,0.0,1.0,365.0,614.0,1.0,0,1201.0,1
276,276,-0.46038096138391954,-0.5,1.0,0.0,459.0,962.0,0.0,0,349.0,1
277,277,0.8637556208540306,0.9,1.0,1.0,474.0,517.0,1.0,1,449.0,1
278,278,-0.7558251452490903,-0.8,0.0,1.0,291.0,958.0,1.0,0,201.0,1
279,279,0.7901548480788859,0.8,0.0,0.0,347.0,998.0,0.0,1,235.0,1
280,280,0.3496073647004273,0.3,1.0,1.0,498.0,859.0,1.0,1,143.0,1
281,281,0.7379642071753582,0.7,1.0,1.0,433.0,522.0,1.0,1,295.0,1
282,282,-0.8648301993603337,-0.9,0.0,1.0,281.0,626.0,1.0,0,193.0,1
283,283,-0.023509984673639517,-0.0,1.0,0.0,355.0,947.0,1.0,1,638.0,0
284,284,0.4808317761084252,0.5,1.0,1.0,351.0,917.0,1.0,1,462.0,1
285,285,-0.7865666143113806,-0.8,0.0,1.0,295.0,970.0,1.0,0,95.0,1
286,286,-0.10810773544318775,-0.1,0.0,1.0,289.0,964.0,1.0,0,287.0,1
287,287,-0.832473903535091,-0.8,0.0,1.0,319.0,741.0,1.0,0,230.0,1
288,288,0.8757583850335934,0.9,0.0,0.0,411.0,644.0,0.0,1,645.0,1
289,289,0.5283798717162115,0.5,0.0,0.0,448.0,701.0,0.0,1,401.0,1
290,290,0.6434059449008672,0.6,1.0,1.0,350.0,803.0,1.0,1,287.0,1
291,291,-0.22152827422105015,-0.2,0.0,1.0,406.0,851.0,1.0,0,233.0,1
292,292,0.5077484913774494,0.5,0.0,0.0,263.0,888.0,0.0,1,309.0,1
293,293,0.7692483385960877,0.8,0.0,0.0,363.0,519.0,0.0,1,538.0,1
294,294,0.833273540793474,0.8,0.0,0.0,487.0,693.0,0.0,1,1370.0,1
295,295,-0.2256559813068143,-0.2,1.0,0.0,310.0,615.0,1.0,1,2075.0,0
296,296,0.5520632890693452,0.6,0.0,0.0,477.0,878.0,0.0,1,725.0,1
297,297,-0.8654971864934449,-0.9,1.0,0.0,281.0,849.0,0.0,0,260.0,1
298,298,0.6052488269913258,0.6,1.0,1.0,410.0,564.0,1.0,1,366.0,1
299,299,0.15547722980008027,0.2,1.0,1.0,314.0,858.0,1.0,1,1788.0,1
300,300,-0.2424759572543138,-0.2,0.0,1.0,290.0,847.0,1.0,0,523.0,1
301,301,-0.354097194095332,-0.4,1.0,0.0,322.0,798.0,0.0,0,670.0,1
302,302,-0.390160523818321,-0.4,1.0,0.0,419.0,931.0,0.0,0,1040.0,1
303,303,0.5076299258874882,0.5,0.0,0.0,250.0,615.0,0.0,1,255.0,1
304,304,-0.2737517338032672,-0.3,1.0,0.0,325.0,711.0,0.0,0,1964.0,1
305,305,0.47995423147067184,0.5,0.0,0.0,282.0,887.0,0.0,1,1081.0,1
306,306,-0.8352937800616904,-0.8,0.0,1.0,467.0,588.0,1.0,0,145.0,1
307,307,0.3450418510544734,0.3,0.0,0.0,422.0,907.0,0.0,1,1631.0,1
308,308,-0.7225379957241906,-0.7,1.0,0.0,288.0,561.0,0.0,0,741.0,1
309,309,-0.7502535755125435,-0.8,1.0,0.0,299.0,944.0,0.0,0,277.0,1
310,310,0.28296694648215037,0.3,1.0,1.0,497.0,947.0,1.0,1,906.0,1
311,311,0.82035925905177,0.8,1.0,1.0,427.0,592.0,1.0,1,101.0,1
312,312,0.4974699125084888,0.5,1.0,1.0,408.0,912.0,1.0,1,610.0,1
313,313,-0.0012512902911641088,-0.0,0.0,1.0,351.0,524.0,1.0,0,195.0,1
314,314,0.3460547728087805,0.3,1.0,1.0,408.0,514.0,1.0,1,858.0,1
315,315,-0.07600524882814386,-0.1,1.0,0.0,275.0,627.0,1.0,1,2098.0,0
316,316,-0.7026708902498355,-0.7,1.0,0.0,298.0,770.0,0.0,0,122.0,1
317,317,-0.23153948831074966,-0.2,1.0,0.0,326.0,919.0,0.0,0,1755.0,1
318,318,-0.4345398497148553,-0.4,0.0,1.0,330.0,833.0,1.0,0,217.0,1
319,319,-0.2724142953743013,-0.3,0.0,1.0,445.0,864.0,1.0,0,301.0,1
320,320,0.20392490490138282,0.2,1.0,1.0,455.0,544.0,1.0,1,441.0,1
321,321,-0.3283368363166347,-0.3,0.0,1.0,375.0,866.0,1.0,0,579.0,1
322,322,-0.2649285288262154,-0.3,0.0,1.0,493.0,952.0,1.0,0,345.0,1
323,323,0.36548842345873445,0.4,1.0,1.0,415.0,808.0,1.0,1,327.0,1
324,324,0.7763620926932867,0.8,0.0,0.0,470.0,740.0,0.0,1,320.0,1
325,325,0.2730491041268429,0.3,0.0,0.0,388.0,959.0,0.0,1,1653.0,1
326,326,0.17745992980148506,0.2,1.0,1.0,371.0,853.0,1.0,1,1106.0,1
327,327,-0.8254845320474488,-0.8,0.0,1.0,480.0,733.0,1.0,0,87.0,1
328,328,-0.12371578986513265,-0.1,0.0,1.0,491.0,737.0,1.0,0,1772.0,1
329,329,-0.44097698320448026,-0.4,0.0,1.0,373.0,980.0,1.0,0,397.0,1
330,330,-0.15620384228625206,-0.2,1.0,0.0,271.0,502.0,0.0,0,2227.0,1
331,331,0.8449314943377629,0.8,0.0,0.0,309.0,685.0,0.0,1,256.0,1
332,332,0.036130580704057946,0.0,0.0,0.0,299.0,614.0,0.0,1,2087.0,1
333,333,0.8359637086818822,0.8,0.0,0.0,255.0,913.0,0.0,1,282.0,1
334,334,-0.5734607356140933,-0.6,1.0,0.0,436.0,992.0,0.0,0,522.0,1
335,335,0.659849097665342,0.7,1.0,1.0,395.0,860.0,1.0,1,215.0,1
336,336,0.19749752853970215,0.2,0.0,0.0,279.0,900.0,0.0,1,1821.0,1
337,337,0.7084588775416637,0.7,0.0,0.0,310.0,629.0,0.0,1,1281.0,1
338,338,0.1557148084745924,0.2,0.0,0.0,408.0,562.0,0.0,1,2030.0,1
339,339,0.5301779479218119,0.5,0.0,0.0,334.0,659.0,0.0,1,367.0,1
340,340,0.06060254859450198,0.1,1.0,1.0,397.0,920.0,1.0,1,1683.0,1
341,341,0.31800531752575145,0.3,0.0,0.0,301.0,853.0,0.0,1,356.0,1
342,342,-0.5478684616304368,-0.5,1.0,0.0,358.0,514.0,0.0,0,178.0,1
343,343,0.4154304457195105,0.4,0.0,0.0,359.0,604.0,1.0,0,-193.0,0
344,344,0.03170873538801633,0.0,0.0,0.0,411.0,710.0,1.0,0,1879.0,0
345,345,-0.5064803201921847,-0.5,0.0,1.0,339.0,511.0,1.0,0,170.0,1
346,346,0.07596518266839303,0.1,0.0,0.0,459.0,692.0,0.0,1,1849.0,1
347,347,0.8248222960934178,0.8,1.0,1.0,361.0,782.0,1.0,1,307.0,1
348,348,-0.09612232767428996,-0.1,1.0,0.0,295.0,934.0,1.0,1,1771.0,0
349,349,-0.21927324219673427,-0.2,0.0,1.0,403.0,729.0,1.0,0,868.0,1
350,350,0.02909398222723092,0.0,0.0,0.0,259.0,789.0,1.0,0,1342.0,0
351,351,0.3704214930952102,0.4,1.0,1.0,477.0,845.0,1.0,1,318.0,1
352,352,-0.44093552935743385,-0.4,1.0,0.0,452.0,641.0,0.0,0,677.0,1
353,353,-0.5005443584663989,-0.5,1.0,0.0,280.0,964.0,0.0,0,296.0,1
354,354,0.31023812398598005,0.3,1.0,1.0,257.0,754.0,1.0,1,419.0,1
355,355,0.814260588252215,0.8,0.0,0.0,416.0,958.0,0.0,1,156.0,1
356,356,0.16483679668107742,0.2,0.0,0.0,373.0,848.0,1.0,0,189.0,0
357,357,-0.6001641070925402,-0.6,0.0,1.0,498.0,996.0,1.0,0,-264.0,1
358,358,0.8785466404651784,0.9,0.0,0.0,250.0,742.0,0.0,1,538.0,1
359,359,0.8036342903886357,0.8,0.0,0.0,287.0,549.0,0.0,1,244.0,1
360,360,0.04280999882382397,0.0,1.0,1.0,344.0,903.0,1.0,1,1753.0,1
361,361,-0.21793408800076197,-0.2,1.0,0.0,368.0,683.0,0.0,0,1949.0,1
362,362,0.16806953672801128,0.2,0.0,0.0,475.0,793.0,0.0,1,1732.0,1
363,363,-0.722430741901589,-0.7,0.0,1.0,337.0,822.0,1.0,0,151.0,1
364,364,0.8564071658902378,0.9,1.0,1.0,294.0,817.0,1.0,1,9.0,1
365,365,0.6840922079628918,0.7,0.0,0.0,344.0,656.0,0.0,1,2000.0,1
366,366,-0.8043529761866745,-0.8,1.0,0.0,407.0,650.0,0.0,0,153.0,1
367,367,-0.15129824709656803,-0.2,0.0,1.0,404.0,603.0,1.0,0,1333.0,1
368,368,0.35079735179109195,0.4,1.0,1.0,459.0,555.0,1.0,1,656.0,1
369,369,-0.20018764331002958,-0.2,0.0,1.0,366.0,962.0,1.0,0,1672.0,1
370,370,0.23144581953292087,0.2,0.0,0.0,289.0,528.0,1.0,0,2183.0,0
371,371,0.424033915059136,0.4,0.0,0.0,263.0,722.0,0.0,1,455.0,1
372,372,0.4926674645670285,0.5,0.0,0.0,362.0,577.0,0.0,1,371.0,1
373,373,0.7173140929487801,0.7,1.0,1.0,302.0,739.0,1.0,1,139.0,1
374,374,0.02912517270677628,0.0,0.0,0.0,434.0,576.0,1.0,0,1990.0,0
375,375,0.8023843190347119,0.8,0.0,0.0,306.0,705.0,0.0,1,229.0,1
376,376,0.22465691710987967,0.2,0.0,0.0,424.0,668.0,1.0,0,1908.0,0
377,377,0.8141812637371845,0.8,0.0,0.0,381.0,520.0,0.0,1,469.0,1
378,378,-0.6130566625823382,-0.6,1.0,0.0,276.0,576.0,0.0,0,248.0,1
379,379,-0.08792211861138399,-0.1,1.0,0.0,296.0,561.0,1.0,1,2143.0,0
380,380,-0.19607930014157038,-0.2,1.0,0.0,371.0,618.0,1.0,1,2011.0,0
381,381,-0.5713246229680995,-0.6,1.0,0.0,387.0,968.0,0.0,0,235.0,1
382,382,0.7712437720651878,0.8,1.0,1.0,358.0,758.0,1.0,1,124.0,1
383,383,0.16342807154101646,0.2,1.0,1.0,304.0,620.0,1.0,1,226.0,1
384,384,0.6400028222954531,0.6,0.0,0.0,275.0,564.0,0.0,1,141.0,1
385,385,-0.6429910110273402,-0.6,0.0,1.0,438.0,688.0,1.0,0,374.0,1
386,386,0.37989015251668257,0.4,1.0,1.0,427.0,990.0,1.0,1,283.0,1
387,387,-0.3727099816057138,-0.4,1.0,0.0,495.0,726.0,0.0,0,419.0,1
388,388,-0.7003383329815869,-0.7,0.0,1.0,411.0,830.0,1.0,0,139.0,1
389,389,0.22872901214444308,0.2,1.0,1.0,381.0,596.0,1.0,1,563.0,1
390,390,0.4100666189967769,0.4,0.0,0.0,406.0,799.0,0.0,1,1295.0,1
391,391,0.37919530353295905,0.4,0.0,0.0,434.0,746.0,0.0,1,1820.0,1
392,392,0.10139383302528582,0.1,1.0,1.0,445.0,673.0,1.0,1,1022.0,1
393,393,0.8668886584966083,0.9,0.0,0.0,443.0,793.0,0.0,1,224.0,1
394,394,-0.7722376842173982,-0.8,0.0,1.0,467.0,846.0,1.0,0,197.0,1
395,395,0.15572358529850006,0.2,0.0,0.0,285.0,758.0,0.0,1,1627.0,1
396,396,0.35595497349876937,0.4,0.0,0.0,470.0,908.0,0.0,1,1622.0,1
397,397,0.6468680103409895,0.6,0.0,0.0,480.0,728.0,0.0,1,292.0,1
398,398,0.14907737435898738,0.1,0.0,0.0,421.0,727.0,0.0,1,1502.0,1
399,399,0.19918581697946636,0.2,0.0,0.0,329.0,931.0,1.0,0,-500.0,0
400,400,-0.8325451763902656,-0.8,0.0,1.0,385.0,630.0,1.0,0,305.0,1
401,401,0.01289645557095409,0.0,0.0,0.0,490.0,885.0,0.0,1,1625.0,1
402,402,-0.660235103464142,-0.7,1.0,0.0,310.0,776.0,0.0,0,364.0,1
403,403,-0.8359533287512447,-0.8,0.0,1.0,254.0,924.0,1.0,0,152.0,1
404,404,-0.7161574835567944,-0.7,1.0,0.0,374.0,887.0,0.0,0,259.0,1
405,405,0.327127919544857,0.3,0.0,0.0,315.0,542.0,0.0,1,2143.0,1
406,406,0.8831153661995449,0.9,0.0,0.0,496.0,848.0,1.0,0,-44.0,0
407,407,0.6574650749897618,0.7,0.0,0.0,414.0,626.0,0.0,1,490.0,1
408,408,0.036095810101979375,0.0,0.0,0.0,437.0,501.0,0.0,1,2062.0,1
409,409,0.1564883322230023,0.2,0.0,0.0,362.0,670.0,0.0,1,1128.0,1
410,410,0.35442673851187056,0.4,1.0,1.0,475.0,983.0,1.0,1,232.0,1
411,411,0.3663411559727002,0.4,0.0,0.0,438.0,869.0,0.0,1,423.0,1
412,412,-0.4026935569468219,-0.4,1.0,0.0,348.0,637.0,0.0,0,1685.0,1
413,413,-0.7586404795968806,-0.8,1.0,0.0,307.0,831.0,0.0,0,282.0,1
414,414,-0.8995020606871389,-0.9,0.0,1.0,348.0,615.0,1.0,0,87.0,1
415,415,0.8531653560357734,0.9,0.0,0.0,403.0,522.0,0.0,1,355.0,1
416,416,-0.004651637545408538,-0.0,0.0,1.0,349.0,548.0,1.0,0,883.0,1
417,417,-0.7866518616078577,-0.8,1.0,0.0,439.0,908.0,0.0,0,413.0,1
418,418,0.4846752693054365,0.5,1.0,1.0,448.0,708.0,1.0,1,624.0,1
419,419,-0.33330044200041853,-0.3,0.0,1.0,419.0,889.0,1.0,0,452.0,1
420,420,-0.36917698884863703,-0.4,0.0,1.0,431.0,772.0,1.0,0,157.0,1
421,421,-0.7044877639626292,-0.7,1.0,0.0,397.0,586.0,0.0,0,307.0,1
422,422,0.4141417130533819,0.4,1.0,1.0,491.0,823.0,1.0,1,416.0,1
423,423,-0.8968463939155435,-0.9,0.0,1.0,333.0,996.0,1.0,0,221.0,1
424,424,0.629822739067324,0.6,1.0,1.0,492.0,634.0,1.0,1,354.0,1
425,425,-0.28603071651916356,-0.3,1.0,0.0,433.0,545.0,0.0,0,1292.0,1
426,426,0.5350112333921663,0.5,0.0,0.0,258.0,852.0,0.0,1,1670.0,1
427,427,-0.18034125346736407,-0.2,1.0,0.0,483.0,738.0,0.0,0,1609.0,1
428,428,0.8571926960530717,0.9,0.0,0.0,485.0,901.0,1.0,0,24.0,0
429,429,0.7565543260327864,0.8,1.0,1.0,462.0,918.0,1.0,1,140.0,1
430,430,0.4017313242680226,0.4,0.0,0.0,407.0,797.0,0.0,1,336.0,1
431,431,-0.33077142253018077,-0.3,1.0,0.0,279.0,697.0,0.0,0,1464.0,1
432,432,-0.8448137928185142,-0.8,0.0,1.0,489.0,721.0,1.0,0,90.0,1
433,433,-0.3266795426158401,-0.3,0.0,1.0,310.0,952.0,1.0,0,278.0,1
434,434,0.4526998531552565,0.5,1.0,1.0,265.0,843.0,1.0,1,232.0,1
435,435,-0.6629080469587076,-0.7,1.0,0.0,334.0,965.0,0.0,0,161.0,1
436,436,0.55661537143177,0.6,1.0,1.0,313.0,842.0,1.0,1,185.0,1
437,437,0.560539160317317,0.6,1.0,1.0,493.0,759.0,1.0,1,378.0,1
438,438,0.4075351383090068,0.4,1.0,1.0,372.0,643.0,1.0,1,535.0,1
439,439,-0.6388860235566989,-0.6,0.0,1.0,252.0,617.0,1.0,0,161.0,1
440,440,0.6773388342020864,0.7,0.0,0.0,377.0,890.0,0.0,1,413.0,1
441,441,0.1692925541948288,0.2,1.0,1.0,444.0,674.0,1.0,1,1882.0,1
442,442,-0.4678539933316624,-0.5,1.0,0.0,493.0,900.0,0.0,0,1057.0,1
443,443,-0.6365056023566424,-0.6,1.0,0.0,288.0,538.0,0.0,0,174.0,1
444,444,0.8278026460788327,0.8,0.0,0.0,262.0,557.0,0.0,1,281.0,1
445,445,0.11765108909658017,0.1,0.0,0.0,341.0,640.0,1.0,0,2019.0,0
446,446,-0.45345078503538755,-0.5,1.0,0.0,356.0,822.0,0.0,0,412.0,1
447,447,-0.14124525413768452,-0.1,0.0,1.0,354.0,686.0,1.0,0,470.0,1
448,448,-0.1540260915077285,-0.2,0.0,1.0,479.0,886.0,1.0,0,355.0,1
449,449,0.5839582683556289,0.6,1.0,1.0,456.0,901.0,1.0,1,173.0,1
450,450,0.1106743887801519,0.1,0.0,0.0,493.0,874.0,1.0,0,1633.0,0
451,451,0.02582610596792434,0.0,0.0,0.0,478.0,696.0,1.0,0,1436.0,0
452,452,-0.2174072451107153,-0.2,1.0,0.0,433.0,574.0,0.0,0,1303.0,1
453,453,0.026812487978726818,0.0,1.0,1.0,420.0,747.0,0.0,0,1833.0,0
454,454,-0.7294005800888063,-0.7,0.0,1.0,471.0,906.0,1.0,0,253.0,1
455,455,0.1511834552528767,0.2,1.0,1.0,348.0,872.0,1.0,1,470.0,1
456,456,0.43151589029637083,0.4,1.0,1.0,491.0,606.0,1.0,1,313.0,1
457,457,-0.2597792799998815,-0.3,0.0,1.0,315.0,742.0,1.0,0,163.0,1
458,458,-0.6940946101983054,-0.7,1.0,0.0,374.0,710.0,0.0,0,56.0,1
459,459,0.6892918969666172,0.7,1.0,1.0,280.0,672.0,1.0,1,428.0,1
460,460,-0.009557037922155232,-0.0,0.0,1.0,333.0,807.0,1.0,0,1490.0,1
461,461,-0.7142241841293907,-0.7,0.0,1.0,266.0,594.0,1.0,0,130.0,1
462,462,-0.04064769490938369,-0.0,1.0,0.0,280.0,704.0,0.0,0,2016.0,1
463,463,0.39397159498871626,0.4,1.0,1.0,405.0,514.0,1.0,1,221.0,1
464,464,-0.3415665931847066,-0.3,0.0,1.0,355.0,790.0,1.0,0,525.0,1
465,465,0.5181098241543151,0.5,0.0,0.0,370.0,828.0,0.0,1,732.0,1
466,466,0.38597934437818815,0.4,1.0,1.0,382.0,752.0,1.0,1,656.0,1
467,467,0.7049476807896528,0.7,0.0,0.0,419.0,680.0,0.0,1,361.0,1
468,468,-0.5771687140105752,-0.6,1.0,0.0,418.0,559.0,0.0,0,193.0,1
469,469,-0.03411974684093855,-0.0,1.0,0.0,342.0,533.0,1.0,1,2125.0,0
470,470,0.2619640881887183,0.3,0.0,0.0,342.0,802.0,0.0,1,316.0,1
471,471,0.4446168911419649,0.4,0.0,0.0,476.0,536.0,0.0,1,118.0,1
472,472,-0.04938514240221081,-0.0,0.0,1.0,426.0,771.0,1.0,0,673.0,1
473,473,0.6342689047378894,0.6,0.0,0.0,448.0,952.0,0.0,1,790.0,1
474,474,-0.8934322354727743,-0.9,0.0,1.0,276.0,739.0,1.0,0,145.0,1
475,475,-0.40271223686069685,-0.4,0.0,1.0,395.0,792.0,1.0,0,163.0,1
476,476,-0.8357295102739352,-0.8,0.0,1.0,298.0,505.0,1.0,0,257.0,1
477,477,0.6419513992150364,0.6,1.0,1.0,255.0,851.0,1.0,1,444.0,1
478,478,0.11113305232242399,0.1,1.0,1.0,494.0,648.0,1.0,1,1538.0,1
479,479,0.8820102698487998,0.9,0.0,0.0,348.0,565.0,0.0,1,527.0,1
480,480,0.31761076484295303,0.3,1.0,1.0,304.0,868.0,1.0,1,608.0,1
481,481,0.4453842227584862,0.4,0.0,0.0,299.0,529.0,0.0,1,592.0,1
482,482,-0.3836026620342916,-0.4,0.0,1.0,391.0,846.0,1.0,0,-137.0,1
483,483,-0.2696577180950388,-0.3,0.0,1.0,295.0,695.0,1.0,0,310.0,1
484,484,-0.6372525643850793,-0.6,1.0,0.0,444.0,699.0,0.0,0,427.0,1
485,485,-0.05814204065727657,-0.1,1.0,0.0,414.0,924.0,0.0,0,1662.0,1
486,486,-0.1760527804273142,-0.2,1.0,0.0,349.0,723.0,1.0,1,1928.0,0
487,487,0.18724013471249135,0.2,1.0,1.0,305.0,794.0,1.0,1,181.0,1
488,488,0.4038103354646131,0.4,1.0,1.0,488.0,730.0,1.0,1,322.0,1
489,489,0.6530032627250578,0.7,1.0,1.0,475.0,914.0,1.0,1,31.0,1
490,490,-0.20010177719183642,-0.2,1.0,0.0,276.0,805.0,0.0,0,1919.0,1
491,491,0.832296006155273,0.8,0.0,0.0,329.0,932.0,0.0,1,429.0,1
492,492,-0.8148785807119359,-0.8,1.0,0.0,310.0,901.0,0.0,0,329.0,1
493,493,0.7008380206735164,0.7,0.0,0.0,339.0,935.0,0.0,1,226.0,1
494,494,-0.22520726426578097,-0.2,1.0,0.0,296.0,981.0,0.0,0,653.0,1
495,495,-0.1382406550992814,-0.1,0.0,1.0,337.0,563.0,1.0,0,260.0,1
496,496,0.7965624361209812,0.8,0.0,0.0,320.0,733.0,0.0,1,277.0,1
497,497,-0.6992989191418661,-0.7,0.0,1.0,290.0,556.0,1.0,0,204.0,1
498,498,-0.10300098429683435,-0.1,0.0,1.0,469.0,554.0,1.0,0,-93.0,1
499,499,0.6814610872382655,0.7,0.0,0.0,496.0,825.0,0.0,1,309.0,1
500,500,-0.03121143958782202,-0.0,1.0,0.0,277.0,628.0,1.0,1,1235.0,0
501,501,-0.7765002524085298,-0.8,1.0,0.0,464.0,700.0,0.0,0,306.0,1
502,502,0.42523320928094754,0.4,0.0,0.0,423.0,566.0,0.0,1,2011.0,1
503,503,0.6224331582439234,0.6,1.0,1.0,462.0,973.0,1.0,1,225.0,1
504,504,-0.6220638379613677,-0.6,0.0,1.0,264.0,781.0,1.0,0,225.0,1
505,505,0.10226138477465219,0.1,1.0,1.0,462.0,526.0,1.0,1,2012.0,1
506,506,0.8339705118833433,0.8,1.0,1.0,317.0,743.0,1.0,1,130.0,1
507,507,-0.24583149263637583,-0.2,0.0,1.0,301.0,505.0,1.0,0,374.0,1
508,508,0.013409721303725863,0.0,1.0,1.0,265.0,626.0,1.0,1,1369.0,1
509,509,0.47115724727346564,0.5,1.0,1.0,293.0,582.0,1.0,1,325.0,1
510,510,-0.8088046842911218,-0.8,0.0,1.0,300.0,911.0,1.0,0,99.0,1
511,511,-0.3895934647593997,-0.4,1.0,0.0,376.0,914.0,0.0,0,530.0,1
512,512,0.07624861462447341,0.1,1.0,1.0,351.0,971.0,1.0,1,1408.0,1
513,513,0.2640736313627142,0.3,0.0,0.0,267.0,852.0,0.0,1,1291.0,1
514,514,-0.47332851199227916,-0.5,0.0,1.0,418.0,682.0,1.0,0,270.0,1
515,515,0.6776966047481497,0.7,1.0,1.0,408.0,829.0,1.0,1,283.0,1
516,516,-0.8168295748660163,-0.8,0.0,1.0,471.0,929.0,1.0,0,190.0,1
517,517,0.06487079894766135,0.1,0.0,0.0,256.0,515.0,0.0,1,2229.0,1
518,518,-0.4397753715572967,-0.4,1.0,0.0,403.0,922.0,0.0,0,395.0,1
519,519,0.47002556286640196,0.5,1.0,1.0,259.0,864.0,1.0,1,137.0,1
520,520,0.6272126258239715,0.6,1.0,1.0,316.0,692.0,1.0,1,582.0,1
521,521,0.5835997859346301,0.6,1.0,1.0,315.0,739.0,1.0,1,126.0,1
522,522,-0.6619622589855885,-0.7,1.0,0.0,456.0,912.0,0.0,0,222.0,1
523,523,0.04841098113064657,0.0,0.0,0.0,289.0,834.0,1.0,0,1877.0,0
524,524,0.1707463248609361,0.2,1.0,1.0,256.0,760.0,1.0,1,574.0,1
525,525,-0.20485533357355468,-0.2,0.0,1.0,460.0,904.0,1.0,0,-254.0,1
526,526,-0.7129329915333016,-0.7,1.0,0.0,383.0,614.0,0.0,0,423.0,1
527,527,0.2735281064948537,0.3,1.0,1.0,430.0,696.0,1.0,1,174.0,1
528,528,0.5345826540217277,0.5,1.0,1.0,354.0,790.0,1.0,1,546.0,1
529,529,-0.1833371857599968,-0.2,0.0,1.0,411.0,797.0,1.0,0,752.0,1
530,530,-0.11163704729778501,-0.1,1.0,0.0,330.0,696.0,0.0,0,1974.0,1
531,531,0.33086235726908086,0.3,0.0,0.0,276.0,612.0,0.0,1,522.0,1
532,532,0.14021331054439579,0.1,0.0,0.0,464.0,872.0,0.0,1,1664.0,1
533,533,0.33571400374115756,0.3,1.0,1.0,362.0,665.0,1.0,1,293.0,1
534,534,0.34191692328319545,0.3,1.0,1.0,331.0,992.0,1.0,1,147.0,1
535,535,0.6767554022079113,0.7,0.0,0.0,364.0,965.0,0.0,1,1061.0,1
536,536,-0.26850533271749377,-0.3,0.0,1.0,360.0,636.0,1.0,0,704.0,1
537,537,0.11410571545161019,0.1,0.0,0.0,494.0,858.0,0.0,1,1648.0,1
538,538,0.3578789698208945,0.4,0.0,0.0,319.0,609.0,0.0,1,2072.0,1
539,539,0.5773515881649453,0.6,0.0,0.0,433.0,963.0,0.0,1,364.0,1
540,540,0.5781582921383953,0.6,0.0,0.0,428.0,845.0,0.0,1,1457.0,1
541,541,0.3557617059190935,0.4,1.0,1.0,467.0,661.0,1.0,1,532.0,1
542,542,-0.056699366634865855,-0.1,0.0,1.0,352.0,520.0,1.0,0,558.0,1
543,543,0.6227351568917304,0.6,1.0,1.0,421.0,703.0,1.0,1,286.0,1
544,544,0.34533587558316314,0.3,0.0,0.0,457.0,727.0,0.0,1,1816.0,1
545,545,0.06813621174198192,0.1,1.0,1.0,346.0,702.0,1.0,1,1952.0,1
546,546,-0.7365188238950617,-0.7,0.0,1.0,485.0,659.0,1.0,0,176.0,1
547,547,0.7558030615909296,0.8,0.0,0.0,455.0,660.0,0.0,1,715.0,1
548,548,0.015015229206571612,0.0,0.0,0.0,321.0,618.0,1.0,0,1921.0,0
549,549,0.4951178099006198,0.5,1.0,1.0,353.0,508.0,1.0,1,209.0,1
550,550,-0.693649427771151,-0.7,1.0,0.0,347.0,851.0,0.0,0,522.0,1
551,551,0.49148711806406864,0.5,0.0,0.0,415.0,534.0,0.0,1,251.0,1
552,552,0.5426065452210588,0.5,1.0,1.0,288.0,961.0,1.0,1,271.0,1
553,553,-0.3288447937933945,-0.3,0.0,1.0,387.0,724.0,1.0,0,259.0,1
554,554,-0.6310145096813324,-0.6,1.0,0.0,442.0,721.0,0.0,0,277.0,1
555,555,-0.486671232585926,-0.5,0.0,1.0,250.0,904.0,1.0,0,256.0,1
556,556,-0.12272064145337847,-0.1,1.0,0.0,448.0,597.0,1.0,1,1955.0,0
557,557,-0.18198762101768906,-0.2,0.0,1.0,472.0,930.0,1.0,0,398.0,1
558,558,0.7248919833677053,0.7,0.0,0.0,482.0,555.0,0.0,1,93.0,1
559,559,0.32381741792151686,0.3,0.0,0.0,421.0,836.0,0.0,1,273.0,1
560,560,0.7588016726453034,0.8,1.0,1.0,493.0,888.0,1.0,1,309.0,1
561,561,0.5092105870266502,0.5,1.0,1.0,363.0,584.0,1.0,1,233.0,1
562,562,0.4281365166469612,0.4,0.0,0.0,301.0,615.0,0.0,1,924.0,1
563,563,0.6956371881132554,0.7,0.0,0.0,363.0,975.0,0.0,1,222.0,1
564,564,-0.2913954332849602,-0.3,0.0,1.0,375.0,569.0,1.0,0,696.0,1
565,565,-0.007792516572140196,-0.0,1.0,0.0,386.0,994.0,0.0,0,1620.0,1
566,566,0.6793103846962384,0.7,0.0,0.0,488.0,640.0,0.0,1,1282.0,1
567,567,-0.20277693278234066,-0.2,1.0,0.0,320.0,739.0,0.0,0,171.0,1
568,568,0.754469139586427,0.8,0.0,0.0,276.0,705.0,0.0,1,349.0,1
569,569,-0.82303748083281,-0.8,0.0,1.0,303.0,636.0,1.0,0,161.0,1
570,570,0.629914567060858,0.6,1.0,1.0,418.0,901.0,1.0,1,111.0,1
571,571,0.03837118663915795,0.0,1.0,1.0,316.0,798.0,1.0,1,1886.0,1
572,572,-0.1253378160494789,-0.1,0.0,1.0,405.0,560.0,1.0,0,735.0,1
573,573,0.20523814171349708,0.2,1.0,1.0,466.0,743.0,1.0,1,961.0,1
574,574,-0.7119026905665865,-0.7,0.0,1.0,380.0,603.0,1.0,0,157.0,1
575,575,-0.6386892142369498,-0.6,0.0,1.0,474.0,924.0,1.0,0,-128.0,1
576,576,-0.5471322576057831,-0.5,1.0,0.0,419.0,728.0,0.0,0,813.0,1
577,577,0.2809204918517477,0.3,1.0,1.0,321.0,812.0,1.0,1,877.0,1
578,578,-0.24298728516939083,-0.2,1.0,0.0,278.0,957.0,0.0,0,1765.0,1
579,579,-0.7632542939093063,-0.8,0.0,1.0,444.0,641.0,1.0,0,165.0,1
580,580,-0.32190782084905667,-0.3,1.0,0.0,420.0,650.0,0.0,0,550.0,1
581,581,-0.1607180005485761,-0.2,1.0,0.0,462.0,865.0,0.0,0,1673.0,1
582,582,0.39862655059365515,0.4,0.0,0.0,267.0,560.0,0.0,1,683.0,1
583,583,-0.17887277077585995,-0.2,0.0,1.0,304.0,612.0,1.0,0,1614.0,1
584,584,0.31164719722231726,0.3,1.0,1.0,365.0,583.0,1.0,1,742.0,1
585,585,0.25344520994156794,0.3,1.0,1.0,381.0,512.0,1.0,1,407.0,1
586,586,-0.7335709826624626,-0.7,1.0,0.0,342.0,516.0,0.0,0,202.0,1
587,587,0.677568143041939,0.7,0.0,0.0,496.0,969.0,0.0,1,815.0,1
588,588,0.8110143384123006,0.8,0.0,0.0,484.0,611.0,0.0,1,585.0,1
589,589,0.8482630814215978,0.8,1.0,1.0,320.0,962.0,1.0,1,228.0,1
590,590,-0.6563747116820255,-0.7,1.0,0.0,431.0,963.0,0.0,0,236.0,1
591,591,-0.7318778250192145,-0.7,0.0,1.0,333.0,729.0,1.0,0,268.0,1
592,592,0.4824996354204,0.5,1.0,1.0,413.0,556.0,1.0,1,501.0,1
593,593,-0.7812658478689763,-0.8,1.0,0.0,424.0,719.0,0.0,0,357.0,1
594,594,0.6479939297169798,0.6,0.0,0.0,344.0,581.0,0.0,1,285.0,1
595,595,-0.26406723209186367,-0.3,0.0,1.0,256.0,522.0,1.0,0,1132.0,1
596,596,-0.30337822991040997,-0.3,0.0,1.0,381.0,901.0,1.0,0,148.0,1
597,597,0.7646635818041457,0.8,0.0,0.0,292.0,868.0,0.0,1,250.0,1
598,598,-0.6769453761848039,-0.7,1.0,0.0,382.0,645.0,0.0,0,343.0,1
599,599,-0.16287084527972162,-0.2,0.0,1.0,387.0,602.0,1.0,0,571.0,1
600,600,-0.28906909825283655,-0.3,1.0,0.0,289.0,741.0,0.0,0,1970.0,1
601,601,0.7926135977073564,0.8,1.0,1.0,461.0,563.0,1.0,1,176.0,1
602,602,0.39815380859199656,0.4,1.0,1.0,435.0,941.0,1.0,1,564.0,1
603,603,0.7011941804538361,0.7,1.0,1.0,383.0,684.0,1.0,1,143.0,1
604,604,-0.14695030536984632,-0.1,1.0,0.0,360.0,678.0,0.0,0,542.0,1
605,605,0.16414156195063712,0.2,1.0,1.0,310.0,728.0,1.0,1,382.0,1
606,606,0.004493768259581032,0.0,0.0,0.0,418.0,979.0,1.0,0,623.0,0
607,607,-0.36675807557752804,-0.4,0.0,1.0,287.0,503.0,1.0,0,520.0,1
608,608,-0.4063711027835097,-0.4,0.0,1.0,424.0,580.0,1.0,0,306.0,1
609,609,0.4913948910993714,0.5,0.0,0.0,298.0,614.0,0.0,1,258.0,1
610,610,0.22946344797864449,0.2,0.0,0.0,421.0,649.0,0.0,1,1930.0,1
611,611,0.2877034872255678,0.3,0.0,0.0,469.0,610.0,0.0,1,571.0,1
612,612,0.31212582640756226,0.3,1.0,1.0,432.0,887.0,1.0,1,361.0,1
613,613,0.8975766467604641,0.9,0.0,0.0,421.0,899.0,0.0,1,1680.0,1
614,614,0.39156448934117216,0.4,1.0,1.0,338.0,776.0,1.0,1,446.0,1
615,615,0.8207051134456845,0.8,0.0,0.0,285.0,856.0,0.0,1,129.0,1
616,616,-0.03095192046468076,-0.0,0.0,1.0,432.0,965.0,1.0,0,913.0,1
617,617,0.33064009027303765,0.3,0.0,0.0,337.0,749.0,0.0,1,1914.0,1
618,618,0.6647134881214151,0.7,0.0,0.0,388.0,665.0,0.0,1,1947.0,1
619,619,0.6992922513091201,0.7,1.0,1.0,302.0,975.0,1.0,1,183.0,1
620,620,0.25816934958784865,0.3,0.0,0.0,279.0,980.0,0.0,1,1741.0,1
621,621,0.1290838623521987,0.1,1.0,1.0,274.0,708.0,1.0,1,1208.0,1
622,622,0.4285792997029684,0.4,1.0,1.0,329.0,972.0,1.0,1,369.0,1
623,623,0.006016212934411902,0.0,1.0,1.0,310.0,758.0,1.0,1,1932.0,1
624,624,-0.48569833855356326,-0.5,1.0,0.0,477.0,656.0,0.0,0,677.0,1
625,625,0.5652577024489288,0.6,1.0,1.0,482.0,694.0,1.0,1,324.0,1
626,626,-0.1890130135496758,-0.2,1.0,0.0,398.0,693.0,0.0,0,1909.0,1
627,627,-0.44705355957097126,-0.4,0.0,1.0,476.0,592.0,1.0,0,302.0,1
628,628,0.03259935013213677,0.0,0.0,0.0,265.0,888.0,1.0,0,1847.0,0
629,629,-0.3303665793673435,-0.3,1.0,0.0,353.0,686.0,0.0,0,581.0,1
630,630,-0.72026188187359,-0.7,1.0,0.0,275.0,713.0,0.0,0,202.0,1
631,631,0.3345418031943389,0.3,1.0,1.0,417.0,524.0,1.0,1,599.0,1
632,632,-0.031413348995544044,-0.0,0.0,1.0,360.0,765.0,1.0,0,1875.0,1
633,633,-0.23267545509064913,-0.2,0.0,1.0,323.0,775.0,1.0,0,362.0,1
634,634,0.69654492608942,0.7,0.0,0.0,403.0,735.0,0.0,1,1862.0,1
635,635,0.48981287855797084,0.5,0.0,0.0,459.0,648.0,0.0,1,1283.0,1
636,636,0.7167732849545655,0.7,0.0,0.0,377.0,960.0,0.0,1,353.0,1
637,637,-0.6650032839472034,-0.7,1.0,0.0,443.0,726.0,0.0,0,481.0,1
638,638,-0.28015633392135497,-0.3,0.0,1.0,347.0,860.0,1.0,0,653.0,1
639,639,0.07479330307582577,0.1,1.0,1.0,272.0,651.0,1.0,1,657.0,1
640,640,-0.08736765417653736,-0.1,0.0,1.0,364.0,740.0,1.0,0,956.0,1
641,641,-0.8644183764871576,-0.9,1.0,0.0,263.0,764.0,0.0,0,193.0,1
642,642,-0.43801548886444697,-0.4,0.0,1.0,284.0,930.0,1.0,0,306.0,1
643,643,0.23823205265927305,0.2,0.0,0.0,460.0,737.0,0.0,1,1803.0,1
644,644,0.5220812592004297,0.5,0.0,0.0,326.0,674.0,0.0,1,630.0,1
645,645,-0.6891210889453865,-0.7,1.0,0.0,457.0,742.0,0.0,0,541.0,1
646,646,0.2969021212904156,0.3,1.0,1.0,274.0,996.0,1.0,1,490.0,1
647,647,-0.34136872870061097,-0.3,0.0,1.0,258.0,990.0,1.0,0,372.0,1
648,648,-0.47972790727649106,-0.5,0.0,1.0,330.0,516.0,1.0,0,74.0,1
649,649,-0.3591186907258964,-0.4,0.0,1.0,429.0,955.0,1.0,0,226.0,1
650,650,-0.39599051723829204,-0.4,0.0,1.0,442.0,866.0,1.0,0,232.0,1
651,651,0.2770145367763096,0.3,0.0,0.0,285.0,598.0,0.0,1,487.0,1
652,652,0.8357936517518533,0.8,0.0,0.0,278.0,982.0,0.0,1,360.0,1
653,653,0.5269978300143302,0.5,0.0,0.0,415.0,896.0,1.0,0,-151.0,0
654,654,0.7561174619384564,0.8,1.0,1.0,417.0,843.0,1.0,1,430.0,1
655,655,-0.2821495083810084,-0.3,1.0,0.0,387.0,709.0,0.0,0,304.0,1
656,656,-0.23146741516470504,-0.2,1.0,0.0,259.0,636.0,0.0,0,2105.0,1
657,657,0.4774271691907651,0.5,0.0,0.0,438.0,908.0,0.0,1,274.0,1
658,658,0.8287489818257087,0.8,0.0,0.0,416.0,841.0,0.0,1,283.0,1
659,659,-0.3833954950758516,-0.4,0.0,1.0,324.0,750.0,1.0,0,316.0,1
660,660,-0.5877509048761929,-0.6,1.0,0.0,287.0,537.0,0.0,0,1746.0,1
661,661,-0.2912641055314894,-0.3,0.0,1.0,355.0,872.0,1.0,0,-77.0,1
662,662,0.7880279683039945,0.8,1.0,1.0,274.0,994.0,1.0,1,112.0,1
663,663,-0.4908048089802665,-0.5,0.0,1.0,495.0,905.0,1.0,0,260.0,1
664,664,0.6957235017415867,0.7,0.0,0.0,440.0,514.0,0.0,1,186.0,1
665,665,-0.5613418477974259,-0.6,0.0,1.0,435.0,973.0,1.0,0,232.0,1
666,666,-0.4343856572893082,-0.4,0.0,1.0,294.0,599.0,1.0,0,7.0,1
667,667,-0.7804017777342361,-0.8,1.0,0.0,304.0,890.0,0.0,0,486.0,1
668,668,0.5115363127396829,0.5,0.0,0.0,364.0,595.0,0.0,1,1621.0,1
669,669,-0.7473931442923374,-0.7,0.0,1.0,317.0,787.0,1.0,0,76.0,1
670,670,0.8350083708737738,0.8,0.0,0.0,440.0,797.0,0.0,1,553.0,1
671,671,0.7887029040083929,0.8,1.0,1.0,477.0,795.0,1.0,1,278.0,1
672,672,-0.38613172952437913,-0.4,1.0,0.0,388.0,807.0,0.0,0,385.0,1
673,673,0.16786553688713812,0.2,0.0,0.0,366.0,653.0,0.0,1,1981.0,1
674,674,0.68021300876623,0.7,0.0,0.0,297.0,740.0,0.0,1,433.0,1
675,675,-0.16428357648118452,-0.2,0.0,1.0,355.0,991.0,1.0,0,164.0,1
676,676,-0.582400522858677,-0.6,1.0,0.0,310.0,819.0,1.0,1,-119.0,0
677,677,-0.8758689685076455,-0.9,1.0,0.0,442.0,966.0,0.0,0,202.0,1
678,678,0.0539716329435318,0.1,1.0,1.0,478.0,773.0,1.0,1,1749.0,1
679,679,-0.5155019947379045,-0.5,0.0,1.0,474.0,876.0,1.0,0,180.0,1
680,680,-0.3163389245758905,-0.3,1.0,0.0,350.0,920.0,1.0,1,-30.0,0
681,681,-0.314427519520453,-0.3,1.0,0.0,287.0,794.0,0.0,0,799.0,1
682,682,-0.49226816022229297,-0.5,1.0,0.0,362.0,829.0,0.0,0,259.0,1
683,683,-0.7261524320800328,-0.7,0.0,1.0,368.0,960.0,1.0,0,222.0,1
684,684,0.7218772787268682,0.7,1.0,1.0,289.0,838.0,1.0,1,153.0,1
685,685,-0.31969938481897053,-0.3,0.0,1.0,338.0,951.0,1.0,0,111.0,1
686,686,-0.3121659068286563,-0.3,1.0,0.0,488.0,998.0,0.0,0,1514.0,1
687,687,-0.2961156376400108,-0.3,1.0,0.0,311.0,662.0,0.0,0,2027.0,1
688,688,-0.839343865915828,-0.8,1.0,0.0,455.0,950.0,0.0,0,345.0,1
689,689,0.3301952220581902,0.3,0.0,0.0,407.0,973.0,0.0,1,1620.0,1
690,690,-0.49652289650638115,-0.5,0.0,1.0,290.0,830.0,1.0,0,390.0,1
691,691,0.3776845224413833,0.4,1.0,1.0,398.0,904.0,1.0,1,338.0,1
692,692,-0.07739284012079617,-0.1,0.0,1.0,487.0,574.0,1.0,0,1649.0,1
693,693,-0.11423602370920793,-0.1,1.0,0.0,355.0,772.0,1.0,1,1873.0,0
694,694,0.3954670377793835,0.4,0.0,0.0,373.0,665.0,0.0,1,922.0,1
695,695,0.22553633647132332,0.2,1.0,1.0,259.0,801.0,1.0,1,1380.0,1
696,696,0.8773278286416101,0.9,0.0,0.0,446.0,957.0,0.0,1,97.0,1
697,697,0.6173836570914436,0.6,1.0,1.0,358.0,888.0,1.0,1,234.0,1
698,698,-0.5707536427768696,-0.6,1.0,0.0,394.0,565.0,0.0,0,521.0,1
699,699,0.707954643897439,0.7,1.0,1.0,257.0,581.0,1.0,1,202.0,1
700,700,0.5061600647312431,0.5,1.0,1.0,400.0,506.0,1.0,1,424.0,1
701,701,-0.030437605814054525,-0.0,0.0,1.0,277.0,702.0,1.0,0,1521.0,1
702,702,-0.6665937963366511,-0.7,1.0,0.0,327.0,697.0,0.0,0,746.0,1
703,703,-0.3076145366379104,-0.3,1.0,0.0,377.0,649.0,0.0,0,354.0,1
704,704,0.6599587853555461,0.7,1.0,1.0,280.0,767.0,1.0,1,103.0,1
705,705,-0.38724478323507217,-0.4,1.0,0.0,361.0,534.0,0.0,0,475.0,1
706,706,-0.866002390193739,-0.9,0.0,1.0,412.0,639.0,1.0,0,139.0,1
707,707,-0.7518863693977264,-0.8,0.0,1.0,405.0,740.0,1.0,0,135.0,1
708,708,-0.021117467171731907,-0.0,1.0,0.0,495.0,779.0,0.0,0,1726.0,1
709,709,0.7074550945668058,0.7,1.0,1.0,269.0,712.0,1.0,1,209.0,1
710,710,0.7813524543099125,0.8,0.0,0.0,459.0,956.0,0.0,1,335.0,1
711,711,0.8947545205069519,0.9,1.0,1.0,416.0,897.0,1.0,1,187.0,1
712,712,0.4934783663923422,0.5,0.0,0.0,484.0,931.0,0.0,1,845.0,1
713,713,-0.2627670238976313,-0.3,0.0,1.0,493.0,915.0,1.0,0,672.0,1
714,714,0.6236869291092274,0.6,1.0,1.0,468.0,898.0,1.0,1,234.0,1
715,715,-0.462323890549478,-0.5,0.0,1.0,321.0,554.0,1.0,0,255.0,1
716,716,-0.7189136501644449,-0.7,0.0,1.0,454.0,986.0,1.0,0,190.0,1
717,717,0.823287979088854,0.8,1.0,1.0,365.0,697.0,1.0,1,278.0,1
718,718,0.6352337701339831,0.6,1.0,1.0,328.0,529.0,1.0,1,313.0,1
719,719,-0.7888982643083627,-0.8,1.0,0.0,382.0,969.0,0.0,0,539.0,1
720,720,-0.6131280877534893,-0.6,0.0,1.0,366.0,640.0,1.0,0,174.0,1
721,721,0.7017917381294506,0.7,0.0,0.0,338.0,665.0,0.0,1,337.0,1
722,722,0.7829933046707643,0.8,0.0,0.0,491.0,793.0,0.0,1,366.0,1
723,723,0.23958640439200962,0.2,0.0,0.0,330.0,767.0,1.0,0,-37.0,0
724,724,-0.26540886152185694,-0.3,0.0,1.0,383.0,914.0,1.0,0,-87.0,1
725,725,0.2873209322990212,0.3,1.0,1.0,256.0,572.0,1.0,1,322.0,1
726,726,-0.5309316910601531,-0.5,0.0,1.0,402.0,581.0,1.0,0,307.0,1
727,727,0.6857944285208751,0.7,1.0,1.0,410.0,753.0,1.0,1,147.0,1
728,728,-0.7782412496301923,-0.8,0.0,1.0,410.0,975.0,1.0,0,85.0,1
729,729,-0.1617404271836883,-0.2,0.0,1.0,464.0,713.0,1.0,0,453.0,1
730,730,0.19986298101105715,0.2,1.0,1.0,364.0,555.0,1.0,1,571.0,1
731,731,0.42900462231209147,0.4,0.0,0.0,309.0,714.0,0.0,1,777.0,1
732,732,-0.462110764325871,-0.5,0.0,1.0,378.0,715.0,1.0,0,397.0,1
733,733,0.8649329233435453,0.9,0.0,0.0,250.0,683.0,0.0,1,217.0,1
734,734,0.4016165368786103,0.4,0.0,0.0,345.0,954.0,0.0,1,1701.0,1
735,735,-0.7817825497557449,-0.8,1.0,0.0,355.0,534.0,0.0,0,321.0,1
736,736,-0.19983914282788418,-0.2,0.0,1.0,275.0,997.0,1.0,0,-62.0,1
737,737,-0.16522321477880664,-0.2,1.0,0.0,273.0,902.0,1.0,1,-135.0,0
738,738,0.6773801782521712,0.7,1.0,1.0,267.0,636.0,1.0,1,197.0,1
739,739,-0.5610486484518116,-0.6,0.0,1.0,298.0,754.0,1.0,0,128.0,1
740,740,-0.10062394177730283,-0.1,1.0,0.0,444.0,513.0,0.0,0,1413.0,1
741,741,0.4159375372506452,0.4,0.0,0.0,354.0,911.0,0.0,1,975.0,1
742,742,0.1288005705086216,0.1,1.0,1.0,266.0,539.0,1.0,1,2195.0,1
743,743,0.30031535142454124,0.3,0.0,0.0,328.0,902.0,0.0,1,990.0,1
744,744,-0.6687139041943914,-0.7,0.0,1.0,444.0,741.0,1.0,0,175.0,1
745,745,-0.42121527890612925,-0.4,1.0,0.0,259.0,998.0,0.0,0,1353.0,1
746,746,0.8251720891063364,0.8,1.0,1.0,411.0,846.0,1.0,1,173.0,1
747,747,0.00039470241940497974,0.0,1.0,1.0,348.0,543.0,1.0,1,1799.0,1
748,748,0.33782679765318313,0.3,0.0,0.0,443.0,590.0,0.0,1,847.0,1
749,749,-0.7473248447040545,-0.7,0.0,1.0,455.0,862.0,1.0,0,-77.0,1
750,750,-0.5758183378130415,-0.6,0.0,1.0,283.0,598.0,1.0,0,419.0,1
751,751,0.39594705839165545,0.4,1.0,1.0,311.0,666.0,1.0,1,753.0,1
752,752,-0.30249350765077687,-0.3,0.0,1.0,386.0,832.0,1.0,0,782.0,1
753,753,0.10956004485866477,0.1,1.0,1.0,485.0,635.0,1.0,1,1700.0,1
754,754,-0.19259925647065446,-0.2,0.0,1.0,290.0,708.0,1.0,0,982.0,1
755,755,0.6352721508895621,0.6,0.0,0.0,333.0,785.0,0.0,1,172.0,1
756,756,0.1895279592675535,0.2,1.0,1.0,349.0,976.0,1.0,1,385.0,1
757,757,0.7970893601933672,0.8,1.0,1.0,430.0,895.0,1.0,1,135.0,1
758,758,-0.19458387432020685,-0.2,1.0,0.0,457.0,982.0,0.0,0,1471.0,1
759,759,-0.14932913469139186,-0.1,0.0,1.0,281.0,621.0,1.0,0,918.0,1
760,760,-0.7389035305283557,-0.7,1.0,0.0,284.0,783.0,0.0,0,243.0,1
761,761,-0.7470470202981238,-0.7,1.0,0.0,346.0,794.0,0.0,0,160.0,1
762,762,-0.4866187995005962,-0.5,0.0,1.0,347.0,612.0,1.0,0,311.0,1
763,763,-0.6749073339138539,-0.7,0.0,1.0,425.0,867.0,1.0,0,228.0,1
764,764,-0.1727040024823634,-0.2,1.0,0.0,287.0,631.0,0.0,0,2082.0,1
765,765,-0.8338998434196675,-0.8,1.0,0.0,414.0,825.0,0.0,0,1181.0,1
766,766,0.22816225469506868,0.2,0.0,0.0,353.0,529.0,0.0,1,658.0,1
767,767,0.21355067365021096,0.2,0.0,0.0,304.0,611.0,0.0,1,1125.0,1
768,768,-0.3350937532453071,-0.3,1.0,0.0,397.0,643.0,0.0,0,680.0,1
769,769,-0.5985414154945341,-0.6,1.0,0.0,387.0,651.0,0.0,0,462.0,1
770,770,-0.5663515361720473,-0.6,1.0,0.0,303.0,744.0,0.0,0,563.0,1
771,771,0.04885197687439169,0.0,1.0,1.0,402.0,662.0,1.0,1,1156.0,1
772,772,-0.5830435853639204,-0.6,0.0,1.0,354.0,942.0,1.0,0,324.0,1
773,773,0.7999140492327398,0.8,0.0,0.0,481.0,804.0,0.0,1,1065.0,1
774,774,0.6508050562736197,0.7,0.0,0.0,355.0,562.0,0.0,1,393.0,1
775,775,0.448126609676352,0.4,0.0,0.0,461.0,744.0,0.0,1,215.0,1
776,776,0.3734958388677522,0.4,1.0,1.0,328.0,524.0,1.0,1,218.0,1
777,777,-0.04433310148921554,-0.0,0.0,1.0,373.0,705.0,1.0,0,102.0,1
778,778,0.5076261928768552,0.5,1.0,1.0,488.0,759.0,1.0,1,233.0,1
779,779,0.5611091692678319,0.6,1.0,1.0,267.0,681.0,1.0,1,322.0,1
780,780,0.8091148096518431,0.8,0.0,0.0,279.0,995.0,0.0,1,206.0,1
781,781,-0.5773127292298459,-0.6,1.0,0.0,300.0,898.0,0.0,0,752.0,1
782,782,-0.004792548889658188,-0.0,1.0,0.0,491.0,993.0,1.0,1,1516.0,0
783,783,-0.06573876253733091,-0.1,1.0,0.0,476.0,887.0,1.0,1,1637.0,0
784,784,-0.5612103799743353,-0.6,0.0,1.0,258.0,593.0,1.0,0,469.0,1
785,785,0.39185302414153045,0.4,1.0,1.0,339.0,629.0,1.0,1,112.0,1
786,786,0.4731909632550818,0.5,0.0,0.0,320.0,516.0,0.0,1,1204.0,1
787,787,-0.5431762724262386,-0.5,0.0,1.0,463.0,819.0,1.0,0,378.0,1
788,788,-0.5106904746722634,-0.5,1.0,0.0,458.0,575.0,0.0,0,597.0,1
789,789,-0.7258006418492551,-0.7,0.0,1.0,260.0,509.0,1.0,0,91.0,1
790,790,0.007112743939462707,0.0,1.0,1.0,376.0,878.0,1.0,1,1746.0,1
791,791,0.6915119572796621,0.7,0.0,0.0,386.0,604.0,0.0,1,310.0,1
792,792,0.2528106759943344,0.3,1.0,1.0,425.0,871.0,1.0,1,434.0,1
793,793,0.8513171854998122,0.9,1.0,1.0,398.0,652.0,1.0,1,220.0,1
794,794,0.7090269958003882,0.7,0.0,0.0,373.0,908.0,0.0,1,159.0,1
795,795,-0.6110099185687632,-0.6,1.0,0.0,308.0,917.0,0.0,0,15.0,1
796,796,0.038801938683002524,0.0,0.0,0.0,457.0,707.0,1.0,0,1436.0,0
797,797,-0.7656930181640373,-0.8,1.0,0.0,350.0,837.0,1.0,1,-187.0,0
798,798,-0.19715551112451013,-0.2,0.0,1.0,276.0,754.0,1.0,0,910.0,1
799,799,0.7657802688940812,0.8,0.0,0.0,350.0,756.0,0.0,1,344.0,1
800,800,0.5814431134685393,0.6,1.0,1.0,491.0,951.0,1.0,1,318.0,1
801,801,0.11647074414757486,0.1,1.0,1.0,287.0,865.0,1.0,1,1448.0,1
802,802,0.46419192964065104,0.5,1.0,1.0,341.0,682.0,1.0,1,287.0,1
803,803,-0.2595054135929825,-0.3,1.0,0.0,289.0,865.0,0.0,0,1026.0,1
804,804,0.22013039611025997,0.2,0.0,0.0,291.0,936.0,0.0,1,1063.0,1
805,805,-0.20068356955334865,-0.2,1.0,0.0,465.0,888.0,0.0,0,1647.0,1
806,806,-0.7309965692534192,-0.7,0.0,1.0,318.0,666.0,1.0,0,246.0,1
807,807,0.719680498040619,0.7,1.0,1.0,270.0,762.0,1.0,1,198.0,1
808,808,0.04166376394016469,0.0,0.0,0.0,293.0,870.0,0.0,1,1837.0,1
809,809,0.09564886674465356,0.1,1.0,1.0,326.0,764.0,1.0,1,810.0,1
810,810,0.5659355683600328,0.6,0.0,0.0,461.0,545.0,0.0,1,684.0,1
811,811,0.8433228109499359,0.8,0.0,0.0,252.0,702.0,0.0,1,516.0,1
812,812,-0.09386387819178488,-0.1,0.0,1.0,446.0,786.0,1.0,0,558.0,1
813,813,-0.18166746344239537,-0.2,0.0,1.0,366.0,802.0,1.0,0,662.0,1
814,814,0.07173814040183335,0.1,1.0,1.0,295.0,575.0,1.0,1,140.0,1
815,815,-0.6206125142783447,-0.6,1.0,0.0,344.0,832.0,0.0,0,294.0,1
816,816,0.037598543830404396,0.0,0.0,0.0,320.0,525.0,1.0,0,2155.0,0
817,817,-0.15743389051949874,-0.2,1.0,0.0,461.0,846.0,0.0,0,1693.0,1
818,818,0.1098099097456865,0.1,1.0,1.0,476.0,959.0,1.0,1,1565.0,1
819,819,-0.5686476197920189,-0.6,1.0,0.0,356.0,797.0,1.0,1,-13.0,0
820,820,-0.14368532785617671,-0.1,1.0,0.0,456.0,927.0,0.0,0,1617.0,1
821,821,-0.6008741379138653,-0.6,0.0,1.0,358.0,845.0,1.0,0,197.0,1
822,822,-0.8067201898653574,-0.8,0.0,1.0,390.0,551.0,1.0,0,179.0,1
823,823,-0.377726591885995,-0.4,0.0,1.0,477.0,640.0,1.0,0,173.0,1
824,824,0.6010217354202784,0.6,1.0,1.0,276.0,609.0,1.0,1,395.0,1
825,825,0.3869001561332762,0.4,0.0,0.0,485.0,592.0,0.0,1,1923.0,1
826,826,0.025054983279276466,0.0,1.0,1.0,258.0,893.0,1.0,1,449.0,1
827,827,0.7499776692636894,0.7,1.0,1.0,454.0,561.0,1.0,1,385.0,1
828,828,-0.6712263085789703,-0.7,1.0,0.0,350.0,943.0,0.0,0,287.0,1
829,829,0.05443489248831157,0.1,0.0,0.0,410.0,764.0,1.0,0,1826.0,0
830,830,0.7167339608306179,0.7,1.0,1.0,413.0,732.0,1.0,1,195.0,1
831,831,0.25829139941826573,0.3,1.0,1.0,389.0,546.0,1.0,1,565.0,1
832,832,0.43916870196959035,0.4,1.0,1.0,410.0,917.0,1.0,1,223.0,1
833,833,-0.5950043051862892,-0.6,1.0,0.0,320.0,862.0,0.0,0,508.0,1
834,834,0.5645247117595419,0.6,1.0,1.0,287.0,673.0,1.0,1,440.0,1
835,835,-0.7757993101004188,-0.8,0.0,1.0,293.0,826.0,1.0,0,131.0,1
836,836,-0.8338229092308028,-0.8,0.0,1.0,254.0,960.0,1.0,0,216.0,1
837,837,0.7563836389048245,0.8,0.0,0.0,374.0,620.0,0.0,1,356.0,1
838,838,-0.2873057047950628,-0.3,0.0,1.0,376.0,815.0,1.0,0,269.0,1
839,839,0.2786745491855843,0.3,1.0,1.0,358.0,600.0,1.0,1,412.0,1
840,840,0.1412311903568294,0.1,1.0,1.0,272.0,537.0,1.0,1,1231.0,1
841,841,0.3182382853436133,0.3,0.0,0.0,265.0,830.0,0.0,1,1025.0,1
842,842,0.30568848302048235,0.3,0.0,0.0,468.0,581.0,0.0,1,481.0,1
843,843,-0.8343683907328474,-0.8,0.0,1.0,493.0,812.0,1.0,0,45.0,1
844,844,-0.12607390926853967,-0.1,0.0,1.0,495.0,509.0,1.0,0,636.0,1
845,845,-0.6644923058234743,-0.7,0.0,1.0,459.0,763.0,1.0,0,138.0,1
846,846,0.6438546006503648,0.6,0.0,0.0,368.0,654.0,0.0,1,208.0,1
847,847,0.1274139306618839,0.1,0.0,0.0,332.0,873.0,0.0,1,1795.0,1
848,848,0.8882585464878653,0.9,1.0,1.0,386.0,600.0,1.0,1,204.0,1
849,849,0.5521957598978692,0.6,0.0,0.0,366.0,781.0,0.0,1,1553.0,1
850,850,-0.4551199568386453,-0.5,1.0,0.0,482.0,787.0,0.0,0,961.0,1
851,851,0.3092098863719107,0.3,0.0,0.0,270.0,902.0,0.0,1,738.0,1
852,852,0.5482642508641088,0.5,0.0,0.0,323.0,812.0,0.0,1,815.0,1
853,853,0.14999985494684787,0.1,0.0,0.0,392.0,763.0,0.0,1,1845.0,1
854,854,0.8883357548470475,0.9,0.0,0.0,307.0,521.0,0.0,1,222.0,1
855,855,-0.19717751776859815,-0.2,1.0,0.0,309.0,914.0,0.0,0,1777.0,1
856,856,-0.6366261721222223,-0.6,0.0,1.0,303.0,844.0,1.0,0,263.0,1
857,857,-0.5579509796133736,-0.6,0.0,1.0,453.0,532.0,1.0,0,225.0,1
858,858,0.6070475192021522,0.6,1.0,1.0,412.0,532.0,1.0,1,936.0,1
859,859,0.1359266175920314,0.1,1.0,1.0,319.0,796.0,1.0,1,1005.0,1
860,860,-0.8701507653649422,-0.9,1.0,0.0,339.0,918.0,0.0,0,283.0,1
861,861,-0.5582530152376475,-0.6,0.0,1.0,430.0,669.0,1.0,0,201.0,1
862,862,-0.5429318133587577,-0.5,1.0,0.0,385.0,765.0,0.0,0,550.0,1
863,863,0.44820499282266,0.4,1.0,1.0,496.0,995.0,1.0,1,319.0,1
864,864,0.748774466220634,0.7,1.0,1.0,479.0,964.0,1.0,1,217.0,1
865,865,-0.6120962912211192,-0.6,1.0,0.0,333.0,870.0,0.0,0,347.0,1
866,866,0.6483602670055776,0.6,0.0,0.0,496.0,579.0,0.0,1,1925.0,1
867,867,0.3878125011407306,0.4,0.0,0.0,388.0,534.0,1.0,0,-52.0,0
868,868,0.49665132075402185,0.5,0.0,0.0,360.0,769.0,0.0,1,1111.0,1
869,869,-0.4350032560654397,-0.4,1.0,0.0,411.0,627.0,0.0,0,1742.0,1
870,870,-0.38653896196449133,-0.4,1.0,0.0,302.0,763.0,0.0,0,935.0,1
871,871,0.6850224298736488,0.7,0.0,0.0,331.0,749.0,0.0,1,480.0,1
872,872,0.7213860519191836,0.7,1.0,1.0,415.0,946.0,1.0,1,169.0,1
873,873,0.12370293488627448,0.1,1.0,1.0,323.0,586.0,1.0,1,1431.0,1
874,874,0.5138731528843591,0.5,1.0,1.0,413.0,978.0,1.0,1,229.0,1
875,875,0.8253003231011823,0.8,1.0,1.0,264.0,888.0,1.0,1,138.0,1
876,876,-0.7901665808715501,-0.8,0.0,1.0,261.0,880.0,1.0,0,129.0,1
877,877,-0.5217084495922576,-0.5,0.0,1.0,418.0,606.0,1.0,0,266.0,1
878,878,-0.7289856980031444,-0.7,1.0,0.0,449.0,972.0,0.0,0,529.0,1
879,879,-0.6369844268073183,-0.6,1.0,0.0,428.0,604.0,0.0,0,478.0,1
880,880,0.7449442803084573,0.7,0.0,0.0,364.0,565.0,0.0,1,2071.0,1
881,881,0.5545224116701924,0.6,0.0,0.0,409.0,874.0,0.0,1,497.0,1
882,882,0.19394549204975708,0.2,0.0,0.0,382.0,765.0,0.0,1,1373.0,1
883,883,0.18280416582545633,0.2,0.0,0.0,315.0,805.0,1.0,0,1880.0,0
884,884,0.41560302234880975,0.4,0.0,0.0,303.0,790.0,0.0,1,947.0,1
885,885,0.428070455308197,0.4,0.0,0.0,315.0,984.0,1.0,0,81.0,0
886,886,-0.8412126316208434,-0.8,0.0,1.0,289.0,569.0,1.0,0,92.0,1
887,887,0.33949941985535637,0.3,0.0,0.0,406.0,673.0,0.0,1,951.0,1
888,888,-0.7675633009396245,-0.8,0.0,1.0,382.0,960.0,1.0,0,-222.0,1
889,889,-0.6835126378780029,-0.7,1.0,0.0,305.0,850.0,0.0,0,285.0,1
890,890,0.6090734445606621,0.6,1.0,1.0,299.0,596.0,1.0,1,125.0,1
891,891,-0.15421706113344524,-0.2,1.0,0.0,342.0,917.0,0.0,0,1741.0,1
892,892,0.45211796361200196,0.5,1.0,1.0,475.0,844.0,1.0,1,471.0,1
893,893,-0.21276775174364893,-0.2,1.0,0.0,377.0,908.0,0.0,0,1715.0,1
894,894,-0.8695510357235315,-0.9,1.0,0.0,349.0,637.0,0.0,0,364.0,1
895,895,0.04044996615615848,0.0,1.0,1.0,443.0,743.0,1.0,1,1494.0,1
896,896,0.8778361433108625,0.9,1.0,1.0,388.0,703.0,1.0,1,419.0,1
897,897,-0.6430963647029964,-0.6,0.0,1.0,466.0,713.0,1.0,0,201.0,1
898,898,0.7612633843563906,0.8,1.0,1.0,427.0,518.0,1.0,1,215.0,1
899,899,0.7030466204610172,0.7,1.0,1.0,470.0,869.0,1.0,1,161.0,1
900,900,-0.8928721892910771,-0.9,0.0,1.0,344.0,835.0,1.0,0,141.0,1
901,901,-0.15494491618916617,-0.2,0.0,1.0,492.0,940.0,1.0,0,48.0,1
902,902,0.5187733944590512,0.5,0.0,0.0,493.0,614.0,0.0,1,1893.0,1
903,903,0.8523799835336715,0.9,0.0,0.0,255.0,768.0,0.0,1,367.0,1
904,904,-0.585322336522033,-0.6,0.0,1.0,450.0,695.0,1.0,0,245.0,1
905,905,0.20134110993593934,0.2,0.0,0.0,283.0,602.0,0.0,1,2115.0,1
906,906,0.39131076126122977,0.4,1.0,1.0,377.0,815.0,1.0,1,268.0,1
907,907,-0.05145928782132292,-0.1,1.0,0.0,259.0,936.0,1.0,1,1805.0,0
908,908,-0.2802922692578875,-0.3,0.0,1.0,264.0,610.0,1.0,0,-204.0,1
909,909,0.6658863553318058,0.7,0.0,0.0,361.0,643.0,0.0,1,426.0,1
910,910,-0.7805249184379788,-0.8,1.0,0.0,290.0,645.0,0.0,0,325.0,1
911,911,0.46738337015623876,0.5,0.0,0.0,306.0,893.0,0.0,1,301.0,1
912,912,-0.43073612102684866,-0.4,0.0,1.0,365.0,664.0,1.0,0,201.0,1
913,913,0.7983053053592427,0.8,0.0,0.0,326.0,700.0,0.0,1,194.0,1
914,914,0.6141301563691884,0.6,0.0,0.0,423.0,661.0,1.0,0,-144.0,0
915,915,-0.5214567886619015,-0.5,0.0,1.0,251.0,709.0,1.0,0,250.0,1
916,916,0.7698482925526505,0.8,0.0,0.0,365.0,976.0,0.0,1,199.0,1
917,917,0.7643379775194247,0.8,1.0,1.0,321.0,852.0,1.0,1,317.0,1
918,918,0.5327789086143054,0.5,1.0,1.0,477.0,896.0,1.0,1,357.0,1
919,919,-0.5199575012934132,-0.5,1.0,0.0,424.0,688.0,0.0,0,318.0,1
920,920,-0.8906562227770369,-0.9,1.0,0.0,445.0,989.0,0.0,0,396.0,1
921,921,-0.009881564837090462,-0.0,1.0,0.0,356.0,532.0,1.0,1,2112.0,0
922,922,0.7035813034687305,0.7,1.0,1.0,447.0,919.0,1.0,1,234.0,1
923,923,0.24374360384477634,0.2,1.0,1.0,444.0,772.0,1.0,1,624.0,1
924,924,0.13180911258793226,0.1,1.0,1.0,393.0,913.0,1.0,1,184.0,1
925,925,-0.6432262664265561,-0.6,1.0,0.0,434.0,928.0,1.0,1,-72.0,0
926,926,0.7531080824882671,0.8,0.0,0.0,300.0,862.0,0.0,1,458.0,1
927,927,0.4518663481162034,0.5,1.0,1.0,302.0,566.0,1.0,1,362.0,1
928,928,0.09748421879116609,0.1,0.0,0.0,377.0,619.0,0.0,1,2004.0,1
929,929,-0.37968941593814654,-0.4,1.0,0.0,294.0,673.0,0.0,0,1343.0,1
930,930,0.19040493769082112,0.2,1.0,1.0,382.0,681.0,1.0,1,827.0,1
931,931,0.3120713679848476,0.3,1.0,1.0,492.0,878.0,1.0,1,250.0,1
932,932,-0.3380867032399143,-0.3,0.0,1.0,319.0,909.0,1.0,0,422.0,1
933,933,0.5594803452455978,0.6,0.0,0.0,441.0,552.0,0.0,1,537.0,1
934,934,0.8414439197304865,0.8,0.0,0.0,397.0,989.0,0.0,1,274.0,1
935,935,0.36489485984958725,0.4,0.0,0.0,491.0,619.0,0.0,1,1890.0,1
936,936,0.866355132015287,0.9,0.0,0.0,319.0,571.0,0.0,1,270.0,1
937,937,-0.08856902304149417,-0.1,1.0,0.0,332.0,602.0,0.0,0,2066.0,1
938,938,-0.4955454947943064,-0.5,0.0,1.0,436.0,882.0,1.0,0,192.0,1
939,939,-0.7298173668335122,-0.7,1.0,0.0,361.0,654.0,0.0,0,575.0,1
940,940,-0.48435037766493577,-0.5,0.0,1.0,322.0,534.0,1.0,0,144.0,1
941,941,0.3726567445946708,0.4,0.0,0.0,434.0,682.0,1.0,0,4.0,0
942,942,0.8771008406207949,0.9,1.0,1.0,323.0,655.0,1.0,1,162.0,1
943,943,-0.7832170153770038,-0.8,1.0,0.0,354.0,968.0,0.0,0,238.0,1
944,944,0.02184426517106297,0.0,0.0,0.0,335.0,720.0,1.0,0,1945.0,0
945,945,0.7298565213328542,0.7,0.0,0.0,456.0,509.0,0.0,1,405.0,1
946,946,-0.20039383654104148,-0.2,1.0,0.0,344.0,518.0,0.0,0,2138.0,1
947,947,0.12316234233903145,0.1,1.0,1.0,324.0,675.0,1.0,1,2001.0,1
948,948,0.5649802372234968,0.6,0.0,0.0,342.0,989.0,0.0,1,1189.0,1
949,949,0.8587492548272907,0.9,0.0,0.0,336.0,553.0,0.0,1,281.0,1
950,950,-0.2828021056398299,-0.3,0.0,1.0,340.0,647.0,1.0,0,413.0,1
951,951,0.10827964164748483,0.1,0.0,0.0,260.0,712.0,0.0,1,1268.0,1
952,952,0.46877634020456294,0.5,1.0,1.0,272.0,956.0,1.0,1,322.0,1
953,953,0.8766210874069961,0.9,0.0,0.0,374.0,932.0,0.0,1,254.0,1
954,954,-0.3910354981144747,-0.4,1.0,0.0,334.0,676.0,0.0,0,510.0,1
955,955,-0.6500946185557404,-0.7,1.0,0.0,485.0,914.0,0.0,0,341.0,1
956,956,0.8917377930427303,0.9,1.0,1.0,426.0,849.0,1.0,1,165.0,1
957,957,0.10383325026543566,0.1,1.0,1.0,400.0,560.0,1.0,1,920.0,1
958,958,0.8105830961161161,0.8,1.0,1.0,471.0,674.0,1.0,1,145.0,1
959,959,0.49847011215066306,0.5,1.0,1.0,397.0,963.0,1.0,1,420.0,1
960,960,-0.10562697280526312,-0.1,0.0,1.0,286.0,905.0,1.0,0,399.0,1
961,961,-0.5476964590023545,-0.5,0.0,1.0,390.0,819.0,1.0,0,71.0,1
962,962,-0.6019874969770356,-0.6,0.0,1.0,318.0,972.0,1.0,0,330.0,1
963,963,-0.18142087985178335,-0.2,1.0,0.0,318.0,632.0,0.0,0,2050.0,1
964,964,-0.398266109666091,-0.4,1.0,0.0,387.0,878.0,0.0,0,1005.0,1
965,965,0.5617222438598303,0.6,1.0,1.0,284.0,819.0,1.0,1,327.0,1
966,966,-0.782413807228538,-0.8,1.0,0.0,332.0,571.0,0.0,0,267.0,1
967,967,-0.22351888999784075,-0.2,0.0,1.0,465.0,678.0,1.0,0,297.0,1
968,968,-0.866878442281722,-0.9,1.0,0.0,410.0,670.0,0.0,0,200.0,1
969,969,0.8382827416257336,0.8,0.0,0.0,495.0,778.0,0.0,1,277.0,1
970,970,-0.7280539828268937,-0.7,0.0,1.0,325.0,861.0,1.0,0,184.0,1
971,971,-0.3945873587421077,-0.4,0.0,1.0,291.0,662.0,1.0,0,117.0,1
972,972,0.19338684478516976,0.2,1.0,1.0,407.0,670.0,1.0,1,863.0,1
973,973,0.8989998828379723,0.9,0.0,0.0,418.0,806.0,0.0,1,266.0,1
974,974,-0.3842274998102567,-0.4,0.0,1.0,293.0,695.0,1.0,0,242.0,1
975,975,0.21160248270637194,0.2,0.0,0.0,334.0,930.0,0.0,1,1156.0,1
976,976,-0.2355150678958956,-0.2,1.0,0.0,291.0,910.0,0.0,0,569.0,1
977,977,-0.771144463234943,-0.8,0.0,1.0,349.0,914.0,1.0,0,237.0,1
978,978,-0.4443375069396024,-0.4,1.0,0.0,316.0,754.0,0.0,0,570.0,1
979,979,0.8052234222419733,0.8,0.0,0.0,460.0,722.0,0.0,1,1698.0,1
980,980,0.453413414764518,0.5,0.0,0.0,466.0,848.0,0.0,1,386.0,1
981,981,-0.8004776743622137,-0.8,1.0,0.0,296.0,648.0,0.0,0,186.0,1
982,982,-0.8301656461844577,-0.8,1.0,0.0,330.0,840.0,0.0,0,140.0,1
983,983,0.5559035232122108,0.6,0.0,0.0,449.0,664.0,0.0,1,397.0,1
984,984,-0.8052498083744518,-0.8,0.0,1.0,447.0,667.0,1.0,0,76.0,1
985,985,0.47102256876062965,0.5,0.0,0.0,422.0,984.0,0.0,1,1594.0,1
986,986,0.564223611101952,0.6,0.0,0.0,321.0,665.0,0.0,1,644.0,1
987,987,0.7919793407793952,0.8,1.0,1.0,440.0,920.0,1.0,1,70.0,1
988,988,-0.1155914176616002,-0.1,0.0,1.0,383.0,705.0,1.0,0,92.0,1
989,989,0.7922318939574021,0.8,0.0,0.0,408.0,592.0,0.0,1,360.0,1
990,990,0.19978710409472444,0.2,1.0,1.0,400.0,678.0,1.0,1,862.0,1
991,991,0.44820007714621524,0.4,0.0,0.0,252.0,989.0,0.0,1,269.0,1
992,992,0.036578371329074266,0.0,1.0,1.0,455.0,803.0,1.0,1,1742.0,1
993,993,0.8742350478637314,0.9,0.0,0.0,267.0,761.0,0.0,1,242.0,1
994,994,-0.04238423946731451,-0.0,1.0,0.0,345.0,975.0,1.0,1,1680.0,0
995,995,-0.6159586354554264,-0.6,0.0,1.0,366.0,801.0,1.0,0,113.0,1
996,996,0.8176774520317237,0.8,0.0,0.0,463.0,764.0,0.0,1,403.0,1
997,997,-0.6053621725015386,-0.6,1.0,0.0,435.0,700.0,0.0,0,375.0,1
998,998,-0.3516823558758839,-0.4,0.0,1.0,421.0,686.0,1.0,0,363.0,1
999,999,0.782775418078706,0.8,1.0,1.0,330.0,662.0,1.0,1,208.0,1
1000,1000,0.743643010881068,0.7,1.0,1.0,355.0,658.0,1.0,1,157.0,1
1001,1001,-0.54722348819143,-0.5,1.0,0.0,427.0,915.0,0.0,0,188.0,1
1002,1002,0.6683254351066396,0.7,1.0,1.0,270.0,655.0,1.0,1,545.0,1
1003,1003,-0.09762466107274104,-0.1,1.0,0.0,306.0,773.0,1.0,1,1921.0,0
1004,1004,-0.49465383288762604,-0.5,0.0,1.0,262.0,614.0,1.0,0,194.0,1
1005,1005,0.4936443435910892,0.5,0.0,0.0,357.0,719.0,0.0,1,574.0,1
1006,1006,-0.619505491274581,-0.6,1.0,0.0,398.0,935.0,0.0,0,507.0,1
1007,1007,0.3239449747143245,0.3,0.0,0.0,269.0,972.0,0.0,1,1759.0,1
1008,1008,0.5469286546460485,0.5,1.0,1.0,431.0,765.0,1.0,1,194.0,1
1009,1009,-0.4949602366968921,-0.5,1.0,0.0,258.0,939.0,0.0,0,1803.0,1
1010,1010,0.5378963780157723,0.5,1.0,1.0,272.0,909.0,1.0,1,289.0,1
1011,1011,-0.8894932061989322,-0.9,0.0,1.0,306.0,517.0,1.0,0,137.0,1
1012,1012,0.7172835111611485,0.7,0.0,0.0,471.0,949.0,0.0,1,510.0,1
1013,1013,0.6404894605760082,0.6,0.0,0.0,419.0,965.0,0.0,1,836.0,1
1014,1014,0.6666041755514717,0.7,0.0,0.0,284.0,854.0,0.0,1,1412.0,1
1015,1015,-0.4039633918981761,-0.4,1.0,0.0,421.0,763.0,0.0,0,196.0,1
1016,1016,-0.33409024246798935,-0.3,0.0,1.0,326.0,551.0,1.0,0,-127.0,1
1017,1017,0.6980861423441674,0.7,1.0,1.0,441.0,927.0,1.0,1,262.0,1
1018,1018,-0.5454863592118193,-0.5,1.0,0.0,441.0,754.0,0.0,0,505.0,1
1019,1019,-0.3097162791027126,-0.3,1.0,0.0,462.0,754.0,0.0,0,454.0,1
1020,1020,-0.44054843237599023,-0.4,0.0,1.0,365.0,637.0,1.0,0,348.0,1
1021,1021,0.47228277652070194,0.5,0.0,0.0,327.0,649.0,0.0,1,494.0,1
1022,1022,-0.45806168494983013,-0.5,1.0,0.0,290.0,682.0,0.0,0,588.0,1
1023,1023,-0.5524261857238577,-0.6,0.0,1.0,303.0,796.0,1.0,0,141.0,1
1024,1024,0.34778453292913125,0.3,0.0,0.0,370.0,709.0,1.0,0,-79.0,0
1025,1025,0.40603384666031606,0.4,0.0,0.0,328.0,538.0,0.0,1,1604.0,1
1026,1026,0.7442796121663654,0.7,0.0,0.0,400.0,756.0,0.0,1,134.0,1
1027,1027,0.49244183069904557,0.5,0.0,0.0,302.0,705.0,0.0,1,763.0,1
1028,1028,0.3723378670878671,0.4,1.0,1.0,404.0,859.0,1.0,1,387.0,1
1029,1029,-0.40071811786213773,-0.4,1.0,0.0,280.0,651.0,0.0,0,1079.0,1
1030,1030,0.04867559172662139,0.0,0.0,0.0,363.0,563.0,0.0,1,2074.0,1
1031,1031,0.44901929503894833,0.4,0.0,0.0,351.0,655.0,0.0,1,414.0,1
1032,1032,0.8838441735468782,0.9,1.0,1.0,339.0,751.0,1.0,1,290.0,1
1033,1033,0.8538923174028711,0.9,1.0,1.0,452.0,839.0,1.0,1,239.0,1
1034,1034,0.611688838310415,0.6,0.0,0.0,268.0,714.0,0.0,1,358.0,1
1035,1035,0.3550319610219913,0.4,1.0,1.0,435.0,800.0,1.0,1,255.0,1
1036,1036,-0.17247748747487235,-0.2,1.0,0.0,327.0,722.0,0.0,0,1951.0,1
1037,1037,0.5447159014785493,0.5,1.0,1.0,304.0,733.0,1.0,1,383.0,1
1038,1038,-0.7506344310866603,-0.8,1.0,0.0,467.0,545.0,0.0,0,378.0,1
1039,1039,0.7282407777936294,0.7,1.0,1.0,397.0,662.0,1.0,1,111.0,1
1040,1040,0.4264207562777974,0.4,0.0,0.0,328.0,942.0,0.0,1,560.0,1
1041,1041,-0.8938969534251882,-0.9,1.0,0.0,410.0,844.0,0.0,0,366.0,1
1042,1042,-0.03175903656490997,-0.0,0.0,1.0,294.0,558.0,1.0,0,2148.0,1
1043,1043,0.7182792450972121,0.7,0.0,0.0,400.0,849.0,0.0,1,271.0,1
1044,1044,-0.5660417645030906,-0.6,1.0,0.0,479.0,853.0,0.0,0,218.0,1
1045,1045,-0.8533729180912359,-0.9,1.0,0.0,366.0,641.0,0.0,0,373.0,1
1046,1046,0.37681577489998797,0.4,0.0,0.0,473.0,680.0,0.0,1,1667.0,1
1047,1047,-0.5301191192805592,-0.5,1.0,0.0,251.0,876.0,0.0,0,353.0,1
1048,1048,0.04097977433145761,0.0,1.0,1.0,437.0,675.0,1.0,1,1888.0,1
1049,1049,-0.5958646305113999,-0.6,0.0,1.0,298.0,580.0,1.0,0,242.0,1
1050,1050,0.37033985444560347,0.4,0.0,0.0,388.0,738.0,0.0,1,844.0,1
1051,1051,-0.8233759453687262,-0.8,0.0,1.0,372.0,773.0,1.0,0,165.0,1
1052,1052,-0.16921033063940705,-0.2,1.0,0.0,305.0,998.0,1.0,1,1577.0,0
1053,1053,-0.22604417796228293,-0.2,0.0,1.0,396.0,710.0,1.0,0,204.0,1
1054,1054,0.14879458520876387,0.1,1.0,1.0,434.0,555.0,1.0,1,2011.0,1
1055,1055,-0.5234840111606658,-0.5,1.0,0.0,333.0,691.0,0.0,0,636.0,1
1056,1056,-0.3303562777096086,-0.3,1.0,0.0,479.0,984.0,0.0,0,677.0,1
1057,1057,-0.5864096197097505,-0.6,0.0,1.0,256.0,641.0,1.0,0,203.0,1
1058,1058,-0.1628309925689394,-0.2,1.0,0.0,330.0,719.0,0.0,0,1951.0,1
1059,1059,-0.6662990423289759,-0.7,0.0,1.0,363.0,714.0,1.0,0,113.0,1
1060,1060,-0.5454142884715287,-0.5,0.0,1.0,329.0,576.0,1.0,0,185.0,1
1061,1061,-0.478322387611291,-0.5,1.0,0.0,268.0,743.0,0.0,0,499.0,1
1062,1062,-0.6721758740612966,-0.7,0.0,1.0,425.0,785.0,1.0,0,190.0,1
1063,1063,0.12521398564100206,0.1,0.0,0.0,439.0,906.0,0.0,1,1655.0,1
1064,1064,-0.10503283797780838,-0.1,0.0,1.0,363.0,620.0,1.0,0,407.0,1
1065,1065,-0.8192054041705721,-0.8,0.0,1.0,420.0,598.0,1.0,0,122.0,1
1066,1066,0.860626475590624,0.9,0.0,0.0,318.0,893.0,0.0,1,279.0,1
1067,1067,0.4741758803270414,0.5,1.0,1.0,328.0,747.0,1.0,1,405.0,1
1068,1068,0.8425894132784334,0.8,0.0,0.0,315.0,543.0,0.0,1,302.0,1
1069,1069,0.6127994986682056,0.6,1.0,1.0,473.0,676.0,1.0,1,531.0,1
1070,1070,-0.2594986956336217,-0.3,1.0,0.0,276.0,829.0,0.0,0,1895.0,1
1071,1071,-0.020148235835617978,-0.0,1.0,0.0,293.0,596.0,1.0,1,2111.0,0
1072,1072,0.5437467245992446,0.5,1.0,1.0,382.0,702.0,1.0,1,276.0,1
1073,1073,0.2421452788811992,0.2,1.0,1.0,284.0,764.0,1.0,1,792.0,1
1074,1074,-0.815227915001414,-0.8,1.0,0.0,351.0,811.0,0.0,0,238.0,1
1075,1075,0.2800273243330448,0.3,0.0,0.0,408.0,528.0,0.0,1,944.0,1
1076,1076,-0.763654353823682,-0.8,1.0,0.0,266.0,657.0,0.0,0,757.0,1
1077,1077,0.7457085465819014,0.7,0.0,0.0,391.0,573.0,0.0,1,886.0,1
1078,1078,0.5237628107586084,0.5,0.0,0.0,283.0,725.0,0.0,1,1992.0,1
1079,1079,0.22842974451887443,0.2,1.0,1.0,423.0,726.0,1.0,1,241.0,1
1080,1080,0.1923151995472251,0.2,0.0,0.0,403.0,603.0,0.0,1,1994.0,1
1081,1081,0.5971277172235531,0.6,1.0,1.0,256.0,512.0,1.0,1,312.0,1
1082,1082,-0.35693439926534,-0.4,1.0,0.0,300.0,521.0,0.0,0,1059.0,1
1083,1083,-0.7762461021165902,-0.8,1.0,0.0,310.0,898.0,0.0,0,372.0,1
1084,1084,0.0571848643488192,0.1,0.0,0.0,290.0,666.0,1.0,0,1534.0,0
1085,1085,-0.3556524631714011,-0.4,1.0,0.0,384.0,889.0,0.0,0,977.0,1
1086,1086,0.8785760746336225,0.9,0.0,0.0,463.0,720.0,0.0,1,67.0,1
1087,1087,0.6517491557666918,0.7,1.0,1.0,375.0,658.0,1.0,1,147.0,1
1088,1088,-0.6397882013819751,-0.6,0.0,1.0,382.0,549.0,1.0,0,259.0,1
1089,1089,-0.46004894380332517,-0.5,0.0,1.0,413.0,756.0,1.0,0,181.0,1
1090,1090,-0.19724417305025554,-0.2,0.0,1.0,478.0,872.0,1.0,0,750.0,1
1091,1091,0.06547682821475942,0.1,0.0,0.0,324.0,956.0,1.0,0,-110.0,0
1092,1092,0.35849036862325845,0.4,0.0,0.0,275.0,919.0,0.0,1,416.0,1
1093,1093,0.04341270820545473,0.0,1.0,1.0,355.0,652.0,1.0,1,1993.0,1
1094,1094,-0.6954494728954789,-0.7,1.0,0.0,255.0,637.0,0.0,0,388.0,1
1095,1095,-0.8547277010454633,-0.9,0.0,1.0,402.0,878.0,1.0,0,20.0,1
1096,1096,0.7774041844868768,0.8,1.0,1.0,359.0,776.0,1.0,1,245.0,1
1097,1097,0.07154941760424804,0.1,0.0,0.0,304.0,829.0,1.0,0,1297.0,0
1098,1098,-0.16426133818919864,-0.2,0.0,1.0,273.0,625.0,1.0,0,612.0,1
1099,1099,0.19710328792527043,0.2,0.0,0.0,420.0,622.0,0.0,1,1958.0,1
1100,1100,0.6251970945391473,0.6,1.0,1.0,380.0,587.0,1.0,1,363.0,1
1101,1101,-0.02263649749411467,-0.0,1.0,0.0,274.0,525.0,1.0,1,2081.0,0
1102,1102,-0.2751520966922978,-0.3,1.0,0.0,336.0,960.0,0.0,0,574.0,1
1103,1103,0.2730369285148334,0.3,1.0,1.0,342.0,929.0,1.0,1,579.0,1
1104,1104,-0.4368903221174098,-0.4,0.0,1.0,255.0,725.0,1.0,0,230.0,1
1105,1105,-0.6941008330807542,-0.7,0.0,1.0,255.0,795.0,1.0,0,160.0,1
1106,1106,-0.1650207071950599,-0.2,1.0,0.0,334.0,629.0,0.0,0,2037.0,1
1107,1107,-0.7681781260652634,-0.8,1.0,0.0,257.0,806.0,0.0,0,257.0,1
1108,1108,0.7448940664596623,0.7,1.0,1.0,293.0,658.0,1.0,1,149.0,1
1109,1109,0.6235583280299429,0.6,0.0,0.0,487.0,515.0,0.0,1,438.0,1
1110,1110,-0.5772813704126918,-0.6,0.0,1.0,496.0,900.0,1.0,0,214.0,1
1111,1111,0.33068518759329535,0.3,1.0,1.0,272.0,957.0,1.0,1,401.0,1
1112,1112,0.27312478477987845,0.3,1.0,1.0,392.0,793.0,1.0,1,1145.0,1
1113,1113,0.11875685783085788,0.1,1.0,1.0,292.0,515.0,1.0,1,2193.0,1
1114,1114,0.18547469876794487,0.2,0.0,0.0,402.0,991.0,1.0,0,17.0,0
1115,1115,-0.4233662691627745,-0.4,1.0,0.0,343.0,919.0,0.0,0,308.0,1
1116,1116,0.2210538724665868,0.2,0.0,0.0,488.0,894.0,0.0,1,1608.0,1
1117,1117,-0.0980037686228179,-0.1,1.0,0.0,355.0,614.0,1.0,1,1151.0,0
1118,1118,0.49302376292340455,0.5,1.0,1.0,395.0,575.0,1.0,1,170.0,1
1119,1119,0.30843871214693397,0.3,0.0,0.0,491.0,940.0,0.0,1,1569.0,1
1120,1120,-0.05630577510883272,-0.1,0.0,1.0,269.0,820.0,1.0,0,711.0,1
1121,1121,0.881270082900144,0.9,0.0,0.0,359.0,776.0,0.0,1,1865.0,1
1122,1122,0.3484108003880214,0.3,0.0,0.0,374.0,860.0,0.0,1,936.0,1
1123,1123,-0.6849855965432621,-0.7,1.0,0.0,430.0,612.0,0.0,0,378.0,1
1124,1124,0.3186878737740203,0.3,0.0,0.0,334.0,688.0,0.0,1,998.0,1
1125,1125,-0.4597518319032786,-0.5,0.0,1.0,338.0,658.0,1.0,0,164.0,1
1126,1126,-0.8262398826519287,-0.8,0.0,1.0,482.0,509.0,1.0,0,139.0,1
1127,1127,-0.8402056034188314,-0.8,0.0,1.0,320.0,910.0,1.0,0,200.0,1
1128,1128,0.6613847814079309,0.7,1.0,1.0,311.0,783.0,1.0,1,426.0,1
1129,1129,0.6935172968783131,0.7,0.0,0.0,494.0,541.0,0.0,1,1965.0,1
1130,1130,0.3175221097348714,0.3,1.0,1.0,340.0,801.0,1.0,1,339.0,1
1131,1131,0.4129415611053856,0.4,0.0,0.0,253.0,560.0,0.0,1,2087.0,1
1132,1132,0.41422387462436194,0.4,0.0,0.0,346.0,660.0,0.0,1,1354.0,1
1133,1133,-0.47561628880175627,-0.5,1.0,0.0,383.0,842.0,0.0,0,605.0,1
1134,1134,0.7008269128012613,0.7,0.0,0.0,411.0,690.0,0.0,1,439.0,1
1135,1135,-0.8779841746442983,-0.9,1.0,0.0,380.0,685.0,0.0,0,665.0,1
1136,1136,-0.14258177063304556,-0.1,0.0,1.0,424.0,708.0,1.0,0,348.0,1
1137,1137,0.2947436017048378,0.3,0.0,0.0,469.0,879.0,0.0,1,1652.0,1
1138,1138,0.2918245515535681,0.3,0.0,0.0,385.0,802.0,0.0,1,653.0,1
1139,1139,0.28125389376952803,0.3,1.0,1.0,477.0,760.0,1.0,1,443.0,1
1140,1140,-0.19453578322766973,-0.2,1.0,0.0,290.0,679.0,1.0,1,2031.0,0
1141,1141,0.14373931856809585,0.1,1.0,1.0,278.0,645.0,1.0,1,2077.0,1
1142,1142,-0.641597871379824,-0.6,1.0,0.0,481.0,887.0,0.0,0,322.0,1
1143,1143,-0.8421634756423155,-0.8,0.0,1.0,296.0,679.0,1.0,0,235.0,1
1144,1144,0.028029509898352734,0.0,0.0,0.0,370.0,649.0,1.0,0,1491.0,0
1145,1145,0.14155141813008665,0.1,0.0,0.0,296.0,891.0,1.0,0,1813.0,0
1146,1146,0.2974378165678043,0.3,0.0,0.0,495.0,673.0,0.0,1,1832.0,1
1147,1147,0.003917952444631889,0.0,0.0,0.0,250.0,893.0,1.0,0,1857.0,0
1148,1148,0.2503623444767701,0.3,0.0,0.0,308.0,785.0,0.0,1,1907.0,1
1149,1149,0.7402153243412698,0.7,1.0,1.0,432.0,529.0,1.0,1,229.0,1
1150,1150,-0.323231439230777,-0.3,1.0,0.0,392.0,834.0,0.0,0,1774.0,1
1151,1151,-0.21307823094585987,-0.2,0.0,1.0,370.0,840.0,1.0,0,130.0,1
1152,1152,-0.26901751941138374,-0.3,0.0,1.0,414.0,919.0,1.0,0,387.0,1
1153,1153,0.07878986991881831,0.1,1.0,1.0,287.0,945.0,1.0,1,1138.0,1
1154,1154,0.16336264060311156,0.2,0.0,0.0,404.0,510.0,1.0,0,2086.0,0
1155,1155,0.529826343748104,0.5,0.0,0.0,381.0,944.0,0.0,1,1165.0,1
1156,1156,0.6077718516498823,0.6,1.0,1.0,393.0,880.0,1.0,1,407.0,1
1157,1157,0.8578855534121955,0.9,0.0,0.0,309.0,520.0,0.0,1,691.0,1
1158,1158,-0.4079254834095353,-0.4,0.0,1.0,364.0,612.0,1.0,0,574.0,1
1159,1159,0.7921088582340533,0.8,0.0,0.0,465.0,519.0,0.0,1,226.0,1
1160,1160,0.10433326474687499,0.1,0.0,0.0,358.0,723.0,1.0,0,989.0,0
1161,1161,-0.6119429530016693,-0.6,0.0,1.0,464.0,569.0,1.0,0,177.0,1
1162,1162,-0.8079858275949697,-0.8,0.0,1.0,441.0,870.0,1.0,0,99.0,1
1163,1163,-0.694710673103209,-0.7,1.0,0.0,485.0,902.0,0.0,0,253.0,1
1164,1164,0.7487699907272881,0.7,1.0,1.0,294.0,659.0,1.0,1,217.0,1
1165,1165,-0.4175925392205781,-0.4,1.0,0.0,268.0,981.0,0.0,0,761.0,1
1166,1166,-0.45124571448445056,-0.5,1.0,0.0,373.0,702.0,0.0,0,545.0,1
1167,1167,-0.09354478007207989,-0.1,0.0,1.0,370.0,651.0,1.0,0,429.0,1
1168,1168,-0.7454511810150947,-0.7,0.0,1.0,423.0,737.0,1.0,0,200.0,1
1169,1169,-0.0020748620691206643,-0.0,0.0,1.0,481.0,820.0,1.0,0,949.0,1
1170,1170,-0.6937085519818926,-0.7,0.0,1.0,264.0,726.0,1.0,0,290.0,1
1171,1171,-0.19410114053365535,-0.2,1.0,0.0,304.0,884.0,1.0,1,1812.0,0
1172,1172,-0.7987991954445872,-0.8,1.0,0.0,375.0,704.0,0.0,0,191.0,1
1173,1173,-0.18638499430393984,-0.2,0.0,1.0,461.0,540.0,1.0,0,319.0,1
1174,1174,-0.4355337086502996,-0.4,1.0,0.0,394.0,590.0,0.0,0,1666.0,1
1175,1175,-0.2805215707742207,-0.3,1.0,0.0,461.0,570.0,0.0,0,379.0,1
1176,1176,0.42969395817519784,0.4,1.0,1.0,403.0,931.0,1.0,1,476.0,1
1177,1177,0.6522404799293121,0.7,0.0,0.0,251.0,759.0,0.0,1,270.0,1
1178,1178,0.11422109079327203,0.1,1.0,1.0,428.0,521.0,1.0,1,2051.0,1
1179,1179,0.5521364691610765,0.6,1.0,1.0,474.0,925.0,1.0,1,141.0,1
1180,1180,0.2416432680027495,0.2,0.0,0.0,497.0,992.0,0.0,1,461.0,1
1181,1181,-0.6227152838876342,-0.6,1.0,0.0,461.0,559.0,0.0,0,480.0,1
1182,1182,-0.2911090015900504,-0.3,0.0,1.0,499.0,715.0,1.0,0,106.0,1
1183,1183,0.6841593998716816,0.7,0.0,0.0,369.0,516.0,0.0,1,305.0,1
1184,1184,-0.26443233614172235,-0.3,1.0,0.0,271.0,847.0,0.0,0,742.0,1
1185,1185,0.22403701089190264,0.2,0.0,0.0,358.0,742.0,0.0,1,1540.0,1
1186,1186,-0.5337876682142403,-0.5,0.0,1.0,466.0,826.0,1.0,0,378.0,1
1187,1187,-0.35350449450125143,-0.4,1.0,0.0,324.0,981.0,0.0,0,1115.0,1
1188,1188,0.26643537625561053,0.3,1.0,1.0,401.0,535.0,1.0,1,444.0,1
1189,1189,0.6512148891475745,0.7,1.0,1.0,334.0,912.0,1.0,1,294.0,1
1190,1190,0.03582984297854985,0.0,0.0,0.0,299.0,857.0,1.0,0,1844.0,0
1191,1191,-0.15660514209119458,-0.2,0.0,1.0,455.0,948.0,1.0,0,747.0,1
1192,1192,-0.26122619525211155,-0.3,0.0,1.0,455.0,546.0,1.0,0,279.0,1
1193,1193,0.8829935941809844,0.9,0.0,0.0,282.0,814.0,0.0,1,104.0,1
1194,1194,-0.6011749803459718,-0.6,0.0,1.0,439.0,772.0,1.0,0,89.0,1
1195,1195,-0.19911835539863998,-0.2,0.0,1.0,417.0,654.0,1.0,0,1929.0,1
1196,1196,0.692638705996201,0.7,0.0,0.0,407.0,563.0,0.0,1,420.0,1
1197,1197,-0.5180139041740996,-0.5,1.0,0.0,351.0,546.0,0.0,0,273.0,1
1198,1198,-0.8550215682310819,-0.9,0.0,1.0,363.0,548.0,1.0,0,339.0,1
1199,1199,0.7289622559785286,0.7,1.0,1.0,331.0,690.0,1.0,1,169.0,1
1200,1200,-0.5670280467034126,-0.6,1.0,0.0,277.0,961.0,0.0,0,292.0,1
1201,1201,-0.05287401122846125,-0.1,0.0,1.0,303.0,797.0,1.0,0,420.0,1
1202,1202,-0.4767514978193769,-0.5,1.0,0.0,469.0,752.0,0.0,0,959.0,1
1203,1203,0.4619287438095635,0.5,1.0,1.0,288.0,792.0,1.0,1,420.0,1
1204,1204,-0.5419453792451555,-0.5,1.0,0.0,468.0,868.0,0.0,0,164.0,1
1205,1205,0.15962692004752432,0.2,1.0,1.0,465.0,829.0,1.0,1,1706.0,1
1206,1206,0.8799788559788931,0.9,1.0,1.0,361.0,735.0,1.0,1,214.0,1
1207,1207,-0.3627355078341482,-0.4,0.0,1.0,271.0,597.0,1.0,0,552.0,1
1208,1208,-0.19926480713359507,-0.2,0.0,1.0,397.0,726.0,1.0,0,607.0,1
1209,1209,0.8926667951179529,0.9,0.0,0.0,478.0,766.0,0.0,1,216.0,1
1210,1210,-0.7881196752199836,-0.8,0.0,1.0,297.0,652.0,1.0,0,131.0,1
1211,1211,-0.5556310265117028,-0.6,0.0,1.0,434.0,931.0,1.0,0,-265.0,1
1212,1212,-0.40196896693402934,-0.4,1.0,0.0,259.0,664.0,0.0,0,367.0,1
1213,1213,-0.11007771705969593,-0.1,0.0,1.0,453.0,878.0,1.0,0,39.0,1
1214,1214,0.6689949436784649,0.7,0.0,0.0,360.0,648.0,0.0,1,342.0,1
1215,1215,-0.1161998202269694,-0.1,0.0,1.0,445.0,806.0,1.0,0,1449.0,1
1216,1216,0.26591116777491874,0.3,0.0,0.0,423.0,643.0,0.0,1,1074.0,1
1217,1217,0.17100467730807944,0.2,1.0,1.0,287.0,897.0,1.0,1,816.0,1
1218,1218,0.5484548188623305,0.5,0.0,0.0,411.0,589.0,0.0,1,500.0,1
1219,1219,0.852339133157077,0.9,0.0,0.0,441.0,960.0,0.0,1,259.0,1
1220,1220,0.29814208998387326,0.3,0.0,0.0,428.0,654.0,0.0,1,1918.0,1
1221,1221,0.7615993243349902,0.8,1.0,1.0,355.0,692.0,1.0,1,143.0,1
1222,1222,0.019520205167111726,0.0,1.0,1.0,400.0,516.0,1.0,1,2084.0,1
1223,1223,-0.011934407290554283,-0.0,1.0,0.0,313.0,976.0,1.0,1,1711.0,0
1224,1224,-0.07865122175369188,-0.1,0.0,1.0,257.0,952.0,1.0,0,171.0,1
1225,1225,-0.6655120882472679,-0.7,1.0,0.0,277.0,686.0,0.0,0,317.0,1
1226,1226,0.38165009797381544,0.4,1.0,1.0,312.0,729.0,1.0,1,519.0,1
1227,1227,0.7250050126677786,0.7,1.0,1.0,283.0,918.0,1.0,1,99.0,1
1228,1228,-0.7104199706841645,-0.7,0.0,1.0,256.0,710.0,1.0,0,204.0,1
1229,1229,0.318920099782266,0.3,0.0,0.0,380.0,741.0,0.0,1,729.0,1
1230,1230,-0.7599542441672417,-0.8,0.0,1.0,370.0,926.0,1.0,0,174.0,1
1231,1231,-0.44442321759338815,-0.4,1.0,0.0,313.0,953.0,0.0,0,674.0,1
1232,1232,0.2743935532895706,0.3,0.0,0.0,426.0,793.0,0.0,1,1391.0,1
1233,1233,-0.36298534492290335,-0.4,1.0,0.0,423.0,542.0,0.0,0,1825.0,1
1234,1234,0.6715134011387568,0.7,0.0,0.0,383.0,799.0,0.0,1,208.0,1
1235,1235,0.23071483911218393,0.2,0.0,0.0,378.0,726.0,0.0,1,786.0,1
1236,1236,0.8938489360570642,0.9,0.0,0.0,470.0,533.0,0.0,1,317.0,1
1237,1237,0.8920634892229923,0.9,1.0,1.0,415.0,935.0,1.0,1,240.0,1
1238,1238,-0.04699623960290622,-0.0,0.0,1.0,453.0,836.0,1.0,0,1311.0,1
1239,1239,0.6348974093077077,0.6,1.0,1.0,341.0,631.0,1.0,1,358.0,1
1240,1240,0.541055720538164,0.5,0.0,0.0,275.0,719.0,0.0,1,1936.0,1
1241,1241,-0.446163503553703,-0.4,0.0,1.0,383.0,701.0,1.0,0,196.0,1
1242,1242,0.32504120443738815,0.3,1.0,1.0,366.0,821.0,1.0,1,153.0,1
1243,1243,0.19868672004002919,0.2,0.0,0.0,297.0,730.0,0.0,1,1973.0,1
1244,1244,0.6310760986802931,0.6,1.0,1.0,363.0,908.0,1.0,1,239.0,1
1245,1245,-0.6342032216778182,-0.6,0.0,1.0,451.0,620.0,1.0,0,249.0,1
1246,1246,0.5594454708910589,0.6,1.0,1.0,253.0,870.0,1.0,1,557.0,1
1247,1247,-0.2564485196650612,-0.3,1.0,0.0,254.0,814.0,0.0,0,1932.0,1
1248,1248,0.2839153775413158,0.3,0.0,0.0,394.0,951.0,0.0,1,1575.0,1
1249,1249,0.2135780771821808,0.2,0.0,0.0,434.0,892.0,1.0,0,1674.0,0
1250,1250,0.7873732673595674,0.8,1.0,1.0,494.0,722.0,1.0,1,184.0,1
1251,1251,0.1780822252303932,0.2,1.0,1.0,339.0,830.0,1.0,1,701.0,1
1252,1252,0.6690870484926269,0.7,0.0,0.0,489.0,869.0,0.0,1,502.0,1
1253,1253,0.46566959435744815,0.5,0.0,0.0,478.0,885.0,0.0,1,167.0,1
1254,1254,0.574381422514327,0.6,0.0,0.0,319.0,765.0,0.0,1,226.0,1
1255,1255,0.6437730977498582,0.6,0.0,0.0,487.0,944.0,0.0,1,1529.0,1
1256,1256,-0.7573607610131277,-0.8,1.0,0.0,322.0,796.0,0.0,0,262.0,1
1257,1257,0.5259622720776412,0.5,0.0,0.0,435.0,508.0,0.0,1,207.0,1
1258,1258,-0.7161750849210782,-0.7,0.0,1.0,482.0,894.0,1.0,0,124.0,1
1259,1259,-0.8547657762776119,-0.9,0.0,1.0,274.0,716.0,1.0,0,270.0,1
1260,1260,0.36097772938121364,0.4,0.0,0.0,462.0,543.0,0.0,1,675.0,1
1261,1261,-0.6720493185447135,-0.7,1.0,0.0,442.0,639.0,0.0,0,339.0,1
1262,1262,-0.19473808122670477,-0.2,0.0,1.0,493.0,510.0,1.0,0,1357.0,1
1263,1263,-0.6922780592091923,-0.7,0.0,1.0,448.0,929.0,1.0,0,103.0,1
1264,1264,0.886245297762072,0.9,1.0,1.0,349.0,579.0,1.0,1,112.0,1
1265,1265,-0.5964509658572141,-0.6,1.0,0.0,471.0,888.0,0.0,0,651.0,1
1266,1266,0.3490963277360054,0.3,0.0,0.0,365.0,632.0,0.0,1,2003.0,1
1267,1267,-0.7754599346493228,-0.8,1.0,0.0,321.0,510.0,0.0,0,309.0,1
1268,1268,-0.3448034402750185,-0.3,1.0,0.0,298.0,868.0,0.0,0,844.0,1
1269,1269,-0.4569116398373025,-0.5,0.0,1.0,386.0,662.0,1.0,0,272.0,1
1270,1270,0.4356957391737343,0.4,0.0,0.0,473.0,822.0,0.0,1,415.0,1
1271,1271,-0.7157977339025572,-0.7,0.0,1.0,328.0,823.0,1.0,0,339.0,1
1272,1272,0.1742945448681844,0.2,1.0,1.0,284.0,546.0,1.0,1,1920.0,1
1273,1273,-0.09024003631759936,-0.1,0.0,1.0,396.0,868.0,1.0,0,406.0,1
1274,1274,0.15799227045379072,0.2,1.0,1.0,370.0,826.0,1.0,1,1804.0,1
1275,1275,0.5438111094903871,0.5,0.0,0.0,468.0,711.0,0.0,1,1821.0,1
1276,1276,-0.8153131554316547,-0.8,0.0,1.0,348.0,985.0,1.0,0,147.0,1
1277,1277,0.13553987728804928,0.1,0.0,0.0,422.0,623.0,0.0,1,1955.0,1
1278,1278,0.5124100412323397,0.5,0.0,0.0,368.0,566.0,0.0,1,836.0,1
1279,1279,0.5583578792555756,0.6,1.0,1.0,476.0,903.0,1.0,1,71.0,1
1280,1280,-0.13875724573089354,-0.1,0.0,1.0,393.0,971.0,1.0,0,106.0,1
1281,1281,-0.2953583042561577,-0.3,1.0,0.0,285.0,956.0,1.0,1,-161.0,0
1282,1282,-0.8099967719383964,-0.8,1.0,0.0,364.0,877.0,0.0,0,309.0,1
1283,1283,-0.39784317084129095,-0.4,0.0,1.0,414.0,955.0,1.0,0,151.0,1
1284,1284,0.392789762854033,0.4,0.0,0.0,497.0,774.0,0.0,1,519.0,1
1285,1285,0.8550616802427112,0.9,1.0,1.0,321.0,956.0,1.0,1,233.0,1
1286,1286,0.0842579224799479,0.1,1.0,1.0,321.0,559.0,1.0,1,1790.0,1
1287,1287,0.23466147088870926,0.2,1.0,1.0,288.0,617.0,1.0,1,445.0,1
1288,1288,0.12408836639060639,0.1,1.0,1.0,421.0,781.0,1.0,1,1798.0,1
1289,1289,-0.5836365870914229,-0.6,0.0,1.0,471.0,742.0,1.0,0,107.0,1
1290,1290,-0.8125264093088829,-0.8,1.0,0.0,479.0,952.0,0.0,0,389.0,1
1291,1291,-0.22570159122708167,-0.2,0.0,1.0,396.0,849.0,1.0,0,1135.0,1
1292,1292,-0.753025899312814,-0.8,0.0,1.0,278.0,831.0,1.0,0,231.0,1
1293,1293,0.6617765446991307,0.7,0.0,0.0,303.0,503.0,0.0,1,804.0,1
1294,1294,0.6279579100943283,0.6,0.0,0.0,458.0,675.0,0.0,1,247.0,1
1295,1295,-0.10118853584518728,-0.1,0.0,1.0,460.0,531.0,1.0,0,899.0,1
1296,1296,0.8617619752229083,0.9,1.0,1.0,353.0,820.0,1.0,1,137.0,1
1297,1297,0.4027323307487566,0.4,1.0,1.0,474.0,868.0,1.0,1,588.0,1
1298,1298,-0.8479065333959572,-0.8,0.0,1.0,284.0,683.0,1.0,0,83.0,1
1299,1299,0.6592317688895916,0.7,0.0,0.0,254.0,971.0,0.0,1,465.0,1
1300,1300,0.6507453201699728,0.7,0.0,0.0,458.0,716.0,0.0,1,156.0,1
1301,1301,0.46327797032045515,0.5,0.0,0.0,303.0,962.0,0.0,1,525.0,1
1302,1302,0.014028643400349594,0.0,1.0,1.0,344.0,524.0,1.0,1,2132.0,1
1303,1303,0.6763530492314839,0.7,1.0,1.0,307.0,762.0,1.0,1,81.0,1
1304,1304,-0.7074755395885316,-0.7,0.0,1.0,288.0,720.0,1.0,0,82.0,1
1305,1305,-0.3981423425989292,-0.4,0.0,1.0,325.0,533.0,1.0,0,362.0,1
1306,1306,0.2703765798285659,0.3,1.0,1.0,424.0,641.0,1.0,1,1395.0,1
1307,1307,-0.25125076106164723,-0.3,1.0,0.0,473.0,752.0,0.0,0,1775.0,1
1308,1308,0.4762422436471375,0.5,1.0,1.0,251.0,834.0,1.0,1,135.0,1
1309,1309,0.5578818869364558,0.6,1.0,1.0,257.0,539.0,1.0,1,354.0,1
1310,1310,-0.8855896312711976,-0.9,0.0,1.0,389.0,559.0,1.0,0,72.0,1
1311,1311,-0.7636919093667766,-0.8,1.0,0.0,402.0,520.0,0.0,0,408.0,1
1312,1312,0.7829989402372745,0.8,1.0,1.0,404.0,903.0,1.0,1,83.0,1
1313,1313,0.26037547474534894,0.3,1.0,1.0,436.0,824.0,1.0,1,1530.0,1
1314,1314,-0.7089589906391316,-0.7,0.0,1.0,334.0,834.0,1.0,0,322.0,1
1315,1315,0.04639749073088628,0.0,0.0,0.0,431.0,975.0,1.0,0,1594.0,0
1316,1316,-0.7430345594230935,-0.7,0.0,1.0,494.0,723.0,1.0,0,143.0,1
1317,1317,0.34575448170336076,0.3,0.0,0.0,336.0,559.0,0.0,1,375.0,1
1318,1318,-0.45837708711747,-0.5,0.0,1.0,362.0,896.0,1.0,0,252.0,1
1319,1319,-0.8370569985900053,-0.8,1.0,0.0,442.0,729.0,0.0,0,239.0,1
1320,1320,0.6232449570246431,0.6,1.0,1.0,316.0,898.0,1.0,1,396.0,1
1321,1321,-0.8949054538557062,-0.9,0.0,1.0,259.0,952.0,1.0,0,69.0,1
1322,1322,0.08704150931872923,0.1,0.0,0.0,270.0,956.0,1.0,0,1774.0,0
1323,1323,0.27545358284611743,0.3,1.0,1.0,289.0,629.0,1.0,1,252.0,1
1324,1324,0.16565800767858596,0.2,1.0,1.0,321.0,523.0,1.0,1,1636.0,1
1325,1325,0.7099553953632592,0.7,0.0,0.0,460.0,638.0,0.0,1,162.0,1
1326,1326,0.3157995477331891,0.3,1.0,1.0,314.0,500.0,1.0,1,346.0,1
1327,1327,-0.700166211405189,-0.7,0.0,1.0,279.0,703.0,1.0,0,328.0,1
1328,1328,0.10837023653015165,0.1,0.0,0.0,315.0,743.0,1.0,0,1942.0,0
1329,1329,-0.6857806972904829,-0.7,0.0,1.0,460.0,604.0,1.0,0,-124.0,1
1330,1330,-0.7420661176680381,-0.7,0.0,1.0,418.0,873.0,1.0,0,39.0,1
1331,1331,-0.5405892007476573,-0.5,0.0,1.0,455.0,989.0,1.0,0,206.0,1
1332,1332,0.08285478267732094,0.1,0.0,0.0,256.0,705.0,1.0,0,2039.0,0
1333,1333,-0.08516473509793654,-0.1,0.0,1.0,264.0,725.0,1.0,0,151.0,1
1334,1334,-0.5513343416400025,-0.6,0.0,1.0,496.0,668.0,1.0,0,256.0,1
1335,1335,0.01026450212620289,0.0,0.0,0.0,280.0,984.0,1.0,0,1496.0,0
1336,1336,0.8570734494117217,0.9,1.0,1.0,329.0,687.0,1.0,1,254.0,1
1337,1337,0.7794527854007193,0.8,0.0,0.0,371.0,989.0,0.0,1,1640.0,1
1338,1338,-0.10920902378832376,-0.1,0.0,1.0,300.0,954.0,1.0,0,1746.0,1
1339,1339,-0.6148615999852793,-0.6,0.0,1.0,295.0,977.0,1.0,0,-272.0,1
1340,1340,-0.005921140224986798,-0.0,0.0,1.0,429.0,923.0,1.0,0,918.0,1
1341,1341,0.6971321782724905,0.7,0.0,0.0,405.0,559.0,0.0,1,1216.0,1
1342,1342,0.3972917800401544,0.4,0.0,0.0,329.0,998.0,0.0,1,253.0,1
1343,1343,-0.6545176843563549,-0.7,1.0,0.0,489.0,524.0,0.0,0,297.0,1
1344,1344,-0.1512346087602554,-0.2,1.0,0.0,306.0,716.0,0.0,0,1978.0,1
1345,1345,-0.7085662021598801,-0.7,1.0,0.0,382.0,641.0,0.0,0,247.0,1
1346,1346,-0.2831403874223076,-0.3,1.0,0.0,356.0,754.0,0.0,0,1460.0,1
1347,1347,0.502924836757824,0.5,0.0,0.0,265.0,921.0,0.0,1,954.0,1
1348,1348,-0.5034537088959041,-0.5,1.0,0.0,349.0,897.0,0.0,0,534.0,1
1349,1349,-0.40077715496504207,-0.4,1.0,0.0,428.0,533.0,0.0,0,309.0,1
1350,1350,-0.30887925397948435,-0.3,1.0,0.0,347.0,667.0,0.0,0,586.0,1
1351,1351,-0.43792310449454164,-0.4,0.0,1.0,431.0,564.0,1.0,0,435.0,1
1352,1352,-0.4123275592455912,-0.4,0.0,1.0,381.0,800.0,1.0,0,309.0,1
1353,1353,0.4316287080035891,0.4,1.0,1.0,497.0,780.0,1.0,1,693.0,1
1354,1354,-0.5797934845024253,-0.6,1.0,0.0,290.0,987.0,0.0,0,283.0,1
1355,1355,0.1291684493536337,0.1,0.0,0.0,300.0,823.0,1.0,0,1877.0,0
1356,1356,-0.8714572458343406,-0.9,1.0,0.0,394.0,988.0,0.0,0,418.0,1
1357,1357,-0.1341198191989138,-0.1,0.0,1.0,291.0,768.0,1.0,0,801.0,1
1358,1358,-0.2567717981960671,-0.3,0.0,1.0,321.0,644.0,1.0,0,535.0,1
1359,1359,-0.6820512593997775,-0.7,0.0,1.0,384.0,762.0,1.0,0,174.0,1
1360,1360,0.2212138358327621,0.2,1.0,1.0,301.0,578.0,1.0,1,421.0,1
1361,1361,0.17636430359798838,0.2,0.0,0.0,330.0,964.0,0.0,1,1316.0,1
1362,1362,0.8808298359464123,0.9,0.0,0.0,277.0,524.0,0.0,1,269.0,1
1363,1363,0.8173868528859783,0.8,0.0,0.0,356.0,847.0,0.0,1,537.0,1
1364,1364,0.6738220214793026,0.7,0.0,0.0,412.0,847.0,0.0,1,491.0,1
1365,1365,-0.7972347875996615,-0.8,1.0,0.0,461.0,990.0,0.0,0,339.0,1
1366,1366,0.3182889447310987,0.3,0.0,0.0,275.0,683.0,0.0,1,2042.0,1
1367,1367,-0.10965088364102527,-0.1,1.0,0.0,432.0,687.0,0.0,0,1881.0,1
1368,1368,-0.670941628452989,-0.7,0.0,1.0,445.0,948.0,1.0,0,117.0,1
1369,1369,-0.18693134166607905,-0.2,1.0,0.0,349.0,875.0,0.0,0,1776.0,1
1370,1370,0.7789864942857522,0.8,0.0,0.0,287.0,853.0,0.0,1,330.0,1
1371,1371,0.5973996823740569,0.6,1.0,1.0,447.0,680.0,1.0,1,173.0,1
1372,1372,0.3131235520094685,0.3,0.0,0.0,473.0,556.0,0.0,1,1971.0,1
1373,1373,-0.19148457287528264,-0.2,0.0,1.0,332.0,587.0,1.0,0,1011.0,1
1374,1374,-0.7047096898758872,-0.7,1.0,0.0,311.0,854.0,0.0,0,285.0,1
1375,1375,-0.6171273526338903,-0.6,1.0,0.0,289.0,510.0,0.0,0,371.0,1
1376,1376,-0.7141534737918287,-0.7,0.0,1.0,378.0,869.0,1.0,0,133.0,1
1377,1377,0.13844637904431434,0.1,0.0,0.0,493.0,846.0,0.0,1,901.0,1
1378,1378,0.08467226813484763,0.1,0.0,0.0,435.0,679.0,0.0,1,1886.0,1
1379,1379,-0.406559327858963,-0.4,1.0,0.0,449.0,931.0,0.0,0,650.0,1
1380,1380,0.7518381850233359,0.8,1.0,1.0,259.0,880.0,1.0,1,171.0,1
1381,1381,-0.8314181116198249,-0.8,1.0,0.0,260.0,988.0,0.0,0,272.0,1
1382,1382,-0.6170095946703428,-0.6,1.0,0.0,271.0,818.0,0.0,0,261.0,1
1383,1383,-0.6757834263013484,-0.7,1.0,0.0,444.0,876.0,0.0,0,580.0,1
1384,1384,0.6092289378722827,0.6,1.0,1.0,259.0,578.0,1.0,1,203.0,1
1385,1385,0.2536485384384076,0.3,1.0,1.0,379.0,736.0,1.0,1,625.0,1
1386,1386,-0.09403783113918318,-0.1,1.0,0.0,304.0,936.0,0.0,0,1760.0,1
1387,1387,0.703915671271156,0.7,1.0,1.0,313.0,658.0,1.0,1,189.0,1
1388,1388,-0.3615008961179722,-0.4,1.0,0.0,325.0,574.0,0.0,0,1871.0,1
1389,1389,0.8431381543160413,0.8,1.0,1.0,459.0,594.0,1.0,1,317.0,1
1390,1390,-0.5548286620133415,-0.6,0.0,1.0,334.0,718.0,1.0,0,178.0,1
1391,1391,-0.7794818683305993,-0.8,1.0,0.0,403.0,633.0,0.0,0,384.0,1
1392,1392,-0.5723295334757206,-0.6,1.0,0.0,391.0,978.0,0.0,0,381.0,1
1393,1393,-0.7684080749000698,-0.8,0.0,1.0,350.0,735.0,1.0,0,305.0,1
1394,1394,-0.36766669318153056,-0.4,0.0,1.0,327.0,906.0,1.0,0,137.0,1
1395,1395,-0.8757451703827127,-0.9,1.0,0.0,462.0,901.0,0.0,0,477.0,1
1396,1396,0.4303194235059312,0.4,1.0,1.0,356.0,667.0,1.0,1,237.0,1
1397,1397,-0.4236322539035813,-0.4,0.0,1.0,494.0,736.0,1.0,0,240.0,1
1398,1398,0.5736492546811404,0.6,0.0,0.0,365.0,883.0,1.0,0,-248.0,0
1399,1399,0.43934303785733053,0.4,1.0,1.0,373.0,640.0,1.0,1,177.0,1
1400,1400,0.147579846327064,0.1,1.0,1.0,348.0,764.0,1.0,1,1888.0,1
1401,1401,0.4745668628284526,0.5,1.0,1.0,473.0,538.0,1.0,1,319.0,1
1402,1402,0.6442513334911365,0.6,0.0,0.0,453.0,693.0,0.0,1,374.0,1
1403,1403,-0.8747307367488001,-0.9,0.0,1.0,417.0,548.0,1.0,0,165.0,1
1404,1404,-0.21111727782721823,-0.2,0.0,1.0,299.0,855.0,1.0,0,446.0,1
1405,1405,0.7984453328730284,0.8,0.0,0.0,425.0,638.0,0.0,1,277.0,1
1406,1406,-0.735435110971076,-0.7,1.0,0.0,373.0,577.0,0.0,0,240.0,1
1407,1407,0.3949290706783729,0.4,1.0,1.0,304.0,956.0,1.0,1,580.0,1
1408,1408,0.10715635153530301,0.1,1.0,1.0,460.0,939.0,1.0,1,1601.0,1
1409,1409,-0.857119842563501,-0.9,1.0,0.0,260.0,517.0,0.0,0,423.0,1
1410,1410,-0.011749040839003633,-0.0,1.0,0.0,483.0,763.0,1.0,1,664.0,0
1411,1411,-0.01738823204051476,-0.0,1.0,0.0,300.0,683.0,1.0,1,2017.0,0
1412,1412,-0.6156017642874936,-0.6,1.0,0.0,385.0,641.0,0.0,0,294.0,1
1413,1413,-0.21241509434955308,-0.2,0.0,1.0,262.0,870.0,1.0,0,968.0,1
1414,1414,-0.7144194296012281,-0.7,0.0,1.0,360.0,700.0,1.0,0,160.0,1
1415,1415,0.8493709803747295,0.8,0.0,0.0,382.0,700.0,0.0,1,1528.0,1
1416,1416,-0.8204144946549589,-0.8,1.0,0.0,426.0,836.0,0.0,0,828.0,1
1417,1417,-0.1325315077556538,-0.1,0.0,1.0,281.0,866.0,1.0,0,853.0,1
1418,1418,0.43061524437735954,0.4,0.0,0.0,258.0,649.0,0.0,1,733.0,1
1419,1419,0.13003465727131325,0.1,1.0,1.0,361.0,795.0,1.0,1,534.0,1
1420,1420,-0.31037334550262063,-0.3,0.0,1.0,408.0,781.0,1.0,0,1161.0,1
1421,1421,0.08728909651105321,0.1,0.0,0.0,474.0,774.0,0.0,1,1752.0,1
1422,1422,0.32733565354688887,0.3,0.0,0.0,419.0,668.0,0.0,1,1913.0,1
1423,1423,-0.8255279688158319,-0.8,0.0,1.0,338.0,510.0,1.0,0,172.0,1
1424,1424,0.23166521016934494,0.2,0.0,0.0,373.0,600.0,1.0,0,-13.0,0
1425,1425,-0.5224656189430936,-0.5,0.0,1.0,421.0,894.0,1.0,0,-365.0,1
1426,1426,-0.07598635195342018,-0.1,1.0,0.0,255.0,831.0,0.0,0,1914.0,1
1427,1427,-0.16239411813025806,-0.2,0.0,1.0,388.0,562.0,1.0,0,550.0,1
1428,1428,0.3194476457576675,0.3,1.0,1.0,435.0,982.0,1.0,1,343.0,1
1429,1429,-0.09116667530995504,-0.1,1.0,0.0,254.0,669.0,0.0,0,2077.0,1
1430,1430,-0.32702002424737564,-0.3,0.0,1.0,389.0,831.0,1.0,0,280.0,1
1431,1431,-0.32236920614721654,-0.3,0.0,1.0,307.0,730.0,1.0,0,233.0,1
1432,1432,0.574161256301489,0.6,1.0,1.0,358.0,776.0,1.0,1,446.0,1
1433,1433,-0.7984747045429635,-0.8,0.0,1.0,266.0,688.0,1.0,0,136.0,1
1434,1434,-0.685658570231346,-0.7,1.0,0.0,399.0,584.0,0.0,0,247.0,1
1435,1435,0.4013098598382018,0.4,0.0,0.0,380.0,656.0,0.0,1,1014.0,1
1436,1436,0.1554471784605972,0.2,0.0,0.0,408.0,664.0,0.0,1,1928.0,1
1437,1437,-0.3334682883730148,-0.3,1.0,0.0,297.0,872.0,0.0,0,661.0,1
1438,1438,0.4291871908119119,0.4,1.0,1.0,424.0,845.0,1.0,1,511.0,1
1439,1439,0.07343339528464987,0.1,1.0,1.0,321.0,720.0,1.0,1,1439.0,1
1440,1440,0.24954041929705817,0.2,0.0,0.0,309.0,715.0,0.0,1,1816.0,1
1441,1441,0.4005686405688017,0.4,1.0,1.0,346.0,706.0,1.0,1,538.0,1
1442,1442,-0.2825206821337034,-0.3,1.0,0.0,398.0,658.0,0.0,0,1374.0,1
1443,1443,0.7506431906116485,0.8,1.0,1.0,309.0,977.0,1.0,1,184.0,1
1444,1444,-0.08599445615096779,-0.1,0.0,1.0,356.0,506.0,1.0,0,598.0,1
1445,1445,-0.7391879323764511,-0.7,0.0,1.0,310.0,924.0,1.0,0,176.0,1
1446,1446,0.5380455132106804,0.5,1.0,1.0,485.0,999.0,1.0,1,366.0,1
1447,1447,0.29817535935213935,0.3,1.0,1.0,330.0,842.0,1.0,1,478.0,1
1448,1448,-0.5817530644526498,-0.6,0.0,1.0,285.0,991.0,1.0,0,374.0,1
1449,1449,-0.01935574796790751,-0.0,0.0,1.0,389.0,605.0,1.0,0,2006.0,1
1450,1450,-0.8920120732772765,-0.9,0.0,1.0,320.0,855.0,1.0,0,85.0,1
1451,1451,0.34050540222765757,0.3,0.0,0.0,489.0,955.0,0.0,1,1556.0,1
1452,1452,0.4764404369812131,0.5,1.0,1.0,254.0,563.0,1.0,1,323.0,1
1453,1453,0.3521428858007153,0.4,0.0,0.0,412.0,677.0,0.0,1,1911.0,1
1454,1454,0.8946236767306707,0.9,0.0,0.0,439.0,765.0,0.0,1,186.0,1
1455,1455,0.11479042268506856,0.1,0.0,0.0,315.0,725.0,1.0,0,1500.0,0
1456,1456,-0.19451222027317783,-0.2,1.0,0.0,359.0,923.0,0.0,0,1718.0,1
1457,1457,-0.39674602165234696,-0.4,1.0,0.0,376.0,695.0,0.0,0,459.0,1
1458,1458,-0.7917958341810484,-0.8,0.0,1.0,310.0,637.0,1.0,0,3.0,1
1459,1459,-0.4933866994238125,-0.5,0.0,1.0,254.0,532.0,1.0,0,304.0,1
1460,1460,0.2445091490163157,0.2,0.0,0.0,311.0,996.0,0.0,1,1693.0,1
1461,1461,-0.1122999129729253,-0.1,1.0,0.0,414.0,998.0,0.0,0,1588.0,1
1462,1462,0.6956574287569167,0.7,1.0,1.0,282.0,946.0,1.0,1,212.0,1
1463,1463,-0.3681300344998534,-0.4,0.0,1.0,391.0,736.0,1.0,0,563.0,1
1464,1464,0.8784337697313337,0.9,1.0,1.0,408.0,554.0,1.0,1,258.0,1
1465,1465,0.4445634772520263,0.4,0.0,0.0,260.0,718.0,0.0,1,342.0,1
1466,1466,-0.782746305816063,-0.8,1.0,0.0,264.0,920.0,0.0,0,236.0,1
1467,1467,0.6443310791545164,0.6,0.0,0.0,386.0,519.0,0.0,1,1335.0,1
1468,1468,0.5193749891805436,0.5,1.0,1.0,483.0,830.0,1.0,1,307.0,1
1469,1469,0.7650262999335532,0.8,0.0,0.0,423.0,651.0,0.0,1,1926.0,1
1470,1470,0.47380318951174993,0.5,0.0,0.0,434.0,674.0,0.0,1,462.0,1
1471,1471,-0.07645533040327723,-0.1,0.0,1.0,423.0,587.0,1.0,0,740.0,1
1472,1472,-0.18226635910382727,-0.2,1.0,0.0,271.0,892.0,0.0,0,1837.0,1
1473,1473,0.889651992020645,0.9,1.0,1.0,379.0,522.0,1.0,1,199.0,1
1474,1474,-0.8087986388793504,-0.8,0.0,1.0,403.0,733.0,1.0,0,254.0,1
1475,1475,0.25048886506613155,0.3,1.0,1.0,476.0,730.0,1.0,1,344.0,1
1476,1476,0.21023530528722,0.2,1.0,1.0,322.0,663.0,1.0,1,1105.0,1
1477,1477,-0.5721875830418475,-0.6,0.0,1.0,435.0,926.0,1.0,0,-311.0,1
1478,1478,0.5016279141959757,0.5,0.0,0.0,372.0,890.0,0.0,1,348.0,1
1479,1479,0.01798076574786056,0.0,0.0,0.0,475.0,517.0,1.0,0,1638.0,0
1480,1480,-0.717130202674092,-0.7,0.0,1.0,342.0,708.0,1.0,0,90.0,1
1481,1481,-0.6882999929821695,-0.7,1.0,0.0,306.0,880.0,0.0,0,354.0,1
1482,1482,0.6316219816991268,0.6,1.0,1.0,333.0,822.0,1.0,1,465.0,1
1483,1483,0.19142253486689442,0.2,1.0,1.0,282.0,857.0,1.0,1,581.0,1
1484,1484,0.5230712111447281,0.5,0.0,0.0,443.0,922.0,0.0,1,665.0,1
1485,1485,0.6274935425446563,0.6,1.0,1.0,439.0,862.0,1.0,1,249.0,1
1486,1486,0.01851781367521066,0.0,1.0,1.0,457.0,845.0,1.0,1,1698.0,1
1487,1487,0.16786529814418671,0.2,1.0,1.0,447.0,939.0,1.0,1,194.0,1
1488,1488,0.18414002146971253,0.2,1.0,1.0,490.0,795.0,1.0,1,515.0,1
1489,1489,-0.5037242152782604,-0.5,1.0,0.0,445.0,821.0,0.0,0,364.0,1
