,trial,coherence,coherence_bin,green_side,correct_side,target_onset,checker_onset,decision,green_decision,decision_time,correct_decision
0,0,0.6200069783215144,0.6,0.0,0.0,329.0,898.0,0.0,1,1773.0,1
1,1,0.534740509218664,0.5,1.0,1.0,404.0,519.0,0.0,0,2077.0,0
2,2,-0.7429739018759076,-0.7,1.0,0.0,437.0,598.0,0.0,0,1965.0,1
3,3,0.45077272408820523,0.5,0.0,0.0,253.0,841.0,0.0,1,1906.0,1
4,4,-0.09747379999398076,-0.1,0.0,1.0,397.0,785.0,0.0,1,1818.0,0
5,5,-0.02080999875947298,-0.0,0.0,1.0,477.0,704.0,0.0,1,1819.0,0
6,6,-0.6969491155762948,-0.7,1.0,0.0,447.0,864.0,0.0,0,1689.0,1
7,7,-0.3648510521755103,-0.4,1.0,0.0,480.0,853.0,0.0,0,1667.0,1
8,8,0.07851619175192048,0.1,0.0,0.0,359.0,702.0,0.0,1,1939.0,1
9,9,-0.8249968492577636,-0.8,0.0,1.0,308.0,600.0,0.0,1,2092.0,0
10,10,0.028934548259172188,0.0,0.0,0.0,251.0,930.0,0.0,1,1819.0,1
11,11,-0.18807395232006807,-0.2,1.0,0.0,464.0,638.0,0.0,0,1898.0,1
12,12,-0.21459757167315396,-0.2,1.0,0.0,498.0,695.0,0.0,0,1807.0,1
13,13,-0.19036196893296875,-0.2,0.0,1.0,445.0,710.0,0.0,1,1845.0,0
14,14,-0.2559732725557966,-0.3,1.0,0.0,415.0,529.0,0.0,0,2056.0,1
15,15,0.6704281998377345,0.7,0.0,0.0,422.0,838.0,0.0,1,1740.0,1
16,16,0.3641156056304341,0.4,0.0,0.0,292.0,990.0,0.0,1,1718.0,1
17,17,0.6506921112417742,0.7,1.0,1.0,337.0,969.0,0.0,0,1694.0,0
18,18,0.3310103804049612,0.3,1.0,1.0,406.0,880.0,0.0,0,1714.0,0
19,19,-0.6113883402318894,-0.6,1.0,0.0,428.0,841.0,0.0,0,1731.0,1
20,20,0.16914384661256154,0.2,0.0,0.0,395.0,536.0,0.0,1,2069.0,1
21,21,-0.0730547980570424,-0.1,0.0,1.0,497.0,944.0,0.0,1,1559.0,0
22,22,0.29485045891663975,0.3,0.0,0.0,273.0,763.0,0.0,1,1964.0,1
23,23,-0.7781983027264312,-0.8,1.0,0.0,397.0,867.0,0.0,0,1736.0,1
24,24,0.7902378406738862,0.8,1.0,1.0,467.0,704.0,0.0,0,1829.0,0
25,25,-0.1873982504089624,-0.2,0.0,1.0,337.0,504.0,0.0,1,2159.0,0
26,26,-0.4452318916399628,-0.4,1.0,0.0,309.0,753.0,0.0,0,1938.0,1
27,27,-0.7946248625305973,-0.8,1.0,0.0,417.0,521.0,0.0,0,2062.0,1
28,28,0.3024924648648838,0.3,1.0,1.0,361.0,743.0,0.0,0,1896.0,0
29,29,0.6414249604898822,0.6,1.0,1.0,458.0,805.0,0.0,0,1737.0,0
30,30,-0.6235461875012649,-0.6,0.0,1.0,437.0,987.0,0.0,1,1576.0,0
31,31,0.3593981580669042,0.4,1.0,1.0,400.0,667.0,0.0,0,1933.0,0
32,32,-0.8574500876075847,-0.9,0.0,1.0,433.0,613.0,0.0,1,1954.0,0
33,33,-0.13232380204144523,-0.1,1.0,0.0,301.0,626.0,0.0,0,2073.0,1
34,34,0.6226290302689358,0.6,0.0,0.0,308.0,836.0,0.0,1,1856.0,1
35,35,-0.11390794791417513,-0.1,0.0,1.0,281.0,582.0,0.0,1,2137.0,0
36,36,0.6475917413343789,0.6,1.0,1.0,349.0,599.0,0.0,0,2052.0,0
37,37,0.3339896901594709,0.3,0.0,0.0,383.0,760.0,0.0,1,1857.0,1
38,38,-0.47379407875713603,-0.5,0.0,1.0,307.0,698.0,0.0,1,1995.0,0
39,39,0.8566123120139716,0.9,1.0,1.0,452.0,578.0,0.0,0,1970.0,0
40,40,0.46993635989793325,0.5,1.0,1.0,257.0,653.0,0.0,0,2090.0,0
41,41,0.23193720641003546,0.2,0.0,0.0,435.0,959.0,0.0,1,-1294.0,1
42,42,-0.45872780504838917,-0.5,0.0,1.0,414.0,834.0,0.0,1,1752.0,0
43,43,-0.4178076857012297,-0.4,0.0,1.0,457.0,712.0,0.0,1,1831.0,0
44,44,-0.8203629980451193,-0.8,0.0,1.0,410.0,990.0,0.0,1,1600.0,0
45,45,-0.8373076358854015,-0.8,0.0,1.0,254.0,920.0,1.0,0,-1094.0,1
46,46,-0.4787932915246888,-0.5,0.0,1.0,322.0,584.0,0.0,1,2094.0,0
47,47,0.32818198282938493,0.3,0.0,0.0,463.0,563.0,0.0,1,1974.0,1
48,48,-0.7123809041850155,-0.7,0.0,1.0,312.0,892.0,0.0,1,1796.0,0
49,49,-0.3891632934009872,-0.4,0.0,1.0,499.0,910.0,0.0,1,1591.0,0
50,50,0.49968910788325493,0.5,0.0,0.0,258.0,990.0,0.0,1,1752.0,1
51,51,0.6387410241541122,0.6,0.0,0.0,359.0,555.0,0.0,1,2086.0,1
52,52,0.15831933945960197,0.2,0.0,0.0,450.0,589.0,0.0,1,1961.0,1
53,53,0.24657942711254022,0.2,0.0,0.0,319.0,893.0,0.0,1,1788.0,1
54,54,-0.20766057963078588,-0.2,1.0,0.0,439.0,508.0,0.0,0,2053.0,1
55,55,0.41765564451403947,0.4,1.0,1.0,422.0,806.0,0.0,0,1772.0,0
56,56,-0.6850678629420848,-0.7,1.0,0.0,334.0,529.0,1.0,1,-823.0,0
57,57,0.01575837658111101,0.0,0.0,0.0,457.0,906.0,0.0,1,1637.0,1
58,58,-0.7186976432110379,-0.7,0.0,1.0,287.0,626.0,0.0,1,2087.0,0
59,59,-0.14535262849819153,-0.1,1.0,0.0,389.0,881.0,0.0,0,1730.0,1
60,60,0.44628810389593576,0.4,1.0,1.0,285.0,641.0,0.0,0,2074.0,0
61,61,0.6192924898973472,0.6,0.0,0.0,277.0,581.0,0.0,1,2142.0,1
62,62,0.6852522024845337,0.7,1.0,1.0,384.0,675.0,0.0,0,1941.0,0
63,63,-0.663849127363066,-0.7,1.0,0.0,487.0,635.0,0.0,0,1878.0,1
64,64,0.25249586465586893,0.3,0.0,0.0,359.0,551.0,0.0,1,2090.0,1
65,65,0.3210762379999713,0.3,1.0,1.0,481.0,627.0,0.0,0,1892.0,0
66,66,-0.0855358501015,-0.1,1.0,0.0,320.0,661.0,0.0,0,2019.0,1
67,67,0.19519198876671517,0.2,0.0,0.0,459.0,691.0,0.0,1,1850.0,1
68,68,-0.6248799687926793,-0.6,0.0,1.0,276.0,735.0,0.0,1,1989.0,0
69,69,-0.6250902576032484,-0.6,0.0,1.0,252.0,783.0,0.0,1,1965.0,0
70,70,-0.17166342155846503,-0.2,0.0,1.0,414.0,684.0,0.0,1,1902.0,0
71,71,-0.7512383989580542,-0.8,0.0,1.0,261.0,584.0,1.0,0,-825.0,1
72,72,-0.25584754763963047,-0.3,0.0,1.0,488.0,568.0,0.0,1,1944.0,0
73,73,0.719211918441791,0.7,1.0,1.0,355.0,653.0,0.0,0,1992.0,0
74,74,-0.535083614907728,-0.5,0.0,1.0,318.0,641.0,0.0,1,2041.0,0
75,75,-0.5149575992249082,-0.5,0.0,1.0,495.0,966.0,0.0,1,1539.0,0
76,76,0.6483289251765115,0.6,0.0,0.0,250.0,898.0,0.0,1,1852.0,1
77,77,-0.02092220239225928,-0.0,0.0,1.0,404.0,821.0,0.0,1,1775.0,0
78,78,-0.16983056383426975,-0.2,0.0,1.0,443.0,591.0,0.0,1,1966.0,0
79,79,0.890117078767919,0.9,1.0,1.0,373.0,601.0,0.0,0,2026.0,0
80,80,-0.6143345163941477,-0.6,0.0,1.0,430.0,531.0,0.0,1,2039.0,0
81,81,0.0016899722968360953,0.0,1.0,1.0,274.0,843.0,0.0,0,1883.0,0
82,82,0.7127902499497257,0.7,0.0,0.0,495.0,813.0,0.0,1,1692.0,1
83,83,-0.3915527107982526,-0.4,1.0,0.0,276.0,881.0,0.0,0,-1137.0,1
84,84,-0.7645803403547857,-0.8,1.0,0.0,272.0,594.0,0.0,0,2134.0,1
85,85,0.08725436139801734,0.1,0.0,0.0,332.0,880.0,0.0,1,1788.0,1
86,86,-0.5483754706716957,-0.5,0.0,1.0,460.0,882.0,0.0,1,1658.0,0
87,87,-0.27271800411344105,-0.3,1.0,0.0,440.0,531.0,0.0,0,2029.0,1
88,88,-0.03853196415878424,-0.0,1.0,0.0,260.0,880.0,0.0,0,1860.0,1
89,89,-0.11742390743277065,-0.1,0.0,1.0,464.0,867.0,0.0,1,1669.0,0
90,90,0.11630821981978257,0.1,0.0,0.0,366.0,816.0,0.0,1,1818.0,1
91,91,0.7413822489289709,0.7,0.0,0.0,294.0,667.0,0.0,1,2039.0,1
92,92,-0.5360922418521172,-0.5,1.0,0.0,444.0,997.0,0.0,0,1559.0,1
93,93,0.8345453550772529,0.8,0.0,0.0,280.0,879.0,0.0,1,1841.0,1
94,94,0.43054316041249485,0.4,1.0,1.0,359.0,846.0,0.0,0,1795.0,0
95,95,-0.6462221348992441,-0.6,0.0,1.0,336.0,848.0,0.0,1,1816.0,0
96,96,0.1797792517318434,0.2,1.0,1.0,452.0,559.0,0.0,0,1989.0,0
97,97,0.6798412504265617,0.7,0.0,0.0,483.0,607.0,0.0,1,1910.0,1
98,98,0.7451985078653228,0.7,0.0,0.0,398.0,799.0,0.0,1,1803.0,1
99,99,-0.22413347903135206,-0.2,1.0,0.0,373.0,974.0,0.0,0,1653.0,1
100,100,-0.0638239556077922,-0.1,0.0,1.0,478.0,711.0,0.0,1,1811.0,0
101,101,-0.2596704203977893,-0.3,0.0,1.0,415.0,718.0,0.0,1,1867.0,0
102,102,0.33276175089964066,0.3,0.0,0.0,481.0,570.0,0.0,1,1949.0,1
103,103,0.001546305188976027,0.0,0.0,0.0,256.0,878.0,0.0,1,1866.0,1
104,104,0.5681711641970889,0.6,1.0,1.0,273.0,582.0,0.0,0,2145.0,0
105,105,-0.8828953003232856,-0.9,1.0,0.0,479.0,860.0,0.0,0,1661.0,1
106,106,0.6363417612025767,0.6,1.0,1.0,307.0,761.0,0.0,0,1932.0,0
107,107,0.158672057737839,0.2,1.0,1.0,329.0,946.0,0.0,0,1725.0,0
108,108,-0.406159398410493,-0.4,0.0,1.0,483.0,736.0,0.0,1,1781.0,0
109,109,0.4959076788842339,0.5,0.0,0.0,405.0,518.0,0.0,1,2077.0,1
110,110,0.12264350054893292,0.1,0.0,0.0,253.0,872.0,0.0,1,1875.0,1
111,111,0.6585525831340729,0.7,0.0,0.0,305.0,723.0,0.0,1,1972.0,1
112,112,0.687636341837993,0.7,1.0,1.0,258.0,904.0,0.0,0,1838.0,0
113,113,0.41992580053707707,0.4,0.0,0.0,374.0,639.0,0.0,1,1987.0,1
114,114,0.4031009965442741,0.4,1.0,1.0,347.0,846.0,0.0,0,1807.0,0
115,115,0.5272425315529911,0.5,1.0,1.0,491.0,503.0,0.0,0,2006.0,0
116,116,0.5071907923607998,0.5,1.0,1.0,478.0,726.0,0.0,0,1796.0,0
117,117,0.19057035598060168,0.2,1.0,1.0,367.0,896.0,1.0,1,-1243.0,1
118,118,0.5500855233204337,0.6,1.0,1.0,447.0,529.0,0.0,0,2024.0,0
119,119,0.7145691161761553,0.7,1.0,1.0,276.0,631.0,0.0,0,2093.0,0
120,120,0.460734450243531,0.5,0.0,0.0,358.0,504.0,0.0,1,2138.0,1
121,121,-0.08698591252670673,-0.1,0.0,1.0,401.0,924.0,0.0,1,1675.0,0
122,122,0.6773094442404476,0.7,0.0,0.0,423.0,888.0,0.0,1,1689.0,1
123,123,-0.5507088728550925,-0.6,1.0,0.0,395.0,603.0,0.0,0,2002.0,1
124,124,-0.5152927186871739,-0.5,0.0,1.0,462.0,874.0,0.0,1,1664.0,0
125,125,-0.8372600621865441,-0.8,1.0,0.0,412.0,873.0,1.0,1,-1225.0,0
126,126,0.41759556316582247,0.4,1.0,1.0,437.0,777.0,0.0,0,1786.0,0
127,127,-0.5742733117041245,-0.6,0.0,1.0,435.0,542.0,0.0,1,2023.0,0
128,128,-0.6313476219066014,-0.6,1.0,0.0,312.0,814.0,0.0,0,1874.0,1
129,129,0.5627700092467244,0.6,1.0,1.0,424.0,961.0,0.0,0,1615.0,0
130,130,-0.8530731033051044,-0.9,0.0,1.0,424.0,696.0,0.0,1,1880.0,0
131,131,-0.3965602666565564,-0.4,1.0,0.0,496.0,678.0,0.0,0,1826.0,1
132,132,0.45618408032172775,0.5,0.0,0.0,381.0,705.0,0.0,1,1914.0,1
133,133,-0.20096116501109396,-0.2,0.0,1.0,496.0,555.0,0.0,1,1949.0,0
134,134,0.654193000320853,0.7,0.0,0.0,480.0,938.0,0.0,1,1582.0,1
135,135,-0.12314392416624831,-0.1,0.0,1.0,367.0,921.0,0.0,1,1712.0,0
136,136,0.14321763955700872,0.1,1.0,1.0,372.0,641.0,0.0,0,1987.0,0
137,137,0.45060882325124096,0.5,0.0,0.0,296.0,624.0,0.0,1,2080.0,1
138,138,0.8056767845062992,0.8,1.0,1.0,312.0,538.0,0.0,0,2150.0,0
139,139,0.62800505264515,0.6,1.0,1.0,430.0,648.0,0.0,0,1922.0,0
140,140,0.4204264650173023,0.4,1.0,1.0,322.0,725.0,0.0,0,-947.0,0
141,141,-0.10630251677575553,-0.1,0.0,1.0,387.0,706.0,0.0,1,1907.0,0
142,142,-0.4174232871361739,-0.4,1.0,0.0,319.0,758.0,0.0,0,1923.0,1
143,143,-0.6703855736461132,-0.7,0.0,1.0,258.0,610.0,0.0,1,2132.0,0
144,144,0.2695007355787874,0.3,1.0,1.0,402.0,988.0,0.0,0,1610.0,0
145,145,0.33657368884170713,0.3,0.0,0.0,481.0,597.0,0.0,1,1922.0,1
146,146,0.22527749351367554,0.2,0.0,0.0,390.0,818.0,0.0,1,1792.0,1
147,147,-0.7189541875283345,-0.7,0.0,1.0,383.0,968.0,0.0,1,1649.0,0
148,148,0.8330408737377407,0.8,0.0,0.0,486.0,977.0,0.0,1,1537.0,1
149,149,0.4645546441186251,0.5,0.0,0.0,420.0,753.0,0.0,1,1827.0,1
150,150,-0.6695669564985987,-0.7,0.0,1.0,486.0,982.0,0.0,1,1532.0,0
151,151,0.358656228059388,0.4,0.0,0.0,316.0,754.0,0.0,1,1930.0,1
152,152,0.0813255554356147,0.1,1.0,1.0,447.0,947.0,0.0,0,1606.0,0
153,153,-0.7210831741337602,-0.7,0.0,1.0,362.0,550.0,0.0,1,2088.0,0
154,154,-0.31962973257666194,-0.3,1.0,0.0,419.0,891.0,0.0,0,1690.0,1
155,155,-0.8199883639602106,-0.8,0.0,1.0,458.0,557.0,0.0,1,1985.0,0
156,156,0.16817781370026574,0.2,1.0,1.0,363.0,799.0,0.0,0,1838.0,0
157,157,-0.7461293451969194,-0.7,1.0,0.0,474.0,804.0,0.0,0,1722.0,1
158,158,-0.0023399158148700305,-0.0,0.0,1.0,316.0,623.0,0.0,1,2061.0,0
159,159,0.8805158910806431,0.9,1.0,1.0,306.0,585.0,0.0,0,-841.0,0
160,160,0.2608162370753905,0.3,1.0,1.0,348.0,950.0,0.0,0,1702.0,0
161,161,-0.11421983214926734,-0.1,1.0,0.0,403.0,583.0,0.0,0,2014.0,1
162,162,-0.6723696253686632,-0.7,1.0,0.0,346.0,526.0,0.0,0,2128.0,1
163,163,-0.6460977750259274,-0.6,0.0,1.0,273.0,988.0,0.0,1,1739.0,0
164,164,0.1255784240242369,0.1,1.0,1.0,254.0,660.0,0.0,0,2086.0,0
165,165,0.5365586480126118,0.5,0.0,0.0,432.0,655.0,0.0,1,1913.0,1
166,166,-0.2834578262180093,-0.3,0.0,1.0,429.0,744.0,0.0,1,1827.0,0
167,167,0.579482262807325,0.6,0.0,0.0,382.0,829.0,0.0,1,1789.0,1
168,168,-0.7648080977139096,-0.8,0.0,1.0,466.0,682.0,0.0,1,1852.0,0
169,169,-0.8156077425199836,-0.8,1.0,0.0,263.0,997.0,0.0,0,1740.0,1
170,170,-0.7705704431992901,-0.8,1.0,0.0,273.0,539.0,1.0,1,-722.0,0
171,171,-0.03028138587904383,-0.0,1.0,0.0,305.0,561.0,0.0,0,2134.0,1
172,172,0.4544806251847219,0.5,0.0,0.0,410.0,795.0,0.0,1,1795.0,1
173,173,0.1341839739372822,0.1,0.0,0.0,289.0,826.0,0.0,1,-1055.0,1
174,174,0.811711284883227,0.8,1.0,1.0,337.0,581.0,0.0,0,2082.0,0
175,175,-0.8971793909842739,-0.9,0.0,1.0,342.0,556.0,0.0,1,2102.0,0
176,176,-0.4432422621719337,-0.4,1.0,0.0,367.0,567.0,0.0,0,2066.0,1
177,177,-0.7382347614264211,-0.7,0.0,1.0,314.0,664.0,0.0,1,2022.0,0
178,178,0.3620577422996468,0.4,0.0,0.0,421.0,623.0,0.0,1,1956.0,1
179,179,0.06686250314905584,0.1,0.0,0.0,382.0,898.0,0.0,1,1720.0,1
180,180,-0.5807964580196142,-0.6,1.0,0.0,473.0,928.0,0.0,0,1599.0,1
181,181,0.5175911932268425,0.5,0.0,0.0,260.0,997.0,0.0,1,1743.0,1
182,182,-0.5607630772369148,-0.6,0.0,1.0,398.0,813.0,0.0,1,1789.0,0
183,183,0.03436457717915142,0.0,0.0,0.0,301.0,779.0,0.0,1,1920.0,1
184,184,-0.6032175823163979,-0.6,1.0,0.0,264.0,699.0,0.0,0,2037.0,1
185,185,-0.11848511040356069,-0.1,0.0,1.0,349.0,582.0,0.0,1,2069.0,0
186,186,0.4022486492849596,0.4,1.0,1.0,325.0,945.0,0.0,0,1730.0,0
187,187,0.5539314643330403,0.6,1.0,1.0,320.0,555.0,0.0,0,2125.0,0
188,188,-0.4244938113533433,-0.4,1.0,0.0,490.0,614.0,0.0,0,1896.0,1
189,189,0.4021862260716901,0.4,1.0,1.0,298.0,599.0,0.0,0,2103.0,0
190,190,-0.2907739310286186,-0.3,1.0,0.0,489.0,730.0,0.0,0,1781.0,1
191,191,-0.1303793127297629,-0.1,0.0,1.0,434.0,690.0,0.0,1,1876.0,0
192,192,0.2766589066791444,0.3,1.0,1.0,300.0,732.0,0.0,0,1968.0,0
193,193,-0.030995978502551425,-0.0,1.0,0.0,414.0,549.0,0.0,0,2037.0,1
194,194,-0.8260861275525238,-0.8,0.0,1.0,436.0,805.0,0.0,1,1759.0,0
195,195,0.5858811670835743,0.6,0.0,0.0,427.0,570.0,0.0,1,2003.0,1
196,196,0.8752400501678391,0.9,0.0,0.0,336.0,821.0,0.0,1,1843.0,1
197,197,0.16927095388712388,0.2,1.0,1.0,418.0,515.0,0.0,0,2067.0,0
198,198,0.43315591701987965,0.4,0.0,0.0,492.0,717.0,0.0,1,1791.0,1
199,199,0.41004180959656644,0.4,0.0,0.0,289.0,895.0,0.0,1,1816.0,1
200,200,0.06163021214029496,0.1,1.0,1.0,445.0,534.0,0.0,0,2021.0,0
201,201,0.3214694751928836,0.3,1.0,1.0,454.0,855.0,0.0,0,1691.0,0
202,202,-0.8712843723440058,-0.9,1.0,0.0,264.0,716.0,0.0,0,2020.0,1
203,203,-0.2479576426028255,-0.2,1.0,0.0,269.0,733.0,0.0,0,1998.0,1
204,204,0.3301875676121665,0.3,0.0,0.0,442.0,868.0,0.0,1,1690.0,1
205,205,-0.3006875125825449,-0.3,0.0,1.0,497.0,916.0,0.0,1,1587.0,0
206,206,0.012962787106430396,0.0,0.0,0.0,389.0,841.0,0.0,1,-1130.0,1
207,207,0.6632440449993003,0.7,1.0,1.0,300.0,596.0,0.0,0,2104.0,0
208,208,0.6042977209712636,0.6,0.0,0.0,402.0,751.0,0.0,1,1847.0,1
209,209,0.07872945326865355,0.1,0.0,0.0,319.0,733.0,0.0,1,1948.0,1
210,210,0.25064505033061624,0.3,1.0,1.0,361.0,664.0,0.0,0,1975.0,0
211,211,-0.34146169537092286,-0.3,0.0,1.0,486.0,957.0,0.0,1,1557.0,0
212,212,0.306236103984178,0.3,0.0,0.0,332.0,907.0,0.0,1,1761.0,1
213,213,-0.02375313950477087,-0.0,1.0,0.0,491.0,658.0,0.0,0,1851.0,1
214,214,-0.541988828265445,-0.5,0.0,1.0,251.0,574.0,0.0,1,2175.0,0
215,215,0.7723645754143184,0.8,1.0,1.0,326.0,625.0,0.0,0,2049.0,0
216,216,0.053223077015100206,0.1,0.0,0.0,323.0,962.0,0.0,1,1715.0,1
217,217,-0.1915450666650288,-0.2,1.0,0.0,392.0,965.0,0.0,0,1643.0,1
218,218,0.6583948447955176,0.7,1.0,1.0,344.0,757.0,0.0,0,1899.0,0
219,219,-0.33311034186768396,-0.3,0.0,1.0,428.0,931.0,0.0,1,1641.0,0
220,220,-0.07732505088406016,-0.1,0.0,1.0,332.0,798.0,0.0,1,1870.0,0
221,221,-0.2508563731028377,-0.3,0.0,1.0,463.0,986.0,0.0,1,1551.0,0
222,222,-0.8069445789621208,-0.8,1.0,0.0,407.0,585.0,0.0,0,2008.0,1
223,223,0.1966088549918864,0.2,1.0,1.0,294.0,523.0,0.0,0,-717.0,0
224,224,-0.46100859074770095,-0.5,0.0,1.0,262.0,800.0,0.0,1,1938.0,0
225,225,0.1134487542656929,0.1,1.0,1.0,445.0,844.0,0.0,0,1711.0,0
226,226,-0.1472526976196401,-0.1,0.0,1.0,323.0,966.0,0.0,1,1711.0,0
227,227,-0.09859268135513355,-0.1,0.0,1.0,283.0,938.0,0.0,1,1779.0,0
228,228,-0.33361357573783834,-0.3,1.0,0.0,394.0,854.0,0.0,0,1752.0,1
229,229,0.2470259786730057,0.2,0.0,0.0,391.0,855.0,0.0,1,1754.0,1
230,230,-0.6176834142744801,-0.6,1.0,0.0,391.0,698.0,0.0,0,1911.0,1
231,231,0.0012200557454750127,0.0,0.0,0.0,487.0,664.0,0.0,1,1849.0,1
232,232,-0.43711580181497955,-0.4,0.0,1.0,386.0,761.0,0.0,1,1853.0,0
233,233,0.5553652854737704,0.6,0.0,0.0,403.0,527.0,0.0,1,2070.0,1
234,234,-0.47181473609290564,-0.5,0.0,1.0,338.0,917.0,0.0,1,1745.0,0
235,235,0.7202446560550145,0.7,1.0,1.0,406.0,969.0,0.0,0,1625.0,0
236,236,0.182487164402379,0.2,1.0,1.0,445.0,843.0,0.0,0,1712.0,0
237,237,-0.15963574878444153,-0.2,1.0,0.0,311.0,705.0,0.0,0,1984.0,1
238,238,-0.14309159044768593,-0.1,0.0,1.0,290.0,807.0,0.0,1,1903.0,0
239,239,0.26353497491775635,0.3,0.0,0.0,455.0,900.0,0.0,1,1645.0,1
240,240,0.06521456651020008,0.1,0.0,0.0,456.0,623.0,0.0,1,1921.0,1
241,241,-0.8075854364677316,-0.8,1.0,0.0,483.0,863.0,0.0,0,-1316.0,1
242,242,-0.3133166746218057,-0.3,0.0,1.0,485.0,863.0,0.0,1,1652.0,0
243,243,0.8747521160393122,0.9,0.0,0.0,452.0,936.0,0.0,1,1612.0,1
244,244,0.3998602343328649,0.4,1.0,1.0,397.0,691.0,0.0,0,1912.0,0
245,245,-0.44356412840725024,-0.4,1.0,0.0,278.0,875.0,0.0,0,1847.0,1
246,246,-0.11819875468439778,-0.1,0.0,1.0,372.0,771.0,0.0,1,1857.0,0
247,247,-0.1633772336588165,-0.2,1.0,0.0,448.0,583.0,0.0,0,1969.0,1
248,248,-0.7694095658882647,-0.8,0.0,1.0,329.0,519.0,0.0,1,2152.0,0
249,249,-0.09839253258585257,-0.1,1.0,0.0,445.0,681.0,0.0,0,1874.0,1
250,250,-0.7877938605198427,-0.8,0.0,1.0,436.0,514.0,0.0,1,2050.0,0
251,251,0.10686300277326188,0.1,1.0,1.0,472.0,551.0,0.0,0,1977.0,0
252,252,-0.19782360523165665,-0.2,1.0,0.0,455.0,582.0,0.0,0,1963.0,1
253,253,0.6080652762191102,0.6,0.0,0.0,343.0,767.0,0.0,1,-1010.0,1
254,254,-0.01993263685072566,-0.0,1.0,0.0,470.0,841.0,0.0,0,1689.0,1
255,255,0.3040665078121737,0.3,0.0,0.0,401.0,800.0,0.0,1,1799.0,1
256,256,-0.743245810582916,-0.7,0.0,1.0,498.0,945.0,0.0,1,1557.0,0
257,257,0.4692317315720057,0.5,1.0,1.0,277.0,742.0,0.0,0,1981.0,0
258,258,-0.676259041956635,-0.7,0.0,1.0,345.0,586.0,0.0,1,2069.0,0
259,259,-0.2255959860821316,-0.2,1.0,0.0,362.0,942.0,0.0,0,1696.0,1
260,260,0.6505395339625927,0.7,0.0,0.0,398.0,596.0,0.0,1,2006.0,1
261,261,-0.3008833972516931,-0.3,1.0,0.0,424.0,572.0,0.0,0,2004.0,1
262,262,0.16586178184251843,0.2,0.0,0.0,379.0,618.0,0.0,1,2003.0,1
263,263,0.04970329234554005,0.0,0.0,0.0,337.0,840.0,0.0,1,1823.0,1
264,264,-0.28859911469813815,-0.3,1.0,0.0,446.0,530.0,0.0,0,2024.0,1
265,265,0.8047903314216508,0.8,0.0,0.0,283.0,626.0,0.0,1,2091.0,1
266,266,-0.3555736771529694,-0.4,0.0,1.0,414.0,870.0,0.0,1,1716.0,0
267,267,-0.3679366381643937,-0.4,0.0,1.0,308.0,576.0,0.0,1,2116.0,0
268,268,0.5177277921007043,0.5,1.0,1.0,362.0,724.0,0.0,0,1914.0,0
269,269,0.663485657418241,0.7,1.0,1.0,387.0,821.0,0.0,0,1792.0,0
270,270,-0.20594711891336281,-0.2,1.0,0.0,474.0,928.0,0.0,0,1598.0,1
271,271,-0.5211549053860145,-0.5,1.0,0.0,357.0,693.0,0.0,0,1950.0,1
272,272,-0.6949760004239778,-0.7,1.0,0.0,378.0,554.0,0.0,0,2068.0,1
273,273,0.48082917995698915,0.5,1.0,1.0,413.0,707.0,0.0,0,-1090.0,0
274,274,0.3152164615432004,0.3,1.0,1.0,272.0,702.0,0.0,0,2026.0,0
275,275,-0.4771454840170832,-0.5,1.0,0.0,363.0,554.0,0.0,0,2083.0,1
276,276,0.7764090746196112,0.8,0.0,0.0,423.0,593.0,0.0,1,1984.0,1
277,277,-0.15307967228345076,-0.2,1.0,0.0,347.0,936.0,0.0,0,1717.0,1
278,278,0.5509932030534671,0.6,0.0,0.0,404.0,548.0,0.0,1,2048.0,1
279,279,-0.32134859387664316,-0.3,1.0,0.0,387.0,894.0,0.0,0,1719.0,1
280,280,0.4571717591207253,0.5,0.0,0.0,316.0,796.0,0.0,1,1888.0,1
281,281,0.7226518703098771,0.7,1.0,1.0,289.0,870.0,0.0,0,1841.0,0
282,282,-0.5968414641977184,-0.6,0.0,1.0,313.0,680.0,1.0,0,-963.0,1
283,283,-0.7909566244764115,-0.8,0.0,1.0,479.0,675.0,0.0,1,1846.0,0
284,284,-0.45180887854144325,-0.5,1.0,0.0,424.0,836.0,0.0,0,1740.0,1
285,285,0.7919424574298929,0.8,1.0,1.0,338.0,770.0,0.0,0,1892.0,0
286,286,-0.21724607778832716,-0.2,0.0,1.0,263.0,505.0,0.0,1,2232.0,0
287,287,0.2857899776302578,0.3,1.0,1.0,302.0,975.0,0.0,0,1723.0,0
288,288,-0.34207233686203986,-0.3,1.0,0.0,379.0,918.0,0.0,0,1703.0,1
289,289,-0.6800107604363042,-0.7,0.0,1.0,489.0,776.0,0.0,1,1735.0,0
290,290,0.24522320599539593,0.2,1.0,1.0,459.0,665.0,0.0,0,1876.0,0
291,291,0.08702415014718545,0.1,0.0,0.0,300.0,588.0,0.0,1,2112.0,1
292,292,0.29280109007526367,0.3,1.0,1.0,338.0,642.0,0.0,0,2020.0,0
293,293,-0.8347262959321704,-0.8,0.0,1.0,299.0,503.0,0.0,1,2198.0,0
294,294,0.7958677928289642,0.8,0.0,0.0,475.0,541.0,0.0,1,1984.0,1
295,295,-0.13798737254244098,-0.1,1.0,0.0,334.0,589.0,0.0,0,2077.0,1
296,296,0.29339637134490604,0.3,1.0,1.0,392.0,866.0,0.0,0,1742.0,0
297,297,-0.25331339833314526,-0.3,1.0,0.0,491.0,768.0,0.0,0,1741.0,1
298,298,-0.8503725996298356,-0.9,0.0,1.0,468.0,943.0,0.0,1,1589.0,0
299,299,-0.3924819527129716,-0.4,1.0,0.0,410.0,504.0,0.0,0,2086.0,1
300,300,-0.49798085158183525,-0.5,1.0,0.0,409.0,897.0,0.0,0,1694.0,1
301,301,0.729187950551672,0.7,1.0,1.0,426.0,919.0,0.0,0,1655.0,0
302,302,0.6319276587945314,0.6,0.0,0.0,357.0,580.0,0.0,1,2063.0,1
303,303,-0.4721300934711577,-0.5,1.0,0.0,275.0,823.0,0.0,0,1902.0,1
304,304,0.26799500558101796,0.3,1.0,1.0,345.0,542.0,0.0,0,-837.0,0
305,305,0.4261651446054312,0.4,1.0,1.0,371.0,878.0,0.0,0,1751.0,0
306,306,0.6739792504058749,0.7,0.0,0.0,448.0,810.0,0.0,1,1742.0,1
307,307,0.30176807188148647,0.3,0.0,0.0,318.0,506.0,0.0,1,2176.0,1
308,308,0.8552177903546244,0.9,0.0,0.0,455.0,680.0,0.0,1,1865.0,1
309,309,-0.1963011740710422,-0.2,1.0,0.0,398.0,665.0,0.0,0,1937.0,1
310,310,-0.6182893051265526,-0.6,1.0,0.0,387.0,897.0,0.0,0,1716.0,1
311,311,0.2807442871439155,0.3,0.0,0.0,380.0,918.0,0.0,1,1702.0,1
312,312,-0.21611461943490007,-0.2,0.0,1.0,485.0,970.0,0.0,1,1545.0,0
313,313,-0.2618900174528205,-0.3,0.0,1.0,342.0,923.0,0.0,1,1735.0,0
314,314,0.1371196911827134,0.1,0.0,0.0,423.0,780.0,0.0,1,1797.0,1
315,315,-0.5741756184677458,-0.6,0.0,1.0,474.0,879.0,0.0,1,1647.0,0
316,316,0.8626736459710697,0.9,0.0,0.0,252.0,517.0,0.0,1,2231.0,1
317,317,-0.18386033387091294,-0.2,1.0,0.0,261.0,897.0,0.0,0,1842.0,1
318,318,-0.3275808438603608,-0.3,1.0,0.0,303.0,881.0,0.0,0,1816.0,1
319,319,0.8006926084999807,0.8,1.0,1.0,436.0,906.0,0.0,0,1658.0,0
320,320,-0.5650591747919081,-0.6,1.0,0.0,454.0,683.0,0.0,0,1863.0,1
321,321,-0.07232385661035101,-0.1,0.0,1.0,419.0,863.0,1.0,0,-1272.0,1
322,322,0.8854088571954596,0.9,1.0,1.0,448.0,942.0,0.0,0,1610.0,0
323,323,0.3149471516661996,0.3,0.0,0.0,309.0,940.0,0.0,1,1751.0,1
324,324,-0.1569251969158525,-0.2,0.0,1.0,251.0,803.0,0.0,1,1946.0,0
325,325,0.37960625093879197,0.4,1.0,1.0,475.0,815.0,0.0,0,1710.0,0
326,326,-0.6309243848612414,-0.6,0.0,1.0,491.0,862.0,0.0,1,1647.0,0
327,327,-0.109515210913397,-0.1,0.0,1.0,419.0,577.0,0.0,1,-906.0,0
328,328,-0.7540314690698003,-0.8,0.0,1.0,461.0,662.0,0.0,1,1877.0,0
329,329,0.5857916732334226,0.6,0.0,0.0,286.0,740.0,0.0,1,1974.0,1
330,330,0.7432468931745456,0.7,1.0,1.0,368.0,604.0,0.0,0,2028.0,0
331,331,-0.4798414751334966,-0.5,1.0,0.0,463.0,662.0,0.0,0,1875.0,1
332,332,0.30684578168617194,0.3,1.0,1.0,282.0,971.0,0.0,0,1747.0,0
333,333,-0.23703645575015397,-0.2,0.0,1.0,327.0,778.0,0.0,1,1895.0,0
334,334,0.8014930045056575,0.8,0.0,0.0,305.0,751.0,0.0,1,1944.0,1
335,335,-0.10072171012558906,-0.1,1.0,0.0,306.0,723.0,0.0,0,1971.0,1
336,336,-0.8511931655860737,-0.9,1.0,0.0,342.0,853.0,0.0,0,1805.0,1
337,337,0.3906504740027964,0.4,1.0,1.0,281.0,804.0,0.0,0,1915.0,0
338,338,0.20604362238777407,0.2,0.0,0.0,400.0,743.0,0.0,1,1857.0,1
339,339,0.0003310910320666327,0.0,0.0,0.0,413.0,661.0,0.0,1,1926.0,1
340,340,-0.3403730130285505,-0.3,0.0,1.0,283.0,912.0,0.0,1,1805.0,0
341,341,-0.40378047670371847,-0.4,1.0,0.0,305.0,861.0,0.0,0,1834.0,1
342,342,0.5970222790975129,0.6,0.0,0.0,435.0,880.0,0.0,1,1685.0,1
343,343,-0.8456558284682929,-0.8,0.0,1.0,419.0,523.0,0.0,1,2058.0,0
344,344,-0.7015701157719636,-0.7,0.0,1.0,260.0,942.0,0.0,1,1798.0,0
345,345,-0.6579487557160502,-0.7,1.0,0.0,266.0,834.0,0.0,0,1900.0,1
346,346,0.8510139302835235,0.9,0.0,0.0,375.0,957.0,0.0,1,1668.0,1
347,347,0.10115474470413977,0.1,0.0,0.0,445.0,786.0,0.0,1,1769.0,1
348,348,-0.5823084714138073,-0.6,0.0,1.0,302.0,527.0,1.0,0,-819.0,1
349,349,0.5733452935216209,0.6,0.0,0.0,353.0,716.0,1.0,0,-1039.0,0
350,350,-0.5240336265147643,-0.5,1.0,0.0,343.0,958.0,0.0,0,-1211.0,1
351,351,-0.27956796447783794,-0.3,1.0,0.0,373.0,767.0,0.0,0,1860.0,1
352,352,0.8854047310822063,0.9,1.0,1.0,299.0,581.0,0.0,0,2120.0,0
353,353,0.20936275043847663,0.2,0.0,0.0,484.0,973.0,0.0,1,1543.0,1
354,354,-0.21670780473889695,-0.2,0.0,1.0,476.0,770.0,0.0,1,1754.0,0
355,355,-0.7865741007036364,-0.8,0.0,1.0,488.0,817.0,0.0,1,1695.0,0
356,356,0.5259671274306231,0.5,1.0,1.0,306.0,882.0,0.0,0,1812.0,0
357,357,0.5025075964957496,0.5,1.0,1.0,408.0,728.0,0.0,0,1864.0,0
358,358,0.255858737945046,0.3,1.0,1.0,317.0,630.0,0.0,0,2053.0,0
359,359,0.39313148685144894,0.4,0.0,0.0,337.0,744.0,0.0,1,1919.0,1
360,360,0.06589327649084264,0.1,1.0,1.0,275.0,665.0,0.0,0,2060.0,0
361,361,0.5423304997675827,0.5,0.0,0.0,357.0,508.0,0.0,1,2135.0,1
362,362,-0.6342007318839491,-0.6,0.0,1.0,487.0,903.0,0.0,1,1610.0,0
363,363,0.6954056147913964,0.7,1.0,1.0,293.0,989.0,0.0,0,1718.0,0
364,364,-0.5795077125364732,-0.6,0.0,1.0,440.0,941.0,0.0,1,1619.0,0
365,365,-0.18679352612327227,-0.2,0.0,1.0,286.0,906.0,0.0,1,1808.0,0
366,366,-0.3909952696433544,-0.4,0.0,1.0,487.0,638.0,0.0,1,1875.0,0
367,367,-0.12364062716866941,-0.1,0.0,1.0,360.0,772.0,0.0,1,1868.0,0
368,368,0.1375956878054888,0.1,0.0,0.0,424.0,642.0,0.0,1,1934.0,1
369,369,0.03834867709018719,0.0,0.0,0.0,402.0,763.0,0.0,1,1835.0,1
370,370,0.8291558749477445,0.8,0.0,0.0,263.0,577.0,0.0,1,2160.0,1
371,371,-0.5460093039911298,-0.5,0.0,1.0,260.0,938.0,0.0,1,1802.0,0
372,372,0.39233428879114174,0.4,0.0,0.0,446.0,915.0,0.0,1,1639.0,1
373,373,-0.6287269319981267,-0.6,0.0,1.0,484.0,674.0,0.0,1,1842.0,0
374,374,0.4392595197969088,0.4,1.0,1.0,299.0,512.0,0.0,0,2189.0,0
375,375,0.3069599010436165,0.3,0.0,0.0,433.0,674.0,0.0,1,1893.0,1
376,376,-0.1267907547327588,-0.1,0.0,1.0,329.0,987.0,0.0,1,1684.0,0
377,377,-0.4101555617813652,-0.4,1.0,0.0,475.0,870.0,0.0,0,1655.0,1
378,378,-0.7568212782299595,-0.8,1.0,0.0,376.0,759.0,0.0,0,1865.0,1
379,379,-0.18623371562940116,-0.2,1.0,0.0,442.0,558.0,0.0,0,2000.0,1
380,380,0.5283965692305631,0.5,0.0,0.0,261.0,548.0,1.0,0,-799.0,0
381,381,-0.5507132614080046,-0.6,0.0,1.0,324.0,763.0,0.0,1,1913.0,0
382,382,0.2513575103858644,0.3,0.0,0.0,343.0,572.0,0.0,1,2085.0,1
383,383,0.8319089396663085,0.8,0.0,0.0,471.0,580.0,0.0,1,1949.0,1
384,384,-0.46061550718443445,-0.5,0.0,1.0,480.0,570.0,0.0,1,1950.0,0
385,385,-0.6881632278882014,-0.7,0.0,1.0,319.0,666.0,0.0,1,2015.0,0
386,386,0.0226509345745477,0.0,0.0,0.0,391.0,945.0,0.0,1,1664.0,1
387,387,0.07778492471695464,0.1,0.0,0.0,280.0,763.0,0.0,1,1957.0,1
388,388,0.5008929897638971,0.5,0.0,0.0,373.0,808.0,0.0,1,1819.0,1
389,389,0.8669744158900275,0.9,0.0,0.0,427.0,991.0,0.0,1,1582.0,1
390,390,-0.37410023103986456,-0.4,1.0,0.0,433.0,816.0,0.0,0,-1219.0,1
391,391,0.24650643977805708,0.2,1.0,1.0,349.0,851.0,0.0,0,1800.0,0
392,392,-0.392867959759267,-0.4,0.0,1.0,377.0,567.0,0.0,1,2056.0,0
393,393,0.5015136895551889,0.5,0.0,0.0,440.0,947.0,0.0,1,1613.0,1
394,394,-0.15876361721969212,-0.2,0.0,1.0,410.0,881.0,0.0,1,1709.0,0
395,395,-0.7097481321979652,-0.7,0.0,1.0,439.0,945.0,0.0,1,1616.0,0
396,396,0.679795337500965,0.7,0.0,0.0,399.0,843.0,0.0,1,1758.0,1
397,397,0.2394687251199722,0.2,1.0,1.0,452.0,569.0,0.0,0,1979.0,0
398,398,-0.3846391225269169,-0.4,1.0,0.0,476.0,946.0,0.0,0,-1392.0,1
399,399,-0.8368429715480413,-0.8,0.0,1.0,478.0,598.0,0.0,1,1924.0,0
400,400,0.5734533956966043,0.6,0.0,0.0,324.0,694.0,0.0,1,1982.0,1
401,401,-0.029868937277810592,-0.0,0.0,1.0,416.0,589.0,0.0,1,1995.0,0
402,402,-0.6469535324289952,-0.6,0.0,1.0,273.0,552.0,1.0,0,-825.0,1
403,403,0.8112303638019701,0.8,0.0,0.0,306.0,952.0,0.0,1,1742.0,1
404,404,-0.13583943434814605,-0.1,1.0,0.0,364.0,930.0,0.0,0,1706.0,1
405,405,0.5263597947501927,0.5,0.0,0.0,258.0,560.0,0.0,1,2182.0,1
406,406,-0.45832568535311985,-0.5,0.0,1.0,421.0,984.0,0.0,1,1595.0,0
407,407,0.5786840757846464,0.6,0.0,0.0,258.0,775.0,0.0,1,1967.0,1
408,408,0.29117487033036904,0.3,1.0,1.0,444.0,659.0,0.0,0,1897.0,0
409,409,0.7944687699237148,0.8,0.0,0.0,365.0,958.0,0.0,1,1677.0,1
410,410,-0.13344242158373065,-0.1,0.0,1.0,375.0,689.0,0.0,1,1936.0,0
411,411,-0.37799344897255727,-0.4,0.0,1.0,259.0,557.0,0.0,1,2184.0,0
412,412,-0.8673015889666719,-0.9,0.0,1.0,359.0,738.0,0.0,1,1903.0,0
413,413,-0.03032980227476112,-0.0,1.0,0.0,492.0,813.0,0.0,0,1695.0,1
414,414,-0.6689203958412919,-0.7,0.0,1.0,351.0,555.0,0.0,1,2094.0,0
415,415,-0.6760401639261309,-0.7,0.0,1.0,446.0,650.0,0.0,1,1904.0,0
416,416,-0.13922321573905505,-0.1,1.0,0.0,371.0,853.0,0.0,0,1776.0,1
417,417,-0.03832193352468005,-0.0,1.0,0.0,295.0,939.0,0.0,0,1766.0,1
418,418,0.8334595343676686,0.8,1.0,1.0,408.0,664.0,0.0,0,1928.0,0
419,419,-0.25056982347755963,-0.3,1.0,0.0,282.0,596.0,0.0,0,2122.0,1
420,420,-0.31363274093500404,-0.3,0.0,1.0,279.0,852.0,0.0,1,1869.0,0
421,421,0.01234215279886508,0.0,0.0,0.0,302.0,917.0,0.0,1,1781.0,1
422,422,0.13038121419269133,0.1,0.0,0.0,369.0,799.0,0.0,1,1832.0,1
423,423,-0.3998123382167431,-0.4,0.0,1.0,438.0,560.0,0.0,1,2002.0,0
424,424,0.4849814445807724,0.5,1.0,1.0,473.0,539.0,0.0,0,1988.0,0
425,425,-0.6770901147811589,-0.7,1.0,0.0,415.0,854.0,0.0,0,1731.0,1
426,426,0.6542545654904098,0.7,1.0,1.0,398.0,777.0,0.0,0,1825.0,0
427,427,0.37264426077971213,0.4,1.0,1.0,353.0,921.0,0.0,0,1726.0,0
428,428,-0.18668105246620115,-0.2,0.0,1.0,471.0,976.0,0.0,1,1553.0,0
429,429,0.015924630107224558,0.0,1.0,1.0,471.0,948.0,0.0,0,1581.0,0
430,430,-0.0714087212774116,-0.1,0.0,1.0,491.0,818.0,1.0,0,-1289.0,1
431,431,-0.1654069320619821,-0.2,1.0,0.0,468.0,898.0,0.0,0,1634.0,1
432,432,0.4093598953507741,0.4,1.0,1.0,338.0,620.0,0.0,0,2042.0,0
433,433,-0.503153186148094,-0.5,0.0,1.0,380.0,955.0,0.0,1,1665.0,0
434,434,0.7855676979324145,0.8,0.0,0.0,291.0,922.0,0.0,1,1787.0,1
435,435,-0.5746024532484466,-0.6,1.0,0.0,439.0,795.0,0.0,0,1766.0,1
436,436,-0.10615434931315515,-0.1,1.0,0.0,413.0,940.0,0.0,0,1647.0,1
437,437,0.6585092697553813,0.7,0.0,0.0,314.0,735.0,0.0,1,1951.0,1
438,438,-0.7902690373010436,-0.8,1.0,0.0,429.0,772.0,0.0,0,1799.0,1
439,439,-0.5865133207203628,-0.6,0.0,1.0,330.0,836.0,0.0,1,1834.0,0
440,440,-0.41787380128657664,-0.4,1.0,0.0,407.0,605.0,0.0,0,1988.0,1
441,441,-0.7432491523922087,-0.7,0.0,1.0,290.0,770.0,0.0,1,1940.0,0
442,442,0.13986525571803277,0.1,0.0,0.0,258.0,640.0,0.0,1,2102.0,1
443,443,0.4869297015123414,0.5,1.0,1.0,377.0,589.0,0.0,0,2034.0,0
444,444,0.82258345055767,0.8,1.0,1.0,257.0,596.0,0.0,0,2147.0,0
445,445,-0.32224268837792425,-0.3,0.0,1.0,494.0,958.0,0.0,1,1548.0,0
446,446,0.18102185654852343,0.2,0.0,0.0,280.0,854.0,0.0,1,1866.0,1
447,447,-0.3759958273804034,-0.4,1.0,0.0,276.0,902.0,0.0,0,1822.0,1
448,448,-0.5561092206215417,-0.6,0.0,1.0,372.0,813.0,0.0,1,1815.0,0
449,449,0.10656396016600522,0.1,0.0,0.0,392.0,714.0,0.0,1,1894.0,1
450,450,0.06329179188715439,0.1,0.0,0.0,365.0,732.0,0.0,1,1903.0,1
451,451,-0.6472493439317826,-0.6,0.0,1.0,485.0,664.0,0.0,1,1851.0,0
452,452,0.4350473581337485,0.4,1.0,1.0,403.0,628.0,0.0,0,1969.0,0
453,453,-0.6451030289189745,-0.6,0.0,1.0,402.0,864.0,0.0,1,1734.0,0
454,454,-0.4674169435739208,-0.5,0.0,1.0,315.0,794.0,0.0,1,1891.0,0
455,455,-0.602873642217401,-0.6,1.0,0.0,479.0,730.0,0.0,0,1791.0,1
456,456,-0.5878952941352287,-0.6,0.0,1.0,257.0,883.0,0.0,1,1860.0,0
457,457,-0.23242855696002518,-0.2,0.0,1.0,478.0,619.0,0.0,1,1903.0,0
458,458,-0.523254759788113,-0.5,0.0,1.0,486.0,691.0,0.0,1,1823.0,0
459,459,0.6924536550853347,0.7,0.0,0.0,439.0,993.0,0.0,1,-1392.0,1
460,460,0.2288033186021442,0.2,0.0,0.0,421.0,557.0,0.0,1,2022.0,1
461,461,-0.014358422171854457,-0.0,0.0,1.0,370.0,676.0,0.0,1,1954.0,0
462,462,0.2977660996976995,0.3,1.0,1.0,334.0,820.0,0.0,0,1846.0,0
463,463,0.31735922166047514,0.3,1.0,1.0,348.0,685.0,0.0,0,1967.0,0
464,464,-0.23514271324032066,-0.2,0.0,1.0,258.0,824.0,0.0,1,1918.0,0
465,465,0.7623365758434039,0.8,1.0,1.0,454.0,789.0,0.0,0,1757.0,0
466,466,-0.23951507391868299,-0.2,1.0,0.0,460.0,660.0,0.0,0,1880.0,1
467,467,0.29153196163290407,0.3,0.0,0.0,499.0,908.0,0.0,1,1593.0,1
468,468,0.7151336530269065,0.7,1.0,1.0,406.0,582.0,0.0,0,2012.0,0
469,469,0.372462138557878,0.4,0.0,0.0,427.0,609.0,0.0,1,1964.0,1
470,470,0.3121906998758349,0.3,0.0,0.0,340.0,584.0,0.0,1,2076.0,1
471,471,-0.3303138929518238,-0.3,0.0,1.0,287.0,616.0,0.0,1,2097.0,0
472,472,-0.45857039985680786,-0.5,0.0,1.0,365.0,726.0,0.0,1,1909.0,0
473,473,0.7979635024692519,0.8,0.0,0.0,359.0,751.0,0.0,1,1890.0,1
474,474,0.3264248564953466,0.3,0.0,0.0,487.0,689.0,0.0,1,1824.0,1
475,475,-0.7755980243812216,-0.8,0.0,1.0,285.0,768.0,0.0,1,1947.0,0
476,476,-0.443941357553628,-0.4,0.0,1.0,315.0,641.0,0.0,1,2044.0,0
477,477,-0.791773661706512,-0.8,1.0,0.0,290.0,952.0,0.0,0,1758.0,1
478,478,-0.8113741586374186,-0.8,1.0,0.0,367.0,810.0,0.0,0,1823.0,1
479,479,-0.27931018530292584,-0.3,0.0,1.0,298.0,531.0,0.0,1,2171.0,0
480,480,-0.7067046722191737,-0.7,0.0,1.0,327.0,517.0,0.0,1,2156.0,0
481,481,0.6431627253048388,0.6,0.0,0.0,261.0,741.0,0.0,1,1998.0,1
482,482,-0.02482227471966536,-0.0,1.0,0.0,479.0,630.0,0.0,0,1891.0,1
483,483,0.3004532501817486,0.3,0.0,0.0,423.0,526.0,0.0,1,2051.0,1
484,484,-0.47848630650242124,-0.5,0.0,1.0,489.0,890.0,0.0,1,1621.0,0
485,485,-0.6369105534927788,-0.6,0.0,1.0,455.0,990.0,0.0,1,1555.0,0
486,486,0.5491756809748821,0.5,0.0,0.0,456.0,581.0,0.0,1,1963.0,1
487,487,-0.3306608007989811,-0.3,0.0,1.0,274.0,867.0,0.0,1,1859.0,0
488,488,0.4311016266683768,0.4,1.0,1.0,374.0,890.0,0.0,0,1736.0,0
489,489,-0.7578290278658859,-0.8,0.0,1.0,311.0,745.0,0.0,1,1944.0,0
490,490,0.7595471280983165,0.8,0.0,0.0,443.0,581.0,0.0,1,1976.0,1
491,491,-0.531498715766292,-0.5,0.0,1.0,385.0,624.0,0.0,1,1991.0,0
492,492,-0.8553673148898302,-0.9,1.0,0.0,401.0,830.0,0.0,0,1769.0,1
493,493,0.27457832320682785,0.3,0.0,0.0,443.0,691.0,0.0,1,1866.0,1
494,494,0.5052216229004499,0.5,1.0,1.0,304.0,947.0,0.0,0,1749.0,0
495,495,0.2733635147624035,0.3,0.0,0.0,269.0,926.0,0.0,1,1805.0,1
496,496,0.40398923567437117,0.4,0.0,0.0,269.0,751.0,0.0,1,1980.0,1
497,497,-0.29705447547953634,-0.3,1.0,0.0,342.0,658.0,0.0,0,2000.0,1
498,498,-0.09628631816528299,-0.1,0.0,1.0,471.0,615.0,0.0,1,1914.0,0
499,499,-0.7977172535290937,-0.8,1.0,0.0,312.0,901.0,0.0,0,1787.0,1
500,500,0.3801853126678544,0.4,0.0,0.0,483.0,692.0,1.0,0,-1155.0,0
501,501,0.7471796400347973,0.7,1.0,1.0,361.0,675.0,0.0,0,1964.0,0
502,502,-0.26272706099672405,-0.3,1.0,0.0,327.0,879.0,0.0,0,1794.0,1
503,503,0.036100881166702736,0.0,0.0,0.0,436.0,901.0,0.0,1,1663.0,1
504,504,0.3885798904462797,0.4,1.0,1.0,309.0,944.0,0.0,0,1747.0,0
505,505,0.025963984324219314,0.0,1.0,1.0,350.0,734.0,0.0,0,1916.0,0
506,506,-0.6783624010518325,-0.7,1.0,0.0,297.0,646.0,0.0,0,2057.0,1
507,507,-0.423394143489559,-0.4,1.0,0.0,492.0,542.0,0.0,0,1966.0,1
508,508,-0.13463555249208958,-0.1,1.0,0.0,310.0,542.0,0.0,0,2148.0,1
509,509,-0.19783910198249555,-0.2,1.0,0.0,489.0,966.0,0.0,0,1545.0,1
510,510,-0.4354425958133796,-0.4,1.0,0.0,376.0,692.0,0.0,0,1932.0,1
511,511,0.47121518092280434,0.5,0.0,0.0,420.0,765.0,0.0,1,1815.0,1
512,512,0.10953227135430443,0.1,0.0,0.0,363.0,809.0,0.0,1,1828.0,1
513,513,0.8007509463873136,0.8,0.0,0.0,401.0,606.0,0.0,1,1993.0,1
514,514,-0.5440395354431105,-0.5,0.0,1.0,273.0,929.0,0.0,1,1798.0,0
515,515,-0.4773181069074434,-0.5,0.0,1.0,285.0,728.0,0.0,1,1987.0,0
516,516,0.8582623160363357,0.9,0.0,0.0,497.0,960.0,0.0,1,1543.0,1
517,517,0.5630808866213618,0.6,0.0,0.0,358.0,914.0,0.0,1,1728.0,1
518,518,0.546643548527891,0.5,0.0,0.0,498.0,859.0,0.0,1,1643.0,1
519,519,0.7312511037222879,0.7,1.0,1.0,291.0,876.0,0.0,0,1833.0,0
520,520,0.1978747981271819,0.2,1.0,1.0,316.0,858.0,0.0,0,1826.0,0
521,521,-0.7282582493660925,-0.7,1.0,0.0,357.0,926.0,0.0,0,1717.0,1
522,522,0.3422256358520911,0.3,0.0,0.0,444.0,742.0,0.0,1,1814.0,1
523,523,0.4888026031774505,0.5,1.0,1.0,439.0,711.0,0.0,0,1850.0,0
524,524,-0.8700785780617655,-0.9,1.0,0.0,479.0,927.0,0.0,0,1594.0,1
525,525,0.5830538486319891,0.6,1.0,1.0,377.0,612.0,0.0,0,2011.0,0
526,526,0.5717543077293271,0.6,1.0,1.0,252.0,981.0,0.0,0,1767.0,0
527,527,-0.2897793910144427,-0.3,0.0,1.0,348.0,900.0,0.0,1,1752.0,0
528,528,0.5659108154973939,0.6,0.0,0.0,337.0,724.0,0.0,1,1939.0,1
529,529,0.1808080343588253,0.2,1.0,1.0,401.0,772.0,0.0,0,1827.0,0
530,530,0.8554985432608079,0.9,1.0,1.0,300.0,987.0,0.0,0,1713.0,0
531,531,-0.24084829358518745,-0.2,1.0,0.0,402.0,897.0,0.0,0,-1259.0,1
532,532,-0.4685764088989733,-0.5,0.0,1.0,461.0,876.0,0.0,1,1663.0,0
533,533,-0.6574813227634182,-0.7,0.0,1.0,253.0,919.0,0.0,1,1828.0,0
534,534,-0.3251772546175049,-0.3,1.0,0.0,346.0,578.0,0.0,0,2076.0,1
535,535,-0.5627364697580377,-0.6,0.0,1.0,367.0,617.0,0.0,1,2016.0,0
536,536,-0.5803521512146492,-0.6,0.0,1.0,375.0,757.0,0.0,1,1868.0,0
537,537,0.3248880485596216,0.3,0.0,0.0,440.0,564.0,0.0,1,1996.0,1
538,538,-0.13020963728239654,-0.1,1.0,0.0,306.0,753.0,0.0,0,-1009.0,1
539,539,0.2689932018066564,0.3,1.0,1.0,317.0,785.0,0.0,0,1898.0,0
540,540,-0.167127747893822,-0.2,1.0,0.0,406.0,603.0,0.0,0,1991.0,1
541,541,0.7007208894147009,0.7,1.0,1.0,461.0,825.0,0.0,0,1714.0,0
542,542,0.04208068566009937,0.0,0.0,0.0,349.0,628.0,0.0,1,2023.0,1
543,543,-0.6331435926453274,-0.6,1.0,0.0,401.0,658.0,0.0,0,1941.0,1
544,544,0.7767155598347478,0.8,1.0,1.0,383.0,914.0,0.0,0,1703.0,0
545,545,-0.5508078155037488,-0.6,1.0,0.0,380.0,868.0,0.0,0,1752.0,1
546,546,-0.6064378826469664,-0.6,0.0,1.0,259.0,853.0,0.0,1,1888.0,0
547,547,-0.28611096259128277,-0.3,1.0,0.0,468.0,825.0,0.0,0,1707.0,1
548,548,-0.524690738785348,-0.5,1.0,0.0,265.0,867.0,0.0,0,1868.0,1
549,549,0.8529859151937434,0.9,1.0,1.0,257.0,740.0,0.0,0,-977.0,0
550,550,0.1793784151747554,0.2,0.0,0.0,446.0,872.0,0.0,1,1682.0,1
551,551,-0.20848898087543144,-0.2,1.0,0.0,262.0,570.0,0.0,0,2168.0,1
552,552,-0.6156208441447428,-0.6,0.0,1.0,414.0,620.0,0.0,1,1966.0,0
553,553,0.39754403340946365,0.4,1.0,1.0,378.0,847.0,0.0,0,1775.0,0
554,554,-0.5720670888424066,-0.6,1.0,0.0,439.0,677.0,0.0,0,1884.0,1
555,555,-0.7864565842682542,-0.8,0.0,1.0,395.0,549.0,0.0,1,2056.0,0
556,556,0.5940685647812506,0.6,1.0,1.0,276.0,758.0,0.0,0,1966.0,0
557,557,-0.012811830362113419,-0.0,1.0,0.0,368.0,675.0,0.0,0,1957.0,1
558,558,-0.7598057422017839,-0.8,1.0,0.0,411.0,624.0,0.0,0,1965.0,1
559,559,0.37418350753276053,0.4,1.0,1.0,417.0,860.0,0.0,0,1723.0,0
560,560,0.5236942201061882,0.5,1.0,1.0,495.0,982.0,0.0,0,1523.0,0
561,561,0.8436438601403008,0.8,0.0,0.0,306.0,501.0,0.0,1,2193.0,1
562,562,-0.419257918747925,-0.4,1.0,0.0,276.0,559.0,0.0,0,2165.0,1
563,563,0.6543391588844057,0.7,0.0,0.0,366.0,706.0,0.0,1,1928.0,1
564,564,0.2803263869657254,0.3,1.0,1.0,329.0,579.0,0.0,0,-848.0,0
565,565,0.16044347355745503,0.2,1.0,1.0,289.0,878.0,1.0,1,-1087.0,1
566,566,-0.6823073376912068,-0.7,1.0,0.0,329.0,806.0,0.0,0,1865.0,1
567,567,-0.8222272443819608,-0.8,0.0,1.0,475.0,841.0,0.0,1,-1276.0,0
568,568,-0.4894343881772993,-0.5,0.0,1.0,462.0,534.0,0.0,1,2004.0,0
569,569,0.09352328588231362,0.1,0.0,0.0,402.0,552.0,0.0,1,2046.0,1
570,570,0.6391917813759477,0.6,0.0,0.0,258.0,543.0,0.0,1,2199.0,1
571,571,0.09262594692380743,0.1,0.0,0.0,432.0,531.0,0.0,1,2037.0,1
572,572,-0.3738886764155821,-0.4,0.0,1.0,402.0,956.0,0.0,1,1642.0,0
573,573,-0.8787247933663214,-0.9,1.0,0.0,433.0,979.0,0.0,0,1588.0,1
574,574,-0.27093112281919474,-0.3,0.0,1.0,289.0,887.0,0.0,1,1824.0,0
575,575,0.02508535712355975,0.0,0.0,0.0,426.0,914.0,0.0,1,1660.0,1
576,576,0.5251011941009779,0.5,0.0,0.0,432.0,619.0,0.0,1,1949.0,1
577,577,0.3980822247042025,0.4,0.0,0.0,450.0,916.0,0.0,1,1634.0,1
578,578,-0.7359354929258874,-0.7,1.0,0.0,441.0,736.0,0.0,0,1823.0,1
579,579,0.09903152067686916,0.1,0.0,0.0,263.0,754.0,0.0,1,1983.0,1
580,580,-0.8639590062017526,-0.9,1.0,0.0,324.0,659.0,0.0,0,2017.0,1
581,581,-0.46925147916217536,-0.5,0.0,1.0,475.0,892.0,0.0,1,1633.0,0
582,582,0.516486971828857,0.5,0.0,0.0,397.0,815.0,0.0,1,1788.0,1
583,583,-0.8971377416562842,-0.9,1.0,0.0,489.0,965.0,0.0,0,1546.0,1
584,584,0.5317332201139496,0.5,0.0,0.0,352.0,987.0,0.0,1,1661.0,1
585,585,0.8121761408662028,0.8,0.0,0.0,332.0,709.0,0.0,1,1959.0,1
586,586,0.23715372937772605,0.2,1.0,1.0,413.0,760.0,0.0,0,1827.0,0
587,587,-0.48950436135336745,-0.5,0.0,1.0,390.0,745.0,0.0,1,1865.0,0
588,588,0.5524353529966283,0.6,1.0,1.0,455.0,978.0,0.0,0,1567.0,0
589,589,0.4222749442695547,0.4,1.0,1.0,384.0,822.0,0.0,0,1794.0,0
590,590,-0.19829816769492992,-0.2,1.0,0.0,329.0,988.0,0.0,0,1683.0,1
591,591,-0.48149236858166367,-0.5,1.0,0.0,392.0,514.0,0.0,0,2094.0,1
592,592,-0.6395711001747619,-0.6,0.0,1.0,392.0,981.0,0.0,1,1627.0,0
593,593,-0.45140456696356474,-0.5,1.0,0.0,345.0,636.0,0.0,0,2019.0,1
594,594,-0.709479529803409,-0.7,1.0,0.0,412.0,978.0,0.0,0,1610.0,1
595,595,-0.5283019464805359,-0.5,0.0,1.0,387.0,603.0,0.0,1,2010.0,0
596,596,0.8878225703718422,0.9,1.0,1.0,325.0,865.0,0.0,0,1810.0,0
597,597,0.6349392417011356,0.6,1.0,1.0,489.0,748.0,0.0,0,1763.0,0
598,598,0.812165918826106,0.8,0.0,0.0,374.0,913.0,0.0,1,1713.0,1
599,599,-0.024392037186600324,-0.0,0.0,1.0,413.0,895.0,0.0,1,1692.0,0
600,600,-0.6981486109315818,-0.7,1.0,0.0,254.0,751.0,0.0,0,1995.0,1
601,601,-0.8447368934440168,-0.8,0.0,1.0,356.0,906.0,0.0,1,1738.0,0
602,602,0.46426933244650737,0.5,0.0,0.0,424.0,701.0,0.0,1,1875.0,1
603,603,0.2742430741232357,0.3,1.0,1.0,472.0,894.0,0.0,0,-1306.0,0
604,604,-0.5589879247986427,-0.6,0.0,1.0,325.0,529.0,1.0,0,-724.0,1
605,605,-0.769400947650823,-0.8,0.0,1.0,440.0,615.0,0.0,1,1945.0,0
606,606,0.7923623627352806,0.8,1.0,1.0,410.0,995.0,0.0,0,1595.0,0
607,607,-0.4902952823193411,-0.5,1.0,0.0,462.0,628.0,0.0,0,1910.0,1
608,608,0.691080499007762,0.7,1.0,1.0,394.0,572.0,0.0,0,2034.0,0
609,609,-0.5881288524310087,-0.6,0.0,1.0,366.0,703.0,0.0,1,1931.0,0
610,610,0.8212784921954718,0.8,0.0,0.0,362.0,969.0,0.0,1,1669.0,1
611,611,0.009199146252490187,0.0,1.0,1.0,281.0,713.0,0.0,0,2006.0,0
612,612,-0.13576447305716033,-0.1,1.0,0.0,344.0,590.0,0.0,0,2066.0,1
613,613,0.20816039380000018,0.2,0.0,0.0,403.0,848.0,0.0,1,1749.0,1
614,614,0.37779217337381754,0.4,1.0,1.0,405.0,619.0,0.0,0,1976.0,0
615,615,-0.8332486093963836,-0.8,0.0,1.0,305.0,686.0,0.0,1,2009.0,0
616,616,-0.287092834906561,-0.3,0.0,1.0,295.0,510.0,0.0,1,2195.0,0
617,617,-0.45390515427951356,-0.5,0.0,1.0,450.0,869.0,0.0,1,1681.0,0
618,618,-0.7740536506024052,-0.8,1.0,0.0,295.0,810.0,0.0,0,1895.0,1
619,619,-0.4788828535898404,-0.5,1.0,0.0,340.0,529.0,0.0,0,2131.0,1
620,620,-0.7765833108407336,-0.8,0.0,1.0,265.0,738.0,0.0,1,1997.0,0
621,621,-0.49169046487977724,-0.5,1.0,0.0,465.0,541.0,0.0,0,1994.0,1
622,622,-0.6151593895578494,-0.6,0.0,1.0,301.0,596.0,0.0,1,2103.0,0
623,623,0.41472041443733076,0.4,1.0,1.0,366.0,925.0,0.0,0,1709.0,0
624,624,0.5560524871155893,0.6,0.0,0.0,479.0,655.0,0.0,1,1866.0,1
625,625,0.618822734082969,0.6,0.0,0.0,313.0,965.0,0.0,1,1722.0,1
626,626,0.00525373906321891,0.0,1.0,1.0,341.0,814.0,0.0,0,1845.0,0
627,627,-0.8272167361377356,-0.8,0.0,1.0,298.0,920.0,0.0,1,1782.0,0
628,628,0.39170965153135795,0.4,1.0,1.0,277.0,804.0,0.0,0,1919.0,0
629,629,0.688398146027892,0.7,1.0,1.0,495.0,874.0,0.0,0,1631.0,0
630,630,-0.2256715424672201,-0.2,1.0,0.0,393.0,913.0,0.0,0,1694.0,1
631,631,0.4387623127322201,0.4,0.0,0.0,415.0,509.0,0.0,1,2076.0,1
632,632,-0.6201665557862679,-0.6,1.0,0.0,386.0,946.0,0.0,0,1668.0,1
633,633,0.7633274092145618,0.8,1.0,1.0,307.0,769.0,0.0,0,1924.0,0
634,634,-0.07813169293407096,-0.1,1.0,0.0,295.0,701.0,0.0,0,2004.0,1
635,635,-0.07779414465162149,-0.1,1.0,0.0,363.0,732.0,0.0,0,1905.0,1
636,636,-0.8016776831688305,-0.8,0.0,1.0,284.0,941.0,0.0,1,1775.0,0
637,637,0.20854713411642767,0.2,1.0,1.0,375.0,738.0,0.0,0,1887.0,0
638,638,0.12664631698341877,0.1,1.0,1.0,327.0,604.0,0.0,0,2069.0,0
639,639,-0.5270625220267466,-0.5,1.0,0.0,419.0,653.0,0.0,0,1928.0,1
640,640,0.49954154022727637,0.5,0.0,0.0,379.0,862.0,0.0,1,1759.0,1
641,641,-0.6561852406412678,-0.7,1.0,0.0,443.0,948.0,0.0,0,1609.0,1
642,642,-0.1687059041068315,-0.2,0.0,1.0,487.0,536.0,0.0,1,1977.0,0
643,643,-0.3922337494838186,-0.4,1.0,0.0,433.0,591.0,0.0,0,1976.0,1
644,644,0.4694334352206221,0.5,1.0,1.0,401.0,999.0,0.0,0,1600.0,0
645,645,-0.12533731339462806,-0.1,0.0,1.0,424.0,829.0,0.0,1,1747.0,0
646,646,0.3826564630048662,0.4,1.0,1.0,474.0,810.0,0.0,0,1716.0,0
647,647,-0.011686899069568213,-0.0,1.0,0.0,274.0,764.0,0.0,0,1962.0,1
648,648,0.3744246422799543,0.4,1.0,1.0,421.0,924.0,0.0,0,1655.0,0
649,649,0.24979922311021496,0.2,0.0,0.0,372.0,846.0,0.0,1,1782.0,1
650,650,0.2939436248216355,0.3,1.0,1.0,399.0,798.0,0.0,0,1803.0,0
651,651,-0.4711388351840869,-0.5,1.0,0.0,262.0,542.0,0.0,0,2196.0,1
652,652,-0.7490175407090048,-0.7,1.0,0.0,494.0,846.0,0.0,0,1660.0,1
653,653,0.811290642497923,0.8,1.0,1.0,391.0,901.0,0.0,0,1708.0,0
654,654,0.3939999502462165,0.4,1.0,1.0,275.0,647.0,0.0,0,2078.0,0
655,655,-0.5337804336161813,-0.5,1.0,0.0,494.0,506.0,0.0,0,2000.0,1
656,656,0.2777836069600882,0.3,0.0,0.0,389.0,915.0,0.0,1,1696.0,1
657,657,-0.4601396594193504,-0.5,0.0,1.0,405.0,868.0,0.0,1,1727.0,0
658,658,-0.6385941669931399,-0.6,1.0,0.0,486.0,838.0,0.0,0,1676.0,1
659,659,-0.6853511633763735,-0.7,0.0,1.0,377.0,855.0,0.0,1,1768.0,0
660,660,-0.01419189112580943,-0.0,0.0,1.0,493.0,558.0,0.0,1,1949.0,0
661,661,0.035547031585674516,0.0,0.0,0.0,276.0,719.0,0.0,1,2005.0,1
662,662,0.3139301342508608,0.3,0.0,0.0,324.0,703.0,0.0,1,1973.0,1
663,663,0.30760389910099895,0.3,0.0,0.0,336.0,875.0,0.0,1,1789.0,1
664,664,0.49065878075822156,0.5,0.0,0.0,312.0,532.0,0.0,1,2156.0,1
665,665,0.7547470483376567,0.8,1.0,1.0,328.0,910.0,0.0,0,1762.0,0
666,666,0.36416760628011746,0.4,0.0,0.0,310.0,988.0,0.0,1,1702.0,1
667,667,-0.5557656393531243,-0.6,0.0,1.0,330.0,709.0,0.0,1,1961.0,0
668,668,-0.7754139094539557,-0.8,1.0,0.0,458.0,558.0,0.0,0,1984.0,1
669,669,-0.6969831852364787,-0.7,0.0,1.0,470.0,702.0,0.0,1,1828.0,0
670,670,0.7913574018576311,0.8,0.0,0.0,346.0,791.0,0.0,1,1863.0,1
671,671,0.08474188660936388,0.1,0.0,0.0,282.0,925.0,0.0,1,1793.0,1
672,672,0.30495550150235584,0.3,0.0,0.0,394.0,595.0,0.0,1,2011.0,1
673,673,-0.8963920957595177,-0.9,0.0,1.0,475.0,767.0,0.0,1,1758.0,0
674,674,-0.40862443505577933,-0.4,1.0,0.0,316.0,593.0,0.0,0,2091.0,1
675,675,0.053611205588750876,0.1,1.0,1.0,260.0,872.0,0.0,0,-1112.0,0
676,676,-0.6693201019165063,-0.7,1.0,0.0,397.0,978.0,0.0,0,1625.0,1
677,677,-0.665284729227813,-0.7,0.0,1.0,451.0,724.0,0.0,1,1825.0,0
678,678,0.646835805616799,0.6,0.0,0.0,398.0,678.0,0.0,1,1924.0,1
679,679,-0.12060431616884659,-0.1,0.0,1.0,345.0,946.0,0.0,1,1709.0,0
680,680,-0.17996885947578034,-0.2,1.0,0.0,436.0,565.0,0.0,0,1999.0,1
681,681,0.7974058137590857,0.8,1.0,1.0,366.0,515.0,0.0,0,2119.0,0
682,682,-0.7000103175584781,-0.7,1.0,0.0,474.0,705.0,0.0,0,1821.0,1
683,683,-0.5809719806415631,-0.6,1.0,0.0,254.0,820.0,0.0,0,1926.0,1
684,684,0.5280216907655201,0.5,0.0,0.0,407.0,941.0,0.0,1,1652.0,1
685,685,0.3380015178849697,0.3,0.0,0.0,295.0,725.0,0.0,1,1980.0,1
686,686,-0.4572459939689423,-0.5,1.0,0.0,475.0,624.0,0.0,0,1901.0,1
687,687,0.031843959707247405,0.0,1.0,1.0,469.0,891.0,0.0,0,1640.0,0
688,688,0.4315322166816241,0.4,0.0,0.0,373.0,533.0,0.0,1,2094.0,1
689,689,0.16125645277385636,0.2,0.0,0.0,420.0,996.0,0.0,1,1584.0,1
690,690,0.7944458550931645,0.8,1.0,1.0,283.0,674.0,0.0,0,2043.0,0
691,691,-0.6639519711073487,-0.7,0.0,1.0,338.0,646.0,0.0,1,2016.0,0
692,692,0.4580371911729476,0.5,1.0,1.0,366.0,696.0,1.0,1,-902.0,1
693,693,0.7851095822854609,0.8,1.0,1.0,347.0,952.0,0.0,0,1701.0,0
694,694,-0.5962046215798997,-0.6,1.0,0.0,463.0,841.0,0.0,0,1696.0,1
695,695,0.6734469795958847,0.7,0.0,0.0,452.0,669.0,0.0,1,1879.0,1
696,696,-0.1916701003816751,-0.2,0.0,1.0,482.0,548.0,0.0,1,1970.0,0
697,697,0.28810685791678814,0.3,1.0,1.0,415.0,698.0,0.0,0,-1023.0,0
698,698,0.3557487120656745,0.4,0.0,0.0,463.0,520.0,0.0,1,2017.0,1
699,699,0.16922173311040256,0.2,1.0,1.0,286.0,873.0,0.0,0,1841.0,0
700,700,0.6284751565054151,0.6,0.0,0.0,265.0,992.0,0.0,1,1743.0,1
701,701,-0.8879657818445922,-0.9,1.0,0.0,380.0,998.0,0.0,0,1622.0,1
702,702,-0.5210755205352426,-0.5,1.0,0.0,301.0,815.0,0.0,0,1884.0,1
703,703,-0.3110563935357612,-0.3,0.0,1.0,268.0,650.0,0.0,1,2082.0,0
704,704,0.36613267648197534,0.4,1.0,1.0,494.0,900.0,0.0,0,1606.0,0
705,705,-0.4887201822377038,-0.5,1.0,0.0,356.0,983.0,0.0,0,1661.0,1
706,706,-0.679610473657841,-0.7,1.0,0.0,425.0,532.0,0.0,0,-957.0,1
707,707,-0.022492290036455698,-0.0,1.0,0.0,367.0,952.0,0.0,0,1681.0,1
708,708,0.708562482635838,0.7,1.0,1.0,403.0,662.0,0.0,0,1935.0,0
709,709,0.16692812104136567,0.2,1.0,1.0,466.0,996.0,0.0,0,1538.0,0
710,710,0.882792509096526,0.9,1.0,1.0,261.0,587.0,0.0,0,2152.0,0
711,711,0.693116884737539,0.7,1.0,1.0,300.0,949.0,0.0,0,1751.0,0
712,712,0.5866987150190467,0.6,1.0,1.0,291.0,731.0,0.0,0,1978.0,0
713,713,-0.5410698816332593,-0.5,1.0,0.0,369.0,619.0,0.0,0,2012.0,1
714,714,-0.6165741161264788,-0.6,0.0,1.0,285.0,958.0,0.0,1,1757.0,0
715,715,-0.5850427283311772,-0.6,1.0,0.0,275.0,645.0,0.0,0,2080.0,1
716,716,0.08709657512100988,0.1,0.0,0.0,304.0,776.0,0.0,1,1920.0,1
717,717,0.44934612087647385,0.4,1.0,1.0,420.0,720.0,0.0,0,1860.0,0
718,718,0.8576857936819128,0.9,0.0,0.0,269.0,994.0,0.0,1,1737.0,1
719,719,-0.500983001535537,-0.5,1.0,0.0,393.0,734.0,0.0,0,1873.0,1
720,720,-0.23295013565467904,-0.2,0.0,1.0,266.0,663.0,0.0,1,2071.0,0
721,721,-0.7822356689504397,-0.8,1.0,0.0,276.0,924.0,0.0,0,1800.0,1
722,722,0.7959812027936054,0.8,0.0,0.0,384.0,603.0,0.0,1,2013.0,1
723,723,-0.01679557171586632,-0.0,1.0,0.0,345.0,829.0,0.0,0,1826.0,1
724,724,0.5676227538149358,0.6,0.0,0.0,479.0,543.0,0.0,1,1978.0,1
725,725,0.17281802545882108,0.2,1.0,1.0,289.0,544.0,0.0,0,2167.0,0
726,726,-0.11132809942042865,-0.1,0.0,1.0,269.0,821.0,0.0,1,1910.0,0
727,727,-0.18826581387554908,-0.2,0.0,1.0,295.0,762.0,0.0,1,1943.0,0
728,728,-0.5863082062623987,-0.6,0.0,1.0,349.0,627.0,0.0,1,2024.0,0
729,729,-0.8485397581279577,-0.8,0.0,1.0,260.0,577.0,0.0,1,2163.0,0
730,730,-0.8937536779021285,-0.9,1.0,0.0,486.0,899.0,0.0,0,1615.0,1
731,731,-0.2951438727841167,-0.3,0.0,1.0,422.0,713.0,0.0,1,1865.0,0
732,732,0.22674187661836098,0.2,1.0,1.0,467.0,949.0,0.0,0,1584.0,0
733,733,0.49735811031935573,0.5,0.0,0.0,414.0,879.0,0.0,1,1707.0,1
734,734,0.5397784436205199,0.5,1.0,1.0,336.0,745.0,0.0,0,-1051.0,0
735,735,0.4880851705032375,0.5,0.0,0.0,474.0,549.0,0.0,1,1977.0,1
736,736,-0.5528963691546196,-0.6,1.0,0.0,260.0,673.0,0.0,0,2067.0,1
737,737,-0.7516648885336373,-0.8,0.0,1.0,291.0,654.0,0.0,1,2055.0,0
738,738,0.14071897057667127,0.1,1.0,1.0,412.0,531.0,0.0,0,2057.0,0
739,739,-0.6814204189247234,-0.7,1.0,0.0,255.0,988.0,1.0,1,-1123.0,0
740,740,-0.6941099387449793,-0.7,0.0,1.0,364.0,500.0,0.0,1,2136.0,0
741,741,-0.08097741496671629,-0.1,0.0,1.0,421.0,939.0,0.0,1,1640.0,0
742,742,0.8830440408297825,0.9,0.0,0.0,260.0,745.0,0.0,1,1995.0,1
743,743,-0.16487251400147573,-0.2,1.0,0.0,292.0,964.0,0.0,0,1744.0,1
744,744,0.46451931049148876,0.5,1.0,1.0,458.0,719.0,0.0,0,1823.0,0
745,745,0.1529543779874588,0.2,1.0,1.0,398.0,912.0,0.0,0,1690.0,0
746,746,0.04931150795223893,0.0,0.0,0.0,462.0,955.0,0.0,1,1583.0,1
747,747,0.7048456581727066,0.7,1.0,1.0,346.0,502.0,0.0,0,2152.0,0
748,748,0.44587369225053075,0.4,0.0,0.0,481.0,677.0,0.0,1,1842.0,1
749,749,0.6153068290299538,0.6,0.0,0.0,262.0,908.0,0.0,1,1830.0,1
750,750,-0.8476624751347765,-0.8,0.0,1.0,374.0,620.0,0.0,1,2006.0,0
751,751,-0.7430671665161191,-0.7,1.0,0.0,407.0,899.0,0.0,0,1694.0,1
752,752,-0.6566811752301261,-0.7,0.0,1.0,284.0,871.0,0.0,1,1845.0,0
753,753,0.8907476518000547,0.9,1.0,1.0,432.0,731.0,0.0,0,1837.0,0
754,754,-0.7668786467666007,-0.8,0.0,1.0,317.0,968.0,0.0,1,1715.0,0
755,755,-0.013405943240851759,-0.0,0.0,1.0,423.0,880.0,0.0,1,1697.0,0
756,756,0.412596787918856,0.4,1.0,1.0,424.0,709.0,0.0,0,1867.0,0
757,757,-0.5687375544656199,-0.6,0.0,1.0,486.0,503.0,0.0,1,2011.0,0
758,758,-0.35831199197821717,-0.4,1.0,0.0,474.0,984.0,0.0,0,1542.0,1
759,759,-0.3397367653617105,-0.3,1.0,0.0,371.0,630.0,0.0,0,1999.0,1
760,760,0.27237430436840004,0.3,1.0,1.0,336.0,674.0,0.0,0,1990.0,0
761,761,0.6089395364374813,0.6,0.0,0.0,291.0,766.0,0.0,1,1943.0,1
762,762,-0.3767960378034876,-0.4,0.0,1.0,415.0,883.0,0.0,1,1702.0,0
763,763,-0.31346962459150374,-0.3,1.0,0.0,487.0,725.0,0.0,0,1788.0,1
764,764,0.8010470399864228,0.8,0.0,0.0,315.0,899.0,0.0,1,1786.0,1
765,765,-0.3715456247629686,-0.4,0.0,1.0,373.0,660.0,0.0,1,1967.0,0
766,766,-0.31055075501556517,-0.3,1.0,0.0,400.0,590.0,0.0,0,2010.0,1
767,767,0.8421919488499153,0.8,1.0,1.0,404.0,805.0,0.0,0,1791.0,0
768,768,0.03233070558280693,0.0,0.0,0.0,277.0,778.0,0.0,1,1945.0,1
769,769,-0.7442332906493332,-0.7,1.0,0.0,430.0,534.0,0.0,0,2036.0,1
770,770,-0.28404185123010706,-0.3,1.0,0.0,283.0,653.0,0.0,0,2064.0,1
771,771,0.3318498805458875,0.3,0.0,0.0,335.0,521.0,0.0,1,2144.0,1
772,772,0.10947955563467893,0.1,0.0,0.0,387.0,944.0,1.0,0,-1241.0,0
773,773,0.6730316490234697,0.7,1.0,1.0,365.0,653.0,0.0,0,1982.0,0
774,774,0.051455127423581604,0.1,0.0,0.0,363.0,619.0,0.0,1,2018.0,1
775,775,-0.3967277783860833,-0.4,1.0,0.0,415.0,537.0,0.0,0,2048.0,1
776,776,-0.5235191348829591,-0.5,1.0,0.0,293.0,934.0,0.0,0,1773.0,1
777,777,0.11108700011630834,0.1,0.0,0.0,301.0,717.0,0.0,1,1982.0,1
778,778,-0.40040362435046256,-0.4,0.0,1.0,276.0,975.0,0.0,1,1749.0,0
779,779,0.04792679694711288,0.0,1.0,1.0,333.0,748.0,0.0,0,1919.0,0
780,780,-0.22090009193068316,-0.2,0.0,1.0,277.0,693.0,0.0,1,-920.0,0
781,781,-0.49178496618940504,-0.5,1.0,0.0,299.0,740.0,0.0,0,1961.0,1
782,782,0.8427076951924052,0.8,1.0,1.0,385.0,836.0,0.0,0,-1191.0,0
783,783,0.572330652845462,0.6,1.0,1.0,365.0,576.0,0.0,0,2059.0,0
784,784,0.02516630836305489,0.0,0.0,0.0,371.0,851.0,0.0,1,1778.0,1
785,785,-0.41769383717329867,-0.4,0.0,1.0,288.0,815.0,0.0,1,1897.0,0
786,786,-0.29305904564605734,-0.3,1.0,0.0,444.0,802.0,0.0,0,1754.0,1
787,787,-0.7903332614681605,-0.8,1.0,0.0,391.0,937.0,0.0,0,1672.0,1
788,788,0.18935277242639004,0.2,1.0,1.0,369.0,907.0,0.0,0,1724.0,0
789,789,-0.5771732054341543,-0.6,0.0,1.0,399.0,636.0,0.0,1,1965.0,0
790,790,-0.1208291757486063,-0.1,1.0,0.0,388.0,976.0,0.0,0,1636.0,1
791,791,0.08109220852184207,0.1,1.0,1.0,300.0,585.0,0.0,0,2115.0,0
792,792,-0.1291102062544638,-0.1,0.0,1.0,485.0,857.0,0.0,1,1658.0,0
793,793,-0.5577768379623004,-0.6,0.0,1.0,381.0,958.0,0.0,1,1661.0,0
794,794,0.11383506559017886,0.1,1.0,1.0,347.0,832.0,0.0,0,-1109.0,0
795,795,-0.09906399514876607,-0.1,1.0,0.0,396.0,859.0,0.0,0,1745.0,1
796,796,0.30072946076451423,0.3,1.0,1.0,252.0,649.0,0.0,0,2099.0,0
797,797,0.43822956102174604,0.4,1.0,1.0,476.0,877.0,0.0,0,-1243.0,0
798,798,0.45583747155524945,0.5,0.0,0.0,273.0,681.0,0.0,1,2046.0,1
799,799,-0.6206244865926858,-0.6,0.0,1.0,326.0,553.0,0.0,1,2121.0,0
800,800,0.3689918049231701,0.4,0.0,0.0,377.0,940.0,0.0,1,1683.0,1
801,801,0.7647686873984755,0.8,0.0,0.0,265.0,547.0,0.0,1,2188.0,1
802,802,-0.5694024272314566,-0.6,0.0,1.0,377.0,838.0,0.0,1,1785.0,0
803,803,-0.2633009794586997,-0.3,1.0,0.0,384.0,766.0,0.0,0,1850.0,1
804,804,-0.7479265388363593,-0.7,0.0,1.0,314.0,706.0,0.0,1,1980.0,0
805,805,0.014214798649237692,0.0,0.0,0.0,388.0,603.0,1.0,0,-861.0,0
806,806,-0.23560130419509884,-0.2,1.0,0.0,486.0,922.0,0.0,0,1592.0,1
807,807,-0.5781530626435472,-0.6,0.0,1.0,369.0,969.0,0.0,1,1662.0,0
808,808,-0.8634829701676582,-0.9,0.0,1.0,477.0,534.0,0.0,1,1989.0,0
809,809,0.8938374004035804,0.9,0.0,0.0,441.0,952.0,0.0,1,1607.0,1
810,810,-0.8627541741183553,-0.9,1.0,0.0,374.0,915.0,0.0,0,1711.0,1
811,811,0.8503546889175345,0.9,1.0,1.0,427.0,875.0,0.0,0,1698.0,0
812,812,-0.20366248069369097,-0.2,0.0,1.0,280.0,966.0,0.0,1,1754.0,0
813,813,0.34004949260763884,0.3,0.0,0.0,494.0,962.0,0.0,1,1544.0,1
814,814,-0.0970217516467633,-0.1,0.0,1.0,471.0,840.0,0.0,1,1689.0,0
815,815,0.46404167325556667,0.5,1.0,1.0,289.0,803.0,0.0,0,1908.0,0
816,816,-0.39511969328754115,-0.4,0.0,1.0,339.0,841.0,0.0,1,1820.0,0
817,817,0.3775791271799628,0.4,1.0,1.0,413.0,896.0,0.0,0,1691.0,0
818,818,0.02947885863641564,0.0,0.0,0.0,497.0,725.0,0.0,1,1778.0,1
819,819,-0.8236587642682948,-0.8,0.0,1.0,390.0,809.0,0.0,1,1801.0,0
820,820,0.8315877496069303,0.8,1.0,1.0,269.0,701.0,0.0,0,2030.0,0
821,821,0.28406542839723203,0.3,0.0,0.0,422.0,546.0,0.0,1,2032.0,1
822,822,0.2521442213858448,0.3,0.0,0.0,437.0,803.0,0.0,1,1760.0,1
823,823,0.8842466689566265,0.9,0.0,0.0,269.0,710.0,0.0,1,2021.0,1
824,824,0.6990272544096657,0.7,1.0,1.0,478.0,665.0,0.0,0,1857.0,0
825,825,0.2504485069953243,0.3,1.0,1.0,392.0,923.0,0.0,0,1685.0,0
826,826,-0.8384297373165098,-0.8,1.0,0.0,304.0,731.0,0.0,0,1965.0,1
827,827,0.7934279002110874,0.8,1.0,1.0,342.0,633.0,0.0,0,2025.0,0
828,828,0.19458173962358571,0.2,0.0,0.0,417.0,701.0,0.0,1,1882.0,1
829,829,-0.29035864747430407,-0.3,0.0,1.0,374.0,788.0,0.0,1,1838.0,0
830,830,-0.6861729068561568,-0.7,0.0,1.0,348.0,706.0,0.0,1,1946.0,0
831,831,-0.05752667904447906,-0.1,0.0,1.0,348.0,767.0,0.0,1,1885.0,0
832,832,0.2584401734887799,0.3,1.0,1.0,450.0,924.0,1.0,1,-1094.0,1
833,833,-0.09191606125531726,-0.1,0.0,1.0,407.0,532.0,0.0,1,2061.0,0
834,834,0.4700251903162379,0.5,0.0,0.0,382.0,981.0,0.0,1,1637.0,1
835,835,0.6686089404908934,0.7,0.0,0.0,411.0,706.0,0.0,1,1883.0,1
836,836,-0.8202717065101937,-0.8,1.0,0.0,429.0,660.0,0.0,0,1911.0,1
837,837,0.26286682344273304,0.3,0.0,0.0,397.0,804.0,0.0,1,1799.0,1
838,838,0.567152946100988,0.6,0.0,0.0,328.0,955.0,0.0,1,1717.0,1
839,839,0.17931570391434504,0.2,0.0,0.0,476.0,577.0,0.0,1,1947.0,1
840,840,0.7406936819295517,0.7,1.0,1.0,386.0,816.0,0.0,0,-1122.0,0
841,841,0.034902786959808973,0.0,0.0,0.0,353.0,806.0,0.0,1,1841.0,1
842,842,-0.2700284947798969,-0.3,1.0,0.0,319.0,589.0,0.0,0,2092.0,1
843,843,-0.3220621003067925,-0.3,1.0,0.0,358.0,846.0,0.0,0,-1114.0,1
844,844,0.7896406035147235,0.8,1.0,1.0,444.0,572.0,0.0,0,-976.0,0
845,845,-0.7072736077718969,-0.7,0.0,1.0,342.0,625.0,0.0,1,2033.0,0
846,846,0.3463608506384289,0.3,1.0,1.0,426.0,900.0,0.0,0,1674.0,0
847,847,0.45922994522179106,0.5,0.0,0.0,436.0,665.0,0.0,1,1899.0,1
848,848,-0.7780698433897388,-0.8,0.0,1.0,369.0,819.0,0.0,1,1812.0,0
849,849,0.2584935538000691,0.3,1.0,1.0,381.0,642.0,0.0,0,1977.0,0
850,850,0.6777641393600048,0.7,0.0,0.0,414.0,886.0,0.0,1,1700.0,1
851,851,0.05236599327552094,0.1,0.0,0.0,381.0,613.0,0.0,1,2006.0,1
852,852,0.8053774182693699,0.8,1.0,1.0,314.0,572.0,0.0,0,2114.0,0
853,853,0.8555095614113571,0.9,0.0,0.0,459.0,634.0,0.0,1,1907.0,1
854,854,0.8921101472195098,0.9,1.0,1.0,289.0,642.0,0.0,0,2069.0,0
855,855,-0.6039408603588519,-0.6,1.0,0.0,277.0,649.0,0.0,0,2074.0,1
856,856,-0.06528167099303794,-0.1,0.0,1.0,367.0,548.0,0.0,1,2085.0,0
857,857,-0.17658080067671011,-0.2,1.0,0.0,375.0,896.0,0.0,0,1729.0,1
858,858,-0.7754444942021935,-0.8,0.0,1.0,400.0,625.0,0.0,1,1975.0,0
859,859,0.31618259088722656,0.3,0.0,0.0,384.0,659.0,0.0,1,1957.0,1
860,860,-0.5235307783202894,-0.5,1.0,0.0,347.0,574.0,0.0,0,2079.0,1
861,861,0.231534654961438,0.2,0.0,0.0,409.0,533.0,0.0,1,2058.0,1
862,862,-0.5594644977234042,-0.6,1.0,0.0,397.0,577.0,0.0,0,2026.0,1
863,863,-0.01447989641887526,-0.0,0.0,1.0,291.0,924.0,1.0,0,-1205.0,1
864,864,-0.41652306925853744,-0.4,1.0,0.0,320.0,942.0,0.0,0,1738.0,1
865,865,-0.6462244798467397,-0.6,0.0,1.0,359.0,600.0,0.0,1,2041.0,0
866,866,-0.6932533798638005,-0.7,0.0,1.0,391.0,500.0,1.0,0,-861.0,1
867,867,0.242826296397893,0.2,0.0,0.0,418.0,836.0,0.0,1,1746.0,1
868,868,-0.0986781049281985,-0.1,0.0,1.0,327.0,516.0,0.0,1,2157.0,0
869,869,0.821636320334519,0.8,1.0,1.0,317.0,561.0,0.0,0,2122.0,0
870,870,-0.7692341949533341,-0.8,1.0,0.0,461.0,967.0,0.0,0,1572.0,1
871,871,0.06355830981158206,0.1,1.0,1.0,398.0,600.0,0.0,0,2002.0,0
872,872,0.5853459345287383,0.6,0.0,0.0,377.0,520.0,0.0,1,2103.0,1
873,873,0.15268201004004778,0.2,0.0,0.0,326.0,965.0,0.0,1,1709.0,1
874,874,0.4465335535074383,0.4,1.0,1.0,410.0,875.0,0.0,0,1715.0,0
875,875,-0.743304766599402,-0.7,0.0,1.0,331.0,748.0,0.0,1,1921.0,0
876,876,-0.11427391027917244,-0.1,0.0,1.0,344.0,841.0,0.0,1,1815.0,0
877,877,-0.4402473793959851,-0.4,1.0,0.0,341.0,612.0,0.0,0,2047.0,1
878,878,0.5338392511928903,0.5,0.0,0.0,350.0,949.0,0.0,1,1701.0,1
879,879,-0.3753532840815007,-0.4,1.0,0.0,405.0,703.0,0.0,0,1892.0,1
880,880,-0.8522354864333185,-0.9,1.0,0.0,340.0,624.0,0.0,0,-734.0,1
881,881,0.4353814730208213,0.4,1.0,1.0,381.0,677.0,0.0,0,1942.0,0
882,882,-0.7575685640256483,-0.8,0.0,1.0,306.0,862.0,0.0,1,1832.0,0
883,883,-0.32818366118305664,-0.3,0.0,1.0,270.0,758.0,0.0,1,1972.0,0
884,884,-0.24324725707715478,-0.2,0.0,1.0,453.0,882.0,0.0,1,1665.0,0
885,885,-0.055452184422735695,-0.1,0.0,1.0,450.0,964.0,0.0,1,1586.0,0
886,886,-0.49867611037377985,-0.5,0.0,1.0,277.0,812.0,0.0,1,1911.0,0
887,887,-0.7744945213870459,-0.8,0.0,1.0,367.0,845.0,0.0,1,1788.0,0
888,888,-0.19012675385827138,-0.2,1.0,0.0,308.0,638.0,0.0,0,2054.0,1
889,889,0.10774263821247387,0.1,1.0,1.0,426.0,751.0,0.0,0,1823.0,0
890,890,-0.8133135139388431,-0.8,0.0,1.0,306.0,996.0,0.0,1,1698.0,0
891,891,-0.006578865420708402,-0.0,0.0,1.0,400.0,598.0,1.0,0,-908.0,1
892,892,0.11008251088274557,0.1,1.0,1.0,493.0,614.0,0.0,0,1893.0,0
893,893,-0.23255849998954836,-0.2,0.0,1.0,346.0,712.0,0.0,1,1942.0,0
894,894,-0.6490532706109206,-0.6,0.0,1.0,350.0,791.0,0.0,1,1859.0,0
895,895,-0.16402045015741973,-0.2,0.0,1.0,406.0,764.0,0.0,1,1830.0,0
896,896,-0.5571750399061561,-0.6,0.0,1.0,253.0,680.0,0.0,1,2067.0,0
897,897,0.8437265295501503,0.8,1.0,1.0,458.0,699.0,0.0,0,1843.0,0
898,898,-0.6005621947498279,-0.6,0.0,1.0,344.0,884.0,0.0,1,1772.0,0
899,899,-0.20928795138023837,-0.2,0.0,1.0,275.0,849.0,0.0,1,1876.0,0
900,900,0.30376697703931577,0.3,0.0,0.0,422.0,715.0,0.0,1,1863.0,1
901,901,0.8695922011940348,0.9,1.0,1.0,424.0,502.0,1.0,1,-926.0,1
902,902,0.10904597283167694,0.1,1.0,1.0,383.0,901.0,0.0,0,1716.0,0
903,903,0.07851223073280822,0.1,1.0,1.0,384.0,962.0,0.0,0,1654.0,0
904,904,-0.27260723172288037,-0.3,0.0,1.0,336.0,564.0,0.0,1,2100.0,0
905,905,0.5409689731712156,0.5,0.0,0.0,330.0,501.0,0.0,1,2169.0,1
906,906,-0.5328124661571159,-0.5,1.0,0.0,295.0,896.0,0.0,0,1809.0,1
907,907,-0.3910300464362564,-0.4,1.0,0.0,266.0,838.0,0.0,0,1896.0,1
908,908,-0.8557651977466693,-0.9,0.0,1.0,371.0,611.0,0.0,1,2018.0,0
909,909,0.2439517171566653,0.2,0.0,0.0,469.0,675.0,0.0,1,1856.0,1
910,910,0.4374054348929538,0.4,0.0,0.0,360.0,773.0,0.0,1,1867.0,1
911,911,0.28497312393866736,0.3,0.0,0.0,448.0,846.0,0.0,1,1706.0,1
912,912,0.7855973317469037,0.8,1.0,1.0,250.0,674.0,0.0,0,2076.0,0
913,913,-0.2528133904842661,-0.3,0.0,1.0,492.0,900.0,0.0,1,1608.0,0
914,914,-0.6513582503177271,-0.7,0.0,1.0,359.0,517.0,0.0,1,2124.0,0
915,915,0.8377139036990627,0.8,0.0,0.0,467.0,858.0,0.0,1,1675.0,1
916,916,0.2645756877178601,0.3,0.0,0.0,343.0,521.0,0.0,1,2136.0,1
917,917,-0.7599917603295685,-0.8,1.0,0.0,251.0,827.0,0.0,0,1922.0,1
918,918,0.19689216729803494,0.2,1.0,1.0,445.0,768.0,0.0,0,1787.0,0
919,919,0.3713515534068791,0.4,1.0,1.0,474.0,620.0,1.0,1,-1024.0,1
920,920,0.8385387897429669,0.8,0.0,0.0,320.0,929.0,0.0,1,1751.0,1
921,921,0.1756068513512189,0.2,1.0,1.0,345.0,943.0,0.0,0,1712.0,0
922,922,-0.7846789915820552,-0.8,0.0,1.0,431.0,950.0,0.0,1,1619.0,0
923,923,-0.8251211761969035,-0.8,0.0,1.0,488.0,690.0,0.0,1,1822.0,0
924,924,-0.512695173887916,-0.5,1.0,0.0,265.0,836.0,0.0,0,1899.0,1
925,925,0.19323731518075926,0.2,1.0,1.0,492.0,947.0,0.0,0,1561.0,0
926,926,-0.6750627485035497,-0.7,0.0,1.0,464.0,708.0,0.0,1,1828.0,0
927,927,0.6434734747392091,0.6,1.0,1.0,344.0,951.0,0.0,0,1705.0,0
928,928,0.14413515169479252,0.1,0.0,0.0,456.0,824.0,0.0,1,1720.0,1
929,929,-0.7340110516002022,-0.7,1.0,0.0,463.0,749.0,0.0,0,1788.0,1
930,930,-0.638754330518381,-0.6,0.0,1.0,423.0,563.0,0.0,1,2014.0,0
931,931,0.7458473999630993,0.7,1.0,1.0,403.0,667.0,0.0,0,1930.0,0
932,932,0.747540684162927,0.7,0.0,0.0,497.0,779.0,1.0,0,-1266.0,0
933,933,0.3072591712116154,0.3,1.0,1.0,463.0,714.0,0.0,0,1823.0,0
934,934,0.42572103803355243,0.4,1.0,1.0,496.0,560.0,0.0,0,1944.0,0
935,935,-0.7434399516809183,-0.7,1.0,0.0,469.0,663.0,0.0,0,1868.0,1
936,936,-0.7443214296824765,-0.7,0.0,1.0,390.0,534.0,0.0,1,2076.0,0
937,937,0.276568672434342,0.3,0.0,0.0,264.0,648.0,0.0,1,2088.0,1
938,938,-0.25215577025425107,-0.3,1.0,0.0,295.0,783.0,0.0,0,1922.0,1
939,939,0.7723996593498886,0.8,0.0,0.0,290.0,728.0,0.0,1,1982.0,1
940,940,0.8061894468140859,0.8,0.0,0.0,472.0,589.0,0.0,1,1939.0,1
941,941,0.43824674817345544,0.4,0.0,0.0,285.0,757.0,0.0,1,1958.0,1
942,942,-0.5510751606007991,-0.6,1.0,0.0,494.0,877.0,0.0,0,1629.0,1
943,943,0.4639425258267379,0.5,1.0,1.0,481.0,521.0,0.0,0,1998.0,0
944,944,0.8827661479785301,0.9,1.0,1.0,405.0,747.0,0.0,0,1848.0,0
945,945,-0.48573742712701967,-0.5,0.0,1.0,498.0,556.0,0.0,1,1946.0,0
946,946,-0.7973536402545518,-0.8,1.0,0.0,360.0,666.0,0.0,0,1974.0,1
947,947,0.5983505447578387,0.6,0.0,0.0,262.0,841.0,0.0,1,1897.0,1
948,948,-0.08757061619451079,-0.1,1.0,0.0,347.0,702.0,0.0,0,1951.0,1
949,949,-0.6037006315782538,-0.6,0.0,1.0,405.0,716.0,0.0,1,1879.0,0
950,950,0.1575681441485014,0.2,0.0,0.0,457.0,709.0,0.0,1,1834.0,1
951,951,0.3156716249324608,0.3,0.0,0.0,340.0,937.0,0.0,1,-1217.0,1
952,952,0.8210157499662819,0.8,0.0,0.0,287.0,841.0,0.0,1,1872.0,1
953,953,0.39718654092949024,0.4,0.0,0.0,300.0,972.0,0.0,1,1728.0,1
954,954,-0.4336310393500599,-0.4,0.0,1.0,434.0,541.0,0.0,1,2025.0,0
955,955,0.3917028384506148,0.4,0.0,0.0,313.0,678.0,0.0,1,2009.0,1
956,956,0.13277589799458733,0.1,1.0,1.0,438.0,921.0,0.0,0,1641.0,0
957,957,-0.43700489940016496,-0.4,0.0,1.0,468.0,863.0,0.0,1,1669.0,0
958,958,0.6756258228578752,0.7,1.0,1.0,346.0,789.0,0.0,0,1865.0,0
959,959,-0.4529393391094692,-0.5,1.0,0.0,490.0,521.0,0.0,0,1989.0,1
960,960,-0.38360235824267075,-0.4,0.0,1.0,371.0,519.0,0.0,1,2110.0,0
961,961,-0.10488901163221953,-0.1,1.0,0.0,436.0,694.0,0.0,0,1870.0,1
962,962,0.21640355073945805,0.2,0.0,0.0,447.0,980.0,0.0,1,1573.0,1
963,963,0.6365765895715082,0.6,1.0,1.0,457.0,561.0,0.0,0,1982.0,0
964,964,-0.7486741175729587,-0.7,1.0,0.0,262.0,620.0,0.0,0,2118.0,1
965,965,0.891599911232139,0.9,0.0,0.0,324.0,697.0,0.0,1,1979.0,1
966,966,-0.21993529059803218,-0.2,0.0,1.0,302.0,971.0,0.0,1,1727.0,0
967,967,0.36118090517794565,0.4,1.0,1.0,397.0,873.0,0.0,0,1730.0,0
968,968,0.6750625867027108,0.7,0.0,0.0,374.0,723.0,0.0,1,1903.0,1
969,969,-0.3646419163811939,-0.4,1.0,0.0,299.0,911.0,0.0,0,1790.0,1
970,970,-0.8617782725803709,-0.9,1.0,0.0,300.0,759.0,0.0,0,1941.0,1
971,971,-0.07705616932058856,-0.1,0.0,1.0,378.0,860.0,0.0,1,1762.0,0
972,972,-0.15069036645299239,-0.2,0.0,1.0,315.0,574.0,0.0,1,-719.0,0
973,973,0.4014616230683611,0.4,1.0,1.0,457.0,955.0,0.0,0,1588.0,0
974,974,-0.19844906078967461,-0.2,0.0,1.0,327.0,980.0,0.0,1,1693.0,0
975,975,0.6941702123113086,0.7,0.0,0.0,320.0,705.0,0.0,1,1975.0,1
976,976,0.5426499408317865,0.5,1.0,1.0,338.0,523.0,1.0,1,-721.0,1
977,977,-0.7451533419062493,-0.7,0.0,1.0,330.0,758.0,0.0,1,1912.0,0
978,978,-0.7627879261462999,-0.8,0.0,1.0,276.0,910.0,0.0,1,1814.0,0
979,979,0.3919249954427412,0.4,1.0,1.0,439.0,764.0,0.0,0,1797.0,0
980,980,-0.6266390918809788,-0.6,0.0,1.0,287.0,796.0,0.0,1,1917.0,0
981,981,0.6190720665999759,0.6,0.0,0.0,259.0,874.0,0.0,1,1867.0,1
982,982,0.4451018731463504,0.4,1.0,1.0,321.0,676.0,0.0,0,2003.0,0
983,983,0.34494690901524494,0.3,0.0,0.0,465.0,628.0,0.0,1,1907.0,1
984,984,0.23551608963285486,0.2,1.0,1.0,381.0,963.0,0.0,0,1656.0,0
985,985,0.1668153156276414,0.2,0.0,0.0,316.0,723.0,0.0,1,1961.0,1
986,986,-0.6894938670588284,-0.7,1.0,0.0,363.0,845.0,0.0,0,1792.0,1
987,987,0.7358865614583551,0.7,0.0,0.0,373.0,811.0,0.0,1,1816.0,1
988,988,0.7031086386839677,0.7,0.0,0.0,297.0,562.0,0.0,1,2141.0,1
989,989,-0.3105017174977772,-0.3,1.0,0.0,354.0,589.0,0.0,0,2057.0,1
990,990,-0.04562212707602664,-0.0,1.0,0.0,422.0,828.0,0.0,0,1750.0,1
991,991,0.17658625945591433,0.2,0.0,0.0,464.0,982.0,0.0,1,1554.0,1
992,992,0.1303804524706239,0.1,0.0,0.0,371.0,530.0,0.0,1,2099.0,1
993,993,0.8704802289035206,0.9,0.0,0.0,405.0,599.0,0.0,1,1996.0,1
994,994,0.8784796743235813,0.9,0.0,0.0,327.0,544.0,0.0,1,2129.0,1
995,995,-0.5301933328360046,-0.5,1.0,0.0,308.0,845.0,1.0,1,-1123.0,0
996,996,-0.096345791996015,-0.1,1.0,0.0,358.0,646.0,0.0,0,1996.0,1
997,997,0.08614745788096234,0.1,0.0,0.0,469.0,554.0,0.0,1,1977.0,1
998,998,0.11065481139890199,0.1,1.0,1.0,302.0,677.0,0.0,0,2021.0,0
999,999,0.7521898389668437,0.8,0.0,0.0,262.0,893.0,0.0,1,1845.0,1
1000,1000,-0.8776016402037105,-0.9,0.0,1.0,320.0,662.0,0.0,1,2018.0,0
1001,1001,-0.8050145769068949,-0.8,0.0,1.0,419.0,933.0,0.0,1,1648.0,0
1002,1002,-0.7440612212978779,-0.7,1.0,0.0,352.0,652.0,1.0,1,-954.0,0
1003,1003,-0.5999102646713048,-0.6,0.0,1.0,349.0,629.0,0.0,1,-888.0,0
1004,1004,-0.7082550005116044,-0.7,0.0,1.0,266.0,809.0,0.0,1,1925.0,0
1005,1005,0.6752818170133493,0.7,0.0,0.0,297.0,906.0,0.0,1,1797.0,1
1006,1006,0.8511959968345374,0.9,0.0,0.0,408.0,660.0,0.0,1,1932.0,1
1007,1007,-0.6009758033845201,-0.6,1.0,0.0,408.0,720.0,0.0,0,1872.0,1
1008,1008,0.23937453547736942,0.2,1.0,1.0,466.0,703.0,0.0,0,1831.0,0
1009,1009,0.7789011891834509,0.8,0.0,0.0,268.0,644.0,0.0,1,2088.0,1
1010,1010,0.2613346412793188,0.3,1.0,1.0,256.0,936.0,0.0,0,1808.0,0
1011,1011,-0.7861626332452397,-0.8,0.0,1.0,400.0,797.0,0.0,1,1803.0,0
1012,1012,-0.7625552598713935,-0.8,1.0,0.0,362.0,660.0,0.0,0,1978.0,1
1013,1013,0.5759295592413464,0.6,0.0,0.0,283.0,652.0,0.0,1,2065.0,1
1014,1014,-0.8652153814716115,-0.9,1.0,0.0,401.0,602.0,0.0,0,1997.0,1
1015,1015,0.8010575598465374,0.8,0.0,0.0,321.0,760.0,0.0,1,1919.0,1
1016,1016,0.5815665262446404,0.6,0.0,0.0,309.0,529.0,0.0,1,2162.0,1
1017,1017,-0.7451451346837564,-0.7,1.0,0.0,443.0,875.0,0.0,0,1682.0,1
1018,1018,-0.5086183816473815,-0.5,0.0,1.0,376.0,761.0,0.0,1,1863.0,0
1019,1019,0.4132133287825027,0.4,1.0,1.0,459.0,701.0,0.0,0,1840.0,0
1020,1020,0.7235833990423394,0.7,1.0,1.0,309.0,598.0,0.0,0,2093.0,0
1021,1021,0.09234806970060794,0.1,0.0,0.0,315.0,614.0,0.0,1,2071.0,1
1022,1022,0.3754113876251065,0.4,0.0,0.0,290.0,692.0,0.0,1,2018.0,1
1023,1023,-0.46498646776758595,-0.5,1.0,0.0,451.0,995.0,0.0,0,1554.0,1
1024,1024,-0.7852390667285191,-0.8,1.0,0.0,288.0,975.0,0.0,0,1737.0,1
1025,1025,0.20075996736969837,0.2,1.0,1.0,393.0,776.0,1.0,1,-1139.0,1
1026,1026,0.04245012598570519,0.0,1.0,1.0,255.0,674.0,0.0,0,2071.0,0
1027,1027,0.04215239940390736,0.0,0.0,0.0,392.0,654.0,0.0,1,-1016.0,1
1028,1028,-0.2164820084834823,-0.2,1.0,0.0,390.0,784.0,0.0,0,1826.0,1
1029,1029,0.10327378113376773,0.1,1.0,1.0,404.0,908.0,0.0,0,1688.0,0
1030,1030,0.5160394881787828,0.5,1.0,1.0,430.0,609.0,0.0,0,1961.0,0
1031,1031,0.2514340975057813,0.3,1.0,1.0,409.0,522.0,0.0,0,2069.0,0
1032,1032,-0.19772489796278925,-0.2,0.0,1.0,478.0,698.0,0.0,1,1824.0,0
1033,1033,-0.3108560372544359,-0.3,1.0,0.0,415.0,961.0,0.0,0,1624.0,1
1034,1034,0.1633055753594198,0.2,0.0,0.0,439.0,986.0,0.0,1,1575.0,1
1035,1035,0.22195407036982207,0.2,1.0,1.0,292.0,937.0,0.0,0,1771.0,0
1036,1036,-0.08895281269616573,-0.1,0.0,1.0,443.0,687.0,0.0,1,1870.0,0
1037,1037,-0.10883754663525469,-0.1,1.0,0.0,337.0,925.0,0.0,0,1738.0,1
1038,1038,-0.1690650604933588,-0.2,0.0,1.0,307.0,676.0,0.0,1,2017.0,0
1039,1039,-0.3393249035633876,-0.3,1.0,0.0,446.0,919.0,0.0,0,1635.0,1
1040,1040,-0.8918238247481736,-0.9,1.0,0.0,346.0,899.0,0.0,0,-1215.0,1
1041,1041,0.10370468416792622,0.1,1.0,1.0,447.0,552.0,0.0,0,2001.0,0
1042,1042,0.3786206572342069,0.4,1.0,1.0,478.0,864.0,0.0,0,1658.0,0
1043,1043,-0.8120426347211196,-0.8,0.0,1.0,473.0,840.0,0.0,1,1687.0,0
1044,1044,0.7536610528389248,0.8,0.0,0.0,447.0,924.0,0.0,1,1629.0,1
1045,1045,0.8279363211793159,0.8,1.0,1.0,353.0,968.0,0.0,0,1679.0,0
1046,1046,0.6162856458973943,0.6,0.0,0.0,448.0,583.0,0.0,1,1969.0,1
1047,1047,-0.3696251880742466,-0.4,0.0,1.0,394.0,756.0,0.0,1,1850.0,0
1048,1048,-0.10623717296593171,-0.1,0.0,1.0,442.0,627.0,0.0,1,1931.0,0
1049,1049,-0.0357344401783003,-0.0,0.0,1.0,413.0,850.0,0.0,1,-1223.0,0
1050,1050,0.13495190176089877,0.1,1.0,1.0,256.0,836.0,0.0,0,1908.0,0
1051,1051,-0.7223068691180461,-0.7,1.0,0.0,420.0,768.0,0.0,0,1812.0,1
1052,1052,-0.6960107694405342,-0.7,1.0,0.0,425.0,967.0,0.0,0,1608.0,1
1053,1053,0.0065391664901457425,0.0,1.0,1.0,432.0,534.0,0.0,0,2034.0,0
1054,1054,0.4959137210665924,0.5,1.0,1.0,374.0,944.0,0.0,0,1682.0,0
1055,1055,0.21307779681244077,0.2,1.0,1.0,476.0,743.0,0.0,0,1781.0,0
1056,1056,0.4030799928712493,0.4,1.0,1.0,439.0,759.0,0.0,0,1802.0,0
1057,1057,0.3206000856300061,0.3,1.0,1.0,425.0,775.0,0.0,0,1800.0,0
1058,1058,0.3546537463733844,0.4,0.0,0.0,286.0,863.0,0.0,1,1851.0,1
1059,1059,0.8709385172165015,0.9,1.0,1.0,256.0,977.0,0.0,0,1767.0,0
1060,1060,-0.3090689912118414,-0.3,1.0,0.0,398.0,733.0,0.0,0,1869.0,1
1061,1061,0.46217841283672334,0.5,1.0,1.0,440.0,600.0,0.0,0,1960.0,0
1062,1062,0.483510554736606,0.5,0.0,0.0,352.0,908.0,0.0,1,1740.0,1
1063,1063,0.23765723793514593,0.2,0.0,0.0,322.0,872.0,0.0,1,1806.0,1
1064,1064,0.22919270030030836,0.2,1.0,1.0,393.0,542.0,0.0,0,2065.0,0
1065,1065,0.6777754271526334,0.7,0.0,0.0,328.0,602.0,0.0,1,2070.0,1
1066,1066,-0.2346880336764673,-0.2,0.0,1.0,301.0,937.0,1.0,0,-1198.0,1
1067,1067,-0.487911136660881,-0.5,0.0,1.0,311.0,849.0,0.0,1,1840.0,0
1068,1068,-0.6040910537091446,-0.6,0.0,1.0,404.0,673.0,0.0,1,1923.0,0
1069,1069,0.09909943147476086,0.1,0.0,0.0,382.0,745.0,0.0,1,1873.0,1
1070,1070,0.7428171444169721,0.7,0.0,0.0,307.0,850.0,0.0,1,1843.0,1
1071,1071,0.05748564041204485,0.1,1.0,1.0,444.0,519.0,0.0,0,2037.0,0
1072,1072,0.4396661912133558,0.4,1.0,1.0,456.0,805.0,0.0,0,1739.0,0
1073,1073,0.26600077789596377,0.3,1.0,1.0,320.0,940.0,0.0,0,1740.0,0
1074,1074,-0.11929036669407023,-0.1,1.0,0.0,429.0,750.0,0.0,0,1821.0,1
1075,1075,0.6468044232931874,0.6,1.0,1.0,255.0,538.0,0.0,0,2207.0,0
1076,1076,-0.5020838163547273,-0.5,1.0,0.0,250.0,845.0,0.0,0,1905.0,1
1077,1077,0.8629146178857202,0.9,0.0,0.0,387.0,501.0,0.0,1,2112.0,1
1078,1078,0.5560874004072401,0.6,1.0,1.0,456.0,939.0,0.0,0,1605.0,0
1079,1079,0.04566327938013581,0.0,0.0,0.0,433.0,693.0,0.0,1,1874.0,1
1080,1080,-0.4223583964909215,-0.4,0.0,1.0,487.0,904.0,0.0,1,1609.0,0
1081,1081,0.774286974546118,0.8,1.0,1.0,372.0,725.0,0.0,0,1903.0,0
1082,1082,0.7723053545378161,0.8,1.0,1.0,366.0,978.0,0.0,0,1656.0,0
1083,1083,0.7458979314330206,0.7,1.0,1.0,335.0,606.0,0.0,0,2059.0,0
1084,1084,0.7273675643652585,0.7,1.0,1.0,315.0,762.0,0.0,0,1923.0,0
1085,1085,-0.19474207537784138,-0.2,0.0,1.0,336.0,789.0,0.0,1,1875.0,0
1086,1086,-0.4183675194015018,-0.4,0.0,1.0,293.0,799.0,0.0,1,1908.0,0
1087,1087,-0.28289896444004325,-0.3,0.0,1.0,463.0,808.0,1.0,0,-1251.0,1
1088,1088,-0.7887130941252676,-0.8,0.0,1.0,487.0,508.0,0.0,1,-985.0,0
1089,1089,-0.18927347024617536,-0.2,0.0,1.0,365.0,554.0,0.0,1,2081.0,0
1090,1090,-0.27725103183078137,-0.3,1.0,0.0,383.0,646.0,0.0,0,1971.0,1
1091,1091,-0.6232993118274626,-0.6,1.0,0.0,402.0,528.0,0.0,0,-800.0,1
1092,1092,0.6309523499882129,0.6,1.0,1.0,260.0,524.0,0.0,0,2216.0,0
1093,1093,0.5587452215953238,0.6,1.0,1.0,443.0,719.0,0.0,0,1838.0,0
1094,1094,-0.2677757873042327,-0.3,0.0,1.0,287.0,755.0,0.0,1,1958.0,0
1095,1095,-0.42024579768901377,-0.4,1.0,0.0,454.0,574.0,0.0,0,1972.0,1
1096,1096,0.25262296446991506,0.3,0.0,0.0,418.0,741.0,0.0,1,1841.0,1
1097,1097,-0.8327291456942424,-0.8,1.0,0.0,439.0,933.0,0.0,0,1628.0,1
1098,1098,0.1176698492181959,0.1,1.0,1.0,254.0,690.0,0.0,0,2056.0,0
1099,1099,0.025444760139722966,0.0,0.0,0.0,434.0,867.0,0.0,1,1699.0,1
1100,1100,-0.7193309358479079,-0.7,0.0,1.0,433.0,895.0,0.0,1,1672.0,0
1101,1101,0.30948087578768557,0.3,0.0,0.0,349.0,844.0,0.0,1,1807.0,1
1102,1102,-0.8921728052566444,-0.9,1.0,0.0,403.0,539.0,0.0,0,2058.0,1
1103,1103,0.4510635762037144,0.5,1.0,1.0,423.0,667.0,0.0,0,1910.0,0
1104,1104,0.16294405863122396,0.2,0.0,0.0,382.0,535.0,0.0,1,2083.0,1
1105,1105,0.023708023789836496,0.0,1.0,1.0,327.0,651.0,0.0,0,2022.0,0
1106,1106,-0.7986497252496246,-0.8,0.0,1.0,360.0,579.0,0.0,1,2061.0,0
1107,1107,0.636199941497095,0.6,1.0,1.0,380.0,542.0,0.0,0,2078.0,0
1108,1108,0.4621944652209794,0.5,0.0,0.0,423.0,958.0,0.0,1,1619.0,1
1109,1109,-0.8537871321935893,-0.9,1.0,0.0,280.0,762.0,0.0,0,1958.0,1
1110,1110,0.8517788890610462,0.9,1.0,1.0,367.0,559.0,0.0,0,2074.0,0
1111,1111,0.5721199499453503,0.6,0.0,0.0,256.0,529.0,0.0,1,2215.0,1
1112,1112,-0.11636812877250924,-0.1,1.0,0.0,489.0,986.0,0.0,0,1525.0,1
1113,1113,-0.4516923971755114,-0.5,1.0,0.0,483.0,589.0,0.0,0,1928.0,1
1114,1114,-0.6221994328484217,-0.6,1.0,0.0,302.0,950.0,0.0,0,1748.0,1
1115,1115,0.35696924746088377,0.4,0.0,0.0,295.0,659.0,0.0,1,2046.0,1
1116,1116,-0.6131954062943158,-0.6,0.0,1.0,292.0,817.0,0.0,1,1891.0,0
1117,1117,0.10545033433510509,0.1,1.0,1.0,462.0,930.0,0.0,0,1608.0,0
1118,1118,0.6394110826843816,0.6,0.0,0.0,421.0,692.0,0.0,1,1887.0,1
1119,1119,-0.6723516043124091,-0.7,0.0,1.0,346.0,773.0,0.0,1,1881.0,0
1120,1120,0.5172855481270301,0.5,0.0,0.0,327.0,574.0,0.0,1,2099.0,1
1121,1121,0.7887843905001725,0.8,0.0,0.0,473.0,907.0,0.0,1,1620.0,1
1122,1122,-0.10888905888044842,-0.1,0.0,1.0,282.0,588.0,0.0,1,2130.0,0
1123,1123,-0.5940628867323776,-0.6,0.0,1.0,361.0,540.0,0.0,1,2099.0,0
1124,1124,0.6201555583931525,0.6,1.0,1.0,344.0,558.0,0.0,0,2098.0,0
1125,1125,-0.5666874373449218,-0.6,0.0,1.0,403.0,757.0,0.0,1,1840.0,0
1126,1126,0.022713149442638803,0.0,0.0,0.0,400.0,936.0,0.0,1,1664.0,1
1127,1127,0.21955212108473743,0.2,0.0,0.0,341.0,744.0,0.0,1,1915.0,1
1128,1128,-0.16043462172123701,-0.2,1.0,0.0,475.0,529.0,0.0,0,1996.0,1
1129,1129,0.40436478500293493,0.4,0.0,0.0,325.0,834.0,0.0,1,-1089.0,1
1130,1130,0.19393656214159372,0.2,0.0,0.0,410.0,625.0,0.0,1,1965.0,1
1131,1131,-0.7716159738488124,-0.8,1.0,0.0,450.0,796.0,0.0,0,1754.0,1
1132,1132,-0.8636254749103838,-0.9,0.0,1.0,439.0,736.0,0.0,1,1825.0,0
1133,1133,-0.584917332162459,-0.6,0.0,1.0,455.0,829.0,0.0,1,1716.0,0
1134,1134,-0.8317538329305251,-0.8,1.0,0.0,402.0,782.0,0.0,0,1816.0,1
1135,1135,-0.8271670550993532,-0.8,1.0,0.0,470.0,837.0,1.0,1,-1307.0,0
1136,1136,0.22822977192099814,0.2,0.0,0.0,485.0,554.0,0.0,1,1961.0,1
1137,1137,-0.6699760405705626,-0.7,0.0,1.0,260.0,787.0,0.0,1,1953.0,0
1138,1138,0.7653230076137271,0.8,1.0,1.0,277.0,875.0,0.0,0,1848.0,0
1139,1139,-0.4805997923690808,-0.5,0.0,1.0,279.0,882.0,0.0,1,1839.0,0
1140,1140,0.8372022718096203,0.8,1.0,1.0,463.0,615.0,0.0,0,1922.0,0
1141,1141,-0.469754827971108,-0.5,0.0,1.0,366.0,686.0,0.0,1,1948.0,0
1142,1142,-0.005627885942369959,-0.0,1.0,0.0,253.0,710.0,0.0,0,2037.0,1
1143,1143,-0.3640812762386081,-0.4,0.0,1.0,412.0,965.0,0.0,1,1623.0,0
1144,1144,-0.4120790397346036,-0.4,0.0,1.0,303.0,695.0,0.0,1,2002.0,0
1145,1145,0.5466832800542553,0.5,0.0,0.0,286.0,774.0,0.0,1,1940.0,1
1146,1146,-0.09638297232013848,-0.1,0.0,1.0,330.0,869.0,0.0,1,1801.0,0
1147,1147,-0.4990494348807618,-0.5,1.0,0.0,442.0,758.0,0.0,0,1800.0,1
1148,1148,0.7584420047536281,0.8,1.0,1.0,291.0,841.0,0.0,0,1868.0,0
1149,1149,-0.24780882048500086,-0.2,0.0,1.0,485.0,978.0,0.0,1,1537.0,0
1150,1150,0.8764927371818386,0.9,1.0,1.0,276.0,861.0,0.0,0,1863.0,0
1151,1151,-0.6065786676039627,-0.6,0.0,1.0,421.0,920.0,0.0,1,1659.0,0
1152,1152,0.23716380386794766,0.2,1.0,1.0,422.0,832.0,0.0,0,1746.0,0
1153,1153,0.4843641874074026,0.5,0.0,0.0,465.0,746.0,0.0,1,1789.0,1
1154,1154,0.21692199469261542,0.2,0.0,0.0,305.0,631.0,0.0,1,2064.0,1
1155,1155,0.4286347881549367,0.4,1.0,1.0,449.0,906.0,0.0,0,1645.0,0
1156,1156,0.055997923444259246,0.1,1.0,1.0,301.0,671.0,0.0,0,2028.0,0
1157,1157,-0.6234012283038709,-0.6,1.0,0.0,446.0,558.0,0.0,0,1996.0,1
1158,1158,0.3221764503995189,0.3,1.0,1.0,373.0,686.0,0.0,0,1941.0,0
1159,1159,0.35998190737246494,0.4,1.0,1.0,291.0,964.0,0.0,0,1745.0,0
1160,1160,-0.8175343872549626,-0.8,0.0,1.0,423.0,891.0,0.0,1,1686.0,0
1161,1161,-0.09037481725163088,-0.1,0.0,1.0,430.0,760.0,0.0,1,1810.0,0
1162,1162,0.4182126626242183,0.4,1.0,1.0,426.0,847.0,0.0,0,1727.0,0
1163,1163,-0.3775958151461203,-0.4,0.0,1.0,260.0,691.0,0.0,1,2049.0,0
1164,1164,-0.6878523194439845,-0.7,0.0,1.0,382.0,742.0,0.0,1,1876.0,0
1165,1165,0.3489559434863746,0.3,1.0,1.0,258.0,884.0,0.0,0,1858.0,0
1166,1166,0.2555591128880511,0.3,1.0,1.0,251.0,650.0,0.0,0,2099.0,0
1167,1167,-0.19912171405315449,-0.2,1.0,0.0,461.0,739.0,0.0,0,1800.0,1
1168,1168,-0.24709982736185576,-0.2,0.0,1.0,479.0,604.0,0.0,1,1917.0,0
1169,1169,0.5268717105735611,0.5,1.0,1.0,271.0,746.0,0.0,0,1983.0,0
1170,1170,0.3442164619118021,0.3,1.0,1.0,324.0,668.0,0.0,0,2008.0,0
1171,1171,0.04502905340617669,0.0,0.0,0.0,355.0,966.0,0.0,1,1679.0,1
1172,1172,-0.4884637809738082,-0.5,0.0,1.0,269.0,726.0,0.0,1,2005.0,0
1173,1173,0.34081357473812857,0.3,1.0,1.0,454.0,502.0,0.0,0,2044.0,0
1174,1174,-0.18084584418426597,-0.2,1.0,0.0,267.0,981.0,0.0,0,1752.0,1
1175,1175,-0.73664728632854,-0.7,0.0,1.0,266.0,636.0,0.0,1,2098.0,0
1176,1176,0.4182191933549074,0.4,0.0,0.0,499.0,794.0,0.0,1,1707.0,1
1177,1177,0.30139132494555676,0.3,1.0,1.0,341.0,734.0,0.0,0,1925.0,0
1178,1178,0.03234780336668286,0.0,1.0,1.0,371.0,716.0,0.0,0,1913.0,0
1179,1179,-0.7724655409767378,-0.8,0.0,1.0,364.0,580.0,0.0,1,2056.0,0
1180,1180,0.2278071623886352,0.2,0.0,0.0,298.0,924.0,0.0,1,1778.0,1
1181,1181,-0.7262000162524791,-0.7,0.0,1.0,320.0,568.0,0.0,1,2112.0,0
1182,1182,0.8192929460364252,0.8,0.0,0.0,460.0,710.0,0.0,1,1830.0,1
1183,1183,0.18625818340497513,0.2,1.0,1.0,368.0,927.0,0.0,0,1705.0,0
1184,1184,0.6364191470068011,0.6,1.0,1.0,447.0,755.0,0.0,0,1798.0,0
1185,1185,-0.7077983831160514,-0.7,0.0,1.0,374.0,526.0,0.0,1,2100.0,0
1186,1186,0.08914694755686703,0.1,0.0,0.0,402.0,773.0,0.0,1,-1135.0,1
1187,1187,-0.017616399386742754,-0.0,0.0,1.0,293.0,731.0,0.0,1,1976.0,0
1188,1188,-0.6100835477391177,-0.6,1.0,0.0,405.0,535.0,0.0,0,2060.0,1
1189,1189,0.47684994661319846,0.5,1.0,1.0,386.0,825.0,0.0,0,1789.0,0
1190,1190,0.4302755285674863,0.4,0.0,0.0,392.0,554.0,0.0,1,2054.0,1
1191,1191,0.1918393702193223,0.2,1.0,1.0,362.0,958.0,0.0,0,1680.0,0
1192,1192,-0.38833281961639887,-0.4,0.0,1.0,470.0,789.0,0.0,1,1741.0,0
1193,1193,0.8092795687793003,0.8,1.0,1.0,437.0,844.0,0.0,0,1719.0,0
1194,1194,-0.6391227687822271,-0.6,1.0,0.0,377.0,511.0,0.0,0,2112.0,1
1195,1195,-0.248426683430499,-0.2,0.0,1.0,280.0,842.0,0.0,1,1878.0,0
1196,1196,-0.06474154439053315,-0.1,0.0,1.0,462.0,519.0,0.0,1,2019.0,0
1197,1197,0.11996443041670213,0.1,0.0,0.0,431.0,853.0,0.0,1,1716.0,1
1198,1198,-0.6503648585500439,-0.7,0.0,1.0,326.0,870.0,0.0,1,1804.0,0
1199,1199,0.27617356800055404,0.3,1.0,1.0,449.0,586.0,0.0,0,1965.0,0
1200,1200,0.5545280756569652,0.6,0.0,0.0,339.0,906.0,0.0,1,1755.0,1
1201,1201,-0.7158899749255744,-0.7,1.0,0.0,424.0,590.0,0.0,0,1986.0,1
1202,1202,0.2522506708849478,0.3,0.0,0.0,440.0,810.0,0.0,1,1750.0,1
1203,1203,0.575270891056091,0.6,1.0,1.0,258.0,780.0,0.0,0,1962.0,0
1204,1204,-0.5513656528984809,-0.6,1.0,0.0,271.0,858.0,0.0,0,1871.0,1
1205,1205,-0.09502189662029181,-0.1,0.0,1.0,274.0,556.0,0.0,1,2170.0,0
1206,1206,-0.4994597026967067,-0.5,0.0,1.0,291.0,919.0,0.0,1,1790.0,0
1207,1207,0.4552735284697905,0.5,1.0,1.0,283.0,799.0,0.0,0,1918.0,0
1208,1208,-0.5369349401554123,-0.5,1.0,0.0,395.0,527.0,0.0,0,2078.0,1
1209,1209,-0.24107454312290666,-0.2,0.0,1.0,381.0,696.0,0.0,1,1923.0,0
1210,1210,0.0846666028969888,0.1,1.0,1.0,285.0,614.0,0.0,0,2101.0,0
1211,1211,0.5310816368368597,0.5,1.0,1.0,419.0,920.0,0.0,0,1661.0,0
1212,1212,0.17182313591022524,0.2,0.0,0.0,303.0,819.0,0.0,1,1878.0,1
1213,1213,-0.770265923704385,-0.8,1.0,0.0,321.0,723.0,0.0,0,1956.0,1
1214,1214,0.012042509533071288,0.0,0.0,0.0,434.0,916.0,0.0,1,1650.0,1
1215,1215,0.16630517945054601,0.2,1.0,1.0,300.0,751.0,0.0,0,1949.0,0
1216,1216,0.388561953353214,0.4,1.0,1.0,311.0,811.0,0.0,0,1878.0,0
1217,1217,0.02756863937629561,0.0,0.0,0.0,281.0,870.0,0.0,1,1849.0,1
1218,1218,-0.3773932205505336,-0.4,1.0,0.0,480.0,533.0,0.0,0,1987.0,1
1219,1219,-0.363981036533086,-0.4,1.0,0.0,336.0,632.0,0.0,0,2032.0,1
1220,1220,-0.14520899455448444,-0.1,0.0,1.0,268.0,702.0,0.0,1,2030.0,0
1221,1221,-0.8543675082960592,-0.9,0.0,1.0,436.0,897.0,0.0,1,1667.0,0
1222,1222,0.7589558647473823,0.8,0.0,0.0,331.0,804.0,0.0,1,1865.0,1
1223,1223,0.05223943306239143,0.1,0.0,0.0,405.0,509.0,0.0,1,-794.0,1
1224,1224,-0.26247672819862566,-0.3,0.0,1.0,461.0,502.0,0.0,1,2037.0,0
1225,1225,0.8360945382184314,0.8,0.0,0.0,339.0,850.0,0.0,1,1811.0,1
1226,1226,-0.7051008172723308,-0.7,0.0,1.0,434.0,913.0,0.0,1,1653.0,0
1227,1227,-0.30642722853519666,-0.3,1.0,0.0,265.0,789.0,0.0,0,1946.0,1
1228,1228,0.34700277483699693,0.3,0.0,0.0,360.0,918.0,0.0,1,1722.0,1
1229,1229,-0.0918249852813523,-0.1,1.0,0.0,301.0,906.0,0.0,0,1793.0,1
1230,1230,-0.06125973411009633,-0.1,0.0,1.0,333.0,502.0,0.0,1,2165.0,0
1231,1231,0.03878873048919629,0.0,0.0,0.0,379.0,667.0,0.0,1,1954.0,1
1232,1232,-0.8119890162220471,-0.8,1.0,0.0,319.0,559.0,0.0,0,2122.0,1
1233,1233,0.45486843640804053,0.5,0.0,0.0,386.0,534.0,0.0,1,2080.0,1
1234,1234,-0.833573715125887,-0.8,0.0,1.0,335.0,533.0,0.0,1,2132.0,0
1235,1235,0.7465248123445715,0.7,1.0,1.0,378.0,699.0,0.0,0,1923.0,0
1236,1236,0.6757854638510955,0.7,1.0,1.0,302.0,647.0,0.0,0,2051.0,0
1237,1237,-0.7815206765980512,-0.8,1.0,0.0,349.0,734.0,0.0,0,1917.0,1
1238,1238,-0.13108720218272762,-0.1,1.0,0.0,368.0,923.0,0.0,0,1709.0,1
1239,1239,-0.36381804183754973,-0.4,0.0,1.0,436.0,674.0,0.0,1,1890.0,0
1240,1240,-0.7978147356012484,-0.8,1.0,0.0,378.0,885.0,0.0,0,1737.0,1
1241,1241,-0.5888753140794081,-0.6,1.0,0.0,400.0,813.0,0.0,0,1787.0,1
1242,1242,-0.8982863649702116,-0.9,1.0,0.0,284.0,685.0,0.0,0,2031.0,1
1243,1243,0.6381466510601718,0.6,1.0,1.0,463.0,643.0,0.0,0,1894.0,0
1244,1244,0.10182504392641734,0.1,0.0,0.0,415.0,516.0,0.0,1,2069.0,1
1245,1245,-0.14456578287739574,-0.1,1.0,0.0,422.0,507.0,0.0,0,2071.0,1
1246,1246,0.2661747502869315,0.3,1.0,1.0,311.0,939.0,0.0,0,1750.0,0
1247,1247,-0.17340247534027586,-0.2,1.0,0.0,342.0,608.0,0.0,0,2050.0,1
1248,1248,0.3926170100305283,0.4,0.0,0.0,285.0,666.0,0.0,1,2049.0,1
1249,1249,-0.4435255561243787,-0.4,1.0,0.0,482.0,748.0,0.0,0,1770.0,1
1250,1250,-0.8598521603996102,-0.9,1.0,0.0,395.0,898.0,0.0,0,1707.0,1
1251,1251,-0.23070284955426235,-0.2,0.0,1.0,263.0,641.0,0.0,1,2096.0,0
1252,1252,0.341915562245355,0.3,1.0,1.0,339.0,716.0,0.0,0,1945.0,0
1253,1253,-0.08931195767586897,-0.1,0.0,1.0,417.0,951.0,0.0,1,1632.0,0
1254,1254,-0.7670568267395046,-0.8,1.0,0.0,463.0,508.0,0.0,0,2029.0,1
1255,1255,-0.7572358911629029,-0.8,0.0,1.0,333.0,708.0,0.0,1,1959.0,0
1256,1256,0.1571715651727107,0.2,1.0,1.0,306.0,688.0,0.0,0,2006.0,0
1257,1257,-0.5183303944664032,-0.5,0.0,1.0,317.0,825.0,0.0,1,1858.0,0
1258,1258,-0.5547640334969632,-0.6,0.0,1.0,325.0,585.0,0.0,1,2090.0,0
1259,1259,0.2886931422593927,0.3,0.0,0.0,369.0,607.0,0.0,1,2024.0,1
1260,1260,0.8066073193888846,0.8,1.0,1.0,465.0,901.0,0.0,0,1634.0,0
1261,1261,0.4711854511230883,0.5,0.0,0.0,387.0,650.0,0.0,1,1963.0,1
1262,1262,0.3134239156563091,0.3,0.0,0.0,356.0,864.0,0.0,1,1780.0,1
1263,1263,0.465481954188543,0.5,0.0,0.0,468.0,914.0,0.0,1,1618.0,1
1264,1264,0.6608111963827684,0.7,0.0,0.0,266.0,519.0,0.0,1,2215.0,1
1265,1265,0.700134291218829,0.7,1.0,1.0,379.0,894.0,0.0,0,1727.0,0
1266,1266,0.49930565516447445,0.5,0.0,0.0,332.0,609.0,0.0,1,2059.0,1
1267,1267,0.6452065707446119,0.6,0.0,0.0,411.0,832.0,0.0,1,1757.0,1
1268,1268,-0.618424402807499,-0.6,0.0,1.0,397.0,522.0,0.0,1,2081.0,0
1269,1269,0.1709606312268538,0.2,0.0,0.0,419.0,801.0,0.0,1,1780.0,1
1270,1270,0.3631700567340693,0.4,0.0,0.0,252.0,721.0,0.0,1,2027.0,1
1271,1271,-0.4213298816883849,-0.4,1.0,0.0,367.0,652.0,0.0,0,1981.0,1
1272,1272,-0.8721155615232956,-0.9,0.0,1.0,305.0,531.0,0.0,1,2164.0,0
1273,1273,-0.25008824093673765,-0.3,1.0,0.0,489.0,573.0,0.0,0,1938.0,1
1274,1274,-0.4743542126271498,-0.5,0.0,1.0,283.0,815.0,0.0,1,1902.0,0
1275,1275,-0.2692134246765804,-0.3,0.0,1.0,451.0,586.0,0.0,1,1963.0,0
1276,1276,0.6228874445561124,0.6,0.0,0.0,361.0,621.0,0.0,1,2018.0,1
1277,1277,0.7872192570825726,0.8,1.0,1.0,255.0,730.0,0.0,0,2015.0,0
1278,1278,-0.7967715758622117,-0.8,1.0,0.0,398.0,506.0,1.0,1,-904.0,0
1279,1279,0.6987576832669332,0.7,1.0,1.0,445.0,772.0,0.0,0,1783.0,0
1280,1280,0.2805373661090643,0.3,1.0,1.0,439.0,961.0,0.0,0,1600.0,0
1281,1281,0.2009406939067616,0.2,1.0,1.0,268.0,776.0,0.0,0,1956.0,0
1282,1282,-0.22669268485503336,-0.2,0.0,1.0,297.0,681.0,0.0,1,2022.0,0
1283,1283,-0.11960647349826914,-0.1,1.0,0.0,361.0,655.0,0.0,0,1984.0,1
1284,1284,0.13261025380765334,0.1,0.0,0.0,319.0,778.0,0.0,1,1903.0,1
1285,1285,0.5833179131922127,0.6,0.0,0.0,322.0,885.0,0.0,1,1793.0,1
1286,1286,-0.7221736588776875,-0.7,1.0,0.0,494.0,621.0,0.0,0,1885.0,1
1287,1287,-0.049845078677784316,-0.0,1.0,0.0,259.0,865.0,0.0,0,1876.0,1
1288,1288,0.09955053041571926,0.1,1.0,1.0,447.0,627.0,0.0,0,1926.0,0
1289,1289,0.040209346547900426,0.0,0.0,0.0,431.0,630.0,0.0,1,1939.0,1
1290,1290,0.8800043939838945,0.9,1.0,1.0,345.0,693.0,0.0,0,1962.0,0
1291,1291,-0.1237512075982472,-0.1,1.0,0.0,279.0,567.0,0.0,0,2154.0,1
1292,1292,0.3314655162337735,0.3,0.0,0.0,279.0,543.0,0.0,1,2178.0,1
1293,1293,0.24432842724025539,0.2,1.0,1.0,301.0,505.0,0.0,0,2194.0,0
1294,1294,-0.6911753913222453,-0.7,0.0,1.0,399.0,810.0,0.0,1,1791.0,0
1295,1295,-0.7561887789271199,-0.8,1.0,0.0,433.0,907.0,0.0,0,1660.0,1
1296,1296,-0.7303225702189714,-0.7,0.0,1.0,287.0,553.0,0.0,1,2160.0,0
1297,1297,-0.46756814035957134,-0.5,1.0,0.0,362.0,784.0,0.0,0,1854.0,1
1298,1298,0.6650870553548437,0.7,1.0,1.0,389.0,523.0,0.0,0,2088.0,0
1299,1299,0.20429129419619174,0.2,1.0,1.0,413.0,588.0,0.0,0,1999.0,0
1300,1300,-0.37257000425936315,-0.4,1.0,0.0,436.0,988.0,0.0,0,1576.0,1
1301,1301,-0.3756166149793637,-0.4,0.0,1.0,487.0,852.0,0.0,1,1661.0,0
1302,1302,0.30561601298550645,0.3,1.0,1.0,282.0,524.0,0.0,0,2194.0,0
1303,1303,-0.8442345965242432,-0.8,0.0,1.0,296.0,730.0,0.0,1,1974.0,0
1304,1304,0.7356618743478688,0.7,0.0,0.0,445.0,955.0,0.0,1,1600.0,1
1305,1305,0.7960100586381075,0.8,0.0,0.0,459.0,992.0,0.0,1,1549.0,1
1306,1306,-0.03619874046744431,-0.0,1.0,0.0,262.0,955.0,0.0,0,1783.0,1
1307,1307,-0.5103536349383668,-0.5,1.0,0.0,297.0,693.0,0.0,0,2010.0,1
1308,1308,0.1573430423543497,0.2,1.0,1.0,374.0,601.0,0.0,0,2025.0,0
1309,1309,-0.6972120871305492,-0.7,1.0,0.0,321.0,703.0,0.0,0,1976.0,1
1310,1310,0.23993847349321407,0.2,0.0,0.0,281.0,534.0,0.0,1,-805.0,1
1311,1311,0.12248607914299081,0.1,1.0,1.0,334.0,652.0,0.0,0,2014.0,0
1312,1312,0.6702166954562306,0.7,0.0,0.0,434.0,511.0,0.0,1,2055.0,1
1313,1313,-0.07373262302344907,-0.1,1.0,0.0,427.0,969.0,0.0,0,1604.0,1
1314,1314,0.41219385279753784,0.4,1.0,1.0,367.0,884.0,0.0,0,1749.0,0
1315,1315,-0.07520526924565207,-0.1,0.0,1.0,374.0,876.0,0.0,1,1750.0,0
1316,1316,-0.8306056639839539,-0.8,0.0,1.0,338.0,630.0,0.0,1,2032.0,0
1317,1317,-0.006569454074972336,-0.0,1.0,0.0,299.0,864.0,0.0,0,1837.0,1
1318,1318,-0.40300159238621497,-0.4,0.0,1.0,439.0,839.0,1.0,0,-1158.0,1
1319,1319,-0.39602841388839305,-0.4,0.0,1.0,448.0,515.0,0.0,1,2037.0,0
1320,1320,-0.6788365509901311,-0.7,0.0,1.0,375.0,505.0,0.0,1,2120.0,0
1321,1321,-0.3027104038144274,-0.3,1.0,0.0,445.0,825.0,0.0,0,1730.0,1
1322,1322,-0.4584956047658345,-0.5,1.0,0.0,434.0,872.0,0.0,0,1694.0,1
1323,1323,-0.30166997388002914,-0.3,0.0,1.0,285.0,528.0,1.0,0,-433.0,1
1324,1324,-0.21762988628700586,-0.2,0.0,1.0,313.0,900.0,0.0,1,1787.0,0
1325,1325,0.12280306216928027,0.1,1.0,1.0,262.0,724.0,0.0,0,2014.0,0
1326,1326,0.8949860792740728,0.9,0.0,0.0,369.0,919.0,1.0,0,-1108.0,0
1327,1327,-0.5372915379676277,-0.5,1.0,0.0,489.0,701.0,0.0,0,1810.0,1
1328,1328,-0.6220776156677825,-0.6,1.0,0.0,323.0,586.0,0.0,0,2091.0,1
1329,1329,0.7008444282359344,0.7,1.0,1.0,263.0,816.0,0.0,0,1921.0,0
1330,1330,-0.6380242137140268,-0.6,1.0,0.0,494.0,756.0,1.0,1,-1190.0,0
1331,1331,-0.26389025713506586,-0.3,1.0,0.0,418.0,662.0,0.0,0,1920.0,1
1332,1332,-0.6836356936506719,-0.7,0.0,1.0,306.0,768.0,0.0,1,1926.0,0
1333,1333,-0.005575222974433025,-0.0,1.0,0.0,419.0,899.0,0.0,0,1682.0,1
1334,1334,-0.34369933615064696,-0.3,0.0,1.0,367.0,751.0,0.0,1,1882.0,0
1335,1335,-0.07385367102537688,-0.1,1.0,0.0,279.0,565.0,0.0,0,2156.0,1
1336,1336,0.7481962294460877,0.7,0.0,0.0,469.0,593.0,0.0,1,1938.0,1
1337,1337,-0.21819653547833529,-0.2,0.0,1.0,440.0,543.0,0.0,1,2017.0,0
1338,1338,0.037566258192516244,0.0,1.0,1.0,409.0,550.0,0.0,0,2041.0,0
1339,1339,-0.7694519358328527,-0.8,1.0,0.0,403.0,594.0,0.0,0,2003.0,1
1340,1340,0.24120786888839174,0.2,1.0,1.0,278.0,810.0,0.0,0,1912.0,0
1341,1341,-0.630743663079646,-0.6,0.0,1.0,419.0,868.0,0.0,1,1713.0,0
1342,1342,-0.4905247020549265,-0.5,1.0,0.0,313.0,531.0,0.0,0,2156.0,1
1343,1343,-0.6208386752645614,-0.6,1.0,0.0,282.0,775.0,0.0,0,1943.0,1
1344,1344,-0.4198587385239925,-0.4,0.0,1.0,438.0,759.0,0.0,1,1803.0,0
1345,1345,0.17208848259843268,0.2,1.0,1.0,345.0,639.0,0.0,0,2016.0,0
1346,1346,0.073864791303212,0.1,0.0,0.0,252.0,723.0,0.0,1,2025.0,1
1347,1347,0.12651067242788494,0.1,1.0,1.0,385.0,938.0,0.0,0,1677.0,0
1348,1348,-0.38983307682656887,-0.4,0.0,1.0,258.0,616.0,0.0,1,2126.0,0
1349,1349,0.30046592220541257,0.3,0.0,0.0,330.0,839.0,0.0,1,1831.0,1
1350,1350,0.8743687123104406,0.9,1.0,1.0,487.0,916.0,0.0,0,1597.0,0
1351,1351,0.1254191564610333,0.1,0.0,0.0,348.0,849.0,0.0,1,1803.0,1
1352,1352,0.4749244229313795,0.5,1.0,1.0,394.0,507.0,0.0,0,2099.0,0
1353,1353,0.07698912405667668,0.1,1.0,1.0,432.0,743.0,0.0,0,1825.0,0
1354,1354,-0.11972297725054282,-0.1,0.0,1.0,301.0,578.0,0.0,1,2121.0,0
1355,1355,0.37062945449048945,0.4,1.0,1.0,315.0,930.0,0.0,0,1755.0,0
1356,1356,-0.7623081625082793,-0.8,0.0,1.0,369.0,789.0,0.0,1,1842.0,0
1357,1357,-0.3636780345509969,-0.4,0.0,1.0,440.0,910.0,0.0,1,1650.0,0
1358,1358,-0.0955576137788029,-0.1,0.0,1.0,387.0,932.0,0.0,1,1681.0,0
1359,1359,0.8662266386141327,0.9,1.0,1.0,359.0,862.0,0.0,0,1779.0,0
1360,1360,0.3038155920323732,0.3,0.0,0.0,409.0,948.0,0.0,1,1643.0,1
1361,1361,-0.7628451835073926,-0.8,0.0,1.0,330.0,784.0,0.0,1,1886.0,0
1362,1362,0.6921299403359714,0.7,1.0,1.0,443.0,542.0,0.0,0,2015.0,0
1363,1363,0.6665006443997451,0.7,1.0,1.0,352.0,751.0,0.0,0,1897.0,0
1364,1364,0.0994487162054829,0.1,0.0,0.0,449.0,821.0,0.0,1,1730.0,1
1365,1365,-0.2672390538815461,-0.3,1.0,0.0,336.0,752.0,0.0,0,1912.0,1
1366,1366,0.23644858752515552,0.2,0.0,0.0,305.0,510.0,0.0,1,2185.0,1
1367,1367,0.6643675385364621,0.7,1.0,1.0,386.0,603.0,0.0,0,2011.0,0
1368,1368,0.6657725376526572,0.7,0.0,0.0,363.0,884.0,0.0,1,1753.0,1
1369,1369,-0.4677421788846454,-0.5,0.0,1.0,334.0,574.0,0.0,1,2092.0,0
1370,1370,0.8796001684754983,0.9,1.0,1.0,275.0,566.0,0.0,0,2159.0,0
1371,1371,-0.23279793057721998,-0.2,1.0,0.0,409.0,961.0,0.0,0,1630.0,1
1372,1372,-0.039245152361063296,-0.0,0.0,1.0,257.0,603.0,0.0,1,2140.0,0
1373,1373,0.17441175699430367,0.2,0.0,0.0,444.0,983.0,0.0,1,1573.0,1
1374,1374,0.49911753889273835,0.5,1.0,1.0,352.0,599.0,0.0,0,2049.0,0
1375,1375,0.13593044234976437,0.1,1.0,1.0,318.0,922.0,0.0,0,1760.0,0
1376,1376,0.20954763659678133,0.2,1.0,1.0,277.0,576.0,0.0,0,2147.0,0
1377,1377,0.8452738376600945,0.8,0.0,0.0,439.0,592.0,0.0,1,1969.0,1
1378,1378,0.8558833289594793,0.9,0.0,0.0,449.0,707.0,0.0,1,1844.0,1
1379,1379,-0.539262929949587,-0.5,0.0,1.0,269.0,867.0,0.0,1,1864.0,0
1380,1380,-0.4537772402373408,-0.5,0.0,1.0,273.0,712.0,0.0,1,2015.0,0
1381,1381,0.47430013659474735,0.5,1.0,1.0,269.0,519.0,0.0,0,2212.0,0
1382,1382,0.7402478286334947,0.7,1.0,1.0,298.0,825.0,0.0,0,1877.0,0
1383,1383,0.6962138422160121,0.7,0.0,0.0,459.0,847.0,0.0,1,1694.0,1
1384,1384,-0.08204453877332807,-0.1,1.0,0.0,387.0,875.0,0.0,0,1738.0,1
1385,1385,0.7973737305987437,0.8,0.0,0.0,431.0,880.0,0.0,1,1689.0,1
1386,1386,-0.1686808205880762,-0.2,1.0,0.0,377.0,841.0,0.0,0,1782.0,1
1387,1387,-0.03988772874074742,-0.0,1.0,0.0,286.0,641.0,0.0,0,2073.0,1
1388,1388,-0.6936876667473199,-0.7,0.0,1.0,269.0,614.0,0.0,1,2117.0,0
1389,1389,-0.37604364903822185,-0.4,1.0,0.0,319.0,700.0,0.0,0,1981.0,1
1390,1390,-0.23915426307333587,-0.2,0.0,1.0,474.0,811.0,0.0,1,1715.0,0
1391,1391,0.29131451064395375,0.3,0.0,0.0,256.0,571.0,0.0,1,2173.0,1
1392,1392,-0.16040410510609115,-0.2,1.0,0.0,344.0,754.0,0.0,0,1902.0,1
1393,1393,-0.8097593693318714,-0.8,1.0,0.0,314.0,861.0,0.0,0,1825.0,1
1394,1394,-0.8316791480162895,-0.8,0.0,1.0,358.0,688.0,0.0,1,1954.0,0
1395,1395,-0.3797972632105113,-0.4,0.0,1.0,402.0,604.0,0.0,1,1994.0,0
1396,1396,0.16902009247533634,0.2,0.0,0.0,328.0,817.0,0.0,1,1855.0,1
1397,1397,0.08600942574825998,0.1,0.0,0.0,488.0,780.0,0.0,1,1732.0,1
1398,1398,0.7894352516254651,0.8,1.0,1.0,303.0,935.0,0.0,0,1762.0,0
1399,1399,0.31502045792752875,0.3,1.0,1.0,483.0,583.0,0.0,0,1934.0,0
1400,1400,0.14387126020138796,0.1,0.0,0.0,282.0,611.0,0.0,1,2107.0,1
1401,1401,0.11624877408437129,0.1,1.0,1.0,363.0,662.0,0.0,0,1975.0,0
1402,1402,0.5924517135886719,0.6,1.0,1.0,410.0,623.0,0.0,0,1967.0,0
1403,1403,0.24772334707973565,0.2,0.0,0.0,421.0,580.0,0.0,1,1999.0,1
1404,1404,-0.18093494863187898,-0.2,0.0,1.0,490.0,516.0,0.0,1,1994.0,0
1405,1405,-0.19031278200085922,-0.2,1.0,0.0,288.0,901.0,0.0,0,1811.0,1
1406,1406,-0.7879751363311813,-0.8,0.0,1.0,480.0,605.0,0.0,1,1915.0,0
1407,1407,-0.3548772077832625,-0.4,1.0,0.0,491.0,613.0,0.0,0,1896.0,1
1408,1408,0.8230829951089637,0.8,0.0,0.0,325.0,853.0,0.0,1,1822.0,1
1409,1409,0.46969177984689925,0.5,0.0,0.0,370.0,581.0,0.0,1,2049.0,1
1410,1410,0.44781867915416484,0.4,0.0,0.0,454.0,559.0,0.0,1,1987.0,1
1411,1411,0.8003705994953582,0.8,1.0,1.0,387.0,952.0,0.0,0,1661.0,0
1412,1412,-0.4519878510989927,-0.5,1.0,0.0,468.0,959.0,0.0,0,1573.0,1
1413,1413,-0.24439206402489289,-0.2,0.0,1.0,294.0,950.0,0.0,1,1756.0,0
1414,1414,-0.11644524391829858,-0.1,0.0,1.0,400.0,767.0,0.0,1,1833.0,0
1415,1415,0.007711288061863719,0.0,0.0,0.0,425.0,589.0,0.0,1,1986.0,1
1416,1416,0.28393022559001835,0.3,0.0,0.0,356.0,896.0,0.0,1,1748.0,1
1417,1417,0.8160923249527873,0.8,1.0,1.0,376.0,683.0,0.0,0,1941.0,0
1418,1418,-0.12001126537298878,-0.1,0.0,1.0,291.0,940.0,0.0,1,1769.0,0
1419,1419,-0.6716881262397344,-0.7,1.0,0.0,354.0,542.0,0.0,0,2104.0,1
1420,1420,-0.4887506962876054,-0.5,0.0,1.0,473.0,713.0,0.0,1,1814.0,0
1421,1421,0.2805773218757116,0.3,1.0,1.0,476.0,983.0,0.0,0,1541.0,0
1422,1422,0.32834549771946053,0.3,1.0,1.0,425.0,664.0,0.0,0,1911.0,0
1423,1423,0.33205100767110884,0.3,0.0,0.0,315.0,524.0,0.0,1,2161.0,1
1424,1424,0.568959854397817,0.6,1.0,1.0,440.0,659.0,0.0,0,1901.0,0
1425,1425,0.8850595299302485,0.9,0.0,0.0,496.0,855.0,0.0,1,1649.0,1
1426,1426,0.4600302808901423,0.5,1.0,1.0,339.0,687.0,0.0,0,1974.0,0
1427,1427,-0.2510822516400988,-0.3,0.0,1.0,461.0,964.0,0.0,1,1575.0,0
1428,1428,0.32962320188807726,0.3,0.0,0.0,267.0,902.0,0.0,1,-1149.0,1
1429,1429,-0.8037771742645338,-0.8,0.0,1.0,418.0,835.0,0.0,1,1747.0,0
1430,1430,0.7341716602446612,0.7,0.0,0.0,355.0,973.0,0.0,1,1672.0,1
1431,1431,-0.06805146478404966,-0.1,0.0,1.0,468.0,826.0,0.0,1,1706.0,0
1432,1432,-0.11361891803383228,-0.1,1.0,0.0,337.0,609.0,0.0,0,2054.0,1
1433,1433,0.5673169166888866,0.6,0.0,0.0,363.0,519.0,0.0,1,2118.0,1
1434,1434,-0.882622662217488,-0.9,1.0,0.0,347.0,886.0,0.0,0,1767.0,1
1435,1435,-0.03888844084842713,-0.0,1.0,0.0,468.0,770.0,0.0,0,1762.0,1
1436,1436,-0.16557325529382905,-0.2,1.0,0.0,450.0,887.0,0.0,0,1663.0,1
1437,1437,0.6909529803639048,0.7,1.0,1.0,490.0,916.0,0.0,0,1594.0,0
1438,1438,-0.8516313213210812,-0.9,0.0,1.0,345.0,789.0,0.0,1,1866.0,0
1439,1439,0.568984155069881,0.6,1.0,1.0,453.0,582.0,0.0,0,1965.0,0
1440,1440,-0.2830683515708068,-0.3,0.0,1.0,329.0,720.0,0.0,1,1951.0,0
1441,1441,0.8866722856859007,0.9,1.0,1.0,271.0,721.0,0.0,0,2008.0,0
1442,1442,0.7819920527407772,0.8,0.0,0.0,462.0,712.0,0.0,1,1826.0,1
1443,1443,-0.3126570528349334,-0.3,0.0,1.0,431.0,658.0,0.0,1,1911.0,0
1444,1444,-0.10336512171204437,-0.1,0.0,1.0,360.0,598.0,0.0,1,2042.0,0
1445,1445,-0.031958041068520515,-0.0,1.0,0.0,424.0,915.0,0.0,0,1661.0,1
1446,1446,0.13845486167894305,0.1,0.0,0.0,292.0,819.0,0.0,1,1889.0,1
1447,1447,-0.6745463155461646,-0.7,0.0,1.0,424.0,587.0,0.0,1,1989.0,0
1448,1448,-0.3882802241532629,-0.4,1.0,0.0,402.0,647.0,0.0,0,1951.0,1
1449,1449,0.4387607477690535,0.4,0.0,0.0,408.0,763.0,0.0,1,1829.0,1
1450,1450,-0.41113498318458774,-0.4,1.0,0.0,273.0,830.0,0.0,0,1897.0,1
1451,1451,-0.25322463016394803,-0.3,0.0,1.0,372.0,887.0,0.0,1,1741.0,0
1452,1452,0.05709521069028256,0.1,1.0,1.0,290.0,938.0,0.0,0,1772.0,0
1453,1453,0.29124559066967926,0.3,0.0,0.0,297.0,899.0,0.0,1,1804.0,1
1454,1454,0.648594788520149,0.6,0.0,0.0,277.0,819.0,0.0,1,1904.0,1
1455,1455,-0.5764901278318039,-0.6,0.0,1.0,328.0,558.0,0.0,1,2114.0,0
1456,1456,-0.7254319184893083,-0.7,0.0,1.0,403.0,690.0,0.0,1,1907.0,0
1457,1457,-0.5590285190305637,-0.6,0.0,1.0,451.0,983.0,0.0,1,1566.0,0
1458,1458,-0.25958241599108456,-0.3,0.0,1.0,409.0,820.0,0.0,1,1771.0,0
1459,1459,0.7469815650268327,0.7,1.0,1.0,345.0,985.0,0.0,0,1670.0,0
1460,1460,-0.7957321939931468,-0.8,0.0,1.0,485.0,705.0,0.0,1,1810.0,0
1461,1461,-0.21820372209178063,-0.2,0.0,1.0,395.0,591.0,0.0,1,2014.0,0
1462,1462,0.3751820867176886,0.4,1.0,1.0,420.0,606.0,0.0,0,1974.0,0
1463,1463,0.18563327812311547,0.2,1.0,1.0,333.0,806.0,0.0,0,1861.0,0
1464,1464,-0.07649244030732572,-0.1,0.0,1.0,278.0,695.0,0.0,1,2027.0,0
1465,1465,0.7980856507783113,0.8,0.0,0.0,356.0,996.0,0.0,1,1648.0,1
1466,1466,-0.7728375872540283,-0.8,1.0,0.0,487.0,764.0,0.0,0,1749.0,1
1467,1467,0.11569067484799522,0.1,1.0,1.0,348.0,793.0,0.0,0,1859.0,0
1468,1468,-0.5607555781566704,-0.6,0.0,1.0,438.0,785.0,1.0,0,-1163.0,1
1469,1469,0.38575916941699806,0.4,1.0,1.0,288.0,759.0,0.0,0,1953.0,0
1470,1470,0.07884624948190044,0.1,1.0,1.0,411.0,707.0,0.0,0,1882.0,0
