,trial,coherence,coherence_bin,green_side,correct_side,target_onset,checker_onset,decision,green_decision,decision_time,correct_decision
0,0,-0.1991844823217681,-0.2,0.0,1.0,286.0,855.0,1.0,0,1309.0,1
1,1,-0.3829176678586488,-0.4,1.0,0.0,426.0,701.0,0.0,0,63.0,1
2,2,-0.39063603258344837,-0.4,1.0,0.0,457.0,879.0,0.0,0,214.0,1
3,3,-0.44240484591561974,-0.4,1.0,0.0,474.0,704.0,0.0,0,172.0,1
4,4,0.7414008381339948,0.7,1.0,1.0,354.0,838.0,1.0,1,218.0,1
5,5,0.6197918863349504,0.6,1.0,1.0,461.0,562.0,1.0,1,177.0,1
6,6,0.27225811005377165,0.3,1.0,1.0,415.0,501.0,1.0,1,384.0,1
7,7,-0.21591954777138633,-0.2,0.0,1.0,392.0,874.0,1.0,0,304.0,1
8,8,0.23718640588698692,0.2,1.0,1.0,361.0,573.0,1.0,1,476.0,1
9,9,-0.8155042908342627,-0.8,1.0,0.0,464.0,866.0,0.0,0,180.0,1
10,10,0.8953162664834594,0.9,0.0,0.0,487.0,761.0,0.0,1,32.0,1
11,11,-0.2953730764393626,-0.3,1.0,0.0,460.0,948.0,0.0,0,382.0,1
12,12,0.680457890207551,0.7,1.0,1.0,416.0,528.0,1.0,1,156.0,1
13,13,-0.8495399446853601,-0.8,0.0,1.0,377.0,992.0,1.0,0,181.0,1
14,14,0.793258244886789,0.8,0.0,0.0,470.0,924.0,0.0,1,66.0,1
15,15,-0.5504098742728076,-0.6,0.0,1.0,441.0,584.0,1.0,0,165.0,1
16,16,0.814769592559304,0.8,1.0,1.0,395.0,763.0,1.0,1,112.0,1
17,17,0.14094004482278677,0.1,0.0,0.0,389.0,757.0,0.0,1,414.0,1
18,18,0.4086425559032595,0.4,0.0,0.0,398.0,710.0,0.0,1,182.0,1
19,19,-0.727414920980263,-0.7,1.0,0.0,365.0,723.0,0.0,0,282.0,1
20,20,-0.22471349219495007,-0.2,0.0,1.0,334.0,902.0,1.0,0,344.0,1
21,21,0.6758494342584972,0.7,1.0,1.0,375.0,713.0,1.0,1,142.0,1
22,22,0.8277684328693707,0.8,0.0,0.0,329.0,871.0,0.0,1,200.0,1
23,23,-0.22489580351403637,-0.2,0.0,1.0,497.0,685.0,0.0,1,-342.0,0
24,24,-0.3283185386154138,-0.3,1.0,0.0,473.0,717.0,0.0,0,220.0,1
25,25,-0.16438075511877703,-0.2,0.0,1.0,393.0,836.0,1.0,0,171.0,1
26,26,-0.5756969926797253,-0.6,1.0,0.0,330.0,616.0,0.0,0,94.0,1
27,27,0.5546248052701684,0.6,1.0,1.0,296.0,904.0,1.0,1,380.0,1
28,28,-0.6749112800535132,-0.7,1.0,0.0,323.0,936.0,0.0,0,101.0,1
29,29,0.30912278388408587,0.3,0.0,0.0,269.0,573.0,0.0,1,178.0,1
30,30,-0.26383848162948653,-0.3,1.0,0.0,493.0,605.0,0.0,0,522.0,1
31,31,-0.278912109818925,-0.3,0.0,1.0,412.0,987.0,1.0,0,141.0,1
32,32,0.7294733757805666,0.7,0.0,0.0,271.0,750.0,0.0,1,149.0,1
33,33,-0.6797111194830829,-0.7,0.0,1.0,343.0,630.0,1.0,0,237.0,1
34,34,-0.293431037292723,-0.3,0.0,1.0,459.0,514.0,1.0,0,397.0,1
35,35,-0.7154048003998026,-0.7,1.0,0.0,442.0,839.0,0.0,0,209.0,1
36,36,-0.22224849808419067,-0.2,1.0,0.0,390.0,939.0,0.0,0,61.0,1
37,37,0.02047825743606968,0.0,1.0,1.0,440.0,858.0,1.0,1,1702.0,1
38,38,-0.41555911975143717,-0.4,1.0,0.0,286.0,898.0,0.0,0,286.0,1
39,39,0.45170529626172884,0.5,1.0,1.0,443.0,528.0,1.0,1,279.0,1
40,40,-0.6006786270905262,-0.6,0.0,1.0,412.0,692.0,1.0,0,216.0,1
41,41,0.17942028470093307,0.2,1.0,1.0,411.0,934.0,1.0,1,75.0,1
42,42,-0.29966914492729657,-0.3,1.0,0.0,461.0,828.0,0.0,0,111.0,1
43,43,-0.4048306898071063,-0.4,0.0,1.0,499.0,825.0,1.0,0,306.0,1
44,44,-0.23481607472045396,-0.2,1.0,0.0,297.0,664.0,0.0,0,299.0,1
45,45,-0.7258740839182922,-0.7,0.0,1.0,336.0,501.0,1.0,0,203.0,1
46,46,0.29789064169378754,0.3,1.0,1.0,263.0,794.0,1.0,1,353.0,1
47,47,0.180048652383613,0.2,1.0,1.0,340.0,749.0,1.0,1,941.0,1
48,48,-0.5905359147157014,-0.6,1.0,0.0,339.0,673.0,1.0,1,-22.0,0
49,49,-0.41116168283871296,-0.4,0.0,1.0,373.0,888.0,1.0,0,139.0,1
50,50,0.8014779139210114,0.8,0.0,0.0,369.0,827.0,0.0,1,174.0,1
51,51,0.7527149719777247,0.8,1.0,1.0,489.0,545.0,1.0,1,196.0,1
52,52,0.004764010579183409,0.0,1.0,1.0,309.0,556.0,1.0,1,2135.0,1
53,53,-0.34364289897267775,-0.3,0.0,1.0,351.0,881.0,1.0,0,258.0,1
54,54,0.01578428968489254,0.0,0.0,0.0,266.0,843.0,1.0,0,1891.0,0
55,55,0.16643633683266434,0.2,1.0,1.0,464.0,972.0,1.0,1,164.0,1
56,56,0.6077980001338384,0.6,1.0,1.0,267.0,542.0,1.0,1,261.0,1
57,57,-0.30292262252842095,-0.3,1.0,0.0,415.0,979.0,0.0,0,226.0,1
58,58,0.5925676555615434,0.6,0.0,0.0,316.0,615.0,0.0,1,319.0,1
59,59,-0.23147667011605466,-0.2,0.0,1.0,472.0,812.0,1.0,0,986.0,1
60,60,-0.047339778525647525,-0.0,1.0,0.0,285.0,736.0,0.0,0,449.0,1
61,61,0.8348811678595932,0.8,1.0,1.0,428.0,661.0,1.0,1,91.0,1
62,62,0.26490068372407605,0.3,1.0,1.0,464.0,776.0,1.0,1,190.0,1
63,63,-0.5259027166030198,-0.5,1.0,0.0,392.0,695.0,0.0,0,203.0,1
64,64,0.22211178341887605,0.2,0.0,0.0,297.0,898.0,0.0,1,-255.0,1
65,65,-0.20465620596948852,-0.2,1.0,0.0,496.0,548.0,0.0,0,386.0,1
66,66,0.0742352754402783,0.1,0.0,0.0,378.0,903.0,0.0,1,259.0,1
67,67,-0.2980594597675025,-0.3,0.0,1.0,354.0,918.0,1.0,0,318.0,1
68,68,-0.6243820674614404,-0.6,1.0,0.0,298.0,759.0,0.0,0,163.0,1
69,69,0.17693195306426024,0.2,0.0,0.0,442.0,778.0,0.0,1,660.0,1
70,70,-0.22142691364237432,-0.2,0.0,1.0,348.0,628.0,1.0,0,974.0,1
71,71,-0.23520903920238423,-0.2,1.0,0.0,348.0,858.0,0.0,0,194.0,1
72,72,0.23643077416721525,0.2,1.0,1.0,464.0,727.0,1.0,1,589.0,1
73,73,0.48274225556955164,0.5,1.0,1.0,429.0,536.0,1.0,1,225.0,1
74,74,0.7743497797209359,0.8,0.0,0.0,476.0,754.0,0.0,1,230.0,1
75,75,-0.00605107801852911,-0.0,1.0,0.0,456.0,530.0,0.0,0,944.0,1
76,76,-0.680404679493443,-0.7,1.0,0.0,263.0,898.0,0.0,0,179.0,1
77,77,-0.07915248945401443,-0.1,1.0,0.0,316.0,725.0,0.0,0,479.0,1
78,78,-0.8223535799536928,-0.8,0.0,1.0,397.0,525.0,1.0,0,528.0,1
79,79,-0.6165982647251341,-0.6,0.0,1.0,373.0,861.0,1.0,0,126.0,1
80,80,0.7215712942916127,0.7,1.0,1.0,472.0,823.0,1.0,1,-405.0,1
81,81,-0.8193932228534104,-0.8,1.0,0.0,349.0,632.0,0.0,0,29.0,1
82,82,0.6542759964083807,0.7,1.0,1.0,388.0,619.0,1.0,1,183.0,1
83,83,0.5140930060525565,0.5,0.0,0.0,495.0,844.0,0.0,1,281.0,1
84,84,0.3682756907495396,0.4,0.0,0.0,375.0,513.0,0.0,1,332.0,1
85,85,-0.3676352897993699,-0.4,1.0,0.0,361.0,642.0,0.0,0,327.0,1
86,86,0.3421994822556397,0.3,0.0,0.0,288.0,539.0,0.0,1,603.0,1
87,87,-0.7811770415433615,-0.8,1.0,0.0,260.0,805.0,0.0,0,275.0,1
88,88,0.8758703628904406,0.9,1.0,1.0,480.0,780.0,1.0,1,90.0,1
89,89,0.8804280809089305,0.9,1.0,1.0,448.0,916.0,1.0,1,276.0,1
90,90,0.15551835806481418,0.2,0.0,0.0,349.0,612.0,0.0,1,839.0,1
91,91,0.2737676787360205,0.3,0.0,0.0,375.0,953.0,0.0,1,302.0,1
92,92,-0.5347182046846293,-0.5,1.0,0.0,254.0,720.0,0.0,0,176.0,1
93,93,-0.1025858752224611,-0.1,1.0,0.0,349.0,984.0,0.0,0,837.0,1
94,94,0.8345971829240751,0.8,1.0,1.0,254.0,639.0,1.0,1,287.0,1
95,95,0.40817758095911094,0.4,0.0,0.0,347.0,652.0,0.0,1,51.0,1
96,96,-0.1916509819216543,-0.2,1.0,0.0,490.0,857.0,0.0,0,513.0,1
97,97,0.5899895878456997,0.6,1.0,1.0,489.0,606.0,1.0,1,155.0,1
98,98,0.1320422796003352,0.1,1.0,1.0,477.0,760.0,1.0,1,1093.0,1
99,99,-0.49403863662739295,-0.5,0.0,1.0,454.0,701.0,1.0,0,195.0,1
100,100,-0.3693743558521717,-0.4,0.0,1.0,382.0,610.0,1.0,0,318.0,1
101,101,0.16759652994191832,0.2,1.0,1.0,352.0,650.0,1.0,1,498.0,1
102,102,-0.2769213827899262,-0.3,0.0,1.0,444.0,850.0,1.0,0,606.0,1
103,103,0.4307886646063136,0.4,1.0,1.0,351.0,612.0,1.0,1,227.0,1
104,104,0.2102114925179609,0.2,0.0,0.0,255.0,669.0,0.0,1,106.0,1
105,105,0.08277989783984097,0.1,0.0,0.0,499.0,724.0,0.0,1,1107.0,1
106,106,-0.47135285472916527,-0.5,0.0,1.0,279.0,960.0,1.0,0,121.0,1
107,107,0.5055228371708623,0.5,0.0,0.0,314.0,562.0,0.0,1,204.0,1
108,108,0.7616751717729057,0.8,1.0,1.0,350.0,693.0,1.0,1,237.0,1
109,109,0.49935157972744404,0.5,0.0,0.0,322.0,761.0,0.0,1,17.0,1
110,110,0.5296041937763957,0.5,1.0,1.0,287.0,936.0,1.0,1,87.0,1
111,111,-0.6933879858008319,-0.7,1.0,0.0,261.0,915.0,0.0,0,164.0,1
112,112,0.4645225444492892,0.5,1.0,1.0,350.0,631.0,1.0,1,159.0,1
113,113,-0.8543627130753186,-0.9,1.0,0.0,344.0,966.0,0.0,0,100.0,1
114,114,0.06991953139713114,0.1,1.0,1.0,451.0,856.0,1.0,1,1643.0,1
115,115,-0.809991503187681,-0.8,1.0,0.0,365.0,834.0,0.0,0,91.0,1
116,116,-0.6394382852191747,-0.6,0.0,1.0,260.0,840.0,1.0,0,160.0,1
117,117,-0.3516074607738967,-0.4,1.0,0.0,457.0,518.0,0.0,0,325.0,1
118,118,-0.018047955091825996,-0.0,1.0,0.0,338.0,581.0,0.0,0,1221.0,1
119,119,-0.8281328604602685,-0.8,0.0,1.0,382.0,794.0,1.0,0,174.0,1
120,120,-0.04364804190932081,-0.0,1.0,0.0,365.0,881.0,0.0,0,1754.0,1
121,121,0.40424271996042804,0.4,1.0,1.0,490.0,752.0,1.0,1,178.0,1
122,122,0.06024710815583745,0.1,0.0,0.0,394.0,847.0,1.0,0,249.0,0
123,123,-0.3979265425945391,-0.4,0.0,1.0,252.0,819.0,1.0,0,259.0,1
124,124,-0.7480941881220994,-0.7,0.0,1.0,302.0,805.0,1.0,0,563.0,1
125,125,-0.04794180149175664,-0.0,0.0,1.0,332.0,642.0,1.0,0,356.0,1
126,126,-0.3729408740027663,-0.4,1.0,0.0,334.0,690.0,0.0,0,246.0,1
127,127,-0.7516282380475237,-0.8,1.0,0.0,301.0,853.0,0.0,0,226.0,1
128,128,0.6301882898816168,0.6,0.0,0.0,407.0,531.0,0.0,1,202.0,1
129,129,0.4689256968522938,0.5,0.0,0.0,430.0,872.0,0.0,1,258.0,1
130,130,-0.7929354121843705,-0.8,1.0,0.0,369.0,615.0,0.0,0,146.0,1
131,131,-0.7109321126735667,-0.7,0.0,1.0,361.0,809.0,1.0,0,130.0,1
132,132,-0.8333113877862844,-0.8,1.0,0.0,376.0,904.0,0.0,0,220.0,1
133,133,-0.769450277022767,-0.8,0.0,1.0,499.0,594.0,1.0,0,267.0,1
134,134,0.49567460622101855,0.5,0.0,0.0,257.0,878.0,0.0,1,165.0,1
135,135,-0.42050677181251256,-0.4,1.0,0.0,478.0,829.0,0.0,0,323.0,1
136,136,-0.0023837306858432994,-0.0,1.0,0.0,463.0,546.0,0.0,0,881.0,1
137,137,0.5160350533915073,0.5,1.0,1.0,259.0,997.0,1.0,1,114.0,1
138,138,0.5146546663025985,0.5,0.0,0.0,467.0,958.0,0.0,1,215.0,1
139,139,0.5457402733215732,0.5,0.0,0.0,312.0,515.0,0.0,1,233.0,1
140,140,0.1837995138129226,0.2,0.0,0.0,370.0,889.0,0.0,1,241.0,1
141,141,-0.30714522523090193,-0.3,1.0,0.0,255.0,574.0,0.0,0,1051.0,1
142,142,0.20770590151466994,0.2,0.0,0.0,477.0,605.0,0.0,1,128.0,1
143,143,-0.6148545516260309,-0.6,0.0,1.0,281.0,811.0,1.0,0,178.0,1
144,144,-0.09320985394232995,-0.1,1.0,0.0,326.0,604.0,0.0,0,1880.0,1
145,145,0.24648460425346375,0.2,0.0,0.0,481.0,874.0,0.0,1,555.0,1
146,146,0.8411548643830867,0.8,0.0,0.0,448.0,933.0,0.0,1,159.0,1
147,147,0.27536919573730134,0.3,0.0,0.0,346.0,806.0,0.0,1,238.0,1
148,148,0.5433008877519122,0.5,1.0,1.0,452.0,546.0,1.0,1,292.0,1
149,149,0.6338379754326716,0.6,0.0,0.0,303.0,565.0,0.0,1,192.0,1
150,150,-0.17621165929207983,-0.2,1.0,0.0,315.0,908.0,0.0,0,197.0,1
151,151,0.7342200269661988,0.7,0.0,0.0,417.0,913.0,0.0,1,50.0,1
152,152,-0.02318385504500342,-0.0,1.0,0.0,306.0,665.0,1.0,1,2029.0,0
153,153,0.4964334054025369,0.5,1.0,1.0,318.0,581.0,1.0,1,281.0,1
154,154,-0.5854667179453221,-0.6,0.0,1.0,447.0,884.0,1.0,0,299.0,1
155,155,-0.15300910291055647,-0.2,1.0,0.0,454.0,549.0,0.0,0,467.0,1
156,156,-0.07821702988229351,-0.1,1.0,0.0,437.0,833.0,0.0,0,670.0,1
157,157,-0.2742044829410062,-0.3,0.0,1.0,381.0,732.0,1.0,0,257.0,1
158,158,-0.2003501239930906,-0.2,1.0,0.0,341.0,934.0,0.0,0,365.0,1
159,159,0.4465856181037008,0.4,1.0,1.0,433.0,605.0,1.0,1,102.0,1
160,160,-0.5179866283262156,-0.5,1.0,0.0,256.0,857.0,0.0,0,217.0,1
161,161,0.7263736893222933,0.7,0.0,0.0,478.0,576.0,0.0,1,146.0,1
162,162,0.26417586827008976,0.3,1.0,1.0,330.0,963.0,1.0,1,677.0,1
163,163,-0.1091849397716641,-0.1,1.0,0.0,494.0,968.0,0.0,0,28.0,1
164,164,-0.7210514748240322,-0.7,0.0,1.0,408.0,910.0,1.0,0,122.0,1
165,165,0.8082966629623908,0.8,0.0,0.0,334.0,644.0,0.0,1,112.0,1
166,166,-0.7646001604802701,-0.8,1.0,0.0,267.0,993.0,0.0,0,210.0,1
167,167,-0.2448198461978044,-0.2,0.0,1.0,394.0,638.0,1.0,0,318.0,1
168,168,-0.4606809083190608,-0.5,1.0,0.0,409.0,664.0,0.0,0,187.0,1
169,169,0.351215712359756,0.4,0.0,0.0,425.0,947.0,0.0,1,208.0,1
170,170,-0.6283765830786245,-0.6,1.0,0.0,308.0,734.0,0.0,0,128.0,1
171,171,-0.05612522469471526,-0.1,0.0,1.0,354.0,608.0,1.0,0,518.0,1
172,172,-0.48046341728445013,-0.5,0.0,1.0,463.0,864.0,1.0,0,283.0,1
173,173,-0.8582719551999112,-0.9,0.0,1.0,429.0,874.0,1.0,0,177.0,1
174,174,-0.3604886067637886,-0.4,1.0,0.0,349.0,578.0,0.0,0,303.0,1
175,175,-0.5350212382378454,-0.5,0.0,1.0,270.0,700.0,1.0,0,300.0,1
176,176,0.3656194757423762,0.4,1.0,1.0,468.0,825.0,1.0,1,327.0,1
177,177,-0.5181400194797248,-0.5,0.0,1.0,414.0,946.0,1.0,0,170.0,1
178,178,-0.2728815589129264,-0.3,1.0,0.0,478.0,849.0,0.0,0,243.0,1
179,179,0.19804905622930258,0.2,0.0,0.0,411.0,792.0,0.0,1,517.0,1
180,180,0.0755740857120537,0.1,0.0,0.0,444.0,632.0,0.0,1,1254.0,1
181,181,-0.4625730123569311,-0.5,1.0,0.0,299.0,868.0,0.0,0,183.0,1
182,182,-0.8034752929936063,-0.8,1.0,0.0,319.0,967.0,1.0,1,-256.0,0
183,183,0.18161303146256913,0.2,1.0,1.0,368.0,575.0,1.0,1,337.0,1
184,184,-0.4298177675546943,-0.4,1.0,0.0,349.0,648.0,0.0,0,243.0,1
185,185,-0.21977032555271425,-0.2,0.0,1.0,345.0,912.0,1.0,0,103.0,1
186,186,-0.2910880341890897,-0.3,0.0,1.0,390.0,821.0,1.0,0,279.0,1
187,187,0.7560079234899725,0.8,1.0,1.0,417.0,946.0,1.0,1,217.0,1
188,188,0.44944105215563435,0.4,1.0,1.0,454.0,912.0,1.0,1,184.0,1
189,189,0.8258308188302007,0.8,1.0,1.0,387.0,765.0,1.0,1,128.0,1
190,190,-0.3486965746064292,-0.3,1.0,0.0,425.0,528.0,0.0,0,217.0,1
191,191,0.389659380702036,0.4,0.0,0.0,481.0,902.0,0.0,1,97.0,1
192,192,-0.6304261660624337,-0.6,0.0,1.0,260.0,917.0,1.0,0,163.0,1
193,193,0.14211919357576608,0.1,1.0,1.0,372.0,869.0,1.0,1,709.0,1
194,194,0.4156615706797936,0.4,0.0,0.0,300.0,739.0,0.0,1,321.0,1
195,195,0.8211427808324901,0.8,1.0,1.0,393.0,507.0,1.0,1,200.0,1
196,196,0.8278725630970222,0.8,1.0,1.0,414.0,634.0,1.0,1,192.0,1
197,197,-0.5710587274386143,-0.6,1.0,0.0,483.0,745.0,0.0,0,182.0,1
198,198,-0.6371167732008803,-0.6,0.0,1.0,262.0,806.0,1.0,0,182.0,1
199,199,-0.6909283272361714,-0.7,1.0,0.0,423.0,946.0,0.0,0,61.0,1
200,200,-0.49482476780592155,-0.5,1.0,0.0,479.0,926.0,0.0,0,165.0,1
201,201,-0.06808476497949012,-0.1,1.0,0.0,343.0,940.0,0.0,0,1717.0,1
202,202,-0.5017086747903636,-0.5,0.0,1.0,360.0,622.0,1.0,0,288.0,1
203,203,-0.1416794396966936,-0.1,1.0,0.0,487.0,970.0,0.0,0,383.0,1
204,204,-0.20461426711146313,-0.2,1.0,0.0,338.0,559.0,0.0,0,313.0,1
205,205,0.6541059610211516,0.7,1.0,1.0,393.0,853.0,1.0,1,134.0,1
206,206,0.3547192235276103,0.4,1.0,1.0,284.0,748.0,1.0,1,298.0,1
207,207,-0.1722631442016549,-0.2,0.0,1.0,326.0,895.0,1.0,0,389.0,1
208,208,-0.42548354182057746,-0.4,1.0,0.0,496.0,976.0,0.0,0,228.0,1
209,209,0.4037634771970805,0.4,1.0,1.0,362.0,826.0,1.0,1,152.0,1
210,210,0.27718857411836073,0.3,1.0,1.0,489.0,764.0,1.0,1,367.0,1
211,211,-0.3911883918280592,-0.4,0.0,1.0,491.0,544.0,1.0,0,445.0,1
212,212,-0.5186494389715843,-0.5,1.0,0.0,291.0,566.0,0.0,0,203.0,1
213,213,0.179050904766339,0.2,1.0,1.0,382.0,960.0,1.0,1,758.0,1
214,214,0.35258306126978856,0.4,1.0,1.0,370.0,585.0,1.0,1,345.0,1
215,215,-0.6684288779188016,-0.7,1.0,0.0,447.0,711.0,0.0,0,142.0,1
216,216,-0.8399664590985418,-0.8,0.0,1.0,337.0,508.0,1.0,0,405.0,1
217,217,-0.8529967464266334,-0.9,1.0,0.0,417.0,877.0,0.0,0,306.0,1
218,218,-0.38420449645272814,-0.4,1.0,0.0,354.0,719.0,0.0,0,207.0,1
219,219,0.12248282926656728,0.1,1.0,1.0,401.0,825.0,1.0,1,754.0,1
220,220,0.3743694413831039,0.4,0.0,0.0,282.0,997.0,0.0,1,171.0,1
221,221,0.1680882210243434,0.2,0.0,0.0,435.0,791.0,0.0,1,104.0,1
222,222,-0.5317603882221041,-0.5,1.0,0.0,303.0,749.0,0.0,0,308.0,1
223,223,-0.4613491122395439,-0.5,1.0,0.0,282.0,758.0,0.0,0,560.0,1
224,224,0.33330013309745576,0.3,1.0,1.0,403.0,549.0,1.0,1,438.0,1
225,225,0.011842540857344153,0.0,0.0,0.0,349.0,928.0,1.0,0,1723.0,0
226,226,0.8612553873175318,0.9,0.0,0.0,352.0,700.0,0.0,1,108.0,1
227,227,0.29537438267508176,0.3,0.0,0.0,433.0,646.0,0.0,1,201.0,1
228,228,-0.7694631356602106,-0.8,1.0,0.0,267.0,611.0,1.0,1,-118.0,0
229,229,0.06818837666539079,0.1,0.0,0.0,423.0,598.0,0.0,1,619.0,1
230,230,0.21689776331881883,0.2,0.0,0.0,475.0,851.0,0.0,1,224.0,1
231,231,0.7009082151301765,0.7,0.0,0.0,488.0,607.0,0.0,1,135.0,1
232,232,-0.261615523922315,-0.3,0.0,1.0,420.0,882.0,1.0,0,388.0,1
233,233,-0.5215159399517761,-0.5,1.0,0.0,373.0,738.0,0.0,0,249.0,1
234,234,0.12185521392657239,0.1,0.0,0.0,391.0,916.0,0.0,1,483.0,1
235,235,0.29121293423374717,0.3,0.0,0.0,468.0,919.0,0.0,1,313.0,1
236,236,0.8594621150111009,0.9,1.0,1.0,410.0,907.0,1.0,1,113.0,1
237,237,-0.25135382854324795,-0.3,0.0,1.0,374.0,729.0,1.0,0,187.0,1
238,238,0.1240536941440128,0.1,1.0,1.0,472.0,638.0,1.0,1,610.0,1
239,239,-0.1887457976598712,-0.2,0.0,1.0,436.0,663.0,1.0,0,241.0,1
240,240,0.6854664480185338,0.7,1.0,1.0,481.0,884.0,1.0,1,125.0,1
241,241,-0.24724135101616118,-0.2,0.0,1.0,436.0,796.0,1.0,0,448.0,1
242,242,0.5082474399035856,0.5,1.0,1.0,393.0,863.0,1.0,1,304.0,1
243,243,0.8113469636827669,0.8,0.0,0.0,383.0,626.0,0.0,1,121.0,1
244,244,-0.4894011053464365,-0.5,1.0,0.0,388.0,941.0,0.0,0,201.0,1
245,245,0.06264835282919079,0.1,0.0,0.0,271.0,697.0,0.0,1,1102.0,1
246,246,0.5564922489752463,0.6,0.0,0.0,388.0,514.0,0.0,1,188.0,1
247,247,-0.6590571474944361,-0.7,0.0,1.0,384.0,896.0,1.0,0,290.0,1
248,248,0.094211365867502,0.1,1.0,1.0,279.0,813.0,1.0,1,1908.0,1
249,249,0.8016062983403384,0.8,0.0,0.0,312.0,547.0,0.0,1,101.0,1
250,250,0.3015639855178406,0.3,0.0,0.0,370.0,878.0,0.0,1,202.0,1
251,251,-0.7350183442214523,-0.7,0.0,1.0,419.0,917.0,1.0,0,264.0,1
252,252,-0.7290786059859997,-0.7,0.0,1.0,321.0,682.0,1.0,0,117.0,1
253,253,-0.24471089750181152,-0.2,1.0,0.0,310.0,997.0,0.0,0,183.0,1
254,254,-0.3612520985730574,-0.4,0.0,1.0,360.0,619.0,1.0,0,431.0,1
255,255,0.158100291756906,0.2,1.0,1.0,467.0,644.0,1.0,1,289.0,1
256,256,-0.15390258716799732,-0.2,0.0,1.0,475.0,580.0,1.0,0,805.0,1
257,257,0.7964701829231392,0.8,1.0,1.0,475.0,671.0,1.0,1,144.0,1
258,258,0.41265458742328975,0.4,0.0,0.0,311.0,892.0,0.0,1,127.0,1
259,259,0.5785613658257175,0.6,1.0,1.0,302.0,979.0,1.0,1,229.0,1
260,260,-0.5332426425584096,-0.5,0.0,1.0,486.0,667.0,1.0,0,237.0,1
261,261,0.655873528954738,0.7,1.0,1.0,435.0,980.0,1.0,1,305.0,1
262,262,-0.22624653239312698,-0.2,0.0,1.0,449.0,639.0,1.0,0,552.0,1
263,263,-0.18740715455938284,-0.2,0.0,1.0,411.0,859.0,1.0,0,1640.0,1
264,264,0.6102248185946108,0.6,1.0,1.0,403.0,772.0,1.0,1,205.0,1
265,265,-0.8332483554259402,-0.8,0.0,1.0,453.0,944.0,1.0,0,153.0,1
266,266,-0.21892332246048563,-0.2,0.0,1.0,368.0,559.0,1.0,0,143.0,1
267,267,0.00023595741502258072,0.0,1.0,1.0,465.0,586.0,0.0,0,1949.0,0
268,268,-0.5625210785152752,-0.6,0.0,1.0,329.0,783.0,1.0,0,158.0,1
269,269,-0.6847272993489921,-0.7,1.0,0.0,371.0,654.0,0.0,0,215.0,1
270,270,0.7642834825144958,0.8,0.0,0.0,421.0,746.0,0.0,1,73.0,1
271,271,-0.5956064697744012,-0.6,0.0,1.0,258.0,632.0,1.0,0,120.0,1
272,272,0.42587969810556714,0.4,0.0,0.0,397.0,924.0,0.0,1,89.0,1
273,273,-0.4950663736663719,-0.5,0.0,1.0,283.0,556.0,1.0,0,191.0,1
274,274,0.851467062012757,0.9,0.0,0.0,349.0,964.0,0.0,1,117.0,1
275,275,-0.32928366757202954,-0.3,1.0,0.0,382.0,748.0,0.0,0,290.0,1
276,276,0.19113013177274663,0.2,1.0,1.0,392.0,518.0,1.0,1,680.0,1
277,277,-0.6255513276782136,-0.6,1.0,0.0,355.0,507.0,0.0,0,238.0,1
278,278,-0.04471053493988575,-0.0,1.0,0.0,431.0,902.0,1.0,1,-413.0,0
279,279,-0.6779032285396057,-0.7,0.0,1.0,441.0,649.0,1.0,0,220.0,1
280,280,0.3940581070718344,0.4,0.0,0.0,402.0,716.0,0.0,1,302.0,1
281,281,-0.056270737588269615,-0.1,0.0,1.0,263.0,933.0,1.0,0,244.0,1
282,282,-0.48079487963626855,-0.5,1.0,0.0,420.0,888.0,0.0,0,452.0,1
283,283,-0.8600168570098198,-0.9,0.0,1.0,418.0,513.0,1.0,0,259.0,1
284,284,-0.16058920053503967,-0.2,1.0,0.0,303.0,728.0,0.0,0,189.0,1
285,285,-0.4708484842901239,-0.5,1.0,0.0,435.0,523.0,0.0,0,362.0,1
286,286,-0.7427170489611191,-0.7,1.0,0.0,456.0,806.0,0.0,0,78.0,1
287,287,0.5737636647180627,0.6,0.0,0.0,295.0,533.0,0.0,1,102.0,1
288,288,0.45248989218536384,0.5,0.0,0.0,466.0,695.0,0.0,1,89.0,1
289,289,0.5742500427741409,0.6,1.0,1.0,380.0,929.0,1.0,1,91.0,1
290,290,-0.24828082537406193,-0.2,0.0,1.0,359.0,673.0,1.0,0,898.0,1
291,291,-0.4388836721364624,-0.4,0.0,1.0,306.0,744.0,1.0,0,290.0,1
292,292,-0.36600510551539867,-0.4,1.0,0.0,380.0,794.0,0.0,0,386.0,1
293,293,0.3062854020513469,0.3,1.0,1.0,446.0,903.0,1.0,1,271.0,1
294,294,-0.6790931380852137,-0.7,0.0,1.0,475.0,570.0,1.0,0,115.0,1
295,295,-0.39450761734738693,-0.4,0.0,1.0,400.0,916.0,1.0,0,174.0,1
296,296,-0.135900795041753,-0.1,1.0,0.0,454.0,670.0,0.0,0,296.0,1
297,297,0.10680725022794568,0.1,0.0,0.0,303.0,856.0,0.0,1,401.0,1
298,298,-0.8775047286007299,-0.9,0.0,1.0,497.0,815.0,1.0,0,108.0,1
299,299,-0.23222509739940833,-0.2,0.0,1.0,332.0,785.0,1.0,0,1113.0,1
300,300,-0.23524605214491534,-0.2,1.0,0.0,453.0,661.0,0.0,0,396.0,1
301,301,0.5080497187816347,0.5,0.0,0.0,315.0,690.0,0.0,1,95.0,1
302,302,-0.5957732791786098,-0.6,1.0,0.0,436.0,595.0,0.0,0,389.0,1
303,303,0.5967161887621447,0.6,1.0,1.0,271.0,518.0,1.0,1,151.0,1
304,304,-0.11464910886184698,-0.1,1.0,0.0,329.0,618.0,0.0,0,363.0,1
305,305,-0.05035387133993097,-0.1,0.0,1.0,386.0,731.0,1.0,0,533.0,1
306,306,0.7464861043748877,0.7,0.0,0.0,363.0,855.0,0.0,1,152.0,1
307,307,0.27022371758538977,0.3,0.0,0.0,267.0,747.0,0.0,1,266.0,1
308,308,0.6238650996940874,0.6,0.0,0.0,341.0,583.0,0.0,1,166.0,1
309,309,-0.5571773519985685,-0.6,0.0,1.0,435.0,998.0,1.0,0,207.0,1
310,310,-0.7185395147339285,-0.7,0.0,1.0,345.0,890.0,1.0,0,225.0,1
311,311,-0.5640287431095077,-0.6,1.0,0.0,268.0,632.0,0.0,0,220.0,1
312,312,-0.3620547093966102,-0.4,1.0,0.0,469.0,811.0,0.0,0,400.0,1
313,313,0.24851317132557382,0.2,0.0,0.0,341.0,990.0,0.0,1,219.0,1
314,314,-0.5161328835506762,-0.5,1.0,0.0,459.0,836.0,0.0,0,115.0,1
315,315,0.5187983551286072,0.5,1.0,1.0,403.0,853.0,1.0,1,74.0,1
316,316,0.08797246971731842,0.1,0.0,0.0,454.0,707.0,0.0,1,1839.0,1
317,317,0.6440901519416021,0.6,1.0,1.0,426.0,784.0,1.0,1,150.0,1
318,318,-0.09398500410420463,-0.1,0.0,1.0,422.0,538.0,1.0,0,1020.0,1
319,319,-0.3985984393533145,-0.4,1.0,0.0,421.0,527.0,0.0,0,242.0,1
320,320,0.12075007505361157,0.1,1.0,1.0,412.0,512.0,1.0,1,1966.0,1
321,321,0.8337001291415659,0.8,0.0,0.0,470.0,750.0,0.0,1,140.0,1
322,322,0.6805974881439038,0.7,0.0,0.0,338.0,773.0,0.0,1,219.0,1
323,323,-0.32139771892500935,-0.3,0.0,1.0,485.0,871.0,1.0,0,454.0,1
324,324,0.43722437499258315,0.4,0.0,0.0,483.0,842.0,0.0,1,325.0,1
325,325,-0.8611529537322106,-0.9,1.0,0.0,378.0,638.0,0.0,0,154.0,1
326,326,-0.707353994924722,-0.7,1.0,0.0,492.0,582.0,0.0,0,96.0,1
327,327,0.5174362124022153,0.5,0.0,0.0,357.0,664.0,0.0,1,179.0,1
328,328,-0.8591974452369104,-0.9,0.0,1.0,380.0,626.0,1.0,0,344.0,1
329,329,-0.40407903917515364,-0.4,0.0,1.0,360.0,789.0,1.0,0,261.0,1
330,330,-0.5041577268431268,-0.5,1.0,0.0,354.0,767.0,0.0,0,329.0,1
331,331,0.6779143262548263,0.7,1.0,1.0,354.0,716.0,1.0,1,340.0,1
332,332,-0.8763686707287556,-0.9,0.0,1.0,311.0,980.0,1.0,0,49.0,1
333,333,0.7210033629954463,0.7,1.0,1.0,462.0,799.0,1.0,1,209.0,1
334,334,0.47002101837431065,0.5,1.0,1.0,266.0,950.0,1.0,1,254.0,1
335,335,0.199486926225667,0.2,1.0,1.0,370.0,843.0,1.0,1,917.0,1
336,336,0.8499868175107371,0.8,1.0,1.0,393.0,791.0,1.0,1,196.0,1
337,337,0.4498583896809535,0.4,1.0,1.0,429.0,614.0,1.0,1,187.0,1
338,338,-0.06434308866357075,-0.1,0.0,1.0,292.0,611.0,1.0,0,1187.0,1
339,339,0.6864485892428586,0.7,0.0,0.0,486.0,566.0,0.0,1,178.0,1
340,340,-0.02196858732199447,-0.0,0.0,1.0,294.0,919.0,0.0,1,507.0,0
341,341,0.5420586423968555,0.5,1.0,1.0,277.0,592.0,1.0,1,391.0,1
342,342,-0.23782465261936547,-0.2,0.0,1.0,329.0,709.0,1.0,0,212.0,1
343,343,-0.6675623414752485,-0.7,0.0,1.0,432.0,724.0,1.0,0,94.0,1
344,344,0.2506452620049343,0.3,1.0,1.0,370.0,872.0,1.0,1,358.0,1
345,345,-0.24820001287739624,-0.2,1.0,0.0,482.0,751.0,0.0,0,417.0,1
346,346,0.6860404455184591,0.7,1.0,1.0,327.0,909.0,1.0,1,-396.0,1
347,347,-0.8533379685419311,-0.9,1.0,0.0,307.0,621.0,0.0,0,22.0,1
348,348,-0.46374551631316036,-0.5,1.0,0.0,297.0,721.0,0.0,0,302.0,1
349,349,-0.8769037324388191,-0.9,0.0,1.0,478.0,661.0,1.0,0,181.0,1
350,350,-0.7615878835113534,-0.8,1.0,0.0,318.0,777.0,0.0,0,265.0,1
351,351,-0.6126500602292724,-0.6,1.0,0.0,317.0,979.0,0.0,0,174.0,1
352,352,0.13684564574622649,0.1,1.0,1.0,426.0,789.0,1.0,1,1045.0,1
353,353,-0.6792734722034012,-0.7,1.0,0.0,423.0,997.0,0.0,0,120.0,1
354,354,0.7965925335246135,0.8,1.0,1.0,257.0,527.0,1.0,1,166.0,1
355,355,-0.5632021806897198,-0.6,0.0,1.0,349.0,966.0,1.0,0,65.0,1
356,356,-0.5073630373977871,-0.5,0.0,1.0,489.0,945.0,0.0,1,-174.0,0
357,357,-0.07058634204385583,-0.1,1.0,0.0,333.0,935.0,0.0,0,1142.0,1
358,358,-0.7674880562265376,-0.8,0.0,1.0,390.0,932.0,1.0,0,148.0,1
359,359,-0.24088799169327801,-0.2,1.0,0.0,449.0,629.0,0.0,0,362.0,1
360,360,0.5820218830838192,0.6,1.0,1.0,357.0,572.0,1.0,1,121.0,1
361,361,0.0693337198099021,0.1,1.0,1.0,414.0,900.0,0.0,0,-34.0,0
362,362,-0.8265610653810993,-0.8,1.0,0.0,271.0,701.0,0.0,0,338.0,1
363,363,0.5380447034161703,0.5,1.0,1.0,310.0,926.0,1.0,1,114.0,1
364,364,-0.3277293216383145,-0.3,0.0,1.0,354.0,768.0,1.0,0,178.0,1
365,365,-0.8327272052181774,-0.8,1.0,0.0,319.0,826.0,0.0,0,185.0,1
366,366,0.7802264241247138,0.8,0.0,0.0,410.0,705.0,0.0,1,155.0,1
367,367,0.16309307057381706,0.2,0.0,0.0,362.0,778.0,0.0,1,220.0,1
368,368,0.3295857436346007,0.3,1.0,1.0,341.0,993.0,1.0,1,386.0,1
369,369,-0.1811847831495873,-0.2,0.0,1.0,294.0,999.0,1.0,0,437.0,1
370,370,0.12937673923845316,0.1,1.0,1.0,283.0,734.0,1.0,1,733.0,1
371,371,0.2368830470253399,0.2,1.0,1.0,283.0,533.0,1.0,1,284.0,1
372,372,0.8367203319243767,0.8,1.0,1.0,341.0,796.0,1.0,1,163.0,1
373,373,-0.4815013394112467,-0.5,0.0,1.0,497.0,688.0,1.0,0,405.0,1
374,374,0.7748468933219838,0.8,1.0,1.0,378.0,577.0,1.0,1,185.0,1
375,375,0.6558564381779136,0.7,1.0,1.0,361.0,547.0,1.0,1,182.0,1
376,376,-0.42565249853161374,-0.4,0.0,1.0,271.0,948.0,1.0,0,121.0,1
377,377,-0.7402032585979887,-0.7,0.0,1.0,485.0,612.0,1.0,0,313.0,1
378,378,-0.7988716967437535,-0.8,0.0,1.0,316.0,765.0,1.0,0,99.0,1
379,379,0.3750828590241376,0.4,1.0,1.0,324.0,563.0,1.0,1,113.0,1
380,380,0.7818024389788226,0.8,1.0,1.0,314.0,630.0,1.0,1,76.0,1
381,381,0.5589924381479751,0.6,1.0,1.0,414.0,635.0,1.0,1,141.0,1
382,382,-0.11057462402632123,-0.1,1.0,0.0,361.0,781.0,0.0,0,648.0,1
383,383,0.4168200502185323,0.4,0.0,0.0,484.0,638.0,0.0,1,238.0,1
384,384,0.38638149526558097,0.4,0.0,0.0,456.0,786.0,0.0,1,88.0,1
385,385,-0.2493416542826914,-0.2,0.0,1.0,420.0,948.0,0.0,1,-68.0,0
386,386,0.7548518532453014,0.8,0.0,0.0,325.0,675.0,0.0,1,180.0,1
387,387,-0.3665911432977904,-0.4,1.0,0.0,264.0,694.0,0.0,0,472.0,1
388,388,-0.09208552275430082,-0.1,1.0,0.0,258.0,756.0,0.0,0,1986.0,1
389,389,-0.5344204585145444,-0.5,0.0,1.0,396.0,916.0,1.0,0,178.0,1
390,390,-0.24465088790075296,-0.2,1.0,0.0,369.0,605.0,0.0,0,396.0,1
391,391,0.16836176425657923,0.2,1.0,1.0,258.0,853.0,1.0,1,389.0,1
392,392,-0.13340769526545504,-0.1,0.0,1.0,385.0,938.0,1.0,0,897.0,1
393,393,0.6573906671472719,0.7,1.0,1.0,458.0,964.0,1.0,1,128.0,1
394,394,-0.01522414046319831,-0.0,1.0,0.0,311.0,941.0,0.0,0,1748.0,1
395,395,0.09310186836574474,0.1,1.0,1.0,449.0,683.0,1.0,1,648.0,1
396,396,0.1948643268846525,0.2,1.0,1.0,404.0,514.0,1.0,1,852.0,1
397,397,0.46136672719421756,0.5,0.0,0.0,390.0,560.0,0.0,1,230.0,1
398,398,0.6738211334439829,0.7,1.0,1.0,297.0,548.0,1.0,1,305.0,1
399,399,0.893822420384868,0.9,0.0,0.0,452.0,839.0,0.0,1,39.0,1
400,400,0.16664237274239324,0.2,0.0,0.0,431.0,855.0,0.0,1,374.0,1
401,401,-0.43922282096158405,-0.4,1.0,0.0,391.0,847.0,0.0,0,182.0,1
402,402,-0.5782709264451615,-0.6,0.0,1.0,384.0,523.0,1.0,0,253.0,1
403,403,-0.719628349881493,-0.7,0.0,1.0,401.0,853.0,1.0,0,116.0,1
404,404,-0.5322463752832179,-0.5,0.0,1.0,347.0,557.0,1.0,0,246.0,1
405,405,-0.353276081656239,-0.4,0.0,1.0,431.0,697.0,1.0,0,282.0,1
406,406,-0.6275987663203896,-0.6,0.0,1.0,490.0,688.0,1.0,0,432.0,1
407,407,0.6175925233904734,0.6,0.0,0.0,305.0,546.0,0.0,1,139.0,1
408,408,0.6870833373884918,0.7,1.0,1.0,439.0,732.0,1.0,1,409.0,1
409,409,0.7344692637840792,0.7,0.0,0.0,397.0,981.0,0.0,1,92.0,1
410,410,0.2668800801191381,0.3,1.0,1.0,363.0,869.0,1.0,1,238.0,1
411,411,-0.11689427089185456,-0.1,1.0,0.0,405.0,513.0,0.0,0,502.0,1
412,412,-0.5126239921528752,-0.5,0.0,1.0,472.0,969.0,1.0,0,409.0,1
413,413,-0.8844997623345021,-0.9,1.0,0.0,424.0,569.0,0.0,0,207.0,1
414,414,0.6340603565746031,0.6,0.0,0.0,251.0,547.0,0.0,1,122.0,1
415,415,-0.060243075632333554,-0.1,1.0,0.0,316.0,980.0,0.0,0,454.0,1
416,416,-0.5032346924260881,-0.5,0.0,1.0,255.0,988.0,1.0,0,87.0,1
417,417,0.7298127372312074,0.7,0.0,0.0,339.0,991.0,0.0,1,190.0,1
418,418,-0.6385988511699283,-0.6,0.0,1.0,389.0,678.0,1.0,0,203.0,1
419,419,0.30750738747303397,0.3,0.0,0.0,326.0,663.0,0.0,1,211.0,1
420,420,0.7507781071607372,0.8,1.0,1.0,396.0,815.0,1.0,1,149.0,1
421,421,0.3389267857128314,0.3,1.0,1.0,413.0,868.0,1.0,1,399.0,1
422,422,-0.21192528290645873,-0.2,1.0,0.0,458.0,792.0,0.0,0,300.0,1
423,423,0.3621750728965395,0.4,0.0,0.0,352.0,889.0,0.0,1,99.0,1
424,424,0.5396416626894543,0.5,0.0,0.0,421.0,672.0,0.0,1,177.0,1
425,425,-0.22618753133435088,-0.2,1.0,0.0,310.0,787.0,0.0,0,533.0,1
426,426,0.06996517157847693,0.1,1.0,1.0,317.0,721.0,1.0,1,502.0,1
427,427,0.3239262418941683,0.3,1.0,1.0,311.0,944.0,1.0,1,265.0,1
428,428,0.8259045920565836,0.8,1.0,1.0,323.0,988.0,1.0,1,129.0,1
429,429,-0.6683688469735138,-0.7,1.0,0.0,332.0,687.0,0.0,0,161.0,1
430,430,0.07418082650996483,0.1,1.0,1.0,335.0,697.0,1.0,1,1088.0,1
431,431,-0.3500418928626077,-0.4,0.0,1.0,429.0,865.0,1.0,0,336.0,1
432,432,-0.3304198971509179,-0.3,1.0,0.0,451.0,957.0,0.0,0,202.0,1
433,433,0.050172833449211196,0.1,0.0,0.0,331.0,610.0,0.0,1,909.0,1
434,434,0.7821249493179564,0.8,1.0,1.0,291.0,763.0,1.0,1,346.0,1
435,435,0.020063633147484827,0.0,1.0,1.0,339.0,845.0,1.0,1,1816.0,1
436,436,0.5414630555341439,0.5,1.0,1.0,441.0,727.0,1.0,1,192.0,1
437,437,0.6813677156966621,0.7,1.0,1.0,423.0,819.0,1.0,1,198.0,1
438,438,-0.6415695594567794,-0.6,0.0,1.0,257.0,930.0,1.0,0,253.0,1
439,439,0.6767581286015528,0.7,0.0,0.0,349.0,541.0,0.0,1,150.0,1
440,440,0.75466941541819,0.8,0.0,0.0,307.0,541.0,0.0,1,242.0,1
441,441,0.6074778580904417,0.6,1.0,1.0,339.0,765.0,1.0,1,156.0,1
442,442,-0.7434696639804833,-0.7,0.0,1.0,359.0,890.0,1.0,0,81.0,1
443,443,-0.7922697356629632,-0.8,0.0,1.0,295.0,713.0,1.0,0,192.0,1
444,444,0.13886665918617103,0.1,0.0,0.0,282.0,969.0,0.0,1,349.0,1
445,445,-0.47031897616263196,-0.5,1.0,0.0,451.0,578.0,0.0,0,211.0,1
446,446,0.23403456718090065,0.2,0.0,0.0,362.0,988.0,0.0,1,-250.0,1
447,447,0.0007585414602165885,0.0,0.0,0.0,287.0,883.0,0.0,1,1830.0,1
448,448,0.8588690840529348,0.9,0.0,0.0,325.0,962.0,0.0,1,203.0,1
449,449,-0.8925093574054548,-0.9,1.0,0.0,423.0,594.0,0.0,0,213.0,1
450,450,-0.7006910079774383,-0.7,0.0,1.0,432.0,868.0,1.0,0,120.0,1
451,451,0.3785059153885243,0.4,0.0,0.0,327.0,516.0,0.0,1,187.0,1
452,452,0.6733190804320309,0.7,1.0,1.0,499.0,598.0,1.0,1,483.0,1
453,453,0.8175887864804777,0.8,1.0,1.0,254.0,725.0,1.0,1,121.0,1
454,454,0.19746664894781818,0.2,1.0,1.0,251.0,628.0,1.0,1,491.0,1
455,455,0.7189640118595496,0.7,1.0,1.0,438.0,750.0,1.0,1,272.0,1
456,456,0.48315412157828697,0.5,0.0,0.0,271.0,934.0,0.0,1,215.0,1
457,457,-0.8649025621826624,-0.9,0.0,1.0,306.0,808.0,1.0,0,116.0,1
458,458,-0.861160021096884,-0.9,1.0,0.0,338.0,590.0,0.0,0,162.0,1
459,459,0.5005880471999408,0.5,1.0,1.0,399.0,858.0,1.0,1,473.0,1
460,460,0.11162020056552546,0.1,1.0,1.0,322.0,683.0,1.0,1,735.0,1
461,461,-0.37808393083229297,-0.4,0.0,1.0,473.0,814.0,1.0,0,583.0,1
462,462,-0.1575681964971406,-0.2,0.0,1.0,454.0,820.0,1.0,0,476.0,1
463,463,-0.12083682428038944,-0.1,0.0,1.0,450.0,671.0,1.0,0,449.0,1
464,464,0.04097826944586014,0.0,0.0,0.0,366.0,739.0,0.0,1,1895.0,1
465,465,0.4867264758917528,0.5,1.0,1.0,471.0,685.0,1.0,1,194.0,1
466,466,-0.6430007957933983,-0.6,0.0,1.0,465.0,719.0,1.0,0,36.0,1
467,467,0.5859676728180508,0.6,1.0,1.0,290.0,779.0,1.0,1,251.0,1
468,468,-0.33283575779495245,-0.3,0.0,1.0,384.0,832.0,1.0,0,214.0,1
469,469,-0.05875247352165125,-0.1,1.0,0.0,472.0,995.0,0.0,0,1173.0,1
470,470,-0.603320031931856,-0.6,0.0,1.0,332.0,684.0,1.0,0,364.0,1
471,471,-0.01461010823801534,-0.0,1.0,0.0,498.0,737.0,1.0,1,1765.0,0
472,472,-0.8402707556615577,-0.8,0.0,1.0,362.0,532.0,1.0,0,86.0,1
473,473,-0.753731857656721,-0.8,1.0,0.0,448.0,642.0,0.0,0,340.0,1
474,474,-0.11710530957931653,-0.1,1.0,0.0,355.0,559.0,0.0,0,1786.0,1
475,475,0.41968450047170014,0.4,1.0,1.0,403.0,930.0,1.0,1,297.0,1
476,476,0.4237573932644406,0.4,1.0,1.0,440.0,563.0,1.0,1,377.0,1
477,477,0.3147169723258073,0.3,1.0,1.0,313.0,541.0,1.0,1,396.0,1
478,478,-0.5098338346849153,-0.5,1.0,0.0,353.0,721.0,0.0,0,316.0,1
479,479,-0.0986527691576472,-0.1,1.0,0.0,452.0,806.0,0.0,0,622.0,1
480,480,0.5322425130418852,0.5,1.0,1.0,411.0,790.0,1.0,1,149.0,1
481,481,0.4605017043212759,0.5,1.0,1.0,446.0,803.0,1.0,1,141.0,1
482,482,0.01211597832856981,0.0,0.0,0.0,280.0,687.0,0.0,1,2033.0,1
483,483,-0.740511299102169,-0.7,0.0,1.0,337.0,536.0,1.0,0,137.0,1
484,484,0.7518361554558411,0.8,0.0,0.0,482.0,616.0,0.0,1,102.0,1
485,485,0.15579122628986586,0.2,0.0,0.0,258.0,961.0,0.0,1,601.0,1
486,486,0.524164190685758,0.5,0.0,0.0,385.0,541.0,0.0,1,184.0,1
487,487,-0.14467471094339535,-0.1,1.0,0.0,300.0,902.0,0.0,0,708.0,1
488,488,0.7381414425420222,0.7,0.0,0.0,411.0,888.0,0.0,1,141.0,1
489,489,-0.11524260327858027,-0.1,0.0,1.0,318.0,960.0,1.0,0,312.0,1
490,490,-0.3847866605873874,-0.4,1.0,0.0,438.0,978.0,0.0,0,234.0,1
491,491,-0.15881066381108777,-0.2,0.0,1.0,288.0,959.0,1.0,0,383.0,1
492,492,0.8707899355610801,0.9,1.0,1.0,294.0,904.0,1.0,1,32.0,1
493,493,0.4566052458188151,0.5,0.0,0.0,373.0,822.0,0.0,1,35.0,1
494,494,-0.7558489503402378,-0.8,0.0,1.0,408.0,992.0,1.0,0,130.0,1
495,495,-0.1950946799920128,-0.2,0.0,1.0,451.0,662.0,1.0,0,537.0,1
496,496,-0.8570740531381684,-0.9,1.0,0.0,308.0,591.0,0.0,0,81.0,1
497,497,0.8446185263449127,0.8,1.0,1.0,314.0,584.0,1.0,1,62.0,1
498,498,-0.6451174911559712,-0.6,0.0,1.0,344.0,684.0,1.0,0,172.0,1
499,499,-0.10292452316993916,-0.1,1.0,0.0,304.0,644.0,0.0,0,612.0,1
500,500,0.05647345470262444,0.1,1.0,1.0,292.0,949.0,1.0,1,609.0,1
501,501,-0.025759125431702667,-0.0,0.0,1.0,300.0,980.0,1.0,0,510.0,1
502,502,0.7237487862443034,0.7,1.0,1.0,481.0,695.0,1.0,1,114.0,1
503,503,0.8784372997343765,0.9,1.0,1.0,347.0,656.0,1.0,1,97.0,1
504,504,-0.12501128236219305,-0.1,0.0,1.0,394.0,804.0,1.0,0,1232.0,1
505,505,0.39790621616081545,0.4,0.0,0.0,276.0,954.0,0.0,1,180.0,1
506,506,0.6573087224616426,0.7,1.0,1.0,343.0,827.0,1.0,1,180.0,1
507,507,0.1048591182310944,0.1,1.0,1.0,258.0,872.0,1.0,1,860.0,1
508,508,-0.09425379683148372,-0.1,0.0,1.0,338.0,612.0,1.0,0,810.0,1
509,509,-0.5316438901482764,-0.5,0.0,1.0,301.0,837.0,1.0,0,212.0,1
510,510,-0.6558180046238146,-0.7,0.0,1.0,301.0,527.0,1.0,0,842.0,1
511,511,-0.519521161401596,-0.5,1.0,0.0,474.0,740.0,0.0,0,96.0,1
512,512,-0.8170006123257941,-0.8,0.0,1.0,288.0,799.0,1.0,0,193.0,1
513,513,-0.7344811998360439,-0.7,1.0,0.0,499.0,624.0,0.0,0,307.0,1
514,514,0.24719405140613337,0.2,1.0,1.0,349.0,892.0,1.0,1,779.0,1
515,515,-0.8493407723918164,-0.8,0.0,1.0,251.0,996.0,1.0,0,53.0,1
516,516,0.4484742492334769,0.4,1.0,1.0,281.0,679.0,1.0,1,280.0,1
517,517,-0.09981749615991997,-0.1,0.0,1.0,291.0,980.0,1.0,0,739.0,1
518,518,0.8594719375347165,0.9,0.0,0.0,476.0,594.0,0.0,1,180.0,1
519,519,0.10850564723652278,0.1,0.0,0.0,463.0,813.0,0.0,1,174.0,1
520,520,0.4644325791594731,0.5,1.0,1.0,406.0,998.0,1.0,1,86.0,1
521,521,0.10338904269723803,0.1,0.0,0.0,494.0,628.0,0.0,1,598.0,1
522,522,0.013893860599816454,0.0,0.0,0.0,480.0,968.0,0.0,1,692.0,1
523,523,-0.27941769986988363,-0.3,0.0,1.0,446.0,720.0,1.0,0,864.0,1
524,524,-0.003939502353535795,-0.0,0.0,1.0,492.0,567.0,1.0,0,1201.0,1
525,525,0.19186751061907603,0.2,0.0,0.0,299.0,867.0,0.0,1,-166.0,1
526,526,-0.6159845648276225,-0.6,0.0,1.0,361.0,674.0,1.0,0,505.0,1
527,527,-0.7434090464215262,-0.7,1.0,0.0,386.0,767.0,0.0,0,87.0,1
528,528,0.38448250513826177,0.4,1.0,1.0,360.0,803.0,1.0,1,207.0,1
529,529,-0.8484204923732415,-0.8,0.0,1.0,415.0,641.0,1.0,0,184.0,1
530,530,0.0339507427039365,0.0,0.0,0.0,463.0,602.0,1.0,0,1935.0,0
531,531,-0.4088902211001269,-0.4,1.0,0.0,264.0,618.0,0.0,0,348.0,1
532,532,0.5084773374190127,0.5,1.0,1.0,296.0,711.0,1.0,1,253.0,1
533,533,0.42086146952209613,0.4,1.0,1.0,380.0,585.0,1.0,1,265.0,1
534,534,0.2934587770697009,0.3,0.0,0.0,319.0,944.0,0.0,1,417.0,1
535,535,-0.06424560765437304,-0.1,1.0,0.0,436.0,902.0,0.0,0,252.0,1
536,536,-0.2575585972558151,-0.3,1.0,0.0,439.0,668.0,0.0,0,143.0,1
537,537,0.29853265395621376,0.3,1.0,1.0,495.0,908.0,1.0,1,237.0,1
538,538,-0.27404643401090456,-0.3,0.0,1.0,349.0,623.0,1.0,0,328.0,1
539,539,-0.05519691868746657,-0.1,1.0,0.0,445.0,711.0,0.0,0,1844.0,1
540,540,0.7616315874259131,0.8,0.0,0.0,475.0,950.0,0.0,1,65.0,1
541,541,-0.008096363364701986,-0.0,1.0,0.0,314.0,976.0,1.0,1,1710.0,0
542,542,-0.8388354044979477,-0.8,0.0,1.0,373.0,808.0,1.0,0,159.0,1
543,543,0.7291073089304673,0.7,0.0,0.0,279.0,503.0,0.0,1,158.0,1
544,544,0.315094396783394,0.3,1.0,1.0,411.0,906.0,1.0,1,333.0,1
545,545,0.016663641986415123,0.0,1.0,1.0,438.0,674.0,1.0,1,1888.0,1
546,546,0.085496567839205,0.1,1.0,1.0,347.0,898.0,1.0,1,525.0,1
547,547,-0.28135267310137135,-0.3,0.0,1.0,408.0,943.0,1.0,0,-491.0,1
548,548,0.627176137788701,0.6,1.0,1.0,351.0,542.0,1.0,1,107.0,1
549,549,0.8413251938379375,0.8,0.0,0.0,287.0,938.0,0.0,1,25.0,1
550,550,0.5370018479941104,0.5,1.0,1.0,398.0,958.0,1.0,1,154.0,1
551,551,-0.34943034138787477,-0.3,0.0,1.0,298.0,964.0,1.0,0,108.0,1
552,552,0.8016085684540072,0.8,0.0,0.0,478.0,558.0,0.0,1,214.0,1
553,553,-0.7870755720120879,-0.8,0.0,1.0,325.0,814.0,1.0,0,201.0,1
554,554,0.6240764560224569,0.6,0.0,0.0,288.0,836.0,0.0,1,116.0,1
555,555,0.3610094492898436,0.4,0.0,0.0,277.0,622.0,0.0,1,261.0,1
556,556,0.557355606858228,0.6,1.0,1.0,379.0,919.0,1.0,1,192.0,1
557,557,0.24364905115922786,0.2,1.0,1.0,398.0,525.0,1.0,1,507.0,1
558,558,-0.23927404088554693,-0.2,1.0,0.0,423.0,682.0,0.0,0,75.0,1
559,559,-0.6454589269142061,-0.6,0.0,1.0,273.0,729.0,1.0,0,198.0,1
560,560,-0.8667539736734783,-0.9,0.0,1.0,344.0,588.0,1.0,0,48.0,1
561,561,0.43994245226026274,0.4,0.0,0.0,343.0,937.0,0.0,1,240.0,1
562,562,0.6659192763102558,0.7,1.0,1.0,467.0,872.0,1.0,1,71.0,1
563,563,0.6408492596588856,0.6,0.0,0.0,305.0,765.0,0.0,1,220.0,1
564,564,0.6746219702708777,0.7,1.0,1.0,453.0,931.0,1.0,1,116.0,1
565,565,-0.7414474066419564,-0.7,1.0,0.0,318.0,574.0,0.0,0,298.0,1
566,566,-0.6997864441249917,-0.7,1.0,0.0,258.0,587.0,0.0,0,255.0,1
567,567,0.5621518556664701,0.6,1.0,1.0,317.0,604.0,1.0,1,209.0,1
568,568,-0.10774282222093212,-0.1,0.0,1.0,320.0,823.0,1.0,0,687.0,1
569,569,-0.5755761190662747,-0.6,0.0,1.0,286.0,926.0,1.0,0,118.0,1
570,570,0.7000625772834105,0.7,1.0,1.0,351.0,863.0,1.0,1,166.0,1
571,571,0.4588114376410205,0.5,0.0,0.0,257.0,843.0,0.0,1,220.0,1
572,572,0.47197418491018495,0.5,1.0,1.0,477.0,757.0,1.0,1,76.0,1
573,573,0.08578793102348792,0.1,0.0,0.0,353.0,899.0,0.0,1,288.0,1
574,574,0.06198941837527827,0.1,1.0,1.0,466.0,538.0,1.0,1,1316.0,1
575,575,0.10097707768596142,0.1,1.0,1.0,384.0,611.0,1.0,1,1225.0,1
576,576,-0.3988045792710956,-0.4,1.0,0.0,422.0,819.0,0.0,0,49.0,1
577,577,0.5295053542662175,0.5,1.0,1.0,379.0,897.0,1.0,1,134.0,1
578,578,-0.6706827077218922,-0.7,1.0,0.0,402.0,933.0,0.0,0,355.0,1
579,579,0.21327748291723736,0.2,1.0,1.0,426.0,517.0,1.0,1,457.0,1
580,580,-0.535166224501884,-0.5,0.0,1.0,374.0,931.0,1.0,0,415.0,1
581,581,-0.7335685694569088,-0.7,1.0,0.0,340.0,727.0,0.0,0,163.0,1
582,582,0.4116151327775207,0.4,1.0,1.0,478.0,928.0,1.0,1,174.0,1
583,583,-0.8305024925596722,-0.8,0.0,1.0,314.0,882.0,1.0,0,84.0,1
584,584,-0.4920399452331,-0.5,0.0,1.0,432.0,517.0,1.0,0,251.0,1
585,585,-0.23161185887061952,-0.2,0.0,1.0,384.0,976.0,1.0,0,230.0,1
586,586,0.046260316778672816,0.0,0.0,0.0,258.0,648.0,0.0,1,2034.0,1
587,587,-0.6859382692811529,-0.7,0.0,1.0,327.0,938.0,1.0,0,95.0,1
588,588,0.3071346140914978,0.3,0.0,0.0,396.0,728.0,0.0,1,196.0,1
589,589,-0.6477643055884204,-0.6,1.0,0.0,433.0,910.0,0.0,0,287.0,1
590,590,-0.08319326332836252,-0.1,0.0,1.0,251.0,707.0,1.0,0,2042.0,1
591,591,-0.6449729119818559,-0.6,0.0,1.0,348.0,607.0,1.0,0,175.0,1
592,592,0.406097012633016,0.4,0.0,0.0,303.0,660.0,0.0,1,167.0,1
593,593,0.4542774945771836,0.5,1.0,1.0,398.0,907.0,1.0,1,175.0,1
594,594,-0.2843143416704764,-0.3,0.0,1.0,358.0,843.0,1.0,0,279.0,1
595,595,-0.8611726881944529,-0.9,0.0,1.0,307.0,703.0,1.0,0,210.0,1
596,596,0.764338090884927,0.8,1.0,1.0,376.0,960.0,1.0,1,144.0,1
597,597,0.20546095849752677,0.2,0.0,0.0,343.0,686.0,0.0,1,421.0,1
598,598,0.6298683237689101,0.6,1.0,1.0,425.0,763.0,1.0,1,312.0,1
599,599,-0.62494860471212,-0.6,1.0,0.0,492.0,770.0,0.0,0,308.0,1
600,600,0.38995254930073175,0.4,0.0,0.0,313.0,823.0,0.0,1,314.0,1
601,601,-0.03435978835126896,-0.0,1.0,0.0,293.0,969.0,1.0,1,1738.0,0
602,602,0.62512312805188,0.6,1.0,1.0,396.0,806.0,1.0,1,108.0,1
603,603,-0.2822733039677039,-0.3,1.0,0.0,386.0,789.0,0.0,0,65.0,1
604,604,0.45287798771747234,0.5,1.0,1.0,431.0,793.0,1.0,1,106.0,1
605,605,0.6500422338445669,0.7,1.0,1.0,309.0,843.0,1.0,1,118.0,1
606,606,-0.5599985116538229,-0.6,1.0,0.0,275.0,728.0,0.0,0,157.0,1
607,607,-0.4544414916284059,-0.5,0.0,1.0,267.0,558.0,1.0,0,385.0,1
608,608,0.4019303718575896,0.4,1.0,1.0,283.0,997.0,1.0,1,120.0,1
609,609,0.3048173020941328,0.3,1.0,1.0,322.0,855.0,1.0,1,373.0,1
610,610,0.8851169227334607,0.9,1.0,1.0,401.0,758.0,1.0,1,71.0,1
611,611,-0.4910357789259182,-0.5,0.0,1.0,488.0,745.0,1.0,0,237.0,1
612,612,0.8957533729622785,0.9,0.0,0.0,356.0,941.0,0.0,1,143.0,1
613,613,-0.04963104713993216,-0.0,0.0,1.0,407.0,855.0,1.0,0,1738.0,1
614,614,0.2626307890691538,0.3,0.0,0.0,255.0,709.0,0.0,1,226.0,1
615,615,0.626288730545889,0.6,0.0,0.0,258.0,727.0,0.0,1,135.0,1
616,616,0.5751031944451882,0.6,1.0,1.0,365.0,928.0,1.0,1,157.0,1
617,617,-0.24095295439413855,-0.2,1.0,0.0,450.0,942.0,0.0,0,488.0,1
618,618,0.2526424198036613,0.3,1.0,1.0,328.0,578.0,1.0,1,504.0,1
619,619,0.8728301910077315,0.9,0.0,0.0,374.0,693.0,0.0,1,223.0,1
620,620,0.42196342850274726,0.4,0.0,0.0,408.0,735.0,0.0,1,237.0,1
621,621,0.2569407697882996,0.3,1.0,1.0,444.0,747.0,1.0,1,309.0,1
622,622,0.783346709550392,0.8,0.0,0.0,448.0,566.0,0.0,1,186.0,1
623,623,0.46231929527262283,0.5,0.0,0.0,321.0,535.0,0.0,1,174.0,1
624,624,-0.06291499550189683,-0.1,0.0,1.0,461.0,995.0,1.0,0,624.0,1
625,625,-0.8782508881724,-0.9,0.0,1.0,357.0,835.0,1.0,0,268.0,1
626,626,0.14948575140487852,0.1,0.0,0.0,449.0,726.0,0.0,1,895.0,1
627,627,-0.32939283124390173,-0.3,0.0,1.0,305.0,591.0,1.0,0,114.0,1
628,628,0.003777289709928855,0.0,0.0,0.0,499.0,586.0,1.0,0,1915.0,0
629,629,0.208358548294015,0.2,1.0,1.0,485.0,912.0,1.0,1,523.0,1
630,630,-0.3943831580699617,-0.4,1.0,0.0,293.0,826.0,0.0,0,191.0,1
631,631,-0.8391302918173082,-0.8,1.0,0.0,371.0,937.0,0.0,0,172.0,1
632,632,-0.12261094143811135,-0.1,1.0,0.0,372.0,692.0,0.0,0,246.0,1
633,633,-0.008973949746344023,-0.0,1.0,0.0,336.0,853.0,0.0,0,501.0,1
634,634,-0.6733406049406893,-0.7,1.0,0.0,400.0,762.0,0.0,0,138.0,1
635,635,0.13100517303116443,0.1,1.0,1.0,431.0,558.0,1.0,1,991.0,1
636,636,0.0993279755875851,0.1,0.0,0.0,494.0,572.0,0.0,1,1634.0,1
637,637,0.8181100125840469,0.8,1.0,1.0,378.0,889.0,1.0,1,173.0,1
638,638,-0.5250425671896848,-0.5,0.0,1.0,457.0,718.0,1.0,0,235.0,1
639,639,0.15445385845194826,0.2,1.0,1.0,324.0,926.0,1.0,1,360.0,1
640,640,-0.6368728118478229,-0.6,1.0,0.0,319.0,763.0,0.0,0,78.0,1
641,641,0.655681710888696,0.7,1.0,1.0,350.0,663.0,1.0,1,157.0,1
642,642,0.7048922789571831,0.7,1.0,1.0,355.0,503.0,1.0,1,62.0,1
643,643,0.796548210220473,0.8,1.0,1.0,350.0,651.0,1.0,1,139.0,1
644,644,-0.08486802451846365,-0.1,1.0,0.0,298.0,730.0,0.0,0,982.0,1
645,645,-0.5375576006900844,-0.5,0.0,1.0,312.0,716.0,1.0,0,62.0,1
646,646,0.4069432385591848,0.4,0.0,0.0,480.0,536.0,0.0,1,74.0,1
647,647,0.861633905913762,0.9,0.0,0.0,327.0,685.0,0.0,1,108.0,1
648,648,-0.2600029356211394,-0.3,0.0,1.0,439.0,623.0,1.0,0,728.0,1
649,649,-0.535341898235588,-0.5,0.0,1.0,454.0,897.0,1.0,0,339.0,1
650,650,-0.5110680632608486,-0.5,1.0,0.0,462.0,641.0,0.0,0,437.0,1
651,651,0.13023241344484637,0.1,0.0,0.0,334.0,650.0,0.0,1,276.0,1
652,652,-0.5636975374496994,-0.6,0.0,1.0,251.0,629.0,1.0,0,250.0,1
653,653,-0.7069547063401407,-0.7,0.0,1.0,470.0,832.0,1.0,0,168.0,1
654,654,0.11706395460170971,0.1,0.0,0.0,365.0,673.0,0.0,1,1112.0,1
655,655,-0.261619010832314,-0.3,0.0,1.0,291.0,908.0,1.0,0,541.0,1
656,656,0.07517243648770988,0.1,0.0,0.0,463.0,933.0,0.0,1,364.0,1
657,657,-0.8006590241549839,-0.8,1.0,0.0,483.0,509.0,0.0,0,298.0,1
658,658,0.3342898859849396,0.3,1.0,1.0,409.0,696.0,1.0,1,275.0,1
659,659,-0.503891400625194,-0.5,0.0,1.0,383.0,934.0,1.0,0,353.0,1
660,660,-0.11089006082507558,-0.1,0.0,1.0,429.0,864.0,1.0,0,937.0,1
661,661,0.5515711081059754,0.6,0.0,0.0,458.0,534.0,0.0,1,148.0,1
662,662,-0.06392054632218258,-0.1,0.0,1.0,494.0,704.0,1.0,0,622.0,1
663,663,0.4664932046859679,0.5,1.0,1.0,369.0,726.0,1.0,1,135.0,1
664,664,0.2706357029739871,0.3,1.0,1.0,267.0,839.0,1.0,1,224.0,1
665,665,-0.34498835793448535,-0.3,0.0,1.0,449.0,710.0,1.0,0,851.0,1
666,666,-0.7460202357692989,-0.7,1.0,0.0,437.0,635.0,0.0,0,278.0,1
667,667,0.0532232032855402,0.1,0.0,0.0,392.0,576.0,0.0,1,2032.0,1
668,668,0.7578480933655826,0.8,0.0,0.0,264.0,652.0,0.0,1,154.0,1
669,669,0.8052190129366071,0.8,1.0,1.0,255.0,646.0,1.0,1,259.0,1
670,670,-0.27274311639034743,-0.3,0.0,1.0,484.0,535.0,1.0,0,741.0,1
671,671,0.26026566007183016,0.3,1.0,1.0,466.0,687.0,1.0,1,217.0,1
672,672,-0.3220438226034378,-0.3,0.0,1.0,289.0,630.0,1.0,0,571.0,1
673,673,0.460399230352886,0.5,1.0,1.0,257.0,707.0,1.0,1,206.0,1
674,674,0.12378243094256602,0.1,0.0,0.0,276.0,720.0,0.0,1,704.0,1
675,675,-0.7195171597226144,-0.7,1.0,0.0,346.0,674.0,0.0,0,430.0,1
676,676,0.5341942170727755,0.5,1.0,1.0,458.0,750.0,1.0,1,212.0,1
677,677,-0.18307203544610373,-0.2,0.0,1.0,329.0,896.0,1.0,0,1335.0,1
678,678,-0.061830798771943196,-0.1,0.0,1.0,440.0,521.0,1.0,0,1419.0,1
679,679,-0.6049617349716123,-0.6,1.0,0.0,343.0,524.0,0.0,0,173.0,1
680,680,0.8970800395659074,0.9,1.0,1.0,435.0,806.0,0.0,0,-131.0,0
681,681,-0.6517763842272826,-0.7,0.0,1.0,457.0,866.0,1.0,0,157.0,1
682,682,-0.7818055380677127,-0.8,1.0,0.0,334.0,532.0,0.0,0,374.0,1
683,683,-0.7117725827500979,-0.7,1.0,0.0,286.0,508.0,0.0,0,136.0,1
684,684,0.8943595105622123,0.9,0.0,0.0,490.0,510.0,0.0,1,80.0,1
685,685,0.7282034770257896,0.7,1.0,1.0,395.0,599.0,1.0,1,286.0,1
686,686,0.5257137057427318,0.5,0.0,0.0,485.0,603.0,0.0,1,142.0,1
687,687,-0.5627634125369574,-0.6,0.0,1.0,488.0,505.0,1.0,0,277.0,1
688,688,-0.7365342789299786,-0.7,0.0,1.0,481.0,624.0,1.0,0,165.0,1
689,689,0.18472491908232425,0.2,1.0,1.0,314.0,729.0,1.0,1,597.0,1
690,690,-0.2823805325028548,-0.3,1.0,0.0,459.0,815.0,0.0,0,726.0,1
691,691,0.27090044576323613,0.3,0.0,0.0,401.0,501.0,0.0,1,278.0,1
692,692,-0.2661789931185382,-0.3,1.0,0.0,329.0,922.0,0.0,0,289.0,1
693,693,0.25945783301912717,0.3,0.0,0.0,295.0,578.0,0.0,1,167.0,1
694,694,0.6591836807522226,0.7,0.0,0.0,492.0,797.0,0.0,1,81.0,1
695,695,-0.8270297996478757,-0.8,0.0,1.0,396.0,830.0,1.0,0,74.0,1
696,696,-0.014795305959483307,-0.0,0.0,1.0,476.0,575.0,1.0,0,1949.0,1
697,697,-0.7351654340474203,-0.7,1.0,0.0,374.0,591.0,0.0,0,95.0,1
698,698,-0.08317456094257636,-0.1,0.0,1.0,442.0,839.0,1.0,0,669.0,1
699,699,-0.7638392640282617,-0.8,1.0,0.0,307.0,634.0,0.0,0,259.0,1
700,700,0.6826590874830009,0.7,0.0,0.0,369.0,883.0,0.0,1,168.0,1
701,701,-0.735618608593197,-0.7,0.0,1.0,474.0,632.0,1.0,0,234.0,1
702,702,-0.2568886348673044,-0.3,1.0,0.0,305.0,592.0,0.0,0,443.0,1
703,703,-0.15048837181443653,-0.2,0.0,1.0,339.0,913.0,1.0,0,1068.0,1
704,704,-0.29639154839322046,-0.3,0.0,1.0,429.0,808.0,1.0,0,93.0,1
705,705,0.13766144658719004,0.1,1.0,1.0,340.0,591.0,1.0,1,189.0,1
706,706,-0.709301444283392,-0.7,0.0,1.0,477.0,804.0,1.0,0,139.0,1
707,707,0.6770868913588176,0.7,0.0,0.0,277.0,796.0,0.0,1,97.0,1
708,708,-0.29604693363661505,-0.3,1.0,0.0,489.0,948.0,0.0,0,253.0,1
709,709,0.3016467453513073,0.3,0.0,0.0,443.0,801.0,0.0,1,296.0,1
710,710,-0.33748060721208606,-0.3,0.0,1.0,447.0,684.0,1.0,0,269.0,1
711,711,0.30394106150047506,0.3,1.0,1.0,362.0,925.0,1.0,1,233.0,1
712,712,0.414608482540738,0.4,1.0,1.0,369.0,987.0,1.0,1,154.0,1
713,713,0.804700638863245,0.8,0.0,0.0,452.0,715.0,0.0,1,233.0,1
714,714,-0.827980780921243,-0.8,0.0,1.0,278.0,893.0,1.0,0,189.0,1
715,715,-0.7607511139614839,-0.8,1.0,0.0,443.0,631.0,0.0,0,106.0,1
716,716,0.767232607767829,0.8,1.0,1.0,364.0,899.0,1.0,1,137.0,1
717,717,0.4195087974252848,0.4,1.0,1.0,475.0,987.0,1.0,1,108.0,1
718,718,-0.1666336720853735,-0.2,1.0,0.0,275.0,772.0,0.0,0,753.0,1
719,719,0.3949465155329087,0.4,0.0,0.0,451.0,581.0,0.0,1,118.0,1
720,720,0.6301704119893169,0.6,0.0,0.0,258.0,526.0,0.0,1,286.0,1
721,721,0.766258676435477,0.8,1.0,1.0,493.0,554.0,1.0,1,163.0,1
722,722,0.2617099988753203,0.3,1.0,1.0,314.0,754.0,1.0,1,422.0,1
723,723,0.26624865714588986,0.3,1.0,1.0,348.0,847.0,1.0,1,845.0,1
724,724,-0.08622351435969877,-0.1,1.0,0.0,265.0,855.0,0.0,0,610.0,1
725,725,0.58778365997618,0.6,0.0,0.0,401.0,985.0,0.0,1,84.0,1
726,726,0.28307285226630696,0.3,1.0,1.0,310.0,791.0,1.0,1,129.0,1
727,727,0.4755722120794058,0.5,0.0,0.0,308.0,502.0,0.0,1,220.0,1
728,728,0.2101336642981383,0.2,0.0,0.0,440.0,739.0,0.0,1,341.0,1
729,729,-0.2649426910392273,-0.3,1.0,0.0,265.0,923.0,0.0,0,42.0,1
730,730,-0.6595314378258433,-0.7,1.0,0.0,420.0,972.0,0.0,0,248.0,1
731,731,-0.5043151307492142,-0.5,1.0,0.0,257.0,707.0,0.0,0,746.0,1
732,732,-0.35218180155901657,-0.4,0.0,1.0,424.0,571.0,1.0,0,265.0,1
733,733,0.16416373633191184,0.2,1.0,1.0,354.0,747.0,1.0,1,499.0,1
734,734,-0.4516851106895136,-0.5,1.0,0.0,344.0,957.0,0.0,0,219.0,1
735,735,-0.24934599867423934,-0.2,1.0,0.0,429.0,827.0,0.0,0,124.0,1
736,736,-0.1342199429249118,-0.1,1.0,0.0,466.0,607.0,0.0,0,1337.0,1
737,737,0.5799968945358248,0.6,1.0,1.0,286.0,714.0,1.0,1,150.0,1
738,738,0.7731943369991477,0.8,0.0,0.0,492.0,757.0,0.0,1,131.0,1
739,739,0.44421808857938017,0.4,0.0,0.0,496.0,878.0,0.0,1,186.0,1
740,740,0.15514335662902135,0.2,0.0,0.0,452.0,813.0,0.0,1,655.0,1
741,741,-0.26822635585587573,-0.3,1.0,0.0,368.0,945.0,0.0,0,387.0,1
742,742,-0.2476389389028485,-0.2,0.0,1.0,303.0,697.0,1.0,0,550.0,1
743,743,0.04699027920143384,0.0,0.0,0.0,271.0,519.0,0.0,1,850.0,1
744,744,-0.6425975230973964,-0.6,0.0,1.0,472.0,697.0,1.0,0,201.0,1
745,745,-0.4084176030657639,-0.4,0.0,1.0,463.0,758.0,1.0,0,129.0,1
746,746,-0.08466578347660514,-0.1,0.0,1.0,345.0,582.0,1.0,0,2073.0,1
747,747,-0.7215452465554703,-0.7,0.0,1.0,356.0,777.0,1.0,0,377.0,1
748,748,-0.06153028324002807,-0.1,1.0,0.0,471.0,854.0,0.0,0,1535.0,1
749,749,-0.2693806350575617,-0.3,0.0,1.0,348.0,929.0,1.0,0,113.0,1
750,750,-0.24391152815081685,-0.2,1.0,0.0,264.0,932.0,0.0,0,694.0,1
751,751,-0.16729455297821771,-0.2,1.0,0.0,311.0,966.0,0.0,0,883.0,1
752,752,-0.3418784763463578,-0.3,1.0,0.0,297.0,648.0,0.0,0,445.0,1
753,753,-0.15594576757633016,-0.2,0.0,1.0,448.0,559.0,1.0,0,103.0,1
754,754,0.8518817375977429,0.9,1.0,1.0,324.0,605.0,1.0,1,181.0,1
755,755,0.514445731218243,0.5,0.0,0.0,420.0,551.0,0.0,1,239.0,1
756,756,0.8949800773920139,0.9,1.0,1.0,315.0,805.0,1.0,1,140.0,1
757,757,-0.3890892703054747,-0.4,1.0,0.0,251.0,892.0,0.0,0,327.0,1
758,758,-0.1175230263613356,-0.1,1.0,0.0,429.0,705.0,0.0,0,1186.0,1
759,759,-0.8364836636323485,-0.8,1.0,0.0,421.0,787.0,0.0,0,172.0,1
760,760,0.44807412538084257,0.4,1.0,1.0,289.0,981.0,0.0,0,-330.0,0
761,761,-0.7578258840216657,-0.8,0.0,1.0,363.0,862.0,1.0,0,275.0,1
762,762,-0.6107661232952537,-0.6,0.0,1.0,284.0,727.0,1.0,0,279.0,1
763,763,-0.4628814935370075,-0.5,0.0,1.0,455.0,680.0,1.0,0,215.0,1
764,764,-0.12551831891515164,-0.1,0.0,1.0,449.0,943.0,1.0,0,1158.0,1
765,765,-0.371428968872312,-0.4,0.0,1.0,426.0,702.0,1.0,0,432.0,1
766,766,0.8744553044353228,0.9,1.0,1.0,282.0,730.0,1.0,1,138.0,1
767,767,-0.7766156935903035,-0.8,0.0,1.0,379.0,925.0,1.0,0,276.0,1
768,768,-0.7676061425425486,-0.8,0.0,1.0,325.0,500.0,1.0,0,285.0,1
769,769,0.534492055014773,0.5,1.0,1.0,402.0,871.0,1.0,1,277.0,1
770,770,0.8211751983454126,0.8,1.0,1.0,416.0,539.0,1.0,1,115.0,1
771,771,0.319037042245374,0.3,1.0,1.0,401.0,894.0,1.0,1,265.0,1
772,772,0.3993329339585684,0.4,1.0,1.0,418.0,969.0,1.0,1,283.0,1
773,773,-0.15297418277947772,-0.2,1.0,0.0,492.0,738.0,0.0,0,290.0,1
774,774,-0.5977619102275445,-0.6,1.0,0.0,370.0,948.0,0.0,0,302.0,1
775,775,0.3533561889169078,0.4,0.0,0.0,380.0,534.0,0.0,1,256.0,1
776,776,0.04064533889334765,0.0,1.0,1.0,325.0,920.0,1.0,1,1755.0,1
777,777,0.3993097936375368,0.4,0.0,0.0,354.0,970.0,0.0,1,206.0,1
778,778,0.41513670024247273,0.4,1.0,1.0,477.0,734.0,1.0,1,319.0,1
779,779,-0.8593572640190973,-0.9,1.0,0.0,499.0,877.0,0.0,0,134.0,1
780,780,-0.5823090586768744,-0.6,1.0,0.0,323.0,861.0,0.0,0,206.0,1
781,781,0.25276563325126433,0.3,0.0,0.0,429.0,521.0,0.0,1,310.0,1
782,782,0.2993204935236914,0.3,0.0,0.0,350.0,639.0,0.0,1,121.0,1
783,783,0.2994920127170623,0.3,0.0,0.0,356.0,589.0,0.0,1,425.0,1
784,784,-0.7687486560821073,-0.8,1.0,0.0,456.0,586.0,0.0,0,158.0,1
785,785,-0.7437886074031366,-0.7,0.0,1.0,252.0,942.0,1.0,0,426.0,1
786,786,0.07583342374893254,0.1,1.0,1.0,498.0,671.0,1.0,1,551.0,1
787,787,0.42938617180134575,0.4,1.0,1.0,379.0,913.0,1.0,1,168.0,1
788,788,-0.58771868926513,-0.6,0.0,1.0,298.0,971.0,1.0,0,91.0,1
789,789,0.7274763978696245,0.7,0.0,0.0,385.0,565.0,0.0,1,190.0,1
790,790,0.4657780936724353,0.5,1.0,1.0,487.0,633.0,1.0,1,220.0,1
791,791,0.6644059378197568,0.7,1.0,1.0,476.0,706.0,1.0,1,538.0,1
792,792,-0.7790140569319096,-0.8,0.0,1.0,339.0,750.0,1.0,0,21.0,1
793,793,-0.18530659524976223,-0.2,0.0,1.0,441.0,799.0,1.0,0,240.0,1
794,794,-0.12773190669031853,-0.1,0.0,1.0,271.0,628.0,1.0,0,431.0,1
795,795,-0.45034125322674323,-0.5,1.0,0.0,390.0,799.0,0.0,0,251.0,1
796,796,0.7217961304226429,0.7,0.0,0.0,298.0,737.0,0.0,1,125.0,1
797,797,0.5467056433118943,0.5,0.0,0.0,300.0,726.0,0.0,1,144.0,1
798,798,-0.7869675772847963,-0.8,0.0,1.0,406.0,998.0,1.0,0,126.0,1
799,799,0.2504569314054962,0.3,0.0,0.0,356.0,586.0,0.0,1,458.0,1
800,800,-0.31225945194522,-0.3,0.0,1.0,393.0,763.0,1.0,0,264.0,1
801,801,-0.7705001781403517,-0.8,1.0,0.0,262.0,828.0,0.0,0,100.0,1
802,802,-0.7358235568342852,-0.7,1.0,0.0,399.0,528.0,0.0,0,213.0,1
803,803,0.4423959140919115,0.4,0.0,0.0,274.0,703.0,0.0,1,53.0,1
804,804,0.4389610315718141,0.4,1.0,1.0,258.0,902.0,1.0,1,640.0,1
805,805,0.7402639119483146,0.7,1.0,1.0,425.0,853.0,1.0,1,122.0,1
806,806,0.4104887483718461,0.4,0.0,0.0,488.0,741.0,0.0,1,221.0,1
807,807,-0.33647775253265566,-0.3,0.0,1.0,257.0,918.0,1.0,0,395.0,1
808,808,-0.04790417656427948,-0.0,0.0,1.0,417.0,839.0,1.0,0,634.0,1
809,809,0.30545871655778833,0.3,1.0,1.0,396.0,747.0,0.0,0,-73.0,0
810,810,0.34434666745916387,0.3,1.0,1.0,264.0,719.0,1.0,1,327.0,1
811,811,0.2683011482299734,0.3,1.0,1.0,436.0,553.0,1.0,1,361.0,1
812,812,0.4897200042246027,0.5,1.0,1.0,315.0,823.0,1.0,1,142.0,1
813,813,-0.444080731572701,-0.4,0.0,1.0,338.0,521.0,1.0,0,651.0,1
814,814,-0.5707461710328177,-0.6,1.0,0.0,344.0,541.0,0.0,0,415.0,1
815,815,0.7968793261624246,0.8,0.0,0.0,431.0,701.0,0.0,1,98.0,1
816,816,-0.0425563929143169,-0.0,1.0,0.0,398.0,727.0,1.0,1,1875.0,0
817,817,0.5201995210036222,0.5,1.0,1.0,372.0,953.0,1.0,1,185.0,1
818,818,0.10523126359176926,0.1,0.0,0.0,436.0,768.0,0.0,1,566.0,1
819,819,0.06055981735688898,0.1,0.0,0.0,255.0,583.0,0.0,1,1602.0,1
820,820,-0.8760390545304813,-0.9,0.0,1.0,287.0,991.0,1.0,0,112.0,1
821,821,0.8659785289148921,0.9,1.0,1.0,281.0,854.0,1.0,1,105.0,1
822,822,-0.8369474812375676,-0.8,1.0,0.0,402.0,566.0,0.0,0,122.0,1
823,823,-0.47023384170276034,-0.5,0.0,1.0,273.0,848.0,1.0,0,89.0,1
824,824,0.41854163693082314,0.4,0.0,0.0,392.0,822.0,0.0,1,226.0,1
825,825,-0.6787697967849687,-0.7,1.0,0.0,291.0,838.0,0.0,0,151.0,1
826,826,0.26844887099368975,0.3,0.0,0.0,424.0,578.0,0.0,1,118.0,1
827,827,-0.06389659493104494,-0.1,1.0,0.0,338.0,726.0,0.0,0,1776.0,1
828,828,0.7817871402386026,0.8,0.0,0.0,371.0,963.0,0.0,1,126.0,1
829,829,0.709714550772976,0.7,0.0,0.0,492.0,548.0,0.0,1,230.0,1
830,830,0.6141539334049247,0.6,1.0,1.0,317.0,943.0,1.0,1,220.0,1
831,831,-0.03913463720812149,-0.0,0.0,1.0,333.0,550.0,1.0,0,1627.0,1
832,832,0.1745043459127379,0.2,1.0,1.0,315.0,617.0,1.0,1,578.0,1
833,833,0.1319751449146801,0.1,0.0,0.0,320.0,594.0,0.0,1,406.0,1
834,834,-0.774971265029537,-0.8,0.0,1.0,428.0,809.0,1.0,0,143.0,1
835,835,-0.6190139081849808,-0.6,0.0,1.0,489.0,938.0,1.0,0,183.0,1
836,836,0.1532029765352897,0.2,0.0,0.0,373.0,913.0,0.0,1,194.0,1
837,837,0.13493056359485245,0.1,0.0,0.0,454.0,803.0,0.0,1,693.0,1
838,838,-0.5578618352564553,-0.6,0.0,1.0,414.0,544.0,1.0,0,122.0,1
839,839,-0.37754872218061486,-0.4,1.0,0.0,463.0,979.0,0.0,0,208.0,1
840,840,0.8492255071337907,0.8,1.0,1.0,256.0,643.0,1.0,1,101.0,1
841,841,-0.6489347178965883,-0.6,1.0,0.0,455.0,877.0,0.0,0,208.0,1
842,842,0.5105651246765192,0.5,1.0,1.0,333.0,851.0,1.0,1,166.0,1
843,843,0.26713536016087913,0.3,1.0,1.0,475.0,576.0,1.0,1,239.0,1
844,844,-0.4773692817340971,-0.5,1.0,0.0,398.0,541.0,0.0,0,271.0,1
845,845,0.22061352780451526,0.2,0.0,0.0,360.0,705.0,0.0,1,375.0,1
846,846,-0.31655437174452283,-0.3,1.0,0.0,464.0,728.0,0.0,0,188.0,1
847,847,-0.6457809155971219,-0.6,0.0,1.0,475.0,790.0,1.0,0,175.0,1
848,848,0.5503710673784835,0.6,1.0,1.0,483.0,787.0,1.0,1,180.0,1
849,849,0.04962833644534359,0.0,1.0,1.0,341.0,533.0,1.0,1,1306.0,1
850,850,-0.5210756354499919,-0.5,1.0,0.0,350.0,742.0,0.0,0,188.0,1
851,851,-0.6940928004268707,-0.7,0.0,1.0,411.0,542.0,1.0,0,117.0,1
852,852,-0.5669359608360571,-0.6,0.0,1.0,299.0,649.0,1.0,0,102.0,1
853,853,0.14207669469930628,0.1,0.0,0.0,349.0,534.0,0.0,1,347.0,1
854,854,-0.3494176011957333,-0.3,1.0,0.0,310.0,867.0,0.0,0,353.0,1
855,855,0.6094296198660255,0.6,0.0,0.0,381.0,802.0,0.0,1,187.0,1
856,856,-0.8988838362076252,-0.9,1.0,0.0,446.0,654.0,0.0,0,320.0,1
857,857,0.17988497659517233,0.2,0.0,0.0,327.0,914.0,0.0,1,399.0,1
858,858,-0.8167976994644539,-0.8,1.0,0.0,387.0,847.0,0.0,0,116.0,1
859,859,-0.7538043879097626,-0.8,0.0,1.0,390.0,704.0,1.0,0,86.0,1
860,860,0.3760611844681935,0.4,1.0,1.0,284.0,972.0,1.0,1,224.0,1
861,861,-0.2900214207398415,-0.3,1.0,0.0,480.0,848.0,0.0,0,442.0,1
862,862,-0.30475177306967216,-0.3,1.0,0.0,365.0,988.0,0.0,0,447.0,1
863,863,0.2818541240986058,0.3,1.0,1.0,491.0,713.0,1.0,1,496.0,1
864,864,-0.37550611566677794,-0.4,0.0,1.0,371.0,537.0,1.0,0,432.0,1
865,865,-0.773024658448538,-0.8,0.0,1.0,346.0,822.0,1.0,0,132.0,1
866,866,-0.8535890191873317,-0.9,0.0,1.0,334.0,768.0,1.0,0,168.0,1
867,867,-0.7955704383104093,-0.8,1.0,0.0,268.0,832.0,0.0,0,80.0,1
868,868,0.6177029186614901,0.6,0.0,0.0,471.0,582.0,0.0,1,127.0,1
869,869,-0.5673933480064965,-0.6,1.0,0.0,456.0,700.0,0.0,0,94.0,1
870,870,-0.41512872143769236,-0.4,1.0,0.0,499.0,909.0,0.0,0,172.0,1
871,871,-0.25294566344816005,-0.3,1.0,0.0,338.0,583.0,0.0,0,629.0,1
872,872,0.3723699295677264,0.4,1.0,1.0,488.0,541.0,1.0,1,401.0,1
873,873,0.700060790031047,0.7,0.0,0.0,260.0,528.0,0.0,1,222.0,1
874,874,0.25429106423713377,0.3,0.0,0.0,286.0,830.0,0.0,1,234.0,1
875,875,0.6144901930742147,0.6,0.0,0.0,401.0,819.0,0.0,1,180.0,1
876,876,0.7500870627255983,0.8,1.0,1.0,490.0,926.0,1.0,1,124.0,1
877,877,-0.19142842037002128,-0.2,1.0,0.0,365.0,791.0,0.0,0,614.0,1
878,878,0.4703048951565517,0.5,0.0,0.0,489.0,709.0,0.0,1,232.0,1
879,879,-0.25524830156596834,-0.3,1.0,0.0,281.0,944.0,0.0,0,235.0,1
880,880,-0.7595483745846501,-0.8,0.0,1.0,381.0,512.0,1.0,0,197.0,1
881,881,-0.8220385560469785,-0.8,0.0,1.0,426.0,588.0,1.0,0,256.0,1
882,882,-0.43103156728208597,-0.4,0.0,1.0,499.0,603.0,1.0,0,98.0,1
883,883,0.13070017505585818,0.1,0.0,0.0,393.0,564.0,0.0,1,693.0,1
884,884,-0.63296055559658,-0.6,1.0,0.0,362.0,880.0,0.0,0,208.0,1
885,885,-0.709291819746162,-0.7,1.0,0.0,463.0,790.0,0.0,0,137.0,1
886,886,-0.863010549516032,-0.9,0.0,1.0,288.0,547.0,1.0,0,175.0,1
887,887,0.7688916347419316,0.8,0.0,0.0,477.0,759.0,0.0,1,94.0,1
888,888,-0.8316351014870947,-0.8,1.0,0.0,432.0,741.0,0.0,0,107.0,1
889,889,0.49839131004968873,0.5,1.0,1.0,263.0,540.0,1.0,1,187.0,1
890,890,-0.528977863777419,-0.5,0.0,1.0,395.0,722.0,1.0,0,173.0,1
891,891,0.7724822392652692,0.8,1.0,1.0,263.0,777.0,1.0,1,100.0,1
892,892,-0.02259574859142577,-0.0,0.0,1.0,337.0,835.0,1.0,0,638.0,1
893,893,-0.35432132028627683,-0.4,1.0,0.0,432.0,844.0,0.0,0,-26.0,1
894,894,-0.6445387581795426,-0.6,1.0,0.0,292.0,792.0,0.0,0,106.0,1
895,895,-0.30508178146392784,-0.3,0.0,1.0,391.0,629.0,1.0,0,130.0,1
896,896,-0.5693103481686939,-0.6,1.0,0.0,349.0,748.0,0.0,0,203.0,1
897,897,-0.8251883787213969,-0.8,1.0,0.0,289.0,826.0,0.0,0,135.0,1
898,898,-0.02416173399327115,-0.0,1.0,0.0,486.0,683.0,0.0,0,1831.0,1
899,899,0.4510600488538766,0.5,0.0,0.0,338.0,655.0,0.0,1,217.0,1
900,900,0.8815497507224962,0.9,0.0,0.0,441.0,933.0,0.0,1,96.0,1
901,901,-0.6688027321153004,-0.7,1.0,0.0,402.0,821.0,0.0,0,207.0,1
902,902,0.39035298256824646,0.4,0.0,0.0,333.0,506.0,0.0,1,321.0,1
903,903,-0.6319490746254488,-0.6,0.0,1.0,267.0,910.0,1.0,0,163.0,1
904,904,-0.1108776768766988,-0.1,0.0,1.0,279.0,994.0,1.0,0,427.0,1
905,905,-0.7743558583293968,-0.8,0.0,1.0,480.0,556.0,1.0,0,334.0,1
906,906,0.25276933425314796,0.3,0.0,0.0,380.0,812.0,0.0,1,168.0,1
907,907,-0.017351955251299067,-0.0,1.0,0.0,369.0,693.0,0.0,0,1938.0,1
908,908,-0.023815466101150373,-0.0,1.0,0.0,456.0,976.0,0.0,0,1568.0,1
909,909,0.05782682714436316,0.1,0.0,0.0,493.0,950.0,0.0,1,1167.0,1
910,910,-0.43346044164110287,-0.4,1.0,0.0,362.0,785.0,0.0,0,233.0,1
911,911,-0.5371906896958571,-0.5,0.0,1.0,381.0,515.0,1.0,0,194.0,1
912,912,-0.5028730251053461,-0.5,1.0,0.0,257.0,940.0,0.0,0,183.0,1
913,913,-0.3458814469106013,-0.3,1.0,0.0,384.0,592.0,0.0,0,34.0,1
914,914,-0.049715473987788195,-0.0,0.0,1.0,493.0,830.0,0.0,1,837.0,0
915,915,0.032577960908193426,0.0,1.0,1.0,289.0,701.0,1.0,1,2010.0,1
916,916,0.402685700318104,0.4,0.0,0.0,425.0,681.0,0.0,1,254.0,1
917,917,-0.5987245031738648,-0.6,1.0,0.0,390.0,923.0,0.0,0,287.0,1
918,918,-0.6012859313736532,-0.6,0.0,1.0,399.0,933.0,1.0,0,218.0,1
919,919,-0.2771141639571244,-0.3,1.0,0.0,370.0,938.0,0.0,0,342.0,1
920,920,0.59554992566968,0.6,0.0,0.0,345.0,573.0,0.0,1,122.0,1
921,921,-0.35472445670838126,-0.4,0.0,1.0,420.0,982.0,1.0,0,218.0,1
922,922,-0.6202012052876293,-0.6,1.0,0.0,483.0,963.0,0.0,0,134.0,1
923,923,0.3264638096319744,0.3,0.0,0.0,314.0,618.0,0.0,1,228.0,1
924,924,-0.3409726759934759,-0.3,0.0,1.0,257.0,578.0,1.0,0,295.0,1
925,925,0.8024946632957587,0.8,0.0,0.0,259.0,674.0,0.0,1,157.0,1
926,926,-0.7511066129055044,-0.8,0.0,1.0,263.0,505.0,1.0,0,162.0,1
927,927,-0.09503302345876563,-0.1,0.0,1.0,339.0,652.0,1.0,0,1329.0,1
928,928,-0.26532639865724805,-0.3,1.0,0.0,329.0,920.0,0.0,0,301.0,1
929,929,0.7313162784591799,0.7,1.0,1.0,384.0,672.0,1.0,1,204.0,1
930,930,0.5455297554245039,0.5,0.0,0.0,279.0,685.0,0.0,1,76.0,1
931,931,0.1766021512034598,0.2,1.0,1.0,489.0,925.0,1.0,1,1036.0,1
932,932,0.11309630257397696,0.1,0.0,0.0,292.0,690.0,0.0,1,548.0,1
933,933,-0.300628898946371,-0.3,1.0,0.0,440.0,574.0,0.0,0,296.0,1
934,934,-0.8076421628196984,-0.8,0.0,1.0,267.0,739.0,1.0,0,294.0,1
935,935,-0.5818336812219425,-0.6,1.0,0.0,331.0,747.0,0.0,0,72.0,1
936,936,0.5401474691351759,0.5,0.0,0.0,278.0,982.0,0.0,1,140.0,1
937,937,-0.397257153447123,-0.4,1.0,0.0,253.0,513.0,0.0,0,314.0,1
938,938,0.7551070564804699,0.8,0.0,0.0,251.0,958.0,0.0,1,191.0,1
939,939,0.312838489359723,0.3,1.0,1.0,457.0,682.0,1.0,1,181.0,1
940,940,-0.5220092146719064,-0.5,0.0,1.0,426.0,524.0,1.0,0,170.0,1
941,941,-0.13087430812825418,-0.1,0.0,1.0,491.0,642.0,1.0,0,1107.0,1
942,942,-0.19486215469275436,-0.2,0.0,1.0,475.0,765.0,1.0,0,880.0,1
943,943,-0.8084414797029025,-0.8,0.0,1.0,454.0,715.0,1.0,0,141.0,1
944,944,-0.6299368851565206,-0.6,0.0,1.0,457.0,765.0,1.0,0,68.0,1
945,945,0.880966828299702,0.9,0.0,0.0,252.0,660.0,0.0,1,108.0,1
946,946,-0.40419326369910724,-0.4,0.0,1.0,366.0,691.0,1.0,0,203.0,1
947,947,0.5861270539790596,0.6,1.0,1.0,364.0,922.0,1.0,1,234.0,1
948,948,0.8688992210784289,0.9,0.0,0.0,335.0,807.0,0.0,1,108.0,1
949,949,-0.2580733014534081,-0.3,0.0,1.0,409.0,643.0,1.0,0,408.0,1
950,950,0.11332713045196485,0.1,1.0,1.0,431.0,740.0,1.0,1,-321.0,1
951,951,-0.44076288022336785,-0.4,1.0,0.0,355.0,761.0,0.0,0,214.0,1
952,952,0.4981328556572472,0.5,1.0,1.0,495.0,963.0,1.0,1,162.0,1
953,953,0.5246060022195861,0.5,0.0,0.0,338.0,731.0,0.0,1,131.0,1
954,954,-0.33158798048207494,-0.3,0.0,1.0,271.0,971.0,1.0,0,238.0,1
955,955,0.2729898232685882,0.3,1.0,1.0,356.0,575.0,1.0,1,279.0,1
956,956,-0.83926202324095,-0.8,0.0,1.0,250.0,777.0,1.0,0,183.0,1
957,957,0.5510212347449345,0.6,1.0,1.0,399.0,896.0,1.0,1,205.0,1
958,958,-0.15506431592409375,-0.2,0.0,1.0,297.0,970.0,1.0,0,1613.0,1
959,959,-0.6721456228329289,-0.7,0.0,1.0,417.0,991.0,1.0,0,332.0,1
960,960,0.36466193796452606,0.4,0.0,0.0,299.0,639.0,0.0,1,292.0,1
961,961,-0.35135097109785796,-0.4,0.0,1.0,299.0,963.0,1.0,0,278.0,1
962,962,-0.5742314212269359,-0.6,0.0,1.0,464.0,949.0,1.0,0,247.0,1
963,963,-0.6788199103167408,-0.7,0.0,1.0,476.0,967.0,0.0,1,-143.0,0
964,964,0.6609741589339552,0.7,0.0,0.0,474.0,924.0,0.0,1,92.0,1
965,965,0.21859762975623143,0.2,1.0,1.0,362.0,763.0,1.0,1,185.0,1
966,966,-0.7402305501252481,-0.7,0.0,1.0,403.0,740.0,1.0,0,157.0,1
967,967,0.45247875789693637,0.5,0.0,0.0,299.0,867.0,0.0,1,204.0,1
968,968,0.3273985497085804,0.3,0.0,0.0,254.0,969.0,0.0,1,247.0,1
969,969,0.7477674274814984,0.7,0.0,0.0,408.0,863.0,0.0,1,149.0,1
970,970,0.6937555190838626,0.7,0.0,0.0,493.0,586.0,0.0,1,181.0,1
971,971,-0.07866858276562239,-0.1,0.0,1.0,393.0,953.0,1.0,0,1654.0,1
972,972,-0.5310461379928827,-0.5,1.0,0.0,397.0,804.0,0.0,0,119.0,1
973,973,-0.22642714925743002,-0.2,1.0,0.0,440.0,537.0,0.0,0,533.0,1
974,974,-0.4028977262938079,-0.4,0.0,1.0,428.0,831.0,1.0,0,531.0,1
975,975,0.6850852712963632,0.7,0.0,0.0,403.0,934.0,0.0,1,123.0,1
976,976,-0.14636675661616116,-0.1,1.0,0.0,341.0,901.0,0.0,0,798.0,1
977,977,0.039662717866599806,0.0,0.0,0.0,435.0,889.0,0.0,1,1186.0,1
978,978,0.22061249657270843,0.2,0.0,0.0,325.0,524.0,0.0,1,501.0,1
979,979,0.7806816126693491,0.8,0.0,0.0,263.0,549.0,0.0,1,78.0,1
980,980,-0.6016215755893004,-0.6,1.0,0.0,469.0,659.0,0.0,0,362.0,1
981,981,0.5999590203842294,0.6,1.0,1.0,477.0,614.0,1.0,1,149.0,1
982,982,-0.13393060854801253,-0.1,0.0,1.0,453.0,913.0,1.0,0,14.0,1
983,983,0.28657138689463546,0.3,0.0,0.0,488.0,732.0,0.0,1,220.0,1
984,984,0.7761835561573996,0.8,0.0,0.0,345.0,809.0,0.0,1,196.0,1
985,985,0.15295709237946997,0.2,0.0,0.0,254.0,610.0,0.0,1,256.0,1
986,986,0.5111035627209334,0.5,1.0,1.0,411.0,700.0,1.0,1,159.0,1
987,987,-0.2552317108676464,-0.3,0.0,1.0,335.0,921.0,1.0,0,224.0,1
988,988,0.48474406905663947,0.5,0.0,0.0,433.0,802.0,0.0,1,75.0,1
989,989,-0.8999483434689534,-0.9,1.0,0.0,276.0,502.0,0.0,0,172.0,1
990,990,-0.04013839321111079,-0.0,1.0,0.0,352.0,853.0,0.0,0,1795.0,1
991,991,-0.15997501312809004,-0.2,1.0,0.0,462.0,642.0,0.0,0,996.0,1
992,992,-0.46445659981441395,-0.5,0.0,1.0,321.0,885.0,1.0,0,154.0,1
993,993,-0.8000760262956745,-0.8,0.0,1.0,375.0,699.0,1.0,0,126.0,1
994,994,-0.20661817998902332,-0.2,0.0,1.0,412.0,882.0,1.0,0,36.0,1
995,995,0.7658268960697788,0.8,1.0,1.0,375.0,580.0,1.0,1,95.0,1
996,996,0.1111279182246111,0.1,1.0,1.0,367.0,802.0,1.0,1,911.0,1
997,997,-0.5703908828905153,-0.6,0.0,1.0,282.0,652.0,1.0,0,196.0,1
998,998,0.3507990644493527,0.4,0.0,0.0,339.0,749.0,0.0,1,362.0,1
999,999,-0.853167404596915,-0.9,0.0,1.0,275.0,859.0,0.0,1,-464.0,0
1000,1000,-0.4695904200254635,-0.5,0.0,1.0,276.0,512.0,1.0,0,562.0,1
1001,1001,0.4398903805067519,0.4,0.0,0.0,483.0,749.0,0.0,1,288.0,1
1002,1002,0.14190952057217376,0.1,1.0,1.0,294.0,542.0,1.0,1,894.0,1
1003,1003,-0.7811728381148076,-0.8,1.0,0.0,356.0,846.0,0.0,0,68.0,1
1004,1004,-0.7667294703023885,-0.8,0.0,1.0,477.0,501.0,1.0,0,312.0,1
1005,1005,0.016721573225875197,0.0,1.0,1.0,318.0,926.0,1.0,1,1756.0,1
1006,1006,-0.5805443110234458,-0.6,1.0,0.0,358.0,684.0,0.0,0,228.0,1
1007,1007,-0.48873770107699965,-0.5,1.0,0.0,453.0,813.0,0.0,0,144.0,1
1008,1008,0.32213496526538965,0.3,1.0,1.0,456.0,760.0,1.0,1,374.0,1
1009,1009,0.3801399828867963,0.4,0.0,0.0,388.0,747.0,0.0,1,105.0,1
1010,1010,0.5958393190902856,0.6,1.0,1.0,432.0,799.0,1.0,1,99.0,1
1011,1011,-0.6538807473483556,-0.7,0.0,1.0,434.0,831.0,1.0,0,-45.0,1
1012,1012,0.8734979012353633,0.9,1.0,1.0,345.0,771.0,1.0,1,84.0,1
1013,1013,0.5889816142718421,0.6,1.0,1.0,313.0,669.0,1.0,1,238.0,1
1014,1014,0.034791265839666186,0.0,1.0,1.0,403.0,957.0,1.0,1,1640.0,1
1015,1015,0.7138282015058816,0.7,1.0,1.0,315.0,644.0,1.0,1,121.0,1
1016,1016,0.6212533619146646,0.6,0.0,0.0,403.0,833.0,0.0,1,194.0,1
1017,1017,-0.8487268359993236,-0.8,1.0,0.0,499.0,928.0,0.0,0,123.0,1
1018,1018,-0.2044242688423894,-0.2,0.0,1.0,438.0,767.0,1.0,0,165.0,1
1019,1019,0.6753698521330281,0.7,1.0,1.0,260.0,691.0,1.0,1,189.0,1
1020,1020,0.27439568262436154,0.3,1.0,1.0,312.0,973.0,1.0,1,265.0,1
1021,1021,-0.22356144103200126,-0.2,1.0,0.0,340.0,567.0,0.0,0,263.0,1
1022,1022,0.718352977721611,0.7,1.0,1.0,478.0,549.0,1.0,1,63.0,1
1023,1023,0.351482850768876,0.4,1.0,1.0,292.0,599.0,1.0,1,319.0,1
1024,1024,-0.23708745307392087,-0.2,0.0,1.0,329.0,845.0,1.0,0,216.0,1
1025,1025,-0.8791622511104842,-0.9,1.0,0.0,314.0,933.0,0.0,0,73.0,1
1026,1026,0.6721346608229687,0.7,0.0,0.0,385.0,626.0,0.0,1,139.0,1
1027,1027,-0.6404186320326692,-0.6,0.0,1.0,471.0,674.0,1.0,0,155.0,1
1028,1028,-0.8902577526261012,-0.9,1.0,0.0,422.0,721.0,0.0,0,167.0,1
1029,1029,-0.78660098770941,-0.8,1.0,0.0,318.0,575.0,0.0,0,247.0,1
1030,1030,0.13566219659404266,0.1,0.0,0.0,498.0,982.0,0.0,1,240.0,1
1031,1031,-0.24601292197035085,-0.2,0.0,1.0,295.0,500.0,1.0,0,555.0,1
1032,1032,-0.28861420792254067,-0.3,0.0,1.0,385.0,840.0,1.0,0,105.0,1
1033,1033,0.23212399928072924,0.2,1.0,1.0,271.0,909.0,1.0,1,230.0,1
1034,1034,-0.709243660855301,-0.7,1.0,0.0,486.0,813.0,0.0,0,101.0,1
1035,1035,-0.8944959419820815,-0.9,0.0,1.0,338.0,808.0,1.0,0,-166.0,1
1036,1036,-0.36781922982438586,-0.4,1.0,0.0,282.0,955.0,0.0,0,213.0,1
1037,1037,0.013834973055586453,0.0,0.0,0.0,357.0,789.0,0.0,1,1124.0,1
1038,1038,-0.874473931044872,-0.9,0.0,1.0,401.0,673.0,1.0,0,176.0,1
1039,1039,-0.18958111137588352,-0.2,1.0,0.0,361.0,884.0,0.0,0,245.0,1
1040,1040,-0.14962807288213953,-0.1,0.0,1.0,293.0,801.0,1.0,0,426.0,1
1041,1041,-0.27640982377478385,-0.3,0.0,1.0,366.0,770.0,1.0,0,184.0,1
1042,1042,-0.7191758888389439,-0.7,1.0,0.0,299.0,732.0,0.0,0,229.0,1
1043,1043,-0.3636428489938752,-0.4,0.0,1.0,262.0,945.0,1.0,0,183.0,1
1044,1044,-0.48088520376315025,-0.5,0.0,1.0,363.0,676.0,1.0,0,181.0,1
1045,1045,0.20907621326965165,0.2,0.0,0.0,455.0,863.0,0.0,1,192.0,1
1046,1046,0.4532615445385123,0.5,1.0,1.0,301.0,930.0,1.0,1,319.0,1
1047,1047,-0.5944751688704111,-0.6,0.0,1.0,404.0,915.0,1.0,0,341.0,1
1048,1048,0.36853403349581904,0.4,0.0,0.0,384.0,692.0,0.0,1,294.0,1
1049,1049,0.17301856654841774,0.2,0.0,0.0,416.0,529.0,0.0,1,515.0,1
1050,1050,-0.1145212359238651,-0.1,1.0,0.0,250.0,785.0,0.0,0,615.0,1
1051,1051,-0.3351263841760468,-0.3,1.0,0.0,408.0,700.0,0.0,0,172.0,1
1052,1052,0.8822427416761719,0.9,0.0,0.0,261.0,971.0,0.0,1,58.0,1
1053,1053,-0.08435974939632729,-0.1,0.0,1.0,278.0,973.0,1.0,0,39.0,1
1054,1054,-0.6370839279773128,-0.6,0.0,1.0,490.0,593.0,1.0,0,167.0,1
1055,1055,0.12779144173692247,0.1,1.0,1.0,386.0,816.0,1.0,1,1548.0,1
1056,1056,0.31230964064738764,0.3,0.0,0.0,337.0,724.0,0.0,1,459.0,1
1057,1057,-0.4670820013521478,-0.5,1.0,0.0,316.0,788.0,0.0,0,236.0,1
1058,1058,0.49443694791632453,0.5,1.0,1.0,355.0,885.0,1.0,1,250.0,1
1059,1059,0.3269414742494662,0.3,1.0,1.0,414.0,829.0,1.0,1,257.0,1
1060,1060,0.8489877580631114,0.8,1.0,1.0,303.0,678.0,1.0,1,99.0,1
1061,1061,-0.3181673409844228,-0.3,0.0,1.0,412.0,903.0,1.0,0,235.0,1
1062,1062,0.8774892666118511,0.9,0.0,0.0,425.0,741.0,0.0,1,64.0,1
1063,1063,-0.1398230395716087,-0.1,1.0,0.0,328.0,822.0,0.0,0,350.0,1
1064,1064,0.839939949734264,0.8,0.0,0.0,419.0,934.0,0.0,1,147.0,1
1065,1065,0.8135174351092606,0.8,1.0,1.0,478.0,847.0,1.0,1,245.0,1
1066,1066,-0.18865873238143727,-0.2,0.0,1.0,283.0,678.0,1.0,0,409.0,1
1067,1067,0.6617508449659452,0.7,1.0,1.0,349.0,929.0,1.0,1,172.0,1
1068,1068,-0.8477210192030498,-0.8,1.0,0.0,255.0,754.0,0.0,0,221.0,1
1069,1069,-0.8306960137838793,-0.8,0.0,1.0,294.0,556.0,1.0,0,40.0,1
1070,1070,0.5705274102618533,0.6,0.0,0.0,275.0,586.0,0.0,1,279.0,1
1071,1071,-0.6169046083737086,-0.6,0.0,1.0,299.0,607.0,1.0,0,84.0,1
1072,1072,0.1360605424342337,0.1,0.0,0.0,446.0,709.0,0.0,1,455.0,1
1073,1073,-0.7900483578728094,-0.8,0.0,1.0,484.0,830.0,1.0,0,216.0,1
1074,1074,-0.6689344099328055,-0.7,0.0,1.0,444.0,741.0,1.0,0,-355.0,1
1075,1075,-0.2829480434274,-0.3,1.0,0.0,488.0,890.0,0.0,0,432.0,1
1076,1076,-0.5991720462020518,-0.6,0.0,1.0,404.0,652.0,1.0,0,164.0,1
1077,1077,0.19230150463021112,0.2,1.0,1.0,308.0,974.0,1.0,1,388.0,1
1078,1078,0.4111262419171805,0.4,0.0,0.0,341.0,525.0,0.0,1,384.0,1
1079,1079,-0.49622577396325135,-0.5,0.0,1.0,448.0,607.0,1.0,0,265.0,1
1080,1080,0.5623931845148403,0.6,0.0,0.0,457.0,988.0,0.0,1,195.0,1
1081,1081,0.34384751439944183,0.3,0.0,0.0,339.0,521.0,0.0,1,230.0,1
1082,1082,0.8181401470372355,0.8,0.0,0.0,434.0,750.0,0.0,1,146.0,1
1083,1083,-0.8946384713457145,-0.9,1.0,0.0,472.0,967.0,0.0,0,81.0,1
1084,1084,0.7651023020819213,0.8,1.0,1.0,298.0,647.0,1.0,1,125.0,1
1085,1085,-0.54786037107904,-0.5,1.0,0.0,323.0,794.0,0.0,0,283.0,1
1086,1086,-0.8571289751491096,-0.9,0.0,1.0,337.0,594.0,1.0,0,179.0,1
1087,1087,-0.20527288424506207,-0.2,1.0,0.0,453.0,556.0,0.0,0,151.0,1
1088,1088,-0.3386483448380354,-0.3,1.0,0.0,343.0,878.0,0.0,0,359.0,1
1089,1089,-0.2509203296080078,-0.3,1.0,0.0,362.0,889.0,0.0,0,279.0,1
1090,1090,0.1351122310341507,0.1,1.0,1.0,327.0,936.0,1.0,1,847.0,1
1091,1091,-0.20529627123538796,-0.2,1.0,0.0,479.0,827.0,0.0,0,664.0,1
1092,1092,-0.38833144319572077,-0.4,1.0,0.0,318.0,825.0,0.0,0,147.0,1
1093,1093,-0.5728139606309017,-0.6,0.0,1.0,427.0,503.0,1.0,0,160.0,1
1094,1094,0.42657748622018865,0.4,1.0,1.0,422.0,518.0,1.0,1,250.0,1
1095,1095,-0.5367404442612675,-0.5,1.0,0.0,396.0,896.0,0.0,0,468.0,1
1096,1096,0.7354862827471779,0.7,1.0,1.0,410.0,517.0,1.0,1,113.0,1
1097,1097,0.48331829655960934,0.5,0.0,0.0,386.0,979.0,0.0,1,15.0,1
1098,1098,-0.5865863832750537,-0.6,0.0,1.0,250.0,629.0,1.0,0,281.0,1
1099,1099,0.42622796065850854,0.4,0.0,0.0,349.0,501.0,0.0,1,190.0,1
1100,1100,-0.18532488710192718,-0.2,0.0,1.0,304.0,798.0,1.0,0,1388.0,1
1101,1101,-0.5201469503625947,-0.5,1.0,0.0,360.0,800.0,0.0,0,170.0,1
1102,1102,-0.5392751813154746,-0.5,1.0,0.0,309.0,624.0,0.0,0,157.0,1
1103,1103,0.5829761257217624,0.6,0.0,0.0,406.0,505.0,0.0,1,439.0,1
1104,1104,-0.5909824609149208,-0.6,0.0,1.0,394.0,920.0,1.0,0,326.0,1
1105,1105,0.23953268509892467,0.2,1.0,1.0,286.0,936.0,1.0,1,488.0,1
1106,1106,-0.596649100309308,-0.6,1.0,0.0,367.0,809.0,0.0,0,324.0,1
1107,1107,0.6140704701642442,0.6,0.0,0.0,383.0,698.0,0.0,1,119.0,1
1108,1108,0.07272633472341206,0.1,1.0,1.0,265.0,778.0,0.0,0,57.0,0
1109,1109,-0.3517358568754363,-0.4,1.0,0.0,498.0,776.0,0.0,0,116.0,1
1110,1110,0.2364656930517285,0.2,0.0,0.0,376.0,582.0,0.0,1,182.0,1
1111,1111,0.24445375270948844,0.2,0.0,0.0,258.0,978.0,0.0,1,144.0,1
1112,1112,0.4402153476074834,0.4,1.0,1.0,491.0,843.0,1.0,1,196.0,1
1113,1113,-0.534232524764084,-0.5,0.0,1.0,292.0,672.0,1.0,0,286.0,1
1114,1114,-0.5377571762406279,-0.5,0.0,1.0,278.0,944.0,1.0,0,98.0,1
1115,1115,-0.6038287093935912,-0.6,0.0,1.0,463.0,910.0,1.0,0,357.0,1
1116,1116,-0.054082855134107266,-0.1,0.0,1.0,287.0,727.0,1.0,0,1986.0,1
1117,1117,0.24713302210825405,0.2,1.0,1.0,445.0,922.0,1.0,1,403.0,1
1118,1118,0.519871813442189,0.5,1.0,1.0,484.0,849.0,1.0,1,157.0,1
1119,1119,-0.7202475965356203,-0.7,1.0,0.0,270.0,761.0,0.0,0,159.0,1
1120,1120,-0.2562016950049839,-0.3,0.0,1.0,493.0,956.0,1.0,0,201.0,1
1121,1121,0.7714909235805084,0.8,0.0,0.0,281.0,706.0,0.0,1,123.0,1
1122,1122,0.7157019369876653,0.7,1.0,1.0,282.0,939.0,1.0,1,109.0,1
1123,1123,0.517124405988942,0.5,1.0,1.0,351.0,553.0,1.0,1,246.0,1
1124,1124,0.37852694412476595,0.4,0.0,0.0,381.0,659.0,0.0,1,220.0,1
1125,1125,0.4621429607065616,0.5,1.0,1.0,259.0,789.0,1.0,1,222.0,1
1126,1126,0.008862256730234774,0.0,1.0,1.0,443.0,752.0,1.0,1,1805.0,1
1127,1127,-0.796426192184296,-0.8,1.0,0.0,429.0,618.0,0.0,0,173.0,1
1128,1128,0.08797431618671503,0.1,1.0,1.0,317.0,785.0,1.0,1,568.0,1
1129,1129,0.09203173317286018,0.1,0.0,0.0,494.0,587.0,0.0,1,729.0,1
1130,1130,-0.4277295260097767,-0.4,0.0,1.0,306.0,721.0,1.0,0,323.0,1
1131,1131,-0.4357687255195785,-0.4,0.0,1.0,375.0,623.0,1.0,0,102.0,1
1132,1132,-0.1543893941008756,-0.2,0.0,1.0,319.0,559.0,1.0,0,672.0,1
1133,1133,0.5526058542611579,0.6,1.0,1.0,336.0,852.0,1.0,1,292.0,1
1134,1134,-0.578074590356199,-0.6,0.0,1.0,380.0,617.0,1.0,0,253.0,1
1135,1135,-0.39226239313664724,-0.4,0.0,1.0,289.0,903.0,1.0,0,628.0,1
1136,1136,-0.45129718912691164,-0.5,0.0,1.0,418.0,897.0,1.0,0,205.0,1
1137,1137,-0.12700398261590629,-0.1,0.0,1.0,282.0,877.0,1.0,0,411.0,1
1138,1138,-0.5104303143244123,-0.5,1.0,0.0,304.0,521.0,0.0,0,225.0,1
1139,1139,0.5663330815393189,0.6,0.0,0.0,343.0,676.0,0.0,1,201.0,1
1140,1140,-0.4251439169254942,-0.4,0.0,1.0,379.0,510.0,1.0,0,261.0,1
1141,1141,0.8289350350708852,0.8,1.0,1.0,393.0,704.0,1.0,1,113.0,1
1142,1142,-0.1988039793029811,-0.2,0.0,1.0,277.0,564.0,1.0,0,399.0,1
1143,1143,0.27794384419735285,0.3,0.0,0.0,314.0,891.0,0.0,1,255.0,1
1144,1144,0.6469587705841747,0.6,0.0,0.0,281.0,721.0,0.0,1,88.0,1
1145,1145,-0.8620128484017539,-0.9,0.0,1.0,449.0,788.0,1.0,0,183.0,1
1146,1146,-0.8981480295398518,-0.9,1.0,0.0,451.0,578.0,0.0,0,301.0,1
1147,1147,-0.7652357989143395,-0.8,0.0,1.0,322.0,642.0,1.0,0,256.0,1
1148,1148,-0.2032787461337885,-0.2,1.0,0.0,403.0,640.0,0.0,0,217.0,1
1149,1149,-0.18150270509262112,-0.2,0.0,1.0,376.0,503.0,1.0,0,1281.0,1
1150,1150,0.651784638439466,0.7,0.0,0.0,442.0,667.0,0.0,1,151.0,1
1151,1151,-0.75787448357454,-0.8,1.0,0.0,400.0,847.0,0.0,0,83.0,1
1152,1152,0.8711567644353452,0.9,0.0,0.0,403.0,865.0,0.0,1,82.0,1
1153,1153,0.11276203072450286,0.1,1.0,1.0,301.0,982.0,1.0,1,187.0,1
1154,1154,-0.09781502857366331,-0.1,1.0,0.0,393.0,750.0,0.0,0,397.0,1
1155,1155,0.13656661587307084,0.1,0.0,0.0,433.0,559.0,0.0,1,478.0,1
1156,1156,0.3019031257131176,0.3,1.0,1.0,334.0,602.0,1.0,1,574.0,1
1157,1157,-0.5445954819461734,-0.5,1.0,0.0,285.0,974.0,0.0,0,401.0,1
1158,1158,0.3046642631737907,0.3,1.0,1.0,428.0,981.0,1.0,1,221.0,1
1159,1159,-0.7192955152201376,-0.7,1.0,0.0,450.0,840.0,0.0,0,180.0,1
1160,1160,0.36618750724491467,0.4,1.0,1.0,385.0,533.0,1.0,1,222.0,1
1161,1161,0.3188943553027318,0.3,0.0,0.0,379.0,665.0,0.0,1,256.0,1
1162,1162,0.8217973329207268,0.8,1.0,1.0,373.0,726.0,1.0,1,201.0,1
1163,1163,-0.7172203396351776,-0.7,0.0,1.0,348.0,757.0,1.0,0,245.0,1
1164,1164,-0.27780468986254847,-0.3,1.0,0.0,428.0,550.0,0.0,0,342.0,1
1165,1165,0.3647565167495429,0.4,0.0,0.0,334.0,937.0,0.0,1,289.0,1
1166,1166,0.6611966600160207,0.7,1.0,1.0,265.0,540.0,1.0,1,95.0,1
1167,1167,-0.04812195603640279,-0.0,0.0,1.0,416.0,854.0,1.0,0,1730.0,1
1168,1168,-0.8061684513607934,-0.8,1.0,0.0,477.0,539.0,0.0,0,354.0,1
1169,1169,-0.7436324250262386,-0.7,1.0,0.0,405.0,602.0,0.0,0,33.0,1
1170,1170,0.3465580131427354,0.3,0.0,0.0,436.0,625.0,0.0,1,269.0,1
1171,1171,-0.3987998394597546,-0.4,0.0,1.0,404.0,862.0,1.0,0,284.0,1
1172,1172,0.045687784161245526,0.0,0.0,0.0,474.0,659.0,1.0,0,1867.0,0
1173,1173,0.06179001402743878,0.1,0.0,0.0,267.0,808.0,0.0,1,1125.0,1
1174,1174,0.7474072541894098,0.7,0.0,0.0,331.0,777.0,0.0,1,222.0,1
1175,1175,0.49749981452673475,0.5,1.0,1.0,270.0,550.0,1.0,1,320.0,1
1176,1176,-0.4280796460130012,-0.4,1.0,0.0,491.0,612.0,0.0,0,267.0,1
1177,1177,0.15863540709682622,0.2,1.0,1.0,495.0,534.0,1.0,1,661.0,1
1178,1178,-0.07745235345165213,-0.1,1.0,0.0,341.0,781.0,0.0,0,818.0,1
1179,1179,0.8016434792041335,0.8,1.0,1.0,442.0,934.0,1.0,1,154.0,1
1180,1180,0.819847664758861,0.8,0.0,0.0,352.0,519.0,0.0,1,259.0,1
1181,1181,-0.31400289999157516,-0.3,0.0,1.0,439.0,700.0,1.0,0,221.0,1
1182,1182,-0.8073832546467673,-0.8,1.0,0.0,437.0,874.0,0.0,0,-521.0,1
1183,1183,-0.48390973623911043,-0.5,0.0,1.0,314.0,769.0,1.0,0,287.0,1
1184,1184,-0.645620405030179,-0.6,0.0,1.0,279.0,549.0,1.0,0,112.0,1
1185,1185,-0.8293629715003275,-0.8,0.0,1.0,374.0,893.0,1.0,0,123.0,1
1186,1186,-0.05452436752920853,-0.1,1.0,0.0,473.0,915.0,0.0,0,1612.0,1
1187,1187,-0.5231852277347746,-0.5,1.0,0.0,470.0,686.0,0.0,0,314.0,1
1188,1188,0.053939568435140584,0.1,1.0,1.0,487.0,972.0,1.0,1,1141.0,1
1189,1189,0.4701951783504864,0.5,1.0,1.0,266.0,903.0,1.0,1,151.0,1
1190,1190,0.05962228621268262,0.1,1.0,1.0,477.0,684.0,1.0,1,1129.0,1
1191,1191,-0.33972886189342644,-0.3,0.0,1.0,293.0,504.0,1.0,0,223.0,1
1192,1192,0.29585100601229064,0.3,1.0,1.0,368.0,955.0,1.0,1,387.0,1
1193,1193,-0.23434288822573346,-0.2,0.0,1.0,474.0,578.0,1.0,0,908.0,1
1194,1194,-0.7258786267301062,-0.7,0.0,1.0,453.0,520.0,1.0,0,157.0,1
1195,1195,0.5462453655898193,0.5,0.0,0.0,442.0,592.0,0.0,1,226.0,1
1196,1196,0.7567818898827817,0.8,0.0,0.0,419.0,529.0,0.0,1,212.0,1
1197,1197,0.22493412805469892,0.2,1.0,1.0,370.0,688.0,1.0,1,402.0,1
1198,1198,0.3421808623676469,0.3,1.0,1.0,449.0,907.0,1.0,1,174.0,1
1199,1199,-0.8767583988487079,-0.9,1.0,0.0,487.0,589.0,0.0,0,114.0,1
1200,1200,-0.4537485340401075,-0.5,0.0,1.0,443.0,510.0,1.0,0,247.0,1
1201,1201,0.4745470520515481,0.5,1.0,1.0,493.0,718.0,1.0,1,189.0,1
1202,1202,-0.32382614016271716,-0.3,1.0,0.0,486.0,740.0,0.0,0,184.0,1
1203,1203,-0.6980978843936414,-0.7,1.0,0.0,423.0,874.0,0.0,0,213.0,1
1204,1204,-0.7551935122796373,-0.8,0.0,1.0,476.0,570.0,1.0,0,144.0,1
1205,1205,0.23095643116841857,0.2,0.0,0.0,362.0,578.0,0.0,1,190.0,1
1206,1206,-0.5636423486879314,-0.6,0.0,1.0,397.0,919.0,1.0,0,314.0,1
1207,1207,-0.5787012565702117,-0.6,1.0,0.0,452.0,903.0,0.0,0,145.0,1
1208,1208,-0.024379040740854174,-0.0,1.0,0.0,255.0,813.0,0.0,0,1932.0,1
1209,1209,0.5910136988145788,0.6,1.0,1.0,395.0,682.0,1.0,1,513.0,1
1210,1210,-0.7980726354426386,-0.8,1.0,0.0,401.0,869.0,0.0,0,90.0,1
1211,1211,-0.5278102031922078,-0.5,1.0,0.0,418.0,912.0,0.0,0,280.0,1
1212,1212,0.8924296400535104,0.9,1.0,1.0,453.0,858.0,1.0,1,109.0,1
1213,1213,0.1196713210422341,0.1,0.0,0.0,378.0,543.0,0.0,1,319.0,1
1214,1214,-0.7417360485279463,-0.7,0.0,1.0,414.0,831.0,1.0,0,295.0,1
1215,1215,0.22076747801139007,0.2,0.0,0.0,476.0,640.0,0.0,1,84.0,1
1216,1216,-0.19662822776107802,-0.2,0.0,1.0,272.0,934.0,0.0,1,-316.0,0
1217,1217,-0.3006003659091664,-0.3,0.0,1.0,487.0,590.0,1.0,0,483.0,1
1218,1218,0.6949873858975607,0.7,0.0,0.0,330.0,937.0,0.0,1,153.0,1
1219,1219,0.6900287791942866,0.7,0.0,0.0,316.0,745.0,0.0,1,229.0,1
1220,1220,-0.7014276318078555,-0.7,0.0,1.0,439.0,508.0,1.0,0,193.0,1
1221,1221,0.6507558085937754,0.7,1.0,1.0,350.0,837.0,1.0,1,193.0,1
1222,1222,0.1895207194325682,0.2,1.0,1.0,291.0,658.0,1.0,1,491.0,1
1223,1223,-0.2774355040890487,-0.3,1.0,0.0,491.0,884.0,0.0,0,325.0,1
1224,1224,0.8254782119889451,0.8,0.0,0.0,269.0,997.0,0.0,1,114.0,1
1225,1225,0.3916378773188177,0.4,0.0,0.0,463.0,545.0,0.0,1,232.0,1
1226,1226,-0.028907039222398012,-0.0,0.0,1.0,377.0,979.0,0.0,1,1234.0,0
1227,1227,-0.439413858842632,-0.4,0.0,1.0,422.0,957.0,1.0,0,161.0,1
1228,1228,-0.4985898336170048,-0.5,1.0,0.0,271.0,673.0,0.0,0,326.0,1
1229,1229,0.830681220205917,0.8,0.0,0.0,309.0,513.0,0.0,1,148.0,1
1230,1230,-0.5502055402649672,-0.6,1.0,0.0,356.0,572.0,0.0,0,262.0,1
1231,1231,0.8561051703081789,0.9,0.0,0.0,293.0,711.0,0.0,1,136.0,1
1232,1232,-0.4713422558355127,-0.5,1.0,0.0,398.0,997.0,0.0,0,335.0,1
1233,1233,0.7356547379962016,0.7,0.0,0.0,273.0,822.0,0.0,1,85.0,1
1234,1234,-0.4750155929247521,-0.5,1.0,0.0,300.0,992.0,0.0,0,298.0,1
1235,1235,0.8080901680172955,0.8,1.0,1.0,488.0,522.0,1.0,1,270.0,1
1236,1236,-0.06753384081585434,-0.1,0.0,1.0,359.0,721.0,1.0,0,1670.0,1
1237,1237,-0.7038095080030975,-0.7,0.0,1.0,458.0,694.0,1.0,0,198.0,1
1238,1238,-0.3876181495519412,-0.4,0.0,1.0,366.0,763.0,1.0,0,371.0,1
1239,1239,0.24522469643039269,0.2,1.0,1.0,271.0,863.0,1.0,1,306.0,1
1240,1240,0.003405194423885316,0.0,1.0,1.0,310.0,877.0,0.0,0,1313.0,0
1241,1241,-0.8007323246250141,-0.8,1.0,0.0,426.0,855.0,0.0,0,279.0,1
1242,1242,0.8365731326231173,0.8,0.0,0.0,268.0,740.0,0.0,1,112.0,1
1243,1243,0.20514107166808893,0.2,0.0,0.0,304.0,596.0,0.0,1,520.0,1
1244,1244,0.8702098044314751,0.9,0.0,0.0,259.0,548.0,0.0,1,253.0,1
1245,1245,-0.817924347084776,-0.8,0.0,1.0,382.0,532.0,1.0,0,136.0,1
1246,1246,0.6330913853667747,0.6,0.0,0.0,401.0,541.0,0.0,1,118.0,1
1247,1247,0.6056681060884276,0.6,1.0,1.0,442.0,709.0,1.0,1,289.0,1
1248,1248,0.5199751097502744,0.5,0.0,0.0,377.0,618.0,0.0,1,95.0,1
1249,1249,0.712518095315925,0.7,1.0,1.0,259.0,643.0,1.0,1,228.0,1
1250,1250,0.5188019425528806,0.5,0.0,0.0,346.0,676.0,0.0,1,128.0,1
1251,1251,-0.42056238517691796,-0.4,1.0,0.0,359.0,512.0,0.0,0,239.0,1
1252,1252,0.7230132486155968,0.7,0.0,0.0,410.0,589.0,0.0,1,101.0,1
1253,1253,0.5291234041436413,0.5,1.0,1.0,336.0,522.0,1.0,1,232.0,1
1254,1254,-0.1967818647125983,-0.2,1.0,0.0,252.0,934.0,0.0,0,704.0,1
1255,1255,-0.02671850300560996,-0.0,1.0,0.0,258.0,895.0,0.0,0,1227.0,1
1256,1256,0.5467360758757903,0.5,1.0,1.0,291.0,776.0,1.0,1,143.0,1
1257,1257,-0.009878783857502627,-0.0,1.0,0.0,440.0,788.0,0.0,0,182.0,1
1258,1258,-0.3207746250555249,-0.3,0.0,1.0,334.0,545.0,1.0,0,461.0,1
1259,1259,0.31514526196565107,0.3,1.0,1.0,329.0,512.0,1.0,1,259.0,1
1260,1260,-0.5973508009150823,-0.6,0.0,1.0,444.0,969.0,1.0,0,227.0,1
1261,1261,0.7523516653527106,0.8,0.0,0.0,345.0,655.0,0.0,1,90.0,1
1262,1262,0.39706304860874597,0.4,1.0,1.0,303.0,601.0,1.0,1,166.0,1
1263,1263,0.08135033114982493,0.1,0.0,0.0,478.0,761.0,0.0,1,231.0,1
1264,1264,-0.5088865755257164,-0.5,1.0,0.0,423.0,502.0,0.0,0,225.0,1
1265,1265,-0.46903026955549093,-0.5,0.0,1.0,487.0,507.0,1.0,0,446.0,1
1266,1266,-0.1035792957932854,-0.1,1.0,0.0,487.0,510.0,0.0,0,393.0,1
1267,1267,0.44621821315456967,0.4,1.0,1.0,294.0,779.0,1.0,1,227.0,1
1268,1268,0.5067480550703675,0.5,0.0,0.0,438.0,548.0,0.0,1,154.0,1
1269,1269,0.3648950406399546,0.4,0.0,0.0,418.0,673.0,0.0,1,419.0,1
1270,1270,-0.5661375108026294,-0.6,1.0,0.0,416.0,627.0,0.0,0,137.0,1
1271,1271,-0.06162845567320441,-0.1,1.0,0.0,482.0,789.0,0.0,0,1729.0,1
1272,1272,-0.693379731930658,-0.7,0.0,1.0,338.0,892.0,1.0,0,220.0,1
1273,1273,0.7155847686673741,0.7,0.0,0.0,333.0,845.0,0.0,1,142.0,1
1274,1274,-0.10383248020843516,-0.1,1.0,0.0,464.0,854.0,0.0,0,522.0,1
1275,1275,0.43424167636747557,0.4,0.0,0.0,259.0,795.0,0.0,1,106.0,1
1276,1276,-0.3354740212980778,-0.3,0.0,1.0,253.0,651.0,1.0,0,186.0,1
1277,1277,0.05515832808246568,0.1,1.0,1.0,440.0,623.0,1.0,1,1937.0,1
1278,1278,-0.2876749758288645,-0.3,0.0,1.0,333.0,608.0,1.0,0,249.0,1
1279,1279,0.30967360145290657,0.3,0.0,0.0,348.0,528.0,0.0,1,184.0,1
1280,1280,-0.05426942567764059,-0.1,0.0,1.0,306.0,536.0,1.0,0,688.0,1
1281,1281,-0.3968629154940849,-0.4,0.0,1.0,390.0,561.0,1.0,0,409.0,1
1282,1282,0.5509871746448457,0.6,1.0,1.0,465.0,540.0,1.0,1,255.0,1
1283,1283,-0.5654665707923305,-0.6,0.0,1.0,468.0,808.0,1.0,0,264.0,1
1284,1284,-0.3012151664557656,-0.3,1.0,0.0,444.0,591.0,0.0,0,285.0,1
1285,1285,-0.4680491764279424,-0.5,0.0,1.0,468.0,755.0,1.0,0,7.0,1
1286,1286,0.6754775795909312,0.7,0.0,0.0,311.0,947.0,0.0,1,82.0,1
1287,1287,0.4035627760027366,0.4,1.0,1.0,410.0,819.0,1.0,1,141.0,1
1288,1288,-0.44393111472081825,-0.4,0.0,1.0,448.0,918.0,1.0,0,194.0,1
1289,1289,-0.26614364425510406,-0.3,0.0,1.0,355.0,734.0,1.0,0,511.0,1
1290,1290,-0.8199184513488736,-0.8,1.0,0.0,461.0,515.0,0.0,0,174.0,1
1291,1291,-0.17853026526047366,-0.2,1.0,0.0,496.0,538.0,0.0,0,586.0,1
1292,1292,0.267083181627657,0.3,1.0,1.0,448.0,964.0,1.0,1,708.0,1
1293,1293,-0.43446984413632844,-0.4,0.0,1.0,403.0,762.0,1.0,0,245.0,1
1294,1294,-0.5027702441574073,-0.5,0.0,1.0,415.0,880.0,1.0,0,305.0,1
1295,1295,0.7443054059712574,0.7,0.0,0.0,257.0,553.0,0.0,1,90.0,1
1296,1296,-0.03796612767426166,-0.0,1.0,0.0,270.0,931.0,0.0,0,1799.0,1
1297,1297,-0.15859759515672478,-0.2,1.0,0.0,383.0,777.0,0.0,0,430.0,1
1298,1298,0.7308189351724065,0.7,0.0,0.0,266.0,815.0,0.0,1,209.0,1
1299,1299,0.026404708660429876,0.0,0.0,0.0,311.0,555.0,0.0,1,2134.0,1
1300,1300,-0.48365363428985747,-0.5,0.0,1.0,276.0,648.0,1.0,0,286.0,1
1301,1301,0.046206447503777226,0.0,0.0,0.0,342.0,976.0,0.0,1,1682.0,1
1302,1302,0.7032036253483381,0.7,1.0,1.0,322.0,885.0,1.0,1,163.0,1
1303,1303,0.44509317188713216,0.4,1.0,1.0,349.0,899.0,1.0,1,202.0,1
1304,1304,-0.7335172761689364,-0.7,0.0,1.0,394.0,581.0,1.0,0,245.0,1
1305,1305,0.28007844225980094,0.3,0.0,0.0,270.0,616.0,0.0,1,354.0,1
1306,1306,0.4629700112751379,0.5,1.0,1.0,263.0,725.0,1.0,1,292.0,1
1307,1307,0.8071290059033135,0.8,0.0,0.0,373.0,646.0,0.0,1,181.0,1
1308,1308,-0.7447890116114957,-0.7,1.0,0.0,460.0,608.0,0.0,0,102.0,1
1309,1309,0.05611068189187962,0.1,0.0,0.0,480.0,880.0,0.0,1,640.0,1
1310,1310,0.715492133665293,0.7,0.0,0.0,292.0,937.0,0.0,1,141.0,1
1311,1311,0.5893272802840436,0.6,0.0,0.0,304.0,995.0,0.0,1,241.0,1
1312,1312,-0.21586171127355014,-0.2,0.0,1.0,329.0,680.0,1.0,0,671.0,1
1313,1313,-0.5677027969691606,-0.6,1.0,0.0,473.0,842.0,0.0,0,315.0,1
1314,1314,-0.47069124887779185,-0.5,0.0,1.0,495.0,824.0,1.0,0,201.0,1
1315,1315,-0.7575434121657457,-0.8,1.0,0.0,336.0,923.0,0.0,0,351.0,1
1316,1316,-0.4212409444298036,-0.4,0.0,1.0,338.0,819.0,1.0,0,163.0,1
1317,1317,-0.18238259673699564,-0.2,1.0,0.0,367.0,606.0,0.0,0,297.0,1
1318,1318,0.17449744685311985,0.2,0.0,0.0,291.0,925.0,0.0,1,-576.0,1
1319,1319,0.02312740449379025,0.0,1.0,1.0,458.0,802.0,1.0,1,880.0,1
1320,1320,-0.09580688632966083,-0.1,0.0,1.0,392.0,828.0,1.0,0,90.0,1
1321,1321,0.7170240379271057,0.7,1.0,1.0,338.0,979.0,1.0,1,103.0,1
1322,1322,-0.8416009234800094,-0.8,1.0,0.0,456.0,867.0,0.0,0,147.0,1
1323,1323,-0.44602171939994956,-0.4,0.0,1.0,376.0,780.0,1.0,0,254.0,1
1324,1324,0.6898089520436693,0.7,0.0,0.0,358.0,710.0,0.0,1,182.0,1
1325,1325,0.11901708784596166,0.1,0.0,0.0,333.0,642.0,0.0,1,625.0,1
1326,1326,0.4510269259058145,0.5,0.0,0.0,316.0,563.0,0.0,1,181.0,1
1327,1327,0.652275342479924,0.7,1.0,1.0,347.0,780.0,1.0,1,463.0,1
1328,1328,0.202315704430574,0.2,0.0,0.0,409.0,768.0,0.0,1,593.0,1
1329,1329,-0.32676567739863116,-0.3,1.0,0.0,430.0,776.0,0.0,0,414.0,1
1330,1330,0.3463046088050955,0.3,1.0,1.0,492.0,507.0,1.0,1,471.0,1
1331,1331,0.585562857528454,0.6,0.0,0.0,325.0,871.0,0.0,1,214.0,1
1332,1332,-0.7926013461606068,-0.8,1.0,0.0,426.0,726.0,0.0,0,248.0,1
1333,1333,0.5064550567469476,0.5,1.0,1.0,471.0,811.0,1.0,1,268.0,1
1334,1334,-0.3050391051537774,-0.3,1.0,0.0,403.0,715.0,0.0,0,322.0,1
1335,1335,-0.8742306448634621,-0.9,0.0,1.0,348.0,631.0,1.0,0,311.0,1
1336,1336,-0.584331398292366,-0.6,0.0,1.0,252.0,765.0,1.0,0,153.0,1
1337,1337,-0.3733413696871323,-0.4,1.0,0.0,288.0,864.0,0.0,0,228.0,1
1338,1338,0.3704263588321405,0.4,0.0,0.0,330.0,877.0,0.0,1,323.0,1
1339,1339,-0.3569567879275438,-0.4,1.0,0.0,325.0,896.0,0.0,0,449.0,1
1340,1340,-0.7718378654006107,-0.8,0.0,1.0,295.0,838.0,1.0,0,127.0,1
1341,1341,-0.23253948621290532,-0.2,0.0,1.0,410.0,987.0,0.0,1,-47.0,0
1342,1342,-0.6453636321190597,-0.6,1.0,0.0,258.0,688.0,0.0,0,324.0,1
1343,1343,0.774523125850015,0.8,0.0,0.0,373.0,963.0,0.0,1,114.0,1
1344,1344,0.5306461054595594,0.5,0.0,0.0,405.0,613.0,0.0,1,112.0,1
1345,1345,-0.657541344999046,-0.7,0.0,1.0,257.0,614.0,1.0,0,159.0,1
1346,1346,-0.3767054215670641,-0.4,1.0,0.0,293.0,928.0,0.0,0,169.0,1
1347,1347,-0.4924223049763715,-0.5,1.0,0.0,286.0,585.0,0.0,0,269.0,1
1348,1348,-0.36035646681163824,-0.4,1.0,0.0,394.0,697.0,0.0,0,489.0,1
1349,1349,-0.04742013047770555,-0.0,1.0,0.0,265.0,616.0,0.0,0,1779.0,1
1350,1350,-0.8985744443667832,-0.9,1.0,0.0,398.0,933.0,0.0,0,289.0,1
1351,1351,0.10566048475350376,0.1,0.0,0.0,366.0,808.0,0.0,1,646.0,1
1352,1352,-0.10878410999835664,-0.1,0.0,1.0,316.0,548.0,1.0,0,806.0,1
1353,1353,0.33521855535593315,0.3,0.0,0.0,354.0,827.0,0.0,1,259.0,1
1354,1354,-0.8124183946603121,-0.8,0.0,1.0,382.0,937.0,1.0,0,191.0,1
1355,1355,-0.5346807395322243,-0.5,1.0,0.0,402.0,937.0,0.0,0,591.0,1
1356,1356,0.6839818726155481,0.7,0.0,0.0,414.0,569.0,0.0,1,117.0,1
1357,1357,0.7500151334608095,0.8,1.0,1.0,302.0,770.0,1.0,1,168.0,1
1358,1358,-0.1594971830628492,-0.2,1.0,0.0,287.0,692.0,0.0,0,441.0,1
1359,1359,0.30087425078298125,0.3,1.0,1.0,454.0,889.0,0.0,0,-133.0,0
1360,1360,-0.7738554325394394,-0.8,1.0,0.0,334.0,983.0,0.0,0,243.0,1
1361,1361,-0.3398670564468207,-0.3,1.0,0.0,388.0,636.0,0.0,0,336.0,1
1362,1362,0.7448096585104204,0.7,0.0,0.0,321.0,606.0,0.0,1,103.0,1
1363,1363,-0.7035829029410321,-0.7,1.0,0.0,264.0,554.0,0.0,0,402.0,1
1364,1364,-0.8612064389678735,-0.9,0.0,1.0,266.0,960.0,1.0,0,234.0,1
1365,1365,-0.6996429738435286,-0.7,0.0,1.0,287.0,771.0,1.0,0,212.0,1
1366,1366,0.014057158072059206,0.0,0.0,0.0,360.0,556.0,0.0,1,1144.0,1
1367,1367,0.6407929718117625,0.6,1.0,1.0,340.0,758.0,1.0,1,182.0,1
1368,1368,0.2830521984889268,0.3,0.0,0.0,271.0,650.0,0.0,1,229.0,1
1369,1369,0.169147663351643,0.2,1.0,1.0,356.0,972.0,1.0,1,772.0,1
1370,1370,-0.8035003334964462,-0.8,1.0,0.0,271.0,959.0,0.0,0,220.0,1
1371,1371,0.8527048295342857,0.9,1.0,1.0,358.0,608.0,1.0,1,274.0,1
1372,1372,0.7778449991255959,0.8,1.0,1.0,290.0,590.0,1.0,1,140.0,1
1373,1373,-0.7423823244431511,-0.7,1.0,0.0,400.0,890.0,0.0,0,210.0,1
1374,1374,0.37913750369015153,0.4,0.0,0.0,279.0,659.0,0.0,1,242.0,1
1375,1375,-0.15891410025725616,-0.2,0.0,1.0,487.0,647.0,1.0,0,866.0,1
1376,1376,-0.7483888731217565,-0.7,1.0,0.0,461.0,732.0,0.0,0,117.0,1
1377,1377,-0.8119960444413374,-0.8,0.0,1.0,435.0,514.0,1.0,0,181.0,1
1378,1378,0.1661922533579444,0.2,0.0,0.0,492.0,767.0,0.0,1,431.0,1
1379,1379,-0.5378558027632607,-0.5,1.0,0.0,338.0,970.0,0.0,0,212.0,1
1380,1380,-0.045608013829037564,-0.0,0.0,1.0,372.0,528.0,1.0,0,2100.0,1
1381,1381,0.3660688698223483,0.4,1.0,1.0,499.0,831.0,1.0,1,280.0,1
1382,1382,0.062077896612601546,0.1,1.0,1.0,339.0,607.0,1.0,1,1014.0,1
1383,1383,-0.5375086855803135,-0.5,1.0,0.0,314.0,668.0,0.0,0,408.0,1
1384,1384,0.28302182758306194,0.3,1.0,1.0,335.0,588.0,1.0,1,357.0,1
1385,1385,0.8781403372319666,0.9,0.0,0.0,469.0,578.0,0.0,1,83.0,1
1386,1386,-0.23263566785118606,-0.2,0.0,1.0,484.0,641.0,1.0,0,265.0,1
1387,1387,-0.4689118393514549,-0.5,0.0,1.0,316.0,525.0,1.0,0,189.0,1
1388,1388,-0.47575680118036395,-0.5,1.0,0.0,277.0,980.0,0.0,0,203.0,1
1389,1389,-0.11983307972365997,-0.1,1.0,0.0,325.0,723.0,0.0,0,302.0,1
1390,1390,0.2058729942659493,0.2,1.0,1.0,311.0,968.0,1.0,1,431.0,1
1391,1391,0.8226284512587464,0.8,0.0,0.0,352.0,880.0,0.0,1,88.0,1
1392,1392,-0.3550573933100223,-0.4,0.0,1.0,373.0,580.0,1.0,0,337.0,1
1393,1393,0.7714288037903988,0.8,1.0,1.0,396.0,989.0,1.0,1,275.0,1
1394,1394,0.8620938490636537,0.9,0.0,0.0,476.0,890.0,0.0,1,144.0,1
1395,1395,0.49408242656669066,0.5,0.0,0.0,277.0,530.0,0.0,1,103.0,1
1396,1396,-0.3030275449279439,-0.3,1.0,0.0,381.0,621.0,0.0,0,818.0,1
1397,1397,-0.16424453978602593,-0.2,1.0,0.0,391.0,810.0,0.0,0,89.0,1
1398,1398,-0.5280105333880081,-0.5,0.0,1.0,468.0,673.0,1.0,0,449.0,1
1399,1399,-0.6458496214461096,-0.6,0.0,1.0,371.0,577.0,1.0,0,172.0,1
1400,1400,0.8485631208314418,0.8,0.0,0.0,258.0,992.0,0.0,1,30.0,1
1401,1401,-0.16092658429011064,-0.2,1.0,0.0,332.0,587.0,0.0,0,451.0,1
1402,1402,0.1851940745706998,0.2,1.0,1.0,429.0,794.0,1.0,1,447.0,1
1403,1403,0.0427859764565206,0.0,0.0,0.0,275.0,698.0,0.0,1,347.0,1
1404,1404,-0.030123077867662773,-0.0,0.0,1.0,457.0,617.0,1.0,0,546.0,1
1405,1405,-0.47117350993680623,-0.5,0.0,1.0,331.0,643.0,1.0,0,226.0,1
1406,1406,-0.08694892466723725,-0.1,1.0,0.0,495.0,504.0,0.0,0,1891.0,1
1407,1407,0.8563247493891198,0.9,0.0,0.0,284.0,777.0,0.0,1,79.0,1
1408,1408,-0.7188734733495894,-0.7,1.0,0.0,269.0,570.0,0.0,0,221.0,1
1409,1409,0.36711073179092957,0.4,1.0,1.0,324.0,846.0,1.0,1,130.0,1
1410,1410,0.6345390229389701,0.6,0.0,0.0,360.0,530.0,0.0,1,170.0,1
1411,1411,0.21938358828474025,0.2,1.0,1.0,282.0,656.0,1.0,1,372.0,1
1412,1412,0.03530506710071046,0.0,0.0,0.0,287.0,961.0,0.0,1,922.0,1
1413,1413,-0.04874954394258757,-0.0,1.0,0.0,330.0,830.0,0.0,0,700.0,1
1414,1414,-0.272146606349402,-0.3,1.0,0.0,314.0,796.0,0.0,0,270.0,1
1415,1415,0.004876939986699247,0.0,1.0,1.0,304.0,593.0,1.0,1,2103.0,1
1416,1416,-0.5502797973918206,-0.6,0.0,1.0,357.0,977.0,1.0,0,326.0,1
1417,1417,0.8253002731267068,0.8,0.0,0.0,303.0,825.0,0.0,1,152.0,1
1418,1418,-0.05777891245305811,-0.1,0.0,1.0,394.0,555.0,1.0,0,2051.0,1
1419,1419,-0.4279015759169694,-0.4,1.0,0.0,312.0,516.0,0.0,0,242.0,1
1420,1420,-0.822357731752685,-0.8,1.0,0.0,309.0,792.0,0.0,0,189.0,1
1421,1421,0.1604329846021676,0.2,0.0,0.0,497.0,918.0,0.0,1,465.0,1
1422,1422,0.05588886481523081,0.1,0.0,0.0,490.0,538.0,0.0,1,1462.0,1
1423,1423,0.7077675364913781,0.7,0.0,0.0,391.0,730.0,0.0,1,209.0,1
1424,1424,-0.7576911674962101,-0.8,1.0,0.0,464.0,509.0,0.0,0,207.0,1
1425,1425,-0.769047964150547,-0.8,1.0,0.0,370.0,703.0,0.0,0,287.0,1
1426,1426,0.3633272554024266,0.4,1.0,1.0,329.0,944.0,1.0,1,237.0,1
1427,1427,0.5187550420151951,0.5,1.0,1.0,338.0,529.0,1.0,1,83.0,1
1428,1428,-0.840971487356443,-0.8,1.0,0.0,333.0,553.0,0.0,0,124.0,1
1429,1429,0.7999051671605194,0.8,1.0,1.0,389.0,563.0,1.0,1,248.0,1
1430,1430,-0.27946133853565336,-0.3,1.0,0.0,422.0,754.0,0.0,0,234.0,1
1431,1431,0.5711492032841868,0.6,1.0,1.0,370.0,559.0,1.0,1,161.0,1
1432,1432,0.0661279890187566,0.1,0.0,0.0,431.0,910.0,0.0,1,189.0,1
1433,1433,-0.7583623340534341,-0.8,0.0,1.0,341.0,819.0,1.0,0,200.0,1
1434,1434,0.383805627185808,0.4,1.0,1.0,476.0,693.0,1.0,1,161.0,1
1435,1435,-0.21034809464062465,-0.2,1.0,0.0,250.0,514.0,0.0,0,356.0,1
1436,1436,-0.025482292091567382,-0.0,0.0,1.0,298.0,571.0,1.0,0,2131.0,1
1437,1437,0.590230180287204,0.6,0.0,0.0,250.0,897.0,0.0,1,123.0,1
1438,1438,0.7968154570893292,0.8,0.0,0.0,499.0,876.0,0.0,1,85.0,1
1439,1439,0.728951706346416,0.7,0.0,0.0,358.0,572.0,0.0,1,60.0,1
1440,1440,0.1327109379073651,0.1,0.0,0.0,391.0,898.0,0.0,1,191.0,1
1441,1441,0.7492860229129977,0.7,1.0,1.0,279.0,603.0,1.0,1,48.0,1
1442,1442,0.8534506681984141,0.9,1.0,1.0,470.0,954.0,1.0,1,66.0,1
1443,1443,0.3385654344822232,0.3,0.0,0.0,371.0,698.0,0.0,1,421.0,1
1444,1444,-0.6772941472227094,-0.7,1.0,0.0,396.0,704.0,0.0,0,220.0,1
1445,1445,-0.7705889135095672,-0.8,0.0,1.0,343.0,983.0,1.0,0,164.0,1
1446,1446,-0.542282696222657,-0.5,1.0,0.0,315.0,969.0,0.0,0,176.0,1
1447,1447,0.14280114378604758,0.1,1.0,1.0,464.0,724.0,1.0,1,252.0,1
1448,1448,0.7060266737151187,0.7,0.0,0.0,418.0,756.0,0.0,1,126.0,1
1449,1449,0.8239238128100118,0.8,1.0,1.0,429.0,865.0,1.0,1,136.0,1
1450,1450,-0.029327314783258895,-0.0,0.0,1.0,325.0,679.0,0.0,1,-204.0,0
1451,1451,0.2919838162266025,0.3,1.0,1.0,478.0,829.0,1.0,1,23.0,1
1452,1452,-0.48925694729513514,-0.5,1.0,0.0,338.0,588.0,0.0,0,164.0,1
1453,1453,0.7957276914242578,0.8,0.0,0.0,319.0,781.0,0.0,1,230.0,1
1454,1454,-0.8459331630715566,-0.8,1.0,0.0,446.0,705.0,0.0,0,199.0,1
1455,1455,0.2197072363937843,0.2,0.0,0.0,400.0,977.0,0.0,1,-47.0,1
1456,1456,0.45910324408658754,0.5,1.0,1.0,330.0,643.0,1.0,1,297.0,1
1457,1457,-0.29348236483727064,-0.3,1.0,0.0,292.0,994.0,0.0,0,174.0,1
1458,1458,0.1936086661402031,0.2,1.0,1.0,393.0,832.0,1.0,1,565.0,1
1459,1459,0.5560081445900339,0.6,1.0,1.0,279.0,751.0,1.0,1,400.0,1
1460,1460,0.19423134557157395,0.2,1.0,1.0,329.0,772.0,1.0,1,259.0,1
1461,1461,-0.5370393214130122,-0.5,0.0,1.0,494.0,946.0,1.0,0,370.0,1
1462,1462,-0.4128259628013527,-0.4,0.0,1.0,360.0,948.0,1.0,0,142.0,1
1463,1463,0.4882314035755021,0.5,0.0,0.0,275.0,924.0,0.0,1,171.0,1
1464,1464,0.7122922909463468,0.7,1.0,1.0,257.0,513.0,1.0,1,120.0,1
1465,1465,-0.4436860885127763,-0.4,1.0,0.0,459.0,515.0,0.0,0,306.0,1
1466,1466,0.28123995960637516,0.3,1.0,1.0,454.0,780.0,1.0,1,536.0,1
1467,1467,-0.5581370311630964,-0.6,0.0,1.0,250.0,872.0,1.0,0,298.0,1
1468,1468,0.5822483405130409,0.6,0.0,0.0,440.0,681.0,0.0,1,159.0,1
1469,1469,-0.004238463836350959,-0.0,1.0,0.0,252.0,646.0,1.0,1,2102.0,0
1470,1470,0.5760428895494271,0.6,1.0,1.0,491.0,530.0,1.0,1,249.0,1
1471,1471,0.14357023628820353,0.1,1.0,1.0,367.0,558.0,1.0,1,1085.0,1
1472,1472,0.3709544452386061,0.4,0.0,0.0,385.0,979.0,0.0,1,406.0,1
1473,1473,-0.6141153717962874,-0.6,1.0,0.0,414.0,566.0,0.0,0,490.0,1
1474,1474,0.0906979980378868,0.1,0.0,0.0,376.0,557.0,0.0,1,1047.0,1
1475,1475,-0.7113341871463672,-0.7,0.0,1.0,492.0,814.0,1.0,0,184.0,1
1476,1476,0.8213041525304784,0.8,0.0,0.0,283.0,981.0,0.0,1,76.0,1
1477,1477,0.05568020658074602,0.1,0.0,0.0,366.0,530.0,0.0,1,364.0,1
1478,1478,0.547107803712558,0.5,0.0,0.0,347.0,831.0,0.0,1,102.0,1
1479,1479,0.03842876360082892,0.0,1.0,1.0,491.0,837.0,1.0,1,1672.0,1
1480,1480,-0.5544581409166698,-0.6,0.0,1.0,481.0,734.0,1.0,0,185.0,1
1481,1481,-0.6695566767203297,-0.7,0.0,1.0,426.0,891.0,1.0,0,313.0,1
1482,1482,-0.5253736669155548,-0.5,1.0,0.0,383.0,580.0,0.0,0,267.0,1
1483,1483,0.843046512430469,0.8,0.0,0.0,405.0,685.0,0.0,1,90.0,1
1484,1484,-0.29985413121660254,-0.3,0.0,1.0,486.0,632.0,0.0,1,12.0,0
1485,1485,0.6330619160523335,0.6,1.0,1.0,398.0,956.0,1.0,1,86.0,1
1486,1486,-0.13183378346751584,-0.1,1.0,0.0,352.0,573.0,0.0,0,1185.0,1
1487,1487,0.37931994386723156,0.4,0.0,0.0,369.0,743.0,0.0,1,268.0,1
1488,1488,0.5247698594147489,0.5,0.0,0.0,445.0,854.0,0.0,1,91.0,1
1489,1489,-0.03308497180950398,-0.0,0.0,1.0,392.0,741.0,1.0,0,1227.0,1
1490,1490,0.3499891529021647,0.3,1.0,1.0,362.0,673.0,1.0,1,425.0,1
1491,1491,0.7019595463932015,0.7,1.0,1.0,468.0,916.0,1.0,1,146.0,1
1492,1492,-0.6971302335921711,-0.7,0.0,1.0,414.0,681.0,1.0,0,135.0,1
1493,1493,-0.8204615411981632,-0.8,0.0,1.0,456.0,832.0,1.0,0,132.0,1
