,trial,coherence,coherence_bin,green_side,correct_side,target_onset,checker_onset,decision,green_decision,decision_time,correct_decision
0,0,-0.6230554420725148,-0.6,0.0,1.0,294.0,567.0,1.0,0,119.0,1
1,1,0.6922043555455425,0.7,0.0,0.0,460.0,807.0,0.0,1,563.0,1
2,2,0.5281193458508592,0.5,1.0,1.0,486.0,967.0,1.0,1,497.0,1
3,3,-0.14809876644455777,-0.1,1.0,0.0,292.0,708.0,0.0,0,860.0,1
4,4,-0.7817485826907877,-0.8,1.0,0.0,355.0,764.0,0.0,0,191.0,1
5,5,0.684325459168096,0.7,1.0,1.0,421.0,942.0,1.0,1,137.0,1
6,6,0.1327085689452535,0.1,1.0,1.0,383.0,572.0,1.0,1,2045.0,1
7,7,0.45500751081128554,0.5,0.0,0.0,432.0,758.0,0.0,1,560.0,1
8,8,0.184515347975308,0.2,0.0,0.0,271.0,906.0,0.0,1,1443.0,1
9,9,0.7941481070331057,0.8,1.0,1.0,338.0,594.0,1.0,1,808.0,1
10,10,-0.8427467483728683,-0.8,1.0,0.0,359.0,557.0,0.0,0,234.0,1
11,11,-0.30041110361873247,-0.3,0.0,1.0,426.0,800.0,1.0,0,124.0,1
12,12,0.5034142450112885,0.5,0.0,0.0,352.0,638.0,0.0,1,300.0,1
13,13,0.8691010190365295,0.9,0.0,0.0,289.0,704.0,0.0,1,247.0,1
14,14,-0.4850130442339551,-0.5,0.0,1.0,305.0,925.0,1.0,0,210.0,1
15,15,0.6543249490029736,0.7,1.0,1.0,479.0,828.0,1.0,1,523.0,1
16,16,0.8658112633545257,0.9,1.0,1.0,308.0,561.0,1.0,1,401.0,1
17,17,0.2395858895075601,0.2,0.0,0.0,355.0,850.0,0.0,1,565.0,1
18,18,0.17839295951479583,0.2,1.0,1.0,358.0,867.0,1.0,1,435.0,1
19,19,-0.20377711694471512,-0.2,1.0,0.0,342.0,983.0,0.0,0,1675.0,1
20,20,-0.6069214031680679,-0.6,0.0,1.0,471.0,959.0,1.0,0,150.0,1
21,21,-0.17079121362044736,-0.2,1.0,0.0,444.0,924.0,0.0,0,822.0,1
22,22,0.6798880220217786,0.7,0.0,0.0,483.0,693.0,0.0,1,274.0,1
23,23,0.6549439228191919,0.7,0.0,0.0,368.0,870.0,0.0,1,362.0,1
24,24,0.3974774633274508,0.4,1.0,1.0,374.0,667.0,1.0,1,299.0,1
25,25,-0.17369261306010153,-0.2,1.0,0.0,429.0,779.0,0.0,0,762.0,1
26,26,0.3182933428122109,0.3,0.0,0.0,439.0,763.0,0.0,1,1798.0,1
27,27,-0.10256463395777071,-0.1,0.0,1.0,317.0,576.0,1.0,0,2107.0,1
28,28,0.03303919617306583,0.0,1.0,1.0,293.0,650.0,1.0,1,2057.0,1
29,29,0.8132437046799982,0.8,1.0,1.0,460.0,709.0,1.0,1,491.0,1
30,30,-0.4346268823095382,-0.4,0.0,1.0,483.0,653.0,1.0,0,214.0,1
31,31,-0.6972717081222201,-0.7,1.0,0.0,378.0,742.0,0.0,0,200.0,1
32,32,-0.23820595948261059,-0.2,0.0,1.0,352.0,659.0,1.0,0,229.0,1
33,33,-0.16507461626186348,-0.2,0.0,1.0,252.0,647.0,1.0,0,2101.0,1
34,34,0.7926375927722326,0.8,0.0,0.0,357.0,558.0,0.0,1,535.0,1
35,35,-0.21652783227085648,-0.2,1.0,0.0,316.0,841.0,0.0,0,743.0,1
36,36,0.18706777767231542,0.2,0.0,0.0,354.0,675.0,0.0,1,1971.0,1
37,37,-0.3357883049361571,-0.3,0.0,1.0,331.0,995.0,1.0,0,374.0,1
38,38,0.15941901216186316,0.2,0.0,0.0,264.0,951.0,0.0,1,1785.0,1
39,39,0.4770836470085943,0.5,0.0,0.0,342.0,892.0,0.0,1,306.0,1
40,40,-0.6451694599223141,-0.6,0.0,1.0,336.0,971.0,1.0,0,233.0,1
41,41,0.7480462819076618,0.7,0.0,0.0,457.0,728.0,0.0,1,285.0,1
42,42,0.43816046054042646,0.4,1.0,1.0,259.0,800.0,1.0,1,91.0,1
43,43,-0.6351599024417425,-0.6,1.0,0.0,355.0,537.0,0.0,0,758.0,1
44,44,0.5862557705940395,0.6,0.0,0.0,353.0,604.0,0.0,1,603.0,1
45,45,-0.3294362669847045,-0.3,0.0,1.0,486.0,561.0,1.0,0,1193.0,1
46,46,-0.7922602206271909,-0.8,1.0,0.0,419.0,959.0,0.0,0,202.0,1
47,47,-0.145690373064441,-0.1,1.0,0.0,487.0,666.0,0.0,0,897.0,1
48,48,-0.5206211588907108,-0.5,0.0,1.0,469.0,659.0,1.0,0,482.0,1
49,49,-0.4622968429968851,-0.5,0.0,1.0,339.0,824.0,1.0,0,677.0,1
50,50,0.23525700556389773,0.2,1.0,1.0,332.0,636.0,1.0,1,612.0,1
51,51,-0.39482631711294136,-0.4,1.0,0.0,361.0,517.0,0.0,0,222.0,1
52,52,-0.5098709960974299,-0.5,1.0,0.0,436.0,663.0,0.0,0,271.0,1
53,53,-0.7312478791828233,-0.7,0.0,1.0,404.0,517.0,1.0,0,169.0,1
54,54,-0.4640787365327681,-0.5,0.0,1.0,480.0,969.0,1.0,0,331.0,1
55,55,-0.3816832285370022,-0.4,1.0,0.0,285.0,998.0,0.0,0,507.0,1
56,56,0.17001526409017542,0.2,0.0,0.0,485.0,721.0,1.0,0,1794.0,0
57,57,0.8220476655468513,0.8,0.0,0.0,326.0,912.0,0.0,1,332.0,1
58,58,0.8475202605839097,0.8,0.0,0.0,482.0,743.0,0.0,1,275.0,1
59,59,-0.22978148179893554,-0.2,0.0,1.0,300.0,784.0,1.0,0,146.0,1
60,60,0.34587637812140104,0.3,0.0,0.0,378.0,851.0,0.0,1,591.0,1
61,61,0.3520995158849346,0.4,1.0,1.0,334.0,849.0,1.0,1,437.0,1
62,62,-0.8607528031163577,-0.9,1.0,0.0,288.0,813.0,0.0,0,189.0,1
63,63,-0.08038969959322284,-0.1,1.0,0.0,331.0,766.0,0.0,0,1903.0,1
64,64,-0.4018705995433884,-0.4,1.0,0.0,306.0,581.0,0.0,0,293.0,1
65,65,0.5264709218399676,0.5,1.0,1.0,441.0,884.0,1.0,1,1165.0,1
66,66,0.07292567788719895,0.1,1.0,1.0,318.0,734.0,1.0,1,1948.0,1
67,67,0.829295738479234,0.8,1.0,1.0,301.0,619.0,1.0,1,520.0,1
68,68,0.12978688537543726,0.1,1.0,1.0,319.0,680.0,0.0,0,2001.0,0
69,69,0.2078102616969052,0.2,0.0,0.0,305.0,818.0,1.0,0,1877.0,0
70,70,0.3058671103022227,0.3,0.0,0.0,284.0,725.0,0.0,1,431.0,1
71,71,-0.7223910970429994,-0.7,0.0,1.0,290.0,646.0,1.0,0,174.0,1
72,72,0.4969397996164683,0.5,1.0,1.0,423.0,912.0,1.0,1,765.0,1
73,73,0.5317766453300689,0.5,1.0,1.0,258.0,695.0,1.0,1,207.0,1
74,74,-0.846724852507131,-0.8,0.0,1.0,315.0,874.0,1.0,0,171.0,1
75,75,-0.7795995867437329,-0.8,1.0,0.0,482.0,939.0,0.0,0,249.0,1
76,76,0.1769146090595065,0.2,0.0,0.0,426.0,564.0,0.0,1,1630.0,1
77,77,-0.3449877299226528,-0.3,1.0,0.0,372.0,547.0,0.0,0,571.0,1
78,78,0.47177169690227505,0.5,0.0,0.0,420.0,684.0,0.0,1,406.0,1
79,79,-0.3935821353533412,-0.4,0.0,1.0,283.0,820.0,1.0,0,617.0,1
80,80,0.3790772355754152,0.4,1.0,1.0,283.0,680.0,1.0,1,327.0,1
81,81,0.595278319426909,0.6,1.0,1.0,408.0,866.0,1.0,1,226.0,1
82,82,0.541590357364515,0.5,1.0,1.0,418.0,676.0,1.0,1,136.0,1
83,83,-0.41857860991443735,-0.4,1.0,0.0,328.0,631.0,0.0,0,441.0,1
84,84,-0.05568909633616659,-0.1,0.0,1.0,463.0,677.0,1.0,0,1860.0,1
85,85,0.22800773483468195,0.2,1.0,1.0,413.0,580.0,1.0,1,2007.0,1
86,86,0.6027925910931154,0.6,1.0,1.0,361.0,749.0,1.0,1,750.0,1
87,87,0.6982694578689762,0.7,1.0,1.0,462.0,675.0,1.0,1,163.0,1
88,88,-0.8361514322047396,-0.8,1.0,0.0,441.0,790.0,0.0,0,349.0,1
89,89,-0.29568667492740486,-0.3,0.0,1.0,303.0,604.0,1.0,0,413.0,1
90,90,0.29228454193481335,0.3,1.0,1.0,470.0,519.0,1.0,1,681.0,1
91,91,-0.6448527653726341,-0.6,1.0,0.0,383.0,607.0,0.0,0,350.0,1
92,92,-0.20890712190478078,-0.2,1.0,0.0,288.0,769.0,0.0,0,483.0,1
93,93,-0.6369266197955235,-0.6,1.0,0.0,362.0,791.0,0.0,0,417.0,1
94,94,0.3877362218309347,0.4,0.0,0.0,277.0,925.0,0.0,1,648.0,1
95,95,-0.020539346162997574,-0.0,1.0,0.0,443.0,986.0,1.0,1,1571.0,0
96,96,-0.31306736343203845,-0.3,1.0,0.0,374.0,563.0,0.0,0,1503.0,1
97,97,0.3818921677376973,0.4,1.0,1.0,478.0,923.0,1.0,1,719.0,1
98,98,0.7404650572606332,0.7,0.0,0.0,338.0,652.0,0.0,1,300.0,1
99,99,-0.021376433325269617,-0.0,0.0,1.0,443.0,763.0,1.0,0,1794.0,1
100,100,0.40312354807693385,0.4,0.0,0.0,418.0,816.0,0.0,1,226.0,1
101,101,-0.7078515965421487,-0.7,0.0,1.0,434.0,912.0,1.0,0,1424.0,1
102,102,-0.5146744021628564,-0.5,0.0,1.0,405.0,517.0,1.0,0,258.0,1
103,103,-0.45708670936424983,-0.5,0.0,1.0,468.0,960.0,1.0,0,532.0,1
104,104,-0.10121356275239723,-0.1,1.0,0.0,356.0,856.0,0.0,0,388.0,1
105,105,0.49990003279270134,0.5,1.0,1.0,333.0,529.0,1.0,1,1498.0,1
106,106,-0.5333868058430952,-0.5,1.0,0.0,421.0,921.0,0.0,0,268.0,1
107,107,0.7664817430206149,0.8,0.0,0.0,434.0,716.0,0.0,1,270.0,1
108,108,-0.8677430836644338,-0.9,0.0,1.0,294.0,603.0,1.0,0,603.0,1
109,109,-0.5142159671891702,-0.5,1.0,0.0,312.0,515.0,0.0,0,443.0,1
110,110,-0.5906252023862506,-0.6,0.0,1.0,464.0,550.0,1.0,0,266.0,1
111,111,-0.7756015203327009,-0.8,0.0,1.0,284.0,641.0,1.0,0,385.0,1
112,112,-0.8088907424819258,-0.8,0.0,1.0,445.0,780.0,1.0,0,195.0,1
113,113,0.40195207167761005,0.4,0.0,0.0,346.0,862.0,0.0,1,452.0,1
114,114,-0.03139088949461177,-0.0,0.0,1.0,290.0,723.0,1.0,0,1987.0,1
115,115,-0.28553569573564375,-0.3,1.0,0.0,434.0,680.0,0.0,0,336.0,1
116,116,-0.6238107952778744,-0.6,1.0,0.0,280.0,576.0,0.0,0,244.0,1
117,117,-0.5971526701451786,-0.6,0.0,1.0,445.0,879.0,1.0,0,946.0,1
118,118,-0.4811114678880933,-0.5,1.0,0.0,448.0,505.0,0.0,0,217.0,1
119,119,-0.5392035085109862,-0.5,1.0,0.0,290.0,856.0,0.0,0,724.0,1
120,120,-0.0915653496290505,-0.1,1.0,0.0,459.0,538.0,0.0,0,2003.0,1
121,121,0.3094412561024825,0.3,1.0,1.0,480.0,795.0,1.0,1,685.0,1
122,122,-0.3993745129048135,-0.4,1.0,0.0,490.0,982.0,0.0,0,1198.0,1
123,123,0.05418447797167325,0.1,1.0,1.0,432.0,667.0,1.0,1,1901.0,1
124,124,-0.8590011191254203,-0.9,1.0,0.0,429.0,650.0,0.0,0,131.0,1
125,125,0.03473640510428144,0.0,0.0,0.0,329.0,932.0,1.0,0,1269.0,0
126,126,-0.2290380934030416,-0.2,0.0,1.0,455.0,868.0,1.0,0,1677.0,1
127,127,0.16248664307990113,0.2,1.0,1.0,407.0,937.0,1.0,1,786.0,1
128,128,-0.338904983288562,-0.3,0.0,1.0,327.0,674.0,1.0,0,949.0,1
129,129,-0.7494669547572491,-0.7,1.0,0.0,329.0,608.0,0.0,0,223.0,1
130,130,-0.12349038589362449,-0.1,0.0,1.0,425.0,623.0,1.0,0,952.0,1
131,131,0.49074919075596746,0.5,1.0,1.0,423.0,580.0,1.0,1,807.0,1
132,132,0.17647015243145991,0.2,1.0,1.0,495.0,945.0,1.0,1,1560.0,1
133,133,-0.4333853992240371,-0.4,0.0,1.0,470.0,533.0,1.0,0,1057.0,1
134,134,0.38620118161735684,0.4,1.0,1.0,477.0,703.0,1.0,1,1030.0,1
135,135,-0.7603358726856319,-0.8,0.0,1.0,354.0,861.0,1.0,0,415.0,1
136,136,0.4523029837830549,0.5,1.0,1.0,431.0,604.0,1.0,1,195.0,1
137,137,-0.6664586963895047,-0.7,1.0,0.0,284.0,769.0,0.0,0,427.0,1
138,138,-0.8416609441117295,-0.8,0.0,1.0,269.0,596.0,1.0,0,245.0,1
139,139,0.6971427869448178,0.7,0.0,0.0,252.0,880.0,0.0,1,468.0,1
140,140,-0.560343471073717,-0.6,0.0,1.0,459.0,874.0,1.0,0,247.0,1
141,141,-0.8310069084200641,-0.8,0.0,1.0,398.0,701.0,1.0,0,71.0,1
142,142,0.6797919955114357,0.7,0.0,0.0,400.0,549.0,0.0,1,341.0,1
143,143,0.46319994032706535,0.5,1.0,1.0,444.0,803.0,1.0,1,283.0,1
144,144,-0.8850878673393962,-0.9,1.0,0.0,426.0,852.0,0.0,0,322.0,1
145,145,0.7307617735116604,0.7,1.0,1.0,376.0,803.0,1.0,1,91.0,1
146,146,0.12945105520334665,0.1,0.0,0.0,346.0,518.0,0.0,1,1716.0,1
147,147,0.38989406952555894,0.4,1.0,1.0,369.0,783.0,1.0,1,1848.0,1
148,148,-0.631388753735064,-0.6,1.0,0.0,424.0,523.0,0.0,0,373.0,1
149,149,-0.5522361417911323,-0.6,0.0,1.0,357.0,971.0,1.0,0,122.0,1
150,150,-0.06996939615655173,-0.1,1.0,0.0,345.0,608.0,0.0,0,2047.0,1
151,151,0.018598777440209546,0.0,1.0,1.0,470.0,727.0,0.0,0,1803.0,0
152,152,-0.3850587000468081,-0.4,0.0,1.0,457.0,544.0,1.0,0,1999.0,1
153,153,0.27914928386186666,0.3,1.0,1.0,408.0,833.0,1.0,1,389.0,1
154,154,-0.6788356601671304,-0.7,1.0,0.0,369.0,687.0,0.0,0,214.0,1
155,155,-0.04643742147335406,-0.0,1.0,0.0,294.0,987.0,0.0,0,1719.0,1
156,156,0.5412741791244634,0.5,0.0,0.0,289.0,849.0,0.0,1,312.0,1
157,157,0.29124570361818825,0.3,1.0,1.0,335.0,873.0,1.0,1,662.0,1
158,158,0.3526345972709525,0.4,0.0,0.0,485.0,808.0,0.0,1,1047.0,1
159,159,-0.6679321975299107,-0.7,1.0,0.0,398.0,624.0,0.0,0,288.0,1
160,160,-0.8337833717987223,-0.8,1.0,0.0,350.0,847.0,0.0,0,333.0,1
161,161,0.2151605664193702,0.2,1.0,1.0,415.0,768.0,1.0,1,1737.0,1
162,162,-0.794047294228117,-0.8,0.0,1.0,451.0,569.0,1.0,0,250.0,1
163,163,-0.7691230987768846,-0.8,1.0,0.0,257.0,864.0,0.0,0,529.0,1
164,164,0.4402389558109553,0.4,1.0,1.0,336.0,852.0,1.0,1,1032.0,1
165,165,-0.5449112200619759,-0.5,0.0,1.0,329.0,678.0,1.0,0,613.0,1
166,166,-0.23116970685137128,-0.2,1.0,0.0,286.0,629.0,0.0,0,435.0,1
167,167,-0.15998956023597521,-0.2,0.0,1.0,449.0,597.0,1.0,0,604.0,1
168,168,0.38024489146807194,0.4,1.0,1.0,388.0,887.0,1.0,1,265.0,1
169,169,0.8904316495066423,0.9,0.0,0.0,282.0,516.0,0.0,1,352.0,1
170,170,0.26216903858349705,0.3,0.0,0.0,367.0,518.0,0.0,1,365.0,1
171,171,0.22707260608547541,0.2,0.0,0.0,335.0,612.0,0.0,1,2053.0,1
172,172,0.597127170944851,0.6,1.0,1.0,294.0,631.0,1.0,1,865.0,1
173,173,-0.8206809080155393,-0.8,0.0,1.0,478.0,679.0,1.0,0,223.0,1
174,174,-0.5919943741808507,-0.6,1.0,0.0,294.0,804.0,0.0,0,472.0,1
175,175,0.7460520900521773,0.7,1.0,1.0,399.0,735.0,1.0,1,596.0,1
176,176,-0.3959514355087713,-0.4,0.0,1.0,490.0,908.0,1.0,0,832.0,1
177,177,0.6278109029727218,0.6,1.0,1.0,328.0,537.0,1.0,1,425.0,1
178,178,-0.5208183875547864,-0.5,1.0,0.0,296.0,795.0,0.0,0,309.0,1
179,179,-0.4237407546720541,-0.4,0.0,1.0,322.0,586.0,1.0,0,362.0,1
180,180,0.8599994367151359,0.9,0.0,0.0,354.0,830.0,0.0,1,396.0,1
181,181,0.4575000828475043,0.5,0.0,0.0,251.0,880.0,0.0,1,379.0,1
182,182,-0.4086866712340437,-0.4,1.0,0.0,412.0,772.0,0.0,0,416.0,1
183,183,-0.3356734900432392,-0.3,1.0,0.0,264.0,727.0,0.0,0,509.0,1
184,184,0.7255689349815063,0.7,0.0,0.0,479.0,572.0,0.0,1,249.0,1
185,185,0.39553141268740466,0.4,1.0,1.0,253.0,691.0,1.0,1,1516.0,1
186,186,0.6211537773719688,0.6,1.0,1.0,454.0,960.0,1.0,1,176.0,1
187,187,0.847287463067672,0.8,1.0,1.0,494.0,706.0,1.0,1,250.0,1
188,188,0.8720735991480718,0.9,1.0,1.0,489.0,785.0,1.0,1,366.0,1
189,189,-0.24529128632702335,-0.2,0.0,1.0,456.0,646.0,1.0,0,1548.0,1
190,190,-0.6693158115249048,-0.7,0.0,1.0,442.0,616.0,1.0,0,992.0,1
191,191,-0.3041490170897909,-0.3,0.0,1.0,307.0,606.0,1.0,0,677.0,1
192,192,0.769177627769465,0.8,1.0,1.0,291.0,810.0,1.0,1,369.0,1
193,193,-0.716489327118009,-0.7,1.0,0.0,351.0,921.0,0.0,0,148.0,1
194,194,0.3474689741982754,0.3,0.0,0.0,251.0,933.0,0.0,1,676.0,1
195,195,0.20006787696424866,0.2,0.0,0.0,368.0,983.0,1.0,0,1649.0,0
196,196,-0.7560461663831297,-0.8,1.0,0.0,301.0,687.0,0.0,0,142.0,1
197,197,-0.43294239620075436,-0.4,0.0,1.0,455.0,879.0,1.0,0,376.0,1
198,198,-0.2600827806277025,-0.3,1.0,0.0,344.0,582.0,0.0,0,1084.0,1
199,199,-0.14130928427611156,-0.1,1.0,0.0,298.0,771.0,0.0,0,971.0,1
200,200,0.7119620911387307,0.7,0.0,0.0,448.0,502.0,0.0,1,400.0,1
201,201,-0.5936932086285591,-0.6,1.0,0.0,415.0,594.0,0.0,0,251.0,1
202,202,0.45565103857643685,0.5,0.0,0.0,342.0,890.0,0.0,1,168.0,1
203,203,0.8546205383849926,0.9,0.0,0.0,405.0,917.0,0.0,1,188.0,1
204,204,-0.036956695842314646,-0.0,1.0,0.0,312.0,507.0,0.0,0,2181.0,1
205,205,0.28499768426330896,0.3,0.0,0.0,402.0,769.0,0.0,1,739.0,1
206,206,-0.45753628018883696,-0.5,0.0,1.0,481.0,871.0,1.0,0,768.0,1
207,207,-0.28062344069947376,-0.3,0.0,1.0,361.0,791.0,1.0,0,188.0,1
208,208,-0.3704825516551722,-0.4,0.0,1.0,395.0,810.0,1.0,0,615.0,1
209,209,0.17801291007053066,0.2,0.0,0.0,431.0,716.0,0.0,1,1853.0,1
210,210,0.19223402444595517,0.2,0.0,0.0,298.0,702.0,0.0,1,2000.0,1
211,211,-0.05324649568472839,-0.1,1.0,0.0,445.0,842.0,1.0,1,1713.0,0
212,212,-0.28044946903271406,-0.3,1.0,0.0,344.0,675.0,0.0,0,401.0,1
213,213,-0.6779658346776645,-0.7,0.0,1.0,341.0,926.0,1.0,0,183.0,1
214,214,-0.8189719317399665,-0.8,0.0,1.0,399.0,873.0,1.0,0,198.0,1
215,215,-0.7032421997102755,-0.7,1.0,0.0,405.0,866.0,0.0,0,509.0,1
216,216,-0.5497254923269643,-0.5,1.0,0.0,288.0,943.0,0.0,0,279.0,1
217,217,0.3029469812553828,0.3,1.0,1.0,283.0,982.0,1.0,1,685.0,1
218,218,-0.6508497450487326,-0.7,0.0,1.0,257.0,671.0,1.0,0,262.0,1
219,219,0.6006024063710756,0.6,1.0,1.0,317.0,513.0,1.0,1,790.0,1
220,220,0.056024867511406784,0.1,0.0,0.0,429.0,997.0,1.0,0,1574.0,0
221,221,-0.33238591550211816,-0.3,0.0,1.0,405.0,522.0,1.0,0,423.0,1
222,222,0.4720560738010332,0.5,0.0,0.0,449.0,543.0,0.0,1,378.0,1
223,223,-0.5590257013540147,-0.6,0.0,1.0,437.0,949.0,1.0,0,174.0,1
224,224,-0.7295611399781334,-0.7,1.0,0.0,437.0,772.0,0.0,0,181.0,1
225,225,0.3138243622001474,0.3,1.0,1.0,283.0,577.0,1.0,1,1330.0,1
226,226,-0.05914657864400785,-0.1,0.0,1.0,292.0,721.0,1.0,0,717.0,1
227,227,0.49891691256952,0.5,0.0,0.0,425.0,921.0,0.0,1,834.0,1
228,228,0.5996420144934204,0.6,0.0,0.0,354.0,774.0,0.0,1,542.0,1
229,229,-0.705116457937767,-0.7,1.0,0.0,386.0,931.0,0.0,0,223.0,1
230,230,0.14581105119265303,0.1,1.0,1.0,405.0,702.0,1.0,1,1893.0,1
231,231,0.21122376711133983,0.2,0.0,0.0,442.0,985.0,0.0,1,1573.0,1
232,232,-0.3598392753077886,-0.4,1.0,0.0,449.0,867.0,0.0,0,334.0,1
233,233,0.6762893078129059,0.7,1.0,1.0,424.0,825.0,1.0,1,231.0,1
234,234,-0.7731614722933542,-0.8,1.0,0.0,256.0,764.0,0.0,0,280.0,1
235,235,-0.04693436018787722,-0.0,0.0,1.0,367.0,888.0,1.0,0,1745.0,1
236,236,-0.258833141550179,-0.3,1.0,0.0,414.0,734.0,0.0,0,582.0,1
237,237,-0.42378167699199476,-0.4,0.0,1.0,476.0,971.0,1.0,0,473.0,1
238,238,0.5217315417035854,0.5,1.0,1.0,387.0,894.0,1.0,1,389.0,1
239,239,-0.021441907831496576,-0.0,0.0,1.0,492.0,961.0,0.0,1,1547.0,0
240,240,-0.7927679605379427,-0.8,0.0,1.0,278.0,724.0,1.0,0,168.0,1
241,241,0.27213542806453883,0.3,1.0,1.0,482.0,607.0,1.0,1,1771.0,1
242,242,-0.758082400943392,-0.8,0.0,1.0,313.0,780.0,1.0,0,217.0,1
243,243,-0.4801055155589687,-0.5,1.0,0.0,439.0,625.0,0.0,0,276.0,1
244,244,-0.11896658871423293,-0.1,1.0,0.0,304.0,896.0,0.0,0,1800.0,1
245,245,-0.588270098140778,-0.6,1.0,0.0,343.0,739.0,0.0,0,318.0,1
246,246,0.469961112874851,0.5,0.0,0.0,336.0,547.0,0.0,1,137.0,1
247,247,0.46738383107526615,0.5,1.0,1.0,309.0,627.0,1.0,1,1164.0,1
248,248,-0.22948103138734788,-0.2,0.0,1.0,420.0,854.0,1.0,0,1696.0,1
249,249,0.1111240858782937,0.1,0.0,0.0,361.0,557.0,0.0,1,2082.0,1
250,250,0.45237373747253906,0.5,1.0,1.0,337.0,593.0,1.0,1,560.0,1
251,251,0.7848146093467246,0.8,0.0,0.0,490.0,812.0,0.0,1,398.0,1
252,252,-0.39840438617446916,-0.4,1.0,0.0,410.0,939.0,0.0,0,1191.0,1
253,253,0.5292546964330748,0.5,0.0,0.0,459.0,503.0,0.0,1,818.0,1
254,254,-0.08339696095210825,-0.1,1.0,0.0,263.0,874.0,0.0,0,1373.0,1
255,255,-0.5536548201715739,-0.6,1.0,0.0,369.0,993.0,0.0,0,238.0,1
256,256,0.7648782085934066,0.8,0.0,0.0,427.0,574.0,0.0,1,239.0,1
257,257,-0.09955090611040762,-0.1,1.0,0.0,491.0,824.0,0.0,0,1335.0,1
258,258,0.35122598651147363,0.4,0.0,0.0,490.0,788.0,0.0,1,742.0,1
259,259,-0.7977305361500273,-0.8,0.0,1.0,381.0,776.0,1.0,0,183.0,1
260,260,-0.2828293595741602,-0.3,0.0,1.0,374.0,506.0,1.0,0,980.0,1
261,261,0.44133328034402475,0.4,0.0,0.0,481.0,709.0,0.0,1,700.0,1
262,262,0.6552477281954806,0.7,0.0,0.0,270.0,887.0,0.0,1,153.0,1
263,263,-0.7576958377964674,-0.8,0.0,1.0,470.0,899.0,1.0,0,241.0,1
264,264,0.7836076149474597,0.8,1.0,1.0,364.0,877.0,1.0,1,519.0,1
265,265,0.7740916100263021,0.8,1.0,1.0,309.0,776.0,1.0,1,755.0,1
266,266,-0.10569285641534276,-0.1,0.0,1.0,338.0,963.0,1.0,0,139.0,1
267,267,-0.371175725317588,-0.4,1.0,0.0,370.0,835.0,0.0,0,1185.0,1
268,268,-0.8983383026302244,-0.9,0.0,1.0,270.0,589.0,1.0,0,281.0,1
269,269,-0.36407253674148443,-0.4,0.0,1.0,396.0,536.0,1.0,0,618.0,1
270,270,-0.4391249109779242,-0.4,1.0,0.0,407.0,660.0,0.0,0,703.0,1
271,271,0.014151014894760783,0.0,0.0,0.0,408.0,506.0,0.0,1,2086.0,1
272,272,-0.16308772267229144,-0.2,1.0,0.0,336.0,853.0,0.0,0,1811.0,1
273,273,-0.786355183356988,-0.8,0.0,1.0,265.0,614.0,1.0,0,201.0,1
274,274,-0.338463945388214,-0.3,0.0,1.0,451.0,562.0,1.0,0,617.0,1
275,275,0.4768151683185097,0.5,0.0,0.0,475.0,990.0,0.0,1,655.0,1
276,276,-0.5638516936542313,-0.6,1.0,0.0,383.0,873.0,0.0,0,274.0,1
277,277,-0.24043103140297684,-0.2,1.0,0.0,419.0,731.0,0.0,0,1530.0,1
278,278,-0.19279467588961474,-0.2,1.0,0.0,441.0,858.0,0.0,0,1701.0,1
279,279,-0.3450194650624179,-0.3,0.0,1.0,277.0,569.0,1.0,0,754.0,1
280,280,-0.21199131193818643,-0.2,0.0,1.0,306.0,567.0,1.0,0,717.0,1
281,281,0.35637618038224483,0.4,1.0,1.0,416.0,928.0,1.0,1,146.0,1
282,282,0.565790142080581,0.6,0.0,0.0,442.0,754.0,0.0,1,534.0,1
283,283,0.025659955720830352,0.0,0.0,0.0,397.0,620.0,0.0,1,1983.0,1
284,284,0.38239467627939094,0.4,1.0,1.0,466.0,581.0,1.0,1,153.0,1
285,285,0.20863889163606808,0.2,0.0,0.0,469.0,621.0,0.0,1,980.0,1
286,286,0.32189424476691675,0.3,0.0,0.0,415.0,554.0,0.0,1,1661.0,1
287,287,-0.8635676498311464,-0.9,1.0,0.0,354.0,868.0,0.0,0,648.0,1
288,288,0.32752481220113705,0.3,0.0,0.0,419.0,787.0,0.0,1,1504.0,1
289,289,0.2833034234042714,0.3,1.0,1.0,482.0,667.0,1.0,1,821.0,1
290,290,0.23391095049075783,0.2,1.0,1.0,417.0,691.0,1.0,1,1892.0,1
291,291,-0.3198482682006434,-0.3,0.0,1.0,435.0,836.0,1.0,0,269.0,1
292,292,-0.14328527667019864,-0.1,0.0,1.0,488.0,643.0,1.0,0,299.0,1
293,293,0.05470415679796603,0.1,0.0,0.0,472.0,539.0,0.0,1,1989.0,1
294,294,-0.3878889415104797,-0.4,0.0,1.0,390.0,791.0,1.0,0,599.0,1
295,295,-0.8541860744462441,-0.9,0.0,1.0,279.0,611.0,1.0,0,360.0,1
296,296,0.4873603055020329,0.5,0.0,0.0,378.0,719.0,0.0,1,503.0,1
297,297,0.2385397268156838,0.2,0.0,0.0,382.0,632.0,0.0,1,656.0,1
298,298,-0.08234320650082949,-0.1,1.0,0.0,464.0,913.0,0.0,0,1623.0,1
299,299,0.5093433544439908,0.5,1.0,1.0,328.0,875.0,1.0,1,737.0,1
300,300,-0.24115862367985674,-0.2,0.0,1.0,361.0,985.0,1.0,0,794.0,1
301,301,0.10395069266598356,0.1,1.0,1.0,256.0,860.0,1.0,1,544.0,1
302,302,-0.3863648246156002,-0.4,0.0,1.0,399.0,512.0,1.0,0,1269.0,1
303,303,-0.5766507275169966,-0.6,0.0,1.0,257.0,518.0,1.0,0,155.0,1
304,304,-0.3595161116993323,-0.4,1.0,0.0,364.0,594.0,0.0,0,92.0,1
305,305,-0.8355100886817669,-0.8,1.0,0.0,278.0,652.0,0.0,0,320.0,1
306,306,-0.4792911684981203,-0.5,1.0,0.0,329.0,585.0,0.0,0,616.0,1
307,307,-0.4480870277172186,-0.4,1.0,0.0,416.0,930.0,0.0,0,524.0,1
308,308,0.5680250323249528,0.6,0.0,0.0,310.0,769.0,0.0,1,511.0,1
309,309,0.055402278536204386,0.1,1.0,1.0,332.0,881.0,1.0,1,1787.0,1
310,310,0.528879752514927,0.5,1.0,1.0,440.0,651.0,1.0,1,619.0,1
311,311,0.45476022641131697,0.5,1.0,1.0,341.0,561.0,1.0,1,638.0,1
312,312,0.22519706423843078,0.2,1.0,1.0,411.0,822.0,1.0,1,1087.0,1
313,313,-0.3892594686348537,-0.4,1.0,0.0,357.0,794.0,0.0,0,589.0,1
314,314,-0.1928187409557064,-0.2,1.0,0.0,385.0,733.0,0.0,0,802.0,1
315,315,-0.6247446697587727,-0.6,1.0,0.0,256.0,941.0,0.0,0,73.0,1
316,316,0.8797436286681094,0.9,0.0,0.0,464.0,671.0,0.0,1,455.0,1
317,317,0.39651051945823623,0.4,1.0,1.0,370.0,664.0,1.0,1,586.0,1
318,318,0.8515123598027269,0.9,0.0,0.0,298.0,937.0,0.0,1,275.0,1
319,319,-0.21272577901168988,-0.2,1.0,0.0,479.0,936.0,0.0,0,1585.0,1
320,320,-0.18052072287537135,-0.2,0.0,1.0,447.0,794.0,1.0,0,1759.0,1
321,321,-0.03317011947144477,-0.0,0.0,1.0,498.0,531.0,1.0,0,1971.0,1
322,322,-0.859887485417925,-0.9,1.0,0.0,368.0,831.0,0.0,0,191.0,1
323,323,0.6415157958001655,0.6,1.0,1.0,376.0,607.0,1.0,1,237.0,1
324,324,0.34863245674070187,0.3,1.0,1.0,320.0,760.0,1.0,1,420.0,1
325,325,-0.3667925682639226,-0.4,0.0,1.0,397.0,982.0,1.0,0,1541.0,1
326,326,-0.28427893997954823,-0.3,1.0,0.0,462.0,617.0,0.0,0,1001.0,1
327,327,0.7747072525990774,0.8,0.0,0.0,365.0,782.0,0.0,1,223.0,1
328,328,0.7260446214373256,0.7,1.0,1.0,258.0,888.0,1.0,1,304.0,1
329,329,-0.2532539106566717,-0.3,0.0,1.0,345.0,547.0,1.0,0,508.0,1
330,330,0.4085722890731204,0.4,0.0,0.0,268.0,622.0,0.0,1,1000.0,1
331,331,0.5382795473860525,0.5,1.0,1.0,355.0,659.0,1.0,1,226.0,1
332,332,0.2204985616794225,0.2,1.0,1.0,474.0,580.0,1.0,1,1706.0,1
333,333,0.7915003929938996,0.8,0.0,0.0,470.0,925.0,0.0,1,165.0,1
334,334,-0.2983235451417213,-0.3,0.0,1.0,346.0,850.0,1.0,0,884.0,1
335,335,0.8670766741167469,0.9,0.0,0.0,472.0,657.0,0.0,1,181.0,1
336,336,-0.8622301075063616,-0.9,0.0,1.0,301.0,562.0,1.0,0,197.0,1
337,337,-0.21964268528975917,-0.2,0.0,1.0,488.0,918.0,1.0,0,54.0,1
338,338,0.8066202808453492,0.8,1.0,1.0,487.0,609.0,1.0,1,164.0,1
339,339,-0.7419417652309052,-0.7,0.0,1.0,302.0,766.0,1.0,0,222.0,1
340,340,-0.6289373765607393,-0.6,0.0,1.0,392.0,713.0,1.0,0,405.0,1
341,341,-0.813155300554147,-0.8,0.0,1.0,496.0,589.0,1.0,0,385.0,1
342,342,-0.5131772071308875,-0.5,1.0,0.0,432.0,968.0,0.0,0,410.0,1
343,343,-0.11649975245830224,-0.1,1.0,0.0,288.0,865.0,0.0,0,1847.0,1
344,344,0.8657877238251771,0.9,0.0,0.0,295.0,646.0,0.0,1,179.0,1
345,345,0.22514741547677086,0.2,1.0,1.0,383.0,962.0,1.0,1,1275.0,1
346,346,-0.4151482886075494,-0.4,1.0,0.0,492.0,587.0,0.0,0,681.0,1
347,347,0.7504733072159654,0.8,0.0,0.0,436.0,854.0,0.0,1,90.0,1
348,348,0.06328442313754512,0.1,0.0,0.0,370.0,539.0,1.0,0,401.0,0
349,349,0.5154918142105483,0.5,0.0,0.0,297.0,890.0,0.0,1,223.0,1
350,350,-0.6248822797224813,-0.6,1.0,0.0,484.0,987.0,0.0,0,379.0,1
351,351,0.5501951600228604,0.6,1.0,1.0,491.0,687.0,1.0,1,1792.0,1
352,352,0.6646025040463232,0.7,1.0,1.0,416.0,554.0,1.0,1,350.0,1
353,353,-0.8195727789708287,-0.8,1.0,0.0,444.0,622.0,0.0,0,294.0,1
354,354,0.13514367114974435,0.1,0.0,0.0,432.0,717.0,1.0,0,1851.0,0
355,355,0.6347582218579929,0.6,1.0,1.0,282.0,655.0,1.0,1,413.0,1
356,356,-0.7369003268032182,-0.7,1.0,0.0,311.0,777.0,0.0,0,422.0,1
357,357,-0.18694638035465028,-0.2,1.0,0.0,405.0,879.0,0.0,0,976.0,1
358,358,0.8802113659770553,0.9,1.0,1.0,407.0,520.0,1.0,1,353.0,1
359,359,0.7398406531369365,0.7,1.0,1.0,294.0,949.0,1.0,1,77.0,1
360,360,-0.5480993053211332,-0.5,1.0,0.0,350.0,638.0,0.0,0,132.0,1
361,361,-0.5220517511526537,-0.5,1.0,0.0,483.0,960.0,0.0,0,317.0,1
362,362,0.6345445788937966,0.6,0.0,0.0,326.0,920.0,0.0,1,164.0,1
363,363,0.10431732941631544,0.1,1.0,1.0,296.0,514.0,1.0,1,2190.0,1
364,364,-0.23279088052451036,-0.2,1.0,0.0,372.0,644.0,0.0,0,1164.0,1
365,365,-0.5777644378439892,-0.6,0.0,1.0,437.0,578.0,1.0,0,785.0,1
366,366,0.7221839881500177,0.7,0.0,0.0,260.0,811.0,0.0,1,169.0,1
367,367,0.4821625640687669,0.5,1.0,1.0,460.0,585.0,1.0,1,345.0,1
368,368,0.680911384881285,0.7,1.0,1.0,270.0,661.0,1.0,1,459.0,1
369,369,-0.6376595497597609,-0.6,0.0,1.0,365.0,812.0,1.0,0,383.0,1
370,370,-0.30901378737782015,-0.3,0.0,1.0,431.0,681.0,1.0,0,1248.0,1
371,371,0.4885847515424372,0.5,1.0,1.0,318.0,564.0,1.0,1,288.0,1
372,372,-0.7188019249767814,-0.7,1.0,0.0,467.0,891.0,0.0,0,312.0,1
373,373,0.6977753309823281,0.7,0.0,0.0,356.0,777.0,0.0,1,587.0,1
374,374,0.8505971514816643,0.9,1.0,1.0,471.0,893.0,1.0,1,306.0,1
375,375,0.5546577994323928,0.6,1.0,1.0,469.0,909.0,1.0,1,302.0,1
376,376,0.49931370039894263,0.5,1.0,1.0,408.0,824.0,1.0,1,488.0,1
377,377,0.10234086903912176,0.1,0.0,0.0,492.0,791.0,1.0,0,747.0,0
378,378,-0.1275032529759551,-0.1,0.0,1.0,294.0,746.0,1.0,0,850.0,1
379,379,-0.7712304159374243,-0.8,0.0,1.0,476.0,615.0,1.0,0,369.0,1
380,380,0.7841062205607047,0.8,0.0,0.0,371.0,597.0,0.0,1,262.0,1
381,381,-0.24065461828268087,-0.2,1.0,0.0,321.0,691.0,0.0,0,188.0,1
382,382,0.11956271996485246,0.1,1.0,1.0,432.0,555.0,0.0,0,2013.0,0
383,383,0.3161499987124675,0.3,0.0,0.0,361.0,971.0,0.0,1,1668.0,1
384,384,-0.09382150035259651,-0.1,1.0,0.0,305.0,508.0,0.0,0,157.0,1
385,385,-0.8663831010539614,-0.9,1.0,0.0,363.0,700.0,0.0,0,177.0,1
386,386,0.10737405893427143,0.1,0.0,0.0,273.0,684.0,0.0,1,953.0,1
387,387,0.2594286652151504,0.3,1.0,1.0,320.0,638.0,1.0,1,472.0,1
388,388,0.39759366021182807,0.4,0.0,0.0,329.0,906.0,0.0,1,535.0,1
389,389,0.620382648709045,0.6,1.0,1.0,357.0,715.0,1.0,1,148.0,1
390,390,-0.0803761830457489,-0.1,0.0,1.0,450.0,506.0,1.0,0,2044.0,1
391,391,-0.23377689546173186,-0.2,1.0,0.0,271.0,864.0,0.0,0,505.0,1
392,392,-0.39192401966355706,-0.4,0.0,1.0,309.0,852.0,1.0,0,909.0,1
393,393,0.6219535298256523,0.6,0.0,0.0,429.0,765.0,0.0,1,646.0,1
394,394,0.8504102446404985,0.9,1.0,1.0,422.0,571.0,1.0,1,517.0,1
395,395,-0.6005547622882901,-0.6,0.0,1.0,414.0,723.0,1.0,0,623.0,1
396,396,0.26633223775264725,0.3,0.0,0.0,283.0,601.0,0.0,1,1266.0,1
397,397,0.7337048541836894,0.7,1.0,1.0,440.0,726.0,1.0,1,104.0,1
398,398,-0.7696720030416591,-0.8,1.0,0.0,406.0,856.0,0.0,0,148.0,1
399,399,-0.2457826670854102,-0.2,1.0,0.0,470.0,803.0,0.0,0,497.0,1
400,400,0.6414425153958753,0.6,1.0,1.0,457.0,668.0,1.0,1,795.0,1
401,401,-0.5558544347684868,-0.6,0.0,1.0,320.0,760.0,1.0,0,290.0,1
402,402,-0.11340143871050001,-0.1,1.0,0.0,417.0,712.0,0.0,0,681.0,1
403,403,0.6656031632087379,0.7,0.0,0.0,296.0,580.0,0.0,1,264.0,1
404,404,0.24024333468390024,0.2,0.0,0.0,345.0,932.0,0.0,1,863.0,1
405,405,0.3615412650092472,0.4,0.0,0.0,452.0,520.0,0.0,1,2028.0,1
406,406,0.8770753367944127,0.9,0.0,0.0,484.0,614.0,0.0,1,222.0,1
407,407,0.6242551439526743,0.6,0.0,0.0,487.0,972.0,0.0,1,241.0,1
408,408,-0.476489318285291,-0.5,0.0,1.0,454.0,661.0,1.0,0,605.0,1
409,409,-0.7624543638434662,-0.8,1.0,0.0,371.0,794.0,0.0,0,265.0,1
410,410,-0.5763017083072819,-0.6,0.0,1.0,398.0,540.0,1.0,0,212.0,1
411,411,-0.10391758471363421,-0.1,0.0,1.0,360.0,557.0,1.0,0,943.0,1
412,412,0.12886077830774456,0.1,1.0,1.0,414.0,913.0,1.0,1,363.0,1
413,413,0.2666991254879424,0.3,0.0,0.0,335.0,635.0,0.0,1,180.0,1
414,414,-0.5867292857737537,-0.6,1.0,0.0,475.0,599.0,0.0,0,1276.0,1
415,415,-0.1660754431320659,-0.2,1.0,0.0,476.0,925.0,0.0,0,319.0,1
416,416,-0.5906708227302289,-0.6,0.0,1.0,480.0,734.0,1.0,0,146.0,1
417,417,0.5719149803823388,0.6,1.0,1.0,410.0,592.0,1.0,1,458.0,1
418,418,0.502713262261603,0.5,0.0,0.0,294.0,707.0,0.0,1,549.0,1
419,419,-0.4208584079015331,-0.4,0.0,1.0,498.0,556.0,1.0,0,336.0,1
420,420,0.7671198997814676,0.8,0.0,0.0,461.0,500.0,0.0,1,279.0,1
421,421,0.7765146765391041,0.8,0.0,0.0,256.0,653.0,0.0,1,411.0,1
422,422,0.669697225623921,0.7,0.0,0.0,465.0,865.0,0.0,1,310.0,1
423,423,0.6459164535221412,0.6,0.0,0.0,347.0,863.0,0.0,1,240.0,1
424,424,-0.5811137733600267,-0.6,0.0,1.0,431.0,902.0,1.0,0,367.0,1
425,425,-0.8663003670744369,-0.9,1.0,0.0,461.0,814.0,0.0,0,145.0,1
426,426,-0.8542557794635988,-0.9,1.0,0.0,301.0,782.0,0.0,0,267.0,1
427,427,-0.57284231062261,-0.6,0.0,1.0,376.0,887.0,1.0,0,567.0,1
428,428,0.7516080473295236,0.8,1.0,1.0,277.0,905.0,1.0,1,218.0,1
429,429,-0.7775951832484959,-0.8,1.0,0.0,313.0,799.0,0.0,0,238.0,1
430,430,0.21861340504224802,0.2,1.0,1.0,435.0,637.0,1.0,1,1438.0,1
431,431,-0.5709528589505533,-0.6,1.0,0.0,391.0,890.0,0.0,0,129.0,1
432,432,-0.2681356511713978,-0.3,0.0,1.0,313.0,841.0,1.0,0,1296.0,1
433,433,0.2375921142843579,0.2,0.0,0.0,470.0,912.0,0.0,1,1058.0,1
434,434,0.5703911315846867,0.6,1.0,1.0,356.0,844.0,1.0,1,470.0,1
435,435,-0.6593672560682435,-0.7,0.0,1.0,288.0,519.0,1.0,0,203.0,1
436,436,0.3904341257966223,0.4,1.0,1.0,466.0,737.0,1.0,1,1797.0,1
437,437,-0.47925838320676956,-0.5,1.0,0.0,465.0,755.0,0.0,0,290.0,1
438,438,-0.4197034229699978,-0.4,1.0,0.0,311.0,739.0,0.0,0,410.0,1
439,439,-0.44082474801197663,-0.4,1.0,0.0,415.0,870.0,0.0,0,605.0,1
440,440,0.4439997811251998,0.4,1.0,1.0,366.0,844.0,1.0,1,260.0,1
441,441,-0.8255160207154756,-0.8,1.0,0.0,369.0,756.0,0.0,0,155.0,1
442,442,-0.05662360095487495,-0.1,1.0,0.0,344.0,686.0,0.0,0,1970.0,1
443,443,0.17014274042150712,0.2,1.0,1.0,416.0,509.0,1.0,1,915.0,1
444,444,-0.668861906307712,-0.7,0.0,1.0,268.0,674.0,1.0,0,178.0,1
445,445,0.5651866304110832,0.6,1.0,1.0,368.0,529.0,1.0,1,493.0,1
446,446,-0.6789378405163311,-0.7,1.0,0.0,313.0,772.0,0.0,0,135.0,1
447,447,0.8193284025695345,0.8,0.0,0.0,415.0,902.0,0.0,1,143.0,1
448,448,0.5165789523690189,0.5,1.0,1.0,283.0,685.0,1.0,1,472.0,1
449,449,-0.7653082099510584,-0.8,1.0,0.0,369.0,973.0,0.0,0,198.0,1
450,450,-0.1474902203938857,-0.1,1.0,0.0,485.0,541.0,0.0,0,1814.0,1
451,451,-0.8353502993619519,-0.8,1.0,0.0,271.0,615.0,0.0,0,234.0,1
452,452,-0.09951474863808218,-0.1,0.0,1.0,349.0,916.0,1.0,0,185.0,1
453,453,0.6165578119429277,0.6,1.0,1.0,388.0,630.0,1.0,1,122.0,1
454,454,0.7975051617192367,0.8,0.0,0.0,358.0,674.0,0.0,1,208.0,1
455,455,0.2874134000150984,0.3,0.0,0.0,331.0,650.0,0.0,1,899.0,1
456,456,-0.25189839951940973,-0.3,0.0,1.0,282.0,952.0,1.0,0,726.0,1
457,457,0.7244796028809647,0.7,0.0,0.0,401.0,714.0,0.0,1,345.0,1
458,458,-0.3269887718471407,-0.3,0.0,1.0,341.0,928.0,1.0,0,371.0,1
459,459,0.08951005278654878,0.1,0.0,0.0,336.0,762.0,0.0,1,1902.0,1
460,460,-0.8587322476065651,-0.9,0.0,1.0,499.0,635.0,1.0,0,166.0,1
461,461,0.19092731579838873,0.2,0.0,0.0,292.0,699.0,0.0,1,699.0,1
462,462,-0.6062147499974258,-0.6,0.0,1.0,365.0,772.0,1.0,0,163.0,1
463,463,0.5546239814486272,0.6,1.0,1.0,463.0,814.0,1.0,1,473.0,1
464,464,0.38607114994327596,0.4,1.0,1.0,461.0,629.0,1.0,1,480.0,1
465,465,0.5242546212830473,0.5,1.0,1.0,431.0,605.0,1.0,1,524.0,1
466,466,-0.23506217760864834,-0.2,0.0,1.0,424.0,985.0,1.0,0,701.0,1
467,467,-0.5073328541424167,-0.5,0.0,1.0,273.0,724.0,1.0,0,123.0,1
468,468,0.48370746585907376,0.5,0.0,0.0,464.0,805.0,0.0,1,181.0,1
469,469,-0.6439080885384257,-0.6,1.0,0.0,323.0,739.0,0.0,0,198.0,1
470,470,0.6729297404441862,0.7,1.0,1.0,383.0,928.0,1.0,1,699.0,1
471,471,-0.7716840260315009,-0.8,0.0,1.0,261.0,564.0,1.0,0,435.0,1
472,472,-0.8245335685564471,-0.8,1.0,0.0,380.0,527.0,0.0,0,353.0,1
473,473,-0.7489970033237374,-0.7,0.0,1.0,456.0,766.0,1.0,0,208.0,1
474,474,-0.3724549722644789,-0.4,1.0,0.0,409.0,692.0,0.0,0,609.0,1
475,475,-0.48720139072006824,-0.5,0.0,1.0,474.0,654.0,1.0,0,542.0,1
476,476,0.2096553265539446,0.2,1.0,1.0,286.0,642.0,1.0,1,1912.0,1
477,477,-0.6294893326007132,-0.6,1.0,0.0,255.0,890.0,0.0,0,155.0,1
478,478,-0.45987887702166746,-0.5,0.0,1.0,300.0,545.0,1.0,0,185.0,1
479,479,0.5706219345615501,0.6,1.0,1.0,337.0,814.0,1.0,1,419.0,1
480,480,-0.7222019673632532,-0.7,1.0,0.0,452.0,915.0,0.0,0,183.0,1
481,481,0.07833641154020454,0.1,0.0,0.0,356.0,510.0,1.0,0,2134.0,0
482,482,-0.5738557245240827,-0.6,0.0,1.0,490.0,909.0,1.0,0,461.0,1
483,483,-0.38673087369183645,-0.4,0.0,1.0,392.0,648.0,1.0,0,850.0,1
484,484,0.32524041627894407,0.3,0.0,0.0,449.0,549.0,0.0,1,1252.0,1
485,485,0.6090587759350136,0.6,1.0,1.0,291.0,924.0,1.0,1,195.0,1
486,486,0.2543115256617866,0.3,1.0,1.0,386.0,683.0,1.0,1,1931.0,1
487,487,0.2347169441247977,0.2,1.0,1.0,264.0,831.0,1.0,1,1905.0,1
488,488,-0.7161970912571276,-0.7,0.0,1.0,499.0,748.0,1.0,0,283.0,1
489,489,0.803163322205613,0.8,1.0,1.0,310.0,505.0,1.0,1,575.0,1
490,490,-0.7568239201934435,-0.8,1.0,0.0,301.0,801.0,0.0,0,178.0,1
491,491,0.6302478451067405,0.6,1.0,1.0,397.0,774.0,1.0,1,359.0,1
492,492,0.10199559423582538,0.1,0.0,0.0,374.0,572.0,0.0,1,1134.0,1
493,493,-0.8496394963203748,-0.8,0.0,1.0,274.0,848.0,1.0,0,658.0,1
494,494,0.25847333233090974,0.3,0.0,0.0,466.0,589.0,0.0,1,565.0,1
495,495,-0.790873686118442,-0.8,0.0,1.0,333.0,963.0,1.0,0,144.0,1
496,496,-0.836182793424895,-0.8,0.0,1.0,256.0,564.0,1.0,0,430.0,1
497,497,-0.2093241635212364,-0.2,0.0,1.0,389.0,955.0,1.0,0,1016.0,1
498,498,-0.44961835861744043,-0.4,1.0,0.0,491.0,664.0,0.0,0,345.0,1
499,499,0.8610362934511021,0.9,0.0,0.0,498.0,729.0,0.0,1,243.0,1
500,500,0.006146859488466938,0.0,1.0,1.0,259.0,577.0,1.0,1,624.0,1
501,501,-0.16971273736129133,-0.2,0.0,1.0,389.0,500.0,1.0,0,1681.0,1
502,502,0.6022175542220359,0.6,0.0,0.0,300.0,714.0,0.0,1,296.0,1
503,503,0.055872897554801626,0.1,1.0,1.0,373.0,772.0,1.0,1,1855.0,1
504,504,-0.006155232836595914,-0.0,0.0,1.0,382.0,946.0,1.0,0,1672.0,1
505,505,0.25872218287435034,0.3,1.0,1.0,305.0,680.0,1.0,1,705.0,1
506,506,0.5035262639754013,0.5,0.0,0.0,326.0,641.0,0.0,1,503.0,1
507,507,-0.371495497311629,-0.4,1.0,0.0,396.0,916.0,0.0,0,318.0,1
508,508,0.12372395330892372,0.1,1.0,1.0,360.0,665.0,1.0,1,855.0,1
509,509,-0.7916908106025125,-0.8,1.0,0.0,317.0,728.0,0.0,0,255.0,1
510,510,0.42653283935246533,0.4,1.0,1.0,439.0,837.0,1.0,1,724.0,1
511,511,0.011441988763475686,0.0,0.0,0.0,286.0,751.0,1.0,0,1963.0,0
512,512,-0.2740228963367298,-0.3,0.0,1.0,279.0,540.0,1.0,0,851.0,1
513,513,0.17084154415655262,0.2,0.0,0.0,365.0,701.0,0.0,1,1794.0,1
514,514,-0.16244394610661073,-0.2,0.0,1.0,447.0,653.0,1.0,0,590.0,1
515,515,-0.8342643822049087,-0.8,0.0,1.0,384.0,643.0,1.0,0,253.0,1
516,516,-0.8698395120444505,-0.9,1.0,0.0,448.0,681.0,0.0,0,751.0,1
517,517,-0.3679920734794663,-0.4,1.0,0.0,343.0,656.0,0.0,0,371.0,1
518,518,0.021643850038951085,0.0,0.0,0.0,457.0,590.0,0.0,1,1953.0,1
519,519,0.8657527754934485,0.9,0.0,0.0,391.0,500.0,0.0,1,489.0,1
520,520,4.845163200350999e-05,0.0,1.0,1.0,492.0,844.0,0.0,0,1664.0,0
521,521,-0.37615138266446313,-0.4,0.0,1.0,452.0,555.0,1.0,0,693.0,1
522,522,0.3829568924622436,0.4,0.0,0.0,258.0,647.0,0.0,1,645.0,1
523,523,-0.19571179918969894,-0.2,1.0,0.0,427.0,772.0,0.0,0,591.0,1
524,524,0.006846092358185785,0.0,0.0,0.0,443.0,774.0,1.0,0,1573.0,0
525,525,-0.12645105777510235,-0.1,0.0,1.0,311.0,587.0,1.0,0,822.0,1
526,526,-0.4629324284961124,-0.5,0.0,1.0,345.0,982.0,1.0,0,313.0,1
527,527,0.3589994592920954,0.4,0.0,0.0,381.0,690.0,0.0,1,829.0,1
528,528,0.8348697506252237,0.8,0.0,0.0,255.0,651.0,0.0,1,424.0,1
529,529,-0.04387254253736672,-0.0,1.0,0.0,404.0,779.0,0.0,0,1817.0,1
530,530,0.3241691985245886,0.3,0.0,0.0,296.0,680.0,0.0,1,334.0,1
531,531,0.22412766011375884,0.2,1.0,1.0,432.0,727.0,1.0,1,401.0,1
532,532,0.8978993058851276,0.9,0.0,0.0,311.0,963.0,0.0,1,286.0,1
533,533,0.2947225704882669,0.3,1.0,1.0,271.0,584.0,1.0,1,655.0,1
534,534,0.11040858618426286,0.1,0.0,0.0,364.0,758.0,0.0,1,1878.0,1
535,535,0.1622288701759117,0.2,1.0,1.0,479.0,862.0,0.0,0,1659.0,0
536,536,-0.47140612915437613,-0.5,1.0,0.0,486.0,837.0,0.0,0,17.0,1
537,537,-0.38753108878512843,-0.4,1.0,0.0,493.0,508.0,0.0,0,299.0,1
538,538,-0.20476128188392528,-0.2,0.0,1.0,406.0,681.0,1.0,0,583.0,1
539,539,-0.10612421895609225,-0.1,1.0,0.0,376.0,834.0,0.0,0,1790.0,1
540,540,-0.19192340661761575,-0.2,1.0,0.0,402.0,850.0,0.0,0,1278.0,1
541,541,0.5288179693679834,0.5,1.0,1.0,326.0,584.0,1.0,1,280.0,1
542,542,-0.8331921477327614,-0.8,0.0,1.0,374.0,602.0,1.0,0,434.0,1
543,543,-0.8040800502877309,-0.8,0.0,1.0,335.0,864.0,1.0,0,81.0,1
544,544,0.5537631360940197,0.6,0.0,0.0,367.0,589.0,0.0,1,204.0,1
545,545,-0.48330104779168753,-0.5,1.0,0.0,422.0,647.0,0.0,0,211.0,1
546,546,-0.22829815975731038,-0.2,1.0,0.0,355.0,675.0,0.0,0,670.0,1
547,547,-0.6990513848597197,-0.7,0.0,1.0,302.0,663.0,1.0,0,1335.0,1
548,548,-0.41409605820361894,-0.4,0.0,1.0,252.0,967.0,1.0,0,151.0,1
549,549,-0.7644460540497627,-0.8,0.0,1.0,348.0,513.0,1.0,0,259.0,1
550,550,-0.33446838331423046,-0.3,0.0,1.0,253.0,887.0,1.0,0,310.0,1
551,551,0.8073130162649281,0.8,0.0,0.0,442.0,610.0,0.0,1,258.0,1
552,552,0.5857862259125203,0.6,1.0,1.0,366.0,567.0,1.0,1,357.0,1
553,553,-0.45187170040126207,-0.5,0.0,1.0,490.0,501.0,1.0,0,749.0,1
554,554,-0.21223353200994843,-0.2,0.0,1.0,491.0,893.0,1.0,0,426.0,1
555,555,0.8746312240979953,0.9,0.0,0.0,252.0,685.0,0.0,1,193.0,1
556,556,-0.24761865607859257,-0.2,0.0,1.0,445.0,640.0,1.0,0,595.0,1
557,557,-0.1580116916246923,-0.2,0.0,1.0,290.0,793.0,1.0,0,1527.0,1
558,558,0.5517731916817293,0.6,1.0,1.0,426.0,748.0,1.0,1,396.0,1
559,559,0.010336715059248935,0.0,1.0,1.0,286.0,571.0,0.0,0,2143.0,0
560,560,-0.541609426188941,-0.5,0.0,1.0,379.0,674.0,1.0,0,287.0,1
561,561,0.39503891368579,0.4,0.0,0.0,417.0,741.0,0.0,1,622.0,1
562,562,0.20014336655281328,0.2,0.0,0.0,493.0,849.0,0.0,1,578.0,1
563,563,0.1981720303184128,0.2,0.0,0.0,437.0,883.0,0.0,1,1620.0,1
564,564,0.5281694773055386,0.5,0.0,0.0,487.0,736.0,0.0,1,447.0,1
565,565,0.15372391720073264,0.2,1.0,1.0,450.0,981.0,1.0,1,-181.0,1
566,566,-0.3989667270148881,-0.4,0.0,1.0,488.0,508.0,1.0,0,814.0,1
567,567,-0.6103061331486468,-0.6,1.0,0.0,260.0,514.0,0.0,0,256.0,1
568,568,0.596471990502763,0.6,1.0,1.0,296.0,740.0,1.0,1,214.0,1
569,569,-0.06595239179816093,-0.1,0.0,1.0,449.0,947.0,1.0,0,1604.0,1
570,570,-0.019584285410595204,-0.0,0.0,1.0,352.0,876.0,0.0,1,1772.0,0
571,571,0.05596135440674388,0.1,1.0,1.0,293.0,877.0,1.0,1,390.0,1
572,572,0.06083383984184676,0.1,1.0,1.0,286.0,913.0,1.0,1,1801.0,1
573,573,-0.7498425128275523,-0.7,1.0,0.0,311.0,593.0,0.0,0,196.0,1
574,574,-0.12818211693106685,-0.1,1.0,0.0,370.0,860.0,0.0,0,1770.0,1
575,575,0.7796951337539512,0.8,0.0,0.0,344.0,625.0,0.0,1,271.0,1
576,576,-0.1861851147611545,-0.2,0.0,1.0,331.0,929.0,1.0,0,450.0,1
577,577,0.049080596623440886,0.0,1.0,1.0,452.0,733.0,0.0,0,1815.0,0
578,578,0.1583290156306797,0.2,0.0,0.0,380.0,787.0,0.0,1,1833.0,1
579,579,0.6566749745050197,0.7,1.0,1.0,399.0,825.0,1.0,1,276.0,1
580,580,0.7814054153440052,0.8,0.0,0.0,406.0,987.0,0.0,1,167.0,1
581,581,0.22831815013521506,0.2,1.0,1.0,381.0,982.0,1.0,1,277.0,1
582,582,0.4229856519754599,0.4,1.0,1.0,475.0,896.0,1.0,1,799.0,1
583,583,0.37401100366435014,0.4,0.0,0.0,289.0,556.0,0.0,1,535.0,1
584,584,-0.4838287839165791,-0.5,1.0,0.0,255.0,908.0,0.0,0,347.0,1
585,585,0.314902126375482,0.3,0.0,0.0,457.0,583.0,0.0,1,500.0,1
586,586,0.8014417904442664,0.8,1.0,1.0,401.0,869.0,1.0,1,330.0,1
587,587,-0.2827047056887616,-0.3,0.0,1.0,401.0,593.0,1.0,0,426.0,1
588,588,-0.8721309784804452,-0.9,0.0,1.0,308.0,967.0,1.0,0,345.0,1
589,589,0.3440775190006201,0.3,1.0,1.0,321.0,764.0,1.0,1,825.0,1
590,590,0.5873450413885196,0.6,1.0,1.0,291.0,698.0,1.0,1,181.0,1
591,591,-0.5455896679055181,-0.5,1.0,0.0,310.0,522.0,0.0,0,388.0,1
592,592,0.11747823996193907,0.1,1.0,1.0,258.0,561.0,1.0,1,2181.0,1
593,593,0.8730882870933642,0.9,1.0,1.0,258.0,667.0,1.0,1,335.0,1
594,594,-0.6965275741273418,-0.7,1.0,0.0,306.0,670.0,0.0,0,404.0,1
595,595,0.46095705329952963,0.5,0.0,0.0,425.0,513.0,0.0,1,582.0,1
596,596,0.5816237327464552,0.6,0.0,0.0,468.0,863.0,0.0,1,259.0,1
597,597,-0.5371624390654159,-0.5,1.0,0.0,317.0,735.0,0.0,0,298.0,1
598,598,-0.465351440932153,-0.5,0.0,1.0,490.0,529.0,1.0,0,291.0,1
599,599,0.3939630996282989,0.4,1.0,1.0,458.0,956.0,1.0,1,346.0,1
600,600,-0.03011566341131433,-0.0,0.0,1.0,414.0,852.0,1.0,0,1734.0,1
601,601,-0.39358848881821706,-0.4,1.0,0.0,421.0,946.0,0.0,0,373.0,1
602,602,-0.7582931106504077,-0.8,0.0,1.0,272.0,685.0,1.0,0,263.0,1
603,603,-0.0031453869153338365,-0.0,1.0,0.0,260.0,996.0,1.0,1,1744.0,0
604,604,-0.5515394127834994,-0.6,0.0,1.0,338.0,941.0,1.0,0,301.0,1
605,605,-0.028597937328834866,-0.0,0.0,1.0,259.0,898.0,1.0,0,1113.0,1
606,606,0.7975332620019268,0.8,0.0,0.0,256.0,810.0,0.0,1,304.0,1
607,607,-0.5346372407939064,-0.5,0.0,1.0,350.0,792.0,1.0,0,918.0,1
608,608,-0.6065091778081272,-0.6,0.0,1.0,459.0,538.0,1.0,0,643.0,1
609,609,-0.8994894164739554,-0.9,1.0,0.0,420.0,652.0,0.0,0,358.0,1
610,610,0.005897371979830979,0.0,0.0,0.0,262.0,730.0,1.0,0,1328.0,0
611,611,0.27591436508197853,0.3,0.0,0.0,274.0,618.0,0.0,1,2108.0,1
612,612,-0.20308880649057248,-0.2,0.0,1.0,345.0,741.0,1.0,0,964.0,1
613,613,0.1361634299843718,0.1,0.0,0.0,309.0,780.0,1.0,0,1911.0,0
614,614,0.399223016346579,0.4,0.0,0.0,405.0,926.0,0.0,1,179.0,1
615,615,0.5430258042406312,0.5,1.0,1.0,339.0,611.0,1.0,1,620.0,1
616,616,0.8018982735412169,0.8,0.0,0.0,410.0,942.0,0.0,1,168.0,1
617,617,0.48681694829382705,0.5,0.0,0.0,403.0,546.0,0.0,1,251.0,1
618,618,-0.4770487365540837,-0.5,0.0,1.0,407.0,839.0,1.0,0,854.0,1
619,619,0.13048808519692445,0.1,0.0,0.0,349.0,605.0,0.0,1,1486.0,1
620,620,0.8551108762783876,0.9,1.0,1.0,354.0,993.0,1.0,1,163.0,1
621,621,-0.7130472530802618,-0.7,0.0,1.0,301.0,508.0,1.0,0,971.0,1
622,622,-0.4765984592989267,-0.5,0.0,1.0,480.0,862.0,1.0,0,138.0,1
623,623,-0.6963479518939061,-0.7,0.0,1.0,472.0,883.0,1.0,0,265.0,1
624,624,0.47455475830742044,0.5,1.0,1.0,467.0,772.0,1.0,1,211.0,1
625,625,-0.2419858784968103,-0.2,0.0,1.0,393.0,885.0,1.0,0,812.0,1
626,626,-0.41512423937477577,-0.4,0.0,1.0,372.0,633.0,1.0,0,295.0,1
627,627,-0.4109531146869361,-0.4,1.0,0.0,377.0,790.0,0.0,0,753.0,1
628,628,-0.6304840266094418,-0.6,0.0,1.0,338.0,639.0,1.0,0,893.0,1
629,629,0.5264762507184862,0.5,0.0,0.0,419.0,514.0,0.0,1,737.0,1
630,630,0.5902855739798128,0.6,0.0,0.0,384.0,908.0,0.0,1,228.0,1
631,631,0.8332887827949927,0.8,0.0,0.0,409.0,841.0,0.0,1,320.0,1
632,632,-0.06397195840853298,-0.1,0.0,1.0,381.0,956.0,1.0,0,1663.0,1
633,633,-0.6232050992922025,-0.6,0.0,1.0,377.0,800.0,1.0,0,223.0,1
634,634,-0.7983954672823691,-0.8,0.0,1.0,388.0,597.0,1.0,0,695.0,1
635,635,0.11538139877709763,0.1,0.0,0.0,303.0,837.0,0.0,1,1860.0,1
636,636,0.5063093571077796,0.5,0.0,0.0,411.0,889.0,0.0,1,820.0,1
637,637,0.5745967973563123,0.6,1.0,1.0,413.0,994.0,1.0,1,333.0,1
638,638,0.8824979793365663,0.9,0.0,0.0,467.0,785.0,0.0,1,238.0,1
639,639,0.56295695808014,0.6,0.0,0.0,299.0,546.0,0.0,1,335.0,1
640,640,-0.2454662983752569,-0.2,1.0,0.0,308.0,790.0,0.0,0,192.0,1
641,641,-0.6784312398905006,-0.7,1.0,0.0,333.0,886.0,0.0,0,141.0,1
642,642,-0.8924366313553467,-0.9,1.0,0.0,280.0,507.0,0.0,0,303.0,1
643,643,0.03882706930410007,0.0,0.0,0.0,483.0,962.0,1.0,0,1555.0,0
644,644,0.8369842457926032,0.8,0.0,0.0,291.0,861.0,0.0,1,138.0,1
645,645,-0.7363907954283323,-0.7,0.0,1.0,454.0,590.0,1.0,0,266.0,1
646,646,0.05199993711852691,0.1,1.0,1.0,384.0,808.0,1.0,1,1408.0,1
647,647,0.7869311708781906,0.8,0.0,0.0,488.0,852.0,0.0,1,260.0,1
648,648,-0.5260672244935445,-0.5,1.0,0.0,252.0,705.0,0.0,0,113.0,1
649,649,-0.6813731508501741,-0.7,1.0,0.0,403.0,980.0,0.0,0,347.0,1
650,650,-0.42803491436714697,-0.4,1.0,0.0,291.0,581.0,0.0,0,378.0,1
651,651,0.7426960720612824,0.7,0.0,0.0,341.0,692.0,0.0,1,277.0,1
652,652,-0.537212962678195,-0.5,1.0,0.0,433.0,729.0,0.0,0,328.0,1
653,653,0.4615401842200958,0.5,0.0,0.0,348.0,902.0,0.0,1,200.0,1
654,654,-0.6558780930807312,-0.7,1.0,0.0,350.0,763.0,0.0,0,347.0,1
655,655,0.6123896040068709,0.6,1.0,1.0,283.0,963.0,1.0,1,354.0,1
656,656,0.4291499156146038,0.4,0.0,0.0,292.0,608.0,0.0,1,310.0,1
657,657,-0.5255119125716647,-0.5,1.0,0.0,301.0,908.0,0.0,0,251.0,1
658,658,0.8903730075095858,0.9,0.0,0.0,452.0,982.0,0.0,1,276.0,1
659,659,0.08865115166756332,0.1,0.0,0.0,308.0,616.0,0.0,1,2076.0,1
660,660,-0.17773375414770276,-0.2,0.0,1.0,265.0,677.0,1.0,0,1158.0,1
661,661,0.704609138941546,0.7,0.0,0.0,466.0,726.0,0.0,1,508.0,1
662,662,0.5731312295673673,0.6,1.0,1.0,313.0,724.0,1.0,1,303.0,1
663,663,0.03234809444644493,0.0,1.0,1.0,430.0,645.0,1.0,1,1505.0,1
664,664,-0.2460720718811492,-0.2,1.0,0.0,386.0,953.0,0.0,0,751.0,1
665,665,0.049064598469735654,0.0,1.0,1.0,417.0,651.0,1.0,1,1932.0,1
666,666,0.17611444914686591,0.2,1.0,1.0,291.0,779.0,1.0,1,570.0,1
667,667,0.14797782935147719,0.1,1.0,1.0,266.0,856.0,1.0,1,1568.0,1
668,668,-0.1694741182584384,-0.2,1.0,0.0,380.0,991.0,0.0,0,1629.0,1
669,669,0.2095274408860902,0.2,1.0,1.0,440.0,869.0,1.0,1,1691.0,1
670,670,-0.7962118638532288,-0.8,1.0,0.0,288.0,794.0,0.0,0,328.0,1
671,671,-0.7342107403123842,-0.7,0.0,1.0,417.0,739.0,1.0,0,-26.0,1
672,672,-0.47412785888783643,-0.5,1.0,0.0,342.0,917.0,0.0,0,411.0,1
673,673,-0.7015254378797934,-0.7,1.0,0.0,276.0,816.0,0.0,0,28.0,1
674,674,-0.66438086330016,-0.7,0.0,1.0,449.0,561.0,1.0,0,800.0,1
675,675,-0.8791528974691164,-0.9,0.0,1.0,380.0,689.0,1.0,0,511.0,1
676,676,-0.66375698562625,-0.7,1.0,0.0,370.0,830.0,0.0,0,230.0,1
677,677,-0.2999747252188095,-0.3,1.0,0.0,356.0,540.0,0.0,0,434.0,1
678,678,0.3797138022599259,0.4,0.0,0.0,494.0,787.0,0.0,1,1279.0,1
679,679,-0.21694121489129714,-0.2,0.0,1.0,365.0,561.0,1.0,0,1424.0,1
680,680,0.40447924760728393,0.4,1.0,1.0,474.0,827.0,1.0,1,239.0,1
681,681,0.2621846471196182,0.3,1.0,1.0,465.0,849.0,1.0,1,536.0,1
682,682,-0.8976803678622904,-0.9,0.0,1.0,307.0,607.0,1.0,0,236.0,1
683,683,0.5889399683257784,0.6,1.0,1.0,287.0,971.0,1.0,1,432.0,1
684,684,0.5806566180871552,0.6,0.0,0.0,485.0,558.0,0.0,1,277.0,1
685,685,-0.6214915253247577,-0.6,0.0,1.0,437.0,649.0,1.0,0,704.0,1
686,686,0.3493461540038928,0.3,0.0,0.0,392.0,857.0,0.0,1,861.0,1
687,687,-0.5537498453943188,-0.6,1.0,0.0,461.0,818.0,0.0,0,521.0,1
688,688,-0.6770746462908972,-0.7,1.0,0.0,473.0,644.0,0.0,0,193.0,1
689,689,0.1831186482128463,0.2,1.0,1.0,480.0,959.0,1.0,1,1561.0,1
690,690,-0.7660056238072436,-0.8,0.0,1.0,496.0,991.0,1.0,0,273.0,1
691,691,-0.6504223580083485,-0.7,0.0,1.0,257.0,938.0,1.0,0,105.0,1
692,692,-0.6850870759977092,-0.7,0.0,1.0,468.0,872.0,1.0,0,250.0,1
693,693,-0.07135162070573964,-0.1,0.0,1.0,452.0,971.0,1.0,0,1497.0,1
694,694,0.4553633682012702,0.5,1.0,1.0,495.0,552.0,1.0,1,953.0,1
695,695,-0.7771170135833072,-0.8,0.0,1.0,254.0,955.0,1.0,0,171.0,1
696,696,-0.7914031386685756,-0.8,1.0,0.0,495.0,811.0,0.0,0,324.0,1
697,697,-0.5762307921297508,-0.6,0.0,1.0,262.0,597.0,1.0,0,251.0,1
698,698,0.8614034086764281,0.9,1.0,1.0,305.0,987.0,1.0,1,718.0,1
699,699,-0.8124119020196331,-0.8,0.0,1.0,489.0,543.0,1.0,0,298.0,1
700,700,-0.890817309897914,-0.9,0.0,1.0,286.0,576.0,1.0,0,318.0,1
701,701,0.6860087219521892,0.7,1.0,1.0,462.0,632.0,1.0,1,486.0,1
702,702,-0.8724953080659095,-0.9,1.0,0.0,361.0,857.0,0.0,0,232.0,1
703,703,-0.15646739676137367,-0.2,0.0,1.0,358.0,781.0,1.0,0,571.0,1
704,704,-0.42050940148316557,-0.4,1.0,0.0,485.0,944.0,1.0,1,-69.0,0
705,705,0.29137254937562507,0.3,0.0,0.0,391.0,908.0,0.0,1,841.0,1
706,706,0.594828478570402,0.6,0.0,0.0,343.0,701.0,0.0,1,176.0,1
707,707,-0.4276707340810228,-0.4,0.0,1.0,351.0,935.0,1.0,0,384.0,1
708,708,0.06327901718818774,0.1,0.0,0.0,341.0,783.0,1.0,0,1876.0,0
709,709,-0.6109242346928978,-0.6,1.0,0.0,458.0,832.0,0.0,0,140.0,1
710,710,0.35535608452333645,0.4,0.0,0.0,366.0,897.0,0.0,1,557.0,1
711,711,0.6644606998978629,0.7,1.0,1.0,422.0,877.0,1.0,1,391.0,1
712,712,-0.29512769722774834,-0.3,0.0,1.0,474.0,544.0,1.0,0,822.0,1
713,713,-0.04788484950254002,-0.0,1.0,0.0,291.0,654.0,0.0,0,2055.0,1
714,714,-0.2863731679869054,-0.3,0.0,1.0,287.0,831.0,1.0,0,1572.0,1
715,715,0.0758417404533781,0.1,1.0,1.0,301.0,990.0,1.0,1,1709.0,1
716,716,-0.08332436132165533,-0.1,0.0,1.0,374.0,865.0,1.0,0,1761.0,1
717,717,0.2400005904764314,0.2,1.0,1.0,425.0,651.0,1.0,1,1924.0,1
718,718,0.24078663155369162,0.2,0.0,0.0,296.0,907.0,0.0,1,577.0,1
719,719,-0.2799073755203052,-0.3,0.0,1.0,430.0,871.0,1.0,0,669.0,1
720,720,-0.817087170097622,-0.8,1.0,0.0,473.0,577.0,0.0,0,340.0,1
721,721,0.8658248315836389,0.9,1.0,1.0,258.0,815.0,1.0,1,1057.0,1
722,722,-0.05005121927329348,-0.1,0.0,1.0,442.0,765.0,1.0,0,1743.0,1
723,723,0.5275723355174678,0.5,1.0,1.0,388.0,543.0,1.0,1,539.0,1
724,724,-0.8129359599611318,-0.8,0.0,1.0,347.0,854.0,1.0,0,149.0,1
725,725,0.054999618872631495,0.1,1.0,1.0,320.0,635.0,1.0,1,2045.0,1
726,726,-0.3928149284295649,-0.4,0.0,1.0,380.0,877.0,1.0,0,803.0,1
727,727,0.374546272933748,0.4,0.0,0.0,378.0,629.0,0.0,1,683.0,1
728,728,-0.09129679569737237,-0.1,1.0,0.0,353.0,590.0,1.0,1,2057.0,0
729,729,-0.21296553354856063,-0.2,1.0,0.0,442.0,519.0,0.0,0,2039.0,1
730,730,0.15157562277892012,0.2,0.0,0.0,364.0,853.0,0.0,1,1563.0,1
731,731,0.7869786167493881,0.8,0.0,0.0,333.0,648.0,0.0,1,379.0,1
732,732,-0.5313444272394228,-0.5,0.0,1.0,413.0,720.0,1.0,0,327.0,1
733,733,0.15698896137882234,0.2,0.0,0.0,349.0,825.0,0.0,1,1826.0,1
734,734,0.8091942311493384,0.8,1.0,1.0,399.0,638.0,1.0,1,233.0,1
735,735,0.4638494413728419,0.5,1.0,1.0,281.0,728.0,1.0,1,741.0,1
736,736,-0.1717834217043056,-0.2,0.0,1.0,300.0,561.0,1.0,0,979.0,1
737,737,-0.7860204552436457,-0.8,1.0,0.0,469.0,926.0,0.0,0,295.0,1
738,738,-0.0760978029288627,-0.1,1.0,0.0,348.0,961.0,1.0,1,281.0,0
739,739,0.884978153504259,0.9,1.0,1.0,394.0,783.0,1.0,1,273.0,1
740,740,-0.4592380868909112,-0.5,1.0,0.0,418.0,681.0,0.0,0,491.0,1
741,741,-0.3022957433410547,-0.3,1.0,0.0,303.0,662.0,0.0,0,1065.0,1
742,742,0.5743627067050662,0.6,0.0,0.0,491.0,722.0,0.0,1,297.0,1
743,743,0.3903386793739455,0.4,0.0,0.0,306.0,798.0,0.0,1,446.0,1
744,744,0.5933550961178798,0.6,0.0,0.0,272.0,806.0,0.0,1,292.0,1
745,745,0.11800085145843753,0.1,0.0,0.0,287.0,687.0,0.0,1,2026.0,1
746,746,0.28010005985231723,0.3,0.0,0.0,389.0,510.0,0.0,1,1771.0,1
747,747,0.054648930516076666,0.1,0.0,0.0,451.0,550.0,0.0,1,1999.0,1
748,748,-0.14652046500136484,-0.1,0.0,1.0,396.0,555.0,1.0,0,249.0,1
749,749,-0.08849857702217945,-0.1,0.0,1.0,348.0,776.0,1.0,0,556.0,1
750,750,-0.08606644352584658,-0.1,0.0,1.0,490.0,953.0,1.0,0,1557.0,1
751,751,0.26826374804981035,0.3,1.0,1.0,310.0,597.0,1.0,1,483.0,1
752,752,-0.10067695271305854,-0.1,0.0,1.0,373.0,878.0,1.0,0,169.0,1
753,753,-0.19333405920514635,-0.2,0.0,1.0,409.0,834.0,1.0,0,1757.0,1
754,754,-0.5358779944671574,-0.5,0.0,1.0,466.0,791.0,1.0,0,203.0,1
755,755,0.5179657415499835,0.5,1.0,1.0,314.0,947.0,1.0,1,589.0,1
756,756,-0.23371784070672175,-0.2,1.0,0.0,392.0,875.0,0.0,0,703.0,1
757,757,-0.3314416089119667,-0.3,0.0,1.0,331.0,559.0,1.0,0,630.0,1
758,758,0.44105543170495565,0.4,1.0,1.0,451.0,920.0,1.0,1,609.0,1
759,759,-0.2603631393552468,-0.3,0.0,1.0,271.0,825.0,1.0,0,254.0,1
760,760,-0.778763838455573,-0.8,0.0,1.0,256.0,821.0,1.0,0,-77.0,1
761,761,0.7314297579124381,0.7,1.0,1.0,311.0,848.0,1.0,1,201.0,1
762,762,0.7630534501711091,0.8,0.0,0.0,265.0,669.0,0.0,1,196.0,1
763,763,-0.3473743590760794,-0.3,0.0,1.0,297.0,952.0,1.0,0,691.0,1
764,764,0.8235152210149977,0.8,0.0,0.0,265.0,643.0,0.0,1,242.0,1
765,765,-0.7963624253839112,-0.8,0.0,1.0,380.0,941.0,1.0,0,319.0,1
766,766,0.07681225655615598,0.1,0.0,0.0,264.0,965.0,1.0,0,1771.0,0
767,767,0.7155220852429661,0.7,1.0,1.0,472.0,517.0,1.0,1,421.0,1
768,768,0.38290488317623084,0.4,0.0,0.0,372.0,742.0,1.0,0,-64.0,0
769,769,-0.8445579446715451,-0.8,0.0,1.0,361.0,515.0,1.0,0,344.0,1
770,770,0.6705772912901383,0.7,0.0,0.0,363.0,757.0,0.0,1,230.0,1
771,771,-0.10561406367205672,-0.1,0.0,1.0,255.0,896.0,1.0,0,-21.0,1
772,772,0.45780002571641665,0.5,1.0,1.0,474.0,743.0,1.0,1,333.0,1
773,773,0.7902659235544799,0.8,0.0,0.0,478.0,999.0,0.0,1,153.0,1
774,774,0.184546282977064,0.2,1.0,1.0,462.0,506.0,1.0,1,782.0,1
775,775,0.28993107681987207,0.3,1.0,1.0,309.0,603.0,1.0,1,608.0,1
776,776,0.5404256526746732,0.5,0.0,0.0,387.0,956.0,0.0,1,267.0,1
777,777,0.1448673099586858,0.1,0.0,0.0,262.0,984.0,0.0,1,484.0,1
778,778,-0.46116080981625646,-0.5,1.0,0.0,355.0,712.0,0.0,0,293.0,1
779,779,-0.8221461877522267,-0.8,0.0,1.0,401.0,822.0,1.0,0,207.0,1
780,780,0.33403458845429823,0.3,1.0,1.0,299.0,932.0,1.0,1,1769.0,1
781,781,0.5621895872440069,0.6,1.0,1.0,339.0,953.0,1.0,1,478.0,1
782,782,0.7625090967350118,0.8,0.0,0.0,376.0,909.0,0.0,1,455.0,1
783,783,-0.40148163399672604,-0.4,0.0,1.0,298.0,547.0,1.0,0,475.0,1
784,784,0.2307119051441574,0.2,0.0,0.0,465.0,891.0,0.0,1,814.0,1
785,785,0.8807938974989457,0.9,0.0,0.0,325.0,755.0,0.0,1,210.0,1
786,786,0.032100018506770356,0.0,0.0,0.0,448.0,975.0,1.0,0,267.0,0
787,787,-0.3575884995828632,-0.4,1.0,0.0,400.0,923.0,0.0,0,537.0,1
788,788,0.2884654471578306,0.3,0.0,0.0,363.0,750.0,0.0,1,507.0,1
789,789,0.17318694002927837,0.2,0.0,0.0,413.0,735.0,0.0,1,1172.0,1
790,790,-0.08567615634085024,-0.1,1.0,0.0,462.0,768.0,0.0,0,1770.0,1
791,791,0.26347667834648447,0.3,0.0,0.0,343.0,996.0,0.0,1,491.0,1
792,792,-0.11010223687957466,-0.1,1.0,0.0,351.0,620.0,0.0,0,1019.0,1
793,793,-0.6532475327984919,-0.7,1.0,0.0,260.0,689.0,0.0,0,481.0,1
794,794,-0.5786852448688857,-0.6,0.0,1.0,303.0,876.0,1.0,0,391.0,1
795,795,0.01118344116877168,0.0,0.0,0.0,371.0,970.0,1.0,0,1659.0,0
796,796,-0.8680855133429809,-0.9,0.0,1.0,253.0,975.0,1.0,0,302.0,1
797,797,-0.1328098979445992,-0.1,0.0,1.0,484.0,540.0,1.0,0,1786.0,1
798,798,0.03942218303812972,0.0,1.0,1.0,423.0,941.0,1.0,1,56.0,1
799,799,-0.8591239652813288,-0.9,1.0,0.0,423.0,618.0,0.0,0,449.0,1
800,800,0.1899225650190025,0.2,1.0,1.0,289.0,911.0,1.0,1,840.0,1
801,801,0.03887529002253842,0.0,0.0,0.0,426.0,807.0,1.0,0,1767.0,0
802,802,0.09240130298414617,0.1,0.0,0.0,261.0,971.0,0.0,1,858.0,1
803,803,0.829862865172526,0.8,1.0,1.0,362.0,629.0,1.0,1,139.0,1
804,804,-0.53112603681923,-0.5,1.0,0.0,359.0,528.0,0.0,0,353.0,1
805,805,0.7597627220279702,0.8,0.0,0.0,380.0,953.0,0.0,1,137.0,1
806,806,0.815342130441833,0.8,0.0,0.0,480.0,745.0,0.0,1,225.0,1
807,807,0.3148557635119825,0.3,0.0,0.0,398.0,630.0,0.0,1,532.0,1
808,808,-0.4650626811121764,-0.5,1.0,0.0,482.0,904.0,0.0,0,254.0,1
809,809,0.24913659197502336,0.2,0.0,0.0,273.0,710.0,0.0,1,1687.0,1
810,810,-0.6140091151446181,-0.6,0.0,1.0,392.0,591.0,1.0,0,377.0,1
811,811,-0.5012210399560291,-0.5,1.0,0.0,339.0,952.0,0.0,0,399.0,1
812,812,0.08021095575018966,0.1,0.0,0.0,415.0,575.0,0.0,1,1790.0,1
813,813,0.5376649873118468,0.5,1.0,1.0,429.0,876.0,1.0,1,435.0,1
814,814,-0.7694183020149525,-0.8,0.0,1.0,437.0,664.0,1.0,0,349.0,1
815,815,-0.06598630392573501,-0.1,1.0,0.0,448.0,999.0,1.0,1,1553.0,0
816,816,0.39224774424474484,0.4,1.0,1.0,358.0,652.0,1.0,1,1270.0,1
817,817,-0.2640084357318482,-0.3,0.0,1.0,450.0,973.0,1.0,0,1447.0,1
818,818,0.678272672922097,0.7,1.0,1.0,348.0,914.0,1.0,1,378.0,1
819,819,0.0907476876054436,0.1,0.0,0.0,418.0,558.0,0.0,1,2024.0,1
820,820,-0.7670730904561478,-0.8,0.0,1.0,493.0,645.0,1.0,0,302.0,1
821,821,0.7893715603465014,0.8,0.0,0.0,299.0,898.0,0.0,1,183.0,1
822,822,0.7730059092064908,0.8,0.0,0.0,275.0,975.0,0.0,1,130.0,1
823,823,0.005524059560783279,0.0,0.0,0.0,352.0,974.0,1.0,0,1674.0,0
824,824,0.7265427101865961,0.7,0.0,0.0,333.0,525.0,0.0,1,312.0,1
825,825,0.6445833895279668,0.6,0.0,0.0,464.0,504.0,0.0,1,302.0,1
826,826,-0.756303808902812,-0.8,0.0,1.0,468.0,531.0,1.0,0,281.0,1
827,827,-0.1218958776545912,-0.1,1.0,0.0,355.0,507.0,0.0,0,1088.0,1
828,828,0.7562993081479775,0.8,1.0,1.0,395.0,866.0,1.0,1,199.0,1
829,829,-0.31911045421961914,-0.3,0.0,1.0,289.0,991.0,1.0,0,1190.0,1
830,830,-0.7235829581223686,-0.7,1.0,0.0,396.0,879.0,0.0,0,345.0,1
831,831,0.4827465555715139,0.5,0.0,0.0,397.0,680.0,0.0,1,633.0,1
832,832,0.07656003317816196,0.1,1.0,1.0,419.0,984.0,1.0,1,1597.0,1
833,833,-0.14551426790407973,-0.1,0.0,1.0,437.0,675.0,1.0,0,1888.0,1
834,834,0.2779450982178525,0.3,0.0,0.0,452.0,925.0,0.0,1,843.0,1
835,835,0.3933456179154372,0.4,0.0,0.0,342.0,501.0,0.0,1,257.0,1
836,836,0.8882877786167368,0.9,0.0,0.0,473.0,749.0,0.0,1,258.0,1
837,837,-0.4902466025851537,-0.5,1.0,0.0,257.0,600.0,0.0,0,393.0,1
838,838,-0.25422740274898037,-0.3,0.0,1.0,400.0,721.0,1.0,0,389.0,1
839,839,0.24439319993226383,0.2,0.0,0.0,279.0,736.0,0.0,1,1205.0,1
840,840,-0.7293296902329913,-0.7,0.0,1.0,493.0,995.0,1.0,0,152.0,1
841,841,0.4872988017056715,0.5,1.0,1.0,284.0,807.0,1.0,1,759.0,1
842,842,0.12023524996459767,0.1,0.0,0.0,322.0,935.0,1.0,0,1743.0,0
843,843,-0.7972195899474652,-0.8,0.0,1.0,415.0,763.0,1.0,0,102.0,1
844,844,-0.7138008878298344,-0.7,0.0,1.0,270.0,865.0,1.0,0,225.0,1
845,845,0.6345429048611643,0.6,1.0,1.0,413.0,798.0,1.0,1,209.0,1
846,846,0.5599004731299041,0.6,0.0,0.0,469.0,720.0,0.0,1,261.0,1
847,847,-0.42775375320182246,-0.4,1.0,0.0,483.0,679.0,0.0,0,168.0,1
848,848,0.14876635003854843,0.1,0.0,0.0,290.0,983.0,0.0,1,1727.0,1
849,849,-0.3754062992684679,-0.4,0.0,1.0,277.0,620.0,1.0,0,373.0,1
850,850,0.23384465046724945,0.2,1.0,1.0,289.0,874.0,1.0,1,1177.0,1
851,851,0.4277499707160425,0.4,1.0,1.0,255.0,601.0,1.0,1,464.0,1
852,852,-0.6546927437745494,-0.7,1.0,0.0,297.0,649.0,0.0,0,264.0,1
853,853,-0.18853281887978846,-0.2,0.0,1.0,318.0,723.0,1.0,0,1959.0,1
854,854,-0.8274024637075386,-0.8,1.0,0.0,496.0,735.0,0.0,0,279.0,1
855,855,0.8088476597071518,0.8,1.0,1.0,444.0,820.0,1.0,1,206.0,1
856,856,0.6512418184890761,0.7,0.0,0.0,435.0,898.0,0.0,1,337.0,1
857,857,0.45729235344246033,0.5,1.0,1.0,479.0,959.0,1.0,1,652.0,1
858,858,-0.0781317863437706,-0.1,1.0,0.0,255.0,763.0,0.0,0,912.0,1
859,859,-0.14472958577472306,-0.1,1.0,0.0,469.0,650.0,0.0,0,1741.0,1
860,860,0.5825514857189181,0.6,1.0,1.0,467.0,758.0,1.0,1,615.0,1
861,861,-0.1837216007609338,-0.2,0.0,1.0,445.0,578.0,1.0,0,1377.0,1
862,862,0.10881763087048302,0.1,1.0,1.0,262.0,640.0,1.0,1,828.0,1
863,863,0.508326367163085,0.5,1.0,1.0,310.0,907.0,1.0,1,593.0,1
864,864,-0.006325208912619673,-0.0,0.0,1.0,417.0,979.0,0.0,1,1604.0,0
865,865,0.5185862848854205,0.5,0.0,0.0,289.0,695.0,0.0,1,206.0,1
866,866,0.7944810715620002,0.8,0.0,0.0,451.0,654.0,0.0,1,375.0,1
867,867,0.44060302996797696,0.4,0.0,0.0,405.0,671.0,0.0,1,404.0,1
868,868,0.13423672599989922,0.1,0.0,0.0,273.0,566.0,0.0,1,1041.0,1
869,869,-0.1279922940082563,-0.1,1.0,0.0,475.0,764.0,1.0,1,1761.0,0
870,870,0.7785166556532622,0.8,0.0,0.0,488.0,734.0,0.0,1,228.0,1
871,871,-0.2914353515215672,-0.3,1.0,0.0,319.0,724.0,0.0,0,1237.0,1
872,872,0.20784884189008712,0.2,1.0,1.0,396.0,813.0,1.0,1,731.0,1
873,873,0.563373967068929,0.6,1.0,1.0,465.0,867.0,1.0,1,378.0,1
874,874,0.15366788550146337,0.2,1.0,1.0,420.0,935.0,0.0,0,1645.0,0
875,875,-0.07504417146590092,-0.1,0.0,1.0,426.0,638.0,1.0,0,1616.0,1
876,876,0.5861263919409222,0.6,1.0,1.0,299.0,745.0,1.0,1,186.0,1
877,877,-0.8594677620736256,-0.9,1.0,0.0,397.0,520.0,0.0,0,503.0,1
878,878,-0.13254807062251106,-0.1,1.0,0.0,345.0,603.0,0.0,0,2052.0,1
879,879,0.7798567335401966,0.8,0.0,0.0,410.0,555.0,0.0,1,225.0,1
880,880,0.6869838073558757,0.7,1.0,1.0,262.0,750.0,1.0,1,128.0,1
881,881,0.35490554826683895,0.4,0.0,0.0,329.0,737.0,0.0,1,294.0,1
882,882,-0.1827197555788762,-0.2,0.0,1.0,300.0,890.0,1.0,0,90.0,1
883,883,-0.8288862575367085,-0.8,0.0,1.0,442.0,847.0,1.0,0,121.0,1
884,884,0.7770720130368757,0.8,1.0,1.0,403.0,666.0,1.0,1,1231.0,1
885,885,0.8326312583620882,0.8,1.0,1.0,411.0,568.0,1.0,1,421.0,1
886,886,0.8527579662473742,0.9,0.0,0.0,454.0,785.0,0.0,1,191.0,1
887,887,0.6432101711584356,0.6,1.0,1.0,412.0,710.0,1.0,1,148.0,1
888,888,0.7026608787426699,0.7,1.0,1.0,263.0,526.0,1.0,1,851.0,1
889,889,0.7734113204865233,0.8,0.0,0.0,312.0,814.0,0.0,1,124.0,1
890,890,0.7585746971464723,0.8,0.0,0.0,492.0,801.0,0.0,1,207.0,1
891,891,-0.7187567211871317,-0.7,1.0,0.0,311.0,722.0,0.0,0,387.0,1
892,892,0.07023180122158934,0.1,1.0,1.0,418.0,954.0,1.0,1,1628.0,1
893,893,-0.12019721225481816,-0.1,0.0,1.0,478.0,905.0,1.0,0,887.0,1
894,894,-0.4154388797338466,-0.4,0.0,1.0,424.0,809.0,1.0,0,1227.0,1
895,895,0.33370115773826614,0.3,0.0,0.0,364.0,595.0,0.0,1,441.0,1
896,896,-0.02745636973860155,-0.0,1.0,0.0,499.0,955.0,0.0,0,1546.0,1
897,897,0.6160669100542367,0.6,0.0,0.0,389.0,599.0,0.0,1,322.0,1
898,898,-0.6272504062018149,-0.6,1.0,0.0,452.0,746.0,0.0,0,302.0,1
899,899,0.022500909890616594,0.0,1.0,1.0,448.0,790.0,0.0,0,1762.0,0
900,900,0.14272511354658624,0.1,1.0,1.0,293.0,827.0,1.0,1,810.0,1
901,901,-0.5202380760633913,-0.5,0.0,1.0,404.0,572.0,1.0,0,354.0,1
902,902,0.6332694454384594,0.6,0.0,0.0,349.0,902.0,0.0,1,429.0,1
903,903,0.028157055147767784,0.0,0.0,0.0,403.0,712.0,1.0,0,1885.0,0
904,904,-0.8689652392106973,-0.9,1.0,0.0,256.0,530.0,0.0,0,364.0,1
905,905,0.4515343864890854,0.5,1.0,1.0,493.0,532.0,1.0,1,505.0,1
906,906,-0.007305850260390989,-0.0,0.0,1.0,315.0,765.0,0.0,1,1920.0,0
907,907,0.01827549698833686,0.0,1.0,1.0,328.0,615.0,0.0,0,2017.0,0
908,908,-0.058236323839731874,-0.1,1.0,0.0,420.0,868.0,0.0,0,1712.0,1
909,909,-0.6592135839713293,-0.7,0.0,1.0,322.0,702.0,1.0,0,1906.0,1
910,910,-0.5598525181259824,-0.6,1.0,0.0,252.0,530.0,0.0,0,378.0,1
911,911,-0.6120404645178523,-0.6,1.0,0.0,270.0,748.0,0.0,0,122.0,1
912,912,-0.16048882642361317,-0.2,1.0,0.0,402.0,626.0,0.0,0,1972.0,1
913,913,-0.1260626737532211,-0.1,0.0,1.0,460.0,601.0,1.0,0,1569.0,1
914,914,-0.16454770692567866,-0.2,0.0,1.0,483.0,556.0,1.0,0,1961.0,1
915,915,0.5353458557217893,0.5,0.0,0.0,352.0,998.0,0.0,1,380.0,1
916,916,0.7551147846581331,0.8,0.0,0.0,350.0,663.0,0.0,1,337.0,1
917,917,0.8256438233139102,0.8,1.0,1.0,314.0,935.0,1.0,1,351.0,1
918,918,0.48347859915963964,0.5,0.0,0.0,368.0,948.0,0.0,1,294.0,1
919,919,-0.0203220344612971,-0.0,0.0,1.0,393.0,763.0,1.0,0,1844.0,1
920,920,-0.010117860095625097,-0.0,0.0,1.0,448.0,854.0,0.0,1,1698.0,0
921,921,0.6580200937921356,0.7,0.0,0.0,296.0,611.0,0.0,1,373.0,1
922,922,0.7861498799140473,0.8,0.0,0.0,255.0,842.0,0.0,1,183.0,1
923,923,0.8915037211249764,0.9,0.0,0.0,461.0,905.0,0.0,1,224.0,1
924,924,-0.28212144440279785,-0.3,0.0,1.0,400.0,982.0,1.0,0,1498.0,1
925,925,0.3746122568677349,0.4,0.0,0.0,307.0,602.0,0.0,1,751.0,1
926,926,-0.8463084451993098,-0.8,1.0,0.0,319.0,592.0,0.0,0,269.0,1
927,927,0.122682348020689,0.1,1.0,1.0,375.0,700.0,1.0,1,1925.0,1
928,928,-0.2879676846478565,-0.3,0.0,1.0,342.0,789.0,1.0,0,229.0,1
929,929,-0.724988525113769,-0.7,1.0,0.0,251.0,767.0,0.0,0,442.0,1
930,930,0.5180934815710908,0.5,1.0,1.0,371.0,839.0,1.0,1,200.0,1
931,931,-0.7007272580470454,-0.7,1.0,0.0,470.0,969.0,0.0,0,131.0,1
932,932,-0.6063807164806159,-0.6,1.0,0.0,451.0,804.0,0.0,0,835.0,1
933,933,-0.4901884391094555,-0.5,0.0,1.0,314.0,695.0,1.0,0,481.0,1
934,934,0.2718990624458598,0.3,1.0,1.0,495.0,783.0,1.0,1,972.0,1
935,935,-0.4667481215918702,-0.5,1.0,0.0,427.0,993.0,0.0,0,560.0,1
936,936,-0.7509774544671672,-0.8,1.0,0.0,313.0,814.0,0.0,0,333.0,1
937,937,0.19385270748602135,0.2,1.0,1.0,433.0,642.0,1.0,1,1925.0,1
938,938,-0.6725560974503486,-0.7,1.0,0.0,340.0,807.0,0.0,0,333.0,1
939,939,-0.04160991359936539,-0.0,1.0,0.0,403.0,874.0,0.0,0,1723.0,1
940,940,-0.39324702007309387,-0.4,1.0,0.0,330.0,850.0,0.0,0,890.0,1
941,941,0.18870983670166164,0.2,0.0,0.0,304.0,621.0,1.0,0,2075.0,0
942,942,0.04965894291014494,0.0,0.0,0.0,468.0,578.0,1.0,0,1294.0,0
943,943,0.35253165447253443,0.4,0.0,0.0,251.0,747.0,0.0,1,302.0,1
944,944,-0.38467819160922256,-0.4,1.0,0.0,399.0,879.0,0.0,0,492.0,1
945,945,-0.3117648490907847,-0.3,0.0,1.0,425.0,937.0,1.0,0,548.0,1
946,946,-0.8226301383536598,-0.8,1.0,0.0,253.0,876.0,0.0,0,71.0,1
947,947,0.7476296237597967,0.7,0.0,0.0,356.0,810.0,0.0,1,274.0,1
948,948,0.05916493437542114,0.1,1.0,1.0,400.0,546.0,1.0,1,2054.0,1
949,949,0.89649819029128,0.9,0.0,0.0,422.0,667.0,0.0,1,201.0,1
950,950,0.234194721581087,0.2,1.0,1.0,457.0,756.0,1.0,1,437.0,1
951,951,-0.12397247468443573,-0.1,0.0,1.0,302.0,855.0,1.0,0,693.0,1
952,952,0.8075831798505805,0.8,0.0,0.0,411.0,619.0,0.0,1,430.0,1
953,953,-0.3310920810400121,-0.3,0.0,1.0,266.0,811.0,1.0,0,253.0,1
954,954,-0.475212299009326,-0.5,0.0,1.0,484.0,925.0,1.0,0,401.0,1
955,955,-0.1256713416146521,-0.1,1.0,0.0,393.0,991.0,0.0,0,1616.0,1
956,956,-0.7048976471091501,-0.7,1.0,0.0,320.0,881.0,0.0,0,509.0,1
957,957,0.46272537491169186,0.5,1.0,1.0,404.0,734.0,1.0,1,492.0,1
958,958,0.8052654749889966,0.8,0.0,0.0,377.0,985.0,0.0,1,208.0,1
959,959,-0.5969316621481338,-0.6,1.0,0.0,447.0,521.0,0.0,0,332.0,1
960,960,0.16252442352573604,0.2,1.0,1.0,299.0,698.0,1.0,1,2003.0,1
961,961,-0.4360346378958226,-0.4,1.0,0.0,263.0,521.0,0.0,0,1006.0,1
962,962,-0.3635232631256061,-0.4,0.0,1.0,457.0,842.0,1.0,0,641.0,1
963,963,0.5008689136961136,0.5,0.0,0.0,325.0,901.0,0.0,1,324.0,1
964,964,-0.6789901721833689,-0.7,1.0,0.0,432.0,587.0,0.0,0,241.0,1
965,965,0.07790436144830148,0.1,1.0,1.0,447.0,987.0,1.0,1,1566.0,1
966,966,-0.0817524950336671,-0.1,0.0,1.0,313.0,502.0,1.0,0,1305.0,1
967,967,0.7527414874030866,0.8,0.0,0.0,417.0,916.0,0.0,1,317.0,1
968,968,0.8752411169880338,0.9,0.0,0.0,279.0,541.0,0.0,1,220.0,1
969,969,0.27124050944572364,0.3,1.0,1.0,477.0,844.0,1.0,1,1679.0,1
970,970,0.8520092011751977,0.9,0.0,0.0,276.0,893.0,0.0,1,221.0,1
971,971,0.501495814486166,0.5,0.0,0.0,396.0,957.0,0.0,1,487.0,1
972,972,0.7347946786399583,0.7,1.0,1.0,483.0,674.0,1.0,1,683.0,1
973,973,0.1966284944604767,0.2,0.0,0.0,354.0,524.0,0.0,1,2122.0,1
974,974,0.2827843241424671,0.3,0.0,0.0,488.0,727.0,0.0,1,425.0,1
975,975,0.1926613192392873,0.2,1.0,1.0,387.0,528.0,1.0,1,1455.0,1
976,976,0.23493995800425982,0.2,1.0,1.0,461.0,734.0,1.0,1,1455.0,1
977,977,0.622006302444872,0.6,0.0,0.0,327.0,728.0,0.0,1,135.0,1
978,978,0.2809397164755568,0.3,0.0,0.0,262.0,950.0,0.0,1,218.0,1
979,979,0.5805849879468982,0.6,0.0,0.0,252.0,710.0,0.0,1,298.0,1
980,980,-0.15131871279973774,-0.2,1.0,0.0,269.0,599.0,0.0,0,2132.0,1
981,981,0.4090749355622295,0.4,0.0,0.0,280.0,576.0,0.0,1,694.0,1
982,982,0.5880153759898642,0.6,0.0,0.0,310.0,685.0,0.0,1,405.0,1
983,983,0.35313777823820425,0.4,1.0,1.0,488.0,677.0,1.0,1,655.0,1
984,984,-0.649175430491739,-0.6,1.0,0.0,316.0,761.0,0.0,0,193.0,1
985,985,-0.7554460273496184,-0.8,1.0,0.0,492.0,528.0,0.0,0,200.0,1
986,986,0.6508918020990967,0.7,1.0,1.0,362.0,578.0,1.0,1,1950.0,1
987,987,-0.45208443966167694,-0.5,0.0,1.0,355.0,966.0,1.0,0,559.0,1
988,988,0.3236867233840891,0.3,1.0,1.0,470.0,502.0,1.0,1,288.0,1
989,989,-0.44331618618480095,-0.4,0.0,1.0,268.0,555.0,1.0,0,297.0,1
990,990,-0.16477846273582764,-0.2,1.0,0.0,468.0,566.0,0.0,0,946.0,1
991,991,0.8092676830941449,0.8,0.0,0.0,302.0,596.0,0.0,1,262.0,1
992,992,-0.249551625720005,-0.2,1.0,0.0,324.0,532.0,0.0,0,834.0,1
993,993,0.33072143926697206,0.3,1.0,1.0,337.0,938.0,1.0,1,425.0,1
994,994,-0.8299344337890295,-0.8,1.0,0.0,495.0,878.0,0.0,0,147.0,1
995,995,-0.3060348918431488,-0.3,1.0,0.0,420.0,822.0,0.0,0,1658.0,1
996,996,-0.8340304753499631,-0.8,1.0,0.0,329.0,875.0,0.0,0,326.0,1
997,997,-0.23956419057334022,-0.2,1.0,0.0,454.0,806.0,0.0,0,1380.0,1
998,998,0.47089443767594596,0.5,0.0,0.0,430.0,710.0,0.0,1,490.0,1
999,999,0.29033485676517234,0.3,0.0,0.0,284.0,958.0,0.0,1,718.0,1
1000,1000,0.7647028938950219,0.8,0.0,0.0,349.0,581.0,0.0,1,370.0,1
1001,1001,-0.6446659835568449,-0.6,0.0,1.0,341.0,657.0,1.0,0,412.0,1
1002,1002,-0.036309169696317256,-0.0,0.0,1.0,304.0,812.0,1.0,0,1884.0,1
1003,1003,-0.0066773700067040975,-0.0,1.0,0.0,257.0,703.0,1.0,1,2040.0,0
1004,1004,0.4321639039993156,0.4,1.0,1.0,342.0,802.0,1.0,1,156.0,1
1005,1005,-0.689483781521341,-0.7,1.0,0.0,440.0,945.0,0.0,0,205.0,1
1006,1006,-0.26778763574970943,-0.3,1.0,0.0,320.0,728.0,0.0,0,472.0,1
1007,1007,-0.8456082005349203,-0.8,0.0,1.0,368.0,868.0,1.0,0,184.0,1
1008,1008,-0.8308913519972055,-0.8,0.0,1.0,341.0,693.0,1.0,0,506.0,1
1009,1009,-0.621340012339789,-0.6,1.0,0.0,367.0,615.0,0.0,0,838.0,1
1010,1010,-0.8655801155770487,-0.9,1.0,0.0,254.0,554.0,0.0,0,262.0,1
1011,1011,0.2753585560420194,0.3,0.0,0.0,449.0,852.0,0.0,1,709.0,1
1012,1012,0.35931413736962525,0.4,0.0,0.0,453.0,879.0,0.0,1,458.0,1
1013,1013,-0.10100915041313996,-0.1,0.0,1.0,416.0,979.0,1.0,0,695.0,1
1014,1014,-0.09455830073465077,-0.1,1.0,0.0,326.0,736.0,0.0,0,1938.0,1
1015,1015,0.46722374185102045,0.5,0.0,0.0,465.0,743.0,0.0,1,652.0,1
1016,1016,-0.23156920325058028,-0.2,0.0,1.0,489.0,546.0,1.0,0,755.0,1
1017,1017,0.3765547429682373,0.4,1.0,1.0,306.0,677.0,1.0,1,337.0,1
1018,1018,0.4915654997421547,0.5,1.0,1.0,438.0,502.0,1.0,1,640.0,1
1019,1019,-0.7219092544565819,-0.7,1.0,0.0,443.0,577.0,0.0,0,310.0,1
1020,1020,0.3051462150495049,0.3,1.0,1.0,348.0,748.0,1.0,1,1904.0,1
1021,1021,-0.3330883878137596,-0.3,1.0,0.0,380.0,687.0,0.0,0,603.0,1
1022,1022,-0.8395165379830242,-0.8,0.0,1.0,250.0,967.0,1.0,0,183.0,1
1023,1023,-0.507995119223964,-0.5,0.0,1.0,348.0,687.0,1.0,0,1875.0,1
1024,1024,0.1789681833411655,0.2,0.0,0.0,422.0,974.0,0.0,1,1604.0,1
1025,1025,-0.24370173032914755,-0.2,1.0,0.0,487.0,992.0,0.0,0,1521.0,1
1026,1026,-0.7538866842344399,-0.8,1.0,0.0,312.0,552.0,0.0,0,426.0,1
1027,1027,0.33195050256924274,0.3,1.0,1.0,348.0,778.0,1.0,1,294.0,1
1028,1028,-0.30661409224746117,-0.3,0.0,1.0,377.0,916.0,1.0,0,427.0,1
1029,1029,-0.10620520258614063,-0.1,1.0,0.0,458.0,817.0,0.0,0,1725.0,1
1030,1030,0.7075554388627653,0.7,0.0,0.0,336.0,611.0,0.0,1,203.0,1
1031,1031,-0.27123258614203205,-0.3,1.0,0.0,284.0,568.0,0.0,0,338.0,1
1032,1032,0.23184483318544824,0.2,0.0,0.0,364.0,722.0,0.0,1,1114.0,1
1033,1033,-0.4186426930112148,-0.4,0.0,1.0,467.0,578.0,1.0,0,445.0,1
1034,1034,0.659722911334479,0.7,0.0,0.0,476.0,573.0,0.0,1,221.0,1
1035,1035,0.39390533712587883,0.4,0.0,0.0,485.0,864.0,0.0,1,831.0,1
1036,1036,-0.6412694952759097,-0.6,0.0,1.0,269.0,912.0,1.0,0,279.0,1
1037,1037,0.8998329929769407,0.9,1.0,1.0,400.0,677.0,1.0,1,203.0,1
1038,1038,0.6939704215668735,0.7,1.0,1.0,409.0,703.0,1.0,1,628.0,1
1039,1039,-0.6665917377943539,-0.7,0.0,1.0,455.0,993.0,1.0,0,102.0,1
1040,1040,-0.13853912888671682,-0.1,1.0,0.0,372.0,787.0,0.0,0,1441.0,1
1041,1041,0.3355453015262492,0.3,0.0,0.0,462.0,870.0,0.0,1,98.0,1
1042,1042,0.10057419337465101,0.1,0.0,0.0,257.0,585.0,0.0,1,2158.0,1
1043,1043,0.7157516595261343,0.7,1.0,1.0,276.0,979.0,1.0,1,95.0,1
1044,1044,0.8893410032395211,0.9,1.0,1.0,324.0,699.0,1.0,1,397.0,1
1045,1045,0.06594804588567504,0.1,1.0,1.0,344.0,923.0,1.0,1,1733.0,1
1046,1046,-0.4291223662044233,-0.4,0.0,1.0,430.0,623.0,1.0,0,227.0,1
1047,1047,-0.2854110274419708,-0.3,1.0,0.0,493.0,536.0,0.0,0,1071.0,1
1048,1048,0.7067630692869203,0.7,0.0,0.0,258.0,989.0,0.0,1,233.0,1
1049,1049,-0.06754153270778451,-0.1,0.0,1.0,259.0,872.0,1.0,0,599.0,1
1050,1050,0.885883321188281,0.9,0.0,0.0,386.0,860.0,0.0,1,184.0,1
1051,1051,-0.5691671664243774,-0.6,0.0,1.0,410.0,632.0,1.0,0,88.0,1
1052,1052,0.6661309648325643,0.7,1.0,1.0,378.0,987.0,1.0,1,205.0,1
1053,1053,0.4978911321757601,0.5,0.0,0.0,416.0,617.0,0.0,1,287.0,1
1054,1054,-0.3071902188600154,-0.3,0.0,1.0,467.0,933.0,1.0,0,490.0,1
1055,1055,0.4487857269636232,0.4,1.0,1.0,317.0,736.0,1.0,1,777.0,1
1056,1056,-0.7230773442688796,-0.7,0.0,1.0,314.0,548.0,1.0,0,228.0,1
1057,1057,0.6119746689611684,0.6,0.0,0.0,327.0,889.0,0.0,1,414.0,1
1058,1058,-0.5692670356474963,-0.6,1.0,0.0,495.0,620.0,0.0,0,145.0,1
1059,1059,0.6350776536557085,0.6,1.0,1.0,351.0,758.0,1.0,1,1241.0,1
1060,1060,0.02994946382867425,0.0,0.0,0.0,353.0,959.0,0.0,1,698.0,1
1061,1061,0.8431860950258704,0.8,0.0,0.0,468.0,964.0,0.0,1,348.0,1
1062,1062,0.2379930641396023,0.2,0.0,0.0,459.0,621.0,0.0,1,1920.0,1
1063,1063,-0.4113397872780587,-0.4,0.0,1.0,304.0,957.0,1.0,0,99.0,1
1064,1064,0.4422319848565087,0.4,1.0,1.0,487.0,893.0,1.0,1,240.0,1
1065,1065,0.3628160375584185,0.4,1.0,1.0,347.0,734.0,1.0,1,529.0,1
1066,1066,0.01312256484290708,0.0,1.0,1.0,434.0,736.0,0.0,0,1830.0,0
1067,1067,0.8165114484211965,0.8,0.0,0.0,476.0,665.0,0.0,1,159.0,1
1068,1068,0.00816125401945833,0.0,1.0,1.0,353.0,780.0,1.0,1,1867.0,1
1069,1069,-0.36767960310612546,-0.4,0.0,1.0,257.0,568.0,1.0,0,535.0,1
1070,1070,-0.37185716677365976,-0.4,1.0,0.0,359.0,692.0,0.0,0,459.0,1
1071,1071,-0.49787986058408673,-0.5,1.0,0.0,460.0,709.0,0.0,0,361.0,1
1072,1072,-0.010627305384807162,-0.0,1.0,0.0,441.0,953.0,0.0,0,176.0,1
1073,1073,0.15411324756567402,0.2,1.0,1.0,319.0,864.0,1.0,1,397.0,1
1074,1074,0.7656268336872553,0.8,1.0,1.0,300.0,811.0,1.0,1,259.0,1
1075,1075,-0.7926155667420802,-0.8,0.0,1.0,457.0,868.0,1.0,0,145.0,1
1076,1076,-0.03983030627608508,-0.0,1.0,0.0,455.0,969.0,1.0,1,1576.0,0
1077,1077,0.04070085740220952,0.0,1.0,1.0,465.0,613.0,1.0,1,222.0,1
1078,1078,-0.7703862588078134,-0.8,1.0,0.0,495.0,777.0,0.0,0,158.0,1
1079,1079,-0.8199203709842743,-0.8,1.0,0.0,292.0,813.0,0.0,0,165.0,1
1080,1080,0.14282036096994288,0.1,1.0,1.0,396.0,812.0,1.0,1,1792.0,1
1081,1081,0.11854464804382514,0.1,0.0,0.0,361.0,507.0,0.0,1,2132.0,1
1082,1082,0.41437533521018943,0.4,0.0,0.0,470.0,628.0,0.0,1,602.0,1
1083,1083,-0.44580639661440086,-0.4,1.0,0.0,481.0,727.0,0.0,0,352.0,1
1084,1084,-0.5307792603846746,-0.5,1.0,0.0,291.0,507.0,0.0,0,362.0,1
1085,1085,-0.4520732699384768,-0.5,0.0,1.0,327.0,902.0,1.0,0,251.0,1
1086,1086,0.04001087113760138,0.0,0.0,0.0,300.0,607.0,0.0,1,2093.0,1
1087,1087,-0.15214475264565797,-0.2,0.0,1.0,282.0,780.0,1.0,0,318.0,1
1088,1088,-0.5925274817375756,-0.6,1.0,0.0,356.0,619.0,0.0,0,335.0,1
1089,1089,-0.5890632167170099,-0.6,0.0,1.0,373.0,987.0,1.0,0,410.0,1
1090,1090,-0.6909824247985947,-0.7,1.0,0.0,323.0,751.0,0.0,0,306.0,1
1091,1091,0.8307194625615334,0.8,1.0,1.0,413.0,818.0,1.0,1,349.0,1
1092,1092,-0.24904208306048936,-0.2,1.0,0.0,422.0,707.0,0.0,0,671.0,1
1093,1093,0.667055015338346,0.7,0.0,0.0,496.0,935.0,0.0,1,299.0,1
1094,1094,-0.2971085091730341,-0.3,0.0,1.0,413.0,597.0,1.0,0,680.0,1
1095,1095,0.40618094457396825,0.4,0.0,0.0,300.0,691.0,0.0,1,459.0,1
1096,1096,-0.8381342970469035,-0.8,1.0,0.0,299.0,687.0,0.0,0,164.0,1
1097,1097,-0.41752508152637813,-0.4,1.0,0.0,308.0,616.0,0.0,0,1196.0,1
1098,1098,0.32119736443821856,0.3,1.0,1.0,456.0,800.0,1.0,1,214.0,1
1099,1099,-0.6123242634650229,-0.6,0.0,1.0,362.0,656.0,1.0,0,852.0,1
1100,1100,-0.11144538208346777,-0.1,1.0,0.0,421.0,928.0,0.0,0,1651.0,1
1101,1101,0.4140210105870966,0.4,0.0,0.0,401.0,818.0,0.0,1,1641.0,1
1102,1102,0.32243943365408356,0.3,1.0,1.0,351.0,800.0,1.0,1,1079.0,1
1103,1103,-0.5595523396093579,-0.6,1.0,0.0,399.0,654.0,0.0,0,257.0,1
1104,1104,-0.08940709702574978,-0.1,1.0,0.0,263.0,907.0,0.0,0,1830.0,1
1105,1105,-0.7114120366410117,-0.7,0.0,1.0,354.0,795.0,1.0,0,1611.0,1
1106,1106,0.08271421920503919,0.1,1.0,1.0,325.0,960.0,1.0,1,1715.0,1
1107,1107,0.6529382832346405,0.7,1.0,1.0,401.0,624.0,1.0,1,115.0,1
1108,1108,-0.8327809737664232,-0.8,0.0,1.0,274.0,708.0,1.0,0,148.0,1
1109,1109,0.7380746369706984,0.7,1.0,1.0,280.0,690.0,1.0,1,450.0,1
1110,1110,-0.5506343908695541,-0.6,0.0,1.0,318.0,929.0,1.0,0,373.0,1
1111,1111,0.6344042663606811,0.6,1.0,1.0,372.0,777.0,1.0,1,321.0,1
1112,1112,-0.11823521401941739,-0.1,1.0,0.0,386.0,553.0,1.0,1,2061.0,0
1113,1113,-0.7596077748472765,-0.8,1.0,0.0,390.0,645.0,0.0,0,235.0,1
1114,1114,-0.241369655634739,-0.2,0.0,1.0,499.0,816.0,1.0,0,265.0,1
1115,1115,0.6076535655393195,0.6,1.0,1.0,294.0,546.0,1.0,1,1310.0,1
1116,1116,-0.7725842894232224,-0.8,1.0,0.0,257.0,861.0,0.0,0,252.0,1
1117,1117,0.5441025862235008,0.5,0.0,0.0,430.0,549.0,0.0,1,261.0,1
1118,1118,0.6815846728136997,0.7,1.0,1.0,339.0,775.0,1.0,1,286.0,1
1119,1119,0.32630022432824146,0.3,0.0,0.0,477.0,907.0,0.0,1,776.0,1
1120,1120,0.18028211621352697,0.2,0.0,0.0,276.0,740.0,1.0,0,1984.0,0
1121,1121,0.16600855927773261,0.2,1.0,1.0,433.0,587.0,1.0,1,1980.0,1
1122,1122,0.5301274477147014,0.5,0.0,0.0,273.0,665.0,0.0,1,492.0,1
1123,1123,-0.009661487947118297,-0.0,0.0,1.0,282.0,502.0,1.0,0,866.0,1
1124,1124,-0.8927665615027185,-0.9,0.0,1.0,333.0,757.0,1.0,0,190.0,1
1125,1125,0.6650975597809899,0.7,0.0,0.0,266.0,637.0,0.0,1,217.0,1
1126,1126,0.02686027244803868,0.0,1.0,1.0,339.0,849.0,1.0,1,1812.0,1
1127,1127,0.4337296592012744,0.4,1.0,1.0,287.0,723.0,1.0,1,740.0,1
1128,1128,0.7330840315715262,0.7,0.0,0.0,454.0,878.0,1.0,0,-212.0,0
1129,1129,-0.6005377241942569,-0.6,0.0,1.0,476.0,859.0,1.0,0,185.0,1
1130,1130,-0.38458220805058385,-0.4,1.0,0.0,309.0,719.0,0.0,0,262.0,1
1131,1131,-0.24927122071768004,-0.2,1.0,0.0,490.0,751.0,0.0,0,759.0,1
1132,1132,0.3033567989708049,0.3,1.0,1.0,470.0,719.0,1.0,1,721.0,1
1133,1133,-0.3107381845777353,-0.3,1.0,0.0,388.0,797.0,0.0,0,1555.0,1
1134,1134,-0.49857480575222,-0.5,0.0,1.0,375.0,699.0,1.0,0,646.0,1
1135,1135,-0.005809775076154766,-0.0,1.0,0.0,428.0,819.0,1.0,1,1753.0,0
1136,1136,-0.7645094396500915,-0.8,0.0,1.0,285.0,856.0,1.0,0,499.0,1
1137,1137,-0.8434192923849341,-0.8,0.0,1.0,470.0,664.0,1.0,0,206.0,1
1138,1138,-0.7534809406456253,-0.8,1.0,0.0,457.0,922.0,0.0,0,101.0,1
1139,1139,0.13693032023855622,0.1,1.0,1.0,300.0,704.0,1.0,1,1996.0,1
1140,1140,-0.33167820186153696,-0.3,1.0,0.0,496.0,838.0,0.0,0,746.0,1
1141,1141,0.05408627097182095,0.1,0.0,0.0,342.0,877.0,0.0,1,1781.0,1
1142,1142,0.7838330615113066,0.8,0.0,0.0,404.0,793.0,0.0,1,293.0,1
1143,1143,-0.618959291899082,-0.6,1.0,0.0,299.0,656.0,0.0,0,455.0,1
1144,1144,0.26288493561393633,0.3,1.0,1.0,335.0,578.0,1.0,1,1357.0,1
1145,1145,-0.13329896140709885,-0.1,0.0,1.0,269.0,583.0,1.0,0,378.0,1
1146,1146,0.22720150924171223,0.2,1.0,1.0,261.0,976.0,1.0,1,1123.0,1
1147,1147,-0.24365738551326466,-0.2,0.0,1.0,488.0,704.0,1.0,0,408.0,1
1148,1148,-0.12053378695464712,-0.1,0.0,1.0,316.0,620.0,1.0,0,2064.0,1
1149,1149,0.22556441388130433,0.2,1.0,1.0,336.0,964.0,1.0,1,1700.0,1
1150,1150,0.17749504969991003,0.2,0.0,0.0,375.0,514.0,1.0,0,2111.0,0
1151,1151,-0.10512473985616733,-0.1,1.0,0.0,419.0,888.0,0.0,0,413.0,1
1152,1152,0.6789477261661135,0.7,1.0,1.0,297.0,755.0,1.0,1,168.0,1
1153,1153,0.3678460032636687,0.4,1.0,1.0,344.0,806.0,1.0,1,460.0,1
1154,1154,-0.5729750488791232,-0.6,0.0,1.0,451.0,575.0,1.0,0,264.0,1
1155,1155,0.7561334773941232,0.8,0.0,0.0,252.0,504.0,0.0,1,484.0,1
1156,1156,-0.17215180326913793,-0.2,0.0,1.0,464.0,970.0,1.0,0,1566.0,1
1157,1157,0.2674441321416058,0.3,1.0,1.0,474.0,618.0,1.0,1,898.0,1
1158,1158,-0.688102314190872,-0.7,0.0,1.0,333.0,650.0,1.0,0,147.0,1
1159,1159,0.8655961415270353,0.9,0.0,0.0,402.0,987.0,0.0,1,281.0,1
1160,1160,0.8920358959235747,0.9,0.0,0.0,486.0,900.0,0.0,1,284.0,1
1161,1161,-0.6513339224818164,-0.7,1.0,0.0,357.0,686.0,0.0,0,217.0,1
1162,1162,-0.06889631856127909,-0.1,0.0,1.0,424.0,690.0,1.0,0,596.0,1
1163,1163,-0.4380583729813923,-0.4,1.0,0.0,386.0,745.0,0.0,0,349.0,1
1164,1164,-0.11208802372557158,-0.1,1.0,0.0,388.0,662.0,0.0,0,1950.0,1
1165,1165,-0.8801501536773899,-0.9,0.0,1.0,280.0,686.0,1.0,0,244.0,1
1166,1166,0.2922044222934014,0.3,1.0,1.0,440.0,867.0,1.0,1,753.0,1
1167,1167,-0.12590601949037006,-0.1,0.0,1.0,317.0,617.0,1.0,0,476.0,1
1168,1168,-0.8284025203076084,-0.8,1.0,0.0,277.0,529.0,0.0,0,204.0,1
1169,1169,-0.13213159768831395,-0.1,0.0,1.0,409.0,643.0,1.0,0,748.0,1
1170,1170,0.3477653192390827,0.3,1.0,1.0,495.0,612.0,1.0,1,373.0,1
1171,1171,-0.30654825604667335,-0.3,1.0,0.0,354.0,751.0,0.0,0,885.0,1
1172,1172,-0.5759136243344603,-0.6,0.0,1.0,382.0,506.0,1.0,0,542.0,1
1173,1173,0.3557035455622496,0.4,1.0,1.0,447.0,756.0,1.0,1,617.0,1
1174,1174,0.636077338062767,0.6,1.0,1.0,356.0,596.0,1.0,1,368.0,1
1175,1175,-0.4822131191826048,-0.5,0.0,1.0,385.0,524.0,1.0,0,451.0,1
1176,1176,0.3568990026512201,0.4,1.0,1.0,481.0,569.0,1.0,1,460.0,1
1177,1177,-0.686706072704573,-0.7,1.0,0.0,278.0,662.0,0.0,0,240.0,1
1178,1178,0.1090010296504137,0.1,0.0,0.0,323.0,675.0,0.0,1,2002.0,1
1179,1179,-0.5875939249547929,-0.6,0.0,1.0,364.0,696.0,1.0,0,330.0,1
1180,1180,-0.39255529676540746,-0.4,1.0,0.0,405.0,764.0,0.0,0,361.0,1
1181,1181,-0.20920096932530208,-0.2,1.0,0.0,431.0,995.0,0.0,0,1574.0,1
1182,1182,-0.48446355739630687,-0.5,1.0,0.0,471.0,619.0,0.0,0,360.0,1
1183,1183,0.5296204741141809,0.5,1.0,1.0,339.0,787.0,1.0,1,334.0,1
1184,1184,0.42558726594390317,0.4,1.0,1.0,485.0,688.0,1.0,1,977.0,1
1185,1185,0.5656712810311203,0.6,1.0,1.0,417.0,712.0,1.0,1,661.0,1
1186,1186,0.5618074454741783,0.6,1.0,1.0,463.0,562.0,1.0,1,785.0,1
1187,1187,0.38399487768862894,0.4,1.0,1.0,434.0,914.0,1.0,1,842.0,1
1188,1188,0.8122776725012059,0.8,1.0,1.0,276.0,948.0,1.0,1,526.0,1
1189,1189,0.5022966742091545,0.5,0.0,0.0,421.0,949.0,0.0,1,700.0,1
1190,1190,-0.6773856451404199,-0.7,0.0,1.0,446.0,923.0,1.0,0,291.0,1
1191,1191,-0.014723624564477511,-0.0,0.0,1.0,420.0,975.0,0.0,1,1605.0,0
1192,1192,0.5984494128915602,0.6,1.0,1.0,495.0,678.0,1.0,1,357.0,1
1193,1193,0.14943172376628533,0.1,1.0,1.0,322.0,623.0,1.0,1,1705.0,1
1194,1194,0.8507951364067884,0.9,1.0,1.0,364.0,847.0,1.0,1,289.0,1
1195,1195,-0.30928239492284637,-0.3,1.0,0.0,455.0,845.0,0.0,0,330.0,1
1196,1196,0.3157580127015428,0.3,1.0,1.0,385.0,836.0,1.0,1,1449.0,1
1197,1197,0.5352715042811186,0.5,0.0,0.0,399.0,838.0,0.0,1,223.0,1
1198,1198,-0.30090167173837457,-0.3,1.0,0.0,267.0,770.0,0.0,0,903.0,1
1199,1199,-0.12547261113554642,-0.1,0.0,1.0,325.0,834.0,1.0,0,1021.0,1
1200,1200,-0.8636574834777334,-0.9,0.0,1.0,400.0,660.0,1.0,0,190.0,1
1201,1201,0.5446070304293188,0.5,0.0,0.0,300.0,732.0,0.0,1,278.0,1
1202,1202,0.8617799445097484,0.9,0.0,0.0,303.0,589.0,0.0,1,188.0,1
1203,1203,0.6976813240497489,0.7,0.0,0.0,463.0,976.0,0.0,1,201.0,1
1204,1204,-0.10526175635282675,-0.1,1.0,0.0,468.0,718.0,0.0,0,1814.0,1
1205,1205,0.36317700933032937,0.4,1.0,1.0,372.0,977.0,1.0,1,691.0,1
1206,1206,-0.8148087660201784,-0.8,0.0,1.0,391.0,798.0,1.0,0,281.0,1
1207,1207,-0.2373831270623189,-0.2,1.0,0.0,484.0,893.0,0.0,0,493.0,1
1208,1208,-0.8985014766769117,-0.9,1.0,0.0,273.0,975.0,0.0,0,112.0,1
1209,1209,0.490163761424084,0.5,0.0,0.0,278.0,535.0,0.0,1,517.0,1
1210,1210,-0.19818130143828394,-0.2,1.0,0.0,291.0,963.0,0.0,0,1746.0,1
1211,1211,-0.3427530812493237,-0.3,1.0,0.0,394.0,883.0,0.0,0,253.0,1
1212,1212,-0.18581788555703438,-0.2,1.0,0.0,351.0,672.0,0.0,0,707.0,1
1213,1213,-0.41439118155864185,-0.4,1.0,0.0,345.0,792.0,0.0,0,663.0,1
1214,1214,-0.689368289675559,-0.7,0.0,1.0,401.0,998.0,1.0,0,261.0,1
1215,1215,0.5984033730480044,0.6,0.0,0.0,404.0,727.0,0.0,1,139.0,1
1216,1216,-0.27599748746970876,-0.3,1.0,0.0,286.0,798.0,0.0,0,706.0,1
1217,1217,-0.26885571745413583,-0.3,1.0,0.0,468.0,795.0,0.0,0,1707.0,1
1218,1218,0.15173752264782758,0.2,0.0,0.0,380.0,773.0,1.0,0,1847.0,0
1219,1219,-0.8816704728224048,-0.9,0.0,1.0,484.0,749.0,1.0,0,207.0,1
1220,1220,-0.01966639920161306,-0.0,1.0,0.0,262.0,966.0,1.0,1,922.0,0
1221,1221,-0.11227852652443804,-0.1,0.0,1.0,417.0,724.0,1.0,0,1859.0,1
1222,1222,-0.7811871848518087,-0.8,0.0,1.0,449.0,527.0,1.0,0,204.0,1
1223,1223,-0.8962104543115818,-0.9,0.0,1.0,291.0,941.0,1.0,0,328.0,1
1224,1224,-0.6730501616220593,-0.7,1.0,0.0,380.0,976.0,0.0,0,174.0,1
1225,1225,-0.20342051337461475,-0.2,1.0,0.0,281.0,982.0,0.0,0,407.0,1
1226,1226,0.2400941937503719,0.2,0.0,0.0,430.0,721.0,0.0,1,719.0,1
1227,1227,0.05776748815762722,0.1,1.0,1.0,260.0,683.0,0.0,0,2057.0,0
1228,1228,0.4285501155529631,0.4,0.0,0.0,289.0,723.0,0.0,1,588.0,1
1229,1229,0.2010872541171601,0.2,0.0,0.0,274.0,974.0,0.0,1,1752.0,1
1230,1230,0.39140027501503305,0.4,0.0,0.0,349.0,782.0,0.0,1,229.0,1
1231,1231,0.315461802516113,0.3,1.0,1.0,262.0,780.0,1.0,1,888.0,1
1232,1232,0.33838788312460466,0.3,1.0,1.0,291.0,994.0,1.0,1,1715.0,1
1233,1233,-0.1409900776453481,-0.1,1.0,0.0,402.0,819.0,0.0,0,1439.0,1
1234,1234,-0.48946118967500546,-0.5,1.0,0.0,251.0,602.0,0.0,0,467.0,1
1235,1235,0.8293308581626225,0.8,1.0,1.0,293.0,957.0,1.0,1,230.0,1
1236,1236,-0.18022494680250678,-0.2,0.0,1.0,310.0,844.0,1.0,0,636.0,1
1237,1237,-0.7529995683064767,-0.8,1.0,0.0,428.0,991.0,0.0,0,41.0,1
1238,1238,0.8337384429153368,0.8,0.0,0.0,333.0,692.0,0.0,1,315.0,1
1239,1239,-0.7431327246847799,-0.7,1.0,0.0,290.0,820.0,0.0,0,730.0,1
1240,1240,-0.7403447614635217,-0.7,1.0,0.0,303.0,687.0,0.0,0,200.0,1
1241,1241,-0.8395702222644594,-0.8,1.0,0.0,262.0,693.0,0.0,0,395.0,1
1242,1242,-0.15247765600070984,-0.2,1.0,0.0,358.0,878.0,0.0,0,254.0,1
1243,1243,0.5548463967745306,0.6,0.0,0.0,306.0,607.0,0.0,1,497.0,1
1244,1244,-0.6447825711182867,-0.6,0.0,1.0,456.0,577.0,1.0,0,347.0,1
1245,1245,-0.6118726044902462,-0.6,0.0,1.0,324.0,871.0,1.0,0,405.0,1
1246,1246,-0.6985412318529094,-0.7,0.0,1.0,383.0,578.0,1.0,0,319.0,1
1247,1247,-0.7333457542079218,-0.7,0.0,1.0,359.0,856.0,1.0,0,115.0,1
1248,1248,0.7011101216195553,0.7,0.0,0.0,488.0,732.0,0.0,1,350.0,1
1249,1249,-0.24605197537680434,-0.2,1.0,0.0,261.0,873.0,0.0,0,1866.0,1
1250,1250,0.8691750892564835,0.9,0.0,0.0,344.0,959.0,0.0,1,207.0,1
1251,1251,0.28115932066761784,0.3,1.0,1.0,335.0,578.0,1.0,1,1217.0,1
1252,1252,-0.5507841022273359,-0.6,1.0,0.0,374.0,901.0,0.0,0,-235.0,1
1253,1253,-0.7976733992729994,-0.8,0.0,1.0,332.0,535.0,1.0,0,153.0,1
1254,1254,0.01987809736184487,0.0,0.0,0.0,260.0,511.0,0.0,1,2229.0,1
1255,1255,0.8386699286894227,0.8,0.0,0.0,488.0,692.0,0.0,1,230.0,1
1256,1256,0.40976209640545036,0.4,1.0,1.0,458.0,776.0,1.0,1,1126.0,1
1257,1257,-0.2803228465612718,-0.3,1.0,0.0,433.0,574.0,0.0,0,723.0,1
1258,1258,-0.783769839125499,-0.8,0.0,1.0,457.0,549.0,1.0,0,204.0,1
1259,1259,0.2699033699245551,0.3,0.0,0.0,286.0,928.0,0.0,1,766.0,1
1260,1260,0.2815110670091415,0.3,1.0,1.0,358.0,825.0,1.0,1,1217.0,1
1261,1261,-0.5968070191062438,-0.6,0.0,1.0,305.0,822.0,1.0,0,273.0,1
1262,1262,-0.7605232290176211,-0.8,0.0,1.0,300.0,730.0,1.0,0,620.0,1
1263,1263,-0.36082437104087617,-0.4,1.0,0.0,472.0,776.0,0.0,0,522.0,1
1264,1264,0.6227711676744244,0.6,1.0,1.0,261.0,831.0,1.0,1,598.0,1
1265,1265,0.13509743399620822,0.1,1.0,1.0,418.0,819.0,1.0,1,1763.0,1
1266,1266,-0.269157154214558,-0.3,1.0,0.0,382.0,528.0,0.0,0,1220.0,1
1267,1267,0.555188293792979,0.6,0.0,0.0,252.0,938.0,0.0,1,390.0,1
1268,1268,-0.2500687452132555,-0.3,0.0,1.0,271.0,944.0,1.0,0,1785.0,1
1269,1269,0.3080330899970082,0.3,1.0,1.0,382.0,520.0,1.0,1,288.0,1
1270,1270,0.8612612522209319,0.9,1.0,1.0,332.0,924.0,1.0,1,274.0,1
1271,1271,-0.17678168829454544,-0.2,1.0,0.0,481.0,755.0,0.0,0,1764.0,1
1272,1272,-0.5680022798981281,-0.6,1.0,0.0,395.0,746.0,0.0,0,329.0,1
1273,1273,-0.611775090588996,-0.6,0.0,1.0,453.0,857.0,1.0,0,260.0,1
1274,1274,0.37449532272494046,0.4,1.0,1.0,411.0,852.0,1.0,1,557.0,1
1275,1275,-0.35427519318269185,-0.4,0.0,1.0,368.0,635.0,1.0,0,837.0,1
1276,1276,-0.3866295404242742,-0.4,1.0,0.0,439.0,520.0,0.0,0,551.0,1
1277,1277,0.475254555557855,0.5,0.0,0.0,301.0,608.0,0.0,1,581.0,1
1278,1278,0.8757388051484082,0.9,0.0,0.0,265.0,899.0,0.0,1,136.0,1
1279,1279,0.4908252978915709,0.5,1.0,1.0,254.0,566.0,1.0,1,530.0,1
1280,1280,-0.5281520550237122,-0.5,0.0,1.0,316.0,625.0,1.0,0,359.0,1
1281,1281,0.5103107072368313,0.5,1.0,1.0,482.0,811.0,1.0,1,697.0,1
1282,1282,-0.43488677971387396,-0.4,1.0,0.0,406.0,658.0,0.0,0,1266.0,1
1283,1283,0.06112105893071307,0.1,1.0,1.0,359.0,787.0,1.0,1,1854.0,1
1284,1284,-0.13328256898618185,-0.1,0.0,1.0,374.0,976.0,1.0,0,1190.0,1
1285,1285,0.39658787662051964,0.4,1.0,1.0,331.0,573.0,1.0,1,706.0,1
1286,1286,-0.5686716073857518,-0.6,1.0,0.0,376.0,614.0,0.0,0,600.0,1
1287,1287,0.21572577455629516,0.2,0.0,0.0,278.0,655.0,0.0,1,1757.0,1
1288,1288,0.8572670975037994,0.9,1.0,1.0,488.0,785.0,1.0,1,347.0,1
1289,1289,0.5810107054751642,0.6,0.0,0.0,280.0,943.0,0.0,1,457.0,1
1290,1290,-0.26879451654872033,-0.3,0.0,1.0,352.0,955.0,1.0,0,223.0,1
1291,1291,0.5711328487577642,0.6,1.0,1.0,407.0,926.0,1.0,1,487.0,1
1292,1292,0.8606324467078351,0.9,0.0,0.0,374.0,656.0,0.0,1,290.0,1
1293,1293,0.83922333585333,0.8,1.0,1.0,280.0,966.0,1.0,1,-16.0,1
1294,1294,0.10937215470245565,0.1,1.0,1.0,494.0,815.0,1.0,1,691.0,1
1295,1295,-0.3279003841777809,-0.3,0.0,1.0,449.0,687.0,1.0,0,964.0,1
1296,1296,-0.2586789389909234,-0.3,1.0,0.0,470.0,821.0,0.0,0,629.0,1
1297,1297,0.6609426176170939,0.7,0.0,0.0,322.0,987.0,0.0,1,391.0,1
1298,1298,0.775468679900608,0.8,0.0,0.0,416.0,611.0,0.0,1,333.0,1
1299,1299,0.283136198012503,0.3,0.0,0.0,255.0,928.0,0.0,1,807.0,1
1300,1300,-0.38575616183243,-0.4,1.0,0.0,259.0,977.0,0.0,0,1074.0,1
1301,1301,-0.22853075765218556,-0.2,1.0,0.0,372.0,904.0,0.0,0,1724.0,1
1302,1302,0.44326395465156254,0.4,0.0,0.0,478.0,538.0,0.0,1,744.0,1
1303,1303,-0.29224199369834003,-0.3,0.0,1.0,367.0,712.0,1.0,0,561.0,1
1304,1304,-0.3718774642393158,-0.4,0.0,1.0,439.0,888.0,1.0,0,643.0,1
1305,1305,-0.29252532045703505,-0.3,0.0,1.0,326.0,664.0,1.0,0,1100.0,1
1306,1306,-0.5342403085722702,-0.5,0.0,1.0,393.0,793.0,1.0,0,384.0,1
1307,1307,-0.038124341653029026,-0.0,1.0,0.0,320.0,530.0,0.0,0,2150.0,1
1308,1308,0.30143735709999453,0.3,1.0,1.0,321.0,649.0,1.0,1,480.0,1
1309,1309,-0.012882474952660816,-0.0,0.0,1.0,454.0,712.0,0.0,1,1834.0,0
1310,1310,0.7030403675680322,0.7,0.0,0.0,445.0,944.0,0.0,1,311.0,1
1311,1311,-0.7350701068316536,-0.7,1.0,0.0,310.0,791.0,0.0,0,409.0,1
1312,1312,-0.45861004734004635,-0.5,0.0,1.0,479.0,562.0,1.0,0,359.0,1
1313,1313,0.45955143494458073,0.5,0.0,0.0,473.0,879.0,0.0,1,688.0,1
1314,1314,0.7497576705078307,0.7,0.0,0.0,250.0,649.0,0.0,1,231.0,1
1315,1315,0.8821517828170019,0.9,1.0,1.0,254.0,819.0,1.0,1,407.0,1
1316,1316,-0.4782056896668096,-0.5,0.0,1.0,428.0,789.0,1.0,0,1053.0,1
1317,1317,0.021163242742404886,0.0,1.0,1.0,433.0,734.0,0.0,0,1833.0,0
1318,1318,0.6295735436786359,0.6,1.0,1.0,355.0,727.0,1.0,1,418.0,1
1319,1319,-0.36463306764858106,-0.4,1.0,0.0,466.0,647.0,0.0,0,527.0,1
1320,1320,0.5165282791699412,0.5,1.0,1.0,483.0,768.0,1.0,1,179.0,1
1321,1321,0.22784855734075615,0.2,0.0,0.0,474.0,763.0,0.0,1,703.0,1
1322,1322,-0.19666668666663933,-0.2,1.0,0.0,441.0,891.0,0.0,0,738.0,1
1323,1323,-0.2757088994737026,-0.3,1.0,0.0,453.0,892.0,0.0,0,665.0,1
1324,1324,0.44143213147603266,0.4,0.0,0.0,405.0,653.0,0.0,1,272.0,1
1325,1325,0.6720231403548406,0.7,0.0,0.0,310.0,936.0,0.0,1,114.0,1
1326,1326,0.8477042572596182,0.8,1.0,1.0,351.0,697.0,1.0,1,432.0,1
1327,1327,-0.4942394518796793,-0.5,1.0,0.0,414.0,964.0,0.0,0,402.0,1
1328,1328,0.41184690299755966,0.4,0.0,0.0,295.0,946.0,0.0,1,559.0,1
1329,1329,-0.8987041574085765,-0.9,0.0,1.0,458.0,812.0,1.0,0,360.0,1
1330,1330,-0.8390223232069818,-0.8,1.0,0.0,340.0,655.0,0.0,0,435.0,1
1331,1331,0.20226978480951774,0.2,0.0,0.0,285.0,536.0,0.0,1,2179.0,1
1332,1332,0.5423086364292421,0.5,0.0,0.0,322.0,953.0,0.0,1,325.0,1
1333,1333,0.7082291130966208,0.7,1.0,1.0,392.0,562.0,1.0,1,786.0,1
1334,1334,0.7612301797844155,0.8,1.0,1.0,394.0,986.0,1.0,1,130.0,1
1335,1335,0.1666115494709165,0.2,1.0,1.0,362.0,614.0,1.0,1,2024.0,1
1336,1336,-0.516945858875899,-0.5,1.0,0.0,273.0,797.0,0.0,0,460.0,1
1337,1337,-0.2052147213068387,-0.2,1.0,0.0,329.0,518.0,0.0,0,683.0,1
1338,1338,0.067575691886951,0.1,0.0,0.0,385.0,929.0,1.0,0,1686.0,0
1339,1339,0.6914173242427873,0.7,1.0,1.0,366.0,825.0,1.0,1,319.0,1
1340,1340,0.8304265119811604,0.8,0.0,0.0,494.0,802.0,0.0,1,244.0,1
1341,1341,0.15461349021301973,0.2,1.0,1.0,488.0,500.0,1.0,1,2012.0,1
1342,1342,0.6021410372009531,0.6,0.0,0.0,473.0,649.0,0.0,1,298.0,1
1343,1343,0.22924659592092078,0.2,0.0,0.0,465.0,837.0,0.0,1,1698.0,1
1344,1344,-0.6114930520294719,-0.6,0.0,1.0,451.0,936.0,1.0,0,183.0,1
1345,1345,-0.12343918561597966,-0.1,1.0,0.0,300.0,736.0,0.0,0,1964.0,1
1346,1346,-0.24969794361992248,-0.2,0.0,1.0,436.0,523.0,1.0,0,1191.0,1
1347,1347,0.28743936852798846,0.3,1.0,1.0,338.0,668.0,0.0,0,-76.0,0
1348,1348,0.04091722055223479,0.0,1.0,1.0,499.0,702.0,1.0,1,1799.0,1
1349,1349,-0.1843089167974582,-0.2,0.0,1.0,406.0,895.0,1.0,0,1699.0,1
1350,1350,-0.13825351668532093,-0.1,1.0,0.0,387.0,543.0,0.0,0,2070.0,1
1351,1351,0.549048278041644,0.5,1.0,1.0,454.0,908.0,1.0,1,348.0,1
1352,1352,-0.6774757086863399,-0.7,1.0,0.0,319.0,899.0,0.0,0,312.0,1
1353,1353,-0.7330726739302313,-0.7,1.0,0.0,458.0,733.0,0.0,0,169.0,1
1354,1354,0.5733870003587332,0.6,1.0,1.0,420.0,624.0,1.0,1,176.0,1
1355,1355,0.7814797550430269,0.8,1.0,1.0,489.0,874.0,1.0,1,767.0,1
1356,1356,-0.6886859073726748,-0.7,0.0,1.0,408.0,969.0,1.0,0,153.0,1
1357,1357,-0.8171157468645146,-0.8,0.0,1.0,334.0,630.0,1.0,0,136.0,1
1358,1358,0.6225772433154041,0.6,0.0,0.0,309.0,536.0,0.0,1,455.0,1
1359,1359,0.5633986201844138,0.6,1.0,1.0,498.0,644.0,1.0,1,478.0,1
1360,1360,-0.7080363083338095,-0.7,0.0,1.0,367.0,666.0,1.0,0,257.0,1
1361,1361,-0.6297341732110545,-0.6,1.0,0.0,483.0,874.0,0.0,0,653.0,1
1362,1362,0.8696910409772088,0.9,1.0,1.0,295.0,620.0,1.0,1,385.0,1
1363,1363,-0.2820519207583976,-0.3,0.0,1.0,317.0,871.0,1.0,0,412.0,1
1364,1364,-0.8472207644447031,-0.8,1.0,0.0,470.0,924.0,0.0,0,256.0,1
1365,1365,0.5776700754065963,0.6,0.0,0.0,288.0,787.0,0.0,1,445.0,1
1366,1366,-0.1778340351957417,-0.2,1.0,0.0,261.0,799.0,0.0,0,1940.0,1
1367,1367,0.46151307235111416,0.5,1.0,1.0,294.0,911.0,1.0,1,265.0,1
1368,1368,-0.8519910350154032,-0.9,1.0,0.0,254.0,691.0,0.0,0,245.0,1
1369,1369,0.33480129775831535,0.3,1.0,1.0,472.0,675.0,1.0,1,1033.0,1
1370,1370,0.587262098344865,0.6,1.0,1.0,471.0,817.0,1.0,1,462.0,1
1371,1371,-0.6813159973565242,-0.7,0.0,1.0,355.0,757.0,1.0,0,418.0,1
1372,1372,0.5468147743728623,0.5,0.0,0.0,375.0,565.0,0.0,1,450.0,1
1373,1373,0.6335064125530291,0.6,0.0,0.0,391.0,598.0,0.0,1,341.0,1
1374,1374,0.6430494483924075,0.6,1.0,1.0,472.0,814.0,1.0,1,404.0,1
1375,1375,0.6976172612004518,0.7,0.0,0.0,290.0,518.0,0.0,1,192.0,1
1376,1376,-0.8318513419150293,-0.8,1.0,0.0,260.0,835.0,0.0,0,295.0,1
1377,1377,-0.14763555192897793,-0.1,0.0,1.0,350.0,733.0,1.0,0,787.0,1
1378,1378,0.6469133940081716,0.6,1.0,1.0,309.0,618.0,1.0,1,603.0,1
1379,1379,0.18659347273567894,0.2,1.0,1.0,419.0,560.0,1.0,1,1091.0,1
1380,1380,-0.34165237868049914,-0.3,1.0,0.0,383.0,534.0,0.0,0,663.0,1
1381,1381,-0.029430150448711667,-0.0,1.0,0.0,360.0,864.0,1.0,1,1776.0,0
1382,1382,-0.42070817378313063,-0.4,1.0,0.0,269.0,562.0,0.0,0,409.0,1
1383,1383,-0.45718437458799355,-0.5,1.0,0.0,364.0,964.0,0.0,0,402.0,1
1384,1384,0.6894034832471053,0.7,1.0,1.0,275.0,717.0,1.0,1,498.0,1
1385,1385,0.5056856212438782,0.5,1.0,1.0,441.0,622.0,1.0,1,517.0,1
1386,1386,-0.6770218475789012,-0.7,0.0,1.0,388.0,793.0,1.0,0,239.0,1
1387,1387,-0.594033658390474,-0.6,0.0,1.0,399.0,732.0,1.0,0,549.0,1
1388,1388,0.7217746394505967,0.7,0.0,0.0,280.0,774.0,0.0,1,266.0,1
1389,1389,0.24081837515622506,0.2,0.0,0.0,452.0,516.0,0.0,1,582.0,1
1390,1390,-0.09764965145760507,-0.1,1.0,0.0,376.0,909.0,0.0,0,1715.0,1
1391,1391,-0.38687844882870037,-0.4,1.0,0.0,307.0,676.0,0.0,0,497.0,1
1392,1392,-0.5249253672984098,-0.5,0.0,1.0,391.0,794.0,1.0,0,215.0,1
1393,1393,0.16847195790273084,0.2,1.0,1.0,387.0,683.0,1.0,1,720.0,1
1394,1394,-0.7472549175629959,-0.7,1.0,0.0,343.0,925.0,0.0,0,232.0,1
1395,1395,0.37083172913974727,0.4,1.0,1.0,299.0,796.0,1.0,1,335.0,1
1396,1396,-0.1848013801961278,-0.2,0.0,1.0,427.0,591.0,1.0,0,872.0,1
1397,1397,-0.10458446529051524,-0.1,0.0,1.0,476.0,634.0,1.0,0,1280.0,1
1398,1398,0.8555244905990257,0.9,1.0,1.0,289.0,893.0,1.0,1,178.0,1
1399,1399,0.5814265929371435,0.6,0.0,0.0,427.0,581.0,0.0,1,282.0,1
1400,1400,-0.34894091837392993,-0.3,1.0,0.0,348.0,899.0,0.0,0,723.0,1
1401,1401,0.68030405269697,0.7,1.0,1.0,474.0,763.0,1.0,1,473.0,1
1402,1402,0.36543576480376283,0.4,0.0,0.0,408.0,518.0,0.0,1,994.0,1
1403,1403,-0.2649116896901761,-0.3,1.0,0.0,288.0,962.0,0.0,0,500.0,1
1404,1404,-0.400746559407999,-0.4,1.0,0.0,435.0,692.0,0.0,0,483.0,1
1405,1405,-0.7371540697604884,-0.7,1.0,0.0,297.0,930.0,0.0,0,193.0,1
1406,1406,0.3864379304245128,0.4,1.0,1.0,353.0,568.0,1.0,1,219.0,1
1407,1407,0.48982204111863636,0.5,1.0,1.0,413.0,610.0,1.0,1,527.0,1
1408,1408,-0.09111033798834223,-0.1,1.0,0.0,352.0,812.0,1.0,1,1836.0,0
1409,1409,0.8006270280360138,0.8,1.0,1.0,404.0,653.0,1.0,1,303.0,1
1410,1410,-0.43039428281364794,-0.4,0.0,1.0,294.0,778.0,1.0,0,1598.0,1
1411,1411,-0.6034452391863712,-0.6,0.0,1.0,431.0,637.0,1.0,0,892.0,1
1412,1412,0.8117587857220939,0.8,1.0,1.0,367.0,765.0,1.0,1,468.0,1
1413,1413,-0.32142408159009084,-0.3,1.0,0.0,491.0,652.0,0.0,0,987.0,1
1414,1414,0.8992024027647015,0.9,1.0,1.0,396.0,909.0,1.0,1,415.0,1
1415,1415,0.7081117176815591,0.7,0.0,0.0,315.0,962.0,0.0,1,253.0,1
1416,1416,0.03286208325130735,0.0,1.0,1.0,332.0,811.0,0.0,0,1857.0,0
1417,1417,0.8927944511864397,0.9,0.0,0.0,319.0,929.0,0.0,1,222.0,1
1418,1418,-0.283776713040481,-0.3,0.0,1.0,374.0,573.0,1.0,0,1303.0,1
1419,1419,-0.8541607407579079,-0.9,1.0,0.0,352.0,780.0,0.0,0,328.0,1
1420,1420,0.3127265607474975,0.3,1.0,1.0,474.0,650.0,1.0,1,776.0,1
1421,1421,0.8597083272746361,0.9,0.0,0.0,320.0,949.0,0.0,1,221.0,1
1422,1422,0.387299734547473,0.4,0.0,0.0,303.0,791.0,0.0,1,196.0,1
1423,1423,-0.6894980386034717,-0.7,0.0,1.0,307.0,651.0,1.0,0,1262.0,1
1424,1424,-0.39449284476198787,-0.4,1.0,0.0,313.0,649.0,0.0,0,448.0,1
1425,1425,-0.374861961244628,-0.4,1.0,0.0,375.0,508.0,0.0,0,277.0,1
1426,1426,-0.5043609433392787,-0.5,0.0,1.0,265.0,991.0,1.0,0,404.0,1
1427,1427,-0.8726019743656958,-0.9,1.0,0.0,423.0,778.0,0.0,0,279.0,1
1428,1428,-0.019574877971164306,-0.0,0.0,1.0,374.0,631.0,1.0,0,1995.0,1
1429,1429,-0.6103165981014971,-0.6,1.0,0.0,282.0,666.0,0.0,0,352.0,1
1430,1430,0.6510875743457464,0.7,1.0,1.0,362.0,659.0,1.0,1,339.0,1
1431,1431,0.8168330228592354,0.8,0.0,0.0,290.0,546.0,0.0,1,404.0,1
1432,1432,-0.2504490676642247,-0.3,1.0,0.0,468.0,869.0,0.0,0,1663.0,1
1433,1433,0.7530232614845861,0.8,0.0,0.0,459.0,930.0,0.0,1,201.0,1
1434,1434,-0.26873657499143444,-0.3,1.0,0.0,432.0,717.0,0.0,0,1201.0,1
1435,1435,-0.3924369125608882,-0.4,0.0,1.0,331.0,780.0,1.0,0,299.0,1
1436,1436,-0.05565842514060082,-0.1,1.0,0.0,294.0,621.0,0.0,0,2085.0,1
1437,1437,0.3095923174536982,0.3,0.0,0.0,257.0,950.0,0.0,1,943.0,1
1438,1438,0.7454907067042164,0.7,0.0,0.0,463.0,572.0,0.0,1,285.0,1
1439,1439,-0.1401362179467175,-0.1,1.0,0.0,427.0,962.0,0.0,0,411.0,1
1440,1440,0.70671728143765,0.7,1.0,1.0,395.0,877.0,1.0,1,538.0,1
1441,1441,-0.8131060424306751,-0.8,0.0,1.0,388.0,627.0,1.0,0,195.0,1
1442,1442,-0.41911807165647247,-0.4,0.0,1.0,278.0,615.0,1.0,0,227.0,1
1443,1443,-0.7432211835650716,-0.7,1.0,0.0,300.0,891.0,0.0,0,199.0,1
1444,1444,0.26441455638008937,0.3,1.0,1.0,412.0,638.0,1.0,1,170.0,1
1445,1445,-0.3123636493081938,-0.3,1.0,0.0,489.0,966.0,0.0,0,835.0,1
1446,1446,-0.8810976063440069,-0.9,0.0,1.0,274.0,524.0,1.0,0,222.0,1
1447,1447,-0.6366831861475137,-0.6,1.0,0.0,494.0,699.0,0.0,0,417.0,1
1448,1448,-0.3036448762462538,-0.3,1.0,0.0,388.0,980.0,0.0,0,202.0,1
1449,1449,0.8748323604855114,0.9,0.0,0.0,450.0,985.0,0.0,1,215.0,1
1450,1450,0.49148559152561855,0.5,0.0,0.0,416.0,566.0,0.0,1,188.0,1
1451,1451,0.7254129127750372,0.7,0.0,0.0,406.0,513.0,0.0,1,381.0,1
1452,1452,0.03536207437099559,0.0,1.0,1.0,322.0,542.0,0.0,0,2136.0,0
1453,1453,0.6648835409898174,0.7,1.0,1.0,296.0,524.0,1.0,1,490.0,1
1454,1454,0.7061428843478285,0.7,1.0,1.0,261.0,992.0,1.0,1,297.0,1
1455,1455,-0.1999234827034222,-0.2,0.0,1.0,351.0,682.0,1.0,0,997.0,1
1456,1456,-0.2081528441521523,-0.2,1.0,0.0,283.0,853.0,0.0,0,1744.0,1
1457,1457,0.36862166938791485,0.4,0.0,0.0,388.0,658.0,0.0,1,684.0,1
1458,1458,-0.018277128663690356,-0.0,1.0,0.0,477.0,803.0,1.0,1,1720.0,0
1459,1459,-0.641947291362345,-0.6,0.0,1.0,362.0,772.0,1.0,0,116.0,1
1460,1460,-0.08481441107410348,-0.1,1.0,0.0,479.0,959.0,0.0,0,1562.0,1
1461,1461,0.4286455802773662,0.4,1.0,1.0,477.0,603.0,1.0,1,650.0,1
1462,1462,0.166451682073527,0.2,1.0,1.0,397.0,720.0,1.0,1,273.0,1
1463,1463,0.5602613794098484,0.6,0.0,0.0,415.0,545.0,0.0,1,490.0,1
1464,1464,0.6910546603137727,0.7,1.0,1.0,413.0,743.0,1.0,1,254.0,1
1465,1465,0.7912964226896796,0.8,0.0,0.0,483.0,794.0,0.0,1,113.0,1
1466,1466,0.3665653515283608,0.4,0.0,0.0,484.0,627.0,0.0,1,779.0,1
1467,1467,-0.10050900614970515,-0.1,0.0,1.0,372.0,629.0,1.0,0,99.0,1
1468,1468,-0.7722016359161961,-0.8,1.0,0.0,302.0,839.0,0.0,0,679.0,1
1469,1469,0.763072265838365,0.8,0.0,0.0,485.0,544.0,0.0,1,281.0,1
1470,1470,-0.5459541343685497,-0.5,0.0,1.0,360.0,948.0,1.0,0,412.0,1
1471,1471,-0.7797058865017126,-0.8,1.0,0.0,301.0,846.0,0.0,0,283.0,1
1472,1472,-0.018316600798722216,-0.0,0.0,1.0,353.0,895.0,1.0,0,1752.0,1
1473,1473,0.7028864131443681,0.7,0.0,0.0,413.0,562.0,0.0,1,165.0,1
1474,1474,-0.838893869185653,-0.8,0.0,1.0,357.0,601.0,1.0,0,182.0,1
1475,1475,-0.13723603601250778,-0.1,1.0,0.0,416.0,808.0,0.0,0,1776.0,1
1476,1476,-0.2972893941494946,-0.3,1.0,0.0,306.0,727.0,0.0,0,677.0,1
1477,1477,-0.6873276120659669,-0.7,0.0,1.0,389.0,705.0,1.0,0,406.0,1
1478,1478,0.007129832034870942,0.0,1.0,1.0,331.0,765.0,1.0,1,794.0,1
1479,1479,-0.2767968396868452,-0.3,1.0,0.0,322.0,664.0,0.0,0,454.0,1
1480,1480,-0.39778241167040185,-0.4,0.0,1.0,273.0,844.0,1.0,0,823.0,1
1481,1481,0.188009597390992,0.2,0.0,0.0,444.0,904.0,0.0,1,1192.0,1
1482,1482,-0.23988578214178535,-0.2,1.0,0.0,312.0,618.0,0.0,0,420.0,1
1483,1483,-0.5670829848913106,-0.6,1.0,0.0,323.0,583.0,0.0,0,1084.0,1
1484,1484,-0.592119492210937,-0.6,1.0,0.0,491.0,683.0,0.0,0,346.0,1
1485,1485,0.5873244202887912,0.6,1.0,1.0,455.0,980.0,1.0,1,265.0,1
1486,1486,0.7996316565674401,0.8,0.0,0.0,309.0,651.0,0.0,1,310.0,1
1487,1487,-0.82983355941941,-0.8,0.0,1.0,392.0,797.0,1.0,0,361.0,1
1488,1488,0.2508419672944814,0.3,0.0,0.0,301.0,561.0,0.0,1,988.0,1
