,trial,coherence,coherence_bin,green_side,correct_side,target_onset,checker_onset,decision,green_decision,decision_time,correct_decision
0,0,-0.5403083122228235,-0.5,1.0,0.0,279.0,505.0,0.0,0,236.0,1
1,1,-0.8584228375733477,-0.9,1.0,0.0,478.0,521.0,0.0,0,141.0,1
2,2,0.06494676908405961,0.1,0.0,0.0,440.0,822.0,0.0,1,1608.0,1
3,3,-0.4179207356034221,-0.4,0.0,1.0,251.0,879.0,1.0,0,240.0,1
4,4,-0.8587210680753168,-0.9,0.0,1.0,352.0,828.0,1.0,0,80.0,1
5,5,-0.825357262575601,-0.8,1.0,0.0,407.0,689.0,0.0,0,164.0,1
6,6,-0.8953462415045207,-0.9,0.0,1.0,335.0,856.0,1.0,0,259.0,1
7,7,-0.4371392177939901,-0.4,0.0,1.0,414.0,947.0,1.0,0,389.0,1
8,8,0.6964975166328148,0.7,1.0,1.0,422.0,712.0,1.0,1,336.0,1
9,9,0.25446323707200535,0.3,0.0,0.0,354.0,884.0,0.0,1,942.0,1
10,10,0.30115588869014165,0.3,0.0,0.0,459.0,548.0,0.0,1,653.0,1
11,11,-0.1586124373497515,-0.2,0.0,1.0,422.0,786.0,1.0,0,1092.0,1
12,12,-0.7978261252558718,-0.8,0.0,1.0,378.0,815.0,1.0,0,287.0,1
13,13,-0.21829136484070988,-0.2,0.0,1.0,456.0,948.0,1.0,0,856.0,1
14,14,0.3125100060273408,0.3,1.0,1.0,458.0,967.0,1.0,1,705.0,1
15,15,-0.05161561736440945,-0.1,1.0,0.0,412.0,680.0,0.0,0,1908.0,1
16,16,0.8151134394140999,0.8,1.0,1.0,320.0,765.0,1.0,1,195.0,1
17,17,-0.5842188630680598,-0.6,0.0,1.0,379.0,785.0,1.0,0,356.0,1
18,18,0.053958947839892524,0.1,0.0,0.0,399.0,902.0,1.0,0,1699.0,0
19,19,-0.7939924785901831,-0.8,1.0,0.0,273.0,894.0,0.0,0,313.0,1
20,20,0.09815652154378851,0.1,0.0,0.0,445.0,641.0,0.0,1,814.0,1
21,21,0.05078024789772628,0.1,0.0,0.0,263.0,780.0,0.0,1,1957.0,1
22,22,0.3032154746715857,0.3,1.0,1.0,429.0,587.0,1.0,1,354.0,1
23,23,0.11023906272142325,0.1,0.0,0.0,264.0,571.0,0.0,1,2165.0,1
24,24,0.3412102700877867,0.3,0.0,0.0,471.0,642.0,0.0,1,137.0,1
25,25,-0.583509480387096,-0.6,1.0,0.0,305.0,825.0,0.0,0,300.0,1
26,26,-0.15953113852042766,-0.2,1.0,0.0,294.0,903.0,0.0,0,1733.0,1
27,27,-0.13521803620928996,-0.1,1.0,0.0,389.0,555.0,0.0,0,1396.0,1
28,28,0.03114684906943921,0.0,0.0,0.0,476.0,828.0,0.0,1,1696.0,1
29,29,-0.3735763816479024,-0.4,0.0,1.0,372.0,534.0,1.0,0,1884.0,1
30,30,-0.09144102504726115,-0.1,1.0,0.0,460.0,834.0,0.0,0,1706.0,1
31,31,0.274950112936753,0.3,1.0,1.0,290.0,637.0,1.0,1,773.0,1
32,32,0.7816902447712212,0.8,0.0,0.0,460.0,673.0,0.0,1,317.0,1
33,33,0.6618539686705366,0.7,0.0,0.0,395.0,878.0,0.0,1,137.0,1
34,34,0.40330028037761834,0.4,1.0,1.0,473.0,598.0,1.0,1,339.0,1
35,35,0.7514506691867872,0.8,1.0,1.0,422.0,766.0,1.0,1,342.0,1
36,36,0.4843425722986955,0.5,0.0,0.0,262.0,687.0,0.0,1,261.0,1
37,37,0.5073447668949306,0.5,1.0,1.0,352.0,737.0,1.0,1,341.0,1
38,38,-0.12420185112207116,-0.1,1.0,0.0,410.0,937.0,0.0,0,1653.0,1
39,39,0.35899645069284924,0.4,0.0,0.0,340.0,877.0,0.0,1,213.0,1
40,40,0.5768101256396224,0.6,0.0,0.0,377.0,541.0,0.0,1,192.0,1
41,41,0.8159453483871669,0.8,0.0,0.0,439.0,688.0,0.0,1,173.0,1
42,42,-0.7118088452198477,-0.7,0.0,1.0,362.0,835.0,1.0,0,113.0,1
43,43,-0.5647459692141926,-0.6,0.0,1.0,395.0,728.0,1.0,0,687.0,1
44,44,-0.5416580201226049,-0.5,0.0,1.0,474.0,853.0,1.0,0,223.0,1
45,45,0.8829780950383878,0.9,1.0,1.0,477.0,651.0,1.0,1,212.0,1
46,46,-0.5416864952734122,-0.5,1.0,0.0,341.0,940.0,0.0,0,159.0,1
47,47,0.16416998953242656,0.2,1.0,1.0,273.0,920.0,1.0,1,1807.0,1
48,48,0.7069054744111757,0.7,0.0,0.0,339.0,843.0,0.0,1,148.0,1
49,49,0.0712841985550885,0.1,0.0,0.0,468.0,772.0,0.0,1,1760.0,1
50,50,0.1919565620103375,0.2,0.0,0.0,297.0,516.0,0.0,1,2187.0,1
51,51,0.4309918000524996,0.4,1.0,1.0,269.0,839.0,1.0,1,472.0,1
52,52,-0.21440115306888508,-0.2,1.0,0.0,304.0,988.0,0.0,0,668.0,1
53,53,-0.7192914192097801,-0.7,1.0,0.0,468.0,631.0,0.0,0,261.0,1
54,54,-0.08343129764972013,-0.1,0.0,1.0,255.0,888.0,1.0,0,1857.0,1
55,55,0.057067068577109525,0.1,1.0,1.0,360.0,525.0,1.0,1,785.0,1
56,56,-0.2451043848232617,-0.2,1.0,0.0,297.0,605.0,0.0,0,1908.0,1
57,57,0.5917574901965311,0.6,1.0,1.0,485.0,822.0,1.0,1,243.0,1
58,58,-0.6326220924595021,-0.6,1.0,0.0,328.0,765.0,0.0,0,117.0,1
59,59,-0.8483123071399692,-0.8,1.0,0.0,413.0,854.0,0.0,0,-77.0,1
60,60,-0.45159275695947615,-0.5,0.0,1.0,294.0,584.0,1.0,0,752.0,1
61,61,-0.12971056570470552,-0.1,0.0,1.0,440.0,824.0,1.0,0,1736.0,1
62,62,0.15030503757190272,0.2,1.0,1.0,412.0,999.0,1.0,1,1589.0,1
63,63,-0.3374640853341405,-0.3,1.0,0.0,273.0,883.0,0.0,0,444.0,1
64,64,0.16951669736851416,0.2,0.0,0.0,461.0,991.0,0.0,1,1148.0,1
65,65,0.26318653647182566,0.3,1.0,1.0,433.0,673.0,1.0,1,1894.0,1
66,66,0.36115895183153957,0.4,0.0,0.0,385.0,503.0,0.0,1,492.0,1
67,67,0.587376928476444,0.6,1.0,1.0,462.0,556.0,1.0,1,582.0,1
68,68,-0.568233946515937,-0.6,0.0,1.0,429.0,687.0,1.0,0,1424.0,1
69,69,0.8323574120386349,0.8,1.0,1.0,384.0,828.0,1.0,1,228.0,1
70,70,-0.30685733549274485,-0.3,1.0,0.0,311.0,551.0,0.0,0,208.0,1
71,71,0.005638881483138292,0.0,1.0,1.0,404.0,568.0,0.0,0,2028.0,0
72,72,-0.11350938943077582,-0.1,1.0,0.0,449.0,828.0,0.0,0,383.0,1
73,73,0.5964499669630362,0.6,0.0,0.0,340.0,506.0,0.0,1,254.0,1
74,74,0.6055906068236477,0.6,1.0,1.0,276.0,658.0,1.0,1,476.0,1
75,75,0.04781894789178898,0.0,0.0,0.0,435.0,667.0,0.0,1,858.0,1
76,76,-0.02302420613078815,-0.0,1.0,0.0,401.0,832.0,0.0,0,1767.0,1
77,77,0.4525270778812246,0.5,0.0,0.0,277.0,735.0,0.0,1,208.0,1
78,78,0.2887801096154333,0.3,1.0,1.0,278.0,641.0,1.0,1,391.0,1
79,79,-0.5024182945697001,-0.5,0.0,1.0,446.0,672.0,1.0,0,722.0,1
80,80,0.22940678250668622,0.2,1.0,1.0,291.0,712.0,1.0,1,1997.0,1
81,81,-0.4249617377058954,-0.4,0.0,1.0,454.0,777.0,1.0,0,449.0,1
82,82,0.21749616870360688,0.2,1.0,1.0,474.0,583.0,1.0,1,703.0,1
83,83,0.1635808502209689,0.2,1.0,1.0,388.0,701.0,1.0,1,1911.0,1
84,84,0.484567229791249,0.5,1.0,1.0,452.0,718.0,1.0,1,330.0,1
85,85,-0.5225365190261279,-0.5,0.0,1.0,376.0,803.0,1.0,0,491.0,1
86,86,0.23025667298448227,0.2,0.0,0.0,292.0,741.0,0.0,1,1037.0,1
87,87,0.18960936232220627,0.2,0.0,0.0,316.0,726.0,0.0,1,178.0,1
88,88,-0.2614007287364505,-0.3,0.0,1.0,435.0,571.0,1.0,0,824.0,1
89,89,-0.8697718672150254,-0.9,0.0,1.0,347.0,591.0,1.0,0,122.0,1
90,90,0.5119206073828605,0.5,1.0,1.0,378.0,860.0,1.0,1,152.0,1
91,91,-0.6751964538461738,-0.7,1.0,0.0,406.0,712.0,0.0,0,262.0,1
92,92,-0.6454961379203024,-0.6,0.0,1.0,471.0,628.0,1.0,0,831.0,1
93,93,-0.5808813705921325,-0.6,0.0,1.0,497.0,845.0,1.0,0,618.0,1
94,94,0.8698180699568397,0.9,0.0,0.0,370.0,512.0,0.0,1,178.0,1
95,95,-0.5360174800965117,-0.5,1.0,0.0,430.0,598.0,0.0,0,442.0,1
96,96,0.16670372973495573,0.2,0.0,0.0,398.0,629.0,0.0,1,403.0,1
97,97,0.44800050441173445,0.4,0.0,0.0,419.0,847.0,0.0,1,304.0,1
98,98,0.020429813846874034,0.0,0.0,0.0,411.0,963.0,1.0,0,1626.0,0
99,99,-0.654153414590249,-0.7,1.0,0.0,487.0,811.0,0.0,0,262.0,1
100,100,-0.49377207487009295,-0.5,1.0,0.0,428.0,601.0,0.0,0,301.0,1
101,101,0.48675208845514073,0.5,0.0,0.0,399.0,632.0,0.0,1,409.0,1
102,102,-0.544791845576373,-0.5,1.0,0.0,390.0,639.0,0.0,0,201.0,1
103,103,-0.477560071679296,-0.5,1.0,0.0,331.0,522.0,0.0,0,377.0,1
104,104,0.7621873646283607,0.8,0.0,0.0,267.0,697.0,0.0,1,256.0,1
105,105,-0.46793537346842057,-0.5,1.0,0.0,302.0,872.0,0.0,0,616.0,1
106,106,0.5836191726630734,0.6,0.0,0.0,365.0,758.0,0.0,1,207.0,1
107,107,0.7818323813028863,0.8,1.0,1.0,317.0,744.0,1.0,1,219.0,1
108,108,-0.3209251641347347,-0.3,1.0,0.0,351.0,871.0,0.0,0,578.0,1
109,109,-0.456484043668709,-0.5,0.0,1.0,489.0,522.0,1.0,0,359.0,1
110,110,-0.7456883966258431,-0.7,1.0,0.0,268.0,808.0,0.0,0,244.0,1
111,111,-0.5363004807125012,-0.5,1.0,0.0,407.0,984.0,0.0,0,189.0,1
112,112,-0.22583286614708775,-0.2,1.0,0.0,480.0,732.0,0.0,0,1058.0,1
113,113,0.6877166906987672,0.7,0.0,0.0,386.0,517.0,0.0,1,317.0,1
114,114,0.16212411596537246,0.2,0.0,0.0,358.0,800.0,0.0,1,1272.0,1
115,115,0.004973963964809203,0.0,0.0,0.0,409.0,786.0,0.0,1,885.0,1
116,116,-0.6766932023943522,-0.7,0.0,1.0,376.0,877.0,1.0,0,317.0,1
117,117,-0.18050289294184207,-0.2,1.0,0.0,333.0,571.0,0.0,0,1986.0,1
118,118,-0.7103974434862934,-0.7,1.0,0.0,285.0,740.0,0.0,0,365.0,1
119,119,-0.6092131447516871,-0.6,1.0,0.0,440.0,615.0,0.0,0,245.0,1
120,120,0.210932106484499,0.2,1.0,1.0,496.0,655.0,1.0,1,949.0,1
121,121,0.33395932053659794,0.3,0.0,0.0,385.0,958.0,0.0,1,137.0,1
122,122,-0.20923747073622545,-0.2,1.0,0.0,366.0,542.0,0.0,0,1002.0,1
123,123,0.6321501259657726,0.6,0.0,0.0,421.0,901.0,0.0,1,178.0,1
124,124,-0.3974509400810793,-0.4,1.0,0.0,259.0,876.0,0.0,0,285.0,1
125,125,0.2629181930316494,0.3,1.0,1.0,426.0,530.0,1.0,1,474.0,1
126,126,0.3756961342219588,0.4,1.0,1.0,350.0,897.0,1.0,1,463.0,1
127,127,-0.8992405558157347,-0.9,0.0,1.0,288.0,877.0,1.0,0,615.0,1
128,128,0.2873324027799934,0.3,1.0,1.0,310.0,986.0,1.0,1,584.0,1
129,129,-0.42149986209535784,-0.4,1.0,0.0,376.0,751.0,0.0,0,333.0,1
130,130,-0.3441036115489202,-0.3,1.0,0.0,441.0,560.0,0.0,0,619.0,1
131,131,0.20325016778828997,0.2,0.0,0.0,335.0,724.0,0.0,1,841.0,1
132,132,0.5403287036292562,0.5,0.0,0.0,347.0,502.0,0.0,1,471.0,1
133,133,-0.5907586135388718,-0.6,1.0,0.0,371.0,930.0,0.0,0,69.0,1
134,134,0.45786918587001957,0.5,0.0,0.0,304.0,676.0,0.0,1,390.0,1
135,135,0.29577569616305033,0.3,0.0,0.0,293.0,588.0,0.0,1,1309.0,1
136,136,-0.1708818539638738,-0.2,1.0,0.0,391.0,576.0,0.0,0,2033.0,1
137,137,-0.282461960166299,-0.3,0.0,1.0,439.0,905.0,1.0,0,246.0,1
138,138,-0.28756942350865833,-0.3,1.0,0.0,488.0,590.0,0.0,0,292.0,1
139,139,0.7511411864044736,0.8,1.0,1.0,427.0,736.0,1.0,1,327.0,1
140,140,-0.735983056858224,-0.7,1.0,0.0,291.0,543.0,0.0,0,186.0,1
141,141,-0.8619803706425804,-0.9,1.0,0.0,448.0,948.0,0.0,0,184.0,1
142,142,-0.8102516727173358,-0.8,0.0,1.0,288.0,772.0,1.0,0,190.0,1
143,143,-0.35597530263474975,-0.4,1.0,0.0,370.0,511.0,0.0,0,999.0,1
144,144,-0.330887664651039,-0.3,0.0,1.0,488.0,866.0,1.0,0,556.0,1
145,145,0.04642118659396921,0.0,0.0,0.0,304.0,523.0,0.0,1,2133.0,1
146,146,-0.1418956931662797,-0.1,1.0,0.0,320.0,867.0,0.0,0,1363.0,1
147,147,0.19358731432080922,0.2,0.0,0.0,373.0,737.0,0.0,1,270.0,1
148,148,0.6835290236243868,0.7,1.0,1.0,340.0,916.0,1.0,1,534.0,1
149,149,-0.37221877366434597,-0.4,0.0,1.0,417.0,932.0,1.0,0,831.0,1
150,150,0.15931127594358296,0.2,0.0,0.0,299.0,752.0,0.0,1,309.0,1
151,151,-0.1469149247531777,-0.1,0.0,1.0,410.0,598.0,1.0,0,1992.0,1
152,152,0.5101201928972284,0.5,0.0,0.0,418.0,792.0,0.0,1,340.0,1
153,153,-0.8228622397247733,-0.8,0.0,1.0,361.0,784.0,1.0,0,105.0,1
154,154,0.049057691303068474,0.0,0.0,0.0,348.0,516.0,1.0,0,2136.0,0
155,155,0.10117858063864771,0.1,0.0,0.0,402.0,510.0,0.0,1,798.0,1
156,156,-0.036260232780022994,-0.0,1.0,0.0,279.0,787.0,1.0,1,1934.0,0
157,157,0.8474512845168592,0.8,0.0,0.0,394.0,941.0,0.0,1,115.0,1
158,158,-0.18636522275565937,-0.2,1.0,0.0,316.0,784.0,0.0,0,1350.0,1
159,159,0.3320129605183716,0.3,1.0,1.0,454.0,885.0,1.0,1,1431.0,1
160,160,-0.856947463895456,-0.9,0.0,1.0,391.0,887.0,1.0,0,642.0,1
161,161,-0.6630701289124221,-0.7,1.0,0.0,497.0,996.0,0.0,0,177.0,1
162,162,0.09959285033468424,0.1,0.0,0.0,483.0,976.0,0.0,1,1541.0,1
163,163,0.23256097430655853,0.2,1.0,1.0,309.0,609.0,1.0,1,522.0,1
164,164,-0.6305686872741809,-0.6,1.0,0.0,487.0,843.0,0.0,0,280.0,1
165,165,0.6752792466726428,0.7,0.0,0.0,382.0,512.0,0.0,1,216.0,1
166,166,0.47002288081514265,0.5,1.0,1.0,297.0,852.0,1.0,1,321.0,1
167,167,0.2306378764029583,0.2,1.0,1.0,394.0,964.0,1.0,1,1402.0,1
168,168,0.6007095882040431,0.6,1.0,1.0,282.0,735.0,1.0,1,463.0,1
169,169,-0.1800232279498437,-0.2,1.0,0.0,439.0,985.0,0.0,0,686.0,1
170,170,0.5131630189598234,0.5,0.0,0.0,432.0,529.0,0.0,1,329.0,1
171,171,0.27559783258984016,0.3,0.0,0.0,329.0,907.0,0.0,1,454.0,1
172,172,0.39570052963769886,0.4,1.0,1.0,471.0,991.0,1.0,1,348.0,1
173,173,0.5929507784100042,0.6,1.0,1.0,386.0,967.0,1.0,1,507.0,1
174,174,0.7401268809934581,0.7,1.0,1.0,303.0,973.0,1.0,1,174.0,1
175,175,-0.38766092674164254,-0.4,0.0,1.0,467.0,892.0,1.0,0,961.0,1
176,176,-0.1101146089461591,-0.1,0.0,1.0,419.0,807.0,1.0,0,1064.0,1
177,177,0.016944909951027376,0.0,0.0,0.0,461.0,619.0,1.0,0,1920.0,0
178,178,0.039092352770180416,0.0,0.0,0.0,470.0,852.0,1.0,0,1678.0,0
179,179,0.2839330622862545,0.3,1.0,1.0,262.0,765.0,1.0,1,823.0,1
180,180,0.4804021034096616,0.5,0.0,0.0,342.0,997.0,0.0,1,321.0,1
181,181,-0.13671385315081552,-0.1,1.0,0.0,394.0,922.0,0.0,0,1684.0,1
182,182,0.41882261577204305,0.4,1.0,1.0,372.0,622.0,1.0,1,526.0,1
183,183,-0.003750634593555069,-0.0,1.0,0.0,431.0,856.0,0.0,0,1713.0,1
184,184,0.8645414428389487,0.9,1.0,1.0,426.0,813.0,1.0,1,201.0,1
185,185,-0.7587554733352604,-0.8,1.0,0.0,476.0,642.0,0.0,0,212.0,1
186,186,-0.03759334489235033,-0.0,1.0,0.0,322.0,552.0,1.0,1,2126.0,0
187,187,0.8188782031565481,0.8,0.0,0.0,455.0,651.0,0.0,1,204.0,1
188,188,-0.7111074827756649,-0.7,1.0,0.0,318.0,579.0,0.0,0,293.0,1
189,189,0.47197646936724225,0.5,0.0,0.0,496.0,924.0,0.0,1,170.0,1
190,190,-0.40358912917470385,-0.4,1.0,0.0,452.0,504.0,0.0,0,424.0,1
191,191,-0.32137395081802056,-0.3,0.0,1.0,421.0,709.0,1.0,0,320.0,1
192,192,-0.6034228484424331,-0.6,0.0,1.0,388.0,778.0,1.0,0,224.0,1
193,193,-0.562155342841292,-0.6,0.0,1.0,265.0,993.0,1.0,0,42.0,1
194,194,0.4162794779375977,0.4,0.0,0.0,274.0,736.0,0.0,1,140.0,1
195,195,0.7717426793564167,0.8,0.0,0.0,314.0,866.0,0.0,1,140.0,1
196,196,-0.39849280566436074,-0.4,0.0,1.0,473.0,670.0,1.0,0,357.0,1
197,197,0.874438470199174,0.9,0.0,0.0,251.0,555.0,0.0,1,204.0,1
198,198,-0.7831322575397623,-0.8,0.0,1.0,305.0,923.0,1.0,0,632.0,1
199,199,-0.4548311570441684,-0.5,1.0,0.0,300.0,657.0,0.0,0,373.0,1
200,200,0.15085048245727084,0.2,1.0,1.0,439.0,564.0,1.0,1,1997.0,1
201,201,0.8572367429260029,0.9,0.0,0.0,261.0,501.0,0.0,1,148.0,1
202,202,-0.1036425423479217,-0.1,1.0,0.0,461.0,510.0,0.0,0,2029.0,1
203,203,-0.39597761634680595,-0.4,1.0,0.0,338.0,685.0,0.0,0,887.0,1
204,204,0.37004339451733614,0.4,1.0,1.0,426.0,792.0,1.0,1,352.0,1
205,205,-0.6515948162697969,-0.7,0.0,1.0,430.0,839.0,1.0,0,231.0,1
206,206,-0.7043754711375722,-0.7,1.0,0.0,419.0,801.0,0.0,0,50.0,1
207,207,-0.5086865642487102,-0.5,1.0,0.0,353.0,688.0,0.0,0,439.0,1
208,208,-0.40901940361108285,-0.4,1.0,0.0,491.0,582.0,0.0,0,277.0,1
209,209,0.5955511573584545,0.6,0.0,0.0,365.0,697.0,0.0,1,238.0,1
210,210,-0.7914495796616732,-0.8,1.0,0.0,389.0,660.0,0.0,0,181.0,1
211,211,0.5903167912057744,0.6,1.0,1.0,268.0,677.0,1.0,1,275.0,1
212,212,-0.42472820670569467,-0.4,0.0,1.0,376.0,693.0,1.0,0,391.0,1
213,213,0.8656831269655797,0.9,0.0,0.0,490.0,944.0,0.0,1,86.0,1
214,214,0.3625058898949477,0.4,0.0,0.0,393.0,900.0,0.0,1,347.0,1
215,215,0.7170469098953763,0.7,1.0,1.0,338.0,671.0,1.0,1,421.0,1
216,216,-0.8940003419037892,-0.9,1.0,0.0,378.0,803.0,1.0,1,-41.0,0
217,217,-0.3027587608811545,-0.3,0.0,1.0,408.0,664.0,1.0,0,508.0,1
218,218,-0.8419755596044388,-0.8,0.0,1.0,435.0,682.0,1.0,0,193.0,1
219,219,0.10461805556263293,0.1,0.0,0.0,256.0,693.0,0.0,1,191.0,1
220,220,0.559247347507606,0.6,1.0,1.0,469.0,669.0,1.0,1,252.0,1
221,221,0.0714711079255631,0.1,1.0,1.0,303.0,876.0,0.0,0,1821.0,0
222,222,-0.7023298587272643,-0.7,0.0,1.0,261.0,849.0,1.0,0,210.0,1
223,223,0.09684444728708708,0.1,0.0,0.0,253.0,671.0,0.0,1,1876.0,1
224,224,0.2810080456245191,0.3,1.0,1.0,255.0,868.0,1.0,1,967.0,1
225,225,0.8045248389397758,0.8,0.0,0.0,337.0,801.0,0.0,1,222.0,1
226,226,-0.07524304543613003,-0.1,1.0,0.0,279.0,525.0,1.0,1,2196.0,0
227,227,-0.5101545653175561,-0.5,1.0,0.0,460.0,612.0,0.0,0,348.0,1
228,228,0.7154241590259584,0.7,1.0,1.0,363.0,971.0,1.0,1,226.0,1
229,229,0.616272540727615,0.6,0.0,0.0,267.0,822.0,0.0,1,61.0,1
230,230,-0.16815044929326306,-0.2,0.0,1.0,306.0,736.0,1.0,0,788.0,1
231,231,-0.3596234235577319,-0.4,0.0,1.0,483.0,958.0,1.0,0,449.0,1
232,232,-0.4583118880966253,-0.5,0.0,1.0,454.0,542.0,1.0,0,314.0,1
233,233,-0.529295224486362,-0.5,1.0,0.0,421.0,654.0,0.0,0,265.0,1
234,234,0.3129927830882572,0.3,0.0,0.0,274.0,951.0,0.0,1,395.0,1
235,235,0.004284226188665086,0.0,0.0,0.0,455.0,982.0,0.0,1,893.0,1
236,236,0.12626454350845495,0.1,0.0,0.0,338.0,803.0,0.0,1,19.0,1
237,237,0.19499361982902397,0.2,1.0,1.0,498.0,634.0,1.0,1,788.0,1
238,238,-0.14734647180133187,-0.1,1.0,0.0,298.0,668.0,0.0,0,2034.0,1
239,239,-0.8234899661476677,-0.8,1.0,0.0,394.0,553.0,0.0,0,143.0,1
240,240,0.41603666020555974,0.4,1.0,1.0,386.0,555.0,1.0,1,789.0,1
241,241,0.5245714056561496,0.5,1.0,1.0,477.0,560.0,1.0,1,363.0,1
242,242,-0.07055435375526287,-0.1,0.0,1.0,322.0,966.0,1.0,0,1712.0,1
243,243,-0.6776763555192168,-0.7,0.0,1.0,489.0,782.0,1.0,0,209.0,1
244,244,-0.5181717904670435,-0.5,1.0,0.0,347.0,714.0,0.0,0,409.0,1
245,245,0.12137919507225836,0.1,0.0,0.0,298.0,992.0,0.0,1,450.0,1
246,246,0.030202799927583346,0.0,0.0,0.0,271.0,550.0,0.0,1,2179.0,1
247,247,0.6003802682128679,0.6,0.0,0.0,357.0,748.0,0.0,1,135.0,1
248,248,-0.33537178171483994,-0.3,0.0,1.0,445.0,619.0,1.0,0,266.0,1
249,249,-0.32531059083035274,-0.3,1.0,0.0,324.0,875.0,0.0,0,301.0,1
250,250,0.6131020761359299,0.6,1.0,1.0,332.0,935.0,1.0,1,253.0,1
251,251,-0.4614966094515694,-0.5,0.0,1.0,313.0,930.0,1.0,0,227.0,1
252,252,0.15141253389556353,0.2,0.0,0.0,406.0,749.0,0.0,1,685.0,1
253,253,-0.014856773115244581,-0.0,0.0,1.0,447.0,881.0,0.0,1,1672.0,0
254,254,0.4625266372689446,0.5,1.0,1.0,263.0,756.0,1.0,1,251.0,1
255,255,-0.5372581304481725,-0.5,1.0,0.0,279.0,730.0,0.0,0,211.0,1
256,256,0.3249805510354963,0.3,1.0,1.0,428.0,896.0,1.0,1,616.0,1
257,257,0.6729271127319144,0.7,1.0,1.0,413.0,702.0,1.0,1,325.0,1
258,258,-0.8168570549906018,-0.8,0.0,1.0,399.0,632.0,1.0,0,189.0,1
259,259,0.7442039150810321,0.7,0.0,0.0,287.0,789.0,0.0,1,84.0,1
260,260,-0.6422506761852769,-0.6,1.0,0.0,485.0,936.0,0.0,0,149.0,1
261,261,0.013117140363677837,0.0,1.0,1.0,271.0,988.0,0.0,0,1741.0,0
262,262,0.16615393300692627,0.2,1.0,1.0,473.0,545.0,1.0,1,1712.0,1
263,263,-0.521565111996799,-0.5,0.0,1.0,270.0,573.0,1.0,0,357.0,1
264,264,0.3978406428896656,0.4,1.0,1.0,458.0,832.0,1.0,1,350.0,1
265,265,-0.4225592776347777,-0.4,0.0,1.0,359.0,905.0,1.0,0,546.0,1
266,266,-0.24347710786727084,-0.2,1.0,0.0,455.0,761.0,0.0,0,504.0,1
267,267,0.4313306684135586,0.4,0.0,0.0,276.0,803.0,0.0,1,381.0,1
268,268,-0.14097575575529742,-0.1,0.0,1.0,272.0,821.0,1.0,0,867.0,1
269,269,-0.5794326899055813,-0.6,1.0,0.0,298.0,931.0,0.0,0,251.0,1
270,270,0.07691138894173644,0.1,1.0,1.0,399.0,545.0,1.0,1,2056.0,1
271,271,-0.7467585029462721,-0.7,1.0,0.0,293.0,966.0,0.0,0,361.0,1
272,272,0.015308158540961903,0.0,1.0,1.0,358.0,707.0,0.0,0,505.0,0
273,273,0.5169131755428017,0.5,0.0,0.0,418.0,685.0,0.0,1,267.0,1
274,274,0.4488307540566082,0.4,0.0,0.0,359.0,806.0,0.0,1,205.0,1
275,275,-0.3659741759328178,-0.4,0.0,1.0,484.0,624.0,1.0,0,1852.0,1
276,276,-0.37076660159708186,-0.4,1.0,0.0,451.0,764.0,0.0,0,205.0,1
277,277,-0.07604167062532363,-0.1,1.0,0.0,347.0,581.0,1.0,1,2072.0,0
278,278,-0.14236925687390378,-0.1,0.0,1.0,494.0,973.0,0.0,1,1533.0,0
279,279,-0.20897262673705774,-0.2,0.0,1.0,457.0,842.0,1.0,0,661.0,1
280,280,-0.31419015912086146,-0.3,1.0,0.0,493.0,792.0,0.0,0,1375.0,1
281,281,0.5160484667363442,0.5,0.0,0.0,361.0,781.0,0.0,1,288.0,1
282,282,0.364542209647447,0.4,1.0,1.0,279.0,944.0,1.0,1,327.0,1
283,283,-0.31931079864100165,-0.3,1.0,0.0,397.0,627.0,0.0,0,696.0,1
284,284,-0.885410867980279,-0.9,0.0,1.0,395.0,910.0,1.0,0,395.0,1
285,285,0.2754177547999709,0.3,0.0,0.0,268.0,588.0,0.0,1,564.0,1
286,286,0.21350035571834092,0.2,0.0,0.0,360.0,555.0,0.0,1,475.0,1
287,287,-0.50928916784652,-0.5,0.0,1.0,383.0,969.0,1.0,0,288.0,1
288,288,0.42407225572332796,0.4,1.0,1.0,364.0,705.0,1.0,1,231.0,1
289,289,-0.7725446535976997,-0.8,0.0,1.0,262.0,843.0,1.0,0,185.0,1
290,290,-0.8675405408920261,-0.9,1.0,0.0,281.0,601.0,0.0,0,308.0,1
291,291,-0.5650492760868933,-0.6,0.0,1.0,464.0,617.0,1.0,0,809.0,1
292,292,-0.10316438967895969,-0.1,0.0,1.0,375.0,931.0,1.0,0,274.0,1
293,293,0.5295299567877513,0.5,1.0,1.0,342.0,748.0,1.0,1,400.0,1
294,294,-0.45784698356590897,-0.5,0.0,1.0,442.0,720.0,1.0,0,538.0,1
295,295,0.37845480271344945,0.4,0.0,0.0,373.0,922.0,0.0,1,155.0,1
296,296,-0.012701443641583765,-0.0,0.0,1.0,335.0,962.0,1.0,0,1703.0,1
297,297,0.8806650424468999,0.9,0.0,0.0,315.0,837.0,0.0,1,158.0,1
298,298,-0.20724666226529898,-0.2,1.0,0.0,413.0,761.0,0.0,0,486.0,1
299,299,0.578157028975376,0.6,0.0,0.0,473.0,696.0,0.0,1,201.0,1
300,300,0.15672901562886132,0.2,1.0,1.0,418.0,722.0,1.0,1,1860.0,1
301,301,0.25185041464910574,0.3,1.0,1.0,269.0,605.0,1.0,1,1126.0,1
302,302,0.656045130429353,0.7,0.0,0.0,474.0,984.0,0.0,1,182.0,1
303,303,0.6672881125050784,0.7,1.0,1.0,470.0,809.0,1.0,1,201.0,1
304,304,-0.8589789593313678,-0.9,1.0,0.0,281.0,545.0,0.0,0,164.0,1
305,305,-0.3884795099129499,-0.4,0.0,1.0,405.0,834.0,1.0,0,1001.0,1
306,306,0.2614472286582562,0.3,0.0,0.0,260.0,688.0,0.0,1,1412.0,1
307,307,-0.006455371554736855,-0.0,0.0,1.0,304.0,925.0,0.0,1,1771.0,0
308,308,0.2832761150076878,0.3,0.0,0.0,416.0,672.0,0.0,1,382.0,1
309,309,-0.6714095135125847,-0.7,0.0,1.0,392.0,861.0,1.0,0,547.0,1
310,310,-0.18337419480740513,-0.2,1.0,0.0,452.0,922.0,0.0,0,276.0,1
311,311,0.4086680256859151,0.4,1.0,1.0,262.0,885.0,1.0,1,803.0,1
312,312,0.03058352830687494,0.0,1.0,1.0,311.0,989.0,1.0,1,1700.0,1
313,313,-0.613516642317222,-0.6,0.0,1.0,418.0,517.0,1.0,0,785.0,1
314,314,0.35982538771643446,0.4,1.0,1.0,410.0,991.0,1.0,1,89.0,1
315,315,0.058049675788342636,0.1,1.0,1.0,327.0,866.0,1.0,1,1807.0,1
316,316,0.5061420944221718,0.5,1.0,1.0,340.0,777.0,1.0,1,253.0,1
317,317,0.300114144569935,0.3,1.0,1.0,267.0,828.0,1.0,1,1735.0,1
318,318,-0.2783214313543123,-0.3,0.0,1.0,289.0,984.0,1.0,0,297.0,1
319,319,-0.018440698122600074,-0.0,0.0,1.0,446.0,954.0,0.0,1,520.0,0
320,320,-0.45407329620271786,-0.5,1.0,0.0,489.0,867.0,0.0,0,334.0,1
321,321,0.17835806040109026,0.2,1.0,1.0,291.0,616.0,1.0,1,2093.0,1
322,322,0.12456352814611205,0.1,1.0,1.0,446.0,587.0,1.0,1,1057.0,1
323,323,0.5979269599563727,0.6,0.0,0.0,308.0,729.0,0.0,1,213.0,1
324,324,-0.4672867909342898,-0.5,1.0,0.0,329.0,956.0,0.0,0,545.0,1
325,325,-0.5898024140115459,-0.6,1.0,0.0,351.0,640.0,0.0,0,239.0,1
326,326,0.17097509554886947,0.2,1.0,1.0,327.0,532.0,1.0,1,2111.0,1
327,327,0.827703733064402,0.8,0.0,0.0,256.0,901.0,0.0,1,253.0,1
328,328,0.4602252344735075,0.5,1.0,1.0,450.0,759.0,1.0,1,231.0,1
329,329,-0.5498609299275111,-0.5,1.0,0.0,447.0,731.0,0.0,0,232.0,1
330,330,0.8459530066435273,0.8,0.0,0.0,334.0,892.0,0.0,1,254.0,1
331,331,0.8155535115227844,0.8,1.0,1.0,479.0,549.0,1.0,1,232.0,1
332,332,0.30370075790836515,0.3,1.0,1.0,384.0,737.0,1.0,1,579.0,1
333,333,0.7677432465844546,0.8,1.0,1.0,322.0,622.0,1.0,1,106.0,1
334,334,0.12848959870752263,0.1,1.0,1.0,466.0,763.0,1.0,1,61.0,1
335,335,-0.8361941343715897,-0.8,1.0,0.0,279.0,881.0,0.0,0,100.0,1
336,336,0.6067613291032065,0.6,0.0,0.0,472.0,694.0,0.0,1,264.0,1
337,337,-0.1808548943818441,-0.2,0.0,1.0,363.0,652.0,1.0,0,565.0,1
338,338,-0.4965594205460301,-0.5,0.0,1.0,406.0,798.0,1.0,0,306.0,1
339,339,0.08573019527217696,0.1,1.0,1.0,326.0,965.0,1.0,1,1709.0,1
340,340,-0.04078482693802843,-0.0,1.0,0.0,474.0,937.0,1.0,1,1589.0,0
341,341,-0.6105709397213631,-0.6,0.0,1.0,387.0,994.0,1.0,0,309.0,1
342,342,0.3918210896060702,0.4,0.0,0.0,459.0,916.0,0.0,1,445.0,1
343,343,0.8243122737749354,0.8,1.0,1.0,253.0,751.0,1.0,1,236.0,1
344,344,-0.7782461752743466,-0.8,0.0,1.0,445.0,569.0,1.0,0,226.0,1
345,345,-0.6620486685137359,-0.7,1.0,0.0,387.0,987.0,0.0,0,106.0,1
346,346,-0.2286694206294877,-0.2,0.0,1.0,262.0,992.0,1.0,0,556.0,1
347,347,-0.8377483586404044,-0.8,0.0,1.0,351.0,849.0,1.0,0,690.0,1
348,348,-0.029952257317010678,-0.0,0.0,1.0,409.0,775.0,0.0,1,76.0,0
349,349,-0.23106443912391694,-0.2,1.0,0.0,449.0,811.0,0.0,0,460.0,1
350,350,0.4505471459271454,0.5,0.0,0.0,331.0,835.0,0.0,1,184.0,1
351,351,0.6496692272314436,0.6,1.0,1.0,294.0,980.0,1.0,1,206.0,1
352,352,0.3835271283550804,0.4,0.0,0.0,452.0,943.0,0.0,1,355.0,1
353,353,0.6348131840234791,0.6,1.0,1.0,293.0,721.0,1.0,1,366.0,1
354,354,0.3106582007794739,0.3,1.0,1.0,309.0,572.0,1.0,1,499.0,1
355,355,-0.7655437711778434,-0.8,1.0,0.0,369.0,987.0,0.0,0,244.0,1
356,356,0.5673721045321359,0.6,1.0,1.0,467.0,788.0,1.0,1,365.0,1
357,357,0.5562887011198657,0.6,0.0,0.0,265.0,773.0,0.0,1,202.0,1
358,358,-0.8471259446329638,-0.8,0.0,1.0,429.0,742.0,1.0,0,379.0,1
359,359,0.4025503078018856,0.4,0.0,0.0,409.0,647.0,0.0,1,274.0,1
360,360,0.7239438335502818,0.7,0.0,0.0,261.0,977.0,0.0,1,202.0,1
361,361,-0.8272047012558184,-0.8,0.0,1.0,414.0,862.0,1.0,0,134.0,1
362,362,-0.17245879263345798,-0.2,0.0,1.0,468.0,949.0,1.0,0,923.0,1
363,363,-0.5107162460901518,-0.5,0.0,1.0,368.0,629.0,1.0,0,333.0,1
364,364,0.4390106492786342,0.4,1.0,1.0,357.0,872.0,1.0,1,371.0,1
365,365,0.24538343914397875,0.2,0.0,0.0,480.0,759.0,0.0,1,631.0,1
366,366,-0.16801461542031193,-0.2,1.0,0.0,467.0,933.0,0.0,0,900.0,1
367,367,0.5270690474475265,0.5,0.0,0.0,477.0,790.0,0.0,1,293.0,1
368,368,0.08326807238478473,0.1,1.0,1.0,267.0,895.0,1.0,1,1838.0,1
369,369,0.7829658596737322,0.8,1.0,1.0,447.0,750.0,1.0,1,243.0,1
370,370,-0.2236836414196729,-0.2,1.0,0.0,380.0,735.0,0.0,0,1885.0,1
371,371,0.8077014818444844,0.8,0.0,0.0,398.0,925.0,0.0,1,147.0,1
372,372,-0.05413961849001059,-0.1,1.0,0.0,284.0,760.0,0.0,0,1956.0,1
373,373,-0.2460804389620761,-0.2,1.0,0.0,477.0,643.0,0.0,0,630.0,1
374,374,0.14270851363908144,0.1,1.0,1.0,305.0,531.0,1.0,1,2164.0,1
375,375,0.19843367717159432,0.2,0.0,0.0,428.0,979.0,0.0,1,1593.0,1
376,376,0.045771795488752764,0.0,0.0,0.0,436.0,540.0,0.0,1,2024.0,1
377,377,-0.7754573301584421,-0.8,1.0,0.0,317.0,879.0,0.0,0,174.0,1
378,378,0.07318464418984705,0.1,1.0,1.0,444.0,913.0,1.0,1,1643.0,1
379,379,-0.5915521608567036,-0.6,0.0,1.0,492.0,704.0,1.0,0,264.0,1
380,380,-0.2662108391768214,-0.3,0.0,1.0,352.0,543.0,1.0,0,615.0,1
381,381,0.5680503952139521,0.6,0.0,0.0,474.0,588.0,0.0,1,248.0,1
382,382,-0.26512094955194776,-0.3,1.0,0.0,362.0,677.0,0.0,0,991.0,1
383,383,0.7618355338032071,0.8,0.0,0.0,466.0,978.0,0.0,1,226.0,1
384,384,-0.007303895489801149,-0.0,0.0,1.0,366.0,957.0,0.0,1,1677.0,0
385,385,0.6969059137912427,0.7,0.0,0.0,290.0,994.0,0.0,1,196.0,1
386,386,-0.034764048588728724,-0.0,1.0,0.0,470.0,892.0,0.0,0,1638.0,1
387,387,-0.2677232161135853,-0.3,1.0,0.0,409.0,506.0,0.0,0,185.0,1
388,388,0.37759285698766243,0.4,0.0,0.0,321.0,744.0,0.0,1,265.0,1
389,389,0.04943291942028838,0.0,1.0,1.0,379.0,954.0,0.0,0,1667.0,0
390,390,0.4410451678667041,0.4,0.0,0.0,496.0,720.0,0.0,1,314.0,1
391,391,0.27319431459182975,0.3,0.0,0.0,337.0,987.0,0.0,1,446.0,1
392,392,-0.12214919620013942,-0.1,0.0,1.0,310.0,580.0,1.0,0,2110.0,1
393,393,-0.6521729433267712,-0.7,1.0,0.0,479.0,780.0,0.0,0,271.0,1
394,394,-0.33312617392237365,-0.3,0.0,1.0,254.0,736.0,1.0,0,460.0,1
395,395,0.21912309122376195,0.2,1.0,1.0,461.0,509.0,1.0,1,1990.0,1
396,396,0.7951197155663893,0.8,0.0,0.0,367.0,996.0,0.0,1,187.0,1
397,397,0.5160708143717659,0.5,0.0,0.0,369.0,642.0,0.0,1,189.0,1
398,398,0.6261874960682391,0.6,1.0,1.0,419.0,773.0,1.0,1,488.0,1
399,399,0.2577907882499627,0.3,0.0,0.0,360.0,921.0,0.0,1,149.0,1
400,400,-0.7257195542290136,-0.7,1.0,0.0,259.0,668.0,0.0,0,133.0,1
401,401,0.5339346367472048,0.5,1.0,1.0,314.0,659.0,1.0,1,997.0,1
402,402,0.8654749436794472,0.9,0.0,0.0,329.0,919.0,0.0,1,152.0,1
403,403,0.19268423693640313,0.2,0.0,0.0,398.0,502.0,0.0,1,710.0,1
404,404,0.09144881508205804,0.1,1.0,1.0,448.0,929.0,1.0,1,1253.0,1
405,405,-0.20588476650131304,-0.2,1.0,0.0,398.0,738.0,0.0,0,774.0,1
406,406,-0.19264706590230307,-0.2,0.0,1.0,423.0,576.0,1.0,0,2001.0,1
407,407,0.47784050839651593,0.5,0.0,0.0,461.0,846.0,0.0,1,253.0,1
408,408,-0.31629212093832615,-0.3,0.0,1.0,342.0,570.0,1.0,0,748.0,1
409,409,-0.4422655478083472,-0.4,1.0,0.0,472.0,627.0,0.0,0,641.0,1
410,410,0.7229104609746079,0.7,0.0,0.0,460.0,697.0,0.0,1,173.0,1
411,411,-0.8281099174879832,-0.8,0.0,1.0,324.0,553.0,1.0,0,313.0,1
412,412,0.7630923297587019,0.8,0.0,0.0,258.0,772.0,0.0,1,210.0,1
413,413,0.08008180884696603,0.1,0.0,0.0,287.0,723.0,0.0,1,1020.0,1
414,414,-0.34563162700436734,-0.3,0.0,1.0,448.0,969.0,1.0,0,263.0,1
415,415,-0.03659746645393258,-0.0,0.0,1.0,396.0,779.0,1.0,0,1825.0,1
416,416,-0.0879951030457713,-0.1,0.0,1.0,349.0,725.0,1.0,0,1926.0,1
417,417,0.521781184308378,0.5,0.0,0.0,387.0,600.0,0.0,1,263.0,1
418,418,-0.7205436911458014,-0.7,1.0,0.0,275.0,761.0,0.0,0,194.0,1
419,419,-0.5383929425404752,-0.5,1.0,0.0,282.0,657.0,0.0,0,381.0,1
420,420,-0.7178881142135666,-0.7,0.0,1.0,440.0,637.0,1.0,0,703.0,1
421,421,0.29502626436865464,0.3,0.0,0.0,452.0,915.0,0.0,1,213.0,1
422,422,0.8622140535169166,0.9,0.0,0.0,250.0,995.0,0.0,1,105.0,1
423,423,-0.5106455544084434,-0.5,0.0,1.0,408.0,524.0,1.0,0,728.0,1
424,424,0.6215482402546216,0.6,0.0,0.0,285.0,750.0,0.0,1,195.0,1
425,425,0.6089262984708815,0.6,0.0,0.0,425.0,835.0,0.0,1,170.0,1
426,426,-0.6224894291080788,-0.6,0.0,1.0,493.0,838.0,1.0,0,349.0,1
427,427,0.026316501576746476,0.0,0.0,0.0,298.0,981.0,1.0,0,1721.0,0
428,428,0.3553291129520101,0.4,0.0,0.0,459.0,752.0,0.0,1,259.0,1
429,429,-0.047788713949795,-0.0,1.0,0.0,407.0,867.0,1.0,1,1726.0,0
430,430,0.20975586987870443,0.2,1.0,1.0,426.0,889.0,1.0,1,1685.0,1
431,431,-0.2580367924248408,-0.3,0.0,1.0,320.0,506.0,1.0,0,434.0,1
432,432,0.7861602430454143,0.8,0.0,0.0,276.0,653.0,0.0,1,181.0,1
433,433,0.27025118975775875,0.3,0.0,0.0,490.0,880.0,0.0,1,520.0,1
434,434,0.8203663127028756,0.8,0.0,0.0,357.0,596.0,0.0,1,177.0,1
435,435,0.3852312376925059,0.4,0.0,0.0,379.0,953.0,0.0,1,188.0,1
436,436,0.6880482685216097,0.7,1.0,1.0,467.0,649.0,1.0,1,194.0,1
437,437,0.015287657685409406,0.0,1.0,1.0,427.0,820.0,0.0,0,1753.0,0
438,438,0.7912991352734028,0.8,1.0,1.0,300.0,778.0,1.0,1,202.0,1
439,439,-0.7827265100849932,-0.8,0.0,1.0,377.0,862.0,1.0,0,21.0,1
440,440,0.5688022245716561,0.6,1.0,1.0,483.0,613.0,1.0,1,734.0,1
441,441,-0.4968902958679748,-0.5,0.0,1.0,293.0,811.0,1.0,0,1406.0,1
442,442,-0.0005447977495597334,-0.0,1.0,0.0,486.0,917.0,0.0,0,1597.0,1
443,443,-0.3210220994994163,-0.3,0.0,1.0,349.0,922.0,1.0,0,639.0,1
444,444,0.21447988831613196,0.2,1.0,1.0,452.0,862.0,1.0,1,1526.0,1
445,445,0.7493096028296323,0.7,1.0,1.0,365.0,544.0,1.0,1,211.0,1
446,446,0.7974261027414941,0.8,0.0,0.0,482.0,612.0,0.0,1,376.0,1
447,447,-0.6760661352147204,-0.7,1.0,0.0,358.0,712.0,0.0,0,360.0,1
448,448,-0.7051194301261825,-0.7,0.0,1.0,462.0,854.0,1.0,0,204.0,1
449,449,0.48628395593713314,0.5,1.0,1.0,362.0,688.0,1.0,1,330.0,1
450,450,0.13712405913320536,0.1,0.0,0.0,438.0,769.0,0.0,1,613.0,1
451,451,-0.418553798934751,-0.4,0.0,1.0,396.0,976.0,1.0,0,708.0,1
452,452,-0.7969029688597046,-0.8,0.0,1.0,377.0,648.0,1.0,0,485.0,1
453,453,0.40838325621900207,0.4,1.0,1.0,396.0,803.0,1.0,1,331.0,1
454,454,-0.3248171238895766,-0.3,0.0,1.0,456.0,534.0,1.0,0,470.0,1
455,455,0.38766384009568744,0.4,0.0,0.0,396.0,512.0,0.0,1,292.0,1
456,456,-0.6895586680554736,-0.7,0.0,1.0,373.0,916.0,1.0,0,81.0,1
457,457,-0.014935484189908532,-0.0,1.0,0.0,320.0,818.0,0.0,0,1262.0,1
458,458,0.5181267151896981,0.5,1.0,1.0,319.0,880.0,1.0,1,251.0,1
459,459,-0.8971564011925638,-0.9,1.0,0.0,438.0,536.0,0.0,0,356.0,1
460,460,0.1220221148796038,0.1,1.0,1.0,274.0,924.0,1.0,1,1802.0,1
461,461,-0.11908608061396564,-0.1,1.0,0.0,290.0,997.0,0.0,0,1713.0,1
462,462,0.13630188493455198,0.1,1.0,1.0,399.0,868.0,1.0,1,1733.0,1
463,463,0.4880870583161828,0.5,0.0,0.0,261.0,808.0,0.0,1,181.0,1
464,464,-0.3404804357488258,-0.3,1.0,0.0,268.0,827.0,0.0,0,275.0,1
465,465,-0.7273516001380956,-0.7,0.0,1.0,284.0,923.0,1.0,0,143.0,1
466,466,-0.1011712134461854,-0.1,0.0,1.0,301.0,879.0,0.0,1,1820.0,0
467,467,-0.747083737735157,-0.7,1.0,0.0,396.0,581.0,0.0,0,263.0,1
468,468,0.006971730753110972,0.0,0.0,0.0,337.0,950.0,0.0,1,1713.0,1
469,469,-0.24613460414163424,-0.2,0.0,1.0,481.0,916.0,1.0,0,483.0,1
470,470,-0.3138796110158355,-0.3,1.0,0.0,297.0,576.0,0.0,0,287.0,1
471,471,-0.31638597259952583,-0.3,0.0,1.0,377.0,879.0,1.0,0,354.0,1
472,472,-0.5882334556873989,-0.6,0.0,1.0,303.0,749.0,1.0,0,668.0,1
473,473,0.5993359743182557,0.6,0.0,0.0,272.0,552.0,0.0,1,216.0,1
474,474,0.4174060497612694,0.4,1.0,1.0,493.0,828.0,1.0,1,379.0,1
475,475,-0.15916475854949053,-0.2,0.0,1.0,278.0,589.0,1.0,0,823.0,1
476,476,-0.19898212709626173,-0.2,1.0,0.0,387.0,847.0,0.0,0,1236.0,1
477,477,0.1697143206791737,0.2,0.0,0.0,272.0,888.0,0.0,1,1010.0,1
478,478,0.1952762747328457,0.2,0.0,0.0,402.0,803.0,0.0,1,1195.0,1
479,479,0.3047864285780503,0.3,1.0,1.0,409.0,578.0,1.0,1,1043.0,1
480,480,-0.34173654386727637,-0.3,0.0,1.0,498.0,705.0,1.0,0,1137.0,1
481,481,-0.7854555274190627,-0.8,1.0,0.0,464.0,736.0,0.0,0,260.0,1
482,482,-0.14815259334714592,-0.1,1.0,0.0,498.0,625.0,0.0,0,1877.0,1
483,483,-0.18305846712703389,-0.2,1.0,0.0,317.0,751.0,0.0,0,1352.0,1
484,484,-0.2456629718501666,-0.2,0.0,1.0,402.0,653.0,1.0,0,1225.0,1
485,485,-0.2996837755767816,-0.3,0.0,1.0,250.0,552.0,1.0,0,1788.0,1
486,486,0.35684269650261824,0.4,0.0,0.0,331.0,547.0,0.0,1,542.0,1
487,487,0.5409446212656809,0.5,1.0,1.0,373.0,936.0,1.0,1,621.0,1
488,488,0.6286973727931545,0.6,1.0,1.0,485.0,660.0,1.0,1,235.0,1
489,489,-0.6149559982222628,-0.6,1.0,0.0,275.0,829.0,0.0,0,166.0,1
490,490,-0.7940130481388762,-0.8,1.0,0.0,268.0,513.0,0.0,0,199.0,1
491,491,-0.8263959652359142,-0.8,1.0,0.0,477.0,692.0,0.0,0,171.0,1
492,492,0.2679280210791072,0.3,0.0,0.0,493.0,861.0,0.0,1,-84.0,1
493,493,0.7556122473941408,0.8,1.0,1.0,335.0,587.0,1.0,1,438.0,1
494,494,-0.07268537123410501,-0.1,0.0,1.0,373.0,568.0,1.0,0,689.0,1
495,495,-0.7509066364238812,-0.8,0.0,1.0,338.0,922.0,1.0,0,190.0,1
496,496,0.2768744070120467,0.3,0.0,0.0,343.0,968.0,0.0,1,249.0,1
497,497,0.10692324397006125,0.1,1.0,1.0,340.0,897.0,1.0,1,1433.0,1
498,498,-0.37956290008575566,-0.4,0.0,1.0,478.0,689.0,1.0,0,233.0,1
499,499,0.713569977586105,0.7,1.0,1.0,393.0,958.0,1.0,1,179.0,1
500,500,0.5227174460306071,0.5,1.0,1.0,445.0,763.0,1.0,1,212.0,1
501,501,-0.4183055296918442,-0.4,0.0,1.0,440.0,560.0,1.0,0,210.0,1
502,502,-0.009504176280818899,-0.0,1.0,0.0,319.0,970.0,0.0,0,1711.0,1
503,503,-0.7079985429056603,-0.7,1.0,0.0,310.0,930.0,0.0,0,260.0,1
504,504,-0.7015196212466295,-0.7,0.0,1.0,299.0,822.0,1.0,0,209.0,1
505,505,-0.8135510558163378,-0.8,1.0,0.0,313.0,608.0,0.0,0,109.0,1
506,506,-0.024147822786172335,-0.0,0.0,1.0,445.0,999.0,1.0,0,1556.0,1
507,507,-0.49154459283003643,-0.5,0.0,1.0,434.0,711.0,1.0,0,505.0,1
508,508,0.5213831816578426,0.5,1.0,1.0,468.0,947.0,1.0,1,335.0,1
509,509,-0.06582432249199566,-0.1,1.0,0.0,313.0,643.0,0.0,0,984.0,1
510,510,-0.860839864701928,-0.9,0.0,1.0,321.0,974.0,1.0,0,85.0,1
511,511,0.8023454636033581,0.8,1.0,1.0,456.0,561.0,1.0,1,663.0,1
512,512,-0.32715396468547064,-0.3,1.0,0.0,416.0,882.0,0.0,0,252.0,1
513,513,0.07870360194849291,0.1,1.0,1.0,353.0,574.0,1.0,1,2073.0,1
514,514,0.7417523023819174,0.7,1.0,1.0,378.0,989.0,1.0,1,113.0,1
515,515,-0.4934361453780626,-0.5,1.0,0.0,416.0,691.0,0.0,0,283.0,1
516,516,0.858129638470614,0.9,1.0,1.0,349.0,897.0,1.0,1,164.0,1
517,517,0.8446993237173718,0.8,1.0,1.0,373.0,518.0,1.0,1,649.0,1
518,518,-0.10882685709298445,-0.1,0.0,1.0,317.0,794.0,1.0,0,549.0,1
519,519,0.2056465204691923,0.2,1.0,1.0,358.0,556.0,1.0,1,546.0,1
520,520,0.33125153393851126,0.3,0.0,0.0,305.0,579.0,0.0,1,336.0,1
521,521,0.04851453052498167,0.0,0.0,0.0,483.0,536.0,0.0,1,1301.0,1
522,522,-0.023116534299001956,-0.0,0.0,1.0,347.0,630.0,0.0,1,2023.0,0
523,523,-0.7295859359194377,-0.7,1.0,0.0,311.0,815.0,0.0,0,114.0,1
524,524,0.7229569948982247,0.7,0.0,0.0,304.0,801.0,0.0,1,265.0,1
525,525,-0.8914198109549559,-0.9,1.0,0.0,389.0,805.0,0.0,0,166.0,1
526,526,0.4231483009507998,0.4,0.0,0.0,489.0,870.0,0.0,1,181.0,1
527,527,-0.27520901893971483,-0.3,1.0,0.0,332.0,862.0,0.0,0,136.0,1
528,528,-0.5331725356053234,-0.5,0.0,1.0,489.0,931.0,1.0,0,190.0,1
529,529,0.237254188836325,0.2,1.0,1.0,349.0,521.0,1.0,1,1160.0,1
530,530,-0.8098128802948128,-0.8,0.0,1.0,461.0,999.0,1.0,0,90.0,1
531,531,-0.2033836701525238,-0.2,1.0,0.0,413.0,835.0,0.0,0,242.0,1
532,532,-0.5113267846652034,-0.5,1.0,0.0,490.0,674.0,0.0,0,296.0,1
533,533,0.2364537768989693,0.2,0.0,0.0,363.0,788.0,0.0,1,109.0,1
534,534,-0.7292729177612058,-0.7,1.0,0.0,256.0,655.0,0.0,0,179.0,1
535,535,0.7602866545568624,0.8,1.0,1.0,446.0,561.0,1.0,1,203.0,1
536,536,0.33511800899166777,0.3,0.0,0.0,435.0,992.0,0.0,1,173.0,1
537,537,-0.23048888101529275,-0.2,1.0,0.0,297.0,912.0,0.0,0,1121.0,1
538,538,0.39265139699847873,0.4,0.0,0.0,351.0,559.0,0.0,1,310.0,1
539,539,0.2948299231535513,0.3,1.0,1.0,334.0,884.0,1.0,1,442.0,1
540,540,0.3136951022551525,0.3,1.0,1.0,250.0,788.0,1.0,1,1312.0,1
541,541,0.199877628759639,0.2,0.0,0.0,347.0,908.0,0.0,1,1215.0,1
542,542,0.09718669507568245,0.1,1.0,1.0,495.0,541.0,0.0,0,1964.0,0
543,543,-0.7159414240463089,-0.7,1.0,0.0,376.0,587.0,0.0,0,147.0,1
544,544,0.2437512761428805,0.2,1.0,1.0,333.0,860.0,1.0,1,677.0,1
545,545,0.608871557147313,0.6,1.0,1.0,469.0,551.0,1.0,1,260.0,1
546,546,0.45945050358246575,0.5,1.0,1.0,435.0,845.0,1.0,1,400.0,1
547,547,0.6926083565713247,0.7,1.0,1.0,258.0,963.0,1.0,1,279.0,1
548,548,0.8430007315903497,0.8,1.0,1.0,398.0,641.0,1.0,1,151.0,1
549,549,-0.8798885535871919,-0.9,0.0,1.0,398.0,805.0,1.0,0,277.0,1
550,550,0.5933396029102042,0.6,1.0,1.0,335.0,847.0,1.0,1,268.0,1
551,551,0.8731646290421572,0.9,1.0,1.0,482.0,614.0,1.0,1,344.0,1
552,552,0.21570567498659032,0.2,1.0,1.0,421.0,823.0,1.0,1,796.0,1
553,553,0.5333054193099641,0.5,1.0,1.0,368.0,615.0,1.0,1,127.0,1
554,554,0.10932017815333628,0.1,1.0,1.0,403.0,948.0,1.0,1,869.0,1
555,555,0.48309192859580363,0.5,1.0,1.0,287.0,988.0,1.0,1,415.0,1
556,556,0.6635191185812096,0.7,1.0,1.0,385.0,724.0,1.0,1,161.0,1
557,557,-0.4228438692366374,-0.4,0.0,1.0,491.0,991.0,1.0,0,228.0,1
558,558,0.19264818966284236,0.2,1.0,1.0,374.0,813.0,1.0,1,913.0,1
559,559,0.1485927035365079,0.1,0.0,0.0,292.0,752.0,0.0,1,506.0,1
560,560,0.7241912567338681,0.7,0.0,0.0,277.0,574.0,0.0,1,169.0,1
561,561,-0.6797363124745135,-0.7,1.0,0.0,250.0,927.0,0.0,0,183.0,1
562,562,0.3331772401404508,0.3,1.0,1.0,388.0,844.0,1.0,1,128.0,1
563,563,-0.8823794720359518,-0.9,1.0,0.0,416.0,645.0,0.0,0,229.0,1
564,564,0.25020436716180094,0.3,1.0,1.0,310.0,996.0,1.0,1,1694.0,1
565,565,0.8038963096232562,0.8,1.0,1.0,372.0,566.0,1.0,1,202.0,1
566,566,-0.5021733426204167,-0.5,1.0,0.0,414.0,909.0,0.0,0,467.0,1
567,567,-0.10937823510811895,-0.1,0.0,1.0,417.0,502.0,1.0,0,891.0,1
568,568,0.8105396767670369,0.8,0.0,0.0,261.0,694.0,0.0,1,315.0,1
569,569,-0.7654668581657067,-0.8,1.0,0.0,388.0,746.0,0.0,0,116.0,1
570,570,0.12542167400037274,0.1,1.0,1.0,320.0,596.0,0.0,0,2084.0,0
571,571,-0.2685606656597821,-0.3,1.0,0.0,495.0,763.0,0.0,0,632.0,1
572,572,-0.12617070891336524,-0.1,0.0,1.0,325.0,797.0,1.0,0,1478.0,1
573,573,-0.1920043762515995,-0.2,0.0,1.0,473.0,878.0,1.0,0,549.0,1
574,574,-0.687977736891378,-0.7,0.0,1.0,373.0,512.0,1.0,0,215.0,1
575,575,0.37916197172052335,0.4,1.0,1.0,347.0,991.0,1.0,1,1662.0,1
576,576,0.8022023613958457,0.8,1.0,1.0,271.0,973.0,1.0,1,166.0,1
577,577,-0.24984071670578056,-0.2,0.0,1.0,406.0,760.0,1.0,0,1524.0,1
578,578,0.1211434772838148,0.1,1.0,1.0,366.0,652.0,1.0,1,1952.0,1
579,579,0.12812241885930475,0.1,1.0,1.0,375.0,817.0,1.0,1,958.0,1
580,580,0.6506310414466742,0.7,1.0,1.0,488.0,523.0,1.0,1,339.0,1
581,581,-0.24777063356131246,-0.2,1.0,0.0,341.0,913.0,0.0,0,346.0,1
582,582,0.30691753056175786,0.3,0.0,0.0,478.0,635.0,0.0,1,837.0,1
583,583,-0.45279837327312356,-0.5,0.0,1.0,458.0,590.0,1.0,0,982.0,1
584,584,-0.3882543891916209,-0.4,0.0,1.0,325.0,755.0,1.0,0,920.0,1
585,585,0.7706062637968062,0.8,1.0,1.0,429.0,873.0,1.0,1,128.0,1
586,586,0.5716506022344084,0.6,1.0,1.0,374.0,657.0,1.0,1,559.0,1
587,587,-0.7134850575215962,-0.7,0.0,1.0,328.0,623.0,1.0,0,49.0,1
588,588,0.2290490260843282,0.2,0.0,0.0,271.0,645.0,0.0,1,264.0,1
589,589,0.373816798566882,0.4,0.0,0.0,414.0,739.0,0.0,1,307.0,1
590,590,0.6175044847340928,0.6,0.0,0.0,313.0,844.0,0.0,1,233.0,1
591,591,0.24602824408306068,0.2,1.0,1.0,457.0,954.0,1.0,1,1189.0,1
592,592,0.2687085370202441,0.3,0.0,0.0,359.0,794.0,0.0,1,1847.0,1
593,593,0.18147784661277477,0.2,0.0,0.0,383.0,717.0,0.0,1,660.0,1
594,594,0.27327657620888457,0.3,0.0,0.0,282.0,983.0,0.0,1,585.0,1
595,595,-0.5523097903021548,-0.6,0.0,1.0,286.0,720.0,1.0,0,674.0,1
596,596,-0.6065140596861904,-0.6,0.0,1.0,356.0,759.0,1.0,0,305.0,1
597,597,0.6677337063236876,0.7,0.0,0.0,391.0,681.0,0.0,1,198.0,1
598,598,0.478363731656824,0.5,1.0,1.0,338.0,846.0,1.0,1,236.0,1
599,599,0.8557702784266087,0.9,0.0,0.0,401.0,701.0,0.0,1,98.0,1
600,600,0.09357880186163225,0.1,1.0,1.0,331.0,776.0,1.0,1,1893.0,1
601,601,0.8424746732234362,0.8,1.0,1.0,265.0,517.0,1.0,1,128.0,1
602,602,0.09027774661489218,0.1,1.0,1.0,369.0,889.0,1.0,1,1742.0,1
603,603,0.27293913541085646,0.3,1.0,1.0,405.0,818.0,1.0,1,1777.0,1
604,604,-0.5357354296928745,-0.5,0.0,1.0,260.0,656.0,1.0,0,194.0,1
605,605,-0.06119075703130661,-0.1,0.0,1.0,365.0,599.0,1.0,0,2036.0,1
606,606,-0.1458036363750672,-0.1,0.0,1.0,298.0,757.0,1.0,0,405.0,1
607,607,0.036438948829698115,0.0,1.0,1.0,273.0,972.0,1.0,1,1755.0,1
608,608,-0.6760717927568364,-0.7,1.0,0.0,435.0,878.0,0.0,0,77.0,1
609,609,0.8504636444283501,0.9,0.0,0.0,473.0,884.0,0.0,1,103.0,1
610,610,-0.5021806965197856,-0.5,0.0,1.0,468.0,516.0,1.0,0,366.0,1
611,611,-0.5927911485257464,-0.6,0.0,1.0,330.0,829.0,1.0,0,341.0,1
612,612,0.556428941587079,0.6,0.0,0.0,444.0,862.0,0.0,1,304.0,1
613,613,-0.13032907006266492,-0.1,1.0,0.0,264.0,891.0,0.0,0,1845.0,1
614,614,-0.1006939828603921,-0.1,0.0,1.0,389.0,610.0,0.0,1,2001.0,0
615,615,-0.5295117897624062,-0.5,1.0,0.0,356.0,797.0,0.0,0,177.0,1
616,616,-0.5230334004745916,-0.5,0.0,1.0,389.0,990.0,1.0,0,251.0,1
617,617,0.07455431550084546,0.1,0.0,0.0,267.0,954.0,0.0,1,1189.0,1
618,618,0.48084804058642583,0.5,0.0,0.0,275.0,545.0,0.0,1,460.0,1
619,619,-0.8676939653946211,-0.9,1.0,0.0,406.0,818.0,0.0,0,136.0,1
620,620,-0.5385437651895143,-0.5,1.0,0.0,494.0,892.0,0.0,0,254.0,1
621,621,0.4589577763775098,0.5,0.0,0.0,428.0,693.0,0.0,1,439.0,1
622,622,-0.04525551294783148,-0.0,0.0,1.0,484.0,805.0,0.0,1,1711.0,0
623,623,0.3975922171353553,0.4,1.0,1.0,377.0,745.0,1.0,1,178.0,1
624,624,0.6709092430637816,0.7,1.0,1.0,308.0,840.0,1.0,1,452.0,1
625,625,-0.8204802571537148,-0.8,0.0,1.0,467.0,696.0,1.0,0,137.0,1
626,626,-0.18079259263759517,-0.2,1.0,0.0,357.0,873.0,0.0,0,440.0,1
627,627,0.03336993241011266,0.0,0.0,0.0,389.0,620.0,0.0,1,1991.0,1
628,628,0.15863840054980638,0.2,1.0,1.0,468.0,535.0,1.0,1,1997.0,1
629,629,-0.7466033835932488,-0.7,0.0,1.0,479.0,736.0,1.0,0,305.0,1
630,630,-0.21437624328111637,-0.2,1.0,0.0,415.0,752.0,0.0,0,1613.0,1
631,631,-0.3082335782501333,-0.3,1.0,0.0,351.0,869.0,0.0,0,530.0,1
632,632,-0.25316948037168396,-0.3,1.0,0.0,398.0,518.0,0.0,0,1004.0,1
633,633,-0.4851059766540338,-0.5,0.0,1.0,353.0,620.0,1.0,0,107.0,1
634,634,-0.31180595754770346,-0.3,0.0,1.0,379.0,891.0,1.0,0,400.0,1
635,635,0.4956912076875074,0.5,1.0,1.0,351.0,629.0,1.0,1,190.0,1
636,636,-0.2626422737179397,-0.3,1.0,0.0,486.0,700.0,0.0,0,1224.0,1
637,637,0.6844960494642826,0.7,0.0,0.0,420.0,645.0,0.0,1,235.0,1
638,638,-0.445078649600428,-0.4,0.0,1.0,349.0,923.0,1.0,0,478.0,1
639,639,0.42426240333494103,0.4,1.0,1.0,271.0,796.0,1.0,1,573.0,1
640,640,0.18251805139310673,0.2,0.0,0.0,340.0,915.0,0.0,1,585.0,1
641,641,0.7124342850991091,0.7,0.0,0.0,253.0,920.0,0.0,1,67.0,1
642,642,-0.8360886899170379,-0.8,0.0,1.0,357.0,562.0,1.0,0,501.0,1
643,643,-0.054964353643316755,-0.1,1.0,0.0,409.0,791.0,0.0,0,1800.0,1
644,644,0.3173281469950925,0.3,0.0,0.0,351.0,953.0,0.0,1,526.0,1
645,645,0.3349102887514849,0.3,0.0,0.0,481.0,559.0,0.0,1,510.0,1
646,646,0.7954162788493359,0.8,1.0,1.0,263.0,504.0,1.0,1,493.0,1
647,647,-0.1985365529739871,-0.2,0.0,1.0,486.0,554.0,1.0,0,1960.0,1
648,648,0.6861375063665046,0.7,0.0,0.0,451.0,603.0,0.0,1,176.0,1
649,649,-0.48464607682558486,-0.5,0.0,1.0,302.0,856.0,1.0,0,1102.0,1
650,650,0.4951413522217111,0.5,1.0,1.0,459.0,895.0,1.0,1,286.0,1
651,651,0.6007233527659704,0.6,0.0,0.0,263.0,608.0,0.0,1,269.0,1
652,652,-0.5570549388825337,-0.6,0.0,1.0,266.0,825.0,1.0,0,259.0,1
653,653,0.14905138753634672,0.1,1.0,1.0,477.0,846.0,1.0,1,1677.0,1
654,654,0.8913017898766086,0.9,1.0,1.0,460.0,821.0,1.0,1,259.0,1
655,655,-0.5949582309304582,-0.6,1.0,0.0,388.0,631.0,0.0,0,281.0,1
656,656,0.20815010350499763,0.2,0.0,0.0,485.0,649.0,0.0,1,196.0,1
657,657,-0.4462420767044378,-0.4,0.0,1.0,386.0,988.0,1.0,0,276.0,1
658,658,0.8967780578363763,0.9,1.0,1.0,499.0,751.0,1.0,1,170.0,1
659,659,-0.04121075760628612,-0.0,0.0,1.0,346.0,903.0,1.0,0,1311.0,1
660,660,0.6748288928185681,0.7,0.0,0.0,417.0,633.0,0.0,1,340.0,1
661,661,-0.6677891483967199,-0.7,1.0,0.0,469.0,945.0,0.0,0,236.0,1
662,662,-0.4222350972461185,-0.4,0.0,1.0,281.0,856.0,1.0,0,183.0,1
663,663,-0.2451292617789005,-0.2,0.0,1.0,280.0,830.0,0.0,1,-210.0,0
664,664,0.6246330503476302,0.6,0.0,0.0,370.0,757.0,0.0,1,263.0,1
665,665,-0.2513035174248526,-0.3,1.0,0.0,390.0,697.0,0.0,0,773.0,1
666,666,-0.11647491395098553,-0.1,0.0,1.0,383.0,691.0,1.0,0,726.0,1
667,667,0.7407728351219754,0.7,1.0,1.0,380.0,868.0,1.0,1,162.0,1
668,668,-0.6312915632946012,-0.6,1.0,0.0,292.0,504.0,0.0,0,284.0,1
669,669,-0.07314775638421367,-0.1,0.0,1.0,432.0,956.0,1.0,0,1612.0,1
670,670,0.3985444280364888,0.4,0.0,0.0,342.0,932.0,0.0,1,336.0,1
671,671,0.44021260300832565,0.4,0.0,0.0,463.0,775.0,0.0,1,752.0,1
672,672,-0.43507052664883306,-0.4,0.0,1.0,391.0,629.0,1.0,0,350.0,1
673,673,-0.37102191888636793,-0.4,0.0,1.0,455.0,905.0,1.0,0,1640.0,1
674,674,-0.312861594972355,-0.3,1.0,0.0,351.0,866.0,0.0,0,333.0,1
675,675,0.4182757982282118,0.4,1.0,1.0,434.0,977.0,1.0,1,669.0,1
676,676,0.17451347825836516,0.2,1.0,1.0,354.0,716.0,1.0,1,1930.0,1
677,677,0.15393173126727888,0.2,1.0,1.0,423.0,948.0,1.0,1,1629.0,1
678,678,-0.8463942730652874,-0.8,1.0,0.0,352.0,579.0,0.0,0,119.0,1
679,679,0.006649087734484471,0.0,0.0,0.0,497.0,948.0,1.0,0,1555.0,0
680,680,-0.21757232530370063,-0.2,1.0,0.0,363.0,879.0,0.0,0,878.0,1
681,681,-0.3086844870826515,-0.3,1.0,0.0,297.0,736.0,0.0,0,937.0,1
682,682,-0.7494056594582629,-0.7,1.0,0.0,280.0,850.0,0.0,0,120.0,1
683,683,-0.3439666985273775,-0.3,1.0,0.0,364.0,541.0,0.0,0,965.0,1
684,684,-0.10577570583060225,-0.1,1.0,0.0,384.0,664.0,1.0,1,1952.0,0
685,685,-0.7508942404718328,-0.8,0.0,1.0,391.0,566.0,1.0,0,273.0,1
686,686,-0.4304592663897306,-0.4,1.0,0.0,344.0,856.0,0.0,0,240.0,1
687,687,0.7227375584486543,0.7,0.0,0.0,267.0,760.0,0.0,1,133.0,1
688,688,0.3145747201315666,0.3,1.0,1.0,337.0,718.0,1.0,1,485.0,1
689,689,-0.7623720916271657,-0.8,1.0,0.0,436.0,982.0,0.0,0,282.0,1
690,690,-0.3837014984124816,-0.4,0.0,1.0,363.0,942.0,1.0,0,255.0,1
691,691,0.01825796756655962,0.0,1.0,1.0,294.0,894.0,0.0,0,1812.0,0
692,692,0.4122521746041733,0.4,1.0,1.0,472.0,914.0,1.0,1,244.0,1
693,693,-0.2824174973656094,-0.3,1.0,0.0,456.0,827.0,0.0,0,877.0,1
694,694,-0.7720103436889629,-0.8,0.0,1.0,362.0,509.0,1.0,0,109.0,1
695,695,0.8503359224999826,0.9,0.0,0.0,407.0,517.0,0.0,1,126.0,1
696,696,-0.7512892433407268,-0.8,1.0,0.0,480.0,978.0,0.0,0,152.0,1
697,697,0.8734447011823306,0.9,0.0,0.0,474.0,727.0,0.0,1,209.0,1
698,698,-0.8700833966351565,-0.9,1.0,0.0,499.0,769.0,0.0,0,92.0,1
699,699,-0.4048324139894152,-0.4,1.0,0.0,374.0,984.0,0.0,0,432.0,1
700,700,0.19384693919810447,0.2,1.0,1.0,429.0,957.0,1.0,1,764.0,1
701,701,-0.7265990533149762,-0.7,1.0,0.0,292.0,680.0,0.0,0,138.0,1
702,702,-0.8187838561734099,-0.8,1.0,0.0,368.0,706.0,0.0,0,456.0,1
703,703,-0.5188425918712287,-0.5,0.0,1.0,272.0,916.0,1.0,0,392.0,1
704,704,-0.8630018415038057,-0.9,0.0,1.0,268.0,514.0,1.0,0,138.0,1
705,705,-0.11106967658640554,-0.1,1.0,0.0,257.0,600.0,0.0,0,1823.0,1
706,706,-0.6112100542443952,-0.6,1.0,0.0,269.0,675.0,0.0,0,236.0,1
707,707,-0.8451442527903547,-0.8,1.0,0.0,430.0,701.0,0.0,0,339.0,1
708,708,0.6699641259100712,0.7,1.0,1.0,394.0,847.0,1.0,1,229.0,1
709,709,-0.7849983489491522,-0.8,0.0,1.0,459.0,660.0,1.0,0,151.0,1
710,710,-0.016466323329914045,-0.0,1.0,0.0,429.0,630.0,0.0,0,1941.0,1
711,711,0.48860497864358765,0.5,0.0,0.0,389.0,934.0,0.0,1,67.0,1
712,712,0.2506913257789446,0.3,1.0,1.0,414.0,905.0,1.0,1,761.0,1
713,713,-0.0794300690223032,-0.1,1.0,0.0,254.0,757.0,1.0,1,1989.0,0
714,714,-0.8380882606668202,-0.8,0.0,1.0,387.0,672.0,1.0,0,181.0,1
715,715,0.5504097062510728,0.6,0.0,0.0,451.0,652.0,0.0,1,257.0,1
716,716,0.5932465802309669,0.6,0.0,0.0,328.0,880.0,0.0,1,232.0,1
717,717,-0.3235939246858307,-0.3,0.0,1.0,343.0,986.0,1.0,0,691.0,1
718,718,0.1643770678901043,0.2,1.0,1.0,478.0,517.0,1.0,1,845.0,1
719,719,-0.03330679349004384,-0.0,0.0,1.0,366.0,712.0,1.0,0,1922.0,1
720,720,0.7234403194217042,0.7,0.0,0.0,435.0,754.0,0.0,1,281.0,1
721,721,-0.6411599694610277,-0.6,0.0,1.0,449.0,501.0,1.0,0,450.0,1
722,722,-0.11162658948778481,-0.1,0.0,1.0,485.0,553.0,1.0,0,1002.0,1
723,723,-0.30580492395616876,-0.3,1.0,0.0,299.0,665.0,0.0,0,326.0,1
724,724,-0.5203608598697991,-0.5,0.0,1.0,360.0,747.0,1.0,0,393.0,1
725,725,0.44063644205953334,0.4,0.0,0.0,330.0,813.0,0.0,1,467.0,1
726,726,0.6775832586919538,0.7,1.0,1.0,348.0,935.0,1.0,1,447.0,1
727,727,-0.2750084076885392,-0.3,0.0,1.0,420.0,740.0,1.0,0,1010.0,1
728,728,0.03328993351750931,0.0,1.0,1.0,285.0,582.0,1.0,1,2133.0,1
729,729,-0.17122078849521716,-0.2,1.0,0.0,314.0,563.0,0.0,0,1403.0,1
730,730,0.48608026714361097,0.5,1.0,1.0,385.0,657.0,1.0,1,448.0,1
731,731,-0.5588173691692664,-0.6,0.0,1.0,470.0,886.0,1.0,0,254.0,1
732,732,-0.8785839587465389,-0.9,0.0,1.0,310.0,779.0,1.0,0,501.0,1
733,733,-0.8890323402880429,-0.9,1.0,0.0,431.0,702.0,0.0,0,197.0,1
734,734,0.6902434090261474,0.7,1.0,1.0,286.0,640.0,1.0,1,154.0,1
735,735,0.20940894663604281,0.2,0.0,0.0,300.0,584.0,0.0,1,656.0,1
736,736,0.11070119013883761,0.1,1.0,1.0,330.0,501.0,1.0,1,2169.0,1
737,737,0.8231651475966478,0.8,1.0,1.0,490.0,947.0,1.0,1,313.0,1
738,738,0.30550573047170204,0.3,0.0,0.0,495.0,687.0,0.0,1,568.0,1
739,739,-0.703373983211805,-0.7,1.0,0.0,444.0,756.0,0.0,0,220.0,1
740,740,-0.5894385773103518,-0.6,1.0,0.0,303.0,761.0,0.0,0,276.0,1
741,741,0.8175985964729818,0.8,1.0,1.0,315.0,527.0,1.0,1,158.0,1
742,742,-0.5624647747324873,-0.6,0.0,1.0,372.0,920.0,1.0,0,278.0,1
743,743,0.005361032994089632,0.0,0.0,0.0,381.0,909.0,0.0,1,310.0,1
744,744,-0.2058654417730329,-0.2,0.0,1.0,434.0,564.0,1.0,0,2002.0,1
745,745,-0.2538698051875611,-0.3,1.0,0.0,337.0,849.0,0.0,0,1164.0,1
746,746,0.10915289780596271,0.1,0.0,0.0,481.0,696.0,0.0,1,573.0,1
747,747,-0.4788722060003627,-0.5,0.0,1.0,309.0,951.0,1.0,0,340.0,1
748,748,0.723150216658435,0.7,1.0,1.0,324.0,948.0,1.0,1,238.0,1
749,749,-0.37188890085158655,-0.4,1.0,0.0,339.0,702.0,0.0,0,269.0,1
750,750,0.4539412407283018,0.5,0.0,0.0,452.0,605.0,0.0,1,223.0,1
751,751,0.2790866113550373,0.3,0.0,0.0,279.0,634.0,0.0,1,997.0,1
752,752,0.1753748591511063,0.2,1.0,1.0,353.0,882.0,1.0,1,1765.0,1
753,753,0.38531257093225457,0.4,1.0,1.0,368.0,854.0,1.0,1,318.0,1
754,754,-0.1132022087907345,-0.1,0.0,1.0,378.0,918.0,1.0,0,1704.0,1
755,755,-0.1881473302562151,-0.2,0.0,1.0,298.0,671.0,1.0,0,1631.0,1
756,756,-0.37506559477869283,-0.4,1.0,0.0,395.0,578.0,0.0,0,1167.0,1
757,757,-0.1021480011164515,-0.1,0.0,1.0,366.0,623.0,1.0,0,2011.0,1
758,758,0.6880289180896885,0.7,0.0,0.0,421.0,743.0,0.0,1,206.0,1
759,759,0.23447271433880068,0.2,1.0,1.0,468.0,564.0,1.0,1,1968.0,1
760,760,0.4868504989673835,0.5,0.0,0.0,301.0,585.0,0.0,1,244.0,1
761,761,-0.8588154608233085,-0.9,0.0,1.0,258.0,951.0,1.0,0,931.0,1
762,762,-0.0041259689005583855,-0.0,1.0,0.0,428.0,919.0,1.0,1,1653.0,0
763,763,-0.35424223952284073,-0.4,1.0,0.0,363.0,797.0,0.0,0,560.0,1
764,764,0.720793150309602,0.7,1.0,1.0,499.0,786.0,1.0,1,195.0,1
765,765,-0.7673379500426978,-0.8,1.0,0.0,371.0,611.0,0.0,0,178.0,1
766,766,-0.6246313834925807,-0.6,0.0,1.0,394.0,596.0,1.0,0,140.0,1
767,767,0.15829572246366796,0.2,1.0,1.0,352.0,730.0,1.0,1,1918.0,1
768,768,0.13456084530102463,0.1,1.0,1.0,267.0,654.0,1.0,1,929.0,1
769,769,-0.732300835793064,-0.7,0.0,1.0,285.0,788.0,1.0,0,147.0,1
770,770,-0.3856529234856113,-0.4,0.0,1.0,473.0,681.0,1.0,0,486.0,1
771,771,0.25141034488919634,0.3,0.0,0.0,387.0,635.0,0.0,1,708.0,1
772,772,-0.02778873990452746,-0.0,1.0,0.0,256.0,595.0,0.0,0,2149.0,1
773,773,0.07278054530445077,0.1,1.0,1.0,334.0,891.0,1.0,1,1775.0,1
774,774,-0.6616207273504922,-0.7,0.0,1.0,425.0,712.0,1.0,0,483.0,1
775,775,0.7378842360498367,0.7,1.0,1.0,367.0,641.0,1.0,1,152.0,1
776,776,0.4179839036076317,0.4,1.0,1.0,341.0,756.0,1.0,1,213.0,1
777,777,0.6158043246951242,0.6,1.0,1.0,456.0,547.0,1.0,1,287.0,1
778,778,-0.3112216248030404,-0.3,0.0,1.0,334.0,646.0,1.0,0,1030.0,1
779,779,-0.8547541024845239,-0.9,0.0,1.0,469.0,805.0,1.0,0,256.0,1
780,780,-0.5166952158944389,-0.5,0.0,1.0,431.0,619.0,1.0,0,260.0,1
781,781,-0.04652209296287302,-0.0,0.0,1.0,431.0,575.0,0.0,1,1994.0,0
782,782,-0.5646461305258212,-0.6,1.0,0.0,471.0,822.0,0.0,0,107.0,1
783,783,0.4645322907471844,0.5,1.0,1.0,436.0,982.0,1.0,1,302.0,1
784,784,-0.5318673657013013,-0.5,0.0,1.0,417.0,595.0,1.0,0,438.0,1
785,785,0.7642438509760158,0.8,1.0,1.0,411.0,848.0,1.0,1,291.0,1
786,786,-0.6669930288672596,-0.7,0.0,1.0,289.0,868.0,1.0,0,173.0,1
787,787,0.3436366626119357,0.3,1.0,1.0,444.0,729.0,1.0,1,747.0,1
788,788,0.6952088217951545,0.7,1.0,1.0,448.0,696.0,1.0,1,256.0,1
789,789,-0.42051501652581763,-0.4,0.0,1.0,497.0,521.0,1.0,0,422.0,1
790,790,-0.2911489770421427,-0.3,0.0,1.0,264.0,830.0,1.0,0,346.0,1
791,791,-0.7784434095399234,-0.8,0.0,1.0,350.0,707.0,1.0,0,113.0,1
792,792,0.2680222001505258,0.3,0.0,0.0,319.0,929.0,0.0,1,492.0,1
793,793,-0.08344485403569502,-0.1,0.0,1.0,362.0,890.0,1.0,0,1748.0,1
794,794,0.49586221369707084,0.5,0.0,0.0,312.0,639.0,0.0,1,269.0,1
795,795,-0.2642587719856502,-0.3,0.0,1.0,351.0,713.0,1.0,0,1296.0,1
796,796,-0.8147489869132544,-0.8,0.0,1.0,457.0,580.0,1.0,0,273.0,1
797,797,-0.38734577162092076,-0.4,1.0,0.0,458.0,770.0,0.0,0,752.0,1
798,798,0.7044440655949241,0.7,1.0,1.0,419.0,706.0,1.0,1,485.0,1
799,799,-0.41240601677538763,-0.4,0.0,1.0,430.0,638.0,1.0,0,422.0,1
800,800,0.6051790077604259,0.6,0.0,0.0,312.0,957.0,0.0,1,171.0,1
801,801,0.5406206364583129,0.5,1.0,1.0,279.0,697.0,1.0,1,324.0,1
802,802,0.0778091422821856,0.1,0.0,0.0,293.0,650.0,0.0,1,2057.0,1
803,803,0.5419328924722829,0.5,1.0,1.0,293.0,615.0,1.0,1,512.0,1
804,804,0.4405331996149907,0.4,0.0,0.0,332.0,864.0,0.0,1,214.0,1
805,805,-0.5870737372382704,-0.6,0.0,1.0,262.0,538.0,1.0,0,910.0,1
806,806,0.5709511729403477,0.6,1.0,1.0,368.0,892.0,1.0,1,170.0,1
807,807,-0.28956362637163924,-0.3,0.0,1.0,348.0,586.0,1.0,0,1366.0,1
808,808,0.7777602662211475,0.8,0.0,0.0,332.0,540.0,0.0,1,128.0,1
809,809,-0.2865164009699488,-0.3,1.0,0.0,453.0,707.0,0.0,0,400.0,1
810,810,-0.8498947415626255,-0.8,1.0,0.0,310.0,674.0,0.0,0,326.0,1
811,811,-0.46082436489981915,-0.5,1.0,0.0,497.0,857.0,0.0,0,456.0,1
812,812,0.3654629786087339,0.4,1.0,1.0,433.0,721.0,1.0,1,546.0,1
813,813,-0.07238492189895096,-0.1,0.0,1.0,344.0,502.0,1.0,0,1504.0,1
814,814,-0.3772303273602927,-0.4,1.0,0.0,293.0,693.0,0.0,0,284.0,1
815,815,0.7511662061129109,0.8,1.0,1.0,318.0,821.0,1.0,1,61.0,1
816,816,0.8926608380184474,0.9,0.0,0.0,493.0,849.0,0.0,1,128.0,1
817,817,-0.6171904118335845,-0.6,1.0,0.0,451.0,768.0,0.0,0,221.0,1
818,818,0.7607322268242626,0.8,0.0,0.0,345.0,865.0,0.0,1,190.0,1
819,819,-0.8733746835466704,-0.9,0.0,1.0,499.0,777.0,1.0,0,114.0,1
820,820,-0.207711084803612,-0.2,1.0,0.0,464.0,810.0,0.0,0,1016.0,1
821,821,-0.07199029766616172,-0.1,1.0,0.0,434.0,999.0,1.0,1,1567.0,0
822,822,-0.6689464781217779,-0.7,0.0,1.0,413.0,925.0,1.0,0,432.0,1
823,823,-0.12583222202274402,-0.1,1.0,0.0,380.0,611.0,0.0,0,2009.0,1
824,824,-0.5388615595484467,-0.5,1.0,0.0,492.0,715.0,0.0,0,183.0,1
825,825,-0.4779529361672578,-0.5,0.0,1.0,458.0,908.0,1.0,0,984.0,1
826,826,-0.5628052626477664,-0.6,0.0,1.0,472.0,895.0,1.0,0,463.0,1
827,827,0.5280001603241179,0.5,1.0,1.0,416.0,991.0,1.0,1,93.0,1
828,828,0.35867816130398456,0.4,1.0,1.0,443.0,823.0,1.0,1,644.0,1
829,829,-0.2402723710431789,-0.2,0.0,1.0,385.0,572.0,1.0,0,573.0,1
830,830,0.34762542782406547,0.3,1.0,1.0,335.0,665.0,1.0,1,1490.0,1
831,831,0.3702521660342851,0.4,0.0,0.0,361.0,810.0,0.0,1,359.0,1
832,832,-0.13146875731507957,-0.1,1.0,0.0,355.0,683.0,0.0,0,1962.0,1
833,833,-0.09613004877154285,-0.1,1.0,0.0,495.0,508.0,0.0,0,1997.0,1
834,834,-0.12046856462125677,-0.1,0.0,1.0,350.0,740.0,1.0,0,1210.0,1
835,835,0.7711990774798682,0.8,0.0,0.0,333.0,844.0,0.0,1,153.0,1
836,836,-0.02537800769313847,-0.0,1.0,0.0,479.0,687.0,0.0,0,1834.0,1
837,837,0.543466076480487,0.5,0.0,0.0,495.0,739.0,0.0,1,216.0,1
838,838,0.6384652321640795,0.6,1.0,1.0,496.0,657.0,1.0,1,287.0,1
839,839,-0.38269336495088246,-0.4,0.0,1.0,453.0,937.0,1.0,0,530.0,1
840,840,-0.8882472336011654,-0.9,0.0,1.0,304.0,847.0,1.0,0,119.0,1
841,841,0.1751098813319042,0.2,0.0,0.0,298.0,995.0,0.0,1,447.0,1
842,842,-0.25203604649750133,-0.3,0.0,1.0,299.0,950.0,1.0,0,151.0,1
843,843,0.12725371026115295,0.1,0.0,0.0,349.0,972.0,0.0,1,609.0,1
844,844,0.15117472296795087,0.2,0.0,0.0,483.0,656.0,0.0,1,751.0,1
845,845,-0.5126254124646801,-0.5,0.0,1.0,345.0,587.0,1.0,0,458.0,1
846,846,-0.3571429174009456,-0.4,0.0,1.0,366.0,795.0,1.0,0,629.0,1
847,847,-0.7935879556971626,-0.8,0.0,1.0,284.0,903.0,1.0,0,1213.0,1
848,848,-0.30373126613449486,-0.3,1.0,0.0,373.0,733.0,0.0,0,284.0,1
849,849,0.6264110486884434,0.6,0.0,0.0,477.0,638.0,0.0,1,175.0,1
850,850,-0.6822491063484561,-0.7,1.0,0.0,310.0,732.0,0.0,0,168.0,1
851,851,0.481370867776154,0.5,1.0,1.0,474.0,590.0,1.0,1,446.0,1
852,852,0.5502050465327811,0.6,0.0,0.0,465.0,895.0,0.0,1,130.0,1
853,853,-0.34011856309098265,-0.3,1.0,0.0,473.0,755.0,0.0,0,222.0,1
854,854,0.5087473464987659,0.5,0.0,0.0,301.0,529.0,0.0,1,230.0,1
855,855,-0.4277736567881573,-0.4,1.0,0.0,259.0,662.0,0.0,0,239.0,1
856,856,-0.6744323383866548,-0.7,1.0,0.0,261.0,829.0,0.0,0,140.0,1
857,857,-0.5749266854561421,-0.6,0.0,1.0,372.0,763.0,1.0,0,255.0,1
858,858,-0.740364629273842,-0.7,0.0,1.0,463.0,791.0,1.0,0,156.0,1
859,859,-0.5463375919520252,-0.5,0.0,1.0,259.0,874.0,1.0,0,247.0,1
860,860,-0.05974802027224779,-0.1,0.0,1.0,281.0,983.0,1.0,0,1736.0,1
861,861,-0.31029070558855254,-0.3,0.0,1.0,270.0,717.0,1.0,0,493.0,1
862,862,-0.5023979203791451,-0.5,0.0,1.0,341.0,542.0,1.0,0,267.0,1
863,863,-0.1926921964711783,-0.2,0.0,1.0,493.0,876.0,1.0,0,321.0,1
864,864,0.055487444601631464,0.1,0.0,0.0,484.0,565.0,0.0,1,911.0,1
865,865,-0.815676295576526,-0.8,0.0,1.0,445.0,969.0,1.0,0,176.0,1
866,866,0.4139735885654544,0.4,0.0,0.0,409.0,878.0,0.0,1,263.0,1
867,867,-0.12702140016155206,-0.1,0.0,1.0,414.0,591.0,1.0,0,1995.0,1
868,868,0.12458923298896829,0.1,1.0,1.0,262.0,701.0,1.0,1,837.0,1
869,869,0.8919869583819607,0.9,1.0,1.0,317.0,586.0,1.0,1,487.0,1
870,870,-0.8919963879400586,-0.9,1.0,0.0,405.0,934.0,0.0,0,111.0,1
871,871,-0.32125022059363284,-0.3,0.0,1.0,478.0,507.0,1.0,0,455.0,1
872,872,0.30123201598200444,0.3,1.0,1.0,355.0,525.0,1.0,1,760.0,1
873,873,-0.2406333545643108,-0.2,0.0,1.0,355.0,768.0,1.0,0,437.0,1
874,874,0.6989542486057673,0.7,0.0,0.0,497.0,781.0,0.0,1,152.0,1
875,875,0.168285708877833,0.2,0.0,0.0,275.0,745.0,0.0,1,770.0,1
876,876,0.6685531344659738,0.7,0.0,0.0,386.0,562.0,0.0,1,192.0,1
877,877,-0.6314252173325751,-0.6,0.0,1.0,362.0,662.0,1.0,0,176.0,1
878,878,0.788293486933782,0.8,1.0,1.0,379.0,895.0,1.0,1,306.0,1
879,879,0.08460676233040454,0.1,0.0,0.0,276.0,750.0,1.0,0,1974.0,0
880,880,-0.34458630609373286,-0.3,0.0,1.0,442.0,739.0,1.0,0,189.0,1
881,881,0.4718276442217574,0.5,1.0,1.0,368.0,948.0,1.0,1,-56.0,1
882,882,0.6820227998183609,0.7,0.0,0.0,478.0,956.0,0.0,1,236.0,1
883,883,0.37897854233304906,0.4,1.0,1.0,363.0,654.0,1.0,1,443.0,1
884,884,0.6790325813922785,0.7,0.0,0.0,368.0,647.0,0.0,1,215.0,1
885,885,0.13971107173042607,0.1,1.0,1.0,253.0,921.0,1.0,1,1826.0,1
886,886,-0.05262638352879112,-0.1,1.0,0.0,473.0,960.0,0.0,0,1567.0,1
887,887,-0.49706339146389705,-0.5,0.0,1.0,356.0,744.0,1.0,0,150.0,1
888,888,-0.004159768315189494,-0.0,0.0,1.0,444.0,776.0,1.0,0,1240.0,1
889,889,0.7540621805518629,0.8,0.0,0.0,329.0,850.0,0.0,1,91.0,1
890,890,0.8359623957717687,0.8,1.0,1.0,272.0,715.0,1.0,1,263.0,1
891,891,0.4444465393040248,0.4,0.0,0.0,422.0,800.0,0.0,1,298.0,1
892,892,0.1394957374094633,0.1,0.0,0.0,433.0,728.0,0.0,1,1679.0,1
893,893,-0.5750824015172589,-0.6,1.0,0.0,279.0,557.0,0.0,0,334.0,1
894,894,-0.6072846495126994,-0.6,0.0,1.0,420.0,977.0,1.0,0,83.0,1
895,895,0.05341338874084789,0.1,1.0,1.0,446.0,569.0,1.0,1,1985.0,1
896,896,0.8491658170653323,0.8,1.0,1.0,304.0,665.0,1.0,1,241.0,1
897,897,0.005958816232570219,0.0,0.0,0.0,300.0,961.0,0.0,1,579.0,1
898,898,0.6722003618461164,0.7,1.0,1.0,326.0,757.0,1.0,1,417.0,1
899,899,0.7413238539582331,0.7,1.0,1.0,373.0,781.0,1.0,1,336.0,1
900,900,-0.7905368178552037,-0.8,1.0,0.0,498.0,922.0,0.0,0,120.0,1
901,901,-0.49932728123527487,-0.5,1.0,0.0,482.0,800.0,0.0,0,278.0,1
902,902,-0.5656743789924904,-0.6,1.0,0.0,479.0,887.0,0.0,0,194.0,1
903,903,-0.7356789432282711,-0.7,1.0,0.0,365.0,963.0,0.0,0,232.0,1
904,904,-0.24418941704726815,-0.2,1.0,0.0,491.0,925.0,0.0,0,224.0,1
905,905,-0.5715864930875484,-0.6,1.0,0.0,459.0,801.0,0.0,0,180.0,1
906,906,-0.4816721001099234,-0.5,1.0,0.0,366.0,888.0,0.0,0,276.0,1
907,907,-0.7243384085581798,-0.7,1.0,0.0,458.0,639.0,0.0,0,183.0,1
908,908,0.7219574376838666,0.7,0.0,0.0,272.0,691.0,0.0,1,207.0,1
909,909,-0.6242590428731604,-0.6,1.0,0.0,488.0,625.0,0.0,0,137.0,1
910,910,-0.7377410078861945,-0.7,0.0,1.0,364.0,825.0,1.0,0,831.0,1
911,911,-0.21320032114971588,-0.2,1.0,0.0,315.0,890.0,0.0,0,1765.0,1
912,912,-0.23782736211882805,-0.2,0.0,1.0,312.0,544.0,1.0,0,1414.0,1
913,913,-0.6048704631597133,-0.6,0.0,1.0,261.0,809.0,1.0,0,130.0,1
914,914,-0.19413073740860953,-0.2,0.0,1.0,273.0,914.0,1.0,0,383.0,1
915,915,0.5035059482372494,0.5,0.0,0.0,498.0,928.0,0.0,1,194.0,1
916,916,0.04667002286740973,0.0,0.0,0.0,389.0,604.0,0.0,1,2007.0,1
917,917,-0.6039002692586517,-0.6,1.0,0.0,264.0,510.0,0.0,0,416.0,1
918,918,0.4255954494443467,0.4,0.0,0.0,340.0,577.0,0.0,1,533.0,1
919,919,-0.605560659472344,-0.6,0.0,1.0,405.0,903.0,1.0,0,232.0,1
920,920,-0.5303425731319051,-0.5,1.0,0.0,251.0,701.0,0.0,0,328.0,1
921,921,0.14791971235514534,0.1,0.0,0.0,480.0,566.0,0.0,1,934.0,1
922,922,0.5684146658275001,0.6,0.0,0.0,273.0,674.0,0.0,1,253.0,1
923,923,-0.5225234138219064,-0.5,0.0,1.0,312.0,721.0,1.0,0,347.0,1
924,924,-0.3724405697784957,-0.4,0.0,1.0,467.0,951.0,1.0,0,742.0,1
925,925,-0.0989778494628708,-0.1,0.0,1.0,271.0,513.0,0.0,1,2216.0,0
926,926,0.06655617072888298,0.1,1.0,1.0,424.0,570.0,1.0,1,756.0,1
927,927,-0.7558564711874071,-0.8,0.0,1.0,399.0,733.0,1.0,0,478.0,1
928,928,-0.8015409169184339,-0.8,0.0,1.0,307.0,679.0,1.0,0,524.0,1
929,929,0.3818780323590093,0.4,0.0,0.0,259.0,976.0,0.0,1,585.0,1
930,930,-0.516956598681636,-0.5,0.0,1.0,360.0,630.0,1.0,0,680.0,1
931,931,0.38500708328853894,0.4,0.0,0.0,331.0,584.0,0.0,1,365.0,1
932,932,-0.7809048414476374,-0.8,0.0,1.0,477.0,611.0,1.0,0,122.0,1
933,933,0.4849866882000876,0.5,1.0,1.0,471.0,654.0,1.0,1,205.0,1
934,934,0.4537047083684941,0.5,1.0,1.0,311.0,980.0,1.0,1,239.0,1
935,935,0.09581770231280173,0.1,1.0,1.0,294.0,560.0,1.0,1,2146.0,1
936,936,-0.5097542822165677,-0.5,1.0,0.0,491.0,647.0,0.0,0,172.0,1
937,937,-0.04882760288019394,-0.0,0.0,1.0,256.0,773.0,1.0,0,1971.0,1
938,938,-0.6639417907335765,-0.7,1.0,0.0,413.0,678.0,0.0,0,269.0,1
939,939,0.6442701602338602,0.6,1.0,1.0,427.0,526.0,1.0,1,257.0,1
940,940,-0.6806920844205371,-0.7,1.0,0.0,330.0,586.0,0.0,0,264.0,1
941,941,-0.18727783369084983,-0.2,1.0,0.0,482.0,814.0,0.0,0,1264.0,1
942,942,0.4195919451301794,0.4,0.0,0.0,315.0,941.0,0.0,1,124.0,1
943,943,-0.8553211959068501,-0.9,1.0,0.0,383.0,646.0,0.0,0,241.0,1
944,944,0.30220514533127407,0.3,1.0,1.0,297.0,739.0,1.0,1,214.0,1
945,945,0.1279672598182261,0.1,0.0,0.0,448.0,876.0,0.0,1,486.0,1
946,946,-0.12965345662509864,-0.1,1.0,0.0,386.0,738.0,0.0,0,1256.0,1
947,947,-0.13001759636643606,-0.1,0.0,1.0,420.0,811.0,1.0,0,1769.0,1
948,948,0.06666150175284768,0.1,0.0,0.0,426.0,521.0,0.0,1,2053.0,1
949,949,0.626186951477831,0.6,0.0,0.0,434.0,876.0,0.0,1,120.0,1
950,950,0.7182969461412533,0.7,1.0,1.0,293.0,848.0,1.0,1,219.0,1
951,951,0.4657995434354437,0.5,1.0,1.0,270.0,608.0,1.0,1,222.0,1
952,952,0.08099566740895858,0.1,1.0,1.0,441.0,749.0,1.0,1,1810.0,1
953,953,0.8317013882121987,0.8,1.0,1.0,439.0,510.0,1.0,1,201.0,1
954,954,-0.19012029426167032,-0.2,0.0,1.0,470.0,969.0,1.0,0,1561.0,1
955,955,0.7912886026351761,0.8,1.0,1.0,405.0,665.0,1.0,1,200.0,1
956,956,-0.16892310845964742,-0.2,1.0,0.0,385.0,971.0,0.0,0,404.0,1
957,957,-0.4835148502144488,-0.5,1.0,0.0,301.0,575.0,0.0,0,424.0,1
958,958,-0.5852420407658339,-0.6,1.0,0.0,482.0,708.0,0.0,0,240.0,1
959,959,-0.615554583798293,-0.6,1.0,0.0,267.0,578.0,0.0,0,175.0,1
960,960,-0.5287272338545511,-0.5,1.0,0.0,445.0,625.0,0.0,0,470.0,1
961,961,-0.4833227151803684,-0.5,0.0,1.0,309.0,976.0,1.0,0,275.0,1
962,962,-0.5232164017726062,-0.5,0.0,1.0,487.0,814.0,1.0,0,219.0,1
963,963,-0.6739761666126476,-0.7,1.0,0.0,305.0,593.0,0.0,0,252.0,1
964,964,0.7827137206696654,0.8,0.0,0.0,327.0,908.0,0.0,1,115.0,1
965,965,0.7680051687979034,0.8,0.0,0.0,438.0,954.0,0.0,1,158.0,1
966,966,-0.1898060034115001,-0.2,1.0,0.0,469.0,513.0,0.0,0,978.0,1
967,967,-0.47149818590273657,-0.5,0.0,1.0,369.0,551.0,1.0,0,710.0,1
968,968,-0.10479092253758782,-0.1,1.0,0.0,307.0,828.0,0.0,0,1385.0,1
969,969,-0.41964154593001335,-0.4,0.0,1.0,288.0,671.0,1.0,0,151.0,1
970,970,0.6411028962155644,0.6,0.0,0.0,473.0,984.0,0.0,1,133.0,1
971,971,-0.18559443712142953,-0.2,0.0,1.0,327.0,594.0,1.0,0,2079.0,1
972,972,-0.43674240177965123,-0.4,1.0,0.0,458.0,742.0,0.0,0,360.0,1
973,973,0.42624527127974343,0.4,0.0,0.0,468.0,964.0,0.0,1,188.0,1
974,974,-0.6177049859375897,-0.6,1.0,0.0,296.0,652.0,0.0,0,412.0,1
975,975,-0.3794639180553233,-0.4,1.0,0.0,267.0,554.0,0.0,0,269.0,1
976,976,-0.72450034916252,-0.7,1.0,0.0,396.0,989.0,0.0,0,145.0,1
977,977,0.4130241475687132,0.4,0.0,0.0,300.0,675.0,0.0,1,405.0,1
978,978,0.7671071974880049,0.8,0.0,0.0,334.0,926.0,0.0,1,130.0,1
979,979,-0.5969016995076262,-0.6,0.0,1.0,371.0,957.0,1.0,0,1672.0,1
980,980,-0.7123693354609001,-0.7,1.0,0.0,420.0,877.0,0.0,0,323.0,1
981,981,-0.278630392620974,-0.3,0.0,1.0,455.0,633.0,1.0,0,232.0,1
982,982,0.7407290004068562,0.7,0.0,0.0,322.0,545.0,0.0,1,193.0,1
983,983,0.014569996799901896,0.0,0.0,0.0,397.0,680.0,0.0,1,1923.0,1
984,984,-0.6833843138859548,-0.7,1.0,0.0,379.0,904.0,0.0,0,167.0,1
985,985,-0.33468596113335924,-0.3,0.0,1.0,313.0,787.0,1.0,0,390.0,1
986,986,0.6837163321320955,0.7,0.0,0.0,388.0,732.0,0.0,1,170.0,1
987,987,-0.6356417886162007,-0.6,0.0,1.0,422.0,767.0,1.0,0,241.0,1
988,988,0.8237922560703158,0.8,0.0,0.0,478.0,534.0,0.0,1,448.0,1
989,989,0.17115089477322798,0.2,1.0,1.0,250.0,681.0,1.0,1,2069.0,1
990,990,0.05152250197763408,0.1,0.0,0.0,387.0,967.0,0.0,1,466.0,1
991,991,0.3302263977048069,0.3,1.0,1.0,397.0,739.0,1.0,1,1774.0,1
992,992,0.6666279445723896,0.7,1.0,1.0,477.0,659.0,1.0,1,114.0,1
993,993,0.2816051474482727,0.3,0.0,0.0,306.0,618.0,0.0,1,346.0,1
994,994,-0.3819499907770224,-0.4,1.0,0.0,336.0,822.0,0.0,0,432.0,1
995,995,-0.31118234030612213,-0.3,0.0,1.0,338.0,827.0,1.0,0,225.0,1
996,996,0.22353851203602015,0.2,0.0,0.0,423.0,855.0,0.0,1,762.0,1
997,997,0.706893599790693,0.7,0.0,0.0,371.0,964.0,0.0,1,125.0,1
998,998,0.6513451094246231,0.7,1.0,1.0,307.0,937.0,1.0,1,156.0,1
999,999,-0.8652624984886277,-0.9,1.0,0.0,497.0,905.0,0.0,0,108.0,1
1000,1000,-0.24100080613411778,-0.2,0.0,1.0,380.0,998.0,1.0,0,532.0,1
1001,1001,-0.09200225819683772,-0.1,1.0,0.0,314.0,722.0,0.0,0,1964.0,1
1002,1002,0.5625128271163476,0.6,0.0,0.0,315.0,964.0,0.0,1,121.0,1
1003,1003,-0.6654939977269957,-0.7,0.0,1.0,357.0,828.0,1.0,0,235.0,1
1004,1004,-0.3385540376403935,-0.3,1.0,0.0,286.0,987.0,0.0,0,377.0,1
1005,1005,0.8471767470385895,0.8,0.0,0.0,368.0,533.0,0.0,1,159.0,1
1006,1006,-0.10291161180027952,-0.1,1.0,0.0,350.0,713.0,0.0,0,1937.0,1
1007,1007,0.020709610721561522,0.0,1.0,1.0,461.0,599.0,0.0,0,1940.0,0
1008,1008,0.7587468984129987,0.8,0.0,0.0,279.0,527.0,0.0,1,184.0,1
1009,1009,-0.8294627096683534,-0.8,1.0,0.0,314.0,891.0,0.0,0,205.0,1
1010,1010,0.4381919170530856,0.4,1.0,1.0,293.0,598.0,1.0,1,1009.0,1
1011,1011,-0.4760790418195862,-0.5,1.0,0.0,478.0,898.0,0.0,0,604.0,1
1012,1012,0.38620799639857906,0.4,0.0,0.0,467.0,621.0,0.0,1,292.0,1
1013,1013,-0.2185524030995728,-0.2,1.0,0.0,295.0,916.0,0.0,0,379.0,1
1014,1014,-0.6473608651229004,-0.6,0.0,1.0,496.0,542.0,1.0,0,462.0,1
1015,1015,-0.20189208902065436,-0.2,0.0,1.0,461.0,793.0,1.0,0,1366.0,1
1016,1016,-0.7543138224305417,-0.8,1.0,0.0,336.0,757.0,0.0,0,257.0,1
1017,1017,0.0011876829058790062,0.0,0.0,0.0,442.0,965.0,1.0,0,1593.0,0
1018,1018,0.3756125240820941,0.4,0.0,0.0,358.0,517.0,0.0,1,965.0,1
1019,1019,-0.7100048213235477,-0.7,1.0,0.0,404.0,527.0,0.0,0,379.0,1
1020,1020,-0.8762400259312949,-0.9,0.0,1.0,270.0,902.0,1.0,0,178.0,1
1021,1021,0.1192658239420531,0.1,0.0,0.0,395.0,576.0,0.0,1,259.0,1
1022,1022,-0.6077356734246755,-0.6,1.0,0.0,326.0,659.0,0.0,0,315.0,1
1023,1023,0.19546858126582645,0.2,1.0,1.0,308.0,955.0,1.0,1,1737.0,1
1024,1024,0.26962748009477167,0.3,1.0,1.0,275.0,724.0,1.0,1,2001.0,1
1025,1025,0.45786067539324493,0.5,1.0,1.0,269.0,821.0,1.0,1,430.0,1
1026,1026,0.3569164326901907,0.4,0.0,0.0,284.0,716.0,0.0,1,320.0,1
1027,1027,-0.7669598428684292,-0.8,0.0,1.0,444.0,524.0,1.0,0,382.0,1
1028,1028,0.18432244234956008,0.2,1.0,1.0,489.0,561.0,1.0,1,1420.0,1
1029,1029,-0.1597910172758482,-0.2,0.0,1.0,296.0,976.0,1.0,0,1728.0,1
1030,1030,-0.36098377186243735,-0.4,0.0,1.0,291.0,556.0,1.0,0,1993.0,1
1031,1031,-0.16034641758024148,-0.2,0.0,1.0,381.0,678.0,1.0,0,241.0,1
1032,1032,0.1295631162509122,0.1,0.0,0.0,452.0,883.0,0.0,1,1665.0,1
1033,1033,-0.1403182819643738,-0.1,0.0,1.0,449.0,786.0,1.0,0,1145.0,1
1034,1034,0.08480907375979396,0.1,0.0,0.0,468.0,820.0,0.0,1,1712.0,1
1035,1035,0.2635945431012351,0.3,1.0,1.0,368.0,860.0,1.0,1,142.0,1
1036,1036,-0.180817303584354,-0.2,0.0,1.0,407.0,718.0,1.0,0,1875.0,1
1037,1037,-0.3200331626203621,-0.3,1.0,0.0,417.0,894.0,0.0,0,499.0,1
1038,1038,-0.23565482784832614,-0.2,0.0,1.0,255.0,836.0,1.0,0,1909.0,1
1039,1039,-0.3373032742346461,-0.3,0.0,1.0,389.0,863.0,1.0,0,328.0,1
1040,1040,-0.33931960913152814,-0.3,1.0,0.0,312.0,561.0,0.0,0,407.0,1
1041,1041,-0.4547217162428744,-0.5,1.0,0.0,374.0,539.0,0.0,0,357.0,1
1042,1042,0.3429990093807521,0.3,1.0,1.0,266.0,764.0,1.0,1,980.0,1
1043,1043,-0.05336365475785099,-0.1,0.0,1.0,329.0,557.0,1.0,0,944.0,1
1044,1044,-0.3275011544572406,-0.3,0.0,1.0,346.0,942.0,1.0,0,1712.0,1
1045,1045,-0.5502688599756898,-0.6,1.0,0.0,424.0,811.0,0.0,0,295.0,1
1046,1046,0.8481281002508753,0.8,0.0,0.0,274.0,736.0,0.0,1,110.0,1
1047,1047,-0.4892893023223807,-0.5,0.0,1.0,493.0,738.0,1.0,0,279.0,1
1048,1048,-0.6552614046719734,-0.7,1.0,0.0,378.0,895.0,0.0,0,-133.0,1
1049,1049,-0.8812716672977385,-0.9,0.0,1.0,399.0,596.0,1.0,0,175.0,1
1050,1050,-0.3305210175927651,-0.3,1.0,0.0,400.0,977.0,0.0,0,233.0,1
1051,1051,-0.8317833606319127,-0.8,1.0,0.0,407.0,509.0,0.0,0,194.0,1
1052,1052,-0.17651369537112516,-0.2,1.0,0.0,475.0,643.0,0.0,0,1742.0,1
1053,1053,0.6462937480415448,0.6,0.0,0.0,266.0,904.0,0.0,1,130.0,1
1054,1054,-0.7276767328767251,-0.7,1.0,0.0,475.0,618.0,0.0,0,227.0,1
1055,1055,-0.44630179070456416,-0.4,1.0,0.0,336.0,815.0,0.0,0,339.0,1
1056,1056,0.4000111180087301,0.4,0.0,0.0,391.0,759.0,0.0,1,240.0,1
1057,1057,-0.1760358547435099,-0.2,1.0,0.0,389.0,709.0,0.0,0,622.0,1
1058,1058,0.20088296631959313,0.2,0.0,0.0,355.0,855.0,0.0,1,1090.0,1
1059,1059,0.775690274610436,0.8,1.0,1.0,327.0,699.0,1.0,1,414.0,1
1060,1060,0.19615371769483192,0.2,0.0,0.0,425.0,859.0,0.0,1,1716.0,1
1061,1061,0.698172237101322,0.7,0.0,0.0,448.0,570.0,0.0,1,192.0,1
1062,1062,0.05553973151394331,0.1,0.0,0.0,334.0,518.0,0.0,1,2148.0,1
1063,1063,0.8456611149656609,0.8,1.0,1.0,440.0,844.0,1.0,1,146.0,1
1064,1064,0.45789262192148816,0.5,1.0,1.0,295.0,630.0,1.0,1,875.0,1
1065,1065,-0.4918869779318965,-0.5,0.0,1.0,316.0,781.0,1.0,0,483.0,1
1066,1066,0.5684385662469008,0.6,0.0,0.0,338.0,920.0,0.0,1,202.0,1
1067,1067,-0.34420403893284945,-0.3,1.0,0.0,258.0,794.0,0.0,0,228.0,1
1068,1068,0.32772518225463154,0.3,1.0,1.0,339.0,522.0,1.0,1,2139.0,1
1069,1069,0.07742401401097398,0.1,0.0,0.0,286.0,504.0,0.0,1,1660.0,1
1070,1070,-0.7163677333130525,-0.7,0.0,1.0,475.0,574.0,1.0,0,431.0,1
1071,1071,0.6061220884647868,0.6,0.0,0.0,348.0,959.0,0.0,1,153.0,1
1072,1072,-0.15838711901054103,-0.2,1.0,0.0,371.0,902.0,0.0,0,167.0,1
1073,1073,0.19435331158334612,0.2,1.0,1.0,308.0,821.0,1.0,1,761.0,1
1074,1074,-0.32540860811831784,-0.3,1.0,0.0,454.0,955.0,0.0,0,291.0,1
1075,1075,-0.6739685680279057,-0.7,0.0,1.0,365.0,863.0,1.0,0,282.0,1
1076,1076,-0.3061785838320258,-0.3,1.0,0.0,458.0,930.0,0.0,0,732.0,1
1077,1077,-0.3514475519677751,-0.4,0.0,1.0,311.0,964.0,1.0,0,255.0,1
1078,1078,-0.15827443762973858,-0.2,0.0,1.0,395.0,646.0,1.0,0,1959.0,1
1079,1079,-0.14705637043834419,-0.1,1.0,0.0,329.0,792.0,0.0,0,1279.0,1
1080,1080,0.8535425689164561,0.9,0.0,0.0,262.0,796.0,0.0,1,162.0,1
1081,1081,-0.3640712634981066,-0.4,0.0,1.0,273.0,906.0,1.0,0,81.0,1
1082,1082,-0.6969880473413053,-0.7,0.0,1.0,279.0,592.0,1.0,0,679.0,1
1083,1083,-0.5049740313909976,-0.5,0.0,1.0,344.0,880.0,1.0,0,436.0,1
1084,1084,0.2687730836053598,0.3,1.0,1.0,301.0,557.0,1.0,1,1702.0,1
1085,1085,-0.8317407450801395,-0.8,0.0,1.0,444.0,834.0,1.0,0,272.0,1
1086,1086,0.18028764260503338,0.2,0.0,0.0,464.0,761.0,0.0,1,335.0,1
1087,1087,0.22807536356025582,0.2,1.0,1.0,358.0,742.0,1.0,1,1430.0,1
1088,1088,0.4867523327815718,0.5,1.0,1.0,267.0,678.0,1.0,1,1905.0,1
1089,1089,0.15028627381339488,0.2,0.0,0.0,398.0,663.0,0.0,1,1449.0,1
1090,1090,-0.3227641794353695,-0.3,0.0,1.0,428.0,719.0,1.0,0,413.0,1
1091,1091,0.8896190695562348,0.9,1.0,1.0,319.0,758.0,1.0,1,193.0,1
1092,1092,-0.41611749713761575,-0.4,0.0,1.0,287.0,644.0,1.0,0,369.0,1
1093,1093,-0.11375561104745768,-0.1,0.0,1.0,394.0,883.0,1.0,0,1723.0,1
1094,1094,-0.8780298443051742,-0.9,0.0,1.0,393.0,500.0,1.0,0,427.0,1
1095,1095,-0.2899453762173293,-0.3,0.0,1.0,341.0,674.0,1.0,0,695.0,1
1096,1096,0.16352424237263585,0.2,0.0,0.0,477.0,602.0,0.0,1,961.0,1
1097,1097,-0.11124307557359714,-0.1,0.0,1.0,278.0,802.0,1.0,0,630.0,1
1098,1098,-0.7212732277487433,-0.7,0.0,1.0,275.0,847.0,1.0,0,318.0,1
1099,1099,-0.7150067670939183,-0.7,1.0,0.0,452.0,915.0,0.0,0,153.0,1
1100,1100,-0.08399643320691663,-0.1,1.0,0.0,455.0,600.0,0.0,0,1055.0,1
1101,1101,-0.6765220471736526,-0.7,1.0,0.0,305.0,542.0,0.0,0,103.0,1
1102,1102,-0.7984013213820067,-0.8,0.0,1.0,293.0,813.0,1.0,0,324.0,1
1103,1103,0.7185001490135879,0.7,0.0,0.0,478.0,976.0,0.0,1,226.0,1
1104,1104,-0.32251355375072865,-0.3,1.0,0.0,365.0,528.0,0.0,0,1577.0,1
1105,1105,-0.11473441175207333,-0.1,0.0,1.0,276.0,833.0,1.0,0,1831.0,1
1106,1106,0.20939013885975777,0.2,1.0,1.0,344.0,500.0,1.0,1,1806.0,1
1107,1107,0.2719363056087821,0.3,0.0,0.0,368.0,762.0,0.0,1,530.0,1
1108,1108,0.5052033328702642,0.5,1.0,1.0,288.0,505.0,1.0,1,317.0,1
1109,1109,-0.07371069700435173,-0.1,0.0,1.0,354.0,801.0,1.0,0,1845.0,1
1110,1110,-0.8052551910507418,-0.8,0.0,1.0,309.0,929.0,1.0,0,182.0,1
1111,1111,-0.38980117239884315,-0.4,0.0,1.0,296.0,737.0,1.0,0,907.0,1
1112,1112,-0.5025046954463253,-0.5,1.0,0.0,272.0,748.0,0.0,0,130.0,1
1113,1113,-0.7718878349934178,-0.8,1.0,0.0,388.0,625.0,0.0,0,197.0,1
1114,1114,-0.6503761162687121,-0.7,1.0,0.0,476.0,812.0,0.0,0,402.0,1
1115,1115,0.09452849947355413,0.1,1.0,1.0,254.0,764.0,1.0,1,1342.0,1
1116,1116,0.4850677685523749,0.5,1.0,1.0,255.0,660.0,1.0,1,475.0,1
1117,1117,0.4003060332356344,0.4,1.0,1.0,262.0,815.0,1.0,1,933.0,1
1118,1118,0.6162805437086539,0.6,1.0,1.0,457.0,532.0,1.0,1,421.0,1
1119,1119,-0.3315468787800515,-0.3,0.0,1.0,353.0,863.0,1.0,0,394.0,1
1120,1120,-0.14924453325660736,-0.1,0.0,1.0,425.0,919.0,1.0,0,596.0,1
1121,1121,0.3078559896076495,0.3,1.0,1.0,359.0,566.0,1.0,1,1185.0,1
1122,1122,0.44608212763570576,0.4,0.0,0.0,427.0,857.0,0.0,1,386.0,1
1123,1123,0.7125674593458574,0.7,1.0,1.0,336.0,707.0,1.0,1,227.0,1
1124,1124,-0.3705395707947099,-0.4,1.0,0.0,472.0,888.0,0.0,0,590.0,1
1125,1125,-0.7087910483934184,-0.7,1.0,0.0,379.0,961.0,0.0,0,200.0,1
1126,1126,-0.2856465877273102,-0.3,0.0,1.0,358.0,885.0,1.0,0,1037.0,1
1127,1127,0.08500409785795648,0.1,1.0,1.0,439.0,869.0,1.0,1,1692.0,1
1128,1128,0.052450270724085035,0.1,0.0,0.0,496.0,511.0,1.0,0,1993.0,0
1129,1129,-0.4528986726532827,-0.5,1.0,0.0,280.0,869.0,0.0,0,251.0,1
1130,1130,0.8092200440785108,0.8,1.0,1.0,411.0,841.0,1.0,1,528.0,1
1131,1131,-0.02983979548018334,-0.0,1.0,0.0,398.0,731.0,1.0,1,1871.0,0
1132,1132,-0.522426686934613,-0.5,0.0,1.0,448.0,510.0,1.0,0,1492.0,1
1133,1133,-0.7244809774158487,-0.7,0.0,1.0,349.0,725.0,1.0,0,76.0,1
1134,1134,-0.8793893223678529,-0.9,0.0,1.0,340.0,955.0,1.0,0,205.0,1
1135,1135,-0.5473903506957986,-0.5,0.0,1.0,389.0,563.0,1.0,0,518.0,1
1136,1136,0.1854780636863359,0.2,0.0,0.0,420.0,842.0,0.0,1,538.0,1
1137,1137,-0.24135336279133657,-0.2,1.0,0.0,308.0,971.0,0.0,0,461.0,1
1138,1138,-0.06051694589824008,-0.1,1.0,0.0,348.0,867.0,0.0,0,1745.0,1
1139,1139,0.11627005907867594,0.1,0.0,0.0,295.0,792.0,0.0,1,1913.0,1
1140,1140,-0.39031954629342436,-0.4,1.0,0.0,368.0,690.0,0.0,0,462.0,1
1141,1141,-0.17374449913174672,-0.2,0.0,1.0,335.0,544.0,1.0,0,621.0,1
1142,1142,-0.31409571944144454,-0.3,1.0,0.0,453.0,802.0,0.0,0,385.0,1
1143,1143,0.08636627648416761,0.1,0.0,0.0,414.0,826.0,0.0,1,630.0,1
1144,1144,0.3827672311266027,0.4,1.0,1.0,451.0,782.0,1.0,1,707.0,1
1145,1145,0.12535443647158584,0.1,0.0,0.0,464.0,921.0,0.0,1,685.0,1
1146,1146,0.7577690694101994,0.8,1.0,1.0,254.0,686.0,1.0,1,160.0,1
1147,1147,-0.6468490580791464,-0.6,0.0,1.0,449.0,685.0,1.0,0,696.0,1
1148,1148,-0.8342672216025184,-0.8,1.0,0.0,366.0,693.0,0.0,0,151.0,1
1149,1149,0.15529035347213693,0.2,0.0,0.0,340.0,559.0,0.0,1,1511.0,1
1150,1150,-0.6617980354895969,-0.7,1.0,0.0,310.0,672.0,0.0,0,588.0,1
1151,1151,-0.555186528643535,-0.6,1.0,0.0,252.0,685.0,0.0,0,123.0,1
1152,1152,-0.5699411860123846,-0.6,1.0,0.0,303.0,641.0,0.0,0,376.0,1
1153,1153,0.6180471464749954,0.6,1.0,1.0,378.0,638.0,1.0,1,174.0,1
1154,1154,0.13404702522050405,0.1,0.0,0.0,483.0,532.0,0.0,1,1985.0,1
1155,1155,0.12983294153409453,0.1,0.0,0.0,311.0,909.0,0.0,1,240.0,1
1156,1156,0.045652299730793544,0.0,0.0,0.0,294.0,605.0,0.0,1,2101.0,1
1157,1157,-0.012843301650274364,-0.0,0.0,1.0,424.0,813.0,0.0,1,1763.0,0
1158,1158,-0.3139390065778308,-0.3,0.0,1.0,368.0,870.0,1.0,0,212.0,1
1159,1159,0.200605420805699,0.2,1.0,1.0,441.0,608.0,1.0,1,481.0,1
1160,1160,0.25594507240797226,0.3,1.0,1.0,413.0,672.0,1.0,1,945.0,1
1161,1161,0.1679483389252966,0.2,1.0,1.0,436.0,555.0,1.0,1,2009.0,1
1162,1162,-0.4764274310347975,-0.5,1.0,0.0,483.0,520.0,0.0,0,267.0,1
1163,1163,0.6935571666501871,0.7,0.0,0.0,271.0,748.0,0.0,1,161.0,1
1164,1164,0.8885143661035703,0.9,0.0,0.0,271.0,907.0,0.0,1,142.0,1
1165,1165,0.841008777577091,0.8,1.0,1.0,371.0,958.0,1.0,1,381.0,1
1166,1166,-0.5464807973476313,-0.5,1.0,0.0,363.0,870.0,0.0,0,217.0,1
1167,1167,0.5801842467468642,0.6,1.0,1.0,486.0,576.0,1.0,1,298.0,1
1168,1168,-0.4247211118785847,-0.4,0.0,1.0,334.0,610.0,1.0,0,286.0,1
1169,1169,-0.7477021841367464,-0.7,1.0,0.0,279.0,638.0,0.0,0,373.0,1
1170,1170,-0.4061553118254626,-0.4,0.0,1.0,372.0,660.0,1.0,0,1328.0,1
1171,1171,0.7966498789795337,0.8,0.0,0.0,285.0,657.0,0.0,1,118.0,1
1172,1172,-0.27699084391284123,-0.3,0.0,1.0,307.0,908.0,1.0,0,1355.0,1
1173,1173,-0.10481647686975093,-0.1,1.0,0.0,447.0,874.0,0.0,0,1679.0,1
1174,1174,-0.21738193461461452,-0.2,1.0,0.0,388.0,686.0,0.0,0,516.0,1
1175,1175,0.4577206720838033,0.5,0.0,0.0,443.0,875.0,0.0,1,132.0,1
1176,1176,0.7219579148405496,0.7,1.0,1.0,253.0,932.0,1.0,1,525.0,1
1177,1177,0.3824377045235875,0.4,1.0,1.0,481.0,936.0,1.0,1,1033.0,1
1178,1178,-0.43006577871130236,-0.4,0.0,1.0,470.0,998.0,1.0,0,822.0,1
1179,1179,-0.12389807635923888,-0.1,0.0,1.0,278.0,726.0,1.0,0,1746.0,1
1180,1180,0.6461020822134623,0.6,0.0,0.0,402.0,789.0,0.0,1,159.0,1
1181,1181,-0.4299843324855573,-0.4,0.0,1.0,261.0,696.0,1.0,0,783.0,1
1182,1182,0.8142808463214307,0.8,1.0,1.0,349.0,870.0,1.0,1,631.0,1
1183,1183,0.40446244725913283,0.4,0.0,0.0,274.0,835.0,0.0,1,471.0,1
1184,1184,-0.01463367206626942,-0.0,0.0,1.0,388.0,513.0,0.0,1,2099.0,0
1185,1185,-0.4517633994228484,-0.5,1.0,0.0,371.0,517.0,0.0,0,422.0,1
1186,1186,-0.5582376194914496,-0.6,1.0,0.0,345.0,907.0,0.0,0,158.0,1
1187,1187,-0.008346465752001264,-0.0,1.0,0.0,400.0,722.0,0.0,0,1878.0,1
1188,1188,-0.8608450028783761,-0.9,1.0,0.0,479.0,676.0,0.0,0,225.0,1
1189,1189,-0.2056874167353394,-0.2,0.0,1.0,467.0,974.0,1.0,0,549.0,1
1190,1190,0.8414723734597972,0.8,1.0,1.0,283.0,998.0,1.0,1,149.0,1
1191,1191,-0.7515400475029465,-0.8,0.0,1.0,278.0,783.0,1.0,0,319.0,1
1192,1192,-0.7300672885285808,-0.7,1.0,0.0,412.0,904.0,0.0,0,264.0,1
1193,1193,-0.17937252070758647,-0.2,0.0,1.0,453.0,673.0,1.0,0,1714.0,1
1194,1194,-0.7494148098283726,-0.7,0.0,1.0,428.0,880.0,1.0,0,162.0,1
1195,1195,0.6156775076796391,0.6,0.0,0.0,447.0,518.0,0.0,1,315.0,1
1196,1196,0.521971441320214,0.5,0.0,0.0,398.0,934.0,0.0,1,178.0,1
1197,1197,0.5688935828157234,0.6,1.0,1.0,419.0,963.0,1.0,1,578.0,1
1198,1198,0.21190982060229657,0.2,1.0,1.0,413.0,887.0,1.0,1,1230.0,1
1199,1199,0.7185024547103728,0.7,0.0,0.0,262.0,553.0,0.0,1,215.0,1
1200,1200,-0.8739768584959791,-0.9,1.0,0.0,353.0,634.0,0.0,0,273.0,1
1201,1201,0.5289611432273239,0.5,0.0,0.0,420.0,542.0,0.0,1,578.0,1
1202,1202,-0.6679137288358267,-0.7,1.0,0.0,425.0,898.0,0.0,0,167.0,1
1203,1203,-0.8396035580213194,-0.8,1.0,0.0,338.0,762.0,0.0,0,190.0,1
1204,1204,0.8471119431015156,0.8,1.0,1.0,285.0,527.0,1.0,1,328.0,1
1205,1205,0.8158604237218688,0.8,0.0,0.0,438.0,732.0,0.0,1,320.0,1
1206,1206,0.859225782614636,0.9,1.0,1.0,461.0,980.0,1.0,1,229.0,1
1207,1207,0.023154506969158883,0.0,1.0,1.0,300.0,965.0,1.0,1,1735.0,1
1208,1208,0.8801807982574136,0.9,1.0,1.0,393.0,775.0,1.0,1,212.0,1
1209,1209,0.09672994094636844,0.1,0.0,0.0,499.0,924.0,0.0,1,1227.0,1
1210,1210,0.8180475753453046,0.8,1.0,1.0,424.0,500.0,1.0,1,306.0,1
1211,1211,-0.3125214668169224,-0.3,0.0,1.0,490.0,933.0,1.0,0,1077.0,1
1212,1212,-0.5997316005782889,-0.6,1.0,0.0,314.0,529.0,0.0,0,97.0,1
1213,1213,0.7637527640059653,0.8,0.0,0.0,414.0,711.0,0.0,1,275.0,1
1214,1214,0.35319190344243523,0.4,0.0,0.0,275.0,797.0,0.0,1,548.0,1
1215,1215,-0.7640308652547696,-0.8,0.0,1.0,499.0,874.0,1.0,0,227.0,1
1216,1216,-0.5255397892662048,-0.5,0.0,1.0,252.0,719.0,1.0,0,479.0,1
1217,1217,0.6513794695449436,0.7,0.0,0.0,299.0,693.0,0.0,1,308.0,1
1218,1218,0.6755281828685399,0.7,0.0,0.0,424.0,505.0,0.0,1,91.0,1
1219,1219,-0.07946621131219977,-0.1,1.0,0.0,461.0,684.0,0.0,0,1855.0,1
1220,1220,0.6664631182628974,0.7,1.0,1.0,361.0,914.0,1.0,1,245.0,1
1221,1221,0.05724173170642699,0.1,1.0,1.0,475.0,715.0,1.0,1,1810.0,1
1222,1222,0.8082567784125855,0.8,0.0,0.0,316.0,517.0,0.0,1,267.0,1
1223,1223,0.5180876016123054,0.5,1.0,1.0,417.0,847.0,1.0,1,286.0,1
1224,1224,-0.18404441291220053,-0.2,1.0,0.0,490.0,523.0,0.0,0,1987.0,1
1225,1225,-0.728463165765628,-0.7,0.0,1.0,303.0,590.0,1.0,0,337.0,1
1226,1226,-0.7956789068872595,-0.8,1.0,0.0,399.0,987.0,0.0,0,94.0,1
1227,1227,0.45578179218852843,0.5,0.0,0.0,254.0,649.0,0.0,1,707.0,1
1228,1228,-0.1670800918471983,-0.2,1.0,0.0,465.0,854.0,0.0,0,1331.0,1
1229,1229,-0.412291741934042,-0.4,0.0,1.0,410.0,914.0,1.0,0,476.0,1
1230,1230,0.6866374787947299,0.7,1.0,1.0,423.0,857.0,1.0,1,160.0,1
1231,1231,-0.7663377544746472,-0.8,0.0,1.0,423.0,859.0,1.0,0,198.0,1
1232,1232,0.20412002569346088,0.2,0.0,0.0,258.0,591.0,0.0,1,1331.0,1
1233,1233,-0.4289298432259625,-0.4,1.0,0.0,250.0,646.0,0.0,0,284.0,1
1234,1234,0.7219237760810978,0.7,0.0,0.0,447.0,861.0,0.0,1,192.0,1
1235,1235,0.6483955331032062,0.6,0.0,0.0,414.0,846.0,0.0,1,140.0,1
1236,1236,0.5399740651172452,0.5,1.0,1.0,443.0,615.0,1.0,1,242.0,1
1237,1237,0.31846585382432135,0.3,0.0,0.0,402.0,614.0,0.0,1,534.0,1
1238,1238,0.8000055258134332,0.8,0.0,0.0,473.0,528.0,0.0,1,149.0,1
1239,1239,-0.2839555360789584,-0.3,0.0,1.0,319.0,669.0,1.0,0,732.0,1
1240,1240,0.15749789300841266,0.2,0.0,0.0,377.0,917.0,0.0,1,1656.0,1
1241,1241,0.811391408890828,0.8,1.0,1.0,403.0,818.0,1.0,1,329.0,1
1242,1242,0.1655327175659015,0.2,1.0,1.0,332.0,972.0,1.0,1,1396.0,1
1243,1243,0.3181443179844953,0.3,1.0,1.0,487.0,749.0,1.0,1,364.0,1
1244,1244,0.7154856757577966,0.7,0.0,0.0,337.0,715.0,0.0,1,118.0,1
1245,1245,-0.7567749817709227,-0.8,1.0,0.0,260.0,859.0,0.0,0,141.0,1
1246,1246,0.16195127916702556,0.2,1.0,1.0,461.0,509.0,1.0,1,2030.0,1
1247,1247,0.6816212358846953,0.7,0.0,0.0,438.0,873.0,0.0,1,279.0,1
1248,1248,0.29320017657285746,0.3,1.0,1.0,497.0,771.0,1.0,1,352.0,1
1249,1249,0.18669948404623515,0.2,1.0,1.0,287.0,784.0,1.0,1,689.0,1
1250,1250,0.8863859589696564,0.9,0.0,0.0,368.0,723.0,0.0,1,229.0,1
1251,1251,0.3062601595938327,0.3,0.0,0.0,478.0,894.0,0.0,1,258.0,1
1252,1252,0.4832331253823793,0.5,0.0,0.0,319.0,667.0,0.0,1,204.0,1
1253,1253,0.10586605617254252,0.1,0.0,0.0,466.0,939.0,0.0,1,1595.0,1
1254,1254,-0.8978383571301787,-0.9,0.0,1.0,499.0,910.0,1.0,0,211.0,1
1255,1255,-0.6158302013998738,-0.6,0.0,1.0,265.0,927.0,1.0,0,148.0,1
1256,1256,-0.7087941819404651,-0.7,0.0,1.0,331.0,911.0,1.0,0,398.0,1
1257,1257,-0.23714793318179705,-0.2,0.0,1.0,328.0,874.0,1.0,0,1548.0,1
1258,1258,-0.287799646605309,-0.3,0.0,1.0,322.0,815.0,1.0,0,603.0,1
1259,1259,0.4514186512738648,0.5,1.0,1.0,273.0,983.0,1.0,1,214.0,1
1260,1260,-0.6496087425899204,-0.6,0.0,1.0,417.0,740.0,1.0,0,233.0,1
1261,1261,-0.03155828410754702,-0.0,0.0,1.0,444.0,957.0,1.0,0,1599.0,1
1262,1262,0.28042422131211275,0.3,1.0,1.0,276.0,798.0,1.0,1,1926.0,1
1263,1263,0.126974080717975,0.1,0.0,0.0,482.0,619.0,0.0,1,599.0,1
1264,1264,0.37572719661232534,0.4,0.0,0.0,331.0,914.0,0.0,1,345.0,1
1265,1265,-0.7537262314061532,-0.8,0.0,1.0,292.0,503.0,1.0,0,715.0,1
1266,1266,0.02874691446225064,0.0,1.0,1.0,384.0,604.0,1.0,1,2012.0,1
1267,1267,-0.10689661045320809,-0.1,0.0,1.0,460.0,861.0,0.0,1,1679.0,0
1268,1268,-0.7236572269367694,-0.7,0.0,1.0,468.0,609.0,1.0,0,213.0,1
1269,1269,0.6992833551806917,0.7,1.0,1.0,332.0,922.0,1.0,1,246.0,1
1270,1270,-0.7577165663124692,-0.8,1.0,0.0,337.0,868.0,0.0,0,155.0,1
1271,1271,0.5195990823674396,0.5,1.0,1.0,452.0,814.0,1.0,1,294.0,1
1272,1272,-0.5220995806710845,-0.5,0.0,1.0,314.0,675.0,1.0,0,971.0,1
1273,1273,0.23889738173329256,0.2,1.0,1.0,433.0,752.0,1.0,1,655.0,1
1274,1274,-0.43026100839499987,-0.4,0.0,1.0,260.0,999.0,1.0,0,301.0,1
1275,1275,-0.821827585030136,-0.8,0.0,1.0,466.0,691.0,1.0,0,573.0,1
1276,1276,-0.5806267830080063,-0.6,0.0,1.0,352.0,972.0,1.0,0,-14.0,1
1277,1277,0.34776596630081424,0.3,0.0,0.0,310.0,589.0,0.0,1,711.0,1
1278,1278,0.3568795684719809,0.4,1.0,1.0,377.0,721.0,1.0,1,612.0,1
1279,1279,-0.8489084372456636,-0.8,0.0,1.0,350.0,541.0,1.0,0,439.0,1
1280,1280,-0.19019177517608288,-0.2,1.0,0.0,363.0,707.0,0.0,0,980.0,1
1281,1281,0.23282088077342566,0.2,0.0,0.0,360.0,855.0,0.0,1,915.0,1
1282,1282,0.40273974023426395,0.4,0.0,0.0,302.0,673.0,0.0,1,595.0,1
1283,1283,-0.5023195873164417,-0.5,0.0,1.0,463.0,876.0,1.0,0,391.0,1
1284,1284,-0.8866667776335277,-0.9,1.0,0.0,492.0,630.0,0.0,0,218.0,1
1285,1285,0.37832010612047895,0.4,0.0,0.0,464.0,591.0,0.0,1,715.0,1
1286,1286,0.25296945148170635,0.3,0.0,0.0,455.0,520.0,0.0,1,225.0,1
1287,1287,-0.64697280237731,-0.6,1.0,0.0,287.0,566.0,0.0,0,117.0,1
1288,1288,-0.14962273717068464,-0.1,1.0,0.0,433.0,909.0,0.0,0,1658.0,1
1289,1289,0.4374215537770797,0.4,0.0,0.0,458.0,504.0,0.0,1,248.0,1
1290,1290,-0.400408147486328,-0.4,0.0,1.0,369.0,984.0,1.0,0,297.0,1
1291,1291,-0.45189030740277364,-0.5,0.0,1.0,270.0,674.0,1.0,0,806.0,1
1292,1292,0.6023593283314822,0.6,0.0,0.0,395.0,834.0,0.0,1,131.0,1
1293,1293,0.4582290423132146,0.5,1.0,1.0,392.0,612.0,1.0,1,586.0,1
1294,1294,0.30573667728311416,0.3,1.0,1.0,271.0,715.0,1.0,1,1374.0,1
1295,1295,0.6013228334085196,0.6,1.0,1.0,476.0,861.0,1.0,1,403.0,1
1296,1296,0.7401032931020713,0.7,0.0,0.0,299.0,833.0,0.0,1,168.0,1
1297,1297,-0.6738057914209767,-0.7,0.0,1.0,317.0,620.0,1.0,0,203.0,1
1298,1298,-0.4475740565831129,-0.4,0.0,1.0,447.0,784.0,1.0,0,369.0,1
1299,1299,0.1608270075067263,0.2,1.0,1.0,307.0,657.0,1.0,1,1136.0,1
1300,1300,0.66665204669467,0.7,0.0,0.0,404.0,995.0,0.0,1,141.0,1
1301,1301,0.3200835504982157,0.3,1.0,1.0,446.0,564.0,1.0,1,860.0,1
1302,1302,-0.7717133490512036,-0.8,0.0,1.0,401.0,989.0,1.0,0,160.0,1
1303,1303,-0.6924633388128892,-0.7,0.0,1.0,490.0,702.0,1.0,0,308.0,1
1304,1304,-0.02571097276070833,-0.0,1.0,0.0,480.0,612.0,0.0,0,1908.0,1
1305,1305,-0.00467289895469436,-0.0,1.0,0.0,442.0,665.0,0.0,0,1893.0,1
1306,1306,-0.41533322717785504,-0.4,1.0,0.0,324.0,637.0,0.0,0,479.0,1
1307,1307,0.7831025309195158,0.8,0.0,0.0,468.0,986.0,0.0,1,136.0,1
1308,1308,0.1288187897273826,0.1,0.0,0.0,325.0,532.0,0.0,1,1013.0,1
1309,1309,0.5878350306228565,0.6,1.0,1.0,488.0,850.0,1.0,1,572.0,1
1310,1310,0.14221789750178215,0.1,1.0,1.0,302.0,574.0,1.0,1,2124.0,1
1311,1311,-0.511352931770056,-0.5,1.0,0.0,478.0,646.0,0.0,0,356.0,1
1312,1312,-0.06058424475368074,-0.1,0.0,1.0,464.0,957.0,0.0,1,1579.0,0
1313,1313,-0.45628995219341795,-0.5,1.0,0.0,341.0,700.0,0.0,0,529.0,1
1314,1314,-0.2850711418536719,-0.3,0.0,1.0,355.0,530.0,1.0,0,665.0,1
1315,1315,-0.5077995605905412,-0.5,0.0,1.0,357.0,593.0,1.0,0,320.0,1
1316,1316,0.7647795249274333,0.8,1.0,1.0,280.0,913.0,1.0,1,247.0,1
1317,1317,0.22025729019759532,0.2,0.0,0.0,373.0,512.0,0.0,1,1565.0,1
1318,1318,-0.14899793267849049,-0.1,0.0,1.0,479.0,677.0,1.0,0,304.0,1
1319,1319,-0.27452575625660525,-0.3,1.0,0.0,379.0,850.0,0.0,0,1771.0,1
1320,1320,-0.5024661165497463,-0.5,0.0,1.0,493.0,798.0,1.0,0,329.0,1
1321,1321,-0.8974933859440365,-0.9,1.0,0.0,288.0,795.0,0.0,0,87.0,1
1322,1322,-0.8877368633007761,-0.9,0.0,1.0,429.0,823.0,1.0,0,258.0,1
1323,1323,0.6787720852819906,0.7,1.0,1.0,310.0,786.0,1.0,1,364.0,1
1324,1324,0.7267555183649562,0.7,1.0,1.0,462.0,572.0,1.0,1,456.0,1
1325,1325,0.4209339955470611,0.4,0.0,0.0,297.0,679.0,0.0,1,244.0,1
1326,1326,0.39568768957790657,0.4,0.0,0.0,281.0,605.0,0.0,1,264.0,1
1327,1327,0.7511732164902784,0.8,1.0,1.0,336.0,686.0,1.0,1,238.0,1
1328,1328,-0.49131451834608314,-0.5,1.0,0.0,466.0,961.0,0.0,0,103.0,1
1329,1329,0.8471093130279327,0.8,1.0,1.0,261.0,772.0,1.0,1,297.0,1
1330,1330,-0.17067368016958862,-0.2,0.0,1.0,279.0,902.0,1.0,0,1819.0,1
1331,1331,0.19341794432726,0.2,0.0,0.0,434.0,529.0,0.0,1,87.0,1
1332,1332,0.42103450664190245,0.4,0.0,0.0,330.0,515.0,0.0,1,335.0,1
1333,1333,-0.7845669112014688,-0.8,0.0,1.0,358.0,969.0,1.0,0,123.0,1
1334,1334,0.32417589504723787,0.3,0.0,0.0,469.0,502.0,0.0,1,749.0,1
1335,1335,0.6890997907663879,0.7,0.0,0.0,495.0,748.0,0.0,1,157.0,1
1336,1336,0.08914002064636428,0.1,0.0,0.0,267.0,841.0,0.0,1,1892.0,1
1337,1337,-0.35011517950520377,-0.4,1.0,0.0,350.0,993.0,0.0,0,177.0,1
1338,1338,-0.05489215994045615,-0.1,1.0,0.0,411.0,555.0,0.0,0,2034.0,1
1339,1339,-0.4956212000101957,-0.5,0.0,1.0,357.0,544.0,1.0,0,369.0,1
1340,1340,0.7659859287665763,0.8,0.0,0.0,375.0,688.0,0.0,1,207.0,1
1341,1341,-0.16569356709094318,-0.2,0.0,1.0,387.0,822.0,1.0,0,1051.0,1
1342,1342,0.6602251822094595,0.7,0.0,0.0,418.0,849.0,0.0,1,193.0,1
1343,1343,-0.5869824491334859,-0.6,0.0,1.0,494.0,776.0,1.0,0,200.0,1
1344,1344,-0.25415362086203397,-0.3,1.0,0.0,448.0,901.0,0.0,0,131.0,1
1345,1345,0.28053621646145455,0.3,1.0,1.0,255.0,594.0,1.0,1,501.0,1
1346,1346,-0.07372607585708124,-0.1,1.0,0.0,324.0,758.0,1.0,1,1918.0,0
1347,1347,-0.18023174622686533,-0.2,1.0,0.0,477.0,925.0,0.0,0,418.0,1
1348,1348,0.85678662550966,0.9,0.0,0.0,471.0,849.0,0.0,1,160.0,1
1349,1349,0.3400434504380808,0.3,1.0,1.0,438.0,561.0,1.0,1,431.0,1
1350,1350,-0.1893973268228042,-0.2,1.0,0.0,405.0,839.0,0.0,0,1496.0,1
1351,1351,-0.19254166072634282,-0.2,1.0,0.0,423.0,959.0,0.0,0,1618.0,1
1352,1352,0.0527821887461698,0.1,0.0,0.0,328.0,975.0,0.0,1,-193.0,1
1353,1353,0.5117828339526939,0.5,1.0,1.0,254.0,811.0,1.0,1,355.0,1
1354,1354,0.8923644542370773,0.9,1.0,1.0,257.0,751.0,1.0,1,592.0,1
1355,1355,-0.15045339324521423,-0.2,1.0,0.0,296.0,874.0,0.0,0,1830.0,1
1356,1356,0.56881831742216,0.6,0.0,0.0,258.0,653.0,0.0,1,319.0,1
1357,1357,-0.303381678284794,-0.3,1.0,0.0,471.0,635.0,0.0,0,474.0,1
1358,1358,-0.4408685655722949,-0.4,0.0,1.0,273.0,532.0,1.0,0,425.0,1
1359,1359,-0.3184353328910151,-0.3,1.0,0.0,346.0,618.0,0.0,0,286.0,1
1360,1360,-0.8988591528909115,-0.9,0.0,1.0,433.0,821.0,1.0,0,886.0,1
1361,1361,-0.42289255361144457,-0.4,0.0,1.0,281.0,548.0,1.0,0,241.0,1
1362,1362,0.8595345273635923,0.9,1.0,1.0,277.0,511.0,1.0,1,282.0,1
1363,1363,-0.7809133658156504,-0.8,1.0,0.0,410.0,963.0,0.0,0,247.0,1
1364,1364,-0.5540500571815195,-0.6,0.0,1.0,315.0,843.0,1.0,0,702.0,1
1365,1365,0.37229864654321065,0.4,1.0,1.0,476.0,552.0,1.0,1,712.0,1
1366,1366,-0.46784401305093515,-0.5,1.0,0.0,432.0,845.0,0.0,0,503.0,1
1367,1367,-0.7505371647794555,-0.8,0.0,1.0,338.0,593.0,1.0,0,269.0,1
1368,1368,0.8951860924076639,0.9,0.0,0.0,352.0,597.0,0.0,1,151.0,1
1369,1369,0.0999506264211818,0.1,1.0,1.0,297.0,911.0,1.0,1,1792.0,1
1370,1370,-0.4375393112283332,-0.4,1.0,0.0,440.0,980.0,0.0,0,330.0,1
1371,1371,-0.7792922811582931,-0.8,0.0,1.0,483.0,926.0,1.0,0,131.0,1
1372,1372,-0.6016410585074239,-0.6,1.0,0.0,358.0,940.0,0.0,0,232.0,1
1373,1373,0.4007962217607016,0.4,1.0,1.0,328.0,645.0,1.0,1,557.0,1
1374,1374,-0.6538282578874086,-0.7,0.0,1.0,484.0,730.0,1.0,0,936.0,1
1375,1375,0.43654327701049433,0.4,0.0,0.0,296.0,754.0,0.0,1,210.0,1
1376,1376,-0.6323757016675631,-0.6,0.0,1.0,277.0,790.0,1.0,0,513.0,1
1377,1377,-0.07812815122090899,-0.1,0.0,1.0,351.0,833.0,1.0,0,906.0,1
1378,1378,-0.7596916281876951,-0.8,1.0,0.0,365.0,592.0,0.0,0,373.0,1
1379,1379,0.6985634134977693,0.7,1.0,1.0,477.0,804.0,1.0,1,409.0,1
1380,1380,-0.33225844739264454,-0.3,0.0,1.0,306.0,835.0,1.0,0,289.0,1
1381,1381,-0.1258550047207102,-0.1,0.0,1.0,420.0,960.0,1.0,0,1360.0,1
1382,1382,0.10661775090909253,0.1,0.0,0.0,399.0,806.0,0.0,1,945.0,1
1383,1383,0.5707852369797505,0.6,1.0,1.0,315.0,865.0,1.0,1,330.0,1
1384,1384,0.22562815944880799,0.2,1.0,1.0,448.0,530.0,1.0,1,1262.0,1
1385,1385,0.5570969222922976,0.6,1.0,1.0,271.0,746.0,1.0,1,233.0,1
1386,1386,0.06238377627807268,0.1,0.0,0.0,445.0,630.0,0.0,1,1925.0,1
1387,1387,-0.47325727292410863,-0.5,1.0,0.0,288.0,563.0,0.0,0,299.0,1
1388,1388,0.47198258379983626,0.5,0.0,0.0,367.0,626.0,0.0,1,177.0,1
1389,1389,0.3396864264527354,0.3,1.0,1.0,474.0,685.0,1.0,1,291.0,1
1390,1390,-0.5921373796816087,-0.6,1.0,0.0,448.0,989.0,0.0,0,303.0,1
1391,1391,0.5712723414397075,0.6,0.0,0.0,353.0,841.0,0.0,1,176.0,1
1392,1392,-0.519743435732086,-0.5,1.0,0.0,477.0,676.0,0.0,0,187.0,1
1393,1393,-0.04855838024746373,-0.0,0.0,1.0,389.0,661.0,1.0,0,1950.0,1
1394,1394,0.6685563405664542,0.7,1.0,1.0,359.0,911.0,1.0,1,140.0,1
1395,1395,-0.6536503127588152,-0.7,1.0,0.0,428.0,709.0,0.0,0,163.0,1
1396,1396,0.31866386040284145,0.3,0.0,0.0,260.0,834.0,0.0,1,536.0,1
1397,1397,0.6260093039031723,0.6,0.0,0.0,472.0,883.0,0.0,1,235.0,1
1398,1398,-0.49397791077490366,-0.5,0.0,1.0,268.0,587.0,1.0,0,755.0,1
1399,1399,0.5535352018481247,0.6,1.0,1.0,293.0,651.0,1.0,1,396.0,1
1400,1400,0.18579131397898363,0.2,0.0,0.0,297.0,536.0,0.0,1,787.0,1
1401,1401,0.7529882777643596,0.8,1.0,1.0,339.0,654.0,1.0,1,497.0,1
1402,1402,0.543655968081927,0.5,0.0,0.0,308.0,818.0,0.0,1,334.0,1
1403,1403,-0.691169741251494,-0.7,1.0,0.0,304.0,831.0,0.0,0,105.0,1
1404,1404,-0.8718232181443077,-0.9,1.0,0.0,379.0,852.0,0.0,0,179.0,1
1405,1405,-0.7098943685973869,-0.7,1.0,0.0,310.0,646.0,0.0,0,184.0,1
1406,1406,0.5358385981147146,0.5,1.0,1.0,349.0,949.0,1.0,1,242.0,1
1407,1407,0.7527623436190382,0.8,1.0,1.0,397.0,753.0,1.0,1,250.0,1
1408,1408,-0.15608431580032567,-0.2,0.0,1.0,309.0,646.0,1.0,0,1575.0,1
1409,1409,-0.2240210182835325,-0.2,1.0,0.0,276.0,673.0,0.0,0,2051.0,1
1410,1410,0.34228243851834195,0.3,0.0,0.0,283.0,926.0,0.0,1,571.0,1
1411,1411,-0.0452490291215073,-0.0,1.0,0.0,393.0,991.0,0.0,0,1616.0,1
1412,1412,-0.03888970686333504,-0.0,0.0,1.0,299.0,968.0,0.0,1,1733.0,0
1413,1413,-0.11724141529724807,-0.1,1.0,0.0,385.0,979.0,0.0,0,946.0,1
1414,1414,0.5233494021514021,0.5,0.0,0.0,344.0,624.0,0.0,1,132.0,1
1415,1415,-0.6188602555639868,-0.6,0.0,1.0,389.0,980.0,1.0,0,131.0,1
1416,1416,-0.36143090599288696,-0.4,0.0,1.0,361.0,651.0,1.0,0,268.0,1
1417,1417,-0.3211622475232546,-0.3,0.0,1.0,469.0,985.0,1.0,0,666.0,1
1418,1418,0.5346087590244125,0.5,0.0,0.0,278.0,707.0,0.0,1,165.0,1
1419,1419,0.5920383765710585,0.6,1.0,1.0,292.0,960.0,1.0,1,328.0,1
1420,1420,0.1393483458094521,0.1,0.0,0.0,490.0,846.0,0.0,1,1664.0,1
1421,1421,-0.10398019798714764,-0.1,0.0,1.0,268.0,701.0,1.0,0,2031.0,1
1422,1422,0.5250320980148063,0.5,0.0,0.0,417.0,726.0,0.0,1,57.0,1
1423,1423,0.6954526028038067,0.7,0.0,0.0,403.0,519.0,0.0,1,208.0,1
1424,1424,-0.008105675583699568,-0.0,1.0,0.0,293.0,754.0,1.0,1,1953.0,0
1425,1425,0.32376285037786035,0.3,1.0,1.0,356.0,801.0,1.0,1,1093.0,1
1426,1426,0.4452351526336872,0.4,0.0,0.0,414.0,873.0,0.0,1,183.0,1
1427,1427,0.0008628816283933194,0.0,0.0,0.0,255.0,752.0,1.0,0,1993.0,0
1428,1428,-0.6905008732373037,-0.7,0.0,1.0,382.0,637.0,1.0,0,281.0,1
1429,1429,-0.42610209831604884,-0.4,0.0,1.0,308.0,929.0,1.0,0,413.0,1
1430,1430,-0.09455535943059701,-0.1,1.0,0.0,251.0,562.0,0.0,0,2187.0,1
1431,1431,-0.49288778600506045,-0.5,1.0,0.0,280.0,640.0,0.0,0,130.0,1
1432,1432,-0.3371939856320707,-0.3,1.0,0.0,281.0,747.0,0.0,0,512.0,1
1433,1433,-0.4679391351835654,-0.5,0.0,1.0,406.0,810.0,1.0,0,284.0,1
1434,1434,0.6455516943386209,0.6,1.0,1.0,405.0,563.0,1.0,1,202.0,1
1435,1435,0.7416113883186145,0.7,1.0,1.0,365.0,817.0,1.0,1,148.0,1
1436,1436,-0.7637603440833222,-0.8,1.0,0.0,270.0,812.0,0.0,0,218.0,1
1437,1437,-0.0008866468712054321,-0.0,1.0,0.0,347.0,698.0,0.0,0,1955.0,1
1438,1438,0.6077011200920354,0.6,0.0,0.0,462.0,745.0,0.0,1,233.0,1
1439,1439,0.13293862520768818,0.1,1.0,1.0,360.0,694.0,1.0,1,1946.0,1
1440,1440,0.8325424912538547,0.8,1.0,1.0,308.0,764.0,1.0,1,188.0,1
1441,1441,0.5360067871169573,0.5,1.0,1.0,418.0,909.0,1.0,1,263.0,1
1442,1442,-0.48359700322455673,-0.5,0.0,1.0,335.0,974.0,1.0,0,741.0,1
1443,1443,-0.6961326866386659,-0.7,1.0,0.0,256.0,815.0,0.0,0,329.0,1
1444,1444,-0.2646299677883669,-0.3,1.0,0.0,384.0,901.0,0.0,0,545.0,1
1445,1445,0.4250767598228188,0.4,1.0,1.0,392.0,806.0,1.0,1,502.0,1
1446,1446,-0.7289693321644836,-0.7,0.0,1.0,325.0,997.0,1.0,0,288.0,1
1447,1447,-0.806327382814663,-0.8,1.0,0.0,374.0,580.0,0.0,0,196.0,1
1448,1448,-0.6089502617944311,-0.6,0.0,1.0,476.0,843.0,1.0,0,161.0,1
1449,1449,0.8097235150550731,0.8,1.0,1.0,323.0,924.0,1.0,1,113.0,1
1450,1450,0.6487069612890562,0.6,1.0,1.0,353.0,594.0,1.0,1,303.0,1
1451,1451,-0.6566924773033445,-0.7,0.0,1.0,351.0,824.0,1.0,0,605.0,1
1452,1452,0.2930741742876185,0.3,0.0,0.0,497.0,640.0,0.0,1,323.0,1
1453,1453,-0.09453699827218398,-0.1,0.0,1.0,356.0,977.0,1.0,0,1667.0,1
1454,1454,0.48931810400816433,0.5,0.0,0.0,305.0,626.0,0.0,1,249.0,1
1455,1455,-0.35371123179494157,-0.4,1.0,0.0,324.0,758.0,0.0,0,268.0,1
1456,1456,0.6153581021596771,0.6,1.0,1.0,457.0,664.0,1.0,1,599.0,1
1457,1457,0.22036309317270908,0.2,1.0,1.0,344.0,862.0,1.0,1,1194.0,1
1458,1458,0.09083582580707106,0.1,0.0,0.0,452.0,890.0,1.0,0,1658.0,0
1459,1459,-0.8238516515163175,-0.8,1.0,0.0,486.0,862.0,0.0,0,182.0,1
1460,1460,0.11852397829146832,0.1,0.0,0.0,323.0,761.0,1.0,0,1916.0,0
1461,1461,0.8081776846749479,0.8,1.0,1.0,364.0,565.0,1.0,1,171.0,1
1462,1462,-0.7545604322516144,-0.8,0.0,1.0,374.0,542.0,1.0,0,284.0,1
1463,1463,-0.8731003828797408,-0.9,0.0,1.0,278.0,522.0,1.0,0,710.0,1
1464,1464,0.692877441478143,0.7,1.0,1.0,457.0,598.0,1.0,1,315.0,1
1465,1465,-0.13650776286623423,-0.1,1.0,0.0,442.0,995.0,0.0,0,893.0,1
1466,1466,0.8800077134927792,0.9,1.0,1.0,432.0,520.0,1.0,1,218.0,1
1467,1467,-0.8662448449443678,-0.9,1.0,0.0,343.0,564.0,0.0,0,113.0,1
1468,1468,0.46699736164547934,0.5,1.0,1.0,316.0,805.0,1.0,1,389.0,1
1469,1469,-0.18641735003419369,-0.2,0.0,1.0,338.0,749.0,1.0,0,623.0,1
1470,1470,0.7708529425946881,0.8,1.0,1.0,317.0,885.0,1.0,1,278.0,1
1471,1471,0.891819940619259,0.9,1.0,1.0,430.0,569.0,1.0,1,171.0,1
1472,1472,-0.03627584040095111,-0.0,1.0,0.0,459.0,514.0,1.0,1,2027.0,0
1473,1473,0.017047900474763344,0.0,1.0,1.0,395.0,682.0,1.0,1,1923.0,1
1474,1474,0.16334009379049086,0.2,0.0,0.0,473.0,602.0,0.0,1,245.0,1
1475,1475,-0.22748695928926432,-0.2,0.0,1.0,353.0,952.0,1.0,0,1365.0,1
1476,1476,-0.086367280235778,-0.1,1.0,0.0,488.0,732.0,0.0,0,1780.0,1
1477,1477,0.7490515409767394,0.7,0.0,0.0,319.0,788.0,0.0,1,193.0,1
1478,1478,-0.7221872108866543,-0.7,1.0,0.0,488.0,854.0,0.0,0,418.0,1
1479,1479,0.537202303732467,0.5,0.0,0.0,477.0,834.0,0.0,1,299.0,1
1480,1480,0.05888887057566927,0.1,0.0,0.0,479.0,650.0,0.0,1,1621.0,1
1481,1481,0.18162412811700823,0.2,1.0,1.0,302.0,577.0,1.0,1,2121.0,1
1482,1482,0.7842421954667514,0.8,0.0,0.0,288.0,536.0,0.0,1,26.0,1
1483,1483,-0.6831707347416259,-0.7,0.0,1.0,435.0,723.0,1.0,0,292.0,1
1484,1484,0.033055918431130094,0.0,1.0,1.0,334.0,542.0,1.0,1,2124.0,1
1485,1485,-0.07940913283995288,-0.1,1.0,0.0,374.0,688.0,0.0,0,348.0,1
1486,1486,-0.47377129281458547,-0.5,0.0,1.0,371.0,559.0,1.0,0,280.0,1
1487,1487,-0.5041940357141016,-0.5,0.0,1.0,352.0,809.0,1.0,0,69.0,1
