,trial,coherence,coherence_bin,green_side,correct_side,target_onset,checker_onset,decision,green_decision,decision_time,correct_decision
0,0,0.5913698397071551,0.6,1.0,1.0,331.0,552.0,0.0,0,4117.0,0
1,1,-0.5569098470065854,-0.6,1.0,0.0,311.0,670.0,0.0,0,4019.0,1
2,2,-0.5642446917908166,-0.6,1.0,0.0,441.0,678.0,0.0,0,3881.0,1
3,3,-0.7354171004030787,-0.7,0.0,1.0,422.0,719.0,0.0,1,3859.0,0
4,4,0.8451161119980525,0.8,1.0,1.0,274.0,761.0,0.0,0,3965.0,0
5,5,0.5690684225642232,0.6,1.0,1.0,298.0,552.0,0.0,0,4150.0,0
6,6,-0.6057861790927063,-0.6,1.0,0.0,340.0,958.0,0.0,0,3702.0,1
7,7,-0.8658842732747042,-0.9,0.0,1.0,397.0,581.0,0.0,1,4022.0,0
8,8,-0.11740169106650611,-0.1,1.0,0.0,409.0,971.0,0.0,0,3620.0,1
9,9,0.3153017933865926,0.3,0.0,0.0,328.0,868.0,0.0,1,3804.0,1
10,10,-0.16111293593196185,-0.2,0.0,1.0,407.0,842.0,0.0,1,3751.0,0
11,11,0.627510343263627,0.6,0.0,0.0,487.0,980.0,0.0,1,3533.0,1
12,12,0.7628149720271115,0.8,1.0,1.0,383.0,663.0,0.0,0,3954.0,0
13,13,-0.3827304757916452,-0.4,1.0,0.0,266.0,866.0,0.0,0,3868.0,1
14,14,-0.7027081619356995,-0.7,0.0,1.0,318.0,833.0,0.0,1,3849.0,0
15,15,-0.08852130200344965,-0.1,0.0,1.0,386.0,812.0,0.0,1,3802.0,0
16,16,-0.8224380393930857,-0.8,0.0,1.0,365.0,933.0,0.0,1,3702.0,0
17,17,-0.5242501550770358,-0.5,0.0,1.0,331.0,573.0,0.0,1,4096.0,0
18,18,0.5444677189142829,0.5,1.0,1.0,360.0,580.0,0.0,0,4060.0,0
19,19,0.5252515935807845,0.5,0.0,0.0,323.0,662.0,0.0,1,4015.0,1
20,20,-0.20183916858509965,-0.2,0.0,1.0,434.0,863.0,0.0,1,3703.0,0
21,21,-0.18480204463491678,-0.2,0.0,1.0,293.0,567.0,0.0,1,4140.0,0
22,22,0.5732096289669969,0.6,0.0,0.0,424.0,889.0,0.0,1,3687.0,1
23,23,0.39709542385752006,0.4,1.0,1.0,407.0,890.0,0.0,0,3703.0,0
24,24,0.14942527749083434,0.1,0.0,0.0,341.0,867.0,0.0,1,3792.0,1
25,25,0.6368993693961488,0.6,0.0,0.0,357.0,674.0,1.0,0,-921.0,0
26,26,-0.8356926442913049,-0.8,1.0,0.0,308.0,807.0,0.0,0,3885.0,1
27,27,0.11742874875917775,0.1,1.0,1.0,377.0,660.0,0.0,0,3963.0,0
28,28,0.04701294245926668,0.0,1.0,1.0,299.0,766.0,0.0,0,3935.0,0
29,29,-0.307797546545412,-0.3,1.0,0.0,329.0,776.0,0.0,0,3895.0,1
30,30,0.46553277389584313,0.5,1.0,1.0,360.0,964.0,0.0,0,3676.0,0
31,31,0.3738016709289881,0.4,1.0,1.0,424.0,770.0,0.0,0,3806.0,0
32,32,0.892106590465248,0.9,0.0,0.0,347.0,550.0,0.0,1,4103.0,1
33,33,0.036573694085133,0.0,1.0,1.0,490.0,514.0,0.0,0,3996.0,0
34,34,0.03133323759480089,0.0,0.0,0.0,397.0,703.0,0.0,1,3900.0,1
35,35,-0.31272677772714563,-0.3,0.0,1.0,365.0,521.0,0.0,1,4114.0,0
36,36,-0.8036175216859911,-0.8,1.0,0.0,261.0,632.0,0.0,0,4107.0,1
37,37,-0.8876178671479604,-0.9,1.0,0.0,401.0,629.0,0.0,0,3970.0,1
38,38,0.3025897868457076,0.3,0.0,0.0,466.0,864.0,0.0,1,3670.0,1
39,39,0.6272686396684118,0.6,0.0,0.0,444.0,940.0,0.0,1,3616.0,1
40,40,0.2277856850909442,0.2,0.0,0.0,352.0,551.0,0.0,1,4097.0,1
41,41,0.6126568093664887,0.6,0.0,0.0,271.0,659.0,0.0,1,4070.0,1
42,42,-0.6446217580093457,-0.6,1.0,0.0,499.0,567.0,0.0,0,3934.0,1
43,43,0.8659875219447876,0.9,0.0,0.0,363.0,781.0,0.0,1,-1074.0,1
44,44,0.8056032044752713,0.8,1.0,1.0,382.0,685.0,0.0,0,3933.0,0
45,45,-0.04055376751729445,-0.0,1.0,0.0,322.0,663.0,0.0,0,4015.0,1
46,46,-0.4732383816342542,-0.5,1.0,0.0,368.0,588.0,0.0,0,4044.0,1
47,47,0.008326170383179954,0.0,0.0,0.0,417.0,928.0,0.0,1,3655.0,1
48,48,-0.5801597123171065,-0.6,1.0,0.0,469.0,566.0,0.0,0,3965.0,1
49,49,-0.38588811853059957,-0.4,1.0,0.0,324.0,912.0,0.0,0,3764.0,1
50,50,0.035538284891318384,0.0,1.0,1.0,278.0,889.0,0.0,0,3833.0,0
51,51,-0.5344124107443233,-0.5,0.0,1.0,407.0,629.0,0.0,1,3964.0,0
52,52,0.1508461019368731,0.2,0.0,0.0,393.0,988.0,0.0,1,3619.0,1
53,53,-0.20560100193557695,-0.2,1.0,0.0,474.0,763.0,0.0,0,3763.0,1
54,54,-0.48345775036405764,-0.5,1.0,0.0,333.0,841.0,0.0,0,3826.0,1
55,55,-0.728559161191413,-0.7,0.0,1.0,375.0,985.0,0.0,1,3640.0,0
56,56,-0.5591165032426973,-0.6,1.0,0.0,396.0,719.0,0.0,0,3885.0,1
57,57,0.2223224397324094,0.2,0.0,0.0,331.0,963.0,1.0,0,-1224.0,0
58,58,-0.3975884480837185,-0.4,1.0,0.0,466.0,676.0,0.0,0,3858.0,1
59,59,-0.05236181208445423,-0.1,0.0,1.0,331.0,895.0,0.0,1,3774.0,0
60,60,0.12493591264371784,0.1,1.0,1.0,330.0,884.0,0.0,0,3786.0,0
61,61,0.6744123171872999,0.7,0.0,0.0,431.0,980.0,0.0,1,3589.0,1
62,62,0.4951781881490013,0.5,1.0,1.0,376.0,513.0,0.0,0,4111.0,0
63,63,0.6526612610401336,0.7,0.0,0.0,400.0,715.0,0.0,1,3885.0,1
64,64,-0.5461182315539823,-0.5,0.0,1.0,344.0,712.0,0.0,1,3944.0,0
65,65,-0.7405484744399411,-0.7,0.0,1.0,457.0,807.0,0.0,1,3736.0,0
66,66,0.06321704151681229,0.1,0.0,0.0,334.0,953.0,0.0,1,3713.0,1
67,67,-0.8549186334575107,-0.9,0.0,1.0,262.0,628.0,0.0,1,4110.0,0
68,68,-0.60699580656263,-0.6,0.0,1.0,410.0,870.0,0.0,1,3720.0,0
69,69,-0.5574939598638036,-0.6,1.0,0.0,387.0,894.0,0.0,0,-1261.0,1
70,70,0.19755604695378104,0.2,0.0,0.0,331.0,757.0,0.0,1,-1038.0,1
71,71,-0.19460994974994428,-0.2,1.0,0.0,455.0,793.0,0.0,0,3752.0,1
72,72,0.8236105175411966,0.8,0.0,0.0,374.0,761.0,0.0,1,3865.0,1
73,73,0.458791978522597,0.5,0.0,0.0,258.0,964.0,0.0,1,3778.0,1
74,74,0.5833877812989131,0.6,1.0,1.0,262.0,704.0,0.0,0,4034.0,0
75,75,-0.19494090117261942,-0.2,0.0,1.0,395.0,627.0,0.0,1,3978.0,0
76,76,-0.141768948425534,-0.1,0.0,1.0,352.0,922.0,0.0,1,3726.0,0
77,77,0.4942600761026398,0.5,0.0,0.0,282.0,523.0,0.0,1,4195.0,1
78,78,0.7057220880565968,0.7,1.0,1.0,358.0,985.0,0.0,0,3657.0,0
79,79,-0.7099614421969139,-0.7,1.0,0.0,461.0,911.0,0.0,0,3628.0,1
80,80,0.7100198949142754,0.7,0.0,0.0,442.0,677.0,0.0,1,3881.0,1
81,81,0.7614322345849637,0.8,0.0,0.0,336.0,567.0,0.0,1,4097.0,1
82,82,-0.5493822069732871,-0.5,1.0,0.0,472.0,958.0,0.0,0,3570.0,1
83,83,0.434581087299844,0.4,1.0,1.0,333.0,641.0,0.0,0,4026.0,0
84,84,0.25855300405898396,0.3,0.0,0.0,335.0,725.0,0.0,1,3940.0,1
85,85,0.18729874165120297,0.2,0.0,0.0,462.0,808.0,0.0,1,3730.0,1
86,86,0.7439805331824022,0.7,1.0,1.0,383.0,907.0,0.0,0,3710.0,0
87,87,0.026362070146053185,0.0,0.0,0.0,392.0,722.0,0.0,1,-1004.0,1
88,88,0.13123513476585902,0.1,1.0,1.0,320.0,549.0,0.0,0,4131.0,0
89,89,-0.6958049640661217,-0.7,0.0,1.0,471.0,833.0,0.0,1,3696.0,0
90,90,-0.15506709344090952,-0.2,0.0,1.0,322.0,686.0,0.0,1,3992.0,0
91,91,0.25766223830592894,0.3,1.0,1.0,281.0,686.0,0.0,0,4033.0,0
92,92,0.7860157120573795,0.8,1.0,1.0,376.0,941.0,0.0,0,3683.0,0
93,93,0.8208705421502506,0.8,0.0,0.0,433.0,750.0,1.0,0,-1123.0,0
94,94,0.23493990449071112,0.2,0.0,0.0,409.0,520.0,0.0,1,4071.0,1
95,95,0.7664973262920404,0.8,0.0,0.0,406.0,553.0,0.0,1,4041.0,1
96,96,0.7556534621045282,0.8,0.0,0.0,446.0,628.0,0.0,1,3926.0,1
97,97,-0.0625693246806116,-0.1,1.0,0.0,259.0,560.0,0.0,0,4181.0,1
98,98,0.6329972730092254,0.6,1.0,1.0,295.0,579.0,0.0,0,-874.0,0
99,99,-0.4245617964506211,-0.4,1.0,0.0,258.0,649.0,0.0,0,4093.0,1
100,100,-0.576459618710305,-0.6,0.0,1.0,296.0,879.0,0.0,1,3825.0,0
101,101,0.014392201537237415,0.0,1.0,1.0,263.0,805.0,0.0,0,3932.0,0
102,102,-0.15407099959937942,-0.2,1.0,0.0,314.0,836.0,0.0,0,3850.0,1
103,103,0.1655645833804148,0.2,0.0,0.0,335.0,913.0,0.0,1,3752.0,1
104,104,-0.5392083297907254,-0.5,1.0,0.0,318.0,697.0,0.0,0,3985.0,1
105,105,-0.27772908877952085,-0.3,0.0,1.0,476.0,560.0,0.0,1,3964.0,0
106,106,-0.44558453296439965,-0.4,0.0,1.0,381.0,648.0,0.0,1,3971.0,0
107,107,-0.6887629038301384,-0.7,0.0,1.0,288.0,947.0,0.0,1,3765.0,0
108,108,0.10739874090780244,0.1,0.0,0.0,468.0,553.0,0.0,1,3979.0,1
109,109,-0.11214525680090437,-0.1,0.0,1.0,486.0,547.0,0.0,1,3967.0,0
110,110,0.4746547938861142,0.5,1.0,1.0,329.0,863.0,0.0,0,3808.0,0
111,111,-0.8910740906951276,-0.9,1.0,0.0,486.0,766.0,0.0,0,3748.0,1
112,112,-0.2917761340627155,-0.3,1.0,0.0,311.0,612.0,0.0,0,4077.0,1
113,113,0.7094088271149254,0.7,1.0,1.0,404.0,987.0,0.0,0,3609.0,0
114,114,0.31882338718111247,0.3,0.0,0.0,412.0,938.0,0.0,1,3650.0,1
115,115,0.6802494823771926,0.7,1.0,1.0,453.0,901.0,0.0,0,3646.0,0
116,116,-0.5491725097196294,-0.5,1.0,0.0,468.0,518.0,0.0,0,4014.0,1
117,117,0.8972461030046598,0.9,1.0,1.0,282.0,996.0,0.0,0,3722.0,0
118,118,0.2884679186570255,0.3,1.0,1.0,432.0,537.0,0.0,0,4031.0,0
119,119,0.5297479087954579,0.5,0.0,0.0,261.0,884.0,0.0,1,3855.0,1
120,120,0.8605035682531007,0.9,0.0,0.0,490.0,575.0,0.0,1,3935.0,1
121,121,0.15121431801381513,0.2,0.0,0.0,264.0,662.0,0.0,1,4074.0,1
122,122,-0.8493458479878446,-0.8,0.0,1.0,302.0,927.0,0.0,1,3771.0,0
123,123,-0.1846013303318914,-0.2,1.0,0.0,405.0,922.0,0.0,0,3673.0,1
124,124,-0.2999952422495903,-0.3,0.0,1.0,363.0,607.0,0.0,1,4030.0,0
125,125,-0.5075392808616463,-0.5,0.0,1.0,412.0,885.0,0.0,1,3703.0,0
126,126,-0.8208237847743334,-0.8,1.0,0.0,265.0,781.0,0.0,0,3954.0,1
127,127,0.09563284910583347,0.1,1.0,1.0,389.0,961.0,0.0,0,-1330.0,0
128,128,0.8146757582645338,0.8,1.0,1.0,493.0,732.0,0.0,0,3775.0,0
129,129,-0.5788972054497072,-0.6,1.0,0.0,405.0,980.0,0.0,0,3615.0,1
130,130,0.2396195766528787,0.2,0.0,0.0,427.0,837.0,0.0,1,3736.0,1
131,131,-0.4535358746919095,-0.5,0.0,1.0,450.0,656.0,1.0,0,-1026.0,1
132,132,-0.5467927927121555,-0.5,1.0,0.0,353.0,883.0,0.0,0,3764.0,1
133,133,0.06136494685023153,0.1,0.0,0.0,459.0,801.0,0.0,1,3740.0,1
134,134,0.7582370022574793,0.8,1.0,1.0,412.0,801.0,0.0,0,3787.0,0
135,135,0.6765754593645684,0.7,0.0,0.0,302.0,650.0,0.0,1,4048.0,1
136,136,-0.5281313286723088,-0.5,0.0,1.0,365.0,527.0,0.0,1,4108.0,0
137,137,0.763378202671224,0.8,0.0,0.0,310.0,820.0,0.0,1,3870.0,1
138,138,-0.8911624636658092,-0.9,1.0,0.0,459.0,705.0,0.0,0,3836.0,1
139,139,-0.16011033118876739,-0.2,0.0,1.0,372.0,617.0,1.0,0,-869.0,1
140,140,0.31595406957167527,0.3,0.0,0.0,263.0,999.0,0.0,1,3738.0,1
141,141,0.8922059030608059,0.9,1.0,1.0,282.0,647.0,0.0,0,-779.0,0
142,142,-0.40449714243589696,-0.4,1.0,0.0,289.0,894.0,1.0,1,-953.0,0
143,143,0.14370017637521937,0.1,1.0,1.0,463.0,738.0,0.0,0,3799.0,0
144,144,0.21649451996821167,0.2,0.0,0.0,456.0,598.0,0.0,1,3946.0,1
145,145,-0.8694902383077223,-0.9,0.0,1.0,251.0,834.0,0.0,1,3915.0,0
146,146,0.8977335140622801,0.9,0.0,0.0,268.0,603.0,0.0,1,4129.0,1
147,147,0.8652462545380847,0.9,1.0,1.0,300.0,944.0,0.0,0,3756.0,0
148,148,-0.892807481659736,-0.9,1.0,0.0,320.0,881.0,0.0,0,3799.0,1
149,149,-0.11465873849276254,-0.1,1.0,0.0,282.0,754.0,0.0,0,3964.0,1
150,150,-0.26543967515108435,-0.3,1.0,0.0,374.0,789.0,0.0,0,3837.0,1
151,151,0.19191596678535594,0.2,0.0,0.0,259.0,735.0,0.0,1,4006.0,1
152,152,0.5091137333609782,0.5,0.0,0.0,310.0,955.0,0.0,1,3735.0,1
153,153,0.48180061186303125,0.5,0.0,0.0,382.0,919.0,0.0,1,3699.0,1
154,154,0.31054314325763455,0.3,1.0,1.0,341.0,992.0,0.0,0,3667.0,0
155,155,-0.7027018330348122,-0.7,1.0,0.0,476.0,980.0,0.0,0,3544.0,1
156,156,-0.3575152202886204,-0.4,1.0,0.0,451.0,500.0,0.0,0,4049.0,1
157,157,-0.6447093872569234,-0.6,1.0,0.0,287.0,712.0,0.0,0,4001.0,1
158,158,0.18285650590362879,0.2,0.0,0.0,258.0,855.0,0.0,1,3887.0,1
159,159,0.009856690995789563,0.0,1.0,1.0,314.0,852.0,0.0,0,3834.0,0
160,160,0.38846605421331304,0.4,1.0,1.0,264.0,895.0,0.0,0,3841.0,0
161,161,-0.8100644728406957,-0.8,1.0,0.0,487.0,776.0,1.0,1,-1123.0,0
162,162,-0.3082574652706672,-0.3,1.0,0.0,295.0,840.0,0.0,0,3865.0,1
163,163,-0.6492218667383545,-0.6,1.0,0.0,335.0,634.0,0.0,0,4031.0,1
164,164,0.0436105672257181,0.0,0.0,0.0,351.0,749.0,1.0,0,-830.0,0
165,165,-0.8184592555697402,-0.8,0.0,1.0,442.0,507.0,0.0,1,4051.0,0
166,166,0.8415470533754067,0.8,1.0,1.0,360.0,516.0,1.0,1,-836.0,1
167,167,0.11005269817962138,0.1,1.0,1.0,334.0,579.0,0.0,0,4087.0,0
168,168,-0.6960739325283175,-0.7,0.0,1.0,412.0,571.0,0.0,1,4017.0,0
169,169,0.2716587511999019,0.3,0.0,0.0,284.0,849.0,0.0,1,3867.0,1
170,170,0.45303720070662223,0.5,0.0,0.0,348.0,996.0,0.0,1,3656.0,1
171,171,-0.1154439718180853,-0.1,0.0,1.0,469.0,555.0,0.0,1,3976.0,0
172,172,-0.12082703745572432,-0.1,1.0,0.0,491.0,920.0,0.0,0,3589.0,1
173,173,-0.369834692026889,-0.4,0.0,1.0,350.0,975.0,0.0,1,3675.0,0
174,174,-0.3278785302086513,-0.3,0.0,1.0,252.0,839.0,0.0,1,3909.0,0
175,175,-0.3296754006867435,-0.3,1.0,0.0,267.0,788.0,0.0,0,3945.0,1
176,176,-0.5485930725139425,-0.5,1.0,0.0,459.0,965.0,0.0,0,3576.0,1
177,177,0.6742366735074828,0.7,0.0,0.0,404.0,525.0,0.0,1,4071.0,1
178,178,-0.2851846051181036,-0.3,0.0,1.0,280.0,766.0,0.0,1,3954.0,0
179,179,-0.6270497279525822,-0.6,0.0,1.0,467.0,890.0,0.0,1,3643.0,0
180,180,0.8151597323132392,0.8,1.0,1.0,270.0,973.0,0.0,0,-1083.0,0
181,181,0.0673145278097137,0.1,0.0,0.0,313.0,590.0,0.0,1,4097.0,1
182,182,0.06370010576232399,0.1,1.0,1.0,368.0,700.0,0.0,0,3932.0,0
183,183,0.24002623631841147,0.2,1.0,1.0,402.0,740.0,0.0,0,3858.0,0
184,184,0.34195369799072795,0.3,1.0,1.0,429.0,604.0,0.0,0,3967.0,0
185,185,0.1882777284638767,0.2,0.0,0.0,294.0,748.0,0.0,1,3958.0,1
186,186,0.1256095828695608,0.1,0.0,0.0,269.0,766.0,0.0,1,3965.0,1
187,187,0.6750788797737984,0.7,1.0,1.0,398.0,886.0,0.0,0,3716.0,0
188,188,0.4807421477117423,0.5,0.0,0.0,389.0,801.0,1.0,0,-1090.0,0
189,189,-0.002354065069273381,-0.0,1.0,0.0,295.0,615.0,0.0,0,4090.0,1
190,190,0.044898380791453585,0.0,0.0,0.0,497.0,704.0,0.0,1,3799.0,1
191,191,0.1783087903487678,0.2,0.0,0.0,262.0,726.0,0.0,1,4012.0,1
192,192,0.6167023509655808,0.6,1.0,1.0,428.0,979.0,0.0,0,3593.0,0
193,193,-0.7932366278698484,-0.8,1.0,0.0,424.0,698.0,0.0,0,3878.0,1
194,194,0.44961151858117676,0.4,0.0,0.0,296.0,698.0,0.0,1,4006.0,1
195,195,0.5544565584136872,0.6,0.0,0.0,330.0,937.0,0.0,1,3733.0,1
196,196,-0.8031872658059801,-0.8,0.0,1.0,343.0,584.0,0.0,1,4073.0,0
197,197,0.4843127056274036,0.5,0.0,0.0,298.0,590.0,0.0,1,4112.0,1
198,198,-0.2540995277822399,-0.3,1.0,0.0,264.0,760.0,0.0,0,3976.0,1
199,199,-0.5323844017919085,-0.5,0.0,1.0,483.0,922.0,0.0,1,3595.0,0
200,200,-0.14544115365823151,-0.1,0.0,1.0,339.0,649.0,0.0,1,4012.0,0
201,201,0.6062601782824576,0.6,0.0,0.0,350.0,860.0,0.0,1,3790.0,1
202,202,-0.6312447849721059,-0.6,1.0,0.0,260.0,614.0,0.0,0,4126.0,1
203,203,0.5495450979390913,0.5,1.0,1.0,485.0,724.0,0.0,0,3791.0,0
204,204,0.35503598800294534,0.4,1.0,1.0,349.0,968.0,0.0,0,-1307.0,0
205,205,0.03701097109967755,0.0,0.0,0.0,272.0,973.0,0.0,1,3755.0,1
206,206,0.20126707878736572,0.2,0.0,0.0,295.0,607.0,0.0,1,4098.0,1
207,207,0.08143885883573632,0.1,0.0,0.0,497.0,542.0,0.0,1,3961.0,1
208,208,-0.31180267797835914,-0.3,0.0,1.0,472.0,843.0,0.0,1,3685.0,0
209,209,0.36835848272804295,0.4,1.0,1.0,333.0,635.0,1.0,1,-628.0,1
210,210,-0.20107166951957545,-0.2,0.0,1.0,479.0,851.0,0.0,1,3670.0,0
211,211,0.7817401466730106,0.8,1.0,1.0,330.0,548.0,1.0,1,-748.0,1
212,212,0.08904590510696875,0.1,0.0,0.0,279.0,981.0,0.0,1,3740.0,1
213,213,0.7523949341660309,0.8,0.0,0.0,440.0,688.0,0.0,1,3872.0,1
214,214,-0.6688475759186183,-0.7,1.0,0.0,261.0,888.0,0.0,0,3851.0,1
215,215,-0.3929339848485751,-0.4,1.0,0.0,389.0,961.0,0.0,0,3650.0,1
216,216,-0.124429555040658,-0.1,0.0,1.0,369.0,547.0,0.0,1,4084.0,0
217,217,-0.7422841022840404,-0.7,0.0,1.0,376.0,629.0,0.0,1,-975.0,0
218,218,-0.37334141722856184,-0.4,1.0,0.0,421.0,519.0,0.0,0,4060.0,1
219,219,-0.5421874248906763,-0.5,0.0,1.0,281.0,821.0,0.0,1,3898.0,0
220,220,0.36152154000384085,0.4,0.0,0.0,381.0,870.0,0.0,1,3749.0,1
221,221,-0.24667946301783106,-0.2,0.0,1.0,489.0,957.0,0.0,1,3554.0,0
222,222,-0.2806207442852461,-0.3,1.0,0.0,363.0,695.0,0.0,0,3942.0,1
223,223,-0.7573234328590126,-0.8,1.0,0.0,437.0,760.0,0.0,0,3803.0,1
224,224,-0.6570762118580655,-0.7,1.0,0.0,280.0,637.0,0.0,0,4083.0,1
225,225,0.7386024446342757,0.7,0.0,0.0,287.0,664.0,0.0,1,-941.0,1
226,226,-0.8556962251265433,-0.9,0.0,1.0,494.0,836.0,0.0,1,3670.0,0
227,227,-0.13596129318798367,-0.1,1.0,0.0,295.0,612.0,0.0,0,4093.0,1
228,228,0.4731034964319568,0.5,0.0,0.0,264.0,695.0,0.0,1,4041.0,1
229,229,0.8333943156985698,0.8,1.0,1.0,256.0,588.0,0.0,0,4156.0,0
230,230,0.16997844603332124,0.2,1.0,1.0,283.0,946.0,0.0,0,-1169.0,0
231,231,-0.5731160980848342,-0.6,1.0,0.0,440.0,903.0,0.0,0,3657.0,1
232,232,-0.1700946968332787,-0.2,1.0,0.0,468.0,974.0,0.0,0,3558.0,1
233,233,0.36400531033735317,0.4,0.0,0.0,354.0,760.0,0.0,1,3886.0,1
234,234,-0.2557181531179419,-0.3,0.0,1.0,499.0,694.0,0.0,1,3807.0,0
235,235,-0.4449276351716646,-0.4,1.0,0.0,283.0,985.0,0.0,0,3732.0,1
236,236,-0.8476359495540366,-0.8,0.0,1.0,316.0,970.0,0.0,1,3714.0,0
237,237,0.5489878492951527,0.5,1.0,1.0,375.0,743.0,0.0,0,3882.0,0
238,238,0.14669204157796278,0.1,0.0,0.0,395.0,678.0,0.0,1,3927.0,1
239,239,0.6717133428156433,0.7,1.0,1.0,373.0,612.0,0.0,0,4015.0,0
240,240,0.4618233174205776,0.5,0.0,0.0,437.0,522.0,1.0,0,-879.0,0
241,241,0.5533407959954403,0.6,0.0,0.0,301.0,611.0,0.0,1,4088.0,1
242,242,-0.010956962128565895,-0.0,1.0,0.0,340.0,609.0,0.0,0,4051.0,1
243,243,0.7708303083628424,0.8,0.0,0.0,256.0,707.0,0.0,1,4037.0,1
244,244,-0.3857228020410616,-0.4,1.0,0.0,309.0,789.0,1.0,1,-1038.0,0
245,245,0.6395098997023022,0.6,1.0,1.0,305.0,701.0,0.0,0,3994.0,0
246,246,0.5906597538679442,0.6,1.0,1.0,452.0,554.0,0.0,0,3994.0,0
247,247,0.30486686122408424,0.3,1.0,1.0,401.0,889.0,1.0,1,-1260.0,1
248,248,-0.7547032505833049,-0.8,1.0,0.0,353.0,636.0,0.0,0,4011.0,1
249,249,-0.23923250839013688,-0.2,0.0,1.0,349.0,979.0,0.0,1,3672.0,0
250,250,-0.20906075356364695,-0.2,1.0,0.0,436.0,953.0,0.0,0,3611.0,1
251,251,-0.643930859763584,-0.6,1.0,0.0,409.0,933.0,0.0,0,3658.0,1
252,252,0.43855430054943356,0.4,1.0,1.0,443.0,639.0,0.0,0,3918.0,0
253,253,-0.8931019965855292,-0.9,0.0,1.0,445.0,650.0,0.0,1,3905.0,0
254,254,0.579974668578,0.6,1.0,1.0,270.0,543.0,0.0,0,4187.0,0
255,255,-0.39372686211085917,-0.4,0.0,1.0,362.0,523.0,0.0,1,4115.0,0
256,256,-0.3952495073844625,-0.4,1.0,0.0,303.0,653.0,1.0,1,-856.0,0
257,257,-0.5378770196834373,-0.5,1.0,0.0,409.0,600.0,0.0,0,-1009.0,1
258,258,-0.33941539215474426,-0.3,1.0,0.0,395.0,622.0,0.0,0,3983.0,1
259,259,-0.7495023577284421,-0.7,0.0,1.0,437.0,995.0,0.0,1,3568.0,0
260,260,0.04628376884830088,0.0,0.0,0.0,496.0,650.0,1.0,0,-1016.0,0
261,261,0.16726370686831038,0.2,1.0,1.0,361.0,815.0,0.0,0,3824.0,0
262,262,0.743245248906148,0.7,0.0,0.0,369.0,986.0,0.0,1,3645.0,1
263,263,0.24422239954364355,0.2,0.0,0.0,426.0,836.0,0.0,1,3738.0,1
264,264,-0.5115621262332948,-0.5,1.0,0.0,317.0,626.0,0.0,0,4057.0,1
265,265,-0.67968680269422,-0.7,1.0,0.0,427.0,904.0,0.0,0,3669.0,1
266,266,-0.2877550626112496,-0.3,1.0,0.0,494.0,565.0,0.0,0,3941.0,1
267,267,0.7144030011003343,0.7,0.0,0.0,378.0,665.0,0.0,1,3957.0,1
268,268,0.780874837335989,0.8,0.0,0.0,299.0,515.0,0.0,1,4186.0,1
269,269,0.6908749929557917,0.7,1.0,1.0,264.0,867.0,0.0,0,-1121.0,0
270,270,0.23239412170655982,0.2,1.0,1.0,398.0,962.0,0.0,0,3640.0,0
271,271,0.6737083160861811,0.7,1.0,1.0,360.0,791.0,0.0,0,3849.0,0
272,272,0.4599727820915692,0.5,1.0,1.0,378.0,929.0,0.0,0,3693.0,0
273,273,-0.8155177199632629,-0.8,1.0,0.0,270.0,571.0,0.0,0,4159.0,1
274,274,-0.6767169243735286,-0.7,0.0,1.0,398.0,984.0,0.0,1,3618.0,0
275,275,0.3120506763705756,0.3,0.0,0.0,275.0,548.0,0.0,1,4177.0,1
276,276,0.47238297125772444,0.5,1.0,1.0,384.0,973.0,0.0,0,3643.0,0
277,277,0.20698383441826962,0.2,1.0,1.0,460.0,839.0,0.0,0,3701.0,0
278,278,0.04882915200990956,0.0,1.0,1.0,336.0,848.0,0.0,0,3816.0,0
279,279,0.6819844010726023,0.7,1.0,1.0,256.0,830.0,0.0,0,3914.0,0
280,280,-0.1429990224592218,-0.1,1.0,0.0,322.0,957.0,0.0,0,3721.0,1
281,281,0.20197631675379635,0.2,0.0,0.0,317.0,895.0,0.0,1,3788.0,1
282,282,0.7851187209249985,0.8,1.0,1.0,305.0,739.0,0.0,0,3956.0,0
283,283,0.6226434985239907,0.6,1.0,1.0,275.0,538.0,0.0,0,4187.0,0
284,284,-0.661993325983167,-0.7,0.0,1.0,256.0,971.0,1.0,0,-1177.0,1
285,285,0.04889658017263887,0.0,0.0,0.0,389.0,892.0,0.0,1,3719.0,1
286,286,-0.7867193419277076,-0.8,0.0,1.0,317.0,670.0,0.0,1,4013.0,0
287,287,0.20621592468367578,0.2,0.0,0.0,372.0,788.0,0.0,1,3840.0,1
288,288,-0.3951342356880937,-0.4,0.0,1.0,399.0,557.0,0.0,1,4044.0,0
289,289,-0.031538916164084996,-0.0,0.0,1.0,336.0,835.0,0.0,1,3829.0,0
290,290,-0.8526484272644362,-0.9,0.0,1.0,305.0,900.0,0.0,1,3795.0,0
291,291,0.04357326563954467,0.0,0.0,0.0,319.0,594.0,0.0,1,4087.0,1
292,292,0.3015819150617488,0.3,0.0,0.0,258.0,975.0,0.0,1,3767.0,1
293,293,-0.4862662994124272,-0.5,0.0,1.0,269.0,718.0,0.0,1,4013.0,0
294,294,0.40878991328625325,0.4,0.0,0.0,266.0,673.0,1.0,0,-789.0,0
295,295,0.8401001863991205,0.8,1.0,1.0,391.0,783.0,0.0,0,3826.0,0
296,296,0.5646084236120151,0.6,1.0,1.0,457.0,987.0,0.0,0,3556.0,0
297,297,0.7786030046672984,0.8,1.0,1.0,385.0,638.0,0.0,0,3977.0,0
298,298,0.4257075560771092,0.4,1.0,1.0,424.0,908.0,0.0,0,3668.0,0
299,299,-0.833738797587837,-0.8,1.0,0.0,292.0,939.0,0.0,0,3769.0,1
300,300,0.5534127051054095,0.6,1.0,1.0,270.0,971.0,0.0,0,3759.0,0
301,301,0.013618243104655536,0.0,1.0,1.0,311.0,739.0,0.0,0,-970.0,0
302,302,0.8428613727228697,0.8,0.0,0.0,329.0,752.0,0.0,1,3919.0,1
303,303,-0.893557242623129,-0.9,0.0,1.0,254.0,925.0,0.0,1,3821.0,0
304,304,0.8930709263331417,0.9,1.0,1.0,348.0,878.0,0.0,0,3774.0,0
305,305,0.6499202633667597,0.6,1.0,1.0,331.0,591.0,0.0,0,4078.0,0
306,306,-0.034330528362347734,-0.0,1.0,0.0,363.0,743.0,0.0,0,3894.0,1
307,307,0.49429678557214574,0.5,1.0,1.0,251.0,616.0,0.0,0,4133.0,0
308,308,0.7188148676882692,0.7,1.0,1.0,400.0,738.0,0.0,0,3862.0,0
309,309,0.7564469253377576,0.8,0.0,0.0,479.0,756.0,0.0,1,3765.0,1
310,310,0.06069915919228697,0.1,1.0,1.0,266.0,807.0,0.0,0,3927.0,0
311,311,0.4807309105999976,0.5,1.0,1.0,380.0,948.0,0.0,0,3672.0,0
312,312,-0.6659279325098613,-0.7,0.0,1.0,406.0,522.0,0.0,1,4072.0,0
313,313,0.0502825743241071,0.1,1.0,1.0,372.0,743.0,0.0,0,3885.0,0
314,314,-0.7603107859061546,-0.8,1.0,0.0,444.0,598.0,0.0,0,3958.0,1
315,315,-0.2298159649164715,-0.2,0.0,1.0,287.0,769.0,0.0,1,3944.0,0
316,316,-0.021402845905918788,-0.0,1.0,0.0,308.0,829.0,0.0,0,3863.0,1
317,317,-0.5777154002656968,-0.6,0.0,1.0,322.0,776.0,0.0,1,3902.0,0
318,318,0.3933669276836983,0.4,1.0,1.0,298.0,694.0,0.0,0,4008.0,0
319,319,0.5170617957590501,0.5,1.0,1.0,457.0,533.0,0.0,0,4010.0,0
320,320,-0.1661329704422786,-0.2,0.0,1.0,336.0,902.0,0.0,1,-1188.0,0
321,321,-0.6948621474446072,-0.7,0.0,1.0,413.0,972.0,0.0,1,3615.0,0
322,322,-0.0529485489198509,-0.1,1.0,0.0,381.0,935.0,0.0,0,3684.0,1
323,323,-0.3966797714352749,-0.4,0.0,1.0,409.0,672.0,0.0,1,-1061.0,0
324,324,-0.5022211893298039,-0.5,1.0,0.0,410.0,890.0,0.0,0,3700.0,1
325,325,0.49592033242103317,0.5,1.0,1.0,272.0,635.0,0.0,0,4093.0,0
326,326,0.23962313429348658,0.2,0.0,0.0,480.0,586.0,0.0,1,3934.0,1
327,327,-0.515977779400167,-0.5,1.0,0.0,259.0,669.0,0.0,0,4072.0,1
328,328,-0.41168843488895707,-0.4,0.0,1.0,489.0,568.0,0.0,1,3943.0,0
329,329,0.014480351477434317,0.0,0.0,0.0,360.0,894.0,0.0,1,3746.0,1
330,330,0.7429607276640625,0.7,0.0,0.0,417.0,723.0,0.0,1,3860.0,1
331,331,0.8847126560412543,0.9,0.0,0.0,368.0,920.0,0.0,1,3712.0,1
332,332,-0.34193366118214685,-0.3,0.0,1.0,492.0,837.0,0.0,1,3671.0,0
333,333,-0.7829686511888632,-0.8,0.0,1.0,286.0,548.0,0.0,1,4166.0,0
334,334,-0.24093135597022575,-0.2,0.0,1.0,291.0,998.0,0.0,1,3711.0,0
335,335,0.1828042153328452,0.2,0.0,0.0,348.0,936.0,0.0,1,3716.0,1
336,336,-0.25267454595226824,-0.3,0.0,1.0,410.0,579.0,0.0,1,4011.0,0
337,337,-0.4360674488188426,-0.4,1.0,0.0,414.0,930.0,0.0,0,3656.0,1
338,338,-0.5782909555931126,-0.6,1.0,0.0,338.0,538.0,0.0,0,4124.0,1
339,339,0.8542433381616791,0.9,1.0,1.0,429.0,911.0,0.0,0,3660.0,0
340,340,0.12520526443877744,0.1,1.0,1.0,386.0,663.0,0.0,0,3951.0,0
341,341,-0.5581190803760055,-0.6,0.0,1.0,317.0,762.0,0.0,1,3921.0,0
342,342,-0.38840547696058214,-0.4,0.0,1.0,383.0,970.0,0.0,1,3647.0,0
343,343,-0.22047227870774877,-0.2,1.0,0.0,346.0,695.0,0.0,0,3959.0,1
344,344,0.8693636601086899,0.9,1.0,1.0,390.0,855.0,1.0,1,-925.0,1
345,345,-0.8227860087871761,-0.8,0.0,1.0,484.0,561.0,0.0,1,-925.0,0
346,346,-0.29361427504751425,-0.3,1.0,0.0,425.0,674.0,0.0,0,3901.0,1
347,347,-0.7168556336481877,-0.7,0.0,1.0,456.0,992.0,0.0,1,3552.0,0
348,348,-0.8244788603224921,-0.8,0.0,1.0,267.0,942.0,0.0,1,3791.0,0
349,349,0.35218991944275924,0.4,1.0,1.0,363.0,638.0,0.0,0,3999.0,0
350,350,0.20423738372439126,0.2,1.0,1.0,356.0,890.0,0.0,0,3754.0,0
351,351,0.7364197980142321,0.7,1.0,1.0,304.0,536.0,0.0,0,4160.0,0
352,352,0.040035204654397916,0.0,0.0,0.0,425.0,877.0,0.0,1,3698.0,1
353,353,-0.6917798924564386,-0.7,0.0,1.0,280.0,704.0,0.0,1,4016.0,0
354,354,-0.2077492429509512,-0.2,1.0,0.0,377.0,975.0,0.0,0,3648.0,1
355,355,-0.6926772824679999,-0.7,1.0,0.0,432.0,751.0,0.0,0,3817.0,1
356,356,-0.24457148394636852,-0.2,0.0,1.0,266.0,774.0,0.0,1,3960.0,0
357,357,-0.6296989553379613,-0.6,0.0,1.0,436.0,633.0,0.0,1,3931.0,0
358,358,0.31163361615244833,0.3,1.0,1.0,351.0,958.0,0.0,0,3691.0,0
359,359,-0.212419558066969,-0.2,1.0,0.0,432.0,958.0,0.0,0,3610.0,1
360,360,0.2278085604963277,0.2,1.0,1.0,427.0,572.0,0.0,0,4001.0,0
361,361,0.8687567343115502,0.9,1.0,1.0,309.0,568.0,0.0,0,4123.0,0
362,362,0.0019384606023745699,0.0,1.0,1.0,458.0,940.0,0.0,0,3602.0,0
363,363,0.2926377337946736,0.3,0.0,0.0,486.0,651.0,0.0,1,3863.0,1
364,364,-0.8045013625649645,-0.8,0.0,1.0,456.0,895.0,0.0,1,3649.0,0
365,365,-0.6742107938624772,-0.7,1.0,0.0,307.0,924.0,0.0,0,3769.0,1
366,366,0.8702576669735412,0.9,1.0,1.0,461.0,789.0,0.0,0,3750.0,0
367,367,-0.17501334937245638,-0.2,0.0,1.0,353.0,570.0,0.0,1,4077.0,0
368,368,-0.2609937886395508,-0.3,1.0,0.0,480.0,529.0,0.0,0,3991.0,1
369,369,-0.12588965333858004,-0.1,0.0,1.0,263.0,816.0,0.0,1,3921.0,0
370,370,0.0510953835204524,0.1,0.0,0.0,262.0,925.0,0.0,1,3813.0,1
371,371,0.49826827859066614,0.5,0.0,0.0,465.0,632.0,0.0,1,3903.0,1
372,372,0.4025580317081249,0.4,0.0,0.0,268.0,534.0,0.0,1,4198.0,1
373,373,0.5138755413972363,0.5,1.0,1.0,320.0,933.0,0.0,0,3747.0,0
374,374,-0.3038016317087554,-0.3,0.0,1.0,456.0,926.0,0.0,1,3618.0,0
375,375,-0.40991522943253156,-0.4,1.0,0.0,350.0,559.0,0.0,0,4091.0,1
376,376,0.6412289059460171,0.6,0.0,0.0,488.0,618.0,0.0,1,-1036.0,1
377,377,0.8696343735285695,0.9,1.0,1.0,496.0,647.0,0.0,0,-1113.0,0
378,378,-0.1402855143589702,-0.1,0.0,1.0,269.0,693.0,0.0,1,4038.0,0
379,379,-0.3252653829065285,-0.3,1.0,0.0,318.0,678.0,0.0,0,4004.0,1
380,380,-0.17678475154587903,-0.2,1.0,0.0,477.0,937.0,0.0,0,3586.0,1
381,381,-0.8767243409934101,-0.9,1.0,0.0,332.0,604.0,0.0,0,4064.0,1
382,382,0.5190608854184849,0.5,0.0,0.0,365.0,676.0,0.0,1,3959.0,1
383,383,-0.45787515597087647,-0.5,0.0,1.0,446.0,702.0,0.0,1,3852.0,0
384,384,0.2680573685784061,0.3,1.0,1.0,353.0,879.0,0.0,0,3768.0,0
385,385,-0.5320458111931562,-0.5,0.0,1.0,466.0,942.0,0.0,1,-1388.0,0
386,386,0.08910270409049847,0.1,0.0,0.0,398.0,962.0,0.0,1,3640.0,1
387,387,0.31789502319077434,0.3,0.0,0.0,477.0,855.0,0.0,1,3668.0,1
388,388,-0.43473759093192715,-0.4,1.0,0.0,340.0,983.0,0.0,0,3677.0,1
389,389,0.7465780486826256,0.7,1.0,1.0,412.0,603.0,0.0,0,3985.0,0
390,390,0.1410872187913067,0.1,1.0,1.0,315.0,779.0,0.0,0,3906.0,0
391,391,-0.7265372564061329,-0.7,1.0,0.0,339.0,850.0,0.0,0,3811.0,1
392,392,0.25241312544933303,0.3,1.0,1.0,411.0,778.0,0.0,0,3811.0,0
393,393,-0.705133476629826,-0.7,0.0,1.0,438.0,608.0,0.0,1,3954.0,0
394,394,-0.7561732276549286,-0.8,0.0,1.0,354.0,942.0,0.0,1,3704.0,0
395,395,-0.09204409440428662,-0.1,1.0,0.0,320.0,893.0,0.0,0,3787.0,1
396,396,-0.054850106424466416,-0.1,1.0,0.0,259.0,838.0,0.0,0,3903.0,1
397,397,0.2563867150999469,0.3,0.0,0.0,459.0,680.0,1.0,0,-1129.0,0
398,398,0.3527394703532266,0.4,1.0,1.0,274.0,882.0,0.0,0,3844.0,0
399,399,0.16093372324214406,0.2,1.0,1.0,353.0,894.0,0.0,0,3753.0,0
400,400,0.6042869909727483,0.6,0.0,0.0,404.0,896.0,0.0,1,3700.0,1
401,401,-0.4368797359644,-0.4,1.0,0.0,275.0,964.0,0.0,0,3761.0,1
402,402,-0.6116960652920977,-0.6,0.0,1.0,371.0,982.0,0.0,1,3647.0,0
403,403,0.217139317131272,0.2,1.0,1.0,271.0,712.0,0.0,0,4017.0,0
404,404,-0.7265109366268159,-0.7,1.0,0.0,463.0,792.0,1.0,1,-1195.0,0
405,405,0.6894011703855919,0.7,0.0,0.0,455.0,716.0,0.0,1,3829.0,1
406,406,-0.28904228985652525,-0.3,0.0,1.0,325.0,628.0,0.0,1,4047.0,0
407,407,-0.6702623651760203,-0.7,0.0,1.0,364.0,586.0,0.0,1,4050.0,0
408,408,-0.01818255025922222,-0.0,0.0,1.0,337.0,597.0,0.0,1,4066.0,0
409,409,-0.4135986133253976,-0.4,1.0,0.0,357.0,978.0,1.0,1,-1115.0,0
410,410,0.15763688107633345,0.2,0.0,0.0,266.0,877.0,0.0,1,3857.0,1
411,411,-0.5850045858432731,-0.6,1.0,0.0,331.0,518.0,0.0,0,4151.0,1
412,412,0.14595692531394444,0.1,0.0,0.0,346.0,732.0,0.0,1,3922.0,1
413,413,0.6791118027531754,0.7,1.0,1.0,345.0,828.0,1.0,1,-1123.0,1
414,414,-0.5469780289831487,-0.5,1.0,0.0,392.0,832.0,0.0,0,3776.0,1
415,415,-0.3341349068227656,-0.3,0.0,1.0,470.0,634.0,0.0,1,3896.0,0
416,416,-0.1440834627189872,-0.1,0.0,1.0,350.0,832.0,0.0,1,3818.0,0
417,417,-0.833957785319264,-0.8,1.0,0.0,478.0,924.0,0.0,0,3598.0,1
418,418,0.7675156583758219,0.8,1.0,1.0,491.0,930.0,0.0,0,3579.0,0
419,419,0.697899098993516,0.7,0.0,0.0,436.0,662.0,0.0,1,3902.0,1
420,420,0.11258191746989421,0.1,1.0,1.0,333.0,729.0,0.0,0,-912.0,0
421,421,0.39252566834692726,0.4,0.0,0.0,471.0,741.0,0.0,1,3788.0,1
422,422,0.5994362155372811,0.6,0.0,0.0,387.0,722.0,0.0,1,3891.0,1
423,423,-0.32220961026220396,-0.3,0.0,1.0,307.0,758.0,0.0,1,3935.0,0
424,424,0.7973290633308691,0.8,0.0,0.0,487.0,974.0,0.0,1,3539.0,1
425,425,-0.7832536113363885,-0.8,0.0,1.0,417.0,927.0,0.0,1,3656.0,0
426,426,-0.3813389625884408,-0.4,1.0,0.0,430.0,708.0,0.0,0,3862.0,1
427,427,0.19851073014307807,0.2,0.0,0.0,420.0,789.0,0.0,1,3791.0,1
428,428,0.17803892685338163,0.2,1.0,1.0,333.0,575.0,0.0,0,4092.0,0
429,429,0.5738646253505096,0.6,1.0,1.0,497.0,752.0,0.0,0,3751.0,0
430,430,0.16343782899563186,0.2,0.0,0.0,275.0,739.0,0.0,1,3986.0,1
431,431,0.2025809962031354,0.2,0.0,0.0,430.0,669.0,0.0,1,3901.0,1
432,432,-0.1114996304624063,-0.1,1.0,0.0,314.0,583.0,0.0,0,4103.0,1
433,433,0.42961121196744967,0.4,0.0,0.0,304.0,961.0,0.0,1,3735.0,1
434,434,-0.11586332064186033,-0.1,0.0,1.0,341.0,782.0,0.0,1,3877.0,0
435,435,-0.4729906836773397,-0.5,1.0,0.0,460.0,630.0,0.0,0,3910.0,1
436,436,0.05363075325510813,0.1,0.0,0.0,349.0,775.0,0.0,1,3876.0,1
437,437,-0.11467745892367154,-0.1,1.0,0.0,293.0,939.0,0.0,0,3768.0,1
438,438,0.898143466542182,0.9,0.0,0.0,289.0,696.0,0.0,1,4015.0,1
439,439,0.7565165643477904,0.8,0.0,0.0,268.0,856.0,0.0,1,3876.0,1
440,440,0.30375815427236075,0.3,1.0,1.0,260.0,891.0,0.0,0,3849.0,0
441,441,0.6194731365442142,0.6,1.0,1.0,256.0,744.0,0.0,0,4000.0,0
442,442,0.5837883325660903,0.6,1.0,1.0,259.0,989.0,0.0,0,3752.0,0
443,443,-0.7286842952978034,-0.7,0.0,1.0,442.0,723.0,0.0,1,3835.0,0
444,444,-0.6894084544099709,-0.7,0.0,1.0,422.0,730.0,0.0,1,3848.0,0
445,445,0.017289207248065708,0.0,1.0,1.0,281.0,640.0,0.0,0,4079.0,0
446,446,0.046868976202085855,0.0,0.0,0.0,468.0,739.0,0.0,1,3793.0,1
447,447,0.1402024125336242,0.1,0.0,0.0,365.0,860.0,0.0,1,3775.0,1
448,448,-0.14926171570810443,-0.1,0.0,1.0,388.0,682.0,0.0,1,3930.0,0
449,449,-0.2593082362983864,-0.3,1.0,0.0,354.0,823.0,0.0,0,3823.0,1
450,450,0.8191557625588269,0.8,0.0,0.0,357.0,761.0,1.0,0,-1098.0,0
451,451,0.7331340186863874,0.7,0.0,0.0,454.0,582.0,0.0,1,3964.0,1
452,452,-0.7383158687166114,-0.7,0.0,1.0,427.0,676.0,0.0,1,3897.0,0
453,453,-0.010138563356158814,-0.0,0.0,1.0,324.0,959.0,0.0,1,3717.0,0
454,454,-0.20808618923390487,-0.2,1.0,0.0,479.0,767.0,0.0,0,3754.0,1
455,455,0.5100329075782603,0.5,0.0,0.0,290.0,612.0,0.0,1,-862.0,1
456,456,-0.7500357879222794,-0.8,1.0,0.0,398.0,839.0,0.0,0,3763.0,1
457,457,-0.5171927377087535,-0.5,1.0,0.0,475.0,831.0,0.0,0,3694.0,1
458,458,-0.32388536513560384,-0.3,1.0,0.0,423.0,987.0,0.0,0,3590.0,1
459,459,-0.8636053783855817,-0.9,0.0,1.0,438.0,541.0,0.0,1,4021.0,0
460,460,-0.5885665546427025,-0.6,0.0,1.0,455.0,819.0,0.0,1,3726.0,0
461,461,0.2887507270434847,0.3,0.0,0.0,434.0,778.0,0.0,1,3788.0,1
462,462,-0.8879504928017672,-0.9,1.0,0.0,496.0,687.0,0.0,0,3817.0,1
463,463,-0.2711197433948682,-0.3,1.0,0.0,309.0,609.0,0.0,0,4082.0,1
464,464,0.05868758117414996,0.1,0.0,0.0,270.0,518.0,0.0,1,4212.0,1
465,465,0.508933518877733,0.5,1.0,1.0,338.0,902.0,0.0,0,3760.0,0
466,466,-0.45937869598885867,-0.5,0.0,1.0,465.0,640.0,0.0,1,3895.0,0
467,467,-0.4663871761121819,-0.5,0.0,1.0,318.0,910.0,0.0,1,-1218.0,0
468,468,-0.5717425411347918,-0.6,1.0,0.0,462.0,924.0,0.0,0,3614.0,1
469,469,-0.04280472147277392,-0.0,0.0,1.0,457.0,598.0,0.0,1,3945.0,0
470,470,0.8375613573024226,0.8,0.0,0.0,298.0,782.0,0.0,1,3920.0,1
471,471,0.2919078474873541,0.3,0.0,0.0,274.0,686.0,0.0,1,4040.0,1
472,472,-0.11511214147624682,-0.1,1.0,0.0,427.0,597.0,0.0,0,3976.0,1
473,473,0.573768321730496,0.6,0.0,0.0,410.0,810.0,0.0,1,3780.0,1
474,474,0.6505477715541016,0.7,1.0,1.0,330.0,586.0,0.0,0,-896.0,0
475,475,0.8787287982585393,0.9,1.0,1.0,373.0,524.0,0.0,0,4103.0,0
476,476,0.06865039413309848,0.1,0.0,0.0,459.0,832.0,0.0,1,3709.0,1
477,477,-0.6739393394427773,-0.7,0.0,1.0,259.0,504.0,0.0,1,4237.0,0
478,478,0.2520590344624577,0.3,1.0,1.0,259.0,932.0,0.0,0,3809.0,0
479,479,-0.17066778269568839,-0.2,0.0,1.0,393.0,955.0,0.0,1,3652.0,0
480,480,0.361399719032896,0.4,1.0,1.0,251.0,901.0,1.0,1,-1032.0,1
481,481,-0.8228022876639137,-0.8,0.0,1.0,377.0,642.0,0.0,1,3981.0,0
482,482,-0.046558303813209245,-0.0,1.0,0.0,390.0,561.0,0.0,0,4049.0,1
483,483,0.51129946686702,0.5,1.0,1.0,389.0,516.0,0.0,0,4095.0,0
484,484,-0.846091884971097,-0.8,0.0,1.0,366.0,982.0,0.0,1,3652.0,0
485,485,0.8018234949923467,0.8,0.0,0.0,438.0,567.0,0.0,1,3995.0,1
486,486,-0.0206522186983632,-0.0,1.0,0.0,288.0,585.0,0.0,0,4127.0,1
487,487,0.50760141468364,0.5,0.0,0.0,440.0,877.0,0.0,1,3683.0,1
488,488,0.774013463933599,0.8,1.0,1.0,480.0,619.0,0.0,0,3901.0,0
489,489,-0.39995839489705376,-0.4,1.0,0.0,313.0,969.0,0.0,0,3718.0,1
490,490,0.8678987146011291,0.9,0.0,0.0,328.0,728.0,0.0,1,3944.0,1
491,491,-0.41720333030561385,-0.4,0.0,1.0,426.0,960.0,0.0,1,-1306.0,0
492,492,-0.28515708613397417,-0.3,0.0,1.0,270.0,932.0,0.0,1,3798.0,0
493,493,0.692729856680583,0.7,1.0,1.0,296.0,724.0,0.0,0,3980.0,0
494,494,-0.045471669217044264,-0.0,0.0,1.0,381.0,755.0,0.0,1,3864.0,0
495,495,0.5237698027866174,0.5,0.0,0.0,359.0,668.0,0.0,1,3973.0,1
496,496,0.6670193424367993,0.7,1.0,1.0,295.0,504.0,0.0,0,4201.0,0
497,497,-0.003038381921697031,-0.0,1.0,0.0,498.0,646.0,0.0,0,3856.0,1
498,498,-0.4970256814983101,-0.5,0.0,1.0,291.0,973.0,0.0,1,3736.0,0
499,499,0.5294794921974108,0.5,1.0,1.0,434.0,541.0,0.0,0,4025.0,0
500,500,0.33373119746186786,0.3,0.0,0.0,489.0,529.0,0.0,1,3982.0,1
501,501,0.38884379944353575,0.4,0.0,0.0,275.0,671.0,0.0,1,4054.0,1
502,502,0.4666651384376638,0.5,0.0,0.0,378.0,976.0,1.0,0,-1244.0,0
503,503,0.4101036038501388,0.4,1.0,1.0,382.0,801.0,0.0,0,3817.0,0
504,504,-0.7152413020844921,-0.7,1.0,0.0,268.0,603.0,0.0,0,-771.0,1
505,505,-0.8804440035830808,-0.9,1.0,0.0,317.0,654.0,0.0,0,4029.0,1
506,506,-0.5261227492252227,-0.5,0.0,1.0,474.0,712.0,0.0,1,3814.0,0
507,507,-0.5958044124639368,-0.6,0.0,1.0,292.0,636.0,0.0,1,4072.0,0
508,508,-0.34146079497623805,-0.3,0.0,1.0,312.0,643.0,0.0,1,4045.0,0
509,509,0.4041500492748812,0.4,1.0,1.0,320.0,863.0,0.0,0,3817.0,0
510,510,-0.6196868370701099,-0.6,1.0,0.0,410.0,985.0,0.0,0,3605.0,1
511,511,0.2145938618677642,0.2,0.0,0.0,472.0,801.0,0.0,1,-1253.0,1
512,512,-0.0034378019913059443,-0.0,1.0,0.0,432.0,780.0,0.0,0,3788.0,1
513,513,-0.625984921199465,-0.6,1.0,0.0,468.0,692.0,0.0,0,-1120.0,1
514,514,0.08916565665892129,0.1,1.0,1.0,419.0,850.0,0.0,0,3731.0,0
515,515,0.8288212751679734,0.8,0.0,0.0,360.0,998.0,0.0,1,3642.0,1
516,516,-0.6082321485967621,-0.6,0.0,1.0,387.0,854.0,0.0,1,3759.0,0
517,517,-0.45525265026741296,-0.5,0.0,1.0,295.0,933.0,0.0,1,3772.0,0
518,518,-0.036504731210937336,-0.0,0.0,1.0,363.0,708.0,0.0,1,3929.0,0
519,519,-0.5618534160642041,-0.6,0.0,1.0,344.0,788.0,0.0,1,3868.0,0
520,520,-0.4002174561414656,-0.4,1.0,0.0,316.0,925.0,0.0,0,3759.0,1
521,521,0.1933014114298245,0.2,0.0,0.0,440.0,573.0,0.0,1,3987.0,1
522,522,-0.8565602266657454,-0.9,0.0,1.0,285.0,533.0,0.0,1,4182.0,0
523,523,0.7785685835621899,0.8,1.0,1.0,394.0,980.0,0.0,0,3626.0,0
524,524,0.28025088110350327,0.3,0.0,0.0,343.0,675.0,0.0,1,3982.0,1
525,525,0.23570689738446726,0.2,1.0,1.0,319.0,640.0,0.0,0,4041.0,0
526,526,-0.7150318803345439,-0.7,1.0,0.0,459.0,677.0,0.0,0,3864.0,1
527,527,0.38834677968576703,0.4,1.0,1.0,368.0,962.0,1.0,1,-1310.0,1
528,528,0.5724927487259984,0.6,1.0,1.0,321.0,573.0,0.0,0,4106.0,0
529,529,-0.4578844455463503,-0.5,1.0,0.0,330.0,523.0,0.0,0,4147.0,1
530,530,0.21571650527450859,0.2,0.0,0.0,289.0,520.0,0.0,1,4191.0,1
531,531,-0.09909489811042116,-0.1,1.0,0.0,311.0,810.0,0.0,0,3879.0,1
532,532,-0.3105809113333785,-0.3,1.0,0.0,332.0,978.0,0.0,0,3690.0,1
533,533,-0.3277202953715904,-0.3,1.0,0.0,439.0,626.0,0.0,0,3935.0,1
534,534,-0.019689965480219618,-0.0,0.0,1.0,372.0,732.0,0.0,1,3896.0,0
535,535,0.8739972349215678,0.9,0.0,0.0,386.0,945.0,0.0,1,3669.0,1
536,536,-0.7952621003009922,-0.8,0.0,1.0,431.0,557.0,0.0,1,4012.0,0
537,537,-0.3862455962888641,-0.4,0.0,1.0,420.0,826.0,0.0,1,3754.0,0
538,538,-0.46246170543968196,-0.5,0.0,1.0,379.0,912.0,0.0,1,3709.0,0
539,539,0.5303163789058843,0.5,0.0,0.0,447.0,838.0,0.0,1,3715.0,1
540,540,0.3787370640801845,0.4,1.0,1.0,324.0,780.0,0.0,0,3896.0,0
541,541,0.7412503985629882,0.7,1.0,1.0,349.0,632.0,0.0,0,4019.0,0
542,542,-0.6918328355055233,-0.7,0.0,1.0,294.0,529.0,0.0,1,4177.0,0
543,543,-0.37654848911648353,-0.4,1.0,0.0,330.0,803.0,0.0,0,3867.0,1
544,544,-0.20446815498773763,-0.2,0.0,1.0,253.0,643.0,0.0,1,4104.0,0
545,545,-0.8956402498201878,-0.9,1.0,0.0,270.0,663.0,0.0,0,4067.0,1
546,546,0.6007482344264735,0.6,1.0,1.0,364.0,903.0,0.0,0,3733.0,0
547,547,0.750744634193128,0.8,0.0,0.0,497.0,739.0,0.0,1,3764.0,1
548,548,0.7480085735124303,0.7,0.0,0.0,312.0,628.0,0.0,1,4060.0,1
549,549,0.06124575061560622,0.1,0.0,0.0,405.0,536.0,0.0,1,4059.0,1
550,550,0.5086668794313925,0.5,0.0,0.0,429.0,819.0,0.0,1,3752.0,1
551,551,-0.16746982646340292,-0.2,1.0,0.0,296.0,830.0,0.0,0,3874.0,1
552,552,-0.4768843036495682,-0.5,0.0,1.0,313.0,736.0,0.0,1,3951.0,0
553,553,-0.3794733690089048,-0.4,0.0,1.0,410.0,785.0,0.0,1,3805.0,0
554,554,0.8710447375377085,0.9,1.0,1.0,400.0,689.0,0.0,0,3911.0,0
555,555,-0.6634510786546333,-0.7,0.0,1.0,329.0,724.0,0.0,1,3947.0,0
556,556,-0.25849849997997587,-0.3,0.0,1.0,436.0,981.0,0.0,1,3583.0,0
557,557,0.23228720039699235,0.2,1.0,1.0,325.0,624.0,0.0,0,4051.0,0
558,558,-0.2236885996068667,-0.2,1.0,0.0,346.0,689.0,0.0,0,3965.0,1
559,559,0.8615860763380473,0.9,1.0,1.0,406.0,777.0,0.0,0,3817.0,0
560,560,0.2579366038406473,0.3,1.0,1.0,250.0,751.0,0.0,0,3999.0,0
561,561,-0.7519288557375292,-0.8,1.0,0.0,368.0,865.0,0.0,0,3767.0,1
562,562,0.30836726903975376,0.3,0.0,0.0,472.0,675.0,0.0,1,3853.0,1
563,563,-0.6657168643650925,-0.7,1.0,0.0,334.0,732.0,0.0,0,3934.0,1
564,564,0.34292367105923194,0.3,1.0,1.0,416.0,978.0,0.0,0,3606.0,0
565,565,0.7158363821183601,0.7,1.0,1.0,308.0,891.0,0.0,0,3801.0,0
566,566,0.7595224720278554,0.8,1.0,1.0,469.0,858.0,0.0,0,3673.0,0
567,567,-0.47787459019924944,-0.5,1.0,0.0,458.0,550.0,0.0,0,3992.0,1
568,568,0.892426509453596,0.9,0.0,0.0,424.0,831.0,0.0,1,3745.0,1
569,569,-0.4788703108092634,-0.5,1.0,0.0,307.0,958.0,0.0,0,3735.0,1
570,570,0.8731458361095782,0.9,0.0,0.0,315.0,526.0,0.0,1,4159.0,1
571,571,-0.26928277026159086,-0.3,0.0,1.0,314.0,523.0,0.0,1,4163.0,0
572,572,-0.24666461094711956,-0.2,1.0,0.0,318.0,795.0,0.0,0,3887.0,1
573,573,0.33848320128058906,0.3,1.0,1.0,358.0,720.0,0.0,0,3922.0,0
574,574,-0.4904506674928758,-0.5,1.0,0.0,456.0,677.0,0.0,0,3867.0,1
575,575,0.4950531216516979,0.5,1.0,1.0,271.0,853.0,0.0,0,3876.0,0
576,576,-0.8652988085699285,-0.9,0.0,1.0,376.0,925.0,0.0,1,3699.0,0
577,577,-0.05828446610537086,-0.1,1.0,0.0,277.0,552.0,0.0,0,4171.0,1
578,578,0.35305168263098297,0.4,1.0,1.0,377.0,973.0,0.0,0,3650.0,0
579,579,-0.42988913294602293,-0.4,0.0,1.0,368.0,921.0,0.0,1,3711.0,0
580,580,-0.43299746763562497,-0.4,1.0,0.0,378.0,902.0,0.0,0,3720.0,1
581,581,-0.5815936389575777,-0.6,1.0,0.0,275.0,659.0,0.0,0,4066.0,1
582,582,-0.06759472978285574,-0.1,1.0,0.0,430.0,922.0,0.0,0,3648.0,1
583,583,-0.29774995209999067,-0.3,0.0,1.0,354.0,681.0,0.0,1,3965.0,0
584,584,0.7608920271169176,0.8,0.0,0.0,385.0,689.0,0.0,1,3926.0,1
585,585,0.5105129361100466,0.5,1.0,1.0,309.0,765.0,0.0,0,3926.0,0
586,586,-0.23821600502743334,-0.2,0.0,1.0,487.0,777.0,0.0,1,3736.0,0
587,587,0.6757141733850797,0.7,0.0,0.0,395.0,564.0,0.0,1,4041.0,1
588,588,-0.6821929906854676,-0.7,1.0,0.0,275.0,603.0,0.0,0,4122.0,1
589,589,0.6678481518881948,0.7,0.0,0.0,407.0,843.0,0.0,1,3750.0,1
590,590,-0.6206861823871743,-0.6,0.0,1.0,430.0,652.0,0.0,1,3918.0,0
591,591,-0.7932687617941042,-0.8,1.0,0.0,274.0,784.0,0.0,0,3942.0,1
592,592,-0.24198849111917053,-0.2,1.0,0.0,349.0,728.0,0.0,0,3923.0,1
593,593,-0.7095034702442276,-0.7,0.0,1.0,273.0,551.0,0.0,1,4176.0,0
594,594,0.4045688117832663,0.4,1.0,1.0,279.0,947.0,0.0,0,3774.0,0
595,595,-0.7054210321997103,-0.7,1.0,0.0,278.0,795.0,0.0,0,3927.0,1
596,596,-0.3862057361415948,-0.4,1.0,0.0,314.0,550.0,0.0,0,4136.0,1
597,597,0.255108040025373,0.3,1.0,1.0,437.0,973.0,0.0,0,3590.0,0
598,598,-0.8358331608373639,-0.8,1.0,0.0,250.0,770.0,1.0,1,-780.0,0
599,599,0.5397962902950671,0.5,0.0,0.0,405.0,683.0,0.0,1,3912.0,1
600,600,-0.740545535754967,-0.7,0.0,1.0,273.0,852.0,0.0,1,3875.0,0
601,601,0.8656998343083552,0.9,0.0,0.0,339.0,812.0,0.0,1,-1081.0,1
602,602,0.6261003973516356,0.6,0.0,0.0,254.0,557.0,0.0,1,4189.0,1
603,603,0.30944947004291634,0.3,0.0,0.0,411.0,973.0,0.0,1,3616.0,1
604,604,-0.2412114332783487,-0.2,1.0,0.0,291.0,557.0,1.0,1,-778.0,0
605,605,0.47863958367695403,0.5,0.0,0.0,417.0,998.0,0.0,1,3585.0,1
606,606,-0.6399923380165773,-0.6,0.0,1.0,280.0,926.0,0.0,1,3794.0,0
607,607,-0.20010020570811893,-0.2,1.0,0.0,383.0,821.0,0.0,0,3796.0,1
608,608,0.49806896774030684,0.5,0.0,0.0,308.0,825.0,0.0,1,3867.0,1
609,609,-0.2612774325758923,-0.3,1.0,0.0,314.0,767.0,0.0,0,3919.0,1
610,610,-0.3205398341788036,-0.3,0.0,1.0,398.0,849.0,0.0,1,3753.0,0
611,611,-0.6111690016236557,-0.6,0.0,1.0,308.0,706.0,0.0,1,3986.0,0
612,612,-0.1705905177224568,-0.2,0.0,1.0,480.0,939.0,0.0,1,3581.0,0
613,613,-0.5177413168162356,-0.5,0.0,1.0,469.0,550.0,0.0,1,3981.0,0
614,614,0.07746574991453958,0.1,1.0,1.0,479.0,777.0,0.0,0,3744.0,0
615,615,0.11658271120051167,0.1,1.0,1.0,287.0,932.0,0.0,0,3781.0,0
616,616,-0.8468382714145033,-0.8,1.0,0.0,369.0,800.0,0.0,0,3831.0,1
617,617,0.3302931826436829,0.3,1.0,1.0,283.0,602.0,0.0,0,4115.0,0
618,618,0.08915525585089823,0.1,1.0,1.0,288.0,821.0,0.0,0,3891.0,0
619,619,-0.13232518209718014,-0.1,0.0,1.0,319.0,564.0,0.0,1,4117.0,0
620,620,0.6491586388373775,0.6,1.0,1.0,309.0,887.0,0.0,0,3804.0,0
621,621,0.6700601287608213,0.7,0.0,0.0,450.0,550.0,0.0,1,4000.0,1
622,622,0.08558520494817656,0.1,1.0,1.0,378.0,500.0,0.0,0,4122.0,0
623,623,0.5166952527684471,0.5,0.0,0.0,394.0,667.0,0.0,1,3939.0,1
624,624,-0.07556282035837147,-0.1,0.0,1.0,279.0,709.0,0.0,1,4012.0,0
625,625,-0.5534441201764133,-0.6,1.0,0.0,251.0,799.0,0.0,0,3950.0,1
626,626,-0.8460644399363118,-0.8,0.0,1.0,429.0,723.0,0.0,1,3848.0,0
627,627,-0.3086229726522868,-0.3,1.0,0.0,367.0,522.0,0.0,0,4111.0,1
628,628,-0.047798453001145824,-0.0,1.0,0.0,408.0,813.0,0.0,0,3779.0,1
629,629,-0.8916686220314456,-0.9,0.0,1.0,271.0,895.0,0.0,1,3834.0,0
630,630,0.8092522564118304,0.8,0.0,0.0,435.0,857.0,0.0,1,-1262.0,1
631,631,-0.307012295411793,-0.3,1.0,0.0,255.0,602.0,1.0,1,-827.0,0
632,632,-0.21036556800010375,-0.2,0.0,1.0,325.0,601.0,1.0,0,-536.0,1
633,633,0.0759968711563116,0.1,0.0,0.0,280.0,778.0,0.0,1,3942.0,1
634,634,-0.8688855344148876,-0.9,0.0,1.0,395.0,711.0,0.0,1,3894.0,0
635,635,-0.7705729801947414,-0.8,0.0,1.0,301.0,771.0,0.0,1,3928.0,0
636,636,-0.16289169295512507,-0.2,0.0,1.0,444.0,904.0,0.0,1,3652.0,0
637,637,0.6987734602484074,0.7,1.0,1.0,428.0,838.0,0.0,0,3734.0,0
638,638,-0.5640803698688328,-0.6,1.0,0.0,381.0,949.0,0.0,0,-1280.0,1
639,639,0.3831503149841372,0.4,0.0,0.0,289.0,993.0,0.0,1,3718.0,1
640,640,0.1367299772339291,0.1,1.0,1.0,317.0,569.0,0.0,0,4114.0,0
641,641,-0.3618372114180748,-0.4,0.0,1.0,444.0,510.0,0.0,1,4046.0,0
642,642,-0.8199165406144202,-0.8,1.0,0.0,435.0,580.0,0.0,0,3985.0,1
643,643,0.02840694425277046,0.0,1.0,1.0,359.0,961.0,0.0,0,3680.0,0
644,644,-0.5704471750877752,-0.6,0.0,1.0,410.0,558.0,0.0,1,4032.0,0
645,645,0.478170858705253,0.5,1.0,1.0,294.0,509.0,0.0,0,4197.0,0
646,646,0.14272019395375135,0.1,0.0,0.0,417.0,885.0,0.0,1,3698.0,1
647,647,-0.30368891506488616,-0.3,1.0,0.0,321.0,978.0,0.0,0,3701.0,1
648,648,0.5567407795904707,0.6,0.0,0.0,309.0,710.0,0.0,1,3981.0,1
649,649,-0.47171219193624786,-0.5,0.0,1.0,310.0,984.0,0.0,1,3706.0,0
650,650,-0.3142915095387854,-0.3,1.0,0.0,256.0,673.0,0.0,0,4071.0,1
651,651,-0.6754598018725524,-0.7,1.0,0.0,440.0,789.0,0.0,0,3771.0,1
652,652,-0.3520385937928878,-0.4,0.0,1.0,372.0,541.0,0.0,1,4087.0,0
653,653,-0.6331140255794001,-0.6,0.0,1.0,438.0,542.0,0.0,1,4020.0,0
654,654,-0.005808638358447027,-0.0,0.0,1.0,250.0,996.0,1.0,0,-1156.0,1
655,655,-0.7898535530729976,-0.8,1.0,0.0,322.0,883.0,0.0,0,3795.0,1
656,656,0.8205490535737062,0.8,1.0,1.0,376.0,760.0,0.0,0,3864.0,0
657,657,0.6913272351482337,0.7,0.0,0.0,253.0,535.0,0.0,1,4212.0,1
658,658,0.1316241256667149,0.1,0.0,0.0,480.0,768.0,0.0,1,3752.0,1
659,659,0.2744727677379789,0.3,0.0,0.0,461.0,963.0,0.0,1,3576.0,1
660,660,0.7555807207013351,0.8,0.0,0.0,257.0,543.0,0.0,1,4200.0,1
661,661,-0.44155879118905633,-0.4,1.0,0.0,346.0,672.0,0.0,0,3982.0,1
662,662,0.2876115398336193,0.3,1.0,1.0,360.0,824.0,0.0,0,3816.0,0
663,663,-0.8876121013624059,-0.9,1.0,0.0,419.0,689.0,0.0,0,3892.0,1
664,664,-0.25803297128230973,-0.3,1.0,0.0,350.0,541.0,0.0,0,4109.0,1
665,665,0.31325775308404713,0.3,1.0,1.0,455.0,757.0,0.0,0,3788.0,0
666,666,0.44643832240036796,0.4,1.0,1.0,276.0,748.0,0.0,0,3976.0,0
667,667,-0.6540216668221895,-0.7,0.0,1.0,344.0,755.0,0.0,1,3901.0,0
668,668,0.7232367053797614,0.7,0.0,0.0,331.0,565.0,0.0,1,4104.0,1
669,669,-0.8737035145479587,-0.9,1.0,0.0,267.0,834.0,0.0,0,3899.0,1
670,670,-0.46871433549856584,-0.5,0.0,1.0,422.0,917.0,0.0,1,3661.0,0
671,671,0.8234518222514443,0.8,0.0,0.0,313.0,872.0,0.0,1,3815.0,1
672,672,0.38143010447068393,0.4,1.0,1.0,277.0,914.0,0.0,0,3809.0,0
673,673,-0.3935616428801547,-0.4,0.0,1.0,440.0,742.0,0.0,1,3818.0,0
674,674,0.29381976655058895,0.3,0.0,0.0,270.0,985.0,0.0,1,3745.0,1
675,675,-0.847336412859653,-0.8,1.0,0.0,450.0,519.0,0.0,0,4031.0,1
676,676,0.09836117484954532,0.1,0.0,0.0,410.0,522.0,0.0,1,4068.0,1
677,677,-0.1386223691605336,-0.1,0.0,1.0,267.0,646.0,0.0,1,4087.0,0
678,678,-0.06514269629495639,-0.1,0.0,1.0,350.0,876.0,1.0,0,-1126.0,1
679,679,0.6635368265147615,0.7,0.0,0.0,301.0,590.0,0.0,1,4109.0,1
680,680,-0.5153498983684259,-0.5,1.0,0.0,309.0,669.0,0.0,0,4022.0,1
681,681,0.23279693576274652,0.2,0.0,0.0,306.0,626.0,0.0,1,-852.0,1
682,682,0.5002500303081295,0.5,0.0,0.0,332.0,848.0,0.0,1,3820.0,1
683,683,-0.647095703125826,-0.6,0.0,1.0,382.0,654.0,0.0,1,3964.0,0
684,684,0.1565040194889019,0.2,1.0,1.0,372.0,648.0,0.0,0,3980.0,0
685,685,0.1105165596670944,0.1,0.0,0.0,474.0,842.0,0.0,1,3684.0,1
686,686,0.49152434402985923,0.5,1.0,1.0,368.0,826.0,0.0,0,3806.0,0
687,687,0.6367254573510183,0.6,1.0,1.0,426.0,870.0,0.0,0,3704.0,0
688,688,0.6950617395448008,0.7,1.0,1.0,343.0,969.0,0.0,0,3688.0,0
689,689,-0.8032563599416405,-0.8,1.0,0.0,490.0,821.0,0.0,0,3689.0,1
690,690,0.26804202559735957,0.3,1.0,1.0,250.0,523.0,0.0,0,4227.0,0
691,691,-0.24551400376190946,-0.2,1.0,0.0,396.0,709.0,0.0,0,3895.0,1
692,692,-0.673406880525544,-0.7,1.0,0.0,398.0,719.0,0.0,0,3883.0,1
693,693,-0.47210890272668676,-0.5,0.0,1.0,409.0,813.0,0.0,1,3778.0,0
694,694,-0.08719206616467645,-0.1,0.0,1.0,386.0,841.0,0.0,1,3773.0,0
695,695,-0.7358619287910335,-0.7,0.0,1.0,292.0,954.0,0.0,1,3754.0,0
696,696,-0.38238690005144604,-0.4,1.0,0.0,302.0,568.0,0.0,0,4130.0,1
697,697,0.8388007194175812,0.8,0.0,0.0,274.0,769.0,0.0,1,3957.0,1
698,698,0.14032907600464484,0.1,1.0,1.0,262.0,928.0,0.0,0,3810.0,0
699,699,0.1541312282278119,0.2,0.0,0.0,384.0,543.0,0.0,1,4073.0,1
700,700,0.5182552284296943,0.5,0.0,0.0,278.0,553.0,0.0,1,4169.0,1
701,701,-0.5654186809183559,-0.6,0.0,1.0,342.0,805.0,0.0,1,-1067.0,0
702,702,0.7203177181723285,0.7,0.0,0.0,457.0,753.0,0.0,1,3790.0,1
703,703,0.04831805488369123,0.0,1.0,1.0,351.0,503.0,0.0,0,4146.0,0
704,704,-0.2663044849304995,-0.3,0.0,1.0,327.0,666.0,1.0,0,-983.0,1
705,705,0.5395065121700663,0.5,1.0,1.0,463.0,816.0,0.0,0,3721.0,0
706,706,-0.7926618070032068,-0.8,0.0,1.0,382.0,692.0,0.0,1,3926.0,0
707,707,0.5005750854435286,0.5,0.0,0.0,428.0,840.0,0.0,1,3732.0,1
708,708,0.2676898958585058,0.3,0.0,0.0,366.0,980.0,0.0,1,3654.0,1
709,709,-0.8464929963954485,-0.8,1.0,0.0,406.0,967.0,0.0,0,3627.0,1
710,710,0.13731356443771203,0.1,1.0,1.0,427.0,550.0,0.0,0,4023.0,0
711,711,0.2079604417479094,0.2,1.0,1.0,313.0,683.0,0.0,0,4004.0,0
712,712,0.6178886150319497,0.6,1.0,1.0,295.0,724.0,0.0,0,3981.0,0
713,713,0.5687597582540705,0.6,1.0,1.0,340.0,830.0,0.0,0,3830.0,0
714,714,0.2065658002093852,0.2,1.0,1.0,384.0,973.0,0.0,0,3643.0,0
715,715,0.04711118850557039,0.0,0.0,0.0,473.0,934.0,0.0,1,3593.0,1
716,716,0.8174046256815296,0.8,0.0,0.0,414.0,655.0,0.0,1,3931.0,1
717,717,-0.49159002943520075,-0.5,1.0,0.0,338.0,657.0,0.0,0,4005.0,1
718,718,-0.44774057805738016,-0.4,0.0,1.0,324.0,790.0,0.0,1,3886.0,0
719,719,0.7452061479168425,0.7,0.0,0.0,368.0,807.0,0.0,1,3825.0,1
720,720,0.09536991722006183,0.1,0.0,0.0,411.0,664.0,0.0,1,3925.0,1
721,721,0.3602254360829281,0.4,1.0,1.0,312.0,773.0,0.0,0,3915.0,0
722,722,0.3634608996834455,0.4,1.0,1.0,442.0,730.0,0.0,0,3828.0,0
723,723,0.5356134784606782,0.5,0.0,0.0,443.0,994.0,0.0,1,-1407.0,1
724,724,0.6860894690020761,0.7,0.0,0.0,384.0,701.0,0.0,1,3915.0,1
725,725,-0.5726179847671711,-0.6,0.0,1.0,489.0,716.0,0.0,1,3795.0,0
726,726,0.2140808734665408,0.2,0.0,0.0,342.0,852.0,0.0,1,3806.0,1
727,727,-0.4959873050755186,-0.5,1.0,0.0,255.0,562.0,0.0,0,4183.0,1
728,728,0.13120179481002026,0.1,0.0,0.0,462.0,520.0,0.0,1,4018.0,1
729,729,-0.8815182802095536,-0.9,0.0,1.0,313.0,522.0,0.0,1,4165.0,0
730,730,0.5602116595433347,0.6,0.0,0.0,397.0,851.0,1.0,0,-1208.0,0
731,731,0.09587507724934674,0.1,1.0,1.0,361.0,934.0,0.0,0,3705.0,0
732,732,-0.6025929816498601,-0.6,1.0,0.0,343.0,563.0,0.0,0,4094.0,1
733,733,0.2447990084757955,0.2,1.0,1.0,304.0,704.0,0.0,0,-958.0,0
734,734,-0.1826464469694422,-0.2,0.0,1.0,430.0,872.0,1.0,0,-1192.0,1
735,735,-0.8218392221328509,-0.8,0.0,1.0,448.0,605.0,0.0,1,3947.0,0
736,736,0.38470534230465947,0.4,0.0,0.0,461.0,902.0,0.0,1,3637.0,1
737,737,0.3511250251999182,0.4,0.0,0.0,396.0,715.0,0.0,1,3889.0,1
738,738,0.3131792039733804,0.3,0.0,0.0,419.0,719.0,0.0,1,3862.0,1
739,739,0.7837128043280578,0.8,0.0,0.0,464.0,600.0,1.0,0,-994.0,0
740,740,0.5530125420435138,0.6,1.0,1.0,285.0,702.0,0.0,0,4013.0,0
741,741,0.3241249015034283,0.3,1.0,1.0,260.0,849.0,1.0,1,-1079.0,1
742,742,-0.38974055129881047,-0.4,0.0,1.0,376.0,596.0,0.0,1,4028.0,0
743,743,0.17806375469988256,0.2,0.0,0.0,460.0,552.0,0.0,1,3988.0,1
744,744,0.04298247354761375,0.0,0.0,0.0,405.0,701.0,0.0,1,3894.0,1
745,745,0.713158462911058,0.7,0.0,0.0,321.0,580.0,0.0,1,4099.0,1
746,746,0.8935040791468029,0.9,0.0,0.0,382.0,992.0,0.0,1,3626.0,1
747,747,-0.5016507852858744,-0.5,0.0,1.0,333.0,834.0,0.0,1,3833.0,0
748,748,-0.14033233165652537,-0.1,0.0,1.0,250.0,612.0,0.0,1,4138.0,0
749,749,-0.7157758454847747,-0.7,1.0,0.0,290.0,780.0,0.0,0,3930.0,1
750,750,0.2767360397025206,0.3,0.0,0.0,439.0,936.0,0.0,1,3625.0,1
751,751,0.8550612093584539,0.9,0.0,0.0,258.0,984.0,0.0,1,3758.0,1
752,752,-0.12108409975113443,-0.1,0.0,1.0,361.0,538.0,0.0,1,4101.0,0
753,753,-0.7832456639478407,-0.8,0.0,1.0,261.0,690.0,0.0,1,4049.0,0
754,754,-0.1363154908427502,-0.1,1.0,0.0,266.0,524.0,0.0,0,4210.0,1
755,755,0.22313191988550518,0.2,1.0,1.0,306.0,578.0,0.0,0,4116.0,0
756,756,0.1598154173740317,0.2,0.0,0.0,376.0,542.0,0.0,1,4082.0,1
757,757,-0.03766852683617561,-0.0,1.0,0.0,391.0,640.0,0.0,0,3969.0,1
758,758,0.41127618917586617,0.4,0.0,0.0,419.0,693.0,0.0,1,3888.0,1
759,759,-0.8008049854904397,-0.8,0.0,1.0,429.0,866.0,0.0,1,3705.0,0
760,760,0.759031054382887,0.8,1.0,1.0,454.0,781.0,0.0,0,3765.0,0
761,761,0.4978342745817167,0.5,0.0,0.0,480.0,796.0,0.0,1,3724.0,1
762,762,-0.5958233684473128,-0.6,1.0,0.0,445.0,587.0,0.0,0,3968.0,1
763,763,-0.3596292417510393,-0.4,1.0,0.0,399.0,887.0,0.0,0,3714.0,1
764,764,-0.4915701252790441,-0.5,0.0,1.0,469.0,979.0,0.0,1,3552.0,0
765,765,0.12513330630870445,0.1,1.0,1.0,314.0,568.0,0.0,0,4118.0,0
766,766,-0.24724839318017688,-0.2,1.0,0.0,264.0,883.0,0.0,0,3853.0,1
767,767,0.3770284770192146,0.4,1.0,1.0,284.0,719.0,0.0,0,3997.0,0
768,768,-0.08511420099767975,-0.1,0.0,1.0,496.0,949.0,0.0,1,3555.0,0
769,769,0.020491289156525316,0.0,1.0,1.0,293.0,981.0,0.0,0,3726.0,0
770,770,-0.7852332190478906,-0.8,1.0,0.0,402.0,653.0,0.0,0,3945.0,1
771,771,-0.06799263052762095,-0.1,1.0,0.0,331.0,961.0,1.0,1,-1182.0,0
772,772,0.70438219103998,0.7,0.0,0.0,469.0,838.0,0.0,1,3693.0,1
773,773,0.7521414367265599,0.8,0.0,0.0,271.0,766.0,0.0,1,3963.0,1
774,774,0.35417202692547256,0.4,0.0,0.0,305.0,505.0,0.0,1,4190.0,1
775,775,0.7306885027267179,0.7,0.0,0.0,296.0,886.0,0.0,1,3818.0,1
776,776,0.062377185467072715,0.1,0.0,0.0,462.0,631.0,0.0,1,3907.0,1
777,777,-0.6840106160947099,-0.7,0.0,1.0,429.0,757.0,0.0,1,3814.0,0
778,778,-0.7377097679173871,-0.7,1.0,0.0,445.0,717.0,0.0,0,3838.0,1
779,779,-0.2947665722891907,-0.3,0.0,1.0,250.0,814.0,0.0,1,3936.0,0
780,780,0.666712300678049,0.7,0.0,0.0,263.0,506.0,0.0,1,4231.0,1
781,781,0.7576715041641714,0.8,1.0,1.0,296.0,504.0,0.0,0,4200.0,0
782,782,-0.7672898834952279,-0.8,0.0,1.0,276.0,916.0,0.0,1,3808.0,0
783,783,0.6857762307610858,0.7,0.0,0.0,431.0,637.0,0.0,1,3932.0,1
784,784,-0.8401894852732479,-0.8,1.0,0.0,370.0,909.0,0.0,0,3721.0,1
785,785,0.21195438480018225,0.2,0.0,0.0,282.0,614.0,0.0,1,4104.0,1
786,786,-0.241016298367419,-0.2,1.0,0.0,344.0,644.0,0.0,0,4012.0,1
787,787,0.2379276604014301,0.2,1.0,1.0,457.0,736.0,0.0,0,3807.0,0
788,788,0.2079060504306235,0.2,1.0,1.0,384.0,553.0,0.0,0,4063.0,0
789,789,0.48504530435104176,0.5,0.0,0.0,263.0,983.0,0.0,1,-1186.0,1
790,790,-0.238662125203439,-0.2,0.0,1.0,415.0,556.0,0.0,1,4029.0,0
791,791,-0.039656623766657906,-0.0,1.0,0.0,255.0,685.0,0.0,0,4060.0,1
792,792,-0.1719064294800814,-0.2,0.0,1.0,436.0,794.0,0.0,1,-1160.0,0
793,793,0.4345406145396703,0.4,1.0,1.0,438.0,717.0,1.0,1,-985.0,1
794,794,-0.284779436764085,-0.3,0.0,1.0,359.0,636.0,0.0,1,4005.0,0
795,795,-0.2733671898507125,-0.3,1.0,0.0,434.0,626.0,1.0,1,-900.0,0
796,796,-0.16794791070529547,-0.2,0.0,1.0,304.0,901.0,0.0,1,3795.0,0
797,797,-0.42313793162661195,-0.4,1.0,0.0,434.0,519.0,0.0,0,4047.0,1
798,798,-0.47593877579870275,-0.5,0.0,1.0,301.0,792.0,0.0,1,3907.0,0
799,799,0.4121899962137271,0.4,1.0,1.0,438.0,564.0,0.0,0,3998.0,0
800,800,0.7101800362359133,0.7,0.0,0.0,345.0,518.0,0.0,1,4137.0,1
801,801,0.3851604321340093,0.4,1.0,1.0,261.0,621.0,0.0,0,4118.0,0
802,802,-0.6136195062965755,-0.6,1.0,0.0,349.0,915.0,0.0,0,3736.0,1
803,803,0.30439569734266414,0.3,0.0,0.0,444.0,982.0,0.0,1,3574.0,1
804,804,-0.23001325834735253,-0.2,1.0,0.0,298.0,631.0,0.0,0,4071.0,1
805,805,0.5084269829621236,0.5,1.0,1.0,422.0,787.0,0.0,0,-1159.0,0
806,806,0.007281743560660803,0.0,1.0,1.0,307.0,625.0,0.0,0,4068.0,0
807,807,-0.8920422481188724,-0.9,0.0,1.0,440.0,761.0,0.0,1,3799.0,0
808,808,-0.6908422492575057,-0.7,1.0,0.0,400.0,503.0,1.0,1,-813.0,0
809,809,-0.44707168214041915,-0.4,0.0,1.0,377.0,638.0,0.0,1,3985.0,0
810,810,0.07773592384096994,0.1,1.0,1.0,424.0,980.0,0.0,0,3596.0,0
811,811,0.5819865936373453,0.6,1.0,1.0,385.0,747.0,0.0,0,3868.0,0
812,812,-0.3760902658239301,-0.4,0.0,1.0,303.0,774.0,0.0,1,-1057.0,0
813,813,-0.31785278780692083,-0.3,1.0,0.0,256.0,838.0,0.0,0,3906.0,1
814,814,0.4412294082674125,0.4,1.0,1.0,474.0,984.0,0.0,0,3542.0,0
815,815,0.19180285618514648,0.2,1.0,1.0,467.0,791.0,0.0,0,3742.0,0
816,816,-0.06252192365100995,-0.1,1.0,0.0,325.0,732.0,0.0,0,3943.0,1
817,817,-0.8537232271263423,-0.9,1.0,0.0,459.0,637.0,0.0,0,3904.0,1
818,818,0.0630831407902559,0.1,0.0,0.0,321.0,541.0,0.0,1,4138.0,1
819,819,-0.6629079177265047,-0.7,0.0,1.0,343.0,869.0,0.0,1,3788.0,0
820,820,0.8729127289596011,0.9,0.0,0.0,355.0,549.0,0.0,1,4096.0,1
821,821,-0.8738185520483683,-0.9,0.0,1.0,485.0,729.0,0.0,1,3786.0,0
822,822,0.27653851741205926,0.3,0.0,0.0,430.0,814.0,0.0,1,3756.0,1
823,823,-0.5488437109191364,-0.5,0.0,1.0,317.0,985.0,1.0,0,-1022.0,1
824,824,0.15157700884979108,0.2,0.0,0.0,384.0,591.0,0.0,1,4025.0,1
825,825,0.1407952590620961,0.1,0.0,0.0,298.0,696.0,0.0,1,4006.0,1
826,826,0.11648242397390252,0.1,1.0,1.0,437.0,960.0,0.0,0,-1377.0,0
827,827,-0.5913253351564206,-0.6,1.0,0.0,295.0,950.0,0.0,0,3755.0,1
828,828,-0.5241405643304962,-0.5,0.0,1.0,383.0,853.0,0.0,1,3764.0,0
829,829,0.5368028300775379,0.5,1.0,1.0,375.0,868.0,0.0,0,-1023.0,0
830,830,0.47330110714714924,0.5,1.0,1.0,485.0,665.0,0.0,0,3850.0,0
831,831,0.7181830235029935,0.7,0.0,0.0,276.0,944.0,0.0,1,3780.0,1
832,832,0.5603220624067612,0.6,1.0,1.0,397.0,951.0,0.0,0,3652.0,0
833,833,-0.16446345617166114,-0.2,1.0,0.0,439.0,671.0,0.0,0,3890.0,1
834,834,0.4169193043645124,0.4,0.0,0.0,328.0,863.0,0.0,1,3809.0,1
835,835,0.21775275796803129,0.2,1.0,1.0,311.0,515.0,0.0,0,-806.0,0
836,836,0.6843461691960201,0.7,1.0,1.0,493.0,624.0,0.0,0,3883.0,0
837,837,-0.5100361681423067,-0.5,1.0,0.0,268.0,954.0,0.0,0,3778.0,1
838,838,-0.802744672199259,-0.8,0.0,1.0,379.0,659.0,0.0,1,3962.0,0
839,839,-0.6838399514545461,-0.7,0.0,1.0,315.0,681.0,0.0,1,4004.0,0
840,840,-0.5662480710058786,-0.6,0.0,1.0,274.0,856.0,1.0,0,-1080.0,1
841,841,-0.8701435249846112,-0.9,1.0,0.0,259.0,506.0,0.0,0,-595.0,1
842,842,0.39361017808134136,0.4,0.0,0.0,345.0,969.0,0.0,1,3686.0,1
843,843,0.4511187139499008,0.5,1.0,1.0,392.0,933.0,0.0,0,3675.0,0
844,844,0.7378403220454687,0.7,0.0,0.0,286.0,628.0,0.0,1,4086.0,1
845,845,-0.7028374820123882,-0.7,1.0,0.0,482.0,703.0,0.0,0,3815.0,1
846,846,-0.7222236535721347,-0.7,0.0,1.0,386.0,585.0,0.0,1,4029.0,0
847,847,-0.5750273323357059,-0.6,0.0,1.0,440.0,542.0,0.0,1,4018.0,0
848,848,0.24511289640572442,0.2,0.0,0.0,266.0,602.0,0.0,1,4132.0,1
849,849,0.3328000157493852,0.3,0.0,0.0,343.0,659.0,0.0,1,3998.0,1
850,850,0.6924934677111613,0.7,1.0,1.0,489.0,942.0,0.0,0,3569.0,0
851,851,-0.16937921013858748,-0.2,0.0,1.0,331.0,956.0,0.0,1,-1267.0,0
852,852,0.4929802190567495,0.5,0.0,0.0,453.0,572.0,0.0,1,-955.0,1
853,853,0.2936711053532107,0.3,0.0,0.0,367.0,915.0,0.0,1,3718.0,1
854,854,0.8292030646076466,0.8,1.0,1.0,298.0,629.0,0.0,0,4073.0,0
855,855,-0.05318766245693407,-0.1,0.0,1.0,297.0,849.0,0.0,1,3854.0,0
856,856,-0.5588328121032611,-0.6,0.0,1.0,379.0,708.0,0.0,1,3913.0,0
857,857,0.1082191605125632,0.1,0.0,0.0,256.0,991.0,0.0,1,3753.0,1
858,858,-0.741179409744039,-0.7,0.0,1.0,394.0,636.0,0.0,1,3970.0,0
859,859,0.7303718178858088,0.7,1.0,1.0,484.0,986.0,0.0,0,3530.0,0
860,860,-0.8481799332674163,-0.8,0.0,1.0,430.0,649.0,0.0,1,3921.0,0
861,861,0.4822192990038362,0.5,1.0,1.0,347.0,503.0,0.0,0,-770.0,0
862,862,-0.3775675716092355,-0.4,1.0,0.0,342.0,514.0,0.0,0,4144.0,1
863,863,0.6501980255837018,0.7,0.0,0.0,468.0,506.0,0.0,1,4026.0,1
864,864,0.4081437279230288,0.4,0.0,0.0,480.0,963.0,0.0,1,3557.0,1
865,865,0.1944869435461768,0.2,1.0,1.0,469.0,696.0,0.0,0,3835.0,0
866,866,-0.5491390390077104,-0.5,0.0,1.0,337.0,678.0,0.0,1,3985.0,0
867,867,0.3541886185728099,0.4,1.0,1.0,429.0,566.0,0.0,0,4005.0,0
868,868,0.5092707466186691,0.5,1.0,1.0,411.0,898.0,0.0,0,3691.0,0
869,869,-0.5263357481048003,-0.5,0.0,1.0,454.0,603.0,0.0,1,3943.0,0
870,870,-0.2155182894810218,-0.2,1.0,0.0,395.0,636.0,0.0,0,3969.0,1
871,871,0.19807494795126435,0.2,0.0,0.0,370.0,613.0,0.0,1,4017.0,1
872,872,-0.06878433219021574,-0.1,1.0,0.0,491.0,992.0,0.0,0,3517.0,1
873,873,-0.18484779409639962,-0.2,0.0,1.0,320.0,835.0,0.0,1,3845.0,0
874,874,0.21714350963859397,0.2,0.0,0.0,425.0,645.0,0.0,1,3930.0,1
875,875,-0.2220936204193389,-0.2,1.0,0.0,341.0,598.0,0.0,0,4061.0,1
876,876,0.5961702385651025,0.6,0.0,0.0,342.0,990.0,0.0,1,3668.0,1
877,877,0.04507878089398287,0.0,1.0,1.0,445.0,599.0,0.0,0,3956.0,0
878,878,-0.5707232100838031,-0.6,0.0,1.0,305.0,658.0,0.0,1,-933.0,0
879,879,-0.4054176175847259,-0.4,0.0,1.0,480.0,801.0,0.0,1,3719.0,0
880,880,-0.8456704936556717,-0.8,0.0,1.0,487.0,575.0,0.0,1,3938.0,0
881,881,0.5948074013582617,0.6,0.0,0.0,388.0,691.0,0.0,1,3921.0,1
882,882,-0.2517512266261053,-0.3,1.0,0.0,311.0,730.0,0.0,0,3959.0,1
883,883,-0.6987686812720524,-0.7,0.0,1.0,298.0,873.0,0.0,1,3829.0,0
884,884,-0.24047957512856966,-0.2,1.0,0.0,274.0,796.0,0.0,0,3930.0,1
885,885,-0.6549421717633237,-0.7,1.0,0.0,290.0,640.0,0.0,0,4070.0,1
886,886,-0.03890925119700073,-0.0,1.0,0.0,253.0,905.0,0.0,0,3842.0,1
887,887,-0.5720439442639942,-0.6,0.0,1.0,395.0,648.0,0.0,1,3957.0,0
888,888,0.7361533746275087,0.7,1.0,1.0,287.0,610.0,0.0,0,4103.0,0
889,889,0.6457441553150952,0.6,1.0,1.0,271.0,737.0,0.0,0,3992.0,0
890,890,-0.37859320116327666,-0.4,1.0,0.0,314.0,655.0,0.0,0,4031.0,1
891,891,-0.4519508064917336,-0.5,1.0,0.0,380.0,972.0,0.0,0,3648.0,1
892,892,0.004573007876961244,0.0,0.0,0.0,450.0,699.0,0.0,1,3851.0,1
893,893,0.22264119834989715,0.2,1.0,1.0,320.0,931.0,0.0,0,3749.0,0
894,894,-0.6092522357979422,-0.6,1.0,0.0,458.0,827.0,0.0,0,3715.0,1
895,895,-0.44885215603868345,-0.4,1.0,0.0,479.0,659.0,0.0,0,3862.0,1
896,896,-0.8347415700503639,-0.8,1.0,0.0,268.0,771.0,0.0,0,3961.0,1
897,897,-0.1294061913398562,-0.1,0.0,1.0,369.0,563.0,0.0,1,4068.0,0
898,898,-0.6012485908396467,-0.6,0.0,1.0,355.0,978.0,0.0,1,3667.0,0
899,899,-0.7692080745323255,-0.8,1.0,0.0,275.0,713.0,0.0,0,4012.0,1
900,900,0.6064376985813779,0.6,1.0,1.0,329.0,787.0,0.0,0,3884.0,0
901,901,-0.7318990019717676,-0.7,1.0,0.0,443.0,974.0,0.0,0,3583.0,1
902,902,0.2498517928835321,0.2,0.0,0.0,314.0,856.0,0.0,1,3830.0,1
903,903,-0.4900965319265425,-0.5,1.0,0.0,461.0,831.0,0.0,0,3708.0,1
904,904,-0.21814909379067948,-0.2,1.0,0.0,290.0,817.0,0.0,0,3893.0,1
905,905,0.3343801827302816,0.3,1.0,1.0,341.0,759.0,0.0,0,3900.0,0
906,906,0.8388210391721512,0.8,1.0,1.0,301.0,508.0,0.0,0,4191.0,0
907,907,-0.6342519803533366,-0.6,1.0,0.0,352.0,927.0,0.0,0,3721.0,1
908,908,-0.498932963039965,-0.5,1.0,0.0,443.0,960.0,0.0,0,3597.0,1
909,909,0.45641169233885404,0.5,0.0,0.0,478.0,968.0,0.0,1,3554.0,1
910,910,0.18570337561363026,0.2,1.0,1.0,482.0,797.0,1.0,1,-1269.0,1
911,911,-0.5678915364319235,-0.6,1.0,0.0,482.0,689.0,0.0,0,3829.0,1
912,912,-0.226192107448698,-0.2,0.0,1.0,289.0,902.0,0.0,1,3809.0,0
913,913,0.4110419909396482,0.4,1.0,1.0,374.0,610.0,0.0,0,4016.0,0
914,914,-0.14615458378912805,-0.1,0.0,1.0,363.0,724.0,0.0,1,3913.0,0
915,915,0.8917394550330889,0.9,1.0,1.0,301.0,895.0,0.0,0,3804.0,0
916,916,0.699386766404852,0.7,1.0,1.0,277.0,753.0,0.0,0,3970.0,0
917,917,-0.10299046125963918,-0.1,1.0,0.0,373.0,674.0,0.0,0,-997.0,1
918,918,0.16020287089140883,0.2,1.0,1.0,416.0,572.0,0.0,0,4012.0,0
919,919,-0.4879157259351362,-0.5,0.0,1.0,325.0,619.0,0.0,1,4056.0,0
920,920,0.003006232428433453,0.0,0.0,0.0,445.0,700.0,0.0,1,3855.0,1
921,921,-0.5003997640393356,-0.5,0.0,1.0,305.0,784.0,0.0,1,3911.0,0
922,922,0.3767102616085872,0.4,1.0,1.0,250.0,584.0,0.0,0,4166.0,0
923,923,0.29857357320086486,0.3,0.0,0.0,320.0,866.0,0.0,1,3814.0,1
924,924,0.18675279907040754,0.2,1.0,1.0,479.0,628.0,0.0,0,3893.0,0
925,925,0.404327507640721,0.4,1.0,1.0,379.0,515.0,0.0,0,4106.0,0
926,926,-0.4804763359492624,-0.5,1.0,0.0,273.0,806.0,0.0,0,3921.0,1
927,927,0.14665399185789185,0.1,1.0,1.0,364.0,734.0,0.0,0,3902.0,0
928,928,0.6334637989614554,0.6,1.0,1.0,273.0,539.0,0.0,0,4188.0,0
929,929,-0.3777644224617296,-0.4,1.0,0.0,484.0,593.0,0.0,0,-1037.0,1
930,930,-0.3798381058932615,-0.4,0.0,1.0,403.0,997.0,0.0,1,3600.0,0
931,931,0.3208178821102533,0.3,0.0,0.0,403.0,791.0,0.0,1,3806.0,1
932,932,0.5911579348629187,0.6,1.0,1.0,453.0,793.0,0.0,0,3754.0,0
933,933,-0.8664844529619878,-0.9,1.0,0.0,398.0,645.0,0.0,0,3957.0,1
934,934,-0.03418138617766675,-0.0,0.0,1.0,252.0,830.0,0.0,1,3918.0,0
935,935,0.14967678770840476,0.1,1.0,1.0,312.0,628.0,0.0,0,4060.0,0
936,936,-0.4221074368161188,-0.4,0.0,1.0,425.0,978.0,0.0,1,3597.0,0
937,937,0.7839717804935237,0.8,0.0,0.0,338.0,529.0,0.0,1,4133.0,1
938,938,-0.3360053310711515,-0.3,1.0,0.0,471.0,504.0,0.0,0,4025.0,1
939,939,-0.45021968309061433,-0.5,0.0,1.0,444.0,625.0,0.0,1,3931.0,0
940,940,0.6729901253185858,0.7,0.0,0.0,471.0,504.0,0.0,1,4025.0,1
941,941,-0.12197871466608268,-0.1,1.0,0.0,428.0,936.0,0.0,0,3636.0,1
942,942,-0.572582532732063,-0.6,1.0,0.0,340.0,782.0,0.0,0,3878.0,1
943,943,-0.4916768534840515,-0.5,0.0,1.0,334.0,964.0,0.0,1,3702.0,0
944,944,0.7590103979956596,0.8,1.0,1.0,297.0,538.0,0.0,0,4165.0,0
945,945,-0.3810265424451855,-0.4,0.0,1.0,268.0,910.0,0.0,1,3822.0,0
946,946,0.3857902095982907,0.4,1.0,1.0,421.0,726.0,0.0,0,3853.0,0
947,947,-0.6168185023212764,-0.6,1.0,0.0,333.0,593.0,0.0,0,4074.0,1
948,948,0.1478701281181779,0.1,1.0,1.0,423.0,971.0,0.0,0,3606.0,0
949,949,0.25719290886090984,0.3,0.0,0.0,447.0,898.0,0.0,1,3655.0,1
950,950,-0.8062230648577328,-0.8,1.0,0.0,366.0,974.0,0.0,0,3660.0,1
951,951,0.2640153668816366,0.3,1.0,1.0,339.0,714.0,0.0,0,3947.0,0
952,952,0.3184180601236274,0.3,0.0,0.0,462.0,649.0,0.0,1,3889.0,1
953,953,0.4238943061279653,0.4,0.0,0.0,419.0,803.0,0.0,1,3778.0,1
954,954,0.12606455779199155,0.1,1.0,1.0,438.0,567.0,0.0,0,3995.0,0
955,955,0.659450947710508,0.7,1.0,1.0,446.0,896.0,0.0,0,3658.0,0
956,956,-0.23230096815225887,-0.2,1.0,0.0,314.0,746.0,0.0,0,3940.0,1
957,957,-0.7106917271501212,-0.7,1.0,0.0,447.0,589.0,0.0,0,3964.0,1
958,958,-0.08841990285657819,-0.1,0.0,1.0,291.0,556.0,0.0,1,4153.0,0
959,959,0.5293438247259293,0.5,0.0,0.0,411.0,815.0,0.0,1,3774.0,1
960,960,-0.13016157993895283,-0.1,1.0,0.0,441.0,994.0,0.0,0,3565.0,1
961,961,-0.2885463819095452,-0.3,0.0,1.0,472.0,528.0,0.0,1,4000.0,0
962,962,0.40540030772855495,0.4,0.0,0.0,271.0,548.0,0.0,1,4181.0,1
963,963,-0.1976197090722338,-0.2,0.0,1.0,482.0,549.0,0.0,1,3969.0,0
964,964,-0.12248937867524101,-0.1,1.0,0.0,396.0,916.0,0.0,0,3688.0,1
965,965,0.5985732358922905,0.6,1.0,1.0,404.0,776.0,0.0,0,3820.0,0
966,966,0.42435315192099543,0.4,0.0,0.0,413.0,657.0,0.0,1,3930.0,1
967,967,-0.3625207441092363,-0.4,1.0,0.0,424.0,883.0,0.0,0,-1137.0,1
968,968,0.643880270966605,0.6,1.0,1.0,388.0,574.0,0.0,0,-952.0,0
969,969,-0.29230489123430903,-0.3,1.0,0.0,473.0,755.0,0.0,0,3772.0,1
970,970,0.8554317773350405,0.9,0.0,0.0,316.0,889.0,0.0,1,3795.0,1
971,971,-0.7980886912135069,-0.8,0.0,1.0,374.0,974.0,0.0,1,3652.0,0
972,972,0.2951517665561386,0.3,0.0,0.0,299.0,968.0,0.0,1,3733.0,1
973,973,-0.739035587302341,-0.7,1.0,0.0,270.0,965.0,0.0,0,3765.0,1
974,974,0.17725364756355944,0.2,1.0,1.0,423.0,865.0,0.0,0,3712.0,0
975,975,0.4598131388040395,0.5,1.0,1.0,354.0,720.0,0.0,0,3926.0,0
976,976,-0.5251459990140268,-0.5,0.0,1.0,302.0,797.0,0.0,1,3901.0,0
977,977,0.6576500861615392,0.7,1.0,1.0,470.0,643.0,0.0,0,3887.0,0
978,978,-0.37636613147436426,-0.4,1.0,0.0,313.0,874.0,0.0,0,3813.0,1
979,979,0.2095074953741075,0.2,0.0,0.0,285.0,503.0,0.0,1,4212.0,1
980,980,0.3649501069423361,0.4,1.0,1.0,335.0,564.0,0.0,0,4101.0,0
981,981,-0.685045000006878,-0.7,0.0,1.0,409.0,609.0,0.0,1,3982.0,0
982,982,0.2338392949118676,0.2,0.0,0.0,383.0,597.0,0.0,1,4020.0,1
983,983,0.6905694212890235,0.7,1.0,1.0,459.0,790.0,0.0,0,-1219.0,0
984,984,0.182595990212855,0.2,1.0,1.0,472.0,714.0,0.0,0,3814.0,0
985,985,-0.667076126929512,-0.7,0.0,1.0,260.0,651.0,0.0,1,4089.0,0
986,986,0.11845272925346173,0.1,0.0,0.0,375.0,584.0,0.0,1,4041.0,1
987,987,0.5471819207686978,0.5,1.0,1.0,490.0,619.0,0.0,0,3891.0,0
988,988,0.4853956115082586,0.5,1.0,1.0,346.0,848.0,0.0,0,3806.0,0
989,989,-0.6663519153374515,-0.7,1.0,0.0,395.0,680.0,0.0,0,3925.0,1
990,990,-0.3709840614638593,-0.4,1.0,0.0,456.0,719.0,0.0,0,3825.0,1
991,991,-0.7984185525040793,-0.8,0.0,1.0,474.0,762.0,0.0,1,3764.0,0
992,992,0.6107340502889848,0.6,0.0,0.0,340.0,904.0,0.0,1,3756.0,1
993,993,-0.2802623217467718,-0.3,1.0,0.0,259.0,572.0,0.0,0,4169.0,1
994,994,-0.07449439157476523,-0.1,0.0,1.0,313.0,567.0,0.0,1,4120.0,0
995,995,0.5839930678603359,0.6,0.0,0.0,292.0,799.0,0.0,1,3909.0,1
996,996,-0.8911858754793675,-0.9,0.0,1.0,346.0,956.0,0.0,1,3698.0,0
997,997,0.5686707375278269,0.6,0.0,0.0,367.0,526.0,0.0,1,4107.0,1
998,998,-0.5947593935609579,-0.6,0.0,1.0,456.0,935.0,0.0,1,3609.0,0
999,999,-0.4791671307213798,-0.5,1.0,0.0,450.0,970.0,0.0,0,3580.0,1
1000,1000,0.6499890624633794,0.6,0.0,0.0,352.0,866.0,0.0,1,3782.0,1
1001,1001,-0.6038099785920379,-0.6,0.0,1.0,353.0,733.0,0.0,1,3914.0,0
1002,1002,-0.21401371487433052,-0.2,0.0,1.0,282.0,651.0,0.0,1,4067.0,0
1003,1003,0.6137010503033872,0.6,1.0,1.0,305.0,944.0,0.0,0,3751.0,0
1004,1004,0.05448446339315849,0.1,1.0,1.0,320.0,635.0,0.0,0,-945.0,0
1005,1005,0.4114869030568923,0.4,1.0,1.0,301.0,962.0,0.0,0,3737.0,0
1006,1006,-0.7034772922162099,-0.7,0.0,1.0,382.0,856.0,0.0,1,3762.0,0
1007,1007,0.23212925686972274,0.2,0.0,0.0,393.0,869.0,0.0,1,3738.0,1
1008,1008,-0.7191857817389363,-0.7,0.0,1.0,406.0,788.0,0.0,1,3806.0,0
1009,1009,0.7249666490418115,0.7,1.0,1.0,406.0,948.0,0.0,0,3646.0,0
1010,1010,-0.4718358411629547,-0.5,1.0,0.0,358.0,724.0,0.0,0,3918.0,1
1011,1011,-0.3077276375566951,-0.3,0.0,1.0,412.0,825.0,0.0,1,3763.0,0
1012,1012,0.35630205089146993,0.4,1.0,1.0,275.0,852.0,0.0,0,3873.0,0
1013,1013,0.5096594010174887,0.5,0.0,0.0,482.0,504.0,0.0,1,4014.0,1
1014,1014,-0.6337847237109487,-0.6,1.0,0.0,403.0,775.0,0.0,0,3822.0,1
1015,1015,-0.7043191295447624,-0.7,1.0,0.0,425.0,862.0,0.0,0,3713.0,1
1016,1016,-0.898954216022223,-0.9,1.0,0.0,295.0,928.0,0.0,0,3777.0,1
1017,1017,-0.2598284487083087,-0.3,1.0,0.0,393.0,558.0,0.0,0,4049.0,1
1018,1018,-0.7527332646442174,-0.8,0.0,1.0,376.0,600.0,1.0,0,-926.0,1
1019,1019,-0.8759634383945217,-0.9,1.0,0.0,357.0,917.0,0.0,0,3726.0,1
1020,1020,0.24349968171188563,0.2,0.0,0.0,449.0,741.0,0.0,1,3810.0,1
1021,1021,0.5992636006516209,0.6,1.0,1.0,286.0,860.0,0.0,0,3854.0,0
1022,1022,-0.5087114099591876,-0.5,0.0,1.0,417.0,951.0,1.0,0,-1348.0,1
1023,1023,-0.2662058841895232,-0.3,1.0,0.0,337.0,688.0,0.0,0,3975.0,1
1024,1024,-0.41573583531224134,-0.4,0.0,1.0,331.0,794.0,0.0,1,3875.0,0
1025,1025,-0.09842201255292415,-0.1,1.0,0.0,262.0,993.0,0.0,0,3745.0,1
1026,1026,0.4926385032904651,0.5,0.0,0.0,415.0,593.0,0.0,1,-1008.0,1
1027,1027,-0.5679704432234088,-0.6,1.0,0.0,255.0,760.0,0.0,0,3985.0,1
1028,1028,-0.7688471545702693,-0.8,1.0,0.0,381.0,653.0,0.0,0,3966.0,1
1029,1029,-0.151932602968042,-0.2,1.0,0.0,273.0,992.0,0.0,0,3735.0,1
1030,1030,0.6013456313309787,0.6,1.0,1.0,297.0,784.0,0.0,0,3919.0,0
1031,1031,0.041961935848092935,0.0,0.0,0.0,263.0,501.0,0.0,1,4236.0,1
1032,1032,-0.8807486755353413,-0.9,1.0,0.0,439.0,955.0,0.0,0,3606.0,1
1033,1033,0.8988177288699711,0.9,0.0,0.0,387.0,737.0,0.0,1,3876.0,1
1034,1034,-0.7310071508328276,-0.7,0.0,1.0,398.0,508.0,0.0,1,4094.0,0
1035,1035,-0.8639425041371994,-0.9,1.0,0.0,304.0,615.0,0.0,0,4081.0,1
1036,1036,0.7747168123198428,0.8,1.0,1.0,481.0,655.0,0.0,0,3864.0,0
1037,1037,0.22465360535995738,0.2,1.0,1.0,494.0,887.0,0.0,0,3619.0,0
1038,1038,0.11356039334045664,0.1,0.0,0.0,479.0,632.0,0.0,1,3889.0,1
1039,1039,0.6207142205526209,0.6,0.0,0.0,398.0,747.0,0.0,1,3855.0,1
1040,1040,0.2548895418219511,0.3,0.0,0.0,304.0,636.0,0.0,1,4060.0,1
1041,1041,0.41781031708054284,0.4,1.0,1.0,319.0,808.0,0.0,0,3873.0,0
1042,1042,-0.5980870026928442,-0.6,0.0,1.0,273.0,554.0,0.0,1,4173.0,0
1043,1043,0.8344642909273997,0.8,0.0,0.0,451.0,748.0,0.0,1,-1099.0,1
1044,1044,0.32660061288826514,0.3,1.0,1.0,361.0,659.0,0.0,0,3980.0,0
1045,1045,-0.8546944040541123,-0.9,0.0,1.0,484.0,677.0,0.0,1,3839.0,0
1046,1046,-0.19374247256057897,-0.2,0.0,1.0,316.0,550.0,0.0,1,4134.0,0
1047,1047,-0.31062241780449995,-0.3,1.0,0.0,293.0,946.0,0.0,0,3761.0,1
1048,1048,0.5232997631023285,0.5,1.0,1.0,478.0,763.0,0.0,0,-1081.0,0
1049,1049,-0.21535007277516527,-0.2,1.0,0.0,488.0,742.0,0.0,0,3770.0,1
1050,1050,-0.058186538481544425,-0.1,1.0,0.0,437.0,519.0,0.0,0,4044.0,1
1051,1051,-0.7984621519893662,-0.8,1.0,0.0,486.0,959.0,0.0,0,3555.0,1
1052,1052,0.5768780970306903,0.6,1.0,1.0,497.0,746.0,0.0,0,3757.0,0
1053,1053,0.4746824866221401,0.5,1.0,1.0,285.0,519.0,0.0,0,4196.0,0
1054,1054,0.34318734851011257,0.3,1.0,1.0,399.0,962.0,0.0,0,3639.0,0
1055,1055,0.7643473195591609,0.8,0.0,0.0,346.0,802.0,0.0,1,3852.0,1
1056,1056,-0.6168766207469516,-0.6,1.0,0.0,471.0,793.0,1.0,1,-1154.0,0
1057,1057,0.11669359245514144,0.1,0.0,0.0,302.0,589.0,0.0,1,4109.0,1
1058,1058,0.35320704580053686,0.4,1.0,1.0,448.0,678.0,0.0,0,3874.0,0
1059,1059,0.10984080061761647,0.1,0.0,0.0,382.0,961.0,0.0,1,3657.0,1
1060,1060,-0.013545946290239974,-0.0,1.0,0.0,282.0,766.0,0.0,0,3952.0,1
1061,1061,-0.5637378931064287,-0.6,0.0,1.0,336.0,922.0,0.0,1,3742.0,0
1062,1062,0.826159146774693,0.8,0.0,0.0,255.0,881.0,0.0,1,3864.0,1
1063,1063,-0.6169744510695983,-0.6,0.0,1.0,472.0,906.0,0.0,1,-1328.0,0
1064,1064,0.1349443535196725,0.1,0.0,0.0,437.0,879.0,0.0,1,3684.0,1
1065,1065,-0.24680775157492352,-0.2,0.0,1.0,361.0,953.0,0.0,1,3686.0,0
1066,1066,0.4658734511036514,0.5,1.0,1.0,467.0,777.0,0.0,0,3756.0,0
1067,1067,0.7519391471848705,0.8,0.0,0.0,454.0,738.0,0.0,1,3808.0,1
1068,1068,0.8389093703851681,0.8,1.0,1.0,469.0,665.0,0.0,0,3866.0,0
1069,1069,-0.03445536514000569,-0.0,1.0,0.0,415.0,766.0,0.0,0,3819.0,1
1070,1070,0.28920435359632213,0.3,0.0,0.0,453.0,926.0,0.0,1,3621.0,1
1071,1071,0.054997440103234485,0.1,0.0,0.0,293.0,809.0,0.0,1,3898.0,1
1072,1072,-0.20987079021862876,-0.2,1.0,0.0,268.0,662.0,0.0,0,4070.0,1
1073,1073,0.583387379462598,0.6,0.0,0.0,437.0,596.0,0.0,1,3967.0,1
1074,1074,-0.8328201344992548,-0.8,0.0,1.0,306.0,905.0,0.0,1,3789.0,0
1075,1075,0.7894232911440319,0.8,1.0,1.0,433.0,878.0,0.0,0,3689.0,0
1076,1076,0.8423094103725891,0.8,0.0,0.0,290.0,743.0,0.0,1,3967.0,1
1077,1077,-0.4722918724109287,-0.5,1.0,0.0,308.0,708.0,0.0,0,-976.0,1
1078,1078,0.5739856980683428,0.6,0.0,0.0,484.0,928.0,0.0,1,-1392.0,1
1079,1079,-0.04962245758621264,-0.0,0.0,1.0,499.0,743.0,0.0,1,3758.0,0
1080,1080,0.4868549076003553,0.5,0.0,0.0,435.0,605.0,0.0,1,3960.0,1
1081,1081,-0.07865419152520736,-0.1,1.0,0.0,280.0,657.0,0.0,0,4063.0,1
1082,1082,0.33797600242862214,0.3,1.0,1.0,418.0,697.0,0.0,0,3885.0,0
1083,1083,0.7860026936993488,0.8,1.0,1.0,275.0,848.0,0.0,0,3877.0,0
1084,1084,-0.09894505762338857,-0.1,1.0,0.0,415.0,915.0,0.0,0,3670.0,1
1085,1085,-0.8850927819962752,-0.9,0.0,1.0,399.0,983.0,0.0,1,3618.0,0
1086,1086,-0.25440942690905377,-0.3,0.0,1.0,302.0,940.0,0.0,1,3758.0,0
1087,1087,-0.5917849651086631,-0.6,1.0,0.0,258.0,995.0,0.0,0,3747.0,1
1088,1088,0.27764405607213993,0.3,1.0,1.0,380.0,768.0,0.0,0,3852.0,0
1089,1089,0.04551569095592933,0.0,0.0,0.0,291.0,732.0,1.0,0,-1003.0,0
1090,1090,0.14396181231365401,0.1,1.0,1.0,477.0,730.0,0.0,0,3793.0,0
1091,1091,0.6084327133419004,0.6,0.0,0.0,480.0,962.0,0.0,1,3558.0,1
1092,1092,-0.799341518706604,-0.8,0.0,1.0,432.0,812.0,0.0,1,3756.0,0
1093,1093,-0.6653156484835328,-0.7,1.0,0.0,274.0,850.0,0.0,0,3876.0,1
1094,1094,0.7206048390635941,0.7,1.0,1.0,484.0,995.0,0.0,0,3521.0,0
1095,1095,-0.8008586687188631,-0.8,0.0,1.0,472.0,750.0,0.0,1,3778.0,0
1096,1096,0.5139165808712894,0.5,0.0,0.0,452.0,608.0,0.0,1,3940.0,1
1097,1097,0.4893633966842529,0.5,1.0,1.0,287.0,793.0,0.0,0,3920.0,0
1098,1098,0.7837052078242087,0.8,0.0,0.0,416.0,508.0,0.0,1,4076.0,1
1099,1099,-0.7598945251089215,-0.8,0.0,1.0,418.0,962.0,0.0,1,3620.0,0
1100,1100,-0.29932138279675335,-0.3,0.0,1.0,451.0,553.0,0.0,1,3996.0,0
1101,1101,0.019679265015539182,0.0,1.0,1.0,354.0,530.0,0.0,0,4116.0,0
1102,1102,0.6056710708252241,0.6,1.0,1.0,318.0,773.0,0.0,0,3909.0,0
1103,1103,0.2611112500288525,0.3,1.0,1.0,361.0,861.0,0.0,0,3778.0,0
1104,1104,-0.154605774606005,-0.2,0.0,1.0,366.0,896.0,0.0,1,3738.0,0
1105,1105,0.02391044291634159,0.0,1.0,1.0,256.0,953.0,0.0,0,3791.0,0
1106,1106,-0.19981163588343975,-0.2,1.0,0.0,266.0,513.0,0.0,0,4221.0,1
1107,1107,0.2238448245239083,0.2,1.0,1.0,449.0,688.0,0.0,0,3863.0,0
1108,1108,-0.600406600075861,-0.6,0.0,1.0,404.0,869.0,0.0,1,3727.0,0
1109,1109,0.6862193893624572,0.7,0.0,0.0,373.0,786.0,0.0,1,3841.0,1
1110,1110,0.28714364093529665,0.3,0.0,0.0,492.0,645.0,0.0,1,3863.0,1
1111,1111,-0.5012925051334594,-0.5,1.0,0.0,358.0,636.0,0.0,0,4006.0,1
1112,1112,0.23117200513986147,0.2,1.0,1.0,433.0,804.0,0.0,0,3763.0,0
1113,1113,0.2287137879882858,0.2,0.0,0.0,336.0,525.0,0.0,1,4139.0,1
1114,1114,0.07147792525716135,0.1,1.0,1.0,339.0,840.0,0.0,0,3821.0,0
1115,1115,-0.7069487047929481,-0.7,1.0,0.0,282.0,668.0,0.0,0,4050.0,1
1116,1116,-0.34781964960481204,-0.3,1.0,0.0,310.0,646.0,0.0,0,4044.0,1
1117,1117,0.5796044963157795,0.6,1.0,1.0,478.0,551.0,0.0,0,3971.0,0
1118,1118,0.06350605853465607,0.1,1.0,1.0,406.0,538.0,0.0,0,4056.0,0
1119,1119,0.4509511853458438,0.5,0.0,0.0,379.0,859.0,0.0,1,-1238.0,1
1120,1120,-0.43593459650449656,-0.4,0.0,1.0,389.0,565.0,0.0,1,4046.0,0
1121,1121,-0.29253985671792326,-0.3,1.0,0.0,462.0,796.0,0.0,0,3742.0,1
1122,1122,0.25381546702988034,0.3,1.0,1.0,384.0,536.0,0.0,0,4080.0,0
1123,1123,0.1474115642210837,0.1,0.0,0.0,347.0,501.0,0.0,1,4152.0,1
1124,1124,0.3240581619446904,0.3,1.0,1.0,402.0,732.0,0.0,0,3866.0,0
1125,1125,0.8617390376547397,0.9,0.0,0.0,312.0,919.0,0.0,1,3769.0,1
1126,1126,-0.857192062468671,-0.9,1.0,0.0,280.0,669.0,0.0,0,4051.0,1
1127,1127,-0.26521998272068215,-0.3,1.0,0.0,272.0,895.0,1.0,1,-977.0,0
1128,1128,0.7207865697432575,0.7,0.0,0.0,314.0,713.0,1.0,0,-987.0,0
1129,1129,-0.424060781064039,-0.4,1.0,0.0,278.0,952.0,0.0,0,3770.0,1
1130,1130,-0.8291659425292442,-0.8,1.0,0.0,436.0,626.0,0.0,0,3938.0,1
1131,1131,0.35307703505408206,0.4,0.0,0.0,390.0,888.0,0.0,1,3722.0,1
1132,1132,-0.48364456591812816,-0.5,1.0,0.0,434.0,677.0,0.0,0,3889.0,1
1133,1133,0.49380739605156754,0.5,0.0,0.0,309.0,959.0,0.0,1,3732.0,1
1134,1134,-0.0807491391258397,-0.1,1.0,0.0,482.0,636.0,0.0,0,3882.0,1
1135,1135,0.6143218244946395,0.6,1.0,1.0,456.0,583.0,0.0,0,3961.0,0
1136,1136,-0.23238298000293678,-0.2,1.0,0.0,305.0,626.0,0.0,0,4069.0,1
1137,1137,-0.011044062069319072,-0.0,1.0,0.0,412.0,755.0,0.0,0,3833.0,1
1138,1138,0.043108324073421134,0.0,0.0,0.0,265.0,795.0,0.0,1,3940.0,1
1139,1139,0.8676380941449205,0.9,1.0,1.0,380.0,880.0,0.0,0,3740.0,0
1140,1140,-0.8317601014253987,-0.8,1.0,0.0,366.0,710.0,0.0,0,3924.0,1
1141,1141,-0.0061862806308361495,-0.0,0.0,1.0,344.0,637.0,0.0,1,4019.0,0
1142,1142,0.3970230162900653,0.4,0.0,0.0,395.0,992.0,0.0,1,3613.0,1
1143,1143,-0.2522861745890643,-0.3,1.0,0.0,447.0,947.0,0.0,0,3606.0,1
1144,1144,0.2828486083694438,0.3,0.0,0.0,483.0,700.0,0.0,1,3817.0,1
1145,1145,-0.1992564017255516,-0.2,0.0,1.0,408.0,605.0,1.0,0,-843.0,1
1146,1146,-0.8977400222758096,-0.9,0.0,1.0,298.0,694.0,0.0,1,4008.0,0
1147,1147,0.8273970658436044,0.8,0.0,0.0,387.0,670.0,0.0,1,-917.0,1
1148,1148,0.35275401570496523,0.4,0.0,0.0,334.0,500.0,0.0,1,4166.0,1
1149,1149,-0.18382528061911774,-0.2,1.0,0.0,432.0,581.0,0.0,0,3987.0,1
1150,1150,0.6003504562790177,0.6,1.0,1.0,300.0,717.0,0.0,0,3983.0,0
1151,1151,0.6354093445842367,0.6,1.0,1.0,325.0,598.0,0.0,0,4077.0,0
1152,1152,0.3074065365563726,0.3,0.0,0.0,276.0,523.0,0.0,1,4201.0,1
1153,1153,0.7253942743502805,0.7,1.0,1.0,312.0,692.0,0.0,0,3996.0,0
1154,1154,-0.7831686724428136,-0.8,0.0,1.0,423.0,743.0,0.0,1,3834.0,0
1155,1155,0.3419942659434908,0.3,1.0,1.0,451.0,793.0,0.0,0,3756.0,0
1156,1156,0.24387205787834987,0.2,0.0,0.0,264.0,911.0,0.0,1,-1045.0,1
1157,1157,-0.3376262455011031,-0.3,1.0,0.0,383.0,874.0,0.0,0,3743.0,1
1158,1158,-0.4210712675069441,-0.4,1.0,0.0,402.0,678.0,0.0,0,3920.0,1
1159,1159,-0.05934221816292762,-0.1,1.0,0.0,458.0,715.0,0.0,0,3827.0,1
1160,1160,0.3665554831653358,0.4,0.0,0.0,442.0,625.0,0.0,1,3933.0,1
1161,1161,-0.02700090107811315,-0.0,1.0,0.0,402.0,756.0,1.0,1,-1148.0,0
1162,1162,0.4070392523797116,0.4,1.0,1.0,414.0,571.0,0.0,0,4015.0,0
1163,1163,-0.18963793845479682,-0.2,1.0,0.0,498.0,708.0,0.0,0,3794.0,1
1164,1164,-0.5918584422724569,-0.6,0.0,1.0,280.0,598.0,0.0,1,4122.0,0
1165,1165,0.6539791247006682,0.7,1.0,1.0,306.0,738.0,0.0,0,3956.0,0
1166,1166,0.762133075328758,0.8,0.0,0.0,350.0,928.0,0.0,1,3722.0,1
1167,1167,-0.8934338118647048,-0.9,0.0,1.0,389.0,871.0,0.0,1,-1210.0,0
1168,1168,0.7035900117983692,0.7,1.0,1.0,282.0,535.0,0.0,0,4183.0,0
1169,1169,-0.3170643446580833,-0.3,0.0,1.0,492.0,591.0,0.0,1,3917.0,0
1170,1170,-0.7946870519955728,-0.8,0.0,1.0,312.0,950.0,0.0,1,3738.0,0
1171,1171,0.006223137341096141,0.0,1.0,1.0,490.0,527.0,0.0,0,3983.0,0
1172,1172,0.08254525431106396,0.1,1.0,1.0,400.0,501.0,0.0,0,4099.0,0
1173,1173,0.2412587690219513,0.2,1.0,1.0,419.0,648.0,0.0,0,3933.0,0
1174,1174,0.4061055875323806,0.4,1.0,1.0,267.0,689.0,0.0,0,4044.0,0
1175,1175,-0.7736006805048053,-0.8,0.0,1.0,360.0,862.0,0.0,1,3778.0,0
1176,1176,0.7788964282648406,0.8,0.0,0.0,386.0,652.0,0.0,1,3962.0,1
1177,1177,0.36765975191864986,0.4,1.0,1.0,456.0,986.0,0.0,0,3558.0,0
1178,1178,-0.8776047332248444,-0.9,1.0,0.0,414.0,721.0,0.0,0,3865.0,1
1179,1179,-0.651764897926311,-0.7,0.0,1.0,380.0,518.0,0.0,1,4102.0,0
1180,1180,0.5572561551622762,0.6,1.0,1.0,461.0,696.0,0.0,0,3843.0,0
1181,1181,0.5456682508961158,0.5,0.0,0.0,449.0,650.0,0.0,1,3901.0,1
1182,1182,0.7943422875324749,0.8,1.0,1.0,443.0,598.0,0.0,0,3959.0,0
1183,1183,0.19534762743778578,0.2,1.0,1.0,257.0,703.0,0.0,0,-930.0,0
1184,1184,-0.8722151871003175,-0.9,0.0,1.0,429.0,910.0,1.0,0,-1269.0,1
1185,1185,-0.12876690213823938,-0.1,1.0,0.0,479.0,565.0,0.0,0,3956.0,1
1186,1186,-0.8382630706636881,-0.8,0.0,1.0,383.0,949.0,0.0,1,3668.0,0
1187,1187,-0.3509456006972014,-0.4,0.0,1.0,353.0,568.0,0.0,1,4079.0,0
1188,1188,-0.22129009762175111,-0.2,0.0,1.0,450.0,932.0,0.0,1,3618.0,0
1189,1189,0.8880635272667959,0.9,1.0,1.0,489.0,909.0,0.0,0,3602.0,0
1190,1190,-0.12315696154204825,-0.1,0.0,1.0,466.0,978.0,0.0,1,3556.0,0
1191,1191,0.179019086362738,0.2,0.0,0.0,285.0,891.0,0.0,1,3824.0,1
1192,1192,0.8331824792947297,0.8,1.0,1.0,289.0,799.0,0.0,0,3912.0,0
1193,1193,-0.05240924339715625,-0.1,1.0,0.0,320.0,813.0,0.0,0,3867.0,1
1194,1194,0.809358712612216,0.8,1.0,1.0,316.0,673.0,0.0,0,4011.0,0
1195,1195,-0.87675186077463,-0.9,1.0,0.0,293.0,587.0,1.0,1,-770.0,0
1196,1196,0.8700631443315837,0.9,1.0,1.0,342.0,591.0,0.0,0,4067.0,0
1197,1197,-0.3049024990590343,-0.3,1.0,0.0,370.0,582.0,0.0,0,-932.0,1
1198,1198,-0.4036703215549665,-0.4,0.0,1.0,416.0,722.0,0.0,1,3862.0,0
1199,1199,0.6556207355543301,0.7,1.0,1.0,376.0,585.0,0.0,0,4039.0,0
1200,1200,0.549634078261637,0.5,1.0,1.0,262.0,766.0,0.0,0,3972.0,0
1201,1201,0.3229840168125365,0.3,1.0,1.0,410.0,924.0,0.0,0,3666.0,0
1202,1202,-0.5836233012778211,-0.6,0.0,1.0,354.0,658.0,0.0,1,3988.0,0
1203,1203,0.3286471716068665,0.3,1.0,1.0,446.0,771.0,0.0,0,3783.0,0
1204,1204,0.8174796274598123,0.8,1.0,1.0,398.0,815.0,0.0,0,-1203.0,0
1205,1205,-0.848905860414136,-0.8,0.0,1.0,353.0,609.0,0.0,1,4038.0,0
1206,1206,0.577770046586234,0.6,1.0,1.0,309.0,693.0,0.0,0,3998.0,0
1207,1207,0.6634402658083659,0.7,1.0,1.0,288.0,787.0,0.0,0,3925.0,0
1208,1208,-0.6040447272725897,-0.6,1.0,0.0,309.0,922.0,0.0,0,3769.0,1
1209,1209,-0.4258939028117839,-0.4,0.0,1.0,491.0,512.0,0.0,1,3997.0,0
1210,1210,-0.43973979861563117,-0.4,0.0,1.0,376.0,850.0,0.0,1,3774.0,0
1211,1211,0.6523896010599265,0.7,1.0,1.0,314.0,693.0,0.0,0,3993.0,0
1212,1212,-0.8636146862830121,-0.9,0.0,1.0,355.0,863.0,0.0,1,3782.0,0
1213,1213,0.8214644797231058,0.8,1.0,1.0,451.0,619.0,0.0,0,3930.0,0
1214,1214,0.4420838695214856,0.4,0.0,0.0,288.0,866.0,0.0,1,3846.0,1
1215,1215,0.5946271958994148,0.6,0.0,0.0,407.0,575.0,0.0,1,4018.0,1
1216,1216,0.07861095818947761,0.1,0.0,0.0,300.0,742.0,0.0,1,3958.0,1
1217,1217,-0.32538884243485344,-0.3,0.0,1.0,300.0,883.0,0.0,1,3817.0,0
1218,1218,0.21425977310302324,0.2,1.0,1.0,356.0,766.0,0.0,0,3878.0,0
1219,1219,-0.6709968329106154,-0.7,1.0,0.0,414.0,570.0,0.0,0,4016.0,1
1220,1220,0.808285619082504,0.8,1.0,1.0,445.0,929.0,0.0,0,3626.0,0
1221,1221,-0.0950242575708623,-0.1,0.0,1.0,323.0,681.0,0.0,1,3996.0,0
1222,1222,0.51058918619017,0.5,1.0,1.0,488.0,975.0,0.0,0,3537.0,0
1223,1223,0.09567795251486289,0.1,0.0,0.0,460.0,937.0,0.0,1,3603.0,1
1224,1224,0.17856079149223592,0.2,1.0,1.0,377.0,644.0,0.0,0,3979.0,0
1225,1225,-0.12416461674425949,-0.1,0.0,1.0,406.0,535.0,0.0,1,4059.0,0
1226,1226,0.6917172839713396,0.7,0.0,0.0,347.0,584.0,0.0,1,4069.0,1
1227,1227,0.23829801033728748,0.2,0.0,0.0,483.0,935.0,0.0,1,3582.0,1
1228,1228,-0.3828971557212324,-0.4,0.0,1.0,280.0,721.0,0.0,1,3999.0,0
1229,1229,0.7716312062541985,0.8,0.0,0.0,466.0,867.0,0.0,1,3667.0,1
1230,1230,-0.1629566262058274,-0.2,0.0,1.0,300.0,559.0,0.0,1,4141.0,0
1231,1231,0.35199849525546323,0.4,1.0,1.0,418.0,887.0,0.0,0,3695.0,0
1232,1232,-0.09720358759136505,-0.1,1.0,0.0,366.0,648.0,0.0,0,3986.0,1
1233,1233,0.622151369304801,0.6,1.0,1.0,263.0,628.0,0.0,0,4109.0,0
1234,1234,-0.351859547448126,-0.4,0.0,1.0,274.0,660.0,0.0,1,4066.0,0
1235,1235,-0.7194791851222188,-0.7,1.0,0.0,334.0,917.0,0.0,0,3749.0,1
1236,1236,0.6093549767144911,0.6,0.0,0.0,256.0,679.0,0.0,1,4065.0,1
1237,1237,-0.34158788801179274,-0.3,1.0,0.0,430.0,755.0,0.0,0,3815.0,1
1238,1238,-0.5486220664804311,-0.5,0.0,1.0,404.0,539.0,0.0,1,4057.0,0
1239,1239,0.2642159024250744,0.3,1.0,1.0,263.0,955.0,0.0,0,3782.0,0
1240,1240,-0.6907026929238931,-0.7,0.0,1.0,413.0,677.0,0.0,1,3910.0,0
1241,1241,-0.67642331944897,-0.7,1.0,0.0,418.0,722.0,0.0,0,3860.0,1
1242,1242,0.6886960343309833,0.7,1.0,1.0,439.0,637.0,0.0,0,3924.0,0
1243,1243,-0.6482092101738967,-0.6,1.0,0.0,406.0,645.0,0.0,0,3949.0,1
1244,1244,0.6521263449250688,0.7,0.0,0.0,392.0,864.0,0.0,1,3744.0,1
1245,1245,-0.3243036592120684,-0.3,0.0,1.0,343.0,849.0,0.0,1,3808.0,0
1246,1246,-0.6663917887781685,-0.7,0.0,1.0,417.0,912.0,0.0,1,3671.0,0
1247,1247,0.27427049344810206,0.3,1.0,1.0,361.0,774.0,0.0,0,3865.0,0
1248,1248,0.662224381806867,0.7,0.0,0.0,313.0,735.0,0.0,1,3952.0,1
1249,1249,0.3516212159328299,0.4,1.0,1.0,419.0,658.0,0.0,0,3923.0,0
1250,1250,-0.07948167273529094,-0.1,0.0,1.0,390.0,767.0,0.0,1,3843.0,0
1251,1251,0.7901888170593411,0.8,0.0,0.0,377.0,666.0,0.0,1,3957.0,1
1252,1252,0.23244595765671316,0.2,0.0,0.0,336.0,789.0,0.0,1,-985.0,1
1253,1253,0.33424438091575437,0.3,0.0,0.0,447.0,965.0,0.0,1,3588.0,1
1254,1254,0.23313427045111978,0.2,0.0,0.0,451.0,947.0,0.0,1,3602.0,1
1255,1255,0.3748476210953905,0.4,0.0,0.0,468.0,551.0,0.0,1,3981.0,1
1256,1256,-0.19229704899250766,-0.2,1.0,0.0,262.0,538.0,0.0,0,4200.0,1
1257,1257,0.1511442282014538,0.2,1.0,1.0,307.0,651.0,0.0,0,4042.0,0
1258,1258,-0.036698143937826444,-0.0,1.0,0.0,401.0,860.0,0.0,0,3739.0,1
1259,1259,0.30586272224688804,0.3,1.0,1.0,490.0,912.0,0.0,0,3598.0,0
1260,1260,-0.21246244890679455,-0.2,1.0,0.0,493.0,727.0,0.0,0,3780.0,1
1261,1261,-0.4693088360144159,-0.5,1.0,0.0,280.0,786.0,0.0,0,3934.0,1
1262,1262,0.02953282195992235,0.0,0.0,0.0,431.0,839.0,0.0,1,3730.0,1
1263,1263,-0.23180461345291004,-0.2,1.0,0.0,297.0,553.0,0.0,0,4150.0,1
1264,1264,0.7045675147642184,0.7,1.0,1.0,298.0,892.0,0.0,0,3810.0,0
1265,1265,-0.7620525609909103,-0.8,1.0,0.0,366.0,538.0,0.0,0,4096.0,1
1266,1266,0.3555001099758276,0.4,0.0,0.0,490.0,659.0,0.0,1,3851.0,1
1267,1267,0.7772164720648843,0.8,0.0,0.0,486.0,674.0,0.0,1,3840.0,1
1268,1268,-0.5585678281079496,-0.6,0.0,1.0,421.0,980.0,0.0,1,3599.0,0
1269,1269,0.681110817409701,0.7,1.0,1.0,284.0,991.0,0.0,0,3725.0,0
1270,1270,0.2994112891698598,0.3,1.0,1.0,288.0,598.0,0.0,0,4114.0,0
1271,1271,-0.08934644567301764,-0.1,0.0,1.0,314.0,878.0,0.0,1,-1122.0,0
1272,1272,-0.8109271688943122,-0.8,0.0,1.0,478.0,724.0,0.0,1,3798.0,0
1273,1273,-0.6223682833750603,-0.6,0.0,1.0,444.0,888.0,0.0,1,3668.0,0
1274,1274,-0.6403571416398015,-0.6,1.0,0.0,373.0,592.0,1.0,1,-725.0,0
1275,1275,0.35301286777026186,0.4,1.0,1.0,260.0,911.0,0.0,0,3829.0,0
1276,1276,-0.38798270741368457,-0.4,1.0,0.0,271.0,892.0,0.0,0,3837.0,1
1277,1277,-0.14568239709548803,-0.1,0.0,1.0,254.0,578.0,0.0,1,4168.0,0
1278,1278,-0.6856756580138964,-0.7,1.0,0.0,356.0,744.0,0.0,0,3900.0,1
1279,1279,-0.21030480780725935,-0.2,1.0,0.0,326.0,737.0,0.0,0,3937.0,1
1280,1280,0.00508546990431058,0.0,0.0,0.0,289.0,964.0,0.0,1,3747.0,1
1281,1281,0.8791293635796537,0.9,0.0,0.0,368.0,819.0,0.0,1,3813.0,1
1282,1282,0.7613071242083062,0.8,1.0,1.0,434.0,908.0,0.0,0,-1242.0,0
1283,1283,0.542302952705411,0.5,0.0,0.0,413.0,909.0,0.0,1,3678.0,1
1284,1284,-0.7542252953053412,-0.8,0.0,1.0,398.0,896.0,0.0,1,-1274.0,0
1285,1285,-0.3932889226672398,-0.4,0.0,1.0,459.0,814.0,0.0,1,3727.0,0
1286,1286,0.8886193128209637,0.9,1.0,1.0,261.0,860.0,0.0,0,3879.0,0
1287,1287,-0.1970527511036294,-0.2,1.0,0.0,346.0,796.0,0.0,0,3858.0,1
1288,1288,-0.6981228670145238,-0.7,0.0,1.0,477.0,873.0,0.0,1,3650.0,0
1289,1289,0.3969712221689682,0.4,1.0,1.0,269.0,936.0,0.0,0,3795.0,0
1290,1290,0.6623010441277267,0.7,1.0,1.0,310.0,724.0,0.0,0,3966.0,0
1291,1291,-0.479637115187102,-0.5,1.0,0.0,292.0,622.0,0.0,0,4086.0,1
1292,1292,-0.7236165567317993,-0.7,0.0,1.0,366.0,997.0,0.0,1,3637.0,0
1293,1293,-0.3097509872780564,-0.3,0.0,1.0,488.0,645.0,0.0,1,3867.0,0
1294,1294,-0.7530308322165165,-0.8,1.0,0.0,257.0,877.0,0.0,0,3866.0,1
1295,1295,0.8967056137686927,0.9,0.0,0.0,403.0,985.0,0.0,1,3612.0,1
1296,1296,-0.6707541763627234,-0.7,1.0,0.0,254.0,678.0,0.0,0,-812.0,1
1297,1297,0.048599756132499006,0.0,1.0,1.0,442.0,834.0,1.0,1,-1216.0,1
1298,1298,-0.13699635437386204,-0.1,0.0,1.0,450.0,735.0,0.0,1,3815.0,0
1299,1299,-0.06448980908754454,-0.1,0.0,1.0,477.0,525.0,0.0,1,3998.0,0
1300,1300,-0.3809245121709791,-0.4,0.0,1.0,450.0,921.0,0.0,1,-1321.0,0
1301,1301,-0.4620650901766459,-0.5,0.0,1.0,324.0,539.0,0.0,1,4137.0,0
1302,1302,0.7696223959752481,0.8,0.0,0.0,326.0,501.0,0.0,1,4173.0,1
1303,1303,0.1340808965162582,0.1,1.0,1.0,354.0,989.0,0.0,0,3657.0,0
1304,1304,0.13886965184019828,0.1,0.0,0.0,353.0,667.0,0.0,1,-1000.0,1
1305,1305,0.3524171535280761,0.4,1.0,1.0,420.0,506.0,0.0,0,4074.0,0
1306,1306,-0.3419673146904464,-0.3,1.0,0.0,410.0,626.0,0.0,0,3964.0,1
1307,1307,0.034622310350113206,0.0,0.0,0.0,474.0,521.0,0.0,1,4005.0,1
1308,1308,-0.36373293976286747,-0.4,1.0,0.0,349.0,789.0,0.0,0,3862.0,1
1309,1309,-0.43961841140404295,-0.4,1.0,0.0,397.0,897.0,0.0,0,3706.0,1
1310,1310,-0.5726086863149182,-0.6,0.0,1.0,300.0,883.0,0.0,1,-1183.0,0
1311,1311,0.04623259632755505,0.0,1.0,1.0,460.0,705.0,0.0,0,3835.0,0
1312,1312,0.6713430171060065,0.7,0.0,0.0,462.0,701.0,0.0,1,3837.0,1
1313,1313,-0.5239119933687655,-0.5,0.0,1.0,305.0,947.0,0.0,1,3748.0,0
1314,1314,-0.7225009629432252,-0.7,1.0,0.0,481.0,769.0,0.0,0,3750.0,1
1315,1315,0.3332694282205647,0.3,1.0,1.0,424.0,808.0,0.0,0,3768.0,0
1316,1316,0.12350031013507967,0.1,1.0,1.0,307.0,617.0,0.0,0,4076.0,0
1317,1317,0.159194910215266,0.2,1.0,1.0,380.0,805.0,0.0,0,3815.0,0
1318,1318,-0.3018409292817261,-0.3,1.0,0.0,287.0,707.0,0.0,0,4006.0,1
1319,1319,-0.33302319973652894,-0.3,1.0,0.0,469.0,879.0,0.0,0,3652.0,1
1320,1320,0.12978469006179838,0.1,1.0,1.0,477.0,820.0,0.0,0,3703.0,0
1321,1321,-0.4033472745019243,-0.4,1.0,0.0,290.0,987.0,0.0,0,3723.0,1
1322,1322,-0.29380768336742713,-0.3,0.0,1.0,406.0,996.0,0.0,1,3598.0,0
1323,1323,-0.1600270182682182,-0.2,0.0,1.0,427.0,869.0,0.0,1,3704.0,0
1324,1324,0.16068221540954342,0.2,0.0,0.0,461.0,934.0,0.0,1,-1375.0,1
1325,1325,-0.4002070957979775,-0.4,1.0,0.0,380.0,677.0,0.0,0,3943.0,1
1326,1326,-0.045484385241453595,-0.0,0.0,1.0,440.0,776.0,1.0,0,-1106.0,1
1327,1327,0.8366553972567751,0.8,1.0,1.0,272.0,596.0,0.0,0,4132.0,0
1328,1328,-0.17666968855697096,-0.2,0.0,1.0,326.0,987.0,0.0,1,3687.0,0
1329,1329,0.6614979043792412,0.7,0.0,0.0,368.0,839.0,0.0,1,3793.0,1
1330,1330,-0.23080226786167024,-0.2,1.0,0.0,410.0,563.0,1.0,1,-923.0,0
1331,1331,-0.6045415049017806,-0.6,0.0,1.0,292.0,768.0,0.0,1,3940.0,0
1332,1332,-0.5065048692545278,-0.5,1.0,0.0,379.0,613.0,0.0,0,4008.0,1
1333,1333,0.8416672892817424,0.8,1.0,1.0,377.0,598.0,0.0,0,-885.0,0
1334,1334,0.040369514822471975,0.0,1.0,1.0,496.0,678.0,0.0,0,3826.0,0
1335,1335,0.26658493038810815,0.3,0.0,0.0,493.0,753.0,0.0,1,3754.0,1
1336,1336,0.4684601049661846,0.5,0.0,0.0,395.0,655.0,0.0,1,-960.0,1
1337,1337,0.4017902265749823,0.4,0.0,0.0,390.0,561.0,1.0,0,-841.0,0
1338,1338,0.32428724973390743,0.3,0.0,0.0,346.0,691.0,0.0,1,3963.0,1
1339,1339,0.07414954722993394,0.1,0.0,0.0,270.0,963.0,0.0,1,3767.0,1
1340,1340,-0.6230710230522956,-0.6,1.0,0.0,493.0,795.0,0.0,0,3712.0,1
1341,1341,-0.5015879647625938,-0.5,1.0,0.0,384.0,766.0,0.0,0,3850.0,1
1342,1342,-0.3451562898139192,-0.3,0.0,1.0,358.0,895.0,0.0,1,3747.0,0
1343,1343,0.2647672407586733,0.3,1.0,1.0,324.0,842.0,0.0,0,3834.0,0
1344,1344,-0.6136497376433534,-0.6,1.0,0.0,387.0,514.0,0.0,0,4099.0,1
1345,1345,-0.43229101298576916,-0.4,1.0,0.0,490.0,815.0,1.0,1,-1165.0,0
1346,1346,0.2586456643406764,0.3,0.0,0.0,443.0,503.0,0.0,1,4054.0,1
1347,1347,-0.1458894040705443,-0.1,0.0,1.0,332.0,963.0,0.0,1,3705.0,0
1348,1348,-0.5532821047755023,-0.6,0.0,1.0,307.0,794.0,0.0,1,3899.0,0
1349,1349,0.03717480933752093,0.0,1.0,1.0,258.0,999.0,0.0,0,3743.0,0
1350,1350,0.4163163365251673,0.4,0.0,0.0,371.0,961.0,0.0,1,3668.0,1
1351,1351,0.19347181485621834,0.2,0.0,0.0,371.0,669.0,0.0,1,3960.0,1
1352,1352,-0.041148391424701614,-0.0,1.0,0.0,456.0,557.0,0.0,0,3987.0,1
1353,1353,-0.039685726239962915,-0.0,1.0,0.0,379.0,794.0,0.0,0,3827.0,1
1354,1354,0.5674044783757252,0.6,1.0,1.0,419.0,584.0,0.0,0,3997.0,0
1355,1355,-0.3364216881641967,-0.3,0.0,1.0,402.0,873.0,0.0,1,3725.0,0
1356,1356,-0.055630491290310946,-0.1,1.0,0.0,405.0,520.0,0.0,0,-915.0,1
1357,1357,0.3656294745873575,0.4,0.0,0.0,469.0,533.0,0.0,1,3998.0,1
1358,1358,-0.696229964856717,-0.7,1.0,0.0,422.0,828.0,0.0,0,3750.0,1
1359,1359,-0.7884228232355218,-0.8,1.0,0.0,286.0,665.0,0.0,0,4049.0,1
1360,1360,-0.35177735272098964,-0.4,0.0,1.0,476.0,843.0,0.0,1,3681.0,0
1361,1361,0.1770875957709671,0.2,1.0,1.0,310.0,747.0,0.0,0,-927.0,0
1362,1362,-0.5620028720842427,-0.6,1.0,0.0,398.0,640.0,0.0,0,3962.0,1
1363,1363,-0.18146727165159404,-0.2,0.0,1.0,375.0,952.0,0.0,1,3673.0,0
1364,1364,-0.768369906259791,-0.8,1.0,0.0,255.0,859.0,0.0,0,3886.0,1
1365,1365,0.7031662203287886,0.7,0.0,0.0,464.0,504.0,0.0,1,4032.0,1
1366,1366,-0.2702005158427898,-0.3,0.0,1.0,450.0,609.0,0.0,1,3941.0,0
1367,1367,0.1754688391260285,0.2,1.0,1.0,276.0,686.0,0.0,0,4038.0,0
1368,1368,-0.6643018108915739,-0.7,1.0,0.0,451.0,972.0,0.0,0,3577.0,1
1369,1369,0.8985703100677552,0.9,1.0,1.0,260.0,785.0,0.0,0,3955.0,0
1370,1370,-0.6949581741597171,-0.7,1.0,0.0,314.0,913.0,1.0,1,-1217.0,0
1371,1371,0.06744602706635339,0.1,1.0,1.0,265.0,634.0,0.0,0,4101.0,0
1372,1372,-0.5967225572014105,-0.6,0.0,1.0,358.0,874.0,0.0,1,3768.0,0
1373,1373,0.295394867651798,0.3,1.0,1.0,280.0,552.0,0.0,0,4168.0,0
1374,1374,-0.05612898293758717,-0.1,1.0,0.0,343.0,995.0,0.0,0,3662.0,1
1375,1375,-0.8914537232006492,-0.9,1.0,0.0,389.0,587.0,0.0,0,4024.0,1
1376,1376,0.6868181509177934,0.7,1.0,1.0,393.0,759.0,0.0,0,3848.0,0
1377,1377,-0.30909111140424994,-0.3,1.0,0.0,479.0,868.0,0.0,0,3653.0,1
1378,1378,-0.6258142211086053,-0.6,0.0,1.0,273.0,836.0,0.0,1,3891.0,0
1379,1379,-0.3205361189342798,-0.3,1.0,0.0,281.0,965.0,0.0,0,3754.0,1
1380,1380,-0.15593427094061707,-0.2,0.0,1.0,451.0,537.0,0.0,1,4012.0,0
1381,1381,-0.30532692241413417,-0.3,0.0,1.0,459.0,589.0,0.0,1,3952.0,0
1382,1382,0.5486700528959555,0.5,1.0,1.0,274.0,668.0,0.0,0,4058.0,0
1383,1383,-0.3301235642872862,-0.3,1.0,0.0,342.0,830.0,0.0,0,3828.0,1
1384,1384,0.895535834283932,0.9,1.0,1.0,438.0,709.0,0.0,0,3853.0,0
1385,1385,0.8313065432090411,0.8,1.0,1.0,461.0,623.0,0.0,0,3916.0,0
1386,1386,-0.5290994810849277,-0.5,0.0,1.0,378.0,990.0,0.0,1,3632.0,0
1387,1387,0.2806647269410948,0.3,1.0,1.0,297.0,674.0,0.0,0,4029.0,0
1388,1388,-0.04562460789119627,-0.0,0.0,1.0,360.0,590.0,0.0,1,4050.0,0
1389,1389,-0.43992727385483615,-0.4,0.0,1.0,398.0,721.0,0.0,1,3881.0,0
1390,1390,0.17197013127929883,0.2,1.0,1.0,322.0,902.0,0.0,0,3776.0,0
1391,1391,0.6902258130087692,0.7,0.0,0.0,284.0,646.0,0.0,1,4070.0,1
1392,1392,-0.8962207984475435,-0.9,1.0,0.0,411.0,726.0,0.0,0,3863.0,1
1393,1393,0.22428193436088184,0.2,1.0,1.0,432.0,890.0,0.0,0,3678.0,0
1394,1394,-0.33740905686764844,-0.3,1.0,0.0,345.0,998.0,0.0,0,3657.0,1
1395,1395,0.6049984568279158,0.6,0.0,0.0,395.0,609.0,0.0,1,3996.0,1
1396,1396,0.5800904349017962,0.6,0.0,0.0,253.0,730.0,0.0,1,4017.0,1
1397,1397,0.8693403050663043,0.9,0.0,0.0,344.0,631.0,0.0,1,4025.0,1
1398,1398,0.6434567468365159,0.6,1.0,1.0,274.0,543.0,0.0,0,4183.0,0
1399,1399,-0.5341465561662013,-0.5,1.0,0.0,351.0,648.0,0.0,0,4001.0,1
1400,1400,-0.5723922038873532,-0.6,1.0,0.0,294.0,940.0,1.0,1,-1144.0,0
1401,1401,-0.6359420837460148,-0.6,1.0,0.0,294.0,729.0,1.0,1,-1003.0,0
1402,1402,0.04940672780533928,0.0,0.0,0.0,401.0,568.0,0.0,1,4031.0,1
1403,1403,0.40966848089256624,0.4,0.0,0.0,346.0,503.0,0.0,1,4151.0,1
1404,1404,0.6338408260116447,0.6,1.0,1.0,441.0,532.0,0.0,0,4027.0,0
1405,1405,-0.49953760833247557,-0.5,0.0,1.0,471.0,980.0,0.0,1,3549.0,0
1406,1406,-0.28068892092470565,-0.3,1.0,0.0,409.0,653.0,0.0,0,3938.0,1
1407,1407,0.8704496067087634,0.9,0.0,0.0,497.0,677.0,0.0,1,3826.0,1
1408,1408,-0.7947126929326024,-0.8,0.0,1.0,396.0,823.0,1.0,0,-1209.0,1
1409,1409,-0.7367144330266719,-0.7,0.0,1.0,378.0,903.0,0.0,1,3719.0,0
1410,1410,0.7874381366408091,0.8,0.0,0.0,402.0,512.0,0.0,1,4086.0,1
1411,1411,-0.8993933206776527,-0.9,1.0,0.0,285.0,667.0,0.0,0,4048.0,1
1412,1412,0.6598882315370896,0.7,1.0,1.0,262.0,548.0,0.0,0,4190.0,0
1413,1413,-0.710573954408794,-0.7,0.0,1.0,414.0,766.0,0.0,1,3820.0,0
1414,1414,0.5808016228982941,0.6,1.0,1.0,280.0,503.0,0.0,0,4217.0,0
1415,1415,0.7489891734099442,0.7,1.0,1.0,358.0,745.0,0.0,0,3897.0,0
1416,1416,-0.2782401712711551,-0.3,0.0,1.0,313.0,654.0,0.0,1,4033.0,0
1417,1417,0.07814025695799742,0.1,0.0,0.0,288.0,585.0,0.0,1,4127.0,1
1418,1418,0.2643379189227212,0.3,1.0,1.0,273.0,630.0,1.0,1,-843.0,1
1419,1419,0.6452918474185437,0.6,0.0,0.0,435.0,608.0,0.0,1,3957.0,1
1420,1420,0.7586014228704873,0.8,0.0,0.0,492.0,664.0,0.0,1,3844.0,1
1421,1421,-0.30011274767461305,-0.3,1.0,0.0,297.0,649.0,0.0,0,4054.0,1
1422,1422,-0.70769438969302,-0.7,0.0,1.0,440.0,950.0,0.0,1,3610.0,0
1423,1423,-0.726422145884924,-0.7,1.0,0.0,344.0,959.0,0.0,0,3697.0,1
1424,1424,-0.26679042021974664,-0.3,1.0,0.0,326.0,652.0,0.0,0,4022.0,1
1425,1425,-0.8095373202129474,-0.8,1.0,0.0,471.0,717.0,0.0,0,3812.0,1
1426,1426,0.13870898744730675,0.1,0.0,0.0,289.0,702.0,0.0,1,4009.0,1
1427,1427,-0.4526954659621463,-0.5,1.0,0.0,454.0,839.0,0.0,0,3707.0,1
1428,1428,-0.8678132575925581,-0.9,0.0,1.0,364.0,627.0,0.0,1,4009.0,0
1429,1429,0.5905091456174799,0.6,0.0,0.0,300.0,865.0,0.0,1,3835.0,1
1430,1430,-0.7316875874010836,-0.7,0.0,1.0,415.0,676.0,0.0,1,-1011.0,0
1431,1431,0.5874305234010931,0.6,1.0,1.0,268.0,643.0,0.0,0,4089.0,0
1432,1432,0.5906914512714102,0.6,1.0,1.0,478.0,520.0,0.0,0,4002.0,0
1433,1433,0.8548775493906914,0.9,0.0,0.0,288.0,966.0,0.0,1,3746.0,1
1434,1434,-0.2655676279635514,-0.3,0.0,1.0,323.0,644.0,0.0,1,4033.0,0
1435,1435,0.7388461842654522,0.7,0.0,0.0,370.0,620.0,0.0,1,4010.0,1
1436,1436,-0.4756354866144256,-0.5,0.0,1.0,313.0,857.0,0.0,1,3830.0,0
1437,1437,0.1751948976560075,0.2,1.0,1.0,497.0,666.0,0.0,0,3837.0,0
1438,1438,-0.2760191902182578,-0.3,1.0,0.0,427.0,660.0,0.0,0,3913.0,1
1439,1439,-0.190750736447731,-0.2,1.0,0.0,311.0,770.0,0.0,0,-1011.0,1
1440,1440,0.7444191992274548,0.7,0.0,0.0,367.0,669.0,0.0,1,3964.0,1
1441,1441,-0.6352557773491188,-0.6,1.0,0.0,253.0,764.0,0.0,0,3983.0,1
1442,1442,-0.13907014945360607,-0.1,0.0,1.0,276.0,907.0,0.0,1,3817.0,0
1443,1443,0.5490259785216104,0.5,1.0,1.0,257.0,906.0,0.0,0,3837.0,0
1444,1444,0.6827258004812357,0.7,1.0,1.0,349.0,630.0,0.0,0,4021.0,0
1445,1445,0.4737025294129501,0.5,0.0,0.0,419.0,985.0,0.0,1,3596.0,1
1446,1446,0.11320779610009091,0.1,0.0,0.0,355.0,715.0,0.0,1,3930.0,1
1447,1447,-0.4203368597834907,-0.4,0.0,1.0,453.0,917.0,0.0,1,3630.0,0
1448,1448,-0.3338599421860211,-0.3,0.0,1.0,389.0,708.0,0.0,1,3903.0,0
1449,1449,0.15310438108023672,0.2,1.0,1.0,250.0,552.0,0.0,0,4198.0,0
1450,1450,-0.06546961294220321,-0.1,0.0,1.0,302.0,842.0,0.0,1,3856.0,0
1451,1451,0.621878699318073,0.6,1.0,1.0,260.0,518.0,0.0,0,4222.0,0
1452,1452,0.05570750110902689,0.1,0.0,0.0,391.0,907.0,0.0,1,3702.0,1
1453,1453,-0.5555649226615107,-0.6,0.0,1.0,485.0,901.0,0.0,1,3614.0,0
1454,1454,-0.8491014609062837,-0.8,0.0,1.0,398.0,828.0,0.0,1,3774.0,0
1455,1455,0.5898903850340135,0.6,0.0,0.0,268.0,719.0,0.0,1,4013.0,1
1456,1456,0.8210521161226828,0.8,0.0,0.0,410.0,551.0,0.0,1,4039.0,1
1457,1457,0.6508470082902386,0.7,1.0,1.0,368.0,663.0,0.0,0,3969.0,0
1458,1458,-0.5459160709823534,-0.5,1.0,0.0,334.0,604.0,0.0,0,4062.0,1
1459,1459,0.13196190969045352,0.1,0.0,0.0,459.0,751.0,0.0,1,3790.0,1
1460,1460,0.022578963871007995,0.0,1.0,1.0,399.0,720.0,0.0,0,3881.0,0
1461,1461,0.05914031229295269,0.1,1.0,1.0,287.0,979.0,1.0,1,-1196.0,1
1462,1462,0.8679407151481048,0.9,0.0,0.0,488.0,844.0,0.0,1,3668.0,1
1463,1463,-0.8212194352823698,-0.8,0.0,1.0,486.0,983.0,0.0,1,-1199.0,0
1464,1464,-0.5259867052210696,-0.5,1.0,0.0,295.0,823.0,0.0,0,3882.0,1
1465,1465,-0.2519036070926516,-0.3,0.0,1.0,430.0,966.0,0.0,1,3604.0,0
1466,1466,0.3702810499556942,0.4,1.0,1.0,396.0,719.0,0.0,0,3885.0,0
1467,1467,-0.7717182234160782,-0.8,0.0,1.0,307.0,571.0,0.0,1,4122.0,0
1468,1468,0.8737136660859463,0.9,1.0,1.0,256.0,510.0,0.0,0,-676.0,0
1469,1469,-0.09308080055820045,-0.1,0.0,1.0,409.0,622.0,0.0,1,3969.0,0
1470,1470,-0.47380091772749405,-0.5,0.0,1.0,290.0,697.0,0.0,1,4013.0,0
1471,1471,0.707401940949249,0.7,0.0,0.0,312.0,703.0,1.0,0,-995.0,0
