,trial,coherence,coherence_bin,green_side,correct_side,target_onset,checker_onset,decision,green_decision,decision_time,correct_decision
0,0,0.8500730658636805,0.9,0.0,0.0,293.0,531.0,0.0,1,46.0,1
1,1,-0.1325224970666823,-0.1,0.0,1.0,363.0,611.0,1.0,0,-254.0,1
2,2,-0.09144788806742854,-0.1,0.0,1.0,467.0,961.0,1.0,0,252.0,1
3,3,-0.014120965407159791,-0.0,1.0,0.0,350.0,645.0,0.0,0,1635.0,1
4,4,-0.5252554804464873,-0.5,0.0,1.0,394.0,547.0,1.0,0,299.0,1
5,5,-0.3471093230258261,-0.3,0.0,1.0,286.0,657.0,1.0,0,887.0,1
6,6,0.5799975819273665,0.6,1.0,1.0,468.0,623.0,0.0,0,-101.0,0
7,7,0.08080091981071891,0.1,0.0,0.0,363.0,859.0,1.0,0,518.0,0
8,8,0.5096519361643336,0.5,0.0,0.0,444.0,992.0,0.0,1,104.0,1
9,9,-0.3036290543371325,-0.3,1.0,0.0,425.0,544.0,0.0,0,441.0,1
10,10,0.19223413962573066,0.2,0.0,0.0,317.0,796.0,1.0,0,-313.0,0
11,11,0.4803087676606427,0.5,0.0,0.0,426.0,556.0,0.0,1,248.0,1
12,12,-0.5870593184546915,-0.6,0.0,1.0,399.0,938.0,1.0,0,203.0,1
13,13,0.2411412635821767,0.2,0.0,0.0,403.0,664.0,1.0,0,13.0,0
14,14,-0.6760401559572218,-0.7,1.0,0.0,488.0,772.0,0.0,0,50.0,1
15,15,-0.011036080419819738,-0.0,0.0,1.0,420.0,655.0,1.0,0,-305.0,1
16,16,-0.8832267564044234,-0.9,1.0,0.0,263.0,563.0,0.0,0,234.0,1
17,17,0.18759342821266378,0.2,1.0,1.0,471.0,700.0,1.0,1,479.0,1
18,18,0.5807727604861593,0.6,0.0,0.0,357.0,944.0,0.0,1,199.0,1
19,19,0.48766920188243834,0.5,1.0,1.0,273.0,870.0,1.0,1,197.0,1
20,20,0.8890045471759117,0.9,1.0,1.0,424.0,763.0,1.0,1,223.0,1
21,21,0.6870245211180032,0.7,0.0,0.0,498.0,503.0,0.0,1,439.0,1
22,22,-0.2560499971168433,-0.3,1.0,0.0,278.0,957.0,1.0,1,-475.0,0
23,23,-0.037471082695230584,-0.0,1.0,0.0,462.0,881.0,0.0,0,-83.0,1
24,24,-0.06440437883007022,-0.1,1.0,0.0,304.0,658.0,0.0,0,438.0,1
25,25,-0.11073522733486352,-0.1,0.0,1.0,494.0,695.0,1.0,0,251.0,1
26,26,-0.20557749596299368,-0.2,0.0,1.0,413.0,713.0,0.0,1,-166.0,0
27,27,0.7363934410537886,0.7,0.0,0.0,443.0,836.0,0.0,1,661.0,1
28,28,-0.1376623464325053,-0.1,0.0,1.0,409.0,700.0,1.0,0,691.0,1
29,29,-0.04410381719680201,-0.0,0.0,1.0,354.0,559.0,0.0,1,197.0,0
30,30,0.4255108062917211,0.4,0.0,0.0,491.0,923.0,0.0,1,386.0,1
31,31,-0.41635796334285974,-0.4,1.0,0.0,395.0,518.0,0.0,0,417.0,1
32,32,-0.7035106587299743,-0.7,0.0,1.0,417.0,586.0,1.0,0,167.0,1
33,33,0.7669033746178134,0.8,0.0,0.0,426.0,713.0,0.0,1,291.0,1
34,34,-0.8362382745612171,-0.8,0.0,1.0,351.0,837.0,1.0,0,12.0,1
35,35,0.15031747482178848,0.2,1.0,1.0,449.0,505.0,1.0,1,16.0,1
36,36,0.3259805637007388,0.3,1.0,1.0,373.0,510.0,1.0,1,227.0,1
37,37,0.6895020913513982,0.7,0.0,0.0,347.0,958.0,0.0,1,385.0,1
38,38,0.09875997598618957,0.1,1.0,1.0,256.0,509.0,1.0,1,1165.0,1
39,39,0.5168245783364928,0.5,0.0,0.0,390.0,840.0,0.0,1,180.0,1
40,40,-0.5129571644938605,-0.5,0.0,1.0,332.0,550.0,1.0,0,328.0,1
41,41,-0.8747621945949151,-0.9,0.0,1.0,315.0,610.0,1.0,0,-225.0,1
42,42,-0.24479890016641637,-0.2,1.0,0.0,323.0,674.0,0.0,0,223.0,1
43,43,0.5853681196714492,0.6,0.0,0.0,368.0,965.0,1.0,0,-173.0,0
44,44,0.09917282050860332,0.1,0.0,0.0,349.0,715.0,0.0,1,1116.0,1
45,45,-0.8139580739480192,-0.8,1.0,0.0,479.0,514.0,0.0,0,97.0,1
46,46,-0.674039408066828,-0.7,0.0,1.0,478.0,873.0,1.0,0,-471.0,1
47,47,0.3870856531691068,0.4,1.0,1.0,375.0,823.0,1.0,1,382.0,1
48,48,-0.4606304529506045,-0.5,0.0,1.0,317.0,731.0,1.0,0,422.0,1
49,49,0.2617272397627973,0.3,1.0,1.0,389.0,640.0,1.0,1,351.0,1
50,50,-0.7420298578483981,-0.7,0.0,1.0,468.0,715.0,1.0,0,487.0,1
51,51,0.5963468041371317,0.6,0.0,0.0,367.0,927.0,0.0,1,-104.0,1
52,52,-0.8482232973117336,-0.8,0.0,1.0,421.0,906.0,1.0,0,43.0,1
53,53,-0.5018822642214329,-0.5,1.0,0.0,266.0,554.0,0.0,0,190.0,1
54,54,-0.5053385723583512,-0.5,0.0,1.0,360.0,984.0,1.0,0,-574.0,1
55,55,0.11411458234376515,0.1,1.0,1.0,495.0,901.0,1.0,1,34.0,1
56,56,-0.7028893460433608,-0.7,0.0,1.0,450.0,803.0,1.0,0,57.0,1
57,57,0.335003744156937,0.3,0.0,0.0,415.0,906.0,1.0,0,-161.0,0
58,58,-0.1378026140263886,-0.1,1.0,0.0,346.0,702.0,0.0,0,272.0,1
59,59,-0.772101680921741,-0.8,0.0,1.0,481.0,766.0,1.0,0,283.0,1
60,60,-0.5770181016920941,-0.6,0.0,1.0,333.0,779.0,1.0,0,38.0,1
61,61,0.08856262453118102,0.1,0.0,0.0,357.0,617.0,1.0,0,-114.0,0
62,62,-0.7268105912431921,-0.7,0.0,1.0,272.0,787.0,0.0,1,-109.0,0
63,63,0.6858832093789676,0.7,0.0,0.0,372.0,572.0,1.0,0,186.0,0
64,64,0.7118660827642193,0.7,0.0,0.0,365.0,558.0,0.0,1,487.0,1
65,65,0.2829999370662143,0.3,0.0,0.0,366.0,661.0,0.0,1,183.0,1
66,66,-0.8969537335863406,-0.9,0.0,1.0,392.0,662.0,1.0,0,-64.0,1
67,67,0.39972991387468604,0.4,1.0,1.0,310.0,968.0,1.0,1,412.0,1
68,68,-0.42512244693733303,-0.4,0.0,1.0,288.0,804.0,1.0,0,-172.0,1
69,69,-0.14666749444521898,-0.1,1.0,0.0,261.0,930.0,0.0,0,119.0,1
70,70,-0.3496844548741108,-0.3,1.0,0.0,391.0,600.0,0.0,0,209.0,1
71,71,-0.20236747996928228,-0.2,1.0,0.0,256.0,809.0,0.0,0,265.0,1
72,72,-0.7006221435743161,-0.7,1.0,0.0,459.0,831.0,1.0,1,-290.0,0
73,73,-0.06160797708022825,-0.1,0.0,1.0,347.0,936.0,1.0,0,967.0,1
74,74,-0.0955492331477793,-0.1,0.0,1.0,490.0,711.0,1.0,0,699.0,1
75,75,-0.2197810661214893,-0.2,0.0,1.0,327.0,894.0,0.0,1,-71.0,0
76,76,-0.2804715375974608,-0.3,1.0,0.0,493.0,956.0,1.0,1,-519.0,0
77,77,0.3714833870486597,0.4,1.0,1.0,269.0,755.0,0.0,0,326.0,0
78,78,0.4764886131633156,0.5,0.0,0.0,481.0,722.0,0.0,1,507.0,1
79,79,-0.22996761024762002,-0.2,0.0,1.0,304.0,550.0,1.0,0,116.0,1
80,80,0.6835444708839148,0.7,1.0,1.0,361.0,697.0,1.0,1,112.0,1
81,81,0.12190049909647549,0.1,0.0,0.0,450.0,979.0,0.0,1,-349.0,1
82,82,0.48149265686581233,0.5,0.0,0.0,314.0,517.0,0.0,1,389.0,1
83,83,-0.23911309999689012,-0.2,0.0,1.0,270.0,547.0,1.0,0,513.0,1
84,84,-0.7304584275267283,-0.7,0.0,1.0,329.0,952.0,1.0,0,349.0,1
85,85,0.831118687288443,0.8,0.0,0.0,254.0,717.0,0.0,1,249.0,1
86,86,-0.004848432497656097,-0.0,0.0,1.0,264.0,897.0,1.0,0,789.0,1
87,87,-0.2431086582626627,-0.2,1.0,0.0,347.0,946.0,1.0,1,-553.0,0
88,88,0.6055989682811643,0.6,1.0,1.0,466.0,629.0,1.0,1,125.0,1
89,89,-0.08926380880190954,-0.1,0.0,1.0,386.0,787.0,1.0,0,3187.0,1
90,90,0.1247952566598155,0.1,1.0,1.0,323.0,683.0,1.0,1,504.0,1
91,91,-0.8521545640927536,-0.9,0.0,1.0,411.0,802.0,1.0,0,87.0,1
92,92,-0.3026011522924409,-0.3,0.0,1.0,430.0,677.0,1.0,0,463.0,1
93,93,0.2702716683612453,0.3,0.0,0.0,457.0,753.0,0.0,1,270.0,1
94,94,0.15607536020360835,0.2,0.0,0.0,442.0,521.0,0.0,1,1887.0,1
95,95,0.5795473342720755,0.6,1.0,1.0,429.0,839.0,1.0,1,72.0,1
96,96,-0.1365505647849311,-0.1,0.0,1.0,269.0,534.0,1.0,0,87.0,1
97,97,-0.043355180362344314,-0.0,1.0,0.0,380.0,552.0,0.0,0,888.0,1
98,98,0.1650526031980425,0.2,1.0,1.0,275.0,997.0,0.0,0,568.0,0
99,99,-0.5479405099023675,-0.5,1.0,0.0,394.0,919.0,0.0,0,247.0,1
100,100,-0.05251306758850205,-0.1,1.0,0.0,268.0,578.0,1.0,1,1534.0,0
101,101,-0.7617761176471761,-0.8,0.0,1.0,495.0,805.0,1.0,0,270.0,1
102,102,-0.10239349420265054,-0.1,0.0,1.0,447.0,934.0,1.0,0,129.0,1
103,103,-0.6042585115766248,-0.6,1.0,0.0,388.0,710.0,0.0,0,82.0,1
104,104,0.492987042925617,0.5,1.0,1.0,320.0,552.0,1.0,1,248.0,1
105,105,0.5432706169486302,0.5,1.0,1.0,289.0,731.0,1.0,1,340.0,1
106,106,-0.4210620305699812,-0.4,0.0,1.0,434.0,559.0,1.0,0,1457.0,1
107,107,-0.6538769840737046,-0.7,0.0,1.0,409.0,928.0,1.0,0,123.0,1
108,108,-0.03908854959631636,-0.0,1.0,0.0,386.0,528.0,0.0,0,1066.0,1
109,109,0.39767992402931995,0.4,1.0,1.0,482.0,657.0,1.0,1,-39.0,1
110,110,-0.5479352546849349,-0.5,1.0,0.0,334.0,769.0,0.0,0,97.0,1
111,111,-0.28674046194854885,-0.3,1.0,0.0,401.0,831.0,0.0,0,328.0,1
112,112,0.17784720138981036,0.2,0.0,0.0,370.0,677.0,1.0,0,-7.0,0
113,113,-0.6252153385111843,-0.6,1.0,0.0,380.0,647.0,0.0,0,433.0,1
114,114,-0.6105546475536759,-0.6,1.0,0.0,417.0,972.0,0.0,0,81.0,1
115,115,-0.7073245698820783,-0.7,1.0,0.0,256.0,803.0,1.0,1,-139.0,0
116,116,0.3093481746655661,0.3,1.0,1.0,299.0,901.0,1.0,1,790.0,1
117,117,-0.24065336106224655,-0.2,0.0,1.0,370.0,595.0,1.0,0,1195.0,1
118,118,-0.0014292265321510511,-0.0,0.0,1.0,425.0,709.0,1.0,0,-214.0,1
119,119,0.3826727163802496,0.4,0.0,0.0,305.0,971.0,0.0,1,194.0,1
120,120,-0.18732986780317396,-0.2,1.0,0.0,360.0,733.0,0.0,0,877.0,1
121,121,0.4294919304672459,0.4,1.0,1.0,381.0,707.0,1.0,1,462.0,1
122,122,-0.6139787741981865,-0.6,1.0,0.0,355.0,991.0,0.0,0,334.0,1
123,123,-0.6926452552143456,-0.7,1.0,0.0,346.0,912.0,0.0,0,62.0,1
124,124,-0.7518700632636222,-0.8,1.0,0.0,317.0,957.0,0.0,0,76.0,1
125,125,0.8857142981972034,0.9,1.0,1.0,348.0,796.0,1.0,1,236.0,1
126,126,0.7489021582818848,0.7,0.0,0.0,444.0,627.0,0.0,1,39.0,1
127,127,-0.6892282307568249,-0.7,0.0,1.0,313.0,787.0,1.0,0,370.0,1
128,128,0.47080232704721536,0.5,0.0,0.0,385.0,731.0,0.0,1,174.0,1
129,129,-0.10615367518656804,-0.1,1.0,0.0,416.0,790.0,0.0,0,154.0,1
130,130,0.7159482452257689,0.7,1.0,1.0,345.0,666.0,1.0,1,99.0,1
131,131,0.16354572796639422,0.2,0.0,0.0,397.0,623.0,0.0,1,310.0,1
132,132,-0.7627240436932556,-0.8,1.0,0.0,403.0,674.0,0.0,0,163.0,1
133,133,0.6674171621599388,0.7,0.0,0.0,438.0,913.0,1.0,0,-161.0,0
134,134,-0.38583585154075806,-0.4,0.0,1.0,373.0,568.0,1.0,0,-401.0,1
135,135,-0.28188154664541865,-0.3,1.0,0.0,454.0,787.0,0.0,0,349.0,1
136,136,-0.16433555237922404,-0.2,1.0,0.0,394.0,983.0,0.0,0,353.0,1
137,137,0.6957409048894204,0.7,0.0,0.0,267.0,962.0,1.0,0,-359.0,0
138,138,0.1551827944792209,0.2,1.0,1.0,437.0,985.0,1.0,1,198.0,1
139,139,0.4436417399478939,0.4,1.0,1.0,288.0,840.0,0.0,0,-138.0,0
140,140,0.8991565731722396,0.9,0.0,0.0,463.0,968.0,0.0,1,149.0,1
141,141,-0.2992355855016595,-0.3,1.0,0.0,325.0,968.0,0.0,0,177.0,1
142,142,-0.30817299193937875,-0.3,1.0,0.0,409.0,565.0,0.0,0,356.0,1
143,143,-0.07499138005891337,-0.1,1.0,0.0,328.0,717.0,0.0,0,-35.0,1
144,144,-0.31151673796258605,-0.3,0.0,1.0,431.0,795.0,1.0,0,-426.0,1
145,145,0.1293828585710478,0.1,1.0,1.0,283.0,841.0,0.0,0,-34.0,0
146,146,0.5812552914401351,0.6,1.0,1.0,421.0,564.0,1.0,1,405.0,1
147,147,0.5502960542216105,0.6,1.0,1.0,358.0,962.0,1.0,1,-240.0,1
148,148,0.747452759763728,0.7,1.0,1.0,322.0,897.0,1.0,1,201.0,1
149,149,-0.49566388547883566,-0.5,0.0,1.0,396.0,899.0,1.0,0,-645.0,1
150,150,0.4538426923795137,0.5,1.0,1.0,424.0,928.0,1.0,1,638.0,1
151,151,0.7692246562294239,0.8,0.0,0.0,318.0,916.0,0.0,1,346.0,1
152,152,-0.33728527169824907,-0.3,1.0,0.0,335.0,713.0,0.0,0,272.0,1
153,153,-0.27180050827898594,-0.3,1.0,0.0,381.0,536.0,0.0,0,443.0,1
154,154,0.6677063666726683,0.7,1.0,1.0,257.0,703.0,1.0,1,290.0,1
155,155,0.1371235167141055,0.1,0.0,0.0,482.0,537.0,0.0,1,781.0,1
156,156,0.13194796577294132,0.1,0.0,0.0,290.0,579.0,0.0,1,321.0,1
157,157,-0.26774597302544945,-0.3,0.0,1.0,382.0,949.0,1.0,0,-391.0,1
158,158,-0.454858592917932,-0.5,0.0,1.0,366.0,862.0,0.0,1,-28.0,0
159,159,-0.18781642983164004,-0.2,1.0,0.0,262.0,688.0,0.0,0,40.0,1
160,160,0.2293364725006516,0.2,1.0,1.0,415.0,656.0,1.0,1,579.0,1
161,161,-0.15243278775640468,-0.2,0.0,1.0,453.0,875.0,1.0,0,822.0,1
162,162,-0.2685822234924351,-0.3,0.0,1.0,443.0,818.0,0.0,1,-1.0,0
163,163,0.7112657022919467,0.7,0.0,0.0,304.0,868.0,0.0,1,168.0,1
164,164,-0.44666041214750224,-0.4,0.0,1.0,372.0,783.0,1.0,0,275.0,1
165,165,-0.27543074791986166,-0.3,1.0,0.0,457.0,666.0,1.0,1,-73.0,0
166,166,0.09119548307260927,0.1,1.0,1.0,325.0,593.0,0.0,0,762.0,0
167,167,0.7586730216096577,0.8,0.0,0.0,268.0,523.0,0.0,1,349.0,1
168,168,0.42137883720183733,0.4,0.0,0.0,403.0,542.0,0.0,1,585.0,1
169,169,0.0679601764098029,0.1,0.0,0.0,483.0,567.0,1.0,0,-270.0,0
170,170,-0.11609689964190295,-0.1,0.0,1.0,415.0,742.0,1.0,0,-427.0,1
171,171,-0.2855083215377475,-0.3,1.0,0.0,298.0,887.0,0.0,0,165.0,1
172,172,-0.4311339716062969,-0.4,0.0,1.0,482.0,664.0,1.0,0,394.0,1
173,173,-0.5683051321110826,-0.6,1.0,0.0,414.0,804.0,0.0,0,482.0,1
174,174,0.3345333474065534,0.3,1.0,1.0,287.0,835.0,1.0,1,-682.0,1
175,175,-0.8484612305970479,-0.8,1.0,0.0,292.0,668.0,0.0,0,90.0,1
176,176,0.19874882706044417,0.2,0.0,0.0,341.0,746.0,0.0,1,-267.0,1
177,177,0.23973037336620207,0.2,0.0,0.0,458.0,819.0,0.0,1,313.0,1
178,178,-0.19538688694021433,-0.2,1.0,0.0,443.0,971.0,0.0,0,136.0,1
179,179,-0.8377392049338913,-0.8,1.0,0.0,480.0,785.0,0.0,0,-15.0,1
180,180,-0.7463927817505466,-0.7,0.0,1.0,356.0,518.0,1.0,0,46.0,1
181,181,-0.6402003943428194,-0.6,1.0,0.0,347.0,767.0,0.0,0,286.0,1
182,182,-0.5070385965055966,-0.5,1.0,0.0,339.0,650.0,0.0,0,301.0,1
183,183,-0.4257148697414025,-0.4,0.0,1.0,465.0,824.0,0.0,1,-9.0,0
184,184,-0.3877610954450542,-0.4,1.0,0.0,406.0,720.0,0.0,0,684.0,1
185,185,-0.687816314481521,-0.7,0.0,1.0,454.0,501.0,1.0,0,385.0,1
186,186,-0.22786442442144672,-0.2,0.0,1.0,404.0,659.0,1.0,0,-483.0,1
187,187,-0.06906881101683471,-0.1,1.0,0.0,470.0,788.0,0.0,0,632.0,1
188,188,-0.009273117713710533,-0.0,1.0,0.0,290.0,722.0,0.0,0,348.0,1
189,189,-0.24173244217778644,-0.2,0.0,1.0,371.0,935.0,1.0,0,144.0,1
190,190,-0.12503178816255733,-0.1,1.0,0.0,421.0,581.0,0.0,0,128.0,1
191,191,0.2587967276303397,0.3,1.0,1.0,309.0,889.0,1.0,1,-548.0,1
192,192,-0.8563041445131424,-0.9,0.0,1.0,496.0,739.0,1.0,0,-235.0,1
193,193,-0.019508162957464048,-0.0,0.0,1.0,358.0,717.0,1.0,0,45.0,1
194,194,0.23553767346007015,0.2,1.0,1.0,404.0,525.0,1.0,1,911.0,1
195,195,-0.41656876830935535,-0.4,1.0,0.0,418.0,957.0,0.0,0,315.0,1
196,196,0.3837024925493314,0.4,0.0,0.0,436.0,929.0,0.0,1,185.0,1
197,197,-0.45081779832752766,-0.5,1.0,0.0,256.0,930.0,0.0,0,94.0,1
198,198,-0.4292505337833355,-0.4,1.0,0.0,346.0,950.0,1.0,1,-606.0,0
199,199,0.8100883755144667,0.8,1.0,1.0,331.0,739.0,1.0,1,530.0,1
200,200,0.7748959944850201,0.8,1.0,1.0,469.0,819.0,1.0,1,82.0,1
201,201,-0.6554231205371523,-0.7,1.0,0.0,283.0,762.0,0.0,0,25.0,1
202,202,0.07888491456652214,0.1,0.0,0.0,476.0,807.0,1.0,0,457.0,0
203,203,-0.24148801978093803,-0.2,0.0,1.0,468.0,848.0,1.0,0,384.0,1
204,204,0.6736898139939179,0.7,0.0,0.0,346.0,995.0,1.0,0,-581.0,0
205,205,0.010034407637856235,0.0,0.0,0.0,405.0,552.0,0.0,1,1333.0,1
206,206,-0.4050157966724383,-0.4,1.0,0.0,448.0,804.0,1.0,1,-162.0,0
207,207,-0.801068270171155,-0.8,0.0,1.0,498.0,971.0,1.0,0,-199.0,1
208,208,-0.04071304639026452,-0.0,1.0,0.0,318.0,995.0,0.0,0,1047.0,1
209,209,0.7633183618846321,0.8,0.0,0.0,321.0,807.0,1.0,0,-188.0,0
210,210,-0.39102311381041743,-0.4,1.0,0.0,489.0,556.0,0.0,0,245.0,1
211,211,-0.2772302379983155,-0.3,1.0,0.0,380.0,638.0,1.0,1,122.0,0
212,212,-0.7634733400092213,-0.8,0.0,1.0,314.0,986.0,1.0,0,-150.0,1
213,213,-0.31032293509291553,-0.3,0.0,1.0,261.0,987.0,1.0,0,-338.0,1
214,214,0.711891186804445,0.7,1.0,1.0,329.0,832.0,0.0,0,-491.0,0
215,215,-0.7320152951517332,-0.7,0.0,1.0,296.0,887.0,1.0,0,-123.0,1
216,216,-0.2597110783125123,-0.3,0.0,1.0,443.0,750.0,1.0,0,867.0,1
217,217,0.09542604563343804,0.1,0.0,0.0,290.0,952.0,0.0,1,388.0,1
218,218,-0.45850496651490785,-0.5,0.0,1.0,387.0,615.0,1.0,0,608.0,1
219,219,-0.448153979067672,-0.4,0.0,1.0,493.0,705.0,1.0,0,222.0,1
220,220,-0.5637477572293565,-0.6,1.0,0.0,402.0,969.0,0.0,0,99.0,1
221,221,0.31203819252572773,0.3,0.0,0.0,274.0,545.0,0.0,1,421.0,1
222,222,0.06522232642262116,0.1,0.0,0.0,462.0,891.0,1.0,0,-433.0,0
223,223,0.054802341857491776,0.1,0.0,0.0,421.0,888.0,1.0,0,-619.0,0
224,224,-0.8701284044585677,-0.9,1.0,0.0,485.0,677.0,0.0,0,288.0,1
225,225,-0.7451220911348574,-0.7,1.0,0.0,435.0,927.0,0.0,0,168.0,1
226,226,-0.8866884995742593,-0.9,0.0,1.0,395.0,730.0,1.0,0,-505.0,1
227,227,0.6780782260032964,0.7,0.0,0.0,256.0,838.0,0.0,1,86.0,1
228,228,0.8829840343215255,0.9,0.0,0.0,256.0,755.0,0.0,1,169.0,1
229,229,0.331370721540717,0.3,1.0,1.0,355.0,695.0,1.0,1,140.0,1
230,230,-0.13755623941089756,-0.1,0.0,1.0,377.0,896.0,1.0,0,-123.0,1
231,231,0.5853378125350687,0.6,1.0,1.0,275.0,937.0,1.0,1,-312.0,1
232,232,0.8321248339159025,0.8,0.0,0.0,444.0,502.0,0.0,1,194.0,1
233,233,0.8722041420509766,0.9,0.0,0.0,363.0,842.0,1.0,0,-265.0,0
234,234,0.1476956072915897,0.1,1.0,1.0,275.0,915.0,1.0,1,350.0,1
235,235,0.8228264571721159,0.8,0.0,0.0,260.0,715.0,0.0,1,455.0,1
236,236,0.7062220955864046,0.7,1.0,1.0,420.0,577.0,1.0,1,233.0,1
237,237,0.18859957278390216,0.2,0.0,0.0,362.0,911.0,1.0,0,-543.0,0
238,238,-0.8941513287099078,-0.9,1.0,0.0,300.0,683.0,0.0,0,287.0,1
239,239,0.21923418885634727,0.2,1.0,1.0,397.0,892.0,1.0,1,401.0,1
240,240,-0.5767157377150569,-0.6,0.0,1.0,369.0,981.0,1.0,0,180.0,1
241,241,-0.32374518126785534,-0.3,1.0,0.0,285.0,825.0,0.0,0,380.0,1
242,242,0.6531833441509235,0.7,0.0,0.0,291.0,811.0,1.0,0,-412.0,0
243,243,-0.039195567163968326,-0.0,0.0,1.0,334.0,875.0,1.0,0,711.0,1
244,244,-0.8106814045967861,-0.8,0.0,1.0,370.0,674.0,1.0,0,306.0,1
245,245,0.054606938702018715,0.1,0.0,0.0,452.0,968.0,1.0,0,-970.0,0
246,246,-0.3206675941856867,-0.3,0.0,1.0,386.0,928.0,1.0,0,-164.0,1
247,247,0.255255879769407,0.3,0.0,0.0,290.0,886.0,0.0,1,604.0,1
248,248,0.13894942619036177,0.1,0.0,0.0,295.0,755.0,0.0,1,740.0,1
249,249,-0.6922219186331651,-0.7,0.0,1.0,346.0,572.0,1.0,0,402.0,1
250,250,0.8352616428282812,0.8,1.0,1.0,409.0,936.0,1.0,1,-575.0,1
251,251,-0.7474151309656751,-0.7,1.0,0.0,256.0,605.0,0.0,0,199.0,1
252,252,0.19606202889310775,0.2,0.0,0.0,331.0,868.0,0.0,1,111.0,1
253,253,0.7672865789357067,0.8,1.0,1.0,308.0,868.0,1.0,1,444.0,1
254,254,0.33918547639153906,0.3,1.0,1.0,331.0,709.0,1.0,1,590.0,1
255,255,-0.41465004308771186,-0.4,0.0,1.0,338.0,607.0,1.0,0,195.0,1
256,256,-0.8349228024383611,-0.8,0.0,1.0,359.0,506.0,1.0,0,495.0,1
257,257,0.18379067895301915,0.2,1.0,1.0,471.0,524.0,1.0,1,525.0,1
258,258,-0.682241275146162,-0.7,0.0,1.0,356.0,563.0,1.0,0,291.0,1
259,259,-0.539151234874187,-0.5,1.0,0.0,325.0,741.0,1.0,1,-316.0,0
260,260,0.10790457898656525,0.1,1.0,1.0,382.0,941.0,1.0,1,527.0,1
261,261,0.2626864619756396,0.3,0.0,0.0,279.0,875.0,1.0,0,-234.0,0
262,262,0.6353585938629892,0.6,0.0,0.0,339.0,621.0,1.0,0,-40.0,0
263,263,0.09062297061704172,0.1,0.0,0.0,390.0,854.0,0.0,1,236.0,1
264,264,0.27243709966089014,0.3,1.0,1.0,466.0,629.0,1.0,1,1045.0,1
265,265,-0.768301416753943,-0.8,0.0,1.0,416.0,502.0,1.0,0,252.0,1
266,266,-0.1637707630880071,-0.2,1.0,0.0,311.0,718.0,0.0,0,511.0,1
267,267,0.4144380991538231,0.4,0.0,0.0,302.0,805.0,0.0,1,-27.0,1
268,268,-0.34753181115168863,-0.3,1.0,0.0,402.0,762.0,0.0,0,646.0,1
269,269,0.40795086089580146,0.4,1.0,1.0,286.0,933.0,1.0,1,161.0,1
270,270,0.4753312514639688,0.5,0.0,0.0,359.0,678.0,1.0,0,-207.0,0
271,271,-0.19898678802901448,-0.2,1.0,0.0,457.0,943.0,0.0,0,1030.0,1
272,272,0.7120138016461929,0.7,1.0,1.0,363.0,851.0,1.0,1,-294.0,1
273,273,-0.030055632543548816,-0.0,1.0,0.0,340.0,692.0,0.0,0,1288.0,1
274,274,-0.726142654106364,-0.7,0.0,1.0,441.0,792.0,1.0,0,77.0,1
275,275,0.18123246109615254,0.2,1.0,1.0,464.0,565.0,0.0,0,-59.0,0
276,276,0.8523835364275011,0.9,0.0,0.0,470.0,728.0,0.0,1,72.0,1
277,277,-0.895387289148223,-0.9,0.0,1.0,314.0,621.0,1.0,0,105.0,1
278,278,-0.5966587726326071,-0.6,1.0,0.0,484.0,928.0,0.0,0,248.0,1
279,279,-0.4337082282952403,-0.4,1.0,0.0,324.0,529.0,0.0,0,-113.0,1
280,280,-0.6669618661589141,-0.7,0.0,1.0,254.0,963.0,1.0,0,-577.0,1
281,281,0.8859897459840719,0.9,0.0,0.0,334.0,522.0,0.0,1,-36.0,1
282,282,-0.6675520877946779,-0.7,0.0,1.0,468.0,735.0,1.0,0,207.0,1
283,283,0.5280088120008865,0.5,0.0,0.0,380.0,598.0,0.0,1,192.0,1
284,284,-0.5841925274968496,-0.6,0.0,1.0,411.0,788.0,1.0,0,-439.0,1
285,285,-0.6343951534814392,-0.6,0.0,1.0,469.0,723.0,1.0,0,-32.0,1
286,286,0.05672672369924625,0.1,0.0,0.0,338.0,922.0,1.0,0,-440.0,0
287,287,0.48996794064186744,0.5,1.0,1.0,431.0,874.0,0.0,0,-155.0,0
288,288,0.5463032266365985,0.5,0.0,0.0,438.0,816.0,1.0,0,-114.0,0
289,289,-0.004129210102217673,-0.0,0.0,1.0,316.0,793.0,1.0,0,721.0,1
290,290,0.6554146135661171,0.7,1.0,1.0,436.0,806.0,1.0,1,68.0,1
291,291,0.31572642006888685,0.3,1.0,1.0,275.0,931.0,1.0,1,-256.0,1
292,292,-0.6354627515584654,-0.6,0.0,1.0,308.0,547.0,1.0,0,-435.0,1
293,293,0.73952242169207,0.7,1.0,1.0,292.0,957.0,1.0,1,-929.0,1
294,294,-0.2601217461569877,-0.3,0.0,1.0,492.0,775.0,1.0,0,-187.0,1
295,295,0.7890490598270959,0.8,0.0,0.0,347.0,520.0,0.0,1,423.0,1
296,296,0.6655110146682094,0.7,0.0,0.0,421.0,527.0,0.0,1,342.0,1
297,297,-0.4629784969381655,-0.5,0.0,1.0,439.0,545.0,1.0,0,266.0,1
298,298,-0.38986447208390507,-0.4,1.0,0.0,499.0,531.0,0.0,0,380.0,1
299,299,0.7771218520526025,0.8,1.0,1.0,265.0,758.0,1.0,1,307.0,1
300,300,0.6329830444835024,0.6,0.0,0.0,389.0,820.0,0.0,1,161.0,1
301,301,-0.6322187364881402,-0.6,1.0,0.0,342.0,712.0,0.0,0,136.0,1
302,302,0.8371355108790498,0.8,1.0,1.0,347.0,502.0,1.0,1,121.0,1
303,303,0.22234974167672472,0.2,0.0,0.0,312.0,761.0,0.0,1,97.0,1
304,304,-0.04126736785868568,-0.0,0.0,1.0,385.0,572.0,1.0,0,533.0,1
305,305,0.2570898512802732,0.3,0.0,0.0,427.0,549.0,0.0,1,1164.0,1
306,306,-0.34060359490144887,-0.3,0.0,1.0,403.0,892.0,1.0,0,-455.0,1
307,307,0.2983675307846817,0.3,1.0,1.0,497.0,783.0,1.0,1,1210.0,1
308,308,0.39762632537824805,0.4,1.0,1.0,394.0,909.0,1.0,1,417.0,1
309,309,-0.6949349359740784,-0.7,0.0,1.0,425.0,895.0,1.0,0,200.0,1
310,310,0.16394280673301542,0.2,1.0,1.0,302.0,753.0,1.0,1,1365.0,1
311,311,0.5859162185826504,0.6,1.0,1.0,360.0,692.0,1.0,1,18.0,1
312,312,0.7291471546761376,0.7,1.0,1.0,266.0,633.0,1.0,1,121.0,1
313,313,-0.4219914953742554,-0.4,0.0,1.0,366.0,561.0,1.0,0,73.0,1
314,314,-0.6575301021439538,-0.7,0.0,1.0,429.0,709.0,1.0,0,272.0,1
315,315,-0.36102693884787784,-0.4,0.0,1.0,405.0,793.0,0.0,1,-178.0,0
316,316,0.813285234018701,0.8,0.0,0.0,357.0,840.0,1.0,0,-27.0,0
317,317,-0.8390319954093836,-0.8,0.0,1.0,260.0,794.0,1.0,0,236.0,1
318,318,-0.7874049543382386,-0.8,1.0,0.0,489.0,508.0,0.0,0,173.0,1
319,319,-0.08344703247152074,-0.1,1.0,0.0,310.0,896.0,1.0,1,404.0,0
320,320,0.03619917679761653,0.0,0.0,0.0,388.0,806.0,0.0,1,156.0,1
321,321,-0.4942436848023717,-0.5,0.0,1.0,454.0,637.0,1.0,0,119.0,1
322,322,-0.7439394009696687,-0.7,0.0,1.0,406.0,922.0,1.0,0,-318.0,1
323,323,0.24903316699035127,0.2,0.0,0.0,344.0,725.0,0.0,1,411.0,1
324,324,0.016801036146842696,0.0,0.0,0.0,349.0,653.0,1.0,0,158.0,0
325,325,-0.1213398953221817,-0.1,1.0,0.0,278.0,763.0,0.0,0,889.0,1
326,326,0.07773053272133112,0.1,1.0,1.0,317.0,910.0,0.0,0,413.0,0
327,327,-0.7277178977625491,-0.7,1.0,0.0,344.0,996.0,0.0,0,90.0,1
328,328,0.8161377916264142,0.8,0.0,0.0,324.0,980.0,1.0,0,66.0,0
329,329,-0.5852583477575952,-0.6,1.0,0.0,292.0,931.0,0.0,0,237.0,1
330,330,-0.19340160466584722,-0.2,1.0,0.0,465.0,705.0,0.0,0,390.0,1
331,331,-0.49649175335972145,-0.5,0.0,1.0,418.0,695.0,1.0,0,117.0,1
332,332,0.8852616204629938,0.9,0.0,0.0,333.0,621.0,0.0,1,496.0,1
333,333,-0.7613687784205645,-0.8,1.0,0.0,413.0,797.0,1.0,1,-120.0,0
334,334,0.8384433010339917,0.8,0.0,0.0,489.0,572.0,1.0,0,-91.0,0
335,335,0.39809999031321064,0.4,1.0,1.0,375.0,672.0,1.0,1,253.0,1
336,336,-0.4367715733483886,-0.4,0.0,1.0,354.0,735.0,1.0,0,231.0,1
337,337,-0.5845832542080436,-0.6,0.0,1.0,384.0,859.0,1.0,0,227.0,1
338,338,-0.4319781111573622,-0.4,0.0,1.0,290.0,773.0,1.0,0,367.0,1
339,339,0.2660185421769826,0.3,1.0,1.0,323.0,519.0,1.0,1,348.0,1
340,340,0.3910381576039016,0.4,1.0,1.0,421.0,915.0,1.0,1,334.0,1
341,341,-0.8241481740077833,-0.8,0.0,1.0,374.0,764.0,1.0,0,422.0,1
342,342,0.4934855315960197,0.5,0.0,0.0,372.0,552.0,0.0,1,1236.0,1
343,343,0.5619336414624162,0.6,1.0,1.0,285.0,964.0,1.0,1,451.0,1
344,344,-0.49129188000331253,-0.5,1.0,0.0,435.0,750.0,0.0,0,-35.0,1
345,345,-0.14067212821781205,-0.1,1.0,0.0,292.0,918.0,0.0,0,10.0,1
346,346,0.7247627436063667,0.7,0.0,0.0,312.0,827.0,1.0,0,-129.0,0
347,347,-0.045470017213497305,-0.0,1.0,0.0,493.0,823.0,0.0,0,254.0,1
348,348,0.4805807749556542,0.5,1.0,1.0,300.0,838.0,0.0,0,82.0,0
349,349,0.02723964512439614,0.0,1.0,1.0,433.0,676.0,0.0,0,971.0,0
350,350,-0.7890145373530336,-0.8,0.0,1.0,409.0,955.0,1.0,0,296.0,1
351,351,-0.7256693854216822,-0.7,1.0,0.0,462.0,568.0,0.0,0,330.0,1
352,352,0.8446787019028764,0.8,1.0,1.0,313.0,813.0,1.0,1,64.0,1
353,353,0.10568984418468241,0.1,0.0,0.0,472.0,846.0,0.0,1,-298.0,1
354,354,0.11526428054028648,0.1,0.0,0.0,403.0,659.0,0.0,1,1188.0,1
355,355,-0.19503265359549227,-0.2,0.0,1.0,252.0,741.0,1.0,0,287.0,1
356,356,-0.625832643615079,-0.6,1.0,0.0,316.0,639.0,0.0,0,315.0,1
357,357,-0.37362447836034995,-0.4,1.0,0.0,393.0,764.0,0.0,0,283.0,1
358,358,-0.43126087471245483,-0.4,1.0,0.0,463.0,844.0,0.0,0,213.0,1
359,359,0.5659826419352515,0.6,1.0,1.0,278.0,930.0,1.0,1,242.0,1
360,360,-0.6174666608205563,-0.6,0.0,1.0,310.0,512.0,1.0,0,288.0,1
361,361,-0.8147213102978423,-0.8,0.0,1.0,369.0,851.0,1.0,0,390.0,1
362,362,-0.7670546943967173,-0.8,0.0,1.0,499.0,843.0,1.0,0,8.0,1
363,363,0.1643582883446003,0.2,0.0,0.0,396.0,841.0,0.0,1,-417.0,1
364,364,0.046078440497334894,0.0,0.0,0.0,297.0,851.0,0.0,1,1842.0,1
365,365,-0.2912536135700675,-0.3,1.0,0.0,325.0,585.0,0.0,0,670.0,1
366,366,-0.02142360546807931,-0.0,0.0,1.0,458.0,873.0,0.0,1,749.0,0
367,367,-0.7456293701017979,-0.7,1.0,0.0,454.0,612.0,0.0,0,194.0,1
368,368,0.83019974219409,0.8,0.0,0.0,440.0,556.0,0.0,1,284.0,1
369,369,-0.6762346389079561,-0.7,0.0,1.0,281.0,789.0,1.0,0,240.0,1
370,370,0.6479199677592135,0.6,1.0,1.0,461.0,955.0,1.0,1,294.0,1
371,371,0.4062362935459597,0.4,0.0,0.0,404.0,659.0,0.0,1,577.0,1
372,372,-0.3969305496143529,-0.4,1.0,0.0,300.0,788.0,0.0,0,662.0,1
373,373,-0.844658646962388,-0.8,1.0,0.0,391.0,958.0,0.0,0,-59.0,1
374,374,0.44384768707265476,0.4,1.0,1.0,499.0,660.0,1.0,1,1351.0,1
375,375,-0.8663461143634317,-0.9,1.0,0.0,329.0,677.0,0.0,0,14.0,1
376,376,0.47032634957324626,0.5,0.0,0.0,471.0,564.0,0.0,1,155.0,1
377,377,0.4709569760465725,0.5,1.0,1.0,280.0,532.0,1.0,1,538.0,1
378,378,-0.029685633386812182,-0.0,1.0,0.0,478.0,761.0,1.0,1,1661.0,0
379,379,-0.00026438763973579693,-0.0,1.0,0.0,432.0,732.0,1.0,1,136.0,0
380,380,-0.2516361498057049,-0.3,1.0,0.0,384.0,713.0,0.0,0,1013.0,1
381,381,-0.7596495246232691,-0.8,0.0,1.0,464.0,994.0,1.0,0,282.0,1
382,382,0.5968917193080913,0.6,0.0,0.0,302.0,637.0,0.0,1,521.0,1
383,383,0.8346336191337679,0.8,0.0,0.0,285.0,868.0,0.0,1,247.0,1
384,384,0.7676716939059901,0.8,0.0,0.0,298.0,507.0,0.0,1,375.0,1
385,385,-0.4888241844894281,-0.5,1.0,0.0,437.0,658.0,0.0,0,365.0,1
386,386,0.12448803437455436,0.1,1.0,1.0,378.0,686.0,1.0,1,246.0,1
387,387,0.032721715228387294,0.0,1.0,1.0,358.0,540.0,1.0,1,502.0,1
388,388,0.33973319955698267,0.3,0.0,0.0,429.0,763.0,1.0,0,-472.0,0
389,389,0.528693279927913,0.5,0.0,0.0,353.0,857.0,0.0,1,310.0,1
390,390,-0.08792017577558231,-0.1,0.0,1.0,259.0,980.0,1.0,0,761.0,1
391,391,-0.2464640334980669,-0.2,0.0,1.0,494.0,728.0,1.0,0,-172.0,1
392,392,0.7525632311777856,0.8,1.0,1.0,302.0,645.0,1.0,1,293.0,1
393,393,0.7487462060386566,0.7,1.0,1.0,264.0,770.0,1.0,1,306.0,1
394,394,0.7044524889703191,0.7,0.0,0.0,263.0,884.0,1.0,0,-337.0,0
395,395,-0.6816038519693853,-0.7,0.0,1.0,455.0,504.0,1.0,0,91.0,1
396,396,0.7178985622837065,0.7,1.0,1.0,492.0,658.0,1.0,1,130.0,1
397,397,-0.24505872502325532,-0.2,1.0,0.0,374.0,888.0,0.0,0,-2.0,1
398,398,-0.5950286136033227,-0.6,0.0,1.0,299.0,635.0,1.0,0,386.0,1
399,399,0.06969083277674704,0.1,1.0,1.0,447.0,992.0,1.0,1,-319.0,1
400,400,0.7718572853406244,0.8,0.0,0.0,469.0,507.0,0.0,1,314.0,1
401,401,-0.47543930010064894,-0.5,0.0,1.0,261.0,735.0,1.0,0,164.0,1
402,402,0.06374324004749377,0.1,0.0,0.0,341.0,520.0,1.0,0,1199.0,0
403,403,0.48112645120340136,0.5,0.0,0.0,425.0,711.0,1.0,0,-206.0,0
404,404,-0.5387010074274363,-0.5,0.0,1.0,372.0,507.0,1.0,0,131.0,1
405,405,-0.2677659322495054,-0.3,1.0,0.0,399.0,516.0,0.0,0,435.0,1
406,406,-0.4415638282610864,-0.4,1.0,0.0,482.0,799.0,0.0,0,179.0,1
407,407,0.73812280434672,0.7,1.0,1.0,298.0,845.0,1.0,1,167.0,1
408,408,0.6530059913336793,0.7,1.0,1.0,313.0,762.0,1.0,1,565.0,1
409,409,-0.8717484525938414,-0.9,1.0,0.0,313.0,743.0,0.0,0,324.0,1
410,410,0.8368345418935413,0.8,0.0,0.0,339.0,695.0,0.0,1,446.0,1
411,411,0.5004195661324476,0.5,1.0,1.0,459.0,693.0,1.0,1,508.0,1
412,412,-0.3731671824091235,-0.4,0.0,1.0,493.0,760.0,1.0,0,387.0,1
413,413,-0.876559387643957,-0.9,1.0,0.0,364.0,926.0,0.0,0,90.0,1
414,414,-0.045294782291777747,-0.0,1.0,0.0,474.0,729.0,1.0,1,17.0,0
415,415,0.2642230288030939,0.3,0.0,0.0,361.0,632.0,1.0,0,807.0,0
416,416,-0.1956174388809323,-0.2,1.0,0.0,391.0,646.0,1.0,1,13.0,0
417,417,-0.8206581358294721,-0.8,1.0,0.0,340.0,979.0,0.0,0,141.0,1
418,418,-0.7160763920050768,-0.7,1.0,0.0,359.0,861.0,0.0,0,-320.0,1
419,419,0.1559768159781939,0.2,1.0,1.0,284.0,753.0,1.0,1,263.0,1
420,420,-0.612797733966151,-0.6,1.0,0.0,348.0,932.0,0.0,0,310.0,1
421,421,-0.1082366482545869,-0.1,0.0,1.0,429.0,964.0,1.0,0,-783.0,1
422,422,-0.6095672129865681,-0.6,0.0,1.0,449.0,669.0,1.0,0,342.0,1
423,423,0.2747431269287789,0.3,1.0,1.0,276.0,955.0,1.0,1,329.0,1
424,424,0.6474006217984835,0.6,0.0,0.0,313.0,929.0,1.0,0,248.0,0
425,425,-0.3877334065900869,-0.4,1.0,0.0,392.0,921.0,0.0,0,217.0,1
426,426,-0.004177740673597996,-0.0,1.0,0.0,380.0,781.0,1.0,1,99.0,0
427,427,0.80898351219564,0.8,1.0,1.0,284.0,678.0,1.0,1,338.0,1
428,428,-0.8498686676599856,-0.8,1.0,0.0,377.0,990.0,1.0,1,-417.0,0
429,429,0.3277490025024864,0.3,1.0,1.0,321.0,685.0,0.0,0,224.0,0
430,430,0.3068641034297438,0.3,0.0,0.0,277.0,975.0,0.0,1,718.0,1
431,431,-0.04818599600434048,-0.0,0.0,1.0,467.0,814.0,1.0,0,469.0,1
432,432,-0.4662546881292012,-0.5,0.0,1.0,302.0,796.0,1.0,0,292.0,1
433,433,-0.30748945401085315,-0.3,1.0,0.0,368.0,608.0,0.0,0,864.0,1
434,434,0.525276571032976,0.5,0.0,0.0,326.0,991.0,1.0,0,-637.0,0
435,435,-0.5208045368323448,-0.5,0.0,1.0,494.0,712.0,1.0,0,454.0,1
436,436,-0.3724315101207475,-0.4,1.0,0.0,352.0,594.0,0.0,0,774.0,1
437,437,0.14535428391514882,0.1,1.0,1.0,433.0,960.0,0.0,0,87.0,0
438,438,0.17334203586524966,0.2,0.0,0.0,481.0,722.0,0.0,1,607.0,1
439,439,0.319772854830601,0.3,0.0,0.0,259.0,712.0,0.0,1,509.0,1
440,440,0.46966036871025707,0.5,1.0,1.0,338.0,509.0,1.0,1,203.0,1
441,441,-0.32271320516791546,-0.3,1.0,0.0,282.0,729.0,1.0,1,-241.0,0
442,442,0.6665911107293873,0.7,1.0,1.0,457.0,802.0,1.0,1,201.0,1
443,443,0.08631407481588282,0.1,1.0,1.0,406.0,559.0,1.0,1,385.0,1
444,444,-0.3520210233543668,-0.4,1.0,0.0,344.0,886.0,0.0,0,170.0,1
445,445,0.770094384058616,0.8,1.0,1.0,367.0,822.0,1.0,1,221.0,1
446,446,-0.025248130690473825,-0.0,0.0,1.0,469.0,910.0,1.0,0,11.0,1
447,447,-0.7044653310806281,-0.7,0.0,1.0,271.0,685.0,1.0,0,804.0,1
448,448,-0.489219578860096,-0.5,0.0,1.0,316.0,589.0,1.0,0,385.0,1
449,449,0.10100360999209335,0.1,0.0,0.0,343.0,946.0,0.0,1,491.0,1
450,450,-0.3583181047506896,-0.4,0.0,1.0,326.0,539.0,1.0,0,365.0,1
451,451,0.013572351329627197,0.0,1.0,1.0,298.0,600.0,0.0,0,1562.0,0
452,452,-0.11682741466185442,-0.1,1.0,0.0,317.0,759.0,0.0,0,484.0,1
453,453,-0.4681595440661308,-0.5,1.0,0.0,375.0,831.0,0.0,0,204.0,1
454,454,0.6005087430787678,0.6,1.0,1.0,446.0,580.0,1.0,1,494.0,1
455,455,0.7285041215733431,0.7,0.0,0.0,297.0,521.0,0.0,1,302.0,1
456,456,-0.8800676914798549,-0.9,0.0,1.0,439.0,580.0,1.0,0,511.0,1
457,457,-0.43579341370900493,-0.4,1.0,0.0,400.0,957.0,0.0,0,393.0,1
458,458,0.0018132838027073994,0.0,1.0,1.0,318.0,557.0,0.0,0,205.0,0
459,459,0.5412484182386997,0.5,0.0,0.0,323.0,562.0,0.0,1,355.0,1
460,460,0.10106425917749962,0.1,0.0,0.0,384.0,506.0,0.0,1,640.0,1
461,461,-0.577433414311483,-0.6,1.0,0.0,261.0,920.0,0.0,0,289.0,1
462,462,0.26858919935352554,0.3,1.0,1.0,368.0,735.0,1.0,1,97.0,1
463,463,0.4736984653786528,0.5,0.0,0.0,285.0,952.0,0.0,1,93.0,1
464,464,-0.23500038210637209,-0.2,0.0,1.0,340.0,677.0,1.0,0,223.0,1
465,465,-0.759320445093616,-0.8,1.0,0.0,400.0,646.0,0.0,0,164.0,1
466,466,-0.5709588288567717,-0.6,0.0,1.0,377.0,843.0,0.0,1,-120.0,0
467,467,0.7174807475946213,0.7,1.0,1.0,311.0,555.0,1.0,1,174.0,1
468,468,0.5748421748734996,0.6,0.0,0.0,342.0,583.0,1.0,0,-355.0,0
469,469,-0.209880693928843,-0.2,1.0,0.0,277.0,629.0,1.0,1,-166.0,0
470,470,-0.6006717535975095,-0.6,0.0,1.0,284.0,684.0,1.0,0,372.0,1
471,471,-0.12909295185926983,-0.1,1.0,0.0,413.0,947.0,1.0,1,550.0,0
472,472,-0.7558412307904607,-0.8,1.0,0.0,297.0,823.0,0.0,0,220.0,1
473,473,-0.5242170633554974,-0.5,0.0,1.0,441.0,620.0,1.0,0,189.0,1
474,474,0.026404285678608308,0.0,0.0,0.0,343.0,995.0,1.0,0,1102.0,0
475,475,-0.17320493062850084,-0.2,0.0,1.0,319.0,938.0,1.0,0,-1217.0,1
476,476,-0.7589120335085667,-0.8,1.0,0.0,265.0,716.0,1.0,1,-191.0,0
477,477,0.30055180141891935,0.3,0.0,0.0,340.0,561.0,0.0,1,549.0,1
478,478,-0.6863121046921208,-0.7,0.0,1.0,365.0,578.0,1.0,0,267.0,1
479,479,0.13608257882286534,0.1,1.0,1.0,289.0,831.0,1.0,1,290.0,1
480,480,0.799314761652867,0.8,0.0,0.0,458.0,708.0,0.0,1,474.0,1
481,481,0.02717502423845719,0.0,1.0,1.0,441.0,789.0,0.0,0,800.0,0
482,482,0.6561931537823872,0.7,1.0,1.0,388.0,688.0,1.0,1,114.0,1
483,483,0.6497503790637861,0.6,1.0,1.0,358.0,692.0,1.0,1,260.0,1
484,484,0.11960665668035275,0.1,1.0,1.0,386.0,592.0,1.0,1,652.0,1
485,485,-0.07984158023652532,-0.1,1.0,0.0,321.0,748.0,1.0,1,371.0,0
486,486,0.34705764226063984,0.3,0.0,0.0,338.0,615.0,0.0,1,427.0,1
487,487,-0.49937149829238586,-0.5,0.0,1.0,318.0,546.0,1.0,0,166.0,1
488,488,0.19151579018296128,0.2,0.0,0.0,259.0,727.0,1.0,0,-126.0,0
489,489,0.8519152637331863,0.9,0.0,0.0,471.0,742.0,0.0,1,167.0,1
490,490,-0.631621262287599,-0.6,0.0,1.0,396.0,967.0,1.0,0,-133.0,1
491,491,0.28060317320706896,0.3,1.0,1.0,271.0,703.0,1.0,1,-14.0,1
492,492,-0.6328933314160541,-0.6,0.0,1.0,393.0,708.0,0.0,1,-371.0,0
493,493,-0.1183449746948082,-0.1,0.0,1.0,316.0,842.0,1.0,0,42.0,1
494,494,0.7081911706339233,0.7,0.0,0.0,376.0,925.0,0.0,1,179.0,1
495,495,0.8015201260974133,0.8,0.0,0.0,496.0,727.0,0.0,1,327.0,1
496,496,0.28448189462468443,0.3,0.0,0.0,257.0,550.0,0.0,1,-7.0,1
497,497,0.41956514582693594,0.4,0.0,0.0,339.0,529.0,1.0,0,-388.0,0
498,498,-0.34974124809300444,-0.3,0.0,1.0,381.0,955.0,1.0,0,474.0,1
499,499,-0.45360936173736793,-0.5,1.0,0.0,449.0,773.0,0.0,0,148.0,1
500,500,-0.12916455778607017,-0.1,0.0,1.0,342.0,873.0,1.0,0,305.0,1
501,501,0.515644267477762,0.5,0.0,0.0,313.0,528.0,0.0,1,79.0,1
502,502,-0.5625951887931709,-0.6,1.0,0.0,449.0,787.0,0.0,0,314.0,1
503,503,0.7297570461693791,0.7,1.0,1.0,321.0,691.0,1.0,1,268.0,1
504,504,-0.1381176366697101,-0.1,0.0,1.0,327.0,730.0,1.0,0,-187.0,1
505,505,-0.5185115538968876,-0.5,0.0,1.0,320.0,807.0,1.0,0,-277.0,1
506,506,0.8344804717343733,0.8,0.0,0.0,423.0,786.0,1.0,0,-299.0,0
507,507,-0.09522699830592807,-0.1,0.0,1.0,480.0,652.0,1.0,0,-382.0,1
508,508,-0.8772481568394301,-0.9,0.0,1.0,341.0,643.0,1.0,0,-104.0,1
509,509,-0.49362530410406996,-0.5,0.0,1.0,406.0,583.0,0.0,1,-39.0,0
510,510,0.6216177890923332,0.6,0.0,0.0,271.0,865.0,0.0,1,264.0,1
511,511,0.015330469457919826,0.0,0.0,0.0,293.0,906.0,1.0,0,-449.0,0
512,512,0.5432958264878213,0.5,0.0,0.0,453.0,620.0,0.0,1,297.0,1
513,513,-0.5078350113276524,-0.5,1.0,0.0,357.0,501.0,0.0,0,142.0,1
514,514,-0.8518920169537828,-0.9,0.0,1.0,488.0,829.0,1.0,0,-277.0,1
515,515,0.7883091140658928,0.8,1.0,1.0,405.0,791.0,0.0,0,-66.0,0
516,516,0.15008212800989684,0.2,1.0,1.0,302.0,517.0,1.0,1,361.0,1
517,517,-0.13304100063677093,-0.1,1.0,0.0,256.0,519.0,0.0,0,805.0,1
518,518,-0.6120338121105298,-0.6,1.0,0.0,498.0,835.0,0.0,0,487.0,1
519,519,-0.8768321292665547,-0.9,0.0,1.0,305.0,823.0,0.0,1,-148.0,0
520,520,0.3078777216042413,0.3,0.0,0.0,383.0,904.0,1.0,0,-497.0,0
521,521,-0.14667648020567325,-0.1,0.0,1.0,320.0,960.0,1.0,0,-10.0,1
522,522,-0.1700822358144619,-0.2,1.0,0.0,356.0,929.0,0.0,0,-205.0,1
523,523,0.00975873047699849,0.0,1.0,1.0,391.0,802.0,0.0,0,267.0,0
524,524,-0.15243191732030847,-0.2,0.0,1.0,285.0,692.0,1.0,0,1443.0,1
525,525,-0.26706747025354094,-0.3,1.0,0.0,413.0,589.0,0.0,0,488.0,1
526,526,-0.012990214261567656,-0.0,1.0,0.0,471.0,760.0,1.0,1,189.0,0
527,527,0.4933652937297027,0.5,1.0,1.0,349.0,785.0,1.0,1,36.0,1
528,528,-0.45358940378571283,-0.5,1.0,0.0,345.0,503.0,0.0,0,582.0,1
529,529,0.6117272291472527,0.6,0.0,0.0,472.0,524.0,1.0,0,-86.0,0
530,530,-0.7201755198653094,-0.7,1.0,0.0,453.0,626.0,1.0,1,-119.0,0
531,531,-0.010277095274997428,-0.0,1.0,0.0,426.0,631.0,1.0,1,403.0,0
532,532,-0.7380336367022544,-0.7,0.0,1.0,400.0,701.0,1.0,0,229.0,1
533,533,-0.8478368081947759,-0.8,0.0,1.0,380.0,805.0,1.0,0,-195.0,1
534,534,0.3053399003210905,0.3,0.0,0.0,408.0,572.0,0.0,1,1010.0,1
535,535,0.5288287979131591,0.5,0.0,0.0,452.0,647.0,0.0,1,281.0,1
536,536,0.8977441772209659,0.9,0.0,0.0,437.0,955.0,0.0,1,358.0,1
537,537,-0.29132270940861527,-0.3,1.0,0.0,423.0,933.0,0.0,0,314.0,1
538,538,-0.8626743249481169,-0.9,0.0,1.0,357.0,790.0,1.0,0,133.0,1
539,539,-0.2206486969237622,-0.2,0.0,1.0,358.0,860.0,1.0,0,-218.0,1
540,540,0.5144076477291833,0.5,1.0,1.0,361.0,578.0,1.0,1,221.0,1
541,541,0.3522543486405457,0.4,1.0,1.0,489.0,891.0,1.0,1,210.0,1
542,542,0.21579764144020042,0.2,1.0,1.0,258.0,783.0,1.0,1,2389.0,1
543,543,0.11239611632370339,0.1,0.0,0.0,485.0,836.0,1.0,0,129.0,0
544,544,-0.2901611224187939,-0.3,0.0,1.0,487.0,817.0,1.0,0,-4.0,1
545,545,-0.26919931648300777,-0.3,1.0,0.0,358.0,885.0,0.0,0,517.0,1
546,546,0.22044171808769997,0.2,1.0,1.0,459.0,707.0,0.0,0,54.0,0
547,547,-0.19413322402985966,-0.2,0.0,1.0,462.0,927.0,1.0,0,-59.0,1
548,548,0.846828711650481,0.8,1.0,1.0,355.0,671.0,1.0,1,364.0,1
549,549,-0.05483456026807643,-0.1,0.0,1.0,301.0,771.0,1.0,0,588.0,1
550,550,0.5940116961663912,0.6,0.0,0.0,379.0,721.0,1.0,0,-20.0,0
551,551,0.3472289247105801,0.3,0.0,0.0,329.0,608.0,0.0,1,643.0,1
552,552,0.20363823045663543,0.2,1.0,1.0,463.0,558.0,1.0,1,479.0,1
553,553,-0.3758444406179865,-0.4,0.0,1.0,370.0,771.0,1.0,0,509.0,1
554,554,-0.765980007971577,-0.8,1.0,0.0,300.0,672.0,0.0,0,128.0,1
555,555,-0.063826172943518,-0.1,1.0,0.0,343.0,979.0,0.0,0,298.0,1
556,556,0.5977733915061073,0.6,0.0,0.0,443.0,615.0,1.0,0,-188.0,0
557,557,0.17558945482942467,0.2,1.0,1.0,466.0,586.0,1.0,1,748.0,1
558,558,0.8533600324866607,0.9,1.0,1.0,394.0,529.0,1.0,1,227.0,1
559,559,-0.5872476132957167,-0.6,0.0,1.0,335.0,649.0,1.0,0,246.0,1
560,560,-0.6341772979898975,-0.6,0.0,1.0,455.0,728.0,1.0,0,597.0,1
561,561,0.2348893763083194,0.2,0.0,0.0,451.0,901.0,0.0,1,328.0,1
562,562,0.3940571245583321,0.4,0.0,0.0,376.0,970.0,0.0,1,364.0,1
563,563,-0.8477840067295933,-0.8,1.0,0.0,344.0,662.0,0.0,0,274.0,1
564,564,-0.6146791980244808,-0.6,0.0,1.0,378.0,814.0,1.0,0,288.0,1
565,565,-0.3112603904060147,-0.3,0.0,1.0,467.0,744.0,1.0,0,279.0,1
566,566,0.6400468224838093,0.6,1.0,1.0,349.0,748.0,1.0,1,303.0,1
567,567,0.208505124804799,0.2,0.0,0.0,402.0,549.0,1.0,0,1829.0,0
568,568,0.21534548330039527,0.2,1.0,1.0,287.0,714.0,1.0,1,359.0,1
569,569,-0.8965433070748863,-0.9,1.0,0.0,296.0,944.0,0.0,0,150.0,1
570,570,-0.4377111146489302,-0.4,1.0,0.0,369.0,956.0,0.0,0,315.0,1
571,571,0.49431553656399696,0.5,1.0,1.0,344.0,613.0,1.0,1,133.0,1
572,572,0.18600179922776394,0.2,0.0,0.0,485.0,961.0,0.0,1,1164.0,1
573,573,-0.7644351054677128,-0.8,1.0,0.0,388.0,600.0,0.0,0,192.0,1
574,574,-0.7347730777021241,-0.7,1.0,0.0,340.0,781.0,0.0,0,99.0,1
575,575,0.3059239794035312,0.3,0.0,0.0,314.0,927.0,1.0,0,-331.0,0
576,576,-0.3480452328374777,-0.3,1.0,0.0,369.0,879.0,1.0,1,-98.0,0
577,577,0.8309780260407836,0.8,1.0,1.0,263.0,978.0,1.0,1,249.0,1
578,578,0.7266884129604633,0.7,0.0,0.0,349.0,800.0,0.0,1,491.0,1
579,579,-0.4679274356551627,-0.5,1.0,0.0,432.0,816.0,0.0,0,-78.0,1
580,580,-0.8914438420166267,-0.9,1.0,0.0,358.0,643.0,0.0,0,279.0,1
581,581,0.027618283367810914,0.0,1.0,1.0,344.0,556.0,1.0,1,1040.0,1
582,582,-0.025564398349466777,-0.0,1.0,0.0,291.0,719.0,0.0,0,940.0,1
583,583,0.8315739285351534,0.8,1.0,1.0,472.0,855.0,1.0,1,173.0,1
584,584,-0.26041567906241125,-0.3,0.0,1.0,430.0,853.0,1.0,0,-123.0,1
585,585,0.09707549684403982,0.1,0.0,0.0,433.0,901.0,0.0,1,556.0,1
586,586,0.26290935935782833,0.3,1.0,1.0,442.0,931.0,1.0,1,357.0,1
587,587,-0.10615944905759134,-0.1,1.0,0.0,482.0,872.0,0.0,0,976.0,1
588,588,-0.4048638223902244,-0.4,0.0,1.0,305.0,645.0,1.0,0,910.0,1
589,589,0.08017350687316549,0.1,1.0,1.0,491.0,964.0,1.0,1,1715.0,1
590,590,-0.8332514710659846,-0.8,1.0,0.0,480.0,563.0,0.0,0,197.0,1
591,591,0.47956440608537665,0.5,0.0,0.0,434.0,670.0,1.0,0,-1004.0,0
592,592,0.7472978423466444,0.7,0.0,0.0,411.0,826.0,0.0,1,113.0,1
593,593,0.1192033895806478,0.1,1.0,1.0,492.0,821.0,1.0,1,427.0,1
594,594,0.8105858695426061,0.8,1.0,1.0,279.0,727.0,1.0,1,204.0,1
595,595,-0.7845270696566997,-0.8,0.0,1.0,498.0,897.0,1.0,0,115.0,1
596,596,-0.8817846015480857,-0.9,1.0,0.0,293.0,804.0,0.0,0,63.0,1
597,597,0.0183012712642584,0.0,0.0,0.0,441.0,851.0,1.0,0,-272.0,0
598,598,0.8291912509576896,0.8,0.0,0.0,445.0,775.0,0.0,1,450.0,1
599,599,0.2942247313451739,0.3,1.0,1.0,424.0,698.0,1.0,1,308.0,1
600,600,0.3635901606420179,0.4,0.0,0.0,438.0,907.0,1.0,0,-255.0,0
601,601,0.8301455536720884,0.8,1.0,1.0,463.0,599.0,1.0,1,118.0,1
602,602,0.8330170258896948,0.8,1.0,1.0,434.0,684.0,1.0,1,62.0,1
603,603,-0.7601021281617066,-0.8,0.0,1.0,317.0,694.0,1.0,0,129.0,1
604,604,-0.15774332017709802,-0.2,0.0,1.0,473.0,510.0,1.0,0,1017.0,1
605,605,-0.8638679405148332,-0.9,1.0,0.0,441.0,887.0,0.0,0,122.0,1
606,606,0.32408846132273605,0.3,1.0,1.0,478.0,626.0,0.0,0,156.0,0
607,607,-0.8650032838005578,-0.9,0.0,1.0,434.0,505.0,1.0,0,-169.0,1
608,608,0.589233210657469,0.6,1.0,1.0,458.0,851.0,1.0,1,211.0,1
609,609,0.3837210099367935,0.4,0.0,0.0,346.0,693.0,1.0,0,-449.0,0
610,610,-0.6757737929965765,-0.7,0.0,1.0,379.0,841.0,1.0,0,50.0,1
611,611,0.7744166020147397,0.8,0.0,0.0,406.0,913.0,0.0,1,251.0,1
612,612,-0.18975216983836252,-0.2,0.0,1.0,401.0,709.0,1.0,0,1220.0,1
613,613,-0.07283670334506631,-0.1,0.0,1.0,342.0,584.0,1.0,0,154.0,1
614,614,0.13613010007344617,0.1,1.0,1.0,386.0,813.0,1.0,1,1431.0,1
615,615,0.5789500541210687,0.6,1.0,1.0,254.0,528.0,0.0,0,-192.0,0
616,616,-0.8749361591619776,-0.9,1.0,0.0,383.0,602.0,0.0,0,325.0,1
617,617,0.8942097307605329,0.9,0.0,0.0,299.0,894.0,0.0,1,157.0,1
618,618,0.11836902713816044,0.1,1.0,1.0,253.0,778.0,1.0,1,929.0,1
619,619,-0.28937719484509794,-0.3,1.0,0.0,254.0,889.0,0.0,0,677.0,1
620,620,0.5675622321941524,0.6,0.0,0.0,314.0,916.0,1.0,0,-280.0,0
621,621,-0.7959069772253468,-0.8,1.0,0.0,361.0,901.0,0.0,0,368.0,1
622,622,0.4888419208462268,0.5,1.0,1.0,426.0,629.0,1.0,1,255.0,1
623,623,0.13042780970079815,0.1,1.0,1.0,497.0,743.0,0.0,0,620.0,0
624,624,-0.8440836508401384,-0.8,0.0,1.0,290.0,562.0,1.0,0,188.0,1
625,625,0.009339421158056083,0.0,1.0,1.0,489.0,602.0,0.0,0,309.0,0
626,626,0.5995458608562504,0.6,0.0,0.0,449.0,821.0,0.0,1,240.0,1
627,627,0.7478954230100722,0.7,1.0,1.0,492.0,740.0,1.0,1,198.0,1
628,628,-0.26112445057628675,-0.3,0.0,1.0,451.0,829.0,1.0,0,100.0,1
629,629,-0.38334466146191837,-0.4,0.0,1.0,413.0,622.0,1.0,0,175.0,1
630,630,-0.6875570907653575,-0.7,0.0,1.0,477.0,838.0,1.0,0,55.0,1
631,631,-0.5324609110621638,-0.5,0.0,1.0,430.0,552.0,1.0,0,838.0,1
632,632,0.7008846025779084,0.7,0.0,0.0,311.0,869.0,1.0,0,-210.0,0
633,633,-0.757926277049636,-0.8,0.0,1.0,437.0,996.0,1.0,0,-163.0,1
634,634,0.6719397805643185,0.7,0.0,0.0,251.0,502.0,0.0,1,157.0,1
635,635,-0.1593533586645357,-0.2,0.0,1.0,312.0,746.0,1.0,0,1022.0,1
636,636,-0.4556844711342129,-0.5,0.0,1.0,405.0,514.0,1.0,0,511.0,1
637,637,-0.8460181906114119,-0.8,1.0,0.0,328.0,948.0,0.0,0,144.0,1
638,638,0.6535887842519882,0.7,1.0,1.0,306.0,832.0,1.0,1,122.0,1
639,639,-0.2867977594904715,-0.3,1.0,0.0,449.0,760.0,0.0,0,321.0,1
640,640,0.25952124831585144,0.3,0.0,0.0,458.0,680.0,0.0,1,792.0,1
641,641,0.8975332189310571,0.9,0.0,0.0,325.0,650.0,0.0,1,205.0,1
642,642,-0.23727132768689163,-0.2,0.0,1.0,339.0,948.0,1.0,0,553.0,1
643,643,0.4592596995579642,0.5,0.0,0.0,461.0,610.0,0.0,1,479.0,1
644,644,-0.10123161244960854,-0.1,1.0,0.0,404.0,777.0,0.0,0,329.0,1
645,645,0.4201995438988636,0.4,1.0,1.0,464.0,955.0,1.0,1,191.0,1
646,646,-0.8187424164690976,-0.8,0.0,1.0,477.0,969.0,1.0,0,-556.0,1
647,647,0.06697479024250652,0.1,0.0,0.0,321.0,592.0,0.0,1,2777.0,1
648,648,0.21846289584563572,0.2,1.0,1.0,406.0,746.0,1.0,1,2158.0,1
649,649,-0.1842627450716341,-0.2,0.0,1.0,446.0,972.0,1.0,0,192.0,1
650,650,0.2559241941674911,0.3,1.0,1.0,358.0,896.0,1.0,1,486.0,1
651,651,0.38375755967882463,0.4,1.0,1.0,477.0,742.0,1.0,1,301.0,1
652,652,-0.6231274772498605,-0.6,1.0,0.0,494.0,841.0,0.0,0,255.0,1
653,653,-0.3310144279349744,-0.3,1.0,0.0,417.0,872.0,0.0,0,511.0,1
654,654,0.08312890450866861,0.1,0.0,0.0,361.0,782.0,1.0,0,-223.0,0
655,655,0.6251435912055018,0.6,0.0,0.0,284.0,589.0,0.0,1,497.0,1
656,656,0.7403010380852896,0.7,0.0,0.0,494.0,930.0,0.0,1,206.0,1
657,657,0.41175481961739,0.4,1.0,1.0,259.0,553.0,1.0,1,478.0,1
658,658,-0.6877983578678055,-0.7,1.0,0.0,261.0,927.0,1.0,1,-298.0,0
659,659,-0.3438858722643112,-0.3,1.0,0.0,274.0,984.0,0.0,0,182.0,1
660,660,-0.30462369063863115,-0.3,1.0,0.0,381.0,963.0,0.0,0,326.0,1
661,661,0.845697032296398,0.8,0.0,0.0,274.0,630.0,0.0,1,216.0,1
662,662,-0.6792509206463131,-0.7,1.0,0.0,316.0,782.0,0.0,0,312.0,1
663,663,-0.1659346520937076,-0.2,0.0,1.0,310.0,814.0,1.0,0,-454.0,1
664,664,0.37316529098059126,0.4,0.0,0.0,448.0,768.0,0.0,1,64.0,1
665,665,-0.16841187758398768,-0.2,0.0,1.0,389.0,772.0,1.0,0,-21.0,1
666,666,0.694977068705312,0.7,0.0,0.0,487.0,822.0,0.0,1,231.0,1
667,667,-0.20755083894604887,-0.2,1.0,0.0,291.0,816.0,0.0,0,1043.0,1
668,668,0.7659448661127258,0.8,1.0,1.0,434.0,846.0,1.0,1,130.0,1
669,669,0.6280986483688603,0.6,0.0,0.0,261.0,601.0,0.0,1,318.0,1
670,670,0.5641128114788442,0.6,1.0,1.0,400.0,541.0,1.0,1,429.0,1
671,671,-0.12754522245144773,-0.1,1.0,0.0,276.0,516.0,0.0,0,428.0,1
672,672,-0.1978815514037373,-0.2,0.0,1.0,278.0,976.0,0.0,1,266.0,0
673,673,-0.7191441635311191,-0.7,1.0,0.0,430.0,820.0,0.0,0,290.0,1
674,674,0.5384712770843788,0.5,0.0,0.0,266.0,722.0,0.0,1,232.0,1
675,675,-0.5607999551882056,-0.6,0.0,1.0,426.0,695.0,1.0,0,259.0,1
676,676,-0.37218454506596377,-0.4,1.0,0.0,323.0,709.0,1.0,1,-202.0,0
677,677,0.7821888924707591,0.8,0.0,0.0,439.0,942.0,0.0,1,209.0,1
678,678,-0.09099670924320635,-0.1,0.0,1.0,445.0,960.0,1.0,0,-355.0,1
679,679,-0.03402987446581107,-0.0,0.0,1.0,464.0,526.0,1.0,0,180.0,1
680,680,-0.5039652615964394,-0.5,1.0,0.0,283.0,938.0,0.0,0,269.0,1
681,681,0.21740770058063663,0.2,0.0,0.0,258.0,602.0,0.0,1,450.0,1
682,682,0.2896764130308548,0.3,0.0,0.0,464.0,695.0,0.0,1,481.0,1
683,683,0.16603646185645993,0.2,1.0,1.0,413.0,522.0,1.0,1,225.0,1
684,684,0.3816348125243937,0.4,1.0,1.0,358.0,926.0,1.0,1,-4.0,1
685,685,-0.5432095716169365,-0.5,1.0,0.0,488.0,553.0,0.0,0,159.0,1
686,686,-0.051214051922506054,-0.1,0.0,1.0,258.0,632.0,0.0,1,-350.0,0
687,687,0.6081649512699442,0.6,1.0,1.0,444.0,653.0,1.0,1,-117.0,1
688,688,-0.6001684874483301,-0.6,1.0,0.0,493.0,634.0,0.0,0,293.0,1
689,689,-0.3459606261214737,-0.3,1.0,0.0,382.0,644.0,0.0,0,864.0,1
690,690,0.13573849168504049,0.1,1.0,1.0,386.0,830.0,1.0,1,664.0,1
691,691,0.1553437405234156,0.2,1.0,1.0,417.0,616.0,1.0,1,1257.0,1
692,692,0.23984835395316983,0.2,0.0,0.0,425.0,921.0,1.0,0,314.0,0
693,693,-0.6427992908449596,-0.6,0.0,1.0,459.0,676.0,1.0,0,765.0,1
694,694,0.5310295494072977,0.5,0.0,0.0,407.0,698.0,0.0,1,205.0,1
695,695,-0.6823584839383868,-0.7,0.0,1.0,274.0,570.0,1.0,0,156.0,1
696,696,0.8146987664510364,0.8,1.0,1.0,349.0,811.0,1.0,1,170.0,1
697,697,0.5228474261435169,0.5,0.0,0.0,492.0,699.0,0.0,1,379.0,1
698,698,-0.24392876987410594,-0.2,0.0,1.0,497.0,790.0,1.0,0,-147.0,1
699,699,-0.8650078944263887,-0.9,0.0,1.0,360.0,632.0,1.0,0,208.0,1
700,700,-0.8223370860824734,-0.8,1.0,0.0,419.0,834.0,0.0,0,257.0,1
701,701,0.736671733646555,0.7,0.0,0.0,422.0,849.0,0.0,1,109.0,1
702,702,-0.058924397784226534,-0.1,0.0,1.0,454.0,826.0,1.0,0,-320.0,1
703,703,0.822608613991629,0.8,0.0,0.0,377.0,607.0,1.0,0,-14.0,0
704,704,-0.06917106279321616,-0.1,0.0,1.0,459.0,821.0,0.0,1,110.0,0
705,705,0.5211437436007348,0.5,0.0,0.0,294.0,619.0,1.0,0,-183.0,0
706,706,0.29350811718488223,0.3,0.0,0.0,497.0,883.0,0.0,1,260.0,1
707,707,-0.194686249799348,-0.2,1.0,0.0,335.0,630.0,0.0,0,255.0,1
708,708,-0.5668426420780364,-0.6,1.0,0.0,464.0,884.0,0.0,0,232.0,1
709,709,0.10872644120516817,0.1,1.0,1.0,375.0,971.0,1.0,1,224.0,1
710,710,-0.752863071607019,-0.8,1.0,0.0,397.0,728.0,0.0,0,515.0,1
711,711,0.5188121383740202,0.5,1.0,1.0,396.0,530.0,1.0,1,184.0,1
712,712,0.7579880511485785,0.8,0.0,0.0,284.0,983.0,1.0,0,-257.0,0
713,713,-0.8769043128941894,-0.9,0.0,1.0,467.0,803.0,1.0,0,90.0,1
714,714,0.011018627172423856,0.0,1.0,1.0,397.0,514.0,0.0,0,2509.0,0
715,715,-0.7932055630675432,-0.8,0.0,1.0,442.0,880.0,1.0,0,218.0,1
716,716,-0.7383789623663606,-0.7,0.0,1.0,408.0,545.0,1.0,0,-203.0,1
717,717,-0.6994234593639497,-0.7,0.0,1.0,466.0,989.0,1.0,0,205.0,1
718,718,0.7759044168201127,0.8,0.0,0.0,276.0,915.0,0.0,1,519.0,1
719,719,-0.7856194215165254,-0.8,1.0,0.0,399.0,519.0,0.0,0,212.0,1
720,720,-0.3994591637880641,-0.4,0.0,1.0,328.0,822.0,1.0,0,260.0,1
721,721,0.3549902939785211,0.4,0.0,0.0,469.0,877.0,0.0,1,104.0,1
722,722,0.26507490055697047,0.3,0.0,0.0,285.0,974.0,0.0,1,341.0,1
723,723,0.016492743898182782,0.0,0.0,0.0,369.0,762.0,0.0,1,359.0,1
724,724,-0.6275494946911347,-0.6,1.0,0.0,327.0,999.0,0.0,0,54.0,1
725,725,0.1149636758441216,0.1,1.0,1.0,475.0,722.0,1.0,1,1233.0,1
726,726,-0.1423761453032435,-0.1,1.0,0.0,266.0,696.0,0.0,0,788.0,1
727,727,0.8825520195886952,0.9,1.0,1.0,350.0,918.0,1.0,1,102.0,1
728,728,-0.4589792277622194,-0.5,1.0,0.0,442.0,969.0,0.0,0,329.0,1
729,729,-0.3980490905175089,-0.4,1.0,0.0,335.0,848.0,0.0,0,-53.0,1
730,730,0.63275606027624,0.6,1.0,1.0,270.0,873.0,1.0,1,267.0,1
731,731,-0.11671663786929543,-0.1,1.0,0.0,295.0,730.0,0.0,0,1165.0,1
732,732,-0.8889376824116269,-0.9,0.0,1.0,443.0,967.0,1.0,0,280.0,1
733,733,0.2667269115158658,0.3,1.0,1.0,429.0,686.0,1.0,1,675.0,1
734,734,0.8336781965562087,0.8,1.0,1.0,466.0,698.0,1.0,1,156.0,1
735,735,-0.8186083879552285,-0.8,0.0,1.0,341.0,970.0,1.0,0,99.0,1
736,736,0.7080463189245852,0.7,0.0,0.0,339.0,662.0,0.0,1,229.0,1
737,737,0.5308223777026543,0.5,1.0,1.0,482.0,978.0,1.0,1,-10.0,1
738,738,0.37723777796155866,0.4,0.0,0.0,254.0,710.0,0.0,1,346.0,1
739,739,0.29658379419306236,0.3,1.0,1.0,284.0,960.0,0.0,0,-534.0,0
740,740,-0.14986379707717445,-0.1,1.0,0.0,336.0,726.0,0.0,0,1628.0,1
741,741,-0.2592255834277897,-0.3,0.0,1.0,341.0,622.0,1.0,0,487.0,1
742,742,-0.6246417069716776,-0.6,0.0,1.0,275.0,637.0,1.0,0,38.0,1
743,743,0.13660992981365483,0.1,0.0,0.0,422.0,604.0,1.0,0,-36.0,0
744,744,0.8872966669259793,0.9,0.0,0.0,392.0,722.0,0.0,1,166.0,1
745,745,0.15204102240775785,0.2,0.0,0.0,373.0,537.0,0.0,1,740.0,1
746,746,0.3757639364284585,0.4,0.0,0.0,349.0,726.0,1.0,0,-205.0,0
747,747,0.43852114533259645,0.4,0.0,0.0,264.0,990.0,0.0,1,356.0,1
748,748,-0.5182199535271999,-0.5,1.0,0.0,463.0,556.0,0.0,0,301.0,1
749,749,0.67753698703417,0.7,0.0,0.0,342.0,648.0,0.0,1,300.0,1
750,750,0.24454774919290678,0.2,0.0,0.0,474.0,565.0,0.0,1,261.0,1
751,751,-0.608167665823018,-0.6,1.0,0.0,260.0,542.0,0.0,0,38.0,1
752,752,0.2394851424217853,0.2,1.0,1.0,481.0,915.0,1.0,1,734.0,1
753,753,-0.33439643983663936,-0.3,0.0,1.0,491.0,982.0,1.0,0,-503.0,1
754,754,0.08540434561934485,0.1,1.0,1.0,382.0,770.0,1.0,1,1388.0,1
755,755,0.7633076485341262,0.8,1.0,1.0,292.0,516.0,1.0,1,232.0,1
756,756,-0.63115284221052,-0.6,0.0,1.0,367.0,698.0,1.0,0,355.0,1
757,757,0.32503324373450215,0.3,0.0,0.0,306.0,570.0,0.0,1,244.0,1
758,758,-0.648281435465142,-0.6,1.0,0.0,396.0,520.0,0.0,0,484.0,1
759,759,0.794514101597304,0.8,0.0,0.0,481.0,651.0,0.0,1,448.0,1
760,760,-0.2900055554118035,-0.3,0.0,1.0,251.0,847.0,1.0,0,-258.0,1
761,761,0.7004177289612913,0.7,0.0,0.0,391.0,924.0,0.0,1,215.0,1
762,762,0.07564918188206837,0.1,1.0,1.0,289.0,709.0,0.0,0,712.0,0
763,763,-0.4015716811054687,-0.4,1.0,0.0,435.0,845.0,0.0,0,-540.0,1
764,764,-0.8029944521883008,-0.8,1.0,0.0,392.0,726.0,0.0,0,182.0,1
765,765,-0.34968312587280803,-0.3,0.0,1.0,388.0,840.0,1.0,0,-218.0,1
766,766,-0.3053625922870725,-0.3,0.0,1.0,256.0,939.0,1.0,0,-35.0,1
767,767,0.6202144820758398,0.6,0.0,0.0,283.0,658.0,0.0,1,409.0,1
768,768,0.00815460396901646,0.0,1.0,1.0,334.0,567.0,0.0,0,-11.0,0
769,769,0.20462024540915824,0.2,1.0,1.0,442.0,525.0,1.0,1,273.0,1
770,770,0.7296944906225279,0.7,1.0,1.0,431.0,913.0,1.0,1,346.0,1
771,771,0.7127583512460022,0.7,0.0,0.0,419.0,933.0,1.0,0,-422.0,0
772,772,0.888345549342655,0.9,0.0,0.0,333.0,754.0,0.0,1,123.0,1
773,773,0.17617787721380218,0.2,1.0,1.0,345.0,823.0,1.0,1,1172.0,1
774,774,-0.5608235970648803,-0.6,0.0,1.0,463.0,844.0,1.0,0,-247.0,1
775,775,0.874240349626587,0.9,1.0,1.0,354.0,897.0,1.0,1,389.0,1
776,776,-0.7608449997436699,-0.8,1.0,0.0,272.0,987.0,0.0,0,271.0,1
777,777,-0.4518833355230957,-0.5,1.0,0.0,460.0,763.0,0.0,0,177.0,1
778,778,-0.7416243783589174,-0.7,0.0,1.0,490.0,794.0,1.0,0,346.0,1
779,779,0.6726185149947622,0.7,1.0,1.0,262.0,564.0,1.0,1,334.0,1
780,780,0.6458471323987524,0.6,1.0,1.0,388.0,656.0,1.0,1,216.0,1
781,781,-0.7609289558122931,-0.8,0.0,1.0,423.0,981.0,1.0,0,-284.0,1
782,782,-0.1851357652503195,-0.2,0.0,1.0,366.0,834.0,1.0,0,460.0,1
783,783,-0.256894266329186,-0.3,1.0,0.0,493.0,994.0,0.0,0,303.0,1
784,784,0.4887072205858055,0.5,1.0,1.0,436.0,944.0,1.0,1,350.0,1
785,785,-0.213786597368689,-0.2,0.0,1.0,372.0,804.0,1.0,0,1184.0,1
786,786,0.46626527140792484,0.5,0.0,0.0,364.0,781.0,1.0,0,-105.0,0
787,787,0.04407441450534699,0.0,0.0,0.0,442.0,843.0,0.0,1,605.0,1
788,788,-0.6197528012337685,-0.6,1.0,0.0,487.0,641.0,0.0,0,242.0,1
789,789,0.11463682854276891,0.1,1.0,1.0,278.0,570.0,1.0,1,-88.0,1
790,790,0.2735300808717992,0.3,1.0,1.0,364.0,980.0,1.0,1,116.0,1
791,791,-0.08994978827330835,-0.1,1.0,0.0,492.0,587.0,0.0,0,501.0,1
792,792,-0.3222926418783584,-0.3,1.0,0.0,494.0,926.0,0.0,0,150.0,1
793,793,-0.22446588916139776,-0.2,0.0,1.0,473.0,907.0,1.0,0,-60.0,1
794,794,0.09643067440871633,0.1,1.0,1.0,438.0,752.0,1.0,1,1760.0,1
795,795,0.5799587074698026,0.6,0.0,0.0,463.0,833.0,1.0,0,-196.0,0
796,796,-0.4917146097678607,-0.5,1.0,0.0,437.0,872.0,0.0,0,-49.0,1
797,797,0.7340642052115897,0.7,0.0,0.0,282.0,540.0,0.0,1,488.0,1
798,798,0.5081103450668906,0.5,0.0,0.0,449.0,815.0,0.0,1,116.0,1
799,799,0.6270361267272918,0.6,0.0,0.0,259.0,634.0,0.0,1,427.0,1
800,800,-0.8946310399504004,-0.9,0.0,1.0,406.0,696.0,1.0,0,238.0,1
801,801,-0.8847187569062549,-0.9,1.0,0.0,382.0,509.0,0.0,0,59.0,1
802,802,-0.508032671399985,-0.5,0.0,1.0,375.0,809.0,1.0,0,196.0,1
803,803,0.6634413690472761,0.7,0.0,0.0,269.0,765.0,1.0,0,-254.0,0
804,804,-0.6980127727613832,-0.7,0.0,1.0,277.0,924.0,1.0,0,-181.0,1
805,805,-0.8246950918610908,-0.8,1.0,0.0,491.0,539.0,0.0,0,200.0,1
806,806,0.7533403483143081,0.8,1.0,1.0,415.0,670.0,1.0,1,445.0,1
807,807,0.5460939966168216,0.5,1.0,1.0,494.0,685.0,1.0,1,181.0,1
808,808,-0.28645863642278546,-0.3,0.0,1.0,465.0,582.0,1.0,0,-57.0,1
809,809,-0.17857679197827958,-0.2,1.0,0.0,477.0,891.0,0.0,0,1002.0,1
810,810,0.07439330997290994,0.1,1.0,1.0,317.0,556.0,1.0,1,127.0,1
811,811,0.7705603264201909,0.8,0.0,0.0,460.0,594.0,0.0,1,476.0,1
812,812,-0.7034200213935171,-0.7,1.0,0.0,361.0,583.0,0.0,0,106.0,1
813,813,0.4636657009025561,0.5,1.0,1.0,490.0,592.0,1.0,1,358.0,1
814,814,-0.5308025890947823,-0.5,0.0,1.0,284.0,687.0,1.0,0,-291.0,1
815,815,0.059741315977909104,0.1,0.0,0.0,259.0,915.0,1.0,0,-374.0,0
816,816,-0.08232951933952959,-0.1,0.0,1.0,402.0,859.0,1.0,0,409.0,1
817,817,-0.7810013816142283,-0.8,1.0,0.0,323.0,940.0,0.0,0,177.0,1
818,818,0.846637242319164,0.8,0.0,0.0,447.0,783.0,0.0,1,-190.0,1
819,819,0.8744622291125569,0.9,0.0,0.0,257.0,645.0,0.0,1,278.0,1
820,820,-0.23831991860562807,-0.2,1.0,0.0,352.0,747.0,0.0,0,201.0,1
821,821,-0.8731175190471786,-0.9,0.0,1.0,264.0,927.0,1.0,0,169.0,1
822,822,0.8436071708669243,0.8,1.0,1.0,315.0,827.0,1.0,1,268.0,1
823,823,-0.7355001913928405,-0.7,1.0,0.0,336.0,542.0,0.0,0,192.0,1
824,824,-0.6084681642435184,-0.6,1.0,0.0,334.0,613.0,0.0,0,293.0,1
825,825,-0.6408537579796858,-0.6,0.0,1.0,491.0,956.0,1.0,0,133.0,1
826,826,-0.13503445948367887,-0.1,1.0,0.0,475.0,690.0,1.0,1,745.0,0
827,827,-0.4929450550569242,-0.5,1.0,0.0,317.0,882.0,0.0,0,321.0,1
828,828,-0.8477142704166355,-0.8,0.0,1.0,283.0,890.0,1.0,0,227.0,1
829,829,-0.23344066066300806,-0.2,1.0,0.0,423.0,662.0,0.0,0,1125.0,1
830,830,-0.5375315462572103,-0.5,0.0,1.0,487.0,556.0,1.0,0,717.0,1
831,831,0.8514968084985793,0.9,0.0,0.0,410.0,991.0,0.0,1,-181.0,1
832,832,-0.1166142951185909,-0.1,1.0,0.0,474.0,553.0,0.0,0,63.0,1
833,833,-0.7521279358817512,-0.8,0.0,1.0,339.0,870.0,1.0,0,-199.0,1
834,834,0.6888859704463687,0.7,0.0,0.0,449.0,972.0,1.0,0,9.0,0
835,835,0.028366178431492917,0.0,0.0,0.0,374.0,778.0,1.0,0,28.0,0
836,836,0.7758381884685964,0.8,1.0,1.0,296.0,607.0,1.0,1,147.0,1
837,837,0.38005949367255953,0.4,1.0,1.0,328.0,570.0,1.0,1,752.0,1
838,838,0.5539500183296718,0.6,0.0,0.0,463.0,686.0,0.0,1,521.0,1
839,839,0.035480424264076715,0.0,1.0,1.0,404.0,559.0,0.0,0,2147.0,0
840,840,-0.5727318858929278,-0.6,1.0,0.0,483.0,504.0,0.0,0,273.0,1
841,841,-0.8399040092763493,-0.8,0.0,1.0,438.0,948.0,1.0,0,34.0,1
842,842,-0.890963197348694,-0.9,0.0,1.0,333.0,701.0,1.0,0,276.0,1
843,843,0.4953704402888349,0.5,0.0,0.0,340.0,990.0,0.0,1,320.0,1
844,844,0.005652349530568701,0.0,1.0,1.0,343.0,577.0,0.0,0,2000.0,0
845,845,-0.5495374854769542,-0.5,0.0,1.0,350.0,592.0,1.0,0,198.0,1
846,846,-0.8114573166018916,-0.8,1.0,0.0,272.0,762.0,0.0,0,316.0,1
847,847,-0.28516019194343734,-0.3,1.0,0.0,397.0,974.0,1.0,1,-31.0,0
848,848,-0.6408801493555009,-0.6,0.0,1.0,459.0,523.0,1.0,0,468.0,1
849,849,0.8656926916532214,0.9,0.0,0.0,440.0,670.0,1.0,0,-70.0,0
850,850,-0.8613477371996113,-0.9,0.0,1.0,489.0,775.0,1.0,0,156.0,1
851,851,0.80201289537254,0.8,1.0,1.0,274.0,820.0,1.0,1,96.0,1
852,852,0.5734071645797268,0.6,1.0,1.0,481.0,571.0,1.0,1,-142.0,1
853,853,0.8102052312673956,0.8,1.0,1.0,360.0,592.0,1.0,1,338.0,1
854,854,-0.5988314874497125,-0.6,0.0,1.0,335.0,924.0,0.0,1,-449.0,0
855,855,0.8412164960190746,0.8,1.0,1.0,432.0,679.0,1.0,1,109.0,1
856,856,-0.5718472724273351,-0.6,0.0,1.0,324.0,874.0,1.0,0,252.0,1
857,857,0.3142107451694963,0.3,1.0,1.0,466.0,665.0,1.0,1,289.0,1
858,858,-0.01371650367906363,-0.0,0.0,1.0,493.0,988.0,1.0,0,-631.0,1
859,859,0.02939163122337085,0.0,0.0,0.0,344.0,554.0,1.0,0,-188.0,0
860,860,0.8887962273664985,0.9,0.0,0.0,276.0,727.0,0.0,1,157.0,1
861,861,-0.8461168161472761,-0.8,0.0,1.0,430.0,837.0,1.0,0,553.0,1
862,862,-0.36815645974926847,-0.4,1.0,0.0,352.0,584.0,0.0,0,-116.0,1
863,863,0.5348115384075959,0.5,1.0,1.0,344.0,992.0,1.0,1,-326.0,1
864,864,0.1439652220091593,0.1,1.0,1.0,420.0,891.0,1.0,1,789.0,1
865,865,-0.2973802806577144,-0.3,1.0,0.0,285.0,580.0,0.0,0,325.0,1
866,866,0.6904871579802107,0.7,1.0,1.0,296.0,784.0,0.0,0,-130.0,0
867,867,-0.3405924542732889,-0.3,1.0,0.0,299.0,918.0,0.0,0,633.0,1
868,868,-0.5570047913312837,-0.6,0.0,1.0,302.0,867.0,1.0,0,321.0,1
869,869,0.01391213393146129,0.0,0.0,0.0,366.0,559.0,1.0,0,855.0,0
870,870,-0.07062964648107473,-0.1,0.0,1.0,453.0,564.0,1.0,0,353.0,1
871,871,0.1631218965329143,0.2,1.0,1.0,382.0,572.0,1.0,1,476.0,1
872,872,-0.48700069337965407,-0.5,1.0,0.0,291.0,933.0,0.0,0,-264.0,1
873,873,-0.7644238261803586,-0.8,1.0,0.0,496.0,592.0,0.0,0,252.0,1
874,874,0.461705248543934,0.5,0.0,0.0,345.0,699.0,1.0,0,96.0,0
875,875,-0.11953496713947542,-0.1,0.0,1.0,355.0,537.0,1.0,0,208.0,1
876,876,-0.47361477451631373,-0.5,0.0,1.0,298.0,583.0,1.0,0,289.0,1
877,877,-0.7964825655658816,-0.8,1.0,0.0,319.0,895.0,0.0,0,256.0,1
878,878,0.14088233675365347,0.1,1.0,1.0,468.0,986.0,0.0,0,86.0,0
879,879,-0.2007900048940202,-0.2,1.0,0.0,303.0,667.0,0.0,0,430.0,1
880,880,-0.14038495407865592,-0.1,0.0,1.0,401.0,913.0,0.0,1,516.0,0
881,881,0.669045872384406,0.7,1.0,1.0,331.0,691.0,1.0,1,168.0,1
882,882,-0.4878372138406147,-0.5,1.0,0.0,439.0,997.0,0.0,0,244.0,1
883,883,-0.8303553814459178,-0.8,0.0,1.0,489.0,982.0,1.0,0,-481.0,1
884,884,-0.8044208553323198,-0.8,0.0,1.0,485.0,825.0,1.0,0,280.0,1
885,885,-0.17711862494060238,-0.2,1.0,0.0,328.0,763.0,0.0,0,249.0,1
886,886,0.5272131668562204,0.5,0.0,0.0,374.0,842.0,0.0,1,184.0,1
887,887,0.08221704996762047,0.1,1.0,1.0,341.0,651.0,1.0,1,748.0,1
888,888,-0.08483509231489694,-0.1,0.0,1.0,355.0,902.0,1.0,0,403.0,1
889,889,0.30485808915439205,0.3,1.0,1.0,266.0,575.0,1.0,1,9.0,1
890,890,-0.39322917616153874,-0.4,1.0,0.0,435.0,730.0,0.0,0,405.0,1
891,891,0.4500272528352792,0.5,0.0,0.0,434.0,943.0,1.0,0,-287.0,0
892,892,-0.10431527790140038,-0.1,1.0,0.0,272.0,743.0,0.0,0,95.0,1
893,893,0.16684992623658956,0.2,0.0,0.0,277.0,914.0,0.0,1,-421.0,1
894,894,-0.5502494498160679,-0.6,0.0,1.0,467.0,688.0,1.0,0,-105.0,1
895,895,0.3039640784835843,0.3,0.0,0.0,454.0,676.0,1.0,0,-160.0,0
896,896,0.6871319970692072,0.7,1.0,1.0,433.0,825.0,1.0,1,-248.0,1
897,897,0.4640644220760305,0.5,1.0,1.0,354.0,771.0,1.0,1,155.0,1
898,898,-0.01033892021506988,-0.0,1.0,0.0,392.0,785.0,1.0,1,-137.0,0
899,899,0.18122461566289905,0.2,0.0,0.0,421.0,593.0,1.0,0,486.0,0
900,900,-0.7300812237928006,-0.7,0.0,1.0,444.0,561.0,1.0,0,145.0,1
901,901,-0.287689388824491,-0.3,0.0,1.0,318.0,792.0,1.0,0,-70.0,1
902,902,0.6280959230560795,0.6,0.0,0.0,405.0,564.0,0.0,1,361.0,1
903,903,-0.04336097550310536,-0.0,0.0,1.0,310.0,906.0,0.0,1,924.0,0
904,904,0.3888514315583901,0.4,0.0,0.0,282.0,593.0,0.0,1,1135.0,1
905,905,-0.8882757231785754,-0.9,1.0,0.0,309.0,875.0,0.0,0,116.0,1
906,906,0.8397610195115869,0.8,0.0,0.0,303.0,606.0,0.0,1,161.0,1
907,907,-0.36409929702039445,-0.4,1.0,0.0,372.0,629.0,0.0,0,209.0,1
908,908,0.006038938406416117,0.0,0.0,0.0,374.0,597.0,1.0,0,889.0,0
909,909,0.5717338412882059,0.6,1.0,1.0,268.0,853.0,1.0,1,-41.0,1
910,910,0.3728756555905127,0.4,1.0,1.0,403.0,618.0,1.0,1,219.0,1
911,911,0.5781595341269231,0.6,0.0,0.0,305.0,952.0,0.0,1,-37.0,1
912,912,-0.43741357782123796,-0.4,1.0,0.0,443.0,858.0,0.0,0,559.0,1
913,913,-0.5749184284683411,-0.6,1.0,0.0,431.0,845.0,0.0,0,134.0,1
914,914,0.48856501413728337,0.5,1.0,1.0,440.0,549.0,1.0,1,231.0,1
915,915,0.8888926013606063,0.9,1.0,1.0,419.0,666.0,1.0,1,185.0,1
916,916,0.03874837871890913,0.0,0.0,0.0,357.0,875.0,1.0,0,268.0,0
917,917,-0.5592118063345612,-0.6,0.0,1.0,407.0,809.0,1.0,0,644.0,1
918,918,0.7103762080853767,0.7,0.0,0.0,336.0,539.0,0.0,1,245.0,1
919,919,-0.0023081209579016715,-0.0,1.0,0.0,398.0,892.0,1.0,1,1000.0,0
920,920,0.8029982194205642,0.8,1.0,1.0,327.0,638.0,1.0,1,75.0,1
921,921,0.6628687008091706,0.7,1.0,1.0,412.0,566.0,1.0,1,182.0,1
922,922,0.056166628308498834,0.1,1.0,1.0,430.0,570.0,1.0,1,-130.0,1
923,923,-0.18677973238940215,-0.2,0.0,1.0,413.0,852.0,1.0,0,465.0,1
924,924,0.6047107351021787,0.6,1.0,1.0,363.0,727.0,1.0,1,-330.0,1
925,925,0.529305778363602,0.5,0.0,0.0,267.0,871.0,1.0,0,-598.0,0
926,926,0.7750647223773547,0.8,1.0,1.0,496.0,663.0,1.0,1,241.0,1
927,927,0.37422355656132933,0.4,0.0,0.0,354.0,593.0,1.0,0,233.0,0
928,928,0.4659908622826744,0.5,1.0,1.0,392.0,950.0,1.0,1,248.0,1
929,929,0.8005952037937595,0.8,1.0,1.0,357.0,525.0,1.0,1,118.0,1
930,930,-0.0866204636855874,-0.1,0.0,1.0,362.0,776.0,1.0,0,272.0,1
931,931,-0.4703129544943501,-0.5,1.0,0.0,399.0,527.0,0.0,0,314.0,1
932,932,0.8947144863759929,0.9,0.0,0.0,275.0,705.0,0.0,1,300.0,1
933,933,-0.5516663368116014,-0.6,1.0,0.0,323.0,747.0,0.0,0,470.0,1
934,934,-0.48881965256976156,-0.5,0.0,1.0,256.0,948.0,1.0,0,86.0,1
935,935,-0.23664995439967207,-0.2,0.0,1.0,307.0,912.0,1.0,0,11.0,1
936,936,0.23531874624867444,0.2,1.0,1.0,419.0,998.0,1.0,1,83.0,1
937,937,-0.8010311428764282,-0.8,1.0,0.0,355.0,665.0,1.0,1,40.0,0
938,938,-0.7008052012253589,-0.7,1.0,0.0,332.0,537.0,0.0,0,151.0,1
939,939,0.229445960982248,0.2,0.0,0.0,463.0,685.0,0.0,1,1292.0,1
940,940,0.39047135259237586,0.4,1.0,1.0,337.0,745.0,1.0,1,518.0,1
941,941,-0.7532441861226283,-0.8,1.0,0.0,336.0,882.0,0.0,0,212.0,1
942,942,-0.3083516116947721,-0.3,0.0,1.0,357.0,779.0,1.0,0,114.0,1
943,943,-0.010310575069491179,-0.0,0.0,1.0,445.0,810.0,0.0,1,465.0,0
944,944,-0.20794312000295656,-0.2,1.0,0.0,366.0,840.0,0.0,0,224.0,1
945,945,-0.5387151145751454,-0.5,1.0,0.0,284.0,589.0,0.0,0,277.0,1
946,946,0.2924701386420824,0.3,1.0,1.0,285.0,831.0,1.0,1,-66.0,1
947,947,0.49010664274384286,0.5,0.0,0.0,484.0,868.0,0.0,1,368.0,1
948,948,-0.14703228876330787,-0.1,1.0,0.0,317.0,663.0,0.0,0,930.0,1
949,949,0.197179649584187,0.2,0.0,0.0,272.0,948.0,1.0,0,-250.0,0
950,950,0.3917226200712204,0.4,0.0,0.0,345.0,816.0,1.0,0,-331.0,0
951,951,-0.06229147176350991,-0.1,0.0,1.0,499.0,628.0,1.0,0,943.0,1
952,952,-0.6888834575402825,-0.7,0.0,1.0,458.0,690.0,1.0,0,642.0,1
953,953,-0.633266279012147,-0.6,1.0,0.0,445.0,877.0,1.0,1,-362.0,0
954,954,0.22386337403052237,0.2,1.0,1.0,405.0,636.0,1.0,1,389.0,1
955,955,0.25649282325987566,0.3,1.0,1.0,402.0,620.0,1.0,1,478.0,1
956,956,0.7300769849559666,0.7,0.0,0.0,406.0,733.0,0.0,1,261.0,1
957,957,-0.22000721765374054,-0.2,0.0,1.0,322.0,657.0,1.0,0,631.0,1
958,958,-0.6511346500848018,-0.7,0.0,1.0,286.0,595.0,1.0,0,99.0,1
959,959,-0.06065161865839741,-0.1,0.0,1.0,357.0,650.0,1.0,0,13.0,1
960,960,-0.7599873397400911,-0.8,0.0,1.0,329.0,535.0,1.0,0,256.0,1
961,961,-0.4536055704189557,-0.5,0.0,1.0,305.0,817.0,1.0,0,278.0,1
962,962,0.7185587146843676,0.7,1.0,1.0,417.0,595.0,1.0,1,288.0,1
963,963,-0.05183337777444996,-0.1,0.0,1.0,401.0,788.0,0.0,1,771.0,0
964,964,0.6969521662813521,0.7,0.0,0.0,403.0,651.0,0.0,1,166.0,1
965,965,0.33683811094937843,0.3,0.0,0.0,493.0,720.0,0.0,1,387.0,1
966,966,-0.48237891183407633,-0.5,1.0,0.0,399.0,793.0,0.0,0,48.0,1
967,967,0.27376265626084073,0.3,0.0,0.0,494.0,732.0,0.0,1,-266.0,1
968,968,-0.2955768908533236,-0.3,1.0,0.0,344.0,980.0,0.0,0,116.0,1
969,969,-0.7135873807586806,-0.7,1.0,0.0,377.0,940.0,0.0,0,-387.0,1
970,970,-0.09030448871726893,-0.1,1.0,0.0,470.0,956.0,0.0,0,-186.0,1
971,971,0.6622321850450702,0.7,1.0,1.0,412.0,888.0,1.0,1,50.0,1
972,972,0.8694020742077645,0.9,1.0,1.0,457.0,769.0,1.0,1,164.0,1
973,973,0.38384357969236527,0.4,1.0,1.0,300.0,783.0,1.0,1,-223.0,1
974,974,-0.061387931499641946,-0.1,1.0,0.0,478.0,901.0,0.0,0,1041.0,1
975,975,0.09095105398479075,0.1,0.0,0.0,475.0,514.0,1.0,0,371.0,0
976,976,-0.05842921084259389,-0.1,1.0,0.0,447.0,916.0,0.0,0,177.0,1
977,977,-0.4508441936089642,-0.5,0.0,1.0,395.0,561.0,1.0,0,-16.0,1
978,978,-0.4714317749890365,-0.5,0.0,1.0,261.0,842.0,1.0,0,137.0,1
979,979,0.7533708049509688,0.8,1.0,1.0,373.0,610.0,1.0,1,197.0,1
980,980,0.548440795237939,0.5,0.0,0.0,371.0,840.0,1.0,0,-591.0,0
981,981,0.13990090861865923,0.1,1.0,1.0,351.0,922.0,1.0,1,1357.0,1
982,982,0.17927861518812993,0.2,0.0,0.0,280.0,521.0,1.0,0,-141.0,0
983,983,-0.3284412740926983,-0.3,0.0,1.0,340.0,563.0,1.0,0,477.0,1
984,984,0.0030818631672384633,0.0,0.0,0.0,325.0,947.0,1.0,0,558.0,0
985,985,0.2548058197665751,0.3,1.0,1.0,343.0,608.0,1.0,1,449.0,1
986,986,0.3393964601338234,0.3,0.0,0.0,316.0,510.0,0.0,1,154.0,1
987,987,0.5923827625505144,0.6,0.0,0.0,431.0,697.0,0.0,1,382.0,1
988,988,-0.2010756950685506,-0.2,0.0,1.0,267.0,562.0,1.0,0,301.0,1
989,989,-0.1636179670652408,-0.2,0.0,1.0,421.0,889.0,1.0,0,-680.0,1
990,990,-0.5426780649866875,-0.5,1.0,0.0,498.0,820.0,0.0,0,362.0,1
991,991,0.2296539020739431,0.2,0.0,0.0,356.0,542.0,1.0,0,-38.0,0
992,992,0.803080356875243,0.8,1.0,1.0,270.0,870.0,1.0,1,130.0,1
993,993,-0.8991652107932117,-0.9,1.0,0.0,366.0,779.0,0.0,0,125.0,1
994,994,0.25519333376760167,0.3,0.0,0.0,366.0,895.0,0.0,1,1049.0,1
995,995,-0.6030857164737814,-0.6,1.0,0.0,379.0,643.0,0.0,0,148.0,1
996,996,-0.7147543506072314,-0.7,0.0,1.0,309.0,593.0,1.0,0,118.0,1
997,997,-0.6345658060569794,-0.6,0.0,1.0,429.0,747.0,1.0,0,-466.0,1
998,998,-0.22514566650604706,-0.2,0.0,1.0,471.0,683.0,1.0,0,76.0,1
999,999,0.48000279108522415,0.5,1.0,1.0,326.0,542.0,1.0,1,272.0,1
1000,1000,0.33906666463132373,0.3,0.0,0.0,390.0,505.0,1.0,0,-225.0,0
1001,1001,-0.3000514919959303,-0.3,0.0,1.0,305.0,832.0,1.0,0,333.0,1
1002,1002,0.6204983065480777,0.6,1.0,1.0,421.0,645.0,1.0,1,344.0,1
1003,1003,0.8500340930074296,0.9,1.0,1.0,461.0,757.0,1.0,1,112.0,1
1004,1004,-0.799207343436525,-0.8,0.0,1.0,291.0,692.0,1.0,0,107.0,1
1005,1005,0.5341060116443256,0.5,0.0,0.0,434.0,706.0,1.0,0,-300.0,0
1006,1006,0.5583717308015722,0.6,1.0,1.0,332.0,923.0,1.0,1,145.0,1
1007,1007,0.6778120847849131,0.7,1.0,1.0,369.0,785.0,1.0,1,106.0,1
1008,1008,0.0679364915007209,0.1,1.0,1.0,300.0,609.0,0.0,0,801.0,0
1009,1009,0.03225158310195919,0.0,1.0,1.0,250.0,595.0,0.0,0,2715.0,0
1010,1010,0.5345916519345922,0.5,1.0,1.0,445.0,745.0,0.0,0,-420.0,0
1011,1011,0.6738060011562567,0.7,0.0,0.0,325.0,523.0,0.0,1,402.0,1
1012,1012,0.6511748352144319,0.7,0.0,0.0,421.0,563.0,0.0,1,146.0,1
1013,1013,0.10823956482811703,0.1,0.0,0.0,473.0,726.0,0.0,1,-219.0,1
1014,1014,0.39233485331781204,0.4,1.0,1.0,298.0,576.0,1.0,1,266.0,1
1015,1015,0.5907519306324286,0.6,0.0,0.0,462.0,546.0,0.0,1,622.0,1
1016,1016,-0.5899729053404613,-0.6,1.0,0.0,411.0,763.0,0.0,0,176.0,1
1017,1017,0.7505564809404858,0.8,1.0,1.0,270.0,981.0,1.0,1,259.0,1
1018,1018,0.05364591330501778,0.1,0.0,0.0,281.0,684.0,1.0,0,1405.0,0
1019,1019,0.7295421942516133,0.7,0.0,0.0,390.0,965.0,1.0,0,-375.0,0
1020,1020,0.5620785663109119,0.6,1.0,1.0,319.0,794.0,1.0,1,217.0,1
1021,1021,0.895476240333679,0.9,1.0,1.0,272.0,773.0,1.0,1,45.0,1
1022,1022,-0.2663294445975172,-0.3,0.0,1.0,487.0,803.0,0.0,1,-440.0,0
1023,1023,0.042816582526391644,0.0,0.0,0.0,462.0,550.0,0.0,1,1108.0,1
1024,1024,0.5057898176094485,0.5,1.0,1.0,496.0,534.0,1.0,1,480.0,1
1025,1025,0.8718431008769997,0.9,0.0,0.0,359.0,831.0,0.0,1,240.0,1
1026,1026,-0.14878906658206437,-0.1,1.0,0.0,497.0,683.0,0.0,0,520.0,1
1027,1027,0.4682243299842527,0.5,1.0,1.0,477.0,626.0,1.0,1,177.0,1
1028,1028,-0.21665834120926775,-0.2,0.0,1.0,455.0,822.0,1.0,0,103.0,1
1029,1029,0.4964498118870516,0.5,0.0,0.0,306.0,908.0,1.0,0,56.0,0
1030,1030,0.01627395547456234,0.0,0.0,0.0,486.0,724.0,1.0,0,-280.0,0
1031,1031,0.444367029703684,0.4,1.0,1.0,438.0,694.0,1.0,1,-52.0,1
1032,1032,-0.08775352891771915,-0.1,0.0,1.0,492.0,893.0,1.0,0,745.0,1
1033,1033,-0.21552245897066014,-0.2,0.0,1.0,465.0,726.0,1.0,0,319.0,1
1034,1034,-0.07368167839536277,-0.1,0.0,1.0,330.0,919.0,1.0,0,-439.0,1
1035,1035,0.5311867823034399,0.5,0.0,0.0,302.0,994.0,0.0,1,574.0,1
1036,1036,-0.1534819530547098,-0.2,0.0,1.0,471.0,513.0,1.0,0,356.0,1
1037,1037,0.6477003465787748,0.6,0.0,0.0,391.0,805.0,1.0,0,-76.0,0
1038,1038,0.14438712062272263,0.1,0.0,0.0,381.0,939.0,1.0,0,470.0,0
1039,1039,0.6745838251311068,0.7,0.0,0.0,432.0,820.0,0.0,1,388.0,1
1040,1040,-0.35421867909249627,-0.4,0.0,1.0,354.0,797.0,1.0,0,189.0,1
1041,1041,-0.8289281722638574,-0.8,1.0,0.0,281.0,713.0,0.0,0,36.0,1
1042,1042,-0.4833982823567897,-0.5,1.0,0.0,341.0,592.0,0.0,0,127.0,1
1043,1043,0.7920037156482486,0.8,1.0,1.0,472.0,875.0,1.0,1,103.0,1
1044,1044,0.767444835411721,0.8,1.0,1.0,361.0,839.0,1.0,1,200.0,1
1045,1045,-0.3265396157470447,-0.3,1.0,0.0,466.0,749.0,0.0,0,15.0,1
1046,1046,-0.3134873049134842,-0.3,0.0,1.0,424.0,908.0,1.0,0,238.0,1
1047,1047,0.38416427718793156,0.4,0.0,0.0,337.0,990.0,1.0,0,-1167.0,0
1048,1048,0.3714095638300291,0.4,0.0,0.0,349.0,980.0,0.0,1,-9.0,1
1049,1049,-0.39137620685961383,-0.4,1.0,0.0,288.0,863.0,0.0,0,559.0,1
1050,1050,0.8868800907973141,0.9,0.0,0.0,465.0,818.0,1.0,0,-173.0,0
1051,1051,-0.13819744287208668,-0.1,0.0,1.0,447.0,890.0,1.0,0,743.0,1
1052,1052,-0.0877661322651413,-0.1,0.0,1.0,447.0,754.0,1.0,0,-291.0,1
1053,1053,0.33264613986018,0.3,0.0,0.0,270.0,992.0,0.0,1,88.0,1
1054,1054,0.6638499874108642,0.7,1.0,1.0,393.0,875.0,1.0,1,122.0,1
1055,1055,-0.7490307999359491,-0.7,1.0,0.0,325.0,785.0,0.0,0,20.0,1
1056,1056,0.46005067910862263,0.5,0.0,0.0,489.0,609.0,1.0,0,-348.0,0
1057,1057,0.39019110094613596,0.4,1.0,1.0,282.0,584.0,1.0,1,514.0,1
1058,1058,-0.8828451941374337,-0.9,1.0,0.0,469.0,645.0,0.0,0,366.0,1
1059,1059,-0.2592409525013707,-0.3,1.0,0.0,407.0,993.0,0.0,0,260.0,1
1060,1060,-0.1451316284262738,-0.1,0.0,1.0,446.0,692.0,1.0,0,452.0,1
1061,1061,-0.6932752022404726,-0.7,1.0,0.0,455.0,854.0,1.0,1,-259.0,0
1062,1062,0.7297033852113218,0.7,1.0,1.0,470.0,868.0,1.0,1,192.0,1
1063,1063,0.6350790276789414,0.6,1.0,1.0,377.0,695.0,1.0,1,48.0,1
1064,1064,-0.7496424637154826,-0.7,0.0,1.0,393.0,676.0,1.0,0,221.0,1
1065,1065,0.625905075606258,0.6,0.0,0.0,294.0,544.0,1.0,0,-68.0,0
1066,1066,-0.2277757410762533,-0.2,0.0,1.0,430.0,804.0,1.0,0,236.0,1
1067,1067,0.09625834150342227,0.1,0.0,0.0,412.0,890.0,0.0,1,-142.0,1
1068,1068,0.09398546358088189,0.1,0.0,0.0,444.0,657.0,1.0,0,319.0,0
1069,1069,-0.21683412978725203,-0.2,1.0,0.0,353.0,613.0,1.0,1,-226.0,0
1070,1070,0.46457177091953217,0.5,1.0,1.0,255.0,839.0,1.0,1,-204.0,1
1071,1071,0.6930744997786907,0.7,0.0,0.0,412.0,998.0,0.0,1,250.0,1
1072,1072,0.8943407331240288,0.9,0.0,0.0,318.0,691.0,1.0,0,21.0,0
1073,1073,-0.7908461863344955,-0.8,0.0,1.0,411.0,689.0,1.0,0,-240.0,1
1074,1074,0.8199023824799626,0.8,0.0,0.0,287.0,845.0,0.0,1,98.0,1
1075,1075,0.8080897096566987,0.8,0.0,0.0,282.0,559.0,0.0,1,109.0,1
1076,1076,0.5251539894646268,0.5,0.0,0.0,350.0,823.0,0.0,1,-3.0,1
1077,1077,-0.43743538511086805,-0.4,0.0,1.0,389.0,803.0,1.0,0,-172.0,1
1078,1078,-0.5369191383876537,-0.5,1.0,0.0,395.0,624.0,0.0,0,241.0,1
1079,1079,0.30770305041604773,0.3,1.0,1.0,344.0,665.0,1.0,1,491.0,1
1080,1080,-0.533304544105881,-0.5,0.0,1.0,295.0,748.0,1.0,0,317.0,1
1081,1081,0.03814238938586467,0.0,1.0,1.0,485.0,606.0,0.0,0,2029.0,0
1082,1082,0.49977556260205847,0.5,0.0,0.0,450.0,982.0,1.0,0,-422.0,0
1083,1083,0.4030991238269114,0.4,0.0,0.0,299.0,640.0,1.0,0,-149.0,0
1084,1084,-0.7325879942140798,-0.7,1.0,0.0,334.0,969.0,0.0,0,187.0,1
1085,1085,0.8823681368973441,0.9,0.0,0.0,395.0,877.0,1.0,0,-32.0,0
1086,1086,0.28954026810001865,0.3,1.0,1.0,431.0,981.0,1.0,1,588.0,1
1087,1087,0.46499302235004236,0.5,0.0,0.0,433.0,563.0,0.0,1,94.0,1
1088,1088,0.03997096397412314,0.0,1.0,1.0,416.0,909.0,1.0,1,2125.0,1
1089,1089,-0.037004694766474944,-0.0,0.0,1.0,415.0,639.0,0.0,1,1866.0,0
1090,1090,-0.08995361890890985,-0.1,0.0,1.0,399.0,505.0,1.0,0,586.0,1
1091,1091,0.05523041591754674,0.1,1.0,1.0,284.0,980.0,1.0,1,-114.0,1
1092,1092,-0.6142770600657848,-0.6,1.0,0.0,462.0,775.0,0.0,0,73.0,1
1093,1093,0.8397767069737369,0.8,1.0,1.0,479.0,839.0,1.0,1,-248.0,1
1094,1094,0.09359201590984167,0.1,1.0,1.0,329.0,893.0,1.0,1,358.0,1
1095,1095,0.17002261110149897,0.2,0.0,0.0,275.0,925.0,0.0,1,400.0,1
1096,1096,0.3606342825836152,0.4,0.0,0.0,374.0,690.0,1.0,0,-4.0,0
1097,1097,0.5492930191848177,0.5,1.0,1.0,404.0,631.0,1.0,1,205.0,1
1098,1098,0.12092550649455569,0.1,1.0,1.0,479.0,909.0,1.0,1,-238.0,1
1099,1099,-0.2684725783498413,-0.3,1.0,0.0,296.0,805.0,0.0,0,129.0,1
1100,1100,-0.0944644672790752,-0.1,0.0,1.0,328.0,688.0,1.0,0,704.0,1
1101,1101,-0.6740825698878795,-0.7,1.0,0.0,343.0,522.0,0.0,0,315.0,1
1102,1102,0.05680267916429138,0.1,1.0,1.0,298.0,575.0,1.0,1,197.0,1
1103,1103,-0.5674864435189804,-0.6,1.0,0.0,415.0,952.0,0.0,0,203.0,1
1104,1104,-0.36559872585312425,-0.4,1.0,0.0,479.0,573.0,0.0,0,368.0,1
1105,1105,-0.8842902342338366,-0.9,0.0,1.0,468.0,860.0,1.0,0,72.0,1
1106,1106,0.3182964758770398,0.3,1.0,1.0,395.0,545.0,1.0,1,610.0,1
1107,1107,-0.2053062995264443,-0.2,0.0,1.0,414.0,561.0,1.0,0,145.0,1
1108,1108,-0.4078730495239789,-0.4,0.0,1.0,364.0,653.0,1.0,0,473.0,1
1109,1109,0.8095635245886753,0.8,0.0,0.0,308.0,646.0,0.0,1,196.0,1
1110,1110,-0.7293626409638261,-0.7,0.0,1.0,478.0,993.0,1.0,0,119.0,1
1111,1111,0.43744258179100315,0.4,1.0,1.0,372.0,996.0,0.0,0,-158.0,0
1112,1112,0.193756063119764,0.2,1.0,1.0,306.0,677.0,1.0,1,407.0,1
1113,1113,0.40024490947689506,0.4,1.0,1.0,470.0,600.0,1.0,1,-150.0,1
1114,1114,0.6681101183423254,0.7,1.0,1.0,426.0,572.0,1.0,1,172.0,1
1115,1115,-0.6032426515432678,-0.6,1.0,0.0,327.0,813.0,0.0,0,20.0,1
1116,1116,0.00880278046523375,0.0,0.0,0.0,401.0,844.0,0.0,1,865.0,1
1117,1117,0.20939863664312008,0.2,0.0,0.0,260.0,893.0,0.0,1,827.0,1
1118,1118,-0.8412237133006342,-0.8,1.0,0.0,310.0,708.0,0.0,0,72.0,1
1119,1119,0.25078347821375246,0.3,1.0,1.0,316.0,794.0,0.0,0,20.0,0
1120,1120,-0.7797178265579191,-0.8,1.0,0.0,352.0,788.0,0.0,0,100.0,1
1121,1121,0.3235243764484851,0.3,1.0,1.0,400.0,654.0,1.0,1,596.0,1
1122,1122,-0.3985748600521102,-0.4,1.0,0.0,257.0,608.0,0.0,0,395.0,1
1123,1123,-0.38409341284741016,-0.4,1.0,0.0,307.0,891.0,0.0,0,162.0,1
1124,1124,0.023694533935687767,0.0,1.0,1.0,449.0,914.0,1.0,1,837.0,1
1125,1125,-0.8577755051891025,-0.9,0.0,1.0,459.0,505.0,1.0,0,376.0,1
1126,1126,-0.44635331188057187,-0.4,1.0,0.0,330.0,603.0,0.0,0,257.0,1
1127,1127,0.8707969888356392,0.9,0.0,0.0,458.0,756.0,0.0,1,446.0,1
1128,1128,-0.5076847965070351,-0.5,0.0,1.0,443.0,770.0,1.0,0,-503.0,1
1129,1129,0.6752567232079852,0.7,0.0,0.0,343.0,838.0,0.0,1,159.0,1
1130,1130,-0.24929998417189092,-0.2,1.0,0.0,307.0,913.0,0.0,0,1210.0,1
1131,1131,-0.4970632800746181,-0.5,1.0,0.0,270.0,868.0,0.0,0,142.0,1
1132,1132,-0.29975531816620926,-0.3,0.0,1.0,369.0,754.0,1.0,0,-243.0,1
1133,1133,0.3323284956272833,0.3,1.0,1.0,463.0,790.0,1.0,1,497.0,1
1134,1134,0.672729426132927,0.7,1.0,1.0,295.0,733.0,1.0,1,162.0,1
1135,1135,0.4038136001040674,0.4,0.0,0.0,256.0,757.0,0.0,1,647.0,1
1136,1136,-0.6611442394056742,-0.7,1.0,0.0,404.0,718.0,0.0,0,158.0,1
1137,1137,0.019469004095464593,0.0,1.0,1.0,439.0,622.0,0.0,0,909.0,0
1138,1138,-0.20995851336649485,-0.2,1.0,0.0,485.0,675.0,0.0,0,360.0,1
1139,1139,0.8543819191699277,0.9,1.0,1.0,409.0,882.0,1.0,1,149.0,1
1140,1140,-0.8171625725246014,-0.8,1.0,0.0,296.0,647.0,0.0,0,187.0,1
1141,1141,-0.5624839111212874,-0.6,0.0,1.0,446.0,691.0,1.0,0,363.0,1
1142,1142,0.898103521636361,0.9,1.0,1.0,377.0,530.0,1.0,1,163.0,1
1143,1143,0.5633288202673873,0.6,1.0,1.0,324.0,769.0,1.0,1,177.0,1
1144,1144,0.16449602786861328,0.2,1.0,1.0,406.0,687.0,0.0,0,1357.0,0
1145,1145,0.10812972318046044,0.1,0.0,0.0,257.0,756.0,0.0,1,197.0,1
1146,1146,-0.3003398811757033,-0.3,1.0,0.0,303.0,855.0,0.0,0,232.0,1
1147,1147,0.34476190255089156,0.3,0.0,0.0,390.0,750.0,0.0,1,620.0,1
1148,1148,-0.15958537150052465,-0.2,1.0,0.0,267.0,541.0,0.0,0,682.0,1
1149,1149,0.28913121016388355,0.3,1.0,1.0,439.0,775.0,1.0,1,1646.0,1
1150,1150,0.2630009060683559,0.3,0.0,0.0,309.0,953.0,0.0,1,-112.0,1
1151,1151,-0.6031746431143352,-0.6,0.0,1.0,392.0,664.0,1.0,0,244.0,1
1152,1152,-0.1114442886272704,-0.1,0.0,1.0,496.0,989.0,1.0,0,-695.0,1
1153,1153,-0.08316360557004132,-0.1,0.0,1.0,406.0,532.0,0.0,1,642.0,0
1154,1154,-0.2004203776141832,-0.2,0.0,1.0,401.0,509.0,1.0,0,1210.0,1
1155,1155,-0.16657478230280442,-0.2,1.0,0.0,383.0,996.0,0.0,0,-209.0,1
1156,1156,-0.5631730200332811,-0.6,0.0,1.0,396.0,983.0,0.0,1,-99.0,0
1157,1157,-0.7126731823574182,-0.7,0.0,1.0,481.0,811.0,0.0,1,-62.0,0
1158,1158,-0.04864961169686788,-0.0,1.0,0.0,335.0,609.0,0.0,0,1476.0,1
1159,1159,0.5817157180179661,0.6,0.0,0.0,291.0,971.0,0.0,1,308.0,1
1160,1160,-0.5123514232803748,-0.5,1.0,0.0,368.0,962.0,0.0,0,140.0,1
1161,1161,0.009589786502364861,0.0,1.0,1.0,433.0,562.0,0.0,0,155.0,0
1162,1162,-0.006122813525705317,-0.0,1.0,0.0,493.0,531.0,0.0,0,906.0,1
1163,1163,-0.25380693415174926,-0.3,0.0,1.0,283.0,663.0,1.0,0,-276.0,1
1164,1164,-0.3940759196116128,-0.4,0.0,1.0,416.0,824.0,1.0,0,250.0,1
1165,1165,-0.7933930482358612,-0.8,1.0,0.0,360.0,826.0,0.0,0,204.0,1
1166,1166,-0.04855052544024141,-0.0,1.0,0.0,314.0,697.0,0.0,0,499.0,1
1167,1167,0.8617014089114589,0.9,1.0,1.0,435.0,570.0,1.0,1,135.0,1
1168,1168,-0.6429219934722383,-0.6,0.0,1.0,382.0,900.0,1.0,0,258.0,1
1169,1169,0.735300560857106,0.7,0.0,0.0,310.0,693.0,0.0,1,277.0,1
1170,1170,0.5559908356451216,0.6,1.0,1.0,374.0,810.0,1.0,1,296.0,1
1171,1171,0.8400434019573219,0.8,0.0,0.0,433.0,939.0,0.0,1,298.0,1
1172,1172,-0.8670571225584796,-0.9,0.0,1.0,344.0,519.0,1.0,0,437.0,1
1173,1173,0.08670383510901902,0.1,0.0,0.0,301.0,635.0,1.0,0,-176.0,0
1174,1174,0.8597402698410005,0.9,0.0,0.0,481.0,833.0,0.0,1,136.0,1
1175,1175,-0.22014689389349396,-0.2,0.0,1.0,361.0,747.0,1.0,0,652.0,1
1176,1176,-0.14909251365365073,-0.1,0.0,1.0,399.0,945.0,1.0,0,256.0,1
1177,1177,-0.32928344301487855,-0.3,1.0,0.0,285.0,530.0,0.0,0,165.0,1
1178,1178,-0.7620138936495215,-0.8,1.0,0.0,421.0,918.0,1.0,1,-89.0,0
1179,1179,-0.3656187908586209,-0.4,1.0,0.0,277.0,685.0,0.0,0,338.0,1
1180,1180,0.6925304184323974,0.7,0.0,0.0,369.0,627.0,0.0,1,244.0,1
1181,1181,-0.2640217925192483,-0.3,1.0,0.0,423.0,813.0,0.0,0,264.0,1
1182,1182,0.7529733396828325,0.8,0.0,0.0,297.0,994.0,0.0,1,229.0,1
1183,1183,-0.35364723633327366,-0.4,0.0,1.0,358.0,882.0,1.0,0,730.0,1
1184,1184,-0.11255061022459834,-0.1,1.0,0.0,359.0,730.0,0.0,0,-89.0,1
1185,1185,0.2584889748908471,0.3,0.0,0.0,409.0,575.0,0.0,1,316.0,1
1186,1186,0.290319198611951,0.3,0.0,0.0,345.0,853.0,0.0,1,212.0,1
1187,1187,-0.3805177890080106,-0.4,1.0,0.0,428.0,629.0,0.0,0,223.0,1
1188,1188,-0.3416153811690066,-0.3,1.0,0.0,305.0,731.0,0.0,0,394.0,1
1189,1189,0.0716768102699491,0.1,1.0,1.0,253.0,908.0,0.0,0,309.0,0
1190,1190,0.2333537319992417,0.2,1.0,1.0,288.0,919.0,1.0,1,993.0,1
1191,1191,-0.5624028647829029,-0.6,0.0,1.0,342.0,643.0,1.0,0,305.0,1
1192,1192,-0.7775454043055237,-0.8,0.0,1.0,425.0,754.0,1.0,0,-229.0,1
1193,1193,-0.626936965664568,-0.6,1.0,0.0,424.0,853.0,0.0,0,533.0,1
1194,1194,0.0042870751420552855,0.0,1.0,1.0,325.0,689.0,1.0,1,1786.0,1
1195,1195,0.542081040280408,0.5,0.0,0.0,419.0,710.0,0.0,1,271.0,1
1196,1196,0.05134064332416011,0.1,1.0,1.0,338.0,836.0,1.0,1,906.0,1
1197,1197,0.38471944626680166,0.4,1.0,1.0,290.0,760.0,1.0,1,130.0,1
1198,1198,-0.5254233847304826,-0.5,1.0,0.0,273.0,634.0,0.0,0,473.0,1
1199,1199,-0.32125780276362703,-0.3,0.0,1.0,261.0,510.0,1.0,0,219.0,1
1200,1200,0.48171167189476993,0.5,0.0,0.0,326.0,870.0,0.0,1,464.0,1
1201,1201,0.15952761329243537,0.2,0.0,0.0,401.0,637.0,1.0,0,-168.0,0
1202,1202,-0.5291623849061922,-0.5,1.0,0.0,355.0,506.0,0.0,0,59.0,1
1203,1203,-0.8243511795914433,-0.8,1.0,0.0,337.0,885.0,1.0,1,-332.0,0
1204,1204,0.5379930097792257,0.5,0.0,0.0,371.0,694.0,1.0,0,-65.0,0
1205,1205,0.3580120803076675,0.4,0.0,0.0,301.0,967.0,1.0,0,-128.0,0
1206,1206,0.4319056499391648,0.4,1.0,1.0,338.0,508.0,1.0,1,354.0,1
1207,1207,-0.8996256009659008,-0.9,1.0,0.0,345.0,750.0,0.0,0,35.0,1
1208,1208,-0.2967044754880692,-0.3,1.0,0.0,399.0,928.0,0.0,0,43.0,1
1209,1209,-0.801362782332724,-0.8,1.0,0.0,356.0,988.0,0.0,0,-224.0,1
1210,1210,0.3948043875202639,0.4,0.0,0.0,265.0,553.0,0.0,1,132.0,1
1211,1211,0.6970944886359965,0.7,0.0,0.0,296.0,653.0,1.0,0,-159.0,0
1212,1212,-0.33579951981613976,-0.3,0.0,1.0,410.0,695.0,1.0,0,1095.0,1
1213,1213,0.43204163571458143,0.4,0.0,0.0,265.0,601.0,0.0,1,414.0,1
1214,1214,-0.8530419128484498,-0.9,0.0,1.0,386.0,725.0,1.0,0,-351.0,1
1215,1215,0.21002910099539152,0.2,1.0,1.0,310.0,593.0,1.0,1,-43.0,1
1216,1216,-0.7140052005898743,-0.7,0.0,1.0,325.0,754.0,1.0,0,141.0,1
1217,1217,-0.42038478312131206,-0.4,0.0,1.0,273.0,548.0,1.0,0,349.0,1
1218,1218,0.330525151650093,0.3,1.0,1.0,471.0,975.0,1.0,1,814.0,1
1219,1219,0.7299379142179835,0.7,0.0,0.0,372.0,707.0,0.0,1,-69.0,1
1220,1220,-0.6335883497406765,-0.6,1.0,0.0,466.0,690.0,0.0,0,314.0,1
1221,1221,-0.7036227166141719,-0.7,1.0,0.0,364.0,843.0,0.0,0,-317.0,1
1222,1222,-0.07344877239752035,-0.1,1.0,0.0,317.0,705.0,0.0,0,258.0,1
1223,1223,-0.4843876962336332,-0.5,1.0,0.0,480.0,689.0,0.0,0,271.0,1
1224,1224,-0.47984407444411753,-0.5,0.0,1.0,467.0,826.0,1.0,0,57.0,1
1225,1225,-0.04703161592854588,-0.0,0.0,1.0,380.0,575.0,1.0,0,645.0,1
1226,1226,0.2938960476319791,0.3,0.0,0.0,251.0,804.0,1.0,0,-175.0,0
1227,1227,-0.22097762588167835,-0.2,0.0,1.0,437.0,614.0,1.0,0,-151.0,1
1228,1228,0.8237913428597724,0.8,0.0,0.0,489.0,661.0,0.0,1,280.0,1
1229,1229,-0.7027715644867818,-0.7,0.0,1.0,402.0,834.0,1.0,0,-166.0,1
1230,1230,-0.7283754240968774,-0.7,1.0,0.0,391.0,654.0,0.0,0,175.0,1
1231,1231,-0.40151871684568335,-0.4,1.0,0.0,298.0,594.0,0.0,0,398.0,1
1232,1232,-0.01002066350049502,-0.0,0.0,1.0,313.0,908.0,1.0,0,-341.0,1
1233,1233,0.09441464337687377,0.1,1.0,1.0,460.0,666.0,1.0,1,-306.0,1
1234,1234,-0.34421671609528426,-0.3,0.0,1.0,280.0,839.0,1.0,0,261.0,1
1235,1235,-0.5319914468627328,-0.5,0.0,1.0,442.0,801.0,1.0,0,207.0,1
1236,1236,0.8055457391132831,0.8,1.0,1.0,418.0,612.0,1.0,1,270.0,1
1237,1237,-0.32803419855905636,-0.3,1.0,0.0,254.0,685.0,0.0,0,291.0,1
1238,1238,0.36432402132847297,0.4,1.0,1.0,463.0,669.0,1.0,1,1558.0,1
1239,1239,0.7091271127633104,0.7,1.0,1.0,282.0,732.0,1.0,1,146.0,1
1240,1240,-0.8106569584842276,-0.8,1.0,0.0,264.0,651.0,1.0,1,-25.0,0
1241,1241,0.7891060875929122,0.8,1.0,1.0,395.0,541.0,1.0,1,324.0,1
1242,1242,0.46792965126152997,0.5,1.0,1.0,466.0,636.0,1.0,1,378.0,1
1243,1243,0.851996404864687,0.9,0.0,0.0,392.0,964.0,1.0,0,-556.0,0
1244,1244,-0.10552566462201285,-0.1,1.0,0.0,267.0,897.0,1.0,1,-364.0,0
1245,1245,0.1120765174138606,0.1,0.0,0.0,316.0,590.0,0.0,1,264.0,1
1246,1246,0.13807253777100204,0.1,1.0,1.0,359.0,799.0,1.0,1,-48.0,1
1247,1247,0.7702888856038551,0.8,0.0,0.0,322.0,875.0,0.0,1,73.0,1
1248,1248,-0.3126502906381434,-0.3,1.0,0.0,439.0,951.0,0.0,0,160.0,1
1249,1249,0.7064549811562854,0.7,0.0,0.0,324.0,523.0,0.0,1,143.0,1
1250,1250,-0.2225184121371825,-0.2,1.0,0.0,462.0,596.0,0.0,0,572.0,1
1251,1251,0.2533979192375174,0.3,1.0,1.0,412.0,653.0,1.0,1,515.0,1
1252,1252,-0.6595311725867956,-0.7,0.0,1.0,370.0,947.0,1.0,0,183.0,1
1253,1253,0.24211628782151495,0.2,0.0,0.0,296.0,768.0,0.0,1,406.0,1
1254,1254,0.48504128534393554,0.5,0.0,0.0,457.0,848.0,0.0,1,415.0,1
1255,1255,0.17135181511901643,0.2,0.0,0.0,257.0,887.0,0.0,1,226.0,1
1256,1256,0.3596644378159698,0.4,1.0,1.0,322.0,818.0,1.0,1,130.0,1
1257,1257,-0.04981542205625478,-0.0,1.0,0.0,398.0,832.0,0.0,0,300.0,1
1258,1258,-0.1552473871721468,-0.2,0.0,1.0,397.0,683.0,1.0,0,810.0,1
1259,1259,-0.5924804630815107,-0.6,1.0,0.0,402.0,890.0,0.0,0,128.0,1
1260,1260,-0.49066616625282494,-0.5,0.0,1.0,309.0,669.0,1.0,0,-268.0,1
1261,1261,-0.343776334760301,-0.3,1.0,0.0,489.0,952.0,0.0,0,-151.0,1
1262,1262,0.6852314752524987,0.7,1.0,1.0,357.0,626.0,1.0,1,207.0,1
1263,1263,-0.6646625203891372,-0.7,0.0,1.0,365.0,971.0,1.0,0,34.0,1
1264,1264,-0.5175998614562136,-0.5,0.0,1.0,262.0,945.0,1.0,0,373.0,1
1265,1265,0.4060565594347668,0.4,0.0,0.0,498.0,902.0,0.0,1,210.0,1
1266,1266,-0.025018923776517266,-0.0,1.0,0.0,396.0,590.0,0.0,0,924.0,1
1267,1267,0.8431791627385877,0.8,1.0,1.0,294.0,567.0,1.0,1,219.0,1
1268,1268,0.7702660804417524,0.8,1.0,1.0,436.0,999.0,1.0,1,255.0,1
1269,1269,0.3216876991842256,0.3,0.0,0.0,386.0,932.0,0.0,1,412.0,1
1270,1270,0.3471094404970788,0.3,1.0,1.0,425.0,539.0,1.0,1,266.0,1
1271,1271,0.39985450211286133,0.4,0.0,0.0,298.0,753.0,1.0,0,109.0,0
1272,1272,0.4594741134724244,0.5,0.0,0.0,344.0,926.0,0.0,1,950.0,1
1273,1273,0.3105835785093466,0.3,0.0,0.0,318.0,734.0,1.0,0,-492.0,0
1274,1274,0.7598130811312495,0.8,1.0,1.0,319.0,887.0,1.0,1,214.0,1
1275,1275,-0.48940847620068867,-0.5,1.0,0.0,279.0,581.0,0.0,0,420.0,1
1276,1276,-0.7083933762423013,-0.7,0.0,1.0,307.0,828.0,0.0,1,-195.0,0
1277,1277,0.8773714155352464,0.9,1.0,1.0,435.0,684.0,1.0,1,301.0,1
1278,1278,-0.2644179706193359,-0.3,0.0,1.0,394.0,753.0,1.0,0,723.0,1
1279,1279,-0.8721262253379322,-0.9,0.0,1.0,306.0,642.0,1.0,0,302.0,1
1280,1280,-0.8834345862645121,-0.9,0.0,1.0,419.0,526.0,1.0,0,685.0,1
1281,1281,-0.3565399587936465,-0.4,1.0,0.0,258.0,613.0,0.0,0,199.0,1
1282,1282,0.8963370684736757,0.9,0.0,0.0,368.0,629.0,0.0,1,183.0,1
1283,1283,0.3763718827385526,0.4,0.0,0.0,422.0,713.0,0.0,1,155.0,1
1284,1284,0.3278711842935397,0.3,1.0,1.0,455.0,677.0,0.0,0,-22.0,0
1285,1285,0.7671812972710871,0.8,0.0,0.0,492.0,837.0,0.0,1,-139.0,1
1286,1286,0.6379896472312013,0.6,1.0,1.0,442.0,515.0,1.0,1,203.0,1
1287,1287,-0.8304811874148978,-0.8,0.0,1.0,473.0,885.0,1.0,0,192.0,1
1288,1288,-0.6222389762846088,-0.6,1.0,0.0,416.0,749.0,0.0,0,455.0,1
1289,1289,-0.7748989140101228,-0.8,1.0,0.0,486.0,887.0,0.0,0,217.0,1
1290,1290,0.005356779355857211,0.0,1.0,1.0,253.0,845.0,0.0,0,-138.0,0
1291,1291,0.2624424913662703,0.3,0.0,0.0,360.0,832.0,1.0,0,-112.0,0
1292,1292,-0.7612232661781968,-0.8,1.0,0.0,317.0,685.0,0.0,0,288.0,1
1293,1293,0.5557671856924876,0.6,0.0,0.0,486.0,966.0,1.0,0,-362.0,0
1294,1294,-0.312300068523373,-0.3,0.0,1.0,359.0,614.0,1.0,0,587.0,1
1295,1295,-0.3274005991113783,-0.3,1.0,0.0,318.0,652.0,0.0,0,-160.0,1
1296,1296,-0.8349657306357927,-0.8,0.0,1.0,261.0,677.0,1.0,0,222.0,1
1297,1297,0.04021975335667749,0.0,0.0,0.0,261.0,968.0,0.0,1,-79.0,1
1298,1298,-0.3060058472740552,-0.3,0.0,1.0,250.0,565.0,1.0,0,235.0,1
1299,1299,-0.4515800129334471,-0.5,1.0,0.0,293.0,540.0,0.0,0,317.0,1
1300,1300,-0.2906618191442307,-0.3,0.0,1.0,475.0,985.0,0.0,1,-120.0,0
1301,1301,-0.6596580376151779,-0.7,1.0,0.0,271.0,699.0,0.0,0,230.0,1
1302,1302,-0.6947282058028497,-0.7,0.0,1.0,287.0,931.0,1.0,0,162.0,1
1303,1303,-0.09293737835515392,-0.1,1.0,0.0,298.0,896.0,0.0,0,586.0,1
1304,1304,0.39508428091519876,0.4,1.0,1.0,368.0,624.0,1.0,1,818.0,1
1305,1305,-0.299365169374174,-0.3,0.0,1.0,427.0,765.0,1.0,0,338.0,1
1306,1306,-0.7085272952801671,-0.7,1.0,0.0,449.0,972.0,0.0,0,189.0,1
1307,1307,0.04420807324096476,0.0,0.0,0.0,294.0,708.0,0.0,1,728.0,1
1308,1308,-0.07752881209872653,-0.1,1.0,0.0,400.0,809.0,0.0,0,1201.0,1
1309,1309,-0.1533331336070176,-0.2,0.0,1.0,473.0,830.0,0.0,1,-113.0,0
1310,1310,-0.6916991716200009,-0.7,0.0,1.0,312.0,668.0,1.0,0,170.0,1
1311,1311,0.6959117609715396,0.7,1.0,1.0,453.0,576.0,1.0,1,301.0,1
1312,1312,0.5988637083264109,0.6,1.0,1.0,312.0,687.0,1.0,1,361.0,1
1313,1313,0.13613238866317257,0.1,0.0,0.0,250.0,659.0,1.0,0,11.0,0
1314,1314,0.5352885323021531,0.5,0.0,0.0,344.0,980.0,0.0,1,236.0,1
1315,1315,-0.16645358275464106,-0.2,0.0,1.0,327.0,742.0,1.0,0,61.0,1
1316,1316,0.7642080239530288,0.8,0.0,0.0,444.0,826.0,0.0,1,420.0,1
1317,1317,0.4016912806245506,0.4,1.0,1.0,457.0,655.0,1.0,1,98.0,1
1318,1318,-0.836988518298979,-0.8,0.0,1.0,398.0,545.0,1.0,0,157.0,1
1319,1319,0.1058099084467089,0.1,1.0,1.0,320.0,815.0,0.0,0,645.0,0
1320,1320,-0.684104528181588,-0.7,1.0,0.0,418.0,601.0,0.0,0,321.0,1
1321,1321,0.664454805386793,0.7,0.0,0.0,260.0,644.0,1.0,0,-424.0,0
1322,1322,-0.7043417308896571,-0.7,0.0,1.0,418.0,673.0,1.0,0,249.0,1
1323,1323,-0.18721097275332454,-0.2,0.0,1.0,483.0,862.0,0.0,1,755.0,0
1324,1324,-0.4978801561437083,-0.5,0.0,1.0,250.0,931.0,1.0,0,189.0,1
1325,1325,-0.6088612127536632,-0.6,1.0,0.0,354.0,859.0,0.0,0,207.0,1
1326,1326,0.059050070161393076,0.1,0.0,0.0,464.0,744.0,1.0,0,182.0,0
1327,1327,0.05712939996885935,0.1,0.0,0.0,286.0,582.0,1.0,0,-48.0,0
1328,1328,0.3626023989701418,0.4,1.0,1.0,392.0,686.0,1.0,1,252.0,1
1329,1329,-0.6265687162489346,-0.6,1.0,0.0,418.0,567.0,0.0,0,105.0,1
1330,1330,-0.02591161281227705,-0.0,1.0,0.0,443.0,601.0,1.0,1,976.0,0
1331,1331,0.5791986426626651,0.6,0.0,0.0,330.0,789.0,0.0,1,301.0,1
1332,1332,0.4069010622462378,0.4,1.0,1.0,267.0,522.0,1.0,1,1651.0,1
1333,1333,-0.6921446494242822,-0.7,0.0,1.0,359.0,603.0,1.0,0,178.0,1
1334,1334,0.18039376347483127,0.2,1.0,1.0,279.0,954.0,1.0,1,1447.0,1
1335,1335,-0.42080115988560834,-0.4,1.0,0.0,361.0,762.0,0.0,0,-53.0,1
1336,1336,0.8131079734954644,0.8,1.0,1.0,311.0,533.0,1.0,1,146.0,1
1337,1337,0.22459993475702122,0.2,1.0,1.0,260.0,993.0,1.0,1,687.0,1
1338,1338,0.7619598990850155,0.8,0.0,0.0,480.0,631.0,0.0,1,249.0,1
1339,1339,0.22783597741099137,0.2,0.0,0.0,350.0,556.0,0.0,1,1074.0,1
1340,1340,-0.8644699693679417,-0.9,0.0,1.0,367.0,624.0,0.0,1,-1.0,0
1341,1341,0.8634643010766433,0.9,1.0,1.0,433.0,902.0,1.0,1,255.0,1
1342,1342,-0.4296418527080311,-0.4,1.0,0.0,305.0,918.0,0.0,0,577.0,1
1343,1343,-0.31573190434756815,-0.3,0.0,1.0,400.0,800.0,1.0,0,120.0,1
1344,1344,0.8667417962086751,0.9,0.0,0.0,441.0,503.0,0.0,1,356.0,1
1345,1345,0.7097613529064225,0.7,1.0,1.0,452.0,840.0,1.0,1,298.0,1
1346,1346,0.08118605739791407,0.1,0.0,0.0,497.0,528.0,1.0,0,75.0,0
1347,1347,0.4846187738039688,0.5,0.0,0.0,275.0,532.0,0.0,1,443.0,1
1348,1348,-0.11040040653633643,-0.1,1.0,0.0,250.0,697.0,0.0,0,663.0,1
1349,1349,0.2658309985110766,0.3,0.0,0.0,401.0,987.0,1.0,0,-278.0,0
1350,1350,-0.20804902555292448,-0.2,1.0,0.0,312.0,653.0,0.0,0,745.0,1
1351,1351,0.13221129486518557,0.1,1.0,1.0,392.0,672.0,0.0,0,606.0,0
1352,1352,-0.03361156586012848,-0.0,0.0,1.0,449.0,922.0,1.0,0,239.0,1
1353,1353,0.7224463054182789,0.7,1.0,1.0,375.0,873.0,0.0,0,2.0,0
1354,1354,-0.7918806903229422,-0.8,1.0,0.0,335.0,811.0,0.0,0,244.0,1
1355,1355,-0.009380997139884384,-0.0,0.0,1.0,423.0,872.0,1.0,0,265.0,1
1356,1356,-0.3972849690816015,-0.4,0.0,1.0,292.0,689.0,1.0,0,69.0,1
1357,1357,-0.18722691380221723,-0.2,1.0,0.0,378.0,590.0,0.0,0,-168.0,1
1358,1358,0.33215937553411956,0.3,1.0,1.0,257.0,870.0,1.0,1,293.0,1
1359,1359,0.185608436194299,0.2,0.0,0.0,261.0,558.0,0.0,1,351.0,1
1360,1360,0.057123619845035,0.1,0.0,0.0,420.0,962.0,0.0,1,248.0,1
1361,1361,0.6616313952892933,0.7,0.0,0.0,414.0,968.0,1.0,0,-532.0,0
1362,1362,-0.8051211840281675,-0.8,0.0,1.0,320.0,790.0,1.0,0,-250.0,1
1363,1363,-0.12483731666066078,-0.1,0.0,1.0,343.0,637.0,1.0,0,-350.0,1
1364,1364,-0.40342132458808544,-0.4,1.0,0.0,420.0,952.0,0.0,0,348.0,1
1365,1365,-0.04892422145860087,-0.0,0.0,1.0,471.0,776.0,1.0,0,2113.0,1
1366,1366,-0.45236753425991244,-0.5,0.0,1.0,423.0,757.0,1.0,0,270.0,1
1367,1367,-0.3605565279628856,-0.4,1.0,0.0,428.0,813.0,0.0,0,99.0,1
1368,1368,0.42507885625356023,0.4,0.0,0.0,473.0,554.0,0.0,1,223.0,1
1369,1369,-0.5405625284559636,-0.5,1.0,0.0,399.0,644.0,1.0,1,7.0,0
1370,1370,0.1702282418910971,0.2,1.0,1.0,404.0,627.0,1.0,1,779.0,1
1371,1371,0.6608865268728928,0.7,0.0,0.0,396.0,876.0,0.0,1,338.0,1
1372,1372,-0.15983233673826336,-0.2,1.0,0.0,495.0,744.0,0.0,0,951.0,1
1373,1373,0.39336058930824735,0.4,0.0,0.0,445.0,599.0,0.0,1,196.0,1
1374,1374,0.611116451875407,0.6,0.0,0.0,363.0,779.0,0.0,1,428.0,1
1375,1375,-0.7239350802307615,-0.7,0.0,1.0,274.0,764.0,1.0,0,-248.0,1
1376,1376,-0.36838325708978137,-0.4,0.0,1.0,286.0,746.0,1.0,0,398.0,1
1377,1377,0.556527288611769,0.6,0.0,0.0,291.0,810.0,1.0,0,29.0,0
1378,1378,-0.01735699716841821,-0.0,1.0,0.0,266.0,848.0,0.0,0,556.0,1
1379,1379,-0.37278314776153876,-0.4,0.0,1.0,456.0,676.0,1.0,0,538.0,1
1380,1380,0.022216275656049445,0.0,1.0,1.0,374.0,626.0,0.0,0,-80.0,0
1381,1381,0.3743227742498908,0.4,0.0,0.0,266.0,847.0,0.0,1,227.0,1
1382,1382,-0.5359745378713859,-0.5,1.0,0.0,458.0,951.0,0.0,0,411.0,1
1383,1383,-0.5821959989677239,-0.6,0.0,1.0,261.0,549.0,1.0,0,230.0,1
1384,1384,0.708316088813083,0.7,0.0,0.0,315.0,917.0,0.0,1,-372.0,1
1385,1385,0.889519302407826,0.9,0.0,0.0,312.0,776.0,0.0,1,322.0,1
1386,1386,0.7512772387381107,0.8,0.0,0.0,314.0,742.0,0.0,1,144.0,1
1387,1387,-0.3062484098496725,-0.3,1.0,0.0,395.0,967.0,0.0,0,118.0,1
1388,1388,0.16660971425302862,0.2,1.0,1.0,435.0,938.0,1.0,1,287.0,1
1389,1389,-0.5544975249727122,-0.6,1.0,0.0,485.0,635.0,0.0,0,340.0,1
1390,1390,0.8236488431082648,0.8,1.0,1.0,481.0,536.0,1.0,1,-747.0,1
1391,1391,-0.6992378632300595,-0.7,1.0,0.0,268.0,637.0,0.0,0,285.0,1
1392,1392,-0.8863856726193715,-0.9,0.0,1.0,367.0,986.0,1.0,0,-183.0,1
1393,1393,0.3947961980364828,0.4,0.0,0.0,296.0,933.0,0.0,1,81.0,1
1394,1394,-0.19398404907732203,-0.2,1.0,0.0,435.0,789.0,1.0,1,-524.0,0
1395,1395,-0.6864438582217974,-0.7,0.0,1.0,278.0,774.0,1.0,0,178.0,1
1396,1396,-0.5797646706002526,-0.6,0.0,1.0,497.0,857.0,0.0,1,16.0,0
1397,1397,-0.4301836992178661,-0.4,0.0,1.0,386.0,885.0,1.0,0,259.0,1
1398,1398,-0.7028353710823877,-0.7,0.0,1.0,262.0,904.0,1.0,0,154.0,1
1399,1399,-0.4712209901416618,-0.5,0.0,1.0,307.0,633.0,1.0,0,680.0,1
1400,1400,-0.43382452029631696,-0.4,1.0,0.0,475.0,619.0,0.0,0,436.0,1
1401,1401,-0.6332428146903681,-0.6,0.0,1.0,497.0,824.0,1.0,0,129.0,1
1402,1402,0.010710360714223155,0.0,0.0,0.0,353.0,908.0,1.0,0,749.0,0
1403,1403,0.4528338503717705,0.5,0.0,0.0,311.0,655.0,0.0,1,274.0,1
1404,1404,-0.36708308664855993,-0.4,1.0,0.0,418.0,623.0,0.0,0,-1.0,1
1405,1405,-0.021452172384718193,-0.0,0.0,1.0,283.0,518.0,1.0,0,609.0,1
1406,1406,0.5012059308242239,0.5,0.0,0.0,321.0,614.0,0.0,1,215.0,1
1407,1407,-0.15371698744519424,-0.2,0.0,1.0,293.0,791.0,0.0,1,76.0,0
1408,1408,-0.765437557382845,-0.8,0.0,1.0,382.0,985.0,1.0,0,273.0,1
1409,1409,-0.42023970673457034,-0.4,1.0,0.0,359.0,547.0,0.0,0,694.0,1
1410,1410,-0.5507300099468659,-0.6,0.0,1.0,386.0,772.0,1.0,0,-228.0,1
1411,1411,-0.7341197457295393,-0.7,1.0,0.0,269.0,688.0,0.0,0,303.0,1
1412,1412,-0.12234573620509703,-0.1,1.0,0.0,441.0,686.0,0.0,0,233.0,1
1413,1413,0.439946972410557,0.4,0.0,0.0,354.0,627.0,0.0,1,619.0,1
1414,1414,-0.772237051124411,-0.8,1.0,0.0,262.0,814.0,0.0,0,44.0,1
1415,1415,0.7170299395356609,0.7,0.0,0.0,338.0,538.0,0.0,1,214.0,1
1416,1416,-0.5191512305267192,-0.5,1.0,0.0,456.0,859.0,1.0,1,-175.0,0
1417,1417,-0.4383862271320894,-0.4,0.0,1.0,292.0,695.0,1.0,0,423.0,1
1418,1418,0.5997692217603768,0.6,1.0,1.0,280.0,809.0,1.0,1,341.0,1
1419,1419,0.6532908149967261,0.7,0.0,0.0,291.0,756.0,0.0,1,113.0,1
1420,1420,-0.7843680663787703,-0.8,0.0,1.0,265.0,894.0,0.0,1,-349.0,0
1421,1421,0.13371851791871248,0.1,1.0,1.0,457.0,940.0,1.0,1,663.0,1
1422,1422,-0.5095778672463236,-0.5,0.0,1.0,455.0,929.0,1.0,0,-484.0,1
1423,1423,-0.6911885078781129,-0.7,1.0,0.0,382.0,599.0,0.0,0,389.0,1
1424,1424,0.5377239449013439,0.5,0.0,0.0,253.0,758.0,0.0,1,799.0,1
1425,1425,-0.2835659198393833,-0.3,0.0,1.0,422.0,539.0,1.0,0,209.0,1
1426,1426,0.24207655479315748,0.2,1.0,1.0,423.0,838.0,1.0,1,1409.0,1
1427,1427,0.4700200159043747,0.5,1.0,1.0,496.0,780.0,1.0,1,494.0,1
1428,1428,-0.041643363693855684,-0.0,1.0,0.0,468.0,920.0,1.0,1,-208.0,0
1429,1429,-0.8314639457406888,-0.8,1.0,0.0,397.0,547.0,0.0,0,206.0,1
1430,1430,0.08809443618527124,0.1,0.0,0.0,282.0,522.0,0.0,1,466.0,1
1431,1431,-0.4999716592677586,-0.5,1.0,0.0,342.0,937.0,0.0,0,-89.0,1
1432,1432,-0.20715430977031601,-0.2,0.0,1.0,319.0,618.0,1.0,0,73.0,1
1433,1433,0.8591122183685386,0.9,1.0,1.0,490.0,535.0,1.0,1,185.0,1
1434,1434,-0.5833070098581916,-0.6,0.0,1.0,483.0,730.0,1.0,0,257.0,1
1435,1435,-0.7377433716580855,-0.7,1.0,0.0,485.0,615.0,0.0,0,370.0,1
1436,1436,-0.8317920012078898,-0.8,1.0,0.0,373.0,851.0,1.0,1,-424.0,0
1437,1437,-0.0392902141269148,-0.0,0.0,1.0,295.0,564.0,0.0,1,391.0,0
1438,1438,0.09918902784192929,0.1,1.0,1.0,322.0,873.0,1.0,1,335.0,1
1439,1439,0.37120237784673626,0.4,0.0,0.0,323.0,744.0,0.0,1,363.0,1
1440,1440,-0.48482483388364006,-0.5,1.0,0.0,498.0,601.0,0.0,0,301.0,1
1441,1441,-0.7155797025695102,-0.7,1.0,0.0,481.0,664.0,0.0,0,75.0,1
1442,1442,0.8804353733943905,0.9,0.0,0.0,273.0,728.0,0.0,1,209.0,1
1443,1443,-0.17575103610805964,-0.2,1.0,0.0,367.0,721.0,0.0,0,182.0,1
1444,1444,-0.46274812639526725,-0.5,0.0,1.0,458.0,678.0,1.0,0,64.0,1
1445,1445,0.6916139257915216,0.7,0.0,0.0,281.0,704.0,0.0,1,-45.0,1
1446,1446,-0.020742938128708532,-0.0,1.0,0.0,384.0,688.0,0.0,0,108.0,1
1447,1447,-0.4233171809875962,-0.4,0.0,1.0,305.0,636.0,1.0,0,549.0,1
1448,1448,0.716174410217946,0.7,0.0,0.0,317.0,503.0,0.0,1,400.0,1
1449,1449,-0.7479173552065387,-0.7,0.0,1.0,440.0,785.0,1.0,0,285.0,1
1450,1450,-0.2704930140815923,-0.3,0.0,1.0,497.0,503.0,1.0,0,-130.0,1
1451,1451,0.60227973502266,0.6,0.0,0.0,278.0,553.0,0.0,1,249.0,1
1452,1452,0.6575017148645758,0.7,0.0,0.0,291.0,731.0,1.0,0,-422.0,0
1453,1453,-0.3988567363353521,-0.4,0.0,1.0,250.0,917.0,1.0,0,-277.0,1
1454,1454,-0.6448802986271596,-0.6,0.0,1.0,431.0,557.0,1.0,0,192.0,1
1455,1455,-0.5701468772956519,-0.6,1.0,0.0,452.0,521.0,0.0,0,427.0,1
1456,1456,0.47613218559346693,0.5,0.0,0.0,360.0,767.0,0.0,1,383.0,1
1457,1457,0.34259627023316497,0.3,0.0,0.0,387.0,779.0,0.0,1,394.0,1
1458,1458,0.22552042454357057,0.2,1.0,1.0,440.0,891.0,1.0,1,799.0,1
1459,1459,-0.6540705809677938,-0.7,1.0,0.0,254.0,682.0,0.0,0,164.0,1
1460,1460,0.09646739034451635,0.1,0.0,0.0,328.0,794.0,0.0,1,1928.0,1
1461,1461,-0.14343424748051192,-0.1,0.0,1.0,492.0,871.0,1.0,0,-373.0,1
1462,1462,0.6822060685329642,0.7,1.0,1.0,297.0,873.0,1.0,1,120.0,1
1463,1463,0.45842741416259114,0.5,0.0,0.0,413.0,776.0,0.0,1,411.0,1
1464,1464,-0.5930580053128419,-0.6,0.0,1.0,488.0,633.0,1.0,0,49.0,1
1465,1465,-0.19495768600203656,-0.2,0.0,1.0,464.0,655.0,1.0,0,721.0,1
1466,1466,0.028749156911120344,0.0,1.0,1.0,271.0,581.0,0.0,0,1208.0,0
1467,1467,-0.8227269288762257,-0.8,1.0,0.0,433.0,758.0,0.0,0,139.0,1
1468,1468,-0.7789337639250766,-0.8,0.0,1.0,447.0,914.0,1.0,0,-301.0,1
1469,1469,0.713714972734072,0.7,1.0,1.0,276.0,592.0,1.0,1,272.0,1
1470,1470,0.04309900455428517,0.0,1.0,1.0,358.0,813.0,1.0,1,279.0,1
1471,1471,-0.012546722793095433,-0.0,1.0,0.0,364.0,737.0,1.0,1,1609.0,0
1472,1472,0.4568376979402232,0.5,0.0,0.0,455.0,732.0,0.0,1,63.0,1
1473,1473,-0.25255859171298567,-0.3,1.0,0.0,396.0,611.0,0.0,0,413.0,1
1474,1474,-0.42523738344940687,-0.4,1.0,0.0,269.0,987.0,1.0,1,-526.0,0
1475,1475,0.7600713985607687,0.8,0.0,0.0,347.0,730.0,0.0,1,303.0,1
1476,1476,0.7064221991416778,0.7,0.0,0.0,479.0,935.0,0.0,1,176.0,1
1477,1477,-0.864116791467351,-0.9,1.0,0.0,448.0,860.0,0.0,0,202.0,1
1478,1478,-0.1252897165192024,-0.1,1.0,0.0,441.0,625.0,0.0,0,384.0,1
1479,1479,0.19711279176466612,0.2,0.0,0.0,459.0,718.0,0.0,1,163.0,1
1480,1480,0.03045914648038517,0.0,1.0,1.0,327.0,591.0,1.0,1,262.0,1
1481,1481,0.1132186775374785,0.1,1.0,1.0,368.0,649.0,1.0,1,1073.0,1
1482,1482,-0.48799117215389903,-0.5,1.0,0.0,411.0,695.0,0.0,0,334.0,1
1483,1483,0.5118115631431807,0.5,1.0,1.0,464.0,867.0,1.0,1,209.0,1
1484,1484,-0.5847194588766286,-0.6,0.0,1.0,498.0,834.0,0.0,1,-22.0,0
1485,1485,-0.4367396177892856,-0.4,1.0,0.0,376.0,881.0,0.0,0,313.0,1
1486,1486,-0.35182050532602394,-0.4,0.0,1.0,485.0,776.0,1.0,0,-601.0,1
1487,1487,0.7381760451655731,0.7,1.0,1.0,303.0,698.0,1.0,1,199.0,1
1488,1488,-0.5838563182633634,-0.6,0.0,1.0,474.0,798.0,1.0,0,-472.0,1
1489,1489,-0.7020641682677907,-0.7,1.0,0.0,409.0,872.0,0.0,0,259.0,1
