,trial,coherence,coherence_bin,green_side,correct_side,target_onset,checker_onset,decision,green_decision,decision_time,correct_decision
0,0,0.5578385219705931,0.6,0.0,0.0,414.0,635.0,1.0,0,-789.0,0
1,1,-0.7869457249319942,-0.8,0.0,1.0,473.0,764.0,0.0,1,1763.0,0
2,2,-0.7862568462770597,-0.8,0.0,1.0,499.0,711.0,0.0,1,1790.0,0
3,3,0.5083262290346654,0.5,0.0,0.0,499.0,762.0,0.0,1,1739.0,1
4,4,0.8009546216320794,0.8,0.0,0.0,271.0,673.0,0.0,1,2056.0,1
5,5,0.7386060041108965,0.7,1.0,1.0,462.0,620.0,0.0,0,1918.0,0
6,6,0.5530746824678577,0.6,0.0,0.0,419.0,832.0,0.0,1,1749.0,1
7,7,-0.38851640094974105,-0.4,1.0,0.0,448.0,778.0,0.0,0,1774.0,1
8,8,0.48556818780644806,0.5,1.0,1.0,459.0,798.0,0.0,0,1743.0,0
9,9,-0.8594253080341098,-0.9,0.0,1.0,394.0,863.0,0.0,1,1743.0,0
10,10,-0.2901995112232818,-0.3,1.0,0.0,396.0,540.0,0.0,0,2064.0,1
11,11,-0.5229436615398522,-0.5,0.0,1.0,255.0,645.0,0.0,1,2100.0,0
12,12,0.5925643325357669,0.6,0.0,0.0,413.0,855.0,0.0,1,1732.0,1
13,13,-0.32654887892641404,-0.3,0.0,1.0,447.0,943.0,0.0,1,1610.0,0
14,14,-0.5732563501658132,-0.6,1.0,0.0,419.0,504.0,0.0,0,2077.0,1
15,15,0.22529211659203063,0.2,0.0,0.0,258.0,945.0,1.0,0,-1173.0,0
16,16,0.2090466982239615,0.2,1.0,1.0,473.0,889.0,0.0,0,1638.0,0
17,17,-0.7902178872219443,-0.8,0.0,1.0,372.0,626.0,0.0,1,2002.0,0
18,18,-0.5957117497061175,-0.6,0.0,1.0,334.0,963.0,1.0,0,-1127.0,1
19,19,0.7054446963436406,0.7,1.0,1.0,261.0,986.0,0.0,0,1753.0,0
20,20,-0.37029770377030424,-0.4,0.0,1.0,317.0,537.0,0.0,1,2146.0,0
21,21,0.5188230766019007,0.5,0.0,0.0,413.0,759.0,0.0,1,1828.0,1
22,22,-0.5732058907490072,-0.6,0.0,1.0,372.0,785.0,0.0,1,1843.0,0
23,23,0.37568363438513075,0.4,1.0,1.0,463.0,947.0,0.0,0,-1380.0,0
24,24,-0.2532529078430078,-0.3,0.0,1.0,308.0,944.0,0.0,1,1748.0,0
25,25,0.7863611141822967,0.8,0.0,0.0,318.0,780.0,0.0,1,1902.0,1
26,26,0.15690575703020737,0.2,1.0,1.0,293.0,906.0,0.0,0,1801.0,0
27,27,0.20161842887039738,0.2,1.0,1.0,490.0,994.0,0.0,0,1516.0,0
28,28,0.6195028368464802,0.6,0.0,0.0,320.0,872.0,0.0,1,1808.0,1
29,29,-0.2645031200048015,-0.3,1.0,0.0,444.0,675.0,0.0,0,1881.0,1
30,30,0.57315600406943,0.6,0.0,0.0,309.0,548.0,0.0,1,2143.0,1
31,31,-0.29514650916108764,-0.3,0.0,1.0,446.0,937.0,0.0,1,1617.0,0
32,32,-0.5634782026211582,-0.6,1.0,0.0,457.0,865.0,1.0,1,-1182.0,0
33,33,0.5775701989834013,0.6,1.0,1.0,392.0,665.0,0.0,0,1943.0,0
34,34,-0.26480723723132293,-0.3,1.0,0.0,446.0,823.0,0.0,0,1731.0,1
35,35,-0.30181791020084636,-0.3,1.0,0.0,337.0,809.0,0.0,0,1854.0,1
36,36,0.08655697103492799,0.1,1.0,1.0,372.0,861.0,0.0,0,-1193.0,0
37,37,0.11200153726778861,0.1,1.0,1.0,427.0,801.0,0.0,0,1772.0,0
38,38,0.8662031680420054,0.9,0.0,0.0,262.0,540.0,0.0,1,2198.0,1
39,39,0.7472718641844506,0.7,1.0,1.0,438.0,943.0,0.0,0,1619.0,0
40,40,-0.1665729807975984,-0.2,0.0,1.0,330.0,648.0,0.0,1,2022.0,0
41,41,0.3786000551090326,0.4,0.0,0.0,361.0,562.0,0.0,1,2077.0,1
42,42,0.005729769497505921,0.0,0.0,0.0,460.0,575.0,0.0,1,1965.0,1
43,43,0.19220525611689687,0.2,0.0,0.0,378.0,896.0,0.0,1,1726.0,1
44,44,0.1398438663517364,0.1,0.0,0.0,307.0,766.0,0.0,1,1927.0,1
45,45,-0.4008312583354607,-0.4,0.0,1.0,361.0,814.0,0.0,1,1825.0,0
46,46,0.332512925732123,0.3,1.0,1.0,284.0,590.0,0.0,0,2126.0,0
47,47,0.7446432285662413,0.7,1.0,1.0,306.0,550.0,0.0,0,2144.0,0
48,48,-0.34070123421963106,-0.3,0.0,1.0,396.0,904.0,0.0,1,1700.0,0
49,49,0.5014478039982214,0.5,0.0,0.0,341.0,780.0,0.0,1,1879.0,1
50,50,0.7707147684611148,0.8,0.0,0.0,386.0,901.0,0.0,1,1713.0,1
51,51,-0.5074142111967035,-0.5,1.0,0.0,251.0,715.0,0.0,0,-766.0,1
52,52,0.8155821131474258,0.8,0.0,0.0,406.0,946.0,0.0,1,1648.0,1
53,53,0.6409418053183843,0.6,1.0,1.0,352.0,658.0,0.0,0,-920.0,0
54,54,0.38478228387467694,0.4,0.0,0.0,380.0,785.0,0.0,1,-1135.0,1
55,55,-0.41802465101877506,-0.4,0.0,1.0,331.0,950.0,0.0,1,1719.0,0
56,56,0.12518221764058401,0.1,0.0,0.0,433.0,733.0,0.0,1,1834.0,1
57,57,-0.49927754748257036,-0.5,0.0,1.0,467.0,858.0,0.0,1,-1235.0,0
58,58,0.835914350660038,0.8,0.0,0.0,260.0,850.0,0.0,1,1890.0,1
59,59,-0.06205243688591244,-0.1,0.0,1.0,426.0,858.0,0.0,1,1716.0,0
60,60,0.08736162950276272,0.1,0.0,0.0,476.0,503.0,0.0,1,2021.0,1
61,61,0.4098775214398306,0.4,0.0,0.0,378.0,839.0,0.0,1,-1067.0,1
62,62,-0.13680413499440358,-0.1,1.0,0.0,441.0,583.0,0.0,0,-984.0,1
63,63,0.1412158791496837,0.1,0.0,0.0,263.0,703.0,0.0,1,2034.0,1
64,64,0.8167310033397795,0.8,0.0,0.0,409.0,771.0,0.0,1,1820.0,1
65,65,0.04786215348417455,0.0,0.0,0.0,469.0,844.0,0.0,1,1687.0,1
66,66,0.6315123961814079,0.6,0.0,0.0,328.0,544.0,0.0,1,2128.0,1
67,67,0.5389679017183452,0.5,1.0,1.0,295.0,501.0,0.0,0,2204.0,0
68,68,-0.25311364679559,-0.3,1.0,0.0,262.0,637.0,0.0,0,2101.0,1
69,69,-0.20354655927015475,-0.2,0.0,1.0,306.0,519.0,0.0,1,2175.0,0
70,70,-0.17502611414702396,-0.2,0.0,1.0,492.0,687.0,0.0,1,1821.0,0
71,71,0.12632476830464678,0.1,1.0,1.0,389.0,699.0,0.0,0,1912.0,0
72,72,-0.11494474119030318,-0.1,0.0,1.0,343.0,636.0,0.0,1,2021.0,0
73,73,-0.21944514946925098,-0.2,1.0,0.0,327.0,948.0,0.0,0,1725.0,1
74,74,-0.8925542107761015,-0.9,0.0,1.0,473.0,841.0,0.0,1,1686.0,0
75,75,0.6986432693735064,0.7,0.0,0.0,266.0,818.0,0.0,1,1916.0,1
76,76,-0.5943651064738719,-0.6,0.0,1.0,258.0,689.0,0.0,1,2053.0,0
77,77,-0.48439375031851584,-0.5,0.0,1.0,399.0,709.0,0.0,1,1892.0,0
78,78,0.08793288530854504,0.1,0.0,0.0,401.0,737.0,0.0,1,1862.0,1
79,79,0.3714861543476732,0.4,0.0,0.0,349.0,696.0,0.0,1,1955.0,1
80,80,0.15546836918928986,0.2,0.0,0.0,409.0,655.0,0.0,1,1936.0,1
81,81,0.5443111524684981,0.5,0.0,0.0,367.0,837.0,0.0,1,1796.0,1
82,82,-0.32215623089175727,-0.3,1.0,0.0,299.0,985.0,0.0,0,1716.0,1
83,83,0.3352937221805602,0.3,0.0,0.0,355.0,787.0,0.0,1,1858.0,1
84,84,0.6828537630296595,0.7,1.0,1.0,277.0,554.0,0.0,0,-311.0,0
85,85,0.6304068233075523,0.6,0.0,0.0,433.0,616.0,0.0,1,1951.0,1
86,86,-0.21169717004549582,-0.2,0.0,1.0,464.0,505.0,0.0,1,2031.0,0
87,87,0.18587688318059492,0.2,0.0,0.0,372.0,952.0,0.0,1,1676.0,1
88,88,-0.05001720603920601,-0.1,1.0,0.0,455.0,735.0,0.0,0,-810.0,1
89,89,0.43573443272601187,0.4,0.0,0.0,468.0,960.0,1.0,0,-1278.0,0
90,90,-0.20787135997511097,-0.2,1.0,0.0,270.0,564.0,0.0,0,2166.0,1
91,91,0.2726300014765065,0.3,1.0,1.0,321.0,941.0,1.0,1,-1002.0,1
92,92,-0.49729517910046456,-0.5,0.0,1.0,253.0,741.0,0.0,1,2006.0,0
93,93,0.09610556526186487,0.1,1.0,1.0,339.0,659.0,0.0,0,2002.0,0
94,94,0.5814241439637956,0.6,0.0,0.0,442.0,586.0,1.0,0,-958.0,0
95,95,0.0942151222221701,0.1,1.0,1.0,357.0,900.0,0.0,0,1743.0,0
96,96,-0.6433698571796077,-0.6,1.0,0.0,461.0,743.0,0.0,0,1796.0,1
97,97,0.762930150226928,0.8,1.0,1.0,446.0,814.0,0.0,0,1740.0,0
98,98,0.07560804794548948,0.1,1.0,1.0,491.0,635.0,0.0,0,1874.0,0
99,99,-0.025872651260749113,-0.0,0.0,1.0,481.0,537.0,0.0,1,1982.0,0
100,100,-0.7654104592056109,-0.8,1.0,0.0,483.0,812.0,0.0,0,1705.0,1
101,101,0.5275025655232818,0.5,1.0,1.0,478.0,545.0,0.0,0,1977.0,0
102,102,0.35739570038942203,0.4,0.0,0.0,496.0,780.0,0.0,1,1724.0,1
103,103,0.43265844266865094,0.4,0.0,0.0,322.0,781.0,0.0,1,1897.0,1
104,104,0.6483285527290269,0.6,0.0,0.0,293.0,754.0,0.0,1,1953.0,1
105,105,-0.7984230986487956,-0.8,1.0,0.0,403.0,967.0,0.0,0,1630.0,1
106,106,-0.8719717825698434,-0.9,1.0,0.0,311.0,743.0,0.0,0,1946.0,1
107,107,-0.5918572734908343,-0.6,0.0,1.0,295.0,766.0,0.0,1,1939.0,0
108,108,0.8748985449560828,0.9,1.0,1.0,321.0,505.0,0.0,0,2174.0,0
109,109,-0.38414583926741575,-0.4,1.0,0.0,489.0,672.0,0.0,0,1839.0,1
110,110,-0.5829977801725861,-0.6,0.0,1.0,489.0,559.0,0.0,1,1952.0,0
111,111,-0.12239413842825297,-0.1,0.0,1.0,292.0,689.0,0.0,1,2019.0,0
112,112,0.20633774224254398,0.2,1.0,1.0,263.0,629.0,1.0,1,-722.0,1
113,113,0.6020681530878499,0.6,1.0,1.0,305.0,685.0,0.0,0,-970.0,0
114,114,-0.6547485721970964,-0.7,1.0,0.0,378.0,706.0,0.0,0,1916.0,1
115,115,-0.757834034674488,-0.8,0.0,1.0,333.0,982.0,0.0,1,1685.0,0
116,116,-0.28534248329575485,-0.3,0.0,1.0,291.0,913.0,0.0,1,1796.0,0
117,117,0.2774933438089885,0.3,0.0,0.0,409.0,855.0,0.0,1,1736.0,1
118,118,-0.13145020440278998,-0.1,0.0,1.0,484.0,700.0,0.0,1,1816.0,0
119,119,0.19427123275106217,0.2,0.0,0.0,322.0,901.0,0.0,1,1777.0,1
120,120,0.6397064998991803,0.6,1.0,1.0,315.0,571.0,0.0,0,2114.0,0
121,121,0.7392202323745282,0.7,0.0,0.0,398.0,627.0,0.0,1,1975.0,1
122,122,-0.5432440938718037,-0.5,1.0,0.0,432.0,575.0,0.0,0,1993.0,1
123,123,-0.27645417709129083,-0.3,0.0,1.0,440.0,609.0,0.0,1,1951.0,0
124,124,-0.39540906161124256,-0.4,0.0,1.0,344.0,795.0,0.0,1,1861.0,0
125,125,0.06972697492193991,0.1,0.0,0.0,310.0,800.0,0.0,1,1890.0,1
126,126,-0.4447107876630569,-0.4,1.0,0.0,297.0,710.0,0.0,0,1993.0,1
127,127,-0.5227482211455856,-0.5,0.0,1.0,315.0,722.0,0.0,1,-1007.0,0
128,128,0.02833435123149408,0.0,1.0,1.0,354.0,689.0,0.0,0,1957.0,0
129,129,0.7717881741812972,0.8,0.0,0.0,331.0,881.0,0.0,1,1788.0,1
130,130,0.04382470673315697,0.0,0.0,0.0,411.0,857.0,0.0,1,-1038.0,1
131,131,0.8754125454306708,0.9,1.0,1.0,328.0,797.0,1.0,1,-905.0,1
132,132,0.8463851143435056,0.8,1.0,1.0,400.0,943.0,0.0,0,1657.0,0
133,133,-0.7877256162951004,-0.8,1.0,0.0,449.0,794.0,0.0,0,1757.0,1
134,134,-0.5908306828450156,-0.6,0.0,1.0,369.0,776.0,0.0,1,1855.0,0
135,135,0.6528867141995055,0.7,0.0,0.0,380.0,652.0,0.0,1,1968.0,1
136,136,0.8408754393799703,0.8,0.0,0.0,360.0,876.0,0.0,1,1764.0,1
137,137,-0.5696236127172338,-0.6,1.0,0.0,338.0,937.0,0.0,0,-1265.0,1
138,138,-0.31106780090202,-0.3,0.0,1.0,313.0,614.0,0.0,1,2073.0,0
139,139,0.34085836505591105,0.3,1.0,1.0,474.0,644.0,0.0,0,1882.0,0
140,140,-0.2063449431437847,-0.2,1.0,0.0,394.0,893.0,0.0,0,1713.0,1
141,141,0.4993874791536971,0.5,1.0,1.0,406.0,697.0,0.0,0,1897.0,0
142,142,0.6112754362580298,0.6,1.0,1.0,467.0,958.0,0.0,0,1575.0,0
143,143,-0.7360648759122623,-0.7,1.0,0.0,374.0,971.0,0.0,0,1655.0,1
144,144,-0.7532973098304743,-0.8,0.0,1.0,391.0,836.0,0.0,1,1773.0,0
145,145,-0.4339889041990834,-0.4,0.0,1.0,324.0,957.0,0.0,1,1719.0,0
146,146,-0.6332180288333253,-0.6,1.0,0.0,431.0,569.0,0.0,0,2000.0,1
147,147,0.4920065158655905,0.5,1.0,1.0,255.0,507.0,0.0,0,2238.0,0
148,148,0.655334255322814,0.7,0.0,0.0,439.0,620.0,0.0,1,1941.0,1
149,149,0.02940603870197067,0.0,1.0,1.0,274.0,901.0,0.0,0,1825.0,0
150,150,-0.5919249055196469,-0.6,1.0,0.0,304.0,602.0,0.0,0,2094.0,1
151,151,-0.09237112816055815,-0.1,1.0,0.0,272.0,709.0,0.0,0,2019.0,1
152,152,-0.6326863747066036,-0.6,0.0,1.0,478.0,892.0,0.0,1,1630.0,0
153,153,0.5319314331003601,0.5,1.0,1.0,463.0,736.0,1.0,1,-1029.0,1
154,154,-0.03473474802653287,-0.0,1.0,0.0,359.0,890.0,0.0,0,1751.0,1
155,155,0.13622857527507526,0.1,1.0,1.0,281.0,982.0,0.0,0,-1233.0,0
156,156,0.8442562005807418,0.8,0.0,0.0,499.0,632.0,0.0,1,1869.0,1
157,157,0.7165669976280095,0.7,0.0,0.0,296.0,505.0,0.0,1,2199.0,1
158,158,-0.5511367680255463,-0.6,0.0,1.0,424.0,687.0,0.0,1,1889.0,0
159,159,-0.2556223979871436,-0.3,0.0,1.0,257.0,988.0,0.0,1,1755.0,0
160,160,0.22638301594591514,0.2,0.0,0.0,267.0,590.0,0.0,1,2143.0,1
161,161,0.7869311024970359,0.8,0.0,0.0,337.0,967.0,0.0,1,1696.0,1
162,162,-0.6354190297991035,-0.6,0.0,1.0,350.0,757.0,0.0,1,1893.0,0
163,163,-0.6369924300166683,-0.6,1.0,0.0,476.0,942.0,0.0,0,1582.0,1
164,164,0.4565444025764448,0.5,0.0,0.0,387.0,710.0,0.0,1,1903.0,1
165,165,0.04316544489823104,0.0,1.0,1.0,265.0,842.0,0.0,0,1893.0,0
166,166,0.22032580225587972,0.2,1.0,1.0,298.0,552.0,1.0,1,-630.0,1
167,167,0.8091055478289882,0.8,0.0,0.0,371.0,505.0,0.0,1,2124.0,1
168,168,0.8662321196965258,0.9,1.0,1.0,259.0,964.0,0.0,0,1777.0,0
169,169,-0.5616541976506952,-0.6,1.0,0.0,491.0,674.0,0.0,0,1835.0,1
170,170,-0.8990309147495203,-0.9,0.0,1.0,301.0,631.0,0.0,1,-882.0,0
171,171,0.44389943283697264,0.4,1.0,1.0,296.0,830.0,0.0,0,1874.0,0
172,172,0.7260694913360805,0.7,0.0,0.0,387.0,806.0,0.0,1,1807.0,1
173,173,-0.6033124396438437,-0.6,0.0,1.0,479.0,995.0,0.0,1,1526.0,0
174,174,0.7210108091520236,0.7,1.0,1.0,255.0,923.0,0.0,0,1822.0,0
175,175,0.4142342643141931,0.4,1.0,1.0,288.0,728.0,0.0,0,1984.0,0
176,176,-0.8290464205818032,-0.8,1.0,0.0,289.0,814.0,0.0,0,1897.0,1
177,177,-0.7353689509398862,-0.7,0.0,1.0,379.0,952.0,0.0,1,1669.0,0
178,178,0.1024977116209368,0.1,1.0,1.0,348.0,814.0,0.0,0,1838.0,0
179,179,0.4608729655642959,0.5,0.0,0.0,279.0,831.0,0.0,1,1890.0,1
180,180,-0.49845286086776996,-0.5,1.0,0.0,350.0,671.0,0.0,0,1979.0,1
181,181,0.42602227818313676,0.4,1.0,1.0,290.0,993.0,0.0,0,1717.0,0
182,182,0.29718737534366546,0.3,0.0,0.0,327.0,546.0,0.0,1,2127.0,1
183,183,-0.8290714286983684,-0.8,0.0,1.0,285.0,659.0,0.0,1,2056.0,0
184,184,0.22549744063809973,0.2,1.0,1.0,413.0,844.0,0.0,0,1743.0,0
185,185,-0.47403585831067274,-0.5,1.0,0.0,476.0,815.0,0.0,0,1709.0,1
186,186,-0.27232033725627436,-0.3,0.0,1.0,367.0,931.0,0.0,1,1702.0,0
187,187,-0.24771369406516985,-0.2,1.0,0.0,313.0,918.0,0.0,0,1769.0,1
188,188,0.1516203976370184,0.2,0.0,0.0,414.0,557.0,0.0,1,2029.0,1
189,189,-0.1332382842082851,-0.1,1.0,0.0,302.0,517.0,0.0,0,2181.0,1
190,190,-0.034355103541039544,-0.0,0.0,1.0,283.0,769.0,1.0,0,-402.0,1
191,191,0.050948713646019494,0.1,1.0,1.0,452.0,527.0,0.0,0,2021.0,0
192,192,-0.2962768596351468,-0.3,0.0,1.0,266.0,965.0,0.0,1,1769.0,0
193,193,-0.11010500208595475,-0.1,1.0,0.0,309.0,688.0,0.0,0,2003.0,1
194,194,-0.13806493002113052,-0.1,0.0,1.0,472.0,611.0,0.0,1,1917.0,0
195,195,-0.8775329871307909,-0.9,0.0,1.0,430.0,725.0,0.0,1,1845.0,0
196,196,0.7842472514272524,0.8,0.0,0.0,301.0,908.0,1.0,0,-1209.0,0
197,197,0.8900363231750247,0.9,1.0,1.0,393.0,764.0,0.0,0,1843.0,0
198,198,0.8417836370152797,0.8,0.0,0.0,307.0,661.0,0.0,1,2032.0,1
199,199,-0.6534556441416366,-0.7,1.0,0.0,436.0,653.0,0.0,0,1911.0,1
200,200,-0.808233808133555,-0.8,1.0,0.0,490.0,858.0,1.0,1,-998.0,0
201,201,-0.09005823533989399,-0.1,0.0,1.0,438.0,756.0,0.0,1,1806.0,0
202,202,0.3929809186699885,0.4,1.0,1.0,293.0,545.0,0.0,0,2162.0,0
203,203,-0.8708754332597229,-0.9,0.0,1.0,459.0,679.0,0.0,1,1862.0,0
204,204,0.28732955955827955,0.3,1.0,1.0,380.0,870.0,0.0,0,1750.0,0
205,205,-0.8313899011002398,-0.8,1.0,0.0,306.0,979.0,0.0,0,1715.0,1
206,206,0.5059786673202892,0.5,1.0,1.0,484.0,801.0,0.0,0,1715.0,0
207,207,0.803687545520409,0.8,1.0,1.0,268.0,689.0,0.0,0,2043.0,0
208,208,-0.8229125616240055,-0.8,0.0,1.0,424.0,892.0,0.0,1,1684.0,0
209,209,0.32653590460157955,0.3,1.0,1.0,468.0,904.0,0.0,0,1628.0,0
210,210,-0.11370211947936548,-0.1,0.0,1.0,438.0,575.0,0.0,1,1987.0,0
211,211,-0.7246345305398617,-0.7,0.0,1.0,329.0,682.0,1.0,0,-881.0,1
212,212,0.005000434503918849,0.0,1.0,1.0,295.0,919.0,0.0,0,1786.0,0
213,213,0.48961847451022444,0.5,1.0,1.0,271.0,835.0,0.0,0,1894.0,0
214,214,-0.4442928114105152,-0.4,1.0,0.0,416.0,653.0,0.0,0,1931.0,1
215,215,0.2855789876289775,0.3,1.0,1.0,429.0,903.0,0.0,0,1668.0,0
216,216,-0.5490896236222689,-0.5,0.0,1.0,358.0,962.0,0.0,1,1680.0,0
217,217,-0.060757116682964796,-0.1,0.0,1.0,316.0,576.0,0.0,1,2108.0,0
218,218,0.6513113390376671,0.7,0.0,0.0,458.0,573.0,0.0,1,1969.0,1
219,219,-0.8463160016230343,-0.8,0.0,1.0,324.0,896.0,0.0,1,1780.0,0
220,220,0.8922822304391057,0.9,1.0,1.0,443.0,676.0,0.0,0,1881.0,0
221,221,0.2491178676964506,0.2,1.0,1.0,493.0,723.0,0.0,0,1784.0,0
222,222,-0.6541022161164977,-0.7,1.0,0.0,309.0,816.0,0.0,0,1875.0,1
223,223,-0.6339113640845144,-0.6,1.0,0.0,302.0,829.0,0.0,0,1869.0,1
224,224,-0.39801759368823897,-0.4,0.0,1.0,401.0,732.0,0.0,1,-983.0,0
225,225,-0.5295680315518694,-0.5,0.0,1.0,406.0,577.0,0.0,1,2017.0,0
226,226,-0.7137905544193813,-0.7,0.0,1.0,388.0,532.0,0.0,1,2080.0,0
227,227,-0.8314293333203869,-0.8,0.0,1.0,394.0,665.0,0.0,1,-1039.0,0
228,228,-0.4010365946922678,-0.4,0.0,1.0,255.0,737.0,0.0,1,2008.0,0
229,229,0.5686339486336923,0.6,0.0,0.0,361.0,775.0,0.0,1,1864.0,1
230,230,-0.06174959146990633,-0.1,1.0,0.0,453.0,891.0,0.0,0,-1334.0,1
231,231,-0.8685601367271325,-0.9,0.0,1.0,341.0,724.0,0.0,1,1935.0,0
232,232,-0.18303219355913758,-0.2,0.0,1.0,413.0,813.0,1.0,0,-1096.0,1
233,233,0.5237925143676251,0.5,1.0,1.0,456.0,802.0,1.0,1,-1038.0,1
234,234,-0.6104884950583049,-0.6,1.0,0.0,274.0,835.0,0.0,0,1891.0,1
235,235,-0.17506847641649104,-0.2,1.0,0.0,394.0,560.0,0.0,0,2046.0,1
236,236,0.22464144845637912,0.2,0.0,0.0,287.0,823.0,0.0,1,1890.0,1
237,237,0.794207880804293,0.8,0.0,0.0,490.0,567.0,0.0,1,1943.0,1
238,238,-0.46626721442544045,-0.5,1.0,0.0,481.0,625.0,0.0,0,1894.0,1
239,239,0.7728621997788331,0.8,1.0,1.0,445.0,789.0,0.0,0,1766.0,0
240,240,-0.7806344964418787,-0.8,0.0,1.0,437.0,869.0,0.0,1,1694.0,0
241,241,0.8680904313639902,0.9,1.0,1.0,310.0,851.0,0.0,0,1839.0,0
242,242,0.761896741273084,0.8,1.0,1.0,305.0,649.0,1.0,1,-854.0,1
243,243,-0.24255704133018996,-0.2,0.0,1.0,253.0,628.0,0.0,1,2119.0,0
244,244,-0.5263825703521499,-0.5,0.0,1.0,324.0,562.0,0.0,1,2114.0,0
245,245,0.4851801169811497,0.5,0.0,0.0,433.0,948.0,0.0,1,1619.0,1
246,246,-0.1615261600681338,-0.2,1.0,0.0,391.0,514.0,0.0,0,-735.0,1
247,247,-0.17251193514164143,-0.2,0.0,1.0,383.0,940.0,0.0,1,1677.0,0
248,248,-0.01899947836383986,-0.0,1.0,0.0,461.0,684.0,0.0,0,1855.0,1
249,249,0.335779253693686,0.3,0.0,0.0,351.0,696.0,0.0,1,1953.0,1
250,250,-0.0429408746055443,-0.0,0.0,1.0,293.0,856.0,0.0,1,1851.0,0
251,251,-0.4290677489095941,-0.4,1.0,0.0,440.0,805.0,0.0,0,1755.0,1
252,252,-0.353288858212935,-0.4,0.0,1.0,253.0,521.0,0.0,1,2226.0,0
253,253,0.1757545647232458,0.2,0.0,0.0,371.0,870.0,0.0,1,1759.0,1
254,254,-0.28264801072743273,-0.3,1.0,0.0,489.0,688.0,0.0,0,1823.0,1
255,255,-0.6284623355031671,-0.6,0.0,1.0,455.0,503.0,0.0,1,2042.0,0
256,256,0.6570801130492218,0.7,0.0,0.0,374.0,814.0,0.0,1,1812.0,1
257,257,-0.4513883055084267,-0.5,0.0,1.0,328.0,502.0,0.0,1,2170.0,0
258,258,0.7221141493467466,0.7,0.0,0.0,403.0,549.0,0.0,1,2048.0,1
259,259,0.34860104580529716,0.3,1.0,1.0,288.0,571.0,0.0,0,2141.0,0
260,260,0.69549448444174,0.7,0.0,0.0,344.0,719.0,0.0,1,1937.0,1
261,261,0.34792992940074574,0.3,1.0,1.0,312.0,625.0,0.0,0,2063.0,0
262,262,0.6909844554903085,0.7,0.0,0.0,365.0,985.0,0.0,1,1650.0,1
263,263,0.7416492077274554,0.7,1.0,1.0,381.0,617.0,1.0,1,-838.0,1
264,264,-0.7818172810232454,-0.8,1.0,0.0,376.0,913.0,0.0,0,1711.0,1
265,265,0.18175806764547542,0.2,1.0,1.0,352.0,722.0,0.0,0,1926.0,0
266,266,0.6883838077987995,0.7,1.0,1.0,494.0,805.0,0.0,0,1701.0,0
267,267,0.32835017408556955,0.3,1.0,1.0,306.0,958.0,0.0,0,1736.0,0
268,268,0.7781794928863243,0.8,0.0,0.0,262.0,873.0,0.0,1,1865.0,1
269,269,-0.31825758520897496,-0.3,1.0,0.0,367.0,980.0,0.0,0,1653.0,1
270,270,-0.7997508636098491,-0.8,1.0,0.0,279.0,522.0,0.0,0,2199.0,1
271,271,0.733359271413191,0.7,0.0,0.0,462.0,599.0,0.0,1,-1031.0,1
272,272,0.7812924276072898,0.8,0.0,0.0,488.0,826.0,1.0,0,-1264.0,0
273,273,-0.08786359512794517,-0.1,0.0,1.0,376.0,820.0,0.0,1,1804.0,0
274,274,0.1597651217126156,0.2,0.0,0.0,418.0,796.0,0.0,1,1786.0,1
275,275,-0.5405554467782414,-0.5,1.0,0.0,420.0,751.0,0.0,0,1829.0,1
276,276,0.6388658148951555,0.6,0.0,0.0,326.0,595.0,0.0,1,2079.0,1
277,277,-0.44693263176521586,-0.4,0.0,1.0,277.0,611.0,0.0,1,2112.0,0
278,278,-0.8844629581330602,-0.9,0.0,1.0,430.0,957.0,0.0,1,1613.0,0
279,279,0.7503996977748534,0.8,1.0,1.0,409.0,979.0,0.0,0,1612.0,0
280,280,-0.7439779668543375,-0.7,1.0,0.0,329.0,827.0,0.0,0,1844.0,1
281,281,-0.0487644302700011,-0.0,1.0,0.0,278.0,844.0,1.0,1,-812.0,0
282,282,-0.7851504969492693,-0.8,1.0,0.0,285.0,782.0,0.0,0,1933.0,1
283,283,-0.43852283439063455,-0.4,0.0,1.0,371.0,776.0,0.0,1,1853.0,0
284,284,-0.6423197555522608,-0.6,1.0,0.0,443.0,618.0,0.0,0,1939.0,1
285,285,-0.7443973844197065,-0.7,0.0,1.0,422.0,658.0,0.0,1,1920.0,0
286,286,-0.4778632424348233,-0.5,1.0,0.0,276.0,688.0,1.0,1,-784.0,0
287,287,0.3111089695557424,0.3,0.0,0.0,272.0,531.0,0.0,1,2197.0,1
288,288,0.6629468263986241,0.7,1.0,1.0,318.0,679.0,0.0,0,2003.0,0
289,289,0.6274512429872422,0.6,0.0,0.0,488.0,569.0,0.0,1,1943.0,1
290,290,0.3614348722465409,0.4,1.0,1.0,429.0,891.0,0.0,0,1680.0,0
291,291,0.09874993271304822,0.1,1.0,1.0,412.0,944.0,0.0,0,1644.0,0
292,292,-0.2353252446894072,-0.2,0.0,1.0,278.0,811.0,0.0,1,1911.0,0
293,293,0.4359335413587556,0.4,1.0,1.0,429.0,780.0,0.0,0,1791.0,0
294,294,0.8526290422584432,0.9,0.0,0.0,257.0,823.0,0.0,1,1920.0,1
295,295,0.27060873267920693,0.3,1.0,1.0,363.0,694.0,1.0,1,-907.0,1
296,296,-0.8707810475170236,-0.9,1.0,0.0,475.0,592.0,0.0,0,1933.0,1
297,297,-0.8175089929149784,-0.8,0.0,1.0,289.0,888.0,0.0,1,1823.0,0
298,298,-0.8920689239457174,-0.9,0.0,1.0,292.0,867.0,0.0,1,1841.0,0
299,299,0.14074921389446982,0.1,0.0,0.0,389.0,932.0,0.0,1,-1171.0,1
300,300,0.08550117026058002,0.1,0.0,0.0,371.0,729.0,0.0,1,1900.0,1
301,301,0.37534301400030634,0.4,1.0,1.0,455.0,954.0,0.0,0,1591.0,0
302,302,-0.668667335629608,-0.7,0.0,1.0,341.0,531.0,0.0,1,2128.0,0
303,303,0.04535787244228795,0.0,1.0,1.0,436.0,961.0,0.0,0,1603.0,0
304,304,0.2528040307399996,0.3,1.0,1.0,357.0,591.0,0.0,0,-928.0,0
305,305,-0.3839119402241352,-0.4,1.0,0.0,388.0,809.0,0.0,0,1803.0,1
306,306,-0.23807219142242297,-0.2,1.0,0.0,437.0,761.0,0.0,0,1802.0,1
307,307,0.47343256793918276,0.5,1.0,1.0,486.0,643.0,1.0,1,-1029.0,1
308,308,0.5441897335517386,0.5,1.0,1.0,252.0,848.0,0.0,0,1900.0,0
309,309,-0.8058606498626103,-0.8,1.0,0.0,303.0,957.0,0.0,0,1740.0,1
310,310,0.7029662793093115,0.7,1.0,1.0,430.0,800.0,0.0,0,1770.0,0
311,311,-0.798231613525509,-0.8,0.0,1.0,355.0,778.0,0.0,1,1867.0,0
312,312,0.03422611980741419,0.0,0.0,0.0,258.0,513.0,0.0,1,2229.0,1
313,313,-0.8221563965399479,-0.8,0.0,1.0,485.0,674.0,0.0,1,1841.0,0
314,314,-0.7302377814643213,-0.7,1.0,0.0,330.0,758.0,0.0,0,1912.0,1
315,315,-0.5090874236357998,-0.5,0.0,1.0,447.0,799.0,0.0,1,1754.0,0
316,316,-0.3282211945432221,-0.3,1.0,0.0,476.0,920.0,0.0,0,-1226.0,1
317,317,-0.5995304495513687,-0.6,0.0,1.0,498.0,521.0,0.0,1,1981.0,0
318,318,0.007728038060175635,0.0,1.0,1.0,366.0,954.0,0.0,0,1680.0,0
319,319,0.4245909438147316,0.4,0.0,0.0,424.0,565.0,0.0,1,2011.0,1
320,320,0.8532607002165972,0.9,1.0,1.0,466.0,895.0,0.0,0,1639.0,0
321,321,0.5034872189225953,0.5,0.0,0.0,478.0,660.0,0.0,1,1862.0,1
322,322,0.7402307855813653,0.7,0.0,0.0,395.0,649.0,0.0,1,1956.0,1
323,323,-0.43481106666562885,-0.4,0.0,1.0,280.0,831.0,0.0,1,1889.0,0
324,324,0.41789585832551,0.4,0.0,0.0,250.0,798.0,0.0,1,1952.0,1
325,325,0.22635414957888778,0.2,1.0,1.0,366.0,648.0,1.0,1,-824.0,1
326,326,-0.673343875754307,-0.7,1.0,0.0,425.0,586.0,0.0,0,1989.0,1
327,327,-0.22703800957819542,-0.2,1.0,0.0,466.0,616.0,0.0,0,-942.0,1
328,328,0.7814930996909001,0.8,1.0,1.0,290.0,534.0,0.0,0,2176.0,0
329,329,-0.8951247936241942,-0.9,0.0,1.0,363.0,857.0,0.0,1,1780.0,0
330,330,-0.24624025758677237,-0.2,1.0,0.0,402.0,586.0,0.0,0,2012.0,1
331,331,0.3629470949223853,0.4,0.0,0.0,269.0,958.0,1.0,0,-1017.0,0
332,332,0.39407100441116005,0.4,1.0,1.0,289.0,520.0,0.0,0,2191.0,0
333,333,-0.5393455711102706,-0.5,0.0,1.0,372.0,984.0,0.0,1,1644.0,0
334,334,0.4405856342696898,0.4,0.0,0.0,352.0,817.0,0.0,1,-1129.0,1
335,335,-0.002789603257837725,-0.0,1.0,0.0,307.0,930.0,1.0,1,-927.0,0
336,336,-0.5488055320707685,-0.5,1.0,0.0,388.0,604.0,0.0,0,2008.0,1
337,337,-0.063368556242416,-0.1,1.0,0.0,499.0,980.0,0.0,0,1521.0,1
338,338,0.44847701428305997,0.4,0.0,0.0,392.0,611.0,0.0,1,1997.0,1
339,339,-0.7420751251261364,-0.7,0.0,1.0,457.0,861.0,0.0,1,-1308.0,0
340,340,0.3496128780861564,0.3,1.0,1.0,348.0,904.0,0.0,0,1748.0,0
341,341,-0.29722558457039583,-0.3,1.0,0.0,294.0,576.0,0.0,0,-840.0,1
342,342,-0.6701147570671375,-0.7,1.0,0.0,294.0,883.0,0.0,0,1823.0,1
343,343,-0.3118806759915276,-0.3,1.0,0.0,467.0,559.0,0.0,0,1974.0,1
344,344,-0.2720121517712838,-0.3,0.0,1.0,284.0,965.0,0.0,1,1751.0,0
345,345,-0.03325558363955616,-0.0,1.0,0.0,296.0,786.0,1.0,1,-892.0,0
346,346,-0.864973711006151,-0.9,1.0,0.0,316.0,621.0,0.0,0,-877.0,1
347,347,-0.1733976214332026,-0.2,0.0,1.0,253.0,560.0,0.0,1,2187.0,0
348,348,0.07728827990023635,0.1,1.0,1.0,300.0,698.0,0.0,0,2002.0,0
349,349,-0.16927688767734483,-0.2,0.0,1.0,385.0,825.0,0.0,1,1790.0,0
350,350,-0.8114496727193639,-0.8,1.0,0.0,433.0,713.0,0.0,0,1854.0,1
351,351,-0.5763140940475704,-0.6,0.0,1.0,274.0,722.0,1.0,0,-776.0,1
352,352,0.49366806196556967,0.5,0.0,0.0,490.0,905.0,0.0,1,1605.0,1
353,353,0.23151566168491244,0.2,0.0,0.0,490.0,607.0,0.0,1,1903.0,1
354,354,-0.262560899989304,-0.3,1.0,0.0,389.0,690.0,0.0,0,1921.0,1
355,355,-0.8903172704753175,-0.9,1.0,0.0,493.0,540.0,0.0,0,1967.0,1
356,356,-0.03279609511935999,-0.0,0.0,1.0,349.0,961.0,0.0,1,1690.0,0
357,357,-0.8385779003621365,-0.8,1.0,0.0,430.0,803.0,0.0,0,1767.0,1
358,358,-0.49089965856932966,-0.5,1.0,0.0,347.0,695.0,0.0,0,1958.0,1
359,359,-0.07446849634280506,-0.1,0.0,1.0,385.0,598.0,0.0,1,2017.0,0
360,360,0.39797527301584845,0.4,1.0,1.0,406.0,943.0,0.0,0,1651.0,0
361,361,-0.3505894141007073,-0.4,0.0,1.0,483.0,968.0,0.0,1,1549.0,0
362,362,0.44162421253735473,0.4,1.0,1.0,451.0,682.0,0.0,0,1867.0,0
363,363,0.6495819674703839,0.6,1.0,1.0,365.0,911.0,0.0,0,1724.0,0
364,364,-0.05897855025364551,-0.1,0.0,1.0,302.0,754.0,0.0,1,1944.0,0
365,365,0.39578915017974425,0.4,1.0,1.0,251.0,692.0,0.0,0,2057.0,0
366,366,0.6960617178284573,0.7,1.0,1.0,299.0,673.0,0.0,0,-932.0,0
367,367,-0.5235267747274099,-0.5,0.0,1.0,444.0,885.0,0.0,1,1671.0,0
368,368,-0.20293462054951905,-0.2,1.0,0.0,323.0,582.0,0.0,0,2095.0,1
369,369,-0.783601426807292,-0.8,1.0,0.0,389.0,848.0,0.0,0,1763.0,1
370,370,-0.3919231209607522,-0.4,1.0,0.0,343.0,799.0,0.0,0,1858.0,1
371,371,0.38970308006855514,0.4,1.0,1.0,430.0,626.0,0.0,0,1944.0,0
372,372,0.6292366327165276,0.6,1.0,1.0,483.0,842.0,0.0,0,1675.0,0
373,373,-0.5621117840262355,-0.6,1.0,0.0,396.0,881.0,0.0,0,1723.0,1
374,374,-0.49550529028008594,-0.5,1.0,0.0,408.0,582.0,0.0,0,2010.0,1
375,375,-0.45921864730708256,-0.5,1.0,0.0,293.0,759.0,0.0,0,1948.0,1
376,376,-0.08632846875957179,-0.1,0.0,1.0,319.0,668.0,0.0,1,2013.0,0
377,377,0.13184253256014744,0.1,1.0,1.0,480.0,519.0,0.0,0,2001.0,0
378,378,-0.6628142180026866,-0.7,1.0,0.0,328.0,845.0,0.0,0,1827.0,1
379,379,0.3884924127413102,0.4,1.0,1.0,347.0,505.0,0.0,0,2148.0,0
380,380,-0.6041673844542339,-0.6,1.0,0.0,338.0,606.0,0.0,0,2056.0,1
381,381,0.47368911422002846,0.5,1.0,1.0,314.0,978.0,0.0,0,1708.0,0
382,382,0.11775890948043244,0.1,0.0,0.0,460.0,690.0,0.0,1,1850.0,1
383,383,-0.6408946471563064,-0.6,0.0,1.0,387.0,897.0,0.0,1,1716.0,0
384,384,-0.43884510725588627,-0.4,1.0,0.0,306.0,768.0,0.0,0,1926.0,1
385,385,0.4650047923155808,0.5,1.0,1.0,332.0,713.0,0.0,0,1955.0,0
386,386,0.23721532347405494,0.2,1.0,1.0,420.0,735.0,0.0,0,1845.0,0
387,387,-0.6791241386701636,-0.7,1.0,0.0,380.0,884.0,1.0,1,-1094.0,0
388,388,0.7474590338367634,0.7,1.0,1.0,293.0,569.0,0.0,0,2138.0,0
389,389,0.4261357470957935,0.4,1.0,1.0,485.0,736.0,1.0,1,-1111.0,1
390,390,0.3280588915361401,0.3,1.0,1.0,398.0,520.0,0.0,0,2082.0,0
391,391,0.7224967460042407,0.7,0.0,0.0,447.0,897.0,0.0,1,1656.0,1
392,392,0.28772158810219184,0.3,0.0,0.0,271.0,764.0,0.0,1,1965.0,1
393,393,0.09406191895841565,0.1,1.0,1.0,382.0,978.0,0.0,0,1640.0,0
394,394,-0.5209428441863617,-0.5,0.0,1.0,465.0,920.0,0.0,1,1615.0,0
395,395,-0.35370609770737704,-0.4,0.0,1.0,381.0,600.0,0.0,1,2019.0,0
396,396,0.5644427645245821,0.6,0.0,0.0,375.0,547.0,0.0,1,2078.0,1
397,397,0.8843942514865611,0.9,0.0,0.0,352.0,655.0,0.0,1,1993.0,1
398,398,0.48434030543692186,0.5,0.0,0.0,378.0,938.0,0.0,1,1684.0,1
399,399,0.4739128245191434,0.5,1.0,1.0,476.0,816.0,0.0,0,1708.0,0
400,400,-0.14777687908750847,-0.1,0.0,1.0,287.0,664.0,0.0,1,2049.0,0
401,401,-0.5928975514443784,-0.6,1.0,0.0,356.0,790.0,0.0,0,-1136.0,1
402,402,-0.8128703363355047,-0.8,0.0,1.0,295.0,616.0,0.0,1,2089.0,0
403,403,0.16113088719419533,0.2,1.0,1.0,378.0,837.0,0.0,0,1785.0,0
404,404,0.7017091883881709,0.7,0.0,0.0,416.0,791.0,0.0,1,1793.0,1
405,405,0.1745644577696147,0.2,1.0,1.0,375.0,736.0,0.0,0,1889.0,0
406,406,0.3723227696290118,0.4,1.0,1.0,381.0,614.0,0.0,0,2005.0,0
407,407,-0.7768569553140068,-0.8,1.0,0.0,444.0,644.0,0.0,0,1912.0,1
408,408,0.2867071012379748,0.3,0.0,0.0,265.0,700.0,0.0,1,2035.0,1
409,409,0.30326470068962197,0.3,1.0,1.0,477.0,832.0,0.0,0,1691.0,0
410,410,0.780062173244162,0.8,0.0,0.0,482.0,671.0,0.0,1,1847.0,1
411,411,-0.8165227237409839,-0.8,0.0,1.0,301.0,800.0,1.0,0,-1081.0,1
412,412,-0.4343933682830489,-0.4,1.0,0.0,382.0,866.0,0.0,0,1752.0,1
413,413,-0.5757464862168864,-0.6,0.0,1.0,335.0,977.0,0.0,1,1688.0,0
414,414,-0.6280630095692181,-0.6,1.0,0.0,294.0,784.0,0.0,0,-1028.0,1
415,415,0.4832327784746683,0.5,1.0,1.0,491.0,940.0,0.0,0,1569.0,0
416,416,0.7062592197719405,0.7,1.0,1.0,294.0,797.0,0.0,0,1909.0,0
417,417,-0.14267955292247902,-0.1,1.0,0.0,332.0,507.0,0.0,0,2161.0,1
418,418,0.21098011365201452,0.2,0.0,0.0,322.0,565.0,0.0,1,2113.0,1
419,419,0.44235178780655315,0.4,1.0,1.0,381.0,502.0,0.0,0,2117.0,0
420,420,-0.42936148926747064,-0.4,1.0,0.0,296.0,687.0,0.0,0,2017.0,1
421,421,0.48981535473750293,0.5,0.0,0.0,436.0,835.0,0.0,1,1729.0,1
422,422,-0.3503398397449343,-0.4,0.0,1.0,292.0,768.0,1.0,0,-1020.0,1
423,423,-0.6107762056111268,-0.6,0.0,1.0,342.0,632.0,0.0,1,2026.0,0
424,424,-0.15481816304342577,-0.2,1.0,0.0,459.0,865.0,0.0,0,1676.0,1
425,425,0.8648508856355864,0.9,1.0,1.0,399.0,632.0,1.0,1,-801.0,1
426,426,-0.15514017095593102,-0.2,0.0,1.0,328.0,538.0,0.0,1,2134.0,0
427,427,-0.10021549085487602,-0.1,0.0,1.0,388.0,981.0,0.0,1,1631.0,0
428,428,-0.309934256194636,-0.3,0.0,1.0,256.0,970.0,0.0,1,1774.0,0
429,429,0.2498872696805895,0.2,1.0,1.0,427.0,821.0,0.0,0,1752.0,0
430,430,0.06807089614013695,0.1,0.0,0.0,417.0,829.0,0.0,1,1754.0,1
431,431,0.4235029835827825,0.4,0.0,0.0,454.0,864.0,0.0,1,-1278.0,1
432,432,0.648944198966544,0.6,1.0,1.0,387.0,570.0,0.0,0,2043.0,0
433,433,0.0855861044836107,0.1,0.0,0.0,474.0,600.0,1.0,0,-1044.0,0
434,434,-0.2922930147995719,-0.3,0.0,1.0,336.0,791.0,0.0,1,-657.0,0
435,435,0.47478247610930013,0.5,0.0,0.0,296.0,572.0,0.0,1,2132.0,1
436,436,0.8490269888809984,0.8,0.0,0.0,329.0,934.0,0.0,1,1737.0,1
437,437,0.456512886069696,0.5,0.0,0.0,273.0,641.0,0.0,1,2086.0,1
438,438,0.29498152169284453,0.3,1.0,1.0,464.0,808.0,0.0,0,1728.0,0
439,439,-0.503837257837686,-0.5,0.0,1.0,455.0,641.0,0.0,1,1904.0,0
440,440,-0.6479612262608081,-0.6,0.0,1.0,445.0,818.0,0.0,1,1737.0,0
441,441,0.7296546073693936,0.7,0.0,0.0,298.0,995.0,0.0,1,1707.0,1
442,442,0.09116869188554777,0.1,0.0,0.0,466.0,709.0,0.0,1,-985.0,1
443,443,0.6444303093761014,0.6,1.0,1.0,420.0,616.0,0.0,0,1964.0,0
444,444,-0.2367211433133053,-0.2,1.0,0.0,286.0,533.0,0.0,0,2181.0,1
445,445,-0.10180163687742683,-0.1,0.0,1.0,317.0,772.0,0.0,1,1911.0,0
446,446,0.590981017720042,0.6,0.0,0.0,488.0,719.0,0.0,1,1793.0,1
447,447,0.45789284126857865,0.5,1.0,1.0,314.0,916.0,0.0,0,1770.0,0
448,448,0.34055083098382755,0.3,1.0,1.0,499.0,727.0,0.0,0,1774.0,0
449,449,0.21009843307992282,0.2,1.0,1.0,299.0,925.0,0.0,0,1776.0,0
450,450,0.5079382888009444,0.5,1.0,1.0,364.0,697.0,0.0,0,1939.0,0
451,451,0.07163535979414493,0.1,1.0,1.0,270.0,771.0,0.0,0,1959.0,0
452,452,0.3769566058374755,0.4,1.0,1.0,270.0,520.0,0.0,0,2210.0,0
453,453,-0.0741633793777724,-0.1,1.0,0.0,474.0,782.0,0.0,0,1744.0,1
454,454,0.6251594248708755,0.6,1.0,1.0,350.0,953.0,0.0,0,1697.0,0
455,455,-0.8913513670789681,-0.9,0.0,1.0,286.0,854.0,0.0,1,1860.0,0
456,456,0.10151624495140055,0.1,0.0,0.0,400.0,818.0,1.0,0,-1178.0,0
457,457,-0.46455939410145053,-0.5,1.0,0.0,334.0,768.0,0.0,0,1898.0,1
458,458,-0.7125770783135125,-0.7,1.0,0.0,483.0,586.0,0.0,0,1931.0,1
459,459,0.40599212798067785,0.4,1.0,1.0,450.0,621.0,0.0,0,1929.0,0
460,460,-0.7621583943391997,-0.8,1.0,0.0,303.0,538.0,0.0,0,2159.0,1
461,461,0.7805601877891589,0.8,0.0,0.0,368.0,881.0,0.0,1,1751.0,1
462,462,0.8574316177926776,0.9,1.0,1.0,463.0,520.0,0.0,0,-923.0,0
463,463,-0.7164698659050059,-0.7,1.0,0.0,341.0,943.0,0.0,0,1716.0,1
464,464,0.09449180183930184,0.1,1.0,1.0,470.0,507.0,0.0,0,-947.0,0
465,465,0.3051840606143089,0.3,0.0,0.0,353.0,537.0,0.0,1,2110.0,1
466,466,-0.870790285304196,-0.9,0.0,1.0,454.0,785.0,0.0,1,1761.0,0
467,467,0.4860371850262907,0.5,0.0,0.0,430.0,715.0,0.0,1,-915.0,1
468,468,-0.12929062684995662,-0.1,1.0,0.0,449.0,915.0,0.0,0,1636.0,1
469,469,-0.28072970157459176,-0.3,1.0,0.0,355.0,758.0,0.0,0,1887.0,1
470,470,0.670607099425579,0.7,1.0,1.0,264.0,671.0,0.0,0,2065.0,0
471,471,0.7610989038609935,0.8,1.0,1.0,390.0,544.0,0.0,0,2066.0,0
472,472,0.8423550108857497,0.8,0.0,0.0,398.0,734.0,0.0,1,1868.0,1
473,473,0.07564163218261355,0.1,0.0,0.0,264.0,826.0,0.0,1,-990.0,1
474,474,-0.10586069757425498,-0.1,1.0,0.0,255.0,947.0,0.0,0,1798.0,1
475,475,0.17228249599211243,0.2,0.0,0.0,297.0,732.0,0.0,1,1971.0,1
476,476,0.24754690811056068,0.2,0.0,0.0,324.0,620.0,0.0,1,2056.0,1
477,477,-0.24365951431502908,-0.2,0.0,1.0,320.0,539.0,0.0,1,2141.0,0
478,478,0.7071358950947154,0.7,1.0,1.0,460.0,941.0,0.0,0,1599.0,0
479,479,-0.05166903832770753,-0.1,0.0,1.0,449.0,874.0,0.0,1,1677.0,0
480,480,-0.7341755062983708,-0.7,1.0,0.0,394.0,738.0,0.0,0,1868.0,1
481,481,-0.4182427699660491,-0.4,1.0,0.0,390.0,632.0,0.0,0,-872.0,1
482,482,-0.09290389532706622,-0.1,1.0,0.0,310.0,933.0,0.0,0,1757.0,1
483,483,0.8393023104557967,0.8,1.0,1.0,352.0,914.0,0.0,0,1734.0,0
484,484,-0.24984717784577282,-0.2,1.0,0.0,487.0,730.0,0.0,0,1783.0,1
485,485,-0.8594189797099977,-0.9,0.0,1.0,258.0,681.0,1.0,0,-689.0,1
486,486,-0.3705258791527055,-0.4,1.0,0.0,436.0,503.0,0.0,0,-919.0,1
487,487,-0.14884283625156447,-0.1,0.0,1.0,356.0,567.0,0.0,1,2077.0,0
488,488,0.26274775441779863,0.3,1.0,1.0,358.0,564.0,0.0,0,2078.0,0
489,489,0.7505493952927472,0.8,0.0,0.0,433.0,837.0,0.0,1,1730.0,1
490,490,-0.6201729011059525,-0.6,1.0,0.0,435.0,812.0,0.0,0,1753.0,1
491,491,0.5527184866338964,0.6,1.0,1.0,484.0,847.0,0.0,0,1669.0,0
492,492,0.438220299319945,0.4,0.0,0.0,267.0,858.0,0.0,1,1875.0,1
493,493,0.5424791356206361,0.5,1.0,1.0,359.0,684.0,0.0,0,1957.0,0
494,494,-0.8832901643992986,-0.9,0.0,1.0,265.0,676.0,0.0,1,2059.0,0
495,495,0.7831532170890653,0.8,1.0,1.0,449.0,896.0,1.0,1,-1225.0,1
496,496,-0.5439383339929792,-0.5,1.0,0.0,483.0,936.0,1.0,1,-1359.0,0
497,497,-0.02800882806610072,-0.0,0.0,1.0,330.0,842.0,0.0,1,1828.0,0
498,498,0.7688409047420436,0.8,1.0,1.0,469.0,792.0,0.0,0,1739.0,0
499,499,-0.822648468459464,-0.8,0.0,1.0,427.0,557.0,0.0,1,2016.0,0
500,500,-0.6559941057740462,-0.7,0.0,1.0,324.0,973.0,0.0,1,1703.0,0
501,501,-0.3211848042327372,-0.3,1.0,0.0,468.0,698.0,0.0,0,-1116.0,1
502,502,0.5333631851495088,0.5,0.0,0.0,422.0,995.0,0.0,1,1583.0,1
503,503,-0.8559406096885336,-0.9,0.0,1.0,410.0,944.0,0.0,1,1646.0,0
504,504,-0.4074524794471828,-0.4,0.0,1.0,480.0,622.0,0.0,1,1898.0,0
505,505,0.20035003860484413,0.2,0.0,0.0,320.0,509.0,0.0,1,2171.0,1
506,506,-0.6471008008239316,-0.6,1.0,0.0,384.0,921.0,0.0,0,1695.0,1
507,507,-0.13292439739615813,-0.1,0.0,1.0,423.0,601.0,0.0,1,1976.0,0
508,508,0.6613228461619515,0.7,1.0,1.0,351.0,546.0,0.0,0,2103.0,0
509,509,0.36049924764475494,0.4,0.0,0.0,400.0,587.0,0.0,1,2013.0,1
510,510,0.5697647357823251,0.6,1.0,1.0,328.0,598.0,0.0,0,2074.0,0
511,511,-0.5125128804172818,-0.5,1.0,0.0,377.0,845.0,1.0,1,-1012.0,0
512,512,-0.6137501567454793,-0.6,1.0,0.0,459.0,513.0,0.0,0,2028.0,1
513,513,-0.4784229508037793,-0.5,1.0,0.0,346.0,797.0,0.0,0,1857.0,1
514,514,-0.5634960318888724,-0.6,0.0,1.0,299.0,730.0,0.0,1,1971.0,0
515,515,0.8837521023366958,0.9,0.0,0.0,398.0,563.0,0.0,1,2039.0,1
516,516,-0.752510301946048,-0.8,1.0,0.0,407.0,775.0,0.0,0,1818.0,1
517,517,-0.4915484473184069,-0.5,1.0,0.0,362.0,928.0,0.0,0,1710.0,1
518,518,0.25884339130412115,0.3,0.0,0.0,472.0,964.0,0.0,1,1564.0,1
519,519,0.41648125473844744,0.4,1.0,1.0,342.0,814.0,0.0,0,-1036.0,0
520,520,0.3985826096173194,0.4,0.0,0.0,431.0,733.0,0.0,1,1836.0,1
521,521,-0.34469358326833743,-0.3,0.0,1.0,334.0,512.0,0.0,1,2154.0,0
522,522,-0.6460412968699404,-0.6,0.0,1.0,446.0,550.0,0.0,1,2004.0,0
523,523,0.46988951414741564,0.5,0.0,0.0,395.0,820.0,0.0,1,1785.0,1
524,524,0.2696705287815534,0.3,1.0,1.0,300.0,508.0,0.0,0,2192.0,0
525,525,0.6997521221591779,0.7,0.0,0.0,335.0,896.0,0.0,1,1769.0,1
526,526,-0.4002903358378666,-0.4,1.0,0.0,313.0,777.0,0.0,0,-1060.0,1
527,527,-0.8052126414491764,-0.8,0.0,1.0,447.0,553.0,0.0,1,2000.0,0
528,528,0.259948983270503,0.3,0.0,0.0,423.0,772.0,0.0,1,1805.0,1
529,529,-0.6739963096819954,-0.7,1.0,0.0,378.0,849.0,0.0,0,1773.0,1
530,530,0.6118790033056968,0.6,1.0,1.0,490.0,699.0,1.0,1,-1129.0,1
531,531,0.12901087051163052,0.1,0.0,0.0,426.0,622.0,0.0,1,1952.0,1
532,532,0.11350926085002222,0.1,0.0,0.0,381.0,553.0,0.0,1,2066.0,1
533,533,-0.49814668702527515,-0.5,1.0,0.0,345.0,668.0,0.0,0,1987.0,1
534,534,0.4719638395179001,0.5,1.0,1.0,442.0,946.0,0.0,0,1612.0,0
535,535,0.421623250968873,0.4,0.0,0.0,327.0,945.0,0.0,1,1728.0,1
536,536,0.24268016155554306,0.2,0.0,0.0,487.0,997.0,0.0,1,1516.0,1
537,537,-0.6572452723233898,-0.7,0.0,1.0,355.0,928.0,0.0,1,1717.0,0
538,538,-0.004801070900184556,-0.0,1.0,0.0,441.0,793.0,1.0,1,-954.0,0
539,539,-0.22501636163119987,-0.2,0.0,1.0,422.0,897.0,0.0,1,1681.0,0
540,540,-0.6328569700403159,-0.6,0.0,1.0,250.0,780.0,0.0,1,1970.0,0
541,541,-0.31405399471205475,-0.3,0.0,1.0,468.0,871.0,0.0,1,1661.0,0
542,542,-0.43614262795460446,-0.4,1.0,0.0,330.0,645.0,0.0,0,2025.0,1
543,543,0.46454386415892224,0.5,0.0,0.0,489.0,760.0,0.0,1,1751.0,1
544,544,-0.02151514299841617,-0.0,1.0,0.0,378.0,629.0,0.0,0,1993.0,1
545,545,-0.337060738560652,-0.3,1.0,0.0,340.0,857.0,0.0,0,1803.0,1
546,546,-0.5095123033593303,-0.5,0.0,1.0,487.0,767.0,0.0,1,1746.0,0
547,547,0.23528582119486663,0.2,0.0,0.0,410.0,736.0,0.0,1,1854.0,1
548,548,-0.7589785539129595,-0.8,0.0,1.0,335.0,825.0,0.0,1,1840.0,0
549,549,0.4595651587649904,0.5,1.0,1.0,276.0,797.0,0.0,0,1927.0,0
550,550,-0.5511190076204486,-0.6,0.0,1.0,263.0,627.0,0.0,1,2110.0,0
551,551,-0.5162919503876267,-0.5,1.0,0.0,439.0,503.0,0.0,0,2058.0,1
552,552,-0.024986939506717487,-0.0,1.0,0.0,374.0,984.0,0.0,0,1642.0,1
553,553,0.393346009321902,0.4,0.0,0.0,425.0,635.0,0.0,1,1940.0,1
554,554,0.5669962742894642,0.6,0.0,0.0,266.0,588.0,0.0,1,2146.0,1
555,555,0.4332174054663601,0.4,1.0,1.0,371.0,638.0,0.0,0,1991.0,0
556,556,-0.22545763451408685,-0.2,0.0,1.0,308.0,680.0,0.0,1,2012.0,0
557,557,-0.28130250581605276,-0.3,0.0,1.0,375.0,969.0,0.0,1,1656.0,0
558,558,-0.018331635038827954,-0.0,0.0,1.0,392.0,982.0,0.0,1,1626.0,0
559,559,-0.31729228576083646,-0.3,1.0,0.0,281.0,787.0,0.0,0,1932.0,1
560,560,0.38303545490776936,0.4,0.0,0.0,307.0,959.0,1.0,0,-1116.0,0
561,561,0.5095112939915846,0.5,1.0,1.0,404.0,564.0,0.0,0,2032.0,0
562,562,-0.053967734066679096,-0.1,1.0,0.0,456.0,979.0,0.0,0,1565.0,1
563,563,0.3548030444902771,0.4,1.0,1.0,473.0,618.0,0.0,0,1909.0,0
564,564,-0.10739049507123255,-0.1,0.0,1.0,277.0,759.0,0.0,1,1964.0,0
565,565,-0.459326459458009,-0.5,0.0,1.0,382.0,870.0,0.0,1,-1192.0,0
566,566,0.8298513379804172,0.8,0.0,0.0,309.0,718.0,0.0,1,1973.0,1
567,567,-0.6942251933701128,-0.7,0.0,1.0,301.0,631.0,0.0,1,2068.0,0
568,568,0.40167589817180194,0.4,0.0,0.0,485.0,700.0,0.0,1,1815.0,1
569,569,0.5104652745085935,0.5,1.0,1.0,485.0,792.0,0.0,0,1723.0,0
570,570,0.24324867982344023,0.2,1.0,1.0,314.0,798.0,1.0,1,-992.0,1
571,571,0.340244893142689,0.3,1.0,1.0,411.0,948.0,0.0,0,1641.0,0
572,572,0.7323148014696336,0.7,0.0,0.0,464.0,594.0,1.0,0,-998.0,0
573,573,-0.2880852188461608,-0.3,0.0,1.0,257.0,836.0,0.0,1,1907.0,0
574,574,-0.6476369077580701,-0.6,0.0,1.0,493.0,708.0,0.0,1,1799.0,0
575,575,-0.8794787605208729,-0.9,0.0,1.0,310.0,749.0,0.0,1,1941.0,0
576,576,0.34860848520821797,0.3,0.0,0.0,471.0,865.0,0.0,1,1664.0,1
577,577,-0.30275719192265693,-0.3,0.0,1.0,471.0,518.0,0.0,1,2011.0,0
578,578,0.2896017397791034,0.3,0.0,0.0,290.0,868.0,0.0,1,1842.0,1
579,579,0.2915336594694994,0.3,1.0,1.0,418.0,813.0,0.0,0,1769.0,0
580,580,-0.4211262381172362,-0.4,1.0,0.0,399.0,742.0,0.0,0,1859.0,1
581,581,-0.7108773621435391,-0.7,0.0,1.0,358.0,734.0,0.0,1,1908.0,0
582,582,0.4192503072875161,0.4,0.0,0.0,446.0,763.0,0.0,1,1791.0,1
583,583,0.783935242452393,0.8,0.0,0.0,488.0,873.0,1.0,0,-811.0,0
584,584,-0.23752359010379254,-0.2,1.0,0.0,341.0,843.0,0.0,0,1816.0,1
585,585,-0.851777388665171,-0.9,1.0,0.0,339.0,912.0,0.0,0,1749.0,1
586,586,0.48220133316656144,0.5,0.0,0.0,268.0,519.0,0.0,1,2213.0,1
587,587,-0.12119525620748428,-0.1,1.0,0.0,371.0,940.0,1.0,1,-991.0,0
588,588,-0.1723203642391189,-0.2,1.0,0.0,268.0,787.0,0.0,0,1945.0,1
589,589,-0.24206116526688848,-0.2,0.0,1.0,360.0,871.0,0.0,1,1769.0,0
590,590,-0.12894046152405758,-0.1,1.0,0.0,463.0,852.0,0.0,0,1685.0,1
591,591,0.8611789896171277,0.9,1.0,1.0,430.0,673.0,0.0,0,1897.0,0
592,592,-0.6317157101778836,-0.6,1.0,0.0,314.0,661.0,0.0,0,2025.0,1
593,593,0.04144992827226757,0.0,1.0,1.0,259.0,748.0,0.0,0,-887.0,0
594,594,-0.648155599287138,-0.6,0.0,1.0,268.0,781.0,0.0,1,1951.0,0
595,595,0.6288396543759843,0.6,0.0,0.0,404.0,705.0,0.0,1,1891.0,1
596,596,0.13992431790325133,0.1,1.0,1.0,494.0,814.0,0.0,0,1692.0,0
597,597,-0.7760173025476799,-0.8,0.0,1.0,388.0,754.0,0.0,1,1858.0,0
598,598,0.5808060488976378,0.6,1.0,1.0,261.0,551.0,0.0,0,2188.0,0
599,599,-0.16822432979432955,-0.2,0.0,1.0,473.0,901.0,0.0,1,1626.0,0
600,600,0.27621230517760054,0.3,0.0,0.0,313.0,616.0,1.0,0,-899.0,0
601,601,0.8087991629527292,0.8,0.0,0.0,468.0,514.0,0.0,1,2018.0,1
602,602,0.712787886493801,0.7,1.0,1.0,435.0,683.0,0.0,0,1882.0,0
603,603,0.16786361550015172,0.2,0.0,0.0,340.0,522.0,0.0,1,2138.0,1
604,604,0.5265011552031892,0.5,0.0,0.0,414.0,643.0,0.0,1,1943.0,1
605,605,-0.6955941281358667,-0.7,0.0,1.0,409.0,874.0,0.0,1,1717.0,0
606,606,0.11366987818521312,0.1,0.0,0.0,493.0,807.0,0.0,1,1700.0,1
607,607,0.4664147345665691,0.5,0.0,0.0,422.0,512.0,1.0,0,-614.0,0
608,608,0.04344442793070613,0.0,0.0,0.0,415.0,941.0,0.0,1,1644.0,1
609,609,0.5429137521583668,0.5,0.0,0.0,350.0,805.0,0.0,1,1845.0,1
610,610,0.7594646797575592,0.8,0.0,0.0,444.0,679.0,0.0,1,1877.0,1
611,611,-0.2617587822011027,-0.3,0.0,1.0,378.0,819.0,0.0,1,1803.0,0
612,612,0.6382054629117174,0.6,0.0,0.0,282.0,943.0,0.0,1,1775.0,1
613,613,-0.3465647647285497,-0.3,1.0,0.0,395.0,558.0,0.0,0,2047.0,1
614,614,0.387881104290131,0.4,1.0,1.0,304.0,715.0,0.0,0,1981.0,0
615,615,0.7657905604143415,0.8,0.0,0.0,364.0,895.0,0.0,1,1741.0,1
616,616,0.441325463372943,0.4,1.0,1.0,401.0,713.0,0.0,0,1886.0,0
617,617,0.591837561803959,0.6,0.0,0.0,337.0,930.0,0.0,1,1733.0,1
618,618,-0.20104881079873693,-0.2,1.0,0.0,499.0,677.0,0.0,0,1824.0,1
619,619,-0.8015486738388596,-0.8,1.0,0.0,401.0,756.0,0.0,0,-1067.0,1
620,620,-0.04389890266438945,-0.0,0.0,1.0,327.0,630.0,0.0,1,2043.0,0
621,621,-0.655678912978713,-0.7,1.0,0.0,370.0,534.0,0.0,0,2096.0,1
622,622,0.18102809163207045,0.2,0.0,0.0,296.0,527.0,1.0,0,-713.0,0
623,623,-0.28812306949950817,-0.3,0.0,1.0,308.0,968.0,0.0,1,-1276.0,0
624,624,0.7365960437510172,0.7,1.0,1.0,385.0,825.0,0.0,0,1790.0,0
625,625,0.5164424672307887,0.5,0.0,0.0,488.0,796.0,0.0,1,1716.0,1
626,626,-0.3984933491176639,-0.4,1.0,0.0,475.0,936.0,0.0,0,1589.0,1
627,627,-0.83971346970637,-0.8,0.0,1.0,349.0,735.0,0.0,1,-994.0,0
628,628,0.8908694089598997,0.9,0.0,0.0,436.0,827.0,0.0,1,-1173.0,1
629,629,-0.12683830187145284,-0.1,0.0,1.0,361.0,675.0,0.0,1,1964.0,0
630,630,0.2513620390506385,0.3,1.0,1.0,370.0,689.0,0.0,0,1941.0,0
631,631,0.47700986643216103,0.5,1.0,1.0,297.0,806.0,0.0,0,1897.0,0
632,632,0.5645235120133606,0.6,1.0,1.0,342.0,837.0,0.0,0,1821.0,0
633,633,-0.19227375886689957,-0.2,0.0,1.0,371.0,729.0,0.0,1,1900.0,0
634,634,-0.6109702517440284,-0.6,0.0,1.0,464.0,716.0,0.0,1,1820.0,0
635,635,0.26333070319155205,0.3,0.0,0.0,453.0,890.0,0.0,1,1657.0,1
636,636,-0.2974603246433051,-0.3,1.0,0.0,365.0,633.0,0.0,0,2002.0,1
637,637,-0.14869250472723494,-0.1,1.0,0.0,250.0,663.0,1.0,1,-713.0,0
638,638,0.2526648466978195,0.3,0.0,0.0,324.0,996.0,0.0,1,1680.0,1
639,639,0.21283559942249186,0.2,1.0,1.0,464.0,772.0,0.0,0,1764.0,0
640,640,-0.11098442292920951,-0.1,1.0,0.0,485.0,964.0,0.0,0,1551.0,1
641,641,-0.6172975645511471,-0.6,1.0,0.0,338.0,720.0,0.0,0,1942.0,1
642,642,0.6422183129844915,0.6,1.0,1.0,391.0,606.0,0.0,0,2003.0,0
643,643,-0.6535053474603216,-0.7,0.0,1.0,410.0,676.0,0.0,1,1914.0,0
644,644,-0.321508225525053,-0.3,0.0,1.0,420.0,631.0,0.0,1,-761.0,0
645,645,-0.8573389815292112,-0.9,1.0,0.0,288.0,823.0,0.0,0,1889.0,1
646,646,0.1488319914804367,0.1,0.0,0.0,442.0,901.0,0.0,1,1657.0,1
647,647,-0.31642683022830376,-0.3,0.0,1.0,416.0,953.0,0.0,1,1631.0,0
648,648,0.645466165041991,0.6,1.0,1.0,322.0,504.0,0.0,0,2174.0,0
649,649,-0.7752270103517256,-0.8,1.0,0.0,405.0,845.0,0.0,0,1750.0,1
650,650,-0.2996277936317372,-0.3,1.0,0.0,323.0,768.0,0.0,0,1909.0,1
651,651,0.09089920662991358,0.1,0.0,0.0,372.0,821.0,0.0,1,1807.0,1
652,652,0.023784077172316676,0.0,1.0,1.0,485.0,974.0,0.0,0,1541.0,0
653,653,0.0875634206224758,0.1,1.0,1.0,264.0,590.0,0.0,0,2146.0,0
654,654,-0.045844220227442056,-0.0,1.0,0.0,416.0,916.0,0.0,0,1668.0,1
655,655,-0.7098731384924519,-0.7,0.0,1.0,387.0,711.0,0.0,1,-928.0,0
656,656,-0.6661279345053911,-0.7,1.0,0.0,422.0,555.0,0.0,0,2023.0,1
657,657,-0.05928319444614483,-0.1,0.0,1.0,281.0,620.0,0.0,1,2099.0,0
658,658,0.13408456398365398,0.1,0.0,0.0,305.0,697.0,0.0,1,1998.0,1
659,659,-0.35044224655896494,-0.4,1.0,0.0,268.0,741.0,0.0,0,1991.0,1
660,660,-0.23630198826324578,-0.2,0.0,1.0,432.0,803.0,0.0,1,1765.0,0
661,661,0.4207343889281362,0.4,1.0,1.0,295.0,843.0,0.0,0,1862.0,0
662,662,0.6098085388607454,0.6,1.0,1.0,429.0,529.0,0.0,0,2042.0,0
663,663,0.450712984685789,0.5,0.0,0.0,340.0,878.0,0.0,1,1782.0,1
664,664,0.8380566776340445,0.8,1.0,1.0,264.0,590.0,0.0,0,2146.0,0
665,665,0.547262097410253,0.5,1.0,1.0,354.0,992.0,0.0,0,1654.0,0
666,666,-0.24835242825320136,-0.2,0.0,1.0,338.0,804.0,0.0,1,1858.0,0
667,667,-0.5820034514107144,-0.6,0.0,1.0,420.0,699.0,0.0,1,1881.0,0
668,668,-0.628959203001858,-0.6,0.0,1.0,497.0,899.0,0.0,1,1604.0,0
669,669,-0.6430628640577827,-0.6,1.0,0.0,252.0,842.0,0.0,0,1906.0,1
670,670,-0.2773027240292023,-0.3,1.0,0.0,377.0,729.0,0.0,0,1894.0,1
671,671,-0.664665931600934,-0.7,1.0,0.0,437.0,800.0,0.0,0,1763.0,1
672,672,-0.5563853075730678,-0.6,1.0,0.0,280.0,755.0,0.0,0,1965.0,1
673,673,0.39544448569236323,0.4,0.0,0.0,455.0,549.0,1.0,0,-914.0,0
674,674,-0.2852157383454066,-0.3,0.0,1.0,318.0,849.0,0.0,1,-1077.0,0
675,675,-0.049580840227839595,-0.0,1.0,0.0,403.0,619.0,0.0,0,1978.0,1
676,676,0.8239249182336871,0.8,0.0,0.0,264.0,588.0,0.0,1,2148.0,1
677,677,-0.8359523783502856,-0.8,0.0,1.0,430.0,503.0,0.0,1,2067.0,0
678,678,-0.850169928642355,-0.9,0.0,1.0,381.0,669.0,0.0,1,1950.0,0
679,679,0.6966122472751038,0.7,0.0,0.0,290.0,632.0,0.0,1,2078.0,1
680,680,-0.5444756965856774,-0.5,0.0,1.0,289.0,573.0,0.0,1,2138.0,0
681,681,0.6666912065246583,0.7,1.0,1.0,349.0,741.0,1.0,1,-910.0,1
682,682,0.005375008848503615,0.0,0.0,0.0,421.0,931.0,0.0,1,1648.0,1
683,683,-0.3425844760753053,-0.3,1.0,0.0,427.0,752.0,0.0,0,1821.0,1
684,684,0.7718297711803693,0.8,0.0,0.0,377.0,512.0,0.0,1,2111.0,1
685,685,0.03491708958523376,0.0,0.0,0.0,390.0,936.0,0.0,1,1674.0,1
686,686,-0.0825865902145223,-0.1,1.0,0.0,280.0,553.0,1.0,1,-793.0,0
687,687,-0.10733403111189543,-0.1,0.0,1.0,322.0,915.0,0.0,1,1763.0,0
688,688,0.8236603375093338,0.8,1.0,1.0,409.0,987.0,0.0,0,1604.0,0
689,689,0.8962278761473982,0.9,1.0,1.0,476.0,557.0,0.0,0,1967.0,0
690,690,0.13086775056733468,0.1,0.0,0.0,353.0,830.0,0.0,1,1817.0,1
691,691,0.11137518401156632,0.1,0.0,0.0,391.0,981.0,0.0,1,-1362.0,1
692,692,-0.5038264775481154,-0.5,0.0,1.0,263.0,503.0,0.0,1,2234.0,0
693,693,0.7509735371545639,0.8,0.0,0.0,429.0,773.0,0.0,1,1798.0,1
694,694,-0.8963399012131628,-0.9,1.0,0.0,367.0,996.0,0.0,0,1637.0,1
695,695,-0.8147095144324802,-0.8,0.0,1.0,315.0,917.0,0.0,1,1768.0,0
696,696,-0.08978463354887967,-0.1,1.0,0.0,372.0,931.0,0.0,0,1697.0,1
697,697,0.46115253137940593,0.5,1.0,1.0,485.0,684.0,0.0,0,1831.0,0
698,698,-0.7230043445968254,-0.7,0.0,1.0,344.0,763.0,1.0,0,-917.0,1
699,699,0.04303907045235589,0.0,0.0,0.0,416.0,501.0,0.0,1,2083.0,1
700,700,-0.5146720327322665,-0.5,0.0,1.0,333.0,874.0,0.0,1,1793.0,0
701,701,0.6860158118049972,0.7,1.0,1.0,411.0,856.0,0.0,0,1733.0,0
702,702,-0.13199883103794952,-0.1,0.0,1.0,412.0,828.0,0.0,1,1760.0,0
703,703,0.5790738339096596,0.6,1.0,1.0,268.0,831.0,0.0,0,1901.0,0
704,704,0.7376538176154978,0.7,0.0,0.0,416.0,546.0,0.0,1,2038.0,1
705,705,-0.7239904667677722,-0.7,1.0,0.0,461.0,529.0,0.0,0,2010.0,1
706,706,-0.7146010968603722,-0.7,0.0,1.0,432.0,567.0,0.0,1,2001.0,0
707,707,0.30707061882037967,0.3,1.0,1.0,403.0,885.0,0.0,0,1712.0,0
708,708,-0.3077487600996798,-0.3,1.0,0.0,257.0,714.0,0.0,0,-901.0,1
709,709,-0.7239730950923471,-0.7,0.0,1.0,325.0,805.0,0.0,1,1870.0,0
710,710,0.09027039564456096,0.1,1.0,1.0,256.0,658.0,0.0,0,2086.0,0
711,711,-0.4828594272371749,-0.5,1.0,0.0,340.0,511.0,0.0,0,2149.0,1
712,712,0.7186542505418726,0.7,1.0,1.0,280.0,910.0,0.0,0,1810.0,0
713,713,0.13843261837551968,0.1,1.0,1.0,488.0,556.0,0.0,0,-954.0,0
714,714,0.8788230383332095,0.9,1.0,1.0,466.0,990.0,0.0,0,1544.0,0
715,715,-0.36048358373126077,-0.4,1.0,0.0,398.0,989.0,0.0,0,-1317.0,1
716,716,0.8217376404618623,0.8,0.0,0.0,316.0,909.0,0.0,1,1775.0,1
717,717,-0.7071003819219064,-0.7,1.0,0.0,477.0,950.0,0.0,0,1573.0,1
718,718,0.879402761340114,0.9,0.0,0.0,390.0,658.0,0.0,1,1952.0,1
719,719,-0.3808265625628947,-0.4,0.0,1.0,370.0,882.0,0.0,1,-1202.0,0
720,720,-0.7154593460123276,-0.7,1.0,0.0,250.0,749.0,0.0,0,2001.0,1
721,721,-0.5573391171140638,-0.6,0.0,1.0,466.0,772.0,0.0,1,1762.0,0
722,722,0.7924128827276132,0.8,0.0,0.0,464.0,525.0,0.0,1,2011.0,1
723,723,0.5653710626165186,0.6,1.0,1.0,396.0,781.0,0.0,0,1823.0,0
724,724,-0.12475693023130918,-0.1,1.0,0.0,373.0,660.0,0.0,0,1967.0,1
725,725,0.4799835526810242,0.5,1.0,1.0,455.0,962.0,0.0,0,1583.0,0
726,726,0.47042241864575807,0.5,0.0,0.0,327.0,836.0,0.0,1,1837.0,1
727,727,0.13337016534392399,0.1,1.0,1.0,256.0,909.0,0.0,0,-995.0,0
728,728,0.3158555933144519,0.3,1.0,1.0,251.0,509.0,0.0,0,2240.0,0
729,729,0.8032817626317054,0.8,0.0,0.0,327.0,905.0,0.0,1,-1142.0,1
730,730,-0.2472799704341777,-0.2,1.0,0.0,389.0,809.0,0.0,0,1802.0,1
731,731,-0.0044036087733652085,-0.0,1.0,0.0,369.0,696.0,0.0,0,1935.0,1
732,732,-0.055917675268602696,-0.1,1.0,0.0,489.0,537.0,0.0,0,1974.0,1
733,733,0.3480199430852774,0.3,0.0,0.0,276.0,973.0,0.0,1,1751.0,1
734,734,-0.8570666393564234,-0.9,0.0,1.0,407.0,506.0,0.0,1,2087.0,0
735,735,-0.6532759805938713,-0.7,1.0,0.0,448.0,910.0,0.0,0,1642.0,1
736,736,-0.40107601498389356,-0.4,0.0,1.0,267.0,506.0,0.0,1,2227.0,0
737,737,-0.6112182279060443,-0.6,0.0,1.0,328.0,648.0,0.0,1,2024.0,0
738,738,0.026161270706381634,0.0,1.0,1.0,470.0,754.0,0.0,0,1776.0,0
739,739,-0.4211669006068978,-0.4,0.0,1.0,251.0,640.0,1.0,0,-471.0,1
740,740,-0.22162093957886153,-0.2,1.0,0.0,476.0,822.0,0.0,0,-1268.0,1
741,741,-0.19653599189084758,-0.2,0.0,1.0,441.0,772.0,0.0,1,1787.0,0
742,742,-0.33997359367966884,-0.3,0.0,1.0,346.0,783.0,0.0,1,1871.0,0
743,743,0.3169890362356532,0.3,0.0,0.0,445.0,581.0,0.0,1,1974.0,1
744,744,-0.7711182732096018,-0.8,1.0,0.0,269.0,852.0,0.0,0,1879.0,1
745,745,0.23566987333517753,0.2,1.0,1.0,253.0,632.0,0.0,0,2115.0,0
746,746,-0.6183762720395818,-0.6,1.0,0.0,324.0,836.0,1.0,1,-990.0,0
747,747,-0.7637687041156368,-0.8,1.0,0.0,331.0,543.0,0.0,0,2126.0,1
748,748,-0.628091720271519,-0.6,0.0,1.0,286.0,904.0,0.0,1,1810.0,0
749,749,-0.8117666666590857,-0.8,0.0,1.0,400.0,675.0,0.0,1,1925.0,0
750,750,0.3144939229783211,0.3,1.0,1.0,391.0,891.0,0.0,0,1718.0,0
751,751,0.11524229510524286,0.1,1.0,1.0,264.0,916.0,0.0,0,1820.0,0
752,752,0.47315865329276463,0.5,1.0,1.0,313.0,780.0,0.0,0,1907.0,0
753,753,-0.5677421940302905,-0.6,0.0,1.0,273.0,947.0,0.0,1,1780.0,0
754,754,0.3525268371012765,0.4,1.0,1.0,399.0,658.0,0.0,0,1943.0,0
755,755,-0.8519201226168907,-0.9,0.0,1.0,425.0,889.0,0.0,1,1686.0,0
756,756,-0.8631621756043769,-0.9,0.0,1.0,309.0,652.0,0.0,1,2039.0,0
757,757,0.3988035862367959,0.4,0.0,0.0,315.0,532.0,0.0,1,-467.0,1
758,758,-0.5724293819595225,-0.6,0.0,1.0,446.0,796.0,0.0,1,1758.0,0
759,759,0.011528210733876332,0.0,0.0,0.0,389.0,934.0,0.0,1,1677.0,1
760,760,-0.6696516623099309,-0.7,1.0,0.0,448.0,835.0,0.0,0,1717.0,1
761,761,-0.8233973986774374,-0.8,0.0,1.0,408.0,991.0,0.0,1,1601.0,0
762,762,-0.5870198124321505,-0.6,0.0,1.0,317.0,664.0,0.0,1,2019.0,0
763,763,-0.29309085415895075,-0.3,0.0,1.0,359.0,972.0,0.0,1,1669.0,0
764,764,-0.7166173473385272,-0.7,1.0,0.0,290.0,717.0,0.0,0,1993.0,1
765,765,-0.167575456248791,-0.2,1.0,0.0,327.0,651.0,0.0,0,2022.0,1
766,766,-0.20901240800122922,-0.2,1.0,0.0,496.0,629.0,0.0,0,1875.0,1
767,767,-0.6051943813929248,-0.6,1.0,0.0,374.0,865.0,0.0,0,1761.0,1
768,768,-0.30214645749936864,-0.3,1.0,0.0,326.0,845.0,0.0,0,1829.0,1
769,769,-0.2063191815504316,-0.2,1.0,0.0,367.0,631.0,0.0,0,2002.0,1
770,770,0.43412011980907284,0.4,1.0,1.0,393.0,908.0,0.0,0,1699.0,0
771,771,-0.49121087226034993,-0.5,0.0,1.0,433.0,892.0,0.0,1,1675.0,0
772,772,-0.3651203668635602,-0.4,1.0,0.0,370.0,874.0,0.0,0,1756.0,1
773,773,-0.6099757403555068,-0.6,1.0,0.0,424.0,519.0,0.0,0,2057.0,1
774,774,0.7183258662929907,0.7,0.0,0.0,261.0,665.0,0.0,1,-816.0,1
775,775,-0.2949564444539228,-0.3,0.0,1.0,444.0,951.0,1.0,0,-1195.0,1
776,776,-0.6866026597619811,-0.7,1.0,0.0,405.0,679.0,0.0,0,1916.0,1
777,777,0.5437043191051222,0.5,1.0,1.0,308.0,671.0,0.0,0,2021.0,0
778,778,-0.565431729186727,-0.6,1.0,0.0,445.0,762.0,0.0,0,1793.0,1
779,779,-0.6792720785578079,-0.7,0.0,1.0,265.0,526.0,1.0,0,-711.0,1
780,780,-0.031043033938392584,-0.0,0.0,1.0,318.0,944.0,0.0,1,1738.0,0
781,781,0.20190013823544628,0.2,0.0,0.0,342.0,656.0,0.0,1,2002.0,1
782,782,0.7949940044991818,0.8,1.0,1.0,323.0,894.0,0.0,0,1783.0,0
783,783,0.26588652904988674,0.3,0.0,0.0,438.0,914.0,0.0,1,1648.0,1
784,784,-0.7729975238003143,-0.8,0.0,1.0,409.0,755.0,0.0,1,1836.0,0
785,785,0.18011085558910434,0.2,0.0,0.0,465.0,855.0,0.0,1,1680.0,1
786,786,0.23939163790014228,0.2,0.0,0.0,285.0,996.0,1.0,0,-1201.0,0
787,787,-0.40716122610427363,-0.4,0.0,1.0,455.0,872.0,0.0,1,1673.0,0
788,788,-0.31169805671588746,-0.3,0.0,1.0,483.0,926.0,0.0,1,1591.0,0
789,789,0.8888851979885569,0.9,0.0,0.0,405.0,736.0,0.0,1,1859.0,1
790,790,0.2719523831897982,0.3,0.0,0.0,367.0,529.0,0.0,1,2104.0,1
791,791,0.11309417224850449,0.1,0.0,0.0,328.0,798.0,0.0,1,1874.0,1
792,792,0.26895995596125133,0.3,1.0,1.0,476.0,751.0,0.0,0,1773.0,0
793,793,0.7361198646766342,0.7,1.0,1.0,497.0,773.0,1.0,1,-1080.0,1
794,794,-0.8029864067026579,-0.8,1.0,0.0,437.0,977.0,0.0,0,1586.0,1
795,795,0.8868524944416879,0.9,1.0,1.0,256.0,896.0,0.0,0,-782.0,0
796,796,-0.022473229061063305,-0.0,0.0,1.0,474.0,713.0,0.0,1,1813.0,0
797,797,-0.6981703793968432,-0.7,1.0,0.0,371.0,863.0,0.0,0,1766.0,1
798,798,-0.4295054598013828,-0.4,0.0,1.0,392.0,711.0,0.0,1,1897.0,0
799,799,0.6192055077425919,0.6,0.0,0.0,447.0,502.0,0.0,1,2051.0,1
800,800,0.5649637246973406,0.6,0.0,0.0,273.0,787.0,0.0,1,1940.0,1
801,801,-0.003251953562753651,-0.0,0.0,1.0,476.0,967.0,0.0,1,1557.0,0
802,802,0.7039155570801349,0.7,1.0,1.0,381.0,746.0,0.0,0,1873.0,0
803,803,0.6743128227586271,0.7,1.0,1.0,459.0,673.0,0.0,0,1868.0,0
804,804,-0.3047228704211806,-0.3,0.0,1.0,295.0,797.0,0.0,1,1908.0,0
805,805,0.49163422184421124,0.5,1.0,1.0,480.0,807.0,0.0,0,1713.0,0
806,806,-0.46594297964365855,-0.5,0.0,1.0,465.0,584.0,0.0,1,1951.0,0
807,807,0.2778324976939234,0.3,1.0,1.0,433.0,661.0,0.0,0,1906.0,0
808,808,-0.36549109721620976,-0.4,1.0,0.0,455.0,651.0,0.0,0,1894.0,1
809,809,-0.6967644228670065,-0.7,0.0,1.0,356.0,891.0,0.0,1,1753.0,0
810,810,0.6983050980441855,0.7,0.0,0.0,467.0,567.0,0.0,1,1966.0,1
811,811,-0.5765278200055879,-0.6,1.0,0.0,494.0,921.0,0.0,0,1585.0,1
812,812,-0.8376242992726404,-0.8,1.0,0.0,425.0,510.0,0.0,0,2065.0,1
813,813,-0.533466392054559,-0.5,0.0,1.0,311.0,604.0,0.0,1,-735.0,0
814,814,-0.7318974563249473,-0.7,0.0,1.0,341.0,613.0,0.0,1,2046.0,0
815,815,-0.1006130524243597,-0.1,1.0,0.0,345.0,799.0,0.0,0,1856.0,1
816,816,0.6037150631176295,0.6,1.0,1.0,293.0,604.0,0.0,0,2103.0,0
817,817,-0.5170872898325412,-0.5,0.0,1.0,314.0,623.0,0.0,1,2063.0,0
818,818,0.13619154990352944,0.1,1.0,1.0,431.0,745.0,0.0,0,1824.0,0
819,819,-0.495412496331311,-0.5,0.0,1.0,300.0,965.0,0.0,1,1735.0,0
820,820,0.841105083491095,0.8,0.0,0.0,363.0,632.0,0.0,1,2005.0,1
821,821,-0.8095258776197879,-0.8,1.0,0.0,287.0,690.0,0.0,0,2023.0,1
822,822,-0.7802618164804126,-0.8,0.0,1.0,361.0,580.0,0.0,1,2059.0,0
823,823,0.3182497111740402,0.3,0.0,0.0,410.0,623.0,0.0,1,1967.0,1
824,824,0.10944897948090693,0.1,1.0,1.0,476.0,923.0,0.0,0,1601.0,0
825,825,0.21104043081660862,0.2,1.0,1.0,402.0,966.0,0.0,0,1632.0,0
826,826,-0.29037416404401895,-0.3,0.0,1.0,349.0,501.0,0.0,1,2150.0,0
827,827,0.8572964850038468,0.9,1.0,1.0,292.0,648.0,0.0,0,2060.0,0
828,828,-0.4891098789712658,-0.5,0.0,1.0,371.0,798.0,0.0,1,1831.0,0
829,829,0.4114172530316188,0.4,0.0,0.0,286.0,715.0,0.0,1,1999.0,1
830,830,-0.4327681311769561,-0.4,1.0,0.0,446.0,792.0,0.0,0,1762.0,1
831,831,0.37255943605051456,0.4,1.0,1.0,318.0,900.0,0.0,0,1782.0,0
832,832,-0.3070031510289368,-0.3,1.0,0.0,259.0,976.0,0.0,0,1765.0,1
833,833,-0.6023253118291007,-0.6,0.0,1.0,308.0,721.0,0.0,1,1971.0,0
834,834,0.8692719424520959,0.9,1.0,1.0,499.0,698.0,0.0,0,-1127.0,0
835,835,0.7641731985203534,0.8,1.0,1.0,398.0,923.0,0.0,0,1679.0,0
836,836,-0.7670515908660083,-0.8,1.0,0.0,382.0,875.0,0.0,0,1743.0,1
837,837,-0.12329598278547282,-0.1,1.0,0.0,460.0,908.0,0.0,0,1632.0,1
838,838,0.10819531113406355,0.1,1.0,1.0,293.0,904.0,0.0,0,1803.0,0
839,839,0.04921075069050784,0.0,1.0,1.0,258.0,966.0,0.0,0,1776.0,0
840,840,0.6849779861920636,0.7,0.0,0.0,482.0,862.0,0.0,1,1656.0,1
841,841,0.7368151237911004,0.7,1.0,1.0,314.0,592.0,0.0,0,2094.0,0
842,842,0.30703287626556974,0.3,1.0,1.0,381.0,777.0,0.0,0,1842.0,0
843,843,-0.38165820629139746,-0.4,0.0,1.0,483.0,633.0,0.0,1,1884.0,0
844,844,-0.3014079482336274,-0.3,0.0,1.0,461.0,624.0,0.0,1,1915.0,0
845,845,-0.8880423780648652,-0.9,0.0,1.0,365.0,826.0,0.0,1,1809.0,0
846,846,0.16346607763143084,0.2,1.0,1.0,276.0,627.0,0.0,0,2097.0,0
847,847,-0.03824505751017837,-0.0,1.0,0.0,460.0,547.0,1.0,1,-597.0,0
848,848,-0.019813599512874647,-0.0,0.0,1.0,325.0,884.0,0.0,1,1791.0,0
849,849,-0.35503163041425434,-0.4,0.0,1.0,471.0,796.0,0.0,1,1733.0,0
850,850,-0.8374028292568252,-0.8,0.0,1.0,323.0,971.0,0.0,1,-1094.0,0
851,851,0.2316390185353011,0.2,0.0,0.0,375.0,837.0,0.0,1,1788.0,1
852,852,-0.7759168318403361,-0.8,1.0,0.0,425.0,612.0,0.0,0,1963.0,1
853,853,0.8980065603646074,0.9,0.0,0.0,250.0,607.0,0.0,1,2143.0,1
854,854,0.46694007747474287,0.5,0.0,0.0,294.0,646.0,0.0,1,2060.0,1
855,855,0.4984241302484317,0.5,0.0,0.0,293.0,647.0,0.0,1,2060.0,1
856,856,0.6349566704572757,0.6,1.0,1.0,409.0,770.0,0.0,0,1821.0,0
857,857,-0.2249565757371711,-0.2,0.0,1.0,434.0,771.0,0.0,1,1795.0,0
858,858,0.860872705896862,0.9,1.0,1.0,416.0,881.0,0.0,0,1703.0,0
859,859,0.8075063743555283,0.8,1.0,1.0,424.0,675.0,1.0,1,-909.0,1
860,860,-0.6518919960061257,-0.7,0.0,1.0,324.0,964.0,0.0,1,1712.0,0
861,861,0.43119508734252465,0.4,1.0,1.0,401.0,833.0,0.0,0,1766.0,0
862,862,0.8464771066241669,0.8,0.0,0.0,420.0,606.0,0.0,1,1974.0,1
863,863,0.08557860110331239,0.1,0.0,0.0,480.0,536.0,0.0,1,1984.0,1
864,864,-0.03966825375435845,-0.0,0.0,1.0,253.0,841.0,0.0,1,1906.0,0
865,865,-0.6729099968784256,-0.7,0.0,1.0,436.0,558.0,0.0,1,2006.0,0
866,866,-0.1396022599250878,-0.1,0.0,1.0,390.0,735.0,0.0,1,1875.0,0
867,867,-0.2222905591581804,-0.2,0.0,1.0,257.0,708.0,0.0,1,2035.0,0
868,868,0.5100529885467743,0.5,0.0,0.0,374.0,936.0,0.0,1,1690.0,1
869,869,0.4550210888769014,0.5,0.0,0.0,370.0,846.0,0.0,1,1784.0,1
870,870,-0.13646301454724052,-0.1,0.0,1.0,252.0,780.0,0.0,1,1968.0,0
871,871,-0.0634355035862284,-0.1,0.0,1.0,277.0,633.0,0.0,1,-890.0,0
872,872,-0.10226618863859482,-0.1,1.0,0.0,352.0,743.0,0.0,0,1905.0,1
873,873,0.7327798234349706,0.7,1.0,1.0,496.0,592.0,0.0,0,1912.0,0
874,874,-0.030942564493319558,-0.0,0.0,1.0,250.0,795.0,0.0,1,1955.0,0
875,875,0.061357245252880666,0.1,0.0,0.0,297.0,661.0,0.0,1,2042.0,1
876,876,-0.0652089649508677,-0.1,1.0,0.0,301.0,549.0,0.0,0,2150.0,1
877,877,0.5617901514322842,0.6,0.0,0.0,419.0,782.0,0.0,1,1799.0,1
878,878,0.6286059394005282,0.6,0.0,0.0,349.0,904.0,0.0,1,1747.0,1
879,879,-0.39435581880481674,-0.4,1.0,0.0,253.0,565.0,1.0,1,-548.0,0
880,880,0.0449108831616295,0.0,0.0,0.0,360.0,544.0,0.0,1,2096.0,1
881,881,0.5101542287286763,0.5,0.0,0.0,304.0,653.0,0.0,1,-917.0,1
882,882,-0.35025411525748273,-0.4,0.0,1.0,288.0,682.0,0.0,1,2030.0,0
883,883,-0.4236747229071965,-0.4,1.0,0.0,346.0,833.0,0.0,0,1821.0,1
884,884,-0.37243934109463817,-0.4,1.0,0.0,268.0,824.0,0.0,0,1908.0,1
885,885,0.8116285048071078,0.8,1.0,1.0,381.0,569.0,0.0,0,2050.0,0
886,886,0.8368627283776578,0.8,0.0,0.0,430.0,842.0,0.0,1,1728.0,1
887,887,-0.7833356074789902,-0.8,1.0,0.0,402.0,861.0,0.0,0,1737.0,1
888,888,-0.7809557671811077,-0.8,0.0,1.0,332.0,956.0,1.0,0,-838.0,1
889,889,0.8237019737335142,0.8,0.0,0.0,475.0,578.0,0.0,1,1947.0,1
890,890,0.6169931141083017,0.6,1.0,1.0,334.0,721.0,0.0,0,-595.0,0
891,891,0.7264400800830487,0.7,0.0,0.0,491.0,898.0,0.0,1,1611.0,1
892,892,-0.2699831273595752,-0.3,0.0,1.0,397.0,874.0,0.0,1,1729.0,0
893,893,0.1285592288159928,0.1,1.0,1.0,252.0,994.0,0.0,0,1754.0,0
894,894,0.08047865547362043,0.1,0.0,0.0,484.0,582.0,0.0,1,1934.0,1
895,895,-0.6702521236860794,-0.7,0.0,1.0,314.0,939.0,0.0,1,1747.0,0
896,896,0.8099248124809321,0.8,1.0,1.0,337.0,935.0,0.0,0,1728.0,0
897,897,-0.46790625907954164,-0.5,1.0,0.0,369.0,519.0,0.0,0,2112.0,1
898,898,0.6606244272151446,0.7,0.0,0.0,439.0,796.0,0.0,1,1765.0,1
899,899,-0.5791325985492823,-0.6,1.0,0.0,361.0,670.0,0.0,0,1969.0,1
900,900,0.5304368558571501,0.5,1.0,1.0,406.0,770.0,0.0,0,1824.0,0
901,901,0.49008261825407484,0.5,1.0,1.0,395.0,737.0,0.0,0,1868.0,0
902,902,-0.5527627419746999,-0.6,0.0,1.0,257.0,831.0,0.0,1,-1088.0,0
903,903,-0.5417873940311462,-0.5,0.0,1.0,292.0,634.0,0.0,1,2074.0,0
904,904,-0.7822642116137456,-0.8,1.0,0.0,463.0,928.0,0.0,0,1609.0,1
905,905,-0.8706952961329446,-0.9,1.0,0.0,350.0,511.0,0.0,0,2139.0,1
906,906,-0.17891337828042742,-0.2,1.0,0.0,437.0,509.0,0.0,0,2054.0,1
907,907,-0.16345772793619717,-0.2,0.0,1.0,263.0,967.0,0.0,1,1770.0,0
908,908,0.20975525629260472,0.2,1.0,1.0,259.0,656.0,1.0,1,-655.0,1
909,909,0.18609510462295653,0.2,1.0,1.0,378.0,754.0,0.0,0,1868.0,0
910,910,0.4406828806232693,0.4,0.0,0.0,271.0,922.0,0.0,1,1807.0,1
911,911,-0.8881740104744725,-0.9,1.0,0.0,389.0,936.0,0.0,0,1675.0,1
912,912,0.2983865768292563,0.3,0.0,0.0,261.0,929.0,0.0,1,1810.0,1
913,913,-0.3160740762856019,-0.3,1.0,0.0,348.0,996.0,0.0,0,-1224.0,1
914,914,-0.7443299910920722,-0.7,1.0,0.0,334.0,764.0,0.0,0,1902.0,1
915,915,0.3813887003896249,0.4,1.0,1.0,304.0,758.0,0.0,0,1938.0,0
916,916,-0.40186884109154086,-0.4,0.0,1.0,339.0,908.0,0.0,1,-1197.0,0
917,917,-0.5816847418926139,-0.6,0.0,1.0,329.0,936.0,0.0,1,1735.0,0
918,918,-0.14312515168349116,-0.1,0.0,1.0,352.0,981.0,0.0,1,1667.0,0
919,919,0.4715677316213961,0.5,1.0,1.0,392.0,708.0,0.0,0,1900.0,0
920,920,-0.8796735916182198,-0.9,1.0,0.0,472.0,515.0,0.0,0,-777.0,1
921,921,0.4962546381180898,0.5,1.0,1.0,356.0,514.0,0.0,0,-310.0,0
922,922,0.10061920973734717,0.1,0.0,0.0,354.0,848.0,0.0,1,1798.0,1
923,923,-0.774162888097579,-0.8,1.0,0.0,454.0,761.0,1.0,1,-975.0,0
924,924,0.06716969527920535,0.1,1.0,1.0,321.0,659.0,0.0,0,2020.0,0
925,925,0.6379716884705543,0.6,1.0,1.0,478.0,666.0,0.0,0,1856.0,0
926,926,-0.6918118745233631,-0.7,1.0,0.0,453.0,827.0,0.0,0,1720.0,1
927,927,-0.031494490827960187,-0.0,1.0,0.0,451.0,627.0,0.0,0,1922.0,1
928,928,-0.531508546893873,-0.5,0.0,1.0,277.0,911.0,0.0,1,1812.0,0
929,929,-0.5639831010198638,-0.6,1.0,0.0,456.0,866.0,0.0,0,1678.0,1
930,930,-0.8282221107388116,-0.8,1.0,0.0,257.0,982.0,0.0,0,1761.0,1
931,931,0.2541491508095367,0.3,1.0,1.0,298.0,555.0,0.0,0,2147.0,0
932,932,-0.8804003858467349,-0.9,0.0,1.0,447.0,689.0,0.0,1,1864.0,0
933,933,-0.3132058897833063,-0.3,1.0,0.0,469.0,893.0,1.0,1,-1122.0,0
934,934,0.08417142210296846,0.1,1.0,1.0,430.0,954.0,0.0,0,1616.0,0
935,935,-0.0717333391804369,-0.1,1.0,0.0,475.0,613.0,0.0,0,1912.0,1
936,936,0.4995863391977208,0.5,0.0,0.0,252.0,560.0,0.0,1,2188.0,1
937,937,-0.2858639385208619,-0.3,0.0,1.0,485.0,815.0,0.0,1,1700.0,0
938,938,-0.05319280163440243,-0.1,1.0,0.0,287.0,733.0,0.0,0,1980.0,1
939,939,-0.21407819586648502,-0.2,1.0,0.0,284.0,607.0,1.0,1,-471.0,0
940,940,0.278439390770869,0.3,0.0,0.0,365.0,768.0,0.0,1,1867.0,1
941,941,0.7172513699150983,0.7,0.0,0.0,450.0,665.0,0.0,1,1885.0,1
942,942,0.16844363368909987,0.2,0.0,0.0,306.0,918.0,0.0,1,-1194.0,1
943,943,0.2894793756516535,0.3,1.0,1.0,444.0,781.0,0.0,0,1775.0,0
944,944,-0.8732199470913434,-0.9,0.0,1.0,430.0,916.0,0.0,1,1654.0,0
945,945,0.5120188048552253,0.5,1.0,1.0,401.0,812.0,0.0,0,1787.0,0
946,946,0.7419701234146691,0.7,1.0,1.0,285.0,898.0,0.0,0,1817.0,0
947,947,0.8701111443581621,0.9,0.0,0.0,453.0,870.0,0.0,1,1677.0,1
948,948,-0.5508171925909946,-0.6,0.0,1.0,499.0,773.0,0.0,1,1728.0,0
949,949,-0.03249999480671306,-0.0,0.0,1.0,379.0,980.0,0.0,1,-1349.0,0
950,950,0.40147578238497494,0.4,1.0,1.0,381.0,821.0,0.0,0,1798.0,0
951,951,-0.5375567926822891,-0.5,1.0,0.0,333.0,842.0,0.0,0,-1145.0,1
952,952,0.7368604699368618,0.7,0.0,0.0,304.0,755.0,0.0,1,1941.0,1
953,953,-0.43396009514433886,-0.4,1.0,0.0,265.0,527.0,0.0,0,2208.0,1
954,954,-0.7196549267407022,-0.7,1.0,0.0,487.0,923.0,0.0,0,1590.0,1
955,955,-0.7606888008966338,-0.8,0.0,1.0,257.0,892.0,0.0,1,1851.0,0
956,956,-0.18403115837663342,-0.2,0.0,1.0,481.0,660.0,0.0,1,1859.0,0
957,957,0.03162486258239827,0.0,0.0,0.0,342.0,927.0,0.0,1,1731.0,1
958,958,-0.18725369678878656,-0.2,1.0,0.0,473.0,766.0,0.0,0,1761.0,1
959,959,0.16656437421969505,0.2,1.0,1.0,415.0,600.0,0.0,0,1985.0,0
960,960,-0.2854864700213027,-0.3,1.0,0.0,369.0,817.0,0.0,0,1814.0,1
961,961,-0.8926547857018259,-0.9,0.0,1.0,305.0,913.0,0.0,1,1782.0,0
962,962,0.5324779976065227,0.5,1.0,1.0,387.0,731.0,0.0,0,1882.0,0
963,963,0.6464133835205751,0.6,0.0,0.0,464.0,930.0,0.0,1,1606.0,1
964,964,0.608529500911959,0.6,1.0,1.0,456.0,753.0,0.0,0,1791.0,0
965,965,0.29548921625109414,0.3,0.0,0.0,393.0,590.0,0.0,1,-863.0,1
966,966,-0.2632429002518012,-0.3,1.0,0.0,288.0,513.0,0.0,0,2199.0,1
967,967,0.07154695740286243,0.1,0.0,0.0,448.0,687.0,0.0,1,1865.0,1
968,968,0.4195828994725147,0.4,1.0,1.0,365.0,782.0,0.0,0,1853.0,0
969,969,0.15969943828996092,0.2,1.0,1.0,253.0,582.0,0.0,0,2165.0,0
970,970,0.02066230063786867,0.0,1.0,1.0,252.0,686.0,0.0,0,2062.0,0
971,971,-0.560002617843435,-0.6,0.0,1.0,379.0,601.0,0.0,1,2020.0,0
972,972,-0.5920091052212522,-0.6,1.0,0.0,349.0,630.0,0.0,0,2021.0,1
973,973,0.8896394231556074,0.9,1.0,1.0,267.0,521.0,0.0,0,2212.0,0
974,974,-0.5339506898642655,-0.5,0.0,1.0,347.0,719.0,1.0,0,-826.0,1
975,975,0.2111324649857359,0.2,1.0,1.0,448.0,940.0,1.0,1,-788.0,1
976,976,0.6815391783530885,0.7,1.0,1.0,457.0,784.0,0.0,0,1759.0,0
977,977,0.19072033203015792,0.2,0.0,0.0,483.0,538.0,0.0,1,1979.0,1
978,978,0.7327420960044729,0.7,1.0,1.0,380.0,886.0,0.0,0,1734.0,0
979,979,0.04322337470019366,0.0,0.0,0.0,419.0,840.0,0.0,1,1741.0,1
980,980,-0.323079223598162,-0.3,0.0,1.0,412.0,616.0,0.0,1,1972.0,0
981,981,0.7819298280875383,0.8,1.0,1.0,492.0,990.0,0.0,0,1518.0,0
982,982,-0.0690854805911908,-0.1,0.0,1.0,295.0,753.0,0.0,1,1952.0,0
983,983,-0.7614400279119529,-0.8,1.0,0.0,485.0,551.0,0.0,0,1964.0,1
984,984,0.038641005836573594,0.0,1.0,1.0,472.0,757.0,0.0,0,1771.0,0
985,985,-0.2936459395799831,-0.3,0.0,1.0,391.0,721.0,0.0,1,1888.0,0
986,986,0.6916872329331015,0.7,1.0,1.0,318.0,711.0,0.0,0,1971.0,0
987,987,0.03738483130457293,0.0,0.0,0.0,256.0,907.0,0.0,1,1837.0,1
988,988,-0.74325863049995,-0.7,1.0,0.0,317.0,504.0,0.0,0,2179.0,1
989,989,-0.2145269197682551,-0.2,0.0,1.0,486.0,918.0,0.0,1,1596.0,0
990,990,-0.21687147583421296,-0.2,0.0,1.0,398.0,731.0,0.0,1,1871.0,0
991,991,0.2567729060626912,0.3,1.0,1.0,365.0,568.0,0.0,0,2067.0,0
992,992,-0.6278643109383378,-0.6,1.0,0.0,349.0,987.0,0.0,0,1664.0,1
993,993,0.7157413248463643,0.7,0.0,0.0,384.0,901.0,0.0,1,1715.0,1
994,994,0.6797522288790535,0.7,0.0,0.0,343.0,706.0,0.0,1,1951.0,1
995,995,-0.04520128061242601,-0.0,1.0,0.0,261.0,789.0,0.0,0,-920.0,1
996,996,0.5578147176490783,0.6,0.0,0.0,461.0,542.0,0.0,1,1997.0,1
997,997,-0.46681076614262934,-0.5,0.0,1.0,320.0,678.0,0.0,1,2002.0,0
998,998,0.09864723978101897,0.1,0.0,0.0,331.0,974.0,0.0,1,1695.0,1
999,999,-0.3116913903031989,-0.3,1.0,0.0,277.0,507.0,0.0,0,2216.0,1
1000,1000,0.47669561486676504,0.5,1.0,1.0,463.0,523.0,0.0,0,2014.0,0
1001,1001,0.08047134508911025,0.1,0.0,0.0,388.0,758.0,0.0,1,1854.0,1
1002,1002,0.1690221324781963,0.2,1.0,1.0,356.0,631.0,0.0,0,2013.0,0
1003,1003,0.6342253174649518,0.6,0.0,0.0,423.0,937.0,0.0,1,1640.0,1
1004,1004,-0.44042479398163265,-0.4,0.0,1.0,256.0,850.0,1.0,0,-956.0,1
1005,1005,0.8108830042636072,0.8,0.0,0.0,480.0,646.0,0.0,1,1874.0,1
1006,1006,-0.8697251953301965,-0.9,0.0,1.0,319.0,742.0,0.0,1,-1031.0,0
1007,1007,0.5496822244050951,0.5,0.0,0.0,303.0,558.0,0.0,1,2139.0,1
1008,1008,-0.21581212593804755,-0.2,1.0,0.0,259.0,569.0,0.0,0,2172.0,1
1009,1009,-0.5414751079413733,-0.5,1.0,0.0,323.0,897.0,0.0,0,1780.0,1
1010,1010,0.21285311413112085,0.2,1.0,1.0,370.0,756.0,0.0,0,1874.0,0
1011,1011,0.15788275741001712,0.2,1.0,1.0,327.0,562.0,0.0,0,-829.0,0
1012,1012,0.7440454695961664,0.7,1.0,1.0,269.0,892.0,0.0,0,1839.0,0
1013,1013,-0.8868711413696527,-0.9,1.0,0.0,483.0,972.0,0.0,0,1545.0,1
1014,1014,0.1510162136132206,0.2,1.0,1.0,302.0,678.0,0.0,0,2020.0,0
1015,1015,0.5028778360016343,0.5,0.0,0.0,345.0,550.0,0.0,1,2105.0,1
1016,1016,0.7568334707022698,0.8,0.0,0.0,272.0,599.0,0.0,1,2129.0,1
1017,1017,-0.342425643471423,-0.3,0.0,1.0,499.0,688.0,0.0,1,1813.0,0
1018,1018,-0.6927678076130064,-0.7,0.0,1.0,388.0,886.0,0.0,1,1726.0,0
1019,1019,-0.6167583962211238,-0.6,1.0,0.0,295.0,653.0,0.0,0,2052.0,1
1020,1020,0.47687970776543065,0.5,1.0,1.0,452.0,616.0,0.0,0,-1018.0,0
1021,1021,-0.18894572098086382,-0.2,1.0,0.0,262.0,819.0,0.0,0,1919.0,1
1022,1022,-0.39676903695265997,-0.4,0.0,1.0,452.0,592.0,0.0,1,1956.0,0
1023,1023,0.4225414628480354,0.4,1.0,1.0,299.0,900.0,0.0,0,1801.0,0
1024,1024,-0.8059371912363431,-0.8,1.0,0.0,315.0,852.0,1.0,1,-1087.0,0
1025,1025,-0.30108969870315216,-0.3,1.0,0.0,479.0,568.0,0.0,0,1953.0,1
1026,1026,-0.8377733635839578,-0.8,0.0,1.0,386.0,858.0,0.0,1,1756.0,0
1027,1027,0.8834433869678125,0.9,0.0,0.0,421.0,594.0,0.0,1,1985.0,1
1028,1028,0.32053636686752796,0.3,1.0,1.0,438.0,960.0,0.0,0,1602.0,0
1029,1029,0.8753458706552267,0.9,0.0,0.0,462.0,827.0,0.0,1,1711.0,1
1030,1030,0.22837951008695756,0.2,1.0,1.0,422.0,838.0,0.0,0,1740.0,0
1031,1031,0.6951421226452575,0.7,0.0,0.0,464.0,512.0,0.0,1,2024.0,1
1032,1032,-0.820055511361011,-0.8,1.0,0.0,394.0,987.0,0.0,0,1619.0,1
1033,1033,0.1811221693618973,0.2,0.0,0.0,434.0,596.0,0.0,1,1970.0,1
1034,1034,0.2796283943195875,0.3,1.0,1.0,461.0,621.0,0.0,0,1918.0,0
1035,1035,-0.5028528960749787,-0.5,1.0,0.0,296.0,616.0,0.0,0,2088.0,1
1036,1036,0.7412390319480725,0.7,1.0,1.0,441.0,770.0,0.0,0,1789.0,0
1037,1037,0.506571299741095,0.5,0.0,0.0,291.0,535.0,0.0,1,2174.0,1
1038,1038,-0.8362649056098432,-0.8,0.0,1.0,307.0,837.0,0.0,1,1856.0,0
1039,1039,-0.6450815753189783,-0.6,1.0,0.0,459.0,969.0,0.0,0,1572.0,1
1040,1040,-0.7377830132983616,-0.7,0.0,1.0,466.0,767.0,0.0,1,1767.0,0
1041,1041,-0.6533046576322686,-0.7,1.0,0.0,313.0,656.0,0.0,0,2031.0,1
1042,1042,-0.7114257770422177,-0.7,1.0,0.0,316.0,808.0,1.0,1,-1044.0,0
1043,1043,0.21514992179327674,0.2,1.0,1.0,350.0,821.0,0.0,0,1829.0,0
1044,1044,-0.7846686720397485,-0.8,1.0,0.0,402.0,705.0,0.0,0,1893.0,1
1045,1045,0.3348197083817458,0.3,0.0,0.0,489.0,744.0,0.0,1,1767.0,1
1046,1046,-0.39284876276379577,-0.4,1.0,0.0,342.0,768.0,0.0,0,1890.0,1
1047,1047,-0.5576364422468253,-0.6,0.0,1.0,479.0,756.0,0.0,1,1765.0,0
1048,1048,0.02865099824234263,0.0,0.0,0.0,370.0,942.0,0.0,1,1688.0,1
1049,1049,0.11682792641011364,0.1,0.0,0.0,466.0,968.0,0.0,1,1566.0,1
1050,1050,0.36625618910653157,0.4,0.0,0.0,252.0,761.0,0.0,1,1987.0,1
1051,1051,0.6898042468267757,0.7,1.0,1.0,403.0,772.0,0.0,0,1825.0,0
1052,1052,-0.6958248765604855,-0.7,1.0,0.0,282.0,781.0,0.0,0,-893.0,1
1053,1053,-0.22059722162909223,-0.2,1.0,0.0,349.0,961.0,0.0,0,1690.0,1
1054,1054,-0.6417809901482692,-0.6,1.0,0.0,317.0,602.0,0.0,0,-829.0,1
1055,1055,-0.022933005533674278,-0.0,0.0,1.0,257.0,745.0,0.0,1,1998.0,0
1056,1056,0.6338582908081422,0.6,1.0,1.0,403.0,776.0,0.0,0,1821.0,0
1057,1057,0.11842845667949853,0.1,1.0,1.0,339.0,791.0,0.0,0,1870.0,0
1058,1058,0.508113954978456,0.5,0.0,0.0,298.0,763.0,0.0,1,1939.0,1
1059,1059,-0.5538126460133013,-0.6,1.0,0.0,376.0,774.0,0.0,0,1850.0,1
1060,1060,0.5561481495061787,0.6,0.0,0.0,379.0,916.0,0.0,1,1705.0,1
1061,1061,-0.3569515023703749,-0.4,0.0,1.0,480.0,509.0,0.0,1,2011.0,0
1062,1062,-0.3535551860668502,-0.4,0.0,1.0,300.0,770.0,0.0,1,1930.0,0
1063,1063,0.3911869229535173,0.4,0.0,0.0,485.0,853.0,0.0,1,1662.0,1
1064,1064,-0.7403013631744353,-0.7,0.0,1.0,455.0,912.0,0.0,1,1633.0,0
1065,1065,0.8908589283922111,0.9,0.0,0.0,476.0,562.0,0.0,1,1962.0,1
1066,1066,-0.03361438879012624,-0.0,0.0,1.0,492.0,739.0,0.0,1,1769.0,0
1067,1067,0.4864734936187599,0.5,1.0,1.0,409.0,808.0,0.0,0,-1207.0,0
1068,1068,0.024004736905556157,0.0,0.0,0.0,361.0,580.0,0.0,1,2059.0,1
1069,1069,0.43872327617760176,0.4,1.0,1.0,340.0,537.0,0.0,0,2123.0,0
1070,1070,0.35466471557705026,0.4,0.0,0.0,414.0,678.0,0.0,1,1908.0,1
1071,1071,-0.47406512557467545,-0.5,1.0,0.0,265.0,745.0,0.0,0,1990.0,1
1072,1072,-0.5429022112936102,-0.5,1.0,0.0,295.0,976.0,0.0,0,1729.0,1
1073,1073,0.32003773093412524,0.3,1.0,1.0,270.0,636.0,0.0,0,2094.0,0
1074,1074,0.21933764776663944,0.2,0.0,0.0,285.0,843.0,0.0,1,1872.0,1
1075,1075,-0.1820297149912603,-0.2,1.0,0.0,365.0,564.0,0.0,0,2071.0,1
1076,1076,0.6666035245253837,0.7,0.0,0.0,485.0,861.0,0.0,1,1654.0,1
1077,1077,-0.2771110839216593,-0.3,1.0,0.0,326.0,881.0,0.0,0,1793.0,1
1078,1078,-0.19419315636302492,-0.2,1.0,0.0,456.0,543.0,0.0,0,-919.0,1
1079,1079,-0.5634785425381872,-0.6,0.0,1.0,388.0,739.0,0.0,1,1873.0,0
1080,1080,0.06338523042589195,0.1,0.0,0.0,335.0,980.0,0.0,1,1685.0,1
1081,1081,0.45497300141643937,0.5,0.0,0.0,365.0,560.0,0.0,1,2075.0,1
1082,1082,0.7042372011372479,0.7,0.0,0.0,324.0,607.0,0.0,1,2069.0,1
1083,1083,-0.5074979924793863,-0.5,0.0,1.0,387.0,727.0,0.0,1,1886.0,0
1084,1084,-0.6629531424232752,-0.7,0.0,1.0,309.0,904.0,0.0,1,1787.0,0
1085,1085,0.3240695428760302,0.3,0.0,0.0,417.0,612.0,0.0,1,1971.0,1
1086,1086,0.03584671410199114,0.0,1.0,1.0,466.0,931.0,0.0,0,1603.0,0
1087,1087,0.7170393402564347,0.7,0.0,0.0,310.0,528.0,0.0,1,2162.0,1
1088,1088,-0.37569342406971395,-0.4,1.0,0.0,331.0,755.0,0.0,0,1914.0,1
1089,1089,-0.4860995874503922,-0.5,1.0,0.0,498.0,966.0,0.0,0,-1464.0,1
1090,1090,0.3022659157968711,0.3,1.0,1.0,491.0,950.0,0.0,0,1559.0,0
1091,1091,-0.6230646939545271,-0.6,1.0,0.0,258.0,943.0,0.0,0,1799.0,1
1092,1092,-0.6866675913325662,-0.7,0.0,1.0,337.0,714.0,0.0,1,1949.0,0
1093,1093,0.8448572070659249,0.8,0.0,0.0,254.0,749.0,1.0,0,-993.0,0
1094,1094,0.5089881298294526,0.5,0.0,0.0,324.0,897.0,0.0,1,1779.0,1
1095,1095,-0.2580368742413789,-0.3,1.0,0.0,468.0,777.0,0.0,0,1755.0,1
1096,1096,-0.5245459823442846,-0.5,0.0,1.0,379.0,654.0,0.0,1,1967.0,0
1097,1097,0.7006689724687954,0.7,0.0,0.0,455.0,715.0,0.0,1,1830.0,1
1098,1098,0.7415178553128104,0.7,0.0,0.0,376.0,966.0,0.0,1,1658.0,1
1099,1099,-0.4597514262926267,-0.5,1.0,0.0,258.0,879.0,0.0,0,1863.0,1
1100,1100,-0.42476699849228944,-0.4,0.0,1.0,477.0,810.0,0.0,1,-1237.0,0
1101,1101,-0.7747782668559151,-0.8,1.0,0.0,355.0,710.0,0.0,0,1935.0,1
1102,1102,0.883537960502052,0.9,0.0,0.0,322.0,567.0,0.0,1,2111.0,1
1103,1103,0.6915542460489746,0.7,1.0,1.0,454.0,694.0,0.0,0,1852.0,0
1104,1104,0.7125139640363513,0.7,0.0,0.0,328.0,560.0,0.0,1,2112.0,1
1105,1105,0.47607343855457696,0.5,1.0,1.0,330.0,704.0,0.0,0,1966.0,0
1106,1106,0.36157607057122754,0.4,0.0,0.0,498.0,755.0,0.0,1,1747.0,1
1107,1107,-0.07416597619963194,-0.1,0.0,1.0,292.0,818.0,0.0,1,1890.0,0
1108,1108,-0.3763319734736391,-0.4,0.0,1.0,409.0,575.0,0.0,1,2016.0,0
1109,1109,-0.34752563333994424,-0.3,1.0,0.0,486.0,876.0,0.0,0,1638.0,1
1110,1110,-0.2740483992053797,-0.3,1.0,0.0,411.0,860.0,0.0,0,1729.0,1
1111,1111,-0.35649833762477634,-0.4,1.0,0.0,327.0,612.0,0.0,0,2061.0,1
1112,1112,0.7034430711435259,0.7,0.0,0.0,469.0,859.0,0.0,1,1672.0,1
1113,1113,-0.12153591716522305,-0.1,0.0,1.0,415.0,730.0,0.0,1,1855.0,0
1114,1114,0.06042361512753591,0.1,1.0,1.0,290.0,813.0,0.0,0,1897.0,0
1115,1115,0.6689130312676875,0.7,0.0,0.0,321.0,547.0,0.0,1,2132.0,1
1116,1116,0.13541324267780153,0.1,1.0,1.0,253.0,552.0,0.0,0,2195.0,0
1117,1117,-0.5205486978905157,-0.5,0.0,1.0,385.0,700.0,0.0,1,1915.0,0
1118,1118,-0.725227539198023,-0.7,0.0,1.0,255.0,867.0,0.0,1,1878.0,0
1119,1119,-0.25356672649029766,-0.3,0.0,1.0,369.0,595.0,0.0,1,2036.0,0
1120,1120,0.39828531327697914,0.4,0.0,0.0,450.0,599.0,0.0,1,1951.0,1
1121,1121,-0.12584397564600303,-0.1,0.0,1.0,401.0,704.0,0.0,1,1895.0,0
1122,1122,0.011815719891574039,0.0,0.0,0.0,410.0,947.0,0.0,1,-1077.0,1
1123,1123,-0.5619663017092359,-0.6,1.0,0.0,358.0,622.0,0.0,0,2020.0,1
1124,1124,0.7960560728739784,0.8,0.0,0.0,468.0,982.0,1.0,0,-1440.0,0
1125,1125,0.4348319760623188,0.4,0.0,0.0,472.0,778.0,0.0,1,1750.0,1
1126,1126,-0.43300074137533806,-0.4,1.0,0.0,384.0,555.0,0.0,0,2061.0,1
1127,1127,0.5280605532406272,0.5,1.0,1.0,326.0,686.0,0.0,0,1988.0,0
1128,1128,0.810283079009538,0.8,1.0,1.0,367.0,610.0,0.0,0,-647.0,0
1129,1129,0.3730663414640901,0.4,0.0,0.0,431.0,812.0,0.0,1,1757.0,1
1130,1130,-0.8912834049930968,-0.9,0.0,1.0,412.0,669.0,0.0,1,1919.0,0
1131,1131,0.2959746366438435,0.3,1.0,1.0,313.0,975.0,0.0,0,-1148.0,0
1132,1132,-0.3636925993557869,-0.4,1.0,0.0,376.0,884.0,0.0,0,1740.0,1
1133,1133,-0.5652382703838863,-0.6,1.0,0.0,251.0,617.0,0.0,0,2132.0,1
1134,1134,0.5579380398872004,0.6,0.0,0.0,481.0,688.0,0.0,1,1831.0,1
1135,1135,0.1849747259547233,0.2,1.0,1.0,472.0,891.0,0.0,0,1637.0,0
1136,1136,0.3901619387273524,0.4,0.0,0.0,362.0,527.0,0.0,1,2111.0,1
1137,1137,-0.3512417778896726,-0.4,1.0,0.0,250.0,589.0,0.0,0,2161.0,1
1138,1138,-0.1283186653554379,-0.1,1.0,0.0,332.0,712.0,0.0,0,1956.0,1
1139,1139,0.10946765196797326,0.1,1.0,1.0,448.0,892.0,0.0,0,1660.0,0
1140,1140,-0.5380244225709476,-0.5,1.0,0.0,328.0,723.0,0.0,0,1949.0,1
1141,1141,0.04792041331034058,0.0,0.0,0.0,460.0,605.0,0.0,1,1935.0,1
1142,1142,-0.7684245112884631,-0.8,1.0,0.0,291.0,603.0,0.0,0,2106.0,1
1143,1143,-0.703675025179289,-0.7,1.0,0.0,400.0,805.0,0.0,0,1795.0,1
1144,1144,-0.5853437237892891,-0.6,1.0,0.0,428.0,519.0,0.0,0,2053.0,1
1145,1145,0.025631828190182837,0.0,0.0,0.0,459.0,700.0,0.0,1,1841.0,1
1146,1146,-0.2938492827574575,-0.3,0.0,1.0,432.0,543.0,0.0,1,2025.0,0
1147,1147,0.014057046898522607,0.0,1.0,1.0,327.0,903.0,0.0,0,1770.0,0
1148,1148,-0.7442216075913749,-0.7,0.0,1.0,495.0,902.0,0.0,1,1603.0,0
1149,1149,0.1628867967606603,0.2,1.0,1.0,377.0,706.0,0.0,0,1917.0,0
1150,1150,-0.49155374690131504,-0.5,1.0,0.0,485.0,711.0,0.0,0,-1066.0,1
1151,1151,0.704887084209823,0.7,1.0,1.0,384.0,691.0,0.0,0,1925.0,0
1152,1152,0.5946430604964189,0.6,1.0,1.0,278.0,589.0,0.0,0,2133.0,0
1153,1153,0.7130940177734536,0.7,1.0,1.0,385.0,546.0,0.0,0,2069.0,0
1154,1154,0.41441887723673576,0.4,1.0,1.0,374.0,526.0,0.0,0,2100.0,0
1155,1155,0.39943267074411326,0.4,0.0,0.0,432.0,855.0,0.0,1,1713.0,1
1156,1156,0.6895994534072344,0.7,0.0,0.0,403.0,511.0,0.0,1,2086.0,1
1157,1157,-0.26450739453584704,-0.3,1.0,0.0,384.0,636.0,0.0,0,1980.0,1
1158,1158,-0.6987257272142142,-0.7,1.0,0.0,408.0,962.0,0.0,0,1630.0,1
1159,1159,0.8493336235418073,0.8,0.0,0.0,387.0,734.0,0.0,1,1879.0,1
1160,1160,-0.8163571574916435,-0.8,1.0,0.0,314.0,586.0,0.0,0,2100.0,1
1161,1161,0.6116685467152639,0.6,0.0,0.0,269.0,676.0,0.0,1,2055.0,1
1162,1162,0.20660615087953815,0.2,1.0,1.0,384.0,838.0,1.0,1,-1102.0,1
1163,1163,-0.02127346816703657,-0.0,1.0,0.0,278.0,685.0,0.0,0,2037.0,1
1164,1164,0.06327961680926597,0.1,0.0,0.0,283.0,542.0,0.0,1,2175.0,1
1165,1165,0.6751243012728415,0.7,1.0,1.0,387.0,574.0,0.0,0,2039.0,0
1166,1166,0.7061822942307395,0.7,1.0,1.0,363.0,899.0,0.0,0,1738.0,0
1167,1167,-0.4051752585154538,-0.4,1.0,0.0,486.0,570.0,0.0,0,1944.0,1
1168,1168,0.8238071528744121,0.8,1.0,1.0,384.0,848.0,0.0,0,1768.0,0
1169,1169,0.3075961092679923,0.3,1.0,1.0,351.0,775.0,0.0,0,1874.0,0
1170,1170,-0.6438242264211974,-0.6,0.0,1.0,304.0,532.0,0.0,1,2164.0,0
1171,1171,0.6104297431536284,0.6,0.0,0.0,456.0,971.0,0.0,1,1573.0,1
1172,1172,-0.46162835048300926,-0.5,0.0,1.0,434.0,606.0,0.0,1,1960.0,0
1173,1173,-0.2705142110786086,-0.3,0.0,1.0,388.0,994.0,0.0,1,1618.0,0
1174,1174,-0.8333604567569226,-0.8,0.0,1.0,250.0,791.0,0.0,1,1959.0,0
1175,1175,0.8229864641255561,0.8,1.0,1.0,301.0,736.0,0.0,0,1963.0,0
1176,1176,-0.22010968639002515,-0.2,0.0,1.0,477.0,516.0,0.0,1,2007.0,0
1177,1177,-0.4530020066246795,-0.5,0.0,1.0,458.0,966.0,0.0,1,1576.0,0
1178,1178,-0.3309291389245468,-0.3,0.0,1.0,280.0,902.0,0.0,1,1818.0,0
1179,1179,0.0402549679460914,0.0,0.0,0.0,423.0,695.0,0.0,1,1882.0,1
1180,1180,-0.46341345566638,-0.5,1.0,0.0,276.0,747.0,0.0,0,1977.0,1
1181,1181,-0.275007785928189,-0.3,1.0,0.0,492.0,548.0,0.0,0,1960.0,1
1182,1182,0.3514418544630432,0.4,0.0,0.0,445.0,927.0,0.0,1,1628.0,1
1183,1183,0.7218217863202584,0.7,0.0,0.0,338.0,756.0,0.0,1,1906.0,1
1184,1184,-0.6388751086875499,-0.6,0.0,1.0,418.0,657.0,0.0,1,1925.0,0
1185,1185,-0.26754914979072664,-0.3,1.0,0.0,494.0,853.0,0.0,0,1653.0,1
1186,1186,0.8522742154918738,0.9,0.0,0.0,279.0,738.0,0.0,1,1983.0,1
1187,1187,-0.48918969140344165,-0.5,0.0,1.0,264.0,757.0,0.0,1,1979.0,0
1188,1188,-0.11638625107436495,-0.1,1.0,0.0,279.0,986.0,0.0,0,1735.0,1
1189,1189,0.7184517668305007,0.7,0.0,0.0,315.0,545.0,0.0,1,2140.0,1
1190,1190,0.47174070217105635,0.5,1.0,1.0,495.0,727.0,0.0,0,1778.0,0
1191,1191,0.8518058020657634,0.9,1.0,1.0,431.0,567.0,0.0,0,2002.0,0
1192,1192,0.08643842451288775,0.1,0.0,0.0,290.0,922.0,0.0,1,1788.0,1
1193,1193,-0.3402537446977173,-0.3,0.0,1.0,427.0,529.0,0.0,1,2044.0,0
1194,1194,-0.3610124802918713,-0.4,0.0,1.0,311.0,684.0,0.0,1,2005.0,0
1195,1195,-0.44458402453998297,-0.4,1.0,0.0,491.0,550.0,0.0,0,1959.0,1
1196,1196,-0.6506903398615843,-0.7,0.0,1.0,401.0,828.0,0.0,1,1771.0,0
1197,1197,0.21280115618938933,0.2,0.0,0.0,397.0,867.0,0.0,1,1736.0,1
1198,1198,-0.29504451959749567,-0.3,0.0,1.0,286.0,992.0,0.0,1,1722.0,0
1199,1199,0.1629268594993304,0.2,0.0,0.0,445.0,606.0,0.0,1,1949.0,1
1200,1200,0.6596659804313999,0.7,0.0,0.0,256.0,747.0,0.0,1,1997.0,1
1201,1201,-0.54136995980738,-0.5,1.0,0.0,482.0,877.0,0.0,0,1641.0,1
1202,1202,-0.6478641669612367,-0.6,0.0,1.0,421.0,641.0,0.0,1,1938.0,0
1203,1203,0.19465090213707648,0.2,0.0,0.0,370.0,716.0,0.0,1,1914.0,1
1204,1204,0.19842778390887916,0.2,0.0,0.0,408.0,919.0,0.0,1,1673.0,1
1205,1205,-0.3844478785448131,-0.4,1.0,0.0,462.0,801.0,0.0,0,1737.0,1
1206,1206,-0.2424082954076533,-0.2,1.0,0.0,480.0,581.0,0.0,0,-1001.0,1
1207,1207,0.01610991612319468,0.0,0.0,0.0,368.0,840.0,0.0,1,1792.0,1
1208,1208,-0.33595535371305796,-0.3,0.0,1.0,330.0,906.0,0.0,1,1764.0,0
1209,1209,0.7205539520608734,0.7,0.0,0.0,464.0,715.0,0.0,1,1821.0,1
1210,1210,-0.645085619677497,-0.6,1.0,0.0,349.0,826.0,0.0,0,1825.0,1
1211,1211,-0.521425556092144,-0.5,1.0,0.0,460.0,601.0,0.0,0,1939.0,1
1212,1212,-0.22922826609882907,-0.2,1.0,0.0,259.0,764.0,0.0,0,1977.0,1
1213,1213,-0.8903465645958634,-0.9,1.0,0.0,463.0,929.0,0.0,0,1608.0,1
1214,1214,-0.5984191622849214,-0.6,1.0,0.0,476.0,522.0,0.0,0,2002.0,1
1215,1215,-0.19011597553904502,-0.2,0.0,1.0,430.0,805.0,0.0,1,1765.0,0
1216,1216,-0.310029729382323,-0.3,1.0,0.0,436.0,658.0,0.0,0,1906.0,1
1217,1217,0.03212787268462802,0.0,0.0,0.0,257.0,517.0,0.0,1,2226.0,1
1218,1218,-0.10440728741599459,-0.1,1.0,0.0,322.0,557.0,0.0,0,2121.0,1
1219,1219,-0.058773694221199047,-0.1,1.0,0.0,464.0,938.0,0.0,0,1598.0,1
1220,1220,0.8037522515732246,0.8,1.0,1.0,433.0,538.0,0.0,0,2029.0,0
1221,1221,0.2541970450444381,0.3,1.0,1.0,418.0,764.0,0.0,0,1818.0,0
1222,1222,0.524404640137249,0.5,1.0,1.0,474.0,794.0,0.0,0,1732.0,0
1223,1223,-0.835686172299589,-0.8,1.0,0.0,330.0,696.0,0.0,0,1974.0,1
1224,1224,-0.8107645052819519,-0.8,0.0,1.0,391.0,913.0,1.0,0,-1204.0,1
1225,1225,0.032551018745243354,0.0,1.0,1.0,251.0,800.0,0.0,0,1949.0,0
1226,1226,-0.25872629324429675,-0.3,1.0,0.0,383.0,638.0,0.0,0,1979.0,1
1227,1227,0.6981277586320366,0.7,1.0,1.0,296.0,862.0,0.0,0,-1068.0,0
1228,1228,0.6945132837901021,0.7,0.0,0.0,435.0,589.0,0.0,1,1976.0,1
1229,1229,0.4370705720535103,0.4,1.0,1.0,475.0,744.0,0.0,0,1781.0,0
1230,1230,0.7682672480680058,0.8,1.0,1.0,348.0,776.0,0.0,0,1876.0,0
1231,1231,-0.12462615110598685,-0.1,1.0,0.0,285.0,732.0,0.0,0,1983.0,1
1232,1232,-0.22617102866994088,-0.2,1.0,0.0,388.0,592.0,0.0,0,2020.0,1
1233,1233,0.3140000305723615,0.3,0.0,0.0,462.0,916.0,0.0,1,1622.0,1
1234,1234,-0.07453573445049888,-0.1,0.0,1.0,443.0,965.0,0.0,1,1592.0,0
1235,1235,0.8700900728992166,0.9,0.0,0.0,397.0,974.0,0.0,1,1629.0,1
1236,1236,-0.6928033117092791,-0.7,1.0,0.0,482.0,501.0,0.0,0,2017.0,1
1237,1237,-0.3195471106015848,-0.3,0.0,1.0,409.0,626.0,0.0,1,1965.0,0
1238,1238,0.6495132232002078,0.6,1.0,1.0,279.0,677.0,0.0,0,2044.0,0
1239,1239,0.5631857464147437,0.6,0.0,0.0,458.0,959.0,0.0,1,1583.0,1
1240,1240,0.8988751073027296,0.9,1.0,1.0,265.0,992.0,0.0,0,1743.0,0
1241,1241,0.3275231457291118,0.3,1.0,1.0,285.0,858.0,0.0,0,1857.0,0
1242,1242,0.5812392921411752,0.6,1.0,1.0,454.0,852.0,0.0,0,-1276.0,0
1243,1243,-0.35953526719975404,-0.4,0.0,1.0,285.0,949.0,0.0,1,1766.0,0
1244,1244,-0.5747604147918215,-0.6,0.0,1.0,440.0,664.0,0.0,1,1896.0,0
1245,1245,0.2503248295021142,0.3,0.0,0.0,259.0,915.0,0.0,1,1826.0,1
1246,1246,-0.23439791761796502,-0.2,0.0,1.0,354.0,861.0,0.0,1,1785.0,0
1247,1247,0.05114772539897339,0.1,1.0,1.0,398.0,980.0,0.0,0,-1218.0,0
1248,1248,0.272949829609178,0.3,1.0,1.0,306.0,756.0,1.0,1,-972.0,1
1249,1249,0.4175864083772166,0.4,1.0,1.0,377.0,900.0,0.0,0,1723.0,0
1250,1250,0.4624533580112401,0.5,0.0,0.0,321.0,907.0,0.0,1,1772.0,1
1251,1251,0.5320838695104294,0.5,0.0,0.0,299.0,634.0,0.0,1,2067.0,1
1252,1252,-0.16488903279294542,-0.2,0.0,1.0,454.0,825.0,0.0,1,1721.0,0
1253,1253,0.33184107869183255,0.3,0.0,0.0,314.0,593.0,0.0,1,2093.0,1
1254,1254,-0.6123955186661241,-0.6,0.0,1.0,405.0,892.0,0.0,1,1703.0,0
1255,1255,0.16084070961135966,0.2,1.0,1.0,348.0,599.0,0.0,0,2053.0,0
1256,1256,0.219351395932465,0.2,1.0,1.0,289.0,890.0,0.0,0,1821.0,0
1257,1257,0.1058345898264107,0.1,1.0,1.0,350.0,978.0,0.0,0,1672.0,0
1258,1258,0.4848271846780893,0.5,0.0,0.0,456.0,888.0,0.0,1,1656.0,1
1259,1259,-0.6048335166043762,-0.6,0.0,1.0,287.0,665.0,0.0,1,2048.0,0
1260,1260,0.11694292502172854,0.1,0.0,0.0,358.0,722.0,0.0,1,1920.0,1
1261,1261,0.17762248476481857,0.2,1.0,1.0,365.0,992.0,0.0,0,1643.0,0
1262,1262,-0.6311259283310797,-0.6,1.0,0.0,286.0,749.0,0.0,0,1965.0,1
1263,1263,-0.33248850115853323,-0.3,0.0,1.0,252.0,805.0,0.0,1,-897.0,0
1264,1264,0.2934393303613704,0.3,0.0,0.0,311.0,855.0,0.0,1,-1066.0,1
1265,1265,0.046637241940507,0.0,1.0,1.0,429.0,631.0,0.0,0,1940.0,0
1266,1266,0.41390648097457394,0.4,1.0,1.0,438.0,693.0,0.0,0,1869.0,0
1267,1267,-0.17071226331785794,-0.2,1.0,0.0,364.0,760.0,0.0,0,-874.0,1
1268,1268,0.004121846162687959,0.0,1.0,1.0,366.0,671.0,0.0,0,1963.0,0
1269,1269,-0.6357557310423821,-0.6,0.0,1.0,285.0,520.0,0.0,1,2195.0,0
1270,1270,0.8793509838139769,0.9,0.0,0.0,307.0,964.0,0.0,1,1729.0,1
1271,1271,-0.8408922706719789,-0.8,1.0,0.0,263.0,891.0,0.0,0,1846.0,1
1272,1272,-0.7292739428826925,-0.7,1.0,0.0,403.0,903.0,0.0,0,1694.0,1
1273,1273,0.40207756130272865,0.4,1.0,1.0,281.0,760.0,0.0,0,1959.0,0
1274,1274,0.8921113987024195,0.9,1.0,1.0,280.0,587.0,0.0,0,2133.0,0
1275,1275,0.19329362657886906,0.2,1.0,1.0,430.0,670.0,0.0,0,1900.0,0
1276,1276,-0.04949456895462012,-0.0,1.0,0.0,314.0,932.0,0.0,0,1754.0,1
1277,1277,-0.7958754179685383,-0.8,1.0,0.0,473.0,881.0,0.0,0,1646.0,1
1278,1278,-0.5454678531133871,-0.5,1.0,0.0,295.0,736.0,0.0,0,1969.0,1
1279,1279,0.8075858680784352,0.8,1.0,1.0,358.0,841.0,0.0,0,1801.0,0
1280,1280,0.6841548539019854,0.7,1.0,1.0,304.0,710.0,0.0,0,1986.0,0
1281,1281,0.008988739187561046,0.0,0.0,0.0,266.0,821.0,1.0,0,-907.0,0
1282,1282,-0.814148560555569,-0.8,0.0,1.0,353.0,701.0,1.0,0,-854.0,1
1283,1283,0.751836537741598,0.8,0.0,0.0,314.0,581.0,0.0,1,2105.0,1
1284,1284,-0.6314171406406435,-0.6,1.0,0.0,413.0,573.0,0.0,0,-986.0,1
1285,1285,-0.8243907499962938,-0.8,0.0,1.0,344.0,811.0,0.0,1,1845.0,0
1286,1286,-0.12908675882573417,-0.1,1.0,0.0,282.0,554.0,0.0,0,2164.0,1
1287,1287,0.6440145216793011,0.6,0.0,0.0,279.0,761.0,0.0,1,1960.0,1
1288,1288,-0.16937799099293882,-0.2,0.0,1.0,328.0,524.0,0.0,1,2148.0,0
1289,1289,-0.7749347662253562,-0.8,0.0,1.0,321.0,540.0,0.0,1,2139.0,0
1290,1290,0.5665535026131433,0.6,1.0,1.0,254.0,992.0,0.0,0,1754.0,0
1291,1291,0.3925107371682742,0.4,1.0,1.0,471.0,896.0,0.0,0,1633.0,0
1292,1292,-0.20996485733404313,-0.2,1.0,0.0,443.0,796.0,0.0,0,1761.0,1
1293,1293,-0.2503844829107492,-0.3,1.0,0.0,289.0,580.0,0.0,0,2131.0,1
1294,1294,0.6793645753386782,0.7,0.0,0.0,434.0,790.0,0.0,1,1776.0,1
1295,1295,0.2551211390950324,0.3,1.0,1.0,440.0,572.0,0.0,0,1988.0,0
1296,1296,0.33243177745667796,0.3,1.0,1.0,326.0,710.0,0.0,0,1964.0,0
1297,1297,0.6965231070047647,0.7,0.0,0.0,322.0,931.0,0.0,1,1747.0,1
1298,1298,-0.45428023597961614,-0.5,1.0,0.0,387.0,792.0,0.0,0,1821.0,1
1299,1299,-0.27619298215429333,-0.3,1.0,0.0,430.0,594.0,0.0,0,1976.0,1
1300,1300,0.6545185550702141,0.7,0.0,0.0,445.0,712.0,0.0,1,1843.0,1
1301,1301,-0.33383217704986134,-0.3,1.0,0.0,327.0,910.0,0.0,0,1763.0,1
1302,1302,0.005471778355764512,0.0,0.0,0.0,443.0,536.0,0.0,1,2021.0,1
1303,1303,0.12243837575839989,0.1,1.0,1.0,280.0,733.0,0.0,0,1987.0,0
1304,1304,-0.6285696363620157,-0.6,1.0,0.0,275.0,544.0,0.0,0,2181.0,1
1305,1305,0.012595716736002571,0.0,0.0,0.0,251.0,900.0,0.0,1,1849.0,1
1306,1306,0.8690042518545787,0.9,1.0,1.0,414.0,850.0,0.0,0,1736.0,0
1307,1307,0.7695416151459366,0.8,0.0,0.0,260.0,962.0,0.0,1,1778.0,1
1308,1308,-0.27528611180215645,-0.3,1.0,0.0,316.0,640.0,0.0,0,2044.0,1
1309,1309,0.5263476310716252,0.5,1.0,1.0,345.0,787.0,0.0,0,1868.0,0
1310,1310,-0.5923692511377349,-0.6,1.0,0.0,432.0,621.0,0.0,0,1947.0,1
1311,1311,0.7816702079642138,0.8,1.0,1.0,462.0,700.0,0.0,0,-1122.0,0
1312,1312,0.7179655301331508,0.7,1.0,1.0,462.0,879.0,0.0,0,1659.0,0
1313,1313,0.6401248122367286,0.6,0.0,0.0,443.0,644.0,0.0,1,1913.0,1
1314,1314,-0.23962934480581544,-0.2,1.0,0.0,403.0,799.0,0.0,0,1798.0,1
1315,1315,-0.46823849982441285,-0.5,0.0,1.0,351.0,807.0,0.0,1,1842.0,0
1316,1316,-0.44184818296746253,-0.4,1.0,0.0,401.0,509.0,0.0,0,2090.0,1
1317,1317,-0.5057455442693785,-0.5,1.0,0.0,448.0,686.0,0.0,0,1866.0,1
1318,1318,0.1646454100351057,0.2,0.0,0.0,439.0,866.0,1.0,0,-1245.0,0
1319,1319,-0.5646370641123606,-0.6,1.0,0.0,431.0,920.0,0.0,0,1649.0,1
1320,1320,0.3659140483111868,0.4,0.0,0.0,319.0,861.0,0.0,1,1820.0,1
1321,1321,-0.25773973974205666,-0.3,1.0,0.0,476.0,901.0,0.0,0,1623.0,1
1322,1322,-0.8511449852564121,-0.9,1.0,0.0,264.0,532.0,0.0,0,2204.0,1
1323,1323,0.16978946973220987,0.2,1.0,1.0,386.0,616.0,1.0,1,-952.0,1
1324,1324,0.7607962315168381,0.8,1.0,1.0,362.0,942.0,0.0,0,1696.0,0
1325,1325,-0.6675378666759307,-0.7,0.0,1.0,410.0,964.0,0.0,1,1626.0,0
1326,1326,0.2900275469380317,0.3,1.0,1.0,485.0,653.0,0.0,0,1862.0,0
1327,1327,0.19345539464411565,0.2,1.0,1.0,342.0,527.0,0.0,0,2131.0,0
1328,1328,-0.36640922891310157,-0.4,0.0,1.0,371.0,642.0,0.0,1,1987.0,0
1329,1329,0.7527760431642673,0.8,1.0,1.0,396.0,930.0,0.0,0,1674.0,0
1330,1330,-0.4643752751237293,-0.5,0.0,1.0,334.0,553.0,0.0,1,2113.0,0
1331,1331,0.09638025426100516,0.1,0.0,0.0,319.0,610.0,0.0,1,2071.0,1
1332,1332,0.6619634507942452,0.7,0.0,0.0,415.0,519.0,0.0,1,-834.0,1
1333,1333,0.6805059435967685,0.7,1.0,1.0,407.0,927.0,0.0,0,1666.0,0
1334,1334,-0.36489210594688526,-0.4,0.0,1.0,282.0,931.0,0.0,1,1787.0,0
1335,1335,0.47527188654095764,0.5,1.0,1.0,443.0,614.0,0.0,0,1943.0,0
1336,1336,-0.592860095082955,-0.6,0.0,1.0,294.0,629.0,0.0,1,2077.0,0
1337,1337,-0.023568206182353113,-0.0,0.0,1.0,425.0,816.0,0.0,1,1759.0,0
1338,1338,-0.24100476851245944,-0.2,0.0,1.0,296.0,763.0,0.0,1,-819.0,0
1339,1339,0.14844955743300503,0.1,1.0,1.0,338.0,640.0,1.0,1,-548.0,1
1340,1340,0.8677210580154192,0.9,1.0,1.0,353.0,548.0,0.0,0,2099.0,0
1341,1341,0.816465270247711,0.8,1.0,1.0,444.0,873.0,0.0,0,1683.0,0
1342,1342,0.6895161105005764,0.7,0.0,0.0,373.0,868.0,0.0,1,1759.0,1
1343,1343,0.2077114405797006,0.2,1.0,1.0,438.0,780.0,0.0,0,1782.0,0
1344,1344,-0.2366506814823376,-0.2,1.0,0.0,422.0,562.0,0.0,0,2016.0,1
1345,1345,0.4337079046660336,0.4,1.0,1.0,253.0,738.0,0.0,0,2009.0,0
1346,1346,-0.04311751343934089,-0.0,1.0,0.0,457.0,996.0,0.0,0,1547.0,1
1347,1347,-0.40012773175438293,-0.4,1.0,0.0,452.0,515.0,0.0,0,2033.0,1
1348,1348,-0.6827180588488708,-0.7,1.0,0.0,324.0,616.0,0.0,0,2060.0,1
1349,1349,0.8823318481257502,0.9,0.0,0.0,454.0,928.0,0.0,1,-1092.0,1
1350,1350,-0.7810759749576425,-0.8,1.0,0.0,276.0,705.0,0.0,0,2019.0,1
1351,1351,0.6616221332854816,0.7,0.0,0.0,396.0,762.0,0.0,1,1842.0,1
1352,1352,-0.03883942841740762,-0.0,0.0,1.0,406.0,811.0,0.0,1,1783.0,0
1353,1353,-0.461884045325582,-0.5,1.0,0.0,399.0,982.0,0.0,0,1619.0,1
1354,1354,0.07014488628911941,0.1,0.0,0.0,488.0,883.0,0.0,1,1629.0,1
1355,1355,-0.5458262448216097,-0.5,1.0,0.0,362.0,782.0,0.0,0,1856.0,1
1356,1356,0.5082563303331594,0.5,1.0,1.0,479.0,728.0,0.0,0,-1187.0,0
1357,1357,0.5268745212087956,0.5,1.0,1.0,463.0,777.0,0.0,0,1760.0,0
1358,1358,-0.8159907707614709,-0.8,1.0,0.0,351.0,597.0,0.0,0,2052.0,1
1359,1359,-0.15232360540836654,-0.2,1.0,0.0,369.0,675.0,0.0,0,1956.0,1
1360,1360,0.5090214655619975,0.5,1.0,1.0,412.0,573.0,0.0,0,2015.0,0
1361,1361,0.6958671092178385,0.7,1.0,1.0,439.0,647.0,0.0,0,1914.0,0
1362,1362,-0.0837168144180197,-0.1,1.0,0.0,446.0,586.0,0.0,0,1968.0,1
1363,1363,-0.5246620244935739,-0.5,0.0,1.0,418.0,764.0,0.0,1,-1172.0,0
1364,1364,0.601141341981232,0.6,1.0,1.0,444.0,972.0,1.0,1,-1336.0,1
1365,1365,0.24285792083971802,0.2,1.0,1.0,353.0,689.0,0.0,0,-992.0,0
1366,1366,0.6253471973497889,0.6,0.0,0.0,392.0,552.0,0.0,1,2056.0,1
1367,1367,-0.8602661748130146,-0.9,0.0,1.0,276.0,508.0,0.0,1,2216.0,0
1368,1368,0.6713187358990559,0.7,0.0,0.0,348.0,811.0,0.0,1,1841.0,1
1369,1369,0.8265114988490062,0.8,0.0,0.0,360.0,961.0,0.0,1,1679.0,1
1370,1370,0.11187233472110869,0.1,1.0,1.0,317.0,521.0,0.0,0,2162.0,0
1371,1371,-0.7514303329257329,-0.8,0.0,1.0,481.0,933.0,0.0,1,1586.0,0
1372,1372,0.03831684515707079,0.0,1.0,1.0,402.0,856.0,0.0,0,1742.0,0
1373,1373,-0.8784877896002937,-0.9,1.0,0.0,461.0,804.0,0.0,0,-1235.0,1
1374,1374,-0.7712216820994249,-0.8,1.0,0.0,384.0,686.0,0.0,0,1930.0,1
1375,1375,-0.23879630048097156,-0.2,1.0,0.0,310.0,771.0,0.0,0,1919.0,1
1376,1376,0.5345410682560051,0.5,0.0,0.0,424.0,592.0,0.0,1,1984.0,1
1377,1377,-0.5802573945972993,-0.6,0.0,1.0,330.0,871.0,0.0,1,-1141.0,0
1378,1378,-0.4651484013504818,-0.5,1.0,0.0,314.0,945.0,0.0,0,1741.0,1
1379,1379,0.7194392001091309,0.7,0.0,0.0,409.0,797.0,0.0,1,1794.0,1
1380,1380,0.7174731003897302,0.7,1.0,1.0,270.0,644.0,0.0,0,-884.0,0
1381,1381,0.4873168824996318,0.5,0.0,0.0,373.0,885.0,0.0,1,1742.0,1
1382,1382,-0.7402958477435126,-0.7,0.0,1.0,457.0,794.0,0.0,1,1749.0,0
1383,1383,0.6681604788733425,0.7,1.0,1.0,279.0,998.0,0.0,0,1723.0,0
1384,1384,0.6653625861671412,0.7,1.0,1.0,409.0,729.0,0.0,0,1862.0,0
1385,1385,0.3188453957537657,0.3,1.0,1.0,277.0,895.0,0.0,0,1828.0,0
1386,1386,0.16879339161627127,0.2,0.0,0.0,298.0,778.0,0.0,1,1924.0,1
1387,1387,-0.4607432147071067,-0.5,0.0,1.0,426.0,877.0,0.0,1,1697.0,0
1388,1388,0.645766028528394,0.6,0.0,0.0,450.0,551.0,0.0,1,1999.0,1
1389,1389,-0.5684808868667537,-0.6,1.0,0.0,424.0,586.0,0.0,0,1990.0,1
1390,1390,0.10696289546874904,0.1,0.0,0.0,466.0,688.0,0.0,1,1846.0,1
1391,1391,0.3280891460548926,0.3,1.0,1.0,373.0,824.0,0.0,0,1803.0,0
1392,1392,0.0833107789838371,0.1,0.0,0.0,263.0,559.0,0.0,1,2178.0,1
1393,1393,-0.28709765669535625,-0.3,0.0,1.0,453.0,750.0,0.0,1,1797.0,0
1394,1394,0.4414504500992521,0.4,0.0,0.0,389.0,712.0,0.0,1,1899.0,1
1395,1395,-0.11754564828320724,-0.1,0.0,1.0,433.0,659.0,0.0,1,1908.0,0
1396,1396,-0.46175859908535544,-0.5,0.0,1.0,340.0,861.0,1.0,0,-1021.0,1
1397,1397,0.4129565685606701,0.4,0.0,0.0,469.0,824.0,0.0,1,1707.0,1
1398,1398,0.8418244742568407,0.8,1.0,1.0,420.0,556.0,0.0,0,2024.0,0
1399,1399,-0.35125623607296796,-0.4,1.0,0.0,467.0,938.0,0.0,0,1595.0,1
1400,1400,0.6414049443487547,0.6,1.0,1.0,268.0,952.0,0.0,0,1780.0,0
1401,1401,0.8285825727802941,0.8,0.0,0.0,315.0,705.0,0.0,1,1980.0,1
1402,1402,-0.5966065742020253,-0.6,0.0,1.0,363.0,755.0,0.0,1,1882.0,0
1403,1403,-0.6201117950538582,-0.6,0.0,1.0,266.0,931.0,0.0,1,1803.0,0
1404,1404,0.3869301183894863,0.4,1.0,1.0,277.0,782.0,0.0,0,-1019.0,0
1405,1405,0.6537874964013793,0.7,0.0,0.0,252.0,914.0,0.0,1,1834.0,1
1406,1406,-0.8677448336087783,-0.9,1.0,0.0,426.0,504.0,0.0,0,2070.0,1
1407,1407,0.34003042371446945,0.3,1.0,1.0,325.0,948.0,0.0,0,1727.0,0
1408,1408,-0.5851676911399071,-0.6,1.0,0.0,360.0,672.0,0.0,0,1968.0,1
1409,1409,-0.44341087706565613,-0.4,1.0,0.0,277.0,557.0,0.0,0,2166.0,1
1410,1410,0.14250530815342077,0.1,0.0,0.0,490.0,708.0,0.0,1,1802.0,1
1411,1411,0.3593279491966629,0.4,1.0,1.0,391.0,922.0,0.0,0,1687.0,0
1412,1412,0.6612153699430455,0.7,1.0,1.0,474.0,776.0,0.0,0,1750.0,0
1413,1413,0.45530767421494056,0.5,1.0,1.0,485.0,834.0,0.0,0,1681.0,0
1414,1414,0.6873526659581245,0.7,1.0,1.0,265.0,962.0,0.0,0,1773.0,0
1415,1415,-0.3392543540382924,-0.3,0.0,1.0,296.0,620.0,0.0,1,2084.0,0
1416,1416,0.013524320493702668,0.0,1.0,1.0,263.0,500.0,0.0,0,2237.0,0
1417,1417,-0.5974974192090563,-0.6,0.0,1.0,293.0,677.0,0.0,1,2030.0,0
1418,1418,-0.8825020771040428,-0.9,0.0,1.0,410.0,787.0,0.0,1,1803.0,0
1419,1419,0.6695098516581558,0.7,1.0,1.0,307.0,894.0,0.0,0,1799.0,0
1420,1420,0.8864898018872497,0.9,0.0,0.0,332.0,505.0,0.0,1,2163.0,1
1421,1421,0.7373166375256693,0.7,0.0,0.0,383.0,943.0,0.0,1,1674.0,1
1422,1422,0.49754361347922405,0.5,1.0,1.0,351.0,948.0,0.0,0,1701.0,0
1423,1423,0.6380106828772573,0.6,0.0,0.0,467.0,550.0,0.0,1,1983.0,1
1424,1424,0.7543753480317609,0.8,1.0,1.0,434.0,843.0,0.0,0,1723.0,0
1425,1425,0.5667446505064603,0.6,0.0,0.0,473.0,910.0,0.0,1,1617.0,1
1426,1426,-0.6543221336021622,-0.7,0.0,1.0,357.0,561.0,0.0,1,2082.0,0
1427,1427,0.21194893043797414,0.2,0.0,0.0,308.0,759.0,0.0,1,1933.0,1
1428,1428,0.10007061698421504,0.1,1.0,1.0,418.0,969.0,1.0,1,-837.0,1
1429,1429,0.16955108174041567,0.2,1.0,1.0,456.0,644.0,0.0,0,1900.0,0
1430,1430,0.7957016515590397,0.8,0.0,0.0,412.0,501.0,0.0,1,2087.0,1
1431,1431,0.8068854367867108,0.8,0.0,0.0,465.0,949.0,0.0,1,1586.0,1
1432,1432,-0.8264817530980803,-0.8,1.0,0.0,366.0,806.0,0.0,0,-1042.0,1
1433,1433,-0.3018437903997081,-0.3,1.0,0.0,445.0,653.0,0.0,0,1902.0,1
1434,1434,0.04823596930247431,0.0,1.0,1.0,486.0,869.0,0.0,0,1645.0,0
1435,1435,0.467611266671372,0.5,1.0,1.0,452.0,739.0,0.0,0,1809.0,0
1436,1436,-0.042885069153698496,-0.0,0.0,1.0,472.0,777.0,0.0,1,1751.0,0
1437,1437,-0.5682179651924966,-0.6,0.0,1.0,416.0,888.0,0.0,1,1696.0,0
1438,1438,0.6509435095132902,0.7,0.0,0.0,346.0,925.0,0.0,1,1729.0,1
1439,1439,-0.12392602871922909,-0.1,1.0,0.0,456.0,770.0,0.0,0,1774.0,1
1440,1440,-0.26471466035781865,-0.3,0.0,1.0,398.0,856.0,0.0,1,1746.0,0
1441,1441,0.7570592462260867,0.8,0.0,0.0,345.0,618.0,0.0,1,2037.0,1
1442,1442,0.043892339253126744,0.0,0.0,0.0,350.0,585.0,0.0,1,2065.0,1
1443,1443,-0.43789194392779995,-0.4,1.0,0.0,468.0,535.0,0.0,0,-813.0,1
1444,1444,-0.5722587280979843,-0.6,0.0,1.0,418.0,530.0,0.0,1,2052.0,0
1445,1445,-0.3747289567129244,-0.4,1.0,0.0,275.0,846.0,0.0,0,1879.0,1
1446,1446,-0.6331181743917135,-0.6,1.0,0.0,455.0,519.0,0.0,0,2026.0,1
1447,1447,0.1627597908468298,0.2,0.0,0.0,497.0,842.0,0.0,1,1661.0,1
1448,1448,0.8783277831359665,0.9,1.0,1.0,425.0,823.0,0.0,0,1752.0,0
1449,1449,0.6874139379104217,0.7,1.0,1.0,289.0,886.0,0.0,0,1825.0,0
1450,1450,0.36498640939535487,0.4,0.0,0.0,409.0,947.0,0.0,1,1644.0,1
1451,1451,-0.2320418194540318,-0.2,0.0,1.0,472.0,513.0,0.0,1,2015.0,0
1452,1452,-0.6383178453871148,-0.6,1.0,0.0,293.0,712.0,0.0,0,1995.0,1
1453,1453,-0.3431801924267106,-0.3,0.0,1.0,311.0,860.0,0.0,1,1829.0,0
1454,1454,0.03246636317801754,0.0,0.0,0.0,270.0,577.0,0.0,1,2153.0,1
1455,1455,-0.7847592460456877,-0.8,1.0,0.0,389.0,662.0,0.0,0,1949.0,1
1456,1456,-0.052015616745390014,-0.1,0.0,1.0,495.0,987.0,0.0,1,1518.0,0
1457,1457,0.31544875947392426,0.3,1.0,1.0,412.0,868.0,0.0,0,1720.0,0
1458,1458,0.7911457668076715,0.8,0.0,0.0,462.0,515.0,0.0,1,2023.0,1
1459,1459,-0.16065371944686357,-0.2,0.0,1.0,415.0,825.0,0.0,1,1760.0,0
1460,1460,-0.18246070770477385,-0.2,0.0,1.0,483.0,513.0,0.0,1,-866.0,0
1461,1461,-0.39437889390189185,-0.4,1.0,0.0,351.0,773.0,0.0,0,1876.0,1
1462,1462,0.5380638024988821,0.5,0.0,0.0,274.0,656.0,0.0,1,2070.0,1
1463,1463,-0.04473182867188463,-0.0,1.0,0.0,325.0,785.0,0.0,0,1890.0,1
1464,1464,0.4379391944884873,0.4,1.0,1.0,334.0,839.0,0.0,0,-1173.0,0
1465,1465,-0.175447204421331,-0.2,0.0,1.0,463.0,870.0,0.0,1,1667.0,0
1466,1466,0.768525021951825,0.8,0.0,0.0,369.0,940.0,0.0,1,1691.0,1
1467,1467,0.7449120119894282,0.7,1.0,1.0,288.0,994.0,0.0,0,1718.0,0
1468,1468,-0.3672946489012613,-0.4,1.0,0.0,492.0,521.0,0.0,0,1987.0,1
1469,1469,0.37382333285458313,0.4,0.0,0.0,372.0,758.0,0.0,1,1870.0,1
1470,1470,0.6131527004639098,0.6,0.0,0.0,372.0,659.0,0.0,1,1969.0,1
