,trial,coherence,coherence_bin,green_side,correct_side,target_onset,checker_onset,decision,green_decision,decision_time,correct_decision
0,0,-0.41410772726606004,-0.4,0.0,1.0,258.0,981.0,1.0,0,311.0,1
1,1,-0.5728771582159764,-0.6,1.0,0.0,366.0,789.0,0.0,0,255.0,1
2,2,0.678789479074397,0.7,0.0,0.0,432.0,792.0,0.0,1,226.0,1
3,3,-0.8805091396938205,-0.9,1.0,0.0,279.0,585.0,0.0,0,176.0,1
4,4,-0.7224572467711761,-0.7,0.0,1.0,462.0,802.0,1.0,0,166.0,1
5,5,0.16134755631680464,0.2,0.0,0.0,323.0,585.0,0.0,1,912.0,1
6,6,0.3276208218768385,0.3,0.0,0.0,351.0,678.0,0.0,1,261.0,1
7,7,0.8863769724518648,0.9,1.0,1.0,476.0,780.0,1.0,1,304.0,1
8,8,-0.2678884352314932,-0.3,0.0,1.0,421.0,927.0,1.0,0,182.0,1
9,9,-0.16902098341623017,-0.2,0.0,1.0,346.0,974.0,1.0,0,330.0,1
10,10,-0.8923396304091934,-0.9,1.0,0.0,449.0,621.0,0.0,0,280.0,1
11,11,0.33059346409697243,0.3,0.0,0.0,262.0,847.0,0.0,1,471.0,1
12,12,-0.7234537077129675,-0.7,0.0,1.0,260.0,959.0,1.0,0,131.0,1
13,13,-0.42387073256673735,-0.4,1.0,0.0,281.0,754.0,0.0,0,455.0,1
14,14,-0.3581094975320669,-0.4,1.0,0.0,473.0,832.0,0.0,0,445.0,1
15,15,-0.4767464404409609,-0.5,1.0,0.0,412.0,699.0,0.0,0,279.0,1
16,16,0.525774106383723,0.5,0.0,0.0,319.0,659.0,0.0,1,232.0,1
17,17,0.20507663904694662,0.2,1.0,1.0,367.0,986.0,1.0,1,497.0,1
18,18,0.7260844692680021,0.7,1.0,1.0,378.0,667.0,1.0,1,145.0,1
19,19,-0.6135125133448915,-0.6,1.0,0.0,275.0,530.0,0.0,0,445.0,1
20,20,0.435652168922403,0.4,1.0,1.0,473.0,863.0,1.0,1,194.0,1
21,21,-0.14624786859004757,-0.1,1.0,0.0,270.0,881.0,0.0,0,1849.0,1
22,22,-0.08966755881841049,-0.1,1.0,0.0,254.0,982.0,0.0,0,1764.0,1
23,23,-0.7436472719011327,-0.7,0.0,1.0,324.0,599.0,1.0,0,197.0,1
24,24,-0.8536265053462411,-0.9,1.0,0.0,454.0,954.0,0.0,0,222.0,1
25,25,0.015472184821870405,0.0,1.0,1.0,494.0,660.0,1.0,1,106.0,1
26,26,0.36549488429092036,0.4,1.0,1.0,353.0,952.0,1.0,1,195.0,1
27,27,0.6306010873891411,0.6,1.0,1.0,317.0,755.0,1.0,1,308.0,1
28,28,-0.15428622470801934,-0.2,1.0,0.0,306.0,856.0,0.0,0,748.0,1
29,29,-0.8855831604592915,-0.9,1.0,0.0,348.0,655.0,0.0,0,107.0,1
30,30,-0.043766125955673085,-0.0,0.0,1.0,260.0,773.0,1.0,0,1967.0,1
31,31,-0.4778256446235176,-0.5,1.0,0.0,475.0,818.0,0.0,0,397.0,1
32,32,-0.7706835019471919,-0.8,1.0,0.0,359.0,610.0,0.0,0,331.0,1
33,33,-0.3861002035581922,-0.4,1.0,0.0,425.0,795.0,0.0,0,510.0,1
34,34,0.06657419041784862,0.1,1.0,1.0,318.0,673.0,1.0,1,1319.0,1
35,35,0.5208040579520271,0.5,0.0,0.0,429.0,922.0,0.0,1,209.0,1
36,36,-0.23378014555037652,-0.2,0.0,1.0,445.0,566.0,1.0,0,419.0,1
37,37,-0.8469702271039058,-0.8,1.0,0.0,368.0,968.0,0.0,0,464.0,1
38,38,-0.5426334919998299,-0.5,1.0,0.0,303.0,753.0,0.0,0,224.0,1
39,39,0.6773343518956786,0.7,0.0,0.0,430.0,614.0,0.0,1,176.0,1
40,40,-0.3872429954335679,-0.4,1.0,0.0,371.0,899.0,0.0,0,340.0,1
41,41,0.1792116230024824,0.2,1.0,1.0,460.0,677.0,1.0,1,903.0,1
42,42,0.4594828250006525,0.5,0.0,0.0,387.0,546.0,0.0,1,267.0,1
43,43,-0.7605186852823442,-0.8,1.0,0.0,405.0,913.0,0.0,0,242.0,1
44,44,0.4395186947972599,0.4,1.0,1.0,320.0,566.0,1.0,1,264.0,1
45,45,-0.10312784231423211,-0.1,0.0,1.0,342.0,972.0,1.0,0,226.0,1
46,46,-0.5747791678035903,-0.6,1.0,0.0,254.0,613.0,0.0,0,193.0,1
47,47,0.4055515965385431,0.4,1.0,1.0,420.0,558.0,1.0,1,272.0,1
48,48,-0.8257972701474631,-0.8,0.0,1.0,460.0,762.0,1.0,0,168.0,1
49,49,0.8095782570289792,0.8,1.0,1.0,253.0,827.0,1.0,1,300.0,1
50,50,-0.47914805570996677,-0.5,1.0,0.0,282.0,784.0,0.0,0,134.0,1
51,51,0.3095160531946529,0.3,1.0,1.0,487.0,912.0,1.0,1,461.0,1
52,52,-0.6605132308777879,-0.7,1.0,0.0,301.0,969.0,0.0,0,170.0,1
53,53,-0.0609214038974063,-0.1,1.0,0.0,412.0,735.0,1.0,1,203.0,0
54,54,-0.6539498796461302,-0.7,1.0,0.0,345.0,886.0,0.0,0,249.0,1
55,55,0.5205526759356235,0.5,0.0,0.0,408.0,641.0,0.0,1,211.0,1
56,56,-0.1865871431540831,-0.2,0.0,1.0,320.0,568.0,1.0,0,442.0,1
57,57,-0.49100510492397914,-0.5,0.0,1.0,261.0,619.0,1.0,0,300.0,1
58,58,0.5767647959040535,0.6,1.0,1.0,312.0,739.0,1.0,1,219.0,1
59,59,-0.14944390675733488,-0.1,1.0,0.0,434.0,728.0,1.0,1,-152.0,0
60,60,-0.3559710637720509,-0.4,0.0,1.0,425.0,689.0,1.0,0,346.0,1
61,61,-0.028017798230770552,-0.0,0.0,1.0,296.0,500.0,1.0,0,2204.0,1
62,62,-0.3440198290934492,-0.3,0.0,1.0,481.0,740.0,1.0,0,189.0,1
63,63,0.11604905370520668,0.1,0.0,0.0,467.0,810.0,0.0,1,1723.0,1
64,64,0.11075869476263167,0.1,1.0,1.0,449.0,981.0,1.0,1,370.0,1
65,65,0.26131725168295417,0.3,0.0,0.0,390.0,590.0,0.0,1,250.0,1
66,66,0.36133360006299375,0.4,1.0,1.0,410.0,879.0,1.0,1,291.0,1
67,67,0.033089770087177395,0.0,1.0,1.0,273.0,712.0,1.0,1,-135.0,1
68,68,0.46205083833784244,0.5,1.0,1.0,455.0,525.0,1.0,1,280.0,1
69,69,0.683038787770181,0.7,1.0,1.0,439.0,805.0,1.0,1,146.0,1
70,70,-0.42709359233439576,-0.4,1.0,0.0,435.0,597.0,0.0,0,198.0,1
71,71,0.713698593513714,0.7,1.0,1.0,306.0,893.0,1.0,1,141.0,1
72,72,0.606648472517752,0.6,1.0,1.0,264.0,876.0,1.0,1,600.0,1
73,73,-0.051810664065112366,-0.1,1.0,0.0,422.0,590.0,0.0,0,378.0,1
74,74,0.026945188083768445,0.0,1.0,1.0,306.0,696.0,1.0,1,1998.0,1
75,75,0.26613507126748936,0.3,1.0,1.0,319.0,546.0,1.0,1,855.0,1
76,76,0.07413411337584475,0.1,1.0,1.0,302.0,651.0,1.0,1,227.0,1
77,77,0.3086704760961253,0.3,0.0,0.0,492.0,738.0,0.0,1,620.0,1
78,78,-0.6255127408663645,-0.6,1.0,0.0,486.0,904.0,0.0,0,190.0,1
79,79,-0.014723568093115702,-0.0,0.0,1.0,259.0,687.0,1.0,0,2054.0,1
80,80,0.45386520448171586,0.5,1.0,1.0,263.0,501.0,1.0,1,256.0,1
81,81,-0.022801705505866465,-0.0,1.0,0.0,358.0,753.0,1.0,1,1889.0,0
82,82,-0.0233761306762863,-0.0,1.0,0.0,341.0,889.0,1.0,1,1130.0,0
83,83,0.8380226801189933,0.8,0.0,0.0,430.0,621.0,0.0,1,179.0,1
84,84,0.04500894419037793,0.0,1.0,1.0,314.0,998.0,1.0,1,478.0,1
85,85,0.7540451062497159,0.8,0.0,0.0,499.0,741.0,0.0,1,150.0,1
86,86,-0.7041977297205366,-0.7,0.0,1.0,405.0,722.0,1.0,0,213.0,1
87,87,0.7367203593903929,0.7,1.0,1.0,287.0,816.0,1.0,1,107.0,1
88,88,-0.32958060630512953,-0.3,0.0,1.0,346.0,532.0,1.0,0,462.0,1
89,89,0.5139503129000976,0.5,0.0,0.0,399.0,706.0,0.0,1,245.0,1
90,90,0.1260514583601332,0.1,0.0,0.0,420.0,535.0,0.0,1,445.0,1
91,91,0.8889929926241588,0.9,0.0,0.0,467.0,611.0,0.0,1,232.0,1
92,92,0.617486806668777,0.6,0.0,0.0,399.0,815.0,0.0,1,286.0,1
93,93,-0.05050922877838737,-0.1,0.0,1.0,388.0,664.0,1.0,0,1948.0,1
94,94,0.7871486614485445,0.8,1.0,1.0,427.0,972.0,1.0,1,-499.0,1
95,95,0.6861050522649369,0.7,1.0,1.0,283.0,877.0,1.0,1,110.0,1
96,96,0.781717236422789,0.8,0.0,0.0,488.0,771.0,0.0,1,191.0,1
97,97,0.8514489933610506,0.9,0.0,0.0,354.0,962.0,0.0,1,334.0,1
98,98,-0.347145971211553,-0.3,0.0,1.0,446.0,675.0,1.0,0,229.0,1
99,99,-0.7121919904331993,-0.7,1.0,0.0,308.0,769.0,0.0,0,293.0,1
100,100,-0.751920245466222,-0.8,0.0,1.0,273.0,686.0,1.0,0,141.0,1
101,101,-0.07043389441782677,-0.1,1.0,0.0,315.0,557.0,1.0,1,348.0,0
102,102,0.7715986015237984,0.8,0.0,0.0,303.0,582.0,0.0,1,205.0,1
103,103,0.3772147078829481,0.4,0.0,0.0,255.0,633.0,0.0,1,192.0,1
104,104,-0.7846635524536031,-0.8,0.0,1.0,390.0,555.0,1.0,0,45.0,1
105,105,0.7540665568112642,0.8,0.0,0.0,467.0,991.0,0.0,1,212.0,1
106,106,0.19236056455778183,0.2,0.0,0.0,266.0,572.0,0.0,1,942.0,1
107,107,0.7169011014522843,0.7,0.0,0.0,349.0,604.0,0.0,1,207.0,1
108,108,0.012939713656171414,0.0,1.0,1.0,484.0,502.0,1.0,1,2014.0,1
109,109,-0.3650296549231776,-0.4,0.0,1.0,444.0,552.0,1.0,0,294.0,1
110,110,-0.09323908076658172,-0.1,0.0,1.0,291.0,847.0,1.0,0,552.0,1
111,111,-0.2978889194071169,-0.3,0.0,1.0,359.0,634.0,1.0,0,177.0,1
112,112,0.7966439623392619,0.8,0.0,0.0,300.0,898.0,0.0,1,222.0,1
113,113,-0.6195614587188308,-0.6,0.0,1.0,271.0,503.0,1.0,0,346.0,1
114,114,0.20570302591099476,0.2,0.0,0.0,486.0,850.0,0.0,1,814.0,1
115,115,-0.6101631954621309,-0.6,1.0,0.0,301.0,767.0,0.0,0,162.0,1
116,116,-0.22526870132126786,-0.2,1.0,0.0,254.0,730.0,0.0,0,706.0,1
117,117,0.18269619549082627,0.2,1.0,1.0,496.0,573.0,1.0,1,361.0,1
118,118,0.15026669896672795,0.2,0.0,0.0,342.0,696.0,0.0,1,482.0,1
119,119,0.011643116124655073,0.0,0.0,0.0,475.0,734.0,0.0,1,1791.0,1
120,120,0.5765630954137785,0.6,1.0,1.0,453.0,811.0,1.0,1,156.0,1
121,121,-0.7703916147535753,-0.8,0.0,1.0,265.0,811.0,1.0,0,54.0,1
122,122,-0.09412334504671016,-0.1,1.0,0.0,287.0,758.0,0.0,0,1755.0,1
123,123,0.6695221864492497,0.7,1.0,1.0,369.0,517.0,1.0,1,244.0,1
124,124,-0.6967520025705336,-0.7,1.0,0.0,323.0,813.0,0.0,0,284.0,1
125,125,0.3093975885712704,0.3,1.0,1.0,470.0,939.0,1.0,1,201.0,1
126,126,-0.7059720565077812,-0.7,1.0,0.0,484.0,993.0,0.0,0,153.0,1
127,127,0.11417403189830477,0.1,1.0,1.0,287.0,587.0,1.0,1,646.0,1
128,128,-0.39226562571406964,-0.4,1.0,0.0,392.0,829.0,1.0,1,-151.0,0
129,129,0.5667894619939718,0.6,1.0,1.0,300.0,520.0,1.0,1,200.0,1
130,130,-0.46711367916515273,-0.5,0.0,1.0,291.0,903.0,1.0,0,296.0,1
131,131,-0.15494200239675004,-0.2,0.0,1.0,448.0,509.0,1.0,0,503.0,1
132,132,0.668386375571589,0.7,1.0,1.0,478.0,557.0,1.0,1,375.0,1
133,133,-0.40969314260210304,-0.4,1.0,0.0,307.0,809.0,0.0,0,294.0,1
134,134,-0.8766040832777727,-0.9,1.0,0.0,330.0,790.0,0.0,0,190.0,1
135,135,-0.7337200874683032,-0.7,1.0,0.0,317.0,698.0,0.0,0,185.0,1
136,136,-0.504092939560603,-0.5,1.0,0.0,406.0,520.0,0.0,0,164.0,1
137,137,-0.6851639153281869,-0.7,1.0,0.0,453.0,850.0,0.0,0,167.0,1
138,138,-0.819303204825911,-0.8,0.0,1.0,465.0,700.0,1.0,0,175.0,1
139,139,0.1629905546639966,0.2,0.0,0.0,473.0,564.0,0.0,1,1013.0,1
140,140,-0.45816639429443023,-0.5,0.0,1.0,289.0,826.0,1.0,0,65.0,1
141,141,0.5438188370601872,0.5,1.0,1.0,453.0,724.0,1.0,1,163.0,1
142,142,0.634164510126492,0.6,1.0,1.0,391.0,968.0,1.0,1,271.0,1
143,143,-0.06631097429923904,-0.1,0.0,1.0,449.0,539.0,1.0,0,1112.0,1
144,144,0.3875809554516364,0.4,0.0,0.0,395.0,921.0,0.0,1,204.0,1
145,145,0.8236427387316939,0.8,0.0,0.0,452.0,515.0,0.0,1,143.0,1
146,146,-0.8200599202347453,-0.8,0.0,1.0,257.0,527.0,1.0,0,266.0,1
147,147,0.5391065749520786,0.5,1.0,1.0,449.0,930.0,1.0,1,181.0,1
148,148,-0.818498067821397,-0.8,0.0,1.0,384.0,773.0,1.0,0,133.0,1
149,149,0.227891891871138,0.2,0.0,0.0,280.0,655.0,0.0,1,935.0,1
150,150,-0.15097053557855977,-0.2,0.0,1.0,349.0,767.0,1.0,0,84.0,1
151,151,-0.1493998216894592,-0.1,0.0,1.0,290.0,616.0,1.0,0,764.0,1
152,152,0.6457803122674141,0.6,1.0,1.0,417.0,719.0,1.0,1,204.0,1
153,153,0.3436183570409487,0.3,0.0,0.0,488.0,548.0,0.0,1,324.0,1
154,154,-0.12895071671803182,-0.1,1.0,0.0,422.0,830.0,0.0,0,848.0,1
155,155,0.7083778707117577,0.7,1.0,1.0,455.0,991.0,1.0,1,214.0,1
156,156,-0.2887010026798432,-0.3,0.0,1.0,371.0,582.0,1.0,0,507.0,1
157,157,-0.7722425670062742,-0.8,0.0,1.0,395.0,573.0,1.0,0,272.0,1
158,158,-0.5459732282102909,-0.5,0.0,1.0,373.0,541.0,1.0,0,136.0,1
159,159,-0.6893566806035305,-0.7,1.0,0.0,350.0,765.0,0.0,0,335.0,1
160,160,0.1407663141591765,0.1,1.0,1.0,267.0,507.0,1.0,1,406.0,1
161,161,0.5682425169624655,0.6,0.0,0.0,472.0,652.0,0.0,1,166.0,1
162,162,-0.7818049760308649,-0.8,0.0,1.0,452.0,720.0,1.0,0,188.0,1
163,163,0.20049182778886088,0.2,0.0,0.0,339.0,502.0,0.0,1,1249.0,1
164,164,-0.3841733427647366,-0.4,0.0,1.0,446.0,930.0,1.0,0,324.0,1
165,165,0.013742351422786347,0.0,0.0,0.0,332.0,803.0,1.0,0,1865.0,0
166,166,0.6402165224454058,0.6,1.0,1.0,280.0,862.0,1.0,1,128.0,1
167,167,0.6012268653297085,0.6,1.0,1.0,459.0,567.0,1.0,1,364.0,1
168,168,-0.21133644885657354,-0.2,1.0,0.0,407.0,696.0,0.0,0,637.0,1
169,169,0.7317165754703397,0.7,0.0,0.0,307.0,640.0,0.0,1,143.0,1
170,170,-0.3691416133248525,-0.4,0.0,1.0,424.0,824.0,1.0,0,142.0,1
171,171,0.48775862241812507,0.5,1.0,1.0,372.0,661.0,1.0,1,297.0,1
172,172,-0.7970081484837749,-0.8,1.0,0.0,311.0,705.0,0.0,0,184.0,1
173,173,-0.6523325351407655,-0.7,0.0,1.0,438.0,647.0,1.0,0,85.0,1
174,174,0.7774725388794249,0.8,1.0,1.0,333.0,988.0,1.0,1,159.0,1
175,175,0.08706498071164737,0.1,0.0,0.0,288.0,504.0,0.0,1,2208.0,1
176,176,-0.3127964758223424,-0.3,1.0,0.0,349.0,876.0,1.0,1,-185.0,0
177,177,-0.6798791886141728,-0.7,1.0,0.0,363.0,933.0,0.0,0,224.0,1
178,178,-0.6344260527938207,-0.6,0.0,1.0,480.0,712.0,1.0,0,118.0,1
179,179,0.7478773958867065,0.7,0.0,0.0,459.0,752.0,0.0,1,199.0,1
180,180,-0.645163695831056,-0.6,0.0,1.0,434.0,900.0,1.0,0,196.0,1
181,181,-0.06764812139989251,-0.1,1.0,0.0,277.0,602.0,0.0,0,2121.0,1
182,182,-0.31258913338624217,-0.3,0.0,1.0,324.0,514.0,1.0,0,462.0,1
183,183,0.5446477443150507,0.5,0.0,0.0,264.0,519.0,0.0,1,347.0,1
184,184,-0.5481634497944671,-0.5,1.0,0.0,441.0,630.0,0.0,0,129.0,1
185,185,0.45857026620557406,0.5,0.0,0.0,364.0,955.0,0.0,1,251.0,1
186,186,0.30471465498343264,0.3,0.0,0.0,373.0,804.0,0.0,1,403.0,1
187,187,-0.18630514116663188,-0.2,0.0,1.0,257.0,725.0,1.0,0,428.0,1
188,188,-0.14201767879247573,-0.1,1.0,0.0,411.0,572.0,0.0,0,1517.0,1
189,189,0.8322441067655294,0.8,0.0,0.0,385.0,775.0,0.0,1,200.0,1
190,190,0.056302943302727226,0.1,1.0,1.0,262.0,949.0,1.0,1,1789.0,1
191,191,-0.09437732731636561,-0.1,0.0,1.0,473.0,662.0,1.0,0,195.0,1
192,192,-0.5032834323077815,-0.5,0.0,1.0,497.0,963.0,1.0,0,50.0,1
193,193,0.34813475867147814,0.3,1.0,1.0,345.0,610.0,1.0,1,365.0,1
194,194,0.7664355838054243,0.8,1.0,1.0,399.0,513.0,1.0,1,198.0,1
195,195,0.7593557725934549,0.8,1.0,1.0,279.0,546.0,1.0,1,1575.0,1
196,196,0.8961288431463955,0.9,1.0,1.0,296.0,655.0,1.0,1,169.0,1
197,197,0.6995182785783701,0.7,0.0,0.0,381.0,855.0,0.0,1,224.0,1
198,198,0.8729538085182423,0.9,1.0,1.0,395.0,892.0,1.0,1,123.0,1
199,199,-0.654227182478224,-0.7,0.0,1.0,377.0,929.0,1.0,0,204.0,1
200,200,-0.20464759510601438,-0.2,0.0,1.0,462.0,807.0,1.0,0,541.0,1
201,201,0.1413131547619303,0.1,1.0,1.0,453.0,810.0,1.0,1,277.0,1
202,202,0.8817493777523319,0.9,1.0,1.0,448.0,848.0,1.0,1,104.0,1
203,203,0.26292151728180013,0.3,1.0,1.0,498.0,919.0,1.0,1,313.0,1
204,204,-0.03586740845314651,-0.0,1.0,0.0,295.0,975.0,0.0,0,1730.0,1
205,205,-0.735159994724713,-0.7,1.0,0.0,415.0,854.0,0.0,0,121.0,1
206,206,-0.15032303820347737,-0.2,0.0,1.0,458.0,602.0,1.0,0,660.0,1
207,207,-0.2655978628090362,-0.3,1.0,0.0,410.0,582.0,0.0,0,248.0,1
208,208,-0.3927684492346506,-0.4,1.0,0.0,488.0,815.0,0.0,0,367.0,1
209,209,0.0011582226192038414,0.0,0.0,0.0,427.0,926.0,1.0,0,1647.0,0
210,210,-0.8195093439191237,-0.8,1.0,0.0,399.0,602.0,0.0,0,189.0,1
211,211,-0.16301523602682844,-0.2,0.0,1.0,289.0,665.0,1.0,0,226.0,1
212,212,0.19285588260864295,0.2,1.0,1.0,354.0,696.0,1.0,1,390.0,1
213,213,-0.2481382723706851,-0.2,1.0,0.0,477.0,704.0,0.0,0,619.0,1
214,214,-0.35896053862259725,-0.4,1.0,0.0,408.0,906.0,0.0,0,566.0,1
215,215,-0.3753518009121881,-0.4,0.0,1.0,435.0,581.0,1.0,0,224.0,1
216,216,0.4500803619021473,0.5,0.0,0.0,423.0,520.0,0.0,1,617.0,1
217,217,-0.022183823813590187,-0.0,1.0,0.0,434.0,873.0,0.0,0,1693.0,1
218,218,-0.07703662568352232,-0.1,0.0,1.0,250.0,586.0,1.0,0,624.0,1
219,219,0.14740057026772801,0.1,1.0,1.0,321.0,959.0,1.0,1,290.0,1
220,220,-0.41779102790038103,-0.4,1.0,0.0,298.0,532.0,0.0,0,400.0,1
221,221,-0.09538395206975558,-0.1,0.0,1.0,336.0,930.0,1.0,0,544.0,1
222,222,-0.4441536550797715,-0.4,1.0,0.0,403.0,707.0,0.0,0,390.0,1
223,223,0.728232857587051,0.7,0.0,0.0,363.0,581.0,0.0,1,236.0,1
224,224,-0.5702961547302641,-0.6,0.0,1.0,346.0,958.0,1.0,0,-134.0,1
225,225,0.7570542110551873,0.8,1.0,1.0,255.0,612.0,1.0,1,73.0,1
226,226,-0.36005063411304195,-0.4,0.0,1.0,348.0,594.0,1.0,0,328.0,1
227,227,0.3440990376127572,0.3,0.0,0.0,252.0,900.0,0.0,1,338.0,1
228,228,-0.06226051055169868,-0.1,0.0,1.0,488.0,586.0,1.0,0,806.0,1
229,229,0.26505608371255474,0.3,1.0,1.0,446.0,772.0,1.0,1,132.0,1
230,230,0.40463662948706747,0.4,0.0,0.0,429.0,988.0,0.0,1,353.0,1
231,231,-0.4917687945073849,-0.5,0.0,1.0,453.0,520.0,1.0,0,277.0,1
232,232,0.31439315187840144,0.3,1.0,1.0,395.0,888.0,1.0,1,327.0,1
233,233,-0.6897783224952359,-0.7,1.0,0.0,448.0,822.0,0.0,0,310.0,1
234,234,0.45986869742115666,0.5,0.0,0.0,412.0,851.0,0.0,1,227.0,1
235,235,-0.41621622728558766,-0.4,1.0,0.0,328.0,742.0,0.0,0,470.0,1
236,236,0.6885315122021504,0.7,0.0,0.0,461.0,574.0,0.0,1,325.0,1
237,237,0.7888283561756074,0.8,0.0,0.0,285.0,877.0,0.0,1,78.0,1
238,238,-0.15842843859512656,-0.2,1.0,0.0,274.0,789.0,0.0,0,757.0,1
239,239,-0.6909110239764698,-0.7,1.0,0.0,316.0,798.0,0.0,0,596.0,1
240,240,-0.5050158398946422,-0.5,0.0,1.0,332.0,706.0,1.0,0,352.0,1
241,241,0.6376531888439457,0.6,0.0,0.0,312.0,557.0,0.0,1,241.0,1
242,242,0.832002762405372,0.8,1.0,1.0,391.0,692.0,1.0,1,277.0,1
243,243,0.18178367872462242,0.2,0.0,0.0,306.0,552.0,0.0,1,502.0,1
244,244,0.4705661160543205,0.5,1.0,1.0,257.0,542.0,1.0,1,391.0,1
245,245,0.5901503646101586,0.6,1.0,1.0,410.0,828.0,1.0,1,242.0,1
246,246,-0.6673548300777494,-0.7,1.0,0.0,301.0,571.0,0.0,0,58.0,1
247,247,0.585842015023014,0.6,1.0,1.0,345.0,696.0,1.0,1,649.0,1
248,248,-0.8380399813813026,-0.8,0.0,1.0,407.0,993.0,1.0,0,230.0,1
249,249,-0.2971634122137131,-0.3,0.0,1.0,278.0,664.0,1.0,0,278.0,1
250,250,-0.13497641699339402,-0.1,1.0,0.0,323.0,936.0,0.0,0,1741.0,1
251,251,0.5213917205943709,0.5,1.0,1.0,439.0,777.0,1.0,1,214.0,1
252,252,-0.6467436613404705,-0.6,1.0,0.0,319.0,665.0,0.0,0,406.0,1
253,253,0.06244317115535225,0.1,1.0,1.0,307.0,941.0,1.0,1,502.0,1
254,254,0.7394812217329393,0.7,1.0,1.0,279.0,976.0,1.0,1,105.0,1
255,255,0.17547585479375838,0.2,1.0,1.0,459.0,636.0,1.0,1,475.0,1
256,256,0.6289316965049377,0.6,0.0,0.0,348.0,753.0,0.0,1,109.0,1
257,257,-0.3314744362735865,-0.3,1.0,0.0,346.0,528.0,0.0,0,456.0,1
258,258,-0.33689203125132994,-0.3,1.0,0.0,305.0,843.0,0.0,0,312.0,1
259,259,-0.8849520742356564,-0.9,1.0,0.0,384.0,507.0,0.0,0,149.0,1
260,260,0.8092586667679235,0.8,1.0,1.0,413.0,664.0,1.0,1,153.0,1
261,261,0.7695411802602913,0.8,0.0,0.0,378.0,837.0,0.0,1,155.0,1
262,262,0.022632937647400486,0.0,0.0,0.0,489.0,862.0,1.0,0,1649.0,0
263,263,0.15025929244078184,0.2,1.0,1.0,365.0,763.0,1.0,1,232.0,1
264,264,0.11531650322341969,0.1,1.0,1.0,390.0,587.0,1.0,1,1813.0,1
265,265,0.44980561820612597,0.4,0.0,0.0,442.0,510.0,0.0,1,328.0,1
266,266,-0.5270025888132006,-0.5,1.0,0.0,326.0,721.0,0.0,0,223.0,1
267,267,0.6726863773311257,0.7,1.0,1.0,455.0,573.0,1.0,1,102.0,1
268,268,0.06746903527529569,0.1,0.0,0.0,415.0,928.0,0.0,1,1657.0,1
269,269,-0.781111402521503,-0.8,0.0,1.0,360.0,900.0,1.0,0,160.0,1
270,270,-0.7651770335569571,-0.8,0.0,1.0,333.0,926.0,1.0,0,141.0,1
271,271,-0.3925392146236205,-0.4,0.0,1.0,289.0,578.0,1.0,0,433.0,1
272,272,0.7289316748231996,0.7,1.0,1.0,368.0,858.0,1.0,1,34.0,1
273,273,-0.570838781704631,-0.6,0.0,1.0,302.0,630.0,1.0,0,468.0,1
274,274,0.5388740777317055,0.5,1.0,1.0,419.0,582.0,1.0,1,179.0,1
275,275,-0.07988384373999258,-0.1,0.0,1.0,329.0,932.0,1.0,0,559.0,1
276,276,-0.8126152181781481,-0.8,1.0,0.0,251.0,716.0,0.0,0,183.0,1
277,277,0.043015804333722873,0.0,1.0,1.0,461.0,963.0,1.0,1,686.0,1
278,278,-0.3486657057164797,-0.3,0.0,1.0,363.0,502.0,1.0,0,365.0,1
279,279,0.08914740788015074,0.1,0.0,0.0,398.0,655.0,0.0,1,1387.0,1
280,280,-0.20631823562868323,-0.2,0.0,1.0,356.0,958.0,1.0,0,366.0,1
281,281,0.03206721808333779,0.0,0.0,0.0,332.0,816.0,1.0,0,1852.0,0
282,282,0.693371147378924,0.7,0.0,0.0,387.0,881.0,0.0,1,212.0,1
283,283,-0.21572432037821332,-0.2,0.0,1.0,314.0,577.0,1.0,0,339.0,1
284,284,0.6123008292181414,0.6,1.0,1.0,421.0,985.0,1.0,1,144.0,1
285,285,0.6167977149535061,0.6,0.0,0.0,286.0,703.0,0.0,1,261.0,1
286,286,-0.7154866838850956,-0.7,1.0,0.0,408.0,890.0,1.0,1,-68.0,0
287,287,0.7476905855054815,0.7,0.0,0.0,379.0,825.0,0.0,1,196.0,1
288,288,0.1364250418079621,0.1,1.0,1.0,393.0,665.0,1.0,1,922.0,1
289,289,0.016424609424459002,0.0,1.0,1.0,335.0,538.0,1.0,1,2127.0,1
290,290,-0.38347908404918807,-0.4,1.0,0.0,307.0,816.0,0.0,0,317.0,1
291,291,-0.5552316678223018,-0.6,1.0,0.0,423.0,904.0,0.0,0,313.0,1
292,292,-0.18145527843557208,-0.2,1.0,0.0,283.0,747.0,0.0,0,1030.0,1
293,293,-0.21422878252089206,-0.2,1.0,0.0,312.0,973.0,0.0,0,375.0,1
294,294,-0.023354806818735918,-0.0,1.0,0.0,319.0,692.0,0.0,0,729.0,1
295,295,-0.5068437697252448,-0.5,0.0,1.0,396.0,562.0,1.0,0,182.0,1
296,296,-0.7991185025132624,-0.8,0.0,1.0,349.0,597.0,1.0,0,14.0,1
297,297,0.7999424555168267,0.8,1.0,1.0,357.0,646.0,1.0,1,127.0,1
298,298,0.35305975342546014,0.4,0.0,0.0,254.0,535.0,0.0,1,541.0,1
299,299,-0.20245741533482253,-0.2,1.0,0.0,337.0,944.0,0.0,0,729.0,1
300,300,-0.7397964137370443,-0.7,0.0,1.0,426.0,980.0,1.0,0,84.0,1
301,301,0.4049026651589117,0.4,0.0,0.0,312.0,836.0,0.0,1,412.0,1
302,302,-0.8685623308565786,-0.9,1.0,0.0,315.0,970.0,0.0,0,205.0,1
303,303,0.17700420542624962,0.2,1.0,1.0,483.0,918.0,1.0,1,729.0,1
304,304,-0.14112052202744674,-0.1,1.0,0.0,399.0,993.0,0.0,0,568.0,1
305,305,-0.08067215185622556,-0.1,0.0,1.0,263.0,674.0,1.0,0,653.0,1
306,306,0.6476801051865998,0.6,0.0,0.0,410.0,505.0,0.0,1,215.0,1
307,307,-0.17656095871602462,-0.2,1.0,0.0,423.0,864.0,0.0,0,593.0,1
308,308,-0.5348124927086761,-0.5,0.0,1.0,342.0,961.0,1.0,0,237.0,1
309,309,-0.18665585847713295,-0.2,1.0,0.0,467.0,606.0,0.0,0,957.0,1
310,310,0.8213208003572231,0.8,1.0,1.0,499.0,894.0,1.0,1,217.0,1
311,311,-0.3586188984198966,-0.4,0.0,1.0,337.0,736.0,1.0,0,207.0,1
312,312,0.39368488098011334,0.4,1.0,1.0,459.0,662.0,1.0,1,209.0,1
313,313,-0.5503397032457569,-0.6,1.0,0.0,449.0,732.0,0.0,0,99.0,1
314,314,0.3457879650270418,0.3,0.0,0.0,411.0,652.0,0.0,1,367.0,1
315,315,0.6768468773941233,0.7,1.0,1.0,277.0,551.0,1.0,1,142.0,1
316,316,0.5103574809256973,0.5,1.0,1.0,262.0,786.0,1.0,1,192.0,1
317,317,0.6845497020037515,0.7,0.0,0.0,306.0,533.0,0.0,1,281.0,1
318,318,-0.2287353559537586,-0.2,1.0,0.0,326.0,591.0,0.0,0,183.0,1
319,319,-0.32102912467917954,-0.3,0.0,1.0,440.0,960.0,1.0,0,250.0,1
320,320,0.694523936925065,0.7,1.0,1.0,292.0,861.0,1.0,1,127.0,1
321,321,-0.5123030517051981,-0.5,0.0,1.0,370.0,804.0,1.0,0,226.0,1
322,322,-0.18150477426436662,-0.2,1.0,0.0,296.0,545.0,0.0,0,1429.0,1
323,323,0.541163117806157,0.5,0.0,0.0,381.0,928.0,0.0,1,231.0,1
324,324,0.6333807452254191,0.6,1.0,1.0,354.0,704.0,1.0,1,292.0,1
325,325,0.8522824723817798,0.9,1.0,1.0,273.0,807.0,1.0,1,110.0,1
326,326,-0.514996385454014,-0.5,0.0,1.0,250.0,532.0,1.0,0,218.0,1
327,327,-0.5166672213067138,-0.5,0.0,1.0,423.0,627.0,1.0,0,530.0,1
328,328,-0.08126231699950104,-0.1,1.0,0.0,460.0,628.0,0.0,0,1912.0,1
329,329,0.16262225146995768,0.2,1.0,1.0,318.0,684.0,1.0,1,128.0,1
330,330,0.881890415763935,0.9,0.0,0.0,260.0,776.0,0.0,1,164.0,1
331,331,-0.8880200059265132,-0.9,1.0,0.0,439.0,993.0,1.0,1,-322.0,0
332,332,0.183544464691071,0.2,0.0,0.0,477.0,841.0,0.0,1,282.0,1
333,333,-0.6843647719566164,-0.7,1.0,0.0,354.0,685.0,0.0,0,171.0,1
334,334,-0.8442342574712034,-0.8,1.0,0.0,343.0,999.0,0.0,0,238.0,1
335,335,0.007208787348759627,0.0,0.0,0.0,376.0,663.0,1.0,0,1961.0,0
336,336,-0.043416750767591106,-0.0,0.0,1.0,458.0,762.0,1.0,0,1780.0,1
337,337,0.07003664495025064,0.1,0.0,0.0,297.0,846.0,0.0,1,1757.0,1
338,338,0.30747660086559925,0.3,1.0,1.0,468.0,769.0,1.0,1,893.0,1
339,339,-0.023636811685901704,-0.0,0.0,1.0,280.0,922.0,0.0,1,1798.0,0
340,340,0.32805632316754896,0.3,0.0,0.0,497.0,814.0,0.0,1,359.0,1
341,341,-0.8584529983033492,-0.9,0.0,1.0,275.0,702.0,1.0,0,163.0,1
342,342,-0.501065343491152,-0.5,1.0,0.0,406.0,884.0,0.0,0,420.0,1
343,343,0.7677992856738606,0.8,0.0,0.0,270.0,542.0,0.0,1,88.0,1
344,344,-0.36612383079017974,-0.4,1.0,0.0,429.0,808.0,0.0,0,243.0,1
345,345,0.3124678329482894,0.3,1.0,1.0,333.0,625.0,1.0,1,62.0,1
346,346,-0.22183609949969296,-0.2,0.0,1.0,306.0,531.0,1.0,0,503.0,1
347,347,0.3122850331393142,0.3,0.0,0.0,429.0,572.0,0.0,1,579.0,1
348,348,0.6488140480987753,0.6,0.0,0.0,386.0,792.0,0.0,1,382.0,1
349,349,0.4180756824966406,0.4,1.0,1.0,447.0,977.0,1.0,1,166.0,1
350,350,-0.33622583293315067,-0.3,1.0,0.0,498.0,620.0,0.0,0,282.0,1
351,351,0.5913895977184677,0.6,0.0,0.0,290.0,954.0,0.0,1,226.0,1
352,352,0.21433742209082174,0.2,1.0,1.0,363.0,543.0,1.0,1,504.0,1
353,353,-0.5296842608545096,-0.5,0.0,1.0,368.0,589.0,1.0,0,173.0,1
354,354,0.35771171996895956,0.4,1.0,1.0,316.0,777.0,1.0,1,567.0,1
355,355,-0.2853018606959903,-0.3,0.0,1.0,266.0,521.0,1.0,0,683.0,1
356,356,-0.42525014487673174,-0.4,1.0,0.0,392.0,684.0,0.0,0,184.0,1
357,357,0.5886303026480103,0.6,1.0,1.0,409.0,505.0,1.0,1,176.0,1
358,358,0.3788971954044832,0.4,1.0,1.0,422.0,558.0,1.0,1,210.0,1
359,359,0.2332695691384551,0.2,0.0,0.0,437.0,902.0,0.0,1,701.0,1
360,360,0.8568254831839167,0.9,0.0,0.0,443.0,533.0,0.0,1,284.0,1
361,361,0.32771626688616495,0.3,1.0,1.0,473.0,509.0,1.0,1,558.0,1
362,362,-0.8621130175410486,-0.9,1.0,0.0,287.0,653.0,0.0,0,470.0,1
363,363,0.42025060208572673,0.4,0.0,0.0,284.0,865.0,0.0,1,151.0,1
364,364,-0.7474980945018292,-0.7,1.0,0.0,488.0,693.0,0.0,0,199.0,1
365,365,0.31666525893094677,0.3,1.0,1.0,379.0,998.0,1.0,1,203.0,1
366,366,-0.5269457761151537,-0.5,1.0,0.0,267.0,969.0,0.0,0,324.0,1
367,367,-0.5594856676296488,-0.6,0.0,1.0,361.0,936.0,1.0,0,183.0,1
368,368,0.5889606319538642,0.6,1.0,1.0,258.0,511.0,1.0,1,191.0,1
369,369,0.0030011362769606365,0.0,0.0,0.0,343.0,878.0,1.0,0,1779.0,0
370,370,0.8659063640348473,0.9,0.0,0.0,493.0,972.0,0.0,1,245.0,1
371,371,-0.261064725687426,-0.3,0.0,1.0,432.0,805.0,1.0,0,193.0,1
372,372,-0.48468330846003693,-0.5,1.0,0.0,459.0,656.0,0.0,0,685.0,1
373,373,0.5907801673705865,0.6,1.0,1.0,439.0,550.0,1.0,1,511.0,1
374,374,-0.589196055912046,-0.6,0.0,1.0,378.0,793.0,1.0,0,229.0,1
375,375,0.03464008731434187,0.0,1.0,1.0,408.0,679.0,1.0,1,1913.0,1
376,376,0.4008996429923125,0.4,0.0,0.0,418.0,775.0,0.0,1,447.0,1
377,377,-0.44045268250998476,-0.4,0.0,1.0,411.0,685.0,1.0,0,264.0,1
378,378,-0.8959326358849191,-0.9,0.0,1.0,433.0,759.0,1.0,0,128.0,1
379,379,0.18139638306475458,0.2,1.0,1.0,410.0,929.0,1.0,1,221.0,1
380,380,-0.5142335640142808,-0.5,1.0,0.0,471.0,879.0,0.0,0,250.0,1
381,381,0.06385368839852479,0.1,1.0,1.0,250.0,857.0,1.0,1,933.0,1
382,382,0.7115049431495087,0.7,0.0,0.0,358.0,609.0,0.0,1,173.0,1
383,383,0.298111245436396,0.3,1.0,1.0,385.0,892.0,1.0,1,353.0,1
384,384,-0.27569729227562645,-0.3,1.0,0.0,280.0,733.0,0.0,0,767.0,1
385,385,0.1860804392070049,0.2,1.0,1.0,363.0,584.0,1.0,1,283.0,1
386,386,-0.6134608975243842,-0.6,0.0,1.0,414.0,988.0,1.0,0,178.0,1
387,387,0.7520058115905804,0.8,1.0,1.0,438.0,922.0,1.0,1,70.0,1
388,388,-0.6890681350208058,-0.7,1.0,0.0,299.0,960.0,0.0,0,251.0,1
389,389,-0.7289915617482797,-0.7,0.0,1.0,432.0,895.0,1.0,0,-17.0,1
390,390,-0.8655431008997121,-0.9,1.0,0.0,371.0,637.0,0.0,0,152.0,1
391,391,-0.7118504525489,-0.7,0.0,1.0,257.0,804.0,1.0,0,149.0,1
392,392,0.8930092102136876,0.9,1.0,1.0,313.0,593.0,1.0,1,144.0,1
393,393,-0.8407818058845179,-0.8,0.0,1.0,491.0,591.0,1.0,0,178.0,1
394,394,-0.4302407840618497,-0.4,0.0,1.0,432.0,688.0,1.0,0,170.0,1
395,395,-0.2336209950427599,-0.2,0.0,1.0,481.0,846.0,1.0,0,213.0,1
396,396,0.49283727714526704,0.5,1.0,1.0,375.0,706.0,1.0,1,439.0,1
397,397,-0.19154956840094783,-0.2,1.0,0.0,276.0,980.0,0.0,0,604.0,1
398,398,0.009955166067058818,0.0,0.0,0.0,486.0,547.0,0.0,1,1967.0,1
399,399,-0.6342302643118247,-0.6,0.0,1.0,334.0,947.0,1.0,0,-81.0,1
400,400,-0.41726726648746687,-0.4,1.0,0.0,352.0,671.0,0.0,0,397.0,1
401,401,0.8116362933736386,0.8,1.0,1.0,447.0,662.0,1.0,1,91.0,1
402,402,0.2878291576073523,0.3,1.0,1.0,469.0,956.0,1.0,1,235.0,1
403,403,-0.5785064113717873,-0.6,0.0,1.0,282.0,564.0,1.0,0,304.0,1
404,404,0.7743653887152314,0.8,1.0,1.0,401.0,513.0,1.0,1,146.0,1
405,405,-0.8374815475574695,-0.8,1.0,0.0,461.0,712.0,0.0,0,97.0,1
406,406,-0.6840947361584401,-0.7,1.0,0.0,392.0,702.0,0.0,0,396.0,1
407,407,-0.34884696534895654,-0.3,0.0,1.0,431.0,636.0,1.0,0,243.0,1
408,408,0.030507563558057615,0.0,0.0,0.0,252.0,647.0,0.0,1,2101.0,1
409,409,0.8290205306356525,0.8,0.0,0.0,470.0,611.0,0.0,1,209.0,1
410,410,0.5251646006930354,0.5,0.0,0.0,269.0,839.0,0.0,1,222.0,1
411,411,-0.5023132681748893,-0.5,1.0,0.0,310.0,569.0,0.0,0,391.0,1
412,412,-0.5021177847141438,-0.5,0.0,1.0,354.0,920.0,1.0,0,196.0,1
413,413,0.3663912056705537,0.4,0.0,0.0,494.0,882.0,0.0,1,204.0,1
414,414,0.34139102417705136,0.3,1.0,1.0,388.0,851.0,1.0,1,341.0,1
415,415,0.538882848135905,0.5,1.0,1.0,348.0,554.0,1.0,1,178.0,1
416,416,0.06431739968092087,0.1,1.0,1.0,293.0,526.0,1.0,1,161.0,1
417,417,-0.6610072071919835,-0.7,1.0,0.0,441.0,917.0,0.0,0,162.0,1
418,418,0.5529285978827018,0.6,1.0,1.0,459.0,839.0,1.0,1,172.0,1
419,419,0.8938646280585617,0.9,0.0,0.0,443.0,558.0,0.0,1,159.0,1
420,420,0.8115411606743669,0.8,1.0,1.0,427.0,728.0,1.0,1,235.0,1
421,421,0.03318636382121032,0.0,1.0,1.0,323.0,916.0,1.0,1,21.0,1
422,422,0.7081607002438378,0.7,0.0,0.0,478.0,946.0,0.0,1,206.0,1
423,423,0.8294762778544361,0.8,0.0,0.0,328.0,785.0,0.0,1,137.0,1
424,424,0.2708589600170731,0.3,0.0,0.0,320.0,972.0,0.0,1,418.0,1
425,425,0.7259417365314517,0.7,0.0,0.0,493.0,746.0,0.0,1,91.0,1
426,426,-0.15978290892603442,-0.2,0.0,1.0,427.0,731.0,1.0,0,612.0,1
427,427,-0.057734285320800494,-0.1,0.0,1.0,436.0,581.0,1.0,0,553.0,1
428,428,0.4613851293151098,0.5,0.0,0.0,418.0,994.0,0.0,1,228.0,1
429,429,-0.6855904234149534,-0.7,1.0,0.0,440.0,628.0,0.0,0,192.0,1
430,430,-0.21051295524323832,-0.2,0.0,1.0,278.0,627.0,1.0,0,445.0,1
431,431,0.2736308027315567,0.3,0.0,0.0,420.0,668.0,0.0,1,682.0,1
432,432,-0.45062382554379604,-0.5,0.0,1.0,395.0,958.0,1.0,0,177.0,1
433,433,0.5884075005892023,0.6,0.0,0.0,448.0,771.0,0.0,1,191.0,1
434,434,-0.8297111326960319,-0.8,0.0,1.0,291.0,805.0,1.0,0,104.0,1
435,435,0.7227933056567687,0.7,1.0,1.0,425.0,719.0,1.0,1,126.0,1
436,436,-0.7063403183712776,-0.7,1.0,0.0,324.0,773.0,0.0,0,233.0,1
437,437,0.15936148692571372,0.2,0.0,0.0,357.0,676.0,0.0,1,947.0,1
438,438,0.19713301483308332,0.2,1.0,1.0,340.0,639.0,1.0,1,561.0,1
439,439,-0.09876196686886674,-0.1,1.0,0.0,429.0,749.0,0.0,0,1822.0,1
440,440,0.2514340752525478,0.3,1.0,1.0,453.0,656.0,1.0,1,431.0,1
441,441,-0.5938029518141053,-0.6,0.0,1.0,293.0,773.0,1.0,0,184.0,1
442,442,0.8558670462117585,0.9,1.0,1.0,342.0,675.0,1.0,1,153.0,1
443,443,-0.7978599316708076,-0.8,0.0,1.0,478.0,711.0,1.0,0,111.0,1
444,444,0.8850330427511565,0.9,1.0,1.0,315.0,991.0,1.0,1,494.0,1
445,445,0.25112492050724533,0.3,1.0,1.0,330.0,907.0,1.0,1,213.0,1
446,446,0.016909879621968882,0.0,1.0,1.0,376.0,948.0,1.0,1,1426.0,1
447,447,0.3779958032950633,0.4,0.0,0.0,480.0,775.0,0.0,1,295.0,1
448,448,0.5156974748129658,0.5,1.0,1.0,301.0,830.0,1.0,1,679.0,1
449,449,-0.2998979702789185,-0.3,1.0,0.0,358.0,510.0,0.0,0,422.0,1
450,450,0.06637634706210782,0.1,1.0,1.0,296.0,901.0,1.0,1,793.0,1
451,451,-0.1978882472067589,-0.2,0.0,1.0,305.0,574.0,1.0,0,331.0,1
452,452,0.22758354120589452,0.2,1.0,1.0,258.0,779.0,1.0,1,213.0,1
453,453,-0.11672284058988713,-0.1,0.0,1.0,365.0,572.0,1.0,0,183.0,1
454,454,-0.33845122828716623,-0.3,1.0,0.0,411.0,659.0,0.0,0,470.0,1
455,455,0.6220423948259525,0.6,0.0,0.0,255.0,936.0,0.0,1,299.0,1
456,456,0.4398018522070334,0.4,1.0,1.0,341.0,542.0,1.0,1,447.0,1
457,457,0.389012113725398,0.4,1.0,1.0,314.0,598.0,1.0,1,108.0,1
458,458,0.7439271313784509,0.7,1.0,1.0,375.0,586.0,1.0,1,219.0,1
459,459,-0.021978386038766007,-0.0,1.0,0.0,316.0,647.0,1.0,1,2037.0,0
460,460,-0.5338698212523891,-0.5,1.0,0.0,465.0,825.0,0.0,0,150.0,1
461,461,0.6145623133365464,0.6,1.0,1.0,459.0,723.0,1.0,1,248.0,1
462,462,-0.4936696795125058,-0.5,0.0,1.0,464.0,738.0,1.0,0,188.0,1
463,463,-0.3012048178061524,-0.3,1.0,0.0,358.0,812.0,0.0,0,400.0,1
464,464,-0.08475810829981023,-0.1,0.0,1.0,412.0,843.0,1.0,0,305.0,1
465,465,0.6962299873769987,0.7,0.0,0.0,324.0,680.0,0.0,1,136.0,1
466,466,-0.37713930727251277,-0.4,0.0,1.0,430.0,722.0,1.0,0,108.0,1
467,467,-0.6638261728142655,-0.7,0.0,1.0,483.0,701.0,1.0,0,136.0,1
468,468,0.5623657702493347,0.6,0.0,0.0,429.0,939.0,0.0,1,132.0,1
469,469,-0.09575316673349166,-0.1,0.0,1.0,369.0,959.0,1.0,0,112.0,1
470,470,-0.11189486554718298,-0.1,1.0,0.0,396.0,642.0,0.0,0,1962.0,1
471,471,-0.3748743220366738,-0.4,1.0,0.0,418.0,982.0,0.0,0,540.0,1
472,472,0.7544997867008126,0.8,1.0,1.0,446.0,656.0,1.0,1,198.0,1
473,473,-0.11765566395966787,-0.1,1.0,0.0,401.0,596.0,0.0,0,393.0,1
474,474,-0.5303209005015133,-0.5,1.0,0.0,417.0,832.0,0.0,0,281.0,1
475,475,0.01197523142929946,0.0,1.0,1.0,276.0,538.0,1.0,1,1846.0,1
476,476,-0.6496353095764091,-0.6,0.0,1.0,268.0,937.0,1.0,0,85.0,1
477,477,0.018301331756757633,0.0,1.0,1.0,405.0,944.0,0.0,0,1651.0,0
478,478,0.19759167427948954,0.2,0.0,0.0,483.0,561.0,0.0,1,846.0,1
479,479,0.7053926539208121,0.7,0.0,0.0,376.0,979.0,0.0,1,115.0,1
480,480,-0.5432107983667456,-0.5,1.0,0.0,464.0,997.0,0.0,0,139.0,1
481,481,0.019155893754852715,0.0,1.0,1.0,395.0,692.0,1.0,1,303.0,1
482,482,-0.8796802046978037,-0.9,1.0,0.0,464.0,605.0,0.0,0,701.0,1
483,483,0.1936981272942887,0.2,0.0,0.0,347.0,773.0,0.0,1,540.0,1
484,484,-0.8348159541486629,-0.8,1.0,0.0,323.0,755.0,0.0,0,222.0,1
485,485,0.455041018695007,0.5,0.0,0.0,492.0,778.0,0.0,1,200.0,1
486,486,-0.8745489831591187,-0.9,0.0,1.0,324.0,952.0,1.0,0,104.0,1
487,487,0.044006965416643506,0.0,1.0,1.0,414.0,566.0,1.0,1,1370.0,1
488,488,-0.3809585324184699,-0.4,0.0,1.0,361.0,987.0,1.0,0,-148.0,1
489,489,-0.8588893727056698,-0.9,0.0,1.0,363.0,965.0,1.0,0,102.0,1
490,490,0.8598881364157563,0.9,0.0,0.0,476.0,985.0,0.0,1,249.0,1
491,491,0.3530872779256954,0.4,0.0,0.0,436.0,634.0,0.0,1,380.0,1
492,492,-0.26379188325169967,-0.3,1.0,0.0,433.0,584.0,0.0,0,363.0,1
493,493,0.6367120703231673,0.6,0.0,0.0,483.0,581.0,0.0,1,156.0,1
494,494,0.7606980684243682,0.8,1.0,1.0,497.0,575.0,1.0,1,178.0,1
495,495,-0.21345507914526263,-0.2,0.0,1.0,289.0,796.0,1.0,0,405.0,1
496,496,-0.4921995629816698,-0.5,1.0,0.0,301.0,517.0,0.0,0,372.0,1
497,497,-0.1482811899689973,-0.1,0.0,1.0,477.0,578.0,1.0,0,1145.0,1
498,498,-0.3206366444373535,-0.3,1.0,0.0,486.0,697.0,0.0,0,377.0,1
499,499,-0.33115533052976454,-0.3,1.0,0.0,343.0,896.0,0.0,0,791.0,1
500,500,-0.6037387481554706,-0.6,0.0,1.0,358.0,517.0,1.0,0,325.0,1
501,501,0.04785342124785252,0.0,1.0,1.0,385.0,868.0,1.0,1,507.0,1
502,502,-0.5547509317883526,-0.6,1.0,0.0,396.0,859.0,0.0,0,265.0,1
503,503,0.12216314555735452,0.1,0.0,0.0,267.0,999.0,1.0,0,1734.0,0
504,504,0.2146854074079051,0.2,0.0,0.0,369.0,521.0,0.0,1,510.0,1
505,505,-0.8974032242168085,-0.9,1.0,0.0,364.0,855.0,0.0,0,121.0,1
506,506,-0.32514447047854633,-0.3,1.0,0.0,481.0,991.0,0.0,0,518.0,1
507,507,-0.2972616013003315,-0.3,1.0,0.0,372.0,908.0,0.0,0,250.0,1
508,508,-0.07439136418073333,-0.1,0.0,1.0,318.0,933.0,1.0,0,289.0,1
509,509,-0.3235494067992526,-0.3,0.0,1.0,410.0,955.0,1.0,0,-115.0,1
510,510,-0.47764107306004583,-0.5,1.0,0.0,335.0,678.0,0.0,0,177.0,1
511,511,0.014788999814753345,0.0,0.0,0.0,351.0,646.0,0.0,1,2003.0,1
512,512,0.04558743634098539,0.0,0.0,0.0,253.0,832.0,0.0,1,1915.0,1
513,513,0.7484210757881303,0.7,0.0,0.0,425.0,990.0,0.0,1,455.0,1
514,514,-0.8935166422626748,-0.9,1.0,0.0,408.0,806.0,0.0,0,246.0,1
515,515,0.12880805384676808,0.1,0.0,0.0,459.0,578.0,0.0,1,1933.0,1
516,516,0.5102868348840305,0.5,0.0,0.0,283.0,984.0,0.0,1,243.0,1
517,517,-0.029722075323857178,-0.0,1.0,0.0,253.0,555.0,1.0,1,702.0,0
518,518,-0.2066166911625581,-0.2,1.0,0.0,376.0,980.0,0.0,0,514.0,1
519,519,0.3930845848523933,0.4,0.0,0.0,335.0,802.0,0.0,1,393.0,1
520,520,-0.42643725715275044,-0.4,1.0,0.0,472.0,587.0,0.0,0,361.0,1
521,521,0.7030452988932493,0.7,1.0,1.0,456.0,780.0,1.0,1,274.0,1
522,522,0.39187675125252375,0.4,0.0,0.0,351.0,929.0,0.0,1,300.0,1
523,523,-0.11321928630571321,-0.1,0.0,1.0,330.0,680.0,1.0,0,420.0,1
524,524,-0.7802011524699565,-0.8,1.0,0.0,274.0,555.0,0.0,0,341.0,1
525,525,-0.29211023140847836,-0.3,0.0,1.0,395.0,563.0,1.0,0,682.0,1
526,526,-0.1030421929825257,-0.1,1.0,0.0,258.0,886.0,0.0,0,1856.0,1
527,527,0.23841658757203799,0.2,0.0,0.0,269.0,865.0,0.0,1,606.0,1
528,528,-0.4172212215626499,-0.4,1.0,0.0,324.0,903.0,1.0,1,-147.0,0
529,529,-0.10366273378712032,-0.1,1.0,0.0,432.0,548.0,0.0,0,1360.0,1
530,530,0.6274418901851039,0.6,1.0,1.0,446.0,802.0,1.0,1,172.0,1
531,531,0.055404459458137545,0.1,0.0,0.0,314.0,620.0,0.0,1,2066.0,1
532,532,0.499493382540099,0.5,1.0,1.0,450.0,580.0,1.0,1,220.0,1
533,533,-0.4491234134493544,-0.4,0.0,1.0,331.0,844.0,1.0,0,275.0,1
534,534,0.8891890302991913,0.9,1.0,1.0,499.0,833.0,1.0,1,218.0,1
535,535,0.5826150059360816,0.6,0.0,0.0,444.0,515.0,0.0,1,241.0,1
536,536,0.05885798939285369,0.1,0.0,0.0,345.0,801.0,0.0,1,1854.0,1
537,537,-0.7881113196898962,-0.8,0.0,1.0,453.0,926.0,1.0,0,121.0,1
538,538,0.31145634819463364,0.3,1.0,1.0,449.0,969.0,1.0,1,202.0,1
539,539,0.0772920010778434,0.1,1.0,1.0,374.0,690.0,1.0,1,96.0,1
540,540,0.8665803076627882,0.9,1.0,1.0,497.0,750.0,1.0,1,213.0,1
541,541,0.12162106021411268,0.1,1.0,1.0,312.0,933.0,1.0,1,185.0,1
542,542,-0.18236236199288014,-0.2,1.0,0.0,405.0,610.0,0.0,0,605.0,1
543,543,-0.3800974545182222,-0.4,0.0,1.0,307.0,565.0,1.0,0,268.0,1
544,544,0.8674140406390088,0.9,0.0,0.0,485.0,900.0,0.0,1,105.0,1
545,545,-0.6562395962337589,-0.7,0.0,1.0,466.0,630.0,1.0,0,154.0,1
546,546,0.4587175486580525,0.5,0.0,0.0,258.0,514.0,0.0,1,638.0,1
547,547,-0.13889900621955498,-0.1,1.0,0.0,421.0,591.0,0.0,0,1988.0,1
548,548,0.3701034150864523,0.4,1.0,1.0,251.0,713.0,1.0,1,256.0,1
549,549,0.7827558393410369,0.8,1.0,1.0,257.0,919.0,1.0,1,94.0,1
550,550,-0.18410182410796871,-0.2,1.0,0.0,480.0,632.0,0.0,0,538.0,1
551,551,-0.4040907572345988,-0.4,1.0,0.0,291.0,999.0,0.0,0,570.0,1
552,552,0.10165234654192712,0.1,0.0,0.0,287.0,771.0,0.0,1,1942.0,1
553,553,-0.8730241505771076,-0.9,0.0,1.0,342.0,651.0,1.0,0,477.0,1
554,554,-0.30376229293651225,-0.3,0.0,1.0,401.0,895.0,1.0,0,164.0,1
555,555,0.14573399614860738,0.1,0.0,0.0,360.0,832.0,0.0,1,1498.0,1
556,556,-0.6557979523878266,-0.7,1.0,0.0,492.0,822.0,0.0,0,196.0,1
557,557,0.45615151523422004,0.5,1.0,1.0,308.0,530.0,1.0,1,112.0,1
558,558,0.2155671277984762,0.2,0.0,0.0,324.0,809.0,0.0,1,657.0,1
559,559,0.684741915469023,0.7,1.0,1.0,284.0,717.0,1.0,1,229.0,1
560,560,0.43391944007186456,0.4,0.0,0.0,260.0,596.0,0.0,1,234.0,1
561,561,-0.1884522466899704,-0.2,1.0,0.0,310.0,653.0,0.0,0,1137.0,1
562,562,0.3969118433535582,0.4,1.0,1.0,391.0,801.0,1.0,1,188.0,1
563,563,-0.588910989926363,-0.6,0.0,1.0,259.0,839.0,1.0,0,172.0,1
564,564,-0.718925608429005,-0.7,1.0,0.0,443.0,941.0,0.0,0,366.0,1
565,565,-0.5208734734903177,-0.5,0.0,1.0,250.0,592.0,1.0,0,208.0,1
566,566,0.552851224885946,0.6,0.0,0.0,396.0,553.0,0.0,1,271.0,1
567,567,0.7657384734916245,0.8,1.0,1.0,307.0,735.0,1.0,1,108.0,1
568,568,-0.5612262431465191,-0.6,0.0,1.0,371.0,992.0,1.0,0,187.0,1
569,569,0.8459504870076217,0.8,0.0,0.0,326.0,857.0,0.0,1,187.0,1
570,570,-0.2962075267362555,-0.3,1.0,0.0,326.0,520.0,0.0,0,404.0,1
571,571,0.35272945918720844,0.4,1.0,1.0,377.0,507.0,1.0,1,586.0,1
572,572,0.8889411472418921,0.9,0.0,0.0,449.0,744.0,0.0,1,167.0,1
573,573,0.2059932224732265,0.2,0.0,0.0,438.0,509.0,0.0,1,703.0,1
574,574,-0.7214761187625236,-0.7,1.0,0.0,257.0,878.0,0.0,0,165.0,1
575,575,-0.33382052101723303,-0.3,0.0,1.0,318.0,580.0,1.0,0,262.0,1
576,576,-0.686111682249217,-0.7,0.0,1.0,475.0,784.0,1.0,0,141.0,1
577,577,-0.5158797875633656,-0.5,0.0,1.0,436.0,607.0,1.0,0,287.0,1
578,578,0.46881218655190515,0.5,0.0,0.0,299.0,959.0,0.0,1,152.0,1
579,579,-0.2620009143790478,-0.3,0.0,1.0,260.0,825.0,1.0,0,175.0,1
580,580,-0.7012237520707664,-0.7,0.0,1.0,437.0,769.0,1.0,0,164.0,1
581,581,0.7223612485287981,0.7,1.0,1.0,408.0,952.0,1.0,1,100.0,1
582,582,0.46905044256203354,0.5,1.0,1.0,405.0,969.0,1.0,1,286.0,1
583,583,-0.211916542025385,-0.2,0.0,1.0,253.0,703.0,1.0,0,474.0,1
584,584,-0.17124103972093552,-0.2,0.0,1.0,409.0,711.0,1.0,0,620.0,1
585,585,0.8996847552594082,0.9,0.0,0.0,471.0,527.0,0.0,1,172.0,1
586,586,0.8732435348087692,0.9,1.0,1.0,317.0,827.0,1.0,1,-94.0,1
587,587,-0.6400077025156068,-0.6,0.0,1.0,347.0,654.0,1.0,0,389.0,1
588,588,0.7311257247634789,0.7,0.0,0.0,320.0,516.0,0.0,1,194.0,1
589,589,-0.7322715866390944,-0.7,1.0,0.0,442.0,677.0,0.0,0,111.0,1
590,590,0.31268973395373056,0.3,0.0,0.0,301.0,906.0,0.0,1,573.0,1
591,591,-0.5800094683598641,-0.6,0.0,1.0,393.0,805.0,1.0,0,192.0,1
592,592,0.43294085160512263,0.4,1.0,1.0,410.0,958.0,1.0,1,142.0,1
593,593,0.8398005407938615,0.8,1.0,1.0,407.0,757.0,1.0,1,116.0,1
594,594,-0.8812455253193713,-0.9,1.0,0.0,300.0,741.0,0.0,0,129.0,1
595,595,0.001245244057261341,0.0,1.0,1.0,257.0,962.0,1.0,1,1091.0,1
596,596,0.33799627278363154,0.3,1.0,1.0,486.0,560.0,1.0,1,384.0,1
597,597,-0.5456229376875138,-0.5,1.0,0.0,342.0,586.0,0.0,0,312.0,1
598,598,-0.14637555738578,-0.1,1.0,0.0,296.0,614.0,0.0,0,2090.0,1
599,599,-0.21494129607022183,-0.2,0.0,1.0,276.0,985.0,1.0,0,639.0,1
600,600,-0.48857595686537364,-0.5,0.0,1.0,337.0,572.0,1.0,0,41.0,1
601,601,0.5022925751647701,0.5,0.0,0.0,415.0,582.0,0.0,1,263.0,1
602,602,-0.6178981553180153,-0.6,0.0,1.0,409.0,865.0,1.0,0,66.0,1
603,603,0.7713582039573638,0.8,1.0,1.0,340.0,689.0,1.0,1,151.0,1
604,604,-0.6171275199308748,-0.6,1.0,0.0,422.0,977.0,0.0,0,211.0,1
605,605,0.24172703697573594,0.2,0.0,0.0,442.0,819.0,0.0,1,679.0,1
606,606,0.31463540378610355,0.3,1.0,1.0,446.0,999.0,1.0,1,295.0,1
607,607,-0.1816044764964314,-0.2,0.0,1.0,427.0,693.0,1.0,0,390.0,1
608,608,-0.82758637387076,-0.8,1.0,0.0,357.0,806.0,0.0,0,217.0,1
609,609,0.6279861838655386,0.6,0.0,0.0,360.0,813.0,0.0,1,207.0,1
610,610,-0.6183432868936649,-0.6,0.0,1.0,328.0,658.0,1.0,0,104.0,1
611,611,0.3963376850947514,0.4,1.0,1.0,380.0,950.0,1.0,1,170.0,1
612,612,0.10142325097633964,0.1,0.0,0.0,282.0,653.0,0.0,1,1075.0,1
613,613,-0.3883765841138137,-0.4,0.0,1.0,365.0,907.0,1.0,0,608.0,1
614,614,-0.17973952559463247,-0.2,0.0,1.0,448.0,794.0,1.0,0,448.0,1
615,615,-0.31534389573126853,-0.3,1.0,0.0,451.0,543.0,0.0,0,366.0,1
616,616,0.562979321670945,0.6,0.0,0.0,477.0,784.0,0.0,1,169.0,1
617,617,-0.2847257201392782,-0.3,1.0,0.0,353.0,563.0,0.0,0,234.0,1
618,618,0.0005509967334805799,0.0,1.0,1.0,439.0,844.0,0.0,0,1717.0,0
619,619,-0.6373042811087737,-0.6,1.0,0.0,374.0,739.0,0.0,0,297.0,1
620,620,0.7432727229554753,0.7,1.0,1.0,277.0,593.0,1.0,1,120.0,1
621,621,0.7649877917372842,0.8,1.0,1.0,294.0,694.0,1.0,1,92.0,1
622,622,-0.8612941544552493,-0.9,0.0,1.0,333.0,719.0,1.0,0,48.0,1
623,623,0.18343574329782608,0.2,1.0,1.0,407.0,594.0,1.0,1,609.0,1
624,624,0.49856988899456767,0.5,1.0,1.0,400.0,524.0,1.0,1,136.0,1
625,625,-0.671511980811555,-0.7,1.0,0.0,485.0,891.0,0.0,0,154.0,1
626,626,-0.8150752470916479,-0.8,0.0,1.0,436.0,585.0,1.0,0,119.0,1
627,627,-0.6603809652854246,-0.7,1.0,0.0,364.0,630.0,0.0,0,246.0,1
628,628,-0.5268340557235007,-0.5,1.0,0.0,381.0,709.0,0.0,0,250.0,1
629,629,0.09104896102141902,0.1,0.0,0.0,391.0,871.0,1.0,0,108.0,0
630,630,0.4291924900728118,0.4,1.0,1.0,383.0,941.0,1.0,1,426.0,1
631,631,-0.20951998655675674,-0.2,1.0,0.0,357.0,585.0,0.0,0,558.0,1
632,632,0.5233160018392357,0.5,1.0,1.0,393.0,773.0,1.0,1,204.0,1
633,633,-0.7822837221042852,-0.8,0.0,1.0,363.0,710.0,1.0,0,187.0,1
634,634,-0.05644700395231661,-0.1,1.0,0.0,341.0,504.0,1.0,1,2155.0,0
635,635,-0.7348864982617361,-0.7,0.0,1.0,339.0,955.0,1.0,0,216.0,1
636,636,-0.86133595520795,-0.9,0.0,1.0,439.0,710.0,1.0,0,141.0,1
637,637,-0.5760690486353255,-0.6,0.0,1.0,341.0,979.0,1.0,0,100.0,1
638,638,-0.6180638611907503,-0.6,0.0,1.0,391.0,755.0,1.0,0,244.0,1
639,639,-0.06790920780544629,-0.1,1.0,0.0,303.0,804.0,0.0,0,1893.0,1
640,640,-0.0795489507034699,-0.1,1.0,0.0,295.0,975.0,1.0,1,150.0,0
641,641,-0.4355215856059214,-0.4,1.0,0.0,422.0,750.0,0.0,0,198.0,1
642,642,-0.35571145425846684,-0.4,1.0,0.0,293.0,935.0,0.0,0,312.0,1
643,643,-0.7841805850788106,-0.8,0.0,1.0,259.0,677.0,1.0,0,64.0,1
644,644,-0.5466207229581684,-0.5,0.0,1.0,458.0,969.0,1.0,0,163.0,1
645,645,-0.43128442656986193,-0.4,1.0,0.0,324.0,840.0,0.0,0,356.0,1
646,646,-0.11436859310421477,-0.1,1.0,0.0,379.0,643.0,0.0,0,1478.0,1
647,647,0.29344718550715043,0.3,1.0,1.0,438.0,736.0,1.0,1,706.0,1
648,648,-0.6866808320485135,-0.7,0.0,1.0,280.0,552.0,1.0,0,148.0,1
649,649,-0.8502975108062812,-0.9,1.0,0.0,427.0,922.0,0.0,0,121.0,1
650,650,-0.14526487231979346,-0.1,0.0,1.0,276.0,956.0,1.0,0,408.0,1
651,651,-0.36022780807236665,-0.4,1.0,0.0,255.0,855.0,0.0,0,440.0,1
652,652,0.15565657454819426,0.2,1.0,1.0,325.0,871.0,1.0,1,624.0,1
653,653,0.3897121811342482,0.4,1.0,1.0,310.0,704.0,1.0,1,356.0,1
654,654,-0.8254651747870594,-0.8,0.0,1.0,305.0,667.0,1.0,0,238.0,1
655,655,-0.35885437940927245,-0.4,1.0,0.0,271.0,542.0,1.0,1,-23.0,0
656,656,0.7652688021310335,0.8,0.0,0.0,407.0,503.0,0.0,1,210.0,1
657,657,0.5077113180323906,0.5,0.0,0.0,483.0,554.0,0.0,1,203.0,1
658,658,0.8837347323830472,0.9,1.0,1.0,436.0,986.0,1.0,1,48.0,1
659,659,0.5145494136589467,0.5,1.0,1.0,463.0,593.0,1.0,1,374.0,1
660,660,0.7139690333845871,0.7,0.0,0.0,400.0,902.0,0.0,1,208.0,1
661,661,0.30608818567944607,0.3,1.0,1.0,494.0,613.0,1.0,1,293.0,1
662,662,0.0754386498944788,0.1,0.0,0.0,439.0,908.0,0.0,1,1653.0,1
663,663,0.2287270884577165,0.2,1.0,1.0,397.0,880.0,1.0,1,423.0,1
664,664,-0.5088491622077217,-0.5,1.0,0.0,398.0,594.0,0.0,0,288.0,1
665,665,-0.6593217083254326,-0.7,0.0,1.0,377.0,856.0,1.0,0,167.0,1
666,666,0.6775140335297923,0.7,0.0,0.0,384.0,657.0,0.0,1,199.0,1
667,667,-0.6568200804136989,-0.7,1.0,0.0,384.0,554.0,0.0,0,262.0,1
668,668,0.5114237407748939,0.5,1.0,1.0,257.0,768.0,1.0,1,195.0,1
669,669,-0.13269787895672358,-0.1,1.0,0.0,437.0,692.0,0.0,0,1871.0,1
670,670,-0.1461324083135207,-0.1,0.0,1.0,276.0,678.0,1.0,0,876.0,1
671,671,0.4665000984176827,0.5,0.0,0.0,388.0,973.0,0.0,1,249.0,1
672,672,0.37665676107759183,0.4,0.0,0.0,495.0,758.0,0.0,1,247.0,1
673,673,0.47340164934057294,0.5,1.0,1.0,491.0,732.0,1.0,1,317.0,1
674,674,0.42296724303508204,0.4,0.0,0.0,459.0,831.0,0.0,1,270.0,1
675,675,0.0796551881169133,0.1,1.0,1.0,352.0,573.0,1.0,1,2075.0,1
676,676,0.3478937451565308,0.3,1.0,1.0,471.0,888.0,1.0,1,181.0,1
677,677,0.18477934049869071,0.2,0.0,0.0,325.0,787.0,0.0,1,1318.0,1
678,678,-0.6086459285087347,-0.6,1.0,0.0,272.0,513.0,0.0,0,605.0,1
679,679,-0.40032532418819,-0.4,1.0,0.0,326.0,987.0,0.0,0,367.0,1
680,680,-0.20988441861667684,-0.2,1.0,0.0,277.0,891.0,0.0,0,372.0,1
681,681,-0.04089608271359668,-0.0,1.0,0.0,336.0,946.0,1.0,1,1718.0,0
682,682,-0.6307505983694504,-0.6,1.0,0.0,297.0,848.0,0.0,0,205.0,1
683,683,0.5091861018137872,0.5,0.0,0.0,320.0,818.0,0.0,1,362.0,1
684,684,0.6941551447233801,0.7,1.0,1.0,316.0,539.0,1.0,1,165.0,1
685,685,0.45281384730655894,0.5,0.0,0.0,337.0,722.0,0.0,1,211.0,1
686,686,-0.10233173799219408,-0.1,0.0,1.0,324.0,633.0,1.0,0,913.0,1
687,687,0.03613075112441455,0.0,1.0,1.0,427.0,703.0,1.0,1,730.0,1
688,688,0.7486794929964685,0.7,0.0,0.0,267.0,873.0,0.0,1,220.0,1
689,689,-0.34806141906765065,-0.3,1.0,0.0,497.0,565.0,0.0,0,408.0,1
690,690,-0.864677604893395,-0.9,1.0,0.0,349.0,843.0,0.0,0,128.0,1
691,691,0.3888022302459301,0.4,0.0,0.0,263.0,851.0,0.0,1,346.0,1
692,692,-0.19013887313342415,-0.2,0.0,1.0,411.0,852.0,1.0,0,657.0,1
693,693,0.668802234106551,0.7,0.0,0.0,283.0,692.0,0.0,1,255.0,1
694,694,-0.5395867446950007,-0.5,0.0,1.0,488.0,534.0,1.0,0,228.0,1
695,695,0.18297217936491006,0.2,1.0,1.0,375.0,525.0,1.0,1,290.0,1
696,696,0.26014558518452724,0.3,0.0,0.0,419.0,680.0,0.0,1,721.0,1
697,697,0.47823890281443304,0.5,0.0,0.0,449.0,823.0,0.0,1,208.0,1
698,698,0.5941481535084877,0.6,1.0,1.0,413.0,695.0,1.0,1,192.0,1
699,699,0.37542395306379583,0.4,0.0,0.0,447.0,501.0,0.0,1,552.0,1
700,700,0.026693623713907155,0.0,1.0,1.0,324.0,695.0,1.0,1,191.0,1
701,701,0.12406464050796584,0.1,1.0,1.0,368.0,992.0,1.0,1,310.0,1
702,702,-0.8253817089057772,-0.8,1.0,0.0,260.0,728.0,0.0,0,652.0,1
703,703,0.05413042635378096,0.1,0.0,0.0,476.0,521.0,1.0,0,2003.0,0
704,704,0.6340875123488529,0.6,1.0,1.0,278.0,858.0,1.0,1,214.0,1
705,705,-0.3364118184729724,-0.3,0.0,1.0,347.0,760.0,1.0,0,373.0,1
706,706,-0.8367861514416084,-0.8,1.0,0.0,469.0,594.0,0.0,0,197.0,1
707,707,-0.7511947733174437,-0.8,0.0,1.0,308.0,643.0,1.0,0,19.0,1
708,708,0.43287118009952785,0.4,0.0,0.0,254.0,884.0,0.0,1,212.0,1
709,709,0.5977447115309865,0.6,1.0,1.0,269.0,564.0,1.0,1,277.0,1
710,710,-0.47746947449595206,-0.5,1.0,0.0,338.0,925.0,0.0,0,227.0,1
711,711,-0.05232579693618833,-0.1,0.0,1.0,347.0,638.0,1.0,0,555.0,1
712,712,-0.45468344676921596,-0.5,0.0,1.0,435.0,818.0,1.0,0,177.0,1
713,713,-0.6032431252565509,-0.6,1.0,0.0,303.0,983.0,0.0,0,214.0,1
714,714,0.3815039952757976,0.4,1.0,1.0,436.0,523.0,1.0,1,991.0,1
715,715,0.5007567172953046,0.5,1.0,1.0,414.0,668.0,1.0,1,138.0,1
716,716,0.7247783659848116,0.7,0.0,0.0,450.0,856.0,0.0,1,274.0,1
717,717,-0.33340771754811893,-0.3,1.0,0.0,418.0,890.0,0.0,0,252.0,1
718,718,-0.007039992989728794,-0.0,1.0,0.0,331.0,780.0,1.0,1,-81.0,0
719,719,-0.27532338085620334,-0.3,0.0,1.0,262.0,708.0,1.0,0,110.0,1
720,720,-0.5147552759430196,-0.5,1.0,0.0,433.0,861.0,0.0,0,276.0,1
721,721,0.22185535369097942,0.2,0.0,0.0,498.0,509.0,0.0,1,313.0,1
722,722,0.3051099544533705,0.3,1.0,1.0,414.0,950.0,1.0,1,-14.0,1
723,723,-0.19854756885006142,-0.2,0.0,1.0,386.0,930.0,1.0,0,444.0,1
724,724,0.5022523195037544,0.5,1.0,1.0,469.0,658.0,1.0,1,263.0,1
725,725,0.3856671922656877,0.4,0.0,0.0,407.0,942.0,0.0,1,191.0,1
726,726,-0.1631076660760178,-0.2,0.0,1.0,337.0,576.0,1.0,0,1977.0,1
727,727,0.23581121662512528,0.2,1.0,1.0,495.0,768.0,1.0,1,597.0,1
728,728,0.3601083743954089,0.4,0.0,0.0,338.0,961.0,0.0,1,191.0,1
729,729,-0.8379149230731059,-0.8,1.0,0.0,376.0,501.0,0.0,0,273.0,1
730,730,0.7051442557688014,0.7,1.0,1.0,281.0,665.0,1.0,1,184.0,1
731,731,-0.15888282627494654,-0.2,0.0,1.0,306.0,655.0,1.0,0,519.0,1
732,732,0.2539310217911167,0.3,0.0,0.0,260.0,723.0,0.0,1,717.0,1
733,733,-0.8301922103638223,-0.8,1.0,0.0,275.0,600.0,0.0,0,175.0,1
734,734,-0.23900055709110868,-0.2,1.0,0.0,457.0,591.0,0.0,0,892.0,1
735,735,-0.5690896113235797,-0.6,0.0,1.0,439.0,765.0,1.0,0,286.0,1
736,736,-0.23400239615104934,-0.2,0.0,1.0,402.0,563.0,1.0,0,425.0,1
737,737,-0.8745952151311706,-0.9,1.0,0.0,282.0,531.0,0.0,0,67.0,1
738,738,-0.25635334968500856,-0.3,1.0,0.0,470.0,741.0,0.0,0,969.0,1
739,739,0.4148560994287843,0.4,1.0,1.0,303.0,628.0,1.0,1,249.0,1
740,740,0.4969657129716635,0.5,1.0,1.0,275.0,885.0,1.0,1,150.0,1
741,741,-0.5679813930784627,-0.6,1.0,0.0,469.0,988.0,0.0,0,443.0,1
742,742,-0.8823824248070942,-0.9,0.0,1.0,426.0,605.0,1.0,0,179.0,1
743,743,-0.6031795396552251,-0.6,1.0,0.0,466.0,531.0,0.0,0,173.0,1
744,744,-0.2839764507556882,-0.3,0.0,1.0,388.0,884.0,1.0,0,478.0,1
745,745,-0.19402415411409535,-0.2,1.0,0.0,379.0,754.0,0.0,0,677.0,1
746,746,0.6692944441549084,0.7,0.0,0.0,414.0,828.0,0.0,1,218.0,1
747,747,0.4581465376952817,0.5,0.0,0.0,447.0,824.0,0.0,1,229.0,1
748,748,-0.8123298757488174,-0.8,1.0,0.0,328.0,777.0,0.0,0,265.0,1
749,749,0.5357280149397429,0.5,0.0,0.0,423.0,929.0,0.0,1,318.0,1
750,750,0.3946917106319717,0.4,0.0,0.0,368.0,802.0,0.0,1,380.0,1
751,751,0.8755349207441295,0.9,0.0,0.0,333.0,988.0,0.0,1,179.0,1
752,752,0.8549124510428691,0.9,1.0,1.0,339.0,972.0,1.0,1,149.0,1
753,753,0.15159524444572903,0.2,1.0,1.0,359.0,674.0,1.0,1,1137.0,1
754,754,-0.898593669237075,-0.9,1.0,0.0,259.0,821.0,0.0,0,180.0,1
755,755,-0.7639561522036825,-0.8,0.0,1.0,492.0,864.0,1.0,0,444.0,1
756,756,0.6750441224728768,0.7,0.0,0.0,305.0,779.0,0.0,1,176.0,1
757,757,0.5918814809947984,0.6,1.0,1.0,320.0,956.0,1.0,1,214.0,1
758,758,0.5265974999865085,0.5,1.0,1.0,416.0,817.0,1.0,1,237.0,1
759,759,-0.6783472664303911,-0.7,0.0,1.0,377.0,863.0,1.0,0,190.0,1
760,760,-0.08688325522671403,-0.1,1.0,0.0,362.0,651.0,0.0,0,467.0,1
761,761,0.023907356571088445,0.0,1.0,1.0,358.0,622.0,1.0,1,900.0,1
762,762,0.7382495543936941,0.7,1.0,1.0,298.0,771.0,1.0,1,-229.0,1
763,763,-0.5092285110921586,-0.5,0.0,1.0,382.0,557.0,1.0,0,241.0,1
764,764,0.7849415341572478,0.8,0.0,0.0,436.0,721.0,0.0,1,253.0,1
765,765,0.1168477810250036,0.1,1.0,1.0,390.0,519.0,1.0,1,1951.0,1
766,766,-0.30948277438901983,-0.3,1.0,0.0,438.0,618.0,0.0,0,564.0,1
767,767,0.349922311878614,0.3,0.0,0.0,321.0,708.0,0.0,1,651.0,1
768,768,-0.8234776873543418,-0.8,0.0,1.0,488.0,723.0,1.0,0,209.0,1
769,769,0.7795403179290558,0.8,0.0,0.0,301.0,836.0,0.0,1,273.0,1
770,770,0.8949601167048405,0.9,0.0,0.0,327.0,722.0,0.0,1,141.0,1
771,771,-0.4109508483828026,-0.4,1.0,0.0,401.0,843.0,0.0,0,176.0,1
772,772,0.3695292915212153,0.4,1.0,1.0,413.0,848.0,1.0,1,949.0,1
773,773,0.18873888713211373,0.2,0.0,0.0,389.0,623.0,0.0,1,378.0,1
774,774,0.35620005700195,0.4,0.0,0.0,427.0,780.0,0.0,1,323.0,1
775,775,0.524039464795586,0.5,1.0,1.0,292.0,922.0,1.0,1,256.0,1
776,776,-0.5785646733852867,-0.6,0.0,1.0,466.0,748.0,1.0,0,86.0,1
777,777,-0.8321122038488371,-0.8,0.0,1.0,304.0,863.0,1.0,0,123.0,1
778,778,0.7052651726854898,0.7,0.0,0.0,349.0,600.0,0.0,1,201.0,1
779,779,-0.5242266369252114,-0.5,1.0,0.0,330.0,525.0,0.0,0,255.0,1
780,780,-0.08098807068958058,-0.1,1.0,0.0,265.0,656.0,0.0,0,2079.0,1
781,781,0.4460297544640136,0.4,1.0,1.0,285.0,665.0,1.0,1,110.0,1
782,782,0.5855336956984328,0.6,1.0,1.0,374.0,734.0,1.0,1,172.0,1
783,783,-0.7959233139755082,-0.8,1.0,0.0,306.0,891.0,0.0,0,253.0,1
784,784,-0.4742419888727762,-0.5,1.0,0.0,253.0,933.0,0.0,0,364.0,1
785,785,0.7889178116313055,0.8,1.0,1.0,482.0,614.0,1.0,1,164.0,1
786,786,0.37702400290611526,0.4,0.0,0.0,473.0,809.0,0.0,1,98.0,1
787,787,0.767287352565342,0.8,0.0,0.0,491.0,557.0,0.0,1,272.0,1
788,788,0.4634753291235999,0.5,0.0,0.0,481.0,800.0,0.0,1,409.0,1
789,789,0.8843738262646895,0.9,1.0,1.0,425.0,993.0,1.0,1,-328.0,1
790,790,-0.12690913315063257,-0.1,0.0,1.0,395.0,543.0,1.0,0,492.0,1
791,791,0.637749126745302,0.6,1.0,1.0,334.0,984.0,1.0,1,-48.0,1
792,792,0.4247254796291945,0.4,0.0,0.0,346.0,968.0,0.0,1,236.0,1
793,793,0.8722501369614301,0.9,1.0,1.0,279.0,597.0,1.0,1,384.0,1
794,794,0.8352964188129571,0.8,0.0,0.0,339.0,812.0,0.0,1,199.0,1
795,795,-0.73352951274001,-0.7,1.0,0.0,325.0,634.0,0.0,0,351.0,1
796,796,0.4053511180450585,0.4,0.0,0.0,338.0,928.0,0.0,1,504.0,1
797,797,0.10174819044068306,0.1,1.0,1.0,438.0,995.0,1.0,1,817.0,1
798,798,-0.7179529211412068,-0.7,1.0,0.0,297.0,549.0,0.0,0,214.0,1
799,799,0.06161318493104906,0.1,1.0,1.0,421.0,950.0,1.0,1,599.0,1
800,800,0.653326970091194,0.7,1.0,1.0,321.0,641.0,1.0,1,168.0,1
801,801,0.15018695194584863,0.2,0.0,0.0,270.0,563.0,0.0,1,737.0,1
802,802,-0.5171748983884161,-0.5,0.0,1.0,498.0,710.0,1.0,0,452.0,1
803,803,0.8697947981331576,0.9,0.0,0.0,272.0,740.0,0.0,1,148.0,1
804,804,-0.38911556051220086,-0.4,1.0,0.0,360.0,767.0,0.0,0,403.0,1
805,805,-0.5562236795323177,-0.6,0.0,1.0,389.0,901.0,1.0,0,120.0,1
806,806,0.41533325826402556,0.4,1.0,1.0,271.0,912.0,1.0,1,417.0,1
807,807,-0.38134137759658626,-0.4,1.0,0.0,471.0,932.0,0.0,0,337.0,1
808,808,0.6459250070392594,0.6,1.0,1.0,265.0,633.0,1.0,1,152.0,1
809,809,-0.6301185816516481,-0.6,0.0,1.0,458.0,918.0,1.0,0,254.0,1
810,810,-0.8802512075679227,-0.9,1.0,0.0,278.0,778.0,0.0,0,134.0,1
811,811,0.021827077793369454,0.0,1.0,1.0,332.0,987.0,1.0,1,1681.0,1
812,812,0.5044829458173555,0.5,1.0,1.0,250.0,524.0,1.0,1,286.0,1
813,813,-0.13267501027172135,-0.1,0.0,1.0,346.0,513.0,1.0,0,451.0,1
814,814,-0.79583676830116,-0.8,1.0,0.0,270.0,888.0,0.0,0,222.0,1
815,815,0.6596185580858592,0.7,0.0,0.0,412.0,596.0,0.0,1,442.0,1
816,816,-0.08288516147140712,-0.1,0.0,1.0,485.0,859.0,1.0,0,766.0,1
817,817,-0.39004179032148056,-0.4,0.0,1.0,343.0,631.0,1.0,0,576.0,1
818,818,0.2721162125001887,0.3,1.0,1.0,295.0,712.0,1.0,1,203.0,1
819,819,0.38533713402778347,0.4,1.0,1.0,321.0,540.0,1.0,1,59.0,1
820,820,-0.42857704742726005,-0.4,0.0,1.0,438.0,570.0,1.0,0,632.0,1
821,821,-0.1115193716259234,-0.1,1.0,0.0,468.0,796.0,0.0,0,1736.0,1
822,822,-0.8602663845490824,-0.9,0.0,1.0,347.0,534.0,1.0,0,129.0,1
823,823,0.7921708238320159,0.8,1.0,1.0,463.0,891.0,1.0,1,136.0,1
824,824,0.464877134752565,0.5,0.0,0.0,261.0,546.0,0.0,1,223.0,1
825,825,-0.1091259432181938,-0.1,1.0,0.0,479.0,704.0,0.0,0,1097.0,1
826,826,-0.03022554819488288,-0.0,0.0,1.0,499.0,714.0,1.0,0,1787.0,1
827,827,-0.19381906362127765,-0.2,1.0,0.0,333.0,989.0,0.0,0,818.0,1
828,828,-0.36575341884041435,-0.4,0.0,1.0,458.0,687.0,1.0,0,135.0,1
829,829,-0.10233049287748053,-0.1,0.0,1.0,459.0,912.0,1.0,0,59.0,1
830,830,0.09739259588266136,0.1,1.0,1.0,495.0,910.0,1.0,1,875.0,1
831,831,-0.25692677449437074,-0.3,0.0,1.0,393.0,517.0,1.0,0,310.0,1
832,832,-0.15044519445712223,-0.2,0.0,1.0,352.0,719.0,1.0,0,459.0,1
833,833,-0.8777221261487682,-0.9,0.0,1.0,453.0,568.0,1.0,0,299.0,1
834,834,0.1541287475922487,0.2,1.0,1.0,331.0,613.0,1.0,1,876.0,1
835,835,0.8421677880555002,0.8,1.0,1.0,308.0,679.0,1.0,1,173.0,1
836,836,0.7027086589612633,0.7,0.0,0.0,267.0,543.0,0.0,1,240.0,1
837,837,0.11619890161420943,0.1,0.0,0.0,314.0,918.0,0.0,1,1248.0,1
838,838,-0.3094468885798254,-0.3,1.0,0.0,391.0,801.0,0.0,0,258.0,1
839,839,-0.21180689263525776,-0.2,0.0,1.0,375.0,561.0,1.0,0,274.0,1
840,840,0.390449045365156,0.4,0.0,0.0,350.0,571.0,0.0,1,409.0,1
841,841,-0.8862232014226664,-0.9,1.0,0.0,285.0,653.0,0.0,0,92.0,1
842,842,-0.8833351668776744,-0.9,0.0,1.0,369.0,789.0,1.0,0,222.0,1
843,843,-0.6341345869991557,-0.6,1.0,0.0,376.0,885.0,0.0,0,169.0,1
844,844,-0.7090365296720194,-0.7,0.0,1.0,312.0,507.0,1.0,0,91.0,1
845,845,0.3111152304602395,0.3,1.0,1.0,469.0,671.0,1.0,1,300.0,1
846,846,0.3075634410065372,0.3,1.0,1.0,436.0,905.0,1.0,1,309.0,1
847,847,-0.3644174893813825,-0.4,1.0,0.0,464.0,506.0,0.0,0,370.0,1
848,848,0.0666910252499654,0.1,0.0,0.0,443.0,643.0,1.0,0,1914.0,0
849,849,-0.396789588267518,-0.4,0.0,1.0,411.0,727.0,1.0,0,362.0,1
850,850,-0.41698473311446327,-0.4,0.0,1.0,439.0,884.0,1.0,0,147.0,1
851,851,0.18234029920665928,0.2,1.0,1.0,420.0,755.0,1.0,1,585.0,1
852,852,0.7074406682077609,0.7,0.0,0.0,341.0,521.0,0.0,1,158.0,1
853,853,0.687768826428527,0.7,1.0,1.0,257.0,740.0,1.0,1,693.0,1
854,854,0.30696792384294114,0.3,1.0,1.0,315.0,888.0,1.0,1,127.0,1
855,855,-0.40786059563275906,-0.4,0.0,1.0,438.0,515.0,1.0,0,87.0,1
856,856,-0.5985922309877705,-0.6,1.0,0.0,429.0,952.0,0.0,0,329.0,1
857,857,0.46615127964231784,0.5,1.0,1.0,378.0,517.0,1.0,1,235.0,1
858,858,-0.08819565576375055,-0.1,1.0,0.0,336.0,565.0,0.0,0,469.0,1
859,859,-0.08514842933759392,-0.1,0.0,1.0,304.0,556.0,1.0,0,1270.0,1
860,860,-0.30858512404335237,-0.3,1.0,0.0,265.0,658.0,0.0,0,517.0,1
861,861,-0.2704835179919569,-0.3,1.0,0.0,351.0,803.0,0.0,0,1026.0,1
862,862,-0.3268551085220036,-0.3,0.0,1.0,341.0,522.0,1.0,0,247.0,1
863,863,-0.3484188016810903,-0.3,0.0,1.0,457.0,718.0,1.0,0,175.0,1
864,864,-0.31056797642243794,-0.3,0.0,1.0,260.0,694.0,1.0,0,326.0,1
865,865,-0.5361438211656563,-0.5,0.0,1.0,290.0,714.0,1.0,0,246.0,1
866,866,-0.2004486179646151,-0.2,0.0,1.0,329.0,768.0,1.0,0,293.0,1
867,867,0.11693305615512195,0.1,1.0,1.0,450.0,812.0,1.0,1,188.0,1
868,868,-0.3010115095453787,-0.3,1.0,0.0,393.0,673.0,0.0,0,684.0,1
869,869,-0.41689348421547107,-0.4,1.0,0.0,466.0,715.0,0.0,0,169.0,1
870,870,-0.8530727671531964,-0.9,1.0,0.0,435.0,764.0,0.0,0,601.0,1
871,871,-0.5684598644113967,-0.6,1.0,0.0,401.0,752.0,0.0,0,107.0,1
872,872,-0.215326720474032,-0.2,0.0,1.0,425.0,661.0,1.0,0,314.0,1
873,873,0.8180988913182027,0.8,1.0,1.0,438.0,541.0,1.0,1,51.0,1
874,874,0.39912615421524233,0.4,1.0,1.0,380.0,505.0,1.0,1,215.0,1
875,875,0.16894270046735438,0.2,1.0,1.0,486.0,974.0,1.0,1,300.0,1
876,876,-0.3511226758335928,-0.4,0.0,1.0,256.0,818.0,1.0,0,356.0,1
877,877,-0.28319715242390386,-0.3,1.0,0.0,360.0,691.0,0.0,0,609.0,1
878,878,-0.5693423783942676,-0.6,0.0,1.0,478.0,549.0,1.0,0,223.0,1
879,879,-0.13383101765709104,-0.1,1.0,0.0,311.0,852.0,0.0,0,1837.0,1
880,880,0.37428826825179706,0.4,0.0,0.0,438.0,998.0,0.0,1,324.0,1
881,881,0.12953866703492067,0.1,1.0,1.0,303.0,559.0,1.0,1,388.0,1
882,882,-0.8794112351099905,-0.9,0.0,1.0,487.0,718.0,1.0,0,-55.0,1
883,883,-0.009437975885458694,-0.0,0.0,1.0,297.0,971.0,1.0,0,-258.0,1
884,884,-0.38172566092808324,-0.4,1.0,0.0,293.0,878.0,0.0,0,799.0,1
885,885,-0.652032029271283,-0.7,1.0,0.0,345.0,961.0,0.0,0,264.0,1
886,886,0.47020421920391475,0.5,0.0,0.0,457.0,756.0,0.0,1,137.0,1
887,887,-0.17490629823708814,-0.2,1.0,0.0,296.0,832.0,0.0,0,752.0,1
888,888,0.0775563333881989,0.1,0.0,0.0,401.0,843.0,0.0,1,796.0,1
889,889,-0.08622080306817281,-0.1,1.0,0.0,324.0,598.0,1.0,1,1538.0,0
890,890,-0.42341657853460335,-0.4,1.0,0.0,333.0,554.0,0.0,0,443.0,1
891,891,-0.07575930528347541,-0.1,0.0,1.0,317.0,972.0,1.0,0,-289.0,1
892,892,-0.8740370411905498,-0.9,1.0,0.0,415.0,995.0,0.0,0,130.0,1
893,893,0.6248485261624822,0.6,0.0,0.0,489.0,650.0,0.0,1,201.0,1
894,894,0.17844598523442523,0.2,1.0,1.0,377.0,707.0,1.0,1,276.0,1
895,895,0.5437519627293953,0.5,1.0,1.0,273.0,520.0,1.0,1,567.0,1
896,896,-0.5267275190496821,-0.5,1.0,0.0,363.0,578.0,0.0,0,259.0,1
897,897,0.3734621461046762,0.4,0.0,0.0,463.0,578.0,0.0,1,239.0,1
898,898,-0.23133359921407348,-0.2,0.0,1.0,297.0,920.0,1.0,0,213.0,1
899,899,0.7987005977116187,0.8,0.0,0.0,317.0,531.0,0.0,1,182.0,1
900,900,0.8014810632537507,0.8,0.0,0.0,361.0,531.0,0.0,1,238.0,1
901,901,-0.12432364207606184,-0.1,1.0,0.0,458.0,870.0,0.0,0,752.0,1
902,902,-0.09264513249295281,-0.1,1.0,0.0,284.0,757.0,0.0,0,249.0,1
903,903,0.6725847317637074,0.7,1.0,1.0,313.0,745.0,1.0,1,252.0,1
904,904,-0.22714596480491822,-0.2,1.0,0.0,305.0,678.0,0.0,0,787.0,1
905,905,-0.7232341858978196,-0.7,0.0,1.0,455.0,884.0,1.0,0,231.0,1
906,906,-0.7164362354830481,-0.7,1.0,0.0,388.0,762.0,0.0,0,330.0,1
907,907,-0.5633156004375324,-0.6,0.0,1.0,357.0,517.0,1.0,0,216.0,1
908,908,0.1478377966733878,0.1,1.0,1.0,397.0,970.0,1.0,1,93.0,1
909,909,-0.35283131218877795,-0.4,0.0,1.0,441.0,907.0,1.0,0,292.0,1
910,910,0.4941985586666243,0.5,0.0,0.0,390.0,686.0,0.0,1,324.0,1
911,911,-0.40999990634627337,-0.4,1.0,0.0,341.0,840.0,0.0,0,409.0,1
912,912,0.12589476658176657,0.1,0.0,0.0,498.0,682.0,0.0,1,1820.0,1
913,913,-0.33865494021726184,-0.3,0.0,1.0,469.0,779.0,1.0,0,352.0,1
914,914,0.4942664206022843,0.5,0.0,0.0,325.0,718.0,0.0,1,217.0,1
915,915,-0.14994487994855488,-0.1,0.0,1.0,365.0,979.0,1.0,0,56.0,1
916,916,0.3980252612254481,0.4,1.0,1.0,318.0,530.0,1.0,1,192.0,1
917,917,0.392613350398327,0.4,0.0,0.0,252.0,966.0,0.0,1,302.0,1
918,918,-0.728992161852901,-0.7,0.0,1.0,492.0,679.0,1.0,0,199.0,1
919,919,-0.7596113521495339,-0.8,0.0,1.0,355.0,535.0,1.0,0,140.0,1
920,920,0.2146064228125425,0.2,0.0,0.0,468.0,965.0,0.0,1,147.0,1
921,921,-0.12741967434693713,-0.1,1.0,0.0,361.0,822.0,1.0,1,-3.0,0
922,922,-0.2418241274422045,-0.2,0.0,1.0,261.0,898.0,1.0,0,211.0,1
923,923,-0.6940106158228707,-0.7,0.0,1.0,374.0,909.0,1.0,0,177.0,1
924,924,0.44331547042627817,0.4,0.0,0.0,357.0,784.0,0.0,1,219.0,1
925,925,0.08539316239283323,0.1,1.0,1.0,338.0,627.0,1.0,1,885.0,1
926,926,-0.01843944805508735,-0.0,1.0,0.0,393.0,835.0,1.0,1,1772.0,0
927,927,-0.5522738339349273,-0.6,1.0,0.0,272.0,923.0,0.0,0,305.0,1
928,928,0.2722281569563002,0.3,0.0,0.0,405.0,675.0,0.0,1,430.0,1
929,929,0.013019270750319945,0.0,1.0,1.0,250.0,777.0,1.0,1,1973.0,1
930,930,-0.3837429377206817,-0.4,1.0,0.0,345.0,821.0,0.0,0,234.0,1
931,931,-0.5410258196567974,-0.5,0.0,1.0,436.0,861.0,1.0,0,93.0,1
932,932,-0.24866498071867138,-0.2,1.0,0.0,334.0,785.0,0.0,0,471.0,1
933,933,0.5271076161349847,0.5,1.0,1.0,289.0,965.0,1.0,1,176.0,1
934,934,0.12210247104687888,0.1,0.0,0.0,387.0,964.0,0.0,1,1169.0,1
935,935,-0.11341202691723018,-0.1,0.0,1.0,490.0,821.0,1.0,0,1579.0,1
936,936,0.2958956561728786,0.3,1.0,1.0,374.0,709.0,1.0,1,587.0,1
937,937,-0.4592432309985499,-0.5,0.0,1.0,301.0,593.0,1.0,0,236.0,1
938,938,-0.7524164065546983,-0.8,1.0,0.0,293.0,763.0,0.0,0,274.0,1
939,939,-0.4067647906240817,-0.4,0.0,1.0,278.0,622.0,1.0,0,200.0,1
940,940,-0.23934502198366314,-0.2,0.0,1.0,304.0,897.0,1.0,0,359.0,1
941,941,0.6843160975686137,0.7,1.0,1.0,351.0,964.0,1.0,1,175.0,1
942,942,0.2327301273181176,0.2,0.0,0.0,264.0,952.0,0.0,1,1724.0,1
943,943,0.5514612757916245,0.6,0.0,0.0,346.0,708.0,0.0,1,356.0,1
944,944,0.2430975784138084,0.2,1.0,1.0,329.0,579.0,1.0,1,162.0,1
945,945,0.7728624899415012,0.8,0.0,0.0,278.0,702.0,0.0,1,180.0,1
946,946,-0.8673260536376647,-0.9,0.0,1.0,458.0,796.0,1.0,0,116.0,1
947,947,0.6564514902431081,0.7,1.0,1.0,497.0,874.0,1.0,1,-211.0,1
948,948,0.4357529781304693,0.4,1.0,1.0,381.0,518.0,1.0,1,361.0,1
949,949,-0.1362381994263041,-0.1,1.0,0.0,306.0,732.0,0.0,0,802.0,1
950,950,-0.7014428915378017,-0.7,1.0,0.0,428.0,885.0,0.0,0,827.0,1
951,951,-0.04460440559813672,-0.0,1.0,0.0,318.0,528.0,1.0,1,2154.0,0
952,952,-0.6160505510052448,-0.6,0.0,1.0,406.0,807.0,1.0,0,107.0,1
953,953,0.22353846176876513,0.2,0.0,0.0,271.0,818.0,0.0,1,511.0,1
954,954,0.3831849053813755,0.4,1.0,1.0,250.0,677.0,1.0,1,133.0,1
955,955,-0.6956817092658318,-0.7,0.0,1.0,348.0,880.0,1.0,0,412.0,1
956,956,0.6426011375636919,0.6,1.0,1.0,401.0,683.0,1.0,1,176.0,1
957,957,-0.005595961289887819,-0.0,0.0,1.0,284.0,780.0,1.0,0,506.0,1
958,958,0.1175624545521271,0.1,0.0,0.0,255.0,531.0,0.0,1,944.0,1
959,959,0.51152994704977,0.5,0.0,0.0,299.0,667.0,0.0,1,104.0,1
960,960,-0.6267125268840736,-0.6,1.0,0.0,441.0,723.0,0.0,0,116.0,1
961,961,0.037297794010166196,0.0,0.0,0.0,330.0,934.0,1.0,0,1736.0,0
962,962,0.014548637060571634,0.0,1.0,1.0,466.0,898.0,1.0,1,1636.0,1
963,963,0.8105952662699841,0.8,0.0,0.0,396.0,858.0,0.0,1,186.0,1
964,964,0.11376201133304786,0.1,1.0,1.0,275.0,699.0,1.0,1,446.0,1
965,965,-0.8617651624273841,-0.9,0.0,1.0,391.0,515.0,1.0,0,194.0,1
966,966,0.22129401677914207,0.2,0.0,0.0,314.0,774.0,0.0,1,1242.0,1
967,967,-0.04760700259177675,-0.0,0.0,1.0,308.0,742.0,1.0,0,990.0,1
968,968,-0.19887125826664676,-0.2,0.0,1.0,461.0,884.0,1.0,0,325.0,1
969,969,0.7846513676488133,0.8,0.0,0.0,327.0,729.0,0.0,1,244.0,1
970,970,-0.1443774647207121,-0.1,1.0,0.0,459.0,531.0,0.0,0,700.0,1
971,971,-0.10042614282346685,-0.1,0.0,1.0,277.0,791.0,1.0,0,932.0,1
972,972,-0.7050932116357934,-0.7,0.0,1.0,272.0,825.0,1.0,0,133.0,1
973,973,0.4499084211869365,0.4,0.0,0.0,316.0,591.0,0.0,1,183.0,1
974,974,0.3300896905971985,0.3,1.0,1.0,321.0,701.0,1.0,1,188.0,1
975,975,0.4980408272609803,0.5,0.0,0.0,416.0,923.0,0.0,1,231.0,1
976,976,0.5844333148319348,0.6,1.0,1.0,267.0,674.0,1.0,1,219.0,1
977,977,0.6682233751458441,0.7,1.0,1.0,333.0,814.0,1.0,1,293.0,1
978,978,0.5357151452827332,0.5,1.0,1.0,324.0,559.0,1.0,1,57.0,1
979,979,-0.4467942857230282,-0.4,1.0,0.0,366.0,910.0,0.0,0,234.0,1
980,980,0.8084965404659962,0.8,0.0,0.0,255.0,521.0,0.0,1,134.0,1
981,981,-0.3317756335807306,-0.3,0.0,1.0,413.0,866.0,1.0,0,291.0,1
982,982,0.33937691670765646,0.3,1.0,1.0,304.0,791.0,1.0,1,35.0,1
983,983,0.4905292460122789,0.5,1.0,1.0,274.0,733.0,1.0,1,103.0,1
984,984,-0.8885269234820464,-0.9,0.0,1.0,485.0,686.0,1.0,0,219.0,1
985,985,0.32155743168156137,0.3,1.0,1.0,309.0,653.0,1.0,1,208.0,1
986,986,-0.8542446369929616,-0.9,0.0,1.0,378.0,557.0,1.0,0,275.0,1
987,987,-0.1965918507923643,-0.2,0.0,1.0,497.0,806.0,1.0,0,137.0,1
988,988,0.5689489875278292,0.6,1.0,1.0,309.0,818.0,1.0,1,423.0,1
989,989,0.09606551419531473,0.1,0.0,0.0,459.0,644.0,0.0,1,1897.0,1
990,990,-0.39391701653636013,-0.4,1.0,0.0,407.0,997.0,0.0,0,266.0,1
991,991,0.7821592338250231,0.8,0.0,0.0,464.0,989.0,0.0,1,187.0,1
992,992,-0.1870025883138745,-0.2,0.0,1.0,294.0,968.0,1.0,0,278.0,1
993,993,-0.1405290266044088,-0.1,1.0,0.0,434.0,949.0,0.0,0,1617.0,1
994,994,-0.4372766747378236,-0.4,0.0,1.0,438.0,623.0,1.0,0,369.0,1
995,995,0.4297698650854863,0.4,0.0,0.0,460.0,694.0,0.0,1,386.0,1
996,996,0.6917414547838084,0.7,1.0,1.0,279.0,558.0,1.0,1,273.0,1
997,997,0.4733979702215029,0.5,0.0,0.0,485.0,768.0,0.0,1,377.0,1
998,998,-0.48758380726980244,-0.5,0.0,1.0,280.0,606.0,1.0,0,194.0,1
999,999,0.15817635778481576,0.2,1.0,1.0,304.0,817.0,1.0,1,859.0,1
1000,1000,0.021156300516740556,0.0,0.0,0.0,358.0,888.0,1.0,0,1754.0,0
1001,1001,-0.6212709049664724,-0.6,1.0,0.0,389.0,526.0,0.0,0,185.0,1
1002,1002,0.44733937844225424,0.4,1.0,1.0,481.0,723.0,1.0,1,286.0,1
1003,1003,0.28114005612549897,0.3,1.0,1.0,359.0,979.0,1.0,1,182.0,1
1004,1004,0.23047948555022824,0.2,0.0,0.0,286.0,998.0,0.0,1,646.0,1
1005,1005,-0.4638077961209401,-0.5,1.0,0.0,344.0,658.0,0.0,0,358.0,1
1006,1006,-0.8472722264125804,-0.8,1.0,0.0,289.0,556.0,0.0,0,255.0,1
1007,1007,0.8121126992497915,0.8,1.0,1.0,282.0,504.0,1.0,1,344.0,1
1008,1008,-0.7510031425068009,-0.8,1.0,0.0,270.0,737.0,0.0,0,173.0,1
1009,1009,-0.3834529511261743,-0.4,0.0,1.0,316.0,509.0,1.0,0,335.0,1
1010,1010,-0.4621006115910899,-0.5,1.0,0.0,427.0,750.0,0.0,0,383.0,1
1011,1011,0.7293445777554058,0.7,1.0,1.0,383.0,893.0,1.0,1,84.0,1
1012,1012,0.23581632858810575,0.2,1.0,1.0,369.0,959.0,1.0,1,422.0,1
1013,1013,-0.2169561117320944,-0.2,1.0,0.0,489.0,581.0,0.0,0,1480.0,1
1014,1014,-0.8138919901630418,-0.8,1.0,0.0,330.0,930.0,0.0,0,210.0,1
1015,1015,-0.4030529703590163,-0.4,1.0,0.0,491.0,636.0,0.0,0,553.0,1
1016,1016,-0.8740753964244731,-0.9,0.0,1.0,372.0,813.0,1.0,0,155.0,1
1017,1017,0.811273208406697,0.8,0.0,0.0,381.0,676.0,0.0,1,173.0,1
1018,1018,0.6436100997765649,0.6,0.0,0.0,340.0,896.0,0.0,1,264.0,1
1019,1019,0.42817145769410214,0.4,0.0,0.0,375.0,917.0,0.0,1,398.0,1
1020,1020,0.5432765032393326,0.5,0.0,0.0,292.0,952.0,0.0,1,166.0,1
1021,1021,-0.10206442908026814,-0.1,1.0,0.0,325.0,578.0,0.0,0,1747.0,1
1022,1022,-0.13950619859078806,-0.1,1.0,0.0,430.0,870.0,0.0,0,1080.0,1
1023,1023,-0.5674325499249531,-0.6,0.0,1.0,437.0,840.0,1.0,0,123.0,1
1024,1024,0.6591005932101414,0.7,0.0,0.0,300.0,694.0,0.0,1,346.0,1
1025,1025,0.5180728795288482,0.5,0.0,0.0,373.0,943.0,0.0,1,194.0,1
1026,1026,0.7639169217439409,0.8,0.0,0.0,423.0,560.0,0.0,1,237.0,1
1027,1027,0.7170962643264785,0.7,0.0,0.0,373.0,500.0,0.0,1,287.0,1
1028,1028,-0.3073414248213615,-0.3,0.0,1.0,319.0,730.0,1.0,0,891.0,1
1029,1029,-0.5045549020662143,-0.5,1.0,0.0,474.0,918.0,0.0,0,268.0,1
1030,1030,-0.7599214154855841,-0.8,0.0,1.0,359.0,832.0,1.0,0,199.0,1
1031,1031,-0.8040557820058688,-0.8,1.0,0.0,491.0,807.0,0.0,0,262.0,1
1032,1032,0.47667609200778005,0.5,0.0,0.0,455.0,940.0,0.0,1,235.0,1
1033,1033,-0.640964098981331,-0.6,0.0,1.0,369.0,885.0,1.0,0,186.0,1
1034,1034,0.6906532287614654,0.7,0.0,0.0,413.0,646.0,0.0,1,341.0,1
1035,1035,0.2280591088583358,0.2,1.0,1.0,402.0,867.0,0.0,0,-129.0,0
1036,1036,0.5790154573909042,0.6,0.0,0.0,464.0,846.0,0.0,1,220.0,1
1037,1037,-0.46451196305045594,-0.5,0.0,1.0,302.0,863.0,1.0,0,115.0,1
1038,1038,-0.5900954949832785,-0.6,0.0,1.0,284.0,508.0,1.0,0,168.0,1
1039,1039,-0.6953708055443619,-0.7,0.0,1.0,288.0,563.0,1.0,0,159.0,1
1040,1040,-0.8157241183189453,-0.8,0.0,1.0,259.0,536.0,1.0,0,195.0,1
1041,1041,0.5440492295873153,0.5,1.0,1.0,371.0,883.0,1.0,1,166.0,1
1042,1042,0.12499982661632292,0.1,1.0,1.0,280.0,951.0,1.0,1,109.0,1
1043,1043,-0.5393142810086282,-0.5,0.0,1.0,452.0,900.0,1.0,0,138.0,1
1044,1044,0.041028272343573646,0.0,0.0,0.0,405.0,627.0,1.0,0,1968.0,0
1045,1045,-0.02491145379281101,-0.0,1.0,0.0,397.0,928.0,1.0,1,45.0,0
1046,1046,-0.48153038773750306,-0.5,1.0,0.0,273.0,995.0,0.0,0,292.0,1
1047,1047,0.7313598180456505,0.7,0.0,0.0,332.0,653.0,0.0,1,205.0,1
1048,1048,0.8650239537251233,0.9,1.0,1.0,394.0,799.0,1.0,1,-133.0,1
1049,1049,-0.08782794912856062,-0.1,0.0,1.0,352.0,838.0,1.0,0,1480.0,1
1050,1050,0.5415258660176127,0.5,0.0,0.0,351.0,781.0,0.0,1,128.0,1
1051,1051,-0.32703334121445105,-0.3,0.0,1.0,437.0,812.0,1.0,0,161.0,1
1052,1052,0.6463898901165285,0.6,1.0,1.0,430.0,657.0,1.0,1,223.0,1
1053,1053,-0.724879498332345,-0.7,0.0,1.0,299.0,980.0,1.0,0,211.0,1
1054,1054,0.7452748016280798,0.7,1.0,1.0,311.0,646.0,1.0,1,173.0,1
1055,1055,0.6284363426307128,0.6,1.0,1.0,413.0,777.0,1.0,1,270.0,1
1056,1056,0.6219427055155301,0.6,1.0,1.0,324.0,667.0,1.0,1,149.0,1
1057,1057,0.6250331515198405,0.6,0.0,0.0,423.0,823.0,0.0,1,184.0,1
1058,1058,0.8932800927658732,0.9,1.0,1.0,250.0,690.0,1.0,1,200.0,1
1059,1059,0.8750602793797239,0.9,1.0,1.0,474.0,754.0,1.0,1,82.0,1
1060,1060,-0.07063418823839895,-0.1,0.0,1.0,258.0,725.0,1.0,0,107.0,1
1061,1061,0.22267683321888854,0.2,1.0,1.0,352.0,993.0,1.0,1,385.0,1
1062,1062,-0.07495789080161708,-0.1,0.0,1.0,402.0,864.0,1.0,0,1094.0,1
1063,1063,-0.24642960592525032,-0.2,1.0,0.0,478.0,798.0,0.0,0,434.0,1
1064,1064,0.37790435866852456,0.4,1.0,1.0,302.0,613.0,1.0,1,815.0,1
1065,1065,-0.4566614742734258,-0.5,0.0,1.0,299.0,518.0,1.0,0,283.0,1
1066,1066,-0.5039296417047219,-0.5,1.0,0.0,271.0,515.0,0.0,0,274.0,1
1067,1067,0.17999289413847996,0.2,0.0,0.0,402.0,805.0,0.0,1,243.0,1
1068,1068,0.37332740459439384,0.4,0.0,0.0,257.0,888.0,0.0,1,335.0,1
1069,1069,-0.31617010269550405,-0.3,0.0,1.0,386.0,552.0,1.0,0,82.0,1
1070,1070,-0.5830879993227623,-0.6,1.0,0.0,468.0,942.0,0.0,0,300.0,1
1071,1071,-0.5630895865285797,-0.6,0.0,1.0,271.0,974.0,1.0,0,115.0,1
1072,1072,0.10703383132355337,0.1,0.0,0.0,431.0,583.0,0.0,1,1736.0,1
1073,1073,0.0885337230363894,0.1,1.0,1.0,398.0,509.0,1.0,1,633.0,1
1074,1074,0.46426958882544966,0.5,1.0,1.0,285.0,514.0,1.0,1,261.0,1
1075,1075,0.3697450757557136,0.4,1.0,1.0,453.0,833.0,1.0,1,104.0,1
1076,1076,0.08520547027031611,0.1,0.0,0.0,297.0,629.0,0.0,1,2074.0,1
1077,1077,-0.8441447537135196,-0.8,1.0,0.0,343.0,862.0,0.0,0,225.0,1
1078,1078,0.5425838181014234,0.5,1.0,1.0,463.0,959.0,1.0,1,318.0,1
1079,1079,-0.8231152230557423,-0.8,0.0,1.0,304.0,865.0,1.0,0,31.0,1
1080,1080,-0.7730187851260075,-0.8,0.0,1.0,478.0,937.0,1.0,0,95.0,1
1081,1081,0.8219201371656663,0.8,1.0,1.0,275.0,579.0,1.0,1,306.0,1
1082,1082,0.8343822653149865,0.8,1.0,1.0,300.0,642.0,1.0,1,78.0,1
1083,1083,-0.12031555746491429,-0.1,1.0,0.0,423.0,509.0,0.0,0,1278.0,1
1084,1084,-0.5350344683370335,-0.5,0.0,1.0,327.0,773.0,1.0,0,130.0,1
1085,1085,0.5500784088567051,0.6,0.0,0.0,401.0,578.0,0.0,1,201.0,1
1086,1086,-0.35286714659170937,-0.4,1.0,0.0,348.0,803.0,1.0,1,19.0,0
1087,1087,-0.35401147761918705,-0.4,0.0,1.0,478.0,762.0,1.0,0,130.0,1
1088,1088,-0.8652087718495288,-0.9,1.0,0.0,435.0,862.0,0.0,0,133.0,1
1089,1089,0.07666248723051039,0.1,0.0,0.0,477.0,748.0,0.0,1,1665.0,1
1090,1090,-0.39751900351926595,-0.4,0.0,1.0,437.0,541.0,1.0,0,222.0,1
1091,1091,0.4231467299368822,0.4,1.0,1.0,252.0,507.0,1.0,1,601.0,1
1092,1092,-0.029041630764040205,-0.0,1.0,0.0,369.0,693.0,1.0,1,1938.0,0
1093,1093,0.1568359876931128,0.2,0.0,0.0,357.0,867.0,0.0,1,1076.0,1
1094,1094,0.18763652084065974,0.2,0.0,0.0,283.0,927.0,0.0,1,960.0,1
1095,1095,-0.4170326486961125,-0.4,0.0,1.0,479.0,724.0,1.0,0,287.0,1
1096,1096,0.7311438131419267,0.7,1.0,1.0,280.0,807.0,1.0,1,153.0,1
1097,1097,-0.06764613425759936,-0.1,1.0,0.0,360.0,886.0,1.0,1,1754.0,0
1098,1098,-0.207799564457249,-0.2,0.0,1.0,273.0,778.0,1.0,0,259.0,1
1099,1099,-0.3510659296703377,-0.4,1.0,0.0,430.0,548.0,0.0,0,582.0,1
1100,1100,0.3202864638297839,0.3,1.0,1.0,312.0,630.0,1.0,1,48.0,1
1101,1101,-0.48359894177748447,-0.5,1.0,0.0,428.0,707.0,0.0,0,325.0,1
1102,1102,0.006383243548335749,0.0,0.0,0.0,251.0,795.0,1.0,0,1954.0,0
1103,1103,-0.17651305977666487,-0.2,1.0,0.0,397.0,826.0,0.0,0,557.0,1
1104,1104,-0.6183342409119477,-0.6,0.0,1.0,459.0,957.0,1.0,0,174.0,1
1105,1105,0.5242378690016686,0.5,1.0,1.0,339.0,682.0,1.0,1,149.0,1
1106,1106,-0.3433814267362775,-0.3,1.0,0.0,350.0,965.0,0.0,0,355.0,1
1107,1107,0.6790074295050451,0.7,1.0,1.0,303.0,946.0,0.0,0,1.0,0
1108,1108,0.08241377430436958,0.1,1.0,1.0,296.0,997.0,1.0,1,-93.0,1
1109,1109,-0.09098043130644928,-0.1,1.0,0.0,332.0,566.0,0.0,0,442.0,1
1110,1110,0.4105266506108113,0.4,0.0,0.0,318.0,678.0,0.0,1,234.0,1
1111,1111,0.38169652960880185,0.4,1.0,1.0,403.0,505.0,1.0,1,272.0,1
1112,1112,0.6157199847132367,0.6,0.0,0.0,482.0,824.0,0.0,1,204.0,1
1113,1113,0.7803218280535887,0.8,0.0,0.0,316.0,695.0,0.0,1,179.0,1
1114,1114,0.8641208782594106,0.9,0.0,0.0,447.0,894.0,0.0,1,299.0,1
1115,1115,-0.24494928300414276,-0.2,0.0,1.0,402.0,845.0,1.0,0,493.0,1
1116,1116,-0.5423988015452332,-0.5,1.0,0.0,390.0,577.0,0.0,0,313.0,1
1117,1117,-0.6137816622911679,-0.6,0.0,1.0,433.0,512.0,1.0,0,215.0,1
1118,1118,0.2644335611631251,0.3,1.0,1.0,252.0,606.0,1.0,1,262.0,1
1119,1119,0.15738473781451512,0.2,0.0,0.0,362.0,714.0,0.0,1,1794.0,1
1120,1120,0.32830611287077816,0.3,1.0,1.0,495.0,624.0,1.0,1,531.0,1
1121,1121,-0.5792126643747224,-0.6,1.0,0.0,305.0,886.0,0.0,0,279.0,1
1122,1122,0.27830476731261167,0.3,0.0,0.0,440.0,828.0,0.0,1,752.0,1
1123,1123,-0.7740220869802982,-0.8,0.0,1.0,382.0,804.0,1.0,0,204.0,1
1124,1124,0.8075680119188772,0.8,1.0,1.0,325.0,658.0,1.0,1,197.0,1
1125,1125,0.028523548740866156,0.0,0.0,0.0,453.0,783.0,0.0,1,1764.0,1
1126,1126,0.538896475198119,0.5,1.0,1.0,281.0,554.0,1.0,1,165.0,1
1127,1127,-0.8203508916362047,-0.8,1.0,0.0,363.0,632.0,0.0,0,155.0,1
1128,1128,-0.5270694664320291,-0.5,0.0,1.0,403.0,563.0,1.0,0,84.0,1
1129,1129,0.008962472529705168,0.0,1.0,1.0,250.0,846.0,1.0,1,544.0,1
1130,1130,0.2730608001199998,0.3,1.0,1.0,403.0,549.0,1.0,1,288.0,1
1131,1131,0.8261140760059921,0.8,0.0,0.0,286.0,555.0,0.0,1,309.0,1
1132,1132,0.027349710406733507,0.0,0.0,0.0,364.0,550.0,1.0,0,2086.0,0
1133,1133,-0.06524946683990396,-0.1,0.0,1.0,384.0,890.0,1.0,0,266.0,1
1134,1134,-0.18774859686996104,-0.2,0.0,1.0,305.0,876.0,1.0,0,239.0,1
1135,1135,0.2877479225917533,0.3,1.0,1.0,251.0,731.0,1.0,1,178.0,1
1136,1136,-0.3011047947904584,-0.3,0.0,1.0,450.0,777.0,1.0,0,73.0,1
1137,1137,-0.7878857002893187,-0.8,1.0,0.0,477.0,645.0,0.0,0,288.0,1
1138,1138,0.02745389394587372,0.0,0.0,0.0,296.0,921.0,1.0,0,1783.0,0
1139,1139,-0.12955750213299777,-0.1,0.0,1.0,401.0,857.0,1.0,0,872.0,1
1140,1140,-0.4670919654717714,-0.5,0.0,1.0,466.0,908.0,1.0,0,176.0,1
1141,1141,0.28931525304372585,0.3,1.0,1.0,443.0,836.0,1.0,1,271.0,1
1142,1142,0.8840663254112376,0.9,1.0,1.0,359.0,848.0,1.0,1,133.0,1
1143,1143,0.6515936498726723,0.7,1.0,1.0,363.0,726.0,1.0,1,211.0,1
1144,1144,0.561799834392564,0.6,0.0,0.0,353.0,710.0,0.0,1,227.0,1
1145,1145,-0.04666114144244704,-0.0,0.0,1.0,280.0,708.0,1.0,0,1632.0,1
1146,1146,-0.45122084297445564,-0.5,1.0,0.0,454.0,940.0,0.0,0,376.0,1
1147,1147,0.02952060573861326,0.0,0.0,0.0,400.0,503.0,1.0,0,2097.0,0
1148,1148,-0.7262619528418979,-0.7,0.0,1.0,497.0,805.0,1.0,0,158.0,1
1149,1149,0.38732374075256526,0.4,1.0,1.0,363.0,948.0,1.0,1,-491.0,1
1150,1150,0.8878851957311408,0.9,0.0,0.0,480.0,725.0,1.0,0,-55.0,0
1151,1151,0.44529446098574665,0.4,1.0,1.0,415.0,835.0,1.0,1,-250.0,1
1152,1152,0.4820068847887534,0.5,0.0,0.0,462.0,952.0,0.0,1,466.0,1
1153,1153,0.33273533593814275,0.3,1.0,1.0,375.0,705.0,1.0,1,230.0,1
1154,1154,0.21786156674152035,0.2,1.0,1.0,263.0,737.0,1.0,1,190.0,1
1155,1155,-0.10763972908547936,-0.1,1.0,0.0,335.0,763.0,0.0,0,792.0,1
1156,1156,0.5033207135940901,0.5,0.0,0.0,348.0,856.0,0.0,1,286.0,1
1157,1157,0.858215904498122,0.9,1.0,1.0,402.0,608.0,1.0,1,290.0,1
1158,1158,-0.6618917930647479,-0.7,0.0,1.0,306.0,774.0,1.0,0,130.0,1
1159,1159,0.6997349191692198,0.7,1.0,1.0,253.0,609.0,1.0,1,178.0,1
1160,1160,-0.307863646072004,-0.3,1.0,0.0,268.0,947.0,0.0,0,665.0,1
1161,1161,-0.6009839622111705,-0.6,1.0,0.0,390.0,652.0,0.0,0,328.0,1
1162,1162,0.25904936878448115,0.3,0.0,0.0,438.0,711.0,0.0,1,811.0,1
1163,1163,-0.26830646749691756,-0.3,1.0,0.0,370.0,621.0,0.0,0,639.0,1
1164,1164,0.11636005299959684,0.1,0.0,0.0,347.0,903.0,0.0,1,1000.0,1
1165,1165,0.21534482968922364,0.2,1.0,1.0,341.0,510.0,1.0,1,899.0,1
1166,1166,0.40298564676182813,0.4,1.0,1.0,415.0,809.0,1.0,1,146.0,1
1167,1167,0.08032960666514855,0.1,0.0,0.0,310.0,509.0,1.0,0,2181.0,0
1168,1168,0.40708356279943436,0.4,0.0,0.0,391.0,881.0,0.0,1,448.0,1
1169,1169,0.14301802582114342,0.1,1.0,1.0,379.0,777.0,1.0,1,884.0,1
1170,1170,0.6035349911175133,0.6,0.0,0.0,254.0,975.0,0.0,1,191.0,1
1171,1171,0.8345656429768947,0.8,0.0,0.0,396.0,878.0,0.0,1,126.0,1
1172,1172,0.197246808829732,0.2,1.0,1.0,419.0,950.0,1.0,1,221.0,1
1173,1173,0.21059751057422582,0.2,1.0,1.0,444.0,724.0,1.0,1,182.0,1
1174,1174,-0.21896228199481926,-0.2,1.0,0.0,364.0,833.0,0.0,0,1383.0,1
1175,1175,0.09502361172582863,0.1,1.0,1.0,423.0,687.0,1.0,1,340.0,1
1176,1176,-0.23846484365563325,-0.2,0.0,1.0,282.0,973.0,1.0,0,245.0,1
1177,1177,0.571379314667194,0.6,0.0,0.0,266.0,791.0,0.0,1,203.0,1
1178,1178,0.456050809371373,0.5,1.0,1.0,311.0,883.0,1.0,1,276.0,1
1179,1179,0.08106347518746482,0.1,1.0,1.0,474.0,765.0,1.0,1,361.0,1
1180,1180,-0.14465244460608795,-0.1,1.0,0.0,461.0,585.0,0.0,0,624.0,1
1181,1181,-0.24550750455155623,-0.2,0.0,1.0,315.0,757.0,1.0,0,308.0,1
1182,1182,-0.5003588421323961,-0.5,0.0,1.0,455.0,972.0,1.0,0,213.0,1
1183,1183,0.477426187695532,0.5,0.0,0.0,278.0,844.0,0.0,1,378.0,1
1184,1184,0.09941859664813835,0.1,0.0,0.0,492.0,675.0,0.0,1,1833.0,1
1185,1185,-0.5402240978486847,-0.5,1.0,0.0,326.0,694.0,0.0,0,730.0,1
1186,1186,0.17973310305416856,0.2,0.0,0.0,252.0,728.0,0.0,1,1190.0,1
1187,1187,-0.41373326061184895,-0.4,1.0,0.0,445.0,537.0,0.0,0,548.0,1
1188,1188,0.5915156631894577,0.6,1.0,1.0,467.0,951.0,1.0,1,92.0,1
1189,1189,0.2594586618524023,0.3,0.0,0.0,255.0,633.0,0.0,1,622.0,1
1190,1190,0.20343014966672224,0.2,0.0,0.0,299.0,928.0,0.0,1,183.0,1
1191,1191,0.6399395875521195,0.6,1.0,1.0,408.0,566.0,1.0,1,216.0,1
1192,1192,0.6122836889311803,0.6,0.0,0.0,499.0,539.0,0.0,1,222.0,1
1193,1193,0.5872780344813685,0.6,1.0,1.0,310.0,516.0,1.0,1,104.0,1
1194,1194,-0.8700983314496853,-0.9,0.0,1.0,453.0,540.0,1.0,0,77.0,1
1195,1195,0.44852719897392623,0.4,0.0,0.0,435.0,888.0,0.0,1,247.0,1
1196,1196,0.5250841426225402,0.5,0.0,0.0,285.0,615.0,0.0,1,350.0,1
1197,1197,-0.7782743400746823,-0.8,1.0,0.0,409.0,720.0,0.0,0,191.0,1
1198,1198,0.199963678105744,0.2,0.0,0.0,313.0,972.0,0.0,1,1715.0,1
1199,1199,-0.5819162819851527,-0.6,0.0,1.0,328.0,761.0,1.0,0,171.0,1
1200,1200,-0.12309712792193073,-0.1,1.0,0.0,480.0,803.0,0.0,0,1717.0,1
1201,1201,-0.6437719064167262,-0.6,1.0,0.0,274.0,779.0,0.0,0,187.0,1
1202,1202,-0.3481990264719783,-0.3,0.0,1.0,271.0,797.0,1.0,0,192.0,1
1203,1203,-0.4728443998401176,-0.5,0.0,1.0,383.0,949.0,1.0,0,218.0,1
1204,1204,-0.4427778190911238,-0.4,1.0,0.0,367.0,621.0,0.0,0,922.0,1
1205,1205,-0.4678610598917011,-0.5,1.0,0.0,487.0,991.0,0.0,0,352.0,1
1206,1206,-0.6194358228679171,-0.6,0.0,1.0,497.0,615.0,1.0,0,-132.0,1
1207,1207,0.2547283803628758,0.3,0.0,0.0,397.0,914.0,0.0,1,379.0,1
1208,1208,0.1646406031477584,0.2,1.0,1.0,492.0,873.0,1.0,1,295.0,1
1209,1209,-0.5024657224025414,-0.5,0.0,1.0,294.0,768.0,1.0,0,128.0,1
1210,1210,0.5122463698039069,0.5,1.0,1.0,321.0,764.0,1.0,1,555.0,1
1211,1211,-0.4396992032425175,-0.4,0.0,1.0,453.0,995.0,1.0,0,292.0,1
1212,1212,0.7809735202270883,0.8,1.0,1.0,394.0,854.0,1.0,1,132.0,1
1213,1213,-0.5795235068467413,-0.6,1.0,0.0,423.0,947.0,1.0,1,10.0,0
1214,1214,-0.6194467659059983,-0.6,0.0,1.0,451.0,814.0,1.0,0,155.0,1
1215,1215,0.4111599028509406,0.4,0.0,0.0,442.0,562.0,0.0,1,116.0,1
1216,1216,-0.49545590725950617,-0.5,1.0,0.0,458.0,732.0,0.0,0,240.0,1
1217,1217,0.6567664063872171,0.7,0.0,0.0,374.0,729.0,0.0,1,187.0,1
1218,1218,0.7394691525268627,0.7,0.0,0.0,280.0,532.0,0.0,1,218.0,1
1219,1219,0.7835340154304699,0.8,1.0,1.0,293.0,642.0,1.0,1,395.0,1
1220,1220,0.7054389679658398,0.7,0.0,0.0,328.0,835.0,0.0,1,237.0,1
1221,1221,-0.1492189270166494,-0.1,1.0,0.0,384.0,581.0,0.0,0,515.0,1
1222,1222,-0.6757911233416632,-0.7,1.0,0.0,445.0,596.0,0.0,0,339.0,1
1223,1223,0.36116859233312704,0.4,0.0,0.0,437.0,949.0,0.0,1,434.0,1
1224,1224,0.4820022470883699,0.5,1.0,1.0,486.0,732.0,1.0,1,122.0,1
1225,1225,-0.46427801785170913,-0.5,0.0,1.0,322.0,557.0,1.0,0,281.0,1
1226,1226,0.2766447810746254,0.3,0.0,0.0,430.0,895.0,0.0,1,735.0,1
1227,1227,-0.5452509158594647,-0.5,0.0,1.0,407.0,713.0,1.0,0,180.0,1
1228,1228,0.5301119443984182,0.5,0.0,0.0,343.0,850.0,0.0,1,247.0,1
1229,1229,0.4947946596647622,0.5,1.0,1.0,439.0,675.0,1.0,1,316.0,1
1230,1230,0.7365060379048495,0.7,0.0,0.0,428.0,543.0,0.0,1,209.0,1
1231,1231,-0.21838190496138,-0.2,0.0,1.0,434.0,552.0,1.0,0,344.0,1
1232,1232,0.34783429561683554,0.3,0.0,0.0,413.0,812.0,0.0,1,375.0,1
1233,1233,0.3380932507749398,0.3,1.0,1.0,474.0,834.0,1.0,1,82.0,1
1234,1234,0.38794433178934684,0.4,0.0,0.0,340.0,727.0,0.0,1,313.0,1
1235,1235,0.061908406848325104,0.1,0.0,0.0,350.0,581.0,1.0,0,2069.0,0
1236,1236,-0.7195152834643477,-0.7,1.0,0.0,489.0,973.0,0.0,0,368.0,1
1237,1237,-0.38581320809072317,-0.4,1.0,0.0,293.0,587.0,0.0,0,430.0,1
1238,1238,0.40238689608770983,0.4,0.0,0.0,334.0,528.0,0.0,1,448.0,1
1239,1239,0.020349120836292367,0.0,1.0,1.0,332.0,791.0,1.0,1,557.0,1
1240,1240,0.7902837680698419,0.8,1.0,1.0,353.0,554.0,1.0,1,193.0,1
1241,1241,0.0023591585198203813,0.0,0.0,0.0,271.0,660.0,1.0,0,2069.0,0
1242,1242,0.20280275545676563,0.2,0.0,0.0,356.0,889.0,0.0,1,1405.0,1
1243,1243,0.2294098435850983,0.2,0.0,0.0,297.0,623.0,0.0,1,470.0,1
1244,1244,0.8055885705308777,0.8,0.0,0.0,324.0,684.0,0.0,1,152.0,1
1245,1245,-0.829717594721966,-0.8,0.0,1.0,437.0,802.0,1.0,0,71.0,1
1246,1246,0.28858741328187787,0.3,0.0,0.0,451.0,957.0,0.0,1,872.0,1
1247,1247,-0.180322035137516,-0.2,1.0,0.0,279.0,797.0,0.0,0,814.0,1
1248,1248,-0.40510154358435896,-0.4,1.0,0.0,354.0,693.0,0.0,0,243.0,1
1249,1249,-0.07829396406090161,-0.1,0.0,1.0,476.0,614.0,1.0,0,1710.0,1
1250,1250,-0.4893018417516922,-0.5,1.0,0.0,468.0,781.0,0.0,0,261.0,1
1251,1251,-0.21011022151312841,-0.2,1.0,0.0,379.0,656.0,0.0,0,795.0,1
1252,1252,-0.178549119146456,-0.2,0.0,1.0,397.0,703.0,1.0,0,470.0,1
1253,1253,-0.555385985512395,-0.6,0.0,1.0,356.0,968.0,1.0,0,126.0,1
1254,1254,0.35986189138269153,0.4,0.0,0.0,262.0,896.0,0.0,1,422.0,1
1255,1255,0.03607206785651773,0.0,1.0,1.0,483.0,738.0,1.0,1,1079.0,1
1256,1256,0.450193174600903,0.5,1.0,1.0,303.0,786.0,1.0,1,161.0,1
1257,1257,-0.37876879374854644,-0.4,1.0,0.0,464.0,866.0,0.0,0,190.0,1
1258,1258,0.2271761666504789,0.2,0.0,0.0,358.0,930.0,0.0,1,472.0,1
1259,1259,-0.8234288859408389,-0.8,1.0,0.0,361.0,737.0,0.0,0,332.0,1
1260,1260,0.1355193791477226,0.1,1.0,1.0,263.0,548.0,1.0,1,1149.0,1
1261,1261,-0.16547554308184698,-0.2,1.0,0.0,461.0,998.0,0.0,0,641.0,1
1262,1262,0.7281852192574009,0.7,0.0,0.0,363.0,917.0,0.0,1,170.0,1
1263,1263,-0.08503463570846159,-0.1,1.0,0.0,478.0,568.0,0.0,0,1704.0,1
1264,1264,-0.5594031778250923,-0.6,1.0,0.0,477.0,971.0,0.0,0,162.0,1
1265,1265,-0.4876983138544982,-0.5,0.0,1.0,468.0,877.0,1.0,0,25.0,1
1266,1266,0.4812923519063893,0.5,0.0,0.0,292.0,896.0,0.0,1,352.0,1
1267,1267,0.08055775006410337,0.1,1.0,1.0,277.0,768.0,1.0,1,1945.0,1
1268,1268,0.4357766960677566,0.4,0.0,0.0,495.0,541.0,0.0,1,194.0,1
1269,1269,0.4916999985580802,0.5,1.0,1.0,494.0,984.0,1.0,1,232.0,1
1270,1270,0.22310029205379045,0.2,0.0,0.0,421.0,737.0,0.0,1,392.0,1
1271,1271,-0.4227598120000336,-0.4,0.0,1.0,268.0,766.0,1.0,0,196.0,1
1272,1272,0.8515661708545347,0.9,0.0,0.0,377.0,958.0,0.0,1,155.0,1
1273,1273,-0.7433224843662347,-0.7,1.0,0.0,382.0,739.0,0.0,0,349.0,1
1274,1274,-0.7462250810700954,-0.7,0.0,1.0,331.0,861.0,1.0,0,148.0,1
1275,1275,-0.7167016718504363,-0.7,1.0,0.0,266.0,808.0,0.0,0,176.0,1
1276,1276,-0.5164276921920312,-0.5,1.0,0.0,479.0,794.0,0.0,0,147.0,1
1277,1277,-0.2723766609883175,-0.3,0.0,1.0,297.0,644.0,1.0,0,469.0,1
1278,1278,-0.6829996844182615,-0.7,1.0,0.0,402.0,945.0,0.0,0,143.0,1
1279,1279,0.7487443885190453,0.7,0.0,0.0,308.0,532.0,0.0,1,210.0,1
1280,1280,-0.5447500743258258,-0.5,0.0,1.0,316.0,530.0,1.0,0,134.0,1
1281,1281,-0.11217432676360406,-0.1,1.0,0.0,327.0,711.0,0.0,0,1962.0,1
1282,1282,-0.08614174914165307,-0.1,0.0,1.0,352.0,876.0,1.0,0,912.0,1
1283,1283,0.08098221822637974,0.1,1.0,1.0,311.0,938.0,1.0,1,861.0,1
1284,1284,0.47914637994816245,0.5,0.0,0.0,269.0,682.0,0.0,1,399.0,1
1285,1285,-0.5186926892700346,-0.5,1.0,0.0,464.0,960.0,0.0,0,286.0,1
1286,1286,0.06708085890434323,0.1,1.0,1.0,331.0,829.0,1.0,1,510.0,1
1287,1287,-0.4202153075521041,-0.4,1.0,0.0,414.0,609.0,0.0,0,347.0,1
1288,1288,0.2349135987931642,0.2,0.0,0.0,295.0,761.0,0.0,1,424.0,1
1289,1289,0.8731914958758286,0.9,1.0,1.0,252.0,666.0,1.0,1,162.0,1
1290,1290,-0.45459217645408107,-0.5,0.0,1.0,312.0,733.0,1.0,0,55.0,1
1291,1291,-0.8186689625221611,-0.8,0.0,1.0,351.0,657.0,1.0,0,222.0,1
1292,1292,-0.289873967178103,-0.3,0.0,1.0,483.0,526.0,1.0,0,261.0,1
1293,1293,-0.8610334590783079,-0.9,0.0,1.0,278.0,668.0,1.0,0,134.0,1
1294,1294,-0.5158246842207785,-0.5,1.0,0.0,391.0,709.0,0.0,0,170.0,1
1295,1295,-0.5379292702784046,-0.5,1.0,0.0,289.0,846.0,0.0,0,425.0,1
1296,1296,-0.060433879644937294,-0.1,1.0,0.0,296.0,941.0,0.0,0,1763.0,1
1297,1297,0.2509394966351569,0.3,1.0,1.0,292.0,565.0,1.0,1,803.0,1
1298,1298,0.6845211913078767,0.7,0.0,0.0,312.0,853.0,0.0,1,165.0,1
1299,1299,0.7603279435039895,0.8,0.0,0.0,439.0,853.0,0.0,1,178.0,1
1300,1300,0.5841376752376038,0.6,0.0,0.0,332.0,858.0,0.0,1,300.0,1
1301,1301,-0.8205074845293155,-0.8,0.0,1.0,268.0,933.0,1.0,0,129.0,1
1302,1302,0.36066043099983236,0.4,0.0,0.0,482.0,782.0,0.0,1,766.0,1
1303,1303,-0.6496334992983064,-0.6,1.0,0.0,431.0,977.0,0.0,0,262.0,1
1304,1304,0.8242578906028092,0.8,0.0,0.0,351.0,833.0,0.0,1,116.0,1
1305,1305,-0.04087812152750869,-0.0,1.0,0.0,418.0,907.0,0.0,0,1675.0,1
1306,1306,0.32776317915163966,0.3,1.0,1.0,455.0,987.0,1.0,1,598.0,1
1307,1307,0.34852393008014404,0.3,1.0,1.0,476.0,966.0,1.0,1,148.0,1
1308,1308,-0.11295382921394703,-0.1,1.0,0.0,309.0,908.0,1.0,1,-217.0,0
1309,1309,-0.10145220322119819,-0.1,0.0,1.0,269.0,993.0,1.0,0,728.0,1
1310,1310,-0.34738339627785575,-0.3,0.0,1.0,313.0,562.0,1.0,0,445.0,1
1311,1311,0.8439219372669845,0.8,1.0,1.0,325.0,819.0,1.0,1,156.0,1
1312,1312,-0.13974000401637943,-0.1,0.0,1.0,256.0,530.0,1.0,0,974.0,1
1313,1313,0.22185376723107375,0.2,0.0,0.0,468.0,621.0,0.0,1,1781.0,1
1314,1314,-0.49524310592057097,-0.5,0.0,1.0,409.0,909.0,1.0,0,282.0,1
1315,1315,-0.5395159252201605,-0.5,1.0,0.0,440.0,531.0,0.0,0,259.0,1
1316,1316,0.8883574179480725,0.9,0.0,0.0,349.0,682.0,0.0,1,279.0,1
1317,1317,0.198306106061927,0.2,0.0,0.0,397.0,724.0,0.0,1,979.0,1
1318,1318,0.1676726517758368,0.2,1.0,1.0,468.0,603.0,1.0,1,1259.0,1
1319,1319,-0.2564889157657251,-0.3,0.0,1.0,259.0,879.0,1.0,0,182.0,1
1320,1320,0.6086411497984311,0.6,0.0,0.0,250.0,876.0,0.0,1,194.0,1
1321,1321,0.5614542176999687,0.6,0.0,0.0,391.0,792.0,0.0,1,217.0,1
1322,1322,-0.06085831511986883,-0.1,0.0,1.0,257.0,894.0,1.0,0,-181.0,1
1323,1323,-0.8413348567718373,-0.8,1.0,0.0,384.0,593.0,0.0,0,83.0,1
1324,1324,0.3074591316352736,0.3,1.0,1.0,477.0,623.0,1.0,1,350.0,1
1325,1325,-0.3709649532325463,-0.4,1.0,0.0,321.0,602.0,0.0,0,177.0,1
1326,1326,0.5406520037133259,0.5,1.0,1.0,372.0,958.0,1.0,1,170.0,1
1327,1327,-0.7246034025342254,-0.7,0.0,1.0,465.0,530.0,1.0,0,125.0,1
1328,1328,-0.5515966351935928,-0.6,0.0,1.0,348.0,914.0,1.0,0,48.0,1
1329,1329,-0.37344638888953063,-0.4,1.0,0.0,493.0,536.0,0.0,0,531.0,1
1330,1330,0.6094362449913348,0.6,1.0,1.0,476.0,910.0,1.0,1,64.0,1
1331,1331,0.7319027899835123,0.7,0.0,0.0,496.0,766.0,0.0,1,288.0,1
1332,1332,-0.24796519550302976,-0.2,0.0,1.0,302.0,676.0,1.0,0,342.0,1
1333,1333,0.2812656567074122,0.3,1.0,1.0,393.0,556.0,1.0,1,281.0,1
1334,1334,-0.3430803113156716,-0.3,0.0,1.0,372.0,520.0,1.0,0,268.0,1
1335,1335,-0.39444718722378125,-0.4,1.0,0.0,415.0,557.0,0.0,0,298.0,1
1336,1336,0.3054911026482553,0.3,1.0,1.0,414.0,892.0,1.0,1,154.0,1
1337,1337,-0.1225490063775897,-0.1,0.0,1.0,344.0,781.0,1.0,0,575.0,1
1338,1338,-0.2779148205230053,-0.3,1.0,0.0,452.0,756.0,0.0,0,432.0,1
1339,1339,-0.48147648815984273,-0.5,1.0,0.0,497.0,646.0,0.0,0,267.0,1
1340,1340,0.5236401610417193,0.5,0.0,0.0,328.0,624.0,0.0,1,158.0,1
1341,1341,0.6257484291077587,0.6,0.0,0.0,266.0,896.0,0.0,1,258.0,1
1342,1342,-0.17693834835564026,-0.2,0.0,1.0,448.0,860.0,1.0,0,592.0,1
1343,1343,-0.2622452040183738,-0.3,0.0,1.0,494.0,769.0,1.0,0,147.0,1
1344,1344,-0.15593960065466483,-0.2,0.0,1.0,410.0,838.0,1.0,0,552.0,1
1345,1345,0.7372565883749272,0.7,1.0,1.0,268.0,723.0,1.0,1,159.0,1
1346,1346,0.41991559685143887,0.4,0.0,0.0,314.0,876.0,0.0,1,180.0,1
1347,1347,0.8649469699655591,0.9,1.0,1.0,330.0,559.0,1.0,1,501.0,1
1348,1348,0.5450917502257974,0.5,1.0,1.0,419.0,961.0,1.0,1,350.0,1
1349,1349,0.5647592113478247,0.6,1.0,1.0,304.0,582.0,1.0,1,134.0,1
1350,1350,0.8460252054908263,0.8,0.0,0.0,435.0,735.0,0.0,1,120.0,1
1351,1351,0.4422833808817638,0.4,1.0,1.0,285.0,923.0,1.0,1,132.0,1
1352,1352,-0.8026846012131427,-0.8,0.0,1.0,308.0,584.0,1.0,0,98.0,1
1353,1353,-0.26031426820022197,-0.3,0.0,1.0,355.0,681.0,1.0,0,124.0,1
1354,1354,0.5262588722582998,0.5,0.0,0.0,478.0,610.0,0.0,1,292.0,1
1355,1355,0.7138737814041204,0.7,0.0,0.0,413.0,572.0,0.0,1,225.0,1
1356,1356,0.5592628620779879,0.6,0.0,0.0,387.0,876.0,0.0,1,257.0,1
1357,1357,0.49439026585433254,0.5,0.0,0.0,373.0,848.0,0.0,1,239.0,1
1358,1358,0.015552619398246703,0.0,0.0,0.0,255.0,882.0,1.0,0,1093.0,0
1359,1359,0.19314652600187465,0.2,1.0,1.0,442.0,931.0,1.0,1,67.0,1
1360,1360,-0.6992022213932516,-0.7,0.0,1.0,378.0,638.0,1.0,0,174.0,1
1361,1361,-0.408521235606193,-0.4,0.0,1.0,280.0,527.0,1.0,0,163.0,1
1362,1362,0.6760017092622274,0.7,1.0,1.0,283.0,565.0,1.0,1,262.0,1
1363,1363,-0.8015938297010868,-0.8,1.0,0.0,422.0,524.0,0.0,0,434.0,1
1364,1364,0.10237069044536307,0.1,1.0,1.0,269.0,558.0,1.0,1,623.0,1
1365,1365,-0.8868194118137064,-0.9,0.0,1.0,262.0,657.0,1.0,0,201.0,1
1366,1366,0.09202823169882934,0.1,0.0,0.0,302.0,984.0,0.0,1,1394.0,1
1367,1367,-0.5849144642406914,-0.6,0.0,1.0,362.0,885.0,1.0,0,173.0,1
1368,1368,-0.6013198741266723,-0.6,0.0,1.0,384.0,878.0,1.0,0,98.0,1
1369,1369,-0.1499783956939823,-0.1,1.0,0.0,407.0,869.0,0.0,0,1724.0,1
1370,1370,0.4758755564991529,0.5,1.0,1.0,478.0,736.0,1.0,1,56.0,1
1371,1371,-0.5747583798614937,-0.6,0.0,1.0,443.0,535.0,1.0,0,152.0,1
1372,1372,0.8838905274158623,0.9,1.0,1.0,263.0,829.0,1.0,1,158.0,1
1373,1373,-0.08221269693259481,-0.1,1.0,0.0,263.0,715.0,0.0,0,1042.0,1
1374,1374,-0.8453289260441301,-0.8,0.0,1.0,480.0,969.0,1.0,0,61.0,1
1375,1375,0.08241538809266113,0.1,0.0,0.0,284.0,939.0,1.0,0,1777.0,0
1376,1376,0.06819467282301739,0.1,0.0,0.0,457.0,886.0,0.0,1,1657.0,1
1377,1377,-0.10491843468535977,-0.1,1.0,0.0,395.0,955.0,0.0,0,1650.0,1
1378,1378,-0.805704713356998,-0.8,1.0,0.0,430.0,862.0,0.0,0,168.0,1
1379,1379,0.05231079286776763,0.1,0.0,0.0,317.0,601.0,0.0,1,2082.0,1
1380,1380,-0.26946115440612683,-0.3,0.0,1.0,251.0,677.0,1.0,0,1162.0,1
1381,1381,-0.874983529058483,-0.9,0.0,1.0,364.0,612.0,1.0,0,184.0,1
1382,1382,0.058962373484543695,0.1,1.0,1.0,269.0,866.0,1.0,1,265.0,1
1383,1383,-0.4355745190636245,-0.4,1.0,0.0,498.0,625.0,0.0,0,267.0,1
1384,1384,0.7747181135626892,0.8,0.0,0.0,278.0,804.0,1.0,0,-332.0,0
1385,1385,0.6846914130709539,0.7,0.0,0.0,417.0,892.0,0.0,1,181.0,1
1386,1386,-0.40151104723997105,-0.4,1.0,0.0,295.0,765.0,0.0,0,380.0,1
1387,1387,0.6936535076895572,0.7,0.0,0.0,261.0,711.0,0.0,1,158.0,1
1388,1388,-0.16855245394562957,-0.2,0.0,1.0,310.0,954.0,1.0,0,1076.0,1
1389,1389,0.6392013492103666,0.6,0.0,0.0,372.0,588.0,0.0,1,220.0,1
1390,1390,0.5151013477860701,0.5,0.0,0.0,490.0,944.0,0.0,1,356.0,1
1391,1391,0.7973667485183135,0.8,0.0,0.0,250.0,708.0,0.0,1,222.0,1
1392,1392,0.008170209687684227,0.0,1.0,1.0,278.0,729.0,0.0,0,1993.0,0
1393,1393,-0.7161391531111653,-0.7,1.0,0.0,304.0,921.0,0.0,0,115.0,1
1394,1394,-0.8332270157730353,-0.8,1.0,0.0,458.0,734.0,0.0,0,148.0,1
1395,1395,0.8576528750447928,0.9,1.0,1.0,414.0,850.0,1.0,1,96.0,1
1396,1396,-0.13326733030428672,-0.1,1.0,0.0,489.0,752.0,0.0,0,1389.0,1
1397,1397,-0.7004787059929841,-0.7,0.0,1.0,492.0,914.0,1.0,0,114.0,1
1398,1398,0.045374897582920126,0.0,0.0,0.0,377.0,951.0,1.0,0,1672.0,0
1399,1399,-0.7883431593844645,-0.8,1.0,0.0,326.0,542.0,0.0,0,772.0,1
1400,1400,0.7023495100665736,0.7,1.0,1.0,306.0,502.0,1.0,1,242.0,1
1401,1401,-0.11713004996103304,-0.1,0.0,1.0,357.0,867.0,1.0,0,836.0,1
1402,1402,-0.17998028691510026,-0.2,0.0,1.0,386.0,996.0,1.0,0,378.0,1
1403,1403,0.40482950527652306,0.4,1.0,1.0,436.0,582.0,1.0,1,252.0,1
1404,1404,0.6271839639270539,0.6,1.0,1.0,265.0,605.0,1.0,1,210.0,1
1405,1405,-0.6252110513343081,-0.6,1.0,0.0,291.0,812.0,0.0,0,167.0,1
1406,1406,0.367082821995418,0.4,1.0,1.0,319.0,524.0,1.0,1,347.0,1
1407,1407,0.27169820354787555,0.3,0.0,0.0,352.0,802.0,0.0,1,416.0,1
1408,1408,0.23111781933081177,0.2,0.0,0.0,416.0,938.0,0.0,1,476.0,1
1409,1409,-0.2198929345518157,-0.2,0.0,1.0,383.0,857.0,1.0,0,140.0,1
1410,1410,-0.5292193381655022,-0.5,1.0,0.0,387.0,833.0,0.0,0,400.0,1
1411,1411,0.8724320506708442,0.9,1.0,1.0,472.0,830.0,1.0,1,168.0,1
1412,1412,-0.21230466095066414,-0.2,1.0,0.0,308.0,813.0,0.0,0,809.0,1
1413,1413,-0.7396153478463465,-0.7,1.0,0.0,465.0,560.0,0.0,0,305.0,1
1414,1414,-0.4684138737002077,-0.5,0.0,1.0,338.0,764.0,1.0,0,138.0,1
1415,1415,-0.6616601944035452,-0.7,1.0,0.0,483.0,919.0,0.0,0,98.0,1
1416,1416,0.7978266465206453,0.8,0.0,0.0,415.0,887.0,0.0,1,138.0,1
1417,1417,-0.3470460889702046,-0.3,1.0,0.0,492.0,673.0,0.0,0,285.0,1
1418,1418,0.7240657558211633,0.7,0.0,0.0,331.0,514.0,0.0,1,155.0,1
1419,1419,-0.7556708589699332,-0.8,0.0,1.0,378.0,648.0,1.0,0,214.0,1
1420,1420,0.40452570403368837,0.4,1.0,1.0,341.0,681.0,1.0,1,278.0,1
1421,1421,0.453412499696071,0.5,1.0,1.0,498.0,862.0,1.0,1,440.0,1
1422,1422,-0.04256049768509873,-0.0,1.0,0.0,308.0,681.0,0.0,0,2011.0,1
1423,1423,0.20750218669111165,0.2,1.0,1.0,280.0,561.0,1.0,1,589.0,1
1424,1424,-0.1924882531220603,-0.2,1.0,0.0,393.0,993.0,0.0,0,544.0,1
1425,1425,0.6481587078579131,0.6,1.0,1.0,346.0,614.0,1.0,1,170.0,1
1426,1426,0.4223203957396465,0.4,0.0,0.0,386.0,758.0,0.0,1,336.0,1
1427,1427,-0.5309585283263393,-0.5,0.0,1.0,417.0,879.0,1.0,0,114.0,1
1428,1428,-0.789890009416996,-0.8,0.0,1.0,369.0,992.0,1.0,0,279.0,1
1429,1429,-0.5956351350161595,-0.6,0.0,1.0,318.0,933.0,1.0,0,259.0,1
1430,1430,-0.3379632826496112,-0.3,1.0,0.0,421.0,909.0,0.0,0,380.0,1
1431,1431,-0.7688128944843958,-0.8,1.0,0.0,421.0,901.0,0.0,0,128.0,1
1432,1432,0.7930922196498399,0.8,0.0,0.0,280.0,931.0,0.0,1,169.0,1
1433,1433,-0.8661152931976466,-0.9,0.0,1.0,416.0,933.0,1.0,0,121.0,1
1434,1434,0.8870975060491925,0.9,0.0,0.0,458.0,552.0,0.0,1,160.0,1
1435,1435,0.6165251242491093,0.6,0.0,0.0,359.0,647.0,0.0,1,74.0,1
1436,1436,-0.33381124195085254,-0.3,0.0,1.0,360.0,927.0,1.0,0,143.0,1
1437,1437,0.5520742896710863,0.6,0.0,0.0,357.0,735.0,0.0,1,268.0,1
1438,1438,0.38637369549012057,0.4,1.0,1.0,466.0,877.0,1.0,1,227.0,1
1439,1439,0.8571946439107109,0.9,1.0,1.0,449.0,634.0,1.0,1,127.0,1
1440,1440,0.11325566074300786,0.1,0.0,0.0,459.0,660.0,0.0,1,631.0,1
1441,1441,-0.13227802892996854,-0.1,0.0,1.0,396.0,808.0,1.0,0,636.0,1
1442,1442,-0.4903114954511462,-0.5,1.0,0.0,311.0,868.0,0.0,0,271.0,1
1443,1443,-0.3060120174110871,-0.3,1.0,0.0,282.0,737.0,0.0,0,151.0,1
1444,1444,0.20802044238687112,0.2,0.0,0.0,276.0,740.0,0.0,1,634.0,1
1445,1445,0.7965231902962425,0.8,1.0,1.0,332.0,717.0,1.0,1,131.0,1
1446,1446,0.3404093879203395,0.3,1.0,1.0,482.0,549.0,1.0,1,339.0,1
1447,1447,-0.013833855246767723,-0.0,0.0,1.0,381.0,509.0,1.0,0,1260.0,1
1448,1448,-0.13879798807906474,-0.1,1.0,0.0,417.0,604.0,0.0,0,879.0,1
1449,1449,0.8870344877782675,0.9,0.0,0.0,491.0,739.0,0.0,1,190.0,1
1450,1450,-0.7455602647329456,-0.7,1.0,0.0,295.0,965.0,0.0,0,260.0,1
1451,1451,-0.3543906831916672,-0.4,1.0,0.0,410.0,704.0,0.0,0,226.0,1
1452,1452,-0.6425590012922222,-0.6,1.0,0.0,374.0,961.0,0.0,0,265.0,1
1453,1453,0.7043868246973771,0.7,1.0,1.0,309.0,932.0,1.0,1,69.0,1
1454,1454,-0.43202632052334605,-0.4,0.0,1.0,351.0,519.0,1.0,0,450.0,1
1455,1455,-0.5550358552322336,-0.6,0.0,1.0,290.0,930.0,1.0,0,120.0,1
1456,1456,-0.6139587449562829,-0.6,0.0,1.0,272.0,939.0,1.0,0,179.0,1
1457,1457,0.24506639728493973,0.2,1.0,1.0,266.0,611.0,1.0,1,353.0,1
1458,1458,-0.6516458823253355,-0.7,0.0,1.0,385.0,592.0,1.0,0,413.0,1
1459,1459,0.825717191800656,0.8,1.0,1.0,321.0,941.0,1.0,1,148.0,1
1460,1460,0.0553543039782759,0.1,0.0,0.0,370.0,747.0,1.0,0,1883.0,0
1461,1461,0.25960846091869827,0.3,0.0,0.0,302.0,977.0,0.0,1,581.0,1
1462,1462,-0.337228262280732,-0.3,0.0,1.0,392.0,976.0,1.0,0,232.0,1
1463,1463,0.29144998801525357,0.3,0.0,0.0,427.0,826.0,1.0,0,-183.0,0
1464,1464,-0.3366969653771411,-0.3,1.0,0.0,485.0,525.0,0.0,0,540.0,1
1465,1465,0.8370926544671421,0.8,0.0,0.0,434.0,653.0,0.0,1,293.0,1
1466,1466,-0.4479220631855935,-0.4,0.0,1.0,326.0,823.0,1.0,0,41.0,1
1467,1467,0.01984712701710012,0.0,0.0,0.0,437.0,714.0,1.0,0,829.0,0
1468,1468,0.5766366973040405,0.6,0.0,0.0,464.0,822.0,0.0,1,174.0,1
1469,1469,-0.2732998869091807,-0.3,0.0,1.0,468.0,536.0,1.0,0,606.0,1
1470,1470,0.1356638818157977,0.1,0.0,0.0,289.0,753.0,0.0,1,1958.0,1
1471,1471,-0.6708831470006382,-0.7,0.0,1.0,443.0,783.0,1.0,0,184.0,1
1472,1472,0.008421554852555135,0.0,0.0,0.0,439.0,956.0,1.0,0,1605.0,0
1473,1473,-0.16426881309288188,-0.2,1.0,0.0,420.0,578.0,0.0,0,902.0,1
1474,1474,-0.8127446336767914,-0.8,1.0,0.0,449.0,927.0,0.0,0,194.0,1
1475,1475,0.1777924707748223,0.2,1.0,1.0,484.0,853.0,1.0,1,233.0,1
1476,1476,0.28860338274429964,0.3,1.0,1.0,358.0,782.0,1.0,1,1280.0,1
1477,1477,0.2690651031456869,0.3,1.0,1.0,338.0,936.0,1.0,1,306.0,1
1478,1478,0.7760935773187868,0.8,0.0,0.0,360.0,958.0,0.0,1,152.0,1
1479,1479,0.1672225818173586,0.2,1.0,1.0,281.0,778.0,1.0,1,641.0,1
1480,1480,0.8715385781107406,0.9,0.0,0.0,292.0,995.0,0.0,1,113.0,1
1481,1481,-0.7569706085279608,-0.8,1.0,0.0,271.0,522.0,0.0,0,257.0,1
1482,1482,0.19356983435465336,0.2,0.0,0.0,252.0,553.0,0.0,1,735.0,1
1483,1483,-0.28107939558589534,-0.3,0.0,1.0,493.0,715.0,1.0,0,232.0,1
1484,1484,0.863247204104241,0.9,1.0,1.0,424.0,711.0,1.0,1,155.0,1
1485,1485,0.15847574592444535,0.2,0.0,0.0,328.0,567.0,0.0,1,445.0,1
1486,1486,-0.03330395675023379,-0.0,1.0,0.0,309.0,548.0,0.0,0,2143.0,1
1487,1487,-0.033520219220254166,-0.0,0.0,1.0,436.0,939.0,1.0,0,785.0,1
1488,1488,-0.8272994642070296,-0.8,0.0,1.0,429.0,777.0,1.0,0,214.0,1
1489,1489,0.41070436869769866,0.4,1.0,1.0,323.0,614.0,1.0,1,363.0,1
1490,1490,0.46957514413735335,0.5,0.0,0.0,335.0,667.0,0.0,1,348.0,1
1491,1491,-0.18668746493106647,-0.2,0.0,1.0,431.0,616.0,1.0,0,303.0,1
