,trial,coherence,coherence_bin,green_side,correct_side,target_onset,checker_onset,decision,green_decision,decision_time,correct_decision
0,0,-0.2728145068425516,-0.3,1.0,0.0,402.0,716.0,0.0,0,1882.0,1
1,1,-0.3445148756547989,-0.3,0.0,1.0,456.0,770.0,0.0,1,1774.0,0
2,2,0.303390679892131,0.3,1.0,1.0,417.0,568.0,0.0,0,2015.0,0
3,3,-0.3226281897212364,-0.3,1.0,0.0,303.0,634.0,0.0,0,2063.0,1
4,4,0.3193740894846625,0.3,1.0,1.0,482.0,883.0,0.0,0,1635.0,0
5,5,-0.3802774303233043,-0.4,0.0,1.0,384.0,946.0,0.0,1,1670.0,0
6,6,0.24841018579558394,0.2,1.0,1.0,306.0,774.0,0.0,0,1920.0,0
7,7,-0.21455750352985992,-0.2,1.0,0.0,296.0,780.0,0.0,0,1924.0,1
8,8,-0.6701432619592289,-0.7,1.0,0.0,318.0,983.0,0.0,0,1699.0,1
9,9,0.5259914401317866,0.5,1.0,1.0,386.0,744.0,0.0,0,1870.0,0
10,10,0.5264481235386042,0.5,1.0,1.0,409.0,925.0,0.0,0,1666.0,0
11,11,-0.8255648592604592,-0.8,1.0,0.0,267.0,998.0,0.0,0,1735.0,1
12,12,-0.29045150426294253,-0.3,0.0,1.0,475.0,624.0,0.0,1,1901.0,0
13,13,-0.14756036540331352,-0.1,0.0,1.0,382.0,643.0,0.0,1,1975.0,0
14,14,0.8716423490444672,0.9,1.0,1.0,442.0,674.0,0.0,0,1884.0,0
15,15,-0.14079070086340262,-0.1,1.0,0.0,447.0,861.0,0.0,0,1692.0,1
16,16,0.852696094143201,0.9,1.0,1.0,439.0,949.0,0.0,0,1612.0,0
17,17,-0.008283555656174224,-0.0,1.0,0.0,287.0,535.0,0.0,0,2178.0,1
18,18,-0.7685705327513354,-0.8,1.0,0.0,351.0,938.0,0.0,0,1711.0,1
19,19,-0.857531960773945,-0.9,1.0,0.0,492.0,571.0,0.0,0,-1033.0,1
20,20,-0.1645835002498678,-0.2,0.0,1.0,325.0,626.0,0.0,1,2049.0,0
21,21,0.5311035220387764,0.5,0.0,0.0,288.0,502.0,0.0,1,2210.0,1
22,22,-0.8290802784777823,-0.8,0.0,1.0,369.0,975.0,0.0,1,1656.0,0
23,23,-0.5520814095531261,-0.6,1.0,0.0,403.0,979.0,0.0,0,1618.0,1
24,24,0.52444066436887,0.5,1.0,1.0,458.0,532.0,0.0,0,2010.0,0
25,25,-0.22172733279383638,-0.2,1.0,0.0,329.0,761.0,0.0,0,1910.0,1
26,26,0.26557938194939,0.3,0.0,0.0,464.0,793.0,0.0,1,1743.0,1
27,27,0.33779096564594313,0.3,0.0,0.0,474.0,511.0,0.0,1,2015.0,1
28,28,-0.6200891684562417,-0.6,0.0,1.0,426.0,988.0,0.0,1,1586.0,0
29,29,0.12727608360807008,0.1,1.0,1.0,449.0,798.0,0.0,0,1753.0,0
30,30,-0.8530457000005072,-0.9,0.0,1.0,304.0,515.0,0.0,1,2181.0,0
31,31,-0.02676867236399816,-0.0,0.0,1.0,477.0,834.0,0.0,1,1689.0,0
32,32,-0.318794378401421,-0.3,1.0,0.0,316.0,802.0,0.0,0,1882.0,1
33,33,-0.7707205181377335,-0.8,0.0,1.0,402.0,557.0,0.0,1,2041.0,0
34,34,-0.045064245456017726,-0.0,1.0,0.0,403.0,618.0,0.0,0,1979.0,1
35,35,-0.4197376814652908,-0.4,1.0,0.0,448.0,708.0,0.0,0,1844.0,1
36,36,-0.3357487268261834,-0.3,1.0,0.0,281.0,734.0,0.0,0,1985.0,1
37,37,-0.47684450385509924,-0.5,1.0,0.0,392.0,624.0,0.0,0,1984.0,1
38,38,-0.7185934666024407,-0.7,0.0,1.0,364.0,698.0,0.0,1,1938.0,0
39,39,0.5010125733821721,0.5,0.0,0.0,273.0,702.0,0.0,1,2025.0,1
40,40,-0.35126544364455636,-0.4,1.0,0.0,262.0,699.0,0.0,0,2039.0,1
41,41,0.26423743756052487,0.3,1.0,1.0,412.0,703.0,0.0,0,1885.0,0
42,42,-0.8667053647810683,-0.9,1.0,0.0,438.0,509.0,0.0,0,-897.0,1
43,43,0.6339300605864034,0.6,1.0,1.0,275.0,558.0,0.0,0,2167.0,0
44,44,0.7503022641959504,0.8,0.0,0.0,383.0,875.0,0.0,1,1742.0,1
45,45,-0.34491569397548927,-0.3,1.0,0.0,280.0,819.0,0.0,0,1901.0,1
46,46,0.3280668474421856,0.3,0.0,0.0,370.0,934.0,0.0,1,1696.0,1
47,47,0.09866197120488074,0.1,0.0,0.0,258.0,567.0,0.0,1,2175.0,1
48,48,0.14103914542482532,0.1,0.0,0.0,458.0,824.0,0.0,1,1718.0,1
49,49,-0.7868406233943998,-0.8,0.0,1.0,255.0,927.0,0.0,1,1818.0,0
50,50,-0.2380365818673682,-0.2,0.0,1.0,285.0,599.0,0.0,1,2116.0,0
51,51,0.3084052754677048,0.3,0.0,0.0,468.0,907.0,0.0,1,1625.0,1
52,52,0.4898045613773506,0.5,0.0,0.0,415.0,640.0,0.0,1,1945.0,1
53,53,-0.47310791264653745,-0.5,0.0,1.0,292.0,600.0,0.0,1,2108.0,0
54,54,-0.701511248430707,-0.7,1.0,0.0,290.0,943.0,0.0,0,1767.0,1
55,55,-0.23930460851454272,-0.2,1.0,0.0,382.0,693.0,0.0,0,1925.0,1
56,56,0.08774436180577305,0.1,0.0,0.0,324.0,540.0,0.0,1,2136.0,1
57,57,0.4938424333840118,0.5,0.0,0.0,263.0,925.0,0.0,1,1812.0,1
58,58,0.44873686750236097,0.4,1.0,1.0,334.0,721.0,0.0,0,1945.0,0
59,59,-0.5916578878612342,-0.6,1.0,0.0,434.0,696.0,0.0,0,1870.0,1
60,60,-0.7405348257792786,-0.7,1.0,0.0,481.0,756.0,0.0,0,1763.0,1
61,61,-0.5772167244623891,-0.6,1.0,0.0,327.0,699.0,0.0,0,1974.0,1
62,62,0.5238419014679964,0.5,0.0,0.0,434.0,835.0,0.0,1,1731.0,1
63,63,0.3136235313904484,0.3,0.0,0.0,388.0,793.0,0.0,1,1819.0,1
64,64,-0.35926993667872675,-0.4,0.0,1.0,407.0,999.0,0.0,1,-1406.0,0
65,65,0.6869748010068709,0.7,0.0,0.0,294.0,640.0,0.0,1,2066.0,1
66,66,-0.5873609608384027,-0.6,0.0,1.0,278.0,620.0,0.0,1,2102.0,0
67,67,0.8602959848553603,0.9,0.0,0.0,320.0,540.0,0.0,1,2140.0,1
68,68,0.814035915794563,0.8,1.0,1.0,255.0,935.0,0.0,0,1810.0,0
69,69,0.5900595124883804,0.6,0.0,0.0,398.0,826.0,0.0,1,1776.0,1
70,70,0.08960362382112985,0.1,1.0,1.0,391.0,900.0,0.0,0,1709.0,0
71,71,-0.7701771432786066,-0.8,0.0,1.0,457.0,750.0,0.0,1,1793.0,0
72,72,-0.626108174691723,-0.6,0.0,1.0,409.0,631.0,0.0,1,1960.0,0
73,73,-0.8726858815504411,-0.9,1.0,0.0,433.0,739.0,0.0,0,1828.0,1
74,74,-0.540594888337999,-0.5,0.0,1.0,348.0,522.0,0.0,1,2130.0,0
75,75,0.1643141164405978,0.2,1.0,1.0,337.0,991.0,0.0,0,1672.0,0
76,76,-0.47695226021690795,-0.5,1.0,0.0,374.0,822.0,0.0,0,1804.0,1
77,77,0.6701749346601159,0.7,1.0,1.0,273.0,614.0,0.0,0,2113.0,0
78,78,-0.017603502299065155,-0.0,1.0,0.0,350.0,525.0,0.0,0,2125.0,1
79,79,0.3649654728507784,0.4,0.0,0.0,401.0,566.0,0.0,1,2033.0,1
80,80,-0.8641641691266665,-0.9,0.0,1.0,396.0,912.0,0.0,1,1692.0,0
81,81,-0.8525779882631774,-0.9,1.0,0.0,402.0,697.0,0.0,0,1901.0,1
82,82,-0.6150685251362888,-0.6,1.0,0.0,331.0,516.0,0.0,0,2153.0,1
83,83,-0.26284841227214695,-0.3,0.0,1.0,413.0,507.0,0.0,1,2080.0,0
84,84,-0.4103316668437106,-0.4,0.0,1.0,440.0,721.0,0.0,1,1839.0,0
85,85,-0.019926066576512524,-0.0,1.0,0.0,413.0,589.0,0.0,0,1998.0,1
86,86,0.08371183158913265,0.1,0.0,0.0,299.0,888.0,0.0,1,1813.0,1
87,87,-0.8868610393658208,-0.9,1.0,0.0,270.0,602.0,0.0,0,2128.0,1
88,88,-0.6606435003132165,-0.7,0.0,1.0,283.0,688.0,0.0,1,-941.0,0
89,89,-0.5529133754096163,-0.6,1.0,0.0,476.0,525.0,0.0,0,1999.0,1
90,90,-0.8820662292133026,-0.9,1.0,0.0,362.0,764.0,0.0,0,-1116.0,1
91,91,-0.8043768927375465,-0.8,0.0,1.0,266.0,530.0,0.0,1,2204.0,0
92,92,-0.802540789506993,-0.8,1.0,0.0,277.0,894.0,0.0,0,1829.0,1
93,93,0.8131165420381684,0.8,0.0,0.0,378.0,952.0,0.0,1,1670.0,1
94,94,0.2922784899316956,0.3,1.0,1.0,281.0,557.0,0.0,0,2162.0,0
95,95,-0.5093883352819734,-0.5,0.0,1.0,268.0,755.0,0.0,1,1977.0,0
96,96,-0.24868283670280011,-0.2,1.0,0.0,399.0,566.0,0.0,0,2035.0,1
97,97,-0.16399406524309756,-0.2,1.0,0.0,434.0,576.0,0.0,0,1990.0,1
98,98,0.501754025978335,0.5,1.0,1.0,410.0,764.0,0.0,0,1826.0,0
99,99,-0.1575237790266718,-0.2,1.0,0.0,410.0,592.0,0.0,0,1998.0,1
100,100,-0.5382444512300513,-0.5,0.0,1.0,328.0,621.0,0.0,1,2051.0,0
101,101,-0.6412149758554282,-0.6,0.0,1.0,475.0,570.0,0.0,1,1955.0,0
102,102,-0.09554611408085856,-0.1,1.0,0.0,314.0,515.0,0.0,0,2171.0,1
103,103,-0.06543005984167205,-0.1,1.0,0.0,473.0,675.0,0.0,0,1852.0,1
104,104,-0.47862379726565335,-0.5,0.0,1.0,293.0,767.0,0.0,1,1940.0,0
105,105,-0.023887662290189682,-0.0,1.0,0.0,494.0,654.0,0.0,0,1852.0,1
106,106,0.11066829957402458,0.1,1.0,1.0,315.0,736.0,0.0,0,1949.0,0
107,107,-0.7065163315180547,-0.7,0.0,1.0,274.0,714.0,0.0,1,2012.0,0
108,108,0.547576305653599,0.5,1.0,1.0,481.0,637.0,0.0,0,1882.0,0
109,109,0.31556874042177385,0.3,0.0,0.0,381.0,713.0,0.0,1,1906.0,1
110,110,-0.19360115884590634,-0.2,0.0,1.0,254.0,988.0,0.0,1,1758.0,0
111,111,0.11481897057970769,0.1,0.0,0.0,413.0,630.0,0.0,1,1957.0,1
112,112,0.586666173416683,0.6,1.0,1.0,467.0,830.0,0.0,0,1703.0,0
113,113,-0.5746133477999739,-0.6,0.0,1.0,280.0,633.0,0.0,1,2087.0,0
114,114,-0.43536639101150326,-0.4,1.0,0.0,488.0,723.0,0.0,0,1789.0,1
115,115,-0.31177213615688626,-0.3,0.0,1.0,327.0,698.0,0.0,1,1975.0,0
116,116,0.22404677781802496,0.2,1.0,1.0,365.0,667.0,0.0,0,1968.0,0
117,117,-0.8655460768129849,-0.9,1.0,0.0,282.0,697.0,0.0,0,2021.0,1
118,118,0.7075326045038749,0.7,1.0,1.0,379.0,751.0,0.0,0,1870.0,0
119,119,0.5835679532119157,0.6,0.0,0.0,309.0,850.0,0.0,1,1841.0,1
120,120,-0.7188752017204081,-0.7,1.0,0.0,307.0,609.0,0.0,0,2084.0,1
121,121,0.5849220726727521,0.6,0.0,0.0,385.0,723.0,0.0,1,1892.0,1
122,122,0.4547260180528966,0.5,0.0,0.0,363.0,882.0,0.0,1,1755.0,1
123,123,0.22319034232895774,0.2,1.0,1.0,308.0,714.0,0.0,0,1978.0,0
124,124,-0.43688657012749227,-0.4,0.0,1.0,417.0,612.0,0.0,1,1971.0,0
125,125,0.5955668958222441,0.6,1.0,1.0,485.0,827.0,0.0,0,1688.0,0
126,126,-0.0755693980496075,-0.1,1.0,0.0,365.0,748.0,0.0,0,1887.0,1
127,127,-0.4752069908148686,-0.5,0.0,1.0,461.0,787.0,0.0,1,1752.0,0
128,128,-0.3284486682444594,-0.3,0.0,1.0,349.0,732.0,0.0,1,1919.0,0
129,129,-0.12036485421840237,-0.1,1.0,0.0,417.0,695.0,0.0,0,1888.0,1
130,130,-0.5934363853771765,-0.6,0.0,1.0,343.0,805.0,0.0,1,1852.0,0
131,131,0.0030505672943714757,0.0,0.0,0.0,472.0,543.0,0.0,1,1985.0,1
132,132,-0.5276682526293959,-0.5,0.0,1.0,379.0,647.0,0.0,1,1974.0,0
133,133,0.8106527526174631,0.8,1.0,1.0,410.0,692.0,0.0,0,1898.0,0
134,134,-0.7250397966957037,-0.7,0.0,1.0,350.0,556.0,0.0,1,-906.0,0
135,135,0.7366273511752851,0.7,0.0,0.0,445.0,893.0,0.0,1,1662.0,1
136,136,-0.625819050174621,-0.6,0.0,1.0,255.0,587.0,0.0,1,2158.0,0
137,137,-0.1303213328776519,-0.1,1.0,0.0,375.0,904.0,0.0,0,1721.0,1
138,138,-0.7074941686771753,-0.7,1.0,0.0,388.0,543.0,0.0,0,-831.0,1
139,139,-0.15267720567241017,-0.2,0.0,1.0,389.0,784.0,0.0,1,-1033.0,0
140,140,-0.5546616358902052,-0.6,0.0,1.0,398.0,572.0,0.0,1,2030.0,0
141,141,0.1122152062075471,0.1,1.0,1.0,336.0,826.0,0.0,0,1838.0,0
142,142,0.3276076013045458,0.3,0.0,0.0,460.0,522.0,0.0,1,2018.0,1
143,143,-0.8206774074881054,-0.8,0.0,1.0,261.0,545.0,0.0,1,2194.0,0
144,144,0.3960789716505443,0.4,0.0,0.0,456.0,621.0,0.0,1,1923.0,1
145,145,0.31055281479807595,0.3,1.0,1.0,443.0,592.0,0.0,0,1965.0,0
146,146,0.6265398021643939,0.6,1.0,1.0,296.0,723.0,0.0,0,1981.0,0
147,147,0.8282400400284732,0.8,1.0,1.0,331.0,616.0,0.0,0,2053.0,0
148,148,-0.07253906015229694,-0.1,0.0,1.0,485.0,840.0,0.0,1,1675.0,0
149,149,0.10872444918182522,0.1,0.0,0.0,418.0,971.0,0.0,1,-1289.0,1
150,150,-0.6250753816147554,-0.6,1.0,0.0,463.0,835.0,0.0,0,1702.0,1
151,151,0.28008762574183443,0.3,0.0,0.0,392.0,911.0,0.0,1,1697.0,1
152,152,0.6103709629828272,0.6,1.0,1.0,368.0,689.0,0.0,0,1943.0,0
153,153,0.01660787409394926,0.0,1.0,1.0,493.0,508.0,0.0,0,1999.0,0
154,154,0.20890460467161687,0.2,0.0,0.0,324.0,890.0,0.0,1,1786.0,1
155,155,0.5614841633701838,0.6,1.0,1.0,454.0,631.0,0.0,0,1915.0,0
156,156,-0.7725086423963589,-0.8,0.0,1.0,331.0,825.0,0.0,1,1844.0,0
157,157,-0.7667864823117577,-0.8,0.0,1.0,394.0,879.0,0.0,1,1727.0,0
158,158,0.34615583844388753,0.3,0.0,0.0,474.0,921.0,0.0,1,1605.0,1
159,159,-0.43654775951995234,-0.4,1.0,0.0,356.0,932.0,0.0,0,1712.0,1
160,160,-0.42874286418441804,-0.4,0.0,1.0,400.0,917.0,0.0,1,1683.0,0
161,161,0.08190239938071486,0.1,0.0,0.0,354.0,892.0,0.0,1,1754.0,1
162,162,-0.5486654540932363,-0.5,0.0,1.0,356.0,783.0,0.0,1,1861.0,0
163,163,-0.6277310353943392,-0.6,0.0,1.0,482.0,605.0,0.0,1,1913.0,0
164,164,-0.5746523291125141,-0.6,1.0,0.0,451.0,553.0,0.0,0,1996.0,1
165,165,-0.5459933638482111,-0.5,1.0,0.0,278.0,906.0,0.0,0,-1154.0,1
166,166,0.521049549260428,0.5,1.0,1.0,473.0,625.0,0.0,0,1902.0,0
167,167,-0.29337700097737185,-0.3,1.0,0.0,411.0,911.0,0.0,0,1678.0,1
168,168,-0.6144544119766429,-0.6,0.0,1.0,372.0,670.0,0.0,1,1958.0,0
169,169,-0.437994021292804,-0.4,1.0,0.0,384.0,711.0,0.0,0,1905.0,1
170,170,-0.8748882469375724,-0.9,1.0,0.0,407.0,540.0,0.0,0,-927.0,1
171,171,-0.35351434648974545,-0.4,0.0,1.0,442.0,788.0,0.0,1,1770.0,0
172,172,0.4646195331986688,0.5,0.0,0.0,376.0,994.0,0.0,1,-1350.0,1
173,173,0.6893923166313892,0.7,0.0,0.0,411.0,571.0,0.0,1,2018.0,1
174,174,0.039728508022745745,0.0,1.0,1.0,340.0,802.0,0.0,0,1858.0,0
175,175,-0.8507670524471005,-0.9,0.0,1.0,461.0,943.0,0.0,1,1596.0,0
176,176,0.22226475855953975,0.2,1.0,1.0,471.0,687.0,0.0,0,1842.0,0
177,177,-0.8568144252061529,-0.9,0.0,1.0,423.0,983.0,0.0,1,1594.0,0
178,178,-0.009835930326027698,-0.0,1.0,0.0,314.0,505.0,0.0,0,2181.0,1
179,179,0.30321216612907087,0.3,0.0,0.0,350.0,761.0,0.0,1,1889.0,1
180,180,-0.35843458372007675,-0.4,0.0,1.0,486.0,622.0,0.0,1,1892.0,0
181,181,0.8512235987508204,0.9,0.0,0.0,394.0,661.0,0.0,1,1945.0,1
182,182,0.6839761554631617,0.7,0.0,0.0,376.0,801.0,0.0,1,1823.0,1
183,183,0.7271986559536564,0.7,1.0,1.0,320.0,507.0,0.0,0,2173.0,0
184,184,-0.11170386482787209,-0.1,1.0,0.0,436.0,743.0,0.0,0,1821.0,1
185,185,-0.5326611244959725,-0.5,0.0,1.0,259.0,912.0,0.0,1,1829.0,0
186,186,0.7548302544120685,0.8,1.0,1.0,427.0,555.0,0.0,0,2018.0,0
187,187,-0.5204917584193497,-0.5,0.0,1.0,470.0,513.0,0.0,1,2017.0,0
188,188,-0.21663859660628215,-0.2,0.0,1.0,307.0,653.0,0.0,1,2040.0,0
189,189,0.11340302034714511,0.1,0.0,0.0,262.0,513.0,0.0,1,2225.0,1
190,190,-0.31913789172778084,-0.3,0.0,1.0,289.0,813.0,0.0,1,1898.0,0
191,191,0.19943700890638094,0.2,0.0,0.0,352.0,666.0,0.0,1,1982.0,1
192,192,-0.8808635612940237,-0.9,0.0,1.0,308.0,940.0,0.0,1,1752.0,0
193,193,0.6210026427565539,0.6,0.0,0.0,457.0,732.0,0.0,1,1811.0,1
194,194,0.882356367535532,0.9,0.0,0.0,272.0,608.0,0.0,1,2120.0,1
195,195,0.21769138300300817,0.2,0.0,0.0,417.0,571.0,0.0,1,2012.0,1
196,196,-0.10071864209769676,-0.1,0.0,1.0,255.0,793.0,0.0,1,1952.0,0
197,197,0.48260520316634337,0.5,1.0,1.0,327.0,932.0,0.0,0,1741.0,0
198,198,0.576619302416158,0.6,0.0,0.0,407.0,962.0,0.0,1,1631.0,1
199,199,0.4808536910396216,0.5,1.0,1.0,258.0,968.0,1.0,1,-1176.0,1
200,200,-0.593684522026036,-0.6,0.0,1.0,411.0,932.0,0.0,1,1657.0,0
201,201,0.04282339082534381,0.0,1.0,1.0,287.0,516.0,0.0,0,2197.0,0
202,202,0.6208616477027372,0.6,1.0,1.0,307.0,573.0,0.0,0,2120.0,0
203,203,0.6725056101712,0.7,0.0,0.0,327.0,924.0,0.0,1,1749.0,1
204,204,-0.3541502763227451,-0.4,1.0,0.0,366.0,953.0,0.0,0,1681.0,1
205,205,-0.7303724951139429,-0.7,1.0,0.0,452.0,685.0,0.0,0,1863.0,1
206,206,0.48738164308361875,0.5,0.0,0.0,441.0,503.0,0.0,1,2056.0,1
207,207,0.1474566045033362,0.1,1.0,1.0,476.0,602.0,0.0,0,1922.0,0
208,208,0.46089555771163015,0.5,0.0,0.0,404.0,534.0,0.0,1,2062.0,1
209,209,-0.005381671473484895,-0.0,1.0,0.0,289.0,947.0,0.0,0,1764.0,1
210,210,-0.45308005933407763,-0.5,0.0,1.0,467.0,683.0,0.0,1,1850.0,0
211,211,0.16595284827470336,0.2,1.0,1.0,447.0,967.0,0.0,0,-1384.0,0
212,212,0.7043412654538322,0.7,1.0,1.0,406.0,893.0,0.0,0,1701.0,0
213,213,-0.11063880220090772,-0.1,1.0,0.0,299.0,705.0,0.0,0,1996.0,1
214,214,-0.16293674276126657,-0.2,1.0,0.0,411.0,603.0,0.0,0,1986.0,1
215,215,0.4497224851075067,0.4,0.0,0.0,334.0,970.0,0.0,1,1696.0,1
216,216,0.80674024478466,0.8,0.0,0.0,486.0,629.0,0.0,1,1885.0,1
217,217,-0.5210374169475172,-0.5,0.0,1.0,355.0,522.0,0.0,1,2123.0,0
218,218,0.885525412507646,0.9,0.0,0.0,458.0,902.0,0.0,1,1640.0,1
219,219,-0.81104904419061,-0.8,0.0,1.0,357.0,535.0,0.0,1,2108.0,0
220,220,0.4570895871994404,0.5,1.0,1.0,361.0,744.0,0.0,0,1895.0,0
221,221,-0.8798327934341568,-0.9,0.0,1.0,470.0,705.0,0.0,1,1825.0,0
222,222,0.03796082429768499,0.0,1.0,1.0,495.0,595.0,1.0,1,-1020.0,1
223,223,-0.8490241276913203,-0.8,0.0,1.0,445.0,635.0,0.0,1,1920.0,0
224,224,0.03723661257535582,0.0,1.0,1.0,298.0,604.0,0.0,0,2098.0,0
225,225,0.5349162313530688,0.5,1.0,1.0,433.0,582.0,0.0,0,1985.0,0
226,226,-0.1777362810209394,-0.2,0.0,1.0,335.0,904.0,0.0,1,1761.0,0
227,227,0.6230529753846462,0.6,0.0,0.0,418.0,925.0,0.0,1,1657.0,1
228,228,0.005816604417762772,0.0,0.0,0.0,349.0,713.0,0.0,1,1938.0,1
229,229,0.34400907167468187,0.3,0.0,0.0,263.0,664.0,0.0,1,2073.0,1
230,230,0.012577584858438962,0.0,1.0,1.0,368.0,659.0,0.0,0,1973.0,0
231,231,0.41368093920066384,0.4,1.0,1.0,381.0,840.0,0.0,0,1779.0,0
232,232,0.39854692326255636,0.4,0.0,0.0,433.0,896.0,0.0,1,1671.0,1
233,233,0.16978950561079464,0.2,0.0,0.0,275.0,763.0,0.0,1,1962.0,1
234,234,-0.5881929141468972,-0.6,0.0,1.0,307.0,709.0,0.0,1,1984.0,0
235,235,0.11004414730083234,0.1,1.0,1.0,314.0,789.0,0.0,0,1897.0,0
236,236,0.7042253391577112,0.7,0.0,0.0,283.0,926.0,0.0,1,1791.0,1
237,237,0.3197886103655533,0.3,1.0,1.0,442.0,673.0,0.0,0,1885.0,0
238,238,-0.7461519901654221,-0.7,0.0,1.0,363.0,603.0,0.0,1,2034.0,0
239,239,0.209744594714265,0.2,0.0,0.0,273.0,586.0,0.0,1,2141.0,1
240,240,0.5163395381408412,0.5,1.0,1.0,278.0,550.0,0.0,0,2172.0,0
241,241,-0.6814762485462097,-0.7,0.0,1.0,424.0,854.0,0.0,1,1722.0,0
242,242,0.3767018388145683,0.4,0.0,0.0,354.0,570.0,0.0,1,2076.0,1
243,243,-0.7074518567040555,-0.7,0.0,1.0,473.0,904.0,0.0,1,1623.0,0
244,244,-0.43896563443692643,-0.4,0.0,1.0,486.0,779.0,0.0,1,1735.0,0
245,245,0.4728729564417443,0.5,0.0,0.0,307.0,671.0,0.0,1,2022.0,1
246,246,0.2973219705892419,0.3,1.0,1.0,369.0,605.0,0.0,0,2026.0,0
247,247,-0.3243246411512467,-0.3,0.0,1.0,447.0,569.0,0.0,1,1984.0,0
248,248,0.2701611780501315,0.3,0.0,0.0,472.0,723.0,0.0,1,1805.0,1
249,249,-0.3313583945753519,-0.3,0.0,1.0,419.0,675.0,0.0,1,1906.0,0
250,250,-0.004405743370028192,-0.0,1.0,0.0,481.0,573.0,0.0,0,1946.0,1
251,251,-0.2862064399504498,-0.3,1.0,0.0,450.0,959.0,0.0,0,1591.0,1
252,252,-0.28199362116309146,-0.3,1.0,0.0,485.0,532.0,0.0,0,1983.0,1
253,253,-0.7076137751409999,-0.7,1.0,0.0,327.0,572.0,0.0,0,2101.0,1
254,254,-0.14194846297998065,-0.1,1.0,0.0,280.0,981.0,0.0,0,1739.0,1
255,255,0.8218777738264033,0.8,0.0,0.0,268.0,921.0,0.0,1,1811.0,1
256,256,-0.05027584928826434,-0.1,0.0,1.0,411.0,922.0,0.0,1,1667.0,0
257,257,-0.09381010668116874,-0.1,0.0,1.0,354.0,905.0,0.0,1,1741.0,0
258,258,-0.780567952407115,-0.8,1.0,0.0,429.0,962.0,0.0,0,1609.0,1
259,259,-0.4264166541090239,-0.4,0.0,1.0,441.0,764.0,0.0,1,1795.0,0
260,260,-0.8362489871345695,-0.8,0.0,1.0,469.0,816.0,0.0,1,-1165.0,0
261,261,0.4523093225737086,0.5,0.0,0.0,268.0,974.0,0.0,1,1758.0,1
262,262,0.23794001015814004,0.2,1.0,1.0,491.0,788.0,0.0,0,-1189.0,0
263,263,0.22310164690595047,0.2,1.0,1.0,256.0,565.0,0.0,0,2179.0,0
264,264,-0.16525600132776597,-0.2,1.0,0.0,250.0,780.0,0.0,0,1970.0,1
265,265,0.08374574406689939,0.1,1.0,1.0,283.0,736.0,0.0,0,1981.0,0
266,266,0.262308782198977,0.3,0.0,0.0,446.0,671.0,0.0,1,1883.0,1
267,267,-0.4222477902487101,-0.4,0.0,1.0,469.0,633.0,0.0,1,1898.0,0
268,268,-0.6967067190180968,-0.7,0.0,1.0,335.0,599.0,0.0,1,2066.0,0
269,269,0.441779223143523,0.4,1.0,1.0,252.0,609.0,0.0,0,2139.0,0
270,270,0.5376926469147117,0.5,1.0,1.0,364.0,771.0,0.0,0,1865.0,0
271,271,-0.12792928581292684,-0.1,1.0,0.0,452.0,582.0,0.0,0,1966.0,1
272,272,-0.09320099270904059,-0.1,0.0,1.0,269.0,731.0,0.0,1,2000.0,0
273,273,0.5422067426943514,0.5,0.0,0.0,401.0,514.0,0.0,1,2085.0,1
274,274,-0.07113593430117227,-0.1,1.0,0.0,274.0,920.0,0.0,0,1806.0,1
275,275,-0.2520843636625215,-0.3,1.0,0.0,392.0,561.0,0.0,0,2047.0,1
276,276,0.2422048673410423,0.2,1.0,1.0,478.0,689.0,0.0,0,1833.0,0
277,277,-0.8946850645023664,-0.9,1.0,0.0,265.0,726.0,0.0,0,2009.0,1
278,278,0.232760739298561,0.2,0.0,0.0,328.0,662.0,0.0,1,2010.0,1
279,279,-0.2930665985943708,-0.3,0.0,1.0,403.0,953.0,0.0,1,1644.0,0
280,280,0.5073120743021927,0.5,1.0,1.0,394.0,882.0,0.0,0,1724.0,0
281,281,-0.6941856109899223,-0.7,0.0,1.0,338.0,901.0,0.0,1,1761.0,0
282,282,0.6617014171257524,0.7,0.0,0.0,309.0,890.0,0.0,1,-1109.0,1
283,283,-0.7999945984154337,-0.8,1.0,0.0,276.0,986.0,0.0,0,1738.0,1
284,284,0.713612985699455,0.7,1.0,1.0,369.0,560.0,0.0,0,2071.0,0
285,285,-0.3450086330421721,-0.3,1.0,0.0,268.0,562.0,0.0,0,2170.0,1
286,286,-0.6942885942451006,-0.7,1.0,0.0,449.0,992.0,0.0,0,1559.0,1
287,287,0.6193765151274816,0.6,1.0,1.0,373.0,916.0,0.0,0,1711.0,0
288,288,-0.16919315576244964,-0.2,0.0,1.0,436.0,817.0,1.0,0,-1153.0,1
289,289,0.5601803033197924,0.6,1.0,1.0,287.0,876.0,0.0,0,1837.0,0
290,290,-0.8571345674284969,-0.9,1.0,0.0,287.0,576.0,0.0,0,2137.0,1
291,291,0.5995393521515876,0.6,0.0,0.0,459.0,932.0,0.0,1,1609.0,1
292,292,-0.6967974774560424,-0.7,0.0,1.0,451.0,688.0,0.0,1,1861.0,0
293,293,0.658959096822146,0.7,1.0,1.0,397.0,907.0,0.0,0,1696.0,0
294,294,0.6666717334111844,0.7,0.0,0.0,317.0,656.0,0.0,1,2027.0,1
295,295,0.26028981978855115,0.3,1.0,1.0,434.0,537.0,0.0,0,2029.0,0
296,296,0.4955531806963226,0.5,1.0,1.0,338.0,598.0,0.0,0,2064.0,0
297,297,0.20764437557950177,0.2,0.0,0.0,451.0,597.0,0.0,1,1952.0,1
298,298,-0.7078535475071742,-0.7,1.0,0.0,361.0,817.0,0.0,0,1822.0,1
299,299,0.024463366738021186,0.0,1.0,1.0,354.0,525.0,0.0,0,2121.0,0
300,300,0.24197920678948492,0.2,0.0,0.0,295.0,725.0,0.0,1,1980.0,1
301,301,-0.855122197336607,-0.9,1.0,0.0,416.0,799.0,0.0,0,1785.0,1
302,302,0.6184842108543073,0.6,1.0,1.0,489.0,526.0,0.0,0,1985.0,0
303,303,0.2955739905086773,0.3,0.0,0.0,493.0,883.0,0.0,1,1624.0,1
304,304,0.06900234454392296,0.1,0.0,0.0,279.0,681.0,0.0,1,2040.0,1
305,305,-0.38119729857225104,-0.4,0.0,1.0,415.0,876.0,0.0,1,1709.0,0
306,306,-0.2505518377710019,-0.3,0.0,1.0,265.0,935.0,0.0,1,1800.0,0
307,307,-0.3447062861240415,-0.3,1.0,0.0,310.0,509.0,0.0,0,2181.0,1
308,308,0.7851008939989484,0.8,1.0,1.0,296.0,875.0,0.0,0,-1011.0,0
309,309,-0.6119230764677135,-0.6,1.0,0.0,369.0,982.0,0.0,0,1649.0,1
310,310,-0.818433232390131,-0.8,1.0,0.0,416.0,715.0,0.0,0,1869.0,1
311,311,-0.4542807923808552,-0.5,1.0,0.0,494.0,664.0,0.0,0,1842.0,1
312,312,0.4481155160556104,0.4,1.0,1.0,262.0,630.0,0.0,0,2108.0,0
313,313,0.003253928356053759,0.0,0.0,0.0,359.0,651.0,0.0,1,1990.0,1
314,314,0.7630719986329481,0.8,1.0,1.0,269.0,938.0,0.0,0,1793.0,0
315,315,0.22126463943182106,0.2,1.0,1.0,448.0,714.0,0.0,0,1838.0,0
316,316,-0.7160339513312068,-0.7,1.0,0.0,357.0,595.0,0.0,0,2048.0,1
317,317,0.5155370025703395,0.5,0.0,0.0,254.0,615.0,0.0,1,2131.0,1
318,318,-0.3838155129910791,-0.4,1.0,0.0,384.0,732.0,0.0,0,1884.0,1
319,319,0.2058180150942447,0.2,1.0,1.0,402.0,626.0,0.0,0,1972.0,0
320,320,0.6146346664349073,0.6,1.0,1.0,352.0,562.0,0.0,0,2086.0,0
321,321,-0.3726734192618998,-0.4,0.0,1.0,398.0,845.0,0.0,1,1757.0,0
322,322,-0.5521602886216128,-0.6,1.0,0.0,426.0,554.0,0.0,0,2020.0,1
323,323,-0.4948279361145936,-0.5,0.0,1.0,361.0,734.0,0.0,1,1905.0,0
324,324,0.8183360253816804,0.8,0.0,0.0,411.0,915.0,0.0,1,1674.0,1
325,325,-0.6481456884047263,-0.6,1.0,0.0,437.0,641.0,0.0,0,1922.0,1
326,326,0.4667431940221419,0.5,0.0,0.0,263.0,750.0,0.0,1,1987.0,1
327,327,0.36800003333449804,0.4,0.0,0.0,433.0,727.0,0.0,1,1840.0,1
328,328,-0.10581272113036533,-0.1,0.0,1.0,404.0,770.0,0.0,1,1826.0,0
329,329,-0.15091189370551683,-0.2,0.0,1.0,446.0,937.0,0.0,1,1617.0,0
330,330,-0.1627772721625953,-0.2,1.0,0.0,315.0,998.0,0.0,0,1687.0,1
331,331,-0.2963152494902934,-0.3,0.0,1.0,295.0,938.0,0.0,1,1767.0,0
332,332,-0.6640956058864227,-0.7,1.0,0.0,256.0,973.0,0.0,0,1771.0,1
333,333,-0.6841391656597331,-0.7,0.0,1.0,339.0,697.0,0.0,1,1964.0,0
334,334,0.4761854344698869,0.5,1.0,1.0,261.0,836.0,0.0,0,1903.0,0
335,335,-0.5923036740675248,-0.6,0.0,1.0,301.0,891.0,0.0,1,1808.0,0
336,336,-0.5154028253360963,-0.5,1.0,0.0,452.0,526.0,0.0,0,2022.0,1
337,337,0.23940803269050093,0.2,1.0,1.0,417.0,887.0,0.0,0,1696.0,0
338,338,-0.06900578369073951,-0.1,0.0,1.0,311.0,805.0,0.0,1,1884.0,0
339,339,0.14967591631907473,0.1,1.0,1.0,354.0,801.0,0.0,0,1845.0,0
340,340,0.34419826001766973,0.3,1.0,1.0,373.0,960.0,0.0,0,1667.0,0
341,341,-0.17477218009910211,-0.2,0.0,1.0,371.0,693.0,0.0,1,1936.0,0
342,342,-0.6066172385660947,-0.6,1.0,0.0,411.0,631.0,0.0,0,1958.0,1
343,343,0.16520028069815995,0.2,0.0,0.0,423.0,967.0,0.0,1,1610.0,1
344,344,-0.574099870918394,-0.6,0.0,1.0,337.0,808.0,0.0,1,1855.0,0
345,345,0.6007135924547474,0.6,1.0,1.0,499.0,534.0,0.0,0,1967.0,0
346,346,0.285591131781591,0.3,0.0,0.0,266.0,909.0,0.0,1,1825.0,1
347,347,0.13737629536607432,0.1,0.0,0.0,308.0,987.0,0.0,1,1705.0,1
348,348,-0.8112482093910512,-0.8,1.0,0.0,337.0,691.0,0.0,0,1972.0,1
349,349,-0.3319405265171167,-0.3,0.0,1.0,388.0,911.0,0.0,1,1701.0,0
350,350,-0.08532325273358665,-0.1,1.0,0.0,433.0,850.0,0.0,0,1717.0,1
351,351,-0.47968715848882154,-0.5,0.0,1.0,322.0,877.0,0.0,1,1801.0,0
352,352,0.00935933470990813,0.0,1.0,1.0,380.0,989.0,0.0,0,1631.0,0
353,353,0.12007885273276309,0.1,1.0,1.0,369.0,903.0,0.0,0,-1202.0,0
354,354,-0.0327267858617315,-0.0,1.0,0.0,401.0,825.0,0.0,0,1774.0,1
355,355,0.45026628649818956,0.5,0.0,0.0,339.0,905.0,0.0,1,1756.0,1
356,356,0.4687574050715132,0.5,1.0,1.0,416.0,932.0,0.0,0,1652.0,0
357,357,-0.29549972741509556,-0.3,1.0,0.0,355.0,983.0,0.0,0,1662.0,1
358,358,0.4523863870403805,0.5,0.0,0.0,259.0,783.0,0.0,1,1958.0,1
359,359,-0.2630434313733713,-0.3,1.0,0.0,295.0,547.0,0.0,0,2158.0,1
360,360,-0.4054390802132381,-0.4,0.0,1.0,343.0,553.0,0.0,1,2104.0,0
361,361,-0.08568085044411544,-0.1,1.0,0.0,299.0,685.0,0.0,0,2016.0,1
362,362,0.6621355675560382,0.7,1.0,1.0,442.0,749.0,0.0,0,1809.0,0
363,363,-0.14404503158457194,-0.1,1.0,0.0,421.0,797.0,0.0,0,1782.0,1
364,364,-0.648472859522077,-0.6,1.0,0.0,251.0,719.0,0.0,0,2030.0,1
365,365,0.7582184606486703,0.8,1.0,1.0,388.0,617.0,0.0,0,-995.0,0
366,366,-0.3039816585439308,-0.3,1.0,0.0,264.0,814.0,0.0,0,1922.0,1
367,367,-0.7737973343477317,-0.8,0.0,1.0,449.0,506.0,0.0,1,2045.0,0
368,368,-0.6634317115998084,-0.7,0.0,1.0,334.0,649.0,0.0,1,2017.0,0
369,369,-0.49577877386985375,-0.5,0.0,1.0,412.0,613.0,0.0,1,1975.0,0
370,370,-0.6224725075245174,-0.6,1.0,0.0,495.0,707.0,0.0,0,1798.0,1
371,371,-0.6543077322144718,-0.7,1.0,0.0,429.0,919.0,0.0,0,1652.0,1
372,372,0.7969789885704012,0.8,0.0,0.0,321.0,997.0,0.0,1,1682.0,1
373,373,0.8174940308026736,0.8,0.0,0.0,388.0,771.0,0.0,1,1841.0,1
374,374,0.24523008039798266,0.2,1.0,1.0,293.0,670.0,1.0,1,-873.0,1
375,375,0.8486303533396097,0.8,1.0,1.0,312.0,656.0,0.0,0,2032.0,0
376,376,-0.424173391823153,-0.4,0.0,1.0,376.0,851.0,0.0,1,1773.0,0
377,377,0.17719107110022814,0.2,0.0,0.0,360.0,688.0,0.0,1,1952.0,1
378,378,0.3559269226595333,0.4,0.0,0.0,352.0,599.0,0.0,1,2049.0,1
379,379,-0.7238717816667024,-0.7,1.0,0.0,498.0,598.0,0.0,0,1904.0,1
380,380,-0.6667459006326522,-0.7,1.0,0.0,432.0,774.0,0.0,0,1794.0,1
381,381,0.12980330414284247,0.1,1.0,1.0,392.0,829.0,0.0,0,1779.0,0
382,382,0.5298417754649286,0.5,1.0,1.0,321.0,926.0,0.0,0,1753.0,0
383,383,-0.20337446941728488,-0.2,1.0,0.0,449.0,891.0,0.0,0,1660.0,1
384,384,-0.4973817518753422,-0.5,1.0,0.0,364.0,637.0,0.0,0,1999.0,1
385,385,-0.21864854609751394,-0.2,0.0,1.0,393.0,747.0,0.0,1,1860.0,0
386,386,0.7667681903594882,0.8,0.0,0.0,395.0,539.0,0.0,1,2066.0,1
387,387,-0.0930622658669038,-0.1,0.0,1.0,270.0,580.0,0.0,1,2150.0,0
388,388,0.8785019308279979,0.9,1.0,1.0,315.0,952.0,0.0,0,1733.0,0
389,389,0.6346376367098919,0.6,1.0,1.0,325.0,791.0,0.0,0,1884.0,0
390,390,0.8449734740321081,0.8,0.0,0.0,370.0,742.0,0.0,1,1888.0,1
391,391,-0.6514890292611879,-0.7,0.0,1.0,428.0,681.0,0.0,1,1891.0,0
392,392,0.7092397969135548,0.7,0.0,0.0,461.0,821.0,0.0,1,1718.0,1
393,393,-0.44527810854583416,-0.4,1.0,0.0,278.0,803.0,0.0,0,1919.0,1
394,394,0.6089675886720182,0.6,0.0,0.0,372.0,535.0,0.0,1,2093.0,1
395,395,-0.06782587998083944,-0.1,0.0,1.0,284.0,673.0,0.0,1,2043.0,0
396,396,0.8649559025175967,0.9,0.0,0.0,363.0,847.0,0.0,1,1790.0,1
397,397,0.8651502714052669,0.9,0.0,0.0,364.0,760.0,0.0,1,1876.0,1
398,398,0.14341636101001443,0.1,1.0,1.0,403.0,788.0,0.0,0,1809.0,0
399,399,-0.013713954273844475,-0.0,1.0,0.0,485.0,615.0,0.0,0,1900.0,1
400,400,0.7269960783431993,0.7,1.0,1.0,299.0,912.0,0.0,0,1789.0,0
401,401,0.021440607689408808,0.0,1.0,1.0,374.0,534.0,0.0,0,2092.0,0
402,402,-0.5555208000721288,-0.6,1.0,0.0,441.0,962.0,0.0,0,1597.0,1
403,403,0.41327407437816743,0.4,0.0,0.0,351.0,649.0,0.0,1,2000.0,1
404,404,-0.38439631151502385,-0.4,1.0,0.0,468.0,597.0,0.0,0,1935.0,1
405,405,0.6991852494148619,0.7,1.0,1.0,381.0,898.0,0.0,0,1721.0,0
406,406,0.8684859061038069,0.9,1.0,1.0,446.0,790.0,0.0,0,1764.0,0
407,407,0.5087828255322621,0.5,0.0,0.0,410.0,570.0,0.0,1,2020.0,1
408,408,-0.6632537276233503,-0.7,1.0,0.0,485.0,773.0,0.0,0,1742.0,1
409,409,0.02611138017694392,0.0,0.0,0.0,324.0,958.0,0.0,1,1718.0,1
410,410,-0.6453179918714391,-0.6,0.0,1.0,398.0,527.0,0.0,1,2075.0,0
411,411,0.3761200014740561,0.4,0.0,0.0,328.0,850.0,0.0,1,1822.0,1
412,412,-0.04893494707125523,-0.0,0.0,1.0,429.0,740.0,0.0,1,1831.0,0
413,413,0.5191686884740373,0.5,1.0,1.0,418.0,594.0,0.0,0,1988.0,0
414,414,0.8153265681084853,0.8,1.0,1.0,321.0,979.0,0.0,0,1700.0,0
415,415,-0.25659296510102325,-0.3,0.0,1.0,317.0,939.0,0.0,1,1744.0,0
416,416,-0.8965880225732323,-0.9,0.0,1.0,267.0,785.0,0.0,1,1948.0,0
417,417,-0.22796465224436613,-0.2,0.0,1.0,260.0,650.0,0.0,1,2090.0,0
418,418,-0.5044743084459735,-0.5,0.0,1.0,343.0,737.0,0.0,1,1920.0,0
419,419,-0.643613495253849,-0.6,0.0,1.0,256.0,523.0,0.0,1,2221.0,0
420,420,-0.022360335826407507,-0.0,0.0,1.0,487.0,958.0,0.0,1,1555.0,0
421,421,0.5009161327257429,0.5,0.0,0.0,264.0,590.0,0.0,1,2146.0,1
422,422,-0.41909296664506174,-0.4,0.0,1.0,420.0,878.0,0.0,1,1702.0,0
423,423,0.3193621396892862,0.3,1.0,1.0,332.0,908.0,0.0,0,1760.0,0
424,424,-0.31365513460614414,-0.3,0.0,1.0,398.0,719.0,0.0,1,1883.0,0
425,425,-0.032017170796687866,-0.0,1.0,0.0,445.0,863.0,0.0,0,1692.0,1
426,426,0.1331576932571642,0.1,0.0,0.0,436.0,746.0,0.0,1,1818.0,1
427,427,-0.501573997750099,-0.5,0.0,1.0,347.0,712.0,0.0,1,1941.0,0
428,428,0.8885678428326954,0.9,1.0,1.0,261.0,930.0,0.0,0,1809.0,0
429,429,0.7663887753894086,0.8,1.0,1.0,440.0,773.0,0.0,0,1787.0,0
430,430,-0.5514912870334769,-0.6,0.0,1.0,262.0,566.0,0.0,1,2172.0,0
431,431,-0.03173669187076433,-0.0,0.0,1.0,422.0,667.0,0.0,1,1911.0,0
432,432,0.5584951636510936,0.6,0.0,0.0,255.0,697.0,0.0,1,2048.0,1
433,433,-0.2809030155004033,-0.3,1.0,0.0,391.0,778.0,0.0,0,1831.0,1
434,434,0.7992896755248807,0.8,1.0,1.0,407.0,687.0,0.0,0,1906.0,0
435,435,-0.6418178742098244,-0.6,0.0,1.0,419.0,613.0,0.0,1,1968.0,0
436,436,0.32434456072766216,0.3,1.0,1.0,398.0,822.0,0.0,0,1780.0,0
437,437,0.2925401654807588,0.3,1.0,1.0,415.0,720.0,0.0,0,-1105.0,0
438,438,-0.17408132744379579,-0.2,1.0,0.0,279.0,666.0,0.0,0,2055.0,1
439,439,-0.5678137583358056,-0.6,1.0,0.0,288.0,573.0,0.0,0,2139.0,1
440,440,0.12167315617338137,0.1,1.0,1.0,361.0,708.0,0.0,0,1931.0,0
441,441,0.1163389372270699,0.1,1.0,1.0,370.0,539.0,0.0,0,2091.0,0
442,442,-0.17862599660572454,-0.2,0.0,1.0,387.0,877.0,0.0,1,1736.0,0
443,443,-0.3018609166583508,-0.3,1.0,0.0,472.0,907.0,0.0,0,1621.0,1
444,444,0.7952305814203889,0.8,0.0,0.0,393.0,673.0,0.0,1,1934.0,1
445,445,-0.17378179750219125,-0.2,0.0,1.0,290.0,675.0,0.0,1,2035.0,0
446,446,0.7613316147279211,0.8,1.0,1.0,282.0,802.0,0.0,0,1916.0,0
447,447,0.1688353829555066,0.2,1.0,1.0,493.0,576.0,0.0,0,-1049.0,0
448,448,0.0745230086577473,0.1,0.0,0.0,323.0,618.0,0.0,1,2059.0,1
449,449,-0.14409256740880405,-0.1,1.0,0.0,489.0,983.0,0.0,0,1528.0,1
450,450,0.1970020228308863,0.2,1.0,1.0,328.0,532.0,0.0,0,2140.0,0
451,451,0.15855889365466658,0.2,0.0,0.0,396.0,858.0,0.0,1,1746.0,1
452,452,0.5326192952960472,0.5,0.0,0.0,289.0,787.0,1.0,0,-1076.0,0
453,453,0.8204978322911464,0.8,1.0,1.0,338.0,904.0,0.0,0,1758.0,0
454,454,0.7713272988357339,0.8,1.0,1.0,318.0,735.0,0.0,0,1947.0,0
455,455,0.8954869727203042,0.9,0.0,0.0,373.0,852.0,0.0,1,1775.0,1
456,456,-0.39213810640256463,-0.4,0.0,1.0,314.0,814.0,0.0,1,1872.0,0
457,457,0.75220517142234,0.8,1.0,1.0,262.0,996.0,0.0,0,1742.0,0
458,458,-0.8585009882318378,-0.9,1.0,0.0,370.0,634.0,0.0,0,1996.0,1
459,459,0.018521472381084036,0.0,1.0,1.0,301.0,859.0,0.0,0,1840.0,0
460,460,-0.7487565622942014,-0.7,0.0,1.0,251.0,926.0,0.0,1,1823.0,0
461,461,-0.4635539932910217,-0.5,0.0,1.0,385.0,581.0,0.0,1,2034.0,0
462,462,-0.816296342843637,-0.8,0.0,1.0,364.0,960.0,0.0,1,-1314.0,0
463,463,-0.40680720991335473,-0.4,0.0,1.0,257.0,901.0,0.0,1,1842.0,0
464,464,0.27943446519089166,0.3,1.0,1.0,466.0,926.0,0.0,0,1608.0,0
465,465,0.20857621488842615,0.2,0.0,0.0,399.0,677.0,0.0,1,1924.0,1
466,466,0.6750272296199479,0.7,0.0,0.0,275.0,924.0,0.0,1,1801.0,1
467,467,0.8835659907983971,0.9,0.0,0.0,326.0,938.0,0.0,1,1736.0,1
468,468,-0.6397670730247969,-0.6,0.0,1.0,495.0,921.0,0.0,1,1584.0,0
469,469,-0.13399723444556755,-0.1,0.0,1.0,494.0,676.0,0.0,1,1830.0,0
470,470,0.772055813016696,0.8,1.0,1.0,327.0,945.0,0.0,0,1728.0,0
471,471,-0.3396588597237171,-0.3,0.0,1.0,474.0,680.0,0.0,1,1846.0,0
472,472,0.25999211083500084,0.3,0.0,0.0,311.0,885.0,0.0,1,1804.0,1
473,473,-0.1094218150740589,-0.1,0.0,1.0,337.0,501.0,0.0,1,2162.0,0
474,474,-0.5212827546652155,-0.5,1.0,0.0,253.0,581.0,0.0,0,2166.0,1
475,475,0.7219349352189105,0.7,1.0,1.0,424.0,939.0,0.0,0,1637.0,0
476,476,-0.8658626003117011,-0.9,1.0,0.0,252.0,745.0,0.0,0,2003.0,1
477,477,0.6086524185779308,0.6,1.0,1.0,426.0,570.0,0.0,0,2004.0,0
478,478,-0.6633265745134139,-0.7,0.0,1.0,358.0,899.0,0.0,1,1743.0,0
479,479,0.5535681622536378,0.6,1.0,1.0,384.0,630.0,0.0,0,1986.0,0
480,480,-0.5260589386587056,-0.5,0.0,1.0,420.0,749.0,0.0,1,1831.0,0
481,481,-0.31710647934043923,-0.3,0.0,1.0,490.0,785.0,0.0,1,1725.0,0
482,482,-0.38907394080675306,-0.4,1.0,0.0,403.0,783.0,0.0,0,-1056.0,1
483,483,-0.0618190088302496,-0.1,1.0,0.0,490.0,737.0,1.0,1,-1067.0,0
484,484,-0.41743522451229825,-0.4,1.0,0.0,378.0,940.0,0.0,0,1682.0,1
485,485,-0.026706044282987618,-0.0,1.0,0.0,307.0,923.0,0.0,0,1770.0,1
486,486,0.2622469450573107,0.3,0.0,0.0,398.0,980.0,0.0,1,1622.0,1
487,487,0.21462470573910297,0.2,0.0,0.0,364.0,557.0,0.0,1,2079.0,1
488,488,0.8003928767554126,0.8,0.0,0.0,277.0,711.0,0.0,1,2012.0,1
489,489,-0.5731670225807155,-0.6,0.0,1.0,407.0,594.0,0.0,1,1999.0,0
490,490,0.3412970926455069,0.3,0.0,0.0,480.0,544.0,0.0,1,1976.0,1
491,491,0.5921909410951615,0.6,0.0,0.0,355.0,563.0,0.0,1,2082.0,1
492,492,0.7800295806461063,0.8,1.0,1.0,324.0,779.0,0.0,0,1897.0,0
493,493,-0.686315881128379,-0.7,1.0,0.0,354.0,586.0,0.0,0,2060.0,1
494,494,0.8095882062989211,0.8,1.0,1.0,481.0,545.0,0.0,0,1974.0,0
495,495,0.7350678039041464,0.7,1.0,1.0,328.0,738.0,0.0,0,1934.0,0
496,496,-0.09762415427355697,-0.1,1.0,0.0,336.0,601.0,0.0,0,2063.0,1
497,497,0.8556793789871212,0.9,0.0,0.0,406.0,629.0,0.0,1,1965.0,1
498,498,-0.1971133500546033,-0.2,0.0,1.0,492.0,639.0,0.0,1,1869.0,0
499,499,-0.3494222471812506,-0.3,1.0,0.0,487.0,787.0,0.0,0,1726.0,1
500,500,0.3975581551624138,0.4,0.0,0.0,302.0,769.0,0.0,1,1929.0,1
501,501,-0.5695410176178811,-0.6,1.0,0.0,451.0,674.0,0.0,0,1875.0,1
502,502,-0.7789436352462795,-0.8,0.0,1.0,319.0,739.0,0.0,1,1942.0,0
503,503,0.6133405504427897,0.6,1.0,1.0,322.0,557.0,0.0,0,2121.0,0
504,504,0.3642253678664976,0.4,0.0,0.0,458.0,608.0,0.0,1,1934.0,1
505,505,-0.44690107336322077,-0.4,0.0,1.0,281.0,981.0,0.0,1,1738.0,0
506,506,0.44376955145797947,0.4,1.0,1.0,378.0,878.0,0.0,0,1744.0,0
507,507,-0.5494099134417109,-0.5,0.0,1.0,271.0,563.0,0.0,1,2166.0,0
508,508,-0.7784767603919799,-0.8,1.0,0.0,447.0,922.0,0.0,0,1631.0,1
509,509,-0.294535016556294,-0.3,0.0,1.0,395.0,655.0,0.0,1,1950.0,0
510,510,0.4777732304955905,0.5,0.0,0.0,422.0,675.0,0.0,1,1903.0,1
511,511,-0.24558252012138515,-0.2,1.0,0.0,309.0,800.0,0.0,0,1891.0,1
512,512,0.4088391585455463,0.4,1.0,1.0,434.0,962.0,1.0,1,-1356.0,1
513,513,-0.7922830778122882,-0.8,1.0,0.0,285.0,556.0,0.0,0,2159.0,1
514,514,-0.41729042874839256,-0.4,0.0,1.0,327.0,872.0,0.0,1,1801.0,0
515,515,-0.289587594747594,-0.3,0.0,1.0,310.0,959.0,0.0,1,1731.0,0
516,516,-0.523893054824478,-0.5,0.0,1.0,260.0,763.0,0.0,1,1977.0,0
517,517,-0.3684505314388359,-0.4,1.0,0.0,257.0,538.0,0.0,0,2205.0,1
518,518,-0.2632102439470757,-0.3,1.0,0.0,265.0,761.0,0.0,0,1974.0,1
519,519,-0.2141440262886013,-0.2,0.0,1.0,336.0,598.0,0.0,1,2066.0,0
520,520,0.7451771968721318,0.7,0.0,0.0,306.0,829.0,0.0,1,1865.0,1
521,521,0.03385066478493326,0.0,0.0,0.0,265.0,602.0,0.0,1,2133.0,1
522,522,-0.720338867084816,-0.7,1.0,0.0,251.0,566.0,0.0,0,2183.0,1
523,523,0.5715685122748654,0.6,0.0,0.0,348.0,698.0,0.0,1,1954.0,1
524,524,-0.6605520627814372,-0.7,0.0,1.0,473.0,981.0,0.0,1,1546.0,0
525,525,-0.5656616649073132,-0.6,0.0,1.0,429.0,987.0,0.0,1,1584.0,0
526,526,0.07510681850398404,0.1,1.0,1.0,478.0,747.0,0.0,0,1775.0,0
527,527,-0.4431589358185608,-0.4,0.0,1.0,346.0,790.0,0.0,1,1864.0,0
528,528,0.35426078044017306,0.4,1.0,1.0,454.0,755.0,0.0,0,1791.0,0
529,529,-0.41624969071309487,-0.4,1.0,0.0,489.0,710.0,0.0,0,1801.0,1
530,530,-0.3412375741933905,-0.3,0.0,1.0,371.0,902.0,0.0,1,1727.0,0
531,531,0.10858978594254964,0.1,0.0,0.0,481.0,976.0,0.0,1,1543.0,1
532,532,0.06692927987296704,0.1,1.0,1.0,368.0,883.0,0.0,0,1749.0,0
533,533,0.1324843648690549,0.1,1.0,1.0,320.0,987.0,0.0,0,1693.0,0
534,534,0.8196881561248534,0.8,1.0,1.0,311.0,886.0,0.0,0,1803.0,0
535,535,-0.44236119322948514,-0.4,1.0,0.0,324.0,704.0,0.0,0,1972.0,1
536,536,0.7447330163772158,0.7,0.0,0.0,297.0,756.0,0.0,1,1947.0,1
537,537,0.5485864672519637,0.5,1.0,1.0,390.0,566.0,0.0,0,2044.0,0
538,538,0.6490114940111275,0.6,1.0,1.0,404.0,965.0,0.0,0,1631.0,0
539,539,-0.2581473635628869,-0.3,0.0,1.0,357.0,943.0,0.0,1,1700.0,0
540,540,0.34152452536949685,0.3,0.0,0.0,470.0,881.0,0.0,1,1649.0,1
541,541,-0.26851983597342444,-0.3,1.0,0.0,387.0,641.0,0.0,0,1972.0,1
542,542,0.31833001874865763,0.3,1.0,1.0,384.0,756.0,0.0,0,1860.0,0
543,543,-0.1535481926335267,-0.2,1.0,0.0,402.0,783.0,0.0,0,1815.0,1
544,544,-0.08710303940423758,-0.1,0.0,1.0,412.0,930.0,1.0,0,-1322.0,1
545,545,0.5524806229728493,0.6,1.0,1.0,492.0,673.0,0.0,0,1835.0,0
546,546,-0.8410766684975203,-0.8,1.0,0.0,385.0,656.0,0.0,0,1959.0,1
547,547,0.823312559933458,0.8,1.0,1.0,409.0,654.0,0.0,0,1937.0,0
548,548,0.7529544849966724,0.8,0.0,0.0,369.0,966.0,0.0,1,1665.0,1
549,549,0.7010901993684643,0.7,1.0,1.0,259.0,980.0,0.0,0,1761.0,0
550,550,0.15561319807483043,0.2,1.0,1.0,330.0,734.0,0.0,0,1936.0,0
551,551,-0.6400307875196385,-0.6,1.0,0.0,436.0,701.0,0.0,0,1863.0,1
552,552,0.5827063988667306,0.6,1.0,1.0,409.0,860.0,0.0,0,1731.0,0
553,553,-0.36461094111504244,-0.4,0.0,1.0,422.0,812.0,0.0,1,1766.0,0
554,554,0.7342044654147791,0.7,0.0,0.0,281.0,984.0,0.0,1,1735.0,1
555,555,-0.22147958525941647,-0.2,1.0,0.0,423.0,916.0,0.0,0,1661.0,1
556,556,-0.6905107820477213,-0.7,1.0,0.0,392.0,697.0,0.0,0,1911.0,1
557,557,0.2599575063548446,0.3,0.0,0.0,301.0,837.0,0.0,1,1862.0,1
558,558,-0.02986486836215474,-0.0,1.0,0.0,438.0,738.0,0.0,0,1824.0,1
559,559,-0.03568805677210041,-0.0,1.0,0.0,340.0,983.0,0.0,0,1677.0,1
560,560,-0.18943136446999276,-0.2,0.0,1.0,256.0,894.0,0.0,1,-990.0,0
561,561,-0.41393064407605423,-0.4,0.0,1.0,270.0,920.0,0.0,1,1810.0,0
562,562,-0.7864770245093986,-0.8,1.0,0.0,295.0,863.0,0.0,0,1842.0,1
563,563,0.08386579755536461,0.1,0.0,0.0,280.0,719.0,0.0,1,2001.0,1
564,564,0.5755733406317914,0.6,1.0,1.0,349.0,605.0,0.0,0,2046.0,0
565,565,0.34518819812540225,0.3,1.0,1.0,358.0,539.0,0.0,0,2103.0,0
566,566,0.8214000675408634,0.8,0.0,0.0,447.0,502.0,0.0,1,2051.0,1
567,567,-0.39623879579002164,-0.4,1.0,0.0,365.0,673.0,0.0,0,1962.0,1
568,568,0.31830299556162067,0.3,1.0,1.0,311.0,601.0,0.0,0,2088.0,0
569,569,0.333881177523487,0.3,0.0,0.0,316.0,705.0,0.0,1,1979.0,1
570,570,-0.6170140038230585,-0.6,0.0,1.0,312.0,634.0,0.0,1,2054.0,0
571,571,0.02148583651256253,0.0,0.0,0.0,399.0,927.0,0.0,1,1674.0,1
572,572,-0.2461935031535244,-0.2,1.0,0.0,417.0,529.0,0.0,0,2054.0,1
573,573,-0.12506526169046184,-0.1,1.0,0.0,426.0,909.0,0.0,0,1665.0,1
574,574,-0.4623158968310478,-0.5,1.0,0.0,380.0,586.0,0.0,0,2034.0,1
575,575,-0.22322411732354408,-0.2,0.0,1.0,485.0,529.0,0.0,1,-944.0,0
576,576,0.1890785120408044,0.2,1.0,1.0,341.0,659.0,0.0,0,2000.0,0
577,577,-0.41773491514848965,-0.4,1.0,0.0,394.0,712.0,0.0,0,1894.0,1
578,578,-0.05651792582499782,-0.1,0.0,1.0,371.0,850.0,0.0,1,1779.0,0
579,579,0.2179880605418011,0.2,1.0,1.0,297.0,707.0,0.0,0,1996.0,0
580,580,-0.08349867371245567,-0.1,1.0,0.0,345.0,865.0,0.0,0,1790.0,1
581,581,-0.6988314169525172,-0.7,1.0,0.0,263.0,585.0,0.0,0,2152.0,1
582,582,0.8499070316759815,0.8,1.0,1.0,294.0,840.0,0.0,0,-964.0,0
583,583,-0.014021416478893323,-0.0,0.0,1.0,331.0,767.0,0.0,1,1902.0,0
584,584,0.3063590208256525,0.3,1.0,1.0,448.0,796.0,0.0,0,1756.0,0
585,585,-0.14600794492685365,-0.1,0.0,1.0,284.0,813.0,0.0,1,1903.0,0
586,586,0.06341641450749069,0.1,1.0,1.0,454.0,893.0,0.0,0,1653.0,0
587,587,0.775030744624844,0.8,1.0,1.0,309.0,792.0,0.0,0,1899.0,0
588,588,0.5055578207148238,0.5,0.0,0.0,432.0,566.0,0.0,1,2002.0,1
589,589,-0.24681531221321695,-0.2,0.0,1.0,425.0,864.0,0.0,1,1711.0,0
590,590,-0.09473484210420069,-0.1,1.0,0.0,455.0,630.0,1.0,1,-955.0,0
591,591,-0.31990395162528595,-0.3,0.0,1.0,292.0,861.0,0.0,1,1847.0,0
592,592,0.7383596074292017,0.7,1.0,1.0,415.0,733.0,0.0,0,1852.0,0
593,593,0.18578486147075457,0.2,1.0,1.0,309.0,795.0,0.0,0,1896.0,0
594,594,-0.45235877799178126,-0.5,1.0,0.0,485.0,534.0,0.0,0,1981.0,1
595,595,0.24244604828877014,0.2,1.0,1.0,498.0,519.0,0.0,0,1983.0,0
596,596,-0.8428677565907429,-0.8,1.0,0.0,412.0,611.0,0.0,0,1977.0,1
597,597,-0.5925289665414754,-0.6,1.0,0.0,360.0,679.0,0.0,0,1961.0,1
598,598,-0.23954146238141993,-0.2,0.0,1.0,343.0,539.0,0.0,1,2118.0,0
599,599,0.13889295843410487,0.1,0.0,0.0,469.0,850.0,0.0,1,1681.0,1
600,600,-0.46867463835618456,-0.5,0.0,1.0,464.0,539.0,1.0,0,-973.0,1
601,601,-0.8125296565205881,-0.8,0.0,1.0,487.0,820.0,0.0,1,1693.0,0
602,602,0.013763984970785015,0.0,0.0,0.0,462.0,879.0,0.0,1,1659.0,1
603,603,-0.7243768535569517,-0.7,1.0,0.0,275.0,521.0,0.0,0,2204.0,1
604,604,0.13575864888571376,0.1,1.0,1.0,425.0,651.0,0.0,0,1924.0,0
605,605,0.17678204728463498,0.2,0.0,0.0,318.0,991.0,0.0,1,1691.0,1
606,606,0.6829370553823736,0.7,0.0,0.0,464.0,899.0,0.0,1,1637.0,1
607,607,0.5313208009600757,0.5,0.0,0.0,367.0,558.0,0.0,1,-885.0,1
608,608,-0.24202550533225742,-0.2,1.0,0.0,442.0,604.0,0.0,0,1954.0,1
609,609,0.4672718754486601,0.5,1.0,1.0,327.0,791.0,0.0,0,1882.0,0
610,610,-0.2562837843739295,-0.3,1.0,0.0,327.0,984.0,0.0,0,1689.0,1
611,611,0.24919105262086816,0.2,1.0,1.0,319.0,859.0,0.0,0,1822.0,0
612,612,0.018684971970448605,0.0,0.0,0.0,368.0,678.0,0.0,1,1954.0,1
613,613,-0.07827816731564141,-0.1,0.0,1.0,381.0,725.0,0.0,1,1894.0,0
614,614,0.591468004640941,0.6,0.0,0.0,328.0,810.0,0.0,1,1862.0,1
615,615,0.27283274756173903,0.3,1.0,1.0,446.0,905.0,0.0,0,1649.0,0
616,616,-0.8985582911528474,-0.9,0.0,1.0,297.0,896.0,0.0,1,1807.0,0
617,617,-0.7983645617686602,-0.8,0.0,1.0,277.0,669.0,0.0,1,2054.0,0
618,618,0.4633400158017281,0.5,1.0,1.0,317.0,779.0,0.0,0,1904.0,0
619,619,0.043097937626149885,0.0,1.0,1.0,274.0,801.0,0.0,0,1925.0,0
620,620,0.378525701582881,0.4,1.0,1.0,471.0,904.0,0.0,0,1625.0,0
621,621,-0.6686167288882255,-0.7,0.0,1.0,432.0,509.0,0.0,1,2059.0,0
622,622,0.7417721398267315,0.7,0.0,0.0,478.0,975.0,0.0,1,1547.0,1
623,623,0.10104678334142869,0.1,1.0,1.0,422.0,534.0,0.0,0,2044.0,0
624,624,0.31402235299922865,0.3,1.0,1.0,320.0,588.0,0.0,0,2092.0,0
625,625,0.7571088139281753,0.8,1.0,1.0,281.0,903.0,0.0,0,1816.0,0
626,626,-0.32093288704952583,-0.3,0.0,1.0,434.0,758.0,0.0,1,1808.0,0
627,627,-0.24284552847825813,-0.2,1.0,0.0,442.0,665.0,0.0,0,1893.0,1
628,628,-0.49859178728745124,-0.5,0.0,1.0,386.0,648.0,0.0,1,1966.0,0
629,629,0.4513905727874522,0.5,1.0,1.0,323.0,856.0,0.0,0,-1049.0,0
630,630,-0.4352138089310304,-0.4,0.0,1.0,403.0,546.0,0.0,1,2051.0,0
631,631,-0.49497417059320903,-0.5,0.0,1.0,413.0,796.0,1.0,0,-1009.0,1
632,632,-0.7780510020615764,-0.8,0.0,1.0,393.0,627.0,0.0,1,1980.0,0
633,633,0.24893403980532047,0.2,1.0,1.0,313.0,598.0,0.0,0,2089.0,0
634,634,-0.03758428183496798,-0.0,1.0,0.0,317.0,998.0,0.0,0,1685.0,1
635,635,-0.15569697008179195,-0.2,1.0,0.0,292.0,690.0,0.0,0,2018.0,1
636,636,0.4858911132405105,0.5,0.0,0.0,497.0,682.0,0.0,1,1821.0,1
637,637,-0.29438459976102616,-0.3,0.0,1.0,488.0,776.0,0.0,1,1736.0,0
638,638,-0.18975707066347536,-0.2,1.0,0.0,376.0,626.0,0.0,0,1998.0,1
639,639,-0.025428494440118188,-0.0,0.0,1.0,469.0,713.0,0.0,1,1818.0,0
640,640,-0.6186049939970362,-0.6,1.0,0.0,361.0,706.0,0.0,0,1933.0,1
641,641,0.16152573151266647,0.2,0.0,0.0,382.0,634.0,0.0,1,-976.0,1
642,642,-0.025135879289711838,-0.0,1.0,0.0,282.0,755.0,0.0,0,1963.0,1
643,643,-0.635000276796464,-0.6,0.0,1.0,375.0,551.0,0.0,1,2074.0,0
644,644,-0.45145551004706935,-0.5,0.0,1.0,295.0,808.0,0.0,1,1897.0,0
645,645,-0.634763864815326,-0.6,1.0,0.0,495.0,555.0,0.0,0,1950.0,1
646,646,-0.1269570457278255,-0.1,0.0,1.0,342.0,666.0,0.0,1,1992.0,0
647,647,-0.333393866621826,-0.3,0.0,1.0,470.0,891.0,0.0,1,1639.0,0
648,648,0.28679872350431335,0.3,0.0,0.0,450.0,636.0,0.0,1,1914.0,1
649,649,0.04662087017499128,0.0,1.0,1.0,270.0,597.0,0.0,0,2133.0,0
650,650,-0.2402050289792863,-0.2,0.0,1.0,406.0,726.0,0.0,1,1868.0,0
651,651,-0.10362077532676495,-0.1,1.0,0.0,259.0,770.0,0.0,0,1971.0,1
652,652,-0.12441112493093387,-0.1,1.0,0.0,439.0,968.0,0.0,0,-1397.0,1
653,653,0.2978292498313627,0.3,0.0,0.0,267.0,814.0,0.0,1,1919.0,1
654,654,-0.8937571708855878,-0.9,1.0,0.0,453.0,503.0,0.0,0,2044.0,1
655,655,0.13724447797476336,0.1,0.0,0.0,304.0,689.0,0.0,1,2007.0,1
656,656,0.6051260005682991,0.6,0.0,0.0,257.0,565.0,0.0,1,2178.0,1
657,657,0.6517143746940893,0.7,1.0,1.0,274.0,834.0,0.0,0,1892.0,0
658,658,-0.3003851640725468,-0.3,0.0,1.0,458.0,977.0,0.0,1,1565.0,0
659,659,0.06833061196317813,0.1,0.0,0.0,437.0,882.0,0.0,1,1681.0,1
660,660,0.7681853857799995,0.8,0.0,0.0,409.0,989.0,0.0,1,-1378.0,1
661,661,0.5873913771771903,0.6,0.0,0.0,384.0,749.0,0.0,1,1867.0,1
662,662,-0.334585452743286,-0.3,1.0,0.0,418.0,842.0,0.0,0,1740.0,1
663,663,0.6708458710170023,0.7,0.0,0.0,476.0,639.0,0.0,1,1885.0,1
664,664,0.25143093323831056,0.3,0.0,0.0,297.0,565.0,0.0,1,2138.0,1
665,665,0.13835436168814297,0.1,1.0,1.0,353.0,712.0,0.0,0,1935.0,0
666,666,0.48059962168930037,0.5,1.0,1.0,416.0,574.0,0.0,0,2010.0,0
667,667,0.15414993289701762,0.2,1.0,1.0,422.0,522.0,0.0,0,2056.0,0
668,668,0.4449306781344219,0.4,1.0,1.0,416.0,918.0,0.0,0,1666.0,0
669,669,0.7720224757845288,0.8,0.0,0.0,359.0,561.0,0.0,1,2080.0,1
670,670,0.27773336355824163,0.3,0.0,0.0,303.0,700.0,0.0,1,1997.0,1
671,671,-0.2352850790164338,-0.2,0.0,1.0,345.0,543.0,0.0,1,2112.0,0
672,672,-0.7933232564862858,-0.8,1.0,0.0,315.0,564.0,0.0,0,2121.0,1
673,673,0.5692804529108418,0.6,0.0,0.0,279.0,926.0,0.0,1,1795.0,1
674,674,0.7552517016910233,0.8,0.0,0.0,321.0,930.0,0.0,1,1749.0,1
675,675,0.2927246311454149,0.3,0.0,0.0,377.0,647.0,0.0,1,1976.0,1
676,676,-0.16851242340585182,-0.2,1.0,0.0,392.0,758.0,0.0,0,1850.0,1
677,677,0.5556352896115958,0.6,1.0,1.0,499.0,888.0,0.0,0,1613.0,0
678,678,0.5527226536340312,0.6,0.0,0.0,299.0,832.0,0.0,1,1869.0,1
679,679,-0.29863131955876976,-0.3,0.0,1.0,277.0,624.0,0.0,1,2099.0,0
680,680,-0.7497749736527579,-0.7,1.0,0.0,295.0,820.0,0.0,0,1885.0,1
681,681,-0.3174218564427864,-0.3,1.0,0.0,392.0,870.0,0.0,0,1738.0,1
682,682,-0.19279781830617326,-0.2,0.0,1.0,450.0,917.0,0.0,1,1633.0,0
683,683,-0.44338845831836354,-0.4,0.0,1.0,457.0,601.0,0.0,1,1942.0,0
684,684,0.32120648913593397,0.3,1.0,1.0,487.0,660.0,0.0,0,1853.0,0
685,685,-0.11887654047226315,-0.1,1.0,0.0,463.0,651.0,0.0,0,1886.0,1
686,686,-0.6794811003625635,-0.7,1.0,0.0,361.0,980.0,0.0,0,1659.0,1
687,687,0.35413648168186584,0.4,0.0,0.0,495.0,821.0,0.0,1,1684.0,1
688,688,0.6898778356951306,0.7,1.0,1.0,492.0,886.0,0.0,0,1622.0,0
689,689,0.8879234966039741,0.9,1.0,1.0,491.0,716.0,0.0,0,-1187.0,0
690,690,0.4326229589431835,0.4,1.0,1.0,361.0,768.0,0.0,0,1871.0,0
691,691,0.04484663224504615,0.0,1.0,1.0,271.0,845.0,0.0,0,1884.0,0
692,692,-0.614325456324943,-0.6,1.0,0.0,400.0,512.0,0.0,0,-872.0,1
693,693,-0.049435159253632954,-0.0,1.0,0.0,298.0,553.0,0.0,0,2149.0,1
694,694,0.43098466770847355,0.4,0.0,0.0,404.0,788.0,0.0,1,1808.0,1
695,695,0.07780216742936985,0.1,0.0,0.0,456.0,661.0,0.0,1,1883.0,1
696,696,0.705990174270691,0.7,1.0,1.0,313.0,936.0,0.0,0,1751.0,0
697,697,0.5277608589867272,0.5,0.0,0.0,260.0,917.0,0.0,1,1823.0,1
698,698,-0.23390358017948942,-0.2,0.0,1.0,326.0,551.0,0.0,1,2123.0,0
699,699,0.0423715642374769,0.0,0.0,0.0,313.0,663.0,0.0,1,2024.0,1
700,700,-0.01377526551052144,-0.0,1.0,0.0,306.0,769.0,0.0,0,-1025.0,1
701,701,-0.68319271232914,-0.7,0.0,1.0,300.0,863.0,0.0,1,1837.0,0
702,702,-0.762800120803765,-0.8,1.0,0.0,257.0,874.0,0.0,0,1869.0,1
703,703,-0.3560241072728473,-0.4,1.0,0.0,287.0,561.0,0.0,0,2152.0,1
704,704,0.5209635931496267,0.5,1.0,1.0,445.0,578.0,0.0,0,1977.0,0
705,705,0.5595478194801543,0.6,1.0,1.0,425.0,835.0,0.0,0,1740.0,0
706,706,-0.7516383438376898,-0.8,0.0,1.0,434.0,766.0,0.0,1,-1160.0,0
707,707,0.742407719724595,0.7,0.0,0.0,303.0,767.0,0.0,1,1930.0,1
708,708,0.6821786205441674,0.7,0.0,0.0,306.0,967.0,0.0,1,-1263.0,1
709,709,-0.1322040041645619,-0.1,1.0,0.0,310.0,525.0,0.0,0,2165.0,1
710,710,0.023204899848742633,0.0,1.0,1.0,479.0,642.0,0.0,0,1879.0,0
711,711,-0.19827289489400624,-0.2,0.0,1.0,283.0,503.0,0.0,1,2214.0,0
712,712,-0.4274282354452475,-0.4,0.0,1.0,462.0,614.0,0.0,1,1924.0,0
713,713,-0.8594438624116724,-0.9,1.0,0.0,430.0,835.0,0.0,0,1735.0,1
714,714,-0.7199421263604604,-0.7,1.0,0.0,262.0,738.0,0.0,0,2000.0,1
715,715,0.7058772406408428,0.7,1.0,1.0,364.0,809.0,0.0,0,1827.0,0
716,716,-0.2205990854310318,-0.2,1.0,0.0,322.0,913.0,0.0,0,1765.0,1
717,717,0.559220015404872,0.6,1.0,1.0,342.0,655.0,0.0,0,2003.0,0
718,718,0.7281632124203489,0.7,0.0,0.0,339.0,949.0,0.0,1,1712.0,1
719,719,0.5750743337701644,0.6,1.0,1.0,325.0,938.0,0.0,0,1737.0,0
720,720,-0.3541612876823378,-0.4,1.0,0.0,371.0,937.0,0.0,0,1692.0,1
721,721,0.6472144190678594,0.6,0.0,0.0,342.0,782.0,0.0,1,1876.0,1
722,722,0.23484222908797803,0.2,0.0,0.0,417.0,548.0,0.0,1,2035.0,1
723,723,-0.5417367020342883,-0.5,1.0,0.0,334.0,646.0,0.0,0,2020.0,1
724,724,-0.08505002030761522,-0.1,0.0,1.0,400.0,659.0,0.0,1,1941.0,0
725,725,0.7490193808194573,0.7,0.0,0.0,435.0,812.0,0.0,1,1753.0,1
726,726,-0.638514930844859,-0.6,0.0,1.0,377.0,827.0,0.0,1,1796.0,0
727,727,-0.651025797642705,-0.7,0.0,1.0,408.0,842.0,0.0,1,1750.0,0
728,728,-0.01690855573068717,-0.0,1.0,0.0,457.0,751.0,0.0,0,1792.0,1
729,729,0.11684759749940554,0.1,0.0,0.0,272.0,726.0,0.0,1,2002.0,1
730,730,-0.862789677444928,-0.9,1.0,0.0,322.0,612.0,0.0,0,2066.0,1
731,731,0.05927335207154316,0.1,0.0,0.0,445.0,563.0,0.0,1,1992.0,1
732,732,-0.24861238134975838,-0.2,1.0,0.0,425.0,561.0,0.0,0,2014.0,1
733,733,0.4777204755861023,0.5,0.0,0.0,450.0,571.0,0.0,1,1979.0,1
734,734,0.780097037761193,0.8,0.0,0.0,311.0,928.0,0.0,1,1761.0,1
735,735,-0.020126431533983746,-0.0,0.0,1.0,464.0,594.0,0.0,1,1942.0,0
736,736,-0.8175397101787799,-0.8,0.0,1.0,275.0,642.0,0.0,1,2083.0,0
737,737,-0.08766548250412864,-0.1,1.0,0.0,469.0,539.0,0.0,0,1992.0,1
738,738,-0.4584123981390385,-0.5,0.0,1.0,261.0,563.0,1.0,0,-694.0,1
739,739,0.18924734839838175,0.2,0.0,0.0,388.0,912.0,0.0,1,1700.0,1
740,740,0.4446588405203754,0.4,0.0,0.0,448.0,512.0,0.0,1,2040.0,1
741,741,0.36442503759715683,0.4,0.0,0.0,442.0,976.0,0.0,1,1582.0,1
742,742,-0.8717442538550014,-0.9,1.0,0.0,388.0,934.0,0.0,0,1678.0,1
743,743,0.5976853907918053,0.6,0.0,0.0,415.0,828.0,0.0,1,1757.0,1
744,744,-0.00973064714418903,-0.0,1.0,0.0,436.0,843.0,0.0,0,1721.0,1
745,745,-0.6267496001631421,-0.6,1.0,0.0,490.0,712.0,0.0,0,1798.0,1
746,746,-0.31902242552663096,-0.3,0.0,1.0,372.0,739.0,0.0,1,-1041.0,0
747,747,0.6921112103069281,0.7,0.0,0.0,333.0,773.0,0.0,1,1894.0,1
748,748,0.8636269492592746,0.9,1.0,1.0,290.0,997.0,0.0,0,1713.0,0
749,749,-0.1800715384938374,-0.2,0.0,1.0,363.0,937.0,0.0,1,-1230.0,0
750,750,0.6185936643846267,0.6,0.0,0.0,327.0,609.0,0.0,1,2064.0,1
751,751,0.49167025633473604,0.5,0.0,0.0,494.0,833.0,0.0,1,1673.0,1
752,752,0.0854080214418157,0.1,0.0,0.0,384.0,548.0,0.0,1,2068.0,1
753,753,-0.292439970873699,-0.3,1.0,0.0,275.0,933.0,0.0,0,-1148.0,1
754,754,-0.3981588811670107,-0.4,1.0,0.0,307.0,534.0,0.0,0,2159.0,1
755,755,-0.28060797351728195,-0.3,1.0,0.0,295.0,639.0,0.0,0,2066.0,1
756,756,0.8870508174962831,0.9,0.0,0.0,338.0,850.0,0.0,1,1812.0,1
757,757,-0.5860295965192577,-0.6,1.0,0.0,444.0,691.0,0.0,0,1865.0,1
758,758,-0.7834436263448694,-0.8,0.0,1.0,289.0,720.0,0.0,1,1991.0,0
759,759,0.28924527215217577,0.3,1.0,1.0,317.0,748.0,0.0,0,1935.0,0
760,760,-0.6310909754398375,-0.6,1.0,0.0,390.0,557.0,0.0,0,2053.0,1
761,761,0.8653205675322729,0.9,0.0,0.0,426.0,531.0,0.0,1,2043.0,1
762,762,-0.7448801273294574,-0.7,1.0,0.0,498.0,984.0,0.0,0,1518.0,1
763,763,-0.33585758887908956,-0.3,1.0,0.0,303.0,876.0,0.0,0,1821.0,1
764,764,-0.22552580681125367,-0.2,1.0,0.0,301.0,955.0,0.0,0,1744.0,1
765,765,0.7352816766268865,0.7,1.0,1.0,489.0,576.0,0.0,0,1935.0,0
766,766,0.6410700959266941,0.6,0.0,0.0,379.0,649.0,0.0,1,1972.0,1
767,767,0.015743871414077293,0.0,0.0,0.0,379.0,934.0,0.0,1,1687.0,1
768,768,0.1771751229570463,0.2,1.0,1.0,377.0,774.0,0.0,0,1849.0,0
769,769,0.37366313301101306,0.4,1.0,1.0,373.0,721.0,0.0,0,1906.0,0
770,770,0.4708462506105199,0.5,1.0,1.0,269.0,951.0,0.0,0,1780.0,0
771,771,0.4050246116754962,0.4,0.0,0.0,307.0,712.0,0.0,1,1981.0,1
772,772,0.8208958429491101,0.8,1.0,1.0,318.0,728.0,0.0,0,1954.0,0
773,773,-0.6036425697723131,-0.6,1.0,0.0,330.0,674.0,0.0,0,1996.0,1
774,774,0.8282913023877879,0.8,1.0,1.0,297.0,964.0,1.0,1,-1161.0,1
775,775,0.852198220504999,0.9,1.0,1.0,367.0,856.0,0.0,0,1777.0,0
776,776,-0.3561906082671138,-0.4,0.0,1.0,250.0,769.0,0.0,1,1981.0,0
777,777,-0.6639346953282188,-0.7,0.0,1.0,411.0,776.0,0.0,1,1813.0,0
778,778,-0.7995618664128703,-0.8,1.0,0.0,305.0,683.0,0.0,0,2012.0,1
779,779,0.1674185958225839,0.2,1.0,1.0,305.0,723.0,0.0,0,1972.0,0
780,780,-0.6014578142841038,-0.6,0.0,1.0,407.0,961.0,0.0,1,1632.0,0
781,781,0.08918467811510444,0.1,1.0,1.0,439.0,659.0,0.0,0,1902.0,0
782,782,-0.48692564176611797,-0.5,0.0,1.0,265.0,736.0,0.0,1,1999.0,0
783,783,-0.6462356910512232,-0.6,0.0,1.0,256.0,536.0,0.0,1,2208.0,0
784,784,-0.031451169684782676,-0.0,0.0,1.0,432.0,600.0,0.0,1,1968.0,0
785,785,0.3743981213995903,0.4,0.0,0.0,368.0,797.0,0.0,1,1835.0,1
786,786,-0.4463527488654943,-0.4,1.0,0.0,263.0,592.0,0.0,0,2145.0,1
787,787,-0.6918427562662752,-0.7,0.0,1.0,267.0,891.0,0.0,1,1842.0,0
788,788,-0.4697269301041918,-0.5,0.0,1.0,292.0,984.0,0.0,1,1724.0,0
789,789,-0.3114248556398842,-0.3,1.0,0.0,355.0,841.0,1.0,1,-886.0,0
790,790,0.7640541270343942,0.8,1.0,1.0,465.0,556.0,0.0,0,1979.0,0
791,791,0.16672178219987577,0.2,0.0,0.0,299.0,906.0,0.0,1,1795.0,1
792,792,-0.6471350955294183,-0.6,0.0,1.0,428.0,709.0,0.0,1,1863.0,0
793,793,-0.7063330108540001,-0.7,0.0,1.0,353.0,933.0,0.0,1,1714.0,0
794,794,-0.7547346807562247,-0.8,1.0,0.0,452.0,653.0,0.0,0,1895.0,1
795,795,-0.5463632342314058,-0.5,1.0,0.0,494.0,709.0,0.0,0,1797.0,1
796,796,0.46971155372069273,0.5,1.0,1.0,369.0,823.0,0.0,0,1808.0,0
797,797,0.020527413906751835,0.0,1.0,1.0,467.0,831.0,0.0,0,1702.0,0
798,798,-0.29284955044517114,-0.3,1.0,0.0,493.0,507.0,0.0,0,2000.0,1
799,799,-0.7862577833173389,-0.8,0.0,1.0,322.0,942.0,0.0,1,1736.0,0
800,800,-0.2704785135165235,-0.3,0.0,1.0,319.0,813.0,1.0,0,-1112.0,1
801,801,-0.497897199652204,-0.5,0.0,1.0,440.0,901.0,0.0,1,1659.0,0
802,802,0.14165505125821587,0.1,0.0,0.0,365.0,870.0,0.0,1,1765.0,1
803,803,-0.3102967917757766,-0.3,0.0,1.0,286.0,809.0,0.0,1,1905.0,0
804,804,-0.54943132543887,-0.5,0.0,1.0,298.0,858.0,0.0,1,1844.0,0
805,805,0.7348886684532093,0.7,1.0,1.0,494.0,876.0,0.0,0,1630.0,0
806,806,0.706028068488152,0.7,1.0,1.0,320.0,933.0,0.0,0,1747.0,0
807,807,-0.19950110711555769,-0.2,1.0,0.0,367.0,659.0,0.0,0,1974.0,1
808,808,0.8817685082534733,0.9,1.0,1.0,293.0,556.0,0.0,0,2151.0,0
809,809,-0.2866071515562423,-0.3,0.0,1.0,420.0,859.0,0.0,1,1721.0,0
810,810,0.07691920749203984,0.1,1.0,1.0,460.0,673.0,0.0,0,1867.0,0
811,811,-0.15823648621453912,-0.2,1.0,0.0,305.0,766.0,0.0,0,1929.0,1
812,812,0.8099449166226594,0.8,1.0,1.0,335.0,764.0,0.0,0,1901.0,0
813,813,0.04913131607984267,0.0,1.0,1.0,348.0,920.0,0.0,0,1732.0,0
814,814,0.4198264826168582,0.4,0.0,0.0,391.0,960.0,0.0,1,1649.0,1
815,815,0.6802351457145343,0.7,1.0,1.0,448.0,570.0,0.0,0,-968.0,0
816,816,0.4411153895061374,0.4,0.0,0.0,283.0,697.0,0.0,1,2020.0,1
817,817,-0.19499412623508827,-0.2,0.0,1.0,405.0,559.0,0.0,1,2036.0,0
818,818,-0.054116931812933644,-0.1,0.0,1.0,273.0,820.0,0.0,1,1907.0,0
819,819,-0.4434193744468778,-0.4,1.0,0.0,321.0,629.0,0.0,0,2050.0,1
820,820,0.5043577216395655,0.5,0.0,0.0,456.0,617.0,0.0,1,1927.0,1
821,821,0.767029867676236,0.8,0.0,0.0,282.0,772.0,0.0,1,1946.0,1
822,822,0.5137701319997702,0.5,0.0,0.0,374.0,820.0,0.0,1,1806.0,1
823,823,0.02746434487448468,0.0,0.0,0.0,268.0,921.0,0.0,1,1811.0,1
824,824,-0.6539050945097823,-0.7,1.0,0.0,335.0,829.0,0.0,0,1836.0,1
825,825,0.3676560696365848,0.4,1.0,1.0,491.0,888.0,0.0,0,1621.0,0
826,826,-0.6492487273111589,-0.6,0.0,1.0,332.0,829.0,0.0,1,1839.0,0
827,827,-0.600858364176374,-0.6,1.0,0.0,400.0,587.0,0.0,0,2013.0,1
828,828,0.4132223200194828,0.4,1.0,1.0,398.0,863.0,0.0,0,1739.0,0
829,829,-0.48159648606019884,-0.5,0.0,1.0,391.0,877.0,0.0,1,1732.0,0
830,830,-0.6588280714233944,-0.7,0.0,1.0,356.0,740.0,1.0,0,-916.0,1
831,831,-0.6404270348302055,-0.6,1.0,0.0,363.0,633.0,0.0,0,-916.0,1
832,832,-0.031824840023431666,-0.0,1.0,0.0,349.0,964.0,0.0,0,1687.0,1
833,833,0.5856269658517191,0.6,1.0,1.0,356.0,841.0,0.0,0,1803.0,0
834,834,-0.002471672419178783,-0.0,1.0,0.0,377.0,849.0,0.0,0,1774.0,1
835,835,0.29296309977964496,0.3,0.0,0.0,428.0,882.0,0.0,1,1690.0,1
836,836,0.0506822995522781,0.1,1.0,1.0,398.0,667.0,0.0,0,1935.0,0
837,837,-0.6675902700601165,-0.7,0.0,1.0,266.0,776.0,0.0,1,1958.0,0
838,838,0.46203283243750304,0.5,0.0,0.0,345.0,659.0,0.0,1,1996.0,1
839,839,0.6597493848100188,0.7,0.0,0.0,260.0,807.0,0.0,1,1933.0,1
840,840,-0.7858656481260343,-0.8,0.0,1.0,277.0,544.0,0.0,1,2179.0,0
841,841,-0.003356814961456678,-0.0,1.0,0.0,371.0,538.0,0.0,0,2091.0,1
842,842,0.49640914454718843,0.5,1.0,1.0,330.0,829.0,0.0,0,1841.0,0
843,843,0.8411314117978229,0.8,1.0,1.0,438.0,972.0,0.0,0,1590.0,0
844,844,-0.46350300979963005,-0.5,1.0,0.0,376.0,666.0,0.0,0,1958.0,1
845,845,0.4704135138103859,0.5,1.0,1.0,348.0,936.0,0.0,0,1716.0,0
846,846,0.5493730780206151,0.5,0.0,0.0,292.0,890.0,0.0,1,1818.0,1
847,847,0.8042997790713503,0.8,0.0,0.0,312.0,846.0,0.0,1,1842.0,1
848,848,0.503238939244732,0.5,0.0,0.0,333.0,827.0,0.0,1,1840.0,1
849,849,0.5081034758007582,0.5,0.0,0.0,458.0,738.0,0.0,1,1804.0,1
850,850,0.13389967310535889,0.1,1.0,1.0,377.0,941.0,0.0,0,1682.0,0
851,851,0.02981240343882141,0.0,1.0,1.0,375.0,673.0,0.0,0,1952.0,0
852,852,-0.054403637978672204,-0.1,0.0,1.0,294.0,577.0,0.0,1,2129.0,0
853,853,-0.6442933958960316,-0.6,0.0,1.0,262.0,791.0,0.0,1,1947.0,0
854,854,-0.32551884285476207,-0.3,0.0,1.0,269.0,825.0,0.0,1,1906.0,0
855,855,0.1973254236599461,0.2,1.0,1.0,397.0,593.0,0.0,0,2010.0,0
856,856,-0.49006692169010196,-0.5,0.0,1.0,407.0,982.0,0.0,1,1611.0,0
857,857,0.5411331798440117,0.5,1.0,1.0,441.0,584.0,0.0,0,1975.0,0
858,858,0.398106283498486,0.4,1.0,1.0,260.0,797.0,0.0,0,1943.0,0
859,859,-0.8839454345502313,-0.9,0.0,1.0,261.0,685.0,0.0,1,2054.0,0
860,860,0.1724461598851167,0.2,0.0,0.0,285.0,886.0,0.0,1,1829.0,1
861,861,-0.8462322501856211,-0.8,1.0,0.0,453.0,518.0,0.0,0,2029.0,1
862,862,-0.000917644638025128,-0.0,0.0,1.0,362.0,975.0,0.0,1,1663.0,0
863,863,-0.5485858630080948,-0.5,1.0,0.0,259.0,587.0,0.0,0,2154.0,1
864,864,-0.04700612304239471,-0.0,0.0,1.0,326.0,864.0,0.0,1,1810.0,0
865,865,-0.6180469168446376,-0.6,1.0,0.0,289.0,562.0,0.0,0,-841.0,1
866,866,0.25762774289594803,0.3,0.0,0.0,388.0,548.0,0.0,1,2064.0,1
867,867,0.502083833900748,0.5,1.0,1.0,410.0,756.0,0.0,0,1834.0,0
868,868,-0.018543691995822398,-0.0,1.0,0.0,288.0,983.0,0.0,0,1729.0,1
869,869,0.80950704516095,0.8,1.0,1.0,424.0,872.0,0.0,0,1704.0,0
870,870,-0.3022132171678973,-0.3,0.0,1.0,458.0,511.0,0.0,1,2031.0,0
871,871,-0.13261355070337377,-0.1,0.0,1.0,480.0,736.0,0.0,1,1784.0,0
872,872,-0.2510516751635946,-0.3,1.0,0.0,294.0,734.0,0.0,0,1972.0,1
873,873,-0.4441974453829557,-0.4,0.0,1.0,297.0,802.0,0.0,1,1901.0,0
874,874,0.8285351646057914,0.8,0.0,0.0,400.0,552.0,0.0,1,2048.0,1
875,875,-0.06851479492593648,-0.1,1.0,0.0,465.0,736.0,0.0,0,-1161.0,1
876,876,0.8272307801152453,0.8,1.0,1.0,472.0,534.0,0.0,0,1994.0,0
877,877,-0.8720312727150582,-0.9,0.0,1.0,310.0,881.0,0.0,1,1809.0,0
878,878,-0.6989233377427306,-0.7,0.0,1.0,256.0,881.0,0.0,1,1863.0,0
879,879,0.8464793623566774,0.8,1.0,1.0,477.0,604.0,0.0,0,1919.0,0
880,880,0.23168652871880868,0.2,1.0,1.0,429.0,868.0,0.0,0,1703.0,0
881,881,-0.30985231454696804,-0.3,0.0,1.0,357.0,522.0,0.0,1,2121.0,0
882,882,-0.23535173404223186,-0.2,1.0,0.0,308.0,533.0,0.0,0,2159.0,1
883,883,0.4625638654705594,0.5,0.0,0.0,456.0,690.0,0.0,1,1854.0,1
884,884,-0.7566367703695345,-0.8,1.0,0.0,392.0,728.0,0.0,0,1880.0,1
885,885,0.06464129624510084,0.1,1.0,1.0,411.0,862.0,0.0,0,1727.0,0
886,886,0.7019236969254189,0.7,0.0,0.0,396.0,836.0,0.0,1,1768.0,1
887,887,0.16899609095010415,0.2,1.0,1.0,300.0,580.0,0.0,0,2120.0,0
888,888,-0.5652216871601224,-0.6,1.0,0.0,326.0,873.0,0.0,0,1801.0,1
889,889,-0.3343413820686971,-0.3,1.0,0.0,383.0,937.0,0.0,0,1680.0,1
890,890,0.4172185349151082,0.4,1.0,1.0,346.0,781.0,0.0,0,1873.0,0
891,891,-0.4032457083219568,-0.4,1.0,0.0,305.0,765.0,0.0,0,1930.0,1
892,892,0.10848970297377847,0.1,0.0,0.0,289.0,925.0,0.0,1,1786.0,1
893,893,0.1513144183600289,0.2,1.0,1.0,365.0,560.0,0.0,0,2075.0,0
894,894,-0.37371795312635114,-0.4,1.0,0.0,444.0,723.0,0.0,0,1833.0,1
895,895,0.42120462152702165,0.4,1.0,1.0,401.0,631.0,0.0,0,1968.0,0
896,896,-0.04239810179740966,-0.0,1.0,0.0,485.0,860.0,0.0,0,1655.0,1
897,897,0.6769124570651824,0.7,0.0,0.0,375.0,646.0,0.0,1,1979.0,1
898,898,-0.11144524677975609,-0.1,0.0,1.0,445.0,835.0,0.0,1,1720.0,0
899,899,-0.6538919601119246,-0.7,0.0,1.0,257.0,960.0,0.0,1,1783.0,0
900,900,0.47258932731689296,0.5,1.0,1.0,460.0,701.0,0.0,0,1839.0,0
901,901,0.3789697932527939,0.4,1.0,1.0,329.0,752.0,0.0,0,1919.0,0
902,902,-0.02164374011580117,-0.0,0.0,1.0,377.0,836.0,0.0,1,1787.0,0
903,903,0.7985208945082171,0.8,1.0,1.0,329.0,585.0,0.0,0,2086.0,0
904,904,-0.7779018043853451,-0.8,1.0,0.0,326.0,512.0,0.0,0,2162.0,1
905,905,-0.4686177152738332,-0.5,1.0,0.0,327.0,759.0,0.0,0,1914.0,1
906,906,0.4235981215285708,0.4,1.0,1.0,425.0,582.0,0.0,0,1993.0,0
907,907,0.4812947984026713,0.5,1.0,1.0,349.0,704.0,0.0,0,1947.0,0
908,908,0.16246080692973408,0.2,0.0,0.0,394.0,589.0,0.0,1,2017.0,1
909,909,-0.09670315442910038,-0.1,0.0,1.0,478.0,651.0,0.0,1,1871.0,0
910,910,0.4757796901803356,0.5,1.0,1.0,483.0,592.0,0.0,0,-1065.0,0
911,911,-0.21630337280840473,-0.2,1.0,0.0,363.0,534.0,0.0,0,2103.0,1
912,912,-0.29896681182483875,-0.3,1.0,0.0,397.0,656.0,0.0,0,1947.0,1
913,913,-0.8668763029853302,-0.9,0.0,1.0,368.0,963.0,0.0,1,-1261.0,0
914,914,0.5156543393062206,0.5,1.0,1.0,468.0,737.0,0.0,0,1795.0,0
915,915,-0.7821239507547135,-0.8,1.0,0.0,399.0,867.0,0.0,0,1734.0,1
916,916,0.6172358136989214,0.6,0.0,0.0,474.0,600.0,0.0,1,1926.0,1
917,917,-0.21381959609305878,-0.2,0.0,1.0,353.0,817.0,0.0,1,1830.0,0
918,918,-0.6892133099055112,-0.7,1.0,0.0,300.0,885.0,0.0,0,1815.0,1
919,919,-0.240632377744186,-0.2,0.0,1.0,332.0,758.0,0.0,1,1910.0,0
920,920,-0.1636782918936316,-0.2,1.0,0.0,353.0,948.0,1.0,1,-1191.0,0
921,921,-0.8966033663166797,-0.9,0.0,1.0,267.0,542.0,0.0,1,2191.0,0
922,922,-0.25193463227912505,-0.3,1.0,0.0,263.0,914.0,0.0,0,1823.0,1
923,923,0.3472724407736748,0.3,0.0,0.0,301.0,940.0,0.0,1,1759.0,1
924,924,-0.028808584799051906,-0.0,1.0,0.0,422.0,894.0,0.0,0,1684.0,1
925,925,0.7746818177106028,0.8,1.0,1.0,311.0,649.0,0.0,0,2040.0,0
926,926,-0.027217936113548724,-0.0,1.0,0.0,467.0,554.0,0.0,0,1979.0,1
927,927,-0.297882704653485,-0.3,1.0,0.0,354.0,802.0,0.0,0,1844.0,1
928,928,0.604382463028274,0.6,1.0,1.0,314.0,529.0,0.0,0,2157.0,0
929,929,0.40210697070613277,0.4,1.0,1.0,468.0,789.0,0.0,0,1743.0,0
930,930,0.01653864526861637,0.0,0.0,0.0,453.0,762.0,0.0,1,1785.0,1
931,931,0.6806986237650655,0.7,0.0,0.0,393.0,640.0,0.0,1,-953.0,1
932,932,0.504079740675759,0.5,0.0,0.0,340.0,915.0,0.0,1,1745.0,1
933,933,-0.6500296661554894,-0.7,1.0,0.0,489.0,605.0,0.0,0,1906.0,1
934,934,-0.24498688806891444,-0.2,0.0,1.0,323.0,563.0,0.0,1,2114.0,0
935,935,-0.7676625897749936,-0.8,0.0,1.0,402.0,669.0,0.0,1,1929.0,0
936,936,-0.04934754909120287,-0.0,1.0,0.0,411.0,511.0,0.0,0,2078.0,1
937,937,-0.12088871306861737,-0.1,1.0,0.0,378.0,633.0,0.0,0,1989.0,1
938,938,-0.37083292495922293,-0.4,0.0,1.0,280.0,864.0,0.0,1,1856.0,0
939,939,-0.7509549639022071,-0.8,1.0,0.0,352.0,583.0,0.0,0,2065.0,1
940,940,0.8131333964999604,0.8,0.0,0.0,419.0,522.0,0.0,1,2059.0,1
941,941,0.6463303319169168,0.6,0.0,0.0,293.0,935.0,0.0,1,1772.0,1
942,942,-0.19759883772633147,-0.2,1.0,0.0,433.0,539.0,0.0,0,2028.0,1
943,943,0.6812449292948356,0.7,0.0,0.0,301.0,732.0,0.0,1,1967.0,1
944,944,-0.5729187855923656,-0.6,0.0,1.0,493.0,993.0,0.0,1,1514.0,0
945,945,0.30548494967262585,0.3,0.0,0.0,287.0,641.0,0.0,1,2072.0,1
946,946,0.3556121640477753,0.4,0.0,0.0,386.0,836.0,0.0,1,1778.0,1
947,947,-0.5034169548613866,-0.5,1.0,0.0,280.0,543.0,1.0,1,-783.0,0
948,948,0.49733455146553396,0.5,0.0,0.0,294.0,739.0,0.0,1,1967.0,1
949,949,0.16844731942925406,0.2,0.0,0.0,332.0,549.0,0.0,1,2119.0,1
950,950,0.22998287333207668,0.2,0.0,0.0,288.0,580.0,0.0,1,2132.0,1
951,951,0.0018994360004721544,0.0,1.0,1.0,423.0,740.0,0.0,0,1837.0,0
952,952,-0.639855956475539,-0.6,0.0,1.0,341.0,712.0,0.0,1,1947.0,0
953,953,-0.739054526975763,-0.7,0.0,1.0,348.0,705.0,0.0,1,-1023.0,0
954,954,0.11209778642795742,0.1,1.0,1.0,388.0,663.0,0.0,0,1949.0,0
955,955,-0.47407899265605263,-0.5,1.0,0.0,482.0,534.0,0.0,0,1984.0,1
956,956,-0.6034048403460833,-0.6,1.0,0.0,391.0,930.0,0.0,0,1679.0,1
957,957,-0.21088891984162117,-0.2,0.0,1.0,384.0,629.0,0.0,1,1987.0,0
958,958,-0.8798248852197279,-0.9,0.0,1.0,475.0,627.0,0.0,1,1898.0,0
959,959,0.14287163709182493,0.1,0.0,0.0,397.0,793.0,0.0,1,1810.0,1
960,960,0.052842657253215464,0.1,0.0,0.0,416.0,638.0,0.0,1,1946.0,1
961,961,-0.17297401411024604,-0.2,1.0,0.0,469.0,668.0,0.0,0,1863.0,1
962,962,-0.08345510906753295,-0.1,1.0,0.0,336.0,849.0,0.0,0,1815.0,1
963,963,0.10416353815705237,0.1,1.0,1.0,373.0,712.0,0.0,0,1915.0,0
964,964,-0.812812144748147,-0.8,0.0,1.0,307.0,711.0,0.0,1,1982.0,0
965,965,-0.45981619443540056,-0.5,1.0,0.0,296.0,847.0,0.0,0,1857.0,1
966,966,-0.5494768971937822,-0.5,1.0,0.0,385.0,830.0,0.0,0,1785.0,1
967,967,-0.0497514268790723,-0.0,1.0,0.0,374.0,827.0,0.0,0,1799.0,1
968,968,-0.061191044846359066,-0.1,1.0,0.0,354.0,871.0,0.0,0,1775.0,1
969,969,0.2288157256626805,0.2,1.0,1.0,473.0,563.0,0.0,0,1964.0,0
970,970,-0.012124115491145782,-0.0,1.0,0.0,434.0,670.0,0.0,0,1896.0,1
971,971,0.009788023395118195,0.0,0.0,0.0,466.0,873.0,0.0,1,1661.0,1
972,972,0.24330494817517956,0.2,1.0,1.0,292.0,947.0,0.0,0,1761.0,0
973,973,0.34077691857281456,0.3,0.0,0.0,409.0,694.0,0.0,1,1897.0,1
974,974,0.3851167518178745,0.4,1.0,1.0,486.0,838.0,0.0,0,1676.0,0
975,975,0.4760218170511824,0.5,0.0,0.0,360.0,886.0,0.0,1,1754.0,1
976,976,0.057345993470788614,0.1,1.0,1.0,476.0,589.0,0.0,0,-1015.0,0
977,977,-0.7655393631119656,-0.8,0.0,1.0,385.0,957.0,0.0,1,1658.0,0
978,978,-0.5225813098275665,-0.5,1.0,0.0,445.0,771.0,0.0,0,1784.0,1
979,979,-0.13878577315448193,-0.1,1.0,0.0,338.0,598.0,0.0,0,2064.0,1
980,980,0.8168587208197481,0.8,1.0,1.0,302.0,640.0,0.0,0,2058.0,0
981,981,-0.46225859699520305,-0.5,1.0,0.0,294.0,861.0,0.0,0,1845.0,1
982,982,0.13631956714734283,0.1,0.0,0.0,260.0,508.0,0.0,1,2232.0,1
983,983,0.5704585112909183,0.6,0.0,0.0,300.0,640.0,0.0,1,2060.0,1
984,984,0.19076050280790058,0.2,0.0,0.0,312.0,578.0,0.0,1,2110.0,1
985,985,-0.5958611914831379,-0.6,1.0,0.0,340.0,586.0,0.0,0,2074.0,1
986,986,-0.8466626184720609,-0.8,0.0,1.0,407.0,873.0,0.0,1,1720.0,0
987,987,0.30934360907418823,0.3,0.0,0.0,337.0,518.0,0.0,1,2145.0,1
988,988,-0.412620790687274,-0.4,1.0,0.0,275.0,830.0,0.0,0,1895.0,1
989,989,-0.8368288145654641,-0.8,0.0,1.0,325.0,763.0,0.0,1,1912.0,0
990,990,-0.09416025970733355,-0.1,1.0,0.0,443.0,891.0,0.0,0,1666.0,1
991,991,-0.8386167873293233,-0.8,0.0,1.0,337.0,556.0,1.0,0,-763.0,1
992,992,0.21303215065593795,0.2,1.0,1.0,278.0,903.0,0.0,0,1819.0,0
993,993,0.06266755892018916,0.1,0.0,0.0,469.0,670.0,0.0,1,1861.0,1
994,994,-0.27550375132713223,-0.3,0.0,1.0,435.0,736.0,0.0,1,1829.0,0
995,995,-0.14855584692565482,-0.1,1.0,0.0,296.0,830.0,0.0,0,1874.0,1
996,996,0.34293135373354133,0.3,1.0,1.0,398.0,770.0,0.0,0,1832.0,0
997,997,0.7914005187558352,0.8,0.0,0.0,311.0,553.0,0.0,1,2136.0,1
998,998,-0.09416742488923735,-0.1,0.0,1.0,370.0,974.0,0.0,1,-1334.0,0
999,999,-0.29699826794768014,-0.3,0.0,1.0,394.0,725.0,0.0,1,1881.0,0
1000,1000,0.2649263634890805,0.3,1.0,1.0,348.0,884.0,0.0,0,1768.0,0
1001,1001,0.07998654590449106,0.1,1.0,1.0,351.0,735.0,0.0,0,1914.0,0
1002,1002,0.5801313431689888,0.6,1.0,1.0,473.0,793.0,0.0,0,1734.0,0
1003,1003,0.8561112036936268,0.9,0.0,0.0,440.0,663.0,0.0,1,1897.0,1
1004,1004,0.2744042357089488,0.3,1.0,1.0,410.0,904.0,0.0,0,1686.0,0
1005,1005,-0.4242732880381888,-0.4,0.0,1.0,366.0,790.0,0.0,1,1844.0,0
1006,1006,-0.10416983556283532,-0.1,1.0,0.0,475.0,637.0,0.0,0,1888.0,1
1007,1007,0.8793360727238123,0.9,1.0,1.0,268.0,900.0,0.0,0,1832.0,0
1008,1008,0.12982478962135768,0.1,0.0,0.0,452.0,866.0,0.0,1,1682.0,1
1009,1009,0.08397057386801965,0.1,1.0,1.0,410.0,877.0,0.0,0,1713.0,0
1010,1010,-0.8486801006654118,-0.8,0.0,1.0,494.0,504.0,0.0,1,2002.0,0
1011,1011,-0.2714382644741411,-0.3,1.0,0.0,490.0,551.0,0.0,0,1959.0,1
1012,1012,0.28941570367021663,0.3,0.0,0.0,252.0,762.0,0.0,1,1986.0,1
1013,1013,0.27830099312294687,0.3,1.0,1.0,388.0,553.0,0.0,0,-851.0,0
1014,1014,-0.3245604395976548,-0.3,0.0,1.0,412.0,948.0,0.0,1,1640.0,0
1015,1015,-0.6082241899912975,-0.6,1.0,0.0,287.0,957.0,0.0,0,1756.0,1
1016,1016,-0.5325906156715057,-0.5,1.0,0.0,411.0,580.0,0.0,0,2009.0,1
1017,1017,-0.4390530223470185,-0.4,0.0,1.0,479.0,842.0,0.0,1,1679.0,0
1018,1018,0.6321759967242356,0.6,0.0,0.0,377.0,947.0,0.0,1,1676.0,1
1019,1019,0.606596394473974,0.6,1.0,1.0,439.0,786.0,0.0,0,1775.0,0
1020,1020,-0.20738779834443566,-0.2,0.0,1.0,373.0,771.0,0.0,1,1856.0,0
1021,1021,-0.007011459047601254,-0.0,1.0,0.0,348.0,570.0,0.0,0,2082.0,1
1022,1022,0.1369951795795864,0.1,0.0,0.0,254.0,615.0,0.0,1,2131.0,1
1023,1023,-0.8130332051001895,-0.8,0.0,1.0,412.0,889.0,0.0,1,1699.0,0
1024,1024,-0.4557823767782415,-0.5,1.0,0.0,333.0,786.0,0.0,0,1881.0,1
1025,1025,-0.09253684160399822,-0.1,0.0,1.0,356.0,902.0,0.0,1,1742.0,0
1026,1026,0.7787359591766166,0.8,1.0,1.0,340.0,798.0,0.0,0,1862.0,0
1027,1027,0.31057335209540293,0.3,0.0,0.0,461.0,577.0,0.0,1,1962.0,1
1028,1028,0.32627116493182984,0.3,1.0,1.0,474.0,921.0,0.0,0,1605.0,0
1029,1029,-0.5870067745902321,-0.6,1.0,0.0,267.0,640.0,0.0,0,-827.0,1
1030,1030,-0.566082640539159,-0.6,0.0,1.0,376.0,963.0,0.0,1,1661.0,0
1031,1031,-0.4577473861925711,-0.5,1.0,0.0,274.0,658.0,0.0,0,2068.0,1
1032,1032,-0.03198300479914362,-0.0,1.0,0.0,325.0,710.0,0.0,0,1965.0,1
1033,1033,-0.212161755362952,-0.2,0.0,1.0,389.0,759.0,0.0,1,-1038.0,0
1034,1034,-0.7026770525844465,-0.7,1.0,0.0,447.0,508.0,0.0,0,2045.0,1
1035,1035,-0.26572401860283246,-0.3,1.0,0.0,434.0,661.0,0.0,0,1905.0,1
1036,1036,0.6046806113305262,0.6,0.0,0.0,417.0,725.0,0.0,1,1858.0,1
1037,1037,-0.8326300175701854,-0.8,0.0,1.0,470.0,708.0,0.0,1,1822.0,0
1038,1038,0.6033132188425588,0.6,0.0,0.0,350.0,559.0,0.0,1,2091.0,1
1039,1039,0.5992927577007653,0.6,0.0,0.0,460.0,783.0,0.0,1,1757.0,1
1040,1040,0.29775899391680094,0.3,1.0,1.0,288.0,877.0,0.0,0,1835.0,0
1041,1041,-0.16940152108633055,-0.2,1.0,0.0,304.0,704.0,0.0,0,1992.0,1
1042,1042,0.1631550591199903,0.2,0.0,0.0,393.0,953.0,0.0,1,1654.0,1
1043,1043,0.37571836206202935,0.4,1.0,1.0,362.0,687.0,0.0,0,1951.0,0
1044,1044,-0.7220111706087232,-0.7,1.0,0.0,463.0,527.0,0.0,0,2010.0,1
1045,1045,-0.7491103039397953,-0.7,0.0,1.0,275.0,814.0,0.0,1,1911.0,0
1046,1046,0.8726716917269558,0.9,1.0,1.0,278.0,915.0,0.0,0,1807.0,0
1047,1047,0.7728887985896143,0.8,0.0,0.0,424.0,786.0,0.0,1,1790.0,1
1048,1048,0.050056582332551613,0.1,0.0,0.0,318.0,730.0,0.0,1,1952.0,1
1049,1049,0.7417521499740686,0.7,0.0,0.0,291.0,789.0,0.0,1,1920.0,1
1050,1050,-0.23482051679781313,-0.2,1.0,0.0,363.0,962.0,0.0,0,1675.0,1
1051,1051,0.39017312149151995,0.4,0.0,0.0,390.0,695.0,0.0,1,1915.0,1
1052,1052,-0.35808877758149216,-0.4,0.0,1.0,379.0,858.0,0.0,1,1763.0,0
1053,1053,-0.23471154577635833,-0.2,1.0,0.0,494.0,735.0,0.0,0,1771.0,1
1054,1054,0.6506053792529801,0.7,1.0,1.0,383.0,711.0,0.0,0,1906.0,0
1055,1055,0.25263069064228205,0.3,0.0,0.0,440.0,531.0,0.0,1,2029.0,1
1056,1056,-0.21575107019377737,-0.2,0.0,1.0,494.0,923.0,0.0,1,1583.0,0
1057,1057,0.35572110922013633,0.4,1.0,1.0,322.0,982.0,0.0,0,1696.0,0
1058,1058,-0.694824608025469,-0.7,0.0,1.0,422.0,612.0,0.0,1,1966.0,0
1059,1059,0.7679178357570321,0.8,0.0,0.0,478.0,619.0,0.0,1,1903.0,1
1060,1060,-0.4402030784315744,-0.4,1.0,0.0,278.0,686.0,0.0,0,2036.0,1
1061,1061,-0.16767492205420909,-0.2,1.0,0.0,461.0,699.0,0.0,0,1840.0,1
1062,1062,0.06950883033254462,0.1,1.0,1.0,446.0,859.0,0.0,0,-1235.0,0
1063,1063,-0.839087570680895,-0.8,0.0,1.0,323.0,742.0,0.0,1,1935.0,0
1064,1064,-0.8424329156592432,-0.8,1.0,0.0,442.0,974.0,0.0,0,1584.0,1
1065,1065,0.6962537797782934,0.7,0.0,0.0,331.0,851.0,0.0,1,1818.0,1
1066,1066,-0.6533840581060917,-0.7,0.0,1.0,473.0,509.0,0.0,1,2018.0,0
1067,1067,-0.46548184565501455,-0.5,1.0,0.0,354.0,673.0,0.0,0,1973.0,1
1068,1068,-0.07084385676601856,-0.1,1.0,0.0,279.0,779.0,0.0,0,-908.0,1
1069,1069,-0.7214268972445259,-0.7,0.0,1.0,433.0,988.0,0.0,1,1579.0,0
1070,1070,0.5029934742432643,0.5,0.0,0.0,302.0,831.0,0.0,1,-1023.0,1
1071,1071,0.8143998174551984,0.8,0.0,0.0,367.0,823.0,0.0,1,1810.0,1
1072,1072,-0.11834651905333626,-0.1,1.0,0.0,412.0,973.0,0.0,0,1615.0,1
1073,1073,0.5383022042269702,0.5,1.0,1.0,349.0,559.0,0.0,0,2092.0,0
1074,1074,-0.6368628334173483,-0.6,1.0,0.0,479.0,775.0,0.0,0,1746.0,1
1075,1075,-0.5879754875503065,-0.6,1.0,0.0,264.0,941.0,0.0,0,1795.0,1
1076,1076,-0.11911872562655368,-0.1,0.0,1.0,356.0,718.0,0.0,1,1926.0,0
1077,1077,0.7833591832675625,0.8,1.0,1.0,403.0,993.0,0.0,0,1604.0,0
1078,1078,0.6557387431277505,0.7,0.0,0.0,375.0,598.0,0.0,1,2027.0,1
1079,1079,-0.7670330416279493,-0.8,0.0,1.0,317.0,530.0,0.0,1,2153.0,0
1080,1080,0.24065033694730686,0.2,0.0,0.0,344.0,558.0,0.0,1,2098.0,1
1081,1081,0.44138321668012137,0.4,1.0,1.0,281.0,794.0,0.0,0,1925.0,0
1082,1082,-0.2346966871851459,-0.2,0.0,1.0,298.0,653.0,0.0,1,2049.0,0
1083,1083,-0.5791103053065112,-0.6,1.0,0.0,293.0,735.0,0.0,0,1972.0,1
1084,1084,-0.4556234158497575,-0.5,0.0,1.0,382.0,633.0,0.0,1,1985.0,0
1085,1085,-0.6618582981757947,-0.7,0.0,1.0,369.0,566.0,0.0,1,2065.0,0
1086,1086,-0.5309226555077728,-0.5,1.0,0.0,482.0,897.0,0.0,0,1621.0,1
1087,1087,-0.06669693711416658,-0.1,0.0,1.0,269.0,553.0,0.0,1,2178.0,0
1088,1088,-0.4286216611718573,-0.4,0.0,1.0,488.0,803.0,0.0,1,1709.0,0
1089,1089,-0.5249896031889782,-0.5,1.0,0.0,421.0,871.0,0.0,0,1708.0,1
1090,1090,-0.5313950714601061,-0.5,1.0,0.0,277.0,832.0,0.0,0,1891.0,1
1091,1091,-0.24236317268824192,-0.2,1.0,0.0,354.0,930.0,0.0,0,1716.0,1
1092,1092,-0.32934063138606273,-0.3,1.0,0.0,461.0,597.0,0.0,0,1942.0,1
1093,1093,-0.7968530857762091,-0.8,1.0,0.0,274.0,600.0,0.0,0,2126.0,1
1094,1094,-0.10373231081926182,-0.1,0.0,1.0,478.0,801.0,0.0,1,1721.0,0
1095,1095,0.10535424649299807,0.1,0.0,0.0,418.0,794.0,0.0,1,1788.0,1
1096,1096,-0.03949745812915395,-0.0,1.0,0.0,336.0,633.0,0.0,0,2031.0,1
1097,1097,-0.745949149569462,-0.7,0.0,1.0,387.0,897.0,0.0,1,1716.0,0
1098,1098,-0.45550666855686156,-0.5,0.0,1.0,482.0,915.0,0.0,1,1603.0,0
1099,1099,0.5151864508596317,0.5,1.0,1.0,485.0,996.0,0.0,0,1519.0,0
1100,1100,-0.12895357314564937,-0.1,1.0,0.0,410.0,845.0,0.0,0,1745.0,1
1101,1101,-0.8003561286487993,-0.8,0.0,1.0,254.0,703.0,0.0,1,2043.0,0
1102,1102,0.3904750422498776,0.4,1.0,1.0,284.0,909.0,0.0,0,1807.0,0
1103,1103,-0.668950749766296,-0.7,1.0,0.0,276.0,573.0,0.0,0,2151.0,1
1104,1104,0.890518642617078,0.9,1.0,1.0,403.0,896.0,0.0,0,1701.0,0
1105,1105,-0.1382331165664068,-0.1,1.0,0.0,479.0,974.0,0.0,0,1547.0,1
1106,1106,0.649133518457175,0.6,1.0,1.0,277.0,887.0,0.0,0,1836.0,0
1107,1107,-0.7964748163789839,-0.8,1.0,0.0,462.0,843.0,0.0,0,1695.0,1
1108,1108,0.0036515184192967842,0.0,0.0,0.0,364.0,625.0,0.0,1,2011.0,1
1109,1109,-0.2827488962479011,-0.3,1.0,0.0,281.0,871.0,0.0,0,1848.0,1
1110,1110,0.11632470438437881,0.1,0.0,0.0,294.0,554.0,0.0,1,2152.0,1
1111,1111,-0.872635634000668,-0.9,0.0,1.0,331.0,742.0,0.0,1,1927.0,0
1112,1112,0.4791949117067119,0.5,0.0,0.0,319.0,631.0,0.0,1,2050.0,1
1113,1113,-0.5507009723861612,-0.6,1.0,0.0,310.0,911.0,0.0,0,1779.0,1
1114,1114,-0.5179294732502375,-0.5,0.0,1.0,466.0,852.0,0.0,1,1682.0,0
1115,1115,0.7503729632431059,0.8,1.0,1.0,413.0,548.0,0.0,0,2039.0,0
1116,1116,-0.49319296432197185,-0.5,1.0,0.0,327.0,591.0,0.0,0,2082.0,1
1117,1117,0.6528673146351228,0.7,1.0,1.0,471.0,814.0,0.0,0,1715.0,0
1118,1118,0.5069853640615795,0.5,1.0,1.0,386.0,742.0,0.0,0,1872.0,0
1119,1119,0.8695751387396421,0.9,1.0,1.0,467.0,761.0,0.0,0,1772.0,0
1120,1120,-0.1929633027711073,-0.2,1.0,0.0,481.0,732.0,0.0,0,1787.0,1
1121,1121,-0.6603026847738025,-0.7,1.0,0.0,297.0,921.0,0.0,0,1782.0,1
1122,1122,-0.13419071833770035,-0.1,0.0,1.0,440.0,837.0,0.0,1,1723.0,0
1123,1123,0.1573999814410808,0.2,0.0,0.0,281.0,976.0,0.0,1,-1177.0,1
1124,1124,0.7409805978264649,0.7,0.0,0.0,415.0,793.0,0.0,1,1792.0,1
1125,1125,0.837334378791634,0.8,0.0,0.0,404.0,603.0,0.0,1,1993.0,1
1126,1126,0.6363916317761235,0.6,0.0,0.0,272.0,768.0,0.0,1,1960.0,1
1127,1127,0.761203727931994,0.8,1.0,1.0,454.0,623.0,0.0,0,1923.0,0
1128,1128,0.7577927449356426,0.8,1.0,1.0,424.0,806.0,0.0,0,1770.0,0
1129,1129,-0.3098599189161494,-0.3,0.0,1.0,332.0,677.0,0.0,1,1991.0,0
1130,1130,-0.5990193673280495,-0.6,0.0,1.0,329.0,959.0,0.0,1,1712.0,0
1131,1131,0.36883373996268654,0.4,1.0,1.0,428.0,893.0,0.0,0,1679.0,0
1132,1132,-0.5952935575045352,-0.6,1.0,0.0,409.0,559.0,0.0,0,2032.0,1
1133,1133,0.21956413161654253,0.2,0.0,0.0,482.0,533.0,0.0,1,1985.0,1
1134,1134,-0.7139443742229394,-0.7,1.0,0.0,420.0,817.0,0.0,0,1763.0,1
1135,1135,-0.7385099626565431,-0.7,1.0,0.0,291.0,635.0,0.0,0,2074.0,1
1136,1136,0.5254271774297296,0.5,1.0,1.0,458.0,847.0,0.0,0,1695.0,0
1137,1137,-0.5014349849499374,-0.5,0.0,1.0,446.0,528.0,0.0,1,2026.0,0
1138,1138,-0.7456744155709918,-0.7,1.0,0.0,285.0,847.0,0.0,0,1868.0,1
1139,1139,-0.21509904109887257,-0.2,0.0,1.0,373.0,628.0,0.0,1,1999.0,0
1140,1140,-0.05526841282266026,-0.1,0.0,1.0,343.0,972.0,0.0,1,1685.0,0
1141,1141,-0.13831265231004042,-0.1,1.0,0.0,375.0,551.0,0.0,0,2074.0,1
1142,1142,-0.6658374732629764,-0.7,1.0,0.0,483.0,841.0,0.0,0,1676.0,1
1143,1143,-0.7691787301730305,-0.8,0.0,1.0,471.0,846.0,0.0,1,1683.0,0
1144,1144,0.865559655974922,0.9,0.0,0.0,474.0,739.0,0.0,1,1787.0,1
1145,1145,0.4784589201661492,0.5,0.0,0.0,424.0,531.0,1.0,0,-935.0,0
1146,1146,-0.3966986201631416,-0.4,1.0,0.0,332.0,628.0,0.0,0,2040.0,1
1147,1147,0.09415953683330158,0.1,0.0,0.0,267.0,785.0,0.0,1,1948.0,1
1148,1148,0.6162880971615031,0.6,1.0,1.0,338.0,601.0,0.0,0,2061.0,0
1149,1149,0.3012165982865721,0.3,1.0,1.0,497.0,506.0,0.0,0,1997.0,0
1150,1150,-0.477504569902461,-0.5,1.0,0.0,441.0,920.0,0.0,0,1639.0,1
1151,1151,-0.2600740054093783,-0.3,1.0,0.0,411.0,711.0,0.0,0,1878.0,1
1152,1152,-0.5020226892985669,-0.5,1.0,0.0,304.0,763.0,0.0,0,1933.0,1
1153,1153,0.5389906090917823,0.5,1.0,1.0,386.0,591.0,0.0,0,2023.0,0
1154,1154,0.7347528724050113,0.7,0.0,0.0,466.0,941.0,0.0,1,1593.0,1
1155,1155,-0.018774467772067926,-0.0,0.0,1.0,307.0,705.0,0.0,1,1988.0,0
1156,1156,0.8299332327589756,0.8,1.0,1.0,466.0,552.0,0.0,0,1982.0,0
1157,1157,-0.7103376600097949,-0.7,1.0,0.0,253.0,665.0,0.0,0,-828.0,1
1158,1158,-0.2788580377989962,-0.3,1.0,0.0,304.0,873.0,0.0,0,1823.0,1
1159,1159,-0.6536439904720098,-0.7,1.0,0.0,441.0,937.0,0.0,0,1622.0,1
1160,1160,-0.8034626487779226,-0.8,1.0,0.0,474.0,943.0,0.0,0,1583.0,1
1161,1161,0.642860630423265,0.6,1.0,1.0,273.0,542.0,0.0,0,2185.0,0
1162,1162,-0.14805938108412697,-0.1,1.0,0.0,262.0,576.0,0.0,0,2162.0,1
1163,1163,-0.881036828868648,-0.9,0.0,1.0,319.0,980.0,0.0,1,1701.0,0
1164,1164,-0.8852360191061861,-0.9,1.0,0.0,432.0,777.0,0.0,0,1791.0,1
1165,1165,0.30435664549387187,0.3,0.0,0.0,455.0,568.0,0.0,1,1977.0,1
1166,1166,0.29611017603235135,0.3,1.0,1.0,345.0,595.0,0.0,0,2060.0,0
1167,1167,0.6959255428468704,0.7,0.0,0.0,356.0,863.0,0.0,1,1781.0,1
1168,1168,0.17043060213779182,0.2,1.0,1.0,451.0,610.0,0.0,0,1939.0,0
1169,1169,-0.12839378078716912,-0.1,1.0,0.0,250.0,785.0,0.0,0,1965.0,1
1170,1170,0.5921825616162758,0.6,1.0,1.0,452.0,869.0,0.0,0,1679.0,0
1171,1171,0.41703381696396613,0.4,1.0,1.0,472.0,845.0,0.0,0,1683.0,0
1172,1172,0.13609471904782156,0.1,0.0,0.0,338.0,992.0,0.0,1,1670.0,1
1173,1173,0.5168179401627847,0.5,1.0,1.0,350.0,630.0,0.0,0,2020.0,0
1174,1174,-0.2225762498971715,-0.2,1.0,0.0,250.0,758.0,0.0,0,1992.0,1
1175,1175,-0.7626430157737817,-0.8,0.0,1.0,404.0,662.0,0.0,1,1934.0,0
1176,1176,-0.08677701658319992,-0.1,1.0,0.0,426.0,797.0,0.0,0,1777.0,1
1177,1177,0.24672196273196667,0.2,0.0,0.0,491.0,930.0,0.0,1,1579.0,1
1178,1178,-0.07480770523973823,-0.1,1.0,0.0,410.0,666.0,0.0,0,1924.0,1
1179,1179,0.5742372653850728,0.6,1.0,1.0,480.0,719.0,0.0,0,1801.0,0
1180,1180,0.45959009390730554,0.5,0.0,0.0,372.0,834.0,0.0,1,1794.0,1
1181,1181,0.713531978723195,0.7,1.0,1.0,264.0,996.0,0.0,0,1740.0,0
1182,1182,-0.5515348800908033,-0.6,1.0,0.0,367.0,914.0,0.0,0,1719.0,1
1183,1183,-0.39807356146625705,-0.4,0.0,1.0,397.0,713.0,0.0,1,1890.0,0
1184,1184,0.36826246272461327,0.4,0.0,0.0,491.0,652.0,0.0,1,1857.0,1
1185,1185,0.8532454136823763,0.9,0.0,0.0,251.0,614.0,0.0,1,2135.0,1
1186,1186,0.13697510178203454,0.1,1.0,1.0,391.0,505.0,0.0,0,2104.0,0
1187,1187,0.4061256021860361,0.4,1.0,1.0,280.0,871.0,0.0,0,1849.0,0
1188,1188,0.05341875800337026,0.1,0.0,0.0,357.0,651.0,0.0,1,1992.0,1
1189,1189,0.17738949593081121,0.2,0.0,0.0,408.0,741.0,0.0,1,1851.0,1
1190,1190,-0.4476430114514068,-0.4,0.0,1.0,375.0,657.0,0.0,1,1968.0,0
1191,1191,-0.30078247839699523,-0.3,1.0,0.0,257.0,637.0,0.0,0,2106.0,1
1192,1192,0.37372026602450836,0.4,1.0,1.0,356.0,530.0,0.0,0,2114.0,0
1193,1193,-0.6072925222470833,-0.6,1.0,0.0,410.0,626.0,0.0,0,1964.0,1
1194,1194,0.02145241467352954,0.0,0.0,0.0,386.0,577.0,0.0,1,2037.0,1
1195,1195,0.8461248914456622,0.8,0.0,0.0,253.0,739.0,0.0,1,2008.0,1
1196,1196,0.23057556266786616,0.2,0.0,0.0,253.0,637.0,0.0,1,2110.0,1
1197,1197,0.36869108893786084,0.4,1.0,1.0,464.0,583.0,0.0,0,1953.0,0
1198,1198,-0.4292182707050008,-0.4,0.0,1.0,287.0,973.0,0.0,1,1740.0,0
1199,1199,-0.49254607189120014,-0.5,0.0,1.0,434.0,592.0,0.0,1,1974.0,0
1200,1200,0.713853519359886,0.7,0.0,0.0,273.0,974.0,0.0,1,1753.0,1
1201,1201,-0.17236466100966685,-0.2,1.0,0.0,421.0,761.0,0.0,0,1818.0,1
1202,1202,0.6519032144961466,0.7,1.0,1.0,484.0,971.0,0.0,0,1545.0,0
1203,1203,0.42987922436224746,0.4,1.0,1.0,461.0,955.0,0.0,0,1584.0,0
1204,1204,0.26651162850413856,0.3,0.0,0.0,434.0,722.0,0.0,1,1844.0,1
1205,1205,-0.8045087079927592,-0.8,1.0,0.0,299.0,952.0,0.0,0,1749.0,1
1206,1206,-0.1323936208752906,-0.1,0.0,1.0,365.0,681.0,0.0,1,1954.0,0
1207,1207,0.6414402504167608,0.6,1.0,1.0,357.0,724.0,0.0,0,1919.0,0
1208,1208,-0.8167172770854126,-0.8,0.0,1.0,252.0,544.0,0.0,1,2204.0,0
1209,1209,0.7777267662078616,0.8,0.0,0.0,377.0,734.0,0.0,1,1889.0,1
1210,1210,0.6608564775932199,0.7,1.0,1.0,326.0,773.0,0.0,0,1901.0,0
1211,1211,0.005908465470175539,0.0,1.0,1.0,286.0,920.0,0.0,0,1794.0,0
1212,1212,-0.8863936470446548,-0.9,0.0,1.0,482.0,571.0,0.0,1,1947.0,0
1213,1213,-0.8641646699213191,-0.9,1.0,0.0,476.0,507.0,0.0,0,2017.0,1
1214,1214,0.14420352661861047,0.1,0.0,0.0,471.0,595.0,0.0,1,1934.0,1
1215,1215,0.7415471605779388,0.7,0.0,0.0,467.0,972.0,0.0,1,1561.0,1
1216,1216,0.006324963594821376,0.0,0.0,0.0,471.0,828.0,0.0,1,1701.0,1
1217,1217,-0.11913722631692392,-0.1,0.0,1.0,433.0,553.0,0.0,1,2014.0,0
1218,1218,-0.5912951103793571,-0.6,1.0,0.0,338.0,960.0,0.0,0,1702.0,1
1219,1219,-0.04627880211959412,-0.0,0.0,1.0,498.0,586.0,0.0,1,1916.0,0
1220,1220,-0.1929825722602736,-0.2,0.0,1.0,433.0,736.0,0.0,1,1831.0,0
1221,1221,0.8068921656973457,0.8,1.0,1.0,356.0,578.0,0.0,0,2066.0,0
1222,1222,-0.10072026246452725,-0.1,1.0,0.0,458.0,657.0,0.0,0,1885.0,1
1223,1223,0.04396735525939932,0.0,1.0,1.0,279.0,697.0,0.0,0,2024.0,0
1224,1224,-0.7271719867578204,-0.7,0.0,1.0,448.0,811.0,0.0,1,1741.0,0
1225,1225,-0.20110272798522177,-0.2,0.0,1.0,419.0,846.0,0.0,1,1735.0,0
1226,1226,-0.7386821824378483,-0.7,0.0,1.0,272.0,989.0,0.0,1,1739.0,0
1227,1227,0.01011000254659944,0.0,1.0,1.0,459.0,944.0,0.0,0,1597.0,0
1228,1228,-0.2934799979451804,-0.3,1.0,0.0,276.0,532.0,0.0,0,2192.0,1
1229,1229,0.6332658290456622,0.6,0.0,0.0,313.0,649.0,0.0,1,2038.0,1
1230,1230,0.44386652047726416,0.4,1.0,1.0,479.0,737.0,0.0,0,1784.0,0
1231,1231,-0.67541837440068,-0.7,1.0,0.0,450.0,754.0,0.0,0,1796.0,1
1232,1232,-0.6178151674542771,-0.6,1.0,0.0,309.0,623.0,0.0,0,2068.0,1
1233,1233,0.8616843424164463,0.9,1.0,1.0,356.0,720.0,0.0,0,1924.0,0
1234,1234,0.00032410480163291844,0.0,0.0,0.0,401.0,505.0,0.0,1,2094.0,1
1235,1235,0.6415731784485291,0.6,1.0,1.0,484.0,745.0,0.0,0,1771.0,0
1236,1236,-0.7891136978539994,-0.8,0.0,1.0,376.0,706.0,0.0,1,1918.0,0
1237,1237,-0.7080205983840714,-0.7,1.0,0.0,320.0,542.0,0.0,0,2138.0,1
1238,1238,0.7774758694914362,0.8,0.0,0.0,383.0,532.0,0.0,1,2085.0,1
1239,1239,-0.594113256400919,-0.6,1.0,0.0,468.0,754.0,0.0,0,1778.0,1
1240,1240,0.21594869971280406,0.2,1.0,1.0,470.0,818.0,0.0,0,1712.0,0
1241,1241,-0.3048892043801624,-0.3,1.0,0.0,270.0,510.0,0.0,0,2220.0,1
1242,1242,0.26886743420505266,0.3,1.0,1.0,402.0,602.0,0.0,0,1996.0,0
1243,1243,0.35250035959303505,0.4,0.0,0.0,321.0,893.0,0.0,1,1786.0,1
1244,1244,-0.42493876494525684,-0.4,1.0,0.0,445.0,712.0,0.0,0,1843.0,1
1245,1245,0.1453449555327112,0.1,0.0,0.0,293.0,528.0,0.0,1,2179.0,1
1246,1246,-0.4570498755740509,-0.5,1.0,0.0,255.0,662.0,0.0,0,2083.0,1
1247,1247,0.4415855539687342,0.4,1.0,1.0,465.0,814.0,0.0,0,1721.0,0
1248,1248,-0.38807677262030915,-0.4,1.0,0.0,423.0,765.0,0.0,0,1812.0,1
1249,1249,-0.5331749522544784,-0.5,0.0,1.0,297.0,579.0,0.0,1,2124.0,0
1250,1250,0.08427702232321965,0.1,0.0,0.0,400.0,895.0,0.0,1,1705.0,1
1251,1251,0.6304334401824069,0.6,0.0,0.0,331.0,847.0,0.0,1,1822.0,1
1252,1252,0.35148293182328316,0.4,1.0,1.0,260.0,519.0,0.0,0,2221.0,0
1253,1253,0.5826754729668925,0.6,0.0,0.0,435.0,876.0,0.0,1,1689.0,1
1254,1254,0.05645078678649662,0.1,1.0,1.0,485.0,807.0,0.0,0,1708.0,0
1255,1255,0.6715499047985692,0.7,1.0,1.0,250.0,653.0,0.0,0,2097.0,0
1256,1256,0.865882891848574,0.9,1.0,1.0,401.0,689.0,0.0,0,1910.0,0
1257,1257,0.6356527320250874,0.6,1.0,1.0,326.0,537.0,1.0,1,-793.0,1
1258,1258,-0.5226028628356512,-0.5,0.0,1.0,379.0,746.0,0.0,1,1875.0,0
1259,1259,-0.24088114897567536,-0.2,0.0,1.0,314.0,736.0,1.0,0,-970.0,1
1260,1260,0.6279547525380763,0.6,1.0,1.0,395.0,969.0,0.0,0,1636.0,0
1261,1261,-0.1716871603823854,-0.2,0.0,1.0,474.0,698.0,0.0,1,1828.0,0
1262,1262,-0.438306302161964,-0.4,0.0,1.0,473.0,750.0,0.0,1,1777.0,0
1263,1263,0.47432071704379297,0.5,1.0,1.0,486.0,717.0,0.0,0,1797.0,0
1264,1264,-0.4516510671928835,-0.5,1.0,0.0,349.0,532.0,0.0,0,2119.0,1
1265,1265,0.4377677039810898,0.4,0.0,0.0,307.0,998.0,0.0,1,1695.0,1
1266,1266,-0.6742179947334399,-0.7,1.0,0.0,351.0,878.0,0.0,0,1771.0,1
1267,1267,0.540655384866772,0.5,0.0,0.0,498.0,604.0,0.0,1,1898.0,1
1268,1268,0.6746491123061941,0.7,1.0,1.0,366.0,843.0,0.0,0,1791.0,0
1269,1269,0.12286000883857151,0.1,0.0,0.0,368.0,889.0,0.0,1,1743.0,1
1270,1270,-0.16898010440632494,-0.2,0.0,1.0,339.0,677.0,0.0,1,1984.0,0
1271,1271,0.3171645606699366,0.3,0.0,0.0,296.0,958.0,0.0,1,1746.0,1
1272,1272,-0.55836315230486,-0.6,1.0,0.0,465.0,649.0,0.0,0,1886.0,1
1273,1273,0.296555214761434,0.3,0.0,0.0,492.0,877.0,0.0,1,1631.0,1
1274,1274,0.506568048369595,0.5,0.0,0.0,491.0,580.0,0.0,1,1929.0,1
1275,1275,-0.024635182232072173,-0.0,1.0,0.0,290.0,510.0,0.0,0,2200.0,1
1276,1276,0.7639494252829905,0.8,1.0,1.0,384.0,965.0,0.0,0,1651.0,0
1277,1277,0.3167040231637436,0.3,0.0,0.0,282.0,809.0,0.0,1,1909.0,1
1278,1278,0.5358762616852341,0.5,1.0,1.0,448.0,917.0,0.0,0,1635.0,0
1279,1279,0.3973471228911215,0.4,1.0,1.0,341.0,624.0,0.0,0,2035.0,0
1280,1280,-0.612015450569636,-0.6,0.0,1.0,406.0,662.0,0.0,1,1932.0,0
1281,1281,-0.47546848379497525,-0.5,1.0,0.0,457.0,802.0,0.0,0,1741.0,1
1282,1282,0.17918595632951517,0.2,0.0,0.0,474.0,811.0,0.0,1,1715.0,1
1283,1283,0.4075181281837329,0.4,1.0,1.0,286.0,562.0,0.0,0,2152.0,0
1284,1284,-0.725480542677916,-0.7,1.0,0.0,419.0,802.0,0.0,0,1779.0,1
1285,1285,-0.6408897488771361,-0.6,1.0,0.0,420.0,539.0,0.0,0,2041.0,1
1286,1286,0.326744301660684,0.3,0.0,0.0,365.0,510.0,0.0,1,2125.0,1
1287,1287,0.09144432086148213,0.1,1.0,1.0,342.0,729.0,0.0,0,1929.0,0
1288,1288,0.3694442358410607,0.4,0.0,0.0,394.0,725.0,0.0,1,1881.0,1
1289,1289,-0.5217537518885924,-0.5,0.0,1.0,413.0,525.0,0.0,1,2062.0,0
1290,1290,-0.37119758646261325,-0.4,1.0,0.0,308.0,595.0,0.0,0,2097.0,1
1291,1291,-0.8115173405306296,-0.8,0.0,1.0,468.0,698.0,0.0,1,1834.0,0
1292,1292,0.2792065243175058,0.3,0.0,0.0,324.0,512.0,0.0,1,2164.0,1
1293,1293,0.38514591279547916,0.4,1.0,1.0,313.0,593.0,0.0,0,2094.0,0
1294,1294,0.7935297079876021,0.8,1.0,1.0,318.0,517.0,0.0,0,2165.0,0
1295,1295,-0.7613645919920172,-0.8,1.0,0.0,265.0,505.0,0.0,0,2230.0,1
1296,1296,-0.4369878123549808,-0.4,0.0,1.0,395.0,757.0,0.0,1,1848.0,0
1297,1297,-0.851223628123871,-0.9,0.0,1.0,496.0,887.0,0.0,1,1617.0,0
1298,1298,-0.20524224005369363,-0.2,0.0,1.0,285.0,676.0,0.0,1,2039.0,0
1299,1299,0.05142685510619005,0.1,0.0,0.0,457.0,833.0,0.0,1,1710.0,1
1300,1300,0.18915222882708715,0.2,1.0,1.0,469.0,638.0,0.0,0,1893.0,0
1301,1301,-0.41477654743352876,-0.4,0.0,1.0,460.0,836.0,0.0,1,1704.0,0
1302,1302,-0.6609366185160815,-0.7,1.0,0.0,414.0,858.0,0.0,0,1728.0,1
1303,1303,-0.3394309413976988,-0.3,0.0,1.0,285.0,715.0,0.0,1,2000.0,0
1304,1304,0.34400615582493865,0.3,1.0,1.0,376.0,671.0,0.0,0,1953.0,0
1305,1305,0.6497215255953309,0.6,1.0,1.0,408.0,650.0,0.0,0,1942.0,0
1306,1306,0.8389804215770728,0.8,1.0,1.0,440.0,863.0,0.0,0,-1253.0,0
1307,1307,0.6442204813273292,0.6,0.0,0.0,391.0,629.0,0.0,1,1980.0,1
1308,1308,0.6485874277112916,0.6,1.0,1.0,351.0,939.0,0.0,0,1710.0,0
1309,1309,-0.27780489493225347,-0.3,0.0,1.0,251.0,949.0,0.0,1,-1170.0,0
1310,1310,0.24303617744286454,0.2,1.0,1.0,421.0,808.0,0.0,0,1771.0,0
1311,1311,-0.11413967131275415,-0.1,1.0,0.0,360.0,853.0,0.0,0,1787.0,1
1312,1312,0.21795961999913016,0.2,1.0,1.0,326.0,621.0,0.0,0,2053.0,0
1313,1313,0.2973831972376474,0.3,0.0,0.0,320.0,501.0,0.0,1,2179.0,1
1314,1314,-0.07229277735997419,-0.1,1.0,0.0,475.0,986.0,0.0,0,1539.0,1
1315,1315,-0.24742548195905933,-0.2,0.0,1.0,465.0,768.0,0.0,1,1767.0,0
1316,1316,0.6757220298983563,0.7,1.0,1.0,421.0,977.0,0.0,0,1602.0,0
1317,1317,-0.06861566602766245,-0.1,0.0,1.0,266.0,926.0,0.0,1,1808.0,0
1318,1318,0.36744877253825725,0.4,1.0,1.0,301.0,930.0,0.0,0,1769.0,0
1319,1319,-0.8466076153577947,-0.8,0.0,1.0,445.0,776.0,0.0,1,1779.0,0
1320,1320,0.5435461039187875,0.5,0.0,0.0,265.0,601.0,0.0,1,2134.0,1
1321,1321,0.7181455932008486,0.7,1.0,1.0,419.0,872.0,0.0,0,1709.0,0
1322,1322,-0.7065450003571238,-0.7,1.0,0.0,374.0,858.0,0.0,0,1768.0,1
1323,1323,0.0023765009658609504,0.0,0.0,0.0,494.0,785.0,0.0,1,1721.0,1
1324,1324,-0.4206189359503324,-0.4,0.0,1.0,486.0,612.0,0.0,1,1902.0,0
1325,1325,-0.3000735839088946,-0.3,1.0,0.0,424.0,656.0,0.0,0,1920.0,1
1326,1326,0.04651958272682122,0.0,0.0,0.0,279.0,799.0,0.0,1,1922.0,1
1327,1327,0.7313898681981962,0.7,1.0,1.0,496.0,698.0,1.0,1,-1114.0,1
1328,1328,0.7203183851002454,0.7,0.0,0.0,367.0,862.0,0.0,1,1771.0,1
1329,1329,0.048345387728805256,0.0,1.0,1.0,266.0,862.0,0.0,0,1872.0,0
1330,1330,0.3719656916472983,0.4,1.0,1.0,412.0,706.0,0.0,0,1882.0,0
1331,1331,0.2857021243586654,0.3,1.0,1.0,362.0,632.0,0.0,0,-884.0,0
1332,1332,-0.3798657189684249,-0.4,0.0,1.0,483.0,919.0,0.0,1,1598.0,0
1333,1333,0.19783084876144275,0.2,1.0,1.0,262.0,919.0,0.0,0,1819.0,0
1334,1334,-0.4267930835843899,-0.4,0.0,1.0,478.0,977.0,0.0,1,1545.0,0
1335,1335,-0.8121864218858748,-0.8,1.0,0.0,462.0,599.0,0.0,0,1939.0,1
1336,1336,0.36542145678967575,0.4,0.0,0.0,377.0,544.0,0.0,1,2079.0,1
1337,1337,0.5855998190279635,0.6,0.0,0.0,331.0,822.0,0.0,1,1847.0,1
1338,1338,0.7585299612392048,0.8,1.0,1.0,283.0,689.0,0.0,0,2028.0,0
1339,1339,0.03651103856671001,0.0,1.0,1.0,271.0,681.0,0.0,0,2048.0,0
1340,1340,-0.18681685081896848,-0.2,1.0,0.0,280.0,841.0,0.0,0,1879.0,1
1341,1341,0.19395874282164616,0.2,0.0,0.0,439.0,913.0,0.0,1,1648.0,1
1342,1342,-0.8638474299913136,-0.9,0.0,1.0,434.0,690.0,0.0,1,1876.0,0
1343,1343,-0.523340886633773,-0.5,1.0,0.0,471.0,945.0,0.0,0,1584.0,1
1344,1344,-0.003207886209908528,-0.0,0.0,1.0,478.0,653.0,0.0,1,1869.0,0
1345,1345,0.633404287858414,0.6,1.0,1.0,386.0,514.0,0.0,0,2100.0,0
1346,1346,-0.42753001911663574,-0.4,1.0,0.0,414.0,948.0,0.0,0,1638.0,1
1347,1347,-0.6286811693300942,-0.6,0.0,1.0,262.0,706.0,0.0,1,2032.0,0
1348,1348,0.1457075290433193,0.1,0.0,0.0,439.0,752.0,0.0,1,1809.0,1
1349,1349,-0.8365719118931304,-0.8,1.0,0.0,489.0,800.0,0.0,0,1711.0,1
1350,1350,-0.25272231975176707,-0.3,0.0,1.0,401.0,652.0,0.0,1,1947.0,0
1351,1351,-0.18515625930245672,-0.2,1.0,0.0,422.0,710.0,0.0,0,1868.0,1
1352,1352,0.4022247088959604,0.4,1.0,1.0,288.0,744.0,0.0,0,1968.0,0
1353,1353,0.008520067267542175,0.0,1.0,1.0,282.0,922.0,0.0,0,1796.0,0
1354,1354,-0.35614418314795504,-0.4,1.0,0.0,292.0,665.0,0.0,0,2043.0,1
1355,1355,0.3957332609684826,0.4,0.0,0.0,274.0,522.0,0.0,1,2204.0,1
1356,1356,0.593812257790972,0.6,1.0,1.0,488.0,504.0,0.0,0,2008.0,0
1357,1357,-0.6509611513214056,-0.7,1.0,0.0,265.0,631.0,0.0,0,2104.0,1
1358,1358,-0.827810882273688,-0.8,1.0,0.0,317.0,625.0,0.0,0,2058.0,1
1359,1359,0.48981479644217985,0.5,0.0,0.0,403.0,784.0,0.0,1,1813.0,1
1360,1360,0.26463786866621,0.3,0.0,0.0,274.0,830.0,0.0,1,1896.0,1
1361,1361,0.5903398354666195,0.6,0.0,0.0,478.0,964.0,0.0,1,1558.0,1
1362,1362,-0.8938725681820874,-0.9,0.0,1.0,499.0,896.0,0.0,1,1605.0,0
1363,1363,0.1768685276789147,0.2,1.0,1.0,344.0,747.0,0.0,0,1909.0,0
1364,1364,-0.6858551405400763,-0.7,0.0,1.0,435.0,610.0,0.0,1,1955.0,0
1365,1365,0.09963461532713014,0.1,1.0,1.0,433.0,866.0,0.0,0,1701.0,0
1366,1366,-0.526169854425055,-0.5,1.0,0.0,318.0,611.0,0.0,0,2071.0,1
1367,1367,-0.3826501109962005,-0.4,1.0,0.0,417.0,560.0,0.0,0,2023.0,1
1368,1368,0.35606352257906904,0.4,0.0,0.0,300.0,984.0,0.0,1,1716.0,1
1369,1369,0.46594116027921306,0.5,1.0,1.0,404.0,909.0,0.0,0,1687.0,0
1370,1370,0.494052511820808,0.5,0.0,0.0,332.0,566.0,0.0,1,2102.0,1
1371,1371,0.2150527454557426,0.2,1.0,1.0,487.0,763.0,0.0,0,1750.0,0
1372,1372,-0.5056485045702712,-0.5,1.0,0.0,314.0,517.0,0.0,0,2169.0,1
1373,1373,-0.867848740451809,-0.9,1.0,0.0,449.0,954.0,0.0,0,1597.0,1
1374,1374,-0.14711358128806862,-0.1,1.0,0.0,462.0,728.0,0.0,0,1810.0,1
1375,1375,0.6742459670065454,0.7,0.0,0.0,403.0,577.0,0.0,1,2020.0,1
1376,1376,0.41206820759195895,0.4,0.0,0.0,457.0,892.0,0.0,1,1651.0,1
1377,1377,-0.8076194548349902,-0.8,0.0,1.0,338.0,663.0,0.0,1,1999.0,0
1378,1378,-0.17398639176024022,-0.2,1.0,0.0,488.0,555.0,0.0,0,1957.0,1
1379,1379,0.20074116313574286,0.2,0.0,0.0,445.0,605.0,0.0,1,1950.0,1
1380,1380,0.08605038111700591,0.1,1.0,1.0,499.0,590.0,0.0,0,1911.0,0
1381,1381,-0.46860343430150814,-0.5,0.0,1.0,283.0,596.0,0.0,1,2121.0,0
1382,1382,0.21132707528245354,0.2,0.0,0.0,443.0,884.0,0.0,1,1673.0,1
1383,1383,0.766578930012194,0.8,0.0,0.0,274.0,903.0,0.0,1,1823.0,1
1384,1384,0.09203114161751569,0.1,0.0,0.0,462.0,703.0,0.0,1,1835.0,1
1385,1385,0.865922826016786,0.9,1.0,1.0,296.0,802.0,0.0,0,1902.0,0
1386,1386,-0.11680233450574495,-0.1,0.0,1.0,285.0,548.0,0.0,1,2167.0,0
1387,1387,0.38988510037251023,0.4,0.0,0.0,477.0,760.0,0.0,1,1763.0,1
1388,1388,0.630668681520803,0.6,0.0,0.0,388.0,868.0,0.0,1,1744.0,1
1389,1389,0.2735353563569193,0.3,1.0,1.0,344.0,594.0,0.0,0,2062.0,0
1390,1390,-0.278712347716235,-0.3,0.0,1.0,355.0,698.0,0.0,1,1947.0,0
1391,1391,-0.2339942218545581,-0.2,1.0,0.0,488.0,931.0,0.0,0,1581.0,1
1392,1392,0.427633010992449,0.4,1.0,1.0,313.0,820.0,0.0,0,1867.0,0
1393,1393,0.4106952348777363,0.4,1.0,1.0,386.0,656.0,0.0,0,1958.0,0
1394,1394,-0.48677866974222844,-0.5,0.0,1.0,344.0,761.0,0.0,1,1895.0,0
1395,1395,-0.7922729260227802,-0.8,0.0,1.0,376.0,909.0,0.0,1,1715.0,0
1396,1396,-0.250119364477572,-0.3,0.0,1.0,374.0,951.0,0.0,1,1675.0,0
1397,1397,0.4137500806704474,0.4,0.0,0.0,356.0,544.0,0.0,1,-320.0,1
1398,1398,0.4102655611719731,0.4,0.0,0.0,326.0,826.0,0.0,1,1848.0,1
1399,1399,-0.038625044937110053,-0.0,1.0,0.0,296.0,799.0,0.0,0,1905.0,1
1400,1400,0.7258782040897657,0.7,1.0,1.0,476.0,849.0,0.0,0,1675.0,0
1401,1401,-0.8625567354450884,-0.9,1.0,0.0,356.0,661.0,0.0,0,1983.0,1
1402,1402,-0.03325523246736384,-0.0,0.0,1.0,430.0,530.0,0.0,1,2040.0,0
1403,1403,0.3967569243047143,0.4,1.0,1.0,438.0,690.0,0.0,0,1872.0,0
1404,1404,0.05509583841276,0.1,0.0,0.0,337.0,645.0,1.0,0,-922.0,0
1405,1405,-0.604597917443558,-0.6,0.0,1.0,462.0,625.0,0.0,1,1913.0,0
1406,1406,-0.6882243210831184,-0.7,0.0,1.0,433.0,800.0,0.0,1,1767.0,0
1407,1407,-0.36005684817768113,-0.4,0.0,1.0,494.0,531.0,0.0,1,1975.0,0
1408,1408,0.8324508586893794,0.8,1.0,1.0,483.0,678.0,0.0,0,1839.0,0
1409,1409,0.20421047936046166,0.2,1.0,1.0,354.0,775.0,0.0,0,1871.0,0
1410,1410,0.7184621917724702,0.7,0.0,0.0,377.0,664.0,0.0,1,1959.0,1
1411,1411,-0.2970330354460474,-0.3,0.0,1.0,315.0,914.0,0.0,1,1771.0,0
1412,1412,-0.8183635047706059,-0.8,1.0,0.0,487.0,658.0,0.0,0,1855.0,1
1413,1413,0.25070533134998396,0.3,0.0,0.0,350.0,814.0,0.0,1,1836.0,1
1414,1414,0.10793021872346997,0.1,1.0,1.0,477.0,819.0,0.0,0,1704.0,0
1415,1415,-0.7221393050640706,-0.7,0.0,1.0,425.0,776.0,0.0,1,1799.0,0
1416,1416,0.12868897069307927,0.1,1.0,1.0,434.0,601.0,0.0,0,1965.0,0
1417,1417,-0.885579258347322,-0.9,0.0,1.0,258.0,687.0,0.0,1,2055.0,0
1418,1418,0.6601839608061691,0.7,1.0,1.0,426.0,640.0,0.0,0,1934.0,0
1419,1419,-0.12636572417499803,-0.1,0.0,1.0,464.0,615.0,0.0,1,1921.0,0
1420,1420,0.8197994941808963,0.8,1.0,1.0,290.0,701.0,0.0,0,2009.0,0
1421,1421,-0.6150512497467429,-0.6,1.0,0.0,294.0,686.0,0.0,0,2020.0,1
1422,1422,-0.3567646968080068,-0.4,0.0,1.0,437.0,904.0,0.0,1,1659.0,0
1423,1423,0.04821765275018741,0.0,1.0,1.0,469.0,775.0,0.0,0,1756.0,0
1424,1424,-0.20529139771320215,-0.2,1.0,0.0,478.0,544.0,0.0,0,1978.0,1
1425,1425,0.42067257022702675,0.4,0.0,0.0,467.0,926.0,0.0,1,1607.0,1
1426,1426,-0.28644593579940647,-0.3,0.0,1.0,426.0,597.0,0.0,1,1977.0,0
1427,1427,-0.8564670109535782,-0.9,1.0,0.0,274.0,978.0,0.0,0,1748.0,1
1428,1428,-0.6127404331451534,-0.6,0.0,1.0,401.0,706.0,0.0,1,1893.0,0
1429,1429,-0.6790847696536664,-0.7,1.0,0.0,273.0,986.0,0.0,0,1741.0,1
1430,1430,0.6086513986422603,0.6,0.0,0.0,410.0,761.0,0.0,1,1829.0,1
1431,1431,-0.42379158509500864,-0.4,1.0,0.0,332.0,975.0,0.0,0,1693.0,1
1432,1432,0.6063300618132769,0.6,0.0,0.0,301.0,599.0,0.0,1,2100.0,1
1433,1433,0.08581920779495189,0.1,1.0,1.0,308.0,935.0,0.0,0,-1143.0,0
1434,1434,-0.7572627103787819,-0.8,1.0,0.0,398.0,939.0,0.0,0,1663.0,1
1435,1435,-0.1448293546052012,-0.1,1.0,0.0,292.0,845.0,0.0,0,1863.0,1
1436,1436,-0.3819284923932792,-0.4,0.0,1.0,395.0,806.0,0.0,1,1799.0,0
1437,1437,0.6875222148640391,0.7,1.0,1.0,311.0,837.0,0.0,0,1852.0,0
1438,1438,0.30350842600843964,0.3,0.0,0.0,499.0,568.0,0.0,1,1933.0,1
1439,1439,-0.6496954731313762,-0.6,1.0,0.0,373.0,956.0,0.0,0,1671.0,1
1440,1440,-0.7206344518660066,-0.7,0.0,1.0,301.0,920.0,0.0,1,1779.0,0
1441,1441,0.7583234026440416,0.8,1.0,1.0,375.0,684.0,0.0,0,1941.0,0
1442,1442,0.7632456227883112,0.8,0.0,0.0,290.0,734.0,0.0,1,1976.0,1
1443,1443,-0.7809491701793507,-0.8,0.0,1.0,328.0,832.0,0.0,1,1840.0,0
1444,1444,-0.1732699749090033,-0.2,1.0,0.0,281.0,557.0,0.0,0,-738.0,1
1445,1445,-0.3798100532174369,-0.4,0.0,1.0,304.0,749.0,0.0,1,1947.0,0
1446,1446,0.038984639849351854,0.0,0.0,0.0,482.0,946.0,0.0,1,1572.0,1
1447,1447,0.7145513952412682,0.7,0.0,0.0,375.0,994.0,0.0,1,1631.0,1
1448,1448,-0.36776749264309294,-0.4,0.0,1.0,313.0,573.0,0.0,1,2114.0,0
1449,1449,0.7001469466854994,0.7,0.0,0.0,300.0,531.0,0.0,1,2169.0,1
1450,1450,0.378911380691091,0.4,0.0,0.0,440.0,978.0,0.0,1,1582.0,1
1451,1451,-0.8965589483938451,-0.9,1.0,0.0,332.0,904.0,0.0,0,1764.0,1
1452,1452,0.6977752410438093,0.7,1.0,1.0,408.0,672.0,0.0,0,1920.0,0
1453,1453,0.3521931662383685,0.4,0.0,0.0,498.0,507.0,0.0,1,1995.0,1
1454,1454,-0.12118598184233853,-0.1,0.0,1.0,488.0,868.0,0.0,1,1644.0,0
1455,1455,-0.6851383128580437,-0.7,1.0,0.0,363.0,588.0,0.0,0,2049.0,1
1456,1456,0.8982366952629813,0.9,1.0,1.0,339.0,618.0,0.0,0,2043.0,0
1457,1457,-0.012042018545967759,-0.0,1.0,0.0,402.0,860.0,0.0,0,1738.0,1
1458,1458,0.40158573402186215,0.4,1.0,1.0,327.0,705.0,0.0,0,1968.0,0
1459,1459,-0.23190182394571146,-0.2,0.0,1.0,371.0,502.0,0.0,1,2127.0,0
1460,1460,0.4875704855377566,0.5,1.0,1.0,333.0,692.0,0.0,0,1975.0,0
1461,1461,0.06528860427581262,0.1,1.0,1.0,304.0,898.0,0.0,0,1798.0,0
1462,1462,0.08862044670434,0.1,1.0,1.0,367.0,795.0,0.0,0,1838.0,0
1463,1463,0.2500234100478681,0.3,0.0,0.0,436.0,509.0,0.0,1,2055.0,1
1464,1464,-0.3331774356054912,-0.3,1.0,0.0,478.0,750.0,0.0,0,1772.0,1
1465,1465,0.5379892606038733,0.5,0.0,0.0,492.0,693.0,0.0,1,1815.0,1
1466,1466,0.7420046782304829,0.7,0.0,0.0,261.0,814.0,0.0,1,1925.0,1
1467,1467,0.2604122604158702,0.3,0.0,0.0,427.0,997.0,0.0,1,1576.0,1
1468,1468,0.10749747457775605,0.1,0.0,0.0,478.0,506.0,0.0,1,2016.0,1
1469,1469,0.3927134440662431,0.4,1.0,1.0,442.0,967.0,0.0,0,1591.0,0
1470,1470,0.15889669961371233,0.2,0.0,0.0,371.0,827.0,0.0,1,1802.0,1
