,trial,coherence,coherence_bin,green_side,correct_side,target_onset,checker_onset,decision,green_decision,decision_time,correct_decision
0,0,-0.6750525157955146,-0.7,0.0,1.0,464.0,873.0,1.0,0,183.0,1
1,1,-0.3313672099967304,-0.3,0.0,1.0,487.0,732.0,1.0,0,281.0,1
2,2,-0.2828411077090861,-0.3,1.0,0.0,255.0,813.0,0.0,0,272.0,1
3,3,-0.4869550143043238,-0.5,0.0,1.0,250.0,757.0,1.0,0,213.0,1
4,4,-0.7336437615353868,-0.7,1.0,0.0,413.0,632.0,0.0,0,335.0,1
5,5,0.16635349952031697,0.2,0.0,0.0,349.0,802.0,0.0,1,1459.0,1
6,6,-0.559489336434805,-0.6,0.0,1.0,311.0,661.0,1.0,0,508.0,1
7,7,-0.8486725430142023,-0.8,0.0,1.0,351.0,910.0,1.0,0,289.0,1
8,8,-0.7823593488541932,-0.8,0.0,1.0,455.0,788.0,1.0,0,367.0,1
9,9,0.3824461327788645,0.4,1.0,1.0,275.0,672.0,1.0,1,523.0,1
10,10,0.5595541391378364,0.6,0.0,0.0,289.0,684.0,0.0,1,517.0,1
11,11,0.4384026878224695,0.4,0.0,0.0,255.0,586.0,0.0,1,319.0,1
12,12,-0.7216461542063249,-0.7,1.0,0.0,291.0,810.0,0.0,0,269.0,1
13,13,-0.7360257263418878,-0.7,1.0,0.0,434.0,825.0,0.0,0,381.0,1
14,14,0.3364560493740706,0.3,0.0,0.0,250.0,853.0,0.0,1,-393.0,1
15,15,-0.19428439877656722,-0.2,1.0,0.0,324.0,856.0,0.0,0,1660.0,1
16,16,-0.76915062120769,-0.8,0.0,1.0,366.0,775.0,1.0,0,129.0,1
17,17,-0.32155117848747927,-0.3,0.0,1.0,264.0,887.0,1.0,0,309.0,1
18,18,0.05892796465984074,0.1,0.0,0.0,461.0,666.0,1.0,0,1873.0,0
19,19,-0.2533371087581556,-0.3,0.0,1.0,445.0,550.0,1.0,0,1835.0,1
20,20,0.8943068812776064,0.9,0.0,0.0,367.0,811.0,0.0,1,292.0,1
21,21,-0.2629813267982213,-0.3,1.0,0.0,329.0,804.0,0.0,0,527.0,1
22,22,0.2465008320878509,0.2,1.0,1.0,351.0,878.0,1.0,1,581.0,1
23,23,-0.7958785580134157,-0.8,0.0,1.0,299.0,569.0,1.0,0,822.0,1
24,24,-0.20403908319111475,-0.2,1.0,0.0,333.0,719.0,0.0,0,468.0,1
25,25,-0.6405345468532545,-0.6,0.0,1.0,460.0,797.0,1.0,0,523.0,1
26,26,0.42263454378263166,0.4,1.0,1.0,268.0,990.0,1.0,1,802.0,1
27,27,0.8985613677540708,0.9,0.0,0.0,359.0,827.0,0.0,1,84.0,1
28,28,-0.5110581327246919,-0.5,0.0,1.0,254.0,825.0,1.0,0,1531.0,1
29,29,0.7612400653967978,0.8,0.0,0.0,476.0,815.0,0.0,1,139.0,1
30,30,-0.7341451174680055,-0.7,0.0,1.0,458.0,900.0,1.0,0,292.0,1
31,31,0.6830281542818623,0.7,0.0,0.0,434.0,826.0,0.0,1,290.0,1
32,32,-0.5970803710346604,-0.6,0.0,1.0,490.0,938.0,1.0,0,182.0,1
33,33,0.5807060736872126,0.6,1.0,1.0,357.0,908.0,1.0,1,235.0,1
34,34,0.7084986867163791,0.7,1.0,1.0,404.0,928.0,1.0,1,178.0,1
35,35,0.15114446032786033,0.2,0.0,0.0,384.0,773.0,0.0,1,413.0,1
36,36,-0.06466716947270867,-0.1,1.0,0.0,478.0,974.0,0.0,0,1548.0,1
37,37,0.3735519752956912,0.4,0.0,0.0,367.0,914.0,0.0,1,479.0,1
38,38,0.7846336372100476,0.8,0.0,0.0,356.0,944.0,0.0,1,680.0,1
39,39,0.5502650269866184,0.6,1.0,1.0,274.0,801.0,1.0,1,325.0,1
40,40,-0.588787561331293,-0.6,0.0,1.0,302.0,932.0,1.0,0,166.0,1
41,41,0.24769193137262324,0.2,0.0,0.0,318.0,773.0,0.0,1,889.0,1
42,42,0.39381787507820676,0.4,1.0,1.0,450.0,924.0,1.0,1,186.0,1
43,43,-0.7294784345949562,-0.7,0.0,1.0,256.0,723.0,1.0,0,121.0,1
44,44,0.3903383913645849,0.4,1.0,1.0,302.0,951.0,1.0,1,307.0,1
45,45,-0.7766841355125984,-0.8,1.0,0.0,438.0,968.0,0.0,0,304.0,1
46,46,-0.32150919624225216,-0.3,0.0,1.0,341.0,876.0,1.0,0,363.0,1
47,47,0.5148461853824654,0.5,0.0,0.0,432.0,622.0,0.0,1,216.0,1
48,48,0.6348087949601281,0.6,1.0,1.0,400.0,513.0,1.0,1,717.0,1
49,49,-0.0927061446605022,-0.1,1.0,0.0,368.0,687.0,0.0,0,1945.0,1
50,50,0.8959186239518476,0.9,0.0,0.0,453.0,867.0,0.0,1,220.0,1
51,51,-0.5093435671723268,-0.5,0.0,1.0,300.0,722.0,1.0,0,348.0,1
52,52,-0.001606319494949271,-0.0,0.0,1.0,480.0,625.0,0.0,1,1895.0,0
53,53,0.2510826055448637,0.3,1.0,1.0,400.0,826.0,1.0,1,384.0,1
54,54,-0.7756081900018283,-0.8,1.0,0.0,441.0,925.0,0.0,0,244.0,1
55,55,-0.5831825796271104,-0.6,0.0,1.0,286.0,585.0,1.0,0,429.0,1
56,56,0.04059053411834912,0.0,0.0,0.0,286.0,842.0,1.0,0,-228.0,0
57,57,0.5508254418250303,0.6,1.0,1.0,271.0,670.0,1.0,1,409.0,1
58,58,0.15924373483646226,0.2,0.0,0.0,362.0,668.0,0.0,1,400.0,1
59,59,0.05862835910906605,0.1,0.0,0.0,261.0,900.0,0.0,1,1839.0,1
60,60,0.8172433413030097,0.8,0.0,0.0,341.0,569.0,0.0,1,280.0,1
61,61,-0.3954298990752575,-0.4,1.0,0.0,325.0,666.0,0.0,0,849.0,1
62,62,0.7139937646196101,0.7,0.0,0.0,321.0,736.0,0.0,1,223.0,1
63,63,-0.28535307339366023,-0.3,1.0,0.0,491.0,642.0,0.0,0,467.0,1
64,64,0.4293304480742549,0.4,0.0,0.0,367.0,906.0,0.0,1,227.0,1
65,65,0.06822332962967426,0.1,1.0,1.0,388.0,859.0,1.0,1,553.0,1
66,66,-0.31180121891199486,-0.3,0.0,1.0,492.0,955.0,1.0,0,403.0,1
67,67,-0.5190316416688976,-0.5,0.0,1.0,325.0,702.0,0.0,1,-47.0,0
68,68,-0.41110047131128075,-0.4,0.0,1.0,317.0,609.0,1.0,0,504.0,1
69,69,0.023824986074803767,0.0,1.0,1.0,353.0,850.0,1.0,1,1117.0,1
70,70,0.1758649391895687,0.2,0.0,0.0,344.0,729.0,0.0,1,1397.0,1
71,71,-0.6273301056774734,-0.6,1.0,0.0,445.0,702.0,0.0,0,313.0,1
72,72,0.8474745472391202,0.8,0.0,0.0,283.0,596.0,0.0,1,361.0,1
73,73,-0.8473360223763123,-0.8,0.0,1.0,397.0,904.0,1.0,0,329.0,1
74,74,0.7664355265169597,0.8,0.0,0.0,286.0,554.0,0.0,1,260.0,1
75,75,-0.4139704474429221,-0.4,0.0,1.0,274.0,842.0,1.0,0,754.0,1
76,76,0.2369498428751261,0.2,0.0,0.0,360.0,763.0,0.0,1,267.0,1
77,77,0.19508715321710157,0.2,0.0,0.0,482.0,874.0,0.0,1,1054.0,1
78,78,-0.4114212622823817,-0.4,0.0,1.0,309.0,858.0,1.0,0,463.0,1
79,79,0.6381872206190339,0.6,1.0,1.0,390.0,798.0,1.0,1,342.0,1
80,80,0.7657910539360889,0.8,0.0,0.0,373.0,995.0,0.0,1,222.0,1
81,81,0.5768368436791808,0.6,0.0,0.0,339.0,564.0,0.0,1,487.0,1
82,82,-0.44030777065487375,-0.4,0.0,1.0,302.0,861.0,1.0,0,117.0,1
83,83,0.3277756537533437,0.3,1.0,1.0,493.0,760.0,1.0,1,797.0,1
84,84,-0.15674707185482584,-0.2,1.0,0.0,452.0,929.0,0.0,0,709.0,1
85,85,-0.5448195130847877,-0.5,1.0,0.0,399.0,500.0,0.0,0,211.0,1
86,86,-0.6049382368846994,-0.6,0.0,1.0,302.0,766.0,1.0,0,322.0,1
87,87,-0.05736007986517533,-0.1,0.0,1.0,396.0,888.0,1.0,0,1716.0,1
88,88,-0.6482592305360781,-0.6,0.0,1.0,326.0,804.0,1.0,0,210.0,1
89,89,-0.4739086743860414,-0.5,1.0,0.0,388.0,874.0,0.0,0,588.0,1
90,90,0.6453960495388343,0.6,0.0,0.0,375.0,545.0,0.0,1,320.0,1
91,91,-0.0030377208150765833,-0.0,1.0,0.0,422.0,631.0,0.0,0,1947.0,1
92,92,0.2677510370266919,0.3,1.0,1.0,375.0,779.0,1.0,1,396.0,1
93,93,-0.45809159747142,-0.5,1.0,0.0,456.0,968.0,0.0,0,1016.0,1
94,94,0.11846279235262436,0.1,1.0,1.0,262.0,788.0,1.0,1,1950.0,1
95,95,0.33437710633413553,0.3,1.0,1.0,297.0,987.0,1.0,1,266.0,1
96,96,-0.48592805655920207,-0.5,1.0,0.0,345.0,585.0,0.0,0,940.0,1
97,97,0.819278938913994,0.8,0.0,0.0,348.0,568.0,0.0,1,344.0,1
98,98,-0.6044766532211394,-0.6,1.0,0.0,428.0,910.0,0.0,0,272.0,1
99,99,-0.8889554886583878,-0.9,1.0,0.0,454.0,900.0,0.0,0,216.0,1
100,100,0.3234058135071486,0.3,1.0,1.0,457.0,927.0,1.0,1,866.0,1
101,101,0.47309923833126566,0.5,1.0,1.0,297.0,808.0,1.0,1,375.0,1
102,102,0.6166243662802741,0.6,0.0,0.0,378.0,569.0,0.0,1,143.0,1
103,103,0.08615637848667845,0.1,0.0,0.0,257.0,683.0,0.0,1,2060.0,1
104,104,0.11200159633018358,0.1,1.0,1.0,308.0,623.0,1.0,1,2069.0,1
105,105,-0.5964900234150134,-0.6,0.0,1.0,431.0,954.0,1.0,0,195.0,1
106,106,-0.29858330315630055,-0.3,0.0,1.0,342.0,708.0,1.0,0,490.0,1
107,107,0.5086580101945487,0.5,1.0,1.0,302.0,927.0,1.0,1,-179.0,1
108,108,0.8856258258093476,0.9,0.0,0.0,384.0,502.0,0.0,1,254.0,1
109,109,-0.3154053967543261,-0.3,0.0,1.0,417.0,590.0,1.0,0,583.0,1
110,110,0.18771664945152022,0.2,1.0,1.0,366.0,707.0,1.0,1,767.0,1
111,111,-0.18580754749548223,-0.2,0.0,1.0,251.0,835.0,1.0,0,304.0,1
112,112,-0.15960500545623613,-0.2,1.0,0.0,319.0,981.0,0.0,0,1700.0,1
113,113,-0.7414247536046904,-0.7,0.0,1.0,434.0,915.0,1.0,0,321.0,1
114,114,-0.23437139122896167,-0.2,0.0,1.0,275.0,583.0,1.0,0,732.0,1
115,115,0.8548171813253845,0.9,0.0,0.0,310.0,596.0,0.0,1,154.0,1
116,116,-0.4325880083455353,-0.4,1.0,0.0,281.0,789.0,0.0,0,310.0,1
117,117,0.029126713100157908,0.0,1.0,1.0,334.0,728.0,1.0,1,1138.0,1
118,118,-0.32979312942091665,-0.3,1.0,0.0,355.0,602.0,0.0,0,903.0,1
119,119,-0.3576862148369446,-0.4,0.0,1.0,442.0,530.0,1.0,0,828.0,1
120,120,0.5290646923335373,0.5,1.0,1.0,293.0,810.0,1.0,1,327.0,1
121,121,0.17271218354283102,0.2,0.0,0.0,384.0,515.0,0.0,1,1451.0,1
122,122,0.0022465495735919383,0.0,1.0,1.0,310.0,828.0,1.0,1,1862.0,1
123,123,-0.42856667435783447,-0.4,1.0,0.0,297.0,688.0,0.0,0,485.0,1
124,124,-0.6595273432706543,-0.7,0.0,1.0,250.0,746.0,1.0,0,274.0,1
125,125,-0.8670769002116436,-0.9,0.0,1.0,483.0,587.0,1.0,0,910.0,1
126,126,0.12625335126124415,0.1,1.0,1.0,442.0,949.0,1.0,1,1609.0,1
127,127,0.4574493979984732,0.5,0.0,0.0,341.0,663.0,0.0,1,366.0,1
128,128,-0.5164984829525749,-0.5,1.0,0.0,476.0,529.0,0.0,0,1225.0,1
129,129,0.5808500674706315,0.6,1.0,1.0,297.0,593.0,1.0,1,460.0,1
130,130,0.548917857039462,0.5,0.0,0.0,415.0,933.0,0.0,1,12.0,1
131,131,-0.44228867264070376,-0.4,0.0,1.0,431.0,809.0,1.0,0,290.0,1
132,132,0.46584853285525385,0.5,1.0,1.0,423.0,701.0,1.0,1,316.0,1
133,133,0.5880246711778073,0.6,0.0,0.0,321.0,822.0,0.0,1,407.0,1
134,134,0.33191714414056295,0.3,0.0,0.0,326.0,654.0,0.0,1,280.0,1
135,135,-0.7342956844131441,-0.7,0.0,1.0,391.0,562.0,1.0,0,277.0,1
136,136,0.30525764181592574,0.3,1.0,1.0,273.0,644.0,1.0,1,1003.0,1
137,137,0.18972352354511568,0.2,0.0,0.0,260.0,795.0,0.0,1,1085.0,1
138,138,-0.15370752966970924,-0.2,0.0,1.0,345.0,688.0,1.0,0,227.0,1
139,139,0.4643900728217979,0.5,0.0,0.0,360.0,966.0,0.0,1,364.0,1
140,140,-0.25919748894021677,-0.3,0.0,1.0,258.0,761.0,1.0,0,361.0,1
141,141,0.5441860264143993,0.5,1.0,1.0,302.0,985.0,1.0,1,393.0,1
142,142,-0.8798839914125031,-0.9,1.0,0.0,437.0,957.0,0.0,0,446.0,1
143,143,0.559357375221362,0.6,1.0,1.0,373.0,936.0,1.0,1,401.0,1
144,144,-0.8415654381530198,-0.8,1.0,0.0,417.0,844.0,0.0,0,289.0,1
145,145,-0.4059247350521646,-0.4,0.0,1.0,411.0,831.0,1.0,0,708.0,1
146,146,0.4547606506345586,0.5,0.0,0.0,339.0,757.0,0.0,1,324.0,1
147,147,-0.5644818773454754,-0.6,0.0,1.0,389.0,699.0,1.0,0,702.0,1
148,148,0.38278631960641396,0.4,1.0,1.0,479.0,626.0,1.0,1,465.0,1
149,149,-0.6122823695169555,-0.6,1.0,0.0,309.0,634.0,0.0,0,277.0,1
150,150,0.6095636809705799,0.6,0.0,0.0,281.0,557.0,0.0,1,262.0,1
151,151,-0.24139965514668182,-0.2,1.0,0.0,316.0,729.0,0.0,0,765.0,1
152,152,-0.34808400681649554,-0.3,1.0,0.0,393.0,787.0,0.0,0,310.0,1
153,153,-0.04997924808365972,-0.0,1.0,0.0,282.0,608.0,1.0,1,2110.0,0
154,154,0.1097031879732907,0.1,1.0,1.0,451.0,814.0,1.0,1,1505.0,1
155,155,-0.774115628471385,-0.8,1.0,0.0,336.0,582.0,0.0,0,332.0,1
156,156,0.4147778845219273,0.4,0.0,0.0,262.0,964.0,0.0,1,254.0,1
157,157,0.27191153524279776,0.3,0.0,0.0,433.0,921.0,0.0,1,446.0,1
158,158,0.5778522519943353,0.6,1.0,1.0,262.0,548.0,1.0,1,270.0,1
159,159,-0.7055465194296096,-0.7,0.0,1.0,296.0,943.0,1.0,0,221.0,1
160,160,0.65423342071626,0.7,1.0,1.0,298.0,741.0,1.0,1,291.0,1
161,161,0.5606168697826824,0.6,1.0,1.0,478.0,996.0,1.0,1,576.0,1
162,162,-0.37996362315333654,-0.4,1.0,0.0,383.0,588.0,0.0,0,469.0,1
163,163,-0.8771490710764172,-0.9,0.0,1.0,350.0,746.0,1.0,0,274.0,1
164,164,0.1670459231955851,0.2,0.0,0.0,269.0,912.0,0.0,1,389.0,1
165,165,0.11816625651063328,0.1,1.0,1.0,457.0,702.0,1.0,1,941.0,1
166,166,0.2735055536241028,0.3,0.0,0.0,310.0,917.0,0.0,1,803.0,1
167,167,0.861542796816876,0.9,0.0,0.0,273.0,807.0,0.0,1,400.0,1
168,168,-0.19028839682126442,-0.2,0.0,1.0,425.0,778.0,1.0,0,1717.0,1
169,169,0.6896261612934792,0.7,0.0,0.0,354.0,544.0,0.0,1,322.0,1
170,170,0.2243256406039854,0.2,0.0,0.0,308.0,882.0,1.0,0,140.0,0
171,171,0.00778671859487623,0.0,0.0,0.0,399.0,624.0,0.0,1,1977.0,1
172,172,-0.8058472895368808,-0.8,0.0,1.0,459.0,842.0,1.0,0,109.0,1
173,173,-0.1189690024265112,-0.1,1.0,0.0,438.0,865.0,0.0,0,1697.0,1
174,174,-0.010656646332495745,-0.0,0.0,1.0,299.0,643.0,1.0,0,2058.0,1
175,175,0.8022464445569021,0.8,0.0,0.0,457.0,993.0,0.0,1,240.0,1
176,176,-0.5857008945858827,-0.6,0.0,1.0,252.0,964.0,1.0,0,204.0,1
177,177,0.6027455454855927,0.6,1.0,1.0,317.0,650.0,1.0,1,363.0,1
178,178,-0.22176472945798464,-0.2,0.0,1.0,485.0,934.0,1.0,0,871.0,1
179,179,0.6738263754179933,0.7,0.0,0.0,379.0,740.0,0.0,1,201.0,1
180,180,-0.6245951953274695,-0.6,0.0,1.0,363.0,786.0,1.0,0,151.0,1
181,181,-0.5576554140753083,-0.6,0.0,1.0,380.0,620.0,1.0,0,210.0,1
182,182,0.7285335367547573,0.7,0.0,0.0,252.0,640.0,0.0,1,318.0,1
183,183,-0.30475910941683537,-0.3,1.0,0.0,292.0,580.0,0.0,0,818.0,1
184,184,0.21352317339530968,0.2,0.0,0.0,344.0,730.0,0.0,1,1846.0,1
185,185,0.38417742417856815,0.4,1.0,1.0,370.0,502.0,1.0,1,638.0,1
186,186,-0.25546249131925425,-0.3,1.0,0.0,439.0,963.0,0.0,0,1328.0,1
187,187,-0.8233713159168315,-0.8,1.0,0.0,347.0,508.0,0.0,0,225.0,1
188,188,0.4179342160093912,0.4,1.0,1.0,435.0,648.0,1.0,1,117.0,1
189,189,-0.7662324764402454,-0.8,0.0,1.0,369.0,847.0,1.0,0,194.0,1
190,190,0.6868489374208472,0.7,1.0,1.0,433.0,815.0,1.0,1,122.0,1
191,191,-0.7683681455556177,-0.8,1.0,0.0,448.0,681.0,0.0,0,291.0,1
192,192,-0.7324363978047901,-0.7,0.0,1.0,306.0,716.0,1.0,0,358.0,1
193,193,-0.877985349648075,-0.9,0.0,1.0,350.0,522.0,1.0,0,238.0,1
194,194,0.7656755236800384,0.8,1.0,1.0,303.0,884.0,1.0,1,293.0,1
195,195,-0.8392043017722738,-0.8,1.0,0.0,394.0,813.0,0.0,0,603.0,1
196,196,-0.02751122879103607,-0.0,1.0,0.0,258.0,822.0,0.0,0,1920.0,1
197,197,-0.4846352959758683,-0.5,0.0,1.0,476.0,614.0,1.0,0,840.0,1
198,198,-0.35798233329921414,-0.4,1.0,0.0,355.0,684.0,0.0,0,591.0,1
199,199,-0.33847387928751516,-0.3,0.0,1.0,471.0,774.0,1.0,0,515.0,1
200,200,-0.4916015811532503,-0.5,1.0,0.0,329.0,773.0,0.0,0,668.0,1
201,201,-0.5666053217217086,-0.6,1.0,0.0,425.0,504.0,0.0,0,461.0,1
202,202,0.05523983712878411,0.1,0.0,0.0,433.0,779.0,0.0,1,1788.0,1
203,203,-0.224920937800404,-0.2,0.0,1.0,379.0,848.0,1.0,0,843.0,1
204,204,0.1909001158044833,0.2,1.0,1.0,361.0,684.0,1.0,1,935.0,1
205,205,-0.7021702575040054,-0.7,0.0,1.0,283.0,935.0,1.0,0,572.0,1
206,206,-0.7447371723121624,-0.7,1.0,0.0,262.0,995.0,0.0,0,273.0,1
207,207,-0.3260611225628375,-0.3,0.0,1.0,469.0,980.0,1.0,0,561.0,1
208,208,0.29028944097763343,0.3,0.0,0.0,361.0,912.0,0.0,1,787.0,1
209,209,-0.5684486141269159,-0.6,1.0,0.0,318.0,720.0,0.0,0,542.0,1
210,210,0.37227120116261736,0.4,1.0,1.0,362.0,552.0,1.0,1,256.0,1
211,211,-0.8291283350489006,-0.8,1.0,0.0,458.0,708.0,0.0,0,314.0,1
212,212,-0.45478964696452295,-0.5,0.0,1.0,261.0,729.0,1.0,0,200.0,1
213,213,-0.7638825336680907,-0.8,1.0,0.0,260.0,669.0,0.0,0,191.0,1
214,214,-0.609516534197323,-0.6,0.0,1.0,346.0,746.0,1.0,0,268.0,1
215,215,-0.2444366392859706,-0.2,0.0,1.0,378.0,615.0,1.0,0,297.0,1
216,216,-0.31747628916159076,-0.3,1.0,0.0,363.0,566.0,0.0,0,511.0,1
217,217,0.16561230440245367,0.2,0.0,0.0,351.0,575.0,0.0,1,124.0,1
218,218,-0.5584022328384632,-0.6,0.0,1.0,343.0,769.0,1.0,0,348.0,1
219,219,-0.8262560989219382,-0.8,0.0,1.0,440.0,892.0,1.0,0,278.0,1
220,220,-0.16266265040470895,-0.2,0.0,1.0,464.0,583.0,1.0,0,1953.0,1
221,221,0.8236843306429446,0.8,1.0,1.0,288.0,758.0,1.0,1,224.0,1
222,222,-0.3047998955246348,-0.3,0.0,1.0,324.0,750.0,1.0,0,376.0,1
223,223,-0.04716871730778782,-0.0,1.0,0.0,332.0,685.0,0.0,0,1273.0,1
224,224,0.4245171716513575,0.4,0.0,0.0,269.0,698.0,0.0,1,383.0,1
225,225,0.3050956067340399,0.3,1.0,1.0,429.0,954.0,1.0,1,897.0,1
226,226,0.8624616787785676,0.9,1.0,1.0,333.0,523.0,1.0,1,194.0,1
227,227,0.8849730250396032,0.9,1.0,1.0,293.0,663.0,1.0,1,244.0,1
228,228,-0.17593755172253656,-0.2,0.0,1.0,389.0,865.0,1.0,0,386.0,1
229,229,-0.4554261310770738,-0.5,0.0,1.0,453.0,773.0,1.0,0,54.0,1
230,230,-0.6508246539056339,-0.7,0.0,1.0,494.0,538.0,1.0,0,388.0,1
231,231,0.6045839004561541,0.6,0.0,0.0,366.0,577.0,0.0,1,167.0,1
232,232,0.696728077169937,0.7,0.0,0.0,271.0,703.0,0.0,1,206.0,1
233,233,0.12544873137941404,0.1,1.0,1.0,295.0,858.0,1.0,1,1797.0,1
234,234,-0.09653537259402156,-0.1,1.0,0.0,279.0,877.0,0.0,0,1844.0,1
235,235,-0.5590399133198283,-0.6,0.0,1.0,275.0,820.0,1.0,0,325.0,1
236,236,-0.717805728042464,-0.7,0.0,1.0,463.0,542.0,1.0,0,175.0,1
237,237,-0.3266970809440273,-0.3,0.0,1.0,397.0,512.0,1.0,0,301.0,1
238,238,-0.47230073398755634,-0.5,0.0,1.0,438.0,909.0,1.0,0,353.0,1
239,239,0.727445251037344,0.7,0.0,0.0,281.0,568.0,0.0,1,431.0,1
240,240,-0.6838721263234033,-0.7,0.0,1.0,492.0,817.0,1.0,0,121.0,1
241,241,0.3761485877623879,0.4,1.0,1.0,483.0,707.0,1.0,1,510.0,1
242,242,-0.524309451219444,-0.5,1.0,0.0,426.0,636.0,0.0,0,308.0,1
243,243,0.08884308816608788,0.1,0.0,0.0,403.0,817.0,0.0,1,1780.0,1
244,244,0.5084202438898576,0.5,1.0,1.0,278.0,602.0,1.0,1,370.0,1
245,245,-0.0750912227298669,-0.1,1.0,0.0,415.0,612.0,0.0,0,1973.0,1
246,246,0.30449297821414245,0.3,0.0,0.0,294.0,513.0,0.0,1,303.0,1
247,247,-0.798828948845568,-0.8,0.0,1.0,341.0,855.0,1.0,0,134.0,1
248,248,0.7943073244895328,0.8,0.0,0.0,427.0,764.0,0.0,1,99.0,1
249,249,-0.48891820079503895,-0.5,0.0,1.0,281.0,779.0,1.0,0,540.0,1
250,250,-0.15522377671239196,-0.2,1.0,0.0,290.0,987.0,0.0,0,1033.0,1
251,251,0.66985829423618,0.7,0.0,0.0,428.0,547.0,0.0,1,275.0,1
252,252,0.2917776392173953,0.3,0.0,0.0,313.0,780.0,0.0,1,177.0,1
253,253,0.6453540061728053,0.6,0.0,0.0,479.0,813.0,0.0,1,348.0,1
254,254,-0.8744467106321956,-0.9,0.0,1.0,279.0,931.0,1.0,0,110.0,1
255,255,-0.27112755154655244,-0.3,0.0,1.0,449.0,783.0,1.0,0,1008.0,1
256,256,-0.6891001854059389,-0.7,1.0,0.0,498.0,873.0,0.0,0,209.0,1
257,257,0.3328705493084164,0.3,0.0,0.0,495.0,923.0,0.0,1,732.0,1
258,258,0.2982776813007416,0.3,1.0,1.0,383.0,505.0,1.0,1,182.0,1
259,259,-0.7307030674341609,-0.7,0.0,1.0,334.0,642.0,1.0,0,364.0,1
260,260,-0.5993075987481664,-0.6,1.0,0.0,346.0,729.0,0.0,0,455.0,1
261,261,0.28181077136083676,0.3,0.0,0.0,419.0,650.0,0.0,1,681.0,1
262,262,-0.034780558223407976,-0.0,1.0,0.0,286.0,783.0,0.0,0,1931.0,1
263,263,0.1435912344128797,0.1,1.0,1.0,336.0,563.0,0.0,0,2101.0,0
264,264,0.7025282427457259,0.7,1.0,1.0,361.0,780.0,1.0,1,169.0,1
265,265,0.3293845116668602,0.3,0.0,0.0,495.0,528.0,0.0,1,437.0,1
266,266,0.8530359196823233,0.9,1.0,1.0,421.0,732.0,1.0,1,97.0,1
267,267,0.47772066780190314,0.5,0.0,0.0,431.0,943.0,0.0,1,396.0,1
268,268,0.8036842613605476,0.8,0.0,0.0,303.0,786.0,0.0,1,401.0,1
269,269,-0.20964013268568915,-0.2,0.0,1.0,498.0,758.0,1.0,0,1744.0,1
270,270,-0.33605261413169596,-0.3,0.0,1.0,494.0,752.0,1.0,0,704.0,1
271,271,-0.20646403297380755,-0.2,1.0,0.0,282.0,556.0,0.0,0,2162.0,1
272,272,0.06894302226139992,0.1,0.0,0.0,491.0,549.0,0.0,1,1960.0,1
273,273,-0.277089265753129,-0.3,1.0,0.0,382.0,606.0,0.0,0,532.0,1
274,274,-0.5941468841298883,-0.6,1.0,0.0,370.0,542.0,0.0,0,288.0,1
275,275,-0.3941920286534619,-0.4,1.0,0.0,384.0,736.0,0.0,0,980.0,1
276,276,0.30410266709765,0.3,1.0,1.0,289.0,542.0,1.0,1,709.0,1
277,277,0.20438803824493268,0.2,0.0,0.0,405.0,972.0,0.0,1,823.0,1
278,278,0.48854310822072844,0.5,0.0,0.0,462.0,754.0,0.0,1,744.0,1
279,279,-0.46175861178275956,-0.5,1.0,0.0,471.0,945.0,0.0,0,294.0,1
280,280,-0.006299644448929942,-0.0,1.0,0.0,321.0,789.0,0.0,0,1890.0,1
281,281,0.17672903809404483,0.2,1.0,1.0,438.0,645.0,1.0,1,1407.0,1
282,282,0.682868420811107,0.7,1.0,1.0,341.0,604.0,1.0,1,265.0,1
283,283,0.344770936587688,0.3,0.0,0.0,420.0,910.0,0.0,1,700.0,1
284,284,-0.5391127116819923,-0.5,0.0,1.0,313.0,780.0,1.0,0,387.0,1
285,285,-0.23300544256816924,-0.2,1.0,0.0,389.0,715.0,0.0,0,1896.0,1
286,286,0.7202317673163411,0.7,1.0,1.0,271.0,814.0,1.0,1,485.0,1
287,287,-0.015305444593857853,-0.0,0.0,1.0,498.0,693.0,1.0,0,1809.0,1
288,288,-0.4818071641743189,-0.5,0.0,1.0,379.0,756.0,1.0,0,675.0,1
289,289,-0.38093873918562215,-0.4,1.0,0.0,309.0,661.0,0.0,0,680.0,1
290,290,0.39090357890653904,0.4,0.0,0.0,466.0,722.0,0.0,1,882.0,1
291,291,0.8063592595913426,0.8,1.0,1.0,455.0,946.0,1.0,1,259.0,1
292,292,-0.6512915393410967,-0.7,1.0,0.0,392.0,833.0,0.0,0,375.0,1
293,293,0.3042281820483864,0.3,0.0,0.0,403.0,943.0,0.0,1,874.0,1
294,294,-0.3778064106057415,-0.4,0.0,1.0,443.0,843.0,1.0,0,494.0,1
295,295,0.3600114090928993,0.4,1.0,1.0,391.0,880.0,1.0,1,759.0,1
296,296,-0.2773705507367096,-0.3,1.0,0.0,362.0,620.0,0.0,0,1218.0,1
297,297,0.7778182819137746,0.8,0.0,0.0,425.0,571.0,0.0,1,184.0,1
298,298,0.18793781070657334,0.2,0.0,0.0,495.0,771.0,0.0,1,914.0,1
299,299,0.49864135454499536,0.5,1.0,1.0,380.0,682.0,1.0,1,328.0,1
300,300,0.3848412831779072,0.4,1.0,1.0,316.0,572.0,1.0,1,1002.0,1
301,301,-0.6551130836907174,-0.7,0.0,1.0,317.0,683.0,1.0,0,500.0,1
302,302,-0.37285408857111946,-0.4,0.0,1.0,290.0,705.0,1.0,0,495.0,1
303,303,0.3158348431961383,0.3,0.0,0.0,430.0,982.0,0.0,1,138.0,1
304,304,-0.15676670915617386,-0.2,1.0,0.0,481.0,807.0,0.0,0,362.0,1
305,305,0.39142387695994996,0.4,1.0,1.0,499.0,987.0,1.0,1,904.0,1
306,306,-0.43203453339076897,-0.4,1.0,0.0,288.0,589.0,0.0,0,353.0,1
307,307,0.4107904523287301,0.4,0.0,0.0,432.0,733.0,0.0,1,265.0,1
308,308,0.3490936612966581,0.3,0.0,0.0,266.0,622.0,0.0,1,1012.0,1
309,309,0.6531927858003642,0.7,1.0,1.0,364.0,558.0,1.0,1,348.0,1
310,310,0.39698576772743255,0.4,0.0,0.0,284.0,599.0,0.0,1,287.0,1
311,311,0.6722918198521376,0.7,1.0,1.0,433.0,614.0,1.0,1,403.0,1
312,312,-0.48619816387157044,-0.5,0.0,1.0,429.0,775.0,1.0,0,196.0,1
313,313,-0.7885694543518252,-0.8,0.0,1.0,410.0,555.0,1.0,0,235.0,1
314,314,-0.3160632980856668,-0.3,1.0,0.0,297.0,919.0,0.0,0,804.0,1
315,315,0.09299224803057882,0.1,0.0,0.0,409.0,611.0,0.0,1,1980.0,1
316,316,-0.8486891176745069,-0.8,1.0,0.0,313.0,969.0,0.0,0,208.0,1
317,317,0.5659163561847226,0.6,0.0,0.0,436.0,883.0,0.0,1,261.0,1
318,318,-0.03257832114256198,-0.0,0.0,1.0,297.0,573.0,0.0,1,830.0,0
319,319,0.8572634410887822,0.9,1.0,1.0,349.0,912.0,1.0,1,529.0,1
320,320,-0.026286050875846456,-0.0,0.0,1.0,493.0,597.0,1.0,0,1910.0,1
321,321,0.2587499444476312,0.3,1.0,1.0,290.0,849.0,1.0,1,611.0,1
322,322,-0.6222134145184532,-0.6,1.0,0.0,383.0,847.0,0.0,0,720.0,1
323,323,0.4557670256600538,0.5,0.0,0.0,275.0,950.0,0.0,1,205.0,1
324,324,0.3143741343653902,0.3,1.0,1.0,341.0,789.0,1.0,1,280.0,1
325,325,-0.09788312363594565,-0.1,1.0,0.0,412.0,607.0,0.0,0,1981.0,1
326,326,0.3269863836444268,0.3,0.0,0.0,253.0,938.0,0.0,1,489.0,1
327,327,0.5357584050220606,0.5,0.0,0.0,359.0,691.0,0.0,1,130.0,1
328,328,-0.3798909446663393,-0.4,0.0,1.0,421.0,732.0,1.0,0,607.0,1
329,329,-0.7525807408262473,-0.8,0.0,1.0,374.0,917.0,1.0,0,249.0,1
330,330,0.7666278393757201,0.8,0.0,0.0,448.0,619.0,0.0,1,323.0,1
331,331,0.735663100345589,0.7,0.0,0.0,285.0,849.0,0.0,1,66.0,1
332,332,-0.5531395780525694,-0.6,0.0,1.0,400.0,897.0,1.0,0,183.0,1
333,333,-0.5241142125337092,-0.5,0.0,1.0,395.0,599.0,1.0,0,336.0,1
334,334,0.07783961583423793,0.1,0.0,0.0,491.0,877.0,0.0,1,1632.0,1
335,335,-0.7355324546210971,-0.7,0.0,1.0,279.0,954.0,1.0,0,247.0,1
336,336,0.02476427806839243,0.0,1.0,1.0,346.0,917.0,1.0,1,1737.0,1
337,337,0.1817617245441453,0.2,0.0,0.0,373.0,601.0,0.0,1,2026.0,1
338,338,0.37995644077299706,0.4,0.0,0.0,392.0,770.0,0.0,1,978.0,1
339,339,0.6027391647868253,0.6,0.0,0.0,311.0,908.0,0.0,1,451.0,1
340,340,0.4535022302576256,0.5,0.0,0.0,407.0,582.0,0.0,1,691.0,1
341,341,0.037781012014612814,0.0,0.0,0.0,438.0,989.0,0.0,1,1573.0,1
342,342,-0.08910054903800779,-0.1,0.0,1.0,410.0,892.0,1.0,0,1698.0,1
343,343,-0.6271160540882048,-0.6,1.0,0.0,285.0,539.0,0.0,0,656.0,1
344,344,-0.6307125791306525,-0.6,1.0,0.0,269.0,975.0,0.0,0,366.0,1
345,345,0.5815355390443254,0.6,1.0,1.0,379.0,852.0,1.0,1,349.0,1
346,346,-0.5771585188763386,-0.6,1.0,0.0,383.0,666.0,0.0,0,161.0,1
347,347,-0.3242595945157468,-0.3,0.0,1.0,375.0,782.0,1.0,0,783.0,1
348,348,-0.3264697811177516,-0.3,1.0,0.0,465.0,993.0,0.0,0,352.0,1
349,349,0.47897071032220284,0.5,0.0,0.0,383.0,600.0,0.0,1,437.0,1
350,350,0.7396489490110413,0.7,0.0,0.0,356.0,894.0,0.0,1,500.0,1
351,351,0.8232329546397,0.8,1.0,1.0,276.0,928.0,1.0,1,186.0,1
352,352,0.7977198109114781,0.8,1.0,1.0,384.0,615.0,1.0,1,331.0,1
353,353,0.1738931504837128,0.2,0.0,0.0,443.0,503.0,0.0,1,1494.0,1
354,354,-0.40796348562707513,-0.4,1.0,0.0,494.0,522.0,0.0,0,474.0,1
355,355,-0.2619130105366759,-0.3,0.0,1.0,313.0,757.0,1.0,0,570.0,1
356,356,0.6999740982593835,0.7,1.0,1.0,300.0,912.0,1.0,1,198.0,1
357,357,0.7232757131252135,0.7,1.0,1.0,458.0,757.0,1.0,1,115.0,1
358,358,0.7052178442293476,0.7,0.0,0.0,304.0,942.0,0.0,1,154.0,1
359,359,0.6563299445446161,0.7,1.0,1.0,364.0,693.0,1.0,1,193.0,1
360,360,0.19688170094627877,0.2,0.0,0.0,361.0,821.0,0.0,1,498.0,1
361,361,0.802308741824492,0.8,1.0,1.0,411.0,864.0,1.0,1,165.0,1
362,362,0.4681502544547428,0.5,0.0,0.0,417.0,664.0,0.0,1,449.0,1
363,363,-0.3990215737369739,-0.4,0.0,1.0,318.0,994.0,1.0,0,188.0,1
364,364,0.384824589225674,0.4,0.0,0.0,357.0,725.0,0.0,1,198.0,1
365,365,-0.42239990538756716,-0.4,0.0,1.0,455.0,759.0,1.0,0,386.0,1
366,366,-0.2912172168912165,-0.3,1.0,0.0,304.0,834.0,0.0,0,962.0,1
367,367,-0.4228788852752087,-0.4,0.0,1.0,309.0,695.0,1.0,0,466.0,1
368,368,0.029663784965492046,0.0,1.0,1.0,418.0,857.0,0.0,0,1725.0,0
369,369,0.5348795272892556,0.5,1.0,1.0,317.0,815.0,1.0,1,208.0,1
370,370,-0.23734591517275272,-0.2,1.0,0.0,456.0,981.0,0.0,0,1543.0,1
371,371,0.5402836635334264,0.5,0.0,0.0,313.0,530.0,0.0,1,427.0,1
372,372,0.7305897774224895,0.7,1.0,1.0,329.0,596.0,1.0,1,295.0,1
373,373,0.23088085800747893,0.2,0.0,0.0,436.0,693.0,0.0,1,841.0,1
374,374,0.8568298119601817,0.9,1.0,1.0,427.0,500.0,1.0,1,283.0,1
375,375,0.5108453077575198,0.5,0.0,0.0,347.0,606.0,0.0,1,327.0,1
376,376,-0.3972876439553349,-0.4,0.0,1.0,418.0,685.0,1.0,0,647.0,1
377,377,0.5249226104668857,0.5,1.0,1.0,360.0,587.0,1.0,1,443.0,1
378,378,0.6160092265436662,0.6,1.0,1.0,263.0,539.0,1.0,1,328.0,1
379,379,0.15295361715133404,0.2,1.0,1.0,475.0,635.0,1.0,1,790.0,1
380,380,0.7320082482548153,0.7,1.0,1.0,412.0,624.0,1.0,1,304.0,1
381,381,-0.642322480729697,-0.6,1.0,0.0,455.0,507.0,0.0,0,188.0,1
382,382,0.7402174808647372,0.7,0.0,0.0,477.0,579.0,0.0,1,244.0,1
383,383,-0.6712926268987593,-0.7,1.0,0.0,421.0,830.0,0.0,0,369.0,1
384,384,0.4643722347694642,0.5,0.0,0.0,415.0,961.0,0.0,1,664.0,1
385,385,0.7793736301259587,0.8,0.0,0.0,409.0,578.0,0.0,1,283.0,1
386,386,-0.37187591937898534,-0.4,0.0,1.0,403.0,791.0,1.0,0,186.0,1
387,387,-0.5270386932544571,-0.5,1.0,0.0,280.0,819.0,0.0,0,181.0,1
388,388,0.41613725254638345,0.4,1.0,1.0,444.0,928.0,1.0,1,248.0,1
389,389,-0.6545239487187225,-0.7,1.0,0.0,343.0,900.0,1.0,1,37.0,0
390,390,-0.5767621626314526,-0.6,0.0,1.0,446.0,599.0,1.0,0,235.0,1
391,391,-0.2752193428947013,-0.3,1.0,0.0,329.0,945.0,0.0,0,746.0,1
392,392,-0.5382225796557768,-0.5,0.0,1.0,379.0,776.0,1.0,0,255.0,1
393,393,-0.4377717856879855,-0.4,0.0,1.0,271.0,705.0,1.0,0,544.0,1
394,394,0.3540051039679063,0.4,0.0,0.0,455.0,614.0,0.0,1,511.0,1
395,395,0.5939095940572966,0.6,0.0,0.0,391.0,645.0,0.0,1,304.0,1
396,396,0.6970506810858234,0.7,1.0,1.0,407.0,808.0,1.0,1,255.0,1
397,397,-0.451762932240932,-0.5,1.0,0.0,458.0,868.0,0.0,0,614.0,1
398,398,0.23250211387118658,0.2,0.0,0.0,287.0,818.0,0.0,1,1085.0,1
399,399,-0.7736880225507313,-0.8,0.0,1.0,488.0,546.0,1.0,0,116.0,1
400,400,-0.5817336804431601,-0.6,0.0,1.0,471.0,715.0,1.0,0,294.0,1
401,401,-0.6837098843338815,-0.7,1.0,0.0,461.0,713.0,0.0,0,276.0,1
402,402,-0.1994349320888953,-0.2,0.0,1.0,259.0,636.0,1.0,0,335.0,1
403,403,-0.6558966599861551,-0.7,0.0,1.0,395.0,938.0,1.0,0,227.0,1
404,404,0.8471168690545315,0.8,0.0,0.0,271.0,971.0,0.0,1,118.0,1
405,405,0.13807778447711738,0.1,1.0,1.0,363.0,857.0,1.0,1,830.0,1
406,406,0.36180898339267265,0.4,1.0,1.0,420.0,788.0,1.0,1,842.0,1
407,407,0.722091157677028,0.7,0.0,0.0,332.0,997.0,0.0,1,151.0,1
408,408,-0.36551398790624046,-0.4,0.0,1.0,295.0,618.0,1.0,0,1127.0,1
409,409,-0.4844087238213696,-0.5,0.0,1.0,377.0,619.0,1.0,0,364.0,1
410,410,-0.8560587199951992,-0.9,1.0,0.0,444.0,917.0,0.0,0,149.0,1
411,411,-0.4184371983388506,-0.4,0.0,1.0,354.0,610.0,1.0,0,546.0,1
412,412,0.8379270462204548,0.8,1.0,1.0,394.0,706.0,1.0,1,290.0,1
413,413,0.358334150237677,0.4,0.0,0.0,343.0,605.0,0.0,1,892.0,1
414,414,0.12129796156304573,0.1,1.0,1.0,381.0,632.0,0.0,0,1987.0,0
415,415,-0.3926486350446111,-0.4,0.0,1.0,267.0,570.0,1.0,0,163.0,1
416,416,-0.26837161987525526,-0.3,1.0,0.0,272.0,770.0,0.0,0,528.0,1
417,417,0.5349857933604011,0.5,1.0,1.0,447.0,906.0,1.0,1,367.0,1
418,418,0.27343154581944284,0.3,1.0,1.0,251.0,929.0,1.0,1,630.0,1
419,419,0.24397300092439844,0.2,0.0,0.0,341.0,761.0,0.0,1,528.0,1
420,420,0.3197626535344714,0.3,0.0,0.0,484.0,551.0,0.0,1,385.0,1
421,421,-0.6435661991263275,-0.6,0.0,1.0,315.0,805.0,1.0,0,800.0,1
422,422,0.01896558638860857,0.0,0.0,0.0,326.0,538.0,0.0,1,866.0,1
423,423,-0.07241094007687932,-0.1,1.0,0.0,255.0,856.0,0.0,0,1469.0,1
424,424,0.8497907542378579,0.8,1.0,1.0,256.0,970.0,1.0,1,134.0,1
425,425,-0.17410572532475577,-0.2,1.0,0.0,321.0,598.0,0.0,0,2081.0,1
426,426,-0.3834828502237837,-0.4,1.0,0.0,291.0,909.0,0.0,0,390.0,1
427,427,-0.5922579711440481,-0.6,0.0,1.0,453.0,804.0,1.0,0,273.0,1
428,428,0.7808337345039996,0.8,1.0,1.0,433.0,921.0,1.0,1,276.0,1
429,429,0.5987693397456958,0.6,0.0,0.0,317.0,630.0,0.0,1,443.0,1
430,430,-0.6675128354645354,-0.7,1.0,0.0,302.0,911.0,0.0,0,437.0,1
431,431,-0.7342622683325047,-0.7,0.0,1.0,376.0,772.0,1.0,0,382.0,1
432,432,-0.22056081472721834,-0.2,0.0,1.0,339.0,890.0,1.0,0,1571.0,1
433,433,0.5531046587568077,0.6,1.0,1.0,261.0,841.0,1.0,1,178.0,1
434,434,0.05692004823712993,0.1,1.0,1.0,325.0,653.0,1.0,1,2022.0,1
435,435,-0.038705373109666374,-0.0,0.0,1.0,374.0,641.0,1.0,0,1535.0,1
436,436,-0.6869005995785724,-0.7,1.0,0.0,250.0,881.0,0.0,0,449.0,1
437,437,-0.2921922548205942,-0.3,1.0,0.0,345.0,748.0,0.0,0,1907.0,1
438,438,-0.8271188767423158,-0.8,1.0,0.0,317.0,790.0,0.0,0,483.0,1
439,439,-0.742682150495748,-0.7,1.0,0.0,496.0,571.0,0.0,0,403.0,1
440,440,-0.45901158428135297,-0.5,1.0,0.0,417.0,752.0,0.0,0,421.0,1
441,441,0.4998229804728699,0.5,0.0,0.0,482.0,836.0,0.0,1,392.0,1
442,442,0.7385308262901461,0.7,0.0,0.0,344.0,630.0,0.0,1,256.0,1
443,443,0.3417710973847524,0.3,1.0,1.0,402.0,623.0,1.0,1,785.0,1
444,444,-0.09177506790916945,-0.1,0.0,1.0,385.0,812.0,1.0,0,1803.0,1
445,445,0.29287168348507564,0.3,1.0,1.0,474.0,592.0,1.0,1,664.0,1
446,446,0.45183780274870455,0.5,0.0,0.0,461.0,915.0,0.0,1,304.0,1
447,447,0.3634486369368667,0.4,1.0,1.0,302.0,514.0,1.0,1,734.0,1
448,448,0.11300192158333766,0.1,1.0,1.0,485.0,912.0,1.0,1,1603.0,1
449,449,-0.003777576453401821,-0.0,1.0,0.0,349.0,951.0,0.0,0,1700.0,1
450,450,-0.4381005963933833,-0.4,0.0,1.0,254.0,827.0,1.0,0,319.0,1
451,451,-0.8663302776288836,-0.9,0.0,1.0,493.0,732.0,1.0,0,265.0,1
452,452,0.5606938050506888,0.6,0.0,0.0,415.0,944.0,0.0,1,521.0,1
453,453,0.18810507698754664,0.2,0.0,0.0,466.0,619.0,0.0,1,765.0,1
454,454,0.7147231647052489,0.7,1.0,1.0,361.0,899.0,1.0,1,240.0,1
455,455,-0.528297600358888,-0.5,0.0,1.0,447.0,723.0,1.0,0,280.0,1
456,456,-0.6529607612996194,-0.7,1.0,0.0,462.0,820.0,0.0,0,298.0,1
457,457,0.21298827610620485,0.2,1.0,1.0,417.0,630.0,1.0,1,433.0,1
458,458,-0.22679563204460418,-0.2,1.0,0.0,269.0,786.0,0.0,0,1225.0,1
459,459,0.12723286738708584,0.1,1.0,1.0,386.0,763.0,1.0,1,631.0,1
460,460,-0.4043161233442873,-0.4,1.0,0.0,259.0,500.0,0.0,0,1481.0,1
461,461,-0.276611812616126,-0.3,1.0,0.0,458.0,901.0,0.0,0,561.0,1
462,462,-0.7131454571217749,-0.7,0.0,1.0,323.0,784.0,1.0,0,243.0,1
463,463,0.6431273415079127,0.6,0.0,0.0,442.0,682.0,0.0,1,256.0,1
464,464,-0.38387904727678057,-0.4,1.0,0.0,252.0,582.0,0.0,0,336.0,1
465,465,0.563240532821537,0.6,1.0,1.0,287.0,622.0,1.0,1,711.0,1
466,466,-0.053892400791664796,-0.1,0.0,1.0,433.0,739.0,1.0,0,1828.0,1
467,467,-0.004329520386935348,-0.0,1.0,0.0,413.0,554.0,0.0,0,2033.0,1
468,468,0.714774524180113,0.7,1.0,1.0,349.0,565.0,1.0,1,136.0,1
469,469,0.2725257939339655,0.3,0.0,0.0,435.0,645.0,0.0,1,1920.0,1
470,470,-0.6114453569852175,-0.6,1.0,0.0,321.0,700.0,0.0,0,139.0,1
471,471,0.623527637579219,0.6,1.0,1.0,474.0,934.0,1.0,1,422.0,1
472,472,-0.6553420131781433,-0.7,1.0,0.0,384.0,964.0,0.0,0,232.0,1
473,473,-0.8508511384276831,-0.9,1.0,0.0,360.0,903.0,0.0,0,197.0,1
474,474,-0.7629514192404462,-0.8,1.0,0.0,476.0,920.0,0.0,0,144.0,1
475,475,0.3435714601146488,0.3,1.0,1.0,268.0,761.0,1.0,1,401.0,1
476,476,-0.08450415775866693,-0.1,0.0,1.0,360.0,974.0,0.0,1,-214.0,0
477,477,0.6018849645413816,0.6,0.0,0.0,309.0,930.0,0.0,1,211.0,1
478,478,-0.39873354004166883,-0.4,0.0,1.0,437.0,821.0,1.0,0,582.0,1
479,479,0.6308435801308087,0.6,1.0,1.0,441.0,660.0,1.0,1,299.0,1
480,480,0.05789471704112348,0.1,1.0,1.0,374.0,857.0,0.0,0,1769.0,0
481,481,0.22857355633213927,0.2,0.0,0.0,281.0,678.0,0.0,1,1801.0,1
482,482,-0.6585425226569624,-0.7,0.0,1.0,322.0,576.0,1.0,0,592.0,1
483,483,0.796187447035075,0.8,0.0,0.0,419.0,973.0,0.0,1,158.0,1
484,484,-0.16329847893881388,-0.2,1.0,0.0,402.0,727.0,0.0,0,1151.0,1
485,485,-0.6709419118133956,-0.7,1.0,0.0,350.0,948.0,0.0,0,172.0,1
486,486,0.2535204649857449,0.3,1.0,1.0,477.0,961.0,1.0,1,932.0,1
487,487,-0.1287827344019622,-0.1,0.0,1.0,423.0,585.0,1.0,0,812.0,1
488,488,-0.3592033822433477,-0.4,1.0,0.0,451.0,938.0,0.0,0,361.0,1
489,489,-0.6687598953471827,-0.7,1.0,0.0,312.0,802.0,0.0,0,1206.0,1
490,490,-0.4973830179917108,-0.5,1.0,0.0,326.0,552.0,0.0,0,562.0,1
491,491,0.40029086711135753,0.4,0.0,0.0,425.0,680.0,0.0,1,565.0,1
492,492,0.4111164767114964,0.4,1.0,1.0,366.0,859.0,1.0,1,245.0,1
493,493,0.8783703250254796,0.9,0.0,0.0,276.0,714.0,0.0,1,160.0,1
494,494,0.3353955467391584,0.3,0.0,0.0,272.0,974.0,0.0,1,664.0,1
495,495,0.006153742658424499,0.0,0.0,0.0,485.0,697.0,1.0,0,1818.0,0
496,496,0.17635827507062418,0.2,0.0,0.0,315.0,624.0,0.0,1,341.0,1
497,497,-0.39068504611922095,-0.4,1.0,0.0,479.0,639.0,0.0,0,282.0,1
498,498,0.12179784447067277,0.1,1.0,1.0,324.0,964.0,1.0,1,1272.0,1
499,499,-0.21055079764449514,-0.2,1.0,0.0,413.0,625.0,0.0,0,722.0,1
500,500,-0.14841654832615936,-0.1,0.0,1.0,320.0,791.0,1.0,0,1889.0,1
501,501,-0.7542920883925553,-0.8,0.0,1.0,311.0,577.0,1.0,0,272.0,1
502,502,0.4829924421558093,0.5,0.0,0.0,402.0,921.0,0.0,1,367.0,1
503,503,-0.2915136760965722,-0.3,1.0,0.0,430.0,701.0,0.0,0,1869.0,1
504,504,0.8335064556456232,0.8,0.0,0.0,304.0,544.0,0.0,1,432.0,1
505,505,0.21429763514940425,0.2,1.0,1.0,486.0,729.0,1.0,1,935.0,1
506,506,0.5850299379329743,0.6,0.0,0.0,352.0,562.0,0.0,1,416.0,1
507,507,-0.0414504166699875,-0.0,0.0,1.0,390.0,770.0,0.0,1,1840.0,0
508,508,0.7606614744739267,0.8,0.0,0.0,438.0,621.0,0.0,1,131.0,1
509,509,0.1982123521250353,0.2,1.0,1.0,419.0,865.0,1.0,1,1276.0,1
510,510,0.2827965557461579,0.3,1.0,1.0,489.0,567.0,1.0,1,844.0,1
511,511,0.3344726563797876,0.3,0.0,0.0,374.0,569.0,0.0,1,1057.0,1
512,512,0.3627578850337775,0.4,1.0,1.0,419.0,562.0,1.0,1,439.0,1
513,513,-0.331341289520827,-0.3,1.0,0.0,257.0,539.0,0.0,0,724.0,1
514,514,0.7185354006362638,0.7,0.0,0.0,378.0,599.0,0.0,1,273.0,1
515,515,0.3401749743543653,0.3,0.0,0.0,413.0,640.0,0.0,1,487.0,1
516,516,0.4647673964146394,0.5,1.0,1.0,450.0,821.0,1.0,1,219.0,1
517,517,0.4427416915586754,0.4,1.0,1.0,311.0,541.0,1.0,1,608.0,1
518,518,0.07696551466100165,0.1,0.0,0.0,258.0,645.0,0.0,1,1817.0,1
519,519,-0.7614766445260192,-0.8,0.0,1.0,310.0,646.0,1.0,0,304.0,1
520,520,-0.5390368389292572,-0.5,1.0,0.0,477.0,896.0,0.0,0,297.0,1
521,521,0.798277456015673,0.8,1.0,1.0,428.0,502.0,1.0,1,420.0,1
522,522,-0.4729123124896148,-0.5,0.0,1.0,473.0,837.0,1.0,0,260.0,1
523,523,0.06907080073953875,0.1,0.0,0.0,388.0,710.0,0.0,1,1902.0,1
524,524,-0.7264933216760089,-0.7,0.0,1.0,315.0,591.0,1.0,0,314.0,1
525,525,0.3890650977740414,0.4,1.0,1.0,266.0,784.0,1.0,1,450.0,1
526,526,0.1952753861536055,0.2,1.0,1.0,250.0,880.0,1.0,1,840.0,1
527,527,0.7457308003923947,0.7,0.0,0.0,267.0,715.0,0.0,1,258.0,1
528,528,-0.7844971952133584,-0.8,1.0,0.0,490.0,928.0,1.0,1,-318.0,0
529,529,0.36790464523929034,0.4,1.0,1.0,376.0,573.0,1.0,1,371.0,1
530,530,-0.1468630376896659,-0.1,1.0,0.0,301.0,707.0,0.0,0,1992.0,1
531,531,0.187364130419874,0.2,1.0,1.0,305.0,913.0,1.0,1,1212.0,1
532,532,-0.10472635257024421,-0.1,0.0,1.0,474.0,683.0,1.0,0,1493.0,1
533,533,-0.33076290279196463,-0.3,0.0,1.0,444.0,806.0,1.0,0,430.0,1
534,534,-0.8555782913450033,-0.9,1.0,0.0,474.0,603.0,0.0,0,283.0,1
535,535,-0.45367277785593974,-0.5,1.0,0.0,447.0,703.0,0.0,0,440.0,1
536,536,0.4876763680303954,0.5,1.0,1.0,273.0,734.0,1.0,1,253.0,1
537,537,-0.6975572876296452,-0.7,0.0,1.0,358.0,908.0,1.0,0,254.0,1
538,538,0.5297080180771988,0.5,0.0,0.0,362.0,659.0,0.0,1,509.0,1
539,539,0.009291453169660735,0.0,1.0,1.0,402.0,626.0,0.0,0,1972.0,0
540,540,0.27121218696584626,0.3,1.0,1.0,290.0,620.0,1.0,1,1350.0,1
541,541,0.4248408255132218,0.4,0.0,0.0,455.0,964.0,0.0,1,291.0,1
542,542,-0.10106391138017412,-0.1,0.0,1.0,353.0,878.0,1.0,0,1099.0,1
543,543,-0.8520843971310451,-0.9,1.0,0.0,459.0,563.0,0.0,0,318.0,1
544,544,0.8912347204565768,0.9,1.0,1.0,397.0,937.0,1.0,1,176.0,1
545,545,0.07802030641359958,0.1,1.0,1.0,256.0,824.0,1.0,1,1000.0,1
546,546,0.2921203141150265,0.3,0.0,0.0,322.0,677.0,0.0,1,341.0,1
547,547,0.4275413955094455,0.4,0.0,0.0,474.0,780.0,0.0,1,486.0,1
548,548,0.01307966035427044,0.0,1.0,1.0,324.0,750.0,1.0,1,1926.0,1
549,549,0.835268438944078,0.8,1.0,1.0,469.0,707.0,1.0,1,324.0,1
550,550,-0.6152808939992739,-0.6,1.0,0.0,492.0,974.0,0.0,0,214.0,1
551,551,-0.7058908362636732,-0.7,1.0,0.0,294.0,655.0,0.0,0,201.0,1
552,552,-0.6308092448750842,-0.6,0.0,1.0,439.0,837.0,1.0,0,144.0,1
553,553,0.09484272905287527,0.1,0.0,0.0,488.0,504.0,0.0,1,328.0,1
554,554,0.2571226639738332,0.3,1.0,1.0,370.0,938.0,1.0,1,592.0,1
555,555,-0.43076365587292964,-0.4,1.0,0.0,439.0,526.0,0.0,0,295.0,1
556,556,-0.002265792005831213,-0.0,1.0,0.0,456.0,524.0,0.0,0,2020.0,1
557,557,-0.4940546150677264,-0.5,1.0,0.0,361.0,696.0,0.0,0,323.0,1
558,558,0.44154516744373173,0.4,1.0,1.0,489.0,608.0,1.0,1,183.0,1
559,559,-0.1960408788692919,-0.2,0.0,1.0,355.0,529.0,1.0,0,776.0,1
560,560,-0.36171108657843876,-0.4,1.0,0.0,347.0,621.0,0.0,0,552.0,1
561,561,0.09394590962034977,0.1,0.0,0.0,260.0,628.0,0.0,1,1692.0,1
562,562,-0.6618663340816334,-0.7,0.0,1.0,371.0,800.0,1.0,0,449.0,1
563,563,-0.012768928890651732,-0.0,1.0,0.0,455.0,948.0,1.0,1,857.0,0
564,564,0.018224536970179783,0.0,1.0,1.0,409.0,603.0,0.0,0,1988.0,0
565,565,-0.044880114702020135,-0.0,1.0,0.0,414.0,585.0,1.0,1,2001.0,0
566,566,-0.2235244390597837,-0.2,0.0,1.0,280.0,644.0,1.0,0,566.0,1
567,567,0.46128167316108126,0.5,0.0,0.0,462.0,925.0,0.0,1,323.0,1
568,568,-0.7323806637383351,-0.7,1.0,0.0,421.0,847.0,0.0,0,72.0,1
569,569,0.3531266705149826,0.4,1.0,1.0,262.0,532.0,1.0,1,666.0,1
570,570,0.3539439799813332,0.4,0.0,0.0,455.0,789.0,0.0,1,396.0,1
571,571,-0.5861923816890265,-0.6,0.0,1.0,315.0,831.0,1.0,0,164.0,1
572,572,0.560332596986742,0.6,1.0,1.0,279.0,801.0,1.0,1,210.0,1
573,573,-0.8373627293556516,-0.8,1.0,0.0,378.0,735.0,0.0,0,187.0,1
574,574,-0.524195197652499,-0.5,1.0,0.0,467.0,591.0,0.0,0,382.0,1
575,575,0.369946657673493,0.4,1.0,1.0,460.0,952.0,1.0,1,308.0,1
576,576,0.21587281271433978,0.2,1.0,1.0,389.0,787.0,1.0,1,1824.0,1
577,577,0.6870573136292059,0.7,0.0,0.0,341.0,666.0,0.0,1,133.0,1
578,578,-0.6974842114522147,-0.7,0.0,1.0,439.0,674.0,1.0,0,337.0,1
579,579,-0.25334670677761706,-0.3,0.0,1.0,402.0,959.0,1.0,0,429.0,1
580,580,-0.1235714334522543,-0.1,0.0,1.0,334.0,727.0,1.0,0,1939.0,1
581,581,-0.22760951114042505,-0.2,1.0,0.0,392.0,829.0,0.0,0,1779.0,1
582,582,0.15723183083976877,0.2,1.0,1.0,310.0,897.0,1.0,1,303.0,1
583,583,0.5585740193900001,0.6,0.0,0.0,374.0,949.0,0.0,1,187.0,1
584,584,0.10931053822173531,0.1,0.0,0.0,306.0,774.0,0.0,1,1920.0,1
585,585,0.41736905367547783,0.4,0.0,0.0,459.0,546.0,0.0,1,865.0,1
586,586,-0.2144541321034259,-0.2,0.0,1.0,398.0,695.0,1.0,0,577.0,1
587,587,-0.37265696437346774,-0.4,1.0,0.0,406.0,512.0,0.0,0,162.0,1
588,588,0.35591622230027864,0.4,1.0,1.0,384.0,891.0,1.0,1,215.0,1
589,589,0.8817997345242151,0.9,0.0,0.0,466.0,629.0,0.0,1,265.0,1
590,590,-0.48799769253692776,-0.5,0.0,1.0,366.0,897.0,1.0,0,407.0,1
591,591,-0.38956684066286607,-0.4,1.0,0.0,358.0,922.0,0.0,0,570.0,1
592,592,-0.8271588380492638,-0.8,0.0,1.0,409.0,520.0,1.0,0,271.0,1
593,593,-0.14010067887260813,-0.1,0.0,1.0,358.0,615.0,1.0,0,1547.0,1
594,594,0.40060153374304164,0.4,1.0,1.0,460.0,656.0,1.0,1,174.0,1
595,595,-0.7210808438192432,-0.7,0.0,1.0,340.0,974.0,1.0,0,196.0,1
596,596,0.11498248017375234,0.1,1.0,1.0,449.0,908.0,1.0,1,1643.0,1
597,597,-0.3008913626286882,-0.3,1.0,0.0,353.0,835.0,0.0,0,462.0,1
598,598,-0.8903197365934088,-0.9,0.0,1.0,252.0,560.0,1.0,0,288.0,1
599,599,0.6994578443827512,0.7,0.0,0.0,424.0,514.0,0.0,1,332.0,1
600,600,0.24887404705243032,0.2,0.0,0.0,427.0,631.0,0.0,1,992.0,1
601,601,-0.8392163765887141,-0.8,0.0,1.0,357.0,812.0,1.0,0,161.0,1
602,602,-0.8129008193213265,-0.8,0.0,1.0,280.0,732.0,1.0,0,548.0,1
603,603,-0.3392216188436378,-0.3,1.0,0.0,293.0,594.0,0.0,0,423.0,1
604,604,-0.34552536757633057,-0.3,0.0,1.0,319.0,670.0,1.0,0,951.0,1
605,605,-0.33340331404653456,-0.3,0.0,1.0,456.0,855.0,1.0,0,549.0,1
606,606,-0.028651262727048987,-0.0,0.0,1.0,366.0,908.0,0.0,1,1726.0,0
607,607,0.08756222087216947,0.1,1.0,1.0,476.0,949.0,1.0,1,1575.0,1
608,608,0.7841790895521566,0.8,0.0,0.0,469.0,959.0,0.0,1,152.0,1
609,609,0.6004149203252162,0.6,0.0,0.0,483.0,742.0,0.0,1,185.0,1
610,610,0.5771223170176484,0.6,1.0,1.0,376.0,940.0,1.0,1,114.0,1
611,611,0.05942147350689686,0.1,1.0,1.0,388.0,899.0,1.0,1,563.0,1
612,612,0.5802453958196795,0.6,0.0,0.0,474.0,625.0,0.0,1,101.0,1
613,613,-0.5909415932908997,-0.6,0.0,1.0,270.0,862.0,1.0,0,288.0,1
614,614,-0.7770081647507608,-0.8,0.0,1.0,407.0,514.0,1.0,0,299.0,1
615,615,-0.2785934324389501,-0.3,0.0,1.0,281.0,883.0,1.0,0,1016.0,1
616,616,0.4254255454025232,0.4,1.0,1.0,357.0,795.0,1.0,1,228.0,1
617,617,-0.8180519440587972,-0.8,0.0,1.0,373.0,924.0,1.0,0,303.0,1
618,618,0.8159390472515736,0.8,1.0,1.0,373.0,965.0,1.0,1,52.0,1
619,619,-0.506673298716424,-0.5,0.0,1.0,396.0,708.0,1.0,0,286.0,1
620,620,-0.5862304985991353,-0.6,1.0,0.0,440.0,879.0,0.0,0,321.0,1
621,621,-0.4901839435542838,-0.5,0.0,1.0,259.0,551.0,1.0,0,480.0,1
622,622,0.048165502713755415,0.0,1.0,1.0,383.0,591.0,1.0,1,2026.0,1
623,623,0.06812656328518552,0.1,0.0,0.0,327.0,951.0,1.0,0,1722.0,0
624,624,-0.7321014747427117,-0.7,1.0,0.0,301.0,751.0,0.0,0,258.0,1
625,625,-0.5798265644223322,-0.6,0.0,1.0,394.0,983.0,1.0,0,313.0,1
626,626,0.0395002931763726,0.0,0.0,0.0,263.0,661.0,0.0,1,2076.0,1
627,627,-0.07967630244957336,-0.1,1.0,0.0,269.0,855.0,0.0,0,276.0,1
628,628,-0.7682568910017928,-0.8,0.0,1.0,301.0,612.0,1.0,0,297.0,1
629,629,0.8820651070680788,0.9,1.0,1.0,456.0,604.0,1.0,1,240.0,1
630,630,-0.2955730169629306,-0.3,0.0,1.0,425.0,627.0,1.0,0,128.0,1
631,631,0.7759231426052903,0.8,1.0,1.0,325.0,970.0,1.0,1,195.0,1
632,632,-0.1689768918808281,-0.2,0.0,1.0,404.0,521.0,1.0,0,1005.0,1
633,633,0.47272912424030944,0.5,0.0,0.0,384.0,956.0,0.0,1,620.0,1
634,634,-0.3951690083544427,-0.4,0.0,1.0,383.0,670.0,1.0,0,467.0,1
635,635,-0.2819617592942627,-0.3,0.0,1.0,349.0,708.0,1.0,0,693.0,1
636,636,0.02836333054661322,0.0,1.0,1.0,469.0,587.0,0.0,0,1944.0,0
637,637,-0.0858948883153724,-0.1,1.0,0.0,375.0,881.0,1.0,1,1744.0,0
638,638,-0.44650448962012496,-0.4,1.0,0.0,327.0,577.0,0.0,0,536.0,1
639,639,0.6795224289258478,0.7,1.0,1.0,361.0,784.0,1.0,1,305.0,1
640,640,-0.8139142999658939,-0.8,0.0,1.0,295.0,551.0,1.0,0,724.0,1
641,641,-0.7369503260567756,-0.7,1.0,0.0,362.0,893.0,0.0,0,295.0,1
642,642,-0.04673818085701975,-0.0,0.0,1.0,489.0,611.0,1.0,0,1900.0,1
643,643,-0.5158770660609179,-0.5,0.0,1.0,282.0,794.0,1.0,0,264.0,1
644,644,0.019742905572441516,0.0,0.0,0.0,339.0,977.0,1.0,0,1684.0,0
645,645,-0.16397269504806955,-0.2,0.0,1.0,360.0,648.0,1.0,0,772.0,1
646,646,-0.12033993604869953,-0.1,1.0,0.0,381.0,728.0,0.0,0,1891.0,1
647,647,-0.06347826453309757,-0.1,0.0,1.0,320.0,791.0,1.0,0,1869.0,1
648,648,-0.13534861295208211,-0.1,0.0,1.0,322.0,996.0,1.0,0,1682.0,1
649,649,0.6897937617017597,0.7,0.0,0.0,341.0,541.0,0.0,1,268.0,1
650,650,0.8570647465106401,0.9,0.0,0.0,295.0,623.0,0.0,1,362.0,1
651,651,-0.8115079406680593,-0.8,0.0,1.0,276.0,941.0,1.0,0,213.0,1
652,652,0.21797113326990314,0.2,0.0,0.0,456.0,511.0,0.0,1,743.0,1
653,653,0.3489161818186489,0.3,1.0,1.0,263.0,574.0,1.0,1,163.0,1
654,654,0.02099896252529332,0.0,1.0,1.0,463.0,511.0,0.0,0,2026.0,0
655,655,-0.5934774816187608,-0.6,1.0,0.0,325.0,735.0,0.0,0,390.0,1
656,656,0.11793563082616576,0.1,0.0,0.0,447.0,560.0,0.0,1,1713.0,1
657,657,-0.7820512340279203,-0.8,0.0,1.0,438.0,686.0,1.0,0,406.0,1
658,658,-0.04121740954205533,-0.0,0.0,1.0,418.0,732.0,1.0,0,740.0,1
659,659,-0.19367941719463067,-0.2,1.0,0.0,456.0,527.0,0.0,0,1367.0,1
660,660,0.12853060064581545,0.1,0.0,0.0,490.0,596.0,0.0,1,644.0,1
661,661,0.39258196949700264,0.4,1.0,1.0,264.0,660.0,1.0,1,236.0,1
662,662,-0.6315090684606806,-0.6,1.0,0.0,325.0,831.0,0.0,0,334.0,1
663,663,-0.8857320154454847,-0.9,0.0,1.0,255.0,667.0,1.0,0,128.0,1
664,664,0.01367153495482143,0.0,0.0,0.0,354.0,914.0,1.0,0,1732.0,0
665,665,-0.3018570140313278,-0.3,1.0,0.0,447.0,538.0,0.0,0,985.0,1
666,666,-0.056490705693808985,-0.1,0.0,1.0,498.0,820.0,0.0,1,702.0,0
667,667,-0.8042341864825465,-0.8,0.0,1.0,427.0,505.0,1.0,0,508.0,1
668,668,-0.45634334297883855,-0.5,1.0,0.0,335.0,736.0,0.0,0,849.0,1
669,669,0.1361609752976548,0.1,0.0,0.0,416.0,634.0,0.0,1,1950.0,1
670,670,-0.1121604665130056,-0.1,1.0,0.0,391.0,839.0,0.0,0,1770.0,1
671,671,-0.17030602648239324,-0.2,0.0,1.0,416.0,781.0,1.0,0,1803.0,1
672,672,0.44750050928425644,0.4,1.0,1.0,270.0,795.0,1.0,1,815.0,1
673,673,-0.43192796481985835,-0.4,0.0,1.0,429.0,750.0,1.0,0,371.0,1
674,674,0.03982539806798524,0.0,1.0,1.0,435.0,562.0,1.0,1,2003.0,1
675,675,0.7703484959599992,0.8,1.0,1.0,357.0,876.0,1.0,1,197.0,1
676,676,-0.4747923703550202,-0.5,0.0,1.0,444.0,539.0,1.0,0,267.0,1
677,677,0.6614277262193714,0.7,0.0,0.0,427.0,535.0,0.0,1,338.0,1
678,678,-0.29361549557845557,-0.3,0.0,1.0,498.0,933.0,1.0,0,1199.0,1
679,679,-0.5367518292594728,-0.5,0.0,1.0,315.0,675.0,1.0,0,200.0,1
680,680,-0.42355829003964773,-0.4,0.0,1.0,473.0,701.0,1.0,0,416.0,1
681,681,0.23926017447892411,0.2,1.0,1.0,407.0,549.0,1.0,1,494.0,1
682,682,0.7582497004797156,0.8,1.0,1.0,447.0,914.0,1.0,1,249.0,1
683,683,0.5209400753565608,0.5,0.0,0.0,431.0,817.0,0.0,1,422.0,1
684,684,0.3510362634989689,0.4,1.0,1.0,332.0,951.0,1.0,1,1087.0,1
685,685,-0.563693607375855,-0.6,1.0,0.0,315.0,880.0,0.0,0,245.0,1
686,686,0.04739976126912415,0.0,1.0,1.0,370.0,968.0,1.0,1,1662.0,1
687,687,0.17428147022302787,0.2,0.0,0.0,454.0,924.0,0.0,1,212.0,1
688,688,0.5130886011402623,0.5,1.0,1.0,436.0,834.0,1.0,1,380.0,1
689,689,-0.5440812973436084,-0.5,0.0,1.0,494.0,601.0,1.0,0,385.0,1
690,690,0.42104771864761326,0.4,1.0,1.0,260.0,667.0,1.0,1,383.0,1
691,691,0.1984524494441421,0.2,1.0,1.0,417.0,719.0,1.0,1,364.0,1
692,692,0.66484760951875,0.7,0.0,0.0,394.0,756.0,0.0,1,210.0,1
693,693,0.848020982081566,0.8,1.0,1.0,366.0,513.0,1.0,1,131.0,1
694,694,0.1614129955124336,0.2,1.0,1.0,271.0,943.0,1.0,1,1786.0,1
695,695,-0.8312784449955545,-0.8,0.0,1.0,303.0,826.0,1.0,0,191.0,1
696,696,0.8806393467212316,0.9,0.0,0.0,464.0,941.0,0.0,1,295.0,1
697,697,0.6220666319837028,0.6,0.0,0.0,331.0,925.0,0.0,1,464.0,1
698,698,-0.550402572987938,-0.6,0.0,1.0,352.0,772.0,1.0,0,226.0,1
699,699,-0.306734551518447,-0.3,0.0,1.0,439.0,862.0,1.0,0,669.0,1
700,700,0.7662909137590356,0.8,1.0,1.0,351.0,598.0,1.0,1,201.0,1
701,701,0.04391219493865117,0.0,0.0,0.0,499.0,727.0,0.0,1,1004.0,1
702,702,0.11228997214991099,0.1,0.0,0.0,279.0,850.0,0.0,1,1871.0,1
703,703,-0.41511229011546913,-0.4,0.0,1.0,434.0,954.0,1.0,0,292.0,1
704,704,0.3362409666786731,0.3,1.0,1.0,366.0,813.0,1.0,1,451.0,1
705,705,-0.4372958433181478,-0.4,1.0,0.0,327.0,623.0,0.0,0,610.0,1
706,706,-0.3864731544832757,-0.4,0.0,1.0,433.0,849.0,1.0,0,408.0,1
707,707,0.32062184981272324,0.3,1.0,1.0,496.0,742.0,1.0,1,522.0,1
708,708,0.5180767707460748,0.5,1.0,1.0,431.0,629.0,1.0,1,700.0,1
709,709,0.5683328453284134,0.6,1.0,1.0,345.0,975.0,1.0,1,680.0,1
710,710,0.3988939763412237,0.4,1.0,1.0,439.0,933.0,1.0,1,518.0,1
711,711,0.6593204587624429,0.7,0.0,0.0,317.0,946.0,0.0,1,417.0,1
712,712,0.11427529121943569,0.1,1.0,1.0,309.0,892.0,1.0,1,129.0,1
713,713,-0.7527875025740696,-0.8,1.0,0.0,348.0,658.0,0.0,0,214.0,1
714,714,-0.3385812157407304,-0.3,1.0,0.0,259.0,539.0,0.0,0,992.0,1
715,715,0.08407116549281146,0.1,1.0,1.0,367.0,999.0,1.0,1,1014.0,1
716,716,-0.6353655277187062,-0.6,0.0,1.0,301.0,655.0,1.0,0,134.0,1
717,717,0.35391006304275685,0.4,0.0,0.0,483.0,741.0,0.0,1,736.0,1
718,718,-0.45419843115972447,-0.5,0.0,1.0,337.0,726.0,1.0,0,647.0,1
719,719,0.7288275572463173,0.7,1.0,1.0,443.0,888.0,1.0,1,39.0,1
720,720,0.14960119156979979,0.1,1.0,1.0,335.0,943.0,1.0,1,382.0,1
721,721,-0.04243752412555679,-0.0,0.0,1.0,341.0,843.0,0.0,1,1816.0,0
722,722,-0.6649588780002801,-0.7,1.0,0.0,382.0,665.0,0.0,0,323.0,1
723,723,-0.20785217920658539,-0.2,1.0,0.0,408.0,796.0,0.0,0,526.0,1
724,724,-0.17556927801576816,-0.2,1.0,0.0,311.0,704.0,0.0,0,1275.0,1
725,725,0.16474883461632783,0.2,1.0,1.0,337.0,788.0,1.0,1,1875.0,1
726,726,-0.7503631713303944,-0.8,1.0,0.0,308.0,510.0,0.0,0,242.0,1
727,727,0.7505430531325213,0.8,0.0,0.0,414.0,579.0,0.0,1,367.0,1
728,728,0.6340779377076963,0.6,1.0,1.0,399.0,903.0,1.0,1,448.0,1
729,729,-0.2756237820587947,-0.3,1.0,0.0,437.0,780.0,0.0,0,133.0,1
730,730,-0.5633689198919272,-0.6,1.0,0.0,352.0,915.0,0.0,0,473.0,1
731,731,0.7467235676805207,0.7,0.0,0.0,349.0,673.0,0.0,1,428.0,1
732,732,0.49175707704030447,0.5,0.0,0.0,441.0,721.0,0.0,1,808.0,1
733,733,-0.5117331789026465,-0.5,0.0,1.0,339.0,764.0,1.0,0,557.0,1
734,734,-0.23651312263264213,-0.2,0.0,1.0,466.0,536.0,1.0,0,828.0,1
735,735,-0.8294930416043769,-0.8,0.0,1.0,346.0,977.0,1.0,0,137.0,1
736,736,-0.5343305727638107,-0.5,0.0,1.0,441.0,988.0,1.0,0,121.0,1
737,737,0.22010871348615935,0.2,0.0,0.0,370.0,557.0,0.0,1,383.0,1
738,738,-0.8089561055618264,-0.8,0.0,1.0,324.0,612.0,1.0,0,194.0,1
739,739,0.6809193271163602,0.7,1.0,1.0,280.0,785.0,1.0,1,525.0,1
740,740,-0.2879055792369116,-0.3,0.0,1.0,265.0,840.0,1.0,0,665.0,1
741,741,0.18531580503003242,0.2,1.0,1.0,494.0,918.0,1.0,1,1588.0,1
742,742,0.10078079338179335,0.1,0.0,0.0,410.0,976.0,0.0,1,824.0,1
743,743,0.6654966903751042,0.7,0.0,0.0,274.0,851.0,0.0,1,265.0,1
744,744,0.6543863998037552,0.7,1.0,1.0,461.0,737.0,1.0,1,302.0,1
745,745,-0.14678569743493064,-0.1,1.0,0.0,295.0,843.0,0.0,0,1862.0,1
746,746,-0.5836075145443458,-0.6,1.0,0.0,276.0,788.0,0.0,0,376.0,1
747,747,0.3169431848805794,0.3,1.0,1.0,289.0,546.0,1.0,1,345.0,1
748,748,0.021563202555453964,0.0,0.0,0.0,335.0,622.0,1.0,0,2043.0,0
749,749,-0.17226710129381484,-0.2,0.0,1.0,420.0,652.0,1.0,0,1928.0,1
750,750,0.4390382671046186,0.4,1.0,1.0,451.0,854.0,1.0,1,515.0,1
751,751,0.6902699198946575,0.7,1.0,1.0,272.0,842.0,1.0,1,436.0,1
752,752,0.5643112697451357,0.6,1.0,1.0,345.0,710.0,1.0,1,255.0,1
753,753,0.4639655328778046,0.5,0.0,0.0,293.0,889.0,0.0,1,238.0,1
754,754,0.5557157651560668,0.6,1.0,1.0,421.0,844.0,1.0,1,215.0,1
755,755,-0.36417238280198316,-0.4,0.0,1.0,261.0,632.0,1.0,0,207.0,1
756,756,0.636098102634265,0.6,1.0,1.0,406.0,947.0,1.0,1,197.0,1
757,757,-0.5028350895270541,-0.5,1.0,0.0,341.0,742.0,0.0,0,937.0,1
758,758,0.3617031554364051,0.4,0.0,0.0,457.0,758.0,0.0,1,135.0,1
759,759,-0.07339045363829466,-0.1,0.0,1.0,319.0,545.0,1.0,0,1616.0,1
760,760,-0.654199166824015,-0.7,1.0,0.0,284.0,831.0,0.0,0,425.0,1
761,761,0.6587339640434681,0.7,0.0,0.0,427.0,860.0,0.0,1,213.0,1
762,762,0.22739823543992788,0.2,0.0,0.0,333.0,756.0,0.0,1,311.0,1
763,763,0.13590732486377932,0.1,0.0,0.0,389.0,516.0,0.0,1,1905.0,1
764,764,0.25928187176668394,0.3,0.0,0.0,291.0,821.0,0.0,1,498.0,1
765,765,0.19493166611240909,0.2,0.0,0.0,492.0,860.0,0.0,1,1038.0,1
766,766,-0.6417240078332237,-0.6,0.0,1.0,398.0,504.0,1.0,0,208.0,1
767,767,0.8873504408243688,0.9,0.0,0.0,497.0,981.0,0.0,1,132.0,1
768,768,0.8375996970755396,0.8,1.0,1.0,393.0,772.0,1.0,1,435.0,1
769,769,0.3753854536966593,0.4,0.0,0.0,272.0,599.0,0.0,1,549.0,1
770,770,-0.8520390654675993,-0.9,0.0,1.0,254.0,577.0,1.0,0,259.0,1
771,771,-0.1908882571456737,-0.2,1.0,0.0,385.0,799.0,0.0,0,1396.0,1
772,772,0.37055750440786206,0.4,1.0,1.0,357.0,588.0,1.0,1,385.0,1
773,773,0.7828754069509517,0.8,0.0,0.0,383.0,712.0,0.0,1,355.0,1
774,774,0.8544647899173349,0.9,0.0,0.0,290.0,644.0,0.0,1,276.0,1
775,775,-0.41455293315327624,-0.4,1.0,0.0,428.0,515.0,0.0,0,1067.0,1
776,776,-0.2594624450595182,-0.3,0.0,1.0,325.0,954.0,1.0,0,701.0,1
777,777,-0.5971385880319217,-0.6,1.0,0.0,301.0,677.0,0.0,0,212.0,1
778,778,0.12130966094248052,0.1,1.0,1.0,289.0,552.0,1.0,1,1449.0,1
779,779,0.6575527773338764,0.7,0.0,0.0,436.0,828.0,0.0,1,296.0,1
780,780,-0.659524466708489,-0.7,0.0,1.0,482.0,556.0,1.0,0,442.0,1
781,781,0.2161037299374654,0.2,1.0,1.0,302.0,626.0,1.0,1,662.0,1
782,782,-0.1219249022509108,-0.1,0.0,1.0,490.0,849.0,1.0,0,401.0,1
783,783,-0.672659828701406,-0.7,0.0,1.0,423.0,730.0,1.0,0,537.0,1
784,784,-0.823047727352617,-0.8,1.0,0.0,298.0,565.0,0.0,0,697.0,1
785,785,-0.6619124149541314,-0.7,1.0,0.0,346.0,811.0,0.0,0,263.0,1
786,786,-0.8678227664323862,-0.9,0.0,1.0,373.0,673.0,1.0,0,414.0,1
787,787,0.14198438924383738,0.1,1.0,1.0,434.0,677.0,1.0,1,799.0,1
788,788,0.3546851572473849,0.4,0.0,0.0,293.0,819.0,0.0,1,308.0,1
789,789,0.25010824635341844,0.3,0.0,0.0,351.0,964.0,0.0,1,445.0,1
790,790,-0.7330503979058691,-0.7,0.0,1.0,477.0,779.0,1.0,0,424.0,1
791,791,0.5558655731115366,0.6,1.0,1.0,381.0,939.0,1.0,1,250.0,1
792,792,-0.17041048917062906,-0.2,0.0,1.0,482.0,649.0,1.0,0,329.0,1
793,793,0.30292608327706494,0.3,0.0,0.0,475.0,842.0,0.0,1,383.0,1
794,794,-0.8977687795943293,-0.9,1.0,0.0,260.0,900.0,0.0,0,310.0,1
795,795,0.4865726097117077,0.5,0.0,0.0,336.0,921.0,0.0,1,213.0,1
796,796,0.260484352404854,0.3,0.0,0.0,441.0,717.0,0.0,1,1632.0,1
797,797,-0.8130697039603219,-0.8,1.0,0.0,459.0,713.0,0.0,0,358.0,1
798,798,0.8524801485714585,0.9,1.0,1.0,315.0,954.0,1.0,1,661.0,1
799,799,0.3297270087453349,0.3,0.0,0.0,427.0,766.0,0.0,1,77.0,1
800,800,0.06990793117793892,0.1,0.0,0.0,390.0,666.0,0.0,1,1184.0,1
801,801,-0.5651712047700499,-0.6,1.0,0.0,423.0,828.0,0.0,0,439.0,1
802,802,-0.5644034673254172,-0.6,1.0,0.0,266.0,985.0,0.0,0,129.0,1
803,803,-0.22070379697392872,-0.2,0.0,1.0,340.0,526.0,1.0,0,524.0,1
804,804,-0.594060592428574,-0.6,0.0,1.0,481.0,505.0,1.0,0,164.0,1
805,805,-0.44496420634150385,-0.4,1.0,0.0,477.0,563.0,0.0,0,360.0,1
806,806,-0.5005112938886068,-0.5,1.0,0.0,389.0,858.0,0.0,0,253.0,1
807,807,0.1145394584022742,0.1,0.0,0.0,314.0,874.0,0.0,1,-208.0,1
808,808,0.1496748729305134,0.1,1.0,1.0,443.0,754.0,1.0,1,983.0,1
809,809,0.48463397426256194,0.5,0.0,0.0,454.0,792.0,0.0,1,304.0,1
810,810,0.03654594050101123,0.0,0.0,0.0,361.0,840.0,0.0,1,1799.0,1
811,811,0.6887878348212567,0.7,0.0,0.0,425.0,532.0,0.0,1,403.0,1
812,812,-0.6637097990605523,-0.7,1.0,0.0,480.0,795.0,0.0,0,175.0,1
813,813,-0.5295433932186829,-0.5,1.0,0.0,499.0,930.0,0.0,0,401.0,1
814,814,0.5245667119791603,0.5,0.0,0.0,423.0,667.0,0.0,1,280.0,1
815,815,-0.584442798838254,-0.6,1.0,0.0,459.0,802.0,0.0,0,319.0,1
816,816,-0.6381918363349759,-0.6,0.0,1.0,493.0,782.0,1.0,0,185.0,1
817,817,-0.21152301574275356,-0.2,1.0,0.0,340.0,549.0,0.0,0,2111.0,1
818,818,-0.3829905910324206,-0.4,0.0,1.0,428.0,663.0,1.0,0,209.0,1
819,819,-0.6399149734385461,-0.6,0.0,1.0,461.0,822.0,1.0,0,637.0,1
820,820,0.7941039878923221,0.8,0.0,0.0,351.0,767.0,0.0,1,292.0,1
821,821,0.6687829556783461,0.7,0.0,0.0,259.0,612.0,0.0,1,439.0,1
822,822,0.29351859736230834,0.3,1.0,1.0,253.0,792.0,1.0,1,1225.0,1
823,823,0.5741829436920308,0.6,1.0,1.0,290.0,897.0,1.0,1,263.0,1
824,824,-0.8316015266490348,-0.8,0.0,1.0,282.0,520.0,1.0,0,318.0,1
825,825,0.5603321453286888,0.6,0.0,0.0,251.0,612.0,0.0,1,357.0,1
826,826,-0.7700011359302513,-0.8,1.0,0.0,442.0,551.0,0.0,0,417.0,1
827,827,-0.34559111816852284,-0.3,1.0,0.0,298.0,914.0,0.0,0,408.0,1
828,828,0.30050854025247264,0.3,0.0,0.0,283.0,931.0,0.0,1,956.0,1
829,829,0.015768109269057362,0.0,1.0,1.0,469.0,983.0,1.0,1,1548.0,1
830,830,0.09455665153721293,0.1,0.0,0.0,339.0,957.0,1.0,0,1704.0,0
831,831,0.8276778943436988,0.8,1.0,1.0,377.0,989.0,1.0,1,84.0,1
832,832,0.3022120698458325,0.3,1.0,1.0,442.0,938.0,1.0,1,790.0,1
833,833,-0.40032403351082685,-0.4,0.0,1.0,329.0,507.0,1.0,0,344.0,1
834,834,-0.727625247678719,-0.7,0.0,1.0,251.0,631.0,1.0,0,338.0,1
835,835,-0.6933734789272136,-0.7,0.0,1.0,477.0,896.0,1.0,0,227.0,1
836,836,-0.6781231023399784,-0.7,1.0,0.0,355.0,655.0,0.0,0,650.0,1
837,837,0.648011453999562,0.6,0.0,0.0,328.0,933.0,0.0,1,319.0,1
838,838,-0.6958262871182274,-0.7,1.0,0.0,322.0,603.0,0.0,0,415.0,1
839,839,0.33459713003023006,0.3,0.0,0.0,446.0,727.0,0.0,1,577.0,1
840,840,0.41737779293191635,0.4,1.0,1.0,317.0,787.0,1.0,1,386.0,1
841,841,0.18222448631784627,0.2,0.0,0.0,303.0,689.0,0.0,1,878.0,1
842,842,-0.6818006108166859,-0.7,1.0,0.0,361.0,889.0,0.0,0,220.0,1
843,843,0.5723849756006197,0.6,1.0,1.0,417.0,623.0,1.0,1,280.0,1
844,844,0.2831715607655062,0.3,1.0,1.0,262.0,769.0,1.0,1,1059.0,1
845,845,-0.1648154687485618,-0.2,0.0,1.0,280.0,836.0,1.0,0,724.0,1
846,846,-0.21475021139670913,-0.2,1.0,0.0,272.0,992.0,0.0,0,926.0,1
847,847,0.7201129095821804,0.7,0.0,0.0,424.0,630.0,0.0,1,66.0,1
848,848,-0.380659280210738,-0.4,1.0,0.0,398.0,925.0,0.0,0,747.0,1
849,849,-0.5899931284801184,-0.6,0.0,1.0,359.0,597.0,1.0,0,454.0,1
850,850,-0.037798747020159396,-0.0,1.0,0.0,335.0,622.0,1.0,1,2043.0,0
851,851,-0.5858719577934988,-0.6,1.0,0.0,464.0,919.0,0.0,0,357.0,1
852,852,-0.04926807597581806,-0.0,1.0,0.0,264.0,955.0,0.0,0,1781.0,1
853,853,-0.03890568527529015,-0.0,0.0,1.0,481.0,946.0,1.0,0,1243.0,1
854,854,0.7245922782936373,0.7,0.0,0.0,496.0,524.0,0.0,1,290.0,1
855,855,-0.42716646702728095,-0.4,1.0,0.0,436.0,631.0,0.0,0,793.0,1
856,856,0.3129187970823203,0.3,1.0,1.0,321.0,958.0,1.0,1,711.0,1
857,857,-0.10403696808887597,-0.1,0.0,1.0,282.0,758.0,1.0,0,430.0,1
858,858,-0.6168348475418537,-0.6,0.0,1.0,444.0,597.0,1.0,0,199.0,1
859,859,-0.6870452910734981,-0.7,0.0,1.0,382.0,525.0,1.0,0,263.0,1
860,860,-0.27781483598932044,-0.3,1.0,0.0,443.0,526.0,0.0,0,331.0,1
861,861,-0.42983385901805926,-0.4,1.0,0.0,404.0,591.0,0.0,0,615.0,1
862,862,-0.5902632248056152,-0.6,1.0,0.0,362.0,795.0,0.0,0,213.0,1
863,863,0.02400484686362825,0.0,1.0,1.0,496.0,567.0,1.0,1,1647.0,1
864,864,-0.2919886982205677,-0.3,0.0,1.0,268.0,850.0,1.0,0,1022.0,1
865,865,0.09542367656852024,0.1,0.0,0.0,257.0,878.0,0.0,1,1865.0,1
866,866,0.19026133169575188,0.2,1.0,1.0,448.0,846.0,1.0,1,486.0,1
867,867,-0.565256344605827,-0.6,0.0,1.0,305.0,826.0,1.0,0,349.0,1
868,868,-0.7873263111753463,-0.8,0.0,1.0,289.0,917.0,1.0,0,-46.0,1
869,869,0.5049902673806802,0.5,1.0,1.0,385.0,600.0,1.0,1,295.0,1
870,870,-0.0762378799606982,-0.1,1.0,0.0,490.0,628.0,1.0,1,1882.0,0
871,871,-0.6726993888872339,-0.7,0.0,1.0,399.0,728.0,1.0,0,573.0,1
872,872,-0.6479646748768177,-0.6,0.0,1.0,365.0,904.0,1.0,0,141.0,1
873,873,-0.7630291197257927,-0.8,1.0,0.0,349.0,615.0,0.0,0,346.0,1
874,874,-0.12202160073222401,-0.1,0.0,1.0,494.0,561.0,1.0,0,815.0,1
875,875,-0.2705582767275647,-0.3,1.0,0.0,389.0,514.0,0.0,0,587.0,1
876,876,-0.08597752588981777,-0.1,1.0,0.0,458.0,907.0,0.0,0,325.0,1
877,877,-0.34167017387194354,-0.3,1.0,0.0,292.0,798.0,0.0,0,280.0,1
878,878,0.15498566857359675,0.2,0.0,0.0,352.0,830.0,0.0,1,898.0,1
879,879,-0.82578968076003,-0.8,1.0,0.0,383.0,653.0,0.0,0,244.0,1
880,880,0.3608870359867743,0.4,1.0,1.0,441.0,679.0,1.0,1,590.0,1
881,881,0.460819173643063,0.5,1.0,1.0,391.0,711.0,1.0,1,508.0,1
882,882,0.5762314057127543,0.6,0.0,0.0,441.0,508.0,0.0,1,251.0,1
883,883,-0.5264961173061288,-0.5,1.0,0.0,305.0,636.0,0.0,0,219.0,1
884,884,-0.49381274524266805,-0.5,0.0,1.0,348.0,693.0,1.0,0,129.0,1
885,885,0.7264024785704276,0.7,1.0,1.0,307.0,930.0,1.0,1,213.0,1
886,886,0.6883165703501307,0.7,1.0,1.0,356.0,525.0,1.0,1,279.0,1
887,887,-0.6499431422317394,-0.6,1.0,0.0,274.0,693.0,0.0,0,643.0,1
888,888,0.5674783973742766,0.6,0.0,0.0,382.0,851.0,0.0,1,437.0,1
889,889,-0.40302722693403,-0.4,0.0,1.0,251.0,759.0,1.0,0,10.0,1
890,890,-0.5270610336392805,-0.5,1.0,0.0,312.0,726.0,0.0,0,142.0,1
891,891,0.22501442690047735,0.2,1.0,1.0,308.0,706.0,1.0,1,1236.0,1
892,892,0.47278404111824857,0.5,1.0,1.0,280.0,585.0,1.0,1,495.0,1
893,893,0.8411237755465412,0.8,0.0,0.0,294.0,996.0,0.0,1,310.0,1
894,894,-0.07320587410412549,-0.1,1.0,0.0,276.0,589.0,0.0,0,2135.0,1
895,895,-0.6681846895874533,-0.7,1.0,0.0,320.0,659.0,0.0,0,281.0,1
896,896,-0.8902763314358796,-0.9,1.0,0.0,405.0,998.0,0.0,0,587.0,1
897,897,0.8882210955966628,0.9,1.0,1.0,275.0,830.0,1.0,1,145.0,1
898,898,-0.7733497452565256,-0.8,1.0,0.0,432.0,791.0,0.0,0,207.0,1
899,899,0.5910443469011754,0.6,0.0,0.0,358.0,771.0,0.0,1,281.0,1
900,900,-0.7015605399894179,-0.7,1.0,0.0,347.0,713.0,0.0,0,640.0,1
901,901,0.3705506906217634,0.4,1.0,1.0,292.0,654.0,1.0,1,594.0,1
902,902,-0.5244513671292556,-0.5,0.0,1.0,439.0,910.0,1.0,0,271.0,1
903,903,-0.48470074432878035,-0.5,1.0,0.0,476.0,725.0,0.0,0,609.0,1
904,904,-0.3540254277583964,-0.4,0.0,1.0,280.0,567.0,1.0,0,923.0,1
905,905,-0.662844297756521,-0.7,0.0,1.0,281.0,985.0,1.0,0,304.0,1
906,906,0.7269345782142224,0.7,0.0,0.0,485.0,824.0,0.0,1,311.0,1
907,907,0.21263612204617932,0.2,0.0,0.0,409.0,676.0,0.0,1,1915.0,1
908,908,0.4689261124996783,0.5,0.0,0.0,318.0,926.0,0.0,1,316.0,1
909,909,-0.5718794261752853,-0.6,0.0,1.0,289.0,586.0,1.0,0,295.0,1
910,910,0.343800316275629,0.3,1.0,1.0,409.0,920.0,1.0,1,521.0,1
911,911,-0.7811591400087631,-0.8,0.0,1.0,272.0,926.0,1.0,0,342.0,1
912,912,0.6987147836452051,0.7,1.0,1.0,430.0,658.0,1.0,1,202.0,1
913,913,-0.6242690334511158,-0.6,0.0,1.0,293.0,847.0,1.0,0,270.0,1
914,914,0.6125461811212426,0.6,1.0,1.0,297.0,513.0,1.0,1,350.0,1
915,915,-0.7093892494306214,-0.7,0.0,1.0,492.0,845.0,1.0,0,103.0,1
916,916,0.32212064230178916,0.3,1.0,1.0,487.0,716.0,1.0,1,847.0,1
917,917,-0.7891139220175282,-0.8,0.0,1.0,410.0,870.0,1.0,0,400.0,1
918,918,0.23123139765738376,0.2,0.0,0.0,434.0,823.0,0.0,1,723.0,1
919,919,0.850004874109833,0.9,1.0,1.0,344.0,933.0,1.0,1,153.0,1
920,920,0.8942701550553066,0.9,1.0,1.0,456.0,984.0,1.0,1,200.0,1
921,921,-0.12143334240072734,-0.1,0.0,1.0,493.0,856.0,1.0,0,1161.0,1
922,922,0.03974742114001606,0.0,0.0,0.0,361.0,881.0,0.0,1,1758.0,1
923,923,0.3968187562415827,0.4,0.0,0.0,263.0,713.0,0.0,1,484.0,1
924,924,-0.30740553432690343,-0.3,0.0,1.0,365.0,515.0,1.0,0,420.0,1
925,925,0.347279591730861,0.3,0.0,0.0,344.0,649.0,0.0,1,417.0,1
926,926,-0.13829742724063698,-0.1,1.0,0.0,405.0,800.0,0.0,0,1795.0,1
927,927,0.02232013222450191,0.0,1.0,1.0,342.0,848.0,1.0,1,1810.0,1
928,928,-0.5366243402991917,-0.5,1.0,0.0,493.0,680.0,0.0,0,257.0,1
929,929,-0.4338677805206937,-0.4,0.0,1.0,482.0,969.0,1.0,0,369.0,1
930,930,0.7706264809644076,0.8,1.0,1.0,297.0,894.0,1.0,1,-81.0,1
931,931,0.06458860087872365,0.1,0.0,0.0,444.0,750.0,0.0,1,1806.0,1
932,932,-0.40076130855835446,-0.4,0.0,1.0,430.0,525.0,1.0,0,555.0,1
933,933,-0.85178728466913,-0.9,0.0,1.0,492.0,819.0,1.0,0,439.0,1
934,934,0.34423177957504125,0.3,0.0,0.0,451.0,698.0,0.0,1,171.0,1
935,935,0.10596045567696277,0.1,1.0,1.0,300.0,917.0,0.0,0,1783.0,0
936,936,-0.052713665898439954,-0.1,0.0,1.0,254.0,693.0,1.0,0,2053.0,1
937,937,0.8400969489923661,0.8,1.0,1.0,330.0,895.0,1.0,1,65.0,1
938,938,-0.13914559423436001,-0.1,0.0,1.0,299.0,757.0,1.0,0,774.0,1
939,939,0.21695779686795402,0.2,0.0,0.0,286.0,568.0,0.0,1,716.0,1
940,940,-0.02919504920892957,-0.0,0.0,1.0,270.0,926.0,0.0,1,1804.0,0
941,941,-0.4964209157663335,-0.5,0.0,1.0,412.0,651.0,1.0,0,397.0,1
942,942,0.3802433240391673,0.4,1.0,1.0,322.0,914.0,1.0,1,704.0,1
943,943,0.1595548814559823,0.2,1.0,1.0,479.0,665.0,1.0,1,1456.0,1
944,944,0.3732516246608887,0.4,0.0,0.0,273.0,632.0,0.0,1,635.0,1
945,945,0.5259710109048604,0.5,0.0,0.0,416.0,925.0,0.0,1,649.0,1
946,946,-0.3069375708361616,-0.3,0.0,1.0,390.0,635.0,1.0,0,165.0,1
947,947,-0.32482118345938193,-0.3,0.0,1.0,463.0,692.0,1.0,0,1055.0,1
948,948,0.8749331300676014,0.9,1.0,1.0,434.0,829.0,1.0,1,307.0,1
949,949,-0.689073636121488,-0.7,0.0,1.0,409.0,898.0,1.0,0,333.0,1
950,950,-0.06647849347610546,-0.1,1.0,0.0,289.0,841.0,1.0,1,1870.0,0
951,951,0.5286704593807489,0.5,0.0,0.0,432.0,843.0,0.0,1,295.0,1
952,952,0.5090918029241457,0.5,1.0,1.0,307.0,691.0,1.0,1,112.0,1
953,953,0.12128525990243355,0.1,0.0,0.0,250.0,639.0,0.0,1,1421.0,1
954,954,-0.005006889912275048,-0.0,1.0,0.0,250.0,932.0,1.0,1,1818.0,0
955,955,0.1833935876101408,0.2,0.0,0.0,479.0,955.0,1.0,0,-164.0,0
956,956,0.08922400712761192,0.1,0.0,0.0,258.0,592.0,0.0,1,2150.0,1
957,957,-0.059951718876258386,-0.1,1.0,0.0,415.0,548.0,0.0,0,2037.0,1
958,958,-0.6835297972244598,-0.7,1.0,0.0,390.0,527.0,0.0,0,233.0,1
959,959,0.8302285728757112,0.8,0.0,0.0,315.0,661.0,0.0,1,104.0,1
960,960,0.7283872403793278,0.7,1.0,1.0,273.0,507.0,1.0,1,340.0,1
961,961,-0.30909903472292777,-0.3,1.0,0.0,475.0,534.0,0.0,0,1051.0,1
962,962,-0.2223116871893348,-0.2,1.0,0.0,406.0,873.0,0.0,0,1721.0,1
963,963,-0.23133927824835254,-0.2,0.0,1.0,487.0,874.0,1.0,0,129.0,1
964,964,0.23215467586876215,0.2,1.0,1.0,428.0,698.0,1.0,1,494.0,1
965,965,0.4116623883104452,0.4,0.0,0.0,456.0,686.0,0.0,1,548.0,1
966,966,-0.09835899614428978,-0.1,0.0,1.0,313.0,549.0,1.0,0,2138.0,1
967,967,0.3358444337640586,0.3,0.0,0.0,486.0,513.0,0.0,1,441.0,1
968,968,0.7927654421956677,0.8,1.0,1.0,485.0,731.0,1.0,1,144.0,1
969,969,-0.3953043864545771,-0.4,1.0,0.0,464.0,931.0,0.0,0,355.0,1
970,970,0.4225208151874359,0.4,1.0,1.0,318.0,576.0,1.0,1,666.0,1
971,971,-0.5812402423215446,-0.6,0.0,1.0,382.0,969.0,1.0,0,729.0,1
972,972,-0.7812284656289968,-0.8,1.0,0.0,382.0,735.0,0.0,0,463.0,1
973,973,0.6026280709412101,0.6,0.0,0.0,463.0,594.0,0.0,1,223.0,1
974,974,0.2245718126118742,0.2,0.0,0.0,355.0,517.0,0.0,1,888.0,1
975,975,0.41370159768713977,0.4,0.0,0.0,258.0,674.0,0.0,1,428.0,1
976,976,0.5275955411954262,0.5,1.0,1.0,365.0,588.0,1.0,1,327.0,1
977,977,0.09800809568587399,0.1,1.0,1.0,345.0,784.0,1.0,1,1761.0,1
978,978,-0.09121082536006031,-0.1,1.0,0.0,461.0,780.0,0.0,0,1759.0,1
979,979,-0.5092536904239653,-0.5,0.0,1.0,392.0,975.0,1.0,0,83.0,1
980,980,0.20065241885724705,0.2,1.0,1.0,277.0,776.0,1.0,1,617.0,1
981,981,-0.0951297097887085,-0.1,1.0,0.0,343.0,528.0,0.0,0,1979.0,1
982,982,0.20812026548141438,0.2,0.0,0.0,421.0,897.0,0.0,1,582.0,1
983,983,0.20646184413110513,0.2,1.0,1.0,291.0,856.0,1.0,1,1483.0,1
984,984,-0.8348582594539304,-0.8,0.0,1.0,456.0,963.0,0.0,1,-89.0,0
985,985,-0.5339382033882398,-0.5,0.0,1.0,461.0,790.0,1.0,0,239.0,1
986,986,0.025261305398947553,0.0,0.0,0.0,385.0,637.0,0.0,1,1958.0,1
987,987,-0.5202848144602519,-0.5,1.0,0.0,313.0,536.0,0.0,0,181.0,1
988,988,-0.2870310704472715,-0.3,0.0,1.0,278.0,629.0,1.0,0,1003.0,1
989,989,0.5459800555797493,0.5,0.0,0.0,480.0,617.0,0.0,1,343.0,1
990,990,-0.48721978959397083,-0.5,1.0,0.0,367.0,741.0,0.0,0,752.0,1
991,991,0.4805214847630189,0.5,1.0,1.0,405.0,832.0,1.0,1,113.0,1
992,992,-0.11502667914197162,-0.1,1.0,0.0,494.0,766.0,0.0,0,1740.0,1
993,993,-0.6764732731023271,-0.7,0.0,1.0,467.0,598.0,1.0,0,415.0,1
994,994,-0.31682074501596513,-0.3,1.0,0.0,425.0,700.0,0.0,0,825.0,1
995,995,0.34889166092311996,0.3,0.0,0.0,398.0,997.0,0.0,1,785.0,1
996,996,0.25702972569887905,0.3,1.0,1.0,429.0,655.0,1.0,1,206.0,1
997,997,-0.7664566334344317,-0.8,0.0,1.0,498.0,648.0,1.0,0,354.0,1
998,998,-0.6083918169226992,-0.6,0.0,1.0,330.0,673.0,1.0,0,427.0,1
999,999,-0.626473030623846,-0.6,1.0,0.0,468.0,584.0,0.0,0,208.0,1
1000,1000,0.05916775105842442,0.1,0.0,0.0,276.0,847.0,1.0,0,-63.0,0
1001,1001,0.59679559244643,0.6,1.0,1.0,422.0,714.0,1.0,1,344.0,1
1002,1002,-0.022422881730367883,-0.0,0.0,1.0,464.0,779.0,0.0,1,1757.0,0
1003,1003,0.0383161037469566,0.0,1.0,1.0,312.0,771.0,1.0,1,1917.0,1
1004,1004,-0.269381871716706,-0.3,0.0,1.0,460.0,680.0,1.0,0,450.0,1
1005,1005,0.15446956202796847,0.2,0.0,0.0,256.0,861.0,0.0,1,633.0,1
1006,1006,-0.6099329126214326,-0.6,0.0,1.0,382.0,607.0,1.0,0,451.0,1
1007,1007,0.6149422025406462,0.6,0.0,0.0,467.0,727.0,0.0,1,206.0,1
1008,1008,0.6741794388343739,0.7,0.0,0.0,425.0,759.0,0.0,1,116.0,1
1009,1009,0.33006893886762334,0.3,0.0,0.0,483.0,800.0,0.0,1,-13.0,1
1010,1010,-0.740069207161938,-0.7,0.0,1.0,270.0,719.0,1.0,0,101.0,1
1011,1011,0.22733619004975736,0.2,1.0,1.0,401.0,990.0,1.0,1,459.0,1
1012,1012,0.6338859180456274,0.6,1.0,1.0,266.0,947.0,1.0,1,307.0,1
1013,1013,0.5596080868724606,0.6,1.0,1.0,392.0,573.0,1.0,1,295.0,1
1014,1014,-0.6051137262900685,-0.6,1.0,0.0,329.0,620.0,0.0,0,301.0,1
1015,1015,0.24090889684122463,0.2,0.0,0.0,391.0,885.0,0.0,1,1004.0,1
1016,1016,-0.48013122731325697,-0.5,0.0,1.0,417.0,795.0,1.0,0,428.0,1
1017,1017,-0.6765531449769381,-0.7,0.0,1.0,282.0,641.0,1.0,0,97.0,1
1018,1018,-0.03561301290023622,-0.0,0.0,1.0,428.0,978.0,1.0,0,474.0,1
1019,1019,0.5927774206967696,0.6,1.0,1.0,430.0,606.0,1.0,1,544.0,1
1020,1020,0.79875879035366,0.8,0.0,0.0,256.0,632.0,0.0,1,222.0,1
1021,1021,0.3991295888964487,0.4,0.0,0.0,338.0,550.0,0.0,1,412.0,1
1022,1022,-0.0669637015668183,-0.1,1.0,0.0,492.0,684.0,0.0,0,1654.0,1
1023,1023,0.09379199944030547,0.1,0.0,0.0,292.0,551.0,0.0,1,2157.0,1
1024,1024,-0.8742223394786196,-0.9,0.0,1.0,390.0,545.0,1.0,0,465.0,1
1025,1025,0.2257631812022446,0.2,1.0,1.0,458.0,514.0,1.0,1,678.0,1
1026,1026,-0.4144655673241367,-0.4,1.0,0.0,387.0,579.0,0.0,0,624.0,1
1027,1027,-0.37413718385079275,-0.4,1.0,0.0,394.0,685.0,0.0,0,411.0,1
1028,1028,0.8712292590738256,0.9,0.0,0.0,265.0,508.0,0.0,1,277.0,1
1029,1029,-0.5120536912282576,-0.5,0.0,1.0,461.0,916.0,1.0,0,113.0,1
1030,1030,-0.32583349622639746,-0.3,0.0,1.0,396.0,676.0,1.0,0,1618.0,1
1031,1031,0.38476850601327406,0.4,1.0,1.0,327.0,523.0,1.0,1,620.0,1
1032,1032,-0.09558977455889694,-0.1,0.0,1.0,287.0,706.0,1.0,0,2007.0,1
1033,1033,-0.6900523291437232,-0.7,0.0,1.0,272.0,808.0,1.0,0,480.0,1
1034,1034,-0.8746645086158775,-0.9,0.0,1.0,330.0,515.0,1.0,0,205.0,1
1035,1035,-0.46415933463139286,-0.5,0.0,1.0,462.0,574.0,1.0,0,364.0,1
1036,1036,0.8815808958427281,0.9,0.0,0.0,348.0,797.0,0.0,1,155.0,1
1037,1037,-0.28443117207301993,-0.3,0.0,1.0,430.0,856.0,1.0,0,274.0,1
1038,1038,-0.356444828345028,-0.4,0.0,1.0,408.0,809.0,1.0,0,363.0,1
1039,1039,0.4638725897868431,0.5,1.0,1.0,444.0,666.0,1.0,1,270.0,1
1040,1040,0.7031610247480967,0.7,0.0,0.0,356.0,886.0,0.0,1,538.0,1
1041,1041,-0.7445639448610127,-0.7,1.0,0.0,277.0,598.0,0.0,0,205.0,1
1042,1042,-0.061178670061627693,-0.1,1.0,0.0,361.0,514.0,1.0,1,2125.0,0
1043,1043,0.6653186140284993,0.7,0.0,0.0,326.0,972.0,0.0,1,352.0,1
1044,1044,-0.12161985568238998,-0.1,0.0,1.0,453.0,707.0,1.0,0,330.0,1
1045,1045,-0.2044646952280489,-0.2,0.0,1.0,400.0,623.0,1.0,0,377.0,1
1046,1046,0.09752621474290546,0.1,0.0,0.0,346.0,567.0,0.0,1,477.0,1
1047,1047,-0.25733480905679695,-0.3,1.0,0.0,319.0,612.0,0.0,0,969.0,1
1048,1048,0.641765315600563,0.6,1.0,1.0,365.0,960.0,1.0,1,205.0,1
1049,1049,-0.5350110331473914,-0.5,0.0,1.0,321.0,546.0,1.0,0,423.0,1
1050,1050,-0.6805676732622019,-0.7,1.0,0.0,426.0,529.0,0.0,0,215.0,1
1051,1051,-0.3341443739044704,-0.3,0.0,1.0,255.0,685.0,1.0,0,510.0,1
1052,1052,0.7379010703410583,0.7,1.0,1.0,410.0,754.0,1.0,1,266.0,1
1053,1053,0.5830339028061936,0.6,1.0,1.0,397.0,674.0,1.0,1,159.0,1
1054,1054,-0.35084196827494674,-0.4,0.0,1.0,255.0,921.0,1.0,0,394.0,1
1055,1055,-0.8955751313286925,-0.9,0.0,1.0,499.0,983.0,1.0,0,508.0,1
1056,1056,-0.32594094986179845,-0.3,0.0,1.0,388.0,789.0,1.0,0,403.0,1
1057,1057,0.25138958410336254,0.3,0.0,0.0,328.0,661.0,0.0,1,161.0,1
1058,1058,0.5596627086388267,0.6,0.0,0.0,348.0,969.0,1.0,0,-37.0,0
1059,1059,-0.8196341196382241,-0.8,0.0,1.0,350.0,558.0,1.0,0,162.0,1
1060,1060,-0.0696339618579892,-0.1,0.0,1.0,429.0,600.0,1.0,0,1731.0,1
1061,1061,-0.6004900454470432,-0.6,1.0,0.0,362.0,725.0,0.0,0,363.0,1
1062,1062,0.8065988346855787,0.8,1.0,1.0,428.0,538.0,1.0,1,154.0,1
1063,1063,-0.3248010429983157,-0.3,1.0,0.0,325.0,802.0,0.0,0,223.0,1
1064,1064,0.3936332152596155,0.4,0.0,0.0,344.0,790.0,0.0,1,366.0,1
1065,1065,0.36981151383517374,0.4,1.0,1.0,420.0,610.0,1.0,1,450.0,1
1066,1066,-0.12999280880730446,-0.1,0.0,1.0,258.0,671.0,1.0,0,1191.0,1
1067,1067,0.4042553544966009,0.4,1.0,1.0,275.0,880.0,1.0,1,425.0,1
1068,1068,-0.21366489767255992,-0.2,0.0,1.0,338.0,757.0,1.0,0,665.0,1
1069,1069,0.34709978609874026,0.3,0.0,0.0,486.0,865.0,0.0,1,339.0,1
1070,1070,0.49497745992378406,0.5,1.0,1.0,286.0,917.0,1.0,1,377.0,1
1071,1071,-0.22434748042079944,-0.2,1.0,0.0,495.0,978.0,0.0,0,-153.0,1
1072,1072,0.8395792288246838,0.8,1.0,1.0,448.0,598.0,1.0,1,334.0,1
1073,1073,-0.5443525831438336,-0.5,0.0,1.0,340.0,658.0,1.0,0,612.0,1
1074,1074,0.24597644182094103,0.2,0.0,0.0,384.0,882.0,0.0,1,284.0,1
1075,1075,0.08817666041479255,0.1,1.0,1.0,305.0,624.0,1.0,1,2071.0,1
1076,1076,0.19844165075139697,0.2,0.0,0.0,370.0,643.0,0.0,1,1127.0,1
1077,1077,-0.15219152964205263,-0.2,0.0,1.0,303.0,927.0,1.0,0,1360.0,1
1078,1078,-0.881527426082834,-0.9,0.0,1.0,311.0,992.0,1.0,0,427.0,1
1079,1079,0.6940448633636375,0.7,0.0,0.0,260.0,658.0,0.0,1,692.0,1
1080,1080,0.8866694474795701,0.9,1.0,1.0,467.0,946.0,1.0,1,97.0,1
1081,1081,0.2372065573137857,0.2,1.0,1.0,263.0,557.0,1.0,1,860.0,1
1082,1082,-0.8409269009934939,-0.8,1.0,0.0,474.0,637.0,0.0,0,449.0,1
1083,1083,0.5757142024458305,0.6,1.0,1.0,468.0,792.0,1.0,1,330.0,1
1084,1084,0.6543219316830878,0.7,1.0,1.0,496.0,903.0,1.0,1,491.0,1
1085,1085,-0.8019164603392894,-0.8,0.0,1.0,334.0,562.0,1.0,0,114.0,1
1086,1086,0.3605835038525923,0.4,0.0,0.0,320.0,544.0,0.0,1,446.0,1
1087,1087,0.5954529694105376,0.6,0.0,0.0,351.0,715.0,0.0,1,174.0,1
1088,1088,0.5357163533340777,0.5,0.0,0.0,460.0,743.0,0.0,1,437.0,1
1089,1089,0.5799994802538618,0.6,0.0,0.0,438.0,827.0,0.0,1,165.0,1
1090,1090,-0.7833202029263482,-0.8,1.0,0.0,439.0,888.0,0.0,0,153.0,1
1091,1091,0.370683910589101,0.4,1.0,1.0,308.0,541.0,1.0,1,461.0,1
1092,1092,0.4138019053079959,0.4,0.0,0.0,266.0,664.0,0.0,1,510.0,1
1093,1093,0.3096428783126647,0.3,0.0,0.0,253.0,817.0,0.0,1,960.0,1
1094,1094,0.8569440504635814,0.9,1.0,1.0,281.0,716.0,1.0,1,383.0,1
1095,1095,0.6227157288043795,0.6,0.0,0.0,345.0,977.0,0.0,1,278.0,1
1096,1096,0.7636614100080618,0.8,1.0,1.0,353.0,870.0,1.0,1,127.0,1
1097,1097,-0.018250407314816086,-0.0,1.0,0.0,493.0,949.0,1.0,1,1558.0,0
1098,1098,0.8600208630165965,0.9,0.0,0.0,295.0,843.0,0.0,1,22.0,1
1099,1099,-0.468612037004897,-0.5,0.0,1.0,489.0,684.0,1.0,0,497.0,1
1100,1100,0.8102025975046482,0.8,1.0,1.0,325.0,614.0,1.0,1,201.0,1
1101,1101,-0.7838594063752238,-0.8,0.0,1.0,306.0,572.0,1.0,0,172.0,1
1102,1102,0.1275696861061456,0.1,1.0,1.0,367.0,908.0,1.0,1,1315.0,1
1103,1103,-0.17543694337936844,-0.2,1.0,0.0,436.0,650.0,0.0,0,1914.0,1
1104,1104,0.06593805627086513,0.1,0.0,0.0,461.0,727.0,0.0,1,1162.0,1
1105,1105,-0.15256252182784957,-0.2,0.0,1.0,327.0,630.0,1.0,0,2043.0,1
1106,1106,0.7085343753080554,0.7,1.0,1.0,267.0,506.0,1.0,1,287.0,1
1107,1107,0.5313272460211836,0.5,0.0,0.0,467.0,922.0,0.0,1,301.0,1
1108,1108,0.6640936218947256,0.7,0.0,0.0,308.0,794.0,0.0,1,428.0,1
1109,1109,-0.2349050220340959,-0.2,0.0,1.0,366.0,578.0,1.0,0,976.0,1
1110,1110,-0.8297683893181367,-0.8,0.0,1.0,499.0,808.0,1.0,0,253.0,1
1111,1111,-0.4568049249316069,-0.5,0.0,1.0,314.0,583.0,1.0,0,283.0,1
1112,1112,0.4580505009023089,0.5,1.0,1.0,434.0,639.0,1.0,1,697.0,1
1113,1113,-0.7094817283746808,-0.7,1.0,0.0,368.0,676.0,0.0,0,186.0,1
1114,1114,-0.1550580513520451,-0.2,1.0,0.0,441.0,730.0,0.0,0,819.0,1
1115,1115,-0.20310451470499247,-0.2,1.0,0.0,364.0,914.0,0.0,0,1592.0,1
1116,1116,0.6583893145930809,0.7,1.0,1.0,425.0,687.0,1.0,1,338.0,1
1117,1117,0.43652633376769046,0.4,0.0,0.0,434.0,516.0,0.0,1,410.0,1
1118,1118,-0.4832537339406723,-0.5,1.0,0.0,424.0,547.0,0.0,0,369.0,1
1119,1119,0.552472422116998,0.6,1.0,1.0,338.0,701.0,1.0,1,331.0,1
1120,1120,-0.05853328837169669,-0.1,0.0,1.0,412.0,514.0,1.0,0,2074.0,1
1121,1121,-0.6885912854733103,-0.7,0.0,1.0,367.0,942.0,1.0,0,351.0,1
1122,1122,-0.3421665717562068,-0.3,0.0,1.0,337.0,745.0,1.0,0,368.0,1
1123,1123,-0.8058674563728194,-0.8,1.0,0.0,311.0,971.0,0.0,0,298.0,1
1124,1124,-0.874166020501734,-0.9,1.0,0.0,433.0,807.0,0.0,0,140.0,1
1125,1125,-0.19173213509013431,-0.2,0.0,1.0,347.0,848.0,1.0,0,1755.0,1
1126,1126,0.7840487071243415,0.8,1.0,1.0,429.0,840.0,1.0,1,211.0,1
1127,1127,0.5271529038802444,0.5,0.0,0.0,457.0,951.0,0.0,1,332.0,1
1128,1128,0.15389178492028133,0.2,1.0,1.0,313.0,918.0,1.0,1,1769.0,1
1129,1129,-0.56534517312402,-0.6,1.0,0.0,464.0,866.0,0.0,0,160.0,1
1130,1130,-0.10269239341346714,-0.1,1.0,0.0,497.0,636.0,0.0,0,1527.0,1
1131,1131,0.8421091130101338,0.8,1.0,1.0,335.0,618.0,1.0,1,207.0,1
1132,1132,-0.27366786640532015,-0.3,1.0,0.0,335.0,963.0,0.0,0,1122.0,1
1133,1133,-0.6856082424310815,-0.7,1.0,0.0,262.0,854.0,0.0,0,264.0,1
1134,1134,0.657013412659455,0.7,0.0,0.0,315.0,940.0,0.0,1,185.0,1
1135,1135,-0.4029623317149475,-0.4,1.0,0.0,411.0,734.0,0.0,0,325.0,1
1136,1136,0.0724951332770255,0.1,1.0,1.0,250.0,816.0,1.0,1,1514.0,1
1137,1137,-0.2918176167569274,-0.3,0.0,1.0,487.0,892.0,1.0,0,1131.0,1
1138,1138,-0.48549266442371475,-0.5,0.0,1.0,487.0,995.0,1.0,0,188.0,1
1139,1139,-0.6823177069411992,-0.7,1.0,0.0,444.0,744.0,0.0,0,232.0,1
1140,1140,-0.4769307802747726,-0.5,0.0,1.0,487.0,622.0,1.0,0,471.0,1
1141,1141,0.6648118105482482,0.7,0.0,0.0,415.0,533.0,0.0,1,262.0,1
1142,1142,-0.8945527945321318,-0.9,0.0,1.0,362.0,979.0,1.0,0,199.0,1
1143,1143,0.6988366702032048,0.7,0.0,0.0,481.0,522.0,0.0,1,167.0,1
1144,1144,-0.7132899233423164,-0.7,1.0,0.0,306.0,511.0,0.0,0,293.0,1
1145,1145,-0.7363063372998292,-0.7,1.0,0.0,382.0,619.0,0.0,0,279.0,1
1146,1146,0.4234203672626654,0.4,0.0,0.0,323.0,783.0,0.0,1,504.0,1
1147,1147,-0.24971739264793857,-0.2,1.0,0.0,268.0,633.0,0.0,0,1319.0,1
1148,1148,-0.6238044610330551,-0.6,0.0,1.0,493.0,592.0,1.0,0,805.0,1
1149,1149,0.6157333432352526,0.6,1.0,1.0,274.0,906.0,1.0,1,230.0,1
1150,1150,-0.04628169522500125,-0.0,0.0,1.0,366.0,938.0,1.0,0,1696.0,1
1151,1151,0.16692805213583062,0.2,1.0,1.0,335.0,664.0,1.0,1,591.0,1
1152,1152,-0.17209970176051825,-0.2,1.0,0.0,476.0,698.0,0.0,0,966.0,1
1153,1153,-0.3409159035882452,-0.3,1.0,0.0,382.0,760.0,0.0,0,378.0,1
1154,1154,0.05785372190124627,0.1,0.0,0.0,453.0,845.0,0.0,1,1702.0,1
1155,1155,-0.41602658706957163,-0.4,1.0,0.0,363.0,989.0,0.0,0,338.0,1
1156,1156,0.288585258491875,0.3,1.0,1.0,405.0,580.0,1.0,1,765.0,1
1157,1157,-0.6708353225891901,-0.7,0.0,1.0,283.0,919.0,1.0,0,378.0,1
1158,1158,0.5247764696230347,0.5,0.0,0.0,478.0,586.0,0.0,1,256.0,1
1159,1159,-0.8082045917547603,-0.8,0.0,1.0,393.0,850.0,1.0,0,277.0,1
1160,1160,-0.46187990870176554,-0.5,0.0,1.0,267.0,932.0,1.0,0,251.0,1
1161,1161,-0.282340258884221,-0.3,1.0,0.0,475.0,939.0,0.0,0,1176.0,1
1162,1162,0.5769719447205698,0.6,1.0,1.0,335.0,624.0,1.0,1,301.0,1
1163,1163,0.7445794697261646,0.7,1.0,1.0,461.0,980.0,1.0,1,119.0,1
1164,1164,-0.1276602683419431,-0.1,1.0,0.0,297.0,776.0,0.0,0,1927.0,1
1165,1165,-0.6326811498541518,-0.6,0.0,1.0,390.0,548.0,1.0,0,272.0,1
1166,1166,-0.039336889238801076,-0.0,0.0,1.0,290.0,690.0,1.0,0,200.0,1
1167,1167,-0.4353250918078094,-0.4,0.0,1.0,454.0,642.0,1.0,0,334.0,1
1168,1168,-0.5667594039594468,-0.6,0.0,1.0,350.0,882.0,1.0,0,168.0,1
1169,1169,-0.6352617231903135,-0.6,1.0,0.0,353.0,604.0,0.0,0,323.0,1
1170,1170,0.7362987020797666,0.7,1.0,1.0,447.0,880.0,1.0,1,163.0,1
1171,1171,0.0137862601876374,0.0,0.0,0.0,359.0,642.0,0.0,1,1999.0,1
1172,1172,-0.36447978598054953,-0.4,1.0,0.0,317.0,659.0,0.0,0,584.0,1
1173,1173,-0.5714036466330249,-0.6,0.0,1.0,355.0,836.0,1.0,0,299.0,1
1174,1174,-0.8451815495584609,-0.8,0.0,1.0,358.0,644.0,1.0,0,408.0,1
1175,1175,-0.37947906160908484,-0.4,1.0,0.0,341.0,713.0,0.0,0,926.0,1
1176,1176,0.16922387028236685,0.2,1.0,1.0,364.0,631.0,1.0,1,1075.0,1
1177,1177,0.3471312316313121,0.3,0.0,0.0,428.0,695.0,0.0,1,447.0,1
1178,1178,-0.7332720014505385,-0.7,1.0,0.0,286.0,921.0,0.0,0,313.0,1
1179,1179,0.38579003273109136,0.4,1.0,1.0,496.0,660.0,1.0,1,884.0,1
1180,1180,0.5992448346344891,0.6,0.0,0.0,333.0,879.0,0.0,1,368.0,1
1181,1181,0.8359834765185054,0.8,0.0,0.0,372.0,959.0,0.0,1,409.0,1
1182,1182,-0.8470654932274481,-0.8,0.0,1.0,253.0,823.0,1.0,0,404.0,1
1183,1183,-0.033158748158115814,-0.0,0.0,1.0,327.0,832.0,1.0,0,1791.0,1
1184,1184,-0.1956151821918286,-0.2,0.0,1.0,303.0,975.0,1.0,0,342.0,1
1185,1185,-0.538588066161613,-0.5,0.0,1.0,357.0,509.0,1.0,0,424.0,1
1186,1186,0.1948778512506507,0.2,0.0,0.0,489.0,560.0,0.0,1,1951.0,1
1187,1187,0.5771498098765911,0.6,1.0,1.0,362.0,518.0,1.0,1,260.0,1
1188,1188,0.2534974868709122,0.3,1.0,1.0,291.0,698.0,1.0,1,471.0,1
1189,1189,0.5791880248260896,0.6,0.0,0.0,327.0,564.0,0.0,1,519.0,1
1190,1190,0.33414624691511896,0.3,1.0,1.0,489.0,584.0,1.0,1,207.0,1
1191,1191,-0.6306945523616352,-0.6,0.0,1.0,317.0,554.0,1.0,0,379.0,1
1192,1192,-0.32921514551493136,-0.3,0.0,1.0,440.0,563.0,1.0,0,687.0,1
1193,1193,-0.21373648433095305,-0.2,0.0,1.0,444.0,678.0,1.0,0,448.0,1
1194,1194,0.09884375350385055,0.1,0.0,0.0,474.0,773.0,0.0,1,1553.0,1
1195,1195,-0.8698784504588479,-0.9,1.0,0.0,389.0,949.0,0.0,0,112.0,1
1196,1196,-0.33948783576103325,-0.3,0.0,1.0,447.0,503.0,1.0,0,480.0,1
1197,1197,0.6712989270696305,0.7,0.0,0.0,471.0,559.0,0.0,1,220.0,1
1198,1198,0.731142597472101,0.7,0.0,0.0,364.0,612.0,0.0,1,164.0,1
1199,1199,-0.5077301126876251,-0.5,0.0,1.0,291.0,836.0,1.0,0,193.0,1
1200,1200,0.622328701148131,0.6,0.0,0.0,391.0,555.0,0.0,1,224.0,1
1201,1201,0.026115902057597062,0.0,0.0,0.0,298.0,763.0,0.0,1,1939.0,1
1202,1202,-0.3412814959959809,-0.3,0.0,1.0,313.0,938.0,1.0,0,539.0,1
1203,1203,0.003842371205565076,0.0,0.0,0.0,321.0,622.0,0.0,1,2057.0,1
1204,1204,-0.8063481206917312,-0.8,1.0,0.0,385.0,531.0,0.0,0,724.0,1
1205,1205,-0.44148907026626183,-0.4,0.0,1.0,288.0,815.0,1.0,0,247.0,1
1206,1206,-0.18109419443967067,-0.2,0.0,1.0,255.0,998.0,1.0,0,1157.0,1
1207,1207,0.4569504365114708,0.5,1.0,1.0,446.0,826.0,1.0,1,318.0,1
1208,1208,0.17740829902556887,0.2,1.0,1.0,364.0,786.0,1.0,1,530.0,1
1209,1209,0.07068137709643485,0.1,0.0,0.0,279.0,733.0,0.0,1,1988.0,1
1210,1210,0.31327188129411276,0.3,0.0,0.0,353.0,612.0,0.0,1,205.0,1
1211,1211,-0.18546098066851735,-0.2,0.0,1.0,357.0,817.0,1.0,0,626.0,1
1212,1212,-0.04979939822140311,-0.0,1.0,0.0,395.0,962.0,0.0,0,1643.0,1
1213,1213,0.6946952905632718,0.7,0.0,0.0,454.0,553.0,0.0,1,293.0,1
1214,1214,-0.34496305935582716,-0.3,1.0,0.0,489.0,994.0,0.0,0,477.0,1
1215,1215,-0.04879508435436164,-0.0,0.0,1.0,305.0,859.0,1.0,0,1836.0,1
1216,1216,-0.17770357119407354,-0.2,1.0,0.0,372.0,780.0,0.0,0,1848.0,1
1217,1217,-0.22063945640869587,-0.2,1.0,0.0,382.0,569.0,0.0,0,589.0,1
1218,1218,-0.2779650624589707,-0.3,0.0,1.0,361.0,652.0,1.0,0,307.0,1
1219,1219,0.22355961718605022,0.2,0.0,0.0,454.0,845.0,0.0,1,181.0,1
1220,1220,-0.7555027708751514,-0.8,1.0,0.0,357.0,538.0,0.0,0,245.0,1
1221,1221,-0.6956797516526265,-0.7,1.0,0.0,410.0,891.0,0.0,0,249.0,1
1222,1222,0.500149924393762,0.5,1.0,1.0,273.0,639.0,1.0,1,428.0,1
1223,1223,-0.8852811522032439,-0.9,0.0,1.0,324.0,604.0,1.0,0,442.0,1
1224,1224,0.5415541042819964,0.5,0.0,0.0,296.0,890.0,0.0,1,364.0,1
1225,1225,-0.46566036515635645,-0.5,1.0,0.0,393.0,504.0,0.0,0,543.0,1
1226,1226,-0.08791840340536139,-0.1,1.0,0.0,330.0,703.0,0.0,0,1967.0,1
1227,1227,-0.41672606491235914,-0.4,1.0,0.0,256.0,968.0,0.0,0,886.0,1
1228,1228,-0.023312523371299743,-0.0,1.0,0.0,355.0,873.0,0.0,0,1772.0,1
1229,1229,0.7543131952050509,0.8,0.0,0.0,392.0,981.0,0.0,1,227.0,1
1230,1230,-0.6045076342370153,-0.6,1.0,0.0,260.0,913.0,0.0,0,307.0,1
1231,1231,-0.10879473837551079,-0.1,1.0,0.0,313.0,538.0,0.0,0,2149.0,1
1232,1232,-0.4412706071714831,-0.4,1.0,0.0,277.0,521.0,0.0,0,212.0,1
1233,1233,0.3672644105520134,0.4,0.0,0.0,464.0,760.0,0.0,1,496.0,1
1234,1234,0.7193303883122052,0.7,1.0,1.0,305.0,669.0,1.0,1,316.0,1
1235,1235,0.04870348739527164,0.0,0.0,0.0,316.0,709.0,0.0,1,1975.0,1
1236,1236,0.2859899868956396,0.3,0.0,0.0,280.0,615.0,0.0,1,-5.0,1
1237,1237,-0.6024612540614265,-0.6,0.0,1.0,272.0,749.0,1.0,0,219.0,1
1238,1238,-0.0021450461845538005,-0.0,1.0,0.0,401.0,969.0,1.0,1,1630.0,0
1239,1239,-0.25906713261950953,-0.3,0.0,1.0,277.0,512.0,1.0,0,1471.0,1
1240,1240,-0.31524524824080624,-0.3,0.0,1.0,404.0,974.0,1.0,0,1162.0,1
1241,1241,-0.3625790662481144,-0.4,0.0,1.0,412.0,738.0,1.0,0,260.0,1
1242,1242,0.4700754597522224,0.5,1.0,1.0,281.0,805.0,1.0,1,484.0,1
1243,1243,0.25039427097128686,0.3,1.0,1.0,458.0,560.0,1.0,1,342.0,1
1244,1244,-0.5489228792780212,-0.5,1.0,0.0,495.0,869.0,0.0,0,826.0,1
1245,1245,-0.5995355682450988,-0.6,1.0,0.0,270.0,841.0,0.0,0,359.0,1
1246,1246,-0.8750537278925745,-0.9,1.0,0.0,471.0,740.0,0.0,0,249.0,1
1247,1247,0.19385366950514527,0.2,0.0,0.0,307.0,836.0,0.0,1,607.0,1
1248,1248,0.88772832140075,0.9,0.0,0.0,379.0,808.0,0.0,1,183.0,1
1249,1249,-0.7201594784170708,-0.7,1.0,0.0,301.0,808.0,0.0,0,351.0,1
1250,1250,-0.5123316252706551,-0.5,0.0,1.0,310.0,589.0,1.0,0,321.0,1
1251,1251,-0.24652164948194433,-0.2,1.0,0.0,383.0,849.0,0.0,0,1768.0,1
1252,1252,-0.18422091481246283,-0.2,1.0,0.0,409.0,595.0,0.0,0,1006.0,1
1253,1253,-0.23091577167794808,-0.2,1.0,0.0,284.0,837.0,0.0,0,1879.0,1
1254,1254,-0.11596192743305245,-0.1,1.0,0.0,411.0,867.0,0.0,0,1712.0,1
1255,1255,0.274484434988285,0.3,1.0,1.0,312.0,505.0,1.0,1,813.0,1
1256,1256,0.016191948922233523,0.0,0.0,0.0,405.0,932.0,0.0,1,1663.0,1
1257,1257,-0.3152708909555848,-0.3,0.0,1.0,296.0,743.0,1.0,0,1231.0,1
1258,1258,0.4628713766337257,0.5,0.0,0.0,474.0,502.0,0.0,1,904.0,1
1259,1259,-0.3131184804948617,-0.3,0.0,1.0,254.0,903.0,1.0,0,493.0,1
1260,1260,0.13646546331025966,0.1,0.0,0.0,440.0,673.0,1.0,0,-63.0,0
1261,1261,-0.659730510020834,-0.7,1.0,0.0,398.0,605.0,0.0,0,307.0,1
1262,1262,0.7124779595088321,0.7,0.0,0.0,400.0,826.0,0.0,1,214.0,1
1263,1263,0.49720802399693,0.5,1.0,1.0,293.0,651.0,1.0,1,286.0,1
1264,1264,-0.036150534856772665,-0.0,0.0,1.0,365.0,619.0,1.0,0,2016.0,1
1265,1265,-0.47293552715996606,-0.5,1.0,0.0,498.0,926.0,1.0,1,-14.0,0
1266,1266,-0.41741610542898694,-0.4,0.0,1.0,496.0,771.0,1.0,0,473.0,1
1267,1267,-0.4697815661745925,-0.5,1.0,0.0,253.0,877.0,0.0,0,140.0,1
1268,1268,-0.8877344716339937,-0.9,1.0,0.0,390.0,699.0,0.0,0,51.0,1
1269,1269,-0.5219600471627903,-0.5,1.0,0.0,474.0,615.0,0.0,0,431.0,1
1270,1270,-0.17289746908787074,-0.2,0.0,1.0,407.0,896.0,1.0,0,567.0,1
1271,1271,-0.7214380358934773,-0.7,1.0,0.0,316.0,835.0,0.0,0,179.0,1
1272,1272,-0.15044473152368343,-0.2,0.0,1.0,275.0,798.0,1.0,0,507.0,1
1273,1273,-0.264875963193027,-0.3,0.0,1.0,421.0,641.0,1.0,0,888.0,1
1274,1274,0.16760618538659677,0.2,1.0,1.0,324.0,535.0,1.0,1,731.0,1
1275,1275,0.10758648068385612,0.1,1.0,1.0,317.0,857.0,1.0,1,1826.0,1
1276,1276,-0.2825558831823928,-0.3,0.0,1.0,290.0,741.0,1.0,0,439.0,1
1277,1277,0.4754451165082324,0.5,0.0,0.0,440.0,577.0,0.0,1,643.0,1
1278,1278,-0.3339076530945081,-0.3,1.0,0.0,349.0,669.0,0.0,0,872.0,1
1279,1279,-0.10695939986284775,-0.1,1.0,0.0,326.0,762.0,0.0,0,1912.0,1
1280,1280,-0.5566404077178917,-0.6,1.0,0.0,399.0,780.0,0.0,0,481.0,1
1281,1281,0.40381160931096016,0.4,1.0,1.0,432.0,631.0,1.0,1,627.0,1
1282,1282,0.8318561067486604,0.8,1.0,1.0,399.0,951.0,1.0,1,320.0,1
1283,1283,0.41049954269380795,0.4,0.0,0.0,297.0,936.0,0.0,1,377.0,1
1284,1284,-0.10143902088034595,-0.1,1.0,0.0,489.0,839.0,0.0,0,1672.0,1
1285,1285,0.7107126636365869,0.7,1.0,1.0,484.0,773.0,1.0,1,263.0,1
1286,1286,-0.18429424896635282,-0.2,1.0,0.0,271.0,959.0,0.0,0,1230.0,1
1287,1287,-0.7944373467844073,-0.8,1.0,0.0,405.0,969.0,0.0,0,1026.0,1
1288,1288,-0.21166691928381287,-0.2,0.0,1.0,457.0,685.0,1.0,0,238.0,1
1289,1289,0.6346935799790073,0.6,1.0,1.0,377.0,941.0,1.0,1,132.0,1
1290,1290,-0.8068478930531343,-0.8,1.0,0.0,270.0,737.0,0.0,0,223.0,1
1291,1291,0.18266177906228342,0.2,1.0,1.0,411.0,712.0,1.0,1,947.0,1
1292,1292,0.6508433871809037,0.7,0.0,0.0,488.0,761.0,0.0,1,281.0,1
1293,1293,0.42172557664876476,0.4,1.0,1.0,363.0,841.0,1.0,1,406.0,1
1294,1294,-0.1611168385668711,-0.2,0.0,1.0,451.0,652.0,1.0,0,887.0,1
1295,1295,0.19890774825695934,0.2,0.0,0.0,321.0,921.0,0.0,1,658.0,1
1296,1296,0.10285539498919094,0.1,0.0,0.0,253.0,721.0,0.0,1,2026.0,1
1297,1297,-0.05231884180624036,-0.1,0.0,1.0,357.0,603.0,1.0,0,2040.0,1
1298,1298,0.43612317207321005,0.4,1.0,1.0,350.0,660.0,1.0,1,190.0,1
1299,1299,0.01859730876713983,0.0,1.0,1.0,430.0,845.0,1.0,1,1725.0,1
1300,1300,0.05901816879878252,0.1,0.0,0.0,449.0,775.0,0.0,1,1776.0,1
1301,1301,-0.5576595494540866,-0.6,1.0,0.0,272.0,666.0,0.0,0,662.0,1
1302,1302,0.6783301446182314,0.7,0.0,0.0,494.0,770.0,0.0,1,216.0,1
1303,1303,-0.5667928491449951,-0.6,1.0,0.0,332.0,824.0,0.0,0,734.0,1
1304,1304,0.06465045511700773,0.1,0.0,0.0,440.0,527.0,0.0,1,1223.0,1
1305,1305,0.871654329130581,0.9,1.0,1.0,275.0,508.0,1.0,1,287.0,1
1306,1306,0.8195118783070267,0.8,1.0,1.0,485.0,843.0,1.0,1,372.0,1
1307,1307,0.0656138413047862,0.1,0.0,0.0,476.0,994.0,0.0,1,1530.0,1
1308,1308,-0.6221009558950488,-0.6,0.0,1.0,290.0,745.0,1.0,0,215.0,1
1309,1309,-0.14800059870735127,-0.1,1.0,0.0,478.0,590.0,0.0,0,1932.0,1
1310,1310,0.10108044543258898,0.1,0.0,0.0,459.0,934.0,1.0,0,1607.0,0
1311,1311,-0.6133855594882104,-0.6,0.0,1.0,362.0,805.0,1.0,0,113.0,1
1312,1312,-0.3842057399635149,-0.4,0.0,1.0,450.0,774.0,1.0,0,106.0,1
1313,1313,-0.7776498232518572,-0.8,1.0,0.0,474.0,962.0,0.0,0,304.0,1
1314,1314,-0.1650538802151249,-0.2,1.0,0.0,419.0,932.0,0.0,0,559.0,1
1315,1315,0.5790061418892681,0.6,1.0,1.0,334.0,827.0,1.0,1,129.0,1
1316,1316,-0.09038741935433392,-0.1,0.0,1.0,406.0,569.0,1.0,0,335.0,1
1317,1317,0.48299099277137236,0.5,0.0,0.0,498.0,862.0,0.0,1,260.0,1
1318,1318,-0.2921737504895643,-0.3,0.0,1.0,271.0,987.0,1.0,0,1042.0,1
1319,1319,0.26611403936090083,0.3,0.0,0.0,266.0,525.0,0.0,1,839.0,1
1320,1320,-0.14620569540806172,-0.1,1.0,0.0,451.0,940.0,0.0,0,1609.0,1
1321,1321,-0.8178605982684727,-0.8,0.0,1.0,488.0,630.0,1.0,0,122.0,1
1322,1322,-0.04641074679013579,-0.0,0.0,1.0,465.0,905.0,0.0,1,1630.0,0
1323,1323,-0.10229107203849863,-0.1,1.0,0.0,395.0,723.0,0.0,0,1882.0,1
1324,1324,0.5707168521614171,0.6,0.0,0.0,328.0,613.0,0.0,1,309.0,1
1325,1325,-0.7815893339191538,-0.8,0.0,1.0,270.0,949.0,1.0,0,371.0,1
1326,1326,-0.2644342551727541,-0.3,0.0,1.0,349.0,916.0,1.0,0,925.0,1
1327,1327,0.8387826446534449,0.8,1.0,1.0,467.0,818.0,1.0,1,185.0,1
1328,1328,-0.13740584989993376,-0.1,0.0,1.0,283.0,823.0,1.0,0,1054.0,1
1329,1329,0.6501823271719297,0.7,0.0,0.0,258.0,570.0,0.0,1,142.0,1
1330,1330,0.6631848204642924,0.7,0.0,0.0,462.0,725.0,0.0,1,213.0,1
1331,1331,0.20420178618817386,0.2,0.0,0.0,382.0,997.0,0.0,1,901.0,1
1332,1332,-0.8489649841821422,-0.8,1.0,0.0,254.0,619.0,0.0,0,357.0,1
1333,1333,0.23334460080326191,0.2,1.0,1.0,280.0,650.0,1.0,1,990.0,1
1334,1334,0.26645604936749556,0.3,0.0,0.0,452.0,798.0,0.0,1,780.0,1
1335,1335,-0.3734291610114667,-0.4,0.0,1.0,418.0,794.0,1.0,0,118.0,1
1336,1336,-0.4834888571386864,-0.5,0.0,1.0,362.0,798.0,1.0,0,410.0,1
1337,1337,-0.5291092871191412,-0.5,1.0,0.0,306.0,863.0,0.0,0,601.0,1
1338,1338,-0.8419925903230352,-0.8,0.0,1.0,463.0,768.0,1.0,0,139.0,1
1339,1339,-0.7371848614918134,-0.7,0.0,1.0,447.0,960.0,1.0,0,363.0,1
1340,1340,0.11364513628651218,0.1,1.0,1.0,407.0,801.0,1.0,1,1112.0,1
1341,1341,0.6468681341708654,0.6,0.0,0.0,472.0,979.0,0.0,1,209.0,1
1342,1342,0.14694763630792373,0.1,0.0,0.0,297.0,911.0,0.0,1,982.0,1
1343,1343,0.8156742511263496,0.8,1.0,1.0,360.0,623.0,1.0,1,207.0,1
1344,1344,-0.29579601464055516,-0.3,0.0,1.0,430.0,867.0,1.0,0,433.0,1
1345,1345,0.3320202444014403,0.3,0.0,0.0,412.0,554.0,0.0,1,274.0,1
1346,1346,0.23562037077466813,0.2,1.0,1.0,280.0,753.0,1.0,1,1477.0,1
1347,1347,-0.23539551825372884,-0.2,1.0,0.0,312.0,622.0,0.0,0,326.0,1
1348,1348,-0.6416060396910488,-0.6,0.0,1.0,492.0,628.0,1.0,0,160.0,1
1349,1349,-0.10270032652725714,-0.1,1.0,0.0,473.0,576.0,0.0,0,1951.0,1
1350,1350,-0.31125856117954476,-0.3,0.0,1.0,253.0,827.0,1.0,0,570.0,1
1351,1351,-0.7702301928961425,-0.8,0.0,1.0,343.0,967.0,1.0,0,270.0,1
1352,1352,-0.37744349764617735,-0.4,1.0,0.0,345.0,844.0,0.0,0,401.0,1
1353,1353,-0.2237183553675316,-0.2,0.0,1.0,276.0,709.0,1.0,0,595.0,1
1354,1354,-0.29696692225793664,-0.3,1.0,0.0,302.0,916.0,0.0,0,222.0,1
1355,1355,-0.5723662720109737,-0.6,0.0,1.0,403.0,662.0,1.0,0,415.0,1
1356,1356,-0.062419192371667265,-0.1,1.0,0.0,419.0,793.0,0.0,0,1788.0,1
1357,1357,-0.7862096686864674,-0.8,1.0,0.0,460.0,700.0,0.0,0,490.0,1
1358,1358,0.8356787484086144,0.8,1.0,1.0,469.0,570.0,1.0,1,91.0,1
1359,1359,0.6198210440446993,0.6,1.0,1.0,252.0,568.0,1.0,1,290.0,1
1360,1360,-0.8350951222002359,-0.8,0.0,1.0,485.0,650.0,1.0,0,-105.0,1
1361,1361,-0.5952148334247176,-0.6,0.0,1.0,461.0,744.0,1.0,0,545.0,1
1362,1362,0.05447379473935943,0.1,0.0,0.0,478.0,941.0,0.0,1,1341.0,1
1363,1363,0.816507337415341,0.8,0.0,0.0,304.0,721.0,0.0,1,285.0,1
1364,1364,-0.021605314013441346,-0.0,1.0,0.0,440.0,901.0,0.0,0,1659.0,1
1365,1365,0.14564717014184347,0.1,0.0,0.0,334.0,629.0,0.0,1,1017.0,1
1366,1366,-0.8819806319460464,-0.9,0.0,1.0,469.0,512.0,1.0,0,179.0,1
1367,1367,-0.5338192476931911,-0.5,0.0,1.0,341.0,674.0,1.0,0,295.0,1
1368,1368,0.5295594233008266,0.5,0.0,0.0,468.0,879.0,0.0,1,233.0,1
1369,1369,0.6342332797345823,0.6,0.0,0.0,275.0,947.0,0.0,1,148.0,1
1370,1370,-0.0503236921853798,-0.1,1.0,0.0,257.0,806.0,0.0,0,1937.0,1
1371,1371,0.597227305529768,0.6,0.0,0.0,432.0,516.0,0.0,1,632.0,1
1372,1372,-0.7175749531054877,-0.7,1.0,0.0,329.0,603.0,0.0,0,868.0,1
1373,1373,-0.2402142937667331,-0.2,1.0,0.0,292.0,626.0,0.0,0,1262.0,1
1374,1374,0.0005062735676780727,0.0,1.0,1.0,272.0,692.0,0.0,0,2036.0,0
1375,1375,0.6361467550569267,0.6,0.0,0.0,448.0,703.0,0.0,1,299.0,1
1376,1376,0.2887968750098887,0.3,1.0,1.0,363.0,627.0,1.0,1,890.0,1
1377,1377,-0.8287855447960958,-0.8,1.0,0.0,309.0,635.0,0.0,0,286.0,1
1378,1378,-0.1387164145940336,-0.1,0.0,1.0,465.0,979.0,1.0,0,1386.0,1
1379,1379,0.8311080101520995,0.8,1.0,1.0,431.0,881.0,1.0,1,248.0,1
1380,1380,-0.7893110719916995,-0.8,1.0,0.0,477.0,984.0,0.0,0,339.0,1
1381,1381,-0.7613224624041731,-0.8,1.0,0.0,342.0,923.0,0.0,0,135.0,1
1382,1382,-0.7206057197777787,-0.7,1.0,0.0,403.0,766.0,0.0,0,261.0,1
1383,1383,0.8329404527035026,0.8,1.0,1.0,336.0,667.0,1.0,1,157.0,1
1384,1384,0.2842563424368819,0.3,1.0,1.0,435.0,611.0,1.0,1,974.0,1
1385,1385,-0.501907075708804,-0.5,0.0,1.0,265.0,832.0,1.0,0,753.0,1
1386,1386,0.6046646805872279,0.6,0.0,0.0,416.0,721.0,0.0,1,343.0,1
1387,1387,-0.2988025075771178,-0.3,0.0,1.0,269.0,620.0,1.0,0,71.0,1
1388,1388,0.81567296203574,0.8,1.0,1.0,318.0,788.0,1.0,1,214.0,1
1389,1389,-0.0033196912049267002,-0.0,1.0,0.0,426.0,544.0,0.0,0,2030.0,1
1390,1390,0.6476023767673041,0.6,1.0,1.0,362.0,991.0,1.0,1,297.0,1
1391,1391,-0.8832735202318149,-0.9,1.0,0.0,323.0,972.0,0.0,0,45.0,1
1392,1392,0.6439085433947275,0.6,0.0,0.0,313.0,887.0,0.0,1,230.0,1
1393,1393,-0.4934229409567672,-0.5,0.0,1.0,434.0,663.0,1.0,0,803.0,1
1394,1394,0.868394272688816,0.9,1.0,1.0,408.0,522.0,1.0,1,290.0,1
1395,1395,0.70368610258224,0.7,0.0,0.0,374.0,530.0,0.0,1,506.0,1
1396,1396,0.09111270934989202,0.1,0.0,0.0,253.0,820.0,0.0,1,1927.0,1
1397,1397,-0.659276025914384,-0.7,1.0,0.0,284.0,709.0,0.0,0,537.0,1
1398,1398,-0.45251724870392895,-0.5,1.0,0.0,467.0,958.0,0.0,0,295.0,1
1399,1399,-0.3588148666785085,-0.4,0.0,1.0,456.0,798.0,1.0,0,406.0,1
1400,1400,-0.5241652219425117,-0.5,0.0,1.0,251.0,840.0,1.0,0,479.0,1
1401,1401,0.09884274511895896,0.1,1.0,1.0,320.0,587.0,1.0,1,2093.0,1
1402,1402,0.42714111712855296,0.4,1.0,1.0,277.0,516.0,1.0,1,387.0,1
1403,1403,-0.02283790486865711,-0.0,1.0,0.0,383.0,755.0,0.0,0,1862.0,1
1404,1404,-0.031698819721603266,-0.0,0.0,1.0,277.0,977.0,1.0,0,606.0,1
1405,1405,0.6191740167756327,0.6,0.0,0.0,427.0,690.0,0.0,1,1083.0,1
1406,1406,0.2091799623355387,0.2,0.0,0.0,417.0,907.0,0.0,1,896.0,1
1407,1407,0.4585528747669224,0.5,0.0,0.0,277.0,972.0,0.0,1,241.0,1
1408,1408,-0.7976081702853115,-0.8,1.0,0.0,342.0,546.0,0.0,0,202.0,1
1409,1409,-0.027775924068344726,-0.0,1.0,0.0,490.0,606.0,1.0,1,1904.0,0
1410,1410,0.560475258618513,0.6,0.0,0.0,431.0,707.0,1.0,0,-98.0,0
1411,1411,-0.21701215749544867,-0.2,1.0,0.0,317.0,727.0,0.0,0,1026.0,1
1412,1412,0.4035280443663448,0.4,1.0,1.0,473.0,796.0,1.0,1,361.0,1
1413,1413,-0.2691755085905433,-0.3,1.0,0.0,414.0,619.0,0.0,0,767.0,1
1414,1414,0.06377756107163668,0.1,0.0,0.0,330.0,954.0,1.0,0,1716.0,0
1415,1415,-0.7787252803367662,-0.8,1.0,0.0,483.0,749.0,0.0,0,628.0,1
1416,1416,0.1530356599896051,0.2,0.0,0.0,378.0,567.0,0.0,1,625.0,1
1417,1417,0.6072203749923116,0.6,1.0,1.0,492.0,976.0,1.0,1,252.0,1
1418,1418,0.1307732417898585,0.1,0.0,0.0,269.0,875.0,0.0,1,1856.0,1
1419,1419,0.36317511563594473,0.4,0.0,0.0,485.0,724.0,0.0,1,491.0,1
1420,1420,-0.3941573705466548,-0.4,0.0,1.0,259.0,673.0,1.0,0,248.0,1
1421,1421,-0.6423272652949292,-0.6,0.0,1.0,340.0,642.0,1.0,0,258.0,1
1422,1422,0.7120424690561201,0.7,0.0,0.0,422.0,607.0,0.0,1,261.0,1
1423,1423,-0.2114909542286859,-0.2,0.0,1.0,380.0,922.0,1.0,0,1308.0,1
1424,1424,0.05278708910047469,0.1,1.0,1.0,497.0,754.0,0.0,0,1749.0,0
1425,1425,-0.8735042587282026,-0.9,1.0,0.0,294.0,767.0,0.0,0,699.0,1
1426,1426,0.7743680384714283,0.8,0.0,0.0,340.0,856.0,0.0,1,254.0,1
1427,1427,-0.5137202415997774,-0.5,1.0,0.0,388.0,676.0,0.0,0,176.0,1
1428,1428,0.36066755660120753,0.4,0.0,0.0,283.0,777.0,0.0,1,440.0,1
1429,1429,-0.12006094459337013,-0.1,1.0,0.0,405.0,663.0,0.0,0,1812.0,1
1430,1430,-0.07789702266301357,-0.1,0.0,1.0,400.0,767.0,1.0,0,1833.0,1
1431,1431,0.419786429706405,0.4,0.0,0.0,408.0,543.0,0.0,1,269.0,1
1432,1432,-0.19832814166148605,-0.2,1.0,0.0,325.0,697.0,0.0,0,248.0,1
1433,1433,0.7411548466387264,0.7,1.0,1.0,252.0,578.0,1.0,1,460.0,1
1434,1434,-0.6791402632787623,-0.7,1.0,0.0,382.0,869.0,0.0,0,359.0,1
1435,1435,0.8563674797878565,0.9,1.0,1.0,457.0,800.0,1.0,1,183.0,1
1436,1436,0.08193792001803202,0.1,0.0,0.0,342.0,701.0,1.0,0,1957.0,0
1437,1437,0.19941685986327118,0.2,0.0,0.0,419.0,630.0,0.0,1,1561.0,1
1438,1438,0.6505819337319095,0.7,1.0,1.0,297.0,564.0,1.0,1,469.0,1
1439,1439,0.8983106379055269,0.9,0.0,0.0,444.0,665.0,0.0,1,131.0,1
1440,1440,0.6910444443446665,0.7,1.0,1.0,290.0,991.0,1.0,1,99.0,1
1441,1441,-0.42794096029682843,-0.4,1.0,0.0,458.0,623.0,0.0,0,639.0,1
1442,1442,-0.13951672415886163,-0.1,0.0,1.0,403.0,578.0,1.0,0,729.0,1
1443,1443,0.5213054049810545,0.5,0.0,0.0,265.0,938.0,0.0,1,297.0,1
1444,1444,-0.5836540983450094,-0.6,1.0,0.0,328.0,776.0,0.0,0,1306.0,1
1445,1445,0.42673234704588425,0.4,0.0,0.0,486.0,869.0,0.0,1,465.0,1
1446,1446,0.32394207694980726,0.3,0.0,0.0,384.0,533.0,0.0,1,633.0,1
1447,1447,0.22022460103835584,0.2,0.0,0.0,274.0,831.0,0.0,1,655.0,1
1448,1448,-0.03678665910871415,-0.0,1.0,0.0,411.0,592.0,1.0,1,1997.0,0
1449,1449,0.6715426238466743,0.7,1.0,1.0,462.0,759.0,1.0,1,149.0,1
1450,1450,-0.24319665534452795,-0.2,0.0,1.0,382.0,687.0,1.0,0,561.0,1
1451,1451,-0.8697519952682611,-0.9,0.0,1.0,405.0,795.0,1.0,0,260.0,1
1452,1452,-0.4036030826871771,-0.4,0.0,1.0,259.0,848.0,1.0,0,463.0,1
1453,1453,0.22454244972865023,0.2,1.0,1.0,362.0,649.0,1.0,1,509.0,1
1454,1454,0.8817591488355491,0.9,0.0,0.0,342.0,963.0,0.0,1,185.0,1
1455,1455,0.30670707808361997,0.3,1.0,1.0,483.0,955.0,1.0,1,412.0,1
1456,1456,-0.865317984710029,-0.9,1.0,0.0,439.0,659.0,0.0,0,152.0,1
1457,1457,0.4399250699231484,0.4,0.0,0.0,346.0,565.0,0.0,1,449.0,1
1458,1458,0.4891739156942446,0.5,1.0,1.0,250.0,993.0,1.0,1,347.0,1
1459,1459,-0.40042717975064335,-0.4,0.0,1.0,436.0,883.0,1.0,0,851.0,1
1460,1460,-0.046732973372231035,-0.0,1.0,0.0,358.0,870.0,0.0,0,1772.0,1
1461,1461,-0.20676281775177452,-0.2,0.0,1.0,443.0,566.0,1.0,0,1101.0,1
1462,1462,-0.8400845734269435,-0.8,1.0,0.0,275.0,752.0,0.0,0,163.0,1
1463,1463,-0.022123740019412752,-0.0,0.0,1.0,450.0,514.0,1.0,0,2036.0,1
1464,1464,0.02032903394238894,0.0,1.0,1.0,289.0,667.0,1.0,1,1914.0,1
1465,1465,-0.2455808527648503,-0.2,0.0,1.0,485.0,916.0,1.0,0,1209.0,1
1466,1466,-0.7831629550589085,-0.8,0.0,1.0,346.0,742.0,1.0,0,122.0,1
1467,1467,-0.43391169778365196,-0.4,1.0,0.0,465.0,930.0,0.0,0,135.0,1
1468,1468,0.20055065603112154,0.2,0.0,0.0,456.0,727.0,0.0,1,1817.0,1
1469,1469,0.6516010031241154,0.7,1.0,1.0,265.0,990.0,1.0,1,285.0,1
1470,1470,-0.2912771158497427,-0.3,0.0,1.0,252.0,609.0,1.0,0,649.0,1
1471,1471,-0.14986903640674687,-0.1,0.0,1.0,386.0,955.0,1.0,0,1159.0,1
1472,1472,-0.8517740791265618,-0.9,0.0,1.0,451.0,949.0,1.0,0,190.0,1
1473,1473,-0.8214769894822467,-0.8,1.0,0.0,437.0,942.0,0.0,0,291.0,1
1474,1474,0.18398637823947694,0.2,0.0,0.0,494.0,826.0,0.0,1,1350.0,1
1475,1475,0.061661493712684035,0.1,1.0,1.0,344.0,837.0,0.0,0,1819.0,0
1476,1476,-0.3320749946397522,-0.3,0.0,1.0,459.0,542.0,1.0,0,759.0,1
1477,1477,0.8678866208627071,0.9,1.0,1.0,310.0,697.0,1.0,1,373.0,1
1478,1478,0.6408469258373014,0.6,0.0,0.0,499.0,625.0,0.0,1,176.0,1
1479,1479,0.6123474117107229,0.6,0.0,0.0,354.0,935.0,0.0,1,271.0,1
1480,1480,-0.826759289136803,-0.8,0.0,1.0,282.0,776.0,1.0,0,52.0,1
1481,1481,-0.7243654403834464,-0.7,0.0,1.0,335.0,649.0,1.0,0,186.0,1
1482,1482,0.18532010339201122,0.2,0.0,0.0,472.0,764.0,0.0,1,1324.0,1
1483,1483,-0.38510843334412914,-0.4,0.0,1.0,396.0,655.0,1.0,0,59.0,1
1484,1484,0.22072793040691174,0.2,0.0,0.0,484.0,803.0,0.0,1,1073.0,1
1485,1485,-0.2730605265828756,-0.3,0.0,1.0,275.0,996.0,1.0,0,699.0,1
1486,1486,-0.24148925306254443,-0.2,1.0,0.0,265.0,906.0,0.0,0,429.0,1
1487,1487,-0.5183775759651883,-0.5,1.0,0.0,310.0,550.0,0.0,0,180.0,1
1488,1488,-0.7912717979165296,-0.8,1.0,0.0,450.0,686.0,0.0,0,194.0,1
