,trial,coherence,coherence_bin,green_side,correct_side,target_onset,checker_onset,decision,green_decision,decision_time,correct_decision
0,0,0.09393570426756737,0.1,0.0,0.0,345.0,766.0,0.0,1,889.0,1
1,1,0.7086575318745026,0.7,0.0,0.0,414.0,759.0,0.0,1,127.0,1
2,2,-0.4918060579249821,-0.5,1.0,0.0,359.0,845.0,0.0,0,396.0,1
3,3,0.6529782054200007,0.7,0.0,0.0,497.0,831.0,0.0,1,182.0,1
4,4,0.03960584577674253,0.0,1.0,1.0,364.0,532.0,1.0,1,414.0,1
5,5,0.367026454029591,0.4,1.0,1.0,485.0,785.0,1.0,1,210.0,1
6,6,0.8507071529784077,0.9,1.0,1.0,258.0,651.0,1.0,1,121.0,1
7,7,0.6907957265349792,0.7,1.0,1.0,396.0,926.0,1.0,1,68.0,1
8,8,-0.7411367160388996,-0.7,0.0,1.0,291.0,969.0,1.0,0,180.0,1
9,9,0.321868473164871,0.3,0.0,0.0,299.0,558.0,0.0,1,273.0,1
10,10,0.1539973055565128,0.2,1.0,1.0,398.0,857.0,1.0,1,15.0,1
11,11,-0.2584298622211856,-0.3,1.0,0.0,282.0,524.0,0.0,0,654.0,1
12,12,-0.7637823811730752,-0.8,0.0,1.0,330.0,658.0,1.0,0,322.0,1
13,13,-0.3996661525287746,-0.4,1.0,0.0,397.0,956.0,0.0,0,237.0,1
14,14,-0.26685571148014187,-0.3,0.0,1.0,426.0,942.0,1.0,0,232.0,1
15,15,0.05736025264466049,0.1,0.0,0.0,307.0,955.0,1.0,0,-32.0,0
16,16,-0.3273789693494146,-0.3,1.0,0.0,416.0,521.0,0.0,0,643.0,1
17,17,-0.2577786685568656,-0.3,0.0,1.0,307.0,896.0,1.0,0,497.0,1
18,18,0.8786839727323553,0.9,0.0,0.0,327.0,592.0,0.0,1,141.0,1
19,19,0.5033770736734954,0.5,0.0,0.0,411.0,903.0,0.0,1,216.0,1
20,20,-0.18820784843392213,-0.2,0.0,1.0,292.0,644.0,1.0,0,714.0,1
21,21,-0.26046558973168066,-0.3,1.0,0.0,252.0,710.0,0.0,0,298.0,1
22,22,-0.8942037143146107,-0.9,1.0,0.0,260.0,756.0,0.0,0,144.0,1
23,23,0.7951929428051138,0.8,1.0,1.0,269.0,518.0,1.0,1,183.0,1
24,24,0.47670942017496787,0.5,0.0,0.0,437.0,522.0,0.0,1,71.0,1
25,25,-0.5066581855943386,-0.5,0.0,1.0,491.0,862.0,1.0,0,297.0,1
26,26,0.6981513473215913,0.7,1.0,1.0,338.0,911.0,1.0,1,61.0,1
27,27,-0.29885071948169484,-0.3,0.0,1.0,308.0,854.0,1.0,0,408.0,1
28,28,0.49070762884344876,0.5,0.0,0.0,381.0,842.0,0.0,1,77.0,1
29,29,0.5184084359723798,0.5,1.0,1.0,453.0,716.0,1.0,1,351.0,1
30,30,-0.5597545681330736,-0.6,1.0,0.0,291.0,781.0,0.0,0,278.0,1
31,31,0.6595587147192888,0.7,0.0,0.0,297.0,714.0,0.0,1,119.0,1
32,32,-0.10918142227817007,-0.1,0.0,1.0,468.0,953.0,1.0,0,869.0,1
33,33,-0.5269719794820835,-0.5,1.0,0.0,364.0,738.0,0.0,0,158.0,1
34,34,-0.7142988357166887,-0.7,0.0,1.0,390.0,621.0,1.0,0,249.0,1
35,35,-0.2271461163870493,-0.2,0.0,1.0,346.0,777.0,1.0,0,917.0,1
36,36,-0.6886822076303006,-0.7,0.0,1.0,467.0,820.0,1.0,0,143.0,1
37,37,-0.875223891696655,-0.9,0.0,1.0,426.0,987.0,1.0,0,97.0,1
38,38,0.7273680049984056,0.7,1.0,1.0,457.0,579.0,1.0,1,134.0,1
39,39,0.5223589976195587,0.5,1.0,1.0,473.0,601.0,1.0,1,176.0,1
40,40,0.16792938748305064,0.2,1.0,1.0,393.0,974.0,1.0,1,303.0,1
41,41,-0.4700707189720219,-0.5,1.0,0.0,427.0,992.0,0.0,0,261.0,1
42,42,0.20196192041986694,0.2,0.0,0.0,320.0,598.0,0.0,1,342.0,1
43,43,-0.39863077090120425,-0.4,1.0,0.0,427.0,559.0,0.0,0,514.0,1
44,44,-0.5158620799015682,-0.5,1.0,0.0,496.0,674.0,0.0,0,160.0,1
45,45,0.582835138362748,0.6,0.0,0.0,336.0,588.0,0.0,1,226.0,1
46,46,-0.22198379881122943,-0.2,0.0,1.0,353.0,704.0,1.0,0,783.0,1
47,47,0.5785776160664243,0.6,1.0,1.0,417.0,757.0,1.0,1,186.0,1
48,48,-0.6192217863709295,-0.6,1.0,0.0,377.0,645.0,0.0,0,368.0,1
49,49,0.3942080200760566,0.4,1.0,1.0,294.0,824.0,1.0,1,152.0,1
50,50,-0.04469972753794216,-0.0,0.0,1.0,338.0,742.0,1.0,0,1920.0,1
51,51,-0.8261835006880979,-0.8,1.0,0.0,477.0,769.0,0.0,0,194.0,1
52,52,0.6102492237475218,0.6,1.0,1.0,314.0,988.0,1.0,1,198.0,1
53,53,-0.28394543836050734,-0.3,1.0,0.0,371.0,967.0,0.0,0,262.0,1
54,54,0.6310819451540598,0.6,1.0,1.0,293.0,663.0,1.0,1,194.0,1
55,55,0.7583913739731333,0.8,0.0,0.0,278.0,716.0,0.0,1,176.0,1
56,56,-0.8864547014993432,-0.9,1.0,0.0,430.0,909.0,0.0,0,181.0,1
57,57,0.568563723708562,0.6,1.0,1.0,321.0,578.0,1.0,1,291.0,1
58,58,-0.010594928836018536,-0.0,1.0,0.0,354.0,681.0,1.0,1,715.0,0
59,59,-0.40803264884212526,-0.4,0.0,1.0,307.0,949.0,1.0,0,224.0,1
60,60,-0.025258342419127833,-0.0,1.0,0.0,299.0,668.0,1.0,1,923.0,0
61,61,-0.43121591653498254,-0.4,0.0,1.0,467.0,695.0,1.0,0,398.0,1
62,62,-0.3962558971187953,-0.4,0.0,1.0,285.0,900.0,1.0,0,515.0,1
63,63,0.40721528665944906,0.4,1.0,1.0,358.0,727.0,1.0,1,195.0,1
64,64,0.21896734251359817,0.2,0.0,0.0,466.0,508.0,0.0,1,596.0,1
65,65,0.6209184016324186,0.6,1.0,1.0,362.0,531.0,1.0,1,277.0,1
66,66,-0.7234607235772919,-0.7,1.0,0.0,358.0,985.0,0.0,0,57.0,1
67,67,-0.6876905032474181,-0.7,0.0,1.0,351.0,744.0,1.0,0,145.0,1
68,68,0.508753725058685,0.5,0.0,0.0,261.0,967.0,0.0,1,292.0,1
69,69,-0.2518827353544274,-0.3,0.0,1.0,292.0,572.0,1.0,0,466.0,1
70,70,0.030553736053102964,0.0,1.0,1.0,470.0,597.0,1.0,1,1933.0,1
71,71,0.686006075196489,0.7,0.0,0.0,438.0,563.0,0.0,1,279.0,1
72,72,0.7334367827362388,0.7,0.0,0.0,480.0,911.0,0.0,1,119.0,1
73,73,0.06936056164820414,0.1,1.0,1.0,342.0,620.0,1.0,1,458.0,1
74,74,-0.45040270430669,-0.5,0.0,1.0,443.0,531.0,1.0,0,426.0,1
75,75,0.3664483134130131,0.4,1.0,1.0,445.0,830.0,1.0,1,165.0,1
76,76,-0.623614656393723,-0.6,0.0,1.0,461.0,889.0,1.0,0,150.0,1
77,77,-0.10757321729527725,-0.1,0.0,1.0,250.0,687.0,1.0,0,913.0,1
78,78,-0.23565894742526772,-0.2,0.0,1.0,345.0,914.0,1.0,0,321.0,1
79,79,-0.843839473888813,-0.8,1.0,0.0,294.0,730.0,0.0,0,226.0,1
80,80,-0.8169955585139624,-0.8,1.0,0.0,494.0,529.0,0.0,0,147.0,1
81,81,-0.4901344083408149,-0.5,1.0,0.0,457.0,507.0,0.0,0,406.0,1
82,82,0.2692128372301815,0.3,1.0,1.0,257.0,715.0,1.0,1,478.0,1
83,83,-0.6404284463759335,-0.6,0.0,1.0,421.0,751.0,1.0,0,188.0,1
84,84,-0.7507803277132876,-0.8,0.0,1.0,437.0,628.0,1.0,0,95.0,1
85,85,-0.41535169734001776,-0.4,1.0,0.0,442.0,844.0,0.0,0,184.0,1
86,86,-0.7580637759822281,-0.8,1.0,0.0,474.0,646.0,0.0,0,150.0,1
87,87,0.7248079729596933,0.7,1.0,1.0,481.0,889.0,1.0,1,90.0,1
88,88,-0.8412501718142679,-0.8,1.0,0.0,404.0,857.0,0.0,0,249.0,1
89,89,0.526003421230235,0.5,0.0,0.0,413.0,964.0,0.0,1,143.0,1
90,90,-0.8488103757380121,-0.8,1.0,0.0,275.0,703.0,0.0,0,162.0,1
91,91,-0.8097313826076837,-0.8,0.0,1.0,446.0,960.0,1.0,0,124.0,1
92,92,-0.4767430271078979,-0.5,0.0,1.0,346.0,863.0,1.0,0,241.0,1
93,93,-0.7470180868074077,-0.7,1.0,0.0,475.0,598.0,0.0,0,327.0,1
94,94,-0.8904414613942574,-0.9,1.0,0.0,487.0,526.0,0.0,0,407.0,1
95,95,-0.33068462551271616,-0.3,1.0,0.0,297.0,696.0,0.0,0,597.0,1
96,96,0.4085369282177179,0.4,0.0,0.0,458.0,606.0,0.0,1,376.0,1
97,97,0.10890758055237237,0.1,1.0,1.0,254.0,646.0,1.0,1,850.0,1
98,98,-0.38834113037202855,-0.4,0.0,1.0,279.0,765.0,1.0,0,256.0,1
99,99,0.18860037326546342,0.2,0.0,0.0,474.0,985.0,0.0,1,421.0,1
100,100,0.37951020242653255,0.4,1.0,1.0,404.0,829.0,1.0,1,157.0,1
101,101,0.28208398713666105,0.3,0.0,0.0,496.0,513.0,0.0,1,781.0,1
102,102,-0.81571592952444,-0.8,0.0,1.0,323.0,725.0,1.0,0,232.0,1
103,103,0.5806732158125346,0.6,0.0,0.0,339.0,567.0,0.0,1,214.0,1
104,104,-0.6588071728840336,-0.7,0.0,1.0,487.0,541.0,1.0,0,212.0,1
105,105,-0.5281094948129528,-0.5,1.0,0.0,414.0,597.0,0.0,0,329.0,1
106,106,-0.633546080199031,-0.6,1.0,0.0,383.0,693.0,0.0,0,254.0,1
107,107,-0.1795044297948134,-0.2,1.0,0.0,491.0,538.0,0.0,0,1101.0,1
108,108,-0.6456095037831322,-0.6,1.0,0.0,362.0,718.0,0.0,0,130.0,1
109,109,0.3576823091648168,0.4,1.0,1.0,276.0,500.0,1.0,1,424.0,1
110,110,0.6603027382659193,0.7,1.0,1.0,256.0,590.0,1.0,1,74.0,1
111,111,0.508816756237297,0.5,1.0,1.0,383.0,724.0,1.0,1,193.0,1
112,112,-0.30966000354344936,-0.3,1.0,0.0,415.0,961.0,0.0,0,314.0,1
113,113,0.15385640949171708,0.2,1.0,1.0,330.0,725.0,1.0,1,395.0,1
114,114,0.12869095217314952,0.1,0.0,0.0,410.0,937.0,0.0,1,473.0,1
115,115,0.4914475686028509,0.5,0.0,0.0,332.0,995.0,0.0,1,213.0,1
116,116,-0.2804126357884196,-0.3,1.0,0.0,401.0,868.0,0.0,0,961.0,1
117,117,0.5896307577547671,0.6,0.0,0.0,449.0,967.0,0.0,1,104.0,1
118,118,0.7838730101085333,0.8,1.0,1.0,484.0,772.0,1.0,1,164.0,1
119,119,0.22773555344568053,0.2,0.0,0.0,423.0,909.0,0.0,1,298.0,1
120,120,0.3419879454753173,0.3,1.0,1.0,486.0,679.0,1.0,1,285.0,1
121,121,-0.30314244150400604,-0.3,1.0,0.0,341.0,824.0,0.0,0,495.0,1
122,122,-0.030717911116175056,-0.0,0.0,1.0,431.0,817.0,1.0,0,1752.0,1
123,123,-0.2974465828814393,-0.3,0.0,1.0,392.0,702.0,1.0,0,746.0,1
124,124,-0.21580481279885932,-0.2,1.0,0.0,382.0,949.0,0.0,0,479.0,1
125,125,0.003718537608705552,0.0,1.0,1.0,476.0,937.0,1.0,1,1187.0,1
126,126,-0.41672998615959966,-0.4,1.0,0.0,317.0,775.0,0.0,0,288.0,1
127,127,0.03353150865464105,0.0,1.0,1.0,336.0,894.0,1.0,1,1390.0,1
128,128,-0.8920947312872831,-0.9,1.0,0.0,321.0,539.0,0.0,0,510.0,1
129,129,-0.8376427405122008,-0.8,0.0,1.0,416.0,907.0,1.0,0,237.0,1
130,130,-0.1346161092574759,-0.1,0.0,1.0,441.0,702.0,1.0,0,1857.0,1
131,131,0.7501088841319788,0.8,0.0,0.0,387.0,687.0,0.0,1,256.0,1
132,132,-0.15600630287827655,-0.2,0.0,1.0,383.0,912.0,1.0,0,815.0,1
133,133,-0.5334784037445981,-0.5,1.0,0.0,291.0,650.0,0.0,0,309.0,1
134,134,-0.41059295807974516,-0.4,1.0,0.0,395.0,967.0,0.0,0,198.0,1
135,135,-0.576450476366161,-0.6,0.0,1.0,382.0,501.0,1.0,0,377.0,1
136,136,-0.846652001032402,-0.8,0.0,1.0,417.0,806.0,1.0,0,117.0,1
137,137,-0.3810234700011498,-0.4,1.0,0.0,330.0,504.0,0.0,0,606.0,1
138,138,-0.5015845634069681,-0.5,0.0,1.0,444.0,953.0,1.0,0,223.0,1
139,139,0.18289380550746615,0.2,0.0,0.0,275.0,713.0,0.0,1,372.0,1
140,140,-0.8519627912594628,-0.9,1.0,0.0,350.0,868.0,0.0,0,162.0,1
141,141,-0.34060134032168854,-0.3,0.0,1.0,465.0,524.0,1.0,0,541.0,1
142,142,-0.24911906841294829,-0.2,0.0,1.0,336.0,622.0,1.0,0,702.0,1
143,143,-0.3377895123047773,-0.3,1.0,0.0,455.0,586.0,0.0,0,239.0,1
144,144,0.20076500837204037,0.2,0.0,0.0,340.0,647.0,0.0,1,373.0,1
145,145,-0.10775652031827176,-0.1,0.0,1.0,322.0,956.0,1.0,0,-98.0,1
146,146,0.08690283211649863,0.1,1.0,1.0,267.0,531.0,1.0,1,852.0,1
147,147,-0.3204881842580467,-0.3,1.0,0.0,432.0,690.0,0.0,0,388.0,1
148,148,0.36419389767980503,0.4,1.0,1.0,408.0,685.0,1.0,1,367.0,1
149,149,-0.26652594244272276,-0.3,0.0,1.0,396.0,891.0,1.0,0,113.0,1
150,150,-0.6367606701183027,-0.6,0.0,1.0,326.0,805.0,1.0,0,169.0,1
151,151,0.4739192533930535,0.5,0.0,0.0,386.0,630.0,0.0,1,94.0,1
152,152,0.6455000693711842,0.6,1.0,1.0,374.0,520.0,1.0,1,406.0,1
153,153,-0.0471685538360197,-0.0,0.0,1.0,301.0,949.0,0.0,1,1200.0,0
154,154,-0.8376555967678889,-0.8,0.0,1.0,388.0,694.0,1.0,0,268.0,1
155,155,-0.7290754444819778,-0.7,1.0,0.0,352.0,840.0,0.0,0,168.0,1
156,156,-0.13227280139302877,-0.1,0.0,1.0,317.0,721.0,1.0,0,772.0,1
157,157,-0.7452730732955262,-0.7,0.0,1.0,400.0,628.0,1.0,0,312.0,1
158,158,-0.17376700093975017,-0.2,1.0,0.0,301.0,741.0,0.0,0,718.0,1
159,159,-0.5143743008942181,-0.5,0.0,1.0,351.0,522.0,1.0,0,237.0,1
160,160,-0.5222467129388346,-0.5,0.0,1.0,445.0,755.0,1.0,0,260.0,1
161,161,0.5377627675266728,0.5,1.0,1.0,390.0,633.0,1.0,1,207.0,1
162,162,0.13260332583928747,0.1,1.0,1.0,443.0,962.0,1.0,1,425.0,1
163,163,-0.14105794581026398,-0.1,0.0,1.0,370.0,555.0,1.0,0,615.0,1
164,164,0.21728397677304978,0.2,1.0,1.0,490.0,922.0,1.0,1,288.0,1
165,165,-0.3955183656001542,-0.4,0.0,1.0,334.0,515.0,1.0,0,321.0,1
166,166,-0.15078795071003548,-0.2,1.0,0.0,391.0,741.0,0.0,0,528.0,1
167,167,-0.5639294565197576,-0.6,1.0,0.0,436.0,676.0,0.0,0,208.0,1
168,168,-0.09724627381102446,-0.1,0.0,1.0,448.0,798.0,1.0,0,574.0,1
169,169,-0.5388869082038821,-0.5,1.0,0.0,286.0,868.0,0.0,0,206.0,1
170,170,-0.10320156143903925,-0.1,1.0,0.0,498.0,746.0,0.0,0,1756.0,1
171,171,-0.07056071560373434,-0.1,1.0,0.0,366.0,783.0,1.0,1,1851.0,0
172,172,-0.33466505664938495,-0.3,0.0,1.0,483.0,855.0,1.0,0,272.0,1
173,173,-0.4383499425880714,-0.4,1.0,0.0,413.0,739.0,0.0,0,398.0,1
174,174,0.17987842874818016,0.2,1.0,1.0,459.0,858.0,1.0,1,363.0,1
175,175,0.8063654136395094,0.8,0.0,0.0,376.0,616.0,0.0,1,98.0,1
176,176,0.13882142758556892,0.1,0.0,0.0,364.0,777.0,0.0,1,419.0,1
177,177,-0.5745765653652484,-0.6,1.0,0.0,277.0,662.0,0.0,0,441.0,1
178,178,0.05730088677159639,0.1,1.0,1.0,436.0,844.0,1.0,1,660.0,1
179,179,0.3150000612375973,0.3,0.0,0.0,480.0,757.0,0.0,1,333.0,1
180,180,-0.28736663353083347,-0.3,1.0,0.0,279.0,685.0,0.0,0,696.0,1
181,181,0.006061605019574534,0.0,0.0,0.0,302.0,676.0,1.0,0,2022.0,0
182,182,0.28777140371557597,0.3,1.0,1.0,466.0,736.0,1.0,1,188.0,1
183,183,0.3034745894534866,0.3,1.0,1.0,285.0,845.0,1.0,1,200.0,1
184,184,-0.5200395817864351,-0.5,1.0,0.0,306.0,628.0,0.0,0,336.0,1
185,185,-0.13877557316869038,-0.1,0.0,1.0,373.0,876.0,1.0,0,1531.0,1
186,186,0.7176770033878578,0.7,0.0,0.0,311.0,773.0,0.0,1,236.0,1
187,187,-0.5308028189277116,-0.5,0.0,1.0,311.0,920.0,1.0,0,249.0,1
188,188,0.3819299215107138,0.4,0.0,0.0,427.0,821.0,0.0,1,342.0,1
189,189,0.04041152063164155,0.0,0.0,0.0,470.0,757.0,1.0,0,1773.0,0
190,190,0.6343829938486673,0.6,0.0,0.0,376.0,545.0,0.0,1,369.0,1
191,191,0.10238563104516685,0.1,1.0,1.0,422.0,948.0,1.0,1,420.0,1
192,192,0.7703960830176054,0.8,1.0,1.0,463.0,638.0,1.0,1,249.0,1
193,193,0.4382376277769594,0.4,1.0,1.0,413.0,900.0,1.0,1,277.0,1
194,194,0.24853815829370818,0.2,1.0,1.0,290.0,789.0,1.0,1,251.0,1
195,195,0.3574557745358288,0.4,1.0,1.0,394.0,880.0,1.0,1,166.0,1
196,196,0.7890341862239011,0.8,1.0,1.0,283.0,844.0,1.0,1,103.0,1
197,197,-0.05666806392258572,-0.1,0.0,1.0,337.0,541.0,1.0,0,1692.0,1
198,198,0.04408055580154502,0.0,0.0,0.0,288.0,559.0,0.0,1,1163.0,1
199,199,0.6873836733536737,0.7,0.0,0.0,419.0,963.0,0.0,1,158.0,1
200,200,0.8467381733165945,0.8,1.0,1.0,274.0,601.0,1.0,1,115.0,1
201,201,0.11004694461466091,0.1,0.0,0.0,372.0,690.0,0.0,1,458.0,1
202,202,-0.7157674658324201,-0.7,1.0,0.0,306.0,908.0,0.0,0,246.0,1
203,203,0.18320441652054453,0.2,1.0,1.0,416.0,755.0,1.0,1,379.0,1
204,204,0.37284144868207625,0.4,1.0,1.0,497.0,863.0,1.0,1,170.0,1
205,205,-0.4325641755323008,-0.4,0.0,1.0,333.0,735.0,1.0,0,292.0,1
206,206,-0.5636613611799923,-0.6,1.0,0.0,409.0,997.0,0.0,0,144.0,1
207,207,-0.07952198043535552,-0.1,1.0,0.0,365.0,933.0,1.0,1,232.0,0
208,208,0.2714613549978139,0.3,0.0,0.0,358.0,981.0,0.0,1,581.0,1
209,209,0.47398895346584513,0.5,1.0,1.0,497.0,857.0,1.0,1,146.0,1
210,210,-0.12206475112097337,-0.1,0.0,1.0,407.0,515.0,1.0,0,1398.0,1
211,211,0.025450310282647215,0.0,0.0,0.0,282.0,565.0,1.0,0,2153.0,0
212,212,0.3770150747477957,0.4,1.0,1.0,413.0,588.0,1.0,1,289.0,1
213,213,0.1368369484400106,0.1,1.0,1.0,369.0,693.0,1.0,1,318.0,1
214,214,0.2021902842116995,0.2,1.0,1.0,346.0,861.0,1.0,1,33.0,1
215,215,-0.105495945868056,-0.1,1.0,0.0,463.0,670.0,0.0,0,1437.0,1
216,216,0.32422069855230207,0.3,0.0,0.0,401.0,524.0,0.0,1,365.0,1
217,217,-0.1843730149499193,-0.2,0.0,1.0,259.0,844.0,1.0,0,607.0,1
218,218,-0.5648574779168856,-0.6,0.0,1.0,379.0,858.0,1.0,0,243.0,1
219,219,-0.7915570666376075,-0.8,1.0,0.0,362.0,716.0,0.0,0,162.0,1
220,220,-0.6561424620221016,-0.7,0.0,1.0,483.0,935.0,1.0,0,332.0,1
221,221,0.540837281103648,0.5,1.0,1.0,417.0,728.0,1.0,1,145.0,1
222,222,0.7304074248509357,0.7,1.0,1.0,499.0,622.0,1.0,1,239.0,1
223,223,-0.2533603399055191,-0.3,0.0,1.0,430.0,794.0,1.0,0,296.0,1
224,224,0.6253326011627028,0.6,0.0,0.0,355.0,917.0,0.0,1,98.0,1
225,225,-0.8329834288684972,-0.8,1.0,0.0,348.0,996.0,0.0,0,166.0,1
226,226,0.2402572329981777,0.2,1.0,1.0,250.0,553.0,1.0,1,617.0,1
227,227,-0.6789431583534504,-0.7,0.0,1.0,349.0,708.0,1.0,0,223.0,1
228,228,0.8134820536763129,0.8,0.0,0.0,333.0,999.0,0.0,1,118.0,1
229,229,-0.8745662353570355,-0.9,1.0,0.0,486.0,931.0,0.0,0,183.0,1
230,230,-0.12401467593970927,-0.1,0.0,1.0,463.0,843.0,1.0,0,474.0,1
231,231,0.6914889957310116,0.7,1.0,1.0,479.0,509.0,1.0,1,292.0,1
232,232,-0.46422885282193516,-0.5,1.0,0.0,402.0,881.0,0.0,0,337.0,1
233,233,0.12003416853463655,0.1,1.0,1.0,370.0,821.0,1.0,1,19.0,1
234,234,0.8204606736438024,0.8,0.0,0.0,421.0,649.0,0.0,1,190.0,1
235,235,-0.5258029353139326,-0.5,0.0,1.0,407.0,864.0,1.0,0,329.0,1
236,236,0.6668064593159168,0.7,1.0,1.0,270.0,736.0,1.0,1,184.0,1
237,237,0.5283764132258867,0.5,1.0,1.0,294.0,821.0,1.0,1,145.0,1
238,238,7.643861231176885e-05,0.0,0.0,0.0,287.0,972.0,1.0,0,1741.0,0
239,239,0.6748354063461698,0.7,0.0,0.0,383.0,840.0,0.0,1,127.0,1
240,240,-0.32234929462714834,-0.3,1.0,0.0,423.0,742.0,0.0,0,465.0,1
241,241,0.2561238062990253,0.3,1.0,1.0,486.0,652.0,1.0,1,382.0,1
242,242,-0.07250903781804485,-0.1,1.0,0.0,304.0,632.0,0.0,0,1284.0,1
243,243,-0.8406788942513205,-0.8,1.0,0.0,408.0,686.0,0.0,0,166.0,1
244,244,0.3052577915152198,0.3,0.0,0.0,276.0,921.0,0.0,1,383.0,1
245,245,0.35034637854226724,0.4,0.0,0.0,482.0,669.0,0.0,1,219.0,1
246,246,-0.15758664169931913,-0.2,1.0,0.0,364.0,924.0,0.0,0,732.0,1
247,247,0.6293737738945454,0.6,0.0,0.0,433.0,959.0,0.0,1,158.0,1
248,248,-0.18949587996847905,-0.2,0.0,1.0,275.0,582.0,1.0,0,653.0,1
249,249,-0.8799291980558883,-0.9,0.0,1.0,305.0,862.0,1.0,0,113.0,1
250,250,-0.7547551645983966,-0.8,0.0,1.0,258.0,659.0,1.0,0,143.0,1
251,251,0.7128136884558968,0.7,1.0,1.0,287.0,861.0,1.0,1,92.0,1
252,252,-0.59781659201283,-0.6,0.0,1.0,486.0,709.0,1.0,0,165.0,1
253,253,-0.407471356212774,-0.4,1.0,0.0,283.0,912.0,0.0,0,305.0,1
254,254,-0.20375423280157368,-0.2,0.0,1.0,422.0,537.0,1.0,0,691.0,1
255,255,-0.7697457065583618,-0.8,1.0,0.0,434.0,791.0,0.0,0,405.0,1
256,256,0.5675639026891978,0.6,0.0,0.0,449.0,555.0,0.0,1,226.0,1
257,257,-0.027542860072716446,-0.0,1.0,0.0,317.0,871.0,0.0,0,1582.0,1
258,258,-0.8401837623121304,-0.8,1.0,0.0,329.0,574.0,0.0,0,187.0,1
259,259,-0.18427181065195497,-0.2,0.0,1.0,263.0,905.0,1.0,0,562.0,1
260,260,-0.5614861683844732,-0.6,1.0,0.0,436.0,603.0,0.0,0,641.0,1
261,261,-0.21804895402522229,-0.2,0.0,1.0,419.0,896.0,1.0,0,515.0,1
262,262,-0.5606112642108508,-0.6,1.0,0.0,324.0,921.0,0.0,0,165.0,1
263,263,0.8066760623868156,0.8,1.0,1.0,446.0,854.0,1.0,1,150.0,1
264,264,0.20975943843123035,0.2,1.0,1.0,445.0,824.0,1.0,1,401.0,1
265,265,-0.20545966032016927,-0.2,1.0,0.0,298.0,949.0,0.0,0,223.0,1
266,266,0.40278708870224034,0.4,0.0,0.0,389.0,785.0,0.0,1,376.0,1
267,267,0.5540324142589598,0.6,0.0,0.0,389.0,529.0,0.0,1,172.0,1
268,268,-0.23357529601521598,-0.2,1.0,0.0,299.0,913.0,0.0,0,418.0,1
269,269,0.0393309014972103,0.0,0.0,0.0,423.0,699.0,1.0,0,1878.0,0
270,270,-0.051628391868943746,-0.1,0.0,1.0,306.0,585.0,1.0,0,1519.0,1
271,271,-0.19136350059786145,-0.2,0.0,1.0,416.0,584.0,1.0,0,810.0,1
272,272,0.8910505381455393,0.9,1.0,1.0,490.0,978.0,1.0,1,82.0,1
273,273,-0.8191295361655552,-0.8,1.0,0.0,285.0,781.0,0.0,0,174.0,1
274,274,0.8874633511200957,0.9,0.0,0.0,289.0,706.0,0.0,1,125.0,1
275,275,-0.8552616378029547,-0.9,1.0,0.0,444.0,776.0,0.0,0,110.0,1
276,276,0.3898130463850441,0.4,1.0,1.0,408.0,554.0,1.0,1,518.0,1
277,277,-0.32703514157666735,-0.3,1.0,0.0,294.0,614.0,0.0,0,392.0,1
278,278,-0.5005556685764478,-0.5,1.0,0.0,353.0,681.0,0.0,0,316.0,1
279,279,-0.706703235781975,-0.7,1.0,0.0,343.0,606.0,0.0,0,191.0,1
280,280,0.4678409884881586,0.5,0.0,0.0,344.0,831.0,0.0,1,165.0,1
281,281,-0.757257309918236,-0.8,1.0,0.0,262.0,857.0,0.0,0,121.0,1
282,282,-0.6771606881119157,-0.7,0.0,1.0,469.0,644.0,1.0,0,237.0,1
283,283,-0.8993046613309961,-0.9,0.0,1.0,318.0,802.0,1.0,0,200.0,1
284,284,-0.4764196699450067,-0.5,1.0,0.0,302.0,751.0,0.0,0,377.0,1
285,285,0.475538398733513,0.5,0.0,0.0,385.0,893.0,0.0,1,142.0,1
286,286,0.5414245543960182,0.5,1.0,1.0,307.0,599.0,1.0,1,424.0,1
287,287,-0.7648358101574128,-0.8,1.0,0.0,470.0,896.0,0.0,0,214.0,1
288,288,0.5888235930369733,0.6,0.0,0.0,476.0,508.0,0.0,1,206.0,1
289,289,-0.24438894419639623,-0.2,0.0,1.0,394.0,808.0,1.0,0,658.0,1
290,290,-0.8990249016457261,-0.9,0.0,1.0,338.0,521.0,1.0,0,171.0,1
291,291,0.40734302273780576,0.4,1.0,1.0,313.0,962.0,1.0,1,275.0,1
292,292,-0.7955128582896881,-0.8,0.0,1.0,305.0,851.0,1.0,0,144.0,1
293,293,0.8841230660637117,0.9,1.0,1.0,425.0,808.0,1.0,1,177.0,1
294,294,-0.6748662062963825,-0.7,1.0,0.0,374.0,914.0,0.0,0,232.0,1
295,295,-0.06687815601859592,-0.1,1.0,0.0,469.0,667.0,0.0,0,714.0,1
296,296,0.29809111581691894,0.3,1.0,1.0,489.0,636.0,1.0,1,535.0,1
297,297,-0.12667395468566423,-0.1,0.0,1.0,289.0,771.0,1.0,0,750.0,1
298,298,-0.00623639208749871,-0.0,0.0,1.0,329.0,771.0,0.0,1,1300.0,0
299,299,0.15821466833347542,0.2,1.0,1.0,297.0,522.0,1.0,1,231.0,1
300,300,-0.7862081839144016,-0.8,1.0,0.0,323.0,963.0,0.0,0,44.0,1
301,301,-0.2049060831591848,-0.2,1.0,0.0,475.0,762.0,0.0,0,333.0,1
302,302,0.2748826470852118,0.3,1.0,1.0,294.0,842.0,1.0,1,184.0,1
303,303,0.6008408990802955,0.6,1.0,1.0,301.0,545.0,1.0,1,224.0,1
304,304,-0.6778651689581509,-0.7,0.0,1.0,476.0,869.0,1.0,0,175.0,1
305,305,0.44603173367073634,0.4,1.0,1.0,400.0,933.0,1.0,1,87.0,1
306,306,0.28610538016888853,0.3,1.0,1.0,473.0,558.0,1.0,1,309.0,1
307,307,-0.3332135657772032,-0.3,1.0,0.0,350.0,576.0,0.0,0,1394.0,1
308,308,-0.3212141712620158,-0.3,1.0,0.0,359.0,818.0,0.0,0,463.0,1
309,309,0.6798419011363427,0.7,0.0,0.0,443.0,870.0,0.0,1,177.0,1
310,310,0.4560782746803532,0.5,0.0,0.0,294.0,715.0,0.0,1,181.0,1
311,311,0.26499687616245804,0.3,0.0,0.0,359.0,691.0,0.0,1,590.0,1
312,312,-0.3382953962062144,-0.3,0.0,1.0,353.0,774.0,1.0,0,443.0,1
313,313,-0.46985458467647123,-0.5,0.0,1.0,296.0,888.0,1.0,0,316.0,1
314,314,-0.16713432585134114,-0.2,0.0,1.0,423.0,615.0,1.0,0,882.0,1
315,315,0.6316166054567315,0.6,0.0,0.0,283.0,996.0,0.0,1,141.0,1
316,316,0.8201530797650943,0.8,0.0,0.0,411.0,758.0,0.0,1,91.0,1
317,317,-0.3457394121043007,-0.3,0.0,1.0,470.0,869.0,1.0,0,331.0,1
318,318,0.4581129296262446,0.5,1.0,1.0,433.0,855.0,1.0,1,52.0,1
319,319,0.0032940740006965896,0.0,0.0,0.0,452.0,763.0,0.0,1,1785.0,1
320,320,-0.5071425865951646,-0.5,1.0,0.0,482.0,516.0,0.0,0,412.0,1
321,321,-0.529837471221102,-0.5,1.0,0.0,385.0,986.0,0.0,0,179.0,1
322,322,-0.051985762059435836,-0.1,0.0,1.0,405.0,617.0,1.0,0,578.0,1
323,323,0.4046091660803496,0.4,1.0,1.0,284.0,574.0,1.0,1,252.0,1
324,324,0.0330635885652647,0.0,1.0,1.0,303.0,640.0,1.0,1,867.0,1
325,325,-0.2644079379826465,-0.3,0.0,1.0,373.0,535.0,1.0,0,642.0,1
326,326,0.29953799349393606,0.3,1.0,1.0,383.0,830.0,1.0,1,177.0,1
327,327,0.27475046572868844,0.3,1.0,1.0,423.0,853.0,1.0,1,284.0,1
328,328,-0.7082618328517875,-0.7,1.0,0.0,279.0,741.0,0.0,0,190.0,1
329,329,-0.5433062580892158,-0.5,0.0,1.0,408.0,972.0,1.0,0,450.0,1
330,330,-0.31142187515774733,-0.3,0.0,1.0,428.0,559.0,1.0,0,453.0,1
331,331,0.7375964251341268,0.7,0.0,0.0,306.0,516.0,0.0,1,278.0,1
332,332,-0.729105968472817,-0.7,0.0,1.0,420.0,665.0,1.0,0,85.0,1
333,333,-0.8406260845198409,-0.8,0.0,1.0,252.0,752.0,1.0,0,136.0,1
334,334,-0.19398397928918842,-0.2,0.0,1.0,289.0,877.0,1.0,0,634.0,1
335,335,0.5759814331455838,0.6,0.0,0.0,410.0,646.0,0.0,1,254.0,1
336,336,0.13211562228576168,0.1,1.0,1.0,453.0,821.0,1.0,1,196.0,1
337,337,0.637051475557943,0.6,0.0,0.0,425.0,911.0,0.0,1,174.0,1
338,338,-0.026306048287231487,-0.0,0.0,1.0,344.0,745.0,0.0,1,1911.0,0
339,339,0.7557817551663887,0.8,0.0,0.0,441.0,865.0,0.0,1,134.0,1
340,340,-0.08539868087212055,-0.1,0.0,1.0,339.0,896.0,1.0,0,1115.0,1
341,341,0.838073136208244,0.8,0.0,0.0,355.0,851.0,0.0,1,94.0,1
342,342,-0.09979299712467471,-0.1,0.0,1.0,447.0,617.0,1.0,0,1936.0,1
343,343,-0.3570087989957037,-0.4,1.0,0.0,280.0,920.0,0.0,0,480.0,1
344,344,-0.312176864232101,-0.3,1.0,0.0,387.0,566.0,0.0,0,287.0,1
345,345,0.0568755323238771,0.1,1.0,1.0,382.0,666.0,1.0,1,1842.0,1
346,346,0.11335016473657322,0.1,1.0,1.0,379.0,814.0,1.0,1,297.0,1
347,347,0.5527030474981803,0.6,0.0,0.0,260.0,799.0,0.0,1,291.0,1
348,348,0.8243784663700023,0.8,0.0,0.0,260.0,833.0,0.0,1,117.0,1
349,349,-0.309893801406408,-0.3,1.0,0.0,498.0,891.0,0.0,0,141.0,1
350,350,0.15160176729820318,0.2,0.0,0.0,463.0,561.0,0.0,1,536.0,1
351,351,0.3571743262387951,0.4,1.0,1.0,457.0,521.0,1.0,1,412.0,1
352,352,-0.48211363471547836,-0.5,1.0,0.0,455.0,799.0,0.0,0,186.0,1
353,353,0.8149322239857594,0.8,1.0,1.0,375.0,614.0,1.0,1,131.0,1
354,354,0.46217587855554687,0.5,0.0,0.0,266.0,817.0,0.0,1,227.0,1
355,355,0.6642075706111285,0.7,1.0,1.0,325.0,676.0,1.0,1,189.0,1
356,356,-0.653253296789349,-0.7,1.0,0.0,265.0,862.0,0.0,0,223.0,1
357,357,-0.28086323422291515,-0.3,1.0,0.0,338.0,697.0,0.0,0,475.0,1
358,358,0.2659200703675747,0.3,1.0,1.0,346.0,925.0,1.0,1,349.0,1
359,359,-0.03548877602559086,-0.0,1.0,0.0,455.0,843.0,0.0,0,452.0,1
360,360,-0.033032263942068596,-0.0,0.0,1.0,302.0,799.0,1.0,0,1169.0,1
361,361,0.1769252974235952,0.2,0.0,0.0,254.0,785.0,0.0,1,451.0,1
362,362,-0.09400407522830767,-0.1,0.0,1.0,397.0,511.0,1.0,0,1492.0,1
363,363,0.040600744210613327,0.0,0.0,0.0,389.0,568.0,0.0,1,1393.0,1
364,364,0.4352925143469085,0.4,1.0,1.0,342.0,546.0,1.0,1,542.0,1
365,365,0.8485838398287654,0.8,1.0,1.0,276.0,519.0,1.0,1,285.0,1
366,366,-0.07905100956334543,-0.1,0.0,1.0,340.0,861.0,1.0,0,979.0,1
367,367,-0.14212007033852536,-0.1,1.0,0.0,443.0,614.0,0.0,0,643.0,1
368,368,-0.16392486916121318,-0.2,0.0,1.0,254.0,761.0,1.0,0,1985.0,1
369,369,0.5005144069110804,0.5,0.0,0.0,345.0,846.0,0.0,1,149.0,1
370,370,0.5603909712360627,0.6,1.0,1.0,352.0,785.0,1.0,1,183.0,1
371,371,0.4238884895413503,0.4,0.0,0.0,344.0,526.0,0.0,1,390.0,1
372,372,-0.19078102189766133,-0.2,1.0,0.0,261.0,998.0,0.0,0,1401.0,1
373,373,0.09663957480593566,0.1,1.0,1.0,438.0,530.0,1.0,1,932.0,1
374,374,0.4949591109637598,0.5,0.0,0.0,314.0,991.0,0.0,1,95.0,1
375,375,-0.07990891929668409,-0.1,0.0,1.0,309.0,750.0,1.0,0,1941.0,1
376,376,-0.11744911884670128,-0.1,1.0,0.0,277.0,672.0,0.0,0,2051.0,1
377,377,0.2983905545431832,0.3,1.0,1.0,368.0,899.0,1.0,1,543.0,1
378,378,-0.6090017328521377,-0.6,1.0,0.0,380.0,552.0,0.0,0,348.0,1
379,379,-0.6483891946739455,-0.6,1.0,0.0,393.0,741.0,0.0,0,176.0,1
380,380,-0.4714572553455442,-0.5,0.0,1.0,436.0,561.0,1.0,0,263.0,1
381,381,-0.3598018897526396,-0.4,0.0,1.0,471.0,993.0,1.0,0,176.0,1
382,382,-0.3988952428526026,-0.4,1.0,0.0,457.0,608.0,0.0,0,435.0,1
383,383,0.48772261417543505,0.5,1.0,1.0,320.0,969.0,1.0,1,91.0,1
384,384,-0.1090309830339109,-0.1,1.0,0.0,409.0,742.0,1.0,1,1849.0,0
385,385,-0.40474062061739996,-0.4,1.0,0.0,446.0,716.0,0.0,0,308.0,1
386,386,-0.05441645643824555,-0.1,1.0,0.0,401.0,673.0,0.0,0,1356.0,1
387,387,0.24939051789778077,0.2,0.0,0.0,366.0,922.0,0.0,1,282.0,1
388,388,0.007224495539858489,0.0,1.0,1.0,312.0,795.0,1.0,1,323.0,1
389,389,0.47971999299308943,0.5,1.0,1.0,303.0,694.0,1.0,1,113.0,1
390,390,-0.3183971252956398,-0.3,0.0,1.0,412.0,608.0,1.0,0,410.0,1
391,391,0.11816180430795142,0.1,0.0,0.0,373.0,604.0,0.0,1,553.0,1
392,392,0.7829400788761268,0.8,1.0,1.0,412.0,669.0,1.0,1,129.0,1
393,393,0.4222148898575845,0.4,1.0,1.0,257.0,513.0,1.0,1,320.0,1
394,394,0.6461598458065724,0.6,1.0,1.0,297.0,913.0,1.0,1,130.0,1
395,395,0.3517841730595771,0.4,1.0,1.0,375.0,547.0,1.0,1,418.0,1
396,396,-0.2481244254619137,-0.2,0.0,1.0,282.0,872.0,1.0,0,396.0,1
397,397,0.39552266609209863,0.4,1.0,1.0,456.0,798.0,1.0,1,236.0,1
398,398,0.6828018923999147,0.7,0.0,0.0,473.0,834.0,0.0,1,153.0,1
399,399,-0.21717259675505007,-0.2,0.0,1.0,275.0,748.0,1.0,0,527.0,1
400,400,-0.004842308053440658,-0.0,1.0,0.0,253.0,700.0,1.0,1,1117.0,0
401,401,0.8046472367434084,0.8,0.0,0.0,335.0,591.0,0.0,1,194.0,1
402,402,-0.5946447535635607,-0.6,1.0,0.0,277.0,936.0,0.0,0,137.0,1
403,403,-0.182410064337293,-0.2,1.0,0.0,456.0,713.0,0.0,0,1351.0,1
404,404,0.05365420798931653,0.1,1.0,1.0,293.0,807.0,1.0,1,1900.0,1
405,405,-0.09399979857041629,-0.1,1.0,0.0,261.0,507.0,0.0,0,832.0,1
406,406,-0.8555319267597532,-0.9,0.0,1.0,363.0,724.0,1.0,0,113.0,1
407,407,-0.6779288182507938,-0.7,0.0,1.0,407.0,978.0,1.0,0,75.0,1
408,408,0.76940762375741,0.8,0.0,0.0,392.0,633.0,0.0,1,85.0,1
409,409,-0.3716206661808824,-0.4,1.0,0.0,286.0,880.0,0.0,0,254.0,1
410,410,-0.31056961863148047,-0.3,1.0,0.0,415.0,898.0,0.0,0,277.0,1
411,411,0.7867573047567237,0.8,1.0,1.0,358.0,663.0,1.0,1,59.0,1
412,412,0.8137399916498554,0.8,0.0,0.0,298.0,531.0,0.0,1,171.0,1
413,413,-0.1913981100627804,-0.2,1.0,0.0,298.0,621.0,0.0,0,1291.0,1
414,414,0.5407268046001635,0.5,1.0,1.0,487.0,840.0,1.0,1,183.0,1
415,415,-0.31056466945106675,-0.3,0.0,1.0,268.0,844.0,1.0,0,248.0,1
416,416,-0.40560409605250686,-0.4,0.0,1.0,290.0,787.0,1.0,0,193.0,1
417,417,0.18625620373740304,0.2,1.0,1.0,446.0,512.0,1.0,1,312.0,1
418,418,0.4407965997909272,0.4,1.0,1.0,268.0,960.0,1.0,1,182.0,1
419,419,0.3436037581691028,0.3,0.0,0.0,345.0,940.0,0.0,1,575.0,1
420,420,-0.05612853528848938,-0.1,1.0,0.0,289.0,685.0,0.0,0,586.0,1
421,421,-0.871998214677511,-0.9,1.0,0.0,374.0,529.0,0.0,0,427.0,1
422,422,-0.34225048664081514,-0.3,1.0,0.0,335.0,996.0,0.0,0,659.0,1
423,423,0.5779315877202652,0.6,0.0,0.0,436.0,706.0,0.0,1,178.0,1
424,424,-0.2379351690110474,-0.2,0.0,1.0,364.0,784.0,1.0,0,982.0,1
425,425,-0.7519718859847606,-0.8,0.0,1.0,486.0,545.0,1.0,0,149.0,1
426,426,-0.40094951495122166,-0.4,1.0,0.0,423.0,794.0,0.0,0,463.0,1
427,427,-0.5607067134662946,-0.6,1.0,0.0,372.0,702.0,0.0,0,176.0,1
428,428,0.5751404622915376,0.6,0.0,0.0,334.0,558.0,0.0,1,138.0,1
429,429,-0.0862841723326011,-0.1,1.0,0.0,408.0,935.0,0.0,0,1657.0,1
430,430,0.6916199577914711,0.7,1.0,1.0,353.0,976.0,1.0,1,111.0,1
431,431,-0.35283874124690817,-0.4,0.0,1.0,371.0,864.0,1.0,0,225.0,1
432,432,0.48837801467725817,0.5,1.0,1.0,275.0,556.0,1.0,1,819.0,1
433,433,-0.2059229424664556,-0.2,1.0,0.0,379.0,573.0,0.0,0,798.0,1
434,434,0.825439895079192,0.8,0.0,0.0,306.0,717.0,0.0,1,187.0,1
435,435,0.7241070087875797,0.7,0.0,0.0,360.0,615.0,0.0,1,205.0,1
436,436,0.7285193064723593,0.7,1.0,1.0,444.0,706.0,1.0,1,160.0,1
437,437,-0.3904380774327285,-0.4,1.0,0.0,290.0,754.0,0.0,0,326.0,1
438,438,-0.7646415613595164,-0.8,0.0,1.0,479.0,676.0,1.0,0,185.0,1
439,439,-0.2516400085070981,-0.3,1.0,0.0,256.0,668.0,0.0,0,286.0,1
440,440,0.2741387342273821,0.3,1.0,1.0,412.0,808.0,1.0,1,200.0,1
441,441,0.5302355403785689,0.5,1.0,1.0,495.0,712.0,1.0,1,223.0,1
442,442,0.24725542380570353,0.2,0.0,0.0,395.0,683.0,0.0,1,262.0,1
443,443,-0.08535721031028465,-0.1,0.0,1.0,280.0,963.0,1.0,0,477.0,1
444,444,0.3541137969837035,0.4,1.0,1.0,493.0,689.0,1.0,1,168.0,1
445,445,-0.45021967579582833,-0.5,0.0,1.0,258.0,611.0,1.0,0,251.0,1
446,446,-0.5492520617408162,-0.5,1.0,0.0,347.0,893.0,0.0,0,190.0,1
447,447,-0.47701489595538843,-0.5,1.0,0.0,284.0,884.0,0.0,0,62.0,1
448,448,-0.4152628155024454,-0.4,1.0,0.0,457.0,997.0,0.0,0,186.0,1
449,449,-0.3675270726429165,-0.4,1.0,0.0,392.0,920.0,0.0,0,518.0,1
450,450,-0.5930652246773038,-0.6,0.0,1.0,448.0,828.0,1.0,0,324.0,1
451,451,0.6691483167355797,0.7,0.0,0.0,285.0,826.0,0.0,1,139.0,1
452,452,0.2778704016632453,0.3,0.0,0.0,275.0,779.0,0.0,1,236.0,1
453,453,-0.16243320287570862,-0.2,1.0,0.0,316.0,758.0,0.0,0,1676.0,1
454,454,0.48588292687686263,0.5,0.0,0.0,389.0,961.0,0.0,1,160.0,1
455,455,0.8817540825598366,0.9,1.0,1.0,444.0,559.0,1.0,1,197.0,1
456,456,-0.40691856406484656,-0.4,0.0,1.0,297.0,948.0,1.0,0,305.0,1
457,457,0.38152512993091403,0.4,0.0,0.0,332.0,570.0,0.0,1,338.0,1
458,458,-0.6744969915708705,-0.7,1.0,0.0,367.0,881.0,0.0,0,172.0,1
459,459,0.5419966479310773,0.5,0.0,0.0,470.0,733.0,0.0,1,207.0,1
460,460,0.11630612861357947,0.1,0.0,0.0,495.0,676.0,0.0,1,449.0,1
461,461,0.6940221453598249,0.7,0.0,0.0,420.0,599.0,0.0,1,211.0,1
462,462,0.1266961993742194,0.1,0.0,0.0,270.0,914.0,0.0,1,476.0,1
463,463,-0.2681054532821072,-0.3,1.0,0.0,436.0,537.0,0.0,0,477.0,1
464,464,-0.07531536032447728,-0.1,1.0,0.0,275.0,821.0,0.0,0,1874.0,1
465,465,-0.6861916059079616,-0.7,1.0,0.0,484.0,800.0,0.0,0,286.0,1
466,466,-0.8123562695373002,-0.8,1.0,0.0,486.0,500.0,0.0,0,174.0,1
467,467,0.31525228190700194,0.3,0.0,0.0,353.0,512.0,0.0,1,345.0,1
468,468,0.49963956474067894,0.5,1.0,1.0,471.0,999.0,0.0,0,-120.0,0
469,469,0.7803261050294855,0.8,1.0,1.0,327.0,907.0,1.0,1,136.0,1
470,470,0.4236353248274559,0.4,1.0,1.0,334.0,612.0,1.0,1,204.0,1
471,471,0.6698987127794308,0.7,0.0,0.0,427.0,820.0,0.0,1,63.0,1
472,472,0.593326067556983,0.6,0.0,0.0,360.0,664.0,0.0,1,216.0,1
473,473,0.28564638406045806,0.3,1.0,1.0,474.0,636.0,1.0,1,350.0,1
474,474,0.5950201579080564,0.6,0.0,0.0,472.0,914.0,0.0,1,144.0,1
475,475,0.3532938837935483,0.4,1.0,1.0,484.0,552.0,1.0,1,224.0,1
476,476,-0.44665362152349375,-0.4,0.0,1.0,472.0,636.0,1.0,0,532.0,1
477,477,-0.31943572492439365,-0.3,1.0,0.0,289.0,603.0,0.0,0,338.0,1
478,478,0.47032724470146403,0.5,1.0,1.0,455.0,500.0,1.0,1,285.0,1
479,479,0.5069579303641992,0.5,1.0,1.0,306.0,886.0,1.0,1,258.0,1
480,480,-0.30682591850264407,-0.3,0.0,1.0,299.0,713.0,1.0,0,128.0,1
481,481,0.4077177775597983,0.4,1.0,1.0,450.0,797.0,1.0,1,353.0,1
482,482,-0.7658355117252276,-0.8,1.0,0.0,363.0,886.0,0.0,0,441.0,1
483,483,0.0201846587154072,0.0,1.0,1.0,297.0,597.0,1.0,1,1726.0,1
484,484,0.45621694282674297,0.5,0.0,0.0,396.0,783.0,0.0,1,321.0,1
485,485,-0.7148984837012387,-0.7,0.0,1.0,449.0,626.0,1.0,0,335.0,1
486,486,-0.7620359623354668,-0.8,0.0,1.0,472.0,615.0,1.0,0,263.0,1
487,487,0.8231243183035654,0.8,0.0,0.0,335.0,735.0,0.0,1,180.0,1
488,488,-0.6912697983456371,-0.7,0.0,1.0,292.0,549.0,1.0,0,369.0,1
489,489,0.2265998012660787,0.2,1.0,1.0,388.0,777.0,1.0,1,325.0,1
490,490,0.5727536259607281,0.6,0.0,0.0,347.0,978.0,0.0,1,95.0,1
491,491,0.7770766674976649,0.8,1.0,1.0,399.0,563.0,1.0,1,348.0,1
492,492,-0.4767007545677046,-0.5,1.0,0.0,415.0,757.0,0.0,0,588.0,1
493,493,-0.16430198870107782,-0.2,1.0,0.0,479.0,903.0,0.0,0,358.0,1
494,494,-0.09163006220799208,-0.1,1.0,0.0,496.0,736.0,0.0,0,778.0,1
495,495,0.15250499304439347,0.2,1.0,1.0,277.0,962.0,1.0,1,101.0,1
496,496,0.1966112299138535,0.2,0.0,0.0,443.0,813.0,0.0,1,314.0,1
497,497,-0.2188722120329163,-0.2,0.0,1.0,320.0,581.0,1.0,0,899.0,1
498,498,0.3160336134455929,0.3,1.0,1.0,363.0,774.0,1.0,1,183.0,1
499,499,-0.1452757437520309,-0.1,1.0,0.0,265.0,990.0,0.0,0,1285.0,1
500,500,0.4313547006824857,0.4,1.0,1.0,264.0,861.0,1.0,1,105.0,1
501,501,-0.3751280397465072,-0.4,0.0,1.0,377.0,571.0,1.0,0,342.0,1
502,502,-0.2981900425414834,-0.3,0.0,1.0,318.0,594.0,1.0,0,838.0,1
503,503,-0.7190722426434077,-0.7,0.0,1.0,329.0,548.0,1.0,0,423.0,1
504,504,-0.09412516460652809,-0.1,1.0,0.0,382.0,892.0,0.0,0,1726.0,1
505,505,-0.7557849432031298,-0.8,1.0,0.0,267.0,841.0,0.0,0,132.0,1
506,506,0.5313777486110628,0.5,1.0,1.0,481.0,745.0,1.0,1,254.0,1
507,507,0.873110902181511,0.9,0.0,0.0,480.0,880.0,0.0,1,150.0,1
508,508,-0.397962921609173,-0.4,0.0,1.0,441.0,621.0,1.0,0,408.0,1
509,509,-0.1911400847061978,-0.2,1.0,0.0,298.0,709.0,0.0,0,313.0,1
510,510,-0.15713437525805152,-0.2,1.0,0.0,262.0,747.0,0.0,0,441.0,1
511,511,-0.7174135821204833,-0.7,1.0,0.0,462.0,597.0,0.0,0,231.0,1
512,512,-0.7984775606290921,-0.8,0.0,1.0,424.0,752.0,1.0,0,144.0,1
513,513,-0.42666165700570063,-0.4,0.0,1.0,320.0,749.0,1.0,0,281.0,1
514,514,0.680948164153388,0.7,0.0,0.0,473.0,761.0,0.0,1,286.0,1
515,515,0.1665782143546496,0.2,1.0,1.0,376.0,902.0,1.0,1,392.0,1
516,516,-0.5998512543035848,-0.6,0.0,1.0,418.0,999.0,1.0,0,143.0,1
517,517,-0.8696769545308006,-0.9,0.0,1.0,465.0,845.0,1.0,0,200.0,1
518,518,0.29212400719950915,0.3,1.0,1.0,392.0,792.0,1.0,1,196.0,1
519,519,0.8461829645397388,0.8,1.0,1.0,324.0,718.0,1.0,1,128.0,1
520,520,-0.02271324505973038,-0.0,1.0,0.0,433.0,565.0,0.0,0,1442.0,1
521,521,-0.4154939630409895,-0.4,1.0,0.0,457.0,633.0,0.0,0,210.0,1
522,522,0.5727655083456619,0.6,1.0,1.0,435.0,928.0,1.0,1,127.0,1
523,523,0.26180086507327716,0.3,1.0,1.0,332.0,796.0,1.0,1,292.0,1
524,524,0.41968664222292806,0.4,1.0,1.0,469.0,550.0,1.0,1,201.0,1
525,525,-0.6099464685144331,-0.6,1.0,0.0,307.0,994.0,0.0,0,139.0,1
526,526,-0.48614982049800737,-0.5,0.0,1.0,274.0,925.0,1.0,0,641.0,1
527,527,0.18009035245281046,0.2,0.0,0.0,292.0,781.0,0.0,1,1537.0,1
528,528,-0.1945282896493311,-0.2,0.0,1.0,357.0,621.0,1.0,0,522.0,1
529,529,-0.4266748699440403,-0.4,0.0,1.0,305.0,632.0,1.0,0,203.0,1
530,530,-0.6482376521609976,-0.6,1.0,0.0,451.0,620.0,0.0,0,339.0,1
531,531,-0.12568258042443414,-0.1,1.0,0.0,453.0,826.0,0.0,0,451.0,1
532,532,-0.09706224100538241,-0.1,1.0,0.0,321.0,842.0,0.0,0,297.0,1
533,533,-0.1092635085630792,-0.1,1.0,0.0,261.0,793.0,1.0,1,1946.0,0
534,534,-0.09739040688811618,-0.1,0.0,1.0,294.0,819.0,1.0,0,1887.0,1
535,535,-0.6774002490607861,-0.7,1.0,0.0,494.0,861.0,0.0,0,135.0,1
536,536,-0.03901402092981032,-0.0,1.0,0.0,307.0,642.0,1.0,1,2051.0,0
537,537,0.3120357582106871,0.3,1.0,1.0,302.0,975.0,1.0,1,133.0,1
538,538,-0.6479537657603605,-0.6,0.0,1.0,254.0,722.0,1.0,0,244.0,1
539,539,-0.30167512650486894,-0.3,0.0,1.0,490.0,707.0,1.0,0,553.0,1
540,540,-0.3447389811545467,-0.3,1.0,0.0,416.0,721.0,0.0,0,123.0,1
541,541,-0.5329254603582249,-0.5,1.0,0.0,272.0,517.0,0.0,0,601.0,1
542,542,0.23488830582863962,0.2,1.0,1.0,269.0,849.0,1.0,1,142.0,1
543,543,0.8441544128032609,0.8,1.0,1.0,444.0,533.0,1.0,1,253.0,1
544,544,-0.7142619969965747,-0.7,1.0,0.0,320.0,641.0,0.0,0,189.0,1
545,545,0.16789140217804477,0.2,0.0,0.0,278.0,820.0,0.0,1,332.0,1
546,546,-0.7074694845631083,-0.7,0.0,1.0,391.0,744.0,1.0,0,235.0,1
547,547,-0.7079890181292634,-0.7,1.0,0.0,304.0,923.0,0.0,0,133.0,1
548,548,-0.2251620541362951,-0.2,0.0,1.0,482.0,666.0,1.0,0,812.0,1
549,549,-0.31765970915144504,-0.3,0.0,1.0,469.0,790.0,1.0,0,311.0,1
550,550,-0.8667750031394513,-0.9,1.0,0.0,341.0,602.0,0.0,0,247.0,1
551,551,0.6830884750063343,0.7,1.0,1.0,433.0,525.0,1.0,1,182.0,1
552,552,0.6237092026925898,0.6,0.0,0.0,369.0,533.0,0.0,1,198.0,1
553,553,0.5782023622110467,0.6,0.0,0.0,364.0,532.0,0.0,1,164.0,1
554,554,0.3346710673236307,0.3,1.0,1.0,480.0,679.0,1.0,1,241.0,1
555,555,0.41917480323091116,0.4,0.0,0.0,334.0,604.0,0.0,1,282.0,1
556,556,0.833100104744079,0.8,0.0,0.0,306.0,553.0,0.0,1,161.0,1
557,557,0.5816894809117675,0.6,0.0,0.0,455.0,735.0,0.0,1,100.0,1
558,558,-0.3811925793993841,-0.4,0.0,1.0,408.0,551.0,1.0,0,481.0,1
559,559,0.22883517221588512,0.2,0.0,0.0,357.0,652.0,0.0,1,391.0,1
560,560,0.886014354100796,0.9,0.0,0.0,419.0,794.0,0.0,1,167.0,1
561,561,-0.16357990587679128,-0.2,0.0,1.0,294.0,846.0,1.0,0,290.0,1
562,562,-0.18605168284733553,-0.2,1.0,0.0,492.0,962.0,1.0,1,-74.0,0
563,563,0.1932206167025764,0.2,0.0,0.0,495.0,848.0,0.0,1,487.0,1
564,564,0.7113933666967952,0.7,1.0,1.0,451.0,788.0,1.0,1,131.0,1
565,565,-0.5208165968101068,-0.5,0.0,1.0,312.0,874.0,1.0,0,314.0,1
566,566,0.12590566978021311,0.1,0.0,0.0,458.0,798.0,0.0,1,1604.0,1
567,567,0.725518797641623,0.7,0.0,0.0,468.0,622.0,0.0,1,140.0,1
568,568,0.1061896450920895,0.1,1.0,1.0,372.0,882.0,1.0,1,906.0,1
569,569,-0.55003521647503,-0.6,0.0,1.0,389.0,910.0,1.0,0,211.0,1
570,570,-0.5886752410836011,-0.6,0.0,1.0,276.0,631.0,1.0,0,253.0,1
571,571,0.2388530499156717,0.2,0.0,0.0,440.0,836.0,0.0,1,644.0,1
572,572,0.49628281550713826,0.5,0.0,0.0,402.0,829.0,0.0,1,179.0,1
573,573,0.4814948549428927,0.5,0.0,0.0,304.0,619.0,0.0,1,197.0,1
574,574,-0.5753340923948747,-0.6,0.0,1.0,384.0,598.0,1.0,0,248.0,1
575,575,0.6655260458018103,0.7,1.0,1.0,499.0,885.0,1.0,1,116.0,1
576,576,-0.12447711562871788,-0.1,0.0,1.0,262.0,757.0,1.0,0,671.0,1
577,577,0.2019169844556915,0.2,0.0,0.0,438.0,658.0,0.0,1,674.0,1
578,578,0.3318804171989832,0.3,1.0,1.0,305.0,988.0,1.0,1,197.0,1
579,579,0.6389708452276034,0.6,0.0,0.0,263.0,836.0,0.0,1,251.0,1
580,580,-0.7794880143976756,-0.8,1.0,0.0,298.0,967.0,0.0,0,155.0,1
581,581,-0.8227545442306146,-0.8,0.0,1.0,392.0,841.0,1.0,0,257.0,1
582,582,-0.2009296113726583,-0.2,0.0,1.0,462.0,974.0,1.0,0,724.0,1
583,583,0.5174353462955797,0.5,0.0,0.0,355.0,617.0,0.0,1,168.0,1
584,584,0.1317740206047856,0.1,1.0,1.0,441.0,859.0,1.0,1,910.0,1
585,585,0.3687184193742624,0.4,0.0,0.0,308.0,550.0,0.0,1,252.0,1
586,586,-0.45473942913435395,-0.5,0.0,1.0,284.0,603.0,1.0,0,263.0,1
587,587,-0.7011272952937866,-0.7,1.0,0.0,395.0,796.0,0.0,0,169.0,1
588,588,0.7056321331690661,0.7,0.0,0.0,383.0,605.0,0.0,1,212.0,1
589,589,-0.7715352452849936,-0.8,0.0,1.0,363.0,539.0,1.0,0,358.0,1
590,590,-0.19436329545493802,-0.2,1.0,0.0,342.0,522.0,0.0,0,2136.0,1
591,591,0.36104143859547955,0.4,1.0,1.0,263.0,626.0,1.0,1,311.0,1
592,592,0.8873249654505012,0.9,0.0,0.0,321.0,877.0,0.0,1,132.0,1
593,593,0.45735485857419766,0.5,1.0,1.0,329.0,683.0,1.0,1,188.0,1
594,594,-0.5629368302324642,-0.6,1.0,0.0,354.0,953.0,0.0,0,153.0,1
595,595,-0.8058020722070885,-0.8,1.0,0.0,343.0,507.0,0.0,0,310.0,1
596,596,-0.26667932136201067,-0.3,0.0,1.0,467.0,809.0,1.0,0,314.0,1
597,597,-0.08700744729977128,-0.1,1.0,0.0,326.0,836.0,1.0,1,1718.0,0
598,598,0.5063495073249179,0.5,1.0,1.0,313.0,671.0,1.0,1,166.0,1
599,599,0.632770585094972,0.6,1.0,1.0,318.0,946.0,1.0,1,246.0,1
600,600,-0.47358271031311594,-0.5,1.0,0.0,306.0,716.0,0.0,0,228.0,1
601,601,-0.08736289833110633,-0.1,0.0,1.0,342.0,920.0,1.0,0,328.0,1
602,602,-0.5387149954812059,-0.5,0.0,1.0,306.0,572.0,1.0,0,322.0,1
603,603,0.7681623639809795,0.8,0.0,0.0,325.0,591.0,0.0,1,154.0,1
604,604,0.26934460638014046,0.3,0.0,0.0,398.0,749.0,0.0,1,303.0,1
605,605,0.5066788834556554,0.5,1.0,1.0,394.0,928.0,1.0,1,158.0,1
606,606,0.03138181409628793,0.0,0.0,0.0,284.0,547.0,0.0,1,1899.0,1
607,607,0.7034070496836468,0.7,0.0,0.0,342.0,620.0,0.0,1,198.0,1
608,608,0.5673812111758428,0.6,1.0,1.0,297.0,639.0,1.0,1,94.0,1
609,609,-0.8256544607183667,-0.8,0.0,1.0,388.0,844.0,1.0,0,308.0,1
610,610,-0.13887735594470962,-0.1,1.0,0.0,274.0,919.0,0.0,0,637.0,1
611,611,0.064009779607341,0.1,1.0,1.0,269.0,562.0,1.0,1,1489.0,1
612,612,0.008517127357616894,0.0,1.0,1.0,376.0,980.0,0.0,0,1644.0,0
613,613,-0.01686691217240499,-0.0,1.0,0.0,443.0,919.0,1.0,1,548.0,0
614,614,-0.60054128646992,-0.6,0.0,1.0,329.0,513.0,1.0,0,198.0,1
615,615,0.37328448176318474,0.4,0.0,0.0,307.0,811.0,0.0,1,282.0,1
616,616,0.24173000733468186,0.2,1.0,1.0,402.0,529.0,1.0,1,499.0,1
617,617,-0.458337349429807,-0.5,0.0,1.0,350.0,887.0,1.0,0,203.0,1
618,618,0.36325340587364197,0.4,1.0,1.0,316.0,863.0,1.0,1,211.0,1
619,619,-0.5592065801993411,-0.6,1.0,0.0,333.0,913.0,0.0,0,194.0,1
620,620,0.0898255127096722,0.1,0.0,0.0,474.0,756.0,0.0,1,1450.0,1
621,621,-0.696764326153942,-0.7,0.0,1.0,254.0,899.0,1.0,0,167.0,1
622,622,0.6494249888019731,0.6,1.0,1.0,409.0,927.0,1.0,1,-56.0,1
623,623,0.7819175084982738,0.8,1.0,1.0,324.0,935.0,1.0,1,151.0,1
624,624,0.10864423886337737,0.1,1.0,1.0,368.0,667.0,1.0,1,715.0,1
625,625,0.7565507324570274,0.8,0.0,0.0,294.0,971.0,0.0,1,145.0,1
626,626,0.5517531002070447,0.6,1.0,1.0,250.0,635.0,1.0,1,285.0,1
627,627,0.2236106397259522,0.2,0.0,0.0,292.0,651.0,0.0,1,707.0,1
628,628,-0.24322609941072415,-0.2,1.0,0.0,441.0,939.0,0.0,0,560.0,1
629,629,-0.8659785631514684,-0.9,0.0,1.0,480.0,648.0,1.0,0,162.0,1
630,630,0.6106132730651562,0.6,1.0,1.0,281.0,875.0,1.0,1,204.0,1
631,631,0.5847537598311038,0.6,0.0,0.0,488.0,697.0,0.0,1,205.0,1
632,632,-0.8211437853511443,-0.8,1.0,0.0,386.0,722.0,0.0,0,262.0,1
633,633,0.5844751045369937,0.6,1.0,1.0,495.0,614.0,1.0,1,271.0,1
634,634,-0.48158698855891663,-0.5,0.0,1.0,361.0,688.0,1.0,0,341.0,1
635,635,-0.8612520754641255,-0.9,0.0,1.0,337.0,570.0,1.0,0,223.0,1
636,636,-0.613674446267594,-0.6,0.0,1.0,314.0,891.0,1.0,0,135.0,1
637,637,0.41843681495504004,0.4,0.0,0.0,477.0,550.0,0.0,1,223.0,1
638,638,-0.24067137601347388,-0.2,0.0,1.0,272.0,665.0,1.0,0,603.0,1
639,639,-0.769153249026393,-0.8,0.0,1.0,446.0,525.0,1.0,0,319.0,1
640,640,-0.49009249736434096,-0.5,0.0,1.0,440.0,533.0,1.0,0,547.0,1
641,641,0.5100922680329277,0.5,1.0,1.0,449.0,686.0,1.0,1,195.0,1
642,642,-0.7608396006155507,-0.8,1.0,0.0,391.0,642.0,0.0,0,357.0,1
643,643,0.5977666737168844,0.6,0.0,0.0,440.0,741.0,0.0,1,139.0,1
644,644,0.5371155470477161,0.5,1.0,1.0,293.0,918.0,1.0,1,89.0,1
645,645,0.7340416888711297,0.7,0.0,0.0,290.0,566.0,0.0,1,204.0,1
646,646,0.2691979885534058,0.3,0.0,0.0,308.0,645.0,0.0,1,347.0,1
647,647,0.17236235380761145,0.2,0.0,0.0,410.0,766.0,0.0,1,304.0,1
648,648,-0.4538677665810788,-0.5,0.0,1.0,392.0,838.0,1.0,0,230.0,1
649,649,-0.5981345769339075,-0.6,0.0,1.0,287.0,834.0,1.0,0,269.0,1
650,650,0.36783413239815765,0.4,1.0,1.0,481.0,630.0,1.0,1,509.0,1
651,651,0.27572861739287136,0.3,0.0,0.0,317.0,775.0,0.0,1,638.0,1
652,652,0.739273562239111,0.7,1.0,1.0,292.0,796.0,1.0,1,192.0,1
653,653,0.7743015940332113,0.8,0.0,0.0,423.0,729.0,0.0,1,178.0,1
654,654,-0.6229065771840043,-0.6,0.0,1.0,307.0,510.0,1.0,0,293.0,1
655,655,0.12147609896555778,0.1,1.0,1.0,258.0,531.0,1.0,1,921.0,1
656,656,-0.642941703265773,-0.6,0.0,1.0,434.0,719.0,1.0,0,267.0,1
657,657,-0.5919396527989966,-0.6,1.0,0.0,297.0,507.0,0.0,0,96.0,1
658,658,-0.17750053105787844,-0.2,0.0,1.0,458.0,789.0,1.0,0,143.0,1
659,659,0.7747999990481446,0.8,1.0,1.0,385.0,705.0,1.0,1,150.0,1
660,660,0.6055867043848254,0.6,0.0,0.0,458.0,838.0,0.0,1,214.0,1
661,661,-0.6731056864321511,-0.7,1.0,0.0,340.0,995.0,0.0,0,185.0,1
662,662,-0.36582197235705793,-0.4,0.0,1.0,326.0,940.0,1.0,0,184.0,1
663,663,-0.8096041863057716,-0.8,1.0,0.0,292.0,654.0,0.0,0,214.0,1
664,664,0.5585742373867527,0.6,0.0,0.0,460.0,634.0,0.0,1,96.0,1
665,665,-0.6047675655033762,-0.6,0.0,1.0,281.0,827.0,1.0,0,362.0,1
666,666,-0.28656071362751934,-0.3,1.0,0.0,326.0,688.0,0.0,0,276.0,1
667,667,0.6617774553830992,0.7,1.0,1.0,308.0,838.0,1.0,1,204.0,1
668,668,0.1738214551495606,0.2,0.0,0.0,416.0,880.0,0.0,1,214.0,1
669,669,-0.8369669403980444,-0.8,0.0,1.0,374.0,610.0,1.0,0,266.0,1
670,670,-0.49874898787810673,-0.5,1.0,0.0,395.0,575.0,0.0,0,230.0,1
671,671,0.6105375873459046,0.6,0.0,0.0,420.0,645.0,0.0,1,205.0,1
672,672,-0.0665242354901483,-0.1,1.0,0.0,369.0,855.0,1.0,1,1656.0,0
673,673,0.44610786821480486,0.4,1.0,1.0,471.0,541.0,1.0,1,468.0,1
674,674,-0.7475016636520186,-0.7,0.0,1.0,492.0,611.0,1.0,0,267.0,1
675,675,0.010043348157277032,0.0,0.0,0.0,489.0,703.0,1.0,0,1808.0,0
676,676,-0.20955182262748107,-0.2,1.0,0.0,282.0,552.0,0.0,0,706.0,1
677,677,0.5897509617573254,0.6,0.0,0.0,334.0,915.0,0.0,1,151.0,1
678,678,-0.04316591044981233,-0.0,1.0,0.0,431.0,716.0,1.0,1,1853.0,0
679,679,-0.493658750412483,-0.5,1.0,0.0,434.0,711.0,0.0,0,385.0,1
680,680,0.47898771603169676,0.5,1.0,1.0,353.0,934.0,1.0,1,173.0,1
681,681,0.2107494523634329,0.2,1.0,1.0,476.0,775.0,1.0,1,349.0,1
682,682,0.14778825369276272,0.1,1.0,1.0,475.0,724.0,1.0,1,441.0,1
683,683,-0.707574601878359,-0.7,1.0,0.0,262.0,957.0,0.0,0,71.0,1
684,684,0.7580338819519491,0.8,1.0,1.0,427.0,502.0,1.0,1,371.0,1
685,685,-0.4118321396973804,-0.4,0.0,1.0,299.0,892.0,1.0,0,219.0,1
686,686,-0.2709323675157982,-0.3,1.0,0.0,483.0,852.0,0.0,0,355.0,1
687,687,-0.8940761789398819,-0.9,1.0,0.0,372.0,812.0,0.0,0,106.0,1
688,688,0.8691141743600829,0.9,0.0,0.0,480.0,721.0,0.0,1,109.0,1
689,689,-0.41246719689820605,-0.4,0.0,1.0,328.0,878.0,1.0,0,164.0,1
690,690,-0.39463646940422625,-0.4,1.0,0.0,437.0,669.0,0.0,0,324.0,1
691,691,-0.12350729638600666,-0.1,1.0,0.0,407.0,743.0,0.0,0,1170.0,1
692,692,-0.8849457219292632,-0.9,0.0,1.0,254.0,677.0,1.0,0,209.0,1
693,693,0.8772878058875485,0.9,1.0,1.0,333.0,941.0,1.0,1,76.0,1
694,694,-0.4811502105635874,-0.5,1.0,0.0,473.0,732.0,0.0,0,215.0,1
695,695,-0.004754452951578059,-0.0,1.0,0.0,357.0,961.0,1.0,1,-268.0,0
696,696,-0.5504062439282084,-0.6,1.0,0.0,459.0,794.0,0.0,0,187.0,1
697,697,-0.7603971926559585,-0.8,1.0,0.0,281.0,546.0,0.0,0,273.0,1
698,698,0.339428806756472,0.3,1.0,1.0,438.0,955.0,1.0,1,117.0,1
699,699,0.5768802453538365,0.6,1.0,1.0,422.0,970.0,1.0,1,148.0,1
700,700,-0.8378189855846706,-0.8,0.0,1.0,322.0,529.0,1.0,0,269.0,1
701,701,-0.8352548379608327,-0.8,1.0,0.0,494.0,971.0,0.0,0,135.0,1
702,702,-0.3188266665842068,-0.3,0.0,1.0,402.0,866.0,1.0,0,232.0,1
703,703,-0.7514444224337882,-0.8,0.0,1.0,255.0,585.0,1.0,0,180.0,1
704,704,0.22931229133059639,0.2,1.0,1.0,334.0,808.0,1.0,1,338.0,1
705,705,0.4272042959620107,0.4,1.0,1.0,439.0,794.0,1.0,1,217.0,1
706,706,-0.10471503292740336,-0.1,1.0,0.0,417.0,997.0,1.0,1,106.0,0
707,707,0.1475269763338899,0.1,0.0,0.0,376.0,735.0,0.0,1,859.0,1
708,708,0.2973076187475342,0.3,0.0,0.0,398.0,815.0,0.0,1,287.0,1
709,709,-0.10546567645959204,-0.1,0.0,1.0,338.0,893.0,1.0,0,1769.0,1
710,710,-0.36548981964220517,-0.4,0.0,1.0,484.0,993.0,1.0,0,473.0,1
711,711,-0.19043311029471477,-0.2,0.0,1.0,298.0,887.0,1.0,0,415.0,1
712,712,0.5692989198165123,0.6,1.0,1.0,343.0,785.0,1.0,1,62.0,1
713,713,-0.879441303134536,-0.9,0.0,1.0,489.0,897.0,1.0,0,94.0,1
714,714,-0.8624614270167272,-0.9,0.0,1.0,434.0,822.0,1.0,0,44.0,1
715,715,0.2692684063000069,0.3,1.0,1.0,284.0,964.0,1.0,1,102.0,1
716,716,0.39563508496177946,0.4,1.0,1.0,446.0,577.0,1.0,1,167.0,1
717,717,0.1470738517787612,0.1,0.0,0.0,294.0,832.0,0.0,1,774.0,1
718,718,0.6965457606426512,0.7,0.0,0.0,474.0,994.0,0.0,1,172.0,1
719,719,-0.8175341736299335,-0.8,1.0,0.0,430.0,819.0,0.0,0,191.0,1
720,720,0.7288165053658838,0.7,1.0,1.0,473.0,500.0,1.0,1,287.0,1
721,721,-0.6685943212798088,-0.7,1.0,0.0,493.0,774.0,0.0,0,153.0,1
722,722,0.671063150057844,0.7,0.0,0.0,443.0,976.0,0.0,1,111.0,1
723,723,-0.8907666768534501,-0.9,1.0,0.0,368.0,912.0,0.0,0,60.0,1
724,724,-0.711727472474175,-0.7,1.0,0.0,371.0,895.0,0.0,0,154.0,1
725,725,0.3986165613116769,0.4,0.0,0.0,324.0,734.0,0.0,1,162.0,1
726,726,-0.4564554406795444,-0.5,1.0,0.0,279.0,740.0,0.0,0,211.0,1
727,727,-0.1715668875958707,-0.2,1.0,0.0,403.0,627.0,0.0,0,650.0,1
728,728,0.5034579642535321,0.5,1.0,1.0,356.0,556.0,1.0,1,178.0,1
729,729,0.8629390311224804,0.9,1.0,1.0,419.0,579.0,1.0,1,202.0,1
730,730,-0.7634606144540722,-0.8,1.0,0.0,315.0,555.0,0.0,0,220.0,1
731,731,-0.5965305160702505,-0.6,1.0,0.0,381.0,563.0,0.0,0,186.0,1
732,732,-0.7847317504354223,-0.8,0.0,1.0,292.0,519.0,1.0,0,279.0,1
733,733,0.7086536696531877,0.7,0.0,0.0,329.0,763.0,0.0,1,198.0,1
734,734,0.751223185416651,0.8,1.0,1.0,379.0,846.0,1.0,1,115.0,1
735,735,-0.6774963517214957,-0.7,1.0,0.0,447.0,528.0,0.0,0,345.0,1
736,736,0.8524418552585983,0.9,1.0,1.0,265.0,651.0,1.0,1,104.0,1
737,737,0.8637641320085591,0.9,0.0,0.0,364.0,731.0,0.0,1,175.0,1
738,738,0.749341732215736,0.7,1.0,1.0,322.0,640.0,1.0,1,118.0,1
739,739,-0.4929406920500794,-0.5,1.0,0.0,449.0,588.0,0.0,0,263.0,1
740,740,-0.12077959143180539,-0.1,0.0,1.0,333.0,971.0,1.0,0,316.0,1
741,741,0.7353208266658752,0.7,0.0,0.0,347.0,999.0,0.0,1,164.0,1
742,742,0.22722497104563788,0.2,0.0,0.0,309.0,833.0,0.0,1,1048.0,1
743,743,0.8486667251044228,0.8,1.0,1.0,261.0,659.0,1.0,1,90.0,1
744,744,0.07780754198391804,0.1,0.0,0.0,414.0,539.0,0.0,1,907.0,1
745,745,0.42813317046761046,0.4,1.0,1.0,367.0,751.0,1.0,1,162.0,1
746,746,-0.2489869845159668,-0.2,0.0,1.0,335.0,900.0,1.0,0,1065.0,1
747,747,-0.5126401975189918,-0.5,0.0,1.0,362.0,927.0,1.0,0,101.0,1
748,748,0.8812173520540713,0.9,1.0,1.0,379.0,942.0,1.0,1,149.0,1
749,749,0.02018652044232816,0.0,0.0,0.0,302.0,812.0,0.0,1,1886.0,1
750,750,-0.3247590889336087,-0.3,0.0,1.0,477.0,889.0,1.0,0,284.0,1
751,751,0.7401607584150022,0.7,1.0,1.0,284.0,641.0,1.0,1,235.0,1
752,752,0.8544413754749492,0.9,0.0,0.0,471.0,837.0,0.0,1,192.0,1
753,753,0.7494495730076193,0.7,0.0,0.0,410.0,981.0,0.0,1,139.0,1
754,754,-0.007275544619291807,-0.0,0.0,1.0,441.0,722.0,1.0,0,1837.0,1
755,755,0.33127967036215933,0.3,1.0,1.0,323.0,574.0,1.0,1,273.0,1
756,756,0.8131377501565492,0.8,1.0,1.0,266.0,720.0,1.0,1,94.0,1
757,757,-0.14250693002253867,-0.1,0.0,1.0,403.0,819.0,1.0,0,1268.0,1
758,758,0.2978803874972361,0.3,1.0,1.0,258.0,513.0,1.0,1,549.0,1
759,759,-0.5470768988605026,-0.5,1.0,0.0,378.0,865.0,0.0,0,167.0,1
760,760,-0.7480723540771785,-0.7,0.0,1.0,322.0,695.0,1.0,0,133.0,1
761,761,0.5363412486120603,0.5,0.0,0.0,426.0,701.0,0.0,1,103.0,1
762,762,0.7238180524209595,0.7,1.0,1.0,265.0,649.0,1.0,1,146.0,1
763,763,0.7964377935364338,0.8,1.0,1.0,327.0,554.0,1.0,1,269.0,1
764,764,0.8533673406145695,0.9,1.0,1.0,393.0,960.0,1.0,1,47.0,1
765,765,-0.6841616220352248,-0.7,1.0,0.0,272.0,625.0,0.0,0,173.0,1
766,766,-0.7329782706542698,-0.7,1.0,0.0,399.0,602.0,0.0,0,279.0,1
767,767,-0.06977483435179077,-0.1,1.0,0.0,418.0,882.0,1.0,1,1700.0,0
768,768,0.7860935118347788,0.8,1.0,1.0,440.0,581.0,1.0,1,189.0,1
769,769,0.309970019515451,0.3,0.0,0.0,399.0,709.0,0.0,1,382.0,1
770,770,0.22657279611286174,0.2,1.0,1.0,260.0,855.0,1.0,1,435.0,1
771,771,-0.5130738028037864,-0.5,1.0,0.0,328.0,752.0,0.0,0,160.0,1
772,772,0.5943954105701849,0.6,1.0,1.0,303.0,660.0,1.0,1,257.0,1
773,773,-0.534952861188583,-0.5,0.0,1.0,467.0,862.0,1.0,0,271.0,1
774,774,-0.11334399010461327,-0.1,0.0,1.0,352.0,983.0,1.0,0,805.0,1
775,775,-0.38417509854847576,-0.4,1.0,0.0,362.0,681.0,0.0,0,237.0,1
776,776,0.7213251507649044,0.7,1.0,1.0,441.0,730.0,1.0,1,459.0,1
777,777,0.26590246041168986,0.3,0.0,0.0,377.0,689.0,0.0,1,624.0,1
778,778,0.14676372775751745,0.1,0.0,0.0,344.0,809.0,0.0,1,457.0,1
779,779,-0.29043368233787936,-0.3,1.0,0.0,426.0,785.0,0.0,0,319.0,1
780,780,0.6512802522418367,0.7,1.0,1.0,293.0,519.0,1.0,1,188.0,1
781,781,0.5554777462635464,0.6,1.0,1.0,366.0,982.0,1.0,1,152.0,1
782,782,0.09397266414745553,0.1,0.0,0.0,492.0,796.0,0.0,1,1112.0,1
783,783,-0.8862460199488976,-0.9,1.0,0.0,257.0,983.0,0.0,0,120.0,1
784,784,0.612352929335899,0.6,0.0,0.0,315.0,551.0,0.0,1,334.0,1
785,785,0.6985073435242976,0.7,0.0,0.0,386.0,782.0,0.0,1,262.0,1
786,786,-0.3018134872230034,-0.3,0.0,1.0,491.0,901.0,1.0,0,448.0,1
787,787,-0.07502561438246924,-0.1,0.0,1.0,293.0,696.0,1.0,0,451.0,1
788,788,-0.2831300162252487,-0.3,0.0,1.0,374.0,801.0,1.0,0,305.0,1
789,789,0.025172498834642454,0.0,0.0,0.0,329.0,988.0,0.0,1,233.0,1
790,790,0.5143680527165674,0.5,0.0,0.0,484.0,869.0,0.0,1,107.0,1
791,791,-0.2947718965200242,-0.3,1.0,0.0,285.0,516.0,0.0,0,509.0,1
792,792,-0.6816166773523282,-0.7,0.0,1.0,434.0,866.0,1.0,0,160.0,1
793,793,-0.30591065596062406,-0.3,1.0,0.0,441.0,883.0,0.0,0,536.0,1
794,794,0.6707742919335181,0.7,0.0,0.0,285.0,939.0,0.0,1,86.0,1
795,795,-0.14583884816233095,-0.1,1.0,0.0,445.0,982.0,0.0,0,1283.0,1
796,796,0.754479158606682,0.8,0.0,0.0,434.0,960.0,0.0,1,196.0,1
797,797,0.6069154364898756,0.6,0.0,0.0,298.0,900.0,0.0,1,112.0,1
798,798,0.8517147672740263,0.9,1.0,1.0,477.0,606.0,1.0,1,207.0,1
799,799,-0.28575702353136345,-0.3,0.0,1.0,253.0,713.0,1.0,0,244.0,1
800,800,-0.6727163049931874,-0.7,1.0,0.0,491.0,656.0,0.0,0,173.0,1
801,801,-0.3681298656292463,-0.4,1.0,0.0,348.0,597.0,0.0,0,295.0,1
802,802,-0.8024812723901431,-0.8,1.0,0.0,473.0,638.0,0.0,0,239.0,1
803,803,0.03988650310538144,0.0,0.0,0.0,420.0,952.0,1.0,0,1628.0,0
804,804,0.8430710005857142,0.8,1.0,1.0,314.0,693.0,1.0,1,43.0,1
805,805,-0.8756450161569823,-0.9,0.0,1.0,257.0,924.0,1.0,0,149.0,1
806,806,0.4439864383617801,0.4,0.0,0.0,478.0,649.0,0.0,1,263.0,1
807,807,-0.8480289671820423,-0.8,1.0,0.0,324.0,920.0,0.0,0,186.0,1
808,808,-0.894934867521359,-0.9,0.0,1.0,379.0,737.0,1.0,0,104.0,1
809,809,0.07388954906024536,0.1,1.0,1.0,401.0,803.0,1.0,1,1186.0,1
810,810,-0.868012362411806,-0.9,0.0,1.0,362.0,987.0,1.0,0,171.0,1
811,811,-0.728981418732267,-0.7,0.0,1.0,462.0,593.0,1.0,0,245.0,1
812,812,-0.20885740402436048,-0.2,1.0,0.0,280.0,912.0,0.0,0,538.0,1
813,813,0.2958759475857099,0.3,0.0,0.0,272.0,802.0,0.0,1,176.0,1
814,814,-0.07433668685876782,-0.1,1.0,0.0,351.0,594.0,0.0,0,2055.0,1
815,815,0.7781834708208993,0.8,0.0,0.0,414.0,695.0,0.0,1,111.0,1
816,816,-0.6108454423490028,-0.6,0.0,1.0,322.0,582.0,1.0,0,316.0,1
817,817,-0.4582210522077241,-0.5,0.0,1.0,323.0,822.0,1.0,0,245.0,1
818,818,0.12903823591333563,0.1,1.0,1.0,464.0,731.0,1.0,1,225.0,1
819,819,-0.7309246595666515,-0.7,1.0,0.0,356.0,750.0,0.0,0,184.0,1
820,820,0.1735628205177021,0.2,1.0,1.0,416.0,977.0,1.0,1,417.0,1
821,821,-0.3789385888383615,-0.4,1.0,0.0,479.0,775.0,0.0,0,606.0,1
822,822,-0.7932974517307174,-0.8,1.0,0.0,324.0,812.0,0.0,0,134.0,1
823,823,-0.4047914091900876,-0.4,1.0,0.0,395.0,645.0,0.0,0,300.0,1
824,824,0.2159335430027115,0.2,1.0,1.0,251.0,875.0,1.0,1,344.0,1
825,825,-0.3245283303681704,-0.3,1.0,0.0,284.0,573.0,0.0,0,403.0,1
826,826,-0.16200201361294653,-0.2,0.0,1.0,420.0,708.0,1.0,0,372.0,1
827,827,-0.11639630450180027,-0.1,1.0,0.0,348.0,904.0,1.0,1,468.0,0
828,828,-0.4258679769826382,-0.4,1.0,0.0,490.0,638.0,0.0,0,282.0,1
829,829,0.5105531716420483,0.5,1.0,1.0,459.0,925.0,1.0,1,146.0,1
830,830,-0.7916077780470889,-0.8,1.0,0.0,487.0,658.0,0.0,0,95.0,1
831,831,0.6840622051381263,0.7,0.0,0.0,352.0,899.0,0.0,1,129.0,1
832,832,-0.7910653595879027,-0.8,0.0,1.0,348.0,938.0,1.0,0,184.0,1
833,833,0.42815700481160335,0.4,0.0,0.0,264.0,884.0,0.0,1,642.0,1
834,834,-0.7349804564360353,-0.7,1.0,0.0,448.0,986.0,0.0,0,206.0,1
835,835,0.3577721283482781,0.4,1.0,1.0,439.0,945.0,1.0,1,26.0,1
836,836,-0.29319159631885017,-0.3,0.0,1.0,437.0,743.0,1.0,0,590.0,1
837,837,0.6244807080783034,0.6,0.0,0.0,392.0,842.0,0.0,1,86.0,1
838,838,-0.25835549924119383,-0.3,1.0,0.0,377.0,587.0,0.0,0,706.0,1
839,839,0.7583795209322851,0.8,1.0,1.0,400.0,871.0,1.0,1,159.0,1
840,840,0.3794884282459653,0.4,0.0,0.0,367.0,576.0,0.0,1,217.0,1
841,841,-0.6665793815476047,-0.7,1.0,0.0,438.0,691.0,0.0,0,271.0,1
842,842,-0.7452372726897272,-0.7,0.0,1.0,360.0,520.0,1.0,0,260.0,1
843,843,0.8033959852984921,0.8,0.0,0.0,270.0,924.0,0.0,1,96.0,1
844,844,0.6470857004696512,0.6,0.0,0.0,361.0,859.0,0.0,1,210.0,1
845,845,0.5716560319794174,0.6,0.0,0.0,258.0,596.0,0.0,1,406.0,1
846,846,-0.47142867648860826,-0.5,1.0,0.0,318.0,520.0,0.0,0,432.0,1
847,847,-0.2780312915459079,-0.3,0.0,1.0,281.0,965.0,1.0,0,364.0,1
848,848,0.6053191764479854,0.6,1.0,1.0,278.0,649.0,1.0,1,93.0,1
849,849,0.8482937291600506,0.8,0.0,0.0,488.0,944.0,0.0,1,298.0,1
850,850,-0.7340998921062571,-0.7,0.0,1.0,456.0,632.0,1.0,0,202.0,1
851,851,0.529635531462031,0.5,0.0,0.0,254.0,657.0,0.0,1,319.0,1
852,852,-0.6589770578285181,-0.7,1.0,0.0,253.0,742.0,0.0,0,65.0,1
853,853,0.8976910476141607,0.9,0.0,0.0,475.0,649.0,0.0,1,156.0,1
854,854,0.45586047027554566,0.5,1.0,1.0,379.0,725.0,1.0,1,136.0,1
855,855,0.6900664605111236,0.7,1.0,1.0,294.0,901.0,1.0,1,35.0,1
856,856,0.07007881180782138,0.1,0.0,0.0,290.0,910.0,0.0,1,450.0,1
857,857,-0.3709300577164756,-0.4,1.0,0.0,348.0,831.0,0.0,0,91.0,1
858,858,0.8471194593954509,0.8,1.0,1.0,374.0,687.0,1.0,1,249.0,1
859,859,-0.868025929427254,-0.9,0.0,1.0,316.0,526.0,1.0,0,348.0,1
860,860,-0.8127929629046459,-0.8,1.0,0.0,439.0,658.0,0.0,0,163.0,1
861,861,-0.5424853156354196,-0.5,1.0,0.0,403.0,797.0,0.0,0,270.0,1
862,862,0.8932807625455349,0.9,1.0,1.0,405.0,931.0,1.0,1,64.0,1
863,863,-0.7747737314790487,-0.8,0.0,1.0,354.0,721.0,1.0,0,135.0,1
864,864,-0.027739817862408644,-0.0,1.0,0.0,278.0,788.0,0.0,0,1934.0,1
865,865,0.10019519941289146,0.1,0.0,0.0,382.0,690.0,0.0,1,1448.0,1
866,866,-0.5556799575312601,-0.6,1.0,0.0,396.0,627.0,0.0,0,337.0,1
867,867,0.13012670787130987,0.1,0.0,0.0,299.0,532.0,0.0,1,599.0,1
868,868,-0.793088766895191,-0.8,0.0,1.0,352.0,693.0,1.0,0,235.0,1
869,869,-0.42849137316014235,-0.4,1.0,0.0,339.0,806.0,0.0,0,265.0,1
870,870,0.7442872141481788,0.7,1.0,1.0,395.0,940.0,1.0,1,65.0,1
871,871,0.1970328734931054,0.2,1.0,1.0,475.0,594.0,1.0,1,531.0,1
872,872,-0.013617089610237554,-0.0,0.0,1.0,480.0,842.0,1.0,0,1338.0,1
873,873,0.7013150350318637,0.7,0.0,0.0,485.0,854.0,0.0,1,191.0,1
874,874,-0.17530154121305497,-0.2,0.0,1.0,475.0,805.0,1.0,0,1540.0,1
875,875,-0.6110465908945979,-0.6,0.0,1.0,495.0,653.0,1.0,0,232.0,1
876,876,0.09565132424171863,0.1,0.0,0.0,322.0,827.0,0.0,1,651.0,1
877,877,-0.7575830127671705,-0.8,1.0,0.0,451.0,829.0,0.0,0,210.0,1
878,878,-0.069959549620221,-0.1,0.0,1.0,309.0,674.0,1.0,0,1007.0,1
879,879,-0.1300232055645555,-0.1,1.0,0.0,252.0,781.0,0.0,0,997.0,1
880,880,0.2453440778943704,0.2,1.0,1.0,296.0,916.0,1.0,1,268.0,1
881,881,0.7259011971030446,0.7,0.0,0.0,289.0,526.0,0.0,1,205.0,1
882,882,0.08118457434343329,0.1,1.0,1.0,355.0,979.0,1.0,1,146.0,1
883,883,0.39780722387379097,0.4,0.0,0.0,341.0,968.0,0.0,1,241.0,1
884,884,-0.54133513125234,-0.5,0.0,1.0,280.0,885.0,1.0,0,155.0,1
885,885,-0.4561829335616677,-0.5,0.0,1.0,364.0,932.0,1.0,0,204.0,1
886,886,-0.3803847653836149,-0.4,0.0,1.0,283.0,861.0,1.0,0,1336.0,1
887,887,-0.0806758455730835,-0.1,1.0,0.0,482.0,823.0,0.0,0,1235.0,1
888,888,-0.1729506928249388,-0.2,1.0,0.0,357.0,550.0,0.0,0,573.0,1
889,889,0.6785827348042449,0.7,1.0,1.0,315.0,826.0,1.0,1,99.0,1
890,890,0.023735434085143226,0.0,1.0,1.0,301.0,638.0,1.0,1,1871.0,1
891,891,-0.6113143479908074,-0.6,0.0,1.0,290.0,956.0,1.0,0,254.0,1
892,892,0.881158292320294,0.9,1.0,1.0,444.0,585.0,1.0,1,211.0,1
893,893,0.3668802881426044,0.4,1.0,1.0,339.0,909.0,1.0,1,162.0,1
894,894,0.6366511536825298,0.6,1.0,1.0,303.0,834.0,1.0,1,203.0,1
895,895,0.7628536857613816,0.8,1.0,1.0,430.0,702.0,1.0,1,218.0,1
896,896,-0.15905319207741198,-0.2,1.0,0.0,400.0,619.0,0.0,0,481.0,1
897,897,-0.47189765943698697,-0.5,1.0,0.0,391.0,654.0,0.0,0,265.0,1
898,898,0.02380738920943981,0.0,1.0,1.0,357.0,657.0,1.0,1,1806.0,1
899,899,0.040355687076384594,0.0,1.0,1.0,315.0,635.0,0.0,0,1510.0,0
900,900,0.7665503764423834,0.8,1.0,1.0,466.0,896.0,1.0,1,138.0,1
901,901,-0.7717166451921772,-0.8,0.0,1.0,411.0,533.0,1.0,0,236.0,1
902,902,-0.14216442103576932,-0.1,0.0,1.0,434.0,601.0,1.0,0,815.0,1
903,903,-0.7510972611645723,-0.8,1.0,0.0,466.0,937.0,0.0,0,147.0,1
904,904,-0.5110535774582701,-0.5,1.0,0.0,377.0,754.0,0.0,0,319.0,1
905,905,0.5647606167188416,0.6,1.0,1.0,381.0,772.0,1.0,1,237.0,1
906,906,-0.47312448866041873,-0.5,0.0,1.0,371.0,832.0,1.0,0,267.0,1
907,907,-0.4318059425464426,-0.4,1.0,0.0,414.0,882.0,0.0,0,134.0,1
908,908,-0.595002666895173,-0.6,0.0,1.0,317.0,745.0,1.0,0,258.0,1
909,909,-0.5641926248387337,-0.6,1.0,0.0,372.0,542.0,0.0,0,436.0,1
910,910,0.3837688383283634,0.4,1.0,1.0,418.0,719.0,1.0,1,173.0,1
911,911,-0.06384655410541618,-0.1,1.0,0.0,392.0,521.0,0.0,0,2087.0,1
912,912,-0.8926177879377183,-0.9,1.0,0.0,425.0,962.0,0.0,0,193.0,1
913,913,0.2127764827373918,0.2,0.0,0.0,330.0,527.0,0.0,1,343.0,1
914,914,0.30080488918140824,0.3,1.0,1.0,470.0,730.0,1.0,1,140.0,1
915,915,0.5441769491374603,0.5,1.0,1.0,335.0,532.0,1.0,1,293.0,1
916,916,0.3778963054919734,0.4,0.0,0.0,371.0,737.0,0.0,1,212.0,1
917,917,-0.878239453711135,-0.9,1.0,0.0,370.0,774.0,0.0,0,146.0,1
918,918,0.3759499997353358,0.4,1.0,1.0,325.0,784.0,1.0,1,371.0,1
919,919,-0.8066484716606135,-0.8,0.0,1.0,410.0,861.0,1.0,0,189.0,1
920,920,-0.18507581203572965,-0.2,0.0,1.0,266.0,702.0,1.0,0,732.0,1
921,921,0.6799563638678575,0.7,1.0,1.0,465.0,733.0,1.0,1,202.0,1
922,922,-0.8773882032451531,-0.9,0.0,1.0,381.0,934.0,1.0,0,195.0,1
923,923,-0.5877244155547202,-0.6,1.0,0.0,311.0,786.0,0.0,0,323.0,1
924,924,0.4713112436024679,0.5,1.0,1.0,326.0,865.0,1.0,1,259.0,1
925,925,-0.728511610087706,-0.7,1.0,0.0,276.0,820.0,0.0,0,114.0,1
926,926,0.05149089494838899,0.1,1.0,1.0,418.0,618.0,1.0,1,484.0,1
927,927,-0.7102195968150997,-0.7,0.0,1.0,374.0,682.0,1.0,0,114.0,1
928,928,0.6277004891098591,0.6,0.0,0.0,336.0,898.0,0.0,1,206.0,1
929,929,0.762246623132708,0.8,1.0,1.0,403.0,719.0,1.0,1,128.0,1
930,930,0.7648083476141209,0.8,1.0,1.0,290.0,723.0,1.0,1,97.0,1
931,931,-0.5721752629071207,-0.6,0.0,1.0,306.0,956.0,1.0,0,238.0,1
932,932,-0.42309346822062227,-0.4,0.0,1.0,354.0,536.0,1.0,0,410.0,1
933,933,0.48430554214479293,0.5,0.0,0.0,389.0,512.0,0.0,1,369.0,1
934,934,0.5182810188414521,0.5,1.0,1.0,454.0,970.0,1.0,1,-134.0,1
935,935,-0.2964456009029758,-0.3,0.0,1.0,434.0,798.0,1.0,0,518.0,1
936,936,-0.5103833737326398,-0.5,0.0,1.0,449.0,568.0,1.0,0,683.0,1
937,937,-0.07093779973143954,-0.1,1.0,0.0,288.0,727.0,0.0,0,935.0,1
938,938,-0.08169893092826974,-0.1,1.0,0.0,487.0,914.0,0.0,0,299.0,1
939,939,-0.8337506165503479,-0.8,0.0,1.0,316.0,740.0,1.0,0,134.0,1
940,940,0.08899334435649597,0.1,1.0,1.0,489.0,982.0,1.0,1,919.0,1
941,941,0.6817340193760487,0.7,0.0,0.0,332.0,706.0,0.0,1,122.0,1
942,942,-0.6251223779648029,-0.6,0.0,1.0,315.0,569.0,1.0,0,286.0,1
943,943,0.5680062366874098,0.6,0.0,0.0,356.0,986.0,0.0,1,198.0,1
944,944,0.5711309479964878,0.6,0.0,0.0,323.0,547.0,0.0,1,80.0,1
945,945,-0.5851048271049297,-0.6,0.0,1.0,255.0,967.0,0.0,1,-62.0,0
946,946,-0.5189410444443097,-0.5,0.0,1.0,442.0,792.0,1.0,0,236.0,1
947,947,-0.8079308246483715,-0.8,1.0,0.0,408.0,675.0,0.0,0,187.0,1
948,948,-0.33017886079244374,-0.3,1.0,0.0,286.0,732.0,0.0,0,322.0,1
949,949,-0.6686996728689113,-0.7,0.0,1.0,251.0,877.0,1.0,0,132.0,1
950,950,0.29668303574524335,0.3,1.0,1.0,472.0,858.0,1.0,1,340.0,1
951,951,-0.8924021354775592,-0.9,0.0,1.0,362.0,770.0,1.0,0,128.0,1
952,952,-0.1796647414895859,-0.2,0.0,1.0,406.0,956.0,1.0,0,468.0,1
953,953,-0.5488274707936533,-0.5,1.0,0.0,421.0,600.0,0.0,0,299.0,1
954,954,-0.15619010695029667,-0.2,0.0,1.0,373.0,601.0,1.0,0,1206.0,1
955,955,0.03865819660435188,0.0,1.0,1.0,458.0,567.0,1.0,1,475.0,1
956,956,0.0003184055555066623,0.0,0.0,0.0,383.0,989.0,1.0,0,1628.0,0
957,957,-0.3074774382915092,-0.3,1.0,0.0,257.0,543.0,0.0,0,550.0,1
958,958,-0.4452918294688815,-0.4,1.0,0.0,253.0,618.0,0.0,0,439.0,1
959,959,-0.1671910745318811,-0.2,1.0,0.0,490.0,536.0,0.0,0,1274.0,1
960,960,-0.41441918155400154,-0.4,0.0,1.0,342.0,530.0,1.0,0,238.0,1
961,961,-0.007393605195943231,-0.0,1.0,0.0,336.0,625.0,1.0,1,2039.0,0
962,962,0.8647033946957322,0.9,1.0,1.0,385.0,628.0,1.0,1,217.0,1
963,963,0.35879841346094665,0.4,0.0,0.0,324.0,702.0,0.0,1,384.0,1
964,964,-0.4574055662247914,-0.5,1.0,0.0,469.0,858.0,0.0,0,203.0,1
965,965,0.06270761240787714,0.1,1.0,1.0,279.0,667.0,1.0,1,1194.0,1
966,966,-0.8936461606265467,-0.9,1.0,0.0,472.0,815.0,0.0,0,133.0,1
967,967,-0.02298003974578411,-0.0,1.0,0.0,403.0,707.0,1.0,1,1680.0,0
968,968,0.6987618249206672,0.7,1.0,1.0,457.0,945.0,1.0,1,138.0,1
969,969,-0.8711511164767229,-0.9,1.0,0.0,409.0,639.0,0.0,0,182.0,1
970,970,-0.5961918642124708,-0.6,0.0,1.0,374.0,571.0,1.0,0,345.0,1
971,971,0.2381518404378825,0.2,1.0,1.0,394.0,737.0,1.0,1,649.0,1
972,972,0.5345713459165248,0.5,1.0,1.0,408.0,769.0,1.0,1,233.0,1
973,973,0.49155481690711944,0.5,0.0,0.0,486.0,724.0,0.0,1,130.0,1
974,974,-0.10778931303751005,-0.1,0.0,1.0,307.0,741.0,1.0,0,972.0,1
975,975,0.02599775749810851,0.0,0.0,0.0,497.0,532.0,1.0,0,1971.0,0
976,976,-0.6925314225250351,-0.7,0.0,1.0,408.0,564.0,1.0,0,218.0,1
977,977,-0.7862148347913867,-0.8,1.0,0.0,432.0,916.0,0.0,0,202.0,1
978,978,0.27138195759071626,0.3,0.0,0.0,478.0,683.0,0.0,1,479.0,1
979,979,-0.6094801212655554,-0.6,1.0,0.0,264.0,957.0,0.0,0,149.0,1
980,980,-0.5962212817444135,-0.6,0.0,1.0,485.0,933.0,1.0,0,142.0,1
981,981,0.057956248565298685,0.1,0.0,0.0,473.0,713.0,0.0,1,824.0,1
982,982,0.8029593241987495,0.8,1.0,1.0,406.0,613.0,1.0,1,201.0,1
983,983,0.8722378015633089,0.9,1.0,1.0,362.0,536.0,1.0,1,212.0,1
984,984,0.8625821184765888,0.9,0.0,0.0,379.0,669.0,0.0,1,232.0,1
985,985,-0.6295879196994633,-0.6,1.0,0.0,442.0,891.0,0.0,0,147.0,1
986,986,-0.024367422192270505,-0.0,1.0,0.0,384.0,658.0,0.0,0,778.0,1
987,987,0.2856648924319144,0.3,0.0,0.0,363.0,627.0,0.0,1,270.0,1
988,988,-0.4974982561276403,-0.5,1.0,0.0,304.0,880.0,0.0,0,296.0,1
989,989,0.15703924710778228,0.2,1.0,1.0,272.0,613.0,1.0,1,435.0,1
990,990,0.3809852076405703,0.4,1.0,1.0,408.0,914.0,1.0,1,298.0,1
991,991,-0.27059404223767913,-0.3,1.0,0.0,492.0,923.0,0.0,0,315.0,1
992,992,-0.2822161605543094,-0.3,0.0,1.0,375.0,863.0,1.0,0,362.0,1
993,993,-0.49624302721521846,-0.5,0.0,1.0,381.0,564.0,1.0,0,345.0,1
994,994,-0.8517539158996258,-0.9,0.0,1.0,357.0,718.0,1.0,0,185.0,1
995,995,-0.3257464088752666,-0.3,1.0,0.0,322.0,885.0,0.0,0,253.0,1
996,996,0.3054891326881265,0.3,1.0,1.0,319.0,770.0,1.0,1,291.0,1
997,997,0.06603258052188155,0.1,1.0,1.0,380.0,619.0,1.0,1,951.0,1
998,998,0.0022751468537852704,0.0,0.0,0.0,357.0,567.0,1.0,0,1236.0,0
999,999,0.10405289942192242,0.1,1.0,1.0,297.0,665.0,1.0,1,78.0,1
1000,1000,0.5176065523490804,0.5,0.0,0.0,262.0,558.0,0.0,1,170.0,1
1001,1001,-0.7365264399937123,-0.7,1.0,0.0,407.0,914.0,0.0,0,49.0,1
1002,1002,-0.1790468884426727,-0.2,1.0,0.0,372.0,985.0,0.0,0,823.0,1
1003,1003,0.4501110240541387,0.5,1.0,1.0,413.0,865.0,1.0,1,52.0,1
1004,1004,0.07815213729179393,0.1,0.0,0.0,485.0,591.0,0.0,1,1924.0,1
1005,1005,0.6846451741039256,0.7,1.0,1.0,379.0,854.0,1.0,1,137.0,1
1006,1006,-0.6300759447285906,-0.6,1.0,0.0,344.0,600.0,0.0,0,336.0,1
1007,1007,0.20701814608244373,0.2,0.0,0.0,296.0,586.0,0.0,1,548.0,1
1008,1008,-0.21110607501997514,-0.2,0.0,1.0,495.0,568.0,1.0,0,497.0,1
1009,1009,-0.06940628417950578,-0.1,0.0,1.0,324.0,562.0,1.0,0,1484.0,1
1010,1010,0.8999131078238277,0.9,1.0,1.0,395.0,822.0,1.0,1,113.0,1
1011,1011,-0.5584254976691272,-0.6,1.0,0.0,322.0,996.0,0.0,0,152.0,1
1012,1012,0.8291849835938848,0.8,1.0,1.0,451.0,625.0,1.0,1,124.0,1
1013,1013,0.35586133203171044,0.4,1.0,1.0,336.0,889.0,1.0,1,365.0,1
1014,1014,-0.6740153032260469,-0.7,1.0,0.0,299.0,934.0,0.0,0,217.0,1
1015,1015,-0.30699581483834115,-0.3,1.0,0.0,454.0,958.0,0.0,0,268.0,1
1016,1016,-0.7289503390763186,-0.7,1.0,0.0,410.0,792.0,0.0,0,258.0,1
1017,1017,0.22395159572929801,0.2,0.0,0.0,384.0,677.0,0.0,1,309.0,1
1018,1018,-0.12193096610311749,-0.1,0.0,1.0,282.0,722.0,1.0,0,296.0,1
1019,1019,0.4925598230139715,0.5,1.0,1.0,335.0,821.0,1.0,1,154.0,1
1020,1020,-0.4443807257790764,-0.4,1.0,0.0,271.0,549.0,0.0,0,680.0,1
1021,1021,-0.8215842021430894,-0.8,1.0,0.0,480.0,718.0,0.0,0,242.0,1
1022,1022,-0.310212089989218,-0.3,1.0,0.0,303.0,960.0,0.0,0,277.0,1
1023,1023,-0.0412971795891921,-0.0,1.0,0.0,420.0,691.0,0.0,0,1889.0,1
1024,1024,-0.3921607283868078,-0.4,1.0,0.0,396.0,789.0,0.0,0,365.0,1
1025,1025,0.7979784706097962,0.8,0.0,0.0,399.0,599.0,0.0,1,162.0,1
1026,1026,0.1628048417086544,0.2,0.0,0.0,274.0,717.0,0.0,1,579.0,1
1027,1027,0.3738180912265422,0.4,1.0,1.0,285.0,988.0,1.0,1,37.0,1
1028,1028,-0.5621520585859023,-0.6,1.0,0.0,251.0,931.0,0.0,0,158.0,1
1029,1029,-0.696678600571059,-0.7,0.0,1.0,267.0,572.0,1.0,0,351.0,1
1030,1030,0.2601774016816806,0.3,0.0,0.0,333.0,914.0,0.0,1,443.0,1
1031,1031,0.80469811952345,0.8,0.0,0.0,408.0,968.0,0.0,1,214.0,1
1032,1032,-0.8455001895015214,-0.8,1.0,0.0,466.0,810.0,0.0,0,234.0,1
1033,1033,0.6920827448887686,0.7,1.0,1.0,430.0,590.0,1.0,1,260.0,1
1034,1034,0.8298474536383776,0.8,0.0,0.0,280.0,737.0,0.0,1,83.0,1
1035,1035,-0.5261918000533201,-0.5,1.0,0.0,343.0,933.0,0.0,0,464.0,1
1036,1036,0.7646069757809449,0.8,0.0,0.0,462.0,802.0,0.0,1,126.0,1
1037,1037,0.8584258476224297,0.9,1.0,1.0,484.0,776.0,1.0,1,210.0,1
1038,1038,-0.6591241169191733,-0.7,1.0,0.0,274.0,777.0,0.0,0,199.0,1
1039,1039,0.08666584521290888,0.1,0.0,0.0,296.0,911.0,0.0,1,1253.0,1
1040,1040,-0.7226649264912954,-0.7,0.0,1.0,273.0,744.0,1.0,0,173.0,1
1041,1041,0.010652357079223629,0.0,0.0,0.0,478.0,820.0,0.0,1,832.0,1
1042,1042,0.23971001131699665,0.2,0.0,0.0,373.0,665.0,0.0,1,342.0,1
1043,1043,0.3381461334922081,0.3,0.0,0.0,409.0,907.0,0.0,1,324.0,1
1044,1044,0.2808473151679479,0.3,1.0,1.0,327.0,528.0,1.0,1,595.0,1
1045,1045,0.027301161914118688,0.0,0.0,0.0,375.0,807.0,1.0,0,1818.0,0
1046,1046,-0.26725280390682793,-0.3,0.0,1.0,362.0,921.0,1.0,0,67.0,1
1047,1047,0.6799880024363388,0.7,1.0,1.0,490.0,950.0,1.0,1,130.0,1
1048,1048,0.19458032990279228,0.2,1.0,1.0,381.0,515.0,1.0,1,374.0,1
1049,1049,-0.5303079065689517,-0.5,1.0,0.0,396.0,566.0,0.0,0,398.0,1
1050,1050,0.7897536677290534,0.8,1.0,1.0,288.0,817.0,1.0,1,115.0,1
1051,1051,0.0661023999400473,0.1,1.0,1.0,484.0,655.0,1.0,1,571.0,1
1052,1052,-0.6575265312096463,-0.7,1.0,0.0,320.0,986.0,0.0,0,274.0,1
1053,1053,0.11436128104181276,0.1,0.0,0.0,464.0,758.0,0.0,1,538.0,1
1054,1054,0.33200217251044084,0.3,0.0,0.0,309.0,597.0,0.0,1,514.0,1
1055,1055,-0.8860613758950268,-0.9,1.0,0.0,462.0,515.0,0.0,0,153.0,1
1056,1056,-0.13704389935254735,-0.1,1.0,0.0,446.0,882.0,0.0,0,172.0,1
1057,1057,0.3095998472390068,0.3,0.0,0.0,349.0,553.0,0.0,1,308.0,1
1058,1058,0.8966202638716881,0.9,0.0,0.0,455.0,628.0,0.0,1,177.0,1
1059,1059,-0.8545780462961136,-0.9,0.0,1.0,348.0,736.0,1.0,0,376.0,1
1060,1060,-0.11680506861332163,-0.1,1.0,0.0,463.0,604.0,0.0,0,1933.0,1
1061,1061,-0.8647998099487799,-0.9,1.0,0.0,316.0,567.0,0.0,0,197.0,1
1062,1062,-0.3303778368527476,-0.3,0.0,1.0,392.0,851.0,1.0,0,317.0,1
1063,1063,-0.25270805862580004,-0.3,0.0,1.0,494.0,562.0,1.0,0,254.0,1
1064,1064,-0.7715731821378015,-0.8,1.0,0.0,252.0,530.0,0.0,0,518.0,1
1065,1065,0.8515543448427995,0.9,0.0,0.0,484.0,914.0,0.0,1,92.0,1
1066,1066,0.8936253935995443,0.9,0.0,0.0,452.0,893.0,0.0,1,65.0,1
1067,1067,0.46207290592211614,0.5,0.0,0.0,290.0,911.0,0.0,1,259.0,1
1068,1068,-0.08410325932117835,-0.1,0.0,1.0,292.0,793.0,1.0,0,525.0,1
1069,1069,-0.6219725892955671,-0.6,0.0,1.0,339.0,796.0,1.0,0,185.0,1
1070,1070,-0.8454921864192977,-0.8,0.0,1.0,324.0,755.0,1.0,0,171.0,1
1071,1071,-0.4555943050740803,-0.5,0.0,1.0,336.0,866.0,1.0,0,308.0,1
1072,1072,0.7006832753457578,0.7,1.0,1.0,388.0,721.0,1.0,1,91.0,1
1073,1073,0.013571345499698406,0.0,0.0,0.0,362.0,912.0,1.0,0,1726.0,0
1074,1074,0.4492640315766544,0.4,1.0,1.0,368.0,882.0,1.0,1,120.0,1
1075,1075,-0.18533363215505738,-0.2,0.0,1.0,431.0,803.0,1.0,0,796.0,1
1076,1076,-0.3156250927455718,-0.3,0.0,1.0,490.0,942.0,1.0,0,438.0,1
1077,1077,-0.8597876420458509,-0.9,1.0,0.0,434.0,806.0,0.0,0,160.0,1
1078,1078,0.8997900919240459,0.9,0.0,0.0,353.0,982.0,0.0,1,65.0,1
1079,1079,0.8271572151634307,0.8,0.0,0.0,409.0,610.0,0.0,1,181.0,1
1080,1080,-0.8408362518418565,-0.8,0.0,1.0,489.0,874.0,1.0,0,167.0,1
1081,1081,-0.5073740509338938,-0.5,0.0,1.0,373.0,783.0,1.0,0,344.0,1
1082,1082,0.8045685702438746,0.8,0.0,0.0,349.0,554.0,0.0,1,197.0,1
1083,1083,0.6632204960897462,0.7,1.0,1.0,295.0,790.0,1.0,1,155.0,1
1084,1084,0.4562059377359998,0.5,1.0,1.0,288.0,606.0,1.0,1,266.0,1
1085,1085,0.12050056012254518,0.1,1.0,1.0,271.0,886.0,1.0,1,133.0,1
1086,1086,-0.5495061051776997,-0.5,1.0,0.0,473.0,878.0,0.0,0,209.0,1
1087,1087,0.7879013109698866,0.8,1.0,1.0,297.0,799.0,1.0,1,94.0,1
1088,1088,0.2022157905434524,0.2,1.0,1.0,437.0,928.0,1.0,1,235.0,1
1089,1089,0.15778503885244766,0.2,1.0,1.0,454.0,556.0,1.0,1,450.0,1
1090,1090,0.25176901850372724,0.3,1.0,1.0,273.0,838.0,1.0,1,199.0,1
1091,1091,0.4302585289667248,0.4,0.0,0.0,454.0,891.0,0.0,1,205.0,1
1092,1092,-0.26118436007715473,-0.3,1.0,0.0,469.0,691.0,0.0,0,1550.0,1
1093,1093,-0.49757658450136866,-0.5,0.0,1.0,268.0,536.0,1.0,0,316.0,1
1094,1094,0.12218720119193882,0.1,0.0,0.0,445.0,887.0,0.0,1,698.0,1
1095,1095,0.4599136076968978,0.5,0.0,0.0,292.0,544.0,0.0,1,444.0,1
1096,1096,-0.5393306042131101,-0.5,1.0,0.0,431.0,557.0,0.0,0,302.0,1
1097,1097,0.6392660489304406,0.6,1.0,1.0,277.0,606.0,1.0,1,227.0,1
1098,1098,-0.6206872856938486,-0.6,0.0,1.0,262.0,622.0,1.0,0,356.0,1
1099,1099,-0.5201191914912686,-0.5,0.0,1.0,340.0,655.0,1.0,0,485.0,1
1100,1100,0.8624159502311851,0.9,0.0,0.0,472.0,645.0,0.0,1,103.0,1
1101,1101,-0.39458549065254345,-0.4,0.0,1.0,323.0,903.0,1.0,0,394.0,1
1102,1102,0.6626736297506469,0.7,0.0,0.0,492.0,739.0,0.0,1,99.0,1
1103,1103,-0.6243332291216932,-0.6,1.0,0.0,256.0,544.0,0.0,0,410.0,1
1104,1104,0.8968389080370475,0.9,0.0,0.0,385.0,974.0,0.0,1,91.0,1
1105,1105,-0.09810283984028156,-0.1,0.0,1.0,485.0,794.0,1.0,0,861.0,1
1106,1106,0.6760504208497614,0.7,1.0,1.0,314.0,675.0,1.0,1,451.0,1
1107,1107,-0.09429961360913697,-0.1,0.0,1.0,484.0,817.0,1.0,0,1699.0,1
1108,1108,-0.32358538935606995,-0.3,0.0,1.0,438.0,717.0,1.0,0,435.0,1
1109,1109,0.8617707608356399,0.9,0.0,0.0,314.0,593.0,0.0,1,163.0,1
1110,1110,0.043123869428493555,0.0,1.0,1.0,430.0,580.0,1.0,1,1980.0,1
1111,1111,0.5633820493343397,0.6,1.0,1.0,382.0,642.0,1.0,1,116.0,1
1112,1112,0.7023443970908433,0.7,1.0,1.0,464.0,911.0,1.0,1,105.0,1
1113,1113,0.179669729458951,0.2,0.0,0.0,274.0,722.0,0.0,1,244.0,1
1114,1114,0.3180808396190572,0.3,0.0,0.0,311.0,683.0,0.0,1,396.0,1
1115,1115,0.13871198970446053,0.1,1.0,1.0,415.0,683.0,1.0,1,582.0,1
1116,1116,0.8717551507456099,0.9,1.0,1.0,486.0,686.0,1.0,1,238.0,1
1117,1117,-0.7147953489052762,-0.7,1.0,0.0,458.0,541.0,0.0,0,231.0,1
1118,1118,-0.808629020005792,-0.8,0.0,1.0,296.0,911.0,1.0,0,173.0,1
1119,1119,-0.6448052305524257,-0.6,0.0,1.0,466.0,781.0,1.0,0,213.0,1
1120,1120,0.38854844311977643,0.4,0.0,0.0,468.0,509.0,0.0,1,533.0,1
1121,1121,-0.5173328895377507,-0.5,1.0,0.0,339.0,537.0,0.0,0,324.0,1
1122,1122,0.08268833778592877,0.1,1.0,1.0,438.0,582.0,1.0,1,420.0,1
1123,1123,-0.22795330079912712,-0.2,0.0,1.0,459.0,526.0,1.0,0,615.0,1
1124,1124,-0.872695859966733,-0.9,1.0,0.0,426.0,853.0,0.0,0,191.0,1
1125,1125,-0.5087133499124821,-0.5,1.0,0.0,368.0,743.0,0.0,0,299.0,1
1126,1126,-0.85840888773595,-0.9,0.0,1.0,404.0,695.0,1.0,0,161.0,1
1127,1127,0.8368798239328797,0.8,1.0,1.0,310.0,728.0,1.0,1,152.0,1
1128,1128,-0.5703041006322531,-0.6,1.0,0.0,397.0,858.0,0.0,0,215.0,1
1129,1129,0.639742323561621,0.6,1.0,1.0,281.0,711.0,1.0,1,208.0,1
1130,1130,0.8698187002203116,0.9,0.0,0.0,368.0,898.0,0.0,1,214.0,1
1131,1131,-0.7822763863877136,-0.8,0.0,1.0,493.0,603.0,1.0,0,294.0,1
1132,1132,0.6801929786058912,0.7,0.0,0.0,275.0,549.0,0.0,1,156.0,1
1133,1133,0.4567034897012324,0.5,0.0,0.0,272.0,669.0,0.0,1,379.0,1
1134,1134,-0.5348346452071524,-0.5,1.0,0.0,449.0,998.0,0.0,0,243.0,1
1135,1135,-0.7757055258377812,-0.8,0.0,1.0,383.0,630.0,1.0,0,167.0,1
1136,1136,-0.708616216521422,-0.7,1.0,0.0,318.0,942.0,0.0,0,150.0,1
1137,1137,-0.5234774982325543,-0.5,0.0,1.0,302.0,930.0,1.0,0,148.0,1
1138,1138,0.2402516555170614,0.2,0.0,0.0,430.0,569.0,0.0,1,461.0,1
1139,1139,0.34475695005592144,0.3,1.0,1.0,452.0,823.0,1.0,1,185.0,1
1140,1140,0.6408430401637536,0.6,0.0,0.0,465.0,688.0,0.0,1,267.0,1
1141,1141,-0.3990323513166304,-0.4,1.0,0.0,253.0,597.0,0.0,0,410.0,1
1142,1142,0.890431816267545,0.9,0.0,0.0,326.0,853.0,0.0,1,231.0,1
1143,1143,0.34486238894994925,0.3,1.0,1.0,378.0,978.0,1.0,1,134.0,1
1144,1144,0.5614848993236939,0.6,0.0,0.0,296.0,797.0,0.0,1,267.0,1
1145,1145,-0.7461794342700299,-0.7,0.0,1.0,314.0,573.0,1.0,0,243.0,1
1146,1146,-0.30052425599113386,-0.3,1.0,0.0,477.0,571.0,0.0,0,512.0,1
1147,1147,-0.6263897847188025,-0.6,0.0,1.0,318.0,973.0,1.0,0,229.0,1
1148,1148,-0.6480322514147132,-0.6,1.0,0.0,372.0,848.0,0.0,0,240.0,1
1149,1149,0.739737052723436,0.7,1.0,1.0,491.0,718.0,1.0,1,71.0,1
1150,1150,-0.755347372464079,-0.8,1.0,0.0,485.0,862.0,0.0,0,233.0,1
1151,1151,0.6134021998365716,0.6,1.0,1.0,255.0,629.0,1.0,1,26.0,1
1152,1152,0.4051740781137686,0.4,1.0,1.0,388.0,956.0,1.0,1,396.0,1
1153,1153,0.5394282621245142,0.5,1.0,1.0,379.0,561.0,1.0,1,150.0,1
1154,1154,-0.7801142099756017,-0.8,1.0,0.0,329.0,694.0,0.0,0,217.0,1
1155,1155,0.42304977988432213,0.4,0.0,0.0,324.0,754.0,0.0,1,412.0,1
1156,1156,-0.6785506071908611,-0.7,0.0,1.0,378.0,622.0,1.0,0,190.0,1
1157,1157,0.6035448059090062,0.6,0.0,0.0,361.0,892.0,0.0,1,287.0,1
1158,1158,-0.22717271961461571,-0.2,0.0,1.0,367.0,852.0,1.0,0,191.0,1
1159,1159,0.8723459305878744,0.9,1.0,1.0,392.0,616.0,1.0,1,142.0,1
1160,1160,-0.4330770331898779,-0.4,0.0,1.0,392.0,612.0,1.0,0,596.0,1
1161,1161,-0.08641692111525423,-0.1,1.0,0.0,270.0,782.0,0.0,0,338.0,1
1162,1162,0.4534845288831827,0.5,0.0,0.0,267.0,804.0,0.0,1,269.0,1
1163,1163,-0.12196553687119538,-0.1,0.0,1.0,370.0,855.0,1.0,0,685.0,1
1164,1164,0.3590826687615448,0.4,0.0,0.0,351.0,776.0,0.0,1,393.0,1
1165,1165,0.6374891297375088,0.6,0.0,0.0,295.0,596.0,0.0,1,429.0,1
1166,1166,0.1634616110220225,0.2,0.0,0.0,253.0,735.0,0.0,1,202.0,1
1167,1167,0.09477150996877681,0.1,0.0,0.0,274.0,998.0,0.0,1,498.0,1
1168,1168,-0.26518464151344767,-0.3,1.0,0.0,464.0,624.0,0.0,0,402.0,1
1169,1169,0.6363484551672781,0.6,0.0,0.0,302.0,620.0,0.0,1,238.0,1
1170,1170,0.8736703524387904,0.9,0.0,0.0,288.0,908.0,0.0,1,154.0,1
1171,1171,-0.76368227147896,-0.8,0.0,1.0,416.0,775.0,1.0,0,159.0,1
1172,1172,0.5634834322671353,0.6,0.0,0.0,348.0,826.0,0.0,1,126.0,1
1173,1173,-0.8510192789691411,-0.9,1.0,0.0,493.0,779.0,0.0,0,178.0,1
1174,1174,0.5004954713348414,0.5,1.0,1.0,311.0,834.0,1.0,1,55.0,1
1175,1175,-0.5713312281974443,-0.6,0.0,1.0,420.0,844.0,1.0,0,216.0,1
1176,1176,0.3862656573099489,0.4,0.0,0.0,407.0,760.0,0.0,1,243.0,1
1177,1177,-0.1972956400915633,-0.2,1.0,0.0,277.0,594.0,0.0,0,329.0,1
1178,1178,-0.4057633289755386,-0.4,0.0,1.0,290.0,896.0,1.0,0,254.0,1
1179,1179,-0.7650706521722441,-0.8,0.0,1.0,275.0,909.0,1.0,0,166.0,1
1180,1180,0.25483825006468497,0.3,1.0,1.0,313.0,727.0,1.0,1,280.0,1
1181,1181,-0.2630832162805008,-0.3,1.0,0.0,308.0,945.0,0.0,0,217.0,1
1182,1182,0.8235094754898008,0.8,0.0,0.0,428.0,643.0,0.0,1,119.0,1
1183,1183,-0.30186243265811485,-0.3,1.0,0.0,298.0,602.0,0.0,0,780.0,1
1184,1184,-0.06884627747910943,-0.1,0.0,1.0,423.0,560.0,1.0,0,1807.0,1
1185,1185,0.6929437411914766,0.7,0.0,0.0,428.0,618.0,0.0,1,244.0,1
1186,1186,-0.5775463252656783,-0.6,1.0,0.0,291.0,866.0,0.0,0,163.0,1
1187,1187,-0.8440942931701544,-0.8,1.0,0.0,399.0,784.0,0.0,0,207.0,1
1188,1188,0.7481235092644748,0.7,1.0,1.0,341.0,501.0,1.0,1,228.0,1
1189,1189,-0.3264841096795974,-0.3,0.0,1.0,299.0,984.0,1.0,0,147.0,1
1190,1190,-0.20087080075934238,-0.2,1.0,0.0,430.0,563.0,0.0,0,457.0,1
1191,1191,-0.475667106156149,-0.5,1.0,0.0,353.0,584.0,0.0,0,323.0,1
1192,1192,-0.49979977336672216,-0.5,1.0,0.0,397.0,681.0,0.0,0,452.0,1
1193,1193,-0.7801813179415745,-0.8,0.0,1.0,349.0,995.0,1.0,0,136.0,1
1194,1194,-0.6322932848748287,-0.6,0.0,1.0,263.0,881.0,1.0,0,276.0,1
1195,1195,-0.6858483071537304,-0.7,1.0,0.0,430.0,656.0,0.0,0,214.0,1
1196,1196,0.5613107223591122,0.6,1.0,1.0,357.0,843.0,1.0,1,220.0,1
1197,1197,-0.617709171698543,-0.6,1.0,0.0,267.0,983.0,0.0,0,180.0,1
1198,1198,-0.1153823612006607,-0.1,0.0,1.0,262.0,633.0,1.0,0,695.0,1
1199,1199,0.12081859011253171,0.1,0.0,0.0,391.0,577.0,0.0,1,562.0,1
1200,1200,-0.12798443778011348,-0.1,0.0,1.0,450.0,986.0,1.0,0,154.0,1
1201,1201,0.26410498163741003,0.3,1.0,1.0,498.0,766.0,1.0,1,506.0,1
1202,1202,-0.7696771541854793,-0.8,1.0,0.0,343.0,769.0,0.0,0,98.0,1
1203,1203,0.867619491063132,0.9,0.0,0.0,370.0,771.0,0.0,1,199.0,1
1204,1204,-0.3729697017724727,-0.4,1.0,0.0,458.0,721.0,0.0,0,311.0,1
1205,1205,-0.5037908258617037,-0.5,0.0,1.0,398.0,964.0,1.0,0,258.0,1
1206,1206,-0.8240802700060997,-0.8,0.0,1.0,317.0,895.0,1.0,0,128.0,1
1207,1207,0.38130117310780853,0.4,0.0,0.0,427.0,815.0,0.0,1,188.0,1
1208,1208,-0.8752827103133592,-0.9,0.0,1.0,272.0,661.0,1.0,0,237.0,1
1209,1209,0.21987345194140306,0.2,1.0,1.0,307.0,505.0,1.0,1,348.0,1
1210,1210,-0.5597903962331043,-0.6,0.0,1.0,455.0,618.0,1.0,0,397.0,1
1211,1211,-0.6967187535493301,-0.7,0.0,1.0,473.0,988.0,1.0,0,139.0,1
1212,1212,-0.7559238977426236,-0.8,1.0,0.0,379.0,528.0,0.0,0,203.0,1
1213,1213,0.4927121339249093,0.5,1.0,1.0,444.0,811.0,1.0,1,135.0,1
1214,1214,-0.14410169378762416,-0.1,1.0,0.0,427.0,731.0,0.0,0,812.0,1
1215,1215,-0.6299778232957016,-0.6,1.0,0.0,364.0,602.0,0.0,0,284.0,1
1216,1216,0.8305588533961431,0.8,0.0,0.0,325.0,818.0,0.0,1,167.0,1
1217,1217,-0.09726957790379676,-0.1,0.0,1.0,317.0,641.0,1.0,0,972.0,1
1218,1218,0.20211465558621244,0.2,0.0,0.0,332.0,673.0,0.0,1,735.0,1
1219,1219,0.4120647020751921,0.4,0.0,0.0,253.0,930.0,0.0,1,277.0,1
1220,1220,-0.21115316538123596,-0.2,1.0,0.0,439.0,730.0,0.0,0,851.0,1
1221,1221,-0.011198998469384547,-0.0,0.0,1.0,381.0,869.0,1.0,0,870.0,1
1222,1222,0.8080651429803914,0.8,1.0,1.0,366.0,529.0,1.0,1,105.0,1
1223,1223,-0.48700841488228136,-0.5,1.0,0.0,342.0,873.0,0.0,0,165.0,1
1224,1224,-0.44654724642914384,-0.4,1.0,0.0,402.0,518.0,0.0,0,290.0,1
1225,1225,-0.8265476648645512,-0.8,1.0,0.0,387.0,520.0,0.0,0,253.0,1
1226,1226,-0.19445889086442913,-0.2,0.0,1.0,353.0,638.0,1.0,0,609.0,1
1227,1227,0.4660718163465988,0.5,0.0,0.0,449.0,643.0,0.0,1,328.0,1
1228,1228,-0.02611273397176861,-0.0,1.0,0.0,383.0,615.0,1.0,1,1282.0,0
1229,1229,-0.08358379653495518,-0.1,0.0,1.0,329.0,673.0,1.0,0,1408.0,1
1230,1230,0.736303979092689,0.7,1.0,1.0,353.0,892.0,1.0,1,175.0,1
1231,1231,0.5513778696169186,0.6,1.0,1.0,461.0,802.0,1.0,1,167.0,1
1232,1232,0.022296199857886778,0.0,1.0,1.0,365.0,642.0,1.0,1,1993.0,1
1233,1233,-0.12075228810386085,-0.1,1.0,0.0,345.0,699.0,1.0,1,1956.0,0
1234,1234,0.5931502108869179,0.6,1.0,1.0,487.0,529.0,1.0,1,354.0,1
1235,1235,-0.499506284684462,-0.5,0.0,1.0,401.0,732.0,1.0,0,407.0,1
1236,1236,-0.1594098069937162,-0.2,0.0,1.0,300.0,916.0,1.0,0,1544.0,1
1237,1237,-0.31318077163568425,-0.3,1.0,0.0,256.0,524.0,0.0,0,320.0,1
1238,1238,-0.8889346047134182,-0.9,1.0,0.0,325.0,852.0,0.0,0,283.0,1
1239,1239,0.45738899144469636,0.5,1.0,1.0,418.0,783.0,1.0,1,369.0,1
1240,1240,-0.6933362337460711,-0.7,0.0,1.0,297.0,779.0,1.0,0,234.0,1
1241,1241,0.6019649146104488,0.6,0.0,0.0,490.0,857.0,0.0,1,93.0,1
1242,1242,0.6743746602062973,0.7,0.0,0.0,291.0,615.0,0.0,1,174.0,1
1243,1243,0.7218399265907357,0.7,1.0,1.0,268.0,881.0,1.0,1,141.0,1
1244,1244,0.35761932051933754,0.4,0.0,0.0,379.0,970.0,0.0,1,581.0,1
1245,1245,0.8443520450663314,0.8,0.0,0.0,310.0,565.0,0.0,1,275.0,1
1246,1246,-0.5917011016223983,-0.6,1.0,0.0,329.0,560.0,0.0,0,171.0,1
1247,1247,-0.45962559300123745,-0.5,0.0,1.0,329.0,510.0,1.0,0,341.0,1
1248,1248,0.6102505544139375,0.6,1.0,1.0,269.0,743.0,1.0,1,98.0,1
1249,1249,-0.7046945148568599,-0.7,0.0,1.0,277.0,865.0,1.0,0,188.0,1
1250,1250,-0.5620483389375697,-0.6,0.0,1.0,377.0,817.0,1.0,0,76.0,1
1251,1251,0.71991096206973,0.7,0.0,0.0,382.0,839.0,0.0,1,89.0,1
1252,1252,-0.6959622032732549,-0.7,1.0,0.0,499.0,868.0,0.0,0,413.0,1
1253,1253,0.07892254652791675,0.1,1.0,1.0,384.0,544.0,1.0,1,412.0,1
1254,1254,0.2577089832819276,0.3,0.0,0.0,477.0,851.0,0.0,1,342.0,1
1255,1255,-0.05941084521315343,-0.1,0.0,1.0,302.0,528.0,1.0,0,770.0,1
1256,1256,0.0837384870878527,0.1,1.0,1.0,481.0,968.0,1.0,1,1551.0,1
1257,1257,0.6349093711687949,0.6,1.0,1.0,477.0,581.0,1.0,1,312.0,1
1258,1258,-0.8327087679983207,-0.8,0.0,1.0,388.0,754.0,1.0,0,198.0,1
1259,1259,0.25204519914174306,0.3,0.0,0.0,372.0,938.0,0.0,1,-160.0,1
1260,1260,0.09557802002161597,0.1,1.0,1.0,381.0,685.0,1.0,1,664.0,1
1261,1261,0.7151624144575254,0.7,1.0,1.0,276.0,730.0,1.0,1,224.0,1
1262,1262,0.32185301134273747,0.3,0.0,0.0,386.0,629.0,0.0,1,465.0,1
1263,1263,0.5379951886461017,0.5,0.0,0.0,467.0,731.0,0.0,1,212.0,1
1264,1264,0.4143583362232087,0.4,0.0,0.0,276.0,659.0,0.0,1,385.0,1
1265,1265,0.17777010502878954,0.2,0.0,0.0,478.0,932.0,0.0,1,270.0,1
1266,1266,-0.5519972573607452,-0.6,1.0,0.0,335.0,870.0,0.0,0,145.0,1
1267,1267,-0.7834990555481922,-0.8,1.0,0.0,429.0,578.0,0.0,0,33.0,1
1268,1268,0.24472454201989235,0.2,0.0,0.0,417.0,787.0,0.0,1,986.0,1
1269,1269,-0.062411613898564755,-0.1,0.0,1.0,476.0,619.0,1.0,0,1045.0,1
1270,1270,0.791064477239151,0.8,1.0,1.0,347.0,938.0,1.0,1,125.0,1
1271,1271,-0.143631197298283,-0.1,0.0,1.0,282.0,812.0,1.0,0,1286.0,1
1272,1272,0.3969771545796049,0.4,0.0,0.0,282.0,766.0,0.0,1,232.0,1
1273,1273,0.3512953354779006,0.4,1.0,1.0,360.0,761.0,1.0,1,109.0,1
1274,1274,-0.05026125382487745,-0.1,1.0,0.0,313.0,513.0,1.0,1,954.0,0
1275,1275,0.8663539479188086,0.9,1.0,1.0,483.0,877.0,1.0,1,150.0,1
1276,1276,0.14684284237871326,0.1,1.0,1.0,316.0,743.0,1.0,1,1701.0,1
1277,1277,0.18426705804821453,0.2,0.0,0.0,446.0,531.0,0.0,1,423.0,1
1278,1278,0.8234155964054334,0.8,0.0,0.0,315.0,662.0,0.0,1,173.0,1
1279,1279,0.5779585318629256,0.6,1.0,1.0,348.0,598.0,1.0,1,194.0,1
1280,1280,0.061553631716760315,0.1,1.0,1.0,489.0,517.0,1.0,1,1424.0,1
1281,1281,0.16725200062777412,0.2,0.0,0.0,361.0,792.0,0.0,1,187.0,1
1282,1282,-0.42997283706081635,-0.4,1.0,0.0,432.0,825.0,0.0,0,283.0,1
1283,1283,0.18104178790250958,0.2,0.0,0.0,384.0,860.0,0.0,1,726.0,1
1284,1284,0.5419976380197523,0.5,1.0,1.0,309.0,914.0,1.0,1,167.0,1
1285,1285,-0.35206339571946343,-0.4,1.0,0.0,364.0,581.0,0.0,0,555.0,1
1286,1286,0.12151636204252314,0.1,0.0,0.0,276.0,702.0,0.0,1,1062.0,1
1287,1287,0.32572392244238835,0.3,0.0,0.0,400.0,573.0,0.0,1,527.0,1
1288,1288,-0.315342575836528,-0.3,1.0,0.0,407.0,864.0,0.0,0,229.0,1
1289,1289,-0.6991124430199904,-0.7,1.0,0.0,446.0,927.0,0.0,0,147.0,1
1290,1290,0.4247753790200016,0.4,0.0,0.0,358.0,954.0,0.0,1,198.0,1
1291,1291,-0.8839456300408888,-0.9,0.0,1.0,328.0,951.0,1.0,0,101.0,1
1292,1292,-0.8693961609456737,-0.9,1.0,0.0,274.0,685.0,0.0,0,141.0,1
1293,1293,0.7010176282530268,0.7,0.0,0.0,353.0,549.0,0.0,1,288.0,1
1294,1294,-0.4831412709124608,-0.5,0.0,1.0,346.0,642.0,1.0,0,432.0,1
1295,1295,-0.16943192053058687,-0.2,1.0,0.0,314.0,735.0,0.0,0,1071.0,1
1296,1296,0.5611099072551381,0.6,0.0,0.0,318.0,553.0,0.0,1,249.0,1
1297,1297,-0.1059074207872518,-0.1,1.0,0.0,450.0,679.0,0.0,0,1871.0,1
1298,1298,-0.7183964980274158,-0.7,1.0,0.0,455.0,805.0,0.0,0,130.0,1
1299,1299,-0.2724416323798523,-0.3,0.0,1.0,469.0,627.0,1.0,0,564.0,1
1300,1300,0.5047627255537065,0.5,1.0,1.0,354.0,831.0,1.0,1,175.0,1
1301,1301,-0.3252129236811072,-0.3,0.0,1.0,377.0,897.0,1.0,0,406.0,1
1302,1302,-0.0665566485466168,-0.1,1.0,0.0,379.0,997.0,0.0,0,634.0,1
1303,1303,0.3599947083744167,0.4,0.0,0.0,310.0,890.0,0.0,1,220.0,1
1304,1304,0.8183359254927848,0.8,0.0,0.0,313.0,812.0,0.0,1,185.0,1
1305,1305,0.7673301368765354,0.8,0.0,0.0,463.0,905.0,0.0,1,42.0,1
1306,1306,0.6312429448095144,0.6,0.0,0.0,427.0,810.0,0.0,1,93.0,1
1307,1307,-0.10795618622815795,-0.1,0.0,1.0,406.0,736.0,1.0,0,298.0,1
1308,1308,0.25576900216291565,0.3,0.0,0.0,443.0,789.0,0.0,1,288.0,1
1309,1309,-0.2039509248426894,-0.2,0.0,1.0,455.0,832.0,1.0,0,433.0,1
1310,1310,-0.42594183086527965,-0.4,1.0,0.0,283.0,945.0,0.0,0,202.0,1
1311,1311,0.6855421209988605,0.7,1.0,1.0,352.0,652.0,1.0,1,86.0,1
1312,1312,-0.8977551877949157,-0.9,1.0,0.0,426.0,909.0,0.0,0,165.0,1
1313,1313,0.5118294445438826,0.5,1.0,1.0,286.0,703.0,1.0,1,301.0,1
1314,1314,0.47093677011914103,0.5,0.0,0.0,328.0,907.0,0.0,1,145.0,1
1315,1315,-0.729990900422067,-0.7,1.0,0.0,375.0,980.0,0.0,0,135.0,1
1316,1316,0.023941879124910193,0.0,1.0,1.0,258.0,725.0,1.0,1,847.0,1
1317,1317,-0.2842018321154999,-0.3,0.0,1.0,312.0,673.0,1.0,0,385.0,1
1318,1318,0.30591877344639895,0.3,1.0,1.0,257.0,570.0,1.0,1,503.0,1
1319,1319,0.7451366062292472,0.7,0.0,0.0,289.0,651.0,0.0,1,150.0,1
1320,1320,0.8082721918941861,0.8,1.0,1.0,257.0,749.0,1.0,1,244.0,1
1321,1321,0.8404089422731266,0.8,1.0,1.0,383.0,593.0,1.0,1,194.0,1
1322,1322,-0.49981670449222176,-0.5,0.0,1.0,424.0,955.0,1.0,0,241.0,1
1323,1323,0.5445866819404449,0.5,1.0,1.0,317.0,739.0,1.0,1,154.0,1
1324,1324,-0.30018349660771304,-0.3,0.0,1.0,398.0,987.0,1.0,0,295.0,1
1325,1325,-0.0872285181110718,-0.1,0.0,1.0,351.0,686.0,0.0,1,1963.0,0
1326,1326,-0.34818269432667737,-0.3,1.0,0.0,368.0,984.0,0.0,0,398.0,1
1327,1327,0.3761447901501057,0.4,1.0,1.0,396.0,778.0,1.0,1,66.0,1
1328,1328,-0.04245439836132625,-0.0,1.0,0.0,329.0,506.0,1.0,1,2165.0,0
1329,1329,-0.2742040168775529,-0.3,1.0,0.0,256.0,535.0,0.0,0,719.0,1
1330,1330,0.6648914026833631,0.7,0.0,0.0,349.0,860.0,0.0,1,141.0,1
1331,1331,-0.2694334084467156,-0.3,1.0,0.0,438.0,836.0,0.0,0,296.0,1
1332,1332,0.17646592406954487,0.2,0.0,0.0,494.0,794.0,0.0,1,232.0,1
1333,1333,0.03748608580788493,0.0,0.0,0.0,302.0,657.0,0.0,1,981.0,1
1334,1334,0.3325086983430102,0.3,0.0,0.0,272.0,918.0,0.0,1,360.0,1
1335,1335,0.840903906029231,0.8,1.0,1.0,269.0,623.0,1.0,1,148.0,1
1336,1336,-0.777295713383259,-0.8,1.0,0.0,370.0,839.0,0.0,0,221.0,1
1337,1337,-0.11303463057828933,-0.1,0.0,1.0,360.0,664.0,1.0,0,746.0,1
1338,1338,0.44104029798895283,0.4,0.0,0.0,283.0,538.0,0.0,1,189.0,1
1339,1339,-0.8579330224812937,-0.9,1.0,0.0,438.0,595.0,0.0,0,257.0,1
1340,1340,-0.4106947405988058,-0.4,1.0,0.0,353.0,522.0,0.0,0,205.0,1
1341,1341,-0.09052058297429089,-0.1,0.0,1.0,492.0,898.0,1.0,0,1520.0,1
1342,1342,-0.8660511402474014,-0.9,1.0,0.0,250.0,882.0,0.0,0,108.0,1
1343,1343,0.3409329707013643,0.3,1.0,1.0,471.0,848.0,1.0,1,71.0,1
1344,1344,-0.034447498610515326,-0.0,0.0,1.0,314.0,691.0,1.0,0,1465.0,1
1345,1345,0.14951650785943926,0.1,1.0,1.0,278.0,669.0,1.0,1,493.0,1
1346,1346,-0.06532641766965341,-0.1,1.0,0.0,251.0,770.0,0.0,0,789.0,1
1347,1347,0.46722039345109756,0.5,0.0,0.0,395.0,700.0,0.0,1,195.0,1
1348,1348,0.7567581259701225,0.8,0.0,0.0,399.0,637.0,0.0,1,194.0,1
1349,1349,-0.883962283001339,-0.9,1.0,0.0,484.0,823.0,0.0,0,463.0,1
1350,1350,-0.11315915649468611,-0.1,1.0,0.0,391.0,634.0,0.0,0,715.0,1
1351,1351,0.5220243333207585,0.5,1.0,1.0,430.0,933.0,1.0,1,137.0,1
1352,1352,0.2581989737766007,0.3,0.0,0.0,251.0,561.0,0.0,1,248.0,1
1353,1353,-0.7814945344169917,-0.8,1.0,0.0,282.0,999.0,0.0,0,289.0,1
1354,1354,-0.5401200193135383,-0.5,0.0,1.0,437.0,846.0,1.0,0,307.0,1
1355,1355,0.7357026420785239,0.7,1.0,1.0,349.0,877.0,1.0,1,134.0,1
1356,1356,-0.6784697582742302,-0.7,1.0,0.0,440.0,971.0,0.0,0,179.0,1
1357,1357,0.0985710867824453,0.1,0.0,0.0,370.0,640.0,0.0,1,1910.0,1
1358,1358,0.6281074487883057,0.6,0.0,0.0,276.0,564.0,0.0,1,290.0,1
1359,1359,0.4008470935621823,0.4,1.0,1.0,259.0,652.0,1.0,1,279.0,1
1360,1360,-0.3841254804062878,-0.4,0.0,1.0,379.0,858.0,1.0,0,233.0,1
1361,1361,-0.20958562693518812,-0.2,0.0,1.0,297.0,801.0,1.0,0,1842.0,1
1362,1362,-0.3388693614189212,-0.3,1.0,0.0,296.0,903.0,0.0,0,331.0,1
1363,1363,0.1815934774765603,0.2,1.0,1.0,354.0,871.0,1.0,1,845.0,1
1364,1364,-0.0708127467631906,-0.1,0.0,1.0,279.0,795.0,1.0,0,926.0,1
1365,1365,-0.5787885486376315,-0.6,0.0,1.0,424.0,924.0,1.0,0,102.0,1
1366,1366,-0.7932868391208397,-0.8,1.0,0.0,340.0,661.0,0.0,0,199.0,1
1367,1367,0.19759224953455334,0.2,0.0,0.0,330.0,637.0,0.0,1,273.0,1
1368,1368,-0.6125147527535115,-0.6,1.0,0.0,370.0,561.0,0.0,0,229.0,1
1369,1369,0.6428241674259833,0.6,0.0,0.0,448.0,814.0,0.0,1,158.0,1
1370,1370,0.4101062302125932,0.4,0.0,0.0,484.0,829.0,0.0,1,257.0,1
1371,1371,-0.24055855142885263,-0.2,1.0,0.0,258.0,760.0,0.0,0,1062.0,1
1372,1372,-0.4219707025511691,-0.4,0.0,1.0,475.0,801.0,1.0,0,384.0,1
1373,1373,0.6841181257487686,0.7,0.0,0.0,253.0,828.0,0.0,1,199.0,1
1374,1374,-0.6243866579026851,-0.6,0.0,1.0,456.0,812.0,1.0,0,262.0,1
1375,1375,0.8542202425112236,0.9,1.0,1.0,373.0,801.0,1.0,1,156.0,1
1376,1376,-0.4192797087541298,-0.4,0.0,1.0,495.0,808.0,1.0,0,397.0,1
1377,1377,0.11328476264200404,0.1,1.0,1.0,352.0,703.0,1.0,1,755.0,1
1378,1378,0.3562627554124568,0.4,1.0,1.0,388.0,940.0,1.0,1,302.0,1
1379,1379,-0.7310505511939411,-0.7,1.0,0.0,439.0,707.0,0.0,0,294.0,1
1380,1380,0.40800330580898636,0.4,1.0,1.0,495.0,693.0,1.0,1,302.0,1
1381,1381,-0.25276166127304656,-0.3,0.0,1.0,376.0,752.0,1.0,0,922.0,1
1382,1382,0.7397237587534372,0.7,0.0,0.0,287.0,744.0,0.0,1,179.0,1
1383,1383,-0.40945971535087833,-0.4,0.0,1.0,333.0,660.0,1.0,0,377.0,1
1384,1384,-0.7178114784403956,-0.7,0.0,1.0,418.0,906.0,1.0,0,146.0,1
1385,1385,0.5840826828483289,0.6,1.0,1.0,437.0,960.0,1.0,1,43.0,1
1386,1386,-0.83886027788124,-0.8,1.0,0.0,390.0,634.0,0.0,0,156.0,1
1387,1387,-0.22181416773400864,-0.2,1.0,0.0,354.0,790.0,0.0,0,286.0,1
1388,1388,-0.4723614753390829,-0.5,0.0,1.0,442.0,536.0,1.0,0,672.0,1
1389,1389,-0.44737764546290776,-0.4,1.0,0.0,296.0,587.0,0.0,0,117.0,1
1390,1390,0.02909050261266266,0.0,1.0,1.0,440.0,972.0,1.0,1,598.0,1
1391,1391,0.4431235758501574,0.4,1.0,1.0,396.0,713.0,1.0,1,201.0,1
1392,1392,0.5125812456478157,0.5,1.0,1.0,439.0,769.0,1.0,1,122.0,1
1393,1393,-0.13241982074454317,-0.1,1.0,0.0,306.0,923.0,0.0,0,1081.0,1
1394,1394,-0.10234754686727987,-0.1,1.0,0.0,423.0,970.0,0.0,0,1497.0,1
1395,1395,-0.6621410755950977,-0.7,1.0,0.0,277.0,952.0,0.0,0,81.0,1
1396,1396,-0.4813042729984733,-0.5,1.0,0.0,406.0,705.0,0.0,0,279.0,1
1397,1397,-0.5408287631183097,-0.5,0.0,1.0,415.0,968.0,1.0,0,127.0,1
1398,1398,0.4811909577376722,0.5,0.0,0.0,415.0,751.0,0.0,1,234.0,1
1399,1399,0.14185758066204246,0.1,1.0,1.0,322.0,917.0,1.0,1,291.0,1
1400,1400,-0.03556548447495789,-0.0,0.0,1.0,459.0,770.0,1.0,0,1061.0,1
1401,1401,0.6720605714784894,0.7,1.0,1.0,251.0,512.0,1.0,1,117.0,1
1402,1402,0.675703121034856,0.7,1.0,1.0,388.0,689.0,1.0,1,123.0,1
1403,1403,0.17961964627821747,0.2,1.0,1.0,443.0,936.0,1.0,1,741.0,1
1404,1404,0.7778400902037289,0.8,1.0,1.0,463.0,900.0,1.0,1,237.0,1
1405,1405,0.3627428190310821,0.4,1.0,1.0,284.0,936.0,1.0,1,110.0,1
1406,1406,-0.24722298141457055,-0.2,1.0,0.0,438.0,728.0,0.0,0,214.0,1
1407,1407,0.8313768382439418,0.8,1.0,1.0,375.0,524.0,1.0,1,171.0,1
1408,1408,-0.070673925737336,-0.1,0.0,1.0,289.0,508.0,1.0,0,1913.0,1
1409,1409,0.28521164594003834,0.3,1.0,1.0,388.0,873.0,1.0,1,599.0,1
1410,1410,0.6654935954020295,0.7,1.0,1.0,298.0,735.0,1.0,1,177.0,1
1411,1411,0.7382756464997214,0.7,1.0,1.0,359.0,885.0,1.0,1,86.0,1
1412,1412,-0.018762918105984405,-0.0,0.0,1.0,396.0,862.0,1.0,0,1742.0,1
1413,1413,0.07841228100524333,0.1,0.0,0.0,386.0,662.0,0.0,1,752.0,1
1414,1414,-0.33277176322482593,-0.3,1.0,0.0,327.0,671.0,0.0,0,192.0,1
1415,1415,-0.6626495098761058,-0.7,0.0,1.0,429.0,877.0,1.0,0,154.0,1
1416,1416,0.3917738084919581,0.4,1.0,1.0,426.0,822.0,1.0,1,122.0,1
1417,1417,0.5827746986848034,0.6,1.0,1.0,303.0,756.0,1.0,1,101.0,1
1418,1418,0.19123317652667027,0.2,1.0,1.0,258.0,632.0,1.0,1,490.0,1
1419,1419,-0.7830154627229642,-0.8,1.0,0.0,281.0,987.0,0.0,0,102.0,1
1420,1420,-0.03820385052708963,-0.0,0.0,1.0,359.0,714.0,1.0,0,1927.0,1
1421,1421,-0.19998742888791854,-0.2,0.0,1.0,382.0,985.0,1.0,0,283.0,1
1422,1422,0.4445996370792812,0.4,1.0,1.0,455.0,728.0,1.0,1,67.0,1
1423,1423,0.7737812978346051,0.8,1.0,1.0,317.0,907.0,1.0,1,106.0,1
1424,1424,0.25694538563125857,0.3,1.0,1.0,372.0,874.0,1.0,1,454.0,1
1425,1425,0.789456287339294,0.8,0.0,0.0,399.0,612.0,0.0,1,229.0,1
1426,1426,0.11364789856882596,0.1,0.0,0.0,463.0,793.0,0.0,1,764.0,1
1427,1427,-0.13774439479491107,-0.1,0.0,1.0,389.0,953.0,1.0,0,428.0,1
1428,1428,-0.25949620394952944,-0.3,1.0,0.0,412.0,789.0,1.0,1,-51.0,0
1429,1429,0.4579613222178872,0.5,1.0,1.0,278.0,780.0,1.0,1,382.0,1
1430,1430,-0.37532014358152066,-0.4,1.0,0.0,474.0,670.0,0.0,0,386.0,1
1431,1431,0.727945235323248,0.7,0.0,0.0,270.0,882.0,0.0,1,178.0,1
1432,1432,0.6741754178762184,0.7,1.0,1.0,418.0,799.0,1.0,1,143.0,1
1433,1433,-0.24109696816248916,-0.2,0.0,1.0,377.0,672.0,1.0,0,291.0,1
1434,1434,-0.46699489824983215,-0.5,0.0,1.0,488.0,687.0,1.0,0,185.0,1
1435,1435,0.14614486451000508,0.1,1.0,1.0,259.0,803.0,1.0,1,98.0,1
1436,1436,0.7734407434356455,0.8,0.0,0.0,275.0,877.0,0.0,1,148.0,1
1437,1437,-0.05316418325252836,-0.1,0.0,1.0,447.0,909.0,1.0,0,1644.0,1
1438,1438,0.7480583410053049,0.7,0.0,0.0,334.0,638.0,0.0,1,148.0,1
1439,1439,0.018965633478064903,0.0,1.0,1.0,326.0,531.0,1.0,1,1213.0,1
1440,1440,-0.6749507490826072,-0.7,0.0,1.0,435.0,664.0,1.0,0,231.0,1
1441,1441,0.20259098439508338,0.2,0.0,0.0,449.0,841.0,0.0,1,440.0,1
1442,1442,0.8794903516327156,0.9,1.0,1.0,496.0,715.0,1.0,1,169.0,1
1443,1443,0.5346459713489834,0.5,1.0,1.0,451.0,683.0,1.0,1,76.0,1
1444,1444,-0.05822858561321009,-0.1,0.0,1.0,422.0,744.0,1.0,0,1834.0,1
1445,1445,0.5455080866891632,0.5,1.0,1.0,299.0,819.0,1.0,1,102.0,1
1446,1446,0.8017402006400361,0.8,1.0,1.0,372.0,715.0,1.0,1,153.0,1
1447,1447,0.8820143668054906,0.9,1.0,1.0,357.0,854.0,1.0,1,139.0,1
1448,1448,-0.6201270061155113,-0.6,0.0,1.0,391.0,961.0,1.0,0,158.0,1
1449,1449,-0.5945207185989733,-0.6,1.0,0.0,358.0,835.0,0.0,0,157.0,1
1450,1450,-0.018549713889725705,-0.0,1.0,0.0,429.0,963.0,1.0,1,1608.0,0
1451,1451,0.8704293603268433,0.9,1.0,1.0,492.0,547.0,1.0,1,131.0,1
1452,1452,0.31075982714526795,0.3,0.0,0.0,359.0,687.0,0.0,1,244.0,1
1453,1453,-0.7405483534515828,-0.7,1.0,0.0,396.0,797.0,0.0,0,277.0,1
1454,1454,-0.7049540115217163,-0.7,0.0,1.0,480.0,984.0,1.0,0,106.0,1
1455,1455,0.36008741905578645,0.4,1.0,1.0,310.0,877.0,1.0,1,263.0,1
1456,1456,0.7899609250165608,0.8,1.0,1.0,387.0,864.0,1.0,1,109.0,1
1457,1457,-0.1512089847684236,-0.2,1.0,0.0,401.0,615.0,0.0,0,1114.0,1
1458,1458,-0.799103913765654,-0.8,0.0,1.0,418.0,542.0,1.0,0,360.0,1
1459,1459,-0.04223049142323543,-0.0,1.0,0.0,290.0,577.0,1.0,1,1373.0,0
1460,1460,-0.6961132399493208,-0.7,1.0,0.0,389.0,627.0,0.0,0,244.0,1
1461,1461,-0.714979902448267,-0.7,0.0,1.0,468.0,665.0,1.0,0,157.0,1
1462,1462,0.4202979361154392,0.4,0.0,0.0,333.0,888.0,0.0,1,169.0,1
1463,1463,0.8400233113234007,0.8,1.0,1.0,287.0,831.0,1.0,1,212.0,1
1464,1464,0.7450023680905672,0.7,1.0,1.0,290.0,690.0,1.0,1,110.0,1
1465,1465,-0.08955631658005236,-0.1,0.0,1.0,331.0,951.0,1.0,0,588.0,1
1466,1466,-0.3616838164069476,-0.4,1.0,0.0,350.0,571.0,0.0,0,659.0,1
1467,1467,-0.10921183629522635,-0.1,0.0,1.0,337.0,637.0,1.0,0,2026.0,1
1468,1468,-0.8287967108479185,-0.8,0.0,1.0,341.0,568.0,1.0,0,291.0,1
1469,1469,0.06301204633072877,0.1,0.0,0.0,426.0,791.0,0.0,1,1223.0,1
1470,1470,-0.030310698780783962,-0.0,0.0,1.0,332.0,592.0,1.0,0,1226.0,1
1471,1471,0.37705821492393976,0.4,1.0,1.0,264.0,532.0,1.0,1,364.0,1
1472,1472,-0.06366300753336551,-0.1,1.0,0.0,251.0,877.0,0.0,0,1872.0,1
1473,1473,0.67471557578803,0.7,1.0,1.0,261.0,822.0,1.0,1,197.0,1
1474,1474,0.7759464312178438,0.8,1.0,1.0,376.0,675.0,1.0,1,219.0,1
1475,1475,0.5300525732563696,0.5,0.0,0.0,350.0,555.0,0.0,1,215.0,1
1476,1476,-0.20001575254739123,-0.2,1.0,0.0,416.0,717.0,0.0,0,587.0,1
1477,1477,0.6638305047492373,0.7,1.0,1.0,378.0,541.0,1.0,1,231.0,1
1478,1478,-0.6195460322940363,-0.6,1.0,0.0,382.0,532.0,0.0,0,196.0,1
1479,1479,0.03633165815936901,0.0,0.0,0.0,331.0,830.0,0.0,1,1839.0,1
1480,1480,-0.08782297559910734,-0.1,0.0,1.0,345.0,655.0,1.0,0,2000.0,1
1481,1481,-0.3572505618757664,-0.4,1.0,0.0,262.0,958.0,0.0,0,170.0,1
1482,1482,-0.40133359954568043,-0.4,0.0,1.0,345.0,541.0,1.0,0,324.0,1
1483,1483,0.26943198083669995,0.3,1.0,1.0,264.0,912.0,1.0,1,174.0,1
1484,1484,-0.08481173520808405,-0.1,0.0,1.0,296.0,986.0,1.0,0,358.0,1
1485,1485,-0.6785037964032913,-0.7,0.0,1.0,417.0,635.0,1.0,0,238.0,1
1486,1486,0.24317231390398109,0.2,0.0,0.0,297.0,939.0,0.0,1,134.0,1
1487,1487,-0.8842725734923755,-0.9,1.0,0.0,333.0,928.0,0.0,0,99.0,1
1488,1488,0.6573467989946696,0.7,0.0,0.0,352.0,674.0,0.0,1,184.0,1
1489,1489,0.14888527886236236,0.1,0.0,0.0,400.0,638.0,0.0,1,1762.0,1
1490,1490,-0.6335452441402005,-0.6,1.0,0.0,397.0,948.0,0.0,0,125.0,1
1491,1491,-0.48480558860588424,-0.5,0.0,1.0,362.0,810.0,1.0,0,338.0,1
1492,1492,-0.2984446355901914,-0.3,1.0,0.0,457.0,757.0,0.0,0,276.0,1
