,trial,coherence,coherence_bin,green_side,correct_side,target_onset,checker_onset,decision,green_decision,decision_time,correct_decision
0,0,0.10100608819055246,0.1,1.0,1.0,336.0,882.0,1.0,1,-198.0,1
1,1,0.7017398554665805,0.7,0.0,0.0,348.0,885.0,0.0,1,557.0,1
2,2,-0.09645479525797329,-0.1,1.0,0.0,331.0,898.0,0.0,0,-549.0,1
3,3,0.04526397888845801,0.0,1.0,1.0,317.0,750.0,1.0,1,183.0,1
4,4,0.05082905482748279,0.1,1.0,1.0,445.0,758.0,1.0,1,-233.0,1
5,5,0.603855866516345,0.6,1.0,1.0,406.0,832.0,1.0,1,482.0,1
6,6,0.060094956275686395,0.1,0.0,0.0,304.0,867.0,1.0,0,-551.0,0
7,7,0.32307897842595434,0.3,0.0,0.0,402.0,774.0,0.0,1,1614.0,1
8,8,0.2188451335498499,0.2,1.0,1.0,411.0,970.0,1.0,1,339.0,1
9,9,-0.4590343635864328,-0.5,1.0,0.0,455.0,891.0,0.0,0,-286.0,1
10,10,0.16345585474011648,0.2,1.0,1.0,346.0,579.0,1.0,1,-165.0,1
11,11,-0.41664865955374714,-0.4,0.0,1.0,496.0,819.0,1.0,0,165.0,1
12,12,0.8788746954304599,0.9,0.0,0.0,467.0,769.0,0.0,1,44.0,1
13,13,0.48226640393781517,0.5,1.0,1.0,318.0,589.0,1.0,1,103.0,1
14,14,-0.530049266211836,-0.5,0.0,1.0,341.0,895.0,1.0,0,144.0,1
15,15,0.8740598128443507,0.9,0.0,0.0,415.0,620.0,1.0,0,-165.0,0
16,16,0.5923766242664356,0.6,0.0,0.0,383.0,971.0,1.0,0,-344.0,0
17,17,0.40184434094406607,0.4,1.0,1.0,256.0,575.0,1.0,1,9.0,1
18,18,0.20526891744923803,0.2,0.0,0.0,255.0,597.0,0.0,1,448.0,1
19,19,-0.6599056319239845,-0.7,1.0,0.0,345.0,918.0,0.0,0,297.0,1
20,20,0.06169801546248177,0.1,0.0,0.0,284.0,900.0,1.0,0,-54.0,0
21,21,0.13911416090178663,0.1,0.0,0.0,350.0,807.0,0.0,1,713.0,1
22,22,-0.7965137901457867,-0.8,0.0,1.0,442.0,890.0,1.0,0,28.0,1
23,23,0.012823740661409233,0.0,0.0,0.0,277.0,815.0,1.0,0,808.0,0
24,24,-0.4862546616624815,-0.5,1.0,0.0,497.0,826.0,0.0,0,307.0,1
25,25,0.802796590973064,0.8,0.0,0.0,299.0,853.0,0.0,1,188.0,1
26,26,0.4942367873207193,0.5,0.0,0.0,337.0,995.0,1.0,0,-262.0,0
27,27,0.31861421715550364,0.3,0.0,0.0,447.0,922.0,0.0,1,-249.0,1
28,28,-0.6640725778465412,-0.7,0.0,1.0,487.0,764.0,1.0,0,659.0,1
29,29,-0.37029728485247004,-0.4,0.0,1.0,339.0,993.0,0.0,1,-642.0,0
30,30,-0.31082909495246747,-0.3,0.0,1.0,363.0,773.0,1.0,0,144.0,1
31,31,0.1151973307293378,0.1,0.0,0.0,341.0,550.0,0.0,1,769.0,1
32,32,0.5799697569801948,0.6,1.0,1.0,431.0,598.0,1.0,1,511.0,1
33,33,0.26252229748698463,0.3,0.0,0.0,460.0,524.0,1.0,0,386.0,0
34,34,0.7050982011016486,0.7,1.0,1.0,379.0,888.0,0.0,0,-607.0,0
35,35,-0.25635819807976556,-0.3,0.0,1.0,325.0,840.0,1.0,0,-435.0,1
36,36,-0.46010839456137864,-0.5,1.0,0.0,334.0,688.0,0.0,0,358.0,1
37,37,0.1689194867930145,0.2,0.0,0.0,256.0,940.0,1.0,0,-216.0,0
38,38,-0.47268086443319973,-0.5,1.0,0.0,269.0,750.0,0.0,0,171.0,1
39,39,-0.5179978497651538,-0.5,1.0,0.0,295.0,968.0,0.0,0,327.0,1
40,40,-0.3916995660941055,-0.4,1.0,0.0,431.0,695.0,1.0,1,-246.0,0
41,41,-0.2728795004373644,-0.3,1.0,0.0,300.0,693.0,1.0,1,-83.0,0
42,42,0.15934948795250958,0.2,0.0,0.0,259.0,707.0,1.0,0,-296.0,0
43,43,-0.24544296257649456,-0.2,1.0,0.0,324.0,561.0,0.0,0,45.0,1
44,44,0.8545615437051591,0.9,0.0,0.0,482.0,712.0,1.0,0,-264.0,0
45,45,-0.26542863595477706,-0.3,1.0,0.0,415.0,742.0,0.0,0,-887.0,1
46,46,-0.6363054603587259,-0.6,1.0,0.0,453.0,595.0,0.0,0,632.0,1
47,47,-0.707336612575153,-0.7,0.0,1.0,384.0,951.0,1.0,0,15.0,1
48,48,-0.5189884171321477,-0.5,1.0,0.0,491.0,958.0,0.0,0,421.0,1
49,49,-0.804970112521857,-0.8,0.0,1.0,262.0,644.0,1.0,0,274.0,1
50,50,-0.8533941216660524,-0.9,1.0,0.0,445.0,925.0,0.0,0,440.0,1
51,51,-0.4402493463594506,-0.4,0.0,1.0,392.0,595.0,1.0,0,53.0,1
52,52,0.27259298255135855,0.3,0.0,0.0,368.0,676.0,0.0,1,166.0,1
53,53,-0.3895089311530031,-0.4,1.0,0.0,262.0,517.0,1.0,1,551.0,0
54,54,0.6765526528987028,0.7,1.0,1.0,339.0,986.0,1.0,1,595.0,1
55,55,-0.7726198448854606,-0.8,1.0,0.0,423.0,557.0,0.0,0,570.0,1
56,56,-0.2669761712918485,-0.3,0.0,1.0,478.0,769.0,1.0,0,-357.0,1
57,57,0.39503561284949285,0.4,1.0,1.0,382.0,713.0,1.0,1,865.0,1
58,58,-0.2869590898727019,-0.3,1.0,0.0,360.0,623.0,1.0,1,227.0,0
59,59,-0.26385327035293293,-0.3,1.0,0.0,494.0,647.0,1.0,1,419.0,0
60,60,0.850819567600441,0.9,0.0,0.0,396.0,867.0,0.0,1,477.0,1
61,61,-0.4944031320772553,-0.5,1.0,0.0,298.0,767.0,0.0,0,285.0,1
62,62,-0.2977902568283165,-0.3,1.0,0.0,408.0,599.0,0.0,0,573.0,1
63,63,-0.8552895841041129,-0.9,0.0,1.0,415.0,946.0,1.0,0,-141.0,1
64,64,0.7782393542117917,0.8,0.0,0.0,301.0,819.0,0.0,1,150.0,1
65,65,0.7947360567956038,0.8,0.0,0.0,451.0,502.0,1.0,0,-753.0,0
66,66,0.16825968503464528,0.2,0.0,0.0,294.0,936.0,1.0,0,-560.0,0
67,67,0.5360092025676596,0.5,1.0,1.0,416.0,738.0,1.0,1,586.0,1
68,68,-0.18052601060149287,-0.2,0.0,1.0,400.0,578.0,1.0,0,-418.0,1
69,69,-0.44562673006314485,-0.4,1.0,0.0,267.0,598.0,0.0,0,395.0,1
70,70,-0.1256692326646871,-0.1,0.0,1.0,439.0,973.0,1.0,0,-152.0,1
71,71,0.4121913742202886,0.4,1.0,1.0,490.0,811.0,1.0,1,889.0,1
72,72,0.3055479024785558,0.3,0.0,0.0,280.0,804.0,1.0,0,-124.0,0
73,73,-0.5023927025626171,-0.5,1.0,0.0,251.0,752.0,0.0,0,247.0,1
74,74,-0.4644332863873243,-0.5,1.0,0.0,346.0,864.0,0.0,0,-240.0,1
75,75,-0.41167799860611753,-0.4,0.0,1.0,353.0,835.0,1.0,0,1542.0,1
76,76,-0.024580708494179704,-0.0,0.0,1.0,461.0,875.0,1.0,0,-496.0,1
77,77,-0.6187108873784668,-0.6,1.0,0.0,495.0,531.0,0.0,0,54.0,1
78,78,-0.23162764833185445,-0.2,1.0,0.0,261.0,990.0,0.0,0,1859.0,1
79,79,0.8880118267788385,0.9,0.0,0.0,330.0,656.0,0.0,1,74.0,1
80,80,-0.8596524037568378,-0.9,0.0,1.0,276.0,666.0,0.0,1,-302.0,0
81,81,0.5217218051750697,0.5,0.0,0.0,277.0,838.0,1.0,0,445.0,0
82,82,0.4133019253458686,0.4,0.0,0.0,411.0,769.0,0.0,1,-80.0,1
83,83,-0.1277983029688513,-0.1,1.0,0.0,338.0,600.0,0.0,0,852.0,1
84,84,0.4224908055449458,0.4,1.0,1.0,455.0,688.0,1.0,1,-143.0,1
85,85,0.7444372164822944,0.7,0.0,0.0,415.0,806.0,1.0,0,-101.0,0
86,86,-0.34088544934104814,-0.3,1.0,0.0,292.0,782.0,1.0,1,46.0,0
87,87,0.4249075082762116,0.4,0.0,0.0,394.0,764.0,0.0,1,692.0,1
88,88,0.36656488868923576,0.4,1.0,1.0,438.0,778.0,1.0,1,194.0,1
89,89,0.5402943349124364,0.5,0.0,0.0,409.0,649.0,1.0,0,-188.0,0
90,90,-0.6958343926488024,-0.7,0.0,1.0,488.0,635.0,1.0,0,117.0,1
91,91,0.26449305724807715,0.3,0.0,0.0,408.0,772.0,1.0,0,-60.0,0
92,92,-0.4401675177623797,-0.4,1.0,0.0,344.0,635.0,1.0,1,-69.0,0
93,93,0.2840372167519888,0.3,0.0,0.0,376.0,786.0,1.0,0,-352.0,0
94,94,-0.763456927034163,-0.8,0.0,1.0,306.0,730.0,1.0,0,14.0,1
95,95,-0.8826017235668132,-0.9,1.0,0.0,254.0,633.0,1.0,1,43.0,0
96,96,0.5919579440511796,0.6,0.0,0.0,257.0,616.0,0.0,1,487.0,1
97,97,0.4132201117833977,0.4,1.0,1.0,337.0,678.0,1.0,1,-165.0,1
98,98,-0.36385489720104625,-0.4,1.0,0.0,353.0,916.0,1.0,1,-989.0,0
99,99,0.7463225879486813,0.7,0.0,0.0,289.0,645.0,0.0,1,336.0,1
100,100,0.6022273528203087,0.6,1.0,1.0,423.0,576.0,1.0,1,171.0,1
101,101,-0.8738749883914432,-0.9,1.0,0.0,258.0,696.0,1.0,1,-54.0,0
102,102,0.18033462874564143,0.2,1.0,1.0,256.0,564.0,0.0,0,1110.0,0
103,103,0.7128561023319567,0.7,0.0,0.0,338.0,505.0,0.0,1,847.0,1
104,104,-0.7430914132580082,-0.7,1.0,0.0,292.0,901.0,0.0,0,337.0,1
105,105,0.25395860010970683,0.3,1.0,1.0,409.0,990.0,0.0,0,-499.0,0
106,106,-0.10660009791804681,-0.1,1.0,0.0,489.0,955.0,1.0,1,376.0,0
107,107,0.6475479096982156,0.6,0.0,0.0,387.0,570.0,0.0,1,373.0,1
108,108,-0.6307356243185113,-0.6,1.0,0.0,316.0,993.0,0.0,0,401.0,1
109,109,-0.8424676567393747,-0.8,0.0,1.0,351.0,547.0,1.0,0,202.0,1
110,110,0.8091765070762799,0.8,1.0,1.0,363.0,607.0,1.0,1,200.0,1
111,111,0.23902569079014058,0.2,0.0,0.0,321.0,529.0,1.0,0,1390.0,0
112,112,0.5087185657601482,0.5,0.0,0.0,465.0,798.0,1.0,0,-433.0,0
113,113,0.7409241888146282,0.7,1.0,1.0,368.0,818.0,1.0,1,74.0,1
114,114,-0.17025457332588045,-0.2,0.0,1.0,460.0,625.0,1.0,0,495.0,1
115,115,0.10960477724133233,0.1,1.0,1.0,357.0,928.0,1.0,1,-605.0,1
116,116,0.4858513469505462,0.5,0.0,0.0,338.0,639.0,0.0,1,253.0,1
117,117,0.0249261196643219,0.0,0.0,0.0,455.0,527.0,0.0,1,1898.0,1
118,118,0.7523193264925631,0.8,0.0,0.0,420.0,870.0,0.0,1,370.0,1
119,119,-0.6328251166022419,-0.6,0.0,1.0,495.0,656.0,1.0,0,-81.0,1
120,120,-0.6113258085259707,-0.6,0.0,1.0,439.0,907.0,0.0,1,-626.0,0
121,121,0.4922687471083592,0.5,1.0,1.0,450.0,724.0,1.0,1,-174.0,1
122,122,-0.8575366154943826,-0.9,0.0,1.0,471.0,730.0,1.0,0,29.0,1
123,123,0.8439231163750017,0.8,0.0,0.0,281.0,937.0,1.0,0,-228.0,0
124,124,-0.5599600891649814,-0.6,0.0,1.0,254.0,945.0,1.0,0,-119.0,1
125,125,0.16461949933105602,0.2,1.0,1.0,324.0,793.0,1.0,1,-87.0,1
126,126,0.49013060502840367,0.5,1.0,1.0,390.0,881.0,0.0,0,-91.0,0
127,127,0.40207112207454665,0.4,0.0,0.0,325.0,756.0,1.0,0,-451.0,0
128,128,-0.5057436487905016,-0.5,0.0,1.0,275.0,805.0,1.0,0,80.0,1
129,129,0.7668590586639686,0.8,1.0,1.0,348.0,611.0,1.0,1,221.0,1
130,130,0.7468927555656527,0.7,1.0,1.0,399.0,562.0,1.0,1,359.0,1
131,131,0.7335925710879473,0.7,0.0,0.0,493.0,691.0,1.0,0,-494.0,0
132,132,0.4811193125955441,0.5,0.0,0.0,451.0,574.0,0.0,1,805.0,1
133,133,0.0273220355178716,0.0,1.0,1.0,354.0,758.0,0.0,0,208.0,0
134,134,0.2869670652692494,0.3,0.0,0.0,289.0,710.0,1.0,0,2531.0,0
135,135,-0.47959542573308706,-0.5,1.0,0.0,324.0,715.0,0.0,0,311.0,1
136,136,0.3814186193455059,0.4,0.0,0.0,253.0,970.0,1.0,0,727.0,0
137,137,0.522140618137343,0.5,1.0,1.0,364.0,760.0,1.0,1,36.0,1
138,138,-0.3632249362037906,-0.4,0.0,1.0,499.0,610.0,1.0,0,-89.0,1
139,139,-0.13150848796858838,-0.1,1.0,0.0,327.0,671.0,1.0,1,1702.0,0
140,140,0.7847041254866148,0.8,0.0,0.0,294.0,646.0,0.0,1,570.0,1
141,141,0.6121174578143315,0.6,0.0,0.0,340.0,683.0,0.0,1,197.0,1
142,142,0.5908088243058275,0.6,0.0,0.0,294.0,764.0,1.0,0,-208.0,0
143,143,-0.8959948374051394,-0.9,1.0,0.0,407.0,811.0,0.0,0,-208.0,1
144,144,0.06669201848145168,0.1,1.0,1.0,393.0,889.0,1.0,1,58.0,1
145,145,-0.42013780616541685,-0.4,1.0,0.0,261.0,529.0,1.0,1,240.0,0
146,146,-0.7237879644901988,-0.7,1.0,0.0,487.0,725.0,0.0,0,198.0,1
147,147,0.7243952184730867,0.7,1.0,1.0,473.0,651.0,1.0,1,336.0,1
148,148,-0.2126328826670132,-0.2,1.0,0.0,440.0,970.0,1.0,1,-400.0,0
149,149,-0.03405348982008938,-0.0,1.0,0.0,349.0,754.0,1.0,1,837.0,0
150,150,-0.6241522608918442,-0.6,0.0,1.0,411.0,684.0,1.0,0,315.0,1
151,151,-0.17947618117862263,-0.2,1.0,0.0,273.0,505.0,0.0,0,1242.0,1
152,152,0.5477371485570636,0.5,0.0,0.0,466.0,830.0,0.0,1,314.0,1
153,153,-0.3810192782940953,-0.4,1.0,0.0,251.0,532.0,1.0,1,137.0,0
154,154,-0.5219549468766931,-0.5,0.0,1.0,445.0,865.0,1.0,0,-270.0,1
155,155,-0.17971150130792302,-0.2,1.0,0.0,327.0,816.0,1.0,1,-53.0,0
156,156,-0.6574869213656028,-0.7,0.0,1.0,419.0,968.0,1.0,0,53.0,1
157,157,-0.01662109414442947,-0.0,1.0,0.0,314.0,994.0,1.0,1,152.0,0
158,158,0.15921778394008868,0.2,1.0,1.0,488.0,718.0,0.0,0,94.0,0
159,159,0.45617414943529055,0.5,1.0,1.0,320.0,922.0,0.0,0,-542.0,0
160,160,-0.13709467755939908,-0.1,0.0,1.0,359.0,596.0,1.0,0,185.0,1
161,161,0.6320825862688585,0.6,0.0,0.0,339.0,533.0,0.0,1,138.0,1
162,162,0.1670957734790205,0.2,0.0,0.0,435.0,586.0,0.0,1,2699.0,1
163,163,0.7328925461365857,0.7,1.0,1.0,464.0,735.0,1.0,1,551.0,1
164,164,0.14087459421344584,0.1,1.0,1.0,253.0,843.0,1.0,1,424.0,1
165,165,-0.06194098732083875,-0.1,0.0,1.0,477.0,592.0,1.0,0,611.0,1
166,166,-0.7705874459367441,-0.8,0.0,1.0,406.0,856.0,1.0,0,488.0,1
167,167,0.30651488527370907,0.3,0.0,0.0,481.0,633.0,1.0,0,-574.0,0
168,168,0.4380116943765505,0.4,1.0,1.0,281.0,813.0,1.0,1,416.0,1
169,169,0.8116650019336208,0.8,1.0,1.0,353.0,548.0,1.0,1,-111.0,1
170,170,-0.26272127353196495,-0.3,1.0,0.0,297.0,726.0,1.0,1,1627.0,0
171,171,0.000364550558146437,0.0,1.0,1.0,422.0,502.0,1.0,1,586.0,1
172,172,0.3844615386098723,0.4,1.0,1.0,286.0,704.0,1.0,1,-120.0,1
173,173,-0.7399246772283397,-0.7,1.0,0.0,456.0,502.0,1.0,1,-348.0,0
174,174,0.7236029877775191,0.7,0.0,0.0,281.0,999.0,1.0,0,110.0,0
175,175,0.09276327052824085,0.1,0.0,0.0,275.0,593.0,0.0,1,-308.0,1
176,176,0.02182647836384599,0.0,0.0,0.0,495.0,575.0,1.0,0,420.0,0
177,177,0.17360093928702736,0.2,0.0,0.0,398.0,810.0,0.0,1,922.0,1
178,178,-0.6800832522693475,-0.7,1.0,0.0,387.0,638.0,0.0,0,-75.0,1
179,179,0.3856098844304744,0.4,0.0,0.0,286.0,556.0,0.0,1,188.0,1
180,180,-0.24748116839235423,-0.2,0.0,1.0,357.0,646.0,1.0,0,-403.0,1
181,181,0.6240831031940951,0.6,1.0,1.0,400.0,749.0,1.0,1,201.0,1
182,182,0.5248892329062121,0.5,1.0,1.0,385.0,559.0,1.0,1,6.0,1
183,183,-0.21399200615449798,-0.2,1.0,0.0,329.0,737.0,1.0,1,974.0,0
184,184,-0.713004300362559,-0.7,1.0,0.0,389.0,557.0,0.0,0,374.0,1
185,185,-0.3790285287588724,-0.4,0.0,1.0,331.0,527.0,1.0,0,552.0,1
186,186,0.7831603470977394,0.8,0.0,0.0,262.0,809.0,0.0,1,359.0,1
187,187,-0.6924362323509647,-0.7,1.0,0.0,477.0,553.0,0.0,0,650.0,1
188,188,0.10193983061444623,0.1,0.0,0.0,361.0,681.0,1.0,0,-102.0,0
189,189,0.15787228827913802,0.2,1.0,1.0,446.0,840.0,0.0,0,1184.0,0
190,190,-0.7362887104747511,-0.7,0.0,1.0,312.0,581.0,1.0,0,367.0,1
191,191,0.18123626741421195,0.2,1.0,1.0,449.0,507.0,1.0,1,1914.0,1
192,192,-0.6946831920522016,-0.7,0.0,1.0,258.0,548.0,1.0,0,214.0,1
193,193,-0.6142967084111871,-0.6,0.0,1.0,396.0,914.0,1.0,0,-500.0,1
194,194,-0.7639843138781064,-0.8,0.0,1.0,433.0,961.0,1.0,0,-614.0,1
195,195,0.005188318666342284,0.0,0.0,0.0,252.0,937.0,0.0,1,-379.0,1
196,196,0.08645340949658986,0.1,1.0,1.0,464.0,832.0,1.0,1,734.0,1
197,197,0.8500851980889844,0.9,0.0,0.0,394.0,940.0,1.0,0,-394.0,0
198,198,-0.1728373250035493,-0.2,1.0,0.0,318.0,995.0,1.0,1,-113.0,0
199,199,0.3904721862980344,0.4,1.0,1.0,406.0,711.0,1.0,1,503.0,1
200,200,0.36685334133964653,0.4,1.0,1.0,372.0,954.0,1.0,1,-556.0,1
201,201,-0.5977243049818093,-0.6,0.0,1.0,354.0,802.0,0.0,1,-216.0,0
202,202,0.34918217375884686,0.3,1.0,1.0,380.0,783.0,1.0,1,307.0,1
203,203,0.33724913058165107,0.3,0.0,0.0,480.0,540.0,1.0,0,290.0,0
204,204,0.11822381772267121,0.1,1.0,1.0,391.0,875.0,0.0,0,-166.0,0
205,205,0.017517904203974366,0.0,0.0,0.0,423.0,835.0,1.0,0,-378.0,0
206,206,0.6231682236511004,0.6,1.0,1.0,496.0,536.0,1.0,1,588.0,1
207,207,0.2979006955946434,0.3,0.0,0.0,418.0,922.0,0.0,1,-160.0,1
208,208,-0.0017170335539714587,-0.0,0.0,1.0,468.0,860.0,1.0,0,-188.0,1
209,209,0.5758313198640436,0.6,0.0,0.0,497.0,766.0,1.0,0,-143.0,0
210,210,-0.6858104867406121,-0.7,1.0,0.0,253.0,503.0,0.0,0,804.0,1
211,211,0.1348103360318914,0.1,1.0,1.0,371.0,787.0,1.0,1,-198.0,1
212,212,0.26412847299255604,0.3,0.0,0.0,382.0,723.0,1.0,0,5.0,0
213,213,0.6910461752760585,0.7,0.0,0.0,422.0,764.0,1.0,0,-306.0,0
214,214,0.7747935699819458,0.8,1.0,1.0,314.0,554.0,1.0,1,452.0,1
215,215,-0.07127993926472498,-0.1,1.0,0.0,374.0,537.0,1.0,1,199.0,0
216,216,0.061216415247928646,0.1,1.0,1.0,308.0,843.0,1.0,1,39.0,1
217,217,0.6412230913158209,0.6,1.0,1.0,350.0,627.0,1.0,1,623.0,1
218,218,-0.01442391891177719,-0.0,1.0,0.0,388.0,750.0,1.0,1,542.0,0
219,219,0.7704449057907462,0.8,1.0,1.0,458.0,519.0,1.0,1,203.0,1
220,220,0.32032329826346595,0.3,1.0,1.0,251.0,548.0,1.0,1,301.0,1
221,221,-0.5488894241895634,-0.5,1.0,0.0,386.0,950.0,0.0,0,34.0,1
222,222,0.3878484543954662,0.4,1.0,1.0,490.0,575.0,1.0,1,955.0,1
223,223,0.6142207078186529,0.6,1.0,1.0,298.0,888.0,0.0,0,-486.0,0
224,224,-0.8980307391224078,-0.9,0.0,1.0,330.0,606.0,1.0,0,384.0,1
225,225,0.6098839764245224,0.6,1.0,1.0,262.0,584.0,1.0,1,234.0,1
226,226,0.4394883429493136,0.4,1.0,1.0,348.0,888.0,1.0,1,-286.0,1
227,227,-0.2173400548986556,-0.2,1.0,0.0,446.0,809.0,0.0,0,-455.0,1
228,228,-0.6989582222561623,-0.7,1.0,0.0,493.0,710.0,0.0,0,57.0,1
229,229,0.05729336748898206,0.1,0.0,0.0,334.0,530.0,1.0,0,706.0,0
230,230,0.2610345951955487,0.3,0.0,0.0,259.0,816.0,1.0,0,-145.0,0
231,231,-0.8171927429570344,-0.8,0.0,1.0,376.0,559.0,1.0,0,-25.0,1
232,232,0.6607037221120972,0.7,1.0,1.0,392.0,742.0,1.0,1,246.0,1
233,233,0.1448301758769167,0.1,0.0,0.0,333.0,878.0,1.0,0,-301.0,0
234,234,0.057659432521698695,0.1,1.0,1.0,438.0,815.0,1.0,1,-163.0,1
235,235,-0.5549891902826503,-0.6,0.0,1.0,352.0,737.0,1.0,0,351.0,1
236,236,-0.020523176546296762,-0.0,0.0,1.0,398.0,546.0,1.0,0,316.0,1
237,237,0.5310529559350464,0.5,1.0,1.0,345.0,577.0,1.0,1,118.0,1
238,238,0.6219911145181464,0.6,1.0,1.0,318.0,851.0,1.0,1,931.0,1
239,239,-0.4899840731212944,-0.5,0.0,1.0,346.0,952.0,0.0,1,-18.0,0
240,240,-0.3766864883358143,-0.4,1.0,0.0,423.0,724.0,1.0,1,-447.0,0
241,241,-0.517435539165521,-0.5,1.0,0.0,310.0,612.0,0.0,0,538.0,1
242,242,0.3758727444550013,0.4,1.0,1.0,482.0,936.0,0.0,0,382.0,0
243,243,-0.49243319153508763,-0.5,0.0,1.0,452.0,880.0,0.0,1,-422.0,0
244,244,0.10262756847736398,0.1,0.0,0.0,492.0,708.0,1.0,0,650.0,0
245,245,-0.35435002870143106,-0.4,0.0,1.0,394.0,799.0,1.0,0,-493.0,1
246,246,-0.22835767186449063,-0.2,1.0,0.0,444.0,914.0,1.0,1,-688.0,0
247,247,-0.2924421342641692,-0.3,1.0,0.0,318.0,805.0,0.0,0,217.0,1
248,248,-0.5121848159736929,-0.5,1.0,0.0,394.0,875.0,0.0,0,391.0,1
249,249,-0.5909903380563195,-0.6,0.0,1.0,461.0,780.0,1.0,0,-51.0,1
250,250,-0.41076566431178935,-0.4,0.0,1.0,257.0,518.0,1.0,0,335.0,1
251,251,0.5269201939456604,0.5,0.0,0.0,383.0,675.0,0.0,1,732.0,1
252,252,-0.8976519115848766,-0.9,1.0,0.0,313.0,634.0,1.0,1,-47.0,0
253,253,0.7482624052819887,0.7,0.0,0.0,319.0,629.0,1.0,0,-128.0,0
254,254,-0.06396552617194862,-0.1,1.0,0.0,262.0,527.0,0.0,0,131.0,1
255,255,-0.3524944017978089,-0.4,0.0,1.0,346.0,951.0,0.0,1,-807.0,0
256,256,-0.7427522229730112,-0.7,0.0,1.0,452.0,890.0,1.0,0,338.0,1
257,257,-0.6334587464062325,-0.6,1.0,0.0,283.0,601.0,1.0,1,-144.0,0
258,258,0.6238827020337622,0.6,0.0,0.0,307.0,556.0,0.0,1,347.0,1
259,259,-0.12826664323613013,-0.1,0.0,1.0,250.0,840.0,1.0,0,-290.0,1
260,260,-0.36821911088387405,-0.4,1.0,0.0,332.0,542.0,1.0,1,816.0,0
261,261,0.5118674714400296,0.5,1.0,1.0,320.0,662.0,1.0,1,-392.0,1
262,262,0.03594223913886618,0.0,1.0,1.0,344.0,789.0,1.0,1,947.0,1
263,263,-0.287249302068761,-0.3,1.0,0.0,476.0,758.0,1.0,1,-164.0,0
264,264,0.5252398578202017,0.5,0.0,0.0,305.0,757.0,0.0,1,758.0,1
265,265,0.3038532424834416,0.3,0.0,0.0,390.0,643.0,1.0,0,407.0,0
266,266,0.22925321551548417,0.2,1.0,1.0,292.0,612.0,1.0,1,446.0,1
267,267,-0.8264840026414191,-0.8,1.0,0.0,254.0,621.0,0.0,0,595.0,1
268,268,-0.5582349320020038,-0.6,1.0,0.0,298.0,525.0,0.0,0,757.0,1
269,269,-0.4672721002280105,-0.5,1.0,0.0,351.0,695.0,0.0,0,164.0,1
270,270,-0.21235680730313466,-0.2,0.0,1.0,280.0,823.0,1.0,0,247.0,1
271,271,0.8093513995547702,0.8,0.0,0.0,272.0,737.0,0.0,1,741.0,1
272,272,-0.6753685670342975,-0.7,1.0,0.0,311.0,955.0,0.0,0,204.0,1
273,273,-0.0344526270815626,-0.0,1.0,0.0,323.0,567.0,0.0,0,1100.0,1
274,274,0.8699902073268181,0.9,1.0,1.0,484.0,925.0,1.0,1,-119.0,1
275,275,0.6751004448046659,0.7,1.0,1.0,463.0,819.0,1.0,1,418.0,1
276,276,0.4957592060955568,0.5,0.0,0.0,272.0,902.0,1.0,0,-184.0,0
277,277,0.04330509760371648,0.0,0.0,0.0,453.0,637.0,1.0,0,-110.0,0
278,278,0.8842453786620633,0.9,1.0,1.0,370.0,501.0,1.0,1,659.0,1
279,279,0.6090805509690213,0.6,1.0,1.0,368.0,737.0,1.0,1,325.0,1
280,280,-0.8910019722312139,-0.9,1.0,0.0,278.0,605.0,0.0,0,457.0,1
281,281,0.04237926198790665,0.0,0.0,0.0,377.0,535.0,1.0,0,898.0,0
282,282,0.5391263008484656,0.5,1.0,1.0,342.0,751.0,1.0,1,897.0,1
283,283,0.43855714186112527,0.4,0.0,0.0,269.0,668.0,1.0,0,893.0,0
284,284,0.3888480302525673,0.4,0.0,0.0,285.0,677.0,1.0,0,878.0,0
285,285,0.06037631598329596,0.1,1.0,1.0,398.0,749.0,0.0,0,-307.0,0
286,286,0.25673988436666983,0.3,0.0,0.0,360.0,573.0,0.0,1,-73.0,1
287,287,-0.05849263969746332,-0.1,0.0,1.0,262.0,640.0,1.0,0,-422.0,1
288,288,-0.5182159895195092,-0.5,1.0,0.0,359.0,584.0,1.0,1,297.0,0
289,289,-0.11033515907955138,-0.1,0.0,1.0,292.0,938.0,0.0,1,-350.0,0
290,290,-0.8102645206990897,-0.8,1.0,0.0,479.0,598.0,0.0,0,153.0,1
291,291,-0.6793755585533023,-0.7,0.0,1.0,409.0,974.0,1.0,0,47.0,1
292,292,-0.7772127582171344,-0.8,1.0,0.0,347.0,750.0,1.0,1,-37.0,0
293,293,-0.016358073689888286,-0.0,0.0,1.0,376.0,853.0,1.0,0,301.0,1
294,294,-0.7664422145726751,-0.8,0.0,1.0,429.0,811.0,1.0,0,130.0,1
295,295,-0.3786544806608244,-0.4,1.0,0.0,293.0,703.0,1.0,1,-256.0,0
296,296,-0.09130773476827225,-0.1,1.0,0.0,479.0,903.0,0.0,0,-92.0,1
297,297,0.437530934751002,0.4,0.0,0.0,455.0,803.0,0.0,1,692.0,1
298,298,-0.33415373426117634,-0.3,0.0,1.0,471.0,883.0,0.0,1,-224.0,0
299,299,-0.3842298101756775,-0.4,0.0,1.0,320.0,758.0,1.0,0,122.0,1
300,300,-0.23296689190262698,-0.2,0.0,1.0,442.0,578.0,1.0,0,-550.0,1
301,301,0.5500143719752238,0.6,0.0,0.0,476.0,550.0,1.0,0,-46.0,0
302,302,0.4686989235972795,0.5,0.0,0.0,442.0,959.0,1.0,0,909.0,0
303,303,-0.14267439608994026,-0.1,0.0,1.0,274.0,501.0,1.0,0,245.0,1
304,304,0.21526134743842096,0.2,0.0,0.0,412.0,963.0,1.0,0,245.0,0
305,305,0.8888954488087152,0.9,1.0,1.0,399.0,594.0,1.0,1,257.0,1
306,306,0.6407376769529084,0.6,0.0,0.0,257.0,710.0,0.0,1,313.0,1
307,307,-0.5906038639772764,-0.6,1.0,0.0,311.0,844.0,0.0,0,-195.0,1
308,308,-0.7064308961555701,-0.7,0.0,1.0,328.0,901.0,1.0,0,-49.0,1
309,309,-0.7808826121380344,-0.8,0.0,1.0,300.0,754.0,1.0,0,-64.0,1
310,310,0.553236644480619,0.6,0.0,0.0,497.0,509.0,0.0,1,1184.0,1
311,311,-0.8296366248344968,-0.8,1.0,0.0,421.0,574.0,1.0,1,-5.0,0
312,312,0.7254988418915685,0.7,1.0,1.0,387.0,517.0,1.0,1,296.0,1
313,313,0.42087926313720103,0.4,0.0,0.0,293.0,973.0,1.0,0,-26.0,0
314,314,-0.6077936932815473,-0.6,1.0,0.0,446.0,991.0,0.0,0,403.0,1
315,315,0.03885322058476803,0.0,1.0,1.0,260.0,720.0,1.0,1,-100.0,1
316,316,0.822334025651566,0.8,0.0,0.0,420.0,827.0,0.0,1,233.0,1
317,317,0.7257789023533997,0.7,0.0,0.0,320.0,630.0,1.0,0,-150.0,0
318,318,-0.773287158867956,-0.8,0.0,1.0,468.0,601.0,1.0,0,221.0,1
319,319,-0.40780916121848054,-0.4,1.0,0.0,488.0,518.0,1.0,1,-126.0,0
320,320,0.6792493642218754,0.7,1.0,1.0,416.0,980.0,1.0,1,-176.0,1
321,321,-0.6439149003790547,-0.6,1.0,0.0,469.0,850.0,0.0,0,-579.0,1
322,322,0.3059255651116829,0.3,0.0,0.0,269.0,937.0,0.0,1,-126.0,1
323,323,0.6547109109848682,0.7,1.0,1.0,412.0,702.0,0.0,0,-274.0,0
324,324,0.25714331489499676,0.3,1.0,1.0,497.0,968.0,1.0,1,75.0,1
325,325,-0.8086340758828767,-0.8,0.0,1.0,326.0,786.0,1.0,0,258.0,1
326,326,0.591275831630428,0.6,0.0,0.0,425.0,611.0,0.0,1,-166.0,1
327,327,-0.39466291555016264,-0.4,0.0,1.0,321.0,524.0,1.0,0,105.0,1
328,328,-0.8624945021896596,-0.9,0.0,1.0,405.0,667.0,1.0,0,158.0,1
329,329,0.2603396056936892,0.3,1.0,1.0,305.0,798.0,1.0,1,227.0,1
330,330,0.42148517529579543,0.4,0.0,0.0,332.0,554.0,1.0,0,1104.0,0
331,331,-0.06151263458812839,-0.1,0.0,1.0,389.0,544.0,1.0,0,617.0,1
332,332,0.6492618418059167,0.6,0.0,0.0,471.0,690.0,0.0,1,919.0,1
333,333,-0.12618321371430896,-0.1,1.0,0.0,259.0,587.0,0.0,0,194.0,1
334,334,-0.6724261553098267,-0.7,0.0,1.0,489.0,735.0,1.0,0,566.0,1
335,335,-0.12468966510372459,-0.1,1.0,0.0,473.0,784.0,0.0,0,473.0,1
336,336,-0.07665170560856893,-0.1,0.0,1.0,492.0,796.0,1.0,0,122.0,1
337,337,0.6452484602486602,0.6,1.0,1.0,428.0,577.0,1.0,1,395.0,1
338,338,0.736872702183122,0.7,1.0,1.0,423.0,753.0,1.0,1,284.0,1
339,339,-0.4848164161369244,-0.5,1.0,0.0,313.0,695.0,0.0,0,272.0,1
340,340,-0.396713697400942,-0.4,0.0,1.0,397.0,725.0,0.0,1,138.0,0
341,341,-0.07013393496044407,-0.1,0.0,1.0,489.0,523.0,1.0,0,858.0,1
342,342,0.5320497495924513,0.5,0.0,0.0,419.0,670.0,0.0,1,631.0,1
343,343,0.6004963795942323,0.6,0.0,0.0,412.0,827.0,1.0,0,-789.0,0
344,344,0.6204393578217101,0.6,0.0,0.0,350.0,613.0,0.0,1,547.0,1
345,345,-0.17025990068613694,-0.2,1.0,0.0,438.0,663.0,1.0,1,549.0,0
346,346,0.692332769561698,0.7,1.0,1.0,438.0,813.0,1.0,1,609.0,1
347,347,-0.2161601827287819,-0.2,0.0,1.0,493.0,909.0,1.0,0,-1312.0,1
348,348,0.061588604257626134,0.1,0.0,0.0,349.0,865.0,1.0,0,726.0,0
349,349,-0.7530367001026067,-0.8,1.0,0.0,386.0,950.0,1.0,1,74.0,0
350,350,0.006996101684994094,0.0,1.0,1.0,445.0,654.0,1.0,1,1021.0,1
351,351,0.3115084771273552,0.3,1.0,1.0,312.0,916.0,0.0,0,-48.0,0
352,352,0.2772142942672403,0.3,0.0,0.0,401.0,648.0,1.0,0,81.0,0
353,353,0.3099211550375175,0.3,1.0,1.0,403.0,737.0,0.0,0,-30.0,0
354,354,0.4154215547222436,0.4,0.0,0.0,392.0,759.0,1.0,0,-381.0,0
355,355,-0.15555826156625396,-0.2,0.0,1.0,362.0,967.0,0.0,1,81.0,0
356,356,0.608342802418839,0.6,0.0,0.0,493.0,918.0,1.0,0,-421.0,0
357,357,0.5521196017842666,0.6,1.0,1.0,416.0,869.0,1.0,1,-265.0,1
358,358,0.7235115660283314,0.7,1.0,1.0,316.0,509.0,1.0,1,-335.0,1
359,359,0.3124261546502273,0.3,0.0,0.0,462.0,756.0,1.0,0,-58.0,0
360,360,-0.02993422374009036,-0.0,0.0,1.0,367.0,615.0,1.0,0,-22.0,1
361,361,-0.6251607389450777,-0.6,1.0,0.0,353.0,953.0,1.0,1,-556.0,0
362,362,0.3174399540395557,0.3,0.0,0.0,343.0,555.0,0.0,1,922.0,1
363,363,0.780025030712067,0.8,0.0,0.0,331.0,767.0,1.0,0,-348.0,0
364,364,0.5062830445937166,0.5,0.0,0.0,299.0,988.0,0.0,1,-67.0,1
365,365,0.7151438937133366,0.7,1.0,1.0,402.0,813.0,1.0,1,195.0,1
366,366,0.0961018047568476,0.1,0.0,0.0,357.0,658.0,1.0,0,855.0,0
367,367,-0.5774982034167654,-0.6,0.0,1.0,317.0,847.0,1.0,0,-14.0,1
368,368,-0.25200159371118946,-0.3,0.0,1.0,347.0,933.0,1.0,0,570.0,1
369,369,-0.6437823375275993,-0.6,1.0,0.0,482.0,518.0,1.0,1,50.0,0
370,370,-0.006916737856013655,-0.0,0.0,1.0,420.0,690.0,1.0,0,670.0,1
371,371,-0.10214613757542612,-0.1,1.0,0.0,466.0,537.0,0.0,0,747.0,1
372,372,0.7391901257082988,0.7,0.0,0.0,368.0,507.0,0.0,1,765.0,1
373,373,0.24822550098605778,0.2,1.0,1.0,407.0,998.0,0.0,0,-305.0,0
374,374,-0.04944376151929275,-0.0,1.0,0.0,408.0,974.0,1.0,1,-522.0,0
375,375,-0.4609397255305108,-0.5,0.0,1.0,462.0,716.0,1.0,0,-338.0,1
376,376,0.18553020967071399,0.2,1.0,1.0,466.0,525.0,1.0,1,1859.0,1
377,377,-0.6539264871520736,-0.7,1.0,0.0,335.0,828.0,0.0,0,457.0,1
378,378,-0.7894440476156616,-0.8,0.0,1.0,482.0,941.0,1.0,0,-1213.0,1
379,379,-0.3999166716099283,-0.4,1.0,0.0,483.0,873.0,0.0,0,-196.0,1
380,380,0.35929285731053195,0.4,0.0,0.0,282.0,932.0,1.0,0,6.0,0
381,381,-0.021545753402977263,-0.0,1.0,0.0,471.0,903.0,0.0,0,186.0,1
382,382,0.804801300002621,0.8,0.0,0.0,272.0,585.0,1.0,0,-177.0,0
383,383,0.8356864617327947,0.8,0.0,0.0,381.0,711.0,0.0,1,-532.0,1
384,384,-0.665299966144284,-0.7,1.0,0.0,478.0,949.0,0.0,0,303.0,1
385,385,0.6098579133562628,0.6,1.0,1.0,374.0,607.0,1.0,1,29.0,1
386,386,0.7749243901011894,0.8,1.0,1.0,371.0,562.0,0.0,0,-193.0,0
387,387,0.5237597748605197,0.5,1.0,1.0,420.0,506.0,1.0,1,-336.0,1
388,388,-0.6293574273922184,-0.6,1.0,0.0,388.0,852.0,1.0,1,-110.0,0
389,389,-0.2519274172425219,-0.3,1.0,0.0,402.0,714.0,1.0,1,304.0,0
390,390,-0.4181215935628143,-0.4,1.0,0.0,293.0,641.0,0.0,0,956.0,1
391,391,0.28558368101762854,0.3,1.0,1.0,373.0,574.0,1.0,1,-127.0,1
392,392,-0.3583683655083286,-0.4,0.0,1.0,374.0,603.0,1.0,0,1573.0,1
393,393,0.8249699744188773,0.8,1.0,1.0,368.0,748.0,1.0,1,434.0,1
394,394,-0.3418958764492276,-0.3,1.0,0.0,338.0,790.0,0.0,0,1062.0,1
395,395,0.8555076566267118,0.9,1.0,1.0,292.0,802.0,1.0,1,446.0,1
396,396,-0.7160691173714884,-0.7,1.0,0.0,274.0,619.0,1.0,1,7.0,0
397,397,0.8369473017661712,0.8,1.0,1.0,483.0,695.0,1.0,1,562.0,1
398,398,0.14876471714815553,0.1,1.0,1.0,295.0,904.0,1.0,1,51.0,1
399,399,-0.4128461997469484,-0.4,0.0,1.0,344.0,689.0,1.0,0,547.0,1
400,400,-0.8434131800752547,-0.8,0.0,1.0,372.0,668.0,1.0,0,-420.0,1
401,401,-0.7749432163620695,-0.8,0.0,1.0,489.0,762.0,1.0,0,249.0,1
402,402,0.5841863202074874,0.6,1.0,1.0,435.0,635.0,0.0,0,-40.0,0
403,403,-0.41440507668515186,-0.4,1.0,0.0,291.0,632.0,1.0,1,-3.0,0
404,404,-0.8092753622379456,-0.8,0.0,1.0,340.0,581.0,1.0,0,-341.0,1
405,405,-0.20156635014092117,-0.2,1.0,0.0,280.0,931.0,1.0,1,-451.0,0
406,406,0.14583206617295874,0.1,1.0,1.0,410.0,584.0,1.0,1,556.0,1
407,407,-0.21480813252043585,-0.2,1.0,0.0,273.0,608.0,0.0,0,479.0,1
408,408,-0.045155832669690255,-0.0,1.0,0.0,337.0,584.0,1.0,1,-161.0,0
409,409,0.37889059336559294,0.4,1.0,1.0,470.0,570.0,0.0,0,-100.0,0
410,410,0.5261534730699774,0.5,0.0,0.0,286.0,889.0,0.0,1,2415.0,1
411,411,-0.0026991473268733746,-0.0,0.0,1.0,251.0,672.0,0.0,1,-73.0,0
412,412,0.03708864752097041,0.0,1.0,1.0,382.0,820.0,0.0,0,128.0,0
413,413,0.8938289092580892,0.9,1.0,1.0,291.0,515.0,0.0,0,-6.0,0
414,414,0.5394764891010401,0.5,0.0,0.0,451.0,730.0,1.0,0,719.0,0
415,415,-0.37380917557650517,-0.4,0.0,1.0,301.0,763.0,0.0,1,16.0,0
416,416,-0.16031590225806813,-0.2,0.0,1.0,413.0,954.0,1.0,0,-337.0,1
417,417,-0.2696026155250767,-0.3,0.0,1.0,409.0,649.0,1.0,0,222.0,1
418,418,-0.8461594573863742,-0.8,1.0,0.0,469.0,990.0,0.0,0,111.0,1
419,419,-0.8323939717500993,-0.8,1.0,0.0,338.0,713.0,0.0,0,119.0,1
420,420,-0.6326813021833382,-0.6,1.0,0.0,278.0,810.0,1.0,1,-328.0,0
421,421,-0.46007637141393926,-0.5,0.0,1.0,256.0,624.0,1.0,0,-280.0,1
422,422,0.4386368024032753,0.4,1.0,1.0,295.0,824.0,1.0,1,-1069.0,1
423,423,-0.7860915392848346,-0.8,0.0,1.0,310.0,823.0,1.0,0,-373.0,1
424,424,0.6761012245147441,0.7,1.0,1.0,391.0,511.0,1.0,1,-502.0,1
425,425,-0.1033156535752019,-0.1,0.0,1.0,375.0,707.0,0.0,1,58.0,0
426,426,-0.06433045443606156,-0.1,0.0,1.0,283.0,808.0,0.0,1,589.0,0
427,427,-0.03710736919966673,-0.0,0.0,1.0,372.0,698.0,1.0,0,180.0,1
428,428,0.4130342662508607,0.4,0.0,0.0,277.0,683.0,1.0,0,-910.0,0
429,429,0.4178485361691481,0.4,1.0,1.0,358.0,570.0,1.0,1,92.0,1
430,430,0.11018175652358397,0.1,1.0,1.0,283.0,510.0,1.0,1,227.0,1
431,431,-0.05842199676437343,-0.1,1.0,0.0,345.0,573.0,0.0,0,252.0,1
432,432,0.30945359237522607,0.3,1.0,1.0,302.0,958.0,1.0,1,80.0,1
433,433,0.8420221556109896,0.8,1.0,1.0,318.0,859.0,1.0,1,-947.0,1
434,434,0.21197313057179146,0.2,0.0,0.0,291.0,930.0,1.0,0,-101.0,0
435,435,0.39066784699500123,0.4,1.0,1.0,457.0,921.0,1.0,1,522.0,1
436,436,-0.17961828727874107,-0.2,1.0,0.0,309.0,806.0,0.0,0,105.0,1
437,437,-0.359784714770654,-0.4,0.0,1.0,366.0,779.0,1.0,0,-115.0,1
438,438,0.11720187583928021,0.1,0.0,0.0,461.0,783.0,1.0,0,-174.0,0
439,439,0.0018452948406072478,0.0,0.0,0.0,455.0,703.0,1.0,0,682.0,0
440,440,0.05423303001840929,0.1,1.0,1.0,433.0,816.0,1.0,1,601.0,1
441,441,0.46001642263389864,0.5,0.0,0.0,342.0,996.0,1.0,0,-558.0,0
442,442,-0.10317901795168327,-0.1,1.0,0.0,317.0,880.0,0.0,0,-157.0,1
443,443,-0.6483969180460976,-0.6,0.0,1.0,260.0,860.0,1.0,0,340.0,1
444,444,-0.40719032927181914,-0.4,0.0,1.0,491.0,939.0,1.0,0,70.0,1
445,445,-0.21313317728705639,-0.2,1.0,0.0,436.0,653.0,1.0,1,-19.0,0
446,446,-0.8679984342760753,-0.9,1.0,0.0,258.0,792.0,0.0,0,230.0,1
447,447,0.018504877573833678,0.0,0.0,0.0,409.0,562.0,1.0,0,729.0,0
448,448,-0.7550976374644593,-0.8,1.0,0.0,421.0,804.0,0.0,0,265.0,1
449,449,-0.5334177206983837,-0.5,1.0,0.0,460.0,737.0,0.0,0,253.0,1
450,450,-0.05552967418709043,-0.1,0.0,1.0,453.0,625.0,1.0,0,132.0,1
451,451,0.2779938617701706,0.3,0.0,0.0,452.0,795.0,1.0,0,823.0,0
452,452,0.40039591025855026,0.4,0.0,0.0,329.0,764.0,1.0,0,-313.0,0
453,453,0.7841138937583924,0.8,0.0,0.0,391.0,830.0,1.0,0,-131.0,0
454,454,-0.8640609603908848,-0.9,0.0,1.0,300.0,603.0,1.0,0,-43.0,1
455,455,0.8206852798629204,0.8,1.0,1.0,257.0,981.0,0.0,0,-248.0,0
456,456,0.4304012020105946,0.4,0.0,0.0,490.0,606.0,0.0,1,1304.0,1
457,457,0.34777745171594454,0.3,1.0,1.0,412.0,900.0,0.0,0,-312.0,0
458,458,0.45025558705183266,0.5,0.0,0.0,341.0,708.0,1.0,0,1031.0,0
459,459,-0.8976326425438103,-0.9,1.0,0.0,281.0,919.0,0.0,0,-550.0,1
460,460,0.21809703200748454,0.2,1.0,1.0,486.0,712.0,1.0,1,-308.0,1
461,461,0.10820234593340639,0.1,0.0,0.0,354.0,910.0,0.0,1,-304.0,1
462,462,-0.30075470456699205,-0.3,0.0,1.0,475.0,589.0,1.0,0,206.0,1
463,463,-0.3387686455307328,-0.3,1.0,0.0,308.0,500.0,0.0,0,1082.0,1
464,464,0.7535768130701826,0.8,1.0,1.0,479.0,602.0,1.0,1,699.0,1
465,465,0.8819626365794394,0.9,1.0,1.0,421.0,594.0,1.0,1,295.0,1
466,466,-0.19482077045855106,-0.2,1.0,0.0,390.0,976.0,0.0,0,-86.0,1
467,467,0.4626353318499402,0.5,0.0,0.0,348.0,887.0,0.0,1,-105.0,1
468,468,0.03151405987260625,0.0,1.0,1.0,397.0,785.0,0.0,0,958.0,0
469,469,-0.2691082304775524,-0.3,1.0,0.0,362.0,975.0,1.0,1,23.0,0
470,470,0.5154081307385457,0.5,0.0,0.0,264.0,569.0,0.0,1,737.0,1
471,471,0.4545896644736277,0.5,0.0,0.0,497.0,992.0,0.0,1,61.0,1
472,472,-0.2182332656691035,-0.2,0.0,1.0,431.0,897.0,1.0,0,-28.0,1
473,473,0.6419793416769547,0.6,1.0,1.0,378.0,600.0,1.0,1,602.0,1
474,474,0.7555621429838114,0.8,0.0,0.0,374.0,924.0,1.0,0,-658.0,0
475,475,0.011382959870774645,0.0,0.0,0.0,452.0,948.0,1.0,0,380.0,0
476,476,0.16180373651771263,0.2,0.0,0.0,470.0,519.0,0.0,1,1661.0,1
477,477,-0.4371183669113515,-0.4,0.0,1.0,404.0,678.0,1.0,0,168.0,1
478,478,-0.14531542021700639,-0.1,1.0,0.0,406.0,782.0,0.0,0,2172.0,1
479,479,0.0012797326099213135,0.0,0.0,0.0,318.0,875.0,1.0,0,147.0,0
480,480,0.7523998586065593,0.8,1.0,1.0,382.0,621.0,1.0,1,37.0,1
481,481,0.2144707514707921,0.2,0.0,0.0,396.0,980.0,1.0,0,474.0,0
482,482,0.5018927734145723,0.5,0.0,0.0,482.0,706.0,1.0,0,-288.0,0
483,483,0.018971234972065987,0.0,1.0,1.0,336.0,513.0,1.0,1,1711.0,1
484,484,-0.86579169963056,-0.9,1.0,0.0,317.0,631.0,0.0,0,172.0,1
485,485,0.5859511451782858,0.6,0.0,0.0,412.0,946.0,1.0,0,-78.0,0
486,486,0.023485948783464328,0.0,1.0,1.0,282.0,528.0,1.0,1,510.0,1
487,487,0.28175782310503095,0.3,1.0,1.0,309.0,682.0,1.0,1,509.0,1
488,488,0.17629149895282026,0.2,1.0,1.0,430.0,609.0,1.0,1,171.0,1
489,489,-0.20743470472413672,-0.2,0.0,1.0,322.0,588.0,1.0,0,290.0,1
490,490,-0.5147998298952303,-0.5,0.0,1.0,400.0,713.0,0.0,1,-433.0,0
491,491,0.8057708583358157,0.8,1.0,1.0,411.0,779.0,1.0,1,20.0,1
492,492,-0.837376333556032,-0.8,1.0,0.0,251.0,589.0,0.0,0,30.0,1
493,493,-0.6742453037242928,-0.7,1.0,0.0,261.0,995.0,1.0,1,-306.0,0
494,494,-0.8107072806338456,-0.8,0.0,1.0,272.0,682.0,1.0,0,576.0,1
495,495,-0.4675034797320339,-0.5,0.0,1.0,296.0,755.0,0.0,1,49.0,0
496,496,-0.20743247760154437,-0.2,1.0,0.0,424.0,730.0,0.0,0,-324.0,1
497,497,-0.8527542597123093,-0.9,1.0,0.0,330.0,981.0,0.0,0,219.0,1
498,498,-0.5087103431878207,-0.5,1.0,0.0,353.0,897.0,1.0,1,-40.0,0
499,499,-0.002023412430334326,-0.0,1.0,0.0,416.0,778.0,1.0,1,-424.0,0
500,500,0.4263113249813538,0.4,0.0,0.0,426.0,582.0,0.0,1,-208.0,1
501,501,-0.44731164652392535,-0.4,0.0,1.0,388.0,885.0,1.0,0,697.0,1
502,502,0.8162632380565465,0.8,0.0,0.0,470.0,641.0,1.0,0,-41.0,0
503,503,0.3814885431715168,0.4,0.0,0.0,252.0,546.0,1.0,0,-318.0,0
504,504,0.7337919337075475,0.7,1.0,1.0,266.0,836.0,0.0,0,-172.0,0
505,505,0.2656763639996548,0.3,0.0,0.0,487.0,751.0,0.0,1,912.0,1
506,506,0.5488772390248623,0.5,1.0,1.0,277.0,597.0,1.0,1,196.0,1
507,507,0.33385872277227946,0.3,0.0,0.0,407.0,686.0,1.0,0,-33.0,0
508,508,-0.6368649095738976,-0.6,1.0,0.0,494.0,949.0,0.0,0,847.0,1
509,509,0.7611684542240685,0.8,1.0,1.0,289.0,561.0,1.0,1,20.0,1
510,510,0.6005215626049482,0.6,0.0,0.0,295.0,873.0,0.0,1,-658.0,1
511,511,0.6870073884449307,0.7,1.0,1.0,486.0,777.0,1.0,1,377.0,1
512,512,-0.12286973942680002,-0.1,1.0,0.0,271.0,781.0,1.0,1,-32.0,0
513,513,0.1204879434363414,0.1,1.0,1.0,472.0,775.0,0.0,0,13.0,0
514,514,0.6765899606077236,0.7,0.0,0.0,341.0,521.0,0.0,1,-202.0,1
515,515,-0.8187345972887254,-0.8,1.0,0.0,281.0,553.0,0.0,0,146.0,1
516,516,0.7580297120016232,0.8,0.0,0.0,322.0,594.0,1.0,0,-6.0,0
517,517,0.881614771038196,0.9,0.0,0.0,258.0,795.0,0.0,1,-173.0,1
518,518,0.6638302669785058,0.7,0.0,0.0,348.0,556.0,0.0,1,-94.0,1
519,519,-0.7655707996057562,-0.8,1.0,0.0,256.0,706.0,1.0,1,-182.0,0
520,520,-0.7638891267665479,-0.8,1.0,0.0,291.0,696.0,0.0,0,463.0,1
521,521,0.29839858932056307,0.3,0.0,0.0,410.0,838.0,1.0,0,12.0,0
522,522,0.28149878294628794,0.3,0.0,0.0,271.0,534.0,1.0,0,-285.0,0
523,523,0.22499397978746793,0.2,0.0,0.0,331.0,580.0,0.0,1,-71.0,1
524,524,-0.33082023352273215,-0.3,0.0,1.0,289.0,518.0,1.0,0,-297.0,1
525,525,0.4273809622713115,0.4,0.0,0.0,297.0,691.0,1.0,0,-188.0,0
526,526,-0.01000803589375443,-0.0,1.0,0.0,424.0,967.0,0.0,0,-351.0,1
527,527,-0.2661141081019419,-0.3,1.0,0.0,363.0,875.0,1.0,1,-608.0,0
528,528,-0.808325755605702,-0.8,0.0,1.0,437.0,602.0,1.0,0,21.0,1
529,529,-0.3766917286924931,-0.4,0.0,1.0,493.0,839.0,1.0,0,438.0,1
530,530,0.6341420742599188,0.6,0.0,0.0,309.0,960.0,1.0,0,-419.0,0
531,531,-0.3744295870140827,-0.4,0.0,1.0,438.0,871.0,1.0,0,21.0,1
532,532,0.6367648634962407,0.6,1.0,1.0,318.0,974.0,1.0,1,448.0,1
533,533,0.713518812121081,0.7,0.0,0.0,487.0,969.0,1.0,0,-116.0,0
534,534,0.8739497580298882,0.9,1.0,1.0,253.0,597.0,0.0,0,-150.0,0
535,535,0.22616481675430566,0.2,0.0,0.0,367.0,971.0,1.0,0,172.0,0
536,536,-0.35473675663105,-0.4,1.0,0.0,400.0,693.0,1.0,1,1747.0,0
537,537,-0.8337665771669578,-0.8,0.0,1.0,326.0,914.0,1.0,0,-480.0,1
538,538,-0.6781366830222068,-0.7,1.0,0.0,421.0,747.0,1.0,1,-298.0,0
539,539,-0.10211214118472456,-0.1,0.0,1.0,385.0,915.0,1.0,0,480.0,1
540,540,0.6941426562290113,0.7,1.0,1.0,350.0,581.0,1.0,1,559.0,1
541,541,0.0574437072508347,0.1,0.0,0.0,392.0,522.0,1.0,0,456.0,0
542,542,-0.21998992728084465,-0.2,0.0,1.0,331.0,691.0,1.0,0,78.0,1
543,543,0.504282159894076,0.5,1.0,1.0,288.0,895.0,1.0,1,17.0,1
544,544,-0.31732974503635314,-0.3,0.0,1.0,452.0,519.0,1.0,0,149.0,1
545,545,-0.07874332226606029,-0.1,1.0,0.0,326.0,664.0,0.0,0,-230.0,1
546,546,0.578280433578053,0.6,1.0,1.0,323.0,785.0,0.0,0,-288.0,0
547,547,0.3331957581214725,0.3,1.0,1.0,475.0,797.0,1.0,1,718.0,1
548,548,-0.337956034284002,-0.3,0.0,1.0,305.0,826.0,1.0,0,149.0,1
549,549,0.029561296565963624,0.0,0.0,0.0,427.0,687.0,1.0,0,136.0,0
550,550,0.583168388257571,0.6,0.0,0.0,431.0,563.0,0.0,1,366.0,1
551,551,0.6454643226544176,0.6,0.0,0.0,328.0,520.0,0.0,1,1162.0,1
552,552,-0.7782551412414294,-0.8,1.0,0.0,351.0,711.0,1.0,1,-362.0,0
553,553,0.6146335416552396,0.6,0.0,0.0,353.0,744.0,1.0,0,553.0,0
554,554,0.3525810461122626,0.4,0.0,0.0,341.0,994.0,1.0,0,-335.0,0
555,555,-0.3399336723724544,-0.3,1.0,0.0,349.0,755.0,0.0,0,106.0,1
556,556,0.02348502336147973,0.0,0.0,0.0,303.0,843.0,1.0,0,-486.0,0
557,557,-0.5621934938904841,-0.6,1.0,0.0,257.0,976.0,0.0,0,217.0,1
558,558,0.5076786196647877,0.5,0.0,0.0,327.0,711.0,1.0,0,-68.0,0
559,559,0.4088764846777634,0.4,1.0,1.0,410.0,762.0,1.0,1,28.0,1
560,560,0.018680030984545182,0.0,0.0,0.0,442.0,531.0,1.0,0,397.0,0
561,561,-0.5997782587006202,-0.6,1.0,0.0,303.0,740.0,1.0,1,-323.0,0
562,562,0.7693240236650835,0.8,1.0,1.0,424.0,539.0,1.0,1,67.0,1
563,563,-0.8138795746057256,-0.8,0.0,1.0,474.0,512.0,1.0,0,84.0,1
564,564,0.8057772161810758,0.8,0.0,0.0,299.0,588.0,0.0,1,543.0,1
565,565,-0.22080128001527521,-0.2,0.0,1.0,284.0,791.0,0.0,1,565.0,0
566,566,0.29210172858358907,0.3,1.0,1.0,281.0,918.0,1.0,1,1531.0,1
567,567,-0.3355192936566088,-0.3,1.0,0.0,347.0,874.0,0.0,0,9.0,1
568,568,0.5558670864856229,0.6,0.0,0.0,498.0,623.0,0.0,1,479.0,1
569,569,-0.8622173812321302,-0.9,1.0,0.0,304.0,820.0,0.0,0,226.0,1
570,570,0.4707892234150718,0.5,1.0,1.0,334.0,893.0,0.0,0,63.0,0
571,571,0.8267701290518016,0.8,1.0,1.0,494.0,779.0,1.0,1,127.0,1
572,572,0.4479200488835905,0.4,1.0,1.0,424.0,791.0,1.0,1,55.0,1
573,573,-0.36112399172387055,-0.4,0.0,1.0,460.0,544.0,0.0,1,-34.0,0
574,574,-0.11440155654209327,-0.1,1.0,0.0,304.0,548.0,1.0,1,588.0,0
575,575,0.20084165632123308,0.2,1.0,1.0,281.0,701.0,1.0,1,-222.0,1
576,576,-0.410723905359317,-0.4,0.0,1.0,252.0,657.0,1.0,0,1491.0,1
577,577,0.4003461730174701,0.4,0.0,0.0,381.0,662.0,0.0,1,337.0,1
578,578,-0.6996201516986335,-0.7,1.0,0.0,310.0,943.0,0.0,0,607.0,1
579,579,0.3845315039232359,0.4,1.0,1.0,364.0,798.0,1.0,1,598.0,1
580,580,0.2578243948891491,0.3,1.0,1.0,277.0,751.0,0.0,0,-58.0,0
581,581,0.011821965920944755,0.0,1.0,1.0,312.0,554.0,0.0,0,-166.0,0
582,582,0.8213288499194918,0.8,0.0,0.0,326.0,591.0,0.0,1,203.0,1
583,583,0.7810836519990102,0.8,0.0,0.0,282.0,891.0,0.0,1,787.0,1
584,584,0.8466114440806419,0.8,0.0,0.0,366.0,702.0,0.0,1,212.0,1
585,585,0.31039407816800313,0.3,0.0,0.0,309.0,792.0,1.0,0,-521.0,0
586,586,0.7995396958213802,0.8,1.0,1.0,305.0,979.0,1.0,1,-374.0,1
587,587,-0.42381315942585646,-0.4,1.0,0.0,418.0,614.0,1.0,1,-152.0,0
588,588,-0.592305565509591,-0.6,1.0,0.0,340.0,636.0,0.0,0,-126.0,1
589,589,-0.07287758827424151,-0.1,1.0,0.0,277.0,673.0,1.0,1,-270.0,0
590,590,-0.2590144509642853,-0.3,1.0,0.0,441.0,501.0,0.0,0,-32.0,1
591,591,-0.8458048854438927,-0.8,1.0,0.0,313.0,643.0,0.0,0,54.0,1
592,592,-0.30037458133179507,-0.3,1.0,0.0,255.0,895.0,0.0,0,1190.0,1
593,593,0.4979089836784997,0.5,0.0,0.0,255.0,509.0,0.0,1,196.0,1
594,594,-0.475041392292134,-0.5,0.0,1.0,424.0,883.0,1.0,0,-717.0,1
595,595,-0.5133176430919746,-0.5,0.0,1.0,363.0,999.0,1.0,0,-572.0,1
596,596,0.1058952502383369,0.1,1.0,1.0,424.0,967.0,0.0,0,-411.0,0
597,597,-0.25004234569691663,-0.3,0.0,1.0,442.0,958.0,1.0,0,-410.0,1
598,598,0.31172130727924563,0.3,1.0,1.0,320.0,727.0,0.0,0,213.0,0
599,599,-0.10710458125917843,-0.1,0.0,1.0,434.0,686.0,1.0,0,790.0,1
600,600,-0.7039224958896074,-0.7,1.0,0.0,458.0,813.0,0.0,0,249.0,1
601,601,0.7323237682270266,0.7,0.0,0.0,483.0,592.0,0.0,1,295.0,1
602,602,0.5495485328030206,0.5,1.0,1.0,298.0,548.0,1.0,1,34.0,1
603,603,-0.8102131294114593,-0.8,0.0,1.0,277.0,990.0,1.0,0,683.0,1
604,604,0.21248139246535092,0.2,1.0,1.0,321.0,789.0,0.0,0,-10.0,0
605,605,0.02455964881040884,0.0,1.0,1.0,458.0,644.0,1.0,1,328.0,1
606,606,0.5214378263614329,0.5,1.0,1.0,409.0,830.0,1.0,1,-199.0,1
607,607,-0.689671895498372,-0.7,0.0,1.0,275.0,654.0,1.0,0,-79.0,1
608,608,-0.5060312084334118,-0.5,0.0,1.0,465.0,598.0,1.0,0,77.0,1
609,609,0.6218880391507303,0.6,0.0,0.0,307.0,714.0,1.0,0,-61.0,0
610,610,-0.8270786530166385,-0.8,1.0,0.0,446.0,871.0,0.0,0,493.0,1
611,611,0.2810423854770391,0.3,1.0,1.0,390.0,620.0,1.0,1,-30.0,1
612,612,-0.46116852150897003,-0.5,1.0,0.0,331.0,918.0,1.0,1,-79.0,0
613,613,0.6498527576215317,0.6,1.0,1.0,296.0,764.0,1.0,1,520.0,1
614,614,-0.14314420902881175,-0.1,1.0,0.0,299.0,957.0,1.0,1,284.0,0
615,615,-0.6377266937682781,-0.6,1.0,0.0,276.0,671.0,1.0,1,-37.0,0
616,616,-0.7886201397464556,-0.8,1.0,0.0,251.0,736.0,1.0,1,-47.0,0
617,617,0.21871376238727336,0.2,1.0,1.0,441.0,728.0,1.0,1,-439.0,1
618,618,0.10701531503279982,0.1,1.0,1.0,261.0,891.0,0.0,0,-112.0,0
619,619,-0.5970976954479377,-0.6,0.0,1.0,387.0,548.0,1.0,0,795.0,1
620,620,0.5558514163612881,0.6,0.0,0.0,287.0,907.0,0.0,1,-554.0,1
621,621,0.23654820322881542,0.2,0.0,0.0,494.0,739.0,1.0,0,-413.0,0
622,622,0.13581379791640102,0.1,1.0,1.0,299.0,813.0,1.0,1,-312.0,1
623,623,0.2548961005269409,0.3,1.0,1.0,495.0,711.0,1.0,1,-186.0,1
624,624,0.7822241888039007,0.8,1.0,1.0,336.0,848.0,0.0,0,-504.0,0
625,625,-0.0146950519772574,-0.0,0.0,1.0,314.0,827.0,1.0,0,-231.0,1
626,626,-0.4139853796072393,-0.4,0.0,1.0,330.0,520.0,1.0,0,100.0,1
627,627,0.6542491102148166,0.7,0.0,0.0,271.0,501.0,0.0,1,728.0,1
628,628,0.16537333620473527,0.2,1.0,1.0,491.0,944.0,1.0,1,-395.0,1
629,629,-0.8845810064624189,-0.9,1.0,0.0,360.0,763.0,0.0,0,267.0,1
630,630,0.27372056444872517,0.3,1.0,1.0,496.0,793.0,1.0,1,771.0,1
631,631,-0.7204077259235272,-0.7,0.0,1.0,397.0,855.0,1.0,0,-22.0,1
632,632,0.5803994483453733,0.6,1.0,1.0,371.0,545.0,0.0,0,-206.0,0
633,633,-0.7860814227805483,-0.8,1.0,0.0,477.0,808.0,0.0,0,65.0,1
634,634,-0.4870106884627041,-0.5,1.0,0.0,488.0,672.0,0.0,0,430.0,1
635,635,-0.017253607148781547,-0.0,1.0,0.0,413.0,547.0,1.0,1,460.0,0
636,636,-0.8590220341418183,-0.9,0.0,1.0,264.0,980.0,1.0,0,146.0,1
637,637,0.01236938199631632,0.0,0.0,0.0,368.0,911.0,0.0,1,-419.0,1
638,638,-0.14298906134902312,-0.1,0.0,1.0,447.0,575.0,0.0,1,508.0,0
639,639,0.4651584736661386,0.5,0.0,0.0,416.0,765.0,1.0,0,49.0,0
640,640,-0.4371477016408801,-0.4,1.0,0.0,253.0,727.0,0.0,0,-350.0,1
641,641,0.6027957826860105,0.6,1.0,1.0,440.0,925.0,1.0,1,-475.0,1
642,642,0.4849138791861066,0.5,1.0,1.0,490.0,694.0,1.0,1,-804.0,1
643,643,-0.728402778226869,-0.7,0.0,1.0,311.0,863.0,1.0,0,446.0,1
644,644,-0.49946623738513407,-0.5,0.0,1.0,349.0,512.0,0.0,1,379.0,0
645,645,-0.20231543734320812,-0.2,0.0,1.0,457.0,737.0,0.0,1,-184.0,0
646,646,0.6938398040967416,0.7,1.0,1.0,403.0,935.0,1.0,1,-258.0,1
647,647,0.7706105271604003,0.8,0.0,0.0,316.0,597.0,0.0,1,527.0,1
648,648,0.7592238183192953,0.8,1.0,1.0,338.0,817.0,0.0,0,-15.0,0
649,649,0.6752357884671608,0.7,1.0,1.0,378.0,882.0,1.0,1,320.0,1
650,650,0.7803390666936382,0.8,1.0,1.0,325.0,638.0,1.0,1,977.0,1
651,651,0.3611654093630653,0.4,1.0,1.0,495.0,595.0,1.0,1,-30.0,1
652,652,-0.22985937864117545,-0.2,0.0,1.0,472.0,787.0,1.0,0,-129.0,1
653,653,-0.21778574700646103,-0.2,0.0,1.0,469.0,798.0,1.0,0,1353.0,1
654,654,-0.4502550031852048,-0.5,0.0,1.0,451.0,513.0,1.0,0,-544.0,1
655,655,-0.3880489543018739,-0.4,1.0,0.0,482.0,965.0,1.0,1,-557.0,0
656,656,-0.19777766192177348,-0.2,1.0,0.0,366.0,523.0,0.0,0,1761.0,1
657,657,0.5608435304934892,0.6,1.0,1.0,306.0,863.0,1.0,1,-249.0,1
658,658,0.844790481236323,0.8,1.0,1.0,277.0,685.0,1.0,1,118.0,1
659,659,-0.7733840409069012,-0.8,0.0,1.0,447.0,930.0,1.0,0,143.0,1
660,660,-0.31170515681315114,-0.3,1.0,0.0,273.0,665.0,0.0,0,92.0,1
661,661,-0.6479307296430953,-0.6,1.0,0.0,251.0,956.0,1.0,1,-537.0,0
662,662,0.8571165690079247,0.9,1.0,1.0,403.0,661.0,1.0,1,-484.0,1
663,663,-0.036264177607186365,-0.0,0.0,1.0,466.0,862.0,1.0,0,112.0,1
664,664,-0.12335543415096217,-0.1,0.0,1.0,329.0,885.0,1.0,0,-1124.0,1
665,665,-0.04317389078803879,-0.0,1.0,0.0,410.0,694.0,0.0,0,2026.0,1
666,666,-0.7809793429701459,-0.8,1.0,0.0,434.0,814.0,0.0,0,132.0,1
667,667,-0.6061351120643135,-0.6,0.0,1.0,288.0,536.0,1.0,0,-104.0,1
668,668,0.05402980710405103,0.1,1.0,1.0,276.0,863.0,0.0,0,-979.0,0
669,669,0.8707550927830278,0.9,1.0,1.0,432.0,779.0,1.0,1,289.0,1
670,670,0.7459762762703591,0.7,0.0,0.0,459.0,794.0,0.0,1,797.0,1
671,671,0.848749679974724,0.8,0.0,0.0,292.0,869.0,1.0,0,-461.0,0
672,672,0.7804481937766498,0.8,0.0,0.0,442.0,698.0,0.0,1,250.0,1
673,673,-0.8605052511158824,-0.9,0.0,1.0,330.0,864.0,0.0,1,36.0,0
674,674,0.04999185671088158,0.0,1.0,1.0,366.0,973.0,0.0,0,-359.0,0
675,675,0.6625704042168085,0.7,1.0,1.0,491.0,837.0,1.0,1,1062.0,1
676,676,-0.16881018134330272,-0.2,1.0,0.0,438.0,979.0,1.0,1,-397.0,0
677,677,0.22811151296581877,0.2,1.0,1.0,281.0,786.0,1.0,1,153.0,1
678,678,0.3078136846266474,0.3,1.0,1.0,488.0,819.0,1.0,1,-327.0,1
679,679,0.2530376428224145,0.3,0.0,0.0,342.0,718.0,1.0,0,1220.0,0
680,680,0.3882810856613287,0.4,1.0,1.0,354.0,997.0,1.0,1,369.0,1
681,681,-0.5707946994395228,-0.6,1.0,0.0,372.0,526.0,1.0,1,-28.0,0
682,682,0.8326999672707055,0.8,1.0,1.0,317.0,730.0,1.0,1,-67.0,1
683,683,0.48396154754241694,0.5,0.0,0.0,489.0,992.0,0.0,1,1199.0,1
684,684,-0.19228282137380048,-0.2,0.0,1.0,438.0,906.0,1.0,0,-614.0,1
685,685,0.19052723737858612,0.2,0.0,0.0,261.0,860.0,1.0,0,-91.0,0
686,686,-0.736268856705736,-0.7,1.0,0.0,467.0,594.0,1.0,1,39.0,0
687,687,0.009420346493157483,0.0,0.0,0.0,397.0,708.0,1.0,0,-445.0,0
688,688,-0.036411328914191854,-0.0,0.0,1.0,287.0,955.0,1.0,0,-152.0,1
689,689,-0.091076782314637,-0.1,1.0,0.0,498.0,525.0,1.0,1,137.0,0
690,690,0.14104754738458858,0.1,0.0,0.0,451.0,860.0,1.0,0,-81.0,0
691,691,-0.5238866365803354,-0.5,1.0,0.0,331.0,734.0,0.0,0,225.0,1
692,692,-0.42093519065723306,-0.4,1.0,0.0,427.0,590.0,0.0,0,53.0,1
693,693,-0.5808910852302694,-0.6,0.0,1.0,373.0,984.0,1.0,0,3.0,1
694,694,0.57987146089933,0.6,1.0,1.0,394.0,552.0,1.0,1,294.0,1
695,695,0.43873726958271264,0.4,0.0,0.0,442.0,744.0,0.0,1,1574.0,1
696,696,-0.5827652920973921,-0.6,1.0,0.0,297.0,955.0,1.0,1,-42.0,0
697,697,0.1516125699142773,0.2,1.0,1.0,453.0,986.0,0.0,0,-679.0,0
698,698,0.014675987230042153,0.0,0.0,0.0,381.0,771.0,1.0,0,-112.0,0
699,699,0.5435946579282281,0.5,0.0,0.0,404.0,559.0,1.0,0,-53.0,0
700,700,0.4781998004805156,0.5,1.0,1.0,286.0,937.0,0.0,0,-293.0,0
701,701,-0.5939363128984805,-0.6,1.0,0.0,349.0,663.0,0.0,0,328.0,1
702,702,-0.11978447914149826,-0.1,1.0,0.0,274.0,598.0,0.0,0,708.0,1
703,703,-0.3874649840294877,-0.4,0.0,1.0,271.0,748.0,1.0,0,381.0,1
704,704,0.3287458644857638,0.3,1.0,1.0,459.0,927.0,0.0,0,-186.0,0
705,705,-0.5059878202855028,-0.5,1.0,0.0,382.0,750.0,0.0,0,108.0,1
706,706,0.8708373936447845,0.9,1.0,1.0,345.0,622.0,1.0,1,603.0,1
707,707,-0.2471167958196412,-0.2,0.0,1.0,277.0,558.0,0.0,1,355.0,0
708,708,-0.08377141428775992,-0.1,0.0,1.0,335.0,685.0,1.0,0,180.0,1
709,709,-0.04718052683966745,-0.0,1.0,0.0,381.0,741.0,1.0,1,648.0,0
710,710,0.36081155471840953,0.4,1.0,1.0,489.0,567.0,1.0,1,414.0,1
711,711,0.611106935720361,0.6,0.0,0.0,428.0,888.0,0.0,1,454.0,1
712,712,0.11280807847064633,0.1,0.0,0.0,440.0,823.0,0.0,1,907.0,1
713,713,-0.03693757081875482,-0.0,0.0,1.0,445.0,827.0,1.0,0,-332.0,1
714,714,-0.8797989486286758,-0.9,0.0,1.0,296.0,561.0,1.0,0,553.0,1
715,715,0.7441904344387892,0.7,1.0,1.0,482.0,852.0,1.0,1,776.0,1
716,716,-0.4630005810261181,-0.5,0.0,1.0,482.0,626.0,1.0,0,582.0,1
717,717,0.20664789968125297,0.2,0.0,0.0,365.0,816.0,0.0,1,-201.0,1
718,718,-0.061037826812359586,-0.1,0.0,1.0,272.0,966.0,1.0,0,992.0,1
719,719,0.17709572127849948,0.2,1.0,1.0,346.0,820.0,1.0,1,734.0,1
720,720,-0.30943151803757296,-0.3,0.0,1.0,322.0,961.0,1.0,0,917.0,1
721,721,-0.16249278836686576,-0.2,0.0,1.0,458.0,527.0,1.0,0,705.0,1
722,722,-0.5063611099047065,-0.5,1.0,0.0,406.0,579.0,0.0,0,65.0,1
723,723,0.37398174173860455,0.4,1.0,1.0,313.0,998.0,0.0,0,-771.0,0
724,724,0.4645175599231476,0.5,0.0,0.0,474.0,578.0,1.0,0,598.0,0
725,725,0.15360818004845644,0.2,1.0,1.0,433.0,714.0,1.0,1,363.0,1
726,726,-0.003343306069042984,-0.0,0.0,1.0,250.0,559.0,0.0,1,-79.0,0
727,727,-0.8609624562500346,-0.9,0.0,1.0,262.0,677.0,1.0,0,-289.0,1
728,728,-0.8288609706237994,-0.8,1.0,0.0,258.0,937.0,1.0,1,-515.0,0
729,729,0.4425884571474298,0.4,0.0,0.0,493.0,647.0,0.0,1,400.0,1
730,730,-0.0257528190352041,-0.0,1.0,0.0,321.0,904.0,1.0,1,-915.0,0
731,731,0.47767648525476225,0.5,0.0,0.0,319.0,659.0,0.0,1,1512.0,1
732,732,0.4967466486171438,0.5,0.0,0.0,355.0,558.0,0.0,1,687.0,1
733,733,-0.09554302020419791,-0.1,1.0,0.0,490.0,702.0,1.0,1,1258.0,0
734,734,-0.48831765673044725,-0.5,0.0,1.0,298.0,831.0,1.0,0,-139.0,1
735,735,0.28196645177792157,0.3,1.0,1.0,287.0,826.0,0.0,0,327.0,0
736,736,-0.29200596619084285,-0.3,0.0,1.0,261.0,875.0,1.0,0,-376.0,1
737,737,-0.36369723542615595,-0.4,0.0,1.0,342.0,918.0,1.0,0,50.0,1
738,738,0.8856631197140613,0.9,0.0,0.0,420.0,582.0,0.0,1,348.0,1
739,739,0.8899658758996741,0.9,1.0,1.0,363.0,673.0,1.0,1,144.0,1
740,740,-0.6223939719223661,-0.6,1.0,0.0,327.0,657.0,0.0,0,286.0,1
741,741,0.15592386077735088,0.2,0.0,0.0,348.0,699.0,1.0,0,-307.0,0
742,742,-0.17834352400690578,-0.2,0.0,1.0,332.0,672.0,1.0,0,786.0,1
743,743,0.20732307733549982,0.2,0.0,0.0,438.0,776.0,1.0,0,-324.0,0
744,744,-0.38884488604940826,-0.4,1.0,0.0,426.0,583.0,0.0,0,461.0,1
745,745,0.7954343353111014,0.8,1.0,1.0,303.0,890.0,1.0,1,-253.0,1
746,746,-0.8710491698251156,-0.9,0.0,1.0,373.0,738.0,1.0,0,-961.0,1
747,747,-0.8422242954844059,-0.8,0.0,1.0,294.0,768.0,1.0,0,-402.0,1
748,748,0.06561541824752226,0.1,1.0,1.0,350.0,628.0,1.0,1,282.0,1
749,749,0.5415141541847092,0.5,1.0,1.0,492.0,515.0,1.0,1,583.0,1
750,750,0.16327374226991853,0.2,1.0,1.0,401.0,590.0,1.0,1,559.0,1
751,751,-0.036025807143686084,-0.0,1.0,0.0,254.0,712.0,1.0,1,-446.0,0
752,752,-0.7102744130390295,-0.7,1.0,0.0,340.0,983.0,1.0,1,-203.0,0
753,753,-0.5464401071871736,-0.5,0.0,1.0,399.0,653.0,1.0,0,278.0,1
754,754,0.087761428426402,0.1,0.0,0.0,484.0,959.0,1.0,0,-473.0,0
755,755,0.48699071987328024,0.5,0.0,0.0,382.0,975.0,1.0,0,-597.0,0
756,756,-0.6518866143125467,-0.7,0.0,1.0,347.0,885.0,1.0,0,-442.0,1
757,757,0.3585287320537972,0.4,1.0,1.0,370.0,600.0,0.0,0,70.0,0
758,758,0.07067152999173965,0.1,1.0,1.0,323.0,757.0,1.0,1,1020.0,1
759,759,0.058765679133699344,0.1,1.0,1.0,426.0,616.0,1.0,1,738.0,1
760,760,0.1519867382417429,0.2,1.0,1.0,360.0,512.0,1.0,1,418.0,1
761,761,-0.2632245508715658,-0.3,1.0,0.0,350.0,650.0,0.0,0,880.0,1
762,762,0.5008407030664285,0.5,0.0,0.0,470.0,784.0,1.0,0,-264.0,0
763,763,0.4980845673682964,0.5,0.0,0.0,384.0,563.0,1.0,0,-87.0,0
764,764,0.06834814982768134,0.1,0.0,0.0,412.0,930.0,0.0,1,-412.0,1
765,765,-0.25760497560729634,-0.3,0.0,1.0,383.0,998.0,1.0,0,89.0,1
766,766,-0.4042277277579462,-0.4,0.0,1.0,294.0,716.0,1.0,0,-390.0,1
767,767,0.478129642859611,0.5,0.0,0.0,384.0,770.0,1.0,0,76.0,0
768,768,0.6694907828699387,0.7,1.0,1.0,377.0,569.0,1.0,1,404.0,1
769,769,-0.6540861420517424,-0.7,0.0,1.0,496.0,875.0,1.0,0,-461.0,1
770,770,0.7298092399060675,0.7,1.0,1.0,453.0,680.0,1.0,1,-383.0,1
771,771,-0.4365698042328287,-0.4,0.0,1.0,370.0,770.0,1.0,0,-50.0,1
772,772,-0.8435591203395043,-0.8,1.0,0.0,320.0,753.0,0.0,0,367.0,1
773,773,-0.5324524504457719,-0.5,0.0,1.0,334.0,858.0,1.0,0,-242.0,1
774,774,0.40812804776819733,0.4,1.0,1.0,283.0,770.0,0.0,0,37.0,0
775,775,-0.48052142130894526,-0.5,1.0,0.0,485.0,871.0,0.0,0,904.0,1
776,776,-0.6158743496169881,-0.6,1.0,0.0,425.0,508.0,0.0,0,297.0,1
777,777,0.7724104987769737,0.8,0.0,0.0,484.0,991.0,1.0,0,125.0,0
778,778,0.3193229896275339,0.3,1.0,1.0,293.0,887.0,1.0,1,-20.0,1
779,779,0.6124277473890202,0.6,1.0,1.0,277.0,606.0,1.0,1,217.0,1
780,780,-0.0990263785634149,-0.1,1.0,0.0,290.0,553.0,1.0,1,-23.0,0
781,781,0.18319548757442827,0.2,0.0,0.0,405.0,955.0,1.0,0,-540.0,0
782,782,0.3295508139333144,0.3,0.0,0.0,305.0,763.0,1.0,0,-18.0,0
783,783,-0.19681580792383468,-0.2,1.0,0.0,433.0,514.0,1.0,1,-157.0,0
784,784,-0.6592237262359502,-0.7,0.0,1.0,369.0,596.0,0.0,1,-145.0,0
785,785,0.27118543130412387,0.3,1.0,1.0,295.0,845.0,1.0,1,390.0,1
786,786,-0.890200747207647,-0.9,0.0,1.0,385.0,559.0,1.0,0,126.0,1
787,787,0.7896135169685999,0.8,0.0,0.0,469.0,691.0,1.0,0,-240.0,0
788,788,0.6640781588538555,0.7,1.0,1.0,307.0,980.0,1.0,1,503.0,1
789,789,-0.44239407277230475,-0.4,1.0,0.0,283.0,598.0,0.0,0,-181.0,1
790,790,-0.42531391297588367,-0.4,1.0,0.0,339.0,956.0,0.0,0,835.0,1
791,791,0.08822843077440456,0.1,1.0,1.0,308.0,896.0,1.0,1,-604.0,1
792,792,0.815093549063093,0.8,1.0,1.0,290.0,725.0,0.0,0,-5.0,0
793,793,-0.07548229639087134,-0.1,1.0,0.0,421.0,955.0,1.0,1,624.0,0
794,794,0.15165257537396049,0.2,1.0,1.0,259.0,870.0,1.0,1,-509.0,1
795,795,0.6490860335293888,0.6,1.0,1.0,476.0,505.0,0.0,0,89.0,0
796,796,-0.4971477265757317,-0.5,1.0,0.0,462.0,938.0,0.0,0,690.0,1
797,797,-0.35472819133477296,-0.4,0.0,1.0,304.0,925.0,0.0,1,-129.0,0
798,798,0.08382668201174448,0.1,1.0,1.0,443.0,860.0,1.0,1,767.0,1
799,799,0.6553306580292934,0.7,0.0,0.0,446.0,612.0,0.0,1,232.0,1
800,800,-0.5949924936729598,-0.6,1.0,0.0,416.0,897.0,0.0,0,1697.0,1
801,801,0.20602995893346787,0.2,1.0,1.0,498.0,978.0,1.0,1,-616.0,1
802,802,0.374562337744606,0.4,0.0,0.0,264.0,998.0,1.0,0,-342.0,0
803,803,-0.5185337503804679,-0.5,0.0,1.0,314.0,545.0,1.0,0,1251.0,1
804,804,-0.8076280067805595,-0.8,1.0,0.0,478.0,914.0,1.0,1,108.0,0
805,805,-0.4063600221707369,-0.4,1.0,0.0,407.0,903.0,1.0,1,-10.0,0
806,806,-0.8502340062844017,-0.9,1.0,0.0,443.0,592.0,0.0,0,105.0,1
807,807,-0.5943596183369027,-0.6,0.0,1.0,390.0,883.0,1.0,0,-263.0,1
808,808,0.23326594417575708,0.2,1.0,1.0,293.0,693.0,1.0,1,-36.0,1
809,809,-0.8360093254283552,-0.8,1.0,0.0,363.0,734.0,1.0,1,-487.0,0
810,810,0.12034171165010477,0.1,1.0,1.0,403.0,931.0,0.0,0,-934.0,0
811,811,-0.2669327662582758,-0.3,1.0,0.0,374.0,753.0,0.0,0,-37.0,1
812,812,-0.6491991845657181,-0.6,0.0,1.0,260.0,569.0,1.0,0,621.0,1
813,813,0.8952307106587486,0.9,1.0,1.0,299.0,513.0,1.0,1,398.0,1
814,814,0.23885411919575394,0.2,1.0,1.0,330.0,975.0,1.0,1,95.0,1
815,815,0.8847719951706486,0.9,0.0,0.0,348.0,544.0,0.0,1,578.0,1
816,816,0.8885737115712066,0.9,1.0,1.0,367.0,932.0,1.0,1,881.0,1
817,817,-0.3321250566294841,-0.3,1.0,0.0,256.0,790.0,1.0,1,474.0,0
818,818,-0.19289320912730779,-0.2,0.0,1.0,431.0,607.0,0.0,1,252.0,0
819,819,0.0307443759366246,0.0,0.0,0.0,423.0,583.0,0.0,1,744.0,1
820,820,-0.4772248550447817,-0.5,0.0,1.0,325.0,979.0,1.0,0,486.0,1
821,821,-0.4173676119395477,-0.4,0.0,1.0,389.0,865.0,1.0,0,-244.0,1
822,822,0.7372050178677702,0.7,0.0,0.0,345.0,635.0,0.0,1,760.0,1
823,823,-0.4289907909473005,-0.4,1.0,0.0,457.0,778.0,0.0,0,565.0,1
824,824,0.6281782925533074,0.6,1.0,1.0,385.0,509.0,1.0,1,776.0,1
825,825,-0.7745996062138409,-0.8,0.0,1.0,331.0,857.0,1.0,0,72.0,1
826,826,0.22854949098432342,0.2,1.0,1.0,487.0,805.0,0.0,0,-192.0,0
827,827,-0.2889910363631001,-0.3,0.0,1.0,266.0,693.0,1.0,0,-199.0,1
828,828,-0.14273033156832815,-0.1,1.0,0.0,298.0,852.0,0.0,0,-100.0,1
829,829,0.46429246091039345,0.5,0.0,0.0,377.0,787.0,0.0,1,-234.0,1
830,830,0.486697983551052,0.5,1.0,1.0,251.0,920.0,1.0,1,-11.0,1
831,831,0.17168480036262312,0.2,0.0,0.0,406.0,552.0,1.0,0,1272.0,0
832,832,-0.7086832623412156,-0.7,1.0,0.0,439.0,743.0,0.0,0,308.0,1
833,833,-0.7082130259777611,-0.7,0.0,1.0,444.0,876.0,1.0,0,-240.0,1
834,834,0.5923507198202035,0.6,0.0,0.0,270.0,835.0,1.0,0,265.0,0
835,835,-0.5837332924950192,-0.6,1.0,0.0,253.0,766.0,0.0,0,1441.0,1
836,836,0.8041826633579584,0.8,0.0,0.0,412.0,594.0,0.0,1,164.0,1
837,837,0.016557083001827566,0.0,0.0,0.0,499.0,626.0,0.0,1,515.0,1
838,838,-0.8974729017228052,-0.9,0.0,1.0,395.0,666.0,1.0,0,-371.0,1
839,839,-0.3848413182264242,-0.4,1.0,0.0,420.0,819.0,0.0,0,921.0,1
840,840,0.2418601579484364,0.2,1.0,1.0,396.0,503.0,1.0,1,1031.0,1
841,841,-0.6782149270013098,-0.7,1.0,0.0,443.0,765.0,1.0,1,-648.0,0
842,842,0.21751748082099287,0.2,0.0,0.0,291.0,524.0,0.0,1,705.0,1
843,843,0.6297454888789235,0.6,0.0,0.0,287.0,911.0,1.0,0,-158.0,0
844,844,0.550223347590921,0.6,1.0,1.0,342.0,979.0,1.0,1,369.0,1
845,845,-0.0965177095003189,-0.1,1.0,0.0,422.0,937.0,1.0,1,1411.0,0
846,846,0.27245486696538646,0.3,0.0,0.0,326.0,992.0,1.0,0,72.0,0
847,847,-0.6925559009645421,-0.7,1.0,0.0,474.0,633.0,0.0,0,263.0,1
848,848,-0.8128020577364807,-0.8,0.0,1.0,490.0,832.0,1.0,0,778.0,1
849,849,-0.40296192023494243,-0.4,1.0,0.0,367.0,872.0,0.0,0,-749.0,1
850,850,-0.6598681871635832,-0.7,1.0,0.0,337.0,913.0,0.0,0,590.0,1
851,851,0.8229183410439579,0.8,1.0,1.0,473.0,647.0,1.0,1,950.0,1
852,852,-0.3603522399467759,-0.4,1.0,0.0,449.0,619.0,1.0,1,822.0,0
853,853,-0.154328188013532,-0.2,1.0,0.0,451.0,800.0,1.0,1,359.0,0
854,854,-0.780036184299732,-0.8,0.0,1.0,280.0,617.0,1.0,0,433.0,1
855,855,-0.1661790683822546,-0.2,0.0,1.0,353.0,648.0,0.0,1,569.0,0
856,856,0.007805567400468227,0.0,1.0,1.0,260.0,891.0,1.0,1,-61.0,1
857,857,0.6715690506365458,0.7,0.0,0.0,402.0,936.0,1.0,0,-338.0,0
858,858,-0.044901280544005995,-0.0,1.0,0.0,449.0,588.0,1.0,1,163.0,0
859,859,0.33527890680527184,0.3,1.0,1.0,491.0,760.0,1.0,1,169.0,1
860,860,-0.024936632298596995,-0.0,0.0,1.0,336.0,682.0,1.0,0,1812.0,1
861,861,0.8691719096539986,0.9,0.0,0.0,360.0,617.0,0.0,1,173.0,1
862,862,-0.5053307718765467,-0.5,0.0,1.0,374.0,938.0,1.0,0,-202.0,1
863,863,-0.07966008202784158,-0.1,1.0,0.0,349.0,986.0,1.0,1,355.0,0
864,864,-0.11764562481773144,-0.1,0.0,1.0,415.0,591.0,1.0,0,364.0,1
865,865,-0.6216766423870237,-0.6,1.0,0.0,481.0,686.0,0.0,0,663.0,1
866,866,-0.32601017266666465,-0.3,0.0,1.0,475.0,798.0,1.0,0,137.0,1
867,867,-0.051685763473977686,-0.1,0.0,1.0,384.0,700.0,1.0,0,656.0,1
868,868,0.5084805277438368,0.5,1.0,1.0,435.0,773.0,1.0,1,-278.0,1
869,869,-0.5447396939692926,-0.5,0.0,1.0,271.0,656.0,1.0,0,103.0,1
870,870,0.19641943789801697,0.2,0.0,0.0,319.0,985.0,0.0,1,1116.0,1
871,871,0.37758846990073736,0.4,0.0,0.0,284.0,626.0,0.0,1,190.0,1
872,872,-0.4383113828819046,-0.4,1.0,0.0,358.0,527.0,0.0,0,455.0,1
873,873,-0.5023055232048208,-0.5,0.0,1.0,280.0,776.0,1.0,0,-226.0,1
874,874,-0.12349957323698224,-0.1,0.0,1.0,362.0,848.0,1.0,0,-540.0,1
875,875,0.5598387296048503,0.6,1.0,1.0,446.0,587.0,1.0,1,-93.0,1
876,876,-0.6263510673990147,-0.6,1.0,0.0,325.0,906.0,0.0,0,239.0,1
877,877,-0.5082648915600207,-0.5,1.0,0.0,417.0,668.0,0.0,0,265.0,1
878,878,-0.7283356343877366,-0.7,0.0,1.0,453.0,850.0,1.0,0,287.0,1
879,879,-0.3428630066328884,-0.3,1.0,0.0,389.0,927.0,1.0,1,-666.0,0
880,880,0.30425532387412046,0.3,1.0,1.0,357.0,611.0,1.0,1,312.0,1
881,881,0.8232307576731691,0.8,0.0,0.0,416.0,743.0,1.0,0,-189.0,0
882,882,0.3608869699277989,0.4,0.0,0.0,283.0,516.0,0.0,1,281.0,1
883,883,-0.5790805996762616,-0.6,0.0,1.0,463.0,662.0,1.0,0,-1085.0,1
884,884,-0.16008785460036368,-0.2,1.0,0.0,459.0,952.0,1.0,1,-221.0,0
885,885,-0.547104452023412,-0.5,0.0,1.0,440.0,754.0,1.0,0,-104.0,1
886,886,-0.13771930781784159,-0.1,0.0,1.0,403.0,632.0,0.0,1,-335.0,0
887,887,0.6578737580282404,0.7,0.0,0.0,469.0,580.0,0.0,1,711.0,1
888,888,0.34735048551516223,0.3,1.0,1.0,422.0,636.0,1.0,1,1112.0,1
889,889,0.2768728638399719,0.3,0.0,0.0,307.0,718.0,1.0,0,-835.0,0
890,890,-0.48204206564757984,-0.5,0.0,1.0,321.0,963.0,1.0,0,356.0,1
891,891,0.010521728143944364,0.0,1.0,1.0,331.0,864.0,1.0,1,1755.0,1
892,892,0.8345476292221691,0.8,0.0,0.0,474.0,940.0,1.0,0,366.0,0
893,893,0.8057533273440042,0.8,1.0,1.0,385.0,934.0,1.0,1,221.0,1
894,894,0.4641723298286534,0.5,0.0,0.0,288.0,576.0,0.0,1,1286.0,1
895,895,0.3497603038377791,0.3,0.0,0.0,383.0,806.0,1.0,0,-449.0,0
896,896,-0.8286686165286439,-0.8,0.0,1.0,253.0,685.0,1.0,0,-318.0,1
897,897,-0.8304565988522081,-0.8,0.0,1.0,496.0,636.0,1.0,0,-232.0,1
898,898,-0.6485336878027961,-0.6,1.0,0.0,493.0,726.0,0.0,0,311.0,1
899,899,-0.6625677430578881,-0.7,0.0,1.0,274.0,646.0,1.0,0,1490.0,1
900,900,0.6689633933278417,0.7,0.0,0.0,362.0,921.0,0.0,1,-33.0,1
901,901,0.3952692162686814,0.4,0.0,0.0,460.0,928.0,0.0,1,172.0,1
902,902,0.7096908824585618,0.7,1.0,1.0,417.0,858.0,1.0,1,95.0,1
903,903,-0.265993901784763,-0.3,1.0,0.0,260.0,814.0,1.0,1,186.0,0
904,904,-0.4058570818787512,-0.4,1.0,0.0,388.0,697.0,0.0,0,-375.0,1
905,905,-0.5643735960096268,-0.6,0.0,1.0,470.0,713.0,1.0,0,-173.0,1
906,906,0.45171444768542435,0.5,0.0,0.0,382.0,837.0,1.0,0,-229.0,0
907,907,0.22341925523421502,0.2,1.0,1.0,487.0,614.0,1.0,1,479.0,1
908,908,0.5103300139984225,0.5,1.0,1.0,337.0,907.0,1.0,1,-574.0,1
909,909,0.2769945823403813,0.3,1.0,1.0,442.0,659.0,1.0,1,719.0,1
910,910,0.0015694644237411737,0.0,1.0,1.0,388.0,714.0,0.0,0,-402.0,0
911,911,0.399034186972652,0.4,0.0,0.0,272.0,805.0,1.0,0,1003.0,0
912,912,0.33693982534840405,0.3,1.0,1.0,401.0,631.0,1.0,1,-712.0,1
913,913,-0.8477280396662316,-0.8,0.0,1.0,313.0,949.0,1.0,0,998.0,1
914,914,0.23957840085348525,0.2,0.0,0.0,336.0,736.0,1.0,0,-292.0,0
915,915,-0.6413578495745034,-0.6,0.0,1.0,460.0,879.0,1.0,0,-929.0,1
916,916,-0.8869658027208955,-0.9,1.0,0.0,460.0,826.0,0.0,0,384.0,1
917,917,-0.4786090091086922,-0.5,0.0,1.0,467.0,960.0,1.0,0,253.0,1
918,918,0.10899861853002502,0.1,0.0,0.0,494.0,584.0,1.0,0,-158.0,0
919,919,-0.8456932890464905,-0.8,0.0,1.0,331.0,716.0,1.0,0,353.0,1
920,920,0.011823406668150072,0.0,1.0,1.0,339.0,565.0,1.0,1,876.0,1
921,921,0.659516109538893,0.7,0.0,0.0,476.0,696.0,0.0,1,318.0,1
922,922,0.6953228645439938,0.7,0.0,0.0,267.0,927.0,0.0,1,306.0,1
923,923,0.7978102514284909,0.8,1.0,1.0,318.0,813.0,1.0,1,109.0,1
924,924,-0.4689206128280516,-0.5,0.0,1.0,379.0,723.0,0.0,1,-112.0,0
925,925,0.0069712109182371584,0.0,1.0,1.0,268.0,660.0,1.0,1,832.0,1
926,926,0.41046241323058263,0.4,1.0,1.0,259.0,535.0,1.0,1,346.0,1
927,927,-0.8474788874445107,-0.8,1.0,0.0,305.0,610.0,0.0,0,175.0,1
928,928,-0.847853787570395,-0.8,0.0,1.0,284.0,652.0,1.0,0,-86.0,1
929,929,-0.32716332643008617,-0.3,0.0,1.0,295.0,648.0,1.0,0,-183.0,1
930,930,0.3415867529073632,0.3,1.0,1.0,329.0,945.0,1.0,1,-474.0,1
931,931,-0.38984265305993093,-0.4,0.0,1.0,457.0,951.0,1.0,0,-758.0,1
932,932,0.853214767752044,0.9,1.0,1.0,423.0,800.0,1.0,1,397.0,1
933,933,-0.6900225905526691,-0.7,0.0,1.0,385.0,812.0,1.0,0,-147.0,1
934,934,-0.7947552611506685,-0.8,1.0,0.0,353.0,562.0,0.0,0,415.0,1
935,935,-0.7684541756388484,-0.8,1.0,0.0,455.0,901.0,1.0,1,-306.0,0
936,936,0.8135149445807176,0.8,1.0,1.0,355.0,709.0,1.0,1,346.0,1
937,937,-0.6240834505314263,-0.6,0.0,1.0,392.0,796.0,1.0,0,122.0,1
938,938,0.3037046433451468,0.3,1.0,1.0,390.0,976.0,1.0,1,-186.0,1
939,939,0.8815395180769042,0.9,0.0,0.0,370.0,789.0,0.0,1,501.0,1
940,940,0.16232094726412727,0.2,1.0,1.0,408.0,654.0,1.0,1,458.0,1
941,941,0.45460752161672613,0.5,0.0,0.0,316.0,571.0,0.0,1,643.0,1
942,942,0.7171769219733829,0.7,0.0,0.0,308.0,872.0,0.0,1,340.0,1
943,943,-0.28837127021709397,-0.3,0.0,1.0,367.0,722.0,1.0,0,-379.0,1
944,944,0.8747095343745755,0.9,0.0,0.0,386.0,733.0,0.0,1,291.0,1
945,945,-0.15918486552096922,-0.2,1.0,0.0,413.0,644.0,0.0,0,1023.0,1
946,946,0.4879246600937913,0.5,1.0,1.0,438.0,939.0,1.0,1,193.0,1
947,947,-0.33414424872262904,-0.3,1.0,0.0,480.0,738.0,0.0,0,1092.0,1
948,948,-0.2695528840795659,-0.3,0.0,1.0,269.0,772.0,1.0,0,-361.0,1
949,949,-0.30234295805940925,-0.3,1.0,0.0,492.0,988.0,1.0,1,-350.0,0
950,950,0.3025742497906826,0.3,0.0,0.0,309.0,553.0,1.0,0,-162.0,0
951,951,0.6779003664859505,0.7,0.0,0.0,306.0,568.0,0.0,1,916.0,1
952,952,-0.3488119976456763,-0.3,1.0,0.0,342.0,989.0,1.0,1,359.0,0
953,953,-0.2623044915493147,-0.3,0.0,1.0,460.0,952.0,1.0,0,-392.0,1
954,954,0.7979983587463063,0.8,0.0,0.0,368.0,823.0,1.0,0,-1.0,0
955,955,0.7649909782930507,0.8,0.0,0.0,495.0,925.0,0.0,1,360.0,1
956,956,0.7262071780991602,0.7,0.0,0.0,334.0,603.0,1.0,0,-117.0,0
957,957,-0.2655130186576027,-0.3,0.0,1.0,397.0,668.0,1.0,0,625.0,1
958,958,0.018913379832507293,0.0,0.0,0.0,377.0,789.0,1.0,0,-296.0,0
959,959,0.890258758366609,0.9,1.0,1.0,377.0,874.0,1.0,1,-521.0,1
960,960,0.16423257145076653,0.2,0.0,0.0,358.0,655.0,1.0,0,447.0,0
961,961,-0.2678316385091738,-0.3,1.0,0.0,423.0,669.0,1.0,1,-282.0,0
962,962,0.42022904027785557,0.4,1.0,1.0,428.0,835.0,1.0,1,67.0,1
963,963,0.38543292663754747,0.4,1.0,1.0,323.0,988.0,1.0,1,-711.0,1
964,964,-0.31290614852435117,-0.3,1.0,0.0,381.0,841.0,0.0,0,-512.0,1
965,965,-0.5338390161768345,-0.5,0.0,1.0,468.0,824.0,1.0,0,218.0,1
966,966,0.44671354014113385,0.4,1.0,1.0,472.0,908.0,0.0,0,150.0,0
967,967,0.46408596570737715,0.5,1.0,1.0,262.0,875.0,1.0,1,943.0,1
968,968,0.24184282188820683,0.2,1.0,1.0,268.0,741.0,1.0,1,81.0,1
969,969,-0.12179841601710628,-0.1,0.0,1.0,267.0,615.0,1.0,0,3398.0,1
970,970,-0.406805726677508,-0.4,1.0,0.0,405.0,835.0,0.0,0,300.0,1
971,971,0.4589313908107361,0.5,0.0,0.0,309.0,597.0,0.0,1,1314.0,1
972,972,0.34278707277517373,0.3,0.0,0.0,275.0,695.0,1.0,0,120.0,0
973,973,-0.1049607900236339,-0.1,1.0,0.0,453.0,787.0,0.0,0,560.0,1
974,974,0.6570585960544669,0.7,1.0,1.0,482.0,623.0,1.0,1,-115.0,1
975,975,-0.17208326340997993,-0.2,1.0,0.0,377.0,947.0,0.0,0,-164.0,1
976,976,-0.5133809562146884,-0.5,1.0,0.0,447.0,999.0,0.0,0,1634.0,1
977,977,0.07737523914461686,0.1,0.0,0.0,456.0,625.0,1.0,0,-41.0,0
978,978,-0.6657988193359503,-0.7,1.0,0.0,387.0,893.0,0.0,0,170.0,1
979,979,-0.7697151255998259,-0.8,0.0,1.0,265.0,508.0,1.0,0,407.0,1
980,980,-0.1300922995642957,-0.1,0.0,1.0,478.0,546.0,1.0,0,1776.0,1
981,981,0.6001758843429298,0.6,0.0,0.0,456.0,931.0,1.0,0,-447.0,0
982,982,0.893001141241699,0.9,0.0,0.0,261.0,531.0,0.0,1,168.0,1
983,983,0.18637871053128074,0.2,0.0,0.0,461.0,929.0,1.0,0,730.0,0
984,984,-0.035644940478276155,-0.0,0.0,1.0,467.0,739.0,0.0,1,674.0,0
985,985,-0.3594383659708219,-0.4,1.0,0.0,259.0,752.0,0.0,0,1269.0,1
986,986,0.5188206297098606,0.5,1.0,1.0,379.0,522.0,1.0,1,-21.0,1
987,987,-0.4649412979813867,-0.5,1.0,0.0,331.0,973.0,1.0,1,266.0,0
988,988,-0.5547044829445444,-0.6,0.0,1.0,403.0,758.0,1.0,0,-661.0,1
989,989,0.5031422849472352,0.5,0.0,0.0,450.0,594.0,0.0,1,246.0,1
990,990,-0.13295895429464089,-0.1,1.0,0.0,386.0,926.0,1.0,1,-22.0,0
991,991,0.3594472207065279,0.4,1.0,1.0,441.0,762.0,1.0,1,367.0,1
992,992,-0.34553257517158265,-0.3,0.0,1.0,404.0,862.0,1.0,0,-216.0,1
993,993,-0.03981595547232575,-0.0,0.0,1.0,330.0,636.0,1.0,0,-346.0,1
994,994,-0.06076747687525652,-0.1,1.0,0.0,490.0,765.0,1.0,1,-415.0,0
995,995,-0.88116333461508,-0.9,0.0,1.0,357.0,532.0,1.0,0,421.0,1
996,996,0.5903202541424241,0.6,1.0,1.0,351.0,797.0,1.0,1,-458.0,1
997,997,-0.45557526190259157,-0.5,0.0,1.0,464.0,508.0,1.0,0,188.0,1
998,998,-0.3166874685726444,-0.3,0.0,1.0,274.0,518.0,1.0,0,88.0,1
999,999,0.028087709755891588,0.0,0.0,0.0,472.0,637.0,1.0,0,451.0,0
1000,1000,-0.09614120504948498,-0.1,1.0,0.0,430.0,829.0,1.0,1,-1249.0,0
1001,1001,-0.4754328564617019,-0.5,1.0,0.0,458.0,577.0,0.0,0,1225.0,1
1002,1002,-0.3441278417885305,-0.3,1.0,0.0,389.0,930.0,1.0,1,-419.0,0
1003,1003,-0.866865425204288,-0.9,0.0,1.0,404.0,846.0,1.0,0,-60.0,1
1004,1004,0.14458839479564733,0.1,1.0,1.0,450.0,883.0,1.0,1,507.0,1
1005,1005,0.272270354513657,0.3,0.0,0.0,401.0,909.0,1.0,0,-10.0,0
1006,1006,-0.2898415276660674,-0.3,0.0,1.0,325.0,695.0,1.0,0,-100.0,1
1007,1007,-0.8361274546527557,-0.8,1.0,0.0,377.0,815.0,1.0,1,-322.0,0
1008,1008,-0.8488476580121302,-0.8,0.0,1.0,268.0,830.0,1.0,0,-28.0,1
1009,1009,0.4881152339909588,0.5,1.0,1.0,377.0,847.0,1.0,1,466.0,1
1010,1010,-0.12048486088180843,-0.1,1.0,0.0,418.0,717.0,1.0,1,1245.0,0
1011,1011,0.1647540617437454,0.2,1.0,1.0,442.0,690.0,1.0,1,1178.0,1
1012,1012,-0.07347093636308433,-0.1,1.0,0.0,393.0,685.0,1.0,1,1082.0,0
1013,1013,0.03305202555226838,0.0,1.0,1.0,352.0,549.0,1.0,1,569.0,1
1014,1014,0.11523725493848935,0.1,1.0,1.0,352.0,802.0,0.0,0,1886.0,0
1015,1015,-0.27443880376636876,-0.3,1.0,0.0,356.0,521.0,0.0,0,543.0,1
1016,1016,0.895830023256922,0.9,1.0,1.0,458.0,996.0,1.0,1,286.0,1
1017,1017,0.09111804870689388,0.1,0.0,0.0,469.0,918.0,1.0,0,-427.0,0
1018,1018,0.864423992345087,0.9,1.0,1.0,335.0,684.0,1.0,1,-479.0,1
1019,1019,0.7425713484755093,0.7,1.0,1.0,273.0,584.0,1.0,1,263.0,1
1020,1020,-0.2540710177197415,-0.3,0.0,1.0,453.0,624.0,1.0,0,393.0,1
1021,1021,-0.10594929878884451,-0.1,1.0,0.0,333.0,528.0,1.0,1,-41.0,0
1022,1022,0.4215258062035617,0.4,1.0,1.0,420.0,531.0,1.0,1,189.0,1
1023,1023,0.5068448911208921,0.5,0.0,0.0,366.0,732.0,1.0,0,1072.0,0
1024,1024,-0.3900743790962006,-0.4,1.0,0.0,363.0,951.0,1.0,1,-654.0,0
1025,1025,0.7164872171033477,0.7,0.0,0.0,419.0,997.0,1.0,0,-406.0,0
1026,1026,0.2135123058408962,0.2,0.0,0.0,473.0,644.0,1.0,0,-437.0,0
1027,1027,0.8601829771379254,0.9,1.0,1.0,468.0,961.0,1.0,1,151.0,1
1028,1028,0.6238802592052305,0.6,1.0,1.0,289.0,755.0,1.0,1,236.0,1
1029,1029,0.08015842457259148,0.1,1.0,1.0,254.0,896.0,1.0,1,1050.0,1
1030,1030,0.7126857987222636,0.7,0.0,0.0,299.0,677.0,0.0,1,-86.0,1
1031,1031,0.7289373637527202,0.7,0.0,0.0,332.0,841.0,0.0,1,-603.0,1
1032,1032,-0.38506508443716436,-0.4,0.0,1.0,305.0,879.0,1.0,0,-64.0,1
1033,1033,0.729125851834101,0.7,0.0,0.0,468.0,578.0,0.0,1,124.0,1
1034,1034,-0.2446955473928899,-0.2,0.0,1.0,485.0,879.0,1.0,0,-354.0,1
1035,1035,0.04061279571413989,0.0,1.0,1.0,272.0,872.0,1.0,1,-914.0,1
1036,1036,0.12974288152706503,0.1,1.0,1.0,484.0,946.0,0.0,0,-110.0,0
1037,1037,-0.7678595122317953,-0.8,1.0,0.0,445.0,706.0,0.0,0,879.0,1
1038,1038,0.500820651275793,0.5,1.0,1.0,488.0,772.0,1.0,1,540.0,1
1039,1039,0.8101543934282281,0.8,1.0,1.0,392.0,509.0,1.0,1,109.0,1
1040,1040,-0.2614301703359324,-0.3,1.0,0.0,463.0,738.0,1.0,1,-171.0,0
1041,1041,0.7242255999335735,0.7,0.0,0.0,343.0,984.0,1.0,0,-877.0,0
1042,1042,0.16731149089720876,0.2,1.0,1.0,438.0,748.0,1.0,1,-26.0,1
1043,1043,-0.697214862919542,-0.7,0.0,1.0,341.0,724.0,1.0,0,475.0,1
1044,1044,0.8861159352731113,0.9,0.0,0.0,438.0,916.0,1.0,0,-444.0,0
1045,1045,-0.5204810055772815,-0.5,1.0,0.0,492.0,692.0,0.0,0,1106.0,1
1046,1046,-0.20490680410533701,-0.2,0.0,1.0,400.0,541.0,1.0,0,889.0,1
1047,1047,-0.11873030534788964,-0.1,0.0,1.0,383.0,639.0,1.0,0,-362.0,1
1048,1048,-0.8085183638438944,-0.8,0.0,1.0,385.0,926.0,1.0,0,129.0,1
1049,1049,0.004616288077315289,0.0,0.0,0.0,446.0,651.0,1.0,0,1423.0,0
1050,1050,0.8300219663863985,0.8,1.0,1.0,391.0,868.0,1.0,1,481.0,1
1051,1051,-0.0749175116614984,-0.1,0.0,1.0,328.0,528.0,1.0,0,104.0,1
1052,1052,0.27419539918174773,0.3,0.0,0.0,496.0,648.0,1.0,0,566.0,0
1053,1053,-0.4812658716002324,-0.5,0.0,1.0,344.0,676.0,1.0,0,160.0,1
1054,1054,-0.23603874794316515,-0.2,1.0,0.0,477.0,502.0,0.0,0,1151.0,1
1055,1055,-0.674942052859957,-0.7,1.0,0.0,348.0,697.0,0.0,0,-425.0,1
1056,1056,0.39307517518613,0.4,0.0,0.0,409.0,786.0,0.0,1,85.0,1
1057,1057,-0.8017235150876306,-0.8,0.0,1.0,452.0,924.0,1.0,0,454.0,1
1058,1058,-0.26851140974177157,-0.3,0.0,1.0,382.0,994.0,1.0,0,-16.0,1
1059,1059,0.4484580904997847,0.4,0.0,0.0,264.0,653.0,0.0,1,113.0,1
1060,1060,0.10783227228695969,0.1,0.0,0.0,375.0,676.0,0.0,1,899.0,1
1061,1061,0.18725590312071805,0.2,1.0,1.0,404.0,822.0,1.0,1,1054.0,1
1062,1062,-0.7814223827866513,-0.8,1.0,0.0,314.0,772.0,0.0,0,364.0,1
1063,1063,0.7731983139378326,0.8,1.0,1.0,415.0,947.0,1.0,1,98.0,1
1064,1064,0.43569516858720514,0.4,1.0,1.0,440.0,994.0,1.0,1,186.0,1
1065,1065,-0.7582412320702498,-0.8,1.0,0.0,312.0,986.0,0.0,0,-318.0,1
1066,1066,-0.4951930714740298,-0.5,0.0,1.0,435.0,516.0,1.0,0,109.0,1
1067,1067,-0.403047377985826,-0.4,0.0,1.0,282.0,896.0,1.0,0,-588.0,1
1068,1068,-0.46200555398959714,-0.5,0.0,1.0,499.0,515.0,0.0,1,-24.0,0
1069,1069,-0.24601482090846738,-0.2,0.0,1.0,325.0,617.0,0.0,1,528.0,0
1070,1070,0.5905142676764966,0.6,1.0,1.0,284.0,907.0,1.0,1,339.0,1
1071,1071,-0.09557072648833032,-0.1,1.0,0.0,414.0,590.0,0.0,0,-84.0,1
1072,1072,-0.5604233245739774,-0.6,0.0,1.0,356.0,772.0,0.0,1,-168.0,0
1073,1073,-0.4663049489921156,-0.5,0.0,1.0,311.0,707.0,1.0,0,-458.0,1
1074,1074,-0.5712956628581187,-0.6,1.0,0.0,277.0,805.0,0.0,0,638.0,1
1075,1075,-0.019433186224008803,-0.0,1.0,0.0,399.0,583.0,1.0,1,28.0,0
1076,1076,0.1195256565807038,0.1,0.0,0.0,464.0,823.0,1.0,0,-507.0,0
1077,1077,-0.03812466642445134,-0.0,1.0,0.0,341.0,665.0,1.0,1,-226.0,0
1078,1078,0.027781940715041253,0.0,0.0,0.0,469.0,735.0,1.0,0,186.0,0
1079,1079,0.24823290517240182,0.2,1.0,1.0,359.0,836.0,1.0,1,395.0,1
1080,1080,-0.00021757951593903702,-0.0,0.0,1.0,287.0,867.0,0.0,1,426.0,0
1081,1081,-0.05666558858753823,-0.1,1.0,0.0,306.0,729.0,1.0,1,225.0,0
1082,1082,-0.04763993466560068,-0.0,0.0,1.0,337.0,976.0,1.0,0,-133.0,1
1083,1083,0.2931180825187877,0.3,0.0,0.0,387.0,512.0,1.0,0,381.0,0
1084,1084,0.3288384340475118,0.3,0.0,0.0,480.0,814.0,1.0,0,-344.0,0
1085,1085,-0.0008704798993164342,-0.0,1.0,0.0,455.0,805.0,1.0,1,-490.0,0
1086,1086,0.010282821190278346,0.0,1.0,1.0,276.0,955.0,1.0,1,779.0,1
1087,1087,0.7385137894772223,0.7,0.0,0.0,292.0,756.0,0.0,1,692.0,1
1088,1088,0.6393578945863118,0.6,0.0,0.0,365.0,981.0,1.0,0,-286.0,0
1089,1089,0.7167369237250903,0.7,0.0,0.0,305.0,678.0,1.0,0,-193.0,0
1090,1090,0.5128865463104103,0.5,1.0,1.0,400.0,505.0,1.0,1,225.0,1
1091,1091,-0.49307657442433395,-0.5,0.0,1.0,255.0,947.0,0.0,1,-172.0,0
1092,1092,0.6736296737007451,0.7,0.0,0.0,272.0,694.0,1.0,0,-406.0,0
1093,1093,0.10358716688542635,0.1,1.0,1.0,251.0,819.0,1.0,1,1010.0,1
1094,1094,-0.2549140171411233,-0.3,0.0,1.0,328.0,847.0,1.0,0,-45.0,1
1095,1095,-0.8092916857653052,-0.8,0.0,1.0,414.0,967.0,0.0,1,-391.0,0
1096,1096,-0.1696999883641358,-0.2,0.0,1.0,335.0,776.0,1.0,0,629.0,1
1097,1097,-0.3424999747967036,-0.3,1.0,0.0,361.0,570.0,0.0,0,-71.0,1
1098,1098,-0.27337607721661705,-0.3,0.0,1.0,268.0,718.0,1.0,0,204.0,1
1099,1099,0.5938244490311032,0.6,0.0,0.0,491.0,662.0,0.0,1,477.0,1
1100,1100,-0.6186263875091849,-0.6,0.0,1.0,468.0,531.0,1.0,0,-79.0,1
1101,1101,-0.7862583964248491,-0.8,1.0,0.0,411.0,943.0,1.0,1,-454.0,0
1102,1102,0.44260031174074477,0.4,1.0,1.0,463.0,624.0,1.0,1,303.0,1
1103,1103,-0.7256373444292341,-0.7,1.0,0.0,272.0,616.0,0.0,0,282.0,1
1104,1104,-0.09091716184120313,-0.1,0.0,1.0,360.0,969.0,1.0,0,-539.0,1
1105,1105,-0.7736058182964305,-0.8,1.0,0.0,384.0,976.0,0.0,0,820.0,1
1106,1106,-0.36387399984802193,-0.4,0.0,1.0,280.0,589.0,1.0,0,711.0,1
1107,1107,0.39980095922275816,0.4,1.0,1.0,394.0,630.0,1.0,1,-624.0,1
1108,1108,-0.006872514513501238,-0.0,1.0,0.0,410.0,952.0,1.0,1,508.0,0
1109,1109,-0.5929026663619694,-0.6,0.0,1.0,402.0,787.0,1.0,0,371.0,1
1110,1110,-0.1630750727841611,-0.2,1.0,0.0,331.0,942.0,1.0,1,-1223.0,0
1111,1111,-0.7429582221465509,-0.7,1.0,0.0,351.0,634.0,0.0,0,385.0,1
1112,1112,-0.6902756606880452,-0.7,0.0,1.0,286.0,909.0,1.0,0,-155.0,1
1113,1113,-0.2552392219624996,-0.3,1.0,0.0,429.0,695.0,0.0,0,836.0,1
1114,1114,0.7278731474306172,0.7,0.0,0.0,339.0,917.0,0.0,1,424.0,1
1115,1115,-0.8915585791731829,-0.9,1.0,0.0,458.0,616.0,0.0,0,836.0,1
1116,1116,0.4851364858862789,0.5,1.0,1.0,393.0,659.0,1.0,1,158.0,1
1117,1117,0.008079918444713674,0.0,1.0,1.0,295.0,867.0,0.0,0,188.0,0
1118,1118,-0.051847487470917164,-0.1,1.0,0.0,375.0,674.0,0.0,0,501.0,1
1119,1119,-0.21373454800622815,-0.2,1.0,0.0,282.0,746.0,1.0,1,-478.0,0
1120,1120,-0.21235018868884104,-0.2,1.0,0.0,276.0,930.0,0.0,0,684.0,1
1121,1121,0.23322199446087832,0.2,0.0,0.0,495.0,672.0,0.0,1,293.0,1
1122,1122,-0.7176562413800348,-0.7,1.0,0.0,409.0,719.0,0.0,0,692.0,1
1123,1123,0.056855783041866115,0.1,1.0,1.0,396.0,565.0,1.0,1,409.0,1
1124,1124,0.03426467929070631,0.0,1.0,1.0,464.0,854.0,0.0,0,-218.0,0
1125,1125,0.14791453732323856,0.1,0.0,0.0,296.0,896.0,1.0,0,308.0,0
1126,1126,-0.6431310804471014,-0.6,1.0,0.0,394.0,694.0,1.0,1,-78.0,0
1127,1127,-0.41702990904334286,-0.4,1.0,0.0,483.0,674.0,1.0,1,323.0,0
1128,1128,-0.7938462130275132,-0.8,0.0,1.0,422.0,620.0,1.0,0,-192.0,1
1129,1129,-0.7207252233739911,-0.7,0.0,1.0,404.0,992.0,1.0,0,-196.0,1
1130,1130,0.030915305898828183,0.0,1.0,1.0,409.0,545.0,1.0,1,1256.0,1
1131,1131,-0.20693453931910788,-0.2,1.0,0.0,312.0,681.0,1.0,1,-73.0,0
1132,1132,-0.014904896509585042,-0.0,0.0,1.0,333.0,873.0,1.0,0,-126.0,1
1133,1133,0.5646577462495336,0.6,0.0,0.0,481.0,890.0,1.0,0,9.0,0
1134,1134,-0.7407239341507948,-0.7,1.0,0.0,286.0,905.0,0.0,0,-211.0,1
1135,1135,-0.6618160353880804,-0.7,0.0,1.0,326.0,812.0,1.0,0,-168.0,1
1136,1136,0.5474134418841595,0.5,1.0,1.0,350.0,524.0,1.0,1,-224.0,1
1137,1137,0.14204061952904146,0.1,1.0,1.0,487.0,659.0,0.0,0,-546.0,0
1138,1138,-0.8629930847563162,-0.9,1.0,0.0,258.0,686.0,1.0,1,56.0,0
1139,1139,-0.7374995279139286,-0.7,1.0,0.0,272.0,983.0,0.0,0,175.0,1
1140,1140,-0.4216452138967858,-0.4,0.0,1.0,348.0,953.0,1.0,0,-1081.0,1
1141,1141,-0.1018420963411868,-0.1,0.0,1.0,380.0,555.0,0.0,1,185.0,0
1142,1142,0.632129867753764,0.6,1.0,1.0,263.0,810.0,1.0,1,677.0,1
1143,1143,0.3317109948860305,0.3,0.0,0.0,320.0,587.0,0.0,1,53.0,1
1144,1144,-0.21812813398258002,-0.2,0.0,1.0,499.0,550.0,0.0,1,-369.0,0
1145,1145,0.4359670771490981,0.4,0.0,0.0,351.0,822.0,1.0,0,-63.0,0
1146,1146,-0.7050940649800017,-0.7,0.0,1.0,324.0,660.0,1.0,0,-404.0,1
1147,1147,-0.12660729021260064,-0.1,0.0,1.0,410.0,930.0,1.0,0,-1160.0,1
1148,1148,0.052709209791571676,0.1,1.0,1.0,394.0,982.0,0.0,0,-246.0,0
1149,1149,-0.31463555958335554,-0.3,1.0,0.0,389.0,616.0,0.0,0,1115.0,1
1150,1150,0.6249604943621877,0.6,1.0,1.0,324.0,764.0,0.0,0,-138.0,0
1151,1151,0.8290203626405511,0.8,1.0,1.0,393.0,526.0,0.0,0,-419.0,0
1152,1152,0.12897961630717736,0.1,1.0,1.0,415.0,806.0,1.0,1,209.0,1
1153,1153,0.3905239280812719,0.4,0.0,0.0,357.0,766.0,1.0,0,-33.0,0
1154,1154,-0.393665257792712,-0.4,0.0,1.0,475.0,513.0,1.0,0,112.0,1
1155,1155,0.6049747260168031,0.6,0.0,0.0,361.0,700.0,0.0,1,169.0,1
1156,1156,-0.5273577427024989,-0.5,0.0,1.0,348.0,602.0,1.0,0,360.0,1
1157,1157,-0.5102707881424982,-0.5,0.0,1.0,487.0,746.0,1.0,0,-323.0,1
1158,1158,-0.12159566720999004,-0.1,0.0,1.0,446.0,820.0,1.0,0,954.0,1
1159,1159,-0.21492029130420642,-0.2,1.0,0.0,393.0,702.0,0.0,0,25.0,1
1160,1160,0.7424512592996987,0.7,0.0,0.0,276.0,697.0,0.0,1,267.0,1
1161,1161,0.15757348242291924,0.2,1.0,1.0,452.0,654.0,1.0,1,424.0,1
1162,1162,0.242291217427259,0.2,0.0,0.0,274.0,675.0,1.0,0,221.0,0
1163,1163,-0.7349310707207031,-0.7,0.0,1.0,453.0,768.0,1.0,0,369.0,1
1164,1164,0.30399276325095903,0.3,0.0,0.0,354.0,829.0,1.0,0,87.0,0
1165,1165,-0.02146492207974371,-0.0,0.0,1.0,442.0,919.0,1.0,0,-31.0,1
1166,1166,-0.38929599551110317,-0.4,0.0,1.0,416.0,779.0,1.0,0,-915.0,1
1167,1167,0.2717336121483164,0.3,0.0,0.0,395.0,765.0,0.0,1,570.0,1
1168,1168,0.12300936426610909,0.1,0.0,0.0,451.0,893.0,1.0,0,-144.0,0
1169,1169,-0.19958273659989345,-0.2,0.0,1.0,447.0,690.0,1.0,0,213.0,1
1170,1170,-0.44118202108182086,-0.4,0.0,1.0,435.0,882.0,1.0,0,-767.0,1
1171,1171,0.44614960277459714,0.4,0.0,0.0,452.0,760.0,0.0,1,638.0,1
1172,1172,-0.7795703460199034,-0.8,0.0,1.0,493.0,593.0,1.0,0,64.0,1
1173,1173,-0.13663217170795783,-0.1,0.0,1.0,383.0,806.0,1.0,0,-19.0,1
1174,1174,-0.6656187977198673,-0.7,0.0,1.0,464.0,604.0,1.0,0,202.0,1
1175,1175,-0.33408904116863714,-0.3,0.0,1.0,423.0,848.0,1.0,0,499.0,1
1176,1176,-0.5135640013673273,-0.5,1.0,0.0,360.0,770.0,1.0,1,-450.0,0
1177,1177,-0.5885001260729835,-0.6,0.0,1.0,435.0,927.0,1.0,0,88.0,1
1178,1178,0.6685945910970005,0.7,0.0,0.0,375.0,949.0,0.0,1,66.0,1
1179,1179,0.7839162720962681,0.8,0.0,0.0,357.0,760.0,0.0,1,703.0,1
1180,1180,-0.406743876505502,-0.4,1.0,0.0,467.0,791.0,0.0,0,142.0,1
1181,1181,-0.2488216524213469,-0.2,1.0,0.0,267.0,837.0,0.0,0,706.0,1
1182,1182,-0.6783334646164327,-0.7,1.0,0.0,263.0,834.0,0.0,0,103.0,1
1183,1183,-0.011756409650650501,-0.0,0.0,1.0,430.0,814.0,1.0,0,-384.0,1
1184,1184,-0.7226529554201213,-0.7,1.0,0.0,341.0,687.0,0.0,0,492.0,1
1185,1185,0.23540652832197784,0.2,0.0,0.0,280.0,632.0,0.0,1,968.0,1
1186,1186,0.3055017792101119,0.3,1.0,1.0,251.0,593.0,1.0,1,-134.0,1
1187,1187,0.15893796741191768,0.2,0.0,0.0,440.0,686.0,1.0,0,284.0,0
1188,1188,0.5623312989230985,0.6,0.0,0.0,387.0,696.0,0.0,1,917.0,1
1189,1189,0.04083506957089378,0.0,0.0,0.0,251.0,895.0,0.0,1,204.0,1
1190,1190,0.14818689183407507,0.1,1.0,1.0,351.0,783.0,1.0,1,466.0,1
1191,1191,-0.3621510168099561,-0.4,1.0,0.0,492.0,542.0,1.0,1,-204.0,0
1192,1192,0.8226371710076482,0.8,0.0,0.0,480.0,839.0,0.0,1,-1219.0,1
1193,1193,0.4643833030164043,0.5,0.0,0.0,321.0,682.0,1.0,0,-143.0,0
1194,1194,-0.5899744578157133,-0.6,0.0,1.0,394.0,775.0,1.0,0,-159.0,1
1195,1195,-0.6257512154748497,-0.6,0.0,1.0,490.0,832.0,1.0,0,-402.0,1
1196,1196,0.677157949231371,0.7,1.0,1.0,371.0,731.0,0.0,0,-442.0,0
1197,1197,-0.5456009559376731,-0.5,1.0,0.0,309.0,503.0,0.0,0,958.0,1
1198,1198,0.5798232762877847,0.6,1.0,1.0,422.0,593.0,1.0,1,15.0,1
1199,1199,-0.6546671909219222,-0.7,0.0,1.0,470.0,754.0,1.0,0,-84.0,1
1200,1200,0.13217930502359254,0.1,0.0,0.0,356.0,628.0,1.0,0,-94.0,0
1201,1201,-0.41079753552964643,-0.4,0.0,1.0,466.0,536.0,1.0,0,98.0,1
1202,1202,0.5165585979284676,0.5,0.0,0.0,318.0,743.0,1.0,0,-221.0,0
1203,1203,0.1863712101939211,0.2,1.0,1.0,410.0,549.0,0.0,0,591.0,0
1204,1204,-0.8211133791650693,-0.8,0.0,1.0,346.0,801.0,1.0,0,-117.0,1
1205,1205,0.060072878970705124,0.1,1.0,1.0,418.0,756.0,0.0,0,356.0,0
1206,1206,-0.8055891532716228,-0.8,0.0,1.0,489.0,878.0,1.0,0,123.0,1
1207,1207,0.8159604810954245,0.8,1.0,1.0,429.0,618.0,1.0,1,223.0,1
1208,1208,0.39950676925200257,0.4,1.0,1.0,287.0,625.0,0.0,0,2368.0,0
1209,1209,0.28292612861025523,0.3,0.0,0.0,275.0,739.0,0.0,1,246.0,1
1210,1210,-0.4157838337481284,-0.4,1.0,0.0,379.0,550.0,0.0,0,481.0,1
1211,1211,0.4180013443845575,0.4,0.0,0.0,290.0,781.0,0.0,1,449.0,1
1212,1212,-0.2971535570499856,-0.3,0.0,1.0,340.0,756.0,1.0,0,-266.0,1
1213,1213,0.8871247671349157,0.9,1.0,1.0,361.0,506.0,1.0,1,473.0,1
1214,1214,-0.16836869297380086,-0.2,0.0,1.0,474.0,958.0,1.0,0,-112.0,1
1215,1215,-0.4353070873564667,-0.4,1.0,0.0,356.0,787.0,1.0,1,-413.0,0
1216,1216,0.8032095007918435,0.8,0.0,0.0,393.0,618.0,1.0,0,-301.0,0
1217,1217,-0.048883614252255736,-0.0,0.0,1.0,447.0,876.0,1.0,0,217.0,1
1218,1218,-0.7326370201701894,-0.7,1.0,0.0,250.0,516.0,0.0,0,214.0,1
1219,1219,-0.020244026347273292,-0.0,1.0,0.0,489.0,720.0,1.0,1,491.0,0
1220,1220,0.3062320951826144,0.3,1.0,1.0,481.0,725.0,1.0,1,1394.0,1
1221,1221,0.1423692788174432,0.1,0.0,0.0,450.0,569.0,1.0,0,341.0,0
1222,1222,-0.8495109664620936,-0.8,1.0,0.0,353.0,635.0,0.0,0,1072.0,1
1223,1223,0.647450680008881,0.6,0.0,0.0,455.0,535.0,0.0,1,140.0,1
1224,1224,0.3157057416169916,0.3,0.0,0.0,413.0,807.0,1.0,0,-490.0,0
1225,1225,0.6690922941689009,0.7,0.0,0.0,422.0,694.0,0.0,1,664.0,1
1226,1226,0.8089811531786065,0.8,1.0,1.0,337.0,550.0,1.0,1,103.0,1
1227,1227,0.3127081550325824,0.3,1.0,1.0,358.0,774.0,0.0,0,-492.0,0
1228,1228,-0.019031734801331357,-0.0,1.0,0.0,434.0,963.0,1.0,1,293.0,0
1229,1229,-0.05598879012405089,-0.1,0.0,1.0,430.0,546.0,1.0,0,1414.0,1
1230,1230,-0.15612021373258844,-0.2,0.0,1.0,352.0,638.0,1.0,0,260.0,1
1231,1231,-0.6968838012572707,-0.7,0.0,1.0,408.0,787.0,1.0,0,-355.0,1
1232,1232,0.13065151434053235,0.1,0.0,0.0,392.0,952.0,1.0,0,26.0,0
1233,1233,-0.8980865861661713,-0.9,0.0,1.0,337.0,834.0,1.0,0,-71.0,1
1234,1234,0.8110620164075738,0.8,0.0,0.0,466.0,617.0,1.0,0,-263.0,0
1235,1235,0.24996494684942838,0.2,1.0,1.0,475.0,784.0,1.0,1,31.0,1
1236,1236,-0.810242222477451,-0.8,1.0,0.0,420.0,945.0,1.0,1,-355.0,0
1237,1237,-0.25008964178257054,-0.3,1.0,0.0,469.0,989.0,1.0,1,392.0,0
1238,1238,-0.0919733966083518,-0.1,0.0,1.0,336.0,881.0,1.0,0,503.0,1
1239,1239,-0.18977761083794886,-0.2,1.0,0.0,413.0,758.0,1.0,1,-211.0,0
1240,1240,-0.5212047224211538,-0.5,1.0,0.0,406.0,739.0,0.0,0,-325.0,1
1241,1241,-0.7362510442520542,-0.7,1.0,0.0,313.0,924.0,0.0,0,923.0,1
1242,1242,-0.37122426381975615,-0.4,0.0,1.0,449.0,635.0,1.0,0,-74.0,1
1243,1243,0.7149178987820713,0.7,0.0,0.0,257.0,557.0,1.0,0,-154.0,0
1244,1244,-0.2604956941054666,-0.3,1.0,0.0,407.0,622.0,1.0,1,-489.0,0
1245,1245,-0.8996276713079644,-0.9,1.0,0.0,409.0,720.0,1.0,1,1.0,0
1246,1246,0.4432868379969349,0.4,0.0,0.0,375.0,621.0,1.0,0,734.0,0
1247,1247,-0.4308470222219823,-0.4,1.0,0.0,300.0,927.0,0.0,0,-107.0,1
1248,1248,0.7486889189244422,0.7,1.0,1.0,260.0,508.0,1.0,1,2.0,1
1249,1249,-0.018135237377963187,-0.0,0.0,1.0,453.0,878.0,1.0,0,499.0,1
1250,1250,0.15700999927993398,0.2,1.0,1.0,432.0,710.0,1.0,1,-652.0,1
1251,1251,0.28987572615855595,0.3,1.0,1.0,439.0,686.0,1.0,1,175.0,1
1252,1252,-0.8529716308485664,-0.9,0.0,1.0,445.0,623.0,0.0,1,-778.0,0
1253,1253,0.4893557827974754,0.5,0.0,0.0,374.0,740.0,0.0,1,596.0,1
1254,1254,-0.7988805307259914,-0.8,0.0,1.0,358.0,967.0,1.0,0,345.0,1
1255,1255,-0.7209209558098979,-0.7,1.0,0.0,416.0,987.0,0.0,0,-213.0,1
1256,1256,0.2710412397832339,0.3,0.0,0.0,276.0,786.0,0.0,1,458.0,1
1257,1257,0.2531638045334835,0.3,1.0,1.0,463.0,946.0,1.0,1,141.0,1
1258,1258,0.43423976177494905,0.4,1.0,1.0,412.0,559.0,1.0,1,659.0,1
1259,1259,-0.029764882345652666,-0.0,1.0,0.0,419.0,902.0,1.0,1,819.0,0
1260,1260,-0.15239366698680212,-0.2,0.0,1.0,305.0,849.0,1.0,0,1466.0,1
1261,1261,-0.39248322485778453,-0.4,1.0,0.0,480.0,982.0,0.0,0,-42.0,1
1262,1262,0.08091342481455899,0.1,1.0,1.0,462.0,970.0,1.0,1,948.0,1
1263,1263,0.28517827660859674,0.3,1.0,1.0,401.0,659.0,1.0,1,270.0,1
1264,1264,0.4576470874603643,0.5,0.0,0.0,429.0,598.0,0.0,1,893.0,1
1265,1265,0.4656532455606389,0.5,1.0,1.0,341.0,515.0,1.0,1,344.0,1
1266,1266,0.15552167999300248,0.2,1.0,1.0,252.0,780.0,1.0,1,188.0,1
1267,1267,0.6067203214960956,0.6,0.0,0.0,326.0,698.0,0.0,1,-224.0,1
1268,1268,-0.3365554752613219,-0.3,1.0,0.0,330.0,692.0,0.0,0,388.0,1
1269,1269,0.562221125504999,0.6,0.0,0.0,458.0,549.0,0.0,1,513.0,1
1270,1270,0.6163252763836989,0.6,1.0,1.0,382.0,745.0,1.0,1,183.0,1
1271,1271,-0.14433937598053848,-0.1,0.0,1.0,414.0,692.0,1.0,0,-316.0,1
1272,1272,-0.11797522005214522,-0.1,1.0,0.0,467.0,620.0,0.0,0,313.0,1
1273,1273,-0.27238141109314673,-0.3,0.0,1.0,255.0,778.0,1.0,0,-493.0,1
1274,1274,-0.6143363052161882,-0.6,0.0,1.0,429.0,883.0,1.0,0,528.0,1
1275,1275,-0.6961475331272704,-0.7,0.0,1.0,450.0,731.0,1.0,0,179.0,1
1276,1276,0.5868002747647619,0.6,1.0,1.0,454.0,542.0,1.0,1,794.0,1
1277,1277,0.4863615801090445,0.5,0.0,0.0,365.0,812.0,1.0,0,-447.0,0
1278,1278,-0.44574419259351844,-0.4,1.0,0.0,347.0,777.0,1.0,1,676.0,0
1279,1279,0.22987590577124883,0.2,0.0,0.0,478.0,659.0,0.0,1,863.0,1
1280,1280,-0.42460211007344006,-0.4,1.0,0.0,394.0,682.0,0.0,0,304.0,1
1281,1281,0.2938672323569661,0.3,0.0,0.0,477.0,768.0,1.0,0,-315.0,0
1282,1282,0.10342575921428632,0.1,0.0,0.0,487.0,927.0,0.0,1,1236.0,1
1283,1283,-0.26923009767843153,-0.3,1.0,0.0,375.0,516.0,0.0,0,2909.0,1
1284,1284,-0.8626792700795587,-0.9,0.0,1.0,329.0,990.0,1.0,0,-99.0,1
1285,1285,0.19031298174199762,0.2,1.0,1.0,308.0,624.0,1.0,1,918.0,1
1286,1286,-0.3018107853776677,-0.3,0.0,1.0,327.0,863.0,1.0,0,910.0,1
1287,1287,-0.2678343249323061,-0.3,0.0,1.0,340.0,977.0,0.0,1,-197.0,0
1288,1288,-0.751826193931227,-0.8,1.0,0.0,474.0,863.0,1.0,1,-347.0,0
1289,1289,0.8574849479898091,0.9,0.0,0.0,262.0,863.0,1.0,0,-85.0,0
1290,1290,-0.7035532131466591,-0.7,0.0,1.0,297.0,500.0,1.0,0,-27.0,1
1291,1291,-0.3820023622696229,-0.4,1.0,0.0,368.0,981.0,0.0,0,211.0,1
1292,1292,-0.525087196475609,-0.5,0.0,1.0,447.0,718.0,1.0,0,-255.0,1
1293,1293,0.8678402774187607,0.9,1.0,1.0,294.0,619.0,1.0,1,247.0,1
1294,1294,-0.5477156693631092,-0.5,1.0,0.0,295.0,825.0,1.0,1,-400.0,0
1295,1295,-0.690221304571419,-0.7,0.0,1.0,282.0,561.0,1.0,0,597.0,1
1296,1296,-0.30028251468428035,-0.3,1.0,0.0,338.0,847.0,1.0,1,-165.0,0
1297,1297,0.28657534776148463,0.3,1.0,1.0,405.0,642.0,1.0,1,323.0,1
1298,1298,-0.6555073474488325,-0.7,0.0,1.0,290.0,716.0,1.0,0,-26.0,1
1299,1299,0.7627654331325321,0.8,1.0,1.0,277.0,754.0,1.0,1,-551.0,1
1300,1300,-0.057360731786268104,-0.1,1.0,0.0,275.0,772.0,0.0,0,393.0,1
1301,1301,-0.34955479896240205,-0.3,0.0,1.0,348.0,781.0,1.0,0,-129.0,1
1302,1302,0.2596581911994046,0.3,0.0,0.0,324.0,510.0,1.0,0,386.0,0
1303,1303,-0.5762629961779995,-0.6,0.0,1.0,308.0,606.0,1.0,0,146.0,1
1304,1304,-0.8768579744543796,-0.9,1.0,0.0,269.0,640.0,0.0,0,411.0,1
1305,1305,-0.5642752115088017,-0.6,1.0,0.0,286.0,619.0,0.0,0,375.0,1
1306,1306,-0.5817883226156664,-0.6,1.0,0.0,497.0,646.0,0.0,0,-153.0,1
1307,1307,0.10502142630745437,0.1,0.0,0.0,332.0,624.0,1.0,0,794.0,0
1308,1308,-0.3951655188797365,-0.4,1.0,0.0,347.0,624.0,1.0,1,-51.0,0
1309,1309,-0.8376858838094821,-0.8,0.0,1.0,307.0,640.0,1.0,0,133.0,1
1310,1310,-0.30149951172682965,-0.3,1.0,0.0,315.0,604.0,0.0,0,751.0,1
1311,1311,0.7667492259363843,0.8,1.0,1.0,277.0,554.0,1.0,1,589.0,1
1312,1312,0.3289549567105713,0.3,1.0,1.0,441.0,529.0,1.0,1,320.0,1
1313,1313,0.5428504181520183,0.5,0.0,0.0,348.0,634.0,1.0,0,-62.0,0
1314,1314,0.08268388755842171,0.1,1.0,1.0,428.0,824.0,1.0,1,558.0,1
1315,1315,-0.8025805412470359,-0.8,1.0,0.0,425.0,726.0,0.0,0,139.0,1
1316,1316,-0.8581489308528893,-0.9,0.0,1.0,265.0,560.0,1.0,0,185.0,1
1317,1317,-0.2138399477272659,-0.2,1.0,0.0,429.0,689.0,1.0,1,-78.0,0
1318,1318,-0.8351686610071306,-0.8,1.0,0.0,251.0,817.0,0.0,0,372.0,1
1319,1319,-0.4190068304747803,-0.4,0.0,1.0,457.0,794.0,1.0,0,-31.0,1
1320,1320,-0.3048122456743585,-0.3,1.0,0.0,283.0,574.0,0.0,0,663.0,1
1321,1321,-0.22808399769900223,-0.2,0.0,1.0,394.0,614.0,1.0,0,412.0,1
1322,1322,0.23944973422302385,0.2,1.0,1.0,343.0,500.0,1.0,1,887.0,1
1323,1323,-0.7619516343222487,-0.8,1.0,0.0,323.0,866.0,0.0,0,661.0,1
1324,1324,0.6675191552037593,0.7,1.0,1.0,435.0,820.0,1.0,1,-235.0,1
1325,1325,-0.15529281136849937,-0.2,0.0,1.0,265.0,755.0,1.0,0,440.0,1
1326,1326,0.5342628205334924,0.5,0.0,0.0,413.0,534.0,1.0,0,53.0,0
1327,1327,-0.6202508464785792,-0.6,0.0,1.0,325.0,925.0,1.0,0,40.0,1
1328,1328,-0.09516326116510443,-0.1,1.0,0.0,393.0,541.0,0.0,0,2266.0,1
1329,1329,0.23709669444866088,0.2,0.0,0.0,377.0,568.0,1.0,0,1445.0,0
1330,1330,0.8763934462109108,0.9,1.0,1.0,300.0,624.0,1.0,1,-304.0,1
1331,1331,-0.16883482504287062,-0.2,0.0,1.0,488.0,788.0,0.0,1,564.0,0
1332,1332,0.2011232430183364,0.2,0.0,0.0,449.0,646.0,0.0,1,385.0,1
1333,1333,-0.1300203528856344,-0.1,1.0,0.0,274.0,688.0,0.0,0,468.0,1
1334,1334,0.13989336746975922,0.1,0.0,0.0,414.0,698.0,1.0,0,-182.0,0
1335,1335,0.14271322349588156,0.1,1.0,1.0,422.0,808.0,1.0,1,180.0,1
1336,1336,-0.7983924374620586,-0.8,1.0,0.0,427.0,587.0,0.0,0,116.0,1
1337,1337,-0.7615012785682295,-0.8,0.0,1.0,429.0,595.0,1.0,0,126.0,1
1338,1338,-0.00019504899805888876,-0.0,0.0,1.0,439.0,930.0,1.0,0,501.0,1
1339,1339,-0.3905346174621559,-0.4,1.0,0.0,310.0,960.0,0.0,0,300.0,1
1340,1340,-0.8039083702547675,-0.8,1.0,0.0,379.0,996.0,1.0,1,-265.0,0
1341,1341,0.45226999563458536,0.5,0.0,0.0,276.0,612.0,0.0,1,752.0,1
1342,1342,-0.5814559954059457,-0.6,1.0,0.0,389.0,832.0,1.0,1,-331.0,0
1343,1343,-0.007496505647789142,-0.0,1.0,0.0,265.0,741.0,1.0,1,154.0,0
1344,1344,0.07029176535990389,0.1,0.0,0.0,263.0,729.0,1.0,0,-22.0,0
1345,1345,0.8641214361654063,0.9,1.0,1.0,258.0,773.0,1.0,1,-841.0,1
1346,1346,-0.7571909984944406,-0.8,1.0,0.0,480.0,947.0,0.0,0,193.0,1
1347,1347,0.6628808647853385,0.7,1.0,1.0,386.0,847.0,1.0,1,-373.0,1
1348,1348,0.26966686054060374,0.3,1.0,1.0,342.0,512.0,1.0,1,856.0,1
1349,1349,-0.49479388875679303,-0.5,1.0,0.0,386.0,600.0,0.0,0,804.0,1
1350,1350,0.20495361701066084,0.2,0.0,0.0,490.0,624.0,0.0,1,756.0,1
1351,1351,0.2573671874629483,0.3,1.0,1.0,466.0,602.0,1.0,1,692.0,1
1352,1352,-0.27637263096144593,-0.3,1.0,0.0,310.0,746.0,0.0,0,374.0,1
1353,1353,0.2592770222024273,0.3,0.0,0.0,424.0,635.0,0.0,1,431.0,1
1354,1354,0.31128144202476327,0.3,1.0,1.0,366.0,859.0,1.0,1,835.0,1
1355,1355,0.4678191399579882,0.5,1.0,1.0,426.0,878.0,1.0,1,116.0,1
1356,1356,-0.7565326355508127,-0.8,1.0,0.0,344.0,867.0,1.0,1,-291.0,0
1357,1357,0.7539585212420715,0.8,1.0,1.0,457.0,950.0,1.0,1,-1367.0,1
1358,1358,-0.6243681632786189,-0.6,1.0,0.0,456.0,573.0,1.0,1,-799.0,0
1359,1359,0.12201475355402913,0.1,0.0,0.0,402.0,668.0,1.0,0,-110.0,0
1360,1360,0.7802223122367339,0.8,0.0,0.0,433.0,721.0,1.0,0,-194.0,0
1361,1361,-0.8905953872175046,-0.9,1.0,0.0,381.0,603.0,0.0,0,936.0,1
1362,1362,0.8614681794724289,0.9,1.0,1.0,495.0,899.0,1.0,1,176.0,1
1363,1363,-0.3551036874123602,-0.4,0.0,1.0,261.0,921.0,1.0,0,-252.0,1
1364,1364,0.8385529003971878,0.8,1.0,1.0,438.0,503.0,1.0,1,299.0,1
1365,1365,-0.6509278368936987,-0.7,1.0,0.0,276.0,813.0,0.0,0,311.0,1
1366,1366,0.3098934685932023,0.3,1.0,1.0,325.0,681.0,1.0,1,454.0,1
1367,1367,0.5785547056611925,0.6,1.0,1.0,347.0,539.0,1.0,1,1694.0,1
1368,1368,0.7849439609255419,0.8,1.0,1.0,292.0,633.0,1.0,1,55.0,1
1369,1369,0.4647899934051888,0.5,0.0,0.0,317.0,766.0,1.0,0,-363.0,0
1370,1370,-0.7655708067732039,-0.8,1.0,0.0,300.0,593.0,0.0,0,487.0,1
1371,1371,-0.15580007236601445,-0.2,1.0,0.0,319.0,778.0,1.0,1,-427.0,0
1372,1372,-0.39427860644887636,-0.4,1.0,0.0,342.0,712.0,0.0,0,86.0,1
1373,1373,0.6957673758452637,0.7,1.0,1.0,403.0,642.0,1.0,1,-105.0,1
1374,1374,0.46766184300561064,0.5,0.0,0.0,384.0,863.0,1.0,0,-177.0,0
1375,1375,-0.18905822150029283,-0.2,1.0,0.0,302.0,894.0,0.0,0,1234.0,1
1376,1376,-0.6622485134612309,-0.7,0.0,1.0,363.0,690.0,1.0,0,77.0,1
1377,1377,0.2999163445086198,0.3,1.0,1.0,278.0,995.0,1.0,1,117.0,1
1378,1378,0.1772728882508109,0.2,0.0,0.0,395.0,679.0,1.0,0,586.0,0
1379,1379,0.5701560195485554,0.6,1.0,1.0,498.0,597.0,1.0,1,315.0,1
1380,1380,-0.24590378126917056,-0.2,0.0,1.0,350.0,518.0,1.0,0,202.0,1
1381,1381,-0.23109581881708607,-0.2,0.0,1.0,352.0,587.0,1.0,0,511.0,1
1382,1382,-0.36178992428106815,-0.4,0.0,1.0,393.0,895.0,0.0,1,-158.0,0
1383,1383,-0.8528176351081206,-0.9,1.0,0.0,263.0,725.0,1.0,1,-218.0,0
1384,1384,-0.5909664616565711,-0.6,1.0,0.0,454.0,747.0,1.0,1,-91.0,0
1385,1385,-0.15308704388406125,-0.2,1.0,0.0,456.0,885.0,0.0,0,-71.0,1
1386,1386,0.6118894126253241,0.6,0.0,0.0,420.0,519.0,0.0,1,-449.0,1
1387,1387,-0.0863302331622583,-0.1,1.0,0.0,480.0,609.0,1.0,1,291.0,0
1388,1388,0.11692654185406182,0.1,1.0,1.0,486.0,518.0,1.0,1,46.0,1
1389,1389,0.4457418305890547,0.4,0.0,0.0,456.0,552.0,1.0,0,-248.0,0
1390,1390,-0.03428935187450799,-0.0,1.0,0.0,379.0,560.0,1.0,1,-159.0,0
1391,1391,0.41678204125328555,0.4,1.0,1.0,294.0,962.0,0.0,0,-396.0,0
1392,1392,-0.38871538709707776,-0.4,0.0,1.0,429.0,684.0,1.0,0,1757.0,1
1393,1393,-0.39230610615321115,-0.4,1.0,0.0,491.0,815.0,0.0,0,614.0,1
1394,1394,0.8232247749829446,0.8,0.0,0.0,297.0,785.0,1.0,0,-112.0,0
1395,1395,-0.40304507692919095,-0.4,0.0,1.0,489.0,806.0,1.0,0,55.0,1
1396,1396,0.0527782221848927,0.1,1.0,1.0,393.0,641.0,1.0,1,2806.0,1
1397,1397,-0.47331889559938756,-0.5,1.0,0.0,412.0,583.0,0.0,0,425.0,1
1398,1398,-0.003137003419984019,-0.0,0.0,1.0,289.0,985.0,1.0,0,-914.0,1
1399,1399,-0.32134846609433043,-0.3,1.0,0.0,446.0,842.0,1.0,1,-388.0,0
1400,1400,-0.7736417695911264,-0.8,0.0,1.0,482.0,588.0,1.0,0,590.0,1
1401,1401,-0.7805862539721194,-0.8,0.0,1.0,312.0,607.0,1.0,0,541.0,1
1402,1402,-0.7882839986082255,-0.8,0.0,1.0,303.0,758.0,1.0,0,-971.0,1
1403,1403,-0.3562083389556896,-0.4,0.0,1.0,337.0,598.0,1.0,0,675.0,1
1404,1404,0.7862702155952607,0.8,1.0,1.0,401.0,683.0,1.0,1,1006.0,1
1405,1405,0.08639431978369938,0.1,1.0,1.0,342.0,936.0,1.0,1,332.0,1
1406,1406,-0.20994368906525573,-0.2,1.0,0.0,284.0,757.0,1.0,1,239.0,0
1407,1407,0.27917452197450976,0.3,0.0,0.0,318.0,884.0,0.0,1,508.0,1
1408,1408,-0.5350286181139453,-0.5,0.0,1.0,456.0,947.0,1.0,0,-123.0,1
1409,1409,-0.5269756956086611,-0.5,1.0,0.0,295.0,510.0,0.0,0,185.0,1
1410,1410,0.5491781837700279,0.5,1.0,1.0,252.0,977.0,1.0,1,-299.0,1
1411,1411,-0.6299569196578102,-0.6,0.0,1.0,362.0,670.0,1.0,0,278.0,1
1412,1412,-0.7156385056594283,-0.7,0.0,1.0,418.0,711.0,1.0,0,581.0,1
1413,1413,0.11278605439914158,0.1,1.0,1.0,271.0,850.0,1.0,1,109.0,1
1414,1414,0.3449819024990558,0.3,0.0,0.0,301.0,942.0,1.0,0,-593.0,0
1415,1415,-0.6188542443463838,-0.6,0.0,1.0,287.0,511.0,1.0,0,692.0,1
1416,1416,0.6737636919333928,0.7,0.0,0.0,437.0,659.0,0.0,1,54.0,1
1417,1417,-0.20983170837545562,-0.2,1.0,0.0,301.0,626.0,0.0,0,113.0,1
1418,1418,0.09058123544122276,0.1,1.0,1.0,276.0,928.0,1.0,1,-214.0,1
1419,1419,0.1961840032691019,0.2,0.0,0.0,421.0,536.0,0.0,1,2063.0,1
1420,1420,0.7563237464979947,0.8,0.0,0.0,424.0,868.0,0.0,1,-72.0,1
1421,1421,0.7473184964958554,0.7,0.0,0.0,487.0,839.0,0.0,1,-206.0,1
1422,1422,-0.04946633003331158,-0.0,1.0,0.0,488.0,948.0,0.0,0,-276.0,1
1423,1423,-0.5625776106485387,-0.6,0.0,1.0,472.0,988.0,0.0,1,10.0,0
1424,1424,0.27974564373901945,0.3,0.0,0.0,280.0,704.0,1.0,0,236.0,0
1425,1425,-0.5222242130886756,-0.5,1.0,0.0,252.0,976.0,0.0,0,122.0,1
1426,1426,0.11457547957979541,0.1,0.0,0.0,366.0,813.0,1.0,0,641.0,0
1427,1427,0.8870753160691646,0.9,0.0,0.0,390.0,983.0,0.0,1,1657.0,1
1428,1428,-0.3792265350761088,-0.4,0.0,1.0,429.0,828.0,1.0,0,-77.0,1
1429,1429,0.31682753236973193,0.3,0.0,0.0,290.0,653.0,0.0,1,747.0,1
1430,1430,0.16080811426435437,0.2,1.0,1.0,286.0,714.0,1.0,1,590.0,1
1431,1431,0.6773831830017031,0.7,1.0,1.0,458.0,654.0,1.0,1,148.0,1
1432,1432,-0.5920649126277748,-0.6,1.0,0.0,455.0,896.0,1.0,1,-371.0,0
1433,1433,0.751413354065502,0.8,1.0,1.0,292.0,930.0,0.0,0,-162.0,0
1434,1434,-0.8949029548418848,-0.9,0.0,1.0,282.0,519.0,1.0,0,89.0,1
1435,1435,-0.4788770224245755,-0.5,1.0,0.0,271.0,859.0,0.0,0,550.0,1
1436,1436,0.08280493844917003,0.1,1.0,1.0,324.0,757.0,1.0,1,139.0,1
1437,1437,-0.872930516418118,-0.9,1.0,0.0,428.0,747.0,0.0,0,115.0,1
1438,1438,0.14345457487500657,0.1,0.0,0.0,376.0,512.0,0.0,1,812.0,1
1439,1439,-0.6955304492316408,-0.7,0.0,1.0,330.0,659.0,1.0,0,291.0,1
1440,1440,-0.677104501354895,-0.7,1.0,0.0,332.0,515.0,0.0,0,1003.0,1
1441,1441,-0.5811844603972487,-0.6,0.0,1.0,380.0,778.0,0.0,1,-478.0,0
1442,1442,0.34394094375482387,0.3,0.0,0.0,307.0,527.0,1.0,0,26.0,0
1443,1443,0.6947684053647248,0.7,1.0,1.0,414.0,883.0,1.0,1,283.0,1
1444,1444,0.47586760403519957,0.5,0.0,0.0,470.0,843.0,0.0,1,37.0,1
1445,1445,-0.6041697380978588,-0.6,0.0,1.0,465.0,920.0,0.0,1,5.0,0
1446,1446,-0.32706626956177887,-0.3,0.0,1.0,419.0,995.0,1.0,0,-484.0,1
1447,1447,0.7306509752245417,0.7,1.0,1.0,272.0,564.0,1.0,1,4.0,1
1448,1448,-0.2921061305891317,-0.3,1.0,0.0,456.0,705.0,0.0,0,359.0,1
1449,1449,-0.08646581690146038,-0.1,1.0,0.0,358.0,804.0,1.0,1,2888.0,0
1450,1450,0.1906898765363253,0.2,1.0,1.0,322.0,805.0,1.0,1,-7.0,1
1451,1451,0.8377260995936892,0.8,0.0,0.0,308.0,519.0,1.0,0,-147.0,0
1452,1452,0.5029828275290459,0.5,1.0,1.0,495.0,525.0,1.0,1,130.0,1
1453,1453,-0.20726797329001434,-0.2,0.0,1.0,303.0,562.0,1.0,0,275.0,1
1454,1454,0.07013088133679979,0.1,1.0,1.0,436.0,978.0,0.0,0,-374.0,0
1455,1455,-0.4524469046451534,-0.5,1.0,0.0,477.0,654.0,1.0,1,379.0,0
1456,1456,0.227006451586253,0.2,1.0,1.0,320.0,576.0,1.0,1,874.0,1
1457,1457,0.03463641741358414,0.0,1.0,1.0,348.0,790.0,1.0,1,-628.0,1
1458,1458,0.8374460335443291,0.8,0.0,0.0,490.0,826.0,0.0,1,-46.0,1
1459,1459,-0.32642502693885456,-0.3,1.0,0.0,279.0,683.0,0.0,0,1018.0,1
1460,1460,-0.27984091185703364,-0.3,1.0,0.0,469.0,670.0,0.0,0,-149.0,1
1461,1461,0.01419513580781906,0.0,0.0,0.0,428.0,792.0,1.0,0,-930.0,0
1462,1462,-0.7891035187364284,-0.8,1.0,0.0,297.0,872.0,0.0,0,161.0,1
1463,1463,-0.3827813765559419,-0.4,0.0,1.0,319.0,599.0,1.0,0,72.0,1
1464,1464,0.775921915312613,0.8,0.0,0.0,335.0,769.0,0.0,1,166.0,1
1465,1465,0.0628052530847314,0.1,1.0,1.0,315.0,847.0,0.0,0,208.0,0
1466,1466,0.6724243543664395,0.7,0.0,0.0,303.0,984.0,0.0,1,53.0,1
1467,1467,0.837991424226637,0.8,0.0,0.0,318.0,650.0,1.0,0,-218.0,0
1468,1468,-0.2093188185817979,-0.2,0.0,1.0,442.0,526.0,1.0,0,582.0,1
1469,1469,-0.7889531373899853,-0.8,0.0,1.0,463.0,671.0,0.0,1,-1104.0,0
1470,1470,0.26563353197415573,0.3,1.0,1.0,473.0,510.0,1.0,1,-283.0,1
1471,1471,-0.011463158292968068,-0.0,1.0,0.0,413.0,544.0,1.0,1,533.0,0
1472,1472,0.5981338883318718,0.6,0.0,0.0,339.0,913.0,0.0,1,-232.0,1
1473,1473,-0.4966220193537699,-0.5,1.0,0.0,274.0,516.0,0.0,0,60.0,1
1474,1474,-0.8428974398345238,-0.8,1.0,0.0,267.0,535.0,0.0,0,158.0,1
1475,1475,0.4224371391548368,0.4,1.0,1.0,405.0,737.0,1.0,1,-392.0,1
1476,1476,0.3408511409400866,0.3,1.0,1.0,374.0,619.0,1.0,1,97.0,1
1477,1477,0.07153669625600412,0.1,1.0,1.0,499.0,928.0,0.0,0,-307.0,0
1478,1478,-0.8697779038146524,-0.9,0.0,1.0,341.0,564.0,1.0,0,25.0,1
1479,1479,-0.568153901044812,-0.6,1.0,0.0,265.0,900.0,0.0,0,195.0,1
1480,1480,0.7362977539305452,0.7,0.0,0.0,252.0,906.0,1.0,0,-138.0,0
1481,1481,0.33115714626550175,0.3,0.0,0.0,268.0,609.0,1.0,0,-337.0,0
1482,1482,-0.5130048122090777,-0.5,0.0,1.0,307.0,506.0,1.0,0,-43.0,1
1483,1483,0.32610224987390446,0.3,1.0,1.0,486.0,952.0,0.0,0,-668.0,0
1484,1484,0.3955981720129901,0.4,1.0,1.0,346.0,557.0,1.0,1,287.0,1
1485,1485,-0.012324307784598365,-0.0,1.0,0.0,346.0,819.0,1.0,1,-355.0,0
1486,1486,0.579675321642498,0.6,0.0,0.0,284.0,909.0,1.0,0,-443.0,0
