,trial,coherence,coherence_bin,green_side,correct_side,target_onset,checker_onset,decision,green_decision,decision_time,correct_decision
0,0,0.20153393941621245,0.2,0.0,0.0,354.0,961.0,0.0,1,3685.0,1
1,1,0.7613475460006421,0.8,0.0,0.0,397.0,683.0,0.0,1,3920.0,1
2,2,-0.4411063597838366,-0.4,0.0,1.0,434.0,707.0,0.0,1,3859.0,0
3,3,-0.2234637815759265,-0.2,0.0,1.0,251.0,659.0,0.0,1,4090.0,0
4,4,-0.5769650790685361,-0.6,0.0,1.0,388.0,711.0,0.0,1,-1069.0,0
5,5,-0.18956664804617263,-0.2,0.0,1.0,349.0,839.0,0.0,1,3812.0,0
6,6,-0.6795104810128835,-0.7,1.0,0.0,257.0,916.0,0.0,0,3827.0,1
7,7,0.04415190066676267,0.0,1.0,1.0,331.0,899.0,0.0,0,3770.0,0
8,8,0.003709815688655582,0.0,1.0,1.0,439.0,608.0,0.0,0,3953.0,0
9,9,0.8708476144406009,0.9,0.0,0.0,386.0,715.0,0.0,1,3899.0,1
10,10,0.4802082564634703,0.5,1.0,1.0,473.0,668.0,0.0,0,3859.0,0
11,11,0.10602517116658905,0.1,1.0,1.0,304.0,760.0,0.0,0,3936.0,0
12,12,-0.185091201974389,-0.2,1.0,0.0,380.0,943.0,0.0,0,3677.0,1
13,13,-0.20473101248859882,-0.2,0.0,1.0,451.0,932.0,0.0,1,3617.0,0
14,14,-0.11974409759076599,-0.1,0.0,1.0,312.0,567.0,0.0,1,4121.0,0
15,15,-0.39209249436973126,-0.4,1.0,0.0,359.0,940.0,0.0,0,3701.0,1
16,16,-0.7860325702282273,-0.8,1.0,0.0,473.0,563.0,0.0,0,3964.0,1
17,17,-0.8874475300358156,-0.9,1.0,0.0,481.0,823.0,0.0,0,3696.0,1
18,18,-0.44837478308787687,-0.4,0.0,1.0,431.0,925.0,0.0,1,3644.0,0
19,19,0.13200948131788015,0.1,1.0,1.0,397.0,748.0,0.0,0,3855.0,0
20,20,-0.4216796496536388,-0.4,0.0,1.0,346.0,900.0,0.0,1,3754.0,0
21,21,-0.6256037535927881,-0.6,1.0,0.0,471.0,585.0,0.0,0,3944.0,1
22,22,0.4972908888536237,0.5,0.0,0.0,317.0,778.0,1.0,0,-985.0,0
23,23,-0.049631069548965234,-0.0,0.0,1.0,446.0,641.0,0.0,1,3913.0,0
24,24,-0.5331903899626772,-0.5,0.0,1.0,359.0,688.0,0.0,1,3953.0,0
25,25,-0.8599654864934518,-0.9,1.0,0.0,306.0,628.0,0.0,0,4066.0,1
26,26,0.05903266116747885,0.1,0.0,0.0,436.0,960.0,1.0,0,-1376.0,0
27,27,-0.4647714343947786,-0.5,1.0,0.0,272.0,917.0,0.0,0,3811.0,1
28,28,-0.8185993485993737,-0.8,0.0,1.0,437.0,738.0,1.0,0,-1175.0,1
29,29,0.1177526235488896,0.1,0.0,0.0,433.0,932.0,0.0,1,3635.0,1
30,30,-0.6239249190147435,-0.6,0.0,1.0,421.0,657.0,0.0,1,3922.0,0
31,31,0.040284548040493084,0.0,1.0,1.0,465.0,834.0,0.0,0,3701.0,0
32,32,0.6384316863904037,0.6,1.0,1.0,297.0,990.0,0.0,0,3713.0,0
33,33,0.6853278114670743,0.7,1.0,1.0,270.0,730.0,0.0,0,4000.0,0
34,34,-0.6320220891052495,-0.6,0.0,1.0,460.0,960.0,0.0,1,3580.0,0
35,35,-0.6861516556621351,-0.7,1.0,0.0,495.0,882.0,0.0,0,-1287.0,1
36,36,-0.5216114337383395,-0.5,0.0,1.0,481.0,579.0,0.0,1,3940.0,0
37,37,0.3364412553017412,0.3,1.0,1.0,266.0,664.0,0.0,0,4070.0,0
38,38,-0.7801955071352535,-0.8,1.0,0.0,440.0,831.0,0.0,0,3729.0,1
39,39,0.38048443496726836,0.4,1.0,1.0,433.0,765.0,0.0,0,3802.0,0
40,40,0.006875837806638363,0.0,1.0,1.0,385.0,503.0,0.0,0,4112.0,0
41,41,-0.5011669284266942,-0.5,0.0,1.0,295.0,880.0,1.0,0,-995.0,1
42,42,-0.882730383978958,-0.9,0.0,1.0,465.0,805.0,0.0,1,3730.0,0
43,43,0.778633731863921,0.8,1.0,1.0,466.0,749.0,0.0,0,3785.0,0
44,44,-0.19934968420093213,-0.2,0.0,1.0,381.0,890.0,1.0,0,-1231.0,1
45,45,0.8226645018133111,0.8,0.0,0.0,264.0,862.0,0.0,1,3874.0,1
46,46,0.6803627043473709,0.7,1.0,1.0,352.0,520.0,0.0,0,4128.0,0
47,47,-0.6929802282343884,-0.7,1.0,0.0,341.0,655.0,0.0,0,4004.0,1
48,48,0.8684794361660518,0.9,0.0,0.0,262.0,671.0,0.0,1,4067.0,1
49,49,-0.49138645396171715,-0.5,0.0,1.0,371.0,514.0,0.0,1,4115.0,0
50,50,-0.21834450288913754,-0.2,1.0,0.0,332.0,947.0,0.0,0,3721.0,1
51,51,0.6075920294182574,0.6,1.0,1.0,475.0,719.0,1.0,1,-1014.0,1
52,52,-0.10929521591831759,-0.1,1.0,0.0,494.0,661.0,0.0,0,3845.0,1
53,53,0.5500825362186065,0.6,0.0,0.0,326.0,763.0,0.0,1,3911.0,1
54,54,0.5374730666504767,0.5,1.0,1.0,251.0,866.0,0.0,0,3883.0,0
55,55,-0.3696609221652034,-0.4,0.0,1.0,444.0,516.0,0.0,1,4040.0,0
56,56,0.10116701597108346,0.1,0.0,0.0,491.0,745.0,0.0,1,3764.0,1
57,57,0.1261884500032996,0.1,0.0,0.0,282.0,847.0,0.0,1,3871.0,1
58,58,0.34249520636548036,0.3,0.0,0.0,273.0,819.0,0.0,1,3908.0,1
59,59,0.09661746608386279,0.1,1.0,1.0,458.0,600.0,0.0,0,3942.0,0
60,60,-0.5023102150664372,-0.5,0.0,1.0,437.0,742.0,0.0,1,3821.0,0
61,61,0.550666942618166,0.6,1.0,1.0,497.0,653.0,0.0,0,-1100.0,0
62,62,0.8239015854848873,0.8,0.0,0.0,373.0,917.0,0.0,1,-1110.0,1
63,63,-0.8093578728787661,-0.8,1.0,0.0,309.0,529.0,0.0,0,4162.0,1
64,64,-0.14604948566786613,-0.1,1.0,0.0,431.0,914.0,0.0,0,3655.0,1
65,65,0.5223950578908253,0.5,0.0,0.0,363.0,963.0,0.0,1,3674.0,1
66,66,0.6368855303837183,0.6,0.0,0.0,404.0,716.0,0.0,1,3880.0,1
67,67,-0.33012209085909383,-0.3,0.0,1.0,382.0,956.0,0.0,1,3662.0,0
68,68,-0.18223953370609391,-0.2,0.0,1.0,387.0,586.0,0.0,1,4027.0,0
69,69,0.44784511410027894,0.4,1.0,1.0,346.0,818.0,1.0,1,-1124.0,1
70,70,-0.7154561518043585,-0.7,0.0,1.0,259.0,754.0,0.0,1,3987.0,0
71,71,0.6028940849484191,0.6,0.0,0.0,268.0,527.0,0.0,1,4205.0,1
72,72,0.6984797900538474,0.7,0.0,0.0,467.0,545.0,0.0,1,3988.0,1
73,73,0.5562583015235864,0.6,0.0,0.0,393.0,830.0,0.0,1,3777.0,1
74,74,-0.6934325261027816,-0.7,1.0,0.0,491.0,989.0,0.0,0,3520.0,1
75,75,-0.38330072484007904,-0.4,0.0,1.0,305.0,842.0,0.0,1,3853.0,0
76,76,-0.09777327689305737,-0.1,1.0,0.0,337.0,974.0,0.0,0,3689.0,1
77,77,-0.4747296659387293,-0.5,1.0,0.0,444.0,975.0,0.0,0,3581.0,1
78,78,0.8462473808126846,0.8,1.0,1.0,382.0,808.0,0.0,0,3810.0,0
79,79,0.22465680959100387,0.2,0.0,0.0,399.0,694.0,0.0,1,3907.0,1
80,80,-0.2565010583013113,-0.3,0.0,1.0,478.0,869.0,0.0,1,3653.0,0
81,81,-0.3635909879534085,-0.4,0.0,1.0,404.0,863.0,0.0,1,3733.0,0
82,82,-0.31769948808478754,-0.3,1.0,0.0,349.0,615.0,0.0,0,4036.0,1
83,83,0.4726019250100918,0.5,1.0,1.0,385.0,898.0,0.0,0,3717.0,0
84,84,-0.7537675314820163,-0.8,0.0,1.0,285.0,643.0,0.0,1,4072.0,0
85,85,-0.48345352755069065,-0.5,1.0,0.0,308.0,912.0,0.0,0,3780.0,1
86,86,0.8561148031026401,0.9,1.0,1.0,399.0,602.0,0.0,0,3999.0,0
87,87,0.5309799224246784,0.5,0.0,0.0,435.0,802.0,0.0,1,3763.0,1
88,88,-0.008950464646674816,-0.0,1.0,0.0,333.0,825.0,0.0,0,3842.0,1
89,89,-0.2386013595566896,-0.2,1.0,0.0,454.0,677.0,0.0,0,3869.0,1
90,90,-0.3242528537072209,-0.3,1.0,0.0,392.0,663.0,0.0,0,3945.0,1
91,91,0.29918335086747916,0.3,1.0,1.0,484.0,804.0,0.0,0,3712.0,0
92,92,-0.5283472144193415,-0.5,1.0,0.0,467.0,735.0,0.0,0,3798.0,1
93,93,0.4540433114343937,0.5,0.0,0.0,420.0,922.0,0.0,1,3658.0,1
94,94,-0.4436869952560572,-0.4,0.0,1.0,317.0,823.0,0.0,1,3860.0,0
95,95,0.6417481200920171,0.6,1.0,1.0,393.0,795.0,0.0,0,3812.0,0
96,96,0.30404314286613865,0.3,1.0,1.0,494.0,512.0,0.0,0,3994.0,0
97,97,0.4431860144165197,0.4,1.0,1.0,329.0,904.0,0.0,0,3767.0,0
98,98,0.3279599336934299,0.3,1.0,1.0,263.0,880.0,0.0,0,3857.0,0
99,99,0.041470999310670664,0.0,0.0,0.0,310.0,682.0,0.0,1,4008.0,1
100,100,-0.3354877014962717,-0.3,0.0,1.0,394.0,999.0,0.0,1,3607.0,0
101,101,-0.108206916411688,-0.1,1.0,0.0,269.0,575.0,0.0,0,4156.0,1
102,102,-0.8260805540869315,-0.8,0.0,1.0,328.0,536.0,1.0,0,-754.0,1
103,103,0.001308046686514408,0.0,0.0,0.0,368.0,766.0,0.0,1,3866.0,1
104,104,0.24794905976734294,0.2,0.0,0.0,482.0,598.0,0.0,1,3920.0,1
105,105,0.844398335609298,0.8,1.0,1.0,382.0,678.0,0.0,0,3940.0,0
106,106,0.8866161830422717,0.9,1.0,1.0,410.0,588.0,0.0,0,4002.0,0
107,107,-0.05151257684970989,-0.1,1.0,0.0,495.0,658.0,0.0,0,3847.0,1
108,108,-0.8494463606123458,-0.8,0.0,1.0,252.0,792.0,0.0,1,3956.0,0
109,109,0.1687394309499769,0.2,0.0,0.0,261.0,705.0,0.0,1,4034.0,1
110,110,0.8442634536634676,0.8,0.0,0.0,283.0,668.0,0.0,1,4049.0,1
111,111,0.3673239023654119,0.4,1.0,1.0,482.0,670.0,0.0,0,3848.0,0
112,112,0.8567773028077895,0.9,0.0,0.0,310.0,610.0,0.0,1,4080.0,1
113,113,0.5193212727849766,0.5,1.0,1.0,472.0,713.0,1.0,1,-1185.0,1
114,114,-0.28480704062434636,-0.3,0.0,1.0,495.0,600.0,0.0,1,-1035.0,0
115,115,0.19544927284139912,0.2,1.0,1.0,382.0,605.0,0.0,0,4013.0,0
116,116,-0.14425065143532823,-0.1,1.0,0.0,261.0,624.0,0.0,0,4115.0,1
117,117,0.3078730773541455,0.3,1.0,1.0,402.0,933.0,0.0,0,3665.0,0
118,118,0.32829947015460104,0.3,0.0,0.0,325.0,798.0,0.0,1,3877.0,1
119,119,0.3921015085896654,0.4,1.0,1.0,365.0,808.0,0.0,0,3827.0,0
120,120,-0.2446873561083177,-0.2,0.0,1.0,360.0,960.0,0.0,1,3680.0,0
121,121,-0.8001822820465423,-0.8,1.0,0.0,330.0,552.0,0.0,0,4118.0,1
122,122,0.7481105591009664,0.7,1.0,1.0,333.0,968.0,0.0,0,3699.0,0
123,123,0.7578965653408892,0.8,1.0,1.0,361.0,883.0,0.0,0,3756.0,0
124,124,-0.48423613583134845,-0.5,0.0,1.0,349.0,513.0,1.0,0,-772.0,1
125,125,-0.12885519364573472,-0.1,0.0,1.0,298.0,957.0,0.0,1,-1225.0,0
126,126,-0.7958216479495838,-0.8,0.0,1.0,308.0,973.0,0.0,1,3719.0,0
127,127,0.21044402854842337,0.2,0.0,0.0,398.0,776.0,0.0,1,3826.0,1
128,128,0.38876609839040166,0.4,0.0,0.0,466.0,705.0,0.0,1,3829.0,1
129,129,0.795935444614767,0.8,1.0,1.0,483.0,539.0,0.0,0,3978.0,0
130,130,0.015876042527296574,0.0,0.0,0.0,473.0,711.0,0.0,1,3816.0,1
131,131,0.43660284466707944,0.4,0.0,0.0,320.0,717.0,0.0,1,3963.0,1
132,132,-0.4344610734655168,-0.4,0.0,1.0,285.0,979.0,0.0,1,3736.0,0
133,133,-0.28559765139548965,-0.3,0.0,1.0,290.0,553.0,0.0,1,4157.0,0
134,134,-0.1737132081276157,-0.2,0.0,1.0,389.0,900.0,0.0,1,3711.0,0
135,135,-0.2920168388899167,-0.3,0.0,1.0,380.0,896.0,0.0,1,3724.0,0
136,136,0.6820002307014333,0.7,1.0,1.0,445.0,506.0,0.0,0,4049.0,0
137,137,0.5696179757419689,0.6,1.0,1.0,458.0,683.0,0.0,0,3859.0,0
138,138,0.6872147554611979,0.7,0.0,0.0,378.0,887.0,0.0,1,3735.0,1
139,139,-0.04497117796952754,-0.0,1.0,0.0,429.0,702.0,0.0,0,3869.0,1
140,140,0.5298099059929254,0.5,0.0,0.0,443.0,701.0,1.0,0,-1114.0,0
141,141,0.5101832947417991,0.5,1.0,1.0,453.0,987.0,0.0,0,3560.0,0
142,142,0.28154676666409395,0.3,0.0,0.0,487.0,980.0,0.0,1,3533.0,1
143,143,0.7460486354127597,0.7,0.0,0.0,446.0,870.0,0.0,1,3684.0,1
144,144,0.0300379188101777,0.0,0.0,0.0,345.0,725.0,1.0,0,-1000.0,0
145,145,0.2666628011814599,0.3,1.0,1.0,270.0,871.0,0.0,0,3859.0,0
146,146,0.015997485700379954,0.0,0.0,0.0,261.0,838.0,0.0,1,3901.0,1
147,147,0.09247236251457847,0.1,1.0,1.0,251.0,881.0,0.0,0,3868.0,0
148,148,-0.5103082821113077,-0.5,1.0,0.0,285.0,682.0,0.0,0,4033.0,1
149,149,-0.24541529744418233,-0.2,1.0,0.0,389.0,917.0,0.0,0,3694.0,1
150,150,0.06359056957526066,0.1,0.0,0.0,404.0,682.0,0.0,1,3914.0,1
151,151,0.3166389643927282,0.3,0.0,0.0,499.0,870.0,0.0,1,3631.0,1
152,152,-0.49373336914641697,-0.5,1.0,0.0,379.0,981.0,0.0,0,3640.0,1
153,153,0.6144871817408356,0.6,0.0,0.0,442.0,530.0,0.0,1,4028.0,1
154,154,-0.6274435974875354,-0.6,0.0,1.0,498.0,685.0,0.0,1,3817.0,0
155,155,-0.8814986543398304,-0.9,1.0,0.0,419.0,910.0,0.0,0,3671.0,1
156,156,0.5670632225266728,0.6,1.0,1.0,450.0,789.0,0.0,0,3761.0,0
157,157,0.6755862168390664,0.7,1.0,1.0,382.0,938.0,0.0,0,3680.0,0
158,158,-0.37516680476973585,-0.4,0.0,1.0,467.0,583.0,0.0,1,3950.0,0
159,159,-0.7872920180075851,-0.8,0.0,1.0,439.0,548.0,1.0,0,-937.0,1
160,160,0.8953243528037381,0.9,1.0,1.0,298.0,911.0,1.0,1,-1199.0,1
161,161,0.3639369983121542,0.4,0.0,0.0,443.0,697.0,0.0,1,3860.0,1
162,162,0.8324778948564376,0.8,1.0,1.0,306.0,741.0,0.0,0,3953.0,0
163,163,-0.7587758838295342,-0.8,0.0,1.0,365.0,673.0,0.0,1,3962.0,0
164,164,-0.5416477823164525,-0.5,0.0,1.0,462.0,657.0,0.0,1,3881.0,0
165,165,0.3822908254627949,0.4,0.0,0.0,440.0,749.0,0.0,1,3811.0,1
166,166,-0.07237706859475379,-0.1,0.0,1.0,413.0,719.0,0.0,1,3868.0,0
167,167,0.776745428241565,0.8,0.0,0.0,305.0,849.0,0.0,1,3846.0,1
168,168,0.45942676454034215,0.5,1.0,1.0,394.0,993.0,0.0,0,3613.0,0
169,169,0.04071711189399485,0.0,1.0,1.0,273.0,644.0,0.0,0,4083.0,0
170,170,-0.05161024884419163,-0.1,0.0,1.0,459.0,613.0,0.0,1,3928.0,0
171,171,-0.17129660164217597,-0.2,1.0,0.0,410.0,770.0,0.0,0,3820.0,1
172,172,0.7393607070754441,0.7,1.0,1.0,264.0,520.0,0.0,0,4216.0,0
173,173,-0.6130880409210999,-0.6,0.0,1.0,480.0,573.0,0.0,1,3947.0,0
174,174,0.128239207836767,0.1,0.0,0.0,387.0,981.0,0.0,1,3632.0,1
175,175,-0.6601750584551204,-0.7,0.0,1.0,433.0,817.0,0.0,1,3750.0,0
176,176,-0.7189376020553948,-0.7,1.0,0.0,433.0,893.0,0.0,0,-1266.0,1
177,177,0.10311929121085484,0.1,0.0,0.0,481.0,965.0,0.0,1,-1426.0,1
178,178,0.4922243707106576,0.5,0.0,0.0,370.0,791.0,0.0,1,-1091.0,1
179,179,-0.368377235356105,-0.4,0.0,1.0,496.0,762.0,0.0,1,3742.0,0
180,180,-0.36016941796482993,-0.4,0.0,1.0,474.0,566.0,0.0,1,3960.0,0
181,181,0.368711329957904,0.4,1.0,1.0,360.0,791.0,1.0,1,-1051.0,1
182,182,0.3448928016042051,0.3,1.0,1.0,272.0,893.0,0.0,0,3835.0,0
183,183,0.022558907982403786,0.0,0.0,0.0,429.0,683.0,0.0,1,-1082.0,1
184,184,-0.7810087485028687,-0.8,0.0,1.0,271.0,849.0,0.0,1,-970.0,0
185,185,-0.03737183559450796,-0.0,1.0,0.0,389.0,538.0,0.0,0,4073.0,1
186,186,-0.5337476574915301,-0.5,1.0,0.0,322.0,645.0,0.0,0,-907.0,1
187,187,-0.0257668608824545,-0.0,0.0,1.0,330.0,719.0,1.0,0,-1039.0,1
188,188,-0.06833474843372445,-0.1,0.0,1.0,456.0,801.0,0.0,1,3743.0,0
189,189,-0.5770921595708387,-0.6,0.0,1.0,331.0,936.0,0.0,1,3733.0,0
190,190,-0.5199602591026262,-0.5,0.0,1.0,386.0,589.0,0.0,1,4025.0,0
191,191,-0.3657447011506263,-0.4,0.0,1.0,384.0,891.0,0.0,1,3725.0,0
192,192,0.5342214077293196,0.5,0.0,0.0,353.0,963.0,0.0,1,3684.0,1
193,193,0.4430368398802499,0.4,0.0,0.0,253.0,835.0,0.0,1,3912.0,1
194,194,-0.7141830783883794,-0.7,1.0,0.0,364.0,806.0,0.0,0,3830.0,1
195,195,0.5294714943465072,0.5,0.0,0.0,341.0,956.0,0.0,1,3703.0,1
196,196,-0.007852627847706461,-0.0,1.0,0.0,262.0,995.0,0.0,0,3743.0,1
197,197,0.5195296570285294,0.5,0.0,0.0,252.0,527.0,0.0,1,4221.0,1
198,198,-0.7207544638092482,-0.7,1.0,0.0,276.0,790.0,0.0,0,3934.0,1
199,199,0.775925526564594,0.8,1.0,1.0,341.0,998.0,0.0,0,3661.0,0
200,200,-0.18606837866823212,-0.2,0.0,1.0,450.0,863.0,0.0,1,3687.0,0
201,201,-0.053241428819905456,-0.1,0.0,1.0,432.0,849.0,0.0,1,3719.0,0
202,202,-0.32335685523661084,-0.3,1.0,0.0,490.0,963.0,0.0,0,3547.0,1
203,203,-0.07308266491148119,-0.1,0.0,1.0,288.0,960.0,0.0,1,3752.0,0
204,204,0.4290850728413119,0.4,0.0,0.0,405.0,566.0,0.0,1,4029.0,1
205,205,0.11273347041479476,0.1,1.0,1.0,448.0,916.0,0.0,0,-1334.0,0
206,206,0.33929371771699,0.3,0.0,0.0,300.0,838.0,0.0,1,3862.0,1
207,207,-0.3320606076657069,-0.3,1.0,0.0,303.0,549.0,0.0,0,4148.0,1
208,208,-0.6669554774118971,-0.7,0.0,1.0,304.0,660.0,0.0,1,4036.0,0
209,209,0.8308599119741779,0.8,1.0,1.0,361.0,664.0,0.0,0,3975.0,0
210,210,-0.6681917113351148,-0.7,1.0,0.0,342.0,948.0,0.0,0,3710.0,1
211,211,-0.5546472198717973,-0.6,1.0,0.0,315.0,552.0,0.0,0,4133.0,1
212,212,0.7646644136495638,0.8,1.0,1.0,337.0,835.0,0.0,0,3828.0,0
213,213,-0.7188066790440903,-0.7,1.0,0.0,448.0,599.0,0.0,0,3953.0,1
214,214,0.026382052602307082,0.0,0.0,0.0,283.0,987.0,0.0,1,3730.0,1
215,215,-0.5645346979869708,-0.6,0.0,1.0,359.0,533.0,1.0,0,-822.0,1
216,216,-0.6951227966553488,-0.7,0.0,1.0,437.0,588.0,0.0,1,3975.0,0
217,217,0.6609651767463983,0.7,0.0,0.0,263.0,563.0,0.0,1,4174.0,1
218,218,-0.7621639809810046,-0.8,1.0,0.0,301.0,603.0,1.0,1,-864.0,0
219,219,-0.8853727434183392,-0.9,0.0,1.0,254.0,698.0,0.0,1,4048.0,0
220,220,-0.475445182933469,-0.5,0.0,1.0,254.0,991.0,0.0,1,-1195.0,0
221,221,0.20860951087722757,0.2,0.0,0.0,288.0,548.0,1.0,0,-806.0,0
222,222,0.2666025456768787,0.3,0.0,0.0,470.0,646.0,0.0,1,3884.0,1
223,223,0.8133985136477903,0.8,0.0,0.0,294.0,502.0,0.0,1,4204.0,1
224,224,0.7807691962832891,0.8,0.0,0.0,463.0,789.0,0.0,1,3748.0,1
225,225,-0.6673889133810089,-0.7,0.0,1.0,302.0,592.0,0.0,1,-854.0,0
226,226,-0.5090388468665432,-0.5,0.0,1.0,375.0,695.0,1.0,0,-960.0,1
227,227,0.6401537511984473,0.6,1.0,1.0,336.0,650.0,0.0,0,4014.0,0
228,228,0.22438692162986607,0.2,1.0,1.0,411.0,584.0,0.0,0,4005.0,0
229,229,0.5221791452132926,0.5,1.0,1.0,254.0,828.0,0.0,0,3918.0,0
230,230,-0.2672969199495888,-0.3,0.0,1.0,489.0,894.0,0.0,1,3617.0,0
231,231,0.7923108962617825,0.8,1.0,1.0,325.0,831.0,0.0,0,3844.0,0
232,232,-0.823630087891334,-0.8,1.0,0.0,396.0,993.0,0.0,0,3611.0,1
233,233,-0.3088395492025021,-0.3,1.0,0.0,357.0,707.0,0.0,0,3936.0,1
234,234,0.40530832977485376,0.4,1.0,1.0,272.0,545.0,0.0,0,4183.0,0
235,235,0.24166838001179036,0.2,0.0,0.0,485.0,877.0,0.0,1,3638.0,1
236,236,-0.4175479948598661,-0.4,1.0,0.0,482.0,848.0,0.0,0,-1250.0,1
237,237,-0.3948452273187808,-0.4,0.0,1.0,460.0,973.0,0.0,1,3567.0,0
238,238,-0.6101642469819816,-0.6,1.0,0.0,250.0,722.0,0.0,0,4028.0,1
239,239,-0.6799994352158399,-0.7,0.0,1.0,307.0,602.0,0.0,1,4091.0,0
240,240,0.14635405375493227,0.1,1.0,1.0,482.0,754.0,1.0,1,-1186.0,1
241,241,0.32199710501442913,0.3,1.0,1.0,381.0,792.0,0.0,0,3827.0,0
242,242,-0.14539699390184313,-0.1,0.0,1.0,468.0,679.0,0.0,1,3853.0,0
243,243,-0.6730137484700329,-0.7,1.0,0.0,414.0,512.0,0.0,0,4074.0,1
244,244,-0.4482155913355676,-0.4,0.0,1.0,436.0,565.0,1.0,0,-1001.0,1
245,245,0.7628879989957659,0.8,1.0,1.0,446.0,547.0,0.0,0,4007.0,0
246,246,0.16594834895223765,0.2,1.0,1.0,301.0,695.0,0.0,0,4004.0,0
247,247,0.3054143923756706,0.3,0.0,0.0,376.0,760.0,0.0,1,3864.0,1
248,248,-0.6266645550493191,-0.6,1.0,0.0,349.0,981.0,1.0,1,-1310.0,0
249,249,0.4353643999633293,0.4,0.0,0.0,287.0,666.0,0.0,1,4047.0,1
250,250,0.7873194950033283,0.8,0.0,0.0,363.0,830.0,0.0,1,3807.0,1
251,251,-0.7094347480125719,-0.7,1.0,0.0,309.0,646.0,0.0,0,4045.0,1
252,252,-0.11822004355381122,-0.1,0.0,1.0,332.0,511.0,0.0,1,4157.0,0
253,253,0.1961623771674187,0.2,1.0,1.0,377.0,872.0,0.0,0,3751.0,0
254,254,0.899239363108527,0.9,0.0,0.0,438.0,906.0,0.0,1,3656.0,1
255,255,0.3990195195144005,0.4,1.0,1.0,435.0,902.0,0.0,0,3663.0,0
256,256,-0.5700265584999871,-0.6,1.0,0.0,282.0,648.0,0.0,0,4070.0,1
257,257,-0.6233257224716868,-0.6,0.0,1.0,352.0,793.0,0.0,1,3855.0,0
258,258,-0.7215751591490185,-0.7,1.0,0.0,418.0,790.0,0.0,0,3792.0,1
259,259,-0.0022008481667440405,-0.0,1.0,0.0,473.0,527.0,0.0,0,4000.0,1
260,260,-0.6798972522248533,-0.7,1.0,0.0,300.0,790.0,0.0,0,3910.0,1
261,261,-0.6669744543479489,-0.7,0.0,1.0,344.0,621.0,0.0,1,4035.0,0
262,262,-0.7925756486657121,-0.8,1.0,0.0,300.0,944.0,0.0,0,3756.0,1
263,263,0.3060168571387675,0.3,1.0,1.0,354.0,853.0,0.0,0,3793.0,0
264,264,0.09552648501184602,0.1,0.0,0.0,465.0,584.0,0.0,1,3951.0,1
265,265,-0.0735448460969299,-0.1,0.0,1.0,344.0,509.0,0.0,1,4147.0,0
266,266,-0.33097951359418365,-0.3,0.0,1.0,437.0,993.0,0.0,1,3570.0,0
267,267,-0.15032114002295383,-0.2,1.0,0.0,281.0,999.0,0.0,0,3720.0,1
268,268,-0.22143625190636185,-0.2,1.0,0.0,456.0,916.0,0.0,0,3628.0,1
269,269,0.5283995499635009,0.5,1.0,1.0,402.0,579.0,0.0,0,4019.0,0
270,270,0.8922202004251915,0.9,0.0,0.0,469.0,692.0,0.0,1,3839.0,1
271,271,0.7994905629946,0.8,0.0,0.0,290.0,968.0,0.0,1,3742.0,1
272,272,-0.2024260219800995,-0.2,0.0,1.0,341.0,860.0,0.0,1,3799.0,0
273,273,-0.33177227545117194,-0.3,0.0,1.0,434.0,501.0,1.0,0,-925.0,1
274,274,-0.09548595148631156,-0.1,0.0,1.0,496.0,827.0,0.0,1,3677.0,0
275,275,-0.7621950437562774,-0.8,0.0,1.0,444.0,877.0,0.0,1,3679.0,0
276,276,0.7656662932737829,0.8,1.0,1.0,293.0,607.0,0.0,0,-670.0,0
277,277,0.38696434145241543,0.4,0.0,0.0,399.0,534.0,0.0,1,4067.0,1
278,278,-0.299890462692597,-0.3,0.0,1.0,333.0,831.0,0.0,1,3836.0,0
279,279,0.24333226351726223,0.2,0.0,0.0,306.0,561.0,0.0,1,4133.0,1
280,280,0.34179338270135584,0.3,1.0,1.0,346.0,783.0,0.0,0,3871.0,0
281,281,0.8338641392413443,0.8,0.0,0.0,415.0,850.0,0.0,1,3735.0,1
282,282,0.43424696733042845,0.4,1.0,1.0,369.0,538.0,0.0,0,4093.0,0
283,283,-0.8684547465140805,-0.9,0.0,1.0,311.0,538.0,0.0,1,4151.0,0
284,284,-0.1762655395481173,-0.2,1.0,0.0,299.0,634.0,0.0,0,4067.0,1
285,285,0.23486061425778415,0.2,1.0,1.0,415.0,973.0,0.0,0,3612.0,0
286,286,0.3801840118604708,0.4,0.0,0.0,429.0,659.0,0.0,1,3912.0,1
287,287,0.2041364942348104,0.2,0.0,0.0,381.0,640.0,0.0,1,3979.0,1
288,288,-0.6729730818762827,-0.7,0.0,1.0,365.0,832.0,0.0,1,3803.0,0
289,289,0.10631436661669647,0.1,0.0,0.0,443.0,675.0,0.0,1,3882.0,1
290,290,-0.766504723690798,-0.8,1.0,0.0,464.0,637.0,0.0,0,3899.0,1
291,291,0.35039748318688957,0.4,1.0,1.0,338.0,787.0,0.0,0,3875.0,0
292,292,0.6523789690355247,0.7,1.0,1.0,307.0,722.0,1.0,1,-999.0,1
293,293,-0.23622712603481621,-0.2,0.0,1.0,364.0,689.0,0.0,1,3947.0,0
294,294,-0.16081356026106586,-0.2,0.0,1.0,373.0,744.0,0.0,1,3883.0,0
295,295,0.7164437740557891,0.7,0.0,0.0,400.0,740.0,0.0,1,3860.0,1
296,296,-0.8869060332950267,-0.9,1.0,0.0,349.0,715.0,0.0,0,3936.0,1
297,297,0.5402380768641076,0.5,0.0,0.0,473.0,649.0,0.0,1,3878.0,1
298,298,0.3228883927044063,0.3,0.0,0.0,492.0,759.0,0.0,1,3749.0,1
299,299,-0.06496276607560547,-0.1,1.0,0.0,439.0,671.0,0.0,0,3890.0,1
300,300,-0.08718157465047538,-0.1,0.0,1.0,343.0,799.0,0.0,1,3858.0,0
301,301,-0.7482518184504527,-0.7,1.0,0.0,366.0,900.0,0.0,0,3734.0,1
302,302,-0.01896028737219113,-0.0,0.0,1.0,322.0,842.0,1.0,0,-1124.0,1
303,303,-0.00826208585299093,-0.0,1.0,0.0,358.0,596.0,1.0,1,-924.0,0
304,304,0.7689374394528518,0.8,1.0,1.0,359.0,909.0,0.0,0,3732.0,0
305,305,-0.8923733911011756,-0.9,1.0,0.0,390.0,942.0,0.0,0,3668.0,1
306,306,-0.07474391511837208,-0.1,1.0,0.0,255.0,530.0,0.0,0,4215.0,1
307,307,0.6211935857759155,0.6,1.0,1.0,394.0,803.0,0.0,0,3803.0,0
308,308,0.7337913706537208,0.7,1.0,1.0,340.0,771.0,0.0,0,3889.0,0
309,309,0.8101818135790427,0.8,0.0,0.0,489.0,766.0,0.0,1,3745.0,1
310,310,-0.8654786863021922,-0.9,1.0,0.0,476.0,823.0,0.0,0,-1219.0,1
311,311,0.15703469191382513,0.2,1.0,1.0,472.0,752.0,0.0,0,-1134.0,0
312,312,0.4339105759816616,0.4,0.0,0.0,459.0,709.0,0.0,1,3832.0,1
313,313,-0.11037190562479005,-0.1,0.0,1.0,460.0,647.0,1.0,0,-1057.0,1
314,314,-0.4558002121922422,-0.5,0.0,1.0,353.0,938.0,0.0,1,3709.0,0
315,315,0.1756060600489927,0.2,0.0,0.0,282.0,778.0,0.0,1,3940.0,1
316,316,0.6288682367433468,0.6,0.0,0.0,363.0,627.0,0.0,1,4010.0,1
317,317,0.47438163348619466,0.5,1.0,1.0,298.0,532.0,0.0,0,4170.0,0
318,318,-0.6109515512532633,-0.6,0.0,1.0,443.0,715.0,0.0,1,3842.0,0
319,319,-0.3194423580357668,-0.3,0.0,1.0,294.0,951.0,0.0,1,3755.0,0
320,320,0.4459266863986745,0.4,0.0,0.0,340.0,789.0,0.0,1,3871.0,1
321,321,0.331358676868477,0.3,1.0,1.0,437.0,799.0,0.0,0,3764.0,0
322,322,0.3935193648208407,0.4,1.0,1.0,451.0,700.0,0.0,0,3849.0,0
323,323,-0.09106009008890181,-0.1,0.0,1.0,462.0,615.0,0.0,1,3923.0,0
324,324,0.8526514017275876,0.9,0.0,0.0,268.0,596.0,0.0,1,4136.0,1
325,325,0.6753288471473814,0.7,0.0,0.0,438.0,685.0,1.0,0,-1063.0,0
326,326,0.4201779290365838,0.4,1.0,1.0,499.0,996.0,0.0,0,3505.0,0
327,327,-0.28631361944282563,-0.3,1.0,0.0,345.0,884.0,1.0,1,-1069.0,0
328,328,0.3644271959362212,0.4,0.0,0.0,251.0,678.0,0.0,1,4071.0,1
329,329,-0.29460890563439346,-0.3,0.0,1.0,329.0,653.0,0.0,1,4018.0,0
330,330,-0.3363257776162115,-0.3,0.0,1.0,266.0,610.0,0.0,1,4124.0,0
331,331,0.6225277872591034,0.6,1.0,1.0,462.0,826.0,0.0,0,3712.0,0
332,332,0.27976090262992115,0.3,0.0,0.0,492.0,790.0,0.0,1,3718.0,1
333,333,-0.4443268391404909,-0.4,1.0,0.0,495.0,687.0,0.0,0,3818.0,1
334,334,0.2766810249771886,0.3,1.0,1.0,266.0,795.0,0.0,0,3939.0,0
335,335,-0.3073699270991599,-0.3,1.0,0.0,479.0,588.0,0.0,0,3933.0,1
336,336,0.7134270000200752,0.7,1.0,1.0,338.0,776.0,0.0,0,3886.0,0
337,337,-0.0014697888464429987,-0.0,1.0,0.0,373.0,976.0,0.0,0,3651.0,1
338,338,0.3027842669280142,0.3,0.0,0.0,465.0,823.0,0.0,1,3712.0,1
339,339,-0.8347124207834411,-0.8,1.0,0.0,410.0,699.0,0.0,0,3891.0,1
340,340,0.8044338815490376,0.8,0.0,0.0,310.0,747.0,0.0,1,3943.0,1
341,341,0.4125409396034886,0.4,0.0,0.0,487.0,641.0,0.0,1,3872.0,1
342,342,0.17013724164359034,0.2,0.0,0.0,282.0,570.0,0.0,1,-792.0,1
343,343,0.8109561090133487,0.8,1.0,1.0,472.0,815.0,0.0,0,3713.0,0
344,344,0.3268074942748652,0.3,1.0,1.0,446.0,818.0,0.0,0,3736.0,0
345,345,-0.12369357204454656,-0.1,0.0,1.0,427.0,796.0,0.0,1,3777.0,0
346,346,-0.6632575557143294,-0.7,0.0,1.0,458.0,883.0,0.0,1,3659.0,0
347,347,0.11526487982810163,0.1,1.0,1.0,441.0,719.0,0.0,0,3840.0,0
348,348,-0.8214908126873203,-0.8,1.0,0.0,466.0,800.0,0.0,0,3734.0,1
349,349,-0.4301484857268268,-0.4,1.0,0.0,372.0,986.0,0.0,0,3642.0,1
350,350,0.02834893862787391,0.0,1.0,1.0,274.0,715.0,0.0,0,4011.0,0
351,351,-0.5410769791296469,-0.5,1.0,0.0,300.0,870.0,0.0,0,3830.0,1
352,352,0.32043541478311355,0.3,0.0,0.0,466.0,813.0,0.0,1,3721.0,1
353,353,0.22838339756876092,0.2,0.0,0.0,388.0,627.0,0.0,1,-835.0,1
354,354,0.2181967029837214,0.2,1.0,1.0,300.0,914.0,0.0,0,3786.0,0
355,355,-0.5278895020441887,-0.5,1.0,0.0,294.0,587.0,0.0,0,4119.0,1
356,356,0.8079560809779435,0.8,1.0,1.0,440.0,890.0,0.0,0,3670.0,0
357,357,-0.6272311021631789,-0.6,0.0,1.0,402.0,587.0,0.0,1,-789.0,0
358,358,0.08268862845125602,0.1,1.0,1.0,399.0,758.0,0.0,0,3843.0,0
359,359,-0.7553603886599175,-0.8,0.0,1.0,309.0,885.0,0.0,1,-1174.0,0
360,360,0.11296330681055278,0.1,1.0,1.0,283.0,517.0,0.0,0,4200.0,0
361,361,0.253299355158071,0.3,1.0,1.0,319.0,620.0,0.0,0,4061.0,0
362,362,-0.7784476475405753,-0.8,0.0,1.0,474.0,898.0,0.0,1,3628.0,0
363,363,0.5523169332052412,0.6,1.0,1.0,304.0,718.0,0.0,0,3978.0,0
364,364,0.6074133943961725,0.6,1.0,1.0,264.0,521.0,1.0,1,-775.0,1
365,365,-0.4391045101672808,-0.4,0.0,1.0,321.0,501.0,0.0,1,4178.0,0
366,366,-0.15472208949931876,-0.2,1.0,0.0,435.0,605.0,0.0,0,3960.0,1
367,367,0.6989967349581442,0.7,0.0,0.0,440.0,549.0,0.0,1,4011.0,1
368,368,0.6332680572340305,0.6,1.0,1.0,416.0,933.0,0.0,0,3651.0,0
369,369,-0.21106903515143138,-0.2,1.0,0.0,351.0,879.0,0.0,0,3770.0,1
370,370,0.8305615361170741,0.8,1.0,1.0,277.0,988.0,1.0,1,-1055.0,1
371,371,0.2438158804373397,0.2,1.0,1.0,410.0,593.0,0.0,0,3997.0,0
372,372,0.41794090645356763,0.4,1.0,1.0,452.0,965.0,1.0,1,-1257.0,1
373,373,0.2575025748596008,0.3,1.0,1.0,445.0,587.0,0.0,0,3968.0,0
374,374,0.4602997449501208,0.5,1.0,1.0,469.0,900.0,0.0,0,3631.0,0
375,375,0.06857524099637169,0.1,1.0,1.0,374.0,680.0,0.0,0,3946.0,0
376,376,-0.45091097853258033,-0.5,1.0,0.0,454.0,662.0,0.0,0,3884.0,1
377,377,0.5500942123897447,0.6,1.0,1.0,355.0,664.0,0.0,0,3981.0,0
378,378,0.7175790002741179,0.7,0.0,0.0,269.0,800.0,0.0,1,3931.0,1
379,379,0.5547769449565664,0.6,1.0,1.0,336.0,941.0,0.0,0,3723.0,0
380,380,0.4074444526954025,0.4,1.0,1.0,355.0,748.0,1.0,1,-1033.0,1
381,381,-0.27286217458758244,-0.3,0.0,1.0,378.0,944.0,0.0,1,3678.0,0
382,382,-0.654670001658048,-0.7,0.0,1.0,338.0,905.0,0.0,1,3757.0,0
383,383,0.29918364517461893,0.3,1.0,1.0,389.0,851.0,0.0,0,3760.0,0
384,384,0.42796698161039803,0.4,1.0,1.0,375.0,975.0,0.0,0,3650.0,0
385,385,-0.5131346285749594,-0.5,1.0,0.0,382.0,551.0,0.0,0,4067.0,1
386,386,0.4270434424735402,0.4,1.0,1.0,469.0,586.0,0.0,0,3945.0,0
387,387,-0.4193619322035845,-0.4,0.0,1.0,253.0,974.0,0.0,1,3773.0,0
388,388,0.4153208430162775,0.4,1.0,1.0,262.0,964.0,0.0,0,3774.0,0
389,389,0.7699482931042027,0.8,1.0,1.0,285.0,834.0,0.0,0,3881.0,0
390,390,0.3971366212992601,0.4,1.0,1.0,369.0,777.0,0.0,0,3854.0,0
391,391,0.4037701067733396,0.4,1.0,1.0,303.0,623.0,0.0,0,4074.0,0
392,392,0.704452342011877,0.7,1.0,1.0,455.0,606.0,0.0,0,3939.0,0
393,393,0.11104002626652998,0.1,1.0,1.0,366.0,948.0,0.0,0,3686.0,0
394,394,0.28881651660222885,0.3,1.0,1.0,272.0,591.0,0.0,0,4137.0,0
395,395,-0.3685931096089098,-0.4,0.0,1.0,260.0,820.0,0.0,1,3920.0,0
396,396,-0.4698590380598145,-0.5,1.0,0.0,383.0,842.0,0.0,0,3775.0,1
397,397,-0.1962907707103415,-0.2,0.0,1.0,317.0,632.0,0.0,1,4051.0,0
398,398,0.6337329751336803,0.6,1.0,1.0,386.0,692.0,0.0,0,3922.0,0
399,399,0.22846795724323987,0.2,0.0,0.0,351.0,657.0,0.0,1,3992.0,1
400,400,-0.2655113234908961,-0.3,0.0,1.0,261.0,859.0,0.0,1,3880.0,0
401,401,-0.07016746247632932,-0.1,0.0,1.0,477.0,981.0,0.0,1,3542.0,0
402,402,0.11564522583893788,0.1,0.0,0.0,463.0,717.0,0.0,1,3820.0,1
403,403,0.1507011980801024,0.2,0.0,0.0,443.0,657.0,0.0,1,3900.0,1
404,404,-0.2167136260477205,-0.2,1.0,0.0,335.0,697.0,1.0,1,-972.0,0
405,405,-0.5521592361941978,-0.6,0.0,1.0,382.0,579.0,0.0,1,4039.0,0
406,406,0.6872483252581852,0.7,0.0,0.0,474.0,593.0,0.0,1,3933.0,1
407,407,0.8282310111598924,0.8,0.0,0.0,451.0,604.0,0.0,1,-1055.0,1
408,408,-0.7736797848644017,-0.8,0.0,1.0,331.0,754.0,0.0,1,3915.0,0
409,409,-0.4482411898912204,-0.4,0.0,1.0,471.0,720.0,0.0,1,3809.0,0
410,410,-0.355245780886034,-0.4,1.0,0.0,486.0,623.0,0.0,0,3891.0,1
411,411,0.7125926547648495,0.7,1.0,1.0,382.0,743.0,0.0,0,3875.0,0
412,412,0.38592736429608243,0.4,0.0,0.0,481.0,679.0,0.0,1,3840.0,1
413,413,-0.14272584717735126,-0.1,0.0,1.0,350.0,664.0,0.0,1,3986.0,0
414,414,0.013886989227279378,0.0,0.0,0.0,251.0,881.0,0.0,1,3868.0,1
415,415,0.02923723873038775,0.0,1.0,1.0,282.0,512.0,0.0,0,-624.0,0
416,416,-0.7181073372429189,-0.7,1.0,0.0,495.0,745.0,0.0,0,3760.0,1
417,417,0.8800617736021855,0.9,1.0,1.0,471.0,684.0,0.0,0,3845.0,0
418,418,-0.11932822927738607,-0.1,0.0,1.0,420.0,500.0,0.0,1,4080.0,0
419,419,-0.39980980921644194,-0.4,0.0,1.0,250.0,719.0,0.0,1,4031.0,0
420,420,-0.6060971603493772,-0.6,1.0,0.0,429.0,735.0,0.0,0,3836.0,1
421,421,-0.6109367412782927,-0.6,1.0,0.0,493.0,747.0,0.0,0,3760.0,1
422,422,0.29365423628705856,0.3,1.0,1.0,333.0,633.0,0.0,0,-846.0,0
423,423,0.7604756824916433,0.8,1.0,1.0,347.0,502.0,1.0,1,-819.0,1
424,424,-0.07466251103391486,-0.1,1.0,0.0,300.0,724.0,0.0,0,3976.0,1
425,425,-0.15995845903981631,-0.2,1.0,0.0,452.0,884.0,0.0,0,3664.0,1
426,426,-0.8048237258805633,-0.8,0.0,1.0,284.0,616.0,0.0,1,4100.0,0
427,427,0.34582422741442953,0.3,1.0,1.0,380.0,668.0,0.0,0,3952.0,0
428,428,0.6553733572358514,0.7,1.0,1.0,292.0,709.0,0.0,0,3999.0,0
429,429,-0.6622487251728864,-0.7,0.0,1.0,482.0,546.0,0.0,1,3972.0,0
430,430,0.6750880932507669,0.7,0.0,0.0,423.0,801.0,0.0,1,3776.0,1
431,431,-0.6827933467381285,-0.7,1.0,0.0,264.0,931.0,0.0,0,3805.0,1
432,432,0.2699027547759373,0.3,0.0,0.0,479.0,773.0,0.0,1,-1192.0,1
433,433,-0.04546551329027482,-0.0,1.0,0.0,387.0,594.0,0.0,0,4019.0,1
434,434,-0.7118744783306896,-0.7,1.0,0.0,465.0,793.0,0.0,0,3742.0,1
435,435,-0.8016519132127794,-0.8,0.0,1.0,410.0,708.0,0.0,1,3882.0,0
436,436,0.02401304908815116,0.0,1.0,1.0,252.0,573.0,0.0,0,4175.0,0
437,437,-0.8840652737324862,-0.9,0.0,1.0,370.0,755.0,0.0,1,3875.0,0
438,438,-0.3880718486036355,-0.4,1.0,0.0,477.0,833.0,0.0,0,-1040.0,1
439,439,-0.18158747184526858,-0.2,1.0,0.0,454.0,629.0,0.0,0,3917.0,1
440,440,-0.1384208727069507,-0.1,1.0,0.0,427.0,734.0,0.0,0,3839.0,1
441,441,0.55188163110696,0.6,1.0,1.0,390.0,783.0,0.0,0,3827.0,0
442,442,0.5155954492678275,0.5,0.0,0.0,281.0,979.0,0.0,1,3740.0,1
443,443,0.23884885371816778,0.2,1.0,1.0,314.0,636.0,0.0,0,4050.0,0
444,444,-0.047179432174090485,-0.0,1.0,0.0,461.0,672.0,0.0,0,3867.0,1
445,445,-0.3470333644002095,-0.3,1.0,0.0,368.0,785.0,0.0,0,3847.0,1
446,446,-0.8109145739413514,-0.8,0.0,1.0,363.0,506.0,0.0,1,4131.0,0
447,447,-0.5138813204648637,-0.5,0.0,1.0,269.0,837.0,0.0,1,3894.0,0
448,448,-0.1872597167132467,-0.2,0.0,1.0,354.0,786.0,0.0,1,3860.0,0
449,449,0.7882106096398526,0.8,0.0,0.0,282.0,907.0,0.0,1,3811.0,1
450,450,-0.8463645760774381,-0.8,1.0,0.0,408.0,549.0,0.0,0,4043.0,1
451,451,-0.05427894550150558,-0.1,0.0,1.0,424.0,785.0,0.0,1,3791.0,0
452,452,0.09990650012509539,0.1,0.0,0.0,250.0,540.0,0.0,1,4210.0,1
453,453,-0.7224498367452554,-0.7,1.0,0.0,315.0,584.0,0.0,0,4101.0,1
454,454,-0.7074818219693142,-0.7,0.0,1.0,463.0,563.0,0.0,1,3974.0,0
455,455,-0.01996740063021707,-0.0,0.0,1.0,257.0,911.0,0.0,1,3832.0,0
456,456,0.6723469945472652,0.7,0.0,0.0,387.0,563.0,0.0,1,4050.0,1
457,457,-0.3795240307783082,-0.4,0.0,1.0,435.0,513.0,0.0,1,4052.0,0
458,458,-0.490909474975011,-0.5,0.0,1.0,388.0,584.0,0.0,1,4028.0,0
459,459,-0.4868014129422265,-0.5,1.0,0.0,482.0,988.0,0.0,0,3530.0,1
460,460,-0.6572104181521669,-0.7,1.0,0.0,450.0,824.0,0.0,0,3726.0,1
461,461,0.0025254331214330517,0.0,1.0,1.0,422.0,908.0,0.0,0,3670.0,0
462,462,0.470872214667969,0.5,0.0,0.0,464.0,871.0,0.0,1,3665.0,1
463,463,-0.8519124853940593,-0.9,0.0,1.0,388.0,819.0,0.0,1,3793.0,0
464,464,-0.1276030072021873,-0.1,1.0,0.0,327.0,901.0,0.0,0,3772.0,1
465,465,0.8008683554417234,0.8,0.0,0.0,474.0,991.0,0.0,1,3535.0,1
466,466,0.31195385413778787,0.3,0.0,0.0,430.0,575.0,1.0,0,-945.0,0
467,467,-0.8984342161109471,-0.9,0.0,1.0,432.0,622.0,0.0,1,3946.0,0
468,468,0.7019460842869943,0.7,0.0,0.0,443.0,624.0,0.0,1,3933.0,1
469,469,-0.3979972655820956,-0.4,0.0,1.0,489.0,938.0,0.0,1,3573.0,0
470,470,-0.8058750747151234,-0.8,0.0,1.0,475.0,816.0,0.0,1,3709.0,0
471,471,-0.023738419949740464,-0.0,0.0,1.0,329.0,804.0,0.0,1,3867.0,0
472,472,-0.590166994584113,-0.6,1.0,0.0,373.0,984.0,0.0,0,3643.0,1
473,473,0.09547545605376972,0.1,1.0,1.0,353.0,817.0,0.0,0,3830.0,0
474,474,0.8469005752230999,0.8,0.0,0.0,350.0,985.0,0.0,1,3665.0,1
475,475,0.26680819563544744,0.3,0.0,0.0,499.0,861.0,0.0,1,3640.0,1
476,476,0.847931512347382,0.8,0.0,0.0,490.0,840.0,0.0,1,3670.0,1
477,477,0.6924909924710473,0.7,1.0,1.0,274.0,905.0,0.0,0,3821.0,0
478,478,0.6997714527415854,0.7,1.0,1.0,266.0,944.0,0.0,0,3790.0,0
479,479,0.8367010906307343,0.8,0.0,0.0,357.0,985.0,0.0,1,3658.0,1
480,480,-0.5741305312520046,-0.6,0.0,1.0,432.0,808.0,0.0,1,3760.0,0
481,481,-0.07388251572404292,-0.1,0.0,1.0,387.0,994.0,0.0,1,3619.0,0
482,482,0.3753210559100909,0.4,1.0,1.0,273.0,760.0,0.0,0,3967.0,0
483,483,-0.8227184290832372,-0.8,0.0,1.0,321.0,710.0,0.0,1,3969.0,0
484,484,0.10108057038168339,0.1,0.0,0.0,264.0,710.0,0.0,1,4026.0,1
485,485,0.30742505534556563,0.3,0.0,0.0,325.0,677.0,0.0,1,3998.0,1
486,486,0.1809127290020235,0.2,1.0,1.0,273.0,849.0,0.0,0,3878.0,0
487,487,-0.8486426721831045,-0.8,0.0,1.0,342.0,638.0,0.0,1,4020.0,0
488,488,-0.6323494272258405,-0.6,1.0,0.0,270.0,876.0,0.0,0,3854.0,1
489,489,0.4734120003065524,0.5,1.0,1.0,321.0,827.0,0.0,0,3852.0,0
490,490,-0.060946163876705595,-0.1,1.0,0.0,428.0,702.0,0.0,0,3870.0,1
491,491,-0.2269026925505977,-0.2,0.0,1.0,316.0,703.0,0.0,1,-939.0,0
492,492,0.05256819375214894,0.1,0.0,0.0,429.0,690.0,0.0,1,3881.0,1
493,493,-0.20943496823879948,-0.2,0.0,1.0,448.0,906.0,0.0,1,3646.0,0
494,494,-0.2341414119679972,-0.2,0.0,1.0,458.0,874.0,0.0,1,3668.0,0
495,495,-0.5037541837664896,-0.5,1.0,0.0,346.0,855.0,0.0,0,3799.0,1
496,496,0.36667687816972194,0.4,0.0,0.0,442.0,629.0,0.0,1,3929.0,1
497,497,-0.5773201751149382,-0.6,0.0,1.0,284.0,537.0,0.0,1,4179.0,0
498,498,0.1990978411404335,0.2,1.0,1.0,386.0,610.0,0.0,0,4004.0,0
499,499,-0.6643928309382151,-0.7,1.0,0.0,417.0,996.0,0.0,0,3587.0,1
500,500,0.3109239679011505,0.3,1.0,1.0,386.0,924.0,0.0,0,3690.0,0
501,501,0.6039760464559999,0.6,1.0,1.0,355.0,824.0,1.0,1,-1099.0,1
502,502,-0.5576874540865786,-0.6,1.0,0.0,312.0,659.0,0.0,0,4029.0,1
503,503,0.651641626414127,0.7,1.0,1.0,493.0,693.0,0.0,0,-996.0,0
504,504,-0.31798849872801593,-0.3,0.0,1.0,296.0,780.0,0.0,1,3924.0,0
505,505,0.44745017180250335,0.4,0.0,0.0,333.0,716.0,1.0,0,-1019.0,0
506,506,-0.49280525003510106,-0.5,1.0,0.0,486.0,708.0,0.0,0,3806.0,1
507,507,-0.5164838554747013,-0.5,0.0,1.0,487.0,625.0,0.0,1,3888.0,0
508,508,0.05606225967100009,0.1,1.0,1.0,471.0,686.0,0.0,0,3843.0,0
509,509,-0.03590835959194427,-0.0,1.0,0.0,470.0,704.0,0.0,0,3826.0,1
510,510,-0.23129604688078853,-0.2,1.0,0.0,468.0,923.0,0.0,0,3609.0,1
511,511,0.2909475400055631,0.3,0.0,0.0,457.0,668.0,0.0,1,3875.0,1
512,512,0.6685291640660712,0.7,1.0,1.0,484.0,563.0,0.0,0,3953.0,0
513,513,-0.7966821626337387,-0.8,1.0,0.0,297.0,664.0,0.0,0,4039.0,1
514,514,-0.39708579037932523,-0.4,0.0,1.0,445.0,630.0,0.0,1,3925.0,0
515,515,0.31899603622074213,0.3,1.0,1.0,334.0,665.0,0.0,0,4001.0,0
516,516,-0.08572691827356249,-0.1,1.0,0.0,497.0,623.0,0.0,0,3880.0,1
517,517,0.31662940147338803,0.3,1.0,1.0,289.0,698.0,0.0,0,4013.0,0
518,518,-0.20396177903569945,-0.2,1.0,0.0,274.0,528.0,0.0,0,4198.0,1
519,519,0.7580582110998778,0.8,1.0,1.0,398.0,773.0,0.0,0,3829.0,0
520,520,0.4838451612139357,0.5,0.0,0.0,367.0,574.0,0.0,1,4059.0,1
521,521,-0.5144834287461632,-0.5,1.0,0.0,498.0,814.0,0.0,0,3688.0,1
522,522,0.5991454053925237,0.6,1.0,1.0,382.0,893.0,0.0,0,3725.0,0
523,523,-0.13841706912569407,-0.1,0.0,1.0,479.0,971.0,1.0,0,-1320.0,1
524,524,0.6404977462504068,0.6,1.0,1.0,328.0,617.0,0.0,0,4055.0,0
525,525,-0.20412261382635788,-0.2,0.0,1.0,386.0,901.0,0.0,1,3713.0,0
526,526,0.7676912989397932,0.8,1.0,1.0,408.0,682.0,0.0,0,3910.0,0
527,527,-0.18849253354129913,-0.2,1.0,0.0,475.0,989.0,0.0,0,3536.0,1
528,528,0.045861502772081675,0.0,1.0,1.0,366.0,687.0,0.0,0,3947.0,0
529,529,-0.1087615230253669,-0.1,1.0,0.0,485.0,981.0,0.0,0,3534.0,1
530,530,-0.026220373541611774,-0.0,0.0,1.0,379.0,702.0,0.0,1,3919.0,0
531,531,-0.6000877247490375,-0.6,1.0,0.0,432.0,802.0,0.0,0,3766.0,1
532,532,-0.7257642931629843,-0.7,0.0,1.0,489.0,887.0,0.0,1,3624.0,0
533,533,0.17297914848321494,0.2,1.0,1.0,327.0,561.0,0.0,0,4112.0,0
534,534,-0.7338548257167121,-0.7,1.0,0.0,313.0,638.0,0.0,0,4049.0,1
535,535,0.4054200287616464,0.4,1.0,1.0,448.0,941.0,0.0,0,3611.0,0
536,536,0.7158524463370485,0.7,0.0,0.0,377.0,932.0,0.0,1,3691.0,1
537,537,0.5655154271555568,0.6,0.0,0.0,315.0,793.0,1.0,0,-918.0,0
538,538,-0.7694510310373663,-0.8,0.0,1.0,464.0,671.0,0.0,1,3865.0,0
539,539,0.590564103294987,0.6,0.0,0.0,390.0,931.0,1.0,0,-1211.0,0
540,540,0.5642464647845314,0.6,0.0,0.0,327.0,760.0,0.0,1,3913.0,1
541,541,0.31900769765465375,0.3,0.0,0.0,406.0,694.0,0.0,1,3900.0,1
542,542,0.13382415342020526,0.1,1.0,1.0,372.0,748.0,0.0,0,3880.0,0
543,543,0.6611923161898688,0.7,1.0,1.0,371.0,996.0,0.0,0,3633.0,0
544,544,-0.6766363347732273,-0.7,1.0,0.0,330.0,523.0,0.0,0,4147.0,1
545,545,-0.18008295023962628,-0.2,0.0,1.0,411.0,857.0,0.0,1,3732.0,0
546,546,0.5679062325905201,0.6,0.0,0.0,355.0,610.0,0.0,1,-885.0,1
547,547,-0.48530368606377944,-0.5,0.0,1.0,463.0,789.0,1.0,0,-1172.0,1
548,548,0.415635677374642,0.4,0.0,0.0,411.0,683.0,0.0,1,3906.0,1
549,549,0.4977611348620098,0.5,0.0,0.0,344.0,993.0,0.0,1,3663.0,1
550,550,-0.8201818022387931,-0.8,1.0,0.0,282.0,820.0,0.0,0,3898.0,1
551,551,0.5732138502253895,0.6,1.0,1.0,448.0,657.0,0.0,0,3895.0,0
552,552,0.7787387608505817,0.8,0.0,0.0,266.0,544.0,0.0,1,-670.0,1
553,553,-0.3485819915024422,-0.3,1.0,0.0,251.0,629.0,0.0,0,4120.0,1
554,554,0.07478994655320859,0.1,1.0,1.0,435.0,580.0,0.0,0,3985.0,0
555,555,0.4718752503814586,0.5,0.0,0.0,369.0,878.0,0.0,1,3753.0,1
556,556,0.48342911193186666,0.5,1.0,1.0,470.0,775.0,0.0,0,3755.0,0
557,557,-0.6822216479476081,-0.7,0.0,1.0,458.0,586.0,0.0,1,-944.0,0
558,558,0.22982232889908227,0.2,0.0,0.0,432.0,781.0,0.0,1,3787.0,1
559,559,-0.7113850813325648,-0.7,0.0,1.0,314.0,741.0,0.0,1,3945.0,0
560,560,-0.44786640605852684,-0.4,0.0,1.0,446.0,501.0,0.0,1,4053.0,0
561,561,-0.8496120958671293,-0.8,1.0,0.0,445.0,866.0,0.0,0,3689.0,1
562,562,-0.8974190881654373,-0.9,1.0,0.0,462.0,885.0,0.0,0,3653.0,1
563,563,-0.7588416388347432,-0.8,1.0,0.0,299.0,854.0,0.0,0,3847.0,1
564,564,0.7572341182776411,0.8,1.0,1.0,323.0,972.0,0.0,0,-1255.0,0
565,565,0.07237740514448832,0.1,1.0,1.0,260.0,943.0,0.0,0,3797.0,0
566,566,-0.08645720572145854,-0.1,0.0,1.0,317.0,998.0,0.0,1,3685.0,0
567,567,-0.7397700424575312,-0.7,1.0,0.0,355.0,686.0,0.0,0,3959.0,1
568,568,-0.630242744730132,-0.6,0.0,1.0,251.0,763.0,0.0,1,3986.0,0
569,569,0.6463711773861017,0.6,1.0,1.0,344.0,695.0,0.0,0,3961.0,0
570,570,-0.8352920741681514,-0.8,0.0,1.0,495.0,714.0,0.0,1,3791.0,0
571,571,-0.7534883033398314,-0.8,0.0,1.0,341.0,932.0,0.0,1,3727.0,0
572,572,-0.5311916775852323,-0.5,1.0,0.0,372.0,510.0,0.0,0,4118.0,1
573,573,0.7976926048670326,0.8,1.0,1.0,492.0,986.0,0.0,0,-1448.0,0
574,574,-0.5342080056059404,-0.5,0.0,1.0,457.0,714.0,0.0,1,3829.0,0
575,575,0.03107823552723543,0.0,0.0,0.0,448.0,806.0,0.0,1,3746.0,1
576,576,0.7061865409741624,0.7,1.0,1.0,337.0,811.0,0.0,0,3852.0,0
577,577,-0.3983226685198362,-0.4,1.0,0.0,312.0,851.0,0.0,0,3837.0,1
578,578,-0.6753382295248138,-0.7,0.0,1.0,427.0,672.0,1.0,0,-1079.0,1
579,579,-0.6321196050642308,-0.6,1.0,0.0,492.0,537.0,1.0,1,-899.0,0
580,580,0.8105689596815765,0.8,1.0,1.0,290.0,544.0,0.0,0,4166.0,0
581,581,0.7894277460195872,0.8,1.0,1.0,272.0,539.0,0.0,0,4189.0,0
582,582,0.3953966651377233,0.4,1.0,1.0,385.0,988.0,0.0,0,3627.0,0
583,583,-0.2478973305058122,-0.2,1.0,0.0,348.0,811.0,0.0,0,3841.0,1
584,584,0.6943117349443398,0.7,0.0,0.0,481.0,539.0,0.0,1,3980.0,1
585,585,-0.017157371870758276,-0.0,1.0,0.0,469.0,593.0,0.0,0,3938.0,1
586,586,0.1314804364746739,0.1,1.0,1.0,386.0,909.0,0.0,0,3705.0,0
587,587,-0.7730585937311006,-0.8,0.0,1.0,389.0,588.0,0.0,1,4023.0,0
588,588,-0.7527523325884482,-0.8,0.0,1.0,312.0,585.0,0.0,1,4103.0,0
589,589,-0.512035996401732,-0.5,0.0,1.0,342.0,500.0,0.0,1,4158.0,0
590,590,0.36790778047993167,0.4,0.0,0.0,328.0,592.0,0.0,1,4080.0,1
591,591,-0.8579529865390679,-0.9,1.0,0.0,388.0,734.0,0.0,0,3878.0,1
592,592,0.15177680829300455,0.2,1.0,1.0,281.0,816.0,0.0,0,3903.0,0
593,593,0.435893492949062,0.4,1.0,1.0,387.0,860.0,0.0,0,3753.0,0
594,594,-0.6643639533777825,-0.7,0.0,1.0,405.0,796.0,0.0,1,3799.0,0
595,595,-0.40033307719079814,-0.4,1.0,0.0,345.0,964.0,0.0,0,3691.0,1
596,596,0.5588755609082133,0.6,1.0,1.0,406.0,588.0,0.0,0,4006.0,0
597,597,0.35231420401696434,0.4,0.0,0.0,381.0,672.0,0.0,1,3947.0,1
598,598,0.1792738553047063,0.2,1.0,1.0,284.0,657.0,0.0,0,4059.0,0
599,599,0.7192984113393138,0.7,0.0,0.0,470.0,893.0,0.0,1,3637.0,1
600,600,-0.32118897566115656,-0.3,1.0,0.0,253.0,701.0,0.0,0,4046.0,1
601,601,-0.4956029536934458,-0.5,1.0,0.0,423.0,657.0,1.0,1,-1070.0,0
602,602,0.2993347577340931,0.3,1.0,1.0,428.0,519.0,0.0,0,4053.0,0
603,603,-0.33168207415544704,-0.3,1.0,0.0,287.0,898.0,0.0,0,3815.0,1
604,604,0.597437359268079,0.6,0.0,0.0,278.0,599.0,0.0,1,4123.0,1
605,605,0.3018080391167294,0.3,0.0,0.0,422.0,677.0,0.0,1,-1079.0,1
606,606,0.5519038208779724,0.6,0.0,0.0,434.0,824.0,0.0,1,3742.0,1
607,607,-0.804544810676332,-0.8,0.0,1.0,303.0,544.0,0.0,1,4153.0,0
608,608,0.03882641838290524,0.0,1.0,1.0,438.0,760.0,0.0,0,3802.0,0
609,609,0.8003676488720134,0.8,0.0,0.0,322.0,510.0,0.0,1,4168.0,1
610,610,-0.8848162372265305,-0.9,0.0,1.0,302.0,816.0,0.0,1,3882.0,0
611,611,0.6570478503050242,0.7,0.0,0.0,431.0,849.0,0.0,1,3720.0,1
612,612,-0.5862759613188544,-0.6,1.0,0.0,409.0,808.0,0.0,0,3783.0,1
613,613,0.6882899295690595,0.7,1.0,1.0,257.0,830.0,0.0,0,3913.0,0
614,614,-0.7893406719958143,-0.8,1.0,0.0,409.0,696.0,0.0,0,3895.0,1
615,615,-0.08231004740215164,-0.1,1.0,0.0,385.0,860.0,0.0,0,3755.0,1
616,616,-0.6037884640664717,-0.6,1.0,0.0,390.0,606.0,0.0,0,4004.0,1
617,617,-0.1294167574618651,-0.1,0.0,1.0,360.0,912.0,0.0,1,3728.0,0
618,618,0.4807659318549874,0.5,0.0,0.0,479.0,564.0,0.0,1,3957.0,1
619,619,-0.8654544243648582,-0.9,0.0,1.0,262.0,687.0,0.0,1,4051.0,0
620,620,0.689899118199181,0.7,1.0,1.0,372.0,734.0,0.0,0,3894.0,0
621,621,0.7798182944855822,0.8,0.0,0.0,334.0,851.0,0.0,1,3815.0,1
622,622,0.49172307907673873,0.5,1.0,1.0,278.0,976.0,1.0,1,-1204.0,1
623,623,0.39280782113285084,0.4,1.0,1.0,350.0,782.0,0.0,0,3868.0,0
624,624,0.8053373955380018,0.8,0.0,0.0,258.0,541.0,1.0,0,-599.0,0
625,625,-0.8832768582768815,-0.9,0.0,1.0,260.0,976.0,0.0,1,3764.0,0
626,626,-0.4738639871768004,-0.5,0.0,1.0,251.0,550.0,0.0,1,4199.0,0
627,627,0.32137052581319236,0.3,1.0,1.0,381.0,752.0,0.0,0,3867.0,0
628,628,-0.777105112990235,-0.8,1.0,0.0,325.0,570.0,0.0,0,4105.0,1
629,629,0.8177402930320846,0.8,0.0,0.0,390.0,653.0,0.0,1,3957.0,1
630,630,0.057301894945220644,0.1,1.0,1.0,451.0,837.0,0.0,0,3712.0,0
631,631,0.32354815815585114,0.3,0.0,0.0,395.0,853.0,0.0,1,3752.0,1
632,632,-0.8951276792374262,-0.9,0.0,1.0,298.0,828.0,0.0,1,3874.0,0
633,633,-0.05637575638622372,-0.1,1.0,0.0,322.0,747.0,0.0,0,3931.0,1
634,634,0.4877868803166051,0.5,0.0,0.0,263.0,521.0,0.0,1,4216.0,1
635,635,-0.6470036173268963,-0.6,1.0,0.0,486.0,944.0,0.0,0,3570.0,1
636,636,-0.0539044834099589,-0.1,0.0,1.0,466.0,738.0,0.0,1,3796.0,0
637,637,-0.8531891472309358,-0.9,1.0,0.0,387.0,606.0,0.0,0,4007.0,1
638,638,-0.1336053366559553,-0.1,0.0,1.0,250.0,537.0,0.0,1,4213.0,0
639,639,0.6901627842834525,0.7,0.0,0.0,460.0,652.0,0.0,1,3888.0,1
640,640,-0.829719770512033,-0.8,0.0,1.0,424.0,961.0,0.0,1,3615.0,0
641,641,0.2189795402646345,0.2,0.0,0.0,251.0,962.0,0.0,1,3787.0,1
642,642,0.36546383660964266,0.4,0.0,0.0,474.0,893.0,0.0,1,3633.0,1
643,643,-0.5170117002541816,-0.5,1.0,0.0,277.0,955.0,0.0,0,3768.0,1
644,644,-0.5995191863762274,-0.6,0.0,1.0,479.0,702.0,0.0,1,3819.0,0
645,645,-0.1748040976822678,-0.2,1.0,0.0,481.0,992.0,0.0,0,3527.0,1
646,646,0.04386602688450203,0.0,0.0,0.0,443.0,691.0,0.0,1,3866.0,1
647,647,0.6323608232775974,0.6,1.0,1.0,395.0,786.0,0.0,0,3819.0,0
648,648,0.8459733578944929,0.8,0.0,0.0,332.0,611.0,0.0,1,4057.0,1
649,649,-0.7545795116261125,-0.8,1.0,0.0,457.0,857.0,0.0,0,3686.0,1
650,650,-0.08540465805770192,-0.1,0.0,1.0,429.0,513.0,1.0,0,-922.0,1
651,651,-0.28146171355784344,-0.3,1.0,0.0,380.0,564.0,0.0,0,4056.0,1
652,652,-0.412721781040862,-0.4,0.0,1.0,444.0,512.0,0.0,1,4044.0,0
653,653,-0.293778006660384,-0.3,1.0,0.0,430.0,832.0,0.0,0,3738.0,1
654,654,-0.2315525377700478,-0.2,0.0,1.0,348.0,716.0,0.0,1,3936.0,0
655,655,0.29327405087554637,0.3,1.0,1.0,463.0,604.0,0.0,0,3933.0,0
656,656,-0.7182958322298347,-0.7,0.0,1.0,257.0,640.0,0.0,1,4103.0,0
657,657,-0.6488978663627378,-0.6,0.0,1.0,253.0,987.0,0.0,1,3760.0,0
658,658,0.36304483721975445,0.4,0.0,0.0,329.0,781.0,0.0,1,3890.0,1
659,659,0.7174095173967375,0.7,1.0,1.0,329.0,636.0,0.0,0,4035.0,0
660,660,0.37261125429791664,0.4,1.0,1.0,298.0,653.0,0.0,0,4049.0,0
661,661,-0.3317336981494067,-0.3,0.0,1.0,451.0,681.0,0.0,1,3868.0,0
662,662,-0.10409721026414875,-0.1,1.0,0.0,425.0,970.0,0.0,0,3605.0,1
663,663,-0.27940272392814813,-0.3,0.0,1.0,426.0,871.0,1.0,0,-1257.0,1
664,664,-0.35682233381773076,-0.4,0.0,1.0,357.0,914.0,1.0,0,-1221.0,1
665,665,-0.49651088511907937,-0.5,0.0,1.0,300.0,644.0,0.0,1,4056.0,0
666,666,0.6657197569055394,0.7,1.0,1.0,481.0,537.0,0.0,0,3982.0,0
667,667,0.7805915369740911,0.8,1.0,1.0,454.0,666.0,0.0,0,3880.0,0
668,668,-0.6256846850309243,-0.6,0.0,1.0,338.0,955.0,0.0,1,3707.0,0
669,669,0.19502580718685125,0.2,1.0,1.0,412.0,733.0,0.0,0,3855.0,0
670,670,-0.625927503635854,-0.6,0.0,1.0,467.0,748.0,0.0,1,3785.0,0
671,671,0.8243282522164549,0.8,1.0,1.0,385.0,802.0,0.0,0,3813.0,0
672,672,-0.5643252342683776,-0.6,0.0,1.0,400.0,605.0,0.0,1,3995.0,0
673,673,0.29716224266063984,0.3,1.0,1.0,482.0,993.0,0.0,0,3525.0,0
674,674,-0.5851203238735975,-0.6,1.0,0.0,275.0,529.0,1.0,1,-794.0,0
675,675,-0.7511356214795029,-0.8,1.0,0.0,370.0,959.0,0.0,0,3671.0,1
676,676,-0.882552320419963,-0.9,1.0,0.0,284.0,614.0,0.0,0,4102.0,1
677,677,-0.05272523832535114,-0.1,1.0,0.0,367.0,596.0,0.0,0,4037.0,1
678,678,0.13623965998714194,0.1,1.0,1.0,437.0,656.0,0.0,0,3907.0,0
679,679,0.601192020482643,0.6,0.0,0.0,329.0,577.0,0.0,1,4094.0,1
680,680,0.6616154115978682,0.7,1.0,1.0,340.0,951.0,0.0,0,3709.0,0
681,681,-0.8670011060125387,-0.9,0.0,1.0,320.0,878.0,0.0,1,3802.0,0
682,682,0.7229679930985932,0.7,1.0,1.0,275.0,711.0,0.0,0,4014.0,0
683,683,-0.881778173426906,-0.9,1.0,0.0,281.0,511.0,0.0,0,4208.0,1
684,684,0.4507911680717972,0.5,0.0,0.0,466.0,902.0,0.0,1,3632.0,1
685,685,-0.18502111477937266,-0.2,0.0,1.0,496.0,780.0,0.0,1,3724.0,0
686,686,-0.43373366881084346,-0.4,1.0,0.0,288.0,715.0,0.0,0,3997.0,1
687,687,0.03453196534975833,0.0,0.0,0.0,286.0,607.0,0.0,1,4107.0,1
688,688,0.6857720980927892,0.7,1.0,1.0,417.0,982.0,0.0,0,3601.0,0
689,689,0.5719637748300926,0.6,0.0,0.0,378.0,951.0,0.0,1,3671.0,1
690,690,-0.8505095467805062,-0.9,1.0,0.0,310.0,626.0,0.0,0,4064.0,1
691,691,-0.2595445073460878,-0.3,1.0,0.0,457.0,821.0,0.0,0,3722.0,1
692,692,-0.8045709267920752,-0.8,0.0,1.0,443.0,694.0,0.0,1,3863.0,0
693,693,0.7803543664716067,0.8,0.0,0.0,305.0,818.0,0.0,1,3877.0,1
694,694,0.19029560146365243,0.2,0.0,0.0,342.0,881.0,0.0,1,3777.0,1
695,695,0.6558955926255615,0.7,0.0,0.0,352.0,878.0,0.0,1,3770.0,1
696,696,-0.6349590888642412,-0.6,1.0,0.0,379.0,879.0,0.0,0,3742.0,1
697,697,0.46191982683058563,0.5,1.0,1.0,341.0,511.0,0.0,0,4148.0,0
698,698,0.4771272509022789,0.5,0.0,0.0,426.0,600.0,0.0,1,3974.0,1
699,699,-0.30669924981962804,-0.3,1.0,0.0,463.0,596.0,0.0,0,3941.0,1
700,700,0.4809881638624217,0.5,0.0,0.0,255.0,961.0,0.0,1,3784.0,1
701,701,-0.3692563443318033,-0.4,1.0,0.0,337.0,764.0,0.0,0,3899.0,1
702,702,0.8224123926463885,0.8,0.0,0.0,427.0,741.0,0.0,1,3832.0,1
703,703,-0.8756670652070266,-0.9,1.0,0.0,373.0,722.0,0.0,0,3905.0,1
704,704,-0.3121586877551614,-0.3,1.0,0.0,392.0,569.0,0.0,0,4039.0,1
705,705,0.8362928344920312,0.8,0.0,0.0,313.0,787.0,0.0,1,-1090.0,1
706,706,0.3014062945922712,0.3,0.0,0.0,279.0,953.0,0.0,1,3768.0,1
707,707,0.324282414554948,0.3,1.0,1.0,274.0,512.0,0.0,0,4214.0,0
708,708,0.20228998083855754,0.2,1.0,1.0,407.0,602.0,0.0,0,3991.0,0
709,709,0.669693856379889,0.7,1.0,1.0,315.0,629.0,0.0,0,4056.0,0
710,710,-0.7511820940922067,-0.8,0.0,1.0,436.0,781.0,0.0,1,3783.0,0
711,711,0.8941338373113651,0.9,1.0,1.0,333.0,954.0,0.0,0,3713.0,0
712,712,0.5479428596935839,0.5,1.0,1.0,278.0,783.0,0.0,0,3939.0,0
713,713,0.7915072003750204,0.8,0.0,0.0,258.0,717.0,0.0,1,4025.0,1
714,714,-0.44034136176655597,-0.4,0.0,1.0,384.0,999.0,1.0,0,-1333.0,1
715,715,-0.37244403690718497,-0.4,1.0,0.0,461.0,575.0,0.0,0,3964.0,1
716,716,-0.527336669361339,-0.5,1.0,0.0,374.0,606.0,0.0,0,4020.0,1
717,717,-0.423688835370843,-0.4,0.0,1.0,493.0,681.0,0.0,1,3826.0,0
718,718,-0.11569131470210348,-0.1,0.0,1.0,257.0,969.0,0.0,1,3774.0,0
719,719,0.2693385013530708,0.3,0.0,0.0,270.0,508.0,0.0,1,-758.0,1
720,720,0.7493143889987514,0.7,1.0,1.0,355.0,537.0,0.0,0,-792.0,0
721,721,-0.13511829622060778,-0.1,1.0,0.0,478.0,675.0,0.0,0,3847.0,1
722,722,-0.6855541952030695,-0.7,0.0,1.0,372.0,701.0,1.0,0,-1073.0,1
723,723,-0.0894276001582508,-0.1,1.0,0.0,402.0,925.0,0.0,0,3673.0,1
724,724,-0.4638688056018388,-0.5,1.0,0.0,347.0,845.0,0.0,0,3808.0,1
725,725,0.6473533981406433,0.6,1.0,1.0,398.0,814.0,0.0,0,3788.0,0
726,726,0.44979827998190636,0.4,1.0,1.0,290.0,768.0,0.0,0,3942.0,0
727,727,0.45368510474956547,0.5,1.0,1.0,446.0,778.0,0.0,0,3776.0,0
728,728,-0.07901059693551105,-0.1,1.0,0.0,457.0,630.0,0.0,0,3913.0,1
729,729,-0.0421118038380085,-0.0,1.0,0.0,377.0,617.0,0.0,0,4006.0,1
730,730,-0.8100147956744818,-0.8,0.0,1.0,455.0,659.0,0.0,1,3886.0,0
731,731,-0.35950756330822276,-0.4,1.0,0.0,431.0,516.0,0.0,0,4053.0,1
732,732,0.3992833189668573,0.4,0.0,0.0,472.0,547.0,0.0,1,3981.0,1
733,733,0.09890280738795854,0.1,1.0,1.0,393.0,521.0,0.0,0,4086.0,0
734,734,0.3839217603907513,0.4,1.0,1.0,352.0,592.0,0.0,0,-914.0,0
735,735,-0.7366759352910945,-0.7,0.0,1.0,442.0,504.0,0.0,1,4054.0,0
736,736,0.10153455772660502,0.1,0.0,0.0,291.0,589.0,0.0,1,4120.0,1
737,737,0.167832609402483,0.2,0.0,0.0,313.0,871.0,0.0,1,3816.0,1
738,738,0.017347720694323776,0.0,1.0,1.0,412.0,950.0,0.0,0,3638.0,0
739,739,0.623677220019326,0.6,1.0,1.0,433.0,790.0,0.0,0,3777.0,0
740,740,0.8590249862987299,0.9,1.0,1.0,400.0,887.0,0.0,0,3713.0,0
741,741,-0.1767679969328506,-0.2,0.0,1.0,457.0,560.0,0.0,1,3983.0,0
742,742,-0.11045685288443152,-0.1,1.0,0.0,255.0,635.0,0.0,0,4110.0,1
743,743,-0.3946788096726812,-0.4,0.0,1.0,320.0,875.0,0.0,1,3805.0,0
744,744,0.4169795054290587,0.4,1.0,1.0,310.0,690.0,0.0,0,4000.0,0
745,745,-0.23858851573617268,-0.2,1.0,0.0,390.0,707.0,1.0,1,-997.0,0
746,746,0.038862696853179,0.0,1.0,1.0,491.0,993.0,0.0,0,-1464.0,0
747,747,-0.19658772069587171,-0.2,0.0,1.0,376.0,556.0,0.0,1,4068.0,0
748,748,-0.6811787836404888,-0.7,0.0,1.0,289.0,847.0,1.0,0,-1016.0,1
749,749,0.7317924214717803,0.7,0.0,0.0,414.0,950.0,0.0,1,3636.0,1
750,750,0.75676996203919,0.8,1.0,1.0,491.0,867.0,0.0,0,3642.0,0
751,751,0.37231336816237615,0.4,0.0,0.0,310.0,563.0,0.0,1,4127.0,1
752,752,-0.17770572245342597,-0.2,0.0,1.0,481.0,821.0,1.0,0,-1222.0,1
753,753,-0.6011610494830235,-0.6,0.0,1.0,298.0,528.0,0.0,1,4174.0,0
754,754,-0.22401307037634688,-0.2,1.0,0.0,467.0,896.0,0.0,0,3637.0,1
755,755,-0.7611417517069391,-0.8,0.0,1.0,422.0,572.0,0.0,1,4006.0,0
756,756,0.6734710017016449,0.7,0.0,0.0,351.0,542.0,1.0,0,-813.0,0
757,757,-0.6109135389508045,-0.6,0.0,1.0,486.0,535.0,0.0,1,3979.0,0
758,758,-0.35105006610493517,-0.4,0.0,1.0,397.0,685.0,1.0,0,-1042.0,1
759,759,-0.7222705116810972,-0.7,0.0,1.0,419.0,812.0,1.0,0,-1121.0,1
760,760,-0.5562428495290903,-0.6,0.0,1.0,347.0,655.0,0.0,1,3998.0,0
761,761,-0.8042097863420669,-0.8,1.0,0.0,277.0,645.0,0.0,0,4078.0,1
762,762,-0.35996383704407475,-0.4,1.0,0.0,461.0,611.0,0.0,0,3928.0,1
763,763,0.8784724453376026,0.9,1.0,1.0,433.0,637.0,0.0,0,3930.0,0
764,764,-0.7993509035288896,-0.8,0.0,1.0,284.0,740.0,0.0,1,3976.0,0
765,765,0.6351484796518821,0.6,1.0,1.0,470.0,736.0,0.0,0,3794.0,0
766,766,-0.744967788497797,-0.7,1.0,0.0,364.0,746.0,0.0,0,3890.0,1
767,767,0.6121780954228587,0.6,0.0,0.0,284.0,877.0,0.0,1,3839.0,1
768,768,-0.7629998563370433,-0.8,1.0,0.0,484.0,959.0,0.0,0,3557.0,1
769,769,-0.6058028226288743,-0.6,0.0,1.0,311.0,813.0,0.0,1,3876.0,0
770,770,0.504340989726786,0.5,0.0,0.0,380.0,526.0,0.0,1,4094.0,1
771,771,-0.5519529614724008,-0.6,1.0,0.0,416.0,690.0,0.0,0,3894.0,1
772,772,-0.37912935388053226,-0.4,1.0,0.0,456.0,870.0,0.0,0,3674.0,1
773,773,-0.4095019055571086,-0.4,0.0,1.0,289.0,519.0,0.0,1,4192.0,0
774,774,0.7737419570759895,0.8,0.0,0.0,471.0,658.0,0.0,1,3871.0,1
775,775,0.8378417120423928,0.8,1.0,1.0,486.0,509.0,0.0,0,4005.0,0
776,776,0.49345528518044535,0.5,0.0,0.0,371.0,949.0,0.0,1,3680.0,1
777,777,-0.5520820411880791,-0.6,1.0,0.0,355.0,864.0,0.0,0,3781.0,1
778,778,0.4437755399786426,0.4,1.0,1.0,377.0,635.0,0.0,0,3988.0,0
779,779,-0.014175256261502955,-0.0,1.0,0.0,456.0,640.0,0.0,0,3904.0,1
780,780,0.5803169529579061,0.6,0.0,0.0,449.0,512.0,0.0,1,4039.0,1
781,781,0.22595748856675757,0.2,0.0,0.0,498.0,512.0,0.0,1,3990.0,1
782,782,0.05739579303385034,0.1,0.0,0.0,252.0,662.0,0.0,1,4086.0,1
783,783,0.881390892994801,0.9,1.0,1.0,446.0,955.0,0.0,0,3599.0,0
784,784,-0.3147816120443241,-0.3,1.0,0.0,293.0,578.0,0.0,0,4129.0,1
785,785,0.6611110179085372,0.7,1.0,1.0,386.0,758.0,0.0,0,3856.0,0
786,786,-0.40246300603146984,-0.4,1.0,0.0,456.0,738.0,0.0,0,3806.0,1
787,787,0.6610282580996222,0.7,1.0,1.0,398.0,981.0,1.0,1,-1319.0,1
788,788,-0.511186968705482,-0.5,0.0,1.0,483.0,819.0,0.0,1,3698.0,0
789,789,-0.33623863292581246,-0.3,1.0,0.0,376.0,695.0,0.0,0,3929.0,1
790,790,0.4350692794393728,0.4,0.0,0.0,325.0,819.0,0.0,1,3856.0,1
791,791,0.6791412833585616,0.7,1.0,1.0,379.0,524.0,0.0,0,4097.0,0
792,792,0.7454505551603875,0.7,0.0,0.0,348.0,926.0,0.0,1,3726.0,1
793,793,-0.09602977599416596,-0.1,0.0,1.0,370.0,678.0,0.0,1,3952.0,0
794,794,-0.13332120121391622,-0.1,0.0,1.0,299.0,792.0,1.0,0,-781.0,1
795,795,0.5827542304332075,0.6,1.0,1.0,430.0,650.0,0.0,0,3920.0,0
796,796,-0.3416334370745753,-0.3,1.0,0.0,405.0,692.0,0.0,0,3903.0,1
797,797,-0.1987569603878664,-0.2,1.0,0.0,359.0,508.0,0.0,0,4133.0,1
798,798,0.03440152749033898,0.0,0.0,0.0,350.0,761.0,0.0,1,3889.0,1
799,799,0.8355601364268482,0.8,1.0,1.0,349.0,756.0,0.0,0,3895.0,0
800,800,0.4580339396836467,0.5,1.0,1.0,390.0,968.0,0.0,0,3642.0,0
801,801,0.500992119401951,0.5,0.0,0.0,300.0,658.0,0.0,1,4042.0,1
802,802,-0.3882860875000863,-0.4,0.0,1.0,372.0,534.0,0.0,1,4094.0,0
803,803,0.4862137209662426,0.5,1.0,1.0,440.0,745.0,0.0,0,3815.0,0
804,804,-0.3727883745161432,-0.4,0.0,1.0,449.0,951.0,0.0,1,3600.0,0
805,805,0.5921498119008993,0.6,1.0,1.0,432.0,894.0,0.0,0,3674.0,0
806,806,-0.6510094849748373,-0.7,0.0,1.0,443.0,532.0,0.0,1,4025.0,0
807,807,0.8205961722336176,0.8,1.0,1.0,264.0,862.0,0.0,0,3874.0,0
808,808,-0.22615644710627836,-0.2,1.0,0.0,372.0,732.0,1.0,1,-974.0,0
809,809,0.46024749984409785,0.5,1.0,1.0,357.0,538.0,0.0,0,4105.0,0
810,810,0.6222518172641375,0.6,1.0,1.0,457.0,775.0,0.0,0,3768.0,0
811,811,0.747793850216567,0.7,1.0,1.0,271.0,743.0,0.0,0,3986.0,0
812,812,0.3288684703676493,0.3,0.0,0.0,301.0,674.0,0.0,1,4025.0,1
813,813,-0.10182214689413305,-0.1,1.0,0.0,289.0,586.0,0.0,0,4125.0,1
814,814,-0.29358157236362414,-0.3,0.0,1.0,400.0,570.0,0.0,1,4030.0,0
815,815,-0.3894900659182021,-0.4,0.0,1.0,474.0,935.0,0.0,1,3591.0,0
816,816,-0.19842952596896013,-0.2,1.0,0.0,307.0,582.0,0.0,0,4111.0,1
817,817,0.6577932103727543,0.7,0.0,0.0,414.0,754.0,0.0,1,3832.0,1
818,818,0.5060840584475573,0.5,1.0,1.0,335.0,871.0,0.0,0,3794.0,0
819,819,-0.12270203710260807,-0.1,0.0,1.0,291.0,509.0,0.0,1,4200.0,0
820,820,0.6215583292378967,0.6,0.0,0.0,389.0,618.0,0.0,1,3993.0,1
821,821,-0.6806135646090471,-0.7,1.0,0.0,313.0,637.0,0.0,0,4050.0,1
822,822,0.7744085537230182,0.8,1.0,1.0,487.0,615.0,0.0,0,3898.0,0
823,823,-0.7076465402841783,-0.7,0.0,1.0,400.0,669.0,0.0,1,3931.0,0
824,824,-0.44803491387180716,-0.4,1.0,0.0,388.0,887.0,0.0,0,3725.0,1
825,825,-0.47166344801113225,-0.5,1.0,0.0,401.0,531.0,0.0,0,4068.0,1
826,826,0.7958730177993697,0.8,0.0,0.0,472.0,504.0,0.0,1,4024.0,1
827,827,0.1649890807435962,0.2,1.0,1.0,486.0,855.0,0.0,0,3659.0,0
828,828,-0.42184202490745787,-0.4,1.0,0.0,388.0,710.0,0.0,0,3902.0,1
829,829,-0.8734977627254137,-0.9,0.0,1.0,385.0,750.0,0.0,1,3865.0,0
830,830,0.3908521329617528,0.4,1.0,1.0,305.0,734.0,1.0,1,-1019.0,1
831,831,-0.05056473149962115,-0.1,0.0,1.0,400.0,513.0,0.0,1,4087.0,0
832,832,-0.11858969449053058,-0.1,1.0,0.0,405.0,680.0,0.0,0,3915.0,1
833,833,-0.3280102572910858,-0.3,0.0,1.0,460.0,726.0,0.0,1,3814.0,0
834,834,0.5113604130222428,0.5,0.0,0.0,430.0,555.0,0.0,1,4015.0,1
835,835,0.7717481809987804,0.8,0.0,0.0,457.0,811.0,0.0,1,-1188.0,1
836,836,0.1640682330546951,0.2,1.0,1.0,489.0,776.0,0.0,0,3735.0,0
837,837,-0.30411637020010973,-0.3,0.0,1.0,373.0,724.0,0.0,1,3903.0,0
838,838,-0.6416582170430827,-0.6,0.0,1.0,262.0,705.0,0.0,1,4033.0,0
839,839,0.025423635803309863,0.0,1.0,1.0,398.0,934.0,0.0,0,3668.0,0
840,840,-0.37577230951911267,-0.4,1.0,0.0,343.0,995.0,0.0,0,3662.0,1
841,841,-0.7944874976217681,-0.8,0.0,1.0,447.0,504.0,0.0,1,4049.0,0
842,842,-0.8897487771854554,-0.9,1.0,0.0,340.0,822.0,0.0,0,3838.0,1
843,843,-0.5649648791793777,-0.6,1.0,0.0,300.0,605.0,0.0,0,4095.0,1
844,844,0.6503524069205256,0.7,1.0,1.0,261.0,610.0,0.0,0,4129.0,0
845,845,-0.7623649321082402,-0.8,0.0,1.0,339.0,909.0,0.0,1,3752.0,0
846,846,-0.48688461934722976,-0.5,0.0,1.0,441.0,681.0,0.0,1,3878.0,0
847,847,-0.6513219000760281,-0.7,1.0,0.0,336.0,910.0,0.0,0,3754.0,1
848,848,0.10053998340036252,0.1,0.0,0.0,496.0,691.0,0.0,1,3813.0,1
849,849,-0.04019136238157761,-0.0,1.0,0.0,344.0,872.0,0.0,0,3784.0,1
850,850,-0.45889821708834905,-0.5,0.0,1.0,257.0,744.0,1.0,0,-941.0,1
851,851,-0.41490377069487144,-0.4,0.0,1.0,462.0,968.0,0.0,1,3570.0,0
852,852,0.8134393294135475,0.8,1.0,1.0,296.0,835.0,0.0,0,3869.0,0
853,853,0.40133094230364164,0.4,0.0,0.0,373.0,505.0,0.0,1,4122.0,1
854,854,0.28541587643822985,0.3,0.0,0.0,259.0,590.0,0.0,1,4151.0,1
855,855,-0.5659550385981006,-0.6,0.0,1.0,386.0,834.0,0.0,1,3780.0,0
856,856,-0.8154595686092074,-0.8,1.0,0.0,418.0,729.0,0.0,0,3853.0,1
857,857,0.648905473674435,0.6,0.0,0.0,424.0,818.0,0.0,1,3758.0,1
858,858,-0.5271005230252688,-0.5,1.0,0.0,432.0,652.0,0.0,0,3916.0,1
859,859,-0.08927087520778709,-0.1,0.0,1.0,395.0,900.0,0.0,1,3705.0,0
860,860,-0.34006056058489964,-0.3,0.0,1.0,304.0,720.0,0.0,1,3976.0,0
861,861,-0.7032311360240902,-0.7,1.0,0.0,278.0,991.0,0.0,0,3731.0,1
862,862,0.33942789409328256,0.3,1.0,1.0,409.0,622.0,0.0,0,3969.0,0
863,863,0.6614796189738713,0.7,1.0,1.0,267.0,735.0,0.0,0,3998.0,0
864,864,0.7762233379965892,0.8,1.0,1.0,280.0,542.0,0.0,0,4178.0,0
865,865,-0.07887805203524811,-0.1,1.0,0.0,263.0,767.0,0.0,0,3970.0,1
866,866,-0.153470095586409,-0.2,0.0,1.0,325.0,686.0,0.0,1,3989.0,0
867,867,0.4239431559840917,0.4,0.0,0.0,347.0,994.0,0.0,1,3659.0,1
868,868,0.3781068829503288,0.4,0.0,0.0,297.0,728.0,0.0,1,3975.0,1
869,869,-0.19092771203562564,-0.2,0.0,1.0,310.0,655.0,0.0,1,4035.0,0
870,870,-0.8791437751949587,-0.9,1.0,0.0,421.0,677.0,0.0,0,-1038.0,1
871,871,-0.09584753367402621,-0.1,0.0,1.0,261.0,869.0,0.0,1,3870.0,0
872,872,-0.16910728916672413,-0.2,0.0,1.0,277.0,745.0,0.0,1,3978.0,0
873,873,0.4848689146086026,0.5,1.0,1.0,426.0,769.0,0.0,0,3805.0,0
874,874,0.5453705650292492,0.5,0.0,0.0,349.0,888.0,0.0,1,3763.0,1
875,875,0.3427522272503426,0.3,1.0,1.0,251.0,946.0,0.0,0,-1107.0,0
876,876,0.5530535984313004,0.6,0.0,0.0,333.0,669.0,0.0,1,3998.0,1
877,877,0.033069105140892785,0.0,1.0,1.0,309.0,782.0,0.0,0,3909.0,0
878,878,0.8360649654281148,0.8,0.0,0.0,287.0,702.0,0.0,1,4011.0,1
879,879,-0.002721083942725633,-0.0,1.0,0.0,347.0,880.0,0.0,0,3773.0,1
880,880,-0.0942354547782207,-0.1,0.0,1.0,252.0,829.0,1.0,0,-1021.0,1
881,881,-0.05765175408110934,-0.1,0.0,1.0,425.0,778.0,0.0,1,3797.0,0
882,882,0.6487943156525852,0.6,1.0,1.0,474.0,957.0,0.0,0,3569.0,0
883,883,-0.3618466881642024,-0.4,0.0,1.0,385.0,920.0,0.0,1,3695.0,0
884,884,0.38293697089621503,0.4,1.0,1.0,281.0,776.0,0.0,0,3943.0,0
885,885,-0.5405856122043349,-0.5,1.0,0.0,419.0,706.0,0.0,0,3875.0,1
886,886,0.6971340144431889,0.7,1.0,1.0,396.0,845.0,1.0,1,-1191.0,1
887,887,0.05881833840099604,0.1,1.0,1.0,452.0,944.0,0.0,0,-1386.0,0
888,888,0.421868739207636,0.4,0.0,0.0,401.0,687.0,0.0,1,3912.0,1
889,889,0.06712987145559779,0.1,0.0,0.0,472.0,562.0,0.0,1,3966.0,1
890,890,0.600623116811927,0.6,0.0,0.0,292.0,585.0,0.0,1,4123.0,1
891,891,-0.7639889784850992,-0.8,1.0,0.0,473.0,866.0,0.0,0,3661.0,1
892,892,0.5190850785854243,0.5,1.0,1.0,369.0,895.0,0.0,0,3736.0,0
893,893,-0.05809869820531266,-0.1,0.0,1.0,492.0,789.0,0.0,1,3719.0,0
894,894,0.6636425883183107,0.7,0.0,0.0,366.0,527.0,0.0,1,4107.0,1
895,895,0.44840941913997157,0.4,1.0,1.0,393.0,980.0,0.0,0,3627.0,0
896,896,0.6843492710388158,0.7,1.0,1.0,301.0,677.0,0.0,0,4022.0,0
897,897,0.750231717885305,0.8,1.0,1.0,415.0,722.0,0.0,0,3863.0,0
898,898,0.7070146868256352,0.7,1.0,1.0,480.0,802.0,0.0,0,3718.0,0
899,899,0.8117093677586465,0.8,1.0,1.0,254.0,679.0,0.0,0,4067.0,0
900,900,0.0582024131247304,0.1,0.0,0.0,460.0,912.0,0.0,1,3628.0,1
901,901,-0.17101334370842636,-0.2,0.0,1.0,250.0,931.0,0.0,1,3819.0,0
902,902,-0.034848150795839916,-0.0,0.0,1.0,492.0,643.0,0.0,1,3865.0,0
903,903,-0.4386565046459237,-0.4,0.0,1.0,324.0,889.0,0.0,1,3787.0,0
904,904,-0.19441428497423963,-0.2,1.0,0.0,434.0,895.0,0.0,0,3671.0,1
905,905,-0.3370898116160591,-0.3,0.0,1.0,259.0,627.0,0.0,1,4114.0,0
906,906,-0.3686605360612103,-0.4,1.0,0.0,343.0,553.0,1.0,1,-876.0,0
907,907,0.4954155168103874,0.5,0.0,0.0,429.0,705.0,0.0,1,3866.0,1
908,908,-0.29695587724443406,-0.3,0.0,1.0,396.0,658.0,0.0,1,3946.0,0
909,909,0.6541956971451314,0.7,0.0,0.0,460.0,519.0,0.0,1,4021.0,1
910,910,-0.29422694244167336,-0.3,0.0,1.0,497.0,808.0,0.0,1,3695.0,0
911,911,0.3381974470828065,0.3,1.0,1.0,489.0,741.0,0.0,0,3770.0,0
912,912,-0.003918440598363104,-0.0,0.0,1.0,447.0,838.0,0.0,1,3715.0,0
913,913,0.3863972175784619,0.4,1.0,1.0,288.0,640.0,0.0,0,4072.0,0
914,914,0.31125500847070764,0.3,1.0,1.0,296.0,985.0,0.0,0,3719.0,0
915,915,0.35445694686225193,0.4,0.0,0.0,319.0,934.0,0.0,1,3747.0,1
916,916,-0.37034378942140433,-0.4,0.0,1.0,449.0,647.0,0.0,1,3904.0,0
917,917,-0.859082109822464,-0.9,0.0,1.0,340.0,718.0,0.0,1,3942.0,0
918,918,-0.5413908853246822,-0.5,1.0,0.0,334.0,957.0,0.0,0,3709.0,1
919,919,-0.29523054321257336,-0.3,0.0,1.0,451.0,630.0,0.0,1,3919.0,0
920,920,0.6544807899282977,0.7,1.0,1.0,294.0,869.0,0.0,0,3837.0,0
921,921,0.21424265564070677,0.2,0.0,0.0,492.0,798.0,0.0,1,3710.0,1
922,922,-0.048284476291875156,-0.0,1.0,0.0,279.0,789.0,0.0,0,3932.0,1
923,923,0.5773262891439918,0.6,1.0,1.0,250.0,568.0,0.0,0,4182.0,0
924,924,0.4926236224365542,0.5,1.0,1.0,372.0,671.0,0.0,0,3957.0,0
925,925,-0.5616951812692199,-0.6,1.0,0.0,412.0,612.0,0.0,0,3976.0,1
926,926,0.13935336040574342,0.1,1.0,1.0,287.0,655.0,0.0,0,4058.0,0
927,927,0.28803371589739457,0.3,0.0,0.0,484.0,859.0,0.0,1,3657.0,1
928,928,0.7123879328099648,0.7,0.0,0.0,254.0,758.0,1.0,0,-962.0,0
929,929,-0.5778643658936178,-0.6,0.0,1.0,407.0,577.0,0.0,1,4016.0,0
930,930,0.04850252564907287,0.0,0.0,0.0,449.0,645.0,0.0,1,3906.0,1
931,931,0.11516811370791402,0.1,1.0,1.0,460.0,524.0,0.0,0,4016.0,0
932,932,-0.39153996106413314,-0.4,0.0,1.0,293.0,901.0,0.0,1,3806.0,0
933,933,0.7122624991090748,0.7,1.0,1.0,347.0,959.0,0.0,0,3694.0,0
934,934,-0.12283075724892667,-0.1,1.0,0.0,286.0,803.0,0.0,0,3911.0,1
935,935,0.06728261556029369,0.1,1.0,1.0,253.0,891.0,0.0,0,3856.0,0
936,936,0.564491431987837,0.6,1.0,1.0,320.0,599.0,0.0,0,4081.0,0
937,937,-0.698769596051829,-0.7,0.0,1.0,276.0,749.0,0.0,1,3975.0,0
938,938,-0.014448052187118976,-0.0,1.0,0.0,397.0,851.0,0.0,0,3752.0,1
939,939,0.39685506359510525,0.4,1.0,1.0,476.0,637.0,0.0,0,3887.0,0
940,940,-0.11127051041733438,-0.1,0.0,1.0,261.0,817.0,0.0,1,3922.0,0
941,941,-0.17437677689652975,-0.2,0.0,1.0,315.0,738.0,0.0,1,3947.0,0
942,942,-0.7629543170345023,-0.8,0.0,1.0,389.0,772.0,0.0,1,-1101.0,0
943,943,0.2548714910961235,0.3,0.0,0.0,280.0,880.0,0.0,1,3840.0,1
944,944,-0.8473983224789361,-0.8,0.0,1.0,440.0,966.0,0.0,1,3594.0,0
945,945,-0.7108390423653708,-0.7,1.0,0.0,442.0,601.0,0.0,0,3957.0,1
946,946,0.8967824521582809,0.9,0.0,0.0,271.0,582.0,0.0,1,4147.0,1
947,947,0.8997931133151812,0.9,0.0,0.0,273.0,980.0,0.0,1,3747.0,1
948,948,-0.3864429554303711,-0.4,0.0,1.0,308.0,634.0,0.0,1,4058.0,0
949,949,-0.6028190350645217,-0.6,1.0,0.0,325.0,777.0,0.0,0,3898.0,1
950,950,-0.06204290259494616,-0.1,0.0,1.0,327.0,949.0,0.0,1,3724.0,0
951,951,0.8765122509005826,0.9,0.0,0.0,479.0,904.0,0.0,1,3617.0,1
952,952,-0.30813492746793214,-0.3,0.0,1.0,422.0,770.0,0.0,1,3808.0,0
953,953,-0.4252992446449066,-0.4,1.0,0.0,347.0,582.0,0.0,0,4071.0,1
954,954,-0.86869865111987,-0.9,0.0,1.0,474.0,557.0,0.0,1,3969.0,0
955,955,0.2937654144492746,0.3,0.0,0.0,391.0,928.0,0.0,1,3681.0,1
956,956,-0.6597648340301014,-0.7,0.0,1.0,402.0,935.0,0.0,1,3663.0,0
957,957,0.4814753221817315,0.5,0.0,0.0,297.0,724.0,0.0,1,3979.0,1
958,958,-0.23806090803775137,-0.2,1.0,0.0,280.0,652.0,0.0,0,4068.0,1
959,959,0.4359529157249512,0.4,0.0,0.0,275.0,754.0,0.0,1,3971.0,1
960,960,-0.6700289641067213,-0.7,1.0,0.0,290.0,765.0,0.0,0,3945.0,1
961,961,0.40006062168849554,0.4,1.0,1.0,352.0,809.0,0.0,0,3839.0,0
962,962,-0.7722395445594656,-0.8,1.0,0.0,478.0,654.0,0.0,0,3868.0,1
963,963,-0.8545956224519755,-0.9,0.0,1.0,407.0,978.0,0.0,1,3615.0,0
964,964,-0.07272240704810717,-0.1,0.0,1.0,458.0,773.0,0.0,1,3769.0,0
965,965,-0.7143526556638818,-0.7,1.0,0.0,355.0,517.0,0.0,0,4128.0,1
966,966,-0.7254744915865554,-0.7,0.0,1.0,441.0,843.0,0.0,1,3716.0,0
967,967,-0.09541829594099593,-0.1,1.0,0.0,327.0,540.0,0.0,0,4133.0,1
968,968,0.3441517564517428,0.3,0.0,0.0,466.0,741.0,0.0,1,3793.0,1
969,969,-0.8482439488326275,-0.8,0.0,1.0,395.0,673.0,0.0,1,3932.0,0
970,970,0.20399310582970764,0.2,1.0,1.0,475.0,641.0,0.0,0,3884.0,0
971,971,0.6593623520817055,0.7,1.0,1.0,299.0,958.0,0.0,0,3743.0,0
972,972,-0.4082096830983169,-0.4,0.0,1.0,442.0,747.0,0.0,1,3811.0,0
973,973,0.15077361578033777,0.2,1.0,1.0,387.0,975.0,0.0,0,3638.0,0
974,974,0.5678038048156783,0.6,0.0,0.0,374.0,979.0,1.0,0,-1043.0,0
975,975,-0.5412230658965476,-0.5,1.0,0.0,336.0,584.0,0.0,0,4080.0,1
976,976,0.4512570946345803,0.5,1.0,1.0,454.0,799.0,0.0,0,3747.0,0
977,977,-0.24387321288497255,-0.2,0.0,1.0,366.0,946.0,0.0,1,3688.0,0
978,978,0.23673521908734563,0.2,1.0,1.0,343.0,642.0,0.0,0,4015.0,0
979,979,0.8593283577719174,0.9,1.0,1.0,465.0,586.0,0.0,0,3949.0,0
980,980,0.4251060618181549,0.4,0.0,0.0,442.0,868.0,0.0,1,-1200.0,1
981,981,0.25073595949344984,0.3,0.0,0.0,413.0,645.0,0.0,1,3942.0,1
982,982,0.28570134670379976,0.3,0.0,0.0,489.0,648.0,0.0,1,3863.0,1
983,983,-0.36579328436204805,-0.4,1.0,0.0,251.0,514.0,0.0,0,4235.0,1
984,984,-0.246615284516299,-0.2,0.0,1.0,345.0,990.0,0.0,1,3665.0,0
985,985,-0.07577801891583935,-0.1,0.0,1.0,400.0,542.0,0.0,1,4058.0,0
986,986,0.6636232608862372,0.7,1.0,1.0,298.0,903.0,0.0,0,3799.0,0
987,987,0.08462299189424516,0.1,0.0,0.0,352.0,984.0,0.0,1,3664.0,1
988,988,-0.06994546729180107,-0.1,1.0,0.0,375.0,732.0,0.0,0,3893.0,1
989,989,0.6840715619568408,0.7,0.0,0.0,473.0,729.0,0.0,1,3798.0,1
990,990,0.6897930976454315,0.7,1.0,1.0,389.0,717.0,0.0,0,3894.0,0
991,991,-0.8704803847719693,-0.9,0.0,1.0,413.0,582.0,0.0,1,4005.0,0
992,992,-0.3733192882934674,-0.4,0.0,1.0,298.0,999.0,0.0,1,3703.0,0
993,993,-0.8390526023804455,-0.8,1.0,0.0,346.0,666.0,0.0,0,-1002.0,1
994,994,-0.06793507055396864,-0.1,1.0,0.0,332.0,580.0,0.0,0,4088.0,1
995,995,0.5320993271624236,0.5,0.0,0.0,433.0,728.0,0.0,1,-1041.0,1
996,996,0.19431043047694085,0.2,1.0,1.0,281.0,645.0,0.0,0,4074.0,0
997,997,-0.8308146239538866,-0.8,1.0,0.0,319.0,708.0,0.0,0,3973.0,1
998,998,0.45146365181876014,0.5,0.0,0.0,392.0,833.0,0.0,1,3775.0,1
999,999,0.6768371376636854,0.7,0.0,0.0,407.0,810.0,0.0,1,3783.0,1
1000,1000,-0.25969213680675496,-0.3,0.0,1.0,410.0,955.0,0.0,1,3635.0,0
1001,1001,0.6697531823808144,0.7,0.0,0.0,340.0,838.0,0.0,1,3822.0,1
1002,1002,-0.7734168529115765,-0.8,1.0,0.0,269.0,715.0,0.0,0,4016.0,1
1003,1003,-0.18644961346005495,-0.2,0.0,1.0,372.0,953.0,0.0,1,3675.0,0
1004,1004,-0.5753589258425286,-0.6,1.0,0.0,378.0,931.0,0.0,0,3691.0,1
1005,1005,-0.07116507791069027,-0.1,0.0,1.0,464.0,601.0,0.0,1,-1035.0,0
1006,1006,0.09432147075114183,0.1,1.0,1.0,424.0,962.0,0.0,0,3614.0,0
1007,1007,0.8541224847809233,0.9,1.0,1.0,327.0,860.0,0.0,0,3813.0,0
1008,1008,-0.17548572913692284,-0.2,1.0,0.0,276.0,896.0,0.0,0,3828.0,1
1009,1009,0.4139653832433233,0.4,0.0,0.0,462.0,783.0,0.0,1,3755.0,1
1010,1010,0.28908053324253535,0.3,0.0,0.0,406.0,854.0,0.0,1,3740.0,1
1011,1011,0.423655281265482,0.4,1.0,1.0,354.0,598.0,0.0,0,4048.0,0
1012,1012,-0.6201580740707989,-0.6,0.0,1.0,299.0,975.0,0.0,1,3726.0,0
1013,1013,-0.3591423331620647,-0.4,1.0,0.0,316.0,962.0,0.0,0,3722.0,1
1014,1014,-0.3457238305447219,-0.3,0.0,1.0,329.0,643.0,0.0,1,4028.0,0
1015,1015,0.18249118638820383,0.2,0.0,0.0,331.0,779.0,0.0,1,3890.0,1
1016,1016,0.7812664355678559,0.8,0.0,0.0,474.0,570.0,0.0,1,3956.0,1
1017,1017,-0.1802305511041572,-0.2,0.0,1.0,350.0,956.0,0.0,1,3694.0,0
1018,1018,0.3220659717138711,0.3,0.0,0.0,273.0,866.0,0.0,1,3861.0,1
1019,1019,0.878885309959813,0.9,1.0,1.0,287.0,686.0,1.0,1,-973.0,1
1020,1020,-0.8479292951482609,-0.8,1.0,0.0,291.0,664.0,0.0,0,4045.0,1
1021,1021,0.618284048960852,0.6,0.0,0.0,308.0,507.0,0.0,1,4185.0,1
1022,1022,0.8750714861848657,0.9,1.0,1.0,413.0,744.0,0.0,0,3843.0,0
1023,1023,-0.12755013105106583,-0.1,1.0,0.0,446.0,846.0,0.0,0,3708.0,1
1024,1024,0.5575459890812026,0.6,0.0,0.0,265.0,926.0,0.0,1,3809.0,1
1025,1025,-0.12861197287646764,-0.1,1.0,0.0,308.0,690.0,0.0,0,4002.0,1
1026,1026,0.716254278432975,0.7,1.0,1.0,412.0,686.0,1.0,1,-1098.0,1
1027,1027,0.4463424860153672,0.4,0.0,0.0,255.0,664.0,0.0,1,4081.0,1
1028,1028,0.34324491965007786,0.3,0.0,0.0,282.0,773.0,0.0,1,3945.0,1
1029,1029,-0.2530003321068566,-0.3,0.0,1.0,343.0,909.0,0.0,1,3748.0,0
1030,1030,0.41993982237806204,0.4,1.0,1.0,359.0,575.0,0.0,0,4066.0,0
1031,1031,-0.6616197593208708,-0.7,0.0,1.0,344.0,946.0,0.0,1,3710.0,0
1032,1032,0.1958763961032729,0.2,1.0,1.0,270.0,647.0,0.0,0,4083.0,0
1033,1033,0.3200084541431357,0.3,1.0,1.0,286.0,632.0,0.0,0,4082.0,0
1034,1034,-0.6999575737742492,-0.7,1.0,0.0,267.0,843.0,0.0,0,-1070.0,1
1035,1035,-0.2320999969733888,-0.2,0.0,1.0,364.0,863.0,0.0,1,3773.0,0
1036,1036,-0.008707509476178155,-0.0,0.0,1.0,351.0,872.0,0.0,1,3777.0,0
1037,1037,-0.6022009523135301,-0.6,0.0,1.0,298.0,765.0,0.0,1,-1023.0,0
1038,1038,-0.569772611613645,-0.6,0.0,1.0,429.0,523.0,0.0,1,4048.0,0
1039,1039,0.4370387477526604,0.4,1.0,1.0,350.0,538.0,0.0,0,-878.0,0
1040,1040,-0.04467218672409845,-0.0,0.0,1.0,275.0,721.0,0.0,1,4004.0,0
1041,1041,-0.8025715296990494,-0.8,1.0,0.0,454.0,874.0,0.0,0,3672.0,1
1042,1042,0.7779518309596049,0.8,0.0,0.0,338.0,978.0,0.0,1,3684.0,1
1043,1043,-0.1352095985951436,-0.1,1.0,0.0,354.0,868.0,0.0,0,3778.0,1
1044,1044,-0.629131503297391,-0.6,1.0,0.0,361.0,669.0,0.0,0,3970.0,1
1045,1045,0.5553528041913743,0.6,1.0,1.0,267.0,526.0,1.0,1,-723.0,1
1046,1046,-0.6334056398967997,-0.6,1.0,0.0,365.0,679.0,1.0,1,-1014.0,0
1047,1047,0.8265213957306724,0.8,0.0,0.0,375.0,528.0,0.0,1,-883.0,1
1048,1048,0.3319127593095158,0.3,1.0,1.0,357.0,946.0,0.0,0,3697.0,0
1049,1049,-0.6615760454165379,-0.7,1.0,0.0,377.0,637.0,0.0,0,3986.0,1
1050,1050,0.24090262125768935,0.2,0.0,0.0,295.0,815.0,0.0,1,3890.0,1
1051,1051,-0.5081712140671955,-0.5,0.0,1.0,479.0,642.0,0.0,1,3879.0,0
1052,1052,-0.5351407464550473,-0.5,1.0,0.0,395.0,880.0,0.0,0,3725.0,1
1053,1053,0.8567856960075094,0.9,1.0,1.0,377.0,854.0,0.0,0,3769.0,0
1054,1054,0.15242895163180992,0.2,1.0,1.0,413.0,879.0,0.0,0,3708.0,0
1055,1055,0.14048468382283474,0.1,0.0,0.0,272.0,762.0,0.0,1,3966.0,1
1056,1056,-0.03371237421482831,-0.0,0.0,1.0,487.0,687.0,0.0,1,3826.0,0
1057,1057,0.30954245952083925,0.3,1.0,1.0,448.0,714.0,0.0,0,-1082.0,0
1058,1058,0.7009646153271499,0.7,1.0,1.0,463.0,776.0,0.0,0,3761.0,0
1059,1059,-0.42818829678510667,-0.4,1.0,0.0,336.0,924.0,0.0,0,3740.0,1
1060,1060,0.48005743503304477,0.5,1.0,1.0,378.0,640.0,0.0,0,3982.0,0
1061,1061,-0.09461843564746064,-0.1,1.0,0.0,495.0,677.0,0.0,0,3828.0,1
1062,1062,-0.3253441875405968,-0.3,0.0,1.0,375.0,585.0,0.0,1,4040.0,0
1063,1063,0.3750924927666658,0.4,1.0,1.0,282.0,637.0,0.0,0,4081.0,0
1064,1064,-0.23662180949213651,-0.2,0.0,1.0,414.0,673.0,0.0,1,3913.0,0
1065,1065,-0.24104521404005685,-0.2,1.0,0.0,254.0,641.0,0.0,0,4105.0,1
1066,1066,-0.42752886876930135,-0.4,1.0,0.0,348.0,981.0,0.0,0,3671.0,1
1067,1067,-0.1027282569981609,-0.1,0.0,1.0,453.0,638.0,0.0,1,3909.0,0
1068,1068,0.5235193587689283,0.5,0.0,0.0,486.0,594.0,0.0,1,3920.0,1
1069,1069,-0.6117086642936661,-0.6,0.0,1.0,309.0,604.0,0.0,1,4087.0,0
1070,1070,0.29047729627938923,0.3,1.0,1.0,255.0,739.0,0.0,0,4006.0,0
1071,1071,0.12565383962619447,0.1,1.0,1.0,416.0,772.0,0.0,0,3812.0,0
1072,1072,0.696306878391418,0.7,0.0,0.0,426.0,763.0,0.0,1,3811.0,1
1073,1073,0.1757128263894946,0.2,1.0,1.0,453.0,795.0,0.0,0,3752.0,0
1074,1074,-0.3787256415361141,-0.4,0.0,1.0,379.0,779.0,0.0,1,3842.0,0
1075,1075,0.20197511031764936,0.2,1.0,1.0,464.0,856.0,0.0,0,3680.0,0
1076,1076,-0.6785823622857916,-0.7,1.0,0.0,300.0,862.0,0.0,0,3838.0,1
1077,1077,0.21500385677097633,0.2,0.0,0.0,287.0,558.0,0.0,1,4155.0,1
1078,1078,0.4744833361986339,0.5,1.0,1.0,478.0,782.0,0.0,0,3740.0,0
1079,1079,0.4965209387588999,0.5,1.0,1.0,317.0,659.0,0.0,0,4024.0,0
1080,1080,0.601012778848461,0.6,0.0,0.0,318.0,629.0,0.0,1,4053.0,1
1081,1081,0.02882044286468788,0.0,1.0,1.0,313.0,553.0,0.0,0,4134.0,0
1082,1082,0.5426643228072098,0.5,1.0,1.0,281.0,628.0,0.0,0,4091.0,0
1083,1083,0.2057526348880655,0.2,1.0,1.0,329.0,704.0,0.0,0,3967.0,0
1084,1084,0.18897328934235358,0.2,0.0,0.0,355.0,580.0,0.0,1,4065.0,1
1085,1085,0.4222505071982482,0.4,0.0,0.0,256.0,708.0,0.0,1,4036.0,1
1086,1086,0.3442646479536734,0.3,1.0,1.0,422.0,609.0,0.0,0,3969.0,0
1087,1087,-0.24637831110678532,-0.2,1.0,0.0,438.0,676.0,0.0,0,3886.0,1
1088,1088,0.5334012973743513,0.5,0.0,0.0,290.0,801.0,0.0,1,3909.0,1
1089,1089,0.596645146137076,0.6,0.0,0.0,465.0,759.0,0.0,1,3776.0,1
1090,1090,-0.06762671858683267,-0.1,0.0,1.0,322.0,659.0,0.0,1,4019.0,0
1091,1091,-0.7356368649235092,-0.7,0.0,1.0,345.0,580.0,0.0,1,4075.0,0
1092,1092,-0.6167922834442748,-0.6,1.0,0.0,274.0,666.0,0.0,0,4060.0,1
1093,1093,-0.020503560878757043,-0.0,1.0,0.0,484.0,700.0,0.0,0,3816.0,1
1094,1094,0.7876261130549579,0.8,1.0,1.0,301.0,749.0,0.0,0,3950.0,0
1095,1095,0.8823917447363491,0.9,0.0,0.0,266.0,954.0,0.0,1,3780.0,1
1096,1096,0.8793215371259734,0.9,1.0,1.0,328.0,955.0,0.0,0,3717.0,0
1097,1097,-0.2527517052224454,-0.3,0.0,1.0,468.0,946.0,0.0,1,3586.0,0
1098,1098,0.3988309006628966,0.4,0.0,0.0,424.0,514.0,0.0,1,4062.0,1
1099,1099,-0.6790324337118678,-0.7,0.0,1.0,378.0,720.0,0.0,1,3902.0,0
1100,1100,-0.52648748323843,-0.5,0.0,1.0,440.0,845.0,1.0,0,-1225.0,1
1101,1101,-0.7742990697075726,-0.8,1.0,0.0,430.0,696.0,0.0,0,3874.0,1
1102,1102,0.6253410909678,0.6,1.0,1.0,256.0,990.0,0.0,0,3754.0,0
1103,1103,0.6610868163303695,0.7,1.0,1.0,311.0,581.0,0.0,0,4108.0,0
1104,1104,-0.4844071829235523,-0.5,0.0,1.0,300.0,591.0,0.0,1,-791.0,0
1105,1105,0.7789891678929556,0.8,1.0,1.0,497.0,668.0,0.0,0,3835.0,0
1106,1106,-0.6865121747732761,-0.7,0.0,1.0,251.0,592.0,0.0,1,4157.0,0
1107,1107,0.28778521581125227,0.3,1.0,1.0,490.0,679.0,0.0,0,3831.0,0
1108,1108,-0.10013410051022842,-0.1,0.0,1.0,381.0,853.0,0.0,1,3766.0,0
1109,1109,0.34715261314011625,0.3,0.0,0.0,474.0,854.0,0.0,1,3672.0,1
1110,1110,-0.7906952192074318,-0.8,0.0,1.0,304.0,738.0,0.0,1,3958.0,0
1111,1111,0.7762923592806009,0.8,0.0,0.0,474.0,954.0,0.0,1,3572.0,1
1112,1112,0.21827448060207277,0.2,0.0,0.0,339.0,861.0,0.0,1,3800.0,1
1113,1113,0.029357301046658235,0.0,0.0,0.0,447.0,785.0,0.0,1,3768.0,1
1114,1114,-0.5219302936477019,-0.5,1.0,0.0,253.0,761.0,0.0,0,3986.0,1
1115,1115,0.3197132268892836,0.3,1.0,1.0,496.0,690.0,0.0,0,3814.0,0
1116,1116,-0.11253236305174663,-0.1,0.0,1.0,435.0,613.0,0.0,1,3952.0,0
1117,1117,0.34221893891414246,0.3,1.0,1.0,414.0,589.0,0.0,0,3997.0,0
1118,1118,0.44046235743816353,0.4,0.0,0.0,268.0,620.0,0.0,1,4112.0,1
1119,1119,-0.7161933280598616,-0.7,1.0,0.0,366.0,752.0,0.0,0,3882.0,1
1120,1120,-0.3518423933414049,-0.4,1.0,0.0,465.0,610.0,0.0,0,3925.0,1
1121,1121,-0.3696420278467618,-0.4,1.0,0.0,366.0,663.0,0.0,0,3971.0,1
1122,1122,0.1724270997989118,0.2,0.0,0.0,293.0,764.0,0.0,1,3943.0,1
1123,1123,-0.6395884592062206,-0.6,1.0,0.0,350.0,923.0,0.0,0,3727.0,1
1124,1124,0.5391728228174429,0.5,0.0,0.0,278.0,670.0,0.0,1,4052.0,1
1125,1125,0.8776760473468285,0.9,0.0,0.0,433.0,993.0,0.0,1,3574.0,1
1126,1126,-0.16841307755469503,-0.2,0.0,1.0,389.0,635.0,0.0,1,-1014.0,0
1127,1127,-0.12962392076902274,-0.1,1.0,0.0,499.0,740.0,0.0,0,3761.0,1
1128,1128,-0.18216951058236552,-0.2,1.0,0.0,387.0,923.0,1.0,1,-1260.0,0
1129,1129,-0.34413841264743295,-0.3,1.0,0.0,306.0,517.0,0.0,0,4177.0,1
1130,1130,-0.7405413680024742,-0.7,0.0,1.0,435.0,816.0,0.0,1,3749.0,0
1131,1131,0.10027796320968074,0.1,0.0,0.0,431.0,614.0,1.0,0,-1015.0,0
1132,1132,0.8572996728761427,0.9,0.0,0.0,263.0,980.0,0.0,1,-1223.0,1
1133,1133,0.8574640827216548,0.9,0.0,0.0,430.0,720.0,0.0,1,3850.0,1
1134,1134,0.5791995743425454,0.6,1.0,1.0,498.0,581.0,0.0,0,3921.0,0
1135,1135,0.1668358760789469,0.2,1.0,1.0,271.0,874.0,0.0,0,3855.0,0
1136,1136,0.6035959629602251,0.6,0.0,0.0,408.0,815.0,0.0,1,3777.0,1
1137,1137,-0.10927993790644275,-0.1,0.0,1.0,307.0,868.0,0.0,1,3825.0,0
1138,1138,-0.40307320577394185,-0.4,1.0,0.0,434.0,503.0,1.0,1,-867.0,0
1139,1139,0.3384316114649105,0.3,1.0,1.0,484.0,573.0,0.0,0,3943.0,0
1140,1140,-0.4082515378597762,-0.4,0.0,1.0,399.0,982.0,0.0,1,3619.0,0
1141,1141,0.43716699740886666,0.4,1.0,1.0,442.0,571.0,0.0,0,3987.0,0
1142,1142,-0.2936222100978283,-0.3,0.0,1.0,279.0,628.0,0.0,1,4093.0,0
1143,1143,0.15075741915248864,0.2,0.0,0.0,321.0,933.0,1.0,0,-1254.0,0
1144,1144,-0.44855084977190435,-0.4,1.0,0.0,341.0,961.0,0.0,0,3698.0,1
1145,1145,0.4324493408719877,0.4,1.0,1.0,451.0,502.0,0.0,0,4047.0,0
1146,1146,-0.4695273445250499,-0.5,0.0,1.0,392.0,708.0,0.0,1,3900.0,0
1147,1147,0.4389192921260602,0.4,1.0,1.0,278.0,593.0,0.0,0,4129.0,0
1148,1148,0.12760157080252743,0.1,0.0,0.0,300.0,789.0,0.0,1,3911.0,1
1149,1149,-0.2663335721375445,-0.3,1.0,0.0,429.0,835.0,0.0,0,3736.0,1
1150,1150,-0.7852811551321194,-0.8,1.0,0.0,330.0,546.0,0.0,0,4124.0,1
1151,1151,-0.5592942931571716,-0.6,1.0,0.0,346.0,791.0,0.0,0,3863.0,1
1152,1152,-0.7385961988749441,-0.7,0.0,1.0,382.0,628.0,1.0,0,-880.0,1
1153,1153,-0.8551379829289967,-0.9,1.0,0.0,267.0,754.0,0.0,0,3979.0,1
1154,1154,0.7478239175747786,0.7,1.0,1.0,386.0,816.0,0.0,0,3798.0,0
1155,1155,-0.4993917043578557,-0.5,1.0,0.0,356.0,716.0,0.0,0,3928.0,1
1156,1156,0.24595275726444743,0.2,0.0,0.0,271.0,741.0,0.0,1,-962.0,1
1157,1157,-0.318493344177035,-0.3,1.0,0.0,321.0,993.0,0.0,0,-1264.0,1
1158,1158,0.013565938023387458,0.0,1.0,1.0,365.0,617.0,0.0,0,4018.0,0
1159,1159,0.5856418026644928,0.6,0.0,0.0,439.0,948.0,0.0,1,3613.0,1
1160,1160,-0.6162096219343306,-0.6,1.0,0.0,458.0,903.0,0.0,0,3639.0,1
1161,1161,-0.11611453199742905,-0.1,1.0,0.0,262.0,736.0,0.0,0,4002.0,1
1162,1162,-0.090632522972939,-0.1,1.0,0.0,441.0,862.0,0.0,0,3697.0,1
1163,1163,-0.5746803514038441,-0.6,1.0,0.0,461.0,639.0,0.0,0,3900.0,1
1164,1164,0.13798549154293582,0.1,1.0,1.0,384.0,865.0,0.0,0,3751.0,0
1165,1165,-0.7385970231789174,-0.7,1.0,0.0,256.0,531.0,0.0,0,4213.0,1
1166,1166,-0.1985068347575486,-0.2,1.0,0.0,266.0,634.0,0.0,0,4100.0,1
1167,1167,-0.4166666882431014,-0.4,1.0,0.0,275.0,963.0,0.0,0,3762.0,1
1168,1168,0.45463411794795283,0.5,1.0,1.0,434.0,516.0,0.0,0,4050.0,0
1169,1169,-0.7832631220347451,-0.8,0.0,1.0,456.0,520.0,0.0,1,4024.0,0
1170,1170,0.0592536038215602,0.1,1.0,1.0,290.0,882.0,0.0,0,3828.0,0
1171,1171,-0.4283464608571073,-0.4,1.0,0.0,490.0,931.0,0.0,0,3579.0,1
1172,1172,-0.38250988657709384,-0.4,0.0,1.0,307.0,662.0,0.0,1,4031.0,0
1173,1173,0.5771457264910803,0.6,1.0,1.0,326.0,672.0,0.0,0,4002.0,0
1174,1174,-0.8907386302294219,-0.9,0.0,1.0,372.0,865.0,0.0,1,3763.0,0
1175,1175,-0.4615856642653969,-0.5,1.0,0.0,475.0,916.0,0.0,0,3609.0,1
1176,1176,0.34245922950360697,0.3,0.0,0.0,254.0,952.0,0.0,1,3794.0,1
1177,1177,-0.45893801053922173,-0.5,1.0,0.0,330.0,934.0,0.0,0,3736.0,1
1178,1178,0.10467207522754196,0.1,0.0,0.0,332.0,751.0,0.0,1,-1063.0,1
1179,1179,0.11457115138832596,0.1,1.0,1.0,387.0,575.0,0.0,0,4038.0,0
1180,1180,0.7853311651279195,0.8,0.0,0.0,393.0,613.0,0.0,1,-796.0,1
1181,1181,-0.7424378323067127,-0.7,0.0,1.0,489.0,727.0,0.0,1,3784.0,0
1182,1182,0.8692054545094711,0.9,0.0,0.0,465.0,838.0,0.0,1,3697.0,1
1183,1183,0.7967259752987069,0.8,1.0,1.0,455.0,879.0,0.0,0,3666.0,0
1184,1184,0.7854546002593573,0.8,1.0,1.0,388.0,563.0,0.0,0,4049.0,0
1185,1185,0.2539288950194297,0.3,0.0,0.0,442.0,520.0,0.0,1,-752.0,1
1186,1186,-0.01776175973522942,-0.0,1.0,0.0,315.0,507.0,0.0,0,4178.0,1
1187,1187,0.7574202980450068,0.8,0.0,0.0,268.0,709.0,0.0,1,4023.0,1
1188,1188,0.6095626718081274,0.6,1.0,1.0,272.0,921.0,1.0,1,-1093.0,1
1189,1189,0.60370352710543,0.6,0.0,0.0,282.0,684.0,1.0,0,-956.0,0
1190,1190,-0.2671714120010633,-0.3,1.0,0.0,436.0,928.0,0.0,0,3636.0,1
1191,1191,-0.5793502524524328,-0.6,0.0,1.0,414.0,693.0,1.0,0,-1097.0,1
1192,1192,-0.21225053884053324,-0.2,0.0,1.0,456.0,608.0,1.0,0,-1034.0,1
1193,1193,0.8978290394585143,0.9,0.0,0.0,448.0,537.0,0.0,1,4015.0,1
1194,1194,-0.3690952193592465,-0.4,0.0,1.0,478.0,697.0,0.0,1,3825.0,0
1195,1195,-0.749442231900844,-0.7,1.0,0.0,294.0,836.0,0.0,0,3870.0,1
1196,1196,0.27749097168082704,0.3,1.0,1.0,410.0,996.0,0.0,0,3594.0,0
1197,1197,-0.7476687527202156,-0.7,0.0,1.0,257.0,909.0,1.0,0,-1076.0,1
1198,1198,0.1539713020885044,0.2,1.0,1.0,337.0,946.0,0.0,0,3717.0,0
1199,1199,-0.6091290549452517,-0.6,0.0,1.0,260.0,769.0,0.0,1,3971.0,0
1200,1200,-0.4993479949265331,-0.5,1.0,0.0,417.0,705.0,0.0,0,3878.0,1
1201,1201,0.8605103209752037,0.9,1.0,1.0,298.0,516.0,0.0,0,4186.0,0
1202,1202,-0.0895325032007549,-0.1,1.0,0.0,486.0,681.0,0.0,0,3833.0,1
1203,1203,0.7330089237817471,0.7,1.0,1.0,276.0,780.0,0.0,0,3944.0,0
1204,1204,-0.3622136199906303,-0.4,0.0,1.0,398.0,817.0,0.0,1,3785.0,0
1205,1205,-0.5386634412535143,-0.5,0.0,1.0,300.0,987.0,0.0,1,3713.0,0
1206,1206,-0.7982833391315793,-0.8,1.0,0.0,293.0,734.0,1.0,1,-967.0,0
1207,1207,-0.589933556630118,-0.6,1.0,0.0,385.0,937.0,0.0,0,3678.0,1
1208,1208,0.1633711109407069,0.2,1.0,1.0,327.0,964.0,0.0,0,3709.0,0
1209,1209,0.020320000449622788,0.0,1.0,1.0,292.0,809.0,0.0,0,-1021.0,0
1210,1210,0.24195157570803005,0.2,0.0,0.0,309.0,611.0,0.0,1,4080.0,1
1211,1211,-0.8943213003299185,-0.9,1.0,0.0,318.0,865.0,0.0,0,3817.0,1
1212,1212,0.4474052222646697,0.4,1.0,1.0,388.0,590.0,0.0,0,4022.0,0
1213,1213,0.714274554604411,0.7,1.0,1.0,320.0,882.0,0.0,0,3798.0,0
1214,1214,0.7081761405805059,0.7,0.0,0.0,387.0,592.0,0.0,1,4021.0,1
1215,1215,-0.5179957942524698,-0.5,0.0,1.0,376.0,665.0,0.0,1,3959.0,0
1216,1216,-0.4388703782086708,-0.4,1.0,0.0,311.0,951.0,0.0,0,3738.0,1
1217,1217,0.44074749006921976,0.4,0.0,0.0,428.0,606.0,0.0,1,-934.0,1
1218,1218,-0.7150353551457205,-0.7,0.0,1.0,303.0,587.0,0.0,1,4110.0,0
1219,1219,0.5686914081446236,0.6,1.0,1.0,364.0,539.0,0.0,0,4097.0,0
1220,1220,-0.36630642788537804,-0.4,0.0,1.0,430.0,856.0,0.0,1,3714.0,0
1221,1221,0.8438656813030249,0.8,1.0,1.0,422.0,908.0,0.0,0,3670.0,0
1222,1222,0.44910401463548066,0.4,1.0,1.0,406.0,956.0,0.0,0,3638.0,0
1223,1223,-0.7717212704972983,-0.8,1.0,0.0,282.0,521.0,1.0,1,-743.0,0
1224,1224,0.06220421334063875,0.1,0.0,0.0,375.0,512.0,0.0,1,4113.0,1
1225,1225,0.2933474349162307,0.3,0.0,0.0,444.0,902.0,1.0,0,-1206.0,0
1226,1226,0.6462347885511962,0.6,1.0,1.0,334.0,708.0,0.0,0,3958.0,0
1227,1227,0.04460092606457122,0.0,1.0,1.0,320.0,537.0,0.0,0,4143.0,0
1228,1228,-0.2571591466938158,-0.3,1.0,0.0,293.0,937.0,1.0,1,-1180.0,0
1229,1229,0.7024724660989111,0.7,0.0,0.0,333.0,700.0,0.0,1,3967.0,1
1230,1230,0.5954789878932699,0.6,0.0,0.0,351.0,620.0,0.0,1,4029.0,1
1231,1231,0.4798464897039899,0.5,0.0,0.0,374.0,971.0,0.0,1,3655.0,1
1232,1232,-0.6563335421799292,-0.7,1.0,0.0,363.0,776.0,0.0,0,3861.0,1
1233,1233,-0.4805968613153281,-0.5,0.0,1.0,413.0,609.0,0.0,1,3978.0,0
1234,1234,-0.4322218393324088,-0.4,0.0,1.0,294.0,644.0,0.0,1,4062.0,0
1235,1235,-0.7059770386928087,-0.7,0.0,1.0,272.0,583.0,0.0,1,4145.0,0
1236,1236,-0.05471336878173583,-0.1,0.0,1.0,325.0,718.0,0.0,1,3957.0,0
1237,1237,-0.30324893865337643,-0.3,1.0,0.0,350.0,731.0,0.0,0,3919.0,1
1238,1238,-0.15018620115337722,-0.2,0.0,1.0,251.0,946.0,0.0,1,3803.0,0
1239,1239,-0.854227247786358,-0.9,1.0,0.0,495.0,689.0,0.0,0,3816.0,1
1240,1240,-0.3526683341175211,-0.4,1.0,0.0,292.0,802.0,0.0,0,3906.0,1
1241,1241,-0.8666948283020408,-0.9,1.0,0.0,486.0,800.0,0.0,0,3714.0,1
1242,1242,-0.5899145285495381,-0.6,1.0,0.0,351.0,900.0,0.0,0,3749.0,1
1243,1243,0.3956612538746397,0.4,1.0,1.0,267.0,986.0,0.0,0,3747.0,0
1244,1244,0.21717036574619175,0.2,1.0,1.0,398.0,922.0,0.0,0,3680.0,0
1245,1245,-0.3166542697217303,-0.3,0.0,1.0,445.0,594.0,0.0,1,3961.0,0
1246,1246,-0.5783528144931762,-0.6,1.0,0.0,479.0,583.0,0.0,0,3938.0,1
1247,1247,0.026487270105983618,0.0,0.0,0.0,328.0,820.0,0.0,1,3852.0,1
1248,1248,0.05075451882080084,0.1,0.0,0.0,284.0,682.0,0.0,1,-886.0,1
1249,1249,-0.3064828242820131,-0.3,1.0,0.0,319.0,554.0,0.0,0,4127.0,1
1250,1250,-0.6171667003598416,-0.6,0.0,1.0,456.0,626.0,0.0,1,3918.0,0
1251,1251,0.7143870791382093,0.7,0.0,0.0,420.0,840.0,0.0,1,3740.0,1
1252,1252,-0.8260494552773362,-0.8,0.0,1.0,481.0,528.0,1.0,0,-1009.0,1
1253,1253,-0.44476650445095073,-0.4,0.0,1.0,311.0,865.0,0.0,1,3824.0,0
1254,1254,0.4806622884656745,0.5,1.0,1.0,469.0,848.0,0.0,0,3683.0,0
1255,1255,-0.2550298998686481,-0.3,0.0,1.0,443.0,506.0,0.0,1,4051.0,0
1256,1256,-0.34926870963177814,-0.3,0.0,1.0,496.0,555.0,0.0,1,3949.0,0
1257,1257,0.6576576571507885,0.7,1.0,1.0,479.0,555.0,0.0,0,3966.0,0
1258,1258,-0.7540559703542893,-0.8,1.0,0.0,307.0,793.0,0.0,0,3900.0,1
1259,1259,-0.27577325130047015,-0.3,0.0,1.0,305.0,606.0,0.0,1,4089.0,0
1260,1260,-0.2668204425573749,-0.3,0.0,1.0,463.0,702.0,1.0,0,-1115.0,1
1261,1261,-0.5544141330690939,-0.6,1.0,0.0,367.0,904.0,0.0,0,3729.0,1
1262,1262,-0.8753493152866959,-0.9,0.0,1.0,446.0,701.0,0.0,1,3853.0,0
1263,1263,-0.6138959133338473,-0.6,0.0,1.0,332.0,958.0,0.0,1,3710.0,0
1264,1264,0.21523414227685078,0.2,1.0,1.0,324.0,764.0,0.0,0,3912.0,0
1265,1265,-0.3929112241710344,-0.4,0.0,1.0,264.0,864.0,0.0,1,3872.0,0
1266,1266,0.13471176523702966,0.1,0.0,0.0,489.0,800.0,0.0,1,3711.0,1
1267,1267,-0.2400414717883088,-0.2,0.0,1.0,327.0,965.0,0.0,1,3708.0,0
1268,1268,0.754444749627292,0.8,1.0,1.0,400.0,893.0,0.0,0,-1123.0,0
1269,1269,0.011838585086724085,0.0,1.0,1.0,404.0,840.0,0.0,0,3756.0,0
1270,1270,-0.6567415925600919,-0.7,0.0,1.0,367.0,890.0,0.0,1,3743.0,0
1271,1271,0.6263460772868176,0.6,0.0,0.0,452.0,533.0,0.0,1,4015.0,1
1272,1272,0.1332677502174956,0.1,0.0,0.0,489.0,805.0,0.0,1,3706.0,1
1273,1273,-0.22411898580397205,-0.2,1.0,0.0,385.0,552.0,0.0,0,4063.0,1
1274,1274,0.8210363401622341,0.8,0.0,0.0,365.0,538.0,1.0,0,-733.0,0
1275,1275,0.31872126826801195,0.3,1.0,1.0,402.0,829.0,0.0,0,3769.0,0
1276,1276,-0.4857435414517422,-0.5,1.0,0.0,407.0,931.0,0.0,0,3662.0,1
1277,1277,0.7681094912913023,0.8,1.0,1.0,477.0,500.0,0.0,0,4023.0,0
1278,1278,0.7854452283383949,0.8,1.0,1.0,434.0,901.0,0.0,0,3665.0,0
1279,1279,-0.8782818830061648,-0.9,1.0,0.0,448.0,826.0,0.0,0,3726.0,1
1280,1280,0.2219866959975828,0.2,1.0,1.0,450.0,602.0,0.0,0,3948.0,0
1281,1281,0.17924866635634185,0.2,0.0,0.0,483.0,770.0,0.0,1,-1203.0,1
1282,1282,0.8632873900612533,0.9,1.0,1.0,345.0,669.0,0.0,0,3986.0,0
1283,1283,0.8509250244204346,0.9,0.0,0.0,283.0,658.0,0.0,1,4059.0,1
1284,1284,-0.13295015415607914,-0.1,1.0,0.0,494.0,896.0,0.0,0,3610.0,1
1285,1285,-0.03743369871132707,-0.0,1.0,0.0,334.0,964.0,0.0,0,3702.0,1
1286,1286,-0.7528399783330829,-0.8,1.0,0.0,348.0,969.0,0.0,0,3683.0,1
1287,1287,-0.5486643522790153,-0.5,0.0,1.0,268.0,609.0,0.0,1,4123.0,0
1288,1288,-0.19201654799789958,-0.2,0.0,1.0,438.0,576.0,0.0,1,3986.0,0
1289,1289,-0.008256516564398741,-0.0,0.0,1.0,444.0,858.0,1.0,0,-1302.0,1
1290,1290,-0.00017221104426534684,-0.0,0.0,1.0,425.0,955.0,0.0,1,3620.0,0
1291,1291,0.1982641528380743,0.2,1.0,1.0,317.0,587.0,0.0,0,4096.0,0
1292,1292,-0.2803787621645629,-0.3,0.0,1.0,492.0,634.0,0.0,1,3874.0,0
1293,1293,-0.13455063636962417,-0.1,1.0,0.0,414.0,837.0,0.0,0,3749.0,1
1294,1294,0.7327915863812321,0.7,1.0,1.0,325.0,777.0,0.0,0,3898.0,0
1295,1295,-0.431775570852489,-0.4,0.0,1.0,473.0,931.0,0.0,1,3596.0,0
1296,1296,-0.20630708375509133,-0.2,0.0,1.0,498.0,845.0,0.0,1,-1333.0,0
1297,1297,0.40286267664527353,0.4,1.0,1.0,274.0,869.0,0.0,0,3857.0,0
1298,1298,0.41811202859537355,0.4,1.0,1.0,373.0,815.0,0.0,0,3812.0,0
1299,1299,-0.16262159551033883,-0.2,1.0,0.0,256.0,506.0,0.0,0,-662.0,1
1300,1300,0.26987262711609816,0.3,0.0,0.0,327.0,622.0,0.0,1,4051.0,1
1301,1301,0.5132509224627458,0.5,1.0,1.0,435.0,691.0,0.0,0,3874.0,0
1302,1302,-0.4665946916512579,-0.5,0.0,1.0,270.0,557.0,0.0,1,4173.0,0
1303,1303,-0.09700391015218757,-0.1,1.0,0.0,430.0,585.0,0.0,0,3985.0,1
1304,1304,0.19012629709491924,0.2,0.0,0.0,274.0,679.0,0.0,1,4047.0,1
1305,1305,-0.5850647351563225,-0.6,0.0,1.0,335.0,607.0,0.0,1,4058.0,0
1306,1306,-0.3050225382144309,-0.3,1.0,0.0,317.0,769.0,0.0,0,3914.0,1
1307,1307,-0.00024845277154050827,-0.0,0.0,1.0,334.0,664.0,0.0,1,4002.0,0
1308,1308,-0.12515484303638502,-0.1,1.0,0.0,276.0,864.0,0.0,0,3860.0,1
1309,1309,0.568341618522367,0.6,0.0,0.0,298.0,997.0,0.0,1,3705.0,1
1310,1310,-0.33425493806325957,-0.3,1.0,0.0,398.0,796.0,0.0,0,3806.0,1
1311,1311,0.554748899788647,0.6,1.0,1.0,449.0,591.0,0.0,0,3960.0,0
1312,1312,-0.12416033640169033,-0.1,0.0,1.0,418.0,917.0,0.0,1,3665.0,0
1313,1313,0.3519627039160228,0.4,1.0,1.0,295.0,585.0,1.0,1,-780.0,1
1314,1314,0.865055169353563,0.9,0.0,0.0,471.0,814.0,0.0,1,3715.0,1
1315,1315,-0.2666706280314508,-0.3,1.0,0.0,271.0,963.0,0.0,0,3766.0,1
1316,1316,-0.5833753705376294,-0.6,0.0,1.0,489.0,774.0,0.0,1,3737.0,0
1317,1317,-0.6701791197340834,-0.7,0.0,1.0,265.0,843.0,0.0,1,3892.0,0
1318,1318,0.25805632535610623,0.3,0.0,0.0,464.0,556.0,0.0,1,3980.0,1
1319,1319,-0.8534860752104587,-0.9,0.0,1.0,362.0,903.0,0.0,1,3735.0,0
1320,1320,0.7135400932370705,0.7,0.0,0.0,320.0,637.0,0.0,1,4043.0,1
1321,1321,0.8187257605622486,0.8,0.0,0.0,256.0,792.0,0.0,1,3952.0,1
1322,1322,0.46681940183292114,0.5,1.0,1.0,294.0,698.0,0.0,0,4008.0,0
1323,1323,-0.3575843113064763,-0.4,1.0,0.0,312.0,907.0,0.0,0,3781.0,1
1324,1324,-0.783413532946384,-0.8,0.0,1.0,474.0,905.0,0.0,1,3621.0,0
1325,1325,-0.8937912129123277,-0.9,0.0,1.0,261.0,758.0,0.0,1,-969.0,0
1326,1326,-0.005800186009088382,-0.0,0.0,1.0,281.0,513.0,0.0,1,4206.0,0
1327,1327,-0.19488938157228974,-0.2,1.0,0.0,278.0,990.0,1.0,1,-1178.0,0
1328,1328,0.24809862814447825,0.2,0.0,0.0,443.0,522.0,0.0,1,4035.0,1
1329,1329,-0.3004118737220476,-0.3,1.0,0.0,430.0,863.0,0.0,0,3707.0,1
1330,1330,0.4333629361520558,0.4,0.0,0.0,412.0,676.0,0.0,1,3912.0,1
1331,1331,0.5638300687694627,0.6,0.0,0.0,315.0,955.0,0.0,1,3730.0,1
1332,1332,0.6221749359693768,0.6,1.0,1.0,378.0,678.0,0.0,0,3944.0,0
1333,1333,0.19112943131518378,0.2,0.0,0.0,333.0,547.0,0.0,1,4120.0,1
1334,1334,-0.8237787424715549,-0.8,1.0,0.0,396.0,706.0,0.0,0,3898.0,1
1335,1335,-0.6936611735599064,-0.7,0.0,1.0,380.0,791.0,0.0,1,3829.0,0
1336,1336,0.2940505669419323,0.3,1.0,1.0,389.0,820.0,0.0,0,3791.0,0
1337,1337,0.026851478895396408,0.0,0.0,0.0,488.0,751.0,0.0,1,3761.0,1
1338,1338,-0.6432772255821084,-0.6,0.0,1.0,464.0,929.0,0.0,1,-1323.0,0
1339,1339,-0.013906205413066752,-0.0,1.0,0.0,291.0,589.0,0.0,0,4120.0,1
1340,1340,-0.1291660912364796,-0.1,1.0,0.0,302.0,652.0,0.0,0,4046.0,1
1341,1341,0.29880554574523643,0.3,0.0,0.0,257.0,904.0,0.0,1,-1161.0,1
1342,1342,-0.053488414193733846,-0.1,0.0,1.0,455.0,581.0,0.0,1,3964.0,0
1343,1343,-0.02967820772469998,-0.0,1.0,0.0,383.0,743.0,0.0,0,3874.0,1
1344,1344,0.31472332059239416,0.3,0.0,0.0,408.0,889.0,0.0,1,3703.0,1
1345,1345,-0.5047098612945364,-0.5,0.0,1.0,257.0,584.0,0.0,1,4159.0,0
1346,1346,-0.5517049551885149,-0.6,1.0,0.0,266.0,623.0,0.0,0,4111.0,1
1347,1347,-0.46358084945133093,-0.5,0.0,1.0,395.0,918.0,0.0,1,3687.0,0
1348,1348,0.1860360918092293,0.2,1.0,1.0,425.0,966.0,0.0,0,3609.0,0
1349,1349,-0.11882963550231362,-0.1,0.0,1.0,387.0,958.0,0.0,1,3655.0,0
1350,1350,-0.8617777724160299,-0.9,0.0,1.0,314.0,657.0,0.0,1,4029.0,0
1351,1351,0.5286494675181278,0.5,1.0,1.0,436.0,630.0,0.0,0,3934.0,0
1352,1352,-0.5435119375494168,-0.5,0.0,1.0,484.0,813.0,0.0,1,3703.0,0
1353,1353,0.829794772360856,0.8,1.0,1.0,334.0,648.0,0.0,0,4018.0,0
1354,1354,-0.2446697765436603,-0.2,1.0,0.0,344.0,930.0,0.0,0,3726.0,1
1355,1355,-0.2262818599297386,-0.2,1.0,0.0,403.0,712.0,0.0,0,3885.0,1
1356,1356,0.2881357396316476,0.3,0.0,0.0,251.0,960.0,1.0,0,-1071.0,0
1357,1357,0.500924018972097,0.5,1.0,1.0,333.0,584.0,0.0,0,4083.0,0
1358,1358,0.41999850451484166,0.4,0.0,0.0,344.0,633.0,0.0,1,4023.0,1
1359,1359,-0.613417356309564,-0.6,0.0,1.0,452.0,545.0,0.0,1,4003.0,0
1360,1360,0.6724633105905348,0.7,1.0,1.0,383.0,988.0,0.0,0,3629.0,0
1361,1361,-0.5101789220580917,-0.5,1.0,0.0,432.0,786.0,0.0,0,3782.0,1
1362,1362,-0.8512309233625002,-0.9,1.0,0.0,406.0,775.0,0.0,0,3819.0,1
1363,1363,0.8083886169036713,0.8,1.0,1.0,441.0,856.0,1.0,1,-1287.0,1
1364,1364,0.4959137390308045,0.5,0.0,0.0,364.0,893.0,0.0,1,3743.0,1
1365,1365,0.16508163939861842,0.2,1.0,1.0,340.0,553.0,0.0,0,4107.0,0
1366,1366,0.09252754150100329,0.1,0.0,0.0,450.0,879.0,0.0,1,3671.0,1
1367,1367,0.49458366198093817,0.5,0.0,0.0,448.0,706.0,0.0,1,3846.0,1
1368,1368,-0.4567360981925163,-0.5,1.0,0.0,335.0,980.0,0.0,0,3685.0,1
1369,1369,0.15250154335111488,0.2,0.0,0.0,352.0,896.0,0.0,1,3752.0,1
1370,1370,0.7427098889697471,0.7,1.0,1.0,483.0,895.0,0.0,0,3622.0,0
1371,1371,-0.18110602915524965,-0.2,1.0,0.0,318.0,934.0,0.0,0,3748.0,1
1372,1372,-0.05983148542489691,-0.1,0.0,1.0,476.0,551.0,1.0,0,-1027.0,1
1373,1373,0.7913308741590533,0.8,0.0,0.0,395.0,966.0,0.0,1,-1291.0,1
1374,1374,-0.6303600748107855,-0.6,1.0,0.0,288.0,760.0,0.0,0,3952.0,1
1375,1375,0.2804933816873235,0.3,1.0,1.0,397.0,918.0,0.0,0,3685.0,0
1376,1376,0.7862879194678262,0.8,1.0,1.0,379.0,975.0,0.0,0,3646.0,0
1377,1377,-0.8318892337221131,-0.8,1.0,0.0,367.0,831.0,0.0,0,3802.0,1
1378,1378,0.35004598178687363,0.4,0.0,0.0,377.0,882.0,0.0,1,3741.0,1
1379,1379,0.2640034565120185,0.3,1.0,1.0,405.0,763.0,0.0,0,-1058.0,0
1380,1380,0.4525313652556501,0.5,1.0,1.0,432.0,976.0,0.0,0,3592.0,0
1381,1381,0.7135475654937634,0.7,0.0,0.0,404.0,597.0,0.0,1,3999.0,1
1382,1382,-0.5690024707202543,-0.6,1.0,0.0,324.0,795.0,1.0,1,-1109.0,0
1383,1383,0.8979645300616522,0.9,0.0,0.0,269.0,672.0,0.0,1,4059.0,1
1384,1384,0.7043290815645485,0.7,1.0,1.0,454.0,648.0,0.0,0,3898.0,0
1385,1385,-0.24541102179335494,-0.2,0.0,1.0,394.0,739.0,0.0,1,3867.0,0
1386,1386,0.28375106472121525,0.3,0.0,0.0,332.0,589.0,1.0,0,-851.0,0
1387,1387,-0.20752534448341242,-0.2,0.0,1.0,274.0,695.0,0.0,1,4031.0,0
1388,1388,-0.664432109872755,-0.7,1.0,0.0,403.0,518.0,0.0,0,4079.0,1
1389,1389,-0.2937834791371221,-0.3,1.0,0.0,264.0,821.0,0.0,0,3915.0,1
1390,1390,0.3764989332212044,0.4,1.0,1.0,282.0,795.0,0.0,0,3923.0,0
1391,1391,0.014557098511782218,0.0,1.0,1.0,472.0,877.0,0.0,0,3651.0,0
1392,1392,-0.30837501480434504,-0.3,1.0,0.0,457.0,900.0,0.0,0,3643.0,1
1393,1393,-0.6452134809920966,-0.6,0.0,1.0,414.0,523.0,0.0,1,-837.0,0
1394,1394,0.6949787313337502,0.7,1.0,1.0,498.0,961.0,0.0,0,3541.0,0
1395,1395,0.8259616835522007,0.8,0.0,0.0,468.0,673.0,0.0,1,3859.0,1
1396,1396,0.6240075098600192,0.6,0.0,0.0,256.0,714.0,0.0,1,4030.0,1
1397,1397,0.5029405574675866,0.5,1.0,1.0,446.0,539.0,0.0,0,4015.0,0
1398,1398,0.08886618075998387,0.1,1.0,1.0,304.0,520.0,0.0,0,4176.0,0
1399,1399,0.5469710923086609,0.5,1.0,1.0,376.0,534.0,0.0,0,4090.0,0
1400,1400,-0.4331152052074797,-0.4,0.0,1.0,417.0,930.0,0.0,1,3653.0,0
1401,1401,0.5123439792873169,0.5,1.0,1.0,334.0,687.0,0.0,0,3979.0,0
1402,1402,0.24653875661623992,0.2,1.0,1.0,343.0,823.0,0.0,0,3834.0,0
1403,1403,-0.010124058649742418,-0.0,1.0,0.0,274.0,967.0,0.0,0,3759.0,1
1404,1404,-0.23594013996056207,-0.2,0.0,1.0,388.0,670.0,0.0,1,3942.0,0
1405,1405,-0.649983330671396,-0.6,1.0,0.0,272.0,730.0,0.0,0,3998.0,1
1406,1406,0.8719054904096285,0.9,1.0,1.0,495.0,674.0,0.0,0,3831.0,0
1407,1407,0.7573775160705957,0.8,0.0,0.0,263.0,888.0,0.0,1,3849.0,1
1408,1408,0.632004191538947,0.6,0.0,0.0,329.0,611.0,0.0,1,4060.0,1
1409,1409,-0.7345832260216835,-0.7,1.0,0.0,337.0,836.0,0.0,0,3827.0,1
1410,1410,-0.023150541230574584,-0.0,1.0,0.0,383.0,967.0,0.0,0,3650.0,1
1411,1411,0.36274905131675717,0.4,0.0,0.0,411.0,930.0,0.0,1,3659.0,1
1412,1412,0.4608760987095363,0.5,1.0,1.0,449.0,714.0,0.0,0,3837.0,0
1413,1413,-0.8722055078241295,-0.9,0.0,1.0,257.0,640.0,0.0,1,4103.0,0
1414,1414,-0.27134939482425,-0.3,0.0,1.0,258.0,930.0,0.0,1,3812.0,0
1415,1415,-0.07843486766230245,-0.1,1.0,0.0,319.0,706.0,0.0,0,3975.0,1
1416,1416,0.5845015316017249,0.6,0.0,0.0,309.0,647.0,0.0,1,4044.0,1
1417,1417,-0.6695643881883117,-0.7,0.0,1.0,333.0,650.0,0.0,1,4017.0,0
1418,1418,0.34230380286627826,0.3,1.0,1.0,448.0,945.0,0.0,0,3607.0,0
1419,1419,-0.551442746057692,-0.6,1.0,0.0,420.0,737.0,0.0,0,3843.0,1
1420,1420,0.6014526108583006,0.6,0.0,0.0,392.0,654.0,0.0,1,3954.0,1
1421,1421,0.42845344228859983,0.4,0.0,0.0,420.0,683.0,0.0,1,3897.0,1
1422,1422,-0.8946495170872244,-0.9,0.0,1.0,468.0,521.0,0.0,1,4011.0,0
1423,1423,0.12451711025245638,0.1,1.0,1.0,396.0,594.0,0.0,0,4010.0,0
1424,1424,-0.7167725188300168,-0.7,1.0,0.0,415.0,590.0,0.0,0,3995.0,1
1425,1425,-0.6017482457733883,-0.6,1.0,0.0,470.0,777.0,0.0,0,3753.0,1
1426,1426,0.42677689506972316,0.4,0.0,0.0,432.0,524.0,0.0,1,4044.0,1
1427,1427,-0.6658627342178001,-0.7,1.0,0.0,252.0,919.0,0.0,0,3829.0,1
1428,1428,0.3670686074199473,0.4,0.0,0.0,317.0,808.0,0.0,1,3875.0,1
1429,1429,-0.619319785294121,-0.6,0.0,1.0,404.0,627.0,0.0,1,3969.0,0
1430,1430,-0.5001585899854817,-0.5,1.0,0.0,383.0,928.0,0.0,0,3689.0,1
1431,1431,0.42556123526734935,0.4,1.0,1.0,310.0,757.0,0.0,0,3933.0,0
1432,1432,0.2088714345704824,0.2,0.0,0.0,314.0,817.0,0.0,1,3869.0,1
1433,1433,-0.08735417937671142,-0.1,1.0,0.0,387.0,575.0,0.0,0,4038.0,1
1434,1434,-0.80952388983762,-0.8,1.0,0.0,343.0,920.0,0.0,0,-1233.0,1
1435,1435,0.8703906294822451,0.9,0.0,0.0,435.0,878.0,0.0,1,3687.0,1
1436,1436,0.862476927754373,0.9,0.0,0.0,404.0,683.0,0.0,1,3913.0,1
1437,1437,0.7179696629727822,0.7,1.0,1.0,297.0,805.0,0.0,0,3898.0,0
1438,1438,-0.11485613254726001,-0.1,0.0,1.0,367.0,705.0,0.0,1,3928.0,0
1439,1439,-0.8494750690272481,-0.8,0.0,1.0,383.0,571.0,1.0,0,-794.0,1
1440,1440,-0.7450862466583215,-0.7,0.0,1.0,377.0,524.0,0.0,1,4099.0,0
1441,1441,-0.47402856917896913,-0.5,0.0,1.0,297.0,620.0,0.0,1,4083.0,0
1442,1442,-0.5595331725173138,-0.6,0.0,1.0,367.0,721.0,0.0,1,3912.0,0
1443,1443,-0.5342123261108255,-0.5,0.0,1.0,469.0,659.0,0.0,1,3872.0,0
1444,1444,0.5558779181910712,0.6,0.0,0.0,297.0,993.0,0.0,1,3710.0,1
1445,1445,0.5238584309669742,0.5,0.0,0.0,332.0,658.0,0.0,1,4010.0,1
1446,1446,-0.19717980659229317,-0.2,0.0,1.0,336.0,677.0,1.0,0,-813.0,1
1447,1447,-0.5516718698813325,-0.6,0.0,1.0,442.0,861.0,1.0,0,-1273.0,1
1448,1448,-0.8741973359767641,-0.9,0.0,1.0,263.0,630.0,0.0,1,4107.0,0
1449,1449,0.6064561712208353,0.6,1.0,1.0,385.0,516.0,0.0,0,4099.0,0
1450,1450,-0.5857780474830583,-0.6,0.0,1.0,318.0,712.0,0.0,1,3970.0,0
1451,1451,-0.254452896761161,-0.3,0.0,1.0,370.0,854.0,0.0,1,3776.0,0
1452,1452,-0.5759274681683137,-0.6,1.0,0.0,280.0,727.0,0.0,0,3993.0,1
1453,1453,-0.47267329455866214,-0.5,1.0,0.0,479.0,805.0,0.0,0,3716.0,1
1454,1454,0.7619158239870077,0.8,0.0,0.0,274.0,632.0,0.0,1,4094.0,1
1455,1455,0.7868755657864032,0.8,0.0,0.0,321.0,972.0,0.0,1,3707.0,1
1456,1456,0.10389547401389365,0.1,1.0,1.0,275.0,607.0,0.0,0,4118.0,0
1457,1457,0.09089854918046791,0.1,0.0,0.0,332.0,693.0,0.0,1,3975.0,1
1458,1458,0.1906588473775691,0.2,0.0,0.0,341.0,969.0,0.0,1,3690.0,1
1459,1459,0.29251190397862403,0.3,1.0,1.0,309.0,512.0,0.0,0,4179.0,0
1460,1460,0.6642678605031679,0.7,0.0,0.0,337.0,522.0,0.0,1,4141.0,1
1461,1461,-0.2729147015763843,-0.3,0.0,1.0,342.0,558.0,0.0,1,4100.0,0
1462,1462,-0.3241761155446379,-0.3,0.0,1.0,463.0,588.0,0.0,1,3949.0,0
1463,1463,0.536180150780826,0.5,1.0,1.0,289.0,775.0,0.0,0,3936.0,0
1464,1464,0.3136270122904984,0.3,0.0,0.0,499.0,940.0,0.0,1,-1419.0,1
1465,1465,0.36846543234130336,0.4,1.0,1.0,314.0,808.0,0.0,0,3878.0,0
1466,1466,-0.45984980807557363,-0.5,0.0,1.0,413.0,947.0,1.0,0,-1260.0,1
1467,1467,-0.8068927192286204,-0.8,0.0,1.0,399.0,665.0,0.0,1,3936.0,0
1468,1468,0.3002139296428462,0.3,1.0,1.0,357.0,966.0,0.0,0,3677.0,0
1469,1469,0.43201831952893366,0.4,0.0,0.0,373.0,529.0,0.0,1,4098.0,1
1470,1470,-0.1358362141469286,-0.1,1.0,0.0,344.0,702.0,0.0,0,-986.0,1
