,trial,coherence,coherence_bin,green_side,correct_side,target_onset,checker_onset,decision,green_decision,decision_time,correct_decision
0,0,-0.21824326165993657,-0.2,0.0,1.0,473.0,739.0,1.0,0,538.0,1
1,1,0.16451059889740371,0.2,1.0,1.0,445.0,725.0,1.0,1,200.0,1
2,2,-0.6009846546407871,-0.6,0.0,1.0,476.0,893.0,1.0,0,161.0,1
3,3,-0.42675915276832105,-0.4,0.0,1.0,302.0,794.0,1.0,0,114.0,1
4,4,-0.34995275666087955,-0.3,1.0,0.0,319.0,825.0,0.0,0,1856.0,1
5,5,-0.7346651606776498,-0.7,1.0,0.0,375.0,992.0,0.0,0,323.0,1
6,6,0.7789339071949265,0.8,1.0,1.0,463.0,567.0,1.0,1,140.0,1
7,7,-0.7491198585822892,-0.7,1.0,0.0,253.0,589.0,0.0,0,258.0,1
8,8,0.03873261038151532,0.0,0.0,0.0,335.0,508.0,1.0,0,2157.0,0
9,9,0.07008945821792578,0.1,0.0,0.0,498.0,718.0,0.0,1,1784.0,1
10,10,-0.14780257236406735,-0.1,1.0,0.0,390.0,809.0,1.0,1,1801.0,0
11,11,0.1789885335416862,0.2,1.0,1.0,264.0,917.0,1.0,1,809.0,1
12,12,0.6985801861229614,0.7,0.0,0.0,259.0,923.0,0.0,1,408.0,1
13,13,-0.18353457278234608,-0.2,0.0,1.0,493.0,686.0,1.0,0,541.0,1
14,14,0.030694073916989417,0.0,0.0,0.0,404.0,601.0,1.0,0,1995.0,0
15,15,-0.3432423632661532,-0.3,0.0,1.0,398.0,523.0,1.0,0,459.0,1
16,16,0.5270368623679601,0.5,0.0,0.0,298.0,690.0,0.0,1,912.0,1
17,17,-0.42988677424347704,-0.4,1.0,0.0,258.0,836.0,0.0,0,1426.0,1
18,18,0.7048161911003114,0.7,0.0,0.0,346.0,751.0,0.0,1,113.0,1
19,19,-0.5873576266827087,-0.6,1.0,0.0,411.0,923.0,0.0,0,1386.0,1
20,20,0.1379641308981,0.1,0.0,0.0,472.0,613.0,0.0,1,1915.0,1
21,21,0.7612644271185672,0.8,0.0,0.0,354.0,891.0,0.0,1,135.0,1
22,22,-0.5586498250615965,-0.6,1.0,0.0,261.0,815.0,0.0,0,284.0,1
23,23,0.083683392995066,0.1,1.0,1.0,492.0,948.0,1.0,1,810.0,1
24,24,-0.5214584784820699,-0.5,0.0,1.0,404.0,776.0,1.0,0,320.0,1
25,25,0.711882547476182,0.7,1.0,1.0,363.0,580.0,1.0,1,337.0,1
26,26,-0.6207816027911417,-0.6,0.0,1.0,450.0,801.0,1.0,0,189.0,1
27,27,-0.6824246328554682,-0.7,0.0,1.0,473.0,631.0,1.0,0,466.0,1
28,28,0.09907244043319785,0.1,0.0,0.0,497.0,792.0,1.0,0,1711.0,0
29,29,0.5850174440617691,0.6,0.0,0.0,260.0,900.0,0.0,1,230.0,1
30,30,0.8897299314164141,0.9,1.0,1.0,292.0,605.0,1.0,1,223.0,1
31,31,-0.182453345756597,-0.2,0.0,1.0,413.0,788.0,1.0,0,1799.0,1
32,32,0.8554045661744346,0.9,0.0,0.0,277.0,764.0,0.0,1,239.0,1
33,33,-0.4240679003022477,-0.4,0.0,1.0,270.0,743.0,1.0,0,257.0,1
34,34,0.19269844849977813,0.2,1.0,1.0,271.0,717.0,1.0,1,552.0,1
35,35,0.15424578647877774,0.2,1.0,1.0,305.0,989.0,1.0,1,286.0,1
36,36,-0.53724450672384,-0.5,1.0,0.0,271.0,515.0,1.0,1,-26.0,0
37,37,-0.5624089441616824,-0.6,1.0,0.0,307.0,843.0,0.0,0,970.0,1
38,38,0.5707799356558604,0.6,0.0,0.0,253.0,907.0,0.0,1,610.0,1
39,39,0.8694615753541654,0.9,0.0,0.0,341.0,865.0,0.0,1,194.0,1
40,40,-0.831304710123556,-0.8,1.0,0.0,446.0,517.0,0.0,0,367.0,1
41,41,0.6099049029665556,0.6,1.0,1.0,401.0,899.0,1.0,1,310.0,1
42,42,0.39754384186629677,0.4,0.0,0.0,301.0,955.0,0.0,1,1744.0,1
43,43,0.4617436932152271,0.5,0.0,0.0,482.0,902.0,0.0,1,196.0,1
44,44,0.14669753718389378,0.1,1.0,1.0,322.0,705.0,1.0,1,553.0,1
45,45,0.8784203001472705,0.9,0.0,0.0,467.0,696.0,0.0,1,137.0,1
46,46,0.4264730962510018,0.4,1.0,1.0,388.0,557.0,1.0,1,185.0,1
47,47,0.15479336348643946,0.2,1.0,1.0,286.0,887.0,1.0,1,787.0,1
48,48,-0.004542948713022299,-0.0,0.0,1.0,277.0,948.0,0.0,1,1775.0,0
49,49,0.5836862979755725,0.6,0.0,0.0,478.0,944.0,0.0,1,368.0,1
50,50,0.8257044759062956,0.8,0.0,0.0,378.0,577.0,0.0,1,505.0,1
51,51,-0.1900932617431904,-0.2,0.0,1.0,477.0,560.0,1.0,0,1163.0,1
52,52,0.5681640466513921,0.6,1.0,1.0,303.0,880.0,1.0,1,157.0,1
53,53,-0.5938045283651461,-0.6,0.0,1.0,436.0,603.0,1.0,0,151.0,1
54,54,0.5386354997385078,0.5,1.0,1.0,272.0,969.0,1.0,1,-161.0,1
55,55,0.2456045903740608,0.2,1.0,1.0,396.0,972.0,1.0,1,592.0,1
56,56,0.04603822887796527,0.0,1.0,1.0,333.0,552.0,1.0,1,775.0,1
57,57,-0.7681931902168153,-0.8,1.0,0.0,464.0,772.0,0.0,0,694.0,1
58,58,0.47948667043246174,0.5,1.0,1.0,376.0,801.0,1.0,1,273.0,1
59,59,0.03946962914789731,0.0,1.0,1.0,469.0,608.0,1.0,1,1923.0,1
60,60,-0.5850507337259588,-0.6,1.0,0.0,398.0,879.0,0.0,0,443.0,1
61,61,0.13666718853614246,0.1,0.0,0.0,375.0,890.0,1.0,0,1735.0,0
62,62,-0.08296410217531236,-0.1,0.0,1.0,381.0,817.0,1.0,0,972.0,1
63,63,-0.8548102490092532,-0.9,1.0,0.0,483.0,914.0,0.0,0,193.0,1
64,64,0.8041034823614442,0.8,1.0,1.0,407.0,538.0,1.0,1,-45.0,1
65,65,0.3921395351264182,0.4,1.0,1.0,424.0,642.0,1.0,1,434.0,1
66,66,-0.2657045793322207,-0.3,1.0,0.0,346.0,694.0,0.0,0,1960.0,1
67,67,0.2965519068603669,0.3,1.0,1.0,487.0,727.0,1.0,1,746.0,1
68,68,-0.2927237435518659,-0.3,0.0,1.0,359.0,517.0,1.0,0,344.0,1
69,69,0.6916130319936676,0.7,1.0,1.0,445.0,849.0,1.0,1,156.0,1
70,70,-0.13772632540226837,-0.1,0.0,1.0,292.0,639.0,1.0,0,689.0,1
71,71,0.16965216474393008,0.2,1.0,1.0,409.0,880.0,1.0,1,911.0,1
72,72,-0.16359269866199067,-0.2,0.0,1.0,317.0,645.0,1.0,0,538.0,1
73,73,0.8661507104085749,0.9,0.0,0.0,378.0,936.0,0.0,1,216.0,1
74,74,-0.8318479767208802,-0.8,0.0,1.0,267.0,947.0,1.0,0,-194.0,1
75,75,-0.40536136963224734,-0.4,0.0,1.0,429.0,517.0,1.0,0,464.0,1
76,76,0.6674142686290129,0.7,1.0,1.0,416.0,920.0,1.0,1,174.0,1
77,77,-0.34777282786808106,-0.3,1.0,0.0,274.0,955.0,0.0,0,1051.0,1
78,78,-0.3074537261939434,-0.3,1.0,0.0,404.0,631.0,0.0,0,1965.0,1
79,79,0.24495393561379697,0.2,1.0,1.0,398.0,793.0,1.0,1,289.0,1
80,80,0.7567460574302801,0.8,1.0,1.0,289.0,622.0,1.0,1,279.0,1
81,81,0.736445765242188,0.7,0.0,0.0,260.0,800.0,0.0,1,380.0,1
82,82,-0.2431792478795063,-0.2,1.0,0.0,319.0,636.0,1.0,1,2045.0,0
83,83,-0.03932995826937835,-0.0,1.0,0.0,263.0,947.0,1.0,1,1230.0,0
84,84,0.24264461510060753,0.2,0.0,0.0,288.0,796.0,0.0,1,516.0,1
85,85,0.565821815535459,0.6,0.0,0.0,321.0,711.0,0.0,1,268.0,1
86,86,0.2616638722703085,0.3,0.0,0.0,299.0,658.0,0.0,1,1183.0,1
87,87,0.0913308690719502,0.1,0.0,0.0,282.0,952.0,1.0,0,1716.0,0
88,88,0.28595862042658327,0.3,1.0,1.0,333.0,661.0,1.0,1,206.0,1
89,89,-0.1137371267086621,-0.1,0.0,1.0,260.0,728.0,1.0,0,262.0,1
90,90,0.004452399524997319,0.0,0.0,0.0,420.0,697.0,1.0,0,873.0,0
91,91,0.770934767271494,0.8,1.0,1.0,390.0,578.0,1.0,1,232.0,1
92,92,0.18698119604329866,0.2,1.0,1.0,254.0,574.0,1.0,1,-178.0,1
93,93,0.36619626742967115,0.4,1.0,1.0,337.0,993.0,1.0,1,280.0,1
94,94,-0.535735971423734,-0.5,1.0,0.0,470.0,815.0,0.0,0,235.0,1
95,95,0.5371367484863271,0.5,0.0,0.0,259.0,987.0,0.0,1,384.0,1
96,96,-0.5724049736784249,-0.6,0.0,1.0,390.0,556.0,1.0,0,214.0,1
97,97,0.32608339813778164,0.3,0.0,0.0,468.0,664.0,0.0,1,448.0,1
98,98,0.5060916253232658,0.5,1.0,1.0,455.0,810.0,1.0,1,325.0,1
99,99,-0.7455647640859446,-0.7,0.0,1.0,289.0,698.0,1.0,0,273.0,1
100,100,0.7582658537265549,0.8,0.0,0.0,320.0,677.0,0.0,1,143.0,1
101,101,0.28400316952491533,0.3,0.0,0.0,413.0,831.0,0.0,1,246.0,1
102,102,-0.07676816144689658,-0.1,0.0,1.0,337.0,526.0,1.0,0,727.0,1
103,103,-0.03371919396896672,-0.0,0.0,1.0,496.0,754.0,1.0,0,-210.0,1
104,104,0.25687962857463564,0.3,1.0,1.0,345.0,616.0,1.0,1,309.0,1
105,105,0.6239932186058038,0.6,1.0,1.0,495.0,514.0,1.0,1,251.0,1
106,106,0.841445016208224,0.8,0.0,0.0,468.0,682.0,0.0,1,410.0,1
107,107,-0.5544567510044982,-0.6,1.0,0.0,475.0,876.0,0.0,0,259.0,1
108,108,0.6805231251559795,0.7,1.0,1.0,452.0,681.0,1.0,1,187.0,1
109,109,0.5099875023267734,0.5,1.0,1.0,372.0,889.0,1.0,1,199.0,1
110,110,0.6919230423816832,0.7,1.0,1.0,405.0,829.0,1.0,1,296.0,1
111,111,0.6824050251279891,0.7,0.0,0.0,305.0,554.0,0.0,1,231.0,1
112,112,-0.0036830309990952825,-0.0,1.0,0.0,476.0,871.0,1.0,1,1653.0,0
113,113,-0.357100366780576,-0.4,1.0,0.0,446.0,750.0,0.0,0,1184.0,1
114,114,0.05616000997508119,0.1,0.0,0.0,400.0,536.0,1.0,0,654.0,0
115,115,-0.44761255770462804,-0.4,1.0,0.0,308.0,954.0,0.0,0,1738.0,1
116,116,0.32051448521173886,0.3,0.0,0.0,367.0,988.0,0.0,1,1185.0,1
117,117,-0.8441729147978067,-0.8,0.0,1.0,318.0,586.0,1.0,0,106.0,1
118,118,0.2958230748423979,0.3,1.0,1.0,484.0,501.0,1.0,1,315.0,1
119,119,0.17131672837373124,0.2,1.0,1.0,357.0,647.0,1.0,1,526.0,1
120,120,-0.20741616323746725,-0.2,1.0,0.0,369.0,566.0,1.0,1,2065.0,0
121,121,-0.7966450386658669,-0.8,0.0,1.0,394.0,643.0,1.0,0,243.0,1
122,122,0.32924012696884686,0.3,0.0,0.0,461.0,856.0,0.0,1,1303.0,1
123,123,0.7787474012331667,0.8,1.0,1.0,315.0,856.0,1.0,1,179.0,1
124,124,-0.07138937505710463,-0.1,1.0,0.0,270.0,848.0,1.0,1,722.0,0
125,125,-0.4675672554145799,-0.5,1.0,0.0,349.0,720.0,0.0,0,351.0,1
126,126,0.793506276536493,0.8,0.0,0.0,411.0,643.0,0.0,1,296.0,1
127,127,0.866347171949949,0.9,1.0,1.0,280.0,955.0,1.0,1,175.0,1
128,128,0.41731011745759805,0.4,1.0,1.0,382.0,808.0,1.0,1,400.0,1
129,129,0.2174455843268105,0.2,0.0,0.0,411.0,940.0,0.0,1,549.0,1
130,130,0.7316741889766781,0.7,1.0,1.0,484.0,855.0,1.0,1,111.0,1
131,131,-0.5450602075095685,-0.5,0.0,1.0,256.0,963.0,1.0,0,171.0,1
132,132,-0.5329849568904116,-0.5,0.0,1.0,294.0,976.0,1.0,0,160.0,1
133,133,0.8602130108907343,0.9,0.0,0.0,382.0,966.0,0.0,1,132.0,1
134,134,0.7217303705984958,0.7,1.0,1.0,376.0,824.0,1.0,1,90.0,1
135,135,0.7884995097514035,0.8,1.0,1.0,300.0,869.0,1.0,1,241.0,1
136,136,-0.8981936155050757,-0.9,0.0,1.0,257.0,715.0,1.0,0,168.0,1
137,137,0.7680393317543263,0.8,1.0,1.0,395.0,772.0,1.0,1,113.0,1
138,138,-0.5843829256798265,-0.6,1.0,0.0,328.0,750.0,0.0,0,322.0,1
139,139,0.7709274883885583,0.8,1.0,1.0,374.0,531.0,1.0,1,85.0,1
140,140,0.28372941643717164,0.3,0.0,0.0,419.0,805.0,0.0,1,226.0,1
141,141,0.4058783082284604,0.4,0.0,0.0,373.0,698.0,0.0,1,749.0,1
142,142,-0.6120022893623992,-0.6,1.0,0.0,300.0,583.0,0.0,0,957.0,1
143,143,-0.07040780130130875,-0.1,0.0,1.0,262.0,662.0,1.0,0,1236.0,1
144,144,0.10503602366656495,0.1,1.0,1.0,343.0,520.0,1.0,1,207.0,1
145,145,0.8630969900011435,0.9,0.0,0.0,328.0,886.0,0.0,1,186.0,1
146,146,-0.03212691415055924,-0.0,1.0,0.0,372.0,544.0,1.0,1,474.0,0
147,147,-0.7328139008069996,-0.7,1.0,0.0,473.0,930.0,0.0,0,437.0,1
148,148,0.7470037734830558,0.7,0.0,0.0,268.0,519.0,0.0,1,183.0,1
149,149,-0.1327731260900925,-0.1,1.0,0.0,293.0,693.0,0.0,0,2014.0,1
150,150,-0.7262231841809104,-0.7,1.0,0.0,459.0,970.0,0.0,0,181.0,1
151,151,-0.11161222272233073,-0.1,0.0,1.0,340.0,598.0,1.0,0,882.0,1
152,152,0.19105190819644913,0.2,0.0,0.0,291.0,657.0,0.0,1,2052.0,1
153,153,-0.7281073379790997,-0.7,1.0,0.0,365.0,680.0,0.0,0,1315.0,1
154,154,-0.8816742391820293,-0.9,0.0,1.0,343.0,632.0,1.0,0,215.0,1
155,155,0.14451479676937706,0.1,0.0,0.0,309.0,888.0,0.0,1,1803.0,1
156,156,0.8555989399658542,0.9,0.0,0.0,274.0,881.0,0.0,1,275.0,1
157,157,-0.12745141757848477,-0.1,1.0,0.0,331.0,899.0,1.0,1,-430.0,0
158,158,-0.84816073639075,-0.8,1.0,0.0,251.0,757.0,0.0,0,262.0,1
159,159,-0.7947190393818789,-0.8,1.0,0.0,286.0,977.0,0.0,0,377.0,1
160,160,0.10118458534251185,0.1,0.0,0.0,489.0,937.0,0.0,1,1144.0,1
161,161,0.8970237979720098,0.9,1.0,1.0,341.0,859.0,1.0,1,120.0,1
162,162,-0.5343329255030296,-0.5,1.0,0.0,442.0,713.0,0.0,0,425.0,1
163,163,-0.6197305347377469,-0.6,0.0,1.0,335.0,927.0,1.0,0,928.0,1
164,164,0.4616297164844433,0.5,0.0,0.0,337.0,932.0,0.0,1,321.0,1
165,165,0.056454757151422896,0.1,0.0,0.0,492.0,745.0,1.0,0,1763.0,0
166,166,0.8568455938423302,0.9,1.0,1.0,355.0,595.0,1.0,1,130.0,1
167,167,-0.29923977334724994,-0.3,0.0,1.0,287.0,736.0,1.0,0,197.0,1
168,168,-0.39166625083611284,-0.4,1.0,0.0,292.0,866.0,0.0,0,1842.0,1
169,169,-0.5292476618154167,-0.5,0.0,1.0,390.0,758.0,1.0,0,212.0,1
170,170,-0.23175616816877598,-0.2,1.0,0.0,374.0,805.0,0.0,0,1821.0,1
171,171,-0.19890556191126563,-0.2,1.0,0.0,424.0,542.0,0.0,0,574.0,1
172,172,0.5662493689946585,0.6,0.0,0.0,297.0,669.0,0.0,1,524.0,1
173,173,-0.7567634295016783,-0.8,0.0,1.0,396.0,557.0,1.0,0,277.0,1
174,174,0.14902741000873132,0.1,0.0,0.0,253.0,869.0,0.0,1,1878.0,1
175,175,-0.7370388764054879,-0.7,1.0,0.0,408.0,846.0,0.0,0,476.0,1
176,176,0.010394271668296207,0.0,1.0,1.0,410.0,673.0,1.0,1,1097.0,1
177,177,0.7250678394899462,0.7,0.0,0.0,310.0,953.0,0.0,1,377.0,1
178,178,-0.6541448669230316,-0.7,0.0,1.0,401.0,858.0,1.0,0,171.0,1
179,179,0.32294340891225926,0.3,0.0,0.0,349.0,842.0,0.0,1,409.0,1
180,180,0.6831069359167691,0.7,0.0,0.0,455.0,861.0,1.0,0,-256.0,0
181,181,0.8452002549329612,0.8,0.0,0.0,327.0,604.0,0.0,1,99.0,1
182,182,0.5813407870946002,0.6,1.0,1.0,346.0,819.0,1.0,1,235.0,1
183,183,0.024990420698576266,0.0,0.0,0.0,326.0,733.0,1.0,0,671.0,0
184,184,-0.0980869149822301,-0.1,1.0,0.0,285.0,985.0,1.0,1,1730.0,0
185,185,-0.6571971037964107,-0.7,0.0,1.0,402.0,964.0,1.0,0,294.0,1
186,186,0.1365874056379025,0.1,1.0,1.0,260.0,542.0,1.0,1,488.0,1
187,187,0.10601285116009918,0.1,0.0,0.0,291.0,756.0,1.0,0,1953.0,0
188,188,-0.5300432950741152,-0.5,0.0,1.0,403.0,721.0,1.0,0,226.0,1
189,189,-0.5195260041032441,-0.5,0.0,1.0,421.0,736.0,1.0,0,343.0,1
190,190,-0.1482392954303149,-0.1,0.0,1.0,328.0,888.0,1.0,0,444.0,1
191,191,0.8947477760578096,0.9,0.0,0.0,496.0,558.0,0.0,1,336.0,1
192,192,0.8779792174893583,0.9,1.0,1.0,458.0,657.0,1.0,1,65.0,1
193,193,-0.25300897716156634,-0.3,1.0,0.0,380.0,937.0,0.0,0,1683.0,1
194,194,0.4613697719337756,0.5,0.0,0.0,439.0,671.0,0.0,1,1110.0,1
195,195,0.39235614341688996,0.4,1.0,1.0,357.0,602.0,1.0,1,281.0,1
196,196,-0.23318299360705264,-0.2,1.0,0.0,459.0,543.0,0.0,0,1998.0,1
197,197,-0.7654259218033086,-0.8,0.0,1.0,362.0,658.0,1.0,0,230.0,1
198,198,-0.19399294415832702,-0.2,1.0,0.0,256.0,737.0,1.0,1,197.0,0
199,199,-0.4838037098666463,-0.5,1.0,0.0,316.0,716.0,0.0,0,338.0,1
200,200,0.35003506912435467,0.4,0.0,0.0,498.0,941.0,0.0,1,781.0,1
201,201,0.35672208719489473,0.4,1.0,1.0,421.0,508.0,1.0,1,781.0,1
202,202,-0.6270392106278162,-0.6,0.0,1.0,340.0,623.0,1.0,0,347.0,1
203,203,-0.42630759833773824,-0.4,0.0,1.0,436.0,915.0,1.0,0,309.0,1
204,204,-0.4607480833011926,-0.5,0.0,1.0,319.0,848.0,1.0,0,303.0,1
205,205,-0.6704781708113534,-0.7,0.0,1.0,340.0,742.0,1.0,0,268.0,1
206,206,-0.3578809102539958,-0.4,0.0,1.0,318.0,746.0,1.0,0,576.0,1
207,207,-0.36302208701586025,-0.4,0.0,1.0,278.0,895.0,1.0,0,307.0,1
208,208,-0.4612293936351865,-0.5,1.0,0.0,455.0,867.0,0.0,0,598.0,1
209,209,0.31065972220076377,0.3,1.0,1.0,361.0,787.0,1.0,1,342.0,1
210,210,0.654837792875636,0.7,1.0,1.0,340.0,541.0,1.0,1,339.0,1
211,211,-0.16604001197610452,-0.2,0.0,1.0,290.0,901.0,1.0,0,719.0,1
212,212,-0.39492048442890704,-0.4,0.0,1.0,260.0,573.0,1.0,0,537.0,1
213,213,0.7975708913480534,0.8,1.0,1.0,323.0,855.0,1.0,1,22.0,1
214,214,0.8518735807515899,0.9,1.0,1.0,423.0,932.0,1.0,1,-365.0,1
215,215,-0.05240407902156552,-0.1,1.0,0.0,383.0,504.0,1.0,1,763.0,0
216,216,0.5738641952158209,0.6,1.0,1.0,283.0,662.0,1.0,1,-155.0,1
217,217,0.8354073888660335,0.8,0.0,0.0,394.0,593.0,0.0,1,303.0,1
218,218,-0.48182262382716795,-0.5,0.0,1.0,291.0,976.0,1.0,0,203.0,1
219,219,-0.5202231712387136,-0.5,1.0,0.0,469.0,731.0,0.0,0,960.0,1
220,220,0.27686869765004085,0.3,0.0,0.0,376.0,712.0,0.0,1,1292.0,1
221,221,0.666822188478921,0.7,1.0,1.0,267.0,864.0,1.0,1,109.0,1
222,222,0.7933281719995847,0.8,0.0,0.0,307.0,663.0,0.0,1,140.0,1
223,223,0.4537223461223162,0.5,0.0,0.0,453.0,823.0,0.0,1,314.0,1
224,224,0.17608146113083645,0.2,1.0,1.0,282.0,974.0,1.0,1,514.0,1
225,225,0.47238128491965503,0.5,1.0,1.0,380.0,619.0,1.0,1,351.0,1
226,226,-0.47932744548727774,-0.5,0.0,1.0,313.0,819.0,1.0,0,378.0,1
227,227,0.040060224705018244,0.0,0.0,0.0,388.0,663.0,0.0,1,1949.0,1
228,228,0.39176538838404784,0.4,0.0,0.0,385.0,558.0,0.0,1,397.0,1
229,229,-0.3787409942643235,-0.4,0.0,1.0,321.0,639.0,1.0,0,370.0,1
230,230,-0.16882875646890427,-0.2,1.0,0.0,398.0,858.0,0.0,0,1744.0,1
231,231,0.7114004576321044,0.7,1.0,1.0,261.0,821.0,1.0,1,178.0,1
232,232,-0.4890510468167201,-0.5,0.0,1.0,441.0,853.0,1.0,0,206.0,1
233,233,0.8704351764077255,0.9,0.0,0.0,462.0,998.0,0.0,1,510.0,1
234,234,0.13861777860767888,0.1,1.0,1.0,306.0,864.0,1.0,1,1010.0,1
235,235,0.11422353132439123,0.1,1.0,1.0,298.0,717.0,1.0,1,515.0,1
236,236,0.47200073411868015,0.5,1.0,1.0,282.0,504.0,1.0,1,214.0,1
237,237,0.6637030074695315,0.7,0.0,0.0,457.0,765.0,0.0,1,258.0,1
238,238,-0.7751216142603149,-0.8,1.0,0.0,393.0,820.0,1.0,1,-273.0,0
239,239,0.2835973782454325,0.3,0.0,0.0,334.0,817.0,0.0,1,749.0,1
240,240,-0.11427425760218246,-0.1,1.0,0.0,289.0,660.0,0.0,0,2051.0,1
241,241,-0.4407079934910581,-0.4,1.0,0.0,287.0,672.0,0.0,0,411.0,1
242,242,-0.0591294967586351,-0.1,0.0,1.0,439.0,976.0,1.0,0,475.0,1
243,243,0.3071040220490421,0.3,1.0,1.0,268.0,631.0,1.0,1,811.0,1
244,244,-0.20047928292618888,-0.2,1.0,0.0,338.0,824.0,0.0,0,1838.0,1
245,245,-0.011001023497006823,-0.0,0.0,1.0,348.0,899.0,1.0,0,1753.0,1
246,246,0.2115033514975947,0.2,1.0,1.0,267.0,796.0,1.0,1,147.0,1
247,247,0.1136923139147118,0.1,0.0,0.0,485.0,588.0,0.0,1,1927.0,1
248,248,0.28542269591380875,0.3,1.0,1.0,251.0,886.0,1.0,1,253.0,1
249,249,-0.48366116757611227,-0.5,1.0,0.0,430.0,646.0,0.0,0,1364.0,1
250,250,-0.7669444229516715,-0.8,0.0,1.0,372.0,942.0,1.0,0,296.0,1
251,251,-0.18558414894876474,-0.2,1.0,0.0,263.0,857.0,0.0,0,1880.0,1
252,252,-0.3346427775303633,-0.3,1.0,0.0,436.0,714.0,0.0,0,700.0,1
253,253,-0.6509167609249662,-0.7,1.0,0.0,435.0,678.0,0.0,0,397.0,1
254,254,0.14125654120855102,0.1,1.0,1.0,287.0,985.0,1.0,1,468.0,1
255,255,0.7561977331905038,0.8,1.0,1.0,302.0,900.0,1.0,1,158.0,1
256,256,0.8225408648241704,0.8,0.0,0.0,466.0,684.0,0.0,1,1400.0,1
257,257,-0.06828674328645445,-0.1,1.0,0.0,385.0,816.0,1.0,1,19.0,0
258,258,0.14523842988937574,0.1,0.0,0.0,274.0,777.0,0.0,1,989.0,1
259,259,-0.020645287716809957,-0.0,0.0,1.0,490.0,755.0,1.0,0,1755.0,1
260,260,-0.5840113749108412,-0.6,0.0,1.0,480.0,820.0,1.0,0,150.0,1
261,261,0.317540566733609,0.3,1.0,1.0,379.0,677.0,1.0,1,514.0,1
262,262,-0.027066058904528956,-0.0,1.0,0.0,337.0,676.0,1.0,1,197.0,0
263,263,-0.19605887937948663,-0.2,0.0,1.0,384.0,660.0,1.0,0,986.0,1
264,264,0.6660196684027245,0.7,1.0,1.0,423.0,718.0,1.0,1,139.0,1
265,265,0.8849708331058722,0.9,1.0,1.0,450.0,779.0,1.0,1,141.0,1
266,266,-0.24700508111707697,-0.2,0.0,1.0,268.0,595.0,1.0,0,487.0,1
267,267,0.7491005355518779,0.7,1.0,1.0,486.0,977.0,1.0,1,167.0,1
268,268,-0.6462312274877529,-0.6,0.0,1.0,288.0,768.0,1.0,0,314.0,1
269,269,0.7932489611686376,0.8,0.0,0.0,276.0,798.0,0.0,1,276.0,1
270,270,0.21383773473132595,0.2,0.0,0.0,458.0,881.0,0.0,1,1511.0,1
271,271,-0.6386186430829546,-0.6,1.0,0.0,458.0,875.0,0.0,0,197.0,1
272,272,0.7959221974538307,0.8,0.0,0.0,336.0,804.0,0.0,1,490.0,1
273,273,-0.6368647454871417,-0.6,1.0,0.0,432.0,759.0,0.0,0,809.0,1
274,274,0.7056775180017386,0.7,1.0,1.0,326.0,713.0,1.0,1,201.0,1
275,275,0.264530995564933,0.3,0.0,0.0,375.0,758.0,0.0,1,877.0,1
276,276,-0.36912930868198235,-0.4,0.0,1.0,338.0,616.0,1.0,0,526.0,1
277,277,0.46506871150561147,0.5,0.0,0.0,413.0,595.0,0.0,1,162.0,1
278,278,-0.2412605491124159,-0.2,1.0,0.0,309.0,657.0,0.0,0,2034.0,1
279,279,0.6216795524714461,0.6,1.0,1.0,356.0,615.0,1.0,1,219.0,1
280,280,0.4912604417009453,0.5,1.0,1.0,401.0,803.0,1.0,1,256.0,1
281,281,0.28935140947944704,0.3,1.0,1.0,355.0,938.0,1.0,1,467.0,1
282,282,-0.6590108806300232,-0.7,1.0,0.0,289.0,881.0,0.0,0,330.0,1
283,283,0.38737406655124274,0.4,1.0,1.0,389.0,758.0,1.0,1,333.0,1
284,284,0.42679025145256644,0.4,1.0,1.0,488.0,808.0,1.0,1,604.0,1
285,285,0.7146262719807045,0.7,0.0,0.0,288.0,659.0,0.0,1,293.0,1
286,286,-0.22313894163319525,-0.2,1.0,0.0,422.0,552.0,0.0,0,2026.0,1
287,287,0.7665126767455658,0.8,0.0,0.0,463.0,997.0,0.0,1,360.0,1
288,288,-0.78319623684202,-0.8,1.0,0.0,302.0,637.0,0.0,0,201.0,1
289,289,-0.48902556832273897,-0.5,1.0,0.0,427.0,890.0,0.0,0,633.0,1
290,290,-0.2139791667132649,-0.2,1.0,0.0,363.0,650.0,0.0,0,1987.0,1
291,291,0.6736827714497703,0.7,0.0,0.0,440.0,510.0,0.0,1,190.0,1
292,292,0.7592707740838013,0.8,0.0,0.0,425.0,995.0,0.0,1,250.0,1
293,293,-0.7625952155957706,-0.8,1.0,0.0,425.0,710.0,0.0,0,255.0,1
294,294,-0.24517524435714744,-0.2,1.0,0.0,444.0,987.0,0.0,0,759.0,1
295,295,0.4665086425277635,0.5,0.0,0.0,286.0,856.0,0.0,1,108.0,1
296,296,0.4069549666540381,0.4,0.0,0.0,494.0,663.0,0.0,1,493.0,1
297,297,-0.14646538371983664,-0.1,1.0,0.0,467.0,974.0,0.0,0,1559.0,1
298,298,0.44676743848064626,0.4,0.0,0.0,420.0,607.0,0.0,1,433.0,1
299,299,0.8945680357591758,0.9,0.0,0.0,259.0,698.0,0.0,1,293.0,1
300,300,0.5525960007028253,0.6,0.0,0.0,416.0,575.0,0.0,1,429.0,1
301,301,0.35361687832103705,0.4,1.0,1.0,252.0,562.0,1.0,1,106.0,1
302,302,0.8452371279234022,0.8,1.0,1.0,286.0,766.0,1.0,1,98.0,1
303,303,0.5354621985348683,0.5,1.0,1.0,425.0,849.0,1.0,1,346.0,1
304,304,-0.048615448889891555,-0.0,0.0,1.0,352.0,641.0,1.0,0,167.0,1
305,305,0.5343519219137264,0.5,1.0,1.0,470.0,564.0,1.0,1,206.0,1
306,306,0.43814315345221166,0.4,0.0,0.0,317.0,855.0,0.0,1,1078.0,1
307,307,0.5858834754454595,0.6,0.0,0.0,418.0,657.0,0.0,1,405.0,1
308,308,-0.02649528882032215,-0.0,1.0,0.0,407.0,877.0,1.0,1,1576.0,0
309,309,-0.6794047766894609,-0.7,0.0,1.0,412.0,901.0,1.0,0,137.0,1
310,310,-0.3829582561071103,-0.4,1.0,0.0,393.0,666.0,0.0,0,1941.0,1
311,311,0.6499154749424271,0.6,1.0,1.0,284.0,725.0,1.0,1,61.0,1
312,312,0.2605213913461043,0.3,0.0,0.0,315.0,734.0,0.0,1,1181.0,1
313,313,-0.4630799071417021,-0.5,0.0,1.0,314.0,944.0,1.0,0,182.0,1
314,314,-0.4388113612958097,-0.4,1.0,0.0,277.0,942.0,0.0,0,631.0,1
315,315,-0.5933463109257592,-0.6,1.0,0.0,273.0,904.0,0.0,0,493.0,1
316,316,0.09590030395414606,0.1,1.0,1.0,432.0,869.0,1.0,1,489.0,1
317,317,-0.5811038700717066,-0.6,1.0,0.0,456.0,644.0,0.0,0,490.0,1
318,318,-0.2846726273405451,-0.3,0.0,1.0,348.0,614.0,1.0,0,448.0,1
319,319,-0.7787284576771191,-0.8,0.0,1.0,335.0,560.0,1.0,0,195.0,1
320,320,0.2041634159312785,0.2,0.0,0.0,366.0,594.0,0.0,1,250.0,1
321,321,-0.4664285867037863,-0.5,1.0,0.0,314.0,933.0,0.0,0,793.0,1
322,322,0.8188841761248323,0.8,0.0,0.0,430.0,788.0,0.0,1,512.0,1
323,323,-0.001917107337161772,-0.0,1.0,0.0,293.0,552.0,1.0,1,1105.0,0
324,324,0.2503922902313994,0.3,0.0,0.0,357.0,576.0,0.0,1,647.0,1
325,325,-0.858695876504394,-0.9,1.0,0.0,293.0,902.0,0.0,0,245.0,1
326,326,-0.8770884527679413,-0.9,1.0,0.0,488.0,808.0,0.0,0,324.0,1
327,327,0.7830820153725059,0.8,0.0,0.0,323.0,968.0,0.0,1,389.0,1
328,328,0.6899122095185078,0.7,0.0,0.0,328.0,658.0,0.0,1,214.0,1
329,329,0.8737612941390732,0.9,1.0,1.0,399.0,526.0,1.0,1,395.0,1
330,330,0.4366029899462057,0.4,1.0,1.0,372.0,813.0,1.0,1,235.0,1
331,331,0.026007466259492906,0.0,1.0,1.0,436.0,502.0,1.0,1,2062.0,1
332,332,-0.7983140544878627,-0.8,1.0,0.0,312.0,828.0,0.0,0,340.0,1
333,333,0.6043993143206868,0.6,1.0,1.0,398.0,782.0,1.0,1,400.0,1
334,334,-0.5046183841466216,-0.5,0.0,1.0,336.0,923.0,1.0,0,211.0,1
335,335,0.12233610416796592,0.1,1.0,1.0,404.0,865.0,1.0,1,701.0,1
336,336,-0.21661044556215192,-0.2,0.0,1.0,476.0,935.0,1.0,0,309.0,1
337,337,-0.4798335757525494,-0.5,0.0,1.0,396.0,851.0,1.0,0,383.0,1
338,338,0.09898780750176184,0.1,1.0,1.0,282.0,828.0,1.0,1,180.0,1
339,339,0.03524151395036468,0.0,1.0,1.0,315.0,954.0,1.0,1,861.0,1
340,340,-0.7530181161146259,-0.8,0.0,1.0,397.0,808.0,1.0,0,255.0,1
341,341,0.6956504288282009,0.7,1.0,1.0,280.0,501.0,1.0,1,239.0,1
342,342,0.5667241728837545,0.6,0.0,0.0,323.0,688.0,0.0,1,219.0,1
343,343,0.1878154409171554,0.2,1.0,1.0,425.0,808.0,1.0,1,357.0,1
344,344,0.19337654661464632,0.2,0.0,0.0,497.0,929.0,0.0,1,314.0,1
345,345,0.7485039127399381,0.7,1.0,1.0,490.0,752.0,1.0,1,128.0,1
346,346,0.5442237174546803,0.5,0.0,0.0,339.0,736.0,0.0,1,1925.0,1
347,347,0.8880998922806281,0.9,1.0,1.0,365.0,945.0,1.0,1,100.0,1
348,348,0.5984257809205366,0.6,0.0,0.0,332.0,875.0,0.0,1,163.0,1
349,349,0.7740180559200437,0.8,0.0,0.0,345.0,789.0,0.0,1,1866.0,1
350,350,-0.591918872038067,-0.6,0.0,1.0,464.0,573.0,1.0,0,283.0,1
351,351,0.7636261504729268,0.8,1.0,1.0,430.0,813.0,1.0,1,87.0,1
352,352,0.8741345996768036,0.9,1.0,1.0,297.0,984.0,1.0,1,189.0,1
353,353,0.18479594053637494,0.2,1.0,1.0,272.0,756.0,1.0,1,552.0,1
354,354,0.47975926753269305,0.5,1.0,1.0,476.0,742.0,1.0,1,332.0,1
355,355,-0.7421871977574104,-0.7,1.0,0.0,352.0,576.0,0.0,0,1022.0,1
356,356,-0.3027208841021328,-0.3,0.0,1.0,397.0,559.0,1.0,0,244.0,1
357,357,-0.015511760341172742,-0.0,0.0,1.0,460.0,809.0,1.0,0,1161.0,1
358,358,0.10876308129995704,0.1,1.0,1.0,279.0,711.0,1.0,1,690.0,1
359,359,0.24450193518288554,0.2,1.0,1.0,264.0,874.0,1.0,1,232.0,1
360,360,-0.0200158092964019,-0.0,1.0,0.0,425.0,810.0,1.0,1,945.0,0
361,361,-0.03130012440924612,-0.0,1.0,0.0,335.0,931.0,1.0,1,224.0,0
362,362,-0.17631650034054402,-0.2,1.0,0.0,336.0,639.0,0.0,0,2025.0,1
363,363,0.5390548767016278,0.5,1.0,1.0,384.0,779.0,1.0,1,317.0,1
364,364,-0.3560775166953605,-0.4,1.0,0.0,422.0,771.0,0.0,0,1647.0,1
365,365,0.7000810679155015,0.7,1.0,1.0,409.0,690.0,1.0,1,231.0,1
366,366,-0.8161836155074343,-0.8,1.0,0.0,373.0,908.0,0.0,0,269.0,1
367,367,-0.28387236124187676,-0.3,0.0,1.0,327.0,739.0,1.0,0,444.0,1
368,368,-0.25048098969887733,-0.3,0.0,1.0,362.0,838.0,1.0,0,720.0,1
369,369,-0.75728902028425,-0.8,1.0,0.0,481.0,926.0,0.0,0,273.0,1
370,370,0.6530646118843976,0.7,1.0,1.0,414.0,997.0,1.0,1,139.0,1
371,371,-0.633953673941533,-0.6,1.0,0.0,271.0,537.0,0.0,0,312.0,1
372,372,0.3479978143189476,0.3,1.0,1.0,445.0,507.0,1.0,1,718.0,1
373,373,0.6536264097375891,0.7,1.0,1.0,275.0,553.0,1.0,1,82.0,1
374,374,0.08890605721259237,0.1,1.0,1.0,395.0,520.0,1.0,1,645.0,1
375,375,0.7882201957659768,0.8,1.0,1.0,433.0,557.0,1.0,1,210.0,1
376,376,-0.5742330144305474,-0.6,0.0,1.0,489.0,931.0,1.0,0,270.0,1
377,377,0.4205086089599216,0.4,1.0,1.0,386.0,843.0,1.0,1,231.0,1
378,378,-0.5083811533850984,-0.5,1.0,0.0,298.0,944.0,0.0,0,538.0,1
379,379,0.25424610043136664,0.3,0.0,0.0,490.0,658.0,0.0,1,762.0,1
380,380,-0.87825446768238,-0.9,1.0,0.0,358.0,861.0,0.0,0,181.0,1
381,381,-0.5096688281720099,-0.5,1.0,0.0,383.0,559.0,0.0,0,368.0,1
382,382,0.03484893291378233,0.0,1.0,1.0,363.0,638.0,1.0,1,1739.0,1
383,383,-0.7841878962051616,-0.8,1.0,0.0,425.0,719.0,0.0,0,506.0,1
384,384,0.7301724068795111,0.7,0.0,0.0,458.0,983.0,0.0,1,379.0,1
385,385,0.6123047577958617,0.6,1.0,1.0,317.0,936.0,1.0,1,177.0,1
386,386,-0.0007785794538786028,-0.0,0.0,1.0,396.0,948.0,1.0,0,1316.0,1
387,387,-0.561598951156415,-0.6,0.0,1.0,304.0,644.0,1.0,0,212.0,1
388,388,-0.07279732865428723,-0.1,1.0,0.0,453.0,520.0,1.0,1,2027.0,0
389,389,0.45113734786545023,0.5,1.0,1.0,293.0,859.0,1.0,1,78.0,1
390,390,-0.0031998558865358184,-0.0,1.0,0.0,372.0,508.0,1.0,1,-40.0,0
391,391,0.8800821945440224,0.9,0.0,0.0,490.0,674.0,0.0,1,216.0,1
392,392,-0.15650354644276776,-0.2,1.0,0.0,347.0,522.0,0.0,0,2131.0,1
393,393,0.7766902454984669,0.8,1.0,1.0,358.0,609.0,1.0,1,223.0,1
394,394,0.47931673767604577,0.5,1.0,1.0,444.0,737.0,1.0,1,169.0,1
395,395,0.4759660509530078,0.5,1.0,1.0,422.0,921.0,1.0,1,-413.0,1
396,396,0.5261100906309343,0.5,0.0,0.0,474.0,746.0,0.0,1,380.0,1
397,397,0.19883602668967726,0.2,0.0,0.0,343.0,929.0,0.0,1,1228.0,1
398,398,0.4993982643517013,0.5,0.0,0.0,481.0,935.0,0.0,1,384.0,1
399,399,0.38381021340432186,0.4,0.0,0.0,370.0,819.0,0.0,1,311.0,1
400,400,0.4374272111918661,0.4,0.0,0.0,264.0,915.0,0.0,1,201.0,1
401,401,-0.24294921157743465,-0.2,0.0,1.0,276.0,575.0,1.0,0,429.0,1
402,402,0.20325401228754536,0.2,0.0,0.0,482.0,838.0,0.0,1,1560.0,1
403,403,0.31692527160836514,0.3,1.0,1.0,307.0,950.0,1.0,1,233.0,1
404,404,0.2480987587857425,0.2,0.0,0.0,343.0,557.0,0.0,1,1920.0,1
405,405,0.7412467788550646,0.7,0.0,0.0,420.0,657.0,0.0,1,313.0,1
406,406,-0.4425515164491292,-0.4,0.0,1.0,299.0,908.0,1.0,0,103.0,1
407,407,-0.3284772350776771,-0.3,0.0,1.0,355.0,746.0,1.0,0,379.0,1
408,408,0.42442337771657923,0.4,1.0,1.0,308.0,947.0,1.0,1,-25.0,1
409,409,-0.5463843458390154,-0.5,1.0,0.0,396.0,646.0,0.0,0,628.0,1
410,410,-0.42520815687453944,-0.4,1.0,0.0,357.0,621.0,0.0,0,1182.0,1
411,411,0.6575607564477125,0.7,1.0,1.0,398.0,746.0,1.0,1,206.0,1
412,412,-0.07903495276986283,-0.1,1.0,0.0,392.0,607.0,1.0,1,2001.0,0
413,413,0.05725674734963859,0.1,1.0,1.0,384.0,780.0,1.0,1,206.0,1
414,414,-0.8311601505683265,-0.8,0.0,1.0,488.0,804.0,1.0,0,188.0,1
415,415,0.5530638522053489,0.6,1.0,1.0,300.0,719.0,1.0,1,31.0,1
416,416,0.38962369042517764,0.4,1.0,1.0,411.0,881.0,1.0,1,208.0,1
417,417,0.33026639356679166,0.3,0.0,0.0,482.0,621.0,0.0,1,267.0,1
418,418,0.15984278361500637,0.2,1.0,1.0,341.0,988.0,1.0,1,801.0,1
419,419,0.6751516356816013,0.7,0.0,0.0,486.0,585.0,0.0,1,269.0,1
420,420,0.29674202077411727,0.3,1.0,1.0,312.0,519.0,1.0,1,189.0,1
421,421,0.0848774497881416,0.1,1.0,1.0,462.0,765.0,1.0,1,323.0,1
422,422,0.7570162299818929,0.8,0.0,0.0,262.0,735.0,0.0,1,113.0,1
423,423,0.7116283245495792,0.7,1.0,1.0,448.0,585.0,1.0,1,207.0,1
424,424,-0.2063423508203227,-0.2,1.0,0.0,296.0,622.0,0.0,0,2082.0,1
425,425,-0.4540572206285844,-0.5,1.0,0.0,472.0,863.0,0.0,0,1375.0,1
426,426,-0.213742503489614,-0.2,0.0,1.0,494.0,843.0,1.0,0,803.0,1
427,427,0.41599711896944214,0.4,1.0,1.0,361.0,654.0,1.0,1,185.0,1
428,428,-0.7027921375229896,-0.7,1.0,0.0,308.0,582.0,0.0,0,420.0,1
429,429,0.2810075511259661,0.3,0.0,0.0,385.0,713.0,0.0,1,552.0,1
430,430,-0.190090540654541,-0.2,0.0,1.0,467.0,791.0,1.0,0,82.0,1
431,431,-0.7351226530781472,-0.7,1.0,0.0,440.0,751.0,0.0,0,309.0,1
432,432,0.8927427167705041,0.9,0.0,0.0,344.0,541.0,0.0,1,105.0,1
433,433,-0.28047713583266265,-0.3,1.0,0.0,397.0,516.0,0.0,0,2087.0,1
434,434,-0.7542147285716478,-0.8,0.0,1.0,450.0,956.0,1.0,0,194.0,1
435,435,0.7362326124249915,0.7,1.0,1.0,363.0,978.0,1.0,1,139.0,1
436,436,0.2448671873291849,0.2,0.0,0.0,406.0,905.0,0.0,1,419.0,1
437,437,-0.5015817100742046,-0.5,1.0,0.0,345.0,838.0,0.0,0,1657.0,1
438,438,0.5773326864058054,0.6,0.0,0.0,382.0,698.0,0.0,1,300.0,1
439,439,0.5425405125846755,0.5,0.0,0.0,468.0,837.0,0.0,1,255.0,1
440,440,0.06986198994122306,0.1,1.0,1.0,364.0,951.0,1.0,1,-485.0,1
441,441,0.4545944497530815,0.5,0.0,0.0,455.0,927.0,0.0,1,388.0,1
442,442,-0.2685817021329371,-0.3,1.0,0.0,366.0,946.0,0.0,0,508.0,1
443,443,-0.11826922552713082,-0.1,1.0,0.0,454.0,707.0,0.0,0,1839.0,1
444,444,0.35366080536798405,0.4,1.0,1.0,371.0,980.0,1.0,1,449.0,1
445,445,-0.15968073845261044,-0.2,1.0,0.0,265.0,561.0,1.0,1,2174.0,0
446,446,-0.26044027523279056,-0.3,1.0,0.0,325.0,755.0,0.0,0,1920.0,1
447,447,0.6175146743164616,0.6,0.0,0.0,476.0,608.0,0.0,1,246.0,1
448,448,-0.0023124610173036464,-0.0,0.0,1.0,373.0,552.0,1.0,0,2075.0,1
449,449,0.5987033180659104,0.6,1.0,1.0,344.0,804.0,1.0,1,-128.0,1
450,450,-0.5247894117378085,-0.5,0.0,1.0,275.0,934.0,1.0,0,291.0,1
451,451,-0.6847993237918482,-0.7,0.0,1.0,477.0,818.0,1.0,0,335.0,1
452,452,-0.5358346328724095,-0.5,0.0,1.0,340.0,888.0,1.0,0,242.0,1
453,453,-0.11480387939142833,-0.1,1.0,0.0,466.0,737.0,0.0,0,1797.0,1
454,454,0.017764371897295628,0.0,1.0,1.0,276.0,621.0,1.0,1,2103.0,1
455,455,0.5845785001052038,0.6,0.0,0.0,322.0,724.0,0.0,1,1014.0,1
456,456,-0.49871353536610485,-0.5,1.0,0.0,485.0,892.0,0.0,0,553.0,1
457,457,-0.25488191291075535,-0.3,0.0,1.0,438.0,983.0,1.0,0,499.0,1
458,458,-0.6026439405119651,-0.6,0.0,1.0,387.0,809.0,1.0,0,324.0,1
459,459,0.24364731745464885,0.2,1.0,1.0,421.0,878.0,1.0,1,241.0,1
460,460,0.5743577799124108,0.6,1.0,1.0,448.0,526.0,1.0,1,396.0,1
461,461,-0.3014558591294585,-0.3,0.0,1.0,273.0,829.0,1.0,0,398.0,1
462,462,-0.4587334232591134,-0.5,0.0,1.0,331.0,963.0,1.0,0,86.0,1
463,463,0.14860834926576472,0.1,0.0,0.0,491.0,590.0,0.0,1,1919.0,1
464,464,0.07157543198085936,0.1,0.0,0.0,264.0,738.0,1.0,0,1328.0,0
465,465,-0.7697589461706975,-0.8,1.0,0.0,360.0,804.0,0.0,0,396.0,1
466,466,0.365986448271688,0.4,1.0,1.0,324.0,832.0,1.0,1,214.0,1
467,467,0.4260470867615084,0.4,1.0,1.0,416.0,572.0,1.0,1,212.0,1
468,468,0.34896538403037314,0.3,0.0,0.0,468.0,991.0,0.0,1,211.0,1
469,469,0.30211083926166504,0.3,1.0,1.0,284.0,810.0,1.0,1,276.0,1
470,470,0.21325137290753482,0.2,1.0,1.0,408.0,609.0,1.0,1,723.0,1
471,471,-0.34574226441180134,-0.3,0.0,1.0,416.0,922.0,1.0,0,172.0,1
472,472,0.6583167708885836,0.7,1.0,1.0,499.0,622.0,1.0,1,199.0,1
473,473,-0.6745971434609485,-0.7,0.0,1.0,489.0,903.0,1.0,0,158.0,1
474,474,-0.8051900695125741,-0.8,1.0,0.0,401.0,530.0,0.0,0,289.0,1
475,475,-0.19593663526242255,-0.2,1.0,0.0,442.0,571.0,0.0,0,1987.0,1
476,476,-0.09604087166299446,-0.1,0.0,1.0,422.0,739.0,1.0,0,459.0,1
477,477,0.1594520331558532,0.2,1.0,1.0,359.0,862.0,1.0,1,489.0,1
478,478,0.041881932857269266,0.0,0.0,0.0,385.0,811.0,1.0,0,1804.0,0
479,479,0.8988414603973122,0.9,1.0,1.0,487.0,587.0,1.0,1,126.0,1
480,480,-0.7096807924746567,-0.7,1.0,0.0,303.0,905.0,0.0,0,362.0,1
481,481,0.543641292955582,0.5,1.0,1.0,476.0,592.0,1.0,1,272.0,1
482,482,0.6535502570221018,0.7,0.0,0.0,462.0,630.0,0.0,1,558.0,1
483,483,0.23869080650057561,0.2,0.0,0.0,463.0,969.0,0.0,1,728.0,1
484,484,0.3456280596926643,0.3,0.0,0.0,343.0,942.0,0.0,1,1155.0,1
485,485,-0.8756644812624468,-0.9,0.0,1.0,357.0,932.0,1.0,0,-189.0,1
486,486,-0.03264273981040677,-0.0,1.0,0.0,432.0,661.0,1.0,1,957.0,0
487,487,-0.7671330099776158,-0.8,1.0,0.0,475.0,930.0,0.0,0,425.0,1
488,488,0.21562941473835873,0.2,1.0,1.0,395.0,756.0,1.0,1,799.0,1
489,489,-0.23943275256788865,-0.2,1.0,0.0,250.0,523.0,0.0,0,2127.0,1
490,490,-0.8255735950097793,-0.8,0.0,1.0,472.0,893.0,1.0,0,15.0,1
491,491,-0.6997420694295216,-0.7,0.0,1.0,414.0,650.0,1.0,0,296.0,1
492,492,-0.10017604079880349,-0.1,1.0,0.0,266.0,728.0,0.0,0,2006.0,1
493,493,0.8155266308207022,0.8,1.0,1.0,426.0,824.0,1.0,1,250.0,1
494,494,-0.8072787156067148,-0.8,1.0,0.0,481.0,871.0,1.0,1,58.0,0
495,495,-0.10518483935764822,-0.1,1.0,0.0,492.0,639.0,1.0,1,1869.0,0
496,496,-0.05339934759609166,-0.1,1.0,0.0,353.0,744.0,1.0,1,1543.0,0
497,497,0.04368081749109276,0.0,0.0,0.0,430.0,900.0,0.0,1,440.0,1
498,498,0.3355322953022607,0.3,0.0,0.0,278.0,591.0,0.0,1,461.0,1
499,499,-0.5991741425234289,-0.6,0.0,1.0,386.0,965.0,1.0,0,99.0,1
500,500,0.12971042415532807,0.1,1.0,1.0,421.0,960.0,1.0,1,129.0,1
501,501,0.6865116855054799,0.7,0.0,0.0,265.0,722.0,0.0,1,93.0,1
502,502,-0.24771720957253363,-0.2,1.0,0.0,332.0,833.0,0.0,0,1835.0,1
503,503,0.06358936302832208,0.1,0.0,0.0,469.0,965.0,0.0,1,366.0,1
504,504,-0.14758794589709345,-0.1,0.0,1.0,450.0,541.0,1.0,0,959.0,1
505,505,-0.3587023211760122,-0.4,1.0,0.0,265.0,975.0,0.0,0,1760.0,1
506,506,-0.8289480211309873,-0.8,1.0,0.0,376.0,671.0,0.0,0,293.0,1
507,507,-0.8947212166900026,-0.9,1.0,0.0,461.0,911.0,0.0,0,1628.0,1
508,508,0.05949380629811574,0.1,1.0,1.0,321.0,720.0,1.0,1,69.0,1
509,509,0.4572366250831005,0.5,0.0,0.0,321.0,667.0,0.0,1,402.0,1
510,510,0.17128650605566798,0.2,0.0,0.0,393.0,760.0,0.0,1,547.0,1
511,511,0.1823298873041589,0.2,1.0,1.0,385.0,962.0,1.0,1,13.0,1
512,512,0.2774716396111442,0.3,0.0,0.0,394.0,531.0,0.0,1,475.0,1
513,513,-0.6547386508235127,-0.7,1.0,0.0,278.0,815.0,0.0,0,627.0,1
514,514,-0.7356371147994987,-0.7,0.0,1.0,363.0,943.0,1.0,0,-66.0,1
515,515,0.7175904827850074,0.7,0.0,0.0,417.0,839.0,0.0,1,244.0,1
516,516,0.0666156263868577,0.1,1.0,1.0,335.0,818.0,1.0,1,447.0,1
517,517,-0.1673431925377713,-0.2,0.0,1.0,351.0,507.0,1.0,0,122.0,1
518,518,-0.7755642761658995,-0.8,0.0,1.0,454.0,894.0,1.0,0,182.0,1
519,519,-0.7242123027641802,-0.7,1.0,0.0,411.0,905.0,0.0,0,284.0,1
520,520,0.46462896277153576,0.5,0.0,0.0,305.0,951.0,0.0,1,374.0,1
521,521,0.28229894050317517,0.3,1.0,1.0,427.0,542.0,1.0,1,531.0,1
522,522,-0.8970967333756215,-0.9,0.0,1.0,435.0,533.0,1.0,0,242.0,1
523,523,0.37664245564224397,0.4,1.0,1.0,411.0,646.0,1.0,1,473.0,1
524,524,0.08419290873378782,0.1,0.0,0.0,257.0,758.0,0.0,1,1985.0,1
525,525,-0.41615540772352566,-0.4,1.0,0.0,276.0,532.0,0.0,0,682.0,1
526,526,-0.721624430064844,-0.7,1.0,0.0,348.0,762.0,0.0,0,470.0,1
527,527,0.3621505296858897,0.4,0.0,0.0,365.0,738.0,0.0,1,1417.0,1
528,528,-0.6069910373602101,-0.6,1.0,0.0,258.0,585.0,0.0,0,297.0,1
529,529,0.10483757025741502,0.1,0.0,0.0,322.0,862.0,1.0,0,1816.0,0
530,530,-0.45105130935272314,-0.5,0.0,1.0,308.0,701.0,1.0,0,261.0,1
531,531,0.31971881326456286,0.3,0.0,0.0,456.0,727.0,0.0,1,467.0,1
532,532,0.5971350641203296,0.6,1.0,1.0,295.0,713.0,1.0,1,192.0,1
533,533,0.7981320714169483,0.8,0.0,0.0,253.0,783.0,0.0,1,174.0,1
534,534,-0.6439044165631043,-0.6,0.0,1.0,324.0,656.0,1.0,0,240.0,1
535,535,0.2535476392673882,0.3,0.0,0.0,447.0,539.0,1.0,0,64.0,0
536,536,0.7901421838603527,0.8,0.0,0.0,460.0,789.0,0.0,1,901.0,1
537,537,-0.6362960812194268,-0.6,1.0,0.0,355.0,964.0,0.0,0,401.0,1
538,538,-0.42631090472210553,-0.4,1.0,0.0,289.0,698.0,0.0,0,723.0,1
539,539,-0.29036433036257725,-0.3,0.0,1.0,388.0,542.0,1.0,0,720.0,1
540,540,-0.17328952043735257,-0.2,1.0,0.0,357.0,608.0,1.0,1,2035.0,0
541,541,0.6949147507048611,0.7,0.0,0.0,451.0,613.0,0.0,1,306.0,1
542,542,-0.04631497805729379,-0.0,0.0,1.0,328.0,925.0,1.0,0,877.0,1
543,543,0.7420937097247197,0.7,0.0,0.0,455.0,502.0,0.0,1,1263.0,1
544,544,0.8569563483915411,0.9,0.0,0.0,395.0,748.0,0.0,1,397.0,1
545,545,0.7074246675060515,0.7,1.0,1.0,366.0,835.0,1.0,1,109.0,1
546,546,-0.4022982652405276,-0.4,0.0,1.0,396.0,856.0,1.0,0,248.0,1
547,547,0.18953432357663547,0.2,1.0,1.0,461.0,900.0,1.0,1,309.0,1
548,548,-0.44914416442553257,-0.4,0.0,1.0,436.0,984.0,1.0,0,50.0,1
549,549,0.29550756018765545,0.3,0.0,0.0,274.0,973.0,0.0,1,463.0,1
550,550,-0.07432684936187994,-0.1,0.0,1.0,266.0,772.0,1.0,0,1962.0,1
551,551,-0.7489957214466184,-0.7,0.0,1.0,287.0,985.0,1.0,0,208.0,1
552,552,0.275323831028517,0.3,0.0,0.0,302.0,910.0,0.0,1,458.0,1
553,553,0.2721873270068619,0.3,1.0,1.0,387.0,634.0,1.0,1,709.0,1
554,554,-0.5788893574724675,-0.6,1.0,0.0,296.0,750.0,1.0,1,-96.0,0
555,555,0.693025225293116,0.7,0.0,0.0,497.0,652.0,0.0,1,341.0,1
556,556,-0.7478511228640574,-0.7,0.0,1.0,483.0,639.0,1.0,0,98.0,1
557,557,-0.5509761288318393,-0.6,1.0,0.0,490.0,782.0,0.0,0,528.0,1
558,558,-0.6277200446515094,-0.6,1.0,0.0,329.0,706.0,0.0,0,395.0,1
559,559,-0.15919938922475196,-0.2,0.0,1.0,285.0,585.0,1.0,0,1580.0,1
560,560,0.08245715905590545,0.1,0.0,0.0,359.0,561.0,0.0,1,2080.0,1
561,561,0.32964259505870375,0.3,0.0,0.0,397.0,951.0,0.0,1,452.0,1
562,562,-0.007318756562549766,-0.0,1.0,0.0,304.0,782.0,1.0,1,1914.0,0
563,563,-0.054197098617328465,-0.1,0.0,1.0,343.0,930.0,1.0,0,1307.0,1
564,564,0.4059665817090051,0.4,0.0,0.0,337.0,740.0,0.0,1,1923.0,1
565,565,0.09921177850025076,0.1,0.0,0.0,349.0,788.0,0.0,1,1863.0,1
566,566,-0.8716882252671755,-0.9,1.0,0.0,329.0,647.0,0.0,0,254.0,1
567,567,-0.33398897124956617,-0.3,0.0,1.0,456.0,777.0,1.0,0,437.0,1
568,568,0.6305549149019553,0.6,1.0,1.0,408.0,642.0,1.0,1,160.0,1
569,569,-0.4584132766418474,-0.5,0.0,1.0,320.0,520.0,1.0,0,730.0,1
570,570,-0.515028885801412,-0.5,1.0,0.0,277.0,713.0,0.0,0,1040.0,1
571,571,-0.6315607702078653,-0.6,0.0,1.0,300.0,689.0,1.0,0,201.0,1
572,572,-0.7627506597234566,-0.8,0.0,1.0,283.0,617.0,1.0,0,310.0,1
573,573,0.07479979232766454,0.1,0.0,0.0,267.0,933.0,0.0,1,1800.0,1
574,574,-0.8894627108790927,-0.9,1.0,0.0,381.0,867.0,1.0,1,-408.0,0
575,575,0.7420305067178646,0.7,0.0,0.0,441.0,993.0,0.0,1,366.0,1
576,576,0.42760537237221097,0.4,1.0,1.0,305.0,619.0,1.0,1,296.0,1
577,577,-0.4952268221425106,-0.5,1.0,0.0,496.0,561.0,0.0,0,823.0,1
578,578,0.014131876103927077,0.0,0.0,0.0,362.0,524.0,1.0,0,954.0,0
579,579,0.8111227389075507,0.8,1.0,1.0,427.0,698.0,1.0,1,215.0,1
580,580,0.6941850428147077,0.7,1.0,1.0,359.0,668.0,1.0,1,233.0,1
581,581,-0.7639489643886059,-0.8,1.0,0.0,388.0,745.0,0.0,0,307.0,1
582,582,-0.8480238121572835,-0.8,1.0,0.0,286.0,819.0,1.0,1,-145.0,0
583,583,0.6925936849568733,0.7,1.0,1.0,421.0,958.0,1.0,1,251.0,1
584,584,-0.6802876804111825,-0.7,0.0,1.0,340.0,708.0,1.0,0,162.0,1
585,585,-0.8538949119459245,-0.9,1.0,0.0,329.0,590.0,0.0,0,311.0,1
586,586,0.37257680983189456,0.4,1.0,1.0,433.0,717.0,1.0,1,50.0,1
587,587,0.44655984110383173,0.4,0.0,0.0,469.0,622.0,0.0,1,849.0,1
588,588,0.032056976703602524,0.0,1.0,1.0,368.0,554.0,1.0,1,2078.0,1
589,589,-0.3436222908389759,-0.3,1.0,0.0,267.0,615.0,0.0,0,668.0,1
590,590,0.40493111947036764,0.4,1.0,1.0,302.0,698.0,1.0,1,240.0,1
591,591,-0.8920260972410415,-0.9,0.0,1.0,418.0,632.0,1.0,0,350.0,1
592,592,0.36022864079825967,0.4,1.0,1.0,488.0,591.0,1.0,1,81.0,1
593,593,-0.8453181972282409,-0.8,0.0,1.0,394.0,805.0,1.0,0,281.0,1
594,594,-0.5671353849496947,-0.6,0.0,1.0,490.0,622.0,1.0,0,848.0,1
595,595,0.5371239806061873,0.5,1.0,1.0,383.0,641.0,1.0,1,256.0,1
596,596,-0.20817983065628332,-0.2,0.0,1.0,310.0,882.0,1.0,0,368.0,1
597,597,0.7094756258710927,0.7,0.0,0.0,260.0,505.0,0.0,1,555.0,1
598,598,0.12387592282627968,0.1,0.0,0.0,458.0,666.0,0.0,1,1876.0,1
599,599,-0.1197630906305377,-0.1,1.0,0.0,401.0,547.0,1.0,1,2052.0,0
600,600,0.22243927429880428,0.2,0.0,0.0,474.0,677.0,0.0,1,549.0,1
601,601,0.5828084021585141,0.6,1.0,1.0,444.0,990.0,1.0,1,-84.0,1
602,602,0.29456665137988536,0.3,1.0,1.0,323.0,621.0,1.0,1,616.0,1
603,603,0.07388580527305422,0.1,0.0,0.0,282.0,969.0,1.0,0,1749.0,0
604,604,0.18449931853230683,0.2,1.0,1.0,420.0,734.0,1.0,1,326.0,1
605,605,-0.17882632874356508,-0.2,0.0,1.0,435.0,955.0,1.0,0,810.0,1
606,606,-0.2588038508987789,-0.3,1.0,0.0,486.0,715.0,0.0,0,1649.0,1
607,607,-0.42351551425501716,-0.4,1.0,0.0,286.0,966.0,0.0,0,748.0,1
608,608,-0.4048024656742614,-0.4,1.0,0.0,477.0,966.0,1.0,1,-323.0,0
609,609,-0.7405699303647474,-0.7,1.0,0.0,467.0,796.0,0.0,0,337.0,1
610,610,-0.438162802734845,-0.4,1.0,0.0,442.0,787.0,0.0,0,741.0,1
611,611,-0.08332859896738587,-0.1,1.0,0.0,325.0,752.0,1.0,1,943.0,0
612,612,-0.8839778020099088,-0.9,1.0,0.0,435.0,960.0,0.0,0,1375.0,1
613,613,0.47753359794608385,0.5,1.0,1.0,440.0,512.0,1.0,1,208.0,1
614,614,-0.33189913044903285,-0.3,1.0,0.0,367.0,586.0,0.0,0,1667.0,1
615,615,-0.7822432209813388,-0.8,1.0,0.0,432.0,650.0,1.0,1,-122.0,0
616,616,-0.271436784690801,-0.3,1.0,0.0,308.0,840.0,1.0,1,22.0,0
617,617,0.16986846810341516,0.2,0.0,0.0,420.0,943.0,0.0,1,1637.0,1
618,618,-0.547311601804193,-0.5,0.0,1.0,348.0,787.0,1.0,0,355.0,1
619,619,0.43705606851721746,0.4,1.0,1.0,391.0,544.0,1.0,1,205.0,1
620,620,0.178796983147835,0.2,1.0,1.0,255.0,940.0,1.0,1,355.0,1
621,621,0.7143347197126017,0.7,1.0,1.0,445.0,969.0,1.0,1,236.0,1
622,622,-0.6063043028236164,-0.6,0.0,1.0,490.0,634.0,1.0,0,216.0,1
623,623,0.1884463948628513,0.2,0.0,0.0,398.0,607.0,0.0,1,1995.0,1
624,624,0.21735876908656404,0.2,0.0,0.0,404.0,954.0,0.0,1,1642.0,1
625,625,-0.05990859896298262,-0.1,0.0,1.0,378.0,730.0,1.0,0,1092.0,1
626,626,-0.02881006041311318,-0.0,0.0,1.0,312.0,933.0,1.0,0,1385.0,1
627,627,-0.5810801527325209,-0.6,0.0,1.0,289.0,796.0,1.0,0,105.0,1
628,628,-0.5012078316167341,-0.5,0.0,1.0,328.0,957.0,1.0,0,535.0,1
629,629,0.7868407667050209,0.8,0.0,0.0,308.0,765.0,0.0,1,457.0,1
630,630,0.04546232871368494,0.0,1.0,1.0,267.0,826.0,1.0,1,1697.0,1
631,631,0.808398835975468,0.8,1.0,1.0,297.0,635.0,1.0,1,188.0,1
632,632,0.6698167462991717,0.7,0.0,0.0,300.0,717.0,0.0,1,943.0,1
633,633,-0.11489053122779103,-0.1,1.0,0.0,320.0,729.0,0.0,0,1371.0,1
634,634,-0.06339046195230702,-0.1,1.0,0.0,287.0,536.0,1.0,1,1067.0,0
635,635,0.07754903325194085,0.1,1.0,1.0,298.0,765.0,1.0,1,537.0,1
636,636,0.08894534615014194,0.1,0.0,0.0,443.0,986.0,1.0,0,1571.0,0
637,637,-0.7525716015580468,-0.8,1.0,0.0,304.0,852.0,0.0,0,654.0,1
638,638,-0.6797204544078794,-0.7,0.0,1.0,274.0,665.0,1.0,0,171.0,1
639,639,0.07232798695877396,0.1,0.0,0.0,477.0,659.0,1.0,0,524.0,0
640,640,0.3428851108604486,0.3,0.0,0.0,431.0,962.0,0.0,1,287.0,1
641,641,-0.26268158137202335,-0.3,0.0,1.0,435.0,909.0,1.0,0,416.0,1
642,642,-0.6764929349180595,-0.7,0.0,1.0,332.0,742.0,1.0,0,276.0,1
643,643,-0.24123637653029195,-0.2,0.0,1.0,433.0,562.0,1.0,0,655.0,1
644,644,0.4323994611653891,0.4,1.0,1.0,346.0,829.0,1.0,1,105.0,1
645,645,0.7740268974451295,0.8,1.0,1.0,489.0,743.0,1.0,1,98.0,1
646,646,0.2115007850456837,0.2,0.0,0.0,364.0,629.0,0.0,1,1417.0,1
647,647,-0.3827027929013783,-0.4,0.0,1.0,257.0,954.0,1.0,0,259.0,1
648,648,0.2958077172816077,0.3,1.0,1.0,444.0,571.0,1.0,1,415.0,1
649,649,0.8025411927659859,0.8,0.0,0.0,277.0,602.0,0.0,1,271.0,1
650,650,0.24366391784445496,0.2,0.0,0.0,489.0,648.0,0.0,1,583.0,1
651,651,0.13513784688182862,0.1,0.0,0.0,459.0,554.0,1.0,0,1987.0,0
652,652,0.064712136555933,0.1,0.0,0.0,404.0,962.0,1.0,0,604.0,0
653,653,-0.608960616722358,-0.6,1.0,0.0,258.0,914.0,0.0,0,528.0,1
654,654,0.15958098791517072,0.2,0.0,0.0,301.0,963.0,0.0,1,1736.0,1
655,655,0.11759184405901302,0.1,0.0,0.0,483.0,506.0,0.0,1,2011.0,1
656,656,-0.6084528517126965,-0.6,0.0,1.0,327.0,788.0,1.0,0,125.0,1
657,657,-0.6429849350539889,-0.6,1.0,0.0,475.0,884.0,0.0,0,611.0,1
658,658,-0.09227596773338786,-0.1,0.0,1.0,365.0,790.0,1.0,0,1455.0,1
659,659,0.8863520757735935,0.9,1.0,1.0,284.0,877.0,1.0,1,139.0,1
660,660,0.6513784698871999,0.7,0.0,0.0,331.0,974.0,0.0,1,445.0,1
661,661,-0.6835612285463526,-0.7,1.0,0.0,402.0,926.0,0.0,0,192.0,1
662,662,-0.13132586693497783,-0.1,0.0,1.0,374.0,503.0,1.0,0,203.0,1
663,663,-0.24189311287125792,-0.2,1.0,0.0,365.0,784.0,0.0,0,1851.0,1
664,664,-0.724878988984321,-0.7,1.0,0.0,329.0,693.0,0.0,0,648.0,1
665,665,-0.7648827490244064,-0.8,1.0,0.0,275.0,940.0,0.0,0,265.0,1
666,666,-0.4084728382794798,-0.4,1.0,0.0,450.0,946.0,0.0,0,494.0,1
667,667,-0.4099409529567273,-0.4,1.0,0.0,475.0,606.0,0.0,0,1039.0,1
668,668,-0.07926355063619495,-0.1,0.0,1.0,421.0,933.0,1.0,0,886.0,1
669,669,-0.746323452281968,-0.7,1.0,0.0,415.0,749.0,0.0,0,366.0,1
670,670,-0.5163190684618655,-0.5,0.0,1.0,367.0,523.0,1.0,0,170.0,1
671,671,-0.10503740556943952,-0.1,0.0,1.0,291.0,707.0,1.0,0,222.0,1
672,672,0.09404040207398745,0.1,1.0,1.0,281.0,928.0,1.0,1,71.0,1
673,673,-0.34059946817229503,-0.3,0.0,1.0,358.0,917.0,1.0,0,-335.0,1
674,674,-0.032080563866784595,-0.0,0.0,1.0,420.0,863.0,1.0,0,417.0,1
675,675,-0.4040790281976907,-0.4,1.0,0.0,379.0,853.0,0.0,0,928.0,1
676,676,0.11110351887295089,0.1,0.0,0.0,466.0,632.0,0.0,1,912.0,1
677,677,0.3697616043078745,0.4,0.0,0.0,328.0,798.0,0.0,1,354.0,1
678,678,0.5010070224811428,0.5,0.0,0.0,350.0,934.0,0.0,1,656.0,1
679,679,-0.7653280722373978,-0.8,1.0,0.0,318.0,836.0,0.0,0,326.0,1
680,680,0.8671385487807929,0.9,1.0,1.0,419.0,500.0,1.0,1,271.0,1
681,681,-0.8004008720312538,-0.8,1.0,0.0,391.0,909.0,0.0,0,420.0,1
682,682,-0.24930741954301494,-0.2,0.0,1.0,261.0,903.0,1.0,0,1066.0,1
683,683,0.19402249076315814,0.2,1.0,1.0,391.0,892.0,1.0,1,157.0,1
684,684,0.5198105562318825,0.5,0.0,0.0,467.0,685.0,0.0,1,348.0,1
685,685,0.7210339525354129,0.7,1.0,1.0,295.0,612.0,1.0,1,193.0,1
686,686,-0.8124080286653974,-0.8,0.0,1.0,337.0,955.0,1.0,0,-432.0,1
687,687,-0.3756128811258588,-0.4,1.0,0.0,320.0,896.0,0.0,0,174.0,1
688,688,0.49668736116260603,0.5,1.0,1.0,282.0,865.0,1.0,1,203.0,1
689,689,0.14816879632330326,0.1,0.0,0.0,491.0,601.0,0.0,1,1908.0,1
690,690,-0.19967261803255865,-0.2,1.0,0.0,442.0,697.0,1.0,1,1861.0,0
691,691,-0.7599952866941957,-0.8,0.0,1.0,254.0,528.0,1.0,0,338.0,1
692,692,0.13187334236953496,0.1,1.0,1.0,465.0,612.0,1.0,1,263.0,1
693,693,-0.5399882521437291,-0.5,1.0,0.0,412.0,650.0,1.0,1,-142.0,0
694,694,-0.2843505440382712,-0.3,0.0,1.0,478.0,834.0,1.0,0,788.0,1
695,695,-0.20035910900532106,-0.2,1.0,0.0,485.0,886.0,0.0,0,1629.0,1
696,696,0.8933147240039222,0.9,0.0,0.0,383.0,958.0,0.0,1,309.0,1
697,697,0.19493651440616622,0.2,0.0,0.0,269.0,956.0,1.0,0,-285.0,0
698,698,-0.6992014950533469,-0.7,1.0,0.0,362.0,536.0,0.0,0,582.0,1
699,699,-0.6203107265644565,-0.6,0.0,1.0,399.0,537.0,1.0,0,154.0,1
700,700,0.8991828134916072,0.9,0.0,0.0,376.0,951.0,0.0,1,103.0,1
701,701,-0.6826185089191528,-0.7,1.0,0.0,454.0,608.0,0.0,0,138.0,1
702,702,0.6765287894160464,0.7,1.0,1.0,427.0,796.0,1.0,1,177.0,1
703,703,-0.156871445097009,-0.2,1.0,0.0,457.0,567.0,0.0,0,1976.0,1
704,704,0.4497462232583226,0.4,0.0,0.0,442.0,810.0,0.0,1,218.0,1
705,705,-0.41718262331637274,-0.4,1.0,0.0,320.0,740.0,1.0,1,-240.0,0
706,706,-0.45725625403425624,-0.5,1.0,0.0,411.0,904.0,0.0,0,675.0,1
707,707,-0.43146647600581406,-0.4,1.0,0.0,266.0,846.0,0.0,0,338.0,1
708,708,0.16777630967902912,0.2,1.0,1.0,316.0,766.0,1.0,1,218.0,1
709,709,-0.540407882770127,-0.5,0.0,1.0,438.0,539.0,1.0,0,243.0,1
710,710,0.1774015081175161,0.2,1.0,1.0,313.0,576.0,1.0,1,771.0,1
711,711,0.0814074018078983,0.1,1.0,1.0,447.0,670.0,1.0,1,753.0,1
712,712,0.3104151664417317,0.3,1.0,1.0,471.0,787.0,1.0,1,312.0,1
713,713,-0.1897885025004724,-0.2,0.0,1.0,393.0,716.0,1.0,0,561.0,1
714,714,0.8827581644475128,0.9,1.0,1.0,452.0,853.0,1.0,1,135.0,1
715,715,-0.051039441898695026,-0.1,0.0,1.0,402.0,680.0,1.0,0,318.0,1
716,716,0.09777937259506986,0.1,0.0,0.0,469.0,946.0,1.0,0,265.0,0
717,717,0.17618242872114076,0.2,1.0,1.0,375.0,539.0,1.0,1,786.0,1
718,718,0.7393503054720979,0.7,1.0,1.0,414.0,515.0,1.0,1,221.0,1
719,719,0.4009533371290822,0.4,0.0,0.0,444.0,687.0,0.0,1,1359.0,1
720,720,0.5155608977772238,0.5,0.0,0.0,305.0,872.0,1.0,0,13.0,0
721,721,-0.2501596279182482,-0.3,1.0,0.0,448.0,804.0,0.0,0,1238.0,1
722,722,0.6944122340374076,0.7,0.0,0.0,446.0,601.0,0.0,1,523.0,1
723,723,0.006119424046565958,0.0,0.0,0.0,477.0,533.0,0.0,1,1010.0,1
724,724,0.1934355977974488,0.2,1.0,1.0,286.0,515.0,1.0,1,839.0,1
725,725,0.8113490708921886,0.8,1.0,1.0,498.0,716.0,1.0,1,476.0,1
726,726,0.3404498179791978,0.3,0.0,0.0,470.0,939.0,0.0,1,351.0,1
727,727,-0.7828967622086642,-0.8,1.0,0.0,380.0,517.0,0.0,0,333.0,1
728,728,-0.03223580285087768,-0.0,1.0,0.0,478.0,916.0,1.0,1,586.0,0
729,729,0.7505120824556945,0.8,0.0,0.0,434.0,920.0,0.0,1,1646.0,1
730,730,0.19095414717501746,0.2,1.0,1.0,387.0,620.0,1.0,1,393.0,1
731,731,-0.7951797437354859,-0.8,1.0,0.0,292.0,770.0,0.0,0,368.0,1
732,732,-0.0263762038284453,-0.0,1.0,0.0,387.0,897.0,1.0,1,1226.0,0
733,733,0.7576268739111792,0.8,0.0,0.0,289.0,506.0,0.0,1,285.0,1
734,734,-0.6799573358402058,-0.7,1.0,0.0,420.0,505.0,0.0,0,505.0,1
735,735,-0.16799390175684925,-0.2,0.0,1.0,491.0,960.0,1.0,0,309.0,1
736,736,0.4446426240735285,0.4,0.0,0.0,264.0,986.0,0.0,1,180.0,1
737,737,0.6688302605595268,0.7,1.0,1.0,356.0,866.0,1.0,1,118.0,1
738,738,-0.22284624215717874,-0.2,1.0,0.0,447.0,678.0,0.0,0,1875.0,1
739,739,0.5524661635635278,0.6,0.0,0.0,487.0,669.0,0.0,1,534.0,1
740,740,-0.5001299219105177,-0.5,0.0,1.0,341.0,690.0,1.0,0,349.0,1
741,741,-0.45312747561567757,-0.5,1.0,0.0,412.0,548.0,0.0,0,330.0,1
742,742,-0.06635359072172275,-0.1,1.0,0.0,395.0,698.0,1.0,1,1197.0,0
743,743,0.18462386636312267,0.2,1.0,1.0,302.0,981.0,1.0,1,-133.0,1
744,744,0.7111615944658237,0.7,1.0,1.0,404.0,974.0,1.0,1,142.0,1
745,745,0.7417576804808405,0.7,0.0,0.0,453.0,677.0,0.0,1,130.0,1
746,746,-0.21173952678802188,-0.2,0.0,1.0,409.0,845.0,1.0,0,1116.0,1
747,747,-0.21515849602212822,-0.2,1.0,0.0,356.0,792.0,0.0,0,1852.0,1
748,748,-0.32894429284295335,-0.3,1.0,0.0,480.0,662.0,1.0,1,-332.0,0
749,749,-0.13733285095614833,-0.1,0.0,1.0,335.0,644.0,1.0,0,641.0,1
750,750,0.745733189066457,0.7,1.0,1.0,437.0,762.0,1.0,1,81.0,1
751,751,0.7012403464156635,0.7,0.0,0.0,470.0,622.0,0.0,1,198.0,1
752,752,-0.5533552000827768,-0.6,1.0,0.0,442.0,659.0,0.0,0,249.0,1
753,753,-0.4361108454301051,-0.4,0.0,1.0,309.0,551.0,1.0,0,240.0,1
754,754,0.07956813780519079,0.1,1.0,1.0,317.0,985.0,1.0,1,1288.0,1
755,755,0.10056288509323374,0.1,0.0,0.0,325.0,570.0,0.0,1,2105.0,1
756,756,0.09375436023690042,0.1,0.0,0.0,488.0,699.0,1.0,0,1813.0,0
757,757,-0.126210268323375,-0.1,1.0,0.0,266.0,910.0,1.0,1,104.0,0
758,758,0.4772220481605266,0.5,1.0,1.0,416.0,672.0,1.0,1,132.0,1
759,759,-0.5367351559781847,-0.5,1.0,0.0,476.0,753.0,0.0,0,421.0,1
760,760,-0.23560358115845592,-0.2,0.0,1.0,334.0,899.0,1.0,0,137.0,1
761,761,0.2608999115462759,0.3,1.0,1.0,496.0,945.0,1.0,1,179.0,1
762,762,0.1998483523699145,0.2,1.0,1.0,450.0,807.0,1.0,1,723.0,1
763,763,0.1926768469861938,0.2,0.0,0.0,444.0,863.0,0.0,1,1693.0,1
764,764,-0.0772888308415729,-0.1,0.0,1.0,423.0,810.0,1.0,0,497.0,1
765,765,0.7395508980748099,0.7,0.0,0.0,471.0,912.0,0.0,1,297.0,1
766,766,0.3949011452192558,0.4,0.0,0.0,392.0,872.0,0.0,1,476.0,1
767,767,-0.30961910488492594,-0.3,0.0,1.0,310.0,914.0,1.0,0,676.0,1
768,768,-0.11556198988254485,-0.1,0.0,1.0,276.0,904.0,1.0,0,350.0,1
769,769,-0.6303536617011793,-0.6,0.0,1.0,476.0,689.0,1.0,0,195.0,1
770,770,0.3223552808157514,0.3,1.0,1.0,396.0,574.0,1.0,1,50.0,1
771,771,0.8857370289456089,0.9,1.0,1.0,388.0,691.0,1.0,1,311.0,1
772,772,-0.031943002609147175,-0.0,0.0,1.0,452.0,504.0,1.0,0,1214.0,1
773,773,-0.4913295944453054,-0.5,1.0,0.0,483.0,617.0,0.0,0,690.0,1
774,774,-0.5634494777744414,-0.6,0.0,1.0,252.0,923.0,1.0,0,115.0,1
775,775,0.029940966326621465,0.0,1.0,1.0,384.0,623.0,1.0,1,253.0,1
776,776,-0.03278622462061265,-0.0,1.0,0.0,496.0,543.0,1.0,1,1961.0,0
777,777,0.6903077544321828,0.7,0.0,0.0,342.0,574.0,0.0,1,164.0,1
778,778,-0.11241134575481104,-0.1,0.0,1.0,422.0,669.0,1.0,0,399.0,1
779,779,0.16931821836899863,0.2,1.0,1.0,260.0,800.0,1.0,1,450.0,1
780,780,0.6279860046691433,0.6,1.0,1.0,322.0,794.0,1.0,1,114.0,1
781,781,-0.3641080110730831,-0.4,1.0,0.0,448.0,942.0,0.0,0,1450.0,1
782,782,-0.3795870438057256,-0.4,0.0,1.0,355.0,543.0,1.0,0,372.0,1
783,783,0.47655644513855877,0.5,0.0,0.0,491.0,953.0,1.0,0,-344.0,0
784,784,0.21276707077475765,0.2,1.0,1.0,265.0,784.0,1.0,1,-409.0,1
785,785,0.4060132381422651,0.4,1.0,1.0,280.0,918.0,1.0,1,172.0,1
786,786,-0.528606296298241,-0.5,0.0,1.0,427.0,714.0,1.0,0,209.0,1
787,787,-0.6466007042858083,-0.6,0.0,1.0,305.0,850.0,1.0,0,135.0,1
788,788,-0.4290051546172847,-0.4,1.0,0.0,417.0,954.0,0.0,0,1169.0,1
789,789,-0.3955308032292878,-0.4,1.0,0.0,491.0,544.0,0.0,0,1455.0,1
790,790,-0.539658605705087,-0.5,1.0,0.0,366.0,659.0,0.0,0,475.0,1
791,791,0.8738834788510986,0.9,1.0,1.0,297.0,851.0,1.0,1,52.0,1
792,792,-0.7660003872544492,-0.8,1.0,0.0,343.0,548.0,0.0,0,569.0,1
793,793,0.36908942550035306,0.4,1.0,1.0,302.0,877.0,1.0,1,111.0,1
794,794,0.6611540121787923,0.7,1.0,1.0,250.0,692.0,1.0,1,198.0,1
795,795,0.8045486507458305,0.8,0.0,0.0,342.0,797.0,0.0,1,171.0,1
796,796,-0.8236242770598128,-0.8,1.0,0.0,466.0,605.0,0.0,0,1229.0,1
797,797,0.27425766924237316,0.3,1.0,1.0,300.0,885.0,1.0,1,45.0,1
798,798,-0.5516407374697121,-0.6,0.0,1.0,256.0,740.0,1.0,0,214.0,1
799,799,0.6317474830568525,0.6,1.0,1.0,366.0,689.0,1.0,1,115.0,1
800,800,-0.1373429962930739,-0.1,1.0,0.0,395.0,616.0,1.0,1,-131.0,0
801,801,0.1872058422947721,0.2,0.0,0.0,428.0,843.0,0.0,1,639.0,1
802,802,-0.7293981510768532,-0.7,0.0,1.0,331.0,576.0,1.0,0,133.0,1
803,803,0.8478981436478646,0.8,0.0,0.0,270.0,980.0,0.0,1,650.0,1
804,804,-0.7245459771743519,-0.7,1.0,0.0,441.0,719.0,0.0,0,310.0,1
805,805,0.8150721211186066,0.8,0.0,0.0,409.0,905.0,0.0,1,706.0,1
806,806,0.7185462712426464,0.7,1.0,1.0,454.0,573.0,1.0,1,173.0,1
807,807,0.26518725938586585,0.3,0.0,0.0,365.0,850.0,0.0,1,1785.0,1
808,808,0.006887060085218999,0.0,0.0,0.0,415.0,821.0,1.0,0,264.0,0
809,809,-0.5266719722701936,-0.5,0.0,1.0,428.0,710.0,1.0,0,322.0,1
810,810,0.05429083353303976,0.1,0.0,0.0,475.0,555.0,1.0,0,1970.0,0
811,811,0.3943612722787121,0.4,1.0,1.0,284.0,638.0,1.0,1,228.0,1
812,812,0.009455698796224321,0.0,0.0,0.0,293.0,849.0,1.0,0,1858.0,0
813,813,-0.44091849282248946,-0.4,1.0,0.0,461.0,682.0,0.0,0,1217.0,1
814,814,-0.08455851689032234,-0.1,1.0,0.0,252.0,699.0,1.0,1,2049.0,0
815,815,0.13863706752002536,0.1,1.0,1.0,471.0,734.0,1.0,1,425.0,1
816,816,-0.8639453180609797,-0.9,0.0,1.0,269.0,735.0,1.0,0,246.0,1
817,817,-0.6117367900348165,-0.6,1.0,0.0,448.0,597.0,0.0,0,995.0,1
818,818,-0.08695075621848414,-0.1,1.0,0.0,322.0,981.0,1.0,1,1697.0,0
819,819,-0.19231699057790064,-0.2,0.0,1.0,267.0,640.0,1.0,0,763.0,1
820,820,-0.22353817637954698,-0.2,0.0,1.0,253.0,916.0,1.0,0,-199.0,1
821,821,-0.39072054410549917,-0.4,1.0,0.0,322.0,861.0,0.0,0,477.0,1
822,822,-0.7082587978652657,-0.7,1.0,0.0,275.0,995.0,0.0,0,480.0,1
823,823,-0.42439870502261445,-0.4,0.0,1.0,413.0,673.0,1.0,0,924.0,1
824,824,-0.6505731338802715,-0.7,0.0,1.0,477.0,904.0,1.0,0,119.0,1
825,825,-0.7270090785556498,-0.7,0.0,1.0,314.0,977.0,1.0,0,259.0,1
826,826,-0.2643154269547493,-0.3,1.0,0.0,492.0,818.0,0.0,0,1690.0,1
827,827,0.8648817118669868,0.9,0.0,0.0,460.0,691.0,0.0,1,159.0,1
828,828,0.4202804283830358,0.4,1.0,1.0,495.0,981.0,1.0,1,164.0,1
829,829,-0.33710825874477224,-0.3,1.0,0.0,410.0,573.0,0.0,0,2017.0,1
830,830,-0.014977714107980322,-0.0,1.0,0.0,455.0,910.0,1.0,1,1015.0,0
831,831,0.4366449551173551,0.4,1.0,1.0,426.0,926.0,1.0,1,118.0,1
832,832,0.14758502304622267,0.1,1.0,1.0,400.0,948.0,1.0,1,142.0,1
833,833,0.048144012687999505,0.0,0.0,0.0,297.0,909.0,0.0,1,1794.0,1
834,834,-0.30459545379245767,-0.3,0.0,1.0,291.0,539.0,1.0,0,1630.0,1
835,835,0.516232075804317,0.5,0.0,0.0,435.0,826.0,0.0,1,219.0,1
836,836,0.6757420657352474,0.7,1.0,1.0,269.0,777.0,1.0,1,164.0,1
837,837,-0.7290485318112888,-0.7,0.0,1.0,297.0,643.0,1.0,0,160.0,1
838,838,0.4221322525668759,0.4,0.0,0.0,358.0,569.0,0.0,1,483.0,1
839,839,-0.49289966510673716,-0.5,0.0,1.0,493.0,902.0,1.0,0,315.0,1
840,840,0.09035606505445781,0.1,0.0,0.0,272.0,546.0,0.0,1,2182.0,1
841,841,-0.8068740834242084,-0.8,1.0,0.0,411.0,892.0,0.0,0,687.0,1
842,842,0.633246505590049,0.6,0.0,0.0,425.0,699.0,0.0,1,436.0,1
843,843,-0.44549844764042285,-0.4,0.0,1.0,473.0,851.0,1.0,0,356.0,1
844,844,-0.33598644639176,-0.3,1.0,0.0,486.0,623.0,0.0,0,541.0,1
845,845,0.03171978145240173,0.0,0.0,0.0,299.0,894.0,1.0,0,317.0,0
846,846,0.27145471933309306,0.3,0.0,0.0,472.0,504.0,0.0,1,724.0,1
847,847,-0.016558930032920194,-0.0,1.0,0.0,361.0,851.0,0.0,0,1788.0,1
848,848,0.22432912620726742,0.2,0.0,0.0,477.0,543.0,0.0,1,1630.0,1
849,849,-0.5969023518637745,-0.6,0.0,1.0,369.0,771.0,1.0,0,540.0,1
850,850,-0.22333840358561718,-0.2,0.0,1.0,469.0,944.0,1.0,0,337.0,1
851,851,0.10545977154491759,0.1,1.0,1.0,481.0,525.0,1.0,1,1384.0,1
852,852,0.7522388118240316,0.8,1.0,1.0,370.0,993.0,1.0,1,97.0,1
853,853,-0.3456727629385219,-0.3,1.0,0.0,328.0,971.0,0.0,0,851.0,1
854,854,0.6438959222196045,0.6,1.0,1.0,443.0,843.0,1.0,1,164.0,1
855,855,0.4120034662829023,0.4,1.0,1.0,265.0,873.0,1.0,1,-98.0,1
856,856,0.23670858584208843,0.2,0.0,0.0,383.0,772.0,0.0,1,875.0,1
857,857,-0.6674348786568113,-0.7,1.0,0.0,367.0,700.0,0.0,0,613.0,1
858,858,-0.5902973651640702,-0.6,1.0,0.0,434.0,664.0,0.0,0,172.0,1
859,859,0.0021373971346445586,0.0,0.0,0.0,258.0,559.0,1.0,0,463.0,0
860,860,-0.057296488866725115,-0.1,1.0,0.0,354.0,615.0,1.0,1,2031.0,0
861,861,0.6954698067643651,0.7,1.0,1.0,436.0,835.0,1.0,1,129.0,1
862,862,0.18088414129345065,0.2,0.0,0.0,334.0,906.0,0.0,1,1760.0,1
863,863,-0.40427446081123436,-0.4,1.0,0.0,358.0,507.0,0.0,0,1225.0,1
864,864,0.5855214440363269,0.6,0.0,0.0,460.0,785.0,0.0,1,1585.0,1
865,865,0.45452560483840954,0.5,1.0,1.0,427.0,691.0,1.0,1,192.0,1
866,866,0.537793606919604,0.5,0.0,0.0,258.0,893.0,0.0,1,449.0,1
867,867,0.7737576972797496,0.8,1.0,1.0,446.0,859.0,1.0,1,55.0,1
868,868,0.35990239984643024,0.4,0.0,0.0,492.0,605.0,0.0,1,1063.0,1
869,869,-0.8844381940153822,-0.9,1.0,0.0,395.0,854.0,0.0,0,211.0,1
870,870,0.3961590937360896,0.4,0.0,0.0,323.0,551.0,0.0,1,456.0,1
871,871,0.7622619129392306,0.8,0.0,0.0,475.0,860.0,0.0,1,215.0,1
872,872,0.8143766984936901,0.8,1.0,1.0,280.0,709.0,1.0,1,211.0,1
873,873,-0.8450622971532998,-0.8,0.0,1.0,458.0,855.0,1.0,0,87.0,1
874,874,0.3509753542645443,0.4,1.0,1.0,411.0,840.0,1.0,1,189.0,1
875,875,-0.5517867894852228,-0.6,1.0,0.0,270.0,710.0,0.0,0,260.0,1
876,876,-0.0662656951434647,-0.1,0.0,1.0,250.0,820.0,1.0,0,1930.0,1
877,877,0.7730319927039698,0.8,0.0,0.0,436.0,552.0,0.0,1,612.0,1
878,878,0.6005484144794339,0.6,1.0,1.0,437.0,500.0,1.0,1,193.0,1
879,879,0.2502707486932364,0.3,1.0,1.0,401.0,634.0,1.0,1,1015.0,1
880,880,-0.8096194457843856,-0.8,1.0,0.0,480.0,922.0,1.0,1,-432.0,0
881,881,-0.28636290940151576,-0.3,1.0,0.0,353.0,897.0,0.0,0,1620.0,1
882,882,0.8446547035700877,0.8,0.0,0.0,295.0,901.0,0.0,1,174.0,1
883,883,0.37435364509883795,0.4,1.0,1.0,435.0,703.0,1.0,1,302.0,1
884,884,-0.5664301058237587,-0.6,1.0,0.0,381.0,624.0,0.0,0,895.0,1
885,885,0.08200693669243031,0.1,0.0,0.0,375.0,941.0,1.0,0,404.0,0
886,886,0.6114947391618187,0.6,1.0,1.0,315.0,812.0,1.0,1,93.0,1
887,887,-0.39022829177426066,-0.4,1.0,0.0,472.0,645.0,0.0,0,1883.0,1
888,888,0.20197236987026967,0.2,0.0,0.0,389.0,508.0,0.0,1,1913.0,1
889,889,-0.8737103740578935,-0.9,0.0,1.0,460.0,599.0,1.0,0,451.0,1
890,890,0.17338780612823068,0.2,0.0,0.0,450.0,521.0,0.0,1,359.0,1
891,891,0.03879440781078747,0.0,0.0,0.0,360.0,852.0,1.0,0,1788.0,0
892,892,0.7437438901021717,0.7,1.0,1.0,421.0,764.0,1.0,1,115.0,1
893,893,0.46133259031966556,0.5,1.0,1.0,323.0,502.0,1.0,1,125.0,1
894,894,-0.06861082032854693,-0.1,0.0,1.0,299.0,808.0,1.0,0,273.0,1
895,895,0.3177059394435625,0.3,0.0,0.0,277.0,609.0,0.0,1,2114.0,1
896,896,-0.31529676067715107,-0.3,0.0,1.0,268.0,555.0,1.0,0,357.0,1
897,897,-0.19046591616457853,-0.2,1.0,0.0,254.0,840.0,1.0,1,-34.0,0
898,898,-0.7043085659199355,-0.7,0.0,1.0,425.0,856.0,1.0,0,269.0,1
899,899,0.8449392902112492,0.8,1.0,1.0,371.0,930.0,1.0,1,59.0,1
900,900,0.2481965712029216,0.2,1.0,1.0,349.0,712.0,1.0,1,439.0,1
901,901,-0.7646939502709778,-0.8,1.0,0.0,325.0,580.0,0.0,0,255.0,1
902,902,-0.05226779038026408,-0.1,1.0,0.0,412.0,978.0,1.0,1,-150.0,0
903,903,0.12293276733232472,0.1,1.0,1.0,287.0,943.0,1.0,1,670.0,1
904,904,-0.30651524011945497,-0.3,0.0,1.0,351.0,897.0,1.0,0,362.0,1
905,905,0.656617937652293,0.7,0.0,0.0,274.0,715.0,0.0,1,191.0,1
906,906,-0.22372046131272727,-0.2,0.0,1.0,343.0,998.0,1.0,0,349.0,1
907,907,-0.30892277373366694,-0.3,1.0,0.0,288.0,860.0,0.0,0,732.0,1
908,908,-0.026949051107576616,-0.0,0.0,1.0,424.0,961.0,1.0,0,925.0,1
909,909,0.004059956848655899,0.0,1.0,1.0,359.0,793.0,1.0,1,988.0,1
910,910,0.7476727849281747,0.7,0.0,0.0,288.0,992.0,0.0,1,110.0,1
911,911,-0.187934805908207,-0.2,0.0,1.0,326.0,547.0,1.0,0,707.0,1
912,912,0.14079650271987376,0.1,0.0,0.0,395.0,550.0,0.0,1,1425.0,1
913,913,0.6604311403693875,0.7,1.0,1.0,448.0,862.0,1.0,1,130.0,1
914,914,-0.3460074598031837,-0.3,0.0,1.0,473.0,751.0,1.0,0,346.0,1
915,915,0.18423654805967027,0.2,0.0,0.0,358.0,531.0,0.0,1,861.0,1
916,916,-0.4902673511178884,-0.5,0.0,1.0,376.0,811.0,1.0,0,443.0,1
917,917,-0.5948042274952272,-0.6,0.0,1.0,489.0,887.0,1.0,0,314.0,1
918,918,0.7113687071437821,0.7,0.0,0.0,371.0,880.0,0.0,1,1549.0,1
919,919,-0.5680324811680038,-0.6,0.0,1.0,427.0,789.0,1.0,0,334.0,1
920,920,0.79736491283796,0.8,0.0,0.0,470.0,776.0,0.0,1,284.0,1
921,921,0.046233246704882824,0.0,1.0,1.0,406.0,822.0,1.0,1,1772.0,1
922,922,0.051158537525602066,0.1,0.0,0.0,436.0,783.0,0.0,1,1781.0,1
923,923,-0.013500201365870046,-0.0,1.0,0.0,363.0,930.0,1.0,1,637.0,0
924,924,0.5954460553981474,0.6,1.0,1.0,343.0,855.0,1.0,1,292.0,1
925,925,-0.4756467007141117,-0.5,1.0,0.0,256.0,784.0,0.0,0,530.0,1
926,926,0.7502323286539837,0.8,1.0,1.0,269.0,535.0,1.0,1,236.0,1
927,927,0.11712254509855125,0.1,0.0,0.0,331.0,893.0,0.0,1,476.0,1
928,928,-0.5243530119561168,-0.5,1.0,0.0,441.0,937.0,0.0,0,712.0,1
929,929,0.048190705604799544,0.0,0.0,0.0,469.0,588.0,1.0,0,1943.0,0
930,930,0.543132512899036,0.5,0.0,0.0,405.0,932.0,0.0,1,353.0,1
931,931,0.770386866997803,0.8,1.0,1.0,256.0,733.0,1.0,1,121.0,1
932,932,-0.15240367833389923,-0.2,0.0,1.0,394.0,706.0,1.0,0,-110.0,1
933,933,0.05129645399111982,0.1,0.0,0.0,282.0,645.0,1.0,0,2073.0,0
934,934,-0.47563195948181247,-0.5,1.0,0.0,489.0,517.0,0.0,0,1494.0,1
935,935,0.2435073670021789,0.2,1.0,1.0,291.0,522.0,1.0,1,437.0,1
936,936,-0.39612367692290085,-0.4,0.0,1.0,325.0,672.0,1.0,0,413.0,1
937,937,-0.8648367610406682,-0.9,0.0,1.0,404.0,810.0,1.0,0,176.0,1
938,938,0.5745192155714082,0.6,0.0,0.0,293.0,936.0,0.0,1,291.0,1
939,939,0.7087915169825004,0.7,1.0,1.0,491.0,940.0,1.0,1,129.0,1
940,940,-0.5768281655307061,-0.6,0.0,1.0,281.0,829.0,1.0,0,180.0,1
941,941,-0.6938446754183392,-0.7,1.0,0.0,285.0,951.0,0.0,0,374.0,1
942,942,-0.4240533715121933,-0.4,0.0,1.0,269.0,942.0,1.0,0,399.0,1
943,943,-0.6610514254907052,-0.7,0.0,1.0,331.0,713.0,1.0,0,136.0,1
944,944,0.31076641705272146,0.3,0.0,0.0,337.0,673.0,0.0,1,380.0,1
945,945,-0.18844680355018717,-0.2,1.0,0.0,363.0,503.0,0.0,0,2134.0,1
946,946,0.553328165582006,0.6,0.0,0.0,279.0,543.0,0.0,1,88.0,1
947,947,0.4847057244989387,0.5,0.0,0.0,277.0,900.0,0.0,1,223.0,1
948,948,-0.38649144740906816,-0.4,1.0,0.0,281.0,500.0,0.0,0,1749.0,1
949,949,0.45105498499800756,0.5,1.0,1.0,478.0,764.0,1.0,1,348.0,1
950,950,-0.6539717465207172,-0.7,1.0,0.0,355.0,594.0,0.0,0,291.0,1
951,951,-0.6910746421571808,-0.7,1.0,0.0,497.0,830.0,0.0,0,593.0,1
952,952,0.012929113192860275,0.0,0.0,0.0,420.0,896.0,1.0,0,1684.0,0
953,953,0.0868094058375769,0.1,0.0,0.0,343.0,784.0,0.0,1,1553.0,1
954,954,-0.3815780069092739,-0.4,1.0,0.0,340.0,725.0,0.0,0,1655.0,1
955,955,0.8274679726092872,0.8,0.0,0.0,340.0,921.0,0.0,1,339.0,1
956,956,-0.1595174859259425,-0.2,0.0,1.0,358.0,596.0,1.0,0,466.0,1
957,957,-0.18878585575811557,-0.2,0.0,1.0,430.0,639.0,1.0,0,1181.0,1
958,958,-0.2961235488673387,-0.3,0.0,1.0,381.0,550.0,1.0,0,249.0,1
959,959,-0.8082785385458292,-0.8,1.0,0.0,431.0,531.0,0.0,0,288.0,1
960,960,0.6232868645938104,0.6,0.0,0.0,386.0,617.0,0.0,1,257.0,1
961,961,0.02455447501352348,0.0,0.0,0.0,331.0,565.0,1.0,0,2104.0,0
962,962,0.04048469823666612,0.0,0.0,0.0,370.0,837.0,0.0,1,1793.0,1
963,963,-0.6820433125728134,-0.7,0.0,1.0,431.0,625.0,1.0,0,194.0,1
964,964,-0.7888521477189502,-0.8,0.0,1.0,385.0,872.0,1.0,0,423.0,1
965,965,0.7450035672906855,0.7,0.0,0.0,318.0,809.0,0.0,1,303.0,1
966,966,0.19307233084343756,0.2,1.0,1.0,277.0,775.0,1.0,1,348.0,1
967,967,0.3840696181180391,0.4,0.0,0.0,472.0,969.0,0.0,1,429.0,1
968,968,-0.221010319896913,-0.2,0.0,1.0,402.0,856.0,1.0,0,332.0,1
969,969,0.41452415556533484,0.4,1.0,1.0,275.0,988.0,1.0,1,167.0,1
970,970,0.1920464694424867,0.2,0.0,0.0,269.0,506.0,0.0,1,675.0,1
971,971,-0.21871672048689994,-0.2,0.0,1.0,359.0,673.0,1.0,0,608.0,1
972,972,0.21872022102388933,0.2,1.0,1.0,289.0,761.0,1.0,1,270.0,1
973,973,-0.7590912608327521,-0.8,0.0,1.0,320.0,628.0,1.0,0,202.0,1
974,974,0.344738471057385,0.3,0.0,0.0,481.0,796.0,0.0,1,563.0,1
975,975,0.7746094078413494,0.8,1.0,1.0,345.0,818.0,1.0,1,167.0,1
976,976,-0.338055535697797,-0.3,1.0,0.0,272.0,601.0,0.0,0,1607.0,1
977,977,-0.4532768057903701,-0.5,1.0,0.0,250.0,966.0,0.0,0,874.0,1
978,978,-0.24187443254382557,-0.2,0.0,1.0,475.0,991.0,1.0,0,334.0,1
979,979,0.38833583825484463,0.4,1.0,1.0,264.0,959.0,1.0,1,267.0,1
980,980,0.3408634370042102,0.3,1.0,1.0,395.0,543.0,1.0,1,382.0,1
981,981,0.8136587070107707,0.8,1.0,1.0,411.0,950.0,1.0,1,129.0,1
982,982,0.433280379778051,0.4,0.0,0.0,433.0,943.0,0.0,1,304.0,1
983,983,0.2815274776103608,0.3,0.0,0.0,337.0,734.0,0.0,1,1489.0,1
984,984,-0.19832150014890781,-0.2,1.0,0.0,306.0,801.0,0.0,0,1453.0,1
985,985,0.4507808560835397,0.5,1.0,1.0,436.0,856.0,1.0,1,208.0,1
986,986,-0.5699977570025454,-0.6,1.0,0.0,373.0,739.0,0.0,0,708.0,1
987,987,0.3918785669723369,0.4,1.0,1.0,284.0,992.0,1.0,1,154.0,1
988,988,0.5492637417564149,0.5,1.0,1.0,496.0,966.0,1.0,1,168.0,1
989,989,0.8717755039855041,0.9,1.0,1.0,291.0,862.0,1.0,1,107.0,1
990,990,0.06688382058614295,0.1,0.0,0.0,330.0,943.0,1.0,0,1727.0,0
991,991,-0.06607685030448684,-0.1,1.0,0.0,307.0,841.0,1.0,1,1852.0,0
992,992,0.81032145464676,0.8,1.0,1.0,362.0,658.0,1.0,1,70.0,1
993,993,0.12947184697279657,0.1,1.0,1.0,439.0,931.0,1.0,1,-100.0,1
994,994,0.3133212126549444,0.3,0.0,0.0,361.0,846.0,1.0,0,-47.0,0
995,995,0.06010663528011595,0.1,0.0,0.0,472.0,942.0,0.0,1,1586.0,1
996,996,-0.7311490213344838,-0.7,1.0,0.0,471.0,887.0,0.0,0,542.0,1
997,997,0.6040431190450247,0.6,1.0,1.0,411.0,616.0,1.0,1,263.0,1
998,998,0.337014214337385,0.3,1.0,1.0,266.0,535.0,1.0,1,69.0,1
999,999,-0.6642140957693652,-0.7,1.0,0.0,373.0,883.0,0.0,0,244.0,1
1000,1000,0.3044834576641765,0.3,0.0,0.0,389.0,600.0,0.0,1,841.0,1
1001,1001,-0.4066476120686801,-0.4,0.0,1.0,372.0,662.0,1.0,0,266.0,1
1002,1002,0.5774349285422756,0.6,1.0,1.0,299.0,996.0,1.0,1,115.0,1
1003,1003,0.14798952299810308,0.1,1.0,1.0,297.0,963.0,1.0,1,620.0,1
1004,1004,-0.7232588827218998,-0.7,1.0,0.0,375.0,713.0,0.0,0,222.0,1
1005,1005,0.4345705120347919,0.4,0.0,0.0,367.0,662.0,0.0,1,391.0,1
1006,1006,0.3353962198319763,0.3,1.0,1.0,265.0,844.0,1.0,1,111.0,1
1007,1007,-0.566009474209993,-0.6,1.0,0.0,374.0,613.0,0.0,0,983.0,1
1008,1008,-0.6175982373396398,-0.6,1.0,0.0,276.0,568.0,0.0,0,676.0,1
1009,1009,0.43911120365176914,0.4,0.0,0.0,489.0,978.0,1.0,0,-87.0,0
1010,1010,0.27090955779160486,0.3,1.0,1.0,297.0,936.0,1.0,1,217.0,1
1011,1011,-0.1333978941481393,-0.1,0.0,1.0,437.0,701.0,1.0,0,1242.0,1
1012,1012,0.5846314748621316,0.6,1.0,1.0,316.0,547.0,1.0,1,257.0,1
1013,1013,-0.7062835975571001,-0.7,0.0,1.0,312.0,588.0,1.0,0,280.0,1
1014,1014,-0.3719970441957674,-0.4,1.0,0.0,451.0,707.0,0.0,0,1842.0,1
1015,1015,-0.6947016092761515,-0.7,0.0,1.0,439.0,699.0,1.0,0,62.0,1
1016,1016,-0.026569151760406085,-0.0,1.0,0.0,412.0,689.0,1.0,1,1899.0,0
1017,1017,-0.6562340557766065,-0.7,1.0,0.0,489.0,856.0,0.0,0,1035.0,1
1018,1018,0.7511015024478785,0.8,1.0,1.0,443.0,753.0,1.0,1,114.0,1
1019,1019,-0.001981373504456374,-0.0,0.0,1.0,499.0,694.0,0.0,1,1807.0,0
1020,1020,0.0284955342562343,0.0,1.0,1.0,400.0,522.0,1.0,1,1068.0,1
1021,1021,-0.8427977086274169,-0.8,0.0,1.0,336.0,918.0,1.0,0,226.0,1
1022,1022,-0.4271652390064377,-0.4,1.0,0.0,295.0,847.0,0.0,0,1858.0,1
1023,1023,0.5183933609299757,0.5,1.0,1.0,253.0,707.0,1.0,1,330.0,1
1024,1024,0.49255456053368774,0.5,0.0,0.0,422.0,908.0,0.0,1,580.0,1
1025,1025,-0.260168856795855,-0.3,0.0,1.0,410.0,734.0,1.0,0,616.0,1
1026,1026,0.08614298581906876,0.1,0.0,0.0,368.0,535.0,1.0,0,1667.0,0
1027,1027,-0.7297099482652225,-0.7,1.0,0.0,272.0,530.0,0.0,0,208.0,1
1028,1028,0.4220299712861767,0.4,0.0,0.0,405.0,750.0,0.0,1,345.0,1
1029,1029,-0.6492440084451875,-0.6,0.0,1.0,488.0,646.0,1.0,0,6.0,1
1030,1030,0.7909841567760864,0.8,0.0,0.0,455.0,719.0,0.0,1,196.0,1
1031,1031,0.8497199835665997,0.8,1.0,1.0,302.0,825.0,1.0,1,113.0,1
1032,1032,0.5098447809300773,0.5,0.0,0.0,481.0,803.0,0.0,1,1236.0,1
1033,1033,-0.43627459170317706,-0.4,1.0,0.0,414.0,522.0,0.0,0,774.0,1
1034,1034,-0.43561635408962934,-0.4,0.0,1.0,376.0,637.0,1.0,0,587.0,1
1035,1035,-0.3505563647399037,-0.4,0.0,1.0,253.0,978.0,1.0,0,329.0,1
1036,1036,0.6803023503903342,0.7,0.0,0.0,261.0,991.0,0.0,1,328.0,1
1037,1037,-0.012776697942041282,-0.0,1.0,0.0,492.0,656.0,1.0,1,1802.0,0
1038,1038,0.4968499879588876,0.5,1.0,1.0,317.0,622.0,1.0,1,211.0,1
1039,1039,-0.3988598907008746,-0.4,0.0,1.0,455.0,981.0,1.0,0,164.0,1
1040,1040,-0.6177025801863543,-0.6,0.0,1.0,468.0,818.0,1.0,0,264.0,1
1041,1041,0.7889250606677202,0.8,1.0,1.0,291.0,576.0,1.0,1,83.0,1
1042,1042,-0.5980660403063343,-0.6,0.0,1.0,474.0,501.0,1.0,0,315.0,1
1043,1043,0.6333410029340111,0.6,0.0,0.0,361.0,666.0,0.0,1,233.0,1
1044,1044,0.013953008802080502,0.0,0.0,0.0,311.0,570.0,0.0,1,2119.0,1
1045,1045,0.890302418460902,0.9,0.0,0.0,412.0,999.0,1.0,0,-61.0,0
1046,1046,-0.699622064501462,-0.7,1.0,0.0,414.0,608.0,0.0,0,218.0,1
1047,1047,0.17551968231569248,0.2,1.0,1.0,416.0,882.0,1.0,1,432.0,1
1048,1048,0.06531959355247019,0.1,0.0,0.0,406.0,910.0,1.0,0,1044.0,0
1049,1049,0.7928332065968225,0.8,1.0,1.0,377.0,696.0,1.0,1,147.0,1
1050,1050,0.34065484479909147,0.3,1.0,1.0,301.0,570.0,1.0,1,279.0,1
1051,1051,0.23359696825270093,0.2,0.0,0.0,334.0,786.0,0.0,1,480.0,1
1052,1052,-0.4535490537362112,-0.5,0.0,1.0,426.0,913.0,1.0,0,271.0,1
1053,1053,-0.7780296273680353,-0.8,1.0,0.0,263.0,532.0,0.0,0,205.0,1
1054,1054,-0.12346175946932292,-0.1,1.0,0.0,490.0,874.0,0.0,0,1636.0,1
1055,1055,-0.05937049981010478,-0.1,0.0,1.0,262.0,764.0,1.0,0,1974.0,1
1056,1056,0.8267334460638017,0.8,0.0,0.0,412.0,904.0,0.0,1,444.0,1
1057,1057,-0.7154962317646241,-0.7,1.0,0.0,446.0,886.0,0.0,0,1668.0,1
1058,1058,0.2422028992052493,0.2,1.0,1.0,308.0,624.0,1.0,1,1108.0,1
1059,1059,-0.037104065188004465,-0.0,0.0,1.0,407.0,844.0,1.0,0,1749.0,1
1060,1060,-0.5744986930059126,-0.6,1.0,0.0,477.0,773.0,0.0,0,680.0,1
1061,1061,-0.29917990532691996,-0.3,0.0,1.0,396.0,796.0,1.0,0,98.0,1
1062,1062,-0.7118273212767134,-0.7,0.0,1.0,450.0,852.0,1.0,0,198.0,1
1063,1063,0.8394739894924735,0.8,1.0,1.0,259.0,831.0,1.0,1,80.0,1
1064,1064,-0.4267745459895309,-0.4,1.0,0.0,272.0,818.0,0.0,0,670.0,1
1065,1065,0.8271071323329381,0.8,0.0,0.0,321.0,748.0,0.0,1,71.0,1
1066,1066,0.11323933562001065,0.1,0.0,0.0,340.0,555.0,0.0,1,2105.0,1
1067,1067,0.10871377952686989,0.1,0.0,0.0,294.0,930.0,0.0,1,1776.0,1
1068,1068,0.2531806830598867,0.3,0.0,0.0,416.0,722.0,0.0,1,1352.0,1
1069,1069,0.39690413460618157,0.4,0.0,0.0,379.0,589.0,0.0,1,452.0,1
1070,1070,-0.8444124827154877,-0.8,0.0,1.0,308.0,920.0,1.0,0,232.0,1
1071,1071,-0.5087906830127977,-0.5,1.0,0.0,437.0,755.0,0.0,0,1398.0,1
1072,1072,-0.24391965683228778,-0.2,1.0,0.0,302.0,784.0,0.0,0,1124.0,1
1073,1073,0.8750725153591942,0.9,0.0,0.0,496.0,971.0,0.0,1,113.0,1
1074,1074,0.5711486327761469,0.6,1.0,1.0,323.0,742.0,1.0,1,155.0,1
1075,1075,-0.8545300208841615,-0.9,1.0,0.0,372.0,950.0,0.0,0,298.0,1
1076,1076,-0.009791516256579924,-0.0,0.0,1.0,452.0,962.0,1.0,0,816.0,1
1077,1077,0.3590194703015698,0.4,1.0,1.0,397.0,871.0,1.0,1,252.0,1
1078,1078,0.15871923244340402,0.2,0.0,0.0,313.0,658.0,0.0,1,1579.0,1
1079,1079,-0.5932574000016163,-0.6,1.0,0.0,291.0,963.0,0.0,0,506.0,1
1080,1080,-0.47594462557533584,-0.5,0.0,1.0,320.0,853.0,1.0,0,407.0,1
1081,1081,0.41724609824163583,0.4,0.0,0.0,499.0,597.0,0.0,1,744.0,1
1082,1082,-0.7985939587168475,-0.8,1.0,0.0,438.0,590.0,0.0,0,632.0,1
1083,1083,-0.07232182088134909,-0.1,0.0,1.0,460.0,754.0,1.0,0,1786.0,1
1084,1084,0.8661858494171198,0.9,1.0,1.0,290.0,886.0,1.0,1,94.0,1
1085,1085,-0.19774366957640999,-0.2,1.0,0.0,465.0,948.0,1.0,1,1587.0,0
1086,1086,-0.3991154150428664,-0.4,0.0,1.0,268.0,930.0,1.0,0,72.0,1
1087,1087,-0.5056391245796202,-0.5,0.0,1.0,312.0,934.0,1.0,0,284.0,1
1088,1088,0.48563004731920356,0.5,0.0,0.0,400.0,548.0,0.0,1,592.0,1
1089,1089,-0.8200747150493921,-0.8,0.0,1.0,280.0,921.0,1.0,0,89.0,1
1090,1090,-0.49521997774396787,-0.5,0.0,1.0,499.0,724.0,1.0,0,347.0,1
1091,1091,-0.5423618611763414,-0.5,1.0,0.0,451.0,826.0,0.0,0,423.0,1
1092,1092,0.6469459844068618,0.6,0.0,0.0,333.0,507.0,0.0,1,160.0,1
1093,1093,-0.7314621017270172,-0.7,0.0,1.0,262.0,745.0,1.0,0,-327.0,1
1094,1094,0.48816017016836366,0.5,1.0,1.0,408.0,724.0,1.0,1,48.0,1
1095,1095,-0.696456186802535,-0.7,1.0,0.0,428.0,897.0,0.0,0,385.0,1
1096,1096,0.6061198312512491,0.6,0.0,0.0,330.0,715.0,0.0,1,695.0,1
1097,1097,-0.42514777394035885,-0.4,0.0,1.0,496.0,501.0,1.0,0,303.0,1
1098,1098,-0.7663715051142527,-0.8,0.0,1.0,473.0,584.0,1.0,0,163.0,1
1099,1099,0.559152267789163,0.6,0.0,0.0,407.0,781.0,0.0,1,132.0,1
1100,1100,0.22834934685151353,0.2,0.0,0.0,263.0,587.0,0.0,1,2150.0,1
1101,1101,0.6851524226527536,0.7,0.0,0.0,352.0,925.0,0.0,1,343.0,1
1102,1102,0.20504356049533345,0.2,1.0,1.0,300.0,984.0,1.0,1,1086.0,1
1103,1103,0.6730015461247757,0.7,0.0,0.0,253.0,577.0,0.0,1,640.0,1
1104,1104,0.8090754310224441,0.8,1.0,1.0,428.0,955.0,1.0,1,197.0,1
1105,1105,0.5484293255655913,0.5,1.0,1.0,449.0,799.0,1.0,1,212.0,1
1106,1106,-0.38049600119614113,-0.4,0.0,1.0,482.0,934.0,1.0,0,184.0,1
1107,1107,0.011570923957703427,0.0,0.0,0.0,267.0,582.0,1.0,0,2151.0,0
1108,1108,-0.3435056300224394,-0.3,0.0,1.0,354.0,795.0,1.0,0,141.0,1
1109,1109,0.576359383028184,0.6,0.0,0.0,308.0,567.0,0.0,1,305.0,1
1110,1110,0.03836857201421473,0.0,1.0,1.0,344.0,640.0,1.0,1,636.0,1
1111,1111,0.8150126811238382,0.8,0.0,0.0,410.0,899.0,0.0,1,191.0,1
1112,1112,-0.551937842955041,-0.6,1.0,0.0,273.0,646.0,0.0,0,881.0,1
1113,1113,0.31533100610546894,0.3,0.0,0.0,465.0,753.0,0.0,1,1262.0,1
1114,1114,-0.7709734568749469,-0.8,0.0,1.0,280.0,895.0,1.0,0,285.0,1
1115,1115,0.19705858659208275,0.2,1.0,1.0,286.0,589.0,1.0,1,385.0,1
1116,1116,-0.154166411790289,-0.2,1.0,0.0,394.0,783.0,0.0,0,1063.0,1
1117,1117,-0.6200247936164818,-0.6,1.0,0.0,273.0,871.0,0.0,0,276.0,1
1118,1118,0.8613568755925686,0.9,1.0,1.0,385.0,952.0,1.0,1,113.0,1
1119,1119,-0.8594782478374291,-0.9,1.0,0.0,331.0,801.0,0.0,0,688.0,1
1120,1120,-0.350602794503175,-0.4,1.0,0.0,398.0,889.0,0.0,0,533.0,1
1121,1121,-0.44482588968335046,-0.4,0.0,1.0,424.0,782.0,1.0,0,684.0,1
1122,1122,-0.716332269049924,-0.7,0.0,1.0,457.0,788.0,1.0,0,-85.0,1
1123,1123,0.16905185682682256,0.2,0.0,0.0,354.0,530.0,1.0,0,2116.0,0
1124,1124,0.6379198777718783,0.6,1.0,1.0,329.0,630.0,1.0,1,451.0,1
1125,1125,-0.2619406503231162,-0.3,0.0,1.0,446.0,610.0,1.0,0,204.0,1
1126,1126,0.2742521247726225,0.3,0.0,0.0,389.0,970.0,0.0,1,1641.0,1
1127,1127,-0.6225536460674905,-0.6,1.0,0.0,438.0,967.0,0.0,0,345.0,1
1128,1128,-0.06446155103393991,-0.1,0.0,1.0,299.0,750.0,1.0,0,401.0,1
1129,1129,0.2750276659130265,0.3,1.0,1.0,498.0,863.0,1.0,1,109.0,1
1130,1130,0.033667032974997846,0.0,0.0,0.0,355.0,818.0,1.0,0,1827.0,0
1131,1131,-0.02813225243236328,-0.0,0.0,1.0,261.0,580.0,1.0,0,949.0,1
1132,1132,-0.5825696952917839,-0.6,1.0,0.0,440.0,731.0,0.0,0,369.0,1
1133,1133,-0.7993265003198887,-0.8,1.0,0.0,436.0,668.0,0.0,0,896.0,1
1134,1134,0.4704028853264469,0.5,0.0,0.0,384.0,951.0,1.0,0,-55.0,0
1135,1135,-0.4234054252563664,-0.4,0.0,1.0,441.0,894.0,1.0,0,-45.0,1
1136,1136,0.6960153774566632,0.7,1.0,1.0,375.0,894.0,1.0,1,201.0,1
1137,1137,0.2980208120532851,0.3,0.0,0.0,397.0,757.0,0.0,1,386.0,1
1138,1138,-0.16297217953979237,-0.2,0.0,1.0,320.0,770.0,1.0,0,630.0,1
1139,1139,-0.25811855876899104,-0.3,1.0,0.0,264.0,608.0,0.0,0,838.0,1
1140,1140,0.8208912326735268,0.8,1.0,1.0,424.0,719.0,1.0,1,57.0,1
1141,1141,0.11866864487189799,0.1,1.0,1.0,477.0,687.0,1.0,1,216.0,1
1142,1142,0.336864473086944,0.3,1.0,1.0,294.0,989.0,1.0,1,357.0,1
1143,1143,0.31440538232665916,0.3,1.0,1.0,256.0,627.0,1.0,1,707.0,1
1144,1144,0.3590214225166314,0.4,0.0,0.0,336.0,618.0,0.0,1,556.0,1
1145,1145,0.4572978831842166,0.5,0.0,0.0,272.0,667.0,0.0,1,201.0,1
1146,1146,-0.42650119074331966,-0.4,1.0,0.0,387.0,951.0,0.0,0,672.0,1
1147,1147,-0.4089809843896033,-0.4,1.0,0.0,419.0,915.0,0.0,0,1666.0,1
1148,1148,0.5403133613353476,0.5,1.0,1.0,312.0,720.0,1.0,1,48.0,1
1149,1149,0.5466226439490004,0.5,0.0,0.0,406.0,749.0,0.0,1,375.0,1
1150,1150,0.5958176011427775,0.6,1.0,1.0,324.0,982.0,1.0,1,264.0,1
1151,1151,-0.6930070705927347,-0.7,0.0,1.0,486.0,587.0,1.0,0,167.0,1
1152,1152,0.845836809101305,0.8,1.0,1.0,467.0,909.0,1.0,1,274.0,1
1153,1153,0.7259995637344562,0.7,1.0,1.0,466.0,730.0,1.0,1,224.0,1
1154,1154,-0.8279130606799896,-0.8,1.0,0.0,371.0,895.0,0.0,0,254.0,1
1155,1155,0.16459038505107493,0.2,1.0,1.0,306.0,780.0,1.0,1,94.0,1
1156,1156,-0.5501787074270768,-0.6,1.0,0.0,380.0,721.0,1.0,1,-91.0,0
1157,1157,-0.3653345888389593,-0.4,1.0,0.0,341.0,966.0,0.0,0,1693.0,1
1158,1158,0.5073413142954831,0.5,0.0,0.0,321.0,732.0,0.0,1,277.0,1
1159,1159,0.14866987956114486,0.1,1.0,1.0,387.0,963.0,1.0,1,170.0,1
1160,1160,0.38282067107470896,0.4,0.0,0.0,474.0,790.0,0.0,1,686.0,1
1161,1161,-0.8145568114456948,-0.8,1.0,0.0,471.0,537.0,0.0,0,172.0,1
1162,1162,-0.7816463916386586,-0.8,0.0,1.0,472.0,548.0,1.0,0,20.0,1
1163,1163,-0.6590579945743322,-0.7,1.0,0.0,360.0,540.0,0.0,0,320.0,1
1164,1164,-0.252073888220126,-0.3,0.0,1.0,300.0,781.0,1.0,0,329.0,1
1165,1165,-0.3610498456037814,-0.4,1.0,0.0,362.0,619.0,0.0,0,1349.0,1
1166,1166,-0.43716293071168155,-0.4,1.0,0.0,418.0,962.0,1.0,1,-80.0,0
1167,1167,-0.14147677198447328,-0.1,0.0,1.0,439.0,807.0,1.0,0,184.0,1
1168,1168,-0.8828915521810575,-0.9,0.0,1.0,424.0,558.0,1.0,0,158.0,1
1169,1169,-0.602208064192074,-0.6,1.0,0.0,443.0,506.0,0.0,0,361.0,1
1170,1170,0.03528535532638866,0.0,1.0,1.0,497.0,751.0,1.0,1,842.0,1
1171,1171,-0.4434067482482967,-0.4,1.0,0.0,452.0,503.0,0.0,0,1175.0,1
1172,1172,-0.15917349478363785,-0.2,1.0,0.0,417.0,940.0,0.0,0,1643.0,1
1173,1173,-0.37010781842886364,-0.4,1.0,0.0,355.0,901.0,0.0,0,934.0,1
1174,1174,0.3412330390151931,0.3,1.0,1.0,379.0,582.0,1.0,1,489.0,1
1175,1175,-0.7541085381448094,-0.8,0.0,1.0,430.0,957.0,1.0,0,143.0,1
1176,1176,0.8316740765094602,0.8,1.0,1.0,418.0,698.0,1.0,1,84.0,1
1177,1177,0.7667747400480601,0.8,0.0,0.0,326.0,753.0,0.0,1,71.0,1
1178,1178,-0.07790278973153608,-0.1,1.0,0.0,477.0,613.0,1.0,1,1910.0,0
1179,1179,-0.8027273279157386,-0.8,0.0,1.0,332.0,849.0,1.0,0,559.0,1
1180,1180,0.8703805174217482,0.9,0.0,0.0,277.0,511.0,0.0,1,262.0,1
1181,1181,0.8852413028667486,0.9,1.0,1.0,485.0,879.0,1.0,1,206.0,1
1182,1182,0.47785264301533015,0.5,0.0,0.0,388.0,943.0,0.0,1,539.0,1
1183,1183,-0.10475772268657202,-0.1,1.0,0.0,408.0,994.0,1.0,1,1598.0,0
1184,1184,0.24420547504181134,0.2,0.0,0.0,454.0,986.0,0.0,1,1010.0,1
1185,1185,0.12250071616598646,0.1,1.0,1.0,405.0,665.0,1.0,1,410.0,1
1186,1186,-0.036994563664659696,-0.0,1.0,0.0,388.0,898.0,1.0,1,1354.0,0
1187,1187,-0.16201017127869122,-0.2,1.0,0.0,338.0,945.0,0.0,0,1717.0,1
1188,1188,-0.43748411798388903,-0.4,0.0,1.0,362.0,658.0,1.0,0,210.0,1
1189,1189,-0.5341874576568231,-0.5,1.0,0.0,372.0,833.0,0.0,0,985.0,1
1190,1190,-0.43323965033453354,-0.4,0.0,1.0,361.0,968.0,1.0,0,201.0,1
1191,1191,0.6053400367509635,0.6,1.0,1.0,288.0,609.0,1.0,1,183.0,1
1192,1192,-0.7217578903406142,-0.7,1.0,0.0,306.0,532.0,0.0,0,272.0,1
1193,1193,0.6422220270207374,0.6,0.0,0.0,280.0,899.0,0.0,1,441.0,1
1194,1194,-0.637515126221978,-0.6,0.0,1.0,319.0,818.0,1.0,0,193.0,1
1195,1195,0.8479378921758532,0.8,1.0,1.0,452.0,527.0,1.0,1,71.0,1
1196,1196,-0.8999218486033973,-0.9,0.0,1.0,494.0,827.0,1.0,0,519.0,1
1197,1197,0.4348772814172336,0.4,1.0,1.0,261.0,944.0,1.0,1,245.0,1
1198,1198,0.1903679729365123,0.2,1.0,1.0,442.0,792.0,1.0,1,246.0,1
1199,1199,-0.8438683614416352,-0.8,0.0,1.0,331.0,593.0,1.0,0,216.0,1
1200,1200,0.5869346884536443,0.6,1.0,1.0,265.0,840.0,1.0,1,165.0,1
1201,1201,-0.11436654562187831,-0.1,0.0,1.0,259.0,513.0,1.0,0,498.0,1
1202,1202,0.48668627934932884,0.5,0.0,0.0,396.0,736.0,0.0,1,348.0,1
1203,1203,0.2757471800260457,0.3,0.0,0.0,351.0,572.0,0.0,1,867.0,1
1204,1204,0.47266118771416565,0.5,1.0,1.0,250.0,517.0,1.0,1,193.0,1
1205,1205,0.4937540862718296,0.5,0.0,0.0,338.0,642.0,0.0,1,310.0,1
1206,1206,-0.606965634535886,-0.6,0.0,1.0,477.0,767.0,1.0,0,206.0,1
1207,1207,0.4158101148702674,0.4,1.0,1.0,277.0,895.0,1.0,1,-282.0,1
1208,1208,-0.06641408033221474,-0.1,1.0,0.0,270.0,918.0,1.0,1,1812.0,0
1209,1209,0.0009458867552152306,0.0,1.0,1.0,359.0,863.0,1.0,1,1478.0,1
1210,1210,-0.7974064082481799,-0.8,1.0,0.0,334.0,732.0,0.0,0,154.0,1
1211,1211,0.23065714038243168,0.2,1.0,1.0,386.0,925.0,1.0,1,69.0,1
1212,1212,0.04700240093504515,0.0,1.0,1.0,418.0,600.0,1.0,1,1022.0,1
1213,1213,-0.11037904730231696,-0.1,1.0,0.0,484.0,519.0,1.0,1,1997.0,0
1214,1214,0.7791505898580703,0.8,1.0,1.0,434.0,952.0,1.0,1,94.0,1
1215,1215,-0.7566493992344269,-0.8,1.0,0.0,391.0,766.0,0.0,0,373.0,1
1216,1216,-0.1468123749036735,-0.1,0.0,1.0,352.0,611.0,1.0,0,427.0,1
1217,1217,0.6552975544211223,0.7,1.0,1.0,396.0,839.0,1.0,1,85.0,1
1218,1218,0.7780515312269439,0.8,0.0,0.0,423.0,721.0,0.0,1,296.0,1
1219,1219,-0.8282957309839023,-0.8,1.0,0.0,413.0,687.0,1.0,1,-60.0,0
1220,1220,-0.6332677572936387,-0.6,1.0,0.0,351.0,779.0,0.0,0,470.0,1
1221,1221,0.43274922717077924,0.4,1.0,1.0,331.0,875.0,1.0,1,154.0,1
1222,1222,0.7334624307776813,0.7,1.0,1.0,252.0,607.0,1.0,1,191.0,1
1223,1223,-0.6957826608147779,-0.7,1.0,0.0,262.0,695.0,0.0,0,723.0,1
1224,1224,-0.5379583582925731,-0.5,1.0,0.0,494.0,650.0,0.0,0,766.0,1
1225,1225,-0.356587103502353,-0.4,1.0,0.0,461.0,863.0,0.0,0,896.0,1
1226,1226,0.202152090348941,0.2,0.0,0.0,393.0,563.0,0.0,1,614.0,1
1227,1227,0.6930402527621516,0.7,0.0,0.0,438.0,928.0,0.0,1,284.0,1
1228,1228,-0.014348168902124314,-0.0,1.0,0.0,255.0,654.0,1.0,1,1501.0,0
1229,1229,-0.08022866995924804,-0.1,0.0,1.0,334.0,996.0,1.0,0,600.0,1
1230,1230,-0.5992018223786,-0.6,0.0,1.0,324.0,581.0,1.0,0,235.0,1
1231,1231,0.4591844342724599,0.5,0.0,0.0,441.0,608.0,0.0,1,711.0,1
1232,1232,0.16817731135613856,0.2,0.0,0.0,434.0,712.0,0.0,1,1854.0,1
1233,1233,0.7260431299937745,0.7,1.0,1.0,435.0,700.0,1.0,1,155.0,1
1234,1234,-0.7459187076055124,-0.7,1.0,0.0,290.0,596.0,0.0,0,1274.0,1
1235,1235,0.1355394655119485,0.1,0.0,0.0,395.0,640.0,0.0,1,1965.0,1
1236,1236,-0.5663672351402232,-0.6,0.0,1.0,277.0,826.0,1.0,0,407.0,1
1237,1237,0.5744668648799413,0.6,0.0,0.0,359.0,817.0,0.0,1,304.0,1
1238,1238,0.058702892471709234,0.1,0.0,0.0,258.0,678.0,1.0,0,694.0,0
1239,1239,-0.7925790336211318,-0.8,1.0,0.0,399.0,954.0,0.0,0,247.0,1
1240,1240,0.08979505876525418,0.1,0.0,0.0,327.0,758.0,1.0,0,1625.0,0
1241,1241,-0.5042879279945929,-0.5,0.0,1.0,333.0,985.0,1.0,0,192.0,1
1242,1242,-0.8436863740769176,-0.8,0.0,1.0,410.0,907.0,1.0,0,223.0,1
1243,1243,-0.21289263836902383,-0.2,0.0,1.0,399.0,850.0,1.0,0,541.0,1
1244,1244,0.14071257698865447,0.1,0.0,0.0,432.0,980.0,0.0,1,848.0,1
1245,1245,-0.02441404452185203,-0.0,1.0,0.0,413.0,634.0,1.0,1,1953.0,0
1246,1246,-0.7673338184350563,-0.8,0.0,1.0,309.0,513.0,1.0,0,208.0,1
1247,1247,-0.7600309191465522,-0.8,1.0,0.0,456.0,896.0,0.0,0,248.0,1
1248,1248,0.5177803536608175,0.5,0.0,0.0,284.0,753.0,0.0,1,1823.0,1
1249,1249,0.3272472428239469,0.3,0.0,0.0,468.0,795.0,0.0,1,1737.0,1
1250,1250,-0.06273910480186351,-0.1,1.0,0.0,459.0,829.0,1.0,1,1712.0,0
1251,1251,0.026054959523387766,0.0,0.0,0.0,493.0,711.0,1.0,0,1796.0,0
1252,1252,0.43385580378834654,0.4,0.0,0.0,384.0,774.0,0.0,1,762.0,1
1253,1253,-0.1761173170260617,-0.2,0.0,1.0,496.0,725.0,1.0,0,99.0,1
1254,1254,-0.6737153714353041,-0.7,1.0,0.0,336.0,568.0,0.0,0,296.0,1
1255,1255,-0.6036853832176325,-0.6,1.0,0.0,387.0,980.0,0.0,0,493.0,1
1256,1256,0.7107928357481689,0.7,1.0,1.0,360.0,566.0,1.0,1,304.0,1
1257,1257,0.054627224166152843,0.1,1.0,1.0,346.0,722.0,1.0,1,552.0,1
1258,1258,-0.1926903823688939,-0.2,1.0,0.0,388.0,541.0,0.0,0,2071.0,1
1259,1259,0.20938942519098347,0.2,1.0,1.0,274.0,793.0,1.0,1,313.0,1
1260,1260,-0.06817140963586454,-0.1,0.0,1.0,428.0,900.0,1.0,0,862.0,1
1261,1261,-0.029910936451038372,-0.0,0.0,1.0,443.0,693.0,1.0,0,1244.0,1
1262,1262,-0.21804495272187663,-0.2,0.0,1.0,375.0,986.0,1.0,0,449.0,1
1263,1263,-0.3450111775304797,-0.3,1.0,0.0,287.0,770.0,0.0,0,953.0,1
1264,1264,-0.3091884894563802,-0.3,0.0,1.0,324.0,797.0,1.0,0,189.0,1
1265,1265,0.8495458554278453,0.8,0.0,0.0,458.0,576.0,0.0,1,116.0,1
1266,1266,0.8159371638731362,0.8,0.0,0.0,477.0,854.0,0.0,1,199.0,1
1267,1267,0.7975810972403333,0.8,1.0,1.0,460.0,756.0,1.0,1,164.0,1
1268,1268,0.6888695340228611,0.7,0.0,0.0,283.0,882.0,0.0,1,215.0,1
1269,1269,-0.27833441010603266,-0.3,0.0,1.0,425.0,890.0,1.0,0,1035.0,1
1270,1270,0.70302944568538,0.7,1.0,1.0,319.0,977.0,1.0,1,234.0,1
1271,1271,-0.07081019907429209,-0.1,1.0,0.0,430.0,960.0,1.0,1,1610.0,0
1272,1272,0.168679768257323,0.2,1.0,1.0,433.0,923.0,1.0,1,624.0,1
1273,1273,-0.190511450198397,-0.2,0.0,1.0,344.0,808.0,1.0,0,1248.0,1
1274,1274,-0.06708091057148557,-0.1,0.0,1.0,456.0,808.0,1.0,0,226.0,1
1275,1275,-0.3983107744479383,-0.4,1.0,0.0,429.0,803.0,0.0,0,818.0,1
1276,1276,-0.28867059115749705,-0.3,0.0,1.0,491.0,607.0,1.0,0,852.0,1
1277,1277,0.8486244400875985,0.8,0.0,0.0,347.0,547.0,0.0,1,136.0,1
1278,1278,-0.42851911137701537,-0.4,1.0,0.0,329.0,694.0,0.0,0,867.0,1
1279,1279,0.37937096475782195,0.4,0.0,0.0,349.0,885.0,0.0,1,1126.0,1
1280,1280,0.8844898362903267,0.9,1.0,1.0,255.0,948.0,1.0,1,97.0,1
1281,1281,-0.8317948620340876,-0.8,0.0,1.0,261.0,961.0,1.0,0,118.0,1
1282,1282,0.31421757885322854,0.3,1.0,1.0,386.0,991.0,1.0,1,533.0,1
1283,1283,0.6602563475649347,0.7,0.0,0.0,296.0,586.0,0.0,1,1138.0,1
1284,1284,0.5741821898331431,0.6,1.0,1.0,291.0,955.0,1.0,1,234.0,1
1285,1285,0.5609716731078785,0.6,1.0,1.0,309.0,709.0,1.0,1,312.0,1
1286,1286,0.4843546772245336,0.5,0.0,0.0,364.0,724.0,0.0,1,422.0,1
1287,1287,0.36164978444782514,0.4,1.0,1.0,449.0,860.0,1.0,1,361.0,1
1288,1288,-0.19768980476581433,-0.2,1.0,0.0,478.0,867.0,0.0,0,1655.0,1
1289,1289,-0.7371795978071658,-0.7,0.0,1.0,413.0,588.0,1.0,0,239.0,1
1290,1290,-0.588688821073812,-0.6,0.0,1.0,262.0,733.0,1.0,0,165.0,1
1291,1291,-0.6655671129854028,-0.7,0.0,1.0,485.0,715.0,1.0,0,250.0,1
1292,1292,-0.5013270433221986,-0.5,0.0,1.0,447.0,994.0,1.0,0,389.0,1
1293,1293,-0.6607064525979534,-0.7,0.0,1.0,403.0,948.0,1.0,0,239.0,1
1294,1294,-0.8446515956000347,-0.8,0.0,1.0,352.0,558.0,1.0,0,200.0,1
1295,1295,-0.716277424884586,-0.7,1.0,0.0,377.0,683.0,0.0,0,180.0,1
1296,1296,-0.18578211248977272,-0.2,1.0,0.0,291.0,882.0,1.0,1,107.0,0
1297,1297,0.8972844524147648,0.9,1.0,1.0,352.0,849.0,1.0,1,99.0,1
1298,1298,-0.25734940757628,-0.3,1.0,0.0,326.0,729.0,0.0,0,1945.0,1
1299,1299,0.4667328647190959,0.5,0.0,0.0,370.0,932.0,0.0,1,338.0,1
1300,1300,-0.07674887149358134,-0.1,0.0,1.0,467.0,872.0,1.0,0,1161.0,1
1301,1301,-0.39800886711723715,-0.4,1.0,0.0,438.0,812.0,0.0,0,680.0,1
1302,1302,0.1718085264953274,0.2,1.0,1.0,326.0,981.0,1.0,1,453.0,1
1303,1303,0.19677670940388958,0.2,0.0,0.0,318.0,921.0,0.0,1,1301.0,1
1304,1304,0.19813745479023825,0.2,0.0,0.0,293.0,893.0,0.0,1,1304.0,1
1305,1305,-0.16363245638137958,-0.2,0.0,1.0,464.0,696.0,1.0,0,360.0,1
1306,1306,0.7535961777099826,0.8,0.0,0.0,378.0,848.0,0.0,1,154.0,1
1307,1307,-0.7227877022977243,-0.7,0.0,1.0,357.0,823.0,1.0,0,160.0,1
1308,1308,0.552143306604438,0.6,0.0,0.0,292.0,504.0,0.0,1,234.0,1
1309,1309,0.5645576783534075,0.6,1.0,1.0,339.0,638.0,1.0,1,53.0,1
1310,1310,0.6217476083493919,0.6,0.0,0.0,306.0,879.0,0.0,1,275.0,1
1311,1311,-0.24271474325118514,-0.2,0.0,1.0,443.0,891.0,1.0,0,1196.0,1
1312,1312,0.8141918392522,0.8,1.0,1.0,270.0,986.0,1.0,1,254.0,1
1313,1313,-0.8381509838742851,-0.8,0.0,1.0,438.0,636.0,1.0,0,146.0,1
1314,1314,0.19614103606108368,0.2,0.0,0.0,490.0,932.0,0.0,1,288.0,1
1315,1315,-0.5857255606109253,-0.6,0.0,1.0,400.0,687.0,1.0,0,573.0,1
1316,1316,0.14282354727460855,0.1,1.0,1.0,380.0,773.0,1.0,1,327.0,1
1317,1317,-0.7320736741668286,-0.7,0.0,1.0,299.0,544.0,1.0,0,307.0,1
1318,1318,0.19067435934371624,0.2,0.0,0.0,275.0,570.0,0.0,1,1695.0,1
1319,1319,0.027122560849352606,0.0,1.0,1.0,479.0,678.0,1.0,1,343.0,1
1320,1320,-0.5037761590857593,-0.5,1.0,0.0,388.0,764.0,0.0,0,1848.0,1
1321,1321,-0.17732500188832756,-0.2,1.0,0.0,378.0,970.0,1.0,1,1652.0,0
1322,1322,-0.6097748217152634,-0.6,0.0,1.0,270.0,542.0,1.0,0,158.0,1
1323,1323,0.8367985940339776,0.8,1.0,1.0,357.0,591.0,1.0,1,82.0,1
1324,1324,-0.48465522803996913,-0.5,1.0,0.0,280.0,784.0,0.0,0,266.0,1
1325,1325,-0.29974365708637973,-0.3,1.0,0.0,365.0,657.0,0.0,0,1978.0,1
1326,1326,-0.313062741257619,-0.3,1.0,0.0,340.0,506.0,0.0,0,2154.0,1
1327,1327,-0.6466132165203291,-0.6,1.0,0.0,412.0,982.0,1.0,1,16.0,0
1328,1328,0.017902270221223926,0.0,1.0,1.0,363.0,544.0,1.0,1,1153.0,1
1329,1329,-0.8134226997731536,-0.8,0.0,1.0,435.0,681.0,1.0,0,184.0,1
1330,1330,0.8893246082693423,0.9,1.0,1.0,439.0,791.0,1.0,1,30.0,1
1331,1331,-0.3855153789428627,-0.4,1.0,0.0,371.0,754.0,0.0,0,805.0,1
1332,1332,-0.6581880086964891,-0.7,1.0,0.0,396.0,714.0,0.0,0,310.0,1
1333,1333,-0.3744718720141047,-0.4,0.0,1.0,471.0,702.0,1.0,0,137.0,1
1334,1334,0.6671366711012995,0.7,0.0,0.0,285.0,938.0,0.0,1,307.0,1
1335,1335,0.20111821386040052,0.2,1.0,1.0,443.0,812.0,1.0,1,135.0,1
1336,1336,-0.4705454809305105,-0.5,1.0,0.0,259.0,895.0,0.0,0,1436.0,1
1337,1337,-0.22901284603832306,-0.2,0.0,1.0,252.0,876.0,1.0,0,182.0,1
1338,1338,0.27027025991528986,0.3,1.0,1.0,270.0,578.0,1.0,1,162.0,1
1339,1339,0.6509327647763178,0.7,1.0,1.0,499.0,770.0,1.0,1,141.0,1
1340,1340,-0.31838893296833903,-0.3,1.0,0.0,462.0,635.0,0.0,0,1593.0,1
1341,1341,0.5431944091033899,0.5,0.0,0.0,468.0,813.0,0.0,1,1199.0,1
1342,1342,0.8922330553143526,0.9,1.0,1.0,289.0,513.0,1.0,1,318.0,1
1343,1343,0.12504287853052187,0.1,0.0,0.0,309.0,920.0,1.0,0,1511.0,0
1344,1344,0.49170563023497993,0.5,0.0,0.0,376.0,748.0,0.0,1,316.0,1
1345,1345,0.5651184653943949,0.6,0.0,0.0,480.0,862.0,0.0,1,348.0,1
1346,1346,0.7637801980697906,0.8,1.0,1.0,301.0,914.0,1.0,1,145.0,1
1347,1347,0.8513847154408928,0.9,1.0,1.0,344.0,944.0,1.0,1,202.0,1
1348,1348,0.031000699027172396,0.0,0.0,0.0,441.0,705.0,1.0,0,1854.0,0
1349,1349,-0.2051445624613587,-0.2,1.0,0.0,257.0,847.0,0.0,0,1726.0,1
1350,1350,0.7934560202393738,0.8,1.0,1.0,372.0,972.0,1.0,1,166.0,1
1351,1351,0.05104852724611808,0.1,1.0,1.0,416.0,820.0,1.0,1,1294.0,1
1352,1352,-0.5220962070333016,-0.5,1.0,0.0,317.0,829.0,0.0,0,554.0,1
1353,1353,-0.8777388885799439,-0.9,1.0,0.0,271.0,693.0,0.0,0,496.0,1
1354,1354,-0.30620182895640946,-0.3,1.0,0.0,473.0,974.0,0.0,0,1553.0,1
1355,1355,0.4695884018107458,0.5,0.0,0.0,381.0,982.0,0.0,1,367.0,1
1356,1356,-0.7113458587276419,-0.7,0.0,1.0,313.0,643.0,1.0,0,104.0,1
1357,1357,0.015794744268505023,0.0,1.0,1.0,296.0,677.0,1.0,1,1007.0,1
1358,1358,-0.21267530540701252,-0.2,0.0,1.0,373.0,625.0,1.0,0,1042.0,1
1359,1359,-0.40523476089515037,-0.4,0.0,1.0,315.0,946.0,1.0,0,459.0,1
1360,1360,0.595024462026304,0.6,0.0,0.0,486.0,602.0,0.0,1,332.0,1
1361,1361,0.041669169727337585,0.0,0.0,0.0,369.0,942.0,1.0,0,1679.0,0
1362,1362,0.7930376269840028,0.8,1.0,1.0,479.0,512.0,1.0,1,299.0,1
1363,1363,0.8220183030753435,0.8,1.0,1.0,398.0,862.0,1.0,1,270.0,1
1364,1364,-0.34192511619471444,-0.3,0.0,1.0,300.0,823.0,1.0,0,647.0,1
1365,1365,0.825374647964335,0.8,0.0,0.0,438.0,982.0,1.0,0,1580.0,0
1366,1366,-0.6362198403840609,-0.6,0.0,1.0,348.0,723.0,1.0,0,269.0,1
1367,1367,0.799990691205371,0.8,1.0,1.0,386.0,583.0,1.0,1,181.0,1
1368,1368,-0.19515185223783083,-0.2,1.0,0.0,318.0,711.0,1.0,1,1971.0,0
1369,1369,0.010987975016216622,0.0,0.0,0.0,450.0,747.0,1.0,0,553.0,0
1370,1370,0.5030588451011565,0.5,0.0,0.0,449.0,873.0,1.0,0,-442.0,0
1371,1371,-0.5757964879167883,-0.6,1.0,0.0,363.0,917.0,0.0,0,530.0,1
1372,1372,0.09540385269877627,0.1,0.0,0.0,365.0,693.0,1.0,0,1942.0,0
1373,1373,-0.4993887664709503,-0.5,1.0,0.0,394.0,842.0,0.0,0,444.0,1
1374,1374,0.0350010942956368,0.0,1.0,1.0,273.0,952.0,1.0,1,1555.0,1
1375,1375,-0.48301478385005914,-0.5,1.0,0.0,419.0,949.0,0.0,0,542.0,1
1376,1376,-0.8373824445160628,-0.8,0.0,1.0,300.0,868.0,1.0,0,252.0,1
1377,1377,0.8238231474918362,0.8,1.0,1.0,294.0,511.0,1.0,1,75.0,1
1378,1378,-0.7687607423000925,-0.8,0.0,1.0,452.0,850.0,1.0,0,128.0,1
1379,1379,0.34357829794182904,0.3,1.0,1.0,421.0,611.0,1.0,1,648.0,1
1380,1380,0.7975157992476204,0.8,0.0,0.0,434.0,766.0,0.0,1,140.0,1
1381,1381,-0.6238329744979296,-0.6,0.0,1.0,278.0,600.0,1.0,0,252.0,1
1382,1382,0.5713985227639554,0.6,0.0,0.0,324.0,501.0,0.0,1,755.0,1
1383,1383,0.5503938722293712,0.6,1.0,1.0,402.0,739.0,1.0,1,109.0,1
1384,1384,0.5452461348640766,0.5,1.0,1.0,458.0,850.0,1.0,1,142.0,1
1385,1385,-0.4476462887382521,-0.4,1.0,0.0,403.0,806.0,1.0,1,-399.0,0
1386,1386,-0.41139435854740186,-0.4,0.0,1.0,343.0,974.0,1.0,0,473.0,1
1387,1387,0.5846798794615052,0.6,0.0,0.0,441.0,815.0,0.0,1,134.0,1
1388,1388,-0.2898799457272059,-0.3,0.0,1.0,284.0,653.0,1.0,0,453.0,1
1389,1389,-0.22285920193213193,-0.2,1.0,0.0,454.0,738.0,0.0,0,1808.0,1
1390,1390,-0.69491577486371,-0.7,0.0,1.0,275.0,630.0,1.0,0,235.0,1
1391,1391,-0.7398399978759588,-0.7,1.0,0.0,408.0,625.0,0.0,0,377.0,1
1392,1392,0.33966945155568384,0.3,1.0,1.0,279.0,847.0,1.0,1,604.0,1
1393,1393,0.8302071420509222,0.8,0.0,0.0,451.0,532.0,0.0,1,227.0,1
1394,1394,-0.48277804137824115,-0.5,1.0,0.0,498.0,955.0,0.0,0,607.0,1
1395,1395,0.5837189498924288,0.6,1.0,1.0,259.0,581.0,1.0,1,120.0,1
1396,1396,-0.7131636384868304,-0.7,0.0,1.0,276.0,835.0,1.0,0,69.0,1
1397,1397,-0.8785468492526454,-0.9,0.0,1.0,372.0,951.0,1.0,0,217.0,1
1398,1398,0.63227364644413,0.6,0.0,0.0,313.0,609.0,0.0,1,298.0,1
1399,1399,-0.21203209465103623,-0.2,1.0,0.0,426.0,665.0,0.0,0,1909.0,1
1400,1400,-0.39756662134248133,-0.4,1.0,0.0,342.0,841.0,0.0,0,1037.0,1
1401,1401,-0.8622944460392863,-0.9,0.0,1.0,440.0,794.0,1.0,0,146.0,1
1402,1402,0.7175707185796315,0.7,0.0,0.0,472.0,959.0,0.0,1,229.0,1
1403,1403,0.684096232299014,0.7,0.0,0.0,464.0,977.0,0.0,1,609.0,1
1404,1404,0.8999209359429018,0.9,1.0,1.0,253.0,932.0,1.0,1,165.0,1
1405,1405,0.5713164865599342,0.6,1.0,1.0,317.0,799.0,1.0,1,144.0,1
1406,1406,0.5997946470928633,0.6,1.0,1.0,346.0,525.0,1.0,1,149.0,1
1407,1407,0.8513052261888506,0.9,0.0,0.0,432.0,874.0,1.0,0,1694.0,0
1408,1408,0.2815995687249363,0.3,1.0,1.0,295.0,956.0,1.0,1,309.0,1
1409,1409,0.18406711772805096,0.2,1.0,1.0,302.0,933.0,1.0,1,525.0,1
1410,1410,-0.8424401770134126,-0.8,0.0,1.0,414.0,651.0,1.0,0,305.0,1
1411,1411,0.32054279980751954,0.3,0.0,0.0,272.0,586.0,0.0,1,242.0,1
1412,1412,0.532633872779216,0.5,1.0,1.0,297.0,666.0,1.0,1,137.0,1
1413,1413,0.7607966967023801,0.8,1.0,1.0,355.0,978.0,1.0,1,147.0,1
1414,1414,-0.21727769450069612,-0.2,1.0,0.0,490.0,534.0,0.0,0,1976.0,1
1415,1415,-0.10174494790748023,-0.1,1.0,0.0,445.0,722.0,0.0,0,1833.0,1
1416,1416,-0.23962750957638457,-0.2,1.0,0.0,472.0,521.0,0.0,0,2007.0,1
1417,1417,0.0001620670950586156,0.0,0.0,0.0,303.0,503.0,1.0,0,1114.0,0
1418,1418,-0.5587465569983558,-0.6,1.0,0.0,284.0,967.0,0.0,0,339.0,1
1419,1419,-0.21687634439647485,-0.2,1.0,0.0,424.0,719.0,0.0,0,1857.0,1
1420,1420,0.8599786287079579,0.9,0.0,0.0,270.0,934.0,0.0,1,396.0,1
1421,1421,-0.1802614591794267,-0.2,0.0,1.0,287.0,676.0,1.0,0,277.0,1
1422,1422,-0.11744222733696585,-0.1,1.0,0.0,443.0,855.0,1.0,1,1702.0,0
1423,1423,0.06148897278522669,0.1,1.0,1.0,339.0,548.0,1.0,1,963.0,1
1424,1424,-0.38609536067646355,-0.4,1.0,0.0,457.0,882.0,0.0,0,981.0,1
1425,1425,0.1692779294154484,0.2,0.0,0.0,475.0,668.0,0.0,1,1857.0,1
1426,1426,0.87330051858907,0.9,1.0,1.0,460.0,810.0,1.0,1,90.0,1
1427,1427,0.7031411179337067,0.7,1.0,1.0,482.0,732.0,1.0,1,216.0,1
1428,1428,-0.22175033884819417,-0.2,1.0,0.0,287.0,811.0,0.0,0,1902.0,1
1429,1429,0.41167687997133384,0.4,0.0,0.0,437.0,972.0,0.0,1,871.0,1
1430,1430,-0.8492798259535984,-0.8,1.0,0.0,376.0,615.0,0.0,0,509.0,1
1431,1431,-0.026190135050297658,-0.0,0.0,1.0,463.0,518.0,1.0,0,1019.0,1
1432,1432,-0.5921528354057686,-0.6,0.0,1.0,343.0,876.0,1.0,0,411.0,1
1433,1433,-0.5800622667870472,-0.6,0.0,1.0,371.0,620.0,1.0,0,149.0,1
1434,1434,0.1786889576980718,0.2,1.0,1.0,282.0,850.0,1.0,1,108.0,1
1435,1435,-0.11178776303106008,-0.1,0.0,1.0,433.0,955.0,1.0,0,332.0,1
1436,1436,0.20026966464137452,0.2,0.0,0.0,435.0,647.0,0.0,1,938.0,1
1437,1437,0.5005441498229138,0.5,0.0,0.0,483.0,537.0,0.0,1,700.0,1
1438,1438,-0.27238603572271847,-0.3,1.0,0.0,336.0,628.0,0.0,0,2036.0,1
1439,1439,0.5312375858963244,0.5,1.0,1.0,344.0,996.0,1.0,1,-20.0,1
1440,1440,0.2535667179469082,0.3,0.0,0.0,397.0,746.0,0.0,1,687.0,1
1441,1441,-0.257165466413694,-0.3,1.0,0.0,365.0,918.0,0.0,0,1467.0,1
1442,1442,0.23753425868944766,0.2,0.0,0.0,486.0,997.0,0.0,1,947.0,1
1443,1443,-0.7858370225094492,-0.8,1.0,0.0,491.0,970.0,1.0,1,-91.0,0
1444,1444,-0.84423228933959,-0.8,1.0,0.0,411.0,942.0,0.0,0,307.0,1
1445,1445,0.41059302228437733,0.4,1.0,1.0,434.0,929.0,1.0,1,317.0,1
1446,1446,0.8861751528345133,0.9,0.0,0.0,299.0,986.0,1.0,0,-25.0,0
1447,1447,-0.582012588318616,-0.6,1.0,0.0,400.0,629.0,0.0,0,911.0,1
1448,1448,-0.6666317939781362,-0.7,1.0,0.0,499.0,537.0,0.0,0,154.0,1
1449,1449,-0.8181061911948374,-0.8,1.0,0.0,403.0,507.0,0.0,0,840.0,1
1450,1450,-0.39386712898215215,-0.4,1.0,0.0,360.0,771.0,0.0,0,1759.0,1
1451,1451,-0.3650252995931935,-0.4,1.0,0.0,347.0,978.0,0.0,0,1675.0,1
1452,1452,-0.4675086438845245,-0.5,0.0,1.0,431.0,860.0,1.0,0,189.0,1
1453,1453,-0.671490526190792,-0.7,0.0,1.0,428.0,605.0,1.0,0,137.0,1
1454,1454,0.8373864842030078,0.8,1.0,1.0,474.0,838.0,1.0,1,198.0,1
1455,1455,0.6297408779560977,0.6,1.0,1.0,461.0,600.0,1.0,1,279.0,1
1456,1456,-0.4185558397851265,-0.4,1.0,0.0,479.0,850.0,1.0,1,1.0,0
1457,1457,-0.11704788909649222,-0.1,1.0,0.0,279.0,626.0,1.0,1,2095.0,0
1458,1458,0.005078502690024078,0.0,0.0,0.0,264.0,538.0,1.0,0,1768.0,0
1459,1459,-0.8701388847806094,-0.9,1.0,0.0,357.0,675.0,0.0,0,488.0,1
1460,1460,-0.26431965770867316,-0.3,1.0,0.0,476.0,685.0,0.0,0,1829.0,1
1461,1461,-0.6187217322298971,-0.6,0.0,1.0,496.0,990.0,1.0,0,204.0,1
1462,1462,-0.6211873350469184,-0.6,1.0,0.0,257.0,551.0,0.0,0,662.0,1
1463,1463,0.7113646194812479,0.7,0.0,0.0,438.0,972.0,0.0,1,-70.0,1
1464,1464,-0.522931843995324,-0.5,1.0,0.0,399.0,732.0,0.0,0,359.0,1
1465,1465,-0.23374176898665622,-0.2,1.0,0.0,364.0,932.0,0.0,0,1704.0,1
1466,1466,0.5567933934114638,0.6,1.0,1.0,309.0,642.0,1.0,1,169.0,1
1467,1467,0.14287324784940203,0.1,0.0,0.0,475.0,579.0,0.0,1,1636.0,1
1468,1468,0.24818091644955953,0.2,0.0,0.0,358.0,632.0,0.0,1,2010.0,1
1469,1469,0.2679852446325631,0.3,0.0,0.0,397.0,602.0,0.0,1,1861.0,1
1470,1470,-0.8729016534234917,-0.9,0.0,1.0,416.0,813.0,1.0,0,211.0,1
1471,1471,0.2872389730236894,0.3,0.0,0.0,474.0,978.0,0.0,1,618.0,1
1472,1472,0.288103537366342,0.3,0.0,0.0,360.0,858.0,0.0,1,802.0,1
1473,1473,0.3920285313104469,0.4,0.0,0.0,492.0,581.0,0.0,1,397.0,1
1474,1474,0.19436938012261973,0.2,0.0,0.0,487.0,969.0,1.0,0,-66.0,0
1475,1475,0.8446657276342237,0.8,0.0,0.0,410.0,783.0,0.0,1,177.0,1
1476,1476,-0.06261451268620866,-0.1,0.0,1.0,296.0,830.0,1.0,0,1874.0,1
1477,1477,0.5547934537018538,0.6,1.0,1.0,255.0,727.0,1.0,1,98.0,1
1478,1478,-0.09126077508702435,-0.1,0.0,1.0,323.0,509.0,1.0,0,1008.0,1
1479,1479,0.2870980294924458,0.3,0.0,0.0,254.0,939.0,0.0,1,607.0,1
1480,1480,0.03599649733877519,0.0,0.0,0.0,366.0,915.0,1.0,0,1679.0,0
1481,1481,0.7336298351372131,0.7,0.0,0.0,450.0,960.0,0.0,1,1590.0,1
1482,1482,0.07504983054080638,0.1,1.0,1.0,269.0,509.0,1.0,1,762.0,1
1483,1483,-0.11389106187232323,-0.1,0.0,1.0,265.0,772.0,1.0,0,3.0,1
1484,1484,-0.29945350239493385,-0.3,1.0,0.0,321.0,792.0,0.0,0,1887.0,1
1485,1485,0.6216310759691889,0.6,1.0,1.0,349.0,693.0,1.0,1,198.0,1
1486,1486,-0.1491866138007727,-0.1,1.0,0.0,422.0,768.0,1.0,1,1810.0,0
1487,1487,0.272902048141077,0.3,1.0,1.0,475.0,763.0,1.0,1,342.0,1
1488,1488,-0.5770394449473573,-0.6,0.0,1.0,482.0,658.0,1.0,0,210.0,1
1489,1489,-0.8710430249450132,-0.9,1.0,0.0,265.0,941.0,0.0,0,384.0,1
