,trial,coherence,coherence_bin,green_side,correct_side,target_onset,checker_onset,decision,green_decision,decision_time,correct_decision
0,0,-0.7548015115908413,-0.8,0.0,1.0,421.0,897.0,1.0,0,162.0,1
1,1,0.7868947345220084,0.8,1.0,1.0,287.0,855.0,1.0,1,88.0,1
2,2,0.0845068664381553,0.1,0.0,0.0,464.0,740.0,0.0,1,1796.0,1
3,3,0.8072477707551226,0.8,1.0,1.0,452.0,977.0,1.0,1,81.0,1
4,4,0.5267038021445495,0.5,1.0,1.0,483.0,540.0,1.0,1,417.0,1
5,5,-0.7248037237427435,-0.7,0.0,1.0,305.0,858.0,1.0,0,107.0,1
6,6,0.4560205369907683,0.5,1.0,1.0,308.0,759.0,1.0,1,483.0,1
7,7,0.05430147261531493,0.1,0.0,0.0,286.0,661.0,1.0,0,483.0,0
8,8,0.21003282638236132,0.2,1.0,1.0,405.0,616.0,1.0,1,249.0,1
9,9,0.2081233216908508,0.2,1.0,1.0,431.0,553.0,1.0,1,676.0,1
10,10,0.5513704317779785,0.6,1.0,1.0,465.0,783.0,1.0,1,162.0,1
11,11,-0.32261978564080307,-0.3,0.0,1.0,365.0,519.0,1.0,0,346.0,1
12,12,-0.12955577255088213,-0.1,0.0,1.0,336.0,873.0,1.0,0,491.0,1
13,13,-0.4347767123914692,-0.4,0.0,1.0,287.0,811.0,1.0,0,162.0,1
14,14,0.6315270503587121,0.6,0.0,0.0,377.0,601.0,0.0,1,232.0,1
15,15,0.23575756157250705,0.2,0.0,0.0,351.0,748.0,0.0,1,471.0,1
16,16,-0.39250482664904307,-0.4,1.0,0.0,383.0,596.0,0.0,0,441.0,1
17,17,-0.47126994652112414,-0.5,1.0,0.0,473.0,736.0,0.0,0,181.0,1
18,18,0.32049213825361866,0.3,1.0,1.0,448.0,932.0,1.0,1,170.0,1
19,19,0.12231771611252806,0.1,0.0,0.0,361.0,674.0,0.0,1,595.0,1
20,20,-0.05026552905869397,-0.1,1.0,0.0,442.0,970.0,1.0,1,1588.0,0
21,21,0.7531423644740066,0.8,1.0,1.0,269.0,535.0,1.0,1,346.0,1
22,22,0.4205450944787362,0.4,0.0,0.0,423.0,530.0,0.0,1,457.0,1
23,23,0.3968344064586974,0.4,1.0,1.0,263.0,860.0,1.0,1,257.0,1
24,24,-0.3606007117795793,-0.4,1.0,0.0,256.0,712.0,0.0,0,412.0,1
25,25,-0.7351144295398241,-0.7,0.0,1.0,456.0,803.0,1.0,0,161.0,1
26,26,0.15003759078817247,0.2,1.0,1.0,438.0,521.0,1.0,1,981.0,1
27,27,0.3255888591670405,0.3,1.0,1.0,425.0,742.0,1.0,1,223.0,1
28,28,0.12172289972380967,0.1,0.0,0.0,252.0,971.0,0.0,1,1707.0,1
29,29,0.46805390315248385,0.5,1.0,1.0,411.0,671.0,1.0,1,258.0,1
30,30,-0.6505103984960852,-0.7,1.0,0.0,250.0,556.0,0.0,0,244.0,1
31,31,0.035695010875404165,0.0,1.0,1.0,335.0,673.0,1.0,1,332.0,1
32,32,0.5267566621705383,0.5,1.0,1.0,378.0,767.0,1.0,1,225.0,1
33,33,0.3233468818113977,0.3,0.0,0.0,269.0,722.0,0.0,1,269.0,1
34,34,0.3395399411236545,0.3,0.0,0.0,391.0,900.0,0.0,1,139.0,1
35,35,-0.365345913729317,-0.4,1.0,0.0,417.0,535.0,0.0,0,598.0,1
36,36,0.6972740252231525,0.7,1.0,1.0,422.0,661.0,1.0,1,157.0,1
37,37,0.5862152238760453,0.6,0.0,0.0,367.0,544.0,0.0,1,299.0,1
38,38,0.429838919270049,0.4,1.0,1.0,251.0,637.0,1.0,1,322.0,1
39,39,-0.8549605462030607,-0.9,1.0,0.0,477.0,744.0,0.0,0,309.0,1
40,40,-0.7567747952524223,-0.8,1.0,0.0,322.0,767.0,0.0,0,201.0,1
41,41,0.1341873494340452,0.1,1.0,1.0,454.0,654.0,1.0,1,522.0,1
42,42,-0.4633956294132721,-0.5,0.0,1.0,316.0,883.0,1.0,0,191.0,1
43,43,0.8877634012555536,0.9,1.0,1.0,448.0,753.0,1.0,1,79.0,1
44,44,0.5477962995091089,0.5,1.0,1.0,300.0,804.0,1.0,1,126.0,1
45,45,0.10586428983435459,0.1,0.0,0.0,414.0,695.0,0.0,1,1891.0,1
46,46,0.6118176510699681,0.6,1.0,1.0,265.0,596.0,1.0,1,219.0,1
47,47,0.7641566723527521,0.8,1.0,1.0,388.0,743.0,1.0,1,139.0,1
48,48,0.3532573516207623,0.4,0.0,0.0,328.0,681.0,0.0,1,331.0,1
49,49,0.833456352492114,0.8,0.0,0.0,425.0,757.0,0.0,1,158.0,1
50,50,0.4353722085068511,0.4,0.0,0.0,497.0,761.0,0.0,1,112.0,1
51,51,-0.8274053738781275,-0.8,1.0,0.0,333.0,842.0,0.0,0,125.0,1
52,52,-0.2666486672155499,-0.3,0.0,1.0,269.0,667.0,1.0,0,464.0,1
53,53,0.12629489215632794,0.1,0.0,0.0,273.0,778.0,0.0,1,1399.0,1
54,54,0.16809804031460562,0.2,1.0,1.0,281.0,770.0,1.0,1,319.0,1
55,55,0.6446875462822609,0.6,0.0,0.0,304.0,617.0,0.0,1,159.0,1
56,56,0.5374128911957449,0.5,1.0,1.0,365.0,957.0,1.0,1,98.0,1
57,57,-0.09113399219276785,-0.1,0.0,1.0,362.0,833.0,1.0,0,375.0,1
58,58,-0.46797953979895285,-0.5,1.0,0.0,266.0,949.0,0.0,0,185.0,1
59,59,-0.7509769022940245,-0.8,0.0,1.0,327.0,973.0,1.0,0,190.0,1
60,60,0.7647821263604445,0.8,0.0,0.0,499.0,644.0,0.0,1,227.0,1
61,61,-0.8528194174689907,-0.9,0.0,1.0,469.0,974.0,1.0,0,167.0,1
62,62,-0.8526228145173351,-0.9,0.0,1.0,294.0,517.0,1.0,0,319.0,1
63,63,-0.21334146183072045,-0.2,0.0,1.0,298.0,676.0,1.0,0,166.0,1
64,64,0.3137323925833361,0.3,1.0,1.0,342.0,917.0,1.0,1,271.0,1
65,65,-0.2663765353931651,-0.3,1.0,0.0,462.0,551.0,0.0,0,377.0,1
66,66,0.03529079902922039,0.0,1.0,1.0,324.0,684.0,1.0,1,922.0,1
67,67,-0.04688457929928613,-0.0,0.0,1.0,366.0,883.0,0.0,1,-179.0,0
68,68,0.2572375421395786,0.3,1.0,1.0,342.0,625.0,1.0,1,303.0,1
69,69,-0.11786165419741423,-0.1,1.0,0.0,455.0,582.0,0.0,0,1963.0,1
70,70,0.2745684233608686,0.3,1.0,1.0,303.0,879.0,1.0,1,148.0,1
71,71,0.2078380887822201,0.2,1.0,1.0,270.0,901.0,1.0,1,529.0,1
72,72,-0.15732491876098875,-0.2,0.0,1.0,341.0,810.0,1.0,0,389.0,1
73,73,0.8717695363203327,0.9,1.0,1.0,342.0,927.0,1.0,1,61.0,1
74,74,0.3531327735640716,0.4,0.0,0.0,340.0,829.0,0.0,1,121.0,1
75,75,0.24170210018369553,0.2,0.0,0.0,303.0,917.0,0.0,1,140.0,1
76,76,-0.7078465675473393,-0.7,0.0,1.0,301.0,975.0,1.0,0,124.0,1
77,77,-0.4036682438931473,-0.4,1.0,0.0,462.0,789.0,0.0,0,209.0,1
78,78,-0.24234299109457713,-0.2,1.0,0.0,456.0,584.0,0.0,0,490.0,1
79,79,-0.41197740899025176,-0.4,1.0,0.0,297.0,907.0,0.0,0,76.0,1
80,80,-0.6686475550086358,-0.7,0.0,1.0,407.0,753.0,1.0,0,210.0,1
81,81,-0.7323262310403309,-0.7,0.0,1.0,342.0,970.0,1.0,0,178.0,1
82,82,-0.34504450163188005,-0.3,0.0,1.0,495.0,910.0,1.0,0,135.0,1
83,83,-0.1514841127372809,-0.2,0.0,1.0,382.0,626.0,1.0,0,672.0,1
84,84,0.8785871732881546,0.9,1.0,1.0,379.0,985.0,1.0,1,116.0,1
85,85,0.22780704205850666,0.2,0.0,0.0,416.0,799.0,0.0,1,295.0,1
86,86,-0.3486086694629683,-0.3,0.0,1.0,266.0,976.0,1.0,0,98.0,1
87,87,0.39949424929782784,0.4,1.0,1.0,355.0,924.0,1.0,1,201.0,1
88,88,0.8426188879315438,0.8,1.0,1.0,270.0,618.0,1.0,1,142.0,1
89,89,-0.7348745759016592,-0.7,0.0,1.0,430.0,823.0,1.0,0,137.0,1
90,90,0.6993324567953,0.7,0.0,0.0,305.0,722.0,0.0,1,93.0,1
91,91,0.5208695333305843,0.5,0.0,0.0,401.0,531.0,0.0,1,358.0,1
92,92,0.6591836676602635,0.7,1.0,1.0,290.0,988.0,1.0,1,12.0,1
93,93,0.8523416223079473,0.9,0.0,0.0,458.0,777.0,0.0,1,95.0,1
94,94,0.41368792388057984,0.4,0.0,0.0,268.0,986.0,0.0,1,116.0,1
95,95,-0.09119765822475623,-0.1,1.0,0.0,287.0,522.0,0.0,0,2161.0,1
96,96,0.7478708069565386,0.7,0.0,0.0,256.0,806.0,0.0,1,148.0,1
97,97,0.7259584012416102,0.7,1.0,1.0,471.0,980.0,1.0,1,99.0,1
98,98,0.4950677388491814,0.5,1.0,1.0,459.0,712.0,1.0,1,199.0,1
99,99,0.26477190730567346,0.3,0.0,0.0,254.0,887.0,0.0,1,189.0,1
100,100,0.23140237785935514,0.2,1.0,1.0,453.0,790.0,1.0,1,227.0,1
101,101,0.4941832454572498,0.5,1.0,1.0,367.0,885.0,1.0,1,88.0,1
102,102,-0.11401067136186305,-0.1,0.0,1.0,487.0,875.0,1.0,0,448.0,1
103,103,0.556177036869539,0.6,1.0,1.0,425.0,967.0,1.0,1,178.0,1
104,104,0.7220014053386202,0.7,0.0,0.0,499.0,548.0,0.0,1,303.0,1
105,105,-0.8440378505467759,-0.8,0.0,1.0,268.0,721.0,1.0,0,151.0,1
106,106,0.5995723303199899,0.6,0.0,0.0,288.0,792.0,0.0,1,140.0,1
107,107,-0.1104037548741299,-0.1,0.0,1.0,360.0,940.0,1.0,0,660.0,1
108,108,-0.6687718633926445,-0.7,0.0,1.0,450.0,520.0,1.0,0,200.0,1
109,109,0.12172281314158673,0.1,0.0,0.0,418.0,704.0,0.0,1,1038.0,1
110,110,0.13480113621652812,0.1,1.0,1.0,284.0,822.0,1.0,1,324.0,1
111,111,-0.7184126991323029,-0.7,0.0,1.0,253.0,919.0,1.0,0,118.0,1
112,112,0.6920849786547322,0.7,1.0,1.0,406.0,581.0,1.0,1,483.0,1
113,113,-0.7724169139594727,-0.8,1.0,0.0,266.0,853.0,0.0,0,151.0,1
114,114,0.7024105031714466,0.7,0.0,0.0,466.0,778.0,0.0,1,116.0,1
115,115,0.3592518062002895,0.4,0.0,0.0,422.0,924.0,0.0,1,214.0,1
116,116,-0.48023062735427635,-0.5,1.0,0.0,487.0,766.0,0.0,0,297.0,1
117,117,-0.4864170763323652,-0.5,0.0,1.0,404.0,999.0,1.0,0,167.0,1
118,118,-0.4618331910151077,-0.5,1.0,0.0,303.0,614.0,0.0,0,423.0,1
119,119,0.3786253298879346,0.4,1.0,1.0,356.0,948.0,1.0,1,216.0,1
120,120,0.5737927978399676,0.6,0.0,0.0,255.0,867.0,0.0,1,78.0,1
121,121,-0.7333089429445437,-0.7,1.0,0.0,261.0,947.0,0.0,0,92.0,1
122,122,0.7387623537165245,0.7,1.0,1.0,490.0,852.0,1.0,1,168.0,1
123,123,0.691532742587249,0.7,1.0,1.0,292.0,795.0,1.0,1,203.0,1
124,124,0.8823706308435163,0.9,1.0,1.0,338.0,595.0,1.0,1,207.0,1
125,125,-0.06529040783728557,-0.1,0.0,1.0,365.0,830.0,1.0,0,515.0,1
126,126,-0.369641238828593,-0.4,1.0,0.0,499.0,517.0,0.0,0,234.0,1
127,127,-0.21289800362031486,-0.2,0.0,1.0,452.0,967.0,1.0,0,491.0,1
128,128,0.8780463878796235,0.9,0.0,0.0,471.0,933.0,0.0,1,206.0,1
129,129,0.5574946519217477,0.6,0.0,0.0,273.0,632.0,0.0,1,575.0,1
130,130,0.8616363040014986,0.9,1.0,1.0,369.0,814.0,1.0,1,177.0,1
131,131,-0.10560641395007564,-0.1,1.0,0.0,432.0,591.0,0.0,0,1977.0,1
132,132,0.26320853321126536,0.3,0.0,0.0,303.0,552.0,0.0,1,765.0,1
133,133,-0.6739093275269588,-0.7,0.0,1.0,403.0,837.0,1.0,0,390.0,1
134,134,0.2972328174435489,0.3,1.0,1.0,372.0,735.0,1.0,1,173.0,1
135,135,0.8826889705404503,0.9,0.0,0.0,380.0,662.0,0.0,1,208.0,1
136,136,0.3972092896026397,0.4,0.0,0.0,402.0,695.0,0.0,1,223.0,1
137,137,-0.817818490130202,-0.8,1.0,0.0,393.0,826.0,0.0,0,151.0,1
138,138,-0.5798389545539212,-0.6,0.0,1.0,318.0,621.0,1.0,0,341.0,1
139,139,0.09494181545754976,0.1,0.0,0.0,388.0,820.0,0.0,1,1272.0,1
140,140,-0.18738705630269348,-0.2,0.0,1.0,327.0,724.0,1.0,0,179.0,1
141,141,-0.8416417584779107,-0.8,0.0,1.0,440.0,710.0,1.0,0,250.0,1
142,142,-0.829192582690032,-0.8,0.0,1.0,399.0,806.0,1.0,0,215.0,1
143,143,0.38411895489219827,0.4,1.0,1.0,374.0,751.0,1.0,1,305.0,1
144,144,0.736625277656438,0.7,1.0,1.0,441.0,742.0,1.0,1,377.0,1
145,145,0.0961095895851265,0.1,0.0,0.0,335.0,731.0,1.0,0,1934.0,0
146,146,0.06551002777212755,0.1,0.0,0.0,316.0,962.0,1.0,0,1272.0,0
147,147,0.8776136684918049,0.9,0.0,0.0,366.0,743.0,0.0,1,161.0,1
148,148,-0.7046042563523057,-0.7,1.0,0.0,311.0,671.0,0.0,0,168.0,1
149,149,-0.5606751651871058,-0.6,1.0,0.0,412.0,518.0,0.0,0,160.0,1
150,150,-0.4270789733680327,-0.4,0.0,1.0,350.0,657.0,1.0,0,543.0,1
151,151,0.21950874045989577,0.2,0.0,0.0,489.0,794.0,0.0,1,217.0,1
152,152,0.19196353681673972,0.2,0.0,0.0,330.0,966.0,0.0,1,1554.0,1
153,153,-0.4216581347052909,-0.4,0.0,1.0,447.0,757.0,1.0,0,266.0,1
154,154,0.6316441948849115,0.6,0.0,0.0,321.0,507.0,0.0,1,282.0,1
155,155,0.7301954732707031,0.7,1.0,1.0,314.0,901.0,1.0,1,55.0,1
156,156,0.4485756962610251,0.4,0.0,0.0,430.0,998.0,0.0,1,62.0,1
157,157,0.520857180802866,0.5,0.0,0.0,367.0,752.0,0.0,1,181.0,1
158,158,0.64005680086377,0.6,0.0,0.0,438.0,715.0,0.0,1,127.0,1
159,159,-0.0639210029455467,-0.1,0.0,1.0,357.0,627.0,1.0,0,836.0,1
160,160,0.5571708740051265,0.6,0.0,0.0,338.0,800.0,0.0,1,172.0,1
161,161,-0.5735333066756688,-0.6,0.0,1.0,419.0,947.0,1.0,0,104.0,1
162,162,-0.849406576573319,-0.8,0.0,1.0,472.0,632.0,1.0,0,196.0,1
163,163,0.37522953633798484,0.4,0.0,0.0,471.0,505.0,0.0,1,264.0,1
164,164,0.07487816720349583,0.1,0.0,0.0,297.0,978.0,1.0,0,1725.0,0
165,165,-0.8930131320015489,-0.9,1.0,0.0,406.0,547.0,0.0,0,197.0,1
166,166,0.6755496092823491,0.7,0.0,0.0,409.0,928.0,0.0,1,113.0,1
167,167,-0.7267399531072843,-0.7,1.0,0.0,469.0,677.0,0.0,0,224.0,1
168,168,0.6804037281281893,0.7,1.0,1.0,281.0,711.0,1.0,1,298.0,1
169,169,0.07113655840138788,0.1,1.0,1.0,482.0,794.0,1.0,1,504.0,1
170,170,-0.8244773103689658,-0.8,0.0,1.0,280.0,660.0,1.0,0,120.0,1
171,171,-0.6825366674999092,-0.7,0.0,1.0,358.0,533.0,1.0,0,219.0,1
172,172,0.10211149752715076,0.1,1.0,1.0,463.0,973.0,1.0,1,314.0,1
173,173,0.36990669915280006,0.4,0.0,0.0,373.0,544.0,0.0,1,253.0,1
174,174,0.7545184320693404,0.8,0.0,0.0,259.0,631.0,0.0,1,130.0,1
175,175,-0.17737049713582698,-0.2,1.0,0.0,263.0,803.0,0.0,0,234.0,1
176,176,0.12841403717568733,0.1,0.0,0.0,366.0,656.0,0.0,1,808.0,1
177,177,-0.14908831753072416,-0.1,0.0,1.0,271.0,737.0,1.0,0,652.0,1
178,178,-0.2376013117846082,-0.2,1.0,0.0,332.0,736.0,0.0,0,282.0,1
179,179,0.6730011455175066,0.7,0.0,0.0,474.0,837.0,0.0,1,129.0,1
180,180,-0.37696927116249224,-0.4,0.0,1.0,352.0,641.0,1.0,0,117.0,1
181,181,-0.3380437795156923,-0.3,1.0,0.0,289.0,968.0,0.0,0,363.0,1
182,182,-0.05984316637539622,-0.1,0.0,1.0,353.0,750.0,1.0,0,847.0,1
183,183,0.33458817768851745,0.3,1.0,1.0,369.0,740.0,1.0,1,381.0,1
184,184,-0.5413012008777487,-0.5,1.0,0.0,408.0,891.0,0.0,0,181.0,1
185,185,-0.21878394514473976,-0.2,0.0,1.0,438.0,908.0,1.0,0,174.0,1
186,186,-0.5805900021944841,-0.6,1.0,0.0,341.0,663.0,0.0,0,216.0,1
187,187,0.2664907155243751,0.3,0.0,0.0,388.0,511.0,0.0,1,611.0,1
188,188,0.7627986153939567,0.8,0.0,0.0,330.0,761.0,0.0,1,139.0,1
189,189,-0.11913176563715433,-0.1,1.0,0.0,382.0,969.0,0.0,0,189.0,1
190,190,-0.8450838144879349,-0.8,0.0,1.0,270.0,581.0,1.0,0,329.0,1
191,191,0.3960189628616523,0.4,1.0,1.0,363.0,623.0,1.0,1,634.0,1
192,192,-0.11517314267345202,-0.1,1.0,0.0,347.0,772.0,0.0,0,921.0,1
193,193,-0.00480883700808854,-0.0,0.0,1.0,443.0,987.0,1.0,0,740.0,1
194,194,0.02499792880259777,0.0,0.0,0.0,267.0,971.0,1.0,0,372.0,0
195,195,-0.7175384163777632,-0.7,0.0,1.0,407.0,651.0,1.0,0,122.0,1
196,196,0.6195830142175519,0.6,0.0,0.0,485.0,743.0,0.0,1,162.0,1
197,197,-0.23453789200167985,-0.2,1.0,0.0,354.0,786.0,0.0,0,160.0,1
198,198,-0.11130328257114519,-0.1,1.0,0.0,411.0,887.0,0.0,0,1702.0,1
199,199,-0.041207508250614144,-0.0,1.0,0.0,275.0,749.0,0.0,0,1976.0,1
200,200,0.5577656527635494,0.6,0.0,0.0,353.0,641.0,0.0,1,166.0,1
201,201,-0.284737596929568,-0.3,0.0,1.0,488.0,501.0,1.0,0,361.0,1
202,202,0.03381598049658763,0.0,0.0,0.0,474.0,809.0,1.0,0,1487.0,0
203,203,-0.4560196985919416,-0.5,0.0,1.0,261.0,524.0,1.0,0,215.0,1
204,204,-0.6027883226250066,-0.6,0.0,1.0,497.0,838.0,1.0,0,245.0,1
205,205,-0.7241135777069873,-0.7,0.0,1.0,474.0,849.0,1.0,0,247.0,1
206,206,-0.21867167637100826,-0.2,1.0,0.0,336.0,600.0,0.0,0,464.0,1
207,207,0.8432925464793227,0.8,1.0,1.0,404.0,856.0,1.0,1,130.0,1
208,208,-0.1782695182352192,-0.2,1.0,0.0,436.0,560.0,0.0,0,504.0,1
209,209,0.7449129159921047,0.7,1.0,1.0,464.0,573.0,1.0,1,273.0,1
210,210,-0.11254141212558089,-0.1,0.0,1.0,262.0,924.0,1.0,0,334.0,1
211,211,-0.47430937812170876,-0.5,0.0,1.0,293.0,939.0,1.0,0,108.0,1
212,212,0.27065717157940494,0.3,0.0,0.0,363.0,646.0,0.0,1,161.0,1
213,213,-0.2567982602737362,-0.3,0.0,1.0,491.0,581.0,1.0,0,238.0,1
214,214,0.8859616017586104,0.9,0.0,0.0,265.0,668.0,0.0,1,157.0,1
215,215,0.14948161915849723,0.1,0.0,0.0,300.0,793.0,0.0,1,467.0,1
216,216,0.3207946656996178,0.3,0.0,0.0,440.0,838.0,0.0,1,242.0,1
217,217,0.6282397768607774,0.6,1.0,1.0,423.0,903.0,1.0,1,164.0,1
218,218,0.8649346560483889,0.9,0.0,0.0,395.0,665.0,0.0,1,110.0,1
219,219,-0.4669964121640981,-0.5,1.0,0.0,364.0,631.0,0.0,0,275.0,1
220,220,0.23939403278783355,0.2,0.0,0.0,332.0,786.0,0.0,1,332.0,1
221,221,-0.6360679674096541,-0.6,1.0,0.0,254.0,954.0,0.0,0,202.0,1
222,222,0.6464115194848533,0.6,0.0,0.0,283.0,831.0,0.0,1,76.0,1
223,223,-0.21784838083687297,-0.2,1.0,0.0,373.0,761.0,0.0,0,296.0,1
224,224,-0.09034818354851215,-0.1,1.0,0.0,291.0,719.0,0.0,0,1990.0,1
225,225,0.6662038418555462,0.7,1.0,1.0,468.0,920.0,1.0,1,102.0,1
226,226,-0.092484591782938,-0.1,1.0,0.0,420.0,994.0,0.0,0,1586.0,1
227,227,0.8651930771966289,0.9,0.0,0.0,423.0,551.0,0.0,1,206.0,1
228,228,0.34284976574463377,0.3,1.0,1.0,338.0,672.0,1.0,1,520.0,1
229,229,-0.8591225132376188,-0.9,0.0,1.0,476.0,948.0,1.0,0,136.0,1
230,230,0.12595324061089352,0.1,1.0,1.0,434.0,815.0,1.0,1,591.0,1
231,231,-0.3014711658927709,-0.3,0.0,1.0,297.0,958.0,1.0,0,155.0,1
232,232,-0.8980970973714181,-0.9,0.0,1.0,458.0,588.0,1.0,0,314.0,1
233,233,0.8873653297436223,0.9,0.0,0.0,330.0,609.0,0.0,1,161.0,1
234,234,-0.4474455661538105,-0.4,0.0,1.0,396.0,786.0,1.0,0,238.0,1
235,235,-0.6527593242663196,-0.7,0.0,1.0,396.0,966.0,1.0,0,108.0,1
236,236,0.22000330989375338,0.2,0.0,0.0,440.0,646.0,0.0,1,1244.0,1
237,237,0.1682033183158297,0.2,1.0,1.0,423.0,809.0,1.0,1,98.0,1
238,238,0.8894601359220388,0.9,1.0,1.0,468.0,711.0,1.0,1,51.0,1
239,239,-0.5629992469140559,-0.6,0.0,1.0,318.0,982.0,1.0,0,70.0,1
240,240,0.5278145856642437,0.5,0.0,0.0,348.0,842.0,0.0,1,350.0,1
241,241,-0.24531791117853363,-0.2,0.0,1.0,460.0,509.0,1.0,0,851.0,1
242,242,0.6860527168563711,0.7,1.0,1.0,442.0,719.0,1.0,1,269.0,1
243,243,-0.47418358275410594,-0.5,1.0,0.0,298.0,692.0,0.0,0,270.0,1
244,244,0.8496069599840909,0.8,0.0,0.0,322.0,766.0,0.0,1,122.0,1
245,245,0.26336872278946555,0.3,0.0,0.0,402.0,883.0,0.0,1,515.0,1
246,246,-0.41532276632052206,-0.4,1.0,0.0,425.0,937.0,0.0,0,178.0,1
247,247,-0.8874627250922075,-0.9,0.0,1.0,474.0,983.0,1.0,0,163.0,1
248,248,0.40310688790718496,0.4,0.0,0.0,341.0,626.0,0.0,1,203.0,1
249,249,0.40548444229168334,0.4,0.0,0.0,298.0,839.0,0.0,1,233.0,1
250,250,-0.6830898035314474,-0.7,1.0,0.0,449.0,550.0,0.0,0,191.0,1
251,251,-0.31302830528799264,-0.3,0.0,1.0,305.0,539.0,1.0,0,626.0,1
252,252,0.1621456164211016,0.2,0.0,0.0,391.0,582.0,0.0,1,817.0,1
253,253,0.7505864812701627,0.8,0.0,0.0,485.0,852.0,0.0,1,113.0,1
254,254,0.35061130020221654,0.4,0.0,0.0,322.0,602.0,0.0,1,326.0,1
255,255,-0.82049981127711,-0.8,1.0,0.0,394.0,743.0,0.0,0,183.0,1
256,256,0.6327572519084576,0.6,0.0,0.0,401.0,999.0,0.0,1,140.0,1
257,257,-0.737825901497486,-0.7,0.0,1.0,305.0,527.0,1.0,0,258.0,1
258,258,-0.051564000935226395,-0.1,1.0,0.0,270.0,613.0,1.0,1,917.0,0
259,259,0.4076963028677939,0.4,1.0,1.0,477.0,961.0,1.0,1,262.0,1
260,260,-0.7286664136532404,-0.7,1.0,0.0,424.0,877.0,0.0,0,99.0,1
261,261,0.22765106536722957,0.2,0.0,0.0,320.0,661.0,0.0,1,729.0,1
262,262,-0.3232198616938504,-0.3,1.0,0.0,384.0,867.0,0.0,0,189.0,1
263,263,-0.49925740105168603,-0.5,1.0,0.0,367.0,731.0,0.0,0,172.0,1
264,264,0.8551420468891439,0.9,1.0,1.0,283.0,881.0,1.0,1,116.0,1
265,265,0.49657596527849324,0.5,0.0,0.0,489.0,644.0,0.0,1,427.0,1
266,266,-0.3764208550771463,-0.4,0.0,1.0,284.0,975.0,1.0,0,211.0,1
267,267,-0.4623460671952953,-0.5,0.0,1.0,396.0,815.0,1.0,0,339.0,1
268,268,0.0064849423654496086,0.0,1.0,1.0,272.0,520.0,1.0,1,1188.0,1
269,269,0.7097648115835927,0.7,1.0,1.0,455.0,707.0,1.0,1,178.0,1
270,270,0.6309149690027239,0.6,1.0,1.0,419.0,705.0,1.0,1,246.0,1
271,271,-0.6383999232947821,-0.6,0.0,1.0,353.0,587.0,1.0,0,210.0,1
272,272,-0.6341476601905982,-0.6,1.0,0.0,488.0,832.0,0.0,0,160.0,1
273,273,-0.7233346504805361,-0.7,0.0,1.0,484.0,945.0,1.0,0,131.0,1
274,274,0.21671095889126135,0.2,0.0,0.0,427.0,704.0,0.0,1,449.0,1
275,275,-0.15441294601097078,-0.2,1.0,0.0,250.0,843.0,0.0,0,337.0,1
276,276,-0.47836480303873946,-0.5,1.0,0.0,453.0,652.0,0.0,0,225.0,1
277,277,-0.6106071592072362,-0.6,0.0,1.0,316.0,982.0,1.0,0,142.0,1
278,278,0.7353070199694688,0.7,1.0,1.0,251.0,899.0,1.0,1,150.0,1
279,279,-0.10672221862288012,-0.1,1.0,0.0,380.0,814.0,0.0,0,316.0,1
280,280,0.42384694104614773,0.4,1.0,1.0,346.0,801.0,1.0,1,133.0,1
281,281,0.4875189221778492,0.5,0.0,0.0,476.0,546.0,0.0,1,358.0,1
282,282,-0.7979954838037665,-0.8,1.0,0.0,487.0,622.0,0.0,0,161.0,1
283,283,0.203233766323076,0.2,1.0,1.0,465.0,963.0,1.0,1,122.0,1
284,284,-0.6201838669394397,-0.6,1.0,0.0,273.0,636.0,0.0,0,201.0,1
285,285,0.1842854741814025,0.2,1.0,1.0,280.0,976.0,1.0,1,194.0,1
286,286,-0.7430318396770588,-0.7,0.0,1.0,332.0,728.0,1.0,0,110.0,1
287,287,-0.1594534535660681,-0.2,1.0,0.0,407.0,990.0,1.0,1,453.0,0
288,288,-0.19453049751645823,-0.2,1.0,0.0,308.0,834.0,0.0,0,758.0,1
289,289,-0.49852960140146163,-0.5,0.0,1.0,435.0,533.0,1.0,0,622.0,1
290,290,-0.7885556806872869,-0.8,0.0,1.0,495.0,547.0,1.0,0,268.0,1
291,291,-0.3501191704322818,-0.4,1.0,0.0,264.0,817.0,0.0,0,269.0,1
292,292,-0.685125234370062,-0.7,0.0,1.0,274.0,760.0,1.0,0,206.0,1
293,293,-0.43271435730538793,-0.4,1.0,0.0,313.0,599.0,0.0,0,248.0,1
294,294,0.3228255251318294,0.3,0.0,0.0,492.0,625.0,0.0,1,363.0,1
295,295,0.08008626044535716,0.1,0.0,0.0,362.0,867.0,0.0,1,781.0,1
296,296,0.271061787438703,0.3,0.0,0.0,412.0,974.0,0.0,1,464.0,1
297,297,0.749832795181017,0.7,1.0,1.0,300.0,624.0,1.0,1,226.0,1
298,298,0.5786815362638121,0.6,1.0,1.0,445.0,704.0,1.0,1,231.0,1
299,299,-0.4010801218582901,-0.4,1.0,0.0,347.0,908.0,0.0,0,195.0,1
300,300,0.49706582083900985,0.5,0.0,0.0,298.0,891.0,0.0,1,181.0,1
301,301,-0.7877913712858717,-0.8,0.0,1.0,320.0,909.0,1.0,0,251.0,1
302,302,0.3791295296501168,0.4,0.0,0.0,290.0,743.0,0.0,1,317.0,1
303,303,0.4311707173737903,0.4,1.0,1.0,478.0,614.0,1.0,1,268.0,1
304,304,0.18975194853205657,0.2,0.0,0.0,454.0,817.0,0.0,1,419.0,1
305,305,-0.7700519106291916,-0.8,1.0,0.0,387.0,903.0,0.0,0,110.0,1
306,306,0.8216574030959013,0.8,1.0,1.0,484.0,997.0,1.0,1,169.0,1
307,307,0.04025470765666417,0.0,0.0,0.0,480.0,652.0,0.0,1,1868.0,1
308,308,-0.5807453088833185,-0.6,1.0,0.0,460.0,782.0,0.0,0,218.0,1
309,309,-0.7214978784970064,-0.7,0.0,1.0,444.0,868.0,1.0,0,208.0,1
310,310,-0.6450472853964815,-0.6,1.0,0.0,398.0,890.0,0.0,0,152.0,1
311,311,-0.5885738662330224,-0.6,1.0,0.0,357.0,604.0,0.0,0,199.0,1
312,312,0.46227802695152753,0.5,0.0,0.0,438.0,603.0,0.0,1,319.0,1
313,313,0.29961140854281043,0.3,1.0,1.0,278.0,568.0,1.0,1,414.0,1
314,314,0.7702556256647527,0.8,1.0,1.0,384.0,737.0,1.0,1,129.0,1
315,315,0.4151817057015704,0.4,1.0,1.0,379.0,884.0,1.0,1,157.0,1
316,316,0.1407067623290542,0.1,0.0,0.0,401.0,730.0,0.0,1,659.0,1
317,317,-0.6629168313930933,-0.7,1.0,0.0,434.0,971.0,0.0,0,155.0,1
318,318,-0.7795804996915586,-0.8,1.0,0.0,266.0,967.0,0.0,0,187.0,1
319,319,0.7700999117151693,0.8,1.0,1.0,354.0,601.0,1.0,1,355.0,1
320,320,0.053710694046571805,0.1,1.0,1.0,381.0,998.0,1.0,1,31.0,1
321,321,-0.05621865043543173,-0.1,1.0,0.0,277.0,683.0,1.0,1,2040.0,0
322,322,-0.7989472773434665,-0.8,1.0,0.0,288.0,910.0,0.0,0,162.0,1
323,323,-0.20817346194166042,-0.2,1.0,0.0,472.0,675.0,0.0,0,373.0,1
324,324,0.590850980166718,0.6,1.0,1.0,449.0,864.0,1.0,1,137.0,1
325,325,0.7015552735711427,0.7,1.0,1.0,356.0,809.0,1.0,1,375.0,1
326,326,0.6213930375786335,0.6,0.0,0.0,357.0,797.0,0.0,1,186.0,1
327,327,-0.7652059807105905,-0.8,1.0,0.0,452.0,873.0,0.0,0,155.0,1
328,328,-0.20506409100070266,-0.2,1.0,0.0,449.0,574.0,0.0,0,647.0,1
329,329,0.3379446895734314,0.3,1.0,1.0,297.0,702.0,1.0,1,661.0,1
330,330,-0.07565320811125409,-0.1,0.0,1.0,474.0,902.0,1.0,0,584.0,1
331,331,0.007729096597719476,0.0,1.0,1.0,304.0,528.0,1.0,1,738.0,1
332,332,0.6528879289210404,0.7,0.0,0.0,296.0,501.0,0.0,1,213.0,1
333,333,-0.6745338412825254,-0.7,0.0,1.0,304.0,833.0,1.0,0,243.0,1
334,334,-0.6530552531256246,-0.7,1.0,0.0,482.0,977.0,0.0,0,201.0,1
335,335,0.8676971973125748,0.9,1.0,1.0,466.0,714.0,1.0,1,200.0,1
336,336,-0.049861624230319146,-0.0,0.0,1.0,323.0,586.0,1.0,0,581.0,1
337,337,-0.04335148433983904,-0.0,0.0,1.0,305.0,875.0,1.0,0,740.0,1
338,338,0.15022411609070285,0.2,0.0,0.0,381.0,788.0,0.0,1,651.0,1
339,339,-0.3419572060935998,-0.3,1.0,0.0,479.0,684.0,0.0,0,367.0,1
340,340,-0.8773840462332267,-0.9,1.0,0.0,461.0,937.0,0.0,0,182.0,1
341,341,0.3210845882241148,0.3,0.0,0.0,346.0,675.0,0.0,1,229.0,1
342,342,0.4022119076612197,0.4,0.0,0.0,343.0,645.0,0.0,1,222.0,1
343,343,0.8069483200443069,0.8,0.0,0.0,417.0,860.0,0.0,1,123.0,1
344,344,-0.018588310614889858,-0.0,0.0,1.0,470.0,929.0,1.0,0,601.0,1
345,345,-0.002284148530036001,-0.0,1.0,0.0,455.0,546.0,1.0,1,289.0,0
346,346,0.13275414691651866,0.1,0.0,0.0,406.0,630.0,0.0,1,424.0,1
347,347,-0.8515752359794135,-0.9,1.0,0.0,251.0,952.0,0.0,0,117.0,1
348,348,0.24201058772293227,0.2,0.0,0.0,417.0,867.0,0.0,1,186.0,1
349,349,0.8932123981447085,0.9,0.0,0.0,396.0,857.0,0.0,1,107.0,1
350,350,0.12952092968403928,0.1,1.0,1.0,268.0,635.0,1.0,1,427.0,1
351,351,-0.7151963830553894,-0.7,0.0,1.0,438.0,790.0,1.0,0,132.0,1
352,352,-0.12765632066542598,-0.1,1.0,0.0,395.0,742.0,0.0,0,1733.0,1
353,353,-0.7908819422023577,-0.8,1.0,0.0,480.0,991.0,0.0,0,219.0,1
354,354,0.08973217104130982,0.1,0.0,0.0,496.0,713.0,0.0,1,1791.0,1
355,355,0.619795646321199,0.6,0.0,0.0,446.0,966.0,0.0,1,108.0,1
356,356,-0.5372947686077323,-0.5,0.0,1.0,449.0,947.0,1.0,0,174.0,1
357,357,0.06511321013977867,0.1,1.0,1.0,269.0,763.0,1.0,1,518.0,1
358,358,-0.65136450945649,-0.7,0.0,1.0,413.0,819.0,1.0,0,178.0,1
359,359,0.8114143908842687,0.8,1.0,1.0,445.0,603.0,1.0,1,322.0,1
360,360,-0.59395932757413,-0.6,0.0,1.0,380.0,944.0,1.0,0,436.0,1
361,361,0.14134079109032338,0.1,1.0,1.0,417.0,900.0,1.0,1,173.0,1
362,362,-0.42096236993615554,-0.4,0.0,1.0,263.0,518.0,1.0,0,539.0,1
363,363,0.4555909842518101,0.5,0.0,0.0,361.0,911.0,0.0,1,198.0,1
364,364,0.40944471184073683,0.4,0.0,0.0,469.0,678.0,0.0,1,213.0,1
365,365,-0.09569166950692087,-0.1,1.0,0.0,330.0,709.0,0.0,0,1961.0,1
366,366,0.73708514403641,0.7,1.0,1.0,284.0,892.0,1.0,1,-186.0,1
367,367,-0.4732651506451067,-0.5,0.0,1.0,389.0,608.0,1.0,0,233.0,1
368,368,0.7037625299249816,0.7,1.0,1.0,349.0,883.0,1.0,1,38.0,1
369,369,0.1079034181264974,0.1,0.0,0.0,474.0,696.0,0.0,1,720.0,1
370,370,-0.654836010316863,-0.7,0.0,1.0,365.0,892.0,1.0,0,73.0,1
371,371,-0.3113162231689568,-0.3,0.0,1.0,330.0,841.0,1.0,0,389.0,1
372,372,-0.6274296993030939,-0.6,1.0,0.0,391.0,704.0,0.0,0,215.0,1
373,373,-0.5508596792281776,-0.6,1.0,0.0,434.0,850.0,0.0,0,186.0,1
374,374,-0.7101877076642249,-0.7,0.0,1.0,291.0,655.0,1.0,0,314.0,1
375,375,-0.1742115698948028,-0.2,1.0,0.0,365.0,664.0,0.0,0,561.0,1
376,376,0.4811677646993163,0.5,0.0,0.0,298.0,756.0,0.0,1,286.0,1
377,377,-0.8332671297039319,-0.8,0.0,1.0,369.0,511.0,1.0,0,350.0,1
378,378,-0.6110991540439557,-0.6,0.0,1.0,492.0,952.0,1.0,0,136.0,1
379,379,0.630145198063799,0.6,0.0,0.0,470.0,830.0,0.0,1,150.0,1
380,380,-0.7822324986625645,-0.8,1.0,0.0,410.0,554.0,0.0,0,346.0,1
381,381,0.6975147357069357,0.7,0.0,0.0,262.0,703.0,0.0,1,195.0,1
382,382,-0.163988574599495,-0.2,1.0,0.0,276.0,678.0,0.0,0,1046.0,1
383,383,0.6934678660027379,0.7,1.0,1.0,305.0,659.0,1.0,1,226.0,1
384,384,-0.3793253166847914,-0.4,0.0,1.0,273.0,995.0,1.0,0,62.0,1
385,385,0.13527057397381748,0.1,1.0,1.0,420.0,594.0,1.0,1,596.0,1
386,386,-0.3281419984912559,-0.3,0.0,1.0,498.0,726.0,1.0,0,176.0,1
387,387,-0.2749282333352353,-0.3,1.0,0.0,496.0,901.0,0.0,0,413.0,1
388,388,-0.7765471665470409,-0.8,1.0,0.0,270.0,763.0,0.0,0,207.0,1
389,389,0.11825403987909533,0.1,0.0,0.0,491.0,675.0,0.0,1,484.0,1
390,390,0.6568310398775729,0.7,0.0,0.0,449.0,803.0,0.0,1,98.0,1
391,391,0.013160698939257531,0.0,0.0,0.0,456.0,546.0,1.0,0,1998.0,0
392,392,-0.6234847880670559,-0.6,0.0,1.0,437.0,787.0,1.0,0,186.0,1
393,393,0.4933934526872569,0.5,1.0,1.0,424.0,836.0,1.0,1,200.0,1
394,394,-0.7563453133241238,-0.8,0.0,1.0,362.0,935.0,1.0,0,183.0,1
395,395,0.08983199071082892,0.1,1.0,1.0,372.0,883.0,1.0,1,195.0,1
396,396,-0.7102260593780017,-0.7,0.0,1.0,362.0,566.0,1.0,0,302.0,1
397,397,0.8740039825943858,0.9,0.0,0.0,391.0,997.0,0.0,1,102.0,1
398,398,0.8065584273237422,0.8,0.0,0.0,264.0,723.0,0.0,1,193.0,1
399,399,0.14475217372090488,0.1,0.0,0.0,333.0,823.0,0.0,1,1154.0,1
400,400,-0.4120261868842945,-0.4,0.0,1.0,349.0,563.0,1.0,0,248.0,1
401,401,0.4740860284993621,0.5,0.0,0.0,453.0,895.0,0.0,1,122.0,1
402,402,0.25292408377689524,0.3,1.0,1.0,404.0,732.0,1.0,1,334.0,1
403,403,0.03587088961605778,0.0,1.0,1.0,364.0,651.0,1.0,1,545.0,1
404,404,0.8136466588784302,0.8,1.0,1.0,279.0,619.0,1.0,1,212.0,1
405,405,-0.3786477418063303,-0.4,1.0,0.0,310.0,544.0,0.0,0,436.0,1
406,406,0.503140608238572,0.5,1.0,1.0,357.0,578.0,1.0,1,345.0,1
407,407,0.694696926783302,0.7,0.0,0.0,451.0,904.0,0.0,1,125.0,1
408,408,-0.31039967560322745,-0.3,1.0,0.0,456.0,820.0,0.0,0,374.0,1
409,409,0.15857870947772745,0.2,0.0,0.0,384.0,626.0,0.0,1,390.0,1
410,410,0.6786846653186879,0.7,0.0,0.0,290.0,720.0,0.0,1,220.0,1
411,411,0.14689440177838253,0.1,1.0,1.0,352.0,768.0,1.0,1,170.0,1
412,412,0.7916875034504688,0.8,1.0,1.0,287.0,582.0,1.0,1,261.0,1
413,413,0.776483818631733,0.8,0.0,0.0,264.0,773.0,0.0,1,133.0,1
414,414,-0.41055958452410835,-0.4,0.0,1.0,472.0,715.0,1.0,0,343.0,1
415,415,0.3809092838027891,0.4,0.0,0.0,469.0,738.0,0.0,1,163.0,1
416,416,0.6612885447498874,0.7,1.0,1.0,483.0,685.0,1.0,1,182.0,1
417,417,0.3657419424791718,0.4,1.0,1.0,316.0,922.0,1.0,1,62.0,1
418,418,0.6830846472653668,0.7,1.0,1.0,282.0,617.0,1.0,1,151.0,1
419,419,0.7394397472266924,0.7,1.0,1.0,268.0,851.0,1.0,1,141.0,1
420,420,-0.3423839482967461,-0.3,0.0,1.0,269.0,592.0,1.0,0,379.0,1
421,421,-0.5043101714049717,-0.5,1.0,0.0,406.0,511.0,0.0,0,303.0,1
422,422,0.8368274757954267,0.8,0.0,0.0,351.0,937.0,0.0,1,122.0,1
423,423,0.09181019123645584,0.1,1.0,1.0,262.0,666.0,1.0,1,532.0,1
424,424,-0.6347148051947871,-0.6,0.0,1.0,309.0,958.0,1.0,0,163.0,1
425,425,-0.5802572397631276,-0.6,0.0,1.0,256.0,882.0,1.0,0,222.0,1
426,426,0.1254407806071579,0.1,0.0,0.0,445.0,615.0,0.0,1,510.0,1
427,427,0.20775914592302536,0.2,1.0,1.0,335.0,898.0,1.0,1,227.0,1
428,428,0.564171132526086,0.6,1.0,1.0,348.0,769.0,1.0,1,193.0,1
429,429,0.4030210110772038,0.4,0.0,0.0,422.0,696.0,0.0,1,222.0,1
430,430,0.7849637346752744,0.8,0.0,0.0,469.0,501.0,0.0,1,170.0,1
431,431,0.22399529811297503,0.2,1.0,1.0,286.0,834.0,1.0,1,360.0,1
432,432,0.4648361008403389,0.5,1.0,1.0,313.0,906.0,1.0,1,101.0,1
433,433,-0.6183233376807693,-0.6,1.0,0.0,259.0,719.0,0.0,0,272.0,1
434,434,0.780934831451804,0.8,0.0,0.0,458.0,896.0,0.0,1,66.0,1
435,435,0.5519703322905231,0.6,1.0,1.0,270.0,812.0,1.0,1,228.0,1
436,436,-0.49671271431797986,-0.5,0.0,1.0,359.0,993.0,1.0,0,58.0,1
437,437,-0.45887058173925693,-0.5,0.0,1.0,370.0,803.0,1.0,0,137.0,1
438,438,-0.2818826266177382,-0.3,0.0,1.0,410.0,508.0,1.0,0,492.0,1
439,439,-0.3484639381764191,-0.3,1.0,0.0,297.0,816.0,0.0,0,277.0,1
440,440,0.5442816625440224,0.5,0.0,0.0,251.0,504.0,0.0,1,195.0,1
441,441,-0.6120593983877178,-0.6,0.0,1.0,457.0,863.0,1.0,0,160.0,1
442,442,0.0022863169484957924,0.0,1.0,1.0,357.0,782.0,1.0,1,391.0,1
443,443,0.8284771237514731,0.8,1.0,1.0,343.0,582.0,1.0,1,205.0,1
444,444,-0.8794701473646481,-0.9,1.0,0.0,337.0,853.0,0.0,0,80.0,1
445,445,0.6524340930582943,0.7,0.0,0.0,286.0,674.0,0.0,1,200.0,1
446,446,0.12763651170243595,0.1,1.0,1.0,299.0,977.0,1.0,1,174.0,1
447,447,0.06175546118392794,0.1,1.0,1.0,404.0,958.0,1.0,1,198.0,1
448,448,0.7311997526738468,0.7,1.0,1.0,329.0,643.0,1.0,1,298.0,1
449,449,-0.5613082003332066,-0.6,1.0,0.0,358.0,856.0,0.0,0,186.0,1
450,450,-0.6151442637644582,-0.6,0.0,1.0,402.0,662.0,1.0,0,166.0,1
451,451,0.5900646383523972,0.6,0.0,0.0,366.0,701.0,0.0,1,143.0,1
452,452,-0.6216241124566226,-0.6,0.0,1.0,290.0,919.0,1.0,0,111.0,1
453,453,0.03196186162942338,0.0,1.0,1.0,261.0,773.0,1.0,1,756.0,1
454,454,-0.3821173992491359,-0.4,1.0,0.0,308.0,831.0,0.0,0,301.0,1
455,455,0.3043593968018027,0.3,1.0,1.0,440.0,747.0,1.0,1,183.0,1
456,456,0.8981525310624189,0.9,0.0,0.0,491.0,621.0,0.0,1,128.0,1
457,457,-0.5418112554812933,-0.5,0.0,1.0,363.0,543.0,1.0,0,374.0,1
458,458,0.6524241445599718,0.7,0.0,0.0,450.0,932.0,0.0,1,188.0,1
459,459,-0.37525026444320164,-0.4,0.0,1.0,273.0,524.0,1.0,0,373.0,1
460,460,0.5449513055050811,0.5,1.0,1.0,403.0,945.0,1.0,1,142.0,1
461,461,0.36011097833072514,0.4,0.0,0.0,264.0,613.0,0.0,1,413.0,1
462,462,-0.23998986019029567,-0.2,1.0,0.0,368.0,504.0,0.0,0,428.0,1
463,463,-0.14937142306339168,-0.1,1.0,0.0,383.0,555.0,0.0,0,542.0,1
464,464,0.08853488583963176,0.1,1.0,1.0,254.0,935.0,1.0,1,241.0,1
465,465,0.18154100092928582,0.2,0.0,0.0,257.0,567.0,0.0,1,706.0,1
466,466,-0.6362624906575383,-0.6,0.0,1.0,335.0,617.0,1.0,0,198.0,1
467,467,0.4820181287199615,0.5,0.0,0.0,273.0,535.0,0.0,1,182.0,1
468,468,0.011524352680992722,0.0,0.0,0.0,274.0,782.0,1.0,0,1944.0,0
469,469,0.5702971880723658,0.6,1.0,1.0,388.0,502.0,1.0,1,620.0,1
470,470,-0.3387940944232749,-0.3,0.0,1.0,255.0,552.0,1.0,0,533.0,1
471,471,-0.003235377585531496,-0.0,0.0,1.0,448.0,848.0,1.0,0,654.0,1
472,472,-0.22964647616988842,-0.2,1.0,0.0,499.0,507.0,0.0,0,574.0,1
473,473,-0.16518712683904946,-0.2,0.0,1.0,301.0,879.0,1.0,0,180.0,1
474,474,-0.5076602469789475,-0.5,0.0,1.0,347.0,708.0,1.0,0,415.0,1
475,475,0.20927575672790655,0.2,1.0,1.0,461.0,987.0,1.0,1,132.0,1
476,476,-0.2860304405012313,-0.3,1.0,0.0,421.0,544.0,0.0,0,405.0,1
477,477,0.23301459649615908,0.2,0.0,0.0,329.0,954.0,0.0,1,197.0,1
478,478,-0.6915773064067491,-0.7,1.0,0.0,320.0,902.0,0.0,0,218.0,1
479,479,-0.0011046092843481903,-0.0,1.0,0.0,267.0,580.0,1.0,1,1793.0,0
480,480,0.23565861161429635,0.2,0.0,0.0,477.0,500.0,0.0,1,583.0,1
481,481,-0.0024515706071058796,-0.0,1.0,0.0,351.0,954.0,1.0,1,445.0,0
482,482,-0.26331113856874644,-0.3,0.0,1.0,343.0,919.0,1.0,0,348.0,1
483,483,-0.22959438852661485,-0.2,0.0,1.0,449.0,882.0,1.0,0,519.0,1
484,484,-0.7385264334224723,-0.7,0.0,1.0,297.0,701.0,1.0,0,362.0,1
485,485,0.5644905929058955,0.6,0.0,0.0,427.0,651.0,0.0,1,222.0,1
486,486,-0.8760629886123447,-0.9,1.0,0.0,276.0,603.0,0.0,0,171.0,1
487,487,0.6056047367427767,0.6,0.0,0.0,440.0,679.0,0.0,1,121.0,1
488,488,-0.2076721550370456,-0.2,1.0,0.0,485.0,986.0,1.0,1,-11.0,0
489,489,-0.7283066595064731,-0.7,1.0,0.0,476.0,854.0,0.0,0,80.0,1
490,490,-0.7910299153560867,-0.8,0.0,1.0,320.0,906.0,1.0,0,294.0,1
491,491,0.09283298669139539,0.1,0.0,0.0,450.0,523.0,1.0,0,2027.0,0
492,492,0.3399693701534573,0.3,1.0,1.0,297.0,697.0,1.0,1,186.0,1
493,493,0.40331698212275724,0.4,0.0,0.0,488.0,730.0,0.0,1,52.0,1
494,494,-0.4773418062571911,-0.5,1.0,0.0,468.0,889.0,0.0,0,203.0,1
495,495,-0.40969131672915243,-0.4,0.0,1.0,325.0,575.0,1.0,0,290.0,1
496,496,-0.13885773218594788,-0.1,1.0,0.0,275.0,849.0,0.0,0,1876.0,1
497,497,0.12184786316389096,0.1,1.0,1.0,322.0,546.0,1.0,1,372.0,1
498,498,-0.4720265578685202,-0.5,1.0,0.0,488.0,518.0,0.0,0,174.0,1
499,499,-0.3966679229126724,-0.4,1.0,0.0,406.0,743.0,0.0,0,231.0,1
500,500,-0.12510382913666973,-0.1,1.0,0.0,410.0,829.0,0.0,0,1761.0,1
501,501,0.02608806053980839,0.0,0.0,0.0,434.0,813.0,1.0,0,1633.0,0
502,502,0.22817531980041872,0.2,1.0,1.0,356.0,965.0,1.0,1,49.0,1
503,503,0.8502008191777507,0.9,0.0,0.0,328.0,754.0,0.0,1,108.0,1
504,504,0.44533953291252126,0.4,1.0,1.0,451.0,626.0,1.0,1,193.0,1
505,505,0.8119450574511827,0.8,0.0,0.0,331.0,950.0,0.0,1,129.0,1
506,506,0.712053399210074,0.7,0.0,0.0,387.0,734.0,0.0,1,89.0,1
507,507,-0.7892043722653158,-0.8,0.0,1.0,277.0,820.0,1.0,0,83.0,1
508,508,0.45231672668558043,0.5,0.0,0.0,254.0,996.0,0.0,1,200.0,1
509,509,-0.2025107743125658,-0.2,0.0,1.0,365.0,672.0,1.0,0,213.0,1
510,510,0.4650954334635823,0.5,0.0,0.0,384.0,716.0,0.0,1,160.0,1
511,511,0.3634347311297407,0.4,0.0,0.0,351.0,901.0,0.0,1,298.0,1
512,512,0.003898627627909046,0.0,0.0,0.0,497.0,619.0,1.0,0,584.0,0
513,513,0.4872187860251126,0.5,1.0,1.0,376.0,578.0,1.0,1,286.0,1
514,514,-0.25708523621742463,-0.3,0.0,1.0,362.0,605.0,1.0,0,563.0,1
515,515,0.6343073452021851,0.6,1.0,1.0,368.0,908.0,1.0,1,154.0,1
516,516,0.3161010091005464,0.3,0.0,0.0,409.0,767.0,0.0,1,434.0,1
517,517,0.3612544349591885,0.4,1.0,1.0,340.0,806.0,1.0,1,224.0,1
518,518,0.3150802152992266,0.3,1.0,1.0,444.0,857.0,1.0,1,109.0,1
519,519,-0.7987829551737603,-0.8,0.0,1.0,400.0,604.0,1.0,0,296.0,1
520,520,0.6194772006550505,0.6,1.0,1.0,459.0,815.0,1.0,1,116.0,1
521,521,0.4785160280562125,0.5,0.0,0.0,387.0,637.0,0.0,1,226.0,1
522,522,-0.6280790038857019,-0.6,0.0,1.0,460.0,837.0,1.0,0,263.0,1
523,523,-0.38863944219724966,-0.4,1.0,0.0,493.0,753.0,0.0,0,264.0,1
524,524,-0.09482250768280753,-0.1,0.0,1.0,376.0,797.0,1.0,0,377.0,1
525,525,-0.7357260939041586,-0.7,1.0,0.0,427.0,544.0,0.0,0,149.0,1
526,526,-0.6974539445936891,-0.7,1.0,0.0,298.0,817.0,0.0,0,125.0,1
527,527,-0.5854965280120961,-0.6,1.0,0.0,435.0,900.0,0.0,0,135.0,1
528,528,0.29256965644778565,0.3,1.0,1.0,476.0,524.0,1.0,1,510.0,1
529,529,-0.018444756375457172,-0.0,1.0,0.0,392.0,753.0,1.0,1,585.0,0
530,530,-0.6170667432519059,-0.6,1.0,0.0,492.0,723.0,0.0,0,125.0,1
531,531,0.3223660944021126,0.3,1.0,1.0,369.0,768.0,1.0,1,93.0,1
532,532,0.35596925553792913,0.4,0.0,0.0,450.0,554.0,0.0,1,296.0,1
533,533,-0.34288511280058753,-0.3,1.0,0.0,356.0,758.0,0.0,0,276.0,1
534,534,-0.35440536163501557,-0.4,0.0,1.0,482.0,692.0,1.0,0,276.0,1
535,535,-0.8954280444365434,-0.9,1.0,0.0,380.0,927.0,0.0,0,153.0,1
536,536,0.48876128890127657,0.5,1.0,1.0,377.0,866.0,1.0,1,127.0,1
537,537,0.17681345196551324,0.2,1.0,1.0,495.0,669.0,1.0,1,376.0,1
538,538,0.6077568397506513,0.6,1.0,1.0,446.0,643.0,1.0,1,201.0,1
539,539,-0.6633505094507822,-0.7,0.0,1.0,444.0,612.0,1.0,0,544.0,1
540,540,0.5340533843154202,0.5,0.0,0.0,478.0,989.0,0.0,1,253.0,1
541,541,0.796368554465304,0.8,1.0,1.0,422.0,640.0,1.0,1,248.0,1
542,542,0.7699295763163038,0.8,1.0,1.0,480.0,992.0,1.0,1,88.0,1
543,543,-0.7686992103452571,-0.8,1.0,0.0,433.0,741.0,0.0,0,146.0,1
544,544,-0.472851678037495,-0.5,1.0,0.0,282.0,691.0,0.0,0,237.0,1
545,545,0.33998478104976926,0.3,1.0,1.0,318.0,984.0,1.0,1,168.0,1
546,546,-0.7662540985810311,-0.8,1.0,0.0,293.0,807.0,0.0,0,130.0,1
547,547,0.8639287207287175,0.9,0.0,0.0,467.0,754.0,0.0,1,159.0,1
548,548,-0.24744715084402868,-0.2,1.0,0.0,450.0,748.0,0.0,0,212.0,1
549,549,0.14516982309488136,0.1,1.0,1.0,444.0,759.0,1.0,1,187.0,1
550,550,-0.19246677825570135,-0.2,0.0,1.0,282.0,940.0,1.0,0,258.0,1
551,551,0.8086107125153451,0.8,0.0,0.0,465.0,574.0,0.0,1,331.0,1
552,552,-0.4745985521056639,-0.5,1.0,0.0,355.0,776.0,0.0,0,189.0,1
553,553,-0.02910965201068294,-0.0,0.0,1.0,495.0,503.0,1.0,0,1912.0,1
554,554,-0.8284133034320403,-0.8,0.0,1.0,482.0,942.0,1.0,0,276.0,1
555,555,0.4658493005282619,0.5,1.0,1.0,456.0,599.0,1.0,1,235.0,1
556,556,-0.7093806798913078,-0.7,1.0,0.0,329.0,642.0,0.0,0,129.0,1
557,557,-0.4897051982076912,-0.5,0.0,1.0,420.0,780.0,1.0,0,160.0,1
558,558,0.27913901481042014,0.3,0.0,0.0,338.0,558.0,0.0,1,634.0,1
559,559,0.24596810569349603,0.2,1.0,1.0,448.0,747.0,1.0,1,295.0,1
560,560,0.20547203216367238,0.2,0.0,0.0,252.0,931.0,0.0,1,477.0,1
561,561,-0.07119187155950113,-0.1,1.0,0.0,398.0,736.0,1.0,1,1866.0,0
562,562,-0.6620451224147205,-0.7,0.0,1.0,480.0,733.0,1.0,0,217.0,1
563,563,0.7042722869384871,0.7,0.0,0.0,373.0,564.0,0.0,1,173.0,1
564,564,-0.24318299896541096,-0.2,0.0,1.0,398.0,759.0,1.0,0,263.0,1
565,565,-0.4400790487975088,-0.4,0.0,1.0,276.0,501.0,1.0,0,483.0,1
566,566,0.34449729816543095,0.3,0.0,0.0,499.0,584.0,0.0,1,247.0,1
567,567,-0.5493591766688359,-0.5,1.0,0.0,290.0,876.0,0.0,0,164.0,1
568,568,-0.6639023581874526,-0.7,0.0,1.0,497.0,597.0,1.0,0,256.0,1
569,569,0.36791223977226817,0.4,1.0,1.0,291.0,511.0,1.0,1,678.0,1
570,570,0.7542930494480032,0.8,1.0,1.0,475.0,965.0,1.0,1,80.0,1
571,571,0.028637066107201514,0.0,0.0,0.0,461.0,861.0,0.0,1,1678.0,1
572,572,-0.08722334160262124,-0.1,0.0,1.0,417.0,617.0,1.0,0,976.0,1
573,573,0.532479465576097,0.5,0.0,0.0,304.0,681.0,0.0,1,105.0,1
574,574,-0.5044512610115595,-0.5,1.0,0.0,260.0,966.0,0.0,0,224.0,1
575,575,0.8842670797345614,0.9,1.0,1.0,452.0,851.0,1.0,1,167.0,1
576,576,0.8915966158231331,0.9,1.0,1.0,354.0,727.0,1.0,1,349.0,1
577,577,0.8585404766896062,0.9,1.0,1.0,434.0,581.0,1.0,1,335.0,1
578,578,-0.029245556425697705,-0.0,1.0,0.0,413.0,589.0,1.0,1,1398.0,0
579,579,-0.13611251018682757,-0.1,1.0,0.0,325.0,533.0,0.0,0,1362.0,1
580,580,0.831166912762677,0.8,0.0,0.0,340.0,921.0,0.0,1,129.0,1
581,581,0.5748018116189016,0.6,1.0,1.0,394.0,595.0,1.0,1,301.0,1
582,582,0.6821139155671766,0.7,0.0,0.0,482.0,599.0,0.0,1,409.0,1
583,583,-0.4605352882137969,-0.5,1.0,0.0,353.0,527.0,0.0,0,370.0,1
584,584,-0.751220185549174,-0.8,0.0,1.0,279.0,703.0,1.0,0,278.0,1
585,585,-0.20358876894242117,-0.2,1.0,0.0,461.0,879.0,0.0,0,320.0,1
586,586,-0.25584791748812097,-0.3,0.0,1.0,446.0,696.0,1.0,0,478.0,1
587,587,0.5699820502050158,0.6,1.0,1.0,341.0,719.0,1.0,1,260.0,1
588,588,0.7436511052823095,0.7,0.0,0.0,384.0,941.0,0.0,1,115.0,1
589,589,-0.5799070759017368,-0.6,0.0,1.0,272.0,604.0,1.0,0,224.0,1
590,590,-0.6884864406700775,-0.7,1.0,0.0,344.0,809.0,0.0,0,167.0,1
591,591,-0.20589002934740464,-0.2,1.0,0.0,363.0,801.0,0.0,0,166.0,1
592,592,-0.698028834927092,-0.7,0.0,1.0,268.0,825.0,1.0,0,17.0,1
593,593,0.33842701026746946,0.3,1.0,1.0,318.0,703.0,1.0,1,199.0,1
594,594,0.06882778298658321,0.1,1.0,1.0,362.0,672.0,1.0,1,506.0,1
595,595,0.06293833479699174,0.1,0.0,0.0,339.0,673.0,1.0,0,1988.0,0
596,596,-0.30337635448945466,-0.3,1.0,0.0,468.0,754.0,0.0,0,398.0,1
597,597,-0.7074688509547765,-0.7,0.0,1.0,349.0,919.0,1.0,0,62.0,1
598,598,0.6925188705246653,0.7,1.0,1.0,440.0,952.0,1.0,1,128.0,1
599,599,0.04044889503141402,0.0,1.0,1.0,374.0,782.0,1.0,1,754.0,1
600,600,0.17118018144755764,0.2,1.0,1.0,269.0,967.0,1.0,1,164.0,1
601,601,0.19003110613180552,0.2,0.0,0.0,310.0,813.0,0.0,1,707.0,1
602,602,0.7450893693277597,0.7,0.0,0.0,253.0,880.0,0.0,1,137.0,1
603,603,-0.10434579172078662,-0.1,0.0,1.0,251.0,959.0,1.0,0,90.0,1
604,604,0.5800989617031941,0.6,0.0,0.0,428.0,883.0,0.0,1,179.0,1
605,605,-0.41287928943107033,-0.4,0.0,1.0,476.0,722.0,1.0,0,272.0,1
606,606,0.5439073858893816,0.5,1.0,1.0,394.0,534.0,1.0,1,542.0,1
607,607,-0.41843482835720885,-0.4,0.0,1.0,429.0,778.0,1.0,0,203.0,1
608,608,-0.2706202873899046,-0.3,1.0,0.0,267.0,563.0,0.0,0,390.0,1
609,609,0.04003484918457734,0.0,0.0,0.0,412.0,670.0,0.0,1,1238.0,1
610,610,0.8283913382855658,0.8,0.0,0.0,358.0,521.0,0.0,1,211.0,1
611,611,-0.19299630822902092,-0.2,1.0,0.0,335.0,637.0,0.0,0,468.0,1
612,612,-0.8760611260555564,-0.9,0.0,1.0,479.0,682.0,1.0,0,369.0,1
613,613,-0.7033093613471924,-0.7,1.0,0.0,293.0,886.0,0.0,0,131.0,1
614,614,-0.6431760174649113,-0.6,0.0,1.0,251.0,761.0,1.0,0,278.0,1
615,615,-0.40532268426109985,-0.4,0.0,1.0,488.0,790.0,1.0,0,232.0,1
616,616,0.4710025983929681,0.5,0.0,0.0,438.0,841.0,0.0,1,151.0,1
617,617,0.14567669088937796,0.1,0.0,0.0,365.0,921.0,0.0,1,1414.0,1
618,618,-0.5363982289644551,-0.5,0.0,1.0,388.0,774.0,1.0,0,178.0,1
619,619,-0.6268806216450246,-0.6,1.0,0.0,312.0,808.0,0.0,0,190.0,1
620,620,0.009096561223063016,0.0,1.0,1.0,251.0,709.0,1.0,1,510.0,1
621,621,0.5118841840766125,0.5,0.0,0.0,298.0,574.0,0.0,1,198.0,1
622,622,0.013266381160129015,0.0,0.0,0.0,478.0,602.0,1.0,0,1920.0,0
623,623,-0.8875224247768045,-0.9,0.0,1.0,467.0,664.0,1.0,0,239.0,1
624,624,0.376881824804164,0.4,1.0,1.0,411.0,955.0,1.0,1,294.0,1
625,625,0.5407330322542626,0.5,1.0,1.0,416.0,509.0,1.0,1,315.0,1
626,626,-0.6661887770136292,-0.7,1.0,0.0,336.0,898.0,0.0,0,96.0,1
627,627,-0.2517352450836514,-0.3,0.0,1.0,426.0,684.0,1.0,0,370.0,1
628,628,0.01010019707864962,0.0,1.0,1.0,308.0,758.0,1.0,1,1934.0,1
629,629,0.763486343336426,0.8,1.0,1.0,410.0,874.0,1.0,1,166.0,1
630,630,-0.7644235973936824,-0.8,1.0,0.0,395.0,881.0,0.0,0,144.0,1
631,631,-0.8121699372771423,-0.8,1.0,0.0,342.0,799.0,0.0,0,339.0,1
632,632,-0.47698108431173053,-0.5,0.0,1.0,437.0,563.0,1.0,0,430.0,1
633,633,-0.20295866357043824,-0.2,1.0,0.0,335.0,774.0,0.0,0,311.0,1
634,634,0.7317193782384882,0.7,0.0,0.0,279.0,944.0,0.0,1,127.0,1
635,635,0.6376581769012358,0.6,0.0,0.0,489.0,590.0,0.0,1,171.0,1
636,636,0.49659917413084964,0.5,1.0,1.0,451.0,508.0,1.0,1,321.0,1
637,637,-0.4922586957737433,-0.5,0.0,1.0,391.0,673.0,1.0,0,636.0,1
638,638,-0.19594166293613846,-0.2,0.0,1.0,454.0,788.0,1.0,0,388.0,1
639,639,-0.1168693369879058,-0.1,1.0,0.0,327.0,564.0,0.0,0,2109.0,1
640,640,-0.36837016139860046,-0.4,0.0,1.0,365.0,542.0,1.0,0,343.0,1
641,641,-0.4091675130037911,-0.4,0.0,1.0,498.0,982.0,1.0,0,170.0,1
642,642,0.24990847377274406,0.2,1.0,1.0,348.0,743.0,1.0,1,169.0,1
643,643,0.5417252285538968,0.5,0.0,0.0,328.0,790.0,0.0,1,262.0,1
644,644,-0.33576498566112634,-0.3,1.0,0.0,476.0,721.0,0.0,0,353.0,1
645,645,0.6033088265114502,0.6,1.0,1.0,329.0,809.0,1.0,1,72.0,1
646,646,0.49207314368635047,0.5,1.0,1.0,368.0,868.0,1.0,1,144.0,1
647,647,-0.8752321084950959,-0.9,1.0,0.0,367.0,523.0,0.0,0,210.0,1
648,648,0.002385919007462989,0.0,1.0,1.0,301.0,693.0,1.0,1,806.0,1
649,649,0.0715782274659813,0.1,0.0,0.0,449.0,836.0,1.0,0,1715.0,0
650,650,-0.7037712359905411,-0.7,0.0,1.0,283.0,546.0,1.0,0,271.0,1
651,651,-0.6670216663690895,-0.7,1.0,0.0,258.0,760.0,0.0,0,152.0,1
652,652,0.6578915114565521,0.7,1.0,1.0,370.0,567.0,1.0,1,553.0,1
653,653,0.8216570153050812,0.8,1.0,1.0,373.0,760.0,1.0,1,127.0,1
654,654,-0.30023685436592773,-0.3,1.0,0.0,285.0,790.0,0.0,0,475.0,1
655,655,-0.8233028015681116,-0.8,0.0,1.0,489.0,832.0,1.0,0,269.0,1
656,656,0.8162651178410117,0.8,0.0,0.0,460.0,686.0,0.0,1,124.0,1
657,657,0.17654077726503192,0.2,0.0,0.0,389.0,890.0,0.0,1,1001.0,1
658,658,-0.13688019916729466,-0.1,0.0,1.0,372.0,925.0,1.0,0,243.0,1
659,659,0.06421105193043797,0.1,1.0,1.0,449.0,861.0,1.0,1,170.0,1
660,660,-0.5684289125824422,-0.6,1.0,0.0,498.0,500.0,0.0,0,182.0,1
661,661,-0.26085585462897287,-0.3,0.0,1.0,316.0,970.0,1.0,0,424.0,1
662,662,-0.498904537281381,-0.5,0.0,1.0,328.0,566.0,1.0,0,426.0,1
663,663,-0.045947175208604474,-0.0,1.0,0.0,393.0,787.0,1.0,1,690.0,0
664,664,0.3298370320129843,0.3,1.0,1.0,461.0,730.0,1.0,1,89.0,1
665,665,-0.30944627500748667,-0.3,1.0,0.0,303.0,897.0,0.0,0,310.0,1
666,666,0.5280209041042748,0.5,1.0,1.0,376.0,689.0,1.0,1,305.0,1
667,667,0.5919017564533301,0.6,1.0,1.0,349.0,690.0,1.0,1,101.0,1
668,668,-0.781828851770431,-0.8,1.0,0.0,482.0,855.0,0.0,0,133.0,1
669,669,0.20789235696314556,0.2,0.0,0.0,395.0,996.0,0.0,1,689.0,1
670,670,-0.1360617442477513,-0.1,1.0,0.0,374.0,775.0,0.0,0,1851.0,1
671,671,0.6030208436120789,0.6,1.0,1.0,304.0,861.0,1.0,1,125.0,1
672,672,-0.615508877392605,-0.6,0.0,1.0,380.0,570.0,1.0,0,260.0,1
673,673,-0.7545600132942252,-0.8,0.0,1.0,360.0,758.0,1.0,0,192.0,1
674,674,0.23479253640184228,0.2,1.0,1.0,270.0,957.0,1.0,1,113.0,1
675,675,0.09506420537424032,0.1,1.0,1.0,332.0,625.0,1.0,1,183.0,1
676,676,-0.2849100832322756,-0.3,0.0,1.0,318.0,851.0,1.0,0,341.0,1
677,677,0.39385285339964116,0.4,1.0,1.0,497.0,613.0,1.0,1,250.0,1
678,678,-0.8863254212410738,-0.9,1.0,0.0,451.0,767.0,0.0,0,122.0,1
679,679,-0.6380565163043588,-0.6,1.0,0.0,270.0,902.0,0.0,0,148.0,1
680,680,0.5884471242032961,0.6,0.0,0.0,312.0,599.0,0.0,1,349.0,1
681,681,0.6291284394848048,0.6,1.0,1.0,343.0,952.0,1.0,1,175.0,1
682,682,-0.46765221553970143,-0.5,1.0,0.0,478.0,901.0,0.0,0,201.0,1
683,683,-0.21989432112878693,-0.2,0.0,1.0,308.0,893.0,1.0,0,299.0,1
684,684,-0.5876162710274901,-0.6,1.0,0.0,420.0,891.0,0.0,0,189.0,1
685,685,-0.04793530988601391,-0.0,0.0,1.0,408.0,511.0,1.0,0,761.0,1
686,686,-0.5271814503900909,-0.5,1.0,0.0,411.0,886.0,0.0,0,223.0,1
687,687,0.7221400630268443,0.7,1.0,1.0,315.0,999.0,1.0,1,86.0,1
688,688,0.8259984961016184,0.8,1.0,1.0,382.0,795.0,1.0,1,253.0,1
689,689,-0.597579011738465,-0.6,0.0,1.0,395.0,552.0,1.0,0,353.0,1
690,690,0.8164736701458603,0.8,0.0,0.0,418.0,792.0,0.0,1,190.0,1
691,691,-0.8938238480004258,-0.9,0.0,1.0,386.0,975.0,1.0,0,259.0,1
692,692,0.7844218228974794,0.8,0.0,0.0,354.0,607.0,0.0,1,159.0,1
693,693,-0.23197686571898868,-0.2,0.0,1.0,284.0,920.0,1.0,0,156.0,1
694,694,-0.5940883791165126,-0.6,1.0,0.0,303.0,684.0,0.0,0,173.0,1
695,695,0.2112136567568682,0.2,0.0,0.0,498.0,770.0,0.0,1,352.0,1
696,696,0.824322706804803,0.8,1.0,1.0,394.0,759.0,1.0,1,217.0,1
697,697,0.3708651866759981,0.4,1.0,1.0,498.0,684.0,1.0,1,168.0,1
698,698,-0.10214618225650618,-0.1,1.0,0.0,368.0,685.0,0.0,0,1357.0,1
699,699,0.738790063303978,0.7,1.0,1.0,396.0,619.0,1.0,1,345.0,1
700,700,-0.0900552712577577,-0.1,1.0,0.0,378.0,986.0,0.0,0,1636.0,1
701,701,0.256356930354921,0.3,1.0,1.0,324.0,887.0,1.0,1,289.0,1
702,702,0.20472014285814588,0.2,0.0,0.0,421.0,896.0,0.0,1,403.0,1
703,703,0.02310070939483655,0.0,1.0,1.0,392.0,804.0,1.0,1,314.0,1
704,704,-0.03529346047472959,-0.0,1.0,0.0,472.0,698.0,1.0,1,1830.0,0
705,705,-0.7538613874557136,-0.8,1.0,0.0,278.0,642.0,0.0,0,170.0,1
706,706,-0.8423864075365786,-0.8,1.0,0.0,449.0,553.0,0.0,0,248.0,1
707,707,-0.6761859675126548,-0.7,1.0,0.0,299.0,880.0,0.0,0,201.0,1
708,708,-0.2771038659735525,-0.3,1.0,0.0,375.0,843.0,0.0,0,232.0,1
709,709,0.24229231920089156,0.2,1.0,1.0,376.0,930.0,1.0,1,334.0,1
710,710,-0.3780145211774386,-0.4,0.0,1.0,347.0,541.0,1.0,0,642.0,1
711,711,-0.48363215664690734,-0.5,1.0,0.0,382.0,577.0,0.0,0,341.0,1
712,712,0.3174807710174291,0.3,1.0,1.0,391.0,566.0,1.0,1,353.0,1
713,713,-0.8623400614096587,-0.9,1.0,0.0,445.0,915.0,0.0,0,130.0,1
714,714,-0.49398900495425085,-0.5,0.0,1.0,478.0,501.0,1.0,0,271.0,1
715,715,-0.7732673115330011,-0.8,0.0,1.0,280.0,864.0,1.0,0,236.0,1
716,716,0.8702268885842336,0.9,0.0,0.0,346.0,575.0,0.0,1,159.0,1
717,717,0.37809144678524775,0.4,0.0,0.0,428.0,780.0,0.0,1,142.0,1
718,718,-0.7601676093327067,-0.8,1.0,0.0,457.0,625.0,0.0,0,198.0,1
719,719,-0.6822179099327603,-0.7,1.0,0.0,399.0,676.0,0.0,0,145.0,1
720,720,-0.7308824490970106,-0.7,0.0,1.0,458.0,858.0,1.0,0,244.0,1
721,721,-0.5374361596381407,-0.5,1.0,0.0,473.0,936.0,0.0,0,251.0,1
722,722,-0.5317960980819805,-0.5,0.0,1.0,297.0,574.0,1.0,0,299.0,1
723,723,0.09277268028867447,0.1,1.0,1.0,299.0,812.0,1.0,1,369.0,1
724,724,0.3717568096197704,0.4,0.0,0.0,305.0,559.0,0.0,1,396.0,1
725,725,-0.7740973958817179,-0.8,1.0,0.0,387.0,553.0,0.0,0,180.0,1
726,726,0.7384987341139518,0.7,1.0,1.0,338.0,987.0,1.0,1,-205.0,1
727,727,0.8283102991522951,0.8,1.0,1.0,315.0,743.0,1.0,1,152.0,1
728,728,-0.8065898901803394,-0.8,1.0,0.0,470.0,780.0,0.0,0,180.0,1
729,729,-0.5347619535288171,-0.5,1.0,0.0,266.0,880.0,0.0,0,204.0,1
730,730,0.2958182566882027,0.3,1.0,1.0,365.0,867.0,1.0,1,228.0,1
731,731,-0.22761727107693408,-0.2,1.0,0.0,427.0,634.0,0.0,0,449.0,1
732,732,-0.5090024187891398,-0.5,1.0,0.0,318.0,780.0,0.0,0,242.0,1
733,733,-0.6306715835372093,-0.6,0.0,1.0,370.0,737.0,1.0,0,123.0,1
734,734,0.6366592822750506,0.6,0.0,0.0,293.0,607.0,0.0,1,350.0,1
735,735,-0.8075932602219433,-0.8,0.0,1.0,464.0,611.0,1.0,0,265.0,1
736,736,-0.3466909275301462,-0.3,0.0,1.0,258.0,791.0,1.0,0,411.0,1
737,737,-0.5334435140666384,-0.5,1.0,0.0,352.0,548.0,0.0,0,230.0,1
738,738,-0.6300324077454028,-0.6,0.0,1.0,474.0,744.0,1.0,0,222.0,1
739,739,-0.06423526756540443,-0.1,1.0,0.0,363.0,511.0,0.0,0,2126.0,1
740,740,0.1112543375055054,0.1,1.0,1.0,403.0,551.0,1.0,1,766.0,1
741,741,0.2907623220681398,0.3,1.0,1.0,255.0,968.0,1.0,1,287.0,1
742,742,0.5111791709985961,0.5,0.0,0.0,432.0,616.0,0.0,1,152.0,1
743,743,0.22572105498763195,0.2,0.0,0.0,258.0,701.0,0.0,1,441.0,1
744,744,0.3400478497228051,0.3,1.0,1.0,306.0,628.0,1.0,1,106.0,1
745,745,0.28549424669034684,0.3,1.0,1.0,468.0,850.0,1.0,1,152.0,1
746,746,0.6545302591991576,0.7,0.0,0.0,333.0,872.0,0.0,1,225.0,1
747,747,0.5612138321085384,0.6,1.0,1.0,361.0,983.0,1.0,1,76.0,1
748,748,0.779554160567023,0.8,1.0,1.0,386.0,558.0,1.0,1,286.0,1
749,749,-0.7437375329912634,-0.7,1.0,0.0,302.0,895.0,0.0,0,83.0,1
750,750,0.6756969454901646,0.7,0.0,0.0,329.0,560.0,0.0,1,221.0,1
751,751,-0.669378587436603,-0.7,0.0,1.0,317.0,892.0,1.0,0,201.0,1
752,752,0.7106039227159927,0.7,0.0,0.0,314.0,648.0,0.0,1,188.0,1
753,753,-0.7541572638771901,-0.8,0.0,1.0,494.0,625.0,1.0,0,181.0,1
754,754,-0.29125102195114927,-0.3,1.0,0.0,375.0,678.0,0.0,0,257.0,1
755,755,0.14402153502159643,0.1,1.0,1.0,411.0,632.0,1.0,1,527.0,1
756,756,0.38930321052024597,0.4,1.0,1.0,278.0,703.0,1.0,1,349.0,1
757,757,-0.027138090420737226,-0.0,1.0,0.0,341.0,933.0,1.0,1,1726.0,0
758,758,0.8839832190368538,0.9,0.0,0.0,337.0,984.0,0.0,1,69.0,1
759,759,-0.14294514940305236,-0.1,1.0,0.0,451.0,942.0,0.0,0,467.0,1
760,760,0.025475444011194393,0.0,0.0,0.0,453.0,940.0,1.0,0,277.0,0
761,761,-0.4578794061122743,-0.5,0.0,1.0,396.0,614.0,1.0,0,280.0,1
762,762,-0.3652653484179451,-0.4,1.0,0.0,317.0,816.0,0.0,0,267.0,1
763,763,0.1479801328265825,0.1,0.0,0.0,467.0,549.0,0.0,1,1274.0,1
764,764,-0.11325245907089065,-0.1,1.0,0.0,389.0,621.0,0.0,0,1600.0,1
765,765,-0.8155714055629965,-0.8,1.0,0.0,393.0,818.0,0.0,0,139.0,1
766,766,-0.3905198875462146,-0.4,0.0,1.0,253.0,781.0,1.0,0,246.0,1
767,767,0.5436054594514871,0.5,0.0,0.0,302.0,933.0,0.0,1,155.0,1
768,768,-0.7522318329363802,-0.8,1.0,0.0,446.0,602.0,0.0,0,332.0,1
769,769,-0.15409960281930102,-0.2,0.0,1.0,462.0,915.0,1.0,0,413.0,1
770,770,-0.7344212398524899,-0.7,1.0,0.0,484.0,967.0,0.0,0,129.0,1
771,771,0.5927569832167982,0.6,1.0,1.0,297.0,760.0,1.0,1,103.0,1
772,772,-0.720066138435643,-0.7,1.0,0.0,347.0,936.0,0.0,0,177.0,1
773,773,-0.1593721259293145,-0.2,0.0,1.0,275.0,573.0,1.0,0,642.0,1
774,774,0.39045672621223926,0.4,1.0,1.0,362.0,870.0,1.0,1,158.0,1
775,775,0.32789041401969377,0.3,0.0,0.0,400.0,528.0,0.0,1,382.0,1
776,776,-0.07641885079829447,-0.1,1.0,0.0,425.0,946.0,1.0,1,1629.0,0
777,777,-0.36913104658031604,-0.4,0.0,1.0,355.0,738.0,1.0,0,217.0,1
778,778,-0.3896654443050941,-0.4,0.0,1.0,385.0,732.0,1.0,0,193.0,1
779,779,0.0890072556788225,0.1,0.0,0.0,433.0,847.0,0.0,1,470.0,1
780,780,0.8480594037571084,0.8,1.0,1.0,448.0,827.0,1.0,1,115.0,1
781,781,-0.700158383854376,-0.7,1.0,0.0,349.0,509.0,0.0,0,222.0,1
782,782,-0.5974528198296599,-0.6,0.0,1.0,489.0,563.0,1.0,0,358.0,1
783,783,-0.5607128551765684,-0.6,1.0,0.0,395.0,940.0,0.0,0,255.0,1
784,784,0.8419534130889098,0.8,0.0,0.0,469.0,891.0,0.0,1,90.0,1
785,785,-0.27717273840050005,-0.3,0.0,1.0,393.0,786.0,1.0,0,211.0,1
786,786,-0.7878956568643611,-0.8,1.0,0.0,401.0,791.0,0.0,0,188.0,1
787,787,-0.009361769332818404,-0.0,1.0,0.0,268.0,890.0,1.0,1,1842.0,0
788,788,-0.11899606512969463,-0.1,0.0,1.0,301.0,951.0,1.0,0,198.0,1
789,789,-0.7730143921719868,-0.8,0.0,1.0,436.0,926.0,1.0,0,58.0,1
790,790,0.10307710474799292,0.1,0.0,0.0,271.0,824.0,1.0,0,1905.0,0
791,791,-0.8215712527355044,-0.8,0.0,1.0,396.0,511.0,1.0,0,213.0,1
792,792,0.3186299523055046,0.3,1.0,1.0,456.0,762.0,1.0,1,322.0,1
793,793,-0.11017187913902893,-0.1,0.0,1.0,447.0,631.0,1.0,0,402.0,1
794,794,0.6185493900453466,0.6,1.0,1.0,266.0,608.0,1.0,1,276.0,1
795,795,-0.019769473401907933,-0.0,0.0,1.0,443.0,812.0,1.0,0,475.0,1
796,796,-0.03364199540706714,-0.0,0.0,1.0,480.0,509.0,1.0,0,771.0,1
797,797,-0.00098520717418904,-0.0,1.0,0.0,300.0,623.0,1.0,1,1537.0,0
798,798,-0.5941427059206212,-0.6,0.0,1.0,471.0,702.0,1.0,0,307.0,1
799,799,-0.3940351007307177,-0.4,0.0,1.0,328.0,564.0,1.0,0,228.0,1
800,800,0.7599644358971643,0.8,0.0,0.0,312.0,778.0,0.0,1,200.0,1
801,801,0.11208454033158943,0.1,0.0,0.0,276.0,834.0,0.0,1,730.0,1
802,802,0.7647106866710082,0.8,0.0,0.0,386.0,555.0,0.0,1,99.0,1
803,803,0.5089380548174905,0.5,1.0,1.0,404.0,752.0,1.0,1,304.0,1
804,804,-0.46597637377873274,-0.5,1.0,0.0,363.0,551.0,0.0,0,326.0,1
805,805,-0.13416821682728697,-0.1,0.0,1.0,297.0,763.0,1.0,0,540.0,1
806,806,0.5000468670672419,0.5,0.0,0.0,282.0,967.0,0.0,1,231.0,1
807,807,0.5948037545567931,0.6,1.0,1.0,389.0,965.0,1.0,1,166.0,1
808,808,-0.10842015055538323,-0.1,0.0,1.0,398.0,818.0,1.0,0,34.0,1
809,809,-0.05295866503180102,-0.1,0.0,1.0,423.0,989.0,1.0,0,698.0,1
810,810,-0.15968961709402352,-0.2,0.0,1.0,262.0,709.0,1.0,0,459.0,1
811,811,0.047010500416990064,0.0,0.0,0.0,386.0,693.0,1.0,0,1921.0,0
812,812,-0.5929036103548089,-0.6,0.0,1.0,270.0,598.0,1.0,0,262.0,1
813,813,0.5570494193728756,0.6,1.0,1.0,409.0,625.0,1.0,1,186.0,1
814,814,-0.6587751456220095,-0.7,1.0,0.0,347.0,861.0,0.0,0,162.0,1
815,815,0.6048729731717183,0.6,0.0,0.0,497.0,672.0,0.0,1,201.0,1
816,816,0.46893163083835365,0.5,1.0,1.0,377.0,913.0,1.0,1,160.0,1
817,817,-0.05781517864081964,-0.1,0.0,1.0,300.0,559.0,1.0,0,631.0,1
818,818,-0.6210970470578274,-0.6,0.0,1.0,297.0,965.0,1.0,0,238.0,1
819,819,0.09815334039181223,0.1,0.0,0.0,400.0,987.0,0.0,1,1613.0,1
820,820,0.550939209554787,0.6,1.0,1.0,320.0,658.0,1.0,1,372.0,1
821,821,0.4262334547986347,0.4,1.0,1.0,499.0,541.0,1.0,1,590.0,1
822,822,-0.6367671260259364,-0.6,1.0,0.0,402.0,545.0,0.0,0,183.0,1
823,823,0.05818382451335191,0.1,0.0,0.0,356.0,536.0,0.0,1,1258.0,1
824,824,-0.31332356853358345,-0.3,0.0,1.0,253.0,612.0,1.0,0,525.0,1
825,825,0.5405997419032623,0.5,0.0,0.0,481.0,828.0,0.0,1,261.0,1
826,826,-0.5603796590962626,-0.6,1.0,0.0,427.0,806.0,0.0,0,187.0,1
827,827,-0.3897537867672436,-0.4,1.0,0.0,362.0,768.0,0.0,0,200.0,1
828,828,0.22687805942620198,0.2,1.0,1.0,491.0,657.0,1.0,1,382.0,1
829,829,-0.18280698016350572,-0.2,1.0,0.0,416.0,579.0,0.0,0,1265.0,1
830,830,0.0026848579143478046,0.0,1.0,1.0,256.0,868.0,1.0,1,1876.0,1
831,831,-0.49820202943167674,-0.5,0.0,1.0,353.0,502.0,1.0,0,285.0,1
832,832,0.05582013474183822,0.1,0.0,0.0,250.0,703.0,0.0,1,1447.0,1
833,833,-0.15708279824865612,-0.2,0.0,1.0,285.0,514.0,1.0,0,581.0,1
834,834,0.587131677038144,0.6,1.0,1.0,426.0,893.0,1.0,1,181.0,1
835,835,-0.61615642202167,-0.6,1.0,0.0,486.0,947.0,0.0,0,177.0,1
836,836,-0.6205712983892835,-0.6,0.0,1.0,464.0,921.0,1.0,0,135.0,1
837,837,0.6783466758176949,0.7,1.0,1.0,486.0,973.0,1.0,1,161.0,1
838,838,0.7510518872871589,0.8,1.0,1.0,484.0,837.0,1.0,1,149.0,1
839,839,-0.8633718536285547,-0.9,0.0,1.0,487.0,830.0,1.0,0,153.0,1
840,840,0.294806268038292,0.3,0.0,0.0,368.0,576.0,0.0,1,356.0,1
841,841,-0.2125506763238919,-0.2,1.0,0.0,412.0,630.0,0.0,0,518.0,1
842,842,-0.6085878440271689,-0.6,1.0,0.0,402.0,851.0,0.0,0,187.0,1
843,843,-0.008061653971246585,-0.0,1.0,0.0,499.0,825.0,1.0,1,756.0,0
844,844,-0.8000993929961177,-0.8,1.0,0.0,468.0,515.0,0.0,0,217.0,1
845,845,-0.06670408696656827,-0.1,0.0,1.0,271.0,638.0,1.0,0,611.0,1
846,846,0.23301106763151214,0.2,0.0,0.0,291.0,594.0,0.0,1,525.0,1
847,847,0.8631157677623417,0.9,0.0,0.0,395.0,970.0,0.0,1,145.0,1
848,848,0.5271043255013167,0.5,0.0,0.0,445.0,620.0,0.0,1,265.0,1
849,849,0.602175468277948,0.6,0.0,0.0,485.0,662.0,0.0,1,213.0,1
850,850,-0.4420182126058846,-0.4,1.0,0.0,311.0,980.0,0.0,0,209.0,1
851,851,0.4679417230847126,0.5,1.0,1.0,429.0,916.0,1.0,1,-15.0,1
852,852,0.7852856678168388,0.8,0.0,0.0,332.0,525.0,0.0,1,203.0,1
853,853,0.676286755982268,0.7,0.0,0.0,437.0,535.0,0.0,1,228.0,1
854,854,0.7140985239656471,0.7,1.0,1.0,404.0,688.0,1.0,1,218.0,1
855,855,-0.46132758718221073,-0.5,0.0,1.0,425.0,809.0,1.0,0,136.0,1
856,856,0.3431871843477149,0.3,0.0,0.0,415.0,678.0,0.0,1,247.0,1
857,857,0.434505486340918,0.4,1.0,1.0,475.0,893.0,1.0,1,112.0,1
858,858,-0.09487867293115648,-0.1,1.0,0.0,274.0,720.0,1.0,1,1236.0,0
859,859,0.8349855476262854,0.8,0.0,0.0,471.0,632.0,0.0,1,287.0,1
860,860,0.7712567444637998,0.8,1.0,1.0,463.0,752.0,1.0,1,215.0,1
861,861,0.4127261151298115,0.4,1.0,1.0,258.0,723.0,1.0,1,119.0,1
862,862,0.5887105614525182,0.6,0.0,0.0,331.0,722.0,0.0,1,167.0,1
863,863,0.043691886392600576,0.0,0.0,0.0,448.0,553.0,1.0,0,1999.0,0
864,864,0.8860186594670242,0.9,0.0,0.0,321.0,863.0,0.0,1,46.0,1
865,865,-0.09104622615405045,-0.1,1.0,0.0,373.0,773.0,0.0,0,384.0,1
866,866,0.8882228405189977,0.9,0.0,0.0,253.0,948.0,0.0,1,159.0,1
867,867,-0.3859455761213375,-0.4,1.0,0.0,436.0,815.0,0.0,0,199.0,1
868,868,-0.5464262948228413,-0.5,0.0,1.0,374.0,501.0,1.0,0,385.0,1
869,869,0.31101381861101773,0.3,0.0,0.0,294.0,902.0,0.0,1,254.0,1
870,870,-0.7509209917739313,-0.8,1.0,0.0,420.0,596.0,0.0,0,294.0,1
871,871,-0.7113436204650386,-0.7,0.0,1.0,340.0,872.0,1.0,0,188.0,1
872,872,-0.37317365916586276,-0.4,0.0,1.0,443.0,818.0,1.0,0,389.0,1
873,873,-0.13263727745957354,-0.1,0.0,1.0,254.0,662.0,1.0,0,284.0,1
874,874,-0.4503906284353737,-0.5,0.0,1.0,415.0,711.0,1.0,0,234.0,1
875,875,-0.4590516027496721,-0.5,0.0,1.0,413.0,529.0,1.0,0,418.0,1
876,876,0.32660364368566264,0.3,1.0,1.0,353.0,656.0,1.0,1,201.0,1
877,877,-0.81945345752681,-0.8,0.0,1.0,395.0,714.0,1.0,0,121.0,1
878,878,-0.8090275907333984,-0.8,1.0,0.0,456.0,551.0,0.0,0,273.0,1
879,879,-0.8723858790639112,-0.9,0.0,1.0,486.0,970.0,1.0,0,34.0,1
880,880,0.02657004032778376,0.0,1.0,1.0,447.0,532.0,1.0,1,711.0,1
881,881,-0.030033431905150954,-0.0,0.0,1.0,400.0,625.0,1.0,0,1395.0,1
882,882,0.6280788675043373,0.6,0.0,0.0,485.0,695.0,0.0,1,190.0,1
883,883,-0.48262649618585013,-0.5,0.0,1.0,414.0,632.0,1.0,0,574.0,1
884,884,-0.511287131498392,-0.5,1.0,0.0,282.0,609.0,0.0,0,189.0,1
885,885,0.03571582727372569,0.0,0.0,0.0,439.0,846.0,1.0,0,695.0,0
886,886,-0.47032273918161016,-0.5,1.0,0.0,490.0,922.0,0.0,0,218.0,1
887,887,-0.09090885604084109,-0.1,0.0,1.0,451.0,868.0,1.0,0,411.0,1
888,888,-0.23118286947265976,-0.2,0.0,1.0,308.0,647.0,1.0,0,415.0,1
889,889,-0.4539290792451804,-0.5,0.0,1.0,420.0,636.0,1.0,0,124.0,1
890,890,0.23735001748302997,0.2,1.0,1.0,475.0,577.0,1.0,1,408.0,1
891,891,0.6341724748133538,0.6,0.0,0.0,458.0,922.0,0.0,1,170.0,1
892,892,0.8919857769775886,0.9,1.0,1.0,340.0,773.0,1.0,1,237.0,1
893,893,0.5482310970509171,0.5,1.0,1.0,336.0,941.0,1.0,1,103.0,1
894,894,-0.3246816564594148,-0.3,1.0,0.0,437.0,555.0,0.0,0,918.0,1
895,895,0.8221528594155681,0.8,1.0,1.0,293.0,707.0,1.0,1,210.0,1
896,896,-0.37951908522548894,-0.4,1.0,0.0,451.0,759.0,0.0,0,150.0,1
897,897,-0.7592609529649634,-0.8,0.0,1.0,280.0,870.0,1.0,0,130.0,1
898,898,-0.47625586785198404,-0.5,0.0,1.0,384.0,885.0,1.0,0,211.0,1
899,899,0.051275832397362775,0.1,0.0,0.0,321.0,515.0,0.0,1,2164.0,1
900,900,-0.7448969067335587,-0.7,0.0,1.0,371.0,939.0,1.0,0,130.0,1
901,901,-0.8052079995224275,-0.8,1.0,0.0,402.0,905.0,0.0,0,133.0,1
902,902,0.5113518286079234,0.5,1.0,1.0,468.0,555.0,1.0,1,397.0,1
903,903,-0.4778412331617906,-0.5,0.0,1.0,309.0,909.0,1.0,0,332.0,1
904,904,0.32283810769983246,0.3,1.0,1.0,312.0,661.0,1.0,1,197.0,1
905,905,-0.6124399719625913,-0.6,1.0,0.0,257.0,726.0,0.0,0,187.0,1
906,906,-0.7830939471329045,-0.8,0.0,1.0,490.0,849.0,1.0,0,181.0,1
907,907,-0.8911573979535168,-0.9,0.0,1.0,312.0,765.0,1.0,0,143.0,1
908,908,-0.04007806451579732,-0.0,0.0,1.0,297.0,766.0,1.0,0,1447.0,1
909,909,0.09436484331331663,0.1,0.0,0.0,271.0,996.0,0.0,1,1733.0,1
910,910,0.6635179865531652,0.7,0.0,0.0,481.0,687.0,0.0,1,122.0,1
911,911,-0.8817742566610274,-0.9,1.0,0.0,347.0,621.0,0.0,0,132.0,1
912,912,0.09604295770960114,0.1,0.0,0.0,407.0,881.0,0.0,1,382.0,1
913,913,0.240543710573334,0.2,1.0,1.0,270.0,846.0,1.0,1,374.0,1
914,914,0.5846254540004102,0.6,1.0,1.0,316.0,844.0,1.0,1,190.0,1
915,915,0.278613059628375,0.3,1.0,1.0,433.0,694.0,1.0,1,273.0,1
916,916,0.06851523071973176,0.1,1.0,1.0,327.0,975.0,1.0,1,178.0,1
917,917,0.6903243391761965,0.7,1.0,1.0,445.0,678.0,1.0,1,227.0,1
918,918,0.15853644617064655,0.2,0.0,0.0,363.0,969.0,0.0,1,678.0,1
919,919,-0.5198112153990375,-0.5,1.0,0.0,470.0,782.0,0.0,0,488.0,1
920,920,0.650368694692362,0.7,1.0,1.0,303.0,900.0,1.0,1,197.0,1
921,921,0.2961661348486474,0.3,1.0,1.0,376.0,620.0,1.0,1,364.0,1
922,922,-0.14711390502985378,-0.1,0.0,1.0,415.0,799.0,1.0,0,266.0,1
923,923,0.08204838146564797,0.1,1.0,1.0,304.0,910.0,1.0,1,236.0,1
924,924,0.04702817551241978,0.0,1.0,1.0,346.0,667.0,1.0,1,337.0,1
925,925,-0.06226066326963586,-0.1,0.0,1.0,339.0,736.0,1.0,0,585.0,1
926,926,0.8156890899938344,0.8,0.0,0.0,331.0,561.0,0.0,1,518.0,1
927,927,0.8593573229035799,0.9,1.0,1.0,348.0,870.0,1.0,1,102.0,1
928,928,-0.3716834816572496,-0.4,0.0,1.0,276.0,971.0,1.0,0,303.0,1
929,929,-0.539913822909792,-0.5,1.0,0.0,420.0,849.0,0.0,0,361.0,1
930,930,0.01770834729258397,0.0,0.0,0.0,458.0,612.0,1.0,0,1930.0,0
931,931,-0.04572879896861293,-0.0,1.0,0.0,389.0,783.0,1.0,1,338.0,0
932,932,0.668421667884929,0.7,0.0,0.0,422.0,842.0,0.0,1,146.0,1
933,933,-0.09874566178055733,-0.1,0.0,1.0,453.0,666.0,1.0,0,641.0,1
934,934,-0.4868566818597411,-0.5,1.0,0.0,261.0,881.0,0.0,0,208.0,1
935,935,-0.6549190328342207,-0.7,0.0,1.0,408.0,891.0,1.0,0,31.0,1
936,936,-0.7983777236950163,-0.8,0.0,1.0,378.0,718.0,1.0,0,194.0,1
937,937,-0.2484540029663811,-0.2,0.0,1.0,283.0,728.0,1.0,0,429.0,1
938,938,-0.7996398211933328,-0.8,1.0,0.0,364.0,692.0,0.0,0,154.0,1
939,939,-0.6250643355913973,-0.6,0.0,1.0,360.0,600.0,1.0,0,290.0,1
940,940,0.24579478192975845,0.2,0.0,0.0,408.0,969.0,0.0,1,383.0,1
941,941,0.6034124804363702,0.6,0.0,0.0,355.0,764.0,0.0,1,241.0,1
942,942,0.6463776505640139,0.6,0.0,0.0,371.0,913.0,0.0,1,76.0,1
943,943,-0.22109401521608263,-0.2,0.0,1.0,287.0,817.0,1.0,0,216.0,1
944,944,-0.8765816105912743,-0.9,1.0,0.0,287.0,672.0,0.0,0,151.0,1
945,945,0.17782621802758436,0.2,1.0,1.0,444.0,505.0,1.0,1,541.0,1
946,946,0.4050398897091879,0.4,0.0,0.0,439.0,959.0,0.0,1,152.0,1
947,947,-0.344531426024961,-0.3,1.0,0.0,284.0,988.0,0.0,0,218.0,1
948,948,-0.24305119427783117,-0.2,1.0,0.0,311.0,571.0,0.0,0,588.0,1
949,949,0.2258279683370138,0.2,0.0,0.0,322.0,606.0,0.0,1,532.0,1
950,950,0.7740537925078791,0.8,1.0,1.0,277.0,889.0,1.0,1,134.0,1
951,951,0.8044876300794902,0.8,0.0,0.0,480.0,830.0,0.0,1,140.0,1
952,952,0.7252168981639274,0.7,0.0,0.0,484.0,982.0,0.0,1,124.0,1
953,953,0.4722004710037869,0.5,1.0,1.0,342.0,875.0,1.0,1,243.0,1
954,954,-0.6926567093331454,-0.7,1.0,0.0,318.0,792.0,0.0,0,130.0,1
955,955,-0.12583396803880598,-0.1,0.0,1.0,350.0,864.0,1.0,0,346.0,1
956,956,0.8759504976920708,0.9,0.0,0.0,441.0,674.0,0.0,1,245.0,1
957,957,-0.6559340315859359,-0.7,0.0,1.0,396.0,778.0,1.0,0,186.0,1
958,958,-0.7174338439241218,-0.7,1.0,0.0,320.0,503.0,0.0,0,197.0,1
959,959,-0.7494563935315669,-0.7,0.0,1.0,499.0,823.0,1.0,0,158.0,1
960,960,0.3941509303821432,0.4,1.0,1.0,398.0,862.0,1.0,1,390.0,1
961,961,0.45300942311041303,0.5,0.0,0.0,418.0,756.0,0.0,1,406.0,1
962,962,-0.5206733424331109,-0.5,0.0,1.0,375.0,852.0,1.0,0,213.0,1
963,963,-0.3999150672563163,-0.4,0.0,1.0,458.0,874.0,1.0,0,218.0,1
964,964,-0.45720561140155064,-0.5,0.0,1.0,449.0,665.0,1.0,0,276.0,1
965,965,-0.26273681195333,-0.3,1.0,0.0,285.0,500.0,0.0,0,245.0,1
966,966,0.290911784044093,0.3,1.0,1.0,425.0,855.0,1.0,1,150.0,1
967,967,-0.6395373109580729,-0.6,0.0,1.0,348.0,622.0,1.0,0,270.0,1
968,968,-0.39226600011551505,-0.4,0.0,1.0,457.0,911.0,1.0,0,222.0,1
969,969,0.8561622072174383,0.9,0.0,0.0,446.0,842.0,0.0,1,52.0,1
970,970,-0.32695303379518525,-0.3,0.0,1.0,355.0,586.0,1.0,0,319.0,1
971,971,0.7080368822019275,0.7,0.0,0.0,274.0,635.0,0.0,1,111.0,1
972,972,-0.757116726773148,-0.8,1.0,0.0,302.0,653.0,0.0,0,215.0,1
973,973,0.5709711854124392,0.6,1.0,1.0,368.0,556.0,1.0,1,226.0,1
974,974,-0.7224828548968816,-0.7,0.0,1.0,253.0,505.0,1.0,0,402.0,1
975,975,0.4969240397362126,0.5,0.0,0.0,394.0,613.0,0.0,1,133.0,1
976,976,-0.11245552439405271,-0.1,1.0,0.0,490.0,712.0,0.0,0,458.0,1
977,977,0.7248803725576006,0.7,1.0,1.0,494.0,974.0,1.0,1,92.0,1
978,978,-0.08900209487953792,-0.1,1.0,0.0,441.0,709.0,0.0,0,1850.0,1
979,979,-0.8175336556114269,-0.8,0.0,1.0,252.0,750.0,1.0,0,188.0,1
980,980,-0.7640946373348976,-0.8,1.0,0.0,304.0,869.0,0.0,0,167.0,1
981,981,0.6286639893074552,0.6,1.0,1.0,300.0,914.0,1.0,1,76.0,1
982,982,0.6090978959673948,0.6,0.0,0.0,373.0,682.0,0.0,1,205.0,1
983,983,-0.8891358051954603,-0.9,0.0,1.0,409.0,965.0,1.0,0,166.0,1
984,984,-0.7550793501095819,-0.8,0.0,1.0,258.0,825.0,1.0,0,157.0,1
985,985,-0.23251475156014256,-0.2,0.0,1.0,494.0,697.0,1.0,0,309.0,1
986,986,-0.5192162090257966,-0.5,0.0,1.0,429.0,744.0,1.0,0,237.0,1
987,987,-0.1718634316392088,-0.2,0.0,1.0,310.0,678.0,1.0,0,412.0,1
988,988,-0.12903466864603552,-0.1,1.0,0.0,474.0,903.0,1.0,1,23.0,0
989,989,0.6663688690947284,0.7,1.0,1.0,381.0,627.0,1.0,1,192.0,1
990,990,-0.7989283824229663,-0.8,1.0,0.0,377.0,705.0,0.0,0,208.0,1
991,991,-0.26785762152771686,-0.3,0.0,1.0,265.0,528.0,1.0,0,407.0,1
992,992,-0.7425018308314049,-0.7,1.0,0.0,252.0,542.0,0.0,0,176.0,1
993,993,0.7562925580992842,0.8,1.0,1.0,297.0,615.0,1.0,1,148.0,1
994,994,0.1437677973778534,0.1,1.0,1.0,420.0,718.0,1.0,1,252.0,1
995,995,-0.2475030349624865,-0.2,1.0,0.0,498.0,608.0,0.0,0,264.0,1
996,996,0.5094700267305062,0.5,1.0,1.0,258.0,522.0,1.0,1,210.0,1
997,997,0.452454163828918,0.5,1.0,1.0,439.0,924.0,1.0,1,37.0,1
998,998,-0.5687651123891928,-0.6,1.0,0.0,330.0,546.0,0.0,0,194.0,1
999,999,0.708937235161225,0.7,1.0,1.0,294.0,536.0,1.0,1,540.0,1
1000,1000,-0.45975615907077294,-0.5,1.0,0.0,275.0,961.0,1.0,1,-86.0,0
1001,1001,-0.07487166036254411,-0.1,0.0,1.0,417.0,956.0,1.0,0,1277.0,1
1002,1002,-0.6646974054767503,-0.7,0.0,1.0,447.0,753.0,1.0,0,180.0,1
1003,1003,-0.49115501626845803,-0.5,0.0,1.0,271.0,795.0,1.0,0,224.0,1
1004,1004,0.12850727173443077,0.1,0.0,0.0,435.0,649.0,0.0,1,1886.0,1
1005,1005,-0.08782819009167286,-0.1,0.0,1.0,397.0,662.0,1.0,0,771.0,1
1006,1006,-0.08245403475458346,-0.1,1.0,0.0,371.0,619.0,0.0,0,1780.0,1
1007,1007,-0.8975946599445916,-0.9,1.0,0.0,408.0,559.0,0.0,0,193.0,1
1008,1008,-0.8150274969136353,-0.8,1.0,0.0,450.0,757.0,0.0,0,153.0,1
1009,1009,-0.01678170814061597,-0.0,1.0,0.0,426.0,942.0,1.0,1,472.0,0
1010,1010,0.08437800941261187,0.1,1.0,1.0,323.0,705.0,1.0,1,302.0,1
1011,1011,0.8143321590913478,0.8,1.0,1.0,428.0,834.0,1.0,1,98.0,1
1012,1012,0.587667064057377,0.6,0.0,0.0,328.0,632.0,0.0,1,170.0,1
1013,1013,-0.5723226668076669,-0.6,1.0,0.0,379.0,752.0,0.0,0,179.0,1
1014,1014,0.38709845566608736,0.4,0.0,0.0,484.0,811.0,0.0,1,195.0,1
1015,1015,0.41610169008886977,0.4,0.0,0.0,428.0,731.0,0.0,1,251.0,1
1016,1016,-0.7918232597750924,-0.8,1.0,0.0,454.0,540.0,0.0,0,216.0,1
1017,1017,-0.5151164204367193,-0.5,1.0,0.0,319.0,614.0,0.0,0,217.0,1
1018,1018,-0.7884271871594885,-0.8,1.0,0.0,300.0,932.0,0.0,0,108.0,1
1019,1019,-0.8547969568780767,-0.9,0.0,1.0,397.0,988.0,1.0,0,75.0,1
1020,1020,-0.7866383908397405,-0.8,1.0,0.0,420.0,923.0,0.0,0,167.0,1
1021,1021,-0.5216904851047142,-0.5,0.0,1.0,376.0,696.0,1.0,0,248.0,1
1022,1022,-0.41465405034724284,-0.4,1.0,0.0,498.0,890.0,0.0,0,302.0,1
1023,1023,-0.038741206596701105,-0.0,1.0,0.0,441.0,640.0,1.0,1,1709.0,0
1024,1024,-0.6851274097953582,-0.7,1.0,0.0,457.0,713.0,0.0,0,180.0,1
1025,1025,0.3291768694020495,0.3,1.0,1.0,329.0,569.0,1.0,1,442.0,1
1026,1026,-0.8293178998748854,-0.8,1.0,0.0,262.0,699.0,0.0,0,149.0,1
1027,1027,0.42074082738031404,0.4,1.0,1.0,261.0,963.0,1.0,1,306.0,1
1028,1028,-0.19743281775079768,-0.2,0.0,1.0,401.0,670.0,1.0,0,419.0,1
1029,1029,-0.8056884453819624,-0.8,1.0,0.0,289.0,695.0,0.0,0,136.0,1
1030,1030,0.14776779482288183,0.1,1.0,1.0,356.0,693.0,1.0,1,591.0,1
1031,1031,-0.36185436748806366,-0.4,1.0,0.0,468.0,587.0,0.0,0,345.0,1
1032,1032,-0.013905007572885264,-0.0,0.0,1.0,455.0,683.0,1.0,0,462.0,1
1033,1033,-0.4194805885482013,-0.4,0.0,1.0,460.0,826.0,1.0,0,274.0,1
1034,1034,-0.3696079943207786,-0.4,1.0,0.0,291.0,675.0,0.0,0,424.0,1
1035,1035,0.525024629641284,0.5,1.0,1.0,355.0,681.0,1.0,1,194.0,1
1036,1036,-0.6048645429808108,-0.6,0.0,1.0,476.0,737.0,1.0,0,317.0,1
1037,1037,-0.8224028959460608,-0.8,0.0,1.0,335.0,945.0,1.0,0,100.0,1
1038,1038,0.10376380022427123,0.1,1.0,1.0,418.0,692.0,1.0,1,450.0,1
1039,1039,0.11723768576747629,0.1,1.0,1.0,468.0,607.0,1.0,1,475.0,1
1040,1040,-0.5384134736796438,-0.5,0.0,1.0,403.0,725.0,1.0,0,292.0,1
1041,1041,-0.14216690060732418,-0.1,0.0,1.0,254.0,776.0,1.0,0,140.0,1
1042,1042,-0.05765480819589741,-0.1,1.0,0.0,285.0,530.0,1.0,1,2185.0,0
1043,1043,0.2627759350631892,0.3,1.0,1.0,364.0,854.0,1.0,1,72.0,1
1044,1044,-0.2889225658447162,-0.3,1.0,0.0,491.0,658.0,0.0,0,311.0,1
1045,1045,-0.1529867644148667,-0.2,1.0,0.0,416.0,521.0,0.0,0,963.0,1
1046,1046,-0.09742746631534271,-0.1,1.0,0.0,420.0,827.0,0.0,0,1753.0,1
1047,1047,0.5920749868220633,0.6,0.0,0.0,402.0,808.0,0.0,1,100.0,1
1048,1048,0.004722818356164393,0.0,1.0,1.0,344.0,897.0,1.0,1,419.0,1
1049,1049,-0.4480541941830711,-0.4,1.0,0.0,461.0,787.0,0.0,0,152.0,1
1050,1050,-0.035299626933470774,-0.0,1.0,0.0,287.0,968.0,1.0,1,1745.0,0
1051,1051,0.46283271476189103,0.5,1.0,1.0,376.0,985.0,1.0,1,109.0,1
1052,1052,0.6452056603933952,0.6,0.0,0.0,483.0,995.0,0.0,1,462.0,1
1053,1053,0.5660037834299797,0.6,0.0,0.0,290.0,937.0,0.0,1,133.0,1
1054,1054,-0.6347223680465239,-0.6,0.0,1.0,255.0,544.0,1.0,0,401.0,1
1055,1055,0.7457515610587112,0.7,1.0,1.0,424.0,961.0,1.0,1,165.0,1
1056,1056,0.3161562318999752,0.3,1.0,1.0,267.0,774.0,1.0,1,249.0,1
1057,1057,0.6543279044618512,0.7,1.0,1.0,338.0,886.0,1.0,1,316.0,1
1058,1058,0.7847502993791892,0.8,1.0,1.0,442.0,644.0,1.0,1,154.0,1
1059,1059,0.23391800637883342,0.2,0.0,0.0,404.0,596.0,0.0,1,390.0,1
1060,1060,0.7744064541155017,0.8,0.0,0.0,478.0,942.0,0.0,1,150.0,1
1061,1061,-0.08421095124277966,-0.1,0.0,1.0,479.0,623.0,1.0,0,538.0,1
1062,1062,-0.2778917376138932,-0.3,0.0,1.0,493.0,886.0,1.0,0,311.0,1
1063,1063,-0.36192654124133394,-0.4,0.0,1.0,320.0,528.0,1.0,0,522.0,1
1064,1064,-0.1970052228810525,-0.2,0.0,1.0,368.0,807.0,1.0,0,365.0,1
1065,1065,-0.78349891146825,-0.8,1.0,0.0,408.0,731.0,0.0,0,121.0,1
1066,1066,-0.7050442535177344,-0.7,0.0,1.0,484.0,847.0,1.0,0,259.0,1
1067,1067,0.07051592994894573,0.1,0.0,0.0,437.0,933.0,1.0,0,1630.0,0
1068,1068,0.24507387008237147,0.2,1.0,1.0,259.0,770.0,1.0,1,241.0,1
1069,1069,-0.7443967370666653,-0.7,1.0,0.0,308.0,531.0,0.0,0,211.0,1
1070,1070,-0.408878955404147,-0.4,1.0,0.0,353.0,637.0,0.0,0,230.0,1
1071,1071,-0.7119104775612757,-0.7,1.0,0.0,395.0,665.0,0.0,0,280.0,1
1072,1072,-0.3827194009016046,-0.4,0.0,1.0,408.0,959.0,1.0,0,473.0,1
1073,1073,-0.3732090423231511,-0.4,0.0,1.0,411.0,949.0,1.0,0,190.0,1
1074,1074,-0.6021897762013464,-0.6,1.0,0.0,476.0,506.0,0.0,0,378.0,1
1075,1075,0.7507910098604299,0.8,0.0,0.0,310.0,664.0,0.0,1,396.0,1
1076,1076,0.8428800594262943,0.8,0.0,0.0,301.0,981.0,0.0,1,258.0,1
1077,1077,0.5686339150613656,0.6,1.0,1.0,431.0,967.0,1.0,1,152.0,1
1078,1078,0.6657990368812686,0.7,1.0,1.0,454.0,786.0,1.0,1,150.0,1
1079,1079,-0.36902007557184724,-0.4,0.0,1.0,426.0,894.0,1.0,0,190.0,1
1080,1080,-0.35426457363682795,-0.4,0.0,1.0,284.0,892.0,1.0,0,144.0,1
1081,1081,-0.30532636970931537,-0.3,0.0,1.0,449.0,706.0,1.0,0,445.0,1
1082,1082,0.1303354667085449,0.1,0.0,0.0,493.0,773.0,0.0,1,474.0,1
1083,1083,0.5200513514994584,0.5,0.0,0.0,469.0,746.0,0.0,1,135.0,1
1084,1084,0.7843363758622638,0.8,1.0,1.0,391.0,862.0,1.0,1,187.0,1
1085,1085,-0.8493120527637322,-0.8,0.0,1.0,297.0,866.0,1.0,0,197.0,1
1086,1086,-0.6759344258713244,-0.7,0.0,1.0,275.0,534.0,1.0,0,261.0,1
1087,1087,-0.2643653086986799,-0.3,0.0,1.0,380.0,919.0,1.0,0,261.0,1
1088,1088,0.8175819684577851,0.8,0.0,0.0,460.0,866.0,0.0,1,174.0,1
1089,1089,-0.8434640827854978,-0.8,0.0,1.0,494.0,701.0,1.0,0,255.0,1
1090,1090,-0.815718672059597,-0.8,0.0,1.0,453.0,595.0,1.0,0,372.0,1
1091,1091,-0.5647904758144593,-0.6,0.0,1.0,385.0,619.0,1.0,0,226.0,1
1092,1092,-0.29274530413932753,-0.3,0.0,1.0,348.0,973.0,1.0,0,69.0,1
1093,1093,0.4624783509425995,0.5,1.0,1.0,493.0,957.0,1.0,1,110.0,1
1094,1094,-0.4923511889669326,-0.5,0.0,1.0,440.0,521.0,1.0,0,519.0,1
1095,1095,-0.4118842618447228,-0.4,0.0,1.0,466.0,691.0,1.0,0,213.0,1
1096,1096,-0.6572311660970975,-0.7,0.0,1.0,299.0,649.0,1.0,0,342.0,1
1097,1097,-0.6964027354414225,-0.7,0.0,1.0,395.0,960.0,1.0,0,95.0,1
1098,1098,-0.26862072814861004,-0.3,0.0,1.0,462.0,707.0,1.0,0,481.0,1
1099,1099,0.5191597788431382,0.5,1.0,1.0,480.0,633.0,1.0,1,147.0,1
1100,1100,0.13632959061718075,0.1,0.0,0.0,465.0,849.0,0.0,1,516.0,1
1101,1101,-0.7541550471580603,-0.8,1.0,0.0,326.0,838.0,0.0,0,196.0,1
1102,1102,0.2782877864911798,0.3,0.0,0.0,485.0,888.0,0.0,1,357.0,1
1103,1103,0.03838986592179472,0.0,0.0,0.0,404.0,676.0,1.0,0,940.0,0
1104,1104,-0.17740739207641554,-0.2,0.0,1.0,328.0,577.0,1.0,0,355.0,1
1105,1105,0.7146372435325067,0.7,1.0,1.0,393.0,979.0,1.0,1,88.0,1
1106,1106,0.42695848700864614,0.4,0.0,0.0,338.0,504.0,0.0,1,328.0,1
1107,1107,0.6433190228348137,0.6,0.0,0.0,358.0,668.0,0.0,1,144.0,1
1108,1108,-0.43068535360537696,-0.4,0.0,1.0,401.0,916.0,1.0,0,373.0,1
1109,1109,-0.15270062512695182,-0.2,0.0,1.0,306.0,932.0,1.0,0,382.0,1
1110,1110,0.06255395139274655,0.1,0.0,0.0,327.0,862.0,1.0,0,1811.0,0
1111,1111,0.11199275112564766,0.1,1.0,1.0,433.0,991.0,1.0,1,606.0,1
1112,1112,-0.07683481390189806,-0.1,1.0,0.0,273.0,795.0,0.0,0,1932.0,1
1113,1113,-0.8744814155020908,-0.9,0.0,1.0,285.0,888.0,1.0,0,157.0,1
1114,1114,0.38086471711764214,0.4,0.0,0.0,266.0,930.0,0.0,1,154.0,1
1115,1115,0.5629690061226696,0.6,0.0,0.0,406.0,736.0,0.0,1,188.0,1
1116,1116,-0.3200945941657073,-0.3,1.0,0.0,398.0,721.0,0.0,0,281.0,1
1117,1117,0.639301683500061,0.6,0.0,0.0,296.0,928.0,0.0,1,186.0,1
1118,1118,-0.26906849346318484,-0.3,1.0,0.0,315.0,932.0,0.0,0,193.0,1
1119,1119,-0.5278787798430675,-0.5,1.0,0.0,253.0,994.0,0.0,0,163.0,1
1120,1120,-0.8638812827417565,-0.9,0.0,1.0,439.0,776.0,1.0,0,155.0,1
1121,1121,-0.6165679745147252,-0.6,1.0,0.0,425.0,543.0,0.0,0,192.0,1
1122,1122,0.8094087346850548,0.8,0.0,0.0,360.0,786.0,0.0,1,84.0,1
1123,1123,-0.11572795229525079,-0.1,0.0,1.0,281.0,752.0,1.0,0,837.0,1
1124,1124,-0.8425394321108346,-0.8,1.0,0.0,495.0,624.0,0.0,0,101.0,1
1125,1125,-0.6224617810625296,-0.6,0.0,1.0,393.0,690.0,1.0,0,97.0,1
1126,1126,0.7396440864190538,0.7,1.0,1.0,259.0,937.0,1.0,1,84.0,1
1127,1127,0.1873242449224911,0.2,0.0,0.0,478.0,884.0,0.0,1,198.0,1
1128,1128,0.15648935659492869,0.2,0.0,0.0,389.0,707.0,0.0,1,874.0,1
1129,1129,0.8551646637968969,0.9,0.0,0.0,323.0,740.0,0.0,1,117.0,1
1130,1130,0.2712796719036533,0.3,0.0,0.0,421.0,761.0,0.0,1,298.0,1
1131,1131,-0.2706182695853543,-0.3,0.0,1.0,284.0,916.0,1.0,0,420.0,1
1132,1132,0.2587351693766423,0.3,1.0,1.0,331.0,680.0,1.0,1,329.0,1
1133,1133,-0.7654251173076019,-0.8,1.0,0.0,460.0,589.0,0.0,0,201.0,1
1134,1134,0.5222798616612799,0.5,1.0,1.0,444.0,934.0,1.0,1,32.0,1
1135,1135,0.6072855027476552,0.6,1.0,1.0,300.0,746.0,1.0,1,174.0,1
1136,1136,-0.7968588894784275,-0.8,1.0,0.0,451.0,636.0,0.0,0,143.0,1
1137,1137,-0.8758132838639937,-0.9,1.0,0.0,423.0,939.0,0.0,0,268.0,1
1138,1138,0.18464465536022823,0.2,0.0,0.0,309.0,949.0,0.0,1,772.0,1
1139,1139,-0.5683112983833685,-0.6,1.0,0.0,407.0,927.0,0.0,0,226.0,1
1140,1140,-0.44194160205150923,-0.4,0.0,1.0,263.0,656.0,1.0,0,291.0,1
1141,1141,-0.5125704811428937,-0.5,1.0,0.0,326.0,829.0,0.0,0,245.0,1
1142,1142,-0.38997596149625524,-0.4,0.0,1.0,488.0,955.0,1.0,0,177.0,1
1143,1143,-0.12987372759943216,-0.1,0.0,1.0,361.0,785.0,1.0,0,204.0,1
1144,1144,0.7115051978505021,0.7,1.0,1.0,331.0,933.0,1.0,1,106.0,1
1145,1145,0.8386759011890731,0.8,0.0,0.0,278.0,797.0,0.0,1,215.0,1
1146,1146,-0.26716430371185673,-0.3,0.0,1.0,333.0,896.0,1.0,0,601.0,1
1147,1147,-0.5078996239316584,-0.5,0.0,1.0,266.0,659.0,1.0,0,125.0,1
1148,1148,0.3461077871858319,0.3,1.0,1.0,289.0,929.0,1.0,1,172.0,1
1149,1149,0.2911906836130945,0.3,0.0,0.0,352.0,706.0,0.0,1,172.0,1
1150,1150,0.4819508883729412,0.5,1.0,1.0,409.0,843.0,1.0,1,178.0,1
1151,1151,-0.6688506127967676,-0.7,1.0,0.0,436.0,968.0,0.0,0,166.0,1
1152,1152,-0.7451199221479093,-0.7,1.0,0.0,376.0,799.0,0.0,0,145.0,1
1153,1153,0.09624351532017239,0.1,0.0,0.0,291.0,945.0,0.0,1,1764.0,1
1154,1154,-0.5494997933044588,-0.5,0.0,1.0,442.0,589.0,1.0,0,429.0,1
1155,1155,0.8504462319334624,0.9,0.0,0.0,333.0,775.0,0.0,1,152.0,1
1156,1156,-0.7992275378094873,-0.8,0.0,1.0,319.0,848.0,1.0,0,33.0,1
1157,1157,0.2664595259388226,0.3,0.0,0.0,260.0,672.0,0.0,1,308.0,1
1158,1158,-0.28765957181972535,-0.3,0.0,1.0,451.0,658.0,1.0,0,331.0,1
1159,1159,-0.7955074735252899,-0.8,1.0,0.0,330.0,638.0,0.0,0,152.0,1
1160,1160,-0.3441576446238016,-0.3,0.0,1.0,443.0,899.0,1.0,0,168.0,1
1161,1161,0.7882719152382743,0.8,0.0,0.0,288.0,710.0,0.0,1,142.0,1
1162,1162,-0.34332628348122907,-0.3,1.0,0.0,421.0,846.0,0.0,0,273.0,1
1163,1163,0.8750893499864453,0.9,0.0,0.0,450.0,795.0,0.0,1,135.0,1
1164,1164,0.5259531216565273,0.5,1.0,1.0,410.0,513.0,1.0,1,407.0,1
1165,1165,0.5707668067440125,0.6,0.0,0.0,310.0,690.0,0.0,1,170.0,1
1166,1166,-0.48598117113326866,-0.5,1.0,0.0,363.0,673.0,0.0,0,374.0,1
1167,1167,0.8116954474867458,0.8,1.0,1.0,360.0,655.0,1.0,1,155.0,1
1168,1168,-0.013200622823372976,-0.0,1.0,0.0,440.0,996.0,1.0,1,464.0,0
1169,1169,-0.09010207671477832,-0.1,0.0,1.0,423.0,535.0,1.0,0,752.0,1
1170,1170,-0.3213247953722498,-0.3,1.0,0.0,403.0,614.0,0.0,0,283.0,1
1171,1171,0.7991629204154554,0.8,0.0,0.0,468.0,870.0,0.0,1,112.0,1
1172,1172,0.6224265712916267,0.6,1.0,1.0,431.0,736.0,1.0,1,153.0,1
1173,1173,0.6363186974470475,0.6,0.0,0.0,437.0,892.0,0.0,1,171.0,1
1174,1174,-0.23738412390304686,-0.2,0.0,1.0,490.0,577.0,1.0,0,363.0,1
1175,1175,-0.6344929382335017,-0.6,1.0,0.0,451.0,881.0,0.0,0,138.0,1
1176,1176,-0.1601714552336415,-0.2,1.0,0.0,263.0,888.0,0.0,0,1209.0,1
1177,1177,0.2372412763118793,0.2,1.0,1.0,344.0,655.0,1.0,1,541.0,1
1178,1178,0.33514370578104746,0.3,0.0,0.0,290.0,619.0,0.0,1,161.0,1
1179,1179,-0.5741542207036094,-0.6,0.0,1.0,383.0,899.0,1.0,0,148.0,1
1180,1180,-0.31440578025885213,-0.3,1.0,0.0,308.0,539.0,0.0,0,303.0,1
1181,1181,-0.24703383445490779,-0.2,0.0,1.0,270.0,594.0,1.0,0,356.0,1
1182,1182,-0.8649924836688189,-0.9,0.0,1.0,422.0,677.0,1.0,0,201.0,1
1183,1183,0.6111639125910732,0.6,0.0,0.0,337.0,655.0,0.0,1,158.0,1
1184,1184,-0.5527383780642613,-0.6,0.0,1.0,419.0,943.0,1.0,0,28.0,1
1185,1185,-0.8402905013159778,-0.8,0.0,1.0,277.0,725.0,1.0,0,98.0,1
1186,1186,0.023180857686225242,0.0,0.0,0.0,451.0,743.0,1.0,0,1036.0,0
1187,1187,0.1968980351226165,0.2,0.0,0.0,307.0,818.0,0.0,1,445.0,1
1188,1188,0.360786377803184,0.4,1.0,1.0,345.0,811.0,1.0,1,104.0,1
1189,1189,-0.4962902639763237,-0.5,0.0,1.0,253.0,848.0,1.0,0,269.0,1
1190,1190,-0.5225064844468161,-0.5,1.0,0.0,386.0,666.0,0.0,0,208.0,1
1191,1191,-0.6762815569945503,-0.7,0.0,1.0,389.0,594.0,1.0,0,247.0,1
1192,1192,-0.6616388619383223,-0.7,1.0,0.0,480.0,732.0,0.0,0,98.0,1
1193,1193,0.6271962836204553,0.6,0.0,0.0,270.0,715.0,0.0,1,135.0,1
1194,1194,-0.8724267104237177,-0.9,1.0,0.0,394.0,647.0,0.0,0,159.0,1
1195,1195,-0.1560743581521684,-0.2,1.0,0.0,387.0,603.0,0.0,0,560.0,1
1196,1196,-0.2707760015180958,-0.3,0.0,1.0,405.0,756.0,1.0,0,259.0,1
1197,1197,0.755000984248657,0.8,0.0,0.0,321.0,681.0,0.0,1,258.0,1
1198,1198,0.569493918930296,0.6,0.0,0.0,468.0,531.0,0.0,1,381.0,1
1199,1199,0.562931139703546,0.6,0.0,0.0,411.0,695.0,0.0,1,194.0,1
1200,1200,0.46165185475931725,0.5,0.0,0.0,362.0,726.0,0.0,1,252.0,1
1201,1201,0.42858216101777014,0.4,1.0,1.0,279.0,852.0,1.0,1,259.0,1
1202,1202,0.5482505747005898,0.5,0.0,0.0,266.0,862.0,0.0,1,132.0,1
1203,1203,0.5343282166936848,0.5,1.0,1.0,463.0,754.0,1.0,1,143.0,1
1204,1204,0.23456942727000285,0.2,0.0,0.0,302.0,730.0,0.0,1,218.0,1
1205,1205,0.3179321789136683,0.3,1.0,1.0,387.0,561.0,1.0,1,222.0,1
1206,1206,-0.3805979156752204,-0.4,0.0,1.0,306.0,727.0,1.0,0,247.0,1
1207,1207,-0.5411061098179779,-0.5,0.0,1.0,497.0,571.0,1.0,0,212.0,1
1208,1208,-0.45348580666102944,-0.5,1.0,0.0,489.0,516.0,0.0,0,165.0,1
1209,1209,-0.6802915199812462,-0.7,1.0,0.0,277.0,622.0,0.0,0,161.0,1
1210,1210,0.4398920448778373,0.4,1.0,1.0,295.0,560.0,1.0,1,505.0,1
1211,1211,-0.2429641851179457,-0.2,1.0,0.0,490.0,793.0,0.0,0,427.0,1
1212,1212,0.2713914047309077,0.3,1.0,1.0,360.0,784.0,1.0,1,296.0,1
1213,1213,-0.1453479102852815,-0.1,1.0,0.0,326.0,623.0,0.0,0,821.0,1
1214,1214,0.2585569085598888,0.3,0.0,0.0,290.0,882.0,0.0,1,238.0,1
1215,1215,0.12068862932343916,0.1,0.0,0.0,277.0,810.0,0.0,1,793.0,1
1216,1216,0.4824726344779423,0.5,1.0,1.0,379.0,890.0,1.0,1,171.0,1
1217,1217,-0.637394775893708,-0.6,0.0,1.0,262.0,507.0,1.0,0,441.0,1
1218,1218,0.2639734236783152,0.3,0.0,0.0,359.0,963.0,0.0,1,358.0,1
1219,1219,-0.7036681596195553,-0.7,0.0,1.0,464.0,928.0,1.0,0,128.0,1
1220,1220,-0.23516760969822315,-0.2,0.0,1.0,405.0,982.0,1.0,0,153.0,1
1221,1221,-0.8372430891087815,-0.8,1.0,0.0,316.0,958.0,0.0,0,136.0,1
1222,1222,0.7546808778315578,0.8,0.0,0.0,451.0,756.0,0.0,1,133.0,1
1223,1223,-0.6929509706333812,-0.7,1.0,0.0,390.0,818.0,0.0,0,122.0,1
1224,1224,0.5156664700448704,0.5,0.0,0.0,385.0,966.0,0.0,1,279.0,1
1225,1225,0.28344558097513917,0.3,1.0,1.0,294.0,817.0,1.0,1,79.0,1
1226,1226,-0.6120950057277057,-0.6,1.0,0.0,464.0,684.0,0.0,0,152.0,1
1227,1227,0.645939457273151,0.6,1.0,1.0,321.0,675.0,1.0,1,204.0,1
1228,1228,0.6509862199136546,0.7,0.0,0.0,295.0,646.0,0.0,1,219.0,1
1229,1229,-0.041867948735323846,-0.0,0.0,1.0,470.0,671.0,1.0,0,709.0,1
1230,1230,0.09571059947948679,0.1,1.0,1.0,496.0,800.0,1.0,1,504.0,1
1231,1231,0.10176965085381295,0.1,0.0,0.0,370.0,708.0,0.0,1,1922.0,1
1232,1232,-0.22630281438289446,-0.2,0.0,1.0,449.0,828.0,1.0,0,233.0,1
1233,1233,-0.1672406303608036,-0.2,1.0,0.0,484.0,607.0,0.0,0,379.0,1
1234,1234,0.08531673008044283,0.1,0.0,0.0,287.0,639.0,0.0,1,2074.0,1
1235,1235,0.7268462159407983,0.7,0.0,0.0,483.0,813.0,0.0,1,144.0,1
1236,1236,0.8250385607568781,0.8,0.0,0.0,310.0,760.0,0.0,1,120.0,1
1237,1237,0.36693017239687375,0.4,0.0,0.0,367.0,670.0,0.0,1,153.0,1
1238,1238,-0.12006989530551015,-0.1,1.0,0.0,300.0,940.0,0.0,0,520.0,1
1239,1239,-0.6791905746795597,-0.7,0.0,1.0,292.0,664.0,1.0,0,284.0,1
1240,1240,0.4541129698392222,0.5,0.0,0.0,488.0,960.0,0.0,1,202.0,1
1241,1241,-0.8950958519119384,-0.9,1.0,0.0,284.0,803.0,0.0,0,103.0,1
1242,1242,0.31471206835979093,0.3,0.0,0.0,473.0,628.0,0.0,1,309.0,1
1243,1243,-0.4036203510098737,-0.4,1.0,0.0,448.0,704.0,0.0,0,308.0,1
1244,1244,-0.40054034447550324,-0.4,0.0,1.0,372.0,725.0,1.0,0,243.0,1
1245,1245,-0.4297625287176004,-0.4,0.0,1.0,381.0,971.0,1.0,0,138.0,1
1246,1246,-0.36516629862668815,-0.4,0.0,1.0,468.0,586.0,1.0,0,506.0,1
1247,1247,0.20736224324760644,0.2,0.0,0.0,482.0,963.0,0.0,1,265.0,1
1248,1248,0.27240234482436654,0.3,1.0,1.0,338.0,676.0,1.0,1,276.0,1
1249,1249,0.03320647979254998,0.0,1.0,1.0,356.0,961.0,1.0,1,723.0,1
1250,1250,0.15082731295321572,0.2,1.0,1.0,496.0,870.0,1.0,1,264.0,1
1251,1251,0.8933755952269721,0.9,0.0,0.0,329.0,964.0,0.0,1,227.0,1
1252,1252,-0.6025947239817113,-0.6,0.0,1.0,360.0,691.0,1.0,0,259.0,1
1253,1253,0.6493954647567121,0.6,0.0,0.0,332.0,699.0,0.0,1,319.0,1
1254,1254,0.6435406245157472,0.6,0.0,0.0,323.0,804.0,0.0,1,173.0,1
1255,1255,-0.21273755918241033,-0.2,1.0,0.0,295.0,724.0,0.0,0,521.0,1
1256,1256,0.06742063810879029,0.1,1.0,1.0,473.0,867.0,1.0,1,170.0,1
1257,1257,-0.04210063186916624,-0.0,1.0,0.0,290.0,546.0,0.0,0,2164.0,1
1258,1258,0.5920581039816494,0.6,1.0,1.0,263.0,524.0,1.0,1,283.0,1
1259,1259,0.323742549783835,0.3,1.0,1.0,313.0,564.0,1.0,1,53.0,1
1260,1260,0.2381393790660643,0.2,1.0,1.0,368.0,981.0,1.0,1,91.0,1
1261,1261,0.2664744315194253,0.3,1.0,1.0,334.0,653.0,1.0,1,283.0,1
1262,1262,-0.5409438676801078,-0.5,1.0,0.0,467.0,742.0,0.0,0,141.0,1
1263,1263,0.8385897788758193,0.8,1.0,1.0,324.0,983.0,1.0,1,193.0,1
1264,1264,-0.6346428401570849,-0.6,0.0,1.0,469.0,521.0,1.0,0,320.0,1
1265,1265,0.8000077497911308,0.8,1.0,1.0,395.0,820.0,1.0,1,65.0,1
1266,1266,-0.628188066270027,-0.6,1.0,0.0,254.0,872.0,0.0,0,124.0,1
1267,1267,0.8859734822410105,0.9,0.0,0.0,479.0,714.0,0.0,1,77.0,1
1268,1268,0.34953546386961276,0.3,0.0,0.0,405.0,639.0,0.0,1,446.0,1
1269,1269,0.7776702868342137,0.8,1.0,1.0,259.0,730.0,1.0,1,91.0,1
1270,1270,-0.0502864360889419,-0.1,1.0,0.0,274.0,957.0,1.0,1,1769.0,0
1271,1271,-0.894935263694787,-0.9,1.0,0.0,366.0,957.0,0.0,0,127.0,1
1272,1272,0.3845549836218142,0.4,0.0,0.0,378.0,877.0,0.0,1,315.0,1
1273,1273,0.6991268235307989,0.7,0.0,0.0,355.0,652.0,0.0,1,213.0,1
1274,1274,-0.8413008360180804,-0.8,0.0,1.0,355.0,876.0,1.0,0,149.0,1
1275,1275,0.18110338503116552,0.2,0.0,0.0,410.0,781.0,0.0,1,239.0,1
1276,1276,0.551410609966195,0.6,1.0,1.0,321.0,678.0,1.0,1,191.0,1
1277,1277,0.38132177309544957,0.4,0.0,0.0,265.0,897.0,0.0,1,388.0,1
1278,1278,0.6397407528844848,0.6,0.0,0.0,343.0,775.0,0.0,1,232.0,1
1279,1279,-0.8755928696806333,-0.9,0.0,1.0,386.0,834.0,1.0,0,90.0,1
1280,1280,0.157967486488522,0.2,1.0,1.0,272.0,967.0,1.0,1,281.0,1
1281,1281,-0.712473000412677,-0.7,1.0,0.0,361.0,559.0,0.0,0,180.0,1
1282,1282,0.48066606553427416,0.5,0.0,0.0,453.0,706.0,0.0,1,291.0,1
1283,1283,-0.05140744287790522,-0.1,1.0,0.0,384.0,906.0,1.0,1,470.0,0
1284,1284,-0.4873190048974653,-0.5,1.0,0.0,265.0,734.0,0.0,0,191.0,1
1285,1285,-0.13660982183154347,-0.1,0.0,1.0,267.0,683.0,1.0,0,410.0,1
1286,1286,0.6154226268025921,0.6,1.0,1.0,277.0,700.0,1.0,1,353.0,1
1287,1287,-0.8279570392234937,-0.8,0.0,1.0,472.0,783.0,1.0,0,175.0,1
1288,1288,0.46056086621844317,0.5,1.0,1.0,369.0,567.0,1.0,1,224.0,1
1289,1289,0.24009319521342654,0.2,0.0,0.0,344.0,781.0,0.0,1,585.0,1
1290,1290,-0.2703697211653827,-0.3,0.0,1.0,299.0,573.0,1.0,0,528.0,1
1291,1291,0.8984082490983579,0.9,1.0,1.0,495.0,604.0,1.0,1,231.0,1
1292,1292,0.6885704709940969,0.7,0.0,0.0,344.0,668.0,0.0,1,188.0,1
1293,1293,-0.8443407297632411,-0.8,0.0,1.0,412.0,553.0,1.0,0,245.0,1
1294,1294,-0.6227760709551208,-0.6,0.0,1.0,425.0,559.0,1.0,0,476.0,1
1295,1295,0.3387879561434469,0.3,0.0,0.0,450.0,881.0,0.0,1,259.0,1
1296,1296,-0.881628869370164,-0.9,0.0,1.0,264.0,604.0,1.0,0,162.0,1
1297,1297,-0.6413188004780033,-0.6,1.0,0.0,395.0,663.0,0.0,0,292.0,1
1298,1298,0.8170269731219179,0.8,1.0,1.0,396.0,729.0,1.0,1,195.0,1
1299,1299,0.4061286728961534,0.4,1.0,1.0,314.0,832.0,1.0,1,194.0,1
1300,1300,0.18068435569261732,0.2,0.0,0.0,438.0,991.0,0.0,1,861.0,1
1301,1301,-0.7889432361986499,-0.8,0.0,1.0,298.0,692.0,1.0,0,230.0,1
1302,1302,-0.6710674131567327,-0.7,0.0,1.0,405.0,591.0,1.0,0,254.0,1
1303,1303,0.30050506594940163,0.3,1.0,1.0,454.0,805.0,1.0,1,341.0,1
1304,1304,-0.1768064357791006,-0.2,1.0,0.0,380.0,537.0,0.0,0,463.0,1
1305,1305,0.5480010138383605,0.5,0.0,0.0,301.0,608.0,0.0,1,201.0,1
1306,1306,-0.0956138523202632,-0.1,1.0,0.0,376.0,743.0,0.0,0,1881.0,1
1307,1307,0.806685351018884,0.8,1.0,1.0,323.0,847.0,1.0,1,120.0,1
1308,1308,-0.30404425820886216,-0.3,0.0,1.0,338.0,501.0,1.0,0,341.0,1
1309,1309,-0.4519622632999453,-0.5,1.0,0.0,494.0,882.0,0.0,0,304.0,1
1310,1310,0.6254773665526591,0.6,1.0,1.0,256.0,653.0,1.0,1,201.0,1
1311,1311,0.7253078519448563,0.7,0.0,0.0,420.0,969.0,0.0,1,91.0,1
1312,1312,0.3168806234266327,0.3,0.0,0.0,345.0,515.0,0.0,1,520.0,1
1313,1313,0.4689593720952162,0.5,1.0,1.0,377.0,969.0,1.0,1,304.0,1
1314,1314,-0.4502361191670948,-0.5,1.0,0.0,476.0,719.0,0.0,0,275.0,1
1315,1315,-0.08034499268744844,-0.1,1.0,0.0,339.0,853.0,0.0,0,1268.0,1
1316,1316,-0.4745976017907557,-0.5,0.0,1.0,323.0,798.0,1.0,0,189.0,1
1317,1317,-0.12427617613595066,-0.1,1.0,0.0,374.0,878.0,0.0,0,868.0,1
1318,1318,-0.3397853720314107,-0.3,1.0,0.0,465.0,578.0,0.0,0,147.0,1
1319,1319,0.406885881702863,0.4,0.0,0.0,294.0,649.0,0.0,1,387.0,1
1320,1320,-0.737307223945838,-0.7,0.0,1.0,327.0,856.0,1.0,0,207.0,1
1321,1321,0.3339462514969843,0.3,1.0,1.0,274.0,668.0,1.0,1,228.0,1
1322,1322,-0.1812248492301458,-0.2,0.0,1.0,320.0,502.0,1.0,0,618.0,1
1323,1323,0.4706070317466259,0.5,1.0,1.0,296.0,746.0,1.0,1,168.0,1
1324,1324,-0.17263961949691986,-0.2,1.0,0.0,298.0,944.0,0.0,0,338.0,1
1325,1325,-0.155915324388597,-0.2,0.0,1.0,340.0,859.0,1.0,0,831.0,1
1326,1326,-0.49251675406332157,-0.5,0.0,1.0,494.0,988.0,1.0,0,158.0,1
1327,1327,-0.45762652841947876,-0.5,1.0,0.0,356.0,857.0,0.0,0,337.0,1
1328,1328,-0.16772579668868326,-0.2,0.0,1.0,336.0,540.0,1.0,0,514.0,1
1329,1329,-0.6698901124736869,-0.7,1.0,0.0,477.0,747.0,0.0,0,176.0,1
1330,1330,-0.4661235836459117,-0.5,1.0,0.0,273.0,968.0,0.0,0,159.0,1
1331,1331,-0.7973326557182377,-0.8,1.0,0.0,358.0,909.0,0.0,0,143.0,1
1332,1332,0.15781779511336136,0.2,1.0,1.0,274.0,952.0,1.0,1,464.0,1
1333,1333,-0.029949997887936064,-0.0,1.0,0.0,447.0,524.0,1.0,1,979.0,0
1334,1334,-0.3727783158379987,-0.4,1.0,0.0,274.0,828.0,0.0,0,328.0,1
1335,1335,-0.2762900485420564,-0.3,1.0,0.0,472.0,751.0,0.0,0,497.0,1
1336,1336,0.13259102245312204,0.1,0.0,0.0,467.0,857.0,0.0,1,1526.0,1
1337,1337,-0.010796778888327418,-0.0,0.0,1.0,412.0,830.0,1.0,0,1078.0,1
1338,1338,-0.5348289311595237,-0.5,1.0,0.0,413.0,979.0,0.0,0,198.0,1
1339,1339,-0.29177620747421906,-0.3,1.0,0.0,420.0,669.0,0.0,0,331.0,1
1340,1340,0.12982589655065702,0.1,0.0,0.0,363.0,706.0,0.0,1,401.0,1
1341,1341,0.6830967599050067,0.7,1.0,1.0,408.0,826.0,1.0,1,116.0,1
1342,1342,0.5910308122213869,0.6,1.0,1.0,428.0,775.0,1.0,1,247.0,1
1343,1343,-0.5182165107968979,-0.5,0.0,1.0,412.0,786.0,1.0,0,262.0,1
1344,1344,0.4048512968107899,0.4,0.0,0.0,404.0,827.0,0.0,1,139.0,1
1345,1345,0.7206877854709025,0.7,1.0,1.0,313.0,937.0,1.0,1,170.0,1
1346,1346,-0.26110802532463573,-0.3,1.0,0.0,465.0,631.0,0.0,0,404.0,1
1347,1347,-0.3519844257368002,-0.4,1.0,0.0,452.0,551.0,0.0,0,287.0,1
1348,1348,0.8671818485963702,0.9,1.0,1.0,497.0,629.0,1.0,1,174.0,1
1349,1349,-0.047109964533183946,-0.0,0.0,1.0,301.0,538.0,1.0,0,711.0,1
1350,1350,0.822140009996608,0.8,1.0,1.0,428.0,980.0,1.0,1,12.0,1
1351,1351,-0.1195746180307935,-0.1,1.0,0.0,364.0,527.0,0.0,0,1989.0,1
1352,1352,-0.3264434544439764,-0.3,1.0,0.0,421.0,565.0,0.0,0,304.0,1
1353,1353,-0.08104261110209565,-0.1,1.0,0.0,258.0,806.0,0.0,0,1306.0,1
1354,1354,0.26369085938174475,0.3,1.0,1.0,450.0,940.0,1.0,1,190.0,1
1355,1355,-0.456043029805362,-0.5,0.0,1.0,347.0,986.0,1.0,0,-133.0,1
1356,1356,-0.2803135998571784,-0.3,1.0,0.0,328.0,908.0,0.0,0,314.0,1
1357,1357,0.5795699905749913,0.6,0.0,0.0,422.0,569.0,0.0,1,259.0,1
1358,1358,-0.31710249377247013,-0.3,0.0,1.0,418.0,742.0,1.0,0,160.0,1
1359,1359,0.024042216885267753,0.0,0.0,0.0,297.0,991.0,1.0,0,522.0,0
1360,1360,0.17772659336219154,0.2,0.0,0.0,432.0,664.0,0.0,1,774.0,1
1361,1361,-0.014727792795277583,-0.0,0.0,1.0,271.0,949.0,1.0,0,540.0,1
1362,1362,-0.1587700243171315,-0.2,1.0,0.0,267.0,597.0,0.0,0,816.0,1
1363,1363,-0.835953738859889,-0.8,0.0,1.0,294.0,854.0,1.0,0,122.0,1
1364,1364,0.29629950747197686,0.3,1.0,1.0,366.0,949.0,1.0,1,85.0,1
1365,1365,0.3391414039553645,0.3,0.0,0.0,302.0,843.0,0.0,1,385.0,1
1366,1366,-0.6350983475612251,-0.6,0.0,1.0,449.0,505.0,1.0,0,266.0,1
1367,1367,0.07509286455808406,0.1,1.0,1.0,446.0,996.0,1.0,1,468.0,1
1368,1368,-0.7418220267858764,-0.7,0.0,1.0,287.0,762.0,1.0,0,271.0,1
1369,1369,-0.6366218569369202,-0.6,1.0,0.0,326.0,743.0,0.0,0,301.0,1
1370,1370,0.5836722277499825,0.6,1.0,1.0,308.0,867.0,1.0,1,355.0,1
1371,1371,-0.5597406040814625,-0.6,0.0,1.0,253.0,829.0,1.0,0,598.0,1
1372,1372,0.45897769288743995,0.5,0.0,0.0,387.0,953.0,0.0,1,140.0,1
1373,1373,0.8730593569047899,0.9,1.0,1.0,478.0,949.0,1.0,1,73.0,1
1374,1374,0.8287454256485219,0.8,1.0,1.0,273.0,835.0,1.0,1,252.0,1
1375,1375,-0.0017257340026699541,-0.0,1.0,0.0,379.0,562.0,1.0,1,1199.0,0
1376,1376,0.6182955689502102,0.6,1.0,1.0,338.0,595.0,1.0,1,117.0,1
1377,1377,0.7359082157292011,0.7,0.0,0.0,465.0,796.0,0.0,1,159.0,1
1378,1378,-0.25284663453288225,-0.3,0.0,1.0,337.0,883.0,1.0,0,150.0,1
1379,1379,0.018725497166260374,0.0,1.0,1.0,271.0,598.0,1.0,1,541.0,1
1380,1380,-0.1281923628016126,-0.1,0.0,1.0,460.0,975.0,1.0,0,1075.0,1
1381,1381,-0.4125966185666952,-0.4,1.0,0.0,371.0,785.0,0.0,0,254.0,1
1382,1382,0.6929770968597361,0.7,1.0,1.0,255.0,809.0,1.0,1,206.0,1
1383,1383,-0.23414616287865053,-0.2,1.0,0.0,292.0,869.0,0.0,0,339.0,1
1384,1384,-0.13675750897484273,-0.1,1.0,0.0,418.0,554.0,0.0,0,758.0,1
1385,1385,-0.4292689097212328,-0.4,1.0,0.0,419.0,826.0,0.0,0,435.0,1
1386,1386,0.17079768829676067,0.2,1.0,1.0,371.0,626.0,1.0,1,523.0,1
1387,1387,-0.5908395650715212,-0.6,0.0,1.0,451.0,678.0,1.0,0,321.0,1
1388,1388,0.7805385054086641,0.8,0.0,0.0,366.0,980.0,0.0,1,84.0,1
1389,1389,-0.02752375736016488,-0.0,0.0,1.0,494.0,672.0,1.0,0,834.0,1
1390,1390,-0.06212474948608693,-0.1,0.0,1.0,432.0,533.0,1.0,0,785.0,1
1391,1391,-0.4756547067669152,-0.5,1.0,0.0,287.0,649.0,0.0,0,444.0,1
1392,1392,-0.7897587651563651,-0.8,0.0,1.0,441.0,876.0,1.0,0,163.0,1
1393,1393,-0.41259689645323144,-0.4,1.0,0.0,304.0,850.0,0.0,0,146.0,1
1394,1394,0.28433569679294324,0.3,1.0,1.0,387.0,753.0,1.0,1,240.0,1
1395,1395,-0.10863562818714056,-0.1,1.0,0.0,296.0,539.0,0.0,0,1775.0,1
1396,1396,0.5644331698225612,0.6,1.0,1.0,455.0,543.0,1.0,1,262.0,1
1397,1397,0.6483385529771478,0.6,0.0,0.0,475.0,574.0,0.0,1,211.0,1
1398,1398,0.8517921427187468,0.9,0.0,0.0,427.0,570.0,0.0,1,113.0,1
1399,1399,0.13897607405515833,0.1,1.0,1.0,461.0,860.0,1.0,1,249.0,1
1400,1400,-0.49586896009846065,-0.5,1.0,0.0,285.0,760.0,0.0,0,175.0,1
1401,1401,-0.7710458857504221,-0.8,1.0,0.0,262.0,759.0,0.0,0,189.0,1
1402,1402,0.8866509630493108,0.9,0.0,0.0,425.0,585.0,0.0,1,200.0,1
1403,1403,0.2922879524871155,0.3,0.0,0.0,313.0,859.0,0.0,1,968.0,1
1404,1404,-0.2689009635549784,-0.3,0.0,1.0,262.0,968.0,1.0,0,270.0,1
1405,1405,0.548411969292021,0.5,0.0,0.0,389.0,788.0,0.0,1,173.0,1
1406,1406,0.24079844163689434,0.2,0.0,0.0,466.0,835.0,0.0,1,149.0,1
1407,1407,0.45099807301259387,0.5,1.0,1.0,254.0,949.0,1.0,1,27.0,1
1408,1408,-0.41612153233127175,-0.4,1.0,0.0,470.0,623.0,0.0,0,357.0,1
1409,1409,-0.3284116974627693,-0.3,1.0,0.0,423.0,966.0,0.0,0,251.0,1
1410,1410,-0.6115883293519444,-0.6,1.0,0.0,294.0,537.0,0.0,0,209.0,1
1411,1411,-0.5663949686101724,-0.6,0.0,1.0,316.0,563.0,1.0,0,221.0,1
1412,1412,-0.26291245351080683,-0.3,1.0,0.0,346.0,774.0,0.0,0,390.0,1
1413,1413,0.1775787494575688,0.2,1.0,1.0,433.0,811.0,1.0,1,406.0,1
1414,1414,0.2850170471682084,0.3,0.0,0.0,369.0,521.0,0.0,1,890.0,1
1415,1415,0.5804143941595367,0.6,1.0,1.0,478.0,707.0,1.0,1,215.0,1
1416,1416,-0.11597075250475708,-0.1,1.0,0.0,400.0,510.0,0.0,0,580.0,1
1417,1417,0.6896029913006273,0.7,1.0,1.0,389.0,931.0,1.0,1,210.0,1
1418,1418,0.1355128051704909,0.1,0.0,0.0,269.0,865.0,0.0,1,756.0,1
1419,1419,-0.5971257289378908,-0.6,0.0,1.0,423.0,858.0,1.0,0,279.0,1
1420,1420,0.28106474128594405,0.3,1.0,1.0,397.0,584.0,1.0,1,339.0,1
1421,1421,-0.8318312649960524,-0.8,0.0,1.0,277.0,629.0,1.0,0,404.0,1
1422,1422,-0.6051905989355753,-0.6,0.0,1.0,431.0,882.0,1.0,0,127.0,1
1423,1423,0.4681929607218914,0.5,0.0,0.0,406.0,737.0,0.0,1,167.0,1
1424,1424,0.2635307990914425,0.3,0.0,0.0,269.0,899.0,0.0,1,272.0,1
1425,1425,0.5553540254655432,0.6,0.0,0.0,322.0,893.0,0.0,1,65.0,1
1426,1426,-0.4769833032932582,-0.5,1.0,0.0,255.0,629.0,0.0,0,456.0,1
1427,1427,-0.8358143764980297,-0.8,0.0,1.0,462.0,523.0,1.0,0,265.0,1
1428,1428,0.7132383995408297,0.7,1.0,1.0,480.0,920.0,1.0,1,220.0,1
1429,1429,-0.4226180123852351,-0.4,1.0,0.0,254.0,835.0,0.0,0,251.0,1
1430,1430,-0.3499369908981841,-0.3,1.0,0.0,252.0,560.0,0.0,0,448.0,1
1431,1431,0.7311946003006117,0.7,0.0,0.0,424.0,537.0,0.0,1,159.0,1
1432,1432,0.1902206091465476,0.2,0.0,0.0,462.0,946.0,0.0,1,312.0,1
1433,1433,-0.35112520125923297,-0.4,1.0,0.0,353.0,704.0,0.0,0,453.0,1
1434,1434,-0.038927152394076736,-0.0,1.0,0.0,421.0,784.0,1.0,1,1795.0,0
1435,1435,-0.7245275804940652,-0.7,1.0,0.0,461.0,682.0,0.0,0,237.0,1
1436,1436,0.568491537731208,0.6,0.0,0.0,268.0,572.0,0.0,1,200.0,1
1437,1437,0.8284104259337518,0.8,0.0,0.0,397.0,671.0,0.0,1,212.0,1
1438,1438,0.611621232562113,0.6,1.0,1.0,428.0,524.0,1.0,1,298.0,1
1439,1439,0.4328164120068364,0.4,1.0,1.0,323.0,647.0,1.0,1,250.0,1
1440,1440,0.7170193308428726,0.7,1.0,1.0,374.0,530.0,1.0,1,426.0,1
1441,1441,0.8853211723508371,0.9,0.0,0.0,474.0,998.0,0.0,1,48.0,1
1442,1442,-0.20982914909455286,-0.2,1.0,0.0,487.0,727.0,0.0,0,726.0,1
1443,1443,-0.18792358817166932,-0.2,0.0,1.0,394.0,579.0,1.0,0,487.0,1
1444,1444,0.33767742371723763,0.3,0.0,0.0,304.0,611.0,0.0,1,365.0,1
1445,1445,0.8890668969449459,0.9,1.0,1.0,382.0,993.0,1.0,1,85.0,1
1446,1446,0.4802610611217454,0.5,1.0,1.0,350.0,632.0,1.0,1,318.0,1
1447,1447,0.8106046234598848,0.8,1.0,1.0,424.0,544.0,1.0,1,252.0,1
1448,1448,-0.08718457969834192,-0.1,0.0,1.0,297.0,534.0,1.0,0,1059.0,1
1449,1449,-0.15874614723251734,-0.2,1.0,0.0,277.0,928.0,0.0,0,675.0,1
1450,1450,-0.4032782074180398,-0.4,1.0,0.0,279.0,832.0,0.0,0,269.0,1
1451,1451,-0.13229389766677424,-0.1,1.0,0.0,499.0,764.0,0.0,0,1737.0,1
1452,1452,-0.475657181719584,-0.5,0.0,1.0,474.0,653.0,1.0,0,223.0,1
1453,1453,0.5490860854267977,0.5,1.0,1.0,447.0,927.0,1.0,1,156.0,1
1454,1454,-0.12530515036848344,-0.1,1.0,0.0,307.0,894.0,0.0,0,1479.0,1
1455,1455,-0.14876990686803127,-0.1,0.0,1.0,418.0,566.0,1.0,0,736.0,1
1456,1456,0.4094051758923315,0.4,1.0,1.0,352.0,667.0,1.0,1,371.0,1
1457,1457,-0.5797547194635815,-0.6,1.0,0.0,250.0,803.0,0.0,0,247.0,1
1458,1458,0.4958098439698252,0.5,0.0,0.0,498.0,602.0,0.0,1,190.0,1
1459,1459,0.5554604634383712,0.6,1.0,1.0,385.0,966.0,1.0,1,149.0,1
1460,1460,-0.8272616232072085,-0.8,0.0,1.0,368.0,536.0,1.0,0,246.0,1
1461,1461,0.8241806841221252,0.8,1.0,1.0,311.0,562.0,1.0,1,427.0,1
1462,1462,0.14518004590973044,0.1,0.0,0.0,267.0,906.0,0.0,1,1827.0,1
1463,1463,-0.7871364718408852,-0.8,0.0,1.0,461.0,824.0,1.0,0,135.0,1
1464,1464,0.8474027062755997,0.8,0.0,0.0,263.0,573.0,0.0,1,544.0,1
1465,1465,0.34782740757888686,0.3,0.0,0.0,453.0,826.0,0.0,1,201.0,1
1466,1466,-0.6291522766229887,-0.6,0.0,1.0,275.0,545.0,1.0,0,240.0,1
1467,1467,-0.10863420331104046,-0.1,1.0,0.0,444.0,895.0,0.0,0,671.0,1
1468,1468,-0.8076851528879255,-0.8,1.0,0.0,262.0,787.0,0.0,0,141.0,1
1469,1469,0.6227477662567885,0.6,0.0,0.0,325.0,688.0,0.0,1,207.0,1
1470,1470,-0.24764115958369315,-0.2,0.0,1.0,397.0,593.0,1.0,0,440.0,1
1471,1471,-0.1010431098535256,-0.1,1.0,0.0,424.0,738.0,0.0,0,1838.0,1
1472,1472,-0.8346693384111482,-0.8,0.0,1.0,321.0,872.0,1.0,0,107.0,1
1473,1473,0.3152413375100952,0.3,1.0,1.0,413.0,713.0,1.0,1,454.0,1
1474,1474,0.5440638838472761,0.5,0.0,0.0,466.0,781.0,0.0,1,193.0,1
1475,1475,0.7395659727207643,0.7,1.0,1.0,379.0,763.0,1.0,1,258.0,1
1476,1476,-0.07330784433551096,-0.1,0.0,1.0,453.0,972.0,1.0,0,485.0,1
1477,1477,-0.7106671595343542,-0.7,1.0,0.0,348.0,526.0,0.0,0,206.0,1
1478,1478,-0.23688907859266317,-0.2,1.0,0.0,372.0,825.0,0.0,0,373.0,1
1479,1479,0.15292663708643717,0.2,0.0,0.0,451.0,846.0,0.0,1,533.0,1
1480,1480,0.5727912528062055,0.6,1.0,1.0,287.0,980.0,1.0,1,93.0,1
1481,1481,0.5408576800368733,0.5,1.0,1.0,475.0,940.0,1.0,1,165.0,1
1482,1482,0.7145782397556119,0.7,1.0,1.0,359.0,532.0,1.0,1,189.0,1
1483,1483,-0.32832096186032245,-0.3,1.0,0.0,475.0,605.0,0.0,0,540.0,1
1484,1484,0.3049987516666647,0.3,0.0,0.0,364.0,925.0,0.0,1,151.0,1
1485,1485,-0.41887871977402574,-0.4,0.0,1.0,324.0,990.0,1.0,0,176.0,1
1486,1486,-0.029890121001622916,-0.0,1.0,0.0,374.0,838.0,1.0,1,398.0,0
1487,1487,0.08889002015971925,0.1,0.0,0.0,480.0,604.0,0.0,1,1916.0,1
1488,1488,0.6521889263756181,0.7,0.0,0.0,457.0,559.0,0.0,1,304.0,1
1489,1489,0.6067295846882151,0.6,1.0,1.0,294.0,519.0,1.0,1,207.0,1
1490,1490,-0.807133368568205,-0.8,1.0,0.0,351.0,827.0,0.0,0,232.0,1
1491,1491,-0.35266828830491415,-0.4,0.0,1.0,482.0,561.0,1.0,0,547.0,1
1492,1492,0.7306479405000329,0.7,1.0,1.0,439.0,602.0,1.0,1,339.0,1
1493,1493,-0.8018517979749387,-0.8,0.0,1.0,297.0,783.0,1.0,0,220.0,1
