,trial,coherence,coherence_bin,green_side,correct_side,target_onset,checker_onset,decision,green_decision,decision_time,correct_decision
0,0,0.3117130535241893,0.3,1.0,1.0,331.0,945.0,1.0,1,-846.0,1
1,1,0.8250444457088079,0.8,1.0,1.0,497.0,907.0,1.0,1,-1164.0,1
2,2,0.2881764851682779,0.3,1.0,1.0,483.0,967.0,1.0,1,-460.0,1
3,3,0.8000753386749778,0.8,1.0,1.0,298.0,916.0,0.0,0,816.0,0
4,4,0.6833156973446602,0.7,1.0,1.0,308.0,753.0,0.0,0,-321.0,0
5,5,0.3047733818268362,0.3,0.0,0.0,282.0,797.0,0.0,1,-429.0,1
6,6,0.7643252462786002,0.8,1.0,1.0,261.0,747.0,0.0,0,-508.0,0
7,7,0.7461817510235836,0.7,0.0,0.0,487.0,959.0,1.0,0,-1366.0,0
8,8,-0.1870812645743758,-0.2,0.0,1.0,375.0,801.0,0.0,1,-636.0,0
9,9,0.7476066002148926,0.7,1.0,1.0,427.0,979.0,0.0,0,-1056.0,0
10,10,-0.7350363314422557,-0.7,1.0,0.0,487.0,639.0,1.0,1,204.0,0
11,11,0.14133694870096225,0.1,0.0,0.0,440.0,531.0,0.0,1,149.0,1
12,12,0.2691354735275767,0.3,1.0,1.0,293.0,533.0,1.0,1,-816.0,1
13,13,0.5704842612142681,0.6,1.0,1.0,405.0,952.0,0.0,0,-1117.0,0
14,14,-0.6019127750998076,-0.6,1.0,0.0,498.0,970.0,0.0,0,1672.0,1
15,15,0.5210495419476421,0.5,0.0,0.0,451.0,625.0,1.0,0,-676.0,0
16,16,0.20169912415950686,0.2,0.0,0.0,472.0,852.0,1.0,0,-744.0,0
17,17,-0.23797823078423086,-0.2,1.0,0.0,377.0,807.0,0.0,0,46.0,1
18,18,0.7102925365378109,0.7,0.0,0.0,423.0,676.0,0.0,1,1281.0,1
19,19,-0.8840900145122859,-0.9,1.0,0.0,474.0,961.0,1.0,1,-1395.0,0
20,20,0.7165213215535463,0.7,0.0,0.0,293.0,742.0,0.0,1,-45.0,1
21,21,0.6593583306112832,0.7,1.0,1.0,255.0,760.0,1.0,1,3985.0,1
22,22,-0.532558271422783,-0.5,0.0,1.0,455.0,958.0,1.0,0,527.0,1
23,23,0.4582965839560992,0.5,1.0,1.0,415.0,786.0,0.0,0,509.0,0
24,24,0.39064185778267346,0.4,1.0,1.0,415.0,792.0,0.0,0,-547.0,0
25,25,-0.41265195245570424,-0.4,1.0,0.0,495.0,737.0,1.0,1,128.0,0
26,26,-0.36165297177260114,-0.4,1.0,0.0,329.0,800.0,1.0,1,-319.0,0
27,27,0.7820136170066164,0.8,1.0,1.0,270.0,835.0,1.0,1,-635.0,1
28,28,0.16621956735909305,0.2,0.0,0.0,489.0,683.0,1.0,0,-682.0,0
29,29,-0.3713144026736359,-0.4,1.0,0.0,485.0,689.0,0.0,0,1086.0,1
30,30,0.7291253618339729,0.7,1.0,1.0,319.0,833.0,0.0,0,-1122.0,0
31,31,-0.08256135999354763,-0.1,1.0,0.0,263.0,993.0,0.0,0,-1006.0,1
32,32,-0.8177025466084163,-0.8,1.0,0.0,416.0,992.0,0.0,0,-978.0,1
33,33,-0.5523954662662796,-0.6,0.0,1.0,352.0,767.0,0.0,1,-1059.0,0
34,34,-0.5959360575892576,-0.6,0.0,1.0,496.0,561.0,0.0,1,-437.0,0
35,35,0.4570189055639685,0.5,0.0,0.0,362.0,588.0,1.0,0,-910.0,0
36,36,0.6169071345751415,0.6,0.0,0.0,273.0,701.0,0.0,1,286.0,1
37,37,0.051374561593806045,0.1,0.0,0.0,435.0,699.0,1.0,0,-254.0,0
38,38,-0.8506975802015316,-0.9,0.0,1.0,356.0,745.0,0.0,1,1229.0,0
39,39,0.5980570179351642,0.6,0.0,0.0,443.0,544.0,1.0,0,-317.0,0
40,40,-0.6300040237156106,-0.6,1.0,0.0,383.0,980.0,0.0,0,-183.0,1
41,41,-0.12870566753235524,-0.1,0.0,1.0,445.0,722.0,0.0,1,603.0,0
42,42,0.35108094646891785,0.4,1.0,1.0,386.0,797.0,1.0,1,-753.0,1
43,43,0.6086009610291695,0.6,0.0,0.0,434.0,867.0,1.0,0,-1261.0,0
44,44,-0.1778026258340034,-0.2,1.0,0.0,338.0,803.0,1.0,1,669.0,0
45,45,0.6886155692958668,0.7,1.0,1.0,266.0,683.0,0.0,0,-899.0,0
46,46,0.5286277112085959,0.5,0.0,0.0,276.0,918.0,1.0,0,1706.0,0
47,47,0.217862059107523,0.2,0.0,0.0,493.0,992.0,0.0,1,835.0,1
48,48,0.8561359099093465,0.9,0.0,0.0,474.0,617.0,1.0,0,2109.0,0
49,49,-0.14050159677303842,-0.1,0.0,1.0,448.0,734.0,1.0,0,-642.0,1
50,50,0.7498913059081888,0.7,1.0,1.0,339.0,612.0,0.0,0,809.0,0
51,51,0.4923642244250509,0.5,0.0,0.0,489.0,551.0,1.0,0,-1040.0,0
52,52,0.74507270960792,0.7,0.0,0.0,485.0,926.0,1.0,0,3589.0,0
53,53,0.23162220484290896,0.2,0.0,0.0,281.0,571.0,1.0,0,-602.0,0
54,54,-0.36233593172436485,-0.4,1.0,0.0,450.0,526.0,0.0,0,-866.0,1
55,55,-0.3445043233004561,-0.3,0.0,1.0,458.0,663.0,1.0,0,-541.0,1
56,56,0.15202793785712176,0.2,0.0,0.0,404.0,863.0,0.0,1,-1197.0,1
57,57,-0.7805822419459639,-0.8,0.0,1.0,264.0,539.0,1.0,0,1057.0,1
58,58,0.4531560343465123,0.5,0.0,0.0,420.0,563.0,0.0,1,897.0,1
59,59,0.06633469434565986,0.1,0.0,0.0,380.0,844.0,1.0,0,-514.0,0
60,60,0.18176574697296533,0.2,0.0,0.0,448.0,864.0,0.0,1,-2.0,1
61,61,0.762313779397466,0.8,1.0,1.0,302.0,938.0,1.0,1,110.0,1
62,62,0.3536812093162963,0.4,0.0,0.0,451.0,877.0,1.0,0,-1018.0,0
63,63,-0.8107511793449226,-0.8,1.0,0.0,446.0,716.0,0.0,0,-252.0,1
64,64,0.5402389781652451,0.5,0.0,0.0,321.0,635.0,1.0,0,-706.0,0
65,65,0.42795394417322996,0.4,1.0,1.0,421.0,679.0,0.0,0,310.0,0
66,66,0.746173100304374,0.7,1.0,1.0,280.0,896.0,0.0,0,-1026.0,0
67,67,0.7897964678768091,0.8,0.0,0.0,261.0,637.0,0.0,1,-748.0,1
68,68,-0.7536644544988151,-0.8,0.0,1.0,251.0,829.0,1.0,0,-750.0,1
69,69,-0.23858249998361158,-0.2,0.0,1.0,383.0,848.0,0.0,1,339.0,0
70,70,0.008343983956097256,0.0,0.0,0.0,355.0,906.0,1.0,0,1719.0,0
71,71,0.5262359209968966,0.5,0.0,0.0,324.0,554.0,1.0,0,332.0,0
72,72,0.5307972655474881,0.5,0.0,0.0,328.0,648.0,1.0,0,-236.0,0
73,73,-0.4932650867189141,-0.5,0.0,1.0,303.0,820.0,1.0,0,-163.0,1
74,74,-0.27709100056976377,-0.3,0.0,1.0,493.0,724.0,1.0,0,-1167.0,1
75,75,0.6736882174022577,0.7,1.0,1.0,426.0,717.0,0.0,0,277.0,0
76,76,-0.3985955981360373,-0.4,0.0,1.0,445.0,798.0,0.0,1,1057.0,0
77,77,-0.6497561740509072,-0.6,1.0,0.0,315.0,697.0,0.0,0,-962.0,1
78,78,0.08485909664098479,0.1,1.0,1.0,317.0,698.0,1.0,1,315.0,1
79,79,0.21585267452486667,0.2,1.0,1.0,425.0,688.0,1.0,1,-953.0,1
80,80,0.5250779881168349,0.5,0.0,0.0,434.0,572.0,0.0,1,-776.0,1
81,81,-0.2808911031531809,-0.3,0.0,1.0,471.0,753.0,0.0,1,-1014.0,0
82,82,0.8885726906343417,0.9,0.0,0.0,368.0,948.0,1.0,0,-446.0,0
83,83,0.43089753876568226,0.4,0.0,0.0,270.0,936.0,1.0,0,-626.0,0
84,84,0.4364669147940051,0.4,1.0,1.0,461.0,848.0,0.0,0,3691.0,0
85,85,0.5250564505562699,0.5,0.0,0.0,483.0,589.0,1.0,0,788.0,0
86,86,0.8025356070702175,0.8,1.0,1.0,320.0,558.0,1.0,1,312.0,1
87,87,0.023344901016248087,0.0,0.0,0.0,352.0,814.0,1.0,0,2274.0,0
88,88,-0.14558201756245015,-0.1,0.0,1.0,367.0,927.0,1.0,0,-904.0,1
89,89,-0.3945644264744733,-0.4,0.0,1.0,281.0,910.0,1.0,0,-51.0,1
90,90,0.8585734108010469,0.9,0.0,0.0,474.0,693.0,1.0,0,-677.0,0
91,91,0.7865386695619795,0.8,0.0,0.0,352.0,717.0,1.0,0,-509.0,0
92,92,0.7081484874038647,0.7,0.0,0.0,448.0,926.0,1.0,0,-1344.0,0
93,93,0.22480998301244604,0.2,0.0,0.0,385.0,625.0,1.0,0,250.0,0
94,94,0.3650244756935469,0.4,0.0,0.0,446.0,748.0,1.0,0,-714.0,0
95,95,-0.6189608908831841,-0.6,1.0,0.0,443.0,856.0,1.0,1,-1019.0,0
96,96,-0.319225997409766,-0.3,0.0,1.0,426.0,522.0,0.0,1,-518.0,0
97,97,0.7798709694313705,0.8,1.0,1.0,283.0,939.0,1.0,1,-1052.0,1
98,98,-0.6246429886785091,-0.6,0.0,1.0,489.0,651.0,1.0,0,-610.0,1
99,99,-0.4459605723955023,-0.4,0.0,1.0,351.0,638.0,0.0,1,-739.0,0
100,100,0.3642204225835223,0.4,1.0,1.0,403.0,752.0,1.0,1,-455.0,1
101,101,-0.05731473178932389,-0.1,0.0,1.0,262.0,665.0,1.0,0,-587.0,1
102,102,-0.13292006706736292,-0.1,0.0,1.0,322.0,896.0,1.0,0,-1118.0,1
103,103,-0.09215892797913017,-0.1,1.0,0.0,360.0,732.0,0.0,0,-122.0,1
104,104,-0.7015790635590877,-0.7,0.0,1.0,274.0,819.0,1.0,0,-153.0,1
105,105,0.8674993991596059,0.9,0.0,0.0,261.0,548.0,0.0,1,451.0,1
106,106,-0.1514360151636125,-0.2,1.0,0.0,299.0,740.0,1.0,1,-1029.0,0
107,107,-0.3526923879633509,-0.4,1.0,0.0,314.0,755.0,0.0,0,2211.0,1
108,108,0.3376660963954031,0.3,1.0,1.0,367.0,669.0,0.0,0,454.0,0
109,109,0.1247351305819816,0.1,0.0,0.0,391.0,706.0,1.0,0,633.0,0
110,110,-0.8745232279338276,-0.9,0.0,1.0,401.0,807.0,1.0,0,-458.0,1
111,111,0.589018893756439,0.6,0.0,0.0,462.0,676.0,0.0,1,142.0,1
112,112,0.006719646777556765,0.0,0.0,0.0,433.0,926.0,1.0,0,21.0,0
113,113,0.5668331916149022,0.6,1.0,1.0,336.0,506.0,1.0,1,248.0,1
114,114,-0.8135159595572858,-0.8,1.0,0.0,349.0,835.0,0.0,0,1316.0,1
115,115,0.8029692920620043,0.8,0.0,0.0,433.0,879.0,0.0,1,-1282.0,1
116,116,-0.016995589208994577,-0.0,1.0,0.0,254.0,614.0,1.0,1,-788.0,0
117,117,0.8594072702012757,0.9,0.0,0.0,424.0,990.0,1.0,0,-1364.0,0
118,118,0.7825445349657486,0.8,0.0,0.0,287.0,518.0,1.0,0,-535.0,0
119,119,-0.5704496461928318,-0.6,1.0,0.0,359.0,732.0,0.0,0,169.0,1
120,120,0.889848616097365,0.9,0.0,0.0,369.0,954.0,0.0,1,-863.0,1
121,121,0.5105276984026507,0.5,1.0,1.0,423.0,820.0,0.0,0,-293.0,0
122,122,0.16064966604920772,0.2,1.0,1.0,491.0,911.0,0.0,0,-1322.0,0
123,123,0.20488333267723313,0.2,1.0,1.0,290.0,851.0,1.0,1,1199.0,1
124,124,0.46469754845293954,0.5,1.0,1.0,433.0,734.0,0.0,0,-477.0,0
125,125,0.5971600217972889,0.6,1.0,1.0,450.0,865.0,1.0,1,-665.0,1
126,126,0.773557763614333,0.8,0.0,0.0,284.0,848.0,1.0,0,308.0,0
127,127,0.7019850085223648,0.7,1.0,1.0,433.0,668.0,1.0,1,959.0,1
128,128,0.25763047086520163,0.3,1.0,1.0,307.0,689.0,1.0,1,-996.0,1
129,129,-0.5733561892743774,-0.6,0.0,1.0,376.0,702.0,1.0,0,572.0,1
130,130,-0.16927506701062434,-0.2,0.0,1.0,309.0,787.0,1.0,0,1614.0,1
131,131,0.6974139205282278,0.7,0.0,0.0,499.0,655.0,1.0,0,-1034.0,0
132,132,-0.729064409722997,-0.7,0.0,1.0,273.0,821.0,0.0,1,-904.0,0
133,133,0.6824598315729337,0.7,1.0,1.0,392.0,689.0,0.0,0,-641.0,0
134,134,-0.0751080668463373,-0.1,1.0,0.0,377.0,781.0,1.0,1,2422.0,0
135,135,-0.7089375905106843,-0.7,0.0,1.0,388.0,740.0,0.0,1,-1088.0,0
136,136,0.767215696406674,0.8,0.0,0.0,446.0,694.0,1.0,0,-570.0,0
137,137,0.03528611858655617,0.0,1.0,1.0,347.0,822.0,0.0,0,3131.0,0
138,138,-0.3540494210970785,-0.4,1.0,0.0,460.0,823.0,0.0,0,527.0,1
139,139,0.5057713392717974,0.5,1.0,1.0,392.0,833.0,1.0,1,-45.0,1
140,140,-0.7019853090140775,-0.7,1.0,0.0,259.0,977.0,1.0,1,754.0,0
141,141,-0.4012536920466704,-0.4,0.0,1.0,347.0,559.0,1.0,0,-36.0,1
142,142,-0.17009067958460222,-0.2,1.0,0.0,254.0,644.0,0.0,0,452.0,1
143,143,0.4018771741948052,0.4,1.0,1.0,359.0,525.0,0.0,0,-594.0,0
144,144,0.10482147176602263,0.1,1.0,1.0,410.0,534.0,0.0,0,3126.0,0
145,145,0.40815984515607096,0.4,1.0,1.0,393.0,698.0,0.0,0,-1061.0,0
146,146,0.8774200396518658,0.9,0.0,0.0,471.0,503.0,1.0,0,-134.0,0
147,147,0.5253101789406586,0.5,1.0,1.0,435.0,598.0,0.0,0,-803.0,0
148,148,-0.020263400484932026,-0.0,1.0,0.0,347.0,503.0,0.0,0,-50.0,1
149,149,-0.1988893948562771,-0.2,0.0,1.0,327.0,672.0,1.0,0,-859.0,1
150,150,0.82401937148566,0.8,0.0,0.0,434.0,883.0,1.0,0,3683.0,0
151,151,-0.05903999240332536,-0.1,1.0,0.0,353.0,677.0,1.0,1,-150.0,0
152,152,-0.34503815894824597,-0.3,0.0,1.0,390.0,964.0,0.0,1,1816.0,0
153,153,0.1627536679072047,0.2,0.0,0.0,377.0,945.0,0.0,1,-1272.0,1
154,154,0.35949343452122584,0.4,0.0,0.0,411.0,508.0,1.0,0,-919.0,0
155,155,0.06397249736810229,0.1,0.0,0.0,495.0,907.0,1.0,0,-1172.0,0
156,156,0.7737775500955407,0.8,0.0,0.0,497.0,809.0,0.0,1,-1226.0,1
157,157,0.032488461865050056,0.0,1.0,1.0,276.0,740.0,0.0,0,-316.0,0
158,158,-0.6028501520899442,-0.6,1.0,0.0,285.0,919.0,0.0,0,-844.0,1
159,159,0.749070506109705,0.7,1.0,1.0,271.0,634.0,0.0,0,-505.0,0
160,160,0.6475592130974611,0.6,0.0,0.0,483.0,624.0,1.0,0,2093.0,0
161,161,-0.17865027744194117,-0.2,0.0,1.0,472.0,975.0,0.0,1,-1287.0,0
162,162,0.8989437840045563,0.9,0.0,0.0,426.0,815.0,0.0,1,-1231.0,1
163,163,-0.8633607228821971,-0.9,1.0,0.0,368.0,941.0,1.0,1,2661.0,0
164,164,0.8837510961965179,0.9,0.0,0.0,301.0,695.0,1.0,0,-776.0,0
165,165,0.37527789248054366,0.4,1.0,1.0,305.0,840.0,1.0,1,-615.0,1
166,166,0.7550851515329792,0.8,0.0,0.0,288.0,506.0,1.0,0,446.0,0
167,167,0.40488069412312766,0.4,1.0,1.0,404.0,719.0,0.0,0,-813.0,0
168,168,0.23307494922845196,0.2,1.0,1.0,410.0,918.0,0.0,0,-78.0,0
169,169,0.5963029478541823,0.6,1.0,1.0,332.0,508.0,0.0,0,950.0,0
170,170,-0.7257444452020342,-0.7,0.0,1.0,453.0,636.0,1.0,0,471.0,1
171,171,-0.20849915380603412,-0.2,1.0,0.0,308.0,595.0,0.0,0,-903.0,1
172,172,0.36160913439847586,0.4,1.0,1.0,472.0,716.0,1.0,1,-1088.0,1
173,173,-0.22949507230573685,-0.2,0.0,1.0,396.0,991.0,0.0,1,-617.0,0
174,174,-0.44429285996854057,-0.4,1.0,0.0,366.0,502.0,1.0,1,-658.0,0
175,175,0.32553752805253444,0.3,0.0,0.0,273.0,724.0,0.0,1,-417.0,1
176,176,-0.7141904091955784,-0.7,0.0,1.0,324.0,964.0,1.0,0,-838.0,1
177,177,0.5711786065682584,0.6,0.0,0.0,331.0,784.0,0.0,1,545.0,1
178,178,0.8796798969926526,0.9,0.0,0.0,367.0,703.0,0.0,1,40.0,1
179,179,0.39051612742398156,0.4,1.0,1.0,316.0,804.0,0.0,0,140.0,0
180,180,-0.7799893544985321,-0.8,1.0,0.0,410.0,891.0,1.0,1,3699.0,0
181,181,0.6603077270359,0.7,0.0,0.0,326.0,612.0,0.0,1,-888.0,1
182,182,-0.8831921592093237,-0.9,0.0,1.0,361.0,932.0,1.0,0,-913.0,1
183,183,0.7454765700967075,0.7,0.0,0.0,313.0,990.0,1.0,0,1597.0,0
184,184,-0.4777589135271481,-0.5,1.0,0.0,329.0,933.0,1.0,1,-342.0,0
185,185,0.7240832697607443,0.7,1.0,1.0,345.0,698.0,0.0,0,-823.0,0
186,186,0.1315782844870813,0.1,1.0,1.0,251.0,895.0,1.0,1,464.0,1
187,187,0.8828519680999528,0.9,0.0,0.0,418.0,851.0,0.0,1,-1139.0,1
188,188,0.18614159240370765,0.2,1.0,1.0,457.0,805.0,1.0,1,-1172.0,1
189,189,0.05084389562779246,0.1,0.0,0.0,355.0,907.0,1.0,0,-782.0,0
190,190,-0.3017180588822037,-0.3,0.0,1.0,458.0,698.0,0.0,1,-266.0,0
191,191,0.490736237921953,0.5,1.0,1.0,346.0,736.0,0.0,0,-582.0,0
192,192,0.26211395378163715,0.3,1.0,1.0,256.0,835.0,0.0,0,-1051.0,0
193,193,-0.3767946646271769,-0.4,0.0,1.0,333.0,640.0,0.0,1,-663.0,0
194,194,0.01925972122512365,0.0,0.0,0.0,456.0,986.0,0.0,1,8.0,1
195,195,-0.28730571735067556,-0.3,0.0,1.0,251.0,706.0,1.0,0,-747.0,1
196,196,-0.8187299906002797,-0.8,1.0,0.0,359.0,873.0,0.0,0,-232.0,1
197,197,0.49359220359447387,0.5,1.0,1.0,289.0,693.0,0.0,0,418.0,0
198,198,-0.5620056401331592,-0.6,1.0,0.0,302.0,716.0,0.0,0,1702.0,1
199,199,-0.48197284079172686,-0.5,0.0,1.0,453.0,720.0,0.0,1,-1013.0,0
200,200,0.14738994101524272,0.1,0.0,0.0,331.0,520.0,1.0,0,2169.0,0
201,201,-0.11186439837100359,-0.1,1.0,0.0,488.0,979.0,1.0,1,243.0,0
202,202,0.6990405339441436,0.7,1.0,1.0,390.0,917.0,0.0,0,-1257.0,0
203,203,0.27603876280634576,0.3,0.0,0.0,340.0,569.0,0.0,1,1251.0,1
204,204,-0.7220188058550777,-0.7,0.0,1.0,304.0,868.0,1.0,0,-42.0,1
205,205,-0.7640735998174737,-0.8,1.0,0.0,338.0,710.0,1.0,1,-428.0,0
206,206,0.3670509886615442,0.4,1.0,1.0,380.0,686.0,0.0,0,-786.0,0
207,207,-0.46814630883286945,-0.5,1.0,0.0,491.0,546.0,0.0,0,-517.0,1
208,208,0.010424545012227893,0.0,0.0,0.0,305.0,602.0,0.0,1,-717.0,1
209,209,0.4043387063766605,0.4,1.0,1.0,295.0,746.0,1.0,1,-671.0,1
210,210,-0.8301031220165614,-0.8,1.0,0.0,406.0,578.0,0.0,0,-404.0,1
211,211,0.7154717521889699,0.7,1.0,1.0,460.0,772.0,1.0,1,-1122.0,1
212,212,-0.20796238030323277,-0.2,1.0,0.0,274.0,702.0,1.0,1,-726.0,0
213,213,-0.7137842698791506,-0.7,0.0,1.0,333.0,831.0,0.0,1,-654.0,0
214,214,-0.39039992912963783,-0.4,1.0,0.0,309.0,521.0,0.0,0,-330.0,1
215,215,0.2943757373596524,0.3,0.0,0.0,399.0,919.0,1.0,0,-518.0,0
216,216,0.7030613724978424,0.7,1.0,1.0,279.0,870.0,1.0,1,-999.0,1
217,217,0.7425013477609826,0.7,1.0,1.0,466.0,747.0,0.0,0,-843.0,0
218,218,-0.5687991956391019,-0.6,0.0,1.0,279.0,623.0,1.0,0,-872.0,1
219,219,0.2901597926431224,0.3,0.0,0.0,314.0,876.0,1.0,0,1920.0,0
220,220,0.044380973697488835,0.0,0.0,0.0,344.0,983.0,0.0,1,-1107.0,1
221,221,-0.8236799178005434,-0.8,0.0,1.0,365.0,911.0,1.0,0,104.0,1
222,222,-0.14735106104396656,-0.1,1.0,0.0,301.0,714.0,1.0,1,-245.0,0
223,223,0.695473934556811,0.7,0.0,0.0,299.0,777.0,1.0,0,3924.0,0
224,224,0.7620051443165808,0.8,0.0,0.0,468.0,884.0,1.0,0,-742.0,0
225,225,-0.43982258349544023,-0.4,1.0,0.0,397.0,851.0,0.0,0,-28.0,1
226,226,-0.22170103725785595,-0.2,0.0,1.0,491.0,860.0,1.0,0,309.0,1
227,227,0.7393392194927609,0.7,0.0,0.0,474.0,887.0,1.0,0,339.0,0
228,228,-0.5536659500029928,-0.6,0.0,1.0,298.0,934.0,1.0,0,88.0,1
229,229,0.8375975050441608,0.8,0.0,0.0,271.0,721.0,1.0,0,-812.0,0
230,230,0.8453786474281878,0.8,1.0,1.0,312.0,655.0,1.0,1,473.0,1
231,231,-0.3452035745842814,-0.3,1.0,0.0,477.0,928.0,0.0,0,-535.0,1
232,232,-0.8586815475089616,-0.9,1.0,0.0,475.0,810.0,0.0,0,-955.0,1
233,233,0.2500187758080029,0.3,1.0,1.0,365.0,832.0,0.0,0,-667.0,0
234,234,0.09598293192163876,0.1,1.0,1.0,374.0,618.0,0.0,0,1808.0,0
235,235,-0.3518051228829159,-0.4,0.0,1.0,427.0,823.0,0.0,1,700.0,0
236,236,0.1427960920959942,0.1,1.0,1.0,312.0,674.0,0.0,0,-766.0,0
237,237,0.07407494514233504,0.1,0.0,0.0,359.0,566.0,0.0,1,1275.0,1
238,238,0.23158204591776765,0.2,0.0,0.0,317.0,725.0,0.0,1,1788.0,1
239,239,-0.05113769067573126,-0.1,0.0,1.0,317.0,971.0,0.0,1,-1228.0,0
240,240,-0.05193422942900072,-0.1,1.0,0.0,394.0,961.0,0.0,0,685.0,1
241,241,0.15794119898899928,0.2,0.0,0.0,329.0,637.0,1.0,0,4034.0,0
242,242,-0.3169207965598282,-0.3,0.0,1.0,294.0,682.0,1.0,0,-826.0,1
243,243,-0.5783952055576181,-0.6,1.0,0.0,369.0,838.0,1.0,1,1203.0,0
244,244,-0.5634479655696727,-0.6,0.0,1.0,341.0,849.0,0.0,1,-1170.0,0
245,245,0.31341349025238585,0.3,1.0,1.0,382.0,776.0,0.0,0,-678.0,0
246,246,0.6233020087118654,0.6,0.0,0.0,330.0,958.0,0.0,1,-938.0,1
247,247,-0.12287022665703329,-0.1,0.0,1.0,270.0,897.0,0.0,1,673.0,0
248,248,-0.8837704067930177,-0.9,1.0,0.0,473.0,503.0,1.0,1,-826.0,0
249,249,-0.12236545653627862,-0.1,1.0,0.0,401.0,720.0,1.0,1,-691.0,0
250,250,0.6678592966910798,0.7,1.0,1.0,253.0,794.0,1.0,1,3573.0,1
251,251,0.37229455225408825,0.4,1.0,1.0,426.0,997.0,1.0,1,-1173.0,1
252,252,0.490216926728123,0.5,1.0,1.0,360.0,506.0,1.0,1,-376.0,1
253,253,-0.7139377885448969,-0.7,1.0,0.0,338.0,888.0,0.0,0,-926.0,1
254,254,0.787150327540253,0.8,1.0,1.0,265.0,790.0,1.0,1,965.0,1
255,255,0.0013322746461579271,0.0,1.0,1.0,274.0,680.0,0.0,0,-284.0,0
256,256,0.7940456112041957,0.8,1.0,1.0,390.0,639.0,1.0,1,-1019.0,1
257,257,-0.03291187559981501,-0.0,1.0,0.0,375.0,864.0,0.0,0,-559.0,1
258,258,-0.669060348701358,-0.7,0.0,1.0,459.0,870.0,0.0,1,-1269.0,0
259,259,-0.27375394722286894,-0.3,1.0,0.0,456.0,580.0,1.0,1,1694.0,0
260,260,-0.6866035657993642,-0.7,1.0,0.0,291.0,751.0,1.0,1,-252.0,0
261,261,0.44168555380067287,0.4,0.0,0.0,462.0,874.0,1.0,0,1724.0,0
262,262,-0.032372602164940756,-0.0,1.0,0.0,441.0,770.0,1.0,1,-1191.0,0
263,263,0.7323248940166874,0.7,0.0,0.0,313.0,553.0,1.0,0,-676.0,0
264,264,-0.33144420257157803,-0.3,1.0,0.0,423.0,805.0,0.0,0,-998.0,1
265,265,0.19366867723433245,0.2,1.0,1.0,288.0,654.0,1.0,1,98.0,1
266,266,-0.15583081431470158,-0.2,1.0,0.0,333.0,827.0,1.0,1,-1030.0,0
267,267,-0.0060820533153845835,-0.0,1.0,0.0,282.0,516.0,1.0,1,2622.0,0
268,268,0.3645044265510061,0.4,0.0,0.0,329.0,628.0,0.0,1,-807.0,1
269,269,0.06783982636453223,0.1,1.0,1.0,270.0,669.0,0.0,0,401.0,0
270,270,-0.3440638718636003,-0.3,1.0,0.0,405.0,930.0,0.0,0,-745.0,1
271,271,-0.7570664593349717,-0.8,1.0,0.0,380.0,644.0,0.0,0,1496.0,1
272,272,0.038656663604020425,0.0,1.0,1.0,401.0,643.0,0.0,0,-1014.0,0
273,273,-0.2428758635919449,-0.2,1.0,0.0,270.0,577.0,1.0,1,2443.0,0
274,274,-0.3312676221735642,-0.3,0.0,1.0,432.0,945.0,1.0,0,-817.0,1
275,275,0.28409525073432806,0.3,0.0,0.0,485.0,895.0,1.0,0,-130.0,0
276,276,-0.13944750933430838,-0.1,1.0,0.0,377.0,769.0,0.0,0,-546.0,1
277,277,0.7262321608293715,0.7,0.0,0.0,286.0,727.0,1.0,0,-943.0,0
278,278,-0.26920766142538133,-0.3,1.0,0.0,311.0,727.0,1.0,1,-918.0,0
279,279,0.3545046782851836,0.4,0.0,0.0,418.0,797.0,0.0,1,-825.0,1
280,280,-0.6308727462969973,-0.6,1.0,0.0,495.0,966.0,1.0,1,-1031.0,0
281,281,0.43968755613277566,0.4,0.0,0.0,409.0,788.0,0.0,1,-17.0,1
282,282,-0.7710528316203108,-0.8,1.0,0.0,298.0,560.0,0.0,0,-788.0,1
283,283,0.6122762331271704,0.6,1.0,1.0,417.0,642.0,1.0,1,-769.0,1
284,284,-0.10070898908715065,-0.1,0.0,1.0,349.0,649.0,1.0,0,82.0,1
285,285,0.8865595216819916,0.9,1.0,1.0,323.0,575.0,0.0,0,-198.0,0
286,286,-0.7815209945010303,-0.8,1.0,0.0,441.0,889.0,0.0,0,-760.0,1
287,287,0.87005199076505,0.9,0.0,0.0,377.0,550.0,1.0,0,1603.0,0
288,288,-0.3885886807066794,-0.4,1.0,0.0,476.0,656.0,0.0,0,-1032.0,1
289,289,0.42369022374656595,0.4,0.0,0.0,388.0,646.0,1.0,0,-624.0,0
290,290,-0.3108490174965407,-0.3,0.0,1.0,454.0,965.0,1.0,0,771.0,1
291,291,0.4092889378996437,0.4,0.0,0.0,250.0,640.0,1.0,0,720.0,0
292,292,0.46045112267046273,0.5,0.0,0.0,498.0,766.0,1.0,0,-1094.0,0
293,293,0.15209930552300344,0.2,0.0,0.0,401.0,525.0,1.0,0,1534.0,0
294,294,-0.35670644937434226,-0.4,1.0,0.0,455.0,745.0,0.0,0,1210.0,1
295,295,0.6652508775549514,0.7,0.0,0.0,402.0,929.0,1.0,0,3669.0,0
296,296,-0.6337868090234611,-0.6,1.0,0.0,317.0,650.0,0.0,0,913.0,1
297,297,-0.6918255797799364,-0.7,1.0,0.0,479.0,886.0,1.0,1,-955.0,0
298,298,-0.055873028172573225,-0.1,1.0,0.0,439.0,811.0,0.0,0,-810.0,1
299,299,-0.026726757690064273,-0.0,1.0,0.0,326.0,820.0,1.0,1,-316.0,0
300,300,-0.20901995678105945,-0.2,0.0,1.0,428.0,923.0,0.0,1,-1001.0,0
301,301,0.47448837514792486,0.5,1.0,1.0,410.0,733.0,1.0,1,267.0,1
302,302,0.15639141297386183,0.2,1.0,1.0,300.0,941.0,0.0,0,-1081.0,0
303,303,-0.6328548330031813,-0.6,0.0,1.0,475.0,843.0,0.0,1,1582.0,0
304,304,0.0049272276825153005,0.0,1.0,1.0,485.0,700.0,1.0,1,-805.0,1
305,305,-0.4836343070913637,-0.5,1.0,0.0,491.0,503.0,0.0,0,366.0,1
306,306,0.20919575317992656,0.2,0.0,0.0,435.0,554.0,1.0,0,-989.0,0
307,307,0.7888783387192345,0.8,1.0,1.0,451.0,798.0,1.0,1,1101.0,1
308,308,-0.7236910977950914,-0.7,1.0,0.0,334.0,996.0,0.0,0,690.0,1
309,309,-0.7528232451332644,-0.8,0.0,1.0,490.0,982.0,1.0,0,-282.0,1
310,310,0.6695479892307729,0.7,0.0,0.0,452.0,643.0,1.0,0,-635.0,0
311,311,0.21549314185227775,0.2,0.0,0.0,451.0,625.0,0.0,1,-1066.0,1
312,312,0.34435747349783064,0.3,1.0,1.0,312.0,683.0,0.0,0,485.0,0
313,313,0.11637540550676617,0.1,0.0,0.0,318.0,686.0,1.0,0,3136.0,0
314,314,-0.7081346926076343,-0.7,0.0,1.0,293.0,663.0,1.0,0,-426.0,1
315,315,0.010309879671944855,0.0,1.0,1.0,321.0,964.0,1.0,1,-255.0,1
316,316,-0.5442218441650418,-0.5,1.0,0.0,368.0,947.0,1.0,1,125.0,0
317,317,0.7319320543695648,0.7,0.0,0.0,455.0,693.0,0.0,1,-838.0,1
318,318,-0.3858299984551342,-0.4,0.0,1.0,348.0,656.0,0.0,1,826.0,0
319,319,-0.6640516384318746,-0.7,1.0,0.0,430.0,665.0,1.0,1,1125.0,0
320,320,-0.29031423417459057,-0.3,1.0,0.0,489.0,661.0,0.0,0,790.0,1
321,321,-0.06622440730253654,-0.1,0.0,1.0,437.0,661.0,0.0,1,22.0,0
322,322,0.6532646964195853,0.7,1.0,1.0,257.0,520.0,0.0,0,-707.0,0
323,323,-0.25246774898956825,-0.3,0.0,1.0,444.0,508.0,1.0,0,128.0,1
324,324,-0.6216398784102453,-0.6,1.0,0.0,316.0,935.0,0.0,0,-161.0,1
325,325,-0.16199587733483267,-0.2,1.0,0.0,480.0,902.0,0.0,0,3618.0,1
326,326,-0.6074858131184465,-0.6,1.0,0.0,389.0,966.0,1.0,1,515.0,0
327,327,-0.028842336751161657,-0.0,0.0,1.0,479.0,525.0,1.0,0,856.0,1
328,328,-0.0830247722697417,-0.1,1.0,0.0,254.0,799.0,0.0,0,2987.0,1
329,329,-0.5302298296304482,-0.5,0.0,1.0,398.0,766.0,0.0,1,-874.0,0
330,330,-0.2731822964017274,-0.3,0.0,1.0,374.0,751.0,1.0,0,2485.0,1
331,331,-0.24869197801841603,-0.2,1.0,0.0,473.0,839.0,1.0,1,-1122.0,0
332,332,0.1070519237010431,0.1,0.0,0.0,488.0,700.0,0.0,1,1152.0,1
333,333,0.430021669341499,0.4,0.0,0.0,478.0,911.0,1.0,0,2211.0,0
334,334,-0.15597245608514132,-0.2,1.0,0.0,315.0,635.0,1.0,1,-170.0,0
335,335,0.7338421488720358,0.7,1.0,1.0,357.0,817.0,0.0,0,1866.0,0
336,336,0.40980276270406424,0.4,0.0,0.0,270.0,669.0,1.0,0,-109.0,0
337,337,0.19604594763540717,0.2,1.0,1.0,262.0,827.0,0.0,0,-369.0,0
338,338,0.6742214364686393,0.7,1.0,1.0,406.0,700.0,0.0,0,-246.0,0
339,339,-0.31395324749424536,-0.3,0.0,1.0,375.0,692.0,1.0,0,933.0,1
340,340,-0.35748119473294493,-0.4,1.0,0.0,379.0,507.0,0.0,0,-656.0,1
341,341,-0.3294414077478215,-0.3,1.0,0.0,372.0,882.0,0.0,0,196.0,1
342,342,-0.7076584928441503,-0.7,1.0,0.0,377.0,736.0,1.0,1,1277.0,0
343,343,-0.14055803437698422,-0.1,1.0,0.0,301.0,638.0,1.0,1,-629.0,0
344,344,0.6557987687041659,0.7,0.0,0.0,337.0,965.0,1.0,0,1448.0,0
345,345,0.5731084922145778,0.6,0.0,0.0,358.0,745.0,1.0,0,-1103.0,0
346,346,-0.2347456909988107,-0.2,1.0,0.0,461.0,628.0,0.0,0,-709.0,1
347,347,-0.6473520783849557,-0.6,1.0,0.0,371.0,708.0,0.0,0,1381.0,1
348,348,-0.09120666830281587,-0.1,1.0,0.0,335.0,632.0,0.0,0,-207.0,1
349,349,0.283535564809409,0.3,1.0,1.0,260.0,721.0,1.0,1,479.0,1
350,350,0.5862288058739676,0.6,0.0,0.0,277.0,761.0,1.0,0,-1008.0,0
351,351,-0.4273885815726924,-0.4,1.0,0.0,278.0,802.0,0.0,0,650.0,1
352,352,0.8878490830918665,0.9,0.0,0.0,299.0,929.0,1.0,0,-1178.0,0
353,353,0.1416906239444703,0.1,0.0,0.0,297.0,571.0,1.0,0,4132.0,0
354,354,-0.8519730621571745,-0.9,1.0,0.0,432.0,813.0,1.0,1,-315.0,0
355,355,0.24703416284801405,0.2,1.0,1.0,468.0,664.0,0.0,0,-932.0,0
356,356,-0.871594715261505,-0.9,1.0,0.0,445.0,878.0,0.0,0,147.0,1
357,357,0.532863155834071,0.5,0.0,0.0,476.0,822.0,0.0,1,462.0,1
358,358,0.4878546871027082,0.5,1.0,1.0,450.0,733.0,1.0,1,-593.0,1
359,359,-0.19681202716348223,-0.2,0.0,1.0,263.0,666.0,0.0,1,-689.0,0
360,360,0.8452266092454664,0.8,1.0,1.0,341.0,843.0,0.0,0,-904.0,0
361,361,-0.7778852243164872,-0.8,1.0,0.0,269.0,724.0,0.0,0,-903.0,1
362,362,-0.06648973939871339,-0.1,1.0,0.0,345.0,727.0,1.0,1,-962.0,0
363,363,0.45223388806534015,0.5,0.0,0.0,373.0,515.0,1.0,0,-288.0,0
364,364,-0.2711184715579784,-0.3,1.0,0.0,383.0,933.0,0.0,0,-1276.0,1
365,365,0.10467903454728955,0.1,1.0,1.0,348.0,742.0,0.0,0,-1090.0,0
366,366,0.051832401100670666,0.1,1.0,1.0,452.0,732.0,1.0,1,-1154.0,1
367,367,0.3482129535051154,0.3,0.0,0.0,255.0,556.0,0.0,1,1129.0,1
368,368,0.21972384495563502,0.2,1.0,1.0,493.0,682.0,0.0,0,-285.0,0
369,369,0.292528323050394,0.3,1.0,1.0,422.0,542.0,1.0,1,-574.0,1
370,370,-0.6191341663825201,-0.6,1.0,0.0,455.0,834.0,1.0,1,-1019.0,0
371,371,0.6787796899797,0.7,1.0,1.0,497.0,749.0,1.0,1,-606.0,1
372,372,-0.7538553168154699,-0.8,1.0,0.0,337.0,554.0,0.0,0,-541.0,1
373,373,0.523795634147488,0.5,1.0,1.0,422.0,969.0,1.0,1,-941.0,1
374,374,-0.6942645696998554,-0.7,1.0,0.0,431.0,514.0,1.0,1,255.0,0
375,375,0.010575561874750061,0.0,0.0,0.0,287.0,555.0,1.0,0,2428.0,0
376,376,-0.46548301703306366,-0.5,1.0,0.0,337.0,527.0,1.0,1,16.0,0
377,377,-0.5123166841406959,-0.5,1.0,0.0,265.0,674.0,0.0,0,-19.0,1
378,378,0.5603217010821077,0.6,1.0,1.0,402.0,966.0,0.0,0,-88.0,0
379,379,-0.18504178048436337,-0.2,0.0,1.0,477.0,589.0,0.0,1,-836.0,0
380,380,-0.6060205512670813,-0.6,0.0,1.0,383.0,733.0,0.0,1,-276.0,0
381,381,-0.6953675725868242,-0.7,0.0,1.0,494.0,740.0,1.0,0,-994.0,1
382,382,-0.2590748479531997,-0.3,0.0,1.0,444.0,842.0,0.0,1,-1256.0,0
383,383,-0.27865405662263976,-0.3,0.0,1.0,439.0,623.0,0.0,1,-902.0,0
384,384,0.4484357410232104,0.4,0.0,0.0,394.0,661.0,1.0,0,-815.0,0
385,385,-0.7242766197385052,-0.7,1.0,0.0,384.0,997.0,0.0,0,-431.0,1
386,386,0.05130903825258348,0.1,1.0,1.0,390.0,761.0,0.0,0,1339.0,0
387,387,0.43386670819227413,0.4,1.0,1.0,396.0,934.0,1.0,1,-800.0,1
388,388,-0.5305082067627045,-0.5,0.0,1.0,453.0,982.0,0.0,1,-305.0,0
389,389,0.5062076782775636,0.5,0.0,0.0,289.0,699.0,1.0,0,-518.0,0
390,390,0.09369586586765188,0.1,0.0,0.0,483.0,621.0,1.0,0,-774.0,0
391,391,0.539774781731187,0.5,0.0,0.0,495.0,875.0,1.0,0,-900.0,0
392,392,-0.7751871784132909,-0.8,0.0,1.0,450.0,930.0,0.0,1,-1260.0,0
393,393,0.16914101232252932,0.2,1.0,1.0,353.0,866.0,0.0,0,-859.0,0
394,394,0.18450720717751568,0.2,0.0,0.0,478.0,688.0,0.0,1,-1086.0,1
395,395,-0.6713195561178582,-0.7,0.0,1.0,435.0,745.0,0.0,1,-550.0,0
396,396,-0.0028938905102923185,-0.0,1.0,0.0,487.0,932.0,1.0,1,-1369.0,0
397,397,-0.49483969491885366,-0.5,1.0,0.0,458.0,748.0,0.0,0,1514.0,1
398,398,0.503902402811225,0.5,1.0,1.0,312.0,741.0,1.0,1,-173.0,1
399,399,0.028013287624294447,0.0,0.0,0.0,330.0,542.0,0.0,1,1058.0,1
400,400,0.8128741443757438,0.8,0.0,0.0,423.0,907.0,0.0,1,-1190.0,1
401,401,0.07605317667978628,0.1,0.0,0.0,325.0,741.0,0.0,1,944.0,1
402,402,0.8338752946646569,0.8,1.0,1.0,447.0,783.0,0.0,0,-570.0,0
403,403,0.7814324409928813,0.8,0.0,0.0,412.0,606.0,0.0,1,-888.0,1
404,404,0.8738593307570214,0.9,0.0,0.0,276.0,503.0,1.0,0,-149.0,0
405,405,-0.5027267093041388,-0.5,0.0,1.0,493.0,650.0,0.0,1,2647.0,0
406,406,0.595867587100169,0.6,1.0,1.0,334.0,984.0,0.0,0,-208.0,0
407,407,-0.2694757607723559,-0.3,1.0,0.0,433.0,890.0,0.0,0,-473.0,1
408,408,0.40569959301438596,0.4,1.0,1.0,251.0,787.0,0.0,0,142.0,0
409,409,-0.23794108592436547,-0.2,0.0,1.0,285.0,704.0,1.0,0,141.0,1
410,410,0.665035745611459,0.7,0.0,0.0,340.0,972.0,0.0,1,-902.0,1
411,411,0.6956251135258321,0.7,0.0,0.0,433.0,718.0,0.0,1,-791.0,1
412,412,0.0066610040480761246,0.0,0.0,0.0,309.0,850.0,1.0,0,-969.0,0
413,413,-0.720459347182951,-0.7,1.0,0.0,438.0,519.0,1.0,1,-697.0,0
414,414,0.05395744607148556,0.1,1.0,1.0,376.0,613.0,1.0,1,-379.0,1
415,415,0.19242674262690562,0.2,0.0,0.0,429.0,609.0,1.0,0,-438.0,0
416,416,-0.5403641273034872,-0.5,1.0,0.0,493.0,927.0,1.0,1,-980.0,0
417,417,0.2632700268783431,0.3,0.0,0.0,498.0,757.0,0.0,1,-1035.0,1
418,418,0.5673394390401719,0.6,1.0,1.0,394.0,508.0,1.0,1,-842.0,1
419,419,-0.01572929770732867,-0.0,1.0,0.0,337.0,737.0,1.0,1,-404.0,0
420,420,0.6858509435082151,0.7,0.0,0.0,307.0,655.0,1.0,0,1198.0,0
421,421,0.48084045873716785,0.5,1.0,1.0,473.0,792.0,0.0,0,1395.0,0
422,422,-0.6589256990777407,-0.7,0.0,1.0,467.0,923.0,0.0,1,-840.0,0
423,423,-0.1331237357155235,-0.1,0.0,1.0,486.0,942.0,0.0,1,872.0,0
424,424,-0.5910649878886414,-0.6,0.0,1.0,456.0,745.0,1.0,0,-1121.0,1
425,425,-0.24354279078395413,-0.2,0.0,1.0,340.0,800.0,0.0,1,1190.0,0
426,426,0.40172552370677284,0.4,1.0,1.0,319.0,774.0,1.0,1,967.0,1
427,427,-0.8657619814555959,-0.9,1.0,0.0,494.0,545.0,0.0,0,-619.0,1
428,428,-0.37738581543929617,-0.4,0.0,1.0,319.0,773.0,1.0,0,-872.0,1
429,429,0.06920779014418021,0.1,1.0,1.0,492.0,582.0,0.0,0,-364.0,0
430,430,0.5745575187740549,0.6,0.0,0.0,310.0,748.0,1.0,0,-138.0,0
431,431,-0.32236124323965654,-0.3,0.0,1.0,255.0,627.0,1.0,0,168.0,1
432,432,-0.8708573503896246,-0.9,0.0,1.0,349.0,907.0,1.0,0,-746.0,1
433,433,0.8217266128278905,0.8,0.0,0.0,254.0,508.0,1.0,0,-492.0,0
434,434,0.5936364207462902,0.6,1.0,1.0,422.0,821.0,1.0,1,-1103.0,1
435,435,0.1188937116658616,0.1,0.0,0.0,333.0,544.0,1.0,0,-427.0,0
436,436,-0.21469691551568215,-0.2,0.0,1.0,409.0,862.0,0.0,1,-1231.0,0
437,437,0.18203504285623018,0.2,1.0,1.0,333.0,860.0,1.0,1,-253.0,1
438,438,0.636226479642927,0.6,1.0,1.0,476.0,988.0,0.0,0,-934.0,0
439,439,-0.3688452070670942,-0.4,1.0,0.0,391.0,662.0,0.0,0,-973.0,1
440,440,-0.25970541653117385,-0.3,1.0,0.0,395.0,913.0,1.0,1,-368.0,0
441,441,0.22656998205471635,0.2,0.0,0.0,462.0,677.0,1.0,0,631.0,0
442,442,-0.11631763598502287,-0.1,1.0,0.0,351.0,632.0,1.0,1,237.0,0
443,443,-0.45146077125111855,-0.5,1.0,0.0,416.0,838.0,1.0,1,-1124.0,0
444,444,0.5437361944747486,0.5,1.0,1.0,434.0,571.0,1.0,1,2565.0,1
445,445,0.1574265111624914,0.2,1.0,1.0,406.0,876.0,0.0,0,-992.0,0
446,446,-0.01382053100397762,-0.0,0.0,1.0,382.0,838.0,0.0,1,-450.0,0
447,447,0.7582009585344217,0.8,1.0,1.0,438.0,669.0,0.0,0,243.0,0
448,448,0.39643648578445967,0.4,1.0,1.0,297.0,710.0,1.0,1,2113.0,1
449,449,0.2550594702181862,0.3,0.0,0.0,354.0,552.0,1.0,0,-26.0,0
450,450,0.5185352318430013,0.5,1.0,1.0,253.0,611.0,1.0,1,26.0,1
451,451,-0.32154115316988374,-0.3,1.0,0.0,362.0,744.0,0.0,0,-1006.0,1
452,452,-0.13424762925792055,-0.1,0.0,1.0,470.0,659.0,1.0,0,401.0,1
453,453,-0.314509773885728,-0.3,0.0,1.0,279.0,531.0,1.0,0,-740.0,1
454,454,-0.47280865440661546,-0.5,0.0,1.0,367.0,695.0,1.0,0,2328.0,1
455,455,-0.8847950461856374,-0.9,0.0,1.0,388.0,542.0,1.0,0,10.0,1
456,456,-0.7290224566607322,-0.7,0.0,1.0,264.0,839.0,0.0,1,-963.0,0
457,457,-0.4331524207483547,-0.4,0.0,1.0,282.0,603.0,0.0,1,-885.0,0
458,458,-0.762039667304716,-0.8,1.0,0.0,467.0,632.0,0.0,0,-759.0,1
459,459,-0.643923761458665,-0.6,0.0,1.0,459.0,620.0,1.0,0,131.0,1
460,460,0.31009395335912926,0.3,1.0,1.0,277.0,506.0,0.0,0,-653.0,0
461,461,0.1950943454381221,0.2,0.0,0.0,338.0,501.0,1.0,0,-519.0,0
462,462,-0.7528725170766197,-0.8,1.0,0.0,467.0,954.0,1.0,1,-1271.0,0
463,463,-0.7933604433694914,-0.8,0.0,1.0,256.0,944.0,1.0,0,-1010.0,1
464,464,-0.4459464756229013,-0.4,1.0,0.0,383.0,941.0,1.0,1,326.0,0
465,465,0.3587481064094812,0.4,0.0,0.0,392.0,855.0,0.0,1,33.0,1
466,466,0.037582921737145836,0.0,0.0,0.0,379.0,699.0,0.0,1,-38.0,1
467,467,0.41484508313295787,0.4,1.0,1.0,477.0,650.0,0.0,0,473.0,0
468,468,0.33499819075942916,0.3,0.0,0.0,365.0,564.0,0.0,1,801.0,1
469,469,0.3063874463001358,0.3,0.0,0.0,367.0,801.0,1.0,0,-808.0,0
470,470,-0.2630332546295494,-0.3,0.0,1.0,479.0,625.0,0.0,1,416.0,0
471,471,0.6996521662820844,0.7,1.0,1.0,408.0,553.0,0.0,0,-461.0,0
472,472,-0.5369062542421034,-0.5,0.0,1.0,370.0,839.0,0.0,1,-1069.0,0
473,473,-0.40890172363399546,-0.4,1.0,0.0,459.0,910.0,0.0,0,-609.0,1
474,474,0.12021681819604313,0.1,0.0,0.0,360.0,624.0,1.0,0,2856.0,0
475,475,-0.016187556954947446,-0.0,0.0,1.0,480.0,801.0,0.0,1,1169.0,0
476,476,-0.21706904191769494,-0.2,0.0,1.0,346.0,587.0,1.0,0,-813.0,1
477,477,0.4490571138216245,0.4,1.0,1.0,363.0,752.0,0.0,0,-1085.0,0
478,478,-0.13956390720018264,-0.1,1.0,0.0,297.0,602.0,1.0,1,-889.0,0
479,479,-0.06805544804302344,-0.1,1.0,0.0,352.0,663.0,1.0,1,-645.0,0
480,480,-0.27899065874185647,-0.3,1.0,0.0,293.0,875.0,0.0,0,52.0,1
481,481,0.17812094078780982,0.2,1.0,1.0,311.0,852.0,1.0,1,-1103.0,1
482,482,0.08909667942107014,0.1,0.0,0.0,479.0,941.0,1.0,0,1160.0,0
483,483,-0.07769273691066592,-0.1,1.0,0.0,389.0,766.0,0.0,0,745.0,1
484,484,0.6107632419158829,0.6,1.0,1.0,462.0,809.0,0.0,0,-601.0,0
485,485,0.14481232689759682,0.1,0.0,0.0,400.0,822.0,1.0,0,-42.0,0
486,486,-0.8782211786128126,-0.9,0.0,1.0,267.0,884.0,1.0,0,2619.0,1
487,487,0.6648822725076465,0.7,1.0,1.0,346.0,948.0,0.0,0,2966.0,0
488,488,0.33129819185413656,0.3,1.0,1.0,411.0,839.0,0.0,0,-130.0,0
489,489,0.6367122340301575,0.6,1.0,1.0,261.0,613.0,1.0,1,596.0,1
490,490,0.31843963451574975,0.3,1.0,1.0,398.0,870.0,1.0,1,-1098.0,1
491,491,0.04891191756169766,0.0,1.0,1.0,483.0,659.0,1.0,1,2438.0,1
492,492,0.6923344049430532,0.7,0.0,0.0,323.0,557.0,1.0,0,1340.0,0
493,493,0.49976634568921285,0.5,0.0,0.0,426.0,656.0,0.0,1,998.0,1
494,494,-0.5084700772094235,-0.5,1.0,0.0,405.0,546.0,1.0,1,-141.0,0
495,495,-0.6839889809149537,-0.7,1.0,0.0,251.0,790.0,0.0,0,-621.0,1
496,496,0.796740690833125,0.8,0.0,0.0,485.0,996.0,1.0,0,869.0,0
497,497,-0.07956735631787126,-0.1,1.0,0.0,257.0,611.0,0.0,0,2462.0,1
498,498,-0.31007329352459945,-0.3,1.0,0.0,378.0,996.0,0.0,0,-274.0,1
499,499,0.32909037518822226,0.3,0.0,0.0,471.0,691.0,1.0,0,-762.0,0
500,500,0.10693207983017772,0.1,1.0,1.0,493.0,839.0,0.0,0,298.0,0
501,501,-0.45915827664693204,-0.5,1.0,0.0,480.0,512.0,0.0,0,948.0,1
502,502,0.2777101979233433,0.3,1.0,1.0,281.0,657.0,1.0,1,-728.0,1
503,503,-0.477409677927824,-0.5,1.0,0.0,373.0,940.0,0.0,0,-223.0,1
504,504,-0.5746344498610949,-0.6,1.0,0.0,495.0,707.0,0.0,0,738.0,1
505,505,0.8418008570616705,0.8,1.0,1.0,454.0,654.0,0.0,0,-138.0,0
506,506,-0.6923677478792372,-0.7,0.0,1.0,316.0,529.0,1.0,0,5.0,1
507,507,-0.43650550318431036,-0.4,1.0,0.0,452.0,629.0,0.0,0,239.0,1
508,508,0.5537027803103779,0.6,1.0,1.0,477.0,896.0,1.0,1,-1343.0,1
509,509,-0.08478198005986948,-0.1,1.0,0.0,433.0,712.0,0.0,0,-1085.0,1
510,510,-0.860564224461879,-0.9,0.0,1.0,339.0,563.0,0.0,1,-802.0,0
511,511,-0.06350477425979062,-0.1,0.0,1.0,494.0,722.0,1.0,0,-496.0,1
512,512,-0.8012508334869383,-0.8,1.0,0.0,401.0,771.0,0.0,0,-1002.0,1
513,513,-0.8418564450841067,-0.8,1.0,0.0,405.0,835.0,0.0,0,-1190.0,1
514,514,-0.48392598497461353,-0.5,1.0,0.0,261.0,722.0,0.0,0,47.0,1
515,515,0.0604941587398663,0.1,1.0,1.0,267.0,658.0,0.0,0,-405.0,0
516,516,0.7831318735141589,0.8,0.0,0.0,330.0,528.0,0.0,1,1552.0,1
517,517,-0.5452567963705981,-0.5,0.0,1.0,340.0,794.0,1.0,0,196.0,1
518,518,-0.007527097131295402,-0.0,0.0,1.0,328.0,667.0,1.0,0,-455.0,1
519,519,-0.5894887757384206,-0.6,0.0,1.0,422.0,536.0,1.0,0,1992.0,1
520,520,0.6096383261193593,0.6,1.0,1.0,322.0,693.0,1.0,1,1545.0,1
521,521,0.6937211428246534,0.7,1.0,1.0,281.0,559.0,0.0,0,1320.0,0
522,522,-0.3252917073182615,-0.3,1.0,0.0,353.0,952.0,1.0,1,-945.0,0
523,523,0.0599792021626645,0.1,1.0,1.0,466.0,645.0,0.0,0,-1111.0,0
524,524,-0.2774228264365677,-0.3,1.0,0.0,271.0,894.0,1.0,1,-505.0,0
525,525,0.2486041184556146,0.2,0.0,0.0,472.0,782.0,0.0,1,-884.0,1
526,526,0.7026201079477915,0.7,0.0,0.0,351.0,983.0,0.0,1,3666.0,1
527,527,-0.7443007498727673,-0.7,1.0,0.0,409.0,886.0,1.0,1,-1275.0,0
528,528,-0.5723867133998081,-0.6,1.0,0.0,472.0,793.0,1.0,1,-875.0,0
529,529,-0.048548346432562894,-0.0,0.0,1.0,450.0,751.0,1.0,0,3799.0,1
530,530,-0.0629023220756052,-0.1,0.0,1.0,411.0,884.0,1.0,0,-895.0,1
531,531,-0.1532402642178209,-0.2,1.0,0.0,287.0,585.0,0.0,0,-472.0,1
532,532,-0.4872005672700251,-0.5,0.0,1.0,324.0,795.0,0.0,1,1161.0,0
533,533,-0.7919907863959712,-0.8,0.0,1.0,375.0,876.0,0.0,1,1209.0,0
534,534,0.24095318374067143,0.2,1.0,1.0,435.0,870.0,1.0,1,635.0,1
535,535,0.5874324733834541,0.6,0.0,0.0,487.0,529.0,1.0,0,-836.0,0
536,536,-0.8976595305034013,-0.9,1.0,0.0,470.0,967.0,0.0,0,-387.0,1
537,537,-0.25974326188632246,-0.3,0.0,1.0,470.0,755.0,0.0,1,-95.0,0
538,538,0.7063698681731666,0.7,0.0,0.0,462.0,714.0,0.0,1,1334.0,1
539,539,0.8035656192704591,0.8,0.0,0.0,284.0,646.0,1.0,0,870.0,0
540,540,-0.08763014003514846,-0.1,1.0,0.0,314.0,894.0,1.0,1,-1208.0,0
541,541,0.7017035195136417,0.7,1.0,1.0,404.0,756.0,0.0,0,-470.0,0
542,542,-0.7467281972916827,-0.7,1.0,0.0,325.0,517.0,1.0,1,138.0,0
543,543,0.8250780493119615,0.8,1.0,1.0,318.0,557.0,0.0,0,115.0,0
544,544,-0.8809492268379325,-0.9,0.0,1.0,499.0,759.0,1.0,0,-1158.0,1
545,545,0.2257273954357789,0.2,1.0,1.0,250.0,727.0,0.0,0,-867.0,0
546,546,0.39003417626378345,0.4,0.0,0.0,444.0,851.0,0.0,1,-605.0,1
547,547,0.28196894670347816,0.3,0.0,0.0,302.0,730.0,1.0,0,-402.0,0
548,548,-0.6003215555673977,-0.6,1.0,0.0,284.0,955.0,1.0,1,91.0,0
549,549,0.3880537736604238,0.4,0.0,0.0,415.0,633.0,1.0,0,412.0,0
550,550,-0.8973975966939892,-0.9,1.0,0.0,338.0,532.0,0.0,0,-810.0,1
551,551,-0.18099197233343867,-0.2,0.0,1.0,311.0,846.0,1.0,0,1203.0,1
552,552,-0.12768188461485974,-0.1,0.0,1.0,382.0,615.0,1.0,0,-747.0,1
553,553,-0.04979122803988467,-0.0,0.0,1.0,366.0,668.0,1.0,0,-504.0,1
554,554,-0.04769153630066558,-0.0,1.0,0.0,462.0,881.0,0.0,0,3657.0,1
555,555,0.5868862424093882,0.6,0.0,0.0,423.0,784.0,0.0,1,-1187.0,1
556,556,0.7808076740962439,0.8,1.0,1.0,302.0,955.0,1.0,1,-1117.0,1
557,557,-0.898396349230837,-0.9,1.0,0.0,332.0,626.0,0.0,0,-778.0,1
558,558,-0.6369286185976961,-0.6,0.0,1.0,435.0,633.0,0.0,1,-948.0,0
559,559,0.39492478373503637,0.4,1.0,1.0,344.0,827.0,0.0,0,479.0,0
560,560,0.5266529099495206,0.5,1.0,1.0,438.0,666.0,1.0,1,2226.0,1
561,561,-0.3154185692205237,-0.3,0.0,1.0,341.0,893.0,1.0,0,-1194.0,1
562,562,0.7943433898158486,0.8,0.0,0.0,437.0,586.0,0.0,1,-953.0,1
563,563,-0.0374615770481439,-0.0,0.0,1.0,360.0,514.0,0.0,1,-24.0,0
564,564,0.752600682443152,0.8,0.0,0.0,315.0,772.0,1.0,0,-977.0,0
565,565,-0.12746341977857845,-0.1,1.0,0.0,254.0,812.0,0.0,0,1014.0,1
566,566,0.4943822804821979,0.5,0.0,0.0,425.0,577.0,1.0,0,-832.0,0
567,567,0.18983588773380522,0.2,0.0,0.0,290.0,870.0,1.0,0,-1080.0,0
568,568,-0.028141185266705837,-0.0,1.0,0.0,414.0,957.0,1.0,1,-661.0,0
569,569,-0.09012457365344839,-0.1,1.0,0.0,268.0,590.0,1.0,1,-478.0,0
570,570,0.27572844900433735,0.3,0.0,0.0,266.0,664.0,0.0,1,-560.0,1
571,571,0.6002671436768904,0.6,0.0,0.0,494.0,925.0,1.0,0,1411.0,0
572,572,0.17331196649198988,0.2,0.0,0.0,456.0,830.0,0.0,1,-1196.0,1
573,573,0.3035125454760025,0.3,0.0,0.0,369.0,919.0,0.0,1,-858.0,1
574,574,0.5244306163790015,0.5,0.0,0.0,458.0,607.0,1.0,0,-525.0,0
575,575,0.25718008830611494,0.3,1.0,1.0,419.0,580.0,1.0,1,-659.0,1
576,576,0.8079285890733855,0.8,0.0,0.0,323.0,831.0,1.0,0,186.0,0
577,577,0.3191941678089404,0.3,0.0,0.0,395.0,512.0,1.0,0,2643.0,0
578,578,-0.26492385414089636,-0.3,0.0,1.0,499.0,757.0,1.0,0,984.0,1
579,579,0.577027283221747,0.6,0.0,0.0,360.0,616.0,1.0,0,-56.0,0
580,580,0.22625552449877395,0.2,0.0,0.0,410.0,909.0,1.0,0,-1299.0,0
581,581,0.6842064087349712,0.7,1.0,1.0,398.0,735.0,0.0,0,-723.0,0
582,582,0.5235315251683555,0.5,1.0,1.0,444.0,628.0,1.0,1,-662.0,1
583,583,-0.5129809697388581,-0.5,1.0,0.0,402.0,823.0,1.0,1,-1205.0,0
584,584,0.6273335128980179,0.6,1.0,1.0,463.0,930.0,0.0,0,-1353.0,0
585,585,-0.1721481338701455,-0.2,0.0,1.0,357.0,736.0,1.0,0,-483.0,1
586,586,-0.39648260267116564,-0.4,1.0,0.0,364.0,952.0,1.0,1,-1286.0,0
587,587,-0.6125665717571696,-0.6,0.0,1.0,436.0,696.0,0.0,1,-392.0,0
588,588,-0.8653804642520571,-0.9,0.0,1.0,264.0,721.0,1.0,0,625.0,1
589,589,0.6205220044901704,0.6,0.0,0.0,495.0,895.0,0.0,1,3310.0,1
590,590,0.036140028903093424,0.0,0.0,0.0,410.0,530.0,0.0,1,1370.0,1
591,591,-0.6382796995519824,-0.6,1.0,0.0,350.0,854.0,0.0,0,906.0,1
592,592,-0.10598276188654387,-0.1,1.0,0.0,407.0,881.0,1.0,1,1202.0,0
593,593,-0.6845043600723355,-0.7,0.0,1.0,407.0,852.0,1.0,0,101.0,1
594,594,-0.6166795889003256,-0.6,0.0,1.0,312.0,605.0,1.0,0,673.0,1
595,595,-0.505056772341006,-0.5,0.0,1.0,376.0,533.0,0.0,1,-879.0,0
596,596,0.24812126605306706,0.2,0.0,0.0,426.0,601.0,1.0,0,-827.0,0
597,597,-0.32889495836025573,-0.3,1.0,0.0,376.0,772.0,1.0,1,-948.0,0
598,598,0.050080084249036316,0.1,1.0,1.0,437.0,821.0,0.0,0,3132.0,0
599,599,0.7778176053023572,0.8,0.0,0.0,385.0,576.0,0.0,1,-911.0,1
600,600,0.0067137516434750966,0.0,0.0,0.0,414.0,707.0,0.0,1,-371.0,1
601,601,-0.32377623370855213,-0.3,1.0,0.0,385.0,589.0,1.0,1,1386.0,0
602,602,-0.6116549050729251,-0.6,0.0,1.0,484.0,707.0,1.0,0,-731.0,1
603,603,-0.768950403894777,-0.8,1.0,0.0,320.0,847.0,0.0,0,-587.0,1
604,604,-0.007113360049233242,-0.0,0.0,1.0,481.0,882.0,1.0,0,-893.0,1
605,605,-0.6815330536163882,-0.7,1.0,0.0,434.0,564.0,0.0,0,-688.0,1
606,606,-0.6360867554770129,-0.6,1.0,0.0,326.0,893.0,0.0,0,-769.0,1
607,607,-0.23432912686783758,-0.2,0.0,1.0,271.0,676.0,1.0,0,4033.0,1
608,608,-0.2358568192054249,-0.2,0.0,1.0,328.0,812.0,0.0,1,2280.0,0
609,609,-0.7441272401707917,-0.7,1.0,0.0,470.0,603.0,0.0,0,-773.0,1
610,610,-0.6222959121783946,-0.6,1.0,0.0,497.0,663.0,0.0,0,120.0,1
611,611,-0.5376497439404064,-0.5,0.0,1.0,417.0,614.0,1.0,0,2959.0,1
612,612,-0.009981744884124844,-0.0,0.0,1.0,395.0,694.0,0.0,1,-729.0,0
613,613,-0.7324327429818642,-0.7,0.0,1.0,312.0,665.0,0.0,1,143.0,0
614,614,0.09058815599847148,0.1,0.0,0.0,368.0,785.0,1.0,0,-1023.0,0
615,615,0.32898990973553544,0.3,0.0,0.0,288.0,937.0,1.0,0,-1205.0,0
616,616,-0.807292374707034,-0.8,1.0,0.0,453.0,701.0,1.0,1,-654.0,0
617,617,0.24542614022064535,0.2,0.0,0.0,367.0,980.0,0.0,1,-977.0,1
618,618,-0.19480853245021135,-0.2,1.0,0.0,490.0,760.0,0.0,0,-1100.0,1
619,619,-0.37863506523428225,-0.4,0.0,1.0,448.0,851.0,0.0,1,-599.0,0
620,620,0.7913649808002127,0.8,1.0,1.0,276.0,609.0,0.0,0,-835.0,0
621,621,-0.3424126012074762,-0.3,0.0,1.0,467.0,809.0,0.0,1,-976.0,0
622,622,-0.032996223597569374,-0.0,1.0,0.0,374.0,813.0,0.0,0,-157.0,1
623,623,0.3525575379461673,0.4,1.0,1.0,256.0,539.0,1.0,1,-445.0,1
624,624,-0.2736252311688281,-0.3,1.0,0.0,333.0,781.0,1.0,1,6.0,0
625,625,0.09860169959939546,0.1,0.0,0.0,268.0,656.0,1.0,0,86.0,0
626,626,-0.11383741414054338,-0.1,1.0,0.0,270.0,927.0,1.0,1,-397.0,0
627,627,0.4648240495285866,0.5,1.0,1.0,323.0,807.0,1.0,1,1630.0,1
628,628,0.27215583611749194,0.3,1.0,1.0,314.0,806.0,0.0,0,-150.0,0
629,629,-0.8919467236747342,-0.9,0.0,1.0,272.0,542.0,0.0,1,536.0,0
630,630,-0.3787589645316627,-0.4,1.0,0.0,259.0,896.0,1.0,1,-295.0,0
631,631,-0.05763607908503865,-0.1,0.0,1.0,342.0,911.0,0.0,1,147.0,0
632,632,-0.6937613045011375,-0.7,1.0,0.0,339.0,931.0,0.0,0,-540.0,1
633,633,-0.20020453790474058,-0.2,1.0,0.0,484.0,614.0,0.0,0,-688.0,1
634,634,0.7520711150846967,0.8,1.0,1.0,405.0,773.0,0.0,0,-28.0,0
635,635,-0.7410763122918163,-0.7,1.0,0.0,278.0,791.0,0.0,0,-659.0,1
636,636,0.413455432507818,0.4,0.0,0.0,408.0,643.0,1.0,0,1629.0,0
637,637,-0.3515651198774735,-0.4,0.0,1.0,415.0,668.0,1.0,0,1167.0,1
638,638,-0.694365935914428,-0.7,1.0,0.0,374.0,742.0,1.0,1,444.0,0
639,639,-0.5062804074655696,-0.5,1.0,0.0,289.0,698.0,1.0,1,303.0,0
640,640,0.589957280356901,0.6,1.0,1.0,253.0,803.0,1.0,1,-956.0,1
641,641,0.375750007880565,0.4,1.0,1.0,312.0,551.0,0.0,0,-833.0,0
642,642,-0.23936625915901266,-0.2,1.0,0.0,406.0,938.0,1.0,1,-754.0,0
643,643,-0.2271517817997808,-0.2,1.0,0.0,463.0,550.0,1.0,1,-703.0,0
644,644,-0.4723390852785359,-0.5,1.0,0.0,365.0,707.0,1.0,1,-882.0,0
645,645,0.2524843457354792,0.3,0.0,0.0,260.0,526.0,0.0,1,464.0,1
646,646,-0.42143963409542773,-0.4,1.0,0.0,260.0,787.0,1.0,1,-277.0,0
647,647,-0.13609050451234062,-0.1,0.0,1.0,449.0,586.0,0.0,1,-255.0,0
648,648,0.38692748149573186,0.4,1.0,1.0,444.0,930.0,1.0,1,-374.0,1
649,649,0.7607533692792278,0.8,0.0,0.0,413.0,744.0,0.0,1,63.0,1
650,650,-0.20860903369186878,-0.2,0.0,1.0,400.0,705.0,1.0,0,-725.0,1
651,651,0.7428444467445258,0.7,1.0,1.0,302.0,534.0,1.0,1,-746.0,1
652,652,-0.11350872098809905,-0.1,1.0,0.0,486.0,894.0,1.0,1,-1330.0,0
653,653,-0.6419109033283763,-0.6,0.0,1.0,400.0,957.0,0.0,1,-1227.0,0
654,654,-0.2909835751596439,-0.3,1.0,0.0,373.0,662.0,1.0,1,-775.0,0
655,655,-0.8487573327581407,-0.8,0.0,1.0,389.0,809.0,0.0,1,-1168.0,0
656,656,0.47333693456751813,0.5,0.0,0.0,400.0,998.0,0.0,1,-848.0,1
657,657,-0.8765454072392058,-0.9,0.0,1.0,464.0,557.0,0.0,1,-361.0,0
658,658,-0.1901629563386491,-0.2,0.0,1.0,379.0,799.0,1.0,0,-688.0,1
659,659,-0.30618825410930595,-0.3,0.0,1.0,485.0,656.0,1.0,0,-471.0,1
660,660,-0.11047028569777728,-0.1,0.0,1.0,444.0,565.0,1.0,0,-889.0,1
661,661,-0.35648967180627755,-0.4,0.0,1.0,344.0,675.0,1.0,0,2171.0,1
662,662,-0.6271043433478591,-0.6,0.0,1.0,286.0,700.0,1.0,0,2724.0,1
663,663,-0.42084786881559155,-0.4,0.0,1.0,403.0,770.0,0.0,1,447.0,0
664,664,0.6175370255526861,0.6,0.0,0.0,491.0,863.0,1.0,0,546.0,0
665,665,-0.24623417444336837,-0.2,1.0,0.0,480.0,875.0,0.0,0,-1295.0,1
666,666,0.2765117102231688,0.3,1.0,1.0,496.0,811.0,1.0,1,323.0,1
667,667,0.6755217381162869,0.7,0.0,0.0,306.0,997.0,0.0,1,-993.0,1
668,668,-0.7248026879417433,-0.7,0.0,1.0,490.0,758.0,0.0,1,482.0,0
669,669,-0.26168505882162285,-0.3,0.0,1.0,398.0,887.0,1.0,0,-575.0,1
670,670,-0.8596969969150563,-0.9,1.0,0.0,469.0,740.0,0.0,0,-359.0,1
671,671,-0.08766793618576707,-0.1,0.0,1.0,345.0,995.0,1.0,0,-680.0,1
672,672,-0.11576484787792529,-0.1,1.0,0.0,417.0,577.0,1.0,1,-954.0,0
673,673,-0.12971253495074175,-0.1,1.0,0.0,379.0,870.0,0.0,0,-819.0,1
674,674,-0.1557882085027391,-0.2,1.0,0.0,277.0,849.0,1.0,1,-296.0,0
675,675,-0.5642379337655012,-0.6,0.0,1.0,272.0,738.0,1.0,0,820.0,1
676,676,0.7839590742889183,0.8,1.0,1.0,431.0,731.0,0.0,0,688.0,0
677,677,0.44788117585818277,0.4,0.0,0.0,319.0,921.0,1.0,0,2610.0,0
678,678,-0.8066650450827302,-0.8,1.0,0.0,374.0,910.0,1.0,1,-924.0,0
679,679,-0.6982713836859612,-0.7,1.0,0.0,403.0,971.0,1.0,1,-924.0,0
680,680,0.6737235581977853,0.7,0.0,0.0,264.0,517.0,0.0,1,-521.0,1
681,681,0.3105809880634559,0.3,1.0,1.0,375.0,630.0,0.0,0,-965.0,0
682,682,-0.17160248794555522,-0.2,1.0,0.0,410.0,875.0,0.0,0,-1185.0,1
683,683,-0.7905807077981072,-0.8,1.0,0.0,498.0,653.0,1.0,1,-1061.0,0
684,684,-0.8549353814333897,-0.9,1.0,0.0,361.0,673.0,0.0,0,-894.0,1
685,685,0.8791804342687325,0.9,1.0,1.0,265.0,889.0,0.0,0,-384.0,0
686,686,-0.3659784029617571,-0.4,1.0,0.0,411.0,650.0,1.0,1,-21.0,0
687,687,-0.0019262630518357415,-0.0,1.0,0.0,465.0,632.0,0.0,0,963.0,1
688,688,-0.4346180029909177,-0.4,0.0,1.0,459.0,713.0,0.0,1,-1092.0,0
689,689,-0.16279947548260387,-0.2,1.0,0.0,418.0,674.0,1.0,1,-312.0,0
690,690,0.6118788986076701,0.6,1.0,1.0,472.0,800.0,0.0,0,-362.0,0
691,691,0.43232047335907386,0.4,0.0,0.0,470.0,559.0,1.0,0,-989.0,0
692,692,-0.7877406977003663,-0.8,1.0,0.0,258.0,889.0,1.0,1,-27.0,0
693,693,-0.8185130216113903,-0.8,0.0,1.0,282.0,840.0,1.0,0,-462.0,1
694,694,0.43074117753572516,0.4,1.0,1.0,354.0,658.0,1.0,1,3988.0,1
695,695,0.09466697042675465,0.1,0.0,0.0,401.0,633.0,0.0,1,-744.0,1
696,696,0.7277091951903042,0.7,1.0,1.0,313.0,565.0,0.0,0,-708.0,0
697,697,0.8509013165826643,0.9,0.0,0.0,433.0,501.0,0.0,1,-654.0,1
698,698,0.2610632976480386,0.3,1.0,1.0,444.0,880.0,1.0,1,-844.0,1
699,699,0.8783658689954587,0.9,0.0,0.0,447.0,804.0,0.0,1,-641.0,1
700,700,-0.6277644428824928,-0.6,0.0,1.0,345.0,776.0,0.0,1,809.0,0
701,701,-0.5988864709232108,-0.6,0.0,1.0,343.0,749.0,1.0,0,-462.0,1
702,702,0.7395978564139504,0.7,1.0,1.0,277.0,808.0,1.0,1,-935.0,1
703,703,-0.6595199365092242,-0.7,1.0,0.0,290.0,684.0,0.0,0,1006.0,1
704,704,0.20423311309377412,0.2,1.0,1.0,276.0,860.0,0.0,0,-1036.0,0
705,705,0.06993195212988101,0.1,1.0,1.0,277.0,963.0,0.0,0,-800.0,0
706,706,0.28637890608869354,0.3,0.0,0.0,338.0,653.0,0.0,1,639.0,1
707,707,-0.3771070315947591,-0.4,0.0,1.0,254.0,551.0,1.0,0,915.0,1
708,708,-0.4004516726750558,-0.4,0.0,1.0,329.0,913.0,1.0,0,1198.0,1
709,709,-0.21992885629956604,-0.2,1.0,0.0,352.0,723.0,1.0,1,-1065.0,0
710,710,-0.6520405951873471,-0.7,1.0,0.0,288.0,968.0,0.0,0,-1196.0,1
711,711,0.26265779477649775,0.3,1.0,1.0,394.0,533.0,0.0,0,373.0,0
712,712,0.3744450779022378,0.4,0.0,0.0,301.0,881.0,0.0,1,-1102.0,1
713,713,-0.22753590454255324,-0.2,0.0,1.0,443.0,975.0,1.0,0,1392.0,1
714,714,-0.23620729735324952,-0.2,1.0,0.0,499.0,790.0,0.0,0,-1099.0,1
715,715,-0.1155292210213954,-0.1,0.0,1.0,409.0,708.0,1.0,0,73.0,1
716,716,0.5033331614819091,0.5,1.0,1.0,431.0,670.0,1.0,1,-821.0,1
717,717,0.41424416520815843,0.4,0.0,0.0,286.0,851.0,0.0,1,-837.0,1
718,718,0.5331824336566674,0.5,1.0,1.0,356.0,611.0,0.0,0,-927.0,0
719,719,-0.07768495498249783,-0.1,0.0,1.0,477.0,675.0,0.0,1,268.0,0
720,720,-0.49762135255632295,-0.5,1.0,0.0,401.0,726.0,0.0,0,-1067.0,1
721,721,-0.5693155076451031,-0.6,0.0,1.0,256.0,834.0,1.0,0,1290.0,1
722,722,0.0033112551858039962,0.0,0.0,0.0,488.0,798.0,1.0,0,1284.0,0
723,723,0.8332693108420358,0.8,1.0,1.0,277.0,661.0,1.0,1,-768.0,1
724,724,-0.718479796782295,-0.7,0.0,1.0,318.0,505.0,0.0,1,-743.0,0
725,725,-0.6335802812415079,-0.6,1.0,0.0,349.0,718.0,0.0,0,303.0,1
726,726,0.40047962116007485,0.4,1.0,1.0,286.0,956.0,1.0,1,-982.0,1
727,727,-0.4328798185588117,-0.4,1.0,0.0,358.0,785.0,0.0,0,667.0,1
728,728,-0.2548246803601647,-0.3,1.0,0.0,285.0,612.0,0.0,0,-867.0,1
729,729,-0.6512304452759253,-0.7,0.0,1.0,404.0,794.0,1.0,0,102.0,1
730,730,-0.8010671261658026,-0.8,1.0,0.0,266.0,539.0,1.0,1,-735.0,0
731,731,-0.25695949141272,-0.3,0.0,1.0,356.0,532.0,1.0,0,-758.0,1
732,732,0.09872661691886453,0.1,0.0,0.0,303.0,913.0,1.0,0,1474.0,0
733,733,-0.004639639077699931,-0.0,1.0,0.0,367.0,854.0,1.0,1,1579.0,0
734,734,0.507568293905594,0.5,0.0,0.0,381.0,714.0,0.0,1,1075.0,1
735,735,-0.2393516105403244,-0.2,0.0,1.0,368.0,850.0,0.0,1,-788.0,0
736,736,0.4171614813300045,0.4,1.0,1.0,293.0,746.0,0.0,0,-1009.0,0
737,737,0.29434539688364925,0.3,1.0,1.0,255.0,813.0,0.0,0,602.0,0
738,738,0.6848606784870109,0.7,1.0,1.0,467.0,518.0,1.0,1,-955.0,1
739,739,-0.3464878045920551,-0.3,1.0,0.0,483.0,672.0,0.0,0,-305.0,1
740,740,0.5380046211889239,0.5,1.0,1.0,384.0,707.0,1.0,1,519.0,1
741,741,-0.7302880384236182,-0.7,1.0,0.0,282.0,868.0,1.0,1,170.0,0
742,742,-0.6914947569005901,-0.7,0.0,1.0,286.0,709.0,1.0,0,-475.0,1
743,743,-0.648875816707491,-0.6,1.0,0.0,372.0,875.0,0.0,0,53.0,1
744,744,-0.18362622250409766,-0.2,0.0,1.0,484.0,938.0,0.0,1,408.0,0
745,745,0.5483712037848306,0.5,1.0,1.0,285.0,955.0,0.0,0,-1170.0,0
746,746,0.27728277903352316,0.3,1.0,1.0,467.0,733.0,0.0,0,710.0,0
747,747,-0.2293133794701,-0.2,1.0,0.0,384.0,659.0,0.0,0,-893.0,1
748,748,0.13552844129129749,0.1,0.0,0.0,425.0,761.0,0.0,1,-26.0,1
749,749,0.2753182254654879,0.3,0.0,0.0,273.0,551.0,1.0,0,366.0,0
750,750,0.5558804038919724,0.6,1.0,1.0,388.0,675.0,1.0,1,1837.0,1
751,751,-0.5641939505703468,-0.6,0.0,1.0,264.0,914.0,0.0,1,-898.0,0
752,752,0.4916114802556658,0.5,1.0,1.0,397.0,714.0,0.0,0,-701.0,0
753,753,0.5410048921416121,0.5,1.0,1.0,367.0,715.0,0.0,0,-12.0,0
754,754,0.47189046479276653,0.5,0.0,0.0,282.0,539.0,1.0,0,-721.0,0
755,755,0.17410181998965213,0.2,1.0,1.0,451.0,626.0,0.0,0,-7.0,0
756,756,0.6101183102265945,0.6,1.0,1.0,366.0,606.0,0.0,0,-942.0,0
757,757,0.04868484924998173,0.0,1.0,1.0,402.0,846.0,1.0,1,-958.0,1
758,758,0.7639129085699433,0.8,0.0,0.0,499.0,540.0,0.0,1,-1039.0,1
759,759,-0.19326802502079,-0.2,0.0,1.0,301.0,820.0,0.0,1,-441.0,0
760,760,-0.06947863774098273,-0.1,1.0,0.0,328.0,644.0,1.0,1,-592.0,0
761,761,-0.3656570069054448,-0.4,0.0,1.0,299.0,743.0,1.0,0,-182.0,1
762,762,0.4194265628745629,0.4,1.0,1.0,361.0,959.0,0.0,0,-360.0,0
763,763,0.48024654117696486,0.5,0.0,0.0,466.0,545.0,0.0,1,-991.0,1
764,764,0.172737493045381,0.2,0.0,0.0,379.0,994.0,1.0,0,-243.0,0
765,765,-0.7058658102135942,-0.7,1.0,0.0,471.0,600.0,0.0,0,-461.0,1
766,766,-0.04221853225369909,-0.0,0.0,1.0,445.0,755.0,1.0,0,-1170.0,1
767,767,0.7142403120638411,0.7,1.0,1.0,498.0,980.0,0.0,0,-1118.0,0
768,768,0.865031581075619,0.9,1.0,1.0,358.0,893.0,0.0,0,1209.0,0
769,769,-0.2642013332747942,-0.3,0.0,1.0,304.0,929.0,1.0,0,-1163.0,1
770,770,0.5007401690392991,0.5,1.0,1.0,333.0,635.0,0.0,0,-238.0,0
771,771,0.7740578457130526,0.8,0.0,0.0,356.0,525.0,0.0,1,1559.0,1
772,772,0.1571014818852231,0.2,1.0,1.0,383.0,698.0,1.0,1,-1011.0,1
773,773,0.7256972225299955,0.7,1.0,1.0,461.0,688.0,1.0,1,-1079.0,1
774,774,-0.15138382106022852,-0.2,1.0,0.0,336.0,965.0,1.0,1,189.0,0
775,775,-0.6175572659207955,-0.6,1.0,0.0,338.0,592.0,0.0,0,-610.0,1
776,776,0.5246303556614541,0.5,0.0,0.0,331.0,856.0,0.0,1,-1177.0,1
777,777,0.07525664171793944,0.1,0.0,0.0,385.0,580.0,0.0,1,-45.0,1
778,778,-0.12759511495956843,-0.1,1.0,0.0,271.0,558.0,1.0,1,-69.0,0
779,779,-0.5804073404808917,-0.6,0.0,1.0,490.0,938.0,1.0,0,-1138.0,1
780,780,0.3395246080495048,0.3,1.0,1.0,406.0,537.0,0.0,0,1897.0,0
781,781,0.7388278101604858,0.7,1.0,1.0,419.0,738.0,1.0,1,-577.0,1
782,782,0.3316654962949982,0.3,1.0,1.0,429.0,993.0,0.0,0,-212.0,0
783,783,-0.5276822069146236,-0.5,1.0,0.0,445.0,987.0,1.0,1,-362.0,0
784,784,-0.8510166964605919,-0.9,1.0,0.0,347.0,545.0,1.0,1,278.0,0
785,785,-0.23404188043519147,-0.2,1.0,0.0,280.0,516.0,0.0,0,-676.0,1
786,786,-0.19136120251962696,-0.2,1.0,0.0,296.0,574.0,1.0,1,-710.0,0
787,787,-0.16343222215461584,-0.2,0.0,1.0,392.0,677.0,1.0,0,71.0,1
788,788,-0.892124276007384,-0.9,1.0,0.0,293.0,546.0,0.0,0,-169.0,1
789,789,-0.19041040046157554,-0.2,1.0,0.0,281.0,753.0,0.0,0,336.0,1
790,790,-0.24022442175891123,-0.2,1.0,0.0,373.0,778.0,1.0,1,-111.0,0
791,791,0.8666369556330719,0.9,0.0,0.0,386.0,867.0,1.0,0,1057.0,0
792,792,-0.3170750734947497,-0.3,1.0,0.0,448.0,940.0,0.0,0,1112.0,1
793,793,-0.3037532326426189,-0.3,0.0,1.0,408.0,846.0,1.0,0,2436.0,1
794,794,0.6740077760427824,0.7,1.0,1.0,486.0,936.0,1.0,1,-1202.0,1
795,795,-0.683919563715899,-0.7,1.0,0.0,450.0,973.0,0.0,0,347.0,1
796,796,0.3516243376500704,0.4,0.0,0.0,445.0,930.0,0.0,1,-925.0,1
797,797,-2.1444486283495046e-05,-0.0,1.0,0.0,304.0,598.0,1.0,1,1828.0,0
798,798,-0.3511132883145929,-0.4,1.0,0.0,297.0,953.0,1.0,1,-1180.0,0
799,799,-0.3343720134665955,-0.3,1.0,0.0,397.0,953.0,0.0,0,-940.0,1
800,800,0.8276446621661738,0.8,0.0,0.0,486.0,585.0,0.0,1,-691.0,1
801,801,0.32657672352065437,0.3,0.0,0.0,281.0,817.0,0.0,1,1082.0,1
802,802,-0.8345225615936307,-0.8,1.0,0.0,309.0,835.0,1.0,1,-964.0,0
803,803,-0.7474057794923112,-0.7,1.0,0.0,359.0,575.0,1.0,1,556.0,0
804,804,0.5481830398711321,0.5,1.0,1.0,251.0,604.0,0.0,0,-165.0,0
805,805,-0.2643418362449155,-0.3,1.0,0.0,296.0,891.0,0.0,0,533.0,1
806,806,-0.6716865616019851,-0.7,1.0,0.0,277.0,928.0,0.0,0,-965.0,1
807,807,-0.09383584140514423,-0.1,0.0,1.0,280.0,931.0,1.0,0,-1161.0,1
808,808,-0.4857947258317658,-0.5,0.0,1.0,362.0,657.0,1.0,0,-249.0,1
809,809,-0.6839088074459477,-0.7,0.0,1.0,389.0,711.0,1.0,0,70.0,1
810,810,-0.20589234582843186,-0.2,1.0,0.0,446.0,546.0,1.0,1,-962.0,0
811,811,0.19659660399401735,0.2,0.0,0.0,327.0,543.0,1.0,0,-810.0,0
812,812,-0.8660140984886912,-0.9,1.0,0.0,272.0,633.0,0.0,0,-515.0,1
813,813,-0.045490502927051035,-0.0,0.0,1.0,401.0,725.0,0.0,1,1194.0,0
814,814,-0.7697726006546441,-0.8,0.0,1.0,328.0,938.0,0.0,1,-816.0,0
815,815,0.69341803803563,0.7,1.0,1.0,419.0,937.0,0.0,0,-76.0,0
816,816,-0.6705270232539204,-0.7,0.0,1.0,422.0,534.0,0.0,1,-916.0,0
817,817,0.782585680606089,0.8,1.0,1.0,453.0,695.0,0.0,0,3492.0,0
818,818,0.5847166396476092,0.6,0.0,0.0,280.0,845.0,1.0,0,2285.0,0
819,819,0.8822189022816175,0.9,0.0,0.0,460.0,571.0,1.0,0,-531.0,0
820,820,0.5910729884301157,0.6,0.0,0.0,443.0,847.0,0.0,1,-330.0,1
821,821,-0.5237278023167071,-0.5,1.0,0.0,455.0,575.0,1.0,1,120.0,0
822,822,0.10812536959715346,0.1,1.0,1.0,487.0,838.0,0.0,0,2425.0,0
823,823,-0.8029324651915872,-0.8,0.0,1.0,486.0,679.0,0.0,1,-845.0,0
824,824,-0.6295953776788905,-0.6,1.0,0.0,487.0,821.0,0.0,0,-438.0,1
825,825,0.76880923635915,0.8,1.0,1.0,414.0,816.0,1.0,1,320.0,1
826,826,-0.08481182618510441,-0.1,1.0,0.0,400.0,992.0,1.0,1,-1262.0,0
827,827,-0.8062584639088329,-0.8,1.0,0.0,378.0,516.0,1.0,1,2056.0,0
828,828,0.7791774708544436,0.8,0.0,0.0,274.0,900.0,1.0,0,-1164.0,0
829,829,0.07816596814545107,0.1,0.0,0.0,293.0,580.0,1.0,0,637.0,0
830,830,0.3557341448359651,0.4,1.0,1.0,454.0,528.0,1.0,1,-422.0,1
831,831,-0.6701461076672651,-0.7,0.0,1.0,279.0,539.0,0.0,1,-28.0,0
832,832,0.0004126017166392604,0.0,0.0,0.0,294.0,629.0,1.0,0,-273.0,0
833,833,0.15975724314413597,0.2,0.0,0.0,356.0,666.0,0.0,1,-652.0,1
834,834,-0.7949443394980181,-0.8,0.0,1.0,422.0,595.0,1.0,0,-1017.0,1
835,835,-0.1155462360428996,-0.1,0.0,1.0,338.0,516.0,1.0,0,276.0,1
836,836,-0.7838336861631103,-0.8,0.0,1.0,485.0,862.0,0.0,1,-727.0,0
837,837,-0.30480800130346763,-0.3,0.0,1.0,389.0,653.0,0.0,1,-592.0,0
838,838,-0.10123824377847657,-0.1,0.0,1.0,392.0,768.0,1.0,0,-240.0,1
839,839,0.341728486748074,0.3,1.0,1.0,353.0,827.0,1.0,1,-510.0,1
840,840,0.5436155560069807,0.5,1.0,1.0,390.0,547.0,0.0,0,-737.0,0
841,841,-0.7266068281904977,-0.7,0.0,1.0,321.0,596.0,0.0,1,673.0,0
842,842,0.6791005560409357,0.7,0.0,0.0,425.0,828.0,0.0,1,-513.0,1
843,843,0.3254746341242504,0.3,1.0,1.0,264.0,783.0,1.0,1,743.0,1
844,844,0.8318358031633092,0.8,1.0,1.0,304.0,755.0,1.0,1,1311.0,1
845,845,-0.5046138372654683,-0.5,1.0,0.0,491.0,672.0,1.0,1,-283.0,0
846,846,-0.7040263284960379,-0.7,1.0,0.0,492.0,512.0,1.0,1,106.0,0
847,847,0.09342251251886924,0.1,1.0,1.0,425.0,534.0,1.0,1,-929.0,1
848,848,0.004040833406835476,0.0,0.0,0.0,418.0,919.0,1.0,0,3193.0,0
849,849,0.845888187000405,0.8,0.0,0.0,438.0,675.0,0.0,1,687.0,1
850,850,0.043909229982850406,0.0,0.0,0.0,313.0,791.0,1.0,0,1566.0,0
851,851,-0.40138303833722405,-0.4,0.0,1.0,398.0,948.0,1.0,0,-1136.0,1
852,852,-0.18077726256148596,-0.2,1.0,0.0,420.0,992.0,0.0,0,-862.0,1
853,853,0.8214781552624132,0.8,1.0,1.0,367.0,574.0,1.0,1,999.0,1
854,854,-0.5163690517133224,-0.5,0.0,1.0,492.0,862.0,1.0,0,-514.0,1
855,855,-0.4382555382364228,-0.4,1.0,0.0,386.0,607.0,0.0,0,-193.0,1
856,856,0.24401088825389905,0.2,1.0,1.0,499.0,863.0,1.0,1,-1352.0,1
857,857,-0.26911377169029704,-0.3,0.0,1.0,334.0,995.0,0.0,1,-1239.0,0
858,858,-0.43322202027878687,-0.4,0.0,1.0,386.0,966.0,0.0,1,-992.0,0
859,859,-0.5477174750724183,-0.5,1.0,0.0,281.0,612.0,0.0,0,-263.0,1
860,860,0.8184101544331058,0.8,1.0,1.0,329.0,501.0,0.0,0,1360.0,0
861,861,0.5254098672412414,0.5,1.0,1.0,413.0,815.0,0.0,0,-1168.0,0
862,862,0.8057916784495217,0.8,1.0,1.0,458.0,864.0,0.0,0,-1232.0,0
863,863,-0.3769198127213721,-0.4,1.0,0.0,402.0,748.0,0.0,0,-1030.0,1
864,864,0.6639082219985547,0.7,0.0,0.0,335.0,628.0,1.0,0,-943.0,0
865,865,-0.09235463102003738,-0.1,0.0,1.0,341.0,530.0,1.0,0,479.0,1
866,866,0.5549706747674957,0.6,0.0,0.0,364.0,950.0,1.0,0,-884.0,0
867,867,0.2899934965491321,0.3,0.0,0.0,363.0,512.0,0.0,1,-755.0,1
868,868,-0.8913498171700114,-0.9,0.0,1.0,322.0,890.0,1.0,0,-792.0,1
869,869,0.6986880405347854,0.7,1.0,1.0,470.0,674.0,0.0,0,146.0,0
870,870,0.2914111549032462,0.3,0.0,0.0,349.0,958.0,0.0,1,3613.0,1
871,871,0.04667101023726883,0.0,0.0,0.0,369.0,536.0,0.0,1,-675.0,1
872,872,-0.10134685613303251,-0.1,1.0,0.0,294.0,662.0,0.0,0,-826.0,1
873,873,0.014633266841236892,0.0,1.0,1.0,420.0,977.0,0.0,0,753.0,0
874,874,-0.37298273644390745,-0.4,1.0,0.0,457.0,821.0,1.0,1,-628.0,0
875,875,0.28492426448747976,0.3,0.0,0.0,312.0,778.0,0.0,1,-600.0,1
876,876,-0.43499079553815634,-0.4,0.0,1.0,284.0,882.0,1.0,0,84.0,1
877,877,-0.34343878347140344,-0.3,0.0,1.0,395.0,967.0,0.0,1,-1252.0,0
878,878,0.14608249882233892,0.1,0.0,0.0,403.0,878.0,1.0,0,3149.0,0
879,879,0.7623575674679578,0.8,1.0,1.0,251.0,856.0,0.0,0,543.0,0
880,880,0.7760153925006706,0.8,0.0,0.0,478.0,852.0,0.0,1,90.0,1
881,881,-0.6891790983200419,-0.7,0.0,1.0,379.0,781.0,1.0,0,-610.0,1
882,882,0.2601161208222166,0.3,1.0,1.0,255.0,743.0,1.0,1,-688.0,1
883,883,-0.1157492710934066,-0.1,1.0,0.0,424.0,734.0,1.0,1,542.0,0
884,884,-0.22232204193483984,-0.2,1.0,0.0,415.0,610.0,1.0,1,-955.0,0
885,885,-0.11842949875671438,-0.1,1.0,0.0,374.0,621.0,1.0,1,-805.0,0
886,886,-0.7786031401033862,-0.8,1.0,0.0,445.0,536.0,1.0,1,-101.0,0
887,887,-0.3635752572492954,-0.4,1.0,0.0,392.0,890.0,0.0,0,-912.0,1
888,888,-0.38213156207283405,-0.4,1.0,0.0,251.0,867.0,0.0,0,1192.0,1
889,889,-0.6459559709197931,-0.6,1.0,0.0,266.0,586.0,0.0,0,-652.0,1
890,890,-0.3048536507771279,-0.3,0.0,1.0,398.0,845.0,1.0,0,177.0,1
891,891,-0.49330101372552104,-0.5,1.0,0.0,315.0,726.0,0.0,0,-311.0,1
892,892,0.8210513701641274,0.8,1.0,1.0,484.0,901.0,1.0,1,-1175.0,1
893,893,-0.8204168478013794,-0.8,0.0,1.0,365.0,923.0,0.0,1,-1178.0,0
894,894,-0.13969565654538973,-0.1,0.0,1.0,408.0,522.0,0.0,1,-570.0,0
895,895,0.35664738294969667,0.4,1.0,1.0,366.0,707.0,1.0,1,-903.0,1
896,896,-0.08868965134800222,-0.1,1.0,0.0,417.0,588.0,0.0,0,245.0,1
897,897,0.386585909801879,0.4,0.0,0.0,285.0,989.0,1.0,0,946.0,0
898,898,0.49015535292674894,0.5,1.0,1.0,499.0,505.0,1.0,1,766.0,1
899,899,-0.47356859321513317,-0.5,0.0,1.0,392.0,549.0,1.0,0,249.0,1
900,900,0.6517381631463596,0.7,1.0,1.0,496.0,692.0,1.0,1,172.0,1
901,901,0.24422929755048728,0.2,1.0,1.0,404.0,656.0,1.0,1,-1040.0,1
902,902,0.08226190770813024,0.1,1.0,1.0,477.0,564.0,1.0,1,-661.0,1
903,903,-0.7383408659836846,-0.7,1.0,0.0,431.0,830.0,1.0,1,-311.0,0
904,904,-0.07363511297217518,-0.1,0.0,1.0,357.0,803.0,0.0,1,1780.0,0
905,905,-0.009633085245437822,-0.0,1.0,0.0,478.0,980.0,1.0,1,-1348.0,0
906,906,-0.1646749220529513,-0.2,0.0,1.0,312.0,877.0,1.0,0,1451.0,1
907,907,-0.866296740175507,-0.9,1.0,0.0,452.0,737.0,1.0,1,31.0,0
908,908,-0.42897937934870006,-0.4,0.0,1.0,422.0,547.0,0.0,1,-359.0,0
909,909,-0.56000071916342,-0.6,1.0,0.0,330.0,591.0,0.0,0,1539.0,1
910,910,-0.0393779101091456,-0.0,1.0,0.0,365.0,865.0,1.0,1,-1230.0,0
911,911,-0.5417890867574671,-0.5,1.0,0.0,377.0,912.0,0.0,0,321.0,1
912,912,-0.6449395305657739,-0.6,0.0,1.0,286.0,983.0,0.0,1,-1019.0,0
913,913,-0.05751529094816443,-0.1,0.0,1.0,330.0,528.0,0.0,1,-828.0,0
914,914,0.8130745339822331,0.8,1.0,1.0,473.0,581.0,1.0,1,3946.0,1
915,915,0.7825238509628075,0.8,1.0,1.0,262.0,515.0,1.0,1,1183.0,1
916,916,-0.5999123027514158,-0.6,1.0,0.0,323.0,627.0,0.0,0,-610.0,1
917,917,-0.8596715345035546,-0.9,1.0,0.0,385.0,556.0,1.0,1,-631.0,0
918,918,0.061418278100229484,0.1,1.0,1.0,418.0,516.0,1.0,1,-804.0,1
919,919,0.842259386012668,0.8,0.0,0.0,284.0,754.0,1.0,0,412.0,0
920,920,-0.7544331159023957,-0.8,1.0,0.0,339.0,878.0,1.0,1,353.0,0
921,921,0.5394097289228955,0.5,1.0,1.0,290.0,718.0,0.0,0,782.0,0
922,922,0.12617238241473594,0.1,0.0,0.0,253.0,543.0,1.0,0,604.0,0
923,923,-0.7509255376875074,-0.8,0.0,1.0,368.0,985.0,1.0,0,77.0,1
924,924,0.8559955851052706,0.9,0.0,0.0,254.0,532.0,0.0,1,-786.0,1
925,925,0.7708051285699652,0.8,0.0,0.0,363.0,926.0,1.0,0,3711.0,0
926,926,0.3192222695145227,0.3,0.0,0.0,331.0,537.0,0.0,1,-658.0,1
927,927,-0.8752214049099327,-0.9,0.0,1.0,389.0,879.0,0.0,1,-1158.0,0
928,928,-0.2590488969059953,-0.3,0.0,1.0,309.0,872.0,0.0,1,-921.0,0
929,929,0.4100726554802746,0.4,0.0,0.0,372.0,964.0,0.0,1,254.0,1
930,930,0.7099446886299924,0.7,0.0,0.0,266.0,862.0,1.0,0,1352.0,0
931,931,0.7595941217799721,0.8,1.0,1.0,321.0,787.0,0.0,0,3892.0,0
932,932,-0.3408698874556785,-0.3,1.0,0.0,416.0,631.0,0.0,0,-227.0,1
933,933,-0.6914243854672011,-0.7,1.0,0.0,402.0,900.0,0.0,0,-1092.0,1
934,934,0.6684620380634337,0.7,1.0,1.0,285.0,758.0,1.0,1,67.0,1
935,935,-0.43753636263418977,-0.4,0.0,1.0,477.0,799.0,0.0,1,-216.0,0
936,936,0.03650026065527889,0.0,0.0,0.0,261.0,969.0,1.0,0,-750.0,0
937,937,-0.315729128446427,-0.3,0.0,1.0,491.0,962.0,0.0,1,-1433.0,0
938,938,-0.06625756803539129,-0.1,1.0,0.0,400.0,781.0,1.0,1,-261.0,0
939,939,-0.8358230882556706,-0.8,0.0,1.0,366.0,804.0,0.0,1,-1040.0,0
940,940,0.3482688742244008,0.3,1.0,1.0,306.0,814.0,0.0,0,930.0,0
941,941,0.09298944163114509,0.1,0.0,0.0,393.0,941.0,1.0,0,-304.0,0
942,942,-0.805135272481504,-0.8,0.0,1.0,388.0,541.0,1.0,0,-519.0,1
943,943,0.5439302343558644,0.5,0.0,0.0,459.0,716.0,1.0,0,-395.0,0
944,944,-0.7284103744762868,-0.7,1.0,0.0,446.0,507.0,0.0,0,-753.0,1
945,945,0.4511209375632691,0.5,1.0,1.0,322.0,855.0,0.0,0,2223.0,0
946,946,-0.7143604262905521,-0.7,1.0,0.0,487.0,822.0,0.0,0,2421.0,1
947,947,-0.8178312751553736,-0.8,0.0,1.0,380.0,709.0,0.0,1,-249.0,0
948,948,0.3487134992547093,0.3,1.0,1.0,423.0,603.0,1.0,1,24.0,1
949,949,0.5836689748239446,0.6,1.0,1.0,369.0,963.0,0.0,0,1148.0,0
950,950,0.7218962756266024,0.7,0.0,0.0,251.0,955.0,1.0,0,654.0,0
951,951,-0.3412965568465238,-0.3,0.0,1.0,333.0,738.0,0.0,1,-1061.0,0
952,952,-0.8025675383136139,-0.8,1.0,0.0,497.0,747.0,1.0,1,386.0,0
953,953,0.23990386764264093,0.2,0.0,0.0,420.0,648.0,0.0,1,-908.0,1
954,954,-0.8959509799122786,-0.9,0.0,1.0,486.0,818.0,0.0,1,-574.0,0
955,955,0.4769152417029904,0.5,0.0,0.0,339.0,733.0,0.0,1,-1042.0,1
956,956,0.09796551849753377,0.1,0.0,0.0,278.0,521.0,1.0,0,4201.0,0
957,957,-0.7944047066089946,-0.8,1.0,0.0,399.0,742.0,0.0,0,1549.0,1
958,958,-0.20471844716920606,-0.2,1.0,0.0,452.0,915.0,1.0,1,753.0,0
959,959,0.5800350722595718,0.6,1.0,1.0,428.0,753.0,1.0,1,-1061.0,1
960,960,-0.20867913147792472,-0.2,1.0,0.0,417.0,746.0,0.0,0,-93.0,1
961,961,0.8556571942914472,0.9,0.0,0.0,361.0,863.0,0.0,1,1046.0,1
962,962,-0.38134756031420936,-0.4,1.0,0.0,253.0,874.0,1.0,1,-627.0,0
963,963,0.34001633482768356,0.3,1.0,1.0,446.0,797.0,0.0,0,687.0,0
964,964,0.5998978657484838,0.6,1.0,1.0,342.0,527.0,0.0,0,-249.0,0
965,965,-0.571651448988984,-0.6,0.0,1.0,465.0,845.0,0.0,1,1310.0,0
966,966,-0.7379138400025862,-0.7,0.0,1.0,371.0,801.0,1.0,0,-972.0,1
967,967,-0.20433245608837058,-0.2,1.0,0.0,252.0,667.0,1.0,1,-109.0,0
968,968,0.6058734909452997,0.6,0.0,0.0,405.0,905.0,1.0,0,10.0,0
969,969,-0.8680296961519501,-0.9,1.0,0.0,384.0,707.0,0.0,0,99.0,1
970,970,-0.11994884081377244,-0.1,1.0,0.0,375.0,544.0,0.0,0,-269.0,1
971,971,-0.7341856565261063,-0.7,0.0,1.0,451.0,555.0,1.0,0,-146.0,1
972,972,0.3212153722904999,0.3,0.0,0.0,381.0,755.0,0.0,1,1544.0,1
973,973,0.13668686562943388,0.1,1.0,1.0,453.0,733.0,1.0,1,-436.0,1
974,974,0.5784640355588583,0.6,0.0,0.0,424.0,757.0,0.0,1,-1041.0,1
975,975,-0.1211754895866759,-0.1,0.0,1.0,389.0,719.0,1.0,0,-408.0,1
976,976,-0.6030939007663513,-0.6,1.0,0.0,337.0,972.0,1.0,1,641.0,0
977,977,-0.89872861627564,-0.9,1.0,0.0,318.0,884.0,1.0,1,-592.0,0
978,978,-0.06680511118350796,-0.1,1.0,0.0,357.0,780.0,0.0,0,-847.0,1
979,979,-0.16078363005854313,-0.2,1.0,0.0,421.0,584.0,0.0,0,-505.0,1
980,980,0.7310412998145702,0.7,1.0,1.0,499.0,997.0,0.0,0,-546.0,0
981,981,-0.30018068630338424,-0.3,0.0,1.0,405.0,677.0,0.0,1,-842.0,0
982,982,0.1526503289077491,0.2,1.0,1.0,430.0,788.0,0.0,0,-428.0,0
983,983,0.46988112262825965,0.5,1.0,1.0,362.0,706.0,1.0,1,812.0,1
984,984,0.40983563957029145,0.4,0.0,0.0,336.0,616.0,1.0,0,-892.0,0
985,985,0.12450690157787137,0.1,0.0,0.0,380.0,559.0,1.0,0,-929.0,0
986,986,-0.5965186342380507,-0.6,1.0,0.0,432.0,768.0,1.0,1,1230.0,0
987,987,0.6711046084336018,0.7,1.0,1.0,345.0,844.0,1.0,1,-969.0,1
988,988,-0.767589070500927,-0.8,0.0,1.0,382.0,985.0,0.0,1,-47.0,0
989,989,0.6055156962289717,0.6,1.0,1.0,458.0,862.0,0.0,0,480.0,0
990,990,0.5297775488390998,0.5,0.0,0.0,271.0,948.0,1.0,0,3781.0,0
991,991,-0.5395564845719136,-0.5,0.0,1.0,330.0,940.0,1.0,0,-1000.0,1
992,992,0.4660269940731604,0.5,1.0,1.0,291.0,812.0,0.0,0,-73.0,0
993,993,0.1261419135476246,0.1,1.0,1.0,331.0,628.0,0.0,0,2001.0,0
994,994,0.3095654632729762,0.3,0.0,0.0,415.0,964.0,1.0,0,3621.0,0
995,995,0.03396549646719482,0.0,0.0,0.0,386.0,789.0,0.0,1,265.0,1
996,996,0.48023462522215354,0.5,1.0,1.0,303.0,577.0,0.0,0,-540.0,0
997,997,-0.08682231986195577,-0.1,0.0,1.0,281.0,572.0,0.0,1,-603.0,0
998,998,-0.18794637467538533,-0.2,0.0,1.0,395.0,943.0,1.0,0,-58.0,1
999,999,0.5876009315792229,0.6,0.0,0.0,418.0,827.0,1.0,0,-855.0,0
1000,1000,-0.7071050125581024,-0.7,0.0,1.0,442.0,747.0,0.0,1,-999.0,0
1001,1001,-0.8315499836057053,-0.8,1.0,0.0,375.0,761.0,0.0,0,1064.0,1
1002,1002,0.546818815121556,0.5,0.0,0.0,441.0,784.0,0.0,1,-505.0,1
1003,1003,-0.7113256416484034,-0.7,0.0,1.0,461.0,700.0,0.0,1,1729.0,0
1004,1004,0.8950622896839339,0.9,0.0,0.0,269.0,675.0,1.0,0,-134.0,0
1005,1005,-0.19188480252946893,-0.2,1.0,0.0,483.0,504.0,0.0,0,2053.0,1
1006,1006,0.6667830828839448,0.7,0.0,0.0,405.0,777.0,1.0,0,-32.0,0
1007,1007,-0.7986107480405126,-0.8,0.0,1.0,415.0,896.0,1.0,0,639.0,1
1008,1008,-0.49000052773530733,-0.5,0.0,1.0,342.0,871.0,0.0,1,307.0,0
1009,1009,0.5251614687996936,0.5,0.0,0.0,491.0,590.0,0.0,1,309.0,1
1010,1010,0.19290735853929564,0.2,0.0,0.0,327.0,861.0,0.0,1,752.0,1
1011,1011,-0.3581997402243877,-0.4,1.0,0.0,348.0,925.0,1.0,1,-913.0,0
1012,1012,-0.6170169635612119,-0.6,0.0,1.0,447.0,614.0,1.0,0,3229.0,1
1013,1013,-0.5437076627076554,-0.5,1.0,0.0,455.0,500.0,0.0,0,-715.0,1
1014,1014,-0.003889048793512151,-0.0,0.0,1.0,445.0,946.0,0.0,1,-581.0,0
1015,1015,-0.3180033777729179,-0.3,0.0,1.0,481.0,572.0,1.0,0,-53.0,1
1016,1016,0.6486601151786345,0.6,1.0,1.0,256.0,939.0,1.0,1,-1125.0,1
1017,1017,0.43239854961460134,0.4,1.0,1.0,334.0,717.0,1.0,1,59.0,1
1018,1018,-0.572871735209658,-0.6,1.0,0.0,373.0,951.0,1.0,1,-384.0,0
1019,1019,0.606012303273468,0.6,0.0,0.0,263.0,686.0,0.0,1,-929.0,1
1020,1020,0.7326753129536837,0.7,1.0,1.0,310.0,539.0,1.0,1,1.0,1
1021,1021,0.5300441825170034,0.5,0.0,0.0,258.0,715.0,1.0,0,-203.0,0
1022,1022,-0.12259478329463136,-0.1,0.0,1.0,403.0,991.0,0.0,1,-1294.0,0
1023,1023,0.164513567497094,0.2,0.0,0.0,445.0,934.0,1.0,0,-659.0,0
1024,1024,0.09109902403522907,0.1,1.0,1.0,406.0,915.0,0.0,0,-1281.0,0
1025,1025,-0.35835770956252366,-0.4,1.0,0.0,405.0,807.0,1.0,1,-822.0,0
1026,1026,-0.15483282066126247,-0.2,0.0,1.0,453.0,780.0,1.0,0,-303.0,1
1027,1027,-0.47710850010047096,-0.5,1.0,0.0,386.0,947.0,1.0,1,-1183.0,0
1028,1028,0.7866364744256392,0.8,0.0,0.0,328.0,776.0,0.0,1,-934.0,1
1029,1029,-0.13266456132230686,-0.1,1.0,0.0,458.0,517.0,0.0,0,-915.0,1
1030,1030,0.41204117427272957,0.4,0.0,0.0,274.0,966.0,1.0,0,-400.0,0
1031,1031,-0.05133917729159565,-0.1,0.0,1.0,302.0,778.0,0.0,1,-610.0,0
1032,1032,-0.4983899690937615,-0.5,1.0,0.0,321.0,989.0,0.0,0,-910.0,1
1033,1033,0.007513201020270532,0.0,1.0,1.0,461.0,501.0,0.0,0,-172.0,0
1034,1034,0.4253761010705953,0.4,0.0,0.0,372.0,745.0,1.0,0,-877.0,0
1035,1035,0.7813968797434784,0.8,0.0,0.0,398.0,536.0,1.0,0,1056.0,0
1036,1036,0.4510884991074121,0.5,1.0,1.0,420.0,836.0,1.0,1,-506.0,1
1037,1037,0.2296168115447902,0.2,1.0,1.0,424.0,773.0,0.0,0,-577.0,0
1038,1038,0.13162588191749236,0.1,0.0,0.0,265.0,688.0,1.0,0,-463.0,0
1039,1039,0.2687799621796635,0.3,0.0,0.0,377.0,607.0,1.0,0,-814.0,0
1040,1040,0.13695475643262822,0.1,0.0,0.0,420.0,991.0,0.0,1,-1411.0,1
1041,1041,-0.33573333786638093,-0.3,0.0,1.0,353.0,731.0,0.0,1,856.0,0
1042,1042,0.7887714555936532,0.8,0.0,0.0,430.0,854.0,1.0,0,-984.0,0
1043,1043,0.35308832800979306,0.4,0.0,0.0,335.0,983.0,0.0,1,-1178.0,1
1044,1044,0.4151089361610477,0.4,1.0,1.0,348.0,693.0,1.0,1,-401.0,1
1045,1045,0.44462755824860933,0.4,0.0,0.0,252.0,518.0,1.0,0,-160.0,0
1046,1046,-0.8221169429023472,-0.8,0.0,1.0,400.0,613.0,1.0,0,1067.0,1
1047,1047,0.08257174132463407,0.1,1.0,1.0,296.0,871.0,0.0,0,703.0,0
1048,1048,-0.5030077703749304,-0.5,0.0,1.0,273.0,861.0,0.0,1,-84.0,0
1049,1049,0.4332137764481113,0.4,1.0,1.0,417.0,915.0,0.0,0,-1212.0,0
1050,1050,0.5020296204548923,0.5,0.0,0.0,474.0,821.0,1.0,0,125.0,0
1051,1051,-0.3708548595487804,-0.4,1.0,0.0,413.0,759.0,0.0,0,858.0,1
1052,1052,0.694097354870275,0.7,0.0,0.0,290.0,539.0,1.0,0,-439.0,0
1053,1053,0.2949176695060204,0.3,0.0,0.0,320.0,613.0,0.0,1,387.0,1
1054,1054,0.6016085107508861,0.6,0.0,0.0,290.0,627.0,0.0,1,-897.0,1
1055,1055,-0.42286583312133424,-0.4,1.0,0.0,300.0,884.0,0.0,0,326.0,1
1056,1056,0.4445346032387568,0.4,0.0,0.0,265.0,517.0,1.0,0,1718.0,0
1057,1057,0.3304433357447015,0.3,0.0,0.0,338.0,518.0,1.0,0,-786.0,0
1058,1058,0.8555803270818673,0.9,0.0,0.0,415.0,954.0,1.0,0,-49.0,0
1059,1059,0.5546038462849062,0.6,1.0,1.0,356.0,719.0,0.0,0,-745.0,0
1060,1060,-0.7481617010053171,-0.7,1.0,0.0,257.0,625.0,1.0,1,-212.0,0
1061,1061,-0.43787849643358656,-0.4,0.0,1.0,381.0,544.0,1.0,0,385.0,1
1062,1062,-0.6515792654103577,-0.7,1.0,0.0,415.0,568.0,1.0,1,-453.0,0
1063,1063,-0.4307718044290737,-0.4,1.0,0.0,406.0,888.0,0.0,0,-384.0,1
1064,1064,-0.5765727882621972,-0.6,1.0,0.0,475.0,621.0,1.0,1,-656.0,0
1065,1065,-0.8128462904695744,-0.8,1.0,0.0,346.0,709.0,0.0,0,-795.0,1
1066,1066,0.24663939816914404,0.2,0.0,0.0,404.0,629.0,1.0,0,1187.0,0
1067,1067,-0.43871550423255035,-0.4,1.0,0.0,475.0,853.0,0.0,0,-1098.0,1
1068,1068,-0.6353973075420078,-0.6,0.0,1.0,255.0,774.0,1.0,0,1.0,1
1069,1069,-0.8565015517310537,-0.9,0.0,1.0,256.0,598.0,1.0,0,2086.0,1
1070,1070,-0.6467115253903813,-0.6,1.0,0.0,421.0,825.0,0.0,0,-476.0,1
1071,1071,-0.6530700875660467,-0.7,1.0,0.0,470.0,930.0,1.0,1,790.0,0
1072,1072,-0.87557893265391,-0.9,0.0,1.0,278.0,593.0,0.0,1,129.0,0
1073,1073,0.26606493443652635,0.3,1.0,1.0,301.0,984.0,0.0,0,-1215.0,0
1074,1074,0.5318582877830292,0.5,1.0,1.0,475.0,614.0,1.0,1,-989.0,1
1075,1075,0.5667135629908643,0.6,0.0,0.0,419.0,796.0,1.0,0,-425.0,0
1076,1076,0.6135844143838717,0.6,1.0,1.0,432.0,878.0,0.0,0,-1180.0,0
1077,1077,-0.6741767274303344,-0.7,1.0,0.0,363.0,872.0,0.0,0,-1035.0,1
1078,1078,-0.08312709761699211,-0.1,1.0,0.0,286.0,864.0,0.0,0,-40.0,1
1079,1079,-0.5127939965465128,-0.5,0.0,1.0,330.0,963.0,1.0,0,-573.0,1
1080,1080,-0.27407365370149783,-0.3,1.0,0.0,358.0,669.0,0.0,0,-267.0,1
1081,1081,-0.19896570080611242,-0.2,0.0,1.0,296.0,820.0,0.0,1,-1006.0,0
1082,1082,-0.014931165234354338,-0.0,0.0,1.0,454.0,961.0,0.0,1,-1115.0,0
1083,1083,-0.1340069576742443,-0.1,0.0,1.0,261.0,986.0,1.0,0,163.0,1
1084,1084,-0.017401520586359687,-0.0,0.0,1.0,367.0,693.0,0.0,1,-180.0,0
1085,1085,-0.0010012931702029215,-0.0,0.0,1.0,431.0,592.0,1.0,0,177.0,1
1086,1086,-0.34555853987647,-0.3,0.0,1.0,285.0,691.0,0.0,1,4.0,0
1087,1087,-0.7771202277296078,-0.8,0.0,1.0,433.0,766.0,1.0,0,-679.0,1
1088,1088,0.387860727534839,0.4,1.0,1.0,368.0,595.0,0.0,0,487.0,0
1089,1089,-0.518917462822369,-0.5,0.0,1.0,459.0,695.0,1.0,0,-1144.0,1
1090,1090,0.017489296616288397,0.0,1.0,1.0,436.0,539.0,1.0,1,635.0,1
1091,1091,0.23654996264586814,0.2,0.0,0.0,439.0,880.0,0.0,1,-1199.0,1
1092,1092,-0.49254460922801996,-0.5,0.0,1.0,256.0,674.0,0.0,1,2280.0,0
1093,1093,-0.7612466168367338,-0.8,1.0,0.0,476.0,511.0,0.0,0,-287.0,1
1094,1094,-0.6799420297534831,-0.7,0.0,1.0,313.0,617.0,1.0,0,-930.0,1
1095,1095,-0.30398056291441855,-0.3,0.0,1.0,333.0,980.0,0.0,1,-913.0,0
1096,1096,0.5707546901933979,0.6,0.0,0.0,477.0,629.0,1.0,0,-1066.0,0
1097,1097,0.2402981385108317,0.2,0.0,0.0,420.0,827.0,0.0,1,-337.0,1
1098,1098,-0.8955389702783716,-0.9,1.0,0.0,278.0,568.0,1.0,1,1884.0,0
1099,1099,0.552907494058574,0.6,1.0,1.0,451.0,969.0,0.0,0,40.0,0
1100,1100,-0.5607020079713227,-0.6,0.0,1.0,290.0,791.0,0.0,1,-1.0,0
1101,1101,-0.892468850934954,-0.9,1.0,0.0,267.0,623.0,0.0,0,4060.0,1
1102,1102,0.8539694931002347,0.9,1.0,1.0,268.0,949.0,0.0,0,-807.0,0
1103,1103,-0.09330080866842538,-0.1,1.0,0.0,367.0,816.0,0.0,0,-173.0,1
1104,1104,-0.35129610652146714,-0.4,1.0,0.0,269.0,642.0,1.0,1,-871.0,0
1105,1105,0.442292320499012,0.4,1.0,1.0,454.0,889.0,1.0,1,-233.0,1
1106,1106,0.26838422070274837,0.3,1.0,1.0,414.0,705.0,0.0,0,-1099.0,0
1107,1107,-0.1716933568968254,-0.2,0.0,1.0,327.0,694.0,1.0,0,1319.0,1
1108,1108,0.8236239049179982,0.8,1.0,1.0,407.0,614.0,0.0,0,-981.0,0
1109,1109,0.7095799097329852,0.7,1.0,1.0,447.0,654.0,0.0,0,-621.0,0
1110,1110,0.5225037154954103,0.5,1.0,1.0,272.0,953.0,1.0,1,-665.0,1
1111,1111,0.45137597441635846,0.5,0.0,0.0,393.0,915.0,0.0,1,82.0,1
1112,1112,0.18220837598821926,0.2,1.0,1.0,355.0,846.0,0.0,0,1489.0,0
1113,1113,-0.3234876107824187,-0.3,1.0,0.0,365.0,886.0,0.0,0,-531.0,1
1114,1114,-0.5406272803271649,-0.5,1.0,0.0,493.0,677.0,1.0,1,-700.0,0
1115,1115,0.5800061781427653,0.6,0.0,0.0,375.0,556.0,0.0,1,1189.0,1
1116,1116,-0.40600794202806995,-0.4,1.0,0.0,373.0,685.0,1.0,1,3942.0,0
1117,1117,-0.8239302794610224,-0.8,0.0,1.0,463.0,524.0,1.0,0,3083.0,1
1118,1118,0.5344168734341516,0.5,1.0,1.0,327.0,922.0,1.0,1,-349.0,1
1119,1119,0.4278940179545979,0.4,1.0,1.0,332.0,784.0,0.0,0,-66.0,0
1120,1120,-0.8779883726110116,-0.9,1.0,0.0,376.0,917.0,0.0,0,967.0,1
1121,1121,0.08163922453924222,0.1,1.0,1.0,437.0,504.0,0.0,0,-351.0,0
1122,1122,0.7230722125763932,0.7,1.0,1.0,317.0,790.0,0.0,0,-1107.0,0
1123,1123,0.49528302975081984,0.5,1.0,1.0,437.0,807.0,1.0,1,-344.0,1
1124,1124,-0.14266096023298847,-0.1,0.0,1.0,311.0,874.0,1.0,0,-625.0,1
1125,1125,-0.14193822764871566,-0.1,1.0,0.0,391.0,803.0,0.0,0,-984.0,1
1126,1126,0.7070295162506776,0.7,1.0,1.0,460.0,972.0,1.0,1,-902.0,1
1127,1127,0.04058973832420454,0.0,1.0,1.0,397.0,897.0,0.0,0,-824.0,0
1128,1128,0.7216637711444119,0.7,1.0,1.0,372.0,911.0,1.0,1,-1233.0,1
1129,1129,-0.44960636737752124,-0.4,0.0,1.0,346.0,728.0,0.0,1,-884.0,0
1130,1130,0.08158056956165116,0.1,0.0,0.0,278.0,653.0,0.0,1,-751.0,1
1131,1131,-0.49472989470188405,-0.5,0.0,1.0,498.0,602.0,1.0,0,-1080.0,1
1132,1132,-0.4122704977053368,-0.4,1.0,0.0,384.0,813.0,0.0,0,53.0,1
1133,1133,0.6308723112660742,0.6,0.0,0.0,349.0,884.0,0.0,1,2857.0,1
1134,1134,-0.5230694880930876,-0.5,1.0,0.0,362.0,643.0,1.0,1,-565.0,0
1135,1135,-0.7076203017444764,-0.7,0.0,1.0,499.0,614.0,0.0,1,77.0,0
1136,1136,0.7392886185150559,0.7,1.0,1.0,495.0,707.0,0.0,0,468.0,0
1137,1137,-0.44014714630784285,-0.4,0.0,1.0,263.0,860.0,1.0,0,1127.0,1
1138,1138,0.4175364047470892,0.4,0.0,0.0,459.0,873.0,0.0,1,-1162.0,1
1139,1139,-0.3655292675699837,-0.4,1.0,0.0,434.0,530.0,0.0,0,126.0,1
1140,1140,0.3320052464613804,0.3,1.0,1.0,373.0,892.0,0.0,0,255.0,0
1141,1141,0.22449706769868027,0.2,1.0,1.0,474.0,814.0,0.0,0,2842.0,0
1142,1142,-0.02436247799313085,-0.0,1.0,0.0,372.0,801.0,0.0,0,857.0,1
1143,1143,0.8666803059567544,0.9,0.0,0.0,404.0,832.0,0.0,1,-216.0,1
1144,1144,-0.3208612902073702,-0.3,0.0,1.0,391.0,919.0,0.0,1,130.0,0
1145,1145,-0.27675593871182524,-0.3,0.0,1.0,453.0,896.0,0.0,1,-1309.0,0
1146,1146,-0.5665798521353256,-0.6,0.0,1.0,330.0,524.0,1.0,0,-284.0,1
1147,1147,0.27886421056870236,0.3,1.0,1.0,493.0,611.0,1.0,1,-1104.0,1
1148,1148,-0.09864007851834156,-0.1,1.0,0.0,399.0,811.0,0.0,0,430.0,1
1149,1149,-0.6886294211839514,-0.7,1.0,0.0,317.0,817.0,0.0,0,276.0,1
1150,1150,0.2096842596397509,0.2,0.0,0.0,288.0,789.0,0.0,1,-97.0,1
1151,1151,0.6123943015424266,0.6,1.0,1.0,461.0,696.0,1.0,1,1023.0,1
1152,1152,-0.043683539762322865,-0.0,1.0,0.0,463.0,924.0,1.0,1,3523.0,0
1153,1153,-0.12550640749056474,-0.1,1.0,0.0,386.0,677.0,0.0,0,-13.0,1
1154,1154,-0.2829053154116664,-0.3,1.0,0.0,424.0,864.0,1.0,1,-1288.0,0
1155,1155,0.28307490375858235,0.3,0.0,0.0,317.0,761.0,1.0,0,-238.0,0
1156,1156,0.18752108035577686,0.2,1.0,1.0,452.0,708.0,1.0,1,-520.0,1
1157,1157,0.7052305384552874,0.7,0.0,0.0,421.0,754.0,0.0,1,-1045.0,1
1158,1158,-0.06359276581715645,-0.1,1.0,0.0,306.0,850.0,1.0,1,-286.0,0
1159,1159,0.12323150444258879,0.1,1.0,1.0,366.0,836.0,0.0,0,-1032.0,0
1160,1160,-0.18867762187786508,-0.2,1.0,0.0,313.0,706.0,0.0,0,-299.0,1
1161,1161,0.6086144490970417,0.6,0.0,0.0,437.0,889.0,0.0,1,-1306.0,1
1162,1162,0.23165189227652572,0.2,1.0,1.0,332.0,755.0,1.0,1,-347.0,1
1163,1163,-0.14307526193886244,-0.1,1.0,0.0,331.0,986.0,1.0,1,183.0,0
1164,1164,0.16725174649127184,0.2,0.0,0.0,279.0,605.0,0.0,1,1446.0,1
1165,1165,-0.271483564005653,-0.3,1.0,0.0,276.0,503.0,1.0,1,811.0,0
1166,1166,-0.19924645114468276,-0.2,0.0,1.0,393.0,607.0,0.0,1,-550.0,0
1167,1167,0.11801920446144287,0.1,1.0,1.0,352.0,809.0,0.0,0,999.0,0
1168,1168,-0.701856085515962,-0.7,1.0,0.0,292.0,918.0,0.0,0,2190.0,1
1169,1169,-0.37573379805097973,-0.4,1.0,0.0,497.0,877.0,1.0,1,156.0,0
1170,1170,0.7370912372613997,0.7,1.0,1.0,442.0,618.0,1.0,1,1480.0,1
1171,1171,0.20680678881652825,0.2,1.0,1.0,289.0,701.0,1.0,1,120.0,1
1172,1172,-0.3158999492603105,-0.3,0.0,1.0,270.0,866.0,1.0,0,324.0,1
1173,1173,0.25432930004337895,0.3,0.0,0.0,384.0,758.0,0.0,1,-1082.0,1
1174,1174,-0.791842979711111,-0.8,1.0,0.0,341.0,833.0,0.0,0,1326.0,1
1175,1175,0.26956808799677756,0.3,0.0,0.0,256.0,956.0,0.0,1,-682.0,1
1176,1176,0.6801729391148962,0.7,0.0,0.0,364.0,877.0,1.0,0,-181.0,0
1177,1177,-0.2747109504954999,-0.3,1.0,0.0,268.0,861.0,1.0,1,-1129.0,0
1178,1178,0.5321114737284721,0.5,1.0,1.0,461.0,522.0,1.0,1,-663.0,1
1179,1179,-0.10046821157631158,-0.1,0.0,1.0,417.0,841.0,1.0,0,32.0,1
1180,1180,-0.7600422622780163,-0.8,1.0,0.0,365.0,709.0,1.0,1,-284.0,0
1181,1181,-0.4374321571606331,-0.4,1.0,0.0,312.0,509.0,0.0,0,-291.0,1
1182,1182,0.1653784966551971,0.2,1.0,1.0,331.0,631.0,0.0,0,2598.0,0
1183,1183,0.6715975801038633,0.7,1.0,1.0,404.0,938.0,0.0,0,1858.0,0
1184,1184,0.09775093534441237,0.1,0.0,0.0,267.0,756.0,1.0,0,-953.0,0
1185,1185,-0.1055397346013085,-0.1,0.0,1.0,283.0,899.0,0.0,1,-512.0,0
1186,1186,0.38944277650067793,0.4,0.0,0.0,392.0,530.0,1.0,0,458.0,0
1187,1187,-0.6866451749464488,-0.7,0.0,1.0,284.0,611.0,0.0,1,985.0,0
1188,1188,0.3495264835762356,0.3,0.0,0.0,442.0,647.0,1.0,0,551.0,0
1189,1189,0.4299550336437311,0.4,0.0,0.0,350.0,871.0,1.0,0,199.0,0
1190,1190,0.6215255115768968,0.6,1.0,1.0,386.0,526.0,0.0,0,-682.0,0
1191,1191,0.5597948226959918,0.6,0.0,0.0,409.0,922.0,1.0,0,639.0,0
1192,1192,0.7471996637179136,0.7,0.0,0.0,429.0,788.0,1.0,0,2633.0,0
1193,1193,0.34431567739810476,0.3,1.0,1.0,330.0,883.0,1.0,1,1157.0,1
1194,1194,0.4944604161977332,0.5,1.0,1.0,285.0,909.0,0.0,0,1406.0,0
1195,1195,0.6242364707620446,0.6,1.0,1.0,450.0,852.0,0.0,0,-1242.0,0
1196,1196,-0.43124314297832983,-0.4,0.0,1.0,454.0,659.0,1.0,0,2037.0,1
1197,1197,-0.8858641575914414,-0.9,1.0,0.0,280.0,577.0,1.0,1,-847.0,0
1198,1198,0.14709335161893156,0.1,1.0,1.0,430.0,850.0,1.0,1,-1140.0,1
1199,1199,-0.5272544000082676,-0.5,1.0,0.0,436.0,881.0,1.0,1,-937.0,0
1200,1200,0.07398369940724181,0.1,1.0,1.0,264.0,812.0,0.0,0,1564.0,0
1201,1201,-0.6882681031674563,-0.7,1.0,0.0,453.0,607.0,0.0,0,490.0,1
1202,1202,-0.27187227686138093,-0.3,1.0,0.0,383.0,807.0,1.0,1,-1140.0,0
1203,1203,0.5613264514480384,0.6,1.0,1.0,330.0,981.0,1.0,1,3689.0,1
1204,1204,0.1013558685324688,0.1,0.0,0.0,323.0,781.0,0.0,1,2916.0,1
1205,1205,0.5955486016657806,0.6,0.0,0.0,274.0,725.0,0.0,1,301.0,1
1206,1206,0.08820272491849035,0.1,0.0,0.0,349.0,999.0,1.0,0,-658.0,0
1207,1207,-0.5853447213553397,-0.6,1.0,0.0,385.0,977.0,0.0,0,-1342.0,1
1208,1208,-0.38621031517108995,-0.4,1.0,0.0,374.0,655.0,0.0,0,-229.0,1
1209,1209,-0.2732111018882907,-0.3,0.0,1.0,374.0,784.0,0.0,1,-1148.0,0
1210,1210,0.5623437757110551,0.6,1.0,1.0,485.0,607.0,0.0,0,358.0,0
1211,1211,-0.5864964769100234,-0.6,0.0,1.0,415.0,626.0,1.0,0,179.0,1
1212,1212,-0.11499262554992518,-0.1,1.0,0.0,291.0,970.0,0.0,0,-781.0,1
1213,1213,0.6971897668493586,0.7,1.0,1.0,338.0,589.0,1.0,1,-727.0,1
1214,1214,0.7284737435571772,0.7,0.0,0.0,271.0,611.0,1.0,0,1048.0,0
1215,1215,-0.2647643633007871,-0.3,1.0,0.0,291.0,652.0,0.0,0,-483.0,1
1216,1216,-0.0014290074742423498,-0.0,0.0,1.0,306.0,952.0,0.0,1,-358.0,0
1217,1217,0.25101030592575413,0.3,0.0,0.0,491.0,643.0,1.0,0,836.0,0
1218,1218,-0.7623527806092721,-0.8,0.0,1.0,253.0,900.0,1.0,0,-613.0,1
1219,1219,-0.7486682751799013,-0.7,1.0,0.0,388.0,657.0,1.0,1,-145.0,0
1220,1220,-0.6742851088410828,-0.7,1.0,0.0,250.0,908.0,0.0,0,-498.0,1
1221,1221,-0.6368685788698978,-0.6,1.0,0.0,327.0,852.0,0.0,0,-1129.0,1
1222,1222,0.5477241350912628,0.5,0.0,0.0,404.0,655.0,0.0,1,-1059.0,1
1223,1223,-0.6424329209550661,-0.6,0.0,1.0,357.0,939.0,0.0,1,-996.0,0
1224,1224,-0.34753159817754165,-0.3,1.0,0.0,464.0,794.0,1.0,1,-698.0,0
1225,1225,0.407967778774062,0.4,1.0,1.0,398.0,516.0,0.0,0,-864.0,0
1226,1226,0.42409485956051196,0.4,1.0,1.0,317.0,540.0,0.0,0,-407.0,0
1227,1227,-0.6303845245282627,-0.6,1.0,0.0,333.0,684.0,1.0,1,293.0,0
1228,1228,0.20096231353208294,0.2,1.0,1.0,442.0,613.0,1.0,1,975.0,1
1229,1229,0.7773307382969533,0.8,0.0,0.0,289.0,553.0,0.0,1,-662.0,1
1230,1230,-0.6960813197667391,-0.7,0.0,1.0,334.0,551.0,1.0,0,-375.0,1
1231,1231,-0.37505950990436254,-0.4,0.0,1.0,379.0,911.0,0.0,1,2520.0,0
1232,1232,0.5881498535600441,0.6,0.0,0.0,327.0,700.0,1.0,0,-747.0,0
1233,1233,0.8297728509459733,0.8,1.0,1.0,430.0,577.0,0.0,0,2683.0,0
1234,1234,0.21788648506794617,0.2,0.0,0.0,278.0,594.0,1.0,0,-572.0,0
1235,1235,-0.8874643719649549,-0.9,0.0,1.0,376.0,713.0,1.0,0,-999.0,1
1236,1236,-0.17815458061193157,-0.2,0.0,1.0,421.0,699.0,1.0,0,-1100.0,1
1237,1237,0.6130382748630409,0.6,1.0,1.0,324.0,707.0,0.0,0,-991.0,0
1238,1238,0.5036407719653918,0.5,0.0,0.0,450.0,987.0,1.0,0,-777.0,0
1239,1239,0.17218591613957435,0.2,1.0,1.0,323.0,518.0,1.0,1,2249.0,1
1240,1240,-0.04023936275777229,-0.0,0.0,1.0,384.0,931.0,1.0,0,-245.0,1
1241,1241,0.40886000629435626,0.4,0.0,0.0,254.0,581.0,0.0,1,-795.0,1
1242,1242,-0.08503439255617928,-0.1,0.0,1.0,300.0,702.0,0.0,1,698.0,0
1243,1243,0.099876939428588,0.1,0.0,0.0,297.0,513.0,0.0,1,-670.0,1
1244,1244,-0.10508380110521698,-0.1,0.0,1.0,325.0,674.0,1.0,0,-379.0,1
1245,1245,0.4195904185203959,0.4,0.0,0.0,416.0,883.0,1.0,0,551.0,0
1246,1246,0.04549666182316292,0.0,0.0,0.0,412.0,690.0,0.0,1,3138.0,1
1247,1247,0.2996815783022492,0.3,0.0,0.0,492.0,786.0,0.0,1,-1208.0,1
1248,1248,0.06470533677325996,0.1,0.0,0.0,491.0,828.0,0.0,1,371.0,1
1249,1249,-0.8660750457556476,-0.9,1.0,0.0,281.0,844.0,0.0,0,-1085.0,1
1250,1250,-0.1650642213948733,-0.2,1.0,0.0,459.0,936.0,1.0,1,-1355.0,0
1251,1251,0.2520504385039105,0.3,0.0,0.0,323.0,710.0,0.0,1,37.0,1
1252,1252,0.07492850902374681,0.1,0.0,0.0,288.0,603.0,0.0,1,-281.0,1
1253,1253,-0.4105796412651987,-0.4,1.0,0.0,463.0,733.0,0.0,0,514.0,1
1254,1254,0.5022015868035657,0.5,1.0,1.0,429.0,827.0,0.0,0,-1096.0,0
1255,1255,0.2912118987856912,0.3,0.0,0.0,278.0,667.0,0.0,1,-915.0,1
1256,1256,-0.7951081610851867,-0.8,0.0,1.0,381.0,735.0,0.0,1,-1066.0,0
1257,1257,0.2393780111912046,0.2,0.0,0.0,334.0,503.0,1.0,0,1253.0,0
1258,1258,0.7779875250431499,0.8,0.0,0.0,394.0,675.0,0.0,1,-799.0,1
1259,1259,0.17762898205464073,0.2,0.0,0.0,292.0,674.0,1.0,0,-856.0,0
1260,1260,0.039532361297694774,0.0,0.0,0.0,304.0,947.0,1.0,0,-481.0,0
1261,1261,0.38473792834512055,0.4,1.0,1.0,403.0,560.0,0.0,0,907.0,0
1262,1262,-0.8145886824397927,-0.8,1.0,0.0,457.0,681.0,1.0,1,1272.0,0
1263,1263,-0.17201119370350282,-0.2,0.0,1.0,297.0,754.0,0.0,1,-901.0,0
1264,1264,0.04786105273418617,0.0,1.0,1.0,355.0,609.0,0.0,0,16.0,0
1265,1265,0.7720738394412204,0.8,0.0,0.0,497.0,703.0,0.0,1,1630.0,1
1266,1266,0.6566513129596422,0.7,0.0,0.0,296.0,690.0,1.0,0,664.0,0
1267,1267,-0.02005236088116924,-0.0,1.0,0.0,291.0,710.0,0.0,0,-291.0,1
1268,1268,-0.20555721813289884,-0.2,1.0,0.0,310.0,884.0,1.0,1,566.0,0
1269,1269,0.3795178722788638,0.4,1.0,1.0,267.0,684.0,0.0,0,-811.0,0
1270,1270,0.625027480937799,0.6,1.0,1.0,278.0,901.0,0.0,0,61.0,0
1271,1271,-0.8659077129844184,-0.9,1.0,0.0,379.0,974.0,1.0,1,2357.0,0
1272,1272,-0.38100597876181586,-0.4,1.0,0.0,251.0,557.0,1.0,1,-748.0,0
1273,1273,0.7363875402718033,0.7,1.0,1.0,451.0,775.0,0.0,0,-816.0,0
1274,1274,0.06911029937892033,0.1,1.0,1.0,396.0,510.0,1.0,1,-796.0,1
1275,1275,0.4875684246850004,0.5,0.0,0.0,250.0,968.0,0.0,1,-818.0,1
1276,1276,-0.10986524650054674,-0.1,0.0,1.0,372.0,920.0,1.0,0,-912.0,1
1277,1277,-0.42639818554614534,-0.4,0.0,1.0,487.0,825.0,1.0,0,388.0,1
1278,1278,-0.3730969038277544,-0.4,0.0,1.0,274.0,846.0,1.0,0,3020.0,1
1279,1279,-0.29988308865980706,-0.3,1.0,0.0,339.0,949.0,0.0,0,-558.0,1
1280,1280,-0.5533898708165721,-0.6,0.0,1.0,322.0,548.0,0.0,1,250.0,0
1281,1281,0.4221051154366867,0.4,1.0,1.0,447.0,557.0,0.0,0,-864.0,0
1282,1282,-0.7882113931688923,-0.8,0.0,1.0,418.0,802.0,1.0,0,-310.0,1
1283,1283,-0.30037233430225607,-0.3,0.0,1.0,339.0,693.0,1.0,0,-642.0,1
1284,1284,0.826368083409399,0.8,1.0,1.0,404.0,718.0,0.0,0,-502.0,0
1285,1285,-0.5601278685446605,-0.6,1.0,0.0,295.0,904.0,1.0,1,-1019.0,0
1286,1286,-0.23316670686128582,-0.2,0.0,1.0,338.0,775.0,1.0,0,1197.0,1
1287,1287,0.4016256616283701,0.4,0.0,0.0,315.0,790.0,0.0,1,485.0,1
1288,1288,-0.4343488155044044,-0.4,1.0,0.0,369.0,935.0,1.0,1,6.0,0
1289,1289,0.7810822757996126,0.8,0.0,0.0,465.0,928.0,0.0,1,-1313.0,1
1290,1290,-0.6033282583877397,-0.6,0.0,1.0,351.0,603.0,0.0,1,276.0,0
1291,1291,0.867755284146437,0.9,0.0,0.0,374.0,863.0,0.0,1,443.0,1
1292,1292,-0.005064545920775987,-0.0,0.0,1.0,263.0,560.0,1.0,0,117.0,1
1293,1293,0.2166958140524441,0.2,0.0,0.0,441.0,680.0,1.0,0,-921.0,0
1294,1294,0.2835243844588332,0.3,0.0,0.0,456.0,562.0,1.0,0,3982.0,0
1295,1295,0.6734794112157444,0.7,0.0,0.0,351.0,683.0,1.0,0,476.0,0
1296,1296,0.555755745016231,0.6,0.0,0.0,305.0,563.0,1.0,0,32.0,0
1297,1297,-0.2682754121406016,-0.3,0.0,1.0,449.0,733.0,1.0,0,2988.0,1
1298,1298,-0.4083723490595136,-0.4,1.0,0.0,354.0,713.0,1.0,1,3933.0,0
1299,1299,-0.20320303921574312,-0.2,0.0,1.0,485.0,537.0,1.0,0,1598.0,1
1300,1300,0.5694763099111025,0.6,1.0,1.0,417.0,908.0,0.0,0,-1135.0,0
1301,1301,0.599434453654566,0.6,1.0,1.0,273.0,614.0,0.0,0,3.0,0
1302,1302,0.46702580470834565,0.5,0.0,0.0,295.0,837.0,1.0,0,778.0,0
1303,1303,-0.631196220549331,-0.6,1.0,0.0,381.0,539.0,0.0,0,610.0,1
1304,1304,-0.41430099490256667,-0.4,1.0,0.0,462.0,688.0,1.0,1,-800.0,0
1305,1305,-0.7632183133887108,-0.8,1.0,0.0,328.0,950.0,0.0,0,-1168.0,1
1306,1306,0.6756225892934319,0.7,1.0,1.0,452.0,750.0,0.0,0,-702.0,0
1307,1307,0.11725557838439993,0.1,1.0,1.0,257.0,779.0,1.0,1,-746.0,1
1308,1308,0.6077798991556419,0.6,0.0,0.0,362.0,593.0,0.0,1,935.0,1
1309,1309,-0.7056431393999492,-0.7,0.0,1.0,457.0,638.0,0.0,1,-945.0,0
1310,1310,0.548006213322369,0.5,1.0,1.0,288.0,994.0,1.0,1,728.0,1
1311,1311,-0.856548943654913,-0.9,1.0,0.0,311.0,807.0,0.0,0,-508.0,1
1312,1312,0.7344845200958704,0.7,0.0,0.0,378.0,765.0,1.0,0,2837.0,0
1313,1313,-0.09750086843722616,-0.1,0.0,1.0,363.0,711.0,0.0,1,-694.0,0
1314,1314,-0.6043708041722635,-0.6,0.0,1.0,314.0,527.0,1.0,0,-791.0,1
1315,1315,0.1542640701538679,0.2,1.0,1.0,416.0,652.0,0.0,0,82.0,0
1316,1316,0.3626851837730375,0.4,0.0,0.0,296.0,919.0,1.0,0,-515.0,0
1317,1317,-0.10070726440761013,-0.1,1.0,0.0,418.0,846.0,0.0,0,-1214.0,1
1318,1318,0.46048611410583196,0.5,0.0,0.0,324.0,835.0,0.0,1,-849.0,1
1319,1319,0.27437113687551273,0.3,0.0,0.0,263.0,673.0,1.0,0,2994.0,0
1320,1320,-0.6811161617105866,-0.7,1.0,0.0,304.0,944.0,0.0,0,422.0,1
1321,1321,0.6806083776347126,0.7,0.0,0.0,434.0,564.0,0.0,1,-528.0,1
1322,1322,0.5441096052670279,0.5,0.0,0.0,351.0,808.0,1.0,0,-649.0,0
1323,1323,0.5049576196244815,0.5,1.0,1.0,252.0,638.0,0.0,0,-110.0,0
1324,1324,0.8719750172668971,0.9,0.0,0.0,391.0,903.0,1.0,0,1186.0,0
1325,1325,-0.8270081507334748,-0.8,0.0,1.0,319.0,986.0,1.0,0,-1045.0,1
1326,1326,0.09319232893348062,0.1,0.0,0.0,313.0,706.0,0.0,1,161.0,1
1327,1327,-0.06988138502373886,-0.1,0.0,1.0,279.0,846.0,1.0,0,405.0,1
1328,1328,-0.47728018474578915,-0.5,1.0,0.0,332.0,912.0,0.0,0,3086.0,1
1329,1329,-0.21770638780693496,-0.2,0.0,1.0,303.0,796.0,1.0,0,-1089.0,1
1330,1330,-0.29020203534788613,-0.3,1.0,0.0,396.0,832.0,1.0,1,-288.0,0
1331,1331,0.6632477609012118,0.7,0.0,0.0,409.0,716.0,0.0,1,-105.0,1
1332,1332,-0.04157988582464767,-0.0,0.0,1.0,444.0,913.0,1.0,0,-187.0,1
1333,1333,0.08834427393398847,0.1,0.0,0.0,268.0,688.0,0.0,1,-856.0,1
1334,1334,-0.8567544898434835,-0.9,0.0,1.0,380.0,578.0,1.0,0,-778.0,1
1335,1335,0.8053398336566336,0.8,1.0,1.0,486.0,810.0,0.0,0,354.0,0
1336,1336,-0.8781119575590052,-0.9,1.0,0.0,321.0,608.0,0.0,0,-529.0,1
1337,1337,-0.4711224337852636,-0.5,0.0,1.0,355.0,654.0,1.0,0,51.0,1
1338,1338,-0.634572814677299,-0.6,0.0,1.0,440.0,656.0,0.0,1,354.0,0
1339,1339,-0.6546813562482013,-0.7,0.0,1.0,496.0,964.0,0.0,1,930.0,0
1340,1340,-0.6034819755064149,-0.6,1.0,0.0,342.0,588.0,0.0,0,1180.0,1
1341,1341,0.26680821619713824,0.3,1.0,1.0,382.0,630.0,0.0,0,-162.0,0
1342,1342,-0.16631766871992193,-0.2,0.0,1.0,484.0,514.0,1.0,0,1022.0,1
1343,1343,0.8183058969058422,0.8,0.0,0.0,458.0,925.0,1.0,0,2117.0,0
1344,1344,-0.8285277592271444,-0.8,0.0,1.0,331.0,562.0,0.0,1,2017.0,0
1345,1345,-0.004033788471869082,-0.0,0.0,1.0,437.0,914.0,1.0,0,2249.0,1
1346,1346,-0.07357789668939574,-0.1,1.0,0.0,360.0,620.0,1.0,1,1440.0,0
1347,1347,-0.5056544087899374,-0.5,1.0,0.0,440.0,706.0,1.0,1,-176.0,0
1348,1348,0.02768390773995555,0.0,1.0,1.0,359.0,611.0,0.0,0,-840.0,0
1349,1349,0.88227406627092,0.9,0.0,0.0,289.0,722.0,0.0,1,2219.0,1
1350,1350,-0.8386727287468569,-0.8,0.0,1.0,361.0,924.0,1.0,0,-995.0,1
1351,1351,0.5583164224775764,0.6,0.0,0.0,400.0,757.0,0.0,1,-47.0,1
1352,1352,0.8062099910513906,0.8,0.0,0.0,495.0,825.0,1.0,0,-920.0,0
1353,1353,0.21428936730910209,0.2,1.0,1.0,334.0,598.0,0.0,0,-832.0,0
1354,1354,-0.539825483529794,-0.5,1.0,0.0,272.0,590.0,0.0,0,-102.0,1
1355,1355,0.4325884578453908,0.4,1.0,1.0,486.0,843.0,0.0,0,-319.0,0
1356,1356,-0.45437371631255974,-0.5,1.0,0.0,342.0,787.0,0.0,0,-139.0,1
1357,1357,-0.5823956275547936,-0.6,1.0,0.0,378.0,793.0,0.0,0,-1081.0,1
1358,1358,0.8299740579583598,0.8,0.0,0.0,468.0,569.0,1.0,0,1413.0,0
1359,1359,0.2111814493101979,0.2,1.0,1.0,447.0,736.0,0.0,0,-603.0,0
1360,1360,0.04818871391075186,0.0,0.0,0.0,379.0,566.0,1.0,0,-135.0,0
1361,1361,0.2617294975348662,0.3,1.0,1.0,351.0,542.0,1.0,1,-813.0,1
1362,1362,0.5244337101649293,0.5,0.0,0.0,347.0,768.0,1.0,0,1765.0,0
1363,1363,-0.5186372867350607,-0.5,0.0,1.0,418.0,963.0,0.0,1,1339.0,0
1364,1364,0.04989691361466686,0.0,0.0,0.0,373.0,701.0,1.0,0,1246.0,0
1365,1365,0.8960714170266316,0.9,0.0,0.0,316.0,906.0,1.0,0,-1022.0,0
1366,1366,0.5229724336564433,0.5,0.0,0.0,278.0,924.0,0.0,1,1838.0,1
1367,1367,-0.770209596622068,-0.8,0.0,1.0,429.0,723.0,1.0,0,-862.0,1
1368,1368,-0.3258876419794623,-0.3,1.0,0.0,319.0,747.0,1.0,1,-406.0,0
1369,1369,0.22245755839232906,0.2,1.0,1.0,435.0,528.0,1.0,1,-593.0,1
1370,1370,-0.027596813472800075,-0.0,1.0,0.0,459.0,811.0,0.0,0,-180.0,1
1371,1371,0.20675564582493922,0.2,1.0,1.0,314.0,619.0,0.0,0,-733.0,0
1372,1372,0.6693290626322784,0.7,1.0,1.0,254.0,776.0,0.0,0,3940.0,0
1373,1373,0.37489429211012293,0.4,0.0,0.0,414.0,700.0,1.0,0,-1034.0,0
1374,1374,0.5201672665736113,0.5,1.0,1.0,260.0,995.0,1.0,1,-265.0,1
1375,1375,-0.48912041830457187,-0.5,1.0,0.0,262.0,802.0,0.0,0,2446.0,1
1376,1376,0.016801212870188653,0.0,1.0,1.0,486.0,650.0,0.0,0,-986.0,0
1377,1377,-0.09683020263427766,-0.1,1.0,0.0,361.0,702.0,0.0,0,737.0,1
1378,1378,-0.5262173746290473,-0.5,0.0,1.0,364.0,957.0,1.0,0,-21.0,1
1379,1379,-0.7135729525766612,-0.7,0.0,1.0,496.0,852.0,0.0,1,-1328.0,0
1380,1380,0.14224137643593016,0.1,1.0,1.0,333.0,957.0,1.0,1,-910.0,1
1381,1381,-0.15107820591001542,-0.2,0.0,1.0,350.0,751.0,0.0,1,-901.0,0
1382,1382,-0.6452200695325248,-0.6,1.0,0.0,446.0,895.0,0.0,0,-1181.0,1
1383,1383,-0.48918160860178567,-0.5,1.0,0.0,373.0,894.0,1.0,1,-1187.0,0
1384,1384,-0.767505782121631,-0.8,1.0,0.0,338.0,841.0,1.0,1,-1159.0,0
1385,1385,-0.8931474310773541,-0.9,0.0,1.0,264.0,768.0,0.0,1,-532.0,0
1386,1386,-0.20823258402199518,-0.2,1.0,0.0,386.0,831.0,0.0,0,-157.0,1
1387,1387,0.21433424777449128,0.2,1.0,1.0,278.0,522.0,0.0,0,-450.0,0
1388,1388,0.7554985834321931,0.8,0.0,0.0,267.0,668.0,0.0,1,255.0,1
1389,1389,-0.47476918952841957,-0.5,1.0,0.0,444.0,748.0,1.0,1,-142.0,0
1390,1390,-0.576508564709344,-0.6,1.0,0.0,483.0,871.0,0.0,0,1446.0,1
1391,1391,0.061787407541342154,0.1,0.0,0.0,361.0,651.0,0.0,1,3088.0,1
1392,1392,0.20178106315895128,0.2,1.0,1.0,404.0,674.0,1.0,1,-598.0,1
1393,1393,0.10433093340346844,0.1,1.0,1.0,433.0,714.0,0.0,0,1283.0,0
1394,1394,0.38983511097689194,0.4,1.0,1.0,471.0,746.0,1.0,1,-267.0,1
1395,1395,-0.39624193667873586,-0.4,1.0,0.0,334.0,610.0,1.0,1,1316.0,0
1396,1396,-0.7948780289499454,-0.8,1.0,0.0,450.0,591.0,1.0,1,-951.0,0
1397,1397,-0.832429320848724,-0.8,1.0,0.0,295.0,884.0,1.0,1,261.0,0
1398,1398,-0.14617807246575,-0.1,0.0,1.0,401.0,772.0,0.0,1,-983.0,0
1399,1399,-0.11347597497535966,-0.1,1.0,0.0,272.0,965.0,0.0,0,-1207.0,1
1400,1400,-0.2431700698364997,-0.2,1.0,0.0,498.0,715.0,0.0,0,1217.0,1
1401,1401,-0.4009551939162333,-0.4,1.0,0.0,272.0,710.0,0.0,0,-432.0,1
1402,1402,-0.026871113776098965,-0.0,0.0,1.0,478.0,722.0,0.0,1,-580.0,0
1403,1403,0.030594933812943204,0.0,1.0,1.0,266.0,999.0,0.0,0,215.0,0
1404,1404,-0.31230304216298366,-0.3,1.0,0.0,308.0,813.0,0.0,0,-881.0,1
1405,1405,0.38527938880006685,0.4,0.0,0.0,384.0,743.0,1.0,0,353.0,0
1406,1406,0.12103911294698533,0.1,0.0,0.0,439.0,509.0,1.0,0,22.0,0
1407,1407,0.11521462170986674,0.1,1.0,1.0,492.0,553.0,1.0,1,-1015.0,1
1408,1408,0.34647294437200327,0.3,1.0,1.0,372.0,800.0,1.0,1,2158.0,1
1409,1409,0.3201441492804099,0.3,0.0,0.0,290.0,625.0,0.0,1,2065.0,1
1410,1410,-0.1086261800090691,-0.1,0.0,1.0,449.0,952.0,0.0,1,-1121.0,0
1411,1411,-0.3159044656783163,-0.3,0.0,1.0,417.0,757.0,1.0,0,596.0,1
1412,1412,0.3703164519649905,0.4,1.0,1.0,282.0,848.0,1.0,1,-40.0,1
1413,1413,-0.6693191636264015,-0.7,0.0,1.0,492.0,696.0,0.0,1,-1018.0,0
1414,1414,0.12419477166280368,0.1,0.0,0.0,423.0,502.0,0.0,1,-525.0,1
1415,1415,-0.45558382608570186,-0.5,1.0,0.0,260.0,563.0,0.0,0,-823.0,1
1416,1416,-0.07648078830644633,-0.1,0.0,1.0,268.0,702.0,1.0,0,480.0,1
1417,1417,0.02585462850139364,0.0,1.0,1.0,314.0,946.0,1.0,1,-410.0,1
1418,1418,-0.3505486919790608,-0.4,1.0,0.0,284.0,693.0,0.0,0,-617.0,1
1419,1419,-0.6069674468360131,-0.6,0.0,1.0,362.0,979.0,0.0,1,229.0,0
1420,1420,0.03726181012927099,0.0,0.0,0.0,266.0,960.0,0.0,1,-996.0,1
1421,1421,0.6075616051824796,0.6,1.0,1.0,414.0,524.0,0.0,0,2822.0,0
1422,1422,-0.806241470892581,-0.8,1.0,0.0,332.0,942.0,0.0,0,-1244.0,1
1423,1423,0.7896662901761807,0.8,0.0,0.0,348.0,911.0,1.0,0,311.0,0
1424,1424,-0.6661034650877072,-0.7,1.0,0.0,284.0,636.0,1.0,1,-720.0,0
1425,1425,0.4370483465373175,0.4,0.0,0.0,307.0,609.0,1.0,0,-656.0,0
1426,1426,0.5378039472021184,0.5,0.0,0.0,489.0,792.0,0.0,1,-901.0,1
1427,1427,-0.3545316216800972,-0.4,0.0,1.0,335.0,776.0,1.0,0,3889.0,1
1428,1428,0.0932215766801544,0.1,0.0,0.0,265.0,531.0,0.0,1,464.0,1
1429,1429,0.07617159599738665,0.1,0.0,0.0,425.0,888.0,0.0,1,-1083.0,1
1430,1430,0.7963396102972075,0.8,1.0,1.0,489.0,848.0,1.0,1,1153.0,1
1431,1431,0.4744756889180096,0.5,1.0,1.0,466.0,898.0,1.0,1,1606.0,1
1432,1432,-0.683171478845539,-0.7,0.0,1.0,300.0,991.0,1.0,0,-1131.0,1
1433,1433,0.7570136334618068,0.8,0.0,0.0,472.0,903.0,1.0,0,345.0,0
1434,1434,0.15000401140527064,0.2,1.0,1.0,320.0,511.0,0.0,0,169.0,0
1435,1435,-0.6334386621785149,-0.6,1.0,0.0,430.0,884.0,0.0,0,-1144.0,1
1436,1436,-0.39853571778843344,-0.4,0.0,1.0,433.0,847.0,0.0,1,170.0,0
1437,1437,-0.07973497994173817,-0.1,1.0,0.0,288.0,613.0,0.0,0,-21.0,1
1438,1438,-0.5813367392448127,-0.6,1.0,0.0,251.0,891.0,0.0,0,-1062.0,1
1439,1439,0.0002698814962255325,0.0,1.0,1.0,286.0,819.0,1.0,1,-905.0,1
1440,1440,-0.012918189419647619,-0.0,0.0,1.0,344.0,540.0,1.0,0,-544.0,1
1441,1441,-0.821319529231475,-0.8,0.0,1.0,345.0,541.0,0.0,1,1134.0,0
1442,1442,-0.10097313756142967,-0.1,0.0,1.0,498.0,832.0,1.0,0,-1280.0,1
1443,1443,0.2785884995150151,0.3,1.0,1.0,288.0,669.0,1.0,1,693.0,1
1444,1444,-0.10685876763386426,-0.1,0.0,1.0,263.0,557.0,1.0,0,430.0,1
1445,1445,0.7621125823699703,0.8,0.0,0.0,269.0,894.0,1.0,0,-1063.0,0
1446,1446,0.41339368114111996,0.4,1.0,1.0,384.0,919.0,1.0,1,-83.0,1
1447,1447,-0.3342996923907783,-0.3,1.0,0.0,285.0,721.0,1.0,1,-966.0,0
1448,1448,0.8128841930877343,0.8,0.0,0.0,378.0,501.0,0.0,1,-759.0,1
1449,1449,-0.29203754558318196,-0.3,1.0,0.0,428.0,517.0,0.0,0,-275.0,1
1450,1450,-0.6078008817353162,-0.6,1.0,0.0,408.0,629.0,1.0,1,-767.0,0
1451,1451,-0.8047796714054596,-0.8,1.0,0.0,473.0,654.0,1.0,1,-1047.0,0
1452,1452,0.5310470920887681,0.5,1.0,1.0,331.0,584.0,0.0,0,2775.0,0
1453,1453,-0.591141947359392,-0.6,1.0,0.0,423.0,539.0,0.0,0,-572.0,1
1454,1454,-0.7176537691324791,-0.7,0.0,1.0,396.0,685.0,1.0,0,359.0,1
1455,1455,0.3719197131487787,0.4,1.0,1.0,421.0,914.0,0.0,0,475.0,0
1456,1456,0.5006824392081063,0.5,1.0,1.0,497.0,616.0,1.0,1,47.0,1
1457,1457,-0.47855512936486044,-0.5,1.0,0.0,268.0,934.0,0.0,0,-492.0,1
1458,1458,-0.16921020154901312,-0.2,1.0,0.0,423.0,968.0,1.0,1,1339.0,0
1459,1459,0.3556990259092291,0.4,1.0,1.0,320.0,547.0,0.0,0,3233.0,0
1460,1460,0.4198467009659027,0.4,1.0,1.0,373.0,541.0,0.0,0,-874.0,0
1461,1461,0.4970274450777029,0.5,1.0,1.0,340.0,897.0,1.0,1,-47.0,1
1462,1462,0.07070823796193493,0.1,0.0,0.0,278.0,562.0,0.0,1,-800.0,1
1463,1463,0.4497477040985799,0.4,0.0,0.0,314.0,552.0,1.0,0,844.0,0
1464,1464,-0.32440235475409906,-0.3,0.0,1.0,498.0,691.0,1.0,0,-869.0,1
1465,1465,-0.26151520933632133,-0.3,1.0,0.0,482.0,531.0,1.0,1,-983.0,0
1466,1466,-0.1824876777844181,-0.2,1.0,0.0,299.0,742.0,1.0,1,-1021.0,0
1467,1467,0.1349655295912383,0.1,1.0,1.0,449.0,825.0,1.0,1,-944.0,1
1468,1468,0.5504185196703092,0.6,1.0,1.0,456.0,645.0,1.0,1,-801.0,1
1469,1469,0.337896426565797,0.3,0.0,0.0,464.0,679.0,0.0,1,-903.0,1
1470,1470,-0.2779443849151111,-0.3,0.0,1.0,461.0,881.0,1.0,0,-1262.0,1
1471,1471,0.4666801104334283,0.5,0.0,0.0,270.0,924.0,0.0,1,-474.0,1
1472,1472,0.6195331230672071,0.6,0.0,0.0,469.0,883.0,1.0,0,1378.0,0
1473,1473,-0.2042839961928674,-0.2,1.0,0.0,404.0,749.0,1.0,1,-963.0,0
1474,1474,0.06443504561325919,0.1,0.0,0.0,421.0,548.0,1.0,0,1711.0,0
