,trial,coherence,coherence_bin,green_side,correct_side,target_onset,checker_onset,decision,green_decision,decision_time,correct_decision
0,0,-0.8874570015698992,-0.9,0.0,1.0,271.0,609.0,1.0,0,150.0,1
1,1,0.2704416139650062,0.3,1.0,1.0,452.0,674.0,1.0,1,1874.0,1
2,2,0.2567225301858781,0.3,1.0,1.0,398.0,868.0,1.0,1,644.0,1
3,3,0.05679801601634882,0.1,0.0,0.0,314.0,705.0,0.0,1,611.0,1
4,4,-0.08478565397857518,-0.1,1.0,0.0,396.0,678.0,0.0,0,1926.0,1
5,5,0.4024198256143524,0.4,1.0,1.0,256.0,970.0,1.0,1,204.0,1
6,6,-0.19457675606932445,-0.2,0.0,1.0,482.0,836.0,1.0,0,642.0,1
7,7,0.7374640051609261,0.7,0.0,0.0,422.0,620.0,0.0,1,318.0,1
8,8,-0.3452073616637571,-0.3,0.0,1.0,264.0,500.0,1.0,0,646.0,1
9,9,-0.5077429202211987,-0.5,0.0,1.0,464.0,946.0,1.0,0,270.0,1
10,10,0.4814735187895002,0.5,1.0,1.0,315.0,979.0,1.0,1,166.0,1
11,11,-0.507113347159917,-0.5,1.0,0.0,306.0,872.0,0.0,0,472.0,1
12,12,0.03405695734552916,0.0,0.0,0.0,292.0,589.0,0.0,1,2119.0,1
13,13,0.204312893079038,0.2,0.0,0.0,398.0,639.0,0.0,1,343.0,1
14,14,-0.5938389214858153,-0.6,0.0,1.0,320.0,670.0,1.0,0,450.0,1
15,15,0.8351322027383018,0.8,1.0,1.0,425.0,858.0,1.0,1,107.0,1
16,16,-0.2721570621214985,-0.3,1.0,0.0,256.0,648.0,0.0,0,826.0,1
17,17,-0.8884321372800071,-0.9,0.0,1.0,437.0,948.0,1.0,0,105.0,1
18,18,-0.221704895516471,-0.2,1.0,0.0,381.0,705.0,0.0,0,554.0,1
19,19,0.028977434781446987,0.0,0.0,0.0,333.0,896.0,0.0,1,1771.0,1
20,20,-0.5023132549831106,-0.5,1.0,0.0,275.0,854.0,0.0,0,161.0,1
21,21,0.4291253099899016,0.4,0.0,0.0,497.0,989.0,0.0,1,274.0,1
22,22,0.5876356247118276,0.6,0.0,0.0,266.0,658.0,0.0,1,276.0,1
23,23,-0.36853180981436284,-0.4,0.0,1.0,296.0,613.0,1.0,0,481.0,1
24,24,0.834313477134241,0.8,1.0,1.0,250.0,758.0,1.0,1,132.0,1
25,25,-0.813606337112113,-0.8,0.0,1.0,288.0,957.0,1.0,0,135.0,1
26,26,0.049647855506269156,0.0,0.0,0.0,436.0,609.0,1.0,0,1955.0,0
27,27,0.6898379291553253,0.7,0.0,0.0,391.0,951.0,0.0,1,188.0,1
28,28,0.30592590174221457,0.3,0.0,0.0,394.0,960.0,0.0,1,906.0,1
29,29,-0.4399079520090534,-0.4,0.0,1.0,312.0,545.0,1.0,0,493.0,1
30,30,-0.08652971921993113,-0.1,1.0,0.0,397.0,612.0,0.0,0,1991.0,1
31,31,-0.3564322406455246,-0.4,1.0,0.0,367.0,562.0,0.0,0,561.0,1
32,32,-0.25240551887881557,-0.3,0.0,1.0,427.0,807.0,1.0,0,246.0,1
33,33,-0.3114847617663312,-0.3,1.0,0.0,453.0,853.0,0.0,0,934.0,1
34,34,0.28935460788170675,0.3,1.0,1.0,396.0,714.0,1.0,1,650.0,1
35,35,-0.5583625899485012,-0.6,0.0,1.0,282.0,794.0,1.0,0,204.0,1
36,36,-0.7022717992703771,-0.7,0.0,1.0,294.0,519.0,1.0,0,257.0,1
37,37,-0.7383335902922705,-0.7,1.0,0.0,444.0,589.0,0.0,0,167.0,1
38,38,0.46579087388671236,0.5,1.0,1.0,252.0,838.0,1.0,1,290.0,1
39,39,0.05771097258518221,0.1,0.0,0.0,375.0,796.0,1.0,0,1829.0,0
40,40,-0.8843865924111091,-0.9,1.0,0.0,288.0,789.0,0.0,0,213.0,1
41,41,0.884718815897462,0.9,1.0,1.0,450.0,703.0,1.0,1,207.0,1
42,42,0.05501702583635515,0.1,0.0,0.0,360.0,773.0,0.0,1,437.0,1
43,43,0.5542183390822412,0.6,1.0,1.0,491.0,785.0,1.0,1,444.0,1
44,44,0.7169297388022714,0.7,0.0,0.0,452.0,965.0,0.0,1,253.0,1
45,45,0.19697280666287253,0.2,1.0,1.0,479.0,703.0,1.0,1,1818.0,1
46,46,0.732500257374389,0.7,1.0,1.0,374.0,833.0,1.0,1,293.0,1
47,47,-0.5354849253632011,-0.5,1.0,0.0,372.0,731.0,0.0,0,517.0,1
48,48,0.1698375848204171,0.2,0.0,0.0,324.0,964.0,0.0,1,642.0,1
49,49,0.03963025909637974,0.0,1.0,1.0,270.0,745.0,1.0,1,415.0,1
50,50,-0.2739299398341545,-0.3,1.0,0.0,491.0,894.0,0.0,0,275.0,1
51,51,-0.7296185984644713,-0.7,1.0,0.0,437.0,843.0,0.0,0,180.0,1
52,52,0.15256695623042227,0.2,0.0,0.0,369.0,890.0,0.0,1,311.0,1
53,53,0.8616959718333553,0.9,1.0,1.0,485.0,561.0,1.0,1,154.0,1
54,54,0.8921401849774407,0.9,1.0,1.0,356.0,568.0,1.0,1,386.0,1
55,55,0.8470760502063815,0.8,1.0,1.0,422.0,557.0,1.0,1,281.0,1
56,56,-0.1512989450487242,-0.2,1.0,0.0,484.0,567.0,0.0,0,859.0,1
57,57,0.4969636837005199,0.5,1.0,1.0,312.0,923.0,1.0,1,1765.0,1
58,58,-0.12258539958809633,-0.1,1.0,0.0,389.0,569.0,0.0,0,2042.0,1
59,59,-0.5962387023102165,-0.6,1.0,0.0,419.0,662.0,0.0,0,249.0,1
60,60,0.8124118191811921,0.8,1.0,1.0,469.0,558.0,1.0,1,413.0,1
61,61,-0.4975518299707491,-0.5,0.0,1.0,396.0,721.0,1.0,0,213.0,1
62,62,-0.5371723933916375,-0.5,0.0,1.0,284.0,579.0,1.0,0,337.0,1
63,63,-0.011799300175921124,-0.0,0.0,1.0,492.0,509.0,0.0,1,1999.0,0
64,64,-0.6617690965581897,-0.7,1.0,0.0,359.0,810.0,0.0,0,271.0,1
65,65,-0.4607748125116586,-0.5,1.0,0.0,328.0,673.0,0.0,0,349.0,1
66,66,0.28883102217952683,0.3,1.0,1.0,250.0,788.0,1.0,1,282.0,1
67,67,0.7120872278897755,0.7,0.0,0.0,481.0,698.0,0.0,1,341.0,1
68,68,-0.004198452025293675,-0.0,1.0,0.0,367.0,580.0,1.0,1,2053.0,0
69,69,-0.780178931670877,-0.8,1.0,0.0,470.0,809.0,0.0,0,201.0,1
70,70,0.8591006147684367,0.9,0.0,0.0,392.0,525.0,0.0,1,283.0,1
71,71,-0.6965120854660072,-0.7,1.0,0.0,480.0,920.0,0.0,0,260.0,1
72,72,-0.6568589277558005,-0.7,0.0,1.0,355.0,507.0,1.0,0,278.0,1
73,73,0.812048318778248,0.8,1.0,1.0,390.0,584.0,1.0,1,306.0,1
74,74,-0.16219521103040135,-0.2,1.0,0.0,387.0,752.0,0.0,0,671.0,1
75,75,0.8466751304446308,0.8,0.0,0.0,471.0,526.0,0.0,1,163.0,1
76,76,-0.7737804525000902,-0.8,0.0,1.0,309.0,763.0,1.0,0,138.0,1
77,77,-0.044772244217974766,-0.0,1.0,0.0,391.0,859.0,1.0,1,1750.0,0
78,78,0.15319813326100673,0.2,1.0,1.0,382.0,558.0,1.0,1,2060.0,1
79,79,-0.7266034989942438,-0.7,0.0,1.0,260.0,576.0,1.0,0,224.0,1
80,80,0.2853238680074489,0.3,0.0,0.0,468.0,963.0,0.0,1,729.0,1
81,81,0.6600742974235406,0.7,0.0,0.0,394.0,562.0,0.0,1,264.0,1
82,82,0.1155992126444857,0.1,1.0,1.0,460.0,989.0,1.0,1,1551.0,1
83,83,0.5054438816857209,0.5,0.0,0.0,334.0,593.0,0.0,1,713.0,1
84,84,-0.03426857427813956,-0.0,0.0,1.0,369.0,691.0,1.0,0,1940.0,1
85,85,0.7426877156191275,0.7,0.0,0.0,348.0,506.0,0.0,1,256.0,1
86,86,0.033564160744681604,0.0,0.0,0.0,295.0,627.0,0.0,1,2078.0,1
87,87,0.4849584232311065,0.5,0.0,0.0,350.0,714.0,0.0,1,216.0,1
88,88,-0.5301390816129121,-0.5,1.0,0.0,286.0,684.0,0.0,0,240.0,1
89,89,-0.1896457073659802,-0.2,0.0,1.0,250.0,675.0,1.0,0,655.0,1
90,90,0.8029700714523645,0.8,0.0,0.0,390.0,521.0,0.0,1,379.0,1
91,91,0.33887566319270734,0.3,0.0,0.0,385.0,533.0,0.0,1,572.0,1
92,92,-0.7020477160160518,-0.7,1.0,0.0,455.0,535.0,0.0,0,290.0,1
93,93,-0.21748908082620044,-0.2,1.0,0.0,462.0,661.0,0.0,0,627.0,1
94,94,0.11132625525456719,0.1,1.0,1.0,388.0,717.0,1.0,1,1895.0,1
95,95,0.7696757456546927,0.8,0.0,0.0,254.0,509.0,0.0,1,227.0,1
96,96,0.6747170157476715,0.7,0.0,0.0,421.0,583.0,0.0,1,396.0,1
97,97,0.32121576829435605,0.3,0.0,0.0,415.0,655.0,0.0,1,440.0,1
98,98,-0.2333650596641752,-0.2,1.0,0.0,452.0,687.0,0.0,0,891.0,1
99,99,-0.5050717529383681,-0.5,1.0,0.0,277.0,673.0,0.0,0,270.0,1
100,100,-0.4229117701626822,-0.4,1.0,0.0,363.0,733.0,0.0,0,284.0,1
101,101,0.816637605803915,0.8,0.0,0.0,471.0,991.0,0.0,1,278.0,1
102,102,-0.7257616391529638,-0.7,1.0,0.0,288.0,697.0,0.0,0,105.0,1
103,103,-0.7901755226003194,-0.8,0.0,1.0,462.0,675.0,1.0,0,173.0,1
104,104,-0.6619124454900929,-0.7,1.0,0.0,328.0,852.0,0.0,0,160.0,1
105,105,0.1372846119822685,0.1,1.0,1.0,364.0,527.0,1.0,1,1739.0,1
106,106,0.8432566821017128,0.8,0.0,0.0,389.0,882.0,0.0,1,269.0,1
107,107,-0.876322716537822,-0.9,0.0,1.0,291.0,759.0,1.0,0,180.0,1
108,108,0.26755837640021907,0.3,1.0,1.0,293.0,815.0,1.0,1,272.0,1
109,109,-0.7800286043249547,-0.8,1.0,0.0,486.0,817.0,0.0,0,187.0,1
110,110,-0.2064534581147629,-0.2,1.0,0.0,378.0,522.0,0.0,0,970.0,1
111,111,-0.6795845599559617,-0.7,0.0,1.0,495.0,754.0,1.0,0,371.0,1
112,112,-0.6922543604341634,-0.7,0.0,1.0,295.0,666.0,1.0,0,189.0,1
113,113,-0.3599028741476755,-0.4,0.0,1.0,445.0,984.0,1.0,0,1571.0,1
114,114,-0.35869013288035567,-0.4,1.0,0.0,329.0,750.0,0.0,0,311.0,1
115,115,-0.7479452658124969,-0.7,1.0,0.0,491.0,609.0,0.0,0,230.0,1
116,116,0.16350856843774497,0.2,0.0,0.0,359.0,761.0,0.0,1,720.0,1
117,117,0.8415032852600522,0.8,1.0,1.0,359.0,520.0,1.0,1,231.0,1
118,118,-0.6842710784362129,-0.7,0.0,1.0,474.0,719.0,1.0,0,157.0,1
119,119,0.8720469284287934,0.9,0.0,0.0,272.0,730.0,0.0,1,148.0,1
120,120,0.21863133592599582,0.2,0.0,0.0,265.0,954.0,0.0,1,401.0,1
121,121,0.2847887807587989,0.3,0.0,0.0,391.0,885.0,0.0,1,524.0,1
122,122,0.013107109322713972,0.0,0.0,0.0,449.0,842.0,0.0,1,1709.0,1
123,123,0.4341388670160181,0.4,1.0,1.0,438.0,738.0,1.0,1,224.0,1
124,124,-0.15922085246864004,-0.2,0.0,1.0,428.0,997.0,1.0,0,205.0,1
125,125,0.28872787174769743,0.3,0.0,0.0,261.0,658.0,0.0,1,471.0,1
126,126,0.4298693473589895,0.4,0.0,0.0,406.0,636.0,0.0,1,168.0,1
127,127,-0.2959587734694661,-0.3,0.0,1.0,487.0,977.0,1.0,0,246.0,1
128,128,0.0747711602495097,0.1,1.0,1.0,483.0,604.0,1.0,1,1753.0,1
129,129,-0.20024933357418462,-0.2,0.0,1.0,267.0,540.0,1.0,0,2063.0,1
130,130,-0.03388351052147742,-0.0,0.0,1.0,280.0,752.0,0.0,1,1968.0,0
131,131,-0.23622685962385026,-0.2,0.0,1.0,308.0,889.0,1.0,0,1043.0,1
132,132,0.7761672221665493,0.8,0.0,0.0,342.0,956.0,0.0,1,202.0,1
133,133,0.12363724500202833,0.1,0.0,0.0,405.0,538.0,0.0,1,1197.0,1
134,134,-0.27472521532541994,-0.3,1.0,0.0,399.0,606.0,0.0,0,805.0,1
135,135,0.7101222044094951,0.7,0.0,0.0,290.0,520.0,0.0,1,230.0,1
136,136,0.2936882527212842,0.3,0.0,0.0,320.0,655.0,0.0,1,1115.0,1
137,137,-0.7056069441879214,-0.7,1.0,0.0,291.0,669.0,0.0,0,340.0,1
138,138,0.8435271088073312,0.8,1.0,1.0,313.0,966.0,1.0,1,151.0,1
139,139,-0.8492152517218474,-0.8,0.0,1.0,471.0,743.0,1.0,0,286.0,1
140,140,-0.5173963819330571,-0.5,0.0,1.0,324.0,533.0,1.0,0,233.0,1
141,141,-0.4483547378574528,-0.4,0.0,1.0,479.0,794.0,1.0,0,767.0,1
142,142,-0.026424449352742463,-0.0,1.0,0.0,455.0,724.0,0.0,0,971.0,1
143,143,0.6196281144310541,0.6,1.0,1.0,411.0,559.0,1.0,1,440.0,1
144,144,-0.1758743782800931,-0.2,1.0,0.0,317.0,610.0,0.0,0,1153.0,1
145,145,0.6163370323968406,0.6,1.0,1.0,476.0,946.0,1.0,1,228.0,1
146,146,0.6308359182499411,0.6,1.0,1.0,251.0,523.0,1.0,1,416.0,1
147,147,0.6784180097927847,0.7,0.0,0.0,407.0,559.0,0.0,1,214.0,1
148,148,-0.783859943876444,-0.8,1.0,0.0,445.0,839.0,0.0,0,226.0,1
149,149,0.28391756739803686,0.3,1.0,1.0,373.0,977.0,1.0,1,1480.0,1
150,150,-0.8469055932945462,-0.8,0.0,1.0,347.0,661.0,1.0,0,122.0,1
151,151,-0.29911810656991844,-0.3,1.0,0.0,338.0,927.0,0.0,0,505.0,1
152,152,-0.011807292180657902,-0.0,0.0,1.0,404.0,702.0,1.0,0,1894.0,1
153,153,0.6706627521231977,0.7,1.0,1.0,358.0,768.0,1.0,1,324.0,1
154,154,-0.35601866136264404,-0.4,1.0,0.0,261.0,530.0,0.0,0,419.0,1
155,155,-0.5154215694240007,-0.5,1.0,0.0,357.0,663.0,0.0,0,390.0,1
156,156,0.24070202079856517,0.2,1.0,1.0,394.0,769.0,1.0,1,397.0,1
157,157,0.8791275714665866,0.9,1.0,1.0,288.0,927.0,1.0,1,355.0,1
158,158,-0.5167823933248276,-0.5,0.0,1.0,485.0,840.0,1.0,0,265.0,1
159,159,0.483031768515911,0.5,1.0,1.0,297.0,617.0,1.0,1,526.0,1
160,160,-0.07216043605387412,-0.1,0.0,1.0,489.0,647.0,1.0,0,1864.0,1
161,161,-0.8908867658338604,-0.9,1.0,0.0,330.0,861.0,0.0,0,259.0,1
162,162,-0.07804175328527907,-0.1,1.0,0.0,365.0,634.0,0.0,0,1081.0,1
163,163,-0.6409491324813243,-0.6,1.0,0.0,280.0,508.0,0.0,0,312.0,1
164,164,0.6824356414512581,0.7,1.0,1.0,294.0,906.0,1.0,1,240.0,1
165,165,0.2868808568465263,0.3,0.0,0.0,313.0,533.0,0.0,1,594.0,1
166,166,-0.8696418953850623,-0.9,0.0,1.0,452.0,666.0,1.0,0,172.0,1
167,167,-0.3756327599428715,-0.4,1.0,0.0,296.0,637.0,0.0,0,747.0,1
168,168,-0.17664757524867503,-0.2,0.0,1.0,406.0,695.0,1.0,0,1899.0,1
169,169,0.30498444100677446,0.3,1.0,1.0,499.0,632.0,1.0,1,689.0,1
170,170,0.5176912746832917,0.5,1.0,1.0,367.0,908.0,1.0,1,295.0,1
171,171,0.443922841862881,0.4,0.0,0.0,418.0,938.0,0.0,1,654.0,1
172,172,0.08298914122651602,0.1,1.0,1.0,472.0,718.0,1.0,1,1810.0,1
173,173,-0.10372801358312389,-0.1,0.0,1.0,492.0,839.0,1.0,0,1669.0,1
174,174,0.7067832987679236,0.7,1.0,1.0,331.0,549.0,1.0,1,250.0,1
175,175,0.8179015056944573,0.8,0.0,0.0,255.0,607.0,0.0,1,288.0,1
176,176,0.6196168828941616,0.6,1.0,1.0,423.0,711.0,1.0,1,696.0,1
177,177,0.8134507326867325,0.8,1.0,1.0,346.0,583.0,1.0,1,261.0,1
178,178,0.6156687832806508,0.6,1.0,1.0,309.0,701.0,1.0,1,150.0,1
179,179,-0.14590495101477718,-0.1,0.0,1.0,269.0,770.0,1.0,0,1961.0,1
180,180,0.31364617455425303,0.3,1.0,1.0,447.0,817.0,1.0,1,226.0,1
181,181,0.5631043686494129,0.6,1.0,1.0,348.0,646.0,1.0,1,296.0,1
182,182,0.5037752415064359,0.5,1.0,1.0,364.0,595.0,1.0,1,261.0,1
183,183,-0.34231709641726915,-0.3,1.0,0.0,451.0,581.0,0.0,0,428.0,1
184,184,0.037253095198245156,0.0,0.0,0.0,384.0,783.0,0.0,1,1833.0,1
185,185,0.8927627830478683,0.9,1.0,1.0,303.0,921.0,1.0,1,136.0,1
186,186,0.8752301473269645,0.9,1.0,1.0,389.0,759.0,1.0,1,172.0,1
187,187,0.8175211885157873,0.8,1.0,1.0,360.0,680.0,1.0,1,320.0,1
188,188,0.5637831887844403,0.6,1.0,1.0,397.0,971.0,1.0,1,202.0,1
189,189,0.619828942562933,0.6,1.0,1.0,429.0,669.0,1.0,1,202.0,1
190,190,-0.6106158571890925,-0.6,0.0,1.0,386.0,605.0,1.0,0,329.0,1
191,191,-0.8695409662890798,-0.9,1.0,0.0,282.0,745.0,0.0,0,-197.0,1
192,192,-0.45437130931019654,-0.5,1.0,0.0,275.0,898.0,0.0,0,317.0,1
193,193,-0.7884689802069446,-0.8,0.0,1.0,259.0,930.0,1.0,0,101.0,1
194,194,-0.20317827828817103,-0.2,1.0,0.0,457.0,817.0,0.0,0,1286.0,1
195,195,0.05918352217231537,0.1,1.0,1.0,471.0,969.0,1.0,1,1560.0,1
196,196,0.337139354314984,0.3,0.0,0.0,251.0,661.0,0.0,1,438.0,1
197,197,0.6437901344895075,0.6,0.0,0.0,482.0,827.0,0.0,1,281.0,1
198,198,0.5214699953219478,0.5,0.0,0.0,422.0,816.0,0.0,1,202.0,1
199,199,0.6223374993651875,0.6,0.0,0.0,301.0,607.0,0.0,1,172.0,1
200,200,0.8871089741249248,0.9,0.0,0.0,473.0,902.0,0.0,1,155.0,1
201,201,-0.8749876729830205,-0.9,1.0,0.0,298.0,895.0,0.0,0,127.0,1
202,202,0.16079581916057417,0.2,1.0,1.0,441.0,685.0,1.0,1,1874.0,1
203,203,0.8276980336690815,0.8,0.0,0.0,496.0,840.0,0.0,1,234.0,1
204,204,-0.6463982279840973,-0.6,0.0,1.0,399.0,742.0,1.0,0,1399.0,1
205,205,0.26202781687243937,0.3,1.0,1.0,306.0,640.0,1.0,1,2054.0,1
206,206,-0.47073024072634956,-0.5,0.0,1.0,301.0,889.0,1.0,0,280.0,1
207,207,0.8291622630909784,0.8,0.0,0.0,326.0,687.0,0.0,1,407.0,1
208,208,0.31264226758041935,0.3,0.0,0.0,302.0,591.0,0.0,1,447.0,1
209,209,0.21390695793440517,0.2,0.0,0.0,358.0,715.0,0.0,1,957.0,1
210,210,-0.6116189106609191,-0.6,1.0,0.0,336.0,914.0,0.0,0,230.0,1
211,211,-0.5496867202819478,-0.5,1.0,0.0,286.0,714.0,0.0,0,200.0,1
212,212,0.6688507073383284,0.7,0.0,0.0,456.0,557.0,0.0,1,307.0,1
213,213,-0.5832049204678449,-0.6,1.0,0.0,254.0,659.0,0.0,0,257.0,1
214,214,0.1825985448249966,0.2,0.0,0.0,349.0,509.0,0.0,1,772.0,1
215,215,-0.3186462737634733,-0.3,0.0,1.0,284.0,755.0,1.0,0,451.0,1
216,216,0.22215919367143144,0.2,1.0,1.0,273.0,940.0,1.0,1,857.0,1
217,217,-0.6124089786932733,-0.6,0.0,1.0,378.0,579.0,1.0,0,283.0,1
218,218,0.4093840717879479,0.4,0.0,0.0,370.0,757.0,0.0,1,273.0,1
219,219,0.32844643980255916,0.3,0.0,0.0,387.0,941.0,0.0,1,302.0,1
220,220,0.5052523600593931,0.5,0.0,0.0,436.0,868.0,0.0,1,276.0,1
221,221,-0.1644604492001719,-0.2,1.0,0.0,321.0,689.0,0.0,0,820.0,1
222,222,0.17554173333292156,0.2,0.0,0.0,474.0,658.0,0.0,1,1868.0,1
223,223,0.5152305064861536,0.5,0.0,0.0,256.0,652.0,0.0,1,532.0,1
224,224,-0.7342084302909955,-0.7,0.0,1.0,449.0,629.0,1.0,0,292.0,1
225,225,-0.5528319786403032,-0.6,0.0,1.0,381.0,908.0,1.0,0,241.0,1
226,226,0.526549749834086,0.5,1.0,1.0,427.0,705.0,1.0,1,288.0,1
227,227,-0.8710402812849103,-0.9,1.0,0.0,392.0,744.0,0.0,0,94.0,1
228,228,0.3149192431915181,0.3,1.0,1.0,472.0,563.0,1.0,1,395.0,1
229,229,-0.7526996456579838,-0.8,0.0,1.0,261.0,529.0,1.0,0,280.0,1
230,230,0.4174318427771765,0.4,1.0,1.0,287.0,680.0,1.0,1,403.0,1
231,231,-0.03346657531968156,-0.0,0.0,1.0,296.0,679.0,1.0,0,2025.0,1
232,232,0.7241221089082838,0.7,0.0,0.0,374.0,870.0,0.0,1,196.0,1
233,233,0.2376739020348314,0.2,1.0,1.0,387.0,664.0,1.0,1,839.0,1
234,234,0.5279877930118463,0.5,0.0,0.0,344.0,593.0,0.0,1,353.0,1
235,235,-0.7195890682266115,-0.7,0.0,1.0,303.0,530.0,1.0,0,317.0,1
236,236,-0.7716710964196852,-0.8,1.0,0.0,283.0,582.0,0.0,0,205.0,1
237,237,0.23040077278483173,0.2,1.0,1.0,404.0,939.0,1.0,1,347.0,1
238,238,-0.07960358566312808,-0.1,1.0,0.0,298.0,768.0,0.0,0,1934.0,1
239,239,-0.8606795039239512,-0.9,0.0,1.0,280.0,534.0,1.0,0,916.0,1
240,240,0.7908696680551034,0.8,0.0,0.0,413.0,565.0,0.0,1,252.0,1
241,241,0.05277226553427239,0.1,0.0,0.0,462.0,688.0,0.0,1,520.0,1
242,242,-0.6385176097608536,-0.6,1.0,0.0,366.0,508.0,0.0,0,346.0,1
243,243,-0.33590719281053627,-0.3,1.0,0.0,398.0,779.0,0.0,0,283.0,1
244,244,0.7711883785362167,0.8,0.0,0.0,257.0,538.0,0.0,1,365.0,1
245,245,-0.11066427161823722,-0.1,1.0,0.0,310.0,701.0,0.0,0,849.0,1
246,246,-0.5290257912592959,-0.5,0.0,1.0,266.0,846.0,1.0,0,668.0,1
247,247,0.026727734598010255,0.0,1.0,1.0,341.0,646.0,1.0,1,2013.0,1
248,248,-0.6787855813933681,-0.7,1.0,0.0,497.0,668.0,0.0,0,315.0,1
249,249,0.22067751458738727,0.2,1.0,1.0,463.0,729.0,1.0,1,678.0,1
250,250,-0.6239361487405313,-0.6,1.0,0.0,468.0,554.0,0.0,0,258.0,1
251,251,-0.3418032857335285,-0.3,1.0,0.0,453.0,878.0,0.0,0,599.0,1
252,252,-0.2190188451499564,-0.2,1.0,0.0,292.0,645.0,0.0,0,553.0,1
253,253,0.40084324192023846,0.4,1.0,1.0,317.0,630.0,1.0,1,563.0,1
254,254,-0.2711941517614881,-0.3,0.0,1.0,364.0,600.0,1.0,0,1426.0,1
255,255,-0.2931862696416796,-0.3,0.0,1.0,433.0,574.0,1.0,0,643.0,1
256,256,0.43771752670228936,0.4,1.0,1.0,312.0,840.0,1.0,1,188.0,1
257,257,0.5109617816929705,0.5,1.0,1.0,476.0,750.0,1.0,1,274.0,1
258,258,0.48778651410951424,0.5,1.0,1.0,331.0,972.0,1.0,1,157.0,1
259,259,-0.7597754073559572,-0.8,0.0,1.0,470.0,555.0,1.0,0,325.0,1
260,260,-0.06095076584028358,-0.1,0.0,1.0,281.0,511.0,1.0,0,788.0,1
261,261,-0.16374562612980936,-0.2,0.0,1.0,336.0,776.0,1.0,0,1888.0,1
262,262,-0.20179056108699134,-0.2,1.0,0.0,271.0,590.0,0.0,0,1069.0,1
263,263,-0.47451681675824736,-0.5,1.0,0.0,363.0,826.0,0.0,0,281.0,1
264,264,-0.5006286789221635,-0.5,1.0,0.0,282.0,649.0,0.0,0,379.0,1
265,265,-0.6111280284295735,-0.6,0.0,1.0,454.0,856.0,1.0,0,240.0,1
266,266,0.6646867296783746,0.7,0.0,0.0,261.0,553.0,0.0,1,256.0,1
267,267,0.07364128756405464,0.1,0.0,0.0,482.0,870.0,0.0,1,1648.0,1
268,268,-0.6371662211059141,-0.6,1.0,0.0,274.0,967.0,0.0,0,219.0,1
269,269,0.698943711083397,0.7,0.0,0.0,329.0,774.0,0.0,1,307.0,1
270,270,-0.8151358967680864,-0.8,0.0,1.0,386.0,641.0,1.0,0,423.0,1
271,271,0.1598776007755306,0.2,0.0,0.0,297.0,511.0,0.0,1,602.0,1
272,272,-0.18363960452628048,-0.2,1.0,0.0,479.0,758.0,0.0,0,303.0,1
273,273,-0.7884273914626239,-0.8,0.0,1.0,281.0,707.0,1.0,0,182.0,1
274,274,-0.35253048856359837,-0.4,1.0,0.0,387.0,533.0,0.0,0,370.0,1
275,275,0.8569338975479485,0.9,0.0,0.0,413.0,912.0,0.0,1,195.0,1
276,276,-0.10005344731921006,-0.1,1.0,0.0,427.0,966.0,0.0,0,1607.0,1
277,277,0.4894270718347614,0.5,1.0,1.0,429.0,778.0,1.0,1,183.0,1
278,278,0.8094881302500382,0.8,1.0,1.0,426.0,895.0,1.0,1,129.0,1
279,279,0.22830680718414176,0.2,1.0,1.0,268.0,903.0,1.0,1,1829.0,1
280,280,0.3334555657116679,0.3,0.0,0.0,277.0,824.0,0.0,1,439.0,1
281,281,0.8030009186537129,0.8,1.0,1.0,285.0,915.0,1.0,1,210.0,1
282,282,0.3847572376883487,0.4,0.0,0.0,467.0,669.0,0.0,1,314.0,1
283,283,-0.8363679543434864,-0.8,1.0,0.0,426.0,865.0,0.0,0,179.0,1
284,284,0.47483965254262916,0.5,0.0,0.0,443.0,723.0,0.0,1,354.0,1
285,285,0.34274134899927555,0.3,1.0,1.0,365.0,590.0,1.0,1,425.0,1
286,286,0.12972519254429005,0.1,0.0,0.0,403.0,862.0,0.0,1,1175.0,1
287,287,-0.8682671954447008,-0.9,1.0,0.0,458.0,595.0,0.0,0,327.0,1
288,288,-0.6955092269076022,-0.7,1.0,0.0,387.0,786.0,0.0,0,197.0,1
289,289,-0.10857379707160741,-0.1,0.0,1.0,460.0,678.0,1.0,0,1862.0,1
290,290,-0.5988050870291789,-0.6,1.0,0.0,284.0,940.0,0.0,0,356.0,1
291,291,-0.38219691098423025,-0.4,1.0,0.0,457.0,714.0,0.0,0,359.0,1
292,292,-0.4612733610955254,-0.5,0.0,1.0,464.0,783.0,1.0,0,153.0,1
293,293,-0.8031262952928828,-0.8,1.0,0.0,458.0,513.0,0.0,0,279.0,1
294,294,0.3421654311978305,0.3,1.0,1.0,388.0,657.0,1.0,1,285.0,1
295,295,-0.7613157366909485,-0.8,1.0,0.0,264.0,736.0,0.0,0,210.0,1
296,296,0.6179444991061614,0.6,1.0,1.0,251.0,644.0,1.0,1,255.0,1
297,297,-0.31922266939033217,-0.3,0.0,1.0,474.0,542.0,1.0,0,814.0,1
298,298,0.5424038055685486,0.5,0.0,0.0,431.0,940.0,0.0,1,419.0,1
299,299,-0.07028467238482461,-0.1,0.0,1.0,329.0,970.0,1.0,0,1701.0,1
300,300,-0.5426334299462654,-0.5,0.0,1.0,345.0,610.0,1.0,0,435.0,1
301,301,0.1701978167008925,0.2,1.0,1.0,459.0,668.0,1.0,1,1873.0,1
302,302,-0.735507645594522,-0.7,0.0,1.0,455.0,501.0,1.0,0,204.0,1
303,303,0.25776399831222474,0.3,1.0,1.0,324.0,583.0,1.0,1,423.0,1
304,304,0.669230820320485,0.7,1.0,1.0,424.0,964.0,1.0,1,182.0,1
305,305,0.4837096164498319,0.5,1.0,1.0,406.0,593.0,1.0,1,231.0,1
306,306,0.44648788506441794,0.4,1.0,1.0,339.0,788.0,1.0,1,253.0,1
307,307,0.49938370882093774,0.5,1.0,1.0,263.0,925.0,1.0,1,382.0,1
308,308,0.6872043885858207,0.7,0.0,0.0,365.0,822.0,0.0,1,193.0,1
309,309,-0.3231061296764206,-0.3,0.0,1.0,445.0,733.0,1.0,0,352.0,1
310,310,0.10401386832455028,0.1,0.0,0.0,454.0,668.0,0.0,1,1878.0,1
311,311,-0.8160981217554648,-0.8,0.0,1.0,494.0,910.0,1.0,0,166.0,1
312,312,0.7725463912765226,0.8,1.0,1.0,391.0,601.0,1.0,1,338.0,1
313,313,-0.18277371323446745,-0.2,1.0,0.0,429.0,551.0,0.0,0,790.0,1
314,314,0.7164976022583244,0.7,0.0,0.0,338.0,717.0,0.0,1,215.0,1
315,315,0.13802671801347455,0.1,0.0,0.0,480.0,856.0,0.0,1,1614.0,1
316,316,-0.35364562396874755,-0.4,0.0,1.0,340.0,757.0,1.0,0,373.0,1
317,317,0.036085354796438374,0.0,0.0,0.0,380.0,531.0,1.0,0,2089.0,0
318,318,-0.16396102097140985,-0.2,0.0,1.0,480.0,572.0,1.0,0,728.0,1
319,319,0.8927824260079692,0.9,1.0,1.0,378.0,542.0,1.0,1,170.0,1
320,320,0.17834119485169986,0.2,0.0,0.0,414.0,508.0,0.0,1,818.0,1
321,321,0.34238013195414696,0.3,0.0,0.0,333.0,723.0,0.0,1,344.0,1
322,322,0.026946743148204666,0.0,1.0,1.0,433.0,745.0,1.0,1,1002.0,1
323,323,0.6485958952291774,0.6,1.0,1.0,384.0,737.0,1.0,1,139.0,1
324,324,-0.6670808924439852,-0.7,0.0,1.0,415.0,731.0,1.0,0,334.0,1
325,325,-0.8888115859130373,-0.9,0.0,1.0,448.0,531.0,1.0,0,101.0,1
326,326,0.45482681507721534,0.5,0.0,0.0,356.0,849.0,0.0,1,265.0,1
327,327,-0.7667259005690211,-0.8,0.0,1.0,445.0,626.0,1.0,0,279.0,1
328,328,-0.09510878821918267,-0.1,1.0,0.0,260.0,713.0,0.0,0,2027.0,1
329,329,-0.3363046977813031,-0.3,1.0,0.0,276.0,513.0,0.0,0,431.0,1
330,330,0.22821318873925966,0.2,0.0,0.0,424.0,559.0,0.0,1,917.0,1
331,331,0.2269961788433682,0.2,0.0,0.0,439.0,970.0,0.0,1,851.0,1
332,332,-0.5549582892692011,-0.6,1.0,0.0,375.0,621.0,0.0,0,294.0,1
333,333,0.051231806272389324,0.1,0.0,0.0,354.0,714.0,0.0,1,1902.0,1
334,334,0.13266876336783284,0.1,0.0,0.0,361.0,908.0,0.0,1,921.0,1
335,335,-0.11888355652326454,-0.1,1.0,0.0,378.0,999.0,0.0,0,1423.0,1
336,336,0.4511673362941485,0.5,1.0,1.0,255.0,595.0,1.0,1,480.0,1
337,337,-0.29074032453879384,-0.3,0.0,1.0,404.0,691.0,1.0,0,655.0,1
338,338,-0.8108696453340466,-0.8,0.0,1.0,294.0,938.0,1.0,0,158.0,1
339,339,-0.144710015216851,-0.1,1.0,0.0,467.0,877.0,0.0,0,1056.0,1
340,340,0.729807321997863,0.7,1.0,1.0,403.0,517.0,1.0,1,190.0,1
341,341,-0.6760781271235502,-0.7,0.0,1.0,445.0,802.0,1.0,0,663.0,1
342,342,0.01952633890432165,0.0,1.0,1.0,402.0,857.0,0.0,0,1741.0,0
343,343,0.24731578761135975,0.2,0.0,0.0,279.0,522.0,0.0,1,389.0,1
344,344,0.3506743519738843,0.4,1.0,1.0,340.0,732.0,1.0,1,338.0,1
345,345,-0.6349899416053477,-0.6,1.0,0.0,277.0,809.0,0.0,0,184.0,1
346,346,-0.2199377040515874,-0.2,0.0,1.0,301.0,551.0,1.0,0,1708.0,1
347,347,-0.31970658381779526,-0.3,0.0,1.0,393.0,653.0,1.0,0,594.0,1
348,348,0.15486794840993212,0.2,0.0,0.0,369.0,775.0,0.0,1,916.0,1
349,349,0.255875843120028,0.3,1.0,1.0,331.0,629.0,1.0,1,940.0,1
350,350,-0.8732567097175298,-0.9,1.0,0.0,262.0,748.0,0.0,0,170.0,1
351,351,0.7659677485313111,0.8,1.0,1.0,353.0,695.0,1.0,1,232.0,1
352,352,0.23368043374497216,0.2,1.0,1.0,348.0,811.0,1.0,1,1501.0,1
353,353,0.3153605091679549,0.3,0.0,0.0,267.0,629.0,0.0,1,494.0,1
354,354,-0.24903695448841245,-0.2,0.0,1.0,284.0,940.0,1.0,0,326.0,1
355,355,-0.5809440492657426,-0.6,0.0,1.0,486.0,711.0,1.0,0,133.0,1
356,356,0.35007626622712407,0.4,1.0,1.0,352.0,710.0,1.0,1,408.0,1
357,357,-0.6658635917794965,-0.7,0.0,1.0,349.0,857.0,1.0,0,134.0,1
358,358,0.15488967950765897,0.2,0.0,0.0,461.0,919.0,0.0,1,330.0,1
359,359,0.024529253276376672,0.0,1.0,1.0,494.0,953.0,1.0,1,1553.0,1
360,360,-0.31771896903094177,-0.3,1.0,0.0,251.0,997.0,0.0,0,182.0,1
361,361,-0.14702629556880475,-0.1,0.0,1.0,448.0,667.0,1.0,0,965.0,1
362,362,-0.6482587761244347,-0.6,1.0,0.0,462.0,531.0,0.0,0,227.0,1
363,363,-0.13780775995948724,-0.1,1.0,0.0,364.0,729.0,0.0,0,1907.0,1
364,364,0.2165093828422292,0.2,1.0,1.0,269.0,691.0,1.0,1,830.0,1
365,365,0.8336760055022522,0.8,0.0,0.0,473.0,683.0,0.0,1,174.0,1
366,366,0.262880154515971,0.3,1.0,1.0,319.0,627.0,1.0,1,774.0,1
367,367,0.14487712310122347,0.1,1.0,1.0,439.0,863.0,1.0,1,348.0,1
368,368,-0.3187126971346438,-0.3,1.0,0.0,300.0,898.0,0.0,0,722.0,1
369,369,-0.35896265924020176,-0.4,1.0,0.0,356.0,916.0,0.0,0,608.0,1
370,370,0.003787716134292074,0.0,1.0,1.0,346.0,608.0,1.0,1,2046.0,1
371,371,0.15808301243466583,0.2,1.0,1.0,419.0,600.0,1.0,1,511.0,1
372,372,0.47254556387558366,0.5,1.0,1.0,472.0,891.0,1.0,1,197.0,1
373,373,-0.06043888089190863,-0.1,0.0,1.0,412.0,737.0,1.0,0,1851.0,1
374,374,-0.0062909845763736705,-0.0,0.0,1.0,300.0,748.0,1.0,0,1952.0,1
375,375,-0.21837005544456423,-0.2,1.0,0.0,481.0,593.0,0.0,0,726.0,1
376,376,-0.5265932068627162,-0.5,1.0,0.0,479.0,966.0,0.0,0,195.0,1
377,377,-0.7770878512342253,-0.8,1.0,0.0,496.0,958.0,0.0,0,156.0,1
378,378,-0.7211470977654685,-0.7,1.0,0.0,406.0,510.0,0.0,0,274.0,1
379,379,-0.6872441229390476,-0.7,0.0,1.0,448.0,989.0,1.0,0,143.0,1
380,380,0.22248915649431533,0.2,0.0,0.0,347.0,943.0,0.0,1,630.0,1
381,381,0.401557407646319,0.4,0.0,0.0,272.0,628.0,0.0,1,600.0,1
382,382,0.8734428711436416,0.9,1.0,1.0,274.0,640.0,1.0,1,256.0,1
383,383,-0.30562234829146306,-0.3,0.0,1.0,406.0,685.0,1.0,0,1179.0,1
384,384,-0.1665448361545453,-0.2,1.0,0.0,318.0,727.0,0.0,0,765.0,1
385,385,0.6764497207502315,0.7,1.0,1.0,467.0,609.0,1.0,1,194.0,1
386,386,0.38803689396858376,0.4,1.0,1.0,341.0,985.0,1.0,1,474.0,1
387,387,0.2321029338112296,0.2,0.0,0.0,310.0,711.0,0.0,1,1069.0,1
388,388,-0.5545894715435987,-0.6,1.0,0.0,349.0,765.0,0.0,0,566.0,1
389,389,0.6433801146270303,0.6,1.0,1.0,463.0,734.0,1.0,1,173.0,1
390,390,-0.12817635813229145,-0.1,1.0,0.0,429.0,985.0,0.0,0,526.0,1
391,391,0.4189777279033621,0.4,1.0,1.0,438.0,894.0,1.0,1,308.0,1
392,392,0.19869988616945677,0.2,1.0,1.0,282.0,994.0,1.0,1,434.0,1
393,393,-0.45429050168549406,-0.5,0.0,1.0,365.0,745.0,1.0,0,200.0,1
394,394,-0.8391607766811653,-0.8,0.0,1.0,258.0,855.0,1.0,0,357.0,1
395,395,-0.8488589918472167,-0.8,0.0,1.0,373.0,631.0,1.0,0,266.0,1
396,396,0.2848354705792614,0.3,1.0,1.0,463.0,685.0,1.0,1,1852.0,1
397,397,-0.16082861816611993,-0.2,1.0,0.0,292.0,706.0,0.0,0,432.0,1
398,398,-0.21965269291373468,-0.2,0.0,1.0,317.0,955.0,1.0,0,748.0,1
399,399,0.5501859415378251,0.6,1.0,1.0,498.0,734.0,1.0,1,218.0,1
400,400,-0.8749155259177771,-0.9,0.0,1.0,496.0,863.0,1.0,0,141.0,1
401,401,0.5256681905663557,0.5,1.0,1.0,378.0,696.0,1.0,1,256.0,1
402,402,-0.5940396278949709,-0.6,1.0,0.0,344.0,886.0,0.0,0,290.0,1
403,403,0.5016659261252404,0.5,0.0,0.0,253.0,887.0,0.0,1,410.0,1
404,404,-0.8012276549675125,-0.8,1.0,0.0,286.0,730.0,0.0,0,224.0,1
405,405,0.8623687342416121,0.9,1.0,1.0,458.0,691.0,1.0,1,241.0,1
406,406,-0.12066684830580598,-0.1,0.0,1.0,477.0,647.0,1.0,0,506.0,1
407,407,0.6683623812901788,0.7,1.0,1.0,332.0,586.0,1.0,1,252.0,1
408,408,0.687291478780503,0.7,1.0,1.0,260.0,981.0,1.0,1,249.0,1
409,409,0.33017824081996017,0.3,0.0,0.0,499.0,646.0,0.0,1,275.0,1
410,410,0.3267919731908494,0.3,0.0,0.0,463.0,801.0,0.0,1,756.0,1
411,411,-0.8860314196825112,-0.9,1.0,0.0,437.0,752.0,0.0,0,231.0,1
412,412,-0.5635915836455256,-0.6,0.0,1.0,417.0,607.0,1.0,0,1976.0,1
413,413,0.23074828310604245,0.2,0.0,0.0,354.0,735.0,0.0,1,1021.0,1
414,414,0.5048558148877654,0.5,1.0,1.0,431.0,531.0,1.0,1,418.0,1
415,415,-0.6496539793944349,-0.6,1.0,0.0,391.0,518.0,0.0,0,351.0,1
416,416,0.681189549491214,0.7,1.0,1.0,367.0,578.0,1.0,1,465.0,1
417,417,0.14443489186126512,0.1,1.0,1.0,453.0,950.0,1.0,1,227.0,1
418,418,0.632416762669271,0.6,1.0,1.0,495.0,573.0,1.0,1,462.0,1
419,419,0.033491069686085506,0.0,0.0,0.0,471.0,611.0,0.0,1,1918.0,1
420,420,0.043061054687592026,0.0,1.0,1.0,482.0,663.0,1.0,1,1855.0,1
421,421,-0.7078081330864682,-0.7,0.0,1.0,339.0,759.0,1.0,0,392.0,1
422,422,0.4729492946709021,0.5,1.0,1.0,348.0,778.0,1.0,1,224.0,1
423,423,0.1008434026163113,0.1,0.0,0.0,253.0,825.0,0.0,1,1862.0,1
424,424,-0.224079030627375,-0.2,1.0,0.0,293.0,803.0,0.0,0,344.0,1
425,425,0.5337177816636848,0.5,0.0,0.0,480.0,811.0,0.0,1,209.0,1
426,426,0.48336567801089736,0.5,0.0,0.0,271.0,913.0,0.0,1,276.0,1
427,427,0.7030598829348521,0.7,1.0,1.0,273.0,677.0,1.0,1,210.0,1
428,428,0.3954993514107229,0.4,0.0,0.0,283.0,613.0,0.0,1,214.0,1
429,429,-0.8837112437805593,-0.9,0.0,1.0,387.0,868.0,1.0,0,145.0,1
430,430,0.7970276557762875,0.8,0.0,0.0,371.0,946.0,0.0,1,113.0,1
431,431,0.8077194462270504,0.8,0.0,0.0,405.0,957.0,0.0,1,188.0,1
432,432,0.262402378577569,0.3,0.0,0.0,461.0,719.0,0.0,1,720.0,1
433,433,0.6130295878178417,0.6,1.0,1.0,430.0,885.0,1.0,1,435.0,1
434,434,0.027737863856741374,0.0,1.0,1.0,473.0,904.0,1.0,1,1623.0,1
435,435,0.8677494923632417,0.9,0.0,0.0,291.0,927.0,0.0,1,162.0,1
436,436,-0.519938261263112,-0.5,1.0,0.0,350.0,992.0,0.0,0,108.0,1
437,437,0.7241714287377311,0.7,1.0,1.0,302.0,798.0,1.0,1,130.0,1
438,438,-0.7854504119318546,-0.8,1.0,0.0,433.0,887.0,0.0,0,150.0,1
439,439,0.6806664384582476,0.7,1.0,1.0,464.0,801.0,1.0,1,265.0,1
440,440,-0.6363319409383328,-0.6,1.0,0.0,475.0,898.0,0.0,0,167.0,1
441,441,0.20307152871885104,0.2,1.0,1.0,251.0,728.0,1.0,1,2021.0,1
442,442,0.44181738173137497,0.4,0.0,0.0,292.0,927.0,0.0,1,201.0,1
443,443,-0.6144968659167367,-0.6,0.0,1.0,398.0,775.0,1.0,0,187.0,1
444,444,0.890854641651425,0.9,0.0,0.0,492.0,588.0,0.0,1,210.0,1
445,445,0.29879053756849083,0.3,0.0,0.0,336.0,674.0,0.0,1,1030.0,1
446,446,0.32617786146881056,0.3,1.0,1.0,470.0,505.0,1.0,1,385.0,1
447,447,0.6935143288674958,0.7,0.0,0.0,392.0,559.0,0.0,1,329.0,1
448,448,0.4811001740090136,0.5,0.0,0.0,361.0,529.0,0.0,1,430.0,1
449,449,-0.2148726513001954,-0.2,1.0,0.0,497.0,505.0,0.0,0,798.0,1
450,450,0.23462194987573726,0.2,0.0,0.0,398.0,528.0,0.0,1,514.0,1
451,451,0.3920888071404064,0.4,1.0,1.0,431.0,932.0,1.0,1,1007.0,1
452,452,0.012422936286518582,0.0,0.0,0.0,381.0,751.0,1.0,0,1868.0,0
453,453,-0.6584241244191843,-0.7,0.0,1.0,283.0,877.0,1.0,0,150.0,1
454,454,0.40294786824927853,0.4,1.0,1.0,393.0,658.0,1.0,1,319.0,1
455,455,-0.3728338033212054,-0.4,0.0,1.0,425.0,595.0,1.0,0,1980.0,1
456,456,0.1581177344135013,0.2,0.0,0.0,396.0,644.0,0.0,1,1230.0,1
457,457,-0.11730206743459082,-0.1,0.0,1.0,355.0,584.0,1.0,0,2061.0,1
458,458,0.291689779006329,0.3,0.0,0.0,276.0,680.0,0.0,1,864.0,1
459,459,0.17397985467351929,0.2,1.0,1.0,316.0,940.0,1.0,1,1744.0,1
460,460,0.10111061063617666,0.1,1.0,1.0,350.0,760.0,1.0,1,680.0,1
461,461,0.35905618369871173,0.4,0.0,0.0,347.0,609.0,0.0,1,534.0,1
462,462,-0.8366172014081013,-0.8,0.0,1.0,309.0,694.0,1.0,0,687.0,1
463,463,0.7847410146661998,0.8,0.0,0.0,339.0,894.0,0.0,1,187.0,1
464,464,0.49722192095240125,0.5,1.0,1.0,264.0,555.0,1.0,1,891.0,1
465,465,-0.015621489909682262,-0.0,0.0,1.0,281.0,697.0,0.0,1,1392.0,0
466,466,-0.10845026645066713,-0.1,0.0,1.0,414.0,710.0,1.0,0,1876.0,1
467,467,0.04584144837561255,0.0,0.0,0.0,488.0,761.0,0.0,1,1751.0,1
468,468,-0.07248419565810615,-0.1,0.0,1.0,367.0,978.0,1.0,0,1655.0,1
469,469,0.8306680728963011,0.8,1.0,1.0,473.0,569.0,1.0,1,228.0,1
470,470,0.42599940988616136,0.4,0.0,0.0,414.0,624.0,0.0,1,422.0,1
471,471,-0.6973890947281122,-0.7,1.0,0.0,457.0,952.0,0.0,0,281.0,1
472,472,0.18854547813835165,0.2,1.0,1.0,319.0,927.0,1.0,1,1754.0,1
473,473,-0.24311902210806513,-0.2,0.0,1.0,485.0,809.0,1.0,0,726.0,1
474,474,0.1066004138329869,0.1,1.0,1.0,303.0,673.0,1.0,1,2024.0,1
475,475,0.36547621341752234,0.4,0.0,0.0,388.0,550.0,0.0,1,482.0,1
476,476,-0.7306544347681176,-0.7,0.0,1.0,340.0,691.0,1.0,0,139.0,1
477,477,-0.3384295365398481,-0.3,0.0,1.0,421.0,693.0,1.0,0,606.0,1
478,478,0.169153333326172,0.2,1.0,1.0,490.0,890.0,1.0,1,1620.0,1
479,479,0.7994540002063962,0.8,1.0,1.0,418.0,882.0,1.0,1,170.0,1
480,480,0.1532600548515889,0.2,1.0,1.0,399.0,760.0,1.0,1,441.0,1
481,481,0.6343107403412335,0.6,0.0,0.0,480.0,573.0,0.0,1,437.0,1
482,482,0.09462204946387243,0.1,1.0,1.0,255.0,867.0,1.0,1,628.0,1
483,483,-0.6630758451484231,-0.7,1.0,0.0,440.0,551.0,0.0,0,369.0,1
484,484,-0.8061433468026244,-0.8,1.0,0.0,289.0,624.0,0.0,0,277.0,1
485,485,-0.6767322311296954,-0.7,1.0,0.0,329.0,790.0,0.0,0,211.0,1
486,486,-0.5956738652724236,-0.6,1.0,0.0,399.0,630.0,0.0,0,171.0,1
487,487,-0.24459054851184103,-0.2,0.0,1.0,260.0,915.0,1.0,0,1185.0,1
488,488,0.30936306030223804,0.3,1.0,1.0,441.0,598.0,1.0,1,1131.0,1
489,489,-0.8176872600337852,-0.8,0.0,1.0,458.0,906.0,1.0,0,226.0,1
490,490,-0.7415496969296799,-0.7,1.0,0.0,275.0,556.0,0.0,0,229.0,1
491,491,-0.1516967388457945,-0.2,1.0,0.0,447.0,921.0,0.0,0,1372.0,1
492,492,-0.6015843733102054,-0.6,0.0,1.0,422.0,652.0,1.0,0,236.0,1
493,493,-0.42461571600499626,-0.4,1.0,0.0,446.0,994.0,0.0,0,160.0,1
494,494,0.7612972076262846,0.8,0.0,0.0,300.0,681.0,0.0,1,209.0,1
495,495,-0.01347481324508526,-0.0,0.0,1.0,289.0,852.0,1.0,0,1859.0,1
496,496,-0.6805213850445561,-0.7,1.0,0.0,406.0,653.0,0.0,0,161.0,1
497,497,-0.5852348923849675,-0.6,0.0,1.0,295.0,658.0,1.0,0,577.0,1
498,498,0.6596209612986491,0.7,0.0,0.0,400.0,637.0,0.0,1,223.0,1
499,499,0.0800528677695711,0.1,0.0,0.0,458.0,666.0,0.0,1,1166.0,1
500,500,-0.8847120055024321,-0.9,1.0,0.0,426.0,732.0,0.0,0,172.0,1
501,501,0.06015542825723785,0.1,0.0,0.0,493.0,812.0,1.0,0,1695.0,0
502,502,0.0069969993974372535,0.0,0.0,0.0,343.0,698.0,0.0,1,1959.0,1
503,503,0.024726197922169346,0.0,0.0,0.0,358.0,645.0,0.0,1,1997.0,1
504,504,0.1264228239987638,0.1,0.0,0.0,280.0,793.0,0.0,1,967.0,1
505,505,0.39177956969788374,0.4,0.0,0.0,456.0,846.0,0.0,1,388.0,1
506,506,0.35925505869993957,0.4,0.0,0.0,491.0,920.0,0.0,1,339.0,1
507,507,-0.0933489764297617,-0.1,1.0,0.0,256.0,799.0,0.0,0,1945.0,1
508,508,-0.5063523446678264,-0.5,0.0,1.0,402.0,814.0,1.0,0,1704.0,1
509,509,-0.5798023063322479,-0.6,1.0,0.0,431.0,842.0,0.0,0,177.0,1
510,510,-0.0659971853351341,-0.1,0.0,1.0,486.0,903.0,0.0,1,1611.0,0
511,511,-0.7785321273324858,-0.8,0.0,1.0,298.0,671.0,1.0,0,161.0,1
512,512,0.2534026066524674,0.3,1.0,1.0,443.0,670.0,1.0,1,267.0,1
513,513,-0.09871555786648101,-0.1,0.0,1.0,410.0,619.0,1.0,0,1971.0,1
514,514,-0.803394933555708,-0.8,0.0,1.0,372.0,906.0,1.0,0,122.0,1
515,515,-0.18526246861067353,-0.2,1.0,0.0,438.0,637.0,0.0,0,595.0,1
516,516,0.5204331465592517,0.5,0.0,0.0,251.0,940.0,0.0,1,619.0,1
517,517,0.2490249148849798,0.2,0.0,0.0,311.0,835.0,0.0,1,614.0,1
518,518,-0.6301862409964436,-0.6,1.0,0.0,378.0,744.0,0.0,0,198.0,1
519,519,0.8245414078659427,0.8,0.0,0.0,334.0,723.0,0.0,1,443.0,1
520,520,-0.1603727856680427,-0.2,1.0,0.0,281.0,519.0,0.0,0,710.0,1
521,521,-0.5657083243427967,-0.6,0.0,1.0,265.0,831.0,1.0,0,354.0,1
522,522,0.5236196445368279,0.5,0.0,0.0,362.0,975.0,0.0,1,133.0,1
523,523,0.7799114894996312,0.8,0.0,0.0,278.0,960.0,0.0,1,242.0,1
524,524,-0.7941107901347049,-0.8,0.0,1.0,420.0,541.0,1.0,0,289.0,1
525,525,-0.10031529660080885,-0.1,0.0,1.0,376.0,967.0,1.0,0,1117.0,1
526,526,-0.16940292391252232,-0.2,0.0,1.0,339.0,541.0,1.0,0,2120.0,1
527,527,-0.6907296595250775,-0.7,0.0,1.0,292.0,711.0,1.0,0,177.0,1
528,528,0.01898598947791663,0.0,1.0,1.0,460.0,768.0,1.0,1,1772.0,1
529,529,0.28610069483965683,0.3,0.0,0.0,473.0,760.0,0.0,1,337.0,1
530,530,-0.6436708073886359,-0.6,0.0,1.0,400.0,557.0,1.0,0,293.0,1
531,531,0.6267401182087377,0.6,0.0,0.0,345.0,745.0,0.0,1,320.0,1
532,532,0.7271952743251037,0.7,1.0,1.0,472.0,740.0,1.0,1,198.0,1
533,533,0.025060735141739232,0.0,0.0,0.0,305.0,800.0,1.0,0,1895.0,0
534,534,-0.09502366880330271,-0.1,1.0,0.0,486.0,510.0,0.0,0,1584.0,1
535,535,0.7262418174587993,0.7,1.0,1.0,307.0,506.0,1.0,1,197.0,1
536,536,-0.27840504488029727,-0.3,0.0,1.0,351.0,914.0,1.0,0,1735.0,1
537,537,-0.8696944711658834,-0.9,0.0,1.0,335.0,530.0,1.0,0,185.0,1
538,538,0.6292567731957527,0.6,0.0,0.0,269.0,990.0,0.0,1,131.0,1
539,539,-0.5987127393381495,-0.6,0.0,1.0,264.0,946.0,1.0,0,340.0,1
540,540,-0.44840357103881817,-0.4,0.0,1.0,361.0,510.0,1.0,0,279.0,1
541,541,0.3395491244567045,0.3,0.0,0.0,301.0,763.0,0.0,1,896.0,1
542,542,0.3906639624250051,0.4,0.0,0.0,323.0,777.0,0.0,1,390.0,1
543,543,-0.3284085431691257,-0.3,1.0,0.0,457.0,837.0,0.0,0,206.0,1
544,544,0.7278819863169853,0.7,1.0,1.0,399.0,604.0,1.0,1,127.0,1
545,545,0.8255363953531997,0.8,0.0,0.0,398.0,614.0,0.0,1,308.0,1
546,546,0.07411746050620693,0.1,1.0,1.0,358.0,583.0,1.0,1,2059.0,1
547,547,-0.0009596148247138503,-0.0,0.0,1.0,335.0,535.0,1.0,0,2130.0,1
548,548,-0.6533243025107626,-0.7,0.0,1.0,267.0,952.0,1.0,0,141.0,1
549,549,0.2126991238661916,0.2,0.0,0.0,390.0,716.0,0.0,1,704.0,1
550,550,-0.4804249051715546,-0.5,0.0,1.0,330.0,556.0,1.0,0,314.0,1
551,551,0.3197734135204323,0.3,0.0,0.0,276.0,858.0,0.0,1,256.0,1
552,552,0.06722592811294203,0.1,1.0,1.0,455.0,635.0,1.0,1,1910.0,1
553,553,-0.09561066346321778,-0.1,1.0,0.0,395.0,594.0,0.0,0,1141.0,1
554,554,-0.45690517626890753,-0.5,0.0,1.0,472.0,889.0,1.0,0,349.0,1
555,555,-0.10756785671124802,-0.1,1.0,0.0,453.0,964.0,0.0,0,943.0,1
556,556,0.6897238418864072,0.7,0.0,0.0,378.0,846.0,0.0,1,186.0,1
557,557,0.06354096817677235,0.1,1.0,1.0,300.0,523.0,1.0,1,2177.0,1
558,558,-0.14816127666125456,-0.1,0.0,1.0,465.0,504.0,1.0,0,2031.0,1
559,559,-0.32340846160203596,-0.3,1.0,0.0,330.0,894.0,0.0,0,336.0,1
560,560,0.8142852720401644,0.8,0.0,0.0,269.0,713.0,0.0,1,258.0,1
561,561,-0.7074564321579077,-0.7,0.0,1.0,457.0,808.0,1.0,0,455.0,1
562,562,0.3049288267880014,0.3,0.0,0.0,357.0,738.0,0.0,1,455.0,1
563,563,0.6764803342352018,0.7,1.0,1.0,301.0,518.0,1.0,1,131.0,1
564,564,-0.22774467787326313,-0.2,0.0,1.0,270.0,683.0,1.0,0,1467.0,1
565,565,0.3246247223019255,0.3,0.0,0.0,366.0,881.0,0.0,1,333.0,1
566,566,0.5047586585692668,0.5,1.0,1.0,391.0,683.0,1.0,1,206.0,1
567,567,0.053203509393623505,0.1,1.0,1.0,486.0,557.0,1.0,1,1957.0,1
568,568,0.1188735428488753,0.1,1.0,1.0,368.0,655.0,1.0,1,1977.0,1
569,569,-0.4770476821264525,-0.5,0.0,1.0,271.0,939.0,1.0,0,560.0,1
570,570,0.8747729655626072,0.9,1.0,1.0,279.0,586.0,1.0,1,305.0,1
571,571,-0.48359880901542174,-0.5,0.0,1.0,295.0,782.0,1.0,0,173.0,1
572,572,-0.45073771398002016,-0.5,1.0,0.0,330.0,988.0,0.0,0,202.0,1
573,573,0.35946000672200473,0.4,1.0,1.0,324.0,723.0,1.0,1,443.0,1
574,574,0.325092904776798,0.3,1.0,1.0,375.0,650.0,1.0,1,355.0,1
575,575,0.3280853405061971,0.3,0.0,0.0,396.0,727.0,0.0,1,327.0,1
576,576,-0.727900311094978,-0.7,0.0,1.0,334.0,931.0,1.0,0,715.0,1
577,577,-0.49288838541708946,-0.5,0.0,1.0,311.0,635.0,1.0,0,314.0,1
578,578,-0.4800178270494793,-0.5,0.0,1.0,386.0,892.0,1.0,0,542.0,1
579,579,-0.6770249943612412,-0.7,1.0,0.0,399.0,687.0,0.0,0,284.0,1
580,580,-0.8045513035396964,-0.8,0.0,1.0,257.0,913.0,1.0,0,1060.0,1
581,581,0.7080338981034443,0.7,0.0,0.0,272.0,622.0,0.0,1,306.0,1
582,582,-0.683113498996871,-0.7,0.0,1.0,439.0,819.0,1.0,0,292.0,1
583,583,0.7128000764698764,0.7,0.0,0.0,259.0,872.0,0.0,1,239.0,1
584,584,0.8338120669354933,0.8,0.0,0.0,374.0,654.0,0.0,1,212.0,1
585,585,-0.7437029928288142,-0.7,0.0,1.0,278.0,893.0,1.0,0,189.0,1
586,586,-0.06829294194294844,-0.1,0.0,1.0,452.0,712.0,1.0,0,426.0,1
587,587,0.23425111787883968,0.2,1.0,1.0,366.0,748.0,1.0,1,606.0,1
588,588,0.7737667031429097,0.8,0.0,0.0,303.0,675.0,0.0,1,262.0,1
589,589,-0.11735175348722027,-0.1,0.0,1.0,345.0,822.0,1.0,0,1123.0,1
590,590,0.23559877422053066,0.2,1.0,1.0,428.0,887.0,1.0,1,345.0,1
591,591,0.0842746752489949,0.1,0.0,0.0,435.0,927.0,0.0,1,1638.0,1
592,592,0.52742502350065,0.5,0.0,0.0,417.0,858.0,0.0,1,115.0,1
593,593,-0.27255712312046465,-0.3,1.0,0.0,472.0,583.0,0.0,0,495.0,1
594,594,0.22290443576694485,0.2,0.0,0.0,408.0,702.0,0.0,1,440.0,1
595,595,0.06721822187313742,0.1,0.0,0.0,439.0,800.0,1.0,0,1761.0,0
596,596,-0.4097161830698596,-0.4,0.0,1.0,271.0,699.0,1.0,0,690.0,1
597,597,0.7555849103269162,0.8,1.0,1.0,320.0,727.0,1.0,1,333.0,1
598,598,0.13674783508685173,0.1,1.0,1.0,256.0,809.0,1.0,1,1825.0,1
599,599,-0.6784362304285524,-0.7,0.0,1.0,408.0,963.0,1.0,0,139.0,1
600,600,-0.8011106990056974,-0.8,1.0,0.0,273.0,555.0,0.0,0,372.0,1
601,601,-0.5582818942565955,-0.6,0.0,1.0,256.0,768.0,1.0,0,1696.0,1
602,602,0.011538860579100585,0.0,0.0,0.0,354.0,631.0,0.0,1,2015.0,1
603,603,0.21306309886410812,0.2,1.0,1.0,378.0,560.0,1.0,1,1612.0,1
604,604,-0.3693368943259784,-0.4,1.0,0.0,484.0,925.0,0.0,0,691.0,1
605,605,0.4274592954796904,0.4,1.0,1.0,417.0,525.0,1.0,1,398.0,1
606,606,0.730277155810357,0.7,0.0,0.0,440.0,705.0,0.0,1,235.0,1
607,607,0.5537596867958571,0.6,0.0,0.0,300.0,799.0,0.0,1,351.0,1
608,608,0.7120969385629846,0.7,0.0,0.0,411.0,819.0,0.0,1,250.0,1
609,609,-0.14914214871497522,-0.1,1.0,0.0,317.0,797.0,0.0,0,1386.0,1
610,610,-0.47631501811387134,-0.5,0.0,1.0,269.0,642.0,1.0,0,319.0,1
611,611,-0.5268919694032925,-0.5,0.0,1.0,471.0,819.0,1.0,0,190.0,1
612,612,0.5773838017836525,0.6,0.0,0.0,417.0,908.0,0.0,1,275.0,1
613,613,0.825473142824544,0.8,1.0,1.0,483.0,682.0,1.0,1,305.0,1
614,614,0.22667433248359836,0.2,1.0,1.0,363.0,978.0,1.0,1,1049.0,1
615,615,-0.1573378906593872,-0.2,1.0,0.0,490.0,928.0,0.0,0,422.0,1
616,616,-0.8149227525987951,-0.8,0.0,1.0,401.0,879.0,1.0,0,220.0,1
617,617,-0.8853753885577806,-0.9,0.0,1.0,487.0,845.0,1.0,0,178.0,1
618,618,-0.2011814311223057,-0.2,0.0,1.0,283.0,971.0,1.0,0,1286.0,1
619,619,-0.16027520685634666,-0.2,0.0,1.0,499.0,501.0,1.0,0,2000.0,1
620,620,-0.08292789387766963,-0.1,0.0,1.0,439.0,818.0,1.0,0,1743.0,1
621,621,0.37065751846532324,0.4,0.0,0.0,343.0,850.0,0.0,1,707.0,1
622,622,0.10589879398157598,0.1,1.0,1.0,285.0,580.0,1.0,1,1175.0,1
623,623,0.7742397044792925,0.8,0.0,0.0,434.0,761.0,0.0,1,165.0,1
624,624,0.594858289865145,0.6,1.0,1.0,283.0,616.0,1.0,1,301.0,1
625,625,0.1802846274985791,0.2,1.0,1.0,250.0,783.0,1.0,1,1627.0,1
626,626,-0.05673593227283591,-0.1,0.0,1.0,302.0,973.0,1.0,0,1725.0,1
627,627,0.33666501735440824,0.3,0.0,0.0,297.0,920.0,0.0,1,73.0,1
628,628,0.454496869298724,0.5,1.0,1.0,320.0,645.0,1.0,1,275.0,1
629,629,0.031160462476579887,0.0,0.0,0.0,344.0,882.0,0.0,1,1774.0,1
630,630,-0.40041648721234396,-0.4,1.0,0.0,379.0,997.0,0.0,0,394.0,1
631,631,-0.33335735373353415,-0.3,0.0,1.0,287.0,968.0,1.0,0,295.0,1
632,632,0.15109971178107873,0.2,1.0,1.0,468.0,539.0,1.0,1,1383.0,1
633,633,0.008632123843920758,0.0,1.0,1.0,420.0,886.0,1.0,1,1694.0,1
634,634,0.505560334185375,0.5,0.0,0.0,294.0,753.0,0.0,1,293.0,1
635,635,-0.2218020243937856,-0.2,1.0,0.0,467.0,736.0,0.0,0,817.0,1
636,636,-0.5375073268846258,-0.5,1.0,0.0,489.0,879.0,0.0,0,322.0,1
637,637,-0.06528614362227636,-0.1,1.0,0.0,459.0,592.0,0.0,0,1789.0,1
638,638,-0.6180797837314626,-0.6,1.0,0.0,496.0,959.0,0.0,0,225.0,1
639,639,-0.788482756374886,-0.8,0.0,1.0,456.0,843.0,1.0,0,281.0,1
640,640,0.3201146819614552,0.3,1.0,1.0,310.0,617.0,1.0,1,513.0,1
641,641,0.3696310932935448,0.4,0.0,0.0,380.0,882.0,0.0,1,338.0,1
642,642,0.19657454312522382,0.2,0.0,0.0,482.0,755.0,0.0,1,1233.0,1
643,643,-0.02269983588697788,-0.0,1.0,0.0,311.0,656.0,0.0,0,2033.0,1
644,644,-0.1161337421233698,-0.1,1.0,0.0,392.0,857.0,0.0,0,431.0,1
645,645,0.08722128589093503,0.1,1.0,1.0,309.0,768.0,1.0,1,1923.0,1
646,646,0.07074157656810909,0.1,1.0,1.0,383.0,859.0,1.0,1,1758.0,1
647,647,-0.1908992039742109,-0.2,1.0,0.0,435.0,817.0,0.0,0,1338.0,1
648,648,-0.25625656840812827,-0.3,1.0,0.0,345.0,907.0,0.0,0,388.0,1
649,649,0.4407364467862006,0.4,0.0,0.0,426.0,797.0,0.0,1,267.0,1
650,650,0.25659226658803924,0.3,1.0,1.0,372.0,713.0,1.0,1,195.0,1
651,651,-0.5982794074535744,-0.6,0.0,1.0,455.0,731.0,1.0,0,604.0,1
652,652,0.8899091777380547,0.9,1.0,1.0,352.0,758.0,1.0,1,170.0,1
653,653,0.8831497109007022,0.9,0.0,0.0,360.0,721.0,0.0,1,369.0,1
654,654,0.7312844915952698,0.7,1.0,1.0,459.0,656.0,1.0,1,205.0,1
655,655,-0.4094939912569024,-0.4,0.0,1.0,365.0,918.0,1.0,0,407.0,1
656,656,-0.661074252534217,-0.7,0.0,1.0,425.0,897.0,1.0,0,548.0,1
657,657,-0.15130670892288023,-0.2,0.0,1.0,264.0,801.0,1.0,0,1935.0,1
658,658,-0.10197194744509075,-0.1,1.0,0.0,405.0,759.0,0.0,0,1836.0,1
659,659,-0.003724827635359085,-0.0,0.0,1.0,450.0,994.0,0.0,1,1556.0,0
660,660,0.3606255232487324,0.4,0.0,0.0,265.0,710.0,0.0,1,275.0,1
661,661,0.3571473459803177,0.4,1.0,1.0,453.0,998.0,1.0,1,239.0,1
662,662,0.22578214392744356,0.2,1.0,1.0,329.0,582.0,1.0,1,2089.0,1
663,663,-0.42158375059289693,-0.4,1.0,0.0,470.0,935.0,0.0,0,195.0,1
664,664,0.5704892815038435,0.6,1.0,1.0,401.0,687.0,1.0,1,142.0,1
665,665,-0.8954545937472715,-0.9,0.0,1.0,288.0,714.0,1.0,0,278.0,1
666,666,-0.8888924559043635,-0.9,1.0,0.0,273.0,671.0,0.0,0,126.0,1
667,667,0.2864513060932562,0.3,1.0,1.0,270.0,683.0,1.0,1,537.0,1
668,668,0.7103756662571875,0.7,0.0,0.0,297.0,574.0,0.0,1,359.0,1
669,669,-0.7533385603061187,-0.8,1.0,0.0,355.0,871.0,0.0,0,154.0,1
670,670,0.3399746537258358,0.3,0.0,0.0,428.0,858.0,0.0,1,334.0,1
671,671,-0.7639760128031935,-0.8,1.0,0.0,446.0,585.0,0.0,0,159.0,1
672,672,-0.204256775230917,-0.2,0.0,1.0,419.0,723.0,1.0,0,428.0,1
673,673,-0.16837260229529638,-0.2,1.0,0.0,280.0,963.0,0.0,0,1357.0,1
674,674,-0.2837979051608728,-0.3,1.0,0.0,267.0,695.0,0.0,0,528.0,1
675,675,-0.8336483976265823,-0.8,1.0,0.0,338.0,502.0,0.0,0,240.0,1
676,676,0.19067191774809278,0.2,1.0,1.0,283.0,642.0,1.0,1,375.0,1
677,677,-0.41710979810700166,-0.4,0.0,1.0,494.0,828.0,1.0,0,298.0,1
678,678,-0.6578212136003587,-0.7,0.0,1.0,286.0,834.0,1.0,0,190.0,1
679,679,0.19740404049844795,0.2,1.0,1.0,274.0,620.0,1.0,1,2106.0,1
680,680,0.3443374448331028,0.3,1.0,1.0,259.0,623.0,1.0,1,828.0,1
681,681,-0.6185875643322689,-0.6,0.0,1.0,252.0,814.0,0.0,1,-76.0,0
682,682,-0.7017985214772557,-0.7,1.0,0.0,278.0,527.0,0.0,0,365.0,1
683,683,0.8016922165387289,0.8,1.0,1.0,266.0,702.0,1.0,1,292.0,1
684,684,0.01981616294547439,0.0,0.0,0.0,446.0,805.0,1.0,0,1749.0,0
685,685,-0.4714330268190795,-0.5,1.0,0.0,305.0,698.0,0.0,0,217.0,1
686,686,-0.6030292130244825,-0.6,1.0,0.0,356.0,603.0,0.0,0,151.0,1
687,687,0.11915280480087931,0.1,0.0,0.0,484.0,927.0,0.0,1,549.0,1
688,688,0.8362918106137139,0.8,1.0,1.0,437.0,762.0,1.0,1,121.0,1
689,689,0.08891012587660352,0.1,1.0,1.0,280.0,773.0,1.0,1,1947.0,1
690,690,0.11595120064556552,0.1,0.0,0.0,492.0,852.0,0.0,1,1656.0,1
691,691,-0.1840257119457397,-0.2,0.0,1.0,357.0,965.0,1.0,0,1678.0,1
692,692,-0.5432985252280413,-0.5,0.0,1.0,470.0,996.0,1.0,0,94.0,1
693,693,-0.6642093930967494,-0.7,1.0,0.0,330.0,918.0,0.0,0,172.0,1
694,694,-0.13045830427151628,-0.1,1.0,0.0,324.0,816.0,0.0,0,710.0,1
695,695,0.006897018321115667,0.0,0.0,0.0,471.0,897.0,0.0,1,1632.0,1
696,696,-0.3933497952883619,-0.4,1.0,0.0,331.0,875.0,0.0,0,304.0,1
697,697,-0.016744507490668692,-0.0,0.0,1.0,341.0,522.0,0.0,1,2137.0,0
698,698,-0.17642192519032884,-0.2,0.0,1.0,363.0,914.0,1.0,0,1263.0,1
699,699,0.3438309459026284,0.3,0.0,0.0,341.0,604.0,0.0,1,425.0,1
700,700,-0.7993174865144628,-0.8,1.0,0.0,395.0,512.0,0.0,0,223.0,1
701,701,0.4566899862739159,0.5,1.0,1.0,297.0,677.0,1.0,1,316.0,1
702,702,0.399922777877039,0.4,1.0,1.0,396.0,844.0,1.0,1,510.0,1
703,703,-0.10028908962782568,-0.1,1.0,0.0,356.0,783.0,0.0,0,1351.0,1
704,704,-0.19634625569124609,-0.2,1.0,0.0,447.0,595.0,0.0,0,508.0,1
705,705,0.466279347065656,0.5,1.0,1.0,368.0,923.0,1.0,1,309.0,1
706,706,-0.009852988559401532,-0.0,0.0,1.0,468.0,952.0,1.0,0,1580.0,1
707,707,-0.46586446463140896,-0.5,1.0,0.0,490.0,737.0,0.0,0,443.0,1
708,708,0.5390769667584349,0.5,0.0,0.0,496.0,741.0,0.0,1,143.0,1
709,709,-0.3454572958141158,-0.3,0.0,1.0,391.0,549.0,1.0,0,240.0,1
710,710,0.07347963897457266,0.1,0.0,0.0,367.0,737.0,1.0,0,1896.0,0
711,711,0.7912524354237856,0.8,1.0,1.0,410.0,532.0,1.0,1,228.0,1
712,712,0.813563795318126,0.8,0.0,0.0,447.0,746.0,0.0,1,377.0,1
713,713,0.15911034024923498,0.2,0.0,0.0,299.0,961.0,0.0,1,750.0,1
714,714,-0.03119576872021046,-0.0,0.0,1.0,485.0,954.0,1.0,0,1561.0,1
715,715,0.44805968329599566,0.4,0.0,0.0,374.0,517.0,0.0,1,329.0,1
716,716,-0.6955042194170513,-0.7,0.0,1.0,317.0,600.0,1.0,0,123.0,1
717,717,0.2844102517859687,0.3,0.0,0.0,270.0,637.0,0.0,1,733.0,1
718,718,0.6534399649398618,0.7,1.0,1.0,499.0,518.0,1.0,1,403.0,1
719,719,-0.8456371511314518,-0.8,0.0,1.0,371.0,991.0,1.0,0,168.0,1
720,720,0.5877687122656926,0.6,1.0,1.0,339.0,871.0,1.0,1,460.0,1
721,721,-0.8801331192561809,-0.9,1.0,0.0,364.0,983.0,0.0,0,153.0,1
722,722,-0.6772727586160149,-0.7,1.0,0.0,427.0,610.0,0.0,0,243.0,1
723,723,0.24389619866701706,0.2,0.0,0.0,334.0,709.0,0.0,1,467.0,1
724,724,-0.728379518114837,-0.7,1.0,0.0,433.0,603.0,0.0,0,224.0,1
725,725,-0.5555725959897295,-0.6,0.0,1.0,278.0,760.0,1.0,0,532.0,1
726,726,0.8109388097740439,0.8,1.0,1.0,461.0,571.0,1.0,1,158.0,1
727,727,-0.8257786178229101,-0.8,1.0,0.0,461.0,606.0,0.0,0,203.0,1
728,728,-0.6139486713522305,-0.6,1.0,0.0,339.0,553.0,0.0,0,228.0,1
729,729,0.4780658049613896,0.5,1.0,1.0,400.0,851.0,1.0,1,279.0,1
730,730,0.08193147346843888,0.1,1.0,1.0,405.0,636.0,1.0,1,749.0,1
731,731,0.5783996169700264,0.6,0.0,0.0,289.0,766.0,0.0,1,275.0,1
732,732,-0.6427138910681529,-0.6,0.0,1.0,354.0,880.0,1.0,0,516.0,1
733,733,-0.649179851413608,-0.6,0.0,1.0,411.0,640.0,1.0,0,329.0,1
734,734,-0.4655583342260099,-0.5,1.0,0.0,274.0,960.0,0.0,0,286.0,1
735,735,-0.5302073181280753,-0.5,0.0,1.0,371.0,794.0,1.0,0,485.0,1
736,736,-0.41680866196277416,-0.4,1.0,0.0,363.0,912.0,0.0,0,235.0,1
737,737,-0.7864218267795515,-0.8,0.0,1.0,352.0,989.0,1.0,0,89.0,1
738,738,0.7198061147857432,0.7,0.0,0.0,303.0,657.0,0.0,1,330.0,1
739,739,-0.8156741334030454,-0.8,1.0,0.0,416.0,711.0,0.0,0,333.0,1
740,740,-0.12578384489645134,-0.1,1.0,0.0,487.0,856.0,0.0,0,1657.0,1
741,741,-0.4147581750355092,-0.4,1.0,0.0,484.0,627.0,0.0,0,599.0,1
742,742,0.7919639519413383,0.8,0.0,0.0,495.0,626.0,0.0,1,239.0,1
743,743,0.06713936070426041,0.1,1.0,1.0,461.0,760.0,1.0,1,1779.0,1
744,744,-0.4248248109070227,-0.4,0.0,1.0,409.0,723.0,1.0,0,268.0,1
745,745,0.5922159410074278,0.6,0.0,0.0,333.0,714.0,0.0,1,283.0,1
746,746,0.637979663508159,0.6,0.0,0.0,422.0,932.0,0.0,1,456.0,1
747,747,-0.3166808278886857,-0.3,0.0,1.0,324.0,600.0,1.0,0,276.0,1
748,748,0.20751244806019897,0.2,1.0,1.0,408.0,694.0,1.0,1,1898.0,1
749,749,-0.5687801688972831,-0.6,0.0,1.0,256.0,730.0,1.0,0,234.0,1
750,750,0.43859709836020666,0.4,1.0,1.0,253.0,785.0,1.0,1,302.0,1
751,751,-0.7938937273523416,-0.8,1.0,0.0,491.0,505.0,0.0,0,344.0,1
752,752,0.6840497352079998,0.7,1.0,1.0,303.0,684.0,1.0,1,243.0,1
753,753,-0.20747856912023765,-0.2,0.0,1.0,300.0,972.0,1.0,0,1288.0,1
754,754,-0.3517439539122206,-0.4,1.0,0.0,498.0,691.0,0.0,0,681.0,1
755,755,-0.5033170901149683,-0.5,1.0,0.0,353.0,931.0,0.0,0,406.0,1
756,756,0.4914531279586877,0.5,1.0,1.0,298.0,616.0,1.0,1,456.0,1
757,757,0.4590246972730069,0.5,0.0,0.0,393.0,593.0,0.0,1,294.0,1
758,758,0.5837190519629724,0.6,1.0,1.0,250.0,753.0,1.0,1,157.0,1
759,759,-0.8900499678571716,-0.9,1.0,0.0,449.0,883.0,0.0,0,218.0,1
760,760,0.3205118344632617,0.3,1.0,1.0,475.0,744.0,1.0,1,621.0,1
761,761,-0.7842141729085655,-0.8,1.0,0.0,355.0,863.0,0.0,0,72.0,1
762,762,-0.31855542898904043,-0.3,0.0,1.0,309.0,746.0,0.0,1,-85.0,0
763,763,-0.31577246611115817,-0.3,0.0,1.0,287.0,840.0,1.0,0,193.0,1
764,764,-0.09383186726170722,-0.1,1.0,0.0,255.0,950.0,0.0,0,1795.0,1
765,765,0.8649887948322154,0.9,0.0,0.0,374.0,599.0,0.0,1,227.0,1
766,766,-0.5026257352434785,-0.5,1.0,0.0,314.0,544.0,0.0,0,282.0,1
767,767,-0.6514523225440088,-0.7,1.0,0.0,286.0,909.0,0.0,0,335.0,1
768,768,-0.3958481426608229,-0.4,1.0,0.0,251.0,819.0,0.0,0,300.0,1
769,769,0.11085702217060167,0.1,1.0,1.0,297.0,807.0,1.0,1,1896.0,1
770,770,0.7825729675247924,0.8,0.0,0.0,493.0,853.0,0.0,1,254.0,1
771,771,0.6208770844737662,0.6,1.0,1.0,470.0,721.0,1.0,1,309.0,1
772,772,-0.09596355035662507,-0.1,0.0,1.0,341.0,641.0,1.0,0,2018.0,1
773,773,0.15197595203018388,0.2,0.0,0.0,334.0,836.0,0.0,1,1310.0,1
774,774,0.23356194386865436,0.2,1.0,1.0,270.0,629.0,1.0,1,851.0,1
775,775,0.7835006696722556,0.8,0.0,0.0,498.0,686.0,0.0,1,156.0,1
776,776,-0.12270325251755354,-0.1,0.0,1.0,400.0,803.0,1.0,0,567.0,1
777,777,0.08268438030882752,0.1,0.0,0.0,325.0,686.0,0.0,1,1989.0,1
778,778,0.43427411016374207,0.4,1.0,1.0,424.0,700.0,1.0,1,136.0,1
779,779,-0.7992199012619258,-0.8,1.0,0.0,293.0,898.0,0.0,0,89.0,1
780,780,0.5253913511417091,0.5,0.0,0.0,318.0,937.0,0.0,1,115.0,1
781,781,-0.35897978888977156,-0.4,0.0,1.0,481.0,789.0,1.0,0,340.0,1
782,782,-0.4399965365620476,-0.4,1.0,0.0,381.0,728.0,0.0,0,321.0,1
783,783,-0.08429305977566903,-0.1,0.0,1.0,329.0,765.0,1.0,0,1906.0,1
784,784,0.37635197199842596,0.4,0.0,0.0,308.0,599.0,0.0,1,473.0,1
785,785,-0.12342276087962933,-0.1,0.0,1.0,284.0,736.0,1.0,0,1980.0,1
786,786,-0.016116117633148908,-0.0,0.0,1.0,285.0,636.0,0.0,1,2079.0,0
787,787,-0.034859709205959266,-0.0,1.0,0.0,320.0,833.0,0.0,0,1847.0,1
788,788,-0.8838409441028809,-0.9,1.0,0.0,275.0,833.0,0.0,0,262.0,1
789,789,-0.1025471958616756,-0.1,1.0,0.0,296.0,772.0,0.0,0,1932.0,1
790,790,-0.7924752256614623,-0.8,1.0,0.0,489.0,636.0,0.0,0,235.0,1
791,791,0.5717256071249123,0.6,0.0,0.0,421.0,543.0,0.0,1,186.0,1
792,792,0.07467492444552715,0.1,1.0,1.0,395.0,755.0,1.0,1,1850.0,1
793,793,0.17827829656566918,0.2,0.0,0.0,488.0,538.0,0.0,1,644.0,1
794,794,-0.31821357859151767,-0.3,1.0,0.0,384.0,578.0,0.0,0,178.0,1
795,795,0.6606447112866899,0.7,1.0,1.0,421.0,502.0,1.0,1,227.0,1
796,796,0.41060758060619096,0.4,1.0,1.0,427.0,570.0,1.0,1,213.0,1
797,797,-0.45826779809735624,-0.5,1.0,0.0,480.0,955.0,0.0,0,345.0,1
798,798,0.3094639248261323,0.3,1.0,1.0,290.0,778.0,1.0,1,932.0,1
799,799,0.529034350179899,0.5,0.0,0.0,347.0,821.0,0.0,1,422.0,1
800,800,-0.19399976208395786,-0.2,1.0,0.0,469.0,748.0,0.0,0,973.0,1
801,801,0.13495056075256862,0.1,0.0,0.0,385.0,555.0,0.0,1,1150.0,1
802,802,-0.8786215898987427,-0.9,1.0,0.0,365.0,716.0,0.0,0,229.0,1
803,803,0.43201643261629263,0.4,0.0,0.0,452.0,658.0,0.0,1,500.0,1
804,804,0.44833113110667544,0.4,1.0,1.0,435.0,631.0,1.0,1,584.0,1
805,805,0.4258622186848561,0.4,1.0,1.0,469.0,942.0,1.0,1,479.0,1
806,806,-0.6358521941216642,-0.6,1.0,0.0,409.0,690.0,0.0,0,181.0,1
807,807,0.24982247822857528,0.2,0.0,0.0,454.0,895.0,0.0,1,591.0,1
808,808,0.4005013739484712,0.4,0.0,0.0,318.0,798.0,0.0,1,414.0,1
809,809,-0.3250724395382557,-0.3,0.0,1.0,317.0,657.0,1.0,0,526.0,1
810,810,-0.779246849684871,-0.8,0.0,1.0,499.0,907.0,1.0,0,1334.0,1
811,811,0.5143650383028607,0.5,1.0,1.0,342.0,825.0,1.0,1,323.0,1
812,812,0.8337562972866056,0.8,0.0,0.0,435.0,665.0,0.0,1,300.0,1
813,813,-0.6847533077242922,-0.7,1.0,0.0,251.0,563.0,0.0,0,326.0,1
814,814,0.7281850287617054,0.7,1.0,1.0,331.0,592.0,1.0,1,227.0,1
815,815,0.2976063232071119,0.3,1.0,1.0,445.0,574.0,1.0,1,211.0,1
816,816,0.35669088513836733,0.4,1.0,1.0,417.0,724.0,1.0,1,189.0,1
817,817,0.2328907140493176,0.2,1.0,1.0,461.0,545.0,1.0,1,574.0,1
818,818,-0.7265767956986647,-0.7,1.0,0.0,344.0,931.0,0.0,0,205.0,1
819,819,0.6391534130217248,0.6,1.0,1.0,366.0,570.0,1.0,1,234.0,1
820,820,-0.2773436131342851,-0.3,1.0,0.0,260.0,720.0,0.0,0,560.0,1
821,821,-0.37945822836407517,-0.4,1.0,0.0,320.0,974.0,0.0,0,346.0,1
822,822,0.20986618660212242,0.2,1.0,1.0,286.0,633.0,1.0,1,501.0,1
823,823,-0.8610544822672535,-0.9,0.0,1.0,352.0,641.0,1.0,0,287.0,1
824,824,-0.14306724568104068,-0.1,0.0,1.0,438.0,822.0,1.0,0,330.0,1
825,825,0.4020204292292159,0.4,0.0,0.0,418.0,904.0,0.0,1,518.0,1
826,826,-0.6675113952941063,-0.7,1.0,0.0,490.0,571.0,0.0,0,319.0,1
827,827,0.48165579370454037,0.5,1.0,1.0,381.0,991.0,1.0,1,238.0,1
828,828,0.17938524930734123,0.2,0.0,0.0,395.0,850.0,0.0,1,1445.0,1
829,829,0.3719261345991006,0.4,1.0,1.0,405.0,743.0,1.0,1,452.0,1
830,830,-0.7818773978286507,-0.8,1.0,0.0,350.0,527.0,0.0,0,343.0,1
831,831,0.7561574681540394,0.8,1.0,1.0,393.0,606.0,1.0,1,131.0,1
832,832,0.5503842780317573,0.6,1.0,1.0,384.0,558.0,1.0,1,418.0,1
833,833,-0.8984471280193715,-0.9,1.0,0.0,460.0,934.0,0.0,0,146.0,1
834,834,0.42843251145181493,0.4,1.0,1.0,465.0,733.0,1.0,1,452.0,1
835,835,0.04967650243577404,0.0,1.0,1.0,427.0,854.0,1.0,1,1719.0,1
836,836,0.02178477681010682,0.0,0.0,0.0,430.0,771.0,1.0,0,1799.0,0
837,837,0.7519339442372669,0.8,0.0,0.0,264.0,512.0,0.0,1,304.0,1
838,838,-0.4803209353304397,-0.5,0.0,1.0,448.0,732.0,1.0,0,440.0,1
839,839,0.8059167042404741,0.8,0.0,0.0,250.0,969.0,0.0,1,131.0,1
840,840,-0.1327385130632276,-0.1,1.0,0.0,414.0,660.0,0.0,0,836.0,1
841,841,0.08694585772194774,0.1,1.0,1.0,465.0,573.0,1.0,1,1962.0,1
842,842,-0.6892156396231061,-0.7,0.0,1.0,356.0,627.0,1.0,0,277.0,1
843,843,0.24346388451420886,0.2,1.0,1.0,264.0,731.0,1.0,1,1295.0,1
844,844,0.626607052551683,0.6,1.0,1.0,483.0,840.0,1.0,1,227.0,1
845,845,-0.5581709077955164,-0.6,0.0,1.0,486.0,754.0,1.0,0,170.0,1
846,846,0.6463205501173922,0.6,0.0,0.0,276.0,574.0,0.0,1,280.0,1
847,847,-0.4998990499784284,-0.5,1.0,0.0,429.0,973.0,0.0,0,208.0,1
848,848,0.09372675079226167,0.1,1.0,1.0,251.0,749.0,1.0,1,2000.0,1
849,849,-0.5780301026983685,-0.6,0.0,1.0,475.0,934.0,1.0,0,571.0,1
850,850,0.5601308481450865,0.6,0.0,0.0,484.0,727.0,0.0,1,449.0,1
851,851,0.16055017525010717,0.2,0.0,0.0,446.0,892.0,0.0,1,1062.0,1
852,852,-0.30455060365149755,-0.3,1.0,0.0,491.0,592.0,0.0,0,477.0,1
853,853,-0.5260882712486645,-0.5,1.0,0.0,308.0,579.0,0.0,0,463.0,1
854,854,-0.47816405329953304,-0.5,0.0,1.0,429.0,571.0,1.0,0,460.0,1
855,855,-0.4362998397436562,-0.4,1.0,0.0,314.0,737.0,0.0,0,299.0,1
856,856,-0.4601205519561114,-0.5,0.0,1.0,384.0,814.0,1.0,0,1802.0,1
857,857,0.47768347543393974,0.5,1.0,1.0,429.0,560.0,1.0,1,551.0,1
858,858,0.3378829542448306,0.3,1.0,1.0,497.0,924.0,1.0,1,529.0,1
859,859,0.02142442429404734,0.0,1.0,1.0,441.0,768.0,1.0,1,1791.0,1
860,860,-0.8791643850214291,-0.9,0.0,1.0,388.0,617.0,1.0,0,215.0,1
861,861,-0.5173143948689363,-0.5,0.0,1.0,448.0,901.0,1.0,0,211.0,1
862,862,-0.7335670414051969,-0.7,0.0,1.0,253.0,765.0,1.0,0,92.0,1
863,863,-0.7336375915342352,-0.7,0.0,1.0,317.0,963.0,1.0,0,220.0,1
864,864,0.22590634927666164,0.2,1.0,1.0,258.0,548.0,1.0,1,414.0,1
865,865,0.8251779503587441,0.8,1.0,1.0,378.0,971.0,1.0,1,131.0,1
866,866,-0.8592734769872339,-0.9,0.0,1.0,389.0,561.0,1.0,0,270.0,1
867,867,-0.47705739792961604,-0.5,0.0,1.0,352.0,959.0,1.0,0,319.0,1
868,868,-0.2393244370032137,-0.2,1.0,0.0,433.0,637.0,0.0,0,580.0,1
869,869,0.12830953316260774,0.1,1.0,1.0,430.0,586.0,1.0,1,1984.0,1
870,870,-0.4725296901600822,-0.5,0.0,1.0,288.0,614.0,1.0,0,348.0,1
871,871,0.5817499614468643,0.6,1.0,1.0,337.0,737.0,1.0,1,216.0,1
872,872,0.03210773726680116,0.0,0.0,0.0,301.0,837.0,0.0,1,1862.0,1
873,873,-0.8272098033607567,-0.8,0.0,1.0,384.0,904.0,1.0,0,262.0,1
874,874,0.35860025618872815,0.4,0.0,0.0,365.0,745.0,0.0,1,200.0,1
875,875,0.35011737800962883,0.4,1.0,1.0,416.0,630.0,1.0,1,254.0,1
876,876,0.8213626251620086,0.8,1.0,1.0,317.0,553.0,1.0,1,170.0,1
877,877,-0.13778607789629105,-0.1,1.0,0.0,409.0,783.0,0.0,0,1618.0,1
878,878,-0.3104156279286415,-0.3,0.0,1.0,409.0,966.0,1.0,0,475.0,1
879,879,0.18123049909732625,0.2,1.0,1.0,313.0,933.0,1.0,1,1754.0,1
880,880,-0.6931855091277762,-0.7,1.0,0.0,256.0,505.0,0.0,0,359.0,1
881,881,0.5787263727312199,0.6,1.0,1.0,337.0,584.0,1.0,1,149.0,1
882,882,-0.10459988521520192,-0.1,0.0,1.0,354.0,599.0,1.0,0,2047.0,1
883,883,0.5964734153119587,0.6,0.0,0.0,306.0,548.0,0.0,1,236.0,1
884,884,-0.09092235960568518,-0.1,0.0,1.0,445.0,942.0,1.0,0,433.0,1
885,885,-0.12225903538252947,-0.1,0.0,1.0,388.0,685.0,1.0,0,1887.0,1
886,886,-0.703369389086608,-0.7,0.0,1.0,411.0,827.0,1.0,0,182.0,1
887,887,0.14213432647746427,0.1,0.0,0.0,329.0,781.0,0.0,1,1890.0,1
888,888,-0.2299926189785345,-0.2,0.0,1.0,450.0,713.0,1.0,0,307.0,1
889,889,0.05026964639665554,0.1,1.0,1.0,283.0,688.0,1.0,1,2029.0,1
890,890,0.25731162757307746,0.3,0.0,0.0,391.0,888.0,0.0,1,861.0,1
891,891,-0.40065498984622866,-0.4,0.0,1.0,409.0,603.0,1.0,0,778.0,1
892,892,-0.43130215516990594,-0.4,1.0,0.0,264.0,695.0,0.0,0,281.0,1
893,893,0.5201943824851488,0.5,0.0,0.0,293.0,637.0,0.0,1,320.0,1
894,894,0.04652341599270071,0.0,0.0,0.0,333.0,890.0,1.0,0,1777.0,0
895,895,0.09935230624261349,0.1,0.0,0.0,318.0,965.0,0.0,1,1717.0,1
896,896,-0.3672876946304853,-0.4,1.0,0.0,474.0,605.0,0.0,0,551.0,1
897,897,0.7400497846426032,0.7,0.0,0.0,384.0,621.0,0.0,1,175.0,1
898,898,0.7110448208716001,0.7,1.0,1.0,289.0,640.0,1.0,1,241.0,1
899,899,-0.007070510405081332,-0.0,0.0,1.0,421.0,738.0,0.0,1,1841.0,0
900,900,0.6743385872648179,0.7,0.0,0.0,484.0,977.0,0.0,1,149.0,1
901,901,0.8635043689812066,0.9,0.0,0.0,464.0,842.0,0.0,1,134.0,1
902,902,0.7280959565283519,0.7,0.0,0.0,322.0,908.0,0.0,1,380.0,1
903,903,-0.5558494805506466,-0.6,0.0,1.0,423.0,850.0,1.0,0,217.0,1
904,904,0.5244501236772646,0.5,0.0,0.0,269.0,508.0,0.0,1,293.0,1
905,905,0.20206228475075105,0.2,0.0,0.0,392.0,688.0,0.0,1,430.0,1
906,906,-0.3170883524375333,-0.3,0.0,1.0,363.0,927.0,1.0,0,740.0,1
907,907,0.6044832654659064,0.6,0.0,0.0,459.0,795.0,0.0,1,426.0,1
908,908,-0.6369980757487874,-0.6,1.0,0.0,431.0,601.0,0.0,0,178.0,1
909,909,0.8150828320206761,0.8,1.0,1.0,283.0,956.0,1.0,1,201.0,1
910,910,-0.45184893216043676,-0.5,1.0,0.0,325.0,659.0,0.0,0,386.0,1
911,911,0.5440628207939332,0.5,0.0,0.0,306.0,540.0,0.0,1,444.0,1
912,912,-0.3177630133703776,-0.3,1.0,0.0,490.0,739.0,0.0,0,641.0,1
913,913,0.4492157913639315,0.4,0.0,0.0,488.0,645.0,0.0,1,247.0,1
914,914,-0.3574491557160213,-0.4,1.0,0.0,261.0,725.0,0.0,0,294.0,1
915,915,-0.8011804674850153,-0.8,0.0,1.0,358.0,521.0,1.0,0,271.0,1
916,916,0.2892566969312679,0.3,1.0,1.0,390.0,528.0,1.0,1,362.0,1
917,917,-0.1796737368038236,-0.2,1.0,0.0,390.0,759.0,0.0,0,451.0,1
918,918,-0.09418266342621062,-0.1,0.0,1.0,438.0,794.0,1.0,0,888.0,1
919,919,-0.32518464353006904,-0.3,1.0,0.0,393.0,769.0,0.0,0,758.0,1
920,920,-0.7030582310818021,-0.7,0.0,1.0,491.0,856.0,1.0,0,303.0,1
921,921,0.31156870914750734,0.3,1.0,1.0,286.0,705.0,1.0,1,449.0,1
922,922,0.44104393040965373,0.4,0.0,0.0,471.0,805.0,0.0,1,384.0,1
923,923,0.10093399922574042,0.1,0.0,0.0,449.0,627.0,0.0,1,1534.0,1
924,924,-0.16462678577056533,-0.2,1.0,0.0,497.0,803.0,0.0,0,1060.0,1
925,925,0.5205407584103136,0.5,0.0,0.0,308.0,659.0,0.0,1,333.0,1
926,926,0.6244674904321182,0.6,1.0,1.0,485.0,852.0,1.0,1,173.0,1
927,927,-0.4539462441908666,-0.5,0.0,1.0,382.0,518.0,1.0,0,620.0,1
928,928,-0.1684585766428086,-0.2,1.0,0.0,334.0,994.0,0.0,0,1042.0,1
929,929,-0.6990257115409577,-0.7,0.0,1.0,474.0,596.0,1.0,0,250.0,1
930,930,-0.8134209667085162,-0.8,0.0,1.0,416.0,501.0,1.0,0,313.0,1
931,931,-0.6315528036394173,-0.6,0.0,1.0,391.0,825.0,1.0,0,724.0,1
932,932,0.8116793875433025,0.8,0.0,0.0,366.0,529.0,0.0,1,245.0,1
933,933,0.6422793969703776,0.6,1.0,1.0,352.0,505.0,1.0,1,303.0,1
934,934,0.3252380569489933,0.3,1.0,1.0,264.0,968.0,1.0,1,1358.0,1
935,935,0.13807123686978262,0.1,1.0,1.0,489.0,662.0,1.0,1,1849.0,1
936,936,-0.41856303032005354,-0.4,0.0,1.0,260.0,906.0,1.0,0,264.0,1
937,937,-0.8256086927223579,-0.8,1.0,0.0,334.0,795.0,0.0,0,261.0,1
938,938,-0.08310960231075915,-0.1,1.0,0.0,311.0,853.0,0.0,0,1836.0,1
939,939,0.8870053152459713,0.9,0.0,0.0,290.0,630.0,0.0,1,200.0,1
940,940,-0.482538697038048,-0.5,1.0,0.0,491.0,705.0,0.0,0,254.0,1
941,941,-0.3999433605463649,-0.4,1.0,0.0,405.0,754.0,0.0,0,211.0,1
942,942,0.4092246598562227,0.4,1.0,1.0,272.0,752.0,1.0,1,656.0,1
943,943,-0.8193826786078472,-0.8,1.0,0.0,258.0,780.0,0.0,0,242.0,1
944,944,0.2388319831251836,0.2,0.0,0.0,387.0,690.0,0.0,1,473.0,1
945,945,0.4794465624340044,0.5,0.0,0.0,338.0,826.0,0.0,1,426.0,1
946,946,0.694677312927794,0.7,0.0,0.0,277.0,629.0,0.0,1,224.0,1
947,947,0.5435945916557415,0.5,1.0,1.0,453.0,868.0,1.0,1,229.0,1
948,948,0.1741378579781342,0.2,0.0,0.0,304.0,603.0,0.0,1,1003.0,1
949,949,-0.5191676033780359,-0.5,0.0,1.0,483.0,884.0,1.0,0,523.0,1
950,950,0.4964311582025204,0.5,1.0,1.0,262.0,987.0,1.0,1,331.0,1
951,951,-0.5044881428305616,-0.5,1.0,0.0,270.0,842.0,0.0,0,328.0,1
952,952,0.8028207127293113,0.8,1.0,1.0,254.0,602.0,1.0,1,254.0,1
953,953,0.7122162865706237,0.7,0.0,0.0,472.0,607.0,0.0,1,241.0,1
954,954,-0.6171039389233477,-0.6,0.0,1.0,367.0,629.0,1.0,0,274.0,1
955,955,-0.8197439829144858,-0.8,0.0,1.0,254.0,758.0,1.0,0,168.0,1
956,956,0.260280207724391,0.3,1.0,1.0,357.0,698.0,1.0,1,435.0,1
957,957,-0.7812706379061197,-0.8,1.0,0.0,429.0,758.0,0.0,0,273.0,1
958,958,0.2026571480854974,0.2,0.0,0.0,278.0,689.0,0.0,1,763.0,1
959,959,-0.5989442711160275,-0.6,0.0,1.0,262.0,968.0,1.0,0,210.0,1
960,960,0.635109427540797,0.6,0.0,0.0,423.0,921.0,0.0,1,266.0,1
961,961,0.8553736880037778,0.9,0.0,0.0,369.0,832.0,0.0,1,159.0,1
962,962,0.6436513584068614,0.6,0.0,0.0,287.0,772.0,0.0,1,361.0,1
963,963,0.4597170290966187,0.5,0.0,0.0,262.0,527.0,0.0,1,291.0,1
964,964,0.4042628471461004,0.4,1.0,1.0,389.0,514.0,1.0,1,497.0,1
965,965,-0.6836915471147293,-0.7,1.0,0.0,444.0,607.0,0.0,0,319.0,1
966,966,0.1899195065192919,0.2,1.0,1.0,482.0,813.0,1.0,1,1665.0,1
967,967,-0.6233518168463736,-0.6,0.0,1.0,309.0,552.0,1.0,0,629.0,1
968,968,0.04720279611840106,0.0,1.0,1.0,304.0,783.0,1.0,1,1913.0,1
969,969,0.08626273188404276,0.1,1.0,1.0,305.0,799.0,1.0,1,236.0,1
970,970,-0.7214097788295444,-0.7,0.0,1.0,333.0,819.0,1.0,0,238.0,1
971,971,0.4110021061268413,0.4,1.0,1.0,436.0,544.0,1.0,1,540.0,1
972,972,-0.05847310999360722,-0.1,0.0,1.0,329.0,534.0,1.0,0,2137.0,1
973,973,-0.8494760231195888,-0.8,1.0,0.0,335.0,525.0,0.0,0,310.0,1
974,974,0.3499430416276722,0.3,0.0,0.0,484.0,997.0,0.0,1,459.0,1
975,975,0.41035368340894574,0.4,1.0,1.0,449.0,861.0,1.0,1,630.0,1
976,976,-0.0024673164660955482,-0.0,1.0,0.0,390.0,815.0,0.0,0,1795.0,1
977,977,-0.8267082708503378,-0.8,0.0,1.0,447.0,576.0,1.0,0,197.0,1
978,978,0.04403894925912388,0.0,1.0,1.0,328.0,661.0,1.0,1,1001.0,1
979,979,-0.07040741498626257,-0.1,0.0,1.0,264.0,919.0,1.0,0,1817.0,1
980,980,0.8794666873573197,0.9,0.0,0.0,346.0,790.0,0.0,1,264.0,1
981,981,-0.6451548076299258,-0.6,1.0,0.0,348.0,861.0,0.0,0,351.0,1
982,982,0.6330855168262076,0.6,1.0,1.0,318.0,794.0,1.0,1,248.0,1
983,983,-0.38126163876131014,-0.4,1.0,0.0,396.0,556.0,0.0,0,358.0,1
984,984,-0.328942452309408,-0.3,1.0,0.0,258.0,989.0,0.0,0,353.0,1
985,985,-0.2360495678595972,-0.2,0.0,1.0,368.0,708.0,1.0,0,544.0,1
986,986,0.27489966596730875,0.3,0.0,0.0,392.0,924.0,0.0,1,784.0,1
987,987,-0.2890314501832021,-0.3,0.0,1.0,468.0,804.0,1.0,0,218.0,1
988,988,-0.26644985969414225,-0.3,1.0,0.0,313.0,754.0,0.0,0,593.0,1
989,989,-0.8245025787338023,-0.8,0.0,1.0,371.0,635.0,1.0,0,234.0,1
990,990,-0.4421735625865121,-0.4,0.0,1.0,421.0,848.0,1.0,0,251.0,1
991,991,0.051167531777770336,0.1,1.0,1.0,353.0,673.0,1.0,1,1974.0,1
992,992,0.42268425350632877,0.4,0.0,0.0,388.0,716.0,0.0,1,246.0,1
993,993,0.7261893572705852,0.7,1.0,1.0,386.0,569.0,1.0,1,285.0,1
994,994,0.2499494409699493,0.2,1.0,1.0,291.0,576.0,1.0,1,523.0,1
995,995,0.6355370556540453,0.6,0.0,0.0,488.0,754.0,0.0,1,258.0,1
996,996,-0.5943540520023087,-0.6,0.0,1.0,343.0,520.0,1.0,0,267.0,1
997,997,-0.3652865606826766,-0.4,1.0,0.0,264.0,690.0,0.0,0,376.0,1
998,998,-0.07478471804809805,-0.1,1.0,0.0,339.0,710.0,0.0,0,1951.0,1
999,999,0.740240280540119,0.7,0.0,0.0,377.0,601.0,0.0,1,322.0,1
1000,1000,-0.7755421277636988,-0.8,1.0,0.0,445.0,622.0,0.0,0,263.0,1
1001,1001,0.3385532217007253,0.3,0.0,0.0,458.0,974.0,0.0,1,268.0,1
1002,1002,0.6439317590187613,0.6,0.0,0.0,439.0,565.0,0.0,1,496.0,1
1003,1003,-0.19128039887921278,-0.2,0.0,1.0,450.0,879.0,1.0,0,681.0,1
1004,1004,-0.38917368413732434,-0.4,0.0,1.0,411.0,607.0,1.0,0,172.0,1
1005,1005,-0.3597172398371554,-0.4,0.0,1.0,314.0,848.0,1.0,0,448.0,1
1006,1006,0.08847775994080198,0.1,1.0,1.0,272.0,611.0,1.0,1,2117.0,1
1007,1007,0.7753351384310169,0.8,0.0,0.0,332.0,658.0,0.0,1,140.0,1
1008,1008,0.4916896895396611,0.5,1.0,1.0,359.0,547.0,1.0,1,564.0,1
1009,1009,-0.8067652626161373,-0.8,0.0,1.0,367.0,987.0,1.0,0,116.0,1
1010,1010,-0.3515327881017245,-0.4,0.0,1.0,257.0,542.0,1.0,0,241.0,1
1011,1011,0.8204982390856087,0.8,0.0,0.0,466.0,655.0,0.0,1,279.0,1
1012,1012,0.6471616775712331,0.6,1.0,1.0,476.0,562.0,1.0,1,482.0,1
1013,1013,-0.7736065853153955,-0.8,0.0,1.0,307.0,775.0,1.0,0,128.0,1
1014,1014,0.7211800501234026,0.7,1.0,1.0,428.0,940.0,1.0,1,162.0,1
1015,1015,-0.4872930326018943,-0.5,1.0,0.0,494.0,951.0,0.0,0,235.0,1
1016,1016,-0.8297920765422186,-0.8,0.0,1.0,478.0,571.0,1.0,0,351.0,1
1017,1017,0.48963390451983047,0.5,0.0,0.0,418.0,558.0,0.0,1,614.0,1
1018,1018,0.13421816896430017,0.1,0.0,0.0,484.0,985.0,0.0,1,1191.0,1
1019,1019,-0.1495327232457021,-0.1,1.0,0.0,424.0,750.0,0.0,0,706.0,1
1020,1020,-0.7640800932547254,-0.8,0.0,1.0,492.0,876.0,1.0,0,192.0,1
1021,1021,-0.4890486912525936,-0.5,0.0,1.0,282.0,975.0,1.0,0,203.0,1
1022,1022,-0.3473512231184175,-0.3,1.0,0.0,443.0,553.0,0.0,0,624.0,1
1023,1023,0.7845059201805981,0.8,0.0,0.0,321.0,509.0,0.0,1,270.0,1
1024,1024,-0.8141011573956759,-0.8,0.0,1.0,398.0,605.0,1.0,0,637.0,1
1025,1025,0.41253070206562803,0.4,0.0,0.0,262.0,979.0,0.0,1,369.0,1
1026,1026,0.593973060796754,0.6,0.0,0.0,391.0,575.0,0.0,1,214.0,1
1027,1027,0.682504641770819,0.7,1.0,1.0,418.0,521.0,1.0,1,551.0,1
1028,1028,-0.509473462949561,-0.5,1.0,0.0,363.0,546.0,0.0,0,321.0,1
1029,1029,-0.4942904847001682,-0.5,0.0,1.0,319.0,546.0,1.0,0,595.0,1
1030,1030,-0.25569405488360375,-0.3,1.0,0.0,271.0,949.0,0.0,0,290.0,1
1031,1031,0.2516837178368695,0.3,0.0,0.0,262.0,583.0,0.0,1,585.0,1
1032,1032,0.6603975835728576,0.7,0.0,0.0,253.0,642.0,0.0,1,205.0,1
1033,1033,0.25842634811862164,0.3,0.0,0.0,303.0,807.0,0.0,1,630.0,1
1034,1034,0.8803461163838763,0.9,0.0,0.0,288.0,701.0,0.0,1,131.0,1
1035,1035,0.6358705490065742,0.6,1.0,1.0,447.0,832.0,1.0,1,251.0,1
1036,1036,-0.6107730395351922,-0.6,0.0,1.0,331.0,841.0,1.0,0,408.0,1
1037,1037,0.7718739099889868,0.8,1.0,1.0,284.0,748.0,1.0,1,388.0,1
1038,1038,0.13229732502712188,0.1,1.0,1.0,266.0,907.0,1.0,1,1217.0,1
1039,1039,0.7948424942623801,0.8,1.0,1.0,479.0,758.0,1.0,1,123.0,1
1040,1040,0.8017877773645959,0.8,0.0,0.0,334.0,953.0,0.0,1,243.0,1
1041,1041,0.7580643309011209,0.8,1.0,1.0,333.0,622.0,1.0,1,425.0,1
1042,1042,0.3791289462638866,0.4,0.0,0.0,348.0,551.0,0.0,1,761.0,1
1043,1043,-0.11959388643329583,-0.1,1.0,0.0,270.0,867.0,0.0,0,953.0,1
1044,1044,0.11126953678278062,0.1,1.0,1.0,474.0,595.0,1.0,1,791.0,1
1045,1045,0.5617697727640764,0.6,1.0,1.0,341.0,871.0,1.0,1,348.0,1
1046,1046,0.5600903001118916,0.6,1.0,1.0,496.0,754.0,1.0,1,230.0,1
1047,1047,-0.7572562218166368,-0.8,1.0,0.0,384.0,551.0,0.0,0,285.0,1
1048,1048,-0.4566785442667047,-0.5,1.0,0.0,352.0,638.0,0.0,0,530.0,1
1049,1049,0.4897840499547498,0.5,1.0,1.0,364.0,850.0,1.0,1,256.0,1
1050,1050,0.22819705064595708,0.2,1.0,1.0,335.0,774.0,1.0,1,1841.0,1
1051,1051,0.38887170933622317,0.4,1.0,1.0,473.0,931.0,1.0,1,236.0,1
1052,1052,0.7649172689727771,0.8,1.0,1.0,397.0,852.0,1.0,1,151.0,1
1053,1053,-0.12212188538848878,-0.1,1.0,0.0,291.0,659.0,0.0,0,1270.0,1
1054,1054,0.8112965333808183,0.8,1.0,1.0,441.0,673.0,1.0,1,236.0,1
1055,1055,0.4343446391122431,0.4,0.0,0.0,384.0,659.0,0.0,1,357.0,1
1056,1056,-0.4280976889089239,-0.4,0.0,1.0,349.0,772.0,1.0,0,249.0,1
1057,1057,-0.6218700419083061,-0.6,1.0,0.0,416.0,740.0,0.0,0,174.0,1
1058,1058,0.4926977862401224,0.5,0.0,0.0,424.0,808.0,0.0,1,278.0,1
1059,1059,0.43053580623727783,0.4,0.0,0.0,475.0,857.0,0.0,1,278.0,1
1060,1060,0.07929051013674915,0.1,0.0,0.0,419.0,888.0,0.0,1,1693.0,1
1061,1061,-0.10944146392063503,-0.1,0.0,1.0,460.0,605.0,1.0,0,1935.0,1
1062,1062,0.10244577895048412,0.1,1.0,1.0,355.0,607.0,1.0,1,1348.0,1
1063,1063,0.8336675470924629,0.8,1.0,1.0,315.0,868.0,1.0,1,127.0,1
1064,1064,-0.5768909607831456,-0.6,1.0,0.0,485.0,975.0,0.0,0,210.0,1
1065,1065,-0.46102021861031933,-0.5,0.0,1.0,473.0,758.0,1.0,0,199.0,1
1066,1066,0.7829214682436966,0.8,1.0,1.0,335.0,619.0,1.0,1,136.0,1
1067,1067,0.8180593266707915,0.8,0.0,0.0,363.0,584.0,0.0,1,253.0,1
1068,1068,-0.12748902516183847,-0.1,1.0,0.0,250.0,739.0,0.0,0,1991.0,1
1069,1069,0.454001994830337,0.5,0.0,0.0,292.0,879.0,0.0,1,239.0,1
1070,1070,0.2939511458806833,0.3,1.0,1.0,291.0,739.0,1.0,1,1090.0,1
1071,1071,0.7991405360974547,0.8,1.0,1.0,384.0,506.0,1.0,1,340.0,1
1072,1072,0.8699079487466189,0.9,1.0,1.0,484.0,848.0,1.0,1,208.0,1
1073,1073,-0.7284538554457977,-0.7,1.0,0.0,497.0,679.0,0.0,0,294.0,1
1074,1074,0.46922275239018163,0.5,0.0,0.0,441.0,519.0,0.0,1,360.0,1
1075,1075,-0.8280945618461829,-0.8,0.0,1.0,290.0,529.0,1.0,0,291.0,1
1076,1076,0.7181085123622778,0.7,1.0,1.0,476.0,896.0,1.0,1,88.0,1
1077,1077,0.153858924056966,0.2,1.0,1.0,321.0,537.0,1.0,1,2142.0,1
1078,1078,-0.1217056226028852,-0.1,0.0,1.0,410.0,688.0,1.0,0,1902.0,1
1079,1079,-0.4021881380944406,-0.4,0.0,1.0,351.0,985.0,1.0,0,514.0,1
1080,1080,-0.15181397975244892,-0.2,1.0,0.0,394.0,951.0,0.0,0,1105.0,1
1081,1081,-0.2319102378248059,-0.2,1.0,0.0,323.0,699.0,0.0,0,678.0,1
1082,1082,-0.1280998041958148,-0.1,1.0,0.0,291.0,977.0,0.0,0,1172.0,1
1083,1083,-0.1242143413223038,-0.1,0.0,1.0,374.0,893.0,1.0,0,1733.0,1
1084,1084,-0.0027878652812665106,-0.0,1.0,0.0,253.0,562.0,1.0,1,2185.0,0
1085,1085,0.6010743051127457,0.6,0.0,0.0,457.0,747.0,0.0,1,646.0,1
1086,1086,-0.7942971123844096,-0.8,0.0,1.0,296.0,776.0,1.0,0,128.0,1
1087,1087,0.31627103276416946,0.3,1.0,1.0,339.0,885.0,1.0,1,296.0,1
1088,1088,-0.526526266939149,-0.5,0.0,1.0,369.0,778.0,1.0,0,193.0,1
1089,1089,-0.6058441782125701,-0.6,1.0,0.0,387.0,654.0,0.0,0,249.0,1
1090,1090,0.8000923401675241,0.8,0.0,0.0,337.0,539.0,0.0,1,334.0,1
1091,1091,0.23546572246299913,0.2,0.0,0.0,270.0,862.0,0.0,1,408.0,1
1092,1092,-0.7090663242891639,-0.7,1.0,0.0,448.0,928.0,0.0,0,374.0,1
1093,1093,0.6196959080316796,0.6,0.0,0.0,414.0,670.0,0.0,1,216.0,1
1094,1094,0.5747372866847863,0.6,0.0,0.0,465.0,804.0,0.0,1,221.0,1
1095,1095,0.18768565287158034,0.2,0.0,0.0,258.0,539.0,0.0,1,343.0,1
1096,1096,-0.6377319241332309,-0.6,1.0,0.0,331.0,846.0,0.0,0,283.0,1
1097,1097,0.43420834312636203,0.4,1.0,1.0,353.0,581.0,1.0,1,886.0,1
1098,1098,-0.08626590459068473,-0.1,0.0,1.0,340.0,682.0,1.0,0,1978.0,1
1099,1099,-0.42970052688838783,-0.4,0.0,1.0,269.0,716.0,1.0,0,2015.0,1
1100,1100,0.0038070914161276725,0.0,1.0,1.0,393.0,523.0,0.0,0,2084.0,0
1101,1101,0.18944762848140273,0.2,0.0,0.0,281.0,878.0,0.0,1,421.0,1
1102,1102,0.562356963292921,0.6,1.0,1.0,330.0,625.0,1.0,1,275.0,1
1103,1103,-0.396820215552247,-0.4,1.0,0.0,255.0,626.0,0.0,0,479.0,1
1104,1104,0.7373705641435663,0.7,0.0,0.0,255.0,967.0,0.0,1,108.0,1
1105,1105,0.3925455923709099,0.4,1.0,1.0,324.0,956.0,1.0,1,310.0,1
1106,1106,0.7090632647825555,0.7,1.0,1.0,483.0,600.0,1.0,1,347.0,1
1107,1107,-0.8921702204398159,-0.9,0.0,1.0,468.0,737.0,1.0,0,215.0,1
1108,1108,0.6571768324701105,0.7,0.0,0.0,253.0,719.0,0.0,1,578.0,1
1109,1109,0.882374918507297,0.9,0.0,0.0,442.0,738.0,0.0,1,340.0,1
1110,1110,-0.023690788667343976,-0.0,1.0,0.0,461.0,603.0,0.0,0,1936.0,1
1111,1111,-0.7032804956253398,-0.7,0.0,1.0,345.0,993.0,1.0,0,132.0,1
1112,1112,0.5153278826825595,0.5,1.0,1.0,377.0,722.0,1.0,1,101.0,1
1113,1113,-0.06909905610771172,-0.1,0.0,1.0,481.0,669.0,1.0,0,1850.0,1
1114,1114,0.10356745596853056,0.1,0.0,0.0,455.0,840.0,0.0,1,1605.0,1
1115,1115,-0.6393652597016921,-0.6,0.0,1.0,440.0,657.0,1.0,0,243.0,1
1116,1116,-0.3909512932588195,-0.4,0.0,1.0,306.0,767.0,1.0,0,367.0,1
1117,1117,0.6038333080349015,0.6,0.0,0.0,360.0,589.0,0.0,1,271.0,1
1118,1118,0.6348802854766188,0.6,0.0,0.0,370.0,929.0,0.0,1,151.0,1
1119,1119,0.48374080160464616,0.5,1.0,1.0,491.0,604.0,1.0,1,405.0,1
1120,1120,-0.4581182984150645,-0.5,1.0,0.0,422.0,771.0,0.0,0,277.0,1
1121,1121,0.6648704102600479,0.7,0.0,0.0,274.0,656.0,0.0,1,390.0,1
1122,1122,0.6331000655987423,0.6,1.0,1.0,293.0,860.0,1.0,1,97.0,1
1123,1123,0.35388879786739824,0.4,0.0,0.0,467.0,874.0,0.0,1,329.0,1
1124,1124,-0.17104551651765454,-0.2,1.0,0.0,335.0,568.0,0.0,0,467.0,1
1125,1125,0.5158462054434935,0.5,1.0,1.0,331.0,707.0,1.0,1,332.0,1
1126,1126,0.587900130517259,0.6,0.0,0.0,350.0,913.0,0.0,1,267.0,1
1127,1127,-0.22939391201047699,-0.2,0.0,1.0,439.0,615.0,1.0,0,886.0,1
1128,1128,-0.7996480704557365,-0.8,1.0,0.0,412.0,622.0,0.0,0,316.0,1
1129,1129,-0.750679579555936,-0.8,0.0,1.0,448.0,544.0,1.0,0,318.0,1
1130,1130,0.2453989210697246,0.2,1.0,1.0,370.0,870.0,1.0,1,1260.0,1
1131,1131,0.03541174352658005,0.0,1.0,1.0,497.0,531.0,1.0,1,1972.0,1
1132,1132,-0.7990802181250436,-0.8,0.0,1.0,382.0,745.0,1.0,0,103.0,1
1133,1133,0.5873156994454803,0.6,1.0,1.0,337.0,965.0,1.0,1,258.0,1
1134,1134,-0.4986281856420264,-0.5,1.0,0.0,465.0,988.0,0.0,0,147.0,1
1135,1135,-0.52138060060126,-0.5,0.0,1.0,445.0,665.0,1.0,0,1890.0,1
1136,1136,0.02695070584445114,0.0,0.0,0.0,369.0,630.0,0.0,1,2001.0,1
1137,1137,0.11040534224959864,0.1,1.0,1.0,386.0,514.0,1.0,1,2100.0,1
1138,1138,0.7935312618048881,0.8,0.0,0.0,477.0,677.0,0.0,1,356.0,1
1139,1139,0.7070416518838235,0.7,1.0,1.0,267.0,693.0,1.0,1,280.0,1
1140,1140,-0.7540281899022876,-0.8,0.0,1.0,474.0,765.0,1.0,0,251.0,1
1141,1141,-0.5038847254214724,-0.5,1.0,0.0,377.0,785.0,0.0,0,228.0,1
1142,1142,0.19166718946389716,0.2,0.0,0.0,291.0,752.0,0.0,1,477.0,1
1143,1143,-0.2663553177868382,-0.3,1.0,0.0,315.0,776.0,0.0,0,649.0,1
1144,1144,-0.17647542209884914,-0.2,1.0,0.0,273.0,668.0,0.0,0,419.0,1
1145,1145,-0.53470891767861,-0.5,1.0,0.0,468.0,755.0,0.0,0,217.0,1
1146,1146,-0.48894271276625334,-0.5,0.0,1.0,313.0,593.0,1.0,0,1414.0,1
1147,1147,-0.11372665689001826,-0.1,0.0,1.0,338.0,843.0,1.0,0,1239.0,1
1148,1148,-0.45418306376279427,-0.5,0.0,1.0,384.0,537.0,1.0,0,349.0,1
1149,1149,0.8200320600084866,0.8,1.0,1.0,419.0,578.0,1.0,1,223.0,1
1150,1150,-0.8663364162614744,-0.9,0.0,1.0,394.0,919.0,1.0,0,217.0,1
1151,1151,0.47244176925230985,0.5,0.0,0.0,436.0,616.0,0.0,1,438.0,1
1152,1152,-0.551904381655882,-0.6,1.0,0.0,361.0,999.0,0.0,0,170.0,1
1153,1153,0.6395278595994364,0.6,0.0,0.0,454.0,743.0,0.0,1,383.0,1
1154,1154,-0.40904350804122236,-0.4,1.0,0.0,428.0,795.0,0.0,0,187.0,1
1155,1155,-0.39992589085904684,-0.4,0.0,1.0,308.0,865.0,1.0,0,317.0,1
1156,1156,-0.6651760749559379,-0.7,1.0,0.0,350.0,773.0,0.0,0,207.0,1
1157,1157,-0.22433563652574595,-0.2,1.0,0.0,350.0,924.0,0.0,0,316.0,1
1158,1158,-0.7411077213498409,-0.7,1.0,0.0,439.0,715.0,0.0,0,326.0,1
1159,1159,-0.8946586896794467,-0.9,0.0,1.0,462.0,583.0,1.0,0,525.0,1
1160,1160,-0.6296997634442385,-0.6,1.0,0.0,332.0,953.0,0.0,0,195.0,1
1161,1161,-0.44476498025138816,-0.4,1.0,0.0,488.0,857.0,0.0,0,275.0,1
1162,1162,0.06487467383494261,0.1,1.0,1.0,471.0,863.0,1.0,1,446.0,1
1163,1163,-0.24608013749176882,-0.2,1.0,0.0,271.0,950.0,0.0,0,609.0,1
1164,1164,0.7934988271905344,0.8,1.0,1.0,498.0,504.0,1.0,1,228.0,1
1165,1165,0.6433625052915725,0.6,1.0,1.0,391.0,724.0,1.0,1,255.0,1
1166,1166,-0.38832588448359817,-0.4,0.0,1.0,497.0,834.0,1.0,0,419.0,1
1167,1167,0.4820851728316241,0.5,0.0,0.0,327.0,636.0,0.0,1,277.0,1
1168,1168,-0.019323329521459653,-0.0,0.0,1.0,418.0,647.0,1.0,0,1935.0,1
1169,1169,0.8339109164220192,0.8,1.0,1.0,350.0,908.0,1.0,1,122.0,1
1170,1170,-0.8314837421820196,-0.8,0.0,1.0,412.0,991.0,1.0,0,167.0,1
1171,1171,-0.5371687006367567,-0.5,0.0,1.0,338.0,635.0,1.0,0,417.0,1
1172,1172,0.40321388736676245,0.4,1.0,1.0,258.0,724.0,1.0,1,158.0,1
1173,1173,-0.8695792219111452,-0.9,1.0,0.0,254.0,696.0,0.0,0,220.0,1
1174,1174,-0.0837782502526283,-0.1,0.0,1.0,268.0,651.0,1.0,0,2081.0,1
1175,1175,0.2309553150161453,0.2,0.0,0.0,335.0,980.0,0.0,1,855.0,1
1176,1176,-0.4603152503844468,-0.5,1.0,0.0,384.0,662.0,0.0,0,334.0,1
1177,1177,0.4313268611199027,0.4,1.0,1.0,470.0,626.0,1.0,1,434.0,1
1178,1178,-0.3263212890100926,-0.3,0.0,1.0,274.0,917.0,1.0,0,1539.0,1
1179,1179,-0.4733480127624552,-0.5,1.0,0.0,459.0,827.0,0.0,0,304.0,1
1180,1180,0.48753971462194545,0.5,0.0,0.0,415.0,703.0,0.0,1,272.0,1
1181,1181,0.7164501821904227,0.7,1.0,1.0,419.0,671.0,1.0,1,200.0,1
1182,1182,0.023347700728736154,0.0,0.0,0.0,319.0,743.0,0.0,1,868.0,1
1183,1183,-0.8680054779568809,-0.9,1.0,0.0,253.0,852.0,0.0,0,155.0,1
1184,1184,0.8974711896713258,0.9,0.0,0.0,330.0,645.0,0.0,1,315.0,1
1185,1185,0.8001779204729286,0.8,0.0,0.0,352.0,816.0,0.0,1,232.0,1
1186,1186,-0.8993602628311812,-0.9,0.0,1.0,453.0,517.0,1.0,0,350.0,1
1187,1187,0.5836754323411758,0.6,1.0,1.0,361.0,610.0,1.0,1,329.0,1
1188,1188,-0.13689333285820837,-0.1,1.0,0.0,407.0,957.0,0.0,0,1636.0,1
1189,1189,-0.46574661178292615,-0.5,0.0,1.0,487.0,742.0,1.0,0,181.0,1
1190,1190,0.15088712158057793,0.2,1.0,1.0,468.0,644.0,1.0,1,568.0,1
1191,1191,-0.35239327391558783,-0.4,0.0,1.0,395.0,565.0,1.0,0,560.0,1
1192,1192,-0.2456018318909352,-0.2,0.0,1.0,333.0,965.0,1.0,0,212.0,1
1193,1193,0.30192221960257004,0.3,0.0,0.0,329.0,707.0,0.0,1,484.0,1
1194,1194,-0.5583118275327754,-0.6,0.0,1.0,350.0,734.0,1.0,0,446.0,1
1195,1195,-0.5392744964446017,-0.5,0.0,1.0,317.0,801.0,1.0,0,292.0,1
1196,1196,0.8578016646512764,0.9,0.0,0.0,280.0,737.0,0.0,1,133.0,1
1197,1197,-0.36600394081811827,-0.4,0.0,1.0,314.0,925.0,1.0,0,201.0,1
1198,1198,-0.22685670510295264,-0.2,1.0,0.0,387.0,944.0,0.0,0,249.0,1
1199,1199,0.3083111933325263,0.3,0.0,0.0,288.0,746.0,0.0,1,776.0,1
1200,1200,-0.7346620032779945,-0.7,1.0,0.0,458.0,761.0,0.0,0,151.0,1
1201,1201,-0.3248347693001228,-0.3,1.0,0.0,311.0,981.0,0.0,0,568.0,1
1202,1202,0.3599132668493471,0.4,0.0,0.0,258.0,721.0,0.0,1,121.0,1
1203,1203,-0.09307076070484677,-0.1,0.0,1.0,370.0,586.0,1.0,0,2044.0,1
1204,1204,-0.551953131416673,-0.6,0.0,1.0,344.0,900.0,1.0,0,726.0,1
1205,1205,0.21621097840777115,0.2,0.0,0.0,267.0,502.0,0.0,1,501.0,1
1206,1206,-0.7743040699800431,-0.8,0.0,1.0,329.0,936.0,1.0,0,195.0,1
1207,1207,-0.11714012773297378,-0.1,1.0,0.0,404.0,701.0,0.0,0,855.0,1
1208,1208,-0.2949908029568816,-0.3,0.0,1.0,466.0,547.0,1.0,0,377.0,1
1209,1209,0.5970486156332114,0.6,1.0,1.0,478.0,711.0,1.0,1,301.0,1
1210,1210,-0.36705715378326154,-0.4,0.0,1.0,434.0,708.0,1.0,0,278.0,1
1211,1211,-0.15986413592309534,-0.2,0.0,1.0,395.0,820.0,1.0,0,1275.0,1
1212,1212,-0.6796433464670765,-0.7,0.0,1.0,336.0,587.0,1.0,0,667.0,1
1213,1213,-0.38859470666044016,-0.4,0.0,1.0,295.0,972.0,1.0,0,143.0,1
1214,1214,-0.18762301857069075,-0.2,1.0,0.0,427.0,601.0,0.0,0,522.0,1
1215,1215,0.46882324044538637,0.5,0.0,0.0,364.0,621.0,0.0,1,365.0,1
1216,1216,0.5811972445328718,0.6,1.0,1.0,414.0,986.0,1.0,1,1600.0,1
1217,1217,0.5920707246974662,0.6,0.0,0.0,313.0,534.0,0.0,1,333.0,1
1218,1218,0.7288063938918555,0.7,1.0,1.0,437.0,765.0,1.0,1,208.0,1
1219,1219,-0.7013268820420766,-0.7,0.0,1.0,400.0,954.0,1.0,0,206.0,1
1220,1220,-0.4631357781352827,-0.5,1.0,0.0,410.0,805.0,0.0,0,255.0,1
1221,1221,0.5729119199011402,0.6,1.0,1.0,445.0,825.0,1.0,1,400.0,1
1222,1222,-0.3948201380901615,-0.4,1.0,0.0,475.0,631.0,0.0,0,504.0,1
1223,1223,-0.36318883227634347,-0.4,1.0,0.0,250.0,699.0,0.0,0,321.0,1
1224,1224,0.17953616619576274,0.2,0.0,0.0,497.0,752.0,0.0,1,501.0,1
1225,1225,-0.14962759849130858,-0.1,0.0,1.0,314.0,993.0,1.0,0,643.0,1
1226,1226,-0.7172275310736349,-0.7,1.0,0.0,348.0,551.0,0.0,0,341.0,1
1227,1227,0.8548649127600926,0.9,0.0,0.0,291.0,599.0,0.0,1,170.0,1
1228,1228,0.8643841310635686,0.9,1.0,1.0,266.0,644.0,1.0,1,250.0,1
1229,1229,0.23499398657846504,0.2,0.0,0.0,340.0,942.0,0.0,1,578.0,1
1230,1230,-0.29958997320379077,-0.3,1.0,0.0,392.0,643.0,0.0,0,335.0,1
1231,1231,-0.7592010627708787,-0.8,1.0,0.0,310.0,535.0,0.0,0,185.0,1
1232,1232,-0.6325489258799906,-0.6,0.0,1.0,254.0,878.0,1.0,0,208.0,1
1233,1233,-0.3610333975185104,-0.4,1.0,0.0,367.0,625.0,0.0,0,648.0,1
1234,1234,-0.16053599587489709,-0.2,0.0,1.0,321.0,635.0,1.0,0,594.0,1
1235,1235,0.4955303757652739,0.5,1.0,1.0,359.0,742.0,1.0,1,179.0,1
1236,1236,0.5119952014098147,0.5,0.0,0.0,262.0,505.0,0.0,1,573.0,1
1237,1237,0.7602559742581735,0.8,1.0,1.0,372.0,653.0,1.0,1,215.0,1
1238,1238,0.7616306165643546,0.8,1.0,1.0,260.0,963.0,1.0,1,147.0,1
1239,1239,0.2755082411767217,0.3,0.0,0.0,498.0,881.0,0.0,1,481.0,1
1240,1240,-0.8974899802634849,-0.9,0.0,1.0,361.0,977.0,1.0,0,132.0,1
1241,1241,-0.3602019567870316,-0.4,1.0,0.0,494.0,687.0,0.0,0,239.0,1
1242,1242,-0.4132334216011076,-0.4,0.0,1.0,333.0,628.0,1.0,0,459.0,1
1243,1243,0.4619387704014598,0.5,0.0,0.0,480.0,568.0,0.0,1,302.0,1
1244,1244,0.08070047693841831,0.1,1.0,1.0,288.0,612.0,1.0,1,2100.0,1
1245,1245,0.48013461000268387,0.5,1.0,1.0,250.0,541.0,1.0,1,529.0,1
1246,1246,0.4996208996603567,0.5,0.0,0.0,300.0,754.0,0.0,1,206.0,1
1247,1247,-0.6058841080691515,-0.6,0.0,1.0,295.0,587.0,1.0,0,378.0,1
1248,1248,0.8255481034274722,0.8,1.0,1.0,412.0,953.0,1.0,1,165.0,1
1249,1249,-0.15232005432269147,-0.2,1.0,0.0,364.0,834.0,0.0,0,1602.0,1
1250,1250,0.2884838255684906,0.3,1.0,1.0,368.0,828.0,1.0,1,474.0,1
1251,1251,-0.5373599685760226,-0.5,0.0,1.0,257.0,781.0,1.0,0,242.0,1
1252,1252,0.012152539388867623,0.0,0.0,0.0,473.0,670.0,0.0,1,1857.0,1
1253,1253,0.290962803609771,0.3,1.0,1.0,344.0,617.0,1.0,1,279.0,1
1254,1254,0.13507603461483086,0.1,0.0,0.0,350.0,729.0,0.0,1,1261.0,1
1255,1255,-0.5139925952264892,-0.5,0.0,1.0,295.0,623.0,1.0,0,1242.0,1
1256,1256,-0.16383860202493827,-0.2,1.0,0.0,259.0,993.0,0.0,0,1748.0,1
1257,1257,0.1532375991841145,0.2,1.0,1.0,443.0,595.0,1.0,1,1372.0,1
1258,1258,0.3511604225376931,0.4,0.0,0.0,412.0,710.0,0.0,1,428.0,1
1259,1259,-0.4705269889763498,-0.5,0.0,1.0,261.0,678.0,1.0,0,561.0,1
1260,1260,-0.4840188263869503,-0.5,0.0,1.0,304.0,792.0,1.0,0,444.0,1
1261,1261,0.09713689988658691,0.1,0.0,0.0,271.0,651.0,0.0,1,928.0,1
1262,1262,-0.35727758815873834,-0.4,0.0,1.0,488.0,760.0,1.0,0,452.0,1
1263,1263,0.7653317107433047,0.8,0.0,0.0,360.0,933.0,0.0,1,167.0,1
1264,1264,0.4461598754615773,0.4,0.0,0.0,369.0,998.0,0.0,1,633.0,1
1265,1265,-0.4584566216745777,-0.5,1.0,0.0,377.0,680.0,0.0,0,173.0,1
1266,1266,-0.7338397259918468,-0.7,1.0,0.0,350.0,890.0,0.0,0,160.0,1
1267,1267,0.19580235130381485,0.2,1.0,1.0,457.0,772.0,1.0,1,251.0,1
1268,1268,0.6473092143243079,0.6,0.0,0.0,355.0,581.0,0.0,1,214.0,1
1269,1269,0.2559257802037317,0.3,0.0,0.0,376.0,724.0,0.0,1,230.0,1
1270,1270,-0.013859714840543269,-0.0,0.0,1.0,332.0,531.0,1.0,0,2137.0,1
1271,1271,-0.5585552701663065,-0.6,1.0,0.0,481.0,917.0,0.0,0,362.0,1
1272,1272,0.1893922620898888,0.2,1.0,1.0,299.0,908.0,1.0,1,593.0,1
1273,1273,0.40122792007775654,0.4,1.0,1.0,296.0,561.0,1.0,1,303.0,1
1274,1274,0.34150502820865947,0.3,1.0,1.0,484.0,594.0,1.0,1,582.0,1
1275,1275,0.7711722823024113,0.8,1.0,1.0,351.0,676.0,1.0,1,233.0,1
1276,1276,0.7841428838822538,0.8,1.0,1.0,445.0,781.0,1.0,1,154.0,1
1277,1277,0.7895505538471829,0.8,0.0,0.0,471.0,816.0,0.0,1,273.0,1
1278,1278,-0.5222110484549212,-0.5,0.0,1.0,302.0,812.0,1.0,0,86.0,1
1279,1279,-0.6625245055365103,-0.7,1.0,0.0,382.0,546.0,0.0,0,172.0,1
1280,1280,0.4937889228745723,0.5,1.0,1.0,362.0,674.0,1.0,1,274.0,1
1281,1281,-0.297073371733134,-0.3,0.0,1.0,269.0,681.0,1.0,0,500.0,1
1282,1282,-0.33459186659698015,-0.3,1.0,0.0,408.0,936.0,0.0,0,276.0,1
1283,1283,0.7850055819684078,0.8,1.0,1.0,460.0,570.0,1.0,1,240.0,1
1284,1284,-0.21085762583147416,-0.2,0.0,1.0,381.0,700.0,1.0,0,929.0,1
1285,1285,0.2781519639676163,0.3,1.0,1.0,437.0,554.0,1.0,1,229.0,1
1286,1286,-0.7383320915989036,-0.7,0.0,1.0,338.0,957.0,1.0,0,175.0,1
1287,1287,-0.0612868601682347,-0.1,0.0,1.0,266.0,955.0,1.0,0,1779.0,1
1288,1288,0.6849230390727247,0.7,1.0,1.0,432.0,703.0,1.0,1,195.0,1
1289,1289,0.07880775699290021,0.1,0.0,0.0,292.0,887.0,0.0,1,621.0,1
1290,1290,-0.19172309967163015,-0.2,0.0,1.0,463.0,750.0,1.0,0,1047.0,1
1291,1291,0.008919874787165605,0.0,1.0,1.0,257.0,950.0,0.0,0,1093.0,0
1292,1292,-0.45424480536172596,-0.5,1.0,0.0,382.0,804.0,0.0,0,244.0,1
1293,1293,-0.8292428820879858,-0.8,0.0,1.0,415.0,687.0,1.0,0,188.0,1
1294,1294,-0.21411458936009775,-0.2,0.0,1.0,304.0,716.0,1.0,0,280.0,1
1295,1295,-0.7840512275214943,-0.8,1.0,0.0,390.0,937.0,0.0,0,183.0,1
1296,1296,0.7867426286400291,0.8,1.0,1.0,447.0,854.0,1.0,1,269.0,1
1297,1297,-0.5846835538724275,-0.6,1.0,0.0,369.0,865.0,0.0,0,186.0,1
1298,1298,-0.8217180012750938,-0.8,0.0,1.0,335.0,528.0,1.0,0,397.0,1
1299,1299,-0.7448584116026706,-0.7,0.0,1.0,293.0,543.0,1.0,0,264.0,1
1300,1300,0.7873571336453503,0.8,1.0,1.0,381.0,982.0,1.0,1,227.0,1
1301,1301,-0.48606264176118585,-0.5,1.0,0.0,273.0,734.0,0.0,0,293.0,1
1302,1302,0.21306577077278643,0.2,0.0,0.0,366.0,735.0,0.0,1,459.0,1
1303,1303,0.8764458581168589,0.9,1.0,1.0,272.0,967.0,1.0,1,111.0,1
1304,1304,0.3379456444818215,0.3,0.0,0.0,353.0,680.0,0.0,1,527.0,1
1305,1305,0.7674242772001397,0.8,0.0,0.0,406.0,976.0,0.0,1,168.0,1
1306,1306,-0.06392982920873502,-0.1,1.0,0.0,350.0,804.0,0.0,0,1846.0,1
1307,1307,0.17501634021608903,0.2,0.0,0.0,414.0,515.0,0.0,1,1031.0,1
1308,1308,-0.8517769566871995,-0.9,1.0,0.0,425.0,707.0,0.0,0,208.0,1
1309,1309,0.14562531767679554,0.1,0.0,0.0,495.0,706.0,0.0,1,529.0,1
1310,1310,-0.6294709203997242,-0.6,1.0,0.0,348.0,933.0,0.0,0,179.0,1
1311,1311,-0.1922343966105905,-0.2,0.0,1.0,355.0,949.0,1.0,0,256.0,1
1312,1312,-0.7381019933760335,-0.7,0.0,1.0,397.0,870.0,1.0,0,433.0,1
1313,1313,0.4897254752120118,0.5,0.0,0.0,476.0,545.0,0.0,1,599.0,1
1314,1314,-0.5677041057950643,-0.6,0.0,1.0,356.0,559.0,1.0,0,1905.0,1
1315,1315,-0.3339243423701054,-0.3,1.0,0.0,496.0,683.0,0.0,0,231.0,1
1316,1316,0.116540453152152,0.1,0.0,0.0,455.0,510.0,0.0,1,1525.0,1
1317,1317,0.5070936273229952,0.5,0.0,0.0,369.0,901.0,0.0,1,240.0,1
1318,1318,-0.2644598784056368,-0.3,1.0,0.0,389.0,872.0,0.0,0,219.0,1
1319,1319,0.6368806081005586,0.6,0.0,0.0,361.0,809.0,0.0,1,330.0,1
1320,1320,-0.6248590250903108,-0.6,1.0,0.0,257.0,975.0,0.0,0,228.0,1
1321,1321,0.056617929498948616,0.1,0.0,0.0,428.0,868.0,0.0,1,1704.0,1
1322,1322,-0.2273799829134041,-0.2,0.0,1.0,322.0,851.0,1.0,0,527.0,1
1323,1323,-0.3052666657598171,-0.3,0.0,1.0,326.0,770.0,1.0,0,894.0,1
1324,1324,-0.49130487792947736,-0.5,0.0,1.0,434.0,681.0,1.0,0,395.0,1
1325,1325,-0.4845883058411988,-0.5,1.0,0.0,443.0,797.0,0.0,0,380.0,1
1326,1326,-0.8094531369834735,-0.8,0.0,1.0,492.0,796.0,1.0,0,392.0,1
1327,1327,-0.8775846972323799,-0.9,1.0,0.0,359.0,502.0,0.0,0,369.0,1
1328,1328,-0.7361766569872316,-0.7,1.0,0.0,440.0,925.0,0.0,0,215.0,1
1329,1329,0.156104435437583,0.2,1.0,1.0,265.0,758.0,1.0,1,1977.0,1
1330,1330,0.27927458588055687,0.3,0.0,0.0,320.0,632.0,0.0,1,858.0,1
1331,1331,-0.2788394345671936,-0.3,0.0,1.0,325.0,936.0,1.0,0,389.0,1
1332,1332,-0.6142812793291204,-0.6,0.0,1.0,380.0,570.0,1.0,0,540.0,1
1333,1333,-0.27460900710019964,-0.3,1.0,0.0,304.0,896.0,0.0,0,200.0,1
1334,1334,0.7655521572510892,0.8,1.0,1.0,403.0,865.0,1.0,1,242.0,1
1335,1335,0.7366216248085812,0.7,0.0,0.0,265.0,970.0,0.0,1,195.0,1
1336,1336,0.39206574407778316,0.4,0.0,0.0,301.0,688.0,0.0,1,561.0,1
1337,1337,-0.6927876218945224,-0.7,1.0,0.0,389.0,567.0,0.0,0,374.0,1
1338,1338,0.3417166189066757,0.3,0.0,0.0,315.0,550.0,0.0,1,605.0,1
1339,1339,-0.049574075524255634,-0.0,1.0,0.0,254.0,927.0,0.0,0,1819.0,1
1340,1340,0.7018079031018017,0.7,0.0,0.0,405.0,663.0,0.0,1,302.0,1
1341,1341,0.13207376245442204,0.1,1.0,1.0,375.0,597.0,1.0,1,1718.0,1
1342,1342,-0.3007716075806248,-0.3,1.0,0.0,442.0,840.0,0.0,0,618.0,1
1343,1343,-0.24046040650924905,-0.2,0.0,1.0,281.0,809.0,1.0,0,400.0,1
1344,1344,-0.0996314200630879,-0.1,1.0,0.0,366.0,925.0,0.0,0,1709.0,1
1345,1345,-0.2984299366882813,-0.3,1.0,0.0,311.0,607.0,0.0,0,562.0,1
1346,1346,0.1471899684896919,0.1,1.0,1.0,422.0,591.0,1.0,1,1037.0,1
1347,1347,0.7398108454693529,0.7,1.0,1.0,485.0,802.0,1.0,1,203.0,1
1348,1348,-0.5614025028413352,-0.6,0.0,1.0,271.0,546.0,1.0,0,2013.0,1
1349,1349,0.2501199334177323,0.3,1.0,1.0,324.0,768.0,1.0,1,428.0,1
1350,1350,0.7051698227503381,0.7,1.0,1.0,463.0,565.0,1.0,1,252.0,1
1351,1351,-0.3666225628139783,-0.4,0.0,1.0,323.0,851.0,1.0,0,366.0,1
1352,1352,-0.11794701573376343,-0.1,1.0,0.0,391.0,556.0,0.0,0,2053.0,1
1353,1353,-0.7781052190126453,-0.8,1.0,0.0,367.0,829.0,0.0,0,164.0,1
1354,1354,-0.8322345464365224,-0.8,0.0,1.0,487.0,666.0,1.0,0,307.0,1
1355,1355,0.7886435322205781,0.8,1.0,1.0,434.0,717.0,1.0,1,299.0,1
1356,1356,-0.05670455490135606,-0.1,0.0,1.0,412.0,724.0,1.0,0,284.0,1
1357,1357,0.52969567485426,0.5,0.0,0.0,437.0,990.0,0.0,1,223.0,1
1358,1358,-0.1514495988453023,-0.2,1.0,0.0,489.0,699.0,0.0,0,242.0,1
1359,1359,-0.15479932794258078,-0.2,1.0,0.0,308.0,719.0,0.0,0,993.0,1
1360,1360,0.7457786917246118,0.7,1.0,1.0,394.0,800.0,1.0,1,166.0,1
1361,1361,0.2888178153335411,0.3,0.0,0.0,291.0,592.0,0.0,1,527.0,1
1362,1362,-0.39820237588187,-0.4,1.0,0.0,476.0,872.0,0.0,0,202.0,1
1363,1363,-0.3952305748944689,-0.4,1.0,0.0,381.0,554.0,0.0,0,275.0,1
1364,1364,-0.04812092685797886,-0.0,0.0,1.0,487.0,941.0,1.0,0,1572.0,1
1365,1365,0.5065016693656826,0.5,0.0,0.0,370.0,986.0,0.0,1,224.0,1
1366,1366,0.6489537645872531,0.6,0.0,0.0,416.0,971.0,0.0,1,203.0,1
1367,1367,0.8827613894308785,0.9,0.0,0.0,453.0,640.0,0.0,1,237.0,1
1368,1368,-0.06985414746413365,-0.1,1.0,0.0,397.0,955.0,0.0,0,1648.0,1
1369,1369,0.4332531217482637,0.4,0.0,0.0,450.0,835.0,0.0,1,355.0,1
1370,1370,0.33206363657903115,0.3,1.0,1.0,440.0,700.0,1.0,1,290.0,1
1371,1371,0.37676098605742114,0.4,1.0,1.0,314.0,538.0,1.0,1,428.0,1
1372,1372,-0.7644243234256701,-0.8,0.0,1.0,417.0,993.0,1.0,0,180.0,1
1373,1373,0.46134031722637003,0.5,1.0,1.0,488.0,951.0,1.0,1,81.0,1
1374,1374,-0.24575713748199768,-0.2,0.0,1.0,284.0,790.0,1.0,0,1496.0,1
1375,1375,0.24829525915764694,0.2,1.0,1.0,430.0,704.0,1.0,1,446.0,1
1376,1376,-0.589117337962656,-0.6,0.0,1.0,267.0,550.0,1.0,0,243.0,1
1377,1377,-0.25218215859913085,-0.3,0.0,1.0,420.0,895.0,1.0,0,335.0,1
1378,1378,-0.22740860385290362,-0.2,1.0,0.0,296.0,878.0,0.0,0,1496.0,1
1379,1379,0.680034074726786,0.7,1.0,1.0,440.0,817.0,1.0,1,113.0,1
1380,1380,-0.4231727292579825,-0.4,0.0,1.0,290.0,688.0,1.0,0,282.0,1
1381,1381,0.804425294247845,0.8,0.0,0.0,484.0,509.0,0.0,1,317.0,1
1382,1382,0.03056685236521317,0.0,0.0,0.0,436.0,578.0,0.0,1,1986.0,1
1383,1383,-0.23856378877537554,-0.2,1.0,0.0,351.0,775.0,0.0,0,274.0,1
1384,1384,0.3380295105451917,0.3,1.0,1.0,436.0,704.0,1.0,1,590.0,1
1385,1385,0.14781581616915618,0.1,1.0,1.0,335.0,835.0,1.0,1,390.0,1
1386,1386,-0.6758197522424555,-0.7,0.0,1.0,360.0,774.0,1.0,0,246.0,1
1387,1387,-0.8751994412637206,-0.9,0.0,1.0,446.0,822.0,1.0,0,122.0,1
1388,1388,0.10074178803622391,0.1,0.0,0.0,276.0,713.0,0.0,1,1141.0,1
1389,1389,-0.4620996304551494,-0.5,1.0,0.0,465.0,701.0,0.0,0,304.0,1
1390,1390,-0.819077177208359,-0.8,1.0,0.0,446.0,677.0,0.0,0,197.0,1
1391,1391,0.5488890265129943,0.5,1.0,1.0,279.0,714.0,1.0,1,807.0,1
1392,1392,0.7822895190393396,0.8,0.0,0.0,266.0,614.0,0.0,1,290.0,1
1393,1393,0.33293038875490366,0.3,1.0,1.0,330.0,537.0,1.0,1,523.0,1
1394,1394,-0.2800113043702991,-0.3,0.0,1.0,425.0,847.0,1.0,0,418.0,1
1395,1395,-0.2222029340171231,-0.2,0.0,1.0,453.0,980.0,1.0,0,1567.0,1
1396,1396,0.058163381366178935,0.1,1.0,1.0,437.0,530.0,1.0,1,2033.0,1
1397,1397,0.25505651597690127,0.3,0.0,0.0,383.0,759.0,0.0,1,718.0,1
1398,1398,0.21932712865181692,0.2,0.0,0.0,324.0,778.0,0.0,1,938.0,1
1399,1399,-0.4256767712400494,-0.4,1.0,0.0,401.0,972.0,0.0,0,247.0,1
1400,1400,0.7906711374502123,0.8,0.0,0.0,476.0,566.0,0.0,1,218.0,1
1401,1401,0.7922088516788665,0.8,0.0,0.0,323.0,835.0,0.0,1,122.0,1
1402,1402,-0.5293974528585501,-0.5,1.0,0.0,423.0,976.0,0.0,0,301.0,1
1403,1403,0.8250174678247107,0.8,0.0,0.0,286.0,928.0,0.0,1,346.0,1
1404,1404,-0.58564020720737,-0.6,1.0,0.0,488.0,764.0,0.0,0,228.0,1
1405,1405,0.19757223769973586,0.2,1.0,1.0,319.0,743.0,1.0,1,648.0,1
1406,1406,0.42746645267600114,0.4,1.0,1.0,499.0,610.0,1.0,1,591.0,1
1407,1407,0.03900259958327956,0.0,0.0,0.0,426.0,776.0,0.0,1,1798.0,1
1408,1408,0.7276941474519657,0.7,0.0,0.0,386.0,626.0,0.0,1,278.0,1
1409,1409,-0.6842609657520249,-0.7,0.0,1.0,465.0,675.0,1.0,0,190.0,1
1410,1410,-0.2872122082146842,-0.3,0.0,1.0,376.0,918.0,1.0,0,206.0,1
1411,1411,-0.8069282612315808,-0.8,0.0,1.0,258.0,578.0,1.0,0,134.0,1
1412,1412,0.7077415841116527,0.7,1.0,1.0,287.0,641.0,1.0,1,632.0,1
1413,1413,-0.7677766923842906,-0.8,1.0,0.0,438.0,812.0,0.0,0,310.0,1
1414,1414,0.6838531500933845,0.7,1.0,1.0,449.0,818.0,1.0,1,213.0,1
1415,1415,-0.18548885046085906,-0.2,1.0,0.0,324.0,520.0,0.0,0,1016.0,1
1416,1416,0.47531884722836526,0.5,0.0,0.0,443.0,782.0,0.0,1,295.0,1
1417,1417,0.15984424711542922,0.2,1.0,1.0,336.0,704.0,1.0,1,630.0,1
1418,1418,-0.38992679622388016,-0.4,0.0,1.0,293.0,841.0,1.0,0,516.0,1
1419,1419,0.892070880734582,0.9,0.0,0.0,280.0,637.0,0.0,1,303.0,1
1420,1420,0.47805801299229034,0.5,0.0,0.0,406.0,912.0,0.0,1,352.0,1
1421,1421,-0.24350978197881323,-0.2,0.0,1.0,366.0,723.0,1.0,0,551.0,1
1422,1422,-0.3779122755929536,-0.4,1.0,0.0,389.0,991.0,0.0,0,260.0,1
1423,1423,0.6279393373333358,0.6,1.0,1.0,379.0,753.0,1.0,1,248.0,1
1424,1424,-0.7593940234353354,-0.8,0.0,1.0,396.0,958.0,1.0,0,256.0,1
1425,1425,-0.7886278970378634,-0.8,0.0,1.0,402.0,556.0,1.0,0,182.0,1
1426,1426,-0.4669797523276867,-0.5,0.0,1.0,476.0,534.0,1.0,0,290.0,1
1427,1427,-0.4182389490327903,-0.4,0.0,1.0,307.0,633.0,1.0,0,370.0,1
1428,1428,-0.5305814083076079,-0.5,1.0,0.0,442.0,682.0,0.0,0,406.0,1
1429,1429,0.007185490105501291,0.0,0.0,0.0,457.0,526.0,0.0,1,2017.0,1
1430,1430,-0.4961717014646755,-0.5,0.0,1.0,364.0,572.0,1.0,0,314.0,1
1431,1431,-0.02161707082725839,-0.0,1.0,0.0,252.0,564.0,1.0,1,2184.0,0
1432,1432,-0.08216754840968599,-0.1,0.0,1.0,474.0,700.0,1.0,0,1826.0,1
1433,1433,0.599342125912313,0.6,0.0,0.0,314.0,821.0,0.0,1,175.0,1
1434,1434,-0.03536899146169359,-0.0,1.0,0.0,322.0,721.0,1.0,1,1957.0,0
1435,1435,0.6097314638315497,0.6,1.0,1.0,347.0,582.0,1.0,1,631.0,1
1436,1436,-0.8724724657754533,-0.9,0.0,1.0,379.0,908.0,1.0,0,163.0,1
1437,1437,-0.8267789547415054,-0.8,1.0,0.0,403.0,526.0,0.0,0,181.0,1
1438,1438,-0.5188894404632991,-0.5,1.0,0.0,469.0,540.0,0.0,0,311.0,1
1439,1439,0.2546218355976796,0.3,1.0,1.0,382.0,888.0,1.0,1,310.0,1
1440,1440,0.8134569168369729,0.8,0.0,0.0,376.0,788.0,0.0,1,306.0,1
1441,1441,0.23836042218591758,0.2,0.0,0.0,448.0,836.0,0.0,1,556.0,1
1442,1442,0.49318264778200527,0.5,1.0,1.0,282.0,515.0,1.0,1,263.0,1
1443,1443,0.42713596244623375,0.4,0.0,0.0,352.0,700.0,0.0,1,148.0,1
1444,1444,-0.18664368044542234,-0.2,1.0,0.0,386.0,835.0,0.0,0,69.0,1
1445,1445,0.7393290819428665,0.7,1.0,1.0,334.0,799.0,1.0,1,77.0,1
1446,1446,0.2528472482511209,0.3,1.0,1.0,435.0,918.0,1.0,1,1157.0,1
1447,1447,0.5390167296035625,0.5,0.0,0.0,374.0,801.0,0.0,1,265.0,1
1448,1448,0.4915073239789133,0.5,1.0,1.0,400.0,648.0,1.0,1,262.0,1
1449,1449,-0.20464914381635624,-0.2,1.0,0.0,333.0,804.0,0.0,0,783.0,1
1450,1450,-0.2665944884196224,-0.3,0.0,1.0,315.0,763.0,1.0,0,292.0,1
1451,1451,-0.3594467775418799,-0.4,0.0,1.0,301.0,849.0,1.0,0,490.0,1
1452,1452,-0.40821625931514843,-0.4,0.0,1.0,307.0,778.0,1.0,0,465.0,1
1453,1453,-0.24081885096973155,-0.2,0.0,1.0,476.0,622.0,1.0,0,372.0,1
1454,1454,0.013633735681327419,0.0,1.0,1.0,344.0,793.0,1.0,1,1863.0,1
1455,1455,0.870083057248446,0.9,1.0,1.0,353.0,549.0,1.0,1,418.0,1
1456,1456,0.5385282518666729,0.5,1.0,1.0,321.0,704.0,1.0,1,315.0,1
1457,1457,-0.708311663490183,-0.7,1.0,0.0,285.0,859.0,0.0,0,146.0,1
1458,1458,0.4800897275388637,0.5,0.0,0.0,360.0,549.0,0.0,1,441.0,1
1459,1459,-0.43635562604729017,-0.4,0.0,1.0,410.0,859.0,1.0,0,131.0,1
1460,1460,0.06512523019661054,0.1,1.0,1.0,384.0,567.0,1.0,1,1519.0,1
1461,1461,-0.2852907340933396,-0.3,0.0,1.0,475.0,891.0,1.0,0,1634.0,1
1462,1462,0.13742008109162762,0.1,0.0,0.0,474.0,940.0,0.0,1,756.0,1
1463,1463,0.551780175650661,0.6,1.0,1.0,311.0,746.0,1.0,1,113.0,1
1464,1464,-0.8179940974331779,-0.8,0.0,1.0,388.0,599.0,1.0,0,293.0,1
1465,1465,-0.0988438723354349,-0.1,1.0,0.0,415.0,700.0,0.0,0,1885.0,1
1466,1466,-0.19329290074344274,-0.2,0.0,1.0,352.0,873.0,1.0,0,165.0,1
1467,1467,0.8379554736972356,0.8,1.0,1.0,493.0,565.0,1.0,1,182.0,1
1468,1468,0.511266187850192,0.5,0.0,0.0,288.0,775.0,0.0,1,287.0,1
1469,1469,-0.38550390150840685,-0.4,1.0,0.0,317.0,941.0,0.0,0,362.0,1
1470,1470,0.11116621573852481,0.1,0.0,0.0,317.0,976.0,0.0,1,1707.0,1
1471,1471,0.29538981213272997,0.3,1.0,1.0,456.0,546.0,1.0,1,1148.0,1
1472,1472,-0.43410192168865835,-0.4,0.0,1.0,399.0,542.0,1.0,0,469.0,1
1473,1473,0.35569600163749937,0.4,0.0,0.0,315.0,753.0,0.0,1,242.0,1
1474,1474,0.4738716005992457,0.5,1.0,1.0,386.0,813.0,1.0,1,531.0,1
1475,1475,-0.31563224622602004,-0.3,0.0,1.0,275.0,558.0,1.0,0,627.0,1
1476,1476,-0.5668734802668886,-0.6,0.0,1.0,326.0,596.0,1.0,0,498.0,1
1477,1477,0.5591708308200968,0.6,1.0,1.0,462.0,717.0,1.0,1,231.0,1
1478,1478,0.8719676402537407,0.9,0.0,0.0,465.0,781.0,0.0,1,134.0,1
1479,1479,-0.14907615589009182,-0.1,0.0,1.0,314.0,647.0,1.0,0,799.0,1
1480,1480,0.013965715565464443,0.0,1.0,1.0,349.0,951.0,1.0,1,1700.0,1
1481,1481,-0.2625464359005868,-0.3,0.0,1.0,408.0,943.0,1.0,0,759.0,1
1482,1482,-0.7375523582418815,-0.7,1.0,0.0,402.0,562.0,0.0,0,356.0,1
1483,1483,0.5694039664726332,0.6,1.0,1.0,256.0,826.0,1.0,1,188.0,1
1484,1484,0.29387740878921675,0.3,0.0,0.0,256.0,830.0,0.0,1,494.0,1
1485,1485,-0.8596872839751115,-0.9,0.0,1.0,434.0,864.0,1.0,0,152.0,1
1486,1486,-0.09270032962939778,-0.1,1.0,0.0,388.0,534.0,0.0,0,1968.0,1
1487,1487,0.40240437411901964,0.4,1.0,1.0,433.0,650.0,1.0,1,777.0,1
1488,1488,0.4167895807757446,0.4,1.0,1.0,437.0,873.0,1.0,1,1520.0,1
1489,1489,0.06344606195684799,0.1,1.0,1.0,354.0,889.0,1.0,1,1757.0,1
