,trial,coherence,coherence_bin,green_side,correct_side,target_onset,checker_onset,decision,green_decision,decision_time,correct_decision
0,0,0.5406611726579077,0.5,1.0,1.0,442.0,964.0,1.0,1,304.0,1
1,1,-0.3624455842992578,-0.4,0.0,1.0,434.0,702.0,1.0,0,664.0,1
2,2,-0.11355182986165124,-0.1,0.0,1.0,319.0,691.0,1.0,0,810.0,1
3,3,-0.2158448906006264,-0.2,0.0,1.0,375.0,824.0,1.0,0,931.0,1
4,4,-0.10362631071806527,-0.1,0.0,1.0,420.0,677.0,1.0,0,1903.0,1
5,5,0.11515612496486305,0.1,1.0,1.0,256.0,773.0,1.0,1,121.0,1
6,6,-0.005849412734741155,-0.0,1.0,0.0,493.0,918.0,1.0,1,1589.0,0
7,7,0.04190520933120212,0.0,1.0,1.0,373.0,899.0,1.0,1,188.0,1
8,8,-0.5578292881499685,-0.6,0.0,1.0,424.0,516.0,1.0,0,310.0,1
9,9,-0.5683650619272513,-0.6,1.0,0.0,330.0,782.0,0.0,0,528.0,1
10,10,-0.16519505637171217,-0.2,1.0,0.0,294.0,752.0,0.0,0,694.0,1
11,11,-0.4124660813809303,-0.4,1.0,0.0,322.0,916.0,0.0,0,802.0,1
12,12,-0.4769657845488187,-0.5,1.0,0.0,333.0,773.0,0.0,0,364.0,1
13,13,0.02181984614274035,0.0,0.0,0.0,273.0,586.0,1.0,0,2141.0,0
14,14,0.7002457826940768,0.7,0.0,0.0,338.0,977.0,0.0,1,525.0,1
15,15,0.6584166734593658,0.7,1.0,1.0,386.0,511.0,1.0,1,473.0,1
16,16,0.03745241349717221,0.0,1.0,1.0,269.0,903.0,1.0,1,1828.0,1
17,17,0.7800463204358657,0.8,1.0,1.0,462.0,841.0,1.0,1,727.0,1
18,18,-0.5253347774350157,-0.5,1.0,0.0,465.0,573.0,0.0,0,402.0,1
19,19,0.6525395177840826,0.7,0.0,0.0,303.0,709.0,0.0,1,328.0,1
20,20,-0.030338756301561687,-0.0,0.0,1.0,408.0,633.0,1.0,0,1959.0,1
21,21,0.44340938385080475,0.4,0.0,0.0,402.0,627.0,0.0,1,211.0,1
22,22,-0.1624228595610464,-0.2,1.0,0.0,427.0,815.0,0.0,0,1338.0,1
23,23,-0.8311781598928024,-0.8,1.0,0.0,477.0,665.0,0.0,0,128.0,1
24,24,0.16433256915311978,0.2,0.0,0.0,378.0,971.0,0.0,1,951.0,1
25,25,0.3505029462510826,0.4,0.0,0.0,311.0,520.0,0.0,1,1219.0,1
26,26,0.7188051203765607,0.7,1.0,1.0,376.0,953.0,1.0,1,201.0,1
27,27,-0.3270373577555622,-0.3,1.0,0.0,403.0,765.0,0.0,0,582.0,1
28,28,0.4687725114552651,0.5,1.0,1.0,438.0,926.0,1.0,1,166.0,1
29,29,0.3570768511408403,0.4,0.0,0.0,462.0,990.0,0.0,1,758.0,1
30,30,-0.631976020952557,-0.6,1.0,0.0,497.0,512.0,0.0,0,581.0,1
31,31,0.13386085006548798,0.1,0.0,0.0,292.0,791.0,0.0,1,1917.0,1
32,32,-0.42554620603982607,-0.4,0.0,1.0,491.0,820.0,1.0,0,329.0,1
33,33,-0.4519278754214422,-0.5,1.0,0.0,469.0,588.0,0.0,0,633.0,1
34,34,0.6612267012475793,0.7,1.0,1.0,471.0,899.0,1.0,1,220.0,1
35,35,0.17170813698015885,0.2,0.0,0.0,386.0,658.0,0.0,1,776.0,1
36,36,-0.18714421354598532,-0.2,0.0,1.0,364.0,797.0,1.0,0,779.0,1
37,37,0.5847704598786191,0.6,0.0,0.0,402.0,903.0,0.0,1,925.0,1
38,38,-0.1494773595953014,-0.1,1.0,0.0,394.0,776.0,0.0,0,520.0,1
39,39,0.09754148487663072,0.1,0.0,0.0,336.0,626.0,0.0,1,2038.0,1
40,40,-0.5849853999058928,-0.6,0.0,1.0,388.0,862.0,1.0,0,210.0,1
41,41,-0.01941960327883785,-0.0,0.0,1.0,364.0,692.0,1.0,0,1944.0,1
42,42,-0.055855813711983004,-0.1,1.0,0.0,472.0,639.0,1.0,1,1889.0,0
43,43,-0.2796496909761468,-0.3,0.0,1.0,279.0,538.0,1.0,0,713.0,1
44,44,-0.04732670765203728,-0.0,1.0,0.0,343.0,513.0,0.0,0,2144.0,1
45,45,-0.3603828662388908,-0.4,1.0,0.0,268.0,994.0,0.0,0,288.0,1
46,46,0.4500573633873429,0.5,0.0,0.0,359.0,500.0,0.0,1,131.0,1
47,47,0.14326378637215897,0.1,0.0,0.0,423.0,665.0,0.0,1,862.0,1
48,48,0.6940030727001406,0.7,0.0,0.0,377.0,712.0,0.0,1,111.0,1
49,49,-0.047566276221466586,-0.0,0.0,1.0,479.0,912.0,1.0,0,1239.0,1
50,50,-0.6269695511288237,-0.6,0.0,1.0,269.0,827.0,1.0,0,494.0,1
51,51,0.8266123110924951,0.8,1.0,1.0,301.0,727.0,1.0,1,162.0,1
52,52,0.16494003905065202,0.2,0.0,0.0,287.0,957.0,0.0,1,1756.0,1
53,53,-0.6031275321812892,-0.6,0.0,1.0,335.0,511.0,1.0,0,504.0,1
54,54,-0.15290969382591102,-0.2,1.0,0.0,333.0,727.0,0.0,0,1100.0,1
55,55,-0.16174880608590847,-0.2,0.0,1.0,323.0,659.0,1.0,0,338.0,1
56,56,0.6814661843323323,0.7,1.0,1.0,451.0,989.0,1.0,1,240.0,1
57,57,0.7988523062000507,0.8,1.0,1.0,482.0,669.0,1.0,1,199.0,1
58,58,-0.761055381147211,-0.8,0.0,1.0,466.0,738.0,1.0,0,256.0,1
59,59,0.7872969393317518,0.8,0.0,0.0,380.0,534.0,0.0,1,296.0,1
60,60,-0.06378839957811178,-0.1,0.0,1.0,366.0,724.0,1.0,0,1810.0,1
61,61,0.527243292946009,0.5,0.0,0.0,348.0,961.0,0.0,1,1201.0,1
62,62,-0.426189987472361,-0.4,0.0,1.0,366.0,528.0,1.0,0,416.0,1
63,63,-0.34559924723654933,-0.3,1.0,0.0,451.0,716.0,0.0,0,803.0,1
64,64,-0.18890277183087756,-0.2,0.0,1.0,322.0,662.0,1.0,0,156.0,1
65,65,-0.3026545621792389,-0.3,1.0,0.0,281.0,563.0,0.0,0,306.0,1
66,66,0.19327541219497102,0.2,0.0,0.0,338.0,963.0,0.0,1,1699.0,1
67,67,0.874291771060756,0.9,0.0,0.0,460.0,519.0,0.0,1,371.0,1
68,68,-0.07690873965013079,-0.1,1.0,0.0,342.0,849.0,1.0,1,1809.0,0
69,69,-0.8115784891709047,-0.8,0.0,1.0,322.0,832.0,1.0,0,196.0,1
70,70,0.08730729259990377,0.1,0.0,0.0,489.0,981.0,1.0,0,260.0,0
71,71,-0.20253475260330178,-0.2,1.0,0.0,375.0,796.0,0.0,0,1239.0,1
72,72,0.41595449527733075,0.4,0.0,0.0,309.0,758.0,0.0,1,493.0,1
73,73,-0.019646535748244154,-0.0,0.0,1.0,334.0,972.0,1.0,0,544.0,1
74,74,0.38023422678139907,0.4,0.0,0.0,435.0,571.0,0.0,1,1564.0,1
75,75,-0.174248320865785,-0.2,0.0,1.0,361.0,653.0,1.0,0,86.0,1
76,76,-0.7033517241480438,-0.7,0.0,1.0,478.0,608.0,1.0,0,374.0,1
77,77,-0.8757605214395774,-0.9,0.0,1.0,325.0,684.0,1.0,0,241.0,1
78,78,-0.0996179290434781,-0.1,0.0,1.0,452.0,910.0,1.0,0,1088.0,1
79,79,0.6754253704696204,0.7,0.0,0.0,492.0,523.0,0.0,1,605.0,1
80,80,-0.7578706653400932,-0.8,0.0,1.0,389.0,720.0,1.0,0,181.0,1
81,81,0.7654502946058134,0.8,0.0,0.0,341.0,857.0,0.0,1,362.0,1
82,82,0.764791796562262,0.8,0.0,0.0,369.0,689.0,0.0,1,342.0,1
83,83,-0.6378047238119713,-0.6,1.0,0.0,262.0,519.0,0.0,0,209.0,1
84,84,-0.8894008494993758,-0.9,0.0,1.0,253.0,810.0,1.0,0,77.0,1
85,85,0.3036205349180202,0.3,0.0,0.0,340.0,880.0,0.0,1,1130.0,1
86,86,-0.6999722762898526,-0.7,0.0,1.0,441.0,563.0,1.0,0,186.0,1
87,87,-0.2447520739392378,-0.2,0.0,1.0,417.0,950.0,1.0,0,663.0,1
88,88,0.19670081805042317,0.2,1.0,1.0,394.0,896.0,1.0,1,540.0,1
89,89,0.17852365249136526,0.2,0.0,0.0,470.0,968.0,0.0,1,452.0,1
90,90,0.5980404385647168,0.6,0.0,0.0,427.0,847.0,0.0,1,266.0,1
91,91,-0.7229776700467113,-0.7,0.0,1.0,464.0,999.0,1.0,0,197.0,1
92,92,0.4502839868091951,0.5,1.0,1.0,323.0,725.0,1.0,1,192.0,1
93,93,0.8451970672035333,0.8,0.0,0.0,474.0,937.0,0.0,1,219.0,1
94,94,0.21481069516401352,0.2,1.0,1.0,405.0,950.0,1.0,1,635.0,1
95,95,0.05455339384936719,0.1,0.0,0.0,303.0,837.0,0.0,1,300.0,1
96,96,-0.18017261995492284,-0.2,1.0,0.0,329.0,813.0,0.0,0,1858.0,1
97,97,-0.08158155655550392,-0.1,1.0,0.0,397.0,584.0,0.0,0,2019.0,1
98,98,0.08407844898618011,0.1,1.0,1.0,294.0,650.0,1.0,1,1466.0,1
99,99,-0.5144462266620121,-0.5,0.0,1.0,363.0,720.0,1.0,0,357.0,1
100,100,0.14676840330549956,0.1,0.0,0.0,461.0,975.0,1.0,0,1564.0,0
101,101,0.7419763784543566,0.7,0.0,0.0,360.0,586.0,0.0,1,464.0,1
102,102,-0.30588208540206907,-0.3,0.0,1.0,384.0,521.0,1.0,0,495.0,1
103,103,-0.7052551118641686,-0.7,1.0,0.0,472.0,718.0,0.0,0,100.0,1
104,104,0.07598227244987044,0.1,1.0,1.0,453.0,563.0,1.0,1,1834.0,1
105,105,0.0029054710093533442,0.0,0.0,0.0,356.0,785.0,0.0,1,1859.0,1
106,106,-0.5267747924841845,-0.5,1.0,0.0,421.0,580.0,0.0,0,179.0,1
107,107,-0.7884149336168826,-0.8,1.0,0.0,372.0,689.0,0.0,0,249.0,1
108,108,-0.26750807318250436,-0.3,0.0,1.0,417.0,968.0,1.0,0,-145.0,1
109,109,-0.7145373023154253,-0.7,0.0,1.0,386.0,734.0,1.0,0,300.0,1
110,110,0.1677028678732736,0.2,0.0,0.0,306.0,836.0,0.0,1,1858.0,1
111,111,-0.5359784702870416,-0.5,0.0,1.0,343.0,770.0,1.0,0,287.0,1
112,112,0.8592944488005184,0.9,1.0,1.0,411.0,686.0,1.0,1,-237.0,1
113,113,0.13470545973172754,0.1,0.0,0.0,437.0,721.0,0.0,1,1842.0,1
114,114,-0.3153832033167546,-0.3,0.0,1.0,483.0,603.0,1.0,0,764.0,1
115,115,-0.7660911274356201,-0.8,1.0,0.0,350.0,961.0,0.0,0,259.0,1
116,116,-0.6620797642325695,-0.7,1.0,0.0,442.0,866.0,0.0,0,312.0,1
117,117,0.22933570405156345,0.2,1.0,1.0,367.0,509.0,1.0,1,504.0,1
118,118,-0.39295552306792514,-0.4,0.0,1.0,261.0,618.0,1.0,0,81.0,1
119,119,0.18805126986190845,0.2,1.0,1.0,401.0,927.0,1.0,1,1092.0,1
120,120,-0.4362650562710016,-0.4,1.0,0.0,255.0,868.0,0.0,0,617.0,1
121,121,-0.17270719425885772,-0.2,1.0,0.0,289.0,804.0,0.0,0,1907.0,1
122,122,-0.700639784139808,-0.7,0.0,1.0,308.0,954.0,1.0,0,198.0,1
123,123,0.6117005623106807,0.6,0.0,0.0,474.0,923.0,0.0,1,603.0,1
124,124,0.3458443907060075,0.3,0.0,0.0,495.0,629.0,0.0,1,1366.0,1
125,125,-0.5814053491817073,-0.6,0.0,1.0,302.0,748.0,1.0,0,240.0,1
126,126,-0.7897989149578469,-0.8,0.0,1.0,394.0,511.0,1.0,0,515.0,1
127,127,0.3238040077581984,0.3,0.0,0.0,370.0,613.0,0.0,1,477.0,1
128,128,-0.6313696736993557,-0.6,1.0,0.0,258.0,784.0,0.0,0,228.0,1
129,129,-0.5582856053987555,-0.6,0.0,1.0,290.0,533.0,1.0,0,347.0,1
130,130,0.14922704619750793,0.1,1.0,1.0,411.0,752.0,1.0,1,857.0,1
131,131,-0.28821382633748294,-0.3,1.0,0.0,445.0,675.0,0.0,0,1630.0,1
132,132,0.47664092460301444,0.5,1.0,1.0,370.0,648.0,1.0,1,522.0,1
133,133,0.14449605424459688,0.1,0.0,0.0,360.0,644.0,0.0,1,1996.0,1
134,134,-0.8809654849000893,-0.9,1.0,0.0,318.0,892.0,0.0,0,320.0,1
135,135,-0.07498343056566559,-0.1,1.0,0.0,347.0,582.0,1.0,1,2071.0,0
136,136,-0.25425482185262893,-0.3,0.0,1.0,346.0,631.0,1.0,0,323.0,1
137,137,-0.8994887279039927,-0.9,1.0,0.0,260.0,908.0,0.0,0,142.0,1
138,138,0.47313793912907387,0.5,0.0,0.0,283.0,810.0,0.0,1,237.0,1
139,139,0.005731610295272471,0.0,0.0,0.0,391.0,975.0,0.0,1,1634.0,1
140,140,-0.6194249527441509,-0.6,0.0,1.0,322.0,949.0,1.0,0,199.0,1
141,141,0.7158509995485279,0.7,1.0,1.0,325.0,582.0,1.0,1,323.0,1
142,142,-0.6808524466547375,-0.7,0.0,1.0,462.0,863.0,1.0,0,55.0,1
143,143,0.602344470286078,0.6,0.0,0.0,283.0,513.0,0.0,1,454.0,1
144,144,-0.8641587186678944,-0.9,1.0,0.0,459.0,807.0,0.0,0,274.0,1
145,145,-0.484821274369306,-0.5,1.0,0.0,265.0,728.0,0.0,0,337.0,1
146,146,-0.5106438640010204,-0.5,0.0,1.0,293.0,933.0,1.0,0,94.0,1
147,147,-0.28360601312633527,-0.3,0.0,1.0,398.0,698.0,1.0,0,164.0,1
148,148,0.8607513818491438,0.9,0.0,0.0,435.0,777.0,0.0,1,338.0,1
149,149,-0.839843432924058,-0.8,1.0,0.0,388.0,981.0,0.0,0,291.0,1
150,150,-0.5544847688296652,-0.6,0.0,1.0,262.0,999.0,1.0,0,349.0,1
151,151,-0.21919845084157585,-0.2,0.0,1.0,428.0,775.0,1.0,0,487.0,1
152,152,0.05407024781195602,0.1,1.0,1.0,298.0,933.0,1.0,1,709.0,1
153,153,0.1321965219145923,0.1,0.0,0.0,354.0,673.0,0.0,1,1273.0,1
154,154,-0.7778610924310343,-0.8,1.0,0.0,464.0,761.0,0.0,0,265.0,1
155,155,0.24098401204449516,0.2,1.0,1.0,428.0,848.0,1.0,1,374.0,1
156,156,0.4904100322971211,0.5,1.0,1.0,353.0,883.0,1.0,1,534.0,1
157,157,-0.30458213243627175,-0.3,0.0,1.0,310.0,545.0,1.0,0,295.0,1
158,158,-0.5223384449765517,-0.5,0.0,1.0,366.0,501.0,1.0,0,433.0,1
159,159,-0.7928320329975221,-0.8,0.0,1.0,377.0,848.0,1.0,0,145.0,1
160,160,-0.21839267755143466,-0.2,1.0,0.0,314.0,695.0,0.0,0,1991.0,1
161,161,0.5255135312254836,0.5,0.0,0.0,420.0,734.0,0.0,1,126.0,1
162,162,0.21725768680029522,0.2,1.0,1.0,286.0,568.0,1.0,1,876.0,1
163,163,0.09463514956912533,0.1,0.0,0.0,417.0,892.0,0.0,1,1351.0,1
164,164,-0.1976374184316707,-0.2,1.0,0.0,377.0,721.0,0.0,0,1752.0,1
165,165,0.36206091066909785,0.4,1.0,1.0,455.0,875.0,1.0,1,320.0,1
166,166,-0.06769548577016271,-0.1,0.0,1.0,444.0,815.0,1.0,0,1741.0,1
167,167,-0.8257303595839042,-0.8,0.0,1.0,278.0,815.0,1.0,0,227.0,1
168,168,0.37727908223222106,0.4,1.0,1.0,416.0,968.0,1.0,1,516.0,1
169,169,0.5371615570024474,0.5,1.0,1.0,415.0,803.0,1.0,1,192.0,1
170,170,0.5400548466608949,0.5,0.0,0.0,443.0,902.0,0.0,1,195.0,1
171,171,-0.19033527549288543,-0.2,1.0,0.0,412.0,776.0,0.0,0,1812.0,1
172,172,-0.20052858218516745,-0.2,0.0,1.0,284.0,771.0,1.0,0,255.0,1
173,173,0.6777816422064628,0.7,0.0,0.0,356.0,665.0,0.0,1,1579.0,1
174,174,0.765331777255397,0.8,1.0,1.0,397.0,772.0,1.0,1,191.0,1
175,175,-0.32073188082798865,-0.3,1.0,0.0,492.0,971.0,0.0,0,537.0,1
176,176,-0.6796929021133205,-0.7,0.0,1.0,405.0,948.0,1.0,0,217.0,1
177,177,-0.8109198494283583,-0.8,1.0,0.0,326.0,969.0,0.0,0,235.0,1
178,178,-0.0725725581721175,-0.1,1.0,0.0,252.0,649.0,1.0,1,2099.0,0
179,179,-0.15674037945713082,-0.2,0.0,1.0,302.0,702.0,1.0,0,386.0,1
180,180,-0.27519680344031183,-0.3,0.0,1.0,285.0,670.0,1.0,0,235.0,1
181,181,0.7127548151479449,0.7,1.0,1.0,252.0,615.0,1.0,1,473.0,1
182,182,-0.1389676678824453,-0.1,0.0,1.0,286.0,580.0,1.0,0,1074.0,1
183,183,0.8816403136281971,0.9,1.0,1.0,281.0,602.0,1.0,1,187.0,1
184,184,0.04357471698819526,0.0,0.0,0.0,251.0,506.0,1.0,0,2243.0,0
185,185,-0.655619302180567,-0.7,0.0,1.0,496.0,706.0,1.0,0,198.0,1
186,186,-0.582089459071046,-0.6,1.0,0.0,483.0,887.0,0.0,0,280.0,1
187,187,0.400006404239552,0.4,0.0,0.0,283.0,597.0,0.0,1,310.0,1
188,188,0.8073903263368399,0.8,1.0,1.0,321.0,932.0,1.0,1,217.0,1
189,189,-0.324548671900577,-0.3,1.0,0.0,399.0,841.0,0.0,0,860.0,1
190,190,0.489141610967755,0.5,1.0,1.0,310.0,700.0,1.0,1,620.0,1
191,191,0.4811590023499631,0.5,1.0,1.0,425.0,606.0,1.0,1,459.0,1
192,192,-0.12403669539322526,-0.1,0.0,1.0,355.0,729.0,1.0,0,1746.0,1
193,193,0.7421572224018814,0.7,0.0,0.0,470.0,834.0,0.0,1,286.0,1
194,194,-0.7051345285105974,-0.7,0.0,1.0,497.0,681.0,1.0,0,792.0,1
195,195,-0.6105600167341024,-0.6,1.0,0.0,379.0,875.0,0.0,0,486.0,1
196,196,0.3882169276553348,0.4,0.0,0.0,424.0,600.0,0.0,1,156.0,1
197,197,-0.30543734050896665,-0.3,0.0,1.0,373.0,917.0,1.0,0,340.0,1
198,198,0.8627041589406453,0.9,1.0,1.0,351.0,974.0,1.0,1,165.0,1
199,199,0.3945621219460317,0.4,1.0,1.0,351.0,998.0,1.0,1,231.0,1
200,200,-0.12821339953961297,-0.1,1.0,0.0,449.0,946.0,0.0,0,1605.0,1
201,201,-0.45197211499047246,-0.5,0.0,1.0,284.0,562.0,1.0,0,424.0,1
202,202,-0.38983647135246857,-0.4,1.0,0.0,477.0,725.0,0.0,0,468.0,1
203,203,0.5246483183847374,0.5,1.0,1.0,260.0,751.0,1.0,1,139.0,1
204,204,-0.49348241629399375,-0.5,1.0,0.0,396.0,744.0,0.0,0,240.0,1
205,205,0.6718084627525377,0.7,0.0,0.0,459.0,644.0,0.0,1,1097.0,1
206,206,0.3370260827150121,0.3,1.0,1.0,256.0,810.0,1.0,1,364.0,1
207,207,0.012042273742857934,0.0,0.0,0.0,442.0,694.0,0.0,1,1864.0,1
208,208,-0.0616756122650276,-0.1,1.0,0.0,331.0,593.0,1.0,1,2076.0,0
209,209,0.2521546138599958,0.3,1.0,1.0,368.0,855.0,1.0,1,597.0,1
210,210,0.41964607320894676,0.4,1.0,1.0,451.0,761.0,1.0,1,168.0,1
211,211,-0.32742165855925864,-0.3,0.0,1.0,342.0,801.0,1.0,0,107.0,1
212,212,-0.417349480709643,-0.4,0.0,1.0,257.0,603.0,1.0,0,290.0,1
213,213,-0.04432230706824758,-0.0,0.0,1.0,311.0,932.0,1.0,0,1757.0,1
214,214,-0.0706931917636534,-0.1,1.0,0.0,407.0,953.0,0.0,0,1640.0,1
215,215,0.6135804587479824,0.6,1.0,1.0,432.0,768.0,1.0,1,220.0,1
216,216,-0.6855198768370805,-0.7,0.0,1.0,298.0,550.0,1.0,0,132.0,1
217,217,0.5970945707774774,0.6,1.0,1.0,286.0,878.0,1.0,1,266.0,1
218,218,0.6315238161248217,0.6,1.0,1.0,287.0,964.0,1.0,1,389.0,1
219,219,0.8636349011999472,0.9,0.0,0.0,374.0,505.0,0.0,1,131.0,1
220,220,0.7806223267429283,0.8,0.0,0.0,372.0,994.0,0.0,1,404.0,1
221,221,-0.893197703645887,-0.9,1.0,0.0,495.0,731.0,0.0,0,214.0,1
222,222,0.7581595544956635,0.8,0.0,0.0,283.0,585.0,0.0,1,472.0,1
223,223,-0.01748773420836458,-0.0,0.0,1.0,451.0,719.0,1.0,0,1330.0,1
224,224,0.54402194488252,0.5,0.0,0.0,283.0,730.0,0.0,1,147.0,1
225,225,0.35048737758296455,0.4,1.0,1.0,476.0,695.0,1.0,1,89.0,1
226,226,-0.1371262428607738,-0.1,0.0,1.0,427.0,855.0,1.0,0,788.0,1
227,227,0.883868792812948,0.9,1.0,1.0,423.0,565.0,1.0,1,202.0,1
228,228,-0.8963370982995039,-0.9,1.0,0.0,399.0,610.0,0.0,0,221.0,1
229,229,-0.6765682245738294,-0.7,0.0,1.0,474.0,923.0,1.0,0,143.0,1
230,230,-0.5685117003981327,-0.6,1.0,0.0,288.0,575.0,0.0,0,227.0,1
231,231,-0.2198913053349304,-0.2,0.0,1.0,432.0,603.0,1.0,0,695.0,1
232,232,-0.7252607613444422,-0.7,1.0,0.0,391.0,773.0,0.0,0,276.0,1
233,233,0.16585665029713736,0.2,1.0,1.0,414.0,513.0,1.0,1,553.0,1
234,234,0.247373216000364,0.2,1.0,1.0,473.0,872.0,1.0,1,195.0,1
235,235,0.635221136117773,0.6,1.0,1.0,488.0,583.0,1.0,1,229.0,1
236,236,-0.5486391548783558,-0.5,1.0,0.0,399.0,855.0,0.0,0,286.0,1
237,237,0.8035520377974491,0.8,0.0,0.0,461.0,802.0,0.0,1,127.0,1
238,238,-0.2133258357886194,-0.2,1.0,0.0,484.0,585.0,0.0,0,1421.0,1
239,239,0.27176978277475394,0.3,0.0,0.0,366.0,843.0,0.0,1,1791.0,1
240,240,-0.5903668334225627,-0.6,1.0,0.0,490.0,915.0,0.0,0,255.0,1
241,241,0.6189839727860361,0.6,1.0,1.0,429.0,869.0,0.0,0,-518.0,0
242,242,-0.5203114682983581,-0.5,0.0,1.0,397.0,611.0,1.0,0,322.0,1
243,243,0.8575095024105245,0.9,0.0,0.0,419.0,600.0,0.0,1,131.0,1
244,244,-0.06565481712538723,-0.1,0.0,1.0,312.0,691.0,1.0,0,1997.0,1
245,245,-0.4756608406679871,-0.5,1.0,0.0,281.0,507.0,0.0,0,252.0,1
246,246,0.1968458883932397,0.2,0.0,0.0,481.0,959.0,0.0,1,1560.0,1
247,247,0.8185944035309282,0.8,0.0,0.0,397.0,766.0,1.0,0,7.0,0
248,248,-0.5618589527680986,-0.6,0.0,1.0,435.0,581.0,1.0,0,234.0,1
249,249,0.37500662147908914,0.4,0.0,0.0,362.0,920.0,0.0,1,1568.0,1
250,250,0.5741853107434457,0.6,0.0,0.0,498.0,848.0,0.0,1,854.0,1
251,251,-0.02288016528894732,-0.0,1.0,0.0,281.0,974.0,1.0,1,1745.0,0
252,252,-0.834845478467487,-0.8,1.0,0.0,285.0,526.0,0.0,0,189.0,1
253,253,-0.10755838305084064,-0.1,1.0,0.0,356.0,968.0,0.0,0,1676.0,1
254,254,-0.3147285642086173,-0.3,0.0,1.0,441.0,745.0,1.0,0,404.0,1
255,255,-0.8146344001098583,-0.8,0.0,1.0,460.0,826.0,1.0,0,194.0,1
256,256,0.06548627110248662,0.1,0.0,0.0,254.0,925.0,1.0,0,1821.0,0
257,257,-0.1832463825638294,-0.2,0.0,1.0,461.0,541.0,1.0,0,1928.0,1
258,258,0.5308409171882379,0.5,1.0,1.0,313.0,667.0,1.0,1,520.0,1
259,259,0.2223113501743489,0.2,0.0,0.0,371.0,796.0,0.0,1,1413.0,1
260,260,-0.718387802864438,-0.7,1.0,0.0,395.0,578.0,0.0,0,327.0,1
261,261,0.3777665007783785,0.4,1.0,1.0,415.0,731.0,1.0,1,364.0,1
262,262,0.6228690986263078,0.6,1.0,1.0,273.0,810.0,1.0,1,297.0,1
263,263,0.20062811202334985,0.2,0.0,0.0,315.0,623.0,0.0,1,1512.0,1
264,264,-0.7614500401719936,-0.8,0.0,1.0,459.0,889.0,1.0,0,432.0,1
265,265,-0.0006962980259718199,-0.0,1.0,0.0,435.0,998.0,0.0,0,1567.0,1
266,266,-0.5373507437198386,-0.5,0.0,1.0,361.0,742.0,1.0,0,207.0,1
267,267,-0.6475509332114993,-0.6,1.0,0.0,465.0,849.0,0.0,0,76.0,1
268,268,0.6565437005129501,0.7,1.0,1.0,360.0,951.0,1.0,1,249.0,1
269,269,-0.46225693810475443,-0.5,1.0,0.0,329.0,976.0,0.0,0,165.0,1
270,270,0.008674248996616174,0.0,1.0,1.0,300.0,672.0,1.0,1,2028.0,1
271,271,-0.29542166629877387,-0.3,1.0,0.0,310.0,584.0,0.0,0,786.0,1
272,272,0.6865183313139386,0.7,0.0,0.0,399.0,551.0,0.0,1,250.0,1
273,273,-0.6545651804466083,-0.7,0.0,1.0,466.0,561.0,1.0,0,183.0,1
274,274,-0.611801666091477,-0.6,1.0,0.0,458.0,726.0,0.0,0,416.0,1
275,275,0.14768113943569416,0.1,0.0,0.0,388.0,668.0,0.0,1,1664.0,1
276,276,-0.4994896865953756,-0.5,0.0,1.0,422.0,938.0,1.0,0,320.0,1
277,277,-0.24664165711449015,-0.2,0.0,1.0,399.0,645.0,1.0,0,366.0,1
278,278,0.2462050811465918,0.2,0.0,0.0,495.0,754.0,0.0,1,1301.0,1
279,279,0.21034922618682417,0.2,1.0,1.0,477.0,596.0,1.0,1,1057.0,1
280,280,-0.6909556560522382,-0.7,1.0,0.0,432.0,568.0,0.0,0,310.0,1
281,281,0.3631860385771227,0.4,0.0,0.0,465.0,526.0,0.0,1,1219.0,1
282,282,0.7081684981815154,0.7,1.0,1.0,298.0,757.0,1.0,1,265.0,1
283,283,0.6493717938624596,0.6,0.0,0.0,401.0,881.0,0.0,1,328.0,1
284,284,-0.7212000625314592,-0.7,0.0,1.0,418.0,597.0,1.0,0,245.0,1
285,285,0.7481433661670626,0.7,0.0,0.0,376.0,515.0,0.0,1,189.0,1
286,286,-0.757789508392063,-0.8,1.0,0.0,356.0,978.0,0.0,0,216.0,1
287,287,-0.5906614126014482,-0.6,1.0,0.0,496.0,595.0,0.0,0,399.0,1
288,288,-0.6276316437686247,-0.6,0.0,1.0,283.0,683.0,1.0,0,484.0,1
289,289,-0.03813151182023644,-0.0,1.0,0.0,340.0,865.0,1.0,1,-335.0,0
290,290,-0.7207661189646133,-0.7,1.0,0.0,308.0,902.0,0.0,0,140.0,1
291,291,-0.03401274873249138,-0.0,0.0,1.0,291.0,520.0,1.0,0,1749.0,1
292,292,0.5875809174228598,0.6,1.0,1.0,498.0,664.0,1.0,1,718.0,1
293,293,0.7799887042085217,0.8,0.0,0.0,454.0,614.0,0.0,1,92.0,1
294,294,-0.3261433217281824,-0.3,1.0,0.0,257.0,925.0,0.0,0,438.0,1
295,295,-0.6266599115352278,-0.6,0.0,1.0,320.0,538.0,1.0,0,302.0,1
296,296,0.23081144547868038,0.2,1.0,1.0,319.0,665.0,1.0,1,286.0,1
297,297,0.3627279893501957,0.4,0.0,0.0,351.0,755.0,0.0,1,334.0,1
298,298,-0.04821640810108363,-0.0,0.0,1.0,271.0,787.0,1.0,0,1722.0,1
299,299,-0.44209506323607056,-0.4,1.0,0.0,461.0,676.0,0.0,0,453.0,1
300,300,-0.8204405295770784,-0.8,1.0,0.0,343.0,720.0,0.0,0,477.0,1
301,301,0.3043319212155541,0.3,1.0,1.0,296.0,570.0,1.0,1,234.0,1
302,302,0.6649251322928874,0.7,0.0,0.0,309.0,730.0,0.0,1,351.0,1
303,303,0.5264768865592998,0.5,1.0,1.0,298.0,917.0,1.0,1,535.0,1
304,304,-0.5582990980200969,-0.6,0.0,1.0,253.0,636.0,1.0,0,251.0,1
305,305,0.8643745519114564,0.9,1.0,1.0,362.0,689.0,1.0,1,119.0,1
306,306,-0.4340122489961271,-0.4,0.0,1.0,436.0,739.0,1.0,0,595.0,1
307,307,-0.3146644270407615,-0.3,0.0,1.0,324.0,826.0,1.0,0,480.0,1
308,308,0.5929015585718366,0.6,1.0,1.0,421.0,967.0,1.0,1,122.0,1
309,309,-0.23337325224184413,-0.2,0.0,1.0,432.0,525.0,1.0,0,753.0,1
310,310,0.8393915660318961,0.8,0.0,0.0,403.0,937.0,0.0,1,420.0,1
311,311,0.6646674923268986,0.7,0.0,0.0,431.0,508.0,0.0,1,771.0,1
312,312,0.6722383678384606,0.7,0.0,0.0,358.0,890.0,0.0,1,162.0,1
313,313,-0.3906570279212598,-0.4,1.0,0.0,314.0,620.0,0.0,0,1206.0,1
314,314,0.6929057835801719,0.7,1.0,1.0,485.0,871.0,1.0,1,204.0,1
315,315,0.5911457450493688,0.6,1.0,1.0,270.0,642.0,1.0,1,318.0,1
316,316,-0.13091372209328334,-0.1,1.0,0.0,388.0,866.0,1.0,1,176.0,0
317,317,0.6825935765058645,0.7,0.0,0.0,317.0,937.0,0.0,1,566.0,1
318,318,-0.5674845661213737,-0.6,1.0,0.0,359.0,744.0,0.0,0,377.0,1
319,319,0.03474465379438807,0.0,0.0,0.0,424.0,996.0,1.0,0,1580.0,0
320,320,0.3233532253183854,0.3,1.0,1.0,464.0,988.0,1.0,1,398.0,1
321,321,-0.3114358499561506,-0.3,0.0,1.0,445.0,501.0,1.0,0,864.0,1
322,322,0.2652512552891503,0.3,0.0,0.0,466.0,761.0,0.0,1,833.0,1
323,323,-0.20945338976078975,-0.2,1.0,0.0,288.0,698.0,0.0,0,1704.0,1
324,324,-0.3993932464991091,-0.4,1.0,0.0,433.0,949.0,0.0,0,388.0,1
325,325,0.13886073282386857,0.1,0.0,0.0,438.0,759.0,0.0,1,1803.0,1
326,326,-0.5276851623500391,-0.5,1.0,0.0,437.0,578.0,0.0,0,765.0,1
327,327,0.356311228762198,0.4,0.0,0.0,493.0,714.0,0.0,1,63.0,1
328,328,-0.8243193890289843,-0.8,0.0,1.0,317.0,556.0,1.0,0,177.0,1
329,329,-0.8862488389499458,-0.9,0.0,1.0,259.0,600.0,1.0,0,481.0,1
330,330,0.2401624107657815,0.2,0.0,0.0,274.0,929.0,0.0,1,1357.0,1
331,331,0.576214580659908,0.6,0.0,0.0,495.0,555.0,0.0,1,280.0,1
332,332,-0.7052821264252987,-0.7,1.0,0.0,274.0,500.0,0.0,0,276.0,1
333,333,-0.305992415910906,-0.3,1.0,0.0,322.0,619.0,0.0,0,639.0,1
334,334,-0.5568407162479858,-0.6,0.0,1.0,362.0,839.0,1.0,0,159.0,1
335,335,-0.4677493475608583,-0.5,1.0,0.0,380.0,938.0,0.0,0,112.0,1
336,336,0.8960616211369697,0.9,1.0,1.0,337.0,690.0,1.0,1,323.0,1
337,337,0.21775106923050858,0.2,0.0,0.0,252.0,609.0,0.0,1,959.0,1
338,338,0.4080450171798934,0.4,0.0,0.0,256.0,910.0,0.0,1,604.0,1
339,339,0.11610694804267274,0.1,1.0,1.0,409.0,953.0,1.0,1,-12.0,1
340,340,-0.5021540163026728,-0.5,1.0,0.0,452.0,876.0,0.0,0,482.0,1
341,341,0.6252296587524392,0.6,0.0,0.0,444.0,951.0,0.0,1,265.0,1
342,342,0.041740169552526685,0.0,1.0,1.0,276.0,716.0,1.0,1,558.0,1
343,343,0.4049214258131236,0.4,0.0,0.0,264.0,625.0,0.0,1,271.0,1
344,344,-0.14809670656993557,-0.1,0.0,1.0,391.0,860.0,1.0,0,929.0,1
345,345,0.86268124591672,0.9,0.0,0.0,431.0,611.0,0.0,1,188.0,1
346,346,-0.45394416122206616,-0.5,1.0,0.0,415.0,922.0,0.0,0,223.0,1
347,347,-0.09402480327138507,-0.1,1.0,0.0,263.0,627.0,1.0,1,2110.0,0
348,348,-0.6306442811488984,-0.6,0.0,1.0,369.0,761.0,1.0,0,110.0,1
349,349,-0.44800667759561574,-0.4,0.0,1.0,477.0,930.0,1.0,0,383.0,1
350,350,0.12793113861854588,0.1,0.0,0.0,368.0,619.0,0.0,1,2013.0,1
351,351,-0.13972202533701072,-0.1,0.0,1.0,325.0,785.0,1.0,0,180.0,1
352,352,0.2062702063137959,0.2,0.0,0.0,318.0,858.0,0.0,1,904.0,1
353,353,0.7857875827425739,0.8,1.0,1.0,425.0,645.0,1.0,1,250.0,1
354,354,-0.07383259698302291,-0.1,1.0,0.0,411.0,754.0,0.0,0,1835.0,1
355,355,0.15983902308405795,0.2,1.0,1.0,316.0,738.0,1.0,1,676.0,1
356,356,-0.663315312399434,-0.7,0.0,1.0,444.0,775.0,1.0,0,141.0,1
357,357,-0.2200679267546335,-0.2,1.0,0.0,283.0,939.0,0.0,0,1568.0,1
358,358,0.37661392545039185,0.4,1.0,1.0,255.0,653.0,1.0,1,312.0,1
359,359,0.5068535966886617,0.5,1.0,1.0,488.0,579.0,1.0,1,403.0,1
360,360,-0.16841977194577995,-0.2,0.0,1.0,461.0,637.0,1.0,0,862.0,1
361,361,0.37208615533690337,0.4,1.0,1.0,482.0,793.0,1.0,1,85.0,1
362,362,-0.6465943314311833,-0.6,1.0,0.0,465.0,657.0,0.0,0,438.0,1
363,363,-0.7907404583387402,-0.8,0.0,1.0,305.0,705.0,1.0,0,230.0,1
364,364,-0.8510101766764661,-0.9,1.0,0.0,494.0,751.0,0.0,0,355.0,1
365,365,0.8228177834968519,0.8,0.0,0.0,457.0,776.0,0.0,1,567.0,1
366,366,0.27895768108947905,0.3,1.0,1.0,427.0,549.0,1.0,1,544.0,1
367,367,0.4227605005301548,0.4,0.0,0.0,375.0,678.0,0.0,1,1147.0,1
368,368,-0.07266884205085267,-0.1,1.0,0.0,335.0,818.0,0.0,0,317.0,1
369,369,0.06769336047650865,0.1,1.0,1.0,401.0,908.0,1.0,1,1691.0,1
370,370,0.13866500644880386,0.1,1.0,1.0,295.0,633.0,1.0,1,1742.0,1
371,371,-0.8739683621888434,-0.9,1.0,0.0,319.0,669.0,0.0,0,262.0,1
372,372,-0.036070720814206036,-0.0,0.0,1.0,339.0,786.0,1.0,0,1875.0,1
373,373,0.43652261913128043,0.4,1.0,1.0,306.0,897.0,1.0,1,397.0,1
374,374,0.2624447212827138,0.3,0.0,0.0,424.0,948.0,0.0,1,428.0,1
375,375,0.6330996333902933,0.6,0.0,0.0,352.0,990.0,0.0,1,458.0,1
376,376,0.5414415610496025,0.5,1.0,1.0,260.0,659.0,1.0,1,101.0,1
377,377,-0.43731590417782523,-0.4,1.0,0.0,454.0,870.0,0.0,0,596.0,1
378,378,0.24235951944022538,0.2,0.0,0.0,286.0,897.0,0.0,1,1147.0,1
379,379,-0.5061228994709699,-0.5,1.0,0.0,383.0,977.0,0.0,0,360.0,1
380,380,0.6482012593020706,0.6,1.0,1.0,413.0,604.0,1.0,1,53.0,1
381,381,-0.16257957376891896,-0.2,0.0,1.0,450.0,757.0,1.0,0,813.0,1
382,382,0.6438262558406286,0.6,1.0,1.0,252.0,621.0,1.0,1,237.0,1
383,383,-0.6049046135351049,-0.6,0.0,1.0,443.0,958.0,1.0,0,279.0,1
384,384,0.12380447943501338,0.1,1.0,1.0,312.0,615.0,1.0,1,563.0,1
385,385,0.09111052289636534,0.1,0.0,0.0,309.0,541.0,0.0,1,2150.0,1
386,386,0.12752014754116325,0.1,1.0,1.0,289.0,962.0,1.0,1,629.0,1
387,387,0.558724579730795,0.6,1.0,1.0,252.0,512.0,1.0,1,516.0,1
388,388,0.1438135509884918,0.1,1.0,1.0,344.0,625.0,1.0,1,641.0,1
389,389,-0.045175945956649755,-0.0,1.0,0.0,291.0,696.0,1.0,1,2013.0,0
390,390,-0.5739655237203383,-0.6,0.0,1.0,371.0,724.0,1.0,0,165.0,1
391,391,0.027662856808706726,0.0,1.0,1.0,382.0,929.0,1.0,1,819.0,1
392,392,-0.6634591016289979,-0.7,1.0,0.0,412.0,732.0,0.0,0,266.0,1
393,393,-0.8749848542366991,-0.9,1.0,0.0,414.0,617.0,0.0,0,149.0,1
394,394,-0.21331554899317706,-0.2,1.0,0.0,251.0,941.0,0.0,0,228.0,1
395,395,0.039200855894208964,0.0,0.0,0.0,418.0,537.0,1.0,0,2045.0,0
396,396,-0.5126797662145763,-0.5,1.0,0.0,404.0,565.0,0.0,0,321.0,1
397,397,-0.766654968261105,-0.8,0.0,1.0,485.0,693.0,1.0,0,152.0,1
398,398,0.14510047624828026,0.1,1.0,1.0,365.0,822.0,1.0,1,793.0,1
399,399,0.8796228944929608,0.9,0.0,0.0,333.0,552.0,0.0,1,215.0,1
400,400,0.32452746388073084,0.3,0.0,0.0,393.0,544.0,0.0,1,483.0,1
401,401,0.757560376488379,0.8,0.0,0.0,418.0,985.0,0.0,1,257.0,1
402,402,-0.42678730470924303,-0.4,1.0,0.0,489.0,661.0,0.0,0,370.0,1
403,403,0.4258974277026205,0.4,0.0,0.0,487.0,640.0,0.0,1,323.0,1
404,404,0.19923978437554102,0.2,1.0,1.0,445.0,819.0,1.0,1,476.0,1
405,405,-0.2596849270129432,-0.3,1.0,0.0,391.0,804.0,0.0,0,1345.0,1
406,406,0.7217717099249669,0.7,1.0,1.0,306.0,950.0,1.0,1,144.0,1
407,407,-0.5169011746539494,-0.5,1.0,0.0,279.0,574.0,0.0,0,597.0,1
408,408,-0.6885995844018339,-0.7,0.0,1.0,354.0,966.0,1.0,0,250.0,1
409,409,0.6675688529585647,0.7,1.0,1.0,467.0,993.0,1.0,1,390.0,1
410,410,-0.3518656401203435,-0.4,1.0,0.0,271.0,538.0,0.0,0,61.0,1
411,411,0.38750912430250517,0.4,1.0,1.0,435.0,794.0,1.0,1,151.0,1
412,412,-0.7223189580184186,-0.7,1.0,0.0,356.0,500.0,0.0,0,144.0,1
413,413,0.3671506344475922,0.4,0.0,0.0,491.0,603.0,0.0,1,916.0,1
414,414,-0.6844890641167557,-0.7,1.0,0.0,279.0,756.0,0.0,0,295.0,1
415,415,-0.8863008985738353,-0.9,0.0,1.0,388.0,661.0,1.0,0,201.0,1
416,416,0.33087572530721066,0.3,0.0,0.0,328.0,830.0,0.0,1,-88.0,1
417,417,0.6712860164506637,0.7,0.0,0.0,266.0,824.0,0.0,1,1070.0,1
418,418,-0.47657684765074243,-0.5,1.0,0.0,375.0,925.0,0.0,0,580.0,1
419,419,0.6583782532693089,0.7,1.0,1.0,330.0,952.0,1.0,1,198.0,1
420,420,-0.23801933831871724,-0.2,0.0,1.0,348.0,743.0,1.0,0,289.0,1
421,421,0.5363719334978868,0.5,1.0,1.0,311.0,745.0,1.0,1,164.0,1
422,422,-0.4521067258642561,-0.5,1.0,0.0,335.0,986.0,0.0,0,479.0,1
423,423,0.31272574853904056,0.3,0.0,0.0,483.0,973.0,0.0,1,534.0,1
424,424,0.2537321580418542,0.3,0.0,0.0,406.0,767.0,0.0,1,1167.0,1
425,425,0.6382069127061499,0.6,0.0,0.0,288.0,982.0,0.0,1,1370.0,1
426,426,0.36861708687998085,0.4,0.0,0.0,326.0,641.0,0.0,1,263.0,1
427,427,0.01755799425565796,0.0,0.0,0.0,465.0,764.0,0.0,1,1771.0,1
428,428,-0.6445194366590667,-0.6,0.0,1.0,485.0,707.0,1.0,0,148.0,1
429,429,0.6776605711583438,0.7,0.0,0.0,349.0,896.0,0.0,1,385.0,1
430,430,0.37421735527819144,0.4,0.0,0.0,383.0,919.0,0.0,1,318.0,1
431,431,-0.03824208760486725,-0.0,0.0,1.0,332.0,877.0,1.0,0,1791.0,1
432,432,-0.8080403368975365,-0.8,1.0,0.0,435.0,843.0,0.0,0,102.0,1
433,433,-0.283520456695896,-0.3,0.0,1.0,462.0,840.0,1.0,0,1088.0,1
434,434,-0.03159798571866301,-0.0,1.0,0.0,330.0,824.0,1.0,1,1106.0,0
435,435,-0.3081492354256288,-0.3,0.0,1.0,403.0,891.0,1.0,0,346.0,1
436,436,-0.7595054934920297,-0.8,1.0,0.0,494.0,553.0,0.0,0,523.0,1
437,437,0.12327291953405373,0.1,1.0,1.0,343.0,748.0,1.0,1,929.0,1
438,438,-0.6050431474041322,-0.6,0.0,1.0,487.0,542.0,1.0,0,191.0,1
439,439,-0.3993776081318622,-0.4,0.0,1.0,418.0,898.0,1.0,0,464.0,1
440,440,0.294005579554523,0.3,1.0,1.0,333.0,565.0,1.0,1,832.0,1
441,441,-0.5040944317388258,-0.5,1.0,0.0,388.0,682.0,0.0,0,490.0,1
442,442,-0.36905838804052904,-0.4,0.0,1.0,301.0,892.0,1.0,0,667.0,1
443,443,0.10939933287961978,0.1,1.0,1.0,495.0,655.0,1.0,1,1850.0,1
444,444,-0.7316723515949817,-0.7,1.0,0.0,291.0,640.0,0.0,0,319.0,1
445,445,-0.5565396965123012,-0.6,1.0,0.0,285.0,591.0,0.0,0,454.0,1
446,446,0.42409329435530585,0.4,1.0,1.0,443.0,683.0,1.0,1,294.0,1
447,447,0.865033380881392,0.9,0.0,0.0,403.0,890.0,0.0,1,497.0,1
448,448,-0.31820528039135687,-0.3,0.0,1.0,476.0,534.0,1.0,0,450.0,1
449,449,0.02334160171610533,0.0,1.0,1.0,419.0,958.0,0.0,0,93.0,0
450,450,-0.7447933287555766,-0.7,0.0,1.0,470.0,567.0,1.0,0,553.0,1
451,451,-0.6583077811377529,-0.7,1.0,0.0,302.0,723.0,0.0,0,375.0,1
452,452,0.8272193565656497,0.8,1.0,1.0,310.0,798.0,1.0,1,222.0,1
453,453,-0.6653643068946329,-0.7,1.0,0.0,285.0,642.0,0.0,0,193.0,1
454,454,-0.03262237148874181,-0.0,0.0,1.0,257.0,552.0,1.0,0,2191.0,1
455,455,0.753916571887273,0.8,1.0,1.0,362.0,771.0,1.0,1,377.0,1
456,456,0.6360602867576785,0.6,0.0,0.0,268.0,653.0,0.0,1,169.0,1
457,457,-0.20392817250612805,-0.2,0.0,1.0,421.0,812.0,1.0,0,527.0,1
458,458,-0.15060208512911333,-0.2,1.0,0.0,462.0,769.0,1.0,1,1769.0,0
459,459,-0.8441237619811263,-0.8,0.0,1.0,281.0,612.0,1.0,0,187.0,1
460,460,0.7926413777536635,0.8,1.0,1.0,462.0,709.0,1.0,1,79.0,1
461,461,0.7841532988511798,0.8,0.0,0.0,269.0,521.0,0.0,1,220.0,1
462,462,-0.036790948549809355,-0.0,1.0,0.0,473.0,680.0,0.0,0,1847.0,1
463,463,0.6914883155988379,0.7,0.0,0.0,355.0,587.0,0.0,1,88.0,1
464,464,-0.4171050904774982,-0.4,1.0,0.0,461.0,622.0,0.0,0,287.0,1
465,465,-0.24122573763358435,-0.2,1.0,0.0,425.0,826.0,0.0,0,1229.0,1
466,466,-0.6411876539894914,-0.6,1.0,0.0,493.0,717.0,0.0,0,530.0,1
467,467,-0.7087483575876108,-0.7,1.0,0.0,316.0,822.0,0.0,0,222.0,1
468,468,0.3209137331646451,0.3,0.0,0.0,275.0,536.0,0.0,1,2189.0,1
469,469,0.7820678143072864,0.8,1.0,1.0,311.0,862.0,1.0,1,427.0,1
470,470,0.06946798316786018,0.1,0.0,0.0,297.0,610.0,1.0,0,2093.0,0
471,471,-0.6374707736894429,-0.6,0.0,1.0,435.0,759.0,1.0,0,286.0,1
472,472,-0.30439866891742606,-0.3,0.0,1.0,473.0,579.0,1.0,0,648.0,1
473,473,0.02991123367705384,0.0,1.0,1.0,419.0,576.0,1.0,1,2005.0,1
474,474,0.578075027729798,0.6,0.0,0.0,382.0,815.0,0.0,1,433.0,1
475,475,-0.01834558147811749,-0.0,0.0,1.0,411.0,774.0,1.0,0,1815.0,1
476,476,0.28882835856804323,0.3,1.0,1.0,460.0,895.0,1.0,1,445.0,1
477,477,-0.3427736677826919,-0.3,1.0,0.0,406.0,682.0,0.0,0,262.0,1
478,478,-0.23453685542436586,-0.2,0.0,1.0,417.0,614.0,1.0,0,619.0,1
479,479,0.01967232772250016,0.0,0.0,0.0,424.0,839.0,0.0,1,1737.0,1
480,480,-0.42120664057765533,-0.4,0.0,1.0,433.0,533.0,1.0,0,324.0,1
481,481,-0.5145827586176284,-0.5,0.0,1.0,423.0,898.0,1.0,0,319.0,1
482,482,0.466682563508095,0.5,0.0,0.0,469.0,565.0,0.0,1,116.0,1
483,483,-0.2555660433308121,-0.3,0.0,1.0,275.0,599.0,1.0,0,516.0,1
484,484,0.7194797554986067,0.7,0.0,0.0,346.0,747.0,0.0,1,357.0,1
485,485,0.6523616759029801,0.7,1.0,1.0,398.0,716.0,1.0,1,196.0,1
486,486,-0.09840845359504269,-0.1,0.0,1.0,481.0,865.0,1.0,0,1654.0,1
487,487,0.70862731187732,0.7,1.0,1.0,323.0,638.0,1.0,1,249.0,1
488,488,-0.04099433609037073,-0.0,1.0,0.0,478.0,748.0,1.0,1,1774.0,0
489,489,0.5214356931753853,0.5,0.0,0.0,407.0,981.0,0.0,1,462.0,1
490,490,0.4330461555138504,0.4,1.0,1.0,456.0,572.0,1.0,1,732.0,1
491,491,-0.046941754590241636,-0.0,0.0,1.0,250.0,941.0,1.0,0,1809.0,1
492,492,0.12486506156630794,0.1,1.0,1.0,487.0,828.0,1.0,1,475.0,1
493,493,0.7811701919175266,0.8,1.0,1.0,360.0,604.0,1.0,1,196.0,1
494,494,0.0026085667116189093,0.0,0.0,0.0,305.0,600.0,0.0,1,2095.0,1
495,495,-0.7681345665630419,-0.8,1.0,0.0,423.0,539.0,0.0,0,318.0,1
496,496,-0.13583945141771447,-0.1,0.0,1.0,476.0,925.0,1.0,0,549.0,1
497,497,-0.11638324065713324,-0.1,0.0,1.0,428.0,685.0,1.0,0,1887.0,1
498,498,-0.06465202057931829,-0.1,0.0,1.0,434.0,523.0,1.0,0,713.0,1
499,499,0.15289504711769586,0.2,1.0,1.0,344.0,650.0,1.0,1,316.0,1
500,500,-0.5147301543071043,-0.5,0.0,1.0,356.0,897.0,1.0,0,197.0,1
501,501,-0.02529198596602167,-0.0,0.0,1.0,378.0,735.0,1.0,0,257.0,1
502,502,-0.6180809709811932,-0.6,0.0,1.0,499.0,757.0,1.0,0,-96.0,1
503,503,-0.6508586379858503,-0.7,1.0,0.0,332.0,935.0,1.0,1,-127.0,0
504,504,-0.7870793844620578,-0.8,0.0,1.0,261.0,572.0,1.0,0,137.0,1
505,505,-0.12498391563839872,-0.1,1.0,0.0,261.0,993.0,0.0,0,1746.0,1
506,506,0.46882514921225116,0.5,1.0,1.0,373.0,855.0,1.0,1,332.0,1
507,507,0.7050847922198599,0.7,0.0,0.0,314.0,723.0,0.0,1,433.0,1
508,508,0.8854818787861142,0.9,0.0,0.0,305.0,996.0,0.0,1,159.0,1
509,509,-0.015285145692613966,-0.0,0.0,1.0,325.0,753.0,1.0,0,1922.0,1
510,510,0.14362448230005176,0.1,0.0,0.0,449.0,567.0,0.0,1,1704.0,1
511,511,0.49971175065798434,0.5,1.0,1.0,256.0,970.0,1.0,1,264.0,1
512,512,0.6527352887155139,0.7,1.0,1.0,252.0,826.0,1.0,1,132.0,1
513,513,-0.20808291873255869,-0.2,0.0,1.0,347.0,518.0,1.0,0,755.0,1
514,514,0.23602973187073883,0.2,0.0,0.0,268.0,502.0,0.0,1,910.0,1
515,515,0.20733138315423527,0.2,0.0,0.0,339.0,569.0,0.0,1,952.0,1
516,516,0.2542463225226249,0.3,1.0,1.0,433.0,761.0,1.0,1,436.0,1
517,517,-0.02923403985134332,-0.0,0.0,1.0,301.0,505.0,1.0,0,2194.0,1
518,518,-0.8119528846677299,-0.8,0.0,1.0,288.0,882.0,1.0,0,170.0,1
519,519,0.3824530071473716,0.4,0.0,0.0,265.0,861.0,0.0,1,1394.0,1
520,520,-0.41507178660998556,-0.4,1.0,0.0,345.0,566.0,0.0,0,689.0,1
521,521,-0.8964250676403954,-0.9,0.0,1.0,485.0,964.0,1.0,0,121.0,1
522,522,0.20314388278081175,0.2,0.0,0.0,334.0,849.0,0.0,1,647.0,1
523,523,-0.7492365567119011,-0.7,1.0,0.0,406.0,695.0,0.0,0,329.0,1
524,524,-0.6233952759956556,-0.6,0.0,1.0,293.0,580.0,1.0,0,227.0,1
525,525,-0.6590134172854286,-0.7,0.0,1.0,353.0,917.0,1.0,0,360.0,1
526,526,0.05486095693713722,0.1,0.0,0.0,495.0,578.0,0.0,1,1927.0,1
527,527,0.3123636252039451,0.3,1.0,1.0,256.0,893.0,1.0,1,301.0,1
528,528,-0.5993136045536425,-0.6,0.0,1.0,291.0,946.0,1.0,0,213.0,1
529,529,-0.41900428269663487,-0.4,1.0,0.0,321.0,712.0,0.0,0,447.0,1
530,530,-0.10708774584984881,-0.1,1.0,0.0,315.0,626.0,0.0,0,2059.0,1
531,531,-0.42750478021293375,-0.4,0.0,1.0,329.0,780.0,1.0,0,401.0,1
532,532,0.2640942421041109,0.3,0.0,0.0,456.0,979.0,0.0,1,1565.0,1
533,533,0.04752041155051745,0.0,1.0,1.0,319.0,613.0,1.0,1,2068.0,1
534,534,0.3207439426710418,0.3,0.0,0.0,305.0,776.0,0.0,1,449.0,1
535,535,-0.5593889133017003,-0.6,0.0,1.0,320.0,932.0,1.0,0,218.0,1
536,536,-0.6993469903987722,-0.7,1.0,0.0,316.0,875.0,0.0,0,339.0,1
537,537,0.7726488258922536,0.8,0.0,0.0,380.0,847.0,0.0,1,373.0,1
538,538,0.3868496285329167,0.4,1.0,1.0,464.0,557.0,1.0,1,379.0,1
539,539,0.5086984065476959,0.5,1.0,1.0,480.0,773.0,1.0,1,177.0,1
540,540,0.7940024548414596,0.8,0.0,0.0,467.0,605.0,0.0,1,258.0,1
541,541,0.42197902939510834,0.4,1.0,1.0,319.0,997.0,1.0,1,634.0,1
542,542,0.13207242024247934,0.1,1.0,1.0,420.0,847.0,1.0,1,1063.0,1
543,543,0.520532338317882,0.5,1.0,1.0,430.0,706.0,1.0,1,344.0,1
544,544,0.03604492793568881,0.0,0.0,0.0,314.0,806.0,1.0,0,1880.0,0
545,545,0.7156482356082964,0.7,0.0,0.0,442.0,567.0,0.0,1,751.0,1
546,546,0.42972088553518295,0.4,0.0,0.0,448.0,548.0,0.0,1,284.0,1
547,547,-0.8344128148907389,-0.8,1.0,0.0,414.0,763.0,0.0,0,263.0,1
548,548,0.8605581366386345,0.9,1.0,1.0,337.0,807.0,1.0,1,266.0,1
549,549,0.8215094376935069,0.8,1.0,1.0,358.0,740.0,1.0,1,232.0,1
550,550,0.5407860529475027,0.5,1.0,1.0,266.0,785.0,1.0,1,349.0,1
551,551,-0.2661377134645315,-0.3,0.0,1.0,425.0,844.0,1.0,0,291.0,1
552,552,-0.11302613062459343,-0.1,0.0,1.0,358.0,795.0,1.0,0,1707.0,1
553,553,-0.6154945705595267,-0.6,0.0,1.0,495.0,771.0,1.0,0,254.0,1
554,554,-0.2528431938006912,-0.3,1.0,0.0,396.0,915.0,0.0,0,499.0,1
555,555,0.39942021679291806,0.4,1.0,1.0,290.0,922.0,1.0,1,358.0,1
556,556,0.6801531139178331,0.7,1.0,1.0,337.0,548.0,1.0,1,275.0,1
557,557,0.3236232860944278,0.3,0.0,0.0,402.0,758.0,0.0,1,550.0,1
558,558,-0.027665212808716477,-0.0,0.0,1.0,498.0,898.0,1.0,0,1604.0,1
559,559,0.803449416663295,0.8,1.0,1.0,295.0,904.0,1.0,1,261.0,1
560,560,0.12189013917556435,0.1,1.0,1.0,403.0,668.0,1.0,1,1449.0,1
561,561,0.2020493831625133,0.2,1.0,1.0,343.0,580.0,1.0,1,1097.0,1
562,562,0.4236311246492207,0.4,1.0,1.0,385.0,843.0,1.0,1,212.0,1
563,563,-0.41994074077728843,-0.4,1.0,0.0,358.0,821.0,0.0,0,321.0,1
564,564,-0.02978814277364661,-0.0,0.0,1.0,499.0,549.0,1.0,0,1952.0,1
565,565,-0.6895226456117944,-0.7,1.0,0.0,288.0,988.0,0.0,0,334.0,1
566,566,0.04361663484917255,0.0,1.0,1.0,480.0,761.0,1.0,1,1759.0,1
567,567,-0.8422387849714156,-0.8,0.0,1.0,379.0,613.0,1.0,0,198.0,1
568,568,0.8045498480397827,0.8,1.0,1.0,321.0,595.0,1.0,1,164.0,1
569,569,-0.2143030827303013,-0.2,1.0,0.0,319.0,700.0,0.0,0,481.0,1
570,570,-0.17224164753825089,-0.2,0.0,1.0,282.0,819.0,1.0,0,499.0,1
571,571,-0.5483569251775235,-0.5,0.0,1.0,332.0,859.0,1.0,0,689.0,1
572,572,-0.5396048232539619,-0.5,0.0,1.0,342.0,788.0,1.0,0,260.0,1
573,573,-0.1783407553892744,-0.2,1.0,0.0,272.0,523.0,0.0,0,665.0,1
574,574,-0.07207350974615301,-0.1,1.0,0.0,255.0,984.0,1.0,1,1761.0,0
575,575,0.8076319737009682,0.8,0.0,0.0,483.0,812.0,0.0,1,385.0,1
576,576,0.26405887889104107,0.3,1.0,1.0,390.0,887.0,1.0,1,583.0,1
577,577,0.7160227681901855,0.7,0.0,0.0,329.0,611.0,0.0,1,290.0,1
578,578,0.33590872536612626,0.3,1.0,1.0,433.0,770.0,1.0,1,547.0,1
579,579,0.2524819114391027,0.3,1.0,1.0,429.0,664.0,1.0,1,107.0,1
580,580,0.032708472211743334,0.0,0.0,0.0,292.0,723.0,0.0,1,1985.0,1
581,581,-0.271636733524352,-0.3,1.0,0.0,460.0,849.0,0.0,0,741.0,1
582,582,0.7683082138090537,0.8,0.0,0.0,359.0,986.0,0.0,1,425.0,1
583,583,-0.16009535245535433,-0.2,0.0,1.0,339.0,755.0,1.0,0,1286.0,1
584,584,0.0078019204182130375,0.0,1.0,1.0,486.0,542.0,1.0,1,1972.0,1
585,585,0.026845338748351155,0.0,1.0,1.0,470.0,802.0,1.0,1,1148.0,1
586,586,0.793053852750924,0.8,0.0,0.0,323.0,557.0,0.0,1,210.0,1
587,587,0.7959152479273924,0.8,0.0,0.0,255.0,866.0,0.0,1,199.0,1
588,588,-0.7565017628177065,-0.8,1.0,0.0,398.0,563.0,0.0,0,419.0,1
589,589,-0.18638548648623854,-0.2,0.0,1.0,333.0,782.0,1.0,0,875.0,1
590,590,-0.743571604153045,-0.7,0.0,1.0,464.0,981.0,1.0,0,165.0,1
591,591,-0.2754227434397182,-0.3,1.0,0.0,495.0,838.0,0.0,0,747.0,1
592,592,0.28401776447390603,0.3,0.0,0.0,375.0,590.0,0.0,1,445.0,1
593,593,0.8639176030904604,0.9,1.0,1.0,280.0,688.0,1.0,1,182.0,1
594,594,0.10147405483001004,0.1,0.0,0.0,267.0,689.0,0.0,1,2044.0,1
595,595,0.5879909210498456,0.6,1.0,1.0,256.0,758.0,1.0,1,276.0,1
596,596,0.08893500683525102,0.1,0.0,0.0,309.0,926.0,0.0,1,1765.0,1
597,597,-0.5645426721316695,-0.6,1.0,0.0,396.0,999.0,0.0,0,285.0,1
598,598,-0.8522323849515013,-0.9,1.0,0.0,350.0,835.0,0.0,0,295.0,1
599,599,-0.6357158095475344,-0.6,1.0,0.0,274.0,942.0,0.0,0,354.0,1
600,600,0.7089868525219395,0.7,0.0,0.0,293.0,866.0,0.0,1,111.0,1
601,601,0.10884102986822708,0.1,0.0,0.0,384.0,915.0,0.0,1,1701.0,1
602,602,0.13505837104654728,0.1,1.0,1.0,430.0,648.0,1.0,1,1022.0,1
603,603,0.616996228520088,0.6,0.0,0.0,344.0,691.0,0.0,1,305.0,1
604,604,-0.16596022499620622,-0.2,0.0,1.0,448.0,861.0,1.0,0,1351.0,1
605,605,0.2373387300739812,0.2,0.0,0.0,411.0,732.0,0.0,1,477.0,1
606,606,0.5303753496093649,0.5,1.0,1.0,323.0,816.0,1.0,1,161.0,1
607,607,0.17559335501289064,0.2,0.0,0.0,483.0,903.0,0.0,1,784.0,1
608,608,0.2538664753924714,0.3,0.0,0.0,359.0,955.0,0.0,1,1686.0,1
609,609,0.8131840631119706,0.8,0.0,0.0,333.0,562.0,0.0,1,275.0,1
610,610,-0.47175503320889406,-0.5,0.0,1.0,395.0,755.0,1.0,0,520.0,1
611,611,-0.8636234823191903,-0.9,1.0,0.0,456.0,916.0,0.0,0,168.0,1
612,612,0.4226946620448949,0.4,1.0,1.0,347.0,580.0,1.0,1,293.0,1
613,613,0.041584231102614666,0.0,0.0,0.0,440.0,946.0,1.0,0,1614.0,0
614,614,0.2678657521628599,0.3,1.0,1.0,320.0,658.0,1.0,1,882.0,1
615,615,-0.052032171575517316,-0.1,1.0,0.0,411.0,753.0,1.0,1,1836.0,0
616,616,-0.3800051247290631,-0.4,0.0,1.0,463.0,969.0,1.0,0,358.0,1
617,617,0.14397241132014182,0.1,0.0,0.0,457.0,838.0,1.0,0,-75.0,0
618,618,-0.24526473298148,-0.2,0.0,1.0,440.0,838.0,1.0,0,462.0,1
619,619,0.6450402917467383,0.6,1.0,1.0,409.0,787.0,1.0,1,154.0,1
620,620,-0.048018228586009126,-0.0,1.0,0.0,297.0,979.0,1.0,1,1724.0,0
621,621,0.1450364878505398,0.1,1.0,1.0,333.0,964.0,1.0,1,633.0,1
622,622,-0.679409574517359,-0.7,1.0,0.0,334.0,959.0,0.0,0,307.0,1
623,623,-0.6946329395956746,-0.7,1.0,0.0,424.0,904.0,0.0,0,302.0,1
624,624,0.2795656448711551,0.3,0.0,0.0,385.0,578.0,0.0,1,1117.0,1
625,625,0.6346296038585674,0.6,0.0,0.0,276.0,964.0,0.0,1,200.0,1
626,626,0.6881178303560026,0.7,1.0,1.0,287.0,992.0,1.0,1,171.0,1
627,627,0.8375532064099568,0.8,1.0,1.0,259.0,793.0,1.0,1,218.0,1
628,628,0.10439956983163567,0.1,1.0,1.0,397.0,710.0,1.0,1,633.0,1
629,629,0.4671634396801384,0.5,0.0,0.0,482.0,734.0,0.0,1,434.0,1
630,630,0.0032896292141795236,0.0,1.0,1.0,301.0,547.0,0.0,0,2152.0,0
631,631,0.0014709570330728727,0.0,0.0,0.0,367.0,521.0,1.0,0,2112.0,0
632,632,-0.052911584324546235,-0.1,1.0,0.0,324.0,870.0,1.0,1,536.0,0
633,633,-0.43529542226940904,-0.4,0.0,1.0,421.0,977.0,1.0,0,362.0,1
634,634,0.08962838338690382,0.1,1.0,1.0,293.0,814.0,1.0,1,1863.0,1
635,635,0.689672906465013,0.7,1.0,1.0,417.0,785.0,1.0,1,298.0,1
636,636,-0.5102307362302962,-0.5,1.0,0.0,353.0,990.0,0.0,0,437.0,1
637,637,-0.8159202110583054,-0.8,0.0,1.0,412.0,637.0,1.0,0,191.0,1
638,638,0.8994413464548677,0.9,0.0,0.0,263.0,563.0,0.0,1,854.0,1
639,639,0.8068120894968448,0.8,1.0,1.0,298.0,958.0,1.0,1,224.0,1
640,640,0.11932509418136428,0.1,1.0,1.0,397.0,708.0,1.0,1,865.0,1
641,641,-0.062188158571855334,-0.1,0.0,1.0,455.0,735.0,1.0,0,1810.0,1
642,642,0.15142398933876378,0.2,1.0,1.0,327.0,612.0,1.0,1,471.0,1
643,643,0.5436772731222578,0.5,1.0,1.0,373.0,502.0,1.0,1,625.0,1
644,644,-0.47242281601664027,-0.5,1.0,0.0,291.0,661.0,0.0,0,338.0,1
645,645,-0.384566002543026,-0.4,0.0,1.0,437.0,735.0,1.0,0,398.0,1
646,646,-0.3181802617619143,-0.3,0.0,1.0,425.0,646.0,1.0,0,559.0,1
647,647,0.5422521425994452,0.5,1.0,1.0,256.0,912.0,1.0,1,292.0,1
648,648,0.8644456856517754,0.9,1.0,1.0,323.0,697.0,1.0,1,230.0,1
649,649,0.23375774753546785,0.2,0.0,0.0,322.0,569.0,0.0,1,1879.0,1
650,650,0.6864593658252428,0.7,1.0,1.0,473.0,991.0,1.0,1,-304.0,1
651,651,0.39076463833066877,0.4,0.0,0.0,319.0,866.0,0.0,1,445.0,1
652,652,-0.24911949456708604,-0.2,0.0,1.0,299.0,817.0,1.0,0,984.0,1
653,653,-0.036997095248298195,-0.0,0.0,1.0,396.0,551.0,0.0,1,2053.0,0
654,654,-0.5419841214184532,-0.5,1.0,0.0,460.0,663.0,0.0,0,207.0,1
655,655,-0.6274424911921193,-0.6,0.0,1.0,250.0,576.0,1.0,0,184.0,1
656,656,0.8461624928834243,0.8,1.0,1.0,381.0,890.0,1.0,1,119.0,1
657,657,-0.603636295907495,-0.6,1.0,0.0,255.0,902.0,0.0,0,103.0,1
658,658,0.6352611104939102,0.6,0.0,0.0,276.0,833.0,0.0,1,281.0,1
659,659,-0.5726325209029424,-0.6,0.0,1.0,347.0,992.0,1.0,0,331.0,1
660,660,0.23698947789114844,0.2,0.0,0.0,346.0,510.0,0.0,1,674.0,1
661,661,-0.03986127797710792,-0.0,1.0,0.0,489.0,893.0,1.0,1,1618.0,0
662,662,-0.024246009689375292,-0.0,0.0,1.0,265.0,529.0,1.0,0,2206.0,1
663,663,-0.8257417474880914,-0.8,1.0,0.0,342.0,909.0,0.0,0,349.0,1
664,664,0.5109291213649366,0.5,0.0,0.0,283.0,899.0,0.0,1,298.0,1
665,665,-0.7508302580635761,-0.8,1.0,0.0,268.0,587.0,0.0,0,335.0,1
666,666,-0.6345488196837259,-0.6,1.0,0.0,308.0,791.0,0.0,0,221.0,1
667,667,-0.5739947165608619,-0.6,0.0,1.0,264.0,766.0,1.0,0,300.0,1
668,668,0.5129994524960605,0.5,0.0,0.0,405.0,659.0,0.0,1,306.0,1
669,669,0.39889554464914945,0.4,0.0,0.0,363.0,715.0,0.0,1,662.0,1
670,670,0.8613733626768451,0.9,0.0,0.0,357.0,523.0,0.0,1,290.0,1
671,671,-0.2880261000850759,-0.3,1.0,0.0,270.0,540.0,0.0,0,2190.0,1
672,672,0.017558677282480395,0.0,0.0,0.0,486.0,891.0,1.0,0,1623.0,0
673,673,0.5482089098067223,0.5,0.0,0.0,345.0,676.0,0.0,1,169.0,1
674,674,-0.1034385369721379,-0.1,1.0,0.0,330.0,992.0,1.0,1,1678.0,0
675,675,-0.5205868639510439,-0.5,0.0,1.0,383.0,866.0,1.0,0,261.0,1
676,676,-0.6472295552204297,-0.6,0.0,1.0,354.0,821.0,1.0,0,175.0,1
677,677,-0.07934703761060746,-0.1,1.0,0.0,295.0,767.0,1.0,1,1938.0,0
678,678,0.2400417506624467,0.2,1.0,1.0,355.0,671.0,1.0,1,554.0,1
679,679,0.4133384572877655,0.4,0.0,0.0,478.0,623.0,0.0,1,1249.0,1
680,680,-0.4576266562398449,-0.5,0.0,1.0,429.0,541.0,1.0,0,190.0,1
681,681,0.10359541196522482,0.1,1.0,1.0,257.0,822.0,1.0,1,551.0,1
682,682,0.025261694784372013,0.0,0.0,0.0,366.0,812.0,1.0,0,762.0,0
683,683,-0.7702829943114555,-0.8,0.0,1.0,321.0,553.0,1.0,0,336.0,1
684,684,-0.8561234582442323,-0.9,1.0,0.0,456.0,510.0,0.0,0,134.0,1
685,685,0.7763046646826804,0.8,1.0,1.0,338.0,847.0,1.0,1,295.0,1
686,686,-0.859945486410913,-0.9,1.0,0.0,416.0,712.0,1.0,1,12.0,0
687,687,-0.6155276284082187,-0.6,1.0,0.0,453.0,837.0,0.0,0,360.0,1
688,688,0.32847959338790955,0.3,0.0,0.0,329.0,929.0,0.0,1,1022.0,1
689,689,-0.7374408750740977,-0.7,1.0,0.0,427.0,795.0,0.0,0,188.0,1
690,690,-0.13779190479542924,-0.1,1.0,0.0,269.0,753.0,0.0,0,1978.0,1
691,691,0.12644277905968282,0.1,0.0,0.0,295.0,926.0,0.0,1,1779.0,1
692,692,0.2938498930310881,0.3,0.0,0.0,291.0,674.0,0.0,1,1115.0,1
693,693,0.5571392932871394,0.6,0.0,0.0,445.0,624.0,0.0,1,491.0,1
694,694,-0.7357036032280981,-0.7,0.0,1.0,281.0,612.0,1.0,0,167.0,1
695,695,0.7391721415276261,0.7,0.0,0.0,402.0,559.0,0.0,1,179.0,1
696,696,-0.32645642769106975,-0.3,0.0,1.0,485.0,838.0,1.0,0,637.0,1
697,697,-0.5045658586557876,-0.5,0.0,1.0,279.0,988.0,1.0,0,193.0,1
698,698,0.026875953943861663,0.0,1.0,1.0,264.0,950.0,1.0,1,1786.0,1
699,699,-0.11990443050813371,-0.1,1.0,0.0,364.0,765.0,0.0,0,1871.0,1
700,700,0.6251459506727787,0.6,0.0,0.0,384.0,569.0,0.0,1,247.0,1
701,701,0.8831844566881933,0.9,1.0,1.0,272.0,754.0,1.0,1,194.0,1
702,702,0.8703529242023235,0.9,1.0,1.0,265.0,522.0,1.0,1,283.0,1
703,703,-0.14305049977610562,-0.1,1.0,0.0,417.0,528.0,0.0,0,345.0,1
704,704,0.4627947007892049,0.5,0.0,0.0,478.0,688.0,0.0,1,614.0,1
705,705,0.7865067199641479,0.8,1.0,1.0,418.0,959.0,1.0,1,213.0,1
706,706,-0.831211008020096,-0.8,1.0,0.0,306.0,929.0,0.0,0,205.0,1
707,707,0.4177815916956772,0.4,1.0,1.0,395.0,775.0,1.0,1,330.0,1
708,708,0.28361383347796665,0.3,0.0,0.0,450.0,825.0,0.0,1,1055.0,1
709,709,0.7393353717205978,0.7,1.0,1.0,458.0,699.0,1.0,1,143.0,1
710,710,-0.6873293695993885,-0.7,0.0,1.0,482.0,951.0,1.0,0,197.0,1
711,711,-0.39057396778414155,-0.4,1.0,0.0,405.0,808.0,0.0,0,477.0,1
712,712,0.7072486892854523,0.7,1.0,1.0,344.0,786.0,1.0,1,170.0,1
713,713,0.6813700646675099,0.7,0.0,0.0,472.0,976.0,0.0,1,452.0,1
714,714,0.5516371289534517,0.6,0.0,0.0,316.0,804.0,0.0,1,230.0,1
715,715,0.46733605496937625,0.5,0.0,0.0,316.0,774.0,0.0,1,560.0,1
716,716,0.8062113635088984,0.8,0.0,0.0,273.0,619.0,0.0,1,328.0,1
717,717,0.44869928603738674,0.4,0.0,0.0,357.0,660.0,0.0,1,343.0,1
718,718,0.3939270116638437,0.4,0.0,0.0,299.0,863.0,0.0,1,1568.0,1
719,719,0.09653237144653726,0.1,1.0,1.0,394.0,941.0,1.0,1,1615.0,1
720,720,0.3389965845591708,0.3,0.0,0.0,485.0,979.0,0.0,1,536.0,1
721,721,0.6995881606958861,0.7,0.0,0.0,424.0,714.0,0.0,1,162.0,1
722,722,0.4473286415401917,0.4,1.0,1.0,442.0,616.0,1.0,1,432.0,1
723,723,0.2813704105682652,0.3,1.0,1.0,470.0,955.0,1.0,1,365.0,1
724,724,0.37227290753281406,0.4,1.0,1.0,303.0,776.0,1.0,1,451.0,1
725,725,0.09758718180147574,0.1,1.0,1.0,445.0,783.0,1.0,1,1712.0,1
726,726,0.8991783411370692,0.9,0.0,0.0,298.0,917.0,0.0,1,315.0,1
727,727,-0.47618566517817684,-0.5,1.0,0.0,476.0,662.0,0.0,0,222.0,1
728,728,-0.867488669184658,-0.9,0.0,1.0,416.0,822.0,1.0,0,72.0,1
729,729,-0.6285085004613411,-0.6,0.0,1.0,474.0,567.0,1.0,0,369.0,1
730,730,0.665886643833047,0.7,0.0,0.0,458.0,923.0,1.0,0,-51.0,0
731,731,-0.2512526632063098,-0.3,1.0,0.0,253.0,542.0,0.0,0,865.0,1
732,732,-0.5181835382565887,-0.5,0.0,1.0,430.0,626.0,1.0,0,584.0,1
733,733,0.10915391630800297,0.1,1.0,1.0,285.0,718.0,1.0,1,1177.0,1
734,734,0.3638045701155733,0.4,1.0,1.0,317.0,712.0,1.0,1,231.0,1
735,735,-0.434260926095657,-0.4,1.0,0.0,349.0,683.0,0.0,0,298.0,1
736,736,0.5935267623221957,0.6,0.0,0.0,449.0,673.0,0.0,1,438.0,1
737,737,0.22815922114536658,0.2,1.0,1.0,462.0,585.0,1.0,1,913.0,1
738,738,-0.14647354789935885,-0.1,1.0,0.0,314.0,938.0,0.0,0,1748.0,1
739,739,0.13389374272535715,0.1,0.0,0.0,268.0,603.0,0.0,1,2129.0,1
740,740,0.786005658653319,0.8,1.0,1.0,289.0,659.0,1.0,1,202.0,1
741,741,-0.3363279438735495,-0.3,0.0,1.0,458.0,719.0,1.0,0,223.0,1
742,742,-0.5657192790430778,-0.6,1.0,0.0,401.0,777.0,0.0,0,232.0,1
743,743,0.5592740621805882,0.6,0.0,0.0,354.0,925.0,0.0,1,211.0,1
744,744,0.035395272927076005,0.0,0.0,0.0,407.0,965.0,1.0,0,-312.0,0
745,745,0.3308494399641092,0.3,1.0,1.0,439.0,888.0,1.0,1,333.0,1
746,746,0.7748042537786844,0.8,0.0,0.0,402.0,545.0,0.0,1,703.0,1
747,747,0.5001080405660773,0.5,0.0,0.0,331.0,722.0,0.0,1,687.0,1
748,748,0.8883546988905983,0.9,0.0,0.0,305.0,690.0,0.0,1,665.0,1
749,749,0.09089064303507954,0.1,0.0,0.0,275.0,537.0,1.0,0,2188.0,0
750,750,-0.3163847996553819,-0.3,1.0,0.0,330.0,918.0,1.0,1,-78.0,0
751,751,0.15119765678381303,0.2,1.0,1.0,363.0,560.0,1.0,1,707.0,1
752,752,0.033393209212359554,0.0,0.0,0.0,305.0,702.0,0.0,1,1993.0,1
753,753,-0.16779897961815393,-0.2,0.0,1.0,418.0,788.0,1.0,0,1514.0,1
754,754,-0.028151850379844134,-0.0,0.0,1.0,315.0,811.0,1.0,0,84.0,1
755,755,0.7632930429029444,0.8,1.0,1.0,288.0,746.0,1.0,1,296.0,1
756,756,0.16406963952239983,0.2,0.0,0.0,314.0,738.0,0.0,1,298.0,1
757,757,-0.07919056463308205,-0.1,1.0,0.0,429.0,657.0,1.0,1,734.0,0
758,758,0.02959414284512718,0.0,0.0,0.0,498.0,937.0,0.0,1,1505.0,1
759,759,-0.48845709840803087,-0.5,1.0,0.0,447.0,780.0,0.0,0,223.0,1
760,760,-0.4904462497940592,-0.5,0.0,1.0,327.0,599.0,1.0,0,334.0,1
761,761,0.026860482924323636,0.0,0.0,0.0,315.0,539.0,1.0,0,2146.0,0
762,762,-0.43281495272321907,-0.4,1.0,0.0,294.0,675.0,0.0,0,671.0,1
763,763,-0.1975444427884353,-0.2,1.0,0.0,392.0,762.0,0.0,0,266.0,1
764,764,0.38103039435203867,0.4,1.0,1.0,355.0,863.0,1.0,1,542.0,1
765,765,-0.0010299249835107327,-0.0,0.0,1.0,411.0,502.0,1.0,0,2087.0,1
766,766,0.5388422059943455,0.5,0.0,0.0,291.0,813.0,0.0,1,286.0,1
767,767,0.21035404278707837,0.2,0.0,0.0,437.0,606.0,0.0,1,907.0,1
768,768,0.5343045790772346,0.5,0.0,0.0,440.0,511.0,0.0,1,829.0,1
769,769,-0.05613377220370841,-0.1,1.0,0.0,358.0,827.0,1.0,1,1815.0,0
770,770,0.7017573699963094,0.7,0.0,0.0,393.0,776.0,0.0,1,461.0,1
771,771,0.7633852263564468,0.8,0.0,0.0,251.0,795.0,0.0,1,604.0,1
772,772,-0.4593945868786121,-0.5,0.0,1.0,463.0,697.0,1.0,0,410.0,1
773,773,-0.46461094541036657,-0.5,1.0,0.0,366.0,611.0,0.0,0,243.0,1
774,774,0.4061577380257605,0.4,1.0,1.0,449.0,713.0,1.0,1,488.0,1
775,775,-0.6142301912903185,-0.6,1.0,0.0,397.0,601.0,0.0,0,202.0,1
776,776,0.6782910051134968,0.7,0.0,0.0,440.0,554.0,0.0,1,166.0,1
777,777,-0.7538737916654983,-0.8,0.0,1.0,355.0,631.0,1.0,0,464.0,1
778,778,0.1495543641079523,0.1,0.0,0.0,439.0,975.0,1.0,0,36.0,0
779,779,-0.39376580214616097,-0.4,1.0,0.0,262.0,785.0,0.0,0,93.0,1
780,780,0.2581082003464842,0.3,1.0,1.0,483.0,619.0,1.0,1,168.0,1
781,781,-0.8666796973371526,-0.9,0.0,1.0,252.0,974.0,1.0,0,534.0,1
782,782,-0.502748981658534,-0.5,1.0,0.0,268.0,693.0,0.0,0,579.0,1
783,783,0.14350974604972289,0.1,0.0,0.0,276.0,771.0,0.0,1,1953.0,1
784,784,0.6864921983777713,0.7,0.0,0.0,360.0,667.0,0.0,1,263.0,1
785,785,-0.6032196362614053,-0.6,0.0,1.0,426.0,854.0,1.0,0,180.0,1
786,786,-0.6697623028793231,-0.7,1.0,0.0,330.0,619.0,0.0,0,301.0,1
787,787,0.0663279978533774,0.1,1.0,1.0,296.0,744.0,1.0,1,1500.0,1
788,788,-0.5484616321948619,-0.5,1.0,0.0,258.0,831.0,0.0,0,321.0,1
789,789,0.7409014599322122,0.7,1.0,1.0,347.0,537.0,1.0,1,376.0,1
790,790,0.19014354733496053,0.2,1.0,1.0,324.0,729.0,1.0,1,1457.0,1
791,791,-0.8397980103448762,-0.8,1.0,0.0,431.0,792.0,0.0,0,247.0,1
792,792,0.49999786001841395,0.5,1.0,1.0,364.0,868.0,1.0,1,148.0,1
793,793,-0.6515234303673021,-0.7,0.0,1.0,280.0,936.0,1.0,0,144.0,1
794,794,0.6155609428329335,0.6,0.0,0.0,460.0,639.0,0.0,1,881.0,1
795,795,0.21919343720875684,0.2,0.0,0.0,346.0,571.0,0.0,1,1673.0,1
796,796,0.4712374203919222,0.5,0.0,0.0,332.0,711.0,0.0,1,347.0,1
797,797,-0.5399289065356416,-0.5,1.0,0.0,498.0,593.0,0.0,0,319.0,1
798,798,0.6645890419644466,0.7,0.0,0.0,287.0,902.0,0.0,1,211.0,1
799,799,0.6919121915597038,0.7,0.0,0.0,413.0,955.0,0.0,1,412.0,1
800,800,0.21580292781929644,0.2,0.0,0.0,425.0,753.0,0.0,1,1542.0,1
801,801,-0.626897565399072,-0.6,1.0,0.0,308.0,823.0,0.0,0,399.0,1
802,802,0.4533380139368851,0.5,0.0,0.0,343.0,695.0,0.0,1,402.0,1
803,803,-0.6508523778822811,-0.7,0.0,1.0,314.0,651.0,1.0,0,305.0,1
804,804,0.7360427283359673,0.7,1.0,1.0,477.0,842.0,1.0,1,401.0,1
805,805,0.700723921892679,0.7,0.0,0.0,399.0,931.0,0.0,1,160.0,1
806,806,-0.6238133777442911,-0.6,0.0,1.0,250.0,985.0,1.0,0,145.0,1
807,807,-0.2681072180380586,-0.3,1.0,0.0,400.0,889.0,0.0,0,1711.0,1
808,808,-0.4895869126817791,-0.5,1.0,0.0,297.0,601.0,0.0,0,722.0,1
809,809,-0.36688212526315445,-0.4,1.0,0.0,369.0,641.0,0.0,0,1060.0,1
810,810,-0.8886763629158757,-0.9,1.0,0.0,334.0,919.0,0.0,0,287.0,1
811,811,0.2299591219016669,0.2,0.0,0.0,426.0,564.0,0.0,1,950.0,1
812,812,0.8547241266618263,0.9,1.0,1.0,415.0,648.0,1.0,1,267.0,1
813,813,-0.6835894202831602,-0.7,1.0,0.0,473.0,632.0,0.0,0,385.0,1
814,814,0.21413919179095597,0.2,1.0,1.0,397.0,743.0,1.0,1,750.0,1
815,815,-0.34827537057467095,-0.3,0.0,1.0,412.0,751.0,1.0,0,397.0,1
816,816,0.8251397898655543,0.8,0.0,0.0,364.0,987.0,0.0,1,199.0,1
817,817,-0.5221460998366494,-0.5,1.0,0.0,312.0,561.0,0.0,0,337.0,1
818,818,0.7749658150561335,0.8,1.0,1.0,358.0,564.0,1.0,1,148.0,1
819,819,0.31641379962261695,0.3,1.0,1.0,273.0,556.0,1.0,1,721.0,1
820,820,-0.3284926432999199,-0.3,0.0,1.0,339.0,866.0,1.0,0,155.0,1
821,821,0.14738222408243729,0.1,0.0,0.0,420.0,624.0,0.0,1,1956.0,1
822,822,0.8523686610628142,0.9,0.0,0.0,341.0,681.0,0.0,1,268.0,1
823,823,0.330627829415714,0.3,1.0,1.0,430.0,557.0,1.0,1,323.0,1
824,824,0.019684849352803124,0.0,0.0,0.0,266.0,796.0,1.0,0,1538.0,0
825,825,-0.454876954914048,-0.5,1.0,0.0,312.0,990.0,0.0,0,348.0,1
826,826,-0.5208867586712655,-0.5,1.0,0.0,356.0,553.0,0.0,0,471.0,1
827,827,0.02071245877683292,0.0,0.0,0.0,415.0,893.0,1.0,0,1692.0,0
828,828,-0.23152409158095644,-0.2,0.0,1.0,476.0,891.0,1.0,0,813.0,1
829,829,-0.008945664996336644,-0.0,0.0,1.0,488.0,855.0,0.0,1,1657.0,0
830,830,-0.5287867522314824,-0.5,1.0,0.0,424.0,508.0,0.0,0,658.0,1
831,831,-0.629778427358961,-0.6,1.0,0.0,338.0,514.0,0.0,0,138.0,1
832,832,-0.17090383173635393,-0.2,1.0,0.0,433.0,551.0,0.0,0,1396.0,1
833,833,0.22856982085746524,0.2,1.0,1.0,478.0,878.0,1.0,1,464.0,1
834,834,0.48656362858484636,0.5,0.0,0.0,349.0,952.0,0.0,1,379.0,1
835,835,-0.40569176614808405,-0.4,0.0,1.0,282.0,891.0,1.0,0,287.0,1
836,836,-0.8915239401667551,-0.9,0.0,1.0,478.0,642.0,1.0,0,220.0,1
837,837,-0.17563903208899023,-0.2,1.0,0.0,496.0,850.0,0.0,0,1014.0,1
838,838,0.256658837784259,0.3,0.0,0.0,472.0,501.0,0.0,1,2027.0,1
839,839,0.15327563595858684,0.2,1.0,1.0,337.0,831.0,1.0,1,672.0,1
840,840,-0.707023498845306,-0.7,0.0,1.0,436.0,856.0,1.0,0,598.0,1
841,841,-0.5702544315987688,-0.6,1.0,0.0,451.0,511.0,0.0,0,248.0,1
842,842,-0.8879984622387328,-0.9,1.0,0.0,281.0,634.0,0.0,0,275.0,1
843,843,0.16888625721669526,0.2,1.0,1.0,270.0,534.0,1.0,1,296.0,1
844,844,-0.829801371409179,-0.8,0.0,1.0,387.0,992.0,1.0,0,-69.0,1
845,845,0.11916754503242066,0.1,0.0,0.0,475.0,526.0,0.0,1,1999.0,1
846,846,-0.8960067669526516,-0.9,1.0,0.0,287.0,872.0,0.0,0,141.0,1
847,847,0.06617773742828914,0.1,1.0,1.0,257.0,893.0,1.0,1,1850.0,1
848,848,-0.29337588594290454,-0.3,0.0,1.0,289.0,971.0,1.0,0,320.0,1
849,849,-0.6562706996458776,-0.7,0.0,1.0,374.0,695.0,1.0,0,201.0,1
850,850,0.8120654992365305,0.8,1.0,1.0,363.0,907.0,1.0,1,190.0,1
851,851,-0.12910567040642407,-0.1,0.0,1.0,347.0,551.0,1.0,0,762.0,1
852,852,0.49005126258869647,0.5,0.0,0.0,420.0,743.0,0.0,1,187.0,1
853,853,-0.8568754088616151,-0.9,0.0,1.0,475.0,831.0,1.0,0,224.0,1
854,854,0.27767775465903577,0.3,0.0,0.0,440.0,986.0,0.0,1,144.0,1
855,855,0.7511102383825315,0.8,0.0,0.0,456.0,526.0,0.0,1,338.0,1
856,856,-0.6339208494762428,-0.6,0.0,1.0,413.0,785.0,1.0,0,122.0,1
857,857,-0.8705498350132859,-0.9,0.0,1.0,407.0,714.0,1.0,0,269.0,1
858,858,-0.5795553735425697,-0.6,0.0,1.0,418.0,951.0,1.0,0,281.0,1
859,859,-0.8240288638338243,-0.8,1.0,0.0,255.0,713.0,0.0,0,162.0,1
860,860,-0.2177287801886506,-0.2,1.0,0.0,286.0,721.0,0.0,0,603.0,1
861,861,-0.8197063291706189,-0.8,1.0,0.0,432.0,722.0,0.0,0,236.0,1
862,862,-0.49729951526780575,-0.5,0.0,1.0,413.0,775.0,1.0,0,392.0,1
863,863,-0.7180013880401118,-0.7,1.0,0.0,382.0,789.0,0.0,0,239.0,1
864,864,-0.8966404245150463,-0.9,0.0,1.0,410.0,942.0,1.0,0,278.0,1
865,865,-0.7954212126014089,-0.8,0.0,1.0,450.0,900.0,1.0,0,180.0,1
866,866,0.5663688884400876,0.6,0.0,0.0,425.0,926.0,0.0,1,409.0,1
867,867,0.01758394565523702,0.0,0.0,0.0,457.0,559.0,1.0,0,1984.0,0
868,868,-0.015600987915401987,-0.0,0.0,1.0,386.0,827.0,1.0,0,1787.0,1
869,869,0.49289290106529815,0.5,1.0,1.0,449.0,787.0,1.0,1,674.0,1
870,870,-0.28929344309350147,-0.3,1.0,0.0,297.0,821.0,0.0,0,912.0,1
871,871,0.5537165719005338,0.6,1.0,1.0,395.0,661.0,1.0,1,454.0,1
872,872,-0.7769638529506684,-0.8,0.0,1.0,362.0,982.0,1.0,0,216.0,1
873,873,0.3649935270967998,0.4,0.0,0.0,432.0,892.0,0.0,1,1386.0,1
874,874,0.4900180061163467,0.5,1.0,1.0,270.0,583.0,1.0,1,567.0,1
875,875,0.4524345851573689,0.5,0.0,0.0,441.0,906.0,0.0,1,503.0,1
876,876,0.3945195689881641,0.4,1.0,1.0,429.0,635.0,1.0,1,226.0,1
877,877,-0.14879466369512684,-0.1,1.0,0.0,263.0,626.0,0.0,0,1131.0,1
878,878,-0.4386193316830668,-0.4,0.0,1.0,418.0,513.0,1.0,0,419.0,1
879,879,-0.1358043341140175,-0.1,0.0,1.0,318.0,960.0,1.0,0,312.0,1
880,880,0.6510707667219878,0.7,1.0,1.0,446.0,645.0,1.0,1,159.0,1
881,881,0.8141741272770208,0.8,0.0,0.0,340.0,780.0,0.0,1,280.0,1
882,882,0.7287947416862369,0.7,1.0,1.0,344.0,707.0,1.0,1,149.0,1
883,883,-0.17469525004168773,-0.2,1.0,0.0,313.0,564.0,0.0,0,2123.0,1
884,884,0.5207909749577267,0.5,0.0,0.0,304.0,630.0,0.0,1,536.0,1
885,885,-0.4072136294619888,-0.4,0.0,1.0,396.0,612.0,1.0,0,402.0,1
886,886,-0.23129044822648037,-0.2,0.0,1.0,427.0,849.0,1.0,0,744.0,1
887,887,-0.4688103806502904,-0.5,1.0,0.0,483.0,939.0,0.0,0,388.0,1
888,888,-0.521100808806394,-0.5,0.0,1.0,360.0,799.0,1.0,0,251.0,1
889,889,0.14986875326890747,0.1,1.0,1.0,402.0,737.0,1.0,1,481.0,1
890,890,-0.4972137625349905,-0.5,0.0,1.0,387.0,936.0,1.0,0,397.0,1
891,891,-0.7490654530862557,-0.7,1.0,0.0,388.0,613.0,0.0,0,339.0,1
892,892,-0.6721433870625539,-0.7,0.0,1.0,306.0,706.0,1.0,0,468.0,1
893,893,-0.7658955816292148,-0.8,1.0,0.0,416.0,564.0,0.0,0,360.0,1
894,894,0.86040244667991,0.9,1.0,1.0,459.0,980.0,1.0,1,231.0,1
895,895,0.8194247577923449,0.8,1.0,1.0,315.0,772.0,1.0,1,93.0,1
896,896,-0.6983070345234896,-0.7,1.0,0.0,472.0,989.0,0.0,0,269.0,1
897,897,0.8019731245158849,0.8,1.0,1.0,252.0,996.0,1.0,1,82.0,1
898,898,0.24780464770993704,0.2,1.0,1.0,294.0,809.0,1.0,1,457.0,1
899,899,0.29597274563188647,0.3,0.0,0.0,498.0,776.0,1.0,0,-514.0,0
900,900,-0.056314866274511766,-0.1,1.0,0.0,443.0,587.0,1.0,1,1970.0,0
901,901,0.44975324369544933,0.4,0.0,0.0,417.0,908.0,0.0,1,885.0,1
902,902,0.28856134317926985,0.3,0.0,0.0,325.0,615.0,0.0,1,1470.0,1
903,903,-0.3538616929844737,-0.4,1.0,0.0,304.0,640.0,0.0,0,316.0,1
904,904,-0.40850884533240583,-0.4,1.0,0.0,381.0,999.0,0.0,0,430.0,1
905,905,-0.36902606917074643,-0.4,0.0,1.0,277.0,611.0,1.0,0,122.0,1
906,906,0.5645075084364107,0.6,0.0,0.0,439.0,951.0,0.0,1,290.0,1
907,907,-0.16914502089374917,-0.2,0.0,1.0,273.0,605.0,1.0,0,842.0,1
908,908,-0.011236364585714531,-0.0,0.0,1.0,259.0,981.0,1.0,0,1760.0,1
909,909,-0.6075712460592015,-0.6,0.0,1.0,372.0,750.0,1.0,0,8.0,1
910,910,-0.48528619197627704,-0.5,1.0,0.0,400.0,591.0,0.0,0,139.0,1
911,911,0.33166109845590575,0.3,0.0,0.0,335.0,665.0,0.0,1,630.0,1
912,912,0.8176334808800582,0.8,1.0,1.0,362.0,889.0,1.0,1,419.0,1
913,913,-0.8025951842211775,-0.8,0.0,1.0,418.0,661.0,1.0,0,191.0,1
914,914,0.166654299109669,0.2,1.0,1.0,316.0,612.0,1.0,1,1712.0,1
915,915,-0.2859983401065237,-0.3,0.0,1.0,271.0,871.0,1.0,0,448.0,1
916,916,0.41750805701826155,0.4,1.0,1.0,377.0,997.0,1.0,1,316.0,1
917,917,-0.8612348834081095,-0.9,1.0,0.0,478.0,640.0,0.0,0,162.0,1
918,918,-0.06117644980109749,-0.1,0.0,1.0,498.0,651.0,1.0,0,1851.0,1
919,919,0.24719123909023077,0.2,1.0,1.0,363.0,517.0,1.0,1,1230.0,1
920,920,-0.40196506853990105,-0.4,0.0,1.0,269.0,831.0,1.0,0,210.0,1
921,921,0.16261317609263182,0.2,1.0,1.0,419.0,971.0,1.0,1,430.0,1
922,922,0.18780693789254788,0.2,1.0,1.0,321.0,560.0,1.0,1,1139.0,1
923,923,-0.11980150252474187,-0.1,1.0,0.0,461.0,894.0,0.0,0,1645.0,1
924,924,0.2127098935231314,0.2,0.0,0.0,290.0,864.0,0.0,1,546.0,1
925,925,0.30256730494894934,0.3,0.0,0.0,293.0,895.0,0.0,1,1142.0,1
926,926,0.2773734215438325,0.3,1.0,1.0,342.0,589.0,1.0,1,659.0,1
927,927,-0.7299497259951278,-0.7,1.0,0.0,398.0,894.0,0.0,0,308.0,1
928,928,0.13720274636918706,0.1,1.0,1.0,251.0,972.0,1.0,1,-233.0,1
929,929,-0.3520175557335453,-0.4,1.0,0.0,457.0,748.0,0.0,0,585.0,1
930,930,0.5273404067523234,0.5,1.0,1.0,474.0,553.0,1.0,1,73.0,1
931,931,0.08763383963674853,0.1,0.0,0.0,281.0,811.0,1.0,0,1908.0,0
932,932,0.6147709456777363,0.6,1.0,1.0,397.0,992.0,1.0,1,181.0,1
933,933,-0.7479556389110488,-0.7,0.0,1.0,283.0,735.0,1.0,0,192.0,1
934,934,0.5684467939394272,0.6,0.0,0.0,439.0,805.0,0.0,1,396.0,1
935,935,0.7273221548533012,0.7,1.0,1.0,464.0,743.0,1.0,1,93.0,1
936,936,0.40769336940117984,0.4,1.0,1.0,382.0,907.0,1.0,1,461.0,1
937,937,-0.30960652820193113,-0.3,1.0,0.0,497.0,991.0,0.0,0,1152.0,1
938,938,-0.7963325772032793,-0.8,1.0,0.0,406.0,818.0,0.0,0,256.0,1
939,939,-0.5436798313758826,-0.5,0.0,1.0,327.0,775.0,1.0,0,608.0,1
940,940,0.6331696033757671,0.6,1.0,1.0,354.0,968.0,1.0,1,228.0,1
941,941,-0.05745067949987981,-0.1,0.0,1.0,281.0,935.0,1.0,0,1784.0,1
942,942,-0.6234882820729821,-0.6,1.0,0.0,340.0,873.0,0.0,0,307.0,1
943,943,-0.5973749302168144,-0.6,0.0,1.0,278.0,801.0,1.0,0,411.0,1
944,944,0.3967531845776574,0.4,1.0,1.0,312.0,868.0,1.0,1,300.0,1
945,945,-0.4133314968531564,-0.4,0.0,1.0,461.0,862.0,1.0,0,247.0,1
946,946,0.34761669316728605,0.3,0.0,0.0,335.0,689.0,0.0,1,826.0,1
947,947,-0.09452126452607901,-0.1,1.0,0.0,374.0,745.0,0.0,0,1881.0,1
948,948,-0.22991342226011013,-0.2,1.0,0.0,485.0,745.0,0.0,0,250.0,1
949,949,0.3213466517914282,0.3,1.0,1.0,464.0,992.0,1.0,1,254.0,1
950,950,0.7881743104749476,0.8,1.0,1.0,426.0,715.0,1.0,1,249.0,1
951,951,0.42754993544678654,0.4,1.0,1.0,270.0,769.0,1.0,1,371.0,1
952,952,0.8233354312553628,0.8,0.0,0.0,428.0,932.0,0.0,1,750.0,1
953,953,0.5348608765982864,0.5,0.0,0.0,417.0,996.0,0.0,1,407.0,1
954,954,-0.3982062132666012,-0.4,1.0,0.0,467.0,927.0,0.0,0,556.0,1
955,955,0.33371264910443144,0.3,0.0,0.0,436.0,636.0,0.0,1,688.0,1
956,956,0.09881014154252776,0.1,1.0,1.0,427.0,846.0,1.0,1,1067.0,1
957,957,0.1739426017231579,0.2,1.0,1.0,271.0,779.0,1.0,1,410.0,1
958,958,-0.18128702047064815,-0.2,1.0,0.0,305.0,685.0,0.0,0,1230.0,1
959,959,-0.10341068395917474,-0.1,1.0,0.0,265.0,578.0,1.0,1,107.0,0
960,960,-0.3400816066526404,-0.3,0.0,1.0,442.0,946.0,1.0,0,602.0,1
961,961,0.005269647465089844,0.0,1.0,1.0,401.0,715.0,1.0,1,1884.0,1
962,962,-0.8168570299473409,-0.8,1.0,0.0,459.0,985.0,0.0,0,306.0,1
963,963,0.8075764382877474,0.8,1.0,1.0,342.0,835.0,1.0,1,273.0,1
964,964,0.35892518374580284,0.4,0.0,0.0,273.0,806.0,0.0,1,611.0,1
965,965,0.3609774780960874,0.4,0.0,0.0,390.0,508.0,0.0,1,442.0,1
966,966,-0.4274320585759989,-0.4,0.0,1.0,380.0,894.0,1.0,0,526.0,1
967,967,-0.6640777084714425,-0.7,1.0,0.0,350.0,925.0,1.0,1,5.0,0
968,968,0.011892952836193516,0.0,1.0,1.0,344.0,786.0,1.0,1,1070.0,1
969,969,-0.048950627936904856,-0.0,1.0,0.0,444.0,771.0,1.0,1,1785.0,0
970,970,-0.7524353463142855,-0.8,1.0,0.0,467.0,992.0,0.0,0,161.0,1
971,971,0.5769584518940033,0.6,0.0,0.0,329.0,583.0,0.0,1,388.0,1
972,972,0.12171337533728643,0.1,0.0,0.0,283.0,884.0,0.0,1,1833.0,1
973,973,-0.2979964769023228,-0.3,1.0,0.0,493.0,936.0,0.0,0,1251.0,1
974,974,0.7832320517017527,0.8,0.0,0.0,303.0,580.0,0.0,1,417.0,1
975,975,-0.4954626637932247,-0.5,1.0,0.0,318.0,710.0,0.0,0,362.0,1
976,976,0.3976095872685169,0.4,0.0,0.0,339.0,654.0,0.0,1,937.0,1
977,977,-0.5840533985522856,-0.6,1.0,0.0,310.0,672.0,0.0,0,178.0,1
978,978,-0.8769441378169489,-0.9,0.0,1.0,286.0,972.0,1.0,0,102.0,1
979,979,-0.7443648449117649,-0.7,1.0,0.0,365.0,624.0,0.0,0,201.0,1
980,980,0.6031423429567636,0.6,1.0,1.0,351.0,742.0,1.0,1,147.0,1
981,981,0.4864352680247458,0.5,0.0,0.0,285.0,670.0,0.0,1,1165.0,1
982,982,0.15845106533841646,0.2,0.0,0.0,310.0,930.0,0.0,1,760.0,1
983,983,-0.15978911543344387,-0.2,0.0,1.0,382.0,780.0,1.0,0,1838.0,1
984,984,0.13984278641718662,0.1,1.0,1.0,459.0,975.0,1.0,1,1566.0,1
985,985,0.7070012538442098,0.7,0.0,0.0,340.0,812.0,0.0,1,688.0,1
986,986,0.25487212882845467,0.3,1.0,1.0,269.0,598.0,1.0,1,563.0,1
987,987,-0.8517220861841117,-0.9,1.0,0.0,314.0,702.0,0.0,0,274.0,1
988,988,-0.46241117710314955,-0.5,0.0,1.0,386.0,995.0,1.0,0,139.0,1
989,989,-0.8932637727722889,-0.9,0.0,1.0,368.0,834.0,1.0,0,148.0,1
990,990,0.8216234815206324,0.8,0.0,0.0,480.0,866.0,0.0,1,204.0,1
991,991,-0.6335786860896742,-0.6,0.0,1.0,356.0,563.0,1.0,0,61.0,1
992,992,-0.6513556598859127,-0.7,1.0,0.0,382.0,913.0,0.0,0,355.0,1
993,993,-0.17635550582106707,-0.2,1.0,0.0,254.0,540.0,0.0,0,776.0,1
994,994,-0.7969617055588312,-0.8,0.0,1.0,331.0,868.0,1.0,0,211.0,1
995,995,-0.41837374698670377,-0.4,1.0,0.0,357.0,923.0,0.0,0,630.0,1
996,996,0.614170034582164,0.6,1.0,1.0,426.0,516.0,1.0,1,408.0,1
997,997,0.8043052750196346,0.8,0.0,0.0,268.0,559.0,0.0,1,453.0,1
998,998,-0.5469638156915738,-0.5,1.0,0.0,296.0,960.0,1.0,1,-76.0,0
999,999,0.08090427237120967,0.1,1.0,1.0,425.0,935.0,1.0,1,1640.0,1
1000,1000,0.7573618991387349,0.8,0.0,0.0,275.0,918.0,0.0,1,577.0,1
1001,1001,0.33802679728251317,0.3,0.0,0.0,467.0,759.0,0.0,1,424.0,1
1002,1002,0.03403034114092407,0.0,0.0,0.0,366.0,789.0,1.0,0,1845.0,0
1003,1003,0.1443644378608372,0.1,0.0,0.0,267.0,533.0,0.0,1,2200.0,1
1004,1004,0.2623194604452309,0.3,1.0,1.0,282.0,536.0,1.0,1,722.0,1
1005,1005,-0.37096638938817916,-0.4,1.0,0.0,385.0,560.0,0.0,0,1175.0,1
1006,1006,0.15314270474774772,0.2,1.0,1.0,408.0,877.0,1.0,1,1275.0,1
1007,1007,-0.7861740948396443,-0.8,1.0,0.0,261.0,596.0,0.0,0,153.0,1
1008,1008,0.7157489141827981,0.7,1.0,1.0,445.0,697.0,1.0,1,298.0,1
1009,1009,-0.620407100343202,-0.6,0.0,1.0,297.0,945.0,1.0,0,298.0,1
1010,1010,-0.576086743011065,-0.6,1.0,0.0,385.0,710.0,0.0,0,265.0,1
1011,1011,-0.04237559630582599,-0.0,0.0,1.0,282.0,620.0,1.0,0,2098.0,1
1012,1012,-0.4364897082456997,-0.4,0.0,1.0,450.0,593.0,1.0,0,277.0,1
1013,1013,0.8198356281223879,0.8,1.0,1.0,305.0,622.0,1.0,1,173.0,1
1014,1014,0.12391818290844914,0.1,0.0,0.0,377.0,970.0,0.0,1,1653.0,1
1015,1015,-0.526470743837864,-0.5,0.0,1.0,357.0,854.0,1.0,0,149.0,1
1016,1016,-0.47317087410107306,-0.5,1.0,0.0,417.0,500.0,0.0,0,643.0,1
1017,1017,-0.8471218473252011,-0.8,0.0,1.0,383.0,595.0,1.0,0,92.0,1
1018,1018,0.39481246696501426,0.4,1.0,1.0,456.0,700.0,1.0,1,264.0,1
1019,1019,-0.8273074099929252,-0.8,0.0,1.0,341.0,646.0,1.0,0,143.0,1
1020,1020,-0.0804729453989439,-0.1,1.0,0.0,449.0,736.0,0.0,0,1815.0,1
1021,1021,-0.4392138246703979,-0.4,1.0,0.0,265.0,825.0,0.0,0,230.0,1
1022,1022,0.18807914584415453,0.2,1.0,1.0,418.0,671.0,1.0,1,411.0,1
1023,1023,-0.20885911228342613,-0.2,1.0,0.0,358.0,876.0,0.0,0,1766.0,1
1024,1024,0.5261723609532728,0.5,0.0,0.0,469.0,734.0,0.0,1,567.0,1
1025,1025,0.7613197253775236,0.8,1.0,1.0,328.0,881.0,1.0,1,311.0,1
1026,1026,-0.7599000215809859,-0.8,1.0,0.0,275.0,801.0,0.0,0,204.0,1
1027,1027,-0.522534637159457,-0.5,1.0,0.0,291.0,891.0,0.0,0,178.0,1
1028,1028,-0.18043783558383353,-0.2,1.0,0.0,493.0,503.0,0.0,0,814.0,1
1029,1029,0.48012788985406274,0.5,0.0,0.0,431.0,766.0,0.0,1,813.0,1
1030,1030,0.8005294859740718,0.8,0.0,0.0,251.0,797.0,0.0,1,672.0,1
1031,1031,-0.5008694963864581,-0.5,0.0,1.0,427.0,872.0,1.0,0,341.0,1
1032,1032,0.7457166051056993,0.7,1.0,1.0,470.0,751.0,1.0,1,269.0,1
1033,1033,0.7673913854934683,0.8,0.0,0.0,316.0,548.0,0.0,1,156.0,1
1034,1034,-0.143556513231631,-0.1,1.0,0.0,264.0,628.0,0.0,0,1988.0,1
1035,1035,0.3132060240274127,0.3,1.0,1.0,295.0,531.0,1.0,1,384.0,1
1036,1036,-0.6265728894723652,-0.6,0.0,1.0,395.0,507.0,1.0,0,238.0,1
1037,1037,-0.04242163931719434,-0.0,0.0,1.0,309.0,871.0,1.0,0,1820.0,1
1038,1038,0.4845984042320467,0.5,1.0,1.0,320.0,854.0,1.0,1,-24.0,1
1039,1039,-0.3613705130806397,-0.4,0.0,1.0,467.0,511.0,1.0,0,532.0,1
1040,1040,0.8401758570988501,0.8,0.0,0.0,488.0,679.0,0.0,1,413.0,1
1041,1041,-0.295084309998897,-0.3,1.0,0.0,304.0,585.0,0.0,0,1051.0,1
1042,1042,-0.32655314317568795,-0.3,0.0,1.0,283.0,627.0,1.0,0,140.0,1
1043,1043,0.5706561157964011,0.6,1.0,1.0,283.0,718.0,1.0,1,379.0,1
1044,1044,-0.8653142979614096,-0.9,0.0,1.0,459.0,979.0,1.0,0,442.0,1
1045,1045,-0.13773198728789626,-0.1,0.0,1.0,466.0,792.0,1.0,0,1642.0,1
1046,1046,-0.6722494200294362,-0.7,1.0,0.0,460.0,686.0,0.0,0,354.0,1
1047,1047,-0.6940834025091739,-0.7,0.0,1.0,364.0,571.0,1.0,0,315.0,1
1048,1048,-0.8778020245913286,-0.9,1.0,0.0,314.0,658.0,0.0,0,598.0,1
1049,1049,0.898674481932746,0.9,0.0,0.0,372.0,956.0,0.0,1,372.0,1
1050,1050,-0.36562471789297846,-0.4,0.0,1.0,307.0,967.0,1.0,0,356.0,1
1051,1051,0.2392167180732322,0.2,0.0,0.0,347.0,762.0,0.0,1,1261.0,1
1052,1052,0.06430597046598396,0.1,0.0,0.0,472.0,817.0,0.0,1,1711.0,1
1053,1053,0.5363530582658539,0.5,0.0,0.0,359.0,945.0,0.0,1,366.0,1
1054,1054,0.8123000859569921,0.8,0.0,0.0,449.0,838.0,0.0,1,353.0,1
1055,1055,0.7211871915351639,0.7,0.0,0.0,458.0,585.0,0.0,1,387.0,1
1056,1056,-0.3983021298472724,-0.4,1.0,0.0,422.0,799.0,0.0,0,869.0,1
1057,1057,0.15136780417146578,0.2,0.0,0.0,444.0,552.0,0.0,1,614.0,1
1058,1058,-0.5412494453666639,-0.5,0.0,1.0,287.0,903.0,1.0,0,300.0,1
1059,1059,0.5913485922624905,0.6,1.0,1.0,366.0,743.0,1.0,1,181.0,1
1060,1060,-0.7112717832811679,-0.7,0.0,1.0,374.0,805.0,1.0,0,371.0,1
1061,1061,-0.8341440635774562,-0.8,0.0,1.0,372.0,721.0,1.0,0,337.0,1
1062,1062,0.5544590551928389,0.6,0.0,0.0,422.0,699.0,0.0,1,1229.0,1
1063,1063,0.35223343904326276,0.4,0.0,0.0,423.0,972.0,0.0,1,395.0,1
1064,1064,0.4200405093384795,0.4,1.0,1.0,262.0,519.0,1.0,1,419.0,1
1065,1065,-0.40724590500856517,-0.4,0.0,1.0,329.0,666.0,1.0,0,395.0,1
1066,1066,0.1414683178858004,0.1,1.0,1.0,298.0,627.0,1.0,1,1985.0,1
1067,1067,0.3884548087573113,0.4,1.0,1.0,252.0,622.0,1.0,1,336.0,1
1068,1068,0.41702241245618,0.4,0.0,0.0,261.0,501.0,0.0,1,468.0,1
1069,1069,0.8316791393415007,0.8,0.0,0.0,385.0,595.0,0.0,1,620.0,1
1070,1070,0.3427353043291389,0.3,1.0,1.0,479.0,725.0,1.0,1,416.0,1
1071,1071,0.5688763679014185,0.6,1.0,1.0,481.0,694.0,1.0,1,485.0,1
1072,1072,0.05991165293756906,0.1,0.0,0.0,464.0,969.0,0.0,1,1567.0,1
1073,1073,0.865540810179417,0.9,0.0,0.0,418.0,794.0,0.0,1,498.0,1
1074,1074,-0.19529785436022584,-0.2,1.0,0.0,440.0,554.0,0.0,0,2006.0,1
1075,1075,-0.8049464279428438,-0.8,1.0,0.0,437.0,792.0,0.0,0,81.0,1
1076,1076,-0.34311757267197707,-0.3,1.0,0.0,401.0,883.0,0.0,0,246.0,1
1077,1077,0.25708458213400853,0.3,1.0,1.0,492.0,645.0,1.0,1,333.0,1
1078,1078,-0.709522251931743,-0.7,0.0,1.0,366.0,759.0,1.0,0,215.0,1
1079,1079,0.08331333529152174,0.1,0.0,0.0,389.0,704.0,1.0,0,1907.0,0
1080,1080,-0.29542068584146297,-0.3,0.0,1.0,463.0,967.0,1.0,0,660.0,1
1081,1081,-0.7226146919631415,-0.7,0.0,1.0,478.0,703.0,1.0,0,99.0,1
1082,1082,0.21108531159321842,0.2,1.0,1.0,484.0,534.0,1.0,1,52.0,1
1083,1083,-0.3802756924896139,-0.4,0.0,1.0,362.0,976.0,1.0,0,-368.0,1
1084,1084,0.3613563823950102,0.4,1.0,1.0,462.0,548.0,1.0,1,130.0,1
1085,1085,-0.3354467765461021,-0.3,0.0,1.0,266.0,568.0,1.0,0,446.0,1
1086,1086,-0.3079383239276391,-0.3,0.0,1.0,479.0,840.0,1.0,0,481.0,1
1087,1087,0.37776896761064827,0.4,1.0,1.0,340.0,522.0,1.0,1,328.0,1
1088,1088,-0.09069834348935946,-0.1,0.0,1.0,345.0,863.0,1.0,0,1792.0,1
1089,1089,0.7638564867630854,0.8,1.0,1.0,413.0,604.0,1.0,1,243.0,1
1090,1090,0.25921356529090345,0.3,1.0,1.0,397.0,556.0,1.0,1,497.0,1
1091,1091,0.5908530493691432,0.6,0.0,0.0,383.0,825.0,1.0,0,-128.0,0
1092,1092,0.8648106343820202,0.9,1.0,1.0,326.0,859.0,1.0,1,155.0,1
1093,1093,0.36804552525801093,0.4,0.0,0.0,433.0,823.0,0.0,1,584.0,1
1094,1094,0.05437067479381075,0.1,0.0,0.0,367.0,690.0,0.0,1,1943.0,1
1095,1095,0.2144817981469619,0.2,1.0,1.0,306.0,891.0,1.0,1,413.0,1
1096,1096,0.2870423938712522,0.3,1.0,1.0,455.0,711.0,1.0,1,474.0,1
1097,1097,0.3114388981863382,0.3,1.0,1.0,376.0,830.0,1.0,1,434.0,1
1098,1098,0.22414839693043886,0.2,1.0,1.0,420.0,780.0,1.0,1,200.0,1
1099,1099,0.41619100518454644,0.4,1.0,1.0,270.0,880.0,1.0,1,390.0,1
1100,1100,0.6733320791414937,0.7,1.0,1.0,269.0,726.0,1.0,1,235.0,1
1101,1101,0.23684352282622811,0.2,0.0,0.0,494.0,937.0,0.0,1,1349.0,1
1102,1102,0.23952281512556894,0.2,1.0,1.0,458.0,916.0,1.0,1,856.0,1
1103,1103,-0.8252407453156773,-0.8,0.0,1.0,330.0,861.0,1.0,0,869.0,1
1104,1104,-0.32778521732360144,-0.3,1.0,0.0,265.0,525.0,0.0,0,680.0,1
1105,1105,-0.870520107203821,-0.9,0.0,1.0,261.0,609.0,1.0,0,310.0,1
1106,1106,0.786314595257955,0.8,0.0,0.0,340.0,528.0,0.0,1,442.0,1
1107,1107,-0.4139019127524891,-0.4,0.0,1.0,417.0,612.0,1.0,0,221.0,1
1108,1108,0.2521599433253138,0.3,1.0,1.0,263.0,604.0,1.0,1,603.0,1
1109,1109,-0.6911535245471658,-0.7,1.0,0.0,327.0,581.0,0.0,0,312.0,1
1110,1110,0.3917827449517949,0.4,1.0,1.0,482.0,863.0,1.0,1,685.0,1
1111,1111,-0.11364875837326216,-0.1,1.0,0.0,327.0,626.0,0.0,0,1277.0,1
1112,1112,-0.3261433864855755,-0.3,1.0,0.0,252.0,974.0,0.0,0,734.0,1
1113,1113,0.8038705127507938,0.8,1.0,1.0,438.0,981.0,1.0,1,181.0,1
1114,1114,0.6526856715493276,0.7,1.0,1.0,487.0,857.0,1.0,1,286.0,1
1115,1115,0.6935871999988187,0.7,0.0,0.0,392.0,924.0,0.0,1,274.0,1
1116,1116,0.4881762893482241,0.5,1.0,1.0,265.0,809.0,1.0,1,356.0,1
1117,1117,-0.7064299385332156,-0.7,0.0,1.0,464.0,780.0,1.0,0,146.0,1
1118,1118,-0.061125986447773006,-0.1,1.0,0.0,490.0,626.0,0.0,0,1884.0,1
1119,1119,-0.31713562235316906,-0.3,0.0,1.0,334.0,862.0,1.0,0,724.0,1
1120,1120,0.16952172291796008,0.2,1.0,1.0,382.0,556.0,1.0,1,232.0,1
1121,1121,-0.6405961694632325,-0.6,0.0,1.0,427.0,649.0,1.0,0,324.0,1
1122,1122,0.4260309304801283,0.4,1.0,1.0,474.0,574.0,1.0,1,142.0,1
1123,1123,-0.5702214414374489,-0.6,0.0,1.0,433.0,746.0,1.0,0,101.0,1
1124,1124,0.45850717485867853,0.5,0.0,0.0,482.0,769.0,0.0,1,179.0,1
1125,1125,0.4699849564733559,0.5,1.0,1.0,428.0,568.0,1.0,1,734.0,1
1126,1126,0.6861499160688448,0.7,0.0,0.0,442.0,526.0,0.0,1,342.0,1
1127,1127,-0.0740130252150879,-0.1,1.0,0.0,436.0,528.0,1.0,1,2036.0,0
1128,1128,0.6554239099436686,0.7,0.0,0.0,420.0,577.0,0.0,1,573.0,1
1129,1129,-0.8945916979707847,-0.9,1.0,0.0,391.0,763.0,0.0,0,176.0,1
1130,1130,0.2514734501704726,0.3,1.0,1.0,407.0,861.0,1.0,1,342.0,1
1131,1131,-0.33687455666374055,-0.3,1.0,0.0,278.0,960.0,0.0,0,472.0,1
1132,1132,0.11247916849498496,0.1,1.0,1.0,364.0,873.0,1.0,1,-357.0,1
1133,1133,0.46669151795682706,0.5,1.0,1.0,364.0,720.0,1.0,1,506.0,1
1134,1134,0.06462751257099897,0.1,1.0,1.0,468.0,929.0,1.0,1,1603.0,1
1135,1135,0.7127844579543531,0.7,0.0,0.0,420.0,656.0,0.0,1,314.0,1
1136,1136,-0.7474689667293797,-0.7,0.0,1.0,298.0,505.0,1.0,0,227.0,1
1137,1137,-0.7665480533762983,-0.8,0.0,1.0,396.0,982.0,1.0,0,212.0,1
1138,1138,-0.024499430691150792,-0.0,1.0,0.0,344.0,867.0,1.0,1,1789.0,0
1139,1139,0.7647940351926249,0.8,1.0,1.0,300.0,914.0,1.0,1,186.0,1
1140,1140,0.1238262624819576,0.1,1.0,1.0,392.0,825.0,1.0,1,723.0,1
1141,1141,0.8456209804064044,0.8,1.0,1.0,388.0,988.0,1.0,1,174.0,1
1142,1142,-0.029669696588137673,-0.0,0.0,1.0,298.0,523.0,1.0,0,2179.0,1
1143,1143,-0.7746435435923207,-0.8,1.0,0.0,348.0,529.0,0.0,0,213.0,1
1144,1144,-0.7006250053648971,-0.7,1.0,0.0,455.0,784.0,0.0,0,261.0,1
1145,1145,0.741088362787205,0.7,1.0,1.0,423.0,848.0,1.0,1,319.0,1
1146,1146,0.5025201420203939,0.5,0.0,0.0,357.0,936.0,0.0,1,237.0,1
1147,1147,0.538111572271991,0.5,1.0,1.0,365.0,702.0,1.0,1,273.0,1
1148,1148,-0.4388401299395174,-0.4,0.0,1.0,484.0,548.0,1.0,0,268.0,1
1149,1149,-0.0511381696022819,-0.1,0.0,1.0,433.0,630.0,1.0,0,1937.0,1
1150,1150,-0.29933441609366185,-0.3,0.0,1.0,313.0,654.0,1.0,0,263.0,1
1151,1151,-0.13224182723194922,-0.1,0.0,1.0,412.0,507.0,1.0,0,2081.0,1
1152,1152,-0.05939256365439216,-0.1,0.0,1.0,326.0,683.0,1.0,0,1951.0,1
1153,1153,0.7819207584971238,0.8,1.0,1.0,251.0,765.0,1.0,1,174.0,1
1154,1154,0.7883853291687898,0.8,0.0,0.0,368.0,637.0,0.0,1,275.0,1
1155,1155,0.7624546565173348,0.8,0.0,0.0,280.0,905.0,0.0,1,595.0,1
1156,1156,-0.6827568175011335,-0.7,0.0,1.0,388.0,847.0,1.0,0,205.0,1
1157,1157,0.5045732977371108,0.5,0.0,0.0,373.0,645.0,0.0,1,312.0,1
1158,1158,0.6824670816055985,0.7,1.0,1.0,393.0,574.0,1.0,1,73.0,1
1159,1159,0.584978686153515,0.6,1.0,1.0,469.0,582.0,1.0,1,199.0,1
1160,1160,-0.37472144965906207,-0.4,1.0,0.0,463.0,806.0,0.0,0,271.0,1
1161,1161,0.1735774653135912,0.2,0.0,0.0,261.0,540.0,0.0,1,919.0,1
1162,1162,-0.15066458879964428,-0.2,1.0,0.0,487.0,778.0,1.0,1,1735.0,0
1163,1163,0.5525087790435589,0.6,0.0,0.0,354.0,660.0,0.0,1,1706.0,1
1164,1164,-0.6608020273820467,-0.7,1.0,0.0,284.0,957.0,0.0,0,159.0,1
1165,1165,-0.6723780486117342,-0.7,0.0,1.0,310.0,759.0,1.0,0,91.0,1
1166,1166,0.8179044831854155,0.8,1.0,1.0,281.0,673.0,1.0,1,156.0,1
1167,1167,0.059925051535145824,0.1,0.0,0.0,333.0,768.0,1.0,0,1899.0,0
1168,1168,0.5850283937357342,0.6,1.0,1.0,443.0,548.0,1.0,1,729.0,1
1169,1169,0.15586330751526878,0.2,0.0,0.0,379.0,827.0,0.0,1,504.0,1
1170,1170,0.7490266299111142,0.7,0.0,0.0,421.0,565.0,0.0,1,264.0,1
1171,1171,-0.47978956498323233,-0.5,0.0,1.0,310.0,523.0,1.0,0,67.0,1
1172,1172,0.6929316273746694,0.7,0.0,0.0,485.0,967.0,0.0,1,378.0,1
1173,1173,0.2219261754871732,0.2,1.0,1.0,448.0,713.0,1.0,1,869.0,1
1174,1174,0.4170041924105746,0.4,0.0,0.0,332.0,587.0,0.0,1,481.0,1
1175,1175,0.3567051605020116,0.4,1.0,1.0,277.0,771.0,1.0,1,372.0,1
1176,1176,-0.4355193049391742,-0.4,1.0,0.0,403.0,765.0,0.0,0,822.0,1
1177,1177,0.07228862534796654,0.1,1.0,1.0,310.0,500.0,1.0,1,270.0,1
1178,1178,0.5499809466453286,0.5,0.0,0.0,465.0,613.0,0.0,1,212.0,1
1179,1179,0.22311566418297069,0.2,1.0,1.0,499.0,922.0,1.0,1,929.0,1
1180,1180,-0.884912231165782,-0.9,1.0,0.0,354.0,669.0,0.0,0,227.0,1
1181,1181,-0.2710834682975415,-0.3,0.0,1.0,405.0,676.0,1.0,0,449.0,1
1182,1182,0.8160467389199041,0.8,1.0,1.0,298.0,817.0,1.0,1,215.0,1
1183,1183,0.27579585147481167,0.3,0.0,0.0,366.0,763.0,0.0,1,1871.0,1
1184,1184,-0.520687084310887,-0.5,0.0,1.0,267.0,636.0,1.0,0,-223.0,1
1185,1185,0.3976935150667974,0.4,0.0,0.0,401.0,589.0,0.0,1,580.0,1
1186,1186,0.16142076317001386,0.2,0.0,0.0,423.0,544.0,0.0,1,1033.0,1
1187,1187,0.04488321361039005,0.0,1.0,1.0,290.0,944.0,1.0,1,626.0,1
1188,1188,0.8955346876565778,0.9,0.0,0.0,405.0,838.0,0.0,1,267.0,1
1189,1189,-0.7720502392372851,-0.8,1.0,0.0,427.0,807.0,0.0,0,136.0,1
1190,1190,-0.8910355593982325,-0.9,1.0,0.0,436.0,562.0,0.0,0,262.0,1
1191,1191,-0.7915408572250796,-0.8,0.0,1.0,474.0,842.0,1.0,0,184.0,1
1192,1192,0.027046346522322184,0.0,0.0,0.0,395.0,654.0,0.0,1,1951.0,1
1193,1193,0.7572285111118761,0.8,0.0,0.0,423.0,550.0,0.0,1,267.0,1
1194,1194,-0.6585154789260801,-0.7,0.0,1.0,369.0,692.0,1.0,0,249.0,1
1195,1195,0.8819339567552492,0.9,1.0,1.0,292.0,726.0,1.0,1,212.0,1
1196,1196,-0.4336000032409692,-0.4,1.0,0.0,441.0,894.0,0.0,0,335.0,1
1197,1197,0.24646330614029754,0.2,1.0,1.0,399.0,845.0,1.0,1,556.0,1
1198,1198,-0.10258963748127414,-0.1,0.0,1.0,313.0,911.0,1.0,0,1636.0,1
1199,1199,0.7042323906616769,0.7,1.0,1.0,459.0,707.0,1.0,1,234.0,1
1200,1200,0.20753452533232963,0.2,1.0,1.0,430.0,824.0,1.0,1,1206.0,1
1201,1201,0.613810507277959,0.6,1.0,1.0,364.0,889.0,1.0,1,217.0,1
1202,1202,-0.21768728152088002,-0.2,1.0,0.0,414.0,511.0,0.0,0,2075.0,1
1203,1203,0.38362523072055843,0.4,0.0,0.0,473.0,933.0,0.0,1,674.0,1
1204,1204,-0.28952649403555275,-0.3,1.0,0.0,383.0,977.0,0.0,0,750.0,1
1205,1205,0.8098396800202522,0.8,0.0,0.0,442.0,578.0,0.0,1,100.0,1
1206,1206,-0.6044245734888891,-0.6,0.0,1.0,263.0,655.0,1.0,0,492.0,1
1207,1207,-0.7807157179687808,-0.8,0.0,1.0,338.0,929.0,1.0,0,283.0,1
1208,1208,0.3807443515790695,0.4,1.0,1.0,400.0,888.0,1.0,1,342.0,1
1209,1209,0.4879130019564123,0.5,0.0,0.0,497.0,909.0,0.0,1,384.0,1
1210,1210,-0.25769120769147813,-0.3,1.0,0.0,413.0,672.0,0.0,0,1915.0,1
1211,1211,-0.8346477695166046,-0.8,0.0,1.0,309.0,980.0,1.0,0,91.0,1
1212,1212,-0.15730071892724007,-0.2,0.0,1.0,314.0,671.0,1.0,0,775.0,1
1213,1213,-0.864576890708657,-0.9,0.0,1.0,293.0,525.0,1.0,0,712.0,1
1214,1214,0.8117598869183295,0.8,1.0,1.0,421.0,617.0,1.0,1,162.0,1
1215,1215,-0.16572272517952913,-0.2,1.0,0.0,458.0,882.0,0.0,0,1660.0,1
1216,1216,-0.6503439693742564,-0.7,1.0,0.0,419.0,727.0,0.0,0,584.0,1
1217,1217,0.2949469476969214,0.3,1.0,1.0,376.0,896.0,1.0,1,508.0,1
1218,1218,-0.1253748172536755,-0.1,0.0,1.0,250.0,509.0,1.0,0,1661.0,1
1219,1219,-0.15680817495078092,-0.2,1.0,0.0,297.0,807.0,1.0,1,1896.0,0
1220,1220,0.8789017234616282,0.9,1.0,1.0,348.0,981.0,1.0,1,131.0,1
1221,1221,0.286789341697835,0.3,0.0,0.0,345.0,785.0,0.0,1,990.0,1
1222,1222,0.19179915136815417,0.2,0.0,0.0,329.0,576.0,0.0,1,2095.0,1
1223,1223,-0.054035150663836906,-0.1,1.0,0.0,293.0,688.0,0.0,0,2019.0,1
1224,1224,-0.03816762818961417,-0.0,0.0,1.0,271.0,907.0,1.0,0,1822.0,1
1225,1225,-0.23155984886501868,-0.2,0.0,1.0,405.0,664.0,1.0,0,571.0,1
1226,1226,0.681975675094954,0.7,0.0,0.0,482.0,541.0,0.0,1,167.0,1
1227,1227,-0.25511561455658527,-0.3,1.0,0.0,469.0,838.0,0.0,0,1053.0,1
1228,1228,0.23198009071429226,0.2,0.0,0.0,378.0,596.0,0.0,1,1216.0,1
1229,1229,-0.7094862901600765,-0.7,0.0,1.0,462.0,707.0,1.0,0,191.0,1
1230,1230,-0.0803564964905088,-0.1,0.0,1.0,255.0,573.0,1.0,0,1742.0,1
1231,1231,0.10944347532947984,0.1,0.0,0.0,288.0,639.0,0.0,1,2073.0,1
1232,1232,-0.2468986490609396,-0.2,0.0,1.0,299.0,638.0,1.0,0,583.0,1
1233,1233,0.8140825915702005,0.8,1.0,1.0,427.0,980.0,1.0,1,233.0,1
1234,1234,0.3045324515059954,0.3,1.0,1.0,456.0,912.0,1.0,1,572.0,1
1235,1235,-0.3089497335132687,-0.3,1.0,0.0,252.0,755.0,0.0,0,443.0,1
1236,1236,-0.1531010141264446,-0.2,0.0,1.0,398.0,972.0,1.0,0,850.0,1
1237,1237,-0.16069770542931416,-0.2,1.0,0.0,357.0,733.0,0.0,0,1080.0,1
1238,1238,-0.19939153860178171,-0.2,1.0,0.0,360.0,608.0,0.0,0,992.0,1
1239,1239,-0.05138403430004013,-0.1,0.0,1.0,295.0,994.0,1.0,0,1091.0,1
1240,1240,0.19777862455086603,0.2,1.0,1.0,333.0,731.0,1.0,1,-154.0,1
1241,1241,0.4580945777265474,0.5,0.0,0.0,378.0,600.0,0.0,1,322.0,1
1242,1242,-0.8137586446266962,-0.8,1.0,0.0,433.0,675.0,0.0,0,132.0,1
1243,1243,0.2927923822890396,0.3,1.0,1.0,387.0,876.0,1.0,1,407.0,1
1244,1244,-0.8141709980679793,-0.8,0.0,1.0,458.0,550.0,1.0,0,192.0,1
1245,1245,-0.46677916428873445,-0.5,1.0,0.0,425.0,512.0,0.0,0,683.0,1
1246,1246,0.34521053207158625,0.3,0.0,0.0,363.0,524.0,0.0,1,763.0,1
1247,1247,-0.31176114793217513,-0.3,1.0,0.0,262.0,904.0,0.0,0,1834.0,1
1248,1248,-0.2419867725929874,-0.2,1.0,0.0,306.0,505.0,0.0,0,389.0,1
1249,1249,-0.8062783601946703,-0.8,0.0,1.0,360.0,642.0,1.0,0,288.0,1
1250,1250,0.4553492179501869,0.5,0.0,0.0,431.0,967.0,0.0,1,1602.0,1
1251,1251,-0.07535485546257448,-0.1,1.0,0.0,391.0,872.0,1.0,1,1737.0,0
1252,1252,0.46206629500568364,0.5,0.0,0.0,311.0,995.0,0.0,1,484.0,1
1253,1253,-0.13393643306057756,-0.1,0.0,1.0,376.0,755.0,1.0,0,589.0,1
1254,1254,-0.38804457598971775,-0.4,1.0,0.0,298.0,589.0,0.0,0,233.0,1
1255,1255,0.7030341367396268,0.7,0.0,0.0,433.0,939.0,0.0,1,458.0,1
1256,1256,0.24540473310237532,0.2,0.0,0.0,496.0,740.0,0.0,1,504.0,1
1257,1257,0.2560335462242248,0.3,1.0,1.0,450.0,639.0,1.0,1,111.0,1
1258,1258,0.5269505534905582,0.5,0.0,0.0,313.0,690.0,0.0,1,207.0,1
1259,1259,-0.12775863321444614,-0.1,1.0,0.0,427.0,661.0,0.0,0,1272.0,1
1260,1260,0.8395226990067725,0.8,1.0,1.0,495.0,753.0,1.0,1,242.0,1
1261,1261,0.8278624113060101,0.8,1.0,1.0,290.0,741.0,1.0,1,149.0,1
1262,1262,-0.6857514184580247,-0.7,0.0,1.0,289.0,877.0,1.0,0,334.0,1
1263,1263,0.010242920272293565,0.0,1.0,1.0,393.0,693.0,1.0,1,1914.0,1
1264,1264,-0.2884216146012909,-0.3,0.0,1.0,493.0,653.0,1.0,0,264.0,1
1265,1265,0.6751625313566657,0.7,0.0,0.0,385.0,615.0,0.0,1,420.0,1
1266,1266,-0.27978167153857336,-0.3,0.0,1.0,383.0,524.0,1.0,0,543.0,1
1267,1267,-0.01693379768150627,-0.0,0.0,1.0,300.0,925.0,1.0,0,1775.0,1
1268,1268,0.011380267166421598,0.0,1.0,1.0,303.0,699.0,1.0,1,1998.0,1
1269,1269,0.47934486119835007,0.5,0.0,0.0,392.0,659.0,0.0,1,1099.0,1
1270,1270,-0.7510429036737009,-0.8,1.0,0.0,333.0,524.0,0.0,0,273.0,1
1271,1271,0.5924761212148665,0.6,1.0,1.0,392.0,956.0,1.0,1,92.0,1
1272,1272,-0.23550108794191704,-0.2,1.0,0.0,499.0,590.0,0.0,0,571.0,1
1273,1273,-0.37579042852381983,-0.4,1.0,0.0,317.0,892.0,0.0,0,451.0,1
1274,1274,-0.21498622410346335,-0.2,0.0,1.0,368.0,967.0,1.0,0,925.0,1
1275,1275,0.34003358602276845,0.3,0.0,0.0,298.0,810.0,0.0,1,502.0,1
1276,1276,0.480631923000432,0.5,0.0,0.0,497.0,955.0,0.0,1,1458.0,1
1277,1277,0.8902698612847938,0.9,1.0,1.0,369.0,812.0,1.0,1,329.0,1
1278,1278,0.5067818375448009,0.5,1.0,1.0,328.0,838.0,1.0,1,504.0,1
1279,1279,0.4805315046589723,0.5,1.0,1.0,465.0,817.0,1.0,1,88.0,1
1280,1280,-0.4194862183466861,-0.4,0.0,1.0,465.0,787.0,1.0,0,328.0,1
1281,1281,0.8528857693957453,0.9,0.0,0.0,462.0,681.0,0.0,1,337.0,1
1282,1282,-0.518847375854018,-0.5,1.0,0.0,400.0,789.0,0.0,0,291.0,1
1283,1283,0.44149057504476563,0.4,1.0,1.0,377.0,676.0,1.0,1,337.0,1
1284,1284,0.0040435135436774905,0.0,0.0,0.0,482.0,538.0,1.0,0,1240.0,0
1285,1285,0.36743450602515393,0.4,0.0,0.0,363.0,693.0,0.0,1,494.0,1
1286,1286,0.49375148427875126,0.5,1.0,1.0,496.0,663.0,1.0,1,421.0,1
1287,1287,0.06191649334299043,0.1,1.0,1.0,264.0,870.0,1.0,1,1866.0,1
1288,1288,-0.7244893607769753,-0.7,1.0,0.0,439.0,681.0,0.0,0,250.0,1
1289,1289,-0.8943430699481868,-0.9,1.0,0.0,357.0,934.0,0.0,0,449.0,1
1290,1290,-0.14068509359555015,-0.1,1.0,0.0,385.0,579.0,0.0,0,1336.0,1
1291,1291,-0.3923779200360815,-0.4,0.0,1.0,420.0,881.0,1.0,0,499.0,1
1292,1292,-0.6832473463306017,-0.7,1.0,0.0,419.0,524.0,0.0,0,517.0,1
1293,1293,0.1996523369224642,0.2,0.0,0.0,319.0,951.0,0.0,1,1730.0,1
1294,1294,-0.7864065515682835,-0.8,1.0,0.0,358.0,554.0,0.0,0,148.0,1
1295,1295,-0.11166767149336487,-0.1,1.0,0.0,499.0,560.0,0.0,0,1941.0,1
1296,1296,-0.4246110209307239,-0.4,0.0,1.0,250.0,639.0,1.0,0,461.0,1
1297,1297,-0.12284332699778511,-0.1,1.0,0.0,341.0,759.0,0.0,0,1900.0,1
1298,1298,-0.2789458492494512,-0.3,1.0,0.0,257.0,872.0,0.0,0,701.0,1
1299,1299,-0.0846732127981209,-0.1,1.0,0.0,364.0,626.0,1.0,1,2010.0,0
1300,1300,0.8494121173734962,0.8,1.0,1.0,449.0,922.0,1.0,1,-311.0,1
1301,1301,-0.2204073860987612,-0.2,1.0,0.0,338.0,999.0,0.0,0,1663.0,1
1302,1302,0.4151735679536167,0.4,1.0,1.0,362.0,613.0,1.0,1,45.0,1
1303,1303,-0.21361044490908665,-0.2,0.0,1.0,270.0,817.0,1.0,0,663.0,1
1304,1304,-0.558138294660641,-0.6,0.0,1.0,495.0,847.0,1.0,0,298.0,1
1305,1305,0.10877025658797013,0.1,1.0,1.0,364.0,738.0,1.0,1,1048.0,1
1306,1306,-0.4061670548265038,-0.4,0.0,1.0,327.0,693.0,1.0,0,450.0,1
1307,1307,-0.8406320546925337,-0.8,0.0,1.0,330.0,966.0,1.0,0,154.0,1
1308,1308,-0.8054212137561655,-0.8,0.0,1.0,380.0,604.0,1.0,0,196.0,1
1309,1309,0.717327034159592,0.7,0.0,0.0,338.0,673.0,0.0,1,199.0,1
1310,1310,-0.5216865442784305,-0.5,1.0,0.0,285.0,620.0,0.0,0,495.0,1
1311,1311,-0.6044181453183955,-0.6,0.0,1.0,337.0,628.0,1.0,0,265.0,1
1312,1312,0.4686141899825639,0.5,1.0,1.0,255.0,966.0,1.0,1,439.0,1
1313,1313,-0.4619480167780135,-0.5,0.0,1.0,451.0,971.0,1.0,0,158.0,1
1314,1314,-0.3833301926640752,-0.4,1.0,0.0,389.0,954.0,0.0,0,747.0,1
1315,1315,0.871631922619242,0.9,1.0,1.0,285.0,687.0,1.0,1,88.0,1
1316,1316,-0.2774635306597789,-0.3,0.0,1.0,494.0,895.0,1.0,0,291.0,1
1317,1317,-0.7566691300640292,-0.8,1.0,0.0,388.0,697.0,0.0,0,145.0,1
1318,1318,-0.5654296428739511,-0.6,0.0,1.0,346.0,648.0,1.0,0,466.0,1
1319,1319,0.6679960385113118,0.7,0.0,0.0,292.0,649.0,0.0,1,739.0,1
1320,1320,-0.2213557484451304,-0.2,0.0,1.0,480.0,521.0,1.0,0,309.0,1
1321,1321,-0.7559219836016191,-0.8,0.0,1.0,499.0,848.0,1.0,0,173.0,1
1322,1322,0.7862220194167039,0.8,1.0,1.0,280.0,673.0,1.0,1,177.0,1
1323,1323,0.7168577022522379,0.7,0.0,0.0,284.0,792.0,0.0,1,404.0,1
1324,1324,-0.8068855843765972,-0.8,1.0,0.0,468.0,509.0,0.0,0,293.0,1
1325,1325,-0.7232908172201817,-0.7,0.0,1.0,327.0,750.0,1.0,0,313.0,1
1326,1326,0.16072642746943655,0.2,0.0,0.0,280.0,732.0,1.0,0,1988.0,0
1327,1327,-0.19496447995534394,-0.2,0.0,1.0,268.0,668.0,1.0,0,264.0,1
1328,1328,0.497330320784121,0.5,1.0,1.0,438.0,730.0,1.0,1,162.0,1
1329,1329,-0.6092587911776344,-0.6,0.0,1.0,457.0,511.0,1.0,0,252.0,1
1330,1330,-0.4186507198349189,-0.4,1.0,0.0,258.0,872.0,0.0,0,560.0,1
1331,1331,-0.7084814741875758,-0.7,0.0,1.0,326.0,609.0,1.0,0,135.0,1
1332,1332,-0.4723426445102253,-0.5,0.0,1.0,366.0,637.0,1.0,0,387.0,1
1333,1333,-0.21686954186575358,-0.2,0.0,1.0,316.0,584.0,1.0,0,470.0,1
1334,1334,-0.8877639080342989,-0.9,1.0,0.0,258.0,521.0,0.0,0,401.0,1
1335,1335,-0.010277377895586581,-0.0,0.0,1.0,386.0,772.0,1.0,0,1842.0,1
1336,1336,0.6880413185553401,0.7,0.0,0.0,445.0,977.0,0.0,1,248.0,1
1337,1337,-0.6568012430508567,-0.7,1.0,0.0,387.0,641.0,0.0,0,232.0,1
1338,1338,0.6170060393479307,0.6,0.0,0.0,339.0,754.0,0.0,1,447.0,1
1339,1339,-0.7918224399388292,-0.8,1.0,0.0,382.0,970.0,0.0,0,358.0,1
1340,1340,0.2958559117536971,0.3,1.0,1.0,256.0,901.0,1.0,1,713.0,1
1341,1341,0.11726278191759099,0.1,1.0,1.0,287.0,918.0,1.0,1,435.0,1
1342,1342,-0.8516997977697404,-0.9,1.0,0.0,312.0,985.0,0.0,0,313.0,1
1343,1343,-0.507719837496981,-0.5,1.0,0.0,429.0,577.0,0.0,0,414.0,1
1344,1344,0.6856688225025126,0.7,1.0,1.0,425.0,991.0,1.0,1,434.0,1
1345,1345,-0.03510884244736767,-0.0,0.0,1.0,305.0,976.0,1.0,0,1689.0,1
1346,1346,0.8422533507751356,0.8,1.0,1.0,388.0,824.0,1.0,1,-22.0,1
1347,1347,0.51761563964935,0.5,1.0,1.0,353.0,752.0,1.0,1,435.0,1
1348,1348,-0.8602182420794076,-0.9,1.0,0.0,258.0,614.0,0.0,0,178.0,1
1349,1349,-0.19412270785346075,-0.2,0.0,1.0,324.0,551.0,1.0,0,1345.0,1
1350,1350,-0.029023943100825345,-0.0,0.0,1.0,411.0,848.0,1.0,0,1001.0,1
1351,1351,0.855930787324963,0.9,1.0,1.0,347.0,700.0,1.0,1,193.0,1
1352,1352,-0.18248358412577714,-0.2,1.0,0.0,401.0,944.0,0.0,0,1655.0,1
1353,1353,0.7372104208271927,0.7,1.0,1.0,421.0,581.0,1.0,1,148.0,1
1354,1354,0.006081107023199972,0.0,1.0,1.0,387.0,501.0,1.0,1,2112.0,1
1355,1355,-0.11181132659964621,-0.1,0.0,1.0,351.0,614.0,1.0,0,2035.0,1
1356,1356,-0.8861741099982221,-0.9,0.0,1.0,376.0,618.0,1.0,0,306.0,1
1357,1357,0.4245726322213773,0.4,0.0,0.0,482.0,981.0,0.0,1,657.0,1
1358,1358,-0.5250272808743204,-0.5,0.0,1.0,453.0,630.0,1.0,0,357.0,1
1359,1359,0.24722634258191556,0.2,0.0,0.0,326.0,588.0,0.0,1,1126.0,1
1360,1360,-0.6138758787721549,-0.6,0.0,1.0,277.0,985.0,1.0,0,238.0,1
1361,1361,-0.3291954764104127,-0.3,1.0,0.0,388.0,538.0,0.0,0,824.0,1
1362,1362,-0.8263033146911359,-0.8,1.0,0.0,457.0,803.0,0.0,0,300.0,1
1363,1363,0.5194729442938707,0.5,0.0,0.0,382.0,648.0,0.0,1,640.0,1
1364,1364,0.597516437738027,0.6,1.0,1.0,382.0,759.0,1.0,1,189.0,1
1365,1365,-0.5763713478025583,-0.6,0.0,1.0,408.0,642.0,1.0,0,290.0,1
1366,1366,0.2200768791349622,0.2,1.0,1.0,281.0,638.0,1.0,1,561.0,1
1367,1367,-0.8567744352824344,-0.9,1.0,0.0,340.0,891.0,0.0,0,249.0,1
1368,1368,-0.7444988146028179,-0.7,0.0,1.0,425.0,760.0,1.0,0,155.0,1
1369,1369,-0.09139407818047895,-0.1,1.0,0.0,360.0,947.0,0.0,0,1693.0,1
1370,1370,-0.14179385383747578,-0.1,0.0,1.0,331.0,923.0,1.0,0,786.0,1
1371,1371,0.3833509554675977,0.4,0.0,0.0,297.0,912.0,0.0,1,1321.0,1
1372,1372,-0.3769986093240044,-0.4,0.0,1.0,324.0,973.0,1.0,0,333.0,1
1373,1373,0.5318009995380436,0.5,0.0,0.0,499.0,752.0,0.0,1,229.0,1
1374,1374,0.47428504466091514,0.5,1.0,1.0,293.0,699.0,1.0,1,328.0,1
1375,1375,-0.0630563073875331,-0.1,0.0,1.0,419.0,948.0,1.0,0,1473.0,1
1376,1376,0.8527632018682055,0.9,1.0,1.0,383.0,766.0,1.0,1,421.0,1
1377,1377,-0.1316355180809442,-0.1,1.0,0.0,486.0,671.0,1.0,1,1843.0,0
1378,1378,0.19282379494889346,0.2,0.0,0.0,304.0,721.0,0.0,1,1975.0,1
1379,1379,0.6377878122925403,0.6,1.0,1.0,317.0,753.0,1.0,1,340.0,1
1380,1380,-0.1431796289514119,-0.1,1.0,0.0,376.0,940.0,0.0,0,1684.0,1
1381,1381,0.5978898412627157,0.6,0.0,0.0,343.0,549.0,0.0,1,538.0,1
1382,1382,0.23781813471832136,0.2,0.0,0.0,323.0,725.0,0.0,1,1952.0,1
1383,1383,-0.44584597116987706,-0.4,1.0,0.0,305.0,603.0,0.0,0,492.0,1
1384,1384,0.7212928143818528,0.7,0.0,0.0,449.0,850.0,0.0,1,241.0,1
1385,1385,0.8314934233105723,0.8,0.0,0.0,355.0,723.0,0.0,1,362.0,1
1386,1386,0.5380388344202772,0.5,1.0,1.0,477.0,860.0,1.0,1,93.0,1
1387,1387,0.6893097625717565,0.7,1.0,1.0,492.0,828.0,1.0,1,420.0,1
1388,1388,0.07038011669336586,0.1,1.0,1.0,455.0,732.0,1.0,1,1813.0,1
1389,1389,0.671348692973278,0.7,1.0,1.0,441.0,842.0,1.0,1,167.0,1
1390,1390,-0.049409063163546985,-0.0,0.0,1.0,262.0,534.0,1.0,0,2204.0,1
1391,1391,0.4371706615560683,0.4,1.0,1.0,498.0,766.0,1.0,1,46.0,1
1392,1392,0.3729329116532688,0.4,0.0,0.0,372.0,568.0,0.0,1,520.0,1
1393,1393,0.7407975481935057,0.7,1.0,1.0,324.0,670.0,1.0,1,296.0,1
1394,1394,0.6863249008628979,0.7,1.0,1.0,490.0,649.0,1.0,1,371.0,1
1395,1395,0.4126429323310251,0.4,1.0,1.0,424.0,760.0,1.0,1,316.0,1
1396,1396,0.44592892771115544,0.4,0.0,0.0,458.0,731.0,0.0,1,901.0,1
1397,1397,-0.15202918480043914,-0.2,1.0,0.0,451.0,740.0,0.0,0,1809.0,1
1398,1398,-0.024439615350301924,-0.0,0.0,1.0,285.0,839.0,1.0,0,1876.0,1
1399,1399,0.05692183548897545,0.1,1.0,1.0,339.0,971.0,1.0,1,1690.0,1
1400,1400,0.4848744230953167,0.5,1.0,1.0,347.0,763.0,1.0,1,200.0,1
1401,1401,-0.7531360892731656,-0.8,0.0,1.0,361.0,995.0,1.0,0,214.0,1
1402,1402,-0.1486665236555924,-0.1,1.0,0.0,332.0,654.0,0.0,0,1544.0,1
1403,1403,-0.7871857584102452,-0.8,1.0,0.0,264.0,876.0,0.0,0,190.0,1
1404,1404,-0.12717611411664032,-0.1,1.0,0.0,377.0,734.0,0.0,0,749.0,1
1405,1405,0.3316216004739322,0.3,0.0,0.0,304.0,989.0,0.0,1,1067.0,1
1406,1406,-0.7002229811496905,-0.7,0.0,1.0,316.0,678.0,1.0,0,226.0,1
1407,1407,-0.3053602300190973,-0.3,0.0,1.0,383.0,732.0,1.0,0,-45.0,1
1408,1408,0.6479684331747811,0.6,1.0,1.0,311.0,571.0,1.0,1,278.0,1
1409,1409,0.6815534860436413,0.7,1.0,1.0,406.0,903.0,1.0,1,181.0,1
1410,1410,-0.08587166703691895,-0.1,0.0,1.0,423.0,888.0,1.0,0,679.0,1
1411,1411,0.5145254708491199,0.5,1.0,1.0,443.0,741.0,1.0,1,56.0,1
1412,1412,-0.2212364851484957,-0.2,0.0,1.0,430.0,693.0,1.0,0,1157.0,1
1413,1413,-0.49276961001699876,-0.5,0.0,1.0,415.0,679.0,1.0,0,436.0,1
1414,1414,-0.0501391236012072,-0.1,0.0,1.0,489.0,686.0,1.0,0,1825.0,1
1415,1415,0.8905396266540703,0.9,1.0,1.0,301.0,573.0,1.0,1,176.0,1
1416,1416,-0.8862092693918434,-0.9,0.0,1.0,424.0,755.0,1.0,0,151.0,1
1417,1417,-0.898443940742309,-0.9,1.0,0.0,350.0,902.0,0.0,0,198.0,1
1418,1418,-0.7138464518027178,-0.7,1.0,0.0,310.0,664.0,0.0,0,416.0,1
1419,1419,0.06510094082410023,0.1,0.0,0.0,267.0,570.0,1.0,0,2163.0,0
1420,1420,-0.8491009997403033,-0.8,0.0,1.0,445.0,554.0,1.0,0,201.0,1
1421,1421,-0.8567295712463388,-0.9,1.0,0.0,499.0,717.0,0.0,0,274.0,1
1422,1422,-0.7295870522133454,-0.7,0.0,1.0,277.0,839.0,1.0,0,304.0,1
1423,1423,0.023538027550007556,0.0,0.0,0.0,397.0,519.0,1.0,0,2084.0,0
1424,1424,-0.3153151351916058,-0.3,1.0,0.0,473.0,588.0,0.0,0,369.0,1
1425,1425,0.4761060824616662,0.5,0.0,0.0,421.0,775.0,0.0,1,204.0,1
1426,1426,-0.14855323524669772,-0.1,0.0,1.0,421.0,540.0,1.0,0,819.0,1
1427,1427,0.2707462097163983,0.3,0.0,0.0,386.0,561.0,0.0,1,843.0,1
1428,1428,0.6724271694099279,0.7,1.0,1.0,415.0,885.0,1.0,1,260.0,1
1429,1429,0.7704540487199408,0.8,0.0,0.0,412.0,816.0,0.0,1,232.0,1
1430,1430,-0.11819150404788592,-0.1,0.0,1.0,449.0,993.0,1.0,0,1558.0,1
1431,1431,-0.7725679761048828,-0.8,1.0,0.0,280.0,735.0,0.0,0,665.0,1
1432,1432,-0.09144602981399108,-0.1,0.0,1.0,496.0,513.0,1.0,0,1991.0,1
1433,1433,0.710028213930768,0.7,1.0,1.0,367.0,785.0,1.0,1,248.0,1
1434,1434,0.6708627788128033,0.7,0.0,0.0,389.0,549.0,0.0,1,202.0,1
1435,1435,0.016308343604916842,0.0,1.0,1.0,405.0,797.0,1.0,1,1798.0,1
1436,1436,0.4171520847424638,0.4,0.0,0.0,485.0,931.0,0.0,1,324.0,1
1437,1437,0.8136427389530013,0.8,0.0,0.0,264.0,983.0,0.0,1,353.0,1
1438,1438,-0.5350524297444021,-0.5,1.0,0.0,265.0,549.0,0.0,0,296.0,1
1439,1439,0.01846174313221083,0.0,1.0,1.0,494.0,604.0,1.0,1,1332.0,1
1440,1440,0.6018655706521557,0.6,1.0,1.0,439.0,614.0,1.0,1,337.0,1
1441,1441,0.7284360571998788,0.7,1.0,1.0,367.0,651.0,1.0,1,252.0,1
1442,1442,0.42929730098753216,0.4,1.0,1.0,495.0,953.0,1.0,1,252.0,1
1443,1443,-0.30215383537171003,-0.3,0.0,1.0,486.0,546.0,1.0,0,338.0,1
1444,1444,-0.8149427419439687,-0.8,1.0,0.0,391.0,604.0,0.0,0,355.0,1
1445,1445,-0.1057344528003149,-0.1,1.0,0.0,437.0,924.0,1.0,1,1639.0,0
1446,1446,-0.7479857850190231,-0.7,1.0,0.0,351.0,569.0,0.0,0,150.0,1
1447,1447,0.3042848525477396,0.3,0.0,0.0,255.0,516.0,0.0,1,649.0,1
1448,1448,-0.6804172467110838,-0.7,1.0,0.0,464.0,777.0,0.0,0,309.0,1
1449,1449,0.3656910013245157,0.4,1.0,1.0,492.0,752.0,1.0,1,576.0,1
1450,1450,-0.20442814847923907,-0.2,0.0,1.0,496.0,787.0,1.0,0,957.0,1
1451,1451,-0.7251223532262057,-0.7,1.0,0.0,330.0,686.0,0.0,0,264.0,1
1452,1452,-0.44123653445416405,-0.4,0.0,1.0,281.0,504.0,1.0,0,205.0,1
1453,1453,-0.19538316555993696,-0.2,0.0,1.0,331.0,963.0,1.0,0,1126.0,1
1454,1454,0.4061156288157509,0.4,1.0,1.0,257.0,584.0,1.0,1,329.0,1
1455,1455,-0.15939969330210202,-0.2,0.0,1.0,321.0,706.0,1.0,0,423.0,1
1456,1456,-0.6401928986698062,-0.6,1.0,0.0,252.0,532.0,0.0,0,256.0,1
1457,1457,-0.5273788939231665,-0.5,0.0,1.0,374.0,637.0,1.0,0,309.0,1
1458,1458,0.08922871560864032,0.1,1.0,1.0,306.0,983.0,1.0,1,1141.0,1
1459,1459,0.16692068962941342,0.2,1.0,1.0,476.0,922.0,1.0,1,-168.0,1
1460,1460,0.3489767860075289,0.3,1.0,1.0,475.0,893.0,1.0,1,462.0,1
1461,1461,0.12849500059655894,0.1,0.0,0.0,306.0,796.0,1.0,0,1898.0,0
1462,1462,0.8300761755886371,0.8,0.0,0.0,254.0,591.0,0.0,1,205.0,1
1463,1463,0.5242105547896879,0.5,0.0,0.0,331.0,504.0,0.0,1,435.0,1
1464,1464,-0.615612721209174,-0.6,0.0,1.0,299.0,777.0,1.0,0,144.0,1
1465,1465,-0.19607425448422966,-0.2,0.0,1.0,487.0,847.0,1.0,0,1666.0,1
1466,1466,-0.6322838138611486,-0.6,1.0,0.0,297.0,595.0,0.0,0,328.0,1
1467,1467,-0.6996257610864707,-0.7,0.0,1.0,294.0,856.0,1.0,0,230.0,1
1468,1468,0.33725354538585306,0.3,0.0,0.0,383.0,515.0,0.0,1,772.0,1
1469,1469,-0.5532560310905952,-0.6,1.0,0.0,311.0,897.0,0.0,0,572.0,1
1470,1470,0.37436395706030756,0.4,0.0,0.0,436.0,845.0,0.0,1,609.0,1
1471,1471,0.07603144481219781,0.1,0.0,0.0,259.0,874.0,0.0,1,1867.0,1
1472,1472,0.7248277606167658,0.7,1.0,1.0,390.0,891.0,1.0,1,249.0,1
1473,1473,0.14944211178703337,0.1,0.0,0.0,308.0,604.0,0.0,1,2088.0,1
1474,1474,-0.3915570046669796,-0.4,0.0,1.0,485.0,773.0,1.0,0,242.0,1
1475,1475,0.7408184483750647,0.7,0.0,0.0,252.0,992.0,0.0,1,186.0,1
1476,1476,-0.12662411635781323,-0.1,0.0,1.0,384.0,619.0,1.0,0,507.0,1
1477,1477,0.3249868872707252,0.3,0.0,0.0,415.0,928.0,0.0,1,447.0,1
1478,1478,-0.703438611937325,-0.7,1.0,0.0,275.0,907.0,0.0,0,88.0,1
1479,1479,-0.5649404964787348,-0.6,0.0,1.0,259.0,531.0,1.0,0,420.0,1
1480,1480,-0.8842824756000734,-0.9,0.0,1.0,404.0,564.0,1.0,0,292.0,1
1481,1481,0.7089991348807275,0.7,0.0,0.0,288.0,580.0,0.0,1,472.0,1
1482,1482,0.34040367757892576,0.3,0.0,0.0,478.0,794.0,0.0,1,1368.0,1
1483,1483,0.04219144845726197,0.0,0.0,0.0,376.0,898.0,1.0,0,1726.0,0
1484,1484,-0.4100359665286519,-0.4,1.0,0.0,285.0,848.0,0.0,0,607.0,1
1485,1485,0.7848718773016145,0.8,1.0,1.0,364.0,527.0,1.0,1,319.0,1
1486,1486,-0.10732499347785429,-0.1,0.0,1.0,498.0,892.0,1.0,0,570.0,1
1487,1487,-0.21767864511909618,-0.2,1.0,0.0,255.0,801.0,0.0,0,1944.0,1
1488,1488,-0.5487985267486323,-0.5,0.0,1.0,404.0,567.0,1.0,0,359.0,1
