,trial,coherence,coherence_bin,green_side,correct_side,target_onset,checker_onset,decision,green_decision,decision_time,correct_decision
0,0,0.8418815158059113,0.8,0.0,0.0,291.0,764.0,0.0,1,925.0,1
1,1,-0.5477082004910754,-0.5,1.0,0.0,349.0,957.0,0.0,0,-156.0,1
2,2,-0.8006435859094545,-0.8,1.0,0.0,497.0,766.0,0.0,0,1737.0,1
3,3,-0.7147258396879205,-0.7,0.0,1.0,338.0,674.0,0.0,1,-432.0,0
4,4,-0.09341775610506509,-0.1,1.0,0.0,417.0,692.0,0.0,0,-949.0,1
5,5,-0.7039103073143058,-0.7,1.0,0.0,410.0,888.0,0.0,0,-638.0,1
6,6,-0.1528123016199231,-0.2,1.0,0.0,441.0,790.0,0.0,0,-881.0,1
7,7,0.776869527031869,0.8,0.0,0.0,314.0,739.0,0.0,1,1947.0,1
8,8,-0.5739860375120709,-0.6,1.0,0.0,380.0,528.0,0.0,0,1322.0,1
9,9,0.1284880666338254,0.1,1.0,1.0,408.0,594.0,0.0,0,-762.0,0
10,10,-0.2875975704435968,-0.3,0.0,1.0,253.0,562.0,0.0,1,-415.0,0
11,11,-0.8954813581062309,-0.9,0.0,1.0,376.0,592.0,1.0,0,2032.0,1
12,12,-0.6878785258824425,-0.7,0.0,1.0,443.0,704.0,1.0,0,1853.0,1
13,13,0.7372146834514531,0.7,1.0,1.0,444.0,832.0,0.0,0,-56.0,0
14,14,0.509097773469389,0.5,0.0,0.0,271.0,560.0,1.0,0,-191.0,0
15,15,0.6247224932682168,0.6,1.0,1.0,403.0,946.0,0.0,0,-1179.0,0
16,16,-0.8931727843772296,-0.9,0.0,1.0,272.0,533.0,1.0,0,535.0,1
17,17,-0.194769234545756,-0.2,0.0,1.0,377.0,944.0,1.0,0,1679.0,1
18,18,-0.028580928282285645,-0.0,1.0,0.0,467.0,614.0,0.0,0,-551.0,1
19,19,0.48347577647659035,0.5,1.0,1.0,470.0,533.0,0.0,0,957.0,0
20,20,0.014217876518812345,0.0,0.0,0.0,269.0,916.0,0.0,1,325.0,1
21,21,-0.04075778601821989,-0.0,1.0,0.0,493.0,894.0,1.0,1,1613.0,0
22,22,0.050915063456401954,0.1,1.0,1.0,462.0,871.0,0.0,0,1237.0,0
23,23,0.209204429710807,0.2,1.0,1.0,444.0,856.0,1.0,1,1700.0,1
24,24,-0.7758201065627033,-0.8,0.0,1.0,460.0,673.0,0.0,1,-833.0,0
25,25,-0.8974501956616552,-0.9,0.0,1.0,398.0,880.0,0.0,1,-518.0,0
26,26,-0.264454608121508,-0.3,0.0,1.0,470.0,600.0,1.0,0,1930.0,1
27,27,0.5585584301261547,0.6,1.0,1.0,338.0,982.0,0.0,0,180.0,0
28,28,0.3770686147896244,0.4,1.0,1.0,383.0,742.0,0.0,0,665.0,0
29,29,0.5611679929757915,0.6,1.0,1.0,337.0,718.0,0.0,0,1945.0,0
30,30,0.7496183081546722,0.7,0.0,0.0,473.0,656.0,0.0,1,1371.0,1
31,31,-0.7607065235764935,-0.8,0.0,1.0,294.0,591.0,1.0,0,2115.0,1
32,32,-0.1368299258084087,-0.1,0.0,1.0,400.0,805.0,0.0,1,1035.0,0
33,33,0.891320017101726,0.9,0.0,0.0,380.0,904.0,0.0,1,646.0,1
34,34,-0.37553194861669414,-0.4,0.0,1.0,267.0,594.0,1.0,0,209.0,1
35,35,0.5504533265098407,0.6,0.0,0.0,284.0,855.0,1.0,0,1861.0,0
36,36,-0.22457940818968192,-0.2,0.0,1.0,392.0,648.0,0.0,1,1770.0,0
37,37,0.241844952355171,0.2,1.0,1.0,431.0,821.0,1.0,1,338.0,1
38,38,-0.030138940138116577,-0.0,0.0,1.0,290.0,952.0,1.0,0,1758.0,1
39,39,0.5410293240637559,0.5,0.0,0.0,454.0,633.0,1.0,0,1913.0,0
40,40,-0.6217254096422894,-0.6,0.0,1.0,296.0,979.0,0.0,1,-635.0,0
41,41,0.6077722173515833,0.6,1.0,1.0,392.0,954.0,0.0,0,1104.0,0
42,42,0.6325758948808254,0.6,1.0,1.0,387.0,778.0,0.0,0,1115.0,0
43,43,-0.398082500210738,-0.4,0.0,1.0,250.0,991.0,0.0,1,-221.0,0
44,44,0.369527090743213,0.4,0.0,0.0,323.0,748.0,0.0,1,-651.0,1
45,45,0.02020316738645256,0.0,0.0,0.0,458.0,622.0,0.0,1,1920.0,1
46,46,-0.16203235522201076,-0.2,0.0,1.0,256.0,613.0,0.0,1,-639.0,0
47,47,-0.29528293567605024,-0.3,0.0,1.0,305.0,778.0,0.0,1,-433.0,0
48,48,-0.27438757953764403,-0.3,0.0,1.0,395.0,547.0,0.0,1,-602.0,0
49,49,-0.20600578608516784,-0.2,0.0,1.0,250.0,788.0,0.0,1,-858.0,0
50,50,-0.27156317119643936,-0.3,1.0,0.0,353.0,560.0,0.0,0,-223.0,1
51,51,0.5329663191484529,0.5,0.0,0.0,489.0,788.0,0.0,1,1723.0,1
52,52,0.31702235818206226,0.3,0.0,0.0,359.0,881.0,1.0,0,1760.0,0
53,53,0.8369542437151015,0.8,1.0,1.0,496.0,690.0,0.0,0,1814.0,0
54,54,0.398019962734926,0.4,1.0,1.0,284.0,678.0,0.0,0,588.0,0
55,55,0.5408234613113551,0.5,1.0,1.0,258.0,732.0,0.0,0,2010.0,0
56,56,0.7069417875830847,0.7,0.0,0.0,374.0,704.0,0.0,1,-578.0,1
57,57,-0.7312242125661795,-0.7,1.0,0.0,370.0,830.0,0.0,0,-1200.0,1
58,58,0.24170615896466063,0.2,1.0,1.0,478.0,632.0,0.0,0,840.0,0
59,59,0.03168046649109091,0.0,1.0,1.0,378.0,613.0,0.0,0,119.0,0
60,60,-0.5765205826157203,-0.6,0.0,1.0,373.0,685.0,0.0,1,-788.0,0
61,61,-0.3029563420054733,-0.3,1.0,0.0,340.0,552.0,0.0,0,-32.0,1
62,62,-0.3510110021542595,-0.4,1.0,0.0,474.0,986.0,0.0,0,930.0,1
63,63,0.04889085266997639,0.0,1.0,1.0,305.0,514.0,0.0,0,1461.0,0
64,64,-0.8484080767111468,-0.8,1.0,0.0,389.0,964.0,0.0,0,187.0,1
65,65,-0.1501928413361605,-0.2,1.0,0.0,394.0,759.0,0.0,0,1407.0,1
66,66,0.0485599664277192,0.0,1.0,1.0,440.0,506.0,0.0,0,1264.0,0
67,67,-0.2921269587154204,-0.3,0.0,1.0,334.0,839.0,0.0,1,-123.0,0
68,68,-0.6522247967407319,-0.7,0.0,1.0,315.0,783.0,1.0,0,882.0,1
69,69,-0.3807780637215915,-0.4,0.0,1.0,334.0,860.0,1.0,0,1806.0,1
70,70,0.6962489448786894,0.7,0.0,0.0,326.0,795.0,0.0,1,1879.0,1
71,71,-0.8685558537188109,-0.9,1.0,0.0,291.0,940.0,1.0,1,1769.0,0
72,72,-0.8075865614991576,-0.8,0.0,1.0,304.0,953.0,1.0,0,-887.0,1
73,73,-0.041658441520061595,-0.0,0.0,1.0,452.0,516.0,0.0,1,-838.0,0
74,74,-0.3353297209854036,-0.3,0.0,1.0,320.0,975.0,0.0,1,115.0,0
75,75,-0.24131974279047497,-0.2,1.0,0.0,460.0,576.0,1.0,1,1964.0,0
76,76,-0.2829603718201871,-0.3,1.0,0.0,489.0,875.0,0.0,0,-904.0,1
77,77,-0.04372485946536331,-0.0,1.0,0.0,250.0,905.0,0.0,0,-635.0,1
78,78,0.1454969929637443,0.1,0.0,0.0,440.0,702.0,0.0,1,-272.0,1
79,79,0.44594180414581885,0.4,0.0,0.0,483.0,739.0,0.0,1,-432.0,1
80,80,-0.3779889665263444,-0.4,1.0,0.0,351.0,652.0,0.0,0,-483.0,1
81,81,-0.15240839068943468,-0.2,0.0,1.0,369.0,742.0,1.0,0,1889.0,1
82,82,-0.37920748691557593,-0.4,0.0,1.0,294.0,699.0,1.0,0,2007.0,1
83,83,0.8855554467194354,0.9,1.0,1.0,488.0,550.0,0.0,0,-398.0,0
84,84,0.41186279180385366,0.4,1.0,1.0,254.0,647.0,0.0,0,-561.0,0
85,85,0.23730846816838047,0.2,0.0,0.0,316.0,688.0,0.0,1,-74.0,1
86,86,0.10162447718696666,0.1,0.0,0.0,375.0,706.0,0.0,1,259.0,1
87,87,0.6894600748030822,0.7,1.0,1.0,467.0,734.0,0.0,0,-1.0,0
88,88,-0.3495914136834696,-0.3,0.0,1.0,490.0,850.0,0.0,1,1070.0,0
89,89,0.5088003905530308,0.5,1.0,1.0,454.0,574.0,0.0,0,1092.0,0
90,90,-0.6705615502563186,-0.7,0.0,1.0,421.0,972.0,1.0,0,1607.0,1
91,91,0.6355998124470424,0.6,1.0,1.0,376.0,504.0,1.0,1,2120.0,1
92,92,0.17457501880972914,0.2,1.0,1.0,332.0,530.0,0.0,0,-322.0,0
93,93,-0.06403915761844836,-0.1,0.0,1.0,432.0,701.0,0.0,1,907.0,0
94,94,-0.5910592432176023,-0.6,0.0,1.0,350.0,858.0,0.0,1,202.0,0
95,95,0.18673157303877808,0.2,0.0,0.0,369.0,593.0,0.0,1,598.0,1
96,96,-0.214921015767071,-0.2,0.0,1.0,390.0,886.0,0.0,1,1034.0,0
97,97,0.7040255232354359,0.7,1.0,1.0,439.0,861.0,0.0,0,150.0,0
98,98,-0.19802125322010478,-0.2,1.0,0.0,267.0,801.0,0.0,0,-438.0,1
99,99,-0.7151455764222665,-0.7,0.0,1.0,377.0,550.0,0.0,1,1273.0,0
100,100,-0.674130310375763,-0.7,0.0,1.0,471.0,503.0,0.0,1,-384.0,0
101,101,0.3180730858528419,0.3,1.0,1.0,487.0,652.0,0.0,0,-679.0,0
102,102,0.05429785779192964,0.1,1.0,1.0,290.0,735.0,0.0,0,-505.0,0
103,103,0.41359236450453063,0.4,1.0,1.0,256.0,873.0,0.0,0,-429.0,0
104,104,-0.16849981241838796,-0.2,1.0,0.0,370.0,959.0,0.0,0,-1119.0,1
105,105,-0.7447569381545833,-0.7,0.0,1.0,272.0,800.0,0.0,1,1928.0,0
106,106,0.6250382370954809,0.6,1.0,1.0,261.0,747.0,0.0,0,1992.0,0
107,107,-0.4680160499412001,-0.5,1.0,0.0,317.0,717.0,0.0,0,-844.0,1
108,108,-0.04064112095893868,-0.0,0.0,1.0,485.0,814.0,1.0,0,1701.0,1
109,109,0.3265631817347475,0.3,1.0,1.0,344.0,537.0,0.0,0,1589.0,0
110,110,0.00018602279329726912,0.0,1.0,1.0,299.0,776.0,1.0,1,1665.0,1
111,111,0.4316528578459008,0.4,0.0,0.0,499.0,820.0,1.0,0,-89.0,0
112,112,-0.1214440259673013,-0.1,1.0,0.0,469.0,785.0,0.0,0,-574.0,1
113,113,0.8929095579992309,0.9,1.0,1.0,483.0,987.0,0.0,0,-880.0,0
114,114,0.008108892779585375,0.0,0.0,0.0,376.0,895.0,0.0,1,649.0,1
115,115,-0.26002257599913203,-0.3,1.0,0.0,474.0,964.0,0.0,0,-468.0,1
116,116,-0.34672428302297753,-0.3,1.0,0.0,495.0,841.0,0.0,0,-596.0,1
117,117,-0.14417670638776736,-0.1,1.0,0.0,425.0,525.0,0.0,0,2050.0,1
118,118,0.6978202702031923,0.7,1.0,1.0,310.0,596.0,0.0,0,404.0,0
119,119,0.23235617390698382,0.2,1.0,1.0,275.0,708.0,0.0,0,1517.0,0
120,120,-0.4089504522135039,-0.4,1.0,0.0,449.0,990.0,0.0,0,911.0,1
121,121,-0.7932939862210728,-0.8,0.0,1.0,496.0,688.0,1.0,0,456.0,1
122,122,-0.5266437240520625,-0.5,1.0,0.0,473.0,849.0,0.0,0,-1242.0,1
123,123,0.04623901040591927,0.0,1.0,1.0,376.0,773.0,0.0,0,-889.0,0
124,124,-0.029542371788699895,-0.0,0.0,1.0,426.0,565.0,0.0,1,-501.0,0
125,125,0.2237716312265866,0.2,0.0,0.0,354.0,534.0,1.0,0,2112.0,0
126,126,0.6407212225537989,0.6,1.0,1.0,472.0,690.0,1.0,1,1838.0,1
127,127,-0.42700307405012566,-0.4,1.0,0.0,302.0,515.0,0.0,0,583.0,1
128,128,-0.133295200286618,-0.1,1.0,0.0,258.0,662.0,1.0,1,2080.0,0
129,129,0.010749671923782067,0.0,1.0,1.0,345.0,862.0,0.0,0,-1057.0,0
130,130,0.48132081666647586,0.5,1.0,1.0,287.0,846.0,0.0,0,707.0,0
131,131,0.6702439812135942,0.7,0.0,0.0,328.0,933.0,0.0,1,959.0,1
132,132,-0.7973476429321597,-0.8,1.0,0.0,458.0,734.0,0.0,0,-372.0,1
133,133,0.4181473765036875,0.4,0.0,0.0,403.0,615.0,1.0,0,1982.0,0
134,134,-0.4433152543474213,-0.4,0.0,1.0,268.0,586.0,0.0,1,156.0,0
135,135,0.16210642095349315,0.2,1.0,1.0,492.0,997.0,0.0,0,-329.0,0
136,136,0.31929974294394714,0.3,0.0,0.0,498.0,542.0,0.0,1,270.0,1
137,137,-0.1937211267644453,-0.2,0.0,1.0,461.0,992.0,0.0,1,1377.0,0
138,138,0.1039783410847096,0.1,0.0,0.0,442.0,666.0,0.0,1,-398.0,1
139,139,0.6639527506970248,0.7,0.0,0.0,299.0,676.0,0.0,1,2025.0,1
140,140,-0.39950184004803824,-0.4,0.0,1.0,374.0,992.0,1.0,0,1634.0,1
141,141,-0.29053927211880204,-0.3,0.0,1.0,428.0,644.0,1.0,0,1928.0,1
142,142,0.4169069010985377,0.4,1.0,1.0,294.0,568.0,0.0,0,1518.0,0
143,143,0.07829260467757149,0.1,0.0,0.0,295.0,772.0,0.0,1,273.0,1
144,144,0.4371921517896914,0.4,0.0,0.0,413.0,540.0,0.0,1,1407.0,1
145,145,-0.322841238257083,-0.3,0.0,1.0,285.0,830.0,0.0,1,-1015.0,0
146,146,0.7665294693959671,0.8,0.0,0.0,465.0,536.0,0.0,1,729.0,1
147,147,-0.06366274124483606,-0.1,0.0,1.0,284.0,653.0,0.0,1,1673.0,0
148,148,-0.8254910529933385,-0.8,0.0,1.0,456.0,740.0,1.0,0,1804.0,1
149,149,-0.3831814166234473,-0.4,0.0,1.0,460.0,624.0,1.0,0,1916.0,1
150,150,-0.8991288522528355,-0.9,1.0,0.0,490.0,595.0,0.0,0,-935.0,1
151,151,-0.6460340641389866,-0.6,0.0,1.0,465.0,989.0,0.0,1,-1234.0,0
152,152,-0.235676832400865,-0.2,1.0,0.0,331.0,788.0,0.0,0,391.0,1
153,153,0.6272829225453388,0.6,1.0,1.0,288.0,896.0,0.0,0,-924.0,0
154,154,0.3793722059576242,0.4,0.0,0.0,352.0,748.0,1.0,0,1750.0,0
155,155,0.8943807406271492,0.9,1.0,1.0,350.0,883.0,0.0,0,-883.0,0
156,156,-0.15100431760306332,-0.2,0.0,1.0,264.0,810.0,0.0,1,1006.0,0
157,157,0.6130666217998956,0.6,1.0,1.0,433.0,840.0,0.0,0,-973.0,0
158,158,0.2523994819322385,0.3,0.0,0.0,454.0,928.0,1.0,0,1618.0,0
159,159,0.6350497436987902,0.6,0.0,0.0,470.0,810.0,0.0,1,1540.0,1
160,160,0.6557025363673757,0.7,1.0,1.0,285.0,833.0,0.0,0,-908.0,0
161,161,-0.023033361798847074,-0.0,1.0,0.0,389.0,593.0,0.0,0,568.0,1
162,162,0.4963658912375767,0.5,1.0,1.0,400.0,515.0,1.0,1,-455.0,1
163,163,-0.606096827550169,-0.6,1.0,0.0,323.0,625.0,0.0,0,2052.0,1
164,164,-0.7543729745970631,-0.8,1.0,0.0,329.0,934.0,0.0,0,-243.0,1
165,165,-0.06509196516255045,-0.1,0.0,1.0,449.0,831.0,0.0,1,1650.0,0
166,166,-0.48363450647672507,-0.5,1.0,0.0,321.0,777.0,0.0,0,-318.0,1
167,167,0.8087847036560406,0.8,1.0,1.0,320.0,867.0,0.0,0,-147.0,0
168,168,-0.7010816052440213,-0.7,0.0,1.0,461.0,758.0,0.0,1,51.0,0
169,169,0.39679545971701813,0.4,0.0,0.0,490.0,512.0,0.0,1,-882.0,1
170,170,-0.8817847960423306,-0.9,1.0,0.0,491.0,627.0,0.0,0,-1058.0,1
171,171,0.5268353225143892,0.5,1.0,1.0,353.0,687.0,1.0,1,1960.0,1
172,172,0.522570576861307,0.5,1.0,1.0,452.0,523.0,1.0,1,2025.0,1
173,173,-0.12230284233757138,-0.1,0.0,1.0,304.0,599.0,0.0,1,187.0,0
174,174,0.8624910498204116,0.9,1.0,1.0,496.0,517.0,0.0,0,-243.0,0
175,175,0.28558646997231973,0.3,1.0,1.0,277.0,513.0,0.0,0,-610.0,0
176,176,-0.1848141217939301,-0.2,1.0,0.0,394.0,820.0,0.0,0,-304.0,1
177,177,0.47649824434272514,0.5,0.0,0.0,372.0,831.0,1.0,0,1797.0,0
178,178,-0.26403086146718346,-0.3,0.0,1.0,345.0,887.0,1.0,0,-462.0,1
179,179,0.36195883678937946,0.4,0.0,0.0,340.0,858.0,1.0,0,2.0,0
180,180,0.3606956848407489,0.4,0.0,0.0,359.0,625.0,0.0,1,-474.0,1
181,181,-0.030493596858674255,-0.0,0.0,1.0,441.0,900.0,1.0,0,649.0,1
182,182,-0.4931209429751557,-0.5,0.0,1.0,394.0,982.0,0.0,1,-1046.0,0
183,183,-0.3752869391537621,-0.4,0.0,1.0,316.0,846.0,0.0,1,928.0,0
184,184,-0.44165327502640855,-0.4,0.0,1.0,471.0,955.0,0.0,1,1574.0,0
185,185,0.43169320001888034,0.4,1.0,1.0,357.0,592.0,0.0,0,1031.0,0
186,186,-0.696670621812278,-0.7,1.0,0.0,487.0,878.0,0.0,0,-785.0,1
187,187,-0.5073513439581079,-0.5,1.0,0.0,389.0,713.0,1.0,1,-752.0,0
188,188,-0.7609205251755542,-0.8,1.0,0.0,293.0,554.0,0.0,0,-827.0,1
189,189,-0.8202391891449724,-0.8,1.0,0.0,256.0,518.0,1.0,1,2226.0,0
190,190,-0.2730642649504893,-0.3,0.0,1.0,368.0,776.0,1.0,0,1856.0,1
191,191,0.2774021646452186,0.3,0.0,0.0,459.0,744.0,0.0,1,-853.0,1
192,192,-0.19936644848388774,-0.2,0.0,1.0,267.0,914.0,0.0,1,269.0,0
193,193,0.07931798813165658,0.1,0.0,0.0,389.0,968.0,1.0,0,-687.0,0
194,194,-0.2546534604650347,-0.3,0.0,1.0,291.0,886.0,1.0,0,1823.0,1
195,195,0.04804178560272343,0.0,0.0,0.0,322.0,810.0,0.0,1,1358.0,1
196,196,0.5697884805059356,0.6,0.0,0.0,437.0,868.0,0.0,1,-625.0,1
197,197,-0.0908885467971986,-0.1,0.0,1.0,425.0,655.0,0.0,1,50.0,0
198,198,-0.833243549857322,-0.8,1.0,0.0,476.0,733.0,0.0,0,-859.0,1
199,199,-0.4014836097362578,-0.4,1.0,0.0,304.0,745.0,0.0,0,1941.0,1
200,200,0.7213362795421748,0.7,0.0,0.0,487.0,868.0,0.0,1,-1065.0,1
201,201,0.3958884276848881,0.4,1.0,1.0,337.0,843.0,0.0,0,-460.0,0
202,202,-0.712447294237262,-0.7,0.0,1.0,453.0,736.0,0.0,1,-989.0,0
203,203,0.13682681401146712,0.1,0.0,0.0,361.0,968.0,1.0,0,1671.0,0
204,204,-0.46505237135347005,-0.5,1.0,0.0,400.0,901.0,0.0,0,-1261.0,1
205,205,-0.1675630849760884,-0.2,0.0,1.0,352.0,944.0,1.0,0,1704.0,1
206,206,-0.13672524416888077,-0.1,0.0,1.0,263.0,604.0,0.0,1,1213.0,0
207,207,-0.1799047332161533,-0.2,0.0,1.0,312.0,591.0,1.0,0,607.0,1
208,208,0.05947416944525652,0.1,0.0,0.0,464.0,683.0,1.0,0,-597.0,0
209,209,0.3895429053313396,0.4,1.0,1.0,430.0,878.0,0.0,0,1602.0,0
210,210,-0.5142547353203828,-0.5,0.0,1.0,447.0,770.0,0.0,1,-647.0,0
211,211,-0.07465336256458521,-0.1,1.0,0.0,384.0,841.0,1.0,1,1775.0,0
212,212,-0.5973398981246048,-0.6,0.0,1.0,393.0,727.0,1.0,0,1880.0,1
213,213,-0.7889410360289061,-0.8,0.0,1.0,495.0,513.0,1.0,0,1212.0,1
214,214,-0.6378338827295686,-0.6,1.0,0.0,289.0,509.0,0.0,0,-388.0,1
215,215,0.8610599080192621,0.9,0.0,0.0,303.0,685.0,0.0,1,-8.0,1
216,216,0.1605880148033908,0.2,1.0,1.0,321.0,724.0,0.0,0,-555.0,0
217,217,0.5696797444677361,0.6,1.0,1.0,268.0,913.0,0.0,0,1819.0,0
218,218,0.6860928220174903,0.7,1.0,1.0,459.0,794.0,0.0,0,57.0,0
219,219,-0.08557171598104951,-0.1,0.0,1.0,314.0,686.0,1.0,0,2000.0,1
220,220,-0.5636573666823119,-0.6,0.0,1.0,297.0,827.0,1.0,0,1726.0,1
221,221,-0.12296681815413124,-0.1,0.0,1.0,363.0,904.0,0.0,1,-1257.0,0
222,222,0.01374500620228336,0.0,0.0,0.0,279.0,696.0,0.0,1,455.0,1
223,223,-0.6374124375856345,-0.6,1.0,0.0,287.0,921.0,1.0,1,1792.0,0
224,224,-0.2269586931338523,-0.2,1.0,0.0,334.0,915.0,0.0,0,-289.0,1
225,225,0.46279805816846087,0.5,1.0,1.0,486.0,828.0,0.0,0,1386.0,0
226,226,0.29835047147575045,0.3,0.0,0.0,486.0,891.0,0.0,1,-727.0,1
227,227,0.8171408177264906,0.8,0.0,0.0,267.0,678.0,1.0,0,2055.0,0
228,228,0.4025380516380693,0.4,1.0,1.0,486.0,513.0,1.0,1,2001.0,1
229,229,-0.6297856095263286,-0.6,1.0,0.0,427.0,727.0,0.0,0,306.0,1
230,230,0.7864173402519744,0.8,1.0,1.0,490.0,696.0,0.0,0,1344.0,0
231,231,0.4809805828561434,0.5,0.0,0.0,491.0,704.0,1.0,0,1805.0,0
232,232,-0.23576466343911961,-0.2,0.0,1.0,355.0,634.0,1.0,0,2011.0,1
233,233,-0.6949637394280193,-0.7,1.0,0.0,369.0,535.0,0.0,0,2096.0,1
234,234,-0.364517208407815,-0.4,1.0,0.0,325.0,658.0,0.0,0,-563.0,1
235,235,-0.5326574674254283,-0.5,0.0,1.0,328.0,960.0,1.0,0,1712.0,1
236,236,-0.5185430617060123,-0.5,0.0,1.0,419.0,895.0,0.0,1,-174.0,0
237,237,0.3707959006655205,0.4,0.0,0.0,404.0,718.0,0.0,1,1468.0,1
238,238,0.5370762534676851,0.5,1.0,1.0,414.0,625.0,0.0,0,921.0,0
239,239,0.4822894817749265,0.5,0.0,0.0,495.0,948.0,0.0,1,867.0,1
240,240,0.2232891659023407,0.2,0.0,0.0,362.0,886.0,0.0,1,192.0,1
241,241,0.056331287956358445,0.1,0.0,0.0,275.0,718.0,0.0,1,2007.0,1
242,242,0.5959165889187924,0.6,0.0,0.0,408.0,882.0,1.0,0,1710.0,0
243,243,0.4877553119698269,0.5,0.0,0.0,305.0,546.0,1.0,0,2149.0,0
244,244,0.8613692568992813,0.9,1.0,1.0,288.0,530.0,0.0,0,1632.0,0
245,245,0.05824985778055669,0.1,0.0,0.0,251.0,763.0,1.0,0,1986.0,0
246,246,-0.6810239525017772,-0.7,0.0,1.0,431.0,758.0,1.0,0,-1069.0,1
247,247,-0.7657281431320571,-0.8,1.0,0.0,449.0,822.0,0.0,0,1729.0,1
248,248,0.06963253180791529,0.1,0.0,0.0,317.0,883.0,1.0,0,-540.0,0
249,249,0.393125976202758,0.4,1.0,1.0,320.0,781.0,0.0,0,59.0,0
250,250,-0.37178758280355506,-0.4,1.0,0.0,389.0,952.0,0.0,0,-801.0,1
251,251,0.032067811500149146,0.0,1.0,1.0,309.0,945.0,1.0,1,1746.0,1
252,252,0.5727260212023989,0.6,1.0,1.0,467.0,554.0,0.0,0,859.0,0
253,253,0.09542607504027345,0.1,1.0,1.0,404.0,623.0,0.0,0,1273.0,0
254,254,-0.2103886016233547,-0.2,0.0,1.0,442.0,548.0,1.0,0,840.0,1
255,255,0.4753781779927636,0.5,0.0,0.0,367.0,640.0,0.0,1,313.0,1
256,256,0.6213522614907468,0.6,1.0,1.0,321.0,702.0,0.0,0,-903.0,0
257,257,-0.013001181156915509,-0.0,0.0,1.0,363.0,940.0,1.0,0,287.0,1
258,258,-0.3226989410168821,-0.3,1.0,0.0,389.0,508.0,0.0,0,1953.0,1
259,259,0.6296587113527815,0.6,1.0,1.0,346.0,769.0,0.0,0,-685.0,0
260,260,-0.8933638541853384,-0.9,0.0,1.0,364.0,798.0,0.0,1,1838.0,0
261,261,0.48240445091083484,0.5,0.0,0.0,479.0,867.0,0.0,1,454.0,1
262,262,-0.006434368955436587,-0.0,0.0,1.0,258.0,806.0,0.0,1,-584.0,0
263,263,0.6148852814269351,0.6,0.0,0.0,383.0,742.0,0.0,1,405.0,1
264,264,0.5275184115787835,0.5,1.0,1.0,298.0,643.0,0.0,0,889.0,0
265,265,0.3104194226561633,0.3,1.0,1.0,359.0,848.0,0.0,0,1083.0,0
266,266,0.08561948343647685,0.1,1.0,1.0,350.0,977.0,0.0,0,-1267.0,0
267,267,0.42190697520932907,0.4,0.0,0.0,490.0,859.0,1.0,0,1651.0,0
268,268,-0.8962958142237004,-0.9,0.0,1.0,298.0,965.0,0.0,1,-753.0,0
269,269,0.7315948587030835,0.7,0.0,0.0,293.0,644.0,0.0,1,373.0,1
270,270,0.04086004651848696,0.0,1.0,1.0,481.0,667.0,1.0,1,1292.0,1
271,271,-0.6049597130973026,-0.6,1.0,0.0,342.0,791.0,0.0,0,307.0,1
272,272,0.06842171468675873,0.1,1.0,1.0,260.0,635.0,1.0,1,-135.0,1
273,273,-0.2777410429985303,-0.3,0.0,1.0,266.0,707.0,0.0,1,2027.0,0
274,274,-0.019450215283087435,-0.0,0.0,1.0,499.0,974.0,0.0,1,-403.0,0
275,275,0.5221221655901592,0.5,0.0,0.0,462.0,730.0,0.0,1,1808.0,1
276,276,0.5950067275081193,0.6,1.0,1.0,323.0,668.0,0.0,0,2009.0,0
277,277,0.19169048025014324,0.2,1.0,1.0,301.0,573.0,1.0,1,416.0,1
278,278,-0.45283397833844885,-0.5,0.0,1.0,315.0,757.0,0.0,1,778.0,0
279,279,0.1222273061760849,0.1,1.0,1.0,401.0,509.0,0.0,0,-320.0,0
280,280,-0.4242520661722063,-0.4,0.0,1.0,269.0,981.0,0.0,1,-240.0,0
281,281,0.5344893960685636,0.5,0.0,0.0,462.0,686.0,0.0,1,-158.0,1
282,282,0.01359499123021346,0.0,0.0,0.0,355.0,819.0,1.0,0,76.0,0
283,283,-0.5895445282349073,-0.6,0.0,1.0,284.0,934.0,0.0,1,822.0,0
284,284,-0.19401929402238172,-0.2,0.0,1.0,369.0,853.0,0.0,1,-1162.0,0
285,285,0.24841497173876526,0.2,1.0,1.0,298.0,732.0,1.0,1,-630.0,1
286,286,-0.8009867545622408,-0.8,1.0,0.0,386.0,860.0,0.0,0,-226.0,1
287,287,0.5823669790655673,0.6,0.0,0.0,498.0,583.0,1.0,0,1919.0,0
288,288,-0.06519910694014963,-0.1,0.0,1.0,457.0,799.0,0.0,1,-1026.0,0
289,289,0.2656088447772508,0.3,1.0,1.0,446.0,564.0,0.0,0,-780.0,0
290,290,-0.18553109803758983,-0.2,0.0,1.0,268.0,929.0,0.0,1,-1027.0,0
291,291,-0.5447203549520545,-0.5,0.0,1.0,390.0,512.0,0.0,1,1118.0,0
292,292,-0.5369329582305161,-0.5,0.0,1.0,340.0,965.0,0.0,1,585.0,0
293,293,-0.3925900419965658,-0.4,1.0,0.0,293.0,743.0,0.0,0,1964.0,1
294,294,0.08823460684473194,0.1,1.0,1.0,481.0,641.0,0.0,0,-302.0,0
295,295,0.7553477494843911,0.8,1.0,1.0,413.0,701.0,0.0,0,-164.0,0
296,296,0.2450732350268453,0.2,0.0,0.0,273.0,819.0,0.0,1,-242.0,1
297,297,0.35027616083214175,0.4,1.0,1.0,283.0,885.0,0.0,0,-1158.0,0
298,298,-0.1721071035870999,-0.2,0.0,1.0,259.0,936.0,0.0,1,275.0,0
299,299,0.18603364044304416,0.2,1.0,1.0,498.0,557.0,0.0,0,-285.0,0
300,300,-0.33167044194515927,-0.3,1.0,0.0,337.0,880.0,0.0,0,1603.0,1
301,301,0.7269535206039467,0.7,1.0,1.0,316.0,652.0,0.0,0,1092.0,0
302,302,-0.15042677418899753,-0.2,0.0,1.0,348.0,785.0,0.0,1,67.0,0
303,303,0.7687864504564509,0.8,0.0,0.0,327.0,712.0,0.0,1,-499.0,1
304,304,0.25152158310659767,0.3,0.0,0.0,259.0,804.0,0.0,1,667.0,1
305,305,0.22683945224581603,0.2,1.0,1.0,355.0,790.0,0.0,0,1085.0,0
306,306,0.2206277223965728,0.2,0.0,0.0,287.0,730.0,1.0,0,1983.0,0
307,307,0.28635582491272904,0.3,1.0,1.0,342.0,631.0,0.0,0,1577.0,0
308,308,0.35720147979625805,0.4,1.0,1.0,313.0,858.0,0.0,0,-891.0,0
309,309,0.20173407053083514,0.2,0.0,0.0,261.0,776.0,0.0,1,643.0,1
310,310,-0.5039577380234346,-0.5,1.0,0.0,326.0,855.0,0.0,0,1079.0,1
311,311,-0.6757381464928984,-0.7,0.0,1.0,470.0,728.0,1.0,0,1802.0,1
312,312,-0.5163277866854221,-0.5,0.0,1.0,485.0,626.0,1.0,0,729.0,1
313,313,0.12752636306117615,0.1,0.0,0.0,267.0,630.0,0.0,1,-557.0,1
314,314,-0.3547581695285871,-0.4,0.0,1.0,297.0,845.0,0.0,1,-1132.0,0
315,315,0.3474803379757857,0.3,1.0,1.0,467.0,804.0,1.0,1,1729.0,1
316,316,0.3147155813039534,0.3,0.0,0.0,320.0,844.0,0.0,1,1546.0,1
317,317,-0.32561921538959904,-0.3,0.0,1.0,314.0,608.0,0.0,1,-832.0,0
318,318,-0.7113006471523206,-0.7,1.0,0.0,351.0,636.0,1.0,1,2013.0,0
319,319,-0.5506273934714352,-0.6,0.0,1.0,406.0,941.0,1.0,0,1653.0,1
320,320,-0.09055046009298884,-0.1,1.0,0.0,338.0,810.0,0.0,0,-18.0,1
321,321,0.3983872783303465,0.4,1.0,1.0,410.0,857.0,0.0,0,-967.0,0
322,322,0.8235649494230103,0.8,1.0,1.0,347.0,991.0,0.0,0,-1088.0,0
323,323,-0.6236989615473364,-0.6,1.0,0.0,330.0,613.0,0.0,0,-73.0,1
324,324,-0.46619242647477027,-0.5,0.0,1.0,480.0,714.0,0.0,1,1396.0,0
325,325,-0.41075020193156775,-0.4,0.0,1.0,361.0,518.0,1.0,0,1731.0,1
326,326,0.7855494731857896,0.8,0.0,0.0,430.0,865.0,0.0,1,-965.0,1
327,327,-0.8199931162489319,-0.8,0.0,1.0,293.0,611.0,1.0,0,1866.0,1
328,328,-0.34157524025262276,-0.3,0.0,1.0,412.0,965.0,0.0,1,153.0,0
329,329,-0.4550355088727094,-0.5,1.0,0.0,379.0,755.0,1.0,1,-374.0,0
330,330,-0.10762773820853055,-0.1,1.0,0.0,293.0,732.0,0.0,0,1635.0,1
331,331,0.2250416501407172,0.2,0.0,0.0,446.0,966.0,0.0,1,-1192.0,1
332,332,0.5050484931802731,0.5,1.0,1.0,379.0,895.0,0.0,0,1006.0,0
333,333,-0.0034382831460275654,-0.0,1.0,0.0,427.0,742.0,0.0,0,-359.0,1
334,334,-0.4052793362844305,-0.4,1.0,0.0,374.0,531.0,0.0,0,-535.0,1
335,335,-0.2688495300528231,-0.3,0.0,1.0,383.0,682.0,1.0,0,1935.0,1
336,336,0.5076554859166144,0.5,0.0,0.0,462.0,884.0,1.0,0,1654.0,0
337,337,0.19762777798469366,0.2,1.0,1.0,461.0,725.0,1.0,1,1814.0,1
338,338,-0.2640992915780799,-0.3,0.0,1.0,451.0,890.0,1.0,0,1659.0,1
339,339,0.0947025649751232,0.1,1.0,1.0,441.0,829.0,1.0,1,1730.0,1
340,340,-0.7075867618417764,-0.7,0.0,1.0,337.0,873.0,0.0,1,1700.0,0
341,341,0.4806067956335599,0.5,0.0,0.0,266.0,624.0,0.0,1,1190.0,1
342,342,-0.03828023782990175,-0.0,1.0,0.0,302.0,633.0,1.0,1,2065.0,0
343,343,-0.17434622091353413,-0.2,0.0,1.0,408.0,798.0,0.0,1,1794.0,0
344,344,0.5515033248326412,0.6,0.0,0.0,388.0,666.0,0.0,1,-484.0,1
345,345,0.43835040013383286,0.4,0.0,0.0,263.0,767.0,0.0,1,440.0,1
346,346,0.7346867105671652,0.7,0.0,0.0,377.0,525.0,0.0,1,1848.0,1
347,347,0.133687174385822,0.1,0.0,0.0,269.0,616.0,0.0,1,2115.0,1
348,348,-0.0919258738269021,-0.1,0.0,1.0,351.0,832.0,1.0,0,1817.0,1
349,349,-0.15673386726676497,-0.2,0.0,1.0,444.0,719.0,1.0,0,287.0,1
350,350,0.43935003108836945,0.4,0.0,0.0,478.0,532.0,0.0,1,1080.0,1
351,351,0.8674053361154136,0.9,1.0,1.0,389.0,996.0,0.0,0,1615.0,0
352,352,0.8373309467970241,0.8,1.0,1.0,405.0,998.0,1.0,1,1597.0,1
353,353,-0.03340514670560368,-0.0,1.0,0.0,466.0,666.0,1.0,1,1868.0,0
354,354,0.3631084333431963,0.4,0.0,0.0,469.0,621.0,0.0,1,210.0,1
355,355,-0.044038234061818504,-0.0,0.0,1.0,274.0,944.0,1.0,0,-918.0,1
356,356,-0.848005486565761,-0.8,0.0,1.0,360.0,845.0,0.0,1,5.0,0
357,357,-0.49268733323389774,-0.5,1.0,0.0,453.0,617.0,1.0,1,1760.0,0
358,358,-0.12159993012640058,-0.1,0.0,1.0,394.0,862.0,0.0,1,-436.0,0
359,359,-0.21046194122492323,-0.2,0.0,1.0,333.0,720.0,1.0,0,1917.0,1
360,360,0.544461159153348,0.5,0.0,0.0,424.0,539.0,1.0,0,2037.0,0
361,361,0.28337494641514527,0.3,0.0,0.0,420.0,568.0,0.0,1,832.0,1
362,362,-0.31581511440816235,-0.3,0.0,1.0,262.0,982.0,0.0,1,-1074.0,0
363,363,0.5894042542209871,0.6,0.0,0.0,498.0,650.0,0.0,1,-488.0,1
364,364,0.5564261232042199,0.6,1.0,1.0,360.0,880.0,0.0,0,-690.0,0
365,365,0.20556725420876332,0.2,0.0,0.0,496.0,778.0,1.0,0,1726.0,0
366,366,-0.6729888279882578,-0.7,1.0,0.0,317.0,699.0,1.0,1,1984.0,0
367,367,-0.4168472286149716,-0.4,1.0,0.0,389.0,513.0,0.0,0,-702.0,1
368,368,-0.6987083288709077,-0.7,1.0,0.0,410.0,544.0,0.0,0,-264.0,1
369,369,0.4687434553825994,0.5,1.0,1.0,270.0,639.0,0.0,0,251.0,0
370,370,-0.8760012498101556,-0.9,1.0,0.0,288.0,508.0,0.0,0,-586.0,1
371,371,0.5983869615680707,0.6,0.0,0.0,498.0,536.0,0.0,1,-324.0,1
372,372,0.11859644068718056,0.1,1.0,1.0,486.0,580.0,1.0,1,1934.0,1
373,373,-0.23342947834892291,-0.2,0.0,1.0,292.0,631.0,0.0,1,2077.0,0
374,374,-0.6883944854728252,-0.7,1.0,0.0,393.0,703.0,0.0,0,1904.0,1
375,375,-0.43646246131740574,-0.4,1.0,0.0,317.0,937.0,1.0,1,1746.0,0
376,376,0.4909929737201374,0.5,1.0,1.0,489.0,512.0,0.0,0,779.0,0
377,377,-0.7310044616616971,-0.7,1.0,0.0,436.0,615.0,1.0,1,1949.0,0
378,378,0.19079576791907538,0.2,1.0,1.0,289.0,847.0,0.0,0,-1026.0,0
379,379,-0.5770595682841879,-0.6,0.0,1.0,374.0,700.0,1.0,0,1296.0,1
380,380,-0.7706473302270492,-0.8,1.0,0.0,372.0,986.0,1.0,1,-508.0,0
381,381,-0.843828542410338,-0.8,1.0,0.0,345.0,577.0,0.0,0,988.0,1
382,382,0.13358511744501056,0.1,0.0,0.0,333.0,941.0,0.0,1,-744.0,1
383,383,-0.7317611197505285,-0.7,0.0,1.0,457.0,903.0,1.0,0,1640.0,1
384,384,0.7576141193640938,0.8,1.0,1.0,263.0,765.0,1.0,1,1972.0,1
385,385,0.45881254822687023,0.5,1.0,1.0,465.0,756.0,0.0,0,39.0,0
386,386,0.786323745445708,0.8,0.0,0.0,429.0,936.0,1.0,0,1635.0,0
387,387,-0.6557354570361937,-0.7,1.0,0.0,361.0,820.0,0.0,0,-651.0,1
388,388,-0.06623339084124358,-0.1,1.0,0.0,427.0,939.0,0.0,0,1634.0,1
389,389,-0.5187073919310099,-0.5,0.0,1.0,326.0,522.0,0.0,1,-388.0,0
390,390,-0.7417294112286802,-0.7,0.0,1.0,250.0,949.0,0.0,1,1801.0,0
391,391,-0.7189050366892918,-0.7,1.0,0.0,444.0,880.0,1.0,1,1676.0,0
392,392,0.3717536343637674,0.4,0.0,0.0,482.0,713.0,1.0,0,1805.0,0
393,393,-0.5189688061542386,-0.5,1.0,0.0,483.0,932.0,0.0,0,1055.0,1
394,394,-0.7987360882819912,-0.8,1.0,0.0,397.0,621.0,0.0,0,-358.0,1
395,395,0.1569849662295434,0.2,0.0,0.0,466.0,571.0,0.0,1,983.0,1
396,396,-0.4217133030881769,-0.4,1.0,0.0,253.0,656.0,0.0,0,591.0,1
397,397,-0.26066579630833375,-0.3,0.0,1.0,327.0,906.0,0.0,1,577.0,0
398,398,0.2148909018978734,0.2,0.0,0.0,478.0,859.0,1.0,0,1663.0,0
399,399,0.789322589815927,0.8,1.0,1.0,397.0,925.0,1.0,1,1678.0,1
400,400,-0.5640715144525175,-0.6,1.0,0.0,405.0,710.0,0.0,0,1135.0,1
401,401,0.020499278624512507,0.0,0.0,0.0,356.0,575.0,0.0,1,1099.0,1
402,402,-0.6770884287451495,-0.7,1.0,0.0,325.0,610.0,0.0,0,-655.0,1
403,403,-0.1111174502162664,-0.1,1.0,0.0,328.0,721.0,0.0,0,-519.0,1
404,404,-0.6750398821243296,-0.7,1.0,0.0,305.0,729.0,0.0,0,26.0,1
405,405,0.4660459058010852,0.5,0.0,0.0,331.0,560.0,0.0,1,2109.0,1
406,406,0.08876623258279781,0.1,1.0,1.0,389.0,866.0,1.0,1,1745.0,1
407,407,-0.0074502794613037215,-0.0,0.0,1.0,326.0,672.0,0.0,1,2002.0,0
408,408,0.3137729431132049,0.3,1.0,1.0,356.0,878.0,0.0,0,-604.0,0
409,409,-0.4613721562255209,-0.5,0.0,1.0,389.0,836.0,0.0,1,-165.0,0
410,410,0.8261473946420334,0.8,0.0,0.0,452.0,624.0,0.0,1,254.0,1
411,411,0.22053128675524103,0.2,0.0,0.0,481.0,860.0,1.0,0,1659.0,0
412,412,0.8597119657746745,0.9,0.0,0.0,400.0,916.0,0.0,1,294.0,1
413,413,0.8465850000327334,0.8,1.0,1.0,334.0,530.0,1.0,1,2136.0,1
414,414,-0.4959207711736554,-0.5,1.0,0.0,490.0,941.0,0.0,0,-1401.0,1
415,415,-0.4797093363108094,-0.5,0.0,1.0,430.0,960.0,1.0,0,1610.0,1
416,416,0.7792310879074499,0.8,1.0,1.0,311.0,634.0,0.0,0,2055.0,0
417,417,0.27812785543319374,0.3,0.0,0.0,426.0,808.0,0.0,1,-274.0,1
418,418,0.843296874601135,0.8,0.0,0.0,427.0,887.0,0.0,1,-54.0,1
419,419,-0.8808474503035107,-0.9,1.0,0.0,477.0,522.0,0.0,0,-719.0,1
420,420,-0.47251624223146554,-0.5,1.0,0.0,491.0,926.0,0.0,0,-297.0,1
421,421,-0.6752943773969656,-0.7,0.0,1.0,327.0,770.0,0.0,1,563.0,0
422,422,-0.78572163150476,-0.8,1.0,0.0,316.0,992.0,0.0,0,-1148.0,1
423,423,0.26268605677556056,0.3,0.0,0.0,481.0,671.0,0.0,1,198.0,1
424,424,0.7517561013149671,0.8,1.0,1.0,368.0,925.0,1.0,1,1707.0,1
425,425,-0.43346304476032466,-0.4,0.0,1.0,403.0,679.0,0.0,1,1498.0,0
426,426,0.44176310407126607,0.4,1.0,1.0,288.0,950.0,0.0,0,1762.0,0
427,427,-0.49558935204072546,-0.5,0.0,1.0,429.0,759.0,1.0,0,1812.0,1
428,428,-0.6628534068752966,-0.7,0.0,1.0,260.0,670.0,0.0,1,1390.0,0
429,429,0.019592101226395764,0.0,1.0,1.0,427.0,826.0,0.0,0,-473.0,0
430,430,-0.24111281836305976,-0.2,1.0,0.0,493.0,694.0,0.0,0,1813.0,1
431,431,0.5319392283120844,0.5,1.0,1.0,488.0,582.0,0.0,0,1630.0,0
432,432,-0.8117504382715203,-0.8,1.0,0.0,259.0,994.0,0.0,0,287.0,1
433,433,0.4664978132446048,0.5,0.0,0.0,387.0,988.0,0.0,1,-1265.0,1
434,434,0.23501390143918022,0.2,0.0,0.0,367.0,736.0,0.0,1,1037.0,1
435,435,-0.555337590038165,-0.6,0.0,1.0,328.0,591.0,0.0,1,-919.0,0
436,436,-0.8036609129750899,-0.8,1.0,0.0,460.0,694.0,0.0,0,-754.0,1
437,437,0.2703835615852136,0.3,1.0,1.0,477.0,972.0,0.0,0,-409.0,0
438,438,-0.7169833710574575,-0.7,0.0,1.0,251.0,539.0,0.0,1,280.0,0
439,439,-0.16580705581490618,-0.2,0.0,1.0,434.0,972.0,0.0,1,-1106.0,0
440,440,-0.6194138906123232,-0.6,1.0,0.0,333.0,863.0,0.0,0,704.0,1
441,441,0.26625861149289853,0.3,0.0,0.0,266.0,965.0,1.0,0,1769.0,0
442,442,-0.20518312290596308,-0.2,0.0,1.0,265.0,501.0,0.0,1,-296.0,0
443,443,0.13176819869218892,0.1,1.0,1.0,252.0,716.0,0.0,0,1632.0,0
444,444,0.8383302555358804,0.8,0.0,0.0,454.0,759.0,1.0,0,1787.0,0
445,445,-0.6944093594211757,-0.7,1.0,0.0,340.0,792.0,0.0,0,-302.0,1
446,446,-0.6663858267611195,-0.7,1.0,0.0,355.0,896.0,0.0,0,89.0,1
447,447,-0.24010002852099976,-0.2,1.0,0.0,254.0,918.0,0.0,0,-1142.0,1
448,448,0.2090969803386774,0.2,0.0,0.0,278.0,786.0,0.0,1,-584.0,1
449,449,-0.311651804342419,-0.3,1.0,0.0,422.0,510.0,0.0,0,-472.0,1
450,450,-0.13238487643020436,-0.1,1.0,0.0,402.0,747.0,0.0,0,1191.0,1
451,451,-0.436387429497121,-0.4,0.0,1.0,289.0,578.0,1.0,0,2133.0,1
452,452,-0.21337194056180897,-0.2,1.0,0.0,361.0,907.0,0.0,0,1702.0,1
453,453,0.39316323963193056,0.4,1.0,1.0,440.0,652.0,1.0,1,-942.0,1
454,454,0.27849302146330246,0.3,0.0,0.0,276.0,701.0,0.0,1,493.0,1
455,455,0.6642222465225872,0.7,1.0,1.0,292.0,803.0,1.0,1,1905.0,1
456,456,-0.6854236780038389,-0.7,0.0,1.0,367.0,727.0,0.0,1,1906.0,0
457,457,0.4025144325650899,0.4,0.0,0.0,451.0,909.0,0.0,1,380.0,1
458,458,0.3190300158985776,0.3,0.0,0.0,341.0,788.0,0.0,1,1141.0,1
459,459,-0.8391870618959157,-0.8,0.0,1.0,490.0,531.0,1.0,0,1979.0,1
460,460,-0.19139961615926093,-0.2,1.0,0.0,320.0,523.0,0.0,0,-83.0,1
461,461,-0.5050974485722648,-0.5,0.0,1.0,371.0,751.0,0.0,1,-632.0,0
462,462,-0.5585674890846162,-0.6,0.0,1.0,344.0,867.0,0.0,1,-231.0,0
463,463,0.16305002107195576,0.2,1.0,1.0,439.0,724.0,0.0,0,1837.0,0
464,464,0.4632347917084624,0.5,0.0,0.0,447.0,627.0,0.0,1,1776.0,1
465,465,-0.32615932149552684,-0.3,1.0,0.0,412.0,950.0,0.0,0,118.0,1
466,466,0.3647597234437431,0.4,1.0,1.0,401.0,825.0,0.0,0,794.0,0
467,467,-0.5931461654377408,-0.6,1.0,0.0,367.0,761.0,0.0,0,-1098.0,1
468,468,-0.5812332185733695,-0.6,1.0,0.0,307.0,730.0,1.0,1,1963.0,0
469,469,-0.35730757253281864,-0.4,1.0,0.0,296.0,905.0,1.0,1,1799.0,0
470,470,0.6031510016686296,0.6,0.0,0.0,301.0,815.0,0.0,1,1194.0,1
471,471,0.650380629952182,0.7,0.0,0.0,415.0,824.0,0.0,1,-459.0,1
472,472,-0.13488799039391186,-0.1,0.0,1.0,437.0,947.0,0.0,1,1616.0,0
473,473,-0.8067245235256503,-0.8,0.0,1.0,277.0,851.0,0.0,1,592.0,0
474,474,0.11393338049812363,0.1,0.0,0.0,463.0,595.0,0.0,1,132.0,1
475,475,0.8323157044567574,0.8,1.0,1.0,403.0,837.0,0.0,0,740.0,0
476,476,-0.1696767627159952,-0.2,1.0,0.0,312.0,518.0,1.0,1,2000.0,0
477,477,-0.3091785793653692,-0.3,0.0,1.0,428.0,680.0,0.0,1,-288.0,0
478,478,-0.24258026000846244,-0.2,1.0,0.0,281.0,702.0,0.0,0,2017.0,1
479,479,-0.26903106556232526,-0.3,1.0,0.0,354.0,725.0,0.0,0,351.0,1
480,480,0.29382445827309167,0.3,0.0,0.0,428.0,712.0,0.0,1,-80.0,1
481,481,0.6769298467486288,0.7,0.0,0.0,321.0,835.0,0.0,1,-1006.0,1
482,482,-0.5302213301952081,-0.5,0.0,1.0,308.0,928.0,0.0,1,-1166.0,0
483,483,0.546764582710417,0.5,1.0,1.0,478.0,636.0,1.0,1,1886.0,1
484,484,-0.7807583105375449,-0.8,0.0,1.0,291.0,519.0,1.0,0,210.0,1
485,485,0.8863741633473258,0.9,1.0,1.0,294.0,701.0,0.0,0,-935.0,0
486,486,-0.29348535257795727,-0.3,0.0,1.0,410.0,659.0,0.0,1,1851.0,0
487,487,0.5403236414032814,0.5,1.0,1.0,418.0,683.0,0.0,0,1409.0,0
488,488,-0.7205973243728414,-0.7,1.0,0.0,350.0,731.0,0.0,0,1849.0,1
489,489,0.5145759664972581,0.5,1.0,1.0,471.0,856.0,0.0,0,273.0,0
490,490,0.4665712835076615,0.5,0.0,0.0,407.0,765.0,0.0,1,1828.0,1
491,491,0.4608542392068583,0.5,1.0,1.0,381.0,991.0,0.0,0,538.0,0
492,492,0.49134167660906225,0.5,1.0,1.0,361.0,847.0,0.0,0,-1208.0,0
493,493,-0.8475050688942436,-0.8,1.0,0.0,376.0,582.0,0.0,0,-598.0,1
494,494,-0.8777795141171898,-0.9,1.0,0.0,261.0,868.0,1.0,1,1871.0,0
495,495,-0.7450726262301961,-0.7,1.0,0.0,423.0,538.0,0.0,0,-951.0,1
496,496,0.4411912103209604,0.4,1.0,1.0,293.0,579.0,0.0,0,1008.0,0
497,497,-0.3882367271175664,-0.4,0.0,1.0,399.0,615.0,0.0,1,1736.0,0
498,498,-0.8280063215907526,-0.8,0.0,1.0,412.0,770.0,0.0,1,-312.0,0
499,499,-0.7861782899696562,-0.8,0.0,1.0,283.0,920.0,0.0,1,-673.0,0
500,500,-0.6152226749210983,-0.6,1.0,0.0,417.0,971.0,0.0,0,632.0,1
501,501,-0.6843159815135343,-0.7,0.0,1.0,420.0,556.0,0.0,1,-916.0,0
502,502,-0.744943538662773,-0.7,1.0,0.0,400.0,714.0,0.0,0,1886.0,1
503,503,0.21157087547579334,0.2,0.0,0.0,402.0,867.0,0.0,1,1731.0,1
504,504,-0.11965514150006973,-0.1,0.0,1.0,440.0,702.0,0.0,1,-792.0,0
505,505,-0.8001927251733191,-0.8,1.0,0.0,481.0,967.0,0.0,0,-108.0,1
506,506,0.5223647977494256,0.5,1.0,1.0,273.0,798.0,0.0,0,1729.0,0
507,507,-0.21216439038507706,-0.2,0.0,1.0,289.0,785.0,1.0,0,1926.0,1
508,508,-0.32151703402599907,-0.3,1.0,0.0,268.0,705.0,1.0,1,2027.0,0
509,509,-0.20015338956769635,-0.2,1.0,0.0,457.0,725.0,0.0,0,1728.0,1
510,510,-0.06327603763952916,-0.1,1.0,0.0,398.0,801.0,1.0,1,1801.0,0
511,511,-0.7241103857848065,-0.7,0.0,1.0,401.0,947.0,0.0,1,832.0,0
512,512,0.5363843151494115,0.5,0.0,0.0,376.0,818.0,0.0,1,656.0,1
513,513,-0.3574888315389575,-0.4,1.0,0.0,353.0,532.0,1.0,1,2115.0,0
514,514,0.5395789071173406,0.5,0.0,0.0,495.0,682.0,0.0,1,-707.0,1
515,515,0.6176300043806081,0.6,0.0,0.0,423.0,526.0,0.0,1,2051.0,1
516,516,0.4883276669982325,0.5,0.0,0.0,418.0,832.0,1.0,0,1750.0,0
517,517,0.5624694560197042,0.6,0.0,0.0,356.0,719.0,0.0,1,1925.0,1
518,518,-0.20906892601263927,-0.2,0.0,1.0,402.0,815.0,0.0,1,-1067.0,0
519,519,-0.27550451596736114,-0.3,0.0,1.0,280.0,797.0,0.0,1,1923.0,0
520,520,0.5694547949230294,0.6,0.0,0.0,499.0,838.0,0.0,1,-437.0,1
521,521,-0.033271813095156144,-0.0,0.0,1.0,441.0,810.0,1.0,0,1749.0,1
522,522,-0.2472681584500801,-0.2,0.0,1.0,265.0,594.0,1.0,0,2141.0,1
523,523,-0.28882854072318753,-0.3,0.0,1.0,369.0,800.0,0.0,1,271.0,0
524,524,0.3412214750348891,0.3,1.0,1.0,372.0,762.0,0.0,0,-874.0,0
525,525,0.4587507515748058,0.5,1.0,1.0,294.0,504.0,0.0,0,2202.0,0
526,526,0.6078503026718486,0.6,1.0,1.0,467.0,899.0,0.0,0,764.0,0
527,527,-0.6689515534168339,-0.7,1.0,0.0,400.0,950.0,0.0,0,1530.0,1
528,528,-0.3124769980082238,-0.3,0.0,1.0,373.0,687.0,0.0,1,-800.0,0
529,529,-0.32240116720534095,-0.3,0.0,1.0,467.0,518.0,0.0,1,795.0,0
530,530,-0.35286697511667653,-0.4,1.0,0.0,451.0,514.0,0.0,0,1355.0,1
531,531,-0.6368972277518301,-0.6,0.0,1.0,300.0,843.0,0.0,1,1177.0,0
532,532,0.48488383676576763,0.5,1.0,1.0,316.0,557.0,0.0,0,-483.0,0
533,533,0.15659350771036762,0.2,0.0,0.0,393.0,593.0,0.0,1,1144.0,1
534,534,-0.5462892282741594,-0.5,1.0,0.0,452.0,978.0,0.0,0,-380.0,1
535,535,-0.6981847941301949,-0.7,1.0,0.0,280.0,907.0,0.0,0,-1157.0,1
536,536,-0.4736135947339729,-0.5,1.0,0.0,464.0,579.0,0.0,0,1777.0,1
537,537,-0.7168113350751368,-0.7,1.0,0.0,347.0,548.0,0.0,0,-695.0,1
538,538,0.04579977691645842,0.0,0.0,0.0,387.0,734.0,0.0,1,209.0,1
539,539,-0.5676649654668215,-0.6,1.0,0.0,335.0,502.0,0.0,0,653.0,1
540,540,0.4376416348142741,0.4,0.0,0.0,318.0,805.0,1.0,0,1877.0,0
541,541,0.137578441779301,0.1,1.0,1.0,491.0,865.0,1.0,1,1644.0,1
542,542,0.5085545511413546,0.5,1.0,1.0,451.0,940.0,0.0,0,1609.0,0
543,543,0.22363426274243536,0.2,0.0,0.0,448.0,533.0,0.0,1,-31.0,1
544,544,0.8510696936836794,0.9,0.0,0.0,331.0,928.0,1.0,0,1741.0,0
545,545,0.6711529703300022,0.7,1.0,1.0,384.0,876.0,0.0,0,-490.0,0
546,546,-0.7950120240425308,-0.8,1.0,0.0,291.0,525.0,0.0,0,-626.0,1
547,547,-0.15555394910504283,-0.2,0.0,1.0,344.0,838.0,0.0,1,-822.0,0
548,548,0.7863180573932159,0.8,0.0,0.0,429.0,745.0,0.0,1,376.0,1
549,549,-0.12050963925952407,-0.1,1.0,0.0,471.0,737.0,0.0,0,532.0,1
550,550,-0.860409285640718,-0.9,0.0,1.0,415.0,711.0,0.0,1,134.0,0
551,551,0.36684273554437563,0.4,0.0,0.0,422.0,514.0,1.0,0,2064.0,0
552,552,0.7040409529155885,0.7,0.0,0.0,427.0,774.0,1.0,0,1799.0,0
553,553,-0.3978689180242162,-0.4,1.0,0.0,395.0,960.0,0.0,0,-695.0,1
554,554,0.5185937690847878,0.5,0.0,0.0,266.0,793.0,0.0,1,1101.0,1
555,555,0.8119308734112071,0.8,0.0,0.0,270.0,908.0,0.0,1,132.0,1
556,556,0.061630516187801354,0.1,1.0,1.0,291.0,622.0,0.0,0,587.0,0
557,557,-0.2164281614913045,-0.2,0.0,1.0,369.0,955.0,0.0,1,1036.0,0
558,558,-0.6538417100519474,-0.7,0.0,1.0,472.0,857.0,1.0,0,1671.0,1
559,559,-0.5310337090539583,-0.5,1.0,0.0,372.0,963.0,0.0,0,-625.0,1
560,560,0.30585075572464027,0.3,0.0,0.0,331.0,653.0,1.0,0,2016.0,0
561,561,-0.7134939859529131,-0.7,1.0,0.0,449.0,642.0,0.0,0,-701.0,1
562,562,-0.4623026232312229,-0.5,0.0,1.0,271.0,519.0,0.0,1,-440.0,0
563,563,-0.30433736175101633,-0.3,0.0,1.0,420.0,664.0,0.0,1,-674.0,0
564,564,0.6756069293874388,0.7,0.0,0.0,483.0,608.0,0.0,1,-771.0,1
565,565,0.1850153878906481,0.2,0.0,0.0,418.0,959.0,0.0,1,-567.0,1
566,566,0.4737018665194145,0.5,1.0,1.0,291.0,786.0,0.0,0,3.0,0
567,567,0.36736283550430915,0.4,0.0,0.0,358.0,643.0,0.0,1,-461.0,1
568,568,0.6521415142261945,0.7,0.0,0.0,479.0,668.0,0.0,1,-1107.0,1
569,569,-0.038294867618601014,-0.0,0.0,1.0,345.0,987.0,1.0,0,1668.0,1
570,570,0.062022210383635534,0.1,1.0,1.0,430.0,812.0,0.0,0,-712.0,0
571,571,-0.4738704150227477,-0.5,0.0,1.0,427.0,836.0,1.0,0,587.0,1
572,572,0.7741802114091038,0.8,0.0,0.0,438.0,556.0,1.0,0,2006.0,0
573,573,-0.22120656324026478,-0.2,0.0,1.0,385.0,512.0,0.0,1,2103.0,0
574,574,0.15398272396076707,0.2,0.0,0.0,443.0,988.0,0.0,1,-901.0,1
575,575,0.15560176269946957,0.2,0.0,0.0,458.0,957.0,0.0,1,-475.0,1
576,576,0.5150332920197759,0.5,1.0,1.0,307.0,544.0,1.0,1,-371.0,1
577,577,0.5398112604364763,0.5,0.0,0.0,287.0,632.0,0.0,1,741.0,1
578,578,0.13140466957356078,0.1,1.0,1.0,432.0,987.0,0.0,0,1581.0,0
579,579,-0.029687502950820455,-0.0,1.0,0.0,395.0,767.0,0.0,0,-1112.0,1
580,580,-0.31177793306277457,-0.3,0.0,1.0,292.0,500.0,0.0,1,238.0,0
581,581,0.18160477305043032,0.2,0.0,0.0,496.0,680.0,0.0,1,564.0,1
582,582,0.879525412047465,0.9,1.0,1.0,421.0,547.0,0.0,0,-718.0,0
583,583,-0.29992880812683975,-0.3,1.0,0.0,297.0,788.0,1.0,1,1915.0,0
584,584,0.26371267826355516,0.3,0.0,0.0,431.0,500.0,1.0,0,1109.0,0
585,585,-0.5184825040569565,-0.5,1.0,0.0,320.0,643.0,1.0,1,2037.0,0
586,586,0.30244583302444294,0.3,0.0,0.0,354.0,963.0,1.0,0,-1287.0,0
587,587,-0.26346889324250256,-0.3,1.0,0.0,339.0,831.0,0.0,0,1830.0,1
588,588,-0.6143919646352227,-0.6,0.0,1.0,303.0,989.0,0.0,1,458.0,0
589,589,-0.6593804852517512,-0.7,0.0,1.0,487.0,753.0,1.0,0,180.0,1
590,590,0.852244544996351,0.9,0.0,0.0,421.0,687.0,0.0,1,-158.0,1
591,591,0.6260629051307086,0.6,1.0,1.0,329.0,641.0,1.0,1,2030.0,1
592,592,0.19688581303033204,0.2,0.0,0.0,353.0,721.0,1.0,0,506.0,0
593,593,0.8535166931120665,0.9,0.0,0.0,434.0,762.0,1.0,0,1204.0,0
594,594,-0.19277983203747828,-0.2,1.0,0.0,391.0,720.0,1.0,1,1889.0,0
595,595,-0.13384633566165138,-0.1,0.0,1.0,337.0,888.0,0.0,1,15.0,0
596,596,-0.6325681396899432,-0.6,0.0,1.0,340.0,739.0,0.0,1,1381.0,0
597,597,-0.7551131941220932,-0.8,0.0,1.0,381.0,509.0,1.0,0,1130.0,1
598,598,-0.09469357408246526,-0.1,1.0,0.0,342.0,833.0,0.0,0,-355.0,1
599,599,-0.15312193119210993,-0.2,0.0,1.0,407.0,605.0,0.0,1,418.0,0
600,600,0.7191346196725977,0.7,1.0,1.0,431.0,843.0,1.0,1,1726.0,1
601,601,0.10907126043975801,0.1,1.0,1.0,462.0,872.0,0.0,0,496.0,0
602,602,-0.7447739674319398,-0.7,0.0,1.0,367.0,769.0,0.0,1,-1096.0,0
603,603,0.6162389074984104,0.6,0.0,0.0,360.0,628.0,1.0,0,2012.0,0
604,604,-0.4035166201841079,-0.4,1.0,0.0,332.0,994.0,0.0,0,1674.0,1
605,605,0.298862723145059,0.3,1.0,1.0,312.0,618.0,0.0,0,2070.0,0
606,606,-0.7546143151561922,-0.8,0.0,1.0,263.0,890.0,0.0,1,17.0,0
607,607,-0.7689647538318065,-0.8,1.0,0.0,437.0,880.0,0.0,0,1683.0,1
608,608,-0.5155580292703865,-0.5,0.0,1.0,474.0,785.0,1.0,0,-59.0,1
609,609,0.35982631608151994,0.4,0.0,0.0,374.0,716.0,1.0,0,1910.0,0
610,610,0.27617553642776793,0.3,1.0,1.0,412.0,916.0,0.0,0,312.0,0
611,611,0.6914713885047526,0.7,1.0,1.0,354.0,699.0,0.0,0,-373.0,0
612,612,-0.557962039303143,-0.6,0.0,1.0,273.0,806.0,0.0,1,-819.0,0
613,613,0.5686588585805415,0.6,0.0,0.0,476.0,973.0,0.0,1,-969.0,1
614,614,0.47810255343429875,0.5,0.0,0.0,280.0,678.0,0.0,1,-308.0,1
615,615,0.07217236422705431,0.1,0.0,0.0,415.0,704.0,1.0,0,1881.0,0
616,616,-0.8617655115142835,-0.9,0.0,1.0,468.0,817.0,0.0,1,1005.0,0
617,617,0.3094753436806549,0.3,0.0,0.0,485.0,885.0,0.0,1,-710.0,1
618,618,0.11019054262152828,0.1,0.0,0.0,329.0,501.0,0.0,1,-200.0,1
619,619,0.5940674283977972,0.6,1.0,1.0,366.0,573.0,1.0,1,2061.0,1
620,620,0.4063998913972461,0.4,0.0,0.0,348.0,764.0,0.0,1,-1002.0,1
621,621,0.2729904493797378,0.3,1.0,1.0,311.0,841.0,0.0,0,-182.0,0
622,622,0.4169057106903745,0.4,1.0,1.0,484.0,576.0,0.0,0,-70.0,0
623,623,-0.2507146622059925,-0.3,0.0,1.0,287.0,520.0,0.0,1,1833.0,0
624,624,-0.44261290560299754,-0.4,1.0,0.0,455.0,650.0,0.0,0,-1005.0,1
625,625,-0.1843518702227963,-0.2,1.0,0.0,431.0,637.0,0.0,0,-678.0,1
626,626,-0.6405707764328195,-0.6,1.0,0.0,462.0,852.0,0.0,0,-974.0,1
627,627,0.6121940598839625,0.6,1.0,1.0,389.0,918.0,0.0,0,613.0,0
628,628,-0.11153584229670588,-0.1,0.0,1.0,286.0,759.0,0.0,1,-165.0,0
629,629,0.7014496243487637,0.7,1.0,1.0,468.0,904.0,0.0,0,-332.0,0
630,630,0.04646343266891717,0.0,0.0,0.0,478.0,547.0,0.0,1,-215.0,1
631,631,0.8746699016105745,0.9,0.0,0.0,492.0,989.0,0.0,1,-1421.0,1
632,632,0.8502844881965578,0.9,1.0,1.0,290.0,505.0,1.0,1,2205.0,1
633,633,-0.29277813708127387,-0.3,0.0,1.0,409.0,568.0,0.0,1,53.0,0
634,634,-0.3070149342070504,-0.3,1.0,0.0,301.0,919.0,1.0,1,-670.0,0
635,635,0.4178227233042845,0.4,0.0,0.0,439.0,899.0,0.0,1,1662.0,1
636,636,-0.5217886245968992,-0.5,0.0,1.0,325.0,942.0,0.0,1,803.0,0
637,637,0.23109074153920528,0.2,1.0,1.0,381.0,678.0,1.0,1,1941.0,1
638,638,-0.363032446608477,-0.4,0.0,1.0,472.0,982.0,0.0,1,196.0,0
639,639,-0.4595568639226153,-0.5,1.0,0.0,483.0,850.0,0.0,0,-923.0,1
640,640,-0.4758169472955451,-0.5,0.0,1.0,451.0,992.0,1.0,0,-193.0,1
641,641,-0.10956201492395701,-0.1,1.0,0.0,360.0,695.0,0.0,0,-545.0,1
642,642,-0.7781033915345058,-0.8,1.0,0.0,374.0,909.0,0.0,0,-693.0,1
643,643,-0.5788730095136081,-0.6,0.0,1.0,312.0,800.0,0.0,1,-182.0,0
644,644,0.3108899918392064,0.3,1.0,1.0,410.0,899.0,0.0,0,591.0,0
645,645,0.29993397518113285,0.3,1.0,1.0,387.0,601.0,0.0,0,-208.0,0
646,646,-0.7701725974794086,-0.8,0.0,1.0,313.0,617.0,0.0,1,-720.0,0
647,647,0.14330827580279937,0.1,0.0,0.0,301.0,549.0,0.0,1,-560.0,1
648,648,-0.5367347924385942,-0.5,1.0,0.0,274.0,768.0,0.0,0,1268.0,1
649,649,-0.40811987965137175,-0.4,1.0,0.0,334.0,991.0,0.0,0,-355.0,1
650,650,0.8533303208542701,0.9,1.0,1.0,358.0,894.0,0.0,0,-112.0,0
651,651,0.25163286006185237,0.3,1.0,1.0,372.0,952.0,0.0,0,-874.0,0
652,652,-0.8759973313519925,-0.9,1.0,0.0,279.0,896.0,0.0,0,-995.0,1
653,653,-0.6675964476948666,-0.7,0.0,1.0,481.0,692.0,0.0,1,1827.0,0
654,654,0.5701652444237898,0.6,0.0,0.0,387.0,760.0,0.0,1,-1127.0,1
655,655,-0.5251267860881317,-0.5,0.0,1.0,413.0,820.0,1.0,0,1767.0,1
656,656,0.5360086302939339,0.5,1.0,1.0,289.0,854.0,0.0,0,347.0,0
657,657,-0.8744802845079241,-0.9,0.0,1.0,318.0,558.0,0.0,1,2124.0,0
658,658,-0.3474152793896832,-0.3,0.0,1.0,483.0,794.0,1.0,0,1723.0,1
659,659,-0.30830655728794853,-0.3,1.0,0.0,466.0,729.0,0.0,0,1805.0,1
660,660,-0.05608896728969448,-0.1,0.0,1.0,273.0,681.0,0.0,1,2046.0,0
661,661,-0.2932993351182489,-0.3,0.0,1.0,438.0,631.0,0.0,1,291.0,0
662,662,0.6208369861097723,0.6,0.0,0.0,292.0,872.0,0.0,1,-1124.0,1
663,663,-0.7824642415784614,-0.8,1.0,0.0,320.0,855.0,0.0,0,1825.0,1
664,664,-0.613552400507511,-0.6,1.0,0.0,340.0,570.0,0.0,0,-110.0,1
665,665,0.5422395104524304,0.5,0.0,0.0,270.0,805.0,0.0,1,1925.0,1
666,666,-0.8583564378600965,-0.9,1.0,0.0,345.0,526.0,0.0,0,1979.0,1
667,667,0.4445432013577907,0.4,1.0,1.0,273.0,906.0,0.0,0,-609.0,0
668,668,0.8305747464100627,0.8,1.0,1.0,414.0,533.0,1.0,1,2053.0,1
669,669,0.7051547204951895,0.7,0.0,0.0,471.0,906.0,1.0,0,1623.0,0
670,670,0.02436038654548811,0.0,0.0,0.0,324.0,958.0,0.0,1,1008.0,1
671,671,-0.14729773680323255,-0.1,1.0,0.0,375.0,897.0,1.0,1,1728.0,0
672,672,0.4564948560277785,0.5,1.0,1.0,445.0,636.0,0.0,0,89.0,0
673,673,-0.48060630180052466,-0.5,0.0,1.0,444.0,743.0,0.0,1,-877.0,0
674,674,0.4946871037473394,0.5,0.0,0.0,379.0,895.0,0.0,1,-454.0,1
675,675,-0.6580561949035476,-0.7,1.0,0.0,366.0,707.0,0.0,0,-823.0,1
676,676,0.5870416650373461,0.6,0.0,0.0,431.0,630.0,0.0,1,1009.0,1
677,677,0.3262373334728518,0.3,0.0,0.0,357.0,746.0,0.0,1,-893.0,1
678,678,-0.8384864821734025,-0.8,0.0,1.0,286.0,831.0,0.0,1,-777.0,0
679,679,-0.19546392665954204,-0.2,1.0,0.0,263.0,732.0,0.0,0,1605.0,1
680,680,0.5014555886073769,0.5,0.0,0.0,359.0,757.0,0.0,1,-156.0,1
681,681,-0.34446102333082806,-0.3,0.0,1.0,308.0,680.0,0.0,1,902.0,0
682,682,-0.6312222496263111,-0.6,1.0,0.0,368.0,818.0,0.0,0,4.0,1
683,683,0.4733085404531784,0.5,0.0,0.0,456.0,592.0,0.0,1,-788.0,1
684,684,0.6749646792764171,0.7,1.0,1.0,349.0,933.0,0.0,0,1188.0,0
685,685,-0.35730690285556377,-0.4,1.0,0.0,386.0,696.0,0.0,0,-1052.0,1
686,686,-0.8853917846188374,-0.9,0.0,1.0,298.0,523.0,0.0,1,-501.0,0
687,687,0.5760204474889673,0.6,0.0,0.0,384.0,873.0,0.0,1,573.0,1
688,688,0.8558601763519306,0.9,1.0,1.0,344.0,639.0,0.0,0,1767.0,0
689,689,0.03907546264259487,0.0,1.0,1.0,494.0,574.0,1.0,1,1932.0,1
690,690,-0.7616800612432572,-0.8,1.0,0.0,495.0,757.0,0.0,0,1748.0,1
691,691,0.413898497163241,0.4,1.0,1.0,295.0,682.0,0.0,0,-47.0,0
692,692,0.5106341845482701,0.5,0.0,0.0,264.0,935.0,0.0,1,-489.0,1
693,693,0.8394661755378244,0.8,1.0,1.0,447.0,861.0,0.0,0,1692.0,0
694,694,0.7677867232133101,0.8,0.0,0.0,383.0,910.0,0.0,1,247.0,1
695,695,-0.7537332793052798,-0.8,1.0,0.0,425.0,634.0,0.0,0,1071.0,1
696,696,0.8403457078959536,0.8,0.0,0.0,418.0,944.0,0.0,1,208.0,1
697,697,-0.7819920465463817,-0.8,0.0,1.0,449.0,575.0,0.0,1,-994.0,0
698,698,0.5007232181759808,0.5,0.0,0.0,361.0,541.0,0.0,1,928.0,1
699,699,0.6922820653028717,0.7,0.0,0.0,426.0,991.0,0.0,1,1363.0,1
700,700,0.4373433608763909,0.4,0.0,0.0,365.0,979.0,0.0,1,1176.0,1
701,701,0.7172532274825917,0.7,1.0,1.0,369.0,997.0,0.0,0,684.0,0
702,702,-0.5237894734191177,-0.5,0.0,1.0,361.0,733.0,0.0,1,1166.0,0
703,703,-0.5516790514005436,-0.6,0.0,1.0,309.0,788.0,0.0,1,-387.0,0
704,704,0.08689019294220368,0.1,0.0,0.0,471.0,732.0,0.0,1,-903.0,1
705,705,-0.19413274887780962,-0.2,0.0,1.0,482.0,598.0,0.0,1,-1070.0,0
706,706,-0.49749649820962416,-0.5,0.0,1.0,354.0,532.0,0.0,1,1064.0,0
707,707,0.530891729743915,0.5,0.0,0.0,495.0,548.0,0.0,1,-133.0,1
708,708,-0.4014209779306362,-0.4,0.0,1.0,461.0,831.0,0.0,1,1038.0,0
709,709,-0.062420161135847696,-0.1,1.0,0.0,254.0,586.0,0.0,0,-370.0,1
710,710,0.6137949807523314,0.6,0.0,0.0,273.0,839.0,0.0,1,288.0,1
711,711,-0.7639605999260811,-0.8,1.0,0.0,265.0,660.0,0.0,0,1285.0,1
712,712,-0.25191816119332233,-0.3,1.0,0.0,365.0,587.0,0.0,0,1848.0,1
713,713,0.46423132071060336,0.5,0.0,0.0,315.0,908.0,1.0,0,1777.0,0
714,714,-0.2930666147177078,-0.3,1.0,0.0,412.0,630.0,0.0,0,-692.0,1
715,715,-0.3907943101641186,-0.4,0.0,1.0,464.0,707.0,1.0,0,89.0,1
716,716,-0.5656103141298925,-0.6,0.0,1.0,368.0,713.0,0.0,1,-851.0,0
717,717,-0.4041778278040375,-0.4,1.0,0.0,388.0,826.0,1.0,1,356.0,0
718,718,0.361637193683629,0.4,1.0,1.0,252.0,894.0,0.0,0,-866.0,0
719,719,0.32301246970242004,0.3,1.0,1.0,360.0,813.0,0.0,0,497.0,0
720,720,-0.02163882880116852,-0.0,0.0,1.0,400.0,841.0,1.0,0,1759.0,1
721,721,0.32542372259436647,0.3,1.0,1.0,464.0,523.0,0.0,0,193.0,0
722,722,0.5151048264455346,0.5,0.0,0.0,300.0,633.0,1.0,0,2067.0,0
723,723,-0.23964736664761555,-0.2,0.0,1.0,302.0,505.0,0.0,1,-257.0,0
724,724,-0.3753886191919731,-0.4,1.0,0.0,472.0,640.0,0.0,0,-42.0,1
725,725,0.2639201613186982,0.3,0.0,0.0,459.0,749.0,0.0,1,-848.0,1
726,726,0.5118296427942169,0.5,0.0,0.0,272.0,851.0,0.0,1,-483.0,1
727,727,-0.5162809243947781,-0.5,0.0,1.0,310.0,823.0,1.0,0,1867.0,1
728,728,-0.44721756738128654,-0.4,1.0,0.0,390.0,724.0,0.0,0,266.0,1
729,729,0.7319890827929453,0.7,1.0,1.0,489.0,804.0,0.0,0,-823.0,0
730,730,-0.8808454018238352,-0.9,1.0,0.0,492.0,708.0,0.0,0,-980.0,1
731,731,0.8430849123084855,0.8,1.0,1.0,390.0,727.0,0.0,0,-327.0,0
732,732,0.2037921613270176,0.2,0.0,0.0,385.0,577.0,0.0,1,-72.0,1
733,733,0.5657941198716095,0.6,0.0,0.0,319.0,899.0,1.0,0,1782.0,0
734,734,-0.518957873153546,-0.5,0.0,1.0,448.0,577.0,0.0,1,1975.0,0
735,735,0.6063270423855883,0.6,1.0,1.0,276.0,636.0,0.0,0,1658.0,0
736,736,0.7029303524157177,0.7,1.0,1.0,278.0,582.0,1.0,1,2140.0,1
737,737,-0.0034712771228827544,-0.0,1.0,0.0,278.0,738.0,0.0,0,1984.0,1
738,738,0.5803230272323131,0.6,1.0,1.0,299.0,840.0,0.0,0,-519.0,0
739,739,0.4273270489475979,0.4,0.0,0.0,357.0,673.0,0.0,1,-870.0,1
740,740,0.5062649030744596,0.5,1.0,1.0,425.0,770.0,0.0,0,215.0,0
741,741,0.03267413659990237,0.0,0.0,0.0,377.0,733.0,0.0,1,-360.0,1
742,742,0.612470551913678,0.6,0.0,0.0,392.0,568.0,1.0,0,2040.0,0
743,743,-0.2643895274041188,-0.3,0.0,1.0,403.0,542.0,0.0,1,-385.0,0
744,744,0.8988957499900535,0.9,1.0,1.0,251.0,931.0,0.0,0,-662.0,0
745,745,0.8213708327541983,0.8,0.0,0.0,347.0,871.0,0.0,1,432.0,1
746,746,-0.11688140460299845,-0.1,1.0,0.0,405.0,773.0,0.0,0,1822.0,1
747,747,0.663001459156883,0.7,0.0,0.0,298.0,893.0,1.0,0,1809.0,0
748,748,0.13666599297181492,0.1,1.0,1.0,414.0,524.0,0.0,0,932.0,0
749,749,-0.30309023999511897,-0.3,0.0,1.0,437.0,605.0,0.0,1,-202.0,0
750,750,0.762740932254436,0.8,1.0,1.0,419.0,855.0,0.0,0,-404.0,0
751,751,0.7352531958999634,0.7,1.0,1.0,452.0,940.0,0.0,0,278.0,0
752,752,0.8092098020022954,0.8,0.0,0.0,436.0,647.0,1.0,0,1917.0,0
753,753,0.14538467805322963,0.1,0.0,0.0,384.0,666.0,0.0,1,870.0,1
754,754,-0.181051328595074,-0.2,0.0,1.0,474.0,826.0,1.0,0,-600.0,1
755,755,0.6502871311244812,0.7,0.0,0.0,349.0,572.0,0.0,1,-431.0,1
756,756,-0.4761051103370021,-0.5,0.0,1.0,494.0,791.0,0.0,1,375.0,0
757,757,0.27201307183081125,0.3,1.0,1.0,295.0,502.0,0.0,0,763.0,0
758,758,-0.3472752357899659,-0.3,1.0,0.0,273.0,865.0,0.0,0,462.0,1
759,759,-0.6832912526115914,-0.7,1.0,0.0,337.0,873.0,1.0,1,1790.0,0
760,760,-0.1977859268929294,-0.2,1.0,0.0,499.0,756.0,0.0,0,275.0,1
761,761,0.6088111300481184,0.6,1.0,1.0,406.0,784.0,0.0,0,1810.0,0
762,762,0.15126453864042377,0.2,1.0,1.0,386.0,682.0,0.0,0,-88.0,0
763,763,0.8112656977151828,0.8,1.0,1.0,343.0,963.0,1.0,1,-1246.0,1
764,764,-0.6099063024963844,-0.6,1.0,0.0,491.0,773.0,0.0,0,1736.0,1
765,765,-0.1352529447912416,-0.1,0.0,1.0,388.0,987.0,0.0,1,1375.0,0
766,766,-0.7044344033690257,-0.7,0.0,1.0,347.0,726.0,0.0,1,-343.0,0
767,767,-0.04315564875435374,-0.0,0.0,1.0,356.0,576.0,1.0,0,2068.0,1
768,768,-0.7236680789259383,-0.7,1.0,0.0,401.0,737.0,0.0,0,-568.0,1
769,769,-0.22798707221361925,-0.2,0.0,1.0,275.0,742.0,0.0,1,1983.0,0
770,770,-0.8873317674231116,-0.9,0.0,1.0,273.0,548.0,0.0,1,1039.0,0
771,771,-0.18767421426149344,-0.2,0.0,1.0,285.0,921.0,0.0,1,-686.0,0
772,772,0.2111146408372907,0.2,0.0,0.0,452.0,859.0,0.0,1,409.0,1
773,773,0.16634566515733418,0.2,1.0,1.0,320.0,582.0,1.0,1,-742.0,1
774,774,0.11204836602771351,0.1,0.0,0.0,380.0,725.0,1.0,0,1895.0,0
775,775,-0.6840712111427434,-0.7,1.0,0.0,365.0,572.0,0.0,0,-877.0,1
776,776,-0.5866846124299995,-0.6,1.0,0.0,394.0,974.0,0.0,0,-868.0,1
777,777,-0.220287333784977,-0.2,0.0,1.0,467.0,826.0,1.0,0,1707.0,1
778,778,0.6841183668373733,0.7,1.0,1.0,430.0,656.0,0.0,0,-46.0,0
779,779,0.64359346305036,0.6,1.0,1.0,289.0,950.0,1.0,1,1031.0,1
780,780,-0.11860695632477958,-0.1,1.0,0.0,385.0,746.0,0.0,0,-151.0,1
781,781,0.3740486837744551,0.4,1.0,1.0,493.0,700.0,0.0,0,137.0,0
782,782,0.7254729139734092,0.7,0.0,0.0,446.0,967.0,1.0,0,1587.0,0
783,783,-0.2823527597373259,-0.3,1.0,0.0,253.0,500.0,0.0,0,2077.0,1
784,784,0.7789695436907088,0.8,1.0,1.0,370.0,521.0,0.0,0,2109.0,0
785,785,0.04259503875056425,0.0,0.0,0.0,430.0,527.0,0.0,1,753.0,1
786,786,-0.8756937463639511,-0.9,1.0,0.0,452.0,779.0,0.0,0,-101.0,1
787,787,-0.4763745199200062,-0.5,0.0,1.0,415.0,663.0,0.0,1,-168.0,0
788,788,-0.8490506212240464,-0.8,0.0,1.0,323.0,775.0,0.0,1,1372.0,0
789,789,0.5405430490969868,0.5,0.0,0.0,490.0,584.0,0.0,1,786.0,1
790,790,0.8678955673583076,0.9,0.0,0.0,255.0,797.0,0.0,1,-22.0,1
791,791,-0.18379045324558607,-0.2,0.0,1.0,438.0,711.0,0.0,1,-299.0,0
792,792,0.597711645573472,0.6,1.0,1.0,387.0,646.0,0.0,0,-633.0,0
793,793,0.742573314419629,0.7,1.0,1.0,463.0,724.0,1.0,1,1813.0,1
794,794,0.33961295425229154,0.3,1.0,1.0,330.0,668.0,1.0,1,-358.0,1
795,795,0.6273303096664001,0.6,0.0,0.0,408.0,941.0,0.0,1,1651.0,1
796,796,-0.6454097659683847,-0.6,0.0,1.0,324.0,930.0,1.0,0,876.0,1
797,797,-0.6157133926011598,-0.6,1.0,0.0,410.0,805.0,0.0,0,1785.0,1
798,798,-0.3475986432804081,-0.3,1.0,0.0,293.0,873.0,1.0,1,-736.0,0
799,799,-0.46802522047861317,-0.5,1.0,0.0,261.0,888.0,0.0,0,411.0,1
800,800,-0.26035003684360936,-0.3,0.0,1.0,495.0,965.0,1.0,0,1540.0,1
801,801,-0.046349538479468655,-0.0,0.0,1.0,256.0,965.0,0.0,1,1779.0,0
802,802,0.004267669987731648,0.0,0.0,0.0,417.0,556.0,1.0,0,-113.0,0
803,803,-0.08855228263553516,-0.1,1.0,0.0,402.0,578.0,0.0,0,-640.0,1
804,804,-0.577992774896669,-0.6,1.0,0.0,443.0,693.0,0.0,0,-256.0,1
805,805,0.2491100110690342,0.2,0.0,0.0,372.0,900.0,0.0,1,-782.0,1
806,806,-0.8515549115886877,-0.9,1.0,0.0,471.0,848.0,0.0,0,1681.0,1
807,807,0.3586750431652731,0.4,1.0,1.0,284.0,620.0,0.0,0,-384.0,0
808,808,-0.30419382641721093,-0.3,1.0,0.0,403.0,754.0,0.0,0,-27.0,1
809,809,0.596726493886638,0.6,0.0,0.0,460.0,587.0,0.0,1,-177.0,1
810,810,0.5562096389611312,0.6,1.0,1.0,452.0,661.0,0.0,0,817.0,0
811,811,-0.10759988219537098,-0.1,1.0,0.0,433.0,975.0,0.0,0,-238.0,1
812,812,0.28621056519549193,0.3,0.0,0.0,348.0,672.0,0.0,1,1690.0,1
813,813,0.3288050470122529,0.3,0.0,0.0,375.0,948.0,0.0,1,-263.0,1
814,814,-0.6001426492080424,-0.6,1.0,0.0,297.0,654.0,0.0,0,-891.0,1
815,815,-0.3429358917994133,-0.3,1.0,0.0,499.0,629.0,0.0,0,-718.0,1
816,816,-0.524136936614684,-0.5,1.0,0.0,284.0,810.0,0.0,0,-524.0,1
817,817,0.01104307909856872,0.0,1.0,1.0,462.0,748.0,0.0,0,-1000.0,0
818,818,-0.40785600774607605,-0.4,1.0,0.0,480.0,838.0,0.0,0,1682.0,1
819,819,0.18981805472614666,0.2,0.0,0.0,382.0,810.0,1.0,0,1808.0,0
820,820,0.72243937734226,0.7,0.0,0.0,322.0,717.0,0.0,1,1961.0,1
821,821,0.301320174841878,0.3,0.0,0.0,434.0,915.0,0.0,1,151.0,1
822,822,-0.11212608612655883,-0.1,1.0,0.0,310.0,578.0,0.0,0,1422.0,1
823,823,0.5904709552239954,0.6,1.0,1.0,441.0,935.0,0.0,0,1624.0,0
824,824,-0.40816074299372146,-0.4,1.0,0.0,259.0,883.0,1.0,1,1858.0,0
825,825,-0.8258579699335272,-0.8,0.0,1.0,359.0,975.0,1.0,0,56.0,1
826,826,0.21076785992362412,0.2,0.0,0.0,354.0,727.0,0.0,1,1919.0,1
827,827,0.4607931402316009,0.5,1.0,1.0,471.0,642.0,0.0,0,-573.0,0
828,828,0.6697947211045013,0.7,0.0,0.0,441.0,769.0,1.0,0,1790.0,0
829,829,-0.7156909038251598,-0.7,1.0,0.0,410.0,639.0,0.0,0,-89.0,1
830,830,0.5556176376320515,0.6,0.0,0.0,392.0,641.0,1.0,0,1967.0,0
831,831,0.625840337254174,0.6,0.0,0.0,280.0,549.0,0.0,1,1481.0,1
832,832,0.6120324425636773,0.6,1.0,1.0,402.0,920.0,0.0,0,-392.0,0
833,833,-0.5323452201786141,-0.5,0.0,1.0,338.0,503.0,0.0,1,-811.0,0
834,834,0.234465793742194,0.2,1.0,1.0,455.0,705.0,1.0,1,1840.0,1
835,835,-0.8546236819531863,-0.9,1.0,0.0,293.0,949.0,0.0,0,-12.0,1
836,836,-0.38779513590400505,-0.4,0.0,1.0,349.0,504.0,0.0,1,2147.0,0
837,837,-0.2624970990422756,-0.3,0.0,1.0,283.0,575.0,0.0,1,1882.0,0
838,838,0.5804495890854598,0.6,0.0,0.0,294.0,656.0,1.0,0,-260.0,0
839,839,-0.8250726450527388,-0.8,1.0,0.0,434.0,850.0,0.0,0,-1254.0,1
840,840,0.45578213436151216,0.5,1.0,1.0,390.0,740.0,1.0,1,1870.0,1
841,841,-0.8518616941784407,-0.9,0.0,1.0,350.0,758.0,1.0,0,-978.0,1
842,842,-0.4999017973338717,-0.5,0.0,1.0,447.0,875.0,0.0,1,-132.0,0
843,843,0.24157474432353732,0.2,0.0,0.0,331.0,840.0,0.0,1,969.0,1
844,844,-0.18852274830751814,-0.2,0.0,1.0,314.0,799.0,0.0,1,-843.0,0
845,845,-0.7816612338318176,-0.8,0.0,1.0,258.0,768.0,1.0,0,1974.0,1
846,846,-0.635609135300883,-0.6,1.0,0.0,361.0,969.0,0.0,0,110.0,1
847,847,-0.028231857187536624,-0.0,0.0,1.0,389.0,929.0,0.0,1,-678.0,0
848,848,-0.737706037618873,-0.7,0.0,1.0,338.0,527.0,1.0,0,-845.0,1
849,849,-0.11448125781566076,-0.1,1.0,0.0,407.0,963.0,0.0,0,200.0,1
850,850,0.4972509675789373,0.5,1.0,1.0,439.0,945.0,0.0,0,-544.0,0
851,851,0.030965630972135116,0.0,1.0,1.0,268.0,990.0,0.0,0,-498.0,0
852,852,-0.12291996361684243,-0.1,0.0,1.0,385.0,924.0,0.0,1,-1169.0,0
853,853,-0.10576298020597741,-0.1,0.0,1.0,276.0,921.0,0.0,1,-77.0,0
854,854,0.5735617119346897,0.6,0.0,0.0,481.0,707.0,0.0,1,-398.0,1
855,855,0.08257180492335636,0.1,1.0,1.0,363.0,505.0,0.0,0,1032.0,0
856,856,0.6516379303975234,0.7,1.0,1.0,343.0,719.0,0.0,0,1938.0,0
857,857,0.07188538133465161,0.1,0.0,0.0,493.0,504.0,1.0,0,2003.0,0
858,858,0.23787959642352707,0.2,0.0,0.0,328.0,609.0,0.0,1,1073.0,1
859,859,-0.3080499131738952,-0.3,1.0,0.0,284.0,863.0,0.0,0,1733.0,1
860,860,-0.004909803005827995,-0.0,0.0,1.0,397.0,696.0,0.0,1,-953.0,0
861,861,-0.861808344205884,-0.9,1.0,0.0,291.0,930.0,0.0,0,1779.0,1
862,862,-0.010198270741103355,-0.0,1.0,0.0,366.0,579.0,0.0,0,-345.0,1
863,863,0.6138901669222928,0.6,0.0,0.0,397.0,821.0,0.0,1,-1188.0,1
864,864,0.023721889924777417,0.0,0.0,0.0,359.0,905.0,1.0,0,1736.0,0
865,865,-0.3248369238192752,-0.3,0.0,1.0,426.0,646.0,1.0,0,1928.0,1
866,866,-0.7170524626635556,-0.7,1.0,0.0,347.0,741.0,0.0,0,682.0,1
867,867,-0.4078274016964302,-0.4,0.0,1.0,499.0,794.0,0.0,1,-1003.0,0
868,868,0.5792994954940219,0.6,0.0,0.0,382.0,564.0,0.0,1,2054.0,1
869,869,-0.8852001719755642,-0.9,1.0,0.0,389.0,648.0,1.0,1,1963.0,0
870,870,-0.2132138079274183,-0.2,1.0,0.0,413.0,825.0,0.0,0,1742.0,1
871,871,-0.06652100548995588,-0.1,1.0,0.0,282.0,970.0,0.0,0,1748.0,1
872,872,-0.857788308813532,-0.9,1.0,0.0,491.0,880.0,0.0,0,-1151.0,1
873,873,-0.875012034951083,-0.9,0.0,1.0,498.0,598.0,1.0,0,804.0,1
874,874,-0.6257320498799885,-0.6,0.0,1.0,357.0,965.0,0.0,1,108.0,0
875,875,-0.5961349383677268,-0.6,0.0,1.0,369.0,885.0,0.0,1,-1024.0,0
876,876,-0.03582028320510744,-0.0,0.0,1.0,407.0,574.0,0.0,1,-491.0,0
877,877,-0.13633637397700205,-0.1,0.0,1.0,485.0,677.0,1.0,0,1838.0,1
878,878,0.23614820751185672,0.2,1.0,1.0,394.0,900.0,0.0,0,-644.0,0
879,879,-0.10832088261759376,-0.1,1.0,0.0,444.0,783.0,0.0,0,923.0,1
880,880,0.8355246614288468,0.8,1.0,1.0,406.0,779.0,1.0,1,-495.0,1
881,881,-0.8308995476589058,-0.8,1.0,0.0,357.0,571.0,0.0,0,2022.0,1
882,882,0.14878530427733672,0.1,1.0,1.0,439.0,611.0,0.0,0,1950.0,0
883,883,-0.7059974984860353,-0.7,0.0,1.0,320.0,677.0,1.0,0,2003.0,1
884,884,0.5013060526499248,0.5,1.0,1.0,458.0,602.0,0.0,0,180.0,0
885,885,0.6123420566579479,0.6,0.0,0.0,484.0,834.0,0.0,1,382.0,1
886,886,0.1027731112021909,0.1,1.0,1.0,468.0,756.0,0.0,0,-794.0,0
887,887,-0.1590672257113911,-0.2,0.0,1.0,343.0,929.0,0.0,1,1358.0,0
888,888,-0.1265307715645113,-0.1,0.0,1.0,316.0,535.0,0.0,1,859.0,0
889,889,-0.5855578395064541,-0.6,0.0,1.0,457.0,550.0,0.0,1,573.0,0
890,890,-0.8059180469400185,-0.8,1.0,0.0,457.0,541.0,0.0,0,-548.0,1
891,891,-0.6765121983542209,-0.7,1.0,0.0,316.0,983.0,1.0,1,1701.0,0
892,892,-0.24039779506403192,-0.2,0.0,1.0,481.0,988.0,0.0,1,-759.0,0
893,893,0.562986941241539,0.6,0.0,0.0,417.0,760.0,0.0,1,63.0,1
894,894,0.04235791100434971,0.0,1.0,1.0,407.0,745.0,0.0,0,1528.0,0
895,895,0.493366118061798,0.5,0.0,0.0,424.0,664.0,1.0,0,1912.0,0
896,896,0.8496185931704517,0.8,0.0,0.0,361.0,860.0,0.0,1,1229.0,1
897,897,0.13988801658878713,0.1,1.0,1.0,405.0,722.0,0.0,0,-207.0,0
898,898,0.12035799614593656,0.1,1.0,1.0,402.0,985.0,0.0,0,-857.0,0
899,899,-0.2741510543539478,-0.3,0.0,1.0,259.0,576.0,1.0,0,2165.0,1
900,900,0.5355457462870955,0.5,1.0,1.0,458.0,630.0,0.0,0,1222.0,0
901,901,0.4553845841318419,0.5,1.0,1.0,428.0,673.0,0.0,0,-751.0,0
902,902,-0.028628429957535118,-0.0,1.0,0.0,281.0,963.0,0.0,0,1666.0,1
903,903,0.202590718213134,0.2,0.0,0.0,259.0,752.0,0.0,1,1989.0,1
904,904,0.16006618749321977,0.2,1.0,1.0,277.0,730.0,0.0,0,1963.0,0
905,905,-0.6725055198584495,-0.7,1.0,0.0,469.0,778.0,1.0,1,-357.0,0
906,906,-0.39815636048880665,-0.4,0.0,1.0,417.0,613.0,1.0,0,1970.0,1
907,907,-0.44117073277016405,-0.4,0.0,1.0,430.0,933.0,0.0,1,97.0,0
908,908,0.7672297501759119,0.8,1.0,1.0,271.0,668.0,0.0,0,2061.0,0
909,909,0.4941773037788605,0.5,1.0,1.0,406.0,806.0,1.0,1,1788.0,1
910,910,0.3154768613074922,0.3,0.0,0.0,329.0,726.0,1.0,0,-715.0,0
911,911,0.8982803025583047,0.9,0.0,0.0,367.0,990.0,1.0,0,1643.0,0
912,912,0.5213571578191835,0.5,1.0,1.0,429.0,885.0,1.0,1,1686.0,1
913,913,-0.4473530765992812,-0.4,1.0,0.0,381.0,916.0,0.0,0,-337.0,1
914,914,0.6083229886538258,0.6,0.0,0.0,488.0,903.0,1.0,0,1609.0,0
915,915,0.3152427074523342,0.3,0.0,0.0,342.0,653.0,0.0,1,2005.0,1
916,916,0.10480790544831009,0.1,0.0,0.0,332.0,783.0,0.0,1,625.0,1
917,917,0.3854920991663443,0.4,1.0,1.0,497.0,922.0,0.0,0,1241.0,0
918,918,-0.7938582420063165,-0.8,0.0,1.0,396.0,899.0,0.0,1,775.0,0
919,919,-0.7864122605975994,-0.8,1.0,0.0,272.0,822.0,0.0,0,-44.0,1
920,920,-0.5531885481658816,-0.6,1.0,0.0,348.0,984.0,0.0,0,-862.0,1
921,921,-0.29519714343803694,-0.3,1.0,0.0,384.0,751.0,0.0,0,295.0,1
922,922,-0.7003998472196296,-0.7,1.0,0.0,474.0,698.0,1.0,1,1828.0,0
923,923,0.47545653248636344,0.5,1.0,1.0,343.0,867.0,0.0,0,1790.0,0
924,924,-0.05689111927182866,-0.1,1.0,0.0,367.0,541.0,0.0,0,1812.0,1
925,925,0.26786032617748756,0.3,0.0,0.0,335.0,537.0,0.0,1,1008.0,1
926,926,0.6325062509344744,0.6,1.0,1.0,300.0,597.0,0.0,0,-727.0,0
927,927,0.18446365645930285,0.2,0.0,0.0,435.0,546.0,1.0,0,2019.0,0
928,928,0.8048765511244894,0.8,1.0,1.0,386.0,614.0,0.0,0,200.0,0
929,929,0.19100290887082794,0.2,1.0,1.0,490.0,527.0,0.0,0,833.0,0
930,930,-0.6895830914877628,-0.7,1.0,0.0,464.0,857.0,1.0,1,1679.0,0
931,931,-0.6497863472943346,-0.6,1.0,0.0,449.0,597.0,0.0,0,604.0,1
932,932,0.3462103719930324,0.3,0.0,0.0,297.0,808.0,0.0,1,-595.0,1
933,933,-0.7848536538408561,-0.8,0.0,1.0,437.0,641.0,0.0,1,1112.0,0
934,934,0.8112980500188295,0.8,1.0,1.0,352.0,750.0,0.0,0,328.0,0
935,935,-0.21747145158583514,-0.2,1.0,0.0,461.0,945.0,0.0,0,354.0,1
936,936,-0.3644081368718737,-0.4,1.0,0.0,260.0,699.0,0.0,0,-929.0,1
937,937,-0.46668019298702534,-0.5,0.0,1.0,266.0,744.0,0.0,1,-580.0,0
938,938,0.8298865356797666,0.8,0.0,0.0,310.0,658.0,1.0,0,282.0,0
939,939,0.8142886350399318,0.8,1.0,1.0,390.0,817.0,0.0,0,1123.0,0
940,940,-0.41311541271724855,-0.4,1.0,0.0,383.0,831.0,1.0,1,1786.0,0
941,941,-0.26965327989879473,-0.3,1.0,0.0,404.0,513.0,1.0,1,2083.0,0
942,942,-0.6344472407196318,-0.6,0.0,1.0,268.0,981.0,1.0,0,1751.0,1
943,943,0.06883186059042246,0.1,0.0,0.0,381.0,669.0,0.0,1,110.0,1
944,944,-0.6614207823837799,-0.7,1.0,0.0,454.0,741.0,0.0,0,975.0,1
945,945,0.7947883472136569,0.8,0.0,0.0,471.0,889.0,0.0,1,-340.0,1
946,946,-0.633235144451417,-0.6,1.0,0.0,458.0,571.0,0.0,0,1971.0,1
947,947,-0.32916869694148954,-0.3,1.0,0.0,361.0,795.0,0.0,0,604.0,1
948,948,-0.40166441992313917,-0.4,1.0,0.0,391.0,588.0,0.0,0,431.0,1
949,949,-0.7400602052576145,-0.7,0.0,1.0,414.0,817.0,1.0,0,-1151.0,1
950,950,-0.6115336293524367,-0.6,0.0,1.0,305.0,710.0,1.0,0,1985.0,1
951,951,0.157131850424726,0.2,0.0,0.0,400.0,702.0,1.0,0,-262.0,0
952,952,0.799805300270474,0.8,0.0,0.0,400.0,775.0,0.0,1,-605.0,1
953,953,-0.6962829911268456,-0.7,0.0,1.0,410.0,686.0,0.0,1,1004.0,0
954,954,0.7304833831310188,0.7,1.0,1.0,296.0,555.0,1.0,1,2149.0,1
955,955,0.4662005303884994,0.5,1.0,1.0,353.0,512.0,0.0,0,2135.0,0
956,956,0.04882721091515052,0.0,1.0,1.0,397.0,688.0,0.0,0,1415.0,0
957,957,-0.31688184510174144,-0.3,0.0,1.0,384.0,820.0,0.0,1,-414.0,0
958,958,0.4129133851323016,0.4,0.0,0.0,353.0,908.0,0.0,1,-701.0,1
959,959,0.44403064953111626,0.4,1.0,1.0,416.0,823.0,0.0,0,-479.0,0
960,960,0.8533258204655759,0.9,0.0,0.0,274.0,565.0,0.0,1,-589.0,1
961,961,-0.16505421020646815,-0.2,0.0,1.0,288.0,586.0,0.0,1,1746.0,0
962,962,-0.19929128169004995,-0.2,0.0,1.0,463.0,714.0,0.0,1,1253.0,0
963,963,0.7294621488336007,0.7,0.0,0.0,482.0,718.0,0.0,1,0.0,1
964,964,0.18162222680915596,0.2,1.0,1.0,257.0,843.0,0.0,0,-650.0,0
965,965,-0.4671260818495632,-0.5,1.0,0.0,365.0,917.0,0.0,0,1558.0,1
966,966,0.12302567938253584,0.1,1.0,1.0,427.0,538.0,0.0,0,1435.0,0
967,967,-0.2537303904694094,-0.3,1.0,0.0,383.0,804.0,0.0,0,1613.0,1
968,968,0.04165171734929485,0.0,1.0,1.0,413.0,859.0,0.0,0,-122.0,0
969,969,-0.23855737668429688,-0.2,0.0,1.0,304.0,634.0,1.0,0,2062.0,1
970,970,0.046579648505009064,0.0,0.0,0.0,484.0,549.0,0.0,1,-83.0,1
971,971,0.8342949523084139,0.8,1.0,1.0,453.0,542.0,0.0,0,-605.0,0
972,972,-0.488307978362985,-0.5,0.0,1.0,409.0,605.0,0.0,1,-974.0,0
973,973,-0.18952967672397825,-0.2,1.0,0.0,273.0,794.0,0.0,0,1193.0,1
974,974,-0.7941996343774481,-0.8,0.0,1.0,481.0,942.0,1.0,0,1577.0,1
975,975,-0.0723248475781888,-0.1,1.0,0.0,424.0,707.0,0.0,0,1399.0,1
976,976,0.22024471164642068,0.2,1.0,1.0,283.0,881.0,0.0,0,1836.0,0
977,977,0.46775842352849717,0.5,0.0,0.0,359.0,548.0,0.0,1,-437.0,1
978,978,0.6494297093090015,0.6,0.0,0.0,366.0,871.0,0.0,1,1763.0,1
979,979,0.7066383639282175,0.7,1.0,1.0,337.0,559.0,0.0,0,454.0,0
980,980,-0.8398015076646759,-0.8,0.0,1.0,275.0,951.0,1.0,0,1774.0,1
981,981,0.25207282458643954,0.3,0.0,0.0,398.0,604.0,0.0,1,-192.0,1
982,982,-0.20335694480872035,-0.2,1.0,0.0,261.0,534.0,0.0,0,-465.0,1
983,983,-0.3395900539578477,-0.3,0.0,1.0,452.0,945.0,0.0,1,-1327.0,0
984,984,-0.33540095827091787,-0.3,0.0,1.0,475.0,937.0,0.0,1,68.0,0
985,985,-0.12735292229929773,-0.1,0.0,1.0,262.0,665.0,0.0,1,-407.0,0
986,986,0.3869210228344263,0.4,1.0,1.0,296.0,877.0,0.0,0,1827.0,0
987,987,0.007311480818885996,0.0,1.0,1.0,324.0,787.0,0.0,0,729.0,0
988,988,-0.4510637427192265,-0.5,0.0,1.0,344.0,715.0,0.0,1,-409.0,0
989,989,-0.809842630367687,-0.8,1.0,0.0,303.0,674.0,0.0,0,2023.0,1
990,990,-0.7513620860533388,-0.8,0.0,1.0,325.0,808.0,1.0,0,1867.0,1
991,991,0.12718313275457127,0.1,0.0,0.0,424.0,816.0,0.0,1,-440.0,1
992,992,0.06860806239209694,0.1,1.0,1.0,346.0,908.0,0.0,0,-434.0,0
993,993,-0.6964030820549869,-0.7,0.0,1.0,347.0,510.0,1.0,0,2143.0,1
994,994,0.738926621455705,0.7,1.0,1.0,443.0,537.0,1.0,1,2020.0,1
995,995,-0.03156073119554281,-0.0,1.0,0.0,250.0,930.0,0.0,0,480.0,1
996,996,0.7596271245422969,0.8,0.0,0.0,416.0,972.0,0.0,1,1462.0,1
997,997,0.3481186458629809,0.3,1.0,1.0,286.0,814.0,1.0,1,1900.0,1
998,998,-0.8787997863278415,-0.9,0.0,1.0,328.0,936.0,1.0,0,1356.0,1
999,999,-0.19011876917017245,-0.2,0.0,1.0,397.0,855.0,0.0,1,1598.0,0
1000,1000,-0.3057774941499696,-0.3,1.0,0.0,492.0,568.0,0.0,0,-910.0,1
1001,1001,-0.2259406834227098,-0.2,1.0,0.0,390.0,880.0,1.0,1,-1020.0,0
1002,1002,0.49024528373289644,0.5,0.0,0.0,414.0,921.0,0.0,1,1475.0,1
1003,1003,-0.7560145887654875,-0.8,1.0,0.0,270.0,815.0,0.0,0,-545.0,1
1004,1004,-0.6369218756371264,-0.6,0.0,1.0,497.0,551.0,0.0,1,1222.0,0
1005,1005,0.6502955235735658,0.7,1.0,1.0,404.0,942.0,0.0,0,1654.0,0
1006,1006,0.3151259852578513,0.3,0.0,0.0,316.0,734.0,1.0,0,-470.0,0
1007,1007,0.31168591632406295,0.3,0.0,0.0,355.0,641.0,0.0,1,254.0,1
1008,1008,0.7435540443406886,0.7,1.0,1.0,405.0,546.0,1.0,1,2049.0,1
1009,1009,-0.11346974232919449,-0.1,1.0,0.0,275.0,804.0,0.0,0,671.0,1
1010,1010,-0.15412153639103565,-0.2,0.0,1.0,303.0,523.0,0.0,1,984.0,0
1011,1011,0.6555622143298988,0.7,1.0,1.0,287.0,943.0,0.0,0,-700.0,0
1012,1012,-0.7027712473896677,-0.7,1.0,0.0,467.0,584.0,1.0,1,1949.0,0
1013,1013,0.021788068218147827,0.0,0.0,0.0,263.0,884.0,0.0,1,1853.0,1
1014,1014,0.6839092727279755,0.7,1.0,1.0,437.0,611.0,1.0,1,1952.0,1
1015,1015,-0.030102383754350814,-0.0,1.0,0.0,418.0,995.0,1.0,1,1127.0,0
1016,1016,-0.5696060963221952,-0.6,1.0,0.0,476.0,628.0,0.0,0,1076.0,1
1017,1017,0.5882792501768709,0.6,0.0,0.0,250.0,822.0,0.0,1,-742.0,1
1018,1018,-0.4052960868402317,-0.4,1.0,0.0,397.0,666.0,0.0,0,57.0,1
1019,1019,-0.513062321703815,-0.5,0.0,1.0,357.0,742.0,1.0,0,1901.0,1
1020,1020,-0.12868041992074541,-0.1,0.0,1.0,375.0,695.0,0.0,1,1930.0,0
1021,1021,-0.4722955390321757,-0.5,1.0,0.0,254.0,838.0,0.0,0,-552.0,1
1022,1022,-0.5682681798975828,-0.6,1.0,0.0,292.0,530.0,0.0,0,1308.0,1
1023,1023,0.711781652593319,0.7,1.0,1.0,294.0,742.0,1.0,1,1964.0,1
1024,1024,-0.5094779437367769,-0.5,1.0,0.0,392.0,616.0,0.0,0,182.0,1
1025,1025,0.026918653705631068,0.0,0.0,0.0,430.0,643.0,0.0,1,297.0,1
1026,1026,-0.27104138174920567,-0.3,1.0,0.0,264.0,614.0,1.0,1,2122.0,0
1027,1027,0.6274566191555183,0.6,0.0,0.0,438.0,700.0,1.0,0,1862.0,0
1028,1028,0.3135689756190404,0.3,0.0,0.0,429.0,854.0,0.0,1,677.0,1
1029,1029,-0.008905673494528754,-0.0,0.0,1.0,383.0,691.0,0.0,1,-484.0,0
1030,1030,0.5450192071973708,0.5,1.0,1.0,297.0,724.0,0.0,0,469.0,0
1031,1031,-0.4590858951580996,-0.5,0.0,1.0,390.0,576.0,0.0,1,1284.0,0
1032,1032,-0.6528804366127418,-0.7,1.0,0.0,490.0,613.0,0.0,0,1027.0,1
1033,1033,0.5011806523252659,0.5,1.0,1.0,415.0,752.0,0.0,0,-817.0,0
1034,1034,-0.2725774122552189,-0.3,0.0,1.0,431.0,589.0,0.0,1,790.0,0
1035,1035,0.2493858835787096,0.2,0.0,0.0,325.0,743.0,0.0,1,1022.0,1
1036,1036,-0.8122628107327735,-0.8,1.0,0.0,368.0,916.0,0.0,0,466.0,1
1037,1037,0.8570214278409317,0.9,0.0,0.0,285.0,737.0,0.0,1,828.0,1
1038,1038,-0.6207876486248392,-0.6,1.0,0.0,484.0,642.0,1.0,1,264.0,0
1039,1039,0.5354980826224142,0.5,1.0,1.0,401.0,505.0,0.0,0,-516.0,0
1040,1040,0.8513644493664406,0.9,1.0,1.0,413.0,820.0,0.0,0,1767.0,0
1041,1041,-0.5347814516661156,-0.5,1.0,0.0,368.0,705.0,0.0,0,57.0,1
1042,1042,0.8267863590679566,0.8,0.0,0.0,384.0,859.0,0.0,1,-583.0,1
1043,1043,-0.6982407182367785,-0.7,0.0,1.0,498.0,748.0,0.0,1,264.0,0
1044,1044,-0.6130190398145493,-0.6,0.0,1.0,427.0,749.0,0.0,1,264.0,0
1045,1045,-0.41622124974747027,-0.4,0.0,1.0,314.0,771.0,0.0,1,-355.0,0
1046,1046,-0.06713702736551486,-0.1,1.0,0.0,443.0,988.0,0.0,0,-521.0,1
1047,1047,-0.5233810979324669,-0.5,0.0,1.0,454.0,752.0,0.0,1,-286.0,0
1048,1048,-0.6257456301717903,-0.6,1.0,0.0,357.0,908.0,1.0,1,1735.0,0
1049,1049,0.44684927007877084,0.4,1.0,1.0,405.0,566.0,0.0,0,299.0,0
1050,1050,0.01273252352647447,0.0,0.0,0.0,427.0,952.0,0.0,1,1621.0,1
1051,1051,-0.2868792933777057,-0.3,1.0,0.0,413.0,906.0,0.0,0,-959.0,1
1052,1052,0.5782306346112819,0.6,1.0,1.0,491.0,586.0,0.0,0,-817.0,0
1053,1053,0.10751770396273808,0.1,1.0,1.0,271.0,654.0,0.0,0,-815.0,0
1054,1054,0.38876444284706013,0.4,1.0,1.0,405.0,741.0,0.0,0,-126.0,0
1055,1055,0.34066400677998143,0.3,0.0,0.0,422.0,527.0,0.0,1,-629.0,1
1056,1056,-0.27388474019115927,-0.3,1.0,0.0,460.0,816.0,0.0,0,-636.0,1
1057,1057,-0.0742293001735519,-0.1,0.0,1.0,425.0,858.0,0.0,1,547.0,0
1058,1058,0.022892911982667852,0.0,0.0,0.0,372.0,843.0,0.0,1,835.0,1
1059,1059,0.3864703393763397,0.4,1.0,1.0,409.0,820.0,1.0,1,1771.0,1
1060,1060,-0.26658310905368277,-0.3,0.0,1.0,366.0,629.0,0.0,1,475.0,0
1061,1061,0.610736403613919,0.6,0.0,0.0,442.0,963.0,0.0,1,-885.0,1
1062,1062,-0.5802878093702095,-0.6,0.0,1.0,262.0,551.0,0.0,1,77.0,0
1063,1063,0.1318881895812588,0.1,0.0,0.0,430.0,571.0,1.0,0,1999.0,0
1064,1064,-0.5525312327801772,-0.6,1.0,0.0,418.0,665.0,0.0,0,317.0,1
1065,1065,0.1657786152826618,0.2,0.0,0.0,393.0,662.0,0.0,1,-535.0,1
1066,1066,0.019866035324156206,0.0,0.0,0.0,482.0,810.0,0.0,1,-1082.0,1
1067,1067,-0.7343232943807967,-0.7,1.0,0.0,266.0,746.0,0.0,0,-692.0,1
1068,1068,-0.501028619822396,-0.5,1.0,0.0,315.0,576.0,1.0,1,-351.0,0
1069,1069,-0.1262988526592852,-0.1,1.0,0.0,339.0,779.0,0.0,0,-38.0,1
1070,1070,-0.43545505217315067,-0.4,1.0,0.0,420.0,653.0,0.0,0,297.0,1
1071,1071,-0.28679397087088,-0.3,1.0,0.0,332.0,692.0,0.0,0,-334.0,1
1072,1072,-0.7059487519640104,-0.7,1.0,0.0,279.0,921.0,1.0,1,1800.0,0
1073,1073,-0.5398663079389396,-0.5,0.0,1.0,489.0,915.0,1.0,0,1596.0,1
1074,1074,-0.8570024597908283,-0.9,0.0,1.0,285.0,729.0,0.0,1,-94.0,0
1075,1075,0.19511758838387683,0.2,0.0,0.0,311.0,781.0,1.0,0,-1052.0,0
1076,1076,0.1011873914904452,0.1,0.0,0.0,427.0,964.0,0.0,1,-1171.0,1
1077,1077,-0.22102349796316478,-0.2,0.0,1.0,277.0,826.0,0.0,1,47.0,0
1078,1078,0.8760411663663606,0.9,1.0,1.0,325.0,952.0,0.0,0,923.0,0
1079,1079,0.09610370383483235,0.1,0.0,0.0,443.0,805.0,0.0,1,732.0,1
1080,1080,-0.6006132637210163,-0.6,1.0,0.0,462.0,606.0,1.0,1,1932.0,0
1081,1081,-0.5688334565761458,-0.6,0.0,1.0,254.0,820.0,0.0,1,1926.0,0
1082,1082,-0.42496683153823595,-0.4,0.0,1.0,469.0,713.0,1.0,0,1818.0,1
1083,1083,0.32314480130311696,0.3,1.0,1.0,336.0,626.0,1.0,1,-632.0,1
1084,1084,0.6401166380344921,0.6,0.0,0.0,417.0,752.0,0.0,1,-429.0,1
1085,1085,-0.6128268725614272,-0.6,0.0,1.0,499.0,610.0,0.0,1,1081.0,0
1086,1086,-0.6944366516766919,-0.7,0.0,1.0,268.0,506.0,0.0,1,-374.0,0
1087,1087,-0.4525039150369798,-0.5,0.0,1.0,256.0,896.0,1.0,0,1848.0,1
1088,1088,-0.0382403328223766,-0.0,1.0,0.0,304.0,900.0,0.0,0,-534.0,1
1089,1089,-0.22130309325750985,-0.2,0.0,1.0,465.0,808.0,0.0,1,-1273.0,0
1090,1090,0.7833780015876667,0.8,0.0,0.0,318.0,981.0,0.0,1,581.0,1
1091,1091,0.2857830783307783,0.3,1.0,1.0,317.0,603.0,0.0,0,-800.0,0
1092,1092,-0.6886940362429173,-0.7,0.0,1.0,266.0,795.0,1.0,0,1939.0,1
1093,1093,0.2615941913644989,0.3,0.0,0.0,263.0,911.0,1.0,0,1826.0,0
1094,1094,-0.6125413276670517,-0.6,0.0,1.0,280.0,536.0,0.0,1,1204.0,0
1095,1095,-0.3231938880855527,-0.3,0.0,1.0,252.0,509.0,0.0,1,-611.0,0
1096,1096,-0.44088134351786296,-0.4,1.0,0.0,421.0,969.0,0.0,0,390.0,1
1097,1097,0.49203260425162043,0.5,0.0,0.0,434.0,576.0,0.0,1,-80.0,1
1098,1098,-0.5771733693082615,-0.6,0.0,1.0,253.0,738.0,1.0,0,2009.0,1
1099,1099,0.10209430452644297,0.1,0.0,0.0,268.0,960.0,0.0,1,-1198.0,1
1100,1100,0.5948194423408669,0.6,1.0,1.0,261.0,560.0,1.0,1,2179.0,1
1101,1101,-0.8969921104248597,-0.9,1.0,0.0,477.0,616.0,0.0,0,427.0,1
1102,1102,0.24494109614749304,0.2,0.0,0.0,303.0,790.0,1.0,0,1907.0,0
1103,1103,-0.527291034872249,-0.5,1.0,0.0,292.0,525.0,0.0,0,2183.0,1
1104,1104,-0.3391325323233545,-0.3,1.0,0.0,329.0,885.0,0.0,0,-1154.0,1
1105,1105,-0.5528541873245338,-0.6,1.0,0.0,491.0,659.0,1.0,1,1850.0,0
1106,1106,-0.5389017382135293,-0.5,0.0,1.0,334.0,779.0,0.0,1,-683.0,0
1107,1107,-0.6887741946653861,-0.7,1.0,0.0,427.0,689.0,0.0,0,-226.0,1
1108,1108,0.06416540936407955,0.1,1.0,1.0,423.0,833.0,0.0,0,4.0,0
1109,1109,0.595969097871213,0.6,1.0,1.0,313.0,534.0,1.0,1,2153.0,1
1110,1110,-0.649658073822505,-0.6,0.0,1.0,485.0,910.0,1.0,0,1605.0,1
1111,1111,0.8550427034220663,0.9,1.0,1.0,447.0,519.0,0.0,0,1764.0,0
1112,1112,-0.8035438044802684,-0.8,0.0,1.0,422.0,946.0,0.0,1,-938.0,0
1113,1113,-0.26852938429438933,-0.3,1.0,0.0,288.0,961.0,1.0,1,1751.0,0
1114,1114,0.8115328512030239,0.8,0.0,0.0,286.0,662.0,0.0,1,-258.0,1
1115,1115,0.6438317928494736,0.6,0.0,0.0,470.0,834.0,1.0,0,1696.0,0
1116,1116,-0.7804652092988331,-0.8,0.0,1.0,304.0,937.0,1.0,0,1759.0,1
1117,1117,0.19833161944719768,0.2,1.0,1.0,442.0,806.0,0.0,0,-998.0,0
1118,1118,0.5736167622294831,0.6,1.0,1.0,462.0,855.0,1.0,1,1683.0,1
1119,1119,0.3890190384988107,0.4,1.0,1.0,383.0,614.0,0.0,0,-567.0,0
1120,1120,-0.5287025364637244,-0.5,0.0,1.0,277.0,617.0,0.0,1,-774.0,0
1121,1121,0.18532577243394022,0.2,1.0,1.0,325.0,693.0,0.0,0,-168.0,0
1122,1122,0.0362218005065823,0.0,0.0,0.0,409.0,702.0,0.0,1,349.0,1
1123,1123,0.15829684512927578,0.2,1.0,1.0,370.0,805.0,1.0,1,-655.0,1
1124,1124,0.38043850285076586,0.4,1.0,1.0,399.0,917.0,0.0,0,-146.0,0
1125,1125,0.7650361111035716,0.8,0.0,0.0,493.0,861.0,0.0,1,-54.0,1
1126,1126,-0.4701818613544473,-0.5,0.0,1.0,496.0,804.0,0.0,1,-770.0,0
1127,1127,-0.30170616783896964,-0.3,1.0,0.0,443.0,654.0,0.0,0,1573.0,1
1128,1128,0.5914259159888037,0.6,0.0,0.0,443.0,772.0,0.0,1,235.0,1
1129,1129,0.28601066757367877,0.3,1.0,1.0,496.0,899.0,0.0,0,-1125.0,0
1130,1130,0.3164076287383629,0.3,1.0,1.0,388.0,731.0,0.0,0,1591.0,0
1131,1131,0.01081309503678396,0.0,1.0,1.0,386.0,894.0,0.0,0,-550.0,0
1132,1132,-0.8795707963625266,-0.9,0.0,1.0,436.0,675.0,1.0,0,1719.0,1
1133,1133,-0.307549749583406,-0.3,1.0,0.0,320.0,974.0,0.0,0,766.0,1
1134,1134,0.8742103070055137,0.9,0.0,0.0,438.0,839.0,0.0,1,-367.0,1
1135,1135,0.34072113015219097,0.3,0.0,0.0,474.0,967.0,0.0,1,-591.0,1
1136,1136,-0.020191076727985924,-0.0,0.0,1.0,299.0,559.0,0.0,1,-828.0,0
1137,1137,-0.21224103359720137,-0.2,0.0,1.0,435.0,542.0,0.0,1,103.0,0
1138,1138,-0.36371709685373377,-0.4,1.0,0.0,290.0,657.0,1.0,1,143.0,0
1139,1139,-0.6607357046008951,-0.7,1.0,0.0,381.0,585.0,1.0,1,2034.0,0
1140,1140,-0.5397061540688279,-0.5,1.0,0.0,357.0,722.0,0.0,0,-369.0,1
1141,1141,-0.6870366399858903,-0.7,0.0,1.0,486.0,828.0,1.0,0,1686.0,1
1142,1142,0.46668868406768815,0.5,1.0,1.0,357.0,934.0,0.0,0,-901.0,0
1143,1143,0.10375154669103182,0.1,0.0,0.0,307.0,747.0,0.0,1,386.0,1
1144,1144,-0.2537334923545381,-0.3,1.0,0.0,482.0,518.0,0.0,0,850.0,1
1145,1145,-0.4597572195831017,-0.5,1.0,0.0,495.0,613.0,0.0,0,1892.0,1
1146,1146,0.05089678497058081,0.1,1.0,1.0,400.0,560.0,0.0,0,1220.0,0
1147,1147,-0.5088743433264402,-0.5,1.0,0.0,475.0,624.0,0.0,0,351.0,1
1148,1148,-0.5199339063301734,-0.5,0.0,1.0,301.0,825.0,0.0,1,-726.0,0
1149,1149,-0.5494370144044266,-0.5,0.0,1.0,386.0,720.0,0.0,1,1894.0,0
1150,1150,0.0285904746525949,0.0,0.0,0.0,316.0,905.0,1.0,0,1779.0,0
1151,1151,-0.28376085257203787,-0.3,1.0,0.0,334.0,506.0,0.0,0,-660.0,1
1152,1152,0.8471379370343083,0.8,0.0,0.0,358.0,980.0,0.0,1,12.0,1
1153,1153,-0.035914404828370716,-0.0,0.0,1.0,465.0,558.0,0.0,1,-293.0,0
1154,1154,0.4184875884400333,0.4,1.0,1.0,274.0,629.0,0.0,0,1207.0,0
1155,1155,0.5227877616373889,0.5,0.0,0.0,254.0,667.0,0.0,1,39.0,1
1156,1156,0.3888243306534577,0.4,0.0,0.0,404.0,769.0,1.0,0,1827.0,0
1157,1157,-0.09537938338777963,-0.1,1.0,0.0,312.0,878.0,1.0,1,1810.0,0
1158,1158,0.7555900996468182,0.8,1.0,1.0,309.0,954.0,0.0,0,-23.0,0
1159,1159,-0.5627348014799878,-0.6,0.0,1.0,373.0,917.0,0.0,1,1710.0,0
1160,1160,-0.7974490507638909,-0.8,1.0,0.0,257.0,738.0,1.0,1,2005.0,0
1161,1161,0.12511641658712802,0.1,0.0,0.0,380.0,735.0,0.0,1,1125.0,1
1162,1162,0.46775591265580585,0.5,0.0,0.0,400.0,707.0,0.0,1,333.0,1
1163,1163,0.37383633282734163,0.4,0.0,0.0,322.0,546.0,0.0,1,142.0,1
1164,1164,0.8265335771578469,0.8,0.0,0.0,447.0,663.0,0.0,1,1810.0,1
1165,1165,0.547357096201546,0.5,1.0,1.0,389.0,819.0,0.0,0,1022.0,0
1166,1166,-0.26688834724384913,-0.3,0.0,1.0,369.0,997.0,0.0,1,-496.0,0
1167,1167,0.2021021385578884,0.2,0.0,0.0,302.0,802.0,1.0,0,1896.0,0
1168,1168,0.8360198720806659,0.8,1.0,1.0,376.0,515.0,0.0,0,1739.0,0
1169,1169,-0.17632724702593439,-0.2,0.0,1.0,492.0,680.0,1.0,0,1828.0,1
1170,1170,-0.019227149625128948,-0.0,1.0,0.0,307.0,693.0,1.0,1,2000.0,0
1171,1171,-0.3342085671749351,-0.3,0.0,1.0,293.0,890.0,0.0,1,-683.0,0
1172,1172,-0.8198461818697783,-0.8,0.0,1.0,310.0,901.0,0.0,1,879.0,0
1173,1173,-0.7716685569079973,-0.8,0.0,1.0,415.0,691.0,0.0,1,964.0,0
1174,1174,-0.5832471788247873,-0.6,0.0,1.0,358.0,550.0,1.0,0,2092.0,1
1175,1175,-0.5102352938877425,-0.5,0.0,1.0,348.0,732.0,0.0,1,1460.0,0
1176,1176,-0.7273850226272376,-0.7,1.0,0.0,321.0,586.0,1.0,1,2093.0,0
1177,1177,-0.6945056908950956,-0.7,0.0,1.0,329.0,653.0,1.0,0,2018.0,1
1178,1178,-0.5007975675547429,-0.5,0.0,1.0,450.0,552.0,0.0,1,1128.0,0
1179,1179,0.48207076614883115,0.5,1.0,1.0,437.0,925.0,0.0,0,-432.0,0
1180,1180,-0.8450438563248909,-0.8,1.0,0.0,485.0,950.0,0.0,0,305.0,1
1181,1181,0.47679095106465874,0.5,0.0,0.0,400.0,552.0,0.0,1,-762.0,1
1182,1182,0.8640517305009069,0.9,0.0,0.0,317.0,701.0,0.0,1,1132.0,1
1183,1183,0.3640460559099069,0.4,1.0,1.0,496.0,635.0,0.0,0,-851.0,0
1184,1184,-0.028217734434387465,-0.0,1.0,0.0,261.0,540.0,0.0,0,159.0,1
1185,1185,0.31119319667785816,0.3,1.0,1.0,410.0,633.0,0.0,0,-283.0,0
1186,1186,0.49249560015962024,0.5,1.0,1.0,457.0,910.0,0.0,0,-1247.0,0
1187,1187,-0.759836076391949,-0.8,1.0,0.0,387.0,532.0,0.0,0,931.0,1
1188,1188,0.750892568140281,0.8,0.0,0.0,343.0,790.0,0.0,1,-1033.0,1
1189,1189,0.11776548938253872,0.1,1.0,1.0,339.0,978.0,0.0,0,-1307.0,0
1190,1190,0.2956369759883356,0.3,0.0,0.0,439.0,901.0,0.0,1,310.0,1
1191,1191,0.18734556244450962,0.2,1.0,1.0,354.0,728.0,0.0,0,1898.0,0
1192,1192,-0.5583962542841778,-0.6,0.0,1.0,265.0,550.0,0.0,1,1955.0,0
1193,1193,-0.5807792920810804,-0.6,1.0,0.0,481.0,612.0,0.0,0,987.0,1
1194,1194,-0.19244242868099204,-0.2,1.0,0.0,371.0,904.0,0.0,0,1725.0,1
1195,1195,-0.8480214519370324,-0.8,1.0,0.0,460.0,801.0,0.0,0,-891.0,1
1196,1196,-0.35050453006442117,-0.4,0.0,1.0,293.0,860.0,0.0,1,-883.0,0
1197,1197,0.8565114017036971,0.9,1.0,1.0,406.0,850.0,0.0,0,-866.0,0
1198,1198,-0.16884531023820692,-0.2,0.0,1.0,496.0,675.0,0.0,1,-721.0,0
1199,1199,0.382238809113315,0.4,1.0,1.0,392.0,656.0,0.0,0,-408.0,0
1200,1200,-0.8532516978908969,-0.9,0.0,1.0,441.0,578.0,0.0,1,141.0,0
1201,1201,0.8911011393414717,0.9,1.0,1.0,456.0,831.0,0.0,0,1053.0,0
1202,1202,0.550980903035441,0.6,1.0,1.0,340.0,886.0,0.0,0,514.0,0
1203,1203,0.14456607986585246,0.1,1.0,1.0,465.0,539.0,0.0,0,336.0,0
1204,1204,-0.8632646851138542,-0.9,1.0,0.0,455.0,740.0,0.0,0,-365.0,1
1205,1205,-0.17484277592535735,-0.2,1.0,0.0,348.0,522.0,0.0,0,-120.0,1
1206,1206,0.27625979556574787,0.3,0.0,0.0,410.0,536.0,1.0,0,2054.0,0
1207,1207,-0.060158084743720086,-0.1,1.0,0.0,419.0,701.0,0.0,0,1230.0,1
1208,1208,-0.8834774382028379,-0.9,0.0,1.0,304.0,677.0,0.0,1,629.0,0
1209,1209,-0.5161128829036832,-0.5,1.0,0.0,409.0,661.0,0.0,0,750.0,1
1210,1210,0.06017758118530803,0.1,1.0,1.0,367.0,655.0,1.0,1,1978.0,1
1211,1211,0.09274955190812895,0.1,0.0,0.0,339.0,946.0,0.0,1,-105.0,1
1212,1212,0.08485802387209751,0.1,0.0,0.0,305.0,974.0,0.0,1,-109.0,1
1213,1213,0.6561592789052036,0.7,0.0,0.0,447.0,697.0,0.0,1,-254.0,1
1214,1214,0.1409658275178075,0.1,1.0,1.0,384.0,769.0,0.0,0,-693.0,0
1215,1215,0.3318461796998532,0.3,0.0,0.0,284.0,989.0,0.0,1,1347.0,1
1216,1216,0.22239044881163406,0.2,0.0,0.0,396.0,813.0,1.0,0,-949.0,0
1217,1217,0.37880068799444466,0.4,1.0,1.0,344.0,994.0,0.0,0,-208.0,0
1218,1218,0.31239212429660046,0.3,0.0,0.0,488.0,980.0,1.0,0,-1358.0,0
1219,1219,0.17282545570455488,0.2,1.0,1.0,351.0,635.0,0.0,0,-616.0,0
1220,1220,0.8444473721432025,0.8,1.0,1.0,269.0,630.0,0.0,0,2101.0,0
1221,1221,0.16686199596041906,0.2,0.0,0.0,368.0,535.0,0.0,1,1707.0,1
1222,1222,0.5231994711433924,0.5,0.0,0.0,405.0,588.0,0.0,1,1187.0,1
1223,1223,-0.18519324905028056,-0.2,1.0,0.0,459.0,974.0,0.0,0,-583.0,1
1224,1224,0.4446545091305726,0.4,0.0,0.0,340.0,505.0,0.0,1,225.0,1
1225,1225,-0.3434013485303181,-0.3,1.0,0.0,472.0,551.0,0.0,0,1827.0,1
1226,1226,0.5521170979048616,0.6,0.0,0.0,412.0,939.0,0.0,1,-291.0,1
1227,1227,-0.792509263152238,-0.8,1.0,0.0,264.0,738.0,1.0,1,-82.0,0
1228,1228,-0.1824448324906478,-0.2,0.0,1.0,411.0,537.0,0.0,1,742.0,0
1229,1229,0.5270493183618393,0.5,1.0,1.0,252.0,919.0,0.0,0,1829.0,0
1230,1230,-0.25020924173240855,-0.3,1.0,0.0,297.0,551.0,0.0,0,1312.0,1
1231,1231,0.470600317684127,0.5,1.0,1.0,451.0,799.0,0.0,0,310.0,0
1232,1232,-0.4746124075026736,-0.5,1.0,0.0,445.0,679.0,0.0,0,1266.0,1
1233,1233,0.49137546842437285,0.5,1.0,1.0,278.0,741.0,0.0,0,-599.0,0
1234,1234,-0.825809186256503,-0.8,1.0,0.0,430.0,563.0,1.0,1,2007.0,0
1235,1235,-0.08118500876535095,-0.1,0.0,1.0,321.0,778.0,0.0,1,81.0,0
1236,1236,0.46353054527260495,0.5,0.0,0.0,271.0,775.0,0.0,1,434.0,1
1237,1237,0.23832791633994999,0.2,1.0,1.0,304.0,949.0,0.0,0,1747.0,0
1238,1238,-0.13568183517348775,-0.1,0.0,1.0,333.0,752.0,0.0,1,-565.0,0
1239,1239,-0.8876963938155615,-0.9,0.0,1.0,317.0,950.0,0.0,1,463.0,0
1240,1240,-0.7282975465046777,-0.7,0.0,1.0,432.0,818.0,1.0,0,1750.0,1
1241,1241,0.8039463832630694,0.8,1.0,1.0,431.0,538.0,0.0,0,-329.0,0
1242,1242,0.7755294357505985,0.8,1.0,1.0,256.0,577.0,0.0,0,2167.0,0
1243,1243,-0.7040023471780427,-0.7,1.0,0.0,401.0,892.0,0.0,0,-183.0,1
1244,1244,0.6519691583273032,0.7,0.0,0.0,340.0,939.0,1.0,0,961.0,0
1245,1245,-0.7420212617262811,-0.7,1.0,0.0,295.0,942.0,0.0,0,-257.0,1
1246,1246,0.8621332324082508,0.9,1.0,1.0,304.0,593.0,0.0,0,183.0,0
1247,1247,0.8958825292813563,0.9,0.0,0.0,402.0,632.0,0.0,1,1936.0,1
1248,1248,-0.8667227697523618,-0.9,0.0,1.0,345.0,565.0,0.0,1,2090.0,0
1249,1249,0.6940528782237968,0.7,1.0,1.0,277.0,507.0,0.0,0,76.0,0
1250,1250,0.19004801148462291,0.2,0.0,0.0,359.0,762.0,0.0,1,-491.0,1
1251,1251,-0.19258621321337366,-0.2,1.0,0.0,318.0,845.0,0.0,0,1837.0,1
1252,1252,-0.3157517322617013,-0.3,0.0,1.0,430.0,920.0,0.0,1,1350.0,0
1253,1253,-0.3276435029046615,-0.3,1.0,0.0,418.0,807.0,0.0,0,1005.0,1
1254,1254,0.10049189512268775,0.1,1.0,1.0,284.0,783.0,0.0,0,-767.0,0
1255,1255,-0.0130402990687285,-0.0,0.0,1.0,381.0,937.0,0.0,1,1172.0,0
1256,1256,-0.41535876503023583,-0.4,1.0,0.0,497.0,713.0,0.0,0,-90.0,1
1257,1257,0.11603923945657091,0.1,1.0,1.0,445.0,657.0,0.0,0,1898.0,0
1258,1258,-0.7084619699723614,-0.7,1.0,0.0,273.0,825.0,0.0,0,-348.0,1
1259,1259,-0.6017751273999493,-0.6,1.0,0.0,492.0,505.0,0.0,0,-477.0,1
1260,1260,-0.2854147342194302,-0.3,1.0,0.0,437.0,606.0,0.0,0,1027.0,1
1261,1261,-0.41104936041624707,-0.4,0.0,1.0,352.0,753.0,0.0,1,-435.0,0
1262,1262,0.31023779209043945,0.3,1.0,1.0,252.0,800.0,0.0,0,-952.0,0
1263,1263,0.36826000049806173,0.4,1.0,1.0,413.0,948.0,1.0,1,1639.0,1
1264,1264,0.10836315822278675,0.1,1.0,1.0,254.0,550.0,0.0,0,476.0,0
1265,1265,-0.7167125950296827,-0.7,1.0,0.0,383.0,972.0,1.0,1,1645.0,0
1266,1266,0.43221889216084486,0.4,0.0,0.0,308.0,935.0,1.0,0,1757.0,0
1267,1267,-0.8814805205802307,-0.9,1.0,0.0,402.0,785.0,1.0,1,433.0,0
1268,1268,0.6885869034777808,0.7,1.0,1.0,309.0,525.0,1.0,1,2166.0,1
1269,1269,-0.3648608591425493,-0.4,0.0,1.0,387.0,569.0,0.0,1,1054.0,0
1270,1270,0.6441257061695039,0.6,1.0,1.0,418.0,638.0,0.0,0,714.0,0
1271,1271,-0.89617930287034,-0.9,0.0,1.0,440.0,603.0,1.0,0,1957.0,1
1272,1272,-0.15255907446772043,-0.2,0.0,1.0,335.0,639.0,1.0,0,-844.0,1
1273,1273,-0.5162552773681335,-0.5,1.0,0.0,369.0,600.0,0.0,0,1381.0,1
1274,1274,-0.3133176293117983,-0.3,0.0,1.0,283.0,909.0,0.0,1,-662.0,0
1275,1275,-0.8526376039979853,-0.9,0.0,1.0,271.0,952.0,0.0,1,-483.0,0
1276,1276,-0.18838386318263411,-0.2,0.0,1.0,424.0,923.0,0.0,1,1653.0,0
1277,1277,-0.5026978850070625,-0.5,1.0,0.0,444.0,855.0,0.0,0,-439.0,1
1278,1278,-0.5892849688688748,-0.6,0.0,1.0,294.0,982.0,1.0,0,-1136.0,1
1279,1279,-0.6490104646916837,-0.6,0.0,1.0,347.0,970.0,0.0,1,-917.0,0
1280,1280,-0.7721493872486613,-0.8,1.0,0.0,454.0,588.0,0.0,0,-552.0,1
1281,1281,-0.6048760015155128,-0.6,1.0,0.0,397.0,504.0,0.0,0,49.0,1
1282,1282,-0.47821279851231685,-0.5,0.0,1.0,276.0,507.0,0.0,1,1417.0,0
1283,1283,0.15165724352822318,0.2,1.0,1.0,469.0,907.0,0.0,0,-206.0,0
1284,1284,-0.4576937948159443,-0.5,0.0,1.0,460.0,940.0,0.0,1,1600.0,0
1285,1285,0.146527542096328,0.1,0.0,0.0,494.0,657.0,0.0,1,-531.0,1
1286,1286,0.05612805954082589,0.1,1.0,1.0,378.0,941.0,0.0,0,1271.0,0
1287,1287,-0.1301134154164565,-0.1,0.0,1.0,426.0,837.0,0.0,1,1737.0,0
1288,1288,-0.022163441189410937,-0.0,1.0,0.0,359.0,954.0,0.0,0,-1313.0,1
1289,1289,0.48724244058518307,0.5,1.0,1.0,372.0,842.0,1.0,1,1786.0,1
1290,1290,0.43613167218846527,0.4,0.0,0.0,490.0,743.0,0.0,1,-123.0,1
1291,1291,-0.47405042913037093,-0.5,0.0,1.0,363.0,720.0,0.0,1,1917.0,0
1292,1292,0.12994081555388204,0.1,1.0,1.0,329.0,990.0,0.0,0,481.0,0
1293,1293,-0.7771519843727291,-0.8,0.0,1.0,376.0,959.0,1.0,0,-465.0,1
1294,1294,0.16559399843521783,0.2,1.0,1.0,251.0,680.0,0.0,0,-361.0,0
1295,1295,0.4305056481980253,0.4,0.0,0.0,397.0,519.0,0.0,1,534.0,1
1296,1296,0.4421699783473042,0.4,0.0,0.0,318.0,839.0,0.0,1,-877.0,1
1297,1297,0.011952697257483491,0.0,1.0,1.0,366.0,760.0,1.0,1,-736.0,1
1298,1298,-0.48809212154522064,-0.5,1.0,0.0,250.0,544.0,1.0,1,1446.0,0
1299,1299,0.19525909619902537,0.2,0.0,0.0,392.0,788.0,0.0,1,-860.0,1
1300,1300,-0.5322285743560067,-0.5,0.0,1.0,387.0,856.0,0.0,1,-1193.0,0
1301,1301,-0.13651549934780893,-0.1,1.0,0.0,285.0,543.0,1.0,1,-318.0,0
1302,1302,-0.20013063272957832,-0.2,1.0,0.0,258.0,750.0,0.0,0,492.0,1
1303,1303,-0.001598259699831961,-0.0,0.0,1.0,412.0,886.0,0.0,1,-878.0,0
1304,1304,-0.42745871962367127,-0.4,1.0,0.0,364.0,804.0,0.0,0,-888.0,1
1305,1305,0.7575757016420094,0.8,1.0,1.0,307.0,754.0,0.0,0,-361.0,0
1306,1306,-0.14200265344687701,-0.1,0.0,1.0,301.0,775.0,1.0,0,1924.0,1
1307,1307,-0.8807890214641755,-0.9,0.0,1.0,286.0,763.0,0.0,1,-129.0,0
1308,1308,0.8561960839504973,0.9,0.0,0.0,392.0,656.0,0.0,1,262.0,1
1309,1309,-0.5904686335735174,-0.6,0.0,1.0,469.0,596.0,0.0,1,-505.0,0
1310,1310,-0.26756954976276237,-0.3,1.0,0.0,335.0,780.0,0.0,0,245.0,1
1311,1311,-0.6957415461268716,-0.7,0.0,1.0,373.0,591.0,0.0,1,-334.0,0
1312,1312,-0.1482922190067516,-0.1,1.0,0.0,308.0,575.0,0.0,0,7.0,1
1313,1313,-0.5577566564391006,-0.6,1.0,0.0,440.0,526.0,0.0,0,-536.0,1
1314,1314,-0.40884707566545747,-0.4,1.0,0.0,312.0,915.0,0.0,0,1283.0,1
1315,1315,0.6705150359684845,0.7,0.0,0.0,343.0,505.0,0.0,1,152.0,1
1316,1316,-0.2655652657623001,-0.3,0.0,1.0,401.0,761.0,0.0,1,1268.0,0
1317,1317,0.8021199215812805,0.8,1.0,1.0,459.0,716.0,0.0,0,1645.0,0
1318,1318,-0.5467678205452904,-0.5,1.0,0.0,375.0,779.0,0.0,0,1396.0,1
1319,1319,0.40568763200961533,0.4,1.0,1.0,324.0,650.0,0.0,0,2026.0,0
1320,1320,-0.5510178588744816,-0.6,1.0,0.0,394.0,555.0,0.0,0,871.0,1
1321,1321,0.8380810390879928,0.8,1.0,1.0,347.0,670.0,0.0,0,-967.0,0
1322,1322,0.1884947134725582,0.2,1.0,1.0,292.0,959.0,0.0,0,899.0,0
1323,1323,0.855481393385836,0.9,1.0,1.0,489.0,967.0,0.0,0,-116.0,0
1324,1324,-0.5725539715043553,-0.6,1.0,0.0,352.0,856.0,0.0,0,72.0,1
1325,1325,0.3185970324149324,0.3,0.0,0.0,265.0,920.0,1.0,0,285.0,0
1326,1326,0.29993881685473,0.3,1.0,1.0,421.0,675.0,0.0,0,-186.0,0
1327,1327,-0.8510858703478809,-0.9,0.0,1.0,369.0,639.0,0.0,1,-188.0,0
1328,1328,-0.037785527437030786,-0.0,0.0,1.0,394.0,734.0,1.0,0,1872.0,1
1329,1329,0.16389412186694063,0.2,0.0,0.0,496.0,815.0,0.0,1,-671.0,1
1330,1330,0.8870169735867518,0.9,0.0,0.0,460.0,850.0,0.0,1,60.0,1
1331,1331,-0.4227906983261747,-0.4,1.0,0.0,252.0,968.0,0.0,0,1780.0,1
1332,1332,0.6783551860378961,0.7,1.0,1.0,486.0,974.0,0.0,0,-550.0,0
1333,1333,-0.6179181275664825,-0.6,1.0,0.0,479.0,858.0,0.0,0,363.0,1
1334,1334,0.8450856102346062,0.8,1.0,1.0,494.0,611.0,0.0,0,1895.0,0
1335,1335,-0.5100954305394457,-0.5,1.0,0.0,256.0,771.0,1.0,1,1973.0,0
1336,1336,-0.13823683395059672,-0.1,0.0,1.0,496.0,960.0,1.0,0,1544.0,1
1337,1337,0.6472155956669728,0.6,1.0,1.0,251.0,558.0,0.0,0,21.0,0
1338,1338,-0.6690767181887383,-0.7,1.0,0.0,266.0,709.0,0.0,0,-155.0,1
1339,1339,0.8308396119841702,0.8,1.0,1.0,484.0,974.0,0.0,0,-698.0,0
1340,1340,-0.5372475050142003,-0.5,0.0,1.0,443.0,635.0,0.0,1,-428.0,0
1341,1341,0.1128564595147451,0.1,0.0,0.0,408.0,969.0,1.0,0,1623.0,0
1342,1342,0.17288732114461813,0.2,0.0,0.0,399.0,856.0,0.0,1,-1005.0,1
1343,1343,-0.15098717441551734,-0.2,0.0,1.0,421.0,780.0,0.0,1,-771.0,0
1344,1344,0.5214646020691306,0.5,0.0,0.0,321.0,771.0,0.0,1,1648.0,1
1345,1345,-0.06708038251836024,-0.1,1.0,0.0,440.0,568.0,0.0,0,-868.0,1
1346,1346,0.047173436983785844,0.0,0.0,0.0,335.0,985.0,0.0,1,-950.0,1
1347,1347,-0.78003329865552,-0.8,0.0,1.0,341.0,737.0,0.0,1,-1018.0,0
1348,1348,0.6895257186593023,0.7,1.0,1.0,297.0,614.0,0.0,0,2089.0,0
1349,1349,0.11713454085961483,0.1,0.0,0.0,275.0,955.0,0.0,1,-150.0,1
1350,1350,-0.24115570089678673,-0.2,0.0,1.0,262.0,807.0,0.0,1,-189.0,0
1351,1351,-0.38576113969877013,-0.4,1.0,0.0,251.0,835.0,0.0,0,1824.0,1
1352,1352,0.6493623070884943,0.6,1.0,1.0,261.0,518.0,0.0,0,491.0,0
1353,1353,0.5821942817989681,0.6,1.0,1.0,428.0,972.0,1.0,1,1600.0,1
1354,1354,0.7242436571812382,0.7,0.0,0.0,301.0,945.0,1.0,0,1754.0,0
1355,1355,0.20368481689929008,0.2,1.0,1.0,351.0,736.0,1.0,1,1913.0,1
1356,1356,-0.41408310291611894,-0.4,1.0,0.0,340.0,801.0,0.0,0,-851.0,1
1357,1357,0.4093648328741274,0.4,1.0,1.0,324.0,873.0,0.0,0,1503.0,0
1358,1358,0.44398330278215015,0.4,0.0,0.0,379.0,890.0,1.0,0,1731.0,0
1359,1359,-0.6697928183852484,-0.7,0.0,1.0,441.0,917.0,1.0,0,1642.0,1
1360,1360,-0.4079829326240951,-0.4,1.0,0.0,310.0,767.0,0.0,0,-417.0,1
1361,1361,-0.8433803024623064,-0.8,0.0,1.0,359.0,769.0,0.0,1,512.0,0
1362,1362,0.20507403117815592,0.2,0.0,0.0,317.0,841.0,0.0,1,-638.0,1
1363,1363,0.4717703584551459,0.5,1.0,1.0,491.0,518.0,0.0,0,281.0,0
1364,1364,-0.4704750164605264,-0.5,0.0,1.0,277.0,724.0,0.0,1,1999.0,0
1365,1365,-0.6259537743517278,-0.6,0.0,1.0,423.0,629.0,0.0,1,1948.0,0
1366,1366,-0.7164556189349083,-0.7,0.0,1.0,296.0,958.0,1.0,0,1746.0,1
1367,1367,-0.015704143643752833,-0.0,0.0,1.0,316.0,659.0,1.0,0,2025.0,1
1368,1368,0.18074524738599462,0.2,0.0,0.0,409.0,702.0,1.0,0,1889.0,0
1369,1369,-0.3827571138614938,-0.4,1.0,0.0,439.0,525.0,0.0,0,-424.0,1
1370,1370,0.4547007022876407,0.5,1.0,1.0,439.0,856.0,0.0,0,-1205.0,0
1371,1371,0.45538794939406835,0.5,1.0,1.0,440.0,758.0,1.0,1,-238.0,1
1372,1372,-0.8629533837127136,-0.9,1.0,0.0,358.0,744.0,0.0,0,-132.0,1
1373,1373,0.7920829245594069,0.8,0.0,0.0,311.0,561.0,0.0,1,-642.0,1
1374,1374,0.8078760150497007,0.8,1.0,1.0,277.0,766.0,0.0,0,897.0,0
1375,1375,0.8920624398663909,0.9,1.0,1.0,432.0,611.0,0.0,0,-893.0,0
1376,1376,-0.5995464758101203,-0.6,0.0,1.0,490.0,779.0,0.0,1,-349.0,0
1377,1377,-0.5456185556150321,-0.5,0.0,1.0,363.0,766.0,0.0,1,141.0,0
1378,1378,0.7437884325534844,0.7,0.0,0.0,321.0,695.0,1.0,0,1984.0,0
1379,1379,-0.2699876187227638,-0.3,1.0,0.0,419.0,682.0,0.0,0,159.0,1
1380,1380,-0.7745515083201695,-0.8,1.0,0.0,379.0,577.0,0.0,0,224.0,1
1381,1381,-0.14277906555152897,-0.1,0.0,1.0,460.0,915.0,0.0,1,-315.0,0
1382,1382,0.3829754438502221,0.4,0.0,0.0,403.0,517.0,0.0,1,610.0,1
1383,1383,0.666129577525746,0.7,1.0,1.0,328.0,923.0,1.0,1,1749.0,1
1384,1384,0.7759573488311492,0.8,1.0,1.0,333.0,515.0,0.0,0,2152.0,0
1385,1385,0.42438558765224965,0.4,1.0,1.0,493.0,612.0,0.0,0,-535.0,0
1386,1386,0.025968274634962207,0.0,0.0,0.0,423.0,771.0,0.0,1,1806.0,1
1387,1387,-0.42353598769328005,-0.4,1.0,0.0,381.0,650.0,0.0,0,749.0,1
1388,1388,-0.8911503051974403,-0.9,0.0,1.0,405.0,781.0,1.0,0,-1016.0,1
1389,1389,0.0016037320229779217,0.0,0.0,0.0,495.0,646.0,0.0,1,1319.0,1
1390,1390,0.5178076288170071,0.5,0.0,0.0,400.0,976.0,0.0,1,-626.0,1
1391,1391,-0.6392178319575706,-0.6,0.0,1.0,342.0,625.0,1.0,0,2033.0,1
1392,1392,0.4182108117232929,0.4,0.0,0.0,466.0,845.0,0.0,1,-691.0,1
1393,1393,-0.7090937594539095,-0.7,0.0,1.0,326.0,620.0,0.0,1,404.0,0
1394,1394,-0.021897159647096154,-0.0,1.0,0.0,258.0,994.0,0.0,0,-1132.0,1
1395,1395,-0.23117289091464033,-0.2,0.0,1.0,410.0,664.0,1.0,0,-434.0,1
1396,1396,-0.7958940946138396,-0.8,1.0,0.0,467.0,583.0,0.0,0,1680.0,1
1397,1397,-0.4689674430096142,-0.5,0.0,1.0,432.0,589.0,0.0,1,-761.0,0
1398,1398,-0.11259816827137903,-0.1,0.0,1.0,428.0,741.0,0.0,1,-79.0,0
1399,1399,-0.6513488666604631,-0.7,0.0,1.0,454.0,675.0,0.0,1,-369.0,0
1400,1400,0.5954520312146857,0.6,1.0,1.0,445.0,750.0,0.0,0,125.0,0
1401,1401,0.7136878820967311,0.7,0.0,0.0,377.0,517.0,1.0,0,-304.0,0
1402,1402,-0.2526453274255833,-0.3,0.0,1.0,417.0,688.0,0.0,1,105.0,0
1403,1403,0.6505689199215435,0.7,1.0,1.0,317.0,797.0,0.0,0,1586.0,0
1404,1404,-0.24714864524212954,-0.2,1.0,0.0,275.0,767.0,0.0,0,-632.0,1
1405,1405,0.6326249372766543,0.6,1.0,1.0,268.0,816.0,0.0,0,-524.0,0
1406,1406,-0.5208695989302294,-0.5,0.0,1.0,393.0,612.0,1.0,0,-925.0,1
1407,1407,-0.705677949360523,-0.7,1.0,0.0,324.0,509.0,0.0,0,797.0,1
1408,1408,-0.2047063953783972,-0.2,0.0,1.0,412.0,762.0,0.0,1,-1144.0,0
1409,1409,0.34085456908067935,0.3,0.0,0.0,335.0,810.0,0.0,1,-105.0,1
1410,1410,0.030355438676608282,0.0,0.0,0.0,279.0,683.0,0.0,1,758.0,1
1411,1411,0.7712531519639177,0.8,1.0,1.0,464.0,577.0,0.0,0,359.0,0
1412,1412,0.3243514808759066,0.3,1.0,1.0,470.0,512.0,0.0,0,-642.0,0
1413,1413,-0.8658606866457027,-0.9,0.0,1.0,454.0,692.0,1.0,0,-436.0,1
1414,1414,0.7512399696381006,0.8,0.0,0.0,386.0,782.0,0.0,1,1402.0,1
1415,1415,0.07917977663689857,0.1,1.0,1.0,440.0,644.0,0.0,0,236.0,0
1416,1416,0.8524449218939864,0.9,0.0,0.0,450.0,777.0,0.0,1,353.0,1
1417,1417,-0.24854461550972917,-0.2,0.0,1.0,457.0,522.0,0.0,1,-219.0,0
1418,1418,0.6776624591883421,0.7,1.0,1.0,396.0,552.0,0.0,0,272.0,0
1419,1419,-0.7701885223272373,-0.8,1.0,0.0,278.0,965.0,1.0,1,177.0,0
1420,1420,0.6162163097485235,0.6,0.0,0.0,303.0,940.0,1.0,0,1757.0,0
1421,1421,-0.27779011932550435,-0.3,0.0,1.0,401.0,619.0,0.0,1,1520.0,0
1422,1422,0.03600834578169321,0.0,1.0,1.0,436.0,787.0,0.0,0,687.0,0
1423,1423,-0.8305641497021404,-0.8,1.0,0.0,347.0,953.0,1.0,1,1700.0,0
1424,1424,0.6302218893505952,0.6,1.0,1.0,268.0,735.0,0.0,0,-513.0,0
1425,1425,-0.09651168591907233,-0.1,0.0,1.0,414.0,882.0,1.0,0,1704.0,1
1426,1426,-0.5593795242524902,-0.6,0.0,1.0,469.0,563.0,1.0,0,1588.0,1
1427,1427,0.7793606847558036,0.8,1.0,1.0,453.0,500.0,0.0,0,-693.0,0
1428,1428,0.8720870439369103,0.9,1.0,1.0,435.0,961.0,0.0,0,384.0,0
1429,1429,-0.2966678545093082,-0.3,1.0,0.0,386.0,695.0,1.0,1,1919.0,0
1430,1430,0.05151741501448692,0.1,1.0,1.0,307.0,791.0,0.0,0,-388.0,0
1431,1431,-0.871462457882519,-0.9,0.0,1.0,449.0,504.0,0.0,1,967.0,0
1432,1432,-0.08878859916657333,-0.1,0.0,1.0,416.0,944.0,0.0,1,370.0,0
1433,1433,-0.540400028894765,-0.5,0.0,1.0,413.0,648.0,0.0,1,-581.0,0
1434,1434,0.1906751930212608,0.2,0.0,0.0,291.0,895.0,0.0,1,-676.0,1
1435,1435,-0.48224442383631966,-0.5,1.0,0.0,359.0,935.0,1.0,1,136.0,0
1436,1436,0.28162210669314824,0.3,1.0,1.0,494.0,828.0,0.0,0,8.0,0
1437,1437,-0.515610309544231,-0.5,0.0,1.0,360.0,958.0,0.0,1,-448.0,0
1438,1438,0.08613081158499236,0.1,1.0,1.0,285.0,743.0,0.0,0,232.0,0
1439,1439,0.5985359568273406,0.6,1.0,1.0,325.0,785.0,0.0,0,500.0,0
1440,1440,-0.43491837014391743,-0.4,0.0,1.0,479.0,932.0,0.0,1,-1061.0,0
1441,1441,0.8035537012088868,0.8,0.0,0.0,371.0,617.0,1.0,0,1712.0,0
1442,1442,-0.19413771930901524,-0.2,1.0,0.0,430.0,584.0,0.0,0,316.0,1
1443,1443,0.4793397740210005,0.5,1.0,1.0,283.0,713.0,0.0,0,1004.0,0
1444,1444,-0.27729442706624907,-0.3,1.0,0.0,493.0,518.0,0.0,0,1989.0,1
1445,1445,0.5353921604201667,0.5,0.0,0.0,491.0,709.0,0.0,1,1800.0,1
1446,1446,-0.3855707043831116,-0.4,1.0,0.0,321.0,843.0,0.0,0,-614.0,1
1447,1447,-0.5503368921375904,-0.6,0.0,1.0,427.0,867.0,0.0,1,1406.0,0
1448,1448,0.28068520644952255,0.3,1.0,1.0,461.0,767.0,0.0,0,362.0,0
1449,1449,-0.22290379067535548,-0.2,0.0,1.0,299.0,964.0,0.0,1,-493.0,0
1450,1450,0.6297245001644342,0.6,0.0,0.0,453.0,573.0,0.0,1,1974.0,1
1451,1451,0.3294272807661244,0.3,1.0,1.0,403.0,866.0,0.0,0,861.0,0
1452,1452,0.2250748695811734,0.2,1.0,1.0,286.0,981.0,0.0,0,1223.0,0
1453,1453,0.4732189566812709,0.5,1.0,1.0,382.0,904.0,0.0,0,44.0,0
1454,1454,0.644719083330115,0.6,0.0,0.0,432.0,721.0,0.0,1,1847.0,1
1455,1455,0.7795896434524231,0.8,1.0,1.0,340.0,631.0,0.0,0,-491.0,0
1456,1456,0.03873669603676022,0.0,0.0,0.0,388.0,735.0,1.0,0,1877.0,0
1457,1457,-0.343926804021394,-0.3,0.0,1.0,402.0,931.0,0.0,1,257.0,0
1458,1458,-0.13382923639808497,-0.1,1.0,0.0,307.0,609.0,0.0,0,-396.0,1
1459,1459,-0.6754879291923956,-0.7,0.0,1.0,468.0,801.0,1.0,0,1731.0,1
1460,1460,-0.523458388739477,-0.5,1.0,0.0,367.0,774.0,0.0,0,1529.0,1
1461,1461,-0.7648161331985502,-0.8,0.0,1.0,390.0,610.0,1.0,0,-890.0,1
1462,1462,-0.8290806272320396,-0.8,1.0,0.0,426.0,817.0,1.0,1,-913.0,0
1463,1463,0.35721996160160974,0.4,1.0,1.0,364.0,938.0,0.0,0,1398.0,0
1464,1464,-0.02552961862160552,-0.0,0.0,1.0,491.0,884.0,0.0,1,-1335.0,0
1465,1465,0.6978056837549241,0.7,1.0,1.0,317.0,971.0,1.0,1,1712.0,1
1466,1466,-0.5167410329555101,-0.5,0.0,1.0,467.0,925.0,0.0,1,88.0,0
1467,1467,-0.31373479658851733,-0.3,1.0,0.0,280.0,534.0,0.0,0,856.0,1
1468,1468,0.3165253704645862,0.3,1.0,1.0,392.0,983.0,0.0,0,55.0,0
1469,1469,0.433594524486843,0.4,1.0,1.0,270.0,770.0,0.0,0,-220.0,0
1470,1470,0.8736491573845949,0.9,0.0,0.0,368.0,981.0,0.0,1,-919.0,1
1471,1471,-0.8182809257067709,-0.8,1.0,0.0,367.0,717.0,0.0,0,-154.0,1
1472,1472,-0.21575564144528547,-0.2,1.0,0.0,343.0,719.0,0.0,0,-842.0,1
1473,1473,0.3117913603037986,0.3,0.0,0.0,373.0,907.0,1.0,0,50.0,0
1474,1474,0.2383605705060955,0.2,0.0,0.0,367.0,922.0,0.0,1,-339.0,1
1475,1475,0.22346603785883767,0.2,0.0,0.0,479.0,717.0,0.0,1,-1186.0,1
