,trial,coherence,coherence_bin,green_side,correct_side,target_onset,checker_onset,decision,green_decision,decision_time,correct_decision
0,0,0.008643286007142259,0.0,0.0,0.0,301.0,632.0,1.0,0,4067.0,0
1,1,-0.36953184336103617,-0.4,0.0,1.0,484.0,624.0,1.0,0,122.0,1
2,2,0.4543398278463605,0.5,0.0,0.0,377.0,828.0,0.0,1,155.0,1
3,3,-0.3498317927209603,-0.3,1.0,0.0,405.0,974.0,0.0,0,251.0,1
4,4,0.028558276798459348,0.0,1.0,1.0,296.0,800.0,1.0,1,484.0,1
5,5,-0.566757227668903,-0.6,0.0,1.0,454.0,532.0,1.0,0,344.0,1
6,6,0.15851039421177882,0.2,1.0,1.0,314.0,561.0,1.0,1,365.0,1
7,7,0.7216789402056388,0.7,0.0,0.0,326.0,621.0,0.0,1,153.0,1
8,8,0.8951327839564017,0.9,0.0,0.0,431.0,694.0,0.0,1,135.0,1
9,9,-0.031013729071121765,-0.0,0.0,1.0,438.0,911.0,1.0,0,961.0,1
10,10,-0.13943765668838093,-0.1,1.0,0.0,301.0,837.0,0.0,0,372.0,1
11,11,0.14654099991897562,0.1,1.0,1.0,441.0,749.0,1.0,1,280.0,1
12,12,0.655537812700126,0.7,1.0,1.0,478.0,968.0,1.0,1,24.0,1
13,13,0.13408700746731939,0.1,1.0,1.0,330.0,695.0,1.0,1,495.0,1
14,14,-0.43716330275556764,-0.4,0.0,1.0,297.0,696.0,1.0,0,197.0,1
15,15,0.19684054090670233,0.2,0.0,0.0,333.0,748.0,0.0,1,279.0,1
16,16,0.2952051405196793,0.3,0.0,0.0,376.0,721.0,0.0,1,203.0,1
17,17,0.03236167399274237,0.0,0.0,0.0,252.0,814.0,0.0,1,3934.0,1
18,18,0.6981729499027637,0.7,1.0,1.0,432.0,565.0,1.0,1,163.0,1
19,19,-0.3962371176433256,-0.4,0.0,1.0,400.0,529.0,1.0,0,411.0,1
20,20,0.2008748913969004,0.2,0.0,0.0,447.0,593.0,0.0,1,400.0,1
21,21,0.48367449475867097,0.5,0.0,0.0,441.0,647.0,0.0,1,282.0,1
22,22,-0.3534829682292352,-0.4,0.0,1.0,267.0,768.0,1.0,0,195.0,1
23,23,-0.09641995593849473,-0.1,1.0,0.0,422.0,981.0,0.0,0,1337.0,1
24,24,0.8265606269505169,0.8,0.0,0.0,453.0,708.0,0.0,1,119.0,1
25,25,-0.18257250970948646,-0.2,1.0,0.0,454.0,783.0,0.0,0,413.0,1
26,26,0.7460525874996161,0.7,1.0,1.0,360.0,733.0,1.0,1,147.0,1
27,27,-0.4839468214738277,-0.5,1.0,0.0,258.0,697.0,0.0,0,285.0,1
28,28,-0.10473542975319394,-0.1,0.0,1.0,332.0,862.0,1.0,0,426.0,1
29,29,0.4503831897281728,0.5,0.0,0.0,422.0,588.0,0.0,1,260.0,1
30,30,-0.26206307069823465,-0.3,0.0,1.0,357.0,689.0,1.0,0,354.0,1
31,31,-0.8256429690556386,-0.8,0.0,1.0,376.0,975.0,1.0,0,149.0,1
32,32,-0.8792969277071072,-0.9,0.0,1.0,456.0,813.0,1.0,0,231.0,1
33,33,0.7840583626947383,0.8,1.0,1.0,488.0,615.0,1.0,1,137.0,1
34,34,-0.11817909735995469,-0.1,0.0,1.0,258.0,974.0,1.0,0,288.0,1
35,35,-0.17036719176936077,-0.2,1.0,0.0,389.0,508.0,0.0,0,533.0,1
36,36,0.4850392333922683,0.5,0.0,0.0,293.0,738.0,0.0,1,249.0,1
37,37,-0.5221420122984363,-0.5,0.0,1.0,285.0,633.0,1.0,0,162.0,1
38,38,-0.6135684681480705,-0.6,1.0,0.0,426.0,780.0,0.0,0,194.0,1
39,39,-0.2391299342223393,-0.2,0.0,1.0,335.0,585.0,1.0,0,340.0,1
40,40,0.4013224041858413,0.4,0.0,0.0,324.0,748.0,0.0,1,168.0,1
41,41,0.8670656639669229,0.9,1.0,1.0,395.0,533.0,1.0,1,162.0,1
42,42,0.5491683966453836,0.5,1.0,1.0,445.0,936.0,1.0,1,99.0,1
43,43,0.4699017694723081,0.5,1.0,1.0,420.0,762.0,1.0,1,178.0,1
44,44,-0.42629830744254144,-0.4,0.0,1.0,340.0,572.0,1.0,0,378.0,1
45,45,0.5863074230159867,0.6,1.0,1.0,441.0,559.0,1.0,1,170.0,1
46,46,0.2683436317611655,0.3,1.0,1.0,344.0,929.0,1.0,1,227.0,1
47,47,-0.5238815892539794,-0.5,1.0,0.0,341.0,904.0,0.0,0,175.0,1
48,48,-0.6768928147730698,-0.7,0.0,1.0,324.0,508.0,1.0,0,208.0,1
49,49,-0.6030911323821015,-0.6,0.0,1.0,296.0,503.0,1.0,0,331.0,1
50,50,0.8526244304738627,0.9,0.0,0.0,472.0,682.0,0.0,1,166.0,1
51,51,-0.4220936325154912,-0.4,0.0,1.0,286.0,782.0,1.0,0,172.0,1
52,52,0.11237134356173073,0.1,0.0,0.0,361.0,925.0,0.0,1,394.0,1
53,53,0.8226369543792312,0.8,1.0,1.0,368.0,644.0,1.0,1,168.0,1
54,54,-0.5700814081970139,-0.6,1.0,0.0,444.0,541.0,0.0,0,195.0,1
55,55,-0.8772488511531148,-0.9,0.0,1.0,352.0,578.0,1.0,0,180.0,1
56,56,-0.5689498396309896,-0.6,1.0,0.0,323.0,532.0,0.0,0,285.0,1
57,57,0.649781403960224,0.6,0.0,0.0,494.0,828.0,0.0,1,128.0,1
58,58,0.3634496266515136,0.4,0.0,0.0,474.0,774.0,0.0,1,172.0,1
59,59,-0.05580758733766422,-0.1,0.0,1.0,455.0,710.0,1.0,0,1225.0,1
60,60,-0.04341626043500579,-0.0,0.0,1.0,455.0,970.0,1.0,0,705.0,1
61,61,-0.47335996218708015,-0.5,1.0,0.0,422.0,670.0,0.0,0,378.0,1
62,62,-0.27656221857956587,-0.3,1.0,0.0,451.0,721.0,0.0,0,648.0,1
63,63,-0.5747919111175981,-0.6,0.0,1.0,436.0,581.0,1.0,0,193.0,1
64,64,0.32739815909701175,0.3,0.0,0.0,298.0,944.0,0.0,1,248.0,1
65,65,0.6930705370306262,0.7,1.0,1.0,362.0,714.0,1.0,1,144.0,1
66,66,0.40443530364445,0.4,1.0,1.0,435.0,539.0,1.0,1,226.0,1
67,67,-0.002889495736615344,-0.0,0.0,1.0,303.0,615.0,1.0,0,4082.0,1
68,68,0.4177058318825674,0.4,0.0,0.0,286.0,515.0,0.0,1,269.0,1
69,69,-0.7332794758346554,-0.7,0.0,1.0,411.0,618.0,1.0,0,161.0,1
70,70,-0.42347152733376914,-0.4,1.0,0.0,496.0,720.0,0.0,0,374.0,1
71,71,0.16028411898846728,0.2,1.0,1.0,429.0,953.0,1.0,1,258.0,1
72,72,-0.12734811214966213,-0.1,1.0,0.0,293.0,640.0,0.0,0,987.0,1
73,73,0.49063259595522035,0.5,0.0,0.0,455.0,519.0,0.0,1,276.0,1
74,74,0.20242756523684358,0.2,0.0,0.0,443.0,996.0,0.0,1,361.0,1
75,75,-0.5697537111059413,-0.6,0.0,1.0,314.0,718.0,1.0,0,118.0,1
76,76,-0.791097111816064,-0.8,1.0,0.0,301.0,660.0,0.0,0,219.0,1
77,77,-0.21274606693747367,-0.2,1.0,0.0,303.0,594.0,0.0,0,443.0,1
78,78,0.32231276795164854,0.3,0.0,0.0,362.0,846.0,0.0,1,282.0,1
79,79,-0.15279733358251224,-0.2,0.0,1.0,477.0,827.0,1.0,0,666.0,1
80,80,-0.898559924479736,-0.9,0.0,1.0,354.0,872.0,1.0,0,104.0,1
81,81,0.13020508945096443,0.1,0.0,0.0,289.0,740.0,0.0,1,771.0,1
82,82,-0.7808379147941802,-0.8,0.0,1.0,289.0,985.0,1.0,0,126.0,1
83,83,0.3009300885496081,0.3,0.0,0.0,262.0,596.0,0.0,1,302.0,1
84,84,0.8243778798221414,0.8,1.0,1.0,450.0,902.0,1.0,1,128.0,1
85,85,-0.837521709711948,-0.8,0.0,1.0,265.0,687.0,1.0,0,148.0,1
86,86,-0.0783406931728452,-0.1,0.0,1.0,401.0,642.0,1.0,0,927.0,1
87,87,0.6287374295989622,0.6,0.0,0.0,286.0,739.0,0.0,1,135.0,1
88,88,-0.7302279766885184,-0.7,0.0,1.0,265.0,871.0,1.0,0,144.0,1
89,89,0.05790060980163825,0.1,0.0,0.0,303.0,976.0,0.0,1,941.0,1
90,90,-0.847461706908856,-0.8,1.0,0.0,327.0,607.0,0.0,0,186.0,1
91,91,0.5751520830791218,0.6,1.0,1.0,402.0,543.0,1.0,1,205.0,1
92,92,0.3289310625735976,0.3,1.0,1.0,422.0,843.0,1.0,1,165.0,1
93,93,-0.6574234418204732,-0.7,0.0,1.0,472.0,790.0,1.0,0,138.0,1
94,94,0.8958289656324213,0.9,0.0,0.0,288.0,746.0,0.0,1,96.0,1
95,95,-0.09037459522063174,-0.1,1.0,0.0,424.0,954.0,0.0,0,2422.0,1
96,96,-0.417917394290345,-0.4,1.0,0.0,391.0,716.0,0.0,0,503.0,1
97,97,0.31814289414820107,0.3,0.0,0.0,397.0,512.0,0.0,1,211.0,1
98,98,0.776951488659236,0.8,0.0,0.0,389.0,537.0,0.0,1,134.0,1
99,99,0.16803425120936477,0.2,0.0,0.0,406.0,837.0,0.0,1,407.0,1
100,100,0.8012798995488987,0.8,0.0,0.0,259.0,981.0,0.0,1,140.0,1
101,101,-0.6127205035470396,-0.6,0.0,1.0,311.0,726.0,1.0,0,183.0,1
102,102,-0.3840392612098239,-0.4,1.0,0.0,425.0,966.0,0.0,0,209.0,1
103,103,0.14637344402283958,0.1,1.0,1.0,358.0,934.0,1.0,1,268.0,1
104,104,-0.45916558357167947,-0.5,1.0,0.0,486.0,639.0,0.0,0,315.0,1
105,105,-0.14681997468438646,-0.1,0.0,1.0,435.0,830.0,1.0,0,105.0,1
106,106,-0.5968518516471821,-0.6,0.0,1.0,280.0,739.0,1.0,0,131.0,1
107,107,0.7455593830871,0.7,0.0,0.0,463.0,516.0,0.0,1,131.0,1
108,108,0.702962023999483,0.7,1.0,1.0,489.0,918.0,1.0,1,83.0,1
109,109,-0.14035813187773238,-0.1,0.0,1.0,394.0,769.0,1.0,0,637.0,1
110,110,-0.43627625321929675,-0.4,1.0,0.0,378.0,952.0,0.0,0,230.0,1
111,111,0.48966303365661756,0.5,1.0,1.0,257.0,623.0,1.0,1,240.0,1
112,112,-0.6682765856811546,-0.7,1.0,0.0,372.0,961.0,0.0,0,147.0,1
113,113,-0.6730878739369787,-0.7,1.0,0.0,360.0,822.0,0.0,0,298.0,1
114,114,0.6295674533556123,0.6,1.0,1.0,334.0,766.0,1.0,1,110.0,1
115,115,-0.2704497402153728,-0.3,1.0,0.0,338.0,809.0,0.0,0,453.0,1
116,116,-0.3946538928892974,-0.4,1.0,0.0,494.0,852.0,0.0,0,154.0,1
117,117,-0.5988611589573292,-0.6,0.0,1.0,452.0,993.0,1.0,0,215.0,1
118,118,-0.4181154318886828,-0.4,0.0,1.0,441.0,858.0,1.0,0,421.0,1
119,119,-0.6724875514615627,-0.7,0.0,1.0,305.0,678.0,1.0,0,147.0,1
120,120,0.802238000614932,0.8,0.0,0.0,499.0,811.0,0.0,1,130.0,1
121,121,0.7962970624686007,0.8,0.0,0.0,363.0,931.0,0.0,1,126.0,1
122,122,-0.08449840192437263,-0.1,0.0,1.0,446.0,875.0,1.0,0,519.0,1
123,123,-0.24972599441486976,-0.2,0.0,1.0,473.0,966.0,1.0,0,281.0,1
124,124,-0.7256723533835426,-0.7,0.0,1.0,476.0,529.0,1.0,0,255.0,1
125,125,0.7943931666599967,0.8,1.0,1.0,357.0,693.0,1.0,1,140.0,1
126,126,0.4447860749522973,0.4,1.0,1.0,365.0,933.0,1.0,1,172.0,1
127,127,0.18884613895510605,0.2,0.0,0.0,310.0,535.0,0.0,1,425.0,1
128,128,0.6119955254059514,0.6,1.0,1.0,299.0,927.0,1.0,1,144.0,1
129,129,0.03308800242984311,0.0,0.0,0.0,280.0,541.0,0.0,1,4179.0,1
130,130,0.22672555911750114,0.2,1.0,1.0,493.0,582.0,1.0,1,215.0,1
131,131,-0.7053763361864687,-0.7,1.0,0.0,354.0,954.0,0.0,0,152.0,1
132,132,0.29064098196391164,0.3,0.0,0.0,416.0,808.0,0.0,1,466.0,1
133,133,-0.8036088029411987,-0.8,0.0,1.0,437.0,946.0,1.0,0,137.0,1
134,134,-0.6670675074904621,-0.7,1.0,0.0,400.0,582.0,0.0,0,378.0,1
135,135,-0.8247669455183216,-0.8,0.0,1.0,355.0,852.0,1.0,0,133.0,1
136,136,0.49183331492090343,0.5,0.0,0.0,298.0,589.0,0.0,1,233.0,1
137,137,0.838660896133809,0.8,1.0,1.0,361.0,837.0,1.0,1,142.0,1
138,138,0.4461032381516069,0.4,0.0,0.0,425.0,757.0,0.0,1,168.0,1
139,139,-0.469480432048638,-0.5,0.0,1.0,410.0,535.0,1.0,0,365.0,1
140,140,0.8690562011785686,0.9,1.0,1.0,366.0,658.0,1.0,1,126.0,1
141,141,0.430933015744828,0.4,0.0,0.0,424.0,659.0,0.0,1,257.0,1
142,142,0.811903125646788,0.8,0.0,0.0,473.0,871.0,0.0,1,166.0,1
143,143,0.6902861137990072,0.7,1.0,1.0,313.0,791.0,1.0,1,116.0,1
144,144,-0.14588356992255747,-0.1,0.0,1.0,370.0,802.0,1.0,0,448.0,1
145,145,-0.2726637556323013,-0.3,0.0,1.0,491.0,525.0,1.0,0,594.0,1
146,146,0.7543010577227355,0.8,1.0,1.0,442.0,786.0,1.0,1,132.0,1
147,147,-0.38756471741570586,-0.4,0.0,1.0,438.0,737.0,1.0,0,375.0,1
148,148,0.4052023967815884,0.4,1.0,1.0,261.0,815.0,1.0,1,204.0,1
149,149,-0.32938973754694734,-0.3,1.0,0.0,374.0,947.0,0.0,0,329.0,1
150,150,-0.33584184404311457,-0.3,1.0,0.0,320.0,752.0,0.0,0,428.0,1
151,151,0.8758881486977818,0.9,1.0,1.0,402.0,614.0,1.0,1,154.0,1
152,152,-0.3557449404537103,-0.4,0.0,1.0,338.0,578.0,1.0,0,304.0,1
153,153,0.21464880706842548,0.2,0.0,0.0,329.0,768.0,0.0,1,293.0,1
154,154,-0.7057015859447766,-0.7,0.0,1.0,339.0,572.0,1.0,0,179.0,1
155,155,-0.018244623569024454,-0.0,0.0,1.0,335.0,557.0,1.0,0,788.0,1
156,156,-0.6500684317330274,-0.7,1.0,0.0,487.0,708.0,0.0,0,175.0,1
157,157,-0.25461180948343387,-0.3,1.0,0.0,425.0,964.0,0.0,0,601.0,1
158,158,0.6196629689651606,0.6,1.0,1.0,422.0,557.0,1.0,1,191.0,1
159,159,0.47454384992445997,0.5,1.0,1.0,486.0,770.0,1.0,1,194.0,1
160,160,-0.7667973207961799,-0.8,0.0,1.0,311.0,573.0,1.0,0,156.0,1
161,161,-0.4876052005544614,-0.5,1.0,0.0,382.0,733.0,0.0,0,225.0,1
162,162,0.46750013959732406,0.5,0.0,0.0,307.0,828.0,0.0,1,175.0,1
163,163,0.8137457471328217,0.8,1.0,1.0,327.0,648.0,1.0,1,115.0,1
164,164,-0.6332403496726451,-0.6,1.0,0.0,494.0,733.0,0.0,0,213.0,1
165,165,-0.7791212463243484,-0.8,0.0,1.0,264.0,501.0,1.0,0,155.0,1
166,166,0.8329059986097923,0.8,1.0,1.0,395.0,886.0,1.0,1,99.0,1
167,167,0.5746281324353887,0.6,0.0,0.0,399.0,754.0,0.0,1,217.0,1
168,168,0.48688113633316366,0.5,1.0,1.0,373.0,911.0,1.0,1,196.0,1
169,169,-0.21058489732431374,-0.2,1.0,0.0,416.0,831.0,0.0,0,373.0,1
170,170,-0.14346116872343317,-0.1,0.0,1.0,479.0,584.0,1.0,0,327.0,1
171,171,0.538068000620317,0.5,1.0,1.0,398.0,949.0,1.0,1,143.0,1
172,172,0.6156217573953359,0.6,0.0,0.0,406.0,672.0,0.0,1,222.0,1
173,173,-0.15379505847194241,-0.2,1.0,0.0,287.0,898.0,0.0,0,625.0,1
174,174,0.3624051060656851,0.4,1.0,1.0,299.0,705.0,1.0,1,146.0,1
175,175,-0.43883253811703593,-0.4,0.0,1.0,368.0,537.0,1.0,0,265.0,1
176,176,-0.3807440626753067,-0.4,1.0,0.0,345.0,609.0,0.0,0,356.0,1
177,177,0.6715941865138294,0.7,1.0,1.0,280.0,656.0,1.0,1,194.0,1
178,178,-0.05523203283257416,-0.1,0.0,1.0,320.0,994.0,1.0,0,1216.0,1
179,179,-0.19661928361920644,-0.2,0.0,1.0,332.0,627.0,1.0,0,251.0,1
180,180,-0.4280061408494841,-0.4,1.0,0.0,340.0,533.0,0.0,0,447.0,1
181,181,-0.38958095148471106,-0.4,0.0,1.0,358.0,563.0,1.0,0,359.0,1
182,182,0.4980474008652621,0.5,1.0,1.0,363.0,546.0,1.0,1,261.0,1
183,183,0.2789482251251435,0.3,1.0,1.0,296.0,888.0,1.0,1,246.0,1
184,184,0.8102708901820598,0.8,0.0,0.0,325.0,917.0,0.0,1,118.0,1
185,185,0.49807344272751586,0.5,0.0,0.0,392.0,665.0,0.0,1,103.0,1
186,186,-0.7142243327969627,-0.7,0.0,1.0,489.0,784.0,1.0,0,107.0,1
187,187,-0.3858438244497121,-0.4,0.0,1.0,494.0,684.0,1.0,0,222.0,1
188,188,0.434742292304131,0.4,0.0,0.0,275.0,596.0,0.0,1,299.0,1
189,189,0.5595854124361551,0.6,0.0,0.0,491.0,574.0,0.0,1,115.0,1
190,190,0.2530712826889566,0.3,0.0,0.0,270.0,825.0,0.0,1,165.0,1
191,191,-0.8106192754558309,-0.8,0.0,1.0,282.0,928.0,1.0,0,170.0,1
192,192,0.12373709886505802,0.1,1.0,1.0,495.0,800.0,1.0,1,735.0,1
193,193,-0.2076776941345141,-0.2,1.0,0.0,317.0,579.0,0.0,0,574.0,1
194,194,0.008752411248908465,0.0,0.0,0.0,351.0,711.0,0.0,1,3938.0,1
195,195,-0.40510268927890997,-0.4,1.0,0.0,377.0,513.0,0.0,0,560.0,1
196,196,0.30107619323849943,0.3,0.0,0.0,476.0,543.0,0.0,1,451.0,1
197,197,0.05445913777325828,0.1,0.0,0.0,353.0,739.0,0.0,1,608.0,1
198,198,0.5532157175084848,0.6,1.0,1.0,287.0,975.0,1.0,1,148.0,1
199,199,0.8520501692956232,0.9,1.0,1.0,285.0,891.0,1.0,1,164.0,1
200,200,-0.14704758856296662,-0.1,0.0,1.0,433.0,926.0,1.0,0,601.0,1
201,201,-0.22842609363248945,-0.2,1.0,0.0,489.0,794.0,0.0,0,497.0,1
202,202,-0.3260649797570587,-0.3,1.0,0.0,296.0,706.0,0.0,0,428.0,1
203,203,-0.4973147094300955,-0.5,0.0,1.0,433.0,725.0,1.0,0,212.0,1
204,204,-0.5035872642529582,-0.5,0.0,1.0,392.0,645.0,1.0,0,223.0,1
205,205,-0.4176428663441551,-0.4,1.0,0.0,328.0,703.0,0.0,0,419.0,1
206,206,0.06555454085989065,0.1,0.0,0.0,326.0,562.0,0.0,1,462.0,1
207,207,-0.5131024598176792,-0.5,1.0,0.0,487.0,946.0,0.0,0,187.0,1
208,208,-0.3840799107907138,-0.4,0.0,1.0,418.0,741.0,1.0,0,401.0,1
209,209,-0.04662596866478663,-0.0,0.0,1.0,452.0,846.0,1.0,0,1452.0,1
210,210,0.16683793538751168,0.2,0.0,0.0,458.0,806.0,0.0,1,306.0,1
211,211,-0.06758966684169898,-0.1,0.0,1.0,471.0,913.0,1.0,0,1416.0,1
212,212,0.3163740877921949,0.3,1.0,1.0,459.0,838.0,1.0,1,343.0,1
213,213,0.2323042847433704,0.2,0.0,0.0,382.0,692.0,0.0,1,346.0,1
214,214,-0.6421914278085166,-0.6,1.0,0.0,476.0,659.0,0.0,0,205.0,1
215,215,0.7310560695981291,0.7,0.0,0.0,342.0,991.0,0.0,1,117.0,1
216,216,0.7265358754423502,0.7,0.0,0.0,314.0,622.0,0.0,1,184.0,1
217,217,0.547313185804215,0.5,0.0,0.0,307.0,939.0,0.0,1,164.0,1
218,218,-0.441124297487338,-0.4,0.0,1.0,389.0,565.0,1.0,0,146.0,1
219,219,-0.8294121281990002,-0.8,0.0,1.0,380.0,738.0,1.0,0,122.0,1
220,220,0.6826631523830332,0.7,1.0,1.0,440.0,544.0,1.0,1,176.0,1
221,221,0.06325834044146339,0.1,0.0,0.0,384.0,877.0,0.0,1,1709.0,1
222,222,0.04319302281803561,0.0,1.0,1.0,270.0,889.0,1.0,1,421.0,1
223,223,-0.4933817229926242,-0.5,0.0,1.0,335.0,733.0,1.0,0,192.0,1
224,224,0.24873804338159833,0.2,0.0,0.0,375.0,968.0,0.0,1,327.0,1
225,225,0.15612318439679373,0.2,1.0,1.0,342.0,928.0,1.0,1,190.0,1
226,226,0.2517519071760962,0.3,1.0,1.0,434.0,593.0,1.0,1,243.0,1
227,227,0.8382893246504858,0.8,1.0,1.0,375.0,728.0,1.0,1,117.0,1
228,228,0.5306249331971161,0.5,0.0,0.0,406.0,690.0,0.0,1,174.0,1
229,229,0.5259259732928901,0.5,0.0,0.0,355.0,531.0,0.0,1,144.0,1
230,230,0.44046559408141317,0.4,1.0,1.0,330.0,948.0,1.0,1,202.0,1
231,231,-0.5683233780007373,-0.6,1.0,0.0,442.0,912.0,0.0,0,416.0,1
232,232,0.5239830106171622,0.5,0.0,0.0,426.0,662.0,0.0,1,162.0,1
233,233,-0.2630144346769806,-0.3,0.0,1.0,308.0,774.0,1.0,0,288.0,1
234,234,-0.413764549983208,-0.4,0.0,1.0,424.0,601.0,1.0,0,235.0,1
235,235,-0.2858437241100077,-0.3,0.0,1.0,363.0,570.0,1.0,0,237.0,1
236,236,-0.6694981365728616,-0.7,0.0,1.0,399.0,640.0,1.0,0,151.0,1
237,237,0.3105058552787413,0.3,1.0,1.0,430.0,530.0,1.0,1,270.0,1
238,238,-0.03583683492395229,-0.0,0.0,1.0,407.0,669.0,1.0,0,774.0,1
239,239,-0.8421047533607702,-0.8,0.0,1.0,391.0,526.0,1.0,0,163.0,1
240,240,0.39406819814765426,0.4,1.0,1.0,465.0,607.0,1.0,1,248.0,1
241,241,0.1549169334376631,0.2,1.0,1.0,349.0,657.0,1.0,1,254.0,1
242,242,0.6139511066928104,0.6,0.0,0.0,351.0,521.0,0.0,1,168.0,1
243,243,-0.8554312632703851,-0.9,0.0,1.0,366.0,587.0,1.0,0,137.0,1
244,244,-0.592364179396573,-0.6,0.0,1.0,440.0,626.0,1.0,0,194.0,1
245,245,-0.7674208541990468,-0.8,1.0,0.0,346.0,997.0,0.0,0,127.0,1
246,246,-0.47153728511798926,-0.5,1.0,0.0,444.0,976.0,0.0,0,240.0,1
247,247,0.43690760053906075,0.4,1.0,1.0,268.0,556.0,1.0,1,146.0,1
248,248,-0.12406081959721804,-0.1,0.0,1.0,275.0,585.0,1.0,0,640.0,1
249,249,0.6781269707197853,0.7,0.0,0.0,457.0,587.0,0.0,1,206.0,1
250,250,-0.10825643568959253,-0.1,1.0,0.0,490.0,674.0,0.0,0,396.0,1
251,251,-0.8475746928924179,-0.8,1.0,0.0,263.0,712.0,0.0,0,165.0,1
252,252,0.7576377054801041,0.8,0.0,0.0,251.0,985.0,0.0,1,104.0,1
253,253,-0.5554917386382239,-0.6,0.0,1.0,313.0,681.0,1.0,0,156.0,1
254,254,-0.14889824101440008,-0.1,1.0,0.0,471.0,900.0,0.0,0,719.0,1
255,255,0.5094854286731622,0.5,0.0,0.0,318.0,770.0,0.0,1,162.0,1
256,256,0.5190892727497837,0.5,0.0,0.0,431.0,805.0,0.0,1,144.0,1
257,257,-0.7157504385536169,-0.7,1.0,0.0,460.0,881.0,0.0,0,179.0,1
258,258,0.8258622688038569,0.8,1.0,1.0,327.0,753.0,1.0,1,120.0,1
259,259,-0.1950360314330527,-0.2,1.0,0.0,297.0,722.0,0.0,0,551.0,1
260,260,-0.7984305859561445,-0.8,1.0,0.0,253.0,538.0,0.0,0,209.0,1
261,261,0.8502331380471281,0.9,1.0,1.0,279.0,609.0,1.0,1,142.0,1
262,262,0.8898716799905252,0.9,1.0,1.0,453.0,522.0,1.0,1,155.0,1
263,263,0.45374134859352566,0.5,0.0,0.0,337.0,719.0,0.0,1,174.0,1
264,264,0.45705751062101985,0.5,0.0,0.0,372.0,519.0,0.0,1,199.0,1
265,265,-0.2009452731871999,-0.2,0.0,1.0,413.0,818.0,1.0,0,269.0,1
266,266,0.5040100121578418,0.5,0.0,0.0,448.0,922.0,0.0,1,140.0,1
267,267,0.059574454283167655,0.1,0.0,0.0,266.0,500.0,0.0,1,1994.0,1
268,268,-0.19282716346747386,-0.2,0.0,1.0,492.0,679.0,1.0,0,249.0,1
269,269,-0.032263354494815655,-0.0,1.0,0.0,450.0,835.0,0.0,0,3715.0,1
270,270,-0.2994762258878342,-0.3,1.0,0.0,407.0,605.0,0.0,0,508.0,1
271,271,-0.18506105792852134,-0.2,1.0,0.0,366.0,560.0,0.0,0,334.0,1
272,272,0.4875164948185574,0.5,0.0,0.0,273.0,886.0,0.0,1,81.0,1
273,273,0.5326771059921956,0.5,1.0,1.0,311.0,729.0,1.0,1,180.0,1
274,274,-0.30303518157722364,-0.3,0.0,1.0,288.0,514.0,1.0,0,438.0,1
275,275,0.520131354050572,0.5,1.0,1.0,412.0,506.0,1.0,1,272.0,1
276,276,0.22593185352252887,0.2,1.0,1.0,298.0,533.0,1.0,1,359.0,1
277,277,-0.873469682385388,-0.9,1.0,0.0,472.0,583.0,0.0,0,175.0,1
278,278,-0.24860404817186366,-0.2,0.0,1.0,263.0,859.0,1.0,0,278.0,1
279,279,-0.4697728326809452,-0.5,0.0,1.0,446.0,812.0,1.0,0,132.0,1
280,280,-0.7731725829728813,-0.8,0.0,1.0,336.0,550.0,1.0,0,214.0,1
281,281,-0.709107975967354,-0.7,1.0,0.0,483.0,615.0,0.0,0,252.0,1
282,282,-0.8477815621916431,-0.8,0.0,1.0,300.0,790.0,1.0,0,150.0,1
283,283,0.16763661256764884,0.2,1.0,1.0,364.0,799.0,1.0,1,167.0,1
284,284,-0.3340725150227416,-0.3,1.0,0.0,250.0,505.0,0.0,0,645.0,1
285,285,0.5137077402574678,0.5,1.0,1.0,310.0,846.0,1.0,1,214.0,1
286,286,-0.2946985965938387,-0.3,1.0,0.0,447.0,645.0,0.0,0,388.0,1
287,287,-0.3328628297905245,-0.3,0.0,1.0,448.0,670.0,1.0,0,222.0,1
288,288,-0.23986983382043514,-0.2,0.0,1.0,445.0,503.0,1.0,0,382.0,1
289,289,0.466341491716436,0.5,0.0,0.0,422.0,600.0,0.0,1,138.0,1
290,290,0.3193421198347114,0.3,0.0,0.0,408.0,962.0,0.0,1,170.0,1
291,291,-0.46843052803147217,-0.5,1.0,0.0,303.0,983.0,0.0,0,114.0,1
292,292,0.19311555285212434,0.2,1.0,1.0,353.0,996.0,1.0,1,301.0,1
293,293,0.33122580704848226,0.3,0.0,0.0,409.0,973.0,0.0,1,128.0,1
294,294,0.2964864308105132,0.3,1.0,1.0,419.0,936.0,1.0,1,275.0,1
295,295,0.004193391901840315,0.0,1.0,1.0,331.0,842.0,1.0,1,377.0,1
296,296,-0.7240845020167668,-0.7,0.0,1.0,341.0,635.0,1.0,0,244.0,1
297,297,-0.5224844607346866,-0.5,0.0,1.0,454.0,663.0,1.0,0,263.0,1
298,298,0.5868077938957753,0.6,0.0,0.0,377.0,653.0,0.0,1,150.0,1
299,299,0.6285289929513865,0.6,1.0,1.0,332.0,985.0,1.0,1,123.0,1
300,300,0.14216151864648763,0.1,1.0,1.0,373.0,593.0,1.0,1,254.0,1
301,301,0.799102765555333,0.8,0.0,0.0,491.0,895.0,0.0,1,114.0,1
302,302,-0.5553079994686578,-0.6,1.0,0.0,286.0,845.0,0.0,0,169.0,1
303,303,-0.8578182435266467,-0.9,0.0,1.0,356.0,892.0,1.0,0,132.0,1
304,304,0.10701222105468033,0.1,0.0,0.0,290.0,727.0,0.0,1,873.0,1
305,305,0.1353552968951356,0.1,1.0,1.0,444.0,850.0,1.0,1,196.0,1
306,306,0.16044475995617813,0.2,1.0,1.0,257.0,770.0,1.0,1,553.0,1
307,307,0.6563071346775006,0.7,1.0,1.0,290.0,658.0,1.0,1,122.0,1
308,308,0.8786998361198212,0.9,0.0,0.0,388.0,873.0,0.0,1,119.0,1
309,309,-0.6025375924578878,-0.6,1.0,0.0,360.0,951.0,0.0,0,179.0,1
310,310,-0.5662017271647585,-0.6,0.0,1.0,400.0,972.0,1.0,0,328.0,1
311,311,0.5743348568180043,0.6,1.0,1.0,314.0,894.0,1.0,1,132.0,1
312,312,0.6635547590963334,0.7,0.0,0.0,424.0,575.0,0.0,1,211.0,1
313,313,-0.41033278640022186,-0.4,1.0,0.0,285.0,680.0,0.0,0,445.0,1
314,314,-0.4063469735358585,-0.4,1.0,0.0,407.0,633.0,0.0,0,470.0,1
315,315,0.512046182886614,0.5,1.0,1.0,318.0,546.0,1.0,1,246.0,1
316,316,0.4167531192633728,0.4,1.0,1.0,384.0,823.0,1.0,1,253.0,1
317,317,-0.17340110649902507,-0.2,0.0,1.0,401.0,576.0,1.0,0,373.0,1
318,318,0.6648602260358264,0.7,1.0,1.0,494.0,654.0,1.0,1,192.0,1
319,319,0.5303476099291659,0.5,0.0,0.0,372.0,577.0,0.0,1,181.0,1
320,320,-0.7344938521624584,-0.7,0.0,1.0,353.0,930.0,1.0,0,137.0,1
321,321,-0.5820572075455039,-0.6,1.0,0.0,358.0,939.0,0.0,0,273.0,1
322,322,0.4332394630813591,0.4,1.0,1.0,274.0,954.0,1.0,1,182.0,1
323,323,-0.20050854011939345,-0.2,0.0,1.0,444.0,816.0,1.0,0,260.0,1
324,324,0.8519967405549819,0.9,0.0,0.0,396.0,772.0,0.0,1,112.0,1
325,325,-0.4068231726796669,-0.4,1.0,0.0,271.0,840.0,0.0,0,329.0,1
326,326,-0.23988518923545066,-0.2,1.0,0.0,433.0,720.0,0.0,0,367.0,1
327,327,0.6342051483280137,0.6,0.0,0.0,342.0,628.0,0.0,1,170.0,1
328,328,0.3865282384078096,0.4,0.0,0.0,474.0,653.0,0.0,1,143.0,1
329,329,-0.8499990594292701,-0.8,1.0,0.0,376.0,670.0,0.0,0,194.0,1
330,330,-0.2282885768370605,-0.2,1.0,0.0,445.0,569.0,0.0,0,596.0,1
331,331,-0.30755952864461555,-0.3,0.0,1.0,274.0,988.0,1.0,0,138.0,1
332,332,0.21017403093336318,0.2,1.0,1.0,331.0,719.0,1.0,1,230.0,1
333,333,0.8979960599339868,0.9,0.0,0.0,485.0,676.0,0.0,1,119.0,1
334,334,-0.7355034491794805,-0.7,0.0,1.0,491.0,952.0,1.0,0,167.0,1
335,335,-0.5979924758813233,-0.6,1.0,0.0,301.0,656.0,0.0,0,253.0,1
336,336,0.6753768949957822,0.7,1.0,1.0,259.0,595.0,1.0,1,166.0,1
337,337,0.8344882049016821,0.8,1.0,1.0,469.0,670.0,1.0,1,151.0,1
338,338,-0.537493386133297,-0.5,0.0,1.0,333.0,986.0,1.0,0,141.0,1
339,339,-0.32332266716674085,-0.3,1.0,0.0,498.0,656.0,0.0,0,366.0,1
340,340,0.34367850653846854,0.3,1.0,1.0,327.0,865.0,1.0,1,248.0,1
341,341,-0.7381404209198368,-0.7,0.0,1.0,300.0,811.0,1.0,0,149.0,1
342,342,-0.4269487090273479,-0.4,0.0,1.0,274.0,641.0,1.0,0,265.0,1
343,343,-0.38219334490333357,-0.4,0.0,1.0,463.0,581.0,1.0,0,326.0,1
344,344,0.2560837431788904,0.3,0.0,0.0,273.0,535.0,0.0,1,282.0,1
345,345,-0.1935901766777397,-0.2,0.0,1.0,394.0,830.0,1.0,0,606.0,1
346,346,0.3686804736218813,0.4,0.0,0.0,476.0,660.0,0.0,1,254.0,1
347,347,0.5412305265964917,0.5,1.0,1.0,347.0,665.0,1.0,1,188.0,1
348,348,-0.8372545471772089,-0.8,0.0,1.0,316.0,757.0,1.0,0,117.0,1
349,349,-0.43801582574817627,-0.4,0.0,1.0,442.0,688.0,1.0,0,170.0,1
350,350,0.025462742242318703,0.0,1.0,1.0,487.0,665.0,1.0,1,648.0,1
351,351,-0.8572860308393236,-0.9,1.0,0.0,285.0,886.0,0.0,0,189.0,1
352,352,0.2484794865383525,0.2,1.0,1.0,448.0,586.0,1.0,1,336.0,1
353,353,0.8304160209299624,0.8,0.0,0.0,460.0,620.0,0.0,1,110.0,1
354,354,0.5274020738576491,0.5,1.0,1.0,287.0,672.0,1.0,1,191.0,1
355,355,0.596772655930209,0.6,0.0,0.0,476.0,696.0,0.0,1,148.0,1
356,356,-0.16093675470682756,-0.2,1.0,0.0,297.0,879.0,0.0,0,424.0,1
357,357,0.2805417557300075,0.3,0.0,0.0,312.0,663.0,0.0,1,255.0,1
358,358,0.19819411602882642,0.2,1.0,1.0,479.0,998.0,1.0,1,253.0,1
359,359,0.8803103202953356,0.9,1.0,1.0,464.0,716.0,1.0,1,140.0,1
360,360,0.12197461064767479,0.1,1.0,1.0,349.0,762.0,1.0,1,479.0,1
361,361,0.14543614882729738,0.1,0.0,0.0,381.0,787.0,0.0,1,222.0,1
362,362,0.7948017149276926,0.8,1.0,1.0,492.0,913.0,1.0,1,95.0,1
363,363,-0.06248565967147168,-0.1,0.0,1.0,473.0,648.0,1.0,0,499.0,1
364,364,0.5628649409592633,0.6,0.0,0.0,271.0,771.0,0.0,1,148.0,1
365,365,0.6550058131454582,0.7,0.0,0.0,350.0,725.0,0.0,1,165.0,1
366,366,-0.5101462065404955,-0.5,0.0,1.0,384.0,701.0,1.0,0,195.0,1
367,367,0.1808795198321681,0.2,1.0,1.0,372.0,748.0,1.0,1,270.0,1
368,368,-0.16675535221785598,-0.2,1.0,0.0,318.0,641.0,0.0,0,511.0,1
369,369,-0.34726556260407937,-0.3,0.0,1.0,381.0,895.0,1.0,0,304.0,1
370,370,-0.3900115703980952,-0.4,0.0,1.0,370.0,912.0,1.0,0,238.0,1
371,371,0.7258287560694229,0.7,0.0,0.0,386.0,917.0,0.0,1,77.0,1
372,372,0.5159097277227328,0.5,0.0,0.0,412.0,617.0,0.0,1,101.0,1
373,373,-0.6194786964593973,-0.6,0.0,1.0,367.0,824.0,1.0,0,219.0,1
374,374,-0.7601864061998617,-0.8,1.0,0.0,342.0,725.0,0.0,0,203.0,1
375,375,-0.08467117560630266,-0.1,1.0,0.0,282.0,846.0,0.0,0,382.0,1
376,376,-0.0644011386255815,-0.1,0.0,1.0,272.0,824.0,1.0,0,494.0,1
377,377,0.3917243703991281,0.4,1.0,1.0,474.0,872.0,1.0,1,184.0,1
378,378,0.6525610158019425,0.7,0.0,0.0,354.0,669.0,0.0,1,217.0,1
379,379,0.8770175439912978,0.9,0.0,0.0,270.0,726.0,0.0,1,114.0,1
380,380,-0.3555187731299334,-0.4,0.0,1.0,352.0,598.0,1.0,0,510.0,1
381,381,0.8737933624740851,0.9,0.0,0.0,290.0,658.0,0.0,1,142.0,1
382,382,0.2693828797049441,0.3,1.0,1.0,436.0,897.0,1.0,1,257.0,1
383,383,0.21671729351696223,0.2,1.0,1.0,295.0,981.0,1.0,1,134.0,1
384,384,0.7106032545065263,0.7,1.0,1.0,311.0,875.0,1.0,1,64.0,1
385,385,-0.12084061276598024,-0.1,0.0,1.0,284.0,566.0,1.0,0,600.0,1
386,386,0.7142146190268289,0.7,1.0,1.0,297.0,626.0,1.0,1,207.0,1
387,387,-0.8366590794883201,-0.8,1.0,0.0,255.0,829.0,0.0,0,206.0,1
388,388,0.13467095658830186,0.1,0.0,0.0,381.0,847.0,0.0,1,272.0,1
389,389,-0.3872019202028072,-0.4,0.0,1.0,331.0,587.0,1.0,0,262.0,1
390,390,0.5123479204205764,0.5,0.0,0.0,447.0,934.0,0.0,1,129.0,1
391,391,0.8929424387750352,0.9,1.0,1.0,445.0,959.0,1.0,1,126.0,1
392,392,-0.32724569324934827,-0.3,0.0,1.0,477.0,647.0,1.0,0,296.0,1
393,393,-0.28876396433198215,-0.3,1.0,0.0,307.0,785.0,0.0,0,388.0,1
394,394,-0.04502834263350863,-0.0,1.0,0.0,441.0,639.0,0.0,0,3920.0,1
395,395,-0.6999448572429026,-0.7,0.0,1.0,304.0,806.0,1.0,0,300.0,1
396,396,0.3264116720185911,0.3,1.0,1.0,449.0,598.0,1.0,1,203.0,1
397,397,-0.0033968355838204234,-0.0,1.0,0.0,375.0,767.0,1.0,1,2468.0,0
398,398,-0.09659275860758942,-0.1,0.0,1.0,430.0,704.0,1.0,0,806.0,1
399,399,-0.695156622394896,-0.7,0.0,1.0,336.0,690.0,1.0,0,174.0,1
400,400,0.6044400400765456,0.6,0.0,0.0,428.0,805.0,0.0,1,147.0,1
401,401,-0.6769592828110217,-0.7,0.0,1.0,372.0,604.0,1.0,0,164.0,1
402,402,-0.6371110274604637,-0.6,0.0,1.0,489.0,637.0,1.0,0,174.0,1
403,403,0.794466137537739,0.8,1.0,1.0,262.0,784.0,1.0,1,164.0,1
404,404,0.38181058282755165,0.4,0.0,0.0,297.0,619.0,0.0,1,224.0,1
405,405,0.44457032335815316,0.4,1.0,1.0,289.0,955.0,1.0,1,176.0,1
406,406,-0.6577222484091062,-0.7,1.0,0.0,281.0,869.0,0.0,0,220.0,1
407,407,-0.22396111613088465,-0.2,0.0,1.0,450.0,573.0,1.0,0,357.0,1
408,408,-0.22731574310296698,-0.2,1.0,0.0,272.0,611.0,0.0,0,437.0,1
409,409,0.6307147379098336,0.6,0.0,0.0,284.0,685.0,0.0,1,231.0,1
410,410,0.31547530635468257,0.3,0.0,0.0,336.0,604.0,0.0,1,180.0,1
411,411,-0.13422141840149848,-0.1,0.0,1.0,403.0,722.0,1.0,0,655.0,1
412,412,-0.37029352517818714,-0.4,1.0,0.0,341.0,666.0,0.0,0,263.0,1
413,413,-0.15788619864857156,-0.2,0.0,1.0,358.0,941.0,1.0,0,311.0,1
414,414,-0.0867434014013505,-0.1,0.0,1.0,330.0,756.0,1.0,0,644.0,1
415,415,0.033100233520530375,0.0,0.0,0.0,350.0,933.0,0.0,1,497.0,1
416,416,-0.8890998018990007,-0.9,0.0,1.0,338.0,646.0,1.0,0,156.0,1
417,417,0.8165096782309614,0.8,0.0,0.0,361.0,553.0,0.0,1,126.0,1
418,418,-0.674063222969908,-0.7,0.0,1.0,316.0,680.0,1.0,0,134.0,1
419,419,-0.2442040275916817,-0.2,0.0,1.0,309.0,612.0,1.0,0,419.0,1
420,420,0.898298004915057,0.9,0.0,0.0,366.0,926.0,0.0,1,158.0,1
421,421,-0.12062206486882299,-0.1,1.0,0.0,472.0,925.0,0.0,0,553.0,1
422,422,0.0337348919679179,0.0,1.0,1.0,462.0,802.0,1.0,1,916.0,1
423,423,-0.8374631289154761,-0.8,1.0,0.0,317.0,711.0,0.0,0,172.0,1
424,424,-0.41393596902868407,-0.4,1.0,0.0,438.0,964.0,0.0,0,288.0,1
425,425,0.1764729489914888,0.2,0.0,0.0,306.0,852.0,0.0,1,552.0,1
426,426,0.17746320994359144,0.2,1.0,1.0,419.0,732.0,1.0,1,199.0,1
427,427,-0.790796612275366,-0.8,1.0,0.0,276.0,735.0,0.0,0,129.0,1
428,428,0.09179478025191212,0.1,0.0,0.0,422.0,649.0,0.0,1,489.0,1
429,429,-0.43288555033774917,-0.4,0.0,1.0,405.0,623.0,1.0,0,162.0,1
430,430,0.1772855163812762,0.2,1.0,1.0,385.0,729.0,1.0,1,406.0,1
431,431,-0.1084374855668887,-0.1,0.0,1.0,405.0,511.0,1.0,0,574.0,1
432,432,-0.5328189213109533,-0.5,1.0,0.0,385.0,611.0,0.0,0,324.0,1
433,433,0.891258770234688,0.9,0.0,0.0,372.0,533.0,0.0,1,135.0,1
434,434,0.2833969051195263,0.3,1.0,1.0,429.0,721.0,1.0,1,260.0,1
435,435,-0.16182050110825186,-0.2,1.0,0.0,296.0,666.0,0.0,0,608.0,1
436,436,0.7053118833284443,0.7,0.0,0.0,406.0,585.0,0.0,1,139.0,1
437,437,-0.4784898473118739,-0.5,0.0,1.0,377.0,509.0,1.0,0,354.0,1
438,438,-0.707009317409264,-0.7,1.0,0.0,279.0,981.0,0.0,0,120.0,1
439,439,0.1421602100698699,0.1,0.0,0.0,354.0,607.0,0.0,1,499.0,1
440,440,0.4262479771308859,0.4,1.0,1.0,255.0,685.0,1.0,1,200.0,1
441,441,0.31108215919223137,0.3,1.0,1.0,369.0,761.0,1.0,1,270.0,1
442,442,0.5976771938538264,0.6,1.0,1.0,353.0,660.0,1.0,1,167.0,1
443,443,0.7810174792671466,0.8,1.0,1.0,274.0,720.0,1.0,1,156.0,1
444,444,0.282369082551266,0.3,0.0,0.0,281.0,637.0,0.0,1,342.0,1
445,445,0.2094105389441704,0.2,0.0,0.0,456.0,726.0,0.0,1,298.0,1
446,446,-0.7998770867714552,-0.8,0.0,1.0,381.0,856.0,1.0,0,113.0,1
447,447,0.6625161936976846,0.7,0.0,0.0,266.0,649.0,0.0,1,125.0,1
448,448,-0.25843322172565686,-0.3,0.0,1.0,432.0,591.0,1.0,0,547.0,1
449,449,-0.7888118033038118,-0.8,1.0,0.0,327.0,883.0,0.0,0,110.0,1
450,450,0.4812565571534494,0.5,1.0,1.0,275.0,525.0,1.0,1,200.0,1
451,451,-0.32033229568471755,-0.3,1.0,0.0,494.0,704.0,0.0,0,292.0,1
452,452,-0.1012473907789464,-0.1,0.0,1.0,451.0,720.0,1.0,0,959.0,1
453,453,-0.6164999191184783,-0.6,1.0,0.0,448.0,530.0,0.0,0,412.0,1
454,454,0.836565579462551,0.8,0.0,0.0,427.0,590.0,0.0,1,183.0,1
455,455,0.18132524189634125,0.2,1.0,1.0,447.0,683.0,1.0,1,320.0,1
456,456,0.7925915093427657,0.8,0.0,0.0,289.0,857.0,0.0,1,84.0,1
457,457,0.8790698349530247,0.9,0.0,0.0,323.0,574.0,0.0,1,113.0,1
458,458,-0.3882441169443307,-0.4,1.0,0.0,433.0,856.0,0.0,0,161.0,1
459,459,0.19644005837499756,0.2,0.0,0.0,348.0,747.0,0.0,1,385.0,1
460,460,-0.15280911275817943,-0.2,1.0,0.0,391.0,898.0,0.0,0,361.0,1
461,461,-0.5859427440932735,-0.6,1.0,0.0,413.0,890.0,0.0,0,127.0,1
462,462,-0.016210912860660343,-0.0,0.0,1.0,349.0,593.0,1.0,0,1888.0,1
463,463,-0.16945042730991688,-0.2,0.0,1.0,497.0,521.0,1.0,0,442.0,1
464,464,0.4930356682582683,0.5,1.0,1.0,312.0,964.0,1.0,1,224.0,1
465,465,-0.34604931870264377,-0.3,1.0,0.0,390.0,885.0,0.0,0,305.0,1
466,466,0.5378018010440441,0.5,1.0,1.0,422.0,929.0,1.0,1,219.0,1
467,467,-0.5145482748405941,-0.5,1.0,0.0,478.0,578.0,0.0,0,404.0,1
468,468,0.21657427332653467,0.2,0.0,0.0,485.0,997.0,0.0,1,298.0,1
469,469,-0.6463060292792246,-0.6,0.0,1.0,283.0,719.0,1.0,0,178.0,1
470,470,-0.11061896142939853,-0.1,0.0,1.0,456.0,546.0,1.0,0,778.0,1
471,471,-0.6326508045495401,-0.6,1.0,0.0,408.0,568.0,0.0,0,174.0,1
472,472,0.09874762053608299,0.1,0.0,0.0,335.0,966.0,0.0,1,639.0,1
473,473,0.4210381944480309,0.4,0.0,0.0,463.0,562.0,0.0,1,285.0,1
474,474,-0.18281297730545631,-0.2,1.0,0.0,357.0,600.0,0.0,0,813.0,1
475,475,0.6426289330658005,0.6,1.0,1.0,381.0,851.0,1.0,1,128.0,1
476,476,0.6256848744963904,0.6,1.0,1.0,461.0,918.0,1.0,1,151.0,1
477,477,-0.3079881420717675,-0.3,1.0,0.0,485.0,820.0,0.0,0,195.0,1
478,478,-0.2168258917194099,-0.2,1.0,0.0,339.0,993.0,0.0,0,458.0,1
479,479,-0.7171867851397902,-0.7,0.0,1.0,402.0,967.0,1.0,0,161.0,1
480,480,-0.1129691558935102,-0.1,1.0,0.0,442.0,549.0,0.0,0,799.0,1
481,481,0.15563149441016388,0.2,1.0,1.0,283.0,990.0,1.0,1,207.0,1
482,482,0.5267681137086978,0.5,1.0,1.0,300.0,756.0,1.0,1,104.0,1
483,483,-0.46301626542936064,-0.5,1.0,0.0,417.0,936.0,0.0,0,267.0,1
484,484,0.009371585728753962,0.0,1.0,1.0,312.0,592.0,1.0,1,846.0,1
485,485,0.37062960284843605,0.4,1.0,1.0,299.0,717.0,1.0,1,234.0,1
486,486,-0.12226455055302843,-0.1,1.0,0.0,371.0,525.0,0.0,0,664.0,1
487,487,-0.8600897484584216,-0.9,0.0,1.0,270.0,840.0,1.0,0,130.0,1
488,488,-0.5615998921040584,-0.6,0.0,1.0,397.0,657.0,1.0,0,146.0,1
489,489,-0.7967438667890634,-0.8,1.0,0.0,319.0,579.0,0.0,0,262.0,1
490,490,-0.6793079838548128,-0.7,1.0,0.0,272.0,795.0,0.0,0,203.0,1
491,491,0.570200851543032,0.6,0.0,0.0,369.0,756.0,0.0,1,165.0,1
492,492,0.32307006368721025,0.3,0.0,0.0,355.0,896.0,0.0,1,209.0,1
493,493,0.2740536253386362,0.3,0.0,0.0,341.0,709.0,0.0,1,270.0,1
494,494,-0.5802436227688346,-0.6,1.0,0.0,362.0,580.0,0.0,0,328.0,1
495,495,0.6681619254874328,0.7,1.0,1.0,311.0,590.0,1.0,1,199.0,1
496,496,0.4053301682197551,0.4,0.0,0.0,498.0,703.0,0.0,1,209.0,1
497,497,-0.08375992184340852,-0.1,0.0,1.0,414.0,560.0,1.0,0,1166.0,1
498,498,0.8894614745062271,0.9,1.0,1.0,381.0,899.0,1.0,1,140.0,1
499,499,-0.7151499178927663,-0.7,1.0,0.0,258.0,780.0,0.0,0,202.0,1
500,500,-0.61136307299076,-0.6,1.0,0.0,255.0,937.0,0.0,0,208.0,1
501,501,-0.38759276930404685,-0.4,1.0,0.0,320.0,566.0,0.0,0,504.0,1
502,502,-0.7830486513432028,-0.8,1.0,0.0,407.0,912.0,0.0,0,161.0,1
503,503,-0.2158165141475501,-0.2,0.0,1.0,340.0,647.0,1.0,0,493.0,1
504,504,0.41069633565096664,0.4,0.0,0.0,415.0,511.0,0.0,1,244.0,1
505,505,-0.5058322063683769,-0.5,1.0,0.0,327.0,823.0,0.0,0,240.0,1
506,506,0.23801345411747732,0.2,1.0,1.0,494.0,721.0,1.0,1,325.0,1
507,507,-0.7408112156276229,-0.7,0.0,1.0,272.0,598.0,1.0,0,160.0,1
508,508,0.6836320522097273,0.7,0.0,0.0,253.0,812.0,0.0,1,185.0,1
509,509,-0.8205049810933995,-0.8,0.0,1.0,264.0,860.0,1.0,0,126.0,1
510,510,-0.0349223863655751,-0.0,1.0,0.0,435.0,749.0,0.0,0,1356.0,1
511,511,0.7185357574804615,0.7,1.0,1.0,438.0,815.0,1.0,1,157.0,1
512,512,-0.5370805827423326,-0.5,1.0,0.0,342.0,513.0,0.0,0,445.0,1
513,513,0.837420677424615,0.8,0.0,0.0,388.0,728.0,0.0,1,114.0,1
514,514,-0.3453282927488932,-0.3,0.0,1.0,417.0,936.0,1.0,0,227.0,1
515,515,-0.8458210883886952,-0.8,1.0,0.0,288.0,706.0,0.0,0,146.0,1
516,516,-0.8521159806739169,-0.9,1.0,0.0,337.0,514.0,0.0,0,229.0,1
517,517,-0.2059600117458774,-0.2,0.0,1.0,292.0,568.0,1.0,0,420.0,1
518,518,-0.18906344345185566,-0.2,0.0,1.0,333.0,877.0,1.0,0,680.0,1
519,519,0.16253683070777847,0.2,0.0,0.0,449.0,881.0,0.0,1,310.0,1
520,520,-0.06692186959271218,-0.1,0.0,1.0,322.0,925.0,1.0,0,1313.0,1
521,521,-0.06937884487095192,-0.1,1.0,0.0,279.0,616.0,0.0,0,3805.0,1
522,522,0.27153678964995864,0.3,1.0,1.0,351.0,906.0,1.0,1,243.0,1
523,523,-0.8139221068084929,-0.8,1.0,0.0,263.0,958.0,0.0,0,129.0,1
524,524,-0.13736047526740225,-0.1,0.0,1.0,376.0,714.0,1.0,0,590.0,1
525,525,-0.7047767140082084,-0.7,1.0,0.0,263.0,690.0,0.0,0,267.0,1
526,526,-0.8944791991255436,-0.9,0.0,1.0,293.0,687.0,1.0,0,190.0,1
527,527,0.3823264136325858,0.4,0.0,0.0,418.0,937.0,0.0,1,135.0,1
528,528,-0.5789810889991931,-0.6,0.0,1.0,378.0,522.0,1.0,0,370.0,1
529,529,0.12085904459785313,0.1,1.0,1.0,464.0,581.0,1.0,1,465.0,1
530,530,-0.7092992327932511,-0.7,0.0,1.0,343.0,865.0,1.0,0,152.0,1
531,531,0.2265756377118443,0.2,1.0,1.0,328.0,831.0,1.0,1,201.0,1
532,532,-0.8693078027959391,-0.9,1.0,0.0,381.0,847.0,0.0,0,132.0,1
533,533,-0.7781022807697283,-0.8,1.0,0.0,485.0,601.0,0.0,0,244.0,1
534,534,0.7708697562115433,0.8,0.0,0.0,453.0,862.0,0.0,1,145.0,1
535,535,0.7420673092411271,0.7,0.0,0.0,337.0,746.0,0.0,1,147.0,1
536,536,-0.22223348604198356,-0.2,0.0,1.0,462.0,701.0,1.0,0,407.0,1
537,537,-0.7621517831515892,-0.8,0.0,1.0,491.0,931.0,1.0,0,168.0,1
538,538,-0.6445332306870706,-0.6,1.0,0.0,375.0,756.0,0.0,0,159.0,1
539,539,-0.4885600218696717,-0.5,0.0,1.0,454.0,532.0,1.0,0,264.0,1
540,540,-0.09711587791158438,-0.1,1.0,0.0,273.0,725.0,0.0,0,1292.0,1
541,541,0.8307245546448904,0.8,0.0,0.0,328.0,816.0,0.0,1,126.0,1
542,542,-0.19867204257411297,-0.2,1.0,0.0,498.0,818.0,0.0,0,324.0,1
543,543,-0.0071143880984306795,-0.0,1.0,0.0,302.0,837.0,1.0,1,3861.0,0
544,544,-0.23031906766156807,-0.2,0.0,1.0,384.0,903.0,1.0,0,303.0,1
545,545,0.7640912842282722,0.8,0.0,0.0,337.0,716.0,0.0,1,117.0,1
546,546,-0.3431230570257392,-0.3,1.0,0.0,430.0,744.0,0.0,0,226.0,1
547,547,-0.01197407967407249,-0.0,0.0,1.0,328.0,957.0,1.0,0,2915.0,1
548,548,-0.7995893474154541,-0.8,0.0,1.0,397.0,588.0,1.0,0,205.0,1
549,549,-0.13010427054757656,-0.1,1.0,0.0,305.0,955.0,0.0,0,410.0,1
550,550,-0.283003028451855,-0.3,0.0,1.0,428.0,655.0,1.0,0,247.0,1
551,551,-0.06715549150489064,-0.1,0.0,1.0,254.0,772.0,1.0,0,1274.0,1
552,552,0.8785049254194669,0.9,1.0,1.0,307.0,599.0,1.0,1,114.0,1
553,553,0.3264870478860543,0.3,1.0,1.0,396.0,864.0,1.0,1,160.0,1
554,554,-0.6446524875596167,-0.6,1.0,0.0,497.0,812.0,0.0,0,161.0,1
555,555,0.8376016818143456,0.8,1.0,1.0,428.0,659.0,1.0,1,123.0,1
556,556,-0.7063049700711717,-0.7,1.0,0.0,287.0,551.0,0.0,0,282.0,1
557,557,-0.8990094113499474,-0.9,0.0,1.0,475.0,523.0,1.0,0,202.0,1
558,558,0.19453873377148267,0.2,1.0,1.0,495.0,688.0,1.0,1,277.0,1
559,559,-0.045724878304585825,-0.0,1.0,0.0,405.0,871.0,0.0,0,3724.0,1
560,560,0.1787758238178584,0.2,1.0,1.0,314.0,918.0,1.0,1,338.0,1
561,561,-0.2595672881427885,-0.3,1.0,0.0,278.0,848.0,0.0,0,334.0,1
562,562,-0.14143633220839869,-0.1,1.0,0.0,348.0,719.0,0.0,0,633.0,1
563,563,0.27986401211670986,0.3,1.0,1.0,470.0,597.0,1.0,1,223.0,1
564,564,-0.5173575035876776,-0.5,1.0,0.0,427.0,557.0,0.0,0,356.0,1
565,565,-0.2442503375175653,-0.2,0.0,1.0,320.0,572.0,1.0,0,578.0,1
566,566,0.10865487402622642,0.1,0.0,0.0,375.0,511.0,0.0,1,1174.0,1
567,567,0.18523213850393183,0.2,1.0,1.0,352.0,917.0,1.0,1,221.0,1
568,568,0.8152764795180673,0.8,0.0,0.0,375.0,611.0,0.0,1,144.0,1
569,569,-0.4388618237383657,-0.4,0.0,1.0,412.0,660.0,1.0,0,288.0,1
570,570,-0.511326950328318,-0.5,1.0,0.0,398.0,827.0,0.0,0,265.0,1
571,571,0.5237045325142092,0.5,0.0,0.0,417.0,610.0,0.0,1,213.0,1
572,572,0.6828468311242294,0.7,1.0,1.0,368.0,663.0,1.0,1,169.0,1
573,573,0.4770510116212566,0.5,1.0,1.0,342.0,829.0,1.0,1,169.0,1
574,574,0.27864682470708335,0.3,0.0,0.0,392.0,876.0,0.0,1,182.0,1
575,575,0.7123814397250466,0.7,1.0,1.0,303.0,527.0,1.0,1,200.0,1
576,576,0.6977625867819995,0.7,0.0,0.0,428.0,703.0,0.0,1,179.0,1
577,577,0.5157147398399408,0.5,0.0,0.0,413.0,905.0,0.0,1,222.0,1
578,578,0.5829150029879923,0.6,1.0,1.0,373.0,787.0,1.0,1,170.0,1
579,579,-0.5900116495610246,-0.6,0.0,1.0,445.0,622.0,1.0,0,173.0,1
580,580,0.5659172751730918,0.6,1.0,1.0,267.0,884.0,1.0,1,219.0,1
581,581,0.2521756323025942,0.3,1.0,1.0,465.0,840.0,1.0,1,175.0,1
582,582,-0.7499795944158376,-0.7,0.0,1.0,292.0,578.0,1.0,0,180.0,1
583,583,0.6991271669792501,0.7,1.0,1.0,334.0,530.0,1.0,1,226.0,1
584,584,0.3001573626766346,0.3,0.0,0.0,436.0,704.0,0.0,1,270.0,1
585,585,0.43504405348888187,0.4,1.0,1.0,316.0,590.0,1.0,1,254.0,1
586,586,-0.5423738014659445,-0.5,0.0,1.0,263.0,785.0,1.0,0,132.0,1
587,587,0.17643238848675324,0.2,1.0,1.0,269.0,927.0,1.0,1,304.0,1
588,588,0.49326257801110607,0.5,1.0,1.0,359.0,608.0,1.0,1,173.0,1
589,589,0.059541251168997555,0.1,1.0,1.0,335.0,847.0,1.0,1,608.0,1
590,590,-0.2207940175415083,-0.2,1.0,0.0,314.0,974.0,0.0,0,412.0,1
591,591,0.7647462458205224,0.8,1.0,1.0,276.0,726.0,1.0,1,148.0,1
592,592,0.6156828327412845,0.6,1.0,1.0,499.0,757.0,1.0,1,154.0,1
593,593,-0.19528347302692461,-0.2,1.0,0.0,271.0,868.0,0.0,0,281.0,1
594,594,-0.3278534652569455,-0.3,0.0,1.0,361.0,875.0,1.0,0,154.0,1
595,595,-0.8602193895841651,-0.9,0.0,1.0,335.0,940.0,1.0,0,155.0,1
596,596,0.8191156378754251,0.8,0.0,0.0,417.0,513.0,0.0,1,140.0,1
597,597,-0.6674739678530176,-0.7,0.0,1.0,398.0,622.0,1.0,0,180.0,1
598,598,-0.26647689185120027,-0.3,0.0,1.0,309.0,567.0,1.0,0,484.0,1
599,599,-0.4601234769430536,-0.5,0.0,1.0,488.0,996.0,1.0,0,166.0,1
600,600,0.5285334516926256,0.5,0.0,0.0,309.0,910.0,0.0,1,171.0,1
601,601,-0.22413655820973832,-0.2,1.0,0.0,407.0,919.0,0.0,0,264.0,1
602,602,0.10629913044126804,0.1,1.0,1.0,364.0,963.0,1.0,1,293.0,1
603,603,-0.5344545123182276,-0.5,1.0,0.0,324.0,895.0,0.0,0,211.0,1
604,604,0.4732807387247232,0.5,1.0,1.0,254.0,931.0,1.0,1,135.0,1
605,605,0.49097767750357846,0.5,1.0,1.0,480.0,838.0,1.0,1,122.0,1
606,606,-0.15158963911385148,-0.2,1.0,0.0,306.0,696.0,0.0,0,598.0,1
607,607,-0.6627690284623523,-0.7,0.0,1.0,402.0,684.0,1.0,0,164.0,1
608,608,0.8120831594833314,0.8,0.0,0.0,425.0,654.0,0.0,1,111.0,1
609,609,-0.12050607657404921,-0.1,0.0,1.0,304.0,662.0,1.0,0,334.0,1
610,610,0.756432148925073,0.8,1.0,1.0,465.0,771.0,1.0,1,104.0,1
611,611,-0.6860858380881302,-0.7,0.0,1.0,326.0,926.0,1.0,0,118.0,1
612,612,0.2571561798821703,0.3,0.0,0.0,369.0,995.0,0.0,1,236.0,1
613,613,0.6132984249677406,0.6,1.0,1.0,495.0,710.0,1.0,1,135.0,1
614,614,0.5153778099263459,0.5,1.0,1.0,279.0,926.0,1.0,1,85.0,1
615,615,0.07025952534972513,0.1,0.0,0.0,266.0,556.0,0.0,1,698.0,1
616,616,-0.22705093929042053,-0.2,0.0,1.0,353.0,567.0,1.0,0,330.0,1
617,617,-0.5598155150994424,-0.6,1.0,0.0,343.0,781.0,0.0,0,446.0,1
618,618,-0.6856960411257343,-0.7,0.0,1.0,378.0,507.0,1.0,0,155.0,1
619,619,0.5507026186648961,0.6,1.0,1.0,487.0,789.0,1.0,1,164.0,1
620,620,0.08042709070941834,0.1,0.0,0.0,355.0,761.0,0.0,1,474.0,1
621,621,0.21004418303921513,0.2,1.0,1.0,408.0,899.0,1.0,1,323.0,1
622,622,-0.3147937269913684,-0.3,0.0,1.0,443.0,876.0,1.0,0,261.0,1
623,623,0.32358572382468254,0.3,1.0,1.0,307.0,574.0,1.0,1,259.0,1
624,624,0.059379458478410974,0.1,0.0,0.0,410.0,637.0,0.0,1,2253.0,1
625,625,-0.3667542132163526,-0.4,0.0,1.0,268.0,975.0,1.0,0,337.0,1
626,626,0.4237867422762228,0.4,0.0,0.0,470.0,654.0,0.0,1,296.0,1
627,627,-0.07081191428564948,-0.1,0.0,1.0,277.0,867.0,1.0,0,586.0,1
628,628,-0.2808830928295808,-0.3,1.0,0.0,401.0,800.0,0.0,0,449.0,1
629,629,0.637367075489837,0.6,0.0,0.0,418.0,784.0,0.0,1,198.0,1
630,630,0.7654796450114093,0.8,0.0,0.0,336.0,861.0,0.0,1,103.0,1
631,631,-0.12285345900803668,-0.1,0.0,1.0,379.0,993.0,1.0,0,598.0,1
632,632,-0.5609265644812618,-0.6,1.0,0.0,488.0,704.0,0.0,0,368.0,1
633,633,0.3863354150294894,0.4,1.0,1.0,377.0,602.0,1.0,1,171.0,1
634,634,-0.5649745084155604,-0.6,1.0,0.0,488.0,782.0,0.0,0,150.0,1
635,635,0.23489567796681643,0.2,1.0,1.0,475.0,853.0,1.0,1,212.0,1
636,636,0.2785476846537437,0.3,0.0,0.0,437.0,973.0,0.0,1,220.0,1
637,637,0.22549289475845768,0.2,1.0,1.0,460.0,801.0,1.0,1,449.0,1
638,638,-0.26600922477252464,-0.3,1.0,0.0,318.0,826.0,0.0,0,306.0,1
639,639,-0.4068430921578828,-0.4,1.0,0.0,372.0,566.0,0.0,0,472.0,1
640,640,0.22320636883877276,0.2,0.0,0.0,373.0,854.0,0.0,1,263.0,1
641,641,0.5062669039568487,0.5,1.0,1.0,475.0,698.0,1.0,1,257.0,1
642,642,-0.3083743482008512,-0.3,0.0,1.0,295.0,637.0,1.0,0,348.0,1
643,643,-0.30843941412353015,-0.3,0.0,1.0,270.0,510.0,1.0,0,520.0,1
644,644,0.49852252257403873,0.5,0.0,0.0,403.0,880.0,0.0,1,227.0,1
645,645,-0.40232343701455414,-0.4,0.0,1.0,463.0,605.0,1.0,0,202.0,1
646,646,0.7308691195764089,0.7,0.0,0.0,383.0,946.0,0.0,1,61.0,1
647,647,-0.48435372621141787,-0.5,0.0,1.0,401.0,664.0,1.0,0,235.0,1
648,648,0.709271660530241,0.7,1.0,1.0,481.0,851.0,1.0,1,148.0,1
649,649,0.8819707650549401,0.9,1.0,1.0,465.0,910.0,1.0,1,135.0,1
650,650,0.3443119550073387,0.3,0.0,0.0,372.0,940.0,0.0,1,188.0,1
651,651,-0.19739536421352932,-0.2,1.0,0.0,379.0,670.0,0.0,0,421.0,1
652,652,0.6647557540317747,0.7,1.0,1.0,285.0,735.0,1.0,1,100.0,1
653,653,0.39142955649704014,0.4,1.0,1.0,367.0,704.0,1.0,1,259.0,1
654,654,0.34814841892234794,0.3,0.0,0.0,419.0,584.0,0.0,1,347.0,1
655,655,-0.043865515982683734,-0.0,0.0,1.0,353.0,643.0,1.0,0,3794.0,1
656,656,-0.18490141638786484,-0.2,1.0,0.0,270.0,859.0,0.0,0,321.0,1
657,657,-0.2503573963747915,-0.3,1.0,0.0,315.0,556.0,0.0,0,469.0,1
658,658,0.09613749726901866,0.1,1.0,1.0,374.0,996.0,1.0,1,310.0,1
659,659,0.01796003514382738,0.0,0.0,0.0,360.0,714.0,0.0,1,3926.0,1
660,660,0.6396423514504511,0.6,0.0,0.0,343.0,500.0,0.0,1,157.0,1
661,661,0.8630324543395481,0.9,0.0,0.0,253.0,963.0,0.0,1,74.0,1
662,662,0.36830414975271053,0.4,0.0,0.0,251.0,502.0,0.0,1,227.0,1
663,663,0.8292979364510417,0.8,1.0,1.0,423.0,780.0,1.0,1,147.0,1
664,664,-0.5114202260858431,-0.5,0.0,1.0,385.0,502.0,1.0,0,293.0,1
665,665,0.8054241727094013,0.8,0.0,0.0,416.0,830.0,0.0,1,104.0,1
666,666,0.13886918503533685,0.1,0.0,0.0,428.0,579.0,0.0,1,453.0,1
667,667,0.072710962323986,0.1,1.0,1.0,408.0,805.0,1.0,1,717.0,1
668,668,0.8721511040373847,0.9,0.0,0.0,395.0,847.0,0.0,1,88.0,1
669,669,0.2424017986428496,0.2,0.0,0.0,364.0,917.0,0.0,1,189.0,1
670,670,-0.8066186746624101,-0.8,0.0,1.0,418.0,967.0,1.0,0,145.0,1
671,671,0.004681097191442829,0.0,0.0,0.0,481.0,653.0,1.0,0,3866.0,0
672,672,0.0015667184448602267,0.0,1.0,1.0,302.0,764.0,1.0,1,3934.0,1
673,673,0.24745574641834966,0.2,0.0,0.0,469.0,689.0,0.0,1,342.0,1
674,674,0.17241994191598697,0.2,1.0,1.0,385.0,510.0,1.0,1,325.0,1
675,675,0.2508818274589891,0.3,1.0,1.0,282.0,779.0,1.0,1,259.0,1
676,676,-0.23646165449516465,-0.2,0.0,1.0,454.0,790.0,1.0,0,256.0,1
677,677,0.8458685598872139,0.8,0.0,0.0,441.0,793.0,0.0,1,126.0,1
678,678,-0.8774327612731146,-0.9,1.0,0.0,418.0,621.0,0.0,0,161.0,1
679,679,-0.8808731431058977,-0.9,0.0,1.0,270.0,778.0,1.0,0,162.0,1
680,680,-0.5263635422263826,-0.5,1.0,0.0,336.0,594.0,0.0,0,420.0,1
681,681,0.12078797563183052,0.1,0.0,0.0,295.0,938.0,0.0,1,337.0,1
682,682,-0.36579839654684454,-0.4,1.0,0.0,406.0,794.0,0.0,0,230.0,1
683,683,-0.41107132090933446,-0.4,0.0,1.0,374.0,791.0,1.0,0,155.0,1
684,684,0.6027021435232202,0.6,1.0,1.0,441.0,837.0,1.0,1,92.0,1
685,685,0.8431542327550122,0.8,0.0,0.0,297.0,859.0,0.0,1,84.0,1
686,686,0.645507191954335,0.6,0.0,0.0,471.0,865.0,0.0,1,164.0,1
687,687,-0.07786603140337167,-0.1,0.0,1.0,313.0,690.0,1.0,0,797.0,1
688,688,0.8126953188449136,0.8,1.0,1.0,410.0,994.0,1.0,1,156.0,1
689,689,0.7268554815757714,0.7,1.0,1.0,259.0,831.0,1.0,1,120.0,1
690,690,0.4467744055088235,0.4,1.0,1.0,263.0,661.0,1.0,1,296.0,1
691,691,0.12502976346558958,0.1,0.0,0.0,334.0,714.0,0.0,1,702.0,1
692,692,0.4131102790699578,0.4,0.0,0.0,277.0,977.0,0.0,1,166.0,1
693,693,0.7903541436519922,0.8,0.0,0.0,348.0,923.0,0.0,1,149.0,1
694,694,-0.3568630844418359,-0.4,1.0,0.0,491.0,546.0,0.0,0,483.0,1
695,695,-0.8876522377627407,-0.9,0.0,1.0,383.0,578.0,1.0,0,169.0,1
696,696,-0.8381372263421762,-0.8,1.0,0.0,261.0,810.0,0.0,0,189.0,1
697,697,-0.6242598459952632,-0.6,0.0,1.0,436.0,785.0,1.0,0,169.0,1
698,698,0.4980042288653451,0.5,0.0,0.0,321.0,922.0,0.0,1,177.0,1
699,699,-0.8391042882701543,-0.8,1.0,0.0,440.0,822.0,0.0,0,198.0,1
700,700,-0.3230613218713627,-0.3,1.0,0.0,258.0,606.0,0.0,0,346.0,1
701,701,0.055968277588416604,0.1,0.0,0.0,371.0,530.0,0.0,1,1129.0,1
702,702,0.3588281586714618,0.4,0.0,0.0,435.0,868.0,0.0,1,207.0,1
703,703,0.642183526481031,0.6,1.0,1.0,299.0,779.0,1.0,1,122.0,1
704,704,0.5796479699682183,0.6,1.0,1.0,466.0,920.0,1.0,1,154.0,1
705,705,0.6781601665126679,0.7,1.0,1.0,250.0,936.0,1.0,1,114.0,1
706,706,-0.4433336206392581,-0.4,1.0,0.0,437.0,778.0,0.0,0,225.0,1
707,707,-0.25467124183356515,-0.3,0.0,1.0,356.0,659.0,1.0,0,595.0,1
708,708,0.7619289184246519,0.8,0.0,0.0,390.0,763.0,0.0,1,87.0,1
709,709,-0.8147813866755826,-0.8,0.0,1.0,430.0,621.0,1.0,0,139.0,1
710,710,0.08182628834100014,0.1,1.0,1.0,428.0,844.0,1.0,1,448.0,1
711,711,0.24996466791799088,0.2,0.0,0.0,346.0,989.0,0.0,1,225.0,1
712,712,0.6249255250522033,0.6,0.0,0.0,469.0,957.0,0.0,1,144.0,1
713,713,0.18659392538860387,0.2,0.0,0.0,449.0,654.0,0.0,1,357.0,1
714,714,0.829049072848764,0.8,0.0,0.0,442.0,832.0,0.0,1,86.0,1
715,715,0.2986421361654562,0.3,1.0,1.0,255.0,565.0,1.0,1,420.0,1
716,716,0.18567446318371605,0.2,0.0,0.0,474.0,960.0,0.0,1,456.0,1
717,717,-0.6524122704878874,-0.7,0.0,1.0,266.0,902.0,1.0,0,162.0,1
718,718,0.3480473166939134,0.3,1.0,1.0,283.0,579.0,1.0,1,398.0,1
719,719,0.8449985286661156,0.8,1.0,1.0,494.0,753.0,1.0,1,103.0,1
720,720,-0.7929139907820013,-0.8,0.0,1.0,476.0,968.0,1.0,0,186.0,1
721,721,-0.5469556808666345,-0.5,1.0,0.0,467.0,991.0,0.0,0,172.0,1
722,722,-0.772141475511185,-0.8,1.0,0.0,350.0,968.0,0.0,0,182.0,1
723,723,-0.8047343193940754,-0.8,1.0,0.0,429.0,595.0,0.0,0,226.0,1
724,724,0.7124598806733761,0.7,0.0,0.0,486.0,561.0,0.0,1,173.0,1
725,725,-0.6026971917442563,-0.6,0.0,1.0,454.0,797.0,1.0,0,169.0,1
726,726,-0.6220386106225102,-0.6,1.0,0.0,426.0,811.0,0.0,0,223.0,1
727,727,-0.3142940827283548,-0.3,1.0,0.0,387.0,735.0,0.0,0,228.0,1
728,728,-0.056006030517254946,-0.1,0.0,1.0,298.0,552.0,1.0,0,1110.0,1
729,729,0.6413214997933906,0.6,0.0,0.0,366.0,581.0,0.0,1,233.0,1
730,730,-0.24941806545657064,-0.2,0.0,1.0,332.0,840.0,1.0,0,518.0,1
731,731,0.8870047437594669,0.9,0.0,0.0,286.0,856.0,0.0,1,78.0,1
732,732,-0.41138965464977767,-0.4,1.0,0.0,311.0,524.0,0.0,0,585.0,1
733,733,0.551763604526274,0.6,0.0,0.0,331.0,777.0,0.0,1,162.0,1
734,734,-0.82649414944854,-0.8,0.0,1.0,311.0,918.0,1.0,0,71.0,1
735,735,0.6265558015277791,0.6,0.0,0.0,370.0,907.0,0.0,1,143.0,1
736,736,-0.03032137422962189,-0.0,1.0,0.0,349.0,718.0,1.0,1,443.0,0
737,737,-0.6627094680530992,-0.7,1.0,0.0,384.0,692.0,0.0,0,204.0,1
738,738,-0.17937422806825898,-0.2,1.0,0.0,326.0,980.0,0.0,0,194.0,1
739,739,-0.00798545223021685,-0.0,0.0,1.0,302.0,676.0,1.0,0,4022.0,1
740,740,-0.7596503301935725,-0.8,0.0,1.0,435.0,555.0,1.0,0,180.0,1
741,741,-0.6067062180855503,-0.6,1.0,0.0,437.0,506.0,0.0,0,427.0,1
742,742,0.22357871784325567,0.2,0.0,0.0,340.0,873.0,0.0,1,167.0,1
743,743,-0.5018091304222023,-0.5,0.0,1.0,474.0,935.0,1.0,0,201.0,1
744,744,-0.5203465021740117,-0.5,1.0,0.0,399.0,911.0,0.0,0,250.0,1
745,745,0.2579938020202709,0.3,1.0,1.0,442.0,934.0,1.0,1,154.0,1
746,746,0.14014733932948398,0.1,1.0,1.0,398.0,665.0,1.0,1,247.0,1
747,747,-0.24752629866943066,-0.2,0.0,1.0,472.0,852.0,1.0,0,256.0,1
748,748,-0.8214017492359592,-0.8,0.0,1.0,421.0,977.0,1.0,0,82.0,1
749,749,-0.4663566571875774,-0.5,0.0,1.0,285.0,963.0,1.0,0,232.0,1
750,750,0.7622691244390142,0.8,0.0,0.0,367.0,662.0,0.0,1,141.0,1
751,751,0.26208710441451755,0.3,1.0,1.0,489.0,688.0,1.0,1,233.0,1
752,752,-0.3410625886116927,-0.3,0.0,1.0,451.0,962.0,1.0,0,157.0,1
753,753,-0.8029862754783693,-0.8,0.0,1.0,255.0,933.0,1.0,0,142.0,1
754,754,-0.5981328997162965,-0.6,1.0,0.0,367.0,565.0,0.0,0,288.0,1
755,755,-0.04397369836675813,-0.0,0.0,1.0,268.0,803.0,1.0,0,2569.0,1
756,756,-0.1223654965563511,-0.1,1.0,0.0,280.0,933.0,0.0,0,407.0,1
757,757,0.27393424696153057,0.3,0.0,0.0,473.0,776.0,0.0,1,221.0,1
758,758,0.8293127214335086,0.8,0.0,0.0,371.0,773.0,0.0,1,176.0,1
759,759,-0.3791040730947882,-0.4,1.0,0.0,281.0,800.0,0.0,0,449.0,1
760,760,0.638076115383256,0.6,0.0,0.0,332.0,634.0,0.0,1,194.0,1
761,761,-0.14026766707814076,-0.1,0.0,1.0,405.0,864.0,1.0,0,421.0,1
762,762,0.1481094718770538,0.1,0.0,0.0,286.0,836.0,0.0,1,478.0,1
763,763,-0.329053109239102,-0.3,1.0,0.0,479.0,732.0,0.0,0,289.0,1
764,764,-0.6198101608947606,-0.6,0.0,1.0,327.0,929.0,1.0,0,94.0,1
765,765,0.31210424854960095,0.3,1.0,1.0,392.0,974.0,1.0,1,164.0,1
766,766,-0.5389175814668263,-0.5,0.0,1.0,273.0,949.0,1.0,0,128.0,1
767,767,0.7774769167018781,0.8,1.0,1.0,299.0,763.0,1.0,1,108.0,1
768,768,0.22296345682035057,0.2,0.0,0.0,431.0,687.0,0.0,1,382.0,1
769,769,-0.3547236327048372,-0.4,0.0,1.0,499.0,602.0,1.0,0,269.0,1
770,770,0.6526725407581991,0.7,1.0,1.0,441.0,821.0,1.0,1,138.0,1
771,771,-0.5427756094120553,-0.5,0.0,1.0,404.0,509.0,1.0,0,417.0,1
772,772,-0.11000695094250434,-0.1,0.0,1.0,406.0,550.0,1.0,0,544.0,1
773,773,0.49582160929669106,0.5,1.0,1.0,389.0,855.0,1.0,1,226.0,1
774,774,-0.5354947381501973,-0.5,1.0,0.0,285.0,870.0,0.0,0,185.0,1
775,775,0.8445474039000064,0.8,0.0,0.0,440.0,989.0,0.0,1,71.0,1
776,776,0.5860906038062953,0.6,1.0,1.0,367.0,605.0,1.0,1,188.0,1
777,777,-0.3278077579337564,-0.3,0.0,1.0,307.0,518.0,1.0,0,515.0,1
778,778,-0.373491446978263,-0.4,0.0,1.0,294.0,614.0,1.0,0,382.0,1
779,779,0.7961164772809374,0.8,0.0,0.0,333.0,620.0,0.0,1,127.0,1
780,780,-0.71552255501126,-0.7,1.0,0.0,414.0,548.0,0.0,0,198.0,1
781,781,-0.8920060151410341,-0.9,1.0,0.0,433.0,904.0,0.0,0,143.0,1
782,782,-0.16985924767590166,-0.2,0.0,1.0,481.0,737.0,1.0,0,762.0,1
783,783,0.13158158195821412,0.1,0.0,0.0,487.0,775.0,0.0,1,438.0,1
784,784,0.7976552466939523,0.8,1.0,1.0,357.0,976.0,1.0,1,137.0,1
785,785,0.4132820802573117,0.4,0.0,0.0,418.0,857.0,0.0,1,165.0,1
786,786,0.2954087302641525,0.3,0.0,0.0,358.0,835.0,0.0,1,317.0,1
787,787,0.48762182809639565,0.5,0.0,0.0,361.0,906.0,0.0,1,193.0,1
788,788,0.503910880562008,0.5,0.0,0.0,256.0,504.0,0.0,1,290.0,1
789,789,-0.6380681084581803,-0.6,0.0,1.0,466.0,839.0,1.0,0,175.0,1
790,790,0.2946272502012398,0.3,0.0,0.0,497.0,722.0,0.0,1,351.0,1
791,791,-0.16827131924290295,-0.2,1.0,0.0,260.0,703.0,0.0,0,707.0,1
792,792,0.7593697812008241,0.8,1.0,1.0,494.0,644.0,1.0,1,132.0,1
793,793,0.07091932314637606,0.1,1.0,1.0,437.0,806.0,1.0,1,267.0,1
794,794,0.5661325828914264,0.6,0.0,0.0,454.0,529.0,0.0,1,187.0,1
795,795,0.22462207236366083,0.2,0.0,0.0,280.0,839.0,0.0,1,201.0,1
796,796,-0.024860580787880004,-0.0,1.0,0.0,479.0,790.0,0.0,0,2731.0,1
797,797,0.3214346605795343,0.3,1.0,1.0,488.0,998.0,1.0,1,144.0,1
798,798,0.2619136514001027,0.3,1.0,1.0,365.0,727.0,1.0,1,248.0,1
799,799,0.051333977445099044,0.1,1.0,1.0,383.0,639.0,1.0,1,608.0,1
800,800,-0.8991335427377989,-0.9,1.0,0.0,484.0,968.0,0.0,0,188.0,1
801,801,-0.13256531434242147,-0.1,1.0,0.0,381.0,855.0,0.0,0,564.0,1
802,802,-0.8036216970873895,-0.8,0.0,1.0,290.0,644.0,1.0,0,156.0,1
803,803,0.798990756333538,0.8,1.0,1.0,488.0,545.0,1.0,1,187.0,1
804,804,-0.7997586910208643,-0.8,0.0,1.0,328.0,591.0,1.0,0,181.0,1
805,805,0.2021008249217774,0.2,0.0,0.0,289.0,694.0,0.0,1,267.0,1
806,806,-0.5569429841304443,-0.6,1.0,0.0,440.0,666.0,0.0,0,374.0,1
807,807,0.879183367192999,0.9,0.0,0.0,387.0,968.0,0.0,1,105.0,1
808,808,-0.412228458725201,-0.4,0.0,1.0,403.0,985.0,1.0,0,302.0,1
809,809,0.023181483179081086,0.0,1.0,1.0,432.0,557.0,1.0,1,1451.0,1
810,810,0.3560297123169486,0.4,0.0,0.0,311.0,500.0,0.0,1,319.0,1
811,811,0.008638638719415614,0.0,0.0,0.0,334.0,897.0,1.0,0,3769.0,0
812,812,-0.858143297534745,-0.9,1.0,0.0,442.0,974.0,0.0,0,164.0,1
813,813,-0.40808942594656067,-0.4,0.0,1.0,482.0,901.0,1.0,0,237.0,1
814,814,0.73268307862321,0.7,1.0,1.0,297.0,631.0,1.0,1,132.0,1
815,815,-0.0923955844463451,-0.1,0.0,1.0,295.0,882.0,1.0,0,653.0,1
816,816,-0.5812092870061314,-0.6,0.0,1.0,256.0,717.0,1.0,0,137.0,1
817,817,0.47758998007978837,0.5,1.0,1.0,379.0,860.0,1.0,1,141.0,1
818,818,-0.5560470156937185,-0.6,1.0,0.0,325.0,602.0,0.0,0,343.0,1
819,819,-0.8261807516017976,-0.8,0.0,1.0,478.0,709.0,1.0,0,163.0,1
820,820,-0.15835674228289776,-0.2,1.0,0.0,468.0,567.0,0.0,0,1055.0,1
821,821,0.7539657641547645,0.8,0.0,0.0,432.0,723.0,0.0,1,105.0,1
822,822,-0.4668834728650598,-0.5,0.0,1.0,282.0,851.0,1.0,0,227.0,1
823,823,0.8650367236600659,0.9,1.0,1.0,316.0,753.0,1.0,1,151.0,1
824,824,0.558605964722002,0.6,1.0,1.0,403.0,979.0,1.0,1,248.0,1
825,825,0.7070099004916176,0.7,0.0,0.0,456.0,939.0,0.0,1,105.0,1
826,826,0.04822695812590061,0.0,0.0,0.0,378.0,909.0,0.0,1,893.0,1
827,827,0.372160312513344,0.4,0.0,0.0,297.0,759.0,0.0,1,164.0,1
828,828,-0.24393648562903236,-0.2,1.0,0.0,338.0,766.0,0.0,0,456.0,1
829,829,-0.3102783954792713,-0.3,0.0,1.0,378.0,947.0,1.0,0,145.0,1
830,830,-0.8723028912083787,-0.9,1.0,0.0,426.0,780.0,0.0,0,144.0,1
831,831,0.6273237957149852,0.6,0.0,0.0,256.0,572.0,0.0,1,142.0,1
832,832,-0.04560153348515661,-0.0,0.0,1.0,410.0,834.0,1.0,0,886.0,1
833,833,-0.8096926019230435,-0.8,0.0,1.0,319.0,941.0,1.0,0,160.0,1
834,834,0.26111637039994784,0.3,1.0,1.0,301.0,578.0,1.0,1,341.0,1
835,835,-0.3789745129855525,-0.4,0.0,1.0,474.0,944.0,1.0,0,322.0,1
836,836,0.16656812134577426,0.2,1.0,1.0,399.0,796.0,1.0,1,355.0,1
837,837,-0.7217536463872003,-0.7,0.0,1.0,388.0,897.0,1.0,0,135.0,1
838,838,0.6824517254876615,0.7,0.0,0.0,468.0,946.0,0.0,1,36.0,1
839,839,0.3058864598626735,0.3,0.0,0.0,494.0,563.0,0.0,1,323.0,1
840,840,-0.6465842028844424,-0.6,0.0,1.0,448.0,853.0,1.0,0,159.0,1
841,841,0.2912958201612522,0.3,0.0,0.0,335.0,595.0,0.0,1,340.0,1
842,842,-0.5191155505965399,-0.5,0.0,1.0,433.0,600.0,1.0,0,217.0,1
843,843,0.37165591684381616,0.4,1.0,1.0,319.0,991.0,1.0,1,280.0,1
844,844,-0.05746079169986962,-0.1,0.0,1.0,303.0,881.0,1.0,0,476.0,1
845,845,0.278168724861109,0.3,1.0,1.0,448.0,857.0,1.0,1,165.0,1
846,846,0.018234548848738208,0.0,1.0,1.0,493.0,572.0,1.0,1,505.0,1
847,847,0.5315887604319597,0.5,1.0,1.0,430.0,886.0,1.0,1,134.0,1
848,848,0.0005420118224696013,0.0,0.0,0.0,311.0,602.0,1.0,0,3697.0,0
849,849,0.5113005722875473,0.5,1.0,1.0,400.0,812.0,1.0,1,178.0,1
850,850,0.8231854090869087,0.8,0.0,0.0,360.0,646.0,0.0,1,164.0,1
851,851,0.7928398911957725,0.8,0.0,0.0,478.0,886.0,0.0,1,156.0,1
852,852,-0.7050430810721647,-0.7,0.0,1.0,395.0,657.0,1.0,0,108.0,1
853,853,-0.8283938751040717,-0.8,1.0,0.0,273.0,907.0,0.0,0,130.0,1
854,854,-0.10402104308393945,-0.1,0.0,1.0,468.0,755.0,1.0,0,737.0,1
855,855,-0.6232832844015702,-0.6,1.0,0.0,330.0,510.0,0.0,0,310.0,1
856,856,0.8490735777101887,0.8,1.0,1.0,462.0,993.0,1.0,1,95.0,1
857,857,0.06746474180620621,0.1,1.0,1.0,433.0,800.0,1.0,1,267.0,1
858,858,-0.25477958948598267,-0.3,1.0,0.0,289.0,586.0,0.0,0,565.0,1
859,859,-0.277369078300576,-0.3,0.0,1.0,311.0,667.0,1.0,0,242.0,1
860,860,0.4286847066365779,0.4,1.0,1.0,257.0,824.0,1.0,1,209.0,1
861,861,-0.8438648564607922,-0.8,0.0,1.0,389.0,537.0,1.0,0,154.0,1
862,862,-0.7720501339498473,-0.8,0.0,1.0,322.0,635.0,1.0,0,93.0,1
863,863,-0.06102532744016831,-0.1,1.0,0.0,285.0,544.0,0.0,0,2791.0,1
864,864,0.5130224417336883,0.5,1.0,1.0,328.0,826.0,1.0,1,176.0,1
865,865,-0.048443325030367634,-0.0,0.0,1.0,343.0,580.0,1.0,0,2177.0,1
866,866,-0.5393550168969568,-0.5,1.0,0.0,345.0,829.0,0.0,0,286.0,1
867,867,-0.816138364818274,-0.8,0.0,1.0,366.0,598.0,1.0,0,316.0,1
868,868,0.07761129665480382,0.1,1.0,1.0,352.0,501.0,1.0,1,557.0,1
869,869,0.42540269277615883,0.4,0.0,0.0,442.0,981.0,0.0,1,167.0,1
870,870,0.4847230720643173,0.5,1.0,1.0,410.0,742.0,1.0,1,198.0,1
871,871,0.5947917319943518,0.6,1.0,1.0,306.0,635.0,1.0,1,159.0,1
872,872,0.5344998769725776,0.5,0.0,0.0,303.0,905.0,0.0,1,132.0,1
873,873,-0.0006919111047257731,-0.0,1.0,0.0,422.0,865.0,0.0,0,3713.0,1
874,874,-0.3262663649978299,-0.3,0.0,1.0,392.0,557.0,1.0,0,211.0,1
875,875,-0.8066954127270823,-0.8,0.0,1.0,382.0,993.0,1.0,0,185.0,1
876,876,0.061903999961069656,0.1,1.0,1.0,262.0,995.0,1.0,1,293.0,1
877,877,-0.6482543967752903,-0.6,0.0,1.0,480.0,987.0,1.0,0,173.0,1
878,878,-0.8498627373251936,-0.8,1.0,0.0,487.0,809.0,0.0,0,184.0,1
879,879,-0.09865428009984789,-0.1,1.0,0.0,264.0,625.0,0.0,0,1551.0,1
880,880,-0.6444633992992757,-0.6,0.0,1.0,348.0,785.0,1.0,0,337.0,1
881,881,0.30553808012012207,0.3,1.0,1.0,402.0,861.0,1.0,1,237.0,1
882,882,-0.8882936786990836,-0.9,1.0,0.0,312.0,544.0,0.0,0,214.0,1
883,883,0.08224195268424928,0.1,0.0,0.0,441.0,831.0,0.0,1,828.0,1
884,884,0.0004702328997877592,0.0,1.0,1.0,304.0,786.0,1.0,1,2590.0,1
885,885,0.6822623316760127,0.7,1.0,1.0,264.0,925.0,1.0,1,141.0,1
886,886,-0.5990489950429168,-0.6,0.0,1.0,429.0,806.0,1.0,0,215.0,1
887,887,-0.2532089208274966,-0.3,0.0,1.0,265.0,648.0,1.0,0,397.0,1
888,888,0.5335434061301342,0.5,1.0,1.0,396.0,846.0,1.0,1,158.0,1
889,889,-0.13621964739337744,-0.1,1.0,0.0,377.0,959.0,0.0,0,494.0,1
890,890,0.46664170055606957,0.5,1.0,1.0,479.0,622.0,1.0,1,319.0,1
891,891,-0.026797586368624504,-0.0,0.0,1.0,281.0,710.0,1.0,0,4009.0,1
892,892,0.09434994429751276,0.1,1.0,1.0,335.0,949.0,1.0,1,546.0,1
893,893,-0.6087349175792673,-0.6,1.0,0.0,299.0,673.0,0.0,0,218.0,1
894,894,-0.4637952696180044,-0.5,1.0,0.0,368.0,614.0,0.0,0,448.0,1
895,895,0.5986850328990051,0.6,0.0,0.0,404.0,645.0,0.0,1,191.0,1
896,896,0.3651455934461444,0.4,1.0,1.0,395.0,961.0,1.0,1,184.0,1
897,897,0.7299140062198172,0.7,0.0,0.0,449.0,613.0,0.0,1,128.0,1
898,898,0.17485370799451838,0.2,1.0,1.0,304.0,917.0,1.0,1,289.0,1
899,899,-0.7435260099072791,-0.7,1.0,0.0,325.0,839.0,0.0,0,136.0,1
900,900,0.5517361064342686,0.6,0.0,0.0,281.0,807.0,0.0,1,122.0,1
901,901,-0.5758888901142067,-0.6,0.0,1.0,345.0,512.0,1.0,0,293.0,1
902,902,0.3340356053048815,0.3,0.0,0.0,424.0,668.0,0.0,1,358.0,1
903,903,0.841065487525157,0.8,1.0,1.0,398.0,560.0,1.0,1,142.0,1
904,904,-0.15901610877718741,-0.2,0.0,1.0,432.0,833.0,1.0,0,575.0,1
905,905,0.030893030067213112,0.0,1.0,1.0,356.0,914.0,1.0,1,490.0,1
906,906,0.31839962790692977,0.3,1.0,1.0,322.0,514.0,1.0,1,264.0,1
907,907,-0.014763701236222726,-0.0,1.0,0.0,472.0,636.0,1.0,1,3892.0,0
908,908,0.6873150976005323,0.7,1.0,1.0,481.0,781.0,1.0,1,108.0,1
909,909,-0.523609680961739,-0.5,1.0,0.0,386.0,957.0,0.0,0,167.0,1
910,910,-0.5821065584953771,-0.6,1.0,0.0,449.0,729.0,0.0,0,162.0,1
911,911,0.3787985476551551,0.4,1.0,1.0,292.0,867.0,1.0,1,261.0,1
912,912,0.5659809821382026,0.6,0.0,0.0,365.0,884.0,0.0,1,121.0,1
913,913,-0.4982882570142427,-0.5,0.0,1.0,280.0,936.0,1.0,0,174.0,1
914,914,-0.05888378779508363,-0.1,0.0,1.0,323.0,757.0,1.0,0,850.0,1
915,915,-0.05654915616765677,-0.1,1.0,0.0,348.0,976.0,0.0,0,2306.0,1
916,916,0.6391611564141565,0.6,1.0,1.0,373.0,501.0,1.0,1,186.0,1
917,917,0.277122245398676,0.3,1.0,1.0,466.0,769.0,1.0,1,265.0,1
918,918,-0.5547574581353814,-0.6,1.0,0.0,382.0,695.0,0.0,0,313.0,1
919,919,-0.28222236085722563,-0.3,0.0,1.0,365.0,692.0,1.0,0,243.0,1
920,920,0.4330610579063211,0.4,1.0,1.0,478.0,829.0,1.0,1,33.0,1
921,921,0.23560805942859753,0.2,1.0,1.0,331.0,526.0,1.0,1,353.0,1
922,922,-0.47279443083778433,-0.5,1.0,0.0,413.0,644.0,0.0,0,373.0,1
923,923,-0.6343323346624989,-0.6,1.0,0.0,304.0,654.0,0.0,0,262.0,1
924,924,-0.35923451198037903,-0.4,1.0,0.0,321.0,883.0,0.0,0,246.0,1
925,925,0.6555119553185823,0.7,1.0,1.0,401.0,682.0,1.0,1,187.0,1
926,926,0.287526006198901,0.3,1.0,1.0,483.0,646.0,1.0,1,271.0,1
927,927,-0.5008929164751623,-0.5,1.0,0.0,478.0,876.0,0.0,0,216.0,1
928,928,0.5463238928825561,0.5,1.0,1.0,496.0,700.0,1.0,1,144.0,1
929,929,-0.5562369200285007,-0.6,0.0,1.0,471.0,955.0,1.0,0,164.0,1
930,930,0.7732759631069129,0.8,0.0,0.0,456.0,902.0,0.0,1,82.0,1
931,931,0.24462042079867186,0.2,0.0,0.0,488.0,991.0,0.0,1,421.0,1
932,932,-0.03745211438937035,-0.0,0.0,1.0,477.0,504.0,1.0,0,3929.0,1
933,933,-0.6812598599265866,-0.7,0.0,1.0,492.0,524.0,1.0,0,154.0,1
934,934,0.06587266070882991,0.1,0.0,0.0,293.0,543.0,0.0,1,954.0,1
935,935,-0.14290212751946052,-0.1,0.0,1.0,480.0,813.0,1.0,0,457.0,1
936,936,0.33846164739369267,0.3,0.0,0.0,309.0,578.0,0.0,1,223.0,1
937,937,-0.8492560903630592,-0.8,1.0,0.0,346.0,587.0,0.0,0,177.0,1
938,938,0.3505535650184731,0.4,0.0,0.0,469.0,676.0,0.0,1,295.0,1
939,939,-0.6036538170075227,-0.6,1.0,0.0,414.0,612.0,0.0,0,394.0,1
940,940,-0.2729320767349205,-0.3,1.0,0.0,484.0,519.0,0.0,0,607.0,1
941,941,-0.11689506447488929,-0.1,0.0,1.0,428.0,842.0,1.0,0,1010.0,1
942,942,0.42664040382957846,0.4,1.0,1.0,321.0,534.0,1.0,1,225.0,1
943,943,0.791960110099602,0.8,0.0,0.0,374.0,896.0,0.0,1,110.0,1
944,944,0.7192485614637024,0.7,0.0,0.0,277.0,607.0,0.0,1,156.0,1
945,945,0.8747366851950019,0.9,1.0,1.0,479.0,781.0,1.0,1,150.0,1
946,946,0.015114149036842939,0.0,1.0,1.0,413.0,767.0,1.0,1,400.0,1
947,947,-0.4978028909976703,-0.5,1.0,0.0,313.0,632.0,0.0,0,385.0,1
948,948,-0.3575095393249227,-0.4,0.0,1.0,431.0,956.0,1.0,0,283.0,1
949,949,-0.06872766716727918,-0.1,1.0,0.0,288.0,853.0,0.0,0,859.0,1
950,950,0.5098360570959638,0.5,1.0,1.0,328.0,702.0,1.0,1,120.0,1
951,951,-0.029287741973364922,-0.0,0.0,1.0,478.0,945.0,1.0,0,1997.0,1
952,952,-0.7519749595901049,-0.8,1.0,0.0,375.0,704.0,0.0,0,171.0,1
953,953,-0.7859010327743162,-0.8,1.0,0.0,393.0,980.0,0.0,0,147.0,1
954,954,0.6359648711295284,0.6,0.0,0.0,486.0,868.0,0.0,1,186.0,1
955,955,0.3588407989906456,0.4,0.0,0.0,290.0,554.0,0.0,1,296.0,1
956,956,-0.22364209548501424,-0.2,1.0,0.0,368.0,761.0,0.0,0,351.0,1
957,957,-0.43575257508247806,-0.4,0.0,1.0,259.0,788.0,1.0,0,203.0,1
958,958,-0.36390430328914436,-0.4,1.0,0.0,468.0,941.0,0.0,0,161.0,1
959,959,0.05869408144294497,0.1,0.0,0.0,458.0,819.0,0.0,1,1993.0,1
960,960,0.4616735609868613,0.5,1.0,1.0,470.0,752.0,1.0,1,128.0,1
961,961,0.38676236739849557,0.4,0.0,0.0,472.0,978.0,0.0,1,170.0,1
962,962,-0.006558482542367017,-0.0,0.0,1.0,305.0,559.0,0.0,1,4136.0,0
963,963,0.17501927213727353,0.2,0.0,0.0,300.0,759.0,0.0,1,411.0,1
964,964,0.3460089213896126,0.3,1.0,1.0,409.0,938.0,1.0,1,193.0,1
965,965,-0.20791495419171124,-0.2,1.0,0.0,280.0,540.0,0.0,0,470.0,1
966,966,-0.1455221447395466,-0.1,1.0,0.0,299.0,712.0,0.0,0,609.0,1
967,967,-0.4801920224673943,-0.5,0.0,1.0,386.0,944.0,1.0,0,320.0,1
968,968,-0.31327569932395416,-0.3,0.0,1.0,356.0,659.0,1.0,0,385.0,1
969,969,0.775626273357033,0.8,1.0,1.0,445.0,959.0,1.0,1,156.0,1
970,970,-0.0467798765317593,-0.0,1.0,0.0,289.0,804.0,0.0,0,1097.0,1
971,971,-0.4367851169094251,-0.4,1.0,0.0,399.0,900.0,0.0,0,151.0,1
972,972,-0.8014542292499467,-0.8,0.0,1.0,465.0,750.0,1.0,0,165.0,1
973,973,0.6883554309479659,0.7,0.0,0.0,359.0,799.0,0.0,1,152.0,1
974,974,-0.17064860999574294,-0.2,1.0,0.0,435.0,586.0,0.0,0,599.0,1
975,975,-0.20995954035808806,-0.2,0.0,1.0,337.0,513.0,1.0,0,560.0,1
976,976,-0.32102753410802,-0.3,0.0,1.0,406.0,633.0,1.0,0,161.0,1
977,977,0.42921967190680343,0.4,1.0,1.0,347.0,827.0,1.0,1,96.0,1
978,978,0.33778107907030563,0.3,0.0,0.0,352.0,852.0,0.0,1,266.0,1
979,979,0.22641914291699872,0.2,1.0,1.0,266.0,525.0,1.0,1,339.0,1
980,980,0.6257908561334481,0.6,1.0,1.0,497.0,535.0,1.0,1,148.0,1
981,981,0.3982026665962267,0.4,1.0,1.0,391.0,543.0,1.0,1,196.0,1
982,982,0.6496271892900302,0.6,0.0,0.0,306.0,614.0,0.0,1,170.0,1
983,983,0.6309982181155095,0.6,0.0,0.0,422.0,666.0,0.0,1,152.0,1
984,984,0.1837539426284932,0.2,1.0,1.0,428.0,503.0,1.0,1,459.0,1
985,985,0.7176545946283192,0.7,0.0,0.0,250.0,702.0,0.0,1,148.0,1
986,986,0.15980208924440975,0.2,0.0,0.0,421.0,637.0,0.0,1,402.0,1
987,987,-0.4316737071005931,-0.4,1.0,0.0,319.0,789.0,0.0,0,292.0,1
988,988,-0.8920216506435104,-0.9,1.0,0.0,470.0,647.0,0.0,0,323.0,1
989,989,0.4552346246703264,0.5,1.0,1.0,477.0,525.0,1.0,1,218.0,1
990,990,0.5110336547206128,0.5,0.0,0.0,306.0,600.0,0.0,1,274.0,1
991,991,-0.7370206663406401,-0.7,0.0,1.0,256.0,501.0,1.0,0,203.0,1
992,992,0.8993508407584835,0.9,1.0,1.0,279.0,967.0,1.0,1,124.0,1
993,993,0.13791064307748047,0.1,1.0,1.0,264.0,777.0,1.0,1,499.0,1
994,994,-0.017300198425310387,-0.0,0.0,1.0,311.0,670.0,1.0,0,4019.0,1
995,995,-0.6596079075332418,-0.7,1.0,0.0,321.0,942.0,0.0,0,167.0,1
996,996,-0.3770341227885041,-0.4,1.0,0.0,439.0,976.0,0.0,0,215.0,1
997,997,0.6711417699664365,0.7,0.0,0.0,444.0,943.0,0.0,1,123.0,1
998,998,0.3760295727961883,0.4,1.0,1.0,312.0,921.0,1.0,1,217.0,1
999,999,0.18923847753750567,0.2,1.0,1.0,450.0,554.0,1.0,1,356.0,1
1000,1000,0.47654732770961317,0.5,1.0,1.0,288.0,612.0,1.0,1,180.0,1
1001,1001,-0.5614649739558033,-0.6,0.0,1.0,399.0,987.0,1.0,0,134.0,1
1002,1002,0.7238517564681494,0.7,0.0,0.0,332.0,521.0,0.0,1,217.0,1
1003,1003,-0.7593691266109971,-0.8,0.0,1.0,328.0,829.0,1.0,0,143.0,1
1004,1004,0.10533283740066712,0.1,1.0,1.0,369.0,684.0,1.0,1,427.0,1
1005,1005,-0.4264669924041304,-0.4,0.0,1.0,499.0,942.0,1.0,0,179.0,1
1006,1006,0.09468637147884307,0.1,0.0,0.0,431.0,882.0,0.0,1,917.0,1
1007,1007,0.4167340663705127,0.4,0.0,0.0,420.0,505.0,0.0,1,195.0,1
1008,1008,-0.23526678257015798,-0.2,0.0,1.0,300.0,648.0,1.0,0,562.0,1
1009,1009,0.4204750714169695,0.4,0.0,0.0,494.0,760.0,0.0,1,236.0,1
1010,1010,0.26402975950566854,0.3,1.0,1.0,406.0,894.0,1.0,1,160.0,1
1011,1011,0.30307998713691287,0.3,1.0,1.0,479.0,721.0,1.0,1,340.0,1
1012,1012,-0.19744233372160191,-0.2,1.0,0.0,344.0,720.0,0.0,0,396.0,1
1013,1013,-0.13967112304503548,-0.1,1.0,0.0,394.0,966.0,0.0,0,460.0,1
1014,1014,-0.5732344010875594,-0.6,0.0,1.0,488.0,663.0,1.0,0,169.0,1
1015,1015,0.8165630938386615,0.8,1.0,1.0,281.0,676.0,1.0,1,153.0,1
1016,1016,0.6234218347394541,0.6,1.0,1.0,293.0,908.0,1.0,1,99.0,1
1017,1017,-0.17281770973350363,-0.2,1.0,0.0,400.0,832.0,0.0,0,508.0,1
1018,1018,0.5830311009736987,0.6,0.0,0.0,343.0,611.0,0.0,1,136.0,1
1019,1019,0.7206954439855361,0.7,0.0,0.0,405.0,645.0,0.0,1,210.0,1
1020,1020,0.7682348497278252,0.8,1.0,1.0,280.0,877.0,1.0,1,103.0,1
1021,1021,-0.47652662808536966,-0.5,1.0,0.0,315.0,999.0,0.0,0,186.0,1
1022,1022,0.1541773854749081,0.2,0.0,0.0,471.0,582.0,0.0,1,527.0,1
1023,1023,0.29137270136628224,0.3,0.0,0.0,471.0,575.0,0.0,1,334.0,1
1024,1024,0.6810902607071695,0.7,0.0,0.0,320.0,882.0,0.0,1,138.0,1
1025,1025,-0.31246752891920826,-0.3,0.0,1.0,486.0,745.0,1.0,0,239.0,1
1026,1026,0.719964275834109,0.7,0.0,0.0,265.0,978.0,0.0,1,127.0,1
1027,1027,0.8696716655603921,0.9,1.0,1.0,360.0,732.0,1.0,1,138.0,1
1028,1028,-0.5477423168723927,-0.5,1.0,0.0,429.0,784.0,0.0,0,217.0,1
1029,1029,0.8365894855980179,0.8,1.0,1.0,257.0,970.0,1.0,1,113.0,1
1030,1030,0.15326752099313057,0.2,0.0,0.0,482.0,569.0,0.0,1,529.0,1
1031,1031,-0.04027008312878988,-0.0,1.0,0.0,448.0,570.0,0.0,0,852.0,1
1032,1032,-0.06791296714617923,-0.1,0.0,1.0,360.0,780.0,1.0,0,1510.0,1
1033,1033,-0.05931399048702646,-0.1,1.0,0.0,418.0,962.0,0.0,0,2030.0,1
1034,1034,0.17380090119151215,0.2,0.0,0.0,287.0,765.0,0.0,1,508.0,1
1035,1035,0.10272012875611292,0.1,0.0,0.0,254.0,984.0,0.0,1,632.0,1
1036,1036,0.4319701648127837,0.4,1.0,1.0,326.0,579.0,1.0,1,155.0,1
1037,1037,0.5843035859734594,0.6,1.0,1.0,352.0,721.0,1.0,1,207.0,1
1038,1038,0.38097053890807897,0.4,1.0,1.0,299.0,573.0,1.0,1,188.0,1
1039,1039,0.754320465337838,0.8,0.0,0.0,487.0,719.0,0.0,1,124.0,1
1040,1040,0.21429865516413826,0.2,1.0,1.0,369.0,977.0,1.0,1,204.0,1
1041,1041,-0.5047083184780108,-0.5,1.0,0.0,337.0,865.0,0.0,0,148.0,1
1042,1042,-0.07387972982875823,-0.1,1.0,0.0,303.0,933.0,0.0,0,1094.0,1
1043,1043,-0.23755987002596857,-0.2,1.0,0.0,417.0,986.0,0.0,0,187.0,1
1044,1044,0.7187707842326981,0.7,1.0,1.0,473.0,780.0,1.0,1,137.0,1
1045,1045,-0.5144959363535266,-0.5,0.0,1.0,274.0,893.0,1.0,0,163.0,1
1046,1046,-0.0825137795550015,-0.1,1.0,0.0,436.0,544.0,0.0,0,980.0,1
1047,1047,-0.4896226614095183,-0.5,1.0,0.0,267.0,821.0,0.0,0,232.0,1
1048,1048,0.0394883476562059,0.0,1.0,1.0,498.0,774.0,1.0,1,498.0,1
1049,1049,0.6477552559112821,0.6,1.0,1.0,498.0,515.0,1.0,1,197.0,1
1050,1050,0.12704334082047108,0.1,1.0,1.0,364.0,969.0,1.0,1,487.0,1
1051,1051,-0.3314909719299125,-0.3,1.0,0.0,410.0,784.0,0.0,0,366.0,1
1052,1052,0.8395085559157013,0.8,0.0,0.0,423.0,977.0,0.0,1,100.0,1
1053,1053,0.35783342575174626,0.4,1.0,1.0,333.0,853.0,1.0,1,264.0,1
1054,1054,-0.7417975683967513,-0.7,0.0,1.0,372.0,700.0,1.0,0,148.0,1
1055,1055,-0.8633085956575179,-0.9,1.0,0.0,435.0,610.0,0.0,0,165.0,1
1056,1056,0.7813538743975496,0.8,0.0,0.0,488.0,988.0,0.0,1,124.0,1
1057,1057,-0.036930658042424236,-0.0,0.0,1.0,478.0,796.0,1.0,0,1106.0,1
1058,1058,0.5198092084446849,0.5,1.0,1.0,423.0,734.0,1.0,1,153.0,1
1059,1059,0.14039217404229876,0.1,1.0,1.0,328.0,766.0,1.0,1,346.0,1
1060,1060,-0.609558952859685,-0.6,1.0,0.0,300.0,912.0,0.0,0,148.0,1
1061,1061,-0.5432255752965938,-0.5,0.0,1.0,302.0,629.0,1.0,0,359.0,1
1062,1062,-0.462293357218733,-0.5,1.0,0.0,489.0,615.0,0.0,0,456.0,1
1063,1063,-0.13466871384153378,-0.1,1.0,0.0,282.0,847.0,0.0,0,541.0,1
1064,1064,0.20977474160111964,0.2,0.0,0.0,323.0,769.0,0.0,1,268.0,1
1065,1065,0.30812439376992884,0.3,1.0,1.0,469.0,829.0,1.0,1,322.0,1
1066,1066,0.6299420545678337,0.6,0.0,0.0,263.0,524.0,0.0,1,153.0,1
1067,1067,-0.04324965362968092,-0.0,0.0,1.0,464.0,974.0,1.0,0,642.0,1
1068,1068,0.8354968424301233,0.8,1.0,1.0,254.0,664.0,1.0,1,122.0,1
1069,1069,0.2244096583347438,0.2,0.0,0.0,412.0,991.0,0.0,1,157.0,1
1070,1070,0.3057905228164871,0.3,0.0,0.0,419.0,734.0,0.0,1,287.0,1
1071,1071,0.4946291198984393,0.5,0.0,0.0,493.0,744.0,0.0,1,173.0,1
1072,1072,0.8016639203110499,0.8,0.0,0.0,454.0,864.0,0.0,1,82.0,1
1073,1073,-0.13332569469013933,-0.1,1.0,0.0,436.0,559.0,0.0,0,645.0,1
1074,1074,0.014154524143550784,0.0,0.0,0.0,478.0,920.0,1.0,0,3602.0,0
1075,1075,-0.4987692703181774,-0.5,1.0,0.0,422.0,981.0,0.0,0,207.0,1
1076,1076,0.45818981696617034,0.5,0.0,0.0,495.0,896.0,0.0,1,139.0,1
1077,1077,0.6984029471643757,0.7,1.0,1.0,363.0,704.0,1.0,1,123.0,1
1078,1078,0.22340065639340023,0.2,0.0,0.0,479.0,502.0,0.0,1,409.0,1
1079,1079,0.18154064868060094,0.2,0.0,0.0,393.0,753.0,0.0,1,254.0,1
1080,1080,0.8266442207569217,0.8,1.0,1.0,387.0,970.0,1.0,1,93.0,1
1081,1081,-0.44901832788822477,-0.4,1.0,0.0,362.0,953.0,0.0,0,245.0,1
1082,1082,0.547537514781577,0.5,0.0,0.0,266.0,660.0,0.0,1,164.0,1
1083,1083,0.8998889939809588,0.9,1.0,1.0,449.0,920.0,1.0,1,171.0,1
1084,1084,-0.7769349644681575,-0.8,0.0,1.0,376.0,852.0,1.0,0,142.0,1
1085,1085,0.5553211717085119,0.6,0.0,0.0,281.0,810.0,0.0,1,129.0,1
1086,1086,-0.16759819712971136,-0.2,0.0,1.0,275.0,842.0,1.0,0,213.0,1
1087,1087,0.39619290912039895,0.4,1.0,1.0,399.0,877.0,1.0,1,214.0,1
1088,1088,0.6382522872231554,0.6,1.0,1.0,355.0,877.0,1.0,1,128.0,1
1089,1089,0.6580657194933422,0.7,0.0,0.0,454.0,755.0,0.0,1,131.0,1
1090,1090,-0.012912232939831125,-0.0,1.0,0.0,480.0,519.0,1.0,1,1321.0,0
1091,1091,-0.7221033453653078,-0.7,1.0,0.0,261.0,653.0,0.0,0,256.0,1
1092,1092,0.7521411659529643,0.8,0.0,0.0,369.0,819.0,0.0,1,82.0,1
1093,1093,-0.4820993582824034,-0.5,0.0,1.0,375.0,560.0,1.0,0,315.0,1
1094,1094,0.76267073757728,0.8,1.0,1.0,484.0,710.0,1.0,1,106.0,1
1095,1095,0.8552496464764795,0.9,0.0,0.0,400.0,934.0,0.0,1,76.0,1
1096,1096,-0.5282939077165936,-0.5,0.0,1.0,361.0,537.0,1.0,0,252.0,1
1097,1097,0.2052837501905701,0.2,1.0,1.0,263.0,539.0,1.0,1,358.0,1
1098,1098,0.2656769440266328,0.3,1.0,1.0,362.0,875.0,1.0,1,193.0,1
1099,1099,-0.7406031200169567,-0.7,1.0,0.0,409.0,749.0,0.0,0,222.0,1
1100,1100,-0.28015386748594207,-0.3,0.0,1.0,277.0,529.0,1.0,0,444.0,1
1101,1101,0.5432643680477228,0.5,0.0,0.0,415.0,818.0,0.0,1,137.0,1
1102,1102,0.6569235913375776,0.7,0.0,0.0,312.0,648.0,0.0,1,160.0,1
1103,1103,0.08658263368449093,0.1,1.0,1.0,365.0,906.0,1.0,1,389.0,1
1104,1104,0.0287742992258595,0.0,0.0,0.0,447.0,951.0,0.0,1,3602.0,1
1105,1105,-0.3940568368834605,-0.4,1.0,0.0,432.0,533.0,0.0,0,435.0,1
1106,1106,-0.03515430587223367,-0.0,1.0,0.0,474.0,811.0,0.0,0,3715.0,1
1107,1107,0.26790946290771933,0.3,1.0,1.0,276.0,985.0,1.0,1,179.0,1
1108,1108,0.04714760938289131,0.0,1.0,1.0,445.0,790.0,1.0,1,535.0,1
1109,1109,-0.5530712015870956,-0.6,1.0,0.0,358.0,844.0,0.0,0,198.0,1
1110,1110,0.5419234543835229,0.5,1.0,1.0,477.0,622.0,1.0,1,151.0,1
1111,1111,0.5603232663030367,0.6,0.0,0.0,450.0,860.0,0.0,1,200.0,1
1112,1112,0.21940327356518285,0.2,0.0,0.0,419.0,531.0,0.0,1,390.0,1
1113,1113,-0.25216590341725675,-0.3,0.0,1.0,330.0,973.0,1.0,0,287.0,1
1114,1114,0.879439004799866,0.9,1.0,1.0,481.0,604.0,1.0,1,145.0,1
1115,1115,0.565143580649761,0.6,0.0,0.0,343.0,781.0,0.0,1,136.0,1
1116,1116,0.39658025673498754,0.4,1.0,1.0,433.0,912.0,1.0,1,85.0,1
1117,1117,0.8966549366461348,0.9,1.0,1.0,334.0,960.0,1.0,1,96.0,1
1118,1118,-0.7478436098763355,-0.7,0.0,1.0,304.0,891.0,1.0,0,135.0,1
1119,1119,-0.1729594776653287,-0.2,0.0,1.0,282.0,507.0,1.0,0,521.0,1
1120,1120,-0.3457409712140128,-0.3,1.0,0.0,482.0,709.0,0.0,0,419.0,1
1121,1121,0.8769273371382916,0.9,0.0,0.0,301.0,691.0,0.0,1,108.0,1
1122,1122,0.6349801421995255,0.6,1.0,1.0,342.0,600.0,1.0,1,188.0,1
1123,1123,0.11807036141279037,0.1,0.0,0.0,335.0,829.0,0.0,1,856.0,1
1124,1124,0.23121644406140252,0.2,0.0,0.0,468.0,744.0,0.0,1,398.0,1
1125,1125,-0.8275541966341154,-0.8,0.0,1.0,269.0,567.0,1.0,0,204.0,1
1126,1126,0.3548233524828662,0.4,0.0,0.0,292.0,532.0,0.0,1,306.0,1
1127,1127,-0.5432804389835892,-0.5,0.0,1.0,289.0,519.0,1.0,0,282.0,1
1128,1128,-0.1397011318052862,-0.1,0.0,1.0,355.0,917.0,1.0,0,898.0,1
1129,1129,-0.8069709576037594,-0.8,0.0,1.0,253.0,918.0,1.0,0,129.0,1
1130,1130,0.2825648925918459,0.3,1.0,1.0,392.0,594.0,1.0,1,294.0,1
1131,1131,0.7403734583241234,0.7,0.0,0.0,280.0,615.0,0.0,1,155.0,1
1132,1132,0.8810169685043029,0.9,0.0,0.0,387.0,513.0,0.0,1,140.0,1
1133,1133,0.7555247556491848,0.8,0.0,0.0,445.0,501.0,0.0,1,144.0,1
1134,1134,-0.7512874728050197,-0.8,1.0,0.0,252.0,836.0,0.0,0,192.0,1
1135,1135,-0.2678624956662634,-0.3,0.0,1.0,309.0,871.0,1.0,0,340.0,1
1136,1136,-0.4741073826165957,-0.5,1.0,0.0,434.0,660.0,0.0,0,436.0,1
1137,1137,-0.5887484858006152,-0.6,0.0,1.0,465.0,788.0,1.0,0,327.0,1
1138,1138,0.40563800869237265,0.4,0.0,0.0,375.0,524.0,0.0,1,261.0,1
1139,1139,0.41307441143458934,0.4,1.0,1.0,450.0,788.0,1.0,1,142.0,1
1140,1140,-0.4742698476925151,-0.5,0.0,1.0,498.0,787.0,1.0,0,185.0,1
1141,1141,0.49726188463190135,0.5,1.0,1.0,398.0,527.0,1.0,1,325.0,1
1142,1142,-0.4004957015696558,-0.4,0.0,1.0,351.0,703.0,1.0,0,246.0,1
1143,1143,0.1576737118111794,0.2,0.0,0.0,498.0,870.0,0.0,1,432.0,1
1144,1144,-0.6603082210465052,-0.7,0.0,1.0,297.0,747.0,1.0,0,156.0,1
1145,1145,-0.4396540424758636,-0.4,1.0,0.0,455.0,857.0,0.0,0,458.0,1
1146,1146,-0.14652160352364874,-0.1,1.0,0.0,315.0,891.0,0.0,0,634.0,1
1147,1147,-0.3044091085270738,-0.3,1.0,0.0,348.0,899.0,0.0,0,453.0,1
1148,1148,-0.5920832802420072,-0.6,0.0,1.0,423.0,634.0,1.0,0,173.0,1
1149,1149,-0.09869321902097705,-0.1,0.0,1.0,323.0,624.0,1.0,0,683.0,1
1150,1150,-0.8479467059037076,-0.8,0.0,1.0,290.0,604.0,1.0,0,196.0,1
1151,1151,-0.5781008706679556,-0.6,0.0,1.0,315.0,653.0,1.0,0,182.0,1
1152,1152,0.10184749392659442,0.1,0.0,0.0,478.0,794.0,0.0,1,658.0,1
1153,1153,-0.851194709386894,-0.9,0.0,1.0,320.0,509.0,1.0,0,211.0,1
1154,1154,-0.3717910052410036,-0.4,1.0,0.0,262.0,612.0,0.0,0,436.0,1
1155,1155,0.14862309051389533,0.1,0.0,0.0,340.0,947.0,0.0,1,313.0,1
1156,1156,-0.5973642185348492,-0.6,1.0,0.0,444.0,929.0,0.0,0,137.0,1
1157,1157,0.07421964547497528,0.1,0.0,0.0,271.0,817.0,0.0,1,242.0,1
1158,1158,0.8760367765211426,0.9,1.0,1.0,259.0,894.0,1.0,1,67.0,1
1159,1159,-0.32204692625293163,-0.3,0.0,1.0,456.0,920.0,1.0,0,334.0,1
1160,1160,-0.12685614235521114,-0.1,0.0,1.0,271.0,672.0,1.0,0,427.0,1
1161,1161,0.8898981067838571,0.9,1.0,1.0,394.0,728.0,1.0,1,138.0,1
1162,1162,-0.8835360537152389,-0.9,0.0,1.0,328.0,844.0,1.0,0,168.0,1
1163,1163,0.5379890684378491,0.5,1.0,1.0,366.0,543.0,1.0,1,161.0,1
1164,1164,-0.5426760489962961,-0.5,1.0,0.0,365.0,851.0,0.0,0,194.0,1
1165,1165,0.6338444521439884,0.6,0.0,0.0,371.0,616.0,0.0,1,133.0,1
1166,1166,-0.8351439286894118,-0.8,1.0,0.0,310.0,703.0,0.0,0,177.0,1
1167,1167,0.12372381320617076,0.1,0.0,0.0,392.0,939.0,0.0,1,609.0,1
1168,1168,-0.7040817384340377,-0.7,1.0,0.0,451.0,697.0,0.0,0,232.0,1
1169,1169,0.5564837423289258,0.6,1.0,1.0,303.0,774.0,1.0,1,153.0,1
1170,1170,0.11584055294060669,0.1,0.0,0.0,255.0,670.0,0.0,1,415.0,1
1171,1171,-0.04404090267778371,-0.0,1.0,0.0,255.0,533.0,0.0,0,4212.0,1
1172,1172,-0.8642797782360166,-0.9,1.0,0.0,445.0,849.0,0.0,0,186.0,1
1173,1173,0.6340613911501761,0.6,0.0,0.0,388.0,828.0,0.0,1,154.0,1
1174,1174,-0.07781592702222762,-0.1,1.0,0.0,489.0,822.0,0.0,0,1599.0,1
1175,1175,0.052900913763381796,0.1,0.0,0.0,368.0,973.0,0.0,1,1259.0,1
1176,1176,-0.40040994387672324,-0.4,0.0,1.0,389.0,713.0,1.0,0,318.0,1
1177,1177,0.8273733300799985,0.8,0.0,0.0,432.0,523.0,0.0,1,145.0,1
1178,1178,-0.1618717565603669,-0.2,1.0,0.0,336.0,958.0,0.0,0,446.0,1
1179,1179,-0.445399237463639,-0.4,1.0,0.0,444.0,633.0,0.0,0,243.0,1
1180,1180,-0.7057659527192555,-0.7,0.0,1.0,343.0,536.0,1.0,0,181.0,1
1181,1181,0.46684669926403755,0.5,0.0,0.0,409.0,946.0,0.0,1,215.0,1
1182,1182,-0.6569280164336795,-0.7,0.0,1.0,250.0,888.0,1.0,0,182.0,1
1183,1183,0.7958929988742905,0.8,0.0,0.0,334.0,900.0,0.0,1,46.0,1
1184,1184,-0.25974905861570396,-0.3,0.0,1.0,305.0,537.0,1.0,0,388.0,1
1185,1185,0.15556815583323835,0.2,0.0,0.0,321.0,633.0,0.0,1,436.0,1
1186,1186,0.37462224666382016,0.4,1.0,1.0,250.0,539.0,1.0,1,261.0,1
1187,1187,-0.11730434559630043,-0.1,1.0,0.0,475.0,766.0,0.0,0,639.0,1
1188,1188,-0.5669955567821667,-0.6,0.0,1.0,316.0,745.0,1.0,0,149.0,1
1189,1189,0.44881322836275317,0.4,1.0,1.0,282.0,576.0,1.0,1,182.0,1
1190,1190,-0.04981189946270992,-0.0,1.0,0.0,483.0,794.0,0.0,0,2513.0,1
1191,1191,-0.6555211441870272,-0.7,1.0,0.0,490.0,947.0,0.0,0,173.0,1
1192,1192,-0.47714595308517177,-0.5,1.0,0.0,298.0,836.0,0.0,0,226.0,1
1193,1193,0.788653327751344,0.8,0.0,0.0,499.0,823.0,0.0,1,148.0,1
1194,1194,-0.38093838758999354,-0.4,1.0,0.0,276.0,936.0,0.0,0,138.0,1
1195,1195,-0.0021110517557767494,-0.0,1.0,0.0,269.0,610.0,1.0,1,4121.0,0
1196,1196,0.7629368080800619,0.8,0.0,0.0,282.0,592.0,0.0,1,116.0,1
1197,1197,-0.6189647045935058,-0.6,0.0,1.0,311.0,915.0,1.0,0,134.0,1
1198,1198,0.8763069675752496,0.9,1.0,1.0,331.0,741.0,1.0,1,168.0,1
1199,1199,-0.7654362037783351,-0.8,1.0,0.0,391.0,749.0,0.0,0,170.0,1
1200,1200,0.15448924506003958,0.2,1.0,1.0,373.0,985.0,1.0,1,292.0,1
1201,1201,0.2567458408989166,0.3,1.0,1.0,468.0,601.0,1.0,1,251.0,1
1202,1202,0.7712998534383323,0.8,1.0,1.0,305.0,801.0,1.0,1,124.0,1
1203,1203,0.7206803314845039,0.7,0.0,0.0,375.0,786.0,0.0,1,149.0,1
1204,1204,0.30454232397968684,0.3,0.0,0.0,337.0,588.0,0.0,1,275.0,1
1205,1205,-0.3654643126010948,-0.4,0.0,1.0,277.0,929.0,1.0,0,124.0,1
1206,1206,-0.6633721122333822,-0.7,0.0,1.0,369.0,864.0,1.0,0,177.0,1
1207,1207,0.15638193029255476,0.2,1.0,1.0,458.0,753.0,1.0,1,369.0,1
1208,1208,-0.6567991658296497,-0.7,0.0,1.0,375.0,788.0,1.0,0,157.0,1
1209,1209,-0.32611722191210346,-0.3,1.0,0.0,469.0,972.0,0.0,0,209.0,1
1210,1210,-0.7778173511658719,-0.8,1.0,0.0,489.0,599.0,0.0,0,242.0,1
1211,1211,-0.40846670352066844,-0.4,1.0,0.0,469.0,875.0,0.0,0,256.0,1
1212,1212,0.34385218410859386,0.3,1.0,1.0,318.0,950.0,1.0,1,122.0,1
1213,1213,0.544612806164363,0.5,1.0,1.0,344.0,990.0,1.0,1,146.0,1
1214,1214,0.0062501599103254035,0.0,0.0,0.0,490.0,590.0,1.0,0,3920.0,0
1215,1215,-0.5152057996256676,-0.5,0.0,1.0,346.0,983.0,1.0,0,371.0,1
1216,1216,0.7579859832675838,0.8,0.0,0.0,368.0,827.0,0.0,1,105.0,1
1217,1217,-0.7882826009385798,-0.8,0.0,1.0,330.0,666.0,1.0,0,144.0,1
1218,1218,0.15561674720107999,0.2,1.0,1.0,473.0,901.0,1.0,1,506.0,1
1219,1219,-0.5086314149609115,-0.5,0.0,1.0,363.0,753.0,1.0,0,184.0,1
1220,1220,0.330346449613819,0.3,0.0,0.0,339.0,573.0,0.0,1,298.0,1
1221,1221,-0.7404420788999548,-0.7,1.0,0.0,263.0,710.0,0.0,0,157.0,1
1222,1222,-0.22027566762860662,-0.2,0.0,1.0,322.0,576.0,1.0,0,512.0,1
1223,1223,-0.7334698962232793,-0.7,1.0,0.0,327.0,789.0,0.0,0,174.0,1
1224,1224,-0.767182117920068,-0.8,0.0,1.0,268.0,508.0,1.0,0,154.0,1
1225,1225,0.5319088349151812,0.5,0.0,0.0,272.0,928.0,0.0,1,190.0,1
1226,1226,0.8246805102237066,0.8,0.0,0.0,341.0,911.0,0.0,1,98.0,1
1227,1227,-0.7555937646797279,-0.8,0.0,1.0,270.0,621.0,1.0,0,209.0,1
1228,1228,-0.3009081639302822,-0.3,1.0,0.0,466.0,953.0,0.0,0,461.0,1
1229,1229,-0.14906135109778895,-0.1,0.0,1.0,328.0,519.0,1.0,0,643.0,1
1230,1230,-0.6359760837049342,-0.6,0.0,1.0,391.0,818.0,1.0,0,91.0,1
1231,1231,-0.8781940156700253,-0.9,1.0,0.0,460.0,973.0,0.0,0,157.0,1
1232,1232,-0.40628255326677115,-0.4,1.0,0.0,404.0,710.0,0.0,0,306.0,1
1233,1233,-0.4204833869028696,-0.4,1.0,0.0,444.0,739.0,0.0,0,377.0,1
1234,1234,-0.4530137292189374,-0.5,0.0,1.0,402.0,788.0,1.0,0,180.0,1
1235,1235,-0.8175603127678939,-0.8,1.0,0.0,350.0,540.0,0.0,0,210.0,1
1236,1236,0.880020977615188,0.9,1.0,1.0,453.0,926.0,1.0,1,121.0,1
1237,1237,0.49293387607994654,0.5,0.0,0.0,350.0,881.0,0.0,1,169.0,1
1238,1238,-0.720023038830487,-0.7,0.0,1.0,293.0,906.0,1.0,0,151.0,1
1239,1239,0.22752426525924518,0.2,0.0,0.0,265.0,736.0,0.0,1,399.0,1
1240,1240,0.8807323322434527,0.9,0.0,0.0,480.0,838.0,0.0,1,102.0,1
1241,1241,-0.7565718245709447,-0.8,0.0,1.0,318.0,987.0,1.0,0,105.0,1
1242,1242,0.3978246998844389,0.4,1.0,1.0,359.0,666.0,1.0,1,345.0,1
1243,1243,0.5145303097752386,0.5,0.0,0.0,485.0,689.0,0.0,1,176.0,1
1244,1244,0.718804498950346,0.7,0.0,0.0,499.0,973.0,0.0,1,108.0,1
1245,1245,-0.06957988324185105,-0.1,0.0,1.0,490.0,986.0,1.0,0,1214.0,1
1246,1246,0.6775701614579878,0.7,0.0,0.0,369.0,643.0,0.0,1,138.0,1
1247,1247,-0.14916664785834177,-0.1,1.0,0.0,461.0,959.0,0.0,0,320.0,1
1248,1248,0.7689984430803388,0.8,1.0,1.0,470.0,960.0,1.0,1,150.0,1
1249,1249,-0.6941759310334157,-0.7,1.0,0.0,344.0,790.0,0.0,0,176.0,1
1250,1250,0.5042037542956691,0.5,1.0,1.0,300.0,545.0,1.0,1,165.0,1
1251,1251,0.6342750208978222,0.6,1.0,1.0,403.0,967.0,1.0,1,210.0,1
1252,1252,0.42209312289113676,0.4,0.0,0.0,291.0,620.0,0.0,1,339.0,1
1253,1253,0.19341053204664005,0.2,1.0,1.0,434.0,789.0,1.0,1,217.0,1
1254,1254,-0.16129219380809645,-0.2,1.0,0.0,410.0,705.0,0.0,0,525.0,1
1255,1255,0.025877445485935846,0.0,0.0,0.0,359.0,943.0,0.0,1,3698.0,1
1256,1256,0.20604786752021098,0.2,1.0,1.0,383.0,745.0,1.0,1,292.0,1
1257,1257,0.5069773912186312,0.5,1.0,1.0,495.0,957.0,1.0,1,138.0,1
1258,1258,0.7652535944417661,0.8,1.0,1.0,298.0,790.0,1.0,1,162.0,1
1259,1259,-0.23990465120139215,-0.2,0.0,1.0,412.0,503.0,1.0,0,445.0,1
1260,1260,-0.3265081785770788,-0.3,1.0,0.0,421.0,995.0,0.0,0,184.0,1
1261,1261,-0.4012539982728534,-0.4,0.0,1.0,347.0,973.0,1.0,0,130.0,1
1262,1262,0.5531029221180798,0.6,1.0,1.0,438.0,609.0,1.0,1,153.0,1
1263,1263,-0.1875730484745668,-0.2,1.0,0.0,330.0,779.0,0.0,0,371.0,1
1264,1264,-0.8942221093702144,-0.9,1.0,0.0,499.0,984.0,0.0,0,177.0,1
1265,1265,0.2235298599847918,0.2,1.0,1.0,460.0,763.0,1.0,1,257.0,1
1266,1266,-0.6406230257241818,-0.6,0.0,1.0,288.0,708.0,1.0,0,154.0,1
1267,1267,0.3426962865978972,0.3,1.0,1.0,425.0,560.0,1.0,1,195.0,1
1268,1268,0.29948773580828936,0.3,0.0,0.0,333.0,819.0,0.0,1,228.0,1
1269,1269,-0.5362354826363336,-0.5,0.0,1.0,359.0,993.0,1.0,0,238.0,1
1270,1270,0.3048118022167038,0.3,1.0,1.0,429.0,576.0,1.0,1,325.0,1
1271,1271,0.7264404473268277,0.7,1.0,1.0,342.0,920.0,1.0,1,138.0,1
1272,1272,-0.284841515275048,-0.3,0.0,1.0,301.0,975.0,1.0,0,284.0,1
1273,1273,0.8140271709173225,0.8,0.0,0.0,382.0,812.0,0.0,1,156.0,1
1274,1274,-0.15776545842492362,-0.2,1.0,0.0,375.0,599.0,0.0,0,596.0,1
1275,1275,0.750533308616795,0.8,1.0,1.0,440.0,638.0,1.0,1,132.0,1
1276,1276,-0.07685520064052409,-0.1,1.0,0.0,484.0,923.0,0.0,0,1323.0,1
1277,1277,0.8209951961193908,0.8,1.0,1.0,262.0,543.0,1.0,1,145.0,1
1278,1278,0.15936363164045197,0.2,1.0,1.0,271.0,552.0,1.0,1,337.0,1
1279,1279,0.3948946062903508,0.4,1.0,1.0,382.0,823.0,1.0,1,215.0,1
1280,1280,-0.5528743688753643,-0.6,0.0,1.0,476.0,736.0,1.0,0,158.0,1
1281,1281,0.05235304803328178,0.1,0.0,0.0,324.0,805.0,0.0,1,561.0,1
1282,1282,-0.04831871843846136,-0.0,0.0,1.0,335.0,583.0,1.0,0,1562.0,1
1283,1283,-0.5382662149151041,-0.5,1.0,0.0,401.0,758.0,0.0,0,401.0,1
1284,1284,0.7950939113766641,0.8,1.0,1.0,335.0,886.0,1.0,1,119.0,1
1285,1285,0.7279259214965758,0.7,1.0,1.0,392.0,718.0,1.0,1,120.0,1
1286,1286,0.4393260651248755,0.4,1.0,1.0,276.0,897.0,1.0,1,157.0,1
1287,1287,0.1764355146436153,0.2,1.0,1.0,479.0,949.0,1.0,1,252.0,1
1288,1288,-0.7680409179340634,-0.8,0.0,1.0,397.0,971.0,1.0,0,172.0,1
1289,1289,0.15955831861092473,0.2,1.0,1.0,390.0,563.0,1.0,1,367.0,1
1290,1290,0.8002611604696545,0.8,1.0,1.0,359.0,776.0,1.0,1,95.0,1
1291,1291,-0.6066341528724937,-0.6,1.0,0.0,292.0,567.0,0.0,0,471.0,1
1292,1292,-0.3533177590296428,-0.4,1.0,0.0,368.0,650.0,0.0,0,362.0,1
1293,1293,-0.4261587366417205,-0.4,1.0,0.0,458.0,599.0,0.0,0,473.0,1
1294,1294,0.20430891504416004,0.2,1.0,1.0,338.0,795.0,1.0,1,487.0,1
1295,1295,0.19834998394623382,0.2,0.0,0.0,328.0,768.0,0.0,1,394.0,1
1296,1296,0.7358938661310753,0.7,0.0,0.0,482.0,901.0,0.0,1,127.0,1
1297,1297,0.8754296740426565,0.9,1.0,1.0,354.0,977.0,1.0,1,119.0,1
1298,1298,-0.36183565023683995,-0.4,0.0,1.0,364.0,705.0,1.0,0,161.0,1
1299,1299,-0.3594251508957309,-0.4,1.0,0.0,355.0,521.0,0.0,0,484.0,1
1300,1300,0.41901460682351843,0.4,1.0,1.0,382.0,904.0,1.0,1,174.0,1
1301,1301,-0.22511104280354788,-0.2,0.0,1.0,333.0,822.0,1.0,0,365.0,1
1302,1302,-0.6813552142467696,-0.7,1.0,0.0,293.0,806.0,0.0,0,191.0,1
1303,1303,0.39004478423171285,0.4,0.0,0.0,377.0,510.0,0.0,1,303.0,1
1304,1304,-0.692815319942878,-0.7,0.0,1.0,349.0,832.0,1.0,0,179.0,1
1305,1305,0.5725922530868431,0.6,1.0,1.0,383.0,744.0,1.0,1,113.0,1
1306,1306,0.7915261009408449,0.8,0.0,0.0,261.0,963.0,0.0,1,136.0,1
1307,1307,0.08751711675252061,0.1,0.0,0.0,451.0,810.0,0.0,1,489.0,1
1308,1308,-0.22795029389230148,-0.2,0.0,1.0,497.0,937.0,1.0,0,376.0,1
1309,1309,-0.18819060647799246,-0.2,1.0,0.0,297.0,966.0,0.0,0,397.0,1
1310,1310,-0.5281221844829966,-0.5,0.0,1.0,420.0,888.0,1.0,0,122.0,1
1311,1311,0.5546375030228378,0.6,0.0,0.0,496.0,982.0,0.0,1,62.0,1
1312,1312,0.4657411955903644,0.5,0.0,0.0,338.0,854.0,0.0,1,128.0,1
1313,1313,-0.8016640698550938,-0.8,0.0,1.0,333.0,567.0,1.0,0,190.0,1
1314,1314,0.7029847201056386,0.7,1.0,1.0,387.0,972.0,1.0,1,221.0,1
1315,1315,0.6059841931107156,0.6,0.0,0.0,277.0,972.0,0.0,1,121.0,1
1316,1316,-0.19616413143613753,-0.2,0.0,1.0,262.0,897.0,1.0,0,291.0,1
1317,1317,-0.5992449847709966,-0.6,1.0,0.0,483.0,564.0,0.0,0,333.0,1
1318,1318,-0.7510141842100212,-0.8,1.0,0.0,474.0,850.0,0.0,0,116.0,1
1319,1319,-0.06569499655297051,-0.1,0.0,1.0,383.0,772.0,1.0,0,995.0,1
1320,1320,-0.05932794725767365,-0.1,0.0,1.0,395.0,564.0,1.0,0,351.0,1
1321,1321,-0.4473647392890613,-0.4,0.0,1.0,410.0,537.0,1.0,0,293.0,1
1322,1322,-0.8564505344619454,-0.9,0.0,1.0,385.0,557.0,1.0,0,188.0,1
1323,1323,0.330440305931173,0.3,1.0,1.0,255.0,582.0,1.0,1,293.0,1
1324,1324,0.7025447956681016,0.7,0.0,0.0,432.0,727.0,0.0,1,141.0,1
1325,1325,0.5859301524900763,0.6,1.0,1.0,288.0,659.0,1.0,1,163.0,1
1326,1326,0.7121518676202233,0.7,1.0,1.0,335.0,913.0,1.0,1,102.0,1
1327,1327,0.7914826204424131,0.8,1.0,1.0,412.0,521.0,1.0,1,187.0,1
1328,1328,0.22894219493886447,0.2,0.0,0.0,287.0,803.0,0.0,1,250.0,1
1329,1329,0.604950481688444,0.6,1.0,1.0,480.0,701.0,1.0,1,139.0,1
1330,1330,0.49653519878065067,0.5,1.0,1.0,389.0,527.0,1.0,1,204.0,1
1331,1331,-0.6604643449207674,-0.7,1.0,0.0,351.0,738.0,0.0,0,181.0,1
1332,1332,-0.016727210507167745,-0.0,1.0,0.0,437.0,671.0,1.0,1,3892.0,0
1333,1333,0.7722202072664389,0.8,1.0,1.0,431.0,697.0,1.0,1,162.0,1
1334,1334,0.57548709506836,0.6,1.0,1.0,456.0,996.0,1.0,1,98.0,1
1335,1335,-0.28775537686636876,-0.3,1.0,0.0,263.0,969.0,0.0,0,298.0,1
1336,1336,0.8038524454894193,0.8,0.0,0.0,425.0,982.0,0.0,1,33.0,1
1337,1337,-0.4026395197411546,-0.4,0.0,1.0,254.0,694.0,1.0,0,212.0,1
1338,1338,-0.6933116308168362,-0.7,0.0,1.0,393.0,864.0,1.0,0,133.0,1
1339,1339,0.7102138558429064,0.7,0.0,0.0,301.0,700.0,0.0,1,169.0,1
1340,1340,0.6010140098580089,0.6,0.0,0.0,373.0,946.0,0.0,1,111.0,1
1341,1341,-0.4020619024246459,-0.4,1.0,0.0,257.0,819.0,0.0,0,404.0,1
1342,1342,-0.42240470247608136,-0.4,1.0,0.0,385.0,569.0,0.0,0,386.0,1
1343,1343,-0.0754629207395564,-0.1,1.0,0.0,344.0,609.0,0.0,0,2237.0,1
1344,1344,-0.7002655037365552,-0.7,1.0,0.0,497.0,797.0,0.0,0,156.0,1
1345,1345,-0.09012166482442863,-0.1,1.0,0.0,474.0,790.0,0.0,0,1076.0,1
1346,1346,0.46436512637626526,0.5,0.0,0.0,329.0,875.0,0.0,1,206.0,1
1347,1347,-0.041263194083501764,-0.0,0.0,1.0,466.0,929.0,1.0,0,695.0,1
1348,1348,-0.058352909301179756,-0.1,0.0,1.0,427.0,577.0,1.0,0,1766.0,1
1349,1349,-0.5414704146664813,-0.5,0.0,1.0,433.0,704.0,1.0,0,173.0,1
1350,1350,-0.2580126790322679,-0.3,1.0,0.0,393.0,985.0,0.0,0,322.0,1
1351,1351,-0.5193899748578723,-0.5,1.0,0.0,339.0,507.0,0.0,0,434.0,1
1352,1352,0.34109075676609046,0.3,1.0,1.0,327.0,880.0,1.0,1,293.0,1
1353,1353,0.03443426557776452,0.0,1.0,1.0,400.0,576.0,1.0,1,854.0,1
1354,1354,0.7481840684160374,0.7,0.0,0.0,473.0,628.0,0.0,1,199.0,1
1355,1355,-0.10922472043659148,-0.1,0.0,1.0,393.0,902.0,1.0,0,625.0,1
1356,1356,-0.41718036787774787,-0.4,1.0,0.0,496.0,898.0,0.0,0,296.0,1
1357,1357,0.010588695627181899,0.0,0.0,0.0,448.0,837.0,1.0,0,3715.0,0
1358,1358,0.010760765400233963,0.0,0.0,0.0,389.0,960.0,0.0,1,3031.0,1
1359,1359,0.2627886069033004,0.3,1.0,1.0,256.0,928.0,1.0,1,286.0,1
1360,1360,-0.6339055741914261,-0.6,1.0,0.0,421.0,657.0,0.0,0,212.0,1
1361,1361,0.5791868555625271,0.6,0.0,0.0,296.0,939.0,0.0,1,115.0,1
1362,1362,0.13873194870331929,0.1,1.0,1.0,313.0,510.0,1.0,1,557.0,1
1363,1363,-0.0008515078368407369,-0.0,1.0,0.0,358.0,770.0,1.0,1,1442.0,0
1364,1364,-0.14688745220344734,-0.1,1.0,0.0,399.0,963.0,0.0,0,308.0,1
1365,1365,-0.8821107928152782,-0.9,1.0,0.0,310.0,633.0,0.0,0,267.0,1
1366,1366,0.5625624520775289,0.6,1.0,1.0,284.0,551.0,1.0,1,225.0,1
1367,1367,0.28395421199095827,0.3,1.0,1.0,288.0,979.0,1.0,1,383.0,1
1368,1368,-0.8971007008925918,-0.9,1.0,0.0,307.0,678.0,0.0,0,195.0,1
1369,1369,-0.8661285235404453,-0.9,1.0,0.0,289.0,924.0,0.0,0,157.0,1
1370,1370,0.6132793960986723,0.6,0.0,0.0,400.0,809.0,0.0,1,141.0,1
1371,1371,0.31195149250319487,0.3,1.0,1.0,470.0,882.0,1.0,1,158.0,1
1372,1372,0.2942632558513222,0.3,1.0,1.0,467.0,713.0,1.0,1,280.0,1
1373,1373,0.037924855067999697,0.0,1.0,1.0,464.0,781.0,1.0,1,265.0,1
1374,1374,-0.4291322120780655,-0.4,0.0,1.0,289.0,617.0,1.0,0,234.0,1
1375,1375,0.4423783725258631,0.4,0.0,0.0,358.0,595.0,0.0,1,167.0,1
1376,1376,0.3477133605460566,0.3,0.0,0.0,468.0,983.0,0.0,1,189.0,1
1377,1377,-0.7489148841952232,-0.7,1.0,0.0,468.0,584.0,0.0,0,208.0,1
1378,1378,0.2567144047200346,0.3,0.0,0.0,489.0,986.0,0.0,1,155.0,1
1379,1379,-0.5707906803920886,-0.6,0.0,1.0,257.0,956.0,1.0,0,187.0,1
1380,1380,0.4155385709549805,0.4,0.0,0.0,396.0,989.0,0.0,1,225.0,1
1381,1381,0.8523640452528068,0.9,0.0,0.0,443.0,542.0,0.0,1,135.0,1
1382,1382,-0.2452165082194685,-0.2,1.0,0.0,411.0,539.0,0.0,0,630.0,1
1383,1383,0.2908286517396338,0.3,0.0,0.0,428.0,996.0,0.0,1,176.0,1
1384,1384,0.604218673241839,0.6,0.0,0.0,435.0,788.0,0.0,1,137.0,1
1385,1385,-0.6182901767849418,-0.6,0.0,1.0,323.0,603.0,1.0,0,204.0,1
1386,1386,-0.3544110451498206,-0.4,1.0,0.0,488.0,572.0,0.0,0,240.0,1
1387,1387,0.2479900851160347,0.2,0.0,0.0,356.0,575.0,0.0,1,239.0,1
1388,1388,0.09666622014045323,0.1,1.0,1.0,329.0,805.0,1.0,1,776.0,1
1389,1389,-0.4611366834455822,-0.5,1.0,0.0,336.0,749.0,0.0,0,285.0,1
1390,1390,0.3791903386511125,0.4,1.0,1.0,407.0,556.0,1.0,1,317.0,1
1391,1391,0.5229843397082446,0.5,1.0,1.0,436.0,941.0,1.0,1,133.0,1
1392,1392,-0.7762045397316525,-0.8,1.0,0.0,360.0,881.0,0.0,0,159.0,1
1393,1393,-0.3366921837954038,-0.3,1.0,0.0,317.0,621.0,0.0,0,432.0,1
1394,1394,0.08058871282855196,0.1,1.0,1.0,473.0,935.0,1.0,1,342.0,1
1395,1395,-0.010031738116052846,-0.0,0.0,1.0,338.0,557.0,1.0,0,1445.0,1
1396,1396,0.805366332980943,0.8,1.0,1.0,366.0,820.0,1.0,1,104.0,1
1397,1397,-0.0736478547347087,-0.1,1.0,0.0,328.0,563.0,0.0,0,1559.0,1
1398,1398,0.632795765281119,0.6,0.0,0.0,462.0,688.0,0.0,1,120.0,1
1399,1399,-0.03799295047298379,-0.0,0.0,1.0,419.0,900.0,1.0,0,3011.0,1
1400,1400,0.5989609821270373,0.6,0.0,0.0,287.0,525.0,0.0,1,188.0,1
1401,1401,-0.5384278474313289,-0.5,1.0,0.0,492.0,678.0,0.0,0,280.0,1
1402,1402,-0.47472085894591326,-0.5,1.0,0.0,456.0,895.0,0.0,0,199.0,1
1403,1403,-0.4101701563432778,-0.4,0.0,1.0,478.0,757.0,1.0,0,145.0,1
1404,1404,0.20772332637923474,0.2,1.0,1.0,459.0,893.0,1.0,1,248.0,1
1405,1405,-0.17590646812519595,-0.2,0.0,1.0,360.0,695.0,1.0,0,485.0,1
1406,1406,-0.49615487248447027,-0.5,1.0,0.0,358.0,847.0,0.0,0,275.0,1
1407,1407,0.11501597573753874,0.1,0.0,0.0,467.0,584.0,0.0,1,559.0,1
1408,1408,-0.4956378301130385,-0.5,0.0,1.0,384.0,952.0,1.0,0,164.0,1
1409,1409,-0.690286438409259,-0.7,0.0,1.0,261.0,526.0,1.0,0,233.0,1
1410,1410,0.42217962553568966,0.4,1.0,1.0,427.0,887.0,1.0,1,126.0,1
1411,1411,-0.3971999369377248,-0.4,1.0,0.0,380.0,850.0,0.0,0,130.0,1
1412,1412,-0.5781883730323032,-0.6,1.0,0.0,356.0,674.0,0.0,0,330.0,1
1413,1413,0.5361221515298672,0.5,0.0,0.0,280.0,887.0,0.0,1,193.0,1
1414,1414,0.3868937523204451,0.4,1.0,1.0,299.0,906.0,1.0,1,145.0,1
1415,1415,-0.46942059983881734,-0.5,1.0,0.0,356.0,881.0,0.0,0,133.0,1
1416,1416,0.27355062987372925,0.3,1.0,1.0,304.0,781.0,1.0,1,205.0,1
1417,1417,-0.6075607509297978,-0.6,1.0,0.0,412.0,612.0,0.0,0,256.0,1
1418,1418,-0.14173595188336985,-0.1,1.0,0.0,321.0,809.0,0.0,0,470.0,1
1419,1419,0.47774592065836397,0.5,0.0,0.0,251.0,622.0,0.0,1,227.0,1
1420,1420,0.5076743700307301,0.5,1.0,1.0,289.0,839.0,1.0,1,142.0,1
1421,1421,-0.592879790185976,-0.6,0.0,1.0,470.0,912.0,1.0,0,108.0,1
1422,1422,-0.8128681165763672,-0.8,1.0,0.0,408.0,725.0,0.0,0,207.0,1
1423,1423,0.8684643376740487,0.9,1.0,1.0,318.0,640.0,1.0,1,142.0,1
1424,1424,0.22461514802054083,0.2,1.0,1.0,329.0,608.0,1.0,1,543.0,1
1425,1425,0.8046811081759458,0.8,0.0,0.0,330.0,780.0,0.0,1,110.0,1
1426,1426,0.1862552247276411,0.2,0.0,0.0,403.0,797.0,0.0,1,350.0,1
1427,1427,0.17839729551735417,0.2,0.0,0.0,261.0,690.0,0.0,1,219.0,1
1428,1428,0.6984393291506722,0.7,1.0,1.0,336.0,663.0,1.0,1,201.0,1
1429,1429,-0.7753885599309782,-0.8,0.0,1.0,462.0,639.0,1.0,0,149.0,1
1430,1430,0.7283287872355294,0.7,0.0,0.0,411.0,995.0,0.0,1,164.0,1
1431,1431,0.7222648837511144,0.7,1.0,1.0,437.0,864.0,1.0,1,179.0,1
1432,1432,0.3604211023014924,0.4,0.0,0.0,397.0,734.0,0.0,1,219.0,1
1433,1433,0.13492860864077338,0.1,1.0,1.0,448.0,697.0,1.0,1,365.0,1
1434,1434,-0.11501147837815351,-0.1,1.0,0.0,386.0,940.0,0.0,0,534.0,1
1435,1435,0.738816735813476,0.7,1.0,1.0,499.0,651.0,1.0,1,140.0,1
1436,1436,0.6918731852081691,0.7,0.0,0.0,407.0,516.0,0.0,1,107.0,1
1437,1437,0.44323788712835366,0.4,0.0,0.0,341.0,883.0,0.0,1,176.0,1
1438,1438,0.8393122525334361,0.8,0.0,0.0,255.0,585.0,0.0,1,110.0,1
1439,1439,-0.1374043080615811,-0.1,0.0,1.0,263.0,507.0,1.0,0,450.0,1
1440,1440,-0.758403111044343,-0.8,0.0,1.0,363.0,579.0,1.0,0,198.0,1
1441,1441,0.7698461555130404,0.8,0.0,0.0,380.0,778.0,0.0,1,162.0,1
1442,1442,0.4623734084067571,0.5,0.0,0.0,464.0,744.0,0.0,1,112.0,1
1443,1443,-0.08808557985617815,-0.1,0.0,1.0,334.0,659.0,1.0,0,647.0,1
1444,1444,-0.6947096520427446,-0.7,0.0,1.0,307.0,574.0,1.0,0,159.0,1
1445,1445,0.3251953596017586,0.3,0.0,0.0,401.0,678.0,0.0,1,421.0,1
1446,1446,0.04676609229135542,0.0,1.0,1.0,266.0,778.0,1.0,1,1006.0,1
1447,1447,0.7194947397994566,0.7,1.0,1.0,395.0,722.0,1.0,1,183.0,1
1448,1448,0.5290219091418572,0.5,1.0,1.0,459.0,557.0,1.0,1,234.0,1
1449,1449,0.6899412172060037,0.7,0.0,0.0,374.0,516.0,0.0,1,150.0,1
1450,1450,0.3739919128284789,0.4,0.0,0.0,424.0,551.0,0.0,1,355.0,1
1451,1451,-0.7888032362777402,-0.8,1.0,0.0,394.0,606.0,0.0,0,190.0,1
1452,1452,0.6966434899551367,0.7,1.0,1.0,471.0,982.0,1.0,1,127.0,1
1453,1453,-0.38621654049778953,-0.4,1.0,0.0,425.0,539.0,0.0,0,526.0,1
1454,1454,-0.09574296041068908,-0.1,1.0,0.0,389.0,610.0,0.0,0,1521.0,1
1455,1455,-0.5186653413511089,-0.5,0.0,1.0,336.0,966.0,1.0,0,98.0,1
1456,1456,0.41721428693053697,0.4,1.0,1.0,300.0,589.0,1.0,1,241.0,1
1457,1457,0.7562629059781355,0.8,0.0,0.0,306.0,708.0,0.0,1,146.0,1
1458,1458,-0.07503598839355197,-0.1,0.0,1.0,370.0,865.0,1.0,0,565.0,1
1459,1459,0.7124775541415672,0.7,0.0,0.0,430.0,919.0,0.0,1,121.0,1
1460,1460,-0.8044636828891009,-0.8,0.0,1.0,338.0,683.0,1.0,0,149.0,1
1461,1461,-0.6691037377172373,-0.7,1.0,0.0,369.0,556.0,0.0,0,205.0,1
1462,1462,-0.5354735718102639,-0.5,0.0,1.0,479.0,700.0,1.0,0,201.0,1
1463,1463,-0.6157616175928139,-0.6,1.0,0.0,463.0,872.0,0.0,0,205.0,1
1464,1464,-0.7544213044019957,-0.8,1.0,0.0,497.0,805.0,0.0,0,158.0,1
1465,1465,-0.3665364869165121,-0.4,1.0,0.0,435.0,876.0,0.0,0,159.0,1
1466,1466,0.8691405496571997,0.9,1.0,1.0,478.0,901.0,1.0,1,161.0,1
1467,1467,0.03923410220548895,0.0,1.0,1.0,261.0,873.0,1.0,1,846.0,1
1468,1468,-0.40034139779340383,-0.4,0.0,1.0,383.0,928.0,1.0,0,379.0,1
1469,1469,-0.3304358496892147,-0.3,1.0,0.0,339.0,565.0,0.0,0,466.0,1
1470,1470,0.8540170042091916,0.9,0.0,0.0,394.0,753.0,0.0,1,133.0,1
1471,1471,0.16982993470002994,0.2,0.0,0.0,488.0,685.0,0.0,1,337.0,1
1472,1472,-0.28263502869971624,-0.3,0.0,1.0,258.0,768.0,1.0,0,424.0,1
1473,1473,0.6018353241970346,0.6,0.0,0.0,448.0,680.0,0.0,1,202.0,1
1474,1474,-0.8452020930894957,-0.8,0.0,1.0,442.0,574.0,1.0,0,164.0,1
1475,1475,-0.7285662603041534,-0.7,1.0,0.0,331.0,867.0,0.0,0,142.0,1
1476,1476,0.2226082654050131,0.2,1.0,1.0,296.0,827.0,1.0,1,267.0,1
1477,1477,-0.5400178927823491,-0.5,0.0,1.0,263.0,532.0,1.0,0,345.0,1
1478,1478,0.7424297506189957,0.7,0.0,0.0,419.0,575.0,0.0,1,146.0,1
1479,1479,-0.8531148583737094,-0.9,0.0,1.0,395.0,521.0,1.0,0,184.0,1
1480,1480,0.7575120231607789,0.8,0.0,0.0,478.0,980.0,0.0,1,72.0,1
1481,1481,-0.6029566365066834,-0.6,1.0,0.0,361.0,672.0,0.0,0,257.0,1
1482,1482,0.3876842387070324,0.4,1.0,1.0,401.0,721.0,1.0,1,218.0,1
1483,1483,0.6058423916783636,0.6,0.0,0.0,276.0,835.0,0.0,1,149.0,1
1484,1484,0.5605366943934772,0.6,1.0,1.0,491.0,896.0,1.0,1,143.0,1
1485,1485,0.26726059958551407,0.3,1.0,1.0,486.0,882.0,1.0,1,162.0,1
1486,1486,-0.09162219645056235,-0.1,0.0,1.0,276.0,580.0,1.0,0,634.0,1
1487,1487,-0.4508760161213468,-0.5,1.0,0.0,395.0,907.0,0.0,0,378.0,1
1488,1488,-0.33288274120213135,-0.3,0.0,1.0,262.0,807.0,1.0,0,191.0,1
1489,1489,0.8556702557563588,0.9,0.0,0.0,472.0,920.0,0.0,1,98.0,1
1490,1490,-0.06676508495421385,-0.1,1.0,0.0,338.0,782.0,0.0,0,520.0,1
1491,1491,0.056126877976341194,0.1,1.0,1.0,371.0,573.0,1.0,1,1176.0,1
1492,1492,-0.6895439025716708,-0.7,1.0,0.0,332.0,844.0,0.0,0,204.0,1
1493,1493,-0.3583626667252082,-0.4,1.0,0.0,385.0,771.0,0.0,0,494.0,1
