,trial,coherence,coherence_bin,green_side,correct_side,target_onset,checker_onset,decision,green_decision,decision_time,correct_decision
0,0,-0.19039445647525588,-0.2,0.0,1.0,304.0,903.0,1.0,0,243.0,1
1,1,0.8239308576599601,0.8,1.0,1.0,476.0,953.0,1.0,1,131.0,1
2,2,-0.7193161486928524,-0.7,1.0,0.0,414.0,569.0,0.0,0,217.0,1
3,3,0.06551235132115951,0.1,1.0,1.0,315.0,956.0,1.0,1,459.0,1
4,4,-0.7107908978810704,-0.7,0.0,1.0,274.0,779.0,1.0,0,57.0,1
5,5,-0.2209097340383035,-0.2,1.0,0.0,494.0,783.0,0.0,0,243.0,1
6,6,0.6883679562152142,0.7,1.0,1.0,300.0,900.0,1.0,1,200.0,1
7,7,-0.8864834339583381,-0.9,0.0,1.0,333.0,797.0,1.0,0,220.0,1
8,8,0.6798479915168608,0.7,0.0,0.0,267.0,659.0,0.0,1,274.0,1
9,9,-0.7124043758504424,-0.7,0.0,1.0,252.0,949.0,1.0,0,129.0,1
10,10,-0.5800437075086418,-0.6,0.0,1.0,432.0,770.0,1.0,0,148.0,1
11,11,-0.27577907831874604,-0.3,0.0,1.0,364.0,700.0,1.0,0,476.0,1
12,12,-0.1362658001123156,-0.1,0.0,1.0,304.0,919.0,1.0,0,647.0,1
13,13,-0.5485662299171847,-0.5,0.0,1.0,393.0,598.0,1.0,0,299.0,1
14,14,0.34368888386381646,0.3,1.0,1.0,295.0,818.0,1.0,1,307.0,1
15,15,0.44723930036955795,0.4,1.0,1.0,295.0,720.0,1.0,1,245.0,1
16,16,0.8446248951227738,0.8,1.0,1.0,493.0,814.0,1.0,1,373.0,1
17,17,-0.2422014999838923,-0.2,0.0,1.0,440.0,888.0,1.0,0,232.0,1
18,18,-0.0338160095006792,-0.0,0.0,1.0,414.0,743.0,0.0,1,1843.0,0
19,19,-0.5515054269297068,-0.6,0.0,1.0,343.0,589.0,1.0,0,208.0,1
20,20,-0.633669323953614,-0.6,1.0,0.0,318.0,704.0,0.0,0,418.0,1
21,21,0.042752906222840226,0.0,1.0,1.0,381.0,951.0,1.0,1,718.0,1
22,22,0.8853129704188701,0.9,0.0,0.0,403.0,893.0,0.0,1,124.0,1
23,23,0.23354247509491832,0.2,0.0,0.0,335.0,978.0,0.0,1,347.0,1
24,24,0.7621360693370606,0.8,1.0,1.0,383.0,963.0,1.0,1,124.0,1
25,25,-0.8389849700454687,-0.8,0.0,1.0,453.0,883.0,1.0,0,154.0,1
26,26,-0.6320726975527883,-0.6,1.0,0.0,400.0,749.0,0.0,0,181.0,1
27,27,-0.2471015943037751,-0.2,0.0,1.0,292.0,700.0,1.0,0,968.0,1
28,28,0.081846957422406,0.1,0.0,0.0,318.0,690.0,0.0,1,1882.0,1
29,29,0.6238422565431007,0.6,0.0,0.0,276.0,735.0,0.0,1,169.0,1
30,30,-0.4423022034426275,-0.4,0.0,1.0,488.0,612.0,1.0,0,600.0,1
31,31,0.0032852835753667264,0.0,1.0,1.0,443.0,625.0,1.0,1,1932.0,1
32,32,-0.8757234887065405,-0.9,1.0,0.0,332.0,739.0,0.0,0,309.0,1
33,33,0.757438881413235,0.8,1.0,1.0,412.0,916.0,1.0,1,202.0,1
34,34,0.19504314720408022,0.2,0.0,0.0,497.0,582.0,0.0,1,931.0,1
35,35,-0.7984958828080644,-0.8,1.0,0.0,459.0,560.0,0.0,0,361.0,1
36,36,0.1232433965658356,0.1,1.0,1.0,256.0,812.0,1.0,1,1112.0,1
37,37,-0.6120049754756667,-0.6,1.0,0.0,362.0,847.0,0.0,0,161.0,1
38,38,0.2251900028632784,0.2,0.0,0.0,465.0,868.0,0.0,1,317.0,1
39,39,-0.29842842128149394,-0.3,1.0,0.0,337.0,567.0,0.0,0,496.0,1
40,40,-0.4810480781218212,-0.5,0.0,1.0,482.0,973.0,1.0,0,155.0,1
41,41,-0.7012037289810689,-0.7,0.0,1.0,357.0,588.0,1.0,0,335.0,1
42,42,-0.18909884414945732,-0.2,0.0,1.0,417.0,644.0,1.0,0,279.0,1
43,43,0.023625448022920215,0.0,1.0,1.0,288.0,872.0,0.0,0,1840.0,0
44,44,0.7154858462874253,0.7,0.0,0.0,284.0,771.0,0.0,1,115.0,1
45,45,0.1539241272337416,0.2,0.0,0.0,262.0,733.0,0.0,1,375.0,1
46,46,-0.5880144342135916,-0.6,0.0,1.0,294.0,924.0,1.0,0,112.0,1
47,47,-0.1970654381862299,-0.2,0.0,1.0,376.0,908.0,1.0,0,216.0,1
48,48,0.6027405007673999,0.6,1.0,1.0,250.0,637.0,1.0,1,283.0,1
49,49,-0.8285625186917865,-0.8,1.0,0.0,333.0,853.0,0.0,0,114.0,1
50,50,-0.6499486968505466,-0.6,0.0,1.0,384.0,555.0,1.0,0,161.0,1
51,51,0.14885407504145742,0.1,0.0,0.0,317.0,980.0,0.0,1,773.0,1
52,52,-0.6995062057635667,-0.7,0.0,1.0,290.0,970.0,1.0,0,100.0,1
53,53,-0.054915404298877646,-0.1,0.0,1.0,257.0,707.0,1.0,0,916.0,1
54,54,-0.7696516131071438,-0.8,1.0,0.0,366.0,610.0,0.0,0,344.0,1
55,55,0.23851971843207698,0.2,1.0,1.0,391.0,566.0,1.0,1,1113.0,1
56,56,0.2771954232264141,0.3,1.0,1.0,409.0,622.0,1.0,1,629.0,1
57,57,-0.23382690009583695,-0.2,0.0,1.0,457.0,536.0,1.0,0,487.0,1
58,58,-0.6053736213435335,-0.6,0.0,1.0,463.0,542.0,1.0,0,515.0,1
59,59,0.2185870085864644,0.2,1.0,1.0,351.0,791.0,1.0,1,388.0,1
60,60,-0.8506022869463782,-0.9,0.0,1.0,355.0,759.0,1.0,0,116.0,1
61,61,-0.41973238093295373,-0.4,0.0,1.0,435.0,623.0,1.0,0,522.0,1
62,62,-0.6541855047534577,-0.7,0.0,1.0,491.0,728.0,1.0,0,81.0,1
63,63,0.6988633382896378,0.7,1.0,1.0,292.0,862.0,1.0,1,206.0,1
64,64,0.211831190492609,0.2,0.0,0.0,380.0,923.0,0.0,1,537.0,1
65,65,-0.06859838644430294,-0.1,1.0,0.0,375.0,552.0,0.0,0,2073.0,1
66,66,-0.5520658918050902,-0.6,0.0,1.0,267.0,784.0,1.0,0,119.0,1
67,67,0.36805960785978586,0.4,1.0,1.0,495.0,864.0,1.0,1,621.0,1
68,68,0.5631421745739223,0.6,1.0,1.0,432.0,889.0,1.0,1,109.0,1
69,69,0.4162533164043759,0.4,0.0,0.0,277.0,599.0,0.0,1,234.0,1
70,70,0.0860217766977267,0.1,0.0,0.0,305.0,776.0,0.0,1,659.0,1
71,71,0.8239479922852176,0.8,1.0,1.0,416.0,781.0,1.0,1,303.0,1
72,72,-0.21119362465417624,-0.2,0.0,1.0,325.0,847.0,1.0,0,328.0,1
73,73,0.6664884950742705,0.7,1.0,1.0,376.0,519.0,1.0,1,215.0,1
74,74,-0.24217781374022906,-0.2,1.0,0.0,463.0,771.0,0.0,0,526.0,1
75,75,-0.5875186188434658,-0.6,1.0,0.0,365.0,881.0,0.0,0,184.0,1
76,76,-0.0900209117723283,-0.1,1.0,0.0,311.0,823.0,0.0,0,756.0,1
77,77,-0.49405956091071457,-0.5,1.0,0.0,397.0,799.0,0.0,0,214.0,1
78,78,-0.3744645014175806,-0.4,1.0,0.0,282.0,734.0,0.0,0,274.0,1
79,79,-0.31891669769689,-0.3,0.0,1.0,367.0,792.0,1.0,0,311.0,1
80,80,-0.45035298386818146,-0.5,1.0,0.0,256.0,792.0,0.0,0,272.0,1
81,81,0.8283370206838322,0.8,1.0,1.0,305.0,515.0,1.0,1,270.0,1
82,82,0.20961131986649673,0.2,1.0,1.0,276.0,554.0,1.0,1,420.0,1
83,83,0.438831452650866,0.4,1.0,1.0,393.0,555.0,1.0,1,512.0,1
84,84,-0.5211290193575879,-0.5,1.0,0.0,366.0,757.0,0.0,0,247.0,1
85,85,0.2652347592330212,0.3,1.0,1.0,422.0,943.0,1.0,1,405.0,1
86,86,-0.5357295511157457,-0.5,0.0,1.0,414.0,835.0,1.0,0,241.0,1
87,87,0.5213639896468948,0.5,0.0,0.0,449.0,766.0,0.0,1,255.0,1
88,88,-0.4348131455064697,-0.4,1.0,0.0,338.0,956.0,0.0,0,86.0,1
89,89,-0.47548531613433004,-0.5,1.0,0.0,253.0,709.0,0.0,0,158.0,1
90,90,0.7052044160693963,0.7,1.0,1.0,393.0,800.0,1.0,1,237.0,1
91,91,0.8380933485900243,0.8,1.0,1.0,412.0,975.0,1.0,1,283.0,1
92,92,-0.12291613951565128,-0.1,0.0,1.0,300.0,767.0,1.0,0,853.0,1
93,93,-0.07381855287443306,-0.1,1.0,0.0,450.0,709.0,0.0,0,771.0,1
94,94,-0.8576848893287946,-0.9,0.0,1.0,475.0,556.0,1.0,0,359.0,1
95,95,0.6332053520100455,0.6,1.0,1.0,265.0,602.0,1.0,1,383.0,1
96,96,-0.38624434646129746,-0.4,0.0,1.0,307.0,543.0,1.0,0,250.0,1
97,97,0.5546294550900986,0.6,0.0,0.0,491.0,883.0,0.0,1,126.0,1
98,98,0.5416915251045084,0.5,1.0,1.0,340.0,656.0,1.0,1,214.0,1
99,99,0.5648468984805523,0.6,0.0,0.0,492.0,636.0,0.0,1,222.0,1
100,100,0.5745127013826169,0.6,0.0,0.0,270.0,903.0,0.0,1,207.0,1
101,101,-0.12435784731272415,-0.1,1.0,0.0,294.0,911.0,0.0,0,545.0,1
102,102,0.4766079663777244,0.5,1.0,1.0,371.0,681.0,1.0,1,158.0,1
103,103,0.7402205953028881,0.7,0.0,0.0,365.0,582.0,0.0,1,233.0,1
104,104,0.16430461393114226,0.2,0.0,0.0,398.0,889.0,0.0,1,693.0,1
105,105,-0.25047481080925016,-0.3,0.0,1.0,287.0,504.0,1.0,0,899.0,1
106,106,0.252418961031215,0.3,0.0,0.0,369.0,965.0,0.0,1,526.0,1
107,107,-0.6002366954549708,-0.6,0.0,1.0,404.0,694.0,1.0,0,272.0,1
108,108,0.15197251189564798,0.2,0.0,0.0,399.0,635.0,0.0,1,496.0,1
109,109,0.7357046552278844,0.7,0.0,0.0,488.0,544.0,0.0,1,358.0,1
110,110,0.3801508449428025,0.4,1.0,1.0,395.0,747.0,1.0,1,388.0,1
111,111,0.39441221802882975,0.4,1.0,1.0,261.0,749.0,1.0,1,290.0,1
112,112,0.7271429261996535,0.7,0.0,0.0,404.0,624.0,0.0,1,212.0,1
113,113,-0.6671149725663985,-0.7,1.0,0.0,344.0,709.0,0.0,0,197.0,1
114,114,-0.8949644171777256,-0.9,1.0,0.0,332.0,833.0,0.0,0,185.0,1
115,115,0.5082545667587518,0.5,0.0,0.0,403.0,952.0,0.0,1,125.0,1
116,116,0.23457091166943822,0.2,1.0,1.0,421.0,893.0,1.0,1,176.0,1
117,117,0.8042364951037356,0.8,1.0,1.0,368.0,593.0,1.0,1,349.0,1
118,118,-0.005126653213732513,-0.0,1.0,0.0,428.0,606.0,1.0,1,1966.0,0
119,119,0.34494457501384634,0.3,0.0,0.0,311.0,968.0,0.0,1,511.0,1
120,120,0.34278124082538086,0.3,0.0,0.0,441.0,688.0,0.0,1,321.0,1
121,121,0.0053176184895198375,0.0,1.0,1.0,468.0,751.0,0.0,0,1781.0,0
122,122,0.12575019873660198,0.1,0.0,0.0,383.0,735.0,0.0,1,672.0,1
123,123,-0.8764078942211431,-0.9,0.0,1.0,352.0,963.0,1.0,0,285.0,1
124,124,0.2912396482035019,0.3,0.0,0.0,341.0,558.0,0.0,1,571.0,1
125,125,0.7802275005972873,0.8,1.0,1.0,388.0,576.0,1.0,1,406.0,1
126,126,-0.39143299803878007,-0.4,1.0,0.0,466.0,968.0,0.0,0,236.0,1
127,127,0.5158591722556264,0.5,0.0,0.0,465.0,639.0,0.0,1,216.0,1
128,128,-0.39725626741455144,-0.4,0.0,1.0,287.0,884.0,1.0,0,109.0,1
129,129,0.16701388323231503,0.2,1.0,1.0,331.0,684.0,1.0,1,535.0,1
130,130,0.0038055161085086553,0.0,1.0,1.0,257.0,817.0,1.0,1,1926.0,1
131,131,-0.2692250758165754,-0.3,0.0,1.0,460.0,724.0,1.0,0,476.0,1
132,132,0.3077996080397919,0.3,0.0,0.0,255.0,884.0,0.0,1,371.0,1
133,133,-0.19611722050102764,-0.2,1.0,0.0,459.0,917.0,0.0,0,354.0,1
134,134,0.4516634331552357,0.5,0.0,0.0,364.0,846.0,0.0,1,170.0,1
135,135,-0.7690499638651007,-0.8,0.0,1.0,437.0,940.0,1.0,0,63.0,1
136,136,0.1600075938911606,0.2,0.0,0.0,453.0,919.0,0.0,1,648.0,1
137,137,0.5255443983964566,0.5,1.0,1.0,452.0,560.0,1.0,1,338.0,1
138,138,-0.817943271182342,-0.8,1.0,0.0,454.0,814.0,0.0,0,292.0,1
139,139,0.6592457773526065,0.7,1.0,1.0,449.0,906.0,1.0,1,125.0,1
140,140,-0.32052141628115205,-0.3,0.0,1.0,388.0,856.0,1.0,0,316.0,1
141,141,-0.4144937400581126,-0.4,1.0,0.0,461.0,729.0,0.0,0,260.0,1
142,142,-0.3714186933854916,-0.4,1.0,0.0,313.0,703.0,0.0,0,314.0,1
143,143,0.5668434355257598,0.6,0.0,0.0,403.0,961.0,0.0,1,146.0,1
144,144,0.2922840538926893,0.3,0.0,0.0,471.0,789.0,0.0,1,370.0,1
145,145,-0.09874104102256398,-0.1,1.0,0.0,439.0,514.0,0.0,0,1347.0,1
146,146,0.6847643971979575,0.7,0.0,0.0,261.0,950.0,0.0,1,79.0,1
147,147,-0.22424743812988068,-0.2,1.0,0.0,285.0,674.0,0.0,0,411.0,1
148,148,-0.4926048715515367,-0.5,1.0,0.0,364.0,618.0,0.0,0,178.0,1
149,149,0.8007869544360119,0.8,1.0,1.0,425.0,954.0,1.0,1,441.0,1
150,150,-0.8440818111370142,-0.8,1.0,0.0,429.0,921.0,0.0,0,230.0,1
151,151,0.2679963413075169,0.3,0.0,0.0,384.0,973.0,0.0,1,423.0,1
152,152,0.7648120032002143,0.8,0.0,0.0,417.0,948.0,0.0,1,55.0,1
153,153,0.8150152291906373,0.8,0.0,0.0,409.0,649.0,0.0,1,122.0,1
154,154,0.7321019940813983,0.7,1.0,1.0,449.0,928.0,1.0,1,193.0,1
155,155,-0.4717274009804423,-0.5,0.0,1.0,359.0,817.0,1.0,0,154.0,1
156,156,-0.3494974316291597,-0.3,0.0,1.0,262.0,743.0,1.0,0,335.0,1
157,157,-0.19897067903983434,-0.2,1.0,0.0,493.0,997.0,0.0,0,370.0,1
158,158,-0.4051066540738198,-0.4,0.0,1.0,280.0,529.0,1.0,0,421.0,1
159,159,-0.2454775179603147,-0.2,1.0,0.0,269.0,563.0,0.0,0,458.0,1
160,160,-0.49404463499438467,-0.5,0.0,1.0,429.0,676.0,1.0,0,185.0,1
161,161,-0.10046959978083914,-0.1,1.0,0.0,255.0,566.0,0.0,0,2179.0,1
162,162,-0.6994496855646853,-0.7,1.0,0.0,492.0,938.0,0.0,0,60.0,1
163,163,-0.25547184788470967,-0.3,0.0,1.0,339.0,628.0,1.0,0,563.0,1
164,164,0.7084373622753731,0.7,1.0,1.0,295.0,759.0,1.0,1,206.0,1
165,165,-0.6819810255469023,-0.7,0.0,1.0,406.0,842.0,1.0,0,102.0,1
166,166,0.23405734266360445,0.2,0.0,0.0,497.0,800.0,0.0,1,213.0,1
167,167,-0.32691726194348514,-0.3,0.0,1.0,277.0,818.0,1.0,0,265.0,1
168,168,-0.6731627075219596,-0.7,1.0,0.0,441.0,859.0,0.0,0,230.0,1
169,169,-0.8537960943505463,-0.9,0.0,1.0,485.0,913.0,1.0,0,122.0,1
170,170,-0.2609976075193462,-0.3,1.0,0.0,285.0,855.0,0.0,0,170.0,1
171,171,-0.8819605922713495,-0.9,1.0,0.0,414.0,783.0,0.0,0,253.0,1
172,172,-0.7886220507626812,-0.8,1.0,0.0,422.0,862.0,0.0,0,116.0,1
173,173,-0.0953764736627446,-0.1,0.0,1.0,288.0,691.0,1.0,0,2021.0,1
174,174,0.22016728895379412,0.2,0.0,0.0,434.0,901.0,0.0,1,215.0,1
175,175,0.56428572971361,0.6,1.0,1.0,284.0,802.0,1.0,1,194.0,1
176,176,0.7262059951542866,0.7,0.0,0.0,489.0,512.0,0.0,1,249.0,1
177,177,0.8868463073065002,0.9,1.0,1.0,269.0,736.0,1.0,1,135.0,1
178,178,0.7450333744212628,0.7,0.0,0.0,415.0,950.0,0.0,1,95.0,1
179,179,0.007220157312603281,0.0,0.0,0.0,314.0,968.0,1.0,0,1718.0,0
180,180,0.45606837618400087,0.5,0.0,0.0,262.0,768.0,0.0,1,360.0,1
181,181,-0.18404524046717807,-0.2,0.0,1.0,391.0,987.0,1.0,0,132.0,1
182,182,-0.0025706715537534564,-0.0,0.0,1.0,456.0,834.0,1.0,0,1380.0,1
183,183,-0.4388383666550693,-0.4,0.0,1.0,288.0,711.0,1.0,0,191.0,1
184,184,0.31378771007246165,0.3,1.0,1.0,301.0,607.0,1.0,1,422.0,1
185,185,0.07042080998626599,0.1,0.0,0.0,299.0,639.0,0.0,1,2062.0,1
186,186,0.4892441834532507,0.5,0.0,0.0,407.0,965.0,0.0,1,78.0,1
187,187,-0.40148621069819523,-0.4,0.0,1.0,478.0,955.0,1.0,0,-103.0,1
188,188,0.861880645855296,0.9,0.0,0.0,407.0,871.0,0.0,1,142.0,1
189,189,0.628277079351811,0.6,1.0,1.0,431.0,735.0,1.0,1,154.0,1
190,190,-0.014892722658974455,-0.0,0.0,1.0,322.0,740.0,1.0,0,1938.0,1
191,191,0.7032314322178667,0.7,0.0,0.0,287.0,617.0,0.0,1,146.0,1
192,192,0.5370647142158061,0.5,0.0,0.0,454.0,965.0,0.0,1,91.0,1
193,193,-0.8377394441143947,-0.8,1.0,0.0,484.0,837.0,0.0,0,139.0,1
194,194,0.6191271487037396,0.6,0.0,0.0,254.0,567.0,0.0,1,309.0,1
195,195,0.5149219836850404,0.5,0.0,0.0,484.0,772.0,0.0,1,194.0,1
196,196,0.7981713101132147,0.8,1.0,1.0,427.0,876.0,1.0,1,167.0,1
197,197,0.5957634068134142,0.6,1.0,1.0,251.0,734.0,1.0,1,145.0,1
198,198,-0.6379610536897814,-0.6,0.0,1.0,263.0,686.0,1.0,0,161.0,1
199,199,0.48508614013398,0.5,1.0,1.0,461.0,629.0,1.0,1,570.0,1
200,200,0.08317916281517967,0.1,1.0,1.0,272.0,985.0,1.0,1,393.0,1
201,201,0.5834109548636471,0.6,1.0,1.0,284.0,849.0,1.0,1,147.0,1
202,202,-0.16517498513494822,-0.2,1.0,0.0,374.0,889.0,0.0,0,397.0,1
203,203,-0.33579443773287176,-0.3,0.0,1.0,297.0,879.0,1.0,0,274.0,1
204,204,0.5315923369645973,0.5,0.0,0.0,412.0,739.0,0.0,1,99.0,1
205,205,0.792954258105565,0.8,1.0,1.0,400.0,678.0,1.0,1,322.0,1
206,206,0.08141328073501619,0.1,1.0,1.0,299.0,654.0,1.0,1,517.0,1
207,207,-0.37515077894216997,-0.4,0.0,1.0,306.0,532.0,1.0,0,842.0,1
208,208,0.28797506967567543,0.3,0.0,0.0,306.0,729.0,0.0,1,155.0,1
209,209,-0.5275323238640284,-0.5,0.0,1.0,328.0,529.0,1.0,0,303.0,1
210,210,0.38366399208712487,0.4,0.0,0.0,479.0,695.0,0.0,1,216.0,1
211,211,-0.40204505590536493,-0.4,1.0,0.0,360.0,862.0,0.0,0,358.0,1
212,212,-0.29540226322173835,-0.3,1.0,0.0,250.0,621.0,0.0,0,339.0,1
213,213,0.8662672548324885,0.9,0.0,0.0,318.0,725.0,0.0,1,157.0,1
214,214,0.4175000260625318,0.4,0.0,0.0,423.0,985.0,0.0,1,92.0,1
215,215,0.8764867672987152,0.9,1.0,1.0,289.0,709.0,1.0,1,342.0,1
216,216,-0.41760335549368827,-0.4,0.0,1.0,457.0,940.0,1.0,0,153.0,1
217,217,0.6853743695332689,0.7,1.0,1.0,252.0,766.0,1.0,1,92.0,1
218,218,-0.524955256875764,-0.5,1.0,0.0,363.0,908.0,0.0,0,229.0,1
219,219,-0.42524237582429075,-0.4,1.0,0.0,332.0,800.0,0.0,0,218.0,1
220,220,0.7324546620078113,0.7,1.0,1.0,333.0,826.0,1.0,1,221.0,1
221,221,0.23268770639559688,0.2,1.0,1.0,337.0,522.0,1.0,1,671.0,1
222,222,-0.3471839502691081,-0.3,0.0,1.0,382.0,827.0,1.0,0,211.0,1
223,223,0.5491556616664323,0.5,1.0,1.0,399.0,552.0,1.0,1,179.0,1
224,224,0.579955585919106,0.6,1.0,1.0,271.0,632.0,1.0,1,347.0,1
225,225,-0.06641134319158437,-0.1,1.0,0.0,292.0,539.0,0.0,0,659.0,1
226,226,-0.7363374968827758,-0.7,0.0,1.0,440.0,640.0,1.0,0,140.0,1
227,227,0.6419907304020304,0.6,0.0,0.0,302.0,707.0,0.0,1,231.0,1
228,228,0.29821381158528115,0.3,1.0,1.0,420.0,987.0,1.0,1,243.0,1
229,229,0.018439463864076466,0.0,0.0,0.0,314.0,928.0,0.0,1,1758.0,1
230,230,0.820685670095434,0.8,0.0,0.0,418.0,924.0,0.0,1,138.0,1
231,231,0.20497256095958283,0.2,1.0,1.0,394.0,757.0,1.0,1,319.0,1
232,232,0.3326573897740662,0.3,0.0,0.0,267.0,894.0,0.0,1,319.0,1
233,233,0.8678631094331305,0.9,1.0,1.0,387.0,867.0,1.0,1,86.0,1
234,234,0.1730089915000147,0.2,0.0,0.0,346.0,635.0,0.0,1,679.0,1
235,235,0.18967885394028972,0.2,0.0,0.0,290.0,873.0,0.0,1,467.0,1
236,236,-0.8941661019537632,-0.9,1.0,0.0,304.0,774.0,0.0,0,112.0,1
237,237,-0.009752416616351511,-0.0,0.0,1.0,345.0,898.0,0.0,1,467.0,0
238,238,-0.5058031701846982,-0.5,0.0,1.0,263.0,660.0,1.0,0,187.0,1
239,239,0.7132104767767681,0.7,1.0,1.0,325.0,646.0,1.0,1,389.0,1
240,240,-0.15576821397097718,-0.2,0.0,1.0,492.0,568.0,1.0,0,760.0,1
241,241,0.30411296488749195,0.3,1.0,1.0,339.0,517.0,1.0,1,1034.0,1
242,242,0.3477241777260828,0.3,1.0,1.0,414.0,763.0,1.0,1,163.0,1
243,243,-0.4594886232122598,-0.5,1.0,0.0,361.0,701.0,0.0,0,338.0,1
244,244,0.22440816660127172,0.2,0.0,0.0,291.0,668.0,0.0,1,581.0,1
245,245,-0.44751735429222766,-0.4,0.0,1.0,303.0,512.0,1.0,0,275.0,1
246,246,0.4026908432301649,0.4,0.0,0.0,453.0,805.0,0.0,1,232.0,1
247,247,0.5211217569394054,0.5,1.0,1.0,335.0,770.0,1.0,1,205.0,1
248,248,0.20272988632059563,0.2,0.0,0.0,404.0,929.0,0.0,1,297.0,1
249,249,-0.5503495402769163,-0.6,1.0,0.0,409.0,980.0,0.0,0,161.0,1
250,250,0.8394487563289567,0.8,0.0,0.0,403.0,740.0,0.0,1,177.0,1
251,251,-0.8665108437888447,-0.9,0.0,1.0,352.0,798.0,1.0,0,260.0,1
252,252,-0.11956927241735626,-0.1,1.0,0.0,407.0,782.0,0.0,0,301.0,1
253,253,0.15577057949995365,0.2,0.0,0.0,490.0,734.0,0.0,1,666.0,1
254,254,-0.5901059368321258,-0.6,0.0,1.0,465.0,800.0,1.0,0,395.0,1
255,255,-0.10012885767236701,-0.1,0.0,1.0,254.0,885.0,1.0,0,841.0,1
256,256,-0.10811403984179391,-0.1,0.0,1.0,364.0,985.0,1.0,0,481.0,1
257,257,-0.12960220061043815,-0.1,1.0,0.0,302.0,745.0,0.0,0,1013.0,1
258,258,-0.12383277368234025,-0.1,0.0,1.0,457.0,748.0,1.0,0,795.0,1
259,259,-0.03817030387414888,-0.0,0.0,1.0,425.0,823.0,1.0,0,1752.0,1
260,260,-0.7438178931621996,-0.7,0.0,1.0,425.0,844.0,1.0,0,131.0,1
261,261,0.40695223315571105,0.4,1.0,1.0,445.0,501.0,1.0,1,824.0,1
262,262,0.7562408685293999,0.8,1.0,1.0,310.0,822.0,1.0,1,178.0,1
263,263,0.6122214229594461,0.6,0.0,0.0,376.0,751.0,0.0,1,233.0,1
264,264,0.2853193357373013,0.3,1.0,1.0,393.0,539.0,1.0,1,468.0,1
265,265,-0.48899960649891,-0.5,0.0,1.0,428.0,978.0,1.0,0,184.0,1
266,266,-0.8934042463842562,-0.9,1.0,0.0,440.0,757.0,0.0,0,103.0,1
267,267,0.2156147567764829,0.2,0.0,0.0,269.0,852.0,0.0,1,299.0,1
268,268,-0.2062427027358501,-0.2,1.0,0.0,322.0,598.0,0.0,0,380.0,1
269,269,0.18739424326957999,0.2,1.0,1.0,336.0,833.0,1.0,1,661.0,1
270,270,0.5036547932584189,0.5,0.0,0.0,259.0,823.0,0.0,1,168.0,1
271,271,0.8048751834822815,0.8,1.0,1.0,450.0,839.0,1.0,1,241.0,1
272,272,-0.5516477722024797,-0.6,0.0,1.0,269.0,622.0,1.0,0,219.0,1
273,273,0.3950046697448023,0.4,1.0,1.0,487.0,907.0,1.0,1,136.0,1
274,274,-0.6278080707236613,-0.6,0.0,1.0,349.0,700.0,1.0,0,541.0,1
275,275,0.39487026321886864,0.4,1.0,1.0,419.0,678.0,1.0,1,243.0,1
276,276,0.6476386823970847,0.6,0.0,0.0,415.0,900.0,0.0,1,225.0,1
277,277,-0.5564228170640926,-0.6,0.0,1.0,467.0,800.0,1.0,0,163.0,1
278,278,-0.5788858189612691,-0.6,1.0,0.0,344.0,629.0,0.0,0,327.0,1
279,279,-0.4030143385722816,-0.4,0.0,1.0,271.0,594.0,1.0,0,495.0,1
280,280,0.5823594369223438,0.6,0.0,0.0,381.0,535.0,0.0,1,414.0,1
281,281,0.06288049439404741,0.1,1.0,1.0,345.0,586.0,1.0,1,1359.0,1
282,282,-0.05172915666732647,-0.1,0.0,1.0,322.0,936.0,1.0,0,1742.0,1
283,283,0.8662316571183669,0.9,1.0,1.0,324.0,930.0,1.0,1,186.0,1
284,284,-0.09542377171240046,-0.1,0.0,1.0,448.0,810.0,1.0,0,1232.0,1
285,285,0.3807570412625657,0.4,0.0,0.0,395.0,819.0,0.0,1,146.0,1
286,286,0.47613866783794456,0.5,0.0,0.0,462.0,557.0,0.0,1,251.0,1
287,287,-0.5048523097340121,-0.5,0.0,1.0,375.0,567.0,1.0,0,488.0,1
288,288,0.8303117118457232,0.8,0.0,0.0,279.0,881.0,0.0,1,120.0,1
289,289,-0.14950946375341712,-0.1,0.0,1.0,455.0,530.0,1.0,0,675.0,1
290,290,0.7260207524733896,0.7,1.0,1.0,252.0,877.0,1.0,1,201.0,1
291,291,0.5050674277291437,0.5,1.0,1.0,388.0,751.0,1.0,1,281.0,1
292,292,-0.7958764960835504,-0.8,1.0,0.0,259.0,568.0,0.0,0,543.0,1
293,293,0.08904857790153708,0.1,0.0,0.0,284.0,581.0,0.0,1,825.0,1
294,294,-0.21356542973390613,-0.2,1.0,0.0,326.0,843.0,0.0,0,491.0,1
295,295,0.45632770677709067,0.5,0.0,0.0,433.0,650.0,0.0,1,327.0,1
296,296,0.8988055568182086,0.9,0.0,0.0,334.0,519.0,0.0,1,477.0,1
297,297,-0.2378367820797217,-0.2,0.0,1.0,383.0,929.0,1.0,0,378.0,1
298,298,-0.6897512463485651,-0.7,0.0,1.0,307.0,576.0,1.0,0,237.0,1
299,299,-0.19012945102567513,-0.2,1.0,0.0,460.0,513.0,0.0,0,737.0,1
300,300,0.4982314108298064,0.5,0.0,0.0,397.0,641.0,0.0,1,172.0,1
301,301,0.03899059553120898,0.0,0.0,0.0,313.0,677.0,0.0,1,2010.0,1
302,302,0.43303315475712767,0.4,0.0,0.0,358.0,926.0,0.0,1,126.0,1
303,303,-0.5963829120802997,-0.6,0.0,1.0,454.0,612.0,1.0,0,314.0,1
304,304,-0.6918908361150917,-0.7,0.0,1.0,293.0,629.0,1.0,0,188.0,1
305,305,-0.2927356860084618,-0.3,0.0,1.0,375.0,654.0,1.0,0,561.0,1
306,306,0.4300901477957565,0.4,1.0,1.0,324.0,698.0,1.0,1,178.0,1
307,307,-0.013881873406607403,-0.0,0.0,1.0,341.0,950.0,0.0,1,809.0,0
308,308,-0.842002470973938,-0.8,0.0,1.0,412.0,759.0,1.0,0,189.0,1
309,309,0.23409145943547915,0.2,0.0,0.0,253.0,867.0,0.0,1,170.0,1
310,310,0.21788934520967718,0.2,1.0,1.0,457.0,714.0,1.0,1,509.0,1
311,311,-0.0661903151462313,-0.1,1.0,0.0,334.0,660.0,0.0,0,1596.0,1
312,312,-0.21993349690414798,-0.2,0.0,1.0,373.0,917.0,1.0,0,320.0,1
313,313,-0.3231730317077375,-0.3,0.0,1.0,429.0,991.0,1.0,0,240.0,1
314,314,0.3717437162586882,0.4,1.0,1.0,484.0,993.0,1.0,1,153.0,1
315,315,-0.4851284218924651,-0.5,1.0,0.0,312.0,813.0,0.0,0,455.0,1
316,316,0.12184088338374999,0.1,1.0,1.0,395.0,781.0,1.0,1,1024.0,1
317,317,-0.09167128420274018,-0.1,0.0,1.0,406.0,679.0,1.0,0,775.0,1
318,318,-0.08687871182863605,-0.1,1.0,0.0,473.0,799.0,0.0,0,768.0,1
319,319,-0.09822026298308328,-0.1,0.0,1.0,280.0,705.0,1.0,0,575.0,1
320,320,0.5629254082487464,0.6,0.0,0.0,350.0,789.0,0.0,1,151.0,1
321,321,-0.7370548928773225,-0.7,0.0,1.0,351.0,861.0,1.0,0,68.0,1
322,322,-0.5277832762203747,-0.5,0.0,1.0,360.0,954.0,1.0,0,126.0,1
323,323,0.4833204434879138,0.5,0.0,0.0,282.0,569.0,0.0,1,289.0,1
324,324,-0.009803939196310951,-0.0,1.0,0.0,391.0,552.0,1.0,1,1117.0,0
325,325,-0.5320634131187154,-0.5,1.0,0.0,450.0,787.0,0.0,0,123.0,1
326,326,-0.25354255117035085,-0.3,0.0,1.0,404.0,704.0,1.0,0,572.0,1
327,327,-0.012206673968132575,-0.0,0.0,1.0,488.0,884.0,0.0,1,1628.0,0
328,328,-0.5167108469149757,-0.5,1.0,0.0,485.0,774.0,0.0,0,211.0,1
329,329,-0.6923121439217337,-0.7,0.0,1.0,488.0,547.0,1.0,0,275.0,1
330,330,0.0705997467440902,0.1,1.0,1.0,366.0,870.0,1.0,1,1764.0,1
331,331,-0.47680130284329975,-0.5,0.0,1.0,260.0,929.0,1.0,0,111.0,1
332,332,-0.6863697445402258,-0.7,0.0,1.0,436.0,934.0,1.0,0,200.0,1
333,333,0.18243437360829307,0.2,0.0,0.0,412.0,585.0,0.0,1,773.0,1
334,334,-0.34008547697807534,-0.3,1.0,0.0,251.0,963.0,0.0,0,346.0,1
335,335,-0.5850689323107652,-0.6,0.0,1.0,499.0,821.0,1.0,0,80.0,1
336,336,0.14734963047296878,0.1,0.0,0.0,349.0,557.0,0.0,1,894.0,1
337,337,-0.7797307510628648,-0.8,1.0,0.0,293.0,617.0,0.0,0,220.0,1
338,338,0.2945697502065684,0.3,1.0,1.0,350.0,730.0,1.0,1,300.0,1
339,339,-0.7941464220422841,-0.8,0.0,1.0,256.0,823.0,1.0,0,141.0,1
340,340,0.4449063582725955,0.4,1.0,1.0,415.0,836.0,1.0,1,209.0,1
341,341,-0.2759063214463541,-0.3,1.0,0.0,258.0,554.0,0.0,0,568.0,1
342,342,-0.6101568995535331,-0.6,1.0,0.0,441.0,709.0,0.0,0,240.0,1
343,343,-0.03261252831493,-0.0,0.0,1.0,388.0,964.0,1.0,0,418.0,1
344,344,0.84487709311819,0.8,0.0,0.0,263.0,629.0,0.0,1,368.0,1
345,345,0.7605970999158626,0.8,0.0,0.0,277.0,986.0,0.0,1,127.0,1
346,346,-0.6440395862680801,-0.6,0.0,1.0,281.0,525.0,1.0,0,324.0,1
347,347,0.36056753594229674,0.4,1.0,1.0,370.0,891.0,1.0,1,359.0,1
348,348,-0.34536192727315085,-0.3,1.0,0.0,311.0,692.0,0.0,0,437.0,1
349,349,-0.8264969434099673,-0.8,0.0,1.0,425.0,661.0,1.0,0,254.0,1
350,350,-0.30912954694529526,-0.3,0.0,1.0,363.0,778.0,1.0,0,519.0,1
351,351,-0.5777756876283058,-0.6,0.0,1.0,462.0,613.0,1.0,0,235.0,1
352,352,-0.24225247625639346,-0.2,0.0,1.0,483.0,613.0,1.0,0,304.0,1
353,353,0.46015848693038,0.5,0.0,0.0,360.0,756.0,0.0,1,174.0,1
354,354,-0.3988699143124629,-0.4,0.0,1.0,441.0,843.0,1.0,0,336.0,1
355,355,0.06350344872039937,0.1,0.0,0.0,497.0,947.0,0.0,1,1276.0,1
356,356,-0.4652258933658639,-0.5,1.0,0.0,453.0,673.0,0.0,0,284.0,1
357,357,0.004666722822701641,0.0,1.0,1.0,447.0,611.0,1.0,1,1942.0,1
358,358,0.46944305623582483,0.5,0.0,0.0,257.0,648.0,0.0,1,365.0,1
359,359,-0.5077566299943663,-0.5,1.0,0.0,432.0,989.0,0.0,0,169.0,1
360,360,-0.8346331666019966,-0.8,0.0,1.0,314.0,654.0,1.0,0,372.0,1
361,361,-0.20213537611849886,-0.2,0.0,1.0,341.0,800.0,1.0,0,69.0,1
362,362,-0.031635253016224385,-0.0,0.0,1.0,279.0,609.0,1.0,0,732.0,1
363,363,0.8817687478917183,0.9,1.0,1.0,399.0,856.0,1.0,1,575.0,1
364,364,-0.18704233805221893,-0.2,0.0,1.0,314.0,934.0,1.0,0,352.0,1
365,365,-0.029452463333841772,-0.0,0.0,1.0,332.0,640.0,1.0,0,1358.0,1
366,366,0.30206389835454395,0.3,1.0,1.0,434.0,834.0,1.0,1,302.0,1
367,367,-0.43894921948735166,-0.4,0.0,1.0,316.0,717.0,1.0,0,287.0,1
368,368,-0.633632046254761,-0.6,0.0,1.0,457.0,737.0,1.0,0,116.0,1
369,369,0.062084830703411864,0.1,1.0,1.0,269.0,627.0,1.0,1,644.0,1
370,370,-0.5823259080614812,-0.6,0.0,1.0,254.0,920.0,1.0,0,126.0,1
371,371,-0.2459826970829485,-0.2,1.0,0.0,377.0,944.0,0.0,0,339.0,1
372,372,-0.3922727973879817,-0.4,1.0,0.0,363.0,790.0,0.0,0,317.0,1
373,373,0.20008392376561746,0.2,0.0,0.0,266.0,619.0,0.0,1,535.0,1
374,374,-0.5798621324787044,-0.6,1.0,0.0,379.0,662.0,0.0,0,389.0,1
375,375,-0.44549468044690427,-0.4,1.0,0.0,362.0,860.0,0.0,0,188.0,1
376,376,-0.4274666966983183,-0.4,0.0,1.0,254.0,904.0,1.0,0,92.0,1
377,377,0.7419480985327943,0.7,0.0,0.0,463.0,944.0,0.0,1,103.0,1
378,378,0.06589890275735377,0.1,1.0,1.0,315.0,599.0,1.0,1,1066.0,1
379,379,0.018029635070017425,0.0,0.0,0.0,380.0,501.0,0.0,1,1489.0,1
380,380,0.0384065048466945,0.0,0.0,0.0,266.0,977.0,0.0,1,687.0,1
381,381,-0.13360755253077594,-0.1,1.0,0.0,309.0,907.0,0.0,0,394.0,1
382,382,0.7337224894651727,0.7,0.0,0.0,276.0,622.0,0.0,1,282.0,1
383,383,0.5311736790536089,0.5,1.0,1.0,468.0,807.0,1.0,1,115.0,1
384,384,-0.634162117359309,-0.6,1.0,0.0,307.0,778.0,0.0,0,235.0,1
385,385,0.7790003520803374,0.8,1.0,1.0,366.0,613.0,1.0,1,221.0,1
386,386,0.6454664883420876,0.6,1.0,1.0,271.0,691.0,1.0,1,198.0,1
387,387,-0.5451473643016929,-0.5,0.0,1.0,258.0,551.0,1.0,0,661.0,1
388,388,-0.8425980612507343,-0.8,0.0,1.0,447.0,641.0,1.0,0,262.0,1
389,389,0.5939810582292625,0.6,0.0,0.0,302.0,954.0,0.0,1,204.0,1
390,390,-0.8160525991004917,-0.8,0.0,1.0,280.0,663.0,1.0,0,367.0,1
391,391,0.3001924527824359,0.3,0.0,0.0,299.0,706.0,0.0,1,95.0,1
392,392,0.7412020124841042,0.7,0.0,0.0,303.0,590.0,0.0,1,267.0,1
393,393,-0.3510973615352063,-0.4,1.0,0.0,287.0,549.0,0.0,0,484.0,1
394,394,0.09232038049983415,0.1,1.0,1.0,326.0,617.0,1.0,1,677.0,1
395,395,-0.6939291575936163,-0.7,0.0,1.0,449.0,649.0,1.0,0,192.0,1
396,396,0.6695086350475065,0.7,1.0,1.0,332.0,693.0,1.0,1,335.0,1
397,397,-0.10532325132648612,-0.1,1.0,0.0,473.0,601.0,0.0,0,746.0,1
398,398,0.4141179900545532,0.4,0.0,0.0,339.0,534.0,0.0,1,247.0,1
399,399,0.08264443161093005,0.1,1.0,1.0,321.0,804.0,1.0,1,1075.0,1
400,400,0.07515647633189992,0.1,1.0,1.0,497.0,646.0,1.0,1,1007.0,1
401,401,0.08002137748851812,0.1,1.0,1.0,327.0,730.0,1.0,1,463.0,1
402,402,-0.6076136292817609,-0.6,0.0,1.0,370.0,950.0,1.0,0,320.0,1
403,403,0.6479904885433864,0.6,0.0,0.0,419.0,934.0,0.0,1,127.0,1
404,404,-0.07011843107436788,-0.1,0.0,1.0,424.0,553.0,1.0,0,1563.0,1
405,405,-0.7422341984292129,-0.7,1.0,0.0,451.0,836.0,0.0,0,93.0,1
406,406,-0.6410768434408256,-0.6,1.0,0.0,431.0,661.0,0.0,0,478.0,1
407,407,0.7579632182394885,0.8,0.0,0.0,495.0,667.0,0.0,1,208.0,1
408,408,0.7071413863176731,0.7,1.0,1.0,437.0,855.0,1.0,1,168.0,1
409,409,0.3754320822385636,0.4,1.0,1.0,455.0,868.0,1.0,1,247.0,1
410,410,-0.1187121065743133,-0.1,1.0,0.0,344.0,542.0,0.0,0,814.0,1
411,411,-0.2335840747619855,-0.2,1.0,0.0,252.0,990.0,0.0,0,358.0,1
412,412,-0.8945053382931081,-0.9,0.0,1.0,270.0,504.0,1.0,0,506.0,1
413,413,0.7299463711311321,0.7,1.0,1.0,273.0,703.0,1.0,1,404.0,1
414,414,-0.5649888404574142,-0.6,1.0,0.0,306.0,852.0,0.0,0,132.0,1
415,415,-0.12426255204442649,-0.1,0.0,1.0,436.0,557.0,1.0,0,417.0,1
416,416,-0.4684574099632226,-0.5,0.0,1.0,300.0,519.0,1.0,0,381.0,1
417,417,-0.4851393119307904,-0.5,1.0,0.0,469.0,652.0,0.0,0,459.0,1
418,418,-0.8323987526577585,-0.8,0.0,1.0,404.0,790.0,1.0,0,206.0,1
419,419,0.5365380881317342,0.5,0.0,0.0,330.0,692.0,0.0,1,248.0,1
420,420,-0.3834894624651263,-0.4,0.0,1.0,257.0,651.0,1.0,0,542.0,1
421,421,0.8733975112179672,0.9,0.0,0.0,358.0,580.0,0.0,1,242.0,1
422,422,0.8191599601332654,0.8,1.0,1.0,425.0,605.0,1.0,1,400.0,1
423,423,0.16813846604579086,0.2,1.0,1.0,320.0,966.0,1.0,1,174.0,1
424,424,-0.4418223162314594,-0.4,0.0,1.0,355.0,645.0,1.0,0,510.0,1
425,425,-0.5999552636708297,-0.6,0.0,1.0,317.0,861.0,1.0,0,242.0,1
426,426,0.6529704156529176,0.7,0.0,0.0,495.0,614.0,0.0,1,211.0,1
427,427,0.7665810006282604,0.8,0.0,0.0,353.0,947.0,0.0,1,120.0,1
428,428,0.3600070631131548,0.4,0.0,0.0,431.0,851.0,0.0,1,198.0,1
429,429,0.34459866157574515,0.3,0.0,0.0,476.0,711.0,0.0,1,213.0,1
430,430,0.5441577403848649,0.5,0.0,0.0,329.0,659.0,0.0,1,242.0,1
431,431,-0.0663560381327114,-0.1,1.0,0.0,381.0,680.0,0.0,0,1939.0,1
432,432,0.6651224176966418,0.7,0.0,0.0,427.0,718.0,0.0,1,155.0,1
433,433,0.880858853307846,0.9,0.0,0.0,383.0,977.0,0.0,1,40.0,1
434,434,0.34165523260793507,0.3,0.0,0.0,391.0,585.0,0.0,1,414.0,1
435,435,-0.837987674107881,-0.8,1.0,0.0,276.0,718.0,0.0,0,206.0,1
436,436,-0.247501148574243,-0.2,1.0,0.0,439.0,786.0,0.0,0,355.0,1
437,437,-0.563230742120237,-0.6,1.0,0.0,270.0,519.0,0.0,0,281.0,1
438,438,0.0121422782551589,0.0,0.0,0.0,359.0,985.0,1.0,0,1656.0,0
439,439,0.23410667482393632,0.2,1.0,1.0,330.0,597.0,1.0,1,673.0,1
440,440,-0.6761422312433436,-0.7,1.0,0.0,412.0,877.0,0.0,0,421.0,1
441,441,-0.8954572971783182,-0.9,1.0,0.0,260.0,942.0,0.0,0,138.0,1
442,442,0.020539010271674596,0.0,1.0,1.0,257.0,826.0,0.0,0,1917.0,0
443,443,-0.771029845952042,-0.8,1.0,0.0,392.0,902.0,0.0,0,306.0,1
444,444,0.6453225198944365,0.6,1.0,1.0,327.0,514.0,1.0,1,289.0,1
445,445,-0.0725752537518749,-0.1,0.0,1.0,310.0,580.0,1.0,0,410.0,1
446,446,0.8164228335118103,0.8,1.0,1.0,285.0,794.0,1.0,1,191.0,1
447,447,-0.6597368120500685,-0.7,1.0,0.0,474.0,558.0,0.0,0,318.0,1
448,448,-0.041139108144225944,-0.0,1.0,0.0,410.0,666.0,0.0,0,684.0,1
449,449,0.24670161982887995,0.2,1.0,1.0,425.0,516.0,1.0,1,499.0,1
450,450,-0.8123796732269032,-0.8,1.0,0.0,324.0,754.0,0.0,0,32.0,1
451,451,-0.06251694533764984,-0.1,0.0,1.0,342.0,738.0,1.0,0,1920.0,1
452,452,-0.3970409627077415,-0.4,1.0,0.0,456.0,593.0,0.0,0,491.0,1
453,453,0.670046458997824,0.7,1.0,1.0,269.0,627.0,1.0,1,324.0,1
454,454,-0.4348495977805955,-0.4,1.0,0.0,495.0,829.0,0.0,0,306.0,1
455,455,-0.8946439760342287,-0.9,1.0,0.0,331.0,521.0,0.0,0,338.0,1
456,456,0.26735154306621156,0.3,1.0,1.0,461.0,606.0,1.0,1,473.0,1
457,457,0.8313250993695166,0.8,1.0,1.0,477.0,940.0,1.0,1,73.0,1
458,458,-0.32515112540475866,-0.3,0.0,1.0,422.0,582.0,1.0,0,216.0,1
459,459,-0.38666847863038767,-0.4,0.0,1.0,275.0,929.0,1.0,0,206.0,1
460,460,-0.817808003206979,-0.8,1.0,0.0,484.0,785.0,0.0,0,91.0,1
461,461,-0.8286366006870636,-0.8,0.0,1.0,290.0,973.0,1.0,0,247.0,1
462,462,-0.3519824031929958,-0.4,1.0,0.0,438.0,582.0,0.0,0,680.0,1
463,463,-0.006315789799616667,-0.0,0.0,1.0,499.0,568.0,1.0,0,1933.0,1
464,464,0.4560369128877414,0.5,1.0,1.0,463.0,608.0,1.0,1,259.0,1
465,465,-0.44641862740882743,-0.4,1.0,0.0,371.0,955.0,0.0,0,154.0,1
466,466,0.5316261295807606,0.5,0.0,0.0,373.0,835.0,0.0,1,202.0,1
467,467,0.7589478834166149,0.8,1.0,1.0,353.0,779.0,1.0,1,168.0,1
468,468,-0.3554926296576906,-0.4,1.0,0.0,462.0,569.0,0.0,0,379.0,1
469,469,0.8621541108010383,0.9,0.0,0.0,335.0,953.0,0.0,1,112.0,1
470,470,-0.06058072874136544,-0.1,1.0,0.0,318.0,772.0,0.0,0,1910.0,1
471,471,-0.8852713334824609,-0.9,0.0,1.0,321.0,555.0,1.0,0,304.0,1
472,472,0.3964011830172881,0.4,1.0,1.0,429.0,952.0,1.0,1,199.0,1
473,473,-0.18019250516332097,-0.2,1.0,0.0,283.0,920.0,0.0,0,187.0,1
474,474,-0.40265921896527695,-0.4,0.0,1.0,275.0,871.0,1.0,0,314.0,1
475,475,-0.22537086292548825,-0.2,1.0,0.0,483.0,729.0,0.0,0,318.0,1
476,476,-0.03317653260392184,-0.0,1.0,0.0,305.0,808.0,0.0,0,1017.0,1
477,477,0.347891971161881,0.3,0.0,0.0,479.0,855.0,0.0,1,216.0,1
478,478,0.41032544482374156,0.4,0.0,0.0,348.0,760.0,0.0,1,242.0,1
479,479,0.6963302763879876,0.7,0.0,0.0,278.0,971.0,0.0,1,131.0,1
480,480,0.7372056677182771,0.7,1.0,1.0,332.0,737.0,1.0,1,211.0,1
481,481,-0.41545175395469436,-0.4,0.0,1.0,282.0,518.0,1.0,0,630.0,1
482,482,0.41287129485578233,0.4,0.0,0.0,487.0,606.0,0.0,1,277.0,1
483,483,0.6611659941340454,0.7,0.0,0.0,343.0,666.0,0.0,1,301.0,1
484,484,-0.8055873848432881,-0.8,0.0,1.0,455.0,895.0,1.0,0,160.0,1
485,485,0.15118368128301063,0.2,1.0,1.0,463.0,936.0,1.0,1,441.0,1
486,486,0.20495725197451276,0.2,1.0,1.0,484.0,882.0,1.0,1,834.0,1
487,487,-0.8571413670870873,-0.9,0.0,1.0,286.0,880.0,1.0,0,144.0,1
488,488,0.8572578532817677,0.9,0.0,0.0,293.0,819.0,0.0,1,168.0,1
489,489,0.5766130690630603,0.6,1.0,1.0,427.0,532.0,1.0,1,441.0,1
490,490,0.4525737827907593,0.5,0.0,0.0,361.0,904.0,0.0,1,275.0,1
491,491,0.011754821695242335,0.0,0.0,0.0,349.0,981.0,0.0,1,1530.0,1
492,492,0.30631117959116294,0.3,1.0,1.0,326.0,980.0,1.0,1,104.0,1
493,493,0.5705692590437276,0.6,0.0,0.0,379.0,913.0,0.0,1,218.0,1
494,494,-0.4090303623628887,-0.4,1.0,0.0,447.0,594.0,0.0,0,269.0,1
495,495,-0.502552183106144,-0.5,1.0,0.0,346.0,810.0,0.0,0,564.0,1
496,496,0.7449524774642456,0.7,1.0,1.0,268.0,610.0,1.0,1,242.0,1
497,497,0.07151765509287,0.1,0.0,0.0,306.0,719.0,0.0,1,865.0,1
498,498,0.8252736093714389,0.8,1.0,1.0,399.0,779.0,1.0,1,402.0,1
499,499,-0.4198020672363685,-0.4,0.0,1.0,256.0,528.0,1.0,0,276.0,1
500,500,-0.14375762082329246,-0.1,0.0,1.0,403.0,844.0,1.0,0,463.0,1
501,501,-0.5677814896229854,-0.6,0.0,1.0,316.0,913.0,1.0,0,71.0,1
502,502,-0.3347806410417039,-0.3,0.0,1.0,294.0,567.0,1.0,0,249.0,1
503,503,-0.6528288550004478,-0.7,0.0,1.0,384.0,666.0,1.0,0,220.0,1
504,504,-0.5789158827105461,-0.6,0.0,1.0,496.0,553.0,1.0,0,291.0,1
505,505,-0.4818056875155952,-0.5,0.0,1.0,352.0,655.0,1.0,0,173.0,1
506,506,0.7856644068205777,0.8,0.0,0.0,283.0,658.0,0.0,1,339.0,1
507,507,-0.484558977592902,-0.5,1.0,0.0,459.0,924.0,0.0,0,287.0,1
508,508,0.5957542295464789,0.6,1.0,1.0,275.0,855.0,1.0,1,150.0,1
509,509,-0.28589868477006697,-0.3,0.0,1.0,401.0,949.0,1.0,0,200.0,1
510,510,0.7843486281703348,0.8,0.0,0.0,410.0,722.0,0.0,1,238.0,1
511,511,0.48296922070480763,0.5,0.0,0.0,253.0,765.0,0.0,1,312.0,1
512,512,0.2983444983111859,0.3,0.0,0.0,488.0,631.0,0.0,1,421.0,1
513,513,0.8668883472071679,0.9,1.0,1.0,463.0,993.0,1.0,1,94.0,1
514,514,0.7960909323002051,0.8,0.0,0.0,458.0,712.0,0.0,1,150.0,1
515,515,-0.5221978837588022,-0.5,1.0,0.0,360.0,646.0,0.0,0,564.0,1
516,516,0.04542587398064524,0.0,1.0,1.0,440.0,983.0,1.0,1,1577.0,1
517,517,0.07595793494830538,0.1,0.0,0.0,321.0,941.0,0.0,1,1598.0,1
518,518,-0.5621306637505525,-0.6,1.0,0.0,470.0,988.0,0.0,0,182.0,1
519,519,0.1639697262754357,0.2,1.0,1.0,253.0,806.0,1.0,1,501.0,1
520,520,-0.008820701639624007,-0.0,0.0,1.0,386.0,987.0,1.0,0,627.0,1
521,521,0.21486808920738898,0.2,1.0,1.0,284.0,758.0,1.0,1,358.0,1
522,522,0.1884194910432132,0.2,1.0,1.0,434.0,962.0,1.0,1,834.0,1
523,523,0.7014823285768942,0.7,1.0,1.0,365.0,669.0,1.0,1,206.0,1
524,524,-0.7927383203251813,-0.8,0.0,1.0,295.0,562.0,1.0,0,323.0,1
525,525,-0.5525749012993086,-0.6,0.0,1.0,493.0,712.0,1.0,0,135.0,1
526,526,0.4811120814150823,0.5,1.0,1.0,405.0,899.0,1.0,1,116.0,1
527,527,-0.3924052394750438,-0.4,1.0,0.0,251.0,568.0,0.0,0,421.0,1
528,528,0.4187521243309055,0.4,1.0,1.0,358.0,664.0,1.0,1,408.0,1
529,529,-0.5959579055805377,-0.6,1.0,0.0,462.0,632.0,0.0,0,326.0,1
530,530,-0.8079620629105042,-0.8,0.0,1.0,308.0,932.0,1.0,0,150.0,1
531,531,0.8226182838561907,0.8,0.0,0.0,341.0,901.0,0.0,1,228.0,1
532,532,0.15354418006437942,0.2,1.0,1.0,323.0,520.0,1.0,1,517.0,1
533,533,-0.1902088963853077,-0.2,1.0,0.0,423.0,829.0,0.0,0,258.0,1
534,534,0.37767395765851675,0.4,0.0,0.0,389.0,534.0,0.0,1,327.0,1
535,535,-0.06356540919220033,-0.1,1.0,0.0,261.0,673.0,0.0,0,446.0,1
536,536,0.7206319416987209,0.7,1.0,1.0,435.0,650.0,1.0,1,235.0,1
537,537,-0.5329602733060939,-0.5,0.0,1.0,420.0,716.0,1.0,0,244.0,1
538,538,-0.04913927283732089,-0.0,1.0,0.0,347.0,892.0,0.0,0,341.0,1
539,539,0.8755459739763786,0.9,1.0,1.0,328.0,731.0,1.0,1,211.0,1
540,540,-0.530591367049923,-0.5,0.0,1.0,356.0,603.0,1.0,0,331.0,1
541,541,-0.2326257093033237,-0.2,1.0,0.0,290.0,625.0,0.0,0,565.0,1
542,542,-0.5811694172408934,-0.6,0.0,1.0,282.0,532.0,1.0,0,366.0,1
543,543,0.5673646468983481,0.6,1.0,1.0,495.0,668.0,1.0,1,617.0,1
544,544,-0.20057222146157172,-0.2,1.0,0.0,492.0,752.0,0.0,0,556.0,1
545,545,0.1446868193245735,0.1,1.0,1.0,359.0,666.0,1.0,1,385.0,1
546,546,-0.3375088270836538,-0.3,0.0,1.0,374.0,629.0,1.0,0,447.0,1
547,547,0.6657324264104393,0.7,0.0,0.0,265.0,901.0,0.0,1,234.0,1
548,548,0.31420284489893346,0.3,1.0,1.0,332.0,920.0,1.0,1,278.0,1
549,549,0.08912949900580402,0.1,0.0,0.0,272.0,679.0,0.0,1,589.0,1
550,550,-0.44360013245284313,-0.4,1.0,0.0,497.0,918.0,0.0,0,255.0,1
551,551,-0.0714780519666105,-0.1,1.0,0.0,361.0,561.0,0.0,0,1678.0,1
552,552,-0.506203656298831,-0.5,0.0,1.0,368.0,625.0,1.0,0,317.0,1
553,553,-0.1956855891895899,-0.2,0.0,1.0,343.0,579.0,1.0,0,788.0,1
554,554,-0.7443677323739663,-0.7,1.0,0.0,364.0,622.0,0.0,0,194.0,1
555,555,0.5789944304232132,0.6,0.0,0.0,285.0,938.0,0.0,1,217.0,1
556,556,0.25866286887900813,0.3,0.0,0.0,452.0,596.0,0.0,1,512.0,1
557,557,-0.22602465803171046,-0.2,1.0,0.0,347.0,728.0,0.0,0,405.0,1
558,558,-0.2290559992611476,-0.2,1.0,0.0,330.0,715.0,0.0,0,455.0,1
559,559,-0.8730935450402222,-0.9,1.0,0.0,472.0,711.0,0.0,0,617.0,1
560,560,0.8146816748396782,0.8,1.0,1.0,449.0,697.0,1.0,1,224.0,1
561,561,0.7193029357387809,0.7,1.0,1.0,495.0,893.0,1.0,1,102.0,1
562,562,0.5500891358607066,0.6,1.0,1.0,389.0,541.0,1.0,1,320.0,1
563,563,-0.7132977643146413,-0.7,0.0,1.0,251.0,558.0,1.0,0,311.0,1
564,564,0.6571851789144157,0.7,0.0,0.0,486.0,796.0,0.0,1,138.0,1
565,565,-0.19120227541972667,-0.2,0.0,1.0,283.0,628.0,1.0,0,679.0,1
566,566,0.38645746009795523,0.4,1.0,1.0,302.0,562.0,1.0,1,456.0,1
567,567,0.7767172273795014,0.8,0.0,0.0,402.0,868.0,0.0,1,150.0,1
568,568,0.2128207080011738,0.2,1.0,1.0,409.0,523.0,1.0,1,248.0,1
569,569,-0.31577500433486183,-0.3,0.0,1.0,434.0,756.0,1.0,0,250.0,1
570,570,-0.09060691209786564,-0.1,1.0,0.0,424.0,868.0,0.0,0,88.0,1
571,571,-0.056320647582909555,-0.1,0.0,1.0,444.0,640.0,1.0,0,706.0,1
572,572,-0.3553537995523308,-0.4,1.0,0.0,469.0,667.0,0.0,0,314.0,1
573,573,0.826642059269905,0.8,0.0,0.0,456.0,721.0,0.0,1,173.0,1
574,574,0.6581771488112796,0.7,1.0,1.0,435.0,810.0,1.0,1,225.0,1
575,575,-0.6751711248777265,-0.7,1.0,0.0,430.0,866.0,0.0,0,124.0,1
576,576,0.5656318380953763,0.6,0.0,0.0,474.0,527.0,0.0,1,389.0,1
577,577,-0.8697485372233134,-0.9,0.0,1.0,432.0,723.0,1.0,0,335.0,1
578,578,-0.36877628855945677,-0.4,1.0,0.0,437.0,758.0,0.0,0,445.0,1
579,579,-0.4349426920027378,-0.4,0.0,1.0,300.0,976.0,1.0,0,94.0,1
580,580,-0.2833107317845305,-0.3,1.0,0.0,416.0,966.0,0.0,0,508.0,1
581,581,-0.16768197777388505,-0.2,0.0,1.0,321.0,536.0,1.0,0,613.0,1
582,582,-0.5439185279470102,-0.5,0.0,1.0,479.0,635.0,1.0,0,346.0,1
583,583,0.8533749838366781,0.9,0.0,0.0,340.0,854.0,0.0,1,136.0,1
584,584,0.6254742810378554,0.6,0.0,0.0,481.0,880.0,0.0,1,149.0,1
585,585,-0.5128493893171234,-0.5,0.0,1.0,275.0,973.0,1.0,0,232.0,1
586,586,0.48698201965042787,0.5,0.0,0.0,412.0,698.0,0.0,1,310.0,1
587,587,-0.029945746487954783,-0.0,1.0,0.0,253.0,980.0,0.0,0,577.0,1
588,588,-0.7708569626320825,-0.8,0.0,1.0,293.0,833.0,1.0,0,154.0,1
589,589,-0.0660633927112706,-0.1,0.0,1.0,265.0,822.0,1.0,0,933.0,1
590,590,0.5269331677923262,0.5,0.0,0.0,287.0,551.0,0.0,1,432.0,1
591,591,-0.3960224133978416,-0.4,0.0,1.0,292.0,966.0,1.0,0,172.0,1
592,592,-0.7425540337856518,-0.7,0.0,1.0,281.0,915.0,1.0,0,344.0,1
593,593,0.32373046409650075,0.3,1.0,1.0,440.0,525.0,1.0,1,395.0,1
594,594,0.7956572029632215,0.8,0.0,0.0,471.0,874.0,0.0,1,115.0,1
595,595,0.6105772088657396,0.6,1.0,1.0,350.0,908.0,1.0,1,102.0,1
596,596,-0.01272744730001063,-0.0,1.0,0.0,298.0,970.0,1.0,1,1732.0,0
597,597,-0.12336529607895197,-0.1,1.0,0.0,366.0,816.0,0.0,0,988.0,1
598,598,0.7796320525115156,0.8,0.0,0.0,337.0,575.0,0.0,1,448.0,1
599,599,0.2670378703403592,0.3,0.0,0.0,376.0,528.0,0.0,1,486.0,1
600,600,0.7207691251153475,0.7,0.0,0.0,277.0,676.0,0.0,1,257.0,1
601,601,0.14209550487124034,0.1,1.0,1.0,378.0,882.0,1.0,1,1400.0,1
602,602,-0.4282775879961773,-0.4,0.0,1.0,345.0,671.0,1.0,0,384.0,1
603,603,0.19158579290791422,0.2,0.0,0.0,255.0,619.0,0.0,1,486.0,1
604,604,0.8050462734266667,0.8,0.0,0.0,481.0,818.0,0.0,1,181.0,1
605,605,0.6659745090449148,0.7,0.0,0.0,363.0,636.0,0.0,1,171.0,1
606,606,-0.4438629264899697,-0.4,0.0,1.0,253.0,569.0,1.0,0,398.0,1
607,607,0.1510975193641363,0.2,0.0,0.0,341.0,775.0,0.0,1,364.0,1
608,608,-0.8225707277924227,-0.8,1.0,0.0,334.0,921.0,0.0,0,165.0,1
609,609,0.2709732506217396,0.3,1.0,1.0,432.0,770.0,1.0,1,198.0,1
610,610,0.7555529855161952,0.8,0.0,0.0,304.0,863.0,0.0,1,123.0,1
611,611,0.8698146771423122,0.9,1.0,1.0,425.0,647.0,1.0,1,508.0,1
612,612,0.06502988904281692,0.1,1.0,1.0,426.0,651.0,1.0,1,1083.0,1
613,613,-0.5073587678719941,-0.5,0.0,1.0,392.0,963.0,1.0,0,135.0,1
614,614,-0.08845564313148824,-0.1,1.0,0.0,497.0,633.0,0.0,0,560.0,1
615,615,-0.8415165152663725,-0.8,1.0,0.0,268.0,907.0,0.0,0,185.0,1
616,616,-0.8120580119299433,-0.8,0.0,1.0,347.0,563.0,1.0,0,290.0,1
617,617,-0.15108178475738265,-0.2,0.0,1.0,439.0,625.0,1.0,0,756.0,1
618,618,-0.5106881522355737,-0.5,1.0,0.0,274.0,672.0,0.0,0,344.0,1
619,619,0.3795143641147606,0.4,0.0,0.0,384.0,739.0,0.0,1,247.0,1
620,620,-0.5144783600841752,-0.5,0.0,1.0,457.0,940.0,1.0,0,123.0,1
621,621,0.09679671395248879,0.1,1.0,1.0,424.0,715.0,1.0,1,691.0,1
622,622,-0.4255048735641009,-0.4,0.0,1.0,413.0,935.0,1.0,0,172.0,1
623,623,-0.31248074857521335,-0.3,1.0,0.0,314.0,573.0,0.0,0,313.0,1
624,624,-0.7289093014245578,-0.7,1.0,0.0,447.0,773.0,0.0,0,270.0,1
625,625,-0.6495752620920212,-0.6,1.0,0.0,302.0,709.0,0.0,0,229.0,1
626,626,-0.4921908005115319,-0.5,1.0,0.0,418.0,676.0,0.0,0,276.0,1
627,627,-0.5264560865432528,-0.5,1.0,0.0,338.0,772.0,0.0,0,200.0,1
628,628,-0.021487951847755538,-0.0,1.0,0.0,270.0,584.0,0.0,0,2146.0,1
629,629,-0.8806572803238125,-0.9,1.0,0.0,372.0,716.0,0.0,0,162.0,1
630,630,-0.8981782660787487,-0.9,0.0,1.0,424.0,606.0,1.0,0,230.0,1
631,631,0.10515708697789139,0.1,0.0,0.0,443.0,517.0,0.0,1,2040.0,1
632,632,0.3536552026461869,0.4,0.0,0.0,250.0,758.0,0.0,1,342.0,1
633,633,0.304884897272215,0.3,0.0,0.0,452.0,900.0,0.0,1,188.0,1
634,634,-0.3082963265813815,-0.3,0.0,1.0,419.0,824.0,1.0,0,137.0,1
635,635,-0.6527017980636404,-0.7,1.0,0.0,350.0,610.0,0.0,0,330.0,1
636,636,0.8003886810915107,0.8,0.0,0.0,342.0,764.0,0.0,1,134.0,1
637,637,-0.041822909527346686,-0.0,1.0,0.0,492.0,757.0,0.0,0,1341.0,1
638,638,-0.3739732665355354,-0.4,0.0,1.0,379.0,754.0,1.0,0,337.0,1
639,639,-0.6358626740449191,-0.6,1.0,0.0,336.0,753.0,0.0,0,331.0,1
640,640,0.11750714595115219,0.1,1.0,1.0,404.0,869.0,1.0,1,1177.0,1
641,641,0.11558486237398824,0.1,1.0,1.0,453.0,848.0,1.0,1,519.0,1
642,642,0.7741123973419711,0.8,1.0,1.0,471.0,958.0,1.0,1,151.0,1
643,643,0.674069383912402,0.7,0.0,0.0,290.0,755.0,0.0,1,165.0,1
644,644,0.4046619530412271,0.4,1.0,1.0,254.0,746.0,1.0,1,310.0,1
645,645,0.7678343401232482,0.8,0.0,0.0,403.0,819.0,0.0,1,178.0,1
646,646,-0.6705752887434112,-0.7,1.0,0.0,390.0,584.0,0.0,0,476.0,1
647,647,-0.4388718271742915,-0.4,0.0,1.0,414.0,517.0,1.0,0,359.0,1
648,648,0.07160587743970281,0.1,1.0,1.0,264.0,700.0,1.0,1,636.0,1
649,649,0.1666280119050111,0.2,0.0,0.0,357.0,908.0,0.0,1,355.0,1
650,650,0.4244671683178004,0.4,0.0,0.0,410.0,512.0,0.0,1,248.0,1
651,651,0.8256657623159002,0.8,1.0,1.0,314.0,775.0,1.0,1,321.0,1
652,652,-0.0331738547503998,-0.0,0.0,1.0,450.0,824.0,1.0,0,466.0,1
653,653,0.3102316951999854,0.3,1.0,1.0,396.0,747.0,1.0,1,347.0,1
654,654,-0.1432342348519947,-0.1,1.0,0.0,396.0,844.0,0.0,0,550.0,1
655,655,0.5317011889121573,0.5,0.0,0.0,429.0,857.0,0.0,1,244.0,1
656,656,0.2588648273715576,0.3,0.0,0.0,381.0,918.0,0.0,1,551.0,1
657,657,0.2590541523482005,0.3,0.0,0.0,318.0,740.0,0.0,1,492.0,1
658,658,-0.30283358284772155,-0.3,0.0,1.0,285.0,617.0,1.0,0,498.0,1
659,659,0.5746411553781955,0.6,0.0,0.0,488.0,904.0,0.0,1,238.0,1
660,660,0.505013717643548,0.5,1.0,1.0,258.0,999.0,1.0,1,123.0,1
661,661,-0.8122525075389639,-0.8,0.0,1.0,297.0,508.0,1.0,0,195.0,1
662,662,0.8385854130607587,0.8,0.0,0.0,356.0,609.0,0.0,1,315.0,1
663,663,-0.12761189061846567,-0.1,1.0,0.0,447.0,532.0,0.0,0,701.0,1
664,664,0.6925546337488689,0.7,0.0,0.0,379.0,938.0,0.0,1,113.0,1
665,665,-0.14324062424173523,-0.1,1.0,0.0,347.0,922.0,0.0,0,741.0,1
666,666,-0.7574761328302297,-0.8,0.0,1.0,495.0,816.0,1.0,0,149.0,1
667,667,-0.041291947675604734,-0.0,0.0,1.0,324.0,827.0,1.0,0,1849.0,1
668,668,0.5728397206520316,0.6,1.0,1.0,447.0,879.0,1.0,1,214.0,1
669,669,-0.6431630063668036,-0.6,1.0,0.0,471.0,546.0,0.0,0,333.0,1
670,670,0.21052461123342192,0.2,1.0,1.0,316.0,785.0,1.0,1,629.0,1
671,671,-0.4168577699357918,-0.4,1.0,0.0,336.0,825.0,0.0,0,389.0,1
672,672,0.31392593094003585,0.3,0.0,0.0,388.0,740.0,0.0,1,322.0,1
673,673,0.15101242689312222,0.2,0.0,0.0,464.0,842.0,0.0,1,924.0,1
674,674,-0.8060176628149386,-0.8,1.0,0.0,421.0,659.0,0.0,0,360.0,1
675,675,0.3090360757876659,0.3,1.0,1.0,464.0,939.0,1.0,1,177.0,1
676,676,0.07646136783161805,0.1,1.0,1.0,364.0,681.0,1.0,1,415.0,1
677,677,0.2597848459964315,0.3,0.0,0.0,486.0,617.0,0.0,1,437.0,1
678,678,0.7627623722531142,0.8,1.0,1.0,498.0,904.0,1.0,1,88.0,1
679,679,-0.1366475519351209,-0.1,0.0,1.0,338.0,988.0,1.0,0,564.0,1
680,680,-0.45163151266899715,-0.5,1.0,0.0,426.0,844.0,0.0,0,290.0,1
681,681,-0.6250569222507432,-0.6,0.0,1.0,351.0,935.0,1.0,0,184.0,1
682,682,0.5063679116683827,0.5,1.0,1.0,461.0,711.0,1.0,1,228.0,1
683,683,-0.3579731526921076,-0.4,0.0,1.0,254.0,591.0,1.0,0,275.0,1
684,684,0.17211319293408034,0.2,0.0,0.0,430.0,732.0,0.0,1,718.0,1
685,685,-0.6563075382380048,-0.7,1.0,0.0,334.0,734.0,0.0,0,212.0,1
686,686,-0.8374832900775799,-0.8,0.0,1.0,417.0,771.0,1.0,0,152.0,1
687,687,0.3041432364247004,0.3,1.0,1.0,395.0,798.0,1.0,1,197.0,1
688,688,-0.13625944867811202,-0.1,0.0,1.0,327.0,921.0,1.0,0,382.0,1
689,689,0.24803682326321674,0.2,0.0,0.0,479.0,660.0,0.0,1,431.0,1
690,690,-0.5903767403531626,-0.6,1.0,0.0,366.0,963.0,0.0,0,231.0,1
691,691,-0.761387728365211,-0.8,1.0,0.0,464.0,754.0,0.0,0,652.0,1
692,692,-0.21468340525277385,-0.2,1.0,0.0,259.0,921.0,0.0,0,460.0,1
693,693,-0.4230380887605953,-0.4,0.0,1.0,371.0,915.0,1.0,0,154.0,1
694,694,-0.7988818345457056,-0.8,0.0,1.0,424.0,964.0,1.0,0,132.0,1
695,695,-0.21213798285781316,-0.2,0.0,1.0,490.0,801.0,1.0,0,339.0,1
696,696,-0.16051143687112102,-0.2,1.0,0.0,409.0,699.0,0.0,0,432.0,1
697,697,-0.21215739652972088,-0.2,0.0,1.0,439.0,795.0,1.0,0,1766.0,1
698,698,-0.12927228318767003,-0.1,0.0,1.0,424.0,617.0,1.0,0,1959.0,1
699,699,-0.8531731173814834,-0.9,1.0,0.0,289.0,554.0,0.0,0,437.0,1
700,700,-0.7501950238336956,-0.8,0.0,1.0,441.0,954.0,1.0,0,115.0,1
701,701,-0.7404190072728625,-0.7,0.0,1.0,267.0,782.0,1.0,0,171.0,1
702,702,-0.8673298457836421,-0.9,1.0,0.0,368.0,951.0,0.0,0,181.0,1
703,703,-0.35509082996914554,-0.4,1.0,0.0,266.0,843.0,0.0,0,291.0,1
704,704,-0.2700035696692399,-0.3,0.0,1.0,368.0,781.0,1.0,0,251.0,1
705,705,-0.09886958584362748,-0.1,0.0,1.0,280.0,919.0,1.0,0,1711.0,1
706,706,-0.5463929117077603,-0.5,0.0,1.0,384.0,927.0,1.0,0,119.0,1
707,707,-0.633502457734124,-0.6,0.0,1.0,250.0,732.0,1.0,0,118.0,1
708,708,0.2162843489274363,0.2,1.0,1.0,267.0,670.0,1.0,1,703.0,1
709,709,-0.04824324191159424,-0.0,0.0,1.0,337.0,593.0,1.0,0,1320.0,1
710,710,0.43710531290035715,0.4,0.0,0.0,484.0,880.0,0.0,1,256.0,1
711,711,-0.6703907113248748,-0.7,0.0,1.0,420.0,931.0,1.0,0,159.0,1
712,712,0.13763286422055276,0.1,0.0,0.0,298.0,780.0,0.0,1,432.0,1
713,713,-0.2309360863060952,-0.2,0.0,1.0,257.0,561.0,1.0,0,352.0,1
714,714,-0.8943507086717892,-0.9,0.0,1.0,443.0,546.0,1.0,0,291.0,1
715,715,-0.08725914381176059,-0.1,0.0,1.0,305.0,716.0,1.0,0,1529.0,1
716,716,-0.015951232854727104,-0.0,0.0,1.0,451.0,578.0,1.0,0,1401.0,1
717,717,-0.36482279684701147,-0.4,0.0,1.0,326.0,867.0,1.0,0,197.0,1
718,718,-0.33392226991332463,-0.3,1.0,0.0,307.0,501.0,0.0,0,462.0,1
719,719,-0.29449324057420956,-0.3,1.0,0.0,457.0,748.0,0.0,0,235.0,1
720,720,0.11595136697505215,0.1,0.0,0.0,384.0,765.0,0.0,1,571.0,1
721,721,-0.26845366459834963,-0.3,1.0,0.0,425.0,683.0,0.0,0,302.0,1
722,722,0.6692456721238592,0.7,1.0,1.0,467.0,521.0,1.0,1,752.0,1
723,723,-0.46662171949838827,-0.5,1.0,0.0,260.0,501.0,0.0,0,329.0,1
724,724,-0.15816338877996106,-0.2,1.0,0.0,465.0,718.0,0.0,0,917.0,1
725,725,-0.2793845751672298,-0.3,1.0,0.0,431.0,730.0,0.0,0,529.0,1
726,726,-0.767799211940249,-0.8,1.0,0.0,422.0,952.0,0.0,0,166.0,1
727,727,0.8679811916710448,0.9,1.0,1.0,377.0,846.0,1.0,1,227.0,1
728,728,0.48013218292550397,0.5,1.0,1.0,335.0,952.0,1.0,1,293.0,1
729,729,-0.47405091984848946,-0.5,0.0,1.0,327.0,667.0,1.0,0,266.0,1
730,730,-0.34412941145205844,-0.3,1.0,0.0,449.0,640.0,0.0,0,381.0,1
731,731,-0.7361671052121834,-0.7,1.0,0.0,451.0,518.0,0.0,0,221.0,1
732,732,0.3241593916558009,0.3,0.0,0.0,265.0,767.0,0.0,1,328.0,1
733,733,-0.07118755768304108,-0.1,0.0,1.0,487.0,794.0,1.0,0,1629.0,1
734,734,0.39744618164550116,0.4,1.0,1.0,498.0,771.0,1.0,1,281.0,1
735,735,0.4648120207870895,0.5,0.0,0.0,305.0,904.0,0.0,1,111.0,1
736,736,0.2910159061327878,0.3,1.0,1.0,475.0,577.0,1.0,1,358.0,1
737,737,0.058470928703565406,0.1,1.0,1.0,422.0,592.0,1.0,1,1766.0,1
738,738,0.6709922440981101,0.7,0.0,0.0,311.0,674.0,0.0,1,215.0,1
739,739,-0.5901189353271484,-0.6,0.0,1.0,480.0,856.0,1.0,0,264.0,1
740,740,0.7837208423583696,0.8,1.0,1.0,493.0,720.0,1.0,1,207.0,1
741,741,0.7856073927219159,0.8,1.0,1.0,299.0,947.0,1.0,1,154.0,1
742,742,0.3958496543544413,0.4,1.0,1.0,449.0,533.0,1.0,1,398.0,1
743,743,0.8306141191365591,0.8,1.0,1.0,433.0,974.0,1.0,1,233.0,1
744,744,0.36268297858135956,0.4,0.0,0.0,346.0,723.0,0.0,1,301.0,1
745,745,-0.48653090155961687,-0.5,0.0,1.0,453.0,791.0,1.0,0,286.0,1
746,746,-0.7750864355615305,-0.8,0.0,1.0,315.0,977.0,1.0,0,88.0,1
747,747,0.04826078093587183,0.0,0.0,0.0,355.0,554.0,0.0,1,2091.0,1
748,748,-0.0023833348582357194,-0.0,0.0,1.0,266.0,650.0,0.0,1,2084.0,0
749,749,0.48228126396068005,0.5,1.0,1.0,325.0,910.0,1.0,1,235.0,1
750,750,0.5788225835319415,0.6,0.0,0.0,264.0,634.0,0.0,1,282.0,1
751,751,0.5353558798828447,0.5,1.0,1.0,439.0,922.0,1.0,1,119.0,1
752,752,-0.35310094716323837,-0.4,1.0,0.0,376.0,576.0,0.0,0,818.0,1
753,753,0.5399077604210164,0.5,1.0,1.0,453.0,659.0,1.0,1,198.0,1
754,754,-0.08585359354257938,-0.1,1.0,0.0,343.0,739.0,0.0,0,1478.0,1
755,755,-0.05750327689654955,-0.1,0.0,1.0,362.0,976.0,1.0,0,292.0,1
756,756,-0.8609141793399456,-0.9,0.0,1.0,367.0,558.0,1.0,0,1165.0,1
757,757,0.8399472833224463,0.8,0.0,0.0,324.0,920.0,0.0,1,126.0,1
758,758,0.8755224849873112,0.9,1.0,1.0,378.0,658.0,1.0,1,174.0,1
759,759,-0.8489806285781073,-0.8,1.0,0.0,482.0,707.0,0.0,0,161.0,1
760,760,0.5603493837582657,0.6,1.0,1.0,477.0,541.0,1.0,1,502.0,1
761,761,-0.7614648516928174,-0.8,1.0,0.0,266.0,950.0,0.0,0,114.0,1
762,762,0.1675496611579642,0.2,1.0,1.0,361.0,567.0,1.0,1,902.0,1
763,763,0.4379295803136324,0.4,1.0,1.0,370.0,653.0,1.0,1,337.0,1
764,764,0.5183208547192452,0.5,0.0,0.0,344.0,664.0,0.0,1,262.0,1
765,765,0.47403395807618265,0.5,1.0,1.0,496.0,840.0,1.0,1,134.0,1
766,766,-0.5801663241869413,-0.6,1.0,0.0,421.0,839.0,0.0,0,220.0,1
767,767,0.38235927582013185,0.4,0.0,0.0,295.0,685.0,0.0,1,340.0,1
768,768,-0.8521167922032377,-0.9,0.0,1.0,420.0,670.0,1.0,0,240.0,1
769,769,-0.23291346436759985,-0.2,0.0,1.0,299.0,870.0,1.0,0,381.0,1
770,770,-0.5014374703405944,-0.5,1.0,0.0,448.0,504.0,0.0,0,348.0,1
771,771,0.40557821460613164,0.4,0.0,0.0,401.0,987.0,0.0,1,262.0,1
772,772,0.820599925195523,0.8,1.0,1.0,277.0,694.0,1.0,1,409.0,1
773,773,-0.4407436525419482,-0.4,0.0,1.0,402.0,912.0,1.0,0,146.0,1
774,774,-0.1510471842923613,-0.2,1.0,0.0,439.0,656.0,0.0,0,915.0,1
775,775,-0.7138732194812238,-0.7,1.0,0.0,433.0,952.0,0.0,0,75.0,1
776,776,0.5764353779901036,0.6,0.0,0.0,288.0,743.0,0.0,1,239.0,1
777,777,-0.6860772424476216,-0.7,0.0,1.0,323.0,593.0,1.0,0,414.0,1
778,778,-0.7292220863088062,-0.7,0.0,1.0,338.0,712.0,1.0,0,230.0,1
779,779,-0.40438094023164606,-0.4,1.0,0.0,441.0,764.0,0.0,0,235.0,1
780,780,0.7908575170033457,0.8,1.0,1.0,394.0,501.0,1.0,1,315.0,1
781,781,-0.7653458233574911,-0.8,1.0,0.0,459.0,540.0,0.0,0,301.0,1
782,782,-0.8764828086125953,-0.9,0.0,1.0,349.0,652.0,1.0,0,289.0,1
783,783,0.7073318110973436,0.7,0.0,0.0,421.0,661.0,0.0,1,228.0,1
784,784,-0.7475131866428586,-0.7,0.0,1.0,376.0,531.0,1.0,0,363.0,1
785,785,-0.8513763154203763,-0.9,0.0,1.0,310.0,715.0,1.0,0,245.0,1
786,786,0.013359086455341673,0.0,0.0,0.0,382.0,956.0,0.0,1,1662.0,1
787,787,-0.26418172238767235,-0.3,0.0,1.0,270.0,874.0,1.0,0,286.0,1
788,788,-0.5188139615330867,-0.5,1.0,0.0,361.0,536.0,0.0,0,323.0,1
789,789,0.35365317450548595,0.4,0.0,0.0,319.0,501.0,0.0,1,510.0,1
790,790,-0.122839429249891,-0.1,0.0,1.0,396.0,915.0,1.0,0,1019.0,1
791,791,-0.3639881889201816,-0.4,1.0,0.0,433.0,880.0,0.0,0,407.0,1
792,792,0.8578446404347092,0.9,1.0,1.0,303.0,987.0,1.0,1,180.0,1
793,793,0.49925634702155997,0.5,0.0,0.0,339.0,772.0,0.0,1,269.0,1
794,794,-0.23590323334732155,-0.2,0.0,1.0,448.0,631.0,1.0,0,511.0,1
795,795,0.21322707483577508,0.2,1.0,1.0,321.0,992.0,1.0,1,307.0,1
796,796,-0.8395713984038653,-0.8,0.0,1.0,324.0,932.0,1.0,0,94.0,1
797,797,0.43278305438356723,0.4,1.0,1.0,262.0,940.0,1.0,1,218.0,1
798,798,-0.26107836299369025,-0.3,0.0,1.0,395.0,932.0,1.0,0,93.0,1
799,799,-0.17198052476861414,-0.2,1.0,0.0,438.0,844.0,0.0,0,248.0,1
800,800,-0.8359002128453645,-0.8,0.0,1.0,498.0,568.0,1.0,0,174.0,1
801,801,0.8205569464664676,0.8,0.0,0.0,488.0,600.0,0.0,1,362.0,1
802,802,0.6636503226866374,0.7,1.0,1.0,255.0,755.0,1.0,1,210.0,1
803,803,-0.13166396722328766,-0.1,0.0,1.0,367.0,773.0,1.0,0,880.0,1
804,804,-0.3055617593357697,-0.3,0.0,1.0,493.0,672.0,1.0,0,285.0,1
805,805,0.23761867519853197,0.2,0.0,0.0,399.0,661.0,0.0,1,330.0,1
806,806,0.8627525336263516,0.9,0.0,0.0,412.0,818.0,0.0,1,70.0,1
807,807,-0.6809013742924169,-0.7,1.0,0.0,289.0,727.0,0.0,0,174.0,1
808,808,0.2079228897660249,0.2,0.0,0.0,466.0,597.0,0.0,1,447.0,1
809,809,-0.3382731056264153,-0.3,0.0,1.0,271.0,913.0,1.0,0,146.0,1
810,810,-0.05162750940677263,-0.1,0.0,1.0,475.0,527.0,1.0,0,1388.0,1
811,811,-0.24559287856872736,-0.2,0.0,1.0,353.0,655.0,1.0,0,802.0,1
812,812,-0.6588439853883125,-0.7,0.0,1.0,494.0,993.0,1.0,0,83.0,1
813,813,0.48461151986969997,0.5,0.0,0.0,445.0,672.0,0.0,1,253.0,1
814,814,0.43219306035469807,0.4,0.0,0.0,401.0,916.0,0.0,1,163.0,1
815,815,-0.7242037622130907,-0.7,1.0,0.0,373.0,945.0,0.0,0,202.0,1
816,816,-0.8824828815283255,-0.9,0.0,1.0,393.0,697.0,1.0,0,80.0,1
817,817,0.6532504712963868,0.7,0.0,0.0,347.0,662.0,0.0,1,241.0,1
818,818,-0.7076811751333952,-0.7,0.0,1.0,377.0,616.0,1.0,0,417.0,1
819,819,-0.1479576066052919,-0.1,1.0,0.0,298.0,790.0,0.0,0,1342.0,1
820,820,0.19472365189471985,0.2,0.0,0.0,423.0,863.0,0.0,1,204.0,1
821,821,-0.4556996398903705,-0.5,0.0,1.0,376.0,731.0,1.0,0,233.0,1
822,822,-0.3495841964732661,-0.3,1.0,0.0,400.0,929.0,0.0,0,471.0,1
823,823,-0.6190401820412235,-0.6,0.0,1.0,313.0,988.0,1.0,0,99.0,1
824,824,0.5260524284303697,0.5,1.0,1.0,395.0,937.0,1.0,1,228.0,1
825,825,0.46279373841049776,0.5,0.0,0.0,269.0,852.0,0.0,1,179.0,1
826,826,0.8453005897345786,0.8,1.0,1.0,435.0,996.0,1.0,1,119.0,1
827,827,-0.5484230005214412,-0.5,0.0,1.0,257.0,607.0,1.0,0,456.0,1
828,828,-0.5715770666351407,-0.6,0.0,1.0,462.0,734.0,1.0,0,214.0,1
829,829,0.4092409072540665,0.4,1.0,1.0,440.0,770.0,1.0,1,320.0,1
830,830,-0.6939053917359844,-0.7,1.0,0.0,285.0,602.0,0.0,0,253.0,1
831,831,0.12603739712750783,0.1,0.0,0.0,250.0,863.0,0.0,1,967.0,1
832,832,0.14658311685488312,0.1,1.0,1.0,365.0,670.0,1.0,1,555.0,1
833,833,-0.8008533047931786,-0.8,1.0,0.0,410.0,820.0,0.0,0,280.0,1
834,834,-0.794716209984237,-0.8,1.0,0.0,308.0,879.0,0.0,0,353.0,1
835,835,-0.46193374177845153,-0.5,0.0,1.0,358.0,793.0,1.0,0,299.0,1
836,836,0.34440304667547783,0.3,0.0,0.0,442.0,948.0,0.0,1,200.0,1
837,837,-0.4826415176687381,-0.5,1.0,0.0,456.0,991.0,0.0,0,83.0,1
838,838,0.1169554180415383,0.1,1.0,1.0,281.0,992.0,1.0,1,407.0,1
839,839,0.7414652001404273,0.7,1.0,1.0,468.0,628.0,1.0,1,374.0,1
840,840,0.15550104533043363,0.2,1.0,1.0,252.0,704.0,1.0,1,554.0,1
841,841,-0.6652466322928815,-0.7,1.0,0.0,370.0,856.0,0.0,0,194.0,1
842,842,-0.236722374018018,-0.2,1.0,0.0,443.0,514.0,0.0,0,543.0,1
843,843,-0.040596949549223216,-0.0,0.0,1.0,483.0,702.0,1.0,0,1475.0,1
844,844,0.795758079495598,0.8,0.0,0.0,269.0,752.0,0.0,1,289.0,1
845,845,0.26038068839413164,0.3,1.0,1.0,252.0,911.0,1.0,1,527.0,1
846,846,0.5774615234331092,0.6,1.0,1.0,370.0,580.0,1.0,1,500.0,1
847,847,-0.2753119283327198,-0.3,0.0,1.0,480.0,725.0,1.0,0,295.0,1
848,848,0.5701216572310112,0.6,0.0,0.0,273.0,763.0,0.0,1,304.0,1
849,849,0.39648084796629945,0.4,0.0,0.0,426.0,967.0,0.0,1,207.0,1
850,850,-0.7304562475123386,-0.7,0.0,1.0,328.0,729.0,1.0,0,233.0,1
851,851,0.2964830364159038,0.3,0.0,0.0,499.0,888.0,0.0,1,253.0,1
852,852,0.0897275809850342,0.1,1.0,1.0,324.0,507.0,1.0,1,1239.0,1
853,853,0.7748804280332874,0.8,1.0,1.0,391.0,705.0,1.0,1,314.0,1
854,854,0.3796437281000663,0.4,1.0,1.0,484.0,691.0,1.0,1,265.0,1
855,855,-0.5205894480019493,-0.5,1.0,0.0,306.0,599.0,0.0,0,335.0,1
856,856,0.49878077500696405,0.5,1.0,1.0,453.0,588.0,1.0,1,239.0,1
857,857,-0.506112716439989,-0.5,1.0,0.0,400.0,886.0,0.0,0,134.0,1
858,858,0.5168418969211418,0.5,0.0,0.0,281.0,919.0,0.0,1,80.0,1
859,859,0.5609680522834443,0.6,1.0,1.0,436.0,626.0,1.0,1,178.0,1
860,860,0.024278604185173247,0.0,1.0,1.0,411.0,780.0,1.0,1,559.0,1
861,861,0.1777279580994765,0.2,0.0,0.0,363.0,584.0,0.0,1,833.0,1
862,862,-0.12334073327450379,-0.1,1.0,0.0,315.0,597.0,0.0,0,488.0,1
863,863,0.11182296304305839,0.1,0.0,0.0,333.0,688.0,0.0,1,759.0,1
864,864,0.22857899038770013,0.2,0.0,0.0,480.0,939.0,0.0,1,341.0,1
865,865,0.7408274271397782,0.7,0.0,0.0,473.0,653.0,0.0,1,164.0,1
866,866,0.4662632020581837,0.5,1.0,1.0,274.0,975.0,1.0,1,231.0,1
867,867,-0.48809040578167723,-0.5,1.0,0.0,438.0,929.0,0.0,0,343.0,1
868,868,-0.8470652613172933,-0.8,1.0,0.0,421.0,680.0,0.0,0,219.0,1
869,869,-0.6643985952146898,-0.7,1.0,0.0,460.0,834.0,0.0,0,176.0,1
870,870,-0.13772087844297332,-0.1,1.0,0.0,468.0,596.0,0.0,0,656.0,1
871,871,0.34281186827317256,0.3,1.0,1.0,411.0,757.0,1.0,1,292.0,1
872,872,-0.6983190946135933,-0.7,0.0,1.0,311.0,526.0,1.0,0,253.0,1
873,873,-0.016021470150900496,-0.0,0.0,1.0,398.0,654.0,1.0,0,1948.0,1
874,874,-0.007102255059726059,-0.0,0.0,1.0,329.0,606.0,0.0,1,2065.0,0
875,875,0.6104072766113197,0.6,0.0,0.0,391.0,989.0,0.0,1,120.0,1
876,876,-0.07924232027023248,-0.1,1.0,0.0,333.0,948.0,0.0,0,1319.0,1
877,877,-0.3894443344409213,-0.4,0.0,1.0,356.0,637.0,1.0,0,317.0,1
878,878,0.8020761599458442,0.8,0.0,0.0,325.0,825.0,0.0,1,320.0,1
879,879,0.08774153777441585,0.1,1.0,1.0,305.0,815.0,1.0,1,560.0,1
880,880,-0.27370513830540166,-0.3,1.0,0.0,375.0,813.0,0.0,0,412.0,1
881,881,0.6623834834037005,0.7,1.0,1.0,345.0,500.0,1.0,1,275.0,1
882,882,0.8241731540120313,0.8,1.0,1.0,283.0,968.0,1.0,1,169.0,1
883,883,0.8137014536066166,0.8,0.0,0.0,437.0,894.0,0.0,1,329.0,1
884,884,-0.717154343449777,-0.7,1.0,0.0,393.0,781.0,0.0,0,396.0,1
885,885,-0.5896085686963237,-0.6,1.0,0.0,461.0,773.0,0.0,0,236.0,1
886,886,0.7280237230701289,0.7,0.0,0.0,402.0,522.0,0.0,1,276.0,1
887,887,-0.8740984874202283,-0.9,1.0,0.0,401.0,656.0,0.0,0,343.0,1
888,888,-0.8063832254550028,-0.8,0.0,1.0,254.0,524.0,1.0,0,312.0,1
889,889,-0.17095966473805146,-0.2,0.0,1.0,323.0,521.0,1.0,0,446.0,1
890,890,-0.5353898149182588,-0.5,1.0,0.0,303.0,853.0,0.0,0,134.0,1
891,891,-0.7242055440823214,-0.7,1.0,0.0,405.0,838.0,0.0,0,127.0,1
892,892,0.30204258869374623,0.3,0.0,0.0,319.0,552.0,0.0,1,669.0,1
893,893,0.4679867164829262,0.5,0.0,0.0,346.0,924.0,0.0,1,200.0,1
894,894,-0.24289059405384517,-0.2,1.0,0.0,322.0,846.0,0.0,0,292.0,1
895,895,-0.3192961452701931,-0.3,0.0,1.0,316.0,942.0,1.0,0,152.0,1
896,896,-0.7111757294910426,-0.7,1.0,0.0,354.0,820.0,0.0,0,176.0,1
897,897,-0.5987354247751089,-0.6,1.0,0.0,323.0,818.0,0.0,0,219.0,1
898,898,-0.7576317763725811,-0.8,1.0,0.0,409.0,872.0,0.0,0,89.0,1
899,899,0.3212442037674773,0.3,0.0,0.0,399.0,777.0,0.0,1,174.0,1
900,900,0.012089742033891793,0.0,1.0,1.0,293.0,943.0,0.0,0,1764.0,0
901,901,-0.8323981152628582,-0.8,0.0,1.0,371.0,847.0,1.0,0,52.0,1
902,902,0.4912737855066237,0.5,0.0,0.0,397.0,832.0,0.0,1,301.0,1
903,903,0.802390489697472,0.8,1.0,1.0,474.0,557.0,1.0,1,579.0,1
904,904,-0.14492166149868124,-0.1,0.0,1.0,328.0,998.0,1.0,0,444.0,1
905,905,-0.40044853412864684,-0.4,1.0,0.0,417.0,686.0,0.0,0,247.0,1
906,906,0.04083224841540778,0.0,1.0,1.0,484.0,589.0,0.0,0,1927.0,0
907,907,-0.7114016873617004,-0.7,0.0,1.0,364.0,822.0,1.0,0,214.0,1
908,908,-0.8810127792230814,-0.9,0.0,1.0,387.0,747.0,1.0,0,716.0,1
909,909,0.8909972124615991,0.9,1.0,1.0,311.0,626.0,1.0,1,753.0,1
910,910,0.4828366093347972,0.5,1.0,1.0,434.0,993.0,1.0,1,163.0,1
911,911,0.25959835868406345,0.3,0.0,0.0,474.0,798.0,0.0,1,288.0,1
912,912,-0.3515118183839383,-0.4,0.0,1.0,335.0,715.0,1.0,0,480.0,1
913,913,-0.009682971547553043,-0.0,1.0,0.0,421.0,885.0,1.0,1,714.0,0
914,914,-0.2682902982353089,-0.3,0.0,1.0,263.0,690.0,1.0,0,597.0,1
915,915,-0.021948358713909877,-0.0,0.0,1.0,299.0,697.0,1.0,0,2004.0,1
916,916,-0.7324115103143248,-0.7,0.0,1.0,484.0,946.0,1.0,0,100.0,1
917,917,0.20613903733368588,0.2,1.0,1.0,334.0,663.0,1.0,1,1193.0,1
918,918,0.4425164334327719,0.4,1.0,1.0,281.0,667.0,1.0,1,382.0,1
919,919,-0.20629255779087885,-0.2,1.0,0.0,403.0,609.0,0.0,0,808.0,1
920,920,0.6481724768994325,0.6,0.0,0.0,473.0,986.0,0.0,1,161.0,1
921,921,0.3915203491011595,0.4,1.0,1.0,332.0,629.0,1.0,1,419.0,1
922,922,-0.05956687600509181,-0.1,1.0,0.0,296.0,834.0,0.0,0,1750.0,1
923,923,-0.29751650545098296,-0.3,1.0,0.0,376.0,616.0,0.0,0,378.0,1
924,924,0.3850663189075626,0.4,0.0,0.0,456.0,645.0,0.0,1,439.0,1
925,925,-0.18162199468745743,-0.2,1.0,0.0,457.0,542.0,0.0,0,701.0,1
926,926,-0.8973229591170986,-0.9,1.0,0.0,428.0,555.0,0.0,0,267.0,1
927,927,0.49102327191231476,0.5,1.0,1.0,284.0,792.0,1.0,1,244.0,1
928,928,-0.7434480213952821,-0.7,0.0,1.0,428.0,835.0,1.0,0,157.0,1
929,929,-0.37418357957246373,-0.4,1.0,0.0,279.0,904.0,0.0,0,297.0,1
930,930,0.5990612687916205,0.6,1.0,1.0,303.0,912.0,1.0,1,155.0,1
931,931,-0.5217476283687712,-0.5,1.0,0.0,470.0,877.0,0.0,0,293.0,1
932,932,-0.7872126807254594,-0.8,0.0,1.0,274.0,641.0,1.0,0,725.0,1
933,933,0.40668029366336966,0.4,0.0,0.0,412.0,709.0,0.0,1,209.0,1
934,934,-0.5529351295891496,-0.6,1.0,0.0,388.0,600.0,0.0,0,392.0,1
935,935,-0.3215126444447276,-0.3,0.0,1.0,283.0,718.0,1.0,0,179.0,1
936,936,-0.08319928449821712,-0.1,1.0,0.0,460.0,889.0,0.0,0,711.0,1
937,937,0.8749988354520947,0.9,1.0,1.0,436.0,643.0,1.0,1,251.0,1
938,938,0.3965025853673264,0.4,0.0,0.0,299.0,734.0,0.0,1,327.0,1
939,939,-0.7135425321983905,-0.7,1.0,0.0,294.0,562.0,0.0,0,324.0,1
940,940,-0.19894238577029344,-0.2,1.0,0.0,489.0,582.0,0.0,0,519.0,1
941,941,0.7898348287785514,0.8,1.0,1.0,363.0,759.0,1.0,1,238.0,1
942,942,0.026286436396107837,0.0,1.0,1.0,256.0,540.0,1.0,1,2204.0,1
943,943,0.7269328873482813,0.7,1.0,1.0,353.0,828.0,1.0,1,89.0,1
944,944,-0.5999140210935707,-0.6,0.0,1.0,296.0,771.0,1.0,0,313.0,1
945,945,0.8017145967788027,0.8,1.0,1.0,489.0,609.0,1.0,1,192.0,1
946,946,0.17785327723785527,0.2,1.0,1.0,453.0,833.0,1.0,1,254.0,1
947,947,-0.09830409211078794,-0.1,1.0,0.0,340.0,780.0,0.0,0,450.0,1
948,948,0.0546401971001339,0.1,1.0,1.0,376.0,685.0,0.0,0,1939.0,0
949,949,-0.3892493428639493,-0.4,0.0,1.0,283.0,900.0,1.0,0,187.0,1
950,950,0.2404763717501598,0.2,0.0,0.0,423.0,654.0,0.0,1,603.0,1
951,951,-0.06612079733017096,-0.1,0.0,1.0,260.0,530.0,1.0,0,850.0,1
952,952,-0.09062166769957913,-0.1,1.0,0.0,364.0,936.0,0.0,0,610.0,1
953,953,-0.42600554620857745,-0.4,1.0,0.0,334.0,853.0,0.0,0,493.0,1
954,954,0.40439795478171814,0.4,0.0,0.0,467.0,945.0,0.0,1,118.0,1
955,955,0.6293280881201807,0.6,0.0,0.0,373.0,785.0,0.0,1,142.0,1
956,956,-0.36325464941332075,-0.4,0.0,1.0,279.0,745.0,1.0,0,246.0,1
957,957,-0.13516985186520059,-0.1,1.0,0.0,300.0,971.0,0.0,0,1209.0,1
958,958,-0.14042539129691434,-0.1,0.0,1.0,270.0,528.0,1.0,0,982.0,1
959,959,-0.7045256243644351,-0.7,0.0,1.0,315.0,976.0,1.0,0,69.0,1
960,960,0.018790729912418924,0.0,0.0,0.0,333.0,943.0,0.0,1,74.0,1
961,961,-0.22310759607268038,-0.2,0.0,1.0,313.0,964.0,1.0,0,383.0,1
962,962,-0.0030407609356346565,-0.0,1.0,0.0,434.0,787.0,0.0,0,1779.0,1
963,963,0.23405275750289467,0.2,0.0,0.0,302.0,949.0,0.0,1,269.0,1
964,964,0.5881097747841307,0.6,0.0,0.0,473.0,510.0,0.0,1,357.0,1
965,965,-0.37382005084793435,-0.4,1.0,0.0,340.0,559.0,0.0,0,331.0,1
966,966,0.5983698791849258,0.6,1.0,1.0,321.0,994.0,1.0,1,175.0,1
967,967,0.039834520741092616,0.0,1.0,1.0,326.0,602.0,1.0,1,2072.0,1
968,968,0.8789411635729122,0.9,0.0,0.0,339.0,652.0,0.0,1,159.0,1
969,969,0.2563031026699726,0.3,0.0,0.0,316.0,745.0,0.0,1,539.0,1
970,970,-0.7159458834956135,-0.7,0.0,1.0,448.0,826.0,1.0,0,336.0,1
971,971,-0.5501683741513779,-0.6,0.0,1.0,318.0,779.0,1.0,0,363.0,1
972,972,-0.09234017867050981,-0.1,0.0,1.0,395.0,655.0,1.0,0,1950.0,1
973,973,0.21462653867286619,0.2,1.0,1.0,300.0,820.0,1.0,1,500.0,1
974,974,0.5473533035749844,0.5,0.0,0.0,473.0,500.0,0.0,1,397.0,1
975,975,-0.19334083725616424,-0.2,1.0,0.0,329.0,839.0,0.0,0,252.0,1
976,976,-0.8763000902654502,-0.9,1.0,0.0,298.0,553.0,0.0,0,319.0,1
977,977,-0.6281018373676786,-0.6,1.0,0.0,369.0,699.0,0.0,0,232.0,1
978,978,0.6358165689634506,0.6,1.0,1.0,354.0,836.0,1.0,1,480.0,1
979,979,0.6172206655842746,0.6,0.0,0.0,382.0,559.0,0.0,1,189.0,1
980,980,-0.7440214757453852,-0.7,0.0,1.0,471.0,810.0,1.0,0,119.0,1
981,981,-0.5661859204681748,-0.6,0.0,1.0,407.0,876.0,1.0,0,177.0,1
982,982,-0.47019607987597045,-0.5,0.0,1.0,469.0,919.0,1.0,0,102.0,1
983,983,0.6341243188695095,0.6,0.0,0.0,303.0,683.0,0.0,1,184.0,1
984,984,0.8125875426752541,0.8,1.0,1.0,270.0,697.0,1.0,1,263.0,1
985,985,-0.19876606880988856,-0.2,0.0,1.0,428.0,534.0,1.0,0,658.0,1
986,986,-0.17122201557574512,-0.2,1.0,0.0,445.0,805.0,0.0,0,910.0,1
987,987,0.5542713371304445,0.6,1.0,1.0,468.0,515.0,1.0,1,587.0,1
988,988,0.5839093734452033,0.6,0.0,0.0,469.0,615.0,0.0,1,296.0,1
989,989,0.4764579177091345,0.5,0.0,0.0,488.0,646.0,0.0,1,276.0,1
990,990,0.46525176008787705,0.5,0.0,0.0,250.0,614.0,0.0,1,286.0,1
991,991,-0.5091077671243063,-0.5,1.0,0.0,434.0,727.0,0.0,0,379.0,1
992,992,-0.3404179354833019,-0.3,1.0,0.0,410.0,643.0,0.0,0,347.0,1
993,993,0.0027773798970943675,0.0,1.0,1.0,457.0,811.0,0.0,0,1732.0,0
994,994,-0.5192138560175047,-0.5,0.0,1.0,321.0,520.0,1.0,0,529.0,1
995,995,-0.20481956415784197,-0.2,0.0,1.0,419.0,579.0,1.0,0,512.0,1
996,996,-0.8958749835218477,-0.9,1.0,0.0,391.0,981.0,0.0,0,158.0,1
997,997,-0.05480560061359241,-0.1,0.0,1.0,399.0,768.0,1.0,0,793.0,1
998,998,0.8110394448683022,0.8,1.0,1.0,472.0,544.0,1.0,1,194.0,1
999,999,-0.5886745954641137,-0.6,0.0,1.0,313.0,699.0,1.0,0,468.0,1
1000,1000,-0.16664391081749497,-0.2,0.0,1.0,447.0,666.0,1.0,0,937.0,1
1001,1001,0.1854797557238267,0.2,0.0,0.0,297.0,569.0,0.0,1,614.0,1
1002,1002,-0.6402266459918013,-0.6,0.0,1.0,262.0,845.0,1.0,0,233.0,1
1003,1003,-0.8433380056012869,-0.8,0.0,1.0,490.0,554.0,1.0,0,396.0,1
1004,1004,-0.6408437448363014,-0.6,1.0,0.0,354.0,601.0,0.0,0,355.0,1
1005,1005,-0.715746890234761,-0.7,0.0,1.0,375.0,758.0,1.0,0,157.0,1
1006,1006,0.40872303307525815,0.4,0.0,0.0,358.0,706.0,0.0,1,276.0,1
1007,1007,-0.08062883886871797,-0.1,1.0,0.0,442.0,716.0,0.0,0,452.0,1
1008,1008,0.42638967760634794,0.4,0.0,0.0,398.0,718.0,0.0,1,184.0,1
1009,1009,0.16219024659400627,0.2,0.0,0.0,312.0,775.0,0.0,1,463.0,1
1010,1010,0.6468052193463457,0.6,1.0,1.0,338.0,579.0,1.0,1,373.0,1
1011,1011,-0.8598916856134928,-0.9,0.0,1.0,447.0,734.0,1.0,0,189.0,1
1012,1012,0.5970180390633121,0.6,0.0,0.0,349.0,689.0,0.0,1,222.0,1
1013,1013,0.6323716534353178,0.6,1.0,1.0,337.0,767.0,1.0,1,276.0,1
1014,1014,-0.28026116190884787,-0.3,0.0,1.0,456.0,941.0,1.0,0,333.0,1
1015,1015,0.6052524034743881,0.6,1.0,1.0,427.0,915.0,1.0,1,118.0,1
1016,1016,-0.7699924722380475,-0.8,0.0,1.0,269.0,729.0,1.0,0,342.0,1
1017,1017,-0.46287280507374967,-0.5,0.0,1.0,264.0,847.0,1.0,0,169.0,1
1018,1018,0.42110579185512986,0.4,1.0,1.0,257.0,515.0,1.0,1,398.0,1
1019,1019,0.35132903869106336,0.4,0.0,0.0,351.0,812.0,0.0,1,437.0,1
1020,1020,-0.6677658954630191,-0.7,1.0,0.0,474.0,662.0,0.0,0,284.0,1
1021,1021,0.4325969495893064,0.4,1.0,1.0,267.0,915.0,1.0,1,238.0,1
1022,1022,-0.6717218721647171,-0.7,1.0,0.0,488.0,785.0,0.0,0,197.0,1
1023,1023,-0.7660384376912276,-0.8,0.0,1.0,260.0,833.0,1.0,0,167.0,1
1024,1024,0.33091885913842656,0.3,1.0,1.0,277.0,706.0,1.0,1,267.0,1
1025,1025,-0.6793526845624972,-0.7,0.0,1.0,436.0,646.0,1.0,0,208.0,1
1026,1026,0.6083391792836043,0.6,0.0,0.0,476.0,882.0,0.0,1,92.0,1
1027,1027,-0.5073210467428186,-0.5,0.0,1.0,442.0,727.0,1.0,0,141.0,1
1028,1028,-0.4182525866952736,-0.4,0.0,1.0,252.0,657.0,1.0,0,351.0,1
1029,1029,-0.3543761256859561,-0.4,1.0,0.0,372.0,861.0,0.0,0,337.0,1
1030,1030,0.5692030187819545,0.6,0.0,0.0,452.0,817.0,0.0,1,141.0,1
1031,1031,-0.7902207424026252,-0.8,0.0,1.0,384.0,973.0,1.0,0,73.0,1
1032,1032,-0.22654372805707756,-0.2,1.0,0.0,395.0,522.0,0.0,0,403.0,1
1033,1033,-0.2359644630974782,-0.2,1.0,0.0,495.0,833.0,0.0,0,272.0,1
1034,1034,0.13862017515907865,0.1,1.0,1.0,371.0,831.0,1.0,1,778.0,1
1035,1035,-0.7090656376622497,-0.7,0.0,1.0,452.0,782.0,1.0,0,146.0,1
1036,1036,0.15851493870990196,0.2,0.0,0.0,428.0,586.0,0.0,1,396.0,1
1037,1037,0.09340478857767831,0.1,1.0,1.0,309.0,808.0,1.0,1,423.0,1
1038,1038,-0.833865505280058,-0.8,1.0,0.0,386.0,733.0,0.0,0,201.0,1
1039,1039,0.7661816392963404,0.8,1.0,1.0,361.0,911.0,1.0,1,108.0,1
1040,1040,0.47510162723598837,0.5,1.0,1.0,300.0,554.0,1.0,1,396.0,1
1041,1041,0.5734473618048556,0.6,0.0,0.0,298.0,588.0,0.0,1,284.0,1
1042,1042,-0.4794513361907937,-0.5,0.0,1.0,390.0,517.0,1.0,0,383.0,1
1043,1043,-0.1271087565448733,-0.1,0.0,1.0,405.0,506.0,1.0,0,829.0,1
1044,1044,-0.44093560643504,-0.4,0.0,1.0,418.0,907.0,1.0,0,225.0,1
1045,1045,-0.6449930692910988,-0.6,0.0,1.0,285.0,994.0,1.0,0,171.0,1
1046,1046,0.30253691013697714,0.3,1.0,1.0,425.0,939.0,1.0,1,226.0,1
1047,1047,-0.07278645715930498,-0.1,0.0,1.0,360.0,717.0,0.0,1,1923.0,0
1048,1048,0.2582024260551866,0.3,1.0,1.0,450.0,968.0,1.0,1,232.0,1
1049,1049,-0.546706710518446,-0.5,1.0,0.0,350.0,954.0,0.0,0,256.0,1
1050,1050,0.15338152867794885,0.2,0.0,0.0,356.0,984.0,0.0,1,780.0,1
1051,1051,0.052553572813853866,0.1,1.0,1.0,457.0,748.0,1.0,1,385.0,1
1052,1052,-0.27074167128552185,-0.3,0.0,1.0,344.0,679.0,1.0,0,617.0,1
1053,1053,0.2924848546290194,0.3,0.0,0.0,484.0,930.0,0.0,1,506.0,1
1054,1054,-0.8643935828416625,-0.9,1.0,0.0,447.0,667.0,0.0,0,336.0,1
1055,1055,-0.2895080680231624,-0.3,0.0,1.0,468.0,762.0,1.0,0,290.0,1
1056,1056,0.348092535735378,0.3,1.0,1.0,452.0,871.0,1.0,1,417.0,1
1057,1057,-0.41476500142031225,-0.4,1.0,0.0,351.0,596.0,0.0,0,313.0,1
1058,1058,-0.3425597460131754,-0.3,0.0,1.0,405.0,682.0,1.0,0,313.0,1
1059,1059,0.7551139921752937,0.8,1.0,1.0,252.0,948.0,1.0,1,200.0,1
1060,1060,0.37966635413618655,0.4,0.0,0.0,494.0,752.0,0.0,1,434.0,1
1061,1061,0.1799044135555664,0.2,1.0,1.0,375.0,652.0,1.0,1,923.0,1
1062,1062,-0.02260738841480814,-0.0,1.0,0.0,302.0,962.0,0.0,0,1736.0,1
1063,1063,0.4773694613165226,0.5,0.0,0.0,273.0,769.0,0.0,1,178.0,1
1064,1064,-0.5353154809671998,-0.5,0.0,1.0,309.0,719.0,1.0,0,172.0,1
1065,1065,-0.4823867953881265,-0.5,1.0,0.0,321.0,505.0,0.0,0,434.0,1
1066,1066,-0.03205841843049939,-0.0,0.0,1.0,373.0,674.0,1.0,0,1763.0,1
1067,1067,-0.35110542854724225,-0.4,1.0,0.0,390.0,783.0,0.0,0,297.0,1
1068,1068,0.575576528853834,0.6,0.0,0.0,351.0,518.0,0.0,1,341.0,1
1069,1069,0.06468970046964884,0.1,1.0,1.0,463.0,834.0,1.0,1,1123.0,1
1070,1070,0.26749777139855835,0.3,0.0,0.0,430.0,603.0,0.0,1,527.0,1
1071,1071,0.7039235388317969,0.7,1.0,1.0,333.0,891.0,1.0,1,136.0,1
1072,1072,0.22754750606476615,0.2,1.0,1.0,329.0,751.0,1.0,1,220.0,1
1073,1073,-0.860257117006877,-0.9,1.0,0.0,468.0,591.0,0.0,0,121.0,1
1074,1074,0.1806333732026918,0.2,0.0,0.0,352.0,833.0,0.0,1,515.0,1
1075,1075,0.19219818764117147,0.2,0.0,0.0,458.0,936.0,0.0,1,466.0,1
1076,1076,-0.2385486713000824,-0.2,0.0,1.0,315.0,714.0,1.0,0,541.0,1
1077,1077,-0.8517741932810297,-0.9,1.0,0.0,490.0,727.0,0.0,0,183.0,1
1078,1078,0.6982571191306207,0.7,0.0,0.0,428.0,664.0,0.0,1,198.0,1
1079,1079,0.07381869065833047,0.1,0.0,0.0,451.0,894.0,0.0,1,285.0,1
1080,1080,0.5052384505070667,0.5,1.0,1.0,250.0,690.0,1.0,1,200.0,1
1081,1081,-0.04153460356993255,-0.0,0.0,1.0,298.0,517.0,1.0,0,2185.0,1
1082,1082,0.17481337421325904,0.2,1.0,1.0,363.0,583.0,1.0,1,1664.0,1
1083,1083,-0.14942239060372586,-0.1,0.0,1.0,493.0,672.0,1.0,0,1405.0,1
1084,1084,0.49284529858466,0.5,1.0,1.0,318.0,885.0,1.0,1,227.0,1
1085,1085,0.44201860175802354,0.4,0.0,0.0,464.0,745.0,0.0,1,291.0,1
1086,1086,0.7186155308276984,0.7,1.0,1.0,288.0,553.0,1.0,1,329.0,1
1087,1087,-0.2928065056780318,-0.3,1.0,0.0,329.0,620.0,0.0,0,921.0,1
1088,1088,-0.2885529155417297,-0.3,1.0,0.0,283.0,999.0,0.0,0,238.0,1
1089,1089,0.8918451572663127,0.9,0.0,0.0,456.0,954.0,0.0,1,120.0,1
1090,1090,0.4152617546887346,0.4,1.0,1.0,338.0,797.0,1.0,1,345.0,1
1091,1091,0.6212804653084182,0.6,0.0,0.0,263.0,502.0,0.0,1,275.0,1
1092,1092,0.05523894931667328,0.1,1.0,1.0,306.0,783.0,1.0,1,701.0,1
1093,1093,0.5347755071663253,0.5,0.0,0.0,322.0,769.0,0.0,1,149.0,1
1094,1094,0.8115063236967496,0.8,0.0,0.0,474.0,729.0,0.0,1,127.0,1
1095,1095,0.372737686703848,0.4,1.0,1.0,273.0,542.0,1.0,1,235.0,1
1096,1096,0.651978742067519,0.7,1.0,1.0,275.0,667.0,1.0,1,178.0,1
1097,1097,-0.00023621981697341532,-0.0,1.0,0.0,483.0,931.0,1.0,1,1586.0,0
1098,1098,-0.5473583674800722,-0.5,0.0,1.0,491.0,941.0,1.0,0,168.0,1
1099,1099,0.41382009339622494,0.4,0.0,0.0,498.0,963.0,0.0,1,89.0,1
1100,1100,0.3504197977704048,0.4,1.0,1.0,478.0,968.0,1.0,1,394.0,1
1101,1101,-0.15459947329529833,-0.2,1.0,0.0,412.0,629.0,0.0,0,769.0,1
1102,1102,0.5837197938311173,0.6,1.0,1.0,490.0,593.0,1.0,1,187.0,1
1103,1103,0.8565697679317236,0.9,1.0,1.0,388.0,753.0,1.0,1,209.0,1
1104,1104,-0.7206053320326348,-0.7,1.0,0.0,398.0,954.0,0.0,0,238.0,1
1105,1105,0.40112463070655113,0.4,1.0,1.0,439.0,816.0,1.0,1,325.0,1
1106,1106,0.7505776837900854,0.8,0.0,0.0,461.0,626.0,0.0,1,393.0,1
1107,1107,-0.12601923472371646,-0.1,0.0,1.0,463.0,936.0,1.0,0,431.0,1
1108,1108,-0.6040390856404245,-0.6,1.0,0.0,319.0,824.0,0.0,0,187.0,1
1109,1109,-0.13392235867846236,-0.1,0.0,1.0,281.0,593.0,1.0,0,326.0,1
1110,1110,-0.3691870972742973,-0.4,0.0,1.0,425.0,638.0,1.0,0,447.0,1
1111,1111,-0.38206852635323596,-0.4,1.0,0.0,306.0,641.0,0.0,0,493.0,1
1112,1112,0.6850223441377822,0.7,0.0,0.0,277.0,652.0,0.0,1,301.0,1
1113,1113,0.7387621060904331,0.7,1.0,1.0,300.0,985.0,1.0,1,145.0,1
1114,1114,-0.41793282434114093,-0.4,1.0,0.0,469.0,566.0,0.0,0,375.0,1
1115,1115,-0.4335693299948719,-0.4,0.0,1.0,417.0,680.0,1.0,0,393.0,1
1116,1116,-0.3241274060619702,-0.3,1.0,0.0,449.0,748.0,0.0,0,273.0,1
1117,1117,-0.7924001342855604,-0.8,0.0,1.0,451.0,935.0,1.0,0,64.0,1
1118,1118,0.7839934444745716,0.8,0.0,0.0,262.0,961.0,0.0,1,197.0,1
1119,1119,-0.37988017478072256,-0.4,1.0,0.0,466.0,562.0,0.0,0,322.0,1
1120,1120,-0.15350493533026033,-0.2,1.0,0.0,467.0,597.0,0.0,0,646.0,1
1121,1121,-0.6627715178920145,-0.7,0.0,1.0,310.0,919.0,1.0,0,111.0,1
1122,1122,0.45666133782004825,0.5,1.0,1.0,326.0,511.0,1.0,1,413.0,1
1123,1123,0.7473433889997568,0.7,0.0,0.0,423.0,979.0,0.0,1,188.0,1
1124,1124,-0.5077128069457313,-0.5,1.0,0.0,370.0,877.0,0.0,0,363.0,1
1125,1125,-0.40515258760824685,-0.4,0.0,1.0,281.0,713.0,1.0,0,246.0,1
1126,1126,0.3427863211755998,0.3,0.0,0.0,355.0,948.0,0.0,1,337.0,1
1127,1127,0.09936680220860761,0.1,0.0,0.0,493.0,593.0,0.0,1,664.0,1
1128,1128,0.021670529531552463,0.0,0.0,0.0,380.0,900.0,0.0,1,1720.0,1
1129,1129,-0.3733910965255699,-0.4,0.0,1.0,325.0,713.0,1.0,0,362.0,1
1130,1130,-0.5968435206922361,-0.6,1.0,0.0,347.0,970.0,0.0,0,153.0,1
1131,1131,-0.41220500286687073,-0.4,0.0,1.0,406.0,588.0,1.0,0,506.0,1
1132,1132,0.63549548738222,0.6,1.0,1.0,313.0,902.0,1.0,1,115.0,1
1133,1133,0.26586679614743736,0.3,0.0,0.0,357.0,576.0,0.0,1,437.0,1
1134,1134,-0.8314409604430816,-0.8,1.0,0.0,459.0,578.0,0.0,0,393.0,1
1135,1135,-0.1766123405236143,-0.2,1.0,0.0,323.0,791.0,0.0,0,426.0,1
1136,1136,0.4373043885040565,0.4,1.0,1.0,316.0,842.0,1.0,1,122.0,1
1137,1137,-0.12328784231895595,-0.1,1.0,0.0,413.0,839.0,0.0,0,808.0,1
1138,1138,-0.4323619031847749,-0.4,1.0,0.0,257.0,791.0,0.0,0,202.0,1
1139,1139,0.8570746998084889,0.9,0.0,0.0,309.0,742.0,0.0,1,119.0,1
1140,1140,-0.819850763574419,-0.8,1.0,0.0,413.0,800.0,0.0,0,147.0,1
1141,1141,-0.5284552506979547,-0.5,1.0,0.0,392.0,790.0,0.0,0,238.0,1
1142,1142,-0.4804675030542822,-0.5,1.0,0.0,270.0,566.0,0.0,0,334.0,1
1143,1143,-0.43521897083551486,-0.4,1.0,0.0,275.0,806.0,0.0,0,229.0,1
1144,1144,0.6645249514397441,0.7,0.0,0.0,346.0,776.0,0.0,1,128.0,1
1145,1145,0.5505823262557684,0.6,0.0,0.0,387.0,637.0,0.0,1,366.0,1
1146,1146,0.5720325268221861,0.6,1.0,1.0,430.0,632.0,1.0,1,438.0,1
1147,1147,-0.1124934919517161,-0.1,0.0,1.0,303.0,774.0,1.0,0,273.0,1
1148,1148,-0.3747588203107314,-0.4,0.0,1.0,449.0,762.0,1.0,0,239.0,1
1149,1149,-0.43341342801510363,-0.4,0.0,1.0,474.0,512.0,1.0,0,424.0,1
1150,1150,0.10040019930918553,0.1,0.0,0.0,336.0,621.0,0.0,1,733.0,1
1151,1151,-0.38468210864875096,-0.4,0.0,1.0,290.0,773.0,1.0,0,157.0,1
1152,1152,-0.4515627829169995,-0.5,1.0,0.0,338.0,969.0,0.0,0,283.0,1
1153,1153,0.5096893964349195,0.5,0.0,0.0,322.0,556.0,0.0,1,332.0,1
1154,1154,-0.6026133780005045,-0.6,1.0,0.0,448.0,832.0,0.0,0,290.0,1
1155,1155,0.8097681370309883,0.8,0.0,0.0,443.0,803.0,0.0,1,144.0,1
1156,1156,-0.5356437180830094,-0.5,1.0,0.0,331.0,560.0,0.0,0,299.0,1
1157,1157,0.6371018911253546,0.6,0.0,0.0,329.0,745.0,0.0,1,316.0,1
1158,1158,0.8321225999459813,0.8,0.0,0.0,482.0,775.0,0.0,1,213.0,1
1159,1159,-0.7886924576116482,-0.8,1.0,0.0,261.0,852.0,0.0,0,117.0,1
1160,1160,0.31174867229290737,0.3,1.0,1.0,436.0,889.0,1.0,1,205.0,1
1161,1161,-0.56624247790379,-0.6,1.0,0.0,310.0,520.0,0.0,0,510.0,1
1162,1162,0.46065001898346314,0.5,0.0,0.0,334.0,664.0,0.0,1,312.0,1
1163,1163,0.6990966432634097,0.7,0.0,0.0,341.0,660.0,0.0,1,319.0,1
1164,1164,0.406905763586655,0.4,1.0,1.0,459.0,956.0,1.0,1,125.0,1
1165,1165,0.5748869170567387,0.6,1.0,1.0,415.0,690.0,1.0,1,225.0,1
1166,1166,-0.17721580240970403,-0.2,0.0,1.0,266.0,699.0,1.0,0,245.0,1
1167,1167,0.4957048343038445,0.5,1.0,1.0,483.0,757.0,1.0,1,210.0,1
1168,1168,0.8421090007345512,0.8,0.0,0.0,457.0,806.0,0.0,1,217.0,1
1169,1169,0.2095879422075989,0.2,0.0,0.0,470.0,619.0,0.0,1,511.0,1
1170,1170,0.5611121465640688,0.6,1.0,1.0,446.0,619.0,1.0,1,305.0,1
1171,1171,-0.7208575400528573,-0.7,1.0,0.0,480.0,863.0,0.0,0,117.0,1
1172,1172,0.4517802324278032,0.5,1.0,1.0,488.0,704.0,1.0,1,338.0,1
1173,1173,0.5473507996861061,0.5,1.0,1.0,457.0,730.0,1.0,1,203.0,1
1174,1174,-0.6895364610829305,-0.7,1.0,0.0,280.0,672.0,0.0,0,338.0,1
1175,1175,-0.5094372619137466,-0.5,0.0,1.0,316.0,882.0,1.0,0,92.0,1
1176,1176,0.8576548547568611,0.9,1.0,1.0,265.0,907.0,1.0,1,88.0,1
1177,1177,0.6644415313000017,0.7,0.0,0.0,255.0,558.0,0.0,1,197.0,1
1178,1178,0.503151634517616,0.5,1.0,1.0,440.0,669.0,1.0,1,201.0,1
1179,1179,0.16840238942262398,0.2,1.0,1.0,426.0,632.0,1.0,1,532.0,1
1180,1180,0.43897178914368007,0.4,1.0,1.0,445.0,994.0,1.0,1,201.0,1
1181,1181,-0.7670188900078752,-0.8,0.0,1.0,341.0,878.0,1.0,0,201.0,1
1182,1182,-0.6272235320585406,-0.6,0.0,1.0,394.0,774.0,1.0,0,202.0,1
1183,1183,-0.5497265203052213,-0.5,1.0,0.0,364.0,522.0,0.0,0,314.0,1
1184,1184,-0.6884006350226127,-0.7,1.0,0.0,368.0,841.0,0.0,0,91.0,1
1185,1185,0.13314560446710433,0.1,0.0,0.0,408.0,619.0,0.0,1,983.0,1
1186,1186,0.04883252083014478,0.0,0.0,0.0,385.0,801.0,0.0,1,594.0,1
1187,1187,0.06451550260290206,0.1,0.0,0.0,393.0,692.0,0.0,1,1095.0,1
1188,1188,0.11819677731860534,0.1,0.0,0.0,297.0,870.0,0.0,1,383.0,1
1189,1189,0.2740530480402469,0.3,0.0,0.0,368.0,950.0,0.0,1,202.0,1
1190,1190,0.6638401100818586,0.7,1.0,1.0,334.0,862.0,1.0,1,134.0,1
1191,1191,-0.178173888631449,-0.2,1.0,0.0,327.0,671.0,0.0,0,372.0,1
1192,1192,0.8882571195500156,0.9,1.0,1.0,257.0,702.0,1.0,1,311.0,1
1193,1193,-0.31725849759562763,-0.3,1.0,0.0,346.0,874.0,0.0,0,270.0,1
1194,1194,-0.5710982474731001,-0.6,1.0,0.0,414.0,676.0,0.0,0,290.0,1
1195,1195,-0.17896299270904792,-0.2,1.0,0.0,279.0,515.0,0.0,0,456.0,1
1196,1196,0.4182966259883282,0.4,0.0,0.0,487.0,776.0,0.0,1,107.0,1
1197,1197,0.7678104779328924,0.8,0.0,0.0,431.0,637.0,0.0,1,242.0,1
1198,1198,-0.5261829970664349,-0.5,0.0,1.0,461.0,929.0,1.0,0,90.0,1
1199,1199,0.04900624185520852,0.0,0.0,0.0,458.0,708.0,0.0,1,1834.0,1
1200,1200,0.6889104299805392,0.7,0.0,0.0,416.0,574.0,0.0,1,310.0,1
1201,1201,-0.5563294638885923,-0.6,0.0,1.0,413.0,780.0,1.0,0,287.0,1
1202,1202,0.10382867035172183,0.1,1.0,1.0,325.0,706.0,1.0,1,829.0,1
1203,1203,0.2749571518133124,0.3,0.0,0.0,380.0,607.0,0.0,1,313.0,1
1204,1204,0.15630726553909924,0.2,1.0,1.0,463.0,836.0,1.0,1,411.0,1
1205,1205,-0.17915989753274575,-0.2,0.0,1.0,338.0,679.0,1.0,0,333.0,1
1206,1206,0.6565767805209001,0.7,0.0,0.0,348.0,721.0,0.0,1,251.0,1
1207,1207,0.33710655298869796,0.3,0.0,0.0,377.0,524.0,0.0,1,489.0,1
1208,1208,-0.034227386878867394,-0.0,1.0,0.0,329.0,884.0,1.0,1,1787.0,0
1209,1209,-0.29103870877978444,-0.3,1.0,0.0,309.0,854.0,0.0,0,297.0,1
1210,1210,-0.49800612158136015,-0.5,1.0,0.0,384.0,923.0,0.0,0,203.0,1
1211,1211,0.1758554616593514,0.2,0.0,0.0,349.0,908.0,0.0,1,383.0,1
1212,1212,0.3012009505428933,0.3,1.0,1.0,480.0,833.0,1.0,1,347.0,1
1213,1213,-0.5825488729100496,-0.6,0.0,1.0,475.0,672.0,1.0,0,173.0,1
1214,1214,0.07880575414715796,0.1,1.0,1.0,253.0,708.0,1.0,1,1959.0,1
1215,1215,0.5262432924210901,0.5,0.0,0.0,365.0,964.0,0.0,1,171.0,1
1216,1216,-0.49562611105915944,-0.5,1.0,0.0,355.0,720.0,0.0,0,235.0,1
1217,1217,-0.009500833230754124,-0.0,0.0,1.0,371.0,669.0,1.0,0,1960.0,1
1218,1218,-0.19266593834274193,-0.2,0.0,1.0,398.0,712.0,1.0,0,340.0,1
1219,1219,-0.6036176567258001,-0.6,1.0,0.0,398.0,728.0,0.0,0,194.0,1
1220,1220,0.7309824585863512,0.7,0.0,0.0,499.0,771.0,0.0,1,140.0,1
1221,1221,0.7082016597357682,0.7,0.0,0.0,432.0,954.0,0.0,1,194.0,1
1222,1222,0.0379416288134784,0.0,0.0,0.0,446.0,789.0,1.0,0,1765.0,0
1223,1223,0.2931161146632738,0.3,1.0,1.0,395.0,627.0,1.0,1,408.0,1
1224,1224,-0.4313758625020673,-0.4,0.0,1.0,455.0,993.0,1.0,0,142.0,1
1225,1225,-0.6736788782117089,-0.7,0.0,1.0,338.0,611.0,1.0,0,201.0,1
1226,1226,0.8455666920699226,0.8,1.0,1.0,378.0,602.0,1.0,1,270.0,1
1227,1227,-0.10182954517038945,-0.1,0.0,1.0,372.0,537.0,1.0,0,611.0,1
1228,1228,0.15515723257167646,0.2,1.0,1.0,392.0,852.0,1.0,1,796.0,1
1229,1229,-0.5175099046737034,-0.5,0.0,1.0,301.0,614.0,1.0,0,235.0,1
1230,1230,-0.13137790781152847,-0.1,1.0,0.0,296.0,791.0,0.0,0,673.0,1
1231,1231,0.6451383899633812,0.6,0.0,0.0,480.0,656.0,0.0,1,304.0,1
1232,1232,-0.040099823405785884,-0.0,0.0,1.0,440.0,641.0,1.0,0,1919.0,1
1233,1233,0.5661122123440853,0.6,0.0,0.0,499.0,988.0,0.0,1,143.0,1
1234,1234,0.1488107445359318,0.1,1.0,1.0,470.0,756.0,1.0,1,494.0,1
1235,1235,0.8400541513622913,0.8,0.0,0.0,321.0,806.0,0.0,1,333.0,1
1236,1236,-0.20091952534799284,-0.2,0.0,1.0,421.0,710.0,1.0,0,269.0,1
1237,1237,-0.8027166225596136,-0.8,0.0,1.0,483.0,550.0,1.0,0,567.0,1
1238,1238,0.1560492720416532,0.2,0.0,0.0,287.0,934.0,0.0,1,369.0,1
1239,1239,-0.17312133033897426,-0.2,0.0,1.0,460.0,534.0,1.0,0,746.0,1
1240,1240,0.0072029879046393575,0.0,0.0,0.0,433.0,567.0,0.0,1,1300.0,1
1241,1241,0.4738822344933883,0.5,0.0,0.0,467.0,593.0,0.0,1,370.0,1
1242,1242,-0.7219474556699815,-0.7,1.0,0.0,373.0,827.0,0.0,0,220.0,1
1243,1243,-0.665279240729503,-0.7,1.0,0.0,421.0,712.0,0.0,0,447.0,1
1244,1244,-0.3979324344903935,-0.4,1.0,0.0,413.0,925.0,0.0,0,262.0,1
1245,1245,-0.3296177844986925,-0.3,1.0,0.0,486.0,745.0,0.0,0,339.0,1
1246,1246,0.40907319283902466,0.4,1.0,1.0,492.0,991.0,1.0,1,227.0,1
1247,1247,0.7798983980972339,0.8,1.0,1.0,402.0,748.0,1.0,1,250.0,1
1248,1248,0.20326703527055978,0.2,1.0,1.0,413.0,514.0,1.0,1,563.0,1
1249,1249,0.21045761436473487,0.2,0.0,0.0,482.0,880.0,0.0,1,508.0,1
1250,1250,-0.6852834961241894,-0.7,0.0,1.0,301.0,672.0,1.0,0,287.0,1
1251,1251,-0.7572310203259467,-0.8,1.0,0.0,376.0,727.0,0.0,0,217.0,1
1252,1252,-0.46650352925778243,-0.5,1.0,0.0,453.0,857.0,0.0,0,200.0,1
1253,1253,-0.7601135653008169,-0.8,0.0,1.0,318.0,517.0,1.0,0,525.0,1
1254,1254,-0.13067638604750276,-0.1,0.0,1.0,497.0,982.0,1.0,0,1521.0,1
1255,1255,0.08253941123184594,0.1,0.0,0.0,391.0,601.0,0.0,1,1128.0,1
1256,1256,0.28881803559213004,0.3,0.0,0.0,389.0,882.0,0.0,1,309.0,1
1257,1257,0.7013824236283926,0.7,0.0,0.0,328.0,969.0,0.0,1,103.0,1
1258,1258,0.7876823729873369,0.8,1.0,1.0,268.0,957.0,1.0,1,345.0,1
1259,1259,-0.032684189916571516,-0.0,0.0,1.0,312.0,834.0,1.0,0,964.0,1
1260,1260,0.13556293827212695,0.1,1.0,1.0,388.0,811.0,1.0,1,301.0,1
1261,1261,0.391849153893883,0.4,0.0,0.0,266.0,927.0,0.0,1,187.0,1
1262,1262,-0.7433419318665971,-0.7,1.0,0.0,324.0,514.0,0.0,0,462.0,1
1263,1263,-0.5524573206696819,-0.6,1.0,0.0,476.0,651.0,0.0,0,373.0,1
1264,1264,0.09264103133353241,0.1,0.0,0.0,407.0,843.0,0.0,1,720.0,1
1265,1265,-0.04737310661301597,-0.0,1.0,0.0,259.0,862.0,0.0,0,1879.0,1
1266,1266,-0.30875782106207283,-0.3,1.0,0.0,275.0,648.0,0.0,0,787.0,1
1267,1267,0.5198931327450681,0.5,0.0,0.0,254.0,986.0,0.0,1,160.0,1
1268,1268,0.23151727725933668,0.2,0.0,0.0,259.0,963.0,0.0,1,378.0,1
1269,1269,0.6619856616424312,0.7,1.0,1.0,361.0,731.0,1.0,1,308.0,1
1270,1270,0.8067804038178125,0.8,1.0,1.0,495.0,970.0,1.0,1,255.0,1
1271,1271,-0.22945984176604373,-0.2,0.0,1.0,445.0,645.0,1.0,0,460.0,1
1272,1272,-0.4340954903232144,-0.4,1.0,0.0,432.0,976.0,0.0,0,242.0,1
1273,1273,0.380982327722181,0.4,1.0,1.0,330.0,730.0,1.0,1,440.0,1
1274,1274,-0.21903004973098394,-0.2,1.0,0.0,288.0,531.0,0.0,0,681.0,1
1275,1275,0.8761348732365312,0.9,0.0,0.0,270.0,764.0,0.0,1,136.0,1
1276,1276,-0.8897428680564656,-0.9,1.0,0.0,267.0,536.0,0.0,0,497.0,1
1277,1277,-0.8349465388827962,-0.8,1.0,0.0,432.0,863.0,0.0,0,145.0,1
1278,1278,0.05360578855012543,0.1,0.0,0.0,400.0,732.0,0.0,1,558.0,1
1279,1279,-0.0584130592342651,-0.1,0.0,1.0,283.0,726.0,1.0,0,1991.0,1
1280,1280,0.5598154315011513,0.6,0.0,0.0,419.0,701.0,0.0,1,290.0,1
1281,1281,0.5828945305495971,0.6,0.0,0.0,276.0,629.0,0.0,1,315.0,1
1282,1282,-0.8822312159795481,-0.9,1.0,0.0,327.0,814.0,0.0,0,129.0,1
1283,1283,-0.326118561263791,-0.3,0.0,1.0,281.0,915.0,1.0,0,134.0,1
1284,1284,-0.0722337977736276,-0.1,0.0,1.0,274.0,673.0,1.0,0,433.0,1
1285,1285,-0.08674523733006556,-0.1,0.0,1.0,278.0,778.0,1.0,0,1944.0,1
1286,1286,0.3202630932370433,0.3,1.0,1.0,290.0,971.0,1.0,1,189.0,1
1287,1287,0.12339746130319373,0.1,1.0,1.0,390.0,651.0,1.0,1,389.0,1
1288,1288,0.47195506860954983,0.5,1.0,1.0,365.0,502.0,1.0,1,363.0,1
1289,1289,0.6685377322900573,0.7,0.0,0.0,299.0,631.0,0.0,1,180.0,1
1290,1290,0.8697255826306266,0.9,1.0,1.0,456.0,801.0,1.0,1,173.0,1
1291,1291,0.3793811141608202,0.4,0.0,0.0,430.0,913.0,0.0,1,157.0,1
1292,1292,0.746201501486072,0.7,0.0,0.0,442.0,962.0,0.0,1,156.0,1
1293,1293,-0.13473641121200464,-0.1,1.0,0.0,433.0,563.0,0.0,0,674.0,1
1294,1294,0.3070980603953609,0.3,0.0,0.0,372.0,806.0,0.0,1,362.0,1
1295,1295,-0.8485847792449203,-0.8,1.0,0.0,276.0,878.0,0.0,0,1066.0,1
1296,1296,-0.8217152253117768,-0.8,0.0,1.0,398.0,660.0,1.0,0,242.0,1
1297,1297,-0.6952555243056213,-0.7,1.0,0.0,421.0,935.0,0.0,0,124.0,1
1298,1298,0.35853862303243533,0.4,1.0,1.0,451.0,695.0,1.0,1,314.0,1
1299,1299,-0.03716463248963875,-0.0,0.0,1.0,491.0,819.0,1.0,0,540.0,1
1300,1300,-0.048962052400099654,-0.0,0.0,1.0,496.0,680.0,1.0,0,1684.0,1
1301,1301,-0.644149199885881,-0.6,1.0,0.0,402.0,784.0,0.0,0,144.0,1
1302,1302,-0.6593916426218288,-0.7,0.0,1.0,407.0,784.0,1.0,0,219.0,1
1303,1303,-0.5331114780845694,-0.5,1.0,0.0,459.0,679.0,0.0,0,242.0,1
1304,1304,0.6374167546658925,0.6,0.0,0.0,277.0,691.0,0.0,1,272.0,1
1305,1305,0.8422311124070677,0.8,1.0,1.0,427.0,633.0,1.0,1,200.0,1
1306,1306,-0.38402603318242445,-0.4,1.0,0.0,258.0,509.0,0.0,0,483.0,1
1307,1307,-0.492580883840739,-0.5,1.0,0.0,297.0,706.0,0.0,0,267.0,1
1308,1308,-0.7741330046112128,-0.8,0.0,1.0,444.0,946.0,1.0,0,90.0,1
1309,1309,0.4927006463510718,0.5,1.0,1.0,297.0,767.0,1.0,1,176.0,1
1310,1310,-0.05337685848765972,-0.1,1.0,0.0,292.0,757.0,0.0,0,931.0,1
1311,1311,-0.19639787540486564,-0.2,0.0,1.0,414.0,500.0,1.0,0,356.0,1
1312,1312,-0.8354687955013077,-0.8,0.0,1.0,375.0,906.0,1.0,0,89.0,1
1313,1313,0.026917920658557692,0.0,1.0,1.0,477.0,652.0,0.0,0,1871.0,0
1314,1314,0.7815674448239823,0.8,1.0,1.0,280.0,883.0,1.0,1,107.0,1
1315,1315,-0.8531429244028149,-0.9,1.0,0.0,291.0,984.0,0.0,0,95.0,1
1316,1316,-0.2365298176858045,-0.2,1.0,0.0,446.0,648.0,0.0,0,666.0,1
1317,1317,-0.2796833944817564,-0.3,1.0,0.0,457.0,786.0,0.0,0,237.0,1
1318,1318,0.5556877807251913,0.6,1.0,1.0,368.0,835.0,1.0,1,137.0,1
1319,1319,0.1565653408586659,0.2,0.0,0.0,287.0,862.0,0.0,1,561.0,1
1320,1320,0.6827869340401903,0.7,0.0,0.0,340.0,636.0,0.0,1,274.0,1
1321,1321,0.4014538874242525,0.4,1.0,1.0,329.0,990.0,1.0,1,101.0,1
1322,1322,-0.6603311698877621,-0.7,0.0,1.0,435.0,888.0,1.0,0,107.0,1
1323,1323,0.5759716818307458,0.6,1.0,1.0,294.0,544.0,1.0,1,312.0,1
1324,1324,0.8739767987877548,0.9,0.0,0.0,370.0,634.0,0.0,1,316.0,1
1325,1325,-0.33444689184836895,-0.3,0.0,1.0,399.0,796.0,1.0,0,215.0,1
1326,1326,-0.7443469619293682,-0.7,1.0,0.0,332.0,685.0,0.0,0,553.0,1
1327,1327,-0.8292888823489577,-0.8,1.0,0.0,363.0,557.0,0.0,0,350.0,1
1328,1328,-0.8435631446816143,-0.8,1.0,0.0,321.0,736.0,0.0,0,303.0,1
1329,1329,0.3915480312304679,0.4,1.0,1.0,440.0,701.0,1.0,1,299.0,1
1330,1330,0.8961765076777438,0.9,0.0,0.0,259.0,565.0,0.0,1,286.0,1
1331,1331,-0.3685287224902435,-0.4,0.0,1.0,329.0,947.0,1.0,0,294.0,1
1332,1332,-0.578761272737413,-0.6,1.0,0.0,414.0,517.0,0.0,0,249.0,1
1333,1333,-0.022537034284649704,-0.0,0.0,1.0,443.0,892.0,1.0,0,1665.0,1
1334,1334,0.026233090862337605,0.0,1.0,1.0,481.0,661.0,1.0,1,1858.0,1
1335,1335,0.15854700917997266,0.2,1.0,1.0,348.0,798.0,1.0,1,824.0,1
1336,1336,0.24118710641052366,0.2,0.0,0.0,471.0,888.0,0.0,1,231.0,1
1337,1337,-0.7067804941705971,-0.7,0.0,1.0,349.0,837.0,1.0,0,404.0,1
1338,1338,-0.7886213196433149,-0.8,0.0,1.0,333.0,880.0,1.0,0,157.0,1
1339,1339,-0.3695054544451879,-0.4,0.0,1.0,364.0,846.0,1.0,0,100.0,1
1340,1340,-0.36862578682426517,-0.4,1.0,0.0,383.0,552.0,0.0,0,495.0,1
1341,1341,-0.30554753623564634,-0.3,0.0,1.0,421.0,817.0,1.0,0,162.0,1
1342,1342,0.8023773786740825,0.8,0.0,0.0,256.0,661.0,0.0,1,363.0,1
1343,1343,0.8163361328050626,0.8,1.0,1.0,480.0,836.0,1.0,1,164.0,1
1344,1344,-0.5991611168157652,-0.6,1.0,0.0,282.0,808.0,0.0,0,140.0,1
1345,1345,-0.6679834940450875,-0.7,1.0,0.0,384.0,566.0,0.0,0,360.0,1
1346,1346,0.1129903399428619,0.1,0.0,0.0,366.0,966.0,0.0,1,288.0,1
1347,1347,-0.5671247234027802,-0.6,1.0,0.0,268.0,629.0,0.0,0,423.0,1
1348,1348,0.4659531301531171,0.5,1.0,1.0,389.0,783.0,1.0,1,408.0,1
1349,1349,-0.8952471945968726,-0.9,0.0,1.0,349.0,707.0,1.0,0,164.0,1
1350,1350,0.18673364633019263,0.2,0.0,0.0,309.0,526.0,0.0,1,835.0,1
1351,1351,-0.46789285730867874,-0.5,1.0,0.0,496.0,567.0,0.0,0,357.0,1
1352,1352,0.48233493673271066,0.5,0.0,0.0,298.0,903.0,0.0,1,189.0,1
1353,1353,0.07621757713353006,0.1,1.0,1.0,262.0,916.0,1.0,1,662.0,1
1354,1354,0.31209960930737257,0.3,1.0,1.0,367.0,736.0,1.0,1,377.0,1
1355,1355,-0.531614623147137,-0.5,1.0,0.0,307.0,922.0,0.0,0,101.0,1
1356,1356,0.39353842557450835,0.4,0.0,0.0,373.0,590.0,0.0,1,357.0,1
1357,1357,0.789668791798099,0.8,0.0,0.0,451.0,664.0,0.0,1,115.0,1
1358,1358,-0.7889594280991925,-0.8,1.0,0.0,448.0,585.0,0.0,0,317.0,1
1359,1359,-0.32956925921109836,-0.3,0.0,1.0,291.0,562.0,1.0,0,397.0,1
1360,1360,0.8771716703103792,0.9,1.0,1.0,309.0,762.0,1.0,1,209.0,1
1361,1361,-0.5717091129582266,-0.6,1.0,0.0,323.0,643.0,0.0,0,504.0,1
1362,1362,-0.30846671783847635,-0.3,1.0,0.0,475.0,671.0,0.0,0,534.0,1
1363,1363,0.4347145057388836,0.4,1.0,1.0,432.0,738.0,1.0,1,310.0,1
1364,1364,-0.43002916181568573,-0.4,1.0,0.0,398.0,784.0,0.0,0,278.0,1
1365,1365,0.03667189970361806,0.0,1.0,1.0,390.0,735.0,1.0,1,1875.0,1
1366,1366,0.5841334008536966,0.6,1.0,1.0,398.0,981.0,1.0,1,211.0,1
1367,1367,0.7234961731900057,0.7,0.0,0.0,390.0,705.0,0.0,1,275.0,1
1368,1368,0.4991605851104103,0.5,1.0,1.0,370.0,516.0,1.0,1,484.0,1
1369,1369,0.5830747902832057,0.6,1.0,1.0,339.0,705.0,1.0,1,186.0,1
1370,1370,-0.6698618516813537,-0.7,1.0,0.0,291.0,648.0,0.0,0,401.0,1
1371,1371,0.07128173857883224,0.1,0.0,0.0,483.0,595.0,0.0,1,692.0,1
1372,1372,0.5140521039682108,0.5,0.0,0.0,453.0,720.0,0.0,1,227.0,1
1373,1373,-0.141027279514215,-0.1,0.0,1.0,438.0,877.0,1.0,0,305.0,1
1374,1374,-0.4062885828339971,-0.4,1.0,0.0,483.0,804.0,0.0,0,353.0,1
1375,1375,-0.3666384999743624,-0.4,0.0,1.0,415.0,754.0,1.0,0,231.0,1
1376,1376,-0.5012066310650338,-0.5,0.0,1.0,481.0,730.0,1.0,0,229.0,1
1377,1377,-0.3437132903586255,-0.3,1.0,0.0,266.0,764.0,0.0,0,140.0,1
1378,1378,0.4917561854911071,0.5,1.0,1.0,309.0,805.0,1.0,1,206.0,1
1379,1379,0.35046999871082474,0.4,1.0,1.0,254.0,616.0,1.0,1,320.0,1
1380,1380,-0.3295399949074235,-0.3,0.0,1.0,294.0,966.0,1.0,0,460.0,1
1381,1381,0.3880984051652353,0.4,0.0,0.0,291.0,810.0,0.0,1,179.0,1
1382,1382,0.6969286143133714,0.7,1.0,1.0,398.0,711.0,1.0,1,141.0,1
1383,1383,0.8164090534106897,0.8,0.0,0.0,425.0,913.0,0.0,1,72.0,1
1384,1384,0.0067147498020934115,0.0,1.0,1.0,413.0,516.0,1.0,1,2001.0,1
1385,1385,-0.5670171075228345,-0.6,1.0,0.0,312.0,973.0,0.0,0,115.0,1
1386,1386,-0.5352370358471683,-0.5,0.0,1.0,319.0,513.0,1.0,0,208.0,1
1387,1387,-0.0651772929959542,-0.1,1.0,0.0,498.0,957.0,0.0,0,445.0,1
1388,1388,-0.4935284815485874,-0.5,0.0,1.0,404.0,746.0,1.0,0,240.0,1
1389,1389,0.7554568947120538,0.8,0.0,0.0,289.0,956.0,0.0,1,95.0,1
1390,1390,-0.1321399357946419,-0.1,0.0,1.0,472.0,902.0,1.0,0,146.0,1
1391,1391,-0.573392190251661,-0.6,0.0,1.0,292.0,629.0,1.0,0,379.0,1
1392,1392,0.8009223104466189,0.8,0.0,0.0,362.0,814.0,0.0,1,264.0,1
1393,1393,-0.2641938455773549,-0.3,0.0,1.0,340.0,989.0,1.0,0,151.0,1
1394,1394,-0.00721671067048979,-0.0,1.0,0.0,490.0,730.0,1.0,1,580.0,0
1395,1395,-0.39968669744362917,-0.4,0.0,1.0,356.0,714.0,1.0,0,290.0,1
1396,1396,-0.33575812332725763,-0.3,1.0,0.0,266.0,794.0,0.0,0,350.0,1
1397,1397,0.7001784791086775,0.7,0.0,0.0,479.0,994.0,0.0,1,67.0,1
1398,1398,0.015176909887877899,0.0,1.0,1.0,484.0,680.0,1.0,1,796.0,1
1399,1399,0.20074955760368052,0.2,0.0,0.0,389.0,974.0,0.0,1,357.0,1
1400,1400,-0.8847676611662155,-0.9,1.0,0.0,475.0,622.0,0.0,0,433.0,1
1401,1401,0.190814078170764,0.2,1.0,1.0,411.0,720.0,1.0,1,689.0,1
1402,1402,0.791346721563916,0.8,0.0,0.0,336.0,872.0,0.0,1,442.0,1
1403,1403,0.8085944711939507,0.8,1.0,1.0,296.0,523.0,1.0,1,261.0,1
1404,1404,-0.8791424742389925,-0.9,1.0,0.0,424.0,880.0,0.0,0,106.0,1
1405,1405,-0.1301476702480815,-0.1,0.0,1.0,468.0,736.0,1.0,0,786.0,1
1406,1406,0.6623358028843626,0.7,1.0,1.0,478.0,659.0,1.0,1,203.0,1
1407,1407,-0.722164630027706,-0.7,0.0,1.0,261.0,684.0,1.0,0,185.0,1
1408,1408,-0.7020209934144197,-0.7,0.0,1.0,301.0,711.0,1.0,0,178.0,1
1409,1409,0.3255579595368606,0.3,1.0,1.0,314.0,876.0,1.0,1,320.0,1
1410,1410,-0.14526097673834282,-0.1,0.0,1.0,482.0,846.0,1.0,0,792.0,1
1411,1411,-0.5439581636936983,-0.5,1.0,0.0,492.0,761.0,0.0,0,217.0,1
1412,1412,-0.23500375487238034,-0.2,0.0,1.0,345.0,811.0,1.0,0,94.0,1
1413,1413,-0.4926346920414103,-0.5,1.0,0.0,326.0,846.0,0.0,0,238.0,1
1414,1414,0.6222241648721819,0.6,0.0,0.0,318.0,567.0,0.0,1,385.0,1
1415,1415,-0.3622555340452407,-0.4,0.0,1.0,318.0,844.0,1.0,0,178.0,1
1416,1416,-0.41353254808153905,-0.4,0.0,1.0,256.0,804.0,1.0,0,170.0,1
1417,1417,-0.8909146065769076,-0.9,1.0,0.0,359.0,792.0,0.0,0,339.0,1
1418,1418,-0.38817467655046334,-0.4,1.0,0.0,296.0,538.0,0.0,0,396.0,1
1419,1419,-0.28569676658825927,-0.3,0.0,1.0,281.0,882.0,1.0,0,147.0,1
1420,1420,-0.3000730858403956,-0.3,0.0,1.0,335.0,653.0,1.0,0,342.0,1
1421,1421,-0.273741736976325,-0.3,1.0,0.0,488.0,570.0,0.0,0,612.0,1
1422,1422,-0.6084359792577028,-0.6,1.0,0.0,407.0,574.0,0.0,0,449.0,1
1423,1423,-0.6146586454648486,-0.6,1.0,0.0,371.0,692.0,0.0,0,217.0,1
1424,1424,-0.5527566653577225,-0.6,0.0,1.0,267.0,660.0,1.0,0,153.0,1
1425,1425,0.350450346887781,0.4,0.0,0.0,484.0,881.0,0.0,1,225.0,1
1426,1426,-0.8729907720830397,-0.9,1.0,0.0,380.0,970.0,0.0,0,140.0,1
1427,1427,0.22064917474723023,0.2,0.0,0.0,407.0,548.0,0.0,1,1055.0,1
1428,1428,0.3296085357708346,0.3,1.0,1.0,435.0,534.0,1.0,1,281.0,1
1429,1429,-0.15237209968339094,-0.2,0.0,1.0,478.0,984.0,1.0,0,438.0,1
1430,1430,0.32085717230496147,0.3,1.0,1.0,348.0,963.0,1.0,1,289.0,1
1431,1431,-0.7333104717136785,-0.7,1.0,0.0,362.0,679.0,0.0,0,439.0,1
1432,1432,-0.6236889592191006,-0.6,0.0,1.0,410.0,994.0,1.0,0,76.0,1
1433,1433,-0.518660121465512,-0.5,0.0,1.0,433.0,629.0,1.0,0,238.0,1
1434,1434,-0.36299963349751707,-0.4,1.0,0.0,436.0,842.0,0.0,0,212.0,1
1435,1435,0.7361853775750752,0.7,0.0,0.0,471.0,614.0,0.0,1,145.0,1
1436,1436,-0.7749742485134361,-0.8,0.0,1.0,370.0,641.0,1.0,0,339.0,1
1437,1437,-0.06364609742318761,-0.1,1.0,0.0,452.0,951.0,0.0,0,1597.0,1
1438,1438,0.19433148359003705,0.2,0.0,0.0,358.0,745.0,0.0,1,617.0,1
1439,1439,0.22541447827632333,0.2,0.0,0.0,295.0,951.0,0.0,1,214.0,1
1440,1440,0.15202255061465808,0.2,0.0,0.0,354.0,830.0,0.0,1,366.0,1
1441,1441,0.13788195121473013,0.1,1.0,1.0,250.0,988.0,1.0,1,562.0,1
1442,1442,0.7235468509667758,0.7,1.0,1.0,310.0,981.0,1.0,1,179.0,1
1443,1443,0.6002007843026619,0.6,0.0,0.0,395.0,836.0,0.0,1,189.0,1
1444,1444,-0.1076695913245529,-0.1,0.0,1.0,282.0,991.0,1.0,0,337.0,1
1445,1445,0.1727902271262708,0.2,0.0,0.0,406.0,788.0,1.0,0,16.0,0
1446,1446,-0.2551479980747001,-0.3,0.0,1.0,305.0,789.0,1.0,0,376.0,1
1447,1447,0.11049708070955855,0.1,0.0,0.0,354.0,629.0,0.0,1,617.0,1
1448,1448,0.5220682908822595,0.5,1.0,1.0,303.0,740.0,1.0,1,347.0,1
1449,1449,-0.49641306087792264,-0.5,0.0,1.0,400.0,823.0,1.0,0,157.0,1
1450,1450,0.7207685975408346,0.7,0.0,0.0,435.0,754.0,0.0,1,151.0,1
1451,1451,-0.7409087259171317,-0.7,0.0,1.0,311.0,848.0,1.0,0,141.0,1
1452,1452,0.8669652761245251,0.9,1.0,1.0,467.0,664.0,1.0,1,249.0,1
1453,1453,0.5692476605132079,0.6,1.0,1.0,473.0,827.0,1.0,1,160.0,1
1454,1454,0.010918835906224444,0.0,0.0,0.0,270.0,897.0,0.0,1,1833.0,1
1455,1455,-0.5941999974117711,-0.6,1.0,0.0,367.0,817.0,0.0,0,306.0,1
1456,1456,-0.5978790772697091,-0.6,0.0,1.0,258.0,784.0,1.0,0,228.0,1
1457,1457,-0.5674178700741748,-0.6,0.0,1.0,392.0,738.0,1.0,0,170.0,1
1458,1458,-0.07564453977918328,-0.1,0.0,1.0,460.0,663.0,1.0,0,987.0,1
1459,1459,0.13873486925195333,0.1,0.0,0.0,468.0,608.0,0.0,1,604.0,1
1460,1460,0.8454751504385917,0.8,1.0,1.0,326.0,586.0,1.0,1,218.0,1
1461,1461,-0.2900731537426784,-0.3,0.0,1.0,310.0,876.0,1.0,0,244.0,1
1462,1462,-0.004392698323390731,-0.0,0.0,1.0,440.0,662.0,1.0,0,1118.0,1
1463,1463,-0.2951372231372089,-0.3,1.0,0.0,401.0,783.0,0.0,0,476.0,1
1464,1464,0.11139179224191909,0.1,1.0,1.0,479.0,754.0,1.0,1,1117.0,1
1465,1465,0.8164199702518541,0.8,1.0,1.0,449.0,949.0,1.0,1,242.0,1
1466,1466,0.7859125882780228,0.8,1.0,1.0,384.0,811.0,1.0,1,115.0,1
1467,1467,-0.19884912157949697,-0.2,1.0,0.0,357.0,520.0,0.0,0,863.0,1
1468,1468,-0.89147268512032,-0.9,1.0,0.0,319.0,932.0,0.0,0,79.0,1
1469,1469,0.14891136753031387,0.1,0.0,0.0,324.0,903.0,0.0,1,303.0,1
1470,1470,0.05514714867654702,0.1,0.0,0.0,304.0,720.0,0.0,1,636.0,1
1471,1471,-0.48967508826828643,-0.5,0.0,1.0,424.0,580.0,1.0,0,276.0,1
1472,1472,0.36671474972906715,0.4,1.0,1.0,274.0,850.0,1.0,1,386.0,1
1473,1473,-0.3585482793122423,-0.4,0.0,1.0,485.0,940.0,1.0,0,35.0,1
1474,1474,0.8149755673176543,0.8,1.0,1.0,494.0,924.0,1.0,1,92.0,1
1475,1475,0.7845829193897221,0.8,0.0,0.0,486.0,929.0,0.0,1,155.0,1
1476,1476,-0.07615363528449692,-0.1,0.0,1.0,421.0,917.0,1.0,0,622.0,1
1477,1477,-0.06829179234035465,-0.1,1.0,0.0,485.0,971.0,0.0,0,1544.0,1
1478,1478,-0.8983335931410485,-0.9,1.0,0.0,380.0,890.0,0.0,0,150.0,1
1479,1479,-0.7024227181892306,-0.7,0.0,1.0,339.0,733.0,1.0,0,298.0,1
1480,1480,-0.1506868313720645,-0.2,0.0,1.0,493.0,904.0,1.0,0,1113.0,1
1481,1481,-0.1490510366907829,-0.1,0.0,1.0,256.0,831.0,1.0,0,483.0,1
1482,1482,0.57882481875208,0.6,0.0,0.0,376.0,522.0,0.0,1,362.0,1
1483,1483,-0.6489540189016293,-0.6,0.0,1.0,473.0,623.0,1.0,0,274.0,1
1484,1484,-0.2840835477849508,-0.3,1.0,0.0,425.0,764.0,0.0,0,211.0,1
1485,1485,0.039123929345393105,0.0,0.0,0.0,414.0,778.0,1.0,0,928.0,0
1486,1486,0.07720504783346183,0.1,0.0,0.0,311.0,790.0,0.0,1,1899.0,1
1487,1487,-0.8353136831130422,-0.8,1.0,0.0,495.0,941.0,0.0,0,254.0,1
1488,1488,-0.7079161104013537,-0.7,1.0,0.0,444.0,762.0,0.0,0,244.0,1
1489,1489,0.6577305445342861,0.7,1.0,1.0,441.0,814.0,1.0,1,165.0,1
1490,1490,0.36358933035491303,0.4,1.0,1.0,281.0,649.0,1.0,1,270.0,1
1491,1491,0.024359958816074,0.0,1.0,1.0,361.0,718.0,1.0,1,1921.0,1
