,trial,coherence,coherence_bin,green_side,correct_side,target_onset,checker_onset,decision,green_decision,decision_time,correct_decision
0,0,-0.6296928841688876,-0.6,1.0,0.0,317.0,936.0,0.0,0,857.0,1
1,1,0.7466231849067183,0.7,1.0,1.0,482.0,651.0,0.0,0,-983.0,0
2,2,-0.7422520406701926,-0.7,0.0,1.0,322.0,856.0,1.0,0,1822.0,1
3,3,-0.47440937172321285,-0.5,1.0,0.0,309.0,879.0,0.0,0,-408.0,1
4,4,0.41734599528534655,0.4,1.0,1.0,307.0,711.0,0.0,0,362.0,0
5,5,-0.8264624533269332,-0.8,0.0,1.0,302.0,869.0,0.0,1,69.0,0
6,6,-0.7147114967114182,-0.7,1.0,0.0,382.0,711.0,0.0,0,1907.0,1
7,7,0.8212069279704156,0.8,0.0,0.0,339.0,606.0,0.0,1,-925.0,1
8,8,0.04285749305121145,0.0,1.0,1.0,448.0,904.0,1.0,1,-1212.0,1
9,9,-0.2704423739405615,-0.3,0.0,1.0,443.0,634.0,0.0,1,-757.0,0
10,10,-0.07519974054971679,-0.1,0.0,1.0,331.0,738.0,1.0,0,711.0,1
11,11,0.2307874682230201,0.2,1.0,1.0,279.0,808.0,1.0,1,-907.0,1
12,12,0.7475239185311172,0.7,0.0,0.0,280.0,874.0,0.0,1,1846.0,1
13,13,0.6609476548502949,0.7,1.0,1.0,331.0,760.0,0.0,0,-961.0,0
14,14,0.47227007650212915,0.5,1.0,1.0,495.0,541.0,1.0,1,434.0,1
15,15,0.1884368317582631,0.2,0.0,0.0,454.0,815.0,0.0,1,-1249.0,1
16,16,0.11442459677601768,0.1,1.0,1.0,406.0,513.0,0.0,0,611.0,0
17,17,-0.15628378969088697,-0.2,1.0,0.0,450.0,892.0,0.0,0,898.0,1
18,18,-0.8167978337861842,-0.8,0.0,1.0,315.0,965.0,1.0,0,-1110.0,1
19,19,-0.4143133514929202,-0.4,1.0,0.0,292.0,726.0,0.0,0,-668.0,1
20,20,-0.6213796694536871,-0.6,0.0,1.0,426.0,877.0,1.0,0,-313.0,1
21,21,-0.1143636334030328,-0.1,0.0,1.0,404.0,901.0,1.0,0,-195.0,1
22,22,0.8409634402578673,0.8,0.0,0.0,336.0,536.0,1.0,0,-832.0,0
23,23,0.7511313226595034,0.8,1.0,1.0,341.0,635.0,0.0,0,-926.0,0
24,24,0.1747825755806719,0.2,0.0,0.0,433.0,733.0,1.0,0,-766.0,0
25,25,-0.19068785326150228,-0.2,0.0,1.0,264.0,948.0,1.0,0,-1172.0,1
26,26,0.5023173851353459,0.5,1.0,1.0,345.0,599.0,0.0,0,-114.0,0
27,27,-0.4878233599806413,-0.5,0.0,1.0,297.0,732.0,0.0,1,381.0,0
28,28,0.7249537119164661,0.7,1.0,1.0,466.0,915.0,0.0,0,-391.0,0
29,29,0.855655360309031,0.9,0.0,0.0,375.0,682.0,0.0,1,773.0,1
30,30,0.03786064439700598,0.0,0.0,0.0,396.0,998.0,1.0,0,-1264.0,0
31,31,0.14915467638749436,0.1,1.0,1.0,424.0,586.0,0.0,0,-50.0,0
32,32,0.27457003586300266,0.3,1.0,1.0,310.0,583.0,1.0,1,-783.0,1
33,33,-0.5925990630101029,-0.6,1.0,0.0,250.0,583.0,1.0,1,2167.0,0
34,34,-0.5229283786192096,-0.5,0.0,1.0,350.0,539.0,1.0,0,-179.0,1
35,35,-0.7478721758509538,-0.7,1.0,0.0,308.0,874.0,1.0,1,138.0,0
36,36,0.3512724761553271,0.4,0.0,0.0,334.0,867.0,1.0,0,299.0,0
37,37,0.5903641908817322,0.6,1.0,1.0,445.0,699.0,0.0,0,-314.0,0
38,38,0.5425747201594012,0.5,0.0,0.0,376.0,706.0,1.0,0,608.0,0
39,39,0.3489855835357639,0.3,0.0,0.0,260.0,924.0,0.0,1,-814.0,1
40,40,0.8643813486893995,0.9,1.0,1.0,351.0,929.0,1.0,1,-90.0,1
41,41,-0.24806221427004072,-0.2,1.0,0.0,354.0,530.0,1.0,1,-574.0,0
42,42,0.35522119398730323,0.4,0.0,0.0,443.0,834.0,1.0,0,463.0,0
43,43,0.6766368880481582,0.7,1.0,1.0,403.0,818.0,1.0,1,389.0,1
44,44,-0.8662716706469255,-0.9,0.0,1.0,425.0,989.0,0.0,1,-1124.0,0
45,45,-0.7912049980964037,-0.8,1.0,0.0,352.0,841.0,0.0,0,-1143.0,1
46,46,-0.6191410997706479,-0.6,1.0,0.0,252.0,520.0,0.0,0,-742.0,1
47,47,-0.36947376527526476,-0.4,1.0,0.0,411.0,645.0,0.0,0,-26.0,1
48,48,0.790615891370439,0.8,0.0,0.0,334.0,903.0,0.0,1,1063.0,1
49,49,-0.7528423456001033,-0.8,1.0,0.0,447.0,711.0,0.0,0,42.0,1
50,50,0.674581887498691,0.7,1.0,1.0,337.0,750.0,0.0,0,-457.0,0
51,51,0.8775158969841282,0.9,1.0,1.0,271.0,930.0,0.0,0,429.0,0
52,52,0.017701325197463036,0.0,0.0,0.0,433.0,745.0,0.0,1,-948.0,1
53,53,-0.45190591822611303,-0.5,1.0,0.0,385.0,812.0,0.0,0,553.0,1
54,54,0.879086051786509,0.9,1.0,1.0,351.0,985.0,1.0,1,434.0,1
55,55,0.3917168028378323,0.4,1.0,1.0,386.0,757.0,0.0,0,-753.0,0
56,56,-0.8936160598579528,-0.9,1.0,0.0,490.0,508.0,1.0,1,1452.0,0
57,57,0.6458448724694535,0.6,1.0,1.0,361.0,797.0,0.0,0,-388.0,0
58,58,-0.1387376209811252,-0.1,1.0,0.0,463.0,651.0,1.0,1,-854.0,0
59,59,-0.6072993136463845,-0.6,0.0,1.0,251.0,732.0,1.0,0,-803.0,1
60,60,0.3604412827253237,0.4,1.0,1.0,318.0,558.0,0.0,0,-686.0,0
61,61,-0.5060470419362761,-0.5,0.0,1.0,299.0,662.0,1.0,0,-191.0,1
62,62,0.5463838339587374,0.5,0.0,0.0,250.0,508.0,1.0,0,1612.0,0
63,63,0.39355944907996043,0.4,1.0,1.0,314.0,500.0,1.0,1,-594.0,1
64,64,-0.38306280418165983,-0.4,1.0,0.0,484.0,868.0,0.0,0,1648.0,1
65,65,-0.23844668253070567,-0.2,0.0,1.0,440.0,559.0,1.0,0,251.0,1
66,66,-0.2163876076595046,-0.2,1.0,0.0,427.0,515.0,0.0,0,-212.0,1
67,67,0.44377441459685996,0.4,1.0,1.0,266.0,589.0,1.0,1,-625.0,1
68,68,-0.23326214110583676,-0.2,0.0,1.0,350.0,874.0,0.0,1,246.0,0
69,69,0.813138616587998,0.8,1.0,1.0,359.0,825.0,1.0,1,-1024.0,1
70,70,0.8281794877243417,0.8,1.0,1.0,483.0,531.0,0.0,0,1216.0,0
71,71,-0.8746418371447097,-0.9,0.0,1.0,498.0,736.0,0.0,1,306.0,0
72,72,0.20595093284503807,0.2,1.0,1.0,345.0,828.0,0.0,0,-983.0,0
73,73,0.1896470687682711,0.2,0.0,0.0,457.0,754.0,0.0,1,89.0,1
74,74,-0.4296999702308084,-0.4,0.0,1.0,371.0,540.0,0.0,1,179.0,0
75,75,-0.10332855303138777,-0.1,1.0,0.0,479.0,667.0,0.0,0,-236.0,1
76,76,0.6400265875508572,0.6,1.0,1.0,422.0,805.0,0.0,0,1183.0,0
77,77,0.802268781826183,0.8,1.0,1.0,391.0,549.0,1.0,1,-20.0,1
78,78,0.015798490113925423,0.0,0.0,0.0,478.0,695.0,1.0,0,-1163.0,0
79,79,0.4407633415776512,0.4,0.0,0.0,335.0,548.0,0.0,1,-493.0,1
80,80,0.6485634275841051,0.6,0.0,0.0,372.0,733.0,1.0,0,-285.0,0
81,81,0.4082401470956255,0.4,1.0,1.0,403.0,986.0,0.0,0,-789.0,0
82,82,-0.39594261712336076,-0.4,1.0,0.0,431.0,846.0,1.0,1,103.0,0
83,83,0.8028511567522977,0.8,1.0,1.0,276.0,968.0,1.0,1,-264.0,1
84,84,-0.1600528369178792,-0.2,0.0,1.0,311.0,564.0,1.0,0,-465.0,1
85,85,-0.6044365276568586,-0.6,0.0,1.0,334.0,919.0,1.0,0,-803.0,1
86,86,0.4678887571244713,0.5,0.0,0.0,265.0,574.0,1.0,0,2161.0,0
87,87,0.6616076411359503,0.7,0.0,0.0,439.0,802.0,1.0,0,-1141.0,0
88,88,-0.6312628018940223,-0.6,0.0,1.0,430.0,714.0,1.0,0,-454.0,1
89,89,-0.7345381715567362,-0.7,0.0,1.0,272.0,956.0,0.0,1,1772.0,0
90,90,-0.15430190684357015,-0.2,1.0,0.0,330.0,943.0,0.0,0,287.0,1
91,91,0.5267197447675308,0.5,1.0,1.0,405.0,800.0,0.0,0,255.0,0
92,92,0.26972924897853423,0.3,1.0,1.0,431.0,500.0,0.0,0,-621.0,0
93,93,0.18422220449478266,0.2,1.0,1.0,425.0,909.0,0.0,0,1666.0,0
94,94,-0.6668852980820642,-0.7,0.0,1.0,432.0,597.0,1.0,0,51.0,1
95,95,-0.004402006368975808,-0.0,1.0,0.0,433.0,608.0,1.0,1,-961.0,0
96,96,0.7056498388458435,0.7,1.0,1.0,349.0,881.0,1.0,1,-630.0,1
97,97,-0.44678620336501335,-0.4,0.0,1.0,496.0,788.0,1.0,0,426.0,1
98,98,-0.22140768309321668,-0.2,0.0,1.0,476.0,992.0,1.0,0,342.0,1
99,99,-0.3538284578036347,-0.4,0.0,1.0,484.0,931.0,0.0,1,-1235.0,0
100,100,0.14822487105530036,0.1,0.0,0.0,419.0,898.0,0.0,1,-227.0,1
101,101,0.04869553757350875,0.0,1.0,1.0,281.0,681.0,1.0,1,1348.0,1
102,102,-0.8282531821630862,-0.8,0.0,1.0,298.0,831.0,1.0,0,-969.0,1
103,103,-0.28830291587299783,-0.3,1.0,0.0,340.0,669.0,0.0,0,-199.0,1
104,104,0.3238212725190134,0.3,0.0,0.0,267.0,560.0,1.0,0,-377.0,0
105,105,0.48521925251821474,0.5,0.0,0.0,304.0,983.0,0.0,1,1003.0,1
106,106,-0.33255661925141156,-0.3,0.0,1.0,450.0,734.0,0.0,1,-364.0,0
107,107,0.046308296583596475,0.0,1.0,1.0,382.0,756.0,0.0,0,-1128.0,0
108,108,-0.3321775186131909,-0.3,0.0,1.0,429.0,775.0,1.0,0,-924.0,1
109,109,-0.46408268849250794,-0.5,1.0,0.0,285.0,758.0,0.0,0,-1033.0,1
110,110,-0.6239962401509893,-0.6,1.0,0.0,433.0,673.0,0.0,0,1894.0,1
111,111,-0.13801146712141676,-0.1,1.0,0.0,485.0,870.0,1.0,1,-105.0,0
112,112,0.7858866968139154,0.8,1.0,1.0,407.0,701.0,0.0,0,1852.0,0
113,113,0.648352716072652,0.6,0.0,0.0,314.0,908.0,0.0,1,448.0,1
114,114,-0.7739695247108027,-0.8,0.0,1.0,376.0,733.0,1.0,0,-669.0,1
115,115,0.6555754110543229,0.7,1.0,1.0,251.0,702.0,0.0,0,37.0,0
116,116,-0.23080065831926777,-0.2,1.0,0.0,348.0,558.0,0.0,0,-546.0,1
117,117,-0.20421289065279624,-0.2,1.0,0.0,398.0,692.0,1.0,1,1090.0,0
118,118,0.21866231533200386,0.2,1.0,1.0,496.0,505.0,1.0,1,-931.0,1
119,119,-0.11847666956475122,-0.1,1.0,0.0,299.0,511.0,1.0,1,420.0,0
120,120,-0.32160466476303584,-0.3,0.0,1.0,358.0,511.0,0.0,1,-839.0,0
121,121,-0.7132614667050283,-0.7,1.0,0.0,263.0,906.0,0.0,0,-699.0,1
122,122,0.7882557455273992,0.8,0.0,0.0,391.0,917.0,0.0,1,-1058.0,1
123,123,-0.7649293325707758,-0.8,0.0,1.0,479.0,849.0,0.0,1,-318.0,0
124,124,-0.890088530872981,-0.9,0.0,1.0,283.0,723.0,1.0,0,-226.0,1
125,125,0.7283974052307244,0.7,0.0,0.0,252.0,709.0,1.0,0,-921.0,0
126,126,0.6474633141044198,0.6,0.0,0.0,424.0,916.0,0.0,1,-290.0,1
127,127,-0.6727644644803981,-0.7,0.0,1.0,466.0,967.0,1.0,0,197.0,1
128,128,-0.05718119213967332,-0.1,1.0,0.0,382.0,811.0,1.0,1,107.0,0
129,129,0.49190608940167146,0.5,1.0,1.0,433.0,584.0,0.0,0,1983.0,0
130,130,0.6115677964986571,0.6,1.0,1.0,383.0,804.0,0.0,0,-637.0,0
131,131,-0.3736319647828963,-0.4,1.0,0.0,305.0,518.0,1.0,1,37.0,0
132,132,-0.08014424620433658,-0.1,1.0,0.0,300.0,817.0,0.0,0,483.0,1
133,133,-0.06922250423189191,-0.1,0.0,1.0,394.0,650.0,1.0,0,-4.0,1
134,134,-0.4119886462384773,-0.4,1.0,0.0,347.0,572.0,1.0,1,-749.0,0
135,135,0.2501143951155148,0.3,1.0,1.0,250.0,830.0,0.0,0,-1080.0,0
136,136,0.7663282844705929,0.8,0.0,0.0,496.0,647.0,0.0,1,-1043.0,1
137,137,0.02025709792527386,0.0,0.0,0.0,460.0,981.0,1.0,0,-1261.0,0
138,138,-0.040565628434704015,-0.0,1.0,0.0,387.0,755.0,1.0,1,-402.0,0
139,139,0.6755460579074345,0.7,1.0,1.0,344.0,726.0,1.0,1,-680.0,1
140,140,0.032451098852076865,0.0,0.0,0.0,321.0,889.0,1.0,0,-1080.0,0
141,141,0.2029496405501653,0.2,0.0,0.0,332.0,588.0,1.0,0,1170.0,0
142,142,0.32191725372786817,0.3,0.0,0.0,289.0,831.0,1.0,0,1060.0,0
143,143,-0.09848295279433417,-0.1,1.0,0.0,399.0,644.0,0.0,0,-93.0,1
144,144,0.42844605721802365,0.4,0.0,0.0,337.0,755.0,0.0,1,178.0,1
145,145,0.20027847754283712,0.2,0.0,0.0,427.0,913.0,0.0,1,-80.0,1
146,146,0.018216328305739604,0.0,0.0,0.0,446.0,908.0,0.0,1,-1154.0,1
147,147,0.40860268589979964,0.4,1.0,1.0,424.0,952.0,1.0,1,-1036.0,1
148,148,-0.03817949943194909,-0.0,1.0,0.0,401.0,718.0,0.0,0,-629.0,1
149,149,0.3704365893297644,0.4,1.0,1.0,336.0,544.0,1.0,1,-850.0,1
150,150,0.5340748501134723,0.5,1.0,1.0,360.0,837.0,0.0,0,-907.0,0
151,151,-0.37698171735885555,-0.4,1.0,0.0,370.0,941.0,0.0,0,999.0,1
152,152,-0.4065909079368907,-0.4,1.0,0.0,393.0,990.0,0.0,0,-983.0,1
153,153,0.5759583343499907,0.6,0.0,0.0,450.0,830.0,1.0,0,-560.0,0
154,154,0.27341828441350746,0.3,1.0,1.0,272.0,820.0,0.0,0,1908.0,0
155,155,-0.18760660422875186,-0.2,1.0,0.0,470.0,780.0,0.0,0,-1190.0,1
156,156,-0.33004570806532874,-0.3,1.0,0.0,434.0,632.0,0.0,0,1934.0,1
157,157,0.8211836574428647,0.8,1.0,1.0,252.0,602.0,1.0,1,1156.0,1
158,158,-0.19700996017430195,-0.2,1.0,0.0,316.0,704.0,1.0,1,-60.0,0
159,159,-0.28365710193058613,-0.3,0.0,1.0,487.0,574.0,1.0,0,29.0,1
160,160,-0.12060795064285934,-0.1,0.0,1.0,485.0,558.0,1.0,0,1847.0,1
161,161,0.3818272268816961,0.4,0.0,0.0,476.0,618.0,0.0,1,-1034.0,1
162,162,-0.6689019784854409,-0.7,1.0,0.0,332.0,587.0,0.0,0,-889.0,1
163,163,0.7093660342686189,0.7,0.0,0.0,384.0,630.0,0.0,1,-94.0,1
164,164,0.6232320709646387,0.6,1.0,1.0,456.0,781.0,1.0,1,193.0,1
165,165,-0.8274523633329347,-0.8,1.0,0.0,495.0,987.0,1.0,1,698.0,0
166,166,-0.6716350372777399,-0.7,1.0,0.0,484.0,500.0,0.0,0,186.0,1
167,167,-0.3306714455262285,-0.3,1.0,0.0,273.0,558.0,0.0,0,-511.0,1
168,168,0.8203513484799357,0.8,1.0,1.0,391.0,984.0,0.0,0,-385.0,0
169,169,-0.4995365961994966,-0.5,0.0,1.0,469.0,913.0,1.0,0,-662.0,1
170,170,-0.3835422007575089,-0.4,0.0,1.0,447.0,609.0,0.0,1,304.0,0
171,171,-0.10884778136039042,-0.1,0.0,1.0,263.0,936.0,0.0,1,-849.0,0
172,172,-0.2880247568099985,-0.3,0.0,1.0,307.0,629.0,1.0,0,-636.0,1
173,173,-0.19304472093784275,-0.2,0.0,1.0,397.0,958.0,0.0,1,965.0,0
174,174,0.07482172839117329,0.1,0.0,0.0,333.0,737.0,0.0,1,-670.0,1
175,175,0.3140924366296699,0.3,1.0,1.0,453.0,656.0,0.0,0,-529.0,0
176,176,-0.8454238773058608,-0.8,0.0,1.0,362.0,804.0,1.0,0,224.0,1
177,177,0.24635356631295002,0.2,0.0,0.0,336.0,818.0,0.0,1,196.0,1
178,178,0.27985677428411215,0.3,0.0,0.0,264.0,685.0,1.0,0,-669.0,0
179,179,-0.27903629613512126,-0.3,1.0,0.0,399.0,722.0,0.0,0,1649.0,1
180,180,-0.12581538496206235,-0.1,1.0,0.0,406.0,994.0,0.0,0,-1280.0,1
181,181,0.7541528016779123,0.8,0.0,0.0,277.0,971.0,0.0,1,-1218.0,1
182,182,0.17889665323803305,0.2,0.0,0.0,435.0,956.0,1.0,0,-821.0,0
183,183,0.5106076542585726,0.5,1.0,1.0,344.0,522.0,0.0,0,-846.0,0
184,184,0.3107933041137426,0.3,0.0,0.0,463.0,865.0,0.0,1,1292.0,1
185,185,0.30861306330288907,0.3,0.0,0.0,452.0,815.0,1.0,0,-887.0,0
186,186,-0.8020914909761047,-0.8,0.0,1.0,466.0,739.0,1.0,0,365.0,1
187,187,-0.7312894965000342,-0.7,0.0,1.0,487.0,754.0,1.0,0,-871.0,1
188,188,0.04501006347747394,0.0,1.0,1.0,419.0,861.0,0.0,0,1720.0,0
189,189,0.2562721197654968,0.3,1.0,1.0,422.0,858.0,1.0,1,-1180.0,1
190,190,0.8552331918691424,0.9,1.0,1.0,456.0,978.0,0.0,0,-844.0,0
191,191,0.42862433962132973,0.4,1.0,1.0,277.0,952.0,0.0,0,-939.0,0
192,192,0.2080888591709985,0.2,1.0,1.0,460.0,518.0,1.0,1,-908.0,1
193,193,0.3083002132084912,0.3,1.0,1.0,459.0,537.0,0.0,0,2004.0,0
194,194,-0.4140559605066072,-0.4,1.0,0.0,259.0,921.0,1.0,1,-180.0,0
195,195,0.15892866883177648,0.2,0.0,0.0,492.0,800.0,1.0,0,-82.0,0
196,196,0.22279844692983863,0.2,0.0,0.0,361.0,759.0,0.0,1,-1100.0,1
197,197,0.5228938552285968,0.5,0.0,0.0,414.0,908.0,0.0,1,1678.0,1
198,198,0.35993182500588927,0.4,1.0,1.0,495.0,830.0,0.0,0,1675.0,0
199,199,-0.796098501179631,-0.8,0.0,1.0,339.0,551.0,1.0,0,570.0,1
200,200,-0.6592312392896164,-0.7,0.0,1.0,465.0,556.0,0.0,1,-561.0,0
201,201,-0.727664673199393,-0.7,0.0,1.0,366.0,755.0,0.0,1,-1091.0,0
202,202,-0.3931241141975945,-0.4,0.0,1.0,312.0,681.0,0.0,1,-363.0,0
203,203,0.31698388228527985,0.3,1.0,1.0,432.0,514.0,0.0,0,-816.0,0
204,204,-0.7457740277156774,-0.7,1.0,0.0,495.0,628.0,0.0,0,-603.0,1
205,205,0.4438489896112682,0.4,1.0,1.0,478.0,501.0,1.0,1,2021.0,1
206,206,-0.7804403076258744,-0.8,1.0,0.0,293.0,614.0,1.0,1,-907.0,0
207,207,0.5825358760802698,0.6,1.0,1.0,345.0,620.0,1.0,1,-875.0,1
208,208,0.5325067016265218,0.5,0.0,0.0,443.0,630.0,1.0,0,-123.0,0
209,209,0.6982100327093111,0.7,0.0,0.0,437.0,956.0,0.0,1,1607.0,1
210,210,-0.512431739128264,-0.5,0.0,1.0,265.0,606.0,1.0,0,-441.0,1
211,211,-0.37254087893663657,-0.4,1.0,0.0,396.0,883.0,1.0,1,-1169.0,0
212,212,-0.7854647038572262,-0.8,1.0,0.0,265.0,850.0,1.0,1,-1045.0,0
213,213,0.7200544221062274,0.7,1.0,1.0,431.0,847.0,0.0,0,-528.0,0
214,214,-0.06757853724969576,-0.1,0.0,1.0,456.0,975.0,1.0,0,-831.0,1
215,215,0.14200993936123496,0.1,1.0,1.0,324.0,689.0,0.0,0,-823.0,0
216,216,0.8291727075391776,0.8,0.0,0.0,356.0,763.0,1.0,0,-799.0,0
217,217,0.8679986111276613,0.9,1.0,1.0,376.0,820.0,0.0,0,-886.0,0
218,218,-0.6241511154442181,-0.6,1.0,0.0,452.0,877.0,0.0,0,-59.0,1
219,219,-0.8578315587005442,-0.9,1.0,0.0,456.0,857.0,0.0,0,587.0,1
220,220,-0.04085103429310177,-0.0,1.0,0.0,386.0,703.0,0.0,0,11.0,1
221,221,-0.08511427825770568,-0.1,1.0,0.0,440.0,964.0,0.0,0,-894.0,1
222,222,0.14555682390067293,0.1,1.0,1.0,282.0,865.0,1.0,1,-1057.0,1
223,223,-0.6607716943026849,-0.7,1.0,0.0,390.0,631.0,1.0,1,-371.0,0
224,224,-0.7855937491839212,-0.8,0.0,1.0,335.0,940.0,0.0,1,-645.0,0
225,225,0.03431632333205237,0.0,1.0,1.0,282.0,753.0,1.0,1,1965.0,1
226,226,-0.5325371460713486,-0.5,0.0,1.0,458.0,707.0,1.0,0,395.0,1
227,227,0.3714164530859946,0.4,0.0,0.0,433.0,673.0,1.0,0,754.0,0
228,228,-0.14792946308099209,-0.1,1.0,0.0,456.0,888.0,0.0,0,526.0,1
229,229,0.7090579203129518,0.7,1.0,1.0,341.0,720.0,1.0,1,1099.0,1
230,230,0.055488430430226665,0.1,0.0,0.0,467.0,762.0,1.0,0,-1069.0,0
231,231,0.17649159738392572,0.2,1.0,1.0,470.0,823.0,0.0,0,237.0,0
232,232,-0.8815888705966205,-0.9,1.0,0.0,453.0,905.0,1.0,1,-888.0,0
233,233,-0.04670587371123158,-0.0,1.0,0.0,435.0,840.0,0.0,0,-735.0,1
234,234,0.596941702386976,0.6,1.0,1.0,309.0,928.0,0.0,0,-27.0,0
235,235,-0.7621559970837641,-0.8,0.0,1.0,407.0,760.0,1.0,0,-137.0,1
236,236,-0.5563104597318176,-0.6,1.0,0.0,445.0,568.0,0.0,0,897.0,1
237,237,-0.282303275460868,-0.3,1.0,0.0,475.0,824.0,1.0,1,241.0,0
238,238,0.8033361447741737,0.8,1.0,1.0,418.0,502.0,0.0,0,-830.0,0
239,239,-0.8427614076395616,-0.8,1.0,0.0,348.0,798.0,0.0,0,874.0,1
240,240,-0.5187919499209499,-0.5,1.0,0.0,276.0,524.0,0.0,0,210.0,1
241,241,-0.3585338305625363,-0.4,0.0,1.0,449.0,505.0,0.0,1,-714.0,0
242,242,0.7574914586388976,0.8,1.0,1.0,497.0,515.0,0.0,0,1478.0,0
243,243,-0.7748183095142601,-0.8,1.0,0.0,260.0,964.0,0.0,0,-234.0,1
244,244,-0.8765941895741789,-0.9,1.0,0.0,292.0,801.0,0.0,0,387.0,1
245,245,0.09967227927857492,0.1,1.0,1.0,351.0,829.0,1.0,1,-1010.0,1
246,246,0.6527724831891765,0.7,1.0,1.0,347.0,736.0,0.0,0,-373.0,0
247,247,-0.8911536344999454,-0.9,1.0,0.0,403.0,561.0,0.0,0,-564.0,1
248,248,0.579264130771313,0.6,1.0,1.0,272.0,847.0,1.0,1,-289.0,1
249,249,-0.07948708300765994,-0.1,1.0,0.0,318.0,808.0,1.0,1,-456.0,0
250,250,0.16785021201100336,0.2,0.0,0.0,408.0,637.0,1.0,0,135.0,0
251,251,-0.8604122292527796,-0.9,1.0,0.0,300.0,856.0,0.0,0,-276.0,1
252,252,-0.5496760082249085,-0.5,1.0,0.0,364.0,780.0,0.0,0,-934.0,1
253,253,0.2770011154118922,0.3,1.0,1.0,303.0,675.0,0.0,0,-908.0,0
254,254,-0.2194795858295111,-0.2,0.0,1.0,302.0,929.0,1.0,0,-1221.0,1
255,255,-0.8432029800298797,-0.8,1.0,0.0,430.0,805.0,1.0,1,1055.0,0
256,256,0.7720860071105132,0.8,1.0,1.0,432.0,555.0,0.0,0,-627.0,0
257,257,0.029277520493322995,0.0,0.0,0.0,373.0,916.0,0.0,1,-1119.0,1
258,258,0.6322730320209872,0.6,0.0,0.0,473.0,779.0,1.0,0,118.0,0
259,259,-0.8435035254567247,-0.8,0.0,1.0,392.0,978.0,0.0,1,-30.0,0
260,260,-0.3134078132675002,-0.3,0.0,1.0,489.0,955.0,0.0,1,-894.0,0
261,261,-0.2063127326312455,-0.2,0.0,1.0,403.0,529.0,0.0,1,-502.0,0
262,262,-0.7370488088493551,-0.7,1.0,0.0,317.0,783.0,0.0,0,-610.0,1
263,263,0.6210935575074831,0.6,0.0,0.0,280.0,525.0,1.0,0,-15.0,0
264,264,-0.7920582736183045,-0.8,1.0,0.0,303.0,918.0,0.0,0,-51.0,1
265,265,-0.17755955023634207,-0.2,0.0,1.0,362.0,787.0,0.0,1,-929.0,0
266,266,0.3983934194282982,0.4,0.0,0.0,316.0,597.0,1.0,0,-143.0,0
267,267,-0.8020027577576375,-0.8,1.0,0.0,438.0,993.0,1.0,1,-561.0,0
268,268,-0.43881080750981766,-0.4,1.0,0.0,257.0,939.0,0.0,0,654.0,1
269,269,-0.7400643692432586,-0.7,1.0,0.0,424.0,855.0,0.0,0,881.0,1
270,270,0.24267489894873384,0.2,1.0,1.0,405.0,527.0,1.0,1,-422.0,1
271,271,-0.5570499384362115,-0.6,1.0,0.0,456.0,672.0,1.0,1,202.0,0
272,272,-0.3700719167650588,-0.4,0.0,1.0,408.0,829.0,1.0,0,-1227.0,1
273,273,-0.5521751079314077,-0.6,1.0,0.0,292.0,681.0,0.0,0,2027.0,1
274,274,-0.24970148137197268,-0.2,0.0,1.0,290.0,845.0,0.0,1,-365.0,0
275,275,-0.49160437811616375,-0.5,0.0,1.0,391.0,765.0,0.0,1,1024.0,0
276,276,-0.056247228334231125,-0.1,1.0,0.0,480.0,711.0,1.0,1,-841.0,0
277,277,-0.1277579728542102,-0.1,0.0,1.0,398.0,607.0,0.0,1,-965.0,0
278,278,0.645733783729726,0.6,0.0,0.0,466.0,641.0,0.0,1,-567.0,1
279,279,0.3123619586640437,0.3,1.0,1.0,352.0,828.0,0.0,0,-70.0,0
280,280,0.4353775054542438,0.4,0.0,0.0,300.0,794.0,1.0,0,1316.0,0
281,281,-0.8768483329107108,-0.9,1.0,0.0,474.0,977.0,1.0,1,-451.0,0
282,282,0.6175966924854953,0.6,0.0,0.0,366.0,897.0,1.0,0,27.0,0
283,283,-0.8725449768571396,-0.9,0.0,1.0,273.0,561.0,0.0,1,-674.0,0
284,284,-0.8264151368314018,-0.8,0.0,1.0,422.0,991.0,1.0,0,-703.0,1
285,285,0.2526682805282371,0.3,1.0,1.0,382.0,924.0,1.0,1,-396.0,1
286,286,-0.5413027521464597,-0.5,1.0,0.0,310.0,828.0,1.0,1,-948.0,0
287,287,0.127071902156629,0.1,0.0,0.0,458.0,691.0,0.0,1,-669.0,1
288,288,-0.36463028483829063,-0.4,0.0,1.0,327.0,516.0,1.0,0,567.0,1
289,289,-0.3914505397251625,-0.4,1.0,0.0,259.0,586.0,0.0,0,2155.0,1
290,290,-0.38273126964539195,-0.4,0.0,1.0,322.0,673.0,0.0,1,945.0,0
291,291,-0.3250467735927204,-0.3,1.0,0.0,259.0,823.0,0.0,0,1378.0,1
292,292,-0.22866575320514748,-0.2,1.0,0.0,388.0,896.0,0.0,0,-514.0,1
293,293,0.6860336472903154,0.7,1.0,1.0,349.0,530.0,0.0,0,1641.0,0
294,294,-0.15541326230920327,-0.2,1.0,0.0,405.0,799.0,0.0,0,-524.0,1
295,295,-0.5138217522877088,-0.5,1.0,0.0,254.0,954.0,0.0,0,-998.0,1
296,296,-0.0693023915137636,-0.1,0.0,1.0,446.0,939.0,1.0,0,755.0,1
297,297,-0.6044004255545263,-0.6,1.0,0.0,438.0,746.0,1.0,1,926.0,0
298,298,0.09214789608697338,0.1,1.0,1.0,335.0,510.0,1.0,1,-475.0,1
299,299,-0.05418373508602292,-0.1,1.0,0.0,327.0,717.0,1.0,1,1736.0,0
300,300,0.636708028863111,0.6,1.0,1.0,278.0,940.0,0.0,0,-418.0,0
301,301,0.7149986208974891,0.7,1.0,1.0,284.0,637.0,0.0,0,-581.0,0
302,302,0.24649418622911556,0.2,0.0,0.0,415.0,977.0,1.0,0,-652.0,0
303,303,0.8532924280782695,0.9,0.0,0.0,496.0,844.0,1.0,0,-1340.0,0
304,304,-0.3561306413451425,-0.4,1.0,0.0,442.0,837.0,1.0,1,-129.0,0
305,305,-0.590271037933169,-0.6,1.0,0.0,373.0,586.0,0.0,0,-669.0,1
306,306,0.3110847219694718,0.3,0.0,0.0,268.0,551.0,1.0,0,-709.0,0
307,307,0.19455786231890826,0.2,1.0,1.0,386.0,823.0,1.0,1,-379.0,1
308,308,0.07333929845660292,0.1,1.0,1.0,265.0,715.0,1.0,1,-920.0,1
309,309,-0.08711471207817378,-0.1,0.0,1.0,326.0,509.0,1.0,0,-65.0,1
310,310,0.12279136275248714,0.1,0.0,0.0,298.0,782.0,0.0,1,-710.0,1
311,311,0.3318696084152827,0.3,1.0,1.0,397.0,843.0,0.0,0,1760.0,0
312,312,0.046310435640691705,0.0,0.0,0.0,424.0,733.0,0.0,1,403.0,1
313,313,0.2983904957360287,0.3,1.0,1.0,414.0,630.0,1.0,1,-734.0,1
314,314,-0.7746304654193239,-0.8,0.0,1.0,300.0,577.0,1.0,0,2123.0,1
315,315,-0.7567399160924358,-0.8,0.0,1.0,298.0,577.0,1.0,0,-635.0,1
316,316,-0.7557522832252896,-0.8,0.0,1.0,265.0,850.0,0.0,1,1885.0,0
317,317,-0.7594931431075356,-0.8,1.0,0.0,298.0,814.0,0.0,0,-892.0,1
318,318,0.11008338690126196,0.1,0.0,0.0,381.0,678.0,1.0,0,1281.0,0
319,319,-0.2633342301776632,-0.3,1.0,0.0,476.0,658.0,0.0,0,-544.0,1
320,320,0.6734797734680879,0.7,1.0,1.0,372.0,779.0,1.0,1,299.0,1
321,321,0.40628601106815,0.4,0.0,0.0,419.0,757.0,0.0,1,-1156.0,1
322,322,-0.8292348530089687,-0.8,0.0,1.0,362.0,784.0,1.0,0,244.0,1
323,323,0.6146261107798491,0.6,0.0,0.0,495.0,749.0,1.0,0,566.0,0
324,324,0.715366618543149,0.7,0.0,0.0,494.0,685.0,0.0,1,-1069.0,1
325,325,0.06903436509245453,0.1,1.0,1.0,262.0,517.0,0.0,0,-259.0,0
326,326,-0.11751223012839884,-0.1,1.0,0.0,386.0,846.0,0.0,0,-692.0,1
327,327,-0.5291851541390087,-0.5,0.0,1.0,468.0,716.0,0.0,1,-854.0,0
328,328,0.3900748922363556,0.4,0.0,0.0,458.0,808.0,0.0,1,334.0,1
329,329,-0.84864556352069,-0.8,0.0,1.0,444.0,744.0,1.0,0,-1048.0,1
330,330,0.710265019084492,0.7,1.0,1.0,273.0,658.0,1.0,1,1259.0,1
331,331,0.29427273969363343,0.3,0.0,0.0,298.0,647.0,1.0,0,-35.0,0
332,332,0.6717605917337107,0.7,1.0,1.0,311.0,670.0,1.0,1,-431.0,1
333,333,0.5347458289995651,0.5,1.0,1.0,489.0,626.0,1.0,1,-155.0,1
334,334,0.4127811302143848,0.4,1.0,1.0,415.0,795.0,1.0,1,-310.0,1
335,335,-0.1725007624487893,-0.2,0.0,1.0,323.0,911.0,1.0,0,-394.0,1
336,336,-0.4137537352615874,-0.4,1.0,0.0,331.0,897.0,1.0,1,-908.0,0
337,337,0.49390138510523374,0.5,0.0,0.0,377.0,586.0,0.0,1,-373.0,1
338,338,0.29005357422438893,0.3,0.0,0.0,258.0,844.0,1.0,0,-732.0,0
339,339,0.7179443136686449,0.7,0.0,0.0,297.0,947.0,0.0,1,756.0,1
340,340,-0.5023136338078698,-0.5,0.0,1.0,274.0,816.0,0.0,1,-80.0,0
341,341,0.21953048087336569,0.2,1.0,1.0,297.0,968.0,1.0,1,5.0,1
342,342,-0.14762736957302847,-0.1,0.0,1.0,361.0,719.0,0.0,1,-550.0,0
343,343,-0.4879682105931986,-0.5,0.0,1.0,467.0,887.0,1.0,0,1646.0,1
344,344,0.6704674730760848,0.7,0.0,0.0,418.0,648.0,1.0,0,524.0,0
345,345,0.3754899167486144,0.4,0.0,0.0,431.0,973.0,1.0,0,-914.0,0
346,346,-0.5698226333329609,-0.6,1.0,0.0,332.0,629.0,0.0,0,-291.0,1
347,347,0.6142398047670946,0.6,0.0,0.0,326.0,641.0,0.0,1,2033.0,1
348,348,0.1063111456945155,0.1,0.0,0.0,312.0,538.0,1.0,0,970.0,0
349,349,0.22885026112422324,0.2,0.0,0.0,425.0,703.0,1.0,0,312.0,0
350,350,-0.8928187662608463,-0.9,1.0,0.0,440.0,614.0,0.0,0,1946.0,1
351,351,-0.7983277527228443,-0.8,1.0,0.0,490.0,820.0,0.0,0,-900.0,1
352,352,0.42647240080400983,0.4,0.0,0.0,493.0,783.0,0.0,1,1724.0,1
353,353,-0.21480319805404569,-0.2,0.0,1.0,333.0,903.0,0.0,1,-496.0,0
354,354,0.8747132524685856,0.9,0.0,0.0,391.0,574.0,0.0,1,595.0,1
355,355,0.4373369208189096,0.4,1.0,1.0,321.0,875.0,1.0,1,-426.0,1
356,356,-0.6687911682338685,-0.7,0.0,1.0,486.0,872.0,0.0,1,-928.0,0
357,357,0.4161305395791194,0.4,1.0,1.0,292.0,970.0,0.0,0,1068.0,0
358,358,0.760403075636496,0.8,0.0,0.0,487.0,989.0,0.0,1,-426.0,1
359,359,0.10984783422256628,0.1,1.0,1.0,469.0,626.0,1.0,1,-795.0,1
360,360,-0.5165626957884033,-0.5,1.0,0.0,289.0,502.0,1.0,1,689.0,0
361,361,-0.5731445049156743,-0.6,1.0,0.0,299.0,544.0,1.0,1,-683.0,0
362,362,-0.35624150681916655,-0.4,1.0,0.0,287.0,515.0,0.0,0,728.0,1
363,363,-0.6105980888705334,-0.6,1.0,0.0,272.0,597.0,1.0,1,171.0,0
364,364,-0.49059926963710504,-0.5,1.0,0.0,391.0,636.0,0.0,0,863.0,1
365,365,0.6438529237990228,0.6,1.0,1.0,468.0,545.0,1.0,1,-1003.0,1
366,366,-0.3173708951713934,-0.3,1.0,0.0,257.0,527.0,0.0,0,-624.0,1
367,367,-0.6995499714852185,-0.7,0.0,1.0,294.0,915.0,1.0,0,-259.0,1
368,368,0.1262681986517581,0.1,1.0,1.0,258.0,781.0,0.0,0,-99.0,0
369,369,0.30394649528872,0.3,0.0,0.0,427.0,886.0,0.0,1,837.0,1
370,370,0.7991045790222425,0.8,1.0,1.0,445.0,945.0,1.0,1,-310.0,1
371,371,-0.663543035382483,-0.7,1.0,0.0,373.0,518.0,1.0,1,2109.0,0
372,372,0.7063424464012981,0.7,1.0,1.0,462.0,810.0,0.0,0,248.0,0
373,373,0.4846352012133802,0.5,0.0,0.0,376.0,943.0,0.0,1,1681.0,1
374,374,-0.4079481645470027,-0.4,0.0,1.0,351.0,973.0,0.0,1,-364.0,0
375,375,-0.7262332604443476,-0.7,1.0,0.0,282.0,938.0,0.0,0,-880.0,1
376,376,0.5586649709260115,0.6,1.0,1.0,427.0,523.0,0.0,0,-430.0,0
377,377,0.0683399300092864,0.1,0.0,0.0,348.0,659.0,0.0,1,53.0,1
378,378,-0.2647812992960925,-0.3,1.0,0.0,449.0,968.0,0.0,0,-1167.0,1
379,379,0.6274539528020474,0.6,0.0,0.0,453.0,964.0,0.0,1,-1257.0,1
380,380,-0.8579896137527396,-0.9,1.0,0.0,256.0,823.0,1.0,1,-289.0,0
381,381,0.490430854507118,0.5,0.0,0.0,354.0,752.0,0.0,1,1894.0,1
382,382,-0.47320371526775556,-0.5,0.0,1.0,360.0,719.0,0.0,1,231.0,0
383,383,0.026638794563246693,0.0,0.0,0.0,408.0,546.0,0.0,1,-644.0,1
384,384,0.8736585313347608,0.9,1.0,1.0,397.0,828.0,0.0,0,1775.0,0
385,385,-0.01817338881361663,-0.0,0.0,1.0,373.0,997.0,1.0,0,-690.0,1
386,386,0.8137968897489937,0.8,1.0,1.0,408.0,672.0,0.0,0,-430.0,0
387,387,-0.11947922751496587,-0.1,1.0,0.0,303.0,770.0,0.0,0,-713.0,1
388,388,-0.2858482921257489,-0.3,1.0,0.0,352.0,862.0,0.0,0,-1104.0,1
389,389,0.5860833568032221,0.6,1.0,1.0,430.0,672.0,0.0,0,-292.0,0
390,390,-0.31152271599595804,-0.3,0.0,1.0,285.0,997.0,1.0,0,-802.0,1
391,391,-0.4030619993272774,-0.4,1.0,0.0,464.0,633.0,1.0,1,-657.0,0
392,392,0.8277957684921481,0.8,0.0,0.0,277.0,942.0,1.0,0,-619.0,0
393,393,-0.2891520990375773,-0.3,1.0,0.0,330.0,642.0,1.0,1,-962.0,0
394,394,-0.7335140701040546,-0.7,1.0,0.0,281.0,641.0,0.0,0,158.0,1
395,395,-0.5152900211010711,-0.5,0.0,1.0,492.0,978.0,0.0,1,70.0,0
396,396,0.10292738038549165,0.1,1.0,1.0,426.0,739.0,0.0,0,305.0,0
397,397,-0.08679826974258575,-0.1,0.0,1.0,496.0,568.0,0.0,1,-534.0,0
398,398,0.2063705109977324,0.2,1.0,1.0,262.0,905.0,1.0,1,63.0,1
399,399,0.2889160221588586,0.3,0.0,0.0,255.0,958.0,1.0,0,-1133.0,0
400,400,0.6683142363178353,0.7,1.0,1.0,392.0,835.0,1.0,1,-597.0,1
401,401,0.8776992341238582,0.9,0.0,0.0,305.0,582.0,1.0,0,993.0,0
402,402,0.5016277651907329,0.5,0.0,0.0,451.0,629.0,1.0,0,1920.0,0
403,403,0.7469341184741495,0.7,0.0,0.0,351.0,943.0,1.0,0,-774.0,0
404,404,0.16022364348801765,0.2,1.0,1.0,364.0,909.0,0.0,0,-613.0,0
405,405,0.2206177902721399,0.2,1.0,1.0,339.0,699.0,0.0,0,-798.0,0
406,406,0.8658463728251083,0.9,1.0,1.0,278.0,853.0,0.0,0,-701.0,0
407,407,0.24120745463948323,0.2,0.0,0.0,278.0,786.0,1.0,0,96.0,0
408,408,0.13549132078786708,0.1,0.0,0.0,455.0,533.0,0.0,1,-708.0,1
409,409,0.7720587429481366,0.8,1.0,1.0,458.0,577.0,0.0,0,625.0,0
410,410,-0.5179469604236442,-0.5,0.0,1.0,306.0,776.0,0.0,1,-392.0,0
411,411,0.10509412816951447,0.1,1.0,1.0,278.0,904.0,1.0,1,-72.0,1
412,412,-0.4202407141676359,-0.4,1.0,0.0,317.0,606.0,0.0,0,2077.0,1
413,413,0.5018295772167637,0.5,0.0,0.0,499.0,613.0,0.0,1,588.0,1
414,414,0.07835776447918175,0.1,0.0,0.0,369.0,850.0,0.0,1,-1039.0,1
415,415,-0.14657936463168308,-0.1,0.0,1.0,324.0,617.0,1.0,0,1619.0,1
416,416,0.20274226969865572,0.2,1.0,1.0,259.0,519.0,1.0,1,-778.0,1
417,417,-0.6314931829709781,-0.6,1.0,0.0,394.0,874.0,0.0,0,-308.0,1
418,418,0.028816027672679323,0.0,0.0,0.0,360.0,751.0,1.0,0,379.0,0
419,419,-0.4229078438615678,-0.4,0.0,1.0,384.0,855.0,1.0,0,-1049.0,1
420,420,-0.8846110511346656,-0.9,0.0,1.0,462.0,704.0,1.0,0,-216.0,1
421,421,-0.34677162175546794,-0.3,0.0,1.0,429.0,935.0,1.0,0,-1224.0,1
422,422,-0.5300060444732099,-0.5,1.0,0.0,407.0,983.0,1.0,1,-660.0,0
423,423,-0.07185899469538415,-0.1,1.0,0.0,365.0,525.0,0.0,0,-170.0,1
424,424,0.2843684458243353,0.3,1.0,1.0,389.0,678.0,1.0,1,-897.0,1
425,425,-0.7330573878375511,-0.7,1.0,0.0,316.0,515.0,0.0,0,-571.0,1
426,426,-0.4518566112266051,-0.5,1.0,0.0,343.0,654.0,0.0,0,53.0,1
427,427,0.4773144394668506,0.5,0.0,0.0,412.0,568.0,0.0,1,430.0,1
428,428,-0.11822549754349654,-0.1,0.0,1.0,391.0,590.0,0.0,1,-421.0,0
429,429,-0.4503470993716046,-0.5,1.0,0.0,387.0,940.0,0.0,0,-527.0,1
430,430,-0.18075762043205001,-0.2,0.0,1.0,497.0,905.0,0.0,1,-1392.0,0
431,431,0.14422951976197507,0.1,1.0,1.0,278.0,866.0,1.0,1,176.0,1
432,432,0.48905236294545673,0.5,1.0,1.0,256.0,856.0,1.0,1,1888.0,1
433,433,-0.2949984151509977,-0.3,1.0,0.0,444.0,953.0,0.0,0,1603.0,1
434,434,0.7994781096395779,0.8,1.0,1.0,260.0,596.0,0.0,0,-226.0,0
435,435,-0.6961176539461154,-0.7,1.0,0.0,458.0,591.0,1.0,1,-469.0,0
436,436,0.239793977318269,0.2,0.0,0.0,487.0,833.0,1.0,0,1680.0,0
437,437,0.45176551022266864,0.5,0.0,0.0,454.0,835.0,1.0,0,471.0,0
438,438,-0.7301468441151008,-0.7,1.0,0.0,253.0,939.0,0.0,0,-952.0,1
439,439,-0.5149559958054314,-0.5,0.0,1.0,424.0,691.0,0.0,1,-1095.0,0
440,440,-0.31606442661404677,-0.3,1.0,0.0,273.0,986.0,0.0,0,1741.0,1
441,441,0.8882316639922677,0.9,1.0,1.0,377.0,868.0,0.0,0,-1195.0,0
442,442,0.03462155425586855,0.0,0.0,0.0,348.0,882.0,0.0,1,-730.0,1
443,443,-0.6717951534588247,-0.7,1.0,0.0,477.0,567.0,1.0,1,-934.0,0
444,444,-0.8073677353032805,-0.8,1.0,0.0,354.0,684.0,1.0,1,-1028.0,0
445,445,-0.5379607551459239,-0.5,1.0,0.0,299.0,578.0,0.0,0,-417.0,1
446,446,-0.34125530241187096,-0.3,1.0,0.0,370.0,758.0,0.0,0,-968.0,1
447,447,0.020613393347366227,0.0,0.0,0.0,489.0,747.0,1.0,0,354.0,0
448,448,0.33198877229048496,0.3,1.0,1.0,338.0,537.0,1.0,1,935.0,1
449,449,-0.8078092363558702,-0.8,0.0,1.0,398.0,747.0,1.0,0,-855.0,1
450,450,0.39389975620102124,0.4,1.0,1.0,479.0,665.0,0.0,0,-1124.0,0
451,451,0.3331449421210172,0.3,0.0,0.0,351.0,908.0,1.0,0,-269.0,0
452,452,-0.5539359780947095,-0.6,0.0,1.0,438.0,863.0,1.0,0,-371.0,1
453,453,-0.7935864281725815,-0.8,0.0,1.0,371.0,730.0,0.0,1,99.0,0
454,454,0.6585983463508364,0.7,0.0,0.0,463.0,714.0,0.0,1,-977.0,1
455,455,0.69165448721728,0.7,1.0,1.0,412.0,688.0,0.0,0,350.0,0
456,456,0.8448793484647544,0.8,0.0,0.0,360.0,699.0,1.0,0,1941.0,0
457,457,-0.5731227206347025,-0.6,1.0,0.0,466.0,962.0,0.0,0,-438.0,1
458,458,-0.8338265209242307,-0.8,1.0,0.0,483.0,796.0,1.0,1,521.0,0
459,459,0.31527517953537243,0.3,0.0,0.0,448.0,823.0,0.0,1,1729.0,1
460,460,0.7258243541484547,0.7,0.0,0.0,255.0,719.0,1.0,0,616.0,0
461,461,-0.23073151629002508,-0.2,1.0,0.0,303.0,932.0,1.0,1,-325.0,0
462,462,0.7214726383931341,0.7,1.0,1.0,369.0,800.0,0.0,0,81.0,0
463,463,0.4116060669868725,0.4,0.0,0.0,424.0,520.0,0.0,1,46.0,1
464,464,0.8951427284084065,0.9,1.0,1.0,254.0,618.0,1.0,1,248.0,1
465,465,0.5346734766399744,0.5,0.0,0.0,279.0,735.0,0.0,1,1156.0,1
466,466,-0.27807637821472453,-0.3,0.0,1.0,428.0,676.0,1.0,0,876.0,1
467,467,-0.7749832041513094,-0.8,1.0,0.0,374.0,907.0,0.0,0,-321.0,1
468,468,0.839999657073052,0.8,0.0,0.0,483.0,870.0,0.0,1,177.0,1
469,469,0.21518623247532187,0.2,0.0,0.0,366.0,525.0,0.0,1,-571.0,1
470,470,0.7397160770621022,0.7,1.0,1.0,310.0,967.0,1.0,1,-1247.0,1
471,471,0.4435840643565542,0.4,1.0,1.0,309.0,947.0,0.0,0,44.0,0
472,472,-0.24566414200236353,-0.2,0.0,1.0,309.0,517.0,1.0,0,2174.0,1
473,473,0.4226667204455049,0.4,0.0,0.0,409.0,926.0,0.0,1,-1245.0,1
474,474,0.420077231245502,0.4,0.0,0.0,298.0,540.0,0.0,1,-608.0,1
475,475,0.22990368018074514,0.2,1.0,1.0,302.0,817.0,1.0,1,-59.0,1
476,476,-0.04901682431263732,-0.0,1.0,0.0,268.0,913.0,0.0,0,-501.0,1
477,477,-0.8657506475146599,-0.9,0.0,1.0,308.0,857.0,1.0,0,-155.0,1
478,478,-0.5003792188059565,-0.5,0.0,1.0,470.0,719.0,0.0,1,-1109.0,0
479,479,0.5952622807775193,0.6,1.0,1.0,320.0,799.0,1.0,1,1881.0,1
480,480,-0.5115942066073729,-0.5,0.0,1.0,402.0,585.0,0.0,1,563.0,0
481,481,-0.36187439917739894,-0.4,0.0,1.0,384.0,789.0,0.0,1,-1063.0,0
482,482,-0.8646031869327574,-0.9,1.0,0.0,299.0,682.0,0.0,0,2019.0,1
483,483,-0.5529352382166797,-0.6,0.0,1.0,373.0,503.0,0.0,1,-726.0,0
484,484,0.5610145971440096,0.6,0.0,0.0,362.0,826.0,0.0,1,1592.0,1
485,485,0.16258657375665087,0.2,1.0,1.0,418.0,586.0,0.0,0,1466.0,0
486,486,-0.7398076419220312,-0.7,0.0,1.0,364.0,908.0,1.0,0,238.0,1
487,487,0.2606954660899782,0.3,0.0,0.0,486.0,651.0,0.0,1,-147.0,1
488,488,0.014958408065712248,0.0,0.0,0.0,354.0,958.0,1.0,0,-442.0,0
489,489,-0.39216875723014166,-0.4,1.0,0.0,394.0,542.0,1.0,1,-916.0,0
490,490,0.17729721601169157,0.2,1.0,1.0,332.0,711.0,0.0,0,1037.0,0
491,491,-0.6406764142896761,-0.6,1.0,0.0,426.0,749.0,0.0,0,485.0,1
492,492,0.698049826478165,0.7,0.0,0.0,406.0,527.0,0.0,1,237.0,1
493,493,0.23557352498773987,0.2,1.0,1.0,353.0,552.0,1.0,1,-875.0,1
494,494,-0.7513861883129906,-0.8,0.0,1.0,276.0,708.0,0.0,1,-354.0,0
495,495,0.2615613289635762,0.3,0.0,0.0,435.0,946.0,0.0,1,-951.0,1
496,496,-0.5913373315291168,-0.6,0.0,1.0,402.0,847.0,1.0,0,-359.0,1
497,497,-0.8381815932099821,-0.8,1.0,0.0,304.0,894.0,0.0,0,-748.0,1
498,498,-0.19264520685349895,-0.2,1.0,0.0,474.0,653.0,1.0,1,1213.0,0
499,499,-0.26126811483754286,-0.3,1.0,0.0,289.0,715.0,1.0,1,-644.0,0
500,500,0.08844386331566478,0.1,1.0,1.0,284.0,999.0,1.0,1,-1003.0,1
501,501,0.31735680584079284,0.3,0.0,0.0,463.0,575.0,0.0,1,-298.0,1
502,502,0.660704486857041,0.7,0.0,0.0,366.0,948.0,1.0,0,1066.0,0
503,503,0.1099382799589671,0.1,1.0,1.0,256.0,891.0,0.0,0,-837.0,0
504,504,0.478720402566272,0.5,0.0,0.0,266.0,561.0,0.0,1,543.0,1
505,505,0.3562444820491285,0.4,0.0,0.0,370.0,939.0,0.0,1,381.0,1
506,506,-0.22065218171686285,-0.2,1.0,0.0,276.0,953.0,0.0,0,-1219.0,1
507,507,-0.19839961597611966,-0.2,1.0,0.0,333.0,683.0,0.0,0,-486.0,1
508,508,0.27176372545135574,0.3,0.0,0.0,278.0,589.0,1.0,0,-667.0,0
509,509,0.7175597734206393,0.7,1.0,1.0,319.0,520.0,1.0,1,-209.0,1
510,510,-0.8248607647713242,-0.8,0.0,1.0,309.0,562.0,0.0,1,9.0,0
511,511,-0.5798952945408333,-0.6,1.0,0.0,470.0,647.0,1.0,1,-1027.0,0
512,512,0.25845003020488255,0.3,0.0,0.0,464.0,891.0,1.0,0,-1315.0,0
513,513,0.5482693946668157,0.5,1.0,1.0,454.0,736.0,0.0,0,-1100.0,0
514,514,-0.844359363725163,-0.8,1.0,0.0,355.0,817.0,1.0,1,-832.0,0
515,515,0.8138350347116451,0.8,0.0,0.0,320.0,770.0,1.0,0,-130.0,0
516,516,-0.6900955693731519,-0.7,0.0,1.0,465.0,723.0,0.0,1,-658.0,0
517,517,0.5529342282705466,0.6,1.0,1.0,251.0,958.0,1.0,1,-1149.0,1
518,518,-0.2114528722248089,-0.2,1.0,0.0,373.0,952.0,1.0,1,555.0,0
519,519,-0.6047746263580098,-0.6,1.0,0.0,258.0,833.0,1.0,1,-811.0,0
520,520,-0.5112135380935985,-0.5,0.0,1.0,465.0,854.0,0.0,1,1681.0,0
521,521,0.12345235055753301,0.1,0.0,0.0,259.0,550.0,1.0,0,-639.0,0
522,522,-0.24904472129355237,-0.2,1.0,0.0,481.0,595.0,1.0,1,214.0,0
523,523,0.8614305499637994,0.9,0.0,0.0,440.0,584.0,0.0,1,-344.0,1
524,524,-0.3471472854492539,-0.3,1.0,0.0,258.0,594.0,0.0,0,-402.0,1
525,525,-0.6050322340792662,-0.6,1.0,0.0,366.0,593.0,1.0,1,-449.0,0
526,526,-0.029500856172558265,-0.0,0.0,1.0,281.0,860.0,1.0,0,-421.0,1
527,527,0.8461799951892454,0.8,1.0,1.0,337.0,940.0,0.0,0,-677.0,0
528,528,-0.5046204621934625,-0.5,0.0,1.0,342.0,797.0,0.0,1,-749.0,0
529,529,0.7029178916943343,0.7,1.0,1.0,491.0,762.0,0.0,0,-1143.0,0
530,530,-0.4925868495260012,-0.5,0.0,1.0,297.0,713.0,0.0,1,1990.0,0
531,531,-0.7551650931978513,-0.8,1.0,0.0,442.0,564.0,0.0,0,-726.0,1
532,532,-0.4217656684540558,-0.4,1.0,0.0,479.0,824.0,0.0,0,-863.0,1
533,533,0.27250968903576667,0.3,0.0,0.0,355.0,599.0,0.0,1,706.0,1
534,534,0.07771699700064416,0.1,0.0,0.0,479.0,817.0,1.0,0,-766.0,0
535,535,0.8286601705204263,0.8,1.0,1.0,356.0,684.0,0.0,0,790.0,0
536,536,0.20139385919165653,0.2,0.0,0.0,498.0,659.0,1.0,0,1313.0,0
537,537,-0.6643972383111939,-0.7,0.0,1.0,491.0,587.0,0.0,1,942.0,0
538,538,0.6290294116729013,0.6,0.0,0.0,440.0,831.0,1.0,0,619.0,0
539,539,0.7747862890248031,0.8,1.0,1.0,461.0,549.0,0.0,0,-560.0,0
540,540,-0.5162798282754133,-0.5,0.0,1.0,454.0,579.0,1.0,0,-983.0,1
541,541,0.3526153100102082,0.4,1.0,1.0,444.0,815.0,1.0,1,-389.0,1
542,542,0.634734432703259,0.6,1.0,1.0,380.0,813.0,0.0,0,-113.0,0
543,543,-0.24727718037058377,-0.2,1.0,0.0,293.0,761.0,0.0,0,-234.0,1
544,544,0.32444023266879374,0.3,0.0,0.0,366.0,723.0,0.0,1,-799.0,1
545,545,-0.34798308632310837,-0.3,0.0,1.0,338.0,668.0,0.0,1,-846.0,0
546,546,-0.2558242143161755,-0.3,1.0,0.0,294.0,971.0,0.0,0,-165.0,1
547,547,0.03064702841559419,0.0,0.0,0.0,259.0,683.0,0.0,1,-182.0,1
548,548,-0.7372887547477462,-0.7,1.0,0.0,465.0,798.0,0.0,0,-573.0,1
549,549,-0.368179756695447,-0.4,0.0,1.0,425.0,883.0,0.0,1,-128.0,0
550,550,-0.1600784748833456,-0.2,0.0,1.0,324.0,589.0,1.0,0,697.0,1
551,551,-0.43000956912513916,-0.4,0.0,1.0,362.0,709.0,0.0,1,-231.0,0
552,552,0.24839710177014152,0.2,1.0,1.0,492.0,530.0,0.0,0,-22.0,0
553,553,0.6059782074912005,0.6,1.0,1.0,279.0,941.0,0.0,0,1220.0,0
554,554,0.5603363711070445,0.6,1.0,1.0,369.0,643.0,1.0,1,758.0,1
555,555,-0.5462546472643461,-0.5,0.0,1.0,363.0,621.0,1.0,0,586.0,1
556,556,0.15324285831427165,0.2,0.0,0.0,463.0,859.0,0.0,1,-802.0,1
557,557,-0.8770820794425207,-0.9,0.0,1.0,434.0,972.0,0.0,1,-1256.0,0
558,558,-0.1709458654065178,-0.2,1.0,0.0,351.0,606.0,0.0,0,-557.0,1
559,559,-0.7116803549394497,-0.7,0.0,1.0,490.0,732.0,0.0,1,508.0,0
560,560,0.5032214421059814,0.5,0.0,0.0,364.0,774.0,1.0,0,-718.0,0
561,561,-0.31642615206790126,-0.3,1.0,0.0,272.0,592.0,0.0,0,-354.0,1
562,562,0.5138787915504702,0.5,1.0,1.0,286.0,561.0,0.0,0,2153.0,0
563,563,0.34284517461517783,0.3,1.0,1.0,323.0,613.0,0.0,0,-896.0,0
564,564,-0.8175620596429812,-0.8,1.0,0.0,269.0,538.0,0.0,0,263.0,1
565,565,-0.4732913131223889,-0.5,0.0,1.0,257.0,548.0,1.0,0,2195.0,1
566,566,-0.30777974765911076,-0.3,0.0,1.0,450.0,654.0,0.0,1,1426.0,0
567,567,0.7896965239002828,0.8,1.0,1.0,370.0,973.0,0.0,0,-1333.0,0
568,568,-0.8232157732080941,-0.8,0.0,1.0,334.0,854.0,1.0,0,-988.0,1
569,569,0.6425133638965338,0.6,0.0,0.0,498.0,579.0,0.0,1,-1067.0,1
570,570,0.003495600989531278,0.0,1.0,1.0,481.0,911.0,0.0,0,-1342.0,0
571,571,-0.8183040712267503,-0.8,1.0,0.0,318.0,525.0,0.0,0,637.0,1
572,572,0.39284253468796815,0.4,1.0,1.0,372.0,717.0,0.0,0,-399.0,0
573,573,0.10037741354041796,0.1,1.0,1.0,415.0,706.0,0.0,0,-951.0,0
574,574,0.8966416290581879,0.9,0.0,0.0,258.0,905.0,1.0,0,-53.0,0
575,575,0.0985624676550193,0.1,1.0,1.0,288.0,893.0,1.0,1,-1151.0,1
576,576,-0.8103696460576887,-0.8,0.0,1.0,283.0,647.0,0.0,1,-700.0,0
577,577,0.23212562194381559,0.2,0.0,0.0,290.0,650.0,0.0,1,-940.0,1
578,578,-0.053236775897909316,-0.1,1.0,0.0,313.0,537.0,0.0,0,-240.0,1
579,579,0.7139644642610635,0.7,0.0,0.0,422.0,969.0,1.0,0,1329.0,0
580,580,0.025192511559600894,0.0,0.0,0.0,252.0,823.0,1.0,0,1925.0,0
581,581,0.8665792315464868,0.9,1.0,1.0,472.0,899.0,0.0,0,-451.0,0
582,582,0.05604591512160273,0.1,1.0,1.0,299.0,632.0,0.0,0,-811.0,0
583,583,-0.8077859520873149,-0.8,1.0,0.0,468.0,681.0,0.0,0,1851.0,1
584,584,-0.10554819598685439,-0.1,1.0,0.0,259.0,884.0,0.0,0,-1053.0,1
585,585,0.37316695118873533,0.4,1.0,1.0,487.0,780.0,0.0,0,-177.0,0
586,586,-0.8481323057227594,-0.8,1.0,0.0,411.0,543.0,1.0,1,1176.0,0
587,587,-0.2620416316023637,-0.3,0.0,1.0,453.0,704.0,1.0,0,-967.0,1
588,588,-0.24670725715513153,-0.2,1.0,0.0,309.0,929.0,0.0,0,542.0,1
589,589,0.7442313603396812,0.7,0.0,0.0,411.0,971.0,0.0,1,788.0,1
590,590,0.22605755214681122,0.2,1.0,1.0,367.0,838.0,1.0,1,1795.0,1
591,591,0.29685441263718404,0.3,1.0,1.0,301.0,590.0,0.0,0,-791.0,0
592,592,-0.030981779494662187,-0.0,0.0,1.0,451.0,629.0,0.0,1,-680.0,0
593,593,-0.7305997697282357,-0.7,1.0,0.0,301.0,875.0,0.0,0,344.0,1
594,594,-0.2827958256527321,-0.3,1.0,0.0,361.0,655.0,0.0,0,1984.0,1
595,595,-0.008445901257300159,-0.0,0.0,1.0,491.0,882.0,1.0,0,137.0,1
596,596,0.1269469911387494,0.1,1.0,1.0,421.0,925.0,0.0,0,924.0,0
597,597,-0.5076395510707178,-0.5,1.0,0.0,336.0,550.0,0.0,0,-306.0,1
598,598,-0.6858184876559263,-0.7,1.0,0.0,301.0,926.0,1.0,1,-1127.0,0
599,599,-0.6792883462037672,-0.7,0.0,1.0,332.0,885.0,0.0,1,-1037.0,0
600,600,0.3580768468223564,0.4,1.0,1.0,390.0,825.0,1.0,1,1735.0,1
601,601,-0.8026575205332904,-0.8,1.0,0.0,408.0,920.0,1.0,1,1672.0,0
602,602,0.6531564751584068,0.7,0.0,0.0,497.0,611.0,1.0,0,1602.0,0
603,603,0.01211683363814331,0.0,1.0,1.0,274.0,526.0,0.0,0,-730.0,0
604,604,0.25204642757684115,0.3,1.0,1.0,491.0,821.0,0.0,0,-1142.0,0
605,605,0.7340580128770383,0.7,0.0,0.0,319.0,534.0,0.0,1,-233.0,1
606,606,0.07104806298115207,0.1,0.0,0.0,355.0,869.0,0.0,1,-164.0,1
607,607,-0.8914124228708646,-0.9,1.0,0.0,469.0,754.0,0.0,0,837.0,1
608,608,0.613554658150813,0.6,1.0,1.0,337.0,862.0,0.0,0,-499.0,0
609,609,-0.5161647165230963,-0.5,1.0,0.0,368.0,595.0,0.0,0,2037.0,1
610,610,-0.29689234168014456,-0.3,1.0,0.0,293.0,851.0,0.0,0,-304.0,1
611,611,-0.8242374164469682,-0.8,1.0,0.0,495.0,692.0,0.0,0,-667.0,1
612,612,-0.22080866117930287,-0.2,1.0,0.0,455.0,979.0,1.0,1,-144.0,0
613,613,-0.1328331776602688,-0.1,1.0,0.0,446.0,834.0,0.0,0,-720.0,1
614,614,-0.053529489842025324,-0.1,1.0,0.0,305.0,569.0,0.0,0,-854.0,1
615,615,0.16633196361642455,0.2,1.0,1.0,275.0,643.0,1.0,1,582.0,1
616,616,-0.22526061237632355,-0.2,0.0,1.0,353.0,617.0,0.0,1,-790.0,0
617,617,-0.01796198160812612,-0.0,1.0,0.0,424.0,673.0,1.0,1,-697.0,0
618,618,0.8122055211636213,0.8,1.0,1.0,252.0,560.0,1.0,1,-652.0,1
619,619,-0.5325708274734142,-0.5,0.0,1.0,394.0,754.0,1.0,0,-598.0,1
620,620,0.7245156954541904,0.7,1.0,1.0,324.0,919.0,0.0,0,-1203.0,0
621,621,-0.2586540951056929,-0.3,0.0,1.0,464.0,846.0,0.0,1,-680.0,0
622,622,0.35147338128186567,0.4,0.0,0.0,441.0,654.0,0.0,1,215.0,1
623,623,0.052117839870009064,0.1,1.0,1.0,495.0,768.0,1.0,1,657.0,1
624,624,0.3966333282444944,0.4,0.0,0.0,260.0,904.0,0.0,1,1486.0,1
625,625,-0.8040888625391589,-0.8,0.0,1.0,400.0,873.0,1.0,0,1537.0,1
626,626,0.2940079387127251,0.3,1.0,1.0,466.0,595.0,0.0,0,539.0,0
627,627,-0.35336422116923716,-0.4,1.0,0.0,454.0,763.0,1.0,1,-1057.0,0
628,628,-0.25715683493110786,-0.3,0.0,1.0,463.0,847.0,1.0,0,1150.0,1
629,629,0.6551739066023078,0.7,0.0,0.0,290.0,807.0,1.0,0,33.0,0
630,630,-0.07031312005758683,-0.1,0.0,1.0,390.0,602.0,0.0,1,-962.0,0
631,631,-0.0556780019021661,-0.1,1.0,0.0,295.0,663.0,1.0,1,222.0,0
632,632,-0.4573506198045515,-0.5,0.0,1.0,473.0,650.0,0.0,1,817.0,0
633,633,0.370823593619524,0.4,0.0,0.0,326.0,629.0,0.0,1,935.0,1
634,634,-0.11133954169905258,-0.1,1.0,0.0,412.0,865.0,1.0,1,-167.0,0
635,635,0.23026892628924467,0.2,1.0,1.0,257.0,820.0,1.0,1,-197.0,1
636,636,-0.3895275644581092,-0.4,0.0,1.0,328.0,897.0,1.0,0,-775.0,1
637,637,0.08471022296562736,0.1,1.0,1.0,416.0,726.0,1.0,1,-1012.0,1
638,638,-0.4247938782546649,-0.4,0.0,1.0,293.0,632.0,0.0,1,-345.0,0
639,639,-0.720283451136899,-0.7,1.0,0.0,253.0,969.0,1.0,1,-1202.0,0
640,640,-0.2540102147669182,-0.3,1.0,0.0,264.0,559.0,0.0,0,17.0,1
641,641,0.10826494254939278,0.1,0.0,0.0,413.0,930.0,0.0,1,-463.0,1
642,642,-0.558449341408215,-0.6,1.0,0.0,458.0,711.0,1.0,1,-749.0,0
643,643,0.8318820812601379,0.8,1.0,1.0,334.0,807.0,1.0,1,-981.0,1
644,644,-0.37545543461455844,-0.4,1.0,0.0,250.0,734.0,1.0,1,-644.0,0
645,645,0.17797998846542928,0.2,1.0,1.0,327.0,552.0,0.0,0,-409.0,0
646,646,0.08503664480232909,0.1,1.0,1.0,484.0,909.0,1.0,1,787.0,1
647,647,0.5709407503444935,0.6,1.0,1.0,257.0,661.0,1.0,1,42.0,1
648,648,0.099445581998022,0.1,0.0,0.0,400.0,826.0,1.0,0,894.0,0
649,649,0.36575527431428856,0.4,0.0,0.0,374.0,782.0,0.0,1,-766.0,1
650,650,-0.8203617752255984,-0.8,0.0,1.0,423.0,563.0,0.0,1,314.0,0
651,651,0.27858861447026173,0.3,0.0,0.0,458.0,677.0,1.0,0,-755.0,0
652,652,0.3093433866611722,0.3,0.0,0.0,300.0,671.0,0.0,1,319.0,1
653,653,0.8756875659466613,0.9,0.0,0.0,375.0,887.0,0.0,1,-942.0,1
654,654,0.402073042559112,0.4,0.0,0.0,440.0,789.0,1.0,0,-699.0,0
655,655,-0.3362951465763774,-0.3,1.0,0.0,445.0,723.0,0.0,0,-528.0,1
656,656,0.13123013869717826,0.1,1.0,1.0,480.0,922.0,1.0,1,468.0,1
657,657,0.4495498781289712,0.4,0.0,0.0,330.0,821.0,1.0,0,-721.0,0
658,658,0.7507007670496474,0.8,1.0,1.0,289.0,682.0,0.0,0,449.0,0
659,659,-0.07678453679821973,-0.1,1.0,0.0,382.0,653.0,0.0,0,-975.0,1
660,660,0.4491699202726923,0.4,1.0,1.0,430.0,917.0,0.0,0,-937.0,0
661,661,0.5406106672921441,0.5,0.0,0.0,400.0,720.0,0.0,1,-620.0,1
662,662,-0.2722356581123665,-0.3,1.0,0.0,455.0,863.0,1.0,1,-68.0,0
663,663,-0.6102063456327658,-0.6,0.0,1.0,265.0,783.0,0.0,1,-1008.0,0
664,664,0.28447353640533823,0.3,1.0,1.0,467.0,520.0,0.0,0,-887.0,0
665,665,-0.6635847030519854,-0.7,1.0,0.0,329.0,684.0,1.0,1,-363.0,0
666,666,0.07905824508694448,0.1,1.0,1.0,457.0,525.0,1.0,1,-982.0,1
667,667,0.159508073338675,0.2,1.0,1.0,306.0,928.0,1.0,1,266.0,1
668,668,0.7606518799137149,0.8,1.0,1.0,451.0,525.0,1.0,1,-156.0,1
669,669,-0.07369505693540357,-0.1,0.0,1.0,358.0,682.0,0.0,1,-410.0,0
670,670,0.039825940534069515,0.0,1.0,1.0,473.0,879.0,0.0,0,-212.0,0
671,671,-0.15942590149852132,-0.2,1.0,0.0,397.0,580.0,1.0,1,-557.0,0
672,672,-0.04068061276102186,-0.0,1.0,0.0,489.0,720.0,1.0,1,-1179.0,0
673,673,0.19189426324518066,0.2,1.0,1.0,269.0,656.0,1.0,1,635.0,1
674,674,-0.06741316494188909,-0.1,0.0,1.0,325.0,506.0,1.0,0,-231.0,1
675,675,-0.6335552663038457,-0.6,0.0,1.0,451.0,936.0,1.0,0,-1127.0,1
676,676,-0.042263264678327195,-0.0,1.0,0.0,410.0,792.0,0.0,0,-772.0,1
677,677,0.1606401194490802,0.2,1.0,1.0,273.0,818.0,0.0,0,-611.0,0
678,678,0.8105783085121238,0.8,1.0,1.0,289.0,660.0,0.0,0,-569.0,0
679,679,-0.24583026209669168,-0.2,1.0,0.0,299.0,933.0,1.0,1,-892.0,0
680,680,-0.44110208713994453,-0.4,1.0,0.0,301.0,948.0,0.0,0,-1109.0,1
681,681,-0.5392846310914807,-0.5,1.0,0.0,281.0,514.0,1.0,1,325.0,0
682,682,0.8180613251677714,0.8,0.0,0.0,387.0,558.0,0.0,1,335.0,1
683,683,0.14198182124864844,0.1,0.0,0.0,453.0,534.0,0.0,1,1383.0,1
684,684,-0.2708149253850719,-0.3,1.0,0.0,399.0,524.0,0.0,0,-733.0,1
685,685,0.896324063525424,0.9,0.0,0.0,485.0,952.0,1.0,0,-527.0,0
686,686,-0.5867078456690689,-0.6,0.0,1.0,432.0,765.0,0.0,1,-937.0,0
687,687,0.7541023481629557,0.8,0.0,0.0,455.0,831.0,1.0,0,1024.0,0
688,688,-0.2747831060917586,-0.3,0.0,1.0,455.0,694.0,0.0,1,1011.0,0
689,689,0.535575385525137,0.5,1.0,1.0,469.0,521.0,1.0,1,2010.0,1
690,690,0.48827975201905194,0.5,0.0,0.0,487.0,899.0,0.0,1,-1066.0,1
691,691,0.7749667629214684,0.8,1.0,1.0,408.0,594.0,0.0,0,-952.0,0
692,692,-0.5071917333614038,-0.5,1.0,0.0,346.0,528.0,1.0,1,796.0,0
693,693,-0.7583827849096604,-0.8,0.0,1.0,444.0,811.0,0.0,1,1245.0,0
694,694,0.7122429798246547,0.7,0.0,0.0,436.0,860.0,1.0,0,-1216.0,0
695,695,-0.15250702900486424,-0.2,0.0,1.0,300.0,574.0,0.0,1,-794.0,0
696,696,0.383220774787829,0.4,1.0,1.0,446.0,774.0,0.0,0,380.0,0
697,697,0.03420191059759414,0.0,0.0,0.0,353.0,801.0,1.0,0,-974.0,0
698,698,0.11979281097880701,0.1,1.0,1.0,288.0,993.0,1.0,1,1719.0,1
699,699,-0.22388899458448663,-0.2,1.0,0.0,389.0,881.0,1.0,1,340.0,0
700,700,-0.3986751516325696,-0.4,1.0,0.0,266.0,537.0,1.0,1,-283.0,0
701,701,0.3719025927363292,0.4,1.0,1.0,498.0,814.0,1.0,1,1118.0,1
702,702,0.01986405158168958,0.0,1.0,1.0,388.0,662.0,1.0,1,-500.0,1
703,703,-0.418638363424391,-0.4,1.0,0.0,430.0,613.0,0.0,0,107.0,1
704,704,0.666432910005235,0.7,0.0,0.0,257.0,534.0,1.0,0,-341.0,0
705,705,0.1964753173071242,0.2,1.0,1.0,428.0,582.0,0.0,0,1990.0,0
706,706,-0.2695529878066961,-0.3,1.0,0.0,390.0,518.0,0.0,0,92.0,1
707,707,-0.22955451202556276,-0.2,0.0,1.0,253.0,623.0,1.0,0,-866.0,1
708,708,-0.6550709514151996,-0.7,1.0,0.0,303.0,947.0,0.0,0,-1250.0,1
709,709,0.4212964365066564,0.4,1.0,1.0,479.0,903.0,0.0,0,-362.0,0
710,710,-0.6414475241978761,-0.6,0.0,1.0,262.0,924.0,0.0,1,1504.0,0
711,711,-0.5744783202647903,-0.6,0.0,1.0,256.0,936.0,1.0,0,-1022.0,1
712,712,-0.0842267801875648,-0.1,1.0,0.0,333.0,800.0,0.0,0,-943.0,1
713,713,-0.33105013346066325,-0.3,1.0,0.0,255.0,916.0,0.0,0,9.0,1
714,714,0.09193807560050027,0.1,1.0,1.0,453.0,652.0,1.0,1,-285.0,1
715,715,-0.7347838688565315,-0.7,1.0,0.0,464.0,556.0,1.0,1,-970.0,0
716,716,-0.12427736490629604,-0.1,0.0,1.0,385.0,849.0,0.0,1,1766.0,0
717,717,-0.4151972099790983,-0.4,0.0,1.0,400.0,977.0,0.0,1,-237.0,0
718,718,-0.2543212668531404,-0.3,1.0,0.0,345.0,760.0,0.0,0,385.0,1
719,719,0.4680242018208153,0.5,0.0,0.0,319.0,817.0,0.0,1,1864.0,1
720,720,-0.4947498074107399,-0.5,0.0,1.0,283.0,852.0,1.0,0,1165.0,1
721,721,-0.7634357679378905,-0.8,0.0,1.0,488.0,699.0,1.0,0,-687.0,1
722,722,0.45417717728601514,0.5,1.0,1.0,489.0,620.0,0.0,0,1191.0,0
723,723,-0.027238512768956835,-0.0,1.0,0.0,315.0,628.0,0.0,0,327.0,1
724,724,0.5207947750992273,0.5,1.0,1.0,315.0,660.0,1.0,1,235.0,1
725,725,0.5642010531300904,0.6,1.0,1.0,449.0,990.0,0.0,0,-919.0,0
726,726,-0.22955761295045352,-0.2,1.0,0.0,415.0,789.0,0.0,0,-1174.0,1
727,727,-0.3612783830128665,-0.4,0.0,1.0,462.0,725.0,1.0,0,613.0,1
728,728,-0.658433780750259,-0.7,0.0,1.0,252.0,680.0,1.0,0,-302.0,1
729,729,0.8119392605440431,0.8,0.0,0.0,410.0,590.0,1.0,0,980.0,0
730,730,-0.8161343209467558,-0.8,0.0,1.0,259.0,763.0,0.0,1,-582.0,0
731,731,0.5373023336975847,0.5,0.0,0.0,343.0,578.0,1.0,0,1039.0,0
732,732,0.6058369556023143,0.6,1.0,1.0,381.0,810.0,1.0,1,1339.0,1
733,733,0.08126728043273845,0.1,1.0,1.0,331.0,538.0,0.0,0,-809.0,0
734,734,-0.1439330887692598,-0.1,0.0,1.0,483.0,899.0,0.0,1,-972.0,0
735,735,-0.2223645243453155,-0.2,0.0,1.0,386.0,755.0,0.0,1,-1061.0,0
736,736,0.28520851471386,0.3,0.0,0.0,418.0,951.0,1.0,0,-559.0,0
737,737,-0.5414753903961947,-0.5,0.0,1.0,356.0,609.0,1.0,0,565.0,1
738,738,0.7535890442709109,0.8,0.0,0.0,352.0,838.0,1.0,0,-840.0,0
739,739,0.5117575193086091,0.5,1.0,1.0,476.0,902.0,1.0,1,272.0,1
740,740,0.16395556409487877,0.2,1.0,1.0,432.0,526.0,1.0,1,-148.0,1
741,741,-0.028091935712505456,-0.0,1.0,0.0,464.0,666.0,0.0,0,-1050.0,1
742,742,0.4687328310474156,0.5,1.0,1.0,351.0,542.0,1.0,1,697.0,1
743,743,0.7566289957029616,0.8,1.0,1.0,333.0,769.0,1.0,1,1528.0,1
744,744,0.5109842341573424,0.5,1.0,1.0,293.0,677.0,0.0,0,-690.0,0
745,745,-0.6073810976046781,-0.6,0.0,1.0,411.0,935.0,1.0,0,-816.0,1
746,746,-0.6862838274635059,-0.7,0.0,1.0,374.0,658.0,0.0,1,-82.0,0
747,747,0.615538540995583,0.6,1.0,1.0,255.0,559.0,1.0,1,1906.0,1
748,748,0.5644695746486089,0.6,1.0,1.0,335.0,995.0,1.0,1,-1290.0,1
749,749,0.333338242939072,0.3,1.0,1.0,496.0,511.0,1.0,1,823.0,1
750,750,-0.8587900808731428,-0.9,0.0,1.0,282.0,748.0,1.0,0,-510.0,1
751,751,-0.6415381242087519,-0.6,0.0,1.0,375.0,634.0,1.0,0,-439.0,1
752,752,-0.6003121704698935,-0.6,1.0,0.0,488.0,954.0,0.0,0,-732.0,1
753,753,0.17950683400373235,0.2,1.0,1.0,275.0,752.0,1.0,1,-7.0,1
754,754,0.01203806500532989,0.0,0.0,0.0,449.0,624.0,0.0,1,-233.0,1
755,755,0.5006611726396796,0.5,0.0,0.0,349.0,639.0,1.0,0,312.0,0
756,756,0.11414894473832227,0.1,0.0,0.0,394.0,571.0,0.0,1,-435.0,1
757,757,-0.10644562988311079,-0.1,1.0,0.0,423.0,691.0,0.0,0,1886.0,1
758,758,-0.5679465369575545,-0.6,0.0,1.0,486.0,998.0,0.0,1,-1464.0,0
759,759,0.7739713563908331,0.8,1.0,1.0,316.0,920.0,0.0,0,-46.0,0
760,760,0.4189534598168424,0.4,1.0,1.0,415.0,839.0,0.0,0,-904.0,0
761,761,-0.07577132058027514,-0.1,1.0,0.0,292.0,835.0,0.0,0,-557.0,1
762,762,0.44830183666927603,0.4,0.0,0.0,460.0,589.0,1.0,0,-259.0,0
763,763,-0.367071487912092,-0.4,0.0,1.0,407.0,578.0,1.0,0,2015.0,1
764,764,0.6958144060774035,0.7,1.0,1.0,339.0,648.0,0.0,0,-617.0,0
765,765,-0.17974968112627787,-0.2,0.0,1.0,362.0,984.0,1.0,0,-156.0,1
766,766,0.28330599590788974,0.3,1.0,1.0,356.0,991.0,0.0,0,533.0,0
767,767,-0.6138857257225105,-0.6,1.0,0.0,288.0,650.0,0.0,0,-508.0,1
768,768,-0.5967819066796818,-0.6,1.0,0.0,345.0,719.0,1.0,1,-594.0,0
769,769,0.04562952764995365,0.0,1.0,1.0,449.0,635.0,1.0,1,-1084.0,1
770,770,-0.503879338631863,-0.5,0.0,1.0,343.0,621.0,1.0,0,236.0,1
771,771,0.7915057283437114,0.8,0.0,0.0,365.0,762.0,1.0,0,-247.0,0
772,772,-0.24793248797526435,-0.2,0.0,1.0,288.0,768.0,0.0,1,-1036.0,0
773,773,0.5749202587665082,0.6,0.0,0.0,303.0,611.0,1.0,0,266.0,0
774,774,0.3854303062956187,0.4,1.0,1.0,346.0,583.0,1.0,1,21.0,1
775,775,-0.6651134930155028,-0.7,1.0,0.0,252.0,645.0,1.0,1,-717.0,0
776,776,0.7923039897285625,0.8,1.0,1.0,490.0,665.0,0.0,0,1275.0,0
777,777,0.19193224354666427,0.2,0.0,0.0,424.0,882.0,1.0,0,-1186.0,0
778,778,0.5832132420464743,0.6,1.0,1.0,447.0,678.0,0.0,0,-645.0,0
779,779,-0.7930057236242576,-0.8,0.0,1.0,272.0,886.0,1.0,0,-488.0,1
780,780,-0.6694233931359355,-0.7,0.0,1.0,359.0,661.0,0.0,1,-110.0,0
781,781,-0.8600486840089704,-0.9,1.0,0.0,363.0,930.0,0.0,0,-333.0,1
782,782,0.043692772933854984,0.0,1.0,1.0,363.0,786.0,0.0,0,31.0,0
783,783,0.8280486545868685,0.8,1.0,1.0,475.0,515.0,1.0,1,-190.0,1
784,784,-0.12234033247009857,-0.1,0.0,1.0,410.0,927.0,1.0,0,433.0,1
785,785,-0.16374400890962537,-0.2,0.0,1.0,277.0,768.0,0.0,1,-915.0,0
786,786,0.5071873780407848,0.5,0.0,0.0,384.0,543.0,0.0,1,43.0,1
787,787,-0.2810634557784776,-0.3,0.0,1.0,489.0,593.0,1.0,0,-562.0,1
788,788,-0.5517570966925316,-0.6,1.0,0.0,282.0,692.0,0.0,0,-144.0,1
789,789,-0.16012110502790855,-0.2,1.0,0.0,369.0,696.0,0.0,0,-65.0,1
790,790,0.48613823214552665,0.5,1.0,1.0,365.0,807.0,0.0,0,-912.0,0
791,791,0.25167584052127323,0.3,1.0,1.0,388.0,873.0,1.0,1,-441.0,1
792,792,-0.47389269916740123,-0.5,1.0,0.0,329.0,582.0,0.0,0,-701.0,1
793,793,-0.8939499300580791,-0.9,0.0,1.0,384.0,769.0,1.0,0,-543.0,1
794,794,0.4358410062766337,0.4,0.0,0.0,276.0,621.0,1.0,0,1053.0,0
795,795,0.4411501685404623,0.4,0.0,0.0,370.0,782.0,1.0,0,-12.0,0
796,796,-0.5275523042487991,-0.5,0.0,1.0,270.0,857.0,0.0,1,-1127.0,0
797,797,0.3728627646903603,0.4,0.0,0.0,263.0,718.0,0.0,1,-961.0,1
798,798,-0.6134284899965569,-0.6,0.0,1.0,311.0,521.0,1.0,0,-132.0,1
799,799,0.7343773468514755,0.7,1.0,1.0,387.0,698.0,1.0,1,-555.0,1
800,800,0.2982768656996114,0.3,0.0,0.0,259.0,595.0,1.0,0,766.0,0
801,801,-0.0103968393758882,-0.0,1.0,0.0,349.0,744.0,1.0,1,-593.0,0
802,802,0.5713141061458572,0.6,0.0,0.0,478.0,928.0,1.0,0,-1026.0,0
803,803,-0.09553020683553948,-0.1,1.0,0.0,442.0,922.0,1.0,1,-1354.0,0
804,804,0.1273459403042313,0.1,0.0,0.0,434.0,613.0,1.0,0,-87.0,0
805,805,0.29867306326823007,0.3,1.0,1.0,413.0,636.0,1.0,1,-879.0,1
806,806,-0.7847019341709942,-0.8,0.0,1.0,432.0,992.0,0.0,1,-984.0,0
807,807,0.2348288633318264,0.2,1.0,1.0,352.0,909.0,0.0,0,-251.0,0
808,808,0.896349041355425,0.9,0.0,0.0,363.0,643.0,0.0,1,-306.0,1
809,809,-0.5747961997943517,-0.6,1.0,0.0,432.0,513.0,0.0,0,-155.0,1
810,810,-0.6859994150948616,-0.7,1.0,0.0,371.0,502.0,0.0,0,207.0,1
811,811,0.17174107858089316,0.2,0.0,0.0,421.0,572.0,1.0,0,2007.0,0
812,812,-0.08927015717668074,-0.1,1.0,0.0,366.0,993.0,0.0,0,-1089.0,1
813,813,0.18989715918001926,0.2,1.0,1.0,383.0,581.0,1.0,1,756.0,1
814,814,-0.5236564681762019,-0.5,1.0,0.0,487.0,990.0,1.0,1,-1007.0,0
815,815,-0.11312139936815724,-0.1,1.0,0.0,289.0,614.0,0.0,0,2097.0,1
816,816,-0.6024769170709514,-0.6,1.0,0.0,283.0,538.0,1.0,1,609.0,0
817,817,-0.13902986388343475,-0.1,0.0,1.0,459.0,954.0,0.0,1,-783.0,0
818,818,-0.12635631818682191,-0.1,0.0,1.0,360.0,748.0,1.0,0,82.0,1
819,819,0.4806782424749486,0.5,0.0,0.0,437.0,616.0,0.0,1,447.0,1
820,820,0.29976313524297893,0.3,1.0,1.0,254.0,892.0,1.0,1,-1026.0,1
821,821,0.12722798242814892,0.1,0.0,0.0,486.0,617.0,0.0,1,337.0,1
822,822,-0.2763500392258964,-0.3,0.0,1.0,329.0,580.0,1.0,0,-809.0,1
823,823,0.8410733919778802,0.8,1.0,1.0,280.0,532.0,0.0,0,-532.0,0
824,824,0.12612001343855506,0.1,1.0,1.0,313.0,565.0,1.0,1,-668.0,1
825,825,0.7750218744878904,0.8,0.0,0.0,430.0,843.0,0.0,1,-943.0,1
826,826,0.0230686562840573,0.0,1.0,1.0,445.0,678.0,1.0,1,1037.0,1
827,827,-0.7943570280824246,-0.8,1.0,0.0,357.0,729.0,0.0,0,-966.0,1
828,828,-0.6384743359111666,-0.6,0.0,1.0,399.0,808.0,0.0,1,-1187.0,0
829,829,0.4166287109795762,0.4,0.0,0.0,472.0,741.0,1.0,0,577.0,0
830,830,-0.34995643950881605,-0.3,0.0,1.0,461.0,551.0,1.0,0,1988.0,1
831,831,0.6345048359380682,0.6,1.0,1.0,445.0,899.0,1.0,1,-434.0,1
832,832,-0.5745645808728131,-0.6,1.0,0.0,452.0,626.0,0.0,0,-228.0,1
833,833,0.8028505998737961,0.8,0.0,0.0,257.0,647.0,1.0,0,-634.0,0
834,834,0.06170067564721149,0.1,0.0,0.0,298.0,516.0,0.0,1,-264.0,1
835,835,-0.47793906843428,-0.5,0.0,1.0,316.0,568.0,1.0,0,-44.0,1
836,836,-0.851104036643949,-0.9,0.0,1.0,482.0,593.0,0.0,1,-595.0,0
837,837,0.48794522824370634,0.5,1.0,1.0,263.0,744.0,1.0,1,893.0,1
838,838,0.46306919309967987,0.5,0.0,0.0,356.0,733.0,0.0,1,-999.0,1
839,839,-0.8323023857463538,-0.8,0.0,1.0,367.0,588.0,1.0,0,2045.0,1
840,840,0.6783171677751217,0.7,0.0,0.0,255.0,590.0,0.0,1,95.0,1
841,841,-0.36061794838787076,-0.4,1.0,0.0,270.0,794.0,1.0,1,-954.0,0
842,842,0.3759251070519297,0.4,0.0,0.0,433.0,892.0,1.0,0,1675.0,0
843,843,0.08114021745735034,0.1,1.0,1.0,402.0,670.0,1.0,1,58.0,1
844,844,-0.7961569154504164,-0.8,1.0,0.0,351.0,997.0,0.0,0,742.0,1
845,845,0.7181065190021177,0.7,1.0,1.0,473.0,515.0,1.0,1,212.0,1
846,846,-0.34281291631489164,-0.3,1.0,0.0,448.0,614.0,0.0,0,-102.0,1
847,847,-0.8328529122928561,-0.8,1.0,0.0,472.0,985.0,0.0,0,-1447.0,1
848,848,-0.7519620377012823,-0.8,1.0,0.0,378.0,529.0,0.0,0,-287.0,1
849,849,0.08273792362210342,0.1,0.0,0.0,485.0,640.0,1.0,0,-915.0,0
850,850,-0.2534250061192681,-0.3,0.0,1.0,369.0,872.0,0.0,1,9.0,0
851,851,-0.07370867975535689,-0.1,1.0,0.0,431.0,966.0,0.0,0,673.0,1
852,852,0.4150229400554811,0.4,0.0,0.0,295.0,606.0,1.0,0,949.0,0
853,853,0.5030290067372544,0.5,1.0,1.0,497.0,940.0,1.0,1,-1197.0,1
854,854,0.5712775422300923,0.6,0.0,0.0,264.0,540.0,1.0,0,-374.0,0
855,855,-0.4778663752171087,-0.5,0.0,1.0,477.0,504.0,1.0,0,1359.0,1
856,856,0.7106189016847456,0.7,1.0,1.0,414.0,583.0,1.0,1,-877.0,1
857,857,-0.15117750447574496,-0.2,0.0,1.0,303.0,657.0,1.0,0,-780.0,1
858,858,-0.047118505608411465,-0.0,0.0,1.0,490.0,659.0,0.0,1,-509.0,0
859,859,0.03686030146564967,0.0,1.0,1.0,420.0,593.0,1.0,1,-1013.0,1
860,860,0.26763123220692375,0.3,1.0,1.0,459.0,875.0,0.0,0,-1194.0,0
861,861,0.17074242089109914,0.2,1.0,1.0,413.0,616.0,1.0,1,971.0,1
862,862,-0.8693998203685682,-0.9,1.0,0.0,415.0,853.0,0.0,0,-1098.0,1
863,863,0.22125836152153944,0.2,1.0,1.0,427.0,811.0,0.0,0,-988.0,0
864,864,0.3058242049905363,0.3,1.0,1.0,464.0,856.0,0.0,0,-1210.0,0
865,865,0.23837723653281884,0.2,1.0,1.0,337.0,658.0,1.0,1,815.0,1
866,866,0.029817885968317026,0.0,1.0,1.0,365.0,797.0,0.0,0,-732.0,0
867,867,0.7124907666762813,0.7,1.0,1.0,325.0,706.0,1.0,1,-541.0,1
868,868,0.4512293770938486,0.5,0.0,0.0,328.0,835.0,0.0,1,187.0,1
869,869,-0.1363826804241396,-0.1,0.0,1.0,476.0,526.0,1.0,0,-862.0,1
870,870,0.8021953141135417,0.8,0.0,0.0,444.0,533.0,1.0,0,1933.0,0
871,871,0.8553103096785301,0.9,1.0,1.0,444.0,706.0,0.0,0,-510.0,0
872,872,0.5178719404672422,0.5,0.0,0.0,418.0,542.0,1.0,0,1500.0,0
873,873,0.599004024679683,0.6,1.0,1.0,470.0,642.0,1.0,1,428.0,1
874,874,0.17292388572782136,0.2,1.0,1.0,295.0,773.0,0.0,0,-608.0,0
875,875,-0.17085961817155837,-0.2,1.0,0.0,456.0,713.0,0.0,0,-1019.0,1
876,876,-0.19835466985466543,-0.2,1.0,0.0,267.0,793.0,0.0,0,-810.0,1
877,877,0.8250237799427528,0.8,1.0,1.0,474.0,582.0,0.0,0,-996.0,0
878,878,0.670633829396449,0.7,1.0,1.0,452.0,586.0,0.0,0,-748.0,0
879,879,-0.6787431285560503,-0.7,0.0,1.0,348.0,506.0,0.0,1,-334.0,0
880,880,-0.7920883435677334,-0.8,0.0,1.0,392.0,873.0,0.0,1,-315.0,0
881,881,-0.12329094367183946,-0.1,0.0,1.0,483.0,953.0,1.0,0,664.0,1
882,882,0.7364540102045875,0.7,1.0,1.0,455.0,712.0,1.0,1,-27.0,1
883,883,-0.8583910551691215,-0.9,0.0,1.0,457.0,636.0,0.0,1,1907.0,0
884,884,-0.7431791452557992,-0.7,0.0,1.0,252.0,768.0,0.0,1,-570.0,0
885,885,0.2906704248637254,0.3,1.0,1.0,396.0,545.0,1.0,1,-351.0,1
886,886,0.4847834697928225,0.5,0.0,0.0,461.0,894.0,0.0,1,1645.0,1
887,887,0.5609548959714453,0.6,0.0,0.0,380.0,985.0,1.0,0,-725.0,0
888,888,-0.12586360055480728,-0.1,1.0,0.0,463.0,998.0,1.0,1,759.0,0
889,889,0.3058072783530682,0.3,0.0,0.0,269.0,507.0,1.0,0,-726.0,0
890,890,-0.30342390529272534,-0.3,1.0,0.0,324.0,782.0,0.0,0,-766.0,1
891,891,0.2620287927753989,0.3,1.0,1.0,306.0,527.0,0.0,0,-203.0,0
892,892,-0.643950384870315,-0.6,0.0,1.0,488.0,821.0,0.0,1,-649.0,0
893,893,0.4047565555886413,0.4,0.0,0.0,438.0,849.0,1.0,0,-757.0,0
894,894,0.5509153087763009,0.6,0.0,0.0,383.0,506.0,0.0,1,1981.0,1
895,895,0.16982459750480927,0.2,0.0,0.0,429.0,857.0,1.0,0,-96.0,0
896,896,-0.2707119012036132,-0.3,1.0,0.0,265.0,653.0,1.0,1,1932.0,0
897,897,0.8566405542016554,0.9,1.0,1.0,330.0,693.0,1.0,1,-813.0,1
898,898,-0.567618645030525,-0.6,0.0,1.0,390.0,820.0,0.0,1,-710.0,0
899,899,0.2262588968878222,0.2,0.0,0.0,378.0,910.0,1.0,0,-1238.0,0
900,900,-0.04902954877288901,-0.0,0.0,1.0,285.0,600.0,1.0,0,-865.0,1
901,901,-0.6504252469878261,-0.7,1.0,0.0,349.0,795.0,0.0,0,-854.0,1
902,902,0.6111595420558605,0.6,1.0,1.0,316.0,671.0,0.0,0,-187.0,0
903,903,-0.705160640403913,-0.7,1.0,0.0,299.0,669.0,1.0,1,-488.0,0
904,904,0.5819162499480476,0.6,1.0,1.0,273.0,914.0,0.0,0,403.0,0
905,905,0.8809949096818895,0.9,0.0,0.0,407.0,891.0,0.0,1,82.0,1
906,906,0.5607782688834501,0.6,0.0,0.0,304.0,747.0,0.0,1,-411.0,1
907,907,-0.4772352046206278,-0.5,0.0,1.0,299.0,735.0,0.0,1,-934.0,0
908,908,0.2887108020865362,0.3,1.0,1.0,432.0,648.0,1.0,1,950.0,1
909,909,-0.4107014081115773,-0.4,1.0,0.0,387.0,714.0,0.0,0,1899.0,1
910,910,0.8556060420927493,0.9,0.0,0.0,428.0,797.0,1.0,0,5.0,0
911,911,0.05362243207040318,0.1,1.0,1.0,377.0,869.0,0.0,0,-976.0,0
912,912,-0.6876508807556891,-0.7,1.0,0.0,293.0,972.0,0.0,0,-455.0,1
913,913,0.8308411985243181,0.8,1.0,1.0,321.0,672.0,0.0,0,-303.0,0
914,914,-0.40273643433443673,-0.4,0.0,1.0,280.0,673.0,0.0,1,677.0,0
915,915,0.70308930210821,0.7,0.0,0.0,420.0,542.0,0.0,1,1148.0,1
916,916,0.2043371136455311,0.2,1.0,1.0,359.0,691.0,0.0,0,-110.0,0
917,917,-0.17325599569411054,-0.2,1.0,0.0,492.0,976.0,1.0,1,-1238.0,0
918,918,-0.054573910400528725,-0.1,1.0,0.0,430.0,757.0,0.0,0,1813.0,1
919,919,0.0030978943423832783,0.0,0.0,0.0,498.0,604.0,0.0,1,-432.0,1
920,920,-0.5316685968778644,-0.5,1.0,0.0,357.0,795.0,1.0,1,-1002.0,0
921,921,0.36082688824049447,0.4,0.0,0.0,408.0,698.0,1.0,0,-546.0,0
922,922,-0.4482796066103227,-0.4,1.0,0.0,348.0,697.0,0.0,0,-765.0,1
923,923,0.6285706064720183,0.6,1.0,1.0,270.0,631.0,0.0,0,-631.0,0
924,924,0.5363474568180756,0.5,0.0,0.0,302.0,863.0,0.0,1,-1085.0,1
925,925,-0.6186585571950587,-0.6,0.0,1.0,365.0,733.0,1.0,0,-508.0,1
926,926,0.4627595345027279,0.5,0.0,0.0,296.0,873.0,1.0,0,81.0,0
927,927,-0.4413373902094969,-0.4,0.0,1.0,389.0,678.0,1.0,0,1933.0,1
928,928,-0.014414417945973312,-0.0,1.0,0.0,310.0,881.0,0.0,0,559.0,1
929,929,0.3992439876305497,0.4,0.0,0.0,327.0,619.0,0.0,1,-876.0,1
930,930,0.7154111374486548,0.7,1.0,1.0,493.0,991.0,0.0,0,-1154.0,0
931,931,-0.8994790017695841,-0.9,0.0,1.0,294.0,844.0,1.0,0,-1088.0,1
932,932,0.6338228993161056,0.6,1.0,1.0,376.0,650.0,1.0,1,-996.0,1
933,933,-0.6678816249367449,-0.7,1.0,0.0,445.0,657.0,0.0,0,-172.0,1
934,934,-0.2926145544475478,-0.3,0.0,1.0,262.0,989.0,0.0,1,-1081.0,0
935,935,-0.07620918898429185,-0.1,0.0,1.0,332.0,621.0,0.0,1,217.0,0
936,936,-0.2749735489791929,-0.3,0.0,1.0,251.0,967.0,0.0,1,-328.0,0
937,937,0.6296445744474252,0.6,1.0,1.0,495.0,853.0,1.0,1,92.0,1
938,938,-0.46612554671953815,-0.5,0.0,1.0,482.0,577.0,1.0,0,-419.0,1
939,939,0.4043739725409844,0.4,1.0,1.0,433.0,623.0,0.0,0,434.0,0
940,940,0.16204517044242117,0.2,1.0,1.0,348.0,824.0,1.0,1,238.0,1
941,941,0.05684774272498583,0.1,1.0,1.0,392.0,929.0,1.0,1,1399.0,1
942,942,-0.2292510068666369,-0.2,0.0,1.0,422.0,633.0,1.0,0,315.0,1
943,943,0.6257029287153012,0.6,1.0,1.0,478.0,700.0,1.0,1,-488.0,1
944,944,0.2766001838165465,0.3,0.0,0.0,279.0,935.0,1.0,0,-844.0,0
945,945,-0.6053325194456238,-0.6,1.0,0.0,385.0,973.0,1.0,1,-28.0,0
946,946,0.8671230305620116,0.9,0.0,0.0,261.0,635.0,0.0,1,24.0,1
947,947,0.46177850893478045,0.5,1.0,1.0,310.0,737.0,0.0,0,-497.0,0
948,948,0.5165408968923831,0.5,1.0,1.0,402.0,815.0,0.0,0,23.0,0
949,949,0.467263391955124,0.5,0.0,0.0,376.0,745.0,1.0,0,179.0,0
950,950,-0.07120466093665923,-0.1,1.0,0.0,462.0,703.0,0.0,0,-1005.0,1
951,951,-0.5103921655044071,-0.5,1.0,0.0,484.0,575.0,1.0,1,-859.0,0
952,952,-0.5812479825430767,-0.6,0.0,1.0,482.0,727.0,0.0,1,-59.0,0
953,953,0.6456262780011287,0.6,1.0,1.0,338.0,701.0,0.0,0,-449.0,0
954,954,0.11172542555838139,0.1,0.0,0.0,262.0,515.0,0.0,1,1333.0,1
955,955,0.6644947713222961,0.7,0.0,0.0,422.0,584.0,0.0,1,1074.0,1
956,956,-0.8012932890735064,-0.8,0.0,1.0,285.0,973.0,0.0,1,62.0,0
957,957,0.46959866510348147,0.5,1.0,1.0,367.0,698.0,1.0,1,-15.0,1
958,958,0.7402929514105187,0.7,1.0,1.0,293.0,779.0,1.0,1,1138.0,1
959,959,-0.7638224332434801,-0.8,1.0,0.0,324.0,638.0,0.0,0,-42.0,1
960,960,-0.47879198537389367,-0.5,1.0,0.0,374.0,568.0,0.0,0,-402.0,1
961,961,0.08269860627522363,0.1,0.0,0.0,322.0,982.0,1.0,0,-844.0,0
962,962,0.1711338364951801,0.2,0.0,0.0,422.0,911.0,1.0,0,-133.0,0
963,963,-0.8446482253186944,-0.8,0.0,1.0,315.0,718.0,0.0,1,-803.0,0
964,964,-0.7888829146941865,-0.8,0.0,1.0,282.0,747.0,1.0,0,-639.0,1
965,965,0.6781540437779171,0.7,0.0,0.0,487.0,970.0,1.0,0,-987.0,0
966,966,0.597029813348101,0.6,0.0,0.0,428.0,979.0,1.0,0,1593.0,0
967,967,-0.8518671197777012,-0.9,1.0,0.0,467.0,875.0,1.0,1,-1252.0,0
968,968,-0.570571762233851,-0.6,1.0,0.0,404.0,804.0,1.0,1,-888.0,0
969,969,0.6777551310754432,0.7,1.0,1.0,316.0,900.0,1.0,1,304.0,1
970,970,-0.4298193256718448,-0.4,0.0,1.0,498.0,881.0,0.0,1,-1209.0,0
971,971,0.13307249860714088,0.1,1.0,1.0,367.0,748.0,0.0,0,-1015.0,0
972,972,-0.27093225632169204,-0.3,1.0,0.0,280.0,562.0,0.0,0,-502.0,1
973,973,0.6465587109426575,0.6,1.0,1.0,280.0,886.0,0.0,0,174.0,0
974,974,0.21624505727048626,0.2,1.0,1.0,448.0,979.0,1.0,1,383.0,1
975,975,-0.27044917244012734,-0.3,1.0,0.0,460.0,945.0,1.0,1,335.0,0
976,976,0.827597605367386,0.8,0.0,0.0,331.0,641.0,1.0,0,1248.0,0
977,977,-0.4541218034572138,-0.5,1.0,0.0,466.0,828.0,0.0,0,-1254.0,1
978,978,0.8882689909350409,0.9,1.0,1.0,447.0,881.0,0.0,0,-228.0,0
979,979,0.3920765962030427,0.4,1.0,1.0,352.0,773.0,0.0,0,815.0,0
980,980,0.09983372637078003,0.1,0.0,0.0,349.0,687.0,0.0,1,-836.0,1
981,981,-0.17336635131876899,-0.2,0.0,1.0,389.0,783.0,0.0,1,1638.0,0
982,982,0.7823199380147784,0.8,0.0,0.0,476.0,608.0,0.0,1,426.0,1
983,983,0.670819124576073,0.7,0.0,0.0,289.0,726.0,1.0,0,-995.0,0
984,984,-0.5173969046395733,-0.5,1.0,0.0,274.0,962.0,1.0,1,-166.0,0
985,985,0.8954652214483009,0.9,1.0,1.0,409.0,654.0,1.0,1,487.0,1
986,986,0.191882752746931,0.2,1.0,1.0,408.0,811.0,1.0,1,-1199.0,1
987,987,0.5910252347095942,0.6,1.0,1.0,435.0,824.0,0.0,0,-709.0,0
988,988,-0.03165240165406935,-0.0,1.0,0.0,401.0,945.0,0.0,0,-1146.0,1
989,989,-0.41133575306812337,-0.4,1.0,0.0,497.0,573.0,0.0,0,-980.0,1
990,990,0.3617993312651494,0.4,0.0,0.0,487.0,844.0,1.0,0,-881.0,0
991,991,0.6667177499671332,0.7,0.0,0.0,466.0,580.0,1.0,0,-366.0,0
992,992,0.31619733628663893,0.3,0.0,0.0,270.0,827.0,1.0,0,-457.0,0
993,993,-0.3087994374894937,-0.3,1.0,0.0,390.0,633.0,1.0,1,-793.0,0
994,994,-0.7200137944306391,-0.7,1.0,0.0,419.0,879.0,0.0,0,532.0,1
995,995,-0.35825941305205167,-0.4,1.0,0.0,323.0,863.0,1.0,1,-1106.0,0
996,996,-0.2067745684277018,-0.2,1.0,0.0,475.0,752.0,1.0,1,-937.0,0
997,997,0.37531535294230023,0.4,1.0,1.0,266.0,776.0,0.0,0,158.0,0
998,998,0.4072269361493369,0.4,0.0,0.0,414.0,964.0,1.0,0,192.0,0
999,999,-0.4026642514081759,-0.4,0.0,1.0,315.0,669.0,0.0,1,-904.0,0
1000,1000,-0.23225189496302878,-0.2,0.0,1.0,323.0,920.0,1.0,0,-683.0,1
1001,1001,-0.43111958307095094,-0.4,0.0,1.0,430.0,526.0,1.0,0,-756.0,1
1002,1002,0.5315933147241964,0.5,1.0,1.0,406.0,730.0,1.0,1,1604.0,1
1003,1003,0.6304396062037728,0.6,1.0,1.0,458.0,844.0,1.0,1,1148.0,1
1004,1004,0.7559994808709195,0.8,0.0,0.0,417.0,852.0,1.0,0,-1229.0,0
1005,1005,0.6077680903267096,0.6,0.0,0.0,390.0,665.0,0.0,1,-465.0,1
1006,1006,0.8338879487300196,0.8,0.0,0.0,431.0,719.0,1.0,0,-190.0,0
1007,1007,-0.1915070769930457,-0.2,1.0,0.0,495.0,906.0,1.0,1,1099.0,0
1008,1008,-0.4051993603426268,-0.4,0.0,1.0,305.0,541.0,1.0,0,-526.0,1
1009,1009,-0.67097876237154,-0.7,0.0,1.0,343.0,967.0,1.0,0,460.0,1
1010,1010,0.1928387774690007,0.2,1.0,1.0,372.0,910.0,0.0,0,-272.0,0
1011,1011,-0.3235091703708297,-0.3,0.0,1.0,480.0,545.0,0.0,1,-465.0,0
1012,1012,0.29895167095847996,0.3,1.0,1.0,485.0,902.0,1.0,1,-327.0,1
1013,1013,0.04360358302873013,0.0,0.0,0.0,314.0,563.0,1.0,0,873.0,0
1014,1014,0.8047127839494982,0.8,0.0,0.0,346.0,647.0,0.0,1,-773.0,1
1015,1015,-0.672508515109191,-0.7,1.0,0.0,458.0,510.0,1.0,1,-338.0,0
1016,1016,0.13617424080598017,0.1,1.0,1.0,389.0,898.0,0.0,0,-717.0,0
1017,1017,0.08731392566011587,0.1,1.0,1.0,370.0,551.0,0.0,0,-131.0,0
1018,1018,0.2585926640334252,0.3,1.0,1.0,493.0,738.0,0.0,0,-961.0,0
1019,1019,0.026401580313485162,0.0,0.0,0.0,342.0,859.0,1.0,0,-1191.0,0
1020,1020,0.05971938728390047,0.1,1.0,1.0,455.0,901.0,1.0,1,-996.0,1
1021,1021,0.22038168610361308,0.2,0.0,0.0,400.0,934.0,1.0,0,86.0,0
1022,1022,0.234900321233524,0.2,0.0,0.0,293.0,969.0,0.0,1,-1122.0,1
1023,1023,-0.8538320132418228,-0.9,1.0,0.0,304.0,889.0,1.0,1,-83.0,0
1024,1024,0.014690368217815108,0.0,0.0,0.0,391.0,902.0,1.0,0,-1293.0,0
1025,1025,0.5890477773697788,0.6,1.0,1.0,427.0,819.0,1.0,1,-846.0,1
1026,1026,0.6320461613045293,0.6,1.0,1.0,268.0,555.0,0.0,0,1517.0,0
1027,1027,-0.4961325029313404,-0.5,1.0,0.0,279.0,722.0,0.0,0,-631.0,1
1028,1028,0.6664474120469625,0.7,1.0,1.0,321.0,948.0,1.0,1,1731.0,1
1029,1029,0.1598393383039004,0.2,1.0,1.0,440.0,590.0,0.0,0,-1020.0,0
1030,1030,-0.11941165507429397,-0.1,0.0,1.0,358.0,759.0,1.0,0,-967.0,1
1031,1031,0.29630331970577306,0.3,1.0,1.0,466.0,884.0,1.0,1,-190.0,1
1032,1032,-0.17657144069816066,-0.2,0.0,1.0,348.0,552.0,1.0,0,350.0,1
1033,1033,0.25334335671700325,0.3,1.0,1.0,401.0,895.0,0.0,0,364.0,0
1034,1034,0.16868052421674584,0.2,1.0,1.0,458.0,687.0,0.0,0,-475.0,0
1035,1035,0.22820272684070553,0.2,0.0,0.0,387.0,601.0,0.0,1,412.0,1
1036,1036,0.4158803569391497,0.4,1.0,1.0,276.0,604.0,1.0,1,-420.0,1
1037,1037,-0.8380098718737612,-0.8,0.0,1.0,280.0,661.0,0.0,1,589.0,0
1038,1038,-0.013969275848242035,-0.0,0.0,1.0,251.0,844.0,0.0,1,-605.0,0
1039,1039,0.49041567112740847,0.5,1.0,1.0,267.0,890.0,0.0,0,-97.0,0
1040,1040,-0.65968928713466,-0.7,1.0,0.0,481.0,545.0,1.0,1,-326.0,0
1041,1041,-0.17101310896717814,-0.2,1.0,0.0,275.0,630.0,0.0,0,1405.0,1
1042,1042,0.703868139084827,0.7,0.0,0.0,429.0,529.0,0.0,1,1092.0,1
1043,1043,0.4788554152212957,0.5,1.0,1.0,481.0,648.0,0.0,0,-679.0,0
1044,1044,0.4693859124703651,0.5,0.0,0.0,286.0,568.0,0.0,1,-154.0,1
1045,1045,0.7766602839452811,0.8,0.0,0.0,463.0,713.0,0.0,1,-996.0,1
1046,1046,0.08864004029458705,0.1,0.0,0.0,250.0,845.0,1.0,0,-915.0,0
1047,1047,0.6663350212461084,0.7,0.0,0.0,386.0,563.0,0.0,1,-929.0,1
1048,1048,0.656227215191799,0.7,0.0,0.0,314.0,814.0,0.0,1,-788.0,1
1049,1049,-0.6503240947498616,-0.7,0.0,1.0,323.0,677.0,0.0,1,340.0,0
1050,1050,0.8877308153888329,0.9,0.0,0.0,422.0,801.0,1.0,0,1187.0,0
1051,1051,-0.006965118285552241,-0.0,1.0,0.0,354.0,848.0,0.0,0,1798.0,1
1052,1052,0.175368964122827,0.2,0.0,0.0,358.0,957.0,1.0,0,-185.0,0
1053,1053,-0.5153484152931563,-0.5,0.0,1.0,483.0,817.0,0.0,1,750.0,0
1054,1054,-0.8202040112804087,-0.8,0.0,1.0,449.0,808.0,1.0,0,263.0,1
1055,1055,0.6082098603744971,0.6,0.0,0.0,408.0,649.0,0.0,1,-727.0,1
1056,1056,0.679049574969138,0.7,1.0,1.0,411.0,923.0,0.0,0,-174.0,0
1057,1057,0.7543359698102224,0.8,1.0,1.0,297.0,956.0,0.0,0,-903.0,0
1058,1058,-0.6416895284584776,-0.6,0.0,1.0,259.0,823.0,0.0,1,1128.0,0
1059,1059,-0.6164585332533432,-0.6,0.0,1.0,413.0,835.0,1.0,0,442.0,1
1060,1060,-0.625569008903388,-0.6,1.0,0.0,329.0,765.0,1.0,1,-494.0,0
1061,1061,0.5702173750903793,0.6,1.0,1.0,382.0,932.0,0.0,0,916.0,0
1062,1062,0.44862611222289195,0.4,0.0,0.0,321.0,500.0,0.0,1,-751.0,1
1063,1063,0.45359573473155745,0.5,1.0,1.0,263.0,574.0,0.0,0,-747.0,0
1064,1064,-0.17915900342205227,-0.2,0.0,1.0,377.0,788.0,1.0,0,215.0,1
1065,1065,0.0011806734639960847,0.0,0.0,0.0,468.0,635.0,0.0,1,-1073.0,1
1066,1066,0.1479842047663219,0.1,1.0,1.0,330.0,539.0,1.0,1,-809.0,1
1067,1067,0.6915947908967283,0.7,0.0,0.0,381.0,688.0,1.0,0,-449.0,0
1068,1068,-0.560438377133262,-0.6,1.0,0.0,372.0,628.0,0.0,0,-920.0,1
1069,1069,0.2529920524279575,0.3,0.0,0.0,331.0,736.0,0.0,1,23.0,1
1070,1070,-0.7193374686931374,-0.7,1.0,0.0,408.0,642.0,0.0,0,1030.0,1
1071,1071,0.17991832723577728,0.2,1.0,1.0,499.0,969.0,0.0,0,-708.0,0
1072,1072,0.48685215692675066,0.5,0.0,0.0,371.0,876.0,0.0,1,623.0,1
1073,1073,0.732440046658635,0.7,1.0,1.0,351.0,711.0,0.0,0,-912.0,0
1074,1074,-0.8311998057981731,-0.8,1.0,0.0,323.0,725.0,0.0,0,232.0,1
1075,1075,-0.7711459382364717,-0.8,1.0,0.0,385.0,874.0,0.0,0,1741.0,1
1076,1076,-0.07816747427657367,-0.1,0.0,1.0,495.0,772.0,1.0,0,623.0,1
1077,1077,-0.8356979420046795,-0.8,1.0,0.0,380.0,614.0,0.0,0,536.0,1
1078,1078,-0.465597385016895,-0.5,1.0,0.0,411.0,745.0,0.0,0,-96.0,1
1079,1079,0.4355141034807887,0.4,0.0,0.0,331.0,597.0,1.0,0,-748.0,0
1080,1080,0.822550434140107,0.8,1.0,1.0,407.0,665.0,0.0,0,668.0,0
1081,1081,-0.6905465126962003,-0.7,0.0,1.0,253.0,749.0,1.0,0,768.0,1
1082,1082,0.6041149726338838,0.6,1.0,1.0,258.0,904.0,0.0,0,-262.0,0
1083,1083,-0.8778364813215789,-0.9,1.0,0.0,435.0,709.0,0.0,0,876.0,1
1084,1084,0.70070249352863,0.7,0.0,0.0,340.0,628.0,1.0,0,1192.0,0
1085,1085,0.363450653712884,0.4,0.0,0.0,448.0,785.0,0.0,1,-1003.0,1
1086,1086,0.23578145356154512,0.2,0.0,0.0,397.0,976.0,0.0,1,-1183.0,1
1087,1087,-0.27549991960515374,-0.3,0.0,1.0,268.0,511.0,1.0,0,871.0,1
1088,1088,0.29298463001142994,0.3,0.0,0.0,418.0,686.0,1.0,0,-594.0,0
1089,1089,-0.11335946026056609,-0.1,0.0,1.0,397.0,596.0,0.0,1,2007.0,0
1090,1090,0.05773659273354681,0.1,1.0,1.0,343.0,951.0,0.0,0,-124.0,0
1091,1091,0.17692859911581993,0.2,1.0,1.0,280.0,865.0,0.0,0,855.0,0
1092,1092,-0.2399470873752001,-0.2,0.0,1.0,499.0,561.0,0.0,1,690.0,0
1093,1093,0.8922509010730711,0.9,0.0,0.0,313.0,926.0,1.0,0,331.0,0
1094,1094,0.2236763448587381,0.2,0.0,0.0,333.0,836.0,1.0,0,-1129.0,0
1095,1095,0.7553659206801245,0.8,1.0,1.0,432.0,523.0,1.0,1,-285.0,1
1096,1096,-0.7746759281855963,-0.8,0.0,1.0,326.0,925.0,0.0,1,1749.0,0
1097,1097,0.19953741646436607,0.2,1.0,1.0,392.0,559.0,1.0,1,849.0,1
1098,1098,0.5011024723686269,0.5,1.0,1.0,454.0,573.0,0.0,0,-717.0,0
1099,1099,0.6220479067205252,0.6,0.0,0.0,499.0,868.0,1.0,0,1633.0,0
1100,1100,-0.5785365581096531,-0.6,0.0,1.0,282.0,906.0,0.0,1,1412.0,0
1101,1101,-0.7111844447923342,-0.7,0.0,1.0,333.0,821.0,0.0,1,-1074.0,0
1102,1102,0.27449694272110825,0.3,1.0,1.0,396.0,853.0,0.0,0,-1039.0,0
1103,1103,-0.3010521746532998,-0.3,1.0,0.0,459.0,749.0,0.0,0,92.0,1
1104,1104,-0.6186845190537629,-0.6,0.0,1.0,366.0,921.0,0.0,1,-1057.0,0
1105,1105,-0.07857912443110127,-0.1,1.0,0.0,499.0,746.0,0.0,0,1135.0,1
1106,1106,0.456864342733483,0.5,0.0,0.0,349.0,510.0,1.0,0,-569.0,0
1107,1107,-0.32452617395030214,-0.3,1.0,0.0,433.0,994.0,0.0,0,-937.0,1
1108,1108,-0.6937406320855006,-0.7,1.0,0.0,425.0,769.0,1.0,1,-684.0,0
1109,1109,0.7704542838688481,0.8,0.0,0.0,439.0,940.0,1.0,0,201.0,0
1110,1110,0.11091954013897498,0.1,0.0,0.0,256.0,776.0,1.0,0,348.0,0
1111,1111,0.2744217815137481,0.3,1.0,1.0,309.0,918.0,0.0,0,283.0,0
1112,1112,-0.4947963165565455,-0.5,1.0,0.0,399.0,709.0,1.0,1,-918.0,0
1113,1113,-0.39848757280869695,-0.4,0.0,1.0,277.0,963.0,0.0,1,-60.0,0
1114,1114,0.34733165784131803,0.3,1.0,1.0,485.0,821.0,0.0,0,1694.0,0
1115,1115,0.047116231391902796,0.0,0.0,0.0,338.0,589.0,1.0,0,-757.0,0
1116,1116,0.44100146422278097,0.4,0.0,0.0,441.0,772.0,0.0,1,-1193.0,1
1117,1117,0.23013232069464828,0.2,1.0,1.0,308.0,874.0,0.0,0,-1022.0,0
1118,1118,-0.21901059186339522,-0.2,1.0,0.0,367.0,956.0,0.0,0,-433.0,1
1119,1119,0.443755828619384,0.4,1.0,1.0,274.0,913.0,0.0,0,1813.0,0
1120,1120,0.05406255608485644,0.1,0.0,0.0,291.0,543.0,0.0,1,-354.0,1
1121,1121,-0.15142711645464357,-0.2,1.0,0.0,453.0,603.0,0.0,0,1334.0,1
1122,1122,0.5823053940764825,0.6,0.0,0.0,426.0,634.0,1.0,0,-140.0,0
1123,1123,0.45702662336741084,0.5,0.0,0.0,493.0,538.0,0.0,1,349.0,1
1124,1124,-0.2104914177206919,-0.2,1.0,0.0,425.0,825.0,0.0,0,-410.0,1
1125,1125,0.6829568493753485,0.7,0.0,0.0,453.0,827.0,0.0,1,-1160.0,1
1126,1126,-0.35063523691840426,-0.4,1.0,0.0,423.0,806.0,0.0,0,-179.0,1
1127,1127,0.8964028492080639,0.9,0.0,0.0,365.0,777.0,1.0,0,-1112.0,0
1128,1128,0.7670296967265376,0.8,1.0,1.0,383.0,529.0,0.0,0,-692.0,0
1129,1129,0.17222744065753492,0.2,1.0,1.0,408.0,956.0,0.0,0,426.0,0
1130,1130,-0.5546551133950584,-0.6,0.0,1.0,474.0,754.0,0.0,1,-538.0,0
1131,1131,0.3313714440284675,0.3,1.0,1.0,390.0,769.0,1.0,1,-459.0,1
1132,1132,-0.7094896508382093,-0.7,1.0,0.0,419.0,654.0,0.0,0,-943.0,1
1133,1133,-0.8461949892450701,-0.8,1.0,0.0,430.0,840.0,0.0,0,970.0,1
1134,1134,0.2542301365490175,0.3,0.0,0.0,321.0,935.0,0.0,1,-336.0,1
1135,1135,0.15251218320977922,0.2,1.0,1.0,316.0,766.0,0.0,0,928.0,0
1136,1136,0.16709308800762435,0.2,1.0,1.0,425.0,718.0,1.0,1,1157.0,1
1137,1137,0.07384748458588264,0.1,0.0,0.0,304.0,888.0,1.0,0,-1122.0,0
1138,1138,-0.2004122773909448,-0.2,0.0,1.0,450.0,688.0,0.0,1,32.0,0
1139,1139,0.5394651087593986,0.5,1.0,1.0,420.0,550.0,0.0,0,120.0,0
1140,1140,0.27684982431307514,0.3,0.0,0.0,330.0,855.0,0.0,1,95.0,1
1141,1141,0.6630704462483011,0.7,1.0,1.0,337.0,671.0,1.0,1,-88.0,1
1142,1142,-0.8217059678384449,-0.8,0.0,1.0,313.0,588.0,1.0,0,-261.0,1
1143,1143,0.7673549404073313,0.8,1.0,1.0,378.0,519.0,0.0,0,-367.0,0
1144,1144,-0.710357936540414,-0.7,1.0,0.0,424.0,536.0,1.0,1,1380.0,0
1145,1145,0.840744330623658,0.8,1.0,1.0,276.0,533.0,0.0,0,2191.0,0
1146,1146,-0.41074449674742225,-0.4,0.0,1.0,427.0,910.0,0.0,1,-637.0,0
1147,1147,0.37640623334057366,0.4,0.0,0.0,294.0,964.0,0.0,1,-548.0,1
1148,1148,-0.0489022506116511,-0.0,1.0,0.0,385.0,546.0,1.0,1,-861.0,0
1149,1149,-0.11212983196093051,-0.1,0.0,1.0,445.0,782.0,0.0,1,-1037.0,0
1150,1150,-0.6474635502716857,-0.6,1.0,0.0,262.0,797.0,0.0,0,-699.0,1
1151,1151,-0.8608607864447912,-0.9,1.0,0.0,269.0,800.0,0.0,0,1551.0,1
1152,1152,-0.6943429823087558,-0.7,1.0,0.0,423.0,805.0,1.0,1,-988.0,0
1153,1153,-0.14052259245318943,-0.1,1.0,0.0,280.0,777.0,0.0,0,-817.0,1
1154,1154,-0.29716947744444,-0.3,1.0,0.0,275.0,830.0,0.0,0,1535.0,1
1155,1155,0.8308558689706916,0.8,0.0,0.0,262.0,644.0,0.0,1,2094.0,1
1156,1156,-0.8209792164501833,-0.8,1.0,0.0,404.0,507.0,0.0,0,-521.0,1
1157,1157,-0.5226344499264777,-0.5,0.0,1.0,274.0,894.0,1.0,0,-418.0,1
1158,1158,0.8817028580389695,0.9,1.0,1.0,289.0,883.0,1.0,1,458.0,1
1159,1159,0.7403515472283732,0.7,1.0,1.0,264.0,532.0,0.0,0,584.0,0
1160,1160,-0.1947550285508004,-0.2,1.0,0.0,479.0,909.0,1.0,1,-1378.0,0
1161,1161,0.2173580775475702,0.2,0.0,0.0,277.0,531.0,1.0,0,762.0,0
1162,1162,-0.2602128433483121,-0.3,0.0,1.0,361.0,593.0,1.0,0,436.0,1
1163,1163,0.42497905056609053,0.4,0.0,0.0,358.0,699.0,1.0,0,1483.0,0
1164,1164,-0.7640166204076347,-0.8,0.0,1.0,334.0,920.0,1.0,0,-984.0,1
1165,1165,-0.2015483370746256,-0.2,0.0,1.0,261.0,875.0,0.0,1,-566.0,0
1166,1166,0.5546083360510782,0.6,1.0,1.0,393.0,541.0,1.0,1,986.0,1
1167,1167,-0.8683237655059106,-0.9,0.0,1.0,432.0,982.0,1.0,0,-1364.0,1
1168,1168,0.21959417516726376,0.2,0.0,0.0,397.0,891.0,0.0,1,-588.0,1
1169,1169,0.5346043566022242,0.5,1.0,1.0,366.0,926.0,1.0,1,-572.0,1
1170,1170,-0.49645261426800363,-0.5,1.0,0.0,495.0,620.0,0.0,0,1885.0,1
1171,1171,0.4463924382319494,0.4,0.0,0.0,465.0,871.0,1.0,0,-1336.0,0
1172,1172,0.26347026824628494,0.3,0.0,0.0,309.0,635.0,0.0,1,2056.0,1
1173,1173,-0.651809186124905,-0.7,1.0,0.0,312.0,821.0,0.0,0,787.0,1
1174,1174,0.8105591632871944,0.8,1.0,1.0,462.0,660.0,0.0,0,908.0,0
1175,1175,-0.1771904630455544,-0.2,0.0,1.0,449.0,541.0,1.0,0,-320.0,1
1176,1176,-0.7413079922235695,-0.7,1.0,0.0,405.0,918.0,1.0,1,567.0,0
1177,1177,0.6179502377325842,0.6,0.0,0.0,360.0,601.0,1.0,0,-561.0,0
1178,1178,-0.16000471020784723,-0.2,1.0,0.0,373.0,767.0,1.0,1,-960.0,0
1179,1179,0.24082921869183183,0.2,0.0,0.0,371.0,607.0,1.0,0,-718.0,0
1180,1180,-0.1360839721720023,-0.1,0.0,1.0,467.0,964.0,0.0,1,599.0,0
1181,1181,-0.5648669384000715,-0.6,1.0,0.0,286.0,631.0,1.0,1,283.0,0
1182,1182,0.13252108203242263,0.1,1.0,1.0,304.0,509.0,1.0,1,2187.0,1
1183,1183,-0.8071213640298447,-0.8,0.0,1.0,319.0,520.0,1.0,0,981.0,1
1184,1184,-0.43886265887976994,-0.4,1.0,0.0,319.0,660.0,0.0,0,-669.0,1
1185,1185,-0.12658285261636304,-0.1,0.0,1.0,455.0,696.0,1.0,0,439.0,1
1186,1186,-0.25876993091021694,-0.3,0.0,1.0,373.0,662.0,0.0,1,-235.0,0
1187,1187,-0.1949307843314001,-0.2,1.0,0.0,285.0,580.0,1.0,1,-565.0,0
1188,1188,0.715381238846941,0.7,1.0,1.0,329.0,670.0,0.0,0,2001.0,0
1189,1189,-0.4150442971362928,-0.4,0.0,1.0,339.0,768.0,0.0,1,-877.0,0
1190,1190,0.5353199795829165,0.5,0.0,0.0,449.0,736.0,1.0,0,-1125.0,0
1191,1191,0.3376103118834829,0.3,1.0,1.0,380.0,736.0,0.0,0,-1026.0,0
1192,1192,0.5581012797461978,0.6,1.0,1.0,471.0,597.0,1.0,1,1932.0,1
1193,1193,-0.8703604142901419,-0.9,1.0,0.0,274.0,817.0,0.0,0,-261.0,1
1194,1194,-0.34738494147437105,-0.3,1.0,0.0,467.0,754.0,0.0,0,-921.0,1
1195,1195,0.33034639502637575,0.3,1.0,1.0,499.0,680.0,0.0,0,-49.0,0
1196,1196,-0.5089968383265275,-0.5,1.0,0.0,258.0,974.0,0.0,0,-1232.0,1
1197,1197,-0.5868852966721254,-0.6,1.0,0.0,490.0,685.0,0.0,0,-165.0,1
1198,1198,-0.3186815114070535,-0.3,0.0,1.0,392.0,732.0,0.0,1,1596.0,0
1199,1199,0.8321378074520668,0.8,0.0,0.0,417.0,713.0,1.0,0,-380.0,0
1200,1200,0.22195623487537863,0.2,0.0,0.0,494.0,808.0,1.0,0,-1042.0,0
1201,1201,-0.22455906087686406,-0.2,0.0,1.0,299.0,962.0,0.0,1,-361.0,0
1202,1202,0.7754263038722232,0.8,1.0,1.0,330.0,834.0,1.0,1,-74.0,1
1203,1203,0.24143772520946227,0.2,0.0,0.0,450.0,842.0,0.0,1,108.0,1
1204,1204,-0.3184525052475049,-0.3,0.0,1.0,363.0,766.0,0.0,1,821.0,0
1205,1205,-0.014588553320128761,-0.0,0.0,1.0,475.0,752.0,1.0,0,-1127.0,1
1206,1206,-0.465165636524714,-0.5,1.0,0.0,360.0,543.0,1.0,1,-563.0,0
1207,1207,-0.4462411825085962,-0.4,1.0,0.0,296.0,780.0,0.0,0,864.0,1
1208,1208,0.4786858180591277,0.5,0.0,0.0,286.0,926.0,0.0,1,188.0,1
1209,1209,0.36280904245270695,0.4,1.0,1.0,281.0,745.0,0.0,0,484.0,0
1210,1210,-0.7342204802562027,-0.7,0.0,1.0,441.0,866.0,1.0,0,-777.0,1
1211,1211,-0.11305182727547991,-0.1,1.0,0.0,336.0,679.0,0.0,0,5.0,1
1212,1212,-0.5724524455797689,-0.6,0.0,1.0,362.0,696.0,0.0,1,-958.0,0
1213,1213,0.18269344961548206,0.2,1.0,1.0,275.0,675.0,1.0,1,560.0,1
1214,1214,-0.04562117140428723,-0.0,0.0,1.0,406.0,881.0,0.0,1,-497.0,0
1215,1215,-0.03518698076977367,-0.0,1.0,0.0,260.0,614.0,1.0,1,-4.0,0
1216,1216,-0.7527385590409876,-0.8,1.0,0.0,368.0,717.0,1.0,1,1915.0,0
1217,1217,-0.6074461700891498,-0.6,1.0,0.0,477.0,512.0,0.0,0,691.0,1
1218,1218,0.8082976372482628,0.8,0.0,0.0,413.0,885.0,1.0,0,-1198.0,0
1219,1219,-0.26190841014620436,-0.3,1.0,0.0,461.0,682.0,0.0,0,-1043.0,1
1220,1220,-0.19911598439954836,-0.2,1.0,0.0,444.0,725.0,0.0,0,-339.0,1
1221,1221,0.47455699352954495,0.5,1.0,1.0,473.0,868.0,1.0,1,1659.0,1
1222,1222,0.624061225067677,0.6,0.0,0.0,383.0,572.0,0.0,1,-935.0,1
1223,1223,-0.4235736655984405,-0.4,1.0,0.0,437.0,947.0,1.0,1,536.0,0
1224,1224,0.845810363076216,0.8,1.0,1.0,398.0,940.0,0.0,0,-68.0,0
1225,1225,0.5016973146173177,0.5,0.0,0.0,276.0,634.0,1.0,0,-890.0,0
1226,1226,0.8852862793597857,0.9,1.0,1.0,462.0,500.0,0.0,0,808.0,0
1227,1227,0.5538055444096804,0.6,1.0,1.0,267.0,991.0,0.0,0,-358.0,0
1228,1228,0.6603410521073977,0.7,1.0,1.0,452.0,895.0,1.0,1,1103.0,1
1229,1229,0.15309082483006764,0.2,0.0,0.0,348.0,908.0,0.0,1,-1236.0,1
1230,1230,-0.6075148547469188,-0.6,1.0,0.0,296.0,876.0,0.0,0,228.0,1
1231,1231,0.4193114496505407,0.4,1.0,1.0,486.0,796.0,1.0,1,-1012.0,1
1232,1232,0.7340546193615923,0.7,0.0,0.0,415.0,899.0,0.0,1,186.0,1
1233,1233,-0.2826154663415056,-0.3,1.0,0.0,344.0,523.0,1.0,1,1843.0,0
1234,1234,0.4393710526379101,0.4,1.0,1.0,303.0,561.0,1.0,1,-864.0,1
1235,1235,0.40385312684621677,0.4,1.0,1.0,473.0,596.0,0.0,0,981.0,0
1236,1236,-0.5940791119800545,-0.6,1.0,0.0,358.0,707.0,1.0,1,-1055.0,0
1237,1237,0.6183957723608081,0.6,0.0,0.0,253.0,817.0,0.0,1,-250.0,1
1238,1238,-0.5383164436032741,-0.5,1.0,0.0,492.0,701.0,0.0,0,-763.0,1
1239,1239,-0.7993900577273843,-0.8,0.0,1.0,496.0,963.0,1.0,0,371.0,1
1240,1240,0.5301310275191006,0.5,0.0,0.0,368.0,528.0,0.0,1,-476.0,1
1241,1241,0.14114736834396735,0.1,1.0,1.0,394.0,981.0,0.0,0,-125.0,0
1242,1242,-0.7528202967691618,-0.8,1.0,0.0,349.0,713.0,0.0,0,-242.0,1
1243,1243,0.17634501239396816,0.2,1.0,1.0,486.0,720.0,0.0,0,1794.0,0
1244,1244,0.27230880449854633,0.3,1.0,1.0,456.0,722.0,1.0,1,-428.0,1
1245,1245,0.05192168887849824,0.1,1.0,1.0,361.0,544.0,1.0,1,-35.0,1
1246,1246,0.5105192441916088,0.5,0.0,0.0,345.0,593.0,1.0,0,-908.0,0
1247,1247,-0.8036149518476902,-0.8,1.0,0.0,380.0,915.0,1.0,1,-1285.0,0
1248,1248,-0.037890807458175524,-0.0,0.0,1.0,417.0,809.0,1.0,0,-526.0,1
1249,1249,-0.12473632925760225,-0.1,0.0,1.0,395.0,557.0,0.0,1,-522.0,0
1250,1250,0.3948430136126052,0.4,1.0,1.0,365.0,734.0,1.0,1,331.0,1
1251,1251,0.5027486724520637,0.5,1.0,1.0,343.0,634.0,1.0,1,1093.0,1
1252,1252,-0.0929747508029174,-0.1,1.0,0.0,430.0,932.0,1.0,1,38.0,0
1253,1253,0.08192320985685497,0.1,0.0,0.0,395.0,741.0,0.0,1,-876.0,1
1254,1254,-0.42006572671910686,-0.4,0.0,1.0,324.0,990.0,0.0,1,-1224.0,0
1255,1255,-0.8254868222853183,-0.8,1.0,0.0,497.0,712.0,0.0,0,501.0,1
1256,1256,0.19091389664238678,0.2,1.0,1.0,359.0,594.0,1.0,1,-733.0,1
1257,1257,-0.4904171023644797,-0.5,0.0,1.0,275.0,626.0,0.0,1,-901.0,0
1258,1258,-0.7286660391679007,-0.7,0.0,1.0,399.0,593.0,1.0,0,-572.0,1
1259,1259,-0.06026842036181845,-0.1,1.0,0.0,402.0,862.0,0.0,0,-1154.0,1
1260,1260,0.21841357490195967,0.2,1.0,1.0,433.0,757.0,0.0,0,1810.0,0
1261,1261,0.3067240067095006,0.3,1.0,1.0,319.0,960.0,0.0,0,-989.0,0
1262,1262,-0.24994730439197177,-0.2,1.0,0.0,288.0,683.0,0.0,0,1359.0,1
1263,1263,-0.6282285384362045,-0.6,1.0,0.0,459.0,720.0,1.0,1,-929.0,0
1264,1264,-0.04854435342339658,-0.0,1.0,0.0,306.0,726.0,1.0,1,-292.0,0
1265,1265,-0.23255290207172086,-0.2,0.0,1.0,396.0,582.0,1.0,0,972.0,1
1266,1266,-0.04596332684254656,-0.0,1.0,0.0,412.0,847.0,1.0,1,151.0,0
1267,1267,0.874411327576505,0.9,0.0,0.0,438.0,957.0,0.0,1,-135.0,1
1268,1268,0.6351067178046722,0.6,0.0,0.0,329.0,650.0,1.0,0,841.0,0
1269,1269,0.026313308831028226,0.0,0.0,0.0,251.0,845.0,1.0,0,-506.0,0
1270,1270,0.047898145922093294,0.0,0.0,0.0,306.0,734.0,0.0,1,-1030.0,1
1271,1271,-0.3051831175129891,-0.3,0.0,1.0,371.0,627.0,1.0,0,-918.0,1
1272,1272,-0.020560092885692494,-0.0,0.0,1.0,390.0,572.0,0.0,1,-642.0,0
1273,1273,-0.38880395575637783,-0.4,1.0,0.0,419.0,839.0,1.0,1,-978.0,0
1274,1274,0.4359915713580128,0.4,1.0,1.0,288.0,525.0,0.0,0,-683.0,0
1275,1275,0.7355640824546456,0.7,1.0,1.0,318.0,600.0,1.0,1,-778.0,1
1276,1276,0.25228613311970094,0.3,1.0,1.0,283.0,982.0,0.0,0,605.0,0
1277,1277,-0.8524646410530426,-0.9,1.0,0.0,430.0,656.0,1.0,1,-576.0,0
1278,1278,0.650640637188559,0.7,0.0,0.0,332.0,644.0,0.0,1,-396.0,1
1279,1279,0.04732667197566476,0.0,0.0,0.0,269.0,614.0,0.0,1,757.0,1
1280,1280,0.11953762597835749,0.1,1.0,1.0,482.0,819.0,0.0,0,-981.0,0
1281,1281,-0.6264175337542639,-0.6,0.0,1.0,470.0,697.0,0.0,1,-777.0,0
1282,1282,0.3079301029850906,0.3,1.0,1.0,381.0,820.0,0.0,0,-1181.0,0
1283,1283,-0.5140939826763422,-0.5,1.0,0.0,251.0,557.0,0.0,0,252.0,1
1284,1284,-0.07300449503283657,-0.1,1.0,0.0,275.0,812.0,1.0,1,-1027.0,0
1285,1285,0.3217950843275218,0.3,1.0,1.0,400.0,513.0,1.0,1,-723.0,1
1286,1286,0.3397002970537909,0.3,1.0,1.0,301.0,772.0,0.0,0,-23.0,0
1287,1287,0.03894733406300366,0.0,1.0,1.0,351.0,858.0,0.0,0,-1029.0,0
1288,1288,-0.4907891116289371,-0.5,0.0,1.0,399.0,697.0,0.0,1,-376.0,0
1289,1289,0.02831927058416117,0.0,1.0,1.0,420.0,509.0,1.0,1,-929.0,1
1290,1290,0.1809631205835075,0.2,1.0,1.0,267.0,548.0,1.0,1,1435.0,1
1291,1291,0.5184059775354136,0.5,1.0,1.0,464.0,517.0,1.0,1,-931.0,1
1292,1292,0.2093332750498208,0.2,0.0,0.0,257.0,796.0,1.0,0,497.0,0
1293,1293,-0.27023428729282073,-0.3,0.0,1.0,475.0,624.0,1.0,0,-459.0,1
1294,1294,-0.3977253090988462,-0.4,0.0,1.0,320.0,624.0,0.0,1,-184.0,0
1295,1295,0.6827792094985093,0.7,0.0,0.0,417.0,998.0,1.0,0,1585.0,0
1296,1296,0.7976413198732589,0.8,0.0,0.0,297.0,880.0,1.0,0,-577.0,0
1297,1297,0.39391621292335566,0.4,1.0,1.0,272.0,693.0,0.0,0,-945.0,0
1298,1298,0.44460147007036455,0.4,0.0,0.0,354.0,591.0,1.0,0,345.0,0
1299,1299,-0.5116711240394058,-0.5,1.0,0.0,356.0,961.0,1.0,1,893.0,0
1300,1300,-0.5982953559695098,-0.6,1.0,0.0,432.0,723.0,1.0,1,-855.0,0
1301,1301,0.3615247760225734,0.4,0.0,0.0,490.0,506.0,0.0,1,4.0,1
1302,1302,-0.20474096504440598,-0.2,1.0,0.0,341.0,999.0,0.0,0,-1280.0,1
1303,1303,-0.7976253096682534,-0.8,0.0,1.0,361.0,849.0,0.0,1,-920.0,0
1304,1304,0.5356221118825294,0.5,1.0,1.0,473.0,659.0,0.0,0,428.0,0
1305,1305,-0.47476226247442277,-0.5,0.0,1.0,470.0,957.0,1.0,0,-57.0,1
1306,1306,0.5916296434979261,0.6,0.0,0.0,385.0,746.0,0.0,1,-821.0,1
1307,1307,0.23311904407876372,0.2,0.0,0.0,255.0,531.0,1.0,0,-766.0,0
1308,1308,-0.37728369103634773,-0.4,0.0,1.0,338.0,696.0,0.0,1,1386.0,0
1309,1309,0.09014687671746224,0.1,0.0,0.0,488.0,774.0,1.0,0,-952.0,0
1310,1310,0.6424163157593011,0.6,1.0,1.0,479.0,643.0,0.0,0,-312.0,0
1311,1311,0.849045237939868,0.8,1.0,1.0,321.0,558.0,0.0,0,-609.0,0
1312,1312,0.47280804275302846,0.5,1.0,1.0,364.0,749.0,0.0,0,677.0,0
1313,1313,0.10868494703606102,0.1,0.0,0.0,365.0,869.0,0.0,1,-1164.0,1
1314,1314,0.3538159031168472,0.4,1.0,1.0,352.0,821.0,1.0,1,-1013.0,1
1315,1315,0.27450503241477275,0.3,0.0,0.0,407.0,927.0,1.0,0,-384.0,0
1316,1316,-0.12630757075285726,-0.1,0.0,1.0,263.0,786.0,0.0,1,-449.0,0
1317,1317,-0.5853459463331236,-0.6,1.0,0.0,461.0,873.0,1.0,1,-874.0,0
1318,1318,-0.07676596991985296,-0.1,0.0,1.0,484.0,754.0,0.0,1,-1148.0,0
1319,1319,-0.49138524275688894,-0.5,0.0,1.0,480.0,945.0,0.0,1,-1395.0,0
1320,1320,-0.10480678789428632,-0.1,1.0,0.0,349.0,535.0,0.0,0,226.0,1
1321,1321,0.3917984453065605,0.4,1.0,1.0,337.0,840.0,0.0,0,-27.0,0
1322,1322,0.43858083760365363,0.4,1.0,1.0,309.0,916.0,1.0,1,-985.0,1
1323,1323,0.40113337768495605,0.4,1.0,1.0,291.0,807.0,0.0,0,-1058.0,0
1324,1324,0.5298482685027505,0.5,1.0,1.0,311.0,882.0,0.0,0,-533.0,0
1325,1325,0.3616836828214184,0.4,0.0,0.0,397.0,536.0,1.0,0,-913.0,0
1326,1326,-0.16728937054790294,-0.2,1.0,0.0,478.0,933.0,1.0,1,89.0,0
1327,1327,-0.08681568790709993,-0.1,0.0,1.0,424.0,836.0,0.0,1,1380.0,0
1328,1328,0.1868031663708637,0.2,1.0,1.0,267.0,895.0,0.0,0,-872.0,0
1329,1329,-0.5333099550125198,-0.5,0.0,1.0,468.0,517.0,0.0,1,-785.0,0
1330,1330,-0.5413565465862836,-0.5,1.0,0.0,352.0,833.0,1.0,1,-1155.0,0
1331,1331,-0.8321173857698811,-0.8,1.0,0.0,488.0,556.0,0.0,0,996.0,1
1332,1332,0.6469641599211801,0.6,1.0,1.0,274.0,739.0,0.0,0,-183.0,0
1333,1333,0.4920958489827788,0.5,1.0,1.0,488.0,687.0,0.0,0,-965.0,0
1334,1334,0.30564504104829127,0.3,1.0,1.0,295.0,589.0,1.0,1,-574.0,1
1335,1335,-0.8934581970092312,-0.9,0.0,1.0,415.0,846.0,1.0,0,-551.0,1
1336,1336,0.5164490357437902,0.5,0.0,0.0,431.0,773.0,0.0,1,-74.0,1
1337,1337,0.5551391235814039,0.6,1.0,1.0,420.0,889.0,1.0,1,1481.0,1
1338,1338,0.764330826400954,0.8,0.0,0.0,325.0,927.0,0.0,1,1748.0,1
1339,1339,-0.2289726356285281,-0.2,1.0,0.0,258.0,567.0,0.0,0,-615.0,1
1340,1340,-0.3108915859294643,-0.3,1.0,0.0,407.0,563.0,1.0,1,-230.0,0
1341,1341,0.8641501987101275,0.9,0.0,0.0,419.0,855.0,1.0,0,-544.0,0
1342,1342,0.8321871207375199,0.8,0.0,0.0,257.0,920.0,0.0,1,1443.0,1
1343,1343,0.8383179332774818,0.8,1.0,1.0,397.0,720.0,0.0,0,483.0,0
1344,1344,-0.13087324381795507,-0.1,1.0,0.0,264.0,596.0,0.0,0,-180.0,1
1345,1345,0.0344953828790141,0.0,1.0,1.0,403.0,504.0,0.0,0,-417.0,0
1346,1346,0.6699044323112237,0.7,0.0,0.0,369.0,617.0,0.0,1,-946.0,1
1347,1347,0.3841788188437515,0.4,0.0,0.0,254.0,915.0,1.0,0,1341.0,0
1348,1348,0.3607443238435105,0.4,0.0,0.0,337.0,779.0,1.0,0,1884.0,0
1349,1349,-0.7957572053019931,-0.8,1.0,0.0,297.0,907.0,0.0,0,1766.0,1
1350,1350,0.5601823830468166,0.6,1.0,1.0,346.0,532.0,1.0,1,-818.0,1
1351,1351,-0.6284594429514322,-0.6,1.0,0.0,459.0,606.0,1.0,1,235.0,0
1352,1352,-0.07793022201242183,-0.1,0.0,1.0,419.0,806.0,1.0,0,1775.0,1
1353,1353,-0.15888248481151224,-0.2,1.0,0.0,462.0,769.0,0.0,0,-1211.0,1
1354,1354,-0.22646958385456772,-0.2,1.0,0.0,336.0,506.0,1.0,1,-432.0,0
1355,1355,0.41285583477979537,0.4,0.0,0.0,367.0,605.0,1.0,0,-882.0,0
1356,1356,0.02951370804281872,0.0,1.0,1.0,320.0,658.0,0.0,0,-238.0,0
1357,1357,0.6397808821283556,0.6,1.0,1.0,412.0,511.0,0.0,0,-413.0,0
1358,1358,-0.827096836821906,-0.8,1.0,0.0,275.0,637.0,1.0,1,588.0,0
1359,1359,0.6639207327684961,0.7,0.0,0.0,433.0,616.0,0.0,1,871.0,1
1360,1360,0.3751003802117493,0.4,0.0,0.0,422.0,912.0,0.0,1,-1114.0,1
1361,1361,0.09387101387306995,0.1,0.0,0.0,431.0,953.0,0.0,1,-1124.0,1
1362,1362,-0.8707381305625601,-0.9,1.0,0.0,390.0,756.0,0.0,0,-986.0,1
1363,1363,0.8971078884542706,0.9,1.0,1.0,266.0,571.0,0.0,0,2143.0,0
1364,1364,0.848102095706497,0.8,0.0,0.0,296.0,570.0,1.0,0,-556.0,0
1365,1365,0.7988681095046449,0.8,1.0,1.0,493.0,804.0,1.0,1,-1167.0,1
1366,1366,-0.27529890928307565,-0.3,0.0,1.0,276.0,727.0,1.0,0,-63.0,1
1367,1367,0.3088839377365217,0.3,1.0,1.0,396.0,629.0,1.0,1,-965.0,1
1368,1368,-0.01614803594740233,-0.0,0.0,1.0,401.0,976.0,0.0,1,-147.0,0
1369,1369,-0.37625752507333954,-0.4,1.0,0.0,376.0,806.0,0.0,0,-202.0,1
1370,1370,0.20810765419492172,0.2,0.0,0.0,322.0,902.0,0.0,1,-1014.0,1
1371,1371,0.6522029418057259,0.7,1.0,1.0,254.0,716.0,1.0,1,-880.0,1
1372,1372,-0.4156445521038592,-0.4,0.0,1.0,417.0,991.0,0.0,1,-1268.0,0
1373,1373,-0.0804133788274155,-0.1,1.0,0.0,439.0,850.0,1.0,1,-69.0,0
1374,1374,0.8159660126061116,0.8,1.0,1.0,346.0,912.0,0.0,0,-1228.0,0
1375,1375,0.796185346289448,0.8,0.0,0.0,495.0,793.0,0.0,1,-1278.0,1
1376,1376,-0.19187275471380127,-0.2,0.0,1.0,345.0,916.0,0.0,1,-841.0,0
1377,1377,-0.10506091033302523,-0.1,1.0,0.0,454.0,969.0,1.0,1,177.0,0
1378,1378,0.7787941025289634,0.8,1.0,1.0,331.0,599.0,1.0,1,-50.0,1
1379,1379,0.45085683096834217,0.5,1.0,1.0,304.0,720.0,0.0,0,1976.0,0
1380,1380,-0.09736529473689226,-0.1,0.0,1.0,476.0,684.0,0.0,1,260.0,0
1381,1381,-0.49946052472439845,-0.5,1.0,0.0,447.0,979.0,1.0,1,1574.0,0
1382,1382,-0.24853754421768948,-0.2,1.0,0.0,391.0,567.0,1.0,1,-48.0,0
1383,1383,-0.5077179664351333,-0.5,1.0,0.0,388.0,630.0,0.0,0,-918.0,1
1384,1384,0.21144845169340598,0.2,0.0,0.0,324.0,849.0,0.0,1,-883.0,1
1385,1385,0.4037220262293121,0.4,0.0,0.0,479.0,820.0,0.0,1,-39.0,1
1386,1386,0.08708371565248862,0.1,1.0,1.0,486.0,788.0,0.0,0,-134.0,0
1387,1387,0.7456890459096525,0.7,1.0,1.0,387.0,619.0,0.0,0,-866.0,0
1388,1388,-0.2938223822004076,-0.3,0.0,1.0,313.0,775.0,1.0,0,1202.0,1
1389,1389,-0.8229120525853328,-0.8,0.0,1.0,354.0,746.0,0.0,1,-240.0,0
1390,1390,0.7907904477654438,0.8,0.0,0.0,358.0,951.0,0.0,1,1331.0,1
1391,1391,0.8844501852986887,0.9,0.0,0.0,346.0,509.0,1.0,0,-755.0,0
1392,1392,-0.09900640031177366,-0.1,1.0,0.0,253.0,836.0,0.0,0,-1019.0,1
1393,1393,0.0776100835213882,0.1,1.0,1.0,427.0,647.0,1.0,1,746.0,1
1394,1394,-0.2901020650704065,-0.3,0.0,1.0,251.0,812.0,0.0,1,477.0,0
1395,1395,0.860682020091711,0.9,1.0,1.0,489.0,687.0,0.0,0,534.0,0
1396,1396,-0.12163010774814043,-0.1,0.0,1.0,289.0,529.0,0.0,1,-488.0,0
1397,1397,0.5470284974834826,0.5,1.0,1.0,358.0,571.0,0.0,0,1291.0,0
1398,1398,0.6109661405043348,0.6,0.0,0.0,294.0,922.0,0.0,1,-366.0,1
1399,1399,0.7181530676393212,0.7,0.0,0.0,428.0,790.0,1.0,0,-1108.0,0
1400,1400,0.5107152144895474,0.5,0.0,0.0,345.0,596.0,1.0,0,-341.0,0
1401,1401,0.8864604407470921,0.9,1.0,1.0,305.0,674.0,1.0,1,2021.0,1
1402,1402,0.2721359489290326,0.3,0.0,0.0,414.0,971.0,1.0,0,1615.0,0
1403,1403,-0.12401793792065408,-0.1,0.0,1.0,405.0,587.0,1.0,0,-52.0,1
1404,1404,0.3006439879483601,0.3,1.0,1.0,250.0,834.0,0.0,0,-354.0,0
1405,1405,-0.30929481452646235,-0.3,0.0,1.0,372.0,907.0,0.0,1,1441.0,0
1406,1406,0.34160241399382263,0.3,0.0,0.0,436.0,864.0,1.0,0,-1290.0,0
1407,1407,0.7232461398858697,0.7,0.0,0.0,347.0,807.0,1.0,0,-1074.0,0
1408,1408,0.7408374873214222,0.7,0.0,0.0,252.0,774.0,1.0,0,-846.0,0
1409,1409,0.748150378049694,0.7,0.0,0.0,339.0,629.0,0.0,1,222.0,1
1410,1410,0.5824605399066257,0.6,0.0,0.0,455.0,628.0,1.0,0,137.0,0
1411,1411,-0.7285761181760634,-0.7,0.0,1.0,440.0,727.0,0.0,1,-837.0,0
1412,1412,-0.037778131129717396,-0.0,0.0,1.0,448.0,765.0,1.0,0,-1183.0,1
1413,1413,-0.6440012784174113,-0.6,1.0,0.0,329.0,524.0,0.0,0,2147.0,1
1414,1414,-0.8100653764495754,-0.8,0.0,1.0,265.0,586.0,1.0,0,-181.0,1
1415,1415,0.07799277920821734,0.1,1.0,1.0,426.0,986.0,0.0,0,-872.0,0
1416,1416,0.8425804021030828,0.8,1.0,1.0,391.0,933.0,0.0,0,-944.0,0
1417,1417,-0.15360496191177309,-0.2,0.0,1.0,349.0,804.0,0.0,1,-623.0,0
1418,1418,-0.03057634130547371,-0.0,1.0,0.0,497.0,818.0,1.0,1,-1285.0,0
1419,1419,0.7510621013204749,0.8,1.0,1.0,263.0,820.0,0.0,0,-153.0,0
1420,1420,0.30954470243348176,0.3,1.0,1.0,434.0,589.0,1.0,1,-1023.0,1
1421,1421,-0.6583426868289304,-0.7,1.0,0.0,404.0,691.0,1.0,1,-815.0,0
1422,1422,0.8238471084601943,0.8,0.0,0.0,331.0,905.0,1.0,0,-1036.0,0
1423,1423,-0.49675770134149805,-0.5,1.0,0.0,359.0,980.0,0.0,0,-1099.0,1
1424,1424,0.41489394738022456,0.4,0.0,0.0,273.0,635.0,0.0,1,-608.0,1
1425,1425,-0.4092651923844451,-0.4,0.0,1.0,299.0,538.0,0.0,1,263.0,0
1426,1426,-0.055681548214915555,-0.1,1.0,0.0,281.0,844.0,0.0,0,1875.0,1
1427,1427,0.580214981916943,0.6,1.0,1.0,473.0,530.0,1.0,1,967.0,1
1428,1428,0.27472617580241565,0.3,0.0,0.0,476.0,554.0,1.0,0,-790.0,0
1429,1429,-0.7046336022687099,-0.7,1.0,0.0,397.0,824.0,0.0,0,-1181.0,1
1430,1430,-0.8070757183716075,-0.8,1.0,0.0,359.0,518.0,1.0,1,743.0,0
1431,1431,0.5944062722733224,0.6,1.0,1.0,463.0,598.0,0.0,0,949.0,0
1432,1432,0.6488916790099334,0.6,1.0,1.0,341.0,514.0,0.0,0,-405.0,0
1433,1433,-0.2053127808605022,-0.2,0.0,1.0,370.0,792.0,0.0,1,428.0,0
1434,1434,0.4237868619260613,0.4,1.0,1.0,436.0,809.0,1.0,1,-255.0,1
1435,1435,-0.5171936541297409,-0.5,0.0,1.0,295.0,589.0,1.0,0,2116.0,1
1436,1436,0.05966475621271761,0.1,0.0,0.0,314.0,516.0,1.0,0,-760.0,0
1437,1437,-0.6441346465231672,-0.6,1.0,0.0,364.0,839.0,0.0,0,-383.0,1
1438,1438,-0.19288901025907923,-0.2,1.0,0.0,437.0,898.0,1.0,1,15.0,0
1439,1439,0.09352593452353675,0.1,0.0,0.0,495.0,947.0,1.0,0,-1062.0,0
1440,1440,0.06752575241692871,0.1,1.0,1.0,400.0,512.0,0.0,0,-722.0,0
1441,1441,-0.4873078395460545,-0.5,0.0,1.0,394.0,842.0,1.0,0,-606.0,1
1442,1442,0.346231866260705,0.3,1.0,1.0,458.0,835.0,1.0,1,447.0,1
1443,1443,0.02684662067952137,0.0,1.0,1.0,340.0,652.0,0.0,0,98.0,0
1444,1444,0.38750331778823843,0.4,0.0,0.0,297.0,529.0,1.0,0,-536.0,0
1445,1445,-0.6329453710268833,-0.6,1.0,0.0,403.0,801.0,0.0,0,-954.0,1
1446,1446,-0.7129522785165774,-0.7,0.0,1.0,327.0,861.0,1.0,0,-68.0,1
1447,1447,0.055420453179015894,0.1,1.0,1.0,447.0,533.0,1.0,1,30.0,1
1448,1448,0.6521928160471414,0.7,1.0,1.0,412.0,829.0,0.0,0,-601.0,0
1449,1449,0.4915773666050335,0.5,0.0,0.0,415.0,568.0,0.0,1,-203.0,1
1450,1450,0.7910543095967494,0.8,1.0,1.0,434.0,796.0,0.0,0,-100.0,0
1451,1451,0.48120562571221026,0.5,0.0,0.0,413.0,520.0,0.0,1,1177.0,1
1452,1452,-0.3036453486774763,-0.3,0.0,1.0,489.0,617.0,0.0,1,-656.0,0
1453,1453,0.4279063414967189,0.4,0.0,0.0,367.0,910.0,1.0,0,-377.0,0
1454,1454,0.6243120714134606,0.6,0.0,0.0,326.0,842.0,1.0,0,-848.0,0
1455,1455,-0.34807443831991625,-0.3,1.0,0.0,341.0,836.0,1.0,1,-997.0,0
1456,1456,0.47904625489756103,0.5,1.0,1.0,462.0,798.0,0.0,0,1050.0,0
1457,1457,0.4799770538973013,0.5,1.0,1.0,277.0,651.0,0.0,0,492.0,0
1458,1458,-0.3210750784535982,-0.3,0.0,1.0,298.0,927.0,1.0,0,-755.0,1
1459,1459,-0.15460049133541043,-0.2,0.0,1.0,393.0,759.0,0.0,1,-712.0,0
1460,1460,0.08918111045406985,0.1,1.0,1.0,322.0,933.0,1.0,1,-1105.0,1
1461,1461,0.29012198774346165,0.3,0.0,0.0,356.0,909.0,0.0,1,-755.0,1
1462,1462,-0.8494510065558543,-0.8,1.0,0.0,338.0,736.0,0.0,0,-1004.0,1
1463,1463,-0.6198734316955828,-0.6,1.0,0.0,381.0,535.0,1.0,1,-396.0,0
1464,1464,-0.8599852389466167,-0.9,1.0,0.0,304.0,714.0,0.0,0,162.0,1
1465,1465,-0.5946599428131236,-0.6,0.0,1.0,372.0,975.0,0.0,1,-1007.0,0
1466,1466,0.5787588575661596,0.6,0.0,0.0,366.0,778.0,0.0,1,-904.0,1
1467,1467,0.5785136683913666,0.6,0.0,0.0,351.0,653.0,0.0,1,-774.0,1
1468,1468,-0.843283374980443,-0.8,1.0,0.0,324.0,778.0,0.0,0,-1052.0,1
1469,1469,0.1986233876451614,0.2,0.0,0.0,442.0,618.0,0.0,1,1940.0,1
1470,1470,-0.682844180272361,-0.7,0.0,1.0,251.0,663.0,1.0,0,-84.0,1
1471,1471,-0.6721874333618999,-0.7,1.0,0.0,266.0,700.0,1.0,1,-656.0,0
1472,1472,0.7944719173779343,0.8,1.0,1.0,336.0,987.0,1.0,1,-423.0,1
1473,1473,-0.13852355562465346,-0.1,0.0,1.0,398.0,961.0,0.0,1,-529.0,0
1474,1474,-0.1842877971852357,-0.2,0.0,1.0,337.0,818.0,0.0,1,-225.0,0
1475,1475,0.13893971000656113,0.1,0.0,0.0,380.0,852.0,0.0,1,-1112.0,1
1476,1476,-0.2971886658588475,-0.3,1.0,0.0,497.0,760.0,1.0,1,-317.0,0
1477,1477,0.8159257523471722,0.8,0.0,0.0,383.0,991.0,0.0,1,-1044.0,1
