,trial,coherence,coherence_bin,green_side,correct_side,target_onset,checker_onset,decision,green_decision,decision_time,correct_decision
0,0,0.8243918166960328,0.8,0.0,0.0,285.0,698.0,0.0,1,87.0,1
1,1,-0.5824423585691312,-0.6,1.0,0.0,447.0,837.0,0.0,0,136.0,1
2,2,-0.4639758459551416,-0.5,1.0,0.0,434.0,500.0,0.0,0,336.0,1
3,3,-0.5571496670808787,-0.6,1.0,0.0,459.0,773.0,0.0,0,78.0,1
4,4,0.3998019992097003,0.4,1.0,1.0,329.0,576.0,1.0,1,635.0,1
5,5,-0.03878723974405951,-0.0,0.0,1.0,354.0,820.0,1.0,0,1826.0,1
6,6,0.6188902098049788,0.6,1.0,1.0,462.0,572.0,1.0,1,276.0,1
7,7,0.7893726663299484,0.8,0.0,0.0,261.0,831.0,0.0,1,218.0,1
8,8,-0.8580609222182592,-0.9,0.0,1.0,401.0,670.0,1.0,0,159.0,1
9,9,0.803641311792736,0.8,0.0,0.0,266.0,982.0,0.0,1,192.0,1
10,10,-0.043720601108841795,-0.0,1.0,0.0,299.0,616.0,0.0,0,465.0,1
11,11,-0.05899672750756857,-0.1,0.0,1.0,342.0,948.0,1.0,0,1710.0,1
12,12,0.7549338587847815,0.8,0.0,0.0,292.0,721.0,0.0,1,137.0,1
13,13,-0.6448065946933175,-0.6,1.0,0.0,283.0,884.0,0.0,0,203.0,1
14,14,-0.1793221986844512,-0.2,1.0,0.0,260.0,507.0,0.0,0,683.0,1
15,15,-0.7430782210777163,-0.7,1.0,0.0,387.0,872.0,0.0,0,111.0,1
16,16,0.5783067021610621,0.6,1.0,1.0,369.0,789.0,1.0,1,202.0,1
17,17,0.5819499903030293,0.6,0.0,0.0,364.0,676.0,0.0,1,190.0,1
18,18,-0.4704715071870971,-0.5,1.0,0.0,389.0,851.0,0.0,0,90.0,1
19,19,-0.7469793196976846,-0.7,0.0,1.0,378.0,572.0,1.0,0,2050.0,1
20,20,-0.09514720718681258,-0.1,1.0,0.0,399.0,574.0,0.0,0,407.0,1
21,21,-0.07215829913700689,-0.1,1.0,0.0,497.0,916.0,0.0,0,187.0,1
22,22,-0.1634401843143748,-0.2,0.0,1.0,435.0,860.0,1.0,0,1455.0,1
23,23,-0.2656827264439995,-0.3,0.0,1.0,438.0,888.0,1.0,0,444.0,1
24,24,0.2746070045647028,0.3,1.0,1.0,266.0,598.0,1.0,1,576.0,1
25,25,-0.420551643285021,-0.4,1.0,0.0,443.0,734.0,0.0,0,163.0,1
26,26,-0.1323734548080111,-0.1,1.0,0.0,405.0,764.0,0.0,0,511.0,1
27,27,0.6275393030355959,0.6,1.0,1.0,335.0,858.0,1.0,1,157.0,1
28,28,-0.2735092897621487,-0.3,0.0,1.0,380.0,845.0,1.0,0,495.0,1
29,29,0.6471500896778991,0.6,1.0,1.0,459.0,778.0,1.0,1,183.0,1
30,30,-0.3510557291669265,-0.4,1.0,0.0,382.0,933.0,0.0,0,25.0,1
31,31,-0.28413042442729164,-0.3,1.0,0.0,253.0,974.0,0.0,0,493.0,1
32,32,0.14157165471297628,0.1,0.0,0.0,294.0,826.0,0.0,1,200.0,1
33,33,0.31917756944497244,0.3,0.0,0.0,359.0,746.0,0.0,1,585.0,1
34,34,0.4101377725606531,0.4,1.0,1.0,377.0,918.0,1.0,1,225.0,1
35,35,0.5483247688910841,0.5,0.0,0.0,461.0,557.0,0.0,1,352.0,1
36,36,0.719167115618191,0.7,0.0,0.0,364.0,542.0,0.0,1,244.0,1
37,37,0.7143598234443708,0.7,0.0,0.0,472.0,880.0,0.0,1,328.0,1
38,38,-0.37220225375544014,-0.4,1.0,0.0,440.0,953.0,0.0,0,287.0,1
39,39,-0.8954836145513134,-0.9,0.0,1.0,481.0,631.0,1.0,0,128.0,1
40,40,-0.37074241592687784,-0.4,0.0,1.0,279.0,991.0,1.0,0,170.0,1
41,41,0.3604413106154317,0.4,0.0,0.0,428.0,988.0,0.0,1,184.0,1
42,42,-0.21901668888224002,-0.2,0.0,1.0,338.0,995.0,1.0,0,267.0,1
43,43,-0.6144237236316564,-0.6,1.0,0.0,264.0,547.0,0.0,0,139.0,1
44,44,0.3662283011204722,0.4,1.0,1.0,463.0,940.0,0.0,0,-143.0,0
45,45,-0.505474649206821,-0.5,0.0,1.0,283.0,941.0,1.0,0,166.0,1
46,46,0.16656033321178898,0.2,0.0,0.0,281.0,829.0,0.0,1,690.0,1
47,47,-0.5048408667773179,-0.5,0.0,1.0,442.0,940.0,1.0,0,278.0,1
48,48,-0.28675158828680614,-0.3,0.0,1.0,281.0,738.0,1.0,0,871.0,1
49,49,-0.5474453242455926,-0.5,1.0,0.0,264.0,924.0,0.0,0,122.0,1
50,50,-0.6173653108193315,-0.6,0.0,1.0,431.0,768.0,1.0,0,281.0,1
51,51,-0.31213491037413654,-0.3,0.0,1.0,497.0,794.0,1.0,0,179.0,1
52,52,0.6875059593136902,0.7,1.0,1.0,344.0,504.0,1.0,1,262.0,1
53,53,0.7064292087385055,0.7,0.0,0.0,329.0,921.0,0.0,1,80.0,1
54,54,-0.08514406492206894,-0.1,0.0,1.0,435.0,528.0,0.0,1,2037.0,0
55,55,-0.39919809969983966,-0.4,1.0,0.0,450.0,689.0,0.0,0,321.0,1
56,56,0.19424618135553884,0.2,1.0,1.0,494.0,677.0,1.0,1,309.0,1
57,57,-0.8407375708042657,-0.8,1.0,0.0,433.0,851.0,0.0,0,36.0,1
58,58,0.2795271419051294,0.3,0.0,0.0,415.0,722.0,0.0,1,253.0,1
59,59,0.8166354294675208,0.8,0.0,0.0,397.0,600.0,0.0,1,173.0,1
60,60,-0.4515801062281173,-0.5,1.0,0.0,350.0,876.0,0.0,0,204.0,1
61,61,0.4442820821651491,0.4,1.0,1.0,396.0,895.0,1.0,1,479.0,1
62,62,0.6663673720050555,0.7,0.0,0.0,494.0,612.0,0.0,1,154.0,1
63,63,0.22225397619625442,0.2,1.0,1.0,375.0,604.0,1.0,1,781.0,1
64,64,0.29384395005230324,0.3,1.0,1.0,262.0,694.0,1.0,1,554.0,1
65,65,-0.12174943394711046,-0.1,1.0,0.0,283.0,966.0,0.0,0,501.0,1
66,66,0.3356625649256847,0.3,1.0,1.0,360.0,915.0,1.0,1,395.0,1
67,67,-0.133266343356776,-0.1,1.0,0.0,286.0,529.0,0.0,0,185.0,1
68,68,0.7371481220922359,0.7,1.0,1.0,340.0,911.0,1.0,1,189.0,1
69,69,0.135319189248864,0.1,1.0,1.0,308.0,839.0,1.0,1,663.0,1
70,70,-0.18956676645731674,-0.2,1.0,0.0,254.0,605.0,0.0,0,581.0,1
71,71,0.32556324536209147,0.3,0.0,0.0,426.0,734.0,0.0,1,80.0,1
72,72,-0.3814808192004132,-0.4,1.0,0.0,475.0,914.0,0.0,0,191.0,1
73,73,-0.2015269090737104,-0.2,0.0,1.0,489.0,879.0,1.0,0,802.0,1
74,74,0.23612138035652086,0.2,0.0,0.0,416.0,731.0,0.0,1,123.0,1
75,75,-0.30559862027702633,-0.3,1.0,0.0,442.0,990.0,0.0,0,108.0,1
76,76,0.6102030027831818,0.6,1.0,1.0,368.0,697.0,1.0,1,195.0,1
77,77,-0.5110366345894074,-0.5,0.0,1.0,382.0,503.0,1.0,0,265.0,1
78,78,-0.20069843706848167,-0.2,1.0,0.0,318.0,637.0,0.0,0,305.0,1
79,79,-0.41883556060347293,-0.4,0.0,1.0,421.0,921.0,1.0,0,358.0,1
80,80,-0.1972666320864721,-0.2,0.0,1.0,268.0,706.0,1.0,0,796.0,1
81,81,0.6291084889101214,0.6,0.0,0.0,423.0,531.0,0.0,1,186.0,1
82,82,0.08925134861675765,0.1,1.0,1.0,428.0,576.0,1.0,1,1996.0,1
83,83,0.27824367586485577,0.3,1.0,1.0,403.0,869.0,1.0,1,818.0,1
84,84,0.31286919090838594,0.3,0.0,0.0,331.0,961.0,0.0,1,288.0,1
85,85,-0.592804993261445,-0.6,1.0,0.0,480.0,851.0,0.0,0,179.0,1
86,86,-0.6108965969824369,-0.6,1.0,0.0,388.0,780.0,0.0,0,242.0,1
87,87,0.11357199553414066,0.1,1.0,1.0,286.0,659.0,1.0,1,2055.0,1
88,88,-0.5700182452834005,-0.6,1.0,0.0,434.0,529.0,0.0,0,127.0,1
89,89,0.7105589420188668,0.7,0.0,0.0,411.0,834.0,0.0,1,135.0,1
90,90,0.796124964129033,0.8,1.0,1.0,394.0,801.0,1.0,1,245.0,1
91,91,-0.6435906853874727,-0.6,1.0,0.0,423.0,534.0,0.0,0,213.0,1
92,92,-0.18404271497799263,-0.2,1.0,0.0,285.0,909.0,0.0,0,406.0,1
93,93,0.6794157560251745,0.7,1.0,1.0,394.0,561.0,1.0,1,325.0,1
94,94,0.4834346715954442,0.5,1.0,1.0,495.0,840.0,1.0,1,435.0,1
95,95,0.4355128343419822,0.4,1.0,1.0,439.0,831.0,1.0,1,330.0,1
96,96,0.7138164469044234,0.7,1.0,1.0,381.0,671.0,1.0,1,268.0,1
97,97,-0.7854351311977613,-0.8,1.0,0.0,473.0,905.0,0.0,0,92.0,1
98,98,-0.20752071540091088,-0.2,0.0,1.0,253.0,792.0,1.0,0,565.0,1
99,99,0.09201958767279594,0.1,0.0,0.0,389.0,635.0,0.0,1,1046.0,1
100,100,-0.6536400787346162,-0.7,1.0,0.0,411.0,544.0,0.0,0,155.0,1
101,101,0.7613717766349851,0.8,0.0,0.0,380.0,910.0,0.0,1,110.0,1
102,102,-0.048984244401104715,-0.0,1.0,0.0,401.0,832.0,0.0,0,447.0,1
103,103,0.12904115278351347,0.1,0.0,0.0,319.0,513.0,0.0,1,1268.0,1
104,104,0.7877163984062229,0.8,1.0,1.0,276.0,873.0,1.0,1,151.0,1
105,105,-0.6285936212465372,-0.6,1.0,0.0,472.0,514.0,0.0,0,214.0,1
106,106,0.5834061509137548,0.6,1.0,1.0,473.0,668.0,1.0,1,319.0,1
107,107,-0.8741121819232929,-0.9,0.0,1.0,384.0,961.0,1.0,0,245.0,1
108,108,0.48121646908413596,0.5,0.0,0.0,446.0,963.0,0.0,1,121.0,1
109,109,-0.7962625118332217,-0.8,0.0,1.0,423.0,923.0,1.0,0,124.0,1
110,110,-0.49168347876896956,-0.5,0.0,1.0,252.0,785.0,1.0,0,183.0,1
111,111,0.49640236027312945,0.5,0.0,0.0,460.0,756.0,0.0,1,64.0,1
112,112,0.5879205827371686,0.6,0.0,0.0,421.0,564.0,0.0,1,255.0,1
113,113,0.06580768462790298,0.1,1.0,1.0,472.0,889.0,0.0,0,-81.0,0
114,114,-0.047214490997586345,-0.0,1.0,0.0,443.0,510.0,0.0,0,747.0,1
115,115,0.30592474729639985,0.3,1.0,1.0,263.0,837.0,1.0,1,510.0,1
116,116,0.025766674322233563,0.0,1.0,1.0,422.0,939.0,0.0,0,29.0,0
117,117,-0.2758808660097891,-0.3,0.0,1.0,365.0,887.0,1.0,0,508.0,1
118,118,0.8599435752965198,0.9,0.0,0.0,340.0,792.0,0.0,1,148.0,1
119,119,-0.3068823060339796,-0.3,1.0,0.0,421.0,579.0,0.0,0,260.0,1
120,120,-0.36683750872664733,-0.4,0.0,1.0,456.0,695.0,1.0,0,279.0,1
121,121,-0.2990248354547653,-0.3,0.0,1.0,416.0,851.0,1.0,0,363.0,1
122,122,0.8214076604051409,0.8,0.0,0.0,443.0,679.0,0.0,1,158.0,1
123,123,0.8701881406792756,0.9,0.0,0.0,424.0,640.0,0.0,1,166.0,1
124,124,0.19843413263787435,0.2,1.0,1.0,473.0,526.0,1.0,1,881.0,1
125,125,-0.5924005592625259,-0.6,0.0,1.0,390.0,568.0,1.0,0,252.0,1
126,126,-0.36772232406826777,-0.4,1.0,0.0,314.0,598.0,0.0,0,318.0,1
127,127,0.08168054448529394,0.1,1.0,1.0,341.0,634.0,1.0,1,1735.0,1
128,128,-0.29631651547888893,-0.3,1.0,0.0,388.0,814.0,0.0,0,128.0,1
129,129,0.5035007433482622,0.5,1.0,1.0,476.0,622.0,1.0,1,422.0,1
130,130,-0.7250236235451557,-0.7,1.0,0.0,432.0,942.0,0.0,0,106.0,1
131,131,0.21194725720713292,0.2,0.0,0.0,320.0,514.0,0.0,1,366.0,1
132,132,0.2390285186354063,0.2,1.0,1.0,294.0,683.0,1.0,1,293.0,1
133,133,-0.7597201932891068,-0.8,1.0,0.0,457.0,588.0,0.0,0,215.0,1
134,134,-0.8359410746573713,-0.8,0.0,1.0,305.0,641.0,1.0,0,254.0,1
135,135,-0.1387515749016468,-0.1,1.0,0.0,486.0,761.0,0.0,0,483.0,1
136,136,0.061372340129735914,0.1,1.0,1.0,450.0,564.0,0.0,0,1986.0,0
137,137,-0.4958908429406624,-0.5,0.0,1.0,421.0,644.0,1.0,0,595.0,1
138,138,-0.8117201529287131,-0.8,0.0,1.0,362.0,666.0,1.0,0,152.0,1
139,139,0.8097263248581187,0.8,0.0,0.0,470.0,763.0,0.0,1,97.0,1
140,140,-0.4933927672100766,-0.5,0.0,1.0,480.0,731.0,1.0,0,279.0,1
141,141,0.4570168193763572,0.5,1.0,1.0,292.0,748.0,1.0,1,370.0,1
142,142,-0.1625510888389532,-0.2,0.0,1.0,473.0,932.0,1.0,0,1365.0,1
143,143,-0.42156609518266075,-0.4,1.0,0.0,271.0,708.0,0.0,0,231.0,1
144,144,0.8988044393563327,0.9,0.0,0.0,304.0,941.0,0.0,1,75.0,1
145,145,0.6818554399894986,0.7,1.0,1.0,401.0,560.0,1.0,1,259.0,1
146,146,0.5495901058944367,0.5,0.0,0.0,427.0,740.0,0.0,1,93.0,1
147,147,0.35683056054065,0.4,0.0,0.0,343.0,576.0,0.0,1,331.0,1
148,148,-0.6181161501870369,-0.6,1.0,0.0,293.0,820.0,0.0,0,67.0,1
149,149,-0.5692573980979463,-0.6,0.0,1.0,302.0,748.0,1.0,0,440.0,1
150,150,0.8789738936441062,0.9,0.0,0.0,454.0,937.0,0.0,1,239.0,1
151,151,-0.0041179864885216855,-0.0,1.0,0.0,251.0,559.0,0.0,0,1030.0,1
152,152,-0.4141008698797095,-0.4,0.0,1.0,459.0,660.0,1.0,0,321.0,1
153,153,0.3701573319938317,0.4,1.0,1.0,377.0,762.0,1.0,1,471.0,1
154,154,0.5576549357673198,0.6,1.0,1.0,347.0,734.0,1.0,1,259.0,1
155,155,-0.67399941925899,-0.7,0.0,1.0,397.0,776.0,1.0,0,197.0,1
156,156,-0.056829354840894464,-0.1,0.0,1.0,255.0,621.0,1.0,0,2124.0,1
157,157,0.23614351054521865,0.2,1.0,1.0,277.0,500.0,1.0,1,1163.0,1
158,158,-0.01240199109708029,-0.0,0.0,1.0,295.0,767.0,0.0,1,1938.0,0
159,159,0.35662874289916824,0.4,1.0,1.0,291.0,666.0,1.0,1,503.0,1
160,160,-0.16134473684329365,-0.2,0.0,1.0,417.0,564.0,1.0,0,759.0,1
161,161,0.17062880590872964,0.2,1.0,1.0,348.0,725.0,1.0,1,527.0,1
162,162,-0.020640212506650157,-0.0,0.0,1.0,260.0,535.0,0.0,1,815.0,0
163,163,-0.41530571714756387,-0.4,0.0,1.0,363.0,718.0,1.0,0,229.0,1
164,164,0.4939452543308579,0.5,1.0,1.0,433.0,580.0,1.0,1,307.0,1
165,165,-0.8897747563376133,-0.9,1.0,0.0,411.0,588.0,0.0,0,191.0,1
166,166,-0.2782107908139284,-0.3,1.0,0.0,428.0,592.0,0.0,0,180.0,1
167,167,-0.836249845697213,-0.8,1.0,0.0,401.0,990.0,0.0,0,29.0,1
168,168,-0.3107438817920919,-0.3,1.0,0.0,255.0,731.0,0.0,0,464.0,1
169,169,0.4419622688791939,0.4,0.0,0.0,350.0,938.0,0.0,1,122.0,1
170,170,-0.8884822652253977,-0.9,1.0,0.0,368.0,515.0,0.0,0,127.0,1
171,171,-0.8540446665611824,-0.9,1.0,0.0,433.0,847.0,0.0,0,160.0,1
172,172,0.06972073000046264,0.1,0.0,0.0,285.0,591.0,0.0,1,1894.0,1
173,173,-0.8320520472278123,-0.8,1.0,0.0,328.0,816.0,0.0,0,56.0,1
174,174,0.33088751879208933,0.3,1.0,1.0,283.0,783.0,1.0,1,374.0,1
175,175,-0.7781005594050179,-0.8,0.0,1.0,399.0,510.0,1.0,0,291.0,1
176,176,-0.5724817118111835,-0.6,1.0,0.0,471.0,821.0,0.0,0,108.0,1
177,177,0.22132885440277106,0.2,0.0,0.0,491.0,653.0,0.0,1,766.0,1
178,178,0.660100618163089,0.7,1.0,1.0,300.0,694.0,1.0,1,226.0,1
179,179,0.7179944193630786,0.7,1.0,1.0,429.0,986.0,1.0,1,135.0,1
180,180,0.5447178663339615,0.5,0.0,0.0,264.0,932.0,0.0,1,344.0,1
181,181,-0.7443679880556081,-0.7,0.0,1.0,301.0,942.0,1.0,0,227.0,1
182,182,-0.7570019621943537,-0.8,1.0,0.0,340.0,642.0,0.0,0,138.0,1
183,183,-0.5414987098654507,-0.5,1.0,0.0,387.0,834.0,0.0,0,89.0,1
184,184,0.4211309066961265,0.4,0.0,0.0,259.0,559.0,0.0,1,412.0,1
185,185,-0.2190685298939874,-0.2,1.0,0.0,319.0,629.0,0.0,0,412.0,1
186,186,0.13501808994900266,0.1,1.0,1.0,469.0,952.0,1.0,1,519.0,1
187,187,-0.45877124659175056,-0.5,1.0,0.0,428.0,957.0,0.0,0,175.0,1
188,188,0.007236328424213623,0.0,1.0,1.0,467.0,981.0,0.0,0,1122.0,0
189,189,0.45166664883321495,0.5,0.0,0.0,398.0,865.0,0.0,1,157.0,1
190,190,-0.5609724558780101,-0.6,1.0,0.0,452.0,586.0,0.0,0,112.0,1
191,191,-0.14992705370613257,-0.1,0.0,1.0,496.0,540.0,1.0,0,664.0,1
192,192,0.8359992161026363,0.8,1.0,1.0,307.0,590.0,1.0,1,263.0,1
193,193,0.8891988720164067,0.9,1.0,1.0,436.0,821.0,1.0,1,153.0,1
194,194,-0.7585497140299815,-0.8,1.0,0.0,366.0,720.0,0.0,0,74.0,1
195,195,0.22082343614713407,0.2,1.0,1.0,492.0,580.0,1.0,1,638.0,1
196,196,-0.20178330182295057,-0.2,0.0,1.0,278.0,719.0,1.0,0,463.0,1
197,197,-0.12769738493885685,-0.1,1.0,0.0,497.0,641.0,0.0,0,252.0,1
198,198,0.7714564676714116,0.8,1.0,1.0,335.0,845.0,1.0,1,180.0,1
199,199,0.19036484103760853,0.2,0.0,0.0,269.0,524.0,0.0,1,437.0,1
200,200,-0.06888271956818304,-0.1,1.0,0.0,321.0,942.0,0.0,0,437.0,1
201,201,-0.08371768141825009,-0.1,0.0,1.0,328.0,802.0,1.0,0,1100.0,1
202,202,-0.567473015811258,-0.6,0.0,1.0,462.0,649.0,1.0,0,329.0,1
203,203,-0.8969631675610563,-0.9,1.0,0.0,328.0,619.0,0.0,0,123.0,1
204,204,0.753213715820464,0.8,1.0,1.0,291.0,525.0,1.0,1,254.0,1
205,205,-0.6985129458344765,-0.7,1.0,0.0,380.0,876.0,0.0,0,44.0,1
206,206,-0.5358300756817238,-0.5,1.0,0.0,463.0,630.0,0.0,0,317.0,1
207,207,0.7188914900967621,0.7,1.0,1.0,402.0,742.0,1.0,1,166.0,1
208,208,-0.3237287230969498,-0.3,0.0,1.0,394.0,609.0,1.0,0,257.0,1
209,209,-0.20974823930835373,-0.2,0.0,1.0,430.0,951.0,1.0,0,529.0,1
210,210,-0.6782428745387487,-0.7,0.0,1.0,303.0,667.0,1.0,0,160.0,1
211,211,-0.4244893940808373,-0.4,1.0,0.0,306.0,685.0,0.0,0,139.0,1
212,212,0.8298778458769899,0.8,1.0,1.0,381.0,795.0,1.0,1,174.0,1
213,213,-0.10688502454887128,-0.1,0.0,1.0,433.0,880.0,1.0,0,897.0,1
214,214,0.4270204887864978,0.4,0.0,0.0,284.0,945.0,0.0,1,191.0,1
215,215,-0.8313639309159283,-0.8,0.0,1.0,250.0,726.0,1.0,0,94.0,1
216,216,0.3825295271243655,0.4,0.0,0.0,268.0,638.0,0.0,1,404.0,1
217,217,0.5154030238464432,0.5,0.0,0.0,399.0,710.0,0.0,1,191.0,1
218,218,0.19249888948277072,0.2,0.0,0.0,363.0,538.0,0.0,1,719.0,1
219,219,-0.8690578333514938,-0.9,1.0,0.0,258.0,774.0,0.0,0,118.0,1
220,220,-0.5540408412912874,-0.6,0.0,1.0,339.0,561.0,1.0,0,220.0,1
221,221,-0.45756648686635265,-0.5,1.0,0.0,275.0,774.0,0.0,0,11.0,1
222,222,-0.4897333078631219,-0.5,1.0,0.0,420.0,571.0,0.0,0,239.0,1
223,223,0.8365966144738445,0.8,0.0,0.0,308.0,580.0,0.0,1,212.0,1
224,224,-0.2108863719607409,-0.2,1.0,0.0,260.0,936.0,0.0,0,154.0,1
225,225,0.3802620031926581,0.4,1.0,1.0,404.0,805.0,1.0,1,731.0,1
226,226,-0.4933598964042909,-0.5,0.0,1.0,333.0,829.0,1.0,0,318.0,1
227,227,0.244602764308136,0.2,1.0,1.0,442.0,503.0,1.0,1,1475.0,1
228,228,-0.7070356952822449,-0.7,1.0,0.0,342.0,682.0,0.0,0,116.0,1
229,229,-0.40487407057217484,-0.4,1.0,0.0,377.0,915.0,0.0,0,98.0,1
230,230,0.010284339825893052,0.0,0.0,0.0,336.0,505.0,0.0,1,1179.0,1
231,231,0.22586628586695323,0.2,0.0,0.0,286.0,586.0,0.0,1,398.0,1
232,232,0.803583593315426,0.8,1.0,1.0,476.0,663.0,1.0,1,241.0,1
233,233,0.14268582537791297,0.1,1.0,1.0,287.0,839.0,1.0,1,1274.0,1
234,234,-0.5316016872307929,-0.5,0.0,1.0,305.0,956.0,1.0,0,259.0,1
235,235,-0.2093684111829236,-0.2,0.0,1.0,264.0,651.0,1.0,0,675.0,1
236,236,-0.04638877338157632,-0.0,0.0,1.0,397.0,909.0,1.0,0,1694.0,1
237,237,-0.14131843903923136,-0.1,0.0,1.0,385.0,743.0,1.0,0,1872.0,1
238,238,-0.7987954870928341,-0.8,1.0,0.0,409.0,741.0,0.0,0,20.0,1
239,239,-0.28893533974393415,-0.3,0.0,1.0,306.0,703.0,1.0,0,861.0,1
240,240,0.23872196752311192,0.2,1.0,1.0,382.0,683.0,1.0,1,685.0,1
241,241,0.2802187130404735,0.3,1.0,1.0,251.0,553.0,1.0,1,356.0,1
242,242,-0.16174225310209833,-0.2,0.0,1.0,400.0,670.0,1.0,0,920.0,1
243,243,-0.8197382082860264,-0.8,0.0,1.0,413.0,719.0,1.0,0,188.0,1
244,244,0.8855428403920526,0.9,1.0,1.0,458.0,560.0,1.0,1,212.0,1
245,245,-0.3971851995508354,-0.4,1.0,0.0,419.0,725.0,0.0,0,226.0,1
246,246,-0.3489401068469081,-0.3,0.0,1.0,408.0,768.0,1.0,0,544.0,1
247,247,-0.38088588019866365,-0.4,0.0,1.0,256.0,871.0,1.0,0,383.0,1
248,248,-0.6096932605520604,-0.6,1.0,0.0,488.0,735.0,0.0,0,187.0,1
249,249,-0.5063500951287112,-0.5,0.0,1.0,281.0,644.0,1.0,0,205.0,1
250,250,-0.6991092431310352,-0.7,0.0,1.0,394.0,895.0,1.0,0,181.0,1
251,251,0.7432468105515896,0.7,0.0,0.0,432.0,585.0,0.0,1,173.0,1
252,252,0.33609847850898966,0.3,1.0,1.0,441.0,658.0,1.0,1,501.0,1
253,253,0.5250288623228233,0.5,1.0,1.0,356.0,671.0,1.0,1,363.0,1
254,254,0.7696364937630854,0.8,1.0,1.0,402.0,781.0,1.0,1,207.0,1
255,255,-0.10984705320380317,-0.1,1.0,0.0,389.0,928.0,0.0,0,643.0,1
256,256,0.819292645508834,0.8,1.0,1.0,303.0,743.0,1.0,1,154.0,1
257,257,-0.15273483119027975,-0.2,1.0,0.0,319.0,733.0,0.0,0,428.0,1
258,258,0.3091228625424639,0.3,1.0,1.0,350.0,723.0,1.0,1,437.0,1
259,259,0.8735834852818279,0.9,0.0,0.0,324.0,893.0,0.0,1,83.0,1
260,260,0.5043357516935866,0.5,0.0,0.0,493.0,799.0,0.0,1,208.0,1
261,261,0.19053796109883903,0.2,1.0,1.0,328.0,693.0,1.0,1,1979.0,1
262,262,0.10392410409264119,0.1,1.0,1.0,342.0,651.0,1.0,1,1387.0,1
263,263,-0.40434875856435165,-0.4,1.0,0.0,266.0,956.0,0.0,0,238.0,1
264,264,-0.41791857027222773,-0.4,0.0,1.0,262.0,686.0,1.0,0,362.0,1
265,265,0.009351335218153567,0.0,1.0,1.0,499.0,828.0,0.0,0,1673.0,0
266,266,-0.26699420181260314,-0.3,0.0,1.0,402.0,568.0,1.0,0,800.0,1
267,267,0.8345380345583583,0.8,1.0,1.0,263.0,531.0,1.0,1,206.0,1
268,268,-0.5914297027679299,-0.6,0.0,1.0,293.0,878.0,1.0,0,279.0,1
269,269,0.11644640845446286,0.1,1.0,1.0,256.0,532.0,1.0,1,2032.0,1
270,270,0.537239228789082,0.5,1.0,1.0,415.0,567.0,1.0,1,498.0,1
271,271,-0.46256773483632857,-0.5,0.0,1.0,380.0,971.0,1.0,0,209.0,1
272,272,-0.47718964047036,-0.5,0.0,1.0,456.0,634.0,1.0,0,300.0,1
273,273,-0.14449270426719973,-0.1,0.0,1.0,303.0,890.0,1.0,0,1807.0,1
274,274,-0.4612746627650048,-0.5,0.0,1.0,378.0,517.0,1.0,0,605.0,1
275,275,0.8799734889631535,0.9,1.0,1.0,259.0,858.0,1.0,1,143.0,1
276,276,0.10840033792197723,0.1,1.0,1.0,293.0,513.0,0.0,0,184.0,0
277,277,0.8345543364480984,0.8,0.0,0.0,315.0,754.0,0.0,1,121.0,1
278,278,-0.7805892999034888,-0.8,0.0,1.0,434.0,775.0,1.0,0,941.0,1
279,279,-0.5683397292447514,-0.6,1.0,0.0,472.0,982.0,0.0,0,136.0,1
280,280,0.3611534197481915,0.4,0.0,0.0,252.0,946.0,0.0,1,42.0,1
281,281,-0.5219477657687466,-0.5,1.0,0.0,386.0,744.0,0.0,0,220.0,1
282,282,0.2894543226928247,0.3,0.0,0.0,387.0,958.0,0.0,1,635.0,1
283,283,-0.22200407516337006,-0.2,1.0,0.0,425.0,775.0,0.0,0,170.0,1
284,284,-0.4200224828394505,-0.4,0.0,1.0,281.0,761.0,1.0,0,408.0,1
285,285,0.6155201449511595,0.6,1.0,1.0,279.0,683.0,1.0,1,138.0,1
286,286,-0.08945823401380626,-0.1,1.0,0.0,491.0,979.0,0.0,0,280.0,1
287,287,0.5292577427941788,0.5,1.0,1.0,441.0,763.0,1.0,1,346.0,1
288,288,-0.3483445139086717,-0.3,1.0,0.0,482.0,933.0,0.0,0,245.0,1
289,289,0.42367564621627196,0.4,0.0,0.0,424.0,610.0,0.0,1,386.0,1
290,290,0.4983354168949915,0.5,0.0,0.0,355.0,532.0,0.0,1,443.0,1
291,291,0.4065335311937258,0.4,0.0,0.0,419.0,649.0,0.0,1,162.0,1
292,292,-0.7628409658309357,-0.8,0.0,1.0,330.0,913.0,1.0,0,237.0,1
293,293,0.1202654937082096,0.1,1.0,1.0,272.0,596.0,1.0,1,522.0,1
294,294,-0.13174747618652705,-0.1,1.0,0.0,382.0,748.0,0.0,0,560.0,1
295,295,-0.4655577513711629,-0.5,0.0,1.0,393.0,612.0,1.0,0,395.0,1
296,296,0.5678901307709111,0.6,1.0,1.0,480.0,774.0,1.0,1,226.0,1
297,297,0.7584045998785428,0.8,0.0,0.0,497.0,522.0,0.0,1,281.0,1
298,298,-0.22689679776474914,-0.2,0.0,1.0,280.0,738.0,1.0,0,182.0,1
299,299,0.4533752673671144,0.5,0.0,0.0,330.0,823.0,0.0,1,217.0,1
300,300,0.7199488127402199,0.7,0.0,0.0,256.0,865.0,0.0,1,219.0,1
301,301,0.6230390351493781,0.6,1.0,1.0,476.0,933.0,1.0,1,451.0,1
302,302,0.8731481798657591,0.9,0.0,0.0,369.0,715.0,0.0,1,96.0,1
303,303,0.7693709740548923,0.8,1.0,1.0,362.0,782.0,1.0,1,196.0,1
304,304,-0.43882645506812995,-0.4,1.0,0.0,287.0,872.0,0.0,0,111.0,1
305,305,-0.8557232891911959,-0.9,1.0,0.0,463.0,764.0,0.0,0,163.0,1
306,306,0.26546824727317675,0.3,0.0,0.0,452.0,533.0,0.0,1,265.0,1
307,307,0.8170345351628417,0.8,1.0,1.0,479.0,612.0,1.0,1,339.0,1
308,308,-0.7871279444796313,-0.8,0.0,1.0,475.0,589.0,1.0,0,346.0,1
309,309,0.6141339588246392,0.6,0.0,0.0,474.0,729.0,0.0,1,207.0,1
310,310,0.46662268833554255,0.5,1.0,1.0,419.0,548.0,1.0,1,553.0,1
311,311,-0.5781262626064267,-0.6,1.0,0.0,466.0,671.0,0.0,0,123.0,1
312,312,-0.518561583680925,-0.5,0.0,1.0,349.0,729.0,1.0,0,442.0,1
313,313,0.5450212196763916,0.5,1.0,1.0,484.0,869.0,1.0,1,297.0,1
314,314,0.1566975866698409,0.2,0.0,0.0,393.0,961.0,0.0,1,936.0,1
315,315,0.46622873485778993,0.5,0.0,0.0,339.0,737.0,0.0,1,284.0,1
316,316,0.394369362151315,0.4,1.0,1.0,339.0,909.0,1.0,1,392.0,1
317,317,-0.040714239413279896,-0.0,0.0,1.0,332.0,934.0,1.0,0,1734.0,1
318,318,0.7864410163975118,0.8,0.0,0.0,350.0,750.0,0.0,1,-80.0,1
319,319,0.3077197295482189,0.3,1.0,1.0,261.0,910.0,1.0,1,439.0,1
320,320,0.8378212374243835,0.8,0.0,0.0,334.0,559.0,0.0,1,247.0,1
321,321,-0.03047338583748238,-0.0,0.0,1.0,372.0,538.0,0.0,1,2090.0,0
322,322,-0.13760132728114993,-0.1,0.0,1.0,290.0,812.0,1.0,0,1108.0,1
323,323,0.6398831999688867,0.6,1.0,1.0,464.0,801.0,1.0,1,605.0,1
324,324,-0.8809547466515364,-0.9,1.0,0.0,335.0,718.0,0.0,0,207.0,1
325,325,-0.21229956094089064,-0.2,1.0,0.0,416.0,749.0,0.0,0,85.0,1
326,326,0.38711067299133484,0.4,1.0,1.0,289.0,981.0,1.0,1,270.0,1
327,327,0.8477170423404913,0.8,0.0,0.0,324.0,862.0,0.0,1,114.0,1
328,328,-0.016205646946518604,-0.0,1.0,0.0,380.0,797.0,0.0,0,213.0,1
329,329,0.55085530696143,0.6,0.0,0.0,484.0,577.0,0.0,1,359.0,1
330,330,-0.4661373305726267,-0.5,0.0,1.0,273.0,812.0,1.0,0,205.0,1
331,331,-0.7994449574412806,-0.8,0.0,1.0,337.0,978.0,1.0,0,95.0,1
332,332,0.23910791179073654,0.2,1.0,1.0,382.0,697.0,1.0,1,271.0,1
333,333,-0.6334628313045576,-0.6,1.0,0.0,317.0,890.0,0.0,0,63.0,1
334,334,-0.5061607524581788,-0.5,1.0,0.0,494.0,511.0,0.0,0,195.0,1
335,335,0.7969994096356144,0.8,1.0,1.0,392.0,757.0,1.0,1,81.0,1
336,336,0.3257436278182214,0.3,0.0,0.0,365.0,988.0,0.0,1,197.0,1
337,337,-0.47365119646176274,-0.5,1.0,0.0,448.0,909.0,0.0,0,123.0,1
338,338,0.7077230422426136,0.7,0.0,0.0,323.0,751.0,0.0,1,86.0,1
339,339,-0.11786200864068908,-0.1,0.0,1.0,252.0,991.0,1.0,0,1337.0,1
340,340,-0.7621767755929936,-0.8,0.0,1.0,412.0,958.0,1.0,0,180.0,1
341,341,-0.4377454653253327,-0.4,1.0,0.0,463.0,675.0,0.0,0,152.0,1
342,342,-0.8778365932710462,-0.9,1.0,0.0,252.0,505.0,0.0,0,273.0,1
343,343,0.48937655934511304,0.5,0.0,0.0,324.0,858.0,0.0,1,248.0,1
344,344,0.3527830710438179,0.4,1.0,1.0,365.0,553.0,1.0,1,642.0,1
345,345,0.4909724892996675,0.5,1.0,1.0,300.0,883.0,1.0,1,257.0,1
346,346,-0.8089388694953557,-0.8,0.0,1.0,473.0,936.0,1.0,0,361.0,1
347,347,0.6828128413422577,0.7,1.0,1.0,462.0,844.0,1.0,1,504.0,1
348,348,-0.6250789654073141,-0.6,1.0,0.0,405.0,522.0,0.0,0,263.0,1
349,349,-0.6204752347821005,-0.6,0.0,1.0,294.0,593.0,1.0,0,2113.0,1
350,350,-0.6713532898117361,-0.7,0.0,1.0,265.0,744.0,1.0,0,181.0,1
351,351,0.38205362753271455,0.4,0.0,0.0,471.0,806.0,0.0,1,173.0,1
352,352,0.5689823727272117,0.6,1.0,1.0,269.0,637.0,1.0,1,324.0,1
353,353,0.5140367729460636,0.5,1.0,1.0,324.0,995.0,1.0,1,211.0,1
354,354,0.807578075873436,0.8,1.0,1.0,250.0,508.0,1.0,1,182.0,1
355,355,0.1376992135410785,0.1,1.0,1.0,396.0,501.0,1.0,1,983.0,1
356,356,0.7528763603500656,0.8,1.0,1.0,398.0,776.0,1.0,1,276.0,1
357,357,0.03021198977731121,0.0,0.0,0.0,391.0,806.0,0.0,1,1553.0,1
358,358,-0.4081521714654848,-0.4,0.0,1.0,417.0,522.0,1.0,0,371.0,1
359,359,-0.767846420077472,-0.8,1.0,0.0,343.0,501.0,0.0,0,166.0,1
360,360,0.8827833119330833,0.9,0.0,0.0,445.0,906.0,0.0,1,89.0,1
361,361,-0.8090396632595851,-0.8,0.0,1.0,338.0,547.0,1.0,0,195.0,1
362,362,0.32183571790184906,0.3,0.0,0.0,394.0,720.0,0.0,1,556.0,1
363,363,-0.19340320783867349,-0.2,0.0,1.0,390.0,744.0,1.0,0,436.0,1
364,364,0.7854644334682129,0.8,0.0,0.0,378.0,598.0,0.0,1,294.0,1
365,365,0.2200660412413341,0.2,0.0,0.0,439.0,803.0,0.0,1,218.0,1
366,366,-0.00857244573286764,-0.0,1.0,0.0,397.0,656.0,0.0,0,1907.0,1
367,367,-0.6555831925363123,-0.7,1.0,0.0,282.0,513.0,0.0,0,225.0,1
368,368,0.7624062004031783,0.8,0.0,0.0,375.0,603.0,0.0,1,182.0,1
369,369,-0.1030657469885653,-0.1,1.0,0.0,466.0,965.0,0.0,0,1029.0,1
370,370,0.46230523093580633,0.5,1.0,1.0,325.0,887.0,1.0,1,218.0,1
371,371,0.7489678729637793,0.7,1.0,1.0,321.0,944.0,1.0,1,165.0,1
372,372,-0.574381030968967,-0.6,1.0,0.0,453.0,915.0,0.0,0,162.0,1
373,373,-0.6033485880364348,-0.6,0.0,1.0,360.0,962.0,1.0,0,238.0,1
374,374,0.8990520788411102,0.9,1.0,1.0,285.0,568.0,1.0,1,327.0,1
375,375,-0.2831075669551366,-0.3,1.0,0.0,423.0,799.0,0.0,0,378.0,1
376,376,0.33876807537725717,0.3,1.0,1.0,289.0,509.0,1.0,1,652.0,1
377,377,-0.17928636484974292,-0.2,0.0,1.0,357.0,552.0,1.0,0,661.0,1
378,378,0.11733018912879245,0.1,0.0,0.0,322.0,540.0,0.0,1,768.0,1
379,379,0.2889673823592508,0.3,1.0,1.0,418.0,832.0,1.0,1,430.0,1
380,380,-0.3564524619819126,-0.4,0.0,1.0,478.0,887.0,1.0,0,175.0,1
381,381,0.301207995717646,0.3,0.0,0.0,255.0,903.0,0.0,1,442.0,1
382,382,0.8625162849727804,0.9,0.0,0.0,290.0,706.0,0.0,1,274.0,1
383,383,-0.703522021682236,-0.7,1.0,0.0,357.0,887.0,0.0,0,46.0,1
384,384,0.004403859682102218,0.0,1.0,1.0,398.0,906.0,0.0,0,146.0,0
385,385,0.005753167145827076,0.0,0.0,0.0,458.0,672.0,1.0,0,1870.0,0
386,386,0.3287040074647031,0.3,0.0,0.0,497.0,780.0,0.0,1,333.0,1
387,387,0.11234351128422004,0.1,0.0,0.0,268.0,684.0,0.0,1,208.0,1
388,388,0.101374886738825,0.1,1.0,1.0,478.0,982.0,1.0,1,1540.0,1
389,389,0.22049126348486248,0.2,1.0,1.0,279.0,883.0,1.0,1,1048.0,1
390,390,0.4429901288483479,0.4,1.0,1.0,310.0,533.0,1.0,1,197.0,1
391,391,0.3649860459134183,0.4,1.0,1.0,450.0,845.0,1.0,1,835.0,1
392,392,0.44560143004653885,0.4,1.0,1.0,480.0,691.0,1.0,1,319.0,1
393,393,0.2481901090744233,0.2,0.0,0.0,289.0,557.0,0.0,1,474.0,1
394,394,-0.2414128681402199,-0.2,0.0,1.0,255.0,945.0,1.0,0,410.0,1
395,395,-0.03688493615141719,-0.0,1.0,0.0,486.0,732.0,0.0,0,762.0,1
396,396,-0.7335739866833177,-0.7,0.0,1.0,270.0,627.0,1.0,0,133.0,1
397,397,0.21407186573494863,0.2,1.0,1.0,452.0,915.0,1.0,1,393.0,1
398,398,-0.8260189776385809,-0.8,0.0,1.0,282.0,512.0,1.0,0,246.0,1
399,399,-0.4884021282666451,-0.5,1.0,0.0,437.0,986.0,0.0,0,157.0,1
400,400,-0.05263933364397033,-0.1,1.0,0.0,499.0,693.0,0.0,0,458.0,1
401,401,0.854365639541652,0.9,0.0,0.0,328.0,734.0,0.0,1,128.0,1
402,402,-0.734620680400617,-0.7,1.0,0.0,433.0,819.0,0.0,0,58.0,1
403,403,-0.8951728784675155,-0.9,1.0,0.0,349.0,897.0,0.0,0,124.0,1
404,404,0.5113812934022662,0.5,1.0,1.0,362.0,928.0,1.0,1,150.0,1
405,405,-0.626270271415784,-0.6,0.0,1.0,444.0,969.0,1.0,0,57.0,1
406,406,-0.7583229006259335,-0.8,1.0,0.0,471.0,657.0,0.0,0,202.0,1
407,407,-0.028112013514825618,-0.0,1.0,0.0,385.0,933.0,0.0,0,792.0,1
408,408,0.6060318350035029,0.6,1.0,1.0,456.0,673.0,1.0,1,501.0,1
409,409,0.44779980290185295,0.4,0.0,0.0,487.0,991.0,0.0,1,72.0,1
410,410,0.723373428376222,0.7,0.0,0.0,451.0,753.0,0.0,1,146.0,1
411,411,-0.046327810610242826,-0.0,1.0,0.0,491.0,742.0,0.0,0,597.0,1
412,412,0.056020653119550956,0.1,0.0,0.0,411.0,794.0,0.0,1,715.0,1
413,413,0.3367679001287224,0.3,0.0,0.0,266.0,742.0,0.0,1,332.0,1
414,414,0.7794276101301648,0.8,1.0,1.0,349.0,745.0,1.0,1,446.0,1
415,415,-0.21790456441236727,-0.2,1.0,0.0,375.0,557.0,0.0,0,128.0,1
416,416,-0.12280498886666547,-0.1,1.0,0.0,392.0,528.0,0.0,0,630.0,1
417,417,0.24222100367576338,0.2,1.0,1.0,254.0,878.0,1.0,1,178.0,1
418,418,-0.37098457588196565,-0.4,0.0,1.0,419.0,868.0,1.0,0,473.0,1
419,419,-0.3343697231024366,-0.3,0.0,1.0,466.0,641.0,1.0,0,203.0,1
420,420,0.5033384084853202,0.5,0.0,0.0,319.0,647.0,0.0,1,154.0,1
421,421,0.2732711125886852,0.3,0.0,0.0,332.0,500.0,0.0,1,318.0,1
422,422,0.3656163236800728,0.4,0.0,0.0,486.0,505.0,0.0,1,549.0,1
423,423,0.6985987347819148,0.7,0.0,0.0,310.0,791.0,0.0,1,249.0,1
424,424,-0.7089277306171642,-0.7,0.0,1.0,291.0,770.0,1.0,0,289.0,1
425,425,-0.40222209737806874,-0.4,0.0,1.0,300.0,837.0,1.0,0,723.0,1
426,426,-0.30816796466705887,-0.3,0.0,1.0,323.0,891.0,1.0,0,806.0,1
427,427,0.19575555218647966,0.2,1.0,1.0,420.0,513.0,1.0,1,687.0,1
428,428,0.6254874935671385,0.6,1.0,1.0,425.0,805.0,1.0,1,180.0,1
429,429,0.8299708469594863,0.8,0.0,0.0,470.0,735.0,0.0,1,135.0,1
430,430,0.5566139519617807,0.6,1.0,1.0,264.0,910.0,1.0,1,196.0,1
431,431,0.1388471891645754,0.1,0.0,0.0,297.0,746.0,0.0,1,547.0,1
432,432,-0.7970882801672093,-0.8,0.0,1.0,275.0,739.0,1.0,0,206.0,1
433,433,-0.7069609037350434,-0.7,0.0,1.0,252.0,813.0,1.0,0,355.0,1
434,434,0.2580683485015064,0.3,0.0,0.0,329.0,855.0,0.0,1,276.0,1
435,435,-0.75820523428908,-0.8,1.0,0.0,453.0,859.0,0.0,0,178.0,1
436,436,0.6842376416170487,0.7,0.0,0.0,421.0,587.0,0.0,1,132.0,1
437,437,-0.5712119632173605,-0.6,1.0,0.0,322.0,783.0,0.0,0,185.0,1
438,438,0.2556529518734346,0.3,0.0,0.0,304.0,635.0,0.0,1,171.0,1
439,439,-0.4855490358269603,-0.5,0.0,1.0,394.0,807.0,1.0,0,369.0,1
440,440,-0.017074856831478913,-0.0,0.0,1.0,457.0,790.0,1.0,0,1753.0,1
441,441,-0.5978624636712493,-0.6,1.0,0.0,387.0,763.0,0.0,0,110.0,1
442,442,0.7311896662576837,0.7,1.0,1.0,373.0,927.0,1.0,1,390.0,1
443,443,0.7020706491779333,0.7,0.0,0.0,405.0,841.0,0.0,1,124.0,1
444,444,-0.09951050392241823,-0.1,0.0,1.0,441.0,549.0,1.0,0,2010.0,1
445,445,0.8471473974621518,0.8,1.0,1.0,328.0,973.0,1.0,1,139.0,1
446,446,0.0528503942565991,0.1,0.0,0.0,327.0,605.0,0.0,1,2068.0,1
447,447,-0.6949370823092351,-0.7,0.0,1.0,477.0,548.0,1.0,0,515.0,1
448,448,-0.8058113816498186,-0.8,0.0,1.0,331.0,701.0,1.0,0,178.0,1
449,449,-0.8719290120031571,-0.9,1.0,0.0,499.0,560.0,0.0,0,111.0,1
450,450,-0.17522731235826072,-0.2,0.0,1.0,371.0,806.0,1.0,0,923.0,1
451,451,0.3157707615672706,0.3,0.0,0.0,273.0,882.0,0.0,1,455.0,1
452,452,0.28773458414729614,0.3,0.0,0.0,342.0,650.0,0.0,1,368.0,1
453,453,0.5472247578539152,0.5,1.0,1.0,297.0,601.0,1.0,1,242.0,1
454,454,-0.5050159671593797,-0.5,1.0,0.0,404.0,826.0,0.0,0,210.0,1
455,455,0.47568283316451454,0.5,1.0,1.0,412.0,768.0,1.0,1,490.0,1
456,456,0.7320530337137391,0.7,0.0,0.0,459.0,610.0,0.0,1,361.0,1
457,457,0.25298969264004334,0.3,1.0,1.0,283.0,889.0,1.0,1,588.0,1
458,458,0.731552417831994,0.7,1.0,1.0,482.0,778.0,1.0,1,220.0,1
459,459,-0.11785167270646679,-0.1,1.0,0.0,251.0,813.0,0.0,0,356.0,1
460,460,-0.7328177754935556,-0.7,1.0,0.0,358.0,881.0,0.0,0,171.0,1
461,461,0.4535977715402285,0.5,1.0,1.0,363.0,533.0,1.0,1,794.0,1
462,462,-0.8253727831291773,-0.8,0.0,1.0,414.0,768.0,1.0,0,448.0,1
463,463,0.5016713571663086,0.5,0.0,0.0,393.0,900.0,0.0,1,97.0,1
464,464,-0.30642724014533107,-0.3,0.0,1.0,312.0,828.0,1.0,0,450.0,1
465,465,-0.6252796357015364,-0.6,1.0,0.0,430.0,821.0,0.0,0,189.0,1
466,466,0.5352499730930159,0.5,1.0,1.0,269.0,534.0,1.0,1,417.0,1
467,467,0.47634200811991867,0.5,1.0,1.0,304.0,983.0,1.0,1,223.0,1
468,468,0.6194328691798662,0.6,0.0,0.0,286.0,946.0,0.0,1,88.0,1
469,469,-0.6844779685926569,-0.7,0.0,1.0,492.0,722.0,1.0,0,196.0,1
470,470,-0.1938742350593723,-0.2,0.0,1.0,266.0,875.0,1.0,0,1859.0,1
471,471,0.8923971058600643,0.9,0.0,0.0,496.0,500.0,0.0,1,394.0,1
472,472,-0.49608019979013557,-0.5,0.0,1.0,445.0,685.0,1.0,0,590.0,1
473,473,0.05696602614382318,0.1,1.0,1.0,382.0,999.0,1.0,1,-141.0,1
474,474,-0.6164733608356139,-0.6,0.0,1.0,295.0,712.0,1.0,0,123.0,1
475,475,0.07249457233837142,0.1,1.0,1.0,343.0,921.0,1.0,1,1276.0,1
476,476,-0.1394301751517718,-0.1,1.0,0.0,297.0,601.0,0.0,0,842.0,1
477,477,-0.7061854939779988,-0.7,0.0,1.0,420.0,508.0,1.0,0,382.0,1
478,478,0.8494030952207096,0.8,0.0,0.0,405.0,907.0,0.0,1,68.0,1
479,479,-0.31390608282406907,-0.3,1.0,0.0,407.0,568.0,0.0,0,355.0,1
480,480,-0.21107396540960333,-0.2,0.0,1.0,343.0,811.0,1.0,0,396.0,1
481,481,-0.8370590745605078,-0.8,0.0,1.0,291.0,576.0,1.0,0,263.0,1
482,482,-0.11915241101396146,-0.1,0.0,1.0,341.0,997.0,1.0,0,602.0,1
483,483,0.23082514784796915,0.2,1.0,1.0,488.0,730.0,1.0,1,652.0,1
484,484,0.5449808493671079,0.5,0.0,0.0,300.0,974.0,0.0,1,156.0,1
485,485,0.7308206342478799,0.7,0.0,0.0,497.0,919.0,0.0,1,174.0,1
486,486,0.10303962101605857,0.1,0.0,0.0,306.0,920.0,0.0,1,384.0,1
487,487,-0.7111380850678805,-0.7,0.0,1.0,435.0,904.0,1.0,0,221.0,1
488,488,-0.01038783434671886,-0.0,1.0,0.0,348.0,777.0,0.0,0,725.0,1
489,489,0.021960133320117148,0.0,0.0,0.0,470.0,593.0,1.0,0,557.0,0
490,490,0.7477335686099874,0.7,0.0,0.0,345.0,718.0,0.0,1,47.0,1
491,491,-0.42205459046404487,-0.4,1.0,0.0,256.0,757.0,0.0,0,247.0,1
492,492,0.2197715112059092,0.2,1.0,1.0,266.0,632.0,1.0,1,592.0,1
493,493,-0.6137545048901198,-0.6,0.0,1.0,487.0,561.0,1.0,0,1012.0,1
494,494,0.4932645922538553,0.5,0.0,0.0,407.0,894.0,0.0,1,389.0,1
495,495,-0.18358179562999288,-0.2,1.0,0.0,372.0,993.0,0.0,0,245.0,1
496,496,0.4055799858796042,0.4,0.0,0.0,331.0,557.0,0.0,1,342.0,1
497,497,0.7481603571387713,0.7,1.0,1.0,379.0,822.0,1.0,1,189.0,1
498,498,0.4565732703665083,0.5,1.0,1.0,391.0,830.0,1.0,1,229.0,1
499,499,0.030475548538452024,0.0,1.0,1.0,444.0,776.0,1.0,1,1780.0,1
500,500,-0.22716567167099844,-0.2,0.0,1.0,348.0,846.0,1.0,0,1806.0,1
501,501,0.2884235987750702,0.3,1.0,1.0,374.0,823.0,1.0,1,223.0,1
502,502,-0.5712267214580158,-0.6,0.0,1.0,464.0,772.0,1.0,0,554.0,1
503,503,0.8933262502993861,0.9,0.0,0.0,388.0,738.0,0.0,1,194.0,1
504,504,0.5329513381472216,0.5,1.0,1.0,299.0,608.0,1.0,1,263.0,1
505,505,0.3281947197881371,0.3,0.0,0.0,320.0,706.0,0.0,1,344.0,1
506,506,0.09518347893390677,0.1,0.0,0.0,393.0,525.0,0.0,1,1882.0,1
507,507,0.5626374164114013,0.6,0.0,0.0,349.0,900.0,0.0,1,81.0,1
508,508,0.47481510510962044,0.5,1.0,1.0,265.0,624.0,1.0,1,391.0,1
509,509,0.374585460374521,0.4,1.0,1.0,475.0,565.0,1.0,1,590.0,1
510,510,-0.30347637155083307,-0.3,0.0,1.0,284.0,790.0,1.0,0,386.0,1
511,511,-0.6226113780565494,-0.6,0.0,1.0,309.0,919.0,1.0,0,162.0,1
512,512,0.5880751609894767,0.6,0.0,0.0,403.0,672.0,0.0,1,315.0,1
513,513,0.7455844480948758,0.7,1.0,1.0,263.0,863.0,1.0,1,154.0,1
514,514,0.16245148214672966,0.2,0.0,0.0,360.0,546.0,0.0,1,834.0,1
515,515,0.5255103265306021,0.5,0.0,0.0,397.0,955.0,0.0,1,88.0,1
516,516,0.7300394819751593,0.7,0.0,0.0,393.0,880.0,0.0,1,77.0,1
517,517,0.177074970139525,0.2,1.0,1.0,453.0,800.0,1.0,1,527.0,1
518,518,-0.24423775604278808,-0.2,1.0,0.0,383.0,635.0,0.0,0,332.0,1
519,519,-0.13780276257215274,-0.1,0.0,1.0,403.0,799.0,1.0,0,1798.0,1
520,520,-0.4823840587365086,-0.5,0.0,1.0,288.0,973.0,1.0,0,169.0,1
521,521,-0.873918405212471,-0.9,0.0,1.0,496.0,808.0,1.0,0,326.0,1
522,522,0.24013676754406588,0.2,1.0,1.0,354.0,575.0,1.0,1,1221.0,1
523,523,0.03191723582086925,0.0,0.0,0.0,348.0,993.0,0.0,1,1659.0,1
524,524,-0.4882208304340639,-0.5,0.0,1.0,423.0,662.0,1.0,0,495.0,1
525,525,0.4974092745985944,0.5,1.0,1.0,283.0,569.0,1.0,1,538.0,1
526,526,0.05195849359026028,0.1,0.0,0.0,306.0,900.0,0.0,1,1304.0,1
527,527,-0.5834679560908316,-0.6,0.0,1.0,367.0,961.0,1.0,0,162.0,1
528,528,-0.13235021705842642,-0.1,0.0,1.0,315.0,600.0,1.0,0,2085.0,1
529,529,-0.2516746801240408,-0.3,1.0,0.0,306.0,836.0,0.0,0,-112.0,1
530,530,0.015638433583428313,0.0,0.0,0.0,388.0,928.0,0.0,1,1064.0,1
531,531,-0.4521629480661706,-0.5,0.0,1.0,433.0,814.0,1.0,0,383.0,1
532,532,-0.41197533033711076,-0.4,1.0,0.0,418.0,951.0,0.0,0,211.0,1
533,533,0.3221523770111522,0.3,0.0,0.0,384.0,779.0,0.0,1,277.0,1
534,534,-0.271292788131968,-0.3,1.0,0.0,309.0,675.0,0.0,0,256.0,1
535,535,-0.7702392154552646,-0.8,1.0,0.0,363.0,877.0,0.0,0,40.0,1
536,536,-0.5551304422867684,-0.6,0.0,1.0,481.0,674.0,1.0,0,315.0,1
537,537,-0.5747010768011545,-0.6,1.0,0.0,262.0,955.0,0.0,0,163.0,1
538,538,-0.009941484802154954,-0.0,0.0,1.0,378.0,939.0,0.0,1,543.0,0
539,539,-0.1533571854794631,-0.2,0.0,1.0,478.0,726.0,1.0,0,756.0,1
540,540,-0.7843535570059715,-0.8,1.0,0.0,400.0,514.0,0.0,0,216.0,1
541,541,-0.8631742617480535,-0.9,0.0,1.0,287.0,644.0,1.0,0,379.0,1
542,542,-0.08680962473438181,-0.1,1.0,0.0,388.0,862.0,0.0,0,1000.0,1
543,543,0.5382906849154688,0.5,1.0,1.0,365.0,953.0,1.0,1,122.0,1
544,544,-0.28115261230261135,-0.3,0.0,1.0,290.0,893.0,1.0,0,547.0,1
545,545,0.1403162319917578,0.1,1.0,1.0,254.0,653.0,1.0,1,863.0,1
546,546,0.8845021436196551,0.9,1.0,1.0,485.0,905.0,1.0,1,180.0,1
547,547,0.2950768853469131,0.3,0.0,0.0,303.0,965.0,0.0,1,-238.0,1
548,548,-0.3050832217742594,-0.3,1.0,0.0,290.0,774.0,0.0,0,-34.0,1
549,549,0.5079642107577033,0.5,1.0,1.0,477.0,550.0,1.0,1,303.0,1
550,550,-0.2925636230797669,-0.3,1.0,0.0,458.0,857.0,0.0,0,245.0,1
551,551,0.568740954695322,0.6,0.0,0.0,416.0,655.0,0.0,1,269.0,1
552,552,0.24024376871382824,0.2,1.0,1.0,442.0,563.0,1.0,1,755.0,1
553,553,0.5917035913180625,0.6,0.0,0.0,485.0,506.0,0.0,1,269.0,1
554,554,0.5336025356964814,0.5,1.0,1.0,308.0,950.0,1.0,1,272.0,1
555,555,-0.43009753165665904,-0.4,1.0,0.0,427.0,961.0,0.0,0,152.0,1
556,556,-0.7800215849090094,-0.8,1.0,0.0,461.0,517.0,0.0,0,292.0,1
557,557,0.5773596153381256,0.6,1.0,1.0,359.0,845.0,1.0,1,326.0,1
558,558,-0.3426519941993812,-0.3,0.0,1.0,321.0,609.0,1.0,0,890.0,1
559,559,-0.7412125275105423,-0.7,1.0,0.0,488.0,884.0,0.0,0,158.0,1
560,560,0.47267646094911575,0.5,1.0,1.0,397.0,600.0,1.0,1,353.0,1
561,561,-0.841941448987195,-0.8,0.0,1.0,493.0,679.0,1.0,0,88.0,1
562,562,-0.12254013050279178,-0.1,0.0,1.0,350.0,857.0,1.0,0,923.0,1
563,563,0.38299630258139794,0.4,0.0,0.0,497.0,529.0,0.0,1,134.0,1
564,564,-0.473128001055447,-0.5,0.0,1.0,291.0,719.0,1.0,0,190.0,1
565,565,-0.059408456561311884,-0.1,0.0,1.0,350.0,884.0,1.0,0,1766.0,1
566,566,0.6575690521601428,0.7,1.0,1.0,480.0,948.0,1.0,1,192.0,1
567,567,0.019426393447590895,0.0,1.0,1.0,302.0,863.0,0.0,0,865.0,0
568,568,-0.586133326617228,-0.6,1.0,0.0,377.0,660.0,0.0,0,163.0,1
569,569,-0.22319799557660114,-0.2,0.0,1.0,409.0,779.0,1.0,0,502.0,1
570,570,0.5826521956208962,0.6,1.0,1.0,402.0,886.0,1.0,1,252.0,1
571,571,0.1923154141146176,0.2,0.0,0.0,385.0,989.0,0.0,1,366.0,1
572,572,0.4800617181962895,0.5,1.0,1.0,466.0,789.0,1.0,1,235.0,1
573,573,0.15409555344606185,0.2,1.0,1.0,284.0,998.0,1.0,1,488.0,1
574,574,0.8360611349998496,0.8,1.0,1.0,271.0,932.0,1.0,1,127.0,1
575,575,0.6470883415087337,0.6,1.0,1.0,302.0,944.0,1.0,1,154.0,1
576,576,0.47917063674865845,0.5,0.0,0.0,460.0,814.0,0.0,1,296.0,1
577,577,-0.19401485402616658,-0.2,0.0,1.0,254.0,652.0,1.0,0,1344.0,1
578,578,0.3749233679954328,0.4,0.0,0.0,400.0,931.0,0.0,1,289.0,1
579,579,0.16704092757912725,0.2,0.0,0.0,375.0,632.0,0.0,1,883.0,1
580,580,0.7581835809163023,0.8,1.0,1.0,282.0,964.0,0.0,0,-206.0,0
581,581,-0.14535006567960573,-0.1,1.0,0.0,394.0,625.0,0.0,0,231.0,1
582,582,-0.006202140470931705,-0.0,1.0,0.0,287.0,859.0,0.0,0,304.0,1
583,583,0.7604073612401484,0.8,0.0,0.0,291.0,857.0,0.0,1,132.0,1
584,584,-0.20357591913078965,-0.2,1.0,0.0,449.0,509.0,0.0,0,262.0,1
585,585,-0.5888382883122844,-0.6,1.0,0.0,290.0,614.0,0.0,0,166.0,1
586,586,0.33832819997506125,0.3,0.0,0.0,498.0,794.0,0.0,1,788.0,1
587,587,0.2516606546086094,0.3,0.0,0.0,427.0,986.0,0.0,1,247.0,1
588,588,0.6142662281940238,0.6,1.0,1.0,347.0,892.0,1.0,1,231.0,1
589,589,0.017314468982733144,0.0,0.0,0.0,466.0,969.0,1.0,0,1565.0,0
590,590,0.43008538741459257,0.4,1.0,1.0,291.0,749.0,1.0,1,180.0,1
591,591,0.1435420170891596,0.1,1.0,1.0,486.0,603.0,1.0,1,1491.0,1
592,592,0.4420356886364992,0.4,1.0,1.0,319.0,921.0,1.0,1,270.0,1
593,593,-0.2569789914296351,-0.3,0.0,1.0,261.0,572.0,1.0,0,747.0,1
594,594,-0.1796500208420907,-0.2,0.0,1.0,316.0,757.0,1.0,0,697.0,1
595,595,0.6384009771101552,0.6,0.0,0.0,462.0,560.0,0.0,1,198.0,1
596,596,0.7866301427352064,0.8,1.0,1.0,498.0,818.0,1.0,1,204.0,1
597,597,0.5924622254958615,0.6,1.0,1.0,262.0,925.0,1.0,1,123.0,1
598,598,0.533539042435511,0.5,1.0,1.0,338.0,975.0,1.0,1,117.0,1
599,599,0.04581181318986016,0.0,0.0,0.0,361.0,624.0,0.0,1,1055.0,1
600,600,-0.6891992889514549,-0.7,1.0,0.0,367.0,970.0,0.0,0,133.0,1
601,601,0.4541588917115148,0.5,0.0,0.0,369.0,839.0,0.0,1,22.0,1
602,602,0.5488826818700178,0.5,0.0,0.0,451.0,795.0,0.0,1,184.0,1
603,603,-0.03741687267482907,-0.0,0.0,1.0,351.0,931.0,1.0,0,1718.0,1
604,604,-0.1357072113612321,-0.1,0.0,1.0,320.0,807.0,1.0,0,1873.0,1
605,605,0.8138023552935404,0.8,0.0,0.0,329.0,597.0,0.0,1,254.0,1
606,606,0.6651825682125246,0.7,0.0,0.0,370.0,887.0,0.0,1,273.0,1
607,607,-0.06993452742648798,-0.1,1.0,0.0,317.0,818.0,0.0,0,1535.0,1
608,608,-0.22755122865523447,-0.2,1.0,0.0,348.0,994.0,0.0,0,128.0,1
609,609,-0.2468072972666503,-0.2,0.0,1.0,322.0,721.0,1.0,0,477.0,1
610,610,-0.40164314179306143,-0.4,1.0,0.0,422.0,526.0,0.0,0,222.0,1
611,611,0.2521087964528145,0.3,1.0,1.0,370.0,563.0,1.0,1,427.0,1
612,612,0.7712850897713349,0.8,1.0,1.0,322.0,605.0,1.0,1,193.0,1
613,613,0.29705148659910974,0.3,0.0,0.0,484.0,986.0,0.0,1,360.0,1
614,614,-0.7791535416860021,-0.8,0.0,1.0,404.0,525.0,1.0,0,971.0,1
615,615,0.2797611129326648,0.3,0.0,0.0,419.0,841.0,0.0,1,280.0,1
616,616,-0.18115033737879382,-0.2,0.0,1.0,337.0,586.0,1.0,0,2017.0,1
617,617,0.3861617942731158,0.4,1.0,1.0,420.0,840.0,1.0,1,790.0,1
618,618,-0.8305289341168872,-0.8,1.0,0.0,257.0,778.0,0.0,0,95.0,1
619,619,0.16798012296429776,0.2,0.0,0.0,437.0,816.0,0.0,1,937.0,1
620,620,0.45189963855475324,0.5,0.0,0.0,303.0,879.0,0.0,1,248.0,1
621,621,0.4735565086572283,0.5,1.0,1.0,401.0,928.0,1.0,1,231.0,1
622,622,0.680325271373366,0.7,0.0,0.0,287.0,536.0,0.0,1,227.0,1
623,623,-0.1958649437867419,-0.2,0.0,1.0,465.0,977.0,1.0,0,918.0,1
624,624,-0.2602262910107942,-0.3,0.0,1.0,274.0,903.0,1.0,0,693.0,1
625,625,0.03435284105797065,0.0,1.0,1.0,412.0,712.0,1.0,1,1876.0,1
626,626,0.3900676858004638,0.4,1.0,1.0,415.0,887.0,1.0,1,498.0,1
627,627,0.47840268272602005,0.5,1.0,1.0,471.0,720.0,1.0,1,279.0,1
628,628,-0.4460810009596251,-0.4,0.0,1.0,336.0,852.0,1.0,0,352.0,1
629,629,-0.4106757932230752,-0.4,1.0,0.0,384.0,810.0,0.0,0,96.0,1
630,630,0.3883736859660868,0.4,0.0,0.0,347.0,773.0,0.0,1,150.0,1
631,631,-0.6506683062497935,-0.7,0.0,1.0,434.0,781.0,1.0,0,175.0,1
632,632,0.5031998164717401,0.5,0.0,0.0,366.0,597.0,0.0,1,227.0,1
633,633,-0.015661295527322094,-0.0,0.0,1.0,462.0,703.0,0.0,1,1645.0,0
634,634,0.33908090717222505,0.3,0.0,0.0,340.0,883.0,0.0,1,207.0,1
635,635,0.15585889236525474,0.2,0.0,0.0,399.0,556.0,0.0,1,385.0,1
636,636,-0.00704097820916838,-0.0,0.0,1.0,382.0,894.0,0.0,1,1724.0,0
637,637,-0.42600440729007155,-0.4,0.0,1.0,252.0,909.0,1.0,0,409.0,1
638,638,0.6660925665135807,0.7,1.0,1.0,486.0,930.0,1.0,1,154.0,1
639,639,0.25023097963594065,0.3,1.0,1.0,467.0,810.0,1.0,1,353.0,1
640,640,-0.6288689814910012,-0.6,1.0,0.0,351.0,664.0,0.0,0,85.0,1
641,641,-0.21095449768390262,-0.2,0.0,1.0,339.0,797.0,1.0,0,684.0,1
642,642,0.49900040654973876,0.5,0.0,0.0,303.0,526.0,0.0,1,291.0,1
643,643,0.680039237612254,0.7,1.0,1.0,275.0,512.0,1.0,1,163.0,1
644,644,-0.087461247239915,-0.1,0.0,1.0,287.0,646.0,1.0,0,2067.0,1
645,645,-0.5335072408707122,-0.5,0.0,1.0,342.0,779.0,1.0,0,359.0,1
646,646,0.1624967133805838,0.2,1.0,1.0,426.0,548.0,1.0,1,1226.0,1
647,647,-0.2412715717313464,-0.2,1.0,0.0,252.0,758.0,0.0,0,140.0,1
648,648,0.3827683133752454,0.4,0.0,0.0,313.0,618.0,0.0,1,259.0,1
649,649,0.13818517300842525,0.1,1.0,1.0,427.0,943.0,1.0,1,830.0,1
650,650,-0.33192141460253455,-0.3,0.0,1.0,413.0,704.0,1.0,0,523.0,1
651,651,-0.39082697676411404,-0.4,0.0,1.0,384.0,726.0,1.0,0,400.0,1
652,652,-0.8640014073110505,-0.9,0.0,1.0,304.0,832.0,1.0,0,144.0,1
653,653,0.7593678976380723,0.8,0.0,0.0,396.0,969.0,0.0,1,85.0,1
654,654,-0.8120334572614316,-0.8,0.0,1.0,290.0,867.0,0.0,1,-87.0,0
655,655,0.7299047282848193,0.7,1.0,1.0,329.0,696.0,1.0,1,125.0,1
656,656,-0.8451345104893295,-0.8,0.0,1.0,395.0,978.0,1.0,0,467.0,1
657,657,0.8443278027902649,0.8,1.0,1.0,397.0,694.0,1.0,1,219.0,1
658,658,-0.8100599246379712,-0.8,1.0,0.0,476.0,821.0,0.0,0,223.0,1
659,659,-0.8071811563733083,-0.8,0.0,1.0,289.0,578.0,1.0,0,173.0,1
660,660,-0.7639542363787524,-0.8,0.0,1.0,486.0,651.0,1.0,0,433.0,1
661,661,0.885201931861518,0.9,1.0,1.0,418.0,916.0,1.0,1,336.0,1
662,662,0.765785272925633,0.8,1.0,1.0,330.0,639.0,1.0,1,281.0,1
663,663,0.41779331283947607,0.4,0.0,0.0,304.0,672.0,0.0,1,204.0,1
664,664,0.22235769713978348,0.2,0.0,0.0,317.0,833.0,0.0,1,330.0,1
665,665,-0.8707409818142926,-0.9,1.0,0.0,468.0,658.0,0.0,0,114.0,1
666,666,0.715940362781725,0.7,0.0,0.0,292.0,858.0,0.0,1,420.0,1
667,667,0.11627607046731925,0.1,1.0,1.0,484.0,547.0,1.0,1,1969.0,1
668,668,-0.8902976253864212,-0.9,0.0,1.0,442.0,982.0,1.0,0,176.0,1
669,669,0.058286034406526355,0.1,0.0,0.0,439.0,934.0,0.0,1,847.0,1
670,670,-0.7563598196733441,-0.8,1.0,0.0,366.0,912.0,0.0,0,42.0,1
671,671,-0.3699615664639462,-0.4,1.0,0.0,472.0,599.0,0.0,0,249.0,1
672,672,-0.6674902950158659,-0.7,0.0,1.0,362.0,924.0,1.0,0,264.0,1
673,673,-0.5582368509961502,-0.6,1.0,0.0,446.0,523.0,0.0,0,251.0,1
674,674,0.10071174629425317,0.1,1.0,1.0,478.0,894.0,1.0,1,1628.0,1
675,675,-0.8937192867137975,-0.9,1.0,0.0,426.0,794.0,0.0,0,180.0,1
676,676,-0.012737617366593956,-0.0,1.0,0.0,481.0,744.0,0.0,0,-75.0,1
677,677,-0.614122821571406,-0.6,0.0,1.0,282.0,555.0,1.0,0,633.0,1
678,678,0.6249399756857049,0.6,0.0,0.0,336.0,875.0,0.0,1,119.0,1
679,679,0.06695041069164365,0.1,1.0,1.0,383.0,538.0,1.0,1,1889.0,1
680,680,0.6450915032637786,0.6,0.0,0.0,452.0,753.0,0.0,1,245.0,1
681,681,-0.05197298232276093,-0.1,1.0,0.0,389.0,878.0,0.0,0,1583.0,1
682,682,-0.6804517805362114,-0.7,1.0,0.0,326.0,674.0,0.0,0,170.0,1
683,683,0.3990796098974775,0.4,1.0,1.0,287.0,618.0,1.0,1,275.0,1
684,684,0.1543673737485295,0.2,1.0,1.0,438.0,799.0,1.0,1,1063.0,1
685,685,-0.6429666597742886,-0.6,1.0,0.0,260.0,589.0,0.0,0,141.0,1
686,686,0.19269523067475658,0.2,1.0,1.0,367.0,638.0,1.0,1,995.0,1
687,687,-0.514032372245723,-0.5,1.0,0.0,293.0,509.0,0.0,0,268.0,1
688,688,-0.8501347033487023,-0.9,1.0,0.0,326.0,641.0,0.0,0,83.0,1
689,689,0.7678123937916651,0.8,1.0,1.0,495.0,739.0,1.0,1,306.0,1
690,690,0.504379527902627,0.5,0.0,0.0,311.0,938.0,0.0,1,201.0,1
691,691,-0.09471138878102359,-0.1,0.0,1.0,373.0,911.0,1.0,0,1546.0,1
692,692,-0.5704156565702065,-0.6,0.0,1.0,496.0,546.0,1.0,0,918.0,1
693,693,-0.755965501168644,-0.8,1.0,0.0,486.0,716.0,0.0,0,138.0,1
694,694,-0.23675030069870795,-0.2,1.0,0.0,496.0,890.0,0.0,0,214.0,1
695,695,0.6905405828838943,0.7,0.0,0.0,439.0,785.0,0.0,1,316.0,1
696,696,-0.0579316645721627,-0.1,0.0,1.0,483.0,798.0,1.0,0,1719.0,1
697,697,-0.4503570706327646,-0.5,1.0,0.0,260.0,581.0,0.0,0,279.0,1
698,698,0.23873553351466625,0.2,1.0,1.0,446.0,558.0,1.0,1,556.0,1
699,699,-0.22016122506490343,-0.2,0.0,1.0,339.0,600.0,1.0,0,681.0,1
700,700,-0.27429265910477374,-0.3,1.0,0.0,345.0,830.0,0.0,0,205.0,1
701,701,-0.4806787660031121,-0.5,0.0,1.0,336.0,599.0,1.0,0,925.0,1
702,702,0.6413228816401418,0.6,0.0,0.0,261.0,988.0,0.0,1,311.0,1
703,703,-0.5128992982226498,-0.5,0.0,1.0,374.0,502.0,1.0,0,234.0,1
704,704,-0.5906771142247398,-0.6,1.0,0.0,322.0,988.0,0.0,0,110.0,1
705,705,-0.5187833763846152,-0.5,0.0,1.0,316.0,556.0,1.0,0,278.0,1
706,706,0.42517354404103835,0.4,1.0,1.0,494.0,906.0,1.0,1,270.0,1
707,707,0.13181659877371066,0.1,1.0,1.0,364.0,934.0,1.0,1,452.0,1
708,708,-0.40787891830500467,-0.4,1.0,0.0,267.0,582.0,0.0,0,241.0,1
709,709,0.001225187220930013,0.0,1.0,1.0,316.0,588.0,0.0,0,2096.0,0
710,710,-0.4444551788424579,-0.4,0.0,1.0,493.0,863.0,1.0,0,514.0,1
711,711,0.7010645915451393,0.7,0.0,0.0,454.0,800.0,0.0,1,206.0,1
712,712,-0.7348552255937157,-0.7,1.0,0.0,449.0,886.0,0.0,0,125.0,1
713,713,-0.2703012858332017,-0.3,1.0,0.0,398.0,739.0,0.0,0,353.0,1
714,714,-0.7049393978899918,-0.7,1.0,0.0,350.0,747.0,0.0,0,103.0,1
715,715,0.5516803489502075,0.6,1.0,1.0,432.0,609.0,1.0,1,199.0,1
716,716,0.18432279044400268,0.2,0.0,0.0,443.0,764.0,0.0,1,323.0,1
717,717,0.7539703958004665,0.8,1.0,1.0,495.0,754.0,1.0,1,281.0,1
718,718,-0.06924718882772807,-0.1,0.0,1.0,314.0,516.0,1.0,0,1270.0,1
719,719,0.5044299673903044,0.5,1.0,1.0,464.0,863.0,0.0,0,-47.0,0
720,720,-0.7912829652032684,-0.8,0.0,1.0,363.0,672.0,1.0,0,185.0,1
721,721,0.8165396873130287,0.8,0.0,0.0,315.0,762.0,0.0,1,73.0,1
722,722,-0.8026432447072431,-0.8,1.0,0.0,365.0,616.0,0.0,0,29.0,1
723,723,-0.2557235043888897,-0.3,0.0,1.0,263.0,772.0,1.0,0,445.0,1
724,724,0.19312524161244415,0.2,0.0,0.0,495.0,815.0,0.0,1,630.0,1
725,725,0.19640815406601064,0.2,0.0,0.0,296.0,568.0,0.0,1,436.0,1
726,726,0.7103473505806669,0.7,1.0,1.0,442.0,743.0,1.0,1,335.0,1
727,727,0.5456096446911657,0.5,1.0,1.0,297.0,849.0,1.0,1,204.0,1
728,728,-0.7946356093676398,-0.8,0.0,1.0,442.0,505.0,1.0,0,443.0,1
729,729,0.4300052892530922,0.4,1.0,1.0,381.0,643.0,1.0,1,336.0,1
730,730,-0.23478913359076647,-0.2,0.0,1.0,407.0,668.0,1.0,0,525.0,1
731,731,-0.6466681434239556,-0.6,0.0,1.0,473.0,691.0,1.0,0,186.0,1
732,732,0.5695626052225641,0.6,0.0,0.0,489.0,718.0,0.0,1,153.0,1
733,733,-0.5440746423385157,-0.5,0.0,1.0,295.0,978.0,1.0,0,297.0,1
734,734,-0.7573034028855841,-0.8,1.0,0.0,459.0,968.0,0.0,0,113.0,1
735,735,0.7829906024081165,0.8,0.0,0.0,481.0,512.0,0.0,1,177.0,1
736,736,0.5727558542560637,0.6,0.0,0.0,276.0,506.0,0.0,1,438.0,1
737,737,0.7923704340772061,0.8,0.0,0.0,378.0,986.0,0.0,1,56.0,1
738,738,0.7855855486525635,0.8,1.0,1.0,461.0,677.0,1.0,1,122.0,1
739,739,0.21398454295944724,0.2,1.0,1.0,283.0,917.0,1.0,1,720.0,1
740,740,0.02318246117113565,0.0,1.0,1.0,496.0,680.0,0.0,0,314.0,0
741,741,0.15139638807599531,0.2,0.0,0.0,417.0,987.0,0.0,1,696.0,1
742,742,-0.8204990978311506,-0.8,1.0,0.0,302.0,627.0,0.0,0,91.0,1
743,743,-0.6380710561969386,-0.6,1.0,0.0,496.0,675.0,0.0,0,119.0,1
744,744,0.08749412262322998,0.1,0.0,0.0,340.0,841.0,0.0,1,-161.0,1
745,745,-0.27980427762089044,-0.3,1.0,0.0,285.0,774.0,0.0,0,281.0,1
746,746,0.6124532664122068,0.6,0.0,0.0,423.0,832.0,0.0,1,205.0,1
747,747,0.13547763748387587,0.1,0.0,0.0,425.0,797.0,0.0,1,488.0,1
748,748,0.33315112286378656,0.3,1.0,1.0,444.0,850.0,1.0,1,476.0,1
749,749,0.24066241403944721,0.2,0.0,0.0,466.0,926.0,0.0,1,198.0,1
750,750,-0.2327445386990643,-0.2,1.0,0.0,416.0,930.0,0.0,0,164.0,1
751,751,0.011918609330420438,0.0,0.0,0.0,257.0,903.0,0.0,1,1840.0,1
752,752,-0.42719408955410143,-0.4,1.0,0.0,408.0,849.0,0.0,0,173.0,1
753,753,-0.06734870451992114,-0.1,0.0,1.0,303.0,930.0,1.0,0,1767.0,1
754,754,-0.8904434875183972,-0.9,1.0,0.0,472.0,535.0,0.0,0,173.0,1
755,755,-0.516750985358263,-0.5,1.0,0.0,281.0,912.0,0.0,0,137.0,1
756,756,0.4573134848442387,0.5,0.0,0.0,380.0,633.0,0.0,1,227.0,1
757,757,-0.7870229663946752,-0.8,1.0,0.0,466.0,972.0,0.0,0,62.0,1
758,758,-0.18098117675540193,-0.2,0.0,1.0,353.0,887.0,1.0,0,690.0,1
759,759,-0.598144707205432,-0.6,0.0,1.0,290.0,765.0,1.0,0,175.0,1
760,760,-0.6953257249555239,-0.7,1.0,0.0,258.0,609.0,0.0,0,233.0,1
761,761,-0.3310269559301118,-0.3,1.0,0.0,345.0,563.0,0.0,0,252.0,1
762,762,0.7397057368517431,0.7,1.0,1.0,301.0,758.0,1.0,1,291.0,1
763,763,0.6439630125565724,0.6,1.0,1.0,306.0,816.0,1.0,1,108.0,1
764,764,0.8636567881704037,0.9,0.0,0.0,341.0,837.0,0.0,1,122.0,1
765,765,-0.34255361037556764,-0.3,1.0,0.0,470.0,664.0,0.0,0,96.0,1
766,766,0.2943607253032393,0.3,1.0,1.0,424.0,731.0,1.0,1,1685.0,1
767,767,-0.38815836489219957,-0.4,1.0,0.0,362.0,967.0,0.0,0,-29.0,1
768,768,-0.549324229416488,-0.5,0.0,1.0,406.0,657.0,1.0,0,367.0,1
769,769,0.19173245427373276,0.2,1.0,1.0,285.0,663.0,1.0,1,1102.0,1
770,770,-0.1615456849916136,-0.2,1.0,0.0,497.0,629.0,0.0,0,334.0,1
771,771,0.7392001079231908,0.7,0.0,0.0,272.0,823.0,0.0,1,155.0,1
772,772,-0.7775397042497353,-0.8,0.0,1.0,311.0,646.0,1.0,0,93.0,1
773,773,0.8041690350320153,0.8,0.0,0.0,443.0,549.0,0.0,1,138.0,1
774,774,0.8124658998861577,0.8,1.0,1.0,257.0,704.0,1.0,1,219.0,1
775,775,-0.8562160231302319,-0.9,1.0,0.0,420.0,727.0,0.0,0,43.0,1
776,776,0.5345608190367973,0.5,1.0,1.0,330.0,948.0,1.0,1,242.0,1
777,777,0.08627189796987811,0.1,0.0,0.0,421.0,516.0,0.0,1,623.0,1
778,778,0.06051673724450979,0.1,1.0,1.0,492.0,618.0,1.0,1,1320.0,1
779,779,0.3144987121185939,0.3,0.0,0.0,483.0,577.0,0.0,1,290.0,1
780,780,-0.5946421962388824,-0.6,1.0,0.0,340.0,851.0,0.0,0,89.0,1
781,781,-0.14033353299104756,-0.1,1.0,0.0,358.0,958.0,0.0,0,144.0,1
782,782,-0.43286377619416,-0.4,0.0,1.0,280.0,507.0,1.0,0,383.0,1
783,783,-0.3771927758642589,-0.4,1.0,0.0,279.0,847.0,0.0,0,194.0,1
784,784,-0.37838649273639713,-0.4,1.0,0.0,341.0,799.0,0.0,0,220.0,1
785,785,0.38319940832399635,0.4,0.0,0.0,479.0,548.0,0.0,1,323.0,1
786,786,-0.6566915280158808,-0.7,0.0,1.0,392.0,940.0,1.0,0,258.0,1
787,787,0.6792807357327949,0.7,0.0,0.0,470.0,943.0,0.0,1,287.0,1
788,788,-0.300901103580982,-0.3,0.0,1.0,251.0,520.0,1.0,0,419.0,1
789,789,0.04566938737278203,0.0,1.0,1.0,261.0,979.0,0.0,0,60.0,0
790,790,-0.5626946547406131,-0.6,0.0,1.0,492.0,605.0,1.0,0,213.0,1
791,791,-0.2684220338040275,-0.3,0.0,1.0,282.0,936.0,1.0,0,262.0,1
792,792,-0.15977012173134408,-0.2,1.0,0.0,396.0,986.0,0.0,0,-32.0,1
793,793,0.4589202053583442,0.5,1.0,1.0,381.0,722.0,1.0,1,247.0,1
794,794,-0.8503728935353945,-0.9,0.0,1.0,435.0,652.0,1.0,0,143.0,1
795,795,0.22754673538926162,0.2,0.0,0.0,378.0,555.0,0.0,1,467.0,1
796,796,-0.5866847928103289,-0.6,0.0,1.0,405.0,649.0,1.0,0,366.0,1
797,797,-0.15870456467569916,-0.2,0.0,1.0,415.0,544.0,1.0,0,691.0,1
798,798,0.1329719021134238,0.1,1.0,1.0,300.0,720.0,1.0,1,240.0,1
799,799,-0.4952389591505446,-0.5,0.0,1.0,364.0,507.0,1.0,0,399.0,1
800,800,-0.17094972070669134,-0.2,1.0,0.0,371.0,569.0,0.0,0,370.0,1
801,801,-0.6224288839298284,-0.6,0.0,1.0,456.0,852.0,1.0,0,472.0,1
802,802,0.32585795927874195,0.3,1.0,1.0,376.0,952.0,1.0,1,142.0,1
803,803,-0.7273944275835796,-0.7,0.0,1.0,470.0,840.0,1.0,0,150.0,1
804,804,0.885216263071409,0.9,1.0,1.0,362.0,532.0,1.0,1,266.0,1
805,805,0.07754681927718488,0.1,0.0,0.0,297.0,722.0,0.0,1,1241.0,1
806,806,-0.576752088227019,-0.6,1.0,0.0,336.0,704.0,0.0,0,160.0,1
807,807,-0.6216358128284395,-0.6,0.0,1.0,304.0,680.0,1.0,0,356.0,1
808,808,-0.11915874658461123,-0.1,1.0,0.0,297.0,780.0,0.0,0,373.0,1
809,809,0.6418499674149821,0.6,1.0,1.0,255.0,733.0,1.0,1,142.0,1
810,810,0.4162022193290976,0.4,1.0,1.0,452.0,506.0,1.0,1,472.0,1
811,811,0.09698440987413226,0.1,1.0,1.0,485.0,660.0,1.0,1,585.0,1
812,812,0.15790759919335617,0.2,0.0,0.0,327.0,629.0,0.0,1,1144.0,1
813,813,-0.700026631857004,-0.7,0.0,1.0,419.0,532.0,1.0,0,279.0,1
814,814,0.36856832253513894,0.4,0.0,0.0,467.0,939.0,0.0,1,174.0,1
815,815,0.27358966244526595,0.3,1.0,1.0,446.0,582.0,1.0,1,482.0,1
816,816,0.13487222138834765,0.1,0.0,0.0,276.0,750.0,0.0,1,714.0,1
817,817,0.3689578578420408,0.4,0.0,0.0,338.0,771.0,0.0,1,171.0,1
818,818,-0.8590821851974919,-0.9,0.0,1.0,303.0,849.0,1.0,0,258.0,1
819,819,-0.06709761329464281,-0.1,0.0,1.0,427.0,954.0,1.0,0,1619.0,1
820,820,0.509984692320875,0.5,0.0,0.0,394.0,777.0,0.0,1,189.0,1
821,821,0.08637972470006194,0.1,0.0,0.0,398.0,662.0,0.0,1,1150.0,1
822,822,-0.06517928994695121,-0.1,0.0,1.0,339.0,888.0,1.0,0,1773.0,1
823,823,0.4869144363492831,0.5,0.0,0.0,448.0,679.0,0.0,1,263.0,1
824,824,0.45838397015192067,0.5,1.0,1.0,424.0,701.0,1.0,1,335.0,1
825,825,0.39029074515870754,0.4,1.0,1.0,370.0,864.0,1.0,1,406.0,1
826,826,-0.8568864268535299,-0.9,0.0,1.0,423.0,940.0,1.0,0,147.0,1
827,827,-0.6815978042982499,-0.7,1.0,0.0,310.0,980.0,0.0,0,170.0,1
828,828,0.30706330104196,0.3,1.0,1.0,391.0,748.0,1.0,1,311.0,1
829,829,0.6724799172947121,0.7,1.0,1.0,478.0,516.0,1.0,1,296.0,1
830,830,-0.6241314684233642,-0.6,0.0,1.0,334.0,700.0,1.0,0,516.0,1
831,831,-0.8429706456056371,-0.8,1.0,0.0,379.0,923.0,0.0,0,38.0,1
832,832,0.5741797810290671,0.6,1.0,1.0,370.0,956.0,1.0,1,304.0,1
833,833,0.7627693147315872,0.8,1.0,1.0,485.0,612.0,1.0,1,443.0,1
834,834,-0.2770514671338804,-0.3,0.0,1.0,385.0,972.0,1.0,0,303.0,1
835,835,0.6535420238454256,0.7,1.0,1.0,395.0,903.0,1.0,1,132.0,1
836,836,0.6110889628115089,0.6,1.0,1.0,380.0,917.0,1.0,1,143.0,1
837,837,0.5078207835504621,0.5,1.0,1.0,441.0,945.0,1.0,1,254.0,1
838,838,0.15046669920766453,0.2,0.0,0.0,458.0,893.0,0.0,1,1299.0,1
839,839,0.5365141670396435,0.5,1.0,1.0,317.0,613.0,1.0,1,290.0,1
840,840,0.19013016473857414,0.2,1.0,1.0,338.0,994.0,1.0,1,248.0,1
841,841,0.42014088170512387,0.4,1.0,1.0,320.0,676.0,1.0,1,274.0,1
842,842,0.8422818985010475,0.8,1.0,1.0,356.0,721.0,1.0,1,233.0,1
843,843,-0.612157013445423,-0.6,1.0,0.0,396.0,901.0,0.0,0,123.0,1
844,844,-0.7508502454180858,-0.8,0.0,1.0,320.0,647.0,1.0,0,273.0,1
845,845,-0.5543161799121593,-0.6,1.0,0.0,436.0,810.0,0.0,0,84.0,1
846,846,0.5456376780440425,0.5,0.0,0.0,320.0,882.0,0.0,1,238.0,1
847,847,0.5164028652942606,0.5,1.0,1.0,389.0,905.0,1.0,1,376.0,1
848,848,-0.8184967320631521,-0.8,1.0,0.0,408.0,606.0,0.0,0,136.0,1
849,849,0.3813833499959468,0.4,0.0,0.0,319.0,968.0,0.0,1,343.0,1
850,850,-0.6065624660279181,-0.6,1.0,0.0,411.0,682.0,0.0,0,217.0,1
851,851,-0.6813421952922164,-0.7,1.0,0.0,445.0,694.0,0.0,0,161.0,1
852,852,0.5980777755062835,0.6,1.0,1.0,400.0,512.0,1.0,1,328.0,1
853,853,0.08585717960251915,0.1,1.0,1.0,491.0,568.0,1.0,1,1941.0,1
854,854,-0.12656593148924578,-0.1,0.0,1.0,277.0,855.0,1.0,0,1318.0,1
855,855,0.6877828745789661,0.7,1.0,1.0,264.0,952.0,1.0,1,224.0,1
856,856,-0.5798933499089025,-0.6,0.0,1.0,287.0,814.0,1.0,0,249.0,1
857,857,-0.1739470155466003,-0.2,0.0,1.0,497.0,826.0,1.0,0,357.0,1
858,858,-0.8797331435374057,-0.9,1.0,0.0,486.0,794.0,0.0,0,70.0,1
859,859,0.8890962912285579,0.9,1.0,1.0,264.0,848.0,1.0,1,188.0,1
860,860,0.7115819792927321,0.7,1.0,1.0,432.0,874.0,1.0,1,204.0,1
861,861,-0.630812587267418,-0.6,1.0,0.0,274.0,647.0,0.0,0,119.0,1
862,862,-0.8649694328353221,-0.9,1.0,0.0,424.0,643.0,0.0,0,73.0,1
863,863,-0.7483751848550609,-0.7,0.0,1.0,369.0,642.0,1.0,0,249.0,1
864,864,-0.13684301628023376,-0.1,1.0,0.0,458.0,536.0,0.0,0,406.0,1
865,865,0.4436893295055572,0.4,1.0,1.0,457.0,641.0,1.0,1,412.0,1
866,866,-0.3676824638651993,-0.4,0.0,1.0,401.0,598.0,1.0,0,631.0,1
867,867,0.8527518942733222,0.9,0.0,0.0,282.0,601.0,0.0,1,357.0,1
868,868,0.08746991766901346,0.1,1.0,1.0,334.0,686.0,1.0,1,1980.0,1
869,869,0.42899312641915166,0.4,1.0,1.0,290.0,904.0,1.0,1,246.0,1
870,870,-0.22217972156815613,-0.2,1.0,0.0,411.0,750.0,0.0,0,279.0,1
871,871,-0.46801200022421874,-0.5,1.0,0.0,306.0,991.0,0.0,0,183.0,1
872,872,-0.4090757530256423,-0.4,0.0,1.0,311.0,532.0,1.0,0,1837.0,1
873,873,-0.1523447022581489,-0.2,1.0,0.0,381.0,503.0,0.0,0,306.0,1
874,874,-0.6726775984745763,-0.7,1.0,0.0,262.0,617.0,0.0,0,141.0,1
875,875,-0.6052401287869846,-0.6,0.0,1.0,419.0,538.0,1.0,0,233.0,1
876,876,-0.2779198957695169,-0.3,1.0,0.0,277.0,909.0,0.0,0,184.0,1
877,877,0.7130736583053953,0.7,0.0,0.0,321.0,651.0,0.0,1,48.0,1
878,878,0.7953651180662921,0.8,1.0,1.0,431.0,792.0,1.0,1,217.0,1
879,879,0.07925366347127538,0.1,0.0,0.0,492.0,614.0,0.0,1,1044.0,1
880,880,0.5037363662869861,0.5,0.0,0.0,402.0,770.0,0.0,1,128.0,1
881,881,-0.2561135515366554,-0.3,0.0,1.0,260.0,641.0,1.0,0,949.0,1
882,882,-0.61640750969773,-0.6,0.0,1.0,477.0,533.0,1.0,0,310.0,1
883,883,0.7930648509995276,0.8,1.0,1.0,379.0,621.0,1.0,1,210.0,1
884,884,-0.4045943415257346,-0.4,0.0,1.0,276.0,600.0,1.0,0,534.0,1
885,885,0.4318738237403942,0.4,1.0,1.0,471.0,609.0,1.0,1,560.0,1
886,886,0.6106477242566787,0.6,0.0,0.0,428.0,764.0,0.0,1,138.0,1
887,887,-0.360104759036047,-0.4,1.0,0.0,335.0,861.0,0.0,0,104.0,1
888,888,0.05334888628093826,0.1,1.0,1.0,368.0,573.0,1.0,1,2059.0,1
889,889,-0.5971677634881072,-0.6,1.0,0.0,296.0,694.0,0.0,0,80.0,1
890,890,-0.6848959306800445,-0.7,0.0,1.0,478.0,531.0,1.0,0,261.0,1
891,891,-0.05570677672523361,-0.1,1.0,0.0,436.0,688.0,0.0,0,1306.0,1
892,892,-0.8107143605409052,-0.8,0.0,1.0,454.0,613.0,1.0,0,223.0,1
893,893,-0.1538354739595792,-0.2,1.0,0.0,476.0,655.0,0.0,0,519.0,1
894,894,-0.4122306299093724,-0.4,1.0,0.0,252.0,751.0,0.0,0,67.0,1
895,895,0.7454114563686668,0.7,0.0,0.0,314.0,844.0,0.0,1,122.0,1
896,896,0.5467577670971401,0.5,1.0,1.0,276.0,675.0,1.0,1,229.0,1
897,897,-0.10170430939896025,-0.1,1.0,0.0,390.0,688.0,0.0,0,222.0,1
898,898,-0.44492551969265604,-0.4,1.0,0.0,381.0,671.0,0.0,0,168.0,1
899,899,0.5993311012348056,0.6,0.0,0.0,455.0,532.0,0.0,1,343.0,1
900,900,0.30941929701517246,0.3,0.0,0.0,413.0,761.0,0.0,1,196.0,1
901,901,0.32502938834335804,0.3,0.0,0.0,302.0,898.0,0.0,1,220.0,1
902,902,-0.0387709021811008,-0.0,0.0,1.0,301.0,751.0,1.0,0,1948.0,1
903,903,-0.3627520266175681,-0.4,0.0,1.0,251.0,680.0,1.0,0,2069.0,1
904,904,-0.26232400236183084,-0.3,1.0,0.0,469.0,670.0,0.0,0,441.0,1
905,905,0.8515443495118261,0.9,1.0,1.0,389.0,718.0,0.0,0,-17.0,0
906,906,0.03326241768688376,0.0,0.0,0.0,382.0,699.0,0.0,1,729.0,1
907,907,-0.12957624385141897,-0.1,0.0,1.0,374.0,728.0,1.0,0,368.0,1
908,908,0.8909559836994906,0.9,1.0,1.0,434.0,954.0,1.0,1,92.0,1
909,909,0.8450729871383561,0.8,0.0,0.0,378.0,866.0,0.0,1,106.0,1
910,910,-0.7642137825175537,-0.8,0.0,1.0,358.0,941.0,1.0,0,221.0,1
911,911,0.6895396800603438,0.7,1.0,1.0,451.0,830.0,1.0,1,749.0,1
912,912,-0.6001531080020723,-0.6,1.0,0.0,277.0,902.0,0.0,0,171.0,1
913,913,0.5365560325213462,0.5,0.0,0.0,297.0,936.0,0.0,1,87.0,1
914,914,0.02468695122964848,0.0,1.0,1.0,369.0,903.0,0.0,0,-202.0,0
915,915,-0.7969083679896587,-0.8,1.0,0.0,411.0,714.0,0.0,0,55.0,1
916,916,-0.6492335186659717,-0.6,0.0,1.0,472.0,966.0,1.0,0,132.0,1
917,917,0.4569778761166451,0.5,0.0,0.0,307.0,801.0,0.0,1,222.0,1
918,918,0.833892134372919,0.8,1.0,1.0,416.0,864.0,1.0,1,150.0,1
919,919,0.3470060686921649,0.3,1.0,1.0,271.0,894.0,1.0,1,165.0,1
920,920,0.16564876933664496,0.2,1.0,1.0,402.0,694.0,1.0,1,734.0,1
921,921,-0.20069514270074984,-0.2,1.0,0.0,484.0,938.0,0.0,0,228.0,1
922,922,-0.5532429569121529,-0.6,1.0,0.0,498.0,691.0,0.0,0,161.0,1
923,923,-0.6772120353629792,-0.7,1.0,0.0,442.0,980.0,0.0,0,38.0,1
924,924,-0.5412691930571649,-0.5,0.0,1.0,269.0,836.0,1.0,0,205.0,1
925,925,0.13071203089787453,0.1,0.0,0.0,460.0,866.0,0.0,1,334.0,1
926,926,-0.2894874617156413,-0.3,1.0,0.0,326.0,939.0,0.0,0,125.0,1
927,927,-0.3156567529177793,-0.3,1.0,0.0,297.0,738.0,0.0,0,275.0,1
928,928,-0.00433406236312972,-0.0,1.0,0.0,356.0,984.0,1.0,1,1660.0,0
929,929,-0.8632563825327838,-0.9,0.0,1.0,325.0,841.0,1.0,0,224.0,1
930,930,0.5648404675216946,0.6,1.0,1.0,284.0,745.0,1.0,1,201.0,1
931,931,-0.12718965038651375,-0.1,0.0,1.0,359.0,549.0,1.0,0,732.0,1
932,932,0.7827009567796653,0.8,1.0,1.0,305.0,832.0,0.0,0,-17.0,0
933,933,0.6378506672274508,0.6,0.0,0.0,340.0,729.0,0.0,1,221.0,1
934,934,0.006952266320869982,0.0,0.0,0.0,332.0,507.0,0.0,1,2161.0,1
935,935,-0.5696265137064298,-0.6,1.0,0.0,356.0,593.0,0.0,0,221.0,1
936,936,-0.8516408145935016,-0.9,0.0,1.0,287.0,642.0,1.0,0,261.0,1
937,937,0.3262284982101741,0.3,1.0,1.0,274.0,831.0,1.0,1,415.0,1
938,938,-0.1783601294613083,-0.2,0.0,1.0,341.0,670.0,1.0,0,799.0,1
939,939,-0.4640443391676055,-0.5,1.0,0.0,362.0,598.0,0.0,0,230.0,1
940,940,0.3882559862299152,0.4,1.0,1.0,488.0,818.0,1.0,1,534.0,1
941,941,-0.5680771431521043,-0.6,0.0,1.0,267.0,586.0,1.0,0,307.0,1
942,942,-0.6861024842647907,-0.7,1.0,0.0,328.0,668.0,0.0,0,154.0,1
943,943,-0.6883398706270445,-0.7,1.0,0.0,466.0,542.0,0.0,0,292.0,1
944,944,-0.783005808896216,-0.8,1.0,0.0,299.0,820.0,0.0,0,121.0,1
945,945,-0.19513392609382663,-0.2,1.0,0.0,297.0,887.0,0.0,0,236.0,1
946,946,-0.2961322819277423,-0.3,0.0,1.0,323.0,912.0,1.0,0,735.0,1
947,947,-0.032794402754381835,-0.0,0.0,1.0,359.0,880.0,0.0,1,1761.0,0
948,948,0.25192536014416034,0.3,0.0,0.0,457.0,793.0,0.0,1,460.0,1
949,949,-0.7654031460340096,-0.8,0.0,1.0,339.0,810.0,1.0,0,171.0,1
950,950,-0.6734621237456644,-0.7,0.0,1.0,351.0,871.0,1.0,0,318.0,1
951,951,-0.7540387132690882,-0.8,0.0,1.0,365.0,775.0,1.0,0,390.0,1
952,952,-0.63394033403316,-0.6,1.0,0.0,366.0,582.0,0.0,0,212.0,1
953,953,0.7962797144880246,0.8,1.0,1.0,439.0,578.0,1.0,1,173.0,1
954,954,-0.5245409327817965,-0.5,1.0,0.0,388.0,878.0,0.0,0,134.0,1
955,955,0.09002098661614877,0.1,0.0,0.0,358.0,632.0,0.0,1,830.0,1
956,956,-0.23591976143744053,-0.2,0.0,1.0,304.0,829.0,1.0,0,557.0,1
957,957,0.7297574096012868,0.7,1.0,1.0,395.0,543.0,1.0,1,192.0,1
958,958,-0.3003018290140369,-0.3,1.0,0.0,374.0,974.0,0.0,0,212.0,1
959,959,-0.7219436344838522,-0.7,1.0,0.0,481.0,509.0,0.0,0,230.0,1
960,960,0.13379582699661474,0.1,0.0,0.0,409.0,681.0,0.0,1,630.0,1
961,961,-0.36655538647833086,-0.4,0.0,1.0,318.0,799.0,1.0,0,473.0,1
962,962,0.20892435031951095,0.2,1.0,1.0,299.0,677.0,1.0,1,564.0,1
963,963,0.49704411691818373,0.5,0.0,0.0,394.0,570.0,0.0,1,376.0,1
964,964,-0.6443396356536855,-0.6,0.0,1.0,423.0,546.0,1.0,0,241.0,1
965,965,-0.27470866612268696,-0.3,0.0,1.0,395.0,681.0,1.0,0,484.0,1
966,966,0.6942703559065323,0.7,1.0,1.0,275.0,505.0,1.0,1,360.0,1
967,967,-0.49497925801532944,-0.5,1.0,0.0,373.0,893.0,0.0,0,164.0,1
968,968,-0.6186137791003418,-0.6,0.0,1.0,468.0,778.0,1.0,0,284.0,1
969,969,0.39016367732775625,0.4,0.0,0.0,327.0,775.0,0.0,1,208.0,1
970,970,0.13644085916680393,0.1,1.0,1.0,298.0,904.0,1.0,1,848.0,1
971,971,-0.009413386248817601,-0.0,0.0,1.0,286.0,669.0,1.0,0,2045.0,1
972,972,0.2929577644434579,0.3,0.0,0.0,433.0,957.0,0.0,1,130.0,1
973,973,0.8007561777182098,0.8,0.0,0.0,441.0,718.0,0.0,1,141.0,1
974,974,0.6688890226707463,0.7,0.0,0.0,474.0,859.0,0.0,1,77.0,1
975,975,-0.4567468173465867,-0.5,1.0,0.0,447.0,629.0,0.0,0,124.0,1
976,976,0.689894871901863,0.7,0.0,0.0,461.0,761.0,0.0,1,268.0,1
977,977,-0.7228745783818797,-0.7,0.0,1.0,496.0,637.0,1.0,0,257.0,1
978,978,0.43069814153836183,0.4,0.0,0.0,486.0,558.0,0.0,1,106.0,1
979,979,0.05811586164792526,0.1,0.0,0.0,400.0,862.0,0.0,1,1738.0,1
980,980,0.505694255392973,0.5,1.0,1.0,270.0,893.0,1.0,1,357.0,1
981,981,0.16562608466509932,0.2,1.0,1.0,444.0,944.0,1.0,1,692.0,1
982,982,0.8588111250458731,0.9,0.0,0.0,325.0,802.0,0.0,1,103.0,1
983,983,-0.5262950804072573,-0.5,0.0,1.0,377.0,887.0,1.0,0,416.0,1
984,984,-0.45225697688051186,-0.5,1.0,0.0,404.0,974.0,0.0,0,82.0,1
985,985,-0.24415291369835712,-0.2,0.0,1.0,388.0,993.0,1.0,0,569.0,1
986,986,-0.04955441836273933,-0.0,0.0,1.0,361.0,693.0,1.0,0,1946.0,1
987,987,0.14823387788506903,0.1,0.0,0.0,491.0,629.0,0.0,1,280.0,1
988,988,0.7747858440620695,0.8,0.0,0.0,312.0,896.0,0.0,1,102.0,1
989,989,0.38324598539710497,0.4,1.0,1.0,339.0,812.0,1.0,1,349.0,1
990,990,-0.870123086861574,-0.9,0.0,1.0,450.0,739.0,1.0,0,221.0,1
991,991,-0.7956533564369634,-0.8,1.0,0.0,359.0,909.0,0.0,0,2.0,1
992,992,-0.05707586814455867,-0.1,0.0,1.0,357.0,648.0,0.0,1,1995.0,0
993,993,0.11780215007317907,0.1,0.0,0.0,428.0,728.0,0.0,1,324.0,1
994,994,0.6662742515343055,0.7,1.0,1.0,347.0,822.0,1.0,1,231.0,1
995,995,-0.011503732794402977,-0.0,0.0,1.0,465.0,642.0,0.0,1,1893.0,0
996,996,0.27567377345122257,0.3,0.0,0.0,361.0,586.0,0.0,1,233.0,1
997,997,0.04703320354450724,0.0,0.0,0.0,281.0,808.0,0.0,1,1551.0,1
998,998,-0.06537747044965525,-0.1,0.0,1.0,430.0,861.0,1.0,0,869.0,1
999,999,0.23079315707442183,0.2,1.0,1.0,340.0,954.0,1.0,1,536.0,1
1000,1000,0.08478801446214224,0.1,1.0,1.0,385.0,587.0,1.0,1,1828.0,1
1001,1001,0.34942907959246494,0.3,1.0,1.0,404.0,522.0,1.0,1,474.0,1
1002,1002,-0.8765003757962716,-0.9,0.0,1.0,277.0,708.0,1.0,0,175.0,1
1003,1003,-0.17509822570390854,-0.2,0.0,1.0,485.0,875.0,1.0,0,520.0,1
1004,1004,0.14580046154898174,0.1,1.0,1.0,309.0,860.0,1.0,1,421.0,1
1005,1005,0.7651093344145815,0.8,1.0,1.0,318.0,797.0,1.0,1,625.0,1
1006,1006,-0.3641537926715921,-0.4,1.0,0.0,432.0,718.0,0.0,0,260.0,1
1007,1007,-0.02060316695226727,-0.0,1.0,0.0,349.0,803.0,0.0,0,1198.0,1
1008,1008,0.803763018871796,0.8,0.0,0.0,288.0,889.0,0.0,1,43.0,1
1009,1009,-0.6848545705731554,-0.7,0.0,1.0,322.0,919.0,1.0,0,319.0,1
1010,1010,-0.03665131716735792,-0.0,0.0,1.0,452.0,753.0,0.0,1,1795.0,0
1011,1011,-0.5331043874400375,-0.5,1.0,0.0,467.0,810.0,0.0,0,213.0,1
1012,1012,-0.8106085849835537,-0.8,1.0,0.0,374.0,774.0,0.0,0,62.0,1
1013,1013,0.4089733320021488,0.4,0.0,0.0,298.0,853.0,0.0,1,129.0,1
1014,1014,0.44929798621002337,0.4,1.0,1.0,410.0,735.0,1.0,1,145.0,1
1015,1015,0.09882305364658328,0.1,1.0,1.0,293.0,551.0,1.0,1,1276.0,1
1016,1016,0.2287146962477803,0.2,1.0,1.0,265.0,896.0,1.0,1,399.0,1
1017,1017,-0.8407732287504067,-0.8,0.0,1.0,385.0,582.0,1.0,0,293.0,1
1018,1018,0.25185974076925255,0.3,1.0,1.0,485.0,691.0,1.0,1,454.0,1
1019,1019,-0.47896025951276056,-0.5,0.0,1.0,271.0,826.0,1.0,0,403.0,1
1020,1020,-0.3632550440864112,-0.4,0.0,1.0,395.0,601.0,1.0,0,154.0,1
1021,1021,-0.3412526989720842,-0.3,0.0,1.0,398.0,976.0,1.0,0,316.0,1
1022,1022,-0.7652041303745918,-0.8,1.0,0.0,261.0,808.0,0.0,0,151.0,1
1023,1023,0.27941240240172094,0.3,0.0,0.0,403.0,990.0,0.0,1,317.0,1
1024,1024,-0.22440394846966327,-0.2,1.0,0.0,342.0,848.0,0.0,0,140.0,1
1025,1025,0.23258173441531682,0.2,1.0,1.0,267.0,820.0,1.0,1,963.0,1
1026,1026,0.39945038894464446,0.4,1.0,1.0,443.0,897.0,1.0,1,190.0,1
1027,1027,-0.6530050149937183,-0.7,1.0,0.0,311.0,754.0,0.0,0,-135.0,1
1028,1028,0.35433417299757186,0.4,0.0,0.0,377.0,628.0,0.0,1,345.0,1
1029,1029,0.22322526721857539,0.2,1.0,1.0,394.0,682.0,1.0,1,734.0,1
1030,1030,-0.8382780645773072,-0.8,0.0,1.0,443.0,600.0,1.0,0,237.0,1
1031,1031,0.4642951974449655,0.5,0.0,0.0,368.0,516.0,0.0,1,356.0,1
1032,1032,0.39448246000909737,0.4,0.0,0.0,439.0,598.0,0.0,1,213.0,1
1033,1033,0.42795087784752595,0.4,1.0,1.0,403.0,743.0,1.0,1,244.0,1
1034,1034,0.3995690583987407,0.4,0.0,0.0,439.0,542.0,0.0,1,309.0,1
1035,1035,0.7137480120693004,0.7,0.0,0.0,268.0,516.0,0.0,1,246.0,1
1036,1036,0.70880668724967,0.7,1.0,1.0,325.0,586.0,1.0,1,489.0,1
1037,1037,-0.11567481493807341,-0.1,0.0,1.0,414.0,517.0,1.0,0,1269.0,1
1038,1038,-0.19188995244629414,-0.2,1.0,0.0,438.0,837.0,0.0,0,655.0,1
1039,1039,0.051050615686480505,0.1,0.0,0.0,433.0,856.0,0.0,1,1361.0,1
1040,1040,-0.41512055038792955,-0.4,0.0,1.0,496.0,859.0,1.0,0,305.0,1
1041,1041,-0.5789937791663495,-0.6,1.0,0.0,411.0,500.0,0.0,0,199.0,1
1042,1042,-0.46876925012002896,-0.5,0.0,1.0,277.0,662.0,1.0,0,301.0,1
1043,1043,0.09780706671649897,0.1,1.0,1.0,322.0,613.0,1.0,1,2065.0,1
1044,1044,0.23739997317971728,0.2,1.0,1.0,440.0,535.0,1.0,1,615.0,1
1045,1045,-0.315027005058113,-0.3,1.0,0.0,375.0,857.0,0.0,0,288.0,1
1046,1046,-0.3032099661027645,-0.3,0.0,1.0,447.0,724.0,1.0,0,229.0,1
1047,1047,0.06584077833318758,0.1,0.0,0.0,301.0,717.0,0.0,1,1142.0,1
1048,1048,-0.7614873197635004,-0.8,0.0,1.0,372.0,955.0,1.0,0,183.0,1
1049,1049,0.26320936006037543,0.3,0.0,0.0,330.0,844.0,0.0,1,206.0,1
1050,1050,0.5799594887628227,0.6,1.0,1.0,347.0,701.0,0.0,0,-28.0,0
1051,1051,-0.23296124996658962,-0.2,1.0,0.0,387.0,983.0,0.0,0,140.0,1
1052,1052,0.7092311453370964,0.7,0.0,0.0,484.0,516.0,0.0,1,260.0,1
1053,1053,0.16672427589567607,0.2,0.0,0.0,423.0,564.0,0.0,1,663.0,1
1054,1054,-0.2830325617355781,-0.3,0.0,1.0,453.0,613.0,1.0,0,504.0,1
1055,1055,0.09348675447852739,0.1,1.0,1.0,332.0,614.0,1.0,1,594.0,1
1056,1056,-0.8143175279630925,-0.8,1.0,0.0,387.0,729.0,0.0,0,184.0,1
1057,1057,-0.2320042218977979,-0.2,1.0,0.0,451.0,528.0,0.0,0,331.0,1
1058,1058,-0.4849406187508816,-0.5,0.0,1.0,311.0,820.0,1.0,0,949.0,1
1059,1059,-0.3302250124295877,-0.3,0.0,1.0,253.0,698.0,1.0,0,549.0,1
1060,1060,-0.5861650216827398,-0.6,1.0,0.0,398.0,722.0,0.0,0,110.0,1
1061,1061,0.3374471258821342,0.3,1.0,1.0,348.0,623.0,1.0,1,499.0,1
1062,1062,-0.1994826658534743,-0.2,0.0,1.0,498.0,622.0,1.0,0,310.0,1
1063,1063,0.6642756724807685,0.7,0.0,0.0,316.0,500.0,0.0,1,204.0,1
1064,1064,0.8182291920674868,0.8,1.0,1.0,287.0,685.0,1.0,1,328.0,1
1065,1065,0.54936416643846,0.5,0.0,0.0,326.0,577.0,0.0,1,337.0,1
1066,1066,-0.7900310793623118,-0.8,1.0,0.0,293.0,811.0,0.0,0,126.0,1
1067,1067,0.8328868926571508,0.8,0.0,0.0,287.0,748.0,0.0,1,195.0,1
1068,1068,-0.8358513362914595,-0.8,1.0,0.0,463.0,839.0,0.0,0,128.0,1
1069,1069,-0.7271898467225398,-0.7,1.0,0.0,381.0,542.0,0.0,0,217.0,1
1070,1070,0.8633039292475891,0.9,1.0,1.0,345.0,608.0,1.0,1,167.0,1
1071,1071,0.7972277677790794,0.8,1.0,1.0,259.0,922.0,1.0,1,189.0,1
1072,1072,0.7202875263043683,0.7,0.0,0.0,486.0,961.0,0.0,1,-77.0,1
1073,1073,0.6731434292546062,0.7,1.0,1.0,447.0,694.0,1.0,1,269.0,1
1074,1074,-0.3432697135701622,-0.3,1.0,0.0,292.0,893.0,0.0,0,145.0,1
1075,1075,0.6120956281727125,0.6,1.0,1.0,422.0,583.0,1.0,1,295.0,1
1076,1076,0.5544928794921468,0.6,1.0,1.0,424.0,790.0,1.0,1,366.0,1
1077,1077,-0.8974436469477035,-0.9,1.0,0.0,449.0,502.0,0.0,0,209.0,1
1078,1078,-0.616462137867205,-0.6,0.0,1.0,335.0,545.0,1.0,0,170.0,1
1079,1079,-0.08366511185120762,-0.1,1.0,0.0,340.0,591.0,0.0,0,589.0,1
1080,1080,0.7863350593283996,0.8,0.0,0.0,473.0,694.0,0.0,1,123.0,1
1081,1081,0.013332085023769036,0.0,0.0,0.0,388.0,857.0,1.0,0,1755.0,0
1082,1082,-0.44413864433535005,-0.4,1.0,0.0,256.0,563.0,0.0,0,221.0,1
1083,1083,0.28973484987967735,0.3,1.0,1.0,476.0,917.0,1.0,1,217.0,1
1084,1084,-0.31973299393083277,-0.3,1.0,0.0,467.0,873.0,0.0,0,400.0,1
1085,1085,0.43545132482934557,0.4,1.0,1.0,417.0,696.0,1.0,1,737.0,1
1086,1086,-0.893682942371583,-0.9,1.0,0.0,286.0,811.0,0.0,0,93.0,1
1087,1087,0.6727032875909985,0.7,1.0,1.0,426.0,698.0,1.0,1,276.0,1
1088,1088,-0.8920981564126584,-0.9,1.0,0.0,327.0,924.0,0.0,0,129.0,1
1089,1089,-0.4820225020774849,-0.5,0.0,1.0,345.0,619.0,1.0,0,306.0,1
1090,1090,0.5006861683435048,0.5,1.0,1.0,403.0,675.0,1.0,1,442.0,1
1091,1091,0.15234988769486446,0.2,1.0,1.0,373.0,818.0,0.0,0,149.0,0
1092,1092,-0.3287583788701297,-0.3,0.0,1.0,362.0,772.0,1.0,0,396.0,1
1093,1093,-0.3729344266994271,-0.4,1.0,0.0,462.0,649.0,0.0,0,339.0,1
1094,1094,-0.8318712966032663,-0.8,0.0,1.0,469.0,825.0,1.0,0,1706.0,1
1095,1095,-0.2638549604821365,-0.3,1.0,0.0,492.0,617.0,0.0,0,301.0,1
1096,1096,0.8949654838792581,0.9,1.0,1.0,425.0,678.0,1.0,1,257.0,1
1097,1097,0.5893374434939173,0.6,1.0,1.0,452.0,600.0,1.0,1,268.0,1
1098,1098,-0.535091258330199,-0.5,1.0,0.0,314.0,696.0,0.0,0,160.0,1
1099,1099,-0.3085825879224513,-0.3,1.0,0.0,291.0,736.0,0.0,0,263.0,1
1100,1100,-0.5251949562757482,-0.5,1.0,0.0,448.0,758.0,0.0,0,294.0,1
1101,1101,0.11614925712472968,0.1,1.0,1.0,279.0,679.0,1.0,1,2042.0,1
1102,1102,0.1653123662820467,0.2,0.0,0.0,393.0,626.0,0.0,1,1291.0,1
1103,1103,0.583236658684294,0.6,1.0,1.0,399.0,801.0,1.0,1,220.0,1
1104,1104,0.7882516360267257,0.8,0.0,0.0,304.0,667.0,0.0,1,269.0,1
1105,1105,-0.12810487675959847,-0.1,1.0,0.0,433.0,540.0,0.0,0,957.0,1
1106,1106,0.8430194198707887,0.8,0.0,0.0,302.0,561.0,0.0,1,147.0,1
1107,1107,0.586469253017959,0.6,1.0,1.0,397.0,562.0,1.0,1,581.0,1
1108,1108,-0.6621087228470924,-0.7,0.0,1.0,312.0,782.0,1.0,0,386.0,1
1109,1109,0.08125504908466752,0.1,1.0,1.0,355.0,713.0,1.0,1,842.0,1
1110,1110,0.8931978354786413,0.9,0.0,0.0,490.0,997.0,0.0,1,83.0,1
1111,1111,0.10438939191350316,0.1,0.0,0.0,282.0,635.0,0.0,1,1303.0,1
1112,1112,-0.07663059949397566,-0.1,0.0,1.0,273.0,697.0,1.0,0,2030.0,1
1113,1113,-0.30811531133111103,-0.3,0.0,1.0,326.0,679.0,1.0,0,435.0,1
1114,1114,-0.1813172096662562,-0.2,1.0,0.0,299.0,524.0,0.0,0,517.0,1
1115,1115,-0.5724360651764772,-0.6,1.0,0.0,256.0,872.0,0.0,0,-78.0,1
1116,1116,0.5159893130360335,0.5,0.0,0.0,314.0,897.0,0.0,1,219.0,1
1117,1117,-0.8343336712881505,-0.8,1.0,0.0,457.0,718.0,0.0,0,155.0,1
1118,1118,0.4034589419934841,0.4,1.0,1.0,325.0,771.0,1.0,1,624.0,1
1119,1119,-0.2655276019828505,-0.3,1.0,0.0,458.0,574.0,0.0,0,358.0,1
1120,1120,-0.634136233814351,-0.6,0.0,1.0,370.0,752.0,1.0,0,318.0,1
1121,1121,0.1821043623907742,0.2,0.0,0.0,356.0,724.0,0.0,1,450.0,1
1122,1122,0.0568730577071731,0.1,1.0,1.0,412.0,887.0,0.0,0,1421.0,0
1123,1123,-0.3393582819542178,-0.3,1.0,0.0,469.0,509.0,0.0,0,252.0,1
1124,1124,-0.4479499941545922,-0.4,1.0,0.0,325.0,755.0,0.0,0,220.0,1
1125,1125,0.2066087844376131,0.2,0.0,0.0,397.0,864.0,0.0,1,289.0,1
1126,1126,0.6711389657668786,0.7,1.0,1.0,422.0,783.0,1.0,1,115.0,1
1127,1127,0.665192673653281,0.7,0.0,0.0,479.0,650.0,0.0,1,221.0,1
1128,1128,-0.36167954623962584,-0.4,0.0,1.0,302.0,619.0,1.0,0,349.0,1
1129,1129,0.7649941573514599,0.8,0.0,0.0,471.0,837.0,0.0,1,62.0,1
1130,1130,-0.14325574495890236,-0.1,0.0,1.0,313.0,699.0,1.0,0,648.0,1
1131,1131,0.015389531333868778,0.0,1.0,1.0,474.0,720.0,1.0,1,1806.0,1
1132,1132,-0.3023502793645383,-0.3,1.0,0.0,371.0,982.0,0.0,0,97.0,1
1133,1133,0.5414794562424633,0.5,1.0,1.0,319.0,715.0,1.0,1,136.0,1
1134,1134,-0.22612373574927502,-0.2,1.0,0.0,399.0,883.0,0.0,0,108.0,1
1135,1135,0.20282046720011937,0.2,0.0,0.0,298.0,715.0,0.0,1,477.0,1
1136,1136,0.4009226190040299,0.4,1.0,1.0,339.0,884.0,1.0,1,157.0,1
1137,1137,0.24886542700463765,0.2,0.0,0.0,469.0,552.0,0.0,1,329.0,1
1138,1138,0.4070965189069492,0.4,0.0,0.0,413.0,646.0,0.0,1,401.0,1
1139,1139,-0.3544192282411621,-0.4,0.0,1.0,286.0,941.0,1.0,0,483.0,1
1140,1140,0.17943698300831568,0.2,0.0,0.0,415.0,668.0,0.0,1,627.0,1
1141,1141,-0.8302891774971501,-0.8,1.0,0.0,474.0,807.0,0.0,0,39.0,1
1142,1142,0.5220771234183533,0.5,0.0,0.0,355.0,579.0,0.0,1,116.0,1
1143,1143,-0.08240859302805259,-0.1,1.0,0.0,428.0,574.0,0.0,0,548.0,1
1144,1144,-0.45672313620217964,-0.5,0.0,1.0,433.0,605.0,1.0,0,392.0,1
1145,1145,0.5900167354293756,0.6,0.0,0.0,326.0,839.0,0.0,1,135.0,1
1146,1146,-0.7997143024518467,-0.8,1.0,0.0,380.0,540.0,0.0,0,170.0,1
1147,1147,-0.26240822409259157,-0.3,0.0,1.0,455.0,985.0,1.0,0,340.0,1
1148,1148,0.7333283948382104,0.7,1.0,1.0,256.0,661.0,1.0,1,243.0,1
1149,1149,0.320560795270593,0.3,1.0,1.0,343.0,562.0,1.0,1,615.0,1
1150,1150,0.1744761078548266,0.2,1.0,1.0,286.0,534.0,1.0,1,1030.0,1
1151,1151,0.41938947593265097,0.4,1.0,1.0,352.0,914.0,1.0,1,204.0,1
1152,1152,-0.10181554258099323,-0.1,1.0,0.0,404.0,646.0,0.0,0,630.0,1
1153,1153,0.01361653643766092,0.0,0.0,0.0,456.0,713.0,0.0,1,901.0,1
1154,1154,-0.8839554458693167,-0.9,0.0,1.0,418.0,576.0,1.0,0,266.0,1
1155,1155,0.5283603358308749,0.5,0.0,0.0,443.0,636.0,0.0,1,141.0,1
1156,1156,0.030155570603399795,0.0,0.0,0.0,417.0,752.0,0.0,1,931.0,1
1157,1157,-0.7874606317960229,-0.8,1.0,0.0,345.0,888.0,0.0,0,107.0,1
1158,1158,0.4506361111433187,0.5,1.0,1.0,401.0,607.0,1.0,1,652.0,1
1159,1159,0.5127762315777092,0.5,1.0,1.0,267.0,741.0,1.0,1,152.0,1
1160,1160,0.7069253811947195,0.7,1.0,1.0,371.0,832.0,1.0,1,127.0,1
1161,1161,0.21703716609405055,0.2,0.0,0.0,259.0,552.0,0.0,1,339.0,1
1162,1162,0.12554391916627072,0.1,0.0,0.0,351.0,749.0,0.0,1,160.0,1
1163,1163,-0.5179701570289689,-0.5,1.0,0.0,333.0,773.0,0.0,0,164.0,1
1164,1164,0.7793330593227029,0.8,1.0,1.0,477.0,973.0,1.0,1,120.0,1
1165,1165,-0.6879961345885247,-0.7,0.0,1.0,266.0,969.0,1.0,0,245.0,1
1166,1166,0.25034212975274694,0.3,1.0,1.0,452.0,721.0,1.0,1,667.0,1
1167,1167,0.06655768466997147,0.1,0.0,0.0,438.0,504.0,0.0,1,458.0,1
1168,1168,-0.6551877170825954,-0.7,1.0,0.0,251.0,993.0,0.0,0,46.0,1
1169,1169,-0.7644124469511183,-0.8,0.0,1.0,365.0,529.0,1.0,0,126.0,1
1170,1170,-0.7800505358408085,-0.8,0.0,1.0,259.0,959.0,1.0,0,172.0,1
1171,1171,-0.6707377644399692,-0.7,1.0,0.0,389.0,795.0,0.0,0,156.0,1
1172,1172,0.8589965983741356,0.9,1.0,1.0,281.0,997.0,0.0,0,-8.0,0
1173,1173,0.8705350119961758,0.9,0.0,0.0,307.0,898.0,0.0,1,145.0,1
1174,1174,0.7954531926407998,0.8,1.0,1.0,342.0,726.0,1.0,1,422.0,1
1175,1175,0.6787676622945059,0.7,0.0,0.0,324.0,849.0,0.0,1,167.0,1
1176,1176,-0.696106888747292,-0.7,1.0,0.0,486.0,741.0,0.0,0,123.0,1
1177,1177,-0.08396502896161417,-0.1,0.0,1.0,393.0,580.0,1.0,0,2027.0,1
1178,1178,0.6817102360025947,0.7,1.0,1.0,364.0,616.0,1.0,1,290.0,1
1179,1179,-0.10906524324829536,-0.1,1.0,0.0,269.0,949.0,0.0,0,132.0,1
1180,1180,-0.3487113144930817,-0.3,1.0,0.0,346.0,739.0,0.0,0,125.0,1
1181,1181,0.10786929406546986,0.1,0.0,0.0,328.0,630.0,0.0,1,1232.0,1
1182,1182,-0.3533372150369357,-0.4,0.0,1.0,270.0,718.0,1.0,0,232.0,1
1183,1183,0.011859173499942921,0.0,1.0,1.0,468.0,557.0,0.0,0,445.0,0
1184,1184,0.0973781791050421,0.1,1.0,1.0,448.0,941.0,1.0,1,1611.0,1
1185,1185,-0.34294025734149214,-0.3,0.0,1.0,300.0,527.0,1.0,0,443.0,1
1186,1186,-0.03565810767558164,-0.0,0.0,1.0,255.0,837.0,0.0,1,1328.0,0
1187,1187,0.2982931626101538,0.3,0.0,0.0,270.0,589.0,0.0,1,231.0,1
1188,1188,-0.7420539199034528,-0.7,0.0,1.0,340.0,663.0,1.0,0,947.0,1
1189,1189,-0.3179806261974173,-0.3,1.0,0.0,440.0,634.0,0.0,0,466.0,1
1190,1190,-0.2593543045651635,-0.3,1.0,0.0,292.0,678.0,0.0,0,180.0,1
1191,1191,-0.38220126316820435,-0.4,0.0,1.0,288.0,963.0,1.0,0,269.0,1
1192,1192,0.01229789497304612,0.0,1.0,1.0,345.0,776.0,0.0,0,949.0,0
1193,1193,-0.0626647333227901,-0.1,0.0,1.0,439.0,650.0,1.0,0,511.0,1
1194,1194,0.8572244199159497,0.9,0.0,0.0,292.0,836.0,0.0,1,112.0,1
1195,1195,-0.6152690104133935,-0.6,1.0,0.0,322.0,619.0,0.0,0,209.0,1
1196,1196,-0.6073744785467668,-0.6,0.0,1.0,271.0,596.0,1.0,0,393.0,1
1197,1197,0.37814045008912933,0.4,0.0,0.0,437.0,641.0,0.0,1,192.0,1
1198,1198,0.34793537425271615,0.3,0.0,0.0,397.0,876.0,0.0,1,367.0,1
1199,1199,-0.4927062477550243,-0.5,0.0,1.0,272.0,922.0,1.0,0,236.0,1
1200,1200,0.12809055421693027,0.1,1.0,1.0,484.0,623.0,1.0,1,503.0,1
1201,1201,-0.6462563750013723,-0.6,1.0,0.0,267.0,717.0,0.0,0,116.0,1
1202,1202,-0.6340295606750558,-0.6,1.0,0.0,414.0,936.0,0.0,0,130.0,1
1203,1203,-0.08374003632573268,-0.1,0.0,1.0,455.0,851.0,1.0,0,1694.0,1
1204,1204,-0.7008759461227908,-0.7,1.0,0.0,391.0,597.0,0.0,0,112.0,1
1205,1205,-0.34131204512867774,-0.3,0.0,1.0,417.0,634.0,1.0,0,449.0,1
1206,1206,0.27071899469631855,0.3,0.0,0.0,318.0,840.0,0.0,1,322.0,1
1207,1207,-0.7300804218198842,-0.7,0.0,1.0,485.0,733.0,1.0,0,62.0,1
1208,1208,-0.07516401834194775,-0.1,0.0,1.0,281.0,573.0,1.0,0,2146.0,1
1209,1209,0.5070981546811174,0.5,0.0,0.0,315.0,527.0,0.0,1,478.0,1
1210,1210,-0.46084635701865695,-0.5,1.0,0.0,278.0,616.0,0.0,0,166.0,1
1211,1211,-0.5263275892674533,-0.5,1.0,0.0,399.0,595.0,0.0,0,246.0,1
1212,1212,0.4645992561381823,0.5,1.0,1.0,258.0,937.0,1.0,1,215.0,1
1213,1213,0.7963009615576183,0.8,1.0,1.0,351.0,738.0,1.0,1,171.0,1
1214,1214,-0.4625303588994813,-0.5,1.0,0.0,449.0,801.0,0.0,0,170.0,1
1215,1215,0.4605526818599369,0.5,1.0,1.0,441.0,707.0,1.0,1,292.0,1
1216,1216,-0.7028160806346058,-0.7,0.0,1.0,486.0,626.0,1.0,0,58.0,1
1217,1217,-0.7200674281292525,-0.7,1.0,0.0,366.0,729.0,0.0,0,115.0,1
1218,1218,-0.02887762747940792,-0.0,1.0,0.0,481.0,809.0,0.0,0,1380.0,1
1219,1219,0.056977543458453406,0.1,0.0,0.0,414.0,944.0,0.0,1,362.0,1
1220,1220,-0.21760551924187843,-0.2,0.0,1.0,365.0,737.0,1.0,0,1898.0,1
1221,1221,0.21146729256372143,0.2,0.0,0.0,378.0,577.0,0.0,1,915.0,1
1222,1222,-0.7560298371960783,-0.8,1.0,0.0,417.0,814.0,0.0,0,109.0,1
1223,1223,0.095663364631555,0.1,0.0,0.0,260.0,729.0,0.0,1,471.0,1
1224,1224,-0.27624394780338113,-0.3,0.0,1.0,455.0,788.0,1.0,0,247.0,1
1225,1225,0.5813083693077562,0.6,0.0,0.0,274.0,838.0,0.0,1,308.0,1
1226,1226,-0.16529472196654926,-0.2,0.0,1.0,253.0,501.0,1.0,0,1536.0,1
1227,1227,0.5749234240860227,0.6,1.0,1.0,379.0,537.0,1.0,1,304.0,1
1228,1228,-0.09059174776295276,-0.1,1.0,0.0,495.0,892.0,0.0,0,253.0,1
1229,1229,0.4493506877183019,0.4,1.0,1.0,287.0,531.0,1.0,1,382.0,1
1230,1230,-0.8805332926627704,-0.9,1.0,0.0,489.0,799.0,0.0,0,102.0,1
1231,1231,-0.4973799575827697,-0.5,1.0,0.0,317.0,974.0,0.0,0,139.0,1
1232,1232,0.1655427314329726,0.2,0.0,0.0,483.0,734.0,0.0,1,383.0,1
1233,1233,-0.8380287516990635,-0.8,1.0,0.0,320.0,802.0,0.0,0,108.0,1
1234,1234,0.5667967499817598,0.6,1.0,1.0,293.0,982.0,1.0,1,195.0,1
1235,1235,-0.34320964613043736,-0.3,1.0,0.0,353.0,620.0,0.0,0,257.0,1
1236,1236,-0.1154123275040726,-0.1,0.0,1.0,452.0,615.0,1.0,0,503.0,1
1237,1237,-0.7022811328115917,-0.7,1.0,0.0,407.0,748.0,0.0,0,25.0,1
1238,1238,-0.6289237439798165,-0.6,0.0,1.0,434.0,944.0,1.0,0,112.0,1
1239,1239,0.4348331389917365,0.4,0.0,0.0,282.0,797.0,0.0,1,221.0,1
1240,1240,-0.15629873487558255,-0.2,0.0,1.0,272.0,652.0,1.0,0,1266.0,1
1241,1241,-0.797238259134936,-0.8,1.0,0.0,300.0,967.0,0.0,0,53.0,1
1242,1242,-0.8200697133419225,-0.8,1.0,0.0,283.0,624.0,0.0,0,163.0,1
1243,1243,-0.4760288692924523,-0.5,1.0,0.0,431.0,803.0,0.0,0,186.0,1
1244,1244,-0.4039919345769266,-0.4,1.0,0.0,417.0,594.0,0.0,0,189.0,1
1245,1245,0.5150976431498281,0.5,0.0,0.0,330.0,997.0,0.0,1,243.0,1
1246,1246,0.5288147523786978,0.5,1.0,1.0,329.0,502.0,1.0,1,359.0,1
1247,1247,0.793133560808963,0.8,1.0,1.0,388.0,521.0,1.0,1,341.0,1
1248,1248,-0.38740255941827084,-0.4,0.0,1.0,361.0,940.0,1.0,0,299.0,1
1249,1249,0.3931785947233243,0.4,1.0,1.0,322.0,870.0,1.0,1,458.0,1
1250,1250,-0.6515171464587456,-0.7,1.0,0.0,270.0,987.0,0.0,0,173.0,1
1251,1251,-0.7920313832090082,-0.8,1.0,0.0,466.0,694.0,0.0,0,280.0,1
1252,1252,0.799872900974271,0.8,0.0,0.0,476.0,558.0,0.0,1,116.0,1
1253,1253,-0.4329510521840753,-0.4,0.0,1.0,330.0,531.0,1.0,0,469.0,1
1254,1254,-0.4347943842927074,-0.4,1.0,0.0,305.0,607.0,0.0,0,268.0,1
1255,1255,-0.3279291180749543,-0.3,1.0,0.0,306.0,662.0,0.0,0,322.0,1
1256,1256,0.17634395743869502,0.2,0.0,0.0,468.0,722.0,0.0,1,610.0,1
1257,1257,-0.023496642593166306,-0.0,0.0,1.0,303.0,969.0,0.0,1,1728.0,0
1258,1258,-0.2870690334207777,-0.3,0.0,1.0,370.0,938.0,1.0,0,712.0,1
1259,1259,0.5806498731518667,0.6,0.0,0.0,346.0,690.0,0.0,1,44.0,1
1260,1260,-0.7627729972920463,-0.8,0.0,1.0,487.0,863.0,1.0,0,410.0,1
1261,1261,0.6963861088816158,0.7,0.0,0.0,491.0,966.0,0.0,1,103.0,1
1262,1262,-0.03392241047679512,-0.0,1.0,0.0,321.0,653.0,0.0,0,586.0,1
1263,1263,-0.5688043823702615,-0.6,1.0,0.0,303.0,530.0,0.0,0,277.0,1
1264,1264,0.28980673847022087,0.3,0.0,0.0,310.0,721.0,0.0,1,259.0,1
1265,1265,-0.6518635599357415,-0.7,0.0,1.0,489.0,876.0,1.0,0,385.0,1
1266,1266,-0.07832827249252694,-0.1,1.0,0.0,276.0,818.0,0.0,0,336.0,1
1267,1267,-0.8302145510517391,-0.8,0.0,1.0,299.0,598.0,1.0,0,1073.0,1
1268,1268,-0.6123078618984977,-0.6,0.0,1.0,308.0,829.0,1.0,0,253.0,1
1269,1269,0.6769970773694626,0.7,1.0,1.0,285.0,980.0,1.0,1,265.0,1
1270,1270,-0.8870591202582779,-0.9,0.0,1.0,447.0,891.0,1.0,0,212.0,1
1271,1271,-0.41348925249058804,-0.4,0.0,1.0,255.0,576.0,1.0,0,419.0,1
1272,1272,-0.13026758038050756,-0.1,0.0,1.0,390.0,991.0,1.0,0,899.0,1
1273,1273,0.39845512257298654,0.4,1.0,1.0,316.0,875.0,1.0,1,389.0,1
1274,1274,-0.7787319614344842,-0.8,0.0,1.0,320.0,907.0,1.0,0,223.0,1
1275,1275,-0.5387236479690611,-0.5,1.0,0.0,369.0,899.0,0.0,0,82.0,1
1276,1276,0.20998308639661134,0.2,1.0,1.0,286.0,531.0,1.0,1,1393.0,1
1277,1277,-0.21902207467320178,-0.2,1.0,0.0,380.0,639.0,0.0,0,321.0,1
1278,1278,-0.7361654152828809,-0.7,0.0,1.0,406.0,670.0,1.0,0,404.0,1
1279,1279,-0.3670150322497222,-0.4,1.0,0.0,420.0,662.0,0.0,0,288.0,1
1280,1280,0.48572499765943056,0.5,1.0,1.0,338.0,576.0,1.0,1,436.0,1
1281,1281,-0.6160575905973147,-0.6,1.0,0.0,268.0,828.0,0.0,0,254.0,1
1282,1282,-0.0869456448423176,-0.1,0.0,1.0,259.0,937.0,0.0,1,4.0,0
1283,1283,-0.06401173619622125,-0.1,1.0,0.0,496.0,540.0,0.0,0,524.0,1
1284,1284,0.8977505952683696,0.9,1.0,1.0,389.0,567.0,1.0,1,334.0,1
1285,1285,0.8678350150847417,0.9,0.0,0.0,267.0,665.0,0.0,1,138.0,1
1286,1286,-0.5865676462012811,-0.6,0.0,1.0,426.0,633.0,1.0,0,221.0,1
1287,1287,0.8607716407941678,0.9,1.0,1.0,393.0,802.0,1.0,1,395.0,1
1288,1288,-0.6523199876053993,-0.7,1.0,0.0,457.0,817.0,0.0,0,126.0,1
1289,1289,-0.7599302124859285,-0.8,1.0,0.0,361.0,647.0,0.0,0,102.0,1
1290,1290,-0.47457600634604125,-0.5,1.0,0.0,496.0,691.0,0.0,0,143.0,1
1291,1291,-0.8365405788375401,-0.8,0.0,1.0,314.0,739.0,1.0,0,87.0,1
1292,1292,-0.6112318334457452,-0.6,0.0,1.0,490.0,909.0,1.0,0,121.0,1
1293,1293,0.22490288529957814,0.2,0.0,0.0,264.0,575.0,0.0,1,391.0,1
1294,1294,-0.839315715182958,-0.8,0.0,1.0,276.0,895.0,1.0,0,399.0,1
1295,1295,0.1624982909020546,0.2,0.0,0.0,392.0,762.0,0.0,1,566.0,1
1296,1296,-0.37828232595253375,-0.4,0.0,1.0,342.0,850.0,1.0,0,448.0,1
1297,1297,-0.5034502846689246,-0.5,1.0,0.0,407.0,715.0,0.0,0,78.0,1
1298,1298,-0.7751886996530344,-0.8,0.0,1.0,450.0,715.0,1.0,0,175.0,1
1299,1299,0.5068789579888932,0.5,0.0,0.0,413.0,680.0,0.0,1,137.0,1
1300,1300,-0.8081170608091685,-0.8,0.0,1.0,483.0,585.0,1.0,0,272.0,1
1301,1301,0.22547468649041302,0.2,0.0,0.0,478.0,592.0,0.0,1,710.0,1
1302,1302,0.7767695662968795,0.8,1.0,1.0,339.0,536.0,1.0,1,395.0,1
1303,1303,0.04664759087531034,0.0,1.0,1.0,461.0,539.0,0.0,0,2000.0,0
1304,1304,0.7210356739835301,0.7,1.0,1.0,278.0,825.0,1.0,1,147.0,1
1305,1305,0.2758428570414807,0.3,1.0,1.0,308.0,777.0,1.0,1,345.0,1
1306,1306,-0.6443684423247169,-0.6,0.0,1.0,350.0,736.0,1.0,0,334.0,1
1307,1307,-0.2596285833292096,-0.3,1.0,0.0,352.0,712.0,0.0,0,226.0,1
1308,1308,-0.1682985454701993,-0.2,1.0,0.0,420.0,597.0,0.0,0,793.0,1
1309,1309,0.09837608083857718,0.1,1.0,1.0,449.0,995.0,1.0,1,1556.0,1
1310,1310,0.5610482467459407,0.6,0.0,0.0,402.0,816.0,0.0,1,72.0,1
1311,1311,0.4441380785118477,0.4,0.0,0.0,364.0,888.0,0.0,1,168.0,1
1312,1312,-0.11841345996643171,-0.1,1.0,0.0,447.0,791.0,0.0,0,212.0,1
1313,1313,0.5634505881645296,0.6,1.0,1.0,466.0,670.0,0.0,0,4.0,0
1314,1314,-0.4771207891678395,-0.5,0.0,1.0,374.0,761.0,1.0,0,405.0,1
1315,1315,0.01555153082373173,0.0,0.0,0.0,421.0,538.0,0.0,1,2041.0,1
1316,1316,0.7423274584649927,0.7,0.0,0.0,415.0,579.0,0.0,1,246.0,1
1317,1317,0.6556644297297428,0.7,1.0,1.0,366.0,777.0,1.0,1,197.0,1
1318,1318,0.03815642988197698,0.0,1.0,1.0,342.0,914.0,0.0,0,54.0,0
1319,1319,0.5914054535364243,0.6,1.0,1.0,367.0,795.0,1.0,1,308.0,1
1320,1320,0.15146824646003088,0.2,1.0,1.0,342.0,793.0,1.0,1,625.0,1
1321,1321,0.708105183239739,0.7,1.0,1.0,251.0,509.0,1.0,1,170.0,1
1322,1322,0.7362932664139091,0.7,1.0,1.0,434.0,737.0,1.0,1,189.0,1
1323,1323,-0.1347428725683194,-0.1,0.0,1.0,283.0,694.0,1.0,0,943.0,1
1324,1324,0.21603577712637378,0.2,0.0,0.0,324.0,623.0,0.0,1,753.0,1
1325,1325,0.1415143345454989,0.1,0.0,0.0,264.0,797.0,0.0,1,699.0,1
1326,1326,-0.4399180905741205,-0.4,1.0,0.0,397.0,907.0,0.0,0,256.0,1
1327,1327,-0.4624911112862122,-0.5,1.0,0.0,420.0,559.0,0.0,0,181.0,1
1328,1328,0.0880043057750447,0.1,1.0,1.0,418.0,982.0,0.0,0,1600.0,0
1329,1329,0.21416657409943285,0.2,1.0,1.0,405.0,984.0,1.0,1,981.0,1
1330,1330,-0.41641872422805476,-0.4,1.0,0.0,491.0,515.0,0.0,0,284.0,1
1331,1331,-0.02906424366884608,-0.0,0.0,1.0,268.0,750.0,1.0,0,1982.0,1
1332,1332,0.26243168613990286,0.3,1.0,1.0,385.0,909.0,1.0,1,286.0,1
1333,1333,-0.1482896974832164,-0.1,1.0,0.0,325.0,708.0,0.0,0,627.0,1
1334,1334,0.8022575300949156,0.8,0.0,0.0,360.0,672.0,0.0,1,128.0,1
1335,1335,-0.22122325286503752,-0.2,0.0,1.0,321.0,945.0,1.0,0,764.0,1
1336,1336,0.7827525050054033,0.8,0.0,0.0,342.0,514.0,0.0,1,274.0,1
1337,1337,-0.3740552936656353,-0.4,1.0,0.0,478.0,775.0,0.0,0,267.0,1
1338,1338,-0.18854907302634039,-0.2,1.0,0.0,266.0,805.0,0.0,0,409.0,1
1339,1339,-0.4300909290733907,-0.4,0.0,1.0,452.0,513.0,1.0,0,385.0,1
1340,1340,-0.4510370761621334,-0.5,1.0,0.0,346.0,848.0,0.0,0,166.0,1
1341,1341,-0.5697436210545783,-0.6,0.0,1.0,424.0,561.0,1.0,0,735.0,1
1342,1342,-0.7238830258996022,-0.7,1.0,0.0,292.0,889.0,0.0,0,99.0,1
1343,1343,0.1496449815543005,0.1,1.0,1.0,290.0,624.0,1.0,1,1436.0,1
1344,1344,-0.3253786925764691,-0.3,0.0,1.0,361.0,732.0,1.0,0,1587.0,1
1345,1345,0.11314167821817567,0.1,0.0,0.0,383.0,739.0,0.0,1,218.0,1
1346,1346,0.8734520528460449,0.9,0.0,0.0,300.0,860.0,0.0,1,120.0,1
1347,1347,-0.16334603211066845,-0.2,1.0,0.0,287.0,609.0,0.0,0,544.0,1
1348,1348,0.04554119561728731,0.0,0.0,0.0,320.0,616.0,0.0,1,1774.0,1
1349,1349,-0.8499428652214269,-0.8,0.0,1.0,492.0,736.0,1.0,0,132.0,1
1350,1350,0.5796580544791164,0.6,1.0,1.0,388.0,533.0,1.0,1,299.0,1
1351,1351,-0.7399856392020338,-0.7,0.0,1.0,456.0,830.0,1.0,0,214.0,1
1352,1352,-0.16799746670750126,-0.2,1.0,0.0,441.0,755.0,0.0,0,404.0,1
1353,1353,0.8575175392329942,0.9,1.0,1.0,322.0,595.0,1.0,1,143.0,1
1354,1354,-0.5582592286235237,-0.6,0.0,1.0,406.0,808.0,1.0,0,216.0,1
1355,1355,-0.005740727910377386,-0.0,0.0,1.0,333.0,731.0,0.0,1,1936.0,0
1356,1356,-0.8934220051694498,-0.9,1.0,0.0,256.0,799.0,0.0,0,125.0,1
1357,1357,0.3013798123396437,0.3,0.0,0.0,334.0,623.0,0.0,1,403.0,1
1358,1358,-0.7152933223554979,-0.7,0.0,1.0,329.0,992.0,1.0,0,199.0,1
1359,1359,-0.1726508826189147,-0.2,0.0,1.0,286.0,604.0,1.0,0,600.0,1
1360,1360,0.12682501214387354,0.1,0.0,0.0,486.0,629.0,0.0,1,415.0,1
1361,1361,0.8888511765236421,0.9,1.0,1.0,312.0,990.0,1.0,1,128.0,1
1362,1362,0.6824232078855826,0.7,0.0,0.0,495.0,875.0,0.0,1,80.0,1
1363,1363,0.36523382320596787,0.4,1.0,1.0,335.0,898.0,1.0,1,327.0,1
1364,1364,-0.23203291437145646,-0.2,0.0,1.0,346.0,634.0,1.0,0,510.0,1
1365,1365,-0.06769432088658989,-0.1,1.0,0.0,287.0,790.0,0.0,0,-67.0,1
1366,1366,0.06030956449402591,0.1,0.0,0.0,344.0,628.0,0.0,1,628.0,1
1367,1367,-0.10049635401603263,-0.1,0.0,1.0,295.0,880.0,1.0,0,1175.0,1
1368,1368,0.06042687567958838,0.1,1.0,1.0,290.0,903.0,0.0,0,487.0,0
1369,1369,-0.7102188770707621,-0.7,0.0,1.0,313.0,942.0,1.0,0,145.0,1
1370,1370,-0.7891870259121635,-0.8,0.0,1.0,358.0,974.0,1.0,0,148.0,1
1371,1371,0.10199874143199483,0.1,0.0,0.0,431.0,724.0,0.0,1,745.0,1
1372,1372,0.19312675450025274,0.2,0.0,0.0,474.0,883.0,0.0,1,333.0,1
1373,1373,-0.31601233898158454,-0.3,0.0,1.0,403.0,616.0,1.0,0,541.0,1
1374,1374,-0.5849870411700833,-0.6,0.0,1.0,407.0,922.0,1.0,0,591.0,1
1375,1375,0.16354979758595933,0.2,1.0,1.0,343.0,579.0,1.0,1,568.0,1
1376,1376,0.696209569856593,0.7,1.0,1.0,430.0,957.0,1.0,1,203.0,1
1377,1377,0.3555712955463127,0.4,0.0,0.0,417.0,981.0,0.0,1,142.0,1
1378,1378,0.31241370885433606,0.3,1.0,1.0,348.0,868.0,1.0,1,184.0,1
1379,1379,0.21170535707143256,0.2,1.0,1.0,250.0,832.0,1.0,1,1568.0,1
1380,1380,0.08494133049063113,0.1,0.0,0.0,341.0,882.0,0.0,1,1507.0,1
1381,1381,-0.4156600003035143,-0.4,1.0,0.0,481.0,547.0,0.0,0,422.0,1
1382,1382,-0.11814561491717435,-0.1,1.0,0.0,400.0,729.0,0.0,0,711.0,1
1383,1383,-0.6697680217806095,-0.7,1.0,0.0,471.0,797.0,0.0,0,182.0,1
1384,1384,0.3183247238644157,0.3,0.0,0.0,291.0,565.0,0.0,1,194.0,1
1385,1385,0.7728998691234109,0.8,1.0,1.0,426.0,775.0,1.0,1,189.0,1
1386,1386,0.519534303205801,0.5,1.0,1.0,396.0,999.0,1.0,1,395.0,1
1387,1387,0.15103046696009004,0.2,1.0,1.0,273.0,586.0,1.0,1,861.0,1
1388,1388,-0.5137620979133544,-0.5,0.0,1.0,450.0,981.0,1.0,0,159.0,1
1389,1389,-0.10653758378200684,-0.1,1.0,0.0,435.0,844.0,0.0,0,511.0,1
1390,1390,0.6448973061337336,0.6,1.0,1.0,323.0,505.0,1.0,1,382.0,1
1391,1391,0.17660758352135486,0.2,0.0,0.0,481.0,891.0,0.0,1,248.0,1
1392,1392,-0.006725510530691814,-0.0,0.0,1.0,485.0,896.0,1.0,0,1619.0,1
1393,1393,0.058694795939905564,0.1,0.0,0.0,291.0,893.0,0.0,1,466.0,1
1394,1394,-0.7774901712764773,-0.8,0.0,1.0,462.0,549.0,1.0,0,329.0,1
1395,1395,0.8306715315949235,0.8,1.0,1.0,334.0,712.0,1.0,1,194.0,1
1396,1396,0.4075132692768658,0.4,0.0,0.0,376.0,940.0,0.0,1,124.0,1
1397,1397,0.5126687403174651,0.5,1.0,1.0,316.0,897.0,1.0,1,527.0,1
1398,1398,0.888538232984248,0.9,1.0,1.0,372.0,615.0,1.0,1,203.0,1
1399,1399,-0.04204769041087375,-0.0,0.0,1.0,360.0,663.0,0.0,1,1667.0,0
1400,1400,0.32056808307006934,0.3,0.0,0.0,272.0,807.0,0.0,1,241.0,1
1401,1401,-0.8545737729416457,-0.9,0.0,1.0,362.0,658.0,1.0,0,210.0,1
1402,1402,0.6218784806442937,0.6,0.0,0.0,354.0,503.0,0.0,1,333.0,1
1403,1403,-0.26077138373856046,-0.3,0.0,1.0,342.0,712.0,1.0,0,1116.0,1
1404,1404,-0.551291747037413,-0.6,1.0,0.0,326.0,845.0,0.0,0,89.0,1
1405,1405,0.1236136654411123,0.1,0.0,0.0,429.0,788.0,0.0,1,313.0,1
1406,1406,-0.09641767388330813,-0.1,1.0,0.0,251.0,865.0,0.0,0,814.0,1
1407,1407,-0.6072621229378208,-0.6,1.0,0.0,286.0,752.0,0.0,0,192.0,1
1408,1408,-0.03447631694026887,-0.0,1.0,0.0,338.0,618.0,0.0,0,434.0,1
1409,1409,-0.32746554361286817,-0.3,1.0,0.0,313.0,891.0,0.0,0,66.0,1
1410,1410,-0.24560653437822821,-0.2,0.0,1.0,371.0,874.0,1.0,0,525.0,1
1411,1411,-0.5704766974870734,-0.6,0.0,1.0,468.0,643.0,1.0,0,209.0,1
1412,1412,0.8728607592368344,0.9,0.0,0.0,284.0,875.0,0.0,1,61.0,1
1413,1413,0.6350869337841846,0.6,1.0,1.0,356.0,613.0,1.0,1,431.0,1
1414,1414,0.11946178539950913,0.1,1.0,1.0,478.0,634.0,1.0,1,1058.0,1
1415,1415,-0.04372437102074056,-0.0,1.0,0.0,349.0,977.0,0.0,0,974.0,1
1416,1416,-0.3238979138264122,-0.3,0.0,1.0,324.0,877.0,1.0,0,159.0,1
1417,1417,-0.8785629319869611,-0.9,1.0,0.0,447.0,766.0,0.0,0,67.0,1
1418,1418,-0.5445833981743085,-0.5,1.0,0.0,327.0,880.0,0.0,0,143.0,1
1419,1419,-0.40206326353324096,-0.4,1.0,0.0,394.0,957.0,0.0,0,159.0,1
1420,1420,0.003440167087172652,0.0,0.0,0.0,335.0,998.0,0.0,1,1667.0,1
1421,1421,-0.5275835525810213,-0.5,0.0,1.0,376.0,604.0,1.0,0,710.0,1
1422,1422,0.5620114279607465,0.6,0.0,0.0,322.0,677.0,0.0,1,191.0,1
1423,1423,0.21094542831906737,0.2,0.0,0.0,435.0,862.0,0.0,1,383.0,1
1424,1424,-0.396211518887881,-0.4,1.0,0.0,308.0,792.0,0.0,0,180.0,1
1425,1425,-0.6593228485237002,-0.7,0.0,1.0,338.0,925.0,1.0,0,327.0,1
1426,1426,0.40880403611378535,0.4,0.0,0.0,372.0,632.0,0.0,1,346.0,1
1427,1427,-0.42164730244284787,-0.4,1.0,0.0,382.0,666.0,0.0,0,292.0,1
1428,1428,-0.07957051408086002,-0.1,0.0,1.0,336.0,728.0,1.0,0,1936.0,1
1429,1429,0.2797336831050298,0.3,1.0,1.0,390.0,633.0,1.0,1,577.0,1
1430,1430,-0.5314477842793419,-0.5,0.0,1.0,483.0,964.0,1.0,0,193.0,1
1431,1431,0.6971362489552343,0.7,1.0,1.0,483.0,981.0,1.0,1,226.0,1
1432,1432,0.21062925485883832,0.2,1.0,1.0,332.0,656.0,1.0,1,272.0,1
1433,1433,-0.45013882644489084,-0.5,1.0,0.0,460.0,943.0,0.0,0,87.0,1
1434,1434,0.40391826241206774,0.4,1.0,1.0,286.0,618.0,1.0,1,516.0,1
1435,1435,0.3034372743229349,0.3,0.0,0.0,380.0,558.0,0.0,1,442.0,1
1436,1436,-0.6658445542957507,-0.7,1.0,0.0,298.0,767.0,0.0,0,205.0,1
1437,1437,-0.4143507084341682,-0.4,0.0,1.0,434.0,815.0,1.0,0,201.0,1
1438,1438,-0.8604412882695023,-0.9,0.0,1.0,266.0,526.0,1.0,0,258.0,1
1439,1439,0.5391197232566826,0.5,0.0,0.0,333.0,991.0,0.0,1,86.0,1
1440,1440,-0.3036127610666455,-0.3,0.0,1.0,352.0,871.0,1.0,0,357.0,1
1441,1441,0.8831233053741373,0.9,1.0,1.0,362.0,573.0,1.0,1,525.0,1
1442,1442,-0.06628646360156676,-0.1,0.0,1.0,469.0,938.0,1.0,0,1583.0,1
1443,1443,-0.33211424281227453,-0.3,1.0,0.0,347.0,546.0,0.0,0,297.0,1
1444,1444,-0.7332598746118133,-0.7,0.0,1.0,364.0,545.0,1.0,0,101.0,1
1445,1445,-0.2291176059479626,-0.2,1.0,0.0,359.0,620.0,0.0,0,371.0,1
1446,1446,-0.16026934478119514,-0.2,0.0,1.0,273.0,726.0,1.0,0,2001.0,1
1447,1447,0.8916861439625478,0.9,1.0,1.0,404.0,868.0,1.0,1,128.0,1
1448,1448,-0.29891532382408914,-0.3,0.0,1.0,445.0,895.0,1.0,0,1520.0,1
1449,1449,-0.13357494242332157,-0.1,1.0,0.0,302.0,803.0,0.0,0,515.0,1
1450,1450,0.3702481903860658,0.4,1.0,1.0,279.0,984.0,1.0,1,287.0,1
1451,1451,0.11885735937731512,0.1,0.0,0.0,293.0,742.0,0.0,1,795.0,1
1452,1452,0.16119182227427575,0.2,0.0,0.0,398.0,837.0,0.0,1,45.0,1
1453,1453,0.3194028867166344,0.3,1.0,1.0,326.0,644.0,1.0,1,900.0,1
1454,1454,-0.7508518320604515,-0.8,0.0,1.0,348.0,883.0,1.0,0,529.0,1
1455,1455,-0.2251356891376416,-0.2,1.0,0.0,459.0,552.0,0.0,0,369.0,1
1456,1456,0.7366089297928456,0.7,0.0,0.0,380.0,910.0,0.0,1,80.0,1
1457,1457,-0.6162058664561345,-0.6,1.0,0.0,395.0,600.0,0.0,0,175.0,1
1458,1458,0.5505729357441626,0.6,1.0,1.0,479.0,678.0,1.0,1,423.0,1
1459,1459,0.3049299778154332,0.3,0.0,0.0,271.0,595.0,0.0,1,134.0,1
1460,1460,-0.3033477615595185,-0.3,0.0,1.0,321.0,939.0,1.0,0,620.0,1
1461,1461,-0.7796713040675645,-0.8,0.0,1.0,256.0,892.0,1.0,0,1852.0,1
1462,1462,0.5853992267609317,0.6,0.0,0.0,405.0,902.0,0.0,1,213.0,1
1463,1463,-0.2608404815536701,-0.3,0.0,1.0,307.0,655.0,1.0,0,848.0,1
1464,1464,-0.5526212154294707,-0.6,1.0,0.0,496.0,793.0,0.0,0,31.0,1
1465,1465,0.029518701252897128,0.0,1.0,1.0,265.0,500.0,0.0,0,185.0,0
1466,1466,0.3840241136659718,0.4,1.0,1.0,265.0,693.0,1.0,1,352.0,1
1467,1467,-0.3529320733279463,-0.4,0.0,1.0,299.0,748.0,1.0,0,453.0,1
1468,1468,0.7931904371753379,0.8,0.0,0.0,481.0,963.0,0.0,1,156.0,1
1469,1469,0.7971097529185139,0.8,1.0,1.0,404.0,955.0,1.0,1,331.0,1
1470,1470,-0.382227272737079,-0.4,1.0,0.0,361.0,633.0,0.0,0,316.0,1
1471,1471,-0.22145935310904397,-0.2,1.0,0.0,374.0,929.0,0.0,0,107.0,1
1472,1472,-0.7711351757165297,-0.8,0.0,1.0,457.0,801.0,1.0,0,212.0,1
1473,1473,-0.5033991952335444,-0.5,1.0,0.0,277.0,863.0,0.0,0,40.0,1
1474,1474,-0.09179020191126408,-0.1,1.0,0.0,346.0,775.0,0.0,0,699.0,1
1475,1475,-0.5960561201716632,-0.6,0.0,1.0,297.0,690.0,1.0,0,2013.0,1
1476,1476,0.22295008659510496,0.2,0.0,0.0,441.0,574.0,0.0,1,245.0,1
1477,1477,-0.7538433783011469,-0.8,1.0,0.0,449.0,871.0,0.0,0,120.0,1
1478,1478,0.4749178249706364,0.5,1.0,1.0,253.0,718.0,1.0,1,389.0,1
1479,1479,-0.5829076698210293,-0.6,1.0,0.0,496.0,597.0,0.0,0,187.0,1
1480,1480,-0.5606157492201611,-0.6,0.0,1.0,297.0,515.0,1.0,0,368.0,1
1481,1481,-0.12041961706201898,-0.1,1.0,0.0,309.0,924.0,0.0,0,367.0,1
1482,1482,-0.12112483674358654,-0.1,0.0,1.0,387.0,705.0,1.0,0,1728.0,1
1483,1483,-0.4084609168492088,-0.4,1.0,0.0,384.0,772.0,0.0,0,234.0,1
1484,1484,0.5030351259733213,0.5,0.0,0.0,417.0,885.0,0.0,1,198.0,1
1485,1485,0.4189085119471797,0.4,1.0,1.0,266.0,733.0,1.0,1,151.0,1
1486,1486,0.8131239756763092,0.8,0.0,0.0,336.0,598.0,0.0,1,86.0,1
1487,1487,-0.46394312205349975,-0.5,1.0,0.0,350.0,839.0,0.0,0,111.0,1
1488,1488,-0.4618197934861451,-0.5,1.0,0.0,257.0,579.0,0.0,0,184.0,1
1489,1489,0.5301058281093155,0.5,0.0,0.0,412.0,929.0,0.0,1,169.0,1
1490,1490,0.6105915338229785,0.6,0.0,0.0,318.0,766.0,0.0,1,236.0,1
1491,1491,0.0018676899945203607,0.0,0.0,0.0,436.0,877.0,1.0,0,1687.0,0
1492,1492,0.4871025587765302,0.5,1.0,1.0,314.0,818.0,1.0,1,298.0,1
