,trial,coherence,coherence_bin,green_side,correct_side,target_onset,checker_onset,decision,green_decision,decision_time,correct_decision
0,0,0.5486184485440008,0.5,0.0,0.0,329.0,967.0,0.0,1,3704.0,1
1,1,0.6057297369062024,0.6,0.0,0.0,332.0,926.0,0.0,1,3742.0,1
2,2,-0.015302232284490791,-0.0,1.0,0.0,428.0,604.0,0.0,0,3968.0,1
3,3,-0.7157962318184498,-0.7,0.0,1.0,315.0,563.0,0.0,1,4122.0,0
4,4,-0.02111283118536511,-0.0,1.0,0.0,390.0,890.0,0.0,0,3720.0,1
5,5,0.4957354872665235,0.5,0.0,0.0,332.0,655.0,0.0,1,4013.0,1
6,6,0.47326688953359597,0.5,1.0,1.0,332.0,730.0,0.0,0,3938.0,0
7,7,0.8484435914867438,0.8,1.0,1.0,341.0,818.0,0.0,0,3841.0,0
8,8,-0.009770857299351121,-0.0,0.0,1.0,282.0,590.0,0.0,1,4128.0,0
9,9,-0.10249025212404361,-0.1,0.0,1.0,357.0,799.0,0.0,1,3844.0,0
10,10,0.6674606680741054,0.7,0.0,0.0,402.0,766.0,0.0,1,-978.0,1
11,11,-0.008263262943609462,-0.0,0.0,1.0,339.0,961.0,0.0,1,3700.0,0
12,12,-0.7065659504455616,-0.7,1.0,0.0,304.0,553.0,1.0,1,-777.0,0
13,13,0.08239481636039492,0.1,0.0,0.0,426.0,551.0,0.0,1,4023.0,1
14,14,0.6122990698290779,0.6,0.0,0.0,485.0,892.0,0.0,1,3623.0,1
15,15,-0.7722333812963815,-0.8,1.0,0.0,496.0,817.0,0.0,0,3687.0,1
16,16,-0.8160520001210336,-0.8,1.0,0.0,292.0,699.0,0.0,0,4009.0,1
17,17,-0.6068267816482209,-0.6,0.0,1.0,296.0,902.0,0.0,1,3802.0,0
18,18,0.1597050860403023,0.2,0.0,0.0,414.0,522.0,0.0,1,4064.0,1
19,19,0.5567465975896869,0.6,0.0,0.0,484.0,958.0,0.0,1,3558.0,1
20,20,-0.8582191948554466,-0.9,0.0,1.0,282.0,581.0,0.0,1,4137.0,0
21,21,-0.4601102791777862,-0.5,0.0,1.0,269.0,821.0,1.0,0,-960.0,1
22,22,0.7669557357064153,0.8,1.0,1.0,337.0,774.0,0.0,0,3889.0,0
23,23,-0.41753951663004035,-0.4,0.0,1.0,345.0,687.0,1.0,0,-932.0,1
24,24,-0.739111926328095,-0.7,0.0,1.0,298.0,668.0,0.0,1,4034.0,0
25,25,-0.668839725094325,-0.7,1.0,0.0,350.0,778.0,0.0,0,3872.0,1
26,26,-0.4355002224767873,-0.4,0.0,1.0,346.0,869.0,0.0,1,3785.0,0
27,27,-0.7465895310843539,-0.7,0.0,1.0,326.0,705.0,0.0,1,3969.0,0
28,28,0.0855375636198007,0.1,0.0,0.0,344.0,927.0,0.0,1,3729.0,1
29,29,0.08725611632724772,0.1,0.0,0.0,345.0,823.0,0.0,1,3832.0,1
30,30,-0.29520276554866354,-0.3,0.0,1.0,254.0,917.0,0.0,1,3829.0,0
31,31,0.36907306289396435,0.4,0.0,0.0,412.0,810.0,0.0,1,3778.0,1
32,32,0.5295112774112506,0.5,1.0,1.0,332.0,523.0,0.0,0,4145.0,0
33,33,-0.2162117518437856,-0.2,1.0,0.0,283.0,792.0,0.0,0,3925.0,1
34,34,-0.35618451504465665,-0.4,0.0,1.0,285.0,640.0,0.0,1,4075.0,0
35,35,0.19546095407113173,0.2,1.0,1.0,327.0,621.0,1.0,1,-848.0,1
36,36,0.4393948997273439,0.4,1.0,1.0,260.0,964.0,0.0,0,3776.0,0
37,37,-0.8406383146360487,-0.8,0.0,1.0,265.0,592.0,0.0,1,4143.0,0
38,38,-0.16892334273146514,-0.2,1.0,0.0,411.0,672.0,0.0,0,3917.0,1
39,39,-0.4987616531321121,-0.5,0.0,1.0,328.0,644.0,0.0,1,4028.0,0
40,40,0.8684788839271124,0.9,0.0,0.0,282.0,683.0,0.0,1,4035.0,1
41,41,0.28487496828886305,0.3,1.0,1.0,260.0,759.0,0.0,0,3981.0,0
42,42,0.19021559271121025,0.2,1.0,1.0,479.0,868.0,0.0,0,3653.0,0
43,43,-0.19400572555913054,-0.2,0.0,1.0,367.0,933.0,0.0,1,3700.0,0
44,44,-0.4968508198900428,-0.5,0.0,1.0,362.0,902.0,0.0,1,3736.0,0
45,45,-0.68015250261349,-0.7,0.0,1.0,385.0,516.0,0.0,1,-831.0,0
46,46,-0.859885721859967,-0.9,1.0,0.0,394.0,954.0,1.0,1,-608.0,0
47,47,-0.8457675303571984,-0.8,1.0,0.0,365.0,762.0,1.0,1,-1097.0,0
48,48,0.4201982758999373,0.4,0.0,0.0,455.0,801.0,0.0,1,-1236.0,1
49,49,0.8923341514501789,0.9,1.0,1.0,279.0,695.0,0.0,0,4026.0,0
50,50,0.2792768832404896,0.3,1.0,1.0,431.0,528.0,0.0,0,4041.0,0
51,51,-0.3022445984206571,-0.3,0.0,1.0,461.0,612.0,0.0,1,-763.0,0
52,52,-0.5879226986964963,-0.6,0.0,1.0,290.0,737.0,0.0,1,3973.0,0
53,53,-0.5580831573648715,-0.6,0.0,1.0,265.0,905.0,0.0,1,3830.0,0
54,54,0.7084964494221676,0.7,1.0,1.0,286.0,661.0,0.0,0,4053.0,0
55,55,-0.43772390495847485,-0.4,1.0,0.0,468.0,528.0,0.0,0,4004.0,1
56,56,0.18070693978071295,0.2,1.0,1.0,270.0,659.0,0.0,0,4071.0,0
57,57,0.704117258444089,0.7,1.0,1.0,419.0,760.0,0.0,0,3821.0,0
58,58,0.0004948417701468033,0.0,1.0,1.0,393.0,833.0,0.0,0,3774.0,0
59,59,0.5236849835874272,0.5,0.0,0.0,275.0,594.0,0.0,1,4131.0,1
60,60,0.1713667577726713,0.2,0.0,0.0,373.0,503.0,0.0,1,4124.0,1
61,61,0.5570239482088265,0.6,1.0,1.0,256.0,527.0,0.0,0,4217.0,0
62,62,-0.5569269925454643,-0.6,1.0,0.0,467.0,907.0,0.0,0,3626.0,1
63,63,0.4834692609517949,0.5,1.0,1.0,499.0,693.0,0.0,0,-1052.0,0
64,64,-0.42470780167172817,-0.4,0.0,1.0,268.0,943.0,0.0,1,3789.0,0
65,65,-0.7227846949510203,-0.7,0.0,1.0,335.0,980.0,0.0,1,3685.0,0
66,66,0.6703334990350936,0.7,1.0,1.0,336.0,870.0,0.0,0,-1066.0,0
67,67,0.15431388560928483,0.2,1.0,1.0,495.0,874.0,0.0,0,-1189.0,0
68,68,0.46836156876154733,0.5,1.0,1.0,429.0,918.0,0.0,0,3653.0,0
69,69,0.427981002148487,0.4,0.0,0.0,469.0,961.0,1.0,0,-990.0,0
70,70,0.16217748241162766,0.2,1.0,1.0,393.0,850.0,0.0,0,3757.0,0
71,71,0.5572537741295805,0.6,0.0,0.0,301.0,511.0,0.0,1,-802.0,1
72,72,-0.3024946337891331,-0.3,0.0,1.0,381.0,933.0,1.0,0,-1304.0,1
73,73,-0.2684051100603071,-0.3,0.0,1.0,381.0,765.0,1.0,0,-1096.0,1
74,74,0.06591576337017624,0.1,1.0,1.0,384.0,819.0,0.0,0,3797.0,0
75,75,0.47202938456665466,0.5,1.0,1.0,382.0,804.0,0.0,0,3814.0,0
76,76,-0.021739379901354883,-0.0,0.0,1.0,262.0,705.0,0.0,1,4033.0,0
77,77,-0.6002736057020792,-0.6,0.0,1.0,356.0,770.0,0.0,1,3874.0,0
78,78,-0.6209216068231865,-0.6,1.0,0.0,283.0,694.0,1.0,1,-857.0,0
79,79,0.2746496511889255,0.3,0.0,0.0,459.0,679.0,0.0,1,3862.0,1
80,80,0.7772526617683101,0.8,0.0,0.0,449.0,852.0,0.0,1,3699.0,1
81,81,-0.8535318990785967,-0.9,0.0,1.0,382.0,607.0,0.0,1,4011.0,0
82,82,-0.3749025473539892,-0.4,1.0,0.0,250.0,744.0,0.0,0,-954.0,1
83,83,-0.6189487504945466,-0.6,1.0,0.0,497.0,676.0,0.0,0,3827.0,1
84,84,0.6169792113756035,0.6,1.0,1.0,457.0,735.0,0.0,0,3808.0,0
85,85,-0.7835237427392803,-0.8,0.0,1.0,451.0,995.0,0.0,1,3554.0,0
86,86,0.6092733910785585,0.6,0.0,0.0,478.0,755.0,1.0,0,-1163.0,0
87,87,0.34496750983384683,0.3,1.0,1.0,282.0,706.0,0.0,0,4012.0,0
88,88,0.23508252836554988,0.2,1.0,1.0,402.0,913.0,0.0,0,3685.0,0
89,89,-0.5070047002761284,-0.5,0.0,1.0,377.0,809.0,0.0,1,3814.0,0
90,90,0.22274976042229488,0.2,0.0,0.0,469.0,874.0,1.0,0,-1263.0,0
91,91,-0.5353429294113012,-0.5,1.0,0.0,443.0,656.0,0.0,0,-1089.0,1
92,92,0.7241602149470078,0.7,1.0,1.0,471.0,802.0,1.0,1,-1083.0,1
93,93,-0.7310988095948002,-0.7,1.0,0.0,362.0,890.0,0.0,0,3748.0,1
94,94,0.6880174377763318,0.7,1.0,1.0,367.0,787.0,0.0,0,3846.0,0
95,95,-0.4482673398932244,-0.4,0.0,1.0,342.0,778.0,0.0,1,3880.0,0
96,96,0.008312853182624647,0.0,1.0,1.0,499.0,743.0,0.0,0,3758.0,0
97,97,0.24336068807373124,0.2,1.0,1.0,374.0,853.0,0.0,0,3773.0,0
98,98,-0.25411292323226653,-0.3,1.0,0.0,487.0,780.0,1.0,1,-1237.0,0
99,99,0.1804616214658593,0.2,1.0,1.0,475.0,728.0,0.0,0,3797.0,0
100,100,0.5795052090884542,0.6,0.0,0.0,381.0,775.0,0.0,1,3844.0,1
101,101,-0.11747610184325041,-0.1,0.0,1.0,497.0,520.0,0.0,1,-907.0,0
102,102,-0.06276023038569944,-0.1,0.0,1.0,327.0,839.0,0.0,1,-766.0,0
103,103,-0.5220977349011776,-0.5,0.0,1.0,484.0,620.0,0.0,1,-924.0,0
104,104,-0.8545548985412317,-0.9,0.0,1.0,273.0,760.0,0.0,1,3967.0,0
105,105,0.047321299310049025,0.0,1.0,1.0,319.0,843.0,0.0,0,-1142.0,0
106,106,-0.6335676675483571,-0.6,1.0,0.0,393.0,570.0,0.0,0,-783.0,1
107,107,0.2665871969999253,0.3,1.0,1.0,287.0,681.0,0.0,0,4032.0,0
108,108,-0.254854132022315,-0.3,1.0,0.0,463.0,742.0,0.0,0,3795.0,1
109,109,0.48612246407020476,0.5,1.0,1.0,397.0,528.0,0.0,0,4075.0,0
110,110,-0.8365802823349796,-0.8,1.0,0.0,338.0,794.0,0.0,0,3868.0,1
111,111,-0.14242593266635495,-0.1,0.0,1.0,323.0,828.0,0.0,1,-1051.0,0
112,112,-0.46027568305626615,-0.5,0.0,1.0,432.0,643.0,0.0,1,3925.0,0
113,113,-0.35616341555613584,-0.4,0.0,1.0,389.0,970.0,1.0,0,-1249.0,1
114,114,0.7887190316106035,0.8,1.0,1.0,374.0,574.0,0.0,0,4052.0,0
115,115,-0.4568639984514669,-0.5,0.0,1.0,361.0,980.0,0.0,1,-901.0,0
116,116,0.7188456332653911,0.7,1.0,1.0,313.0,795.0,0.0,0,3892.0,0
117,117,0.8356069742280955,0.8,0.0,0.0,272.0,572.0,0.0,1,4156.0,1
118,118,-0.21643267730348914,-0.2,0.0,1.0,392.0,718.0,0.0,1,-870.0,0
119,119,-0.016631535040791068,-0.0,1.0,0.0,333.0,681.0,0.0,0,3986.0,1
120,120,0.06627029250046479,0.1,1.0,1.0,335.0,592.0,0.0,0,4073.0,0
121,121,0.286534465736657,0.3,0.0,0.0,366.0,602.0,0.0,1,4032.0,1
122,122,0.7055000521020826,0.7,0.0,0.0,263.0,703.0,0.0,1,4034.0,1
123,123,0.5740358443087165,0.6,1.0,1.0,483.0,522.0,0.0,0,3995.0,0
124,124,-0.04176435424912328,-0.0,1.0,0.0,442.0,684.0,0.0,0,3874.0,1
125,125,0.34755151681566965,0.3,0.0,0.0,334.0,630.0,0.0,1,4036.0,1
126,126,-0.4404242922307838,-0.4,1.0,0.0,471.0,712.0,1.0,1,-1143.0,0
127,127,0.7645758642829102,0.8,0.0,0.0,283.0,712.0,0.0,1,4005.0,1
128,128,0.6191512041035644,0.6,1.0,1.0,499.0,707.0,0.0,0,3794.0,0
129,129,-0.4791209978538173,-0.5,1.0,0.0,366.0,608.0,1.0,1,-914.0,0
130,130,0.20753432482506995,0.2,0.0,0.0,390.0,780.0,0.0,1,3830.0,1
131,131,-0.1619312820031139,-0.2,1.0,0.0,256.0,988.0,0.0,0,3756.0,1
132,132,0.05809969877660892,0.1,0.0,0.0,274.0,790.0,0.0,1,-894.0,1
133,133,0.7750634031177596,0.8,1.0,1.0,344.0,887.0,0.0,0,3769.0,0
134,134,0.7163549881448187,0.7,0.0,0.0,259.0,820.0,1.0,0,-429.0,0
135,135,0.6696574947953601,0.7,1.0,1.0,373.0,793.0,0.0,0,3834.0,0
136,136,-0.597047082033143,-0.6,0.0,1.0,476.0,543.0,0.0,1,3981.0,0
137,137,0.8991761143402904,0.9,0.0,0.0,425.0,967.0,0.0,1,3608.0,1
138,138,-0.7496267726558444,-0.7,1.0,0.0,329.0,959.0,0.0,0,3712.0,1
139,139,0.2696535608538221,0.3,0.0,0.0,449.0,649.0,0.0,1,3902.0,1
140,140,-0.8596637926361832,-0.9,1.0,0.0,443.0,517.0,0.0,0,4040.0,1
141,141,0.8935035025033237,0.9,1.0,1.0,275.0,635.0,0.0,0,4090.0,0
142,142,0.49367088752712374,0.5,1.0,1.0,359.0,883.0,0.0,0,3758.0,0
143,143,0.5510490311713535,0.6,1.0,1.0,445.0,686.0,0.0,0,3869.0,0
144,144,0.22279351739204778,0.2,0.0,0.0,323.0,886.0,0.0,1,3791.0,1
145,145,-0.1954790508119515,-0.2,1.0,0.0,311.0,849.0,0.0,0,3840.0,1
146,146,0.5481399324971702,0.5,1.0,1.0,475.0,919.0,1.0,1,-1344.0,1
147,147,-0.30858996430118757,-0.3,1.0,0.0,257.0,776.0,0.0,0,3967.0,1
148,148,0.05273770079747486,0.1,1.0,1.0,366.0,750.0,0.0,0,3884.0,0
149,149,0.6828413526170342,0.7,0.0,0.0,364.0,617.0,0.0,1,4019.0,1
150,150,-0.5115143498826786,-0.5,0.0,1.0,370.0,771.0,0.0,1,3859.0,0
151,151,0.32498465662061216,0.3,1.0,1.0,457.0,866.0,0.0,0,3677.0,0
152,152,0.10373230202268446,0.1,0.0,0.0,374.0,517.0,0.0,1,4109.0,1
153,153,0.17763676620379398,0.2,0.0,0.0,292.0,751.0,0.0,1,3957.0,1
154,154,0.7947019404447658,0.8,1.0,1.0,403.0,947.0,0.0,0,3650.0,0
155,155,0.4444142846475504,0.4,1.0,1.0,435.0,705.0,0.0,0,3860.0,0
156,156,0.5080798810816979,0.5,1.0,1.0,456.0,765.0,0.0,0,3779.0,0
157,157,-0.32062921377148634,-0.3,1.0,0.0,299.0,973.0,0.0,0,3728.0,1
158,158,0.6221792142060915,0.6,1.0,1.0,481.0,841.0,0.0,0,3678.0,0
159,159,-0.13638472352798214,-0.1,1.0,0.0,258.0,744.0,0.0,0,3998.0,1
160,160,0.8015341084970767,0.8,0.0,0.0,254.0,548.0,0.0,1,4198.0,1
161,161,-0.5230147859899621,-0.5,0.0,1.0,437.0,696.0,0.0,1,3867.0,0
162,162,-0.007641123562107444,-0.0,0.0,1.0,434.0,801.0,0.0,1,3765.0,0
163,163,-0.13041223050965323,-0.1,0.0,1.0,322.0,903.0,0.0,1,3775.0,0
164,164,-0.7368273956715581,-0.7,1.0,0.0,261.0,666.0,1.0,1,-877.0,0
165,165,0.08200418729666825,0.1,1.0,1.0,311.0,785.0,0.0,0,3904.0,0
166,166,0.6184048586137326,0.6,0.0,0.0,488.0,775.0,0.0,1,3737.0,1
167,167,-0.7374697362012593,-0.7,0.0,1.0,334.0,791.0,0.0,1,3875.0,0
168,168,0.741581769787358,0.7,0.0,0.0,446.0,552.0,0.0,1,-898.0,1
169,169,0.42778478614587734,0.4,1.0,1.0,436.0,503.0,0.0,0,4061.0,0
170,170,0.24724848968775037,0.2,0.0,0.0,379.0,505.0,0.0,1,-784.0,1
171,171,0.008483225160241914,0.0,1.0,1.0,357.0,807.0,0.0,0,3836.0,0
172,172,-0.3467283790087733,-0.3,0.0,1.0,271.0,611.0,0.0,1,4118.0,0
173,173,0.1616174613319198,0.2,1.0,1.0,475.0,752.0,1.0,1,-1057.0,1
174,174,0.6059063912318684,0.6,1.0,1.0,293.0,838.0,0.0,0,3869.0,0
175,175,-0.31599667951258703,-0.3,1.0,0.0,435.0,770.0,0.0,0,3795.0,1
176,176,-0.8288657475660991,-0.8,0.0,1.0,427.0,593.0,0.0,1,3980.0,0
177,177,0.15348731688476447,0.2,0.0,0.0,490.0,502.0,1.0,0,-892.0,0
178,178,0.3125445884396,0.3,0.0,0.0,270.0,799.0,0.0,1,3931.0,1
179,179,0.8051394147728125,0.8,1.0,1.0,485.0,993.0,0.0,0,-1378.0,0
180,180,0.06963229439226248,0.1,1.0,1.0,281.0,550.0,1.0,1,-441.0,1
181,181,0.5701001452440008,0.6,1.0,1.0,495.0,873.0,0.0,0,3632.0,0
182,182,-0.39735657961640336,-0.4,1.0,0.0,490.0,559.0,1.0,1,-949.0,0
183,183,-0.8165666678408029,-0.8,0.0,1.0,318.0,562.0,0.0,1,4120.0,0
184,184,0.12270896278279964,0.1,0.0,0.0,482.0,990.0,0.0,1,3528.0,1
185,185,0.09143383960619089,0.1,0.0,0.0,270.0,851.0,0.0,1,-641.0,1
186,186,0.1478813408212557,0.1,0.0,0.0,388.0,712.0,0.0,1,3900.0,1
187,187,-0.7739949443083961,-0.8,0.0,1.0,463.0,579.0,0.0,1,3958.0,0
188,188,0.4513789593865968,0.5,1.0,1.0,417.0,781.0,0.0,0,3802.0,0
189,189,0.5363607701132559,0.5,0.0,0.0,441.0,961.0,0.0,1,3598.0,1
190,190,-0.6356350703349558,-0.6,1.0,0.0,454.0,954.0,0.0,0,-1298.0,1
191,191,0.2300118404939292,0.2,1.0,1.0,423.0,805.0,0.0,0,3772.0,0
192,192,-0.8854392137109323,-0.9,0.0,1.0,462.0,932.0,0.0,1,3606.0,0
193,193,-0.36759873916641017,-0.4,0.0,1.0,382.0,840.0,1.0,0,-1192.0,1
194,194,0.6315673051962928,0.6,0.0,0.0,370.0,814.0,0.0,1,3816.0,1
195,195,0.8061533877186443,0.8,1.0,1.0,306.0,729.0,0.0,0,-1005.0,0
196,196,-0.07389033700478076,-0.1,1.0,0.0,316.0,742.0,0.0,0,3942.0,1
197,197,-0.04079958368947845,-0.0,0.0,1.0,309.0,980.0,0.0,1,3711.0,0
198,198,-0.3842639070888574,-0.4,1.0,0.0,362.0,599.0,0.0,0,4039.0,1
199,199,-0.20462077049331873,-0.2,1.0,0.0,352.0,594.0,0.0,0,4054.0,1
200,200,0.03265616984480113,0.0,0.0,0.0,407.0,944.0,0.0,1,3649.0,1
201,201,-0.026569274113729335,-0.0,0.0,1.0,265.0,940.0,0.0,1,3795.0,0
202,202,-0.5300444562261393,-0.5,1.0,0.0,330.0,686.0,0.0,0,3984.0,1
203,203,-0.7197728993838256,-0.7,0.0,1.0,388.0,518.0,0.0,1,4094.0,0
204,204,-0.014754882858076357,-0.0,1.0,0.0,457.0,584.0,1.0,1,-981.0,0
205,205,-0.051053496728722836,-0.1,0.0,1.0,293.0,586.0,0.0,1,4121.0,0
206,206,0.09845927242424213,0.1,1.0,1.0,495.0,816.0,0.0,0,3689.0,0
207,207,-0.42481671312765223,-0.4,0.0,1.0,419.0,840.0,0.0,1,3741.0,0
208,208,0.8245585876424094,0.8,1.0,1.0,404.0,799.0,0.0,0,-1063.0,0
209,209,0.7622218947760985,0.8,0.0,0.0,339.0,624.0,0.0,1,-503.0,1
210,210,-0.5321029447343426,-0.5,1.0,0.0,321.0,851.0,0.0,0,3828.0,1
211,211,0.2626918691848522,0.3,1.0,1.0,486.0,635.0,0.0,0,3879.0,0
212,212,0.29453672746903503,0.3,0.0,0.0,273.0,796.0,1.0,0,-629.0,0
213,213,-0.07807688788783274,-0.1,0.0,1.0,493.0,713.0,0.0,1,3794.0,0
214,214,0.0635581453215649,0.1,1.0,1.0,393.0,595.0,1.0,1,-898.0,1
215,215,-0.7738973679616323,-0.8,0.0,1.0,409.0,639.0,0.0,1,3952.0,0
216,216,-0.3246268072356655,-0.3,1.0,0.0,303.0,984.0,0.0,0,3713.0,1
217,217,0.20895910511641624,0.2,0.0,0.0,397.0,813.0,1.0,0,-260.0,0
218,218,-0.6399556928796533,-0.6,0.0,1.0,449.0,686.0,0.0,1,3865.0,0
219,219,0.48467696828331375,0.5,1.0,1.0,485.0,903.0,0.0,0,3612.0,0
220,220,-0.048395138706068486,-0.0,0.0,1.0,486.0,813.0,0.0,1,3701.0,0
221,221,-0.8688351311198397,-0.9,1.0,0.0,371.0,816.0,0.0,0,3813.0,1
222,222,-0.6744000585959933,-0.7,0.0,1.0,377.0,973.0,0.0,1,3650.0,0
223,223,0.8668332518463483,0.9,1.0,1.0,279.0,792.0,0.0,0,3929.0,0
224,224,0.6745090993014241,0.7,0.0,0.0,471.0,835.0,0.0,1,3694.0,1
225,225,0.5031103023666569,0.5,0.0,0.0,466.0,515.0,1.0,0,-911.0,0
226,226,-0.8524608520677517,-0.9,1.0,0.0,342.0,613.0,0.0,0,4045.0,1
227,227,-0.2694919650062231,-0.3,0.0,1.0,316.0,900.0,0.0,1,3784.0,0
228,228,-0.156084769297284,-0.2,1.0,0.0,463.0,632.0,0.0,0,3905.0,1
229,229,0.3116040810697568,0.3,0.0,0.0,281.0,984.0,0.0,1,3735.0,1
230,230,-0.4156622179677701,-0.4,1.0,0.0,426.0,922.0,0.0,0,3652.0,1
231,231,-0.3086617717872059,-0.3,0.0,1.0,357.0,586.0,0.0,1,4057.0,0
232,232,-0.4845414364774007,-0.5,1.0,0.0,260.0,805.0,0.0,0,3935.0,1
233,233,0.36033843379812514,0.4,0.0,0.0,389.0,670.0,0.0,1,3941.0,1
234,234,0.5663477787801853,0.6,0.0,0.0,423.0,505.0,0.0,1,4072.0,1
235,235,-0.7270387698803794,-0.7,0.0,1.0,463.0,931.0,0.0,1,3606.0,0
236,236,0.22480656123442244,0.2,1.0,1.0,284.0,707.0,0.0,0,4009.0,0
237,237,-0.2943935451049855,-0.3,0.0,1.0,326.0,868.0,0.0,1,3806.0,0
238,238,0.04654900100085724,0.0,1.0,1.0,472.0,981.0,0.0,0,3547.0,0
239,239,0.08187076905155077,0.1,0.0,0.0,458.0,739.0,0.0,1,-997.0,1
240,240,-0.6058966487868968,-0.6,0.0,1.0,443.0,588.0,0.0,1,-1021.0,0
241,241,-0.5024318530324496,-0.5,1.0,0.0,432.0,740.0,0.0,0,3828.0,1
242,242,0.5927828075598619,0.6,1.0,1.0,277.0,875.0,1.0,1,-1082.0,1
243,243,-0.25940902378417685,-0.3,1.0,0.0,271.0,794.0,0.0,0,3935.0,1
244,244,-0.7294063242994064,-0.7,0.0,1.0,335.0,866.0,0.0,1,3799.0,0
245,245,-0.06815643907856517,-0.1,0.0,1.0,402.0,965.0,0.0,1,3633.0,0
246,246,-0.09331634256608934,-0.1,1.0,0.0,276.0,949.0,0.0,0,3775.0,1
247,247,0.3959717780713744,0.4,1.0,1.0,453.0,626.0,0.0,0,3921.0,0
248,248,0.8940350599176065,0.9,1.0,1.0,350.0,768.0,0.0,0,3882.0,0
249,249,-0.4097344817403312,-0.4,1.0,0.0,385.0,831.0,0.0,0,3784.0,1
250,250,-0.787619488655803,-0.8,0.0,1.0,406.0,855.0,1.0,0,-821.0,1
251,251,-0.3084141121761672,-0.3,1.0,0.0,462.0,826.0,0.0,0,3712.0,1
252,252,-0.03463912280671688,-0.0,0.0,1.0,333.0,777.0,0.0,1,3890.0,0
253,253,0.39653164901788374,0.4,0.0,0.0,458.0,616.0,0.0,1,3926.0,1
254,254,-0.27976974581358993,-0.3,1.0,0.0,357.0,587.0,0.0,0,4056.0,1
255,255,0.8785905486051554,0.9,0.0,0.0,250.0,634.0,0.0,1,4116.0,1
256,256,-0.5825634940302988,-0.6,1.0,0.0,290.0,968.0,0.0,0,3742.0,1
257,257,0.7292127571506849,0.7,0.0,0.0,371.0,757.0,0.0,1,3872.0,1
258,258,-0.7196391009182628,-0.7,0.0,1.0,351.0,714.0,0.0,1,3935.0,0
259,259,-0.7883694961124494,-0.8,1.0,0.0,303.0,629.0,0.0,0,4068.0,1
260,260,-0.6800408426660813,-0.7,0.0,1.0,272.0,953.0,1.0,0,-1215.0,1
261,261,-0.8916597261419089,-0.9,1.0,0.0,352.0,979.0,0.0,0,3669.0,1
262,262,0.18788587630105347,0.2,0.0,0.0,450.0,685.0,0.0,1,3865.0,1
263,263,0.635963115695613,0.6,1.0,1.0,405.0,764.0,0.0,0,3831.0,0
264,264,-0.755740478510409,-0.8,0.0,1.0,334.0,997.0,1.0,0,-1161.0,1
265,265,-0.6177121690480376,-0.6,0.0,1.0,384.0,797.0,0.0,1,-1041.0,0
266,266,-0.22129475178623315,-0.2,0.0,1.0,465.0,558.0,0.0,1,3977.0,0
267,267,-0.33586265049477326,-0.3,1.0,0.0,493.0,747.0,0.0,0,-1220.0,1
268,268,0.2223691468990293,0.2,1.0,1.0,458.0,831.0,0.0,0,3711.0,0
269,269,-0.340176013308103,-0.3,0.0,1.0,258.0,520.0,0.0,1,4222.0,0
270,270,-0.2377242274489617,-0.2,0.0,1.0,289.0,825.0,0.0,1,-1014.0,0
271,271,0.07284207252885866,0.1,0.0,0.0,358.0,795.0,0.0,1,3847.0,1
272,272,-0.24035830285120918,-0.2,0.0,1.0,331.0,666.0,0.0,1,4003.0,0
273,273,0.35283010268498594,0.4,1.0,1.0,402.0,620.0,1.0,1,-992.0,1
274,274,-0.6241388510968547,-0.6,1.0,0.0,393.0,589.0,0.0,0,4018.0,1
275,275,0.06200926225962733,0.1,1.0,1.0,302.0,611.0,0.0,0,4087.0,0
276,276,0.8037118116718801,0.8,1.0,1.0,306.0,534.0,1.0,1,-840.0,1
277,277,-0.514171955666635,-0.5,0.0,1.0,493.0,894.0,0.0,1,-947.0,0
278,278,0.5480163780106754,0.5,0.0,0.0,278.0,831.0,0.0,1,3891.0,1
279,279,0.2652826648693817,0.3,1.0,1.0,423.0,981.0,0.0,0,3596.0,0
280,280,-0.5424882072352661,-0.5,1.0,0.0,254.0,864.0,0.0,0,3882.0,1
281,281,-0.26880360798077674,-0.3,0.0,1.0,338.0,842.0,0.0,1,3820.0,0
282,282,0.4662525514251631,0.5,0.0,0.0,480.0,564.0,0.0,1,3956.0,1
283,283,0.6160082721909296,0.6,0.0,0.0,302.0,999.0,0.0,1,3699.0,1
284,284,0.09023319684348108,0.1,1.0,1.0,481.0,842.0,0.0,0,3677.0,0
285,285,0.1054538112626221,0.1,1.0,1.0,292.0,911.0,0.0,0,3797.0,0
286,286,0.7486623410801273,0.7,0.0,0.0,427.0,688.0,0.0,1,-775.0,1
287,287,0.463336838673828,0.5,0.0,0.0,282.0,770.0,0.0,1,3948.0,1
288,288,0.3063677729223594,0.3,1.0,1.0,389.0,933.0,0.0,0,3678.0,0
289,289,0.3688861927536565,0.4,0.0,0.0,431.0,849.0,0.0,1,3720.0,1
290,290,-0.4440949383189926,-0.4,0.0,1.0,368.0,948.0,1.0,0,-1286.0,1
291,291,-0.09558453591608596,-0.1,0.0,1.0,391.0,520.0,0.0,1,4089.0,0
292,292,-0.3186375806648537,-0.3,1.0,0.0,483.0,899.0,0.0,0,3618.0,1
293,293,0.43393262571258095,0.4,1.0,1.0,465.0,535.0,0.0,0,4000.0,0
294,294,0.4562908777363298,0.5,0.0,0.0,260.0,594.0,0.0,1,4146.0,1
295,295,-0.842703245187308,-0.8,1.0,0.0,316.0,890.0,0.0,0,3794.0,1
296,296,-0.055977399096236446,-0.1,0.0,1.0,499.0,582.0,0.0,1,3919.0,0
297,297,-0.5954787611372827,-0.6,1.0,0.0,314.0,587.0,0.0,0,4099.0,1
298,298,-0.1552204877325708,-0.2,0.0,1.0,465.0,849.0,1.0,0,-1214.0,1
299,299,-0.35053363582207964,-0.4,0.0,1.0,250.0,604.0,0.0,1,4146.0,0
300,300,0.5635431223764936,0.6,1.0,1.0,279.0,760.0,0.0,0,-1029.0,0
301,301,-0.24139943934530061,-0.2,1.0,0.0,446.0,993.0,0.0,0,3561.0,1
302,302,0.8013269796617065,0.8,0.0,0.0,436.0,507.0,0.0,1,4057.0,1
303,303,-0.7571489331032288,-0.8,1.0,0.0,495.0,893.0,0.0,0,3612.0,1
304,304,-0.28313739520217873,-0.3,0.0,1.0,347.0,601.0,0.0,1,4052.0,0
305,305,-0.7008119956489209,-0.7,1.0,0.0,477.0,784.0,0.0,0,3739.0,1
306,306,-0.43266913221313463,-0.4,1.0,0.0,425.0,846.0,0.0,0,3729.0,1
307,307,-0.25865087993436675,-0.3,1.0,0.0,477.0,714.0,0.0,0,3809.0,1
308,308,0.10581978761219146,0.1,0.0,0.0,427.0,628.0,0.0,1,3945.0,1
309,309,0.45661518062055617,0.5,0.0,0.0,454.0,696.0,0.0,1,3850.0,1
310,310,-0.7925283635039255,-0.8,1.0,0.0,351.0,554.0,0.0,0,4095.0,1
311,311,-0.8481212005145469,-0.8,1.0,0.0,271.0,737.0,0.0,0,3992.0,1
312,312,0.35093229027329065,0.4,1.0,1.0,289.0,542.0,1.0,1,-311.0,1
313,313,0.31581498856227974,0.3,0.0,0.0,300.0,990.0,1.0,0,-1040.0,0
314,314,-0.8058785807560903,-0.8,1.0,0.0,378.0,701.0,1.0,1,-679.0,0
315,315,0.24248542698604558,0.2,0.0,0.0,324.0,614.0,0.0,1,4062.0,1
316,316,-0.1664932592215954,-0.2,1.0,0.0,483.0,952.0,0.0,0,3565.0,1
317,317,0.08918334575377018,0.1,0.0,0.0,469.0,674.0,0.0,1,3857.0,1
318,318,-0.8363520616428893,-0.8,1.0,0.0,284.0,924.0,0.0,0,3792.0,1
319,319,-0.639136433871162,-0.6,1.0,0.0,293.0,629.0,0.0,0,4078.0,1
320,320,-0.6652350124809191,-0.7,0.0,1.0,301.0,803.0,0.0,1,3896.0,0
321,321,-0.32876487921525976,-0.3,0.0,1.0,276.0,914.0,1.0,0,-1110.0,1
322,322,0.33904440689093185,0.3,1.0,1.0,363.0,869.0,0.0,0,3768.0,0
323,323,-0.08829350855044804,-0.1,0.0,1.0,477.0,760.0,0.0,1,3763.0,0
324,324,-0.31539795597463494,-0.3,1.0,0.0,376.0,673.0,0.0,0,3951.0,1
325,325,0.12090132232530759,0.1,0.0,0.0,363.0,896.0,0.0,1,3741.0,1
326,326,0.2025197294040043,0.2,0.0,0.0,456.0,999.0,0.0,1,3545.0,1
327,327,-0.4329486232180268,-0.4,1.0,0.0,428.0,860.0,0.0,0,3712.0,1
328,328,-0.2730871530015003,-0.3,1.0,0.0,450.0,515.0,0.0,0,4035.0,1
329,329,-0.5084657185702802,-0.5,0.0,1.0,319.0,917.0,0.0,1,3764.0,0
330,330,0.03649293732268033,0.0,0.0,0.0,261.0,686.0,0.0,1,4053.0,1
331,331,-0.1730567584348529,-0.2,1.0,0.0,456.0,870.0,0.0,0,3674.0,1
332,332,0.3904211677885413,0.4,0.0,0.0,421.0,942.0,0.0,1,-1323.0,1
333,333,0.23719387621271604,0.2,1.0,1.0,468.0,600.0,0.0,0,3932.0,0
334,334,-0.3346116536098227,-0.3,1.0,0.0,281.0,638.0,0.0,0,-759.0,1
335,335,0.4477493215320293,0.4,1.0,1.0,344.0,506.0,0.0,0,4150.0,0
336,336,-0.02442540288520889,-0.0,1.0,0.0,282.0,587.0,0.0,0,4131.0,1
337,337,0.1748195907569342,0.2,1.0,1.0,318.0,779.0,0.0,0,3903.0,0
338,338,0.8103239855173608,0.8,0.0,0.0,414.0,631.0,0.0,1,-995.0,1
339,339,-0.20229720152587916,-0.2,0.0,1.0,420.0,895.0,0.0,1,3685.0,0
340,340,0.2336455182474172,0.2,1.0,1.0,290.0,623.0,0.0,0,4087.0,0
341,341,-0.5859919540830154,-0.6,0.0,1.0,290.0,730.0,0.0,1,3980.0,0
342,342,0.5260791383853557,0.5,0.0,0.0,456.0,949.0,0.0,1,3595.0,1
343,343,0.3202701506905098,0.3,1.0,1.0,484.0,873.0,0.0,0,3643.0,0
344,344,-0.6515070656383342,-0.7,1.0,0.0,349.0,677.0,0.0,0,3974.0,1
345,345,-0.2619832017204399,-0.3,0.0,1.0,411.0,690.0,0.0,1,-891.0,0
346,346,-0.023234740808382615,-0.0,1.0,0.0,260.0,784.0,0.0,0,3956.0,1
347,347,-0.5805317625690285,-0.6,0.0,1.0,398.0,824.0,0.0,1,3778.0,0
348,348,-0.6047533087641581,-0.6,0.0,1.0,493.0,614.0,0.0,1,3893.0,0
349,349,-0.8105343946454832,-0.8,0.0,1.0,419.0,598.0,1.0,0,-467.0,1
350,350,0.5296414222865348,0.5,0.0,0.0,411.0,772.0,0.0,1,-553.0,1
351,351,0.4690427606897746,0.5,0.0,0.0,360.0,616.0,1.0,0,-946.0,0
352,352,-0.3342920754518036,-0.3,0.0,1.0,355.0,986.0,0.0,1,3659.0,0
353,353,-0.26449283619442043,-0.3,1.0,0.0,373.0,789.0,0.0,0,-1122.0,1
354,354,0.8639307693069943,0.9,0.0,0.0,430.0,925.0,0.0,1,3645.0,1
355,355,-0.12240872455232954,-0.1,1.0,0.0,270.0,899.0,0.0,0,3831.0,1
356,356,-0.6238207854036054,-0.6,1.0,0.0,326.0,578.0,0.0,0,-184.0,1
357,357,0.6318060325116829,0.6,0.0,0.0,499.0,827.0,0.0,1,3674.0,1
358,358,-0.7563008081914879,-0.8,1.0,0.0,355.0,560.0,0.0,0,4085.0,1
359,359,0.48148700731652594,0.5,0.0,0.0,325.0,562.0,0.0,1,4113.0,1
360,360,-0.07165173245027501,-0.1,1.0,0.0,432.0,973.0,0.0,0,3595.0,1
361,361,0.21927225733572897,0.2,0.0,0.0,349.0,761.0,0.0,1,3890.0,1
362,362,0.19034599600366608,0.2,0.0,0.0,387.0,969.0,0.0,1,3644.0,1
363,363,0.6785711111813933,0.7,0.0,0.0,346.0,951.0,0.0,1,3703.0,1
364,364,0.23750178119581766,0.2,1.0,1.0,391.0,823.0,0.0,0,-174.0,0
365,365,0.052244692767385414,0.1,0.0,0.0,464.0,890.0,0.0,1,3646.0,1
366,366,-0.49216451854685234,-0.5,0.0,1.0,499.0,913.0,1.0,0,-1372.0,1
367,367,0.26831178942851885,0.3,0.0,0.0,293.0,685.0,0.0,1,4022.0,1
368,368,0.4981314660715487,0.5,1.0,1.0,350.0,595.0,1.0,1,-785.0,1
369,369,0.24832476271750903,0.2,1.0,1.0,384.0,890.0,1.0,1,-844.0,1
370,370,-0.547335725638297,-0.5,1.0,0.0,426.0,952.0,0.0,0,3622.0,1
371,371,-0.6732555456462334,-0.7,1.0,0.0,266.0,788.0,0.0,0,3946.0,1
372,372,-0.1395769431915478,-0.1,1.0,0.0,366.0,819.0,1.0,1,-1135.0,0
373,373,0.0561427314247569,0.1,0.0,0.0,354.0,804.0,0.0,1,3842.0,1
374,374,-0.7116625495916473,-0.7,1.0,0.0,386.0,815.0,0.0,0,-1081.0,1
375,375,-0.16570797777532753,-0.2,0.0,1.0,308.0,896.0,0.0,1,3796.0,0
376,376,0.2861817283679574,0.3,1.0,1.0,305.0,557.0,0.0,0,4138.0,0
377,377,-0.09614429961659954,-0.1,0.0,1.0,409.0,663.0,0.0,1,3928.0,0
378,378,0.47112754631030607,0.5,1.0,1.0,377.0,995.0,0.0,0,3628.0,0
379,379,0.029834802730634213,0.0,0.0,0.0,354.0,750.0,0.0,1,3896.0,1
380,380,-0.8949454010707415,-0.9,0.0,1.0,263.0,583.0,0.0,1,-666.0,0
381,381,-0.5199112285648784,-0.5,0.0,1.0,479.0,506.0,0.0,1,4015.0,0
382,382,-0.31227762734120523,-0.3,1.0,0.0,269.0,935.0,0.0,0,3796.0,1
383,383,0.4142589100212092,0.4,1.0,1.0,407.0,737.0,0.0,0,3856.0,0
384,384,0.298737903674407,0.3,0.0,0.0,356.0,795.0,0.0,1,3849.0,1
385,385,0.050271867468217435,0.1,0.0,0.0,411.0,996.0,1.0,0,-797.0,0
386,386,-0.8862233563283387,-0.9,0.0,1.0,462.0,688.0,0.0,1,3850.0,0
387,387,-0.846328867929458,-0.8,1.0,0.0,465.0,804.0,0.0,0,-849.0,1
388,388,-0.864121648821314,-0.9,0.0,1.0,275.0,782.0,0.0,1,-997.0,0
389,389,-0.14941879530213176,-0.1,0.0,1.0,318.0,621.0,0.0,1,4061.0,0
390,390,0.8109772239496232,0.8,1.0,1.0,262.0,858.0,0.0,0,3880.0,0
391,391,-0.057049349736742805,-0.1,0.0,1.0,348.0,818.0,0.0,1,3834.0,0
392,392,0.5522609923444836,0.6,0.0,0.0,255.0,801.0,0.0,1,3944.0,1
393,393,-0.10792738242531885,-0.1,0.0,1.0,263.0,523.0,0.0,1,4214.0,0
394,394,0.38095676533301537,0.4,1.0,1.0,386.0,522.0,0.0,0,4092.0,0
395,395,0.4548913639302462,0.5,0.0,0.0,338.0,618.0,1.0,0,-936.0,0
396,396,-0.5367735203916397,-0.5,0.0,1.0,284.0,638.0,0.0,1,4078.0,0
397,397,0.6176929248195285,0.6,1.0,1.0,324.0,557.0,0.0,0,-201.0,0
398,398,0.3419901721773123,0.3,1.0,1.0,374.0,949.0,0.0,0,3677.0,0
399,399,-0.4002177130440802,-0.4,1.0,0.0,389.0,524.0,0.0,0,4087.0,1
400,400,0.6611306528862998,0.7,0.0,0.0,451.0,738.0,0.0,1,3811.0,1
401,401,-0.21840138157534306,-0.2,1.0,0.0,272.0,513.0,0.0,0,4215.0,1
402,402,0.05144661496613934,0.1,1.0,1.0,418.0,503.0,0.0,0,4079.0,0
403,403,0.07487696206829775,0.1,0.0,0.0,426.0,764.0,0.0,1,3810.0,1
404,404,0.6594613782524134,0.7,1.0,1.0,344.0,641.0,0.0,0,4015.0,0
405,405,0.3637647042769724,0.4,1.0,1.0,396.0,657.0,1.0,1,-823.0,1
406,406,0.24300756550028801,0.2,1.0,1.0,324.0,734.0,1.0,1,-1018.0,1
407,407,-0.3838045668404706,-0.4,1.0,0.0,377.0,960.0,0.0,0,3663.0,1
408,408,0.5407057884334262,0.5,0.0,0.0,376.0,772.0,0.0,1,3852.0,1
409,409,0.6223588741518539,0.6,0.0,0.0,479.0,648.0,0.0,1,3873.0,1
410,410,-0.4259609479705852,-0.4,0.0,1.0,372.0,901.0,0.0,1,3727.0,0
411,411,0.23794124526615656,0.2,0.0,0.0,450.0,776.0,0.0,1,3774.0,1
412,412,-0.5891095309223413,-0.6,1.0,0.0,285.0,658.0,0.0,0,4057.0,1
413,413,0.39770983484526046,0.4,1.0,1.0,302.0,805.0,0.0,0,-957.0,0
414,414,0.01230772153409676,0.0,0.0,0.0,391.0,662.0,0.0,1,3947.0,1
415,415,0.13535141260301364,0.1,0.0,0.0,338.0,897.0,0.0,1,3765.0,1
416,416,-0.7187368824896749,-0.7,0.0,1.0,448.0,920.0,0.0,1,-1068.0,0
417,417,-0.4907311812503632,-0.5,1.0,0.0,396.0,891.0,0.0,0,3713.0,1
418,418,-0.14558990387165427,-0.1,0.0,1.0,257.0,755.0,0.0,1,-852.0,0
419,419,0.03844006207650019,0.0,0.0,0.0,250.0,625.0,0.0,1,4125.0,1
420,420,-0.7415824630655611,-0.7,0.0,1.0,495.0,504.0,0.0,1,-969.0,0
421,421,0.8843991235286411,0.9,0.0,0.0,267.0,588.0,0.0,1,4145.0,1
422,422,0.8879248858229732,0.9,1.0,1.0,421.0,875.0,0.0,0,3704.0,0
423,423,0.7747537951847306,0.8,1.0,1.0,461.0,740.0,1.0,1,-801.0,1
424,424,-0.4492849998900367,-0.4,0.0,1.0,290.0,856.0,0.0,1,3854.0,0
425,425,0.4085143123020475,0.4,0.0,0.0,488.0,939.0,0.0,1,3573.0,1
426,426,-0.24447689223684033,-0.2,0.0,1.0,423.0,686.0,0.0,1,-989.0,0
427,427,0.2240566771428244,0.2,1.0,1.0,270.0,790.0,0.0,0,3940.0,0
428,428,0.06674659895775426,0.1,1.0,1.0,278.0,645.0,0.0,0,-843.0,0
429,429,0.09270934342690051,0.1,0.0,0.0,393.0,797.0,0.0,1,3810.0,1
430,430,0.8055047260411367,0.8,1.0,1.0,361.0,569.0,0.0,0,4070.0,0
431,431,0.45914907349508927,0.5,0.0,0.0,303.0,750.0,0.0,1,3947.0,1
432,432,-0.440882735923491,-0.4,1.0,0.0,295.0,611.0,0.0,0,4094.0,1
433,433,-0.8912612052026004,-0.9,1.0,0.0,483.0,714.0,1.0,1,-1107.0,0
434,434,0.67629212399087,0.7,0.0,0.0,411.0,554.0,0.0,1,4035.0,1
435,435,-0.31579697865769574,-0.3,1.0,0.0,326.0,665.0,0.0,0,-651.0,1
436,436,0.24399662029419467,0.2,0.0,0.0,477.0,936.0,0.0,1,3587.0,1
437,437,-0.43079904580330325,-0.4,0.0,1.0,485.0,508.0,0.0,1,4007.0,0
438,438,0.43217702144335945,0.4,0.0,0.0,265.0,867.0,0.0,1,3868.0,1
439,439,-0.03844076887807146,-0.0,1.0,0.0,444.0,599.0,0.0,0,3957.0,1
440,440,-0.049713417813790906,-0.0,1.0,0.0,461.0,882.0,0.0,0,3657.0,1
441,441,-0.03586284845657073,-0.0,0.0,1.0,307.0,614.0,0.0,1,-911.0,0
442,442,0.39403936987378907,0.4,1.0,1.0,322.0,725.0,0.0,0,3953.0,0
443,443,0.744810555582554,0.7,0.0,0.0,311.0,979.0,0.0,1,-1280.0,1
444,444,-0.21017661537721244,-0.2,0.0,1.0,495.0,513.0,0.0,1,3992.0,0
445,445,0.13973510115559085,0.1,1.0,1.0,486.0,557.0,0.0,0,3957.0,0
446,446,0.24564814389565537,0.2,1.0,1.0,476.0,988.0,1.0,1,-824.0,1
447,447,0.23108219807549213,0.2,0.0,0.0,389.0,852.0,1.0,0,-871.0,0
448,448,-0.10256264720183439,-0.1,0.0,1.0,333.0,691.0,0.0,1,3976.0,0
449,449,0.6871281124596108,0.7,0.0,0.0,417.0,758.0,0.0,1,-1125.0,1
450,450,0.44349459688123394,0.4,1.0,1.0,346.0,644.0,0.0,0,4010.0,0
451,451,0.36359247719254906,0.4,1.0,1.0,287.0,526.0,0.0,0,4187.0,0
452,452,0.003501420062159255,0.0,0.0,0.0,469.0,589.0,0.0,1,-898.0,1
453,453,0.30662943031188317,0.3,1.0,1.0,292.0,510.0,0.0,0,4198.0,0
454,454,0.2640773695004902,0.3,0.0,0.0,419.0,941.0,0.0,1,3640.0,1
455,455,-0.039787792639588426,-0.0,1.0,0.0,405.0,870.0,0.0,0,3725.0,1
456,456,-0.5430988012300422,-0.5,1.0,0.0,488.0,739.0,0.0,0,3773.0,1
457,457,0.35828285700824136,0.4,0.0,0.0,404.0,947.0,0.0,1,3649.0,1
458,458,-0.3796772957297184,-0.4,0.0,1.0,276.0,872.0,1.0,0,-1068.0,1
459,459,-0.800345098692483,-0.8,1.0,0.0,394.0,592.0,0.0,0,4014.0,1
460,460,-0.1799584644128739,-0.2,1.0,0.0,430.0,802.0,0.0,0,3768.0,1
461,461,0.0023853139729594908,0.0,0.0,0.0,419.0,893.0,0.0,1,3688.0,1
462,462,-0.05606815468840354,-0.1,1.0,0.0,338.0,967.0,0.0,0,3695.0,1
463,463,-0.5998771617561369,-0.6,0.0,1.0,441.0,881.0,0.0,1,3678.0,0
464,464,-0.1179868621301361,-0.1,1.0,0.0,430.0,774.0,0.0,0,3796.0,1
465,465,-0.2830774737866635,-0.3,1.0,0.0,280.0,993.0,0.0,0,3727.0,1
466,466,0.5791749844362225,0.6,1.0,1.0,371.0,936.0,0.0,0,3693.0,0
467,467,-0.46864434211429895,-0.5,1.0,0.0,283.0,542.0,0.0,0,4175.0,1
468,468,0.1865033520838274,0.2,1.0,1.0,457.0,525.0,0.0,0,-662.0,0
469,469,0.803802265931919,0.8,0.0,0.0,378.0,955.0,0.0,1,3667.0,1
470,470,0.8174938743201948,0.8,1.0,1.0,466.0,850.0,0.0,0,3684.0,0
471,471,-0.6299869433748333,-0.6,1.0,0.0,263.0,690.0,0.0,0,4047.0,1
472,472,-0.15608222924352033,-0.2,1.0,0.0,340.0,952.0,0.0,0,-1202.0,1
473,473,-0.7606451782268754,-0.8,1.0,0.0,395.0,697.0,0.0,0,3908.0,1
474,474,0.03404193821690116,0.0,1.0,1.0,457.0,610.0,0.0,0,3933.0,0
475,475,-0.6677412891551582,-0.7,0.0,1.0,340.0,921.0,1.0,0,-1021.0,1
476,476,-0.5574894068623402,-0.6,0.0,1.0,375.0,929.0,1.0,0,-1244.0,1
477,477,-0.06019822757423832,-0.1,1.0,0.0,383.0,820.0,1.0,1,-1173.0,0
478,478,-0.5441730338988592,-0.5,1.0,0.0,439.0,643.0,1.0,1,-1012.0,0
479,479,-0.5473919887919869,-0.5,0.0,1.0,484.0,552.0,0.0,1,3964.0,0
480,480,0.24061288580671236,0.2,0.0,0.0,289.0,679.0,0.0,1,4032.0,1
481,481,-0.543123402748009,-0.5,1.0,0.0,268.0,803.0,1.0,1,-1041.0,0
482,482,0.6487727358768923,0.6,0.0,0.0,279.0,929.0,0.0,1,-1078.0,1
483,483,-0.12397741240307092,-0.1,0.0,1.0,406.0,950.0,0.0,1,3644.0,0
484,484,-0.683514213628154,-0.7,1.0,0.0,335.0,823.0,0.0,0,3842.0,1
485,485,-0.38307842671497194,-0.4,1.0,0.0,421.0,965.0,0.0,0,3614.0,1
486,486,0.23699856412831244,0.2,1.0,1.0,447.0,807.0,1.0,1,-884.0,1
487,487,-0.16925816302145302,-0.2,1.0,0.0,467.0,828.0,0.0,0,3705.0,1
488,488,0.7043762709937661,0.7,1.0,1.0,414.0,816.0,0.0,0,3770.0,0
489,489,0.43339040220363356,0.4,1.0,1.0,436.0,985.0,0.0,0,3579.0,0
490,490,0.5651182114776988,0.6,1.0,1.0,391.0,567.0,0.0,0,4042.0,0
491,491,-0.640885625618641,-0.6,1.0,0.0,402.0,527.0,1.0,1,-479.0,0
492,492,-0.2244983287475505,-0.2,1.0,0.0,259.0,745.0,0.0,0,3996.0,1
493,493,0.8609745960680367,0.9,0.0,0.0,311.0,766.0,0.0,1,3923.0,1
494,494,-0.3647600257918546,-0.4,1.0,0.0,482.0,777.0,0.0,0,3741.0,1
495,495,0.25957725261847264,0.3,0.0,0.0,468.0,793.0,0.0,1,3739.0,1
496,496,0.7849402320104045,0.8,0.0,0.0,481.0,520.0,0.0,1,3999.0,1
497,497,0.46874671281423363,0.5,0.0,0.0,350.0,765.0,0.0,1,3885.0,1
498,498,-0.2840030650086244,-0.3,1.0,0.0,314.0,883.0,0.0,0,3803.0,1
499,499,-0.2497113484996999,-0.2,1.0,0.0,322.0,537.0,1.0,1,-769.0,0
500,500,-0.42302227211665916,-0.4,1.0,0.0,337.0,876.0,0.0,0,3787.0,1
501,501,-0.8656326220186359,-0.9,0.0,1.0,322.0,630.0,0.0,1,4048.0,0
502,502,-0.3059796619359052,-0.3,0.0,1.0,370.0,562.0,0.0,1,4068.0,0
503,503,0.5639089495559578,0.6,0.0,0.0,482.0,594.0,0.0,1,-1016.0,1
504,504,0.23828319458114733,0.2,1.0,1.0,317.0,986.0,0.0,0,3697.0,0
505,505,0.12927555865125007,0.1,0.0,0.0,271.0,670.0,0.0,1,4059.0,1
506,506,0.883118045161725,0.9,0.0,0.0,293.0,688.0,0.0,1,-581.0,1
507,507,0.4834544441154075,0.5,0.0,0.0,251.0,531.0,0.0,1,4218.0,1
508,508,0.27615319349913003,0.3,0.0,0.0,346.0,805.0,0.0,1,3849.0,1
509,509,-0.8778602995738716,-0.9,0.0,1.0,276.0,595.0,1.0,0,-611.0,1
510,510,-0.8576434964871401,-0.9,0.0,1.0,281.0,989.0,0.0,1,3730.0,0
511,511,0.6821253581425119,0.7,0.0,0.0,434.0,684.0,0.0,1,3882.0,1
512,512,0.09639396350158747,0.1,1.0,1.0,282.0,813.0,0.0,0,3905.0,0
513,513,0.08700159046229472,0.1,0.0,0.0,376.0,527.0,0.0,1,4097.0,1
514,514,0.3588750813675762,0.4,1.0,1.0,415.0,582.0,0.0,0,4003.0,0
515,515,-0.3598685197876248,-0.4,1.0,0.0,359.0,631.0,0.0,0,4010.0,1
516,516,0.4882284154303237,0.5,1.0,1.0,312.0,670.0,1.0,1,-862.0,1
517,517,-0.8202076295268181,-0.8,0.0,1.0,444.0,581.0,0.0,1,3975.0,0
518,518,0.1320868565864023,0.1,1.0,1.0,300.0,821.0,0.0,0,3879.0,0
519,519,-0.34809796325772624,-0.3,0.0,1.0,313.0,650.0,0.0,1,-423.0,0
520,520,-0.7446966101375406,-0.7,0.0,1.0,370.0,828.0,0.0,1,-878.0,0
521,521,0.7996116658167062,0.8,0.0,0.0,480.0,657.0,1.0,0,-1037.0,0
522,522,0.007535087158315523,0.0,0.0,0.0,470.0,949.0,1.0,0,-1299.0,0
523,523,0.18358402837855914,0.2,0.0,0.0,310.0,811.0,0.0,1,-361.0,1
524,524,-0.7140218396369358,-0.7,0.0,1.0,486.0,559.0,0.0,1,3955.0,0
525,525,0.03758280139314063,0.0,0.0,0.0,316.0,734.0,0.0,1,3950.0,1
526,526,-0.3620900584902811,-0.4,0.0,1.0,350.0,966.0,0.0,1,3684.0,0
527,527,0.11280695397951834,0.1,1.0,1.0,259.0,755.0,0.0,0,3986.0,0
528,528,-0.3258288706749928,-0.3,0.0,1.0,458.0,875.0,0.0,1,-1303.0,0
529,529,-0.33093546914657634,-0.3,1.0,0.0,413.0,847.0,0.0,0,-1090.0,1
530,530,-0.14027786211323667,-0.1,0.0,1.0,275.0,577.0,0.0,1,4148.0,0
531,531,-0.8938986479243364,-0.9,0.0,1.0,462.0,619.0,0.0,1,3919.0,0
532,532,-0.8977547041674688,-0.9,1.0,0.0,481.0,920.0,0.0,0,3599.0,1
533,533,-0.23060305067478615,-0.2,1.0,0.0,342.0,868.0,0.0,0,3790.0,1
534,534,0.7079310045967654,0.7,0.0,0.0,278.0,670.0,0.0,1,4052.0,1
535,535,-0.1778440777636573,-0.2,0.0,1.0,272.0,889.0,0.0,1,3839.0,0
536,536,-0.7489714125174186,-0.7,0.0,1.0,299.0,519.0,0.0,1,4182.0,0
537,537,0.3006196578030421,0.3,1.0,1.0,375.0,990.0,0.0,0,3635.0,0
538,538,-0.3793862064032695,-0.4,1.0,0.0,465.0,766.0,0.0,0,3769.0,1
539,539,0.04834847124212127,0.0,1.0,1.0,380.0,963.0,0.0,0,3657.0,0
540,540,-0.8167912999104759,-0.8,0.0,1.0,342.0,705.0,0.0,1,3953.0,0
541,541,-0.35558991896196634,-0.4,0.0,1.0,347.0,665.0,0.0,1,-972.0,0
542,542,0.3820179391644555,0.4,1.0,1.0,320.0,552.0,0.0,0,4128.0,0
543,543,0.5515623053082547,0.6,1.0,1.0,352.0,637.0,0.0,0,4011.0,0
544,544,0.6888088807791363,0.7,0.0,0.0,391.0,730.0,0.0,1,3879.0,1
545,545,0.24937464500306594,0.2,1.0,1.0,472.0,710.0,1.0,1,-752.0,1
546,546,-0.4555434905254732,-0.5,0.0,1.0,254.0,963.0,0.0,1,3783.0,0
547,547,0.5190797398235926,0.5,0.0,0.0,288.0,813.0,0.0,1,3899.0,1
548,548,-0.42766822049009157,-0.4,1.0,0.0,287.0,865.0,0.0,0,3848.0,1
549,549,0.01956433596184437,0.0,1.0,1.0,387.0,586.0,1.0,1,-903.0,1
550,550,0.23419830810302578,0.2,0.0,0.0,293.0,954.0,0.0,1,3753.0,1
551,551,0.5335315519245386,0.5,0.0,0.0,287.0,884.0,0.0,1,-901.0,1
552,552,0.020097310588799044,0.0,1.0,1.0,450.0,847.0,0.0,0,3703.0,0
553,553,0.6455312906099627,0.6,1.0,1.0,353.0,513.0,1.0,1,-836.0,1
554,554,0.5476944349791929,0.5,0.0,0.0,297.0,873.0,0.0,1,3830.0,1
555,555,0.7875677127060307,0.8,1.0,1.0,436.0,525.0,0.0,0,4039.0,0
556,556,-0.2814409683744491,-0.3,1.0,0.0,274.0,758.0,0.0,0,3968.0,1
557,557,-0.5635995170995508,-0.6,1.0,0.0,453.0,921.0,0.0,0,3626.0,1
558,558,-0.6420485078511433,-0.6,1.0,0.0,319.0,755.0,0.0,0,3926.0,1
559,559,0.287031926331924,0.3,0.0,0.0,329.0,980.0,0.0,1,3691.0,1
560,560,-0.4208884149795109,-0.4,0.0,1.0,454.0,584.0,1.0,0,-748.0,1
561,561,0.28659655437775966,0.3,0.0,0.0,384.0,599.0,1.0,0,-563.0,0
562,562,-0.2862681032638348,-0.3,0.0,1.0,253.0,595.0,0.0,1,4152.0,0
563,563,-0.17049663713409513,-0.2,1.0,0.0,278.0,608.0,0.0,0,4114.0,1
564,564,-0.12615915351070606,-0.1,0.0,1.0,419.0,929.0,1.0,0,-1328.0,1
565,565,0.5041020943894695,0.5,1.0,1.0,422.0,819.0,0.0,0,3759.0,0
566,566,-0.8056113133076833,-0.8,0.0,1.0,326.0,856.0,0.0,1,3818.0,0
567,567,0.3012682335062705,0.3,1.0,1.0,280.0,813.0,0.0,0,3907.0,0
568,568,-0.06923553482216249,-0.1,0.0,1.0,497.0,723.0,0.0,1,3780.0,0
569,569,0.568898015532279,0.6,1.0,1.0,351.0,886.0,0.0,0,3763.0,0
570,570,0.37095150711766933,0.4,1.0,1.0,450.0,771.0,0.0,0,3779.0,0
571,571,0.44861146123893036,0.4,1.0,1.0,259.0,919.0,1.0,1,-1078.0,1
572,572,0.5429953272597233,0.5,1.0,1.0,499.0,633.0,0.0,0,3868.0,0
573,573,0.5031188628735211,0.5,1.0,1.0,482.0,795.0,0.0,0,-1267.0,0
574,574,0.7211006264271543,0.7,0.0,0.0,414.0,733.0,0.0,1,3853.0,1
575,575,-0.5294582424813625,-0.5,1.0,0.0,355.0,825.0,0.0,0,3820.0,1
576,576,-0.8574316690745533,-0.9,1.0,0.0,398.0,599.0,1.0,1,-767.0,0
577,577,-0.46707538410185306,-0.5,1.0,0.0,399.0,578.0,0.0,0,4023.0,1
578,578,-0.6136068645181949,-0.6,1.0,0.0,312.0,957.0,0.0,0,3731.0,1
579,579,0.5428658672235024,0.5,0.0,0.0,287.0,877.0,1.0,0,-1144.0,0
580,580,0.40253554936071023,0.4,1.0,1.0,372.0,828.0,0.0,0,-1130.0,0
581,581,0.1432384282325999,0.1,0.0,0.0,486.0,539.0,0.0,1,3975.0,1
582,582,0.8092134467479074,0.8,1.0,1.0,385.0,865.0,0.0,0,3750.0,0
583,583,0.06567716520329725,0.1,1.0,1.0,282.0,928.0,0.0,0,3790.0,0
584,584,-0.3490335878932269,-0.3,0.0,1.0,447.0,783.0,0.0,1,3770.0,0
585,585,0.6039293711538883,0.6,0.0,0.0,481.0,855.0,0.0,1,3664.0,1
586,586,0.19142187588945936,0.2,1.0,1.0,405.0,609.0,0.0,0,3986.0,0
587,587,0.11593665807434206,0.1,1.0,1.0,253.0,733.0,0.0,0,4014.0,0
588,588,-0.19219608265168098,-0.2,1.0,0.0,451.0,876.0,0.0,0,3673.0,1
589,589,-0.6978355245689942,-0.7,0.0,1.0,375.0,551.0,0.0,1,4074.0,0
590,590,0.009025776936566032,0.0,0.0,0.0,415.0,826.0,0.0,1,3759.0,1
591,591,-0.19903565343550966,-0.2,0.0,1.0,358.0,782.0,0.0,1,3860.0,0
592,592,-0.09215509275285738,-0.1,1.0,0.0,404.0,612.0,0.0,0,3984.0,1
593,593,0.861278013594211,0.9,0.0,0.0,435.0,757.0,0.0,1,3808.0,1
594,594,-0.3999387680579134,-0.4,1.0,0.0,296.0,676.0,0.0,0,4028.0,1
595,595,-0.29913222063117917,-0.3,1.0,0.0,306.0,701.0,0.0,0,3993.0,1
596,596,-0.3538500338863467,-0.4,1.0,0.0,476.0,954.0,0.0,0,3570.0,1
597,597,-0.8504412670232708,-0.9,1.0,0.0,427.0,566.0,0.0,0,4007.0,1
598,598,-0.6905658814948645,-0.7,1.0,0.0,411.0,584.0,0.0,0,4005.0,1
599,599,-0.7357646620586036,-0.7,0.0,1.0,312.0,527.0,0.0,1,4161.0,0
600,600,-0.6627077840017991,-0.7,1.0,0.0,455.0,956.0,0.0,0,3589.0,1
601,601,-0.28681266806061645,-0.3,1.0,0.0,315.0,789.0,0.0,0,3896.0,1
602,602,0.21041002941592046,0.2,1.0,1.0,327.0,914.0,0.0,0,-771.0,0
603,603,0.6584496726896744,0.7,1.0,1.0,369.0,893.0,0.0,0,3738.0,0
604,604,0.7236485866204657,0.7,1.0,1.0,367.0,891.0,0.0,0,3742.0,0
605,605,-0.7197849395153717,-0.7,0.0,1.0,319.0,823.0,0.0,1,3858.0,0
606,606,-0.8977521071153127,-0.9,1.0,0.0,409.0,899.0,0.0,0,3692.0,1
607,607,0.026670816656705343,0.0,1.0,1.0,347.0,702.0,0.0,0,3951.0,0
608,608,0.0028134901291856362,0.0,1.0,1.0,382.0,537.0,0.0,0,4081.0,0
609,609,0.892545559988022,0.9,1.0,1.0,301.0,751.0,0.0,0,-1052.0,0
610,610,-0.7196949190609082,-0.7,1.0,0.0,282.0,933.0,0.0,0,3785.0,1
611,611,-0.008629944020425606,-0.0,1.0,0.0,336.0,914.0,0.0,0,3750.0,1
612,612,-0.5025089519623174,-0.5,1.0,0.0,406.0,594.0,0.0,0,4000.0,1
613,613,0.448648731274477,0.4,1.0,1.0,423.0,729.0,0.0,0,3848.0,0
614,614,0.11952238428978135,0.1,1.0,1.0,495.0,577.0,0.0,0,3928.0,0
615,615,0.6396884412957219,0.6,1.0,1.0,425.0,844.0,0.0,0,3731.0,0
616,616,0.6636055613624211,0.7,0.0,0.0,449.0,844.0,0.0,1,3707.0,1
617,617,-0.7032624463864343,-0.7,0.0,1.0,380.0,867.0,0.0,1,-1227.0,0
618,618,0.7096820299420693,0.7,1.0,1.0,358.0,917.0,1.0,1,-1245.0,1
619,619,0.7415624812511162,0.7,0.0,0.0,448.0,699.0,0.0,1,3853.0,1
620,620,0.12133433306962382,0.1,0.0,0.0,417.0,965.0,0.0,1,3618.0,1
621,621,-0.4749428653727602,-0.5,0.0,1.0,338.0,624.0,0.0,1,4038.0,0
622,622,-0.5210163203468585,-0.5,0.0,1.0,253.0,587.0,0.0,1,4160.0,0
623,623,0.18459395971124593,0.2,0.0,0.0,400.0,908.0,0.0,1,3692.0,1
624,624,0.6573927593854824,0.7,0.0,0.0,383.0,671.0,0.0,1,3946.0,1
625,625,0.16833222239547607,0.2,1.0,1.0,444.0,548.0,0.0,0,4008.0,0
626,626,-0.34447797447355044,-0.3,0.0,1.0,428.0,846.0,0.0,1,3726.0,0
627,627,-0.2383714048182234,-0.2,1.0,0.0,366.0,846.0,0.0,0,3788.0,1
628,628,0.4989219378997297,0.5,0.0,0.0,278.0,919.0,0.0,1,3803.0,1
629,629,-0.27753820032890475,-0.3,0.0,1.0,298.0,601.0,0.0,1,4101.0,0
630,630,0.5100816784619774,0.5,1.0,1.0,405.0,520.0,0.0,0,-625.0,0
631,631,0.712746289691275,0.7,0.0,0.0,471.0,514.0,0.0,1,4015.0,1
632,632,0.31322972977320596,0.3,0.0,0.0,280.0,950.0,0.0,1,3770.0,1
633,633,-0.12922761367545954,-0.1,0.0,1.0,286.0,838.0,0.0,1,-1024.0,0
634,634,0.7052788621784164,0.7,0.0,0.0,258.0,962.0,0.0,1,3780.0,1
635,635,-0.6974611620129637,-0.7,1.0,0.0,319.0,790.0,0.0,0,3891.0,1
636,636,0.32289703097293054,0.3,0.0,0.0,498.0,540.0,0.0,1,3962.0,1
637,637,-0.8412439181716614,-0.8,0.0,1.0,393.0,779.0,0.0,1,-492.0,0
638,638,-0.15705821295748257,-0.2,0.0,1.0,292.0,516.0,0.0,1,4192.0,0
639,639,-0.22804702066868698,-0.2,1.0,0.0,318.0,948.0,0.0,0,3734.0,1
640,640,-0.275620634270184,-0.3,1.0,0.0,390.0,883.0,0.0,0,3727.0,1
641,641,-0.8656399866439415,-0.9,0.0,1.0,382.0,858.0,1.0,0,-1230.0,1
642,642,-0.7140326788648942,-0.7,0.0,1.0,361.0,881.0,1.0,0,-1212.0,1
643,643,-0.7099096617806155,-0.7,1.0,0.0,492.0,612.0,0.0,0,-984.0,1
644,644,0.4591408855792195,0.5,1.0,1.0,343.0,668.0,0.0,0,3989.0,0
645,645,-0.5501746543082382,-0.6,0.0,1.0,428.0,616.0,0.0,1,3956.0,0
646,646,-0.16205109576157595,-0.2,0.0,1.0,341.0,579.0,0.0,1,-910.0,0
647,647,0.21099858001430716,0.2,0.0,0.0,418.0,541.0,0.0,1,4041.0,1
648,648,0.8505046470890002,0.9,1.0,1.0,353.0,686.0,0.0,0,3961.0,0
649,649,0.4189840061583302,0.4,0.0,0.0,299.0,503.0,0.0,1,4198.0,1
650,650,-0.800807284596765,-0.8,0.0,1.0,400.0,688.0,0.0,1,3912.0,0
651,651,-0.13978477572064318,-0.1,1.0,0.0,427.0,599.0,1.0,1,-996.0,0
652,652,-0.09118473218255307,-0.1,0.0,1.0,402.0,548.0,0.0,1,4050.0,0
653,653,-0.3490641691179772,-0.3,1.0,0.0,384.0,703.0,0.0,0,3913.0,1
654,654,0.21250479563758995,0.2,1.0,1.0,373.0,748.0,0.0,0,3879.0,0
655,655,-0.26899254852353405,-0.3,1.0,0.0,441.0,553.0,0.0,0,4006.0,1
656,656,-0.24716959888641765,-0.2,1.0,0.0,366.0,501.0,0.0,0,4133.0,1
657,657,-0.6178661648301995,-0.6,1.0,0.0,351.0,989.0,0.0,0,3660.0,1
658,658,0.37728831053124867,0.4,0.0,0.0,359.0,572.0,0.0,1,4069.0,1
659,659,0.1360521989865381,0.1,1.0,1.0,306.0,639.0,0.0,0,4055.0,0
660,660,-0.594058047767883,-0.6,0.0,1.0,294.0,854.0,0.0,1,-1128.0,0
661,661,0.6944337478378843,0.7,0.0,0.0,379.0,991.0,0.0,1,3630.0,1
662,662,0.023040634606983468,0.0,0.0,0.0,266.0,938.0,0.0,1,3796.0,1
663,663,0.5335016697230445,0.5,0.0,0.0,458.0,864.0,1.0,0,-1192.0,0
664,664,0.5398400162410776,0.5,0.0,0.0,317.0,700.0,0.0,1,3983.0,1
665,665,-0.6178667344935108,-0.6,0.0,1.0,384.0,546.0,1.0,0,-780.0,1
666,666,0.5283045291740013,0.5,1.0,1.0,315.0,948.0,0.0,0,3737.0,0
667,667,0.029535355969636634,0.0,0.0,0.0,429.0,551.0,0.0,1,4020.0,1
668,668,0.7044345924346912,0.7,1.0,1.0,453.0,651.0,0.0,0,3896.0,0
669,669,-0.4240482086984378,-0.4,0.0,1.0,371.0,597.0,0.0,1,4032.0,0
670,670,0.3723659106835283,0.4,0.0,0.0,414.0,869.0,0.0,1,3717.0,1
671,671,0.804882951211994,0.8,0.0,0.0,284.0,755.0,1.0,0,-899.0,0
672,672,-0.8050691397435021,-0.8,1.0,0.0,338.0,579.0,0.0,0,-857.0,1
673,673,-0.8711070899550176,-0.9,0.0,1.0,481.0,812.0,0.0,1,3707.0,0
674,674,0.7546022796184496,0.8,1.0,1.0,265.0,878.0,1.0,1,-923.0,1
675,675,0.6024059140356129,0.6,1.0,1.0,390.0,853.0,0.0,0,-883.0,0
676,676,-0.1956132232808232,-0.2,0.0,1.0,271.0,836.0,0.0,1,-1047.0,0
677,677,-0.4660060005016341,-0.5,0.0,1.0,300.0,876.0,0.0,1,3824.0,0
678,678,0.4025598826961888,0.4,0.0,0.0,289.0,850.0,0.0,1,3861.0,1
679,679,0.0817778524733267,0.1,0.0,0.0,381.0,923.0,1.0,0,-1304.0,0
680,680,-0.6017907760442057,-0.6,1.0,0.0,337.0,756.0,1.0,1,-893.0,0
681,681,0.8958011840705155,0.9,0.0,0.0,278.0,901.0,0.0,1,3821.0,1
682,682,0.7243458664753869,0.7,0.0,0.0,396.0,620.0,0.0,1,3984.0,1
683,683,0.19435626008654705,0.2,1.0,1.0,294.0,580.0,0.0,0,4126.0,0
684,684,-0.2985616978465291,-0.3,1.0,0.0,313.0,973.0,0.0,0,3714.0,1
685,685,-0.23862077429082196,-0.2,1.0,0.0,319.0,737.0,0.0,0,3944.0,1
686,686,-0.49202332079267613,-0.5,0.0,1.0,476.0,668.0,0.0,1,3856.0,0
687,687,0.5091719824129098,0.5,0.0,0.0,451.0,984.0,0.0,1,3565.0,1
688,688,-0.2300979038231633,-0.2,1.0,0.0,316.0,636.0,0.0,0,4048.0,1
689,689,0.16199832108913126,0.2,0.0,0.0,349.0,522.0,0.0,1,4129.0,1
690,690,0.5625577296732013,0.6,0.0,0.0,377.0,668.0,0.0,1,3955.0,1
691,691,-0.7710012778819191,-0.8,0.0,1.0,462.0,749.0,0.0,1,3789.0,0
692,692,0.22049846701979103,0.2,1.0,1.0,460.0,580.0,0.0,0,-910.0,0
693,693,0.15768959161900653,0.2,0.0,0.0,316.0,565.0,0.0,1,4119.0,1
694,694,-0.07380169588252283,-0.1,1.0,0.0,484.0,529.0,0.0,0,-1003.0,1
695,695,0.30785427746733063,0.3,1.0,1.0,490.0,609.0,0.0,0,3901.0,0
696,696,-0.6653626830733067,-0.7,1.0,0.0,253.0,694.0,0.0,0,4053.0,1
697,697,-0.6003050887999203,-0.6,0.0,1.0,498.0,990.0,0.0,1,3512.0,0
698,698,-0.5456080983008937,-0.5,1.0,0.0,401.0,979.0,0.0,0,3620.0,1
699,699,-0.6599651610779674,-0.7,1.0,0.0,492.0,676.0,0.0,0,3832.0,1
700,700,0.8905725670333561,0.9,0.0,0.0,251.0,661.0,0.0,1,4088.0,1
701,701,-0.8449109326572213,-0.8,1.0,0.0,354.0,725.0,0.0,0,3921.0,1
702,702,0.21683048249958203,0.2,0.0,0.0,264.0,595.0,0.0,1,4141.0,1
703,703,0.666181876446048,0.7,0.0,0.0,431.0,730.0,0.0,1,-1041.0,1
704,704,0.8354646914028828,0.8,0.0,0.0,286.0,886.0,0.0,1,3828.0,1
705,705,0.536483888320694,0.5,0.0,0.0,385.0,511.0,0.0,1,4104.0,1
706,706,-0.28121113742568715,-0.3,1.0,0.0,465.0,944.0,0.0,0,3591.0,1
707,707,0.4901817066487505,0.5,1.0,1.0,259.0,969.0,0.0,0,3772.0,0
708,708,0.3692677940012977,0.4,0.0,0.0,346.0,573.0,0.0,1,4081.0,1
709,709,-0.8441206072125197,-0.8,1.0,0.0,394.0,567.0,0.0,0,4039.0,1
710,710,0.11686521991452714,0.1,1.0,1.0,479.0,872.0,0.0,0,3649.0,0
711,711,0.35243005940497485,0.4,1.0,1.0,412.0,880.0,1.0,1,-992.0,1
712,712,-0.7145296896063068,-0.7,1.0,0.0,399.0,772.0,0.0,0,3829.0,1
713,713,-0.1375692560056233,-0.1,1.0,0.0,455.0,998.0,0.0,0,3547.0,1
714,714,-0.71879313677135,-0.7,1.0,0.0,300.0,846.0,0.0,0,3854.0,1
715,715,-0.3287447512106627,-0.3,0.0,1.0,479.0,691.0,0.0,1,3830.0,0
716,716,-0.47952096134989924,-0.5,0.0,1.0,462.0,774.0,0.0,1,3764.0,0
717,717,-0.5553002237111713,-0.6,0.0,1.0,415.0,994.0,0.0,1,-1169.0,0
718,718,0.6844768797060404,0.7,1.0,1.0,316.0,956.0,0.0,0,3728.0,0
719,719,-0.515144194011546,-0.5,1.0,0.0,472.0,884.0,0.0,0,3644.0,1
720,720,0.3358659376287544,0.3,1.0,1.0,418.0,671.0,0.0,0,3911.0,0
721,721,0.46250899540953105,0.5,0.0,0.0,335.0,664.0,0.0,1,4001.0,1
722,722,-0.6183287207563231,-0.6,0.0,1.0,444.0,720.0,0.0,1,3836.0,0
723,723,-0.838993439912823,-0.8,1.0,0.0,442.0,849.0,0.0,0,3709.0,1
724,724,-0.3330064303204169,-0.3,1.0,0.0,304.0,523.0,0.0,0,4173.0,1
725,725,-0.8588988378402157,-0.9,0.0,1.0,483.0,971.0,0.0,1,-1384.0,0
726,726,-0.13624913924632098,-0.1,0.0,1.0,287.0,874.0,0.0,1,-1081.0,0
727,727,-0.8635774975099463,-0.9,1.0,0.0,449.0,755.0,0.0,0,3796.0,1
728,728,0.7356700371813426,0.7,1.0,1.0,483.0,864.0,0.0,0,3653.0,0
729,729,-0.5386886870607798,-0.5,1.0,0.0,487.0,720.0,1.0,1,-577.0,0
730,730,-0.2932174485247966,-0.3,0.0,1.0,282.0,623.0,1.0,0,-715.0,1
731,731,-0.7557478369449397,-0.8,1.0,0.0,355.0,994.0,0.0,0,3651.0,1
732,732,-0.5744659502937899,-0.6,1.0,0.0,287.0,801.0,0.0,0,3912.0,1
733,733,-0.14672340581569487,-0.1,1.0,0.0,311.0,652.0,0.0,0,4037.0,1
734,734,0.8084961904467701,0.8,0.0,0.0,496.0,756.0,0.0,1,-1112.0,1
735,735,0.4436185359346555,0.4,0.0,0.0,436.0,506.0,0.0,1,4058.0,1
736,736,0.6765040226243862,0.7,0.0,0.0,347.0,763.0,1.0,0,-1080.0,0
737,737,0.6392066447694319,0.6,1.0,1.0,455.0,881.0,0.0,0,3664.0,0
738,738,0.3916417312346284,0.4,0.0,0.0,283.0,937.0,0.0,1,3780.0,1
739,739,0.49904677988599333,0.5,0.0,0.0,360.0,540.0,0.0,1,4100.0,1
740,740,-0.2479672286451834,-0.2,0.0,1.0,336.0,977.0,0.0,1,3687.0,0
741,741,0.5832685874872746,0.6,0.0,0.0,405.0,510.0,0.0,1,4085.0,1
742,742,-0.45498024431556783,-0.5,0.0,1.0,396.0,959.0,0.0,1,3645.0,0
743,743,0.4851541873281572,0.5,1.0,1.0,339.0,568.0,0.0,0,4093.0,0
744,744,-0.5821424214722932,-0.6,0.0,1.0,394.0,540.0,0.0,1,4066.0,0
745,745,0.5972030164077876,0.6,1.0,1.0,424.0,686.0,0.0,0,3890.0,0
746,746,0.26901553378719834,0.3,1.0,1.0,434.0,625.0,0.0,0,3941.0,0
747,747,0.3083553762465733,0.3,0.0,0.0,452.0,540.0,0.0,1,4008.0,1
748,748,-0.21639375884377954,-0.2,1.0,0.0,317.0,990.0,0.0,0,3693.0,1
749,749,-0.6415193035627391,-0.6,1.0,0.0,335.0,645.0,0.0,0,4020.0,1
750,750,0.3705078640993088,0.4,1.0,1.0,340.0,715.0,0.0,0,3945.0,0
751,751,-0.14500396820753048,-0.1,1.0,0.0,466.0,556.0,0.0,0,-712.0,1
752,752,-0.6784949687361462,-0.7,1.0,0.0,338.0,768.0,0.0,0,3894.0,1
753,753,-0.3268615955406794,-0.3,1.0,0.0,318.0,500.0,0.0,0,4182.0,1
754,754,-0.7740740016641199,-0.8,1.0,0.0,491.0,508.0,1.0,1,-889.0,0
755,755,0.4278844694042986,0.4,0.0,0.0,403.0,733.0,0.0,1,3864.0,1
756,756,0.1613151795013682,0.2,1.0,1.0,430.0,558.0,0.0,0,4012.0,0
757,757,0.1389724914568743,0.1,1.0,1.0,341.0,970.0,0.0,0,3689.0,0
758,758,-0.6660833925777325,-0.7,1.0,0.0,420.0,597.0,0.0,0,3983.0,1
759,759,-0.04454236860092797,-0.0,0.0,1.0,437.0,612.0,1.0,0,-969.0,1
760,760,0.7413090200623115,0.7,1.0,1.0,316.0,615.0,0.0,0,4069.0,0
761,761,-0.35104082392657276,-0.4,1.0,0.0,293.0,808.0,0.0,0,3899.0,1
762,762,0.16718071966388892,0.2,0.0,0.0,374.0,848.0,0.0,1,3778.0,1
763,763,-0.10913926389148942,-0.1,0.0,1.0,421.0,917.0,0.0,1,3662.0,0
764,764,0.8514248754562675,0.9,0.0,0.0,414.0,926.0,0.0,1,3660.0,1
765,765,0.1835463368976854,0.2,1.0,1.0,491.0,844.0,0.0,0,3665.0,0
766,766,0.28952313091640847,0.3,0.0,0.0,355.0,915.0,0.0,1,3730.0,1
767,767,-0.6911289915814243,-0.7,0.0,1.0,267.0,808.0,0.0,1,3925.0,0
768,768,0.8395186002049316,0.8,0.0,0.0,388.0,952.0,0.0,1,3660.0,1
769,769,-0.08091916065541871,-0.1,0.0,1.0,493.0,664.0,1.0,0,-1087.0,1
770,770,0.4866532181161939,0.5,0.0,0.0,270.0,576.0,0.0,1,4154.0,1
771,771,0.8544882106371184,0.9,1.0,1.0,473.0,789.0,0.0,0,3738.0,0
772,772,0.23391127094274233,0.2,0.0,0.0,255.0,675.0,0.0,1,4070.0,1
773,773,-0.8046868413212755,-0.8,1.0,0.0,273.0,908.0,0.0,0,3819.0,1
774,774,0.4915057711808818,0.5,0.0,0.0,325.0,720.0,0.0,1,3955.0,1
775,775,0.751029201216101,0.8,0.0,0.0,288.0,971.0,0.0,1,3741.0,1
776,776,0.8734327368664331,0.9,0.0,0.0,323.0,625.0,0.0,1,4052.0,1
777,777,0.8503931072001497,0.9,0.0,0.0,372.0,942.0,0.0,1,-1114.0,1
778,778,-0.5936455466633621,-0.6,1.0,0.0,441.0,602.0,1.0,1,-973.0,0
779,779,0.30760486555140065,0.3,0.0,0.0,394.0,824.0,0.0,1,3782.0,1
780,780,0.33845358268811643,0.3,1.0,1.0,297.0,929.0,1.0,1,-1096.0,1
781,781,0.5643591377498917,0.6,0.0,0.0,336.0,811.0,0.0,1,3853.0,1
782,782,0.013474735149204609,0.0,0.0,0.0,312.0,998.0,0.0,1,3690.0,1
783,783,0.7483176328775679,0.7,1.0,1.0,492.0,833.0,0.0,0,3675.0,0
784,784,0.5280633353414336,0.5,1.0,1.0,255.0,883.0,0.0,0,3862.0,0
785,785,0.8729095328136022,0.9,0.0,0.0,292.0,888.0,0.0,1,3820.0,1
786,786,-0.565316669235312,-0.6,0.0,1.0,289.0,531.0,0.0,1,4180.0,0
787,787,-0.3560009241689607,-0.4,1.0,0.0,347.0,827.0,0.0,0,3826.0,1
788,788,-0.1550677114866117,-0.2,1.0,0.0,363.0,761.0,0.0,0,3876.0,1
789,789,-0.7210053310886655,-0.7,1.0,0.0,489.0,803.0,0.0,0,3708.0,1
790,790,-0.3906745235539546,-0.4,1.0,0.0,401.0,532.0,0.0,0,4067.0,1
791,791,0.2054977825953589,0.2,1.0,1.0,263.0,901.0,0.0,0,3836.0,0
792,792,-0.44177418383620154,-0.4,0.0,1.0,309.0,991.0,0.0,1,3700.0,0
793,793,0.7360042845230294,0.7,0.0,0.0,372.0,559.0,0.0,1,4069.0,1
794,794,-0.39661853326300855,-0.4,1.0,0.0,308.0,717.0,0.0,0,3975.0,1
795,795,0.5781135157204612,0.6,0.0,0.0,482.0,917.0,0.0,1,-1119.0,1
796,796,-0.78466327048574,-0.8,0.0,1.0,379.0,813.0,1.0,0,-1142.0,1
797,797,-0.5242636512196511,-0.5,0.0,1.0,417.0,593.0,1.0,0,-960.0,1
798,798,0.555008699642015,0.6,0.0,0.0,375.0,931.0,0.0,1,3694.0,1
799,799,0.3486283895658632,0.3,1.0,1.0,363.0,932.0,0.0,0,3705.0,0
800,800,-0.8312191215938017,-0.8,0.0,1.0,325.0,916.0,1.0,0,-1241.0,1
801,801,0.09076519281391615,0.1,0.0,0.0,393.0,619.0,0.0,1,3988.0,1
802,802,-0.5837494980778075,-0.6,1.0,0.0,369.0,840.0,1.0,1,-1119.0,0
803,803,-0.055132749679061455,-0.1,0.0,1.0,483.0,576.0,0.0,1,3941.0,0
804,804,0.4353179291064565,0.4,1.0,1.0,313.0,974.0,0.0,0,3713.0,0
805,805,0.8564510504702595,0.9,1.0,1.0,317.0,837.0,0.0,0,3846.0,0
806,806,0.5664694624860188,0.6,1.0,1.0,373.0,726.0,0.0,0,3901.0,0
807,807,-0.14013560785834367,-0.1,1.0,0.0,482.0,710.0,0.0,0,3808.0,1
808,808,0.7884723342128247,0.8,0.0,0.0,342.0,766.0,0.0,1,3892.0,1
809,809,0.8689378570252827,0.9,1.0,1.0,451.0,517.0,0.0,0,4032.0,0
810,810,0.719391470857153,0.7,1.0,1.0,341.0,540.0,0.0,0,4119.0,0
811,811,-0.8542192346407549,-0.9,1.0,0.0,461.0,713.0,0.0,0,-834.0,1
812,812,0.1561031932109277,0.2,1.0,1.0,471.0,650.0,0.0,0,3879.0,0
813,813,-0.24656349009608647,-0.2,0.0,1.0,410.0,670.0,0.0,1,3920.0,0
814,814,-0.6689678972235535,-0.7,0.0,1.0,305.0,722.0,0.0,1,3973.0,0
815,815,0.03860435807510709,0.0,0.0,0.0,250.0,566.0,0.0,1,4184.0,1
816,816,0.27825654755841767,0.3,0.0,0.0,311.0,579.0,0.0,1,4110.0,1
817,817,0.83690820840778,0.8,1.0,1.0,289.0,891.0,0.0,0,-990.0,0
818,818,-0.21659739286316415,-0.2,1.0,0.0,440.0,541.0,0.0,0,4019.0,1
819,819,0.09993745428026524,0.1,1.0,1.0,366.0,526.0,0.0,0,4108.0,0
820,820,-0.8888200403416969,-0.9,1.0,0.0,325.0,769.0,0.0,0,-894.0,1
821,821,-0.12814583087653697,-0.1,0.0,1.0,403.0,915.0,0.0,1,3682.0,0
822,822,0.423408211565374,0.4,1.0,1.0,368.0,742.0,0.0,0,3890.0,0
823,823,-0.7161459388760758,-0.7,1.0,0.0,339.0,810.0,0.0,0,3851.0,1
824,824,0.7987627481268947,0.8,0.0,0.0,370.0,633.0,0.0,1,3997.0,1
825,825,-0.8549461943074761,-0.9,1.0,0.0,453.0,945.0,0.0,0,-1098.0,1
826,826,0.12545351096093393,0.1,0.0,0.0,273.0,700.0,0.0,1,4027.0,1
827,827,-0.5404143503300167,-0.5,0.0,1.0,468.0,539.0,0.0,1,3993.0,0
828,828,-0.3244804827457023,-0.3,1.0,0.0,352.0,580.0,1.0,1,-932.0,0
829,829,-0.06678962758468587,-0.1,0.0,1.0,350.0,582.0,1.0,0,-712.0,1
830,830,-0.6231202808921383,-0.6,0.0,1.0,264.0,887.0,0.0,1,3849.0,0
831,831,-0.6572954716581673,-0.7,0.0,1.0,355.0,691.0,0.0,1,-1046.0,0
832,832,0.212391729635938,0.2,1.0,1.0,409.0,609.0,0.0,0,3982.0,0
833,833,-0.31877853282914026,-0.3,1.0,0.0,437.0,795.0,1.0,1,-1112.0,0
834,834,-0.5481868315207884,-0.5,0.0,1.0,339.0,595.0,0.0,1,4066.0,0
835,835,0.49439411681276224,0.5,1.0,1.0,392.0,510.0,0.0,0,4098.0,0
836,836,0.47429870857343437,0.5,0.0,0.0,471.0,532.0,0.0,1,3997.0,1
837,837,0.3659270551627868,0.4,0.0,0.0,405.0,884.0,0.0,1,-1259.0,1
838,838,-0.3688706890697345,-0.4,0.0,1.0,498.0,770.0,0.0,1,3732.0,0
839,839,0.3209201357185213,0.3,1.0,1.0,426.0,586.0,0.0,0,3988.0,0
840,840,0.48134542917846634,0.5,0.0,0.0,386.0,965.0,0.0,1,3649.0,1
841,841,0.8229849971078832,0.8,0.0,0.0,313.0,935.0,0.0,1,3752.0,1
842,842,-0.5816538738924697,-0.6,1.0,0.0,479.0,539.0,0.0,0,3982.0,1
843,843,0.28936379792789835,0.3,1.0,1.0,276.0,669.0,0.0,0,-945.0,0
844,844,-0.7270250278633503,-0.7,0.0,1.0,428.0,662.0,0.0,1,3910.0,0
845,845,-0.024602925559031097,-0.0,0.0,1.0,488.0,740.0,0.0,1,3772.0,0
846,846,-0.6196317216633387,-0.6,1.0,0.0,251.0,618.0,0.0,0,4131.0,1
847,847,-0.25984978125773617,-0.3,1.0,0.0,372.0,568.0,0.0,0,4060.0,1
848,848,-0.1397038073680058,-0.1,0.0,1.0,458.0,530.0,0.0,1,4012.0,0
849,849,-0.5832452528113479,-0.6,1.0,0.0,404.0,982.0,0.0,0,3614.0,1
850,850,0.25950092418180903,0.3,1.0,1.0,308.0,974.0,0.0,0,3718.0,0
851,851,-0.3608766770002979,-0.4,1.0,0.0,447.0,650.0,0.0,0,3903.0,1
852,852,0.6046260754329896,0.6,1.0,1.0,309.0,579.0,0.0,0,4112.0,0
853,853,0.0791109273439633,0.1,0.0,0.0,494.0,671.0,0.0,1,3835.0,1
854,854,-0.41281158055412936,-0.4,1.0,0.0,403.0,710.0,0.0,0,3887.0,1
855,855,0.5645572972978715,0.6,1.0,1.0,292.0,621.0,0.0,0,4087.0,0
856,856,0.3452844452999194,0.3,1.0,1.0,338.0,956.0,0.0,0,-1264.0,0
857,857,-0.3319452421650928,-0.3,0.0,1.0,268.0,824.0,0.0,1,3908.0,0
858,858,-0.7264905735722813,-0.7,0.0,1.0,427.0,880.0,0.0,1,3693.0,0
859,859,0.25889077391951887,0.3,0.0,0.0,352.0,820.0,0.0,1,3828.0,1
860,860,0.8824501237804151,0.9,1.0,1.0,277.0,862.0,0.0,0,-899.0,0
861,861,0.21228609073936677,0.2,0.0,0.0,403.0,655.0,0.0,1,3942.0,1
862,862,-0.5663725989714172,-0.6,1.0,0.0,469.0,745.0,1.0,1,-1144.0,0
863,863,-0.4600886340896857,-0.5,1.0,0.0,331.0,558.0,0.0,0,4111.0,1
864,864,-0.4835176872645854,-0.5,0.0,1.0,318.0,721.0,0.0,1,-669.0,0
865,865,-0.45727377655843926,-0.5,1.0,0.0,353.0,873.0,0.0,0,3774.0,1
866,866,0.19696718659224988,0.2,1.0,1.0,421.0,787.0,0.0,0,3792.0,0
867,867,0.07523947315559765,0.1,1.0,1.0,307.0,531.0,0.0,0,4162.0,0
868,868,-0.0275502037793125,-0.0,0.0,1.0,390.0,638.0,1.0,0,-658.0,1
869,869,0.6114600207644668,0.6,1.0,1.0,347.0,965.0,0.0,0,-1202.0,0
870,870,-0.0745130478925391,-0.1,1.0,0.0,411.0,761.0,0.0,0,-952.0,1
871,871,0.2927978302774029,0.3,1.0,1.0,311.0,523.0,1.0,1,-794.0,1
872,872,0.25980397862876725,0.3,1.0,1.0,295.0,802.0,0.0,0,3903.0,0
873,873,0.32722204142346,0.3,1.0,1.0,342.0,771.0,0.0,0,3887.0,0
874,874,-0.15622342602706352,-0.2,0.0,1.0,273.0,753.0,0.0,1,3974.0,0
875,875,0.06609909565753425,0.1,0.0,0.0,354.0,873.0,0.0,1,3773.0,1
876,876,-0.35087223133402345,-0.4,0.0,1.0,391.0,728.0,1.0,0,-909.0,1
877,877,0.21067588849190966,0.2,1.0,1.0,359.0,777.0,0.0,0,-906.0,0
878,878,-0.030709916133378923,-0.0,1.0,0.0,485.0,703.0,0.0,0,-658.0,1
879,879,0.40501005348032704,0.4,1.0,1.0,328.0,543.0,0.0,0,4129.0,0
880,880,-0.23597588560922433,-0.2,1.0,0.0,438.0,859.0,1.0,1,-1227.0,0
881,881,-0.39184426448624765,-0.4,0.0,1.0,265.0,651.0,0.0,1,4084.0,0
882,882,-0.8003045248550955,-0.8,1.0,0.0,392.0,811.0,0.0,0,-1163.0,1
883,883,-0.5339291240293136,-0.5,1.0,0.0,297.0,635.0,0.0,0,4068.0,1
884,884,0.3787369960889674,0.4,1.0,1.0,314.0,714.0,0.0,0,3972.0,0
885,885,0.8359756406817823,0.8,0.0,0.0,434.0,847.0,0.0,1,-851.0,1
886,886,0.3519170527346397,0.4,0.0,0.0,370.0,633.0,0.0,1,3997.0,1
887,887,-0.2841619313528435,-0.3,1.0,0.0,481.0,555.0,0.0,0,3964.0,1
888,888,-0.668948422480342,-0.7,0.0,1.0,330.0,561.0,0.0,1,4109.0,0
889,889,-0.46256610336888687,-0.5,1.0,0.0,264.0,624.0,0.0,0,4112.0,1
890,890,-0.19049904293179332,-0.2,1.0,0.0,339.0,937.0,0.0,0,3724.0,1
891,891,0.5396321627401285,0.5,1.0,1.0,486.0,632.0,0.0,0,3882.0,0
892,892,-0.6130705067548294,-0.6,0.0,1.0,363.0,513.0,0.0,1,4124.0,0
893,893,0.7310894603959793,0.7,1.0,1.0,469.0,763.0,0.0,0,-1092.0,0
894,894,0.09413894654042942,0.1,0.0,0.0,312.0,593.0,0.0,1,4095.0,1
895,895,-0.6589088887868678,-0.7,0.0,1.0,254.0,760.0,0.0,1,3986.0,0
896,896,0.6688446444100101,0.7,0.0,0.0,401.0,865.0,1.0,0,-686.0,0
897,897,0.6486603728662438,0.6,1.0,1.0,368.0,666.0,0.0,0,-854.0,0
898,898,-0.6713653373648548,-0.7,0.0,1.0,312.0,983.0,0.0,1,3705.0,0
899,899,-0.021873045119338852,-0.0,1.0,0.0,358.0,705.0,0.0,0,3937.0,1
900,900,0.6716707761892452,0.7,1.0,1.0,370.0,831.0,0.0,0,3799.0,0
901,901,0.7759716520799885,0.8,1.0,1.0,403.0,513.0,0.0,0,-746.0,0
902,902,0.014005189708675037,0.0,0.0,0.0,412.0,584.0,0.0,1,4004.0,1
903,903,0.8386314403305547,0.8,0.0,0.0,450.0,549.0,0.0,1,4001.0,1
904,904,0.7722654797454557,0.8,0.0,0.0,269.0,530.0,0.0,1,4201.0,1
905,905,0.39112922004102757,0.4,1.0,1.0,492.0,922.0,0.0,0,3586.0,0
906,906,0.4997275140607741,0.5,1.0,1.0,254.0,782.0,0.0,0,3964.0,0
907,907,-0.5086941943325844,-0.5,1.0,0.0,360.0,564.0,0.0,0,-724.0,1
908,908,0.15158485529718713,0.2,1.0,1.0,474.0,535.0,0.0,0,3991.0,0
909,909,0.88152370345853,0.9,1.0,1.0,399.0,819.0,0.0,0,3782.0,0
910,910,-0.2501406745029665,-0.3,1.0,0.0,304.0,965.0,0.0,0,3731.0,1
911,911,0.04934777551774716,0.0,1.0,1.0,473.0,549.0,0.0,0,3978.0,0
912,912,-0.3923204062841591,-0.4,1.0,0.0,256.0,954.0,1.0,1,-950.0,0
913,913,0.6709630441581856,0.7,0.0,0.0,331.0,585.0,0.0,1,4084.0,1
914,914,-0.8041073094045057,-0.8,1.0,0.0,375.0,749.0,0.0,0,3876.0,1
915,915,0.6194189975108156,0.6,0.0,0.0,419.0,925.0,0.0,1,3656.0,1
916,916,0.8918205123068391,0.9,0.0,0.0,260.0,990.0,0.0,1,3750.0,1
917,917,-0.0927984048203716,-0.1,0.0,1.0,487.0,751.0,0.0,1,3762.0,0
918,918,-0.37727560446260877,-0.4,1.0,0.0,268.0,804.0,0.0,0,3928.0,1
919,919,0.7924435308403474,0.8,1.0,1.0,300.0,775.0,0.0,0,3925.0,0
920,920,-0.4933531827437166,-0.5,0.0,1.0,279.0,794.0,1.0,0,-813.0,1
921,921,0.4676952480261666,0.5,1.0,1.0,317.0,743.0,0.0,0,3940.0,0
922,922,-0.5954779425459249,-0.6,1.0,0.0,273.0,631.0,1.0,1,-894.0,0
923,923,0.034470633925949734,0.0,0.0,0.0,363.0,799.0,0.0,1,3838.0,1
924,924,-0.17079024563401268,-0.2,1.0,0.0,381.0,680.0,0.0,0,3939.0,1
925,925,0.7453877603234199,0.7,0.0,0.0,336.0,903.0,0.0,1,-1229.0,1
926,926,0.3072128291226296,0.3,1.0,1.0,402.0,774.0,1.0,1,-1136.0,1
927,927,-0.513329474702032,-0.5,1.0,0.0,417.0,805.0,1.0,1,-1202.0,0
928,928,0.8994936492378677,0.9,0.0,0.0,357.0,508.0,1.0,0,-855.0,0
929,929,-0.22683108745981784,-0.2,1.0,0.0,415.0,688.0,0.0,0,3897.0,1
930,930,-0.2781179883224739,-0.3,1.0,0.0,278.0,927.0,0.0,0,3795.0,1
931,931,0.763459190904023,0.8,1.0,1.0,355.0,629.0,0.0,0,4016.0,0
932,932,0.6568166526352982,0.7,0.0,0.0,494.0,654.0,0.0,1,3852.0,1
933,933,-0.5767656358016455,-0.6,1.0,0.0,335.0,772.0,0.0,0,3893.0,1
934,934,0.4082469586736085,0.4,1.0,1.0,467.0,910.0,0.0,0,3623.0,0
935,935,-0.6944783112613898,-0.7,0.0,1.0,375.0,622.0,0.0,1,4003.0,0
936,936,0.7006510995358922,0.7,1.0,1.0,345.0,629.0,0.0,0,4026.0,0
937,937,-0.756289011848994,-0.8,1.0,0.0,322.0,782.0,0.0,0,3896.0,1
938,938,0.01136343214472535,0.0,1.0,1.0,424.0,807.0,0.0,0,3769.0,0
939,939,0.3370676267674838,0.3,1.0,1.0,353.0,895.0,0.0,0,-1138.0,0
940,940,-0.105927919257498,-0.1,0.0,1.0,286.0,921.0,0.0,1,3793.0,0
941,941,0.8420999936874857,0.8,1.0,1.0,389.0,777.0,0.0,0,3834.0,0
942,942,-0.8423303307321216,-0.8,0.0,1.0,293.0,532.0,0.0,1,4175.0,0
943,943,-0.368207207289567,-0.4,0.0,1.0,379.0,992.0,1.0,0,-1291.0,1
944,944,0.8979335781803645,0.9,0.0,0.0,373.0,816.0,1.0,0,-1189.0,0
945,945,0.7594810591199112,0.8,0.0,0.0,434.0,841.0,1.0,0,-945.0,0
946,946,0.5125460132967864,0.5,0.0,0.0,270.0,958.0,0.0,1,3772.0,1
947,947,0.4044167059380045,0.4,0.0,0.0,392.0,896.0,0.0,1,3712.0,1
948,948,-0.23153312616568256,-0.2,0.0,1.0,355.0,531.0,0.0,1,-836.0,0
949,949,0.029105303350046907,0.0,0.0,0.0,276.0,945.0,0.0,1,-961.0,1
950,950,0.5137199081588385,0.5,0.0,0.0,329.0,805.0,0.0,1,3866.0,1
951,951,-0.8066462076905837,-0.8,1.0,0.0,368.0,831.0,0.0,0,3801.0,1
952,952,-0.7265996094820604,-0.7,1.0,0.0,398.0,541.0,1.0,1,-579.0,0
953,953,0.43615843717309744,0.4,1.0,1.0,407.0,932.0,0.0,0,3661.0,0
954,954,0.25616897387042525,0.3,1.0,1.0,445.0,972.0,0.0,0,-1197.0,0
955,955,-0.17415935305629904,-0.2,0.0,1.0,418.0,723.0,0.0,1,3859.0,0
956,956,-0.0605505566724297,-0.1,1.0,0.0,432.0,759.0,0.0,0,3809.0,1
957,957,0.01311196007605897,0.0,0.0,0.0,312.0,563.0,1.0,0,-685.0,0
958,958,-0.7196201723527038,-0.7,1.0,0.0,460.0,943.0,1.0,1,-1223.0,0
959,959,-0.49528368073969553,-0.5,1.0,0.0,250.0,861.0,0.0,0,3889.0,1
960,960,-0.13954237297926342,-0.1,1.0,0.0,481.0,751.0,0.0,0,3768.0,1
961,961,-0.05539814283646649,-0.1,0.0,1.0,483.0,600.0,0.0,1,3917.0,0
962,962,0.1978123202522032,0.2,0.0,0.0,420.0,775.0,0.0,1,3805.0,1
963,963,-0.012508374727254634,-0.0,1.0,0.0,399.0,651.0,1.0,1,-690.0,0
964,964,0.2552737841600058,0.3,0.0,0.0,487.0,629.0,0.0,1,3884.0,1
965,965,-0.8078799144083717,-0.8,1.0,0.0,309.0,810.0,0.0,0,3881.0,1
966,966,0.07841037031852771,0.1,0.0,0.0,326.0,704.0,0.0,1,3970.0,1
967,967,0.7800046015404075,0.8,1.0,1.0,429.0,961.0,1.0,1,-1330.0,1
968,968,0.2717323019076391,0.3,1.0,1.0,494.0,857.0,0.0,0,3649.0,0
969,969,-0.5937670260309473,-0.6,0.0,1.0,495.0,961.0,0.0,1,3544.0,0
970,970,-0.71777373888154,-0.7,0.0,1.0,430.0,929.0,1.0,0,-809.0,1
971,971,0.028533454832062044,0.0,1.0,1.0,325.0,561.0,0.0,0,-656.0,0
972,972,0.23734507065552368,0.2,0.0,0.0,317.0,569.0,0.0,1,4114.0,1
973,973,-0.46225758941455114,-0.5,1.0,0.0,422.0,877.0,0.0,0,-1289.0,1
974,974,-0.7908182097869662,-0.8,0.0,1.0,290.0,767.0,0.0,1,3943.0,0
975,975,0.7525576151606926,0.8,0.0,0.0,488.0,952.0,0.0,1,3560.0,1
976,976,-0.2890381901542708,-0.3,0.0,1.0,464.0,844.0,0.0,1,3692.0,0
977,977,-0.11735343394505349,-0.1,0.0,1.0,455.0,568.0,0.0,1,3977.0,0
978,978,0.3291142601886822,0.3,1.0,1.0,489.0,969.0,0.0,0,3542.0,0
979,979,-0.25410619477822594,-0.3,1.0,0.0,469.0,558.0,0.0,0,3973.0,1
980,980,0.5673220475176189,0.6,0.0,0.0,405.0,739.0,0.0,1,3856.0,1
981,981,-0.09822182802189283,-0.1,1.0,0.0,411.0,641.0,0.0,0,3948.0,1
982,982,-0.729548108258773,-0.7,0.0,1.0,490.0,621.0,0.0,1,-1111.0,0
983,983,0.65134226240183,0.7,1.0,1.0,341.0,915.0,0.0,0,-786.0,0
984,984,-0.3708831435389066,-0.4,0.0,1.0,330.0,891.0,0.0,1,3779.0,0
985,985,-0.21672485232136318,-0.2,1.0,0.0,403.0,548.0,0.0,0,4049.0,1
986,986,0.25294883718801386,0.3,1.0,1.0,310.0,657.0,0.0,0,4033.0,0
987,987,-0.4314535310234874,-0.4,0.0,1.0,267.0,925.0,0.0,1,3808.0,0
988,988,-0.26496056933829193,-0.3,1.0,0.0,377.0,750.0,0.0,0,3873.0,1
989,989,-0.08557214499919752,-0.1,0.0,1.0,499.0,908.0,1.0,0,-1177.0,1
990,990,0.27889332655860655,0.3,1.0,1.0,285.0,747.0,0.0,0,3968.0,0
991,991,0.5358820676225869,0.5,1.0,1.0,445.0,995.0,0.0,0,3560.0,0
992,992,-0.8397173648692488,-0.8,0.0,1.0,388.0,542.0,0.0,1,4070.0,0
993,993,0.7040358084051416,0.7,1.0,1.0,366.0,783.0,0.0,0,3851.0,0
994,994,-0.10416196367834185,-0.1,0.0,1.0,454.0,580.0,0.0,1,3966.0,0
995,995,0.39261601591077777,0.4,1.0,1.0,290.0,898.0,0.0,0,3812.0,0
996,996,-0.06953506529766962,-0.1,1.0,0.0,286.0,598.0,0.0,0,-714.0,1
997,997,0.24492731172461168,0.2,1.0,1.0,491.0,893.0,0.0,0,-1354.0,0
998,998,0.6817041107348588,0.7,1.0,1.0,266.0,929.0,1.0,1,-705.0,1
999,999,-0.8011230963138095,-0.8,1.0,0.0,264.0,995.0,0.0,0,3741.0,1
1000,1000,0.5025683450596622,0.5,1.0,1.0,446.0,993.0,0.0,0,3561.0,0
1001,1001,0.4948807836636374,0.5,1.0,1.0,468.0,980.0,0.0,0,-1378.0,0
1002,1002,-0.5992758403096057,-0.6,0.0,1.0,405.0,870.0,0.0,1,3725.0,0
1003,1003,-0.5214326254628692,-0.5,0.0,1.0,367.0,989.0,0.0,1,3644.0,0
1004,1004,-0.4755902186983065,-0.5,1.0,0.0,309.0,722.0,0.0,0,3969.0,1
1005,1005,-0.04296551466707588,-0.0,0.0,1.0,318.0,657.0,0.0,1,4025.0,0
1006,1006,-0.33935738483099587,-0.3,1.0,0.0,481.0,818.0,0.0,0,-1199.0,1
1007,1007,-0.8260652807974108,-0.8,0.0,1.0,313.0,624.0,0.0,1,4063.0,0
1008,1008,-0.09265294718926631,-0.1,0.0,1.0,340.0,945.0,0.0,1,3715.0,0
1009,1009,0.11371659082116603,0.1,1.0,1.0,338.0,609.0,0.0,0,4053.0,0
1010,1010,0.6143782840446551,0.6,0.0,0.0,370.0,653.0,0.0,1,3977.0,1
1011,1011,-0.6885821908601284,-0.7,0.0,1.0,263.0,546.0,0.0,1,4191.0,0
1012,1012,0.6740723044941171,0.7,0.0,0.0,271.0,633.0,0.0,1,4096.0,1
1013,1013,0.1779503620023456,0.2,1.0,1.0,383.0,596.0,0.0,0,4021.0,0
1014,1014,0.5132250526897998,0.5,0.0,0.0,314.0,513.0,0.0,1,4173.0,1
1015,1015,0.5230502981030659,0.5,1.0,1.0,439.0,682.0,1.0,1,-991.0,1
1016,1016,-0.6236352113102055,-0.6,1.0,0.0,485.0,696.0,0.0,0,3819.0,1
1017,1017,-0.4608665467760023,-0.5,0.0,1.0,312.0,771.0,0.0,1,3917.0,0
1018,1018,0.6759067108136062,0.7,0.0,0.0,264.0,517.0,0.0,1,-751.0,1
1019,1019,0.5537624286976756,0.6,0.0,0.0,288.0,781.0,0.0,1,-1049.0,1
1020,1020,-0.7715873943706856,-0.8,0.0,1.0,450.0,681.0,0.0,1,3869.0,0
1021,1021,-0.32435667210648633,-0.3,0.0,1.0,268.0,848.0,0.0,1,-996.0,0
1022,1022,-0.8167497925290004,-0.8,0.0,1.0,315.0,980.0,1.0,0,-1075.0,1
1023,1023,0.3664935722930881,0.4,1.0,1.0,326.0,915.0,0.0,0,-981.0,0
1024,1024,-0.2474905961937015,-0.2,0.0,1.0,495.0,853.0,0.0,1,3652.0,0
1025,1025,-0.635358210661088,-0.6,1.0,0.0,499.0,703.0,0.0,0,3798.0,1
1026,1026,0.04301642453073762,0.0,1.0,1.0,375.0,827.0,0.0,0,3798.0,0
1027,1027,-0.21116608125081615,-0.2,0.0,1.0,428.0,664.0,0.0,1,3908.0,0
1028,1028,0.1869363902715243,0.2,1.0,1.0,296.0,546.0,1.0,1,-832.0,1
1029,1029,-0.044490907064729024,-0.0,1.0,0.0,357.0,781.0,0.0,0,3862.0,1
1030,1030,-0.6726810024172266,-0.7,0.0,1.0,253.0,848.0,0.0,1,3899.0,0
1031,1031,-0.4759251782761992,-0.5,1.0,0.0,483.0,526.0,0.0,0,3991.0,1
1032,1032,0.7436918532905595,0.7,0.0,0.0,299.0,900.0,0.0,1,3801.0,1
1033,1033,0.719118279953841,0.7,1.0,1.0,489.0,709.0,0.0,0,-1078.0,0
1034,1034,0.01602175041080134,0.0,1.0,1.0,452.0,691.0,0.0,0,3857.0,0
1035,1035,0.07287201135733146,0.1,1.0,1.0,481.0,585.0,0.0,0,-1056.0,0
1036,1036,0.7631622584457082,0.8,0.0,0.0,432.0,573.0,0.0,1,3995.0,1
1037,1037,-0.16583520165026422,-0.2,1.0,0.0,472.0,686.0,0.0,0,3842.0,1
1038,1038,0.6760153420430478,0.7,0.0,0.0,274.0,576.0,0.0,1,4150.0,1
1039,1039,-0.10837376289624767,-0.1,1.0,0.0,498.0,782.0,0.0,0,3720.0,1
1040,1040,0.6825673993260019,0.7,0.0,0.0,457.0,733.0,0.0,1,3810.0,1
1041,1041,-0.05322741499645722,-0.1,0.0,1.0,361.0,925.0,0.0,1,3714.0,0
1042,1042,0.523083734076767,0.5,1.0,1.0,471.0,943.0,0.0,0,3586.0,0
1043,1043,-0.8039475937514011,-0.8,1.0,0.0,491.0,531.0,0.0,0,-22.0,1
1044,1044,0.5013276498536753,0.5,0.0,0.0,453.0,586.0,0.0,1,3961.0,1
1045,1045,0.22831450424168553,0.2,1.0,1.0,385.0,818.0,0.0,0,3797.0,0
1046,1046,0.15655957498471385,0.2,0.0,0.0,439.0,678.0,0.0,1,3883.0,1
1047,1047,-0.16599990547146115,-0.2,0.0,1.0,253.0,672.0,0.0,1,4075.0,0
1048,1048,0.340429012975478,0.3,0.0,0.0,459.0,520.0,0.0,1,4021.0,1
1049,1049,0.44029275901645215,0.4,1.0,1.0,386.0,934.0,0.0,0,-840.0,0
1050,1050,0.2908441082656289,0.3,0.0,0.0,348.0,668.0,0.0,1,3984.0,1
1051,1051,0.6735734709223341,0.7,0.0,0.0,498.0,646.0,0.0,1,3856.0,1
1052,1052,0.054464020557527415,0.1,0.0,0.0,417.0,875.0,0.0,1,-982.0,1
1053,1053,0.10546371940475996,0.1,0.0,0.0,420.0,657.0,0.0,1,3923.0,1
1054,1054,0.4025318290441754,0.4,0.0,0.0,393.0,900.0,0.0,1,3707.0,1
1055,1055,-0.7241546562532704,-0.7,0.0,1.0,387.0,969.0,0.0,1,3644.0,0
1056,1056,0.6383125319406296,0.6,1.0,1.0,437.0,597.0,0.0,0,-474.0,0
1057,1057,0.32701422366870203,0.3,1.0,1.0,319.0,780.0,0.0,0,-1029.0,0
1058,1058,-0.5811150553086027,-0.6,1.0,0.0,474.0,590.0,0.0,0,3936.0,1
1059,1059,-0.1561813389573855,-0.2,0.0,1.0,449.0,940.0,0.0,1,-1179.0,0
1060,1060,0.42120996817225864,0.4,1.0,1.0,279.0,903.0,0.0,0,3818.0,0
1061,1061,-0.7435545856251954,-0.7,0.0,1.0,273.0,550.0,0.0,1,-783.0,0
1062,1062,0.5787526592154452,0.6,0.0,0.0,286.0,979.0,0.0,1,3735.0,1
1063,1063,-0.4609602225141917,-0.5,1.0,0.0,284.0,808.0,0.0,0,3908.0,1
1064,1064,0.37691860523181087,0.4,0.0,0.0,475.0,715.0,0.0,1,3810.0,1
1065,1065,0.4657258250308761,0.5,0.0,0.0,402.0,585.0,0.0,1,4013.0,1
1066,1066,0.21672134320276026,0.2,1.0,1.0,365.0,912.0,0.0,0,3723.0,0
1067,1067,0.47646691560515964,0.5,1.0,1.0,474.0,863.0,0.0,0,3663.0,0
1068,1068,-0.815092676305912,-0.8,1.0,0.0,488.0,796.0,0.0,0,3716.0,1
1069,1069,0.05250366844221499,0.1,1.0,1.0,491.0,724.0,0.0,0,3785.0,0
1070,1070,0.247093227304081,0.2,1.0,1.0,308.0,897.0,0.0,0,3795.0,0
1071,1071,0.8565025224485537,0.9,1.0,1.0,384.0,886.0,0.0,0,3730.0,0
1072,1072,-0.7629366318899325,-0.8,0.0,1.0,396.0,791.0,0.0,1,-1127.0,0
1073,1073,0.8834169342274799,0.9,1.0,1.0,458.0,881.0,1.0,1,-1229.0,1
1074,1074,-0.017142752628708346,-0.0,0.0,1.0,274.0,874.0,0.0,1,3852.0,0
1075,1075,0.47615665664693096,0.5,0.0,0.0,375.0,710.0,0.0,1,3915.0,1
1076,1076,0.7633904135161586,0.8,0.0,0.0,495.0,702.0,0.0,1,3803.0,1
1077,1077,-0.6859461366854946,-0.7,0.0,1.0,437.0,877.0,0.0,1,3686.0,0
1078,1078,0.6368165510643374,0.6,0.0,0.0,486.0,547.0,0.0,1,3967.0,1
1079,1079,0.5653544843023756,0.6,1.0,1.0,443.0,863.0,0.0,0,3694.0,0
1080,1080,-0.21441577763458608,-0.2,1.0,0.0,359.0,903.0,0.0,0,3738.0,1
1081,1081,-0.03752904497764242,-0.0,0.0,1.0,470.0,513.0,0.0,1,4017.0,0
1082,1082,0.26992840293103304,0.3,0.0,0.0,258.0,541.0,1.0,0,-699.0,0
1083,1083,-0.3862400498011481,-0.4,1.0,0.0,452.0,555.0,0.0,0,3993.0,1
1084,1084,-0.7524631381142547,-0.8,1.0,0.0,437.0,678.0,0.0,0,3885.0,1
1085,1085,0.003519332815635101,0.0,0.0,0.0,322.0,670.0,0.0,1,4008.0,1
1086,1086,0.29302626505774476,0.3,1.0,1.0,390.0,528.0,0.0,0,4082.0,0
1087,1087,0.15889953134335155,0.2,0.0,0.0,427.0,655.0,0.0,1,3918.0,1
1088,1088,0.8511929278071403,0.9,1.0,1.0,402.0,815.0,0.0,0,3783.0,0
1089,1089,0.6049007360591797,0.6,1.0,1.0,316.0,833.0,0.0,0,-729.0,0
1090,1090,-0.7696907729711185,-0.8,0.0,1.0,349.0,950.0,1.0,0,-1239.0,1
1091,1091,-0.33268296708283185,-0.3,1.0,0.0,350.0,972.0,0.0,0,3678.0,1
1092,1092,0.4962111525814977,0.5,0.0,0.0,487.0,625.0,0.0,1,3888.0,1
1093,1093,-0.7968655803140221,-0.8,0.0,1.0,284.0,773.0,0.0,1,3943.0,0
1094,1094,-0.14143641154629694,-0.1,1.0,0.0,430.0,917.0,0.0,0,-1337.0,1
1095,1095,0.049507683417754356,0.0,0.0,0.0,466.0,817.0,0.0,1,3717.0,1
1096,1096,-0.48497251527849017,-0.5,1.0,0.0,374.0,728.0,0.0,0,3898.0,1
1097,1097,0.14607713873307115,0.1,1.0,1.0,404.0,681.0,0.0,0,3915.0,0
1098,1098,-0.12347563489790325,-0.1,0.0,1.0,497.0,867.0,0.0,1,3636.0,0
1099,1099,0.6242511905749716,0.6,0.0,0.0,403.0,559.0,1.0,0,48.0,0
1100,1100,0.8093215876211793,0.8,0.0,0.0,385.0,853.0,0.0,1,-1118.0,1
1101,1101,0.4618828920178747,0.5,0.0,0.0,284.0,686.0,0.0,1,4030.0,1
1102,1102,0.7810188740506817,0.8,1.0,1.0,259.0,784.0,0.0,0,3957.0,0
1103,1103,-0.10867685791933135,-0.1,1.0,0.0,288.0,996.0,0.0,0,3716.0,1
1104,1104,0.8363459411837985,0.8,0.0,0.0,348.0,990.0,0.0,1,3662.0,1
1105,1105,-0.1712474495628441,-0.2,1.0,0.0,490.0,956.0,0.0,0,-1296.0,1
1106,1106,0.8954544276519832,0.9,1.0,1.0,275.0,990.0,0.0,0,3735.0,0
1107,1107,0.5108702016903853,0.5,0.0,0.0,417.0,537.0,0.0,1,4046.0,1
1108,1108,0.8901206786188153,0.9,0.0,0.0,377.0,507.0,0.0,1,-584.0,1
1109,1109,0.6926909953953196,0.7,0.0,0.0,392.0,864.0,0.0,1,3744.0,1
1110,1110,0.8556851909879252,0.9,0.0,0.0,346.0,860.0,0.0,1,3794.0,1
1111,1111,-0.8210432934985932,-0.8,1.0,0.0,299.0,782.0,0.0,0,-961.0,1
1112,1112,-0.7234437449193853,-0.7,1.0,0.0,283.0,919.0,0.0,0,3798.0,1
1113,1113,0.42911378188759264,0.4,1.0,1.0,450.0,686.0,0.0,0,3864.0,0
1114,1114,-0.523636665469448,-0.5,1.0,0.0,347.0,768.0,0.0,0,-745.0,1
1115,1115,-0.5762075120778488,-0.6,1.0,0.0,449.0,559.0,0.0,0,3992.0,1
1116,1116,0.4371991576364601,0.4,0.0,0.0,271.0,838.0,0.0,1,3891.0,1
1117,1117,0.2396074096693378,0.2,0.0,0.0,283.0,935.0,0.0,1,-1058.0,1
1118,1118,-0.09227425391197663,-0.1,1.0,0.0,381.0,729.0,0.0,0,3890.0,1
1119,1119,0.4498795333058553,0.4,1.0,1.0,497.0,612.0,0.0,0,3891.0,0
1120,1120,0.7423483958553522,0.7,0.0,0.0,372.0,627.0,0.0,1,4001.0,1
1121,1121,-0.6506560459498681,-0.7,1.0,0.0,461.0,866.0,0.0,0,3673.0,1
1122,1122,-0.8721760031896545,-0.9,0.0,1.0,265.0,725.0,1.0,0,-30.0,1
1123,1123,-0.8913511520646274,-0.9,1.0,0.0,378.0,948.0,0.0,0,3674.0,1
1124,1124,0.43064280738433125,0.4,0.0,0.0,397.0,653.0,0.0,1,3950.0,1
1125,1125,-0.7128128652101401,-0.7,0.0,1.0,329.0,717.0,0.0,1,3954.0,0
1126,1126,0.16101765419735214,0.2,1.0,1.0,360.0,766.0,0.0,0,3874.0,0
1127,1127,0.6463128906233998,0.6,1.0,1.0,409.0,562.0,0.0,0,-661.0,0
1128,1128,-0.6675999291685779,-0.7,0.0,1.0,289.0,910.0,0.0,1,3801.0,0
1129,1129,0.1542907041362903,0.2,0.0,0.0,381.0,709.0,0.0,1,-1070.0,1
1130,1130,-0.8145217712202476,-0.8,0.0,1.0,482.0,512.0,1.0,0,-384.0,1
1131,1131,-0.4105602577614726,-0.4,1.0,0.0,281.0,831.0,0.0,0,3888.0,1
1132,1132,-0.213007798083785,-0.2,1.0,0.0,485.0,612.0,0.0,0,-1037.0,1
1133,1133,-0.2922296233701127,-0.3,1.0,0.0,350.0,872.0,0.0,0,3778.0,1
1134,1134,0.42012192523220737,0.4,0.0,0.0,299.0,774.0,1.0,0,-933.0,0
1135,1135,-0.10497298102511099,-0.1,0.0,1.0,260.0,755.0,0.0,1,3985.0,0
1136,1136,-0.5868532078528699,-0.6,1.0,0.0,267.0,590.0,0.0,0,4143.0,1
1137,1137,-0.7771636507095389,-0.8,0.0,1.0,425.0,681.0,0.0,1,3894.0,0
1138,1138,0.8539587380050363,0.9,0.0,0.0,309.0,559.0,0.0,1,-658.0,1
1139,1139,-0.011118703388790063,-0.0,0.0,1.0,322.0,653.0,0.0,1,4025.0,0
1140,1140,0.45314194022331444,0.5,1.0,1.0,281.0,511.0,0.0,0,4208.0,0
1141,1141,0.7792142386197588,0.8,0.0,0.0,265.0,958.0,0.0,1,3777.0,1
1142,1142,0.7217958722395478,0.7,0.0,0.0,330.0,775.0,0.0,1,3895.0,1
1143,1143,-0.7243811760382561,-0.7,1.0,0.0,458.0,792.0,0.0,0,3750.0,1
1144,1144,-0.19365215648835954,-0.2,0.0,1.0,312.0,515.0,0.0,1,4173.0,0
1145,1145,0.29515733552024603,0.3,1.0,1.0,379.0,580.0,0.0,0,4041.0,0
1146,1146,-0.2620155272186948,-0.3,0.0,1.0,418.0,945.0,0.0,1,3637.0,0
1147,1147,-0.2284009429259498,-0.2,0.0,1.0,353.0,675.0,0.0,1,3972.0,0
1148,1148,-0.773515069778352,-0.8,0.0,1.0,293.0,660.0,0.0,1,4047.0,0
1149,1149,0.16755570687678534,0.2,1.0,1.0,384.0,919.0,0.0,0,3697.0,0
1150,1150,0.6609936601238319,0.7,1.0,1.0,378.0,929.0,0.0,0,3693.0,0
1151,1151,-0.7347923833158213,-0.7,0.0,1.0,292.0,819.0,0.0,1,3889.0,0
1152,1152,0.5138497102493648,0.5,1.0,1.0,466.0,992.0,0.0,0,3542.0,0
1153,1153,0.23390798673238755,0.2,1.0,1.0,333.0,958.0,0.0,0,3709.0,0
1154,1154,-0.6228352422697252,-0.6,1.0,0.0,309.0,894.0,0.0,0,3797.0,1
1155,1155,0.5093339598365568,0.5,1.0,1.0,262.0,518.0,0.0,0,4220.0,0
1156,1156,-0.05371413182689355,-0.1,1.0,0.0,485.0,668.0,0.0,0,3847.0,1
1157,1157,0.5689161130550452,0.6,0.0,0.0,305.0,974.0,0.0,1,-1099.0,1
1158,1158,-0.42351750062587773,-0.4,1.0,0.0,272.0,875.0,0.0,0,-1117.0,1
1159,1159,-0.3945493586708001,-0.4,0.0,1.0,392.0,604.0,0.0,1,-846.0,0
1160,1160,0.3774996078476437,0.4,0.0,0.0,418.0,765.0,0.0,1,-983.0,1
1161,1161,-0.20033717020172237,-0.2,0.0,1.0,286.0,939.0,0.0,1,3775.0,0
1162,1162,0.21460438969781037,0.2,0.0,0.0,493.0,568.0,0.0,1,3939.0,1
1163,1163,0.3810845009556757,0.4,0.0,0.0,290.0,605.0,0.0,1,4105.0,1
1164,1164,-0.8975820970630929,-0.9,0.0,1.0,302.0,874.0,0.0,1,3824.0,0
1165,1165,0.4693806276502327,0.5,0.0,0.0,449.0,977.0,0.0,1,3574.0,1
1166,1166,0.40957907140170546,0.4,0.0,0.0,298.0,855.0,1.0,0,-693.0,0
1167,1167,0.2131192146166262,0.2,0.0,0.0,351.0,517.0,0.0,1,4132.0,1
1168,1168,-0.03155553715354131,-0.0,1.0,0.0,444.0,805.0,0.0,0,3751.0,1
1169,1169,0.22479173014165166,0.2,0.0,0.0,412.0,702.0,0.0,1,-844.0,1
1170,1170,0.49578732136218384,0.5,1.0,1.0,307.0,890.0,0.0,0,3803.0,0
1171,1171,0.4168482331002067,0.4,0.0,0.0,476.0,632.0,0.0,1,-818.0,1
1172,1172,0.24333095764318224,0.2,0.0,0.0,336.0,632.0,0.0,1,4032.0,1
1173,1173,0.08379149322203083,0.1,1.0,1.0,272.0,980.0,0.0,0,-1202.0,0
1174,1174,-0.1672189945415299,-0.2,0.0,1.0,414.0,668.0,0.0,1,3918.0,0
1175,1175,-0.6789362831048272,-0.7,1.0,0.0,481.0,720.0,0.0,0,3799.0,1
1176,1176,0.6930429465624598,0.7,1.0,1.0,406.0,988.0,0.0,0,-1334.0,0
1177,1177,0.6123844151506791,0.6,0.0,0.0,475.0,606.0,0.0,1,-821.0,1
1178,1178,0.19103570876642417,0.2,0.0,0.0,382.0,916.0,0.0,1,3702.0,1
1179,1179,-0.014871274310360172,-0.0,0.0,1.0,270.0,729.0,0.0,1,4001.0,0
1180,1180,0.20824115851658342,0.2,1.0,1.0,436.0,675.0,0.0,0,3889.0,0
1181,1181,-0.3359140742448824,-0.3,1.0,0.0,495.0,523.0,0.0,0,3982.0,1
1182,1182,0.1462345592762414,0.1,1.0,1.0,476.0,649.0,0.0,0,3875.0,0
1183,1183,-0.6651857713510351,-0.7,0.0,1.0,254.0,983.0,0.0,1,3763.0,0
1184,1184,0.8816884493318383,0.9,0.0,0.0,289.0,576.0,0.0,1,4135.0,1
1185,1185,0.20038834631284452,0.2,1.0,1.0,366.0,642.0,0.0,0,-928.0,0
1186,1186,0.35594486811127013,0.4,1.0,1.0,495.0,839.0,0.0,0,3666.0,0
1187,1187,-0.5550862729117119,-0.6,0.0,1.0,308.0,590.0,0.0,1,4102.0,0
1188,1188,-0.7103763408544664,-0.7,0.0,1.0,316.0,578.0,0.0,1,4106.0,0
1189,1189,-0.8878828092426067,-0.9,0.0,1.0,371.0,979.0,0.0,1,3650.0,0
1190,1190,-0.07323454183129796,-0.1,0.0,1.0,376.0,671.0,0.0,1,3953.0,0
1191,1191,-0.1323891900414006,-0.1,0.0,1.0,404.0,630.0,0.0,1,-884.0,0
1192,1192,-0.2987993244763323,-0.3,0.0,1.0,386.0,692.0,0.0,1,3922.0,0
1193,1193,0.6812137195860463,0.7,1.0,1.0,461.0,997.0,0.0,0,-1078.0,0
1194,1194,0.7172258318509502,0.7,0.0,0.0,340.0,561.0,1.0,0,-731.0,0
1195,1195,0.7046138817753062,0.7,1.0,1.0,301.0,528.0,0.0,0,4171.0,0
1196,1196,0.852809721635467,0.9,0.0,0.0,318.0,822.0,1.0,0,-1020.0,0
1197,1197,-0.763725971477174,-0.8,0.0,1.0,487.0,629.0,0.0,1,3884.0,0
1198,1198,-0.714467327056244,-0.7,1.0,0.0,326.0,976.0,0.0,0,3698.0,1
1199,1199,0.20733675548829578,0.2,0.0,0.0,430.0,749.0,0.0,1,-1039.0,1
1200,1200,-0.44867334507594353,-0.4,1.0,0.0,275.0,806.0,0.0,0,3919.0,1
1201,1201,0.506774757883305,0.5,1.0,1.0,495.0,942.0,0.0,0,3563.0,0
1202,1202,-0.5269984105081007,-0.5,1.0,0.0,477.0,875.0,0.0,0,3648.0,1
1203,1203,0.13583065758853252,0.1,1.0,1.0,448.0,503.0,0.0,0,4049.0,0
1204,1204,0.5583355011702961,0.6,1.0,1.0,458.0,550.0,0.0,0,3992.0,0
1205,1205,0.04051250827404862,0.0,0.0,0.0,325.0,979.0,0.0,1,-1214.0,1
1206,1206,-0.5908685947067912,-0.6,1.0,0.0,497.0,652.0,0.0,0,-1129.0,1
1207,1207,-0.42686876228026566,-0.4,0.0,1.0,401.0,836.0,0.0,1,3763.0,0
1208,1208,-0.24841063428545385,-0.2,1.0,0.0,267.0,970.0,0.0,0,3763.0,1
1209,1209,0.30577665475598825,0.3,0.0,0.0,411.0,556.0,1.0,0,-947.0,0
1210,1210,0.7854382936016745,0.8,1.0,1.0,446.0,935.0,0.0,0,3619.0,0
1211,1211,-0.19470113364618202,-0.2,1.0,0.0,476.0,967.0,0.0,0,-1083.0,1
1212,1212,-0.1502869378275722,-0.2,0.0,1.0,460.0,579.0,0.0,1,3961.0,0
1213,1213,-0.8770748507294716,-0.9,1.0,0.0,298.0,531.0,0.0,0,-819.0,1
1214,1214,-0.7506942668100578,-0.8,1.0,0.0,468.0,763.0,1.0,1,-931.0,0
1215,1215,-0.09426178991745782,-0.1,1.0,0.0,318.0,605.0,0.0,0,4077.0,1
1216,1216,0.050355248387577434,0.1,1.0,1.0,497.0,674.0,1.0,1,-1171.0,1
1217,1217,0.5420406022376582,0.5,1.0,1.0,411.0,909.0,1.0,1,-1250.0,1
1218,1218,-0.7753875118930134,-0.8,0.0,1.0,331.0,731.0,0.0,1,3938.0,0
1219,1219,-0.06143792798615033,-0.1,1.0,0.0,357.0,817.0,0.0,0,3826.0,1
1220,1220,-0.06367119593657566,-0.1,0.0,1.0,412.0,592.0,0.0,1,3996.0,0
1221,1221,0.06834709105008996,0.1,0.0,0.0,444.0,677.0,0.0,1,3879.0,1
1222,1222,-0.026028385361321682,-0.0,1.0,0.0,330.0,739.0,0.0,0,-1049.0,1
1223,1223,-0.3178222800113547,-0.3,0.0,1.0,362.0,601.0,0.0,1,4037.0,0
1224,1224,-0.4732115664012699,-0.5,1.0,0.0,418.0,728.0,0.0,0,3854.0,1
1225,1225,-0.15131915323233036,-0.2,0.0,1.0,359.0,905.0,1.0,0,-1264.0,1
1226,1226,0.8518600817069842,0.9,1.0,1.0,369.0,617.0,0.0,0,4014.0,0
1227,1227,0.36442622612452047,0.4,1.0,1.0,407.0,580.0,0.0,0,4013.0,0
1228,1228,-0.11775539179529981,-0.1,1.0,0.0,330.0,583.0,0.0,0,4087.0,1
1229,1229,0.3954214533379775,0.4,1.0,1.0,442.0,506.0,0.0,0,4052.0,0
1230,1230,0.6304423344647357,0.6,1.0,1.0,388.0,788.0,0.0,0,3824.0,0
1231,1231,0.8485687510396679,0.8,0.0,0.0,450.0,843.0,0.0,1,3707.0,1
1232,1232,0.8983598629519626,0.9,0.0,0.0,297.0,511.0,0.0,1,4192.0,1
1233,1233,-0.8578148289963824,-0.9,1.0,0.0,328.0,704.0,0.0,0,3968.0,1
1234,1234,0.39288472143307784,0.4,1.0,1.0,415.0,699.0,0.0,0,3886.0,0
1235,1235,-0.09732826792019678,-0.1,0.0,1.0,347.0,564.0,0.0,1,4089.0,0
1236,1236,-0.015084871520830045,-0.0,1.0,0.0,265.0,894.0,0.0,0,3841.0,1
1237,1237,0.7686415442817117,0.8,0.0,0.0,478.0,844.0,0.0,1,-1112.0,1
1238,1238,0.5720965895446707,0.6,1.0,1.0,294.0,629.0,0.0,0,4077.0,0
1239,1239,-0.757528124699565,-0.8,0.0,1.0,389.0,743.0,0.0,1,3868.0,0
1240,1240,-0.17567124769882247,-0.2,0.0,1.0,456.0,838.0,0.0,1,3706.0,0
1241,1241,0.26708687498659345,0.3,1.0,1.0,490.0,920.0,0.0,0,-1040.0,0
1242,1242,0.8648681481698389,0.9,0.0,0.0,277.0,586.0,0.0,1,4137.0,1
1243,1243,-0.8349299041841404,-0.8,1.0,0.0,428.0,530.0,1.0,1,-898.0,0
1244,1244,-0.6169698130509542,-0.6,1.0,0.0,468.0,893.0,0.0,0,3639.0,1
1245,1245,0.34116524551379934,0.3,1.0,1.0,360.0,643.0,0.0,0,3997.0,0
1246,1246,-0.057212479944487304,-0.1,0.0,1.0,307.0,737.0,0.0,1,3956.0,0
1247,1247,-0.08339941801096928,-0.1,1.0,0.0,450.0,639.0,0.0,0,-879.0,1
1248,1248,-0.6900272324113601,-0.7,0.0,1.0,406.0,610.0,0.0,1,3984.0,0
1249,1249,0.3835325625181031,0.4,0.0,0.0,421.0,657.0,0.0,1,3922.0,1
1250,1250,0.3197707879405235,0.3,1.0,1.0,489.0,763.0,0.0,0,3748.0,0
1251,1251,-0.393150843242566,-0.4,0.0,1.0,309.0,861.0,0.0,1,3830.0,0
1252,1252,-0.1312712466784801,-0.1,1.0,0.0,356.0,926.0,0.0,0,3718.0,1
1253,1253,0.13317562374613312,0.1,0.0,0.0,291.0,541.0,0.0,1,4168.0,1
1254,1254,-0.744287439655145,-0.7,1.0,0.0,257.0,717.0,0.0,0,4026.0,1
1255,1255,0.76008699860303,0.8,0.0,0.0,311.0,869.0,0.0,1,3820.0,1
1256,1256,0.6887441812489002,0.7,0.0,0.0,447.0,827.0,0.0,1,3726.0,1
1257,1257,0.5116363848799915,0.5,0.0,0.0,345.0,987.0,1.0,0,-1222.0,0
1258,1258,0.8028423663876673,0.8,0.0,0.0,429.0,922.0,0.0,1,3649.0,1
1259,1259,0.5700849681956227,0.6,1.0,1.0,487.0,687.0,1.0,1,-814.0,1
1260,1260,-0.7384033017606644,-0.7,0.0,1.0,424.0,513.0,0.0,1,4063.0,0
1261,1261,0.7990410025405509,0.8,1.0,1.0,442.0,585.0,0.0,0,3973.0,0
1262,1262,-0.5604017268898083,-0.6,0.0,1.0,337.0,982.0,0.0,1,3681.0,0
1263,1263,-0.1808141534692096,-0.2,1.0,0.0,469.0,523.0,0.0,0,4008.0,1
1264,1264,-0.21725099447761786,-0.2,1.0,0.0,408.0,893.0,0.0,0,3699.0,1
1265,1265,0.4678035349704336,0.5,0.0,0.0,398.0,912.0,0.0,1,3690.0,1
1266,1266,-0.4427160774375642,-0.4,1.0,0.0,388.0,731.0,1.0,1,-1039.0,0
1267,1267,-0.21677229100926132,-0.2,0.0,1.0,485.0,717.0,0.0,1,3798.0,0
1268,1268,-0.17655142629018894,-0.2,0.0,1.0,312.0,831.0,0.0,1,3857.0,0
1269,1269,0.09312042419879962,0.1,1.0,1.0,283.0,526.0,0.0,0,4191.0,0
1270,1270,0.17874559307081406,0.2,1.0,1.0,314.0,748.0,0.0,0,-972.0,0
1271,1271,0.84088286858744,0.8,1.0,1.0,384.0,663.0,0.0,0,3953.0,0
1272,1272,0.3270890582985696,0.3,0.0,0.0,395.0,547.0,0.0,1,4058.0,1
1273,1273,-0.6799884358263549,-0.7,0.0,1.0,433.0,743.0,0.0,1,3824.0,0
1274,1274,0.5597397364210349,0.6,1.0,1.0,328.0,663.0,0.0,0,4009.0,0
1275,1275,-0.5658621858378012,-0.6,0.0,1.0,276.0,813.0,0.0,1,3911.0,0
1276,1276,-0.38252256776289784,-0.4,0.0,1.0,403.0,658.0,0.0,1,3939.0,0
1277,1277,0.45799961766786146,0.5,1.0,1.0,412.0,899.0,0.0,0,-1291.0,0
1278,1278,0.14450635179340166,0.1,0.0,0.0,379.0,932.0,0.0,1,3689.0,1
1279,1279,0.7150508082938621,0.7,0.0,0.0,432.0,877.0,1.0,0,-1169.0,0
1280,1280,0.6341449687747519,0.6,1.0,1.0,394.0,906.0,0.0,0,-1200.0,0
1281,1281,0.5956601233531472,0.6,1.0,1.0,412.0,764.0,0.0,0,3824.0,0
1282,1282,-0.7041982699920977,-0.7,1.0,0.0,404.0,895.0,0.0,0,3701.0,1
1283,1283,0.44823353034358304,0.4,1.0,1.0,291.0,768.0,0.0,0,-979.0,0
1284,1284,0.8162198523825838,0.8,1.0,1.0,449.0,599.0,0.0,0,3952.0,0
1285,1285,0.4723357527495996,0.5,1.0,1.0,489.0,564.0,0.0,0,-943.0,0
1286,1286,0.46685939296619783,0.5,1.0,1.0,343.0,939.0,0.0,0,3718.0,0
1287,1287,0.7119118244660344,0.7,1.0,1.0,384.0,976.0,0.0,0,3640.0,0
1288,1288,-0.4585537723164233,-0.5,0.0,1.0,387.0,689.0,0.0,1,3924.0,0
1289,1289,-0.47163994647529384,-0.5,1.0,0.0,494.0,898.0,0.0,0,3608.0,1
1290,1290,-0.040776189853645506,-0.0,1.0,0.0,450.0,975.0,0.0,0,-1165.0,1
1291,1291,0.1035881299336684,0.1,0.0,0.0,421.0,999.0,0.0,1,3580.0,1
1292,1292,-0.0721884322082964,-0.1,1.0,0.0,420.0,992.0,1.0,1,-1212.0,0
1293,1293,0.8198010476050784,0.8,1.0,1.0,330.0,670.0,1.0,1,-550.0,1
1294,1294,0.832825807120715,0.8,1.0,1.0,362.0,918.0,0.0,0,3720.0,0
1295,1295,0.41470070009307214,0.4,0.0,0.0,487.0,719.0,0.0,1,-736.0,1
1296,1296,-0.7753718129138282,-0.8,1.0,0.0,289.0,564.0,0.0,0,-493.0,1
1297,1297,0.7565350318093261,0.8,1.0,1.0,381.0,814.0,0.0,0,3805.0,0
1298,1298,-0.4402532668448583,-0.4,0.0,1.0,495.0,713.0,0.0,1,3792.0,0
1299,1299,-0.17387046849732368,-0.2,1.0,0.0,374.0,700.0,0.0,0,3926.0,1
1300,1300,0.20059170816831562,0.2,1.0,1.0,257.0,731.0,0.0,0,4012.0,0
1301,1301,0.42894245472717596,0.4,1.0,1.0,339.0,634.0,0.0,0,4027.0,0
1302,1302,0.4865198992719252,0.5,1.0,1.0,313.0,826.0,1.0,1,-1069.0,1
1303,1303,-0.38570447519729634,-0.4,1.0,0.0,305.0,661.0,0.0,0,4034.0,1
1304,1304,-0.17212940851170577,-0.2,1.0,0.0,323.0,898.0,0.0,0,3779.0,1
1305,1305,-0.7678510308373718,-0.8,0.0,1.0,409.0,634.0,0.0,1,-793.0,0
1306,1306,-0.14924443501067974,-0.1,1.0,0.0,450.0,819.0,0.0,0,-1249.0,1
1307,1307,0.5442588702100563,0.5,0.0,0.0,380.0,657.0,0.0,1,3963.0,1
1308,1308,-0.4077390395152574,-0.4,0.0,1.0,311.0,701.0,0.0,1,3988.0,0
1309,1309,0.2960206633629051,0.3,1.0,1.0,486.0,759.0,0.0,0,3755.0,0
1310,1310,0.4872389018784108,0.5,1.0,1.0,462.0,501.0,0.0,0,4037.0,0
1311,1311,0.10198205604402555,0.1,1.0,1.0,459.0,717.0,0.0,0,3824.0,0
1312,1312,0.45169893579663556,0.5,1.0,1.0,353.0,711.0,0.0,0,3936.0,0
1313,1313,-0.4528513875664782,-0.5,1.0,0.0,353.0,857.0,0.0,0,3790.0,1
1314,1314,0.6290753213683703,0.6,1.0,1.0,302.0,686.0,0.0,0,4012.0,0
1315,1315,0.07108760718302198,0.1,0.0,0.0,251.0,618.0,0.0,1,4131.0,1
1316,1316,-0.890252989168264,-0.9,1.0,0.0,336.0,621.0,0.0,0,4043.0,1
1317,1317,-0.0808358052289253,-0.1,1.0,0.0,335.0,531.0,0.0,0,-866.0,1
1318,1318,-0.2544686135909613,-0.3,0.0,1.0,492.0,850.0,0.0,1,3658.0,0
1319,1319,0.8797920248689187,0.9,0.0,0.0,436.0,866.0,0.0,1,3698.0,1
1320,1320,-0.8590954089345605,-0.9,1.0,0.0,432.0,739.0,0.0,0,3829.0,1
1321,1321,0.590596454996816,0.6,1.0,1.0,464.0,671.0,0.0,0,3865.0,0
1322,1322,-0.8591797949938565,-0.9,0.0,1.0,358.0,897.0,0.0,1,3745.0,0
1323,1323,-0.07897455652769847,-0.1,1.0,0.0,312.0,583.0,0.0,0,4105.0,1
1324,1324,0.1265288063207476,0.1,1.0,1.0,325.0,756.0,0.0,0,3919.0,0
1325,1325,0.6002614062327959,0.6,0.0,0.0,326.0,514.0,0.0,1,4160.0,1
1326,1326,-0.23750636893273935,-0.2,0.0,1.0,301.0,684.0,0.0,1,4015.0,0
1327,1327,0.8679364419877394,0.9,1.0,1.0,314.0,515.0,0.0,0,4171.0,0
1328,1328,0.7593379665063361,0.8,0.0,0.0,348.0,836.0,0.0,1,-1184.0,1
1329,1329,0.2572557238710095,0.3,0.0,0.0,463.0,948.0,0.0,1,3589.0,1
1330,1330,0.46554256532760896,0.5,1.0,1.0,338.0,626.0,0.0,0,4036.0,0
1331,1331,-0.17030763701304374,-0.2,0.0,1.0,314.0,888.0,0.0,1,3798.0,0
1332,1332,-0.7846755257897966,-0.8,1.0,0.0,280.0,849.0,0.0,0,3871.0,1
1333,1333,-0.10510260261307536,-0.1,0.0,1.0,324.0,561.0,0.0,1,-825.0,0
1334,1334,-0.0813762565998769,-0.1,1.0,0.0,467.0,933.0,0.0,0,3600.0,1
1335,1335,-0.41277388256019504,-0.4,1.0,0.0,268.0,865.0,0.0,0,3867.0,1
1336,1336,-0.2047034781319761,-0.2,1.0,0.0,285.0,861.0,1.0,1,-1036.0,0
1337,1337,0.5843038129912114,0.6,1.0,1.0,346.0,962.0,0.0,0,3692.0,0
1338,1338,0.24149695749911226,0.2,1.0,1.0,346.0,928.0,1.0,1,-1054.0,1
1339,1339,-0.5283358107207938,-0.5,0.0,1.0,345.0,837.0,0.0,1,3818.0,0
1340,1340,-0.3049509859557129,-0.3,1.0,0.0,284.0,574.0,0.0,0,4142.0,1
1341,1341,-0.5348101894801096,-0.5,1.0,0.0,435.0,814.0,0.0,0,3751.0,1
1342,1342,-0.3269344386748837,-0.3,1.0,0.0,268.0,756.0,1.0,1,-924.0,0
1343,1343,-0.5113583225209848,-0.5,1.0,0.0,497.0,992.0,0.0,0,3511.0,1
1344,1344,0.24384360087731005,0.2,1.0,1.0,397.0,544.0,0.0,0,4059.0,0
1345,1345,-0.022575808816334697,-0.0,0.0,1.0,279.0,962.0,0.0,1,-1091.0,0
1346,1346,-0.6227350059337626,-0.6,1.0,0.0,321.0,539.0,0.0,0,4140.0,1
1347,1347,0.7648708779106231,0.8,1.0,1.0,380.0,589.0,1.0,1,-939.0,1
1348,1348,0.015377049071334414,0.0,0.0,0.0,335.0,806.0,0.0,1,-951.0,1
1349,1349,0.15820374753000987,0.2,0.0,0.0,332.0,789.0,0.0,1,3879.0,1
1350,1350,0.8167677059075852,0.8,1.0,1.0,423.0,996.0,0.0,0,3581.0,0
1351,1351,-0.20377170570350622,-0.2,1.0,0.0,425.0,841.0,0.0,0,3734.0,1
1352,1352,0.8067200102020257,0.8,0.0,0.0,291.0,767.0,0.0,1,3942.0,1
1353,1353,0.01576626889715671,0.0,0.0,0.0,358.0,946.0,0.0,1,3696.0,1
1354,1354,-0.47837399373004247,-0.5,0.0,1.0,484.0,879.0,0.0,1,3637.0,0
1355,1355,0.4648058683896089,0.5,0.0,0.0,322.0,924.0,0.0,1,-1206.0,1
1356,1356,-0.6384967020168133,-0.6,1.0,0.0,499.0,825.0,0.0,0,3676.0,1
1357,1357,-0.8868684193622111,-0.9,1.0,0.0,471.0,559.0,0.0,0,-1030.0,1
1358,1358,-0.044829537669551,-0.0,0.0,1.0,287.0,958.0,0.0,1,3755.0,0
1359,1359,0.11175083794240626,0.1,0.0,0.0,485.0,579.0,0.0,1,-544.0,1
1360,1360,-0.259344215149242,-0.3,1.0,0.0,405.0,685.0,1.0,1,-960.0,0
1361,1361,-0.7472429722613685,-0.7,1.0,0.0,308.0,899.0,0.0,0,3793.0,1
1362,1362,0.7215992960978931,0.7,0.0,0.0,494.0,962.0,1.0,0,-1456.0,0
1363,1363,-0.3389593474785211,-0.3,1.0,0.0,411.0,621.0,1.0,1,-1012.0,0
1364,1364,0.49483693143890484,0.5,1.0,1.0,421.0,561.0,0.0,0,4018.0,0
1365,1365,0.4816979020255344,0.5,1.0,1.0,259.0,597.0,0.0,0,4144.0,0
1366,1366,-0.6401841851737307,-0.6,1.0,0.0,260.0,591.0,0.0,0,4149.0,1
1367,1367,-0.2718958699071905,-0.3,0.0,1.0,376.0,932.0,0.0,1,3692.0,0
1368,1368,-0.3461301742692774,-0.3,1.0,0.0,477.0,866.0,0.0,0,3657.0,1
1369,1369,0.18418255064464828,0.2,0.0,0.0,358.0,615.0,1.0,0,-893.0,0
1370,1370,-0.4638079385279369,-0.5,0.0,1.0,391.0,660.0,0.0,1,3949.0,0
1371,1371,0.6791289700629218,0.7,0.0,0.0,493.0,872.0,0.0,1,-1335.0,1
1372,1372,0.2254987945145791,0.2,1.0,1.0,463.0,937.0,0.0,0,3600.0,0
1373,1373,0.6118614343310383,0.6,1.0,1.0,480.0,882.0,0.0,0,-1232.0,0
1374,1374,-0.4474201006648723,-0.4,1.0,0.0,456.0,700.0,1.0,1,-1136.0,0
1375,1375,-0.1267052970942144,-0.1,1.0,0.0,338.0,560.0,0.0,0,4102.0,1
1376,1376,-0.8251404632198105,-0.8,0.0,1.0,328.0,774.0,0.0,1,3898.0,0
1377,1377,0.18539085406874156,0.2,1.0,1.0,268.0,576.0,0.0,0,4156.0,0
1378,1378,-0.5020317283159549,-0.5,1.0,0.0,254.0,882.0,0.0,0,3864.0,1
1379,1379,0.42872573817554704,0.4,1.0,1.0,260.0,729.0,0.0,0,4011.0,0
1380,1380,-0.40985333452171313,-0.4,0.0,1.0,496.0,780.0,0.0,1,3724.0,0
1381,1381,0.42254437595657157,0.4,1.0,1.0,313.0,731.0,0.0,0,3956.0,0
1382,1382,0.6071245412788356,0.6,1.0,1.0,441.0,868.0,0.0,0,3691.0,0
1383,1383,0.23495748431630792,0.2,1.0,1.0,408.0,690.0,0.0,0,3902.0,0
1384,1384,0.3691264824214501,0.4,1.0,1.0,415.0,956.0,0.0,0,3629.0,0
1385,1385,-0.7591573028015166,-0.8,0.0,1.0,462.0,952.0,0.0,1,3586.0,0
1386,1386,0.000475890825186176,0.0,1.0,1.0,367.0,591.0,0.0,0,4042.0,0
1387,1387,-0.5353564580835022,-0.5,1.0,0.0,384.0,931.0,0.0,0,3685.0,1
1388,1388,0.03178641188375053,0.0,1.0,1.0,356.0,737.0,0.0,0,3907.0,0
1389,1389,0.1781319937089868,0.2,0.0,0.0,448.0,568.0,0.0,1,3984.0,1
1390,1390,-0.5202502593075664,-0.5,1.0,0.0,473.0,772.0,0.0,0,3755.0,1
1391,1391,-0.5610380626518405,-0.6,0.0,1.0,281.0,811.0,0.0,1,3908.0,0
1392,1392,0.013324770843480382,0.0,0.0,0.0,413.0,733.0,0.0,1,3854.0,1
1393,1393,0.6724620333177379,0.7,1.0,1.0,406.0,774.0,0.0,0,3820.0,0
1394,1394,0.7611216880889059,0.8,1.0,1.0,442.0,992.0,0.0,0,3566.0,0
1395,1395,0.37205026941749464,0.4,0.0,0.0,254.0,809.0,0.0,1,3937.0,1
1396,1396,0.8554083726405005,0.9,1.0,1.0,382.0,935.0,0.0,0,3683.0,0
1397,1397,-0.14963038774803394,-0.1,0.0,1.0,328.0,785.0,0.0,1,3887.0,0
1398,1398,-0.18082717615863042,-0.2,0.0,1.0,413.0,636.0,0.0,1,3951.0,0
1399,1399,0.3058393516765098,0.3,1.0,1.0,368.0,914.0,1.0,1,-1142.0,1
1400,1400,0.18476562957501896,0.2,1.0,1.0,296.0,641.0,0.0,0,4063.0,0
1401,1401,-0.028984094418414763,-0.0,1.0,0.0,400.0,691.0,0.0,0,3909.0,1
1402,1402,0.27577759003415425,0.3,0.0,0.0,357.0,571.0,0.0,1,4072.0,1
1403,1403,0.3856506468688229,0.4,1.0,1.0,359.0,855.0,0.0,0,3786.0,0
1404,1404,-0.6836978129277214,-0.7,0.0,1.0,420.0,944.0,0.0,1,3636.0,0
1405,1405,0.8343705696414826,0.8,1.0,1.0,250.0,778.0,0.0,0,3972.0,0
1406,1406,-0.8801428725601451,-0.9,0.0,1.0,283.0,680.0,0.0,1,4037.0,0
1407,1407,-0.732559835338953,-0.7,0.0,1.0,365.0,555.0,0.0,1,4080.0,0
1408,1408,-0.3428997396944663,-0.3,1.0,0.0,317.0,981.0,0.0,0,3702.0,1
1409,1409,-0.5292525311789534,-0.5,1.0,0.0,348.0,711.0,0.0,0,3941.0,1
1410,1410,-0.02614118381558772,-0.0,1.0,0.0,387.0,819.0,1.0,1,-1196.0,0
1411,1411,-0.41110621016656657,-0.4,1.0,0.0,476.0,640.0,0.0,0,-1046.0,1
1412,1412,-0.7847343201237292,-0.8,0.0,1.0,336.0,945.0,0.0,1,3719.0,0
1413,1413,-0.42543646365449955,-0.4,1.0,0.0,382.0,754.0,0.0,0,3864.0,1
1414,1414,-0.1311840186450216,-0.1,1.0,0.0,407.0,878.0,0.0,0,3715.0,1
1415,1415,-0.6691964857710302,-0.7,0.0,1.0,464.0,926.0,1.0,0,-680.0,1
1416,1416,0.3671890769603484,0.4,1.0,1.0,315.0,571.0,0.0,0,4114.0,0
1417,1417,0.8367235881261889,0.8,0.0,0.0,265.0,573.0,0.0,1,4162.0,1
1418,1418,-0.43258051283003746,-0.4,0.0,1.0,265.0,696.0,0.0,1,4039.0,0
1419,1419,0.11903631456104258,0.1,1.0,1.0,314.0,550.0,0.0,0,4136.0,0
1420,1420,-0.3954473349899461,-0.4,1.0,0.0,362.0,712.0,0.0,0,3926.0,1
1421,1421,0.664809307217661,0.7,1.0,1.0,429.0,610.0,0.0,0,3961.0,0
1422,1422,-0.23109006913977126,-0.2,0.0,1.0,451.0,856.0,1.0,0,-1037.0,1
1423,1423,-0.8392060364697133,-0.8,0.0,1.0,475.0,985.0,0.0,1,-1270.0,0
1424,1424,0.2622032402074036,0.3,1.0,1.0,450.0,837.0,0.0,0,-397.0,0
1425,1425,-0.7126579382886307,-0.7,0.0,1.0,293.0,974.0,0.0,1,3733.0,0
1426,1426,-0.15021550122148242,-0.2,1.0,0.0,459.0,896.0,0.0,0,3645.0,1
1427,1427,0.8552607051251365,0.9,1.0,1.0,438.0,568.0,0.0,0,3994.0,0
1428,1428,0.14627890069408644,0.1,0.0,0.0,287.0,686.0,0.0,1,4027.0,1
1429,1429,0.25582601663463433,0.3,0.0,0.0,343.0,566.0,0.0,1,4091.0,1
1430,1430,-0.03802333795506818,-0.0,1.0,0.0,390.0,993.0,0.0,0,3617.0,1
1431,1431,0.09727892632926372,0.1,1.0,1.0,354.0,821.0,0.0,0,-855.0,0
1432,1432,0.45291614893739685,0.5,1.0,1.0,455.0,911.0,0.0,0,3634.0,0
1433,1433,0.7480488435332352,0.7,1.0,1.0,271.0,746.0,0.0,0,3983.0,0
1434,1434,-0.7125911036880228,-0.7,0.0,1.0,400.0,640.0,0.0,1,3960.0,0
1435,1435,0.16827174222912233,0.2,0.0,0.0,318.0,528.0,0.0,1,4154.0,1
1436,1436,-0.45315021295330266,-0.5,1.0,0.0,360.0,744.0,0.0,0,3896.0,1
1437,1437,-0.661743555345673,-0.7,0.0,1.0,453.0,713.0,0.0,1,3834.0,0
1438,1438,-0.15458148940317706,-0.2,0.0,1.0,304.0,708.0,0.0,1,3988.0,0
1439,1439,-0.6070749449824935,-0.6,1.0,0.0,404.0,890.0,0.0,0,3706.0,1
1440,1440,-0.13848373492873145,-0.1,1.0,0.0,331.0,803.0,0.0,0,3866.0,1
1441,1441,0.19760132061306213,0.2,1.0,1.0,468.0,627.0,0.0,0,3905.0,0
1442,1442,0.8452271551781446,0.8,0.0,0.0,432.0,535.0,0.0,1,4033.0,1
1443,1443,0.807444780105672,0.8,0.0,0.0,403.0,798.0,0.0,1,3799.0,1
1444,1444,0.5099460569541941,0.5,1.0,1.0,389.0,616.0,0.0,0,3995.0,0
1445,1445,0.710537343743412,0.7,0.0,0.0,362.0,722.0,0.0,1,3916.0,1
1446,1446,0.037805661942454716,0.0,1.0,1.0,343.0,771.0,0.0,0,3886.0,0
1447,1447,-0.3707326569365159,-0.4,0.0,1.0,384.0,630.0,0.0,1,-944.0,0
1448,1448,-0.2992489851157668,-0.3,1.0,0.0,475.0,591.0,0.0,0,-886.0,1
1449,1449,-0.1683279230392215,-0.2,0.0,1.0,435.0,981.0,0.0,1,-1296.0,0
1450,1450,0.45971911305539226,0.5,1.0,1.0,468.0,914.0,0.0,0,3618.0,0
1451,1451,-0.7632162821716171,-0.8,0.0,1.0,483.0,579.0,1.0,0,-1002.0,1
1452,1452,0.19713443946479814,0.2,0.0,0.0,323.0,917.0,0.0,1,3760.0,1
1453,1453,0.7829154237515289,0.8,1.0,1.0,459.0,732.0,1.0,1,-1121.0,1
1454,1454,0.7678211127680107,0.8,1.0,1.0,372.0,551.0,0.0,0,-463.0,0
1455,1455,-0.4987968937367166,-0.5,1.0,0.0,370.0,614.0,0.0,0,-714.0,1
1456,1456,0.7425089644996324,0.7,0.0,0.0,438.0,527.0,0.0,1,4035.0,1
1457,1457,-0.8610735278470181,-0.9,0.0,1.0,416.0,916.0,0.0,1,3668.0,0
1458,1458,0.5161016057844724,0.5,0.0,0.0,297.0,972.0,1.0,0,-929.0,0
1459,1459,-0.260376469281957,-0.3,0.0,1.0,438.0,918.0,0.0,1,3644.0,0
1460,1460,0.010988248012950064,0.0,1.0,1.0,427.0,885.0,1.0,1,-1292.0,1
1461,1461,-0.4854226272117714,-0.5,0.0,1.0,463.0,829.0,0.0,1,3708.0,0
1462,1462,0.7049253716451679,0.7,1.0,1.0,334.0,702.0,0.0,0,-806.0,0
1463,1463,0.5634176583933236,0.6,0.0,0.0,360.0,646.0,0.0,1,3994.0,1
1464,1464,0.045867218686114763,0.0,1.0,1.0,296.0,894.0,0.0,0,3810.0,0
1465,1465,0.585893547431623,0.6,0.0,0.0,250.0,833.0,0.0,1,3917.0,1
1466,1466,0.43572479725276414,0.4,0.0,0.0,296.0,572.0,0.0,1,4132.0,1
1467,1467,-0.636051057742573,-0.6,1.0,0.0,262.0,639.0,0.0,0,4099.0,1
1468,1468,0.7206194086416576,0.7,1.0,1.0,351.0,749.0,0.0,0,3900.0,0
1469,1469,0.0022512273359222013,0.0,0.0,0.0,490.0,942.0,0.0,1,3568.0,1
