,trial,coherence,coherence_bin,green_side,correct_side,target_onset,checker_onset,decision,green_decision,decision_time,correct_decision
0,0,-0.3214141895534752,-0.3,0.0,1.0,495.0,894.0,1.0,0,241.0,1
1,1,0.165841101099094,0.2,1.0,1.0,305.0,682.0,1.0,1,1153.0,1
2,2,-0.6869028283166407,-0.7,1.0,0.0,477.0,675.0,0.0,0,148.0,1
3,3,0.6995789617505027,0.7,0.0,0.0,408.0,860.0,0.0,1,162.0,1
4,4,-0.15107602725561553,-0.2,1.0,0.0,361.0,684.0,0.0,0,335.0,1
5,5,-0.5000948070985889,-0.5,0.0,1.0,294.0,964.0,1.0,0,202.0,1
6,6,-0.7531009147710002,-0.8,0.0,1.0,348.0,881.0,1.0,0,-39.0,1
7,7,0.28876788749394955,0.3,1.0,1.0,281.0,751.0,1.0,1,438.0,1
8,8,-0.5149504115959406,-0.5,1.0,0.0,352.0,877.0,0.0,0,141.0,1
9,9,-0.09624014824118654,-0.1,1.0,0.0,354.0,627.0,0.0,0,509.0,1
10,10,0.813607062218176,0.8,1.0,1.0,255.0,742.0,1.0,1,233.0,1
11,11,0.635819208775778,0.6,1.0,1.0,369.0,635.0,1.0,1,256.0,1
12,12,-0.30925873140009896,-0.3,0.0,1.0,421.0,707.0,1.0,0,212.0,1
13,13,0.7975860915276115,0.8,1.0,1.0,309.0,542.0,1.0,1,519.0,1
14,14,-0.7625329978866986,-0.8,1.0,0.0,396.0,701.0,0.0,0,143.0,1
15,15,-0.25580223157232407,-0.3,1.0,0.0,397.0,571.0,0.0,0,202.0,1
16,16,-0.3845805373418595,-0.4,1.0,0.0,269.0,507.0,0.0,0,234.0,1
17,17,0.6967306125050173,0.7,1.0,1.0,364.0,933.0,1.0,1,183.0,1
18,18,-0.8108694427752767,-0.8,1.0,0.0,259.0,941.0,0.0,0,40.0,1
19,19,0.5408857855614208,0.5,0.0,0.0,264.0,508.0,0.0,1,208.0,1
20,20,0.40119930755664124,0.4,0.0,0.0,335.0,886.0,0.0,1,269.0,1
21,21,0.4042632863941714,0.4,1.0,1.0,295.0,558.0,1.0,1,717.0,1
22,22,0.7555380603328784,0.8,1.0,1.0,441.0,938.0,1.0,1,281.0,1
23,23,-0.38102562714913024,-0.4,1.0,0.0,289.0,931.0,0.0,0,110.0,1
24,24,0.024978889073800303,0.0,1.0,1.0,359.0,660.0,0.0,0,1981.0,0
25,25,0.16017531386117578,0.2,1.0,1.0,368.0,860.0,1.0,1,1372.0,1
26,26,-0.29155104663306053,-0.3,0.0,1.0,445.0,516.0,1.0,0,649.0,1
27,27,-0.24692781995947732,-0.2,0.0,1.0,427.0,878.0,1.0,0,265.0,1
28,28,-0.7263004432696851,-0.7,0.0,1.0,437.0,717.0,1.0,0,136.0,1
29,29,-0.8926317290927634,-0.9,0.0,1.0,339.0,833.0,1.0,0,98.0,1
30,30,0.244412235160005,0.2,0.0,0.0,281.0,740.0,0.0,1,519.0,1
31,31,-0.1352379877332267,-0.1,0.0,1.0,314.0,836.0,1.0,0,730.0,1
32,32,-0.43046053793583755,-0.4,1.0,0.0,279.0,565.0,0.0,0,226.0,1
33,33,-0.6079227361558823,-0.6,0.0,1.0,256.0,730.0,1.0,0,424.0,1
34,34,0.0926483191649673,0.1,0.0,0.0,261.0,514.0,0.0,1,605.0,1
35,35,0.8826376206186858,0.9,1.0,1.0,271.0,988.0,1.0,1,201.0,1
36,36,-0.38741972300689564,-0.4,0.0,1.0,339.0,842.0,1.0,0,589.0,1
37,37,-0.3474178573004293,-0.3,1.0,0.0,356.0,542.0,0.0,0,292.0,1
38,38,-0.7786053475827313,-0.8,1.0,0.0,454.0,938.0,0.0,0,158.0,1
39,39,0.453628873086218,0.5,1.0,1.0,438.0,668.0,1.0,1,564.0,1
40,40,-0.8020202298232725,-0.8,1.0,0.0,392.0,967.0,0.0,0,181.0,1
41,41,0.6624487146612538,0.7,1.0,1.0,263.0,788.0,1.0,1,189.0,1
42,42,-0.1074673244337071,-0.1,1.0,0.0,413.0,541.0,0.0,0,546.0,1
43,43,-0.17352782456653582,-0.2,1.0,0.0,327.0,600.0,0.0,0,423.0,1
44,44,0.7801724701736196,0.8,0.0,0.0,260.0,607.0,0.0,1,123.0,1
45,45,0.13809808599029083,0.1,0.0,0.0,368.0,696.0,0.0,1,186.0,1
46,46,-0.3305822803726721,-0.3,1.0,0.0,369.0,570.0,0.0,0,261.0,1
47,47,0.5590893070563164,0.6,0.0,0.0,340.0,618.0,0.0,1,252.0,1
48,48,-0.5819024410684368,-0.6,0.0,1.0,267.0,731.0,1.0,0,232.0,1
49,49,-0.09660048966801349,-0.1,1.0,0.0,279.0,991.0,0.0,0,220.0,1
50,50,-0.0752817307275554,-0.1,0.0,1.0,266.0,940.0,1.0,0,1784.0,1
51,51,0.8563742180693893,0.9,1.0,1.0,342.0,735.0,1.0,1,213.0,1
52,52,0.16820725242821533,0.2,1.0,1.0,250.0,760.0,1.0,1,780.0,1
53,53,0.4097765784392474,0.4,0.0,0.0,470.0,972.0,0.0,1,208.0,1
54,54,-0.7986591388608488,-0.8,0.0,1.0,389.0,913.0,1.0,0,118.0,1
55,55,0.4378873548756076,0.4,0.0,0.0,274.0,821.0,0.0,1,205.0,1
56,56,0.3092650402930003,0.3,1.0,1.0,262.0,944.0,1.0,1,584.0,1
57,57,-0.6598084123292396,-0.7,1.0,0.0,324.0,560.0,0.0,0,206.0,1
58,58,-0.17249638302607107,-0.2,0.0,1.0,408.0,544.0,1.0,0,818.0,1
59,59,0.8567375729901278,0.9,0.0,0.0,317.0,978.0,0.0,1,105.0,1
60,60,-0.7146900281139962,-0.7,1.0,0.0,269.0,690.0,0.0,0,151.0,1
61,61,-0.27225350592036823,-0.3,0.0,1.0,302.0,996.0,1.0,0,282.0,1
62,62,-0.31730202207410396,-0.3,0.0,1.0,497.0,698.0,1.0,0,245.0,1
63,63,-0.13025245751272252,-0.1,0.0,1.0,374.0,630.0,1.0,0,656.0,1
64,64,0.6989840146644278,0.7,1.0,1.0,451.0,576.0,1.0,1,213.0,1
65,65,0.32281655034648493,0.3,0.0,0.0,484.0,862.0,0.0,1,274.0,1
66,66,0.17893947346601802,0.2,1.0,1.0,363.0,598.0,1.0,1,359.0,1
67,67,0.11493637487667618,0.1,1.0,1.0,335.0,896.0,1.0,1,1769.0,1
68,68,0.47949820641262686,0.5,0.0,0.0,261.0,604.0,0.0,1,215.0,1
69,69,0.3345110256546918,0.3,1.0,1.0,452.0,971.0,1.0,1,407.0,1
70,70,-0.4486038424365328,-0.4,1.0,0.0,343.0,795.0,0.0,0,162.0,1
71,71,0.10420224062107397,0.1,1.0,1.0,284.0,724.0,1.0,1,882.0,1
72,72,-0.5953714311565068,-0.6,0.0,1.0,296.0,777.0,1.0,0,267.0,1
73,73,-0.8439678661099366,-0.8,1.0,0.0,450.0,780.0,0.0,0,200.0,1
74,74,-0.36875119440767323,-0.4,0.0,1.0,444.0,902.0,1.0,0,134.0,1
75,75,0.8105824351870966,0.8,0.0,0.0,372.0,535.0,0.0,1,223.0,1
76,76,-0.4507383494863757,-0.5,0.0,1.0,419.0,911.0,1.0,0,160.0,1
77,77,0.12003937042508095,0.1,0.0,0.0,409.0,782.0,0.0,1,439.0,1
78,78,-0.22027553702651848,-0.2,1.0,0.0,445.0,763.0,0.0,0,332.0,1
79,79,0.49202106431686443,0.5,0.0,0.0,436.0,700.0,0.0,1,284.0,1
80,80,0.36563784480197536,0.4,0.0,0.0,385.0,704.0,0.0,1,371.0,1
81,81,-0.013289576003464476,-0.0,0.0,1.0,438.0,994.0,0.0,1,1568.0,0
82,82,0.5170410250268617,0.5,1.0,1.0,268.0,749.0,1.0,1,463.0,1
83,83,0.5607448785234418,0.6,0.0,0.0,453.0,559.0,0.0,1,328.0,1
84,84,-0.4555072578969253,-0.5,1.0,0.0,497.0,872.0,0.0,0,221.0,1
85,85,0.050076327723703074,0.1,1.0,1.0,356.0,654.0,0.0,0,1990.0,0
86,86,-0.7055218673404594,-0.7,1.0,0.0,451.0,803.0,0.0,0,176.0,1
87,87,0.8976461471995202,0.9,1.0,1.0,255.0,537.0,1.0,1,278.0,1
88,88,0.8554805250963889,0.9,1.0,1.0,460.0,896.0,1.0,1,234.0,1
89,89,0.1860267544021802,0.2,1.0,1.0,403.0,968.0,1.0,1,759.0,1
90,90,-0.7593105669390315,-0.8,0.0,1.0,350.0,615.0,1.0,0,295.0,1
91,91,0.3573748218717331,0.4,0.0,0.0,335.0,691.0,0.0,1,344.0,1
92,92,0.36891468706028274,0.4,0.0,0.0,294.0,715.0,0.0,1,211.0,1
93,93,-0.8412270146889326,-0.8,0.0,1.0,277.0,808.0,1.0,0,145.0,1
94,94,-0.6027597643726927,-0.6,0.0,1.0,377.0,720.0,1.0,0,213.0,1
95,95,-0.2573273020124298,-0.3,0.0,1.0,375.0,758.0,1.0,0,277.0,1
96,96,0.6533217987705596,0.7,1.0,1.0,423.0,756.0,1.0,1,181.0,1
97,97,0.42629002072232713,0.4,0.0,0.0,396.0,535.0,0.0,1,209.0,1
98,98,0.6394678206909324,0.6,1.0,1.0,332.0,744.0,1.0,1,164.0,1
99,99,0.5823849862000751,0.6,1.0,1.0,333.0,811.0,1.0,1,236.0,1
100,100,-0.14097157819120876,-0.1,1.0,0.0,437.0,954.0,0.0,0,179.0,1
101,101,-0.8313233336570933,-0.8,1.0,0.0,323.0,887.0,0.0,0,190.0,1
102,102,0.670650802466353,0.7,1.0,1.0,416.0,990.0,1.0,1,364.0,1
103,103,-0.20030622060097603,-0.2,1.0,0.0,475.0,762.0,0.0,0,263.0,1
104,104,-0.8511092341629393,-0.9,0.0,1.0,264.0,845.0,1.0,0,81.0,1
105,105,0.5926706478356673,0.6,0.0,0.0,394.0,919.0,0.0,1,267.0,1
106,106,-0.35950720886534593,-0.4,1.0,0.0,303.0,934.0,0.0,0,283.0,1
107,107,0.03208700333097603,0.0,0.0,0.0,467.0,686.0,0.0,1,817.0,1
108,108,-0.5245477731670773,-0.5,0.0,1.0,385.0,610.0,1.0,0,165.0,1
109,109,0.8648873605707618,0.9,0.0,0.0,275.0,678.0,0.0,1,187.0,1
110,110,-0.20546677693569693,-0.2,0.0,1.0,250.0,789.0,1.0,0,951.0,1
111,111,0.8840025710370293,0.9,0.0,0.0,347.0,718.0,0.0,1,115.0,1
112,112,0.5402260880586537,0.5,0.0,0.0,312.0,573.0,0.0,1,315.0,1
113,113,0.3824207375675418,0.4,1.0,1.0,443.0,536.0,1.0,1,611.0,1
114,114,0.7778051897934367,0.8,0.0,0.0,494.0,999.0,0.0,1,177.0,1
115,115,-0.5624208922938855,-0.6,1.0,0.0,399.0,551.0,0.0,0,240.0,1
116,116,0.8093794533751805,0.8,1.0,1.0,486.0,839.0,1.0,1,355.0,1
117,117,0.1675382031074405,0.2,0.0,0.0,342.0,631.0,0.0,1,237.0,1
118,118,0.8120498616379334,0.8,1.0,1.0,391.0,772.0,1.0,1,297.0,1
119,119,0.6196201677984959,0.6,0.0,0.0,320.0,850.0,0.0,1,290.0,1
120,120,0.7254636000793669,0.7,0.0,0.0,444.0,649.0,0.0,1,217.0,1
121,121,0.8758835170707665,0.9,1.0,1.0,346.0,994.0,1.0,1,130.0,1
122,122,0.2915060933153616,0.3,0.0,0.0,417.0,818.0,0.0,1,125.0,1
123,123,-0.5179804051621306,-0.5,1.0,0.0,421.0,823.0,0.0,0,166.0,1
124,124,0.5128738058335841,0.5,1.0,1.0,328.0,550.0,1.0,1,422.0,1
125,125,-0.5439096532890272,-0.5,0.0,1.0,258.0,758.0,1.0,0,384.0,1
126,126,-0.16904925257937375,-0.2,0.0,1.0,492.0,641.0,1.0,0,887.0,1
127,127,-0.32078626802780696,-0.3,1.0,0.0,450.0,834.0,0.0,0,116.0,1
128,128,-0.7684274723546799,-0.8,0.0,1.0,257.0,986.0,1.0,0,67.0,1
129,129,0.28719090285386406,0.3,0.0,0.0,468.0,662.0,0.0,1,200.0,1
130,130,-0.5636274274857971,-0.6,1.0,0.0,336.0,870.0,0.0,0,104.0,1
131,131,0.5388454334570044,0.5,0.0,0.0,306.0,674.0,0.0,1,170.0,1
132,132,0.6830104626730885,0.7,1.0,1.0,390.0,742.0,1.0,1,288.0,1
133,133,-0.8718257579341345,-0.9,1.0,0.0,430.0,946.0,0.0,0,204.0,1
134,134,-0.41718052993074634,-0.4,1.0,0.0,342.0,595.0,0.0,0,233.0,1
135,135,-0.29608245424255764,-0.3,0.0,1.0,401.0,654.0,1.0,0,235.0,1
136,136,-0.11680674565957372,-0.1,1.0,0.0,450.0,510.0,0.0,0,170.0,1
137,137,0.4096618463028042,0.4,0.0,0.0,428.0,674.0,0.0,1,168.0,1
138,138,-0.581701496695055,-0.6,1.0,0.0,496.0,895.0,0.0,0,149.0,1
139,139,-0.7986606983313028,-0.8,1.0,0.0,388.0,831.0,0.0,0,141.0,1
140,140,-0.4610630743024064,-0.5,0.0,1.0,292.0,776.0,1.0,0,252.0,1
141,141,0.36015968755549654,0.4,1.0,1.0,428.0,713.0,1.0,1,729.0,1
142,142,-0.38210359412848305,-0.4,0.0,1.0,414.0,674.0,1.0,0,242.0,1
143,143,-0.5027468956869678,-0.5,1.0,0.0,410.0,653.0,0.0,0,197.0,1
144,144,-0.8729769861295869,-0.9,1.0,0.0,455.0,653.0,0.0,0,232.0,1
145,145,0.06776799113633714,0.1,0.0,0.0,471.0,648.0,0.0,1,531.0,1
146,146,0.3411311342595523,0.3,1.0,1.0,417.0,784.0,1.0,1,649.0,1
147,147,-0.10850582991594282,-0.1,0.0,1.0,484.0,598.0,1.0,0,918.0,1
148,148,-0.77351661735124,-0.8,1.0,0.0,426.0,530.0,0.0,0,244.0,1
149,149,0.1506545027848739,0.2,1.0,1.0,330.0,804.0,0.0,0,1866.0,0
150,150,-0.6593909081642271,-0.7,0.0,1.0,266.0,834.0,1.0,0,110.0,1
151,151,-0.6794798555084178,-0.7,0.0,1.0,276.0,578.0,1.0,0,246.0,1
152,152,0.14791830533059358,0.1,0.0,0.0,256.0,979.0,0.0,1,495.0,1
153,153,0.8380224090785892,0.8,0.0,0.0,322.0,991.0,0.0,1,197.0,1
154,154,-0.66555787740192,-0.7,1.0,0.0,275.0,708.0,0.0,0,267.0,1
155,155,0.383407657522408,0.4,0.0,0.0,381.0,983.0,0.0,1,186.0,1
156,156,0.04002793042843633,0.0,0.0,0.0,252.0,572.0,0.0,1,896.0,1
157,157,0.5229466322731543,0.5,0.0,0.0,336.0,831.0,0.0,1,213.0,1
158,158,-0.21229876297789063,-0.2,0.0,1.0,433.0,833.0,1.0,0,584.0,1
159,159,0.5547802460117749,0.6,0.0,0.0,359.0,964.0,0.0,1,227.0,1
160,160,0.4383012458972192,0.4,0.0,0.0,287.0,584.0,0.0,1,339.0,1
161,161,-0.8787221828469719,-0.9,1.0,0.0,292.0,765.0,0.0,0,263.0,1
162,162,-0.5228294109357458,-0.5,0.0,1.0,250.0,850.0,1.0,0,330.0,1
163,163,-0.11694941293404715,-0.1,0.0,1.0,448.0,520.0,1.0,0,982.0,1
164,164,0.4389374863878851,0.4,0.0,0.0,411.0,997.0,0.0,1,112.0,1
165,165,-0.7696756425295235,-0.8,0.0,1.0,313.0,721.0,1.0,0,256.0,1
166,166,-0.5909002341462116,-0.6,1.0,0.0,457.0,899.0,0.0,0,134.0,1
167,167,-0.768876105403876,-0.8,0.0,1.0,498.0,820.0,1.0,0,142.0,1
168,168,0.8374220798780044,0.8,0.0,0.0,293.0,509.0,0.0,1,228.0,1
169,169,-0.7596890063041093,-0.8,1.0,0.0,389.0,616.0,0.0,0,85.0,1
170,170,-0.8914999656200209,-0.9,1.0,0.0,299.0,505.0,0.0,0,216.0,1
171,171,0.5646284639965765,0.6,1.0,1.0,361.0,820.0,1.0,1,279.0,1
172,172,0.5512826605214057,0.6,0.0,0.0,405.0,816.0,0.0,1,319.0,1
173,173,0.16897211295907633,0.2,0.0,0.0,350.0,858.0,0.0,1,232.0,1
174,174,-0.4998938755247936,-0.5,0.0,1.0,404.0,998.0,1.0,0,158.0,1
175,175,0.42467170122371367,0.4,1.0,1.0,275.0,610.0,1.0,1,375.0,1
176,176,-0.0024806578217942965,-0.0,0.0,1.0,348.0,929.0,1.0,0,1723.0,1
177,177,-0.7870806431588069,-0.8,1.0,0.0,324.0,576.0,0.0,0,210.0,1
178,178,-0.5309768043406412,-0.5,0.0,1.0,401.0,974.0,1.0,0,145.0,1
179,179,0.08434718802265784,0.1,0.0,0.0,355.0,725.0,0.0,1,1200.0,1
180,180,0.04600029440515663,0.0,1.0,1.0,395.0,952.0,1.0,1,1653.0,1
181,181,0.5516675284631297,0.6,0.0,0.0,411.0,603.0,0.0,1,316.0,1
182,182,-0.6108355352090473,-0.6,1.0,0.0,339.0,665.0,0.0,0,166.0,1
183,183,-0.5083420339274349,-0.5,0.0,1.0,340.0,674.0,1.0,0,216.0,1
184,184,0.35741983297665836,0.4,1.0,1.0,372.0,921.0,1.0,1,257.0,1
185,185,0.23197010715862054,0.2,1.0,1.0,298.0,842.0,1.0,1,730.0,1
186,186,0.4983832666302691,0.5,0.0,0.0,357.0,942.0,0.0,1,121.0,1
187,187,-0.4703433845146921,-0.5,0.0,1.0,414.0,540.0,1.0,0,276.0,1
188,188,0.07691739746034931,0.1,0.0,0.0,263.0,710.0,0.0,1,617.0,1
189,189,0.5306303517061589,0.5,1.0,1.0,494.0,534.0,1.0,1,322.0,1
190,190,0.550082296994706,0.6,1.0,1.0,377.0,855.0,1.0,1,298.0,1
191,191,-0.17490515271107332,-0.2,0.0,1.0,423.0,567.0,1.0,0,560.0,1
192,192,-0.7367307692257932,-0.7,0.0,1.0,443.0,713.0,1.0,0,244.0,1
193,193,0.29209435244088355,0.3,1.0,1.0,478.0,706.0,1.0,1,636.0,1
194,194,-0.47799244663945994,-0.5,1.0,0.0,426.0,850.0,0.0,0,124.0,1
195,195,0.7397232983853329,0.7,0.0,0.0,439.0,965.0,0.0,1,136.0,1
196,196,0.813712758593312,0.8,1.0,1.0,352.0,960.0,1.0,1,168.0,1
197,197,-0.543756033089783,-0.5,1.0,0.0,309.0,804.0,0.0,0,217.0,1
198,198,-0.7242673244287935,-0.7,1.0,0.0,344.0,538.0,0.0,0,238.0,1
199,199,0.7538978670455226,0.8,1.0,1.0,406.0,872.0,1.0,1,202.0,1
200,200,0.7767067146309828,0.8,0.0,0.0,345.0,671.0,0.0,1,154.0,1
201,201,0.5338527364685496,0.5,0.0,0.0,396.0,720.0,0.0,1,194.0,1
202,202,0.24994386698640347,0.2,0.0,0.0,292.0,976.0,0.0,1,192.0,1
203,203,0.24261343728892515,0.2,0.0,0.0,360.0,811.0,0.0,1,369.0,1
204,204,-0.8937039422788895,-0.9,1.0,0.0,437.0,708.0,0.0,0,175.0,1
205,205,0.43737628938213524,0.4,1.0,1.0,455.0,533.0,1.0,1,622.0,1
206,206,-0.5996990879611943,-0.6,0.0,1.0,254.0,671.0,1.0,0,365.0,1
207,207,-0.1208035310744554,-0.1,1.0,0.0,382.0,706.0,0.0,0,752.0,1
208,208,0.2049360667998118,0.2,0.0,0.0,446.0,787.0,0.0,1,477.0,1
209,209,0.6596486895159898,0.7,1.0,1.0,435.0,569.0,1.0,1,456.0,1
210,210,-0.6443559495965173,-0.6,1.0,0.0,493.0,710.0,0.0,0,117.0,1
211,211,-0.05328534216694658,-0.1,0.0,1.0,357.0,562.0,1.0,0,771.0,1
212,212,0.1954479562304089,0.2,0.0,0.0,420.0,877.0,0.0,1,83.0,1
213,213,0.17543206992187288,0.2,0.0,0.0,452.0,564.0,0.0,1,544.0,1
214,214,0.805428714836207,0.8,0.0,0.0,280.0,932.0,0.0,1,138.0,1
215,215,0.37422498543431326,0.4,0.0,0.0,388.0,824.0,0.0,1,138.0,1
216,216,-0.06503075278476611,-0.1,1.0,0.0,461.0,994.0,0.0,0,375.0,1
217,217,-0.3104220998128201,-0.3,1.0,0.0,314.0,676.0,0.0,0,350.0,1
218,218,-0.7910216723611776,-0.8,0.0,1.0,496.0,858.0,1.0,0,146.0,1
219,219,-0.15776354738483644,-0.2,0.0,1.0,393.0,557.0,1.0,0,590.0,1
220,220,-0.07966031270928697,-0.1,1.0,0.0,481.0,504.0,0.0,0,775.0,1
221,221,-0.3687537288517728,-0.4,0.0,1.0,499.0,925.0,1.0,0,196.0,1
222,222,0.6784674909698144,0.7,0.0,0.0,418.0,886.0,0.0,1,136.0,1
223,223,0.870391286435329,0.9,1.0,1.0,429.0,787.0,1.0,1,384.0,1
224,224,-0.6254826492640397,-0.6,0.0,1.0,462.0,687.0,1.0,0,351.0,1
225,225,-0.6832354696959445,-0.7,1.0,0.0,314.0,938.0,0.0,0,158.0,1
226,226,-0.7250382236151235,-0.7,1.0,0.0,351.0,587.0,0.0,0,272.0,1
227,227,0.03593156069764769,0.0,0.0,0.0,299.0,637.0,0.0,1,564.0,1
228,228,0.3909688743650287,0.4,0.0,0.0,366.0,715.0,0.0,1,199.0,1
229,229,0.14419160102695072,0.1,1.0,1.0,285.0,868.0,1.0,1,1847.0,1
230,230,-0.003787670613295102,-0.0,0.0,1.0,373.0,602.0,0.0,1,1405.0,0
231,231,0.24662493866041435,0.2,1.0,1.0,254.0,787.0,1.0,1,499.0,1
232,232,0.8669313624837592,0.9,1.0,1.0,255.0,731.0,1.0,1,244.0,1
233,233,0.11530056117667253,0.1,0.0,0.0,398.0,706.0,0.0,1,316.0,1
234,234,-0.6125012038884186,-0.6,1.0,0.0,426.0,506.0,0.0,0,208.0,1
235,235,0.6598896325778364,0.7,0.0,0.0,453.0,837.0,0.0,1,190.0,1
236,236,0.6580272951964766,0.7,1.0,1.0,455.0,979.0,1.0,1,326.0,1
237,237,-0.342599050960264,-0.3,0.0,1.0,379.0,506.0,1.0,0,275.0,1
238,238,0.056852495947511184,0.1,0.0,0.0,261.0,582.0,0.0,1,797.0,1
239,239,-0.4587932164110625,-0.5,0.0,1.0,328.0,619.0,1.0,0,273.0,1
240,240,0.3624687051631844,0.4,1.0,1.0,286.0,862.0,1.0,1,252.0,1
241,241,-0.34642654873510703,-0.3,1.0,0.0,445.0,572.0,0.0,0,303.0,1
242,242,-0.5518542671214937,-0.6,1.0,0.0,499.0,978.0,0.0,0,163.0,1
243,243,-0.8850558514320142,-0.9,0.0,1.0,330.0,925.0,1.0,0,155.0,1
244,244,-0.18184683600451923,-0.2,0.0,1.0,320.0,802.0,1.0,0,448.0,1
245,245,0.15978283665829462,0.2,0.0,0.0,327.0,765.0,0.0,1,528.0,1
246,246,0.4182808184179089,0.4,1.0,1.0,269.0,669.0,1.0,1,542.0,1
247,247,-0.3686018282552833,-0.4,1.0,0.0,342.0,784.0,0.0,0,234.0,1
248,248,0.8863481379442525,0.9,0.0,0.0,457.0,605.0,0.0,1,168.0,1
249,249,-0.01207939078653908,-0.0,1.0,0.0,389.0,959.0,0.0,0,132.0,1
250,250,0.3006946503543936,0.3,1.0,1.0,395.0,531.0,1.0,1,644.0,1
251,251,0.6763792841823416,0.7,0.0,0.0,382.0,716.0,0.0,1,132.0,1
252,252,0.8847575089522318,0.9,0.0,0.0,431.0,762.0,0.0,1,147.0,1
253,253,0.7193742182663029,0.7,1.0,1.0,390.0,603.0,1.0,1,327.0,1
254,254,-0.1056849548064498,-0.1,1.0,0.0,494.0,839.0,0.0,0,487.0,1
255,255,0.6459243129375841,0.6,0.0,0.0,450.0,928.0,0.0,1,62.0,1
256,256,-0.8857272478160453,-0.9,1.0,0.0,413.0,852.0,0.0,0,135.0,1
257,257,0.06919464425815225,0.1,1.0,1.0,299.0,614.0,1.0,1,2087.0,1
258,258,-0.23296907033983616,-0.2,1.0,0.0,334.0,727.0,0.0,0,249.0,1
259,259,0.8420213053361488,0.8,1.0,1.0,482.0,554.0,1.0,1,1204.0,1
260,260,-0.6488431882415049,-0.6,1.0,0.0,348.0,978.0,0.0,0,114.0,1
261,261,0.5233407866773602,0.5,0.0,0.0,313.0,558.0,0.0,1,389.0,1
262,262,-0.2614893444417722,-0.3,0.0,1.0,251.0,700.0,1.0,0,269.0,1
263,263,-0.44089180767954156,-0.4,1.0,0.0,307.0,784.0,0.0,0,259.0,1
264,264,0.6073815021615959,0.6,0.0,0.0,498.0,548.0,0.0,1,234.0,1
265,265,-0.599850719770272,-0.6,0.0,1.0,270.0,756.0,1.0,0,224.0,1
266,266,0.8338105090090521,0.8,1.0,1.0,444.0,860.0,1.0,1,236.0,1
267,267,0.35023082879970124,0.4,1.0,1.0,360.0,548.0,1.0,1,932.0,1
268,268,0.13256137997981365,0.1,0.0,0.0,385.0,694.0,0.0,1,791.0,1
269,269,0.652227158915973,0.7,1.0,1.0,320.0,587.0,1.0,1,463.0,1
270,270,0.02536557920741389,0.0,0.0,0.0,339.0,791.0,0.0,1,550.0,1
271,271,0.24948969837860713,0.2,1.0,1.0,339.0,544.0,1.0,1,877.0,1
272,272,-0.7207991178768072,-0.7,0.0,1.0,309.0,515.0,1.0,0,136.0,1
273,273,-0.8862641567474707,-0.9,0.0,1.0,491.0,537.0,1.0,0,142.0,1
274,274,-0.006338857905011208,-0.0,0.0,1.0,306.0,950.0,1.0,0,1284.0,1
275,275,-0.2093329265712266,-0.2,0.0,1.0,383.0,517.0,1.0,0,500.0,1
276,276,0.2797776465904752,0.3,0.0,0.0,345.0,529.0,0.0,1,436.0,1
277,277,-0.5071950483972518,-0.5,0.0,1.0,376.0,583.0,1.0,0,311.0,1
278,278,-0.5756651021478595,-0.6,1.0,0.0,266.0,512.0,0.0,0,332.0,1
279,279,0.005734091171897382,0.0,1.0,1.0,457.0,978.0,0.0,0,595.0,0
280,280,-0.03873548090190826,-0.0,1.0,0.0,420.0,695.0,0.0,0,265.0,1
281,281,-0.5317528102236444,-0.5,0.0,1.0,349.0,823.0,1.0,0,138.0,1
282,282,-0.46271314950948833,-0.5,1.0,0.0,339.0,529.0,0.0,0,202.0,1
283,283,-0.8066151220283831,-0.8,1.0,0.0,307.0,645.0,0.0,0,148.0,1
284,284,0.34379980344839944,0.3,0.0,0.0,316.0,772.0,0.0,1,192.0,1
285,285,0.2561128687023667,0.3,1.0,1.0,418.0,547.0,1.0,1,555.0,1
286,286,0.6379585133177351,0.6,1.0,1.0,449.0,784.0,1.0,1,227.0,1
287,287,-0.22168673753013168,-0.2,1.0,0.0,459.0,890.0,0.0,0,381.0,1
288,288,-0.7707247890263341,-0.8,1.0,0.0,378.0,562.0,0.0,0,290.0,1
289,289,-0.8457837394702677,-0.8,1.0,0.0,257.0,933.0,0.0,0,-180.0,1
290,290,-0.287013697998066,-0.3,0.0,1.0,352.0,790.0,1.0,0,388.0,1
291,291,-0.5110034514764996,-0.5,0.0,1.0,280.0,795.0,1.0,0,145.0,1
292,292,-0.20590016651216503,-0.2,1.0,0.0,499.0,639.0,0.0,0,322.0,1
293,293,0.27221476070061346,0.3,1.0,1.0,330.0,674.0,1.0,1,676.0,1
294,294,0.85678928504744,0.9,0.0,0.0,498.0,691.0,0.0,1,171.0,1
295,295,0.3817690705726148,0.4,0.0,0.0,434.0,645.0,0.0,1,381.0,1
296,296,0.20281431492923596,0.2,1.0,1.0,390.0,951.0,1.0,1,279.0,1
297,297,-0.22337628086461492,-0.2,1.0,0.0,481.0,861.0,0.0,0,318.0,1
298,298,-0.6300498415665385,-0.6,0.0,1.0,411.0,619.0,1.0,0,260.0,1
299,299,-0.7935229410426351,-0.8,0.0,1.0,395.0,667.0,1.0,0,178.0,1
300,300,-0.5109667699381091,-0.5,1.0,0.0,428.0,544.0,0.0,0,558.0,1
301,301,0.6037653214377979,0.6,1.0,1.0,451.0,736.0,1.0,1,243.0,1
302,302,0.08018397999742477,0.1,1.0,1.0,310.0,736.0,1.0,1,1324.0,1
303,303,0.13759530349107651,0.1,0.0,0.0,335.0,855.0,0.0,1,170.0,1
304,304,0.24653400972661432,0.2,0.0,0.0,408.0,906.0,0.0,1,236.0,1
305,305,0.7381540598430457,0.7,0.0,0.0,375.0,525.0,0.0,1,220.0,1
306,306,-0.0434078686918794,-0.0,1.0,0.0,385.0,588.0,0.0,0,527.0,1
307,307,0.06962168283545445,0.1,0.0,0.0,301.0,850.0,0.0,1,339.0,1
308,308,0.5098684807225397,0.5,0.0,0.0,479.0,829.0,0.0,1,242.0,1
309,309,-0.2506836965045405,-0.3,0.0,1.0,424.0,892.0,1.0,0,334.0,1
310,310,0.01999745121793972,0.0,0.0,0.0,405.0,598.0,0.0,1,1207.0,1
311,311,-0.7254470728601139,-0.7,1.0,0.0,297.0,567.0,0.0,0,226.0,1
312,312,-0.8441812803460207,-0.8,1.0,0.0,497.0,922.0,0.0,0,141.0,1
313,313,-0.5448265959657754,-0.5,1.0,0.0,444.0,988.0,0.0,0,288.0,1
314,314,-0.0031277409366513576,-0.0,1.0,0.0,362.0,731.0,0.0,0,417.0,1
315,315,-0.40270335781178673,-0.4,0.0,1.0,292.0,919.0,1.0,0,299.0,1
316,316,0.6290533682835865,0.6,0.0,0.0,285.0,565.0,0.0,1,230.0,1
317,317,-0.7981343983757043,-0.8,0.0,1.0,268.0,683.0,1.0,0,179.0,1
318,318,-0.4728519141404254,-0.5,0.0,1.0,398.0,749.0,1.0,0,303.0,1
319,319,0.8173405719201522,0.8,0.0,0.0,307.0,904.0,0.0,1,29.0,1
320,320,0.46229818377762066,0.5,1.0,1.0,493.0,738.0,1.0,1,379.0,1
321,321,-0.049172792944219834,-0.0,0.0,1.0,414.0,863.0,1.0,0,1173.0,1
322,322,0.2639225462323779,0.3,0.0,0.0,339.0,591.0,0.0,1,280.0,1
323,323,0.6608881739956075,0.7,1.0,1.0,332.0,778.0,1.0,1,200.0,1
324,324,0.33223879986813787,0.3,1.0,1.0,361.0,888.0,1.0,1,241.0,1
325,325,0.5061281334820505,0.5,0.0,0.0,434.0,867.0,0.0,1,179.0,1
326,326,0.7721006035957522,0.8,0.0,0.0,365.0,643.0,0.0,1,232.0,1
327,327,0.28689059341697687,0.3,0.0,0.0,479.0,669.0,0.0,1,262.0,1
328,328,0.16485862283674113,0.2,1.0,1.0,261.0,774.0,1.0,1,545.0,1
329,329,-0.23554276987127565,-0.2,1.0,0.0,335.0,829.0,0.0,0,176.0,1
330,330,-0.15610597271061,-0.2,1.0,0.0,384.0,646.0,0.0,0,520.0,1
331,331,-0.1500001820042287,-0.2,0.0,1.0,251.0,966.0,1.0,0,523.0,1
332,332,0.03034852486718631,0.0,0.0,0.0,333.0,784.0,0.0,1,1203.0,1
333,333,-0.1371142123197634,-0.1,1.0,0.0,466.0,820.0,0.0,0,244.0,1
334,334,-0.7913598320535774,-0.8,1.0,0.0,365.0,806.0,0.0,0,189.0,1
335,335,-0.28123702060359934,-0.3,1.0,0.0,298.0,676.0,0.0,0,446.0,1
336,336,0.742205342804454,0.7,1.0,1.0,257.0,779.0,1.0,1,264.0,1
337,337,-0.13923192964108078,-0.1,1.0,0.0,489.0,794.0,0.0,0,427.0,1
338,338,0.4212084182470691,0.4,0.0,0.0,478.0,932.0,0.0,1,350.0,1
339,339,-0.13071568434847836,-0.1,0.0,1.0,455.0,905.0,1.0,0,640.0,1
340,340,-0.18512891358354122,-0.2,0.0,1.0,352.0,890.0,1.0,0,288.0,1
341,341,-0.8023657434754878,-0.8,0.0,1.0,291.0,955.0,1.0,0,154.0,1
342,342,-0.47270836456404247,-0.5,0.0,1.0,461.0,618.0,1.0,0,331.0,1
343,343,0.3901595846921323,0.4,1.0,1.0,380.0,686.0,1.0,1,364.0,1
344,344,-0.055212990641355764,-0.1,1.0,0.0,449.0,715.0,0.0,0,596.0,1
345,345,-0.6654603432692751,-0.7,1.0,0.0,277.0,575.0,0.0,0,188.0,1
346,346,0.25012114863037815,0.3,0.0,0.0,290.0,765.0,0.0,1,415.0,1
347,347,0.44998651441577764,0.4,0.0,0.0,306.0,613.0,0.0,1,361.0,1
348,348,0.08511358266053304,0.1,1.0,1.0,497.0,574.0,1.0,1,1709.0,1
349,349,0.7690568787694084,0.8,1.0,1.0,459.0,919.0,1.0,1,192.0,1
350,350,0.8084633480112279,0.8,1.0,1.0,440.0,655.0,1.0,1,225.0,1
351,351,-0.6905241432151701,-0.7,1.0,0.0,438.0,662.0,0.0,0,260.0,1
352,352,0.10629945789001816,0.1,1.0,1.0,282.0,636.0,1.0,1,2082.0,1
353,353,-0.01727145194331836,-0.0,0.0,1.0,316.0,710.0,0.0,1,1974.0,0
354,354,0.42793412935265185,0.4,0.0,0.0,442.0,804.0,0.0,1,344.0,1
355,355,-0.7654908746584652,-0.8,1.0,0.0,302.0,785.0,0.0,0,243.0,1
356,356,-0.17838083629980395,-0.2,1.0,0.0,384.0,657.0,0.0,0,689.0,1
357,357,-0.08403959392621696,-0.1,1.0,0.0,480.0,628.0,0.0,0,902.0,1
358,358,0.21070545211634661,0.2,0.0,0.0,375.0,843.0,0.0,1,92.0,1
359,359,0.8842278676068803,0.9,1.0,1.0,348.0,549.0,1.0,1,483.0,1
360,360,-0.19172705055330763,-0.2,1.0,0.0,420.0,618.0,0.0,0,282.0,1
361,361,0.8452811995742332,0.8,1.0,1.0,315.0,967.0,1.0,1,198.0,1
362,362,0.2823200035331347,0.3,1.0,1.0,297.0,517.0,1.0,1,1176.0,1
363,363,0.35038754348862466,0.4,1.0,1.0,365.0,842.0,1.0,1,553.0,1
364,364,-0.040194896124607804,-0.0,1.0,0.0,271.0,723.0,0.0,0,606.0,1
365,365,0.18000992764213064,0.2,0.0,0.0,296.0,826.0,0.0,1,188.0,1
366,366,0.6162014966406121,0.6,0.0,0.0,356.0,745.0,0.0,1,209.0,1
367,367,0.2783272854271136,0.3,1.0,1.0,407.0,977.0,1.0,1,346.0,1
368,368,-0.03300631982352864,-0.0,1.0,0.0,466.0,592.0,0.0,0,592.0,1
369,369,0.5505922595193523,0.6,0.0,0.0,413.0,609.0,0.0,1,208.0,1
370,370,-0.29528627003180974,-0.3,0.0,1.0,259.0,525.0,1.0,0,666.0,1
371,371,-0.4057856499612921,-0.4,1.0,0.0,259.0,789.0,0.0,0,332.0,1
372,372,-0.8826281905056304,-0.9,0.0,1.0,408.0,989.0,1.0,0,133.0,1
373,373,-0.577602246730052,-0.6,0.0,1.0,278.0,892.0,1.0,0,390.0,1
374,374,-0.6860640019492796,-0.7,0.0,1.0,278.0,671.0,1.0,0,401.0,1
375,375,-0.5666925486419236,-0.6,0.0,1.0,398.0,501.0,1.0,0,391.0,1
376,376,0.5402569184014424,0.5,0.0,0.0,369.0,721.0,0.0,1,160.0,1
377,377,-0.4927846830547671,-0.5,0.0,1.0,294.0,714.0,1.0,0,322.0,1
378,378,0.6190839813041437,0.6,0.0,0.0,493.0,780.0,0.0,1,187.0,1
379,379,-0.4693495477968939,-0.5,1.0,0.0,418.0,808.0,0.0,0,234.0,1
380,380,-0.3751179020240615,-0.4,0.0,1.0,374.0,686.0,1.0,0,320.0,1
381,381,0.5663080138893951,0.6,1.0,1.0,301.0,686.0,1.0,1,323.0,1
382,382,-0.0750420208224658,-0.1,0.0,1.0,360.0,689.0,1.0,0,1951.0,1
383,383,-0.3086905032605721,-0.3,0.0,1.0,369.0,929.0,1.0,0,302.0,1
384,384,0.5424336305468488,0.5,0.0,0.0,482.0,714.0,0.0,1,164.0,1
385,385,-0.7855582035242346,-0.8,1.0,0.0,444.0,855.0,0.0,0,151.0,1
386,386,0.19241004770370507,0.2,0.0,0.0,284.0,781.0,0.0,1,245.0,1
387,387,0.24481900197069206,0.2,1.0,1.0,304.0,959.0,1.0,1,597.0,1
388,388,-0.25283628579915984,-0.3,0.0,1.0,256.0,984.0,1.0,0,650.0,1
389,389,-0.7183208937895568,-0.7,1.0,0.0,350.0,788.0,0.0,0,222.0,1
390,390,-0.09192351013733702,-0.1,0.0,1.0,352.0,901.0,1.0,0,737.0,1
391,391,-0.3950325875210752,-0.4,1.0,0.0,415.0,522.0,0.0,0,213.0,1
392,392,0.3708645759194068,0.4,0.0,0.0,401.0,549.0,0.0,1,250.0,1
393,393,0.12158831128895342,0.1,0.0,0.0,382.0,607.0,0.0,1,721.0,1
394,394,-0.7965785819122523,-0.8,0.0,1.0,321.0,527.0,1.0,0,262.0,1
395,395,0.4948690190792949,0.5,0.0,0.0,479.0,927.0,0.0,1,214.0,1
396,396,-0.3995699552645354,-0.4,1.0,0.0,276.0,699.0,0.0,0,255.0,1
397,397,0.6105782111633157,0.6,1.0,1.0,376.0,669.0,1.0,1,285.0,1
398,398,0.12998779169885666,0.1,0.0,0.0,432.0,518.0,0.0,1,580.0,1
399,399,0.02001920316363559,0.0,1.0,1.0,332.0,886.0,0.0,0,702.0,0
400,400,0.2970959481322598,0.3,0.0,0.0,463.0,537.0,0.0,1,550.0,1
401,401,-0.479958824779382,-0.5,1.0,0.0,374.0,548.0,0.0,0,318.0,1
402,402,0.8759744823125514,0.9,1.0,1.0,449.0,625.0,1.0,1,296.0,1
403,403,0.318009761289212,0.3,1.0,1.0,446.0,746.0,1.0,1,428.0,1
404,404,-0.6288631900998696,-0.6,0.0,1.0,274.0,688.0,1.0,0,248.0,1
405,405,0.31115892304971526,0.3,1.0,1.0,383.0,614.0,1.0,1,773.0,1
406,406,-0.40585884846459036,-0.4,1.0,0.0,430.0,718.0,0.0,0,352.0,1
407,407,-0.7692832275789516,-0.8,1.0,0.0,302.0,579.0,0.0,0,279.0,1
408,408,0.32745827547142714,0.3,1.0,1.0,373.0,610.0,1.0,1,437.0,1
409,409,0.20139457443560593,0.2,1.0,1.0,347.0,720.0,1.0,1,393.0,1
410,410,0.7821669544078534,0.8,0.0,0.0,319.0,815.0,0.0,1,396.0,1
411,411,-0.645244688036372,-0.6,1.0,0.0,294.0,831.0,0.0,0,265.0,1
412,412,-0.32474572182016304,-0.3,1.0,0.0,266.0,851.0,0.0,0,183.0,1
413,413,-0.3420688342946703,-0.3,0.0,1.0,482.0,647.0,1.0,0,241.0,1
414,414,0.5948022205543994,0.6,1.0,1.0,421.0,907.0,1.0,1,232.0,1
415,415,0.10745153422327702,0.1,0.0,0.0,479.0,830.0,0.0,1,561.0,1
416,416,-0.37065177407230043,-0.4,1.0,0.0,378.0,736.0,0.0,0,316.0,1
417,417,0.8287313714329462,0.8,0.0,0.0,399.0,511.0,0.0,1,150.0,1
418,418,0.7146133517569978,0.7,1.0,1.0,479.0,737.0,1.0,1,264.0,1
419,419,-0.0726712579459643,-0.1,1.0,0.0,432.0,675.0,0.0,0,443.0,1
420,420,0.5355805110554636,0.5,1.0,1.0,374.0,876.0,1.0,1,420.0,1
421,421,-0.8675002754096003,-0.9,1.0,0.0,446.0,978.0,0.0,0,196.0,1
422,422,0.5098116242809226,0.5,0.0,0.0,488.0,557.0,0.0,1,235.0,1
423,423,-0.15647521834202682,-0.2,0.0,1.0,473.0,920.0,1.0,0,287.0,1
424,424,0.3654413425952,0.4,0.0,0.0,389.0,976.0,0.0,1,165.0,1
425,425,-0.3865697913955076,-0.4,1.0,0.0,297.0,712.0,0.0,0,261.0,1
426,426,0.8413277764611512,0.8,1.0,1.0,297.0,565.0,1.0,1,198.0,1
427,427,-0.552854552679025,-0.6,0.0,1.0,297.0,736.0,1.0,0,287.0,1
428,428,0.14743268957404398,0.1,1.0,1.0,388.0,832.0,1.0,1,1230.0,1
429,429,-0.7299148035423465,-0.7,0.0,1.0,495.0,517.0,1.0,0,228.0,1
430,430,0.4993038104576696,0.5,0.0,0.0,369.0,569.0,0.0,1,252.0,1
431,431,0.16274057147528775,0.2,0.0,0.0,347.0,674.0,0.0,1,369.0,1
432,432,-0.1339831062279041,-0.1,1.0,0.0,289.0,529.0,0.0,0,432.0,1
433,433,0.7890818093225883,0.8,0.0,0.0,396.0,658.0,0.0,1,116.0,1
434,434,-0.48575897937060725,-0.5,1.0,0.0,345.0,629.0,0.0,0,176.0,1
435,435,0.18092441265166836,0.2,0.0,0.0,363.0,570.0,0.0,1,247.0,1
436,436,-0.6271805685383347,-0.6,0.0,1.0,435.0,563.0,1.0,0,222.0,1
437,437,0.6348810096709748,0.6,1.0,1.0,438.0,550.0,1.0,1,502.0,1
438,438,0.6525339637145328,0.7,0.0,0.0,337.0,973.0,0.0,1,110.0,1
439,439,0.26378368637864724,0.3,0.0,0.0,362.0,797.0,0.0,1,301.0,1
440,440,0.5042746442282121,0.5,0.0,0.0,304.0,863.0,0.0,1,223.0,1
441,441,-0.8805369045855349,-0.9,0.0,1.0,319.0,559.0,1.0,0,312.0,1
442,442,-0.5126984483834909,-0.5,0.0,1.0,430.0,866.0,1.0,0,154.0,1
443,443,0.22563535642150223,0.2,1.0,1.0,445.0,557.0,1.0,1,608.0,1
444,444,0.48208415643556346,0.5,0.0,0.0,444.0,853.0,0.0,1,183.0,1
445,445,0.812112212618452,0.8,1.0,1.0,270.0,787.0,1.0,1,253.0,1
446,446,-0.1942738105486409,-0.2,1.0,0.0,378.0,866.0,0.0,0,266.0,1
447,447,0.7623429580635969,0.8,1.0,1.0,472.0,649.0,1.0,1,389.0,1
448,448,0.5711710510369051,0.6,1.0,1.0,319.0,759.0,1.0,1,272.0,1
449,449,0.7698414322233248,0.8,1.0,1.0,412.0,691.0,1.0,1,327.0,1
450,450,-0.6107434597742021,-0.6,0.0,1.0,267.0,911.0,1.0,0,102.0,1
451,451,0.14258210324460474,0.1,1.0,1.0,312.0,974.0,1.0,1,734.0,1
452,452,-0.6838252047335496,-0.7,1.0,0.0,382.0,764.0,0.0,0,124.0,1
453,453,-0.3133393010671818,-0.3,1.0,0.0,450.0,792.0,0.0,0,158.0,1
454,454,0.5451825542944867,0.5,1.0,1.0,456.0,819.0,1.0,1,175.0,1
455,455,0.14613044717531476,0.1,0.0,0.0,365.0,556.0,0.0,1,579.0,1
456,456,0.6001644731684329,0.6,1.0,1.0,367.0,968.0,1.0,1,165.0,1
457,457,0.21894252749174348,0.2,0.0,0.0,290.0,608.0,0.0,1,262.0,1
458,458,-0.6567550992894514,-0.7,1.0,0.0,435.0,725.0,0.0,0,230.0,1
459,459,0.22172668580460508,0.2,1.0,1.0,458.0,849.0,1.0,1,423.0,1
460,460,-0.889854130088786,-0.9,0.0,1.0,489.0,938.0,1.0,0,173.0,1
461,461,0.23399972574039418,0.2,1.0,1.0,360.0,788.0,1.0,1,512.0,1
462,462,-0.5979573905012769,-0.6,0.0,1.0,386.0,652.0,1.0,0,242.0,1
463,463,-0.14108874497419255,-0.1,1.0,0.0,352.0,833.0,0.0,0,145.0,1
464,464,0.6133238711372414,0.6,0.0,0.0,282.0,705.0,0.0,1,143.0,1
465,465,0.014692305311998388,0.0,1.0,1.0,257.0,640.0,0.0,0,553.0,0
466,466,-0.05677008164419983,-0.1,0.0,1.0,307.0,704.0,1.0,0,1069.0,1
467,467,-0.6165265707300456,-0.6,1.0,0.0,260.0,650.0,0.0,0,290.0,1
468,468,-0.23737886574453781,-0.2,0.0,1.0,371.0,993.0,1.0,0,286.0,1
469,469,-0.41100904984031567,-0.4,0.0,1.0,399.0,721.0,1.0,0,360.0,1
470,470,-0.8378588664163439,-0.8,1.0,0.0,265.0,510.0,0.0,0,175.0,1
471,471,0.7497115507198361,0.7,1.0,1.0,301.0,550.0,1.0,1,419.0,1
472,472,0.8219646891970779,0.8,1.0,1.0,286.0,926.0,1.0,1,138.0,1
473,473,-0.724268610042704,-0.7,0.0,1.0,309.0,946.0,1.0,0,115.0,1
474,474,-0.611570373427615,-0.6,1.0,0.0,343.0,929.0,0.0,0,228.0,1
475,475,0.5889733716415869,0.6,0.0,0.0,442.0,792.0,0.0,1,206.0,1
476,476,-0.41209483536496627,-0.4,0.0,1.0,491.0,804.0,1.0,0,245.0,1
477,477,-0.2678123945012697,-0.3,1.0,0.0,418.0,613.0,0.0,0,349.0,1
478,478,-0.8155009941341156,-0.8,0.0,1.0,272.0,554.0,1.0,0,294.0,1
479,479,0.05682009966486046,0.1,0.0,0.0,375.0,726.0,0.0,1,1499.0,1
480,480,0.2523167398826863,0.3,0.0,0.0,429.0,709.0,0.0,1,442.0,1
481,481,-0.8696548294428716,-0.9,1.0,0.0,272.0,559.0,0.0,0,239.0,1
482,482,-0.8312168483968724,-0.8,0.0,1.0,345.0,739.0,1.0,0,306.0,1
483,483,-0.07916221715886473,-0.1,0.0,1.0,451.0,797.0,1.0,0,222.0,1
484,484,0.7479189079485528,0.7,0.0,0.0,486.0,612.0,0.0,1,202.0,1
485,485,-0.5147620533788015,-0.5,0.0,1.0,301.0,618.0,1.0,0,251.0,1
486,486,0.17642786605405114,0.2,1.0,1.0,482.0,558.0,1.0,1,670.0,1
487,487,-0.7931525388405191,-0.8,0.0,1.0,489.0,858.0,1.0,0,243.0,1
488,488,0.26684866826319065,0.3,1.0,1.0,261.0,630.0,1.0,1,489.0,1
489,489,-0.5550417523946425,-0.6,1.0,0.0,488.0,739.0,0.0,0,153.0,1
490,490,-0.2185754376120822,-0.2,0.0,1.0,382.0,538.0,1.0,0,570.0,1
491,491,0.8272495482467795,0.8,0.0,0.0,313.0,934.0,0.0,1,23.0,1
492,492,0.8587391052243424,0.9,0.0,0.0,345.0,746.0,0.0,1,209.0,1
493,493,0.6249501324488064,0.6,1.0,1.0,349.0,560.0,1.0,1,321.0,1
494,494,-0.21432956778738854,-0.2,1.0,0.0,472.0,755.0,0.0,0,273.0,1
495,495,0.09928499468651175,0.1,1.0,1.0,318.0,824.0,0.0,0,1858.0,0
496,496,0.19028671572956746,0.2,0.0,0.0,476.0,715.0,0.0,1,439.0,1
497,497,0.769074147415793,0.8,0.0,0.0,399.0,821.0,0.0,1,80.0,1
498,498,-0.8563982551271028,-0.9,1.0,0.0,463.0,648.0,0.0,0,179.0,1
499,499,0.043888315086009655,0.0,0.0,0.0,274.0,723.0,0.0,1,573.0,1
500,500,0.5620127898900223,0.6,1.0,1.0,325.0,791.0,1.0,1,194.0,1
501,501,0.3243434182047856,0.3,1.0,1.0,397.0,729.0,1.0,1,364.0,1
502,502,-0.7005886701511753,-0.7,0.0,1.0,491.0,854.0,1.0,0,175.0,1
503,503,0.5620886115146669,0.6,0.0,0.0,343.0,718.0,0.0,1,229.0,1
504,504,0.7920400704918956,0.8,1.0,1.0,496.0,698.0,1.0,1,206.0,1
505,505,-0.05832554815240165,-0.1,1.0,0.0,487.0,744.0,0.0,0,359.0,1
506,506,0.5234981720248674,0.5,1.0,1.0,491.0,829.0,1.0,1,260.0,1
507,507,-0.1538080080509705,-0.2,1.0,0.0,378.0,792.0,0.0,0,220.0,1
508,508,-0.7814750629377963,-0.8,1.0,0.0,398.0,658.0,0.0,0,234.0,1
509,509,0.16074942749554222,0.2,0.0,0.0,411.0,810.0,0.0,1,389.0,1
510,510,0.35247910831508544,0.4,0.0,0.0,313.0,805.0,0.0,1,152.0,1
511,511,0.019035164557113515,0.0,0.0,0.0,394.0,906.0,0.0,1,380.0,1
512,512,0.8491498112172856,0.8,1.0,1.0,473.0,724.0,1.0,1,453.0,1
513,513,-0.1657550806806617,-0.2,1.0,0.0,311.0,883.0,0.0,0,226.0,1
514,514,0.3175459553186232,0.3,1.0,1.0,438.0,694.0,1.0,1,508.0,1
515,515,-0.3853597588257345,-0.4,0.0,1.0,393.0,506.0,1.0,0,541.0,1
516,516,-0.7578368623344096,-0.8,0.0,1.0,422.0,770.0,1.0,0,158.0,1
517,517,0.2225791378819738,0.2,0.0,0.0,378.0,862.0,0.0,1,140.0,1
518,518,-0.790774234845175,-0.8,1.0,0.0,255.0,664.0,0.0,0,111.0,1
519,519,0.05443660855169519,0.1,1.0,1.0,449.0,875.0,0.0,0,876.0,0
520,520,-0.18258274430636146,-0.2,1.0,0.0,318.0,989.0,0.0,0,183.0,1
521,521,-0.02943088088747614,-0.0,1.0,0.0,406.0,975.0,0.0,0,479.0,1
522,522,-0.1494804017477751,-0.1,0.0,1.0,360.0,574.0,1.0,0,796.0,1
523,523,-0.7345485201759185,-0.7,0.0,1.0,314.0,551.0,1.0,0,245.0,1
524,524,-0.3382845888566921,-0.3,1.0,0.0,304.0,677.0,0.0,0,119.0,1
525,525,-0.3658687117612074,-0.4,1.0,0.0,470.0,829.0,0.0,0,181.0,1
526,526,-0.1203683700461301,-0.1,1.0,0.0,332.0,999.0,0.0,0,209.0,1
527,527,-0.5217078990602217,-0.5,0.0,1.0,481.0,791.0,1.0,0,358.0,1
528,528,0.6194127384904068,0.6,0.0,0.0,275.0,926.0,0.0,1,89.0,1
529,529,0.45160496862724664,0.5,1.0,1.0,413.0,713.0,1.0,1,944.0,1
530,530,0.06766801135174083,0.1,1.0,1.0,418.0,673.0,0.0,0,1449.0,0
531,531,-0.21930094890176755,-0.2,1.0,0.0,285.0,838.0,0.0,0,247.0,1
532,532,0.2036278822067955,0.2,0.0,0.0,299.0,556.0,0.0,1,305.0,1
533,533,0.21041495050685255,0.2,1.0,1.0,368.0,894.0,1.0,1,398.0,1
534,534,-0.8931936610945589,-0.9,1.0,0.0,336.0,934.0,0.0,0,130.0,1
535,535,0.741159796327561,0.7,1.0,1.0,291.0,927.0,1.0,1,212.0,1
536,536,0.4357240745689065,0.4,0.0,0.0,346.0,853.0,0.0,1,211.0,1
537,537,-0.17157076011362238,-0.2,1.0,0.0,448.0,864.0,0.0,0,198.0,1
538,538,-0.6527368307098897,-0.7,1.0,0.0,309.0,991.0,0.0,0,170.0,1
539,539,-0.11631092151847533,-0.1,1.0,0.0,445.0,860.0,0.0,0,265.0,1
540,540,0.24236928163170435,0.2,1.0,1.0,251.0,973.0,1.0,1,396.0,1
541,541,-0.14769467707860917,-0.1,1.0,0.0,290.0,935.0,0.0,0,145.0,1
542,542,-0.6933721643589589,-0.7,0.0,1.0,312.0,671.0,1.0,0,247.0,1
543,543,0.19829174474600253,0.2,0.0,0.0,473.0,567.0,0.0,1,630.0,1
544,544,-0.484972939184583,-0.5,1.0,0.0,295.0,802.0,0.0,0,193.0,1
545,545,-0.13051495082211317,-0.1,1.0,0.0,406.0,558.0,0.0,0,346.0,1
546,546,0.8246843942976368,0.8,1.0,1.0,359.0,869.0,1.0,1,132.0,1
547,547,-0.28012721081097336,-0.3,1.0,0.0,377.0,585.0,0.0,0,318.0,1
548,548,-0.629271329661347,-0.6,1.0,0.0,286.0,784.0,0.0,0,220.0,1
549,549,0.7357806892973869,0.7,0.0,0.0,380.0,920.0,0.0,1,180.0,1
550,550,0.5425181158151026,0.5,0.0,0.0,478.0,690.0,0.0,1,202.0,1
551,551,-0.764477076044468,-0.8,0.0,1.0,476.0,698.0,1.0,0,206.0,1
552,552,0.4718724068345329,0.5,1.0,1.0,326.0,828.0,1.0,1,356.0,1
553,553,-0.18120102792075954,-0.2,0.0,1.0,458.0,668.0,1.0,0,774.0,1
554,554,0.7295739456862246,0.7,1.0,1.0,326.0,566.0,1.0,1,258.0,1
555,555,-0.13374309968702236,-0.1,0.0,1.0,417.0,930.0,1.0,0,983.0,1
556,556,0.5112858950911722,0.5,0.0,0.0,478.0,823.0,0.0,1,259.0,1
557,557,-0.49278924703334354,-0.5,1.0,0.0,304.0,503.0,0.0,0,263.0,1
558,558,-0.2639824347536587,-0.3,1.0,0.0,297.0,660.0,0.0,0,403.0,1
559,559,-0.6237385897643373,-0.6,0.0,1.0,253.0,767.0,1.0,0,130.0,1
560,560,0.3764125512558122,0.4,1.0,1.0,396.0,760.0,1.0,1,424.0,1
561,561,0.8344609964706841,0.8,1.0,1.0,421.0,737.0,1.0,1,222.0,1
562,562,0.006420235552094367,0.0,0.0,0.0,300.0,591.0,0.0,1,2109.0,1
563,563,-0.8720324752894016,-0.9,1.0,0.0,352.0,872.0,0.0,0,136.0,1
564,564,-0.006853995492153819,-0.0,0.0,1.0,449.0,674.0,1.0,0,917.0,1
565,565,-0.6536744322331984,-0.7,0.0,1.0,345.0,758.0,1.0,0,207.0,1
566,566,0.6573998954069576,0.7,0.0,0.0,461.0,655.0,0.0,1,254.0,1
567,567,-0.6266491225991755,-0.6,0.0,1.0,402.0,683.0,1.0,0,245.0,1
568,568,-0.6757847610811832,-0.7,1.0,0.0,296.0,569.0,0.0,0,215.0,1
569,569,0.4438668002195486,0.4,1.0,1.0,334.0,967.0,0.0,0,19.0,0
570,570,-0.04614090296888673,-0.0,0.0,1.0,385.0,592.0,1.0,0,1583.0,1
571,571,-0.7699822351843759,-0.8,0.0,1.0,256.0,823.0,1.0,0,141.0,1
572,572,0.7348262099173947,0.7,0.0,0.0,308.0,980.0,0.0,1,32.0,1
573,573,-0.4680768426310325,-0.5,1.0,0.0,282.0,709.0,0.0,0,139.0,1
574,574,-0.24290747025417636,-0.2,0.0,1.0,418.0,504.0,1.0,0,678.0,1
575,575,-0.5174223646389424,-0.5,1.0,0.0,369.0,656.0,0.0,0,155.0,1
576,576,0.5477606437927812,0.5,0.0,0.0,272.0,648.0,0.0,1,220.0,1
577,577,0.8131354469229176,0.8,0.0,0.0,407.0,502.0,0.0,1,151.0,1
578,578,0.8252262666630695,0.8,1.0,1.0,367.0,750.0,1.0,1,203.0,1
579,579,0.8630789862599916,0.9,1.0,1.0,415.0,704.0,1.0,1,261.0,1
580,580,-0.2957075156895729,-0.3,1.0,0.0,395.0,527.0,0.0,0,548.0,1
581,581,0.34433039205148475,0.3,1.0,1.0,450.0,726.0,1.0,1,304.0,1
582,582,-0.6501459916889178,-0.7,0.0,1.0,429.0,624.0,1.0,0,227.0,1
583,583,-0.2064932947935484,-0.2,0.0,1.0,313.0,566.0,1.0,0,1071.0,1
584,584,0.45253195218308473,0.5,0.0,0.0,420.0,616.0,0.0,1,294.0,1
585,585,0.7233264792087445,0.7,0.0,0.0,430.0,589.0,0.0,1,181.0,1
586,586,0.07501624956686637,0.1,0.0,0.0,309.0,750.0,0.0,1,911.0,1
587,587,-0.6556168783609879,-0.7,1.0,0.0,396.0,740.0,0.0,0,184.0,1
588,588,0.25916649788752155,0.3,0.0,0.0,322.0,526.0,0.0,1,332.0,1
589,589,-0.8712843015423906,-0.9,0.0,1.0,493.0,542.0,1.0,0,245.0,1
590,590,0.7566200727641034,0.8,1.0,1.0,331.0,545.0,1.0,1,354.0,1
591,591,-0.7293696139939634,-0.7,1.0,0.0,456.0,615.0,0.0,0,189.0,1
592,592,-0.20744169965996562,-0.2,1.0,0.0,397.0,604.0,0.0,0,309.0,1
593,593,0.3832279835505842,0.4,1.0,1.0,276.0,920.0,1.0,1,274.0,1
594,594,-0.36271108157086474,-0.4,1.0,0.0,436.0,895.0,0.0,0,149.0,1
595,595,0.8847758883512936,0.9,1.0,1.0,419.0,703.0,1.0,1,278.0,1
596,596,0.11681414254323619,0.1,1.0,1.0,431.0,829.0,1.0,1,350.0,1
597,597,0.45641667511309414,0.5,1.0,1.0,383.0,635.0,1.0,1,332.0,1
598,598,0.7708574235862381,0.8,1.0,1.0,408.0,854.0,1.0,1,188.0,1
599,599,-0.665098544735547,-0.7,1.0,0.0,453.0,784.0,0.0,0,313.0,1
600,600,-0.5355703177926926,-0.5,0.0,1.0,415.0,873.0,1.0,0,202.0,1
601,601,0.34482253014681274,0.3,1.0,1.0,461.0,883.0,1.0,1,226.0,1
602,602,0.06689910949475264,0.1,1.0,1.0,471.0,693.0,0.0,0,616.0,0
603,603,0.8184256513532923,0.8,1.0,1.0,494.0,955.0,1.0,1,281.0,1
604,604,0.7646140934847857,0.8,0.0,0.0,323.0,831.0,0.0,1,116.0,1
605,605,0.21165185584436952,0.2,0.0,0.0,440.0,827.0,0.0,1,393.0,1
606,606,0.11442711153326768,0.1,0.0,0.0,389.0,699.0,0.0,1,382.0,1
607,607,-0.09168095494370399,-0.1,0.0,1.0,401.0,854.0,1.0,0,115.0,1
608,608,0.4998029557626974,0.5,0.0,0.0,360.0,641.0,0.0,1,339.0,1
609,609,0.3058954129896475,0.3,0.0,0.0,363.0,707.0,0.0,1,250.0,1
610,610,-0.0027582310864344706,-0.0,0.0,1.0,335.0,509.0,0.0,1,1336.0,0
611,611,-0.28011842595084335,-0.3,1.0,0.0,349.0,724.0,0.0,0,317.0,1
612,612,0.001949315449861766,0.0,0.0,0.0,353.0,569.0,1.0,0,2078.0,0
613,613,-0.8699885933959243,-0.9,1.0,0.0,332.0,895.0,0.0,0,343.0,1
614,614,0.49394476870726434,0.5,1.0,1.0,428.0,790.0,1.0,1,282.0,1
615,615,-0.10836936059051461,-0.1,0.0,1.0,292.0,791.0,1.0,0,797.0,1
616,616,0.07381297402898124,0.1,1.0,1.0,499.0,881.0,0.0,0,1620.0,0
617,617,-0.7125445545437037,-0.7,0.0,1.0,444.0,911.0,1.0,0,75.0,1
618,618,-0.7566708850158087,-0.8,0.0,1.0,376.0,748.0,1.0,0,146.0,1
619,619,-0.848615161049374,-0.8,1.0,0.0,448.0,988.0,0.0,0,94.0,1
620,620,-0.8149157538802482,-0.8,0.0,1.0,368.0,964.0,1.0,0,148.0,1
621,621,0.38183736941223356,0.4,0.0,0.0,423.0,919.0,0.0,1,248.0,1
622,622,0.4917164439086118,0.5,0.0,0.0,382.0,745.0,0.0,1,193.0,1
623,623,-0.5363564720412225,-0.5,1.0,0.0,375.0,661.0,0.0,0,194.0,1
624,624,-0.8675001585181461,-0.9,1.0,0.0,419.0,903.0,0.0,0,108.0,1
625,625,0.05139206251200157,0.1,1.0,1.0,398.0,901.0,0.0,0,1021.0,0
626,626,-0.7934302424463443,-0.8,1.0,0.0,426.0,970.0,0.0,0,244.0,1
627,627,0.8789920607853275,0.9,1.0,1.0,384.0,932.0,1.0,1,204.0,1
628,628,-0.5312038713455761,-0.5,0.0,1.0,259.0,726.0,1.0,0,215.0,1
629,629,0.8476096070128462,0.8,0.0,0.0,445.0,679.0,0.0,1,186.0,1
630,630,0.15948448897205536,0.2,1.0,1.0,399.0,946.0,1.0,1,785.0,1
631,631,0.20582221950264923,0.2,1.0,1.0,492.0,762.0,1.0,1,726.0,1
632,632,0.03771148782984135,0.0,1.0,1.0,353.0,722.0,0.0,0,1925.0,0
633,633,-0.1568330059887204,-0.2,0.0,1.0,361.0,776.0,1.0,0,613.0,1
634,634,0.42601208336054197,0.4,1.0,1.0,463.0,609.0,1.0,1,458.0,1
635,635,0.19589692174712636,0.2,0.0,0.0,358.0,827.0,0.0,1,445.0,1
636,636,-0.8978360114090543,-0.9,0.0,1.0,310.0,812.0,1.0,0,188.0,1
637,637,-0.4085644243423488,-0.4,0.0,1.0,456.0,747.0,1.0,0,257.0,1
638,638,-0.655168761268429,-0.7,1.0,0.0,479.0,633.0,0.0,0,128.0,1
639,639,-0.09496303157144104,-0.1,1.0,0.0,317.0,528.0,0.0,0,455.0,1
640,640,0.07441952341894875,0.1,1.0,1.0,338.0,897.0,0.0,0,415.0,0
641,641,0.1644531831842463,0.2,0.0,0.0,331.0,575.0,0.0,1,464.0,1
642,642,-0.11349150814717801,-0.1,0.0,1.0,265.0,918.0,1.0,0,757.0,1
643,643,0.462451059669058,0.5,1.0,1.0,310.0,811.0,1.0,1,359.0,1
644,644,0.03718659328546958,0.0,0.0,0.0,431.0,784.0,0.0,1,615.0,1
645,645,0.2799922168131127,0.3,0.0,0.0,261.0,559.0,0.0,1,620.0,1
646,646,-0.6194064261698116,-0.6,1.0,0.0,407.0,623.0,0.0,0,200.0,1
647,647,-0.43248729439514005,-0.4,0.0,1.0,330.0,814.0,1.0,0,246.0,1
648,648,0.7484013593648772,0.7,1.0,1.0,358.0,675.0,1.0,1,257.0,1
649,649,-0.6908684629486929,-0.7,1.0,0.0,333.0,548.0,0.0,0,139.0,1
650,650,-0.7646010567750655,-0.8,0.0,1.0,291.0,660.0,1.0,0,169.0,1
651,651,0.7505256718130603,0.8,0.0,0.0,464.0,534.0,0.0,1,262.0,1
652,652,0.5271590577330562,0.5,0.0,0.0,318.0,856.0,0.0,1,176.0,1
653,653,0.7175284745501137,0.7,0.0,0.0,257.0,551.0,0.0,1,192.0,1
654,654,-0.298852879643299,-0.3,0.0,1.0,496.0,562.0,1.0,0,462.0,1
655,655,-0.5795950433912227,-0.6,1.0,0.0,413.0,621.0,0.0,0,146.0,1
656,656,-0.6894905192482013,-0.7,1.0,0.0,411.0,743.0,0.0,0,166.0,1
657,657,0.8841204898567899,0.9,0.0,0.0,292.0,993.0,0.0,1,45.0,1
658,658,0.7679945996525962,0.8,0.0,0.0,465.0,863.0,0.0,1,252.0,1
659,659,0.03966865236879691,0.0,1.0,1.0,285.0,831.0,0.0,0,874.0,0
660,660,-0.39178604848979426,-0.4,1.0,0.0,271.0,797.0,0.0,0,252.0,1
661,661,-0.7711640339136812,-0.8,0.0,1.0,296.0,623.0,1.0,0,271.0,1
662,662,0.8871424416385615,0.9,1.0,1.0,407.0,797.0,1.0,1,216.0,1
663,663,0.8039135031871484,0.8,1.0,1.0,413.0,836.0,1.0,1,331.0,1
664,664,-0.14854638276293963,-0.1,0.0,1.0,393.0,699.0,1.0,0,438.0,1
665,665,0.3945023629761183,0.4,1.0,1.0,450.0,931.0,1.0,1,469.0,1
666,666,0.1209797452411282,0.1,1.0,1.0,378.0,786.0,1.0,1,806.0,1
667,667,0.4589464645271276,0.5,1.0,1.0,293.0,500.0,1.0,1,627.0,1
668,668,-0.4043316594623567,-0.4,1.0,0.0,394.0,674.0,0.0,0,162.0,1
669,669,0.48719214551776313,0.5,1.0,1.0,333.0,697.0,1.0,1,280.0,1
670,670,-0.37664144350370676,-0.4,0.0,1.0,445.0,765.0,1.0,0,250.0,1
671,671,0.5596212910541377,0.6,1.0,1.0,430.0,952.0,1.0,1,148.0,1
672,672,-0.5705495926393185,-0.6,1.0,0.0,442.0,731.0,0.0,0,417.0,1
673,673,0.043439685798794536,0.0,1.0,1.0,375.0,793.0,0.0,0,522.0,0
674,674,-0.8227378016249455,-0.8,0.0,1.0,363.0,678.0,1.0,0,269.0,1
675,675,-0.4773418124680881,-0.5,0.0,1.0,280.0,907.0,1.0,0,233.0,1
676,676,0.7037854646144485,0.7,0.0,0.0,391.0,525.0,0.0,1,244.0,1
677,677,0.8462208359237925,0.8,0.0,0.0,291.0,688.0,0.0,1,181.0,1
678,678,0.26812380793970025,0.3,0.0,0.0,423.0,738.0,0.0,1,429.0,1
679,679,-0.09966641403363263,-0.1,0.0,1.0,334.0,577.0,1.0,0,339.0,1
680,680,-0.27116306232960297,-0.3,0.0,1.0,321.0,719.0,1.0,0,680.0,1
681,681,-0.5205617718592339,-0.5,1.0,0.0,447.0,882.0,0.0,0,51.0,1
682,682,-0.7390977577642703,-0.7,0.0,1.0,286.0,685.0,1.0,0,189.0,1
683,683,0.842331833805135,0.8,1.0,1.0,461.0,687.0,1.0,1,132.0,1
684,684,0.42868460584826684,0.4,0.0,0.0,294.0,652.0,0.0,1,144.0,1
685,685,-0.16348950837729936,-0.2,1.0,0.0,383.0,749.0,0.0,0,168.0,1
686,686,0.33344133862191405,0.3,0.0,0.0,414.0,627.0,0.0,1,459.0,1
687,687,-0.25294317026562163,-0.3,1.0,0.0,334.0,948.0,0.0,0,218.0,1
688,688,-0.6646119995911866,-0.7,0.0,1.0,277.0,798.0,1.0,0,205.0,1
689,689,0.2706562154719575,0.3,1.0,1.0,278.0,919.0,1.0,1,373.0,1
690,690,0.745369934208235,0.7,1.0,1.0,412.0,781.0,1.0,1,367.0,1
691,691,-0.16825080782413826,-0.2,1.0,0.0,406.0,953.0,0.0,0,401.0,1
692,692,0.13312235076349743,0.1,0.0,0.0,417.0,514.0,0.0,1,469.0,1
693,693,0.2025409670397137,0.2,1.0,1.0,354.0,749.0,1.0,1,767.0,1
694,694,-0.5851128755912489,-0.6,0.0,1.0,443.0,857.0,1.0,0,270.0,1
695,695,-0.31172456144193417,-0.3,0.0,1.0,365.0,773.0,1.0,0,552.0,1
696,696,0.3242177185893361,0.3,0.0,0.0,282.0,593.0,0.0,1,215.0,1
697,697,0.1795470008629364,0.2,1.0,1.0,399.0,872.0,1.0,1,969.0,1
698,698,-0.4385992093253643,-0.4,1.0,0.0,250.0,820.0,0.0,0,150.0,1
699,699,-0.21063607165122056,-0.2,0.0,1.0,470.0,904.0,1.0,0,586.0,1
700,700,0.16897668795615262,0.2,1.0,1.0,291.0,796.0,1.0,1,1503.0,1
701,701,0.8453104528654135,0.8,1.0,1.0,328.0,567.0,1.0,1,275.0,1
702,702,0.24210594565465027,0.2,1.0,1.0,368.0,674.0,1.0,1,498.0,1
703,703,0.6702260111806312,0.7,0.0,0.0,381.0,979.0,0.0,1,60.0,1
704,704,-0.5524502607052735,-0.6,0.0,1.0,338.0,777.0,1.0,0,215.0,1
705,705,0.7679246010466066,0.8,1.0,1.0,313.0,891.0,0.0,0,-174.0,0
706,706,-0.8056461876385754,-0.8,1.0,0.0,426.0,694.0,0.0,0,170.0,1
707,707,0.21620192690477047,0.2,0.0,0.0,304.0,868.0,0.0,1,188.0,1
708,708,-0.205285841958338,-0.2,0.0,1.0,268.0,761.0,1.0,0,351.0,1
709,709,0.7813672636997503,0.8,1.0,1.0,463.0,871.0,1.0,1,476.0,1
710,710,0.7096598989929598,0.7,0.0,0.0,472.0,668.0,0.0,1,240.0,1
711,711,0.8248901346214165,0.8,1.0,1.0,479.0,728.0,1.0,1,163.0,1
712,712,0.2958139787371682,0.3,1.0,1.0,318.0,654.0,1.0,1,778.0,1
713,713,0.42278909946659426,0.4,0.0,0.0,445.0,750.0,0.0,1,165.0,1
714,714,0.5101614621307692,0.5,1.0,1.0,386.0,876.0,1.0,1,168.0,1
715,715,0.15740963537472663,0.2,1.0,1.0,339.0,613.0,1.0,1,928.0,1
716,716,-0.01232974044144941,-0.0,1.0,0.0,299.0,525.0,0.0,0,646.0,1
717,717,-0.845096035165651,-0.8,0.0,1.0,321.0,502.0,1.0,0,197.0,1
718,718,0.03579534985113331,0.0,0.0,0.0,325.0,930.0,0.0,1,735.0,1
719,719,-0.7756420307099174,-0.8,1.0,0.0,345.0,584.0,0.0,0,171.0,1
720,720,-0.4248149609711541,-0.4,1.0,0.0,489.0,543.0,0.0,0,178.0,1
721,721,-0.2813591064986164,-0.3,0.0,1.0,354.0,731.0,1.0,0,415.0,1
722,722,-0.45854073160750397,-0.5,1.0,0.0,285.0,537.0,0.0,0,228.0,1
723,723,-0.5732441311568848,-0.6,1.0,0.0,443.0,883.0,0.0,0,154.0,1
724,724,-0.037536877493214216,-0.0,0.0,1.0,404.0,722.0,0.0,1,314.0,0
725,725,-0.37259171948604886,-0.4,1.0,0.0,264.0,526.0,0.0,0,260.0,1
726,726,0.16870783651216337,0.2,0.0,0.0,263.0,601.0,0.0,1,366.0,1
727,727,0.11072703186101174,0.1,0.0,0.0,308.0,834.0,0.0,1,328.0,1
728,728,-0.03312347616802158,-0.0,0.0,1.0,374.0,761.0,0.0,1,1055.0,0
729,729,0.7135011419851819,0.7,0.0,0.0,359.0,791.0,0.0,1,100.0,1
730,730,0.699615322231942,0.7,0.0,0.0,458.0,552.0,0.0,1,210.0,1
731,731,-0.17460600069852406,-0.2,1.0,0.0,389.0,906.0,0.0,0,-25.0,1
732,732,0.04653451947900089,0.0,1.0,1.0,277.0,878.0,0.0,0,675.0,0
733,733,-0.7460208908025809,-0.7,1.0,0.0,496.0,828.0,0.0,0,146.0,1
734,734,-0.5151374660826256,-0.5,1.0,0.0,460.0,949.0,0.0,0,141.0,1
735,735,0.3592034134156087,0.4,1.0,1.0,279.0,556.0,1.0,1,485.0,1
736,736,0.7557294269405151,0.8,0.0,0.0,465.0,533.0,0.0,1,282.0,1
737,737,-0.6892059609565493,-0.7,0.0,1.0,372.0,704.0,1.0,0,204.0,1
738,738,-0.568499016705105,-0.6,0.0,1.0,492.0,764.0,1.0,0,334.0,1
739,739,0.5144427707000817,0.5,1.0,1.0,259.0,837.0,1.0,1,264.0,1
740,740,-0.44725919333174424,-0.4,0.0,1.0,453.0,945.0,1.0,0,292.0,1
741,741,0.23241218647928863,0.2,1.0,1.0,256.0,564.0,1.0,1,680.0,1
742,742,0.37075693899144435,0.4,1.0,1.0,433.0,671.0,1.0,1,466.0,1
743,743,-0.3981971707929757,-0.4,0.0,1.0,476.0,622.0,1.0,0,232.0,1
744,744,0.027290281072878342,0.0,0.0,0.0,280.0,962.0,0.0,1,888.0,1
745,745,0.6246382012116097,0.6,1.0,1.0,488.0,583.0,1.0,1,819.0,1
746,746,0.0795747309339595,0.1,1.0,1.0,442.0,796.0,0.0,0,712.0,0
747,747,0.7498912384980297,0.7,0.0,0.0,391.0,780.0,0.0,1,219.0,1
748,748,-0.49694161776411166,-0.5,0.0,1.0,326.0,718.0,1.0,0,246.0,1
749,749,0.6526452356975759,0.7,1.0,1.0,381.0,730.0,1.0,1,269.0,1
750,750,0.6111238139537066,0.6,1.0,1.0,300.0,658.0,1.0,1,362.0,1
751,751,0.3108609349689434,0.3,0.0,0.0,442.0,673.0,0.0,1,185.0,1
752,752,-0.21606748689270694,-0.2,0.0,1.0,466.0,706.0,1.0,0,588.0,1
753,753,-0.24237051228127948,-0.2,1.0,0.0,283.0,681.0,0.0,0,266.0,1
754,754,0.5998812845396057,0.6,0.0,0.0,340.0,972.0,0.0,1,118.0,1
755,755,-0.8077011126225727,-0.8,1.0,0.0,261.0,716.0,0.0,0,153.0,1
756,756,0.216421568343952,0.2,0.0,0.0,444.0,672.0,0.0,1,664.0,1
757,757,0.07031787846395421,0.1,0.0,0.0,346.0,629.0,0.0,1,635.0,1
758,758,-0.18460207432067077,-0.2,1.0,0.0,451.0,771.0,0.0,0,388.0,1
759,759,-0.14271074618976765,-0.1,0.0,1.0,432.0,577.0,1.0,0,881.0,1
760,760,0.7730801524054994,0.8,1.0,1.0,385.0,903.0,1.0,1,192.0,1
761,761,-0.5655006922757069,-0.6,0.0,1.0,474.0,658.0,1.0,0,268.0,1
762,762,0.3711815450180612,0.4,1.0,1.0,323.0,999.0,1.0,1,218.0,1
763,763,0.7007686670306202,0.7,1.0,1.0,410.0,939.0,1.0,1,241.0,1
764,764,-0.8086738398908487,-0.8,1.0,0.0,355.0,741.0,0.0,0,114.0,1
765,765,0.43427114904906483,0.4,1.0,1.0,329.0,505.0,1.0,1,486.0,1
766,766,-0.6426738002030308,-0.6,1.0,0.0,394.0,538.0,0.0,0,188.0,1
767,767,-0.024878724206022218,-0.0,0.0,1.0,478.0,965.0,0.0,1,327.0,0
768,768,0.09557925199172856,0.1,1.0,1.0,371.0,969.0,0.0,0,1660.0,0
769,769,0.26067860546941357,0.3,0.0,0.0,373.0,962.0,0.0,1,135.0,1
770,770,-0.18656307322580346,-0.2,1.0,0.0,334.0,703.0,0.0,0,303.0,1
771,771,0.8015030957788597,0.8,0.0,0.0,411.0,956.0,0.0,1,93.0,1
772,772,-0.40054748711575133,-0.4,1.0,0.0,304.0,905.0,0.0,0,161.0,1
773,773,0.2994331586642752,0.3,1.0,1.0,454.0,573.0,1.0,1,293.0,1
774,774,-0.11530931388641852,-0.1,0.0,1.0,319.0,701.0,1.0,0,890.0,1
775,775,0.12652583877145396,0.1,0.0,0.0,436.0,913.0,0.0,1,251.0,1
776,776,-0.86454702490871,-0.9,0.0,1.0,293.0,559.0,1.0,0,318.0,1
777,777,0.8107229490848401,0.8,1.0,1.0,311.0,668.0,1.0,1,341.0,1
778,778,-0.48663389026792636,-0.5,1.0,0.0,258.0,912.0,0.0,0,160.0,1
779,779,-0.7544224668473625,-0.8,0.0,1.0,274.0,598.0,1.0,0,168.0,1
780,780,-0.8108898685939153,-0.8,0.0,1.0,396.0,503.0,1.0,0,381.0,1
781,781,-0.2797055952598285,-0.3,1.0,0.0,363.0,756.0,0.0,0,71.0,1
782,782,-0.3180535540923579,-0.3,1.0,0.0,295.0,680.0,0.0,0,195.0,1
783,783,0.7498369985652954,0.7,0.0,0.0,378.0,929.0,0.0,1,173.0,1
784,784,-0.7300686402611124,-0.7,1.0,0.0,297.0,586.0,0.0,0,157.0,1
785,785,0.783566852250318,0.8,0.0,0.0,339.0,563.0,0.0,1,318.0,1
786,786,-0.6783125059361861,-0.7,0.0,1.0,363.0,625.0,1.0,0,252.0,1
787,787,0.7649536179340896,0.8,1.0,1.0,312.0,993.0,1.0,1,145.0,1
788,788,0.3398583332664903,0.3,1.0,1.0,455.0,512.0,1.0,1,623.0,1
789,789,0.0931278547754456,0.1,0.0,0.0,256.0,986.0,0.0,1,318.0,1
790,790,-0.37548432635608664,-0.4,1.0,0.0,447.0,834.0,0.0,0,259.0,1
791,791,0.44050890827019595,0.4,1.0,1.0,327.0,704.0,1.0,1,629.0,1
792,792,0.03724623782283043,0.0,1.0,1.0,484.0,560.0,0.0,0,976.0,0
793,793,0.5945412355797847,0.6,1.0,1.0,338.0,526.0,1.0,1,336.0,1
794,794,-0.2511236737875102,-0.3,1.0,0.0,264.0,915.0,0.0,0,181.0,1
795,795,0.062464470549344675,0.1,0.0,0.0,290.0,870.0,0.0,1,760.0,1
796,796,0.11268103162554455,0.1,0.0,0.0,301.0,556.0,0.0,1,803.0,1
797,797,0.8892101003643552,0.9,0.0,0.0,351.0,864.0,0.0,1,195.0,1
798,798,-0.5861165135225483,-0.6,1.0,0.0,428.0,953.0,0.0,0,179.0,1
799,799,0.0825034375205781,0.1,0.0,0.0,403.0,584.0,0.0,1,753.0,1
800,800,0.2780416283557766,0.3,1.0,1.0,493.0,588.0,1.0,1,469.0,1
801,801,0.5426308210556153,0.5,0.0,0.0,408.0,957.0,0.0,1,165.0,1
802,802,0.6809713129689311,0.7,0.0,0.0,313.0,562.0,0.0,1,145.0,1
803,803,0.769928970363588,0.8,0.0,0.0,271.0,951.0,0.0,1,138.0,1
804,804,-0.5963278480267192,-0.6,1.0,0.0,274.0,564.0,0.0,0,172.0,1
805,805,0.7398531646247303,0.7,0.0,0.0,496.0,841.0,0.0,1,123.0,1
806,806,0.8670555644324568,0.9,1.0,1.0,251.0,507.0,1.0,1,352.0,1
807,807,0.22703550000300565,0.2,1.0,1.0,278.0,561.0,1.0,1,1231.0,1
808,808,-0.6053323892467259,-0.6,0.0,1.0,338.0,954.0,1.0,0,148.0,1
809,809,-0.6143896668179633,-0.6,0.0,1.0,433.0,595.0,1.0,0,262.0,1
810,810,0.08848050908199123,0.1,0.0,0.0,304.0,940.0,0.0,1,356.0,1
811,811,0.32381376668623807,0.3,0.0,0.0,389.0,926.0,0.0,1,215.0,1
812,812,-0.5670826057285985,-0.6,1.0,0.0,266.0,807.0,0.0,0,327.0,1
813,813,-0.248643056924839,-0.2,0.0,1.0,404.0,733.0,1.0,0,563.0,1
814,814,-0.40550835858929074,-0.4,0.0,1.0,349.0,979.0,1.0,0,302.0,1
815,815,-0.35732251508962876,-0.4,1.0,0.0,263.0,624.0,0.0,0,373.0,1
816,816,0.3797168400708987,0.4,1.0,1.0,321.0,928.0,1.0,1,231.0,1
817,817,0.40915139626413877,0.4,1.0,1.0,419.0,739.0,1.0,1,232.0,1
818,818,-0.5951461935090934,-0.6,1.0,0.0,316.0,870.0,0.0,0,154.0,1
819,819,-0.4203016795563579,-0.4,1.0,0.0,450.0,618.0,0.0,0,312.0,1
820,820,0.23783462372481223,0.2,1.0,1.0,412.0,577.0,1.0,1,471.0,1
821,821,-0.7689862320027309,-0.8,0.0,1.0,280.0,604.0,1.0,0,236.0,1
822,822,0.8026490378901067,0.8,1.0,1.0,323.0,857.0,1.0,1,180.0,1
823,823,0.012192701962768893,0.0,1.0,1.0,318.0,954.0,0.0,0,238.0,0
824,824,-0.37406441029921234,-0.4,0.0,1.0,339.0,617.0,1.0,0,264.0,1
825,825,-0.6979939986343047,-0.7,0.0,1.0,294.0,590.0,1.0,0,126.0,1
826,826,0.7907692124198832,0.8,1.0,1.0,432.0,929.0,1.0,1,169.0,1
827,827,-0.26416633207676987,-0.3,0.0,1.0,354.0,997.0,1.0,0,209.0,1
828,828,0.641819848760694,0.6,1.0,1.0,383.0,542.0,1.0,1,495.0,1
829,829,-0.12365378106457514,-0.1,1.0,0.0,281.0,726.0,0.0,0,423.0,1
830,830,0.6653878616152379,0.7,0.0,0.0,402.0,742.0,0.0,1,216.0,1
831,831,-0.24372290846792166,-0.2,0.0,1.0,486.0,778.0,1.0,0,326.0,1
832,832,0.5613844562124007,0.6,1.0,1.0,356.0,867.0,1.0,1,347.0,1
833,833,-0.790403215901518,-0.8,1.0,0.0,256.0,723.0,0.0,0,201.0,1
834,834,0.6713526311164467,0.7,0.0,0.0,277.0,693.0,0.0,1,110.0,1
835,835,0.7027368977472034,0.7,0.0,0.0,257.0,869.0,0.0,1,104.0,1
836,836,-0.30307326470029794,-0.3,0.0,1.0,309.0,956.0,1.0,0,355.0,1
837,837,-0.6568820797008124,-0.7,1.0,0.0,437.0,990.0,0.0,0,103.0,1
838,838,-0.598593740070727,-0.6,1.0,0.0,275.0,578.0,0.0,0,147.0,1
839,839,0.517809218932909,0.5,0.0,0.0,469.0,612.0,0.0,1,299.0,1
840,840,-0.03680573843247903,-0.0,0.0,1.0,419.0,839.0,1.0,0,442.0,1
841,841,-0.3836970488490036,-0.4,0.0,1.0,358.0,737.0,1.0,0,345.0,1
842,842,-0.8127490447722483,-0.8,0.0,1.0,493.0,884.0,1.0,0,263.0,1
843,843,-0.7182159009972989,-0.7,1.0,0.0,285.0,811.0,0.0,0,224.0,1
844,844,0.5499154956991413,0.5,0.0,0.0,276.0,753.0,0.0,1,181.0,1
845,845,0.24969178184042107,0.2,0.0,0.0,253.0,678.0,0.0,1,459.0,1
846,846,0.818601212962292,0.8,0.0,0.0,327.0,679.0,0.0,1,174.0,1
847,847,-0.5723588801717494,-0.6,1.0,0.0,286.0,905.0,0.0,0,179.0,1
848,848,0.5957187746215359,0.6,1.0,1.0,337.0,706.0,1.0,1,267.0,1
849,849,0.6864864175697557,0.7,0.0,0.0,379.0,844.0,0.0,1,187.0,1
850,850,-0.3500927667120872,-0.4,1.0,0.0,497.0,673.0,0.0,0,320.0,1
851,851,0.3502635787743217,0.4,0.0,0.0,317.0,754.0,0.0,1,149.0,1
852,852,0.17894902332317575,0.2,1.0,1.0,360.0,827.0,1.0,1,683.0,1
853,853,-0.18519462077421622,-0.2,0.0,1.0,312.0,883.0,1.0,0,245.0,1
854,854,0.07457517679496606,0.1,1.0,1.0,405.0,670.0,1.0,1,1925.0,1
855,855,0.4563116141316429,0.5,1.0,1.0,453.0,538.0,1.0,1,589.0,1
856,856,0.5636806641125628,0.6,0.0,0.0,322.0,761.0,0.0,1,207.0,1
857,857,0.5437729016782472,0.5,1.0,1.0,293.0,635.0,1.0,1,222.0,1
858,858,0.792399103367989,0.8,1.0,1.0,487.0,827.0,1.0,1,216.0,1
859,859,0.23106911822378173,0.2,0.0,0.0,315.0,545.0,0.0,1,630.0,1
860,860,-0.5537031813941876,-0.6,1.0,0.0,423.0,708.0,0.0,0,209.0,1
861,861,0.815957906683351,0.8,1.0,1.0,488.0,756.0,1.0,1,286.0,1
862,862,-0.06050875700862168,-0.1,0.0,1.0,368.0,622.0,1.0,0,630.0,1
863,863,-0.7938228541689835,-0.8,0.0,1.0,411.0,974.0,1.0,0,95.0,1
864,864,0.01763366014976031,0.0,0.0,0.0,430.0,541.0,0.0,1,1079.0,1
865,865,-0.37598637018147296,-0.4,1.0,0.0,338.0,541.0,0.0,0,241.0,1
866,866,-0.8453427098633229,-0.8,1.0,0.0,363.0,504.0,0.0,0,243.0,1
867,867,-0.7252291314938304,-0.7,1.0,0.0,292.0,764.0,0.0,0,254.0,1
868,868,-0.7064842987872688,-0.7,1.0,0.0,417.0,977.0,0.0,0,166.0,1
869,869,-0.06520410945176291,-0.1,1.0,0.0,413.0,666.0,0.0,0,361.0,1
870,870,-0.19816763674957538,-0.2,0.0,1.0,256.0,500.0,1.0,0,704.0,1
871,871,-0.47540496191998743,-0.5,1.0,0.0,347.0,565.0,0.0,0,248.0,1
872,872,-0.5586240166436095,-0.6,0.0,1.0,487.0,644.0,1.0,0,349.0,1
873,873,-0.53278701763954,-0.5,1.0,0.0,427.0,807.0,0.0,0,186.0,1
874,874,0.24363928401931323,0.2,0.0,0.0,498.0,733.0,0.0,1,339.0,1
875,875,-0.29024290148874865,-0.3,0.0,1.0,461.0,728.0,1.0,0,261.0,1
876,876,-0.7433898955540676,-0.7,1.0,0.0,298.0,559.0,0.0,0,273.0,1
877,877,0.6941961142169827,0.7,1.0,1.0,434.0,828.0,1.0,1,188.0,1
878,878,-0.4857706521382102,-0.5,1.0,0.0,388.0,757.0,0.0,0,215.0,1
879,879,0.38335193849075344,0.4,0.0,0.0,419.0,710.0,0.0,1,321.0,1
880,880,0.8904355023283969,0.9,0.0,0.0,310.0,926.0,0.0,1,164.0,1
881,881,-0.8372807523007569,-0.8,1.0,0.0,409.0,589.0,0.0,0,222.0,1
882,882,0.546316951283868,0.5,0.0,0.0,375.0,840.0,0.0,1,95.0,1
883,883,-0.1931398545784473,-0.2,1.0,0.0,320.0,715.0,0.0,0,255.0,1
884,884,0.10469150298025254,0.1,0.0,0.0,436.0,570.0,0.0,1,514.0,1
885,885,-0.7347204583523302,-0.7,1.0,0.0,358.0,833.0,0.0,0,199.0,1
886,886,0.7129863377226159,0.7,0.0,0.0,335.0,954.0,0.0,1,61.0,1
887,887,-0.49452266709450415,-0.5,1.0,0.0,253.0,887.0,0.0,0,180.0,1
888,888,0.8092139971465945,0.8,0.0,0.0,269.0,632.0,0.0,1,189.0,1
889,889,-0.2094259497327391,-0.2,0.0,1.0,468.0,686.0,1.0,0,356.0,1
890,890,-0.8650863174115644,-0.9,0.0,1.0,492.0,829.0,1.0,0,159.0,1
891,891,0.615749091218705,0.6,0.0,0.0,304.0,849.0,0.0,1,97.0,1
892,892,0.5594364204944499,0.6,0.0,0.0,487.0,836.0,0.0,1,167.0,1
893,893,-0.5640812763235264,-0.6,1.0,0.0,349.0,837.0,0.0,0,144.0,1
894,894,0.8104997400806958,0.8,0.0,0.0,289.0,757.0,0.0,1,134.0,1
895,895,0.4245770121134044,0.4,1.0,1.0,298.0,555.0,1.0,1,447.0,1
896,896,0.6040426783281266,0.6,0.0,0.0,333.0,569.0,0.0,1,258.0,1
897,897,0.1539154177159282,0.2,0.0,0.0,408.0,846.0,0.0,1,156.0,1
898,898,-0.42480838568452034,-0.4,0.0,1.0,481.0,839.0,1.0,0,190.0,1
899,899,-0.8849011305579988,-0.9,0.0,1.0,430.0,776.0,1.0,0,284.0,1
900,900,-0.5037571741413613,-0.5,1.0,0.0,302.0,509.0,0.0,0,429.0,1
901,901,-0.4355714336627905,-0.4,0.0,1.0,325.0,559.0,1.0,0,346.0,1
902,902,-0.7806930382963045,-0.8,0.0,1.0,373.0,771.0,1.0,0,346.0,1
903,903,-0.8661456455710941,-0.9,1.0,0.0,288.0,850.0,0.0,0,122.0,1
904,904,-0.8823892041439927,-0.9,0.0,1.0,468.0,551.0,1.0,0,321.0,1
905,905,0.826363998070253,0.8,0.0,0.0,311.0,866.0,0.0,1,163.0,1
906,906,0.6386239987900443,0.6,1.0,1.0,335.0,624.0,1.0,1,131.0,1
907,907,0.19690886542885944,0.2,0.0,0.0,314.0,739.0,0.0,1,227.0,1
908,908,0.7299546330551839,0.7,1.0,1.0,416.0,964.0,1.0,1,280.0,1
909,909,0.5586474828978022,0.6,0.0,0.0,454.0,828.0,0.0,1,178.0,1
910,910,-0.6613664423158592,-0.7,1.0,0.0,294.0,714.0,0.0,0,212.0,1
911,911,-0.2932918810026218,-0.3,0.0,1.0,388.0,521.0,1.0,0,451.0,1
912,912,-0.4819266276778486,-0.5,0.0,1.0,493.0,980.0,1.0,0,127.0,1
913,913,-0.32884624769970405,-0.3,0.0,1.0,273.0,645.0,1.0,0,402.0,1
914,914,-0.14520602118618287,-0.1,1.0,0.0,302.0,802.0,0.0,0,426.0,1
915,915,-0.32278784415854056,-0.3,0.0,1.0,490.0,983.0,1.0,0,207.0,1
916,916,0.6059754546306263,0.6,0.0,0.0,257.0,833.0,0.0,1,170.0,1
917,917,0.12195554324329516,0.1,1.0,1.0,298.0,506.0,1.0,1,2196.0,1
918,918,-0.3855792033069595,-0.4,1.0,0.0,435.0,862.0,0.0,0,143.0,1
919,919,-0.614503483504198,-0.6,1.0,0.0,410.0,751.0,0.0,0,129.0,1
920,920,0.31775499973167787,0.3,0.0,0.0,493.0,594.0,0.0,1,253.0,1
921,921,0.25904975144324094,0.3,1.0,1.0,266.0,742.0,1.0,1,532.0,1
922,922,0.1650704970604423,0.2,1.0,1.0,372.0,538.0,1.0,1,610.0,1
923,923,-0.8932594246679043,-0.9,1.0,0.0,406.0,875.0,0.0,0,179.0,1
924,924,0.3834150786461207,0.4,1.0,1.0,465.0,727.0,1.0,1,528.0,1
925,925,0.3043958052887802,0.3,0.0,0.0,419.0,597.0,0.0,1,224.0,1
926,926,-0.1980906269631244,-0.2,1.0,0.0,478.0,513.0,0.0,0,529.0,1
927,927,-0.20052429223650692,-0.2,1.0,0.0,287.0,698.0,0.0,0,395.0,1
928,928,0.511841912569082,0.5,1.0,1.0,315.0,737.0,1.0,1,158.0,1
929,929,-0.13683124590625384,-0.1,1.0,0.0,282.0,529.0,0.0,0,549.0,1
930,930,0.17401241802720147,0.2,1.0,1.0,400.0,732.0,1.0,1,1058.0,1
931,931,0.03588748745104764,0.0,0.0,0.0,275.0,748.0,0.0,1,417.0,1
932,932,0.8418320124960014,0.8,1.0,1.0,470.0,628.0,1.0,1,442.0,1
933,933,-0.41183977823624285,-0.4,1.0,0.0,360.0,895.0,0.0,0,375.0,1
934,934,-0.043925365200941036,-0.0,1.0,0.0,307.0,583.0,0.0,0,820.0,1
935,935,-0.30779834316583365,-0.3,0.0,1.0,338.0,575.0,1.0,0,597.0,1
936,936,0.6948302321855527,0.7,1.0,1.0,302.0,858.0,1.0,1,200.0,1
937,937,0.020697379620586265,0.0,1.0,1.0,479.0,969.0,0.0,0,322.0,0
938,938,-0.32860132171085066,-0.3,0.0,1.0,479.0,932.0,1.0,0,209.0,1
939,939,0.7498659030022959,0.7,0.0,0.0,483.0,606.0,0.0,1,171.0,1
940,940,-0.7291184490195823,-0.7,0.0,1.0,300.0,702.0,1.0,0,298.0,1
941,941,-0.6583293326884753,-0.7,1.0,0.0,253.0,793.0,0.0,0,194.0,1
942,942,-0.1507219293423453,-0.2,1.0,0.0,288.0,851.0,0.0,0,211.0,1
943,943,-0.37317697050873366,-0.4,0.0,1.0,459.0,836.0,1.0,0,135.0,1
944,944,-0.08609586011922155,-0.1,0.0,1.0,376.0,870.0,1.0,0,494.0,1
945,945,0.8367667099669721,0.8,0.0,0.0,481.0,671.0,0.0,1,238.0,1
946,946,0.05086088311904158,0.1,0.0,0.0,379.0,711.0,0.0,1,420.0,1
947,947,0.4093181458973866,0.4,1.0,1.0,392.0,675.0,1.0,1,303.0,1
948,948,0.527394709118587,0.5,0.0,0.0,311.0,975.0,0.0,1,74.0,1
949,949,0.505998847493326,0.5,1.0,1.0,417.0,940.0,1.0,1,343.0,1
950,950,0.2911183991408709,0.3,0.0,0.0,263.0,587.0,0.0,1,460.0,1
951,951,0.5087135494228018,0.5,1.0,1.0,445.0,677.0,1.0,1,398.0,1
952,952,-0.09273489755527253,-0.1,0.0,1.0,285.0,893.0,1.0,0,592.0,1
953,953,0.4976799009064833,0.5,1.0,1.0,352.0,805.0,1.0,1,343.0,1
954,954,-0.4318391150097435,-0.4,0.0,1.0,331.0,504.0,1.0,0,345.0,1
955,955,-0.14627629585211022,-0.1,1.0,0.0,451.0,913.0,0.0,0,656.0,1
956,956,-0.30715670306558485,-0.3,0.0,1.0,326.0,876.0,1.0,0,178.0,1
957,957,-0.1584593461708963,-0.2,0.0,1.0,434.0,589.0,1.0,0,507.0,1
958,958,-0.12275378000944548,-0.1,0.0,1.0,373.0,895.0,1.0,0,792.0,1
959,959,0.6373787488630628,0.6,0.0,0.0,259.0,773.0,0.0,1,158.0,1
960,960,0.5910067724371196,0.6,0.0,0.0,348.0,846.0,0.0,1,136.0,1
961,961,0.49654900023449244,0.5,1.0,1.0,404.0,978.0,1.0,1,238.0,1
962,962,-0.46298995141965743,-0.5,0.0,1.0,332.0,856.0,1.0,0,122.0,1
963,963,-0.17416742808555397,-0.2,1.0,0.0,259.0,721.0,0.0,0,300.0,1
964,964,-0.4891918307998215,-0.5,0.0,1.0,352.0,802.0,1.0,0,196.0,1
965,965,-0.5918514564830215,-0.6,0.0,1.0,435.0,889.0,1.0,0,186.0,1
966,966,-0.35942839138044624,-0.4,1.0,0.0,277.0,814.0,0.0,0,199.0,1
967,967,0.5958934490545361,0.6,0.0,0.0,423.0,960.0,0.0,1,237.0,1
968,968,-0.4220079991143447,-0.4,1.0,0.0,296.0,518.0,0.0,0,256.0,1
969,969,0.08073435020640596,0.1,0.0,0.0,431.0,719.0,0.0,1,370.0,1
970,970,-0.6334334232960177,-0.6,0.0,1.0,341.0,711.0,1.0,0,268.0,1
971,971,0.8231976757379406,0.8,0.0,0.0,363.0,826.0,0.0,1,141.0,1
972,972,-0.8779541782318098,-0.9,1.0,0.0,363.0,837.0,0.0,0,120.0,1
973,973,0.887263073434717,0.9,0.0,0.0,474.0,900.0,0.0,1,156.0,1
974,974,0.6570435710802757,0.7,0.0,0.0,368.0,535.0,0.0,1,227.0,1
975,975,-0.5890778119545768,-0.6,0.0,1.0,383.0,573.0,1.0,0,324.0,1
976,976,0.6076613183956677,0.6,1.0,1.0,380.0,702.0,1.0,1,238.0,1
977,977,0.4380701593148645,0.4,1.0,1.0,298.0,570.0,1.0,1,472.0,1
978,978,0.3075356144906237,0.3,1.0,1.0,486.0,661.0,1.0,1,1313.0,1
979,979,-0.8966504114601744,-0.9,1.0,0.0,460.0,678.0,0.0,0,152.0,1
980,980,-0.6579918370154454,-0.7,0.0,1.0,386.0,673.0,1.0,0,181.0,1
981,981,-0.64096842223779,-0.6,0.0,1.0,276.0,907.0,1.0,0,267.0,1
982,982,0.31532154872651785,0.3,1.0,1.0,469.0,629.0,1.0,1,372.0,1
983,983,0.6376044161848776,0.6,0.0,0.0,299.0,503.0,0.0,1,328.0,1
984,984,-0.3823774936228038,-0.4,0.0,1.0,436.0,534.0,1.0,0,390.0,1
985,985,0.7105792026132106,0.7,0.0,0.0,377.0,646.0,0.0,1,147.0,1
986,986,0.2775477799170557,0.3,1.0,1.0,476.0,869.0,1.0,1,475.0,1
987,987,0.8670902573050846,0.9,0.0,0.0,250.0,715.0,0.0,1,295.0,1
988,988,-0.06235013505647302,-0.1,0.0,1.0,409.0,726.0,1.0,0,1865.0,1
989,989,-0.18346626880449513,-0.2,0.0,1.0,413.0,516.0,1.0,0,621.0,1
990,990,0.5396400816658157,0.5,1.0,1.0,339.0,599.0,1.0,1,772.0,1
991,991,0.28990826022361615,0.3,1.0,1.0,310.0,934.0,1.0,1,346.0,1
992,992,0.08363961849958435,0.1,1.0,1.0,315.0,610.0,1.0,1,2075.0,1
993,993,0.20991546544572415,0.2,0.0,0.0,267.0,519.0,0.0,1,514.0,1
994,994,0.4084704583183155,0.4,0.0,0.0,358.0,698.0,0.0,1,294.0,1
995,995,-0.38762551006483925,-0.4,1.0,0.0,399.0,928.0,0.0,0,153.0,1
996,996,0.5518891713953616,0.6,1.0,1.0,456.0,942.0,1.0,1,312.0,1
997,997,0.5388636058017867,0.5,0.0,0.0,384.0,889.0,0.0,1,107.0,1
998,998,-0.06594626816770899,-0.1,0.0,1.0,491.0,914.0,1.0,0,635.0,1
999,999,-0.41315854817241593,-0.4,1.0,0.0,438.0,743.0,0.0,0,139.0,1
1000,1000,-0.33818591197530357,-0.3,1.0,0.0,488.0,850.0,0.0,0,172.0,1
1001,1001,0.28260582184580285,0.3,0.0,0.0,281.0,700.0,0.0,1,499.0,1
1002,1002,-0.828853026562111,-0.8,1.0,0.0,380.0,896.0,0.0,0,204.0,1
1003,1003,0.02328794199537021,0.0,0.0,0.0,425.0,876.0,0.0,1,409.0,1
1004,1004,-0.14016189225475206,-0.1,0.0,1.0,270.0,701.0,1.0,0,979.0,1
1005,1005,-0.8126168877140696,-0.8,1.0,0.0,367.0,761.0,0.0,0,152.0,1
1006,1006,-0.11605539757729644,-0.1,1.0,0.0,252.0,733.0,0.0,0,445.0,1
1007,1007,-0.445008514877876,-0.4,1.0,0.0,289.0,575.0,0.0,0,236.0,1
1008,1008,-0.8351202803736755,-0.8,1.0,0.0,488.0,680.0,0.0,0,92.0,1
1009,1009,0.8704286278443604,0.9,0.0,0.0,398.0,515.0,0.0,1,197.0,1
1010,1010,-0.13165720231266798,-0.1,0.0,1.0,468.0,524.0,1.0,0,1048.0,1
1011,1011,-0.016091626451030128,-0.0,0.0,1.0,370.0,821.0,0.0,1,1809.0,0
1012,1012,-0.5826184697737511,-0.6,1.0,0.0,339.0,771.0,0.0,0,190.0,1
1013,1013,-0.7776698068533019,-0.8,0.0,1.0,368.0,642.0,1.0,0,170.0,1
1014,1014,0.26431983776358925,0.3,0.0,0.0,420.0,968.0,0.0,1,252.0,1
1015,1015,-0.4077954311453813,-0.4,1.0,0.0,494.0,557.0,0.0,0,239.0,1
1016,1016,-0.5014095748850811,-0.5,0.0,1.0,430.0,623.0,1.0,0,277.0,1
1017,1017,-0.6964073662064537,-0.7,0.0,1.0,424.0,727.0,1.0,0,89.0,1
1018,1018,0.1813568833994782,0.2,0.0,0.0,421.0,977.0,0.0,1,282.0,1
1019,1019,0.11114741883525825,0.1,0.0,0.0,435.0,662.0,0.0,1,443.0,1
1020,1020,-0.2698939047196369,-0.3,0.0,1.0,407.0,712.0,1.0,0,251.0,1
1021,1021,0.058112262959505,0.1,0.0,0.0,337.0,703.0,0.0,1,390.0,1
1022,1022,-0.157574625422354,-0.2,1.0,0.0,403.0,627.0,0.0,0,420.0,1
1023,1023,-0.814250752334098,-0.8,1.0,0.0,404.0,764.0,0.0,0,202.0,1
1024,1024,-0.005394589064275923,-0.0,0.0,1.0,369.0,512.0,1.0,0,2119.0,1
1025,1025,-0.6198361767195769,-0.6,1.0,0.0,268.0,761.0,0.0,0,151.0,1
1026,1026,0.6164642715443683,0.6,0.0,0.0,333.0,638.0,0.0,1,209.0,1
1027,1027,0.46466013005596685,0.5,0.0,0.0,324.0,785.0,0.0,1,171.0,1
1028,1028,0.11654750421059756,0.1,1.0,1.0,420.0,955.0,1.0,1,1065.0,1
1029,1029,0.07691487298349997,0.1,0.0,0.0,349.0,659.0,0.0,1,532.0,1
1030,1030,0.2937182876868004,0.3,0.0,0.0,494.0,517.0,0.0,1,459.0,1
1031,1031,-0.5940937347231401,-0.6,0.0,1.0,338.0,864.0,1.0,0,108.0,1
1032,1032,0.25675530869470686,0.3,0.0,0.0,450.0,791.0,0.0,1,289.0,1
1033,1033,0.07809136082211399,0.1,0.0,0.0,324.0,534.0,0.0,1,382.0,1
1034,1034,0.033168024993164624,0.0,1.0,1.0,491.0,608.0,0.0,0,1901.0,0
1035,1035,-0.4774780335445771,-0.5,1.0,0.0,431.0,919.0,0.0,0,120.0,1
1036,1036,-0.8868255193681746,-0.9,1.0,0.0,487.0,901.0,0.0,0,292.0,1
1037,1037,-0.6780521934520324,-0.7,1.0,0.0,354.0,960.0,0.0,0,246.0,1
1038,1038,0.2744384160441705,0.3,1.0,1.0,259.0,574.0,1.0,1,507.0,1
1039,1039,0.11869234269718432,0.1,1.0,1.0,413.0,626.0,1.0,1,1961.0,1
1040,1040,-0.6417814568953482,-0.6,0.0,1.0,377.0,809.0,1.0,0,244.0,1
1041,1041,0.3225585497491833,0.3,1.0,1.0,449.0,766.0,1.0,1,455.0,1
1042,1042,-0.4545257330774624,-0.5,0.0,1.0,347.0,552.0,1.0,0,351.0,1
1043,1043,-0.4553257827095597,-0.5,1.0,0.0,314.0,568.0,0.0,0,358.0,1
1044,1044,0.7510521630954771,0.8,1.0,1.0,380.0,718.0,1.0,1,412.0,1
1045,1045,-0.07159054544630772,-0.1,0.0,1.0,294.0,605.0,1.0,0,421.0,1
1046,1046,0.7791181636159906,0.8,1.0,1.0,250.0,941.0,1.0,1,189.0,1
1047,1047,0.8897637618992976,0.9,1.0,1.0,262.0,955.0,1.0,1,103.0,1
1048,1048,-0.2894964821731145,-0.3,0.0,1.0,292.0,837.0,1.0,0,451.0,1
1049,1049,0.29201143022662224,0.3,1.0,1.0,282.0,973.0,0.0,0,-25.0,0
1050,1050,0.5531469124698553,0.6,1.0,1.0,455.0,835.0,1.0,1,250.0,1
1051,1051,0.48833541000331315,0.5,0.0,0.0,485.0,730.0,0.0,1,305.0,1
1052,1052,0.25781347161885015,0.3,0.0,0.0,334.0,562.0,0.0,1,454.0,1
1053,1053,0.07756185170657315,0.1,1.0,1.0,423.0,684.0,0.0,0,1893.0,0
1054,1054,0.3776094399038058,0.4,0.0,0.0,431.0,760.0,0.0,1,239.0,1
1055,1055,0.5960172477853677,0.6,0.0,0.0,469.0,549.0,0.0,1,132.0,1
1056,1056,-0.2752344298485181,-0.3,0.0,1.0,486.0,657.0,1.0,0,227.0,1
1057,1057,0.18219869103335873,0.2,1.0,1.0,375.0,964.0,1.0,1,881.0,1
1058,1058,0.24856269187987745,0.2,0.0,0.0,461.0,630.0,0.0,1,469.0,1
1059,1059,0.17064297303180898,0.2,1.0,1.0,258.0,740.0,1.0,1,372.0,1
1060,1060,-0.22037443833725057,-0.2,0.0,1.0,417.0,506.0,1.0,0,397.0,1
1061,1061,0.5082116038110559,0.5,1.0,1.0,312.0,905.0,1.0,1,553.0,1
1062,1062,-0.527473736179471,-0.5,1.0,0.0,266.0,639.0,0.0,0,245.0,1
1063,1063,0.3266350058433306,0.3,0.0,0.0,392.0,903.0,0.0,1,245.0,1
1064,1064,0.097591149779377,0.1,0.0,0.0,434.0,775.0,0.0,1,541.0,1
1065,1065,0.4188468407895757,0.4,0.0,0.0,433.0,894.0,0.0,1,213.0,1
1066,1066,-0.13291042094168537,-0.1,0.0,1.0,326.0,663.0,1.0,0,621.0,1
1067,1067,0.21210310322629067,0.2,1.0,1.0,335.0,571.0,1.0,1,1004.0,1
1068,1068,-0.13195951547399032,-0.1,1.0,0.0,418.0,578.0,0.0,0,684.0,1
1069,1069,0.6354972575102457,0.6,0.0,0.0,329.0,922.0,0.0,1,109.0,1
1070,1070,-0.7302649724431923,-0.7,1.0,0.0,361.0,750.0,0.0,0,279.0,1
1071,1071,0.36513001331690254,0.4,0.0,0.0,307.0,688.0,0.0,1,275.0,1
1072,1072,-0.7353897601048944,-0.7,1.0,0.0,325.0,549.0,0.0,0,256.0,1
1073,1073,-0.4707312461329565,-0.5,1.0,0.0,416.0,525.0,0.0,0,299.0,1
1074,1074,0.6892164956820056,0.7,1.0,1.0,346.0,801.0,1.0,1,183.0,1
1075,1075,0.2915444582807841,0.3,0.0,0.0,379.0,509.0,0.0,1,432.0,1
1076,1076,-0.8821833269341154,-0.9,0.0,1.0,361.0,625.0,1.0,0,224.0,1
1077,1077,-0.404573997631493,-0.4,0.0,1.0,461.0,762.0,1.0,0,207.0,1
1078,1078,0.36889813185721787,0.4,1.0,1.0,308.0,623.0,1.0,1,439.0,1
1079,1079,-0.34464924851064893,-0.3,0.0,1.0,406.0,530.0,1.0,0,514.0,1
1080,1080,-0.7685324475268634,-0.8,0.0,1.0,305.0,518.0,1.0,0,347.0,1
1081,1081,-0.6300928192193327,-0.6,0.0,1.0,346.0,821.0,1.0,0,303.0,1
1082,1082,-0.31575103361051815,-0.3,1.0,0.0,403.0,772.0,0.0,0,115.0,1
1083,1083,-0.4759753020504993,-0.5,1.0,0.0,328.0,510.0,0.0,0,312.0,1
1084,1084,0.1295298286769061,0.1,0.0,0.0,482.0,541.0,0.0,1,617.0,1
1085,1085,0.7538320064383154,0.8,1.0,1.0,366.0,969.0,1.0,1,225.0,1
1086,1086,0.23706243973429897,0.2,1.0,1.0,388.0,870.0,1.0,1,472.0,1
1087,1087,0.13485026799271338,0.1,1.0,1.0,300.0,977.0,1.0,1,783.0,1
1088,1088,0.41538697788556533,0.4,1.0,1.0,462.0,836.0,1.0,1,312.0,1
1089,1089,0.08245921560583402,0.1,1.0,1.0,325.0,552.0,1.0,1,2123.0,1
1090,1090,0.28290876876673166,0.3,0.0,0.0,343.0,942.0,0.0,1,185.0,1
1091,1091,0.7408461320562697,0.7,0.0,0.0,380.0,768.0,0.0,1,272.0,1
1092,1092,0.4986157980835685,0.5,0.0,0.0,337.0,606.0,0.0,1,367.0,1
1093,1093,-0.8819342000329458,-0.9,0.0,1.0,429.0,979.0,1.0,0,102.0,1
1094,1094,0.5877431933741594,0.6,1.0,1.0,436.0,654.0,1.0,1,300.0,1
1095,1095,-0.06176523481043106,-0.1,1.0,0.0,491.0,998.0,0.0,0,91.0,1
1096,1096,0.7135388791993679,0.7,1.0,1.0,327.0,963.0,0.0,0,-80.0,0
1097,1097,-0.1390421490190008,-0.1,1.0,0.0,338.0,521.0,0.0,0,661.0,1
1098,1098,-0.3698364662672836,-0.4,0.0,1.0,258.0,732.0,1.0,0,370.0,1
1099,1099,-0.45582911185802005,-0.5,0.0,1.0,498.0,703.0,1.0,0,329.0,1
1100,1100,0.6499501644116997,0.6,0.0,0.0,400.0,622.0,0.0,1,268.0,1
1101,1101,-0.5477843674759316,-0.5,0.0,1.0,351.0,832.0,1.0,0,267.0,1
1102,1102,-0.24479839400828518,-0.2,0.0,1.0,283.0,537.0,1.0,0,640.0,1
1103,1103,0.7643788217644453,0.8,1.0,1.0,475.0,836.0,1.0,1,389.0,1
1104,1104,0.39405396585793484,0.4,0.0,0.0,307.0,535.0,0.0,1,518.0,1
1105,1105,-0.5588641857828842,-0.6,1.0,0.0,318.0,710.0,0.0,0,82.0,1
1106,1106,-0.15538841772994438,-0.2,1.0,0.0,472.0,829.0,0.0,0,159.0,1
1107,1107,-0.20829390301844908,-0.2,0.0,1.0,313.0,512.0,1.0,0,375.0,1
1108,1108,0.6639617486245512,0.7,1.0,1.0,400.0,633.0,1.0,1,337.0,1
1109,1109,-0.6665604959793054,-0.7,1.0,0.0,455.0,908.0,0.0,0,247.0,1
1110,1110,0.6334594129622878,0.6,1.0,1.0,318.0,915.0,1.0,1,197.0,1
1111,1111,0.7933467687825381,0.8,0.0,0.0,322.0,969.0,0.0,1,59.0,1
1112,1112,0.1001039487517662,0.1,0.0,0.0,302.0,503.0,0.0,1,745.0,1
1113,1113,-0.572782661924206,-0.6,0.0,1.0,398.0,689.0,1.0,0,163.0,1
1114,1114,-0.2187576632631465,-0.2,0.0,1.0,276.0,764.0,1.0,0,450.0,1
1115,1115,-0.7701538865570706,-0.8,0.0,1.0,380.0,671.0,1.0,0,159.0,1
1116,1116,0.7699304545605344,0.8,0.0,0.0,431.0,781.0,0.0,1,218.0,1
1117,1117,-0.48549846975299543,-0.5,1.0,0.0,325.0,734.0,0.0,0,241.0,1
1118,1118,0.4977972199828119,0.5,1.0,1.0,385.0,808.0,1.0,1,317.0,1
1119,1119,-0.17186412517924443,-0.2,1.0,0.0,383.0,726.0,0.0,0,121.0,1
1120,1120,0.48578235786586366,0.5,0.0,0.0,321.0,999.0,0.0,1,170.0,1
1121,1121,0.21492056528623904,0.2,1.0,1.0,412.0,839.0,1.0,1,649.0,1
1122,1122,0.45980287499872696,0.5,1.0,1.0,459.0,887.0,1.0,1,74.0,1
1123,1123,-0.010430807291178734,-0.0,0.0,1.0,471.0,756.0,1.0,0,993.0,1
1124,1124,-0.6612716123925857,-0.7,0.0,1.0,438.0,701.0,1.0,0,261.0,1
1125,1125,-0.519674538503968,-0.5,0.0,1.0,413.0,702.0,1.0,0,325.0,1
1126,1126,-0.7451186218258813,-0.7,1.0,0.0,293.0,856.0,0.0,0,351.0,1
1127,1127,-0.23594669696064396,-0.2,1.0,0.0,490.0,503.0,0.0,0,187.0,1
1128,1128,0.3298685480396718,0.3,0.0,0.0,400.0,684.0,0.0,1,346.0,1
1129,1129,-0.7502482550447986,-0.8,0.0,1.0,326.0,803.0,1.0,0,251.0,1
1130,1130,0.3739027433818819,0.4,1.0,1.0,432.0,711.0,1.0,1,767.0,1
1131,1131,0.6844684696761473,0.7,1.0,1.0,378.0,992.0,1.0,1,160.0,1
1132,1132,0.4434788072819308,0.4,0.0,0.0,390.0,960.0,0.0,1,120.0,1
1133,1133,0.7204378568981854,0.7,0.0,0.0,318.0,880.0,0.0,1,172.0,1
1134,1134,-0.24062466885816425,-0.2,1.0,0.0,450.0,616.0,0.0,0,434.0,1
1135,1135,-0.5188660121133848,-0.5,1.0,0.0,418.0,956.0,0.0,0,26.0,1
1136,1136,-0.5082063523305944,-0.5,0.0,1.0,294.0,730.0,1.0,0,366.0,1
1137,1137,0.41213943706505873,0.4,1.0,1.0,437.0,931.0,1.0,1,272.0,1
1138,1138,0.5099994612703168,0.5,1.0,1.0,379.0,946.0,1.0,1,285.0,1
1139,1139,0.5684603283796664,0.6,1.0,1.0,250.0,548.0,1.0,1,312.0,1
1140,1140,-0.4052871045841456,-0.4,0.0,1.0,342.0,958.0,1.0,0,150.0,1
1141,1141,-0.4320637515045428,-0.4,1.0,0.0,436.0,616.0,0.0,0,348.0,1
1142,1142,-0.7565797276810886,-0.8,0.0,1.0,364.0,518.0,1.0,0,258.0,1
1143,1143,-0.792552158899657,-0.8,0.0,1.0,451.0,723.0,1.0,0,186.0,1
1144,1144,0.1802160147291728,0.2,1.0,1.0,335.0,999.0,1.0,1,1176.0,1
1145,1145,-0.1789284591717727,-0.2,1.0,0.0,486.0,917.0,0.0,0,307.0,1
1146,1146,0.35555014141309405,0.4,1.0,1.0,408.0,605.0,1.0,1,687.0,1
1147,1147,0.24438651845814696,0.2,1.0,1.0,363.0,527.0,1.0,1,1280.0,1
1148,1148,0.08375934636265736,0.1,0.0,0.0,318.0,758.0,0.0,1,634.0,1
1149,1149,0.621856193831258,0.6,0.0,0.0,275.0,958.0,0.0,1,177.0,1
1150,1150,0.8181584811376531,0.8,1.0,1.0,256.0,919.0,1.0,1,285.0,1
1151,1151,-0.49428674179153076,-0.5,1.0,0.0,387.0,546.0,0.0,0,317.0,1
1152,1152,0.693496710001931,0.7,1.0,1.0,490.0,626.0,1.0,1,344.0,1
1153,1153,-0.6398365661379714,-0.6,0.0,1.0,455.0,693.0,1.0,0,132.0,1
1154,1154,0.46854562953645706,0.5,0.0,0.0,310.0,960.0,0.0,1,120.0,1
1155,1155,0.48096722203023734,0.5,1.0,1.0,466.0,825.0,1.0,1,229.0,1
1156,1156,0.2460438761414111,0.2,1.0,1.0,364.0,734.0,1.0,1,532.0,1
1157,1157,-0.3817390768609431,-0.4,1.0,0.0,374.0,720.0,0.0,0,216.0,1
1158,1158,0.499528525932721,0.5,1.0,1.0,419.0,946.0,1.0,1,225.0,1
1159,1159,-0.2761521346619693,-0.3,0.0,1.0,338.0,699.0,1.0,0,553.0,1
1160,1160,-0.4522212577695551,-0.5,1.0,0.0,323.0,527.0,0.0,0,310.0,1
1161,1161,0.3330661946593295,0.3,0.0,0.0,323.0,614.0,0.0,1,253.0,1
1162,1162,0.3116087323657434,0.3,1.0,1.0,452.0,873.0,1.0,1,495.0,1
1163,1163,-0.7927082000809004,-0.8,1.0,0.0,312.0,621.0,0.0,0,127.0,1
1164,1164,0.41493640563935485,0.4,1.0,1.0,282.0,808.0,1.0,1,450.0,1
1165,1165,0.17806448417427012,0.2,1.0,1.0,402.0,623.0,1.0,1,705.0,1
1166,1166,-0.11159695748898335,-0.1,1.0,0.0,445.0,608.0,0.0,0,247.0,1
1167,1167,-0.14331972367586432,-0.1,0.0,1.0,313.0,956.0,1.0,0,211.0,1
1168,1168,0.738282670131683,0.7,1.0,1.0,258.0,762.0,1.0,1,170.0,1
1169,1169,-0.8134146060906304,-0.8,0.0,1.0,438.0,934.0,1.0,0,188.0,1
1170,1170,-0.46383566020152295,-0.5,1.0,0.0,364.0,543.0,0.0,0,233.0,1
1171,1171,0.2586550848447525,0.3,0.0,0.0,467.0,831.0,0.0,1,252.0,1
1172,1172,0.8402177803381391,0.8,0.0,0.0,288.0,694.0,0.0,1,98.0,1
1173,1173,0.4902288230741835,0.5,0.0,0.0,477.0,562.0,0.0,1,201.0,1
1174,1174,0.38583919781934817,0.4,1.0,1.0,252.0,866.0,1.0,1,312.0,1
1175,1175,-0.8317384092793437,-0.8,1.0,0.0,436.0,500.0,0.0,0,234.0,1
1176,1176,0.23907884424535364,0.2,0.0,0.0,383.0,725.0,0.0,1,452.0,1
1177,1177,-0.7343428685192478,-0.7,0.0,1.0,370.0,743.0,1.0,0,217.0,1
1178,1178,0.6215239624703547,0.6,0.0,0.0,486.0,882.0,0.0,1,132.0,1
1179,1179,-0.04135901855731461,-0.0,0.0,1.0,348.0,612.0,0.0,1,860.0,0
1180,1180,0.2381545168561291,0.2,1.0,1.0,387.0,675.0,1.0,1,848.0,1
1181,1181,-0.8582678182713679,-0.9,0.0,1.0,262.0,782.0,1.0,0,86.0,1
1182,1182,-0.17687313453116382,-0.2,1.0,0.0,419.0,556.0,0.0,0,515.0,1
1183,1183,0.45661535175662504,0.5,0.0,0.0,295.0,825.0,0.0,1,160.0,1
1184,1184,0.8248377090515479,0.8,0.0,0.0,292.0,768.0,0.0,1,260.0,1
1185,1185,0.7858488428110418,0.8,0.0,0.0,431.0,664.0,0.0,1,175.0,1
1186,1186,-0.17231434927860045,-0.2,1.0,0.0,392.0,749.0,0.0,0,549.0,1
1187,1187,-0.6544813798747291,-0.7,1.0,0.0,491.0,844.0,0.0,0,115.0,1
1188,1188,-0.508683140019206,-0.5,1.0,0.0,405.0,655.0,0.0,0,280.0,1
1189,1189,-0.5481419059584913,-0.5,1.0,0.0,379.0,589.0,0.0,0,172.0,1
1190,1190,-0.5161964345815759,-0.5,0.0,1.0,415.0,903.0,1.0,0,162.0,1
1191,1191,0.5948026525222562,0.6,1.0,1.0,434.0,521.0,1.0,1,215.0,1
1192,1192,-0.1960586640080304,-0.2,1.0,0.0,347.0,580.0,0.0,0,603.0,1
1193,1193,0.584719415554528,0.6,0.0,0.0,494.0,622.0,0.0,1,324.0,1
1194,1194,-0.11347354776591723,-0.1,0.0,1.0,311.0,811.0,1.0,0,318.0,1
1195,1195,-0.48162578400603645,-0.5,1.0,0.0,252.0,660.0,0.0,0,298.0,1
1196,1196,0.5382005537256257,0.5,1.0,1.0,418.0,756.0,1.0,1,196.0,1
1197,1197,-0.38161894882364755,-0.4,0.0,1.0,253.0,513.0,1.0,0,584.0,1
1198,1198,-0.3839236196416036,-0.4,0.0,1.0,391.0,785.0,1.0,0,444.0,1
1199,1199,-0.5152256807517522,-0.5,0.0,1.0,476.0,860.0,1.0,0,234.0,1
1200,1200,0.24383162756117527,0.2,1.0,1.0,480.0,934.0,1.0,1,406.0,1
1201,1201,-0.311578072645319,-0.3,0.0,1.0,333.0,593.0,1.0,0,374.0,1
1202,1202,0.8501146741620823,0.9,0.0,0.0,343.0,530.0,0.0,1,157.0,1
1203,1203,0.15163312808867524,0.2,1.0,1.0,384.0,854.0,1.0,1,992.0,1
1204,1204,0.5601540707728513,0.6,1.0,1.0,482.0,959.0,1.0,1,349.0,1
1205,1205,0.1887113319144581,0.2,1.0,1.0,471.0,691.0,1.0,1,468.0,1
1206,1206,0.49358374759327395,0.5,1.0,1.0,417.0,590.0,1.0,1,463.0,1
1207,1207,0.36619731901489516,0.4,0.0,0.0,467.0,657.0,0.0,1,236.0,1
1208,1208,-0.7087603470266252,-0.7,0.0,1.0,490.0,802.0,1.0,0,168.0,1
1209,1209,0.36385141538493115,0.4,0.0,0.0,374.0,923.0,0.0,1,63.0,1
1210,1210,-0.2252522617542182,-0.2,1.0,0.0,307.0,693.0,0.0,0,420.0,1
1211,1211,0.8455005664622047,0.8,0.0,0.0,477.0,714.0,0.0,1,149.0,1
1212,1212,-0.22070824939791278,-0.2,0.0,1.0,494.0,836.0,1.0,0,540.0,1
1213,1213,-0.050069436007528556,-0.1,1.0,0.0,331.0,722.0,0.0,0,837.0,1
1214,1214,0.3246601491245861,0.3,1.0,1.0,492.0,660.0,1.0,1,688.0,1
1215,1215,-0.5292960408834964,-0.5,0.0,1.0,466.0,773.0,1.0,0,191.0,1
1216,1216,0.22060684679266263,0.2,0.0,0.0,461.0,683.0,0.0,1,486.0,1
1217,1217,-0.42290593170443935,-0.4,0.0,1.0,424.0,654.0,1.0,0,332.0,1
1218,1218,0.1445458546145656,0.1,0.0,0.0,338.0,677.0,0.0,1,495.0,1
1219,1219,-0.09786142174510881,-0.1,1.0,0.0,371.0,810.0,0.0,0,399.0,1
1220,1220,0.14773355050853765,0.1,0.0,0.0,475.0,652.0,0.0,1,453.0,1
1221,1221,0.8045190364298455,0.8,0.0,0.0,293.0,953.0,0.0,1,124.0,1
1222,1222,-0.6970493182937739,-0.7,1.0,0.0,302.0,913.0,0.0,0,25.0,1
1223,1223,0.21078693258072356,0.2,0.0,0.0,403.0,899.0,0.0,1,638.0,1
1224,1224,0.49127420888615514,0.5,0.0,0.0,289.0,599.0,0.0,1,222.0,1
1225,1225,-0.21735968853007326,-0.2,0.0,1.0,315.0,722.0,1.0,0,413.0,1
1226,1226,0.06161057788148239,0.1,1.0,1.0,432.0,651.0,0.0,0,1917.0,0
1227,1227,-0.0689891903131643,-0.1,1.0,0.0,414.0,939.0,0.0,0,367.0,1
1228,1228,0.23093452873040887,0.2,1.0,1.0,408.0,600.0,1.0,1,402.0,1
1229,1229,0.5935873761435623,0.6,1.0,1.0,254.0,921.0,1.0,1,245.0,1
1230,1230,0.7029061621984277,0.7,0.0,0.0,414.0,663.0,0.0,1,343.0,1
1231,1231,0.8747025895893,0.9,1.0,1.0,460.0,659.0,1.0,1,781.0,1
1232,1232,0.22381991832796244,0.2,1.0,1.0,276.0,684.0,1.0,1,960.0,1
1233,1233,-0.4480626035616863,-0.4,1.0,0.0,468.0,928.0,0.0,0,154.0,1
1234,1234,0.45191600451835956,0.5,0.0,0.0,432.0,746.0,0.0,1,212.0,1
1235,1235,-0.15014518019443834,-0.2,1.0,0.0,472.0,796.0,0.0,0,72.0,1
1236,1236,-0.30122570609630395,-0.3,0.0,1.0,439.0,511.0,1.0,0,350.0,1
1237,1237,-0.5067833437942459,-0.5,0.0,1.0,275.0,727.0,1.0,0,318.0,1
1238,1238,0.860797831454467,0.9,0.0,0.0,300.0,921.0,0.0,1,209.0,1
1239,1239,0.25615621265224287,0.3,1.0,1.0,326.0,817.0,1.0,1,597.0,1
1240,1240,-0.39901306547561144,-0.4,0.0,1.0,439.0,857.0,1.0,0,254.0,1
1241,1241,0.4104172413444934,0.4,0.0,0.0,347.0,889.0,0.0,1,234.0,1
1242,1242,-0.23812897936362087,-0.2,1.0,0.0,441.0,862.0,0.0,0,227.0,1
1243,1243,0.04543654909819117,0.0,0.0,0.0,453.0,646.0,0.0,1,961.0,1
1244,1244,-0.8638212684790292,-0.9,1.0,0.0,344.0,782.0,0.0,0,194.0,1
1245,1245,-0.259039306537469,-0.3,1.0,0.0,368.0,983.0,0.0,0,159.0,1
1246,1246,0.8805540407764171,0.9,0.0,0.0,320.0,860.0,0.0,1,100.0,1
1247,1247,-0.16764238076701765,-0.2,1.0,0.0,463.0,779.0,0.0,0,438.0,1
1248,1248,-0.30418688612243683,-0.3,1.0,0.0,360.0,547.0,0.0,0,333.0,1
1249,1249,-0.5912005659887133,-0.6,0.0,1.0,377.0,671.0,1.0,0,232.0,1
1250,1250,-0.7183248898755628,-0.7,0.0,1.0,268.0,823.0,1.0,0,169.0,1
1251,1251,-0.2677053884956079,-0.3,0.0,1.0,309.0,996.0,1.0,0,245.0,1
1252,1252,-0.6009123381972594,-0.6,0.0,1.0,311.0,972.0,1.0,0,187.0,1
1253,1253,-0.8093500846729619,-0.8,1.0,0.0,416.0,581.0,0.0,0,113.0,1
1254,1254,0.10439540933213232,0.1,1.0,1.0,454.0,683.0,1.0,1,1863.0,1
1255,1255,0.18811820814683677,0.2,1.0,1.0,416.0,703.0,1.0,1,431.0,1
1256,1256,-0.8227689427477192,-0.8,0.0,1.0,401.0,696.0,1.0,0,173.0,1
1257,1257,0.631665848207719,0.6,0.0,0.0,484.0,710.0,0.0,1,316.0,1
1258,1258,-0.3819592604963984,-0.4,0.0,1.0,463.0,607.0,1.0,0,470.0,1
1259,1259,-0.5604188856366323,-0.6,1.0,0.0,394.0,513.0,0.0,0,323.0,1
1260,1260,0.7450240611221856,0.7,1.0,1.0,424.0,687.0,1.0,1,239.0,1
1261,1261,0.291317804617771,0.3,1.0,1.0,425.0,619.0,1.0,1,916.0,1
1262,1262,0.3727011508001573,0.4,0.0,0.0,388.0,622.0,0.0,1,210.0,1
1263,1263,-0.8742675986376086,-0.9,0.0,1.0,437.0,904.0,1.0,0,309.0,1
1264,1264,-0.6716399879584876,-0.7,1.0,0.0,401.0,999.0,0.0,0,-10.0,1
1265,1265,0.029303873510172163,0.0,0.0,0.0,250.0,894.0,0.0,1,1096.0,1
1266,1266,-0.32366727161325004,-0.3,0.0,1.0,308.0,878.0,1.0,0,204.0,1
1267,1267,-0.10097657106950275,-0.1,0.0,1.0,367.0,878.0,1.0,0,1115.0,1
1268,1268,-0.021191621573834696,-0.0,1.0,0.0,485.0,878.0,0.0,0,347.0,1
1269,1269,-0.7006738541418092,-0.7,0.0,1.0,413.0,533.0,1.0,0,294.0,1
1270,1270,0.09974811352732893,0.1,0.0,0.0,255.0,732.0,0.0,1,733.0,1
1271,1271,0.19835726726267822,0.2,0.0,0.0,260.0,757.0,0.0,1,243.0,1
1272,1272,-0.42236623542976454,-0.4,1.0,0.0,380.0,698.0,0.0,0,292.0,1
1273,1273,0.7406469696171035,0.7,0.0,0.0,485.0,968.0,0.0,1,167.0,1
1274,1274,0.5916545362841555,0.6,1.0,1.0,333.0,604.0,1.0,1,323.0,1
1275,1275,0.417643905185472,0.4,1.0,1.0,450.0,605.0,1.0,1,665.0,1
1276,1276,-0.47137770166656623,-0.5,1.0,0.0,359.0,541.0,0.0,0,210.0,1
1277,1277,0.8583204185682384,0.9,0.0,0.0,289.0,854.0,0.0,1,97.0,1
1278,1278,0.294790187324086,0.3,1.0,1.0,284.0,933.0,1.0,1,433.0,1
1279,1279,0.43403214112081845,0.4,1.0,1.0,494.0,754.0,1.0,1,462.0,1
1280,1280,-0.16453205668374082,-0.2,0.0,1.0,450.0,863.0,1.0,0,717.0,1
1281,1281,-0.6661264553386357,-0.7,0.0,1.0,439.0,781.0,1.0,0,190.0,1
1282,1282,-0.5912443507685169,-0.6,1.0,0.0,334.0,535.0,0.0,0,311.0,1
1283,1283,0.7196368085164008,0.7,1.0,1.0,294.0,884.0,1.0,1,202.0,1
1284,1284,-0.7108640879734689,-0.7,1.0,0.0,277.0,571.0,0.0,0,152.0,1
1285,1285,0.6864654431238298,0.7,1.0,1.0,378.0,682.0,1.0,1,250.0,1
1286,1286,-0.6566575041159557,-0.7,0.0,1.0,318.0,821.0,1.0,0,101.0,1
1287,1287,0.6183052923746845,0.6,1.0,1.0,315.0,631.0,1.0,1,534.0,1
1288,1288,0.75122168719725,0.8,1.0,1.0,447.0,535.0,1.0,1,328.0,1
1289,1289,0.505438676379328,0.5,1.0,1.0,305.0,881.0,1.0,1,234.0,1
1290,1290,0.07678525409428649,0.1,1.0,1.0,355.0,788.0,0.0,0,917.0,0
1291,1291,0.4953539518941442,0.5,0.0,0.0,494.0,599.0,0.0,1,247.0,1
1292,1292,0.575714067723358,0.6,0.0,0.0,348.0,733.0,0.0,1,139.0,1
1293,1293,0.0827950972317879,0.1,0.0,0.0,346.0,598.0,0.0,1,576.0,1
1294,1294,-0.26630555040647186,-0.3,0.0,1.0,321.0,986.0,1.0,0,253.0,1
1295,1295,0.692101869436392,0.7,0.0,0.0,375.0,527.0,0.0,1,428.0,1
1296,1296,0.39950786317817466,0.4,1.0,1.0,378.0,839.0,1.0,1,293.0,1
1297,1297,-0.7505757389787857,-0.8,1.0,0.0,396.0,926.0,0.0,0,128.0,1
1298,1298,0.10653858694355522,0.1,1.0,1.0,283.0,637.0,1.0,1,2080.0,1
1299,1299,-0.8563582101276241,-0.9,0.0,1.0,305.0,846.0,1.0,0,109.0,1
1300,1300,-0.09083273077064868,-0.1,0.0,1.0,366.0,508.0,1.0,0,716.0,1
1301,1301,-0.6356211514492138,-0.6,0.0,1.0,379.0,706.0,1.0,0,195.0,1
1302,1302,-0.7913281773346563,-0.8,1.0,0.0,285.0,693.0,0.0,0,92.0,1
1303,1303,0.39154108494691664,0.4,1.0,1.0,305.0,695.0,1.0,1,270.0,1
1304,1304,0.4058966831605749,0.4,0.0,0.0,310.0,506.0,0.0,1,474.0,1
1305,1305,-0.7765601276513756,-0.8,0.0,1.0,407.0,922.0,1.0,0,91.0,1
1306,1306,0.8066470092656491,0.8,0.0,0.0,487.0,955.0,0.0,1,148.0,1
1307,1307,-0.2918991960749099,-0.3,1.0,0.0,410.0,918.0,0.0,0,182.0,1
1308,1308,-0.5771216293810901,-0.6,0.0,1.0,472.0,573.0,1.0,0,285.0,1
1309,1309,0.7087975983312435,0.7,1.0,1.0,329.0,651.0,1.0,1,310.0,1
1310,1310,-0.04623709506116069,-0.0,0.0,1.0,262.0,567.0,1.0,0,1141.0,1
1311,1311,0.5450057218042229,0.5,0.0,0.0,356.0,938.0,0.0,1,186.0,1
1312,1312,-0.21747849457212776,-0.2,1.0,0.0,409.0,905.0,0.0,0,276.0,1
1313,1313,-0.8926417578897653,-0.9,0.0,1.0,393.0,679.0,1.0,0,98.0,1
1314,1314,0.4783321903568093,0.5,1.0,1.0,329.0,794.0,1.0,1,367.0,1
1315,1315,0.6378870889500633,0.6,0.0,0.0,415.0,711.0,0.0,1,314.0,1
1316,1316,-0.40870764900585815,-0.4,0.0,1.0,400.0,798.0,1.0,0,272.0,1
1317,1317,-0.6520744497797034,-0.7,0.0,1.0,429.0,752.0,1.0,0,179.0,1
1318,1318,-0.7106786738791132,-0.7,0.0,1.0,390.0,961.0,1.0,0,169.0,1
1319,1319,-0.5313982776788797,-0.5,1.0,0.0,314.0,825.0,0.0,0,101.0,1
1320,1320,-0.5692545897849586,-0.6,0.0,1.0,378.0,586.0,1.0,0,266.0,1
1321,1321,-0.3611414442634222,-0.4,1.0,0.0,264.0,658.0,0.0,0,248.0,1
1322,1322,0.6332593116650737,0.6,1.0,1.0,424.0,996.0,1.0,1,190.0,1
1323,1323,-0.5311028081161907,-0.5,1.0,0.0,479.0,724.0,0.0,0,187.0,1
1324,1324,0.1118923919912268,0.1,0.0,0.0,446.0,834.0,0.0,1,470.0,1
1325,1325,0.7808284118844105,0.8,1.0,1.0,422.0,949.0,1.0,1,279.0,1
1326,1326,-0.11539626528228908,-0.1,0.0,1.0,478.0,703.0,1.0,0,479.0,1
1327,1327,0.5389870005329233,0.5,1.0,1.0,498.0,787.0,1.0,1,475.0,1
1328,1328,-0.7723485352275957,-0.8,1.0,0.0,262.0,556.0,0.0,0,222.0,1
1329,1329,-0.5770019442229529,-0.6,1.0,0.0,349.0,933.0,0.0,0,158.0,1
1330,1330,-0.5185293873253425,-0.5,0.0,1.0,466.0,887.0,1.0,0,197.0,1
1331,1331,-0.43451122694953304,-0.4,1.0,0.0,392.0,774.0,0.0,0,174.0,1
1332,1332,-0.7960334859367428,-0.8,0.0,1.0,499.0,936.0,1.0,0,105.0,1
1333,1333,-0.8166085324704582,-0.8,1.0,0.0,357.0,609.0,0.0,0,154.0,1
1334,1334,0.4628967759995345,0.5,0.0,0.0,313.0,670.0,0.0,1,317.0,1
1335,1335,0.08601834815170528,0.1,0.0,0.0,474.0,702.0,0.0,1,404.0,1
1336,1336,0.7014723608345558,0.7,1.0,1.0,281.0,802.0,1.0,1,127.0,1
1337,1337,0.41866248062632294,0.4,1.0,1.0,310.0,799.0,1.0,1,291.0,1
1338,1338,0.21430948269795247,0.2,1.0,1.0,456.0,806.0,1.0,1,458.0,1
1339,1339,0.18929717800738766,0.2,0.0,0.0,266.0,805.0,0.0,1,339.0,1
1340,1340,-0.16275160813162237,-0.2,1.0,0.0,274.0,512.0,0.0,0,534.0,1
1341,1341,0.20124326443055718,0.2,0.0,0.0,392.0,659.0,0.0,1,569.0,1
1342,1342,0.6845080673876823,0.7,1.0,1.0,250.0,778.0,1.0,1,162.0,1
1343,1343,0.8765141899829657,0.9,1.0,1.0,438.0,605.0,1.0,1,447.0,1
1344,1344,-0.4450562574498864,-0.4,1.0,0.0,388.0,550.0,0.0,0,282.0,1
1345,1345,-0.09293112799841252,-0.1,0.0,1.0,374.0,718.0,1.0,0,1038.0,1
1346,1346,0.3984556072720885,0.4,0.0,0.0,437.0,612.0,0.0,1,471.0,1
1347,1347,0.1311861186793063,0.1,0.0,0.0,491.0,851.0,0.0,1,718.0,1
1348,1348,-0.6162035927705064,-0.6,1.0,0.0,280.0,578.0,0.0,0,172.0,1
1349,1349,-0.018127404549775683,-0.0,0.0,1.0,479.0,545.0,0.0,1,626.0,0
1350,1350,0.5785998818143462,0.6,0.0,0.0,326.0,512.0,0.0,1,202.0,1
1351,1351,0.7704016849668253,0.8,1.0,1.0,254.0,752.0,1.0,1,424.0,1
1352,1352,0.5755006697037229,0.6,1.0,1.0,482.0,890.0,1.0,1,628.0,1
1353,1353,0.1639365105727003,0.2,1.0,1.0,256.0,905.0,1.0,1,389.0,1
1354,1354,0.6831864586381536,0.7,1.0,1.0,328.0,981.0,0.0,0,31.0,0
1355,1355,0.8777349291963018,0.9,1.0,1.0,473.0,553.0,1.0,1,234.0,1
1356,1356,0.6553107751355728,0.7,0.0,0.0,450.0,506.0,0.0,1,294.0,1
1357,1357,0.7119172126644743,0.7,0.0,0.0,299.0,745.0,0.0,1,166.0,1
1358,1358,-0.606911703493479,-0.6,1.0,0.0,314.0,941.0,0.0,0,145.0,1
1359,1359,0.1291061305811173,0.1,1.0,1.0,322.0,521.0,1.0,1,1037.0,1
1360,1360,-0.8218666935714386,-0.8,1.0,0.0,340.0,656.0,0.0,0,224.0,1
1361,1361,0.04327080356791069,0.0,0.0,0.0,495.0,840.0,0.0,1,965.0,1
1362,1362,0.49017719013057526,0.5,1.0,1.0,498.0,914.0,1.0,1,238.0,1
1363,1363,-0.5374263769898806,-0.5,0.0,1.0,303.0,522.0,1.0,0,365.0,1
1364,1364,0.31554885365351615,0.3,1.0,1.0,309.0,516.0,1.0,1,375.0,1
1365,1365,-0.3621785723964137,-0.4,1.0,0.0,488.0,930.0,0.0,0,272.0,1
1366,1366,-0.5652206060017513,-0.6,0.0,1.0,317.0,917.0,1.0,0,166.0,1
1367,1367,0.8699694132677177,0.9,0.0,0.0,303.0,831.0,0.0,1,66.0,1
1368,1368,0.7186367462929363,0.7,1.0,1.0,360.0,977.0,1.0,1,173.0,1
1369,1369,-0.598383136234971,-0.6,0.0,1.0,484.0,517.0,1.0,0,269.0,1
1370,1370,0.2068119016578377,0.2,0.0,0.0,312.0,972.0,0.0,1,246.0,1
1371,1371,0.5013286484343139,0.5,1.0,1.0,489.0,693.0,1.0,1,218.0,1
1372,1372,-0.6715961594837755,-0.7,1.0,0.0,479.0,619.0,0.0,0,252.0,1
1373,1373,-0.78329979928559,-0.8,1.0,0.0,431.0,917.0,0.0,0,142.0,1
1374,1374,0.7013962621615587,0.7,0.0,0.0,390.0,787.0,0.0,1,213.0,1
1375,1375,0.8224093560687019,0.8,0.0,0.0,267.0,628.0,0.0,1,235.0,1
1376,1376,-0.38548205258596135,-0.4,1.0,0.0,345.0,595.0,0.0,0,410.0,1
1377,1377,-0.03742970792128342,-0.0,1.0,0.0,253.0,922.0,0.0,0,445.0,1
1378,1378,0.4860785199492951,0.5,0.0,0.0,284.0,722.0,0.0,1,324.0,1
1379,1379,-0.09646345611135776,-0.1,1.0,0.0,333.0,536.0,0.0,0,391.0,1
1380,1380,-0.6076280490283235,-0.6,1.0,0.0,473.0,577.0,0.0,0,220.0,1
1381,1381,-0.7656147265223014,-0.8,0.0,1.0,442.0,906.0,1.0,0,102.0,1
1382,1382,-0.5214157625045637,-0.5,0.0,1.0,409.0,781.0,1.0,0,240.0,1
1383,1383,-0.4940946369834635,-0.5,1.0,0.0,386.0,569.0,0.0,0,285.0,1
1384,1384,0.3713909042957654,0.4,0.0,0.0,423.0,556.0,0.0,1,231.0,1
1385,1385,0.25249035147304577,0.3,0.0,0.0,454.0,661.0,0.0,1,405.0,1
1386,1386,-0.5905815556737731,-0.6,1.0,0.0,334.0,877.0,0.0,0,49.0,1
1387,1387,0.2687106724351155,0.3,1.0,1.0,332.0,836.0,1.0,1,402.0,1
1388,1388,-0.23918547988817762,-0.2,1.0,0.0,463.0,892.0,0.0,0,155.0,1
1389,1389,-0.2962967111112581,-0.3,1.0,0.0,259.0,883.0,0.0,0,148.0,1
1390,1390,0.159246314284471,0.2,1.0,1.0,418.0,618.0,1.0,1,1124.0,1
1391,1391,-0.4098190113100131,-0.4,0.0,1.0,269.0,951.0,1.0,0,300.0,1
1392,1392,-0.2016054367742136,-0.2,1.0,0.0,471.0,998.0,0.0,0,81.0,1
1393,1393,-0.3395287215209849,-0.3,0.0,1.0,475.0,911.0,1.0,0,194.0,1
1394,1394,-0.4643038666294706,-0.5,1.0,0.0,353.0,722.0,0.0,0,165.0,1
1395,1395,0.7314738699023619,0.7,1.0,1.0,498.0,519.0,1.0,1,393.0,1
1396,1396,-0.45460272870210583,-0.5,1.0,0.0,366.0,809.0,0.0,0,225.0,1
1397,1397,-0.30266845044715884,-0.3,0.0,1.0,418.0,656.0,1.0,0,296.0,1
1398,1398,0.42626537577550805,0.4,1.0,1.0,325.0,788.0,1.0,1,287.0,1
1399,1399,0.16653209808508318,0.2,0.0,0.0,472.0,806.0,0.0,1,392.0,1
1400,1400,0.44405312851671874,0.4,0.0,0.0,325.0,951.0,0.0,1,414.0,1
1401,1401,0.2913806468811905,0.3,0.0,0.0,347.0,773.0,0.0,1,180.0,1
1402,1402,0.7693504615750842,0.8,1.0,1.0,308.0,735.0,1.0,1,447.0,1
1403,1403,-0.00283915014938374,-0.0,0.0,1.0,458.0,906.0,0.0,1,296.0,0
1404,1404,-0.008595844139768882,-0.0,1.0,0.0,266.0,642.0,0.0,0,602.0,1
1405,1405,-0.5471217296093459,-0.5,1.0,0.0,461.0,564.0,0.0,0,175.0,1
1406,1406,0.5128843781268188,0.5,0.0,0.0,474.0,951.0,0.0,1,145.0,1
1407,1407,-0.5828715515028271,-0.6,0.0,1.0,371.0,732.0,1.0,0,227.0,1
1408,1408,0.09283622672530756,0.1,1.0,1.0,312.0,794.0,1.0,1,1894.0,1
1409,1409,-0.3950599798775689,-0.4,1.0,0.0,407.0,620.0,0.0,0,193.0,1
1410,1410,0.5807710242302712,0.6,1.0,1.0,270.0,692.0,1.0,1,198.0,1
1411,1411,0.6496781681211959,0.6,1.0,1.0,474.0,675.0,1.0,1,441.0,1
1412,1412,-0.4362159003728915,-0.4,1.0,0.0,314.0,755.0,0.0,0,331.0,1
1413,1413,0.3970944419951107,0.4,0.0,0.0,433.0,603.0,0.0,1,224.0,1
1414,1414,-0.04136526851186417,-0.0,0.0,1.0,473.0,757.0,1.0,0,920.0,1
1415,1415,0.2833975163293604,0.3,1.0,1.0,401.0,506.0,1.0,1,1073.0,1
1416,1416,0.7779236715438501,0.8,1.0,1.0,351.0,993.0,1.0,1,356.0,1
1417,1417,0.8788392825950347,0.9,0.0,0.0,443.0,778.0,0.0,1,59.0,1
1418,1418,0.19349346637358955,0.2,0.0,0.0,281.0,567.0,0.0,1,352.0,1
1419,1419,0.6394398382342944,0.6,0.0,0.0,388.0,703.0,0.0,1,159.0,1
1420,1420,0.7606628553768339,0.8,0.0,0.0,314.0,510.0,0.0,1,136.0,1
1421,1421,0.38106520080508977,0.4,0.0,0.0,499.0,689.0,0.0,1,142.0,1
1422,1422,0.16257199041910997,0.2,1.0,1.0,465.0,998.0,1.0,1,247.0,1
1423,1423,0.7994966954625405,0.8,1.0,1.0,334.0,775.0,1.0,1,221.0,1
1424,1424,-0.8704396870426679,-0.9,0.0,1.0,315.0,878.0,1.0,0,107.0,1
1425,1425,0.17780475442300914,0.2,1.0,1.0,455.0,883.0,1.0,1,532.0,1
1426,1426,-0.16797358888191394,-0.2,0.0,1.0,270.0,875.0,1.0,0,585.0,1
1427,1427,0.8157766258207281,0.8,1.0,1.0,434.0,797.0,1.0,1,179.0,1
1428,1428,-0.3055598285946809,-0.3,0.0,1.0,488.0,756.0,1.0,0,476.0,1
1429,1429,0.5909056755949854,0.6,1.0,1.0,326.0,818.0,1.0,1,286.0,1
1430,1430,0.49824560881836877,0.5,0.0,0.0,492.0,622.0,0.0,1,406.0,1
1431,1431,0.4214966712216378,0.4,1.0,1.0,295.0,881.0,1.0,1,354.0,1
1432,1432,0.7122119944415451,0.7,0.0,0.0,442.0,779.0,0.0,1,309.0,1
1433,1433,0.6858648394234826,0.7,0.0,0.0,392.0,764.0,0.0,1,174.0,1
1434,1434,-0.5579030608842189,-0.6,1.0,0.0,300.0,500.0,0.0,0,270.0,1
1435,1435,-0.6867209718602382,-0.7,0.0,1.0,253.0,595.0,1.0,0,212.0,1
1436,1436,-0.6524912029119433,-0.7,0.0,1.0,431.0,704.0,1.0,0,325.0,1
1437,1437,0.4416471770887863,0.4,1.0,1.0,287.0,850.0,1.0,1,323.0,1
1438,1438,-0.1629943816330578,-0.2,0.0,1.0,348.0,520.0,1.0,0,462.0,1
1439,1439,0.7220736764052823,0.7,1.0,1.0,440.0,986.0,1.0,1,184.0,1
1440,1440,-0.01138741112261099,-0.0,0.0,1.0,471.0,686.0,0.0,1,1223.0,0
1441,1441,0.43732111377809113,0.4,0.0,0.0,297.0,897.0,0.0,1,286.0,1
1442,1442,0.8923455488664315,0.9,1.0,1.0,415.0,912.0,1.0,1,203.0,1
1443,1443,-0.8399335108117395,-0.8,1.0,0.0,305.0,653.0,0.0,0,192.0,1
1444,1444,0.07517991901350563,0.1,1.0,1.0,344.0,533.0,1.0,1,2123.0,1
1445,1445,0.6969282813952168,0.7,1.0,1.0,257.0,614.0,1.0,1,339.0,1
1446,1446,0.43635356064731645,0.4,1.0,1.0,302.0,669.0,1.0,1,1039.0,1
1447,1447,-0.5671732436683603,-0.6,0.0,1.0,305.0,914.0,1.0,0,161.0,1
1448,1448,0.8621990638049853,0.9,1.0,1.0,436.0,542.0,1.0,1,202.0,1
1449,1449,0.34766570901030935,0.3,1.0,1.0,408.0,760.0,1.0,1,552.0,1
1450,1450,0.8626911626387733,0.9,1.0,1.0,349.0,669.0,1.0,1,302.0,1
1451,1451,-0.800226491569715,-0.8,0.0,1.0,284.0,611.0,1.0,0,385.0,1
1452,1452,0.6273717827379047,0.6,1.0,1.0,361.0,902.0,1.0,1,277.0,1
1453,1453,0.4324456407764229,0.4,0.0,0.0,259.0,622.0,0.0,1,329.0,1
1454,1454,0.28933951067495267,0.3,1.0,1.0,484.0,550.0,1.0,1,546.0,1
1455,1455,0.1857986424896253,0.2,0.0,0.0,465.0,784.0,0.0,1,251.0,1
1456,1456,0.46140276780478817,0.5,1.0,1.0,405.0,825.0,1.0,1,240.0,1
1457,1457,-0.4618560124667194,-0.5,0.0,1.0,295.0,682.0,1.0,0,273.0,1
1458,1458,0.5103542623273541,0.5,0.0,0.0,467.0,826.0,0.0,1,177.0,1
1459,1459,-0.34610034860179406,-0.3,1.0,0.0,356.0,981.0,0.0,0,-97.0,1
1460,1460,0.24808356120300357,0.2,0.0,0.0,361.0,985.0,0.0,1,194.0,1
1461,1461,0.7911202378881178,0.8,1.0,1.0,312.0,730.0,1.0,1,248.0,1
1462,1462,-0.32688094647223753,-0.3,1.0,0.0,416.0,906.0,0.0,0,438.0,1
1463,1463,0.044434771319524224,0.0,0.0,0.0,496.0,962.0,0.0,1,-78.0,1
1464,1464,0.07321957876144625,0.1,1.0,1.0,258.0,819.0,0.0,0,1613.0,0
1465,1465,0.7967829923466382,0.8,1.0,1.0,323.0,711.0,1.0,1,216.0,1
1466,1466,0.3514160920231121,0.4,0.0,0.0,294.0,815.0,0.0,1,261.0,1
1467,1467,0.07116889648601388,0.1,1.0,1.0,461.0,523.0,0.0,0,2016.0,0
1468,1468,0.4787076037044523,0.5,0.0,0.0,313.0,575.0,0.0,1,222.0,1
1469,1469,0.5985852412650153,0.6,0.0,0.0,443.0,671.0,0.0,1,436.0,1
1470,1470,-0.6572900226181918,-0.7,1.0,0.0,407.0,554.0,0.0,0,109.0,1
1471,1471,-0.5034181408039745,-0.5,1.0,0.0,329.0,589.0,0.0,0,192.0,1
1472,1472,-0.32209631187477783,-0.3,1.0,0.0,424.0,783.0,0.0,0,513.0,1
1473,1473,-0.21568949198660936,-0.2,0.0,1.0,359.0,736.0,1.0,0,395.0,1
1474,1474,-0.7836861686126888,-0.8,0.0,1.0,498.0,896.0,1.0,0,276.0,1
1475,1475,0.18836270936049504,0.2,1.0,1.0,289.0,501.0,1.0,1,980.0,1
1476,1476,0.7502295969299645,0.8,1.0,1.0,431.0,909.0,1.0,1,120.0,1
1477,1477,0.6045670832170148,0.6,0.0,0.0,472.0,509.0,0.0,1,339.0,1
1478,1478,0.03963532452076235,0.0,1.0,1.0,336.0,927.0,0.0,0,837.0,0
1479,1479,-0.6955746943241894,-0.7,0.0,1.0,299.0,619.0,1.0,0,152.0,1
1480,1480,0.4620739325930149,0.5,1.0,1.0,479.0,727.0,1.0,1,314.0,1
1481,1481,-0.6317711185941697,-0.6,1.0,0.0,372.0,844.0,0.0,0,84.0,1
1482,1482,0.05742475347769316,0.1,0.0,0.0,449.0,523.0,0.0,1,548.0,1
1483,1483,0.673937101577259,0.7,1.0,1.0,389.0,764.0,1.0,1,207.0,1
1484,1484,0.22681643251857297,0.2,1.0,1.0,445.0,887.0,1.0,1,668.0,1
1485,1485,0.16271161500729325,0.2,0.0,0.0,334.0,778.0,0.0,1,408.0,1
1486,1486,0.031205522108774586,0.0,1.0,1.0,285.0,649.0,0.0,0,666.0,0
1487,1487,-0.20369693538433675,-0.2,1.0,0.0,348.0,930.0,0.0,0,282.0,1
1488,1488,-0.22159178517810474,-0.2,1.0,0.0,280.0,507.0,0.0,0,443.0,1
1489,1489,-0.4931173439956071,-0.5,1.0,0.0,402.0,949.0,0.0,0,179.0,1
1490,1490,-0.6489544649133325,-0.6,0.0,1.0,285.0,893.0,1.0,0,112.0,1
1491,1491,0.440625048058351,0.4,1.0,1.0,388.0,884.0,1.0,1,308.0,1
1492,1492,-0.38324326566644573,-0.4,1.0,0.0,254.0,756.0,0.0,0,280.0,1
1493,1493,0.7078818285877123,0.7,1.0,1.0,297.0,596.0,1.0,1,407.0,1
