,trial,coherence,coherence_bin,green_side,correct_side,target_onset,checker_onset,decision,green_decision,decision_time,correct_decision
0,0,-0.8209134782606939,-0.8,0.0,1.0,256.0,913.0,0.0,1,1831.0,0
1,1,0.29124671482472075,0.3,0.0,0.0,455.0,582.0,0.0,1,1963.0,1
2,2,0.41635236806712694,0.4,1.0,1.0,477.0,929.0,0.0,0,1594.0,0
3,3,0.6471851419101474,0.6,1.0,1.0,322.0,639.0,0.0,0,2039.0,0
4,4,-0.46730296848663555,-0.5,0.0,1.0,302.0,688.0,0.0,1,2010.0,0
5,5,-0.8406589497581922,-0.8,1.0,0.0,395.0,873.0,0.0,0,1732.0,1
6,6,0.1690953384090973,0.2,1.0,1.0,319.0,661.0,1.0,1,-980.0,1
7,7,-0.473674413354288,-0.5,0.0,1.0,424.0,818.0,0.0,1,1758.0,0
8,8,0.7429378381181101,0.7,1.0,1.0,461.0,554.0,0.0,0,-985.0,0
9,9,-0.4866836293347185,-0.5,0.0,1.0,472.0,870.0,1.0,0,-1252.0,1
10,10,-0.08122243524675055,-0.1,1.0,0.0,472.0,985.0,1.0,1,-1457.0,0
11,11,-0.38553642607337435,-0.4,1.0,0.0,313.0,589.0,0.0,0,2098.0,1
12,12,-0.5997543186067706,-0.6,0.0,1.0,341.0,964.0,0.0,1,1695.0,0
13,13,-0.07180838303722992,-0.1,0.0,1.0,428.0,956.0,0.0,1,1616.0,0
14,14,-0.03801898494501743,-0.0,1.0,0.0,250.0,717.0,1.0,1,-907.0,0
15,15,-0.0017127520057726997,-0.0,1.0,0.0,287.0,703.0,0.0,0,2010.0,1
16,16,0.8619532028200073,0.9,1.0,1.0,342.0,594.0,1.0,1,-896.0,1
17,17,0.1313556769181744,0.1,1.0,1.0,277.0,913.0,0.0,0,1810.0,0
18,18,0.22657726777048903,0.2,0.0,0.0,433.0,870.0,1.0,0,-1163.0,0
19,19,0.7097111728468727,0.7,1.0,1.0,455.0,942.0,0.0,0,1603.0,0
20,20,0.7651727091095167,0.8,0.0,0.0,427.0,888.0,0.0,1,1685.0,1
21,21,-0.5718799811366551,-0.6,0.0,1.0,463.0,762.0,0.0,1,1775.0,0
22,22,-0.7915682622801149,-0.8,1.0,0.0,496.0,892.0,0.0,0,1612.0,1
23,23,-0.6275045933862717,-0.6,0.0,1.0,389.0,516.0,1.0,0,-815.0,1
24,24,-0.2384028974497462,-0.2,1.0,0.0,295.0,901.0,0.0,0,-996.0,1
25,25,0.23199629225893037,0.2,0.0,0.0,373.0,624.0,0.0,1,2003.0,1
26,26,0.6287718622463717,0.6,1.0,1.0,352.0,819.0,0.0,0,-1101.0,0
27,27,0.7833374029783423,0.8,1.0,1.0,472.0,569.0,1.0,1,-971.0,1
28,28,-0.5284568968037511,-0.5,1.0,0.0,308.0,843.0,0.0,0,1849.0,1
29,29,-0.4323351409517457,-0.4,0.0,1.0,443.0,968.0,0.0,1,1589.0,0
30,30,0.010025594932382642,0.0,0.0,0.0,275.0,997.0,0.0,1,1728.0,1
31,31,0.1718898305371802,0.2,1.0,1.0,429.0,793.0,0.0,0,-1152.0,0
32,32,0.6689335923716268,0.7,0.0,0.0,406.0,827.0,0.0,1,-1133.0,1
33,33,-0.20561199175426703,-0.2,0.0,1.0,263.0,611.0,0.0,1,2126.0,0
34,34,-0.01606840043846791,-0.0,1.0,0.0,381.0,595.0,0.0,0,2024.0,1
35,35,-0.6877616345281341,-0.7,1.0,0.0,256.0,615.0,0.0,0,2129.0,1
36,36,-0.3459450342824353,-0.3,1.0,0.0,395.0,686.0,0.0,0,1919.0,1
37,37,0.11226930158312165,0.1,1.0,1.0,429.0,677.0,0.0,0,-1086.0,0
38,38,-0.13088639244255895,-0.1,1.0,0.0,449.0,712.0,0.0,0,-1141.0,1
39,39,0.7358605449568959,0.7,0.0,0.0,268.0,500.0,0.0,1,2232.0,1
40,40,-0.07323326344981196,-0.1,1.0,0.0,369.0,643.0,0.0,0,1988.0,1
41,41,0.595579815798089,0.6,0.0,0.0,401.0,638.0,0.0,1,1961.0,1
42,42,-0.28362247154441944,-0.3,1.0,0.0,318.0,952.0,0.0,0,1730.0,1
43,43,0.4230872884372402,0.4,1.0,1.0,251.0,628.0,0.0,0,2121.0,0
44,44,0.06905496338834549,0.1,0.0,0.0,408.0,866.0,0.0,1,1726.0,1
45,45,0.8523105971205828,0.9,0.0,0.0,357.0,730.0,0.0,1,1913.0,1
46,46,-0.3599873747073724,-0.4,0.0,1.0,433.0,979.0,0.0,1,1588.0,0
47,47,0.7880817663696825,0.8,1.0,1.0,312.0,701.0,0.0,0,1987.0,0
48,48,-0.014096416512803023,-0.0,0.0,1.0,275.0,630.0,0.0,1,2095.0,0
49,49,0.2718490424680894,0.3,0.0,0.0,285.0,735.0,0.0,1,1980.0,1
50,50,0.020227504577518762,0.0,1.0,1.0,390.0,682.0,0.0,0,1928.0,0
51,51,-0.7553042609096188,-0.8,1.0,0.0,377.0,551.0,0.0,0,2072.0,1
52,52,0.7264614348701558,0.7,1.0,1.0,443.0,707.0,0.0,0,1850.0,0
53,53,-0.7280278312033805,-0.7,0.0,1.0,286.0,564.0,0.0,1,2150.0,0
54,54,-0.012554383892883214,-0.0,1.0,0.0,329.0,981.0,0.0,0,1690.0,1
55,55,-0.5433063130796909,-0.5,0.0,1.0,400.0,769.0,0.0,1,1831.0,0
56,56,-0.2477332026870016,-0.2,1.0,0.0,430.0,702.0,0.0,0,1868.0,1
57,57,0.2390034438256009,0.2,0.0,0.0,306.0,527.0,1.0,0,-723.0,0
58,58,0.7483019499438938,0.7,1.0,1.0,369.0,993.0,0.0,0,1638.0,0
59,59,-0.08727919512158888,-0.1,1.0,0.0,458.0,807.0,0.0,0,1735.0,1
60,60,0.29385165540180236,0.3,1.0,1.0,460.0,862.0,0.0,0,1678.0,0
61,61,0.08768018397548427,0.1,0.0,0.0,279.0,833.0,0.0,1,1888.0,1
62,62,0.7534045101496273,0.8,1.0,1.0,263.0,526.0,0.0,0,2211.0,0
63,63,-0.5751998913428684,-0.6,1.0,0.0,281.0,800.0,0.0,0,1919.0,1
64,64,-0.5819962621346939,-0.6,1.0,0.0,385.0,567.0,0.0,0,2048.0,1
65,65,-0.015632419043912105,-0.0,1.0,0.0,288.0,527.0,0.0,0,2185.0,1
66,66,0.5898646537544029,0.6,1.0,1.0,281.0,731.0,0.0,0,1988.0,0
67,67,-0.7056064307047542,-0.7,0.0,1.0,286.0,559.0,0.0,1,-795.0,0
68,68,-0.5135973304184984,-0.5,0.0,1.0,496.0,949.0,0.0,1,-1425.0,0
69,69,-0.2943452548428699,-0.3,0.0,1.0,349.0,558.0,0.0,1,2093.0,0
70,70,-0.8291903100020686,-0.8,1.0,0.0,443.0,910.0,0.0,0,1647.0,1
71,71,0.692753182118255,0.7,0.0,0.0,431.0,874.0,0.0,1,1695.0,1
72,72,0.28712026634917576,0.3,1.0,1.0,476.0,944.0,0.0,0,1580.0,0
73,73,-0.41432170772245175,-0.4,1.0,0.0,484.0,639.0,0.0,0,1877.0,1
74,74,-0.6524966352887205,-0.7,0.0,1.0,434.0,986.0,0.0,1,1580.0,0
75,75,-0.3885527753166692,-0.4,1.0,0.0,317.0,670.0,0.0,0,2013.0,1
76,76,0.054325171122197036,0.1,1.0,1.0,486.0,600.0,0.0,0,1914.0,0
77,77,0.5534132316062551,0.6,0.0,0.0,489.0,532.0,0.0,1,1979.0,1
78,78,-0.8717691309278172,-0.9,1.0,0.0,402.0,605.0,0.0,0,1993.0,1
79,79,0.23994486189516506,0.2,0.0,0.0,307.0,812.0,1.0,0,-1049.0,0
80,80,0.6512503464758376,0.7,0.0,0.0,384.0,632.0,1.0,0,-926.0,0
81,81,-0.8498477418092824,-0.8,0.0,1.0,477.0,772.0,0.0,1,1751.0,0
82,82,0.4923362954121059,0.5,0.0,0.0,403.0,912.0,0.0,1,1685.0,1
83,83,-0.014183760090583641,-0.0,0.0,1.0,345.0,648.0,0.0,1,2007.0,0
84,84,-0.7483436795481853,-0.7,1.0,0.0,339.0,745.0,0.0,0,1916.0,1
85,85,-0.5882547226825039,-0.6,1.0,0.0,325.0,871.0,0.0,0,1804.0,1
86,86,0.07564074771662954,0.1,0.0,0.0,410.0,848.0,0.0,1,1742.0,1
87,87,0.6978152772490437,0.7,0.0,0.0,444.0,576.0,0.0,1,1980.0,1
88,88,-0.18282789166618962,-0.2,1.0,0.0,411.0,756.0,1.0,1,-1127.0,0
89,89,-0.04983294920849435,-0.0,0.0,1.0,478.0,748.0,1.0,0,-1156.0,1
90,90,0.29782910556875575,0.3,1.0,1.0,459.0,921.0,0.0,0,1620.0,0
91,91,-0.36706225190674624,-0.4,1.0,0.0,251.0,724.0,0.0,0,2025.0,1
92,92,0.7458101082567691,0.7,0.0,0.0,426.0,873.0,0.0,1,1701.0,1
93,93,-0.8276609440250194,-0.8,0.0,1.0,407.0,748.0,0.0,1,1845.0,0
94,94,-0.8175434065599283,-0.8,0.0,1.0,267.0,833.0,0.0,1,1900.0,0
95,95,-0.4376059496238163,-0.4,0.0,1.0,299.0,640.0,0.0,1,-859.0,0
96,96,0.09126119843113323,0.1,1.0,1.0,398.0,713.0,0.0,0,1889.0,0
97,97,-0.45243260292165777,-0.5,1.0,0.0,336.0,811.0,0.0,0,-1127.0,1
98,98,0.7938873530640159,0.8,0.0,0.0,371.0,645.0,0.0,1,-746.0,1
99,99,0.4962183378135373,0.5,1.0,1.0,414.0,663.0,0.0,0,1923.0,0
100,100,0.6849588195607933,0.7,0.0,0.0,325.0,581.0,0.0,1,2094.0,1
101,101,-0.8043251062681123,-0.8,0.0,1.0,265.0,621.0,0.0,1,2114.0,0
102,102,0.263853920122061,0.3,0.0,0.0,329.0,907.0,0.0,1,1764.0,1
103,103,-0.0006221378598162408,-0.0,1.0,0.0,251.0,667.0,0.0,0,2082.0,1
104,104,-0.891948232871775,-0.9,0.0,1.0,416.0,887.0,0.0,1,1697.0,0
105,105,-0.49457607771322454,-0.5,1.0,0.0,293.0,519.0,0.0,0,2188.0,1
106,106,-0.12097580385695961,-0.1,0.0,1.0,463.0,848.0,0.0,1,1689.0,0
107,107,-0.06011460869740681,-0.1,1.0,0.0,496.0,557.0,0.0,0,1947.0,1
108,108,-0.5496950018846877,-0.5,0.0,1.0,467.0,831.0,0.0,1,1702.0,0
109,109,0.20411886138330237,0.2,1.0,1.0,484.0,797.0,0.0,0,1719.0,0
110,110,0.16914184538075638,0.2,0.0,0.0,411.0,832.0,0.0,1,1757.0,1
111,111,0.7537768556783421,0.8,1.0,1.0,377.0,798.0,0.0,0,1825.0,0
112,112,-0.7764555645989099,-0.8,0.0,1.0,404.0,728.0,0.0,1,1868.0,0
113,113,-0.805689012425796,-0.8,1.0,0.0,493.0,511.0,0.0,0,1996.0,1
114,114,0.0787583076461541,0.1,0.0,0.0,357.0,646.0,0.0,1,1997.0,1
115,115,-0.6135650845581525,-0.6,0.0,1.0,347.0,627.0,1.0,0,-904.0,1
116,116,-0.07274267104594556,-0.1,1.0,0.0,286.0,505.0,0.0,0,2209.0,1
117,117,0.860556821679581,0.9,1.0,1.0,290.0,761.0,0.0,0,1949.0,0
118,118,-0.2747571792351512,-0.3,0.0,1.0,457.0,559.0,1.0,0,-926.0,1
119,119,0.4053329657545074,0.4,0.0,0.0,414.0,533.0,0.0,1,2053.0,1
120,120,-0.46400438673976124,-0.5,1.0,0.0,357.0,736.0,0.0,0,1907.0,1
121,121,-0.4562149661661888,-0.5,0.0,1.0,398.0,567.0,0.0,1,2035.0,0
122,122,-0.6128975378617185,-0.6,1.0,0.0,331.0,743.0,0.0,0,1926.0,1
123,123,-0.2747380167099357,-0.3,0.0,1.0,374.0,977.0,0.0,1,1649.0,0
124,124,-0.7612787119846419,-0.8,0.0,1.0,455.0,801.0,0.0,1,1744.0,0
125,125,-0.003831219480732062,-0.0,1.0,0.0,370.0,990.0,0.0,0,1640.0,1
126,126,-0.7712895960009519,-0.8,0.0,1.0,412.0,934.0,0.0,1,1654.0,0
127,127,0.28757534992432643,0.3,0.0,0.0,372.0,958.0,0.0,1,1670.0,1
128,128,-0.27988930662838996,-0.3,0.0,1.0,351.0,541.0,0.0,1,2108.0,0
129,129,-0.447514787519405,-0.4,0.0,1.0,478.0,608.0,0.0,1,1914.0,0
130,130,-0.8501614933900159,-0.9,0.0,1.0,307.0,642.0,0.0,1,2051.0,0
131,131,-0.1799732625338023,-0.2,1.0,0.0,288.0,625.0,0.0,0,2087.0,1
132,132,-0.4261784903529129,-0.4,1.0,0.0,405.0,532.0,0.0,0,2063.0,1
133,133,-0.21511812076438985,-0.2,1.0,0.0,377.0,771.0,0.0,0,1852.0,1
134,134,0.30010248093808156,0.3,1.0,1.0,372.0,885.0,0.0,0,1743.0,0
135,135,-0.050491892862168264,-0.1,0.0,1.0,385.0,672.0,1.0,0,-937.0,1
136,136,0.7295096879592532,0.7,0.0,0.0,272.0,644.0,0.0,1,2084.0,1
137,137,0.561511658046551,0.6,0.0,0.0,274.0,743.0,0.0,1,1983.0,1
138,138,0.1958871347841059,0.2,0.0,0.0,297.0,513.0,0.0,1,2190.0,1
139,139,0.47555687307782024,0.5,1.0,1.0,290.0,582.0,0.0,0,2128.0,0
140,140,0.7482339944445319,0.7,0.0,0.0,379.0,974.0,0.0,1,1647.0,1
141,141,-0.002055013675143935,-0.0,0.0,1.0,357.0,518.0,0.0,1,2125.0,0
142,142,0.5253367589621584,0.5,0.0,0.0,375.0,510.0,0.0,1,2115.0,1
143,143,0.1097589366972086,0.1,0.0,0.0,344.0,643.0,0.0,1,2013.0,1
144,144,-0.2423615012110073,-0.2,1.0,0.0,428.0,782.0,0.0,0,1790.0,1
145,145,-0.20714425469872721,-0.2,0.0,1.0,484.0,727.0,0.0,1,1789.0,0
146,146,-0.44423619070894743,-0.4,0.0,1.0,324.0,880.0,0.0,1,1796.0,0
147,147,0.39623976216309054,0.4,0.0,0.0,438.0,558.0,0.0,1,2004.0,1
148,148,0.14555699410102185,0.1,1.0,1.0,349.0,900.0,1.0,1,-1249.0,1
149,149,-0.00915401612560962,-0.0,0.0,1.0,268.0,694.0,0.0,1,2038.0,0
150,150,0.7364906579852565,0.7,0.0,0.0,307.0,669.0,0.0,1,2024.0,1
151,151,-0.33705959428045673,-0.3,0.0,1.0,457.0,709.0,0.0,1,1834.0,0
152,152,-0.8222410302138504,-0.8,1.0,0.0,252.0,654.0,1.0,1,-836.0,0
153,153,0.6742999897841634,0.7,0.0,0.0,442.0,968.0,1.0,0,-1370.0,0
154,154,0.29317987341239393,0.3,0.0,0.0,465.0,760.0,0.0,1,1775.0,1
155,155,0.06331680176571175,0.1,0.0,0.0,459.0,907.0,0.0,1,1634.0,1
156,156,-0.014720368825205443,-0.0,0.0,1.0,411.0,778.0,0.0,1,1811.0,0
157,157,-0.1025669442888334,-0.1,0.0,1.0,322.0,825.0,0.0,1,1853.0,0
158,158,-0.039882214248794345,-0.0,1.0,0.0,393.0,918.0,0.0,0,1689.0,1
159,159,-0.8688309171424319,-0.9,1.0,0.0,466.0,813.0,0.0,0,1721.0,1
160,160,0.11637305704528134,0.1,1.0,1.0,499.0,616.0,0.0,0,-1085.0,0
161,161,-0.17566595458540069,-0.2,1.0,0.0,440.0,616.0,0.0,0,1944.0,1
162,162,-0.8556006775205356,-0.9,0.0,1.0,340.0,698.0,0.0,1,1962.0,0
163,163,0.22412223133471942,0.2,1.0,1.0,390.0,745.0,1.0,1,-1045.0,1
164,164,0.7137651658945724,0.7,0.0,0.0,294.0,916.0,0.0,1,1790.0,1
165,165,0.5240910687839865,0.5,1.0,1.0,262.0,758.0,0.0,0,1980.0,0
166,166,-0.7214679292923929,-0.7,1.0,0.0,417.0,594.0,0.0,0,1989.0,1
167,167,-0.1042187833654884,-0.1,0.0,1.0,360.0,915.0,0.0,1,1725.0,0
168,168,-0.3906212206971772,-0.4,1.0,0.0,326.0,725.0,0.0,0,1949.0,1
169,169,-0.0747778533969935,-0.1,1.0,0.0,391.0,712.0,0.0,0,1897.0,1
170,170,-0.7582077163955391,-0.8,1.0,0.0,360.0,626.0,0.0,0,2014.0,1
171,171,-0.6488016086684372,-0.6,0.0,1.0,476.0,789.0,0.0,1,1735.0,0
172,172,-0.2027054709251539,-0.2,0.0,1.0,265.0,736.0,0.0,1,1999.0,0
173,173,0.6097958516735634,0.6,0.0,0.0,250.0,558.0,0.0,1,2192.0,1
174,174,0.4219362382316051,0.4,1.0,1.0,441.0,601.0,0.0,0,1958.0,0
175,175,0.5481985228910774,0.5,0.0,0.0,259.0,907.0,0.0,1,1834.0,1
176,176,-0.31693807966071963,-0.3,1.0,0.0,363.0,859.0,0.0,0,1778.0,1
177,177,0.8394686214288393,0.8,1.0,1.0,307.0,720.0,1.0,1,-927.0,1
178,178,-0.1569621305115615,-0.2,1.0,0.0,472.0,646.0,0.0,0,1882.0,1
179,179,-0.23266289347742164,-0.2,1.0,0.0,305.0,588.0,0.0,0,2107.0,1
180,180,-0.36247619796027075,-0.4,0.0,1.0,269.0,650.0,0.0,1,2081.0,0
181,181,0.18658711244531567,0.2,1.0,1.0,438.0,613.0,0.0,0,-681.0,0
182,182,0.18790691233096612,0.2,1.0,1.0,478.0,760.0,0.0,0,1762.0,0
183,183,-0.6004306622833955,-0.6,1.0,0.0,273.0,839.0,0.0,0,1888.0,1
184,184,0.13890267954826319,0.1,0.0,0.0,372.0,841.0,0.0,1,1787.0,1
185,185,0.6872842913472278,0.7,0.0,0.0,410.0,947.0,0.0,1,-1077.0,1
186,186,-0.12319274214926457,-0.1,0.0,1.0,491.0,863.0,0.0,1,1646.0,0
187,187,-0.8894815263110044,-0.9,1.0,0.0,283.0,805.0,0.0,0,1912.0,1
188,188,-0.7434050014856864,-0.7,0.0,1.0,346.0,704.0,0.0,1,1950.0,0
189,189,-0.7001315919554234,-0.7,1.0,0.0,465.0,617.0,0.0,0,1918.0,1
190,190,0.6804095361386201,0.7,1.0,1.0,337.0,977.0,0.0,0,1686.0,0
191,191,0.42461459855595207,0.4,1.0,1.0,490.0,706.0,0.0,0,1804.0,0
192,192,0.7311523128839318,0.7,0.0,0.0,361.0,753.0,0.0,1,1886.0,1
193,193,0.6548513594385895,0.7,1.0,1.0,339.0,921.0,0.0,0,1740.0,0
194,194,-0.6252746677849639,-0.6,1.0,0.0,339.0,589.0,0.0,0,2072.0,1
195,195,-0.6345056184078195,-0.6,1.0,0.0,256.0,867.0,0.0,0,1877.0,1
196,196,-0.1199177903888694,-0.1,1.0,0.0,360.0,520.0,0.0,0,2120.0,1
197,197,0.18380779643639789,0.2,1.0,1.0,460.0,870.0,1.0,1,-1150.0,1
198,198,-0.8757086687377231,-0.9,1.0,0.0,436.0,954.0,0.0,0,1610.0,1
199,199,0.7323434907586422,0.7,0.0,0.0,267.0,941.0,0.0,1,1792.0,1
200,200,-0.40238510928613574,-0.4,1.0,0.0,260.0,980.0,0.0,0,1760.0,1
201,201,-0.03501846543916376,-0.0,0.0,1.0,289.0,711.0,0.0,1,2000.0,0
202,202,-0.09878909034456573,-0.1,1.0,0.0,280.0,981.0,1.0,1,-1221.0,0
203,203,0.3263779354389028,0.3,0.0,0.0,273.0,668.0,0.0,1,2059.0,1
204,204,0.6201992091297192,0.6,0.0,0.0,268.0,788.0,0.0,1,1944.0,1
205,205,0.8713924034308113,0.9,0.0,0.0,293.0,954.0,0.0,1,1753.0,1
206,206,0.23400269323473444,0.2,0.0,0.0,306.0,965.0,0.0,1,-1191.0,1
207,207,0.6356295772462889,0.6,1.0,1.0,436.0,987.0,0.0,0,1577.0,0
208,208,0.6338629661222853,0.6,0.0,0.0,363.0,605.0,0.0,1,2032.0,1
209,209,0.6155631474053004,0.6,0.0,0.0,451.0,503.0,0.0,1,2046.0,1
210,210,0.532173329295153,0.5,0.0,0.0,483.0,871.0,0.0,1,1646.0,1
211,211,-0.21277637159083818,-0.2,1.0,0.0,358.0,954.0,0.0,0,1688.0,1
212,212,0.8605187407409037,0.9,1.0,1.0,294.0,538.0,0.0,0,2168.0,0
213,213,-0.024103686188185258,-0.0,1.0,0.0,287.0,961.0,0.0,0,1752.0,1
214,214,-0.30734661530510055,-0.3,1.0,0.0,316.0,609.0,0.0,0,2075.0,1
215,215,0.8509062457867677,0.9,0.0,0.0,342.0,872.0,1.0,0,-1194.0,0
216,216,0.36520567522891667,0.4,1.0,1.0,470.0,815.0,0.0,0,1715.0,0
217,217,-0.4967821485332896,-0.5,1.0,0.0,312.0,625.0,1.0,1,-917.0,0
218,218,-0.8428161185552053,-0.8,0.0,1.0,431.0,664.0,0.0,1,1905.0,0
219,219,0.7265186839734356,0.7,1.0,1.0,420.0,728.0,0.0,0,1852.0,0
220,220,0.20846569899410727,0.2,0.0,0.0,284.0,853.0,0.0,1,1863.0,1
221,221,-0.5415030806213357,-0.5,0.0,1.0,469.0,673.0,0.0,1,1858.0,0
222,222,0.2456304239117323,0.2,1.0,1.0,273.0,601.0,0.0,0,2126.0,0
223,223,0.38235944156087653,0.4,1.0,1.0,307.0,952.0,0.0,0,-1199.0,0
224,224,-0.2410488725685167,-0.2,0.0,1.0,420.0,860.0,0.0,1,1720.0,0
225,225,0.8611780298119999,0.9,0.0,0.0,418.0,912.0,0.0,1,1670.0,1
226,226,0.6209157409739491,0.6,1.0,1.0,354.0,981.0,0.0,0,1665.0,0
227,227,-0.08429704535636473,-0.1,0.0,1.0,281.0,896.0,0.0,1,1823.0,0
228,228,-0.1895933355388637,-0.2,1.0,0.0,457.0,938.0,0.0,0,1605.0,1
229,229,-0.7148081704984048,-0.7,1.0,0.0,276.0,760.0,0.0,0,-1036.0,1
230,230,-0.4628489824461437,-0.5,1.0,0.0,275.0,719.0,0.0,0,2006.0,1
231,231,0.6364318416161966,0.6,0.0,0.0,325.0,791.0,0.0,1,1884.0,1
232,232,-0.2377516151821143,-0.2,1.0,0.0,440.0,513.0,0.0,0,2047.0,1
233,233,0.06827557192306255,0.1,1.0,1.0,297.0,995.0,0.0,0,1708.0,0
234,234,0.704296776806202,0.7,0.0,0.0,380.0,580.0,0.0,1,2040.0,1
235,235,0.46136838343155995,0.5,0.0,0.0,263.0,545.0,0.0,1,2192.0,1
236,236,0.5854343058805466,0.6,0.0,0.0,402.0,596.0,0.0,1,2002.0,1
237,237,-0.7894487817266416,-0.8,0.0,1.0,267.0,552.0,0.0,1,2181.0,0
238,238,-0.0025141296790036627,-0.0,0.0,1.0,495.0,537.0,0.0,1,1968.0,0
239,239,-0.5462332578190092,-0.5,1.0,0.0,484.0,625.0,0.0,0,-1029.0,1
240,240,0.20585002346740178,0.2,0.0,0.0,409.0,979.0,0.0,1,1612.0,1
241,241,-0.5464679856090007,-0.5,0.0,1.0,370.0,824.0,0.0,1,1806.0,0
242,242,0.1922441826121556,0.2,1.0,1.0,297.0,531.0,0.0,0,2172.0,0
243,243,-0.8638206228086259,-0.9,1.0,0.0,299.0,697.0,1.0,1,-626.0,0
244,244,0.809872248992982,0.8,1.0,1.0,354.0,990.0,0.0,0,1656.0,0
245,245,0.23164316571728738,0.2,0.0,0.0,427.0,904.0,0.0,1,1669.0,1
246,246,-0.5458848020951026,-0.5,0.0,1.0,401.0,762.0,0.0,1,1837.0,0
247,247,0.5668533652301332,0.6,0.0,0.0,336.0,844.0,0.0,1,1820.0,1
248,248,0.7829542719796362,0.8,1.0,1.0,440.0,673.0,0.0,0,1887.0,0
249,249,0.5851668320197599,0.6,0.0,0.0,317.0,611.0,0.0,1,2072.0,1
250,250,0.49487955897775115,0.5,1.0,1.0,298.0,851.0,0.0,0,1851.0,0
251,251,0.6301418292110738,0.6,1.0,1.0,277.0,924.0,0.0,0,1799.0,0
252,252,-0.7026591485513136,-0.7,0.0,1.0,322.0,690.0,0.0,1,1988.0,0
253,253,-0.749089634918869,-0.7,1.0,0.0,370.0,620.0,1.0,1,-990.0,0
254,254,0.6344256630263633,0.6,0.0,0.0,302.0,801.0,0.0,1,1897.0,1
255,255,-0.36702486237695886,-0.4,0.0,1.0,268.0,827.0,0.0,1,1905.0,0
256,256,0.14647619124267275,0.1,0.0,0.0,331.0,866.0,0.0,1,1803.0,1
257,257,0.43729725638141537,0.4,0.0,0.0,481.0,614.0,0.0,1,1905.0,1
258,258,-0.5567034820163745,-0.6,1.0,0.0,339.0,863.0,0.0,0,1798.0,1
259,259,-0.2747601968767156,-0.3,0.0,1.0,403.0,731.0,0.0,1,-1064.0,0
260,260,0.6943533380638905,0.7,0.0,0.0,381.0,983.0,0.0,1,1636.0,1
261,261,-0.05374306232851234,-0.1,0.0,1.0,445.0,790.0,0.0,1,1765.0,0
262,262,-0.6710756845173534,-0.7,1.0,0.0,406.0,534.0,0.0,0,2060.0,1
263,263,-0.5127344512142886,-0.5,1.0,0.0,461.0,779.0,0.0,0,1760.0,1
264,264,0.16833710798371027,0.2,1.0,1.0,414.0,603.0,0.0,0,1983.0,0
265,265,0.32054340072890575,0.3,1.0,1.0,291.0,848.0,0.0,0,1861.0,0
266,266,-0.6640738785704672,-0.7,1.0,0.0,327.0,843.0,0.0,0,1830.0,1
267,267,-0.4806120749261462,-0.5,1.0,0.0,472.0,806.0,0.0,0,1722.0,1
268,268,-0.7430435283635737,-0.7,1.0,0.0,350.0,625.0,0.0,0,2025.0,1
269,269,-0.6183512325696018,-0.6,0.0,1.0,263.0,591.0,0.0,1,2146.0,0
270,270,-0.5714615753901201,-0.6,0.0,1.0,447.0,943.0,0.0,1,-1270.0,0
271,271,-0.7236179075360702,-0.7,1.0,0.0,379.0,822.0,0.0,0,1799.0,1
272,272,0.7304200726289064,0.7,0.0,0.0,406.0,572.0,0.0,1,-638.0,1
273,273,0.35202737458921407,0.4,1.0,1.0,380.0,602.0,0.0,0,2018.0,0
274,274,-0.5430166497347423,-0.5,1.0,0.0,456.0,678.0,0.0,0,1866.0,1
275,275,0.27676259323657726,0.3,0.0,0.0,488.0,673.0,0.0,1,1839.0,1
276,276,0.23489388359078778,0.2,0.0,0.0,486.0,779.0,0.0,1,1735.0,1
277,277,0.34238495935753466,0.3,1.0,1.0,343.0,988.0,0.0,0,1669.0,0
278,278,-0.47814212557396973,-0.5,0.0,1.0,469.0,552.0,0.0,1,1979.0,0
279,279,-0.20293203173040197,-0.2,0.0,1.0,255.0,861.0,0.0,1,1884.0,0
280,280,0.05543661557205937,0.1,0.0,0.0,269.0,909.0,0.0,1,1822.0,1
281,281,0.7227025977800446,0.7,1.0,1.0,423.0,776.0,0.0,0,1801.0,0
282,282,0.248143055020002,0.2,0.0,0.0,264.0,510.0,0.0,1,2226.0,1
283,283,-0.12396602441080096,-0.1,0.0,1.0,344.0,610.0,0.0,1,2046.0,0
284,284,-0.6338351991687152,-0.6,1.0,0.0,380.0,539.0,0.0,0,2081.0,1
285,285,0.19113344003107813,0.2,1.0,1.0,458.0,957.0,0.0,0,1585.0,0
286,286,0.4248530359062891,0.4,1.0,1.0,375.0,939.0,0.0,0,1686.0,0
287,287,0.8328197969733963,0.8,0.0,0.0,471.0,854.0,0.0,1,1675.0,1
288,288,0.24313496679851665,0.2,1.0,1.0,439.0,717.0,0.0,0,1844.0,0
289,289,0.5669148419533291,0.6,1.0,1.0,359.0,533.0,0.0,0,-862.0,0
290,290,-0.28855340224111725,-0.3,0.0,1.0,430.0,570.0,0.0,1,2000.0,0
291,291,0.8543104511471357,0.9,0.0,0.0,326.0,537.0,0.0,1,2137.0,1
292,292,0.6288501154877809,0.6,0.0,0.0,384.0,939.0,0.0,1,1677.0,1
293,293,0.4583985672509737,0.5,0.0,0.0,261.0,704.0,0.0,1,2035.0,1
294,294,0.6606648148291251,0.7,1.0,1.0,298.0,511.0,0.0,0,2191.0,0
295,295,-0.10018794731901515,-0.1,1.0,0.0,349.0,988.0,0.0,0,1663.0,1
296,296,0.7699806353459328,0.8,1.0,1.0,441.0,924.0,0.0,0,1635.0,0
297,297,0.5999156341193052,0.6,1.0,1.0,321.0,664.0,0.0,0,2015.0,0
298,298,0.45970008160509057,0.5,1.0,1.0,436.0,576.0,0.0,0,-992.0,0
299,299,-0.7903658351619925,-0.8,0.0,1.0,305.0,545.0,0.0,1,2150.0,0
300,300,-0.8106107043800582,-0.8,1.0,0.0,440.0,697.0,0.0,0,1863.0,1
301,301,0.19583696965717878,0.2,1.0,1.0,392.0,686.0,1.0,1,-1018.0,1
302,302,-0.2931697723805884,-0.3,1.0,0.0,314.0,615.0,0.0,0,2071.0,1
303,303,-0.5182559035917244,-0.5,0.0,1.0,470.0,732.0,0.0,1,1798.0,0
304,304,-0.6211042974550618,-0.6,0.0,1.0,327.0,531.0,0.0,1,2142.0,0
305,305,-0.22228258144731383,-0.2,0.0,1.0,268.0,926.0,0.0,1,1806.0,0
306,306,0.16983549964010913,0.2,0.0,0.0,411.0,878.0,0.0,1,1711.0,1
307,307,0.062400908409482536,0.1,0.0,0.0,362.0,741.0,0.0,1,1897.0,1
308,308,-0.5524083270456406,-0.6,1.0,0.0,413.0,852.0,0.0,0,1735.0,1
309,309,-0.5822639986600713,-0.6,1.0,0.0,280.0,673.0,0.0,0,2047.0,1
310,310,-0.5880569875715498,-0.6,0.0,1.0,404.0,785.0,0.0,1,1811.0,0
311,311,-0.6738270071651722,-0.7,0.0,1.0,291.0,699.0,1.0,0,-880.0,1
312,312,-0.16391570236655706,-0.2,0.0,1.0,331.0,519.0,0.0,1,2150.0,0
313,313,0.6887370306615167,0.7,0.0,0.0,498.0,686.0,1.0,0,-1144.0,0
314,314,-0.3582711068996913,-0.4,0.0,1.0,406.0,918.0,0.0,1,-1294.0,0
315,315,0.7630159929973989,0.8,0.0,0.0,402.0,787.0,0.0,1,1811.0,1
316,316,-0.37472201140843686,-0.4,0.0,1.0,476.0,691.0,1.0,0,-1117.0,1
317,317,-0.03466688977534227,-0.0,1.0,0.0,374.0,777.0,0.0,0,1849.0,1
318,318,-0.23219337257908435,-0.2,0.0,1.0,427.0,702.0,0.0,1,1871.0,0
319,319,0.3561653596095281,0.4,1.0,1.0,343.0,967.0,0.0,0,1690.0,0
320,320,0.041016077104526705,0.0,1.0,1.0,412.0,620.0,0.0,0,1968.0,0
321,321,0.279527605085374,0.3,1.0,1.0,294.0,830.0,0.0,0,1876.0,0
322,322,-0.035887912617567186,-0.0,1.0,0.0,460.0,540.0,0.0,0,2000.0,1
323,323,0.846773985441028,0.8,0.0,0.0,305.0,962.0,0.0,1,1733.0,1
324,324,0.1635483504504508,0.2,1.0,1.0,341.0,507.0,0.0,0,2152.0,0
325,325,-0.847015147871767,-0.8,1.0,0.0,462.0,614.0,0.0,0,1924.0,1
326,326,0.021529204547672376,0.0,1.0,1.0,458.0,830.0,0.0,0,1712.0,0
327,327,0.5656482401767037,0.6,0.0,0.0,419.0,798.0,0.0,1,1783.0,1
328,328,-0.5051776573309172,-0.5,0.0,1.0,271.0,873.0,0.0,1,1856.0,0
329,329,-0.5283833851499536,-0.5,1.0,0.0,486.0,551.0,0.0,0,1963.0,1
330,330,0.165320437971762,0.2,1.0,1.0,352.0,803.0,0.0,0,1845.0,0
331,331,0.3014992745992723,0.3,1.0,1.0,403.0,944.0,0.0,0,1653.0,0
332,332,-0.6562114502960397,-0.7,0.0,1.0,487.0,703.0,0.0,1,1810.0,0
333,333,0.5770008943116224,0.6,1.0,1.0,428.0,819.0,0.0,0,1753.0,0
334,334,-0.5173709847154659,-0.5,1.0,0.0,422.0,711.0,0.0,0,1867.0,1
335,335,-0.8091281888973396,-0.8,1.0,0.0,444.0,677.0,0.0,0,1879.0,1
336,336,0.6440394545838329,0.6,0.0,0.0,495.0,927.0,0.0,1,1578.0,1
337,337,0.5020029307328057,0.5,1.0,1.0,373.0,769.0,0.0,0,1858.0,0
338,338,-0.8686991082852088,-0.9,1.0,0.0,482.0,644.0,0.0,0,1874.0,1
339,339,0.5554602472555729,0.6,1.0,1.0,267.0,884.0,0.0,0,1849.0,0
340,340,-0.22606827762055615,-0.2,1.0,0.0,463.0,704.0,0.0,0,1833.0,1
341,341,-0.6322394035326919,-0.6,1.0,0.0,264.0,675.0,0.0,0,2061.0,1
342,342,0.3477167409919998,0.3,0.0,0.0,311.0,712.0,0.0,1,1977.0,1
343,343,-0.714667516819596,-0.7,0.0,1.0,280.0,878.0,0.0,1,1842.0,0
344,344,-0.2563585309768357,-0.3,1.0,0.0,330.0,999.0,0.0,0,1671.0,1
345,345,0.6003589183616486,0.6,1.0,1.0,426.0,977.0,0.0,0,1597.0,0
346,346,0.34138336799608415,0.3,0.0,0.0,287.0,851.0,0.0,1,1862.0,1
347,347,0.6980823849939085,0.7,0.0,0.0,482.0,930.0,0.0,1,1588.0,1
348,348,0.3137887826159854,0.3,1.0,1.0,366.0,560.0,0.0,0,2074.0,0
349,349,0.6699890852002276,0.7,1.0,1.0,325.0,659.0,0.0,0,2016.0,0
350,350,-0.0834834334462492,-0.1,1.0,0.0,378.0,606.0,0.0,0,2016.0,1
351,351,-0.06493700927206092,-0.1,1.0,0.0,474.0,760.0,0.0,0,1766.0,1
352,352,-0.05357798220283494,-0.1,0.0,1.0,354.0,913.0,1.0,0,-1177.0,1
353,353,0.04249699431158871,0.0,0.0,0.0,256.0,954.0,0.0,1,1790.0,1
354,354,0.5976471922300352,0.6,0.0,0.0,317.0,698.0,0.0,1,1985.0,1
355,355,0.025382790820644763,0.0,0.0,0.0,480.0,503.0,0.0,1,2017.0,1
356,356,0.2094964394742468,0.2,0.0,0.0,432.0,704.0,0.0,1,1864.0,1
357,357,-0.20026624922228842,-0.2,0.0,1.0,440.0,704.0,0.0,1,1856.0,0
358,358,0.10547533192894332,0.1,0.0,0.0,373.0,794.0,0.0,1,-1137.0,1
359,359,-0.07275558645289848,-0.1,0.0,1.0,260.0,914.0,0.0,1,1826.0,0
360,360,0.37990642139561615,0.4,0.0,0.0,448.0,941.0,0.0,1,1611.0,1
361,361,-0.8048184788572824,-0.8,1.0,0.0,316.0,702.0,0.0,0,1982.0,1
362,362,0.4063357548410006,0.4,0.0,0.0,440.0,715.0,0.0,1,1845.0,1
363,363,-0.786196636162006,-0.8,0.0,1.0,436.0,868.0,0.0,1,1696.0,0
364,364,0.4628458149350646,0.5,1.0,1.0,446.0,864.0,0.0,0,1690.0,0
365,365,0.47024810959770325,0.5,1.0,1.0,368.0,954.0,0.0,0,1678.0,0
366,366,0.5734145439132582,0.6,0.0,0.0,262.0,814.0,0.0,1,1924.0,1
367,367,0.06416191267764493,0.1,1.0,1.0,399.0,949.0,0.0,0,1652.0,0
368,368,-0.7768007052272926,-0.8,0.0,1.0,427.0,925.0,0.0,1,1648.0,0
369,369,-0.0827678742488166,-0.1,0.0,1.0,409.0,517.0,1.0,0,-816.0,1
370,370,-0.5547549127114686,-0.6,1.0,0.0,385.0,687.0,0.0,0,1928.0,1
371,371,0.20533867091889324,0.2,0.0,0.0,350.0,680.0,0.0,1,1970.0,1
372,372,0.10280258857592572,0.1,0.0,0.0,257.0,728.0,0.0,1,2015.0,1
373,373,0.27106023786709,0.3,1.0,1.0,361.0,781.0,0.0,0,1858.0,0
374,374,0.1634837232746008,0.2,0.0,0.0,386.0,773.0,0.0,1,1841.0,1
375,375,-0.6987925635674009,-0.7,0.0,1.0,276.0,880.0,0.0,1,1844.0,0
376,376,-0.057752327272502346,-0.1,1.0,0.0,306.0,576.0,0.0,0,2118.0,1
377,377,-0.7224290116773007,-0.7,1.0,0.0,349.0,924.0,0.0,0,1727.0,1
378,378,-0.7578316376380071,-0.8,0.0,1.0,311.0,598.0,0.0,1,2091.0,0
379,379,0.2146783480832689,0.2,1.0,1.0,332.0,668.0,0.0,0,2000.0,0
380,380,0.484258268483326,0.5,0.0,0.0,423.0,765.0,0.0,1,1812.0,1
381,381,-0.03736463910541776,-0.0,1.0,0.0,315.0,797.0,0.0,0,1888.0,1
382,382,-0.24804890166242366,-0.2,0.0,1.0,497.0,832.0,0.0,1,1671.0,0
383,383,-0.7150459011668567,-0.7,1.0,0.0,489.0,772.0,0.0,0,-1161.0,1
384,384,-0.8879894902624801,-0.9,0.0,1.0,367.0,830.0,0.0,1,1803.0,0
385,385,-0.6974989663189701,-0.7,0.0,1.0,269.0,770.0,0.0,1,1961.0,0
386,386,0.2235711695776551,0.2,0.0,0.0,381.0,519.0,0.0,1,2100.0,1
387,387,0.6377421015749088,0.6,1.0,1.0,422.0,907.0,0.0,0,-1279.0,0
388,388,0.6495922896529239,0.6,0.0,0.0,262.0,506.0,0.0,1,2232.0,1
389,389,-0.634887647473164,-0.6,0.0,1.0,318.0,611.0,0.0,1,2071.0,0
390,390,-0.8552888833611143,-0.9,0.0,1.0,467.0,960.0,0.0,1,1573.0,0
391,391,-0.5822128929853805,-0.6,0.0,1.0,335.0,587.0,1.0,0,-792.0,1
392,392,0.5678291897551059,0.6,0.0,0.0,366.0,743.0,0.0,1,1891.0,1
393,393,-0.04002949292622571,-0.0,1.0,0.0,270.0,832.0,0.0,0,1898.0,1
394,394,-0.401412941743541,-0.4,1.0,0.0,386.0,893.0,1.0,1,-1259.0,0
395,395,0.6277049694553746,0.6,0.0,0.0,410.0,522.0,0.0,1,-842.0,1
396,396,0.4146502553461079,0.4,1.0,1.0,257.0,546.0,0.0,0,2197.0,0
397,397,0.3108336864535607,0.3,0.0,0.0,264.0,791.0,0.0,1,1945.0,1
398,398,0.5319120971272674,0.5,0.0,0.0,497.0,761.0,0.0,1,1742.0,1
399,399,0.13176328121994707,0.1,0.0,0.0,461.0,971.0,0.0,1,1568.0,1
400,400,0.5246602408429962,0.5,1.0,1.0,424.0,577.0,0.0,0,1999.0,0
401,401,-0.18818140304192998,-0.2,1.0,0.0,428.0,779.0,0.0,0,1793.0,1
402,402,-0.8393452368222306,-0.8,1.0,0.0,411.0,697.0,0.0,0,1892.0,1
403,403,-0.5281531421029806,-0.5,1.0,0.0,335.0,511.0,0.0,0,2154.0,1
404,404,-0.5557863052524201,-0.6,0.0,1.0,255.0,966.0,0.0,1,1779.0,0
405,405,0.044808395602304874,0.0,1.0,1.0,498.0,597.0,0.0,0,1905.0,0
406,406,0.512400055836293,0.5,1.0,1.0,470.0,726.0,0.0,0,1804.0,0
407,407,-0.5680748789279174,-0.6,0.0,1.0,498.0,845.0,0.0,1,1657.0,0
408,408,-0.793896520772525,-0.8,1.0,0.0,267.0,538.0,0.0,0,2195.0,1
409,409,-0.23153513589701713,-0.2,1.0,0.0,491.0,546.0,0.0,0,1963.0,1
410,410,0.17431678297971198,0.2,1.0,1.0,331.0,825.0,0.0,0,1844.0,0
411,411,-0.7281746853749754,-0.7,0.0,1.0,325.0,812.0,0.0,1,1863.0,0
412,412,0.7396802624469737,0.7,1.0,1.0,488.0,519.0,0.0,0,1993.0,0
413,413,0.7686772271322083,0.8,1.0,1.0,278.0,958.0,0.0,0,1764.0,0
414,414,-0.5090170848534105,-0.5,1.0,0.0,498.0,895.0,0.0,0,1607.0,1
415,415,0.3395578841872541,0.3,1.0,1.0,275.0,814.0,0.0,0,1911.0,0
416,416,-0.45998796610157705,-0.5,1.0,0.0,388.0,592.0,0.0,0,2020.0,1
417,417,-0.7799064445388162,-0.8,1.0,0.0,468.0,630.0,0.0,0,1902.0,1
418,418,0.8061059464691341,0.8,0.0,0.0,294.0,823.0,0.0,1,1883.0,1
419,419,0.4850388308259165,0.5,0.0,0.0,393.0,872.0,0.0,1,-1225.0,1
420,420,0.8411455015652402,0.8,1.0,1.0,311.0,673.0,0.0,0,2016.0,0
421,421,0.7039589039572302,0.7,1.0,1.0,302.0,938.0,0.0,0,1760.0,0
422,422,-0.7548653263855782,-0.8,1.0,0.0,331.0,549.0,0.0,0,2120.0,1
423,423,0.15206482378364405,0.2,1.0,1.0,483.0,791.0,0.0,0,1726.0,0
424,424,0.31854451514089976,0.3,1.0,1.0,436.0,687.0,0.0,0,1877.0,0
425,425,-0.5419743476374986,-0.5,0.0,1.0,310.0,835.0,0.0,1,1855.0,0
426,426,-0.509888980462366,-0.5,0.0,1.0,262.0,572.0,0.0,1,2166.0,0
427,427,0.5881815843940009,0.6,1.0,1.0,312.0,781.0,0.0,0,1907.0,0
428,428,-0.4297699712187186,-0.4,0.0,1.0,355.0,865.0,1.0,0,-1050.0,1
429,429,-0.14317514377208573,-0.1,1.0,0.0,300.0,924.0,0.0,0,1776.0,1
430,430,0.01411928487535885,0.0,1.0,1.0,415.0,768.0,0.0,0,1817.0,0
431,431,-0.8753884048771414,-0.9,0.0,1.0,415.0,514.0,0.0,1,2071.0,0
432,432,0.8827980414730133,0.9,0.0,0.0,352.0,883.0,0.0,1,-1135.0,1
433,433,0.32731088140744447,0.3,1.0,1.0,414.0,672.0,0.0,0,1914.0,0
434,434,-0.024744494098103642,-0.0,0.0,1.0,296.0,638.0,1.0,0,-884.0,1
435,435,0.1467988452099106,0.1,0.0,0.0,453.0,830.0,0.0,1,1717.0,1
436,436,-0.011260395776610088,-0.0,0.0,1.0,419.0,975.0,0.0,1,1606.0,0
437,437,-0.32767504074176834,-0.3,0.0,1.0,468.0,730.0,0.0,1,1802.0,0
438,438,-0.010325895883313008,-0.0,0.0,1.0,380.0,523.0,0.0,1,2097.0,0
439,439,-0.6544152389519216,-0.7,1.0,0.0,450.0,664.0,0.0,0,1886.0,1
440,440,-0.09803557869567459,-0.1,1.0,0.0,343.0,566.0,0.0,0,2091.0,1
441,441,-0.733870594872832,-0.7,1.0,0.0,439.0,541.0,0.0,0,2020.0,1
442,442,-0.48513300029640566,-0.5,1.0,0.0,282.0,550.0,0.0,0,2168.0,1
443,443,-0.1996656186355914,-0.2,1.0,0.0,417.0,759.0,0.0,0,1824.0,1
444,444,0.6915138167818385,0.7,1.0,1.0,461.0,805.0,0.0,0,1734.0,0
445,445,-0.1317559381606116,-0.1,0.0,1.0,312.0,994.0,1.0,0,-1066.0,1
446,446,-0.60710432380564,-0.6,0.0,1.0,293.0,792.0,0.0,1,1915.0,0
447,447,0.39932799358691773,0.4,0.0,0.0,386.0,887.0,0.0,1,1727.0,1
448,448,-0.011989258799400715,-0.0,0.0,1.0,475.0,835.0,0.0,1,-1310.0,0
449,449,-0.6467180134712219,-0.6,1.0,0.0,498.0,998.0,0.0,0,1504.0,1
450,450,0.010720237975981761,0.0,0.0,0.0,432.0,982.0,0.0,1,1586.0,1
451,451,-0.7056224268741955,-0.7,0.0,1.0,338.0,581.0,0.0,1,2081.0,0
452,452,0.11045230720366284,0.1,0.0,0.0,259.0,727.0,0.0,1,2014.0,1
453,453,-0.5326192323474161,-0.5,0.0,1.0,281.0,740.0,0.0,1,1979.0,0
454,454,-0.6980199165822129,-0.7,1.0,0.0,317.0,686.0,0.0,0,-933.0,1
455,455,-0.8540332792345487,-0.9,0.0,1.0,362.0,931.0,0.0,1,1707.0,0
456,456,0.2397481891323764,0.2,0.0,0.0,347.0,712.0,0.0,1,1941.0,1
457,457,-0.7887302891664678,-0.8,0.0,1.0,357.0,806.0,0.0,1,1837.0,0
458,458,-0.4752283602374175,-0.5,0.0,1.0,328.0,986.0,0.0,1,1686.0,0
459,459,0.03938331632356595,0.0,0.0,0.0,466.0,838.0,0.0,1,1696.0,1
460,460,0.5752936973796529,0.6,1.0,1.0,457.0,821.0,0.0,0,1722.0,0
461,461,0.562133972376995,0.6,1.0,1.0,424.0,557.0,0.0,0,2019.0,0
462,462,-0.01834211322712731,-0.0,0.0,1.0,445.0,640.0,1.0,0,-655.0,1
463,463,0.5783823415100294,0.6,1.0,1.0,376.0,685.0,0.0,0,1939.0,0
464,464,-0.27425418323680983,-0.3,1.0,0.0,320.0,509.0,0.0,0,2171.0,1
465,465,-0.8925426269117858,-0.9,1.0,0.0,299.0,649.0,0.0,0,2052.0,1
466,466,0.37159959052258296,0.4,0.0,0.0,435.0,728.0,0.0,1,1837.0,1
467,467,0.44453005277885504,0.4,1.0,1.0,281.0,721.0,0.0,0,1998.0,0
468,468,-0.19115130147965587,-0.2,1.0,0.0,300.0,856.0,0.0,0,1844.0,1
469,469,-0.5545555506051492,-0.6,1.0,0.0,398.0,668.0,0.0,0,1934.0,1
470,470,0.6589838737155037,0.7,1.0,1.0,308.0,632.0,0.0,0,2060.0,0
471,471,-0.0037259113251842946,-0.0,0.0,1.0,365.0,616.0,0.0,1,2019.0,0
472,472,0.8353332283794966,0.8,1.0,1.0,476.0,952.0,0.0,0,1572.0,0
473,473,-0.3675476776388902,-0.4,0.0,1.0,327.0,986.0,0.0,1,1687.0,0
474,474,-0.03827851014633599,-0.0,0.0,1.0,419.0,939.0,0.0,1,1642.0,0
475,475,-0.003663885515294729,-0.0,0.0,1.0,282.0,510.0,0.0,1,2208.0,0
476,476,0.5712819772189358,0.6,1.0,1.0,271.0,946.0,0.0,0,-1197.0,0
477,477,-0.14248125868562045,-0.1,0.0,1.0,278.0,863.0,0.0,1,1859.0,0
478,478,-0.2809313134842537,-0.3,0.0,1.0,393.0,602.0,1.0,0,-995.0,1
479,479,0.1765239554493655,0.2,0.0,0.0,492.0,762.0,0.0,1,1746.0,1
480,480,0.15931130005278404,0.2,0.0,0.0,374.0,979.0,0.0,1,1647.0,1
481,481,0.8598832517596106,0.9,1.0,1.0,341.0,786.0,0.0,0,1873.0,0
482,482,0.598226278680447,0.6,1.0,1.0,469.0,716.0,0.0,0,1815.0,0
483,483,-0.4094059667695996,-0.4,1.0,0.0,398.0,889.0,0.0,0,-1267.0,1
484,484,0.5543161906700421,0.6,1.0,1.0,400.0,581.0,0.0,0,2019.0,0
485,485,0.03806225290220289,0.0,0.0,0.0,445.0,795.0,1.0,0,-1220.0,0
486,486,-0.8830272078975959,-0.9,0.0,1.0,486.0,512.0,0.0,1,2002.0,0
487,487,0.04544966205435097,0.0,1.0,1.0,476.0,559.0,0.0,0,1965.0,0
488,488,0.004566883212638206,0.0,1.0,1.0,314.0,721.0,0.0,0,1965.0,0
489,489,0.46413052181999637,0.5,1.0,1.0,268.0,896.0,0.0,0,1836.0,0
490,490,0.027304462193400547,0.0,0.0,0.0,439.0,534.0,0.0,1,2027.0,1
491,491,0.3307729260197353,0.3,0.0,0.0,391.0,699.0,0.0,1,1910.0,1
492,492,-0.6339558136645516,-0.6,0.0,1.0,387.0,992.0,0.0,1,1621.0,0
493,493,-0.8541918001611464,-0.9,1.0,0.0,481.0,639.0,0.0,0,1880.0,1
494,494,0.4796532990892993,0.5,0.0,0.0,327.0,885.0,0.0,1,1788.0,1
495,495,-0.08597570054772352,-0.1,0.0,1.0,335.0,520.0,0.0,1,2145.0,0
496,496,0.24299601639979762,0.2,1.0,1.0,325.0,639.0,0.0,0,2036.0,0
497,497,0.16067980227269263,0.2,1.0,1.0,321.0,503.0,1.0,1,-774.0,1
498,498,0.7450771047589385,0.7,0.0,0.0,283.0,528.0,0.0,1,2189.0,1
499,499,0.27055679193564475,0.3,0.0,0.0,383.0,883.0,0.0,1,1734.0,1
500,500,-0.3664635674644775,-0.4,1.0,0.0,302.0,885.0,0.0,0,1813.0,1
501,501,0.20153061874660494,0.2,0.0,0.0,482.0,848.0,0.0,1,1670.0,1
502,502,-0.14710889655837145,-0.1,0.0,1.0,484.0,809.0,0.0,1,1707.0,0
503,503,-0.6218416223330523,-0.6,1.0,0.0,310.0,635.0,0.0,0,2055.0,1
504,504,-0.16870792782949573,-0.2,0.0,1.0,491.0,717.0,0.0,1,1792.0,0
505,505,-0.26019705191929243,-0.3,1.0,0.0,425.0,851.0,0.0,0,1724.0,1
506,506,0.6206683931447413,0.6,0.0,0.0,424.0,571.0,0.0,1,2005.0,1
507,507,-0.2527287699093791,-0.3,0.0,1.0,492.0,923.0,0.0,1,1585.0,0
508,508,0.5042124878446802,0.5,1.0,1.0,259.0,737.0,0.0,0,2004.0,0
509,509,0.8872774114715719,0.9,1.0,1.0,416.0,716.0,0.0,0,1868.0,0
510,510,-0.48223391571968305,-0.5,1.0,0.0,298.0,756.0,0.0,0,1946.0,1
511,511,-0.05872052055383303,-0.1,1.0,0.0,420.0,648.0,0.0,0,1932.0,1
512,512,-0.8530744065932844,-0.9,0.0,1.0,350.0,553.0,0.0,1,2097.0,0
513,513,0.7703726305525157,0.8,1.0,1.0,381.0,994.0,0.0,0,1625.0,0
514,514,-0.8735596582745353,-0.9,0.0,1.0,296.0,919.0,0.0,1,1785.0,0
515,515,-0.38513178385220503,-0.4,0.0,1.0,418.0,746.0,0.0,1,1836.0,0
516,516,0.6782090680964773,0.7,1.0,1.0,476.0,727.0,0.0,0,1797.0,0
517,517,0.7155895871322321,0.7,1.0,1.0,348.0,933.0,0.0,0,-1181.0,0
518,518,0.20922537358481896,0.2,1.0,1.0,473.0,714.0,0.0,0,1813.0,0
519,519,0.012150219590189693,0.0,0.0,0.0,341.0,518.0,0.0,1,2141.0,1
520,520,0.7502282701511965,0.8,1.0,1.0,470.0,770.0,0.0,0,1760.0,0
521,521,0.39748433416769313,0.4,1.0,1.0,462.0,656.0,0.0,0,1882.0,0
522,522,0.007425933352121272,0.0,1.0,1.0,373.0,691.0,0.0,0,1936.0,0
523,523,-0.4160069319272495,-0.4,0.0,1.0,286.0,784.0,0.0,1,1930.0,0
524,524,0.5677766194839647,0.6,1.0,1.0,251.0,656.0,0.0,0,2093.0,0
525,525,-0.37618513730527536,-0.4,1.0,0.0,439.0,904.0,0.0,0,1657.0,1
526,526,-0.8633821687458934,-0.9,1.0,0.0,267.0,510.0,0.0,0,2223.0,1
527,527,-0.8918030142320974,-0.9,0.0,1.0,455.0,845.0,0.0,1,1700.0,0
528,528,-0.5635821818283933,-0.6,1.0,0.0,331.0,599.0,1.0,1,-920.0,0
529,529,-0.5771952105207612,-0.6,0.0,1.0,472.0,847.0,0.0,1,1681.0,0
530,530,0.6730649164086683,0.7,1.0,1.0,483.0,940.0,0.0,0,1577.0,0
531,531,0.3281645166112205,0.3,1.0,1.0,442.0,902.0,1.0,1,-1284.0,1
532,532,-0.5167330431757442,-0.5,0.0,1.0,473.0,755.0,0.0,1,1772.0,0
533,533,0.5437813140709563,0.5,0.0,0.0,349.0,760.0,0.0,1,1891.0,1
534,534,-0.05418301677060433,-0.1,0.0,1.0,284.0,998.0,0.0,1,-1252.0,0
535,535,0.03859425128094773,0.0,0.0,0.0,488.0,876.0,0.0,1,1636.0,1
536,536,0.8566957892558881,0.9,1.0,1.0,474.0,610.0,1.0,1,-1024.0,1
537,537,-0.4171684991783834,-0.4,0.0,1.0,469.0,503.0,0.0,1,2028.0,0
538,538,-0.07036621569826795,-0.1,1.0,0.0,432.0,754.0,0.0,0,-1126.0,1
539,539,-0.25147062439538137,-0.3,0.0,1.0,369.0,789.0,0.0,1,1842.0,0
540,540,0.8403865348488587,0.8,1.0,1.0,442.0,911.0,0.0,0,1647.0,0
541,541,0.010336286594170185,0.0,0.0,0.0,273.0,762.0,1.0,0,-985.0,0
542,542,0.3060703181306784,0.3,0.0,0.0,434.0,878.0,0.0,1,1688.0,1
543,543,-0.5763924070413939,-0.6,1.0,0.0,302.0,680.0,0.0,0,2018.0,1
544,544,-0.01610364908540962,-0.0,0.0,1.0,489.0,947.0,0.0,1,1564.0,0
545,545,-0.7853043188729518,-0.8,0.0,1.0,370.0,999.0,0.0,1,1631.0,0
546,546,0.32370220975777964,0.3,0.0,0.0,361.0,949.0,0.0,1,1690.0,1
547,547,0.1260292095170713,0.1,0.0,0.0,259.0,566.0,0.0,1,2175.0,1
548,548,0.5818036617946235,0.6,0.0,0.0,420.0,541.0,0.0,1,2039.0,1
549,549,-0.4600825232500344,-0.5,1.0,0.0,367.0,639.0,0.0,0,1994.0,1
550,550,-0.21261469618525564,-0.2,0.0,1.0,472.0,678.0,0.0,1,1850.0,0
551,551,-0.3689418415950476,-0.4,0.0,1.0,317.0,543.0,0.0,1,2140.0,0
552,552,0.8875077224229652,0.9,1.0,1.0,287.0,686.0,1.0,1,-803.0,1
553,553,-0.3367598429346982,-0.3,1.0,0.0,387.0,765.0,0.0,0,1848.0,1
554,554,0.7826844077994032,0.8,0.0,0.0,390.0,802.0,0.0,1,1808.0,1
555,555,0.22441736025140024,0.2,0.0,0.0,314.0,760.0,0.0,1,1926.0,1
556,556,-0.7884419455193568,-0.8,1.0,0.0,284.0,943.0,0.0,0,1773.0,1
557,557,0.3721771102073118,0.4,0.0,0.0,336.0,596.0,1.0,0,-872.0,0
558,558,0.8298852321210465,0.8,0.0,0.0,427.0,830.0,0.0,1,-1247.0,1
559,559,-0.38767704161562033,-0.4,0.0,1.0,453.0,857.0,0.0,1,1690.0,0
560,560,-0.7933142199151698,-0.8,1.0,0.0,384.0,790.0,0.0,0,1826.0,1
561,561,0.8356309087015926,0.8,1.0,1.0,399.0,724.0,0.0,0,1877.0,0
562,562,-0.5705748200077381,-0.6,0.0,1.0,325.0,529.0,0.0,1,2146.0,0
563,563,0.6094283337824357,0.6,0.0,0.0,339.0,519.0,0.0,1,2142.0,1
564,564,0.48433925592378346,0.5,1.0,1.0,427.0,990.0,0.0,0,1583.0,0
565,565,-0.2447374062083416,-0.2,0.0,1.0,303.0,736.0,0.0,1,1961.0,0
566,566,-0.23402350398751548,-0.2,1.0,0.0,452.0,933.0,0.0,0,1615.0,1
567,567,-0.8143326461777652,-0.8,1.0,0.0,272.0,979.0,0.0,0,1749.0,1
568,568,-0.5851098595152899,-0.6,1.0,0.0,297.0,809.0,0.0,0,1894.0,1
569,569,-0.7361016255081729,-0.7,1.0,0.0,325.0,550.0,0.0,0,2125.0,1
570,570,0.6434201672975602,0.6,0.0,0.0,393.0,894.0,0.0,1,1713.0,1
571,571,-0.7145174051399419,-0.7,0.0,1.0,335.0,928.0,0.0,1,1737.0,0
572,572,-0.4722006689892939,-0.5,0.0,1.0,301.0,783.0,0.0,1,1916.0,0
573,573,0.8820971633315658,0.9,1.0,1.0,408.0,868.0,1.0,1,-1226.0,1
574,574,0.0393335495963022,0.0,0.0,0.0,388.0,843.0,0.0,1,1769.0,1
575,575,-0.4347727818179048,-0.4,1.0,0.0,450.0,742.0,0.0,0,1808.0,1
576,576,0.37641692528544535,0.4,0.0,0.0,460.0,985.0,0.0,1,1555.0,1
577,577,0.09884481889920571,0.1,1.0,1.0,276.0,565.0,1.0,1,-831.0,1
578,578,-0.00731001016834365,-0.0,1.0,0.0,334.0,946.0,0.0,0,1720.0,1
579,579,-0.8996470499370163,-0.9,1.0,0.0,485.0,670.0,0.0,0,1845.0,1
580,580,-0.49132037455357785,-0.5,0.0,1.0,453.0,824.0,0.0,1,1723.0,0
581,581,0.16054483279591902,0.2,1.0,1.0,435.0,848.0,0.0,0,1717.0,0
582,582,-0.0652795555445933,-0.1,0.0,1.0,376.0,730.0,0.0,1,1894.0,0
583,583,0.882839300228779,0.9,0.0,0.0,334.0,600.0,0.0,1,2066.0,1
584,584,0.7727354735634403,0.8,0.0,0.0,280.0,979.0,0.0,1,1741.0,1
585,585,0.34378645065930924,0.3,0.0,0.0,463.0,847.0,0.0,1,1690.0,1
586,586,-0.8594371270297699,-0.9,1.0,0.0,480.0,777.0,0.0,0,1743.0,1
587,587,0.8577118617001572,0.9,1.0,1.0,427.0,650.0,0.0,0,1923.0,0
588,588,-0.30971202608170245,-0.3,0.0,1.0,278.0,713.0,0.0,1,2009.0,0
589,589,-0.8618311651952368,-0.9,1.0,0.0,336.0,844.0,0.0,0,1820.0,1
590,590,-0.26994113194029956,-0.3,0.0,1.0,277.0,537.0,0.0,1,2186.0,0
591,591,-0.7885347658847696,-0.8,0.0,1.0,441.0,512.0,0.0,1,2047.0,0
592,592,-0.12639866386778031,-0.1,1.0,0.0,398.0,901.0,0.0,0,1701.0,1
593,593,0.043279495585018424,0.0,1.0,1.0,418.0,720.0,0.0,0,1862.0,0
594,594,0.7422428427619557,0.7,0.0,0.0,455.0,717.0,1.0,0,-1052.0,0
595,595,0.6109184757913834,0.6,1.0,1.0,459.0,590.0,0.0,0,1951.0,0
596,596,0.5602421761427342,0.6,1.0,1.0,284.0,679.0,0.0,0,2037.0,0
597,597,0.864718778164857,0.9,0.0,0.0,430.0,699.0,0.0,1,1871.0,1
598,598,0.7402917547655944,0.7,1.0,1.0,341.0,800.0,0.0,0,1859.0,0
599,599,0.26771493709661665,0.3,0.0,0.0,472.0,690.0,1.0,0,-1102.0,0
600,600,-0.35276752726508753,-0.4,0.0,1.0,348.0,982.0,0.0,1,1670.0,0
601,601,0.6027275711199979,0.6,0.0,0.0,323.0,965.0,0.0,1,1712.0,1
602,602,-0.5867540288882676,-0.6,1.0,0.0,408.0,868.0,0.0,0,1724.0,1
603,603,-0.17043630295008572,-0.2,0.0,1.0,286.0,575.0,0.0,1,2139.0,0
604,604,0.030782548463159087,0.0,1.0,1.0,273.0,964.0,0.0,0,1763.0,0
605,605,-0.010829140675673532,-0.0,0.0,1.0,314.0,734.0,0.0,1,1952.0,0
606,606,0.4234257012996566,0.4,1.0,1.0,425.0,762.0,0.0,0,1813.0,0
607,607,-0.8516171925349608,-0.9,1.0,0.0,479.0,644.0,0.0,0,1877.0,1
608,608,0.6242797300103086,0.6,1.0,1.0,459.0,664.0,0.0,0,1877.0,0
609,609,0.5477327748767707,0.5,0.0,0.0,425.0,999.0,0.0,1,1576.0,1
610,610,-0.8117070479313329,-0.8,1.0,0.0,395.0,720.0,1.0,1,-1075.0,0
611,611,-0.04772718902679718,-0.0,0.0,1.0,268.0,518.0,0.0,1,2214.0,0
612,612,-0.20559224640458884,-0.2,0.0,1.0,445.0,890.0,0.0,1,1665.0,0
613,613,0.6397404517140021,0.6,0.0,0.0,384.0,717.0,0.0,1,1899.0,1
614,614,-0.5449970910610662,-0.5,0.0,1.0,386.0,960.0,0.0,1,1654.0,0
615,615,-0.40330366432476145,-0.4,0.0,1.0,466.0,838.0,0.0,1,1696.0,0
616,616,-0.30689609544979546,-0.3,0.0,1.0,477.0,582.0,0.0,1,1941.0,0
617,617,0.2938526896039034,0.3,0.0,0.0,488.0,582.0,0.0,1,1930.0,1
618,618,0.1192401176532002,0.1,0.0,0.0,406.0,799.0,0.0,1,1795.0,1
619,619,0.6867304749330071,0.7,0.0,0.0,299.0,578.0,0.0,1,2123.0,1
620,620,0.7282533390511384,0.7,1.0,1.0,456.0,908.0,0.0,0,1636.0,0
621,621,-0.3049883381674403,-0.3,0.0,1.0,489.0,591.0,0.0,1,1920.0,0
622,622,-0.38966817406904264,-0.4,0.0,1.0,310.0,820.0,0.0,1,1870.0,0
623,623,0.33851310633507337,0.3,0.0,0.0,262.0,691.0,0.0,1,2047.0,1
624,624,-0.1363547583554252,-0.1,0.0,1.0,473.0,607.0,0.0,1,1920.0,0
625,625,-0.6855616830223958,-0.7,1.0,0.0,410.0,561.0,0.0,0,2029.0,1
626,626,-0.7433970559646056,-0.7,0.0,1.0,357.0,669.0,1.0,0,-926.0,1
627,627,-0.7134970442704816,-0.7,0.0,1.0,449.0,894.0,0.0,1,1657.0,0
628,628,0.26882058642792106,0.3,1.0,1.0,300.0,504.0,0.0,0,2196.0,0
629,629,-0.2227153926823594,-0.2,0.0,1.0,425.0,550.0,0.0,1,2025.0,0
630,630,-0.18779927629458049,-0.2,0.0,1.0,250.0,650.0,0.0,1,-880.0,0
631,631,0.580340093028365,0.6,0.0,0.0,256.0,710.0,0.0,1,2034.0,1
632,632,-0.3600952361804677,-0.4,0.0,1.0,299.0,630.0,1.0,0,-809.0,1
633,633,0.2115976928497355,0.2,0.0,0.0,358.0,938.0,0.0,1,1704.0,1
634,634,-0.7979785302481923,-0.8,1.0,0.0,398.0,854.0,1.0,1,-1242.0,0
635,635,-0.8008276284964863,-0.8,0.0,1.0,430.0,979.0,0.0,1,1591.0,0
636,636,0.3258282659095767,0.3,0.0,0.0,405.0,694.0,0.0,1,1901.0,1
637,637,-0.6554598576069676,-0.7,1.0,0.0,341.0,521.0,0.0,0,2138.0,1
638,638,0.14575384748271636,0.1,0.0,0.0,293.0,954.0,0.0,1,1753.0,1
639,639,0.38958526107095925,0.4,0.0,0.0,354.0,632.0,1.0,0,-946.0,0
640,640,0.6196963766644089,0.6,1.0,1.0,448.0,710.0,0.0,0,1842.0,0
641,641,0.24480014015380347,0.2,1.0,1.0,352.0,772.0,0.0,0,1876.0,0
642,642,-0.13440685213466863,-0.1,0.0,1.0,310.0,690.0,0.0,1,2000.0,0
643,643,-0.0939504622677445,-0.1,0.0,1.0,466.0,933.0,0.0,1,1601.0,0
644,644,0.42974605683595646,0.4,1.0,1.0,284.0,892.0,0.0,0,1824.0,0
645,645,0.22175854695418573,0.2,0.0,0.0,475.0,657.0,0.0,1,1868.0,1
646,646,-0.8251965074813689,-0.8,1.0,0.0,393.0,613.0,0.0,0,1994.0,1
647,647,-0.2686923891909415,-0.3,0.0,1.0,319.0,649.0,0.0,1,2032.0,0
648,648,0.8287527711720853,0.8,1.0,1.0,436.0,806.0,0.0,0,1758.0,0
649,649,0.5754278381895367,0.6,0.0,0.0,321.0,888.0,0.0,1,1791.0,1
650,650,-0.701318113181983,-0.7,1.0,0.0,494.0,803.0,0.0,0,1703.0,1
651,651,-0.1035120786875745,-0.1,0.0,1.0,405.0,934.0,0.0,1,1661.0,0
652,652,-0.07076043965504752,-0.1,0.0,1.0,259.0,898.0,0.0,1,-947.0,0
653,653,-0.6878118022992249,-0.7,1.0,0.0,315.0,570.0,0.0,0,-875.0,1
654,654,-0.47650836406059865,-0.5,0.0,1.0,257.0,873.0,0.0,1,1870.0,0
655,655,0.6518894453620424,0.7,1.0,1.0,360.0,985.0,0.0,0,1655.0,0
656,656,-0.22357575808269692,-0.2,0.0,1.0,488.0,566.0,0.0,1,1946.0,0
657,657,0.8846031075744888,0.9,1.0,1.0,439.0,900.0,1.0,1,-1319.0,1
658,658,0.15722324267770083,0.2,0.0,0.0,299.0,668.0,0.0,1,2033.0,1
659,659,-0.5395642416357398,-0.5,0.0,1.0,441.0,998.0,0.0,1,1561.0,0
660,660,0.0452126797698732,0.0,0.0,0.0,357.0,654.0,0.0,1,1989.0,1
661,661,0.5772606326072539,0.6,0.0,0.0,415.0,804.0,0.0,1,1781.0,1
662,662,0.6854363344060291,0.7,1.0,1.0,306.0,809.0,0.0,0,1885.0,0
663,663,0.4845074537417752,0.5,0.0,0.0,434.0,998.0,0.0,1,1568.0,1
664,664,0.2252366205242703,0.2,1.0,1.0,448.0,933.0,0.0,0,1619.0,0
665,665,-0.6261362177944755,-0.6,1.0,0.0,385.0,507.0,0.0,0,2108.0,1
666,666,0.6889354306303775,0.7,0.0,0.0,421.0,714.0,1.0,0,-1105.0,0
667,667,-0.6261042099636356,-0.6,0.0,1.0,413.0,792.0,0.0,1,1795.0,0
668,668,0.138002256287867,0.1,1.0,1.0,484.0,756.0,0.0,0,1760.0,0
669,669,-0.4671901335629408,-0.5,0.0,1.0,441.0,538.0,0.0,1,2021.0,0
670,670,-0.8385050949425831,-0.8,1.0,0.0,377.0,704.0,0.0,0,1919.0,1
671,671,-0.25814443473336923,-0.3,1.0,0.0,325.0,636.0,0.0,0,2039.0,1
672,672,-0.008035260216979645,-0.0,1.0,0.0,434.0,616.0,0.0,0,1950.0,1
673,673,0.6387689298983595,0.6,1.0,1.0,485.0,895.0,0.0,0,1620.0,0
674,674,-0.42141961074238826,-0.4,0.0,1.0,496.0,931.0,0.0,1,1573.0,0
675,675,0.8974147290218341,0.9,0.0,0.0,422.0,769.0,0.0,1,1809.0,1
676,676,-0.5527851371455446,-0.6,0.0,1.0,335.0,664.0,0.0,1,2001.0,0
677,677,-0.4708051401084105,-0.5,1.0,0.0,471.0,522.0,0.0,0,2007.0,1
678,678,0.6468222428876901,0.6,1.0,1.0,443.0,761.0,0.0,0,1796.0,0
679,679,-0.6190934252525355,-0.6,1.0,0.0,493.0,821.0,0.0,0,1686.0,1
680,680,-0.3327293363527336,-0.3,1.0,0.0,369.0,741.0,1.0,1,-830.0,0
681,681,-0.20484292373980384,-0.2,0.0,1.0,369.0,545.0,0.0,1,2086.0,0
682,682,0.5928349989637275,0.6,0.0,0.0,330.0,983.0,0.0,1,1687.0,1
683,683,0.13944386089968386,0.1,0.0,0.0,353.0,745.0,0.0,1,1902.0,1
684,684,-0.20571115422166442,-0.2,1.0,0.0,391.0,909.0,0.0,0,1700.0,1
685,685,0.6993558115828687,0.7,0.0,0.0,461.0,729.0,0.0,1,1810.0,1
686,686,-0.545509516468492,-0.5,0.0,1.0,450.0,784.0,0.0,1,1766.0,0
687,687,0.45529617228306896,0.5,1.0,1.0,368.0,613.0,0.0,0,2019.0,0
688,688,-0.8543201497329823,-0.9,1.0,0.0,253.0,619.0,0.0,0,2128.0,1
689,689,0.15810810225425664,0.2,0.0,0.0,402.0,618.0,0.0,1,1980.0,1
690,690,-0.8496570015475057,-0.8,0.0,1.0,442.0,808.0,0.0,1,1750.0,0
691,691,-0.4226756609508077,-0.4,1.0,0.0,441.0,943.0,0.0,0,1616.0,1
692,692,-0.7866112953092579,-0.8,1.0,0.0,280.0,598.0,0.0,0,2122.0,1
693,693,0.6979045644118799,0.7,1.0,1.0,408.0,841.0,0.0,0,1751.0,0
694,694,-0.03393715578439871,-0.0,0.0,1.0,314.0,546.0,0.0,1,2140.0,0
695,695,-0.8621328651316762,-0.9,0.0,1.0,350.0,510.0,0.0,1,2140.0,0
696,696,-0.3783401639020263,-0.4,1.0,0.0,402.0,535.0,0.0,0,-777.0,1
697,697,-0.017017161040812856,-0.0,1.0,0.0,354.0,848.0,0.0,0,1798.0,1
698,698,0.1491403374880994,0.1,0.0,0.0,267.0,942.0,0.0,1,-979.0,1
699,699,0.7350861146931648,0.7,0.0,0.0,392.0,779.0,0.0,1,1829.0,1
700,700,0.030887501110347104,0.0,0.0,0.0,486.0,947.0,0.0,1,1567.0,1
701,701,0.510388339076118,0.5,1.0,1.0,337.0,761.0,0.0,0,1902.0,0
702,702,-0.14342950663800713,-0.1,1.0,0.0,348.0,629.0,0.0,0,2023.0,1
703,703,0.34664521045927466,0.3,0.0,0.0,252.0,508.0,0.0,1,2240.0,1
704,704,-0.17900796640495775,-0.2,0.0,1.0,371.0,514.0,1.0,0,-865.0,1
705,705,0.13509993725583647,0.1,0.0,0.0,271.0,623.0,0.0,1,2106.0,1
706,706,-0.20726831764924203,-0.2,0.0,1.0,443.0,793.0,0.0,1,-1146.0,0
707,707,0.43144457967748584,0.4,1.0,1.0,453.0,764.0,0.0,0,1783.0,0
708,708,-0.4953780051491658,-0.5,1.0,0.0,468.0,731.0,0.0,0,1801.0,1
709,709,0.7094402315264438,0.7,0.0,0.0,422.0,652.0,1.0,0,-1064.0,0
710,710,0.41903791576771454,0.4,0.0,0.0,400.0,707.0,0.0,1,1893.0,1
711,711,-0.2701724293658886,-0.3,0.0,1.0,332.0,613.0,0.0,1,2055.0,0
712,712,-0.598554278724918,-0.6,1.0,0.0,433.0,574.0,0.0,0,1993.0,1
713,713,-0.4506123442427687,-0.5,1.0,0.0,271.0,669.0,0.0,0,2060.0,1
714,714,0.10495621745633066,0.1,0.0,0.0,257.0,550.0,0.0,1,2193.0,1
715,715,-0.7082856057459427,-0.7,0.0,1.0,393.0,631.0,0.0,1,1976.0,0
716,716,0.05184649970695354,0.1,0.0,0.0,337.0,854.0,0.0,1,1809.0,1
717,717,0.46720498884690553,0.5,0.0,0.0,472.0,679.0,0.0,1,1849.0,1
718,718,0.5269320486318113,0.5,1.0,1.0,438.0,966.0,0.0,0,1596.0,0
719,719,0.8956089638406143,0.9,1.0,1.0,301.0,754.0,0.0,0,1945.0,0
720,720,-0.8717296313687853,-0.9,0.0,1.0,485.0,686.0,0.0,1,1829.0,0
721,721,-0.34910369048670054,-0.3,0.0,1.0,371.0,835.0,0.0,1,1794.0,0
722,722,0.7900922149359536,0.8,1.0,1.0,282.0,815.0,0.0,0,1903.0,0
723,723,0.31345143530661324,0.3,1.0,1.0,290.0,657.0,0.0,0,2053.0,0
724,724,0.43971570579595387,0.4,0.0,0.0,334.0,730.0,0.0,1,1936.0,1
725,725,-0.1273732660743665,-0.1,1.0,0.0,367.0,704.0,1.0,1,-971.0,0
726,726,0.7593839597345432,0.8,0.0,0.0,485.0,968.0,0.0,1,1547.0,1
727,727,-0.6212362990261053,-0.6,1.0,0.0,262.0,744.0,0.0,0,1994.0,1
728,728,0.34973024616073156,0.3,1.0,1.0,258.0,661.0,0.0,0,2081.0,0
729,729,0.04995300748544462,0.0,1.0,1.0,308.0,701.0,0.0,0,1991.0,0
730,730,0.7490719318629352,0.7,0.0,0.0,358.0,976.0,0.0,1,1666.0,1
731,731,0.7656778010025421,0.8,1.0,1.0,355.0,596.0,0.0,0,2049.0,0
732,732,-0.7945659738241408,-0.8,0.0,1.0,328.0,836.0,0.0,1,1836.0,0
733,733,0.7801284635571358,0.8,1.0,1.0,395.0,693.0,0.0,0,-1038.0,0
734,734,0.05423360721561654,0.1,1.0,1.0,428.0,720.0,1.0,1,-1148.0,1
735,735,-0.31743024642391005,-0.3,0.0,1.0,430.0,807.0,0.0,1,1763.0,0
736,736,0.31213781963148113,0.3,1.0,1.0,474.0,818.0,0.0,0,1708.0,0
737,737,-0.8154888296862498,-0.8,0.0,1.0,269.0,672.0,0.0,1,-911.0,0
738,738,-0.6663416182983064,-0.7,0.0,1.0,293.0,751.0,0.0,1,1956.0,0
739,739,-0.18640171336989908,-0.2,0.0,1.0,339.0,608.0,0.0,1,2053.0,0
740,740,0.7069019025996582,0.7,1.0,1.0,420.0,887.0,0.0,0,1693.0,0
741,741,-0.32393126965047037,-0.3,0.0,1.0,470.0,944.0,0.0,1,1586.0,0
742,742,-0.6946613135883786,-0.7,1.0,0.0,350.0,910.0,0.0,0,1740.0,1
743,743,-0.7026562846991372,-0.7,1.0,0.0,306.0,909.0,0.0,0,1785.0,1
744,744,-0.07445020223990739,-0.1,1.0,0.0,317.0,587.0,1.0,1,-794.0,0
745,745,-0.8090256948012855,-0.8,1.0,0.0,331.0,829.0,0.0,0,1840.0,1
746,746,0.24224953662796433,0.2,1.0,1.0,360.0,736.0,0.0,0,1904.0,0
747,747,0.5964032691594884,0.6,0.0,0.0,370.0,675.0,0.0,1,1955.0,1
748,748,0.6570092187310471,0.7,0.0,0.0,481.0,564.0,0.0,1,1955.0,1
749,749,0.3411543368620694,0.3,0.0,0.0,495.0,976.0,0.0,1,-1441.0,1
750,750,-0.4925534889645972,-0.5,0.0,1.0,498.0,924.0,0.0,1,1578.0,0
751,751,0.2779896596096677,0.3,0.0,0.0,389.0,510.0,0.0,1,2101.0,1
752,752,-0.8012929991129962,-0.8,1.0,0.0,326.0,818.0,1.0,1,-1114.0,0
753,753,0.03087783881191619,0.0,1.0,1.0,355.0,702.0,0.0,0,1943.0,0
754,754,-0.05940076396747651,-0.1,1.0,0.0,383.0,862.0,0.0,0,-1095.0,1
755,755,0.5011963714392743,0.5,0.0,0.0,298.0,517.0,0.0,1,2185.0,1
756,756,0.09543695600507884,0.1,0.0,0.0,455.0,873.0,0.0,1,1672.0,1
757,757,-0.47926816990204213,-0.5,0.0,1.0,399.0,706.0,1.0,0,-1075.0,1
758,758,-0.8914576733995887,-0.9,0.0,1.0,292.0,785.0,0.0,1,1923.0,0
759,759,-0.18533695344883627,-0.2,1.0,0.0,442.0,651.0,0.0,0,1907.0,1
760,760,0.5383102545335624,0.5,0.0,0.0,487.0,736.0,0.0,1,1777.0,1
761,761,0.3474259450593663,0.3,1.0,1.0,441.0,622.0,0.0,0,1937.0,0
762,762,0.5798901460116989,0.6,1.0,1.0,359.0,604.0,0.0,0,2037.0,0
763,763,-0.7841395008347065,-0.8,1.0,0.0,465.0,815.0,0.0,0,1720.0,1
764,764,0.6045084954192702,0.6,1.0,1.0,336.0,762.0,0.0,0,1902.0,0
765,765,0.8540194191458533,0.9,1.0,1.0,330.0,554.0,1.0,1,-824.0,1
766,766,0.4780336456076121,0.5,0.0,0.0,383.0,841.0,0.0,1,1776.0,1
767,767,0.24255728256330766,0.2,1.0,1.0,434.0,626.0,0.0,0,1940.0,0
768,768,0.5092400063338899,0.5,0.0,0.0,376.0,774.0,0.0,1,1850.0,1
769,769,0.09699619996934128,0.1,0.0,0.0,332.0,625.0,0.0,1,2043.0,1
770,770,-0.7494271899510391,-0.7,0.0,1.0,486.0,570.0,0.0,1,1944.0,0
771,771,0.11109879863459937,0.1,1.0,1.0,416.0,907.0,0.0,0,-1313.0,0
772,772,-0.17325488441572323,-0.2,1.0,0.0,257.0,703.0,0.0,0,-960.0,1
773,773,0.14923582133991775,0.1,1.0,1.0,275.0,535.0,0.0,0,-730.0,0
774,774,-0.5167900995142491,-0.5,0.0,1.0,410.0,954.0,0.0,1,1636.0,0
775,775,0.7281272948064655,0.7,1.0,1.0,468.0,622.0,0.0,0,1910.0,0
776,776,0.6557639239466572,0.7,0.0,0.0,288.0,749.0,0.0,1,1963.0,1
777,777,-0.05693849255202488,-0.1,1.0,0.0,272.0,989.0,0.0,0,1739.0,1
778,778,0.27887457320354236,0.3,0.0,0.0,251.0,626.0,0.0,1,2123.0,1
779,779,-0.28748114665746605,-0.3,0.0,1.0,250.0,540.0,0.0,1,2210.0,0
780,780,0.24290535255277035,0.2,0.0,0.0,347.0,797.0,0.0,1,1856.0,1
781,781,0.8850199108154967,0.9,0.0,0.0,331.0,712.0,0.0,1,1957.0,1
782,782,-0.8331614868977885,-0.8,1.0,0.0,402.0,900.0,1.0,1,-1182.0,0
783,783,0.4308934782226558,0.4,0.0,0.0,371.0,969.0,0.0,1,1660.0,1
784,784,0.39164957794757693,0.4,1.0,1.0,307.0,894.0,0.0,0,1799.0,0
785,785,0.7516067060430943,0.8,1.0,1.0,483.0,517.0,0.0,0,2000.0,0
786,786,-0.1539399492382889,-0.2,1.0,0.0,446.0,990.0,1.0,1,-1396.0,0
787,787,0.1844657542462057,0.2,1.0,1.0,435.0,866.0,0.0,0,1699.0,0
788,788,-0.31093757762140417,-0.3,0.0,1.0,341.0,551.0,0.0,1,2108.0,0
789,789,-0.22398474415979908,-0.2,1.0,0.0,460.0,995.0,0.0,0,1545.0,1
790,790,0.4445722787922065,0.4,0.0,0.0,300.0,507.0,0.0,1,2193.0,1
791,791,-0.27153347878468614,-0.3,1.0,0.0,254.0,591.0,0.0,0,2155.0,1
792,792,0.7547951733842865,0.8,0.0,0.0,461.0,689.0,0.0,1,-1130.0,1
793,793,-0.22087271791197116,-0.2,1.0,0.0,394.0,574.0,0.0,0,2032.0,1
794,794,-0.2620429283461164,-0.3,0.0,1.0,300.0,549.0,0.0,1,2151.0,0
795,795,-0.22056648105082466,-0.2,1.0,0.0,469.0,755.0,0.0,0,1776.0,1
796,796,-0.5554656550427017,-0.6,1.0,0.0,251.0,761.0,0.0,0,1988.0,1
797,797,-0.39609006108675016,-0.4,1.0,0.0,486.0,738.0,0.0,0,1776.0,1
798,798,-0.5104334740732969,-0.5,1.0,0.0,292.0,938.0,0.0,0,1770.0,1
799,799,-0.7101478000041346,-0.7,0.0,1.0,450.0,594.0,0.0,1,1956.0,0
800,800,0.5481969115468047,0.5,0.0,0.0,428.0,671.0,0.0,1,1901.0,1
801,801,0.11502078059603094,0.1,0.0,0.0,328.0,750.0,0.0,1,1922.0,1
802,802,-0.7804348726093708,-0.8,1.0,0.0,254.0,666.0,0.0,0,2080.0,1
803,803,0.7568611808646245,0.8,0.0,0.0,415.0,689.0,1.0,0,-1054.0,0
804,804,0.8631442381351725,0.9,0.0,0.0,283.0,689.0,0.0,1,2028.0,1
805,805,0.4855257221268946,0.5,0.0,0.0,310.0,999.0,0.0,1,1691.0,1
806,806,-0.8274240139406825,-0.8,0.0,1.0,417.0,597.0,0.0,1,1986.0,0
807,807,-0.49105428658147354,-0.5,1.0,0.0,399.0,992.0,0.0,0,-1351.0,1
808,808,0.037204767222134394,0.0,1.0,1.0,407.0,729.0,0.0,0,1864.0,0
809,809,0.48179544306346755,0.5,0.0,0.0,492.0,661.0,0.0,1,1847.0,1
810,810,-0.17467584707261308,-0.2,1.0,0.0,285.0,716.0,0.0,0,1999.0,1
811,811,-0.34269437236150213,-0.3,1.0,0.0,391.0,850.0,0.0,0,-1041.0,1
812,812,-0.23279956258390555,-0.2,1.0,0.0,495.0,628.0,0.0,0,1877.0,1
813,813,0.09496278938102298,0.1,1.0,1.0,345.0,733.0,0.0,0,1922.0,0
814,814,0.02872972704186849,0.0,1.0,1.0,332.0,513.0,0.0,0,2155.0,0
815,815,-0.11343016505352,-0.1,0.0,1.0,353.0,623.0,0.0,1,2024.0,0
816,816,-0.609518473610394,-0.6,1.0,0.0,475.0,741.0,0.0,0,1784.0,1
817,817,0.18899823113438197,0.2,0.0,0.0,259.0,723.0,0.0,1,2018.0,1
818,818,-0.20486967669688738,-0.2,1.0,0.0,460.0,949.0,0.0,0,1591.0,1
819,819,0.1260312638095481,0.1,1.0,1.0,483.0,542.0,0.0,0,-855.0,0
820,820,-0.8637922623710863,-0.9,0.0,1.0,435.0,623.0,0.0,1,1942.0,0
821,821,-0.22180873025580505,-0.2,0.0,1.0,317.0,526.0,0.0,1,2157.0,0
822,822,-0.1254643624018431,-0.1,1.0,0.0,406.0,726.0,0.0,0,1868.0,1
823,823,-0.12893567437321785,-0.1,1.0,0.0,485.0,624.0,0.0,0,-1079.0,1
824,824,0.489896877999768,0.5,1.0,1.0,334.0,637.0,0.0,0,2029.0,0
825,825,-0.026887827574302525,-0.0,1.0,0.0,372.0,860.0,0.0,0,1768.0,1
826,826,0.3523059884347771,0.4,0.0,0.0,452.0,872.0,0.0,1,1676.0,1
827,827,-0.00010751661018748582,-0.0,1.0,0.0,295.0,723.0,0.0,0,1982.0,1
828,828,0.2079277434848198,0.2,1.0,1.0,397.0,958.0,0.0,0,1645.0,0
829,829,0.03277537787363782,0.0,1.0,1.0,418.0,589.0,0.0,0,1993.0,0
830,830,-0.841167612528805,-0.8,0.0,1.0,462.0,754.0,1.0,0,-1086.0,1
831,831,0.8186127778429385,0.8,1.0,1.0,285.0,930.0,0.0,0,1785.0,0
832,832,-0.48389073982048186,-0.5,0.0,1.0,455.0,669.0,0.0,1,1876.0,0
833,833,0.28067242785343083,0.3,0.0,0.0,391.0,847.0,0.0,1,1762.0,1
834,834,-0.6944950099201131,-0.7,0.0,1.0,355.0,957.0,0.0,1,1688.0,0
835,835,-0.12127136225226087,-0.1,0.0,1.0,482.0,843.0,0.0,1,-1275.0,0
836,836,-0.6746499559611592,-0.7,1.0,0.0,364.0,861.0,0.0,0,1775.0,1
837,837,-0.8691989796519518,-0.9,0.0,1.0,402.0,791.0,0.0,1,-1133.0,0
838,838,-0.34067112266367316,-0.3,0.0,1.0,320.0,710.0,0.0,1,-1020.0,0
839,839,-0.1910909372060432,-0.2,1.0,0.0,280.0,797.0,0.0,0,1923.0,1
840,840,0.22781526019006393,0.2,0.0,0.0,295.0,790.0,0.0,1,1915.0,1
841,841,-0.3103537090509606,-0.3,0.0,1.0,355.0,502.0,0.0,1,2143.0,0
842,842,0.4570106025868165,0.5,1.0,1.0,311.0,680.0,0.0,0,-951.0,0
843,843,-0.8192689690276906,-0.8,1.0,0.0,424.0,604.0,0.0,0,1972.0,1
844,844,-0.840920901032261,-0.8,0.0,1.0,438.0,896.0,0.0,1,1666.0,0
845,845,0.4735479223008231,0.5,0.0,0.0,377.0,713.0,0.0,1,1910.0,1
846,846,0.3967695830668264,0.4,1.0,1.0,282.0,745.0,1.0,1,-567.0,1
847,847,-0.4494622432149299,-0.4,1.0,0.0,399.0,684.0,0.0,0,1917.0,1
848,848,0.6333253692042883,0.6,0.0,0.0,395.0,532.0,0.0,1,2073.0,1
849,849,0.23386694765421956,0.2,1.0,1.0,362.0,994.0,0.0,0,1644.0,0
850,850,-0.3727045702019467,-0.4,0.0,1.0,484.0,500.0,1.0,0,-964.0,1
851,851,-0.7782580054132711,-0.8,1.0,0.0,264.0,525.0,0.0,0,2211.0,1
852,852,-0.4755325571814592,-0.5,1.0,0.0,414.0,589.0,1.0,1,-953.0,0
853,853,0.08168501656479665,0.1,1.0,1.0,472.0,809.0,0.0,0,1719.0,0
854,854,-0.21355976916464559,-0.2,0.0,1.0,481.0,950.0,0.0,1,1569.0,0
855,855,-0.8394916359287343,-0.8,0.0,1.0,399.0,551.0,0.0,1,2050.0,0
856,856,-0.20925954612605402,-0.2,1.0,0.0,367.0,590.0,0.0,0,2043.0,1
857,857,-0.34382331737274074,-0.3,0.0,1.0,353.0,821.0,0.0,1,1826.0,0
858,858,0.11593713885140244,0.1,1.0,1.0,403.0,623.0,0.0,0,1974.0,0
859,859,0.8430573105238187,0.8,0.0,0.0,255.0,620.0,0.0,1,2125.0,1
860,860,0.5807905817008189,0.6,1.0,1.0,480.0,572.0,0.0,0,1948.0,0
861,861,0.044928090741292004,0.0,0.0,0.0,471.0,887.0,0.0,1,1642.0,1
862,862,0.23631117289421855,0.2,0.0,0.0,479.0,781.0,0.0,1,1740.0,1
863,863,0.2984554690978475,0.3,0.0,0.0,320.0,835.0,0.0,1,1845.0,1
864,864,0.7565158234464958,0.8,1.0,1.0,294.0,584.0,0.0,0,2122.0,0
865,865,-0.5276053128206493,-0.5,0.0,1.0,396.0,876.0,0.0,1,1728.0,0
866,866,-0.5773908395832679,-0.6,0.0,1.0,333.0,566.0,0.0,1,2101.0,0
867,867,0.3831858098647417,0.4,1.0,1.0,400.0,814.0,0.0,0,-1014.0,0
868,868,-0.7089299275347837,-0.7,0.0,1.0,446.0,703.0,0.0,1,1851.0,0
869,869,0.8506309114275264,0.9,0.0,0.0,336.0,942.0,0.0,1,1722.0,1
870,870,-0.8721417237577417,-0.9,0.0,1.0,383.0,894.0,0.0,1,1723.0,0
871,871,-0.8823475708268579,-0.9,1.0,0.0,468.0,906.0,0.0,0,1626.0,1
872,872,0.03880435146285843,0.0,0.0,0.0,403.0,539.0,0.0,1,2058.0,1
873,873,-0.789689457820763,-0.8,1.0,0.0,283.0,643.0,1.0,1,-856.0,0
874,874,0.7626424715122851,0.8,0.0,0.0,426.0,665.0,0.0,1,1909.0,1
875,875,0.020296128872048902,0.0,0.0,0.0,394.0,932.0,0.0,1,1674.0,1
876,876,-0.714869189812964,-0.7,0.0,1.0,459.0,777.0,0.0,1,1764.0,0
877,877,-0.4879697544350362,-0.5,0.0,1.0,293.0,926.0,0.0,1,1781.0,0
878,878,0.32658382587079327,0.3,0.0,0.0,266.0,725.0,0.0,1,2009.0,1
879,879,0.03580206222936855,0.0,0.0,0.0,436.0,719.0,0.0,1,1845.0,1
880,880,0.6178702367415069,0.6,1.0,1.0,433.0,682.0,0.0,0,1885.0,0
881,881,0.3606531203548943,0.4,0.0,0.0,479.0,555.0,0.0,1,1966.0,1
882,882,0.7746678000755386,0.8,1.0,1.0,335.0,613.0,0.0,0,2052.0,0
883,883,0.7185109699169453,0.7,1.0,1.0,360.0,539.0,1.0,1,-879.0,1
884,884,0.4547670879200575,0.5,0.0,0.0,472.0,548.0,0.0,1,1980.0,1
885,885,-0.8924957625154392,-0.9,1.0,0.0,321.0,588.0,0.0,0,2091.0,1
886,886,0.8010811563849959,0.8,0.0,0.0,370.0,926.0,0.0,1,1704.0,1
887,887,-0.15593546929341306,-0.2,1.0,0.0,270.0,808.0,0.0,0,1922.0,1
888,888,0.6004949555847169,0.6,0.0,0.0,330.0,534.0,0.0,1,2136.0,1
889,889,0.005754789876192823,0.0,0.0,0.0,299.0,648.0,0.0,1,2053.0,1
890,890,0.036701346148637626,0.0,0.0,0.0,393.0,542.0,0.0,1,2065.0,1
891,891,-0.8343847326297643,-0.8,1.0,0.0,260.0,702.0,1.0,1,-882.0,0
892,892,0.7955942254642273,0.8,0.0,0.0,253.0,932.0,0.0,1,1815.0,1
893,893,0.5375788092127617,0.5,0.0,0.0,355.0,891.0,0.0,1,1754.0,1
894,894,-0.034323070048533855,-0.0,1.0,0.0,366.0,822.0,0.0,0,1812.0,1
895,895,0.3155366740657505,0.3,0.0,0.0,381.0,568.0,0.0,1,2051.0,1
896,896,0.6756806501652662,0.7,0.0,0.0,319.0,589.0,0.0,1,2092.0,1
897,897,-0.6950327547027524,-0.7,1.0,0.0,381.0,900.0,0.0,0,1719.0,1
898,898,0.7774856199910704,0.8,1.0,1.0,251.0,624.0,0.0,0,2125.0,0
899,899,-0.179076369954143,-0.2,1.0,0.0,292.0,975.0,0.0,0,1733.0,1
900,900,0.5935687226574954,0.6,0.0,0.0,385.0,956.0,0.0,1,1659.0,1
901,901,-0.898775422401941,-0.9,1.0,0.0,287.0,738.0,0.0,0,1975.0,1
902,902,-0.47237870656335496,-0.5,0.0,1.0,496.0,581.0,0.0,1,1923.0,0
903,903,-0.8431908962774001,-0.8,1.0,0.0,250.0,521.0,0.0,0,2229.0,1
904,904,-0.056261394879172255,-0.1,0.0,1.0,491.0,696.0,0.0,1,1813.0,0
905,905,-0.2767110754862875,-0.3,0.0,1.0,341.0,889.0,0.0,1,1770.0,0
906,906,-0.5329639391230148,-0.5,0.0,1.0,448.0,590.0,0.0,1,1962.0,0
907,907,-0.2866969589187124,-0.3,0.0,1.0,385.0,820.0,0.0,1,1795.0,0
908,908,-0.5137346543627888,-0.5,1.0,0.0,372.0,954.0,0.0,0,1674.0,1
909,909,-0.25834538888146863,-0.3,1.0,0.0,419.0,998.0,0.0,0,1583.0,1
910,910,0.5051791234913711,0.5,0.0,0.0,284.0,557.0,0.0,1,2159.0,1
911,911,-0.613806794549393,-0.6,1.0,0.0,382.0,653.0,0.0,0,1965.0,1
912,912,-0.5143079162340929,-0.5,0.0,1.0,496.0,676.0,0.0,1,1828.0,0
913,913,-0.32090384785484094,-0.3,0.0,1.0,388.0,767.0,0.0,1,1845.0,0
914,914,-0.43990960931231343,-0.4,0.0,1.0,484.0,563.0,0.0,1,1953.0,0
915,915,0.3058851644206887,0.3,0.0,0.0,400.0,895.0,1.0,0,-1285.0,0
916,916,0.7169660861516313,0.7,0.0,0.0,273.0,768.0,0.0,1,1959.0,1
917,917,0.14749099318161385,0.1,1.0,1.0,406.0,858.0,0.0,0,1736.0,0
918,918,0.1582807319597993,0.2,1.0,1.0,398.0,856.0,0.0,0,1746.0,0
919,919,-0.14359004955066146,-0.1,0.0,1.0,428.0,848.0,0.0,1,1724.0,0
920,920,0.7195481903297701,0.7,1.0,1.0,400.0,735.0,1.0,1,-1105.0,1
921,921,0.06056674049579658,0.1,0.0,0.0,335.0,890.0,0.0,1,1775.0,1
922,922,0.7252894650876042,0.7,1.0,1.0,455.0,927.0,0.0,0,1618.0,0
923,923,-0.7465955941952584,-0.7,1.0,0.0,418.0,976.0,0.0,0,1606.0,1
924,924,-0.7856964265190974,-0.8,1.0,0.0,464.0,861.0,0.0,0,1675.0,1
925,925,0.5534494395671347,0.6,1.0,1.0,340.0,809.0,0.0,0,1851.0,0
926,926,-0.8985213955709621,-0.9,0.0,1.0,253.0,785.0,1.0,0,-998.0,1
927,927,0.20029512641859093,0.2,1.0,1.0,355.0,928.0,0.0,0,1717.0,0
928,928,0.5876405421560934,0.6,1.0,1.0,373.0,507.0,0.0,0,-840.0,0
929,929,-0.42881506115231494,-0.4,1.0,0.0,335.0,612.0,1.0,1,-847.0,0
930,930,-0.5046882230711325,-0.5,0.0,1.0,347.0,900.0,0.0,1,1753.0,0
931,931,0.43595637798464193,0.4,0.0,0.0,459.0,877.0,0.0,1,1664.0,1
932,932,-0.29888780886001276,-0.3,1.0,0.0,341.0,893.0,0.0,0,1766.0,1
933,933,0.6123186214986506,0.6,0.0,0.0,414.0,515.0,0.0,1,2071.0,1
934,934,-0.12079857508904979,-0.1,1.0,0.0,472.0,932.0,0.0,0,1596.0,1
935,935,-0.20253507082735234,-0.2,0.0,1.0,385.0,548.0,0.0,1,2067.0,0
936,936,-0.0040319197868449175,-0.0,1.0,0.0,252.0,988.0,0.0,0,-1210.0,1
937,937,-0.8273337822422212,-0.8,0.0,1.0,261.0,718.0,0.0,1,2021.0,0
938,938,-0.6391546650678416,-0.6,1.0,0.0,290.0,587.0,0.0,0,2123.0,1
939,939,-0.1567398356469515,-0.2,0.0,1.0,328.0,671.0,0.0,1,2001.0,0
940,940,-0.5326209445067099,-0.5,0.0,1.0,252.0,834.0,0.0,1,1914.0,0
941,941,0.7030445615818134,0.7,0.0,0.0,261.0,629.0,0.0,1,2110.0,1
942,942,-0.597385109252179,-0.6,1.0,0.0,392.0,570.0,0.0,0,2038.0,1
943,943,-0.3222395390221079,-0.3,1.0,0.0,263.0,588.0,0.0,0,2149.0,1
944,944,0.13472268708568913,0.1,0.0,0.0,377.0,776.0,0.0,1,1847.0,1
945,945,-0.2656901662880641,-0.3,1.0,0.0,292.0,840.0,0.0,0,1868.0,1
946,946,0.47158031113515053,0.5,0.0,0.0,442.0,638.0,0.0,1,1920.0,1
947,947,0.30932460779416704,0.3,1.0,1.0,397.0,698.0,0.0,0,1905.0,0
948,948,0.8950938419283593,0.9,1.0,1.0,382.0,982.0,0.0,0,1636.0,0
949,949,-0.7571522133330785,-0.8,1.0,0.0,365.0,572.0,0.0,0,-897.0,1
950,950,0.608326737956795,0.6,0.0,0.0,476.0,553.0,1.0,0,-849.0,0
951,951,-0.5055537508217465,-0.5,1.0,0.0,259.0,827.0,0.0,0,1914.0,1
952,952,-0.1260580105665441,-0.1,1.0,0.0,308.0,948.0,0.0,0,1744.0,1
953,953,0.5501581699631094,0.6,0.0,0.0,288.0,908.0,1.0,0,-1136.0,0
954,954,-0.02976144531206959,-0.0,0.0,1.0,275.0,661.0,0.0,1,2064.0,0
955,955,0.5621752555151723,0.6,1.0,1.0,451.0,712.0,0.0,0,-1093.0,0
956,956,0.8731464712253713,0.9,1.0,1.0,256.0,562.0,0.0,0,2182.0,0
957,957,0.44930475424578076,0.4,0.0,0.0,305.0,555.0,0.0,1,2140.0,1
958,958,-0.13235519188628442,-0.1,1.0,0.0,390.0,572.0,0.0,0,2038.0,1
959,959,-0.3688151442787815,-0.4,1.0,0.0,349.0,968.0,0.0,0,1683.0,1
960,960,-0.020874914626456076,-0.0,0.0,1.0,442.0,883.0,0.0,1,1675.0,0
961,961,-0.8073399047817982,-0.8,0.0,1.0,400.0,766.0,0.0,1,1834.0,0
962,962,-0.08855827832221752,-0.1,1.0,0.0,367.0,826.0,0.0,0,1807.0,1
963,963,0.3387954793384581,0.3,0.0,0.0,496.0,671.0,0.0,1,1833.0,1
964,964,-0.010945567323349503,-0.0,0.0,1.0,452.0,884.0,0.0,1,1664.0,0
965,965,0.2554897177228944,0.3,1.0,1.0,394.0,771.0,0.0,0,-1025.0,0
966,966,-0.14721208721456436,-0.1,0.0,1.0,274.0,781.0,0.0,1,1945.0,0
967,967,-0.0627003552811124,-0.1,1.0,0.0,336.0,859.0,0.0,0,1805.0,1
968,968,-0.7954636541944277,-0.8,0.0,1.0,375.0,631.0,0.0,1,1994.0,0
969,969,-0.6731342404324101,-0.7,1.0,0.0,414.0,703.0,0.0,0,1883.0,1
970,970,-0.3517557685296232,-0.4,0.0,1.0,391.0,999.0,1.0,0,-1310.0,1
971,971,0.8834691914679641,0.9,0.0,0.0,446.0,788.0,0.0,1,1766.0,1
972,972,0.04064614687183221,0.0,1.0,1.0,365.0,575.0,0.0,0,2060.0,0
973,973,-0.12455148259003357,-0.1,0.0,1.0,487.0,766.0,0.0,1,1747.0,0
974,974,-0.09444147291268101,-0.1,1.0,0.0,286.0,963.0,0.0,0,1751.0,1
975,975,-0.5273789059611396,-0.5,0.0,1.0,464.0,904.0,0.0,1,1632.0,0
976,976,0.6130638177068676,0.6,0.0,0.0,250.0,512.0,0.0,1,2238.0,1
977,977,-0.7835940400739586,-0.8,0.0,1.0,366.0,741.0,0.0,1,1893.0,0
978,978,-0.7538218691805569,-0.8,0.0,1.0,402.0,974.0,0.0,1,1624.0,0
979,979,-0.47933658790145867,-0.5,1.0,0.0,271.0,631.0,0.0,0,2098.0,1
980,980,0.5318355115382613,0.5,1.0,1.0,363.0,769.0,0.0,0,-1052.0,0
981,981,-0.7235209986591231,-0.7,0.0,1.0,294.0,716.0,1.0,0,-920.0,1
982,982,-0.36605787733127126,-0.4,0.0,1.0,298.0,952.0,0.0,1,1750.0,0
983,983,-0.07621402667063004,-0.1,0.0,1.0,437.0,724.0,0.0,1,1839.0,0
984,984,0.7022534611722234,0.7,0.0,0.0,484.0,707.0,0.0,1,1809.0,1
985,985,-0.8810238745063008,-0.9,1.0,0.0,424.0,606.0,0.0,0,1970.0,1
986,986,-0.0695450846094704,-0.1,1.0,0.0,416.0,997.0,0.0,0,1587.0,1
987,987,0.8085077983685841,0.8,1.0,1.0,293.0,535.0,0.0,0,2172.0,0
988,988,-0.042136368943296976,-0.0,0.0,1.0,287.0,670.0,0.0,1,2043.0,0
989,989,-0.0696837984865849,-0.1,1.0,0.0,454.0,704.0,0.0,0,1842.0,1
990,990,0.612474871359212,0.6,0.0,0.0,348.0,987.0,0.0,1,1665.0,1
991,991,0.29352173977098917,0.3,0.0,0.0,264.0,879.0,0.0,1,1857.0,1
992,992,-0.6545177636873053,-0.7,0.0,1.0,302.0,757.0,0.0,1,1941.0,0
993,993,0.8334186843339809,0.8,1.0,1.0,382.0,905.0,0.0,0,1713.0,0
994,994,0.2826367930800021,0.3,1.0,1.0,375.0,560.0,0.0,0,2065.0,0
995,995,0.7660088483578801,0.8,0.0,0.0,339.0,789.0,0.0,1,1872.0,1
996,996,0.045811910354690344,0.0,1.0,1.0,333.0,808.0,0.0,0,1859.0,0
997,997,-0.5599921336642288,-0.6,0.0,1.0,251.0,645.0,0.0,1,-826.0,0
998,998,-0.7006282037004633,-0.7,1.0,0.0,373.0,555.0,0.0,0,2072.0,1
999,999,0.6974263860885083,0.7,1.0,1.0,475.0,927.0,0.0,0,1598.0,0
1000,1000,0.4728017335919813,0.5,1.0,1.0,379.0,750.0,0.0,0,1871.0,0
1001,1001,0.42078565487855923,0.4,1.0,1.0,281.0,940.0,0.0,0,1779.0,0
1002,1002,0.7362045851518885,0.7,0.0,0.0,301.0,994.0,0.0,1,-1275.0,1
1003,1003,0.5974258130257623,0.6,0.0,0.0,314.0,951.0,0.0,1,1735.0,1
1004,1004,0.5265790676091101,0.5,0.0,0.0,274.0,960.0,0.0,1,1766.0,1
1005,1005,0.23366371351256177,0.2,1.0,1.0,253.0,955.0,0.0,0,1792.0,0
1006,1006,-0.024242458379139742,-0.0,0.0,1.0,296.0,636.0,0.0,1,2068.0,0
1007,1007,0.8843872666035059,0.9,1.0,1.0,435.0,613.0,0.0,0,1952.0,0
1008,1008,0.06113013164049452,0.1,1.0,1.0,352.0,625.0,0.0,0,2023.0,0
1009,1009,-0.6111727650363057,-0.6,0.0,1.0,451.0,800.0,0.0,1,1749.0,0
1010,1010,-0.03045966187992699,-0.0,1.0,0.0,453.0,595.0,1.0,1,-1038.0,0
1011,1011,0.6781639063082138,0.7,1.0,1.0,369.0,945.0,0.0,0,1686.0,0
1012,1012,0.2779830744372237,0.3,1.0,1.0,486.0,974.0,0.0,0,1540.0,0
1013,1013,0.5355769831456417,0.5,0.0,0.0,350.0,976.0,0.0,1,1674.0,1
1014,1014,-0.6484752010923095,-0.6,0.0,1.0,359.0,593.0,0.0,1,-812.0,0
1015,1015,-0.27134197872544696,-0.3,0.0,1.0,357.0,553.0,0.0,1,2090.0,0
1016,1016,0.6034393110211557,0.6,1.0,1.0,424.0,816.0,0.0,0,1760.0,0
1017,1017,-0.8710244516406741,-0.9,0.0,1.0,296.0,857.0,0.0,1,1847.0,0
1018,1018,-0.3479626592395335,-0.3,1.0,0.0,349.0,846.0,0.0,0,1805.0,1
1019,1019,0.5755588699039423,0.6,1.0,1.0,397.0,998.0,0.0,0,1605.0,0
1020,1020,-0.7737348494461104,-0.8,0.0,1.0,439.0,690.0,0.0,1,1871.0,0
1021,1021,-0.7046069655228384,-0.7,1.0,0.0,345.0,530.0,0.0,0,2125.0,1
1022,1022,0.6106120489553125,0.6,0.0,0.0,409.0,780.0,0.0,1,1811.0,1
1023,1023,0.0008374808835894809,0.0,0.0,0.0,342.0,614.0,0.0,1,2044.0,1
1024,1024,-0.3730787434806827,-0.4,0.0,1.0,481.0,708.0,0.0,1,1811.0,0
1025,1025,-0.6705389133129627,-0.7,1.0,0.0,453.0,539.0,0.0,0,2008.0,1
1026,1026,-0.4048180155140452,-0.4,1.0,0.0,250.0,618.0,0.0,0,2132.0,1
1027,1027,-0.3475993504275138,-0.3,0.0,1.0,292.0,945.0,0.0,1,1763.0,0
1028,1028,0.38412195015966144,0.4,1.0,1.0,367.0,734.0,0.0,0,1899.0,0
1029,1029,0.8701689322865022,0.9,0.0,0.0,369.0,662.0,0.0,1,1969.0,1
1030,1030,-0.004920834912682692,-0.0,1.0,0.0,388.0,693.0,0.0,0,1919.0,1
1031,1031,0.055675755040830666,0.1,1.0,1.0,417.0,867.0,0.0,0,1716.0,0
1032,1032,-0.86352936133008,-0.9,0.0,1.0,401.0,563.0,0.0,1,2036.0,0
1033,1033,-0.8836835278779523,-0.9,0.0,1.0,260.0,835.0,0.0,1,1905.0,0
1034,1034,-0.5899513549970958,-0.6,1.0,0.0,350.0,928.0,0.0,0,1722.0,1
1035,1035,-0.20558803050355856,-0.2,0.0,1.0,296.0,741.0,0.0,1,1963.0,0
1036,1036,0.2578926063363597,0.3,0.0,0.0,375.0,745.0,1.0,0,-1100.0,0
1037,1037,0.7756332403664866,0.8,0.0,0.0,362.0,652.0,0.0,1,1986.0,1
1038,1038,-0.24923326965609338,-0.2,1.0,0.0,429.0,568.0,0.0,0,2003.0,1
1039,1039,0.466387902716361,0.5,0.0,0.0,344.0,501.0,0.0,1,-515.0,1
1040,1040,0.012583460225536025,0.0,0.0,0.0,274.0,588.0,0.0,1,2138.0,1
1041,1041,0.45748749342822614,0.5,1.0,1.0,283.0,601.0,0.0,0,2116.0,0
1042,1042,0.6792647635314765,0.7,1.0,1.0,460.0,919.0,1.0,1,-1229.0,1
1043,1043,-0.0891519359344678,-0.1,0.0,1.0,418.0,508.0,0.0,1,2074.0,0
1044,1044,0.29363298923705916,0.3,1.0,1.0,471.0,618.0,1.0,1,-939.0,1
1045,1045,-0.3090053816283904,-0.3,1.0,0.0,365.0,795.0,0.0,0,-1120.0,1
1046,1046,0.16801046917834384,0.2,0.0,0.0,442.0,845.0,0.0,1,1713.0,1
1047,1047,-0.8680384263358173,-0.9,1.0,0.0,466.0,820.0,0.0,0,1714.0,1
1048,1048,0.3644686858236518,0.4,1.0,1.0,361.0,560.0,0.0,0,2079.0,0
1049,1049,0.8099764253969391,0.8,1.0,1.0,341.0,884.0,0.0,0,1775.0,0
1050,1050,0.41384193815674364,0.4,0.0,0.0,465.0,554.0,0.0,1,1981.0,1
1051,1051,0.6973976688918612,0.7,0.0,0.0,301.0,621.0,0.0,1,2078.0,1
1052,1052,-0.8730090416310526,-0.9,0.0,1.0,298.0,544.0,0.0,1,2158.0,0
1053,1053,-0.44946797623937584,-0.4,0.0,1.0,334.0,702.0,0.0,1,1964.0,0
1054,1054,0.6376323584688409,0.6,1.0,1.0,436.0,918.0,0.0,0,1646.0,0
1055,1055,0.0617460200235167,0.1,0.0,0.0,404.0,534.0,1.0,0,-798.0,0
1056,1056,0.30369275202885093,0.3,0.0,0.0,295.0,961.0,0.0,1,1744.0,1
1057,1057,-0.612886763952784,-0.6,0.0,1.0,395.0,856.0,0.0,1,-1051.0,0
1058,1058,0.32554523302648486,0.3,0.0,0.0,373.0,808.0,0.0,1,1819.0,1
1059,1059,-0.09106321521048988,-0.1,0.0,1.0,469.0,544.0,0.0,1,1987.0,0
1060,1060,-0.03474088257466057,-0.0,0.0,1.0,498.0,516.0,0.0,1,1986.0,0
1061,1061,-0.7895624615865023,-0.8,1.0,0.0,318.0,890.0,0.0,0,1792.0,1
1062,1062,0.39632292607923125,0.4,0.0,0.0,452.0,763.0,0.0,1,1785.0,1
1063,1063,0.7630166959572334,0.8,0.0,0.0,499.0,608.0,0.0,1,1893.0,1
1064,1064,0.244850262365229,0.2,0.0,0.0,376.0,969.0,1.0,0,-1075.0,0
1065,1065,0.039239291045355285,0.0,1.0,1.0,449.0,891.0,0.0,0,1660.0,0
1066,1066,0.27101509611670604,0.3,0.0,0.0,305.0,634.0,0.0,1,2061.0,1
1067,1067,0.410815882720471,0.4,1.0,1.0,378.0,802.0,0.0,0,1820.0,0
1068,1068,-0.0014403104889330054,-0.0,1.0,0.0,419.0,957.0,0.0,0,1624.0,1
1069,1069,-0.17136328491937947,-0.2,0.0,1.0,331.0,792.0,0.0,1,-1113.0,0
1070,1070,0.36867899522261116,0.4,1.0,1.0,466.0,728.0,0.0,0,1806.0,0
1071,1071,0.4023500701813648,0.4,1.0,1.0,304.0,514.0,1.0,1,-788.0,1
1072,1072,0.22843954678972456,0.2,0.0,0.0,371.0,653.0,0.0,1,1976.0,1
1073,1073,-0.7193202039329122,-0.7,0.0,1.0,280.0,562.0,1.0,0,-712.0,1
1074,1074,-0.8461395500966433,-0.8,0.0,1.0,285.0,730.0,0.0,1,-895.0,0
1075,1075,-0.3880723479770736,-0.4,0.0,1.0,252.0,536.0,0.0,1,2212.0,0
1076,1076,0.5933210568509816,0.6,1.0,1.0,431.0,722.0,0.0,0,1847.0,0
1077,1077,-0.22164542347689498,-0.2,1.0,0.0,289.0,746.0,0.0,0,1965.0,1
1078,1078,0.6299469781011219,0.6,1.0,1.0,470.0,646.0,0.0,0,1884.0,0
1079,1079,0.17058114117750633,0.2,1.0,1.0,302.0,669.0,0.0,0,2029.0,0
1080,1080,-0.33446418348017337,-0.3,0.0,1.0,326.0,837.0,0.0,1,1837.0,0
1081,1081,0.6590332280167165,0.7,0.0,0.0,416.0,633.0,0.0,1,1951.0,1
1082,1082,0.1929524440789886,0.2,0.0,0.0,384.0,595.0,0.0,1,2021.0,1
1083,1083,0.002179851798515764,0.0,0.0,0.0,437.0,543.0,0.0,1,2020.0,1
1084,1084,0.40389089450382365,0.4,1.0,1.0,364.0,948.0,0.0,0,1688.0,0
1085,1085,-0.693607856874825,-0.7,0.0,1.0,463.0,791.0,0.0,1,1746.0,0
1086,1086,-0.4213100609257116,-0.4,0.0,1.0,385.0,692.0,0.0,1,1923.0,0
1087,1087,0.461179881016076,0.5,1.0,1.0,358.0,807.0,0.0,0,1835.0,0
1088,1088,0.5527177474794455,0.6,0.0,0.0,351.0,596.0,0.0,1,2053.0,1
1089,1089,-0.3502298912675298,-0.4,0.0,1.0,414.0,844.0,1.0,0,-1188.0,1
1090,1090,-0.5048625225946441,-0.5,0.0,1.0,285.0,553.0,0.0,1,-728.0,0
1091,1091,0.6800183592624208,0.7,1.0,1.0,450.0,880.0,0.0,0,1670.0,0
1092,1092,-0.16732692477831723,-0.2,1.0,0.0,285.0,650.0,0.0,0,2065.0,1
1093,1093,-0.3185228046607048,-0.3,1.0,0.0,439.0,736.0,0.0,0,1825.0,1
1094,1094,0.14420625843613666,0.1,1.0,1.0,385.0,741.0,0.0,0,1874.0,0
1095,1095,0.4193948274361946,0.4,1.0,1.0,433.0,910.0,0.0,0,1657.0,0
1096,1096,-0.3906786879414591,-0.4,1.0,0.0,451.0,721.0,0.0,0,1828.0,1
1097,1097,0.31542720313493866,0.3,0.0,0.0,395.0,651.0,0.0,1,1954.0,1
1098,1098,-0.3756633538189643,-0.4,1.0,0.0,312.0,815.0,0.0,0,1873.0,1
1099,1099,-0.32449969413334434,-0.3,1.0,0.0,319.0,505.0,0.0,0,2176.0,1
1100,1100,-0.10934782364011619,-0.1,1.0,0.0,475.0,637.0,0.0,0,1888.0,1
1101,1101,0.008902604539968828,0.0,0.0,0.0,414.0,877.0,0.0,1,1709.0,1
1102,1102,-0.030321936219447343,-0.0,0.0,1.0,269.0,709.0,0.0,1,2022.0,0
1103,1103,-0.6851784656716772,-0.7,0.0,1.0,463.0,948.0,0.0,1,1589.0,0
1104,1104,-0.761533295001895,-0.8,1.0,0.0,463.0,578.0,0.0,0,1959.0,1
1105,1105,0.8219078576351061,0.8,1.0,1.0,385.0,707.0,0.0,0,1908.0,0
1106,1106,-0.2628552494149633,-0.3,0.0,1.0,400.0,808.0,0.0,1,1792.0,0
1107,1107,-0.8381801861756298,-0.8,0.0,1.0,359.0,866.0,0.0,1,1775.0,0
1108,1108,-0.10450083171788993,-0.1,0.0,1.0,418.0,897.0,0.0,1,1685.0,0
1109,1109,0.6965095172565566,0.7,0.0,0.0,260.0,998.0,0.0,1,1742.0,1
1110,1110,0.31270912881682744,0.3,0.0,0.0,356.0,733.0,0.0,1,1911.0,1
1111,1111,-0.1498089767653864,-0.1,0.0,1.0,325.0,853.0,0.0,1,1822.0,0
1112,1112,-0.669283733556133,-0.7,1.0,0.0,374.0,745.0,0.0,0,1881.0,1
1113,1113,-0.6911218576981034,-0.7,1.0,0.0,306.0,908.0,0.0,0,1786.0,1
1114,1114,0.5727232824361798,0.6,0.0,0.0,407.0,616.0,0.0,1,1977.0,1
1115,1115,-0.854597581944408,-0.9,0.0,1.0,364.0,991.0,0.0,1,1645.0,0
1116,1116,-0.2751560668524846,-0.3,0.0,1.0,310.0,957.0,0.0,1,1733.0,0
1117,1117,-0.4949276566910371,-0.5,1.0,0.0,301.0,987.0,0.0,0,1712.0,1
1118,1118,-0.2802649793310096,-0.3,0.0,1.0,405.0,685.0,0.0,1,-1050.0,0
1119,1119,-0.05715637114531624,-0.1,1.0,0.0,443.0,904.0,0.0,0,1653.0,1
1120,1120,-0.3478086258522143,-0.3,0.0,1.0,324.0,653.0,0.0,1,2023.0,0
1121,1121,0.49119904944222814,0.5,1.0,1.0,492.0,886.0,0.0,0,1622.0,0
1122,1122,-0.5789660071183933,-0.6,1.0,0.0,369.0,626.0,0.0,0,2005.0,1
1123,1123,-0.21782159383395217,-0.2,0.0,1.0,271.0,697.0,0.0,1,2032.0,0
1124,1124,0.6249433548973929,0.6,1.0,1.0,459.0,890.0,0.0,0,1651.0,0
1125,1125,-0.42953190074779235,-0.4,1.0,0.0,367.0,612.0,0.0,0,2021.0,1
1126,1126,0.15901261144984657,0.2,0.0,0.0,322.0,538.0,0.0,1,2140.0,1
1127,1127,-0.5303092887208007,-0.5,1.0,0.0,425.0,527.0,1.0,1,-902.0,0
1128,1128,0.7894203795367499,0.8,0.0,0.0,270.0,728.0,0.0,1,2002.0,1
1129,1129,-0.011182537088911038,-0.0,1.0,0.0,277.0,973.0,0.0,0,1750.0,1
1130,1130,-0.25556656082562235,-0.3,0.0,1.0,345.0,970.0,0.0,1,1685.0,0
1131,1131,0.30936114759828237,0.3,0.0,0.0,460.0,634.0,0.0,1,1906.0,1
1132,1132,0.39566147624401726,0.4,0.0,0.0,264.0,597.0,0.0,1,2139.0,1
1133,1133,0.8267664646597704,0.8,1.0,1.0,288.0,510.0,0.0,0,2202.0,0
1134,1134,0.06145438794564373,0.1,1.0,1.0,399.0,555.0,0.0,0,2046.0,0
1135,1135,0.7669798260366621,0.8,0.0,0.0,487.0,544.0,0.0,1,1969.0,1
1136,1136,0.0015942721669206517,0.0,0.0,0.0,331.0,874.0,0.0,1,1795.0,1
1137,1137,-0.4033045744214031,-0.4,1.0,0.0,289.0,741.0,0.0,0,1970.0,1
1138,1138,-0.8417641817208236,-0.8,0.0,1.0,298.0,643.0,0.0,1,2059.0,0
1139,1139,0.13458176858059845,0.1,0.0,0.0,337.0,975.0,0.0,1,1688.0,1
1140,1140,0.7922645797444442,0.8,1.0,1.0,262.0,791.0,0.0,0,1947.0,0
1141,1141,0.04789174332616397,0.0,0.0,0.0,316.0,737.0,0.0,1,1947.0,1
1142,1142,-0.796419846077669,-0.8,1.0,0.0,329.0,602.0,0.0,0,-821.0,1
1143,1143,0.8150541133141634,0.8,1.0,1.0,298.0,592.0,0.0,0,2110.0,0
1144,1144,-0.46762283634681434,-0.5,1.0,0.0,471.0,930.0,0.0,0,1599.0,1
1145,1145,0.4158135402172166,0.4,0.0,0.0,472.0,856.0,0.0,1,1672.0,1
1146,1146,0.726062787717401,0.7,0.0,0.0,408.0,549.0,0.0,1,2043.0,1
1147,1147,-0.36125302898565137,-0.4,1.0,0.0,354.0,623.0,0.0,0,2023.0,1
1148,1148,-0.5703686106022605,-0.6,0.0,1.0,307.0,992.0,0.0,1,1701.0,0
1149,1149,0.572460960448231,0.6,1.0,1.0,428.0,939.0,0.0,0,1633.0,0
1150,1150,0.8744797294618601,0.9,0.0,0.0,290.0,507.0,0.0,1,2203.0,1
1151,1151,-0.8709069104066449,-0.9,0.0,1.0,304.0,919.0,0.0,1,1777.0,0
1152,1152,-0.7781911810093707,-0.8,0.0,1.0,294.0,579.0,0.0,1,2127.0,0
1153,1153,0.8396844762815939,0.8,1.0,1.0,436.0,715.0,0.0,0,1849.0,0
1154,1154,0.7278680498647451,0.7,0.0,0.0,479.0,995.0,0.0,1,1526.0,1
1155,1155,-0.5672049004488096,-0.6,1.0,0.0,347.0,749.0,1.0,1,-1056.0,0
1156,1156,0.03978676468780218,0.0,0.0,0.0,489.0,565.0,0.0,1,1946.0,1
1157,1157,0.2018978405134092,0.2,0.0,0.0,399.0,914.0,1.0,0,-1203.0,0
1158,1158,0.3975851649065071,0.4,1.0,1.0,461.0,843.0,0.0,0,1696.0,0
1159,1159,0.04613258696470113,0.0,1.0,1.0,373.0,943.0,0.0,0,1684.0,0
1160,1160,-0.6194578767126627,-0.6,0.0,1.0,470.0,609.0,1.0,0,-1029.0,1
1161,1161,-0.26099775460844554,-0.3,1.0,0.0,459.0,909.0,0.0,0,1632.0,1
1162,1162,0.2523724838776603,0.3,1.0,1.0,356.0,746.0,0.0,0,1898.0,0
1163,1163,0.6333757840660007,0.6,1.0,1.0,266.0,988.0,0.0,0,1746.0,0
1164,1164,-0.37739165538959796,-0.4,1.0,0.0,411.0,541.0,1.0,1,-932.0,0
1165,1165,-0.2756256005212574,-0.3,0.0,1.0,356.0,753.0,0.0,1,1891.0,0
1166,1166,0.0026298413397563003,0.0,1.0,1.0,469.0,993.0,0.0,0,1538.0,0
1167,1167,-0.6826605952196929,-0.7,0.0,1.0,499.0,994.0,0.0,1,1507.0,0
1168,1168,-0.7188503684940626,-0.7,0.0,1.0,265.0,939.0,0.0,1,-1114.0,0
1169,1169,0.24838059298814497,0.2,0.0,0.0,260.0,965.0,0.0,1,1775.0,1
1170,1170,-0.2990844231404278,-0.3,0.0,1.0,358.0,935.0,0.0,1,1707.0,0
1171,1171,-0.2713327908894445,-0.3,1.0,0.0,407.0,723.0,0.0,0,1870.0,1
1172,1172,-0.7066042089983748,-0.7,1.0,0.0,453.0,808.0,0.0,0,1739.0,1
1173,1173,-0.43362386365746336,-0.4,0.0,1.0,340.0,680.0,0.0,1,1980.0,0
1174,1174,-0.39901984143281255,-0.4,1.0,0.0,339.0,997.0,0.0,0,-1246.0,1
1175,1175,-0.7193546807854674,-0.7,1.0,0.0,293.0,722.0,0.0,0,1985.0,1
1176,1176,-0.08156392074663188,-0.1,1.0,0.0,318.0,743.0,1.0,1,-971.0,0
1177,1177,0.7182474942655913,0.7,0.0,0.0,369.0,871.0,0.0,1,1760.0,1
1178,1178,-0.8284924475500868,-0.8,1.0,0.0,299.0,980.0,0.0,0,1721.0,1
1179,1179,0.08277158436105558,0.1,1.0,1.0,379.0,605.0,0.0,0,2016.0,0
1180,1180,0.6030179242198322,0.6,0.0,0.0,485.0,914.0,0.0,1,1601.0,1
1181,1181,-0.8235557546523999,-0.8,0.0,1.0,328.0,633.0,0.0,1,2039.0,0
1182,1182,0.541859902953031,0.5,1.0,1.0,459.0,982.0,0.0,0,1559.0,0
1183,1183,-0.8438504333780713,-0.8,1.0,0.0,436.0,713.0,0.0,0,1851.0,1
1184,1184,0.866732077315692,0.9,0.0,0.0,298.0,838.0,0.0,1,1864.0,1
1185,1185,-0.5633531316554883,-0.6,1.0,0.0,470.0,638.0,0.0,0,1892.0,1
1186,1186,0.535246246182716,0.5,1.0,1.0,251.0,964.0,0.0,0,1785.0,0
1187,1187,0.1994380438121911,0.2,1.0,1.0,381.0,521.0,0.0,0,2098.0,0
1188,1188,0.817316425973926,0.8,0.0,0.0,473.0,571.0,0.0,1,1956.0,1
1189,1189,0.2780696368743988,0.3,1.0,1.0,323.0,905.0,0.0,0,1772.0,0
1190,1190,0.15692635558091672,0.2,1.0,1.0,474.0,695.0,0.0,0,1831.0,0
1191,1191,-0.7409635996855871,-0.7,0.0,1.0,399.0,731.0,0.0,1,1870.0,0
1192,1192,0.8726216367371172,0.9,0.0,0.0,318.0,762.0,0.0,1,1920.0,1
1193,1193,0.8079047700199341,0.8,1.0,1.0,311.0,725.0,0.0,0,1964.0,0
1194,1194,-0.8161097165385567,-0.8,0.0,1.0,413.0,911.0,0.0,1,1676.0,0
1195,1195,-0.09751907468233234,-0.1,0.0,1.0,295.0,682.0,0.0,1,2023.0,0
1196,1196,-0.5250751235563922,-0.5,1.0,0.0,403.0,673.0,1.0,1,-916.0,0
1197,1197,0.3270840675876544,0.3,1.0,1.0,364.0,732.0,0.0,0,1904.0,0
1198,1198,-0.5593824003595549,-0.6,1.0,0.0,284.0,704.0,0.0,0,2012.0,1
1199,1199,-0.5820866580743982,-0.6,0.0,1.0,341.0,564.0,0.0,1,2095.0,0
1200,1200,-0.7161442492905925,-0.7,1.0,0.0,449.0,503.0,0.0,0,2048.0,1
1201,1201,0.6217497778788147,0.6,1.0,1.0,385.0,682.0,0.0,0,1933.0,0
1202,1202,0.00415984882689302,0.0,0.0,0.0,391.0,954.0,0.0,1,1655.0,1
1203,1203,-0.25094228294404286,-0.3,0.0,1.0,357.0,936.0,0.0,1,1707.0,0
1204,1204,0.14011090411841043,0.1,0.0,0.0,315.0,665.0,0.0,1,2020.0,1
1205,1205,0.3698567924815507,0.4,0.0,0.0,264.0,923.0,0.0,1,1813.0,1
1206,1206,-0.6213676776000889,-0.6,0.0,1.0,491.0,867.0,0.0,1,1642.0,0
1207,1207,0.3296239408806477,0.3,1.0,1.0,383.0,989.0,0.0,0,-1352.0,0
1208,1208,0.07112855002005947,0.1,1.0,1.0,299.0,575.0,0.0,0,2126.0,0
1209,1209,0.35508505007745594,0.4,1.0,1.0,490.0,616.0,0.0,0,1894.0,0
1210,1210,-0.2540794037261088,-0.3,1.0,0.0,378.0,973.0,0.0,0,1649.0,1
1211,1211,-0.2858516214780168,-0.3,1.0,0.0,287.0,686.0,0.0,0,2027.0,1
1212,1212,0.8459595207343259,0.8,0.0,0.0,433.0,711.0,0.0,1,1856.0,1
1213,1213,0.7601934511332239,0.8,1.0,1.0,319.0,585.0,1.0,1,-624.0,1
1214,1214,0.5254428572016484,0.5,0.0,0.0,487.0,615.0,0.0,1,1898.0,1
1215,1215,0.30942551337051094,0.3,0.0,0.0,421.0,926.0,0.0,1,1653.0,1
1216,1216,0.4215299590805389,0.4,0.0,0.0,373.0,825.0,0.0,1,1802.0,1
1217,1217,-0.8852077498876251,-0.9,0.0,1.0,413.0,683.0,0.0,1,-976.0,0
1218,1218,-0.6550704118436721,-0.7,0.0,1.0,308.0,746.0,0.0,1,1946.0,0
1219,1219,-0.6834800030479625,-0.7,0.0,1.0,284.0,701.0,0.0,1,2015.0,0
1220,1220,-0.6981260033001682,-0.7,0.0,1.0,329.0,772.0,0.0,1,-981.0,0
1221,1221,-0.6764229532119571,-0.7,0.0,1.0,342.0,678.0,0.0,1,1980.0,0
1222,1222,-0.8827692847598142,-0.9,0.0,1.0,482.0,950.0,0.0,1,1568.0,0
1223,1223,0.7638834134047326,0.8,0.0,0.0,415.0,761.0,0.0,1,1824.0,1
1224,1224,-0.5512618182670448,-0.6,1.0,0.0,269.0,947.0,0.0,0,1784.0,1
1225,1225,0.06081406415395885,0.1,0.0,0.0,430.0,557.0,0.0,1,2013.0,1
1226,1226,0.24088287992095536,0.2,1.0,1.0,361.0,570.0,0.0,0,2069.0,0
1227,1227,-0.568327447695909,-0.6,0.0,1.0,401.0,573.0,0.0,1,2026.0,0
1228,1228,0.12604841402098843,0.1,1.0,1.0,404.0,536.0,1.0,1,-880.0,1
1229,1229,0.7139816118733852,0.7,1.0,1.0,298.0,605.0,0.0,0,2097.0,0
1230,1230,-0.27170339330532967,-0.3,1.0,0.0,359.0,707.0,1.0,1,-1016.0,0
1231,1231,-0.2398270888094266,-0.2,1.0,0.0,332.0,764.0,0.0,0,1904.0,1
1232,1232,-0.31639922278533883,-0.3,0.0,1.0,327.0,575.0,0.0,1,2098.0,0
1233,1233,0.22371789098694028,0.2,1.0,1.0,282.0,650.0,0.0,0,2068.0,0
1234,1234,0.07354281897112225,0.1,1.0,1.0,396.0,664.0,0.0,0,1940.0,0
1235,1235,-0.5383403017137828,-0.5,0.0,1.0,279.0,831.0,0.0,1,-1060.0,0
1236,1236,0.5745118033527047,0.6,1.0,1.0,374.0,888.0,0.0,0,1738.0,0
1237,1237,0.25810449439997474,0.3,1.0,1.0,427.0,999.0,0.0,0,1574.0,0
1238,1238,-0.7057023150480841,-0.7,0.0,1.0,317.0,955.0,0.0,1,1728.0,0
1239,1239,0.1847883721904987,0.2,0.0,0.0,362.0,741.0,0.0,1,1897.0,1
1240,1240,0.41824018622944614,0.4,0.0,0.0,429.0,902.0,0.0,1,1669.0,1
1241,1241,-0.33481532714165074,-0.3,0.0,1.0,427.0,582.0,0.0,1,1991.0,0
1242,1242,-0.2545106362499552,-0.3,1.0,0.0,348.0,770.0,0.0,0,1882.0,1
1243,1243,0.1738943580835609,0.2,0.0,0.0,426.0,800.0,0.0,1,1774.0,1
1244,1244,-0.48901800991612177,-0.5,0.0,1.0,398.0,950.0,0.0,1,1652.0,0
1245,1245,-0.6666559070525362,-0.7,1.0,0.0,268.0,660.0,0.0,0,2072.0,1
1246,1246,-0.3628993046409984,-0.4,1.0,0.0,320.0,818.0,0.0,0,1862.0,1
1247,1247,0.13189760338899104,0.1,1.0,1.0,371.0,506.0,0.0,0,2123.0,0
1248,1248,-0.17079572156300438,-0.2,0.0,1.0,373.0,956.0,0.0,1,1671.0,0
1249,1249,0.563114424263741,0.6,0.0,0.0,308.0,863.0,0.0,1,1829.0,1
1250,1250,-0.546301228766971,-0.5,1.0,0.0,405.0,550.0,0.0,0,2045.0,1
1251,1251,0.33639789172931545,0.3,0.0,0.0,361.0,519.0,1.0,0,-820.0,0
1252,1252,0.12920071192811922,0.1,0.0,0.0,310.0,758.0,1.0,0,-1048.0,0
1253,1253,0.6030446341118271,0.6,0.0,0.0,433.0,550.0,0.0,1,2017.0,1
1254,1254,-0.2580452400190081,-0.3,0.0,1.0,399.0,799.0,0.0,1,1802.0,0
1255,1255,-0.5996091519825528,-0.6,1.0,0.0,283.0,815.0,0.0,0,1902.0,1
1256,1256,0.16110949193295043,0.2,1.0,1.0,360.0,904.0,0.0,0,1736.0,0
1257,1257,0.231010091585086,0.2,1.0,1.0,460.0,761.0,0.0,0,1779.0,0
1258,1258,0.1369869209371114,0.1,1.0,1.0,271.0,540.0,0.0,0,2189.0,0
1259,1259,-0.6980607382260171,-0.7,1.0,0.0,407.0,553.0,0.0,0,2040.0,1
1260,1260,-0.7217720708520066,-0.7,0.0,1.0,383.0,823.0,0.0,1,1794.0,0
1261,1261,-0.7520150355797424,-0.8,1.0,0.0,435.0,986.0,0.0,0,1579.0,1
1262,1262,-0.12074068895184775,-0.1,1.0,0.0,334.0,877.0,0.0,0,1789.0,1
1263,1263,-0.7312828157766171,-0.7,1.0,0.0,309.0,704.0,0.0,0,1987.0,1
1264,1264,0.7706024397004122,0.8,1.0,1.0,407.0,540.0,0.0,0,2053.0,0
1265,1265,-0.5911433751009953,-0.6,1.0,0.0,315.0,810.0,0.0,0,1875.0,1
1266,1266,0.2327821065558623,0.2,1.0,1.0,426.0,965.0,0.0,0,1609.0,0
1267,1267,-0.4786817406135086,-0.5,1.0,0.0,407.0,608.0,1.0,1,-975.0,0
1268,1268,0.09647654443952058,0.1,1.0,1.0,442.0,851.0,0.0,0,1707.0,0
1269,1269,0.8119934505233163,0.8,1.0,1.0,430.0,692.0,0.0,0,1878.0,0
1270,1270,0.06104639423163993,0.1,0.0,0.0,283.0,827.0,0.0,1,1890.0,1
1271,1271,0.2663180666728079,0.3,1.0,1.0,439.0,623.0,0.0,0,1938.0,0
1272,1272,-0.07400390683659641,-0.1,0.0,1.0,384.0,731.0,0.0,1,1885.0,0
1273,1273,-0.7849883773973652,-0.8,0.0,1.0,330.0,849.0,1.0,0,-1139.0,1
1274,1274,0.7023629049182626,0.7,1.0,1.0,395.0,730.0,0.0,0,1875.0,0
1275,1275,0.7940393941441825,0.8,1.0,1.0,421.0,746.0,0.0,0,1833.0,0
1276,1276,-0.6239018127110951,-0.6,0.0,1.0,492.0,803.0,0.0,1,1705.0,0
1277,1277,-0.3796608654578668,-0.4,0.0,1.0,489.0,671.0,1.0,0,-1090.0,1
1278,1278,-0.35603138182658245,-0.4,0.0,1.0,321.0,795.0,0.0,1,1884.0,0
1279,1279,0.4317895267060431,0.4,0.0,0.0,307.0,752.0,0.0,1,-1039.0,1
1280,1280,0.3762486253208507,0.4,1.0,1.0,334.0,603.0,0.0,0,2063.0,0
1281,1281,0.2883239979994251,0.3,1.0,1.0,443.0,862.0,0.0,0,1695.0,0
1282,1282,-0.4299482031379866,-0.4,0.0,1.0,312.0,889.0,0.0,1,1799.0,0
1283,1283,0.7180648109966145,0.7,1.0,1.0,429.0,540.0,0.0,0,2031.0,0
1284,1284,-0.7636194520818225,-0.8,1.0,0.0,283.0,708.0,0.0,0,2009.0,1
1285,1285,0.035749461423933204,0.0,0.0,0.0,308.0,578.0,0.0,1,2114.0,1
1286,1286,-0.37361312684931747,-0.4,0.0,1.0,256.0,583.0,0.0,1,2161.0,0
1287,1287,0.453879054675315,0.5,0.0,0.0,443.0,586.0,1.0,0,-949.0,0
1288,1288,0.3590848310707816,0.4,0.0,0.0,494.0,753.0,1.0,0,-1177.0,0
1289,1289,0.5042210844016078,0.5,1.0,1.0,304.0,646.0,1.0,1,-940.0,1
1290,1290,-0.7455578962748354,-0.7,1.0,0.0,434.0,958.0,0.0,0,1608.0,1
1291,1291,0.4046903696072487,0.4,1.0,1.0,463.0,581.0,0.0,0,-994.0,0
1292,1292,0.5673886922174151,0.6,0.0,0.0,493.0,635.0,1.0,0,-1068.0,0
1293,1293,0.6135249265224797,0.6,0.0,0.0,325.0,579.0,0.0,1,2096.0,1
1294,1294,-0.42185541350818617,-0.4,0.0,1.0,489.0,558.0,0.0,1,1953.0,0
1295,1295,-0.7116157028486885,-0.7,0.0,1.0,301.0,741.0,0.0,1,1958.0,0
1296,1296,-0.8699529001195133,-0.9,1.0,0.0,266.0,865.0,0.0,0,1869.0,1
1297,1297,-0.6405617229978056,-0.6,0.0,1.0,458.0,930.0,0.0,1,1612.0,0
1298,1298,-0.11044930522985497,-0.1,0.0,1.0,431.0,654.0,0.0,1,1915.0,0
1299,1299,-0.6082469368960308,-0.6,0.0,1.0,365.0,746.0,0.0,1,1889.0,0
1300,1300,-0.42648217683615075,-0.4,0.0,1.0,414.0,570.0,0.0,1,2016.0,0
1301,1301,-0.2393394226136195,-0.2,1.0,0.0,344.0,952.0,0.0,0,1704.0,1
1302,1302,0.2497480006128111,0.2,1.0,1.0,251.0,676.0,0.0,0,2073.0,0
1303,1303,0.7350178365659285,0.7,0.0,0.0,427.0,745.0,0.0,1,1828.0,1
1304,1304,0.5271832067703098,0.5,0.0,0.0,455.0,614.0,0.0,1,1931.0,1
1305,1305,-0.6488466315518048,-0.6,1.0,0.0,307.0,824.0,0.0,0,1869.0,1
1306,1306,0.3410117047979683,0.3,1.0,1.0,384.0,576.0,0.0,0,-950.0,0
1307,1307,-0.8082112384905056,-0.8,1.0,0.0,352.0,741.0,0.0,0,1907.0,1
1308,1308,-0.06548455891288674,-0.1,0.0,1.0,287.0,709.0,0.0,1,2004.0,0
1309,1309,-0.5346694103401276,-0.5,1.0,0.0,295.0,969.0,0.0,0,1736.0,1
1310,1310,-0.651528637723329,-0.7,1.0,0.0,463.0,698.0,0.0,0,1839.0,1
1311,1311,0.02816112682959726,0.0,1.0,1.0,272.0,962.0,0.0,0,1766.0,0
1312,1312,-0.7074344411445883,-0.7,0.0,1.0,384.0,840.0,0.0,1,1776.0,0
1313,1313,-0.48280082136682784,-0.5,1.0,0.0,346.0,585.0,0.0,0,2069.0,1
1314,1314,0.1338760141269154,0.1,1.0,1.0,470.0,753.0,0.0,0,-1083.0,0
1315,1315,0.4640384254682143,0.5,1.0,1.0,353.0,724.0,0.0,0,1923.0,0
1316,1316,0.4571274691663204,0.5,1.0,1.0,366.0,870.0,1.0,1,-1216.0,1
1317,1317,-0.21269429992798294,-0.2,1.0,0.0,446.0,642.0,0.0,0,1912.0,1
1318,1318,0.5017879355771074,0.5,0.0,0.0,328.0,786.0,0.0,1,1886.0,1
1319,1319,-0.08044867161432123,-0.1,0.0,1.0,314.0,963.0,0.0,1,1723.0,0
1320,1320,0.18822597971530708,0.2,1.0,1.0,486.0,830.0,0.0,0,1684.0,0
1321,1321,-0.8158511727144413,-0.8,1.0,0.0,456.0,987.0,0.0,0,1557.0,1
1322,1322,0.11000379240255664,0.1,1.0,1.0,375.0,950.0,0.0,0,1675.0,0
1323,1323,-0.6430728966645727,-0.6,0.0,1.0,468.0,949.0,0.0,1,1583.0,0
1324,1324,-0.43087748116951086,-0.4,1.0,0.0,477.0,754.0,0.0,0,1769.0,1
1325,1325,0.5283867320169834,0.5,1.0,1.0,346.0,799.0,0.0,0,1855.0,0
1326,1326,0.6597765821433704,0.7,0.0,0.0,287.0,951.0,0.0,1,1762.0,1
1327,1327,-0.556637873719651,-0.6,0.0,1.0,356.0,713.0,0.0,1,1931.0,0
1328,1328,-0.06489057441539847,-0.1,1.0,0.0,376.0,527.0,0.0,0,2097.0,1
1329,1329,-0.5146891426857854,-0.5,1.0,0.0,473.0,820.0,0.0,0,1707.0,1
1330,1330,-0.8811234843345116,-0.9,0.0,1.0,317.0,928.0,0.0,1,1755.0,0
1331,1331,-0.6443505914037373,-0.6,1.0,0.0,450.0,741.0,0.0,0,1809.0,1
1332,1332,0.6666589687904761,0.7,1.0,1.0,280.0,826.0,0.0,0,1894.0,0
1333,1333,-0.8472015135758605,-0.8,0.0,1.0,441.0,755.0,0.0,1,1804.0,0
1334,1334,-0.15067046029617026,-0.2,1.0,0.0,402.0,724.0,0.0,0,1874.0,1
1335,1335,-0.01152587327340171,-0.0,0.0,1.0,432.0,586.0,0.0,1,1982.0,0
1336,1336,-0.40298148860328137,-0.4,1.0,0.0,425.0,944.0,0.0,0,1631.0,1
1337,1337,-0.049755585821760095,-0.0,0.0,1.0,443.0,608.0,0.0,1,1949.0,0
1338,1338,0.4991574161939837,0.5,0.0,0.0,452.0,928.0,0.0,1,1620.0,1
1339,1339,0.5246661690840967,0.5,0.0,0.0,487.0,514.0,0.0,1,1999.0,1
1340,1340,-0.33737667876698996,-0.3,0.0,1.0,377.0,522.0,1.0,0,-869.0,1
1341,1341,-0.21388771390081585,-0.2,1.0,0.0,320.0,698.0,0.0,0,1982.0,1
1342,1342,-0.5822616464990193,-0.6,1.0,0.0,257.0,892.0,0.0,0,1851.0,1
1343,1343,0.580915367462079,0.6,0.0,0.0,325.0,620.0,1.0,0,-905.0,0
1344,1344,0.6172730380930965,0.6,1.0,1.0,322.0,859.0,1.0,1,-1091.0,1
1345,1345,-0.78423332699503,-0.8,1.0,0.0,286.0,662.0,0.0,0,2052.0,1
1346,1346,-0.11203695990205742,-0.1,1.0,0.0,310.0,574.0,0.0,0,2116.0,1
1347,1347,0.6310388289172756,0.6,1.0,1.0,306.0,775.0,0.0,0,1919.0,0
1348,1348,0.29557259838154615,0.3,0.0,0.0,338.0,593.0,0.0,1,2069.0,1
1349,1349,0.33153023365195955,0.3,0.0,0.0,355.0,852.0,0.0,1,1793.0,1
1350,1350,0.2551090926162026,0.3,1.0,1.0,412.0,766.0,0.0,0,1822.0,0
1351,1351,-0.3750853167419361,-0.4,1.0,0.0,252.0,728.0,0.0,0,2020.0,1
1352,1352,0.8717444722221969,0.9,0.0,0.0,488.0,933.0,0.0,1,1579.0,1
1353,1353,0.4722738560916281,0.5,0.0,0.0,273.0,965.0,0.0,1,1762.0,1
1354,1354,-0.8553301633845263,-0.9,1.0,0.0,414.0,750.0,0.0,0,1836.0,1
1355,1355,-0.4584736205720667,-0.5,0.0,1.0,282.0,607.0,0.0,1,2111.0,0
1356,1356,0.5762031962735702,0.6,1.0,1.0,380.0,717.0,0.0,0,-1017.0,0
1357,1357,-0.8794370240865753,-0.9,0.0,1.0,354.0,546.0,0.0,1,2100.0,0
1358,1358,-0.814482675744206,-0.8,1.0,0.0,330.0,831.0,0.0,0,1839.0,1
1359,1359,0.4430375257369402,0.4,0.0,0.0,492.0,606.0,0.0,1,1902.0,1
1360,1360,-0.5446651016805997,-0.5,0.0,1.0,477.0,734.0,0.0,1,1789.0,0
1361,1361,0.0034033379684693665,0.0,0.0,0.0,336.0,977.0,1.0,0,-1223.0,0
1362,1362,-0.07213264219137638,-0.1,1.0,0.0,282.0,854.0,0.0,0,1864.0,1
1363,1363,-0.34081989820660685,-0.3,0.0,1.0,421.0,862.0,0.0,1,1717.0,0
1364,1364,-0.27156837753929797,-0.3,1.0,0.0,419.0,577.0,0.0,0,2004.0,1
1365,1365,-0.0047982067101634,-0.0,1.0,0.0,418.0,736.0,1.0,1,-1144.0,0
1366,1366,0.7084326073962598,0.7,0.0,0.0,389.0,771.0,0.0,1,1840.0,1
1367,1367,0.30865180590205765,0.3,1.0,1.0,397.0,921.0,0.0,0,1682.0,0
1368,1368,-0.1258207410604164,-0.1,0.0,1.0,415.0,896.0,1.0,0,-1211.0,1
1369,1369,-0.8357024850740018,-0.8,0.0,1.0,441.0,964.0,0.0,1,1595.0,0
1370,1370,-0.23819409839368832,-0.2,0.0,1.0,353.0,838.0,0.0,1,1809.0,0
1371,1371,0.8168586109454475,0.8,1.0,1.0,359.0,945.0,0.0,0,1696.0,0
1372,1372,0.19526184197686802,0.2,0.0,0.0,252.0,582.0,0.0,1,2166.0,1
1373,1373,0.19510502174888888,0.2,0.0,0.0,399.0,642.0,0.0,1,1959.0,1
1374,1374,0.11727260656911842,0.1,1.0,1.0,309.0,502.0,0.0,0,2189.0,0
1375,1375,-0.875101723995681,-0.9,0.0,1.0,466.0,608.0,0.0,1,1926.0,0
1376,1376,0.40661125489016603,0.4,0.0,0.0,430.0,527.0,0.0,1,2043.0,1
1377,1377,-0.093455081585602,-0.1,1.0,0.0,414.0,760.0,0.0,0,1826.0,1
1378,1378,0.7624822194029265,0.8,1.0,1.0,346.0,922.0,1.0,1,-1248.0,1
1379,1379,0.5711619447224746,0.6,0.0,0.0,284.0,515.0,0.0,1,2201.0,1
1380,1380,0.8150916438238033,0.8,0.0,0.0,331.0,852.0,0.0,1,1817.0,1
1381,1381,-0.19974837721378202,-0.2,1.0,0.0,426.0,759.0,0.0,0,1815.0,1
1382,1382,-0.14031334707758425,-0.1,0.0,1.0,445.0,570.0,1.0,0,-1015.0,1
1383,1383,0.11505858229002308,0.1,0.0,0.0,370.0,618.0,0.0,1,2012.0,1
1384,1384,-0.8651865682646142,-0.9,0.0,1.0,321.0,721.0,0.0,1,1958.0,0
1385,1385,-0.024351689888898465,-0.0,0.0,1.0,433.0,966.0,0.0,1,1601.0,0
1386,1386,0.6269163867194035,0.6,0.0,0.0,445.0,831.0,0.0,1,1724.0,1
1387,1387,0.4430930690582352,0.4,0.0,0.0,471.0,521.0,0.0,1,2008.0,1
1388,1388,0.8935803782502093,0.9,0.0,0.0,319.0,919.0,0.0,1,1762.0,1
1389,1389,-0.21725287733671483,-0.2,0.0,1.0,337.0,777.0,1.0,0,-1024.0,1
1390,1390,0.009850206715628418,0.0,0.0,0.0,375.0,916.0,0.0,1,1709.0,1
1391,1391,-0.6875602905442444,-0.7,1.0,0.0,325.0,617.0,0.0,0,2058.0,1
1392,1392,0.05072482615441565,0.1,0.0,0.0,358.0,995.0,0.0,1,1647.0,1
1393,1393,0.44469880122919336,0.4,0.0,0.0,411.0,883.0,0.0,1,-1284.0,1
1394,1394,0.36057561211310507,0.4,0.0,0.0,377.0,790.0,0.0,1,1833.0,1
1395,1395,-0.5434266304671898,-0.5,1.0,0.0,308.0,744.0,0.0,0,1948.0,1
1396,1396,-0.0015822735364888763,-0.0,0.0,1.0,383.0,898.0,1.0,0,-1201.0,1
1397,1397,0.43856559613526,0.4,1.0,1.0,333.0,736.0,0.0,0,1931.0,0
1398,1398,-0.19930750014205956,-0.2,0.0,1.0,497.0,688.0,0.0,1,1815.0,0
1399,1399,0.7768636643286836,0.8,0.0,0.0,424.0,849.0,0.0,1,1727.0,1
1400,1400,-0.6981363005595164,-0.7,1.0,0.0,427.0,588.0,0.0,0,1985.0,1
1401,1401,0.19318520458565513,0.2,0.0,0.0,300.0,699.0,0.0,1,2001.0,1
1402,1402,-0.721013883953837,-0.7,1.0,0.0,254.0,693.0,0.0,0,2053.0,1
1403,1403,0.7481475481111782,0.7,0.0,0.0,425.0,606.0,0.0,1,1969.0,1
1404,1404,-0.3184436443011057,-0.3,1.0,0.0,482.0,788.0,0.0,0,1730.0,1
1405,1405,0.6195262687448752,0.6,0.0,0.0,454.0,973.0,0.0,1,1573.0,1
1406,1406,0.13949906152106506,0.1,1.0,1.0,259.0,579.0,0.0,0,2162.0,0
1407,1407,0.09802368113181026,0.1,1.0,1.0,405.0,927.0,0.0,0,1668.0,0
1408,1408,-0.8286280655947147,-0.8,0.0,1.0,250.0,582.0,0.0,1,2168.0,0
1409,1409,0.5327900927656518,0.5,1.0,1.0,305.0,601.0,0.0,0,2094.0,0
1410,1410,-0.5472867412465166,-0.5,0.0,1.0,349.0,815.0,0.0,1,1836.0,0
1411,1411,-0.1859019031315694,-0.2,0.0,1.0,279.0,995.0,0.0,1,1726.0,0
1412,1412,-0.31360416435882765,-0.3,0.0,1.0,361.0,902.0,0.0,1,1737.0,0
1413,1413,-0.21087591569798858,-0.2,0.0,1.0,492.0,784.0,0.0,1,1724.0,0
1414,1414,-0.24367432707331949,-0.2,1.0,0.0,400.0,629.0,0.0,0,1971.0,1
1415,1415,0.251116921366615,0.3,0.0,0.0,312.0,671.0,0.0,1,2017.0,1
1416,1416,-0.6850093506772059,-0.7,0.0,1.0,382.0,924.0,0.0,1,1694.0,0
1417,1417,-0.28946601787953474,-0.3,1.0,0.0,427.0,629.0,0.0,0,1944.0,1
1418,1418,-0.22639854995609898,-0.2,1.0,0.0,411.0,943.0,0.0,0,1646.0,1
1419,1419,-0.5458360184132718,-0.5,0.0,1.0,268.0,986.0,0.0,1,1746.0,0
1420,1420,-0.8027161470542642,-0.8,0.0,1.0,441.0,831.0,0.0,1,1728.0,0
1421,1421,-0.042328718720206826,-0.0,1.0,0.0,290.0,661.0,1.0,1,-841.0,0
1422,1422,0.404909118276484,0.4,1.0,1.0,250.0,875.0,1.0,1,-1005.0,1
1423,1423,-0.7523621771418181,-0.8,1.0,0.0,420.0,960.0,1.0,1,-1370.0,0
1424,1424,0.4466993612378062,0.4,1.0,1.0,295.0,963.0,1.0,1,-1248.0,1
1425,1425,0.27508367187236404,0.3,1.0,1.0,260.0,707.0,0.0,0,2033.0,0
1426,1426,-0.7821079942422812,-0.8,0.0,1.0,363.0,525.0,0.0,1,2112.0,0
1427,1427,-0.058370673474208656,-0.1,0.0,1.0,285.0,866.0,0.0,1,1849.0,0
1428,1428,-0.8935973519735602,-0.9,1.0,0.0,471.0,527.0,0.0,0,-958.0,1
1429,1429,0.7075653328853572,0.7,0.0,0.0,447.0,647.0,0.0,1,1906.0,1
1430,1430,0.23940194015918925,0.2,1.0,1.0,306.0,939.0,0.0,0,1755.0,0
1431,1431,0.7392296829344235,0.7,0.0,0.0,436.0,722.0,0.0,1,1842.0,1
1432,1432,0.5258373945853502,0.5,0.0,0.0,327.0,608.0,0.0,1,2065.0,1
1433,1433,-0.30798142764856606,-0.3,0.0,1.0,269.0,784.0,0.0,1,1947.0,0
1434,1434,-0.12521050545907753,-0.1,0.0,1.0,303.0,523.0,0.0,1,2174.0,0
1435,1435,0.7138800051957513,0.7,0.0,0.0,426.0,867.0,0.0,1,1707.0,1
1436,1436,0.04933759419897188,0.0,0.0,0.0,372.0,691.0,0.0,1,1937.0,1
1437,1437,0.795306786584295,0.8,1.0,1.0,472.0,578.0,1.0,1,-1000.0,1
1438,1438,0.5060245266902045,0.5,0.0,0.0,260.0,706.0,0.0,1,2034.0,1
1439,1439,-0.7176574465831543,-0.7,1.0,0.0,305.0,957.0,0.0,0,1738.0,1
1440,1440,-0.890715871744879,-0.9,0.0,1.0,339.0,940.0,1.0,0,-1209.0,1
1441,1441,-0.701282107289476,-0.7,1.0,0.0,379.0,783.0,0.0,0,1838.0,1
1442,1442,-0.44355672218214187,-0.4,0.0,1.0,432.0,763.0,0.0,1,1805.0,0
1443,1443,-0.8128578029115759,-0.8,0.0,1.0,291.0,966.0,0.0,1,1743.0,0
1444,1444,0.4931265889862001,0.5,0.0,0.0,466.0,748.0,0.0,1,1786.0,1
1445,1445,0.048642504254710506,0.0,0.0,0.0,359.0,732.0,0.0,1,1909.0,1
1446,1446,0.6975022726187542,0.7,1.0,1.0,443.0,691.0,1.0,1,-1114.0,1
1447,1447,0.5423424699267893,0.5,0.0,0.0,339.0,897.0,0.0,1,1764.0,1
1448,1448,0.6063066019103348,0.6,0.0,0.0,385.0,950.0,0.0,1,1665.0,1
1449,1449,-0.42966819888100155,-0.4,1.0,0.0,328.0,632.0,0.0,0,2040.0,1
1450,1450,0.6172513171468,0.6,0.0,0.0,381.0,795.0,0.0,1,1824.0,1
1451,1451,0.5453911924317675,0.5,1.0,1.0,335.0,842.0,0.0,0,1823.0,0
1452,1452,-0.4220964939420559,-0.4,0.0,1.0,410.0,886.0,0.0,1,1704.0,0
1453,1453,0.42956687552402106,0.4,1.0,1.0,281.0,829.0,0.0,0,1890.0,0
1454,1454,0.3573125400144216,0.4,0.0,0.0,401.0,577.0,0.0,1,-978.0,1
1455,1455,0.4869610997369157,0.5,0.0,0.0,312.0,938.0,1.0,0,-1240.0,0
1456,1456,0.8550077285033671,0.9,0.0,0.0,498.0,602.0,0.0,1,1900.0,1
1457,1457,-0.15130165823750052,-0.2,1.0,0.0,333.0,773.0,1.0,1,-1066.0,0
1458,1458,-0.4856926234580928,-0.5,0.0,1.0,397.0,903.0,0.0,1,1700.0,0
1459,1459,0.4416620521810056,0.4,0.0,0.0,302.0,987.0,0.0,1,1711.0,1
1460,1460,-0.23679148045041132,-0.2,0.0,1.0,395.0,992.0,0.0,1,1613.0,0
1461,1461,-0.2864310025491029,-0.3,0.0,1.0,448.0,864.0,0.0,1,1688.0,0
1462,1462,-0.42147988765912603,-0.4,0.0,1.0,334.0,993.0,1.0,0,-1187.0,1
1463,1463,-0.0176589333915107,-0.0,0.0,1.0,439.0,888.0,0.0,1,1673.0,0
1464,1464,-0.08515801957104097,-0.1,0.0,1.0,360.0,768.0,0.0,1,1872.0,0
1465,1465,-0.42189741636846345,-0.4,0.0,1.0,293.0,521.0,0.0,1,2186.0,0
1466,1466,0.14442492490482428,0.1,0.0,0.0,291.0,525.0,0.0,1,2184.0,1
1467,1467,0.6355401556336856,0.6,1.0,1.0,321.0,587.0,0.0,0,2092.0,0
1468,1468,0.551251999882988,0.6,1.0,1.0,486.0,832.0,0.0,0,1682.0,0
