,trial,coherence,coherence_bin,green_side,correct_side,target_onset,checker_onset,decision,green_decision,decision_time,correct_decision
0,0,0.4754464986851793,0.5,1.0,1.0,308.0,540.0,1.0,1,1342.0,1
1,1,0.7249768902395458,0.7,0.0,0.0,359.0,915.0,0.0,1,416.0,1
2,2,-0.1075487167237964,-0.1,0.0,1.0,286.0,622.0,1.0,0,3772.0,1
3,3,-0.131681435835305,-0.1,0.0,1.0,324.0,506.0,0.0,1,70.0,0
4,4,-0.49856991985696525,-0.5,0.0,1.0,465.0,848.0,1.0,0,537.0,1
5,5,-0.042431273065443254,-0.0,0.0,1.0,409.0,936.0,0.0,1,1695.0,0
6,6,-0.6463054341155494,-0.6,0.0,1.0,270.0,595.0,1.0,0,435.0,1
7,7,0.5960963590756908,0.6,1.0,1.0,374.0,738.0,1.0,1,2498.0,1
8,8,0.2168327558290436,0.2,1.0,1.0,320.0,814.0,1.0,1,3866.0,1
9,9,0.49918490273952665,0.5,1.0,1.0,359.0,614.0,1.0,1,827.0,1
10,10,-0.6394615671758155,-0.6,1.0,0.0,446.0,547.0,0.0,0,187.0,1
11,11,-0.5843791245607034,-0.6,1.0,0.0,268.0,703.0,0.0,0,229.0,1
12,12,0.25407125065115366,0.3,0.0,0.0,363.0,982.0,0.0,1,835.0,1
13,13,0.75117245043005,0.8,0.0,0.0,357.0,953.0,0.0,1,440.0,1
14,14,-0.09103502576278377,-0.1,0.0,1.0,265.0,571.0,1.0,0,1904.0,1
15,15,0.5609606157405206,0.6,1.0,1.0,325.0,993.0,1.0,1,912.0,1
16,16,-0.20391065546866005,-0.2,0.0,1.0,381.0,596.0,1.0,0,2273.0,1
17,17,-0.39506165245358893,-0.4,1.0,0.0,332.0,643.0,0.0,0,195.0,1
18,18,-0.21279377823759638,-0.2,0.0,1.0,359.0,674.0,1.0,0,1297.0,1
19,19,0.566615593827208,0.6,0.0,0.0,414.0,851.0,0.0,1,235.0,1
20,20,-0.33815512260765457,-0.3,1.0,0.0,337.0,584.0,0.0,0,359.0,1
21,21,0.035047186345633086,0.0,1.0,1.0,357.0,953.0,0.0,0,1470.0,0
22,22,0.5351801873325926,0.5,1.0,1.0,448.0,604.0,0.0,0,-142.0,0
23,23,0.015423328673781711,0.0,0.0,0.0,345.0,634.0,0.0,1,1761.0,1
24,24,-0.7784977590842834,-0.8,0.0,1.0,480.0,704.0,1.0,0,266.0,1
25,25,-0.4907976323306513,-0.5,1.0,0.0,422.0,984.0,0.0,0,-656.0,1
26,26,0.6771742714664312,0.7,0.0,0.0,281.0,571.0,0.0,1,228.0,1
27,27,-0.41946104249655947,-0.4,0.0,1.0,288.0,587.0,1.0,0,535.0,1
28,28,0.24562620782606415,0.2,0.0,0.0,472.0,702.0,0.0,1,2886.0,1
29,29,-0.7937154013268315,-0.8,1.0,0.0,412.0,886.0,0.0,0,252.0,1
30,30,0.3788102335473752,0.4,0.0,0.0,366.0,789.0,0.0,1,95.0,1
31,31,-0.47955463141181204,-0.5,1.0,0.0,457.0,778.0,0.0,0,145.0,1
32,32,-0.48975423422850684,-0.5,0.0,1.0,260.0,520.0,1.0,0,800.0,1
33,33,0.69438710750246,0.7,0.0,0.0,408.0,628.0,0.0,1,344.0,1
34,34,0.5255783981774226,0.5,1.0,1.0,496.0,784.0,1.0,1,1780.0,1
35,35,-0.7812036223083508,-0.8,0.0,1.0,260.0,658.0,1.0,0,252.0,1
36,36,-0.8290329275539764,-0.8,0.0,1.0,479.0,806.0,1.0,0,355.0,1
37,37,0.10639112193471323,0.1,0.0,0.0,323.0,713.0,0.0,1,1404.0,1
38,38,-0.4731598169362679,-0.5,0.0,1.0,253.0,551.0,1.0,0,1776.0,1
39,39,-0.22588182950680458,-0.2,1.0,0.0,342.0,846.0,0.0,0,992.0,1
40,40,-0.5132259544304971,-0.5,1.0,0.0,285.0,872.0,0.0,0,133.0,1
41,41,0.5076366597384107,0.5,0.0,0.0,377.0,738.0,0.0,1,305.0,1
42,42,0.0008470666954151218,0.0,0.0,0.0,460.0,644.0,0.0,1,3466.0,1
43,43,0.41210277962306174,0.4,1.0,1.0,422.0,654.0,1.0,1,674.0,1
44,44,-0.7634835837875374,-0.8,0.0,1.0,327.0,954.0,1.0,0,-441.0,1
45,45,-0.7986453678999522,-0.8,1.0,0.0,317.0,558.0,0.0,0,255.0,1
46,46,-0.04752751429137092,-0.0,1.0,0.0,383.0,615.0,0.0,0,1412.0,1
47,47,-0.10605091946359335,-0.1,1.0,0.0,425.0,618.0,0.0,0,357.0,1
48,48,0.6427941845381145,0.6,1.0,1.0,274.0,823.0,1.0,1,413.0,1
49,49,0.8145021154914825,0.8,0.0,0.0,386.0,750.0,0.0,1,654.0,1
50,50,-0.48091087252408604,-0.5,1.0,0.0,424.0,718.0,0.0,0,498.0,1
51,51,-0.6355214216514429,-0.6,1.0,0.0,443.0,838.0,0.0,0,259.0,1
52,52,-0.557935498478336,-0.6,0.0,1.0,356.0,659.0,1.0,0,275.0,1
53,53,0.13331215684434639,0.1,1.0,1.0,385.0,512.0,0.0,0,573.0,0
54,54,0.2678229169932028,0.3,0.0,0.0,413.0,665.0,0.0,1,332.0,1
55,55,0.38468313716531377,0.4,1.0,1.0,280.0,676.0,1.0,1,1104.0,1
56,56,0.5408065319052223,0.5,1.0,1.0,299.0,978.0,1.0,1,923.0,1
57,57,-0.22810609673016125,-0.2,0.0,1.0,434.0,983.0,1.0,0,1743.0,1
58,58,-0.1098824405582024,-0.1,0.0,1.0,455.0,842.0,0.0,1,3193.0,0
59,59,0.6218366415951447,0.6,0.0,0.0,412.0,704.0,0.0,1,224.0,1
60,60,-0.5369593510011392,-0.5,1.0,0.0,307.0,832.0,0.0,0,681.0,1
61,61,-0.16136199936334084,-0.2,1.0,0.0,492.0,580.0,0.0,0,1638.0,1
62,62,0.7403100164722619,0.7,1.0,1.0,415.0,544.0,1.0,1,1781.0,1
63,63,0.17896046677812383,0.2,1.0,1.0,359.0,521.0,1.0,1,4120.0,1
64,64,-0.47007448980467526,-0.5,0.0,1.0,388.0,956.0,0.0,1,-24.0,0
65,65,0.753639104081384,0.8,0.0,0.0,262.0,576.0,0.0,1,412.0,1
66,66,0.6197524956308714,0.6,1.0,1.0,301.0,887.0,1.0,1,342.0,1
67,67,-0.3171343218913071,-0.3,1.0,0.0,438.0,525.0,0.0,0,377.0,1
68,68,-0.39745137744135883,-0.4,0.0,1.0,340.0,951.0,1.0,0,829.0,1
69,69,-0.678755267365417,-0.7,0.0,1.0,452.0,951.0,1.0,0,477.0,1
70,70,-0.58761751963817,-0.6,1.0,0.0,376.0,540.0,0.0,0,304.0,1
71,71,-0.6306283343461561,-0.6,1.0,0.0,386.0,552.0,0.0,0,112.0,1
72,72,0.7004154953989236,0.7,0.0,0.0,337.0,924.0,0.0,1,-251.0,1
73,73,0.6772434155202324,0.7,1.0,1.0,440.0,595.0,1.0,1,515.0,1
74,74,0.31319220822459715,0.3,1.0,1.0,465.0,525.0,1.0,1,2260.0,1
75,75,0.6081256057397461,0.6,0.0,0.0,295.0,883.0,0.0,1,492.0,1
76,76,-0.7523252094687012,-0.8,0.0,1.0,353.0,653.0,1.0,0,264.0,1
77,77,-0.5826105197061855,-0.6,1.0,0.0,373.0,757.0,0.0,0,620.0,1
78,78,-0.13611262518650857,-0.1,1.0,0.0,268.0,954.0,0.0,0,478.0,1
79,79,0.32584494355847504,0.3,1.0,1.0,472.0,714.0,1.0,1,704.0,1
80,80,0.670056711916509,0.7,0.0,0.0,348.0,952.0,0.0,1,300.0,1
81,81,-0.04851723334338309,-0.0,1.0,0.0,266.0,692.0,0.0,0,532.0,1
82,82,0.7126244451369795,0.7,1.0,1.0,302.0,935.0,1.0,1,433.0,1
83,83,0.2973365296142473,0.3,1.0,1.0,405.0,892.0,1.0,1,1023.0,1
84,84,-0.6852966396369791,-0.7,0.0,1.0,372.0,870.0,1.0,0,358.0,1
85,85,0.2137189416107642,0.2,1.0,1.0,253.0,870.0,1.0,1,1117.0,1
86,86,-0.41368981455893566,-0.4,1.0,0.0,307.0,681.0,0.0,0,192.0,1
87,87,-0.3547491645471704,-0.4,1.0,0.0,379.0,882.0,0.0,0,129.0,1
88,88,-0.050109849634742076,-0.1,0.0,1.0,412.0,898.0,0.0,1,3690.0,0
89,89,-0.47908421817440167,-0.5,1.0,0.0,264.0,806.0,0.0,0,710.0,1
90,90,-0.0030040341344024224,-0.0,1.0,0.0,324.0,991.0,0.0,0,2145.0,1
91,91,-0.2104038221596638,-0.2,1.0,0.0,285.0,820.0,0.0,0,325.0,1
92,92,-0.7915089396535743,-0.8,0.0,1.0,466.0,576.0,1.0,0,78.0,1
93,93,0.1601997265538554,0.2,0.0,0.0,492.0,955.0,0.0,1,543.0,1
94,94,-0.42633767635398667,-0.4,1.0,0.0,361.0,953.0,0.0,0,366.0,1
95,95,0.20774288265137886,0.2,1.0,1.0,330.0,508.0,1.0,1,1612.0,1
96,96,-0.3413097337178709,-0.3,1.0,0.0,392.0,931.0,0.0,0,277.0,1
97,97,-0.7418467921954925,-0.7,0.0,1.0,411.0,773.0,1.0,0,646.0,1
98,98,0.4615304656951914,0.5,0.0,0.0,341.0,681.0,0.0,1,508.0,1
99,99,-0.8957431149659723,-0.9,0.0,1.0,490.0,563.0,1.0,0,227.0,1
100,100,-0.28150398998224424,-0.3,0.0,1.0,424.0,787.0,1.0,0,1819.0,1
101,101,-0.37765909963263,-0.4,0.0,1.0,358.0,638.0,1.0,0,504.0,1
102,102,0.2679459788448916,0.3,1.0,1.0,321.0,853.0,1.0,1,536.0,1
103,103,0.7476584798967595,0.7,1.0,1.0,466.0,528.0,1.0,1,316.0,1
104,104,-0.013205191074406097,-0.0,1.0,0.0,384.0,739.0,0.0,0,2187.0,1
105,105,0.276913175305216,0.3,0.0,0.0,482.0,534.0,0.0,1,1314.0,1
106,106,-0.7460987502510352,-0.7,0.0,1.0,284.0,923.0,0.0,1,-437.0,0
107,107,-0.7064853118823492,-0.7,1.0,0.0,304.0,981.0,0.0,0,-45.0,1
108,108,0.2717954157840129,0.3,1.0,1.0,422.0,546.0,1.0,1,842.0,1
109,109,-0.5691491692995747,-0.6,0.0,1.0,295.0,757.0,0.0,1,-392.0,0
110,110,0.7436062650708614,0.7,0.0,0.0,416.0,649.0,0.0,1,465.0,1
111,111,-0.6230856133934715,-0.6,1.0,0.0,279.0,993.0,0.0,0,318.0,1
112,112,0.31244056481838356,0.3,1.0,1.0,468.0,906.0,1.0,1,826.0,1
113,113,-0.7144484322120103,-0.7,1.0,0.0,428.0,803.0,0.0,0,-131.0,1
114,114,-0.005757004062126758,-0.0,0.0,1.0,320.0,564.0,0.0,1,706.0,0
115,115,-0.639082317151795,-0.6,1.0,0.0,392.0,961.0,0.0,0,-53.0,1
116,116,0.5495062957371458,0.5,1.0,1.0,437.0,826.0,1.0,1,967.0,1
117,117,0.7015071391238171,0.7,0.0,0.0,317.0,800.0,0.0,1,133.0,1
118,118,0.7546541707306048,0.8,0.0,0.0,471.0,703.0,0.0,1,496.0,1
119,119,-0.8279169297768715,-0.8,1.0,0.0,395.0,983.0,0.0,0,272.0,1
120,120,0.4703212466544552,0.5,0.0,0.0,334.0,596.0,0.0,1,570.0,1
121,121,0.5071483770836612,0.5,1.0,1.0,447.0,992.0,1.0,1,471.0,1
122,122,-0.48216677554521514,-0.5,1.0,0.0,320.0,543.0,0.0,0,287.0,1
123,123,0.21285281753119667,0.2,1.0,1.0,359.0,932.0,1.0,1,3259.0,1
124,124,0.13063306154718635,0.1,1.0,1.0,329.0,744.0,1.0,1,1007.0,1
125,125,0.5315569445965856,0.5,0.0,0.0,336.0,710.0,0.0,1,724.0,1
126,126,0.7551750213266036,0.8,1.0,1.0,454.0,779.0,1.0,1,1917.0,1
127,127,0.15971179386112133,0.2,1.0,1.0,471.0,580.0,1.0,1,3949.0,1
128,128,0.13131067401812102,0.1,1.0,1.0,282.0,645.0,1.0,1,4073.0,1
129,129,0.7680145318886366,0.8,1.0,1.0,462.0,533.0,1.0,1,245.0,1
130,130,0.12349673873446287,0.1,1.0,1.0,329.0,855.0,0.0,0,3816.0,0
131,131,-0.00651387472883691,-0.0,0.0,1.0,409.0,946.0,1.0,0,3425.0,1
132,132,0.5234239500116223,0.5,0.0,0.0,264.0,572.0,0.0,1,404.0,1
133,133,-0.818962494346238,-0.8,0.0,1.0,360.0,823.0,1.0,0,377.0,1
134,134,-0.015306485499928413,-0.0,0.0,1.0,432.0,953.0,0.0,1,3385.0,0
135,135,-0.09636674487385621,-0.1,0.0,1.0,443.0,513.0,1.0,0,3974.0,1
136,136,0.7696585079553967,0.8,1.0,1.0,426.0,600.0,1.0,1,604.0,1
137,137,0.3969572204732107,0.4,1.0,1.0,374.0,827.0,1.0,1,539.0,1
138,138,-0.6327401973553619,-0.6,1.0,0.0,334.0,779.0,0.0,0,607.0,1
139,139,0.2521620462796902,0.3,1.0,1.0,347.0,510.0,1.0,1,1063.0,1
140,140,-0.05320943566179448,-0.1,1.0,0.0,355.0,860.0,0.0,0,3785.0,1
141,141,0.26204128407351923,0.3,0.0,0.0,463.0,819.0,0.0,1,528.0,1
142,142,-0.11954879494307014,-0.1,1.0,0.0,345.0,564.0,0.0,0,2711.0,1
143,143,-0.4191853397196518,-0.4,0.0,1.0,315.0,507.0,1.0,0,1018.0,1
144,144,-0.14826620266015278,-0.1,1.0,0.0,296.0,793.0,0.0,0,391.0,1
145,145,0.0057985002827460885,0.0,0.0,0.0,419.0,662.0,0.0,1,2339.0,1
146,146,-0.6406077894033091,-0.6,1.0,0.0,293.0,826.0,0.0,0,131.0,1
147,147,-0.029254005262795646,-0.0,1.0,0.0,283.0,975.0,0.0,0,3732.0,1
148,148,-0.06071957751888302,-0.1,1.0,0.0,495.0,709.0,0.0,0,546.0,1
149,149,0.29418102611413965,0.3,1.0,1.0,453.0,697.0,1.0,1,1800.0,1
150,150,-0.11962588863368173,-0.1,0.0,1.0,299.0,954.0,1.0,0,2787.0,1
151,151,0.5575628413149801,0.6,0.0,0.0,404.0,683.0,0.0,1,453.0,1
152,152,-0.6917685767407786,-0.7,0.0,1.0,360.0,801.0,1.0,0,289.0,1
153,153,0.10988292711100833,0.1,0.0,0.0,440.0,534.0,0.0,1,676.0,1
154,154,0.7780486272358861,0.8,1.0,1.0,427.0,867.0,1.0,1,286.0,1
155,155,-0.3731490241100003,-0.4,1.0,0.0,299.0,660.0,0.0,0,541.0,1
156,156,0.8579043419296878,0.9,0.0,0.0,259.0,963.0,0.0,1,238.0,1
157,157,-0.0867432086994896,-0.1,1.0,0.0,404.0,873.0,0.0,0,1203.0,1
158,158,-0.44028251975386845,-0.4,1.0,0.0,409.0,589.0,0.0,0,172.0,1
159,159,-0.31623852320104784,-0.3,1.0,0.0,408.0,801.0,0.0,0,331.0,1
160,160,-0.8558786949053894,-0.9,1.0,0.0,458.0,898.0,0.0,0,454.0,1
161,161,-0.09227902207894068,-0.1,0.0,1.0,485.0,642.0,1.0,0,3873.0,1
162,162,-0.3690572185151415,-0.4,1.0,0.0,436.0,738.0,0.0,0,116.0,1
163,163,0.5161373185205204,0.5,1.0,1.0,425.0,870.0,1.0,1,295.0,1
164,164,-0.5522449748596994,-0.6,0.0,1.0,308.0,909.0,1.0,0,743.0,1
165,165,-0.8050436167245945,-0.8,1.0,0.0,430.0,808.0,0.0,0,562.0,1
166,166,0.12834996746544391,0.1,1.0,1.0,359.0,512.0,0.0,0,3229.0,0
167,167,0.7730029214172828,0.8,0.0,0.0,433.0,759.0,0.0,1,268.0,1
168,168,-0.4362511805416349,-0.4,1.0,0.0,392.0,737.0,0.0,0,131.0,1
169,169,0.5803885612614809,0.6,1.0,1.0,276.0,515.0,1.0,1,1699.0,1
170,170,0.10916973662884899,0.1,0.0,0.0,491.0,625.0,0.0,1,494.0,1
171,171,-0.6829097566178965,-0.7,1.0,0.0,407.0,925.0,0.0,0,288.0,1
172,172,0.41108122230042554,0.4,0.0,0.0,480.0,980.0,0.0,1,880.0,1
173,173,0.6332832640161451,0.6,0.0,0.0,391.0,967.0,0.0,1,1702.0,1
174,174,-0.1674133403861775,-0.2,0.0,1.0,381.0,985.0,1.0,0,924.0,1
175,175,0.7718853685517996,0.8,0.0,0.0,424.0,826.0,0.0,1,490.0,1
176,176,0.828979845084903,0.8,0.0,0.0,310.0,751.0,0.0,1,949.0,1
177,177,-0.44304249526406453,-0.4,1.0,0.0,322.0,826.0,0.0,0,182.0,1
178,178,-0.3056923164216925,-0.3,0.0,1.0,286.0,626.0,1.0,0,938.0,1
179,179,0.1250693948588678,0.1,1.0,1.0,381.0,967.0,0.0,0,2282.0,0
180,180,-0.1619044730197996,-0.2,1.0,0.0,447.0,716.0,0.0,0,367.0,1
181,181,-0.046256986795497834,-0.0,1.0,0.0,485.0,559.0,0.0,0,2246.0,1
182,182,0.33713813711910834,0.3,1.0,1.0,251.0,653.0,1.0,1,1756.0,1
183,183,-0.637074710794838,-0.6,0.0,1.0,307.0,926.0,0.0,1,-483.0,0
184,184,-0.8492975797209237,-0.8,1.0,0.0,361.0,672.0,0.0,0,227.0,1
185,185,0.6428077588695335,0.6,0.0,0.0,488.0,626.0,0.0,1,326.0,1
186,186,0.2729290778460828,0.3,0.0,0.0,264.0,623.0,0.0,1,403.0,1
187,187,0.5971481938610149,0.6,1.0,1.0,351.0,830.0,1.0,1,949.0,1
188,188,-0.24626795887172448,-0.2,0.0,1.0,429.0,783.0,1.0,0,478.0,1
189,189,0.8772187501162251,0.9,1.0,1.0,453.0,958.0,1.0,1,349.0,1
190,190,0.3613641311116228,0.4,1.0,1.0,297.0,603.0,1.0,1,1490.0,1
191,191,0.6002819291109117,0.6,0.0,0.0,467.0,933.0,0.0,1,850.0,1
192,192,-0.24326986132339823,-0.2,0.0,1.0,323.0,588.0,1.0,0,1549.0,1
193,193,-0.8880635000765436,-0.9,1.0,0.0,351.0,768.0,0.0,0,271.0,1
194,194,0.3188025884892819,0.3,1.0,1.0,322.0,548.0,1.0,1,1230.0,1
195,195,0.2535828216959536,0.3,0.0,0.0,410.0,601.0,0.0,1,509.0,1
196,196,-0.36138769238452995,-0.4,1.0,0.0,453.0,544.0,0.0,0,293.0,1
197,197,-0.23783971593362474,-0.2,1.0,0.0,424.0,790.0,0.0,0,-154.0,1
198,198,-0.3876687663066898,-0.4,1.0,0.0,402.0,874.0,0.0,0,734.0,1
199,199,-0.8400167013347273,-0.8,1.0,0.0,344.0,987.0,0.0,0,139.0,1
200,200,0.22556646706154748,0.2,1.0,1.0,454.0,926.0,1.0,1,3040.0,1
201,201,0.1601231212687383,0.2,0.0,0.0,405.0,528.0,0.0,1,2007.0,1
202,202,-0.05350676496053974,-0.1,1.0,0.0,419.0,545.0,0.0,0,816.0,1
203,203,-0.8488964618820861,-0.8,0.0,1.0,285.0,957.0,1.0,0,138.0,1
204,204,-0.07503028935766831,-0.1,0.0,1.0,255.0,764.0,1.0,0,3981.0,1
205,205,0.415108519837151,0.4,1.0,1.0,313.0,564.0,1.0,1,1853.0,1
206,206,-0.1294326388192435,-0.1,0.0,1.0,315.0,874.0,1.0,0,2481.0,1
207,207,-0.5179946786251004,-0.5,0.0,1.0,317.0,651.0,1.0,0,282.0,1
208,208,0.446411754360193,0.4,0.0,0.0,436.0,628.0,0.0,1,646.0,1
209,209,0.4280943954421964,0.4,0.0,0.0,385.0,925.0,0.0,1,380.0,1
210,210,0.580360724717094,0.6,0.0,0.0,433.0,998.0,0.0,1,709.0,1
211,211,-0.1984814108230183,-0.2,1.0,0.0,369.0,560.0,0.0,0,461.0,1
212,212,-0.15464442985338345,-0.2,1.0,0.0,386.0,723.0,0.0,0,1861.0,1
213,213,-0.38568190731712615,-0.4,1.0,0.0,362.0,552.0,0.0,0,426.0,1
214,214,0.05784294973309145,0.1,0.0,0.0,429.0,821.0,1.0,0,3750.0,0
215,215,-0.45133083460474427,-0.5,0.0,1.0,437.0,790.0,1.0,0,993.0,1
216,216,-0.09725275635338892,-0.1,0.0,1.0,330.0,574.0,0.0,1,1366.0,0
217,217,-0.13337618437917598,-0.1,1.0,0.0,464.0,734.0,0.0,0,82.0,1
218,218,-0.3097614669825036,-0.3,1.0,0.0,263.0,833.0,0.0,0,714.0,1
219,219,0.40935797891964587,0.4,0.0,0.0,268.0,988.0,0.0,1,534.0,1
220,220,0.7763873520529226,0.8,1.0,1.0,298.0,718.0,1.0,1,1184.0,1
221,221,-0.4882620983222496,-0.5,1.0,0.0,400.0,875.0,0.0,0,585.0,1
222,222,0.39449794059724075,0.4,1.0,1.0,402.0,816.0,0.0,0,-118.0,0
223,223,0.7603370575287834,0.8,0.0,0.0,268.0,567.0,0.0,1,335.0,1
224,224,-0.044294164271257985,-0.0,0.0,1.0,352.0,799.0,0.0,1,3849.0,0
225,225,0.08641413076972804,0.1,0.0,0.0,475.0,532.0,0.0,1,2593.0,1
226,226,0.33118923695837565,0.3,1.0,1.0,463.0,892.0,1.0,1,1165.0,1
227,227,0.8221090179747282,0.8,0.0,0.0,422.0,951.0,0.0,1,147.0,1
228,228,-0.422904697659903,-0.4,1.0,0.0,338.0,750.0,0.0,0,292.0,1
229,229,-0.1322204865866924,-0.1,1.0,0.0,428.0,817.0,0.0,0,55.0,1
230,230,0.5939426128731583,0.6,0.0,0.0,311.0,546.0,0.0,1,533.0,1
231,231,0.4852369437389853,0.5,1.0,1.0,492.0,808.0,1.0,1,460.0,1
232,232,-0.2277714347109222,-0.2,0.0,1.0,346.0,914.0,1.0,0,490.0,1
233,233,0.47100351488567116,0.5,1.0,1.0,407.0,943.0,1.0,1,320.0,1
234,234,0.2421836373758245,0.2,0.0,0.0,365.0,849.0,0.0,1,1156.0,1
235,235,0.8006363014143952,0.8,0.0,0.0,255.0,529.0,0.0,1,636.0,1
236,236,0.64036350578865,0.6,0.0,0.0,307.0,839.0,0.0,1,254.0,1
237,237,-0.03320619850396722,-0.0,1.0,0.0,257.0,851.0,0.0,0,3522.0,1
238,238,0.42047589951519526,0.4,1.0,1.0,330.0,561.0,1.0,1,2159.0,1
239,239,-0.5750876575930534,-0.6,1.0,0.0,497.0,649.0,0.0,0,114.0,1
240,240,0.20018549315132794,0.2,1.0,1.0,469.0,599.0,1.0,1,3542.0,1
241,241,-0.01647865542052951,-0.0,1.0,0.0,259.0,506.0,0.0,0,1225.0,1
242,242,0.4112060078422116,0.4,0.0,0.0,429.0,969.0,0.0,1,362.0,1
243,243,0.6273998756349607,0.6,1.0,1.0,354.0,570.0,1.0,1,686.0,1
244,244,-0.5092260656852465,-0.5,1.0,0.0,277.0,897.0,0.0,0,426.0,1
245,245,-0.2690797251603849,-0.3,0.0,1.0,446.0,924.0,1.0,0,1010.0,1
246,246,-0.7046639772496095,-0.7,1.0,0.0,470.0,984.0,0.0,0,306.0,1
247,247,-0.7679513491678437,-0.8,1.0,0.0,435.0,693.0,0.0,0,322.0,1
248,248,-0.6482510270830688,-0.6,1.0,0.0,285.0,549.0,0.0,0,76.0,1
249,249,-0.5344355858436446,-0.5,0.0,1.0,432.0,699.0,1.0,0,499.0,1
250,250,0.24420310911523824,0.2,1.0,1.0,479.0,618.0,1.0,1,553.0,1
251,251,0.3093724994020822,0.3,0.0,0.0,353.0,911.0,0.0,1,836.0,1
252,252,0.2635101633832485,0.3,0.0,0.0,381.0,888.0,0.0,1,-329.0,1
253,253,0.37789469729327607,0.4,1.0,1.0,473.0,675.0,1.0,1,852.0,1
254,254,-0.7830927994105263,-0.8,0.0,1.0,344.0,762.0,1.0,0,244.0,1
255,255,0.14731856219285577,0.1,1.0,1.0,466.0,954.0,0.0,0,3580.0,0
256,256,-0.49692316143319926,-0.5,1.0,0.0,272.0,806.0,0.0,0,-508.0,1
257,257,0.13800036614569644,0.1,0.0,0.0,452.0,562.0,0.0,1,-134.0,1
258,258,-0.3165061137257036,-0.3,0.0,1.0,442.0,554.0,1.0,0,844.0,1
259,259,0.13565748293122415,0.1,0.0,0.0,301.0,780.0,0.0,1,689.0,1
260,260,0.2717702182080023,0.3,0.0,0.0,496.0,581.0,0.0,1,2163.0,1
261,261,-0.09096235774651917,-0.1,1.0,0.0,300.0,608.0,0.0,0,132.0,1
262,262,0.7478578579311376,0.7,1.0,1.0,259.0,968.0,1.0,1,253.0,1
263,263,-0.6743256904649512,-0.7,1.0,0.0,382.0,786.0,0.0,0,72.0,1
264,264,-0.29172388366922786,-0.3,1.0,0.0,381.0,830.0,0.0,0,609.0,1
265,265,-0.3833955580225131,-0.4,1.0,0.0,407.0,957.0,0.0,0,236.0,1
266,266,0.045954464911538984,0.0,0.0,0.0,356.0,818.0,0.0,1,1176.0,1
267,267,-0.7818305264122835,-0.8,0.0,1.0,300.0,613.0,1.0,0,197.0,1
268,268,-0.571313642425263,-0.6,1.0,0.0,318.0,543.0,0.0,0,269.0,1
269,269,-0.7006917904325797,-0.7,0.0,1.0,330.0,556.0,1.0,0,34.0,1
270,270,0.41832120660866645,0.4,0.0,0.0,268.0,508.0,0.0,1,244.0,1
271,271,0.20456046364442215,0.2,0.0,0.0,367.0,671.0,0.0,1,1122.0,1
272,272,-0.5303111498347639,-0.5,1.0,0.0,341.0,884.0,0.0,0,65.0,1
273,273,-0.38455224607619154,-0.4,0.0,1.0,462.0,892.0,1.0,0,936.0,1
274,274,-0.19819655380684686,-0.2,0.0,1.0,425.0,924.0,1.0,0,2761.0,1
275,275,0.7839439779608207,0.8,0.0,0.0,371.0,786.0,0.0,1,463.0,1
276,276,-0.1952395229500553,-0.2,1.0,0.0,495.0,725.0,0.0,0,0.0,1
277,277,0.5144771475086228,0.5,0.0,0.0,251.0,800.0,0.0,1,209.0,1
278,278,-0.6984278920923672,-0.7,0.0,1.0,454.0,659.0,1.0,0,237.0,1
279,279,0.07469852589088122,0.1,1.0,1.0,325.0,567.0,0.0,0,218.0,0
280,280,0.7515199194378771,0.8,1.0,1.0,261.0,883.0,1.0,1,316.0,1
281,281,-0.889637808696504,-0.9,0.0,1.0,362.0,943.0,0.0,1,-65.0,0
282,282,-0.5005863343745756,-0.5,0.0,1.0,334.0,824.0,1.0,0,312.0,1
283,283,-0.02961295956170129,-0.0,0.0,1.0,443.0,909.0,0.0,1,3648.0,0
284,284,-0.8055721702035683,-0.8,1.0,0.0,314.0,733.0,0.0,0,113.0,1
285,285,0.19203123827375645,0.2,1.0,1.0,313.0,562.0,0.0,0,-95.0,0
286,286,-0.3301748314590516,-0.3,0.0,1.0,367.0,512.0,1.0,0,721.0,1
287,287,0.38916853892882475,0.4,0.0,0.0,487.0,705.0,0.0,1,598.0,1
288,288,-0.4015341626267639,-0.4,1.0,0.0,292.0,879.0,0.0,0,-41.0,1
289,289,-0.378821032863501,-0.4,0.0,1.0,418.0,650.0,1.0,0,642.0,1
290,290,0.747595948522023,0.7,1.0,1.0,315.0,899.0,1.0,1,496.0,1
291,291,0.2751589382539118,0.3,0.0,0.0,493.0,975.0,0.0,1,-648.0,1
292,292,0.8214610981474649,0.8,1.0,1.0,416.0,561.0,1.0,1,183.0,1
293,293,-0.03977161563150178,-0.0,0.0,1.0,477.0,865.0,1.0,0,3458.0,1
294,294,0.4224694026435015,0.4,1.0,1.0,343.0,981.0,1.0,1,886.0,1
295,295,0.4688527822591536,0.5,0.0,0.0,468.0,588.0,0.0,1,534.0,1
296,296,0.3564317372778748,0.4,0.0,0.0,298.0,525.0,0.0,1,717.0,1
297,297,-0.47127052725846996,-0.5,1.0,0.0,267.0,892.0,0.0,0,401.0,1
298,298,0.1999907193381566,0.2,0.0,0.0,484.0,530.0,0.0,1,706.0,1
299,299,0.35658358532136825,0.4,0.0,0.0,449.0,806.0,0.0,1,85.0,1
300,300,0.7122083427054068,0.7,0.0,0.0,468.0,532.0,0.0,1,550.0,1
301,301,0.3144456756687567,0.3,1.0,1.0,416.0,894.0,1.0,1,3550.0,1
302,302,0.5285778652537859,0.5,0.0,0.0,296.0,947.0,0.0,1,657.0,1
303,303,-0.6363548304108291,-0.6,0.0,1.0,465.0,891.0,1.0,0,244.0,1
304,304,-0.8678898200692542,-0.9,0.0,1.0,468.0,948.0,1.0,0,344.0,1
305,305,-0.10052005561813593,-0.1,1.0,0.0,291.0,936.0,0.0,0,2033.0,1
306,306,0.509599231503114,0.5,1.0,1.0,282.0,851.0,1.0,1,1007.0,1
307,307,0.8262029375612959,0.8,1.0,1.0,470.0,632.0,1.0,1,478.0,1
308,308,-0.026832983628067297,-0.0,0.0,1.0,484.0,806.0,0.0,1,1010.0,0
309,309,0.7546810275096786,0.8,0.0,0.0,438.0,820.0,0.0,1,282.0,1
310,310,0.4123105098722447,0.4,0.0,0.0,271.0,624.0,0.0,1,675.0,1
311,311,0.5980867892566438,0.6,0.0,0.0,467.0,960.0,0.0,1,193.0,1
312,312,-0.7109613502962628,-0.7,0.0,1.0,432.0,623.0,1.0,0,655.0,1
313,313,-0.5633832110371417,-0.6,0.0,1.0,325.0,684.0,1.0,0,451.0,1
314,314,-0.6072563991911459,-0.6,1.0,0.0,314.0,584.0,0.0,0,292.0,1
315,315,-0.19243010197442978,-0.2,0.0,1.0,361.0,885.0,1.0,0,2374.0,1
316,316,-0.5665816217442754,-0.6,0.0,1.0,386.0,936.0,1.0,0,728.0,1
317,317,0.5518601001026912,0.6,0.0,0.0,413.0,663.0,0.0,1,234.0,1
318,318,0.015575564726433178,0.0,1.0,1.0,263.0,980.0,0.0,0,2307.0,0
319,319,0.5218481284887665,0.5,0.0,0.0,422.0,530.0,0.0,1,198.0,1
320,320,-0.3688621391137501,-0.4,1.0,0.0,255.0,675.0,0.0,0,990.0,1
321,321,-0.5885453364152364,-0.6,0.0,1.0,416.0,786.0,1.0,0,218.0,1
322,322,-0.07993129359300177,-0.1,1.0,0.0,258.0,819.0,0.0,0,213.0,1
323,323,0.031056540082745943,0.0,1.0,1.0,324.0,847.0,0.0,0,2339.0,0
324,324,0.13382347258960337,0.1,0.0,0.0,402.0,514.0,0.0,1,954.0,1
325,325,0.17990247652850277,0.2,1.0,1.0,255.0,676.0,1.0,1,4069.0,1
326,326,-0.803196056173973,-0.8,0.0,1.0,391.0,634.0,1.0,0,325.0,1
327,327,-0.27504878432230506,-0.3,0.0,1.0,444.0,964.0,1.0,0,2242.0,1
328,328,-0.05813403095333802,-0.1,1.0,0.0,407.0,971.0,0.0,0,712.0,1
329,329,0.8074715233297848,0.8,0.0,0.0,417.0,644.0,0.0,1,509.0,1
330,330,0.42989665592501003,0.4,0.0,0.0,380.0,517.0,1.0,0,-47.0,0
331,331,-0.804823124333371,-0.8,0.0,1.0,264.0,903.0,0.0,1,3.0,0
332,332,0.20515404796548264,0.2,1.0,1.0,374.0,836.0,1.0,1,1190.0,1
333,333,0.7599863181579208,0.8,1.0,1.0,477.0,523.0,1.0,1,540.0,1
334,334,0.773462585492742,0.8,1.0,1.0,316.0,676.0,1.0,1,398.0,1
335,335,0.7889316168042458,0.8,0.0,0.0,263.0,590.0,0.0,1,277.0,1
336,336,-0.2711363353557479,-0.3,1.0,0.0,354.0,859.0,0.0,0,-373.0,1
337,337,0.5075558031461661,0.5,1.0,1.0,495.0,679.0,1.0,1,2726.0,1
338,338,-0.43768953260585913,-0.4,1.0,0.0,488.0,604.0,0.0,0,368.0,1
339,339,0.1591758156419799,0.2,1.0,1.0,326.0,593.0,1.0,1,2261.0,1
340,340,0.3403264564234335,0.3,0.0,0.0,255.0,627.0,0.0,1,278.0,1
341,341,-0.14667140521410327,-0.1,1.0,0.0,379.0,844.0,0.0,0,757.0,1
342,342,-0.7770931445623922,-0.8,0.0,1.0,477.0,789.0,1.0,0,354.0,1
343,343,0.81282528743063,0.8,0.0,0.0,312.0,679.0,0.0,1,649.0,1
344,344,-0.7632395850744327,-0.8,0.0,1.0,256.0,992.0,1.0,0,12.0,1
345,345,0.8690159064958148,0.9,0.0,0.0,437.0,571.0,0.0,1,272.0,1
346,346,-0.5796553179558777,-0.6,0.0,1.0,362.0,527.0,1.0,0,411.0,1
347,347,0.7070024574448573,0.7,0.0,0.0,299.0,902.0,0.0,1,249.0,1
348,348,-0.7531917940191005,-0.8,0.0,1.0,491.0,875.0,1.0,0,154.0,1
349,349,0.39909512903853417,0.4,0.0,0.0,276.0,613.0,0.0,1,1131.0,1
350,350,0.51172488644895,0.5,0.0,0.0,304.0,681.0,0.0,1,335.0,1
351,351,-0.546496622469616,-0.5,0.0,1.0,444.0,989.0,0.0,1,-453.0,0
352,352,0.20245406979367442,0.2,1.0,1.0,454.0,873.0,1.0,1,3673.0,1
353,353,0.6029079017227609,0.6,0.0,0.0,270.0,571.0,0.0,1,219.0,1
354,354,-0.5026180613720964,-0.5,0.0,1.0,310.0,563.0,1.0,0,527.0,1
355,355,0.7881317672670157,0.8,0.0,0.0,496.0,922.0,0.0,1,252.0,1
356,356,-0.5679969873117725,-0.6,1.0,0.0,491.0,927.0,0.0,0,362.0,1
357,357,-0.3944996134252817,-0.4,1.0,0.0,452.0,869.0,0.0,0,189.0,1
358,358,0.18340620520380158,0.2,1.0,1.0,473.0,817.0,0.0,0,3710.0,0
359,359,-0.6140776634263608,-0.6,0.0,1.0,476.0,821.0,0.0,1,-187.0,0
360,360,-0.45761151329771804,-0.5,1.0,0.0,362.0,610.0,0.0,0,98.0,1
361,361,-0.4414125446844115,-0.4,1.0,0.0,284.0,865.0,0.0,0,351.0,1
362,362,0.3269019426985774,0.3,0.0,0.0,464.0,869.0,0.0,1,507.0,1
363,363,0.3863688504870225,0.4,1.0,1.0,468.0,832.0,1.0,1,2210.0,1
364,364,-0.13222125444305888,-0.1,1.0,0.0,341.0,755.0,0.0,0,1704.0,1
365,365,0.6861225574709818,0.7,1.0,1.0,386.0,637.0,1.0,1,517.0,1
366,366,-0.8863736767933799,-0.9,0.0,1.0,286.0,986.0,1.0,0,358.0,1
367,367,0.3042948105628628,0.3,0.0,0.0,439.0,920.0,0.0,1,1901.0,1
368,368,-0.1342959485306775,-0.1,1.0,0.0,472.0,920.0,0.0,0,388.0,1
369,369,0.7448591723042582,0.7,0.0,0.0,447.0,916.0,0.0,1,307.0,1
370,370,0.8776779678795988,0.9,1.0,1.0,369.0,597.0,1.0,1,194.0,1
371,371,-0.041227173196914935,-0.0,1.0,0.0,447.0,574.0,0.0,0,1599.0,1
372,372,0.1394442933148451,0.1,1.0,1.0,395.0,860.0,0.0,0,205.0,0
373,373,-0.6681647754157218,-0.7,0.0,1.0,390.0,580.0,1.0,0,490.0,1
374,374,-0.38130329389894013,-0.4,0.0,1.0,409.0,893.0,0.0,1,28.0,0
375,375,-0.041625909654943505,-0.0,1.0,0.0,441.0,727.0,0.0,0,1962.0,1
376,376,-0.6431116550171128,-0.6,0.0,1.0,415.0,638.0,1.0,0,447.0,1
377,377,0.19574554492743268,0.2,1.0,1.0,438.0,836.0,1.0,1,3516.0,1
378,378,0.27989491847709613,0.3,0.0,0.0,378.0,732.0,0.0,1,370.0,1
379,379,-0.4740910909266244,-0.5,0.0,1.0,321.0,898.0,0.0,1,91.0,0
380,380,0.12192237796181937,0.1,1.0,1.0,329.0,642.0,1.0,1,1359.0,1
381,381,0.7298398081965592,0.7,1.0,1.0,428.0,922.0,1.0,1,370.0,1
382,382,-0.497193447221815,-0.5,1.0,0.0,355.0,666.0,0.0,0,589.0,1
383,383,-0.6306519793687917,-0.6,0.0,1.0,416.0,750.0,1.0,0,244.0,1
384,384,0.6043316394437402,0.6,1.0,1.0,391.0,969.0,1.0,1,870.0,1
385,385,-0.2578445244879113,-0.3,0.0,1.0,384.0,906.0,1.0,0,540.0,1
386,386,0.6810548789722205,0.7,0.0,0.0,428.0,812.0,0.0,1,360.0,1
387,387,-0.3936188099804814,-0.4,1.0,0.0,424.0,694.0,0.0,0,222.0,1
388,388,-0.8876666283518367,-0.9,0.0,1.0,318.0,838.0,1.0,0,414.0,1
389,389,-0.4133654828059458,-0.4,0.0,1.0,287.0,953.0,1.0,0,300.0,1
390,390,-0.38173023629682745,-0.4,0.0,1.0,412.0,528.0,1.0,0,960.0,1
391,391,-0.07877737970346221,-0.1,0.0,1.0,321.0,671.0,1.0,0,638.0,1
392,392,-0.7265047056889827,-0.7,1.0,0.0,483.0,748.0,0.0,0,119.0,1
393,393,-0.0461384651274207,-0.0,0.0,1.0,295.0,570.0,0.0,1,4135.0,0
394,394,0.682488952825082,0.7,0.0,0.0,344.0,900.0,0.0,1,96.0,1
395,395,-0.7028106612768916,-0.7,1.0,0.0,283.0,547.0,0.0,0,290.0,1
396,396,-0.23823810074149399,-0.2,0.0,1.0,339.0,653.0,0.0,1,278.0,0
397,397,0.15841479089787447,0.2,1.0,1.0,482.0,913.0,1.0,1,2315.0,1
398,398,-0.03300711277679336,-0.0,0.0,1.0,335.0,739.0,0.0,1,3926.0,0
399,399,0.2037780475102623,0.2,0.0,0.0,260.0,644.0,0.0,1,966.0,1
400,400,-0.2221075071524341,-0.2,0.0,1.0,430.0,679.0,1.0,0,1621.0,1
401,401,0.8042127401788765,0.8,1.0,1.0,252.0,559.0,1.0,1,2369.0,1
402,402,-0.7374843389891155,-0.7,1.0,0.0,298.0,833.0,0.0,0,99.0,1
403,403,-0.280372710003326,-0.3,0.0,1.0,298.0,903.0,1.0,0,829.0,1
404,404,-0.14446357896965856,-0.1,1.0,0.0,251.0,650.0,0.0,0,-71.0,1
405,405,0.3111971975266431,0.3,1.0,1.0,274.0,903.0,1.0,1,1293.0,1
406,406,0.259415059590521,0.3,0.0,0.0,478.0,897.0,0.0,1,625.0,1
407,407,-0.7012719449341451,-0.7,1.0,0.0,265.0,723.0,0.0,0,112.0,1
408,408,-0.5818704178282814,-0.6,0.0,1.0,298.0,502.0,1.0,0,430.0,1
409,409,0.7878842990694684,0.8,0.0,0.0,426.0,650.0,1.0,0,-186.0,0
410,410,-0.18744745944406116,-0.2,1.0,0.0,395.0,853.0,0.0,0,212.0,1
411,411,-0.8315187682560996,-0.8,1.0,0.0,491.0,827.0,0.0,0,-418.0,1
412,412,0.023290218654336337,0.0,0.0,0.0,426.0,660.0,0.0,1,3914.0,1
413,413,-0.41573226728027046,-0.4,1.0,0.0,352.0,817.0,0.0,0,271.0,1
414,414,0.03442426802015097,0.0,1.0,1.0,408.0,672.0,0.0,0,3530.0,0
415,415,0.3410741137740797,0.3,1.0,1.0,369.0,523.0,1.0,1,1088.0,1
416,416,0.22605935583942294,0.2,1.0,1.0,277.0,927.0,1.0,1,2316.0,1
417,417,0.32350676658621225,0.3,0.0,0.0,441.0,906.0,1.0,0,-387.0,0
418,418,-0.5842862845945631,-0.6,0.0,1.0,371.0,844.0,1.0,0,475.0,1
419,419,-0.4681372816759393,-0.5,0.0,1.0,268.0,739.0,1.0,0,523.0,1
420,420,-0.05637969939123855,-0.1,0.0,1.0,283.0,621.0,0.0,1,1356.0,0
421,421,0.01740825972321791,0.0,1.0,1.0,298.0,750.0,0.0,0,1502.0,0
422,422,-0.5323933340036687,-0.5,1.0,0.0,396.0,788.0,0.0,0,116.0,1
423,423,-0.25770255623938776,-0.3,1.0,0.0,393.0,512.0,0.0,0,675.0,1
424,424,-0.669032848385953,-0.7,0.0,1.0,482.0,900.0,1.0,0,578.0,1
425,425,-0.3144642810847794,-0.3,0.0,1.0,356.0,786.0,1.0,0,1138.0,1
426,426,-0.21145806705570125,-0.2,0.0,1.0,262.0,845.0,1.0,0,723.0,1
427,427,-0.06038163721240353,-0.1,0.0,1.0,478.0,555.0,0.0,1,3967.0,0
428,428,0.6716302306953598,0.7,1.0,1.0,308.0,858.0,1.0,1,384.0,1
429,429,-0.13949457291708256,-0.1,1.0,0.0,363.0,811.0,0.0,0,986.0,1
430,430,0.49626795437655347,0.5,1.0,1.0,301.0,575.0,1.0,1,1634.0,1
431,431,0.22206090434336156,0.2,1.0,1.0,453.0,663.0,1.0,1,2394.0,1
432,432,-0.17497616016078787,-0.2,0.0,1.0,404.0,558.0,1.0,0,2748.0,1
433,433,-0.2624244644268863,-0.3,0.0,1.0,300.0,847.0,1.0,0,933.0,1
434,434,-0.0006482721611487108,-0.0,1.0,0.0,394.0,589.0,0.0,0,2477.0,1
435,435,-0.18151065250413534,-0.2,1.0,0.0,356.0,943.0,0.0,0,791.0,1
436,436,-0.09047724424660053,-0.1,0.0,1.0,335.0,700.0,1.0,0,3965.0,1
437,437,-0.09626277506112657,-0.1,1.0,0.0,458.0,934.0,0.0,0,488.0,1
438,438,0.22544484049342028,0.2,0.0,0.0,491.0,870.0,0.0,1,349.0,1
439,439,-0.8209999631542794,-0.8,1.0,0.0,398.0,984.0,0.0,0,168.0,1
440,440,0.17324803946433975,0.2,1.0,1.0,251.0,866.0,0.0,0,-417.0,0
441,441,0.5664001856637016,0.6,0.0,0.0,326.0,847.0,0.0,1,837.0,1
442,442,0.8224375389376465,0.8,1.0,1.0,427.0,747.0,1.0,1,166.0,1
443,443,-0.7983444016434592,-0.8,0.0,1.0,368.0,542.0,1.0,0,420.0,1
444,444,-0.15021290782914154,-0.2,1.0,0.0,404.0,519.0,0.0,0,1097.0,1
445,445,0.3636836397748239,0.4,1.0,1.0,424.0,880.0,1.0,1,586.0,1
446,446,0.7274241240800247,0.7,1.0,1.0,399.0,994.0,1.0,1,247.0,1
447,447,-0.6157321844073198,-0.6,0.0,1.0,388.0,727.0,1.0,0,255.0,1
448,448,-0.08659234050383069,-0.1,1.0,0.0,395.0,873.0,0.0,0,-138.0,1
449,449,0.2554048064505642,0.3,1.0,1.0,296.0,900.0,1.0,1,3194.0,1
450,450,0.688848174207631,0.7,0.0,0.0,440.0,650.0,0.0,1,130.0,1
451,451,0.14988339303948373,0.1,1.0,1.0,256.0,741.0,0.0,0,4003.0,0
452,452,-0.22987662330386127,-0.2,0.0,1.0,458.0,880.0,1.0,0,662.0,1
453,453,0.5360409373038283,0.5,0.0,0.0,273.0,774.0,0.0,1,303.0,1
454,454,-0.006351262477567676,-0.0,0.0,1.0,335.0,670.0,0.0,1,3575.0,0
455,455,0.05858486975587662,0.1,1.0,1.0,409.0,508.0,0.0,0,4083.0,0
456,456,-0.8299024404525889,-0.8,1.0,0.0,367.0,945.0,0.0,0,168.0,1
457,457,0.38670459658659595,0.4,1.0,1.0,251.0,822.0,1.0,1,1057.0,1
458,458,-0.6441864177292793,-0.6,0.0,1.0,478.0,707.0,1.0,0,565.0,1
459,459,0.38726005651550655,0.4,1.0,1.0,435.0,873.0,1.0,1,612.0,1
460,460,-0.40231859831247235,-0.4,0.0,1.0,374.0,828.0,1.0,0,688.0,1
461,461,0.23063679340565824,0.2,1.0,1.0,350.0,880.0,0.0,0,700.0,0
462,462,-0.15059670655440616,-0.2,1.0,0.0,442.0,958.0,0.0,0,-170.0,1
463,463,0.16013049260141077,0.2,0.0,0.0,367.0,845.0,0.0,1,1878.0,1
464,464,0.14584106786128748,0.1,1.0,1.0,300.0,577.0,0.0,0,1713.0,0
465,465,0.5156040022876075,0.5,1.0,1.0,443.0,515.0,1.0,1,802.0,1
466,466,0.40928178984573027,0.4,0.0,0.0,470.0,509.0,0.0,1,261.0,1
467,467,-0.23861041772243685,-0.2,0.0,1.0,495.0,770.0,1.0,0,885.0,1
468,468,-0.2930488877965558,-0.3,0.0,1.0,464.0,854.0,1.0,0,862.0,1
469,469,0.3821802132302602,0.4,1.0,1.0,491.0,966.0,1.0,1,853.0,1
470,470,-0.8837858991369916,-0.9,1.0,0.0,362.0,851.0,0.0,0,147.0,1
471,471,-0.5854662848269047,-0.6,1.0,0.0,348.0,904.0,0.0,0,228.0,1
472,472,0.27600095543099423,0.3,1.0,1.0,269.0,882.0,1.0,1,3849.0,1
473,473,-0.8665322997973216,-0.9,0.0,1.0,377.0,993.0,1.0,0,120.0,1
474,474,-0.10460001939578623,-0.1,0.0,1.0,492.0,609.0,1.0,0,309.0,1
475,475,-0.5957364465581418,-0.6,0.0,1.0,421.0,780.0,1.0,0,329.0,1
476,476,0.2902833054232813,0.3,0.0,0.0,487.0,962.0,0.0,1,471.0,1
477,477,-0.5408199088337076,-0.5,0.0,1.0,394.0,928.0,1.0,0,418.0,1
478,478,-0.1420583825847629,-0.1,0.0,1.0,499.0,630.0,1.0,0,371.0,1
479,479,0.47254196482390987,0.5,0.0,0.0,470.0,543.0,0.0,1,427.0,1
480,480,0.1896920072757161,0.2,1.0,1.0,269.0,574.0,1.0,1,3487.0,1
481,481,0.8056755248172115,0.8,0.0,0.0,303.0,895.0,0.0,1,312.0,1
482,482,-0.28758023284896517,-0.3,1.0,0.0,412.0,969.0,0.0,0,-191.0,1
483,483,0.44522584185409053,0.4,0.0,0.0,264.0,732.0,0.0,1,994.0,1
484,484,0.5723201782950943,0.6,0.0,0.0,406.0,899.0,0.0,1,195.0,1
485,485,0.13344361149357653,0.1,0.0,0.0,349.0,667.0,0.0,1,1194.0,1
486,486,-0.35325973100377206,-0.4,1.0,0.0,269.0,991.0,0.0,0,550.0,1
487,487,0.19318857236283116,0.2,1.0,1.0,317.0,847.0,1.0,1,3836.0,1
488,488,-0.5140828083779247,-0.5,1.0,0.0,468.0,993.0,0.0,0,199.0,1
489,489,-0.3291367278307369,-0.3,0.0,1.0,326.0,636.0,1.0,0,398.0,1
490,490,-0.11413202353030238,-0.1,1.0,0.0,424.0,933.0,0.0,0,1233.0,1
491,491,0.5905095717100409,0.6,1.0,1.0,367.0,737.0,1.0,1,446.0,1
492,492,-0.7996239838642412,-0.8,0.0,1.0,451.0,907.0,1.0,0,452.0,1
493,493,-0.3291757065163087,-0.3,0.0,1.0,391.0,965.0,1.0,0,554.0,1
494,494,-0.4138332847202041,-0.4,0.0,1.0,396.0,830.0,1.0,0,424.0,1
495,495,-0.10911294784030423,-0.1,0.0,1.0,441.0,756.0,0.0,1,823.0,0
496,496,0.2116049957879954,0.2,1.0,1.0,292.0,821.0,1.0,1,2417.0,1
497,497,-0.45823528677963105,-0.5,1.0,0.0,362.0,520.0,0.0,0,478.0,1
498,498,-0.6909359324868514,-0.7,1.0,0.0,393.0,808.0,0.0,0,499.0,1
499,499,0.12874670013340028,0.1,1.0,1.0,311.0,941.0,1.0,1,3748.0,1
500,500,0.03696108723357394,0.0,1.0,1.0,326.0,816.0,0.0,0,348.0,0
501,501,0.6807906661672535,0.7,1.0,1.0,330.0,854.0,1.0,1,336.0,1
502,502,-0.7884677840916354,-0.8,1.0,0.0,362.0,919.0,0.0,0,159.0,1
503,503,0.12957774062087501,0.1,1.0,1.0,376.0,950.0,1.0,1,3674.0,1
504,504,0.7267222468216125,0.7,1.0,1.0,425.0,690.0,1.0,1,335.0,1
505,505,-0.7366296586357796,-0.7,1.0,0.0,367.0,500.0,0.0,0,443.0,1
506,506,0.8380151364439831,0.8,0.0,0.0,418.0,800.0,0.0,1,1182.0,1
507,507,0.7413876148117972,0.7,1.0,1.0,263.0,597.0,1.0,1,260.0,1
508,508,0.7453673347621746,0.7,1.0,1.0,371.0,518.0,1.0,1,641.0,1
509,509,0.5687005105795474,0.6,1.0,1.0,260.0,976.0,1.0,1,1944.0,1
510,510,0.46391446088318833,0.5,0.0,0.0,339.0,651.0,0.0,1,160.0,1
511,511,0.7737263630676156,0.8,1.0,1.0,497.0,812.0,1.0,1,251.0,1
512,512,-0.11440651677701408,-0.1,0.0,1.0,346.0,873.0,1.0,0,1341.0,1
513,513,-0.7618786441441269,-0.8,0.0,1.0,315.0,503.0,1.0,0,72.0,1
514,514,-0.819130030096108,-0.8,1.0,0.0,363.0,807.0,0.0,0,70.0,1
515,515,0.6792628197401561,0.7,0.0,0.0,399.0,988.0,0.0,1,483.0,1
516,516,0.8938207674252258,0.9,0.0,0.0,317.0,943.0,0.0,1,580.0,1
517,517,-0.620802020391158,-0.6,1.0,0.0,378.0,766.0,0.0,0,96.0,1
518,518,-0.37329953690283435,-0.4,1.0,0.0,495.0,892.0,0.0,0,413.0,1
519,519,-0.14830112419293406,-0.1,1.0,0.0,299.0,605.0,0.0,0,336.0,1
520,520,0.4417869329804146,0.4,1.0,1.0,408.0,573.0,0.0,0,9.0,0
521,521,0.48594895581147546,0.5,1.0,1.0,373.0,584.0,1.0,1,583.0,1
522,522,-0.8145611396338146,-0.8,1.0,0.0,388.0,807.0,0.0,0,465.0,1
523,523,0.05122020988907594,0.1,0.0,0.0,421.0,846.0,0.0,1,1723.0,1
524,524,-0.5368933333555801,-0.5,0.0,1.0,254.0,556.0,1.0,0,1030.0,1
525,525,0.2204314206397605,0.2,0.0,0.0,306.0,789.0,0.0,1,655.0,1
526,526,0.5928471280954045,0.6,1.0,1.0,302.0,693.0,1.0,1,1095.0,1
527,527,0.2062066493240028,0.2,0.0,0.0,375.0,928.0,0.0,1,867.0,1
528,528,0.805476953205822,0.8,1.0,1.0,415.0,586.0,1.0,1,1209.0,1
529,529,-0.0593034015824343,-0.1,1.0,0.0,383.0,994.0,0.0,0,-317.0,1
530,530,0.29477299274452384,0.3,0.0,0.0,259.0,850.0,0.0,1,151.0,1
531,531,0.4628180865557926,0.5,0.0,0.0,288.0,836.0,0.0,1,366.0,1
532,532,-0.04026061973175832,-0.0,1.0,0.0,373.0,919.0,0.0,0,338.0,1
533,533,-0.29723742680908927,-0.3,1.0,0.0,499.0,989.0,0.0,0,412.0,1
534,534,0.13116109420763744,0.1,0.0,0.0,369.0,807.0,0.0,1,504.0,1
535,535,-0.7693856730102058,-0.8,1.0,0.0,472.0,677.0,0.0,0,221.0,1
536,536,0.8876109534076334,0.9,0.0,0.0,368.0,704.0,0.0,1,738.0,1
537,537,0.6023144140215643,0.6,1.0,1.0,250.0,547.0,1.0,1,313.0,1
538,538,-0.16142766779947249,-0.2,0.0,1.0,360.0,859.0,1.0,0,2941.0,1
539,539,-0.7202869657621138,-0.7,1.0,0.0,317.0,995.0,0.0,0,-452.0,1
540,540,-0.7860522933048214,-0.8,1.0,0.0,467.0,518.0,0.0,0,395.0,1
541,541,-0.4113917283112496,-0.4,1.0,0.0,445.0,553.0,0.0,0,242.0,1
542,542,0.7601773283727443,0.8,1.0,1.0,375.0,672.0,1.0,1,483.0,1
543,543,0.5078619815063173,0.5,1.0,1.0,475.0,577.0,1.0,1,678.0,1
544,544,0.8410564684059462,0.8,1.0,1.0,281.0,766.0,1.0,1,573.0,1
545,545,0.060482049298429263,0.1,1.0,1.0,328.0,958.0,0.0,0,-126.0,0
546,546,-0.8650795803880524,-0.9,1.0,0.0,304.0,560.0,0.0,0,226.0,1
547,547,0.4423362434043149,0.4,0.0,0.0,494.0,940.0,0.0,1,806.0,1
548,548,-0.7561724220323869,-0.8,0.0,1.0,329.0,983.0,1.0,0,228.0,1
549,549,-0.4286480642527673,-0.4,1.0,0.0,376.0,656.0,0.0,0,258.0,1
550,550,-0.7522184128953477,-0.8,0.0,1.0,261.0,820.0,1.0,0,209.0,1
551,551,-0.0527863269243517,-0.1,0.0,1.0,497.0,502.0,0.0,1,1121.0,0
552,552,0.34951009522556575,0.3,0.0,0.0,326.0,793.0,0.0,1,441.0,1
553,553,0.8511273441279635,0.9,0.0,0.0,387.0,753.0,0.0,1,270.0,1
554,554,0.6136811435937389,0.6,1.0,1.0,382.0,728.0,1.0,1,950.0,1
555,555,-0.24490771216263874,-0.2,1.0,0.0,371.0,612.0,0.0,0,497.0,1
556,556,-0.2725192487264396,-0.3,0.0,1.0,311.0,633.0,1.0,0,1256.0,1
557,557,-0.1565479518041919,-0.2,1.0,0.0,309.0,593.0,0.0,0,948.0,1
558,558,0.2674050684766406,0.3,0.0,0.0,384.0,720.0,0.0,1,456.0,1
559,559,-0.4801927702017733,-0.5,1.0,0.0,345.0,910.0,0.0,0,215.0,1
560,560,-0.1728530268457229,-0.2,1.0,0.0,316.0,611.0,0.0,0,1103.0,1
561,561,0.022241696615138196,0.0,0.0,0.0,394.0,821.0,0.0,1,3785.0,1
562,562,-0.7040504122671095,-0.7,1.0,0.0,306.0,921.0,0.0,0,303.0,1
563,563,0.6620942074424322,0.7,0.0,0.0,322.0,827.0,0.0,1,141.0,1
564,564,0.24624892157196288,0.2,1.0,1.0,399.0,686.0,1.0,1,695.0,1
565,565,-0.2052096375754049,-0.2,1.0,0.0,438.0,531.0,0.0,0,1011.0,1
566,566,-0.1333544492299915,-0.1,1.0,0.0,394.0,822.0,0.0,0,-86.0,1
567,567,-0.7122780474592576,-0.7,0.0,1.0,459.0,729.0,1.0,0,192.0,1
568,568,0.13523144967337652,0.1,0.0,0.0,325.0,532.0,0.0,1,3223.0,1
569,569,-0.35945168719564313,-0.4,0.0,1.0,313.0,546.0,1.0,0,531.0,1
570,570,0.3777267776711727,0.4,1.0,1.0,400.0,780.0,1.0,1,440.0,1
571,571,0.2463064979536932,0.2,1.0,1.0,413.0,825.0,1.0,1,3762.0,1
572,572,-0.7619382854123784,-0.8,1.0,0.0,278.0,520.0,0.0,0,342.0,1
573,573,-0.12183909732473075,-0.1,0.0,1.0,373.0,521.0,1.0,0,4106.0,1
574,574,-0.03414089300727152,-0.0,0.0,1.0,492.0,927.0,1.0,0,3581.0,1
575,575,-0.058427298595392085,-0.1,0.0,1.0,335.0,586.0,1.0,0,1749.0,1
576,576,0.676256250613149,0.7,1.0,1.0,473.0,721.0,1.0,1,2096.0,1
577,577,-0.870808991188207,-0.9,0.0,1.0,342.0,870.0,1.0,0,238.0,1
578,578,-0.49767123410539965,-0.5,0.0,1.0,432.0,596.0,1.0,0,572.0,1
579,579,-0.3075560437556212,-0.3,1.0,0.0,270.0,591.0,0.0,0,419.0,1
580,580,-0.4786148980520779,-0.5,0.0,1.0,313.0,729.0,1.0,0,848.0,1
581,581,-0.5267419142309022,-0.5,1.0,0.0,408.0,739.0,0.0,0,273.0,1
582,582,0.1142574389698724,0.1,0.0,0.0,465.0,880.0,0.0,1,895.0,1
583,583,-0.6530252900573217,-0.7,0.0,1.0,468.0,698.0,1.0,0,324.0,1
584,584,-0.7354144249046188,-0.7,0.0,1.0,325.0,520.0,1.0,0,425.0,1
585,585,-0.3392552127032019,-0.3,0.0,1.0,269.0,716.0,1.0,0,905.0,1
586,586,-0.6309324793534584,-0.6,0.0,1.0,289.0,544.0,1.0,0,437.0,1
587,587,-0.47131822365316156,-0.5,0.0,1.0,310.0,729.0,1.0,0,361.0,1
588,588,0.34237358992642186,0.3,0.0,0.0,348.0,760.0,0.0,1,532.0,1
589,589,0.38616009794556205,0.4,0.0,0.0,374.0,848.0,0.0,1,448.0,1
590,590,-0.11048488417360836,-0.1,1.0,0.0,323.0,501.0,0.0,0,26.0,1
591,591,0.5425064273276013,0.5,1.0,1.0,459.0,881.0,1.0,1,560.0,1
592,592,-0.026877638142068228,-0.0,1.0,0.0,403.0,984.0,0.0,0,2823.0,1
593,593,-0.270958072546688,-0.3,1.0,0.0,257.0,708.0,0.0,0,545.0,1
594,594,0.4073389964690374,0.4,1.0,1.0,252.0,666.0,1.0,1,1172.0,1
595,595,-0.5797778381212038,-0.6,0.0,1.0,426.0,655.0,1.0,0,339.0,1
596,596,-0.5425911337413416,-0.5,0.0,1.0,324.0,870.0,1.0,0,676.0,1
597,597,0.8435800240901467,0.8,0.0,0.0,394.0,628.0,0.0,1,298.0,1
598,598,-0.8289604753817365,-0.8,1.0,0.0,306.0,516.0,0.0,0,218.0,1
599,599,0.08715591508195542,0.1,0.0,0.0,385.0,521.0,0.0,1,824.0,1
600,600,-0.009971493280066523,-0.0,0.0,1.0,273.0,841.0,0.0,1,3886.0,0
601,601,0.3638282898747961,0.4,1.0,1.0,319.0,980.0,1.0,1,401.0,1
602,602,0.6020647561086115,0.6,0.0,0.0,331.0,632.0,0.0,1,467.0,1
603,603,-0.7594489642383973,-0.8,1.0,0.0,483.0,528.0,0.0,0,129.0,1
604,604,0.4839511465345746,0.5,1.0,1.0,415.0,992.0,1.0,1,903.0,1
605,605,0.5028992202460624,0.5,1.0,1.0,262.0,582.0,1.0,1,1706.0,1
606,606,-0.05466190146921923,-0.1,1.0,0.0,327.0,653.0,0.0,0,490.0,1
607,607,0.77749540012473,0.8,0.0,0.0,330.0,913.0,0.0,1,-43.0,1
608,608,0.8978681552096103,0.9,0.0,0.0,260.0,889.0,0.0,1,731.0,1
609,609,0.2930905983087152,0.3,1.0,1.0,427.0,640.0,1.0,1,1763.0,1
610,610,0.6450146564282283,0.6,0.0,0.0,375.0,951.0,0.0,1,494.0,1
611,611,0.8502142912794771,0.9,1.0,1.0,389.0,648.0,1.0,1,793.0,1
612,612,0.19192960961469396,0.2,0.0,0.0,366.0,680.0,0.0,1,74.0,1
613,613,-0.656597430567408,-0.7,0.0,1.0,426.0,740.0,1.0,0,264.0,1
614,614,0.023981960142513303,0.0,1.0,1.0,283.0,819.0,0.0,0,108.0,0
615,615,-0.833196186062854,-0.8,0.0,1.0,275.0,888.0,1.0,0,307.0,1
616,616,-0.7474804598039957,-0.7,1.0,0.0,450.0,775.0,0.0,0,325.0,1
617,617,0.8316855594308238,0.8,0.0,0.0,425.0,602.0,0.0,1,273.0,1
618,618,0.3280788544214891,0.3,1.0,1.0,353.0,833.0,0.0,0,104.0,0
619,619,-0.3707796835197058,-0.4,1.0,0.0,490.0,597.0,0.0,0,493.0,1
620,620,0.4849184258022926,0.5,0.0,0.0,467.0,944.0,0.0,1,-61.0,1
621,621,0.5683454913370521,0.6,0.0,0.0,350.0,853.0,0.0,1,477.0,1
622,622,0.6397691439945857,0.6,0.0,0.0,376.0,948.0,0.0,1,896.0,1
623,623,0.44670933127624923,0.4,1.0,1.0,446.0,679.0,1.0,1,745.0,1
624,624,0.07362693750101656,0.1,0.0,0.0,431.0,895.0,0.0,1,994.0,1
625,625,-0.11739339854552244,-0.1,1.0,0.0,477.0,985.0,0.0,0,668.0,1
626,626,-0.4290224643142693,-0.4,1.0,0.0,469.0,766.0,0.0,0,255.0,1
627,627,-0.20390715161264672,-0.2,1.0,0.0,497.0,785.0,0.0,0,638.0,1
628,628,0.22014754453132068,0.2,0.0,0.0,303.0,525.0,0.0,1,1462.0,1
629,629,0.18419107056827289,0.2,0.0,0.0,357.0,765.0,0.0,1,698.0,1
630,630,-0.8064887802895188,-0.8,0.0,1.0,422.0,711.0,1.0,0,247.0,1
631,631,0.5897013761989659,0.6,0.0,0.0,316.0,939.0,0.0,1,825.0,1
632,632,0.7726201870457935,0.8,1.0,1.0,354.0,516.0,1.0,1,410.0,1
633,633,-0.18577699177063567,-0.2,0.0,1.0,278.0,785.0,1.0,0,2547.0,1
634,634,0.11143365791133386,0.1,1.0,1.0,425.0,753.0,0.0,0,2302.0,0
635,635,-0.4362461998417272,-0.4,1.0,0.0,303.0,575.0,0.0,0,502.0,1
636,636,-0.48974672064108,-0.5,0.0,1.0,473.0,875.0,1.0,0,372.0,1
637,637,-0.2693553088849794,-0.3,0.0,1.0,399.0,984.0,1.0,0,897.0,1
638,638,-0.6571602880556005,-0.7,0.0,1.0,285.0,856.0,1.0,0,379.0,1
639,639,-0.25169632693376154,-0.3,1.0,0.0,499.0,590.0,0.0,0,221.0,1
640,640,0.055055179499782225,0.1,1.0,1.0,310.0,850.0,0.0,0,1490.0,0
641,641,0.29948986982360115,0.3,1.0,1.0,252.0,655.0,1.0,1,963.0,1
642,642,0.7004258056252609,0.7,1.0,1.0,362.0,963.0,1.0,1,625.0,1
643,643,0.004976607019734902,0.0,0.0,0.0,489.0,881.0,0.0,1,3630.0,1
644,644,0.4190531649104595,0.4,1.0,1.0,261.0,695.0,1.0,1,1124.0,1
645,645,-0.2652253477332879,-0.3,0.0,1.0,317.0,753.0,0.0,1,70.0,0
646,646,-0.2316262426955703,-0.2,1.0,0.0,311.0,869.0,0.0,0,-270.0,1
647,647,0.2660690674999574,0.3,0.0,0.0,478.0,695.0,0.0,1,697.0,1
648,648,0.1744036357827211,0.2,0.0,0.0,384.0,570.0,0.0,1,226.0,1
649,649,-0.6962060432142776,-0.7,1.0,0.0,470.0,779.0,0.0,0,261.0,1
650,650,-0.422669459210844,-0.4,1.0,0.0,340.0,943.0,0.0,0,147.0,1
651,651,0.2189172753459646,0.2,1.0,1.0,355.0,683.0,0.0,0,142.0,0
652,652,-0.7185843016213515,-0.7,1.0,0.0,350.0,544.0,0.0,0,576.0,1
653,653,0.01419007070309486,0.0,0.0,0.0,261.0,730.0,0.0,1,3739.0,1
654,654,-0.6173482568738125,-0.6,0.0,1.0,342.0,535.0,1.0,0,353.0,1
655,655,0.5706948556570767,0.6,0.0,0.0,493.0,966.0,0.0,1,-409.0,1
656,656,0.628081888593096,0.6,0.0,0.0,328.0,645.0,0.0,1,297.0,1
657,657,-0.6459247317852244,-0.6,0.0,1.0,443.0,967.0,1.0,0,610.0,1
658,658,0.10326539015130398,0.1,1.0,1.0,325.0,510.0,0.0,0,2715.0,0
659,659,-0.2855758564352133,-0.3,0.0,1.0,391.0,982.0,1.0,0,1797.0,1
660,660,0.43905559444994846,0.4,0.0,0.0,372.0,655.0,0.0,1,593.0,1
661,661,0.4727257367720453,0.5,1.0,1.0,345.0,659.0,1.0,1,496.0,1
662,662,0.6273736198036245,0.6,0.0,0.0,304.0,621.0,0.0,1,275.0,1
663,663,-0.5068795043157807,-0.5,0.0,1.0,298.0,915.0,1.0,0,127.0,1
664,664,0.8302044251039801,0.8,0.0,0.0,282.0,612.0,0.0,1,656.0,1
665,665,0.5914659060701312,0.6,1.0,1.0,420.0,687.0,1.0,1,433.0,1
666,666,0.4656235391272773,0.5,0.0,0.0,302.0,918.0,0.0,1,100.0,1
667,667,-0.08527900555846046,-0.1,1.0,0.0,354.0,908.0,0.0,0,3478.0,1
668,668,-0.5716323514471842,-0.6,0.0,1.0,251.0,670.0,1.0,0,299.0,1
669,669,-0.884336635711542,-0.9,0.0,1.0,412.0,749.0,1.0,0,209.0,1
670,670,-0.6556881943723611,-0.7,0.0,1.0,450.0,747.0,1.0,0,373.0,1
671,671,-0.7374182519147383,-0.7,0.0,1.0,478.0,639.0,1.0,0,223.0,1
672,672,-0.6855317679084371,-0.7,0.0,1.0,484.0,836.0,1.0,0,390.0,1
673,673,-0.15104711994159215,-0.2,1.0,0.0,474.0,883.0,0.0,0,553.0,1
674,674,-0.8625324110975567,-0.9,0.0,1.0,400.0,795.0,1.0,0,205.0,1
675,675,0.22754139738361678,0.2,1.0,1.0,495.0,822.0,1.0,1,3683.0,1
676,676,0.36782043322796254,0.4,0.0,0.0,309.0,790.0,0.0,1,841.0,1
677,677,0.5997659381994246,0.6,0.0,0.0,340.0,687.0,0.0,1,123.0,1
678,678,-0.3217485858166915,-0.3,1.0,0.0,308.0,579.0,0.0,0,623.0,1
679,679,-0.22566137366907746,-0.2,0.0,1.0,377.0,711.0,1.0,0,3152.0,1
680,680,-0.26193749753647855,-0.3,1.0,0.0,477.0,827.0,0.0,0,196.0,1
681,681,-0.41924687176440584,-0.4,1.0,0.0,411.0,775.0,0.0,0,434.0,1
682,682,0.17342102145318716,0.2,1.0,1.0,434.0,521.0,1.0,1,1805.0,1
683,683,0.14033740474749756,0.1,1.0,1.0,396.0,883.0,1.0,1,3721.0,1
684,684,0.3835762947856919,0.4,1.0,1.0,315.0,813.0,1.0,1,2002.0,1
685,685,-0.05460337170000895,-0.1,0.0,1.0,327.0,840.0,1.0,0,3833.0,1
686,686,0.06239823047787674,0.1,0.0,0.0,469.0,903.0,0.0,1,3628.0,1
687,687,0.7351150962326894,0.7,1.0,1.0,462.0,960.0,1.0,1,228.0,1
688,688,0.4924330776073965,0.5,0.0,0.0,400.0,532.0,0.0,1,568.0,1
689,689,0.39794684875196984,0.4,0.0,0.0,361.0,864.0,0.0,1,565.0,1
690,690,-0.04711463879870759,-0.0,0.0,1.0,463.0,872.0,0.0,1,3665.0,0
691,691,-0.6764623139561828,-0.7,1.0,0.0,346.0,602.0,0.0,0,312.0,1
692,692,-0.5329421651628388,-0.5,0.0,1.0,338.0,980.0,1.0,0,562.0,1
693,693,-0.5778113487606026,-0.6,0.0,1.0,461.0,500.0,1.0,0,409.0,1
694,694,0.635270883280379,0.6,0.0,0.0,468.0,694.0,0.0,1,198.0,1
695,695,0.014555757209449571,0.0,1.0,1.0,295.0,934.0,0.0,0,1321.0,0
696,696,-0.11685077531439203,-0.1,0.0,1.0,371.0,982.0,0.0,1,2227.0,0
697,697,-0.2512742074638945,-0.3,1.0,0.0,418.0,603.0,0.0,0,609.0,1
698,698,0.7038936080797206,0.7,0.0,0.0,452.0,942.0,0.0,1,-24.0,1
699,699,0.8294246761573042,0.8,1.0,1.0,471.0,981.0,1.0,1,108.0,1
700,700,-0.38120154376965687,-0.4,0.0,1.0,380.0,622.0,1.0,0,608.0,1
701,701,-0.5150617359941736,-0.5,0.0,1.0,420.0,780.0,1.0,0,680.0,1
702,702,0.040914726220266595,0.0,0.0,0.0,344.0,694.0,0.0,1,352.0,1
703,703,-0.5198450261352452,-0.5,1.0,0.0,362.0,578.0,0.0,0,200.0,1
704,704,0.23164409487143922,0.2,1.0,1.0,285.0,952.0,1.0,1,2893.0,1
705,705,-0.48709338395791885,-0.5,1.0,0.0,377.0,802.0,0.0,0,301.0,1
706,706,0.6373781839175082,0.6,0.0,0.0,404.0,519.0,0.0,1,1147.0,1
707,707,-0.49017395277108583,-0.5,1.0,0.0,400.0,854.0,0.0,0,536.0,1
708,708,0.2890099233140725,0.3,1.0,1.0,494.0,722.0,1.0,1,1834.0,1
709,709,0.545064380340016,0.5,1.0,1.0,421.0,776.0,1.0,1,853.0,1
710,710,0.4820416781535647,0.5,1.0,1.0,423.0,593.0,1.0,1,544.0,1
711,711,-0.543055309363903,-0.5,1.0,0.0,498.0,899.0,0.0,0,93.0,1
712,712,-0.1872700821020935,-0.2,0.0,1.0,434.0,611.0,1.0,0,1495.0,1
713,713,-0.4528599041426503,-0.5,1.0,0.0,497.0,569.0,0.0,0,434.0,1
714,714,0.022967500443447864,0.0,0.0,0.0,392.0,624.0,0.0,1,2364.0,1
715,715,0.08330149392552799,0.1,0.0,0.0,340.0,681.0,0.0,1,1139.0,1
716,716,-0.4706805149684207,-0.5,1.0,0.0,362.0,644.0,0.0,0,504.0,1
717,717,0.30097254069066326,0.3,0.0,0.0,423.0,545.0,0.0,1,152.0,1
718,718,0.11250896961856383,0.1,1.0,1.0,396.0,955.0,0.0,0,29.0,0
719,719,0.10330208782786665,0.1,0.0,0.0,267.0,837.0,0.0,1,616.0,1
720,720,-0.049705163698284816,-0.0,0.0,1.0,292.0,938.0,0.0,1,2100.0,0
721,721,0.49414613237549687,0.5,0.0,0.0,317.0,803.0,0.0,1,300.0,1
722,722,-0.29094957116697007,-0.3,1.0,0.0,450.0,953.0,0.0,0,257.0,1
723,723,-0.7369420533235439,-0.7,1.0,0.0,260.0,642.0,0.0,0,178.0,1
724,724,0.510816633090822,0.5,0.0,0.0,273.0,630.0,0.0,1,257.0,1
725,725,0.3807866205149103,0.4,0.0,0.0,451.0,742.0,0.0,1,727.0,1
726,726,-0.6351652115951856,-0.6,1.0,0.0,386.0,553.0,0.0,0,-199.0,1
727,727,-0.48953688376106397,-0.5,1.0,0.0,393.0,505.0,0.0,0,222.0,1
728,728,0.8158342135279505,0.8,0.0,0.0,285.0,570.0,0.0,1,245.0,1
729,729,-0.3013141949407738,-0.3,1.0,0.0,321.0,995.0,0.0,0,474.0,1
730,730,0.04928488948733556,0.0,0.0,0.0,289.0,853.0,0.0,1,1448.0,1
731,731,-0.3624250210788109,-0.4,0.0,1.0,484.0,849.0,1.0,0,187.0,1
732,732,0.3842324490283061,0.4,1.0,1.0,308.0,926.0,1.0,1,3766.0,1
733,733,-0.5763377716428831,-0.6,0.0,1.0,336.0,891.0,1.0,0,513.0,1
734,734,-0.0009963127901696511,-0.0,0.0,1.0,422.0,900.0,0.0,1,2408.0,0
735,735,0.0948626815950614,0.1,0.0,0.0,393.0,640.0,0.0,1,1257.0,1
736,736,0.23246830006847408,0.2,1.0,1.0,319.0,682.0,1.0,1,2549.0,1
737,737,-0.20291718833810313,-0.2,1.0,0.0,395.0,516.0,0.0,0,729.0,1
738,738,-0.6608051794329046,-0.7,1.0,0.0,350.0,549.0,0.0,0,191.0,1
739,739,0.6782638387613146,0.7,0.0,0.0,390.0,568.0,0.0,1,232.0,1
740,740,0.024636236586618843,0.0,1.0,1.0,427.0,851.0,0.0,0,-468.0,0
741,741,0.8519261667582699,0.9,1.0,1.0,470.0,921.0,1.0,1,919.0,1
742,742,0.6734997299490776,0.7,1.0,1.0,394.0,606.0,1.0,1,530.0,1
743,743,0.7820906978949412,0.8,1.0,1.0,345.0,545.0,1.0,1,510.0,1
744,744,0.023928375495198217,0.0,1.0,1.0,497.0,960.0,0.0,0,1383.0,0
745,745,-0.0006712018201135983,-0.0,1.0,0.0,328.0,877.0,0.0,0,1045.0,1
746,746,-0.7242047856644084,-0.7,1.0,0.0,377.0,717.0,0.0,0,256.0,1
747,747,-0.5217290040948039,-0.5,1.0,0.0,392.0,749.0,0.0,0,519.0,1
748,748,-0.12757653047149498,-0.1,0.0,1.0,462.0,625.0,1.0,0,3913.0,1
749,749,-0.6545707935588541,-0.7,0.0,1.0,497.0,777.0,1.0,0,476.0,1
750,750,0.4933845172925305,0.5,0.0,0.0,439.0,842.0,0.0,1,199.0,1
751,751,-0.266494732556101,-0.3,0.0,1.0,272.0,648.0,1.0,0,3380.0,1
752,752,0.24638165144971513,0.2,0.0,0.0,484.0,735.0,0.0,1,1641.0,1
753,753,-0.6551183207892081,-0.7,1.0,0.0,459.0,552.0,0.0,0,489.0,1
754,754,0.4540410093386461,0.5,1.0,1.0,456.0,690.0,1.0,1,444.0,1
755,755,0.6642168720437479,0.7,1.0,1.0,327.0,777.0,1.0,1,846.0,1
756,756,-0.6169435721371765,-0.6,0.0,1.0,471.0,858.0,1.0,0,141.0,1
757,757,0.896413791686724,0.9,1.0,1.0,454.0,815.0,1.0,1,211.0,1
758,758,-0.45871880085016437,-0.5,1.0,0.0,266.0,918.0,0.0,0,356.0,1
759,759,0.8730548690767334,0.9,0.0,0.0,324.0,933.0,0.0,1,233.0,1
760,760,0.00993007590478634,0.0,0.0,0.0,450.0,914.0,1.0,0,3636.0,0
761,761,-0.7853002765373298,-0.8,1.0,0.0,405.0,961.0,0.0,0,254.0,1
762,762,0.69870768082662,0.7,1.0,1.0,331.0,591.0,1.0,1,408.0,1
763,763,0.11667347715372334,0.1,0.0,0.0,350.0,929.0,0.0,1,751.0,1
764,764,-0.015701253276868665,-0.0,1.0,0.0,303.0,808.0,0.0,0,159.0,1
765,765,-0.18574664507043392,-0.2,1.0,0.0,289.0,760.0,0.0,0,881.0,1
766,766,0.8708750031217977,0.9,1.0,1.0,370.0,678.0,1.0,1,182.0,1
767,767,-0.02355363888560469,-0.0,0.0,1.0,363.0,842.0,0.0,1,3795.0,0
768,768,-0.6422529348447048,-0.6,1.0,0.0,428.0,526.0,0.0,0,276.0,1
769,769,-0.7479317790990798,-0.7,1.0,0.0,354.0,502.0,0.0,0,-116.0,1
770,770,-0.3345823375521251,-0.3,1.0,0.0,367.0,600.0,0.0,0,-187.0,1
771,771,-0.44516488083026984,-0.4,0.0,1.0,378.0,647.0,1.0,0,655.0,1
772,772,-0.8361401756161307,-0.8,1.0,0.0,465.0,508.0,0.0,0,237.0,1
773,773,-0.3326491503771022,-0.3,1.0,0.0,388.0,798.0,0.0,0,334.0,1
774,774,-0.09451246352738552,-0.1,0.0,1.0,478.0,527.0,0.0,1,1435.0,0
775,775,-0.049669874662502056,-0.0,0.0,1.0,343.0,647.0,0.0,1,80.0,0
776,776,0.5725424082428908,0.6,0.0,0.0,367.0,644.0,0.0,1,909.0,1
777,777,-0.31086623959910653,-0.3,1.0,0.0,404.0,678.0,0.0,0,68.0,1
778,778,0.8931692632758531,0.9,1.0,1.0,450.0,770.0,1.0,1,490.0,1
779,779,0.876699319127069,0.9,0.0,0.0,415.0,753.0,0.0,1,152.0,1
780,780,0.6522818636221824,0.7,0.0,0.0,431.0,792.0,0.0,1,757.0,1
781,781,-0.3573420925528633,-0.4,1.0,0.0,445.0,731.0,0.0,0,214.0,1
782,782,-0.2947370997678782,-0.3,1.0,0.0,365.0,813.0,0.0,0,372.0,1
783,783,-0.39113015865783074,-0.4,0.0,1.0,418.0,575.0,1.0,0,807.0,1
784,784,-0.8172879283284347,-0.8,0.0,1.0,251.0,964.0,1.0,0,275.0,1
785,785,-0.5193757139478213,-0.5,0.0,1.0,382.0,705.0,1.0,0,233.0,1
786,786,-0.568178401033515,-0.6,0.0,1.0,495.0,916.0,0.0,1,-151.0,0
787,787,-0.7071244083471225,-0.7,0.0,1.0,435.0,621.0,1.0,0,144.0,1
788,788,-0.044710534452249595,-0.0,1.0,0.0,337.0,840.0,0.0,0,373.0,1
789,789,-0.42206550929122305,-0.4,1.0,0.0,284.0,868.0,0.0,0,808.0,1
790,790,-0.5588988675222546,-0.6,0.0,1.0,312.0,596.0,1.0,0,422.0,1
791,791,0.5685497134991574,0.6,0.0,0.0,255.0,909.0,0.0,1,346.0,1
792,792,0.598081782349365,0.6,0.0,0.0,337.0,985.0,0.0,1,768.0,1
793,793,0.5612211807236219,0.6,0.0,0.0,266.0,634.0,0.0,1,450.0,1
794,794,0.6843747029419144,0.7,1.0,1.0,251.0,535.0,0.0,0,-6.0,0
795,795,-0.2390790442846089,-0.2,1.0,0.0,461.0,761.0,0.0,0,328.0,1
796,796,0.17666223319166596,0.2,1.0,1.0,351.0,964.0,0.0,0,-375.0,0
797,797,-0.5944436590343889,-0.6,1.0,0.0,326.0,590.0,0.0,0,384.0,1
798,798,-0.3808210516774819,-0.4,0.0,1.0,350.0,933.0,1.0,0,1267.0,1
799,799,0.11093161504258264,0.1,0.0,0.0,336.0,978.0,0.0,1,2506.0,1
800,800,-0.459644823786294,-0.5,1.0,0.0,355.0,887.0,0.0,0,238.0,1
801,801,0.795503079184242,0.8,1.0,1.0,300.0,663.0,1.0,1,547.0,1
802,802,0.40998906918723266,0.4,0.0,0.0,294.0,777.0,0.0,1,449.0,1
803,803,-0.7375430384868398,-0.7,0.0,1.0,287.0,710.0,1.0,0,533.0,1
804,804,0.4566181128206618,0.5,0.0,0.0,457.0,622.0,0.0,1,751.0,1
805,805,0.3583991360084414,0.4,1.0,1.0,470.0,932.0,1.0,1,1588.0,1
806,806,0.8367341679128532,0.8,0.0,0.0,450.0,542.0,0.0,1,138.0,1
807,807,-0.81444671936003,-0.8,0.0,1.0,334.0,912.0,1.0,0,454.0,1
808,808,-0.603059199199504,-0.6,1.0,0.0,494.0,612.0,0.0,0,214.0,1
809,809,0.8318159218095159,0.8,0.0,0.0,283.0,698.0,0.0,1,329.0,1
810,810,-0.7268686200978871,-0.7,1.0,0.0,364.0,533.0,0.0,0,143.0,1
811,811,0.35749314398236287,0.4,1.0,1.0,410.0,616.0,1.0,1,1634.0,1
812,812,0.011895985238257745,0.0,0.0,0.0,362.0,625.0,0.0,1,1943.0,1
813,813,0.8693556203405929,0.9,0.0,0.0,291.0,752.0,0.0,1,167.0,1
814,814,-0.6297713163370153,-0.6,1.0,0.0,447.0,877.0,0.0,0,366.0,1
815,815,0.1567541232798294,0.2,0.0,0.0,258.0,543.0,0.0,1,579.0,1
816,816,0.019325513391428073,0.0,0.0,0.0,483.0,562.0,0.0,1,2245.0,1
817,817,0.8009011797158091,0.8,0.0,0.0,345.0,945.0,0.0,1,420.0,1
818,818,0.0756924270686945,0.1,1.0,1.0,286.0,845.0,0.0,0,2279.0,0
819,819,-0.09211997665859539,-0.1,0.0,1.0,304.0,691.0,1.0,0,2485.0,1
820,820,-0.596692690800228,-0.6,1.0,0.0,266.0,534.0,0.0,0,320.0,1
821,821,0.3591960645651634,0.4,1.0,1.0,433.0,827.0,0.0,0,-160.0,0
822,822,-0.11283685520331321,-0.1,0.0,1.0,297.0,661.0,1.0,0,4042.0,1
823,823,0.5054206452278446,0.5,0.0,0.0,386.0,982.0,0.0,1,952.0,1
824,824,-0.596188246162102,-0.6,1.0,0.0,417.0,758.0,0.0,0,245.0,1
825,825,-0.8754154608857299,-0.9,0.0,1.0,280.0,538.0,1.0,0,202.0,1
826,826,0.03740654911399777,0.0,1.0,1.0,304.0,704.0,0.0,0,3212.0,0
827,827,-0.5224208357526681,-0.5,1.0,0.0,396.0,934.0,0.0,0,150.0,1
828,828,0.2470324602894839,0.2,0.0,0.0,339.0,929.0,0.0,1,1472.0,1
829,829,0.4607171911401372,0.5,0.0,0.0,423.0,675.0,0.0,1,372.0,1
830,830,-0.19677638898767003,-0.2,0.0,1.0,280.0,940.0,1.0,0,460.0,1
831,831,0.622291477789433,0.6,0.0,0.0,391.0,528.0,0.0,1,181.0,1
832,832,0.7917520264307231,0.8,0.0,0.0,360.0,664.0,0.0,1,406.0,1
833,833,0.8896945025634558,0.9,0.0,0.0,277.0,652.0,0.0,1,441.0,1
834,834,-0.08332034490925022,-0.1,1.0,0.0,420.0,945.0,0.0,0,405.0,1
835,835,-0.6254569676064572,-0.6,1.0,0.0,442.0,561.0,0.0,0,177.0,1
836,836,-0.728108647991625,-0.7,1.0,0.0,349.0,995.0,0.0,0,356.0,1
837,837,-0.40104719527050303,-0.4,0.0,1.0,378.0,952.0,1.0,0,480.0,1
838,838,-0.5638569581251878,-0.6,1.0,0.0,476.0,811.0,0.0,0,543.0,1
839,839,-0.06180434885286701,-0.1,0.0,1.0,262.0,918.0,0.0,1,3820.0,0
840,840,0.6747154749514465,0.7,0.0,0.0,416.0,811.0,0.0,1,63.0,1
841,841,0.10050528507913514,0.1,1.0,1.0,310.0,655.0,0.0,0,1915.0,0
842,842,0.1609912576315201,0.2,1.0,1.0,446.0,681.0,1.0,1,3873.0,1
843,843,-0.14102729057985997,-0.1,1.0,0.0,459.0,596.0,0.0,0,695.0,1
844,844,-0.5795807409259319,-0.6,1.0,0.0,342.0,567.0,0.0,0,191.0,1
845,845,-0.7880459234010042,-0.8,0.0,1.0,397.0,878.0,1.0,0,385.0,1
846,846,0.5804098767775808,0.6,0.0,0.0,335.0,557.0,0.0,1,438.0,1
847,847,0.8771214052529278,0.9,1.0,1.0,400.0,888.0,1.0,1,412.0,1
848,848,-0.4033169733525335,-0.4,0.0,1.0,483.0,897.0,1.0,0,260.0,1
849,849,0.35373012260834347,0.4,0.0,0.0,255.0,614.0,0.0,1,571.0,1
850,850,0.7137578263894807,0.7,1.0,1.0,499.0,865.0,1.0,1,526.0,1
851,851,-0.7402500829007441,-0.7,0.0,1.0,466.0,867.0,0.0,1,-83.0,0
852,852,-0.3746111746280234,-0.4,0.0,1.0,297.0,911.0,0.0,1,-168.0,0
853,853,-0.6845072251112726,-0.7,1.0,0.0,367.0,878.0,0.0,0,765.0,1
854,854,0.16582777247546987,0.2,0.0,0.0,270.0,892.0,0.0,1,598.0,1
855,855,-0.10467833031230867,-0.1,1.0,0.0,412.0,731.0,0.0,0,347.0,1
856,856,-0.51622190948966,-0.5,0.0,1.0,440.0,988.0,1.0,0,292.0,1
857,857,0.3886771902289018,0.4,0.0,0.0,298.0,636.0,0.0,1,246.0,1
858,858,-0.7129510417978492,-0.7,0.0,1.0,458.0,621.0,1.0,0,311.0,1
859,859,-0.7341096360722404,-0.7,1.0,0.0,398.0,679.0,0.0,0,213.0,1
860,860,0.7576901864978983,0.8,1.0,1.0,264.0,571.0,1.0,1,505.0,1
861,861,-0.068748447197021,-0.1,1.0,0.0,491.0,661.0,0.0,0,748.0,1
862,862,-0.12076193540791014,-0.1,1.0,0.0,428.0,576.0,0.0,0,646.0,1
863,863,-0.7980898717499598,-0.8,1.0,0.0,313.0,759.0,0.0,0,-222.0,1
864,864,0.8791583980141505,0.9,1.0,1.0,363.0,765.0,0.0,0,32.0,0
865,865,0.7698573144623629,0.8,0.0,0.0,394.0,766.0,0.0,1,690.0,1
866,866,0.42493441604122084,0.4,0.0,0.0,394.0,563.0,0.0,1,393.0,1
867,867,-0.34582925721661983,-0.3,1.0,0.0,275.0,581.0,0.0,0,784.0,1
868,868,-0.45492794134506603,-0.5,0.0,1.0,448.0,523.0,1.0,0,829.0,1
869,869,-0.7107916553701796,-0.7,0.0,1.0,463.0,552.0,1.0,0,585.0,1
870,870,0.4922638170904897,0.5,0.0,0.0,487.0,707.0,0.0,1,1156.0,1
871,871,0.43027390440363045,0.4,0.0,0.0,381.0,577.0,0.0,1,252.0,1
872,872,0.16784667816238652,0.2,1.0,1.0,401.0,872.0,0.0,0,-23.0,0
873,873,0.5423954175796167,0.5,0.0,0.0,354.0,981.0,0.0,1,265.0,1
874,874,-0.6446907106495827,-0.6,0.0,1.0,283.0,844.0,1.0,0,503.0,1
875,875,-0.4255020470708604,-0.4,1.0,0.0,336.0,729.0,0.0,0,25.0,1
876,876,-0.22698795514114578,-0.2,1.0,0.0,399.0,504.0,0.0,0,137.0,1
877,877,0.06646500388158427,0.1,1.0,1.0,393.0,967.0,0.0,0,2300.0,0
878,878,-0.8259595234690285,-0.8,1.0,0.0,457.0,697.0,0.0,0,506.0,1
879,879,0.28873228649351257,0.3,1.0,1.0,423.0,680.0,1.0,1,737.0,1
880,880,0.044334088636426516,0.0,1.0,1.0,305.0,797.0,0.0,0,2838.0,0
881,881,0.7559857526482231,0.8,0.0,0.0,312.0,743.0,0.0,1,185.0,1
882,882,0.552740457153779,0.6,1.0,1.0,369.0,811.0,1.0,1,510.0,1
883,883,0.8620954562581912,0.9,0.0,0.0,402.0,520.0,0.0,1,1258.0,1
884,884,0.11585087179031561,0.1,1.0,1.0,319.0,941.0,0.0,0,3740.0,0
885,885,-0.7657869965682171,-0.8,1.0,0.0,321.0,619.0,0.0,0,400.0,1
886,886,-0.1043332291015926,-0.1,1.0,0.0,434.0,514.0,0.0,0,872.0,1
887,887,0.5917401683092541,0.6,1.0,1.0,290.0,925.0,1.0,1,755.0,1
888,888,0.5007097865982496,0.5,0.0,0.0,376.0,844.0,0.0,1,1160.0,1
889,889,-0.7462977764336167,-0.7,1.0,0.0,337.0,584.0,0.0,0,439.0,1
890,890,-0.8557725920867107,-0.9,1.0,0.0,417.0,672.0,0.0,0,191.0,1
891,891,-0.5282238476400185,-0.5,0.0,1.0,332.0,579.0,1.0,0,639.0,1
892,892,-0.47738870658567456,-0.5,0.0,1.0,413.0,640.0,1.0,0,627.0,1
893,893,-0.570757309395227,-0.6,0.0,1.0,283.0,597.0,1.0,0,470.0,1
894,894,0.43833321294407657,0.4,0.0,0.0,274.0,516.0,0.0,1,870.0,1
895,895,-0.8264646615098618,-0.8,0.0,1.0,494.0,670.0,1.0,0,346.0,1
896,896,-0.8523650283198052,-0.9,0.0,1.0,487.0,953.0,1.0,0,120.0,1
897,897,-0.8391500448139159,-0.8,0.0,1.0,321.0,983.0,1.0,0,186.0,1
898,898,0.69691404814743,0.7,1.0,1.0,265.0,986.0,1.0,1,569.0,1
899,899,-0.13609851165284725,-0.1,0.0,1.0,275.0,706.0,1.0,0,369.0,1
900,900,-0.5550892726599146,-0.6,1.0,0.0,420.0,522.0,0.0,0,268.0,1
901,901,0.3198261648507231,0.3,0.0,0.0,347.0,837.0,0.0,1,436.0,1
902,902,-0.6479135228142079,-0.6,1.0,0.0,286.0,532.0,0.0,0,232.0,1
903,903,-0.6952304683484217,-0.7,0.0,1.0,317.0,792.0,1.0,0,221.0,1
904,904,-0.5883066426770671,-0.6,0.0,1.0,464.0,680.0,1.0,0,416.0,1
905,905,-0.07616244666225835,-0.1,0.0,1.0,385.0,511.0,0.0,1,4104.0,0
906,906,-0.01813455947031062,-0.0,0.0,1.0,426.0,837.0,0.0,1,2177.0,0
907,907,0.7055257504209135,0.7,0.0,0.0,365.0,879.0,0.0,1,436.0,1
908,908,0.5759497677364195,0.6,1.0,1.0,420.0,569.0,1.0,1,891.0,1
909,909,-0.7201659331266644,-0.7,1.0,0.0,320.0,718.0,0.0,0,432.0,1
910,910,-0.8172192991755313,-0.8,1.0,0.0,276.0,866.0,0.0,0,-382.0,1
911,911,-0.5739050122896783,-0.6,1.0,0.0,282.0,655.0,0.0,0,283.0,1
912,912,-0.534720771747706,-0.5,1.0,0.0,268.0,510.0,0.0,0,752.0,1
913,913,0.14870607941238967,0.1,0.0,0.0,438.0,806.0,0.0,1,796.0,1
914,914,-0.5397641868830232,-0.5,1.0,0.0,348.0,611.0,0.0,0,311.0,1
915,915,-0.3196341923708107,-0.3,0.0,1.0,385.0,577.0,1.0,0,-72.0,1
916,916,0.5120052647389638,0.5,0.0,0.0,349.0,718.0,0.0,1,543.0,1
917,917,-0.8091821940368132,-0.8,0.0,1.0,409.0,547.0,1.0,0,424.0,1
918,918,-0.11776776861852878,-0.1,0.0,1.0,302.0,626.0,0.0,1,4072.0,0
919,919,0.7745637387083316,0.8,1.0,1.0,447.0,549.0,1.0,1,774.0,1
920,920,-0.21255935222585753,-0.2,1.0,0.0,415.0,734.0,0.0,0,911.0,1
921,921,-0.8960154013817583,-0.9,1.0,0.0,475.0,621.0,0.0,0,154.0,1
922,922,0.6607947111275855,0.7,1.0,1.0,447.0,747.0,1.0,1,686.0,1
923,923,-0.8756662092666563,-0.9,1.0,0.0,274.0,900.0,0.0,0,136.0,1
924,924,0.09170410164656206,0.1,0.0,0.0,260.0,775.0,0.0,1,725.0,1
925,925,0.8408238907052848,0.8,0.0,0.0,434.0,522.0,0.0,1,104.0,1
926,926,-0.5332762454304971,-0.5,0.0,1.0,385.0,805.0,1.0,0,500.0,1
927,927,-0.5546771108435102,-0.6,0.0,1.0,307.0,573.0,1.0,0,510.0,1
928,928,0.4253038963602408,0.4,0.0,0.0,400.0,902.0,0.0,1,998.0,1
929,929,-0.008470543754771964,-0.0,1.0,0.0,370.0,749.0,0.0,0,3501.0,1
930,930,0.06014286506356348,0.1,0.0,0.0,329.0,633.0,0.0,1,4038.0,1
931,931,-0.07009206178718752,-0.1,1.0,0.0,257.0,525.0,0.0,0,378.0,1
932,932,-0.3575986511059469,-0.4,1.0,0.0,388.0,787.0,0.0,0,-115.0,1
933,933,-0.8930409274280992,-0.9,0.0,1.0,372.0,872.0,1.0,0,286.0,1
934,934,-0.36128711909446265,-0.4,0.0,1.0,434.0,632.0,1.0,0,614.0,1
935,935,0.36632526408651167,0.4,1.0,1.0,261.0,728.0,1.0,1,1181.0,1
936,936,0.1636443981569805,0.2,1.0,1.0,358.0,701.0,0.0,0,3941.0,0
937,937,-0.5167465507716895,-0.5,1.0,0.0,366.0,629.0,0.0,0,55.0,1
938,938,0.3244670882615722,0.3,0.0,0.0,308.0,524.0,0.0,1,828.0,1
939,939,0.39058049579103205,0.4,1.0,1.0,497.0,651.0,1.0,1,2192.0,1
940,940,-0.6845967025245843,-0.7,0.0,1.0,287.0,504.0,1.0,0,649.0,1
941,941,-0.46997320088957956,-0.5,0.0,1.0,421.0,892.0,0.0,1,-513.0,0
942,942,-0.3318533346813538,-0.3,1.0,0.0,345.0,779.0,0.0,0,426.0,1
943,943,0.5782874544327979,0.6,1.0,1.0,478.0,798.0,1.0,1,684.0,1
944,944,0.18918345043823137,0.2,0.0,0.0,354.0,964.0,0.0,1,222.0,1
945,945,0.003658396081303583,0.0,1.0,1.0,477.0,994.0,0.0,0,589.0,0
946,946,-0.40998437884041466,-0.4,0.0,1.0,480.0,857.0,1.0,0,603.0,1
947,947,-0.673894334404085,-0.7,1.0,0.0,372.0,891.0,0.0,0,177.0,1
948,948,0.7353127918131989,0.7,0.0,0.0,467.0,533.0,0.0,1,600.0,1
949,949,0.13482677768336127,0.1,0.0,0.0,337.0,809.0,0.0,1,1254.0,1
950,950,-0.46191094236932567,-0.5,1.0,0.0,316.0,837.0,0.0,0,267.0,1
951,951,-0.1752745945624501,-0.2,1.0,0.0,466.0,971.0,0.0,0,313.0,1
952,952,-0.8857082028227948,-0.9,0.0,1.0,323.0,677.0,1.0,0,330.0,1
953,953,-0.8446966441368127,-0.8,1.0,0.0,294.0,877.0,0.0,0,199.0,1
954,954,0.0477235733327801,0.0,0.0,0.0,266.0,944.0,0.0,1,2160.0,1
955,955,-0.890116721107758,-0.9,1.0,0.0,296.0,972.0,0.0,0,152.0,1
956,956,-0.5993934763950657,-0.6,1.0,0.0,433.0,784.0,0.0,0,303.0,1
957,957,0.8148931660617532,0.8,0.0,0.0,316.0,876.0,0.0,1,248.0,1
958,958,0.7632594096433988,0.8,0.0,0.0,323.0,501.0,0.0,1,606.0,1
959,959,-0.24594599073483014,-0.2,1.0,0.0,486.0,655.0,0.0,0,309.0,1
960,960,-0.10943345004573457,-0.1,0.0,1.0,258.0,532.0,1.0,0,4210.0,1
961,961,0.38359476371576917,0.4,0.0,0.0,294.0,607.0,0.0,1,469.0,1
962,962,0.22520634944068296,0.2,1.0,1.0,354.0,726.0,1.0,1,3920.0,1
963,963,0.15423591986964247,0.2,0.0,0.0,355.0,563.0,0.0,1,72.0,1
964,964,-0.6148773004704068,-0.6,1.0,0.0,353.0,625.0,0.0,0,172.0,1
965,965,0.09872809518416925,0.1,1.0,1.0,438.0,729.0,0.0,0,53.0,0
966,966,0.575891112636245,0.6,1.0,1.0,430.0,585.0,1.0,1,345.0,1
967,967,0.7094094959992988,0.7,0.0,0.0,490.0,922.0,0.0,1,-322.0,1
968,968,0.7308211145316187,0.7,0.0,0.0,315.0,886.0,0.0,1,379.0,1
969,969,0.4978436236934819,0.5,0.0,0.0,438.0,702.0,0.0,1,480.0,1
970,970,0.5610020620551078,0.6,1.0,1.0,493.0,762.0,1.0,1,1005.0,1
971,971,-0.10649441913926427,-0.1,0.0,1.0,256.0,779.0,1.0,0,3835.0,1
972,972,0.5976715430802867,0.6,1.0,1.0,359.0,794.0,1.0,1,287.0,1
973,973,-0.731643569181251,-0.7,0.0,1.0,384.0,717.0,1.0,0,409.0,1
974,974,-0.14182582469238625,-0.1,1.0,0.0,323.0,708.0,0.0,0,209.0,1
975,975,-0.503201611660274,-0.5,0.0,1.0,318.0,576.0,1.0,0,266.0,1
976,976,0.3533725295279312,0.4,0.0,0.0,419.0,717.0,0.0,1,254.0,1
977,977,-0.8966263680635793,-0.9,1.0,0.0,385.0,681.0,0.0,0,44.0,1
978,978,-0.8388746342901696,-0.8,0.0,1.0,427.0,520.0,1.0,0,173.0,1
979,979,-0.6467519014127329,-0.6,0.0,1.0,282.0,805.0,1.0,0,133.0,1
980,980,0.15242337452775645,0.2,0.0,0.0,483.0,849.0,0.0,1,958.0,1
981,981,-0.376888568416362,-0.4,1.0,0.0,387.0,799.0,0.0,0,384.0,1
982,982,0.2669841102607783,0.3,0.0,0.0,438.0,530.0,0.0,1,902.0,1
983,983,0.1585837321323832,0.2,0.0,0.0,371.0,599.0,0.0,1,990.0,1
984,984,0.25687503569859016,0.3,1.0,1.0,453.0,511.0,1.0,1,3406.0,1
985,985,-0.3506005835280903,-0.4,0.0,1.0,311.0,603.0,1.0,0,786.0,1
986,986,0.3829647150467018,0.4,1.0,1.0,342.0,891.0,1.0,1,1737.0,1
987,987,-0.6847303239492826,-0.7,0.0,1.0,330.0,955.0,1.0,0,385.0,1
988,988,0.6246643274375069,0.6,0.0,0.0,471.0,748.0,0.0,1,451.0,1
989,989,-0.018156225055246722,-0.0,1.0,0.0,351.0,588.0,0.0,0,2451.0,1
990,990,0.6709494195469282,0.7,1.0,1.0,256.0,809.0,1.0,1,495.0,1
991,991,-0.3236495203568972,-0.3,0.0,1.0,328.0,716.0,1.0,0,1056.0,1
992,992,0.0013245311911529445,0.0,0.0,0.0,333.0,886.0,0.0,1,3781.0,1
993,993,0.22857778920509586,0.2,1.0,1.0,343.0,936.0,1.0,1,1961.0,1
994,994,-0.35448627610547945,-0.4,0.0,1.0,458.0,856.0,1.0,0,456.0,1
995,995,0.7819397804623262,0.8,0.0,0.0,285.0,615.0,0.0,1,590.0,1
996,996,-0.48565922653635407,-0.5,0.0,1.0,430.0,886.0,1.0,0,954.0,1
997,997,0.12263965417134493,0.1,1.0,1.0,418.0,996.0,0.0,0,706.0,0
998,998,0.859687979405204,0.9,1.0,1.0,315.0,908.0,1.0,1,247.0,1
999,999,-0.2645534366424943,-0.3,1.0,0.0,473.0,614.0,0.0,0,523.0,1
1000,1000,0.3666793640038898,0.4,1.0,1.0,297.0,964.0,1.0,1,1319.0,1
1001,1001,-0.10549699460762618,-0.1,1.0,0.0,466.0,814.0,0.0,0,520.0,1
1002,1002,-0.24998642433084628,-0.2,0.0,1.0,405.0,918.0,1.0,0,247.0,1
1003,1003,0.10657676540704963,0.1,0.0,0.0,288.0,820.0,0.0,1,622.0,1
1004,1004,0.1935520494913502,0.2,1.0,1.0,417.0,903.0,0.0,0,3680.0,0
1005,1005,-0.18515386990775073,-0.2,0.0,1.0,426.0,894.0,0.0,1,-140.0,0
1006,1006,0.44738421699649333,0.4,1.0,1.0,374.0,806.0,1.0,1,350.0,1
1007,1007,-0.10692053139400559,-0.1,1.0,0.0,483.0,695.0,0.0,0,722.0,1
1008,1008,-0.552209644067837,-0.6,0.0,1.0,251.0,954.0,0.0,1,-35.0,0
1009,1009,0.597923205734122,0.6,0.0,0.0,437.0,916.0,0.0,1,247.0,1
1010,1010,0.622740189523772,0.6,0.0,0.0,452.0,971.0,0.0,1,427.0,1
1011,1011,0.020323783394670336,0.0,1.0,1.0,381.0,678.0,0.0,0,-229.0,0
1012,1012,-0.29343289902238057,-0.3,1.0,0.0,411.0,861.0,0.0,0,368.0,1
1013,1013,0.8065027354604392,0.8,0.0,0.0,355.0,849.0,0.0,1,806.0,1
1014,1014,0.8770841885986732,0.9,1.0,1.0,252.0,521.0,0.0,0,-153.0,0
1015,1015,0.1295625687850247,0.1,0.0,0.0,475.0,887.0,0.0,1,388.0,1
1016,1016,0.34349619237577145,0.3,1.0,1.0,452.0,861.0,1.0,1,2437.0,1
1017,1017,0.17140809067890184,0.2,1.0,1.0,287.0,547.0,1.0,1,2126.0,1
1018,1018,-0.4890923688848522,-0.5,1.0,0.0,422.0,822.0,0.0,0,186.0,1
1019,1019,0.49642700300628306,0.5,0.0,0.0,317.0,732.0,0.0,1,511.0,1
1020,1020,-0.16856577141215612,-0.2,0.0,1.0,426.0,957.0,0.0,1,127.0,0
1021,1021,-0.4436478333056752,-0.4,0.0,1.0,287.0,838.0,1.0,0,715.0,1
1022,1022,-0.5970619334019245,-0.6,0.0,1.0,261.0,883.0,1.0,0,836.0,1
1023,1023,-0.09610448056989274,-0.1,0.0,1.0,314.0,654.0,1.0,0,1022.0,1
1024,1024,-0.5788410783321942,-0.6,0.0,1.0,447.0,675.0,1.0,0,588.0,1
1025,1025,0.4403808280248914,0.4,1.0,1.0,360.0,727.0,1.0,1,1393.0,1
1026,1026,-0.16135974557283383,-0.2,1.0,0.0,474.0,606.0,0.0,0,220.0,1
1027,1027,0.8911911680119614,0.9,1.0,1.0,277.0,871.0,1.0,1,1932.0,1
1028,1028,-0.27160090788640123,-0.3,1.0,0.0,310.0,827.0,0.0,0,413.0,1
1029,1029,-0.4891906458811907,-0.5,0.0,1.0,378.0,550.0,1.0,0,272.0,1
1030,1030,-0.6530311324553902,-0.7,0.0,1.0,339.0,954.0,1.0,0,277.0,1
1031,1031,0.7409187542265855,0.7,1.0,1.0,302.0,742.0,1.0,1,506.0,1
1032,1032,-0.25694152971582507,-0.3,0.0,1.0,268.0,735.0,1.0,0,1397.0,1
1033,1033,0.23419255646120385,0.2,1.0,1.0,348.0,816.0,0.0,0,736.0,0
1034,1034,0.6146071708129967,0.6,0.0,0.0,280.0,905.0,0.0,1,235.0,1
1035,1035,-0.18020362698937853,-0.2,1.0,0.0,388.0,982.0,0.0,0,-180.0,1
1036,1036,0.21526381729705124,0.2,0.0,0.0,456.0,557.0,0.0,1,897.0,1
1037,1037,-0.6210330341981755,-0.6,1.0,0.0,377.0,782.0,0.0,0,841.0,1
1038,1038,-0.014891470485377867,-0.0,1.0,0.0,345.0,570.0,0.0,0,2815.0,1
1039,1039,0.1755365653235691,0.2,0.0,0.0,343.0,910.0,0.0,1,27.0,1
1040,1040,0.25904730345924987,0.3,0.0,0.0,325.0,975.0,0.0,1,530.0,1
1041,1041,0.6131852163217947,0.6,1.0,1.0,431.0,529.0,1.0,1,1810.0,1
1042,1042,0.24254015741210544,0.2,0.0,0.0,453.0,845.0,0.0,1,1522.0,1
1043,1043,0.19208182508792182,0.2,0.0,0.0,367.0,999.0,0.0,1,1214.0,1
1044,1044,0.02104843269947765,0.0,0.0,0.0,484.0,832.0,0.0,1,574.0,1
1045,1045,-0.37234711961956457,-0.4,0.0,1.0,294.0,589.0,1.0,0,197.0,1
1046,1046,-0.3540950666738806,-0.4,1.0,0.0,388.0,860.0,0.0,0,372.0,1
1047,1047,0.14379497840233546,0.1,0.0,0.0,313.0,573.0,0.0,1,394.0,1
1048,1048,0.15905624768917492,0.2,0.0,0.0,361.0,538.0,0.0,1,611.0,1
1049,1049,0.022812252433920488,0.0,0.0,0.0,276.0,704.0,0.0,1,1450.0,1
1050,1050,0.8555475486066378,0.9,1.0,1.0,367.0,562.0,1.0,1,611.0,1
1051,1051,0.5951102793954534,0.6,0.0,0.0,318.0,962.0,0.0,1,-460.0,1
1052,1052,-0.8851564282846852,-0.9,0.0,1.0,496.0,793.0,1.0,0,231.0,1
1053,1053,-0.7747479826616946,-0.8,0.0,1.0,398.0,907.0,1.0,0,255.0,1
1054,1054,0.7560826136407327,0.8,0.0,0.0,393.0,852.0,0.0,1,305.0,1
1055,1055,-0.16395970776892022,-0.2,1.0,0.0,333.0,972.0,0.0,0,1135.0,1
1056,1056,0.089947695773957,0.1,1.0,1.0,285.0,754.0,0.0,0,351.0,0
1057,1057,0.6123210398496971,0.6,1.0,1.0,477.0,822.0,1.0,1,811.0,1
1058,1058,-0.5463084063887079,-0.5,0.0,1.0,319.0,530.0,1.0,0,211.0,1
1059,1059,-0.34494506151412996,-0.3,1.0,0.0,486.0,903.0,0.0,0,261.0,1
1060,1060,0.39685050622043316,0.4,1.0,1.0,484.0,829.0,1.0,1,1437.0,1
1061,1061,0.5501927425390757,0.6,1.0,1.0,360.0,939.0,1.0,1,561.0,1
1062,1062,-0.30181096983917133,-0.3,0.0,1.0,431.0,550.0,1.0,0,639.0,1
1063,1063,-0.7200890417464831,-0.7,1.0,0.0,334.0,510.0,0.0,0,196.0,1
1064,1064,-0.33871937125343454,-0.3,1.0,0.0,487.0,854.0,0.0,0,459.0,1
1065,1065,0.043472309905089435,0.0,1.0,1.0,411.0,868.0,0.0,0,1131.0,0
1066,1066,-0.1632641445561659,-0.2,0.0,1.0,399.0,575.0,1.0,0,1266.0,1
1067,1067,0.33538562378920334,0.3,0.0,0.0,409.0,964.0,0.0,1,297.0,1
1068,1068,0.602750615557082,0.6,1.0,1.0,435.0,755.0,1.0,1,340.0,1
1069,1069,-0.1738866230357713,-0.2,0.0,1.0,441.0,999.0,1.0,0,950.0,1
1070,1070,-0.32837984006292464,-0.3,1.0,0.0,338.0,847.0,0.0,0,145.0,1
1071,1071,-0.36241055162639424,-0.4,1.0,0.0,398.0,910.0,0.0,0,212.0,1
1072,1072,-0.8919922710292779,-0.9,0.0,1.0,340.0,680.0,1.0,0,290.0,1
1073,1073,-0.31935481891552586,-0.3,0.0,1.0,482.0,822.0,0.0,1,-134.0,0
1074,1074,-0.09058461183378497,-0.1,1.0,0.0,391.0,930.0,0.0,0,749.0,1
1075,1075,0.8827754283798924,0.9,0.0,0.0,255.0,735.0,0.0,1,300.0,1
1076,1076,0.3871683261615043,0.4,1.0,1.0,460.0,833.0,1.0,1,1637.0,1
1077,1077,0.6327521207377648,0.6,0.0,0.0,287.0,862.0,0.0,1,671.0,1
1078,1078,0.8706207047993731,0.9,1.0,1.0,391.0,726.0,1.0,1,483.0,1
1079,1079,-0.04508983707325653,-0.0,0.0,1.0,476.0,581.0,1.0,0,1793.0,1
1080,1080,-0.6164877582307677,-0.6,0.0,1.0,340.0,932.0,1.0,0,528.0,1
1081,1081,-0.3168905811844418,-0.3,1.0,0.0,353.0,678.0,0.0,0,219.0,1
1082,1082,0.6518648560433752,0.7,0.0,0.0,355.0,887.0,0.0,1,468.0,1
1083,1083,0.6108153554574599,0.6,1.0,1.0,453.0,901.0,0.0,0,-264.0,0
1084,1084,-0.026776279543284653,-0.0,0.0,1.0,487.0,648.0,0.0,1,1075.0,0
1085,1085,0.4277342958428144,0.4,1.0,1.0,470.0,902.0,1.0,1,1348.0,1
1086,1086,-0.16406197038551895,-0.2,1.0,0.0,347.0,561.0,0.0,0,632.0,1
1087,1087,0.06495319771496366,0.1,0.0,0.0,484.0,694.0,1.0,0,3822.0,0
1088,1088,-0.3486690238682624,-0.3,1.0,0.0,289.0,798.0,0.0,0,213.0,1
1089,1089,-0.667303291080448,-0.7,0.0,1.0,334.0,885.0,0.0,1,-279.0,0
1090,1090,-0.7893916349978065,-0.8,1.0,0.0,404.0,527.0,0.0,0,249.0,1
1091,1091,-0.7974368589143238,-0.8,1.0,0.0,421.0,969.0,0.0,0,190.0,1
1092,1092,0.0763904216094764,0.1,0.0,0.0,429.0,731.0,0.0,1,1070.0,1
1093,1093,0.0730859799129594,0.1,1.0,1.0,335.0,679.0,0.0,0,3986.0,0
1094,1094,0.7784617275753517,0.8,1.0,1.0,443.0,591.0,1.0,1,506.0,1
1095,1095,0.8978848847789805,0.9,0.0,0.0,323.0,842.0,0.0,1,685.0,1
1096,1096,0.09319483040465049,0.1,1.0,1.0,377.0,645.0,0.0,0,588.0,0
1097,1097,-0.6138228682251405,-0.6,0.0,1.0,444.0,575.0,1.0,0,291.0,1
1098,1098,-0.24497039487794448,-0.2,0.0,1.0,321.0,816.0,1.0,0,1663.0,1
1099,1099,0.534377090364425,0.5,0.0,0.0,311.0,620.0,0.0,1,289.0,1
1100,1100,-0.20524313838803487,-0.2,1.0,0.0,398.0,657.0,0.0,0,865.0,1
1101,1101,0.715027486642165,0.7,0.0,0.0,319.0,719.0,0.0,1,762.0,1
1102,1102,0.6306672434479138,0.6,1.0,1.0,343.0,944.0,1.0,1,693.0,1
1103,1103,0.6409520402635659,0.6,0.0,0.0,469.0,852.0,0.0,1,349.0,1
1104,1104,-0.14546826703493976,-0.1,1.0,0.0,416.0,596.0,0.0,0,1008.0,1
1105,1105,-0.2964885904726281,-0.3,1.0,0.0,257.0,611.0,0.0,0,912.0,1
1106,1106,0.7895437335624592,0.8,1.0,1.0,272.0,523.0,0.0,0,-145.0,0
1107,1107,0.6929582748913908,0.7,1.0,1.0,306.0,868.0,1.0,1,1086.0,1
1108,1108,0.5700064293625157,0.6,1.0,1.0,388.0,982.0,0.0,0,-150.0,0
1109,1109,0.07216412802367778,0.1,1.0,1.0,481.0,615.0,0.0,0,3074.0,0
1110,1110,-0.2311591181576662,-0.2,1.0,0.0,336.0,556.0,0.0,0,788.0,1
1111,1111,0.15214714020043163,0.2,0.0,0.0,341.0,572.0,0.0,1,77.0,1
1112,1112,-0.33511264166534216,-0.3,1.0,0.0,424.0,629.0,0.0,0,327.0,1
1113,1113,-0.19471546748361068,-0.2,1.0,0.0,259.0,696.0,0.0,0,445.0,1
1114,1114,-0.41058556848001826,-0.4,1.0,0.0,418.0,950.0,0.0,0,422.0,1
1115,1115,0.7166675632570471,0.7,0.0,0.0,491.0,699.0,0.0,1,290.0,1
1116,1116,-0.15413389216435092,-0.2,1.0,0.0,433.0,775.0,0.0,0,1132.0,1
1117,1117,-0.2238886254707967,-0.2,1.0,0.0,384.0,521.0,0.0,0,275.0,1
1118,1118,-0.8853505168864672,-0.9,1.0,0.0,280.0,774.0,0.0,0,296.0,1
1119,1119,-0.31030527997916657,-0.3,1.0,0.0,440.0,686.0,0.0,0,94.0,1
1120,1120,0.6789089166706327,0.7,1.0,1.0,274.0,608.0,1.0,1,378.0,1
1121,1121,-0.2566269366758588,-0.3,1.0,0.0,383.0,667.0,0.0,0,280.0,1
1122,1122,-0.6064562136362107,-0.6,1.0,0.0,340.0,663.0,0.0,0,67.0,1
1123,1123,-0.7008383636709242,-0.7,1.0,0.0,252.0,785.0,0.0,0,123.0,1
1124,1124,-0.0257727637086963,-0.0,0.0,1.0,479.0,703.0,0.0,1,388.0,0
1125,1125,-0.5725051236048289,-0.6,0.0,1.0,256.0,994.0,1.0,0,330.0,1
1126,1126,0.45257588782091285,0.5,0.0,0.0,391.0,679.0,0.0,1,840.0,1
1127,1127,-0.4998354921326961,-0.5,0.0,1.0,270.0,630.0,1.0,0,850.0,1
1128,1128,0.12238944335880142,0.1,0.0,0.0,316.0,758.0,0.0,1,2026.0,1
1129,1129,-0.13046672400013004,-0.1,1.0,0.0,329.0,917.0,0.0,0,974.0,1
1130,1130,0.19915433643645752,0.2,1.0,1.0,264.0,887.0,1.0,1,3849.0,1
1131,1131,-0.6408258666408506,-0.6,0.0,1.0,346.0,821.0,1.0,0,313.0,1
1132,1132,-0.7548526101572387,-0.8,0.0,1.0,458.0,536.0,1.0,0,176.0,1
1133,1133,-0.009909920290271601,-0.0,1.0,0.0,296.0,969.0,0.0,0,1355.0,1
1134,1134,-0.6144166717315749,-0.6,1.0,0.0,263.0,891.0,0.0,0,236.0,1
1135,1135,-0.21665131022221773,-0.2,1.0,0.0,468.0,682.0,0.0,0,430.0,1
1136,1136,0.435851220095424,0.4,1.0,1.0,350.0,888.0,1.0,1,1512.0,1
1137,1137,0.8849399894771525,0.9,0.0,0.0,313.0,591.0,0.0,1,206.0,1
1138,1138,0.18528062081208352,0.2,1.0,1.0,492.0,809.0,0.0,0,2069.0,0
1139,1139,0.2570156565958338,0.3,0.0,0.0,251.0,550.0,0.0,1,729.0,1
1140,1140,0.8331544262623968,0.8,1.0,1.0,345.0,813.0,1.0,1,572.0,1
1141,1141,0.05302553901814333,0.1,0.0,0.0,460.0,857.0,0.0,1,53.0,1
1142,1142,-0.5163644107775047,-0.5,1.0,0.0,440.0,512.0,0.0,0,198.0,1
1143,1143,0.4023215296088024,0.4,1.0,1.0,359.0,608.0,1.0,1,323.0,1
1144,1144,0.10758299370921354,0.1,1.0,1.0,260.0,611.0,1.0,1,4129.0,1
1145,1145,-0.4235563009630253,-0.4,0.0,1.0,279.0,544.0,1.0,0,827.0,1
1146,1146,-0.8541625473769878,-0.9,0.0,1.0,429.0,872.0,0.0,1,-41.0,0
1147,1147,0.6547052968273216,0.7,1.0,1.0,311.0,830.0,1.0,1,409.0,1
1148,1148,-0.10726742545117918,-0.1,0.0,1.0,258.0,801.0,1.0,0,2151.0,1
1149,1149,-0.4069812521628821,-0.4,0.0,1.0,300.0,555.0,1.0,0,515.0,1
1150,1150,-0.08674233934733733,-0.1,0.0,1.0,290.0,930.0,1.0,0,3780.0,1
1151,1151,-0.12373451063666563,-0.1,0.0,1.0,315.0,801.0,1.0,0,944.0,1
1152,1152,-0.5714455974841444,-0.6,0.0,1.0,476.0,806.0,1.0,0,228.0,1
1153,1153,-0.04801037232052563,-0.0,1.0,0.0,425.0,937.0,0.0,0,628.0,1
1154,1154,0.047437871588541736,0.0,1.0,1.0,443.0,869.0,0.0,0,2948.0,0
1155,1155,-0.8160811060076057,-0.8,0.0,1.0,289.0,681.0,1.0,0,570.0,1
1156,1156,0.520003042381958,0.5,0.0,0.0,416.0,731.0,0.0,1,1113.0,1
1157,1157,-0.07889105015826958,-0.1,1.0,0.0,369.0,591.0,0.0,0,1390.0,1
1158,1158,-0.6886027370965497,-0.7,1.0,0.0,384.0,585.0,0.0,0,101.0,1
1159,1159,0.2388958246132521,0.2,0.0,0.0,497.0,759.0,0.0,1,904.0,1
1160,1160,-0.1486313331687137,-0.1,1.0,0.0,267.0,563.0,0.0,0,1090.0,1
1161,1161,-0.34395211704482276,-0.3,0.0,1.0,262.0,622.0,1.0,0,1476.0,1
1162,1162,-0.06695113226442118,-0.1,1.0,0.0,457.0,924.0,0.0,0,649.0,1
1163,1163,-0.44273932125576,-0.4,0.0,1.0,322.0,913.0,1.0,0,165.0,1
1164,1164,0.35858793238381204,0.4,0.0,0.0,450.0,786.0,0.0,1,904.0,1
1165,1165,-0.7961454371096012,-0.8,1.0,0.0,289.0,548.0,0.0,0,133.0,1
1166,1166,0.4283793118659841,0.4,0.0,0.0,305.0,934.0,0.0,1,1771.0,1
1167,1167,-0.765826846615981,-0.8,1.0,0.0,423.0,883.0,0.0,0,274.0,1
1168,1168,0.21268941179384904,0.2,0.0,0.0,323.0,641.0,0.0,1,1046.0,1
1169,1169,-0.7605798626788467,-0.8,0.0,1.0,426.0,645.0,1.0,0,439.0,1
1170,1170,-0.851211134129993,-0.9,1.0,0.0,465.0,547.0,0.0,0,208.0,1
1171,1171,0.5121955292107517,0.5,0.0,0.0,473.0,551.0,0.0,1,566.0,1
1172,1172,0.5957070268832859,0.6,1.0,1.0,486.0,514.0,1.0,1,700.0,1
1173,1173,0.41067091717013227,0.4,1.0,1.0,273.0,775.0,1.0,1,1872.0,1
1174,1174,-0.29297694024469634,-0.3,0.0,1.0,277.0,525.0,1.0,0,908.0,1
1175,1175,-0.2714074102351114,-0.3,1.0,0.0,282.0,504.0,0.0,0,204.0,1
1176,1176,0.1639400828486367,0.2,0.0,0.0,369.0,730.0,0.0,1,851.0,1
1177,1177,0.1663460977456631,0.2,1.0,1.0,409.0,791.0,0.0,0,820.0,0
1178,1178,-0.13058024237749666,-0.1,0.0,1.0,310.0,547.0,1.0,0,593.0,1
1179,1179,0.03527415002864298,0.0,0.0,0.0,413.0,500.0,0.0,1,577.0,1
1180,1180,0.8727597610613119,0.9,1.0,1.0,426.0,585.0,1.0,1,1129.0,1
1181,1181,-0.6834884611589189,-0.7,0.0,1.0,288.0,975.0,1.0,0,697.0,1
1182,1182,-0.03342640860556512,-0.0,1.0,0.0,358.0,947.0,0.0,0,245.0,1
1183,1183,-0.19431853395955756,-0.2,1.0,0.0,496.0,667.0,0.0,0,887.0,1
1184,1184,-0.35269433815691964,-0.4,1.0,0.0,443.0,519.0,0.0,0,148.0,1
1185,1185,0.8510525731223132,0.9,0.0,0.0,347.0,901.0,0.0,1,412.0,1
1186,1186,0.3051754113603927,0.3,0.0,0.0,332.0,511.0,0.0,1,1067.0,1
1187,1187,0.4729407428004845,0.5,1.0,1.0,425.0,629.0,1.0,1,1266.0,1
1188,1188,0.8022906933613622,0.8,1.0,1.0,491.0,902.0,1.0,1,277.0,1
1189,1189,-0.477425403506534,-0.5,0.0,1.0,264.0,590.0,1.0,0,316.0,1
1190,1190,-0.15691974893069127,-0.2,1.0,0.0,322.0,738.0,0.0,0,530.0,1
1191,1191,0.7679304200276637,0.8,1.0,1.0,301.0,516.0,1.0,1,973.0,1
1192,1192,0.2577256880696418,0.3,0.0,0.0,275.0,688.0,0.0,1,1077.0,1
1193,1193,0.25447786503635783,0.3,1.0,1.0,407.0,530.0,1.0,1,1453.0,1
1194,1194,0.6493239662763853,0.6,0.0,0.0,293.0,603.0,0.0,1,-86.0,1
1195,1195,0.2964099338431244,0.3,0.0,0.0,386.0,976.0,0.0,1,648.0,1
1196,1196,0.8377935152180204,0.8,0.0,0.0,478.0,631.0,0.0,1,641.0,1
1197,1197,0.2801858468559101,0.3,0.0,0.0,485.0,722.0,0.0,1,543.0,1
1198,1198,0.5642587210714208,0.6,0.0,0.0,365.0,826.0,0.0,1,139.0,1
1199,1199,-0.3387457480541456,-0.3,0.0,1.0,295.0,515.0,1.0,0,740.0,1
1200,1200,-0.20479402246200973,-0.2,0.0,1.0,256.0,892.0,0.0,1,12.0,0
1201,1201,-0.8689960623220603,-0.9,0.0,1.0,428.0,751.0,1.0,0,341.0,1
1202,1202,0.6113490810838863,0.6,0.0,0.0,479.0,551.0,0.0,1,930.0,1
1203,1203,0.5878337722595276,0.6,1.0,1.0,453.0,545.0,1.0,1,1812.0,1
1204,1204,-0.3442672242008684,-0.3,0.0,1.0,345.0,684.0,1.0,0,671.0,1
1205,1205,0.5772257253774665,0.6,0.0,0.0,285.0,665.0,0.0,1,260.0,1
1206,1206,0.28416922196636174,0.3,1.0,1.0,476.0,595.0,1.0,1,549.0,1
1207,1207,0.004509258648964565,0.0,0.0,0.0,280.0,633.0,1.0,0,3077.0,0
1208,1208,0.41882713947572425,0.4,1.0,1.0,359.0,950.0,1.0,1,901.0,1
1209,1209,0.605014666841554,0.6,0.0,0.0,446.0,613.0,0.0,1,311.0,1
1210,1210,-0.1104882644712809,-0.1,0.0,1.0,283.0,693.0,1.0,0,1264.0,1
1211,1211,-0.45591591813180316,-0.5,1.0,0.0,287.0,917.0,0.0,0,-194.0,1
1212,1212,-0.45888690542434635,-0.5,0.0,1.0,279.0,730.0,1.0,0,481.0,1
1213,1213,0.43391417787475495,0.4,0.0,0.0,481.0,912.0,0.0,1,977.0,1
1214,1214,-0.8011357073210621,-0.8,1.0,0.0,362.0,632.0,0.0,0,306.0,1
1215,1215,0.8605084775212907,0.9,1.0,1.0,390.0,814.0,1.0,1,366.0,1
1216,1216,-0.44748401914270136,-0.4,0.0,1.0,301.0,748.0,1.0,0,461.0,1
1217,1217,0.29652116080074775,0.3,1.0,1.0,356.0,892.0,0.0,0,-378.0,0
1218,1218,-0.5259177793705012,-0.5,1.0,0.0,326.0,871.0,0.0,0,273.0,1
1219,1219,-0.7465305696370549,-0.7,0.0,1.0,289.0,711.0,1.0,0,520.0,1
1220,1220,0.6466294756574077,0.6,0.0,0.0,309.0,710.0,0.0,1,931.0,1
1221,1221,-0.027207335084130202,-0.0,1.0,0.0,397.0,951.0,0.0,0,1202.0,1
1222,1222,0.3075659499621347,0.3,0.0,0.0,289.0,575.0,0.0,1,846.0,1
1223,1223,-0.6817432605856095,-0.7,0.0,1.0,460.0,548.0,1.0,0,372.0,1
1224,1224,-0.06192580971888795,-0.1,0.0,1.0,270.0,966.0,0.0,1,644.0,0
1225,1225,0.7959772222417417,0.8,1.0,1.0,424.0,902.0,1.0,1,224.0,1
1226,1226,-0.285285057869349,-0.3,0.0,1.0,304.0,527.0,1.0,0,559.0,1
1227,1227,-0.7650050279612737,-0.8,0.0,1.0,422.0,503.0,1.0,0,335.0,1
1228,1228,-0.07223108603728567,-0.1,0.0,1.0,299.0,933.0,1.0,0,3768.0,1
1229,1229,0.7409912004037683,0.7,1.0,1.0,313.0,947.0,1.0,1,1600.0,1
1230,1230,-0.20673522483675966,-0.2,1.0,0.0,362.0,701.0,0.0,0,-143.0,1
1231,1231,-0.14295801557869758,-0.1,1.0,0.0,410.0,615.0,0.0,0,735.0,1
1232,1232,0.8637875677054677,0.9,0.0,0.0,256.0,957.0,0.0,1,227.0,1
1233,1233,-0.24622213094530154,-0.2,0.0,1.0,421.0,660.0,1.0,0,1599.0,1
1234,1234,-0.899267077961356,-0.9,0.0,1.0,471.0,928.0,1.0,0,231.0,1
1235,1235,-0.1860824654455605,-0.2,0.0,1.0,268.0,812.0,0.0,1,30.0,0
1236,1236,-0.01932939307793813,-0.0,1.0,0.0,334.0,937.0,0.0,0,1349.0,1
1237,1237,0.6593739874647163,0.7,0.0,0.0,478.0,754.0,0.0,1,118.0,1
1238,1238,0.22369330730730186,0.2,0.0,0.0,361.0,953.0,0.0,1,646.0,1
1239,1239,-0.5350759657700801,-0.5,0.0,1.0,282.0,866.0,0.0,1,-308.0,0
1240,1240,-0.40443379972687676,-0.4,1.0,0.0,258.0,649.0,0.0,0,183.0,1
1241,1241,0.02257755765397107,0.0,0.0,0.0,304.0,750.0,1.0,0,3946.0,0
1242,1242,-0.6755793540706226,-0.7,1.0,0.0,473.0,875.0,0.0,0,172.0,1
1243,1243,-0.3274082235428727,-0.3,1.0,0.0,389.0,694.0,0.0,0,697.0,1
1244,1244,-0.15977719673300228,-0.2,1.0,0.0,447.0,770.0,0.0,0,763.0,1
1245,1245,0.03926700145427697,0.0,1.0,1.0,332.0,806.0,0.0,0,2292.0,0
1246,1246,-0.40829874947908,-0.4,0.0,1.0,493.0,690.0,1.0,0,217.0,1
1247,1247,-0.1987728452561407,-0.2,1.0,0.0,259.0,853.0,0.0,0,298.0,1
1248,1248,-0.09639651489773571,-0.1,1.0,0.0,418.0,937.0,0.0,0,845.0,1
1249,1249,-0.6024052132582377,-0.6,1.0,0.0,390.0,925.0,0.0,0,165.0,1
1250,1250,-0.5877584217029954,-0.6,0.0,1.0,299.0,924.0,1.0,0,437.0,1
1251,1251,0.6839211669976853,0.7,1.0,1.0,308.0,646.0,1.0,1,436.0,1
1252,1252,-0.8125341307493699,-0.8,0.0,1.0,396.0,606.0,1.0,0,538.0,1
1253,1253,0.11942000830593968,0.1,0.0,0.0,280.0,609.0,0.0,1,651.0,1
1254,1254,-0.5876220476848388,-0.6,0.0,1.0,439.0,693.0,1.0,0,258.0,1
1255,1255,0.5092621223078403,0.5,1.0,1.0,400.0,594.0,1.0,1,536.0,1
1256,1256,-0.6911639726160352,-0.7,1.0,0.0,393.0,940.0,0.0,0,277.0,1
1257,1257,-0.5164498367889147,-0.5,1.0,0.0,407.0,791.0,0.0,0,62.0,1
1258,1258,-0.6801913640840931,-0.7,1.0,0.0,495.0,867.0,0.0,0,118.0,1
1259,1259,0.6357275813379796,0.6,0.0,0.0,330.0,666.0,0.0,1,344.0,1
1260,1260,-0.31768772274440127,-0.3,0.0,1.0,306.0,661.0,1.0,0,323.0,1
1261,1261,0.24462879697234718,0.2,1.0,1.0,386.0,733.0,0.0,0,-9.0,0
1262,1262,0.662134357161629,0.7,1.0,1.0,412.0,644.0,1.0,1,2224.0,1
1263,1263,-0.14981707642612008,-0.1,1.0,0.0,296.0,963.0,0.0,0,351.0,1
1264,1264,-0.636711895180984,-0.6,0.0,1.0,333.0,538.0,1.0,0,359.0,1
1265,1265,0.735710925974057,0.7,0.0,0.0,470.0,949.0,0.0,1,391.0,1
1266,1266,-0.6284301722826298,-0.6,0.0,1.0,412.0,939.0,1.0,0,339.0,1
1267,1267,0.663640383498972,0.7,0.0,0.0,323.0,688.0,0.0,1,639.0,1
1268,1268,-0.32565019228317293,-0.3,0.0,1.0,354.0,924.0,0.0,1,-88.0,0
1269,1269,0.2999508839736421,0.3,0.0,0.0,355.0,799.0,0.0,1,256.0,1
1270,1270,-0.5885001459368377,-0.6,0.0,1.0,368.0,536.0,1.0,0,526.0,1
1271,1271,-0.6071250294953412,-0.6,1.0,0.0,399.0,539.0,0.0,0,32.0,1
1272,1272,-0.6528666444635403,-0.7,0.0,1.0,496.0,952.0,1.0,0,-468.0,1
1273,1273,-0.8176429373456785,-0.8,1.0,0.0,334.0,813.0,0.0,0,53.0,1
1274,1274,0.15661068907064413,0.2,0.0,0.0,443.0,772.0,0.0,1,2025.0,1
1275,1275,0.06824200684504134,0.1,1.0,1.0,471.0,525.0,0.0,0,4004.0,0
1276,1276,-0.6394343420170915,-0.6,0.0,1.0,414.0,871.0,1.0,0,605.0,1
1277,1277,0.6822734808179131,0.7,1.0,1.0,270.0,552.0,1.0,1,678.0,1
1278,1278,0.27150588691474586,0.3,1.0,1.0,265.0,762.0,0.0,0,-247.0,0
1279,1279,0.1888954207114627,0.2,1.0,1.0,290.0,951.0,1.0,1,3759.0,1
1280,1280,-0.3217174715397676,-0.3,0.0,1.0,366.0,519.0,1.0,0,1065.0,1
1281,1281,0.10322829337389583,0.1,0.0,0.0,253.0,723.0,0.0,1,2434.0,1
1282,1282,0.18348609532720717,0.2,0.0,0.0,375.0,799.0,0.0,1,3056.0,1
1283,1283,-0.38588670975077854,-0.4,1.0,0.0,373.0,624.0,0.0,0,413.0,1
1284,1284,-0.5532240779787401,-0.6,0.0,1.0,257.0,985.0,1.0,0,578.0,1
1285,1285,0.018963020056336766,0.0,0.0,0.0,389.0,849.0,0.0,1,1172.0,1
1286,1286,-0.5706604557149343,-0.6,1.0,0.0,252.0,694.0,0.0,0,444.0,1
1287,1287,0.1410186770563967,0.1,0.0,0.0,340.0,867.0,0.0,1,1683.0,1
1288,1288,0.7851300440318473,0.8,0.0,0.0,435.0,950.0,0.0,1,505.0,1
1289,1289,0.48807237628468647,0.5,0.0,0.0,282.0,734.0,0.0,1,814.0,1
1290,1290,-0.5644217229280195,-0.6,1.0,0.0,274.0,503.0,0.0,0,563.0,1
1291,1291,-0.7951304466924894,-0.8,1.0,0.0,342.0,869.0,0.0,0,-341.0,1
1292,1292,0.2160470034980363,0.2,1.0,1.0,415.0,562.0,1.0,1,1263.0,1
1293,1293,-0.7470215598126249,-0.7,1.0,0.0,342.0,883.0,0.0,0,375.0,1
1294,1294,-0.511274095835676,-0.5,0.0,1.0,416.0,907.0,0.0,1,-103.0,0
1295,1295,-0.57954510328314,-0.6,1.0,0.0,384.0,650.0,0.0,0,346.0,1
1296,1296,-0.5992246251073228,-0.6,0.0,1.0,291.0,850.0,1.0,0,729.0,1
1297,1297,-0.16994067509744937,-0.2,1.0,0.0,348.0,921.0,0.0,0,1081.0,1
1298,1298,0.178986451195965,0.2,1.0,1.0,328.0,791.0,0.0,0,3881.0,0
1299,1299,0.5840544039164172,0.6,0.0,0.0,403.0,549.0,0.0,1,228.0,1
1300,1300,-0.8092693104784705,-0.8,0.0,1.0,369.0,718.0,1.0,0,293.0,1
1301,1301,-0.22971039676953153,-0.2,1.0,0.0,462.0,503.0,0.0,0,215.0,1
1302,1302,0.8544499932828694,0.9,1.0,1.0,405.0,617.0,1.0,1,298.0,1
1303,1303,0.07314826911932837,0.1,0.0,0.0,351.0,567.0,0.0,1,1982.0,1
1304,1304,-0.4924011356444265,-0.5,0.0,1.0,309.0,783.0,0.0,1,-462.0,0
1305,1305,-0.060096366123483125,-0.1,0.0,1.0,344.0,897.0,0.0,1,3759.0,0
1306,1306,-0.21453945563605692,-0.2,1.0,0.0,377.0,595.0,0.0,0,-242.0,1
1307,1307,0.6491218018001069,0.6,1.0,1.0,254.0,892.0,1.0,1,524.0,1
1308,1308,0.6402366402406573,0.6,1.0,1.0,274.0,688.0,1.0,1,638.0,1
1309,1309,0.7600501095778603,0.8,0.0,0.0,300.0,851.0,0.0,1,-251.0,1
1310,1310,-0.18049121649872835,-0.2,0.0,1.0,391.0,570.0,1.0,0,2199.0,1
1311,1311,-0.7310243174112064,-0.7,1.0,0.0,495.0,983.0,0.0,0,212.0,1
1312,1312,-0.3485762059566304,-0.3,0.0,1.0,341.0,900.0,1.0,0,609.0,1
1313,1313,-0.26256196619256567,-0.3,1.0,0.0,316.0,501.0,0.0,0,283.0,1
1314,1314,0.3029263068256386,0.3,0.0,0.0,465.0,646.0,0.0,1,459.0,1
1315,1315,0.4813872987287976,0.5,1.0,1.0,463.0,729.0,1.0,1,2238.0,1
1316,1316,-0.13487961623292477,-0.1,0.0,1.0,414.0,976.0,1.0,0,3610.0,1
1317,1317,-0.23757645775392267,-0.2,0.0,1.0,485.0,513.0,1.0,0,1452.0,1
1318,1318,0.7909981082938259,0.8,1.0,1.0,402.0,563.0,1.0,1,925.0,1
1319,1319,-0.17106910850619061,-0.2,1.0,0.0,359.0,638.0,0.0,0,393.0,1
1320,1320,0.09559383151051337,0.1,1.0,1.0,434.0,758.0,0.0,0,-252.0,0
1321,1321,-0.6024854936610522,-0.6,1.0,0.0,358.0,531.0,0.0,0,111.0,1
1322,1322,-0.7570866975230823,-0.8,1.0,0.0,306.0,783.0,0.0,0,171.0,1
1323,1323,0.7990367896793259,0.8,0.0,0.0,271.0,717.0,0.0,1,452.0,1
1324,1324,0.04101759335103239,0.0,0.0,0.0,374.0,836.0,0.0,1,3790.0,1
1325,1325,-0.7903982133946368,-0.8,1.0,0.0,389.0,915.0,0.0,0,186.0,1
1326,1326,-0.3070427203456533,-0.3,0.0,1.0,264.0,895.0,1.0,0,1591.0,1
1327,1327,-0.7553646737729076,-0.8,0.0,1.0,457.0,673.0,0.0,1,-30.0,0
1328,1328,0.48369155801418884,0.5,1.0,1.0,475.0,580.0,1.0,1,105.0,1
1329,1329,0.4274878281635174,0.4,0.0,0.0,389.0,934.0,1.0,0,-533.0,0
1330,1330,-0.5972651071712505,-0.6,1.0,0.0,289.0,535.0,0.0,0,246.0,1
1331,1331,-0.3687831806408438,-0.4,1.0,0.0,321.0,861.0,0.0,0,198.0,1
1332,1332,-0.1298214358786497,-0.1,1.0,0.0,478.0,829.0,0.0,0,163.0,1
1333,1333,-0.6393377270488418,-0.6,1.0,0.0,326.0,546.0,0.0,0,58.0,1
1334,1334,-0.5105171542770828,-0.5,0.0,1.0,285.0,554.0,1.0,0,471.0,1
1335,1335,-0.8174504433176514,-0.8,0.0,1.0,290.0,626.0,1.0,0,264.0,1
1336,1336,-0.2939097857417533,-0.3,0.0,1.0,399.0,583.0,1.0,0,608.0,1
1337,1337,0.35229465781192004,0.4,1.0,1.0,494.0,595.0,1.0,1,3571.0,1
1338,1338,-0.0009450088596217876,-0.0,1.0,0.0,353.0,617.0,0.0,0,30.0,1
1339,1339,0.03848934012593541,0.0,1.0,1.0,471.0,908.0,0.0,0,2431.0,0
1340,1340,-0.23351323553143322,-0.2,0.0,1.0,265.0,706.0,1.0,0,1159.0,1
1341,1341,0.5074546022383929,0.5,1.0,1.0,342.0,898.0,1.0,1,1700.0,1
1342,1342,-0.5285187297748648,-0.5,0.0,1.0,340.0,655.0,1.0,0,635.0,1
1343,1343,-0.08342620743638629,-0.1,1.0,0.0,381.0,995.0,0.0,0,1314.0,1
1344,1344,0.85796974970155,0.9,1.0,1.0,460.0,699.0,1.0,1,181.0,1
1345,1345,0.7391996423004751,0.7,0.0,0.0,303.0,897.0,0.0,1,450.0,1
1346,1346,0.8054993374979581,0.8,1.0,1.0,470.0,712.0,1.0,1,358.0,1
1347,1347,-0.6979979576872231,-0.7,1.0,0.0,317.0,842.0,0.0,0,91.0,1
1348,1348,0.30146401381544374,0.3,0.0,0.0,475.0,996.0,0.0,1,759.0,1
1349,1349,-0.8992324097503648,-0.9,1.0,0.0,462.0,792.0,0.0,0,476.0,1
1350,1350,-0.2842619068349125,-0.3,0.0,1.0,325.0,731.0,1.0,0,624.0,1
1351,1351,0.8256043814899542,0.8,0.0,0.0,293.0,628.0,0.0,1,259.0,1
1352,1352,-0.7541983909919041,-0.8,0.0,1.0,279.0,973.0,1.0,0,88.0,1
1353,1353,0.7336109287650675,0.7,0.0,0.0,295.0,924.0,0.0,1,301.0,1
1354,1354,-0.43550702296880867,-0.4,0.0,1.0,388.0,888.0,1.0,0,514.0,1
1355,1355,0.7938220229234453,0.8,0.0,0.0,330.0,507.0,0.0,1,353.0,1
1356,1356,0.049154603328654733,0.0,0.0,0.0,386.0,715.0,0.0,1,749.0,1
1357,1357,0.3149943412527251,0.3,1.0,1.0,495.0,639.0,0.0,0,-24.0,0
1358,1358,-0.7245681192740824,-0.7,0.0,1.0,323.0,877.0,1.0,0,340.0,1
1359,1359,-0.28846530781197044,-0.3,0.0,1.0,288.0,775.0,1.0,0,1037.0,1
1360,1360,0.03963115040846832,0.0,1.0,1.0,466.0,877.0,0.0,0,1627.0,0
1361,1361,0.4906696676183754,0.5,0.0,0.0,296.0,869.0,0.0,1,15.0,1
1362,1362,-0.13054760984858216,-0.1,1.0,0.0,498.0,823.0,0.0,0,3589.0,1
1363,1363,0.0615147807132268,0.1,0.0,0.0,374.0,752.0,0.0,1,2334.0,1
1364,1364,0.6402487945882344,0.6,1.0,1.0,316.0,800.0,1.0,1,514.0,1
1365,1365,0.5774468314561428,0.6,1.0,1.0,394.0,828.0,1.0,1,1838.0,1
1366,1366,0.5264055006490783,0.5,1.0,1.0,463.0,647.0,1.0,1,1860.0,1
1367,1367,-0.6888758516239993,-0.7,0.0,1.0,273.0,756.0,0.0,1,-69.0,0
1368,1368,0.3452599792194667,0.3,0.0,0.0,402.0,561.0,0.0,1,1457.0,1
1369,1369,-0.5496064284230523,-0.5,0.0,1.0,403.0,992.0,1.0,0,515.0,1
1370,1370,0.8281597014881662,0.8,0.0,0.0,423.0,947.0,0.0,1,380.0,1
1371,1371,-0.8496962405676523,-0.8,1.0,0.0,322.0,707.0,0.0,0,121.0,1
1372,1372,-0.07864664386628673,-0.1,1.0,0.0,314.0,837.0,0.0,0,299.0,1
1373,1373,0.1480213419073756,0.1,1.0,1.0,418.0,545.0,1.0,1,4037.0,1
1374,1374,-0.4046542018863629,-0.4,0.0,1.0,310.0,658.0,1.0,0,1422.0,1
1375,1375,0.20339596292304052,0.2,0.0,0.0,298.0,524.0,0.0,1,918.0,1
1376,1376,-0.5811319451122394,-0.6,0.0,1.0,491.0,766.0,1.0,0,883.0,1
1377,1377,-0.5032978745066548,-0.5,1.0,0.0,349.0,705.0,0.0,0,226.0,1
1378,1378,0.7987100820602538,0.8,0.0,0.0,452.0,639.0,0.0,1,359.0,1
1379,1379,0.7853508504202419,0.8,1.0,1.0,477.0,577.0,1.0,1,586.0,1
1380,1380,-0.035479779079413576,-0.0,0.0,1.0,468.0,537.0,1.0,0,3995.0,1
1381,1381,-0.028887464172340338,-0.0,0.0,1.0,473.0,505.0,0.0,1,4022.0,0
1382,1382,0.38853351080301934,0.4,1.0,1.0,283.0,611.0,1.0,1,1956.0,1
1383,1383,-0.3158321759242201,-0.3,0.0,1.0,429.0,630.0,1.0,0,701.0,1
1384,1384,-0.34060115920983003,-0.3,1.0,0.0,287.0,676.0,0.0,0,147.0,1
1385,1385,0.3944929990949818,0.4,0.0,0.0,474.0,780.0,0.0,1,1396.0,1
1386,1386,-0.20569289067601315,-0.2,1.0,0.0,363.0,937.0,0.0,0,140.0,1
1387,1387,-0.333008448227911,-0.3,0.0,1.0,472.0,970.0,1.0,0,1008.0,1
1388,1388,0.7352502106921114,0.7,1.0,1.0,374.0,914.0,1.0,1,352.0,1
1389,1389,-0.15466329438762716,-0.2,0.0,1.0,266.0,775.0,1.0,0,1199.0,1
1390,1390,0.24047184360134566,0.2,1.0,1.0,351.0,532.0,1.0,1,2577.0,1
1391,1391,-0.3947008191700476,-0.4,0.0,1.0,462.0,598.0,1.0,0,950.0,1
1392,1392,0.7814602868019508,0.8,1.0,1.0,422.0,760.0,1.0,1,1158.0,1
1393,1393,0.46351158680595195,0.5,0.0,0.0,309.0,732.0,0.0,1,439.0,1
1394,1394,0.8429881908510742,0.8,0.0,0.0,395.0,956.0,0.0,1,-111.0,1
1395,1395,-0.05946666872338091,-0.1,0.0,1.0,416.0,898.0,1.0,0,1686.0,1
1396,1396,0.4922229901596552,0.5,1.0,1.0,263.0,600.0,1.0,1,1127.0,1
1397,1397,-0.8418144077287405,-0.8,1.0,0.0,464.0,690.0,0.0,0,206.0,1
1398,1398,0.7104971463782374,0.7,1.0,1.0,443.0,810.0,1.0,1,307.0,1
1399,1399,-0.2665036616030435,-0.3,0.0,1.0,392.0,514.0,1.0,0,474.0,1
1400,1400,-0.0539746430487229,-0.1,1.0,0.0,378.0,711.0,0.0,0,411.0,1
1401,1401,0.538475109052872,0.5,0.0,0.0,337.0,936.0,0.0,1,27.0,1
1402,1402,-0.04890525473766616,-0.0,0.0,1.0,283.0,509.0,0.0,1,3468.0,0
1403,1403,0.886717869615515,0.9,0.0,0.0,423.0,738.0,0.0,1,199.0,1
1404,1404,0.375812816535939,0.4,0.0,0.0,369.0,941.0,0.0,1,610.0,1
1405,1405,-0.014137211264463767,-0.0,1.0,0.0,345.0,711.0,0.0,0,34.0,1
1406,1406,0.4731201318663262,0.5,1.0,1.0,412.0,942.0,1.0,1,396.0,1
1407,1407,0.019006296796625244,0.0,0.0,0.0,263.0,639.0,0.0,1,1548.0,1
1408,1408,-0.4149124949709955,-0.4,0.0,1.0,254.0,604.0,1.0,0,722.0,1
1409,1409,-0.3291306761013554,-0.3,0.0,1.0,483.0,708.0,1.0,0,1389.0,1
1410,1410,-0.11550102160926201,-0.1,1.0,0.0,379.0,833.0,0.0,0,228.0,1
1411,1411,0.3507179853902439,0.4,1.0,1.0,262.0,632.0,1.0,1,1836.0,1
1412,1412,-0.0020207668338966256,-0.0,0.0,1.0,381.0,780.0,0.0,1,589.0,0
1413,1413,-0.408557392556296,-0.4,1.0,0.0,424.0,814.0,0.0,0,142.0,1
1414,1414,-0.43209704329273885,-0.4,1.0,0.0,449.0,814.0,0.0,0,147.0,1
1415,1415,-0.7808639529127854,-0.8,1.0,0.0,275.0,871.0,0.0,0,154.0,1
1416,1416,-0.6164789925242644,-0.6,0.0,1.0,317.0,537.0,1.0,0,576.0,1
1417,1417,0.8315245954931162,0.8,1.0,1.0,364.0,834.0,1.0,1,412.0,1
1418,1418,-0.8181485020048649,-0.8,0.0,1.0,452.0,697.0,1.0,0,-309.0,1
1419,1419,-0.7770983823548566,-0.8,1.0,0.0,430.0,506.0,0.0,0,1204.0,1
1420,1420,0.8127970439006141,0.8,1.0,1.0,413.0,667.0,1.0,1,270.0,1
1421,1421,0.37513491024419887,0.4,1.0,1.0,335.0,889.0,1.0,1,1226.0,1
1422,1422,-0.1741024303526718,-0.2,0.0,1.0,367.0,628.0,0.0,1,-155.0,0
1423,1423,-0.8189220675950184,-0.8,1.0,0.0,252.0,836.0,0.0,0,212.0,1
1424,1424,0.8463199097245896,0.8,0.0,0.0,361.0,702.0,0.0,1,207.0,1
1425,1425,0.17741226930178577,0.2,1.0,1.0,415.0,550.0,0.0,0,4035.0,0
1426,1426,-0.8273824651686276,-0.8,1.0,0.0,457.0,641.0,0.0,0,252.0,1
1427,1427,0.44077318457726167,0.4,0.0,0.0,307.0,542.0,0.0,1,551.0,1
1428,1428,0.3855975079086197,0.4,0.0,0.0,304.0,644.0,0.0,1,752.0,1
1429,1429,0.4850864222467034,0.5,0.0,0.0,296.0,982.0,0.0,1,252.0,1
1430,1430,0.23339992015746203,0.2,1.0,1.0,257.0,898.0,1.0,1,3845.0,1
1431,1431,0.2873778395540202,0.3,0.0,0.0,458.0,674.0,0.0,1,518.0,1
1432,1432,-0.4488414370060809,-0.4,1.0,0.0,395.0,960.0,0.0,0,215.0,1
1433,1433,0.06838081903565685,0.1,0.0,0.0,411.0,566.0,0.0,1,23.0,1
1434,1434,-0.8104313370784991,-0.8,0.0,1.0,360.0,518.0,1.0,0,312.0,1
1435,1435,-0.7022422720874958,-0.7,0.0,1.0,415.0,820.0,1.0,0,335.0,1
1436,1436,0.2671587048585954,0.3,0.0,0.0,447.0,528.0,0.0,1,245.0,1
1437,1437,-0.09039425343767926,-0.1,1.0,0.0,495.0,638.0,0.0,0,387.0,1
1438,1438,-0.02025850450247202,-0.0,1.0,0.0,350.0,980.0,0.0,0,860.0,1
1439,1439,0.17157481688610987,0.2,1.0,1.0,360.0,889.0,0.0,0,-259.0,0
1440,1440,-0.6876021904527716,-0.7,1.0,0.0,442.0,990.0,0.0,0,-612.0,1
1441,1441,0.8462732329021613,0.8,0.0,0.0,313.0,856.0,0.0,1,221.0,1
1442,1442,-0.8148240552296084,-0.8,1.0,0.0,264.0,505.0,0.0,0,851.0,1
1443,1443,-0.7525630995877086,-0.8,0.0,1.0,316.0,514.0,1.0,0,200.0,1
1444,1444,-0.6047611761095602,-0.6,1.0,0.0,269.0,676.0,0.0,0,75.0,1
1445,1445,0.7170962892328975,0.7,0.0,0.0,443.0,995.0,0.0,1,232.0,1
1446,1446,0.06874569291977406,0.1,1.0,1.0,463.0,793.0,0.0,0,2824.0,0
1447,1447,-0.25608831318687086,-0.3,1.0,0.0,390.0,994.0,0.0,0,256.0,1
1448,1448,0.626941762253224,0.6,1.0,1.0,489.0,550.0,1.0,1,591.0,1
1449,1449,-0.6021072905419748,-0.6,1.0,0.0,485.0,845.0,0.0,0,140.0,1
1450,1450,-0.48530134702229316,-0.5,0.0,1.0,485.0,952.0,1.0,0,323.0,1
1451,1451,0.39455389585827694,0.4,0.0,0.0,470.0,734.0,0.0,1,576.0,1
1452,1452,0.06104186133417944,0.1,1.0,1.0,464.0,923.0,0.0,0,63.0,0
1453,1453,0.7381447490023513,0.7,0.0,0.0,359.0,979.0,0.0,1,22.0,1
1454,1454,-0.3627808258739863,-0.4,1.0,0.0,498.0,584.0,0.0,0,178.0,1
1455,1455,0.2798196477772624,0.3,1.0,1.0,464.0,797.0,1.0,1,3739.0,1
1456,1456,0.5073741970850235,0.5,0.0,0.0,434.0,647.0,0.0,1,9.0,1
1457,1457,0.3952025335653643,0.4,0.0,0.0,373.0,907.0,0.0,1,550.0,1
1458,1458,0.10797682953757948,0.1,0.0,0.0,269.0,940.0,0.0,1,-249.0,1
1459,1459,0.12164674267014275,0.1,1.0,1.0,276.0,778.0,1.0,1,3946.0,1
1460,1460,0.41071869745009193,0.4,1.0,1.0,329.0,887.0,1.0,1,1214.0,1
1461,1461,0.6026135668448646,0.6,0.0,0.0,454.0,632.0,0.0,1,544.0,1
1462,1462,0.503013634210781,0.5,0.0,0.0,374.0,634.0,0.0,1,672.0,1
1463,1463,0.3205151287130755,0.3,1.0,1.0,253.0,566.0,1.0,1,591.0,1
1464,1464,-0.5844926894845348,-0.6,0.0,1.0,269.0,730.0,1.0,0,421.0,1
1465,1465,0.3755501317619757,0.4,0.0,0.0,448.0,870.0,0.0,1,882.0,1
1466,1466,0.6507982121108523,0.7,1.0,1.0,495.0,606.0,1.0,1,569.0,1
1467,1467,-0.08102699283360215,-0.1,0.0,1.0,441.0,522.0,1.0,0,4037.0,1
1468,1468,0.48109362190262017,0.5,0.0,0.0,404.0,593.0,0.0,1,423.0,1
1469,1469,-0.05259418583142472,-0.1,1.0,0.0,293.0,944.0,0.0,0,1203.0,1
1470,1470,-0.791676145584008,-0.8,1.0,0.0,250.0,666.0,0.0,0,104.0,1
1471,1471,-0.4134661668983512,-0.4,0.0,1.0,434.0,549.0,1.0,0,437.0,1
1472,1472,-0.005897938484641263,-0.0,0.0,1.0,309.0,845.0,1.0,0,3846.0,1
1473,1473,-0.2018135974573222,-0.2,1.0,0.0,329.0,583.0,0.0,0,88.0,1
1474,1474,-0.833096558628095,-0.8,0.0,1.0,442.0,839.0,1.0,0,609.0,1
1475,1475,-0.1206702930128356,-0.1,0.0,1.0,274.0,510.0,0.0,1,4216.0,0
1476,1476,-0.026944751494627828,-0.0,1.0,0.0,463.0,877.0,0.0,0,10.0,1
1477,1477,0.7811930310133032,0.8,0.0,0.0,321.0,929.0,0.0,1,400.0,1
1478,1478,0.04379707497931551,0.0,1.0,1.0,379.0,927.0,0.0,0,1134.0,0
1479,1479,0.11505258301785604,0.1,0.0,0.0,452.0,628.0,0.0,1,620.0,1
1480,1480,-0.3011613568917809,-0.3,0.0,1.0,343.0,977.0,1.0,0,1490.0,1
1481,1481,-0.18679642841810695,-0.2,0.0,1.0,354.0,631.0,1.0,0,3925.0,1
1482,1482,-0.6955600609686278,-0.7,1.0,0.0,498.0,558.0,0.0,0,164.0,1
1483,1483,0.7547546053977686,0.8,0.0,0.0,435.0,534.0,0.0,1,431.0,1
1484,1484,-0.021783970752821125,-0.0,0.0,1.0,411.0,507.0,0.0,1,2082.0,0
1485,1485,0.5558310442290405,0.6,0.0,0.0,297.0,915.0,0.0,1,538.0,1
1486,1486,-0.48657942053576364,-0.5,0.0,1.0,254.0,878.0,1.0,0,238.0,1
