,trial,coherence,coherence_bin,green_side,correct_side,target_onset,checker_onset,decision,green_decision,decision_time,correct_decision
0,0,-0.8054579940120424,-0.8,0.0,1.0,474.0,603.0,0.0,1,1923.0,0
1,1,-0.11437096492218357,-0.1,1.0,0.0,459.0,832.0,0.0,0,1709.0,1
2,2,0.2030602229944124,0.2,1.0,1.0,486.0,850.0,0.0,0,1664.0,0
3,3,0.37500629663624274,0.4,0.0,0.0,493.0,836.0,0.0,1,1671.0,1
4,4,-0.8103204166728757,-0.8,0.0,1.0,288.0,753.0,1.0,0,-581.0,1
5,5,-0.23207825692465855,-0.2,1.0,0.0,472.0,792.0,0.0,0,1736.0,1
6,6,0.7368043314359595,0.7,0.0,0.0,434.0,830.0,0.0,1,1736.0,1
7,7,-0.5479788797286633,-0.5,1.0,0.0,290.0,999.0,0.0,0,1711.0,1
8,8,-0.3643041606689976,-0.4,1.0,0.0,470.0,697.0,0.0,0,1833.0,1
9,9,-0.1747994438222128,-0.2,1.0,0.0,405.0,822.0,1.0,1,-1177.0,0
10,10,-0.8347739851407653,-0.8,1.0,0.0,497.0,627.0,0.0,0,1876.0,1
11,11,-0.16849361482093483,-0.2,0.0,1.0,420.0,803.0,0.0,1,1777.0,0
12,12,0.057696933469356115,0.1,0.0,0.0,386.0,518.0,0.0,1,2096.0,1
13,13,-0.24177261918400184,-0.2,1.0,0.0,338.0,545.0,0.0,0,2117.0,1
14,14,-0.0322313809750151,-0.0,1.0,0.0,403.0,574.0,0.0,0,2023.0,1
15,15,0.544806399846323,0.5,1.0,1.0,273.0,960.0,0.0,0,1767.0,0
16,16,-0.631591778356622,-0.6,1.0,0.0,285.0,570.0,0.0,0,2145.0,1
17,17,-0.25279516464986596,-0.3,0.0,1.0,362.0,674.0,0.0,1,-986.0,0
18,18,0.40042468442272516,0.4,0.0,0.0,344.0,654.0,0.0,1,2002.0,1
19,19,0.20678896750782017,0.2,1.0,1.0,462.0,745.0,0.0,0,1793.0,0
20,20,0.3351606219840898,0.3,0.0,0.0,344.0,833.0,0.0,1,1823.0,1
21,21,0.2578149306837164,0.3,0.0,0.0,273.0,763.0,0.0,1,1964.0,1
22,22,0.6568454702949192,0.7,1.0,1.0,340.0,917.0,0.0,0,1743.0,0
23,23,-0.2870884782486718,-0.3,0.0,1.0,387.0,950.0,0.0,1,1663.0,0
24,24,-0.45419568656895143,-0.5,0.0,1.0,479.0,965.0,0.0,1,1556.0,0
25,25,0.3746153867823897,0.4,1.0,1.0,304.0,830.0,0.0,0,1866.0,0
26,26,0.4515613234102219,0.5,0.0,0.0,478.0,712.0,0.0,1,1810.0,1
27,27,-0.12643609141984724,-0.1,0.0,1.0,451.0,901.0,0.0,1,1648.0,0
28,28,-0.10539389519596576,-0.1,0.0,1.0,287.0,788.0,0.0,1,1925.0,0
29,29,0.5153209243063642,0.5,0.0,0.0,322.0,849.0,0.0,1,1829.0,1
30,30,-0.48189211707368906,-0.5,1.0,0.0,439.0,575.0,0.0,0,1986.0,1
31,31,0.7445075845166479,0.7,1.0,1.0,293.0,862.0,0.0,0,1845.0,0
32,32,0.5524562115535935,0.6,0.0,0.0,466.0,662.0,0.0,1,1872.0,1
33,33,0.5783075856887149,0.6,0.0,0.0,416.0,869.0,0.0,1,1715.0,1
34,34,-0.7357411969698995,-0.7,1.0,0.0,381.0,871.0,0.0,0,1748.0,1
35,35,0.10139785133251966,0.1,1.0,1.0,263.0,649.0,0.0,0,2088.0,0
36,36,-0.17018446855342584,-0.2,0.0,1.0,409.0,540.0,0.0,1,2051.0,0
37,37,-0.07222714736689528,-0.1,1.0,0.0,470.0,523.0,0.0,0,2007.0,1
38,38,0.1587869988593339,0.2,0.0,0.0,376.0,669.0,0.0,1,1955.0,1
39,39,-0.23018192041702656,-0.2,0.0,1.0,404.0,728.0,0.0,1,1868.0,0
40,40,-0.8606840450495711,-0.9,1.0,0.0,453.0,567.0,0.0,0,1980.0,1
41,41,0.3691091352567081,0.4,0.0,0.0,276.0,619.0,0.0,1,2105.0,1
42,42,0.2071452363189875,0.2,1.0,1.0,482.0,637.0,0.0,0,1881.0,0
43,43,-0.5729527068380997,-0.6,1.0,0.0,424.0,972.0,0.0,0,1604.0,1
44,44,0.10152101127483981,0.1,1.0,1.0,395.0,510.0,0.0,0,2095.0,0
45,45,-0.3602707021760412,-0.4,1.0,0.0,378.0,555.0,0.0,0,2067.0,1
46,46,-0.17611389215499074,-0.2,0.0,1.0,460.0,775.0,0.0,1,1765.0,0
47,47,0.29893663517891034,0.3,0.0,0.0,256.0,523.0,0.0,1,2221.0,1
48,48,0.5596354330286796,0.6,1.0,1.0,292.0,751.0,0.0,0,1957.0,0
49,49,-0.7110216336545007,-0.7,1.0,0.0,454.0,908.0,0.0,0,1638.0,1
50,50,-0.15932855088108522,-0.2,0.0,1.0,271.0,846.0,0.0,1,1883.0,0
51,51,-0.12495303937334823,-0.1,1.0,0.0,252.0,918.0,1.0,1,-1110.0,0
52,52,0.41671812000254305,0.4,1.0,1.0,341.0,916.0,0.0,0,1743.0,0
53,53,0.2006279365805842,0.2,0.0,0.0,425.0,666.0,0.0,1,-1051.0,1
54,54,0.27722738722309204,0.3,0.0,0.0,310.0,823.0,0.0,1,1867.0,1
55,55,-0.17945470242550854,-0.2,1.0,0.0,391.0,806.0,0.0,0,-1027.0,1
56,56,0.6313050811425999,0.6,0.0,0.0,352.0,780.0,0.0,1,1868.0,1
57,57,0.8238467362398117,0.8,1.0,1.0,297.0,734.0,0.0,0,1969.0,0
58,58,-0.44933278436990787,-0.4,1.0,0.0,394.0,861.0,0.0,0,-985.0,1
59,59,-0.6336789310139013,-0.6,1.0,0.0,334.0,820.0,0.0,0,-1044.0,1
60,60,0.11964145815232896,0.1,0.0,0.0,459.0,700.0,0.0,1,1841.0,1
61,61,-0.2874931839082385,-0.3,1.0,0.0,275.0,615.0,0.0,0,2110.0,1
62,62,-0.6643716812015938,-0.7,0.0,1.0,448.0,925.0,0.0,1,1627.0,0
63,63,-0.028142860151383453,-0.0,0.0,1.0,455.0,741.0,0.0,1,-1156.0,0
64,64,-0.2664857918422785,-0.3,1.0,0.0,261.0,945.0,0.0,0,-1106.0,1
65,65,-0.6979091426471221,-0.7,1.0,0.0,448.0,759.0,0.0,0,1793.0,1
66,66,-0.02971175210878363,-0.0,1.0,0.0,299.0,502.0,0.0,0,2199.0,1
67,67,0.613925099176973,0.6,0.0,0.0,255.0,641.0,1.0,0,-846.0,0
68,68,0.05602202492835828,0.1,1.0,1.0,270.0,563.0,0.0,0,2167.0,0
69,69,-0.203029771704606,-0.2,0.0,1.0,291.0,926.0,0.0,1,1783.0,0
70,70,0.5392628181528597,0.5,0.0,0.0,434.0,778.0,0.0,1,1788.0,1
71,71,0.7638579076791369,0.8,0.0,0.0,356.0,586.0,0.0,1,2058.0,1
72,72,0.607424699787387,0.6,1.0,1.0,256.0,658.0,0.0,0,2086.0,0
73,73,0.2136694887921814,0.2,0.0,0.0,264.0,977.0,0.0,1,1759.0,1
74,74,0.5969710755106247,0.6,0.0,0.0,497.0,636.0,0.0,1,1867.0,1
75,75,-0.46085475643208273,-0.5,0.0,1.0,319.0,825.0,0.0,1,1856.0,0
76,76,0.8712416781257807,0.9,0.0,0.0,399.0,951.0,0.0,1,1650.0,1
77,77,-0.013014022011088255,-0.0,0.0,1.0,306.0,950.0,0.0,1,1744.0,0
78,78,-0.2702375574828977,-0.3,0.0,1.0,421.0,990.0,0.0,1,-1261.0,0
79,79,0.3923978256211317,0.4,0.0,0.0,347.0,577.0,0.0,1,-804.0,1
80,80,-0.28431151347878336,-0.3,1.0,0.0,300.0,830.0,0.0,0,1870.0,1
81,81,-0.5358926781143472,-0.5,0.0,1.0,258.0,629.0,0.0,1,-837.0,0
82,82,0.5840441746956181,0.6,0.0,0.0,329.0,595.0,0.0,1,2076.0,1
83,83,-0.8803064296935592,-0.9,0.0,1.0,300.0,735.0,0.0,1,1965.0,0
84,84,-0.4835093644151602,-0.5,0.0,1.0,427.0,801.0,0.0,1,1772.0,0
85,85,-0.8706753813154046,-0.9,0.0,1.0,301.0,860.0,0.0,1,-971.0,0
86,86,-0.2992409458604377,-0.3,0.0,1.0,364.0,941.0,0.0,1,1695.0,0
87,87,0.10256802294723844,0.1,0.0,0.0,255.0,748.0,0.0,1,1997.0,1
88,88,0.14675883088734942,0.1,1.0,1.0,275.0,622.0,0.0,0,2103.0,0
89,89,0.8323206287097854,0.8,0.0,0.0,257.0,721.0,0.0,1,2022.0,1
90,90,-0.7230495429316377,-0.7,0.0,1.0,403.0,673.0,0.0,1,1924.0,0
91,91,0.8094538134350128,0.8,0.0,0.0,259.0,549.0,0.0,1,2192.0,1
92,92,-0.3684141647263832,-0.4,1.0,0.0,345.0,900.0,0.0,0,1755.0,1
93,93,0.8653144938768486,0.9,1.0,1.0,370.0,830.0,0.0,0,1800.0,0
94,94,-0.21227546680173703,-0.2,1.0,0.0,266.0,779.0,1.0,1,-1025.0,0
95,95,0.7168758566847041,0.7,1.0,1.0,298.0,899.0,0.0,0,1803.0,0
96,96,0.7830804352560089,0.8,0.0,0.0,260.0,965.0,0.0,1,1775.0,1
97,97,0.48672323850760735,0.5,1.0,1.0,497.0,946.0,0.0,0,1557.0,0
98,98,-0.18343716850999925,-0.2,0.0,1.0,480.0,956.0,0.0,1,1564.0,0
99,99,0.11032685142641563,0.1,1.0,1.0,333.0,564.0,0.0,0,2103.0,0
100,100,0.22331241256020162,0.2,1.0,1.0,459.0,730.0,0.0,0,1811.0,0
101,101,-0.07811248436564311,-0.1,1.0,0.0,314.0,827.0,0.0,0,1859.0,1
102,102,-0.6758845177203887,-0.7,1.0,0.0,413.0,974.0,0.0,0,1613.0,1
103,103,0.6489540464042639,0.6,1.0,1.0,435.0,782.0,0.0,0,1783.0,0
104,104,-0.43085783462953,-0.4,0.0,1.0,477.0,548.0,0.0,1,1975.0,0
105,105,-0.8458220627717338,-0.8,0.0,1.0,363.0,672.0,0.0,1,-925.0,0
106,106,0.5366238877576183,0.5,1.0,1.0,432.0,923.0,0.0,0,-1235.0,0
107,107,0.7724331539950383,0.8,1.0,1.0,313.0,803.0,0.0,0,1884.0,0
108,108,-0.7500778069190286,-0.8,0.0,1.0,390.0,897.0,0.0,1,1713.0,0
109,109,0.12204115340804023,0.1,1.0,1.0,414.0,648.0,0.0,0,1938.0,0
110,110,0.6121531473060381,0.6,1.0,1.0,279.0,910.0,0.0,0,1811.0,0
111,111,-0.8138905909058929,-0.8,1.0,0.0,345.0,862.0,0.0,0,1793.0,1
112,112,-0.24121358990007047,-0.2,0.0,1.0,432.0,900.0,0.0,1,1668.0,0
113,113,0.8466878614103913,0.8,1.0,1.0,392.0,567.0,0.0,0,2041.0,0
114,114,-0.2398798911485467,-0.2,1.0,0.0,466.0,972.0,0.0,0,1562.0,1
115,115,-0.55736892302263,-0.6,0.0,1.0,319.0,676.0,0.0,1,2005.0,0
116,116,-0.45017951261025524,-0.5,0.0,1.0,318.0,715.0,0.0,1,1967.0,0
117,117,-0.516227597275814,-0.5,0.0,1.0,478.0,621.0,0.0,1,1901.0,0
118,118,0.8451978200293854,0.8,0.0,0.0,433.0,644.0,0.0,1,1923.0,1
119,119,-0.15446307040422835,-0.2,1.0,0.0,395.0,816.0,0.0,0,1789.0,1
120,120,-0.5859404741222005,-0.6,1.0,0.0,310.0,897.0,0.0,0,1793.0,1
121,121,0.787073469804609,0.8,0.0,0.0,462.0,615.0,0.0,1,-977.0,1
122,122,0.41695030479588724,0.4,1.0,1.0,264.0,807.0,0.0,0,1929.0,0
123,123,0.19449693155606484,0.2,0.0,0.0,322.0,945.0,0.0,1,1733.0,1
124,124,-0.8184835962103618,-0.8,1.0,0.0,481.0,692.0,1.0,1,-1133.0,0
125,125,-0.35115069270020927,-0.4,1.0,0.0,383.0,631.0,0.0,0,1986.0,1
126,126,0.24491562718844506,0.2,0.0,0.0,457.0,909.0,0.0,1,1634.0,1
127,127,-0.43988656300860546,-0.4,0.0,1.0,370.0,823.0,0.0,1,1807.0,0
128,128,-0.2513942268219669,-0.3,0.0,1.0,339.0,840.0,0.0,1,1821.0,0
129,129,-0.5676599646728573,-0.6,1.0,0.0,462.0,743.0,0.0,0,1795.0,1
130,130,0.1071306965351998,0.1,1.0,1.0,499.0,763.0,0.0,0,1738.0,0
131,131,0.05144939285846273,0.1,0.0,0.0,401.0,516.0,0.0,1,2083.0,1
132,132,-0.08080757122580584,-0.1,0.0,1.0,287.0,692.0,0.0,1,2021.0,0
133,133,0.6187629627625183,0.6,0.0,0.0,255.0,715.0,0.0,1,-840.0,1
134,134,-0.7213686228507772,-0.7,1.0,0.0,435.0,897.0,1.0,1,-1302.0,0
135,135,-0.06939457354283618,-0.1,1.0,0.0,474.0,502.0,0.0,0,2024.0,1
136,136,-0.03180958525284472,-0.0,1.0,0.0,432.0,811.0,0.0,0,1757.0,1
137,137,-0.8249898048465444,-0.8,1.0,0.0,312.0,644.0,0.0,0,2044.0,1
138,138,0.03654595029479468,0.0,1.0,1.0,482.0,613.0,0.0,0,1905.0,0
139,139,0.3831390525209514,0.4,1.0,1.0,463.0,587.0,0.0,0,1950.0,0
140,140,-0.5326317100143312,-0.5,1.0,0.0,351.0,870.0,0.0,0,1779.0,1
141,141,0.497554611327219,0.5,1.0,1.0,482.0,607.0,0.0,0,1911.0,0
142,142,0.8380013086140711,0.8,0.0,0.0,341.0,571.0,0.0,1,2088.0,1
143,143,-0.35229227830987675,-0.4,1.0,0.0,387.0,693.0,0.0,0,1920.0,1
144,144,-0.03980988507904648,-0.0,1.0,0.0,395.0,982.0,0.0,0,1623.0,1
145,145,-0.4554642564383246,-0.5,0.0,1.0,319.0,773.0,0.0,1,1908.0,0
146,146,-0.11817035981766588,-0.1,0.0,1.0,334.0,987.0,0.0,1,1679.0,0
147,147,-0.11950477740338195,-0.1,1.0,0.0,357.0,659.0,0.0,0,1984.0,1
148,148,-0.5913320158581966,-0.6,0.0,1.0,493.0,802.0,0.0,1,1705.0,0
149,149,0.10914616076630634,0.1,0.0,0.0,391.0,883.0,0.0,1,1726.0,1
150,150,-0.7270942255588926,-0.7,1.0,0.0,390.0,809.0,0.0,0,1801.0,1
151,151,0.36864167843739637,0.4,0.0,0.0,292.0,679.0,0.0,1,2029.0,1
152,152,0.10904425467485457,0.1,1.0,1.0,450.0,936.0,0.0,0,1614.0,0
153,153,-0.6281475001809247,-0.6,1.0,0.0,420.0,642.0,0.0,0,1938.0,1
154,154,-0.10041418780791855,-0.1,0.0,1.0,382.0,545.0,0.0,1,-697.0,0
155,155,0.5583623472823774,0.6,0.0,0.0,264.0,994.0,0.0,1,1742.0,1
156,156,-0.6917074812066685,-0.7,1.0,0.0,258.0,724.0,0.0,0,2018.0,1
157,157,-0.27684398110229314,-0.3,1.0,0.0,482.0,707.0,1.0,1,-1189.0,0
158,158,0.03647621069618545,0.0,1.0,1.0,372.0,507.0,0.0,0,2121.0,0
159,159,-0.6770697441637927,-0.7,1.0,0.0,269.0,896.0,1.0,1,-1035.0,0
160,160,0.38568779078724813,0.4,0.0,0.0,260.0,716.0,0.0,1,2024.0,1
161,161,-0.6468936256633744,-0.6,1.0,0.0,298.0,766.0,0.0,0,1936.0,1
162,162,0.053321563937871796,0.1,0.0,0.0,401.0,999.0,0.0,1,1600.0,1
163,163,0.6712957441446804,0.7,0.0,0.0,332.0,660.0,0.0,1,2008.0,1
164,164,-0.41088164489262263,-0.4,1.0,0.0,342.0,510.0,1.0,1,-852.0,0
165,165,-0.6121001064833658,-0.6,1.0,0.0,474.0,807.0,0.0,0,1719.0,1
166,166,0.8143853073451169,0.8,1.0,1.0,361.0,700.0,0.0,0,1939.0,0
167,167,0.2687120473166055,0.3,0.0,0.0,406.0,741.0,0.0,1,1853.0,1
168,168,-0.87313627554558,-0.9,0.0,1.0,415.0,989.0,0.0,1,1596.0,0
169,169,-0.11976895728690362,-0.1,0.0,1.0,384.0,610.0,0.0,1,2006.0,0
170,170,-0.7368421888954855,-0.7,0.0,1.0,422.0,544.0,0.0,1,2034.0,0
171,171,-0.5899193197976643,-0.6,0.0,1.0,475.0,886.0,0.0,1,1639.0,0
172,172,0.7784454082449078,0.8,0.0,0.0,399.0,606.0,0.0,1,1995.0,1
173,173,0.7260700205532232,0.7,1.0,1.0,336.0,943.0,0.0,0,1721.0,0
174,174,0.8990993082474393,0.9,0.0,0.0,482.0,925.0,0.0,1,1593.0,1
175,175,0.05769531502748293,0.1,1.0,1.0,263.0,717.0,0.0,0,2020.0,0
176,176,0.8447555391872673,0.8,1.0,1.0,473.0,688.0,0.0,0,1839.0,0
177,177,-0.49738086513469115,-0.5,1.0,0.0,460.0,563.0,0.0,0,1977.0,1
178,178,0.6792023535393245,0.7,1.0,1.0,258.0,897.0,0.0,0,-1015.0,0
179,179,0.040422583342285656,0.0,0.0,0.0,280.0,755.0,0.0,1,1965.0,1
180,180,0.36700159652978226,0.4,0.0,0.0,480.0,886.0,0.0,1,1634.0,1
181,181,-0.0933478806618726,-0.1,1.0,0.0,485.0,680.0,1.0,1,-1075.0,0
182,182,-0.4355211751542937,-0.4,1.0,0.0,262.0,704.0,0.0,0,2034.0,1
183,183,-0.7271795962299819,-0.7,0.0,1.0,453.0,936.0,1.0,0,-1359.0,1
184,184,0.12974184032145797,0.1,1.0,1.0,485.0,806.0,0.0,0,1709.0,0
185,185,0.430076941426368,0.4,0.0,0.0,307.0,867.0,0.0,1,1826.0,1
186,186,0.28160208284379784,0.3,1.0,1.0,406.0,541.0,0.0,0,2053.0,0
187,187,-0.8690213193428996,-0.9,0.0,1.0,280.0,850.0,0.0,1,-1080.0,0
188,188,-0.7935117154943444,-0.8,1.0,0.0,407.0,986.0,0.0,0,1607.0,1
189,189,-0.37224614678345436,-0.4,1.0,0.0,450.0,534.0,0.0,0,-914.0,1
190,190,-0.43380302595151315,-0.4,1.0,0.0,432.0,926.0,0.0,0,-1338.0,1
191,191,0.8132097452357819,0.8,0.0,0.0,268.0,766.0,0.0,1,1966.0,1
192,192,0.33487354060147834,0.3,1.0,1.0,320.0,506.0,0.0,0,2174.0,0
193,193,0.21563643923091924,0.2,1.0,1.0,466.0,556.0,0.0,0,1978.0,0
194,194,-0.5580218355826163,-0.6,0.0,1.0,300.0,773.0,0.0,1,1927.0,0
195,195,0.6129776425359251,0.6,0.0,0.0,435.0,794.0,0.0,1,1771.0,1
196,196,0.15199450395997094,0.2,1.0,1.0,441.0,805.0,0.0,0,1754.0,0
197,197,-0.10748589892847515,-0.1,1.0,0.0,306.0,700.0,0.0,0,-846.0,1
198,198,0.3772301949776279,0.4,1.0,1.0,370.0,572.0,0.0,0,2058.0,0
199,199,0.8875135850429686,0.9,0.0,0.0,447.0,782.0,0.0,1,1771.0,1
200,200,0.8486961549559214,0.8,0.0,0.0,278.0,961.0,0.0,1,1761.0,1
201,201,-0.23434259234812682,-0.2,1.0,0.0,468.0,650.0,0.0,0,1882.0,1
202,202,-0.7082967314676961,-0.7,1.0,0.0,429.0,961.0,0.0,0,-1160.0,1
203,203,-0.5252934359965031,-0.5,1.0,0.0,466.0,670.0,0.0,0,1864.0,1
204,204,-0.04355285198225045,-0.0,1.0,0.0,270.0,507.0,0.0,0,2223.0,1
205,205,0.580592088414836,0.6,0.0,0.0,261.0,872.0,0.0,1,1867.0,1
206,206,0.011227904532924327,0.0,1.0,1.0,271.0,737.0,0.0,0,1992.0,0
207,207,-0.2865675763272162,-0.3,0.0,1.0,350.0,578.0,0.0,1,2072.0,0
208,208,-0.18802731740717593,-0.2,0.0,1.0,311.0,981.0,0.0,1,1708.0,0
209,209,0.6625670433906864,0.7,1.0,1.0,290.0,727.0,0.0,0,1983.0,0
210,210,-0.3613411977676364,-0.4,0.0,1.0,336.0,841.0,0.0,1,1823.0,0
211,211,-0.8590206633590198,-0.9,0.0,1.0,255.0,752.0,0.0,1,1993.0,0
212,212,0.3524825641570374,0.4,1.0,1.0,461.0,753.0,0.0,0,1786.0,0
213,213,0.10620814987905691,0.1,0.0,0.0,431.0,664.0,0.0,1,1905.0,1
214,214,-0.04428661600378514,-0.0,0.0,1.0,391.0,703.0,1.0,0,-1014.0,1
215,215,0.1222444193417832,0.1,1.0,1.0,336.0,656.0,0.0,0,2008.0,0
216,216,-0.3021044314918919,-0.3,0.0,1.0,303.0,723.0,0.0,1,1974.0,0
217,217,0.5769407372308287,0.6,1.0,1.0,447.0,752.0,0.0,0,1801.0,0
218,218,0.3218145803361713,0.3,1.0,1.0,439.0,900.0,0.0,0,-1229.0,0
219,219,0.23140788631018727,0.2,0.0,0.0,494.0,733.0,0.0,1,1773.0,1
220,220,0.008192919872273441,0.0,0.0,0.0,320.0,846.0,0.0,1,1834.0,1
221,221,0.30531719607015295,0.3,1.0,1.0,473.0,734.0,0.0,0,1793.0,0
222,222,-0.34629045240541656,-0.3,0.0,1.0,410.0,682.0,0.0,1,1908.0,0
223,223,0.09576649820608807,0.1,0.0,0.0,369.0,911.0,0.0,1,1720.0,1
224,224,-0.5155871087339728,-0.5,0.0,1.0,418.0,782.0,0.0,1,1800.0,0
225,225,-0.0946645492032685,-0.1,0.0,1.0,451.0,601.0,0.0,1,1948.0,0
226,226,-0.6446714184683975,-0.6,1.0,0.0,443.0,716.0,0.0,0,1841.0,1
227,227,0.31007511528358733,0.3,1.0,1.0,298.0,800.0,0.0,0,1902.0,0
228,228,0.7791476034916108,0.8,1.0,1.0,366.0,739.0,0.0,0,1895.0,0
229,229,0.159221325322065,0.2,0.0,0.0,490.0,826.0,0.0,1,1684.0,1
230,230,-0.6880631090098874,-0.7,0.0,1.0,395.0,636.0,0.0,1,1969.0,0
231,231,0.4831187298112881,0.5,0.0,0.0,399.0,567.0,0.0,1,2034.0,1
232,232,0.35041923231011196,0.4,0.0,0.0,495.0,776.0,0.0,1,1729.0,1
233,233,0.8258423087215864,0.8,0.0,0.0,315.0,909.0,1.0,0,-1044.0,0
234,234,0.37271774139152647,0.4,0.0,0.0,369.0,617.0,0.0,1,2014.0,1
235,235,-0.21761010083915777,-0.2,0.0,1.0,475.0,808.0,0.0,1,1717.0,0
236,236,-0.19885772180469918,-0.2,0.0,1.0,308.0,639.0,0.0,1,2053.0,0
237,237,0.8186352466594723,0.8,0.0,0.0,274.0,661.0,1.0,0,-905.0,0
238,238,-0.03494204118918498,-0.0,1.0,0.0,330.0,535.0,0.0,0,2135.0,1
239,239,0.12255910013439253,0.1,0.0,0.0,331.0,651.0,0.0,1,2018.0,1
240,240,-0.8071431338702879,-0.8,0.0,1.0,271.0,704.0,0.0,1,2025.0,0
241,241,-0.11594303270458861,-0.1,0.0,1.0,259.0,952.0,0.0,1,1789.0,0
242,242,-0.3425467197062275,-0.3,1.0,0.0,280.0,782.0,0.0,0,1938.0,1
243,243,0.21053048671341312,0.2,1.0,1.0,299.0,986.0,0.0,0,1715.0,0
244,244,0.8786112080161658,0.9,0.0,0.0,371.0,881.0,0.0,1,1748.0,1
245,245,0.1849804603543478,0.2,1.0,1.0,255.0,843.0,0.0,0,1902.0,0
246,246,0.7797368650329709,0.8,1.0,1.0,416.0,595.0,0.0,0,1989.0,0
247,247,-0.29016710066463447,-0.3,0.0,1.0,429.0,595.0,0.0,1,1976.0,0
248,248,0.4062574829188733,0.4,0.0,0.0,337.0,600.0,1.0,0,-917.0,0
249,249,-0.800262845806649,-0.8,1.0,0.0,314.0,638.0,0.0,0,2048.0,1
250,250,0.11558029723217877,0.1,1.0,1.0,409.0,794.0,0.0,0,1797.0,0
251,251,-0.8198622427626222,-0.8,0.0,1.0,393.0,627.0,0.0,1,1980.0,0
252,252,0.46287010122962735,0.5,0.0,0.0,431.0,650.0,1.0,0,-1031.0,0
253,253,0.5564685322179274,0.6,0.0,0.0,334.0,564.0,0.0,1,2102.0,1
254,254,0.8321458626881341,0.8,1.0,1.0,403.0,522.0,0.0,0,2075.0,0
255,255,0.26564918281145433,0.3,0.0,0.0,466.0,884.0,0.0,1,1650.0,1
256,256,0.2503570367704787,0.3,1.0,1.0,404.0,587.0,0.0,0,2009.0,0
257,257,0.08659604379272545,0.1,0.0,0.0,434.0,819.0,0.0,1,1747.0,1
258,258,-0.019176860058996104,-0.0,1.0,0.0,305.0,776.0,0.0,0,-1041.0,1
259,259,-0.8421430336872343,-0.8,1.0,0.0,453.0,759.0,0.0,0,-1142.0,1
260,260,-0.23336396586858954,-0.2,1.0,0.0,319.0,912.0,0.0,0,1769.0,1
261,261,0.2504619117438406,0.3,1.0,1.0,263.0,690.0,0.0,0,-783.0,0
262,262,0.505779251205222,0.5,1.0,1.0,288.0,587.0,0.0,0,-875.0,0
263,263,-0.7692761232371518,-0.8,0.0,1.0,403.0,601.0,0.0,1,-674.0,0
264,264,-0.7923509535920905,-0.8,1.0,0.0,487.0,902.0,0.0,0,1611.0,1
265,265,-0.6026034901364901,-0.6,1.0,0.0,281.0,975.0,0.0,0,1744.0,1
266,266,0.3620998044955336,0.4,1.0,1.0,315.0,816.0,0.0,0,1869.0,0
267,267,0.5135596891419846,0.5,0.0,0.0,492.0,794.0,0.0,1,1714.0,1
268,268,0.15319796344788827,0.2,1.0,1.0,308.0,876.0,0.0,0,1816.0,0
269,269,0.4827318064049343,0.5,1.0,1.0,349.0,724.0,0.0,0,1927.0,0
270,270,0.34931744099745543,0.3,1.0,1.0,482.0,612.0,0.0,0,1906.0,0
271,271,-0.029630340303408276,-0.0,0.0,1.0,301.0,914.0,0.0,1,1785.0,0
272,272,-0.7974563841567907,-0.8,1.0,0.0,352.0,835.0,0.0,0,1813.0,1
273,273,-0.4525863641586314,-0.5,0.0,1.0,281.0,505.0,0.0,1,2214.0,0
274,274,0.4535863788174582,0.5,1.0,1.0,340.0,659.0,0.0,0,2001.0,0
275,275,0.3803020256210773,0.4,1.0,1.0,323.0,511.0,0.0,0,2166.0,0
276,276,-0.8293620966611158,-0.8,0.0,1.0,306.0,604.0,0.0,1,-840.0,0
277,277,-0.7766214613306698,-0.8,1.0,0.0,496.0,684.0,0.0,0,1820.0,1
278,278,0.5555560957656908,0.6,1.0,1.0,286.0,864.0,0.0,0,1850.0,0
279,279,-0.20699684224505066,-0.2,1.0,0.0,309.0,529.0,0.0,0,2162.0,1
280,280,-0.7100733427137338,-0.7,1.0,0.0,311.0,952.0,0.0,0,1737.0,1
281,281,-0.4749976323484693,-0.5,1.0,0.0,296.0,699.0,0.0,0,-865.0,1
282,282,-0.6681394447338878,-0.7,0.0,1.0,332.0,673.0,0.0,1,1995.0,0
283,283,0.31934116587302885,0.3,1.0,1.0,402.0,590.0,0.0,0,2008.0,0
284,284,0.08597112991094202,0.1,0.0,0.0,317.0,781.0,0.0,1,1902.0,1
285,285,0.3517269291250108,0.4,0.0,0.0,390.0,575.0,0.0,1,2035.0,1
286,286,-0.3943866921147836,-0.4,0.0,1.0,346.0,688.0,0.0,1,1966.0,0
287,287,-0.6317368898060023,-0.6,0.0,1.0,375.0,717.0,0.0,1,1908.0,0
288,288,-0.6980828417865438,-0.7,0.0,1.0,439.0,636.0,0.0,1,1925.0,0
289,289,0.6182459419501211,0.6,1.0,1.0,331.0,662.0,0.0,0,2007.0,0
290,290,-0.5952451616648912,-0.6,1.0,0.0,424.0,551.0,0.0,0,2025.0,1
291,291,0.23161722948686048,0.2,0.0,0.0,451.0,935.0,0.0,1,1614.0,1
292,292,-0.22566053334294556,-0.2,0.0,1.0,270.0,730.0,0.0,1,2000.0,0
293,293,-0.5302612480761648,-0.5,1.0,0.0,368.0,501.0,0.0,0,2131.0,1
294,294,-0.561877131696459,-0.6,1.0,0.0,498.0,887.0,0.0,0,1615.0,1
295,295,-0.2523396511941328,-0.3,1.0,0.0,394.0,553.0,0.0,0,2053.0,1
296,296,-0.05486436256370819,-0.1,1.0,0.0,475.0,698.0,0.0,0,1827.0,1
297,297,0.8381007421422239,0.8,0.0,0.0,364.0,600.0,0.0,1,-954.0,1
298,298,0.20547499173620498,0.2,0.0,0.0,354.0,551.0,0.0,1,2095.0,1
299,299,0.03428025828779613,0.0,0.0,0.0,251.0,527.0,0.0,1,2222.0,1
300,300,-0.8941853299982812,-0.9,0.0,1.0,493.0,881.0,0.0,1,1626.0,0
301,301,0.5400692550482477,0.5,1.0,1.0,353.0,935.0,0.0,0,1712.0,0
302,302,-0.6404924875987241,-0.6,0.0,1.0,259.0,891.0,0.0,1,1850.0,0
303,303,0.5024598034865705,0.5,0.0,0.0,291.0,673.0,0.0,1,2036.0,1
304,304,0.8132091221389351,0.8,0.0,0.0,450.0,646.0,0.0,1,1904.0,1
305,305,-0.4237223999665346,-0.4,1.0,0.0,301.0,616.0,0.0,0,2083.0,1
306,306,-0.73037071772858,-0.7,0.0,1.0,282.0,577.0,0.0,1,2141.0,0
307,307,-0.3698151648385225,-0.4,1.0,0.0,286.0,769.0,0.0,0,1945.0,1
308,308,0.5044475734779482,0.5,0.0,0.0,464.0,928.0,0.0,1,1608.0,1
309,309,0.06741170983040146,0.1,0.0,0.0,410.0,551.0,0.0,1,2039.0,1
310,310,-0.5342065183055087,-0.5,1.0,0.0,449.0,923.0,0.0,0,1628.0,1
311,311,0.35548400247888556,0.4,0.0,0.0,292.0,996.0,0.0,1,1712.0,1
312,312,-0.6160948982037375,-0.6,0.0,1.0,448.0,707.0,0.0,1,1845.0,0
313,313,-0.02371380753591179,-0.0,0.0,1.0,302.0,750.0,0.0,1,1948.0,0
314,314,-0.8343566868421438,-0.8,1.0,0.0,367.0,559.0,0.0,0,2074.0,1
315,315,0.23620682352534483,0.2,1.0,1.0,440.0,905.0,0.0,0,1655.0,0
316,316,-0.6749626066594374,-0.7,0.0,1.0,398.0,828.0,0.0,1,1774.0,0
317,317,0.5346837467314011,0.5,0.0,0.0,292.0,935.0,1.0,0,-1197.0,0
318,318,-0.20261256342020295,-0.2,0.0,1.0,306.0,809.0,0.0,1,1885.0,0
319,319,-0.011165187716354219,-0.0,0.0,1.0,301.0,936.0,0.0,1,1763.0,0
320,320,-0.6247821658799717,-0.6,0.0,1.0,414.0,833.0,0.0,1,1753.0,0
321,321,-0.31259089899584624,-0.3,0.0,1.0,406.0,945.0,0.0,1,1649.0,0
322,322,-0.04162369913467767,-0.0,1.0,0.0,374.0,705.0,0.0,0,1921.0,1
323,323,-0.6349849367105782,-0.6,0.0,1.0,390.0,906.0,0.0,1,1704.0,0
324,324,-0.4270870674266746,-0.4,1.0,0.0,332.0,597.0,0.0,0,2071.0,1
325,325,-0.45139100964975953,-0.5,0.0,1.0,365.0,700.0,0.0,1,1935.0,0
326,326,0.6971272192693071,0.7,1.0,1.0,478.0,656.0,0.0,0,1866.0,0
327,327,-0.020752838962785902,-0.0,1.0,0.0,434.0,554.0,0.0,0,2012.0,1
328,328,0.6677231695835953,0.7,0.0,0.0,259.0,753.0,0.0,1,1988.0,1
329,329,0.7670864413990496,0.8,0.0,0.0,374.0,682.0,0.0,1,1944.0,1
330,330,0.06847525030873891,0.1,0.0,0.0,383.0,564.0,0.0,1,2053.0,1
331,331,0.8578947939302893,0.9,0.0,0.0,444.0,689.0,0.0,1,1867.0,1
332,332,-0.1401847196387963,-0.1,0.0,1.0,340.0,865.0,0.0,1,1795.0,0
333,333,-0.08094051295694404,-0.1,0.0,1.0,492.0,572.0,0.0,1,1936.0,0
334,334,-0.5182702918816622,-0.5,1.0,0.0,265.0,549.0,0.0,0,2186.0,1
335,335,-0.8523831646998962,-0.9,0.0,1.0,336.0,778.0,0.0,1,1886.0,0
336,336,0.4660604164008616,0.5,0.0,0.0,264.0,786.0,0.0,1,1950.0,1
337,337,-0.8783851862426296,-0.9,1.0,0.0,413.0,819.0,0.0,0,1768.0,1
338,338,0.060720018524236474,0.1,0.0,0.0,473.0,920.0,0.0,1,1607.0,1
339,339,-0.7356593813720639,-0.7,0.0,1.0,414.0,701.0,0.0,1,1885.0,0
340,340,0.8498000363135364,0.8,0.0,0.0,445.0,819.0,0.0,1,1736.0,1
341,341,0.6816068140242083,0.7,0.0,0.0,291.0,902.0,0.0,1,1807.0,1
342,342,-0.5371051739533872,-0.5,1.0,0.0,270.0,651.0,0.0,0,2079.0,1
343,343,0.7153473321353082,0.7,0.0,0.0,460.0,973.0,0.0,1,1567.0,1
344,344,-0.3778730032314116,-0.4,1.0,0.0,387.0,790.0,0.0,0,1823.0,1
345,345,0.10872712450056643,0.1,1.0,1.0,378.0,559.0,0.0,0,2063.0,0
346,346,0.5450356013440617,0.5,1.0,1.0,341.0,798.0,0.0,0,1861.0,0
347,347,-0.16301166752297003,-0.2,0.0,1.0,268.0,769.0,0.0,1,1963.0,0
348,348,0.25166875186127047,0.3,1.0,1.0,381.0,661.0,0.0,0,1958.0,0
349,349,-0.4576609748490711,-0.5,1.0,0.0,320.0,691.0,0.0,0,1989.0,1
350,350,0.6520093145321529,0.7,1.0,1.0,323.0,649.0,1.0,1,-792.0,1
351,351,-0.7508058466512739,-0.8,0.0,1.0,424.0,751.0,0.0,1,1825.0,0
352,352,-0.6729438254868629,-0.7,0.0,1.0,422.0,593.0,0.0,1,1985.0,0
353,353,0.4602664546364471,0.5,1.0,1.0,345.0,775.0,0.0,0,1880.0,0
354,354,0.8825044154293616,0.9,0.0,0.0,339.0,742.0,0.0,1,1919.0,1
355,355,0.10636852752234416,0.1,1.0,1.0,290.0,896.0,0.0,0,1814.0,0
356,356,0.17371904090751278,0.2,0.0,0.0,261.0,679.0,0.0,1,2060.0,1
357,357,-0.721183853115609,-0.7,0.0,1.0,391.0,815.0,0.0,1,1794.0,0
358,358,-0.5266337981591216,-0.5,0.0,1.0,457.0,825.0,0.0,1,1718.0,0
359,359,-0.8750241117006112,-0.9,0.0,1.0,487.0,930.0,0.0,1,-1327.0,0
360,360,-0.2988637829697913,-0.3,1.0,0.0,358.0,793.0,0.0,0,1849.0,1
361,361,0.4777139014951185,0.5,0.0,0.0,490.0,716.0,0.0,1,1794.0,1
362,362,0.5250708651860773,0.5,0.0,0.0,490.0,633.0,0.0,1,1877.0,1
363,363,0.5190900667518735,0.5,1.0,1.0,343.0,599.0,0.0,0,2058.0,0
364,364,-0.8621962259604711,-0.9,0.0,1.0,408.0,808.0,0.0,1,1784.0,0
365,365,-0.7117838793015405,-0.7,0.0,1.0,498.0,686.0,0.0,1,1816.0,0
366,366,-0.0866094314866005,-0.1,1.0,0.0,269.0,908.0,0.0,0,1823.0,1
367,367,0.26061383785248327,0.3,1.0,1.0,471.0,849.0,1.0,1,-1270.0,1
368,368,0.8064301373515635,0.8,0.0,0.0,414.0,881.0,1.0,0,-1255.0,0
369,369,-0.3283125897907916,-0.3,1.0,0.0,422.0,931.0,0.0,0,1647.0,1
370,370,0.021803637186720515,0.0,1.0,1.0,382.0,633.0,0.0,0,1985.0,0
371,371,-0.4783820506051144,-0.5,0.0,1.0,269.0,809.0,0.0,1,1922.0,0
372,372,-0.03866207803507071,-0.0,1.0,0.0,312.0,641.0,0.0,0,2047.0,1
373,373,0.008145761364549808,0.0,0.0,0.0,282.0,662.0,0.0,1,2056.0,1
374,374,0.2535599756558379,0.3,1.0,1.0,341.0,747.0,0.0,0,1912.0,0
375,375,-0.25992284551895817,-0.3,1.0,0.0,456.0,555.0,0.0,0,1989.0,1
376,376,0.5439176672319658,0.5,0.0,0.0,257.0,815.0,0.0,1,1928.0,1
377,377,-0.044248317699321804,-0.0,0.0,1.0,365.0,888.0,0.0,1,1747.0,0
378,378,-0.015853820680286512,-0.0,1.0,0.0,438.0,988.0,0.0,0,1574.0,1
379,379,0.5809341683258024,0.6,0.0,0.0,275.0,944.0,0.0,1,1781.0,1
380,380,-0.7433878812666522,-0.7,0.0,1.0,470.0,858.0,0.0,1,-1298.0,0
381,381,-0.20132466386844838,-0.2,0.0,1.0,310.0,862.0,0.0,1,1828.0,0
382,382,-0.4024845017670156,-0.4,1.0,0.0,396.0,949.0,0.0,0,1655.0,1
383,383,0.2865230093231633,0.3,1.0,1.0,365.0,859.0,0.0,0,1776.0,0
384,384,0.14230270976165638,0.1,1.0,1.0,355.0,512.0,0.0,0,2133.0,0
385,385,-0.3950004722350601,-0.4,1.0,0.0,424.0,853.0,0.0,0,1723.0,1
386,386,0.6573411301406787,0.7,1.0,1.0,373.0,919.0,0.0,0,1708.0,0
387,387,-0.09830206640875006,-0.1,1.0,0.0,418.0,589.0,0.0,0,1993.0,1
388,388,-0.28937769832715876,-0.3,0.0,1.0,374.0,504.0,0.0,1,2122.0,0
389,389,0.8474429507415656,0.8,1.0,1.0,413.0,991.0,0.0,0,1596.0,0
390,390,0.08420130893610211,0.1,0.0,0.0,473.0,903.0,0.0,1,1624.0,1
391,391,0.045521845515654524,0.0,0.0,0.0,267.0,724.0,0.0,1,-761.0,1
392,392,0.2797768739289074,0.3,1.0,1.0,436.0,525.0,0.0,0,2039.0,0
393,393,-0.8559990572988214,-0.9,0.0,1.0,329.0,897.0,0.0,1,1774.0,0
394,394,-0.37866231232293324,-0.4,0.0,1.0,257.0,776.0,0.0,1,1967.0,0
395,395,-0.8141220466225234,-0.8,1.0,0.0,319.0,810.0,0.0,0,-1049.0,1
396,396,-0.18256859086048416,-0.2,0.0,1.0,297.0,552.0,0.0,1,2151.0,0
397,397,-0.4434384664869798,-0.4,1.0,0.0,402.0,867.0,0.0,0,1731.0,1
398,398,0.501164311805922,0.5,1.0,1.0,397.0,631.0,0.0,0,1972.0,0
399,399,0.6138057329318801,0.6,0.0,0.0,400.0,674.0,0.0,1,1926.0,1
400,400,0.45112759936297475,0.5,1.0,1.0,433.0,764.0,0.0,0,1803.0,0
401,401,0.7044701499411451,0.7,0.0,0.0,377.0,856.0,0.0,1,1767.0,1
402,402,0.5896416818166862,0.6,1.0,1.0,380.0,989.0,0.0,0,-1219.0,0
403,403,0.8023784109675817,0.8,1.0,1.0,354.0,521.0,0.0,0,2125.0,0
404,404,0.7888076439941533,0.8,0.0,0.0,381.0,773.0,0.0,1,1846.0,1
405,405,0.17663318684908413,0.2,1.0,1.0,269.0,622.0,0.0,0,2109.0,0
406,406,0.04813615271553562,0.0,1.0,1.0,482.0,747.0,0.0,0,1771.0,0
407,407,0.7997098164534159,0.8,1.0,1.0,383.0,742.0,0.0,0,1875.0,0
408,408,0.4346649177273646,0.4,1.0,1.0,431.0,538.0,0.0,0,2031.0,0
409,409,0.44734640111281865,0.4,1.0,1.0,297.0,982.0,0.0,0,1721.0,0
410,410,0.4381166301010565,0.4,1.0,1.0,384.0,802.0,0.0,0,1814.0,0
411,411,-0.43788880355435805,-0.4,0.0,1.0,474.0,598.0,0.0,1,-1012.0,0
412,412,0.6634894601584705,0.7,1.0,1.0,273.0,716.0,0.0,0,2011.0,0
413,413,0.5738540513968265,0.6,1.0,1.0,276.0,948.0,0.0,0,1776.0,0
414,414,-0.1659235944305203,-0.2,0.0,1.0,282.0,860.0,0.0,1,1858.0,0
415,415,0.5743864637849213,0.6,1.0,1.0,384.0,658.0,0.0,0,1958.0,0
416,416,0.8909030111143078,0.9,0.0,0.0,455.0,768.0,0.0,1,-1183.0,1
417,417,0.13181482687249646,0.1,1.0,1.0,439.0,928.0,0.0,0,1633.0,0
418,418,0.4490352090058466,0.4,1.0,1.0,272.0,823.0,0.0,0,1905.0,0
419,419,-0.366050615951521,-0.4,0.0,1.0,401.0,757.0,0.0,1,1842.0,0
420,420,0.647959213872019,0.6,0.0,0.0,251.0,610.0,0.0,1,2139.0,1
421,421,-0.2964343599487941,-0.3,1.0,0.0,401.0,731.0,0.0,0,1868.0,1
422,422,-0.07845415261409139,-0.1,0.0,1.0,499.0,882.0,0.0,1,1619.0,0
423,423,-0.411536268524843,-0.4,0.0,1.0,337.0,722.0,0.0,1,1941.0,0
424,424,-0.8034076722681127,-0.8,1.0,0.0,488.0,565.0,0.0,0,1947.0,1
425,425,-0.40707656491805594,-0.4,0.0,1.0,400.0,610.0,0.0,1,1990.0,0
426,426,0.8663928390993422,0.9,0.0,0.0,352.0,946.0,0.0,1,1702.0,1
427,427,0.37956505156843245,0.4,0.0,0.0,429.0,864.0,0.0,1,1707.0,1
428,428,-0.040606707852214874,-0.0,1.0,0.0,432.0,970.0,0.0,0,1598.0,1
429,429,0.43296253332992884,0.4,0.0,0.0,390.0,971.0,0.0,1,1639.0,1
430,430,0.3720602658107389,0.4,0.0,0.0,472.0,955.0,0.0,1,1573.0,1
431,431,0.028595359944115994,0.0,0.0,0.0,344.0,758.0,1.0,0,-982.0,0
432,432,-0.16779934782061523,-0.2,1.0,0.0,492.0,613.0,0.0,0,1895.0,1
433,433,0.4645535870941345,0.5,0.0,0.0,315.0,589.0,0.0,1,2096.0,1
434,434,0.8789589482731569,0.9,1.0,1.0,289.0,802.0,0.0,0,1909.0,0
435,435,0.3172914889845574,0.3,0.0,0.0,438.0,740.0,0.0,1,1822.0,1
436,436,-0.2716279348708335,-0.3,1.0,0.0,402.0,936.0,0.0,0,1662.0,1
437,437,0.8633787162194998,0.9,0.0,0.0,418.0,672.0,0.0,1,-1080.0,1
438,438,-0.30169113911445533,-0.3,0.0,1.0,407.0,844.0,0.0,1,1749.0,0
439,439,-0.44359521455343764,-0.4,1.0,0.0,471.0,868.0,0.0,0,1661.0,1
440,440,0.36769385756044926,0.4,0.0,0.0,263.0,663.0,0.0,1,2074.0,1
441,441,-0.44690239930659087,-0.4,1.0,0.0,498.0,578.0,0.0,0,1924.0,1
442,442,-0.7146752069465336,-0.7,1.0,0.0,406.0,851.0,0.0,0,1743.0,1
443,443,-0.681398770265964,-0.7,1.0,0.0,387.0,743.0,1.0,1,-950.0,0
444,444,0.10735016714530443,0.1,0.0,0.0,419.0,993.0,0.0,1,1588.0,1
445,445,0.7219395523175233,0.7,0.0,0.0,269.0,856.0,0.0,1,-1045.0,1
446,446,0.7185418448946969,0.7,0.0,0.0,338.0,604.0,0.0,1,2058.0,1
447,447,-0.8600864342830361,-0.9,1.0,0.0,404.0,605.0,0.0,0,1991.0,1
448,448,-0.7491437133211553,-0.7,1.0,0.0,277.0,742.0,0.0,0,1981.0,1
449,449,-0.6494114189851525,-0.6,0.0,1.0,358.0,818.0,1.0,0,-1136.0,1
450,450,-0.21544236691582308,-0.2,0.0,1.0,283.0,958.0,0.0,1,1759.0,0
451,451,0.1798262284195592,0.2,1.0,1.0,282.0,940.0,0.0,0,1778.0,0
452,452,-0.5291821289201135,-0.5,0.0,1.0,350.0,580.0,0.0,1,2070.0,0
453,453,-0.8902869037643003,-0.9,0.0,1.0,499.0,976.0,0.0,1,1525.0,0
454,454,-0.824637053271901,-0.8,1.0,0.0,383.0,536.0,0.0,0,2081.0,1
455,455,0.07766958332494622,0.1,0.0,0.0,304.0,839.0,0.0,1,1857.0,1
456,456,0.24422136369631875,0.2,0.0,0.0,324.0,737.0,0.0,1,1939.0,1
457,457,-0.8975950725474778,-0.9,0.0,1.0,323.0,757.0,0.0,1,1920.0,0
458,458,-0.7762199943789534,-0.8,1.0,0.0,476.0,561.0,1.0,1,-877.0,0
459,459,-0.45607130890880676,-0.5,0.0,1.0,321.0,747.0,0.0,1,1932.0,0
460,460,0.565513445125135,0.6,1.0,1.0,258.0,508.0,0.0,0,2234.0,0
461,461,-0.8874549665871467,-0.9,1.0,0.0,489.0,969.0,0.0,0,1542.0,1
462,462,-0.1702334004509185,-0.2,1.0,0.0,427.0,848.0,0.0,0,1725.0,1
463,463,-0.2796685923353762,-0.3,1.0,0.0,384.0,619.0,0.0,0,1997.0,1
464,464,0.43132900452423695,0.4,1.0,1.0,348.0,954.0,0.0,0,-1132.0,0
465,465,0.24091246023968604,0.2,0.0,0.0,412.0,932.0,0.0,1,1656.0,1
466,466,-0.8130592881300528,-0.8,0.0,1.0,298.0,694.0,0.0,1,-792.0,0
467,467,0.2384485323251747,0.2,0.0,0.0,286.0,624.0,0.0,1,2090.0,1
468,468,-0.3500171609343907,-0.4,0.0,1.0,415.0,833.0,0.0,1,1752.0,0
469,469,0.6312340750348057,0.6,0.0,0.0,422.0,558.0,0.0,1,2020.0,1
470,470,0.24754447009949787,0.2,1.0,1.0,495.0,952.0,0.0,0,1553.0,0
471,471,0.10237216031588348,0.1,1.0,1.0,412.0,782.0,0.0,0,1806.0,0
472,472,0.3560816143816231,0.4,0.0,0.0,339.0,765.0,0.0,1,1896.0,1
473,473,-0.2754298601722639,-0.3,0.0,1.0,403.0,550.0,0.0,1,-943.0,0
474,474,-0.5461981416473267,-0.5,0.0,1.0,344.0,774.0,0.0,1,1882.0,0
475,475,-0.6069391765398076,-0.6,0.0,1.0,499.0,812.0,0.0,1,1689.0,0
476,476,-0.15781822794200662,-0.2,1.0,0.0,409.0,603.0,0.0,0,1988.0,1
477,477,-0.08304520169831797,-0.1,1.0,0.0,494.0,732.0,0.0,0,1774.0,1
478,478,-0.8058280626736745,-0.8,0.0,1.0,470.0,749.0,0.0,1,1781.0,0
479,479,0.41546596558088156,0.4,0.0,0.0,385.0,635.0,0.0,1,1980.0,1
480,480,0.24159329798222628,0.2,0.0,0.0,308.0,659.0,0.0,1,2033.0,1
481,481,-0.3889979217835505,-0.4,0.0,1.0,445.0,548.0,1.0,0,-943.0,1
482,482,0.7535799492370764,0.8,1.0,1.0,459.0,988.0,0.0,0,1553.0,0
483,483,-0.7763068299152591,-0.8,0.0,1.0,456.0,717.0,0.0,1,1827.0,0
484,484,0.5740520503807237,0.6,1.0,1.0,394.0,888.0,0.0,0,1718.0,0
485,485,0.33132583069168564,0.3,0.0,0.0,337.0,500.0,0.0,1,2163.0,1
486,486,0.0969977722135944,0.1,1.0,1.0,362.0,512.0,0.0,0,2126.0,0
487,487,-0.5147543051729473,-0.5,1.0,0.0,410.0,907.0,0.0,0,-1227.0,1
488,488,-0.11733741884816007,-0.1,1.0,0.0,355.0,854.0,0.0,0,1791.0,1
489,489,-0.37393547250792725,-0.4,0.0,1.0,371.0,741.0,0.0,1,1888.0,0
490,490,-0.2888745633730164,-0.3,0.0,1.0,356.0,996.0,0.0,1,1648.0,0
491,491,0.7751493341194539,0.8,1.0,1.0,365.0,759.0,0.0,0,1876.0,0
492,492,0.8499660278559987,0.8,0.0,0.0,303.0,758.0,0.0,1,1939.0,1
493,493,-0.48301173926057,-0.5,0.0,1.0,390.0,766.0,0.0,1,1844.0,0
494,494,0.15236804479775545,0.2,1.0,1.0,251.0,632.0,0.0,0,2117.0,0
495,495,0.8516363276829301,0.9,0.0,0.0,493.0,687.0,0.0,1,1820.0,1
496,496,-0.04157125547792562,-0.0,0.0,1.0,379.0,913.0,0.0,1,-1232.0,0
497,497,0.5298475655525087,0.5,0.0,0.0,308.0,600.0,0.0,1,2092.0,1
498,498,-0.8361256896627641,-0.8,0.0,1.0,368.0,965.0,0.0,1,1667.0,0
499,499,-0.47893458821926943,-0.5,0.0,1.0,429.0,621.0,0.0,1,1950.0,0
500,500,0.7699197454349956,0.8,0.0,0.0,314.0,968.0,0.0,1,1718.0,1
501,501,0.8894848395221547,0.9,0.0,0.0,351.0,984.0,0.0,1,1665.0,1
502,502,-0.31994233866462185,-0.3,0.0,1.0,457.0,951.0,0.0,1,1592.0,0
503,503,0.6005930940618353,0.6,0.0,0.0,380.0,737.0,0.0,1,1883.0,1
504,504,-0.09906687898516475,-0.1,1.0,0.0,288.0,743.0,0.0,0,1969.0,1
505,505,-0.2476374758826667,-0.2,0.0,1.0,296.0,909.0,0.0,1,1795.0,0
506,506,0.6588039772240323,0.7,0.0,0.0,462.0,708.0,0.0,1,1830.0,1
507,507,-0.23613589978617977,-0.2,1.0,0.0,444.0,778.0,0.0,0,1778.0,1
508,508,0.5215266079952091,0.5,1.0,1.0,401.0,718.0,0.0,0,1881.0,0
509,509,0.29298079184836634,0.3,1.0,1.0,388.0,639.0,0.0,0,1973.0,0
510,510,-0.721890622805068,-0.7,1.0,0.0,417.0,556.0,0.0,0,2027.0,1
511,511,0.5503762200764984,0.6,1.0,1.0,445.0,736.0,0.0,0,1819.0,0
512,512,-0.19604993480181876,-0.2,0.0,1.0,415.0,814.0,0.0,1,1771.0,0
513,513,0.6943381556291123,0.7,0.0,0.0,422.0,918.0,0.0,1,1660.0,1
514,514,0.8890644714880772,0.9,1.0,1.0,444.0,503.0,0.0,0,2053.0,0
515,515,-0.038587918159059376,-0.0,1.0,0.0,471.0,625.0,0.0,0,1904.0,1
516,516,-0.48732381248215045,-0.5,1.0,0.0,434.0,911.0,0.0,0,1655.0,1
517,517,-0.7912071621560371,-0.8,0.0,1.0,295.0,594.0,0.0,1,2111.0,0
518,518,-0.07676192389832592,-0.1,1.0,0.0,319.0,739.0,0.0,0,1942.0,1
519,519,-0.24564983718571576,-0.2,1.0,0.0,352.0,703.0,0.0,0,1945.0,1
520,520,0.578205056248095,0.6,0.0,0.0,417.0,992.0,0.0,1,1591.0,1
521,521,0.8437201252338339,0.8,0.0,0.0,458.0,504.0,0.0,1,2038.0,1
522,522,0.48920752646363963,0.5,1.0,1.0,449.0,905.0,0.0,0,1646.0,0
523,523,0.6888231609061269,0.7,0.0,0.0,399.0,985.0,0.0,1,1616.0,1
524,524,0.8497499327220311,0.8,1.0,1.0,368.0,947.0,1.0,1,-1095.0,1
525,525,0.48712652538201795,0.5,1.0,1.0,283.0,712.0,1.0,1,-965.0,1
526,526,-0.03680448723202623,-0.0,1.0,0.0,465.0,723.0,1.0,1,-1098.0,0
527,527,-0.7442115501998431,-0.7,1.0,0.0,343.0,786.0,0.0,0,1871.0,1
528,528,0.2985652512532261,0.3,0.0,0.0,347.0,548.0,0.0,1,2105.0,1
529,529,-0.24974373991216214,-0.2,1.0,0.0,458.0,615.0,0.0,0,1927.0,1
530,530,0.0457513905274759,0.0,0.0,0.0,479.0,965.0,0.0,1,1556.0,1
531,531,0.285448737419025,0.3,1.0,1.0,412.0,782.0,0.0,0,1806.0,0
532,532,-0.48905678132061686,-0.5,1.0,0.0,385.0,830.0,0.0,0,1785.0,1
533,533,-0.762473195070114,-0.8,0.0,1.0,409.0,650.0,0.0,1,1941.0,0
534,534,-0.2506533137499434,-0.3,0.0,1.0,309.0,657.0,0.0,1,2034.0,0
535,535,0.32564514424007773,0.3,0.0,0.0,491.0,592.0,0.0,1,1917.0,1
536,536,0.008656519854763012,0.0,1.0,1.0,467.0,803.0,0.0,0,1730.0,0
537,537,-0.5668725892034453,-0.6,0.0,1.0,380.0,992.0,0.0,1,1628.0,0
538,538,-0.5866250169276419,-0.6,0.0,1.0,377.0,894.0,1.0,0,-1221.0,1
539,539,-0.025855716295194675,-0.0,0.0,1.0,465.0,670.0,0.0,1,1865.0,0
540,540,-0.8750300283935788,-0.9,1.0,0.0,456.0,765.0,0.0,0,1779.0,1
541,541,-0.25374451065082193,-0.3,1.0,0.0,382.0,649.0,0.0,0,1969.0,1
542,542,-0.16880328458469473,-0.2,0.0,1.0,480.0,978.0,0.0,1,1542.0,0
543,543,0.7243472810223951,0.7,1.0,1.0,397.0,787.0,0.0,0,1816.0,0
544,544,0.8541635276193148,0.9,1.0,1.0,439.0,508.0,0.0,0,2053.0,0
545,545,-0.5435798245993568,-0.5,1.0,0.0,369.0,948.0,1.0,1,-1257.0,0
546,546,0.3462929673146117,0.3,0.0,0.0,310.0,504.0,0.0,1,2186.0,1
547,547,0.30992425059426754,0.3,0.0,0.0,439.0,547.0,0.0,1,2014.0,1
548,548,0.5738374665958473,0.6,0.0,0.0,446.0,641.0,0.0,1,1913.0,1
549,549,0.8275317725819563,0.8,0.0,0.0,316.0,965.0,0.0,1,1719.0,1
550,550,-0.8516107683229724,-0.9,1.0,0.0,412.0,573.0,0.0,0,2015.0,1
551,551,0.5594875028571301,0.6,0.0,0.0,393.0,776.0,1.0,0,-1169.0,0
552,552,-0.8294311676383004,-0.8,1.0,0.0,379.0,815.0,0.0,0,1806.0,1
553,553,-0.4996397808604114,-0.5,0.0,1.0,495.0,532.0,0.0,1,1973.0,0
554,554,0.1666592205997618,0.2,0.0,0.0,333.0,527.0,0.0,1,2140.0,1
555,555,0.2875065537802889,0.3,0.0,0.0,306.0,826.0,1.0,0,-942.0,0
556,556,0.4574656952570574,0.5,1.0,1.0,428.0,881.0,0.0,0,1691.0,0
557,557,-0.8120309716851128,-0.8,0.0,1.0,384.0,522.0,1.0,0,-506.0,1
558,558,0.10656439751310376,0.1,1.0,1.0,282.0,922.0,1.0,1,-1164.0,1
559,559,-0.4040472156908717,-0.4,1.0,0.0,298.0,924.0,1.0,1,-672.0,0
560,560,-0.6571971509855533,-0.7,0.0,1.0,256.0,794.0,0.0,1,1950.0,0
561,561,0.09287766700778133,0.1,1.0,1.0,470.0,876.0,0.0,0,1654.0,0
562,562,0.6343673849152006,0.6,0.0,0.0,461.0,885.0,0.0,1,1654.0,1
563,563,0.02014161546152604,0.0,0.0,0.0,364.0,859.0,0.0,1,-923.0,1
564,564,0.0372107879178607,0.0,1.0,1.0,464.0,553.0,0.0,0,1983.0,0
565,565,0.7206129438877643,0.7,0.0,0.0,369.0,622.0,0.0,1,-941.0,1
566,566,0.5341652263018756,0.5,0.0,0.0,445.0,562.0,0.0,1,1993.0,1
567,567,0.34987229026104505,0.3,1.0,1.0,417.0,760.0,0.0,0,1823.0,0
568,568,-0.048951673982488564,-0.0,0.0,1.0,293.0,668.0,0.0,1,2039.0,0
569,569,0.5256854599122535,0.5,1.0,1.0,382.0,594.0,0.0,0,2024.0,0
570,570,0.6294570128007227,0.6,1.0,1.0,323.0,734.0,0.0,0,1943.0,0
571,571,0.2494599584091307,0.2,0.0,0.0,330.0,740.0,0.0,1,1930.0,1
572,572,-0.5097539176372421,-0.5,0.0,1.0,338.0,568.0,0.0,1,2094.0,0
573,573,-0.8446107585896624,-0.8,1.0,0.0,290.0,993.0,0.0,0,1717.0,1
574,574,0.14661361251570126,0.1,0.0,0.0,442.0,926.0,0.0,1,1632.0,1
575,575,-0.05717324995970419,-0.1,1.0,0.0,437.0,770.0,0.0,0,1793.0,1
576,576,-0.10187726682968035,-0.1,1.0,0.0,392.0,954.0,0.0,0,1654.0,1
577,577,0.25818857548425556,0.3,0.0,0.0,459.0,638.0,0.0,1,1903.0,1
578,578,0.355035885190793,0.4,0.0,0.0,408.0,607.0,0.0,1,1985.0,1
579,579,-0.12082672540095707,-0.1,0.0,1.0,307.0,657.0,1.0,0,-834.0,1
580,580,0.3554540301800414,0.4,0.0,0.0,420.0,532.0,0.0,1,2048.0,1
581,581,0.7538017836713288,0.8,1.0,1.0,395.0,754.0,0.0,0,1851.0,0
582,582,0.7145971493716395,0.7,1.0,1.0,304.0,847.0,0.0,0,1849.0,0
583,583,0.433656172367732,0.4,1.0,1.0,315.0,824.0,0.0,0,1861.0,0
584,584,-0.8052058022425034,-0.8,1.0,0.0,415.0,933.0,0.0,0,1652.0,1
585,585,0.4364727874213191,0.4,1.0,1.0,270.0,820.0,0.0,0,1910.0,0
586,586,0.6125431624050425,0.6,1.0,1.0,452.0,884.0,0.0,0,1664.0,0
587,587,0.6882282754575323,0.7,1.0,1.0,284.0,555.0,0.0,0,2161.0,0
588,588,-0.3264143471370934,-0.3,1.0,0.0,258.0,568.0,0.0,0,2174.0,1
589,589,-0.6780190632674613,-0.7,1.0,0.0,494.0,776.0,0.0,0,1730.0,1
590,590,0.014252407742531004,0.0,1.0,1.0,258.0,563.0,0.0,0,2179.0,0
591,591,0.6863670297652543,0.7,1.0,1.0,419.0,889.0,0.0,0,1692.0,0
592,592,-0.4079650216552194,-0.4,0.0,1.0,311.0,698.0,0.0,1,-809.0,0
593,593,0.40997427539385123,0.4,1.0,1.0,490.0,981.0,0.0,0,1529.0,0
594,594,0.8606087387498066,0.9,1.0,1.0,397.0,896.0,0.0,0,1707.0,0
595,595,-0.7168555284157304,-0.7,1.0,0.0,420.0,804.0,0.0,0,1776.0,1
596,596,0.02341204255631857,0.0,1.0,1.0,427.0,682.0,0.0,0,1891.0,0
597,597,-0.11528372691174149,-0.1,1.0,0.0,382.0,749.0,1.0,1,-1101.0,0
598,598,-0.5152091706568708,-0.5,0.0,1.0,313.0,756.0,0.0,1,1931.0,0
599,599,0.2405620022922913,0.2,1.0,1.0,277.0,800.0,0.0,0,1923.0,0
600,600,0.11259000846760292,0.1,1.0,1.0,294.0,598.0,0.0,0,2108.0,0
601,601,0.5320875901441778,0.5,0.0,0.0,457.0,911.0,0.0,1,1632.0,1
602,602,0.5562332049743198,0.6,1.0,1.0,448.0,645.0,0.0,0,1907.0,0
603,603,-0.055940836827401585,-0.1,0.0,1.0,416.0,599.0,0.0,1,1985.0,0
604,604,-0.4307636841729412,-0.4,0.0,1.0,311.0,915.0,0.0,1,1774.0,0
605,605,-0.1478690062969189,-0.1,1.0,0.0,369.0,887.0,0.0,0,-1126.0,1
606,606,-0.7501303661196436,-0.8,0.0,1.0,254.0,500.0,0.0,1,2246.0,0
607,607,-0.8776013746521785,-0.9,1.0,0.0,296.0,695.0,0.0,0,2009.0,1
608,608,-0.008330445563653366,-0.0,1.0,0.0,342.0,674.0,0.0,0,1984.0,1
609,609,-0.20078088619820267,-0.2,1.0,0.0,437.0,948.0,0.0,0,1615.0,1
610,610,-0.33332450871312125,-0.3,1.0,0.0,392.0,576.0,0.0,0,2032.0,1
611,611,0.0711546786428302,0.1,1.0,1.0,395.0,857.0,0.0,0,-932.0,0
612,612,-0.259703177139468,-0.3,1.0,0.0,280.0,894.0,0.0,0,1826.0,1
613,613,0.06563040809288057,0.1,0.0,0.0,450.0,945.0,0.0,1,1605.0,1
614,614,-0.012851971223971304,-0.0,1.0,0.0,420.0,811.0,0.0,0,1769.0,1
615,615,-0.35242900428402746,-0.4,0.0,1.0,328.0,513.0,0.0,1,-681.0,0
616,616,-0.7973077476958705,-0.8,1.0,0.0,368.0,840.0,0.0,0,1792.0,1
617,617,-0.7943099925886695,-0.8,1.0,0.0,457.0,589.0,0.0,0,1954.0,1
618,618,-0.15315791299308035,-0.2,1.0,0.0,353.0,678.0,0.0,0,-1021.0,1
619,619,0.2530697922420492,0.3,1.0,1.0,272.0,507.0,0.0,0,2221.0,0
620,620,0.8396859155368462,0.8,0.0,0.0,274.0,912.0,0.0,1,-1086.0,1
621,621,0.35705760506953743,0.4,1.0,1.0,359.0,634.0,0.0,0,2007.0,0
622,622,-0.011752926404241415,-0.0,0.0,1.0,465.0,806.0,0.0,1,1729.0,0
623,623,-0.7261230395283466,-0.7,1.0,0.0,266.0,942.0,0.0,0,1792.0,1
624,624,-0.6825391014196387,-0.7,1.0,0.0,453.0,850.0,0.0,0,1697.0,1
625,625,-0.8143144672934963,-0.8,1.0,0.0,317.0,813.0,0.0,0,1870.0,1
626,626,0.5355380638518851,0.5,0.0,0.0,441.0,752.0,0.0,1,1807.0,1
627,627,0.4862482630437722,0.5,0.0,0.0,268.0,589.0,0.0,1,2143.0,1
628,628,0.45957153547026774,0.5,1.0,1.0,416.0,537.0,0.0,0,-793.0,0
629,629,-0.5474558180058554,-0.5,1.0,0.0,306.0,791.0,0.0,0,1903.0,1
630,630,0.3545785608376445,0.4,0.0,0.0,476.0,999.0,0.0,1,1525.0,1
631,631,-0.7925759082738744,-0.8,1.0,0.0,264.0,569.0,0.0,0,2167.0,1
632,632,0.29342917464810647,0.3,1.0,1.0,391.0,508.0,0.0,0,2101.0,0
633,633,0.5092638539481479,0.5,1.0,1.0,408.0,618.0,0.0,0,1974.0,0
634,634,0.7772143732561271,0.8,1.0,1.0,253.0,807.0,0.0,0,1940.0,0
635,635,-0.08659014451431268,-0.1,1.0,0.0,361.0,817.0,0.0,0,1822.0,1
636,636,-0.2140164389799074,-0.2,0.0,1.0,369.0,816.0,0.0,1,1815.0,0
637,637,-0.23047328390413147,-0.2,1.0,0.0,419.0,862.0,0.0,0,1719.0,1
638,638,-0.2205641609704565,-0.2,1.0,0.0,343.0,506.0,0.0,0,2151.0,1
639,639,0.43155935138690127,0.4,1.0,1.0,368.0,679.0,0.0,0,1953.0,0
640,640,0.637759916210025,0.6,0.0,0.0,471.0,529.0,0.0,1,2000.0,1
641,641,0.6546627246798921,0.7,0.0,0.0,255.0,685.0,0.0,1,2060.0,1
642,642,-0.7017761889067127,-0.7,0.0,1.0,472.0,515.0,0.0,1,2013.0,0
643,643,-0.15112443715677026,-0.2,0.0,1.0,441.0,837.0,0.0,1,-1258.0,0
644,644,-0.6497734831088008,-0.6,0.0,1.0,393.0,992.0,0.0,1,1615.0,0
645,645,-0.5580159163814817,-0.6,0.0,1.0,323.0,530.0,0.0,1,2147.0,0
646,646,-0.7915744054560633,-0.8,1.0,0.0,441.0,758.0,0.0,0,1801.0,1
647,647,-0.42524590144684626,-0.4,0.0,1.0,335.0,500.0,0.0,1,2165.0,0
648,648,-0.8847440259199711,-0.9,0.0,1.0,317.0,895.0,0.0,1,1788.0,0
649,649,0.6191667052107884,0.6,0.0,0.0,268.0,917.0,0.0,1,1815.0,1
650,650,-0.029060404167895126,-0.0,1.0,0.0,349.0,550.0,1.0,1,-869.0,0
651,651,0.622353543699954,0.6,0.0,0.0,435.0,886.0,0.0,1,1679.0,1
652,652,0.6774481272881318,0.7,0.0,0.0,353.0,649.0,0.0,1,1998.0,1
653,653,0.8604362469770505,0.9,1.0,1.0,445.0,721.0,0.0,0,1834.0,0
654,654,0.019791415405899238,0.0,0.0,0.0,449.0,753.0,0.0,1,1798.0,1
655,655,-0.6987650586900612,-0.7,1.0,0.0,452.0,899.0,0.0,0,1649.0,1
656,656,0.29707708118320697,0.3,0.0,0.0,307.0,716.0,0.0,1,1977.0,1
657,657,-0.3070264728355261,-0.3,0.0,1.0,256.0,717.0,0.0,1,2027.0,0
658,658,0.6335739115335767,0.6,1.0,1.0,426.0,655.0,0.0,0,1919.0,0
659,659,0.2041005927386529,0.2,0.0,0.0,354.0,975.0,0.0,1,1671.0,1
660,660,0.46455269854308023,0.5,1.0,1.0,270.0,931.0,0.0,0,1799.0,0
661,661,-0.4907662861531375,-0.5,0.0,1.0,304.0,647.0,0.0,1,2049.0,0
662,662,0.8577404479097926,0.9,1.0,1.0,333.0,761.0,0.0,0,1906.0,0
663,663,0.6371015143743678,0.6,0.0,0.0,252.0,847.0,0.0,1,1901.0,1
664,664,0.14902521656147416,0.1,1.0,1.0,379.0,897.0,0.0,0,1724.0,0
665,665,0.8049362521246223,0.8,0.0,0.0,251.0,856.0,0.0,1,1893.0,1
666,666,-0.4727089454783699,-0.5,1.0,0.0,384.0,588.0,0.0,0,2028.0,1
667,667,0.7053407660126131,0.7,0.0,0.0,347.0,916.0,0.0,1,1737.0,1
668,668,0.2815053704717726,0.3,0.0,0.0,360.0,656.0,0.0,1,1984.0,1
669,669,-0.7382141834347602,-0.7,1.0,0.0,341.0,551.0,0.0,0,2108.0,1
670,670,-0.2310204279378214,-0.2,1.0,0.0,407.0,778.0,0.0,0,1815.0,1
671,671,-0.3631812402399027,-0.4,0.0,1.0,342.0,993.0,0.0,1,1665.0,0
672,672,0.08361862791314567,0.1,1.0,1.0,404.0,694.0,0.0,0,1902.0,0
673,673,0.597715311273484,0.6,0.0,0.0,318.0,522.0,0.0,1,2160.0,1
674,674,0.10732496168115169,0.1,1.0,1.0,402.0,767.0,0.0,0,1831.0,0
675,675,-0.42580209473019526,-0.4,1.0,0.0,358.0,557.0,1.0,1,-875.0,0
676,676,-0.4883714014048655,-0.5,0.0,1.0,274.0,867.0,0.0,1,1859.0,0
677,677,-0.6752836582453016,-0.7,1.0,0.0,338.0,903.0,0.0,0,1759.0,1
678,678,-0.606843269260926,-0.6,1.0,0.0,463.0,766.0,0.0,0,1771.0,1
679,679,-0.5651410344392782,-0.6,1.0,0.0,459.0,638.0,0.0,0,1903.0,1
680,680,-0.8611214437879955,-0.9,1.0,0.0,425.0,850.0,0.0,0,1725.0,1
681,681,0.8557231160173003,0.9,0.0,0.0,446.0,872.0,0.0,1,1682.0,1
682,682,0.8593451264044626,0.9,0.0,0.0,297.0,569.0,0.0,1,2134.0,1
683,683,-0.27107927473143834,-0.3,0.0,1.0,447.0,804.0,0.0,1,1749.0,0
684,684,-0.3812086549478093,-0.4,0.0,1.0,278.0,622.0,0.0,1,2100.0,0
685,685,0.601797286633987,0.6,1.0,1.0,284.0,634.0,0.0,0,2082.0,0
686,686,-0.4984969499226347,-0.5,1.0,0.0,411.0,930.0,0.0,0,1659.0,1
687,687,-0.3351664635524073,-0.3,1.0,0.0,444.0,996.0,0.0,0,1560.0,1
688,688,0.34849826692636643,0.3,1.0,1.0,446.0,681.0,0.0,0,1873.0,0
689,689,-0.2885793352847774,-0.3,0.0,1.0,360.0,590.0,0.0,1,2050.0,0
690,690,0.7955848207415049,0.8,0.0,0.0,431.0,736.0,0.0,1,1833.0,1
691,691,0.6825067340782859,0.7,0.0,0.0,262.0,780.0,0.0,1,1958.0,1
692,692,-0.36603956189610753,-0.4,0.0,1.0,391.0,841.0,0.0,1,1768.0,0
693,693,-0.8395672380330285,-0.8,1.0,0.0,301.0,711.0,0.0,0,1988.0,1
694,694,-0.7494091215612771,-0.7,1.0,0.0,451.0,710.0,0.0,0,1839.0,1
695,695,-0.22917159937859066,-0.2,0.0,1.0,280.0,633.0,0.0,1,2087.0,0
696,696,0.0021830235499122885,0.0,0.0,0.0,486.0,979.0,0.0,1,1535.0,1
697,697,0.5263622810247902,0.5,0.0,0.0,424.0,917.0,0.0,1,1659.0,1
698,698,0.2898399704566562,0.3,1.0,1.0,296.0,956.0,0.0,0,1748.0,0
699,699,-0.5004707782625235,-0.5,1.0,0.0,316.0,769.0,0.0,0,1915.0,1
700,700,-0.4931037183511568,-0.5,1.0,0.0,487.0,886.0,0.0,0,1627.0,1
701,701,-0.18845902506205203,-0.2,1.0,0.0,439.0,620.0,0.0,0,1941.0,1
702,702,0.04314236638051738,0.0,1.0,1.0,253.0,752.0,0.0,0,1995.0,0
703,703,-0.5444388624053691,-0.5,0.0,1.0,319.0,750.0,0.0,1,1931.0,0
704,704,-0.1488805348509714,-0.1,1.0,0.0,369.0,749.0,0.0,0,1882.0,1
705,705,0.7574225560697029,0.8,0.0,0.0,458.0,900.0,0.0,1,1642.0,1
706,706,-0.7390179624065516,-0.7,0.0,1.0,295.0,703.0,0.0,1,2002.0,0
707,707,-0.21582552710726732,-0.2,1.0,0.0,332.0,959.0,0.0,0,1709.0,1
708,708,0.2948866539930658,0.3,1.0,1.0,279.0,550.0,0.0,0,2171.0,0
709,709,0.17088763400405338,0.2,0.0,0.0,473.0,658.0,0.0,1,1869.0,1
710,710,-0.8381980668383656,-0.8,0.0,1.0,372.0,710.0,0.0,1,1918.0,0
711,711,0.8290412080713873,0.8,1.0,1.0,381.0,681.0,0.0,0,1938.0,0
712,712,-0.23884190149934015,-0.2,1.0,0.0,344.0,762.0,0.0,0,1894.0,1
713,713,0.5068394882729518,0.5,0.0,0.0,397.0,765.0,0.0,1,1838.0,1
714,714,0.17627800837600838,0.2,1.0,1.0,390.0,844.0,0.0,0,1766.0,0
715,715,0.7290807678189887,0.7,1.0,1.0,271.0,504.0,0.0,0,2225.0,0
716,716,0.012345187274580782,0.0,1.0,1.0,280.0,885.0,0.0,0,1835.0,0
717,717,-0.13768421477405424,-0.1,0.0,1.0,480.0,921.0,0.0,1,1599.0,0
718,718,-0.5485510529951481,-0.5,1.0,0.0,333.0,852.0,0.0,0,1815.0,1
719,719,-0.03083902598845456,-0.0,1.0,0.0,352.0,922.0,0.0,0,1726.0,1
720,720,-0.5712538328597396,-0.6,0.0,1.0,320.0,544.0,0.0,1,2136.0,0
721,721,-0.7628716748845272,-0.8,0.0,1.0,254.0,774.0,0.0,1,1972.0,0
722,722,-0.8310451598079318,-0.8,1.0,0.0,391.0,555.0,0.0,0,2054.0,1
723,723,-0.7126047164120245,-0.7,0.0,1.0,465.0,522.0,0.0,1,2013.0,0
724,724,0.17501973881591326,0.2,1.0,1.0,381.0,936.0,0.0,0,1683.0,0
725,725,0.4493259431172679,0.4,1.0,1.0,454.0,923.0,0.0,0,1623.0,0
726,726,-0.15577752073475126,-0.2,0.0,1.0,419.0,932.0,0.0,1,1649.0,0
727,727,-0.6259217830428208,-0.6,0.0,1.0,394.0,879.0,0.0,1,1727.0,0
728,728,0.862423999202326,0.9,1.0,1.0,494.0,507.0,1.0,1,-901.0,1
729,729,-0.5292300778697869,-0.5,1.0,0.0,301.0,824.0,0.0,0,1875.0,1
730,730,-0.1812051412594038,-0.2,1.0,0.0,363.0,981.0,0.0,0,1656.0,1
731,731,-0.882803422311342,-0.9,1.0,0.0,338.0,777.0,0.0,0,1885.0,1
732,732,-0.5204520122719956,-0.5,0.0,1.0,495.0,847.0,0.0,1,1658.0,0
733,733,0.4517046191464268,0.5,1.0,1.0,395.0,918.0,0.0,0,1687.0,0
734,734,-0.2806294360744199,-0.3,1.0,0.0,385.0,895.0,0.0,0,1720.0,1
735,735,-0.057687120703581396,-0.1,0.0,1.0,440.0,670.0,0.0,1,1890.0,0
736,736,-0.01866406334216486,-0.0,1.0,0.0,470.0,544.0,0.0,0,1986.0,1
737,737,0.0033213988384342974,0.0,1.0,1.0,358.0,695.0,0.0,0,1947.0,0
738,738,0.27895060431401897,0.3,1.0,1.0,323.0,549.0,0.0,0,2128.0,0
739,739,-0.5281611725724202,-0.5,0.0,1.0,395.0,954.0,0.0,1,1651.0,0
740,740,-0.08371301667731657,-0.1,1.0,0.0,333.0,907.0,0.0,0,1760.0,1
741,741,-0.6315969435096878,-0.6,0.0,1.0,272.0,929.0,0.0,1,1799.0,0
742,742,0.42534232765051405,0.4,1.0,1.0,470.0,599.0,0.0,0,1931.0,0
743,743,0.2619462429003695,0.3,1.0,1.0,296.0,595.0,0.0,0,2109.0,0
744,744,-0.15233598189756248,-0.2,0.0,1.0,477.0,747.0,1.0,0,-1144.0,1
745,745,0.26618354949256473,0.3,0.0,0.0,269.0,617.0,0.0,1,2114.0,1
746,746,0.7930101087415405,0.8,1.0,1.0,463.0,684.0,0.0,0,1853.0,0
747,747,-0.7175575677989998,-0.7,1.0,0.0,385.0,838.0,0.0,0,1777.0,1
748,748,0.012911021100246,0.0,0.0,0.0,250.0,955.0,0.0,1,1795.0,1
749,749,0.0869652739315826,0.1,1.0,1.0,426.0,837.0,0.0,0,1737.0,0
750,750,-0.7482567832772085,-0.7,1.0,0.0,440.0,930.0,1.0,1,-1040.0,0
751,751,-0.055970441983268726,-0.1,1.0,0.0,359.0,817.0,0.0,0,-1036.0,1
752,752,0.1197681862740424,0.1,1.0,1.0,376.0,803.0,0.0,0,1821.0,0
753,753,-0.28720201574117155,-0.3,1.0,0.0,471.0,556.0,0.0,0,1973.0,1
754,754,0.15707481995840944,0.2,1.0,1.0,460.0,947.0,0.0,0,1593.0,0
755,755,0.536684291697867,0.5,0.0,0.0,316.0,675.0,0.0,1,2009.0,1
756,756,-0.6033933547792072,-0.6,0.0,1.0,261.0,555.0,0.0,1,2184.0,0
757,757,0.8702350186423694,0.9,1.0,1.0,281.0,833.0,0.0,0,1886.0,0
758,758,-0.11822674538939937,-0.1,1.0,0.0,497.0,638.0,0.0,0,1865.0,1
759,759,0.7654034685785277,0.8,0.0,0.0,433.0,817.0,1.0,0,-1140.0,0
760,760,0.19073184288864764,0.2,1.0,1.0,402.0,562.0,0.0,0,2036.0,0
761,761,-0.7137485111461069,-0.7,0.0,1.0,410.0,692.0,0.0,1,1898.0,0
762,762,-0.47997553842085167,-0.5,0.0,1.0,264.0,955.0,0.0,1,1781.0,0
763,763,-0.7630958133388752,-0.8,1.0,0.0,403.0,664.0,0.0,0,1933.0,1
764,764,0.6838364503601523,0.7,1.0,1.0,441.0,507.0,0.0,0,2052.0,0
765,765,0.3512913255026996,0.4,0.0,0.0,279.0,997.0,0.0,1,1724.0,1
766,766,0.09825364664159042,0.1,1.0,1.0,305.0,814.0,0.0,0,1881.0,0
767,767,0.012657118285618107,0.0,0.0,0.0,414.0,887.0,0.0,1,1699.0,1
768,768,0.12266851410295698,0.1,1.0,1.0,272.0,741.0,0.0,0,1987.0,0
769,769,0.04262375839820487,0.0,1.0,1.0,418.0,779.0,0.0,0,1803.0,0
770,770,0.266846946542609,0.3,1.0,1.0,373.0,612.0,0.0,0,2015.0,0
771,771,-0.358411136206891,-0.4,1.0,0.0,333.0,937.0,0.0,0,1730.0,1
772,772,0.8438471031771987,0.8,0.0,0.0,373.0,764.0,0.0,1,1863.0,1
773,773,0.03651544263466777,0.0,0.0,0.0,366.0,587.0,0.0,1,2047.0,1
774,774,-0.2531546732322987,-0.3,0.0,1.0,429.0,639.0,0.0,1,1932.0,0
775,775,0.17163504833804943,0.2,1.0,1.0,368.0,963.0,0.0,0,1669.0,0
776,776,0.7432505885890747,0.7,1.0,1.0,394.0,781.0,0.0,0,1825.0,0
777,777,0.8082462252120713,0.8,1.0,1.0,411.0,907.0,0.0,0,1682.0,0
778,778,0.6170996786283937,0.6,0.0,0.0,321.0,897.0,0.0,1,1782.0,1
779,779,-0.8834295227829525,-0.9,1.0,0.0,438.0,889.0,0.0,0,-1277.0,1
780,780,-0.2762305887333194,-0.3,1.0,0.0,376.0,917.0,0.0,0,1707.0,1
781,781,-0.5876183628227942,-0.6,1.0,0.0,493.0,839.0,0.0,0,-1282.0,1
782,782,-0.8885521260899099,-0.9,1.0,0.0,410.0,699.0,0.0,0,1891.0,1
783,783,0.6170791830943841,0.6,1.0,1.0,475.0,874.0,0.0,0,1651.0,0
784,784,-0.6217809514893582,-0.6,1.0,0.0,314.0,610.0,0.0,0,2076.0,1
785,785,-0.21444886697164045,-0.2,0.0,1.0,269.0,921.0,0.0,1,1810.0,0
786,786,-0.5719197948803851,-0.6,1.0,0.0,378.0,708.0,0.0,0,1914.0,1
787,787,-0.6371673243027787,-0.6,0.0,1.0,382.0,549.0,0.0,1,2069.0,0
788,788,0.041288830707036706,0.0,1.0,1.0,381.0,909.0,0.0,0,1710.0,0
789,789,-0.8285274018601757,-0.8,1.0,0.0,425.0,576.0,0.0,0,1999.0,1
790,790,-0.015003788305365529,-0.0,1.0,0.0,360.0,960.0,0.0,0,1680.0,1
791,791,0.14781802982436065,0.1,0.0,0.0,303.0,773.0,0.0,1,1924.0,1
792,792,-0.39445917865735813,-0.4,0.0,1.0,259.0,782.0,1.0,0,-961.0,1
793,793,-0.2498275563929665,-0.2,0.0,1.0,333.0,926.0,0.0,1,1741.0,0
794,794,-0.6608501225750534,-0.7,1.0,0.0,487.0,877.0,0.0,0,-1284.0,1
795,795,0.2383354123362479,0.2,1.0,1.0,431.0,604.0,0.0,0,1965.0,0
796,796,0.03856867832730304,0.0,1.0,1.0,418.0,539.0,0.0,0,2043.0,0
797,797,0.3331959231628713,0.3,0.0,0.0,325.0,560.0,0.0,1,2115.0,1
798,798,0.8550307706904069,0.9,1.0,1.0,345.0,871.0,0.0,0,1784.0,0
799,799,0.8605371307673496,0.9,1.0,1.0,274.0,840.0,0.0,0,1886.0,0
800,800,-0.1606419962018636,-0.2,1.0,0.0,437.0,967.0,0.0,0,1596.0,1
801,801,0.5177491539401945,0.5,1.0,1.0,467.0,501.0,0.0,0,2032.0,0
802,802,0.13292557134007288,0.1,1.0,1.0,430.0,612.0,0.0,0,1958.0,0
803,803,-0.7065040271683325,-0.7,1.0,0.0,303.0,564.0,0.0,0,2133.0,1
804,804,-0.6348180665415468,-0.6,1.0,0.0,271.0,721.0,0.0,0,2008.0,1
805,805,-0.15659864651628208,-0.2,0.0,1.0,472.0,968.0,0.0,1,1560.0,0
806,806,0.6244873892125403,0.6,0.0,0.0,363.0,694.0,0.0,1,1943.0,1
807,807,-0.3023951390636157,-0.3,0.0,1.0,435.0,539.0,0.0,1,2026.0,0
808,808,-0.5399872046391212,-0.5,0.0,1.0,418.0,665.0,0.0,1,-1023.0,0
809,809,0.8284351535596318,0.8,0.0,0.0,346.0,933.0,0.0,1,1721.0,1
810,810,0.6198459080165429,0.6,1.0,1.0,494.0,518.0,0.0,0,1988.0,0
811,811,-0.5564557350560342,-0.6,1.0,0.0,360.0,996.0,0.0,0,1644.0,1
812,812,0.3648815274011309,0.4,1.0,1.0,450.0,525.0,0.0,0,2025.0,0
813,813,0.4178437542256158,0.4,1.0,1.0,473.0,883.0,0.0,0,1644.0,0
814,814,0.18969726730518144,0.2,0.0,0.0,478.0,704.0,0.0,1,1818.0,1
815,815,0.02160087142994538,0.0,0.0,0.0,434.0,701.0,0.0,1,1865.0,1
816,816,0.3844854667331642,0.4,1.0,1.0,439.0,780.0,0.0,0,1781.0,0
817,817,0.7688431195825353,0.8,0.0,0.0,412.0,977.0,0.0,1,1611.0,1
818,818,-0.016758601488725655,-0.0,1.0,0.0,412.0,574.0,0.0,0,2014.0,1
819,819,0.06042729300952643,0.1,0.0,0.0,315.0,884.0,0.0,1,1801.0,1
820,820,0.07932688344755301,0.1,0.0,0.0,297.0,811.0,0.0,1,-948.0,1
821,821,-0.09498175702682832,-0.1,1.0,0.0,433.0,976.0,0.0,0,1591.0,1
822,822,0.14054573947514648,0.1,0.0,0.0,419.0,509.0,0.0,1,2072.0,1
823,823,0.8901525209676865,0.9,1.0,1.0,466.0,737.0,0.0,0,1797.0,0
824,824,-0.45670352238794804,-0.5,0.0,1.0,375.0,629.0,0.0,1,1996.0,0
825,825,0.21073749866203084,0.2,0.0,0.0,291.0,762.0,0.0,1,1947.0,1
826,826,-0.12198992093244354,-0.1,0.0,1.0,412.0,759.0,0.0,1,1829.0,0
827,827,0.18974721979468356,0.2,1.0,1.0,387.0,923.0,0.0,0,1690.0,0
828,828,0.5657233205134217,0.6,0.0,0.0,430.0,614.0,0.0,1,1956.0,1
829,829,-0.7175315928525559,-0.7,1.0,0.0,484.0,778.0,0.0,0,1738.0,1
830,830,-0.8906001596086811,-0.9,0.0,1.0,295.0,811.0,0.0,1,1894.0,0
831,831,0.3949963637558419,0.4,0.0,0.0,459.0,577.0,0.0,1,1964.0,1
832,832,0.7941822598709553,0.8,0.0,0.0,260.0,909.0,0.0,1,1831.0,1
833,833,-0.5707582633172086,-0.6,1.0,0.0,446.0,642.0,0.0,0,1912.0,1
834,834,-0.12440915078282333,-0.1,0.0,1.0,399.0,538.0,0.0,1,2063.0,0
835,835,0.30460182375369593,0.3,1.0,1.0,399.0,518.0,0.0,0,2083.0,0
836,836,0.48854675900020406,0.5,1.0,1.0,290.0,579.0,0.0,0,2131.0,0
837,837,-0.252363989744242,-0.3,1.0,0.0,254.0,921.0,0.0,0,1825.0,1
838,838,-0.08184099913106524,-0.1,0.0,1.0,339.0,591.0,0.0,1,2070.0,0
839,839,-0.16135353434494937,-0.2,1.0,0.0,281.0,910.0,0.0,0,1809.0,1
840,840,0.8736745236657039,0.9,1.0,1.0,417.0,952.0,0.0,0,1631.0,0
841,841,-0.3920929986520848,-0.4,1.0,0.0,354.0,688.0,0.0,0,1958.0,1
842,842,-0.10372732155552189,-0.1,1.0,0.0,400.0,707.0,0.0,0,1893.0,1
843,843,0.03327316359188637,0.0,1.0,1.0,417.0,760.0,0.0,0,1823.0,0
844,844,0.05378711640579126,0.1,1.0,1.0,330.0,900.0,0.0,0,1770.0,0
845,845,0.6000794741455305,0.6,1.0,1.0,312.0,648.0,0.0,0,2040.0,0
846,846,-0.022676835713730248,-0.0,0.0,1.0,449.0,613.0,0.0,1,1938.0,0
847,847,-0.24433972208996657,-0.2,0.0,1.0,461.0,929.0,0.0,1,1610.0,0
848,848,0.4483469420750691,0.4,1.0,1.0,319.0,617.0,0.0,0,2064.0,0
849,849,0.07554950360155144,0.1,0.0,0.0,407.0,757.0,0.0,1,1836.0,1
850,850,0.026531012928577513,0.0,1.0,1.0,362.0,872.0,0.0,0,1766.0,0
851,851,-0.8543621583131692,-0.9,1.0,0.0,363.0,548.0,0.0,0,2089.0,1
852,852,0.251868132698036,0.3,1.0,1.0,390.0,990.0,0.0,0,1620.0,0
853,853,-0.7852368328581274,-0.8,1.0,0.0,395.0,725.0,0.0,0,1880.0,1
854,854,-0.5758901198758675,-0.6,0.0,1.0,251.0,586.0,0.0,1,2163.0,0
855,855,0.2686065755988766,0.3,1.0,1.0,402.0,632.0,0.0,0,1966.0,0
856,856,-0.6072412722997629,-0.6,0.0,1.0,290.0,945.0,1.0,0,-1225.0,1
857,857,-0.7957186302958108,-0.8,0.0,1.0,448.0,948.0,0.0,1,1604.0,0
858,858,-0.8653257014686884,-0.9,0.0,1.0,344.0,767.0,0.0,1,1889.0,0
859,859,-0.19670857501035588,-0.2,1.0,0.0,294.0,802.0,0.0,0,1904.0,1
860,860,-0.16950783005390635,-0.2,0.0,1.0,364.0,653.0,0.0,1,1983.0,0
861,861,0.5754212646547273,0.6,1.0,1.0,359.0,880.0,0.0,0,1761.0,0
862,862,0.8973766317499828,0.9,1.0,1.0,303.0,670.0,1.0,1,-933.0,1
863,863,-0.7102528721065513,-0.7,1.0,0.0,319.0,532.0,0.0,0,2149.0,1
864,864,-0.5846153087611783,-0.6,1.0,0.0,376.0,922.0,0.0,0,1702.0,1
865,865,-0.03448086235826664,-0.0,1.0,0.0,413.0,994.0,0.0,0,1593.0,1
866,866,0.8064934376608878,0.8,1.0,1.0,312.0,535.0,0.0,0,2153.0,0
867,867,0.04441667779999814,0.0,1.0,1.0,385.0,576.0,0.0,0,2039.0,0
868,868,0.34776820080138393,0.3,1.0,1.0,314.0,773.0,0.0,0,1913.0,0
869,869,-0.023040854961054236,-0.0,0.0,1.0,257.0,729.0,0.0,1,2014.0,0
870,870,0.1538465144099398,0.2,1.0,1.0,422.0,672.0,0.0,0,1906.0,0
871,871,-0.29728805635964395,-0.3,0.0,1.0,304.0,720.0,0.0,1,1976.0,0
872,872,0.6937434271767665,0.7,1.0,1.0,466.0,963.0,0.0,0,1571.0,0
873,873,0.5727848431662649,0.6,1.0,1.0,260.0,803.0,0.0,0,1937.0,0
874,874,-0.496815520067265,-0.5,0.0,1.0,272.0,900.0,0.0,1,1828.0,0
875,875,0.01939662677182885,0.0,0.0,0.0,353.0,531.0,0.0,1,2116.0,1
876,876,-0.15852343199861785,-0.2,0.0,1.0,368.0,977.0,0.0,1,-1115.0,0
877,877,-0.560606154827734,-0.6,1.0,0.0,494.0,916.0,0.0,0,1590.0,1
878,878,0.8465213745496957,0.8,0.0,0.0,375.0,559.0,0.0,1,2066.0,1
879,879,-0.30928019426038433,-0.3,1.0,0.0,470.0,661.0,0.0,0,1869.0,1
880,880,0.3120656689603586,0.3,1.0,1.0,417.0,917.0,0.0,0,1666.0,0
881,881,0.02302485393519027,0.0,0.0,0.0,384.0,822.0,0.0,1,1794.0,1
882,882,-0.019434381703753445,-0.0,1.0,0.0,309.0,831.0,0.0,0,1860.0,1
883,883,0.37137638027778064,0.4,1.0,1.0,263.0,779.0,0.0,0,1958.0,0
884,884,-0.41390889761108923,-0.4,1.0,0.0,281.0,630.0,1.0,1,-581.0,0
885,885,0.665758075488258,0.7,0.0,0.0,363.0,648.0,1.0,0,-961.0,0
886,886,0.5601712218688878,0.6,1.0,1.0,292.0,553.0,0.0,0,2155.0,0
887,887,-0.5197862819846777,-0.5,0.0,1.0,337.0,823.0,0.0,1,1840.0,0
888,888,0.42121521132609774,0.4,1.0,1.0,319.0,726.0,0.0,0,1955.0,0
889,889,0.051739744381147146,0.1,1.0,1.0,340.0,519.0,0.0,0,2141.0,0
890,890,0.2020773524185021,0.2,0.0,0.0,485.0,951.0,0.0,1,1564.0,1
891,891,-0.740066058133309,-0.7,0.0,1.0,481.0,988.0,0.0,1,1531.0,0
892,892,0.2066434946478709,0.2,0.0,0.0,442.0,665.0,0.0,1,1893.0,1
893,893,-0.8993460244000383,-0.9,0.0,1.0,300.0,745.0,0.0,1,1955.0,0
894,894,0.11856311764589444,0.1,1.0,1.0,288.0,899.0,0.0,0,1813.0,0
895,895,-0.7600627273755735,-0.8,1.0,0.0,349.0,948.0,0.0,0,1703.0,1
896,896,-0.1401303198480186,-0.1,0.0,1.0,367.0,738.0,0.0,1,1895.0,0
897,897,-0.5555779483037487,-0.6,0.0,1.0,374.0,789.0,0.0,1,1837.0,0
898,898,0.6935061799823722,0.7,0.0,0.0,368.0,593.0,0.0,1,2039.0,1
899,899,-0.8385845908616754,-0.8,1.0,0.0,435.0,719.0,0.0,0,1846.0,1
900,900,0.7899342257597334,0.8,1.0,1.0,453.0,765.0,0.0,0,1782.0,0
901,901,0.3853493256707058,0.4,1.0,1.0,349.0,662.0,0.0,0,1989.0,0
902,902,0.8431982833387072,0.8,0.0,0.0,294.0,714.0,0.0,1,1992.0,1
903,903,-0.2419769943746235,-0.2,0.0,1.0,418.0,624.0,0.0,1,1958.0,0
904,904,-0.2494534845890346,-0.2,1.0,0.0,341.0,737.0,0.0,0,1922.0,1
905,905,0.474748901570743,0.5,1.0,1.0,423.0,620.0,0.0,0,1957.0,0
906,906,-0.10180859411632326,-0.1,0.0,1.0,400.0,951.0,0.0,1,1649.0,0
907,907,-0.767387944376732,-0.8,1.0,0.0,293.0,634.0,1.0,1,-927.0,0
908,908,0.07377497050948245,0.1,1.0,1.0,407.0,801.0,0.0,0,1792.0,0
909,909,-0.0740726759348711,-0.1,1.0,0.0,349.0,767.0,0.0,0,1884.0,1
910,910,-0.6139076865173303,-0.6,1.0,0.0,269.0,623.0,0.0,0,2108.0,1
911,911,-0.5605251081816924,-0.6,0.0,1.0,495.0,949.0,0.0,1,1556.0,0
912,912,0.5075847611381118,0.5,1.0,1.0,418.0,574.0,0.0,0,2008.0,0
913,913,0.13385704373130614,0.1,0.0,0.0,404.0,631.0,0.0,1,1965.0,1
914,914,0.6528282402059585,0.7,0.0,0.0,373.0,936.0,0.0,1,-969.0,1
915,915,0.7977652264618506,0.8,1.0,1.0,322.0,924.0,0.0,0,1754.0,0
916,916,-0.7375987646655521,-0.7,0.0,1.0,413.0,583.0,0.0,1,2004.0,0
917,917,-0.5650135162998727,-0.6,1.0,0.0,457.0,706.0,0.0,0,1837.0,1
918,918,-0.05772019213982549,-0.1,1.0,0.0,462.0,761.0,0.0,0,1777.0,1
919,919,0.40713777993986666,0.4,0.0,0.0,400.0,949.0,0.0,1,1651.0,1
920,920,0.6986531782981692,0.7,1.0,1.0,397.0,875.0,0.0,0,1728.0,0
921,921,0.5910773249014917,0.6,1.0,1.0,447.0,964.0,0.0,0,1589.0,0
922,922,-0.6088660352642495,-0.6,0.0,1.0,453.0,812.0,0.0,1,1735.0,0
923,923,-0.24228835681119476,-0.2,0.0,1.0,301.0,575.0,0.0,1,2124.0,0
924,924,0.5182020325239604,0.5,0.0,0.0,339.0,684.0,1.0,0,-1003.0,0
925,925,-0.8405468042277848,-0.8,0.0,1.0,334.0,663.0,0.0,1,2003.0,0
926,926,0.3710496971744376,0.4,0.0,0.0,393.0,643.0,1.0,0,-1006.0,0
927,927,0.12291962784724808,0.1,1.0,1.0,494.0,592.0,0.0,0,1914.0,0
928,928,0.5198527029105194,0.5,1.0,1.0,350.0,553.0,0.0,0,2097.0,0
929,929,0.8726392788837422,0.9,0.0,0.0,429.0,727.0,0.0,1,1844.0,1
930,930,0.6285056835394979,0.6,0.0,0.0,334.0,550.0,0.0,1,2116.0,1
931,931,0.8577455407050906,0.9,0.0,0.0,435.0,775.0,0.0,1,1790.0,1
932,932,0.4412827289901958,0.4,1.0,1.0,419.0,765.0,0.0,0,1816.0,0
933,933,0.7969938921958611,0.8,1.0,1.0,299.0,632.0,0.0,0,2069.0,0
934,934,0.004155842345119676,0.0,1.0,1.0,341.0,660.0,0.0,0,1999.0,0
935,935,-0.22738807831848917,-0.2,0.0,1.0,304.0,903.0,0.0,1,1793.0,0
936,936,0.2755828561589503,0.3,1.0,1.0,381.0,769.0,0.0,0,1850.0,0
937,937,0.24705613774125135,0.2,0.0,0.0,358.0,862.0,0.0,1,1780.0,1
938,938,0.03064233083017953,0.0,0.0,0.0,398.0,874.0,0.0,1,-1152.0,1
939,939,-0.8087661776182014,-0.8,0.0,1.0,298.0,843.0,0.0,1,1859.0,0
940,940,0.8432628132980656,0.8,1.0,1.0,282.0,664.0,0.0,0,2054.0,0
941,941,-0.8168002407955592,-0.8,0.0,1.0,388.0,510.0,0.0,1,2102.0,0
942,942,-0.5976531735926351,-0.6,0.0,1.0,453.0,532.0,0.0,1,2015.0,0
943,943,-0.7544375625026047,-0.8,1.0,0.0,252.0,765.0,0.0,0,1983.0,1
944,944,0.690354296895015,0.7,0.0,0.0,428.0,570.0,1.0,0,-948.0,0
945,945,-0.8410309511761642,-0.8,0.0,1.0,346.0,661.0,0.0,1,1993.0,0
946,946,0.14164169048801234,0.1,1.0,1.0,437.0,576.0,0.0,0,1987.0,0
947,947,0.26958043719914493,0.3,0.0,0.0,300.0,990.0,0.0,1,1710.0,1
948,948,-0.23903463709670802,-0.2,1.0,0.0,250.0,508.0,0.0,0,2242.0,1
949,949,0.5692475773781999,0.6,0.0,0.0,399.0,680.0,0.0,1,1921.0,1
950,950,-0.7599239919197867,-0.8,0.0,1.0,488.0,649.0,0.0,1,1863.0,0
951,951,0.8970245192647496,0.9,1.0,1.0,460.0,605.0,0.0,0,1935.0,0
952,952,0.19571166608942725,0.2,1.0,1.0,405.0,950.0,0.0,0,1645.0,0
953,953,-0.5528712841061842,-0.6,0.0,1.0,263.0,818.0,0.0,1,1919.0,0
954,954,-0.7971547866573254,-0.8,1.0,0.0,452.0,881.0,0.0,0,1667.0,1
955,955,-0.7288607847188711,-0.7,0.0,1.0,260.0,683.0,0.0,1,-803.0,0
956,956,0.8091338191105276,0.8,0.0,0.0,445.0,685.0,0.0,1,1870.0,1
957,957,-0.26661642761101023,-0.3,1.0,0.0,470.0,910.0,0.0,0,1620.0,1
958,958,0.12174394479614536,0.1,0.0,0.0,357.0,997.0,0.0,1,1646.0,1
959,959,0.779445737367762,0.8,0.0,0.0,380.0,799.0,0.0,1,1821.0,1
960,960,0.22449200411719616,0.2,1.0,1.0,357.0,814.0,0.0,0,1829.0,0
961,961,-0.17378584460159086,-0.2,0.0,1.0,416.0,581.0,0.0,1,2003.0,0
962,962,0.6880283768220722,0.7,0.0,0.0,265.0,932.0,0.0,1,1803.0,1
963,963,0.1538947661499438,0.2,1.0,1.0,389.0,804.0,0.0,0,1807.0,0
964,964,-0.11894108125281733,-0.1,0.0,1.0,283.0,980.0,0.0,1,1737.0,0
965,965,0.07520157895583068,0.1,0.0,0.0,407.0,876.0,0.0,1,1717.0,1
966,966,-0.3372847749736031,-0.3,0.0,1.0,488.0,789.0,0.0,1,1723.0,0
967,967,0.20042092006165946,0.2,1.0,1.0,436.0,538.0,0.0,0,2026.0,0
968,968,0.5878207389941706,0.6,1.0,1.0,490.0,532.0,0.0,0,1978.0,0
969,969,0.24594175937188945,0.2,1.0,1.0,411.0,743.0,0.0,0,1846.0,0
970,970,-0.13774831040789337,-0.1,1.0,0.0,323.0,857.0,0.0,0,1820.0,1
971,971,0.08677475673307056,0.1,1.0,1.0,318.0,574.0,0.0,0,2108.0,0
972,972,-0.4802434347784372,-0.5,0.0,1.0,327.0,829.0,0.0,1,1844.0,0
973,973,0.24972802664893556,0.2,0.0,0.0,313.0,673.0,0.0,1,2014.0,1
974,974,-0.7886617908795924,-0.8,0.0,1.0,387.0,916.0,0.0,1,1697.0,0
975,975,0.30313979312029626,0.3,0.0,0.0,378.0,972.0,0.0,1,1650.0,1
976,976,-0.314519342458895,-0.3,0.0,1.0,327.0,698.0,0.0,1,1975.0,0
977,977,0.5375990163219148,0.5,1.0,1.0,418.0,906.0,0.0,0,-1234.0,0
978,978,-0.08857017288291025,-0.1,1.0,0.0,424.0,950.0,0.0,0,1626.0,1
979,979,0.459101962489901,0.5,0.0,0.0,269.0,932.0,0.0,1,1799.0,1
980,980,-0.3914728087603032,-0.4,1.0,0.0,291.0,780.0,0.0,0,1929.0,1
981,981,0.6790974094610244,0.7,0.0,0.0,489.0,736.0,0.0,1,1775.0,1
982,982,0.37479694696112775,0.4,1.0,1.0,431.0,657.0,0.0,0,1912.0,0
983,983,-0.1477162864996201,-0.1,1.0,0.0,268.0,608.0,0.0,0,2124.0,1
984,984,0.31492236827701314,0.3,0.0,0.0,453.0,668.0,0.0,1,1879.0,1
985,985,0.6128183306619112,0.6,1.0,1.0,435.0,548.0,0.0,0,2017.0,0
986,986,-0.24276891928437094,-0.2,1.0,0.0,404.0,884.0,0.0,0,1712.0,1
987,987,-0.805626780166383,-0.8,0.0,1.0,443.0,585.0,0.0,1,1972.0,0
988,988,-0.8097462221347569,-0.8,0.0,1.0,463.0,878.0,0.0,1,1659.0,0
989,989,-0.39214851606363677,-0.4,0.0,1.0,425.0,594.0,0.0,1,1981.0,0
990,990,0.3599904439094669,0.4,0.0,0.0,442.0,919.0,0.0,1,1639.0,1
991,991,-0.3326963275948188,-0.3,0.0,1.0,448.0,670.0,0.0,1,1882.0,0
992,992,0.06856544604375003,0.1,0.0,0.0,312.0,926.0,0.0,1,1762.0,1
993,993,-0.84587588181959,-0.8,0.0,1.0,442.0,940.0,0.0,1,1618.0,0
994,994,-0.3900970579109405,-0.4,1.0,0.0,489.0,834.0,0.0,0,1677.0,1
995,995,0.10981360676933549,0.1,0.0,0.0,414.0,590.0,1.0,0,-994.0,0
996,996,0.16515795064489802,0.2,1.0,1.0,403.0,851.0,0.0,0,1746.0,0
997,997,0.8716685545680297,0.9,1.0,1.0,256.0,590.0,0.0,0,2154.0,0
998,998,0.06573290109036867,0.1,1.0,1.0,343.0,853.0,0.0,0,1804.0,0
999,999,-0.8220980247850471,-0.8,0.0,1.0,275.0,659.0,0.0,1,2066.0,0
1000,1000,-0.7956979375808595,-0.8,1.0,0.0,273.0,983.0,0.0,0,1744.0,1
1001,1001,0.06399447449840134,0.1,0.0,0.0,460.0,708.0,0.0,1,1832.0,1
1002,1002,-0.7215073811115112,-0.7,0.0,1.0,290.0,696.0,0.0,1,2014.0,0
1003,1003,0.4302998693606507,0.4,1.0,1.0,439.0,633.0,0.0,0,1928.0,0
1004,1004,0.4859653120042361,0.5,1.0,1.0,304.0,875.0,0.0,0,1821.0,0
1005,1005,0.5361586165189581,0.5,1.0,1.0,439.0,792.0,0.0,0,1769.0,0
1006,1006,0.08167475222420884,0.1,1.0,1.0,298.0,542.0,1.0,1,-720.0,1
1007,1007,0.7646307544998064,0.8,1.0,1.0,288.0,754.0,0.0,0,1958.0,0
1008,1008,0.4766713467211813,0.5,0.0,0.0,367.0,541.0,0.0,1,2092.0,1
1009,1009,-0.6647245800950824,-0.7,1.0,0.0,399.0,909.0,0.0,0,1692.0,1
1010,1010,-0.8539162986997492,-0.9,1.0,0.0,292.0,921.0,0.0,0,1787.0,1
1011,1011,0.20647496854732694,0.2,1.0,1.0,334.0,890.0,0.0,0,1776.0,0
1012,1012,-0.014143435801194038,-0.0,0.0,1.0,300.0,739.0,0.0,1,1961.0,0
1013,1013,-0.08439175319145686,-0.1,0.0,1.0,289.0,846.0,0.0,1,1865.0,0
1014,1014,-0.6872292875548741,-0.7,1.0,0.0,253.0,776.0,0.0,0,1971.0,1
1015,1015,-0.1914749759285873,-0.2,1.0,0.0,459.0,534.0,0.0,0,2007.0,1
1016,1016,0.6651945152285962,0.7,1.0,1.0,485.0,927.0,0.0,0,1588.0,0
1017,1017,-0.13361274235928544,-0.1,1.0,0.0,495.0,649.0,0.0,0,1856.0,1
1018,1018,-0.7417350601250609,-0.7,1.0,0.0,473.0,958.0,0.0,0,1569.0,1
1019,1019,-0.1276158240748393,-0.1,0.0,1.0,421.0,918.0,0.0,1,1661.0,0
1020,1020,-0.1898244306466631,-0.2,1.0,0.0,294.0,627.0,0.0,0,2079.0,1
1021,1021,-0.3883656770894336,-0.4,1.0,0.0,335.0,679.0,0.0,0,1986.0,1
1022,1022,-0.5396666697864156,-0.5,0.0,1.0,400.0,798.0,0.0,1,1802.0,0
1023,1023,-0.0022206001263449515,-0.0,0.0,1.0,427.0,999.0,0.0,1,1574.0,0
1024,1024,-0.21374698799399805,-0.2,0.0,1.0,495.0,871.0,0.0,1,1634.0,0
1025,1025,0.1750832290975567,0.2,1.0,1.0,460.0,939.0,0.0,0,1601.0,0
1026,1026,0.18554978456931537,0.2,1.0,1.0,453.0,825.0,0.0,0,1722.0,0
1027,1027,-0.5051595655793535,-0.5,0.0,1.0,376.0,834.0,0.0,1,1790.0,0
1028,1028,-0.7094232211192908,-0.7,1.0,0.0,332.0,793.0,0.0,0,1875.0,1
1029,1029,-0.7836001866537669,-0.8,0.0,1.0,263.0,952.0,0.0,1,1785.0,0
1030,1030,-0.07533638823380429,-0.1,1.0,0.0,340.0,788.0,0.0,0,1872.0,1
1031,1031,-0.5378339256542817,-0.5,0.0,1.0,305.0,762.0,0.0,1,1933.0,0
1032,1032,-0.3232854337618515,-0.3,0.0,1.0,251.0,678.0,0.0,1,2071.0,0
1033,1033,0.7352312074946324,0.7,0.0,0.0,329.0,745.0,0.0,1,1926.0,1
1034,1034,0.6464429895397711,0.6,0.0,0.0,302.0,695.0,0.0,1,2003.0,1
1035,1035,-0.28936380811023255,-0.3,1.0,0.0,293.0,706.0,0.0,0,2001.0,1
1036,1036,0.28091178183696475,0.3,0.0,0.0,252.0,741.0,0.0,1,2007.0,1
1037,1037,-0.7165094545992727,-0.7,0.0,1.0,393.0,902.0,0.0,1,1705.0,0
1038,1038,0.5794784658168973,0.6,1.0,1.0,267.0,979.0,0.0,0,1754.0,0
1039,1039,0.4309188248820225,0.4,1.0,1.0,318.0,836.0,0.0,0,1846.0,0
1040,1040,0.37860228907488824,0.4,0.0,0.0,267.0,638.0,0.0,1,2095.0,1
1041,1041,-0.13110220306302256,-0.1,1.0,0.0,311.0,806.0,0.0,0,1883.0,1
1042,1042,-0.2220238826001245,-0.2,0.0,1.0,331.0,757.0,0.0,1,1912.0,0
1043,1043,-0.6426055560314685,-0.6,0.0,1.0,331.0,900.0,0.0,1,-1091.0,0
1044,1044,0.602193775361313,0.6,0.0,0.0,490.0,580.0,0.0,1,-1040.0,1
1045,1045,-0.04237282163853906,-0.0,0.0,1.0,302.0,506.0,0.0,1,2192.0,0
1046,1046,-0.4526885578299023,-0.5,1.0,0.0,480.0,550.0,0.0,0,1970.0,1
1047,1047,0.6606730416128764,0.7,0.0,0.0,375.0,922.0,0.0,1,1703.0,1
1048,1048,0.8561206572331702,0.9,0.0,0.0,421.0,526.0,0.0,1,2053.0,1
1049,1049,-0.08465051833611459,-0.1,0.0,1.0,409.0,897.0,0.0,1,1694.0,0
1050,1050,-0.24709794968612797,-0.2,0.0,1.0,366.0,977.0,0.0,1,1657.0,0
1051,1051,-0.12192200889503968,-0.1,0.0,1.0,382.0,764.0,0.0,1,1854.0,0
1052,1052,-0.1451387205990574,-0.1,0.0,1.0,366.0,530.0,0.0,1,2104.0,0
1053,1053,0.35347099225189227,0.4,0.0,0.0,493.0,558.0,0.0,1,1949.0,1
1054,1054,0.7420502469671494,0.7,0.0,0.0,269.0,916.0,0.0,1,1815.0,1
1055,1055,0.5234505082741859,0.5,1.0,1.0,316.0,602.0,0.0,0,2082.0,0
1056,1056,-0.4448591885836474,-0.4,0.0,1.0,366.0,575.0,0.0,1,2059.0,0
1057,1057,-0.7649902497040686,-0.8,0.0,1.0,305.0,891.0,0.0,1,1804.0,0
1058,1058,-0.7614061924446421,-0.8,0.0,1.0,470.0,980.0,0.0,1,1550.0,0
1059,1059,0.11550396560236409,0.1,1.0,1.0,265.0,745.0,0.0,0,1990.0,0
1060,1060,0.7670424710732199,0.8,0.0,0.0,431.0,769.0,0.0,1,1800.0,1
1061,1061,0.3997795524389426,0.4,0.0,0.0,428.0,741.0,0.0,1,1831.0,1
1062,1062,-0.5403883319620306,-0.5,0.0,1.0,445.0,578.0,0.0,1,1977.0,0
1063,1063,0.10998783600136763,0.1,1.0,1.0,389.0,913.0,0.0,0,1698.0,0
1064,1064,-0.8042246510372738,-0.8,0.0,1.0,416.0,926.0,0.0,1,1658.0,0
1065,1065,0.2592126591193563,0.3,1.0,1.0,382.0,919.0,0.0,0,-1071.0,0
1066,1066,0.410980818034853,0.4,1.0,1.0,492.0,547.0,0.0,0,1961.0,0
1067,1067,-0.6239913120358783,-0.6,1.0,0.0,470.0,612.0,0.0,0,1918.0,1
1068,1068,-0.7544064583997742,-0.8,1.0,0.0,414.0,505.0,0.0,0,2081.0,1
1069,1069,0.037919055196031115,0.0,1.0,1.0,446.0,546.0,0.0,0,2008.0,0
1070,1070,0.6724899706896964,0.7,0.0,0.0,419.0,738.0,0.0,1,1843.0,1
1071,1071,-0.2321147870129716,-0.2,1.0,0.0,366.0,866.0,0.0,0,1768.0,1
1072,1072,-0.6337825573885307,-0.6,0.0,1.0,462.0,893.0,0.0,1,1645.0,0
1073,1073,-0.26541643931081427,-0.3,0.0,1.0,492.0,625.0,0.0,1,1883.0,0
1074,1074,-0.4925100534040489,-0.5,0.0,1.0,398.0,948.0,1.0,0,-1306.0,1
1075,1075,-0.6113808578257467,-0.6,1.0,0.0,364.0,566.0,0.0,0,2070.0,1
1076,1076,0.11818212398644634,0.1,0.0,0.0,363.0,708.0,0.0,1,1929.0,1
1077,1077,-0.46443055748556394,-0.5,0.0,1.0,393.0,964.0,1.0,0,-1237.0,1
1078,1078,-0.6533585495121209,-0.7,1.0,0.0,325.0,574.0,0.0,0,2101.0,1
1079,1079,-0.36596947827815873,-0.4,1.0,0.0,496.0,903.0,0.0,0,1601.0,1
1080,1080,-0.12320404374089111,-0.1,1.0,0.0,261.0,670.0,0.0,0,2069.0,1
1081,1081,-0.1253747058088951,-0.1,1.0,0.0,251.0,743.0,0.0,0,2006.0,1
1082,1082,0.8178903147457798,0.8,0.0,0.0,299.0,924.0,0.0,1,1777.0,1
1083,1083,-0.08168887975914474,-0.1,0.0,1.0,260.0,674.0,0.0,1,2066.0,0
1084,1084,0.3042986698799047,0.3,0.0,0.0,381.0,847.0,0.0,1,1772.0,1
1085,1085,0.21373685476242266,0.2,1.0,1.0,418.0,545.0,0.0,0,2037.0,0
1086,1086,0.8074470819224208,0.8,0.0,0.0,452.0,565.0,0.0,1,1983.0,1
1087,1087,-0.6761593453038484,-0.7,1.0,0.0,459.0,580.0,0.0,0,1961.0,1
1088,1088,-0.004067140804421832,-0.0,0.0,1.0,473.0,846.0,0.0,1,1681.0,0
1089,1089,-0.3398180870770984,-0.3,1.0,0.0,329.0,546.0,0.0,0,2125.0,1
1090,1090,0.3874272898766905,0.4,0.0,0.0,377.0,857.0,0.0,1,1766.0,1
1091,1091,-0.8443446397457325,-0.8,0.0,1.0,276.0,846.0,0.0,1,1878.0,0
1092,1092,-0.4974971891636324,-0.5,0.0,1.0,288.0,719.0,0.0,1,1993.0,0
1093,1093,-0.14540452266004855,-0.1,0.0,1.0,250.0,629.0,0.0,1,2121.0,0
1094,1094,-0.3363787702223865,-0.3,0.0,1.0,324.0,859.0,0.0,1,1817.0,0
1095,1095,-0.6578345604407011,-0.7,1.0,0.0,436.0,753.0,0.0,0,1811.0,1
1096,1096,-0.4845671197471692,-0.5,1.0,0.0,272.0,635.0,0.0,0,2093.0,1
1097,1097,-0.6086899359527251,-0.6,1.0,0.0,311.0,753.0,0.0,0,1936.0,1
1098,1098,-0.11192390865961899,-0.1,1.0,0.0,432.0,600.0,0.0,0,1968.0,1
1099,1099,0.7479467722386605,0.7,0.0,0.0,330.0,552.0,0.0,1,2118.0,1
1100,1100,0.7981806283102052,0.8,0.0,0.0,341.0,869.0,0.0,1,-1170.0,1
1101,1101,-0.32685529014725667,-0.3,1.0,0.0,251.0,547.0,0.0,0,2202.0,1
1102,1102,0.34123638797956957,0.3,1.0,1.0,269.0,807.0,0.0,0,1924.0,0
1103,1103,0.8512359732510618,0.9,1.0,1.0,450.0,757.0,0.0,0,1793.0,0
1104,1104,-0.1927827001090765,-0.2,0.0,1.0,350.0,871.0,0.0,1,1779.0,0
1105,1105,-0.8995120682445842,-0.9,0.0,1.0,464.0,649.0,0.0,1,1887.0,0
1106,1106,0.2333251180260495,0.2,1.0,1.0,360.0,999.0,0.0,0,1641.0,0
1107,1107,0.42108950641345133,0.4,0.0,0.0,263.0,794.0,0.0,1,1943.0,1
1108,1108,0.8804873628928808,0.9,0.0,0.0,448.0,973.0,0.0,1,1579.0,1
1109,1109,0.5061856103685919,0.5,0.0,0.0,278.0,850.0,0.0,1,1872.0,1
1110,1110,-0.8391770268836886,-0.8,1.0,0.0,402.0,750.0,0.0,0,-1052.0,1
1111,1111,-0.737219205634235,-0.7,1.0,0.0,348.0,664.0,0.0,0,1988.0,1
1112,1112,0.19486376085539991,0.2,0.0,0.0,282.0,766.0,0.0,1,1952.0,1
1113,1113,0.09114609193714251,0.1,0.0,0.0,474.0,939.0,0.0,1,1587.0,1
1114,1114,0.5174926396422866,0.5,0.0,0.0,376.0,650.0,0.0,1,1974.0,1
1115,1115,0.18315144622749624,0.2,0.0,0.0,489.0,819.0,0.0,1,1692.0,1
1116,1116,-0.6357533607850319,-0.6,1.0,0.0,492.0,509.0,0.0,0,1999.0,1
1117,1117,0.8891275910493507,0.9,0.0,0.0,435.0,630.0,0.0,1,1935.0,1
1118,1118,0.6713936995668323,0.7,1.0,1.0,491.0,532.0,0.0,0,-923.0,0
1119,1119,0.551492440048908,0.6,1.0,1.0,391.0,774.0,0.0,0,1835.0,0
1120,1120,0.5124671978490319,0.5,0.0,0.0,347.0,975.0,0.0,1,1678.0,1
1121,1121,-0.4227785595600928,-0.4,1.0,0.0,260.0,689.0,0.0,0,2051.0,1
1122,1122,0.5906933013675432,0.6,1.0,1.0,420.0,632.0,0.0,0,1948.0,0
1123,1123,-0.43996639337898763,-0.4,0.0,1.0,485.0,915.0,0.0,1,1600.0,0
1124,1124,-0.4232485572803287,-0.4,0.0,1.0,471.0,795.0,0.0,1,1734.0,0
1125,1125,0.8166877664011666,0.8,0.0,0.0,494.0,613.0,0.0,1,1893.0,1
1126,1126,-0.8619272560769626,-0.9,0.0,1.0,305.0,836.0,0.0,1,1859.0,0
1127,1127,-0.5187777634545709,-0.5,1.0,0.0,319.0,717.0,0.0,0,1964.0,1
1128,1128,-0.2833277333973131,-0.3,1.0,0.0,431.0,908.0,0.0,0,1661.0,1
1129,1129,0.04353699075699191,0.0,1.0,1.0,344.0,593.0,0.0,0,2063.0,0
1130,1130,-0.48957030632946624,-0.5,1.0,0.0,358.0,982.0,0.0,0,1660.0,1
1131,1131,-0.0860911221457118,-0.1,1.0,0.0,304.0,860.0,0.0,0,1836.0,1
1132,1132,0.11200071844252901,0.1,0.0,0.0,344.0,585.0,0.0,1,2071.0,1
1133,1133,-0.02291953492283405,-0.0,0.0,1.0,283.0,666.0,0.0,1,2051.0,0
1134,1134,0.4876616391772367,0.5,0.0,0.0,341.0,904.0,0.0,1,1755.0,1
1135,1135,0.6868947624347342,0.7,1.0,1.0,289.0,964.0,0.0,0,1747.0,0
1136,1136,-0.4560443890250762,-0.5,0.0,1.0,402.0,835.0,0.0,1,1763.0,0
1137,1137,0.8638978131690672,0.9,1.0,1.0,313.0,624.0,0.0,0,2063.0,0
1138,1138,-0.2538455388602292,-0.3,1.0,0.0,440.0,539.0,1.0,1,-779.0,0
1139,1139,-0.22544600878347243,-0.2,0.0,1.0,334.0,674.0,0.0,1,-898.0,0
1140,1140,0.6729245742527569,0.7,1.0,1.0,404.0,644.0,0.0,0,1952.0,0
1141,1141,0.8723475232134,0.9,1.0,1.0,378.0,543.0,0.0,0,2079.0,0
1142,1142,0.47822790020231987,0.5,0.0,0.0,419.0,628.0,0.0,1,1953.0,1
1143,1143,0.1014664825638184,0.1,0.0,0.0,260.0,749.0,0.0,1,1991.0,1
1144,1144,0.40064389026496994,0.4,0.0,0.0,294.0,590.0,1.0,0,-794.0,0
1145,1145,-0.3530088163409687,-0.4,0.0,1.0,423.0,791.0,0.0,1,1786.0,0
1146,1146,-0.8858994801619124,-0.9,0.0,1.0,397.0,732.0,0.0,1,1871.0,0
1147,1147,-0.3493090034031806,-0.3,1.0,0.0,298.0,872.0,0.0,0,1830.0,1
1148,1148,-0.6758653949564896,-0.7,1.0,0.0,402.0,788.0,0.0,0,1810.0,1
1149,1149,0.44718234019412983,0.4,1.0,1.0,450.0,883.0,1.0,1,-1323.0,1
1150,1150,-0.4042277038241912,-0.4,0.0,1.0,436.0,705.0,0.0,1,1859.0,0
1151,1151,0.86747001357088,0.9,1.0,1.0,397.0,616.0,0.0,0,1987.0,0
1152,1152,-0.888305707617956,-0.9,1.0,0.0,363.0,842.0,0.0,0,1795.0,1
1153,1153,0.29107427677970643,0.3,1.0,1.0,389.0,836.0,0.0,0,1775.0,0
1154,1154,0.3351800118474363,0.3,0.0,0.0,445.0,514.0,0.0,1,2041.0,1
1155,1155,0.26917634231869536,0.3,0.0,0.0,342.0,589.0,0.0,1,2069.0,1
1156,1156,-0.7299678024685468,-0.7,1.0,0.0,381.0,899.0,0.0,0,1720.0,1
1157,1157,-0.2960753763334566,-0.3,1.0,0.0,252.0,824.0,0.0,0,1924.0,1
1158,1158,-0.47724924785715905,-0.5,0.0,1.0,477.0,821.0,0.0,1,1702.0,0
1159,1159,0.06938651099224125,0.1,0.0,0.0,460.0,835.0,0.0,1,1705.0,1
1160,1160,-0.6295170488324366,-0.6,0.0,1.0,367.0,726.0,1.0,0,-1073.0,1
1161,1161,0.19883126575708177,0.2,1.0,1.0,333.0,566.0,0.0,0,-889.0,0
1162,1162,-0.8741484465983878,-0.9,1.0,0.0,473.0,901.0,0.0,0,-1074.0,1
1163,1163,-0.46438721233244656,-0.5,1.0,0.0,336.0,653.0,0.0,0,2011.0,1
1164,1164,-0.1087067150579768,-0.1,0.0,1.0,337.0,862.0,0.0,1,1801.0,0
1165,1165,-0.14988732063045973,-0.1,0.0,1.0,383.0,669.0,0.0,1,1948.0,0
1166,1166,-0.6047353472036328,-0.6,1.0,0.0,385.0,852.0,0.0,0,1763.0,1
1167,1167,0.6816857534277777,0.7,1.0,1.0,437.0,617.0,0.0,0,1946.0,0
1168,1168,-0.7476760463201146,-0.7,1.0,0.0,385.0,962.0,0.0,0,1653.0,1
1169,1169,-0.1533187180386707,-0.2,0.0,1.0,270.0,857.0,0.0,1,1873.0,0
1170,1170,-0.6765029850460957,-0.7,1.0,0.0,272.0,721.0,0.0,0,2007.0,1
1171,1171,0.03447331484092131,0.0,0.0,0.0,319.0,661.0,0.0,1,2020.0,1
1172,1172,0.007786944969096599,0.0,0.0,0.0,488.0,813.0,0.0,1,1699.0,1
1173,1173,0.015654398862076646,0.0,1.0,1.0,337.0,592.0,0.0,0,2071.0,0
1174,1174,-0.6404161189440198,-0.6,1.0,0.0,317.0,544.0,0.0,0,2139.0,1
1175,1175,0.556888725835703,0.6,0.0,0.0,457.0,557.0,0.0,1,1986.0,1
1176,1176,-0.5554456233756622,-0.6,0.0,1.0,344.0,684.0,0.0,1,1972.0,0
1177,1177,-0.22883749282645105,-0.2,1.0,0.0,307.0,757.0,0.0,0,1936.0,1
1178,1178,0.16341202067918015,0.2,1.0,1.0,288.0,651.0,0.0,0,2061.0,0
1179,1179,-0.3836611671042055,-0.4,0.0,1.0,421.0,923.0,0.0,1,1656.0,0
1180,1180,0.8051571271036634,0.8,0.0,0.0,258.0,716.0,0.0,1,2026.0,1
1181,1181,0.7464962371757345,0.7,1.0,1.0,260.0,745.0,0.0,0,1995.0,0
1182,1182,-0.6894113144707201,-0.7,0.0,1.0,373.0,506.0,0.0,1,2121.0,0
1183,1183,-0.06189303720020489,-0.1,0.0,1.0,322.0,566.0,1.0,0,-868.0,1
1184,1184,-0.05639829639074889,-0.1,1.0,0.0,495.0,797.0,0.0,0,1708.0,1
1185,1185,0.8061172477913628,0.8,1.0,1.0,353.0,585.0,0.0,0,2062.0,0
1186,1186,-0.7030911365085628,-0.7,1.0,0.0,493.0,694.0,0.0,0,1813.0,1
1187,1187,0.237154850422438,0.2,0.0,0.0,292.0,544.0,0.0,1,2164.0,1
1188,1188,0.02568850215072127,0.0,1.0,1.0,253.0,939.0,0.0,0,1808.0,0
1189,1189,0.379193486818992,0.4,0.0,0.0,467.0,833.0,0.0,1,1700.0,1
1190,1190,-0.05287192703609234,-0.1,0.0,1.0,268.0,533.0,0.0,1,-721.0,0
1191,1191,-0.006442331801690182,-0.0,0.0,1.0,291.0,783.0,0.0,1,1926.0,0
1192,1192,-0.36131341069450695,-0.4,1.0,0.0,382.0,875.0,0.0,0,1743.0,1
1193,1193,0.6972402704907094,0.7,0.0,0.0,379.0,758.0,0.0,1,1863.0,1
1194,1194,0.43777019832788,0.4,1.0,1.0,455.0,503.0,0.0,0,2042.0,0
1195,1195,0.39228773700461483,0.4,1.0,1.0,432.0,690.0,0.0,0,1878.0,0
1196,1196,0.7608896420270895,0.8,0.0,0.0,347.0,990.0,0.0,1,1663.0,1
1197,1197,-0.44320635953123305,-0.4,0.0,1.0,383.0,532.0,0.0,1,-775.0,0
1198,1198,0.7689967349711956,0.8,1.0,1.0,310.0,608.0,0.0,0,2082.0,0
1199,1199,-0.34625979848420063,-0.3,1.0,0.0,330.0,965.0,0.0,0,1705.0,1
1200,1200,0.5172259419295276,0.5,1.0,1.0,311.0,612.0,0.0,0,2077.0,0
1201,1201,0.5301455968372853,0.5,0.0,0.0,349.0,748.0,0.0,1,1903.0,1
1202,1202,-0.8756956093805439,-0.9,0.0,1.0,328.0,706.0,0.0,1,-954.0,0
1203,1203,0.8238240171386325,0.8,0.0,0.0,382.0,568.0,0.0,1,2050.0,1
1204,1204,0.6033982943330934,0.6,0.0,0.0,481.0,944.0,0.0,1,1575.0,1
1205,1205,0.18314764882372814,0.2,0.0,0.0,322.0,676.0,0.0,1,2002.0,1
1206,1206,0.7062850813120297,0.7,0.0,0.0,365.0,969.0,0.0,1,1666.0,1
1207,1207,-0.23428142578950995,-0.2,1.0,0.0,374.0,930.0,0.0,0,1696.0,1
1208,1208,-0.18781710592661305,-0.2,0.0,1.0,367.0,519.0,0.0,1,2114.0,0
1209,1209,-0.455724112141767,-0.5,0.0,1.0,456.0,519.0,0.0,1,2025.0,0
1210,1210,0.5867216104095797,0.6,1.0,1.0,302.0,577.0,1.0,1,-849.0,1
1211,1211,0.21011049326523878,0.2,1.0,1.0,412.0,953.0,0.0,0,1635.0,0
1212,1212,0.005909010438740259,0.0,0.0,0.0,291.0,759.0,0.0,1,1950.0,1
1213,1213,0.16373774042131528,0.2,1.0,1.0,422.0,550.0,0.0,0,2028.0,0
1214,1214,0.8636642162489255,0.9,0.0,0.0,314.0,772.0,0.0,1,1914.0,1
1215,1215,-0.4419695901412532,-0.4,1.0,0.0,321.0,973.0,0.0,0,1706.0,1
1216,1216,-0.49856562887770595,-0.5,1.0,0.0,351.0,814.0,0.0,0,1835.0,1
1217,1217,0.7954462949463822,0.8,1.0,1.0,430.0,702.0,0.0,0,1868.0,0
1218,1218,0.1750539401004877,0.2,0.0,0.0,492.0,827.0,0.0,1,1681.0,1
1219,1219,0.1747770871307276,0.2,1.0,1.0,259.0,675.0,0.0,0,2066.0,0
1220,1220,-0.42562848791221003,-0.4,0.0,1.0,482.0,834.0,0.0,1,1684.0,0
1221,1221,0.4243995333535332,0.4,1.0,1.0,453.0,511.0,0.0,0,2036.0,0
1222,1222,0.7515030922571434,0.8,1.0,1.0,479.0,984.0,0.0,0,1537.0,0
1223,1223,-0.10478934974326715,-0.1,1.0,0.0,438.0,552.0,0.0,0,2010.0,1
1224,1224,0.22615845777097643,0.2,1.0,1.0,392.0,539.0,0.0,0,2069.0,0
1225,1225,-0.3026929644958861,-0.3,1.0,0.0,354.0,654.0,1.0,1,-938.0,0
1226,1226,-0.31490596016224315,-0.3,1.0,0.0,448.0,653.0,0.0,0,1899.0,1
1227,1227,-0.8355522916062068,-0.8,1.0,0.0,254.0,658.0,0.0,0,2088.0,1
1228,1228,0.15048470684214788,0.2,1.0,1.0,355.0,805.0,0.0,0,1840.0,0
1229,1229,-0.20304241642376009,-0.2,1.0,0.0,320.0,974.0,0.0,0,1706.0,1
1230,1230,0.8028488256660814,0.8,0.0,0.0,356.0,970.0,0.0,1,1674.0,1
1231,1231,-0.8057253576695437,-0.8,0.0,1.0,469.0,767.0,0.0,1,-1086.0,0
1232,1232,0.3067059592167577,0.3,1.0,1.0,288.0,788.0,0.0,0,1924.0,0
1233,1233,0.24098610003724985,0.2,0.0,0.0,330.0,867.0,0.0,1,1803.0,1
1234,1234,-0.3547952484780885,-0.4,0.0,1.0,492.0,698.0,0.0,1,1810.0,0
1235,1235,0.09735015077273002,0.1,0.0,0.0,266.0,739.0,0.0,1,1995.0,1
1236,1236,-0.6184422448487863,-0.6,1.0,0.0,299.0,763.0,0.0,0,1938.0,1
1237,1237,-0.3959641383920517,-0.4,0.0,1.0,318.0,668.0,0.0,1,2014.0,0
1238,1238,0.4372133257998826,0.4,1.0,1.0,481.0,996.0,0.0,0,-1437.0,0
1239,1239,0.3551386762422698,0.4,1.0,1.0,493.0,872.0,0.0,0,1635.0,0
1240,1240,0.263872371458428,0.3,0.0,0.0,324.0,797.0,0.0,1,1879.0,1
1241,1241,0.8997832269213356,0.9,0.0,0.0,429.0,767.0,0.0,1,1804.0,1
1242,1242,-0.5234120643802405,-0.5,1.0,0.0,366.0,611.0,0.0,0,2023.0,1
1243,1243,-0.1614786382451091,-0.2,0.0,1.0,334.0,704.0,0.0,1,1962.0,0
1244,1244,0.3469515572827072,0.3,0.0,0.0,461.0,594.0,0.0,1,1945.0,1
1245,1245,0.6080353455233759,0.6,0.0,0.0,294.0,581.0,0.0,1,2125.0,1
1246,1246,-0.13615545887048974,-0.1,1.0,0.0,348.0,823.0,0.0,0,1829.0,1
1247,1247,0.46440242497481743,0.5,0.0,0.0,367.0,720.0,0.0,1,1913.0,1
1248,1248,0.5290066024132615,0.5,1.0,1.0,288.0,773.0,1.0,1,-991.0,1
1249,1249,-0.5731647623880907,-0.6,0.0,1.0,294.0,551.0,0.0,1,-785.0,0
1250,1250,-0.16265289585532572,-0.2,0.0,1.0,486.0,922.0,0.0,1,1592.0,0
1251,1251,0.7113027060073814,0.7,1.0,1.0,344.0,860.0,0.0,0,1796.0,0
1252,1252,-0.1035526410285208,-0.1,1.0,0.0,467.0,664.0,0.0,0,1869.0,1
1253,1253,-0.7500013249922323,-0.8,0.0,1.0,432.0,733.0,0.0,1,1835.0,0
1254,1254,-0.42085113378029093,-0.4,0.0,1.0,307.0,767.0,0.0,1,1926.0,0
1255,1255,0.3392877592538045,0.3,0.0,0.0,390.0,922.0,1.0,0,-1282.0,0
1256,1256,-0.36301266318093883,-0.4,1.0,0.0,449.0,635.0,0.0,0,1916.0,1
1257,1257,0.3187989867826494,0.3,1.0,1.0,251.0,644.0,0.0,0,2105.0,0
1258,1258,-0.2305505928180358,-0.2,1.0,0.0,302.0,891.0,0.0,0,-1173.0,1
1259,1259,-0.5911523156974489,-0.6,0.0,1.0,301.0,632.0,1.0,0,-863.0,1
1260,1260,0.8768249887735015,0.9,1.0,1.0,454.0,580.0,0.0,0,1966.0,0
1261,1261,-0.8856486090339034,-0.9,1.0,0.0,366.0,704.0,0.0,0,1930.0,1
1262,1262,-0.26219561187648777,-0.3,1.0,0.0,330.0,797.0,0.0,0,1873.0,1
1263,1263,-0.20056686069072327,-0.2,0.0,1.0,268.0,814.0,0.0,1,1918.0,0
1264,1264,0.19697753420548592,0.2,1.0,1.0,286.0,946.0,0.0,0,1768.0,0
1265,1265,-0.19345641902952826,-0.2,1.0,0.0,328.0,590.0,0.0,0,2082.0,1
1266,1266,-0.817197307230219,-0.8,0.0,1.0,381.0,789.0,0.0,1,1830.0,0
1267,1267,0.4382564363747429,0.4,0.0,0.0,273.0,974.0,0.0,1,1753.0,1
1268,1268,-0.2189004225173965,-0.2,1.0,0.0,456.0,856.0,0.0,0,1688.0,1
1269,1269,0.20892210869037287,0.2,0.0,0.0,449.0,942.0,0.0,1,1609.0,1
1270,1270,-0.3761620129540689,-0.4,1.0,0.0,363.0,620.0,0.0,0,-933.0,1
1271,1271,-0.7773186541461937,-0.8,0.0,1.0,336.0,508.0,0.0,1,-844.0,0
1272,1272,0.14757377786235149,0.1,1.0,1.0,254.0,827.0,0.0,0,1919.0,0
1273,1273,-0.6003100579697709,-0.6,0.0,1.0,315.0,827.0,0.0,1,1858.0,0
1274,1274,-0.034350433438882444,-0.0,1.0,0.0,474.0,990.0,0.0,0,-1224.0,1
1275,1275,0.784466407689442,0.8,0.0,0.0,458.0,912.0,0.0,1,1630.0,1
1276,1276,0.002558637267562891,0.0,1.0,1.0,392.0,855.0,0.0,0,1753.0,0
1277,1277,-0.05723863530964901,-0.1,0.0,1.0,354.0,741.0,0.0,1,-1005.0,0
1278,1278,0.5438529424458959,0.5,0.0,0.0,310.0,667.0,1.0,0,-957.0,0
1279,1279,0.671216731020701,0.7,1.0,1.0,478.0,792.0,0.0,0,-1190.0,0
1280,1280,0.44981617034961274,0.4,0.0,0.0,344.0,830.0,0.0,1,1826.0,1
1281,1281,0.2826959322468424,0.3,1.0,1.0,463.0,717.0,0.0,0,1820.0,0
1282,1282,0.7707919853571098,0.8,0.0,0.0,483.0,760.0,0.0,1,1757.0,1
1283,1283,-0.4405360977719595,-0.4,1.0,0.0,350.0,673.0,0.0,0,1977.0,1
1284,1284,0.4854879865950045,0.5,0.0,0.0,350.0,514.0,0.0,1,2136.0,1
1285,1285,-0.7047282321283932,-0.7,1.0,0.0,391.0,881.0,0.0,0,1728.0,1
1286,1286,-0.8092009876822385,-0.8,0.0,1.0,250.0,684.0,0.0,1,-724.0,0
1287,1287,-0.3495469916394224,-0.3,0.0,1.0,332.0,847.0,0.0,1,1821.0,0
1288,1288,-0.3190772312037453,-0.3,1.0,0.0,335.0,724.0,0.0,0,1941.0,1
1289,1289,0.8039999893030342,0.8,0.0,0.0,381.0,623.0,0.0,1,1996.0,1
1290,1290,-0.046584657121253814,-0.0,0.0,1.0,480.0,549.0,0.0,1,1971.0,0
1291,1291,-0.6248740735504954,-0.6,1.0,0.0,283.0,982.0,0.0,0,1735.0,1
1292,1292,-0.3469746881450545,-0.3,1.0,0.0,367.0,690.0,0.0,0,1943.0,1
1293,1293,0.3957736803979729,0.4,1.0,1.0,374.0,788.0,0.0,0,1838.0,0
1294,1294,-0.8711971747290445,-0.9,0.0,1.0,302.0,692.0,0.0,1,-774.0,0
1295,1295,-0.6555429851709369,-0.7,1.0,0.0,324.0,625.0,1.0,1,-809.0,0
1296,1296,-0.2904074164737509,-0.3,0.0,1.0,299.0,995.0,0.0,1,1706.0,0
1297,1297,0.14423783788038802,0.1,1.0,1.0,365.0,846.0,0.0,0,1789.0,0
1298,1298,0.5462566281330651,0.5,1.0,1.0,290.0,610.0,0.0,0,2100.0,0
1299,1299,-0.2990631749133278,-0.3,0.0,1.0,456.0,773.0,0.0,1,1771.0,0
1300,1300,0.8794561554689165,0.9,1.0,1.0,406.0,610.0,0.0,0,1984.0,0
1301,1301,-0.6276805264432272,-0.6,1.0,0.0,387.0,961.0,0.0,0,1652.0,1
1302,1302,0.8360793443638205,0.8,0.0,0.0,479.0,749.0,0.0,1,1772.0,1
1303,1303,-0.6384303525833593,-0.6,1.0,0.0,255.0,868.0,0.0,0,1877.0,1
1304,1304,-0.8753507561186079,-0.9,0.0,1.0,304.0,935.0,0.0,1,1761.0,0
1305,1305,-0.8276166416877462,-0.8,1.0,0.0,340.0,645.0,0.0,0,2015.0,1
1306,1306,-0.6166340002223432,-0.6,0.0,1.0,440.0,893.0,0.0,1,1667.0,0
1307,1307,0.0184613669911301,0.0,0.0,0.0,450.0,966.0,0.0,1,1584.0,1
1308,1308,0.7064414157669093,0.7,0.0,0.0,316.0,852.0,0.0,1,1832.0,1
1309,1309,0.5947605165658493,0.6,0.0,0.0,452.0,721.0,0.0,1,1827.0,1
1310,1310,0.3545714405495931,0.4,1.0,1.0,331.0,631.0,0.0,0,2038.0,0
1311,1311,0.31125048370443087,0.3,1.0,1.0,345.0,980.0,0.0,0,1675.0,0
1312,1312,-0.009942743090531891,-0.0,1.0,0.0,274.0,728.0,0.0,0,1998.0,1
1313,1313,-0.4652059228589038,-0.5,1.0,0.0,310.0,909.0,0.0,0,1781.0,1
1314,1314,0.4364368037027203,0.4,0.0,0.0,358.0,596.0,0.0,1,2046.0,1
1315,1315,0.8686036616234093,0.9,0.0,0.0,298.0,901.0,0.0,1,1801.0,1
1316,1316,-0.6591890652455991,-0.7,1.0,0.0,349.0,518.0,1.0,1,-867.0,0
1317,1317,0.8101644977688686,0.8,0.0,0.0,394.0,582.0,0.0,1,-956.0,1
1318,1318,0.6055930348241153,0.6,0.0,0.0,324.0,844.0,0.0,1,1832.0,1
1319,1319,0.10998758030456923,0.1,0.0,0.0,459.0,916.0,0.0,1,1625.0,1
1320,1320,-0.017541742401001925,-0.0,0.0,1.0,423.0,638.0,0.0,1,1939.0,0
1321,1321,-0.2699894433626162,-0.3,1.0,0.0,469.0,531.0,0.0,0,2000.0,1
1322,1322,-0.09109984289815398,-0.1,0.0,1.0,304.0,579.0,0.0,1,2117.0,0
1323,1323,-0.3350167934621925,-0.3,1.0,0.0,314.0,862.0,0.0,0,1824.0,1
1324,1324,0.31294116762749613,0.3,0.0,0.0,404.0,872.0,0.0,1,1724.0,1
1325,1325,-0.2695832480377667,-0.3,0.0,1.0,382.0,576.0,0.0,1,2042.0,0
1326,1326,-0.6000669494860877,-0.6,0.0,1.0,498.0,685.0,0.0,1,1817.0,0
1327,1327,-0.6958752390266116,-0.7,0.0,1.0,280.0,903.0,0.0,1,1817.0,0
1328,1328,-0.4342090677374677,-0.4,0.0,1.0,256.0,612.0,0.0,1,2132.0,0
1329,1329,0.14696288217816378,0.1,1.0,1.0,380.0,987.0,0.0,0,1633.0,0
1330,1330,-0.4152780086310614,-0.4,0.0,1.0,498.0,734.0,0.0,1,1768.0,0
1331,1331,-0.2653698393702638,-0.3,0.0,1.0,263.0,781.0,0.0,1,1956.0,0
1332,1332,0.8385351970766338,0.8,1.0,1.0,414.0,758.0,0.0,0,1828.0,0
1333,1333,0.40317185179490267,0.4,1.0,1.0,450.0,975.0,0.0,0,1575.0,0
1334,1334,0.49639764141190723,0.5,1.0,1.0,355.0,507.0,0.0,0,2138.0,0
1335,1335,-0.07037554968342163,-0.1,0.0,1.0,361.0,990.0,1.0,0,-1241.0,1
1336,1336,0.10419926785735278,0.1,0.0,0.0,428.0,668.0,1.0,0,-906.0,0
1337,1337,-0.42039117271756754,-0.4,1.0,0.0,277.0,515.0,0.0,0,2208.0,1
1338,1338,-0.8719113534986668,-0.9,0.0,1.0,429.0,759.0,1.0,0,-1058.0,1
1339,1339,0.18203790029705857,0.2,0.0,0.0,359.0,702.0,0.0,1,1939.0,1
1340,1340,-0.7279749145137555,-0.7,0.0,1.0,374.0,846.0,0.0,1,1780.0,0
1341,1341,0.12198279094256115,0.1,1.0,1.0,335.0,536.0,0.0,0,2129.0,0
1342,1342,0.09792859113374064,0.1,1.0,1.0,464.0,788.0,0.0,0,1748.0,0
1343,1343,-0.5341538871219527,-0.5,0.0,1.0,323.0,563.0,0.0,1,2114.0,0
1344,1344,-0.23736818444184005,-0.2,0.0,1.0,474.0,982.0,0.0,1,1544.0,0
1345,1345,0.2333437279225853,0.2,0.0,0.0,357.0,738.0,0.0,1,1905.0,1
1346,1346,0.4307955114950136,0.4,0.0,0.0,407.0,584.0,0.0,1,2009.0,1
1347,1347,0.14228920728304428,0.1,0.0,0.0,398.0,502.0,0.0,1,2100.0,1
1348,1348,-0.8240923330518168,-0.8,0.0,1.0,263.0,805.0,1.0,0,-928.0,1
1349,1349,-0.36315677588406825,-0.4,0.0,1.0,274.0,519.0,1.0,0,-783.0,1
1350,1350,-0.08597309807053155,-0.1,1.0,0.0,257.0,858.0,1.0,1,-765.0,0
1351,1351,0.41436207033211925,0.4,0.0,0.0,283.0,841.0,0.0,1,1876.0,1
1352,1352,0.8535989546810655,0.9,0.0,0.0,422.0,570.0,0.0,1,2008.0,1
1353,1353,-0.24561487175689778,-0.2,0.0,1.0,402.0,731.0,0.0,1,1867.0,0
1354,1354,0.10172576883463369,0.1,1.0,1.0,390.0,556.0,0.0,0,2054.0,0
1355,1355,-0.5228968863877819,-0.5,1.0,0.0,468.0,898.0,0.0,0,1634.0,1
1356,1356,-0.6227175763308901,-0.6,0.0,1.0,388.0,892.0,0.0,1,1720.0,0
1357,1357,-0.03785860302616184,-0.0,1.0,0.0,441.0,883.0,0.0,0,1676.0,1
1358,1358,-0.6917653298643693,-0.7,0.0,1.0,497.0,514.0,0.0,1,1989.0,0
1359,1359,-0.6923100080359275,-0.7,1.0,0.0,395.0,822.0,0.0,0,1783.0,1
1360,1360,-0.006441551693682546,-0.0,0.0,1.0,491.0,706.0,0.0,1,1803.0,0
1361,1361,-0.01558482203548428,-0.0,1.0,0.0,333.0,907.0,0.0,0,1760.0,1
1362,1362,-0.873528528280543,-0.9,0.0,1.0,297.0,918.0,0.0,1,1785.0,0
1363,1363,0.6973752625924979,0.7,1.0,1.0,418.0,971.0,0.0,0,1611.0,0
1364,1364,-0.5287402157103333,-0.5,1.0,0.0,280.0,602.0,0.0,0,2118.0,1
1365,1365,0.7233881461795525,0.7,1.0,1.0,396.0,709.0,0.0,0,1895.0,0
1366,1366,0.4041930355178781,0.4,1.0,1.0,317.0,587.0,0.0,0,2096.0,0
1367,1367,-0.6160668412621033,-0.6,1.0,0.0,456.0,784.0,0.0,0,1760.0,1
1368,1368,0.22742050993353258,0.2,1.0,1.0,346.0,689.0,0.0,0,1965.0,0
1369,1369,0.8605499228289514,0.9,1.0,1.0,421.0,929.0,0.0,0,1650.0,0
1370,1370,-0.05048751239601401,-0.1,0.0,1.0,349.0,792.0,0.0,1,1859.0,0
1371,1371,-0.17421925542148065,-0.2,0.0,1.0,496.0,944.0,0.0,1,1560.0,0
1372,1372,-0.7226607773698254,-0.7,0.0,1.0,437.0,990.0,0.0,1,1573.0,0
1373,1373,0.31320072848641545,0.3,1.0,1.0,365.0,650.0,0.0,0,-985.0,0
1374,1374,0.17325300320845727,0.2,0.0,0.0,397.0,811.0,0.0,1,1792.0,1
1375,1375,-0.504829844712188,-0.5,0.0,1.0,434.0,562.0,1.0,0,-906.0,1
1376,1376,0.44417302489381616,0.4,0.0,0.0,440.0,818.0,0.0,1,1742.0,1
1377,1377,0.6365674728196719,0.6,1.0,1.0,345.0,690.0,0.0,0,1965.0,0
1378,1378,-0.5868682000479616,-0.6,1.0,0.0,401.0,586.0,0.0,0,2013.0,1
1379,1379,-0.443244871328558,-0.4,1.0,0.0,365.0,588.0,0.0,0,2047.0,1
1380,1380,-0.262109489569777,-0.3,1.0,0.0,252.0,922.0,0.0,0,1826.0,1
1381,1381,-0.3358152409482067,-0.3,1.0,0.0,368.0,723.0,0.0,0,1909.0,1
1382,1382,0.6623775218931215,0.7,1.0,1.0,457.0,650.0,0.0,0,1893.0,0
1383,1383,-0.5676451777315272,-0.6,1.0,0.0,336.0,590.0,0.0,0,2074.0,1
1384,1384,0.16809649225164358,0.2,0.0,0.0,431.0,796.0,0.0,1,1773.0,1
1385,1385,0.1291308549033966,0.1,1.0,1.0,261.0,694.0,0.0,0,2045.0,0
1386,1386,0.7039175395929672,0.7,1.0,1.0,284.0,658.0,0.0,0,2058.0,0
1387,1387,0.2953224465875549,0.3,0.0,0.0,320.0,795.0,0.0,1,1885.0,1
1388,1388,-0.09050109016243213,-0.1,0.0,1.0,402.0,698.0,0.0,1,1900.0,0
1389,1389,0.15364822494551322,0.2,0.0,0.0,410.0,789.0,0.0,1,1801.0,1
1390,1390,-0.5598591546438945,-0.6,1.0,0.0,283.0,690.0,0.0,0,2027.0,1
1391,1391,0.28476681983647667,0.3,0.0,0.0,499.0,594.0,0.0,1,1907.0,1
1392,1392,0.7172566374100718,0.7,0.0,0.0,480.0,576.0,0.0,1,1944.0,1
1393,1393,-0.7554631490766268,-0.8,1.0,0.0,256.0,545.0,0.0,0,-691.0,1
1394,1394,-0.4516346953489857,-0.5,0.0,1.0,494.0,701.0,0.0,1,1805.0,0
1395,1395,-0.039487301842135336,-0.0,1.0,0.0,360.0,810.0,0.0,0,1830.0,1
1396,1396,-0.22682416653813786,-0.2,0.0,1.0,319.0,534.0,0.0,1,2147.0,0
1397,1397,-0.8598611691478681,-0.9,1.0,0.0,441.0,952.0,0.0,0,1607.0,1
1398,1398,-0.4267180184224521,-0.4,1.0,0.0,480.0,931.0,0.0,0,1589.0,1
1399,1399,0.3828593593177111,0.4,0.0,0.0,251.0,699.0,0.0,1,2050.0,1
1400,1400,-0.3393467979854896,-0.3,0.0,1.0,269.0,822.0,0.0,1,1909.0,0
1401,1401,-0.7752586260658303,-0.8,1.0,0.0,458.0,875.0,0.0,0,-1253.0,1
1402,1402,0.8440969218105115,0.8,1.0,1.0,280.0,599.0,0.0,0,2121.0,0
1403,1403,-0.16566127762763705,-0.2,1.0,0.0,483.0,754.0,0.0,0,1763.0,1
1404,1404,-0.8832912906360985,-0.9,0.0,1.0,337.0,860.0,0.0,1,1803.0,0
1405,1405,-0.2902349517728181,-0.3,1.0,0.0,343.0,909.0,0.0,0,1748.0,1
1406,1406,0.019622060625783422,0.0,1.0,1.0,378.0,660.0,0.0,0,1962.0,0
1407,1407,0.04785513052405754,0.0,1.0,1.0,344.0,912.0,0.0,0,1744.0,0
1408,1408,-0.5636999189295981,-0.6,1.0,0.0,428.0,875.0,0.0,0,1697.0,1
1409,1409,0.24448647802474566,0.2,0.0,0.0,389.0,516.0,0.0,1,2095.0,1
1410,1410,-0.27684096148978843,-0.3,1.0,0.0,255.0,909.0,0.0,0,1836.0,1
1411,1411,-0.8444951354925287,-0.8,1.0,0.0,463.0,506.0,0.0,0,2031.0,1
1412,1412,-0.15034558629766392,-0.2,0.0,1.0,384.0,943.0,0.0,1,1673.0,0
1413,1413,-0.232361566356741,-0.2,1.0,0.0,466.0,684.0,0.0,0,1850.0,1
1414,1414,0.38061025106986823,0.4,1.0,1.0,472.0,865.0,0.0,0,1663.0,0
1415,1415,0.6210491904059526,0.6,0.0,0.0,269.0,777.0,0.0,1,1954.0,1
1416,1416,0.5347348893951783,0.5,0.0,0.0,307.0,696.0,0.0,1,1997.0,1
1417,1417,-0.5156387901817364,-0.5,1.0,0.0,456.0,560.0,0.0,0,1984.0,1
1418,1418,0.4478990308906011,0.4,0.0,0.0,468.0,756.0,0.0,1,-1224.0,1
1419,1419,0.40337576019694465,0.4,0.0,0.0,404.0,941.0,0.0,1,1655.0,1
1420,1420,0.1067003100360665,0.1,0.0,0.0,322.0,893.0,0.0,1,-1175.0,1
1421,1421,0.04260616824032937,0.0,1.0,1.0,284.0,842.0,0.0,0,1874.0,0
1422,1422,-0.4737230071150491,-0.5,1.0,0.0,337.0,822.0,0.0,0,1841.0,1
1423,1423,-0.1655190083805762,-0.2,0.0,1.0,319.0,877.0,0.0,1,1804.0,0
1424,1424,0.29348368612636866,0.3,0.0,0.0,337.0,695.0,0.0,1,1968.0,1
1425,1425,-0.762370844551652,-0.8,1.0,0.0,442.0,868.0,0.0,0,1690.0,1
1426,1426,-0.04575680224320311,-0.0,0.0,1.0,258.0,767.0,0.0,1,1975.0,0
1427,1427,0.19613994303817395,0.2,1.0,1.0,483.0,828.0,0.0,0,1689.0,0
1428,1428,-0.3102187694359918,-0.3,0.0,1.0,460.0,844.0,0.0,1,1696.0,0
1429,1429,-0.46853920176955643,-0.5,1.0,0.0,413.0,842.0,0.0,0,1745.0,1
1430,1430,0.558462802694429,0.6,0.0,0.0,288.0,730.0,0.0,1,1982.0,1
1431,1431,0.82600477962658,0.8,1.0,1.0,416.0,975.0,0.0,0,1609.0,0
1432,1432,-0.38907289672592027,-0.4,0.0,1.0,495.0,620.0,0.0,1,1885.0,0
1433,1433,0.7789886962092162,0.8,1.0,1.0,258.0,516.0,0.0,0,2226.0,0
1434,1434,-0.5358271748931271,-0.5,0.0,1.0,305.0,802.0,0.0,1,1893.0,0
1435,1435,0.5441488886398419,0.5,1.0,1.0,312.0,882.0,0.0,0,1806.0,0
1436,1436,-0.6139432998108558,-0.6,1.0,0.0,458.0,604.0,0.0,0,1938.0,1
1437,1437,-0.00157368923709289,-0.0,1.0,0.0,462.0,919.0,0.0,0,1619.0,1
1438,1438,0.7147493660936076,0.7,1.0,1.0,452.0,975.0,0.0,0,1573.0,0
1439,1439,-0.0404809766382801,-0.0,0.0,1.0,385.0,880.0,0.0,1,1735.0,0
1440,1440,0.34840552692227555,0.3,1.0,1.0,276.0,838.0,0.0,0,1886.0,0
1441,1441,-0.10159258349019407,-0.1,0.0,1.0,298.0,964.0,0.0,1,1738.0,0
1442,1442,-0.21334823737573327,-0.2,1.0,0.0,467.0,796.0,0.0,0,1737.0,1
1443,1443,0.27125952563649613,0.3,1.0,1.0,321.0,865.0,0.0,0,1814.0,0
1444,1444,0.24503054909487532,0.2,0.0,0.0,391.0,548.0,0.0,1,2061.0,1
1445,1445,0.11984652994949296,0.1,1.0,1.0,435.0,715.0,0.0,0,1850.0,0
1446,1446,-0.03540421448618292,-0.0,0.0,1.0,411.0,504.0,0.0,1,2085.0,0
1447,1447,0.42846186325777713,0.4,1.0,1.0,347.0,666.0,0.0,0,1987.0,0
1448,1448,-0.5333929965144841,-0.5,1.0,0.0,480.0,764.0,0.0,0,1756.0,1
1449,1449,0.8346316206952672,0.8,1.0,1.0,416.0,660.0,0.0,0,1924.0,0
1450,1450,0.4971273790153822,0.5,0.0,0.0,329.0,621.0,0.0,1,2050.0,1
1451,1451,0.5040068196163207,0.5,0.0,0.0,489.0,903.0,0.0,1,1608.0,1
1452,1452,-0.42328440763881015,-0.4,0.0,1.0,317.0,573.0,0.0,1,2110.0,0
1453,1453,0.666504822315514,0.7,0.0,0.0,427.0,550.0,0.0,1,2023.0,1
1454,1454,0.18410488987535512,0.2,0.0,0.0,460.0,944.0,0.0,1,-1304.0,1
1455,1455,-0.7525463324627776,-0.8,1.0,0.0,435.0,837.0,0.0,0,1728.0,1
1456,1456,0.492270065029892,0.5,1.0,1.0,410.0,657.0,0.0,0,1933.0,0
1457,1457,-0.7462974884042703,-0.7,0.0,1.0,279.0,596.0,0.0,1,2125.0,0
1458,1458,-0.4497071939270657,-0.4,1.0,0.0,373.0,547.0,0.0,0,2080.0,1
1459,1459,0.7105992106700912,0.7,1.0,1.0,481.0,780.0,0.0,0,1739.0,0
1460,1460,-0.7320119298744894,-0.7,1.0,0.0,460.0,513.0,0.0,0,2027.0,1
1461,1461,-0.7631280581044185,-0.8,1.0,0.0,345.0,866.0,0.0,0,1789.0,1
1462,1462,0.194435413903718,0.2,1.0,1.0,476.0,760.0,0.0,0,1764.0,0
1463,1463,-0.7897542751356794,-0.8,0.0,1.0,423.0,967.0,0.0,1,1610.0,0
1464,1464,-0.21168895869253712,-0.2,0.0,1.0,279.0,787.0,0.0,1,1934.0,0
1465,1465,0.4629257690203362,0.5,1.0,1.0,393.0,601.0,1.0,1,-854.0,1
1466,1466,0.49675687645802646,0.5,1.0,1.0,427.0,610.0,0.0,0,1963.0,0
1467,1467,-0.7418026792688761,-0.7,0.0,1.0,409.0,757.0,0.0,1,1834.0,0
1468,1468,0.5735707721867268,0.6,0.0,0.0,318.0,661.0,0.0,1,2021.0,1
1469,1469,-0.44387058775341676,-0.4,0.0,1.0,373.0,748.0,0.0,1,1879.0,0
