,trial,coherence,coherence_bin,green_side,correct_side,target_onset,checker_onset,decision,green_decision,decision_time,correct_decision
0,0,0.29054602124846685,0.3,0.0,0.0,398.0,855.0,0.0,1,1747.0,1
1,1,-0.8524116100850697,-0.9,0.0,1.0,408.0,563.0,1.0,0,269.0,1
2,2,0.3322696396600632,0.3,1.0,1.0,416.0,913.0,1.0,1,411.0,1
3,3,0.13901038014358125,0.1,1.0,1.0,278.0,823.0,1.0,1,1899.0,1
4,4,0.16132979667820535,0.2,1.0,1.0,388.0,607.0,1.0,1,1005.0,1
5,5,0.49428245050435426,0.5,1.0,1.0,333.0,796.0,1.0,1,1051.0,1
6,6,0.12614732020108954,0.1,1.0,1.0,310.0,684.0,1.0,1,2006.0,1
7,7,0.3317399688134365,0.3,0.0,0.0,434.0,664.0,0.0,1,612.0,1
8,8,-0.2102418526593831,-0.2,0.0,1.0,299.0,916.0,1.0,0,1565.0,1
9,9,0.02627376239614565,0.0,0.0,0.0,349.0,777.0,1.0,0,1874.0,0
10,10,-0.8685470729082553,-0.9,1.0,0.0,419.0,636.0,0.0,0,215.0,1
11,11,-0.8664841455965253,-0.9,1.0,0.0,358.0,799.0,0.0,0,173.0,1
12,12,-0.46631108430209267,-0.5,1.0,0.0,427.0,793.0,0.0,0,350.0,1
13,13,0.3750505806781931,0.4,0.0,0.0,389.0,705.0,0.0,1,356.0,1
14,14,-0.8564142067893455,-0.9,1.0,0.0,429.0,960.0,0.0,0,151.0,1
15,15,0.17680670215281913,0.2,0.0,0.0,258.0,555.0,0.0,1,2187.0,1
16,16,0.3639928604463406,0.4,1.0,1.0,342.0,536.0,1.0,1,1012.0,1
17,17,-0.07899542385186498,-0.1,0.0,1.0,287.0,950.0,1.0,0,673.0,1
18,18,0.4021585058206002,0.4,0.0,0.0,496.0,769.0,0.0,1,935.0,1
19,19,0.541156117584708,0.5,0.0,0.0,480.0,839.0,0.0,1,271.0,1
20,20,0.015794514149476524,0.0,0.0,0.0,313.0,650.0,1.0,0,2037.0,0
21,21,0.014605689699594415,0.0,0.0,0.0,287.0,590.0,0.0,1,2123.0,1
22,22,0.5452726592740574,0.5,1.0,1.0,351.0,802.0,1.0,1,507.0,1
23,23,-0.38531808694825553,-0.4,1.0,0.0,457.0,909.0,0.0,0,344.0,1
24,24,0.8681040184571315,0.9,1.0,1.0,285.0,640.0,1.0,1,435.0,1
25,25,-0.8447839355639591,-0.8,1.0,0.0,464.0,712.0,0.0,0,284.0,1
26,26,0.38914558502142704,0.4,1.0,1.0,375.0,911.0,1.0,1,744.0,1
27,27,-0.48243478419967983,-0.5,1.0,0.0,377.0,518.0,0.0,0,155.0,1
28,28,-0.21158767544868462,-0.2,0.0,1.0,389.0,593.0,1.0,0,1188.0,1
29,29,0.4716574552717404,0.5,0.0,0.0,424.0,664.0,0.0,1,912.0,1
30,30,0.13339876289772212,0.1,0.0,0.0,476.0,860.0,0.0,1,754.0,1
31,31,0.11452321621495642,0.1,1.0,1.0,292.0,542.0,1.0,1,2166.0,1
32,32,-0.7816324519263809,-0.8,1.0,0.0,295.0,529.0,0.0,0,636.0,1
33,33,0.6283286267918086,0.6,1.0,1.0,355.0,946.0,1.0,1,209.0,1
34,34,0.09370303761749965,0.1,1.0,1.0,306.0,663.0,0.0,0,2031.0,0
35,35,-0.4462568556753952,-0.4,0.0,1.0,490.0,988.0,1.0,0,352.0,1
36,36,0.12518100297061097,0.1,0.0,0.0,316.0,530.0,0.0,1,734.0,1
37,37,-0.07366687006751027,-0.1,1.0,0.0,347.0,718.0,0.0,0,915.0,1
38,38,-0.2594971578208328,-0.3,1.0,0.0,261.0,820.0,0.0,0,799.0,1
39,39,-0.2301993105053961,-0.2,0.0,1.0,334.0,905.0,1.0,0,1301.0,1
40,40,0.3482684852265304,0.3,0.0,0.0,448.0,726.0,0.0,1,396.0,1
41,41,-0.6089517596407894,-0.6,1.0,0.0,483.0,994.0,0.0,0,223.0,1
42,42,0.7949079378523217,0.8,1.0,1.0,264.0,687.0,1.0,1,1559.0,1
43,43,0.8257143050964683,0.8,1.0,1.0,299.0,789.0,1.0,1,202.0,1
44,44,-0.12188438393734802,-0.1,1.0,0.0,383.0,632.0,0.0,0,465.0,1
45,45,0.7371554262357177,0.7,1.0,1.0,253.0,558.0,1.0,1,439.0,1
46,46,0.40731701465639014,0.4,1.0,1.0,317.0,798.0,1.0,1,475.0,1
47,47,-0.49116984936467994,-0.5,1.0,0.0,292.0,855.0,0.0,0,593.0,1
48,48,0.31449249367559295,0.3,0.0,0.0,343.0,947.0,0.0,1,220.0,1
49,49,-0.2852334428846657,-0.3,0.0,1.0,394.0,876.0,0.0,1,1730.0,0
50,50,-0.4183462322575722,-0.4,0.0,1.0,376.0,859.0,1.0,0,325.0,1
51,51,0.736103713632788,0.7,1.0,1.0,307.0,995.0,1.0,1,398.0,1
52,52,-0.26463828796497857,-0.3,0.0,1.0,483.0,514.0,1.0,0,1203.0,1
53,53,0.10883559636750773,0.1,1.0,1.0,318.0,555.0,0.0,0,447.0,0
54,54,0.26637273612299894,0.3,1.0,1.0,314.0,605.0,1.0,1,1331.0,1
55,55,-0.6201149803375371,-0.6,1.0,0.0,472.0,543.0,0.0,0,295.0,1
56,56,-0.04747263045514116,-0.0,0.0,1.0,388.0,657.0,1.0,0,1955.0,1
57,57,0.48236568649559486,0.5,1.0,1.0,407.0,917.0,1.0,1,226.0,1
58,58,-0.5301054141502155,-0.5,0.0,1.0,278.0,936.0,1.0,0,406.0,1
59,59,0.06444814265681287,0.1,0.0,0.0,404.0,933.0,0.0,1,1663.0,1
60,60,0.11983981012585276,0.1,0.0,0.0,372.0,763.0,0.0,1,1865.0,1
61,61,0.6442964916391828,0.6,1.0,1.0,499.0,778.0,1.0,1,793.0,1
62,62,-0.4224628500679221,-0.4,0.0,1.0,449.0,643.0,1.0,0,808.0,1
63,63,-0.1769528447494827,-0.2,1.0,0.0,323.0,931.0,0.0,0,1156.0,1
64,64,-0.8057189787569232,-0.8,1.0,0.0,492.0,636.0,0.0,0,302.0,1
65,65,0.08629445948538528,0.1,1.0,1.0,346.0,940.0,0.0,0,1714.0,0
66,66,0.8830683167242023,0.9,0.0,0.0,467.0,532.0,0.0,1,481.0,1
67,67,-0.19414509487565346,-0.2,0.0,1.0,266.0,909.0,1.0,0,1825.0,1
68,68,-0.47113144737042084,-0.5,1.0,0.0,384.0,513.0,0.0,0,553.0,1
69,69,0.7558041471766425,0.8,0.0,0.0,337.0,723.0,0.0,1,450.0,1
70,70,-0.17087215917052967,-0.2,1.0,0.0,475.0,886.0,0.0,0,1239.0,1
71,71,-0.2297324546159819,-0.2,0.0,1.0,260.0,511.0,1.0,0,1609.0,1
72,72,0.5357779836071911,0.5,0.0,0.0,308.0,990.0,0.0,1,622.0,1
73,73,0.6255879466404864,0.6,0.0,0.0,389.0,680.0,0.0,1,271.0,1
74,74,0.2101555827703544,0.2,1.0,1.0,299.0,555.0,1.0,1,2146.0,1
75,75,0.2173645894345867,0.2,1.0,1.0,372.0,649.0,1.0,1,1979.0,1
76,76,0.3122850043170292,0.3,1.0,1.0,430.0,791.0,1.0,1,309.0,1
77,77,-0.14916380648713623,-0.1,1.0,0.0,299.0,676.0,0.0,0,1975.0,1
78,78,-0.06030166661180736,-0.1,1.0,0.0,417.0,986.0,0.0,0,1597.0,1
79,79,-0.7312245670473401,-0.7,0.0,1.0,294.0,907.0,1.0,0,239.0,1
80,80,0.4000369780369172,0.4,0.0,0.0,325.0,565.0,0.0,1,740.0,1
81,81,0.3831459968191616,0.4,0.0,0.0,381.0,637.0,0.0,1,402.0,1
82,82,-0.5607911842088902,-0.6,1.0,0.0,298.0,915.0,0.0,0,157.0,1
83,83,0.19734712169016733,0.2,0.0,0.0,385.0,794.0,0.0,1,741.0,1
84,84,0.1420058225994857,0.1,0.0,0.0,412.0,626.0,0.0,1,1962.0,1
85,85,-0.8223440536085367,-0.8,0.0,1.0,405.0,952.0,1.0,0,343.0,1
86,86,0.12434936064648328,0.1,0.0,0.0,403.0,701.0,0.0,1,1896.0,1
87,87,0.8421261038075861,0.8,1.0,1.0,383.0,798.0,1.0,1,309.0,1
88,88,0.439554523758248,0.4,0.0,0.0,450.0,576.0,0.0,1,434.0,1
89,89,-0.3696858904534732,-0.4,1.0,0.0,351.0,823.0,0.0,0,296.0,1
90,90,0.8898879344277882,0.9,0.0,0.0,308.0,693.0,0.0,1,409.0,1
91,91,0.8642068234582206,0.9,0.0,0.0,359.0,846.0,0.0,1,175.0,1
92,92,-0.008799092510746509,-0.0,0.0,1.0,433.0,531.0,0.0,1,2036.0,0
93,93,-0.4823856616230501,-0.5,1.0,0.0,361.0,524.0,0.0,0,185.0,1
94,94,-0.8000745713601183,-0.8,1.0,0.0,308.0,718.0,0.0,0,364.0,1
95,95,0.45991495718469244,0.5,0.0,0.0,489.0,772.0,0.0,1,299.0,1
96,96,0.6194232800218201,0.6,1.0,1.0,430.0,523.0,1.0,1,437.0,1
97,97,0.22927228802508737,0.2,0.0,0.0,250.0,741.0,0.0,1,739.0,1
98,98,0.019159170844117224,0.0,1.0,1.0,280.0,639.0,1.0,1,2081.0,1
99,99,-0.6673749392538313,-0.7,1.0,0.0,462.0,801.0,0.0,0,147.0,1
100,100,0.3745852047155146,0.4,1.0,1.0,283.0,939.0,0.0,0,-212.0,0
101,101,-0.6212045260166918,-0.6,0.0,1.0,348.0,896.0,1.0,0,246.0,1
102,102,-0.1946253046930101,-0.2,0.0,1.0,451.0,861.0,1.0,0,1688.0,1
103,103,0.7196428693258329,0.7,0.0,0.0,309.0,509.0,0.0,1,502.0,1
104,104,-0.689418492518564,-0.7,0.0,1.0,265.0,823.0,1.0,0,242.0,1
105,105,-0.3952741971711444,-0.4,0.0,1.0,288.0,553.0,1.0,0,1619.0,1
106,106,-0.8586628580367917,-0.9,0.0,1.0,397.0,862.0,1.0,0,251.0,1
107,107,-0.26165531568685996,-0.3,1.0,0.0,387.0,760.0,0.0,0,213.0,1
108,108,0.6830220611667975,0.7,0.0,0.0,278.0,852.0,0.0,1,490.0,1
109,109,0.31880371620606585,0.3,1.0,1.0,428.0,553.0,1.0,1,2019.0,1
110,110,0.29904988065788907,0.3,1.0,1.0,286.0,684.0,1.0,1,2030.0,1
111,111,-0.7399004267383915,-0.7,1.0,0.0,380.0,727.0,0.0,0,283.0,1
112,112,0.8377139761016622,0.8,1.0,1.0,433.0,837.0,1.0,1,150.0,1
113,113,-0.7234753896479793,-0.7,1.0,0.0,317.0,695.0,0.0,0,188.0,1
114,114,0.6281376019491302,0.6,1.0,1.0,495.0,887.0,1.0,1,98.0,1
115,115,0.21819990989569804,0.2,0.0,0.0,379.0,597.0,0.0,1,544.0,1
116,116,0.6308119138587632,0.6,1.0,1.0,330.0,701.0,1.0,1,969.0,1
117,117,0.13978818986742902,0.1,0.0,0.0,351.0,804.0,0.0,1,1845.0,1
118,118,0.8983326027383925,0.9,0.0,0.0,301.0,917.0,0.0,1,252.0,1
119,119,0.7511547599131131,0.8,1.0,1.0,324.0,837.0,1.0,1,329.0,1
120,120,0.5123707664561713,0.5,0.0,0.0,468.0,744.0,0.0,1,308.0,1
121,121,0.6253078598094352,0.6,0.0,0.0,492.0,723.0,0.0,1,365.0,1
122,122,-0.4580974347452585,-0.5,1.0,0.0,413.0,683.0,0.0,0,684.0,1
123,123,-0.22825645491382718,-0.2,0.0,1.0,286.0,598.0,1.0,0,836.0,1
124,124,0.5357711847562924,0.5,1.0,1.0,392.0,955.0,1.0,1,523.0,1
125,125,0.17873093322721656,0.2,1.0,1.0,480.0,976.0,1.0,1,1544.0,1
126,126,0.4022317677565054,0.4,0.0,0.0,378.0,636.0,0.0,1,886.0,1
127,127,-0.42909649720174553,-0.4,1.0,0.0,253.0,814.0,0.0,0,-337.0,1
128,128,-0.14898444808453848,-0.1,0.0,1.0,489.0,592.0,1.0,0,1319.0,1
129,129,-0.34880605284842137,-0.3,1.0,0.0,468.0,992.0,0.0,0,360.0,1
130,130,-0.046358528773911556,-0.0,1.0,0.0,253.0,934.0,0.0,0,1813.0,1
131,131,0.6418713980156435,0.6,0.0,0.0,310.0,598.0,0.0,1,352.0,1
132,132,0.47802375807714725,0.5,0.0,0.0,443.0,772.0,0.0,1,1015.0,1
133,133,0.4328551476257879,0.4,0.0,0.0,494.0,768.0,0.0,1,398.0,1
134,134,0.4363435911198278,0.4,0.0,0.0,469.0,916.0,0.0,1,655.0,1
135,135,-0.47007446710034645,-0.5,1.0,0.0,353.0,643.0,0.0,0,254.0,1
136,136,-0.5416217141322273,-0.5,1.0,0.0,454.0,734.0,0.0,0,252.0,1
137,137,0.6047326717614411,0.6,1.0,1.0,430.0,861.0,1.0,1,309.0,1
138,138,-0.7103201574807023,-0.7,1.0,0.0,359.0,821.0,0.0,0,180.0,1
139,139,0.4588711068107162,0.5,0.0,0.0,424.0,566.0,0.0,1,770.0,1
140,140,0.08808552017181792,0.1,0.0,0.0,384.0,626.0,0.0,1,1850.0,1
141,141,-0.6708761334710985,-0.7,0.0,1.0,377.0,626.0,1.0,0,497.0,1
142,142,-0.23014118895436508,-0.2,0.0,1.0,326.0,851.0,1.0,0,1043.0,1
143,143,0.3490080666919505,0.3,1.0,1.0,315.0,633.0,1.0,1,1952.0,1
144,144,0.12320494600235954,0.1,1.0,1.0,303.0,582.0,0.0,0,2115.0,0
145,145,-0.15344646378765858,-0.2,1.0,0.0,367.0,794.0,0.0,0,989.0,1
146,146,0.4678580568924998,0.5,0.0,0.0,388.0,864.0,0.0,1,578.0,1
147,147,-0.38129739411595986,-0.4,1.0,0.0,493.0,827.0,0.0,0,510.0,1
148,148,0.580003112727208,0.6,0.0,0.0,368.0,789.0,0.0,1,343.0,1
149,149,-0.061009193339640944,-0.1,1.0,0.0,427.0,733.0,0.0,0,1840.0,1
150,150,0.5968639391303391,0.6,1.0,1.0,358.0,958.0,1.0,1,1254.0,1
151,151,-0.788340058796564,-0.8,1.0,0.0,402.0,860.0,0.0,0,348.0,1
152,152,0.16660937997307135,0.2,1.0,1.0,429.0,614.0,1.0,1,677.0,1
153,153,-0.7711593580672853,-0.8,1.0,0.0,335.0,638.0,0.0,0,287.0,1
154,154,-0.14968255725935065,-0.1,1.0,0.0,493.0,976.0,0.0,0,1091.0,1
155,155,-0.020638583622764828,-0.0,1.0,0.0,364.0,757.0,0.0,0,689.0,1
156,156,0.8247894873029341,0.8,0.0,0.0,410.0,953.0,0.0,1,387.0,1
157,157,-0.06378552275951388,-0.1,0.0,1.0,457.0,650.0,1.0,0,1893.0,1
158,158,-0.6890190098495533,-0.7,0.0,1.0,411.0,626.0,1.0,0,1493.0,1
159,159,0.5299819743691637,0.5,0.0,0.0,472.0,521.0,0.0,1,257.0,1
160,160,-0.2633592065656787,-0.3,0.0,1.0,259.0,657.0,1.0,0,654.0,1
161,161,-0.6217625091862959,-0.6,0.0,1.0,387.0,542.0,1.0,0,1721.0,1
162,162,0.6250646197887236,0.6,1.0,1.0,496.0,530.0,1.0,1,364.0,1
163,163,-0.7579130645942236,-0.8,1.0,0.0,383.0,693.0,0.0,0,374.0,1
164,164,-0.20153217604429707,-0.2,0.0,1.0,493.0,590.0,1.0,0,387.0,1
165,165,0.8119999504936949,0.8,1.0,1.0,324.0,581.0,1.0,1,2095.0,1
166,166,-0.8095342212781667,-0.8,1.0,0.0,460.0,613.0,0.0,0,107.0,1
167,167,0.23222526446922875,0.2,1.0,1.0,299.0,851.0,1.0,1,1850.0,1
168,168,0.6945402280161611,0.7,1.0,1.0,325.0,633.0,1.0,1,1012.0,1
169,169,0.8273486487507916,0.8,1.0,1.0,398.0,512.0,1.0,1,1750.0,1
170,170,0.11239146297044866,0.1,1.0,1.0,484.0,902.0,1.0,1,1614.0,1
171,171,-0.4564525945335655,-0.5,0.0,1.0,369.0,773.0,1.0,0,608.0,1
172,172,-0.38542337775919533,-0.4,0.0,1.0,349.0,549.0,1.0,0,532.0,1
173,173,-0.7261246171514399,-0.7,0.0,1.0,482.0,664.0,1.0,0,614.0,1
174,174,0.53293781348327,0.5,1.0,1.0,275.0,826.0,1.0,1,259.0,1
175,175,0.6690490539240673,0.7,1.0,1.0,467.0,997.0,1.0,1,826.0,1
176,176,-0.5038438224886962,-0.5,1.0,0.0,429.0,692.0,0.0,0,269.0,1
177,177,0.11080437555132117,0.1,0.0,0.0,473.0,892.0,0.0,1,1265.0,1
178,178,0.6465612172823197,0.6,0.0,0.0,404.0,512.0,0.0,1,624.0,1
179,179,0.07402286899943633,0.1,1.0,1.0,324.0,794.0,0.0,0,1882.0,0
180,180,0.0768494660775576,0.1,1.0,1.0,496.0,689.0,0.0,0,-195.0,0
181,181,0.7135568602516639,0.7,0.0,0.0,491.0,791.0,0.0,1,488.0,1
182,182,-0.6428228885296805,-0.6,0.0,1.0,309.0,827.0,1.0,0,234.0,1
183,183,-0.7048069712027992,-0.7,0.0,1.0,381.0,864.0,1.0,0,325.0,1
184,184,0.047485771809492094,0.0,1.0,1.0,383.0,525.0,0.0,0,22.0,0
185,185,0.33739287615824975,0.3,1.0,1.0,300.0,749.0,1.0,1,1861.0,1
186,186,-0.6964287363507503,-0.7,1.0,0.0,429.0,923.0,0.0,0,108.0,1
187,187,-0.02184888171893329,-0.0,1.0,0.0,310.0,561.0,0.0,0,1619.0,1
188,188,0.6924207045355398,0.7,0.0,0.0,485.0,546.0,0.0,1,709.0,1
189,189,0.11977020232327706,0.1,1.0,1.0,255.0,971.0,0.0,0,1774.0,0
190,190,0.7423881341059094,0.7,1.0,1.0,453.0,731.0,1.0,1,316.0,1
191,191,-0.7149945589712233,-0.7,0.0,1.0,411.0,960.0,1.0,0,249.0,1
192,192,-0.07645626270817929,-0.1,0.0,1.0,264.0,640.0,1.0,0,2096.0,1
193,193,0.5261024191112608,0.5,1.0,1.0,348.0,861.0,1.0,1,1101.0,1
194,194,0.4763580690918404,0.5,1.0,1.0,497.0,825.0,0.0,0,-172.0,0
195,195,-0.21876843684097813,-0.2,1.0,0.0,431.0,505.0,0.0,0,764.0,1
196,196,0.764903368439431,0.8,0.0,0.0,315.0,739.0,0.0,1,396.0,1
197,197,0.4724227125341859,0.5,0.0,0.0,273.0,614.0,0.0,1,803.0,1
198,198,0.00171466570891321,0.0,0.0,0.0,361.0,623.0,1.0,0,2016.0,0
199,199,0.3224258842435589,0.3,0.0,0.0,296.0,564.0,1.0,0,-90.0,0
200,200,0.4873088455802518,0.5,0.0,0.0,331.0,902.0,0.0,1,377.0,1
201,201,-0.197838596174151,-0.2,1.0,0.0,494.0,956.0,0.0,0,380.0,1
202,202,-0.6930030767710965,-0.7,0.0,1.0,276.0,841.0,1.0,0,453.0,1
203,203,0.7465035656786948,0.7,1.0,1.0,352.0,718.0,1.0,1,660.0,1
204,204,0.8771314926459465,0.9,0.0,0.0,385.0,814.0,0.0,1,221.0,1
205,205,0.3324260668431155,0.3,0.0,0.0,440.0,918.0,0.0,1,782.0,1
206,206,0.5318653401308119,0.5,1.0,1.0,350.0,757.0,1.0,1,1353.0,1
207,207,0.8453105958287391,0.8,1.0,1.0,455.0,922.0,1.0,1,423.0,1
208,208,-0.8074396156273747,-0.8,1.0,0.0,353.0,541.0,0.0,0,346.0,1
209,209,0.7854665710774976,0.8,1.0,1.0,279.0,574.0,1.0,1,557.0,1
210,210,0.3288010914504266,0.3,0.0,0.0,476.0,843.0,0.0,1,501.0,1
211,211,-0.4203796720965027,-0.4,1.0,0.0,377.0,881.0,0.0,0,432.0,1
212,212,-0.3601585392650879,-0.4,1.0,0.0,287.0,758.0,0.0,0,1095.0,1
213,213,-0.7824321667478833,-0.8,1.0,0.0,304.0,688.0,0.0,0,168.0,1
214,214,-0.6482776921672793,-0.6,0.0,1.0,274.0,639.0,1.0,0,417.0,1
215,215,0.06245753525577957,0.1,0.0,0.0,264.0,629.0,0.0,1,1687.0,1
216,216,-0.030221108210063408,-0.0,1.0,0.0,275.0,678.0,0.0,0,1187.0,1
217,217,-0.233251920169818,-0.2,1.0,0.0,362.0,716.0,0.0,0,702.0,1
218,218,-0.6893831482975383,-0.7,1.0,0.0,412.0,786.0,0.0,0,152.0,1
219,219,-0.5204750938436266,-0.5,1.0,0.0,349.0,609.0,0.0,0,242.0,1
220,220,-0.2632379595186376,-0.3,0.0,1.0,383.0,921.0,1.0,0,1366.0,1
221,221,0.07127951298450985,0.1,1.0,1.0,322.0,912.0,0.0,0,256.0,0
222,222,0.47411573637818016,0.5,0.0,0.0,326.0,786.0,0.0,1,298.0,1
223,223,-0.21501318479683573,-0.2,1.0,0.0,297.0,704.0,0.0,0,649.0,1
224,224,0.07701441124707775,0.1,1.0,1.0,425.0,587.0,0.0,0,1988.0,0
225,225,-0.1896812486976155,-0.2,0.0,1.0,276.0,935.0,1.0,0,1739.0,1
226,226,0.5415544261562294,0.5,0.0,0.0,369.0,781.0,0.0,1,670.0,1
227,227,-0.8794955481904306,-0.9,0.0,1.0,251.0,901.0,1.0,0,318.0,1
228,228,0.4123997089753909,0.4,1.0,1.0,291.0,506.0,1.0,1,743.0,1
229,229,0.46821102724486285,0.5,0.0,0.0,285.0,825.0,0.0,1,470.0,1
230,230,0.5775483733382395,0.6,1.0,1.0,386.0,777.0,1.0,1,1767.0,1
231,231,-0.6262534153795449,-0.6,1.0,0.0,290.0,912.0,0.0,0,148.0,1
232,232,0.6981712047839755,0.7,1.0,1.0,305.0,605.0,1.0,1,510.0,1
233,233,0.6906298022390432,0.7,1.0,1.0,383.0,755.0,1.0,1,1312.0,1
234,234,-0.8193898122262202,-0.8,0.0,1.0,361.0,803.0,1.0,0,276.0,1
235,235,0.2260244961566441,0.2,1.0,1.0,356.0,721.0,1.0,1,1923.0,1
236,236,0.6033120179658295,0.6,0.0,0.0,408.0,967.0,0.0,1,335.0,1
237,237,-0.5771267628336734,-0.6,1.0,0.0,293.0,857.0,0.0,0,190.0,1
238,238,-0.3261616792619134,-0.3,1.0,0.0,298.0,948.0,0.0,0,1394.0,1
239,239,0.5968114210491516,0.6,0.0,0.0,371.0,751.0,0.0,1,248.0,1
240,240,0.4226344697815224,0.4,0.0,0.0,470.0,929.0,0.0,1,591.0,1
241,241,0.876994039905666,0.9,1.0,1.0,462.0,822.0,1.0,1,586.0,1
242,242,-0.8837992209281712,-0.9,1.0,0.0,421.0,534.0,0.0,0,365.0,1
243,243,0.3281469948948318,0.3,1.0,1.0,406.0,852.0,1.0,1,1492.0,1
244,244,-0.1813265850586384,-0.2,0.0,1.0,436.0,647.0,1.0,0,987.0,1
245,245,-0.7318496391118084,-0.7,1.0,0.0,384.0,617.0,0.0,0,219.0,1
246,246,0.49277479077166564,0.5,1.0,1.0,483.0,968.0,1.0,1,1069.0,1
247,247,-0.7782559434804358,-0.8,1.0,0.0,393.0,627.0,0.0,0,260.0,1
248,248,0.2439889762181483,0.2,0.0,0.0,379.0,637.0,0.0,1,874.0,1
249,249,0.8109583172293132,0.8,1.0,1.0,363.0,768.0,1.0,1,1869.0,1
250,250,-0.6746884838166933,-0.7,0.0,1.0,382.0,893.0,1.0,0,215.0,1
251,251,0.22193461954278948,0.2,1.0,1.0,498.0,591.0,1.0,1,1911.0,1
252,252,-0.5318401764396412,-0.5,0.0,1.0,427.0,516.0,1.0,0,37.0,1
253,253,-0.7622084567994908,-0.8,0.0,1.0,265.0,622.0,1.0,0,773.0,1
254,254,-0.7286366858371047,-0.7,0.0,1.0,258.0,517.0,1.0,0,245.0,1
255,255,0.39540530371501037,0.4,0.0,0.0,275.0,748.0,0.0,1,407.0,1
256,256,-0.5665872082996823,-0.6,1.0,0.0,451.0,808.0,0.0,0,461.0,1
257,257,-0.4877723902039826,-0.5,0.0,1.0,254.0,725.0,1.0,0,451.0,1
258,258,-0.2021633273561615,-0.2,0.0,1.0,471.0,565.0,1.0,0,534.0,1
259,259,-0.3427932436287433,-0.3,1.0,0.0,346.0,714.0,0.0,0,250.0,1
260,260,-0.1661580125376002,-0.2,0.0,1.0,390.0,501.0,1.0,0,459.0,1
261,261,-0.6934299197899105,-0.7,1.0,0.0,472.0,940.0,0.0,0,268.0,1
262,262,0.874960033091737,0.9,1.0,1.0,336.0,951.0,0.0,0,-237.0,0
263,263,0.050511101259086866,0.1,0.0,0.0,367.0,873.0,0.0,1,1760.0,1
264,264,-0.7250078311124835,-0.7,0.0,1.0,305.0,537.0,1.0,0,578.0,1
265,265,0.5115335656402756,0.5,0.0,0.0,412.0,511.0,0.0,1,697.0,1
266,266,-0.7413002657239169,-0.7,1.0,0.0,389.0,998.0,0.0,0,333.0,1
267,267,-0.391067035116909,-0.4,1.0,0.0,306.0,724.0,0.0,0,380.0,1
268,268,-0.6358556219236065,-0.6,1.0,0.0,410.0,790.0,0.0,0,450.0,1
269,269,0.003056956389513421,0.0,1.0,1.0,338.0,739.0,0.0,0,1303.0,0
270,270,0.09427545478620836,0.1,1.0,1.0,413.0,589.0,1.0,1,1998.0,1
271,271,-0.33940122196374767,-0.3,0.0,1.0,333.0,721.0,1.0,0,1116.0,1
272,272,0.2522801573699839,0.3,0.0,0.0,305.0,689.0,0.0,1,606.0,1
273,273,-0.20449162987652825,-0.2,1.0,0.0,350.0,773.0,0.0,0,457.0,1
274,274,0.22135759887267892,0.2,0.0,0.0,488.0,641.0,0.0,1,81.0,1
275,275,-0.30155968561336444,-0.3,0.0,1.0,463.0,966.0,1.0,0,1041.0,1
276,276,-0.19755921350128058,-0.2,0.0,1.0,464.0,694.0,1.0,0,1842.0,1
277,277,0.6305203925092292,0.6,0.0,0.0,368.0,570.0,0.0,1,212.0,1
278,278,0.7116941777928486,0.7,0.0,0.0,451.0,531.0,0.0,1,408.0,1
279,279,0.2698239280159508,0.3,1.0,1.0,300.0,809.0,1.0,1,1291.0,1
280,280,0.6091503364371721,0.6,0.0,0.0,473.0,793.0,0.0,1,524.0,1
281,281,-0.06349868621379395,-0.1,0.0,1.0,447.0,717.0,1.0,0,1836.0,1
282,282,-0.7555294952669025,-0.8,1.0,0.0,285.0,712.0,0.0,0,3.0,1
283,283,0.4106361975627447,0.4,0.0,0.0,494.0,558.0,1.0,0,88.0,0
284,284,-0.4307811504907479,-0.4,1.0,0.0,433.0,860.0,0.0,0,127.0,1
285,285,0.3960501702205349,0.4,1.0,1.0,385.0,546.0,1.0,1,2069.0,1
286,286,-0.27913405053335905,-0.3,0.0,1.0,454.0,657.0,1.0,0,89.0,1
287,287,0.14763850673805667,0.1,0.0,0.0,352.0,792.0,0.0,1,1856.0,1
288,288,-0.3524779309682675,-0.4,0.0,1.0,346.0,746.0,1.0,0,478.0,1
289,289,-0.8257657981147012,-0.8,1.0,0.0,407.0,959.0,0.0,0,224.0,1
290,290,0.030372635152799088,0.0,0.0,0.0,311.0,853.0,0.0,1,1836.0,1
291,291,0.6483783722588611,0.6,0.0,0.0,293.0,968.0,0.0,1,469.0,1
292,292,-0.06355283556859037,-0.1,0.0,1.0,268.0,658.0,1.0,0,2074.0,1
293,293,0.5134244886316673,0.5,1.0,1.0,316.0,950.0,1.0,1,604.0,1
294,294,-0.6397865653554612,-0.6,0.0,1.0,370.0,530.0,1.0,0,450.0,1
295,295,0.3184053200705125,0.3,1.0,1.0,475.0,849.0,1.0,1,1676.0,1
296,296,-0.6160852285154789,-0.6,1.0,0.0,403.0,504.0,0.0,0,443.0,1
297,297,0.31163469353488227,0.3,0.0,0.0,295.0,972.0,0.0,1,363.0,1
298,298,0.7399011519809718,0.7,1.0,1.0,355.0,771.0,1.0,1,1234.0,1
299,299,-0.6699282010014149,-0.7,1.0,0.0,264.0,714.0,0.0,0,472.0,1
300,300,-0.4629502350807052,-0.5,0.0,1.0,305.0,889.0,1.0,0,686.0,1
301,301,0.3093454243797563,0.3,0.0,0.0,340.0,509.0,0.0,1,2151.0,1
302,302,-0.6416913084810925,-0.6,0.0,1.0,312.0,873.0,1.0,0,215.0,1
303,303,0.5835590532255476,0.6,1.0,1.0,291.0,749.0,1.0,1,780.0,1
304,304,-0.019439265897311264,-0.0,1.0,0.0,395.0,956.0,0.0,0,1649.0,1
305,305,-0.48804295193675984,-0.5,0.0,1.0,277.0,634.0,1.0,0,619.0,1
306,306,-0.14538224289895718,-0.1,1.0,0.0,412.0,825.0,0.0,0,623.0,1
307,307,-0.4243953455909562,-0.4,1.0,0.0,335.0,775.0,0.0,0,130.0,1
308,308,-0.45154072613072704,-0.5,0.0,1.0,342.0,767.0,1.0,0,321.0,1
309,309,-0.009365832584938394,-0.0,1.0,0.0,257.0,994.0,0.0,0,1749.0,1
310,310,0.1289320029768538,0.1,0.0,0.0,402.0,620.0,0.0,1,1228.0,1
311,311,-0.21497328896139412,-0.2,1.0,0.0,401.0,579.0,0.0,0,350.0,1
312,312,-0.16460116147834924,-0.2,0.0,1.0,442.0,739.0,1.0,0,1819.0,1
313,313,-0.29478251200770555,-0.3,0.0,1.0,281.0,921.0,1.0,0,698.0,1
314,314,0.8335706775311561,0.8,0.0,0.0,250.0,986.0,0.0,1,144.0,1
315,315,0.6219091437935097,0.6,1.0,1.0,473.0,654.0,1.0,1,1193.0,1
316,316,0.3343299388218407,0.3,0.0,0.0,457.0,697.0,0.0,1,36.0,1
317,317,-0.13506905533016222,-0.1,1.0,0.0,391.0,656.0,0.0,0,1313.0,1
318,318,0.3471000562428165,0.3,0.0,0.0,324.0,674.0,0.0,1,692.0,1
319,319,-0.001860005348295446,-0.0,1.0,0.0,448.0,704.0,1.0,1,1848.0,0
320,320,0.36767459101759814,0.4,1.0,1.0,407.0,766.0,1.0,1,1137.0,1
321,321,-0.7819030463954346,-0.8,1.0,0.0,476.0,527.0,0.0,0,277.0,1
322,322,-0.6961229151983108,-0.7,0.0,1.0,434.0,776.0,1.0,0,450.0,1
323,323,0.8731129299473289,0.9,0.0,0.0,395.0,842.0,0.0,1,353.0,1
324,324,0.3168585134181864,0.3,0.0,0.0,299.0,751.0,0.0,1,1670.0,1
325,325,-0.1872911330903897,-0.2,1.0,0.0,489.0,663.0,0.0,0,1848.0,1
326,326,0.30136256233292513,0.3,1.0,1.0,480.0,586.0,1.0,1,1934.0,1
327,327,-0.6397110523520008,-0.6,1.0,0.0,410.0,995.0,0.0,0,135.0,1
328,328,-0.18047349676192548,-0.2,1.0,0.0,283.0,630.0,0.0,0,507.0,1
329,329,0.4279800700359885,0.4,0.0,0.0,251.0,616.0,0.0,1,243.0,1
330,330,0.533166986829548,0.5,0.0,0.0,479.0,983.0,0.0,1,248.0,1
331,331,-0.43199846811138465,-0.4,0.0,1.0,276.0,889.0,1.0,0,1375.0,1
332,332,0.0366557845795672,0.0,1.0,1.0,418.0,787.0,0.0,0,1795.0,0
333,333,0.5818186130623081,0.6,0.0,0.0,386.0,795.0,0.0,1,539.0,1
334,334,0.13982160353711215,0.1,1.0,1.0,458.0,650.0,0.0,0,-208.0,0
335,335,0.8839421849638621,0.9,0.0,0.0,390.0,576.0,0.0,1,664.0,1
336,336,-0.016958864092515902,-0.0,0.0,1.0,281.0,602.0,1.0,0,2117.0,1
337,337,0.6932514739142691,0.7,0.0,0.0,415.0,559.0,0.0,1,546.0,1
338,338,-0.7619272064202988,-0.8,0.0,1.0,466.0,688.0,1.0,0,1086.0,1
339,339,0.8535331842952908,0.9,1.0,1.0,301.0,655.0,1.0,1,1084.0,1
340,340,0.4257810273517736,0.4,0.0,0.0,454.0,893.0,0.0,1,383.0,1
341,341,-0.7419443857340469,-0.7,1.0,0.0,329.0,856.0,0.0,0,125.0,1
342,342,0.07758669701016963,0.1,1.0,1.0,436.0,707.0,1.0,1,1857.0,1
343,343,0.7681808035752632,0.8,1.0,1.0,375.0,867.0,1.0,1,528.0,1
344,344,-0.548695443572792,-0.5,1.0,0.0,258.0,920.0,0.0,0,172.0,1
345,345,-0.01829940947084563,-0.0,0.0,1.0,342.0,575.0,0.0,1,113.0,0
346,346,0.11110451548038813,0.1,1.0,1.0,334.0,625.0,1.0,1,2041.0,1
347,347,-0.5675095744302268,-0.6,0.0,1.0,281.0,953.0,1.0,0,386.0,1
348,348,-0.4910311810778513,-0.5,1.0,0.0,444.0,954.0,0.0,0,442.0,1
349,349,0.3123261035082744,0.3,1.0,1.0,444.0,808.0,1.0,1,1748.0,1
350,350,-0.6484953602789867,-0.6,1.0,0.0,377.0,823.0,0.0,0,790.0,1
351,351,-0.61689137719586,-0.6,1.0,0.0,413.0,872.0,0.0,0,335.0,1
352,352,0.5041369058736084,0.5,1.0,1.0,442.0,893.0,1.0,1,985.0,1
353,353,0.036387188202451015,0.0,1.0,1.0,498.0,524.0,0.0,0,1978.0,0
354,354,0.05497525404970616,0.1,1.0,1.0,259.0,831.0,1.0,1,1910.0,1
355,355,-0.07317256573288544,-0.1,1.0,0.0,280.0,942.0,1.0,1,1778.0,0
356,356,-0.32056768917151524,-0.3,0.0,1.0,268.0,741.0,1.0,0,561.0,1
357,357,0.4193605385617206,0.4,1.0,1.0,404.0,752.0,1.0,1,1844.0,1
358,358,0.27236205413878334,0.3,1.0,1.0,378.0,779.0,1.0,1,683.0,1
359,359,0.5798330434276188,0.6,1.0,1.0,368.0,639.0,1.0,1,403.0,1
360,360,0.046870572577302094,0.0,0.0,0.0,485.0,974.0,0.0,1,1541.0,1
361,361,-0.5368310402851781,-0.5,1.0,0.0,422.0,669.0,0.0,0,399.0,1
362,362,0.40041165130945167,0.4,0.0,0.0,493.0,572.0,0.0,1,1155.0,1
363,363,0.07374411431120398,0.1,1.0,1.0,479.0,776.0,0.0,0,355.0,0
364,364,0.8873405513906042,0.9,1.0,1.0,469.0,645.0,1.0,1,346.0,1
365,365,-0.8193122711682282,-0.8,1.0,0.0,307.0,521.0,0.0,0,282.0,1
366,366,-0.8879891662558146,-0.9,1.0,0.0,333.0,561.0,0.0,0,146.0,1
367,367,-0.1707319743310418,-0.2,1.0,0.0,413.0,535.0,0.0,0,562.0,1
368,368,-0.012078881041704959,-0.0,0.0,1.0,329.0,674.0,0.0,1,837.0,0
369,369,0.0825922886407724,0.1,1.0,1.0,412.0,715.0,0.0,0,1873.0,0
370,370,-0.00027166039728421243,-0.0,0.0,1.0,397.0,565.0,0.0,1,2038.0,0
371,371,0.45182245780307595,0.5,1.0,1.0,336.0,668.0,1.0,1,1386.0,1
372,372,0.34137888249103987,0.3,1.0,1.0,431.0,727.0,1.0,1,1642.0,1
373,373,0.411780702287147,0.4,1.0,1.0,473.0,605.0,1.0,1,1252.0,1
374,374,0.36379771597983124,0.4,0.0,0.0,328.0,636.0,0.0,1,446.0,1
375,375,-0.23654172740817714,-0.2,0.0,1.0,460.0,582.0,1.0,0,1108.0,1
376,376,-0.8577203285261377,-0.9,1.0,0.0,338.0,739.0,0.0,0,153.0,1
377,377,0.8751134759609261,0.9,0.0,0.0,278.0,935.0,0.0,1,97.0,1
378,378,-0.050548929001570264,-0.1,1.0,0.0,407.0,625.0,0.0,0,968.0,1
379,379,0.8734474519685546,0.9,0.0,0.0,418.0,793.0,0.0,1,239.0,1
380,380,0.7611728377634591,0.8,0.0,0.0,337.0,715.0,0.0,1,298.0,1
381,381,0.8261046549544434,0.8,0.0,0.0,433.0,852.0,0.0,1,355.0,1
382,382,0.016556464741300014,0.0,1.0,1.0,414.0,763.0,0.0,0,1823.0,0
383,383,0.46901205674196567,0.5,1.0,1.0,413.0,841.0,0.0,0,-174.0,0
384,384,0.3295898167487269,0.3,1.0,1.0,288.0,980.0,1.0,1,1732.0,1
385,385,0.3102664397612608,0.3,0.0,0.0,333.0,512.0,0.0,1,1255.0,1
386,386,-0.3467788543063749,-0.3,0.0,1.0,444.0,585.0,1.0,0,1001.0,1
387,387,0.02038852890436682,0.0,0.0,0.0,449.0,605.0,1.0,0,6.0,0
388,388,-0.0581569739237473,-0.1,1.0,0.0,345.0,751.0,0.0,0,1904.0,1
389,389,0.870088070511502,0.9,0.0,0.0,297.0,966.0,0.0,1,217.0,1
390,390,0.8437810146992436,0.8,0.0,0.0,313.0,728.0,0.0,1,679.0,1
391,391,-0.0997659562327936,-0.1,1.0,0.0,373.0,737.0,0.0,0,1890.0,1
392,392,-0.585299239993748,-0.6,1.0,0.0,429.0,877.0,0.0,0,274.0,1
393,393,-0.14414789341918788,-0.1,0.0,1.0,349.0,555.0,1.0,0,2096.0,1
394,394,0.11826889697978371,0.1,0.0,0.0,412.0,925.0,0.0,1,1663.0,1
395,395,-0.22336603441973513,-0.2,1.0,0.0,357.0,811.0,0.0,0,1612.0,1
396,396,-0.6802718527731171,-0.7,1.0,0.0,375.0,826.0,0.0,0,419.0,1
397,397,-0.8436776514487151,-0.8,1.0,0.0,488.0,831.0,0.0,0,501.0,1
398,398,0.8460385081342586,0.8,0.0,0.0,353.0,715.0,0.0,1,292.0,1
399,399,0.16355175213016493,0.2,1.0,1.0,393.0,842.0,1.0,1,1765.0,1
400,400,-0.8251788360754063,-0.8,1.0,0.0,442.0,795.0,0.0,0,-227.0,1
401,401,-0.8569901315957498,-0.9,1.0,0.0,350.0,924.0,0.0,0,116.0,1
402,402,0.5825799036317542,0.6,1.0,1.0,454.0,594.0,1.0,1,1952.0,1
403,403,0.3794957314092754,0.4,1.0,1.0,425.0,834.0,1.0,1,1211.0,1
404,404,0.7468679254822267,0.7,1.0,1.0,331.0,681.0,1.0,1,458.0,1
405,405,0.4935138729706213,0.5,0.0,0.0,251.0,737.0,0.0,1,572.0,1
406,406,0.5802603464532049,0.6,1.0,1.0,406.0,684.0,1.0,1,370.0,1
407,407,-0.6805660247769086,-0.7,0.0,1.0,261.0,544.0,1.0,0,415.0,1
408,408,-0.48008145700279165,-0.5,1.0,0.0,345.0,722.0,0.0,0,303.0,1
409,409,-0.7991229943706223,-0.8,1.0,0.0,435.0,906.0,0.0,0,169.0,1
410,410,-0.4533301798848199,-0.5,0.0,1.0,278.0,649.0,1.0,0,763.0,1
411,411,-0.275033169135813,-0.3,0.0,1.0,482.0,503.0,1.0,0,1825.0,1
412,412,0.806242067423706,0.8,0.0,0.0,475.0,552.0,0.0,1,193.0,1
413,413,-0.14160234833931262,-0.1,0.0,1.0,406.0,665.0,1.0,0,1039.0,1
414,414,-0.10797576173811374,-0.1,1.0,0.0,260.0,562.0,0.0,0,258.0,1
415,415,0.05097401283315095,0.1,0.0,0.0,401.0,791.0,0.0,1,1808.0,1
416,416,-0.4232607738584466,-0.4,0.0,1.0,410.0,704.0,1.0,0,376.0,1
417,417,-0.39128731734375277,-0.4,0.0,1.0,261.0,684.0,1.0,0,145.0,1
418,418,0.5282961582395335,0.5,1.0,1.0,452.0,531.0,1.0,1,1067.0,1
419,419,0.5039428656398842,0.5,0.0,0.0,262.0,927.0,1.0,0,31.0,0
420,420,-0.8828859648675489,-0.9,0.0,1.0,274.0,538.0,1.0,0,368.0,1
421,421,-0.1837932242673027,-0.2,0.0,1.0,375.0,829.0,1.0,0,1796.0,1
422,422,0.15076819428706745,0.2,1.0,1.0,413.0,715.0,0.0,0,1872.0,0
423,423,0.8432395610740856,0.8,1.0,1.0,251.0,872.0,1.0,1,1877.0,1
424,424,-0.6834412774721377,-0.7,1.0,0.0,268.0,586.0,0.0,0,196.0,1
425,425,0.6393665441154072,0.6,1.0,1.0,253.0,799.0,1.0,1,528.0,1
426,426,-0.10338770421184984,-0.1,1.0,0.0,361.0,747.0,0.0,0,1892.0,1
427,427,-0.8589578450742391,-0.9,0.0,1.0,419.0,657.0,1.0,0,574.0,1
428,428,-0.8837586356001739,-0.9,1.0,0.0,331.0,862.0,0.0,0,467.0,1
429,429,0.4851185979967133,0.5,0.0,0.0,301.0,502.0,0.0,1,497.0,1
430,430,-0.1551041616133536,-0.2,0.0,1.0,327.0,806.0,1.0,0,1867.0,1
431,431,0.39015530265905773,0.4,0.0,0.0,410.0,897.0,0.0,1,683.0,1
432,432,-0.825239452038605,-0.8,1.0,0.0,383.0,750.0,0.0,0,297.0,1
433,433,0.40712762474080677,0.4,0.0,0.0,380.0,619.0,0.0,1,381.0,1
434,434,-0.6022980017710651,-0.6,1.0,0.0,363.0,777.0,0.0,0,210.0,1
435,435,0.7865925248239293,0.8,0.0,0.0,375.0,801.0,0.0,1,264.0,1
436,436,-0.35886962922860355,-0.4,1.0,0.0,256.0,621.0,0.0,0,243.0,1
437,437,0.7282012117386266,0.7,1.0,1.0,293.0,872.0,1.0,1,535.0,1
438,438,-0.894798562110819,-0.9,0.0,1.0,319.0,987.0,1.0,0,614.0,1
439,439,0.6945997043680582,0.7,1.0,1.0,491.0,630.0,1.0,1,1879.0,1
440,440,0.6906434739957589,0.7,0.0,0.0,328.0,887.0,0.0,1,455.0,1
441,441,0.7599335543030598,0.8,1.0,1.0,380.0,779.0,1.0,1,251.0,1
442,442,-0.19842810905688169,-0.2,1.0,0.0,395.0,911.0,0.0,0,274.0,1
443,443,-0.7208295478856523,-0.7,0.0,1.0,305.0,922.0,1.0,0,213.0,1
444,444,-0.7534087986061739,-0.8,0.0,1.0,497.0,738.0,1.0,0,1285.0,1
445,445,0.19083486471088718,0.2,0.0,0.0,316.0,647.0,0.0,1,1627.0,1
446,446,-0.09830376985112776,-0.1,1.0,0.0,346.0,945.0,0.0,0,359.0,1
447,447,0.7112625401466538,0.7,1.0,1.0,329.0,557.0,1.0,1,804.0,1
448,448,-0.54583687070062,-0.5,0.0,1.0,294.0,627.0,1.0,0,1489.0,1
449,449,-0.3754388370148324,-0.4,0.0,1.0,340.0,858.0,1.0,0,1342.0,1
450,450,-0.6419817279082618,-0.6,1.0,0.0,445.0,806.0,0.0,0,249.0,1
451,451,0.025095957484822184,0.0,1.0,1.0,360.0,550.0,0.0,0,2090.0,0
452,452,0.3185563981522156,0.3,0.0,0.0,324.0,955.0,0.0,1,1381.0,1
453,453,0.5162734156846315,0.5,0.0,0.0,444.0,644.0,0.0,1,612.0,1
454,454,0.4227748492086333,0.4,1.0,1.0,331.0,828.0,1.0,1,551.0,1
455,455,0.5252923921857388,0.5,0.0,0.0,344.0,724.0,0.0,1,702.0,1
456,456,-0.20255367073036812,-0.2,1.0,0.0,438.0,846.0,0.0,0,-264.0,1
457,457,-0.7847178790824471,-0.8,0.0,1.0,421.0,733.0,1.0,0,476.0,1
458,458,-0.8319694473173583,-0.8,1.0,0.0,459.0,905.0,0.0,0,176.0,1
459,459,-0.40327693748379007,-0.4,1.0,0.0,473.0,901.0,0.0,0,826.0,1
460,460,0.24372981069885358,0.2,1.0,1.0,395.0,930.0,1.0,1,895.0,1
461,461,-0.6649972968344533,-0.7,1.0,0.0,264.0,727.0,0.0,0,339.0,1
462,462,-0.13857885767393185,-0.1,0.0,1.0,443.0,664.0,1.0,0,1893.0,1
463,463,0.7740664957889926,0.8,1.0,1.0,252.0,618.0,1.0,1,90.0,1
464,464,0.2348788548127897,0.2,0.0,0.0,310.0,625.0,0.0,1,745.0,1
465,465,0.12356419781584871,0.1,0.0,0.0,273.0,524.0,0.0,1,963.0,1
466,466,0.14241288366737692,0.1,0.0,0.0,272.0,980.0,0.0,1,1748.0,1
467,467,-0.3732044464815448,-0.4,1.0,0.0,266.0,639.0,0.0,0,575.0,1
468,468,0.3541078031174031,0.4,1.0,1.0,389.0,876.0,1.0,1,1345.0,1
469,469,0.4777466673154659,0.5,1.0,1.0,335.0,811.0,1.0,1,364.0,1
470,470,-0.8679022317895427,-0.9,0.0,1.0,322.0,951.0,1.0,0,137.0,1
471,471,-0.21962278823106574,-0.2,0.0,1.0,360.0,716.0,1.0,0,904.0,1
472,472,-0.8469948413397698,-0.8,1.0,0.0,347.0,876.0,0.0,0,277.0,1
473,473,0.5319892275053534,0.5,1.0,1.0,253.0,884.0,1.0,1,1863.0,1
474,474,0.13384488575882603,0.1,0.0,0.0,484.0,674.0,0.0,1,1842.0,1
475,475,0.5825546060481076,0.6,1.0,1.0,401.0,773.0,1.0,1,1026.0,1
476,476,0.7179852628344302,0.7,0.0,0.0,259.0,845.0,0.0,1,176.0,1
477,477,0.03219665806377814,0.0,0.0,0.0,287.0,973.0,1.0,0,1700.0,0
478,478,-0.1412279805845753,-0.1,0.0,1.0,479.0,952.0,1.0,0,619.0,1
479,479,0.5843748642264307,0.6,1.0,1.0,350.0,938.0,1.0,1,1032.0,1
480,480,0.17752700741890182,0.2,0.0,0.0,424.0,763.0,0.0,1,983.0,1
481,481,0.8865265301429727,0.9,1.0,1.0,380.0,969.0,1.0,1,1451.0,1
482,482,0.4162977116315062,0.4,0.0,0.0,304.0,644.0,0.0,1,572.0,1
483,483,0.3619124053258037,0.4,0.0,0.0,349.0,652.0,0.0,1,1099.0,1
484,484,0.2121810888286294,0.2,0.0,0.0,488.0,675.0,0.0,1,1837.0,1
485,485,0.45090664639257405,0.5,1.0,1.0,440.0,646.0,1.0,1,434.0,1
486,486,0.2851947400582552,0.3,0.0,0.0,340.0,657.0,0.0,1,773.0,1
487,487,0.5957972416045861,0.6,1.0,1.0,481.0,922.0,1.0,1,507.0,1
488,488,-0.35933762191279306,-0.4,0.0,1.0,350.0,904.0,1.0,0,276.0,1
489,489,-0.7953514527304268,-0.8,1.0,0.0,262.0,661.0,0.0,0,197.0,1
490,490,-0.405476983074087,-0.4,0.0,1.0,368.0,881.0,1.0,0,291.0,1
491,491,-0.30585119166772956,-0.3,0.0,1.0,346.0,781.0,1.0,0,1143.0,1
492,492,-0.13135140013584468,-0.1,0.0,1.0,457.0,547.0,1.0,0,1996.0,1
493,493,0.10921702072900963,0.1,0.0,0.0,324.0,679.0,1.0,0,1997.0,0
494,494,-0.6189128348307029,-0.6,1.0,0.0,397.0,802.0,0.0,0,171.0,1
495,495,-0.08915514079872877,-0.1,0.0,1.0,494.0,993.0,1.0,0,1513.0,1
496,496,-0.3642193992364299,-0.4,0.0,1.0,332.0,994.0,1.0,0,644.0,1
497,497,-0.5160354010426924,-0.5,1.0,0.0,383.0,560.0,0.0,0,377.0,1
498,498,-0.5120455572280447,-0.5,0.0,1.0,443.0,517.0,1.0,0,950.0,1
499,499,-0.6045376195489334,-0.6,0.0,1.0,391.0,543.0,1.0,0,496.0,1
500,500,0.5334184714363525,0.5,1.0,1.0,497.0,867.0,1.0,1,846.0,1
501,501,0.3925692191669744,0.4,0.0,0.0,334.0,521.0,0.0,1,135.0,1
502,502,-0.2499307331664402,-0.2,0.0,1.0,385.0,715.0,1.0,0,820.0,1
503,503,-0.10990756419913505,-0.1,0.0,1.0,497.0,742.0,1.0,0,821.0,1
504,504,-0.593861409934226,-0.6,1.0,0.0,447.0,596.0,0.0,0,397.0,1
505,505,0.337261261848519,0.3,1.0,1.0,484.0,934.0,1.0,1,782.0,1
506,506,-0.691963562199996,-0.7,1.0,0.0,342.0,871.0,0.0,0,-53.0,1
507,507,-0.5949441464462326,-0.6,1.0,0.0,439.0,527.0,0.0,0,384.0,1
508,508,-0.7930728320132864,-0.8,0.0,1.0,489.0,560.0,1.0,0,361.0,1
509,509,0.4269346105488393,0.4,1.0,1.0,417.0,556.0,1.0,1,707.0,1
510,510,0.3126316651326365,0.3,1.0,1.0,438.0,618.0,1.0,1,1944.0,1
511,511,-0.7244299471165516,-0.7,1.0,0.0,323.0,886.0,0.0,0,691.0,1
512,512,0.07541930004114816,0.1,1.0,1.0,332.0,993.0,1.0,1,1675.0,1
513,513,0.8051300968208915,0.8,1.0,1.0,461.0,556.0,1.0,1,353.0,1
514,514,-0.2695936331839788,-0.3,0.0,1.0,274.0,676.0,1.0,0,1700.0,1
515,515,-0.7126947487633368,-0.7,1.0,0.0,309.0,621.0,0.0,0,190.0,1
516,516,-0.4756355227468219,-0.5,0.0,1.0,337.0,796.0,1.0,0,247.0,1
517,517,0.22241820729250417,0.2,0.0,0.0,405.0,551.0,0.0,1,434.0,1
518,518,-0.1942094495023089,-0.2,1.0,0.0,466.0,887.0,0.0,0,1647.0,1
519,519,0.7763964547613623,0.8,0.0,0.0,380.0,624.0,0.0,1,386.0,1
520,520,0.6308476790418299,0.6,0.0,0.0,454.0,985.0,0.0,1,221.0,1
521,521,-0.6011462187549392,-0.6,1.0,0.0,293.0,892.0,0.0,0,-475.0,1
522,522,-0.02687054114072218,-0.0,0.0,1.0,375.0,772.0,1.0,0,1853.0,1
523,523,-0.1331712045899639,-0.1,0.0,1.0,467.0,738.0,1.0,0,1795.0,1
524,524,0.4729062444431483,0.5,0.0,0.0,398.0,597.0,0.0,1,175.0,1
525,525,0.23925799868529884,0.2,1.0,1.0,250.0,612.0,1.0,1,1578.0,1
526,526,0.035960674378420876,0.0,0.0,0.0,285.0,676.0,1.0,0,2039.0,0
527,527,-0.5284674524507493,-0.5,1.0,0.0,423.0,683.0,0.0,0,1114.0,1
528,528,0.24827850727512424,0.2,1.0,1.0,450.0,730.0,1.0,1,620.0,1
529,529,-0.10423668616776827,-0.1,0.0,1.0,381.0,519.0,1.0,0,1530.0,1
530,530,0.04882002084752579,0.0,1.0,1.0,335.0,785.0,0.0,0,1880.0,0
531,531,-0.24021685827251826,-0.2,1.0,0.0,291.0,504.0,0.0,0,755.0,1
532,532,-0.41612901523792944,-0.4,1.0,0.0,460.0,582.0,0.0,0,698.0,1
533,533,0.19426328657884062,0.2,1.0,1.0,283.0,850.0,1.0,1,1867.0,1
534,534,-0.8852384720222994,-0.9,1.0,0.0,351.0,988.0,0.0,0,261.0,1
535,535,0.7160466281429853,0.7,0.0,0.0,290.0,930.0,0.0,1,-290.0,1
536,536,-0.6384490426729377,-0.6,0.0,1.0,350.0,903.0,1.0,0,857.0,1
537,537,-0.6253462825420801,-0.6,0.0,1.0,414.0,609.0,1.0,0,587.0,1
538,538,-0.7717337655984317,-0.8,0.0,1.0,254.0,500.0,1.0,0,1916.0,1
539,539,0.5463353880312166,0.5,1.0,1.0,350.0,995.0,1.0,1,635.0,1
540,540,0.09866734196035731,0.1,1.0,1.0,317.0,607.0,1.0,1,1516.0,1
541,541,0.004395909787151986,0.0,1.0,1.0,257.0,970.0,0.0,0,-277.0,0
542,542,-0.5665296527463684,-0.6,0.0,1.0,300.0,515.0,1.0,0,795.0,1
543,543,0.6810095646439472,0.7,1.0,1.0,421.0,658.0,1.0,1,561.0,1
544,544,0.28830344252074724,0.3,1.0,1.0,312.0,717.0,1.0,1,1971.0,1
545,545,-0.7792523816950395,-0.8,1.0,0.0,261.0,636.0,0.0,0,173.0,1
546,546,-0.5941365779873552,-0.6,0.0,1.0,382.0,752.0,1.0,0,516.0,1
547,547,0.31147009387383473,0.3,1.0,1.0,364.0,575.0,1.0,1,1951.0,1
548,548,-0.5880368961692063,-0.6,0.0,1.0,482.0,904.0,1.0,0,744.0,1
549,549,0.28822886936022407,0.3,0.0,0.0,376.0,676.0,0.0,1,1078.0,1
550,550,-0.7471213998684431,-0.7,1.0,0.0,414.0,559.0,0.0,0,427.0,1
551,551,-0.7810466745978665,-0.8,0.0,1.0,359.0,949.0,0.0,1,62.0,0
552,552,0.8104909469550795,0.8,1.0,1.0,418.0,825.0,1.0,1,627.0,1
553,553,0.6001996233359238,0.6,0.0,0.0,403.0,686.0,0.0,1,301.0,1
554,554,0.09426083873934854,0.1,0.0,0.0,459.0,506.0,0.0,1,2035.0,1
555,555,0.3844203443494144,0.4,0.0,0.0,439.0,821.0,0.0,1,1060.0,1
556,556,0.1805275127078817,0.2,0.0,0.0,368.0,979.0,0.0,1,643.0,1
557,557,0.06719780816592291,0.1,1.0,1.0,310.0,917.0,1.0,1,1773.0,1
558,558,0.08808122937151708,0.1,1.0,1.0,348.0,875.0,1.0,1,1777.0,1
559,559,0.024010877079736037,0.0,1.0,1.0,480.0,977.0,0.0,0,1543.0,0
560,560,-0.49369159475149255,-0.5,1.0,0.0,463.0,777.0,0.0,0,400.0,1
561,561,0.1422797158853656,0.1,0.0,0.0,468.0,865.0,0.0,1,1667.0,1
562,562,-0.4975525227333586,-0.5,0.0,1.0,443.0,989.0,1.0,0,748.0,1
563,563,-0.6281954627356248,-0.6,0.0,1.0,446.0,833.0,1.0,0,181.0,1
564,564,-0.1194189356541353,-0.1,1.0,0.0,286.0,976.0,0.0,0,1658.0,1
565,565,0.6558959094428135,0.7,0.0,0.0,256.0,513.0,0.0,1,581.0,1
566,566,-0.3249490195192545,-0.3,1.0,0.0,383.0,656.0,0.0,0,331.0,1
567,567,0.2912938766598848,0.3,1.0,1.0,494.0,856.0,1.0,1,420.0,1
568,568,0.5884693528139656,0.6,0.0,0.0,417.0,866.0,0.0,1,247.0,1
569,569,0.6856037124134661,0.7,0.0,0.0,387.0,712.0,0.0,1,351.0,1
570,570,0.4283549986816869,0.4,1.0,1.0,391.0,756.0,1.0,1,983.0,1
571,571,-0.8945390618891694,-0.9,0.0,1.0,363.0,544.0,1.0,0,443.0,1
572,572,0.8514767248236129,0.9,1.0,1.0,453.0,708.0,1.0,1,569.0,1
573,573,0.6267858662051294,0.6,0.0,0.0,358.0,872.0,0.0,1,250.0,1
574,574,-0.6491870112568348,-0.6,1.0,0.0,395.0,843.0,0.0,0,102.0,1
575,575,-0.0908065473535129,-0.1,0.0,1.0,312.0,710.0,1.0,0,1978.0,1
576,576,-0.8774821757544532,-0.9,0.0,1.0,335.0,564.0,1.0,0,221.0,1
577,577,-0.24949513257977574,-0.2,0.0,1.0,277.0,874.0,1.0,0,449.0,1
578,578,0.4383808623737019,0.4,1.0,1.0,296.0,816.0,1.0,1,748.0,1
579,579,0.5136782345717551,0.5,1.0,1.0,340.0,656.0,1.0,1,1584.0,1
580,580,-0.7640211102131282,-0.8,1.0,0.0,315.0,883.0,0.0,0,362.0,1
581,581,-0.8380177386840212,-0.8,0.0,1.0,497.0,816.0,1.0,0,537.0,1
582,582,-0.2066809149893022,-0.2,0.0,1.0,336.0,673.0,1.0,0,1991.0,1
583,583,-0.5822898441489389,-0.6,1.0,0.0,325.0,534.0,0.0,0,161.0,1
584,584,-0.11443016573763065,-0.1,0.0,1.0,380.0,887.0,1.0,0,1733.0,1
585,585,-0.7854971064730317,-0.8,1.0,0.0,419.0,968.0,0.0,0,-397.0,1
586,586,-0.26738279003646115,-0.3,0.0,1.0,357.0,550.0,1.0,0,733.0,1
587,587,-0.6940571902456641,-0.7,0.0,1.0,489.0,526.0,1.0,0,465.0,1
588,588,-0.16667933101602384,-0.2,0.0,1.0,481.0,802.0,1.0,0,1717.0,1
589,589,-0.8321330475492115,-0.8,0.0,1.0,345.0,726.0,1.0,0,79.0,1
590,590,-0.10449047755853225,-0.1,0.0,1.0,306.0,984.0,1.0,0,1710.0,1
591,591,-0.6786278280547388,-0.7,0.0,1.0,370.0,892.0,1.0,0,268.0,1
592,592,0.691996250136449,0.7,1.0,1.0,341.0,807.0,0.0,0,-418.0,0
593,593,0.40769989039169163,0.4,1.0,1.0,340.0,728.0,1.0,1,492.0,1
594,594,0.18508723687143103,0.2,0.0,0.0,307.0,660.0,0.0,1,2033.0,1
595,595,0.09409841302961586,0.1,0.0,0.0,266.0,893.0,0.0,1,331.0,1
596,596,-0.8834226336490809,-0.9,0.0,1.0,376.0,811.0,1.0,0,283.0,1
597,597,-0.6704904633103388,-0.7,1.0,0.0,455.0,837.0,0.0,0,188.0,1
598,598,-0.7411018216186855,-0.7,0.0,1.0,332.0,802.0,1.0,0,1236.0,1
599,599,-0.047154006318032904,-0.0,1.0,0.0,486.0,784.0,0.0,0,300.0,1
600,600,0.5452069894658956,0.5,0.0,0.0,391.0,929.0,0.0,1,240.0,1
601,601,-0.10296260273749203,-0.1,1.0,0.0,470.0,914.0,0.0,0,916.0,1
602,602,0.80398178047012,0.8,1.0,1.0,263.0,774.0,1.0,1,763.0,1
603,603,0.082185045323516,0.1,0.0,0.0,290.0,802.0,1.0,0,1908.0,0
604,604,-0.6854841212423871,-0.7,1.0,0.0,282.0,800.0,0.0,0,408.0,1
605,605,-0.564597361579569,-0.6,1.0,0.0,276.0,676.0,0.0,0,-52.0,1
606,606,-0.7251059346972273,-0.7,1.0,0.0,468.0,839.0,0.0,0,383.0,1
607,607,-0.5456275361764875,-0.5,1.0,0.0,250.0,971.0,0.0,0,409.0,1
608,608,0.80386612570504,0.8,1.0,1.0,439.0,717.0,1.0,1,554.0,1
609,609,0.6217015833143401,0.6,1.0,1.0,266.0,771.0,1.0,1,893.0,1
610,610,0.5437757964326361,0.5,0.0,0.0,290.0,936.0,0.0,1,544.0,1
611,611,-0.46629744968706466,-0.5,1.0,0.0,462.0,594.0,0.0,0,484.0,1
612,612,-0.4250981057365203,-0.4,1.0,0.0,349.0,962.0,0.0,0,499.0,1
613,613,-0.7727927065544901,-0.8,0.0,1.0,388.0,794.0,1.0,0,248.0,1
614,614,0.7986183354167403,0.8,0.0,0.0,487.0,814.0,0.0,1,199.0,1
615,615,-0.4201051428858344,-0.4,1.0,0.0,408.0,837.0,0.0,0,315.0,1
616,616,-0.21717310432953874,-0.2,1.0,0.0,305.0,717.0,0.0,0,508.0,1
617,617,-0.5934668930584057,-0.6,0.0,1.0,464.0,694.0,1.0,0,282.0,1
618,618,0.6018064163153866,0.6,0.0,0.0,310.0,945.0,0.0,1,585.0,1
619,619,0.30443518502726674,0.3,1.0,1.0,270.0,796.0,1.0,1,1934.0,1
620,620,0.6326223380664143,0.6,0.0,0.0,321.0,925.0,0.0,1,344.0,1
621,621,-0.8011385197820992,-0.8,0.0,1.0,435.0,664.0,1.0,0,241.0,1
622,622,0.11029498348677536,0.1,1.0,1.0,341.0,876.0,0.0,0,-217.0,0
623,623,-0.14321649559530814,-0.1,1.0,0.0,446.0,710.0,0.0,0,764.0,1
624,624,0.4777344318622355,0.5,0.0,0.0,497.0,766.0,0.0,1,817.0,1
625,625,0.21302349253873853,0.2,1.0,1.0,453.0,619.0,1.0,1,1928.0,1
626,626,-0.6678551192609389,-0.7,1.0,0.0,421.0,593.0,0.0,0,186.0,1
627,627,0.28444165292958556,0.3,1.0,1.0,446.0,813.0,1.0,1,611.0,1
628,628,-0.8309071130055895,-0.8,0.0,1.0,380.0,727.0,1.0,0,643.0,1
629,629,0.5145990265669088,0.5,1.0,1.0,319.0,734.0,1.0,1,327.0,1
630,630,-0.18925559560236882,-0.2,0.0,1.0,286.0,644.0,1.0,0,770.0,1
631,631,-0.3450980420837597,-0.3,0.0,1.0,437.0,713.0,1.0,0,1770.0,1
632,632,-0.7546020028974662,-0.8,0.0,1.0,489.0,762.0,1.0,0,169.0,1
633,633,0.3712559208800633,0.4,1.0,1.0,452.0,586.0,1.0,1,-8.0,1
634,634,-0.4297287077955774,-0.4,1.0,0.0,299.0,878.0,0.0,0,663.0,1
635,635,-0.6589204829914742,-0.7,1.0,0.0,445.0,824.0,0.0,0,351.0,1
636,636,0.6605454177917626,0.7,0.0,0.0,394.0,883.0,0.0,1,163.0,1
637,637,0.36388161679172704,0.4,0.0,0.0,259.0,544.0,0.0,1,917.0,1
638,638,0.07005370401587085,0.1,1.0,1.0,321.0,535.0,1.0,1,2144.0,1
639,639,0.14769826254301244,0.1,0.0,0.0,395.0,597.0,0.0,1,2008.0,1
640,640,0.07636892743597012,0.1,1.0,1.0,433.0,825.0,1.0,1,1742.0,1
641,641,0.3519340626011046,0.4,1.0,1.0,372.0,921.0,1.0,1,877.0,1
642,642,-0.016229600724471327,-0.0,1.0,0.0,254.0,998.0,0.0,0,1748.0,1
643,643,0.7173706627952258,0.7,0.0,0.0,327.0,860.0,0.0,1,253.0,1
644,644,-0.7431681666400447,-0.7,0.0,1.0,302.0,501.0,1.0,0,517.0,1
645,645,-0.84716996085151,-0.8,1.0,0.0,287.0,523.0,0.0,0,190.0,1
646,646,0.40558066863536457,0.4,0.0,0.0,362.0,918.0,0.0,1,1030.0,1
647,647,0.7325920548872699,0.7,1.0,1.0,414.0,767.0,1.0,1,619.0,1
648,648,-0.11579097513297554,-0.1,0.0,1.0,403.0,920.0,1.0,0,1087.0,1
649,649,0.3173518307868254,0.3,0.0,0.0,319.0,665.0,0.0,1,1276.0,1
650,650,0.8757304777056448,0.9,1.0,1.0,287.0,647.0,1.0,1,2066.0,1
651,651,-0.037598915626999574,-0.0,0.0,1.0,424.0,739.0,1.0,0,1837.0,1
652,652,-0.7931431581238616,-0.8,0.0,1.0,258.0,784.0,1.0,0,718.0,1
653,653,0.851734767173402,0.9,1.0,1.0,437.0,761.0,1.0,1,692.0,1
654,654,0.33608066197511655,0.3,0.0,0.0,374.0,566.0,0.0,1,1370.0,1
655,655,0.027211305418371357,0.0,0.0,0.0,495.0,810.0,1.0,0,1695.0,0
656,656,0.707186963239831,0.7,0.0,0.0,254.0,888.0,0.0,1,428.0,1
657,657,-0.12043597202203526,-0.1,0.0,1.0,302.0,815.0,1.0,0,1483.0,1
658,658,0.024061365362653242,0.0,0.0,0.0,275.0,838.0,0.0,1,1887.0,1
659,659,0.7584729103488562,0.8,0.0,0.0,489.0,858.0,0.0,1,393.0,1
660,660,-0.853795260959658,-0.9,1.0,0.0,438.0,705.0,0.0,0,187.0,1
661,661,0.09662432773839036,0.1,0.0,0.0,299.0,559.0,0.0,1,2142.0,1
662,662,-0.5222217101962847,-0.5,0.0,1.0,494.0,948.0,1.0,0,408.0,1
663,663,0.3981591662331435,0.4,1.0,1.0,432.0,853.0,1.0,1,1715.0,1
664,664,0.5255398695689791,0.5,0.0,0.0,295.0,532.0,0.0,1,513.0,1
665,665,-0.8570571917103482,-0.9,0.0,1.0,373.0,632.0,1.0,0,405.0,1
666,666,0.8947971791599413,0.9,0.0,0.0,271.0,822.0,0.0,1,317.0,1
667,667,-0.3112055386988154,-0.3,0.0,1.0,366.0,774.0,1.0,0,550.0,1
668,668,0.28658273992167504,0.3,1.0,1.0,409.0,761.0,1.0,1,570.0,1
669,669,0.08988741651890875,0.1,0.0,0.0,334.0,812.0,0.0,1,734.0,1
670,670,-0.8600760243114609,-0.9,0.0,1.0,473.0,824.0,1.0,0,363.0,1
671,671,0.24597117825840542,0.2,1.0,1.0,454.0,862.0,0.0,0,-16.0,0
672,672,-0.3245601779052777,-0.3,0.0,1.0,432.0,632.0,1.0,0,1156.0,1
673,673,0.6466126281441925,0.6,0.0,0.0,259.0,803.0,0.0,1,748.0,1
674,674,0.49892627119943833,0.5,1.0,1.0,440.0,873.0,1.0,1,1227.0,1
675,675,0.4605916850265478,0.5,1.0,1.0,391.0,644.0,1.0,1,735.0,1
676,676,0.07746128883313452,0.1,0.0,0.0,285.0,537.0,0.0,1,2178.0,1
677,677,-0.25554835913586593,-0.3,0.0,1.0,279.0,870.0,1.0,0,1721.0,1
678,678,-0.43591541050465454,-0.4,0.0,1.0,313.0,560.0,1.0,0,397.0,1
679,679,-0.3890208287518272,-0.4,0.0,1.0,329.0,770.0,1.0,0,81.0,1
680,680,0.2920424369010176,0.3,1.0,1.0,330.0,675.0,1.0,1,1995.0,1
681,681,0.5987931368540916,0.6,1.0,1.0,295.0,596.0,1.0,1,369.0,1
682,682,0.7389152202454506,0.7,0.0,0.0,410.0,675.0,0.0,1,245.0,1
683,683,-0.40619525197040013,-0.4,0.0,1.0,285.0,680.0,1.0,0,465.0,1
684,684,0.2944739463057736,0.3,0.0,0.0,324.0,572.0,0.0,1,434.0,1
685,685,0.22568538876093303,0.2,1.0,1.0,493.0,853.0,1.0,1,1654.0,1
686,686,0.39769364009368313,0.4,1.0,1.0,374.0,970.0,1.0,1,1236.0,1
687,687,0.4259797997784186,0.4,1.0,1.0,420.0,559.0,1.0,1,1171.0,1
688,688,0.1272839857188367,0.1,1.0,1.0,429.0,902.0,1.0,1,1669.0,1
689,689,-0.07608164085110736,-0.1,0.0,1.0,300.0,857.0,1.0,0,1843.0,1
690,690,0.39647644499156887,0.4,0.0,0.0,366.0,994.0,0.0,1,1020.0,1
691,691,0.5734400980430993,0.6,0.0,0.0,329.0,515.0,0.0,1,386.0,1
692,692,0.6494098197249009,0.6,1.0,1.0,272.0,551.0,1.0,1,317.0,1
693,693,-0.5067449182891843,-0.5,1.0,0.0,348.0,795.0,0.0,0,157.0,1
694,694,-0.7907720045602109,-0.8,1.0,0.0,413.0,563.0,0.0,0,284.0,1
695,695,0.44983124032366895,0.4,0.0,0.0,314.0,581.0,0.0,1,245.0,1
696,696,0.6249182166021806,0.6,1.0,1.0,341.0,945.0,1.0,1,1714.0,1
697,697,0.576221400485473,0.6,1.0,1.0,252.0,718.0,1.0,1,530.0,1
698,698,0.8244490896964299,0.8,0.0,0.0,294.0,697.0,0.0,1,119.0,1
699,699,0.48473602917082215,0.5,0.0,0.0,427.0,555.0,0.0,1,398.0,1
700,700,0.7865078357890688,0.8,1.0,1.0,470.0,973.0,1.0,1,767.0,1
701,701,-0.6538872585615999,-0.7,0.0,1.0,409.0,727.0,1.0,0,1534.0,1
702,702,0.36941001062334766,0.4,0.0,0.0,273.0,854.0,0.0,1,673.0,1
703,703,0.34664753243100666,0.3,0.0,0.0,276.0,842.0,0.0,1,52.0,1
704,704,-0.2600564229469918,-0.3,0.0,1.0,326.0,647.0,1.0,0,2027.0,1
705,705,-0.6040708607654,-0.6,1.0,0.0,280.0,759.0,0.0,0,-169.0,1
706,706,-0.7778195827728166,-0.8,1.0,0.0,467.0,868.0,0.0,0,335.0,1
707,707,-0.7381607389621347,-0.7,0.0,1.0,351.0,587.0,1.0,0,542.0,1
708,708,0.8765338143524121,0.9,1.0,1.0,441.0,970.0,1.0,1,309.0,1
709,709,0.4104535883750827,0.4,1.0,1.0,338.0,530.0,1.0,1,2092.0,1
710,710,-0.6970649558389781,-0.7,0.0,1.0,437.0,737.0,1.0,0,596.0,1
711,711,-0.6511964472955154,-0.7,1.0,0.0,419.0,788.0,0.0,0,233.0,1
712,712,-0.5930904709822424,-0.6,1.0,0.0,318.0,768.0,0.0,0,584.0,1
713,713,-0.4507017815470375,-0.5,1.0,0.0,416.0,615.0,0.0,0,229.0,1
714,714,0.10618903570279337,0.1,0.0,0.0,468.0,625.0,0.0,1,707.0,1
715,715,0.6039380767411596,0.6,1.0,1.0,341.0,634.0,1.0,1,825.0,1
716,716,0.16787120709844194,0.2,1.0,1.0,448.0,903.0,1.0,1,1379.0,1
717,717,0.21907485714585972,0.2,1.0,1.0,418.0,746.0,1.0,1,1836.0,1
718,718,0.20896547855954684,0.2,1.0,1.0,252.0,723.0,1.0,1,355.0,1
719,719,-0.4600177441430297,-0.5,1.0,0.0,462.0,577.0,0.0,0,351.0,1
720,720,0.7069736385925501,0.7,0.0,0.0,358.0,687.0,0.0,1,745.0,1
721,721,0.06237496361820294,0.1,1.0,1.0,490.0,517.0,0.0,0,1233.0,0
722,722,0.46470907049701704,0.5,1.0,1.0,451.0,755.0,0.0,0,-16.0,0
723,723,0.3660736814779192,0.4,0.0,0.0,397.0,968.0,0.0,1,995.0,1
724,724,0.6155177907775787,0.6,0.0,0.0,461.0,790.0,0.0,1,309.0,1
725,725,0.20766928665773798,0.2,0.0,0.0,446.0,778.0,1.0,0,1776.0,0
726,726,0.48110013729087064,0.5,1.0,1.0,407.0,563.0,1.0,1,1890.0,1
727,727,-0.4212180248630967,-0.4,1.0,0.0,251.0,915.0,0.0,0,504.0,1
728,728,0.873107556513072,0.9,0.0,0.0,285.0,652.0,0.0,1,163.0,1
729,729,-0.1374767747745691,-0.1,0.0,1.0,456.0,960.0,1.0,0,1584.0,1
730,730,0.5868885252667281,0.6,1.0,1.0,344.0,865.0,1.0,1,361.0,1
731,731,-0.2276247561333905,-0.2,0.0,1.0,260.0,916.0,1.0,0,534.0,1
732,732,-0.33492245014616584,-0.3,0.0,1.0,356.0,913.0,1.0,0,701.0,1
733,733,-0.750701140355988,-0.8,1.0,0.0,429.0,631.0,0.0,0,220.0,1
734,734,-0.535652779183134,-0.5,0.0,1.0,321.0,680.0,1.0,0,309.0,1
735,735,-0.3957706421153717,-0.4,0.0,1.0,267.0,714.0,1.0,0,549.0,1
736,736,0.018163100049467973,0.0,1.0,1.0,337.0,981.0,0.0,0,1542.0,0
737,737,-0.2903940199992142,-0.3,1.0,0.0,470.0,721.0,0.0,0,579.0,1
738,738,0.22904914250290187,0.2,0.0,0.0,255.0,777.0,0.0,1,1108.0,1
739,739,0.3110920013127584,0.3,1.0,1.0,495.0,753.0,1.0,1,1452.0,1
740,740,-0.36461671289654474,-0.4,1.0,0.0,308.0,772.0,0.0,0,720.0,1
741,741,-0.3284282252735573,-0.3,0.0,1.0,364.0,661.0,1.0,0,585.0,1
742,742,-0.254120366978415,-0.3,0.0,1.0,287.0,526.0,1.0,0,1077.0,1
743,743,0.02955030886185539,0.0,0.0,0.0,326.0,754.0,0.0,1,1920.0,1
744,744,-0.1114584128903171,-0.1,0.0,1.0,255.0,922.0,1.0,0,1583.0,1
745,745,-0.32164818527815164,-0.3,0.0,1.0,414.0,637.0,1.0,0,1369.0,1
746,746,0.17752869466113552,0.2,1.0,1.0,480.0,665.0,0.0,0,1855.0,0
747,747,-0.8900144482815451,-0.9,1.0,0.0,363.0,953.0,0.0,0,234.0,1
748,748,0.8114569438049152,0.8,0.0,0.0,463.0,903.0,0.0,1,204.0,1
749,749,-0.6942210464211873,-0.7,0.0,1.0,251.0,767.0,1.0,0,132.0,1
750,750,-0.47438109194478384,-0.5,1.0,0.0,451.0,916.0,0.0,0,1153.0,1
751,751,0.4193938422681073,0.4,1.0,1.0,461.0,868.0,1.0,1,1671.0,1
752,752,0.33330653718048253,0.3,0.0,0.0,479.0,629.0,0.0,1,782.0,1
753,753,0.7419615995815362,0.7,1.0,1.0,294.0,575.0,1.0,1,441.0,1
754,754,-0.38813874575356155,-0.4,1.0,0.0,335.0,783.0,0.0,0,372.0,1
755,755,-0.15485370932950182,-0.2,0.0,1.0,261.0,835.0,1.0,0,1084.0,1
756,756,0.5654847477798052,0.6,1.0,1.0,280.0,674.0,1.0,1,566.0,1
757,757,-0.7461185433136985,-0.7,0.0,1.0,364.0,694.0,1.0,0,272.0,1
758,758,-0.7932077719522987,-0.8,0.0,1.0,283.0,679.0,1.0,0,998.0,1
759,759,-0.10956964771059297,-0.1,1.0,0.0,371.0,797.0,0.0,0,272.0,1
760,760,0.6967373898285113,0.7,0.0,0.0,312.0,676.0,0.0,1,182.0,1
761,761,0.7237560476241892,0.7,0.0,0.0,311.0,546.0,0.0,1,1113.0,1
762,762,-0.7506399968818233,-0.8,1.0,0.0,372.0,772.0,0.0,0,276.0,1
763,763,0.2958067255251796,0.3,1.0,1.0,376.0,785.0,1.0,1,889.0,1
764,764,0.7746615462627501,0.8,1.0,1.0,416.0,507.0,1.0,1,877.0,1
765,765,0.8819124859955553,0.9,1.0,1.0,400.0,538.0,1.0,1,1892.0,1
766,766,-0.3770719009449771,-0.4,1.0,0.0,389.0,550.0,0.0,0,401.0,1
767,767,0.3078689016977044,0.3,1.0,1.0,404.0,710.0,1.0,1,1676.0,1
768,768,0.5283108286644583,0.5,1.0,1.0,461.0,759.0,1.0,1,1780.0,1
769,769,0.6458373094630493,0.6,1.0,1.0,450.0,921.0,1.0,1,579.0,1
770,770,-0.8286795516036621,-0.8,1.0,0.0,323.0,605.0,0.0,0,442.0,1
771,771,0.6759090346930113,0.7,1.0,1.0,385.0,529.0,1.0,1,596.0,1
772,772,0.21852064309540442,0.2,0.0,0.0,404.0,545.0,0.0,1,561.0,1
773,773,-0.2905048458349804,-0.3,1.0,0.0,489.0,686.0,0.0,0,1645.0,1
774,774,-0.2542983550404023,-0.3,0.0,1.0,269.0,847.0,1.0,0,404.0,1
775,775,-0.642858173654787,-0.6,0.0,1.0,388.0,980.0,1.0,0,1042.0,1
776,776,-0.35424757013726005,-0.4,1.0,0.0,459.0,726.0,0.0,0,355.0,1
777,777,0.20944787683107025,0.2,0.0,0.0,305.0,778.0,0.0,1,317.0,1
778,778,-0.07573976963785278,-0.1,1.0,0.0,297.0,959.0,0.0,0,1744.0,1
779,779,-0.38907413891954956,-0.4,0.0,1.0,316.0,980.0,1.0,0,584.0,1
780,780,0.2023460457397298,0.2,1.0,1.0,282.0,860.0,1.0,1,1858.0,1
781,781,0.024099749832118378,0.0,1.0,1.0,345.0,982.0,0.0,0,1673.0,0
782,782,0.4282525014680675,0.4,1.0,1.0,323.0,857.0,1.0,1,1820.0,1
783,783,0.04324509911841057,0.0,1.0,1.0,371.0,975.0,1.0,1,1654.0,1
784,784,0.4051047706871663,0.4,1.0,1.0,462.0,647.0,1.0,1,1251.0,1
785,785,-0.4385911721493422,-0.4,0.0,1.0,463.0,931.0,1.0,0,1146.0,1
786,786,-0.46727693456117814,-0.5,0.0,1.0,274.0,801.0,1.0,0,575.0,1
787,787,-0.018388742176544404,-0.0,1.0,0.0,255.0,674.0,1.0,1,2071.0,0
788,788,-0.2539883316097019,-0.3,0.0,1.0,468.0,800.0,1.0,0,522.0,1
789,789,0.27139904990990316,0.3,0.0,0.0,463.0,583.0,0.0,1,554.0,1
790,790,-0.5074560951794093,-0.5,0.0,1.0,386.0,763.0,1.0,0,721.0,1
791,791,0.0033364137467827293,0.0,1.0,1.0,437.0,590.0,0.0,0,1973.0,0
792,792,0.30079109635811185,0.3,1.0,1.0,431.0,559.0,1.0,1,2010.0,1
793,793,0.8333443196205904,0.8,1.0,1.0,458.0,511.0,1.0,1,931.0,1
794,794,0.36192296564879534,0.4,0.0,0.0,345.0,743.0,0.0,1,1912.0,1
795,795,0.08998298474154243,0.1,1.0,1.0,326.0,959.0,0.0,0,1715.0,0
796,796,-0.7803537545968805,-0.8,1.0,0.0,391.0,540.0,0.0,0,269.0,1
797,797,-0.6360622625092365,-0.6,1.0,0.0,410.0,778.0,0.0,0,82.0,1
798,798,-0.7122426177354324,-0.7,1.0,0.0,362.0,561.0,0.0,0,377.0,1
799,799,0.6412952736839436,0.6,0.0,0.0,298.0,783.0,0.0,1,509.0,1
800,800,0.8545998414120674,0.9,1.0,1.0,296.0,874.0,1.0,1,360.0,1
801,801,0.3091008394966094,0.3,0.0,0.0,272.0,613.0,0.0,1,1875.0,1
802,802,-0.6926008322556936,-0.7,1.0,0.0,255.0,576.0,0.0,0,329.0,1
803,803,0.06304107374653944,0.1,0.0,0.0,468.0,834.0,1.0,0,1698.0,0
804,804,0.49343837312522354,0.5,0.0,0.0,341.0,504.0,0.0,1,645.0,1
805,805,0.8920039916212757,0.9,0.0,0.0,342.0,945.0,0.0,1,173.0,1
806,806,0.23522754434104842,0.2,0.0,0.0,305.0,565.0,0.0,1,940.0,1
807,807,0.029968633577047932,0.0,0.0,0.0,416.0,642.0,0.0,1,1942.0,1
808,808,0.1245949712136657,0.1,1.0,1.0,416.0,591.0,1.0,1,1453.0,1
809,809,0.35499472773799134,0.4,0.0,0.0,359.0,564.0,0.0,1,317.0,1
810,810,0.4011873119340129,0.4,1.0,1.0,274.0,968.0,1.0,1,1658.0,1
811,811,-0.09247759089821272,-0.1,1.0,0.0,422.0,637.0,0.0,0,1381.0,1
812,812,-0.33325111173624855,-0.3,1.0,0.0,348.0,782.0,0.0,0,450.0,1
813,813,0.252015118851472,0.3,0.0,0.0,475.0,619.0,0.0,1,396.0,1
814,814,-0.7394111396324423,-0.7,1.0,0.0,314.0,582.0,0.0,0,194.0,1
815,815,0.07435433048235218,0.1,1.0,1.0,280.0,633.0,1.0,1,2087.0,1
816,816,0.49672766692728987,0.5,0.0,0.0,498.0,595.0,0.0,1,447.0,1
817,817,0.10546215288428817,0.1,0.0,0.0,486.0,656.0,0.0,1,658.0,1
818,818,-0.3403421512686764,-0.3,1.0,0.0,367.0,989.0,0.0,0,234.0,1
819,819,-0.7126081943867231,-0.7,1.0,0.0,275.0,560.0,0.0,0,545.0,1
820,820,0.7447474094921939,0.7,1.0,1.0,445.0,596.0,1.0,1,609.0,1
821,821,0.26559005162717064,0.3,1.0,1.0,260.0,880.0,1.0,1,1860.0,1
822,822,0.03269561491401085,0.0,1.0,1.0,495.0,800.0,0.0,0,1705.0,0
823,823,0.6056061236469216,0.6,1.0,1.0,460.0,578.0,1.0,1,652.0,1
824,824,-0.2962246863764596,-0.3,1.0,0.0,314.0,593.0,0.0,0,743.0,1
825,825,0.29135117250426046,0.3,1.0,1.0,446.0,663.0,1.0,1,421.0,1
826,826,-0.013758622298372658,-0.0,1.0,0.0,264.0,921.0,0.0,0,1815.0,1
827,827,0.4227429214122559,0.4,1.0,1.0,414.0,757.0,1.0,1,1829.0,1
828,828,-0.722950985955564,-0.7,1.0,0.0,303.0,566.0,0.0,0,421.0,1
829,829,-0.4242938815544655,-0.4,1.0,0.0,367.0,516.0,0.0,0,587.0,1
830,830,0.18573847519466746,0.2,0.0,0.0,256.0,649.0,0.0,1,1145.0,1
831,831,-0.19276452808001798,-0.2,1.0,0.0,274.0,661.0,0.0,0,2065.0,1
832,832,0.03645650891103491,0.0,0.0,0.0,456.0,581.0,0.0,1,1963.0,1
833,833,0.5805594158753814,0.6,0.0,0.0,304.0,760.0,0.0,1,176.0,1
834,834,-0.5819353299518797,-0.6,1.0,0.0,345.0,661.0,0.0,0,144.0,1
835,835,-0.31704881270830376,-0.3,1.0,0.0,424.0,890.0,0.0,0,576.0,1
836,836,-0.22954771781714156,-0.2,1.0,0.0,425.0,540.0,0.0,0,1025.0,1
837,837,-0.527923160513468,-0.5,0.0,1.0,453.0,597.0,1.0,0,570.0,1
838,838,0.7425417050836923,0.7,0.0,0.0,308.0,857.0,0.0,1,235.0,1
839,839,0.755765644051538,0.8,1.0,1.0,277.0,871.0,1.0,1,362.0,1
840,840,-0.7789098040505602,-0.8,1.0,0.0,328.0,631.0,0.0,0,291.0,1
841,841,0.6838343823641985,0.7,0.0,0.0,425.0,834.0,0.0,1,481.0,1
842,842,0.05991464490419851,0.1,1.0,1.0,456.0,627.0,1.0,1,1917.0,1
843,843,0.5997279366280494,0.6,1.0,1.0,376.0,770.0,1.0,1,534.0,1
844,844,-0.6196872557747137,-0.6,0.0,1.0,360.0,888.0,1.0,0,432.0,1
845,845,0.676254012649724,0.7,1.0,1.0,473.0,827.0,1.0,1,1490.0,1
846,846,-0.8492618388283205,-0.8,1.0,0.0,340.0,890.0,0.0,0,-330.0,1
847,847,-0.14126218035054627,-0.1,0.0,1.0,493.0,676.0,1.0,0,1171.0,1
848,848,-0.20217097555696073,-0.2,0.0,1.0,382.0,876.0,1.0,0,242.0,1
849,849,0.5532644953582156,0.6,1.0,1.0,298.0,540.0,1.0,1,602.0,1
850,850,0.03056322977195125,0.0,1.0,1.0,493.0,907.0,0.0,0,1170.0,0
851,851,-0.27017593225013103,-0.3,0.0,1.0,393.0,924.0,1.0,0,1253.0,1
852,852,0.04085092749125541,0.0,0.0,0.0,366.0,630.0,0.0,1,2004.0,1
853,853,0.13510358981155257,0.1,0.0,0.0,253.0,798.0,0.0,1,1949.0,1
854,854,0.8849491007714586,0.9,1.0,1.0,328.0,540.0,1.0,1,1412.0,1
855,855,0.836005954607402,0.8,0.0,0.0,426.0,513.0,0.0,1,341.0,1
856,856,0.552953064605677,0.6,0.0,0.0,448.0,564.0,0.0,1,928.0,1
857,857,0.16194216832968167,0.2,0.0,0.0,375.0,804.0,0.0,1,371.0,1
858,858,0.3053855940832325,0.3,0.0,0.0,372.0,654.0,0.0,1,934.0,1
859,859,0.8329268827622639,0.8,1.0,1.0,313.0,642.0,1.0,1,1765.0,1
860,860,-0.5462380380032313,-0.5,1.0,0.0,480.0,674.0,0.0,0,196.0,1
861,861,0.4126899513647101,0.4,1.0,1.0,492.0,834.0,1.0,1,1674.0,1
862,862,-0.840775704800103,-0.8,1.0,0.0,297.0,877.0,0.0,0,246.0,1
863,863,0.22022372244831911,0.2,0.0,0.0,327.0,877.0,0.0,1,916.0,1
864,864,0.40928649547025964,0.4,0.0,0.0,266.0,798.0,0.0,1,196.0,1
865,865,0.6010714131904303,0.6,1.0,1.0,412.0,948.0,1.0,1,830.0,1
866,866,-0.814300569912358,-0.8,0.0,1.0,413.0,867.0,1.0,0,100.0,1
867,867,-0.06410542970453748,-0.1,0.0,1.0,287.0,565.0,1.0,0,2148.0,1
868,868,0.830027899720346,0.8,0.0,0.0,438.0,968.0,0.0,1,214.0,1
869,869,-0.07580072303888019,-0.1,1.0,0.0,458.0,814.0,0.0,0,478.0,1
870,870,0.6889407887760827,0.7,1.0,1.0,405.0,904.0,1.0,1,891.0,1
871,871,0.8108471099799716,0.8,1.0,1.0,278.0,607.0,1.0,1,275.0,1
872,872,-0.6854960644951859,-0.7,0.0,1.0,251.0,607.0,1.0,0,262.0,1
873,873,0.3703042937707949,0.4,0.0,0.0,352.0,568.0,0.0,1,740.0,1
874,874,-0.6699467544057751,-0.7,0.0,1.0,411.0,718.0,1.0,0,631.0,1
875,875,-0.5354734394512262,-0.5,0.0,1.0,444.0,690.0,1.0,0,656.0,1
876,876,-0.6548006960809241,-0.7,1.0,0.0,394.0,841.0,0.0,0,235.0,1
877,877,-0.7223950244012729,-0.7,1.0,0.0,484.0,945.0,0.0,0,161.0,1
878,878,0.7668218332854168,0.8,1.0,1.0,494.0,953.0,1.0,1,283.0,1
879,879,0.5253261387413518,0.5,0.0,0.0,419.0,876.0,0.0,1,785.0,1
880,880,-0.6882201024689918,-0.7,0.0,1.0,307.0,887.0,1.0,0,656.0,1
881,881,-0.7551830328519684,-0.8,0.0,1.0,284.0,975.0,1.0,0,331.0,1
882,882,-0.3658530519108485,-0.4,0.0,1.0,351.0,732.0,1.0,0,327.0,1
883,883,0.061335701997063174,0.1,1.0,1.0,485.0,671.0,1.0,1,1844.0,1
884,884,-0.3099255635573158,-0.3,0.0,1.0,456.0,841.0,1.0,0,343.0,1
885,885,0.43421150846176315,0.4,1.0,1.0,492.0,577.0,1.0,1,1721.0,1
886,886,0.34501885656773534,0.3,0.0,0.0,471.0,655.0,0.0,1,874.0,1
887,887,-0.5051945020989774,-0.5,0.0,1.0,281.0,511.0,1.0,0,708.0,1
888,888,-0.5214320177764606,-0.5,1.0,0.0,382.0,582.0,0.0,0,246.0,1
889,889,-0.01600520966234842,-0.0,1.0,0.0,427.0,835.0,0.0,0,378.0,1
890,890,-0.8368615271145426,-0.8,0.0,1.0,332.0,951.0,1.0,0,347.0,1
891,891,0.20714239414709656,0.2,1.0,1.0,267.0,544.0,0.0,0,2189.0,0
892,892,0.04658853057707868,0.0,0.0,0.0,282.0,595.0,0.0,1,2123.0,1
893,893,0.06589369248074572,0.1,1.0,1.0,298.0,805.0,0.0,0,1897.0,0
894,894,-0.790345314025775,-0.8,1.0,0.0,271.0,905.0,0.0,0,114.0,1
895,895,0.06743328648144131,0.1,0.0,0.0,251.0,858.0,0.0,1,1801.0,1
896,896,-0.20070194168289812,-0.2,0.0,1.0,466.0,776.0,1.0,0,558.0,1
897,897,0.4462678899741318,0.4,0.0,0.0,480.0,552.0,0.0,1,458.0,1
898,898,-0.7421282916685938,-0.7,1.0,0.0,311.0,964.0,0.0,0,385.0,1
899,899,0.17507358459035405,0.2,0.0,0.0,336.0,720.0,0.0,1,1604.0,1
900,900,0.7390457248804593,0.7,0.0,0.0,369.0,972.0,0.0,1,189.0,1
901,901,-0.5489563787434968,-0.5,0.0,1.0,419.0,719.0,1.0,0,242.0,1
902,902,0.835801495822304,0.8,1.0,1.0,493.0,952.0,0.0,0,-215.0,0
903,903,-0.22904895994045404,-0.2,1.0,0.0,271.0,551.0,0.0,0,698.0,1
904,904,0.25644096225157453,0.3,0.0,0.0,363.0,942.0,0.0,1,815.0,1
905,905,0.8258761091153864,0.8,0.0,0.0,467.0,775.0,0.0,1,198.0,1
906,906,0.6412962797898413,0.6,1.0,1.0,363.0,938.0,1.0,1,1539.0,1
907,907,0.3124952444201393,0.3,1.0,1.0,396.0,553.0,1.0,1,1211.0,1
908,908,0.4583343724451926,0.5,1.0,1.0,410.0,860.0,1.0,1,1730.0,1
909,909,-0.8355215619135773,-0.8,1.0,0.0,443.0,785.0,0.0,0,152.0,1
910,910,-0.8941183740691905,-0.9,1.0,0.0,474.0,597.0,0.0,0,369.0,1
911,911,-0.290663786214701,-0.3,1.0,0.0,298.0,624.0,0.0,0,458.0,1
912,912,0.1934943540930273,0.2,1.0,1.0,370.0,554.0,0.0,0,2076.0,0
913,913,-0.12023128944286376,-0.1,0.0,1.0,454.0,913.0,1.0,0,1403.0,1
914,914,-0.36738348591299697,-0.4,1.0,0.0,481.0,855.0,0.0,0,424.0,1
915,915,-0.48286349729622485,-0.5,1.0,0.0,255.0,518.0,0.0,0,457.0,1
916,916,-0.408225615222062,-0.4,1.0,0.0,447.0,523.0,0.0,0,660.0,1
917,917,-0.5676475313067246,-0.6,0.0,1.0,348.0,711.0,1.0,0,431.0,1
918,918,-0.6264829240550074,-0.6,0.0,1.0,491.0,812.0,1.0,0,237.0,1
919,919,-0.07533209335535618,-0.1,1.0,0.0,332.0,615.0,0.0,0,2053.0,1
920,920,0.6201850639844778,0.6,0.0,0.0,338.0,920.0,0.0,1,302.0,1
921,921,0.5022178975318373,0.5,0.0,0.0,306.0,922.0,0.0,1,552.0,1
922,922,0.8915539318423112,0.9,1.0,1.0,390.0,994.0,1.0,1,596.0,1
923,923,-0.3361418571253869,-0.3,1.0,0.0,388.0,749.0,0.0,0,143.0,1
924,924,0.08866310028944746,0.1,0.0,0.0,483.0,674.0,0.0,1,1843.0,1
925,925,0.8836669657631419,0.9,1.0,1.0,256.0,804.0,1.0,1,330.0,1
926,926,-0.46039447628221064,-0.5,0.0,1.0,434.0,515.0,1.0,0,1341.0,1
927,927,0.6341730801684174,0.6,0.0,0.0,254.0,570.0,0.0,1,386.0,1
928,928,0.8750829667552252,0.9,1.0,1.0,432.0,522.0,1.0,1,386.0,1
929,929,-0.7033958439899541,-0.7,1.0,0.0,332.0,981.0,0.0,0,167.0,1
930,930,0.0901475696730728,0.1,1.0,1.0,495.0,536.0,0.0,0,1969.0,0
931,931,-0.5739796705562796,-0.6,0.0,1.0,316.0,754.0,1.0,0,360.0,1
932,932,0.5441342006254765,0.5,0.0,0.0,404.0,510.0,0.0,1,836.0,1
933,933,0.3745778414713864,0.4,1.0,1.0,351.0,988.0,0.0,0,-29.0,0
934,934,-0.8328546266064247,-0.8,0.0,1.0,279.0,613.0,1.0,0,68.0,1
935,935,0.10550395880072527,0.1,0.0,0.0,435.0,696.0,0.0,1,1039.0,1
936,936,-0.5454098600168877,-0.5,0.0,1.0,277.0,891.0,1.0,0,232.0,1
937,937,0.3116103700979095,0.3,1.0,1.0,273.0,893.0,1.0,1,844.0,1
938,938,0.11778462860104744,0.1,0.0,0.0,354.0,979.0,0.0,1,1667.0,1
939,939,-0.24507168611015684,-0.2,1.0,0.0,252.0,772.0,0.0,0,576.0,1
940,940,0.8092922009329496,0.8,1.0,1.0,488.0,645.0,1.0,1,1027.0,1
941,941,-0.19197511037069603,-0.2,1.0,0.0,309.0,770.0,0.0,0,1651.0,1
942,942,-0.47491259605652286,-0.5,0.0,1.0,294.0,502.0,1.0,0,894.0,1
943,943,-0.37241692357292944,-0.4,0.0,1.0,439.0,922.0,1.0,0,659.0,1
944,944,-0.6798485525194657,-0.7,1.0,0.0,268.0,741.0,0.0,0,441.0,1
945,945,0.5758610961351563,0.6,0.0,0.0,490.0,728.0,0.0,1,322.0,1
946,946,-0.7294175829526871,-0.7,0.0,1.0,449.0,784.0,1.0,0,1027.0,1
947,947,0.5588385898454843,0.6,0.0,0.0,295.0,619.0,0.0,1,416.0,1
948,948,0.6885388560288773,0.7,0.0,0.0,285.0,625.0,0.0,1,410.0,1
949,949,0.35262550764240397,0.4,0.0,0.0,483.0,852.0,0.0,1,845.0,1
950,950,0.5834308503389011,0.6,1.0,1.0,284.0,640.0,1.0,1,1396.0,1
951,951,0.6689398457701209,0.7,0.0,0.0,415.0,542.0,0.0,1,253.0,1
952,952,-0.8608104504250398,-0.9,1.0,0.0,373.0,673.0,0.0,0,224.0,1
953,953,0.8746934300023718,0.9,1.0,1.0,316.0,906.0,1.0,1,1778.0,1
954,954,-0.7718854494512046,-0.8,1.0,0.0,318.0,924.0,0.0,0,88.0,1
955,955,-0.1304474468299004,-0.1,0.0,1.0,456.0,552.0,1.0,0,872.0,1
956,956,0.02443689936498472,0.0,0.0,0.0,262.0,887.0,1.0,0,1851.0,0
957,957,0.10613508558772422,0.1,1.0,1.0,460.0,650.0,1.0,1,1890.0,1
958,958,0.7426544398245666,0.7,1.0,1.0,353.0,772.0,1.0,1,845.0,1
959,959,-0.6979541906260469,-0.7,0.0,1.0,353.0,765.0,1.0,0,202.0,1
960,960,-0.7791294846958254,-0.8,1.0,0.0,258.0,708.0,0.0,0,194.0,1
961,961,-0.49108833692679926,-0.5,1.0,0.0,329.0,797.0,0.0,0,694.0,1
962,962,-0.7951109587174158,-0.8,1.0,0.0,362.0,625.0,0.0,0,383.0,1
963,963,0.18243188047330172,0.2,0.0,0.0,305.0,904.0,0.0,1,501.0,1
964,964,-0.7811652069525475,-0.8,0.0,1.0,361.0,637.0,1.0,0,712.0,1
965,965,0.1736349045047575,0.2,1.0,1.0,354.0,661.0,1.0,1,1985.0,1
966,966,0.27908632514790355,0.3,1.0,1.0,471.0,598.0,1.0,1,1931.0,1
967,967,0.02938482853894131,0.0,0.0,0.0,302.0,741.0,0.0,1,1957.0,1
968,968,0.5485500724746354,0.5,1.0,1.0,487.0,596.0,1.0,1,1167.0,1
969,969,0.7079162487385519,0.7,1.0,1.0,326.0,555.0,1.0,1,379.0,1
970,970,-0.118289016970748,-0.1,0.0,1.0,467.0,890.0,1.0,0,1123.0,1
971,971,0.7534639065997434,0.8,1.0,1.0,376.0,896.0,1.0,1,728.0,1
972,972,-0.4563192863481842,-0.5,1.0,0.0,464.0,655.0,0.0,0,321.0,1
973,973,-0.4317406348964711,-0.4,0.0,1.0,357.0,697.0,1.0,0,786.0,1
974,974,-0.8203036036463078,-0.8,0.0,1.0,362.0,718.0,1.0,0,720.0,1
975,975,-0.28986761459999477,-0.3,1.0,0.0,275.0,656.0,0.0,0,939.0,1
976,976,0.3268137119023985,0.3,0.0,0.0,462.0,517.0,0.0,1,961.0,1
977,977,-0.8593026566115837,-0.9,0.0,1.0,411.0,621.0,1.0,0,78.0,1
978,978,0.527142724133591,0.5,0.0,0.0,383.0,989.0,0.0,1,1028.0,1
979,979,-0.41544473661765813,-0.4,0.0,1.0,278.0,883.0,1.0,0,699.0,1
980,980,-0.6168084945710108,-0.6,0.0,1.0,464.0,808.0,1.0,0,368.0,1
981,981,-0.6677618301370408,-0.7,0.0,1.0,385.0,643.0,1.0,0,212.0,1
982,982,0.21397271014198183,0.2,1.0,1.0,342.0,929.0,1.0,1,1729.0,1
983,983,-0.6827108759828019,-0.7,1.0,0.0,309.0,679.0,0.0,0,302.0,1
984,984,-0.41274679871796294,-0.4,1.0,0.0,314.0,754.0,0.0,0,182.0,1
985,985,0.21531182782412628,0.2,0.0,0.0,499.0,906.0,0.0,1,1595.0,1
986,986,0.28652288755645594,0.3,1.0,1.0,480.0,729.0,1.0,1,1351.0,1
987,987,-0.19340541209361872,-0.2,0.0,1.0,329.0,709.0,1.0,0,492.0,1
988,988,-0.2509119426710741,-0.3,0.0,1.0,486.0,933.0,1.0,0,1581.0,1
989,989,0.6281434845758854,0.6,1.0,1.0,417.0,653.0,1.0,1,190.0,1
990,990,0.845760773762824,0.8,0.0,0.0,311.0,641.0,0.0,1,188.0,1
991,991,0.7470981539219835,0.7,0.0,0.0,398.0,633.0,0.0,1,269.0,1
992,992,-0.27639479117657684,-0.3,0.0,1.0,469.0,609.0,1.0,0,-98.0,1
993,993,0.19410979026895736,0.2,0.0,0.0,268.0,895.0,0.0,1,1397.0,1
994,994,0.2716797348055656,0.3,0.0,0.0,434.0,835.0,0.0,1,1421.0,1
995,995,0.4239054227511382,0.4,1.0,1.0,386.0,742.0,1.0,1,802.0,1
996,996,0.6464565440109454,0.6,0.0,0.0,431.0,952.0,0.0,1,747.0,1
997,997,0.6763268674973107,0.7,1.0,1.0,285.0,687.0,1.0,1,718.0,1
998,998,0.4391400649722311,0.4,0.0,0.0,341.0,814.0,0.0,1,1845.0,1
999,999,-0.7683117029425781,-0.8,1.0,0.0,498.0,814.0,0.0,0,218.0,1
1000,1000,0.39833166911455653,0.4,1.0,1.0,352.0,904.0,1.0,1,534.0,1
1001,1001,0.6834443412301828,0.7,0.0,0.0,295.0,861.0,0.0,1,234.0,1
1002,1002,0.426381978609753,0.4,0.0,0.0,465.0,914.0,0.0,1,711.0,1
1003,1003,0.2722218579275869,0.3,1.0,1.0,297.0,958.0,1.0,1,645.0,1
1004,1004,0.8849680921607231,0.9,1.0,1.0,406.0,532.0,1.0,1,752.0,1
1005,1005,0.09200357511652946,0.1,0.0,0.0,377.0,688.0,1.0,0,1935.0,0
1006,1006,-0.1808350462064805,-0.2,0.0,1.0,317.0,678.0,1.0,0,2005.0,1
1007,1007,0.8447836204265317,0.8,0.0,0.0,343.0,968.0,0.0,1,409.0,1
1008,1008,0.3396523079128694,0.3,0.0,0.0,263.0,850.0,0.0,1,187.0,1
1009,1009,-0.38793752595981024,-0.4,1.0,0.0,374.0,883.0,0.0,0,323.0,1
1010,1010,-0.3462911358242139,-0.3,1.0,0.0,463.0,908.0,0.0,0,239.0,1
1011,1011,0.8073462077643968,0.8,1.0,1.0,443.0,547.0,1.0,1,740.0,1
1012,1012,-0.2478690844529765,-0.2,1.0,0.0,400.0,571.0,0.0,0,379.0,1
1013,1013,-0.5839056574843067,-0.6,0.0,1.0,470.0,534.0,1.0,0,936.0,1
1014,1014,-0.7079064562925603,-0.7,0.0,1.0,290.0,617.0,1.0,0,733.0,1
1015,1015,0.41915030888679283,0.4,1.0,1.0,421.0,648.0,1.0,1,691.0,1
1016,1016,0.12475978731292814,0.1,0.0,0.0,499.0,912.0,0.0,1,1589.0,1
1017,1017,-0.16411882070751815,-0.2,1.0,0.0,383.0,624.0,0.0,0,123.0,1
1018,1018,-0.8980910199840098,-0.9,0.0,1.0,426.0,513.0,1.0,0,541.0,1
1019,1019,-0.7134254257401275,-0.7,0.0,1.0,279.0,977.0,1.0,0,304.0,1
1020,1020,-0.6860637367625675,-0.7,1.0,0.0,368.0,780.0,0.0,0,102.0,1
1021,1021,0.7615164621437635,0.8,0.0,0.0,272.0,958.0,0.0,1,20.0,1
1022,1022,0.8232691213614881,0.8,0.0,0.0,450.0,700.0,0.0,1,190.0,1
1023,1023,-0.07148966890105202,-0.1,0.0,1.0,255.0,714.0,1.0,0,2031.0,1
1024,1024,0.37038194537343283,0.4,1.0,1.0,443.0,556.0,1.0,1,901.0,1
1025,1025,0.8944001718483111,0.9,1.0,1.0,352.0,948.0,1.0,1,140.0,1
1026,1026,-0.6970880527071447,-0.7,0.0,1.0,367.0,840.0,1.0,0,273.0,1
1027,1027,0.18803919577629358,0.2,0.0,0.0,277.0,997.0,0.0,1,1726.0,1
1028,1028,0.20573896074502807,0.2,1.0,1.0,314.0,764.0,1.0,1,922.0,1
1029,1029,-0.6405669247765853,-0.6,1.0,0.0,264.0,807.0,0.0,0,449.0,1
1030,1030,-0.3837350975016005,-0.4,1.0,0.0,268.0,798.0,0.0,0,254.0,1
1031,1031,-0.07879248391412497,-0.1,0.0,1.0,456.0,570.0,1.0,0,1974.0,1
1032,1032,-0.8020734261524812,-0.8,1.0,0.0,389.0,638.0,0.0,0,183.0,1
1033,1033,0.38254964443896144,0.4,1.0,1.0,375.0,709.0,1.0,1,1886.0,1
1034,1034,0.7811736354129292,0.8,1.0,1.0,372.0,531.0,1.0,1,907.0,1
1035,1035,-0.5062087478346248,-0.5,1.0,0.0,296.0,639.0,0.0,0,625.0,1
1036,1036,-0.7215759808720563,-0.7,1.0,0.0,426.0,604.0,0.0,0,90.0,1
1037,1037,-0.07521935732101714,-0.1,1.0,0.0,469.0,654.0,0.0,0,1027.0,1
1038,1038,-0.5625250760935185,-0.6,0.0,1.0,459.0,834.0,1.0,0,717.0,1
1039,1039,-0.8267981760589475,-0.8,0.0,1.0,260.0,636.0,1.0,0,334.0,1
1040,1040,-0.4700647573081937,-0.5,1.0,0.0,340.0,526.0,0.0,0,134.0,1
1041,1041,0.007863121103823367,0.0,1.0,1.0,423.0,709.0,0.0,0,1088.0,0
1042,1042,-0.8817970626831599,-0.9,1.0,0.0,445.0,500.0,0.0,0,175.0,1
1043,1043,-0.561934087414518,-0.6,1.0,0.0,331.0,761.0,0.0,0,318.0,1
1044,1044,0.10520008294809602,0.1,0.0,0.0,386.0,896.0,0.0,1,1028.0,1
1045,1045,0.10502763729203501,0.1,0.0,0.0,336.0,922.0,1.0,0,1432.0,0
1046,1046,0.2498033940801364,0.2,1.0,1.0,313.0,666.0,1.0,1,991.0,1
1047,1047,0.5913686634946947,0.6,0.0,0.0,354.0,544.0,0.0,1,112.0,1
1048,1048,0.586716918312938,0.6,1.0,1.0,495.0,503.0,1.0,1,1152.0,1
1049,1049,0.7271477371454947,0.7,0.0,0.0,312.0,926.0,0.0,1,242.0,1
1050,1050,-0.6337718409629309,-0.6,0.0,1.0,446.0,936.0,1.0,0,248.0,1
1051,1051,-0.498252006513903,-0.5,1.0,0.0,260.0,761.0,0.0,0,359.0,1
1052,1052,-0.3308824951388697,-0.3,1.0,0.0,334.0,575.0,0.0,0,251.0,1
1053,1053,0.40013395475191216,0.4,0.0,0.0,389.0,855.0,0.0,1,466.0,1
1054,1054,-0.009791851691901443,-0.0,1.0,0.0,383.0,890.0,0.0,0,1727.0,1
1055,1055,0.706847083468317,0.7,0.0,0.0,331.0,682.0,0.0,1,317.0,1
1056,1056,0.5422198885552981,0.5,0.0,0.0,453.0,649.0,0.0,1,478.0,1
1057,1057,0.2679697815720702,0.3,1.0,1.0,405.0,519.0,1.0,1,1416.0,1
1058,1058,-0.2612933861933444,-0.3,1.0,0.0,308.0,522.0,0.0,0,580.0,1
1059,1059,-0.15500216448183324,-0.2,0.0,1.0,282.0,649.0,1.0,0,279.0,1
1060,1060,-0.45838364837528406,-0.5,0.0,1.0,275.0,965.0,1.0,0,710.0,1
1061,1061,-0.5925707164356092,-0.6,0.0,1.0,287.0,834.0,1.0,0,1469.0,1
1062,1062,-0.7736780389144033,-0.8,1.0,0.0,257.0,932.0,0.0,0,341.0,1
1063,1063,-0.8621186897334869,-0.9,0.0,1.0,432.0,828.0,1.0,0,1270.0,1
1064,1064,-0.3689108024728761,-0.4,1.0,0.0,447.0,539.0,0.0,0,764.0,1
1065,1065,-0.22153919109780906,-0.2,0.0,1.0,276.0,641.0,1.0,0,1183.0,1
1066,1066,-0.22483578020150796,-0.2,1.0,0.0,420.0,593.0,0.0,0,297.0,1
1067,1067,0.3251247573406414,0.3,1.0,1.0,444.0,651.0,1.0,1,1695.0,1
1068,1068,0.7741340690949633,0.8,1.0,1.0,286.0,954.0,1.0,1,590.0,1
1069,1069,0.3205926974523884,0.3,0.0,0.0,374.0,696.0,0.0,1,380.0,1
1070,1070,-0.41969095826147784,-0.4,1.0,0.0,422.0,800.0,0.0,0,348.0,1
1071,1071,-0.5560888675587097,-0.6,1.0,0.0,310.0,617.0,0.0,0,533.0,1
1072,1072,0.6138746177794817,0.6,1.0,1.0,286.0,820.0,1.0,1,234.0,1
1073,1073,-0.14223678392815753,-0.1,0.0,1.0,435.0,908.0,1.0,0,1657.0,1
1074,1074,0.31123219156966175,0.3,0.0,0.0,457.0,862.0,0.0,1,1101.0,1
1075,1075,0.8957941625944424,0.9,1.0,1.0,426.0,989.0,0.0,0,-115.0,0
1076,1076,0.13651082089291655,0.1,1.0,1.0,262.0,769.0,1.0,1,1819.0,1
1077,1077,0.46293875282462704,0.5,1.0,1.0,343.0,754.0,1.0,1,1703.0,1
1078,1078,-0.04649211211358628,-0.0,0.0,1.0,407.0,528.0,1.0,0,1375.0,1
1079,1079,-0.13254408037599685,-0.1,1.0,0.0,264.0,782.0,0.0,0,1364.0,1
1080,1080,-0.5001167341252273,-0.5,1.0,0.0,383.0,735.0,0.0,0,462.0,1
1081,1081,0.57540659721647,0.6,1.0,1.0,464.0,996.0,1.0,1,1530.0,1
1082,1082,-0.48004965845536124,-0.5,1.0,0.0,450.0,991.0,0.0,0,329.0,1
1083,1083,0.7378149794186294,0.7,1.0,1.0,289.0,518.0,1.0,1,1623.0,1
1084,1084,0.004874061738530666,0.0,1.0,1.0,477.0,609.0,1.0,1,1914.0,1
1085,1085,0.45196191929866425,0.5,1.0,1.0,455.0,543.0,1.0,1,1042.0,1
1086,1086,0.09314162528929903,0.1,1.0,1.0,266.0,712.0,1.0,1,2022.0,1
1087,1087,0.13606265270003648,0.1,0.0,0.0,317.0,577.0,1.0,0,2106.0,0
1088,1088,-0.5414013753904185,-0.5,1.0,0.0,356.0,973.0,0.0,0,571.0,1
1089,1089,-0.4373034147339907,-0.4,0.0,1.0,485.0,710.0,1.0,0,75.0,1
1090,1090,-0.5051598594392406,-0.5,0.0,1.0,353.0,564.0,1.0,0,613.0,1
1091,1091,0.7457977003038204,0.7,1.0,1.0,263.0,885.0,1.0,1,902.0,1
1092,1092,0.3956554773345756,0.4,1.0,1.0,271.0,798.0,1.0,1,1091.0,1
1093,1093,-0.3014811688425808,-0.3,0.0,1.0,409.0,514.0,1.0,0,707.0,1
1094,1094,-0.30645496308963804,-0.3,1.0,0.0,404.0,641.0,0.0,0,255.0,1
1095,1095,-0.2569211577170971,-0.3,0.0,1.0,341.0,659.0,1.0,0,970.0,1
1096,1096,0.15471276419529134,0.2,0.0,0.0,323.0,835.0,0.0,1,1842.0,1
1097,1097,0.26062547125743507,0.3,0.0,0.0,467.0,585.0,0.0,1,1228.0,1
1098,1098,-0.7211394910137892,-0.7,0.0,1.0,314.0,986.0,1.0,0,300.0,1
1099,1099,0.771026505399229,0.8,1.0,1.0,276.0,889.0,0.0,0,-535.0,0
1100,1100,-0.04831738097892402,-0.0,0.0,1.0,260.0,742.0,1.0,0,1998.0,1
1101,1101,-0.5939429488143186,-0.6,0.0,1.0,348.0,685.0,1.0,0,557.0,1
1102,1102,0.4988831151030454,0.5,1.0,1.0,257.0,551.0,1.0,1,382.0,1
1103,1103,-0.839576012443046,-0.8,1.0,0.0,273.0,786.0,0.0,0,271.0,1
1104,1104,0.038278546828093174,0.0,0.0,0.0,404.0,612.0,1.0,0,1984.0,0
1105,1105,0.3510427135640425,0.4,1.0,1.0,464.0,995.0,1.0,1,851.0,1
1106,1106,0.10156238391486483,0.1,1.0,1.0,323.0,949.0,1.0,1,1728.0,1
1107,1107,0.2693349544876228,0.3,0.0,0.0,467.0,703.0,0.0,1,950.0,1
1108,1108,0.04849237617218616,0.0,1.0,1.0,252.0,809.0,0.0,0,1939.0,0
1109,1109,0.7227941904875882,0.7,1.0,1.0,259.0,530.0,1.0,1,961.0,1
1110,1110,0.813619680418907,0.8,0.0,0.0,323.0,595.0,0.0,1,382.0,1
1111,1111,-0.10471619158761769,-0.1,1.0,0.0,396.0,896.0,0.0,0,838.0,1
1112,1112,-0.8415932246138588,-0.8,0.0,1.0,408.0,711.0,1.0,0,341.0,1
1113,1113,-0.2903607298995703,-0.3,0.0,1.0,262.0,909.0,1.0,0,1609.0,1
1114,1114,-0.44071921515177176,-0.4,1.0,0.0,356.0,771.0,1.0,1,-97.0,0
1115,1115,-0.7483951432950353,-0.7,1.0,0.0,330.0,718.0,0.0,0,282.0,1
1116,1116,0.6908004922073877,0.7,0.0,0.0,415.0,795.0,0.0,1,270.0,1
1117,1117,0.2217389637628039,0.2,0.0,0.0,393.0,711.0,0.0,1,1896.0,1
1118,1118,0.658233056181306,0.7,1.0,1.0,297.0,606.0,1.0,1,1117.0,1
1119,1119,0.7460340912999907,0.7,1.0,1.0,276.0,779.0,1.0,1,765.0,1
1120,1120,-0.8942225500386946,-0.9,0.0,1.0,372.0,788.0,1.0,0,240.0,1
1121,1121,0.3836597693573883,0.4,1.0,1.0,387.0,579.0,1.0,1,1894.0,1
1122,1122,-0.8040109892618853,-0.8,1.0,0.0,460.0,897.0,0.0,0,93.0,1
1123,1123,-0.5190622940238105,-0.5,1.0,0.0,270.0,634.0,0.0,0,-164.0,1
1124,1124,-0.7912001737188464,-0.8,1.0,0.0,378.0,805.0,0.0,0,87.0,1
1125,1125,0.1516780094157294,0.2,0.0,0.0,416.0,709.0,0.0,1,1875.0,1
1126,1126,-0.5405191573868756,-0.5,1.0,0.0,354.0,762.0,0.0,0,304.0,1
1127,1127,-0.7355326911874608,-0.7,1.0,0.0,344.0,706.0,0.0,0,160.0,1
1128,1128,0.8792394943904472,0.9,1.0,1.0,436.0,510.0,1.0,1,1114.0,1
1129,1129,0.7291010650691353,0.7,0.0,0.0,300.0,976.0,0.0,1,664.0,1
1130,1130,0.8505185570459762,0.9,0.0,0.0,424.0,742.0,0.0,1,344.0,1
1131,1131,-0.4447905630361222,-0.4,0.0,1.0,252.0,674.0,1.0,0,254.0,1
1132,1132,-0.016573505290849666,-0.0,1.0,0.0,268.0,820.0,0.0,0,1912.0,1
1133,1133,0.18322823836332358,0.2,1.0,1.0,297.0,727.0,1.0,1,1976.0,1
1134,1134,0.09413595250085638,0.1,0.0,0.0,306.0,789.0,0.0,1,1905.0,1
1135,1135,0.6936482036928703,0.7,0.0,0.0,276.0,639.0,0.0,1,675.0,1
1136,1136,-0.5967330375982876,-0.6,1.0,0.0,472.0,990.0,0.0,0,278.0,1
1137,1137,-0.35949891783763877,-0.4,0.0,1.0,288.0,934.0,1.0,0,1088.0,1
1138,1138,-0.05125796787569725,-0.1,1.0,0.0,283.0,683.0,0.0,0,2034.0,1
1139,1139,0.03332642625370519,0.0,1.0,1.0,282.0,737.0,0.0,0,931.0,0
1140,1140,-0.363598134989667,-0.4,0.0,1.0,445.0,806.0,1.0,0,319.0,1
1141,1141,-0.38279096969187454,-0.4,1.0,0.0,491.0,745.0,0.0,0,1164.0,1
1142,1142,-0.0027108041710123265,-0.0,1.0,0.0,364.0,911.0,0.0,0,105.0,1
1143,1143,-0.26518994151579245,-0.3,1.0,0.0,467.0,858.0,0.0,0,565.0,1
1144,1144,-0.5025034976451244,-0.5,1.0,0.0,371.0,847.0,0.0,0,792.0,1
1145,1145,0.6621417059902878,0.7,0.0,0.0,313.0,553.0,0.0,1,114.0,1
1146,1146,-0.4183973499399796,-0.4,0.0,1.0,413.0,597.0,1.0,0,170.0,1
1147,1147,-0.23898078309286863,-0.2,1.0,0.0,272.0,890.0,0.0,0,458.0,1
1148,1148,-0.6439961809115555,-0.6,1.0,0.0,468.0,769.0,0.0,0,463.0,1
1149,1149,0.6021491279603143,0.6,0.0,0.0,272.0,767.0,0.0,1,251.0,1
1150,1150,0.6600687116666762,0.7,0.0,0.0,331.0,546.0,0.0,1,543.0,1
1151,1151,0.5200822947849465,0.5,0.0,0.0,465.0,675.0,0.0,1,360.0,1
1152,1152,0.15683513618419542,0.2,1.0,1.0,350.0,504.0,1.0,1,2146.0,1
1153,1153,0.7001072173530228,0.7,0.0,0.0,499.0,856.0,0.0,1,235.0,1
1154,1154,-0.842365403652299,-0.8,1.0,0.0,361.0,873.0,0.0,0,236.0,1
1155,1155,-0.48979455886255113,-0.5,0.0,1.0,317.0,946.0,1.0,0,1067.0,1
1156,1156,0.47061251053364017,0.5,1.0,1.0,474.0,981.0,1.0,1,725.0,1
1157,1157,0.7233107198723944,0.7,1.0,1.0,334.0,663.0,1.0,1,363.0,1
1158,1158,-0.6842102541378747,-0.7,1.0,0.0,424.0,759.0,0.0,0,287.0,1
1159,1159,-0.0038241877013669434,-0.0,0.0,1.0,458.0,911.0,0.0,1,1631.0,0
1160,1160,0.4402379789014407,0.4,0.0,0.0,460.0,970.0,0.0,1,730.0,1
1161,1161,0.31835588484759414,0.3,0.0,0.0,294.0,656.0,0.0,1,2050.0,1
1162,1162,0.6833215889630174,0.7,1.0,1.0,360.0,662.0,1.0,1,438.0,1
1163,1163,-0.7804738901149585,-0.8,1.0,0.0,337.0,643.0,0.0,0,270.0,1
1164,1164,-0.7334361603016885,-0.7,1.0,0.0,292.0,616.0,0.0,0,172.0,1
1165,1165,0.6550398948684389,0.7,0.0,0.0,441.0,804.0,0.0,1,575.0,1
1166,1166,-0.8465713115678031,-0.8,1.0,0.0,493.0,620.0,0.0,0,197.0,1
1167,1167,0.8755951327024177,0.9,0.0,0.0,455.0,562.0,0.0,1,123.0,1
1168,1168,0.4208307573629694,0.4,1.0,1.0,365.0,662.0,1.0,1,973.0,1
1169,1169,-0.2791375310400612,-0.3,0.0,1.0,348.0,828.0,1.0,0,744.0,1
1170,1170,-0.33816969674416053,-0.3,0.0,1.0,250.0,930.0,1.0,0,510.0,1
1171,1171,-0.6545550631748257,-0.7,1.0,0.0,394.0,616.0,0.0,0,560.0,1
1172,1172,0.642121785865945,0.6,0.0,0.0,486.0,830.0,0.0,1,214.0,1
1173,1173,-0.7015329709116057,-0.7,1.0,0.0,300.0,633.0,0.0,0,187.0,1
1174,1174,0.6960022742537822,0.7,0.0,0.0,456.0,890.0,0.0,1,374.0,1
1175,1175,-0.020369672564576224,-0.0,1.0,0.0,339.0,773.0,0.0,0,1528.0,1
1176,1176,-0.6998379868382518,-0.7,1.0,0.0,332.0,634.0,0.0,0,334.0,1
1177,1177,-0.816136926380584,-0.8,0.0,1.0,324.0,886.0,1.0,0,330.0,1
1178,1178,-0.05469197782884472,-0.1,0.0,1.0,408.0,723.0,0.0,1,1869.0,0
1179,1179,0.09034965631568836,0.1,1.0,1.0,477.0,700.0,1.0,1,1823.0,1
1180,1180,0.7541612627513826,0.8,0.0,0.0,498.0,520.0,0.0,1,442.0,1
1181,1181,0.2725604519607453,0.3,0.0,0.0,326.0,820.0,0.0,1,944.0,1
1182,1182,0.6932025461340511,0.7,0.0,0.0,376.0,689.0,0.0,1,155.0,1
1183,1183,0.5687995430141163,0.6,1.0,1.0,383.0,972.0,1.0,1,1345.0,1
1184,1184,-0.5523985881094825,-0.6,0.0,1.0,387.0,817.0,1.0,0,526.0,1
1185,1185,0.2556066678046335,0.3,0.0,0.0,298.0,647.0,0.0,1,785.0,1
1186,1186,0.6704308693084792,0.7,0.0,0.0,308.0,909.0,0.0,1,393.0,1
1187,1187,0.3324521365650007,0.3,1.0,1.0,336.0,641.0,1.0,1,1273.0,1
1188,1188,0.7657191411609158,0.8,0.0,0.0,432.0,793.0,0.0,1,425.0,1
1189,1189,0.6749975428057317,0.7,1.0,1.0,457.0,828.0,1.0,1,765.0,1
1190,1190,0.71716345923399,0.7,1.0,1.0,341.0,995.0,1.0,1,334.0,1
1191,1191,0.785633475117154,0.8,0.0,0.0,312.0,639.0,0.0,1,439.0,1
1192,1192,0.4874175753505329,0.5,0.0,0.0,299.0,757.0,0.0,1,334.0,1
1193,1193,-0.8722739316246139,-0.9,1.0,0.0,256.0,808.0,0.0,0,586.0,1
1194,1194,0.28356748599011905,0.3,1.0,1.0,400.0,949.0,1.0,1,831.0,1
1195,1195,-0.5109161218804044,-0.5,0.0,1.0,454.0,962.0,1.0,0,314.0,1
1196,1196,-0.7928239236178819,-0.8,0.0,1.0,438.0,706.0,1.0,0,346.0,1
1197,1197,-0.6554957024419823,-0.7,0.0,1.0,364.0,934.0,1.0,0,392.0,1
1198,1198,0.18502781826774195,0.2,0.0,0.0,348.0,623.0,0.0,1,1969.0,1
1199,1199,0.015316676785807393,0.0,0.0,0.0,433.0,941.0,0.0,1,1626.0,1
1200,1200,-0.7810107377369838,-0.8,0.0,1.0,434.0,777.0,1.0,0,229.0,1
1201,1201,0.6719850043804317,0.7,0.0,0.0,463.0,528.0,0.0,1,529.0,1
1202,1202,0.6970123550491826,0.7,0.0,0.0,323.0,948.0,0.0,1,319.0,1
1203,1203,-0.2692620078411919,-0.3,1.0,0.0,406.0,599.0,0.0,0,365.0,1
1204,1204,-0.22479636502427103,-0.2,0.0,1.0,254.0,538.0,1.0,0,1528.0,1
1205,1205,0.34343683548443116,0.3,1.0,1.0,400.0,553.0,1.0,1,207.0,1
1206,1206,0.5946100983853632,0.6,0.0,0.0,422.0,715.0,0.0,1,403.0,1
1207,1207,0.45093998237734045,0.5,1.0,1.0,442.0,960.0,1.0,1,498.0,1
1208,1208,-0.8544525070429371,-0.9,1.0,0.0,369.0,935.0,0.0,0,-74.0,1
1209,1209,0.5471798945557266,0.5,0.0,0.0,356.0,951.0,0.0,1,273.0,1
1210,1210,-0.37453939348307574,-0.4,0.0,1.0,310.0,502.0,1.0,0,1608.0,1
1211,1211,0.5068559398918254,0.5,1.0,1.0,305.0,620.0,1.0,1,975.0,1
1212,1212,0.7982590436943268,0.8,1.0,1.0,355.0,532.0,1.0,1,513.0,1
1213,1213,-0.7414506545445186,-0.7,0.0,1.0,252.0,710.0,1.0,0,378.0,1
1214,1214,-0.8997862674054328,-0.9,1.0,0.0,327.0,635.0,0.0,0,128.0,1
1215,1215,-0.23688180981629936,-0.2,0.0,1.0,334.0,790.0,1.0,0,886.0,1
1216,1216,-0.5812755130308407,-0.6,0.0,1.0,388.0,505.0,1.0,0,1067.0,1
1217,1217,0.2529688407911773,0.3,0.0,0.0,337.0,610.0,0.0,1,1223.0,1
1218,1218,0.7733593789273813,0.8,0.0,0.0,499.0,981.0,0.0,1,470.0,1
1219,1219,-0.3663421039098308,-0.4,0.0,1.0,288.0,888.0,1.0,0,324.0,1
1220,1220,0.1825972353285531,0.2,0.0,0.0,485.0,595.0,0.0,1,1890.0,1
1221,1221,0.10295321371858546,0.1,0.0,0.0,314.0,932.0,0.0,1,1754.0,1
1222,1222,0.5911675604429537,0.6,0.0,0.0,496.0,915.0,0.0,1,209.0,1
1223,1223,0.38775631872037464,0.4,1.0,1.0,325.0,912.0,1.0,1,543.0,1
1224,1224,-0.7785022519349629,-0.8,0.0,1.0,484.0,866.0,1.0,0,300.0,1
1225,1225,0.6723372456376949,0.7,0.0,0.0,314.0,950.0,0.0,1,726.0,1
1226,1226,-0.16336005412006105,-0.2,1.0,0.0,343.0,807.0,0.0,0,1850.0,1
1227,1227,-0.6313443230199716,-0.6,1.0,0.0,328.0,986.0,0.0,0,106.0,1
1228,1228,-0.17566621908083924,-0.2,1.0,0.0,420.0,826.0,0.0,0,784.0,1
1229,1229,-0.20957558705555346,-0.2,1.0,0.0,492.0,613.0,0.0,0,495.0,1
1230,1230,-0.7608345803790384,-0.8,1.0,0.0,398.0,910.0,0.0,0,222.0,1
1231,1231,0.5278594009188834,0.5,0.0,0.0,298.0,778.0,0.0,1,364.0,1
1232,1232,0.8445728127027489,0.8,0.0,0.0,313.0,855.0,0.0,1,392.0,1
1233,1233,0.7878616519473262,0.8,0.0,0.0,325.0,889.0,0.0,1,396.0,1
1234,1234,0.4274588932783264,0.4,1.0,1.0,389.0,566.0,1.0,1,1285.0,1
1235,1235,-0.6940690813782527,-0.7,0.0,1.0,442.0,749.0,1.0,0,469.0,1
1236,1236,0.49018398901635807,0.5,1.0,1.0,449.0,800.0,1.0,1,361.0,1
1237,1237,0.2423141971513344,0.2,1.0,1.0,338.0,546.0,0.0,0,-14.0,0
1238,1238,0.6714712144352905,0.7,1.0,1.0,453.0,826.0,1.0,1,391.0,1
1239,1239,0.602068522675646,0.6,0.0,0.0,326.0,526.0,0.0,1,808.0,1
1240,1240,0.3520156501850472,0.4,0.0,0.0,314.0,727.0,0.0,1,749.0,1
1241,1241,0.7112280487515764,0.7,0.0,0.0,307.0,875.0,0.0,1,418.0,1
1242,1242,0.7306356624631075,0.7,1.0,1.0,486.0,550.0,1.0,1,514.0,1
1243,1243,-0.2985379961017055,-0.3,1.0,0.0,452.0,533.0,0.0,0,155.0,1
1244,1244,0.619233411820724,0.6,1.0,1.0,431.0,589.0,1.0,1,1100.0,1
1245,1245,-0.1884044143291762,-0.2,1.0,0.0,432.0,933.0,0.0,0,425.0,1
1246,1246,0.774091082724694,0.8,1.0,1.0,433.0,911.0,1.0,1,416.0,1
1247,1247,-0.16251650187441158,-0.2,1.0,0.0,403.0,784.0,0.0,0,433.0,1
1248,1248,0.08451300767701797,0.1,1.0,1.0,351.0,585.0,1.0,1,2064.0,1
1249,1249,-0.8737296200139326,-0.9,1.0,0.0,308.0,876.0,0.0,0,36.0,1
1250,1250,-0.7654566071988774,-0.8,0.0,1.0,346.0,640.0,1.0,0,494.0,1
1251,1251,-0.621410589114433,-0.6,0.0,1.0,356.0,740.0,1.0,0,404.0,1
1252,1252,-0.7624512626430253,-0.8,1.0,0.0,481.0,781.0,0.0,0,28.0,1
1253,1253,-0.7792068667476812,-0.8,1.0,0.0,273.0,670.0,0.0,0,287.0,1
1254,1254,0.26048276409132376,0.3,1.0,1.0,398.0,901.0,1.0,1,1221.0,1
1255,1255,0.6223961434818553,0.6,0.0,0.0,338.0,676.0,0.0,1,406.0,1
1256,1256,0.852597281114006,0.9,0.0,0.0,398.0,896.0,0.0,1,206.0,1
1257,1257,0.3329852479889993,0.3,0.0,0.0,410.0,804.0,0.0,1,906.0,1
1258,1258,-0.7669725258666439,-0.8,0.0,1.0,353.0,760.0,1.0,0,517.0,1
1259,1259,-0.8787767300680497,-0.9,1.0,0.0,361.0,568.0,0.0,0,641.0,1
1260,1260,-0.29476770115554163,-0.3,0.0,1.0,471.0,953.0,1.0,0,786.0,1
1261,1261,0.5434656645729211,0.5,0.0,0.0,388.0,753.0,0.0,1,329.0,1
1262,1262,-0.761401351620033,-0.8,1.0,0.0,308.0,602.0,0.0,0,200.0,1
1263,1263,0.8099678410278869,0.8,1.0,1.0,415.0,940.0,1.0,1,1645.0,1
1264,1264,0.18789260782865103,0.2,0.0,0.0,362.0,846.0,0.0,1,372.0,1
1265,1265,-0.824007373665705,-0.8,1.0,0.0,294.0,772.0,0.0,0,184.0,1
1266,1266,0.27175882702829546,0.3,1.0,1.0,440.0,735.0,1.0,1,1825.0,1
1267,1267,-0.17221590796873776,-0.2,0.0,1.0,406.0,694.0,1.0,0,820.0,1
1268,1268,0.5134047876766029,0.5,1.0,1.0,318.0,554.0,1.0,1,808.0,1
1269,1269,-0.6321694625322457,-0.6,0.0,1.0,403.0,884.0,1.0,0,553.0,1
1270,1270,-0.5647325220139365,-0.6,1.0,0.0,372.0,983.0,0.0,0,255.0,1
1271,1271,0.439103268521129,0.4,1.0,1.0,318.0,656.0,1.0,1,516.0,1
1272,1272,0.21098322010999027,0.2,1.0,1.0,401.0,750.0,1.0,1,1849.0,1
1273,1273,-0.6904341786165857,-0.7,1.0,0.0,476.0,962.0,0.0,0,212.0,1
1274,1274,-0.3315751002449413,-0.3,0.0,1.0,477.0,702.0,1.0,0,541.0,1
1275,1275,0.43712800198597546,0.4,1.0,1.0,460.0,514.0,1.0,1,1016.0,1
1276,1276,0.010203223370269798,0.0,0.0,0.0,358.0,794.0,0.0,1,1848.0,1
1277,1277,0.686618546912399,0.7,0.0,0.0,254.0,832.0,0.0,1,444.0,1
1278,1278,-0.17896224577945774,-0.2,1.0,0.0,389.0,703.0,0.0,0,1908.0,1
1279,1279,0.6372353366018318,0.6,0.0,0.0,387.0,960.0,0.0,1,403.0,1
1280,1280,-0.43379323497278716,-0.4,0.0,1.0,322.0,631.0,1.0,0,567.0,1
1281,1281,-0.057620430607096984,-0.1,1.0,0.0,273.0,897.0,0.0,0,1830.0,1
1282,1282,0.5236407608792387,0.5,0.0,0.0,347.0,627.0,0.0,1,776.0,1
1283,1283,0.002984089836054804,0.0,0.0,0.0,277.0,952.0,1.0,0,1771.0,0
1284,1284,0.8407698938280935,0.8,0.0,0.0,335.0,534.0,0.0,1,61.0,1
1285,1285,0.2022636717977927,0.2,1.0,1.0,332.0,846.0,1.0,1,1822.0,1
1286,1286,0.3163959640324644,0.3,1.0,1.0,301.0,504.0,1.0,1,2195.0,1
1287,1287,-0.21560735722360735,-0.2,1.0,0.0,400.0,987.0,0.0,0,763.0,1
1288,1288,0.3560269291289234,0.4,1.0,1.0,414.0,591.0,1.0,1,1995.0,1
1289,1289,-0.33224859822115793,-0.3,1.0,0.0,462.0,687.0,0.0,0,241.0,1
1290,1290,-0.41171102690590167,-0.4,0.0,1.0,486.0,907.0,1.0,0,477.0,1
1291,1291,-0.8082983410843695,-0.8,0.0,1.0,351.0,881.0,1.0,0,48.0,1
1292,1292,-0.5504557164725017,-0.6,1.0,0.0,406.0,985.0,0.0,0,149.0,1
1293,1293,-0.5096736497678086,-0.5,0.0,1.0,356.0,627.0,1.0,0,1677.0,1
1294,1294,0.7272138821049822,0.7,1.0,1.0,434.0,747.0,1.0,1,429.0,1
1295,1295,0.7238670990662793,0.7,1.0,1.0,313.0,590.0,1.0,1,1067.0,1
1296,1296,-0.3104855017215814,-0.3,0.0,1.0,372.0,989.0,1.0,0,79.0,1
1297,1297,-0.24158250620311073,-0.2,1.0,0.0,256.0,803.0,0.0,0,481.0,1
1298,1298,0.2140279234380874,0.2,1.0,1.0,351.0,920.0,1.0,1,1009.0,1
1299,1299,0.0990293709569019,0.1,1.0,1.0,317.0,611.0,1.0,1,2072.0,1
1300,1300,0.2804134300669229,0.3,1.0,1.0,273.0,919.0,0.0,0,-22.0,0
1301,1301,0.12900782095104624,0.1,0.0,0.0,349.0,911.0,0.0,1,300.0,1
1302,1302,-0.6459218638017676,-0.6,1.0,0.0,301.0,613.0,0.0,0,186.0,1
1303,1303,-0.6958006866665671,-0.7,0.0,1.0,398.0,711.0,1.0,0,371.0,1
1304,1304,0.7552160081036091,0.8,0.0,0.0,254.0,819.0,0.0,1,337.0,1
1305,1305,0.03076243044821414,0.0,1.0,1.0,360.0,936.0,0.0,0,1704.0,0
1306,1306,0.8602068278070173,0.9,1.0,1.0,411.0,839.0,1.0,1,350.0,1
1307,1307,0.4408940395948039,0.4,0.0,0.0,368.0,679.0,0.0,1,393.0,1
1308,1308,0.5686836988034062,0.6,0.0,0.0,391.0,907.0,0.0,1,922.0,1
1309,1309,-0.4050618666502597,-0.4,1.0,0.0,341.0,572.0,0.0,0,477.0,1
1310,1310,0.3854478603471535,0.4,0.0,0.0,358.0,635.0,0.0,1,1647.0,1
1311,1311,-0.7317333538218772,-0.7,0.0,1.0,268.0,828.0,1.0,0,94.0,1
1312,1312,-0.14767464216821025,-0.1,0.0,1.0,327.0,541.0,1.0,0,602.0,1
1313,1313,-0.3463388875644843,-0.3,0.0,1.0,271.0,939.0,1.0,0,1140.0,1
1314,1314,0.8156619156979953,0.8,1.0,1.0,394.0,896.0,1.0,1,570.0,1
1315,1315,-0.4205598252398886,-0.4,1.0,0.0,483.0,640.0,0.0,0,597.0,1
1316,1316,-0.7354501680764043,-0.7,1.0,0.0,432.0,749.0,0.0,0,239.0,1
1317,1317,-0.16322272990162112,-0.2,0.0,1.0,360.0,574.0,1.0,0,2016.0,1
1318,1318,-0.07247304463689852,-0.1,1.0,0.0,484.0,707.0,0.0,0,1809.0,1
1319,1319,0.22505519785460215,0.2,0.0,0.0,458.0,625.0,0.0,1,1917.0,1
1320,1320,-0.12212305949048319,-0.1,1.0,0.0,308.0,834.0,0.0,0,468.0,1
1321,1321,0.05345082700763826,0.1,1.0,1.0,465.0,901.0,0.0,0,1634.0,0
1322,1322,0.8377937492553008,0.8,0.0,0.0,346.0,848.0,0.0,1,256.0,1
1323,1323,0.057531099160670895,0.1,1.0,1.0,430.0,662.0,1.0,1,1908.0,1
1324,1324,-0.351625583232393,-0.4,1.0,0.0,252.0,864.0,0.0,0,554.0,1
1325,1325,0.13726274154798157,0.1,0.0,0.0,446.0,740.0,0.0,1,1814.0,1
1326,1326,-0.2814528491582077,-0.3,1.0,0.0,302.0,896.0,0.0,0,1372.0,1
1327,1327,0.3392146217861892,0.3,1.0,1.0,336.0,712.0,1.0,1,1542.0,1
1328,1328,0.07574970879822451,0.1,0.0,0.0,338.0,721.0,1.0,0,1941.0,0
1329,1329,-0.7619350786797561,-0.8,0.0,1.0,279.0,819.0,1.0,0,292.0,1
1330,1330,-0.48103591852471456,-0.5,0.0,1.0,456.0,841.0,1.0,0,373.0,1
1331,1331,-0.4134566722048446,-0.4,1.0,0.0,448.0,827.0,0.0,0,535.0,1
1332,1332,-0.11803812798669955,-0.1,0.0,1.0,451.0,622.0,1.0,0,1927.0,1
1333,1333,-0.6349991254451912,-0.6,0.0,1.0,364.0,885.0,1.0,0,141.0,1
1334,1334,-0.499864049313529,-0.5,0.0,1.0,330.0,619.0,1.0,0,521.0,1
1335,1335,0.6358709418373351,0.6,0.0,0.0,357.0,917.0,0.0,1,446.0,1
1336,1336,-0.23179920607399584,-0.2,1.0,0.0,422.0,741.0,0.0,0,447.0,1
1337,1337,-0.8528092830766184,-0.9,0.0,1.0,339.0,711.0,1.0,0,460.0,1
1338,1338,0.7326134568398698,0.7,0.0,0.0,447.0,626.0,0.0,1,137.0,1
1339,1339,-0.8738063011250364,-0.9,1.0,0.0,289.0,667.0,0.0,0,134.0,1
1340,1340,0.6389265467968118,0.6,0.0,0.0,380.0,703.0,0.0,1,557.0,1
1341,1341,0.348897360080073,0.3,0.0,0.0,471.0,710.0,0.0,1,-1.0,1
1342,1342,0.33508311173417826,0.3,1.0,1.0,325.0,760.0,1.0,1,1305.0,1
1343,1343,-0.49582559981975755,-0.5,1.0,0.0,330.0,627.0,0.0,0,653.0,1
1344,1344,-0.26520161701769773,-0.3,0.0,1.0,457.0,555.0,1.0,0,988.0,1
1345,1345,-0.038885055161252735,-0.0,1.0,0.0,252.0,779.0,1.0,1,1969.0,0
1346,1346,0.24470392673702468,0.2,1.0,1.0,399.0,567.0,1.0,1,274.0,1
1347,1347,0.8503938488923194,0.9,0.0,0.0,298.0,740.0,0.0,1,452.0,1
1348,1348,-0.230051190690443,-0.2,1.0,0.0,422.0,998.0,0.0,0,200.0,1
1349,1349,-0.23243660141643396,-0.2,0.0,1.0,407.0,662.0,1.0,0,1931.0,1
1350,1350,0.08126921302904389,0.1,1.0,1.0,317.0,897.0,1.0,1,1786.0,1
1351,1351,0.28703324053581125,0.3,0.0,0.0,407.0,575.0,0.0,1,1218.0,1
1352,1352,0.3966705173763313,0.4,1.0,1.0,354.0,825.0,1.0,1,351.0,1
1353,1353,-0.3686941869240632,-0.4,0.0,1.0,310.0,628.0,1.0,0,382.0,1
1354,1354,-0.8364135907571931,-0.8,0.0,1.0,318.0,876.0,1.0,0,176.0,1
1355,1355,-0.043992817834799136,-0.0,0.0,1.0,366.0,550.0,1.0,0,2084.0,1
1356,1356,0.30372190615848027,0.3,1.0,1.0,309.0,859.0,1.0,1,952.0,1
1357,1357,-0.35079755807126634,-0.4,1.0,0.0,265.0,804.0,0.0,0,271.0,1
1358,1358,-0.3018971561325684,-0.3,0.0,1.0,493.0,648.0,1.0,0,709.0,1
1359,1359,0.6584229741025466,0.7,1.0,1.0,472.0,830.0,1.0,1,1698.0,1
1360,1360,0.32766506988249977,0.3,1.0,1.0,354.0,640.0,1.0,1,766.0,1
1361,1361,0.4561115303371791,0.5,1.0,1.0,298.0,909.0,1.0,1,343.0,1
1362,1362,-0.8972744170088763,-0.9,1.0,0.0,305.0,872.0,0.0,0,183.0,1
1363,1363,-0.8634492037743454,-0.9,1.0,0.0,370.0,519.0,0.0,0,311.0,1
1364,1364,-0.22351962449588647,-0.2,1.0,0.0,393.0,909.0,0.0,0,768.0,1
1365,1365,0.4941934620153122,0.5,1.0,1.0,410.0,719.0,1.0,1,701.0,1
1366,1366,-0.11954986811851787,-0.1,0.0,1.0,482.0,519.0,1.0,0,1129.0,1
1367,1367,-0.8975043213642495,-0.9,0.0,1.0,493.0,897.0,1.0,0,270.0,1
1368,1368,0.7688478463461049,0.8,0.0,0.0,488.0,504.0,0.0,1,588.0,1
1369,1369,-0.26249970165608527,-0.3,1.0,0.0,473.0,568.0,0.0,0,1959.0,1
1370,1370,-0.5517463481043345,-0.6,1.0,0.0,379.0,524.0,0.0,0,527.0,1
1371,1371,0.8730560974830354,0.9,0.0,0.0,455.0,628.0,0.0,1,377.0,1
1372,1372,-0.3498096219720138,-0.3,0.0,1.0,254.0,504.0,1.0,0,652.0,1
1373,1373,0.5431516278336727,0.5,1.0,1.0,375.0,916.0,1.0,1,529.0,1
1374,1374,0.8654387835136751,0.9,1.0,1.0,388.0,858.0,1.0,1,394.0,1
1375,1375,0.20962485130076025,0.2,1.0,1.0,271.0,695.0,1.0,1,2034.0,1
1376,1376,-0.22095508740836545,-0.2,1.0,0.0,488.0,692.0,0.0,0,190.0,1
1377,1377,0.08858938067411648,0.1,1.0,1.0,325.0,949.0,0.0,0,336.0,0
1378,1378,0.053715403178059895,0.1,0.0,0.0,384.0,958.0,0.0,1,1658.0,1
1379,1379,0.04708138122052685,0.0,1.0,1.0,478.0,541.0,0.0,0,1981.0,0
1380,1380,-0.5407243011147254,-0.5,1.0,0.0,260.0,813.0,0.0,0,267.0,1
1381,1381,0.20922239465352932,0.2,1.0,1.0,466.0,657.0,1.0,1,1877.0,1
1382,1382,0.7572960329083019,0.8,0.0,0.0,369.0,801.0,0.0,1,510.0,1
1383,1383,-0.2281990633682912,-0.2,1.0,0.0,452.0,832.0,0.0,0,296.0,1
1384,1384,0.8653401932605637,0.9,0.0,0.0,433.0,792.0,0.0,1,-15.0,1
1385,1385,-0.33086983054161156,-0.3,1.0,0.0,269.0,628.0,0.0,0,-77.0,1
1386,1386,0.8819550278617728,0.9,0.0,0.0,399.0,906.0,0.0,1,-125.0,1
1387,1387,0.28565795337322364,0.3,1.0,1.0,430.0,572.0,1.0,1,1568.0,1
1388,1388,0.7247750576900619,0.7,1.0,1.0,267.0,961.0,1.0,1,1422.0,1
1389,1389,-0.5011202538169466,-0.5,1.0,0.0,327.0,951.0,0.0,0,-218.0,1
1390,1390,-0.12710064353188688,-0.1,0.0,1.0,365.0,815.0,1.0,0,1820.0,1
1391,1391,-0.11128004986806372,-0.1,1.0,0.0,384.0,606.0,0.0,0,1190.0,1
1392,1392,0.4562935999332315,0.5,1.0,1.0,417.0,665.0,1.0,1,1918.0,1
1393,1393,0.27141112167199843,0.3,1.0,1.0,492.0,782.0,1.0,1,1726.0,1
1394,1394,0.16086909223763113,0.2,1.0,1.0,498.0,771.0,1.0,1,1731.0,1
1395,1395,0.28067546099424956,0.3,1.0,1.0,406.0,681.0,1.0,1,1913.0,1
1396,1396,0.2509682010990101,0.3,1.0,1.0,373.0,663.0,1.0,1,1394.0,1
1397,1397,0.16837385033687624,0.2,0.0,0.0,280.0,820.0,0.0,1,1900.0,1
1398,1398,-0.6455407373768702,-0.6,1.0,0.0,305.0,746.0,0.0,0,99.0,1
1399,1399,-0.3740951017898315,-0.4,1.0,0.0,255.0,856.0,0.0,0,429.0,1
1400,1400,0.44389233255620997,0.4,1.0,1.0,431.0,635.0,1.0,1,794.0,1
1401,1401,-0.7544019527968818,-0.8,1.0,0.0,442.0,574.0,0.0,0,414.0,1
1402,1402,-0.6796806762535869,-0.7,0.0,1.0,315.0,874.0,1.0,0,241.0,1
1403,1403,-0.34247571026289547,-0.3,0.0,1.0,434.0,770.0,1.0,0,666.0,1
1404,1404,0.3781435809675987,0.4,0.0,0.0,262.0,738.0,0.0,1,1400.0,1
1405,1405,-0.7087893945480361,-0.7,1.0,0.0,261.0,984.0,0.0,0,315.0,1
1406,1406,0.24033601516023062,0.2,0.0,0.0,466.0,965.0,0.0,1,1569.0,1
1407,1407,0.3649142397807602,0.4,1.0,1.0,453.0,651.0,1.0,1,1846.0,1
1408,1408,-0.19799334118582257,-0.2,0.0,1.0,329.0,832.0,1.0,0,559.0,1
1409,1409,0.6770403118596796,0.7,0.0,0.0,385.0,891.0,0.0,1,274.0,1
1410,1410,0.49678705834634773,0.5,1.0,1.0,298.0,824.0,1.0,1,498.0,1
1411,1411,-0.2429520269935027,-0.2,1.0,0.0,286.0,567.0,0.0,0,17.0,1
1412,1412,-0.803322051779089,-0.8,1.0,0.0,471.0,603.0,0.0,0,396.0,1
1413,1413,-0.7668015407164132,-0.8,1.0,0.0,371.0,775.0,0.0,0,234.0,1
1414,1414,-0.5892917632943975,-0.6,1.0,0.0,323.0,653.0,0.0,0,214.0,1
1415,1415,0.2822133710883724,0.3,0.0,0.0,371.0,972.0,0.0,1,1447.0,1
1416,1416,0.23969076720364757,0.2,1.0,1.0,341.0,681.0,1.0,1,1978.0,1
1417,1417,0.5665128029542489,0.6,1.0,1.0,454.0,750.0,1.0,1,536.0,1
1418,1418,0.8616293964699121,0.9,0.0,0.0,409.0,523.0,0.0,1,248.0,1
1419,1419,-0.07378338365447279,-0.1,0.0,1.0,449.0,649.0,1.0,0,1902.0,1
1420,1420,0.12017729628234719,0.1,1.0,1.0,252.0,826.0,0.0,0,1282.0,0
1421,1421,-0.43873627311102775,-0.4,0.0,1.0,275.0,517.0,1.0,0,978.0,1
1422,1422,-0.06570132378300453,-0.1,1.0,0.0,366.0,604.0,0.0,0,840.0,1
1423,1423,0.683778419438012,0.7,0.0,0.0,389.0,507.0,0.0,1,534.0,1
1424,1424,0.5912155300565315,0.6,1.0,1.0,252.0,785.0,1.0,1,1013.0,1
1425,1425,0.6966432698874588,0.7,1.0,1.0,302.0,537.0,1.0,1,471.0,1
1426,1426,0.3988945231240887,0.4,1.0,1.0,346.0,891.0,1.0,1,1033.0,1
1427,1427,0.5170375940364861,0.5,1.0,1.0,437.0,584.0,1.0,1,469.0,1
1428,1428,-0.4324152632513966,-0.4,0.0,1.0,462.0,556.0,1.0,0,572.0,1
1429,1429,0.4486422735687309,0.4,1.0,1.0,402.0,678.0,1.0,1,620.0,1
1430,1430,-0.1935607180153477,-0.2,0.0,1.0,339.0,728.0,1.0,0,1013.0,1
1431,1431,0.028082579045485057,0.0,1.0,1.0,289.0,978.0,1.0,1,-477.0,1
1432,1432,-0.4350268792149083,-0.4,0.0,1.0,254.0,672.0,1.0,0,174.0,1
1433,1433,0.0007075282370415659,0.0,1.0,1.0,465.0,921.0,0.0,0,1614.0,0
1434,1434,0.7368341358339731,0.7,0.0,0.0,258.0,667.0,0.0,1,295.0,1
1435,1435,0.632363934184942,0.6,0.0,0.0,336.0,786.0,0.0,1,88.0,1
1436,1436,0.8638037623758305,0.9,0.0,0.0,438.0,993.0,0.0,1,539.0,1
1437,1437,-0.7893747512162816,-0.8,0.0,1.0,434.0,683.0,1.0,0,143.0,1
1438,1438,-0.06402470384127401,-0.1,0.0,1.0,482.0,548.0,1.0,0,1970.0,1
1439,1439,0.6986907681407145,0.7,0.0,0.0,304.0,650.0,0.0,1,456.0,1
1440,1440,0.1808644829727145,0.2,0.0,0.0,337.0,795.0,0.0,1,1078.0,1
1441,1441,0.05306191694365414,0.1,0.0,0.0,455.0,663.0,0.0,1,1882.0,1
1442,1442,0.22806838087771963,0.2,1.0,1.0,451.0,627.0,1.0,1,1922.0,1
1443,1443,0.23078538938341653,0.2,1.0,1.0,431.0,949.0,1.0,1,800.0,1
1444,1444,0.30032108784882794,0.3,1.0,1.0,267.0,790.0,1.0,1,1943.0,1
1445,1445,-0.5969825286934397,-0.6,1.0,0.0,441.0,542.0,0.0,0,477.0,1
1446,1446,0.676111616707804,0.7,1.0,1.0,482.0,523.0,1.0,1,555.0,1
1447,1447,0.10154887084410713,0.1,1.0,1.0,426.0,966.0,1.0,1,1198.0,1
1448,1448,0.017476277882386926,0.0,1.0,1.0,395.0,626.0,0.0,0,1979.0,0
1449,1449,-0.8756263945704498,-0.9,1.0,0.0,332.0,769.0,0.0,0,419.0,1
1450,1450,-0.1149305169513305,-0.1,0.0,1.0,324.0,728.0,1.0,0,1788.0,1
1451,1451,-0.3121286178271675,-0.3,1.0,0.0,330.0,551.0,0.0,0,919.0,1
1452,1452,0.0054999514806217675,0.0,1.0,1.0,298.0,566.0,0.0,0,1516.0,0
1453,1453,-0.5840756007439638,-0.6,1.0,0.0,478.0,924.0,0.0,0,468.0,1
1454,1454,-0.4642896598135873,-0.5,0.0,1.0,268.0,837.0,1.0,0,435.0,1
1455,1455,0.3234179695108571,0.3,1.0,1.0,303.0,780.0,1.0,1,867.0,1
1456,1456,0.4769837960297866,0.5,0.0,0.0,264.0,738.0,0.0,1,248.0,1
1457,1457,0.5185756845635406,0.5,0.0,0.0,409.0,948.0,0.0,1,523.0,1
1458,1458,0.5838626243055293,0.6,1.0,1.0,361.0,586.0,1.0,1,1583.0,1
1459,1459,-0.527119706815045,-0.5,0.0,1.0,458.0,577.0,1.0,0,175.0,1
1460,1460,0.4201209716972635,0.4,1.0,1.0,432.0,698.0,1.0,1,920.0,1
1461,1461,-0.24705917682854828,-0.2,1.0,0.0,304.0,587.0,0.0,0,1639.0,1
1462,1462,-0.7224832334457456,-0.7,0.0,1.0,492.0,654.0,1.0,0,904.0,1
1463,1463,0.4172048969508323,0.4,1.0,1.0,465.0,816.0,1.0,1,519.0,1
1464,1464,0.06428380508755505,0.1,0.0,0.0,374.0,984.0,1.0,0,1642.0,0
1465,1465,0.8575209578218562,0.9,1.0,1.0,250.0,528.0,1.0,1,302.0,1
1466,1466,0.6824702811067104,0.7,0.0,0.0,302.0,586.0,0.0,1,812.0,1
1467,1467,0.7928225656355782,0.8,1.0,1.0,473.0,671.0,1.0,1,986.0,1
1468,1468,0.036804832364572326,0.0,1.0,1.0,465.0,773.0,1.0,1,1762.0,1
1469,1469,-0.06155184618144449,-0.1,0.0,1.0,477.0,566.0,1.0,0,737.0,1
1470,1470,-0.24713282183838103,-0.2,0.0,1.0,333.0,929.0,1.0,0,748.0,1
1471,1471,-0.03528102457540627,-0.0,1.0,0.0,321.0,643.0,0.0,0,466.0,1
1472,1472,-0.7285295732558398,-0.7,1.0,0.0,301.0,765.0,0.0,0,504.0,1
1473,1473,-0.620820583401682,-0.6,0.0,1.0,395.0,824.0,1.0,0,441.0,1
1474,1474,0.13557760312899758,0.1,0.0,0.0,313.0,737.0,0.0,1,1950.0,1
1475,1475,0.4203273469452552,0.4,1.0,1.0,325.0,779.0,1.0,1,1896.0,1
1476,1476,0.029524850882496234,0.0,0.0,0.0,300.0,983.0,0.0,1,1717.0,1
1477,1477,-0.033971778636931904,-0.0,1.0,0.0,341.0,821.0,0.0,0,1838.0,1
1478,1478,0.6208970140644178,0.6,0.0,0.0,427.0,639.0,0.0,1,424.0,1
1479,1479,0.5069494282525872,0.5,1.0,1.0,465.0,918.0,1.0,1,547.0,1
1480,1480,-0.1634377528136508,-0.2,0.0,1.0,401.0,948.0,1.0,0,71.0,1
1481,1481,0.38756040859951224,0.4,1.0,1.0,371.0,738.0,1.0,1,521.0,1
1482,1482,-0.17108165706324574,-0.2,1.0,0.0,334.0,576.0,0.0,0,730.0,1
1483,1483,0.24097282982656842,0.2,1.0,1.0,420.0,989.0,0.0,0,301.0,0
1484,1484,0.8171073117945419,0.8,1.0,1.0,314.0,531.0,1.0,1,785.0,1
1485,1485,-0.6096832444798808,-0.6,1.0,0.0,416.0,762.0,0.0,0,332.0,1
1486,1486,0.005047299535170913,0.0,1.0,1.0,276.0,955.0,0.0,0,1769.0,0
1487,1487,0.03311456506526833,0.0,1.0,1.0,256.0,564.0,0.0,0,1940.0,0
