,trial,coherence,coherence_bin,green_side,correct_side,target_onset,checker_onset,decision,green_decision,decision_time,correct_decision
0,0,-0.7855521905754185,-0.8,1.0,0.0,440.0,750.0,0.0,0,150.0,1
1,1,-0.22425439860267138,-0.2,1.0,0.0,421.0,903.0,0.0,0,676.0,1
2,2,-0.6548626668804283,-0.7,1.0,0.0,258.0,805.0,0.0,0,297.0,1
3,3,-0.4119590168905925,-0.4,0.0,1.0,490.0,823.0,1.0,0,287.0,1
4,4,-0.1578047996026395,-0.2,1.0,0.0,262.0,696.0,0.0,0,432.0,1
5,5,-0.7633486653188815,-0.8,1.0,0.0,345.0,698.0,0.0,0,217.0,1
6,6,0.08565057736742265,0.1,0.0,0.0,279.0,929.0,0.0,1,352.0,1
7,7,-0.2934837339076637,-0.3,1.0,0.0,378.0,976.0,0.0,0,-14.0,1
8,8,-0.4791550651051502,-0.5,0.0,1.0,344.0,741.0,1.0,0,485.0,1
9,9,0.614731358835975,0.6,1.0,1.0,283.0,588.0,1.0,1,279.0,1
10,10,-0.8068769203920378,-0.8,0.0,1.0,474.0,740.0,0.0,1,-404.0,0
11,11,0.5857605730022283,0.6,1.0,1.0,264.0,824.0,1.0,1,352.0,1
12,12,-0.3032915453763164,-0.3,0.0,1.0,415.0,647.0,1.0,0,1308.0,1
13,13,-0.06408562824108588,-0.1,1.0,0.0,327.0,634.0,0.0,0,2019.0,1
14,14,-0.12130811504176964,-0.1,0.0,1.0,331.0,797.0,0.0,1,-318.0,0
15,15,0.7678245246073013,0.8,1.0,1.0,294.0,976.0,1.0,1,510.0,1
16,16,0.19930751730700036,0.2,1.0,1.0,277.0,993.0,0.0,0,-110.0,0
17,17,0.32555216856966773,0.3,0.0,0.0,297.0,694.0,0.0,1,579.0,1
18,18,0.39677978596291397,0.4,0.0,0.0,335.0,804.0,0.0,1,-399.0,1
19,19,0.2228117200205325,0.2,0.0,0.0,418.0,703.0,0.0,1,-231.0,1
20,20,-0.8774671227900696,-0.9,1.0,0.0,353.0,923.0,0.0,0,-86.0,1
21,21,-0.20643519680065703,-0.2,0.0,1.0,430.0,876.0,0.0,1,-466.0,0
22,22,0.43874187727398717,0.4,0.0,0.0,287.0,690.0,0.0,1,473.0,1
23,23,-0.3842921283979197,-0.4,0.0,1.0,299.0,511.0,0.0,1,10.0,0
24,24,-0.6898644240097751,-0.7,1.0,0.0,378.0,727.0,0.0,0,375.0,1
25,25,-0.6875416731590881,-0.7,0.0,1.0,446.0,803.0,1.0,0,201.0,1
26,26,-0.6796823877421118,-0.7,0.0,1.0,471.0,745.0,0.0,1,-176.0,0
27,27,-0.42791384228936863,-0.4,1.0,0.0,489.0,986.0,0.0,0,-205.0,1
28,28,-0.6885412101561779,-0.7,0.0,1.0,263.0,951.0,0.0,1,-634.0,0
29,29,-0.6090033670850714,-0.6,0.0,1.0,323.0,624.0,1.0,0,143.0,1
30,30,-0.3622622696551665,-0.4,1.0,0.0,342.0,840.0,0.0,0,298.0,1
31,31,0.7988247327962085,0.8,0.0,0.0,326.0,987.0,0.0,1,177.0,1
32,32,0.6772087110679622,0.7,1.0,1.0,286.0,587.0,1.0,1,227.0,1
33,33,0.48279461157522763,0.5,0.0,0.0,384.0,813.0,0.0,1,63.0,1
34,34,0.5920655693845837,0.6,1.0,1.0,386.0,863.0,1.0,1,131.0,1
35,35,-0.6130326296763919,-0.6,0.0,1.0,410.0,786.0,0.0,1,-146.0,0
36,36,-0.2542350672120024,-0.3,0.0,1.0,432.0,945.0,0.0,1,-37.0,0
37,37,-0.2104937766697934,-0.2,0.0,1.0,395.0,615.0,1.0,0,890.0,1
38,38,-0.019261491098887862,-0.0,0.0,1.0,448.0,983.0,0.0,1,229.0,0
39,39,-0.45458566607963113,-0.5,1.0,0.0,299.0,904.0,0.0,0,257.0,1
40,40,-0.7786860756284544,-0.8,1.0,0.0,372.0,565.0,0.0,0,223.0,1
41,41,-0.23011585411714197,-0.2,0.0,1.0,487.0,897.0,1.0,0,3006.0,1
42,42,0.3623450108809375,0.4,1.0,1.0,457.0,949.0,1.0,1,394.0,1
43,43,-0.8299997178221502,-0.8,0.0,1.0,305.0,612.0,0.0,1,-157.0,0
44,44,-0.21884476448173773,-0.2,0.0,1.0,372.0,910.0,1.0,0,-252.0,1
45,45,0.6953357041662925,0.7,0.0,0.0,412.0,882.0,0.0,1,206.0,1
46,46,-0.15586188028360526,-0.2,1.0,0.0,251.0,980.0,0.0,0,499.0,1
47,47,0.4423287873524585,0.4,0.0,0.0,432.0,904.0,0.0,1,394.0,1
48,48,0.6562731548594948,0.7,1.0,1.0,475.0,910.0,1.0,1,285.0,1
49,49,-0.36830940669653467,-0.4,0.0,1.0,489.0,568.0,1.0,0,763.0,1
50,50,-0.8203231879942038,-0.8,1.0,0.0,319.0,519.0,0.0,0,192.0,1
51,51,-0.7201779368403003,-0.7,1.0,0.0,266.0,580.0,0.0,0,224.0,1
52,52,-0.6481763584208947,-0.6,0.0,1.0,440.0,709.0,1.0,0,361.0,1
53,53,0.7301068765503326,0.7,0.0,0.0,381.0,802.0,0.0,1,-413.0,1
54,54,-0.7099721838202042,-0.7,1.0,0.0,383.0,682.0,0.0,0,185.0,1
55,55,0.6593452784899493,0.7,1.0,1.0,266.0,629.0,1.0,1,425.0,1
56,56,0.5236256598595322,0.5,1.0,1.0,307.0,628.0,1.0,1,415.0,1
57,57,-0.7028410193681667,-0.7,1.0,0.0,398.0,528.0,0.0,0,114.0,1
58,58,-0.5777893001109284,-0.6,1.0,0.0,498.0,531.0,0.0,0,251.0,1
59,59,-0.5831761073827568,-0.6,0.0,1.0,411.0,857.0,0.0,1,-208.0,0
60,60,0.2908635437850534,0.3,1.0,1.0,251.0,760.0,1.0,1,669.0,1
61,61,0.1924876212680452,0.2,1.0,1.0,494.0,678.0,1.0,1,978.0,1
62,62,-0.6079747158762505,-0.6,1.0,0.0,366.0,745.0,0.0,0,99.0,1
63,63,0.23912769983912108,0.2,0.0,0.0,327.0,568.0,0.0,1,335.0,1
64,64,0.8783618769017306,0.9,0.0,0.0,457.0,893.0,0.0,1,90.0,1
65,65,0.6644436379874169,0.7,1.0,1.0,253.0,922.0,1.0,1,575.0,1
66,66,-0.3032194762541751,-0.3,1.0,0.0,482.0,796.0,0.0,0,662.0,1
67,67,-0.30549232859318076,-0.3,1.0,0.0,302.0,962.0,0.0,0,-354.0,1
68,68,-0.4126998019160025,-0.4,0.0,1.0,392.0,590.0,0.0,1,18.0,0
69,69,0.0927292915598319,0.1,1.0,1.0,498.0,733.0,0.0,0,3769.0,0
70,70,-0.19349735986725225,-0.2,0.0,1.0,425.0,785.0,1.0,0,970.0,1
71,71,0.5733582362474935,0.6,0.0,0.0,262.0,976.0,0.0,1,-458.0,1
72,72,-0.01916184569820989,-0.0,0.0,1.0,423.0,906.0,1.0,0,-209.0,1
73,73,-0.849058593058839,-0.8,1.0,0.0,342.0,919.0,0.0,0,139.0,1
74,74,0.7263954488652303,0.7,0.0,0.0,477.0,801.0,0.0,1,52.0,1
75,75,-0.0714472869305951,-0.1,0.0,1.0,390.0,831.0,0.0,1,1219.0,0
76,76,0.24986228201398142,0.2,0.0,0.0,497.0,618.0,0.0,1,25.0,1
77,77,0.43554631827427637,0.4,1.0,1.0,486.0,616.0,0.0,0,-82.0,0
78,78,-0.062416676543259886,-0.1,0.0,1.0,291.0,756.0,0.0,1,1553.0,0
79,79,0.8757621951690903,0.9,1.0,1.0,413.0,800.0,1.0,1,277.0,1
80,80,-0.18162819210914682,-0.2,0.0,1.0,495.0,845.0,1.0,0,430.0,1
81,81,0.46521026548666733,0.5,0.0,0.0,444.0,522.0,0.0,1,184.0,1
82,82,-0.6959767639912742,-0.7,1.0,0.0,264.0,538.0,0.0,0,268.0,1
83,83,-0.597765716974854,-0.6,0.0,1.0,418.0,883.0,1.0,0,369.0,1
84,84,0.6659317434493038,0.7,1.0,1.0,437.0,528.0,1.0,1,315.0,1
85,85,0.6703933978530373,0.7,1.0,1.0,268.0,768.0,1.0,1,324.0,1
86,86,0.3075877959589196,0.3,0.0,0.0,381.0,522.0,0.0,1,477.0,1
87,87,0.4030572567391272,0.4,1.0,1.0,412.0,608.0,1.0,1,860.0,1
88,88,0.010740023375110042,0.0,1.0,1.0,381.0,966.0,0.0,0,1063.0,0
89,89,-0.10479907519679432,-0.1,1.0,0.0,324.0,820.0,0.0,0,126.0,1
90,90,-0.21003229111649757,-0.2,0.0,1.0,446.0,980.0,1.0,0,654.0,1
91,91,-0.7335989738450945,-0.7,1.0,0.0,312.0,690.0,0.0,0,108.0,1
92,92,-0.31471064650425606,-0.3,1.0,0.0,388.0,806.0,0.0,0,196.0,1
93,93,0.024820259146252965,0.0,0.0,0.0,485.0,976.0,1.0,0,-321.0,0
94,94,0.7600921537541653,0.8,1.0,1.0,390.0,930.0,1.0,1,120.0,1
95,95,0.8020485843795174,0.8,0.0,0.0,358.0,853.0,0.0,1,189.0,1
96,96,-0.006767954674711252,-0.0,0.0,1.0,368.0,636.0,0.0,1,96.0,0
97,97,-0.3212312284138473,-0.3,1.0,0.0,497.0,574.0,0.0,0,449.0,1
98,98,0.26274207277858996,0.3,1.0,1.0,426.0,782.0,1.0,1,372.0,1
99,99,-0.8735446074477924,-0.9,1.0,0.0,319.0,911.0,1.0,1,-610.0,0
100,100,0.634109483839869,0.6,0.0,0.0,477.0,650.0,0.0,1,83.0,1
101,101,-0.13298621688618217,-0.1,0.0,1.0,400.0,531.0,1.0,0,3949.0,1
102,102,-0.20887370935207972,-0.2,0.0,1.0,486.0,932.0,0.0,1,12.0,0
103,103,0.32419744106425663,0.3,0.0,0.0,363.0,992.0,0.0,1,-415.0,1
104,104,0.6569597543779343,0.7,1.0,1.0,466.0,558.0,1.0,1,356.0,1
105,105,0.10855737057275017,0.1,1.0,1.0,334.0,969.0,1.0,1,3697.0,1
106,106,-0.4529908254386103,-0.5,0.0,1.0,252.0,914.0,1.0,0,704.0,1
107,107,-0.6579909718870951,-0.7,0.0,1.0,393.0,841.0,1.0,0,596.0,1
108,108,0.31625637076498225,0.3,1.0,1.0,485.0,639.0,1.0,1,1456.0,1
109,109,0.43050806561116584,0.4,1.0,1.0,300.0,661.0,1.0,1,-71.0,1
110,110,-0.27102273189467585,-0.3,0.0,1.0,323.0,916.0,1.0,0,1811.0,1
111,111,-0.48609121798120075,-0.5,0.0,1.0,343.0,695.0,1.0,0,322.0,1
112,112,0.44623926574149275,0.4,1.0,1.0,385.0,795.0,1.0,1,720.0,1
113,113,0.47449837271995865,0.5,0.0,0.0,304.0,720.0,0.0,1,206.0,1
114,114,-0.05991374262170557,-0.1,0.0,1.0,426.0,595.0,0.0,1,1069.0,0
115,115,-0.6891328368692997,-0.7,0.0,1.0,396.0,556.0,1.0,0,948.0,1
116,116,-0.41191392007292277,-0.4,1.0,0.0,256.0,681.0,0.0,0,383.0,1
117,117,0.12179926202610292,0.1,0.0,0.0,289.0,707.0,0.0,1,294.0,1
118,118,0.535866174609745,0.5,1.0,1.0,357.0,597.0,1.0,1,656.0,1
119,119,-0.3045441155890275,-0.3,0.0,1.0,496.0,653.0,0.0,1,-69.0,0
120,120,-0.6962725961962497,-0.7,0.0,1.0,343.0,736.0,0.0,1,-59.0,0
121,121,0.8999067262233854,0.9,0.0,0.0,464.0,638.0,0.0,1,-132.0,1
122,122,0.5353393720677041,0.5,1.0,1.0,413.0,862.0,1.0,1,1395.0,1
123,123,-0.2560004028214964,-0.3,1.0,0.0,419.0,569.0,0.0,0,542.0,1
124,124,0.40230087371843826,0.4,0.0,0.0,276.0,694.0,0.0,1,170.0,1
125,125,0.2534011656944374,0.3,0.0,0.0,385.0,791.0,0.0,1,1004.0,1
126,126,0.6040149502638182,0.6,0.0,0.0,368.0,876.0,0.0,1,236.0,1
127,127,0.7435491893701281,0.7,0.0,0.0,471.0,913.0,0.0,1,-524.0,1
128,128,0.6988282196295251,0.7,1.0,1.0,468.0,984.0,1.0,1,438.0,1
129,129,0.4282882922392698,0.4,1.0,1.0,476.0,804.0,1.0,1,630.0,1
130,130,-0.28735134712120003,-0.3,0.0,1.0,353.0,858.0,0.0,1,79.0,0
131,131,-0.11355061832451407,-0.1,1.0,0.0,361.0,998.0,0.0,0,911.0,1
132,132,0.3038112101267,0.3,0.0,0.0,327.0,637.0,0.0,1,346.0,1
133,133,-0.0033034507299978255,-0.0,0.0,1.0,431.0,817.0,0.0,1,22.0,0
134,134,0.07500140221475682,0.1,1.0,1.0,390.0,730.0,0.0,0,3880.0,0
135,135,0.22730389944071316,0.2,0.0,0.0,252.0,615.0,0.0,1,383.0,1
136,136,0.6686232983969954,0.7,1.0,1.0,354.0,582.0,1.0,1,314.0,1
137,137,-0.32993715134239143,-0.3,0.0,1.0,456.0,698.0,1.0,0,866.0,1
138,138,-0.5912865632848765,-0.6,1.0,0.0,375.0,623.0,0.0,0,82.0,1
139,139,-0.2772650415257033,-0.3,1.0,0.0,316.0,714.0,0.0,0,570.0,1
140,140,-0.3279010400502598,-0.3,1.0,0.0,338.0,690.0,0.0,0,602.0,1
141,141,0.544358382069594,0.5,1.0,1.0,490.0,985.0,1.0,1,795.0,1
142,142,0.5366032126830708,0.5,0.0,0.0,327.0,885.0,0.0,1,48.0,1
143,143,-0.26660674866675194,-0.3,0.0,1.0,400.0,676.0,0.0,1,284.0,0
144,144,0.6614508259112283,0.7,1.0,1.0,402.0,907.0,1.0,1,481.0,1
145,145,-0.06457561068942885,-0.1,1.0,0.0,279.0,662.0,0.0,0,4059.0,1
146,146,-0.5134066945791667,-0.5,1.0,0.0,317.0,953.0,0.0,0,340.0,1
147,147,-0.39591278144276787,-0.4,1.0,0.0,295.0,601.0,0.0,0,694.0,1
148,148,0.5992335379562307,0.6,1.0,1.0,341.0,969.0,1.0,1,800.0,1
149,149,-0.09106794781801875,-0.1,1.0,0.0,484.0,907.0,0.0,0,3609.0,1
150,150,-0.48631229653636593,-0.5,0.0,1.0,395.0,974.0,0.0,1,-249.0,0
151,151,-0.2928871805314195,-0.3,1.0,0.0,402.0,770.0,0.0,0,218.0,1
152,152,0.5012656789219024,0.5,1.0,1.0,478.0,600.0,1.0,1,442.0,1
153,153,0.2514571046900488,0.3,1.0,1.0,386.0,901.0,1.0,1,503.0,1
154,154,-0.3631631450060482,-0.4,1.0,0.0,432.0,963.0,0.0,0,645.0,1
155,155,-0.8037761284555617,-0.8,0.0,1.0,340.0,996.0,0.0,1,-276.0,0
156,156,-0.6857137458918132,-0.7,0.0,1.0,282.0,727.0,0.0,1,-119.0,0
157,157,-0.5664155267247319,-0.6,1.0,0.0,478.0,723.0,0.0,0,149.0,1
158,158,-0.29078010567117707,-0.3,1.0,0.0,416.0,833.0,0.0,0,101.0,1
159,159,-0.5432721105576599,-0.5,1.0,0.0,481.0,943.0,0.0,0,46.0,1
160,160,-0.5051471167845254,-0.5,0.0,1.0,482.0,904.0,1.0,0,74.0,1
161,161,-0.41862123154453684,-0.4,1.0,0.0,442.0,724.0,0.0,0,144.0,1
162,162,0.01068557071671794,0.0,1.0,1.0,408.0,682.0,0.0,0,-170.0,0
163,163,-0.11915421862148556,-0.1,0.0,1.0,466.0,876.0,0.0,1,2418.0,0
164,164,0.5213967960984659,0.5,0.0,0.0,259.0,555.0,0.0,1,676.0,1
165,165,-0.7420091113623309,-0.7,0.0,1.0,257.0,797.0,1.0,0,116.0,1
166,166,0.7489886075193045,0.7,1.0,1.0,296.0,798.0,1.0,1,786.0,1
167,167,-0.01403276493544936,-0.0,0.0,1.0,489.0,854.0,0.0,1,3657.0,0
168,168,0.23317164219078224,0.2,0.0,0.0,333.0,742.0,0.0,1,165.0,1
169,169,-0.27439347222435184,-0.3,0.0,1.0,369.0,894.0,1.0,0,457.0,1
170,170,0.6966301724474292,0.7,0.0,0.0,425.0,931.0,0.0,1,-796.0,1
171,171,0.8834728740078662,0.9,1.0,1.0,331.0,907.0,1.0,1,412.0,1
172,172,-0.5284312726864078,-0.5,1.0,0.0,492.0,869.0,0.0,0,229.0,1
173,173,-0.5895872331815682,-0.6,0.0,1.0,392.0,555.0,0.0,1,-107.0,0
174,174,-0.541357625610042,-0.5,0.0,1.0,373.0,608.0,1.0,0,399.0,1
175,175,-0.3362883652311971,-0.3,1.0,0.0,384.0,811.0,0.0,0,45.0,1
176,176,0.6117718030425784,0.6,1.0,1.0,286.0,630.0,1.0,1,514.0,1
177,177,0.8925593621926969,0.9,0.0,0.0,493.0,971.0,0.0,1,126.0,1
178,178,-0.8199675715104089,-0.8,0.0,1.0,390.0,730.0,1.0,0,500.0,1
179,179,0.042498478399842776,0.0,1.0,1.0,415.0,748.0,0.0,0,3837.0,0
180,180,-0.025919039402248822,-0.0,1.0,0.0,405.0,621.0,0.0,0,3914.0,1
181,181,0.35747006787989244,0.4,1.0,1.0,486.0,996.0,0.0,0,-242.0,0
182,182,0.7536991191812917,0.8,1.0,1.0,343.0,514.0,1.0,1,253.0,1
183,183,-0.5423421608094179,-0.5,1.0,0.0,475.0,852.0,0.0,0,443.0,1
184,184,-0.8816099683626951,-0.9,1.0,0.0,374.0,956.0,0.0,0,290.0,1
185,185,-0.07799314685591574,-0.1,1.0,0.0,482.0,928.0,0.0,0,1720.0,1
186,186,0.17479582868752586,0.2,0.0,0.0,352.0,935.0,0.0,1,563.0,1
187,187,-0.4940454451505618,-0.5,1.0,0.0,281.0,945.0,0.0,0,224.0,1
188,188,0.5219572947740095,0.5,0.0,0.0,499.0,528.0,0.0,1,83.0,1
189,189,0.31209174377984794,0.3,1.0,1.0,410.0,869.0,1.0,1,811.0,1
190,190,0.7828192820199017,0.8,1.0,1.0,278.0,660.0,1.0,1,392.0,1
191,191,0.03524156936959888,0.0,0.0,0.0,406.0,921.0,0.0,1,1223.0,1
192,192,0.09041203468964709,0.1,1.0,1.0,257.0,503.0,1.0,1,4220.0,1
193,193,-0.8919767253872819,-0.9,1.0,0.0,375.0,731.0,0.0,0,94.0,1
194,194,0.39486215632838395,0.4,0.0,0.0,303.0,985.0,0.0,1,12.0,1
195,195,-0.5201337547448148,-0.5,1.0,0.0,353.0,909.0,0.0,0,88.0,1
196,196,0.2813392096676578,0.3,1.0,1.0,443.0,565.0,1.0,1,3372.0,1
197,197,-0.46846892959316355,-0.5,1.0,0.0,485.0,671.0,0.0,0,164.0,1
198,198,0.7614097004723196,0.8,0.0,0.0,254.0,519.0,0.0,1,277.0,1
199,199,-0.322269329030792,-0.3,0.0,1.0,266.0,608.0,1.0,0,1576.0,1
200,200,-0.6040971074866623,-0.6,1.0,0.0,339.0,519.0,0.0,0,202.0,1
201,201,-0.17007013138571614,-0.2,1.0,0.0,296.0,926.0,0.0,0,938.0,1
202,202,0.504613639143476,0.5,1.0,1.0,406.0,936.0,1.0,1,518.0,1
203,203,0.6592147887343897,0.7,0.0,0.0,390.0,519.0,0.0,1,101.0,1
204,204,0.48924660811368936,0.5,0.0,0.0,278.0,844.0,0.0,1,-252.0,1
205,205,0.48222199626995377,0.5,1.0,1.0,335.0,970.0,1.0,1,1125.0,1
206,206,0.7320135975878205,0.7,1.0,1.0,382.0,561.0,1.0,1,347.0,1
207,207,-0.0899419717492338,-0.1,0.0,1.0,383.0,993.0,0.0,1,-416.0,0
208,208,-0.2779946903991741,-0.3,1.0,0.0,404.0,831.0,0.0,0,325.0,1
209,209,-0.10486905947272307,-0.1,1.0,0.0,251.0,976.0,0.0,0,503.0,1
210,210,-0.6695393986642936,-0.7,1.0,0.0,439.0,676.0,0.0,0,325.0,1
211,211,-0.23163136728813016,-0.2,0.0,1.0,290.0,608.0,1.0,0,352.0,1
212,212,0.19698636038806716,0.2,1.0,1.0,498.0,591.0,1.0,1,1931.0,1
213,213,0.20562013624570763,0.2,0.0,0.0,380.0,849.0,0.0,1,471.0,1
214,214,0.2188546113250195,0.2,0.0,0.0,288.0,652.0,0.0,1,610.0,1
215,215,0.3043994254495065,0.3,1.0,1.0,448.0,826.0,1.0,1,1916.0,1
216,216,-0.366699766360167,-0.4,0.0,1.0,432.0,889.0,1.0,0,469.0,1
217,217,0.3388513398744536,0.3,0.0,0.0,446.0,735.0,0.0,1,189.0,1
218,218,-0.509767637352272,-0.5,0.0,1.0,343.0,928.0,0.0,1,-401.0,0
219,219,-0.3846248223746699,-0.4,1.0,0.0,469.0,529.0,0.0,0,42.0,1
220,220,0.36763801355577785,0.4,0.0,0.0,425.0,879.0,0.0,1,346.0,1
221,221,-0.8260288810972208,-0.8,1.0,0.0,258.0,649.0,0.0,0,53.0,1
222,222,0.32849264910129816,0.3,0.0,0.0,392.0,611.0,0.0,1,-93.0,1
223,223,-0.7822330173947779,-0.8,0.0,1.0,450.0,963.0,1.0,0,167.0,1
224,224,-0.6978267338544063,-0.7,0.0,1.0,424.0,803.0,1.0,0,143.0,1
225,225,0.46780782088721706,0.5,1.0,1.0,405.0,676.0,0.0,0,-41.0,0
226,226,0.2819707422302925,0.3,0.0,0.0,251.0,977.0,0.0,1,162.0,1
227,227,-0.7459338265622064,-0.7,1.0,0.0,364.0,551.0,0.0,0,235.0,1
228,228,-0.13021189793070587,-0.1,1.0,0.0,253.0,879.0,0.0,0,-482.0,1
229,229,0.8778445225656014,0.9,0.0,0.0,386.0,817.0,0.0,1,67.0,1
230,230,0.032355586608112,0.0,1.0,1.0,275.0,812.0,1.0,1,3913.0,1
231,231,0.10404715745089821,0.1,0.0,0.0,309.0,702.0,0.0,1,119.0,1
232,232,0.24490115651886046,0.2,0.0,0.0,421.0,585.0,0.0,1,174.0,1
233,233,-0.8394476049860021,-0.8,1.0,0.0,338.0,982.0,1.0,1,-140.0,0
234,234,0.8342792988740674,0.8,1.0,1.0,480.0,720.0,1.0,1,440.0,1
235,235,-0.49507897306819837,-0.5,0.0,1.0,366.0,716.0,1.0,0,248.0,1
236,236,0.35456419190851396,0.4,1.0,1.0,284.0,531.0,1.0,1,375.0,1
237,237,-0.5542244531856277,-0.6,1.0,0.0,407.0,589.0,0.0,0,244.0,1
238,238,0.4566482053348887,0.5,0.0,0.0,260.0,598.0,0.0,1,462.0,1
239,239,0.24341715960800048,0.2,0.0,0.0,491.0,506.0,0.0,1,203.0,1
240,240,-0.08723505791163344,-0.1,1.0,0.0,475.0,754.0,0.0,0,2621.0,1
241,241,-0.03907717231492791,-0.0,0.0,1.0,379.0,822.0,0.0,1,-271.0,0
242,242,-0.1786196032330688,-0.2,1.0,0.0,439.0,517.0,0.0,0,2564.0,1
243,243,0.046340188849482655,0.0,1.0,1.0,409.0,986.0,0.0,0,3605.0,0
244,244,0.09052700913102951,0.1,0.0,0.0,303.0,778.0,0.0,1,2229.0,1
245,245,0.8419088365819697,0.8,0.0,0.0,428.0,515.0,0.0,1,287.0,1
246,246,0.44280507729515917,0.4,1.0,1.0,279.0,897.0,1.0,1,464.0,1
247,247,-0.35006438038686094,-0.4,1.0,0.0,265.0,618.0,0.0,0,377.0,1
248,248,-0.7502189098843804,-0.8,0.0,1.0,373.0,600.0,0.0,1,-293.0,0
249,249,0.18763602825950498,0.2,0.0,0.0,334.0,711.0,0.0,1,355.0,1
250,250,-0.4684540386371257,-0.5,0.0,1.0,468.0,799.0,1.0,0,763.0,1
251,251,-0.008112361463970319,-0.0,1.0,0.0,349.0,870.0,0.0,0,1171.0,1
252,252,0.7807162202425436,0.8,1.0,1.0,433.0,570.0,1.0,1,347.0,1
253,253,0.20474070762103158,0.2,1.0,1.0,428.0,754.0,1.0,1,638.0,1
254,254,0.38141478778779503,0.4,1.0,1.0,496.0,784.0,1.0,1,810.0,1
255,255,0.8845737294035686,0.9,0.0,0.0,411.0,560.0,0.0,1,-261.0,1
256,256,-0.13634429770154632,-0.1,1.0,0.0,270.0,850.0,0.0,0,1560.0,1
257,257,0.22452987338708785,0.2,1.0,1.0,496.0,973.0,0.0,0,-639.0,0
258,258,-0.4304704806175235,-0.4,0.0,1.0,475.0,596.0,1.0,0,639.0,1
259,259,-0.37038961637777423,-0.4,1.0,0.0,438.0,717.0,0.0,0,75.0,1
260,260,-0.7822964040579055,-0.8,1.0,0.0,333.0,588.0,0.0,0,419.0,1
261,261,0.14179768161608808,0.1,1.0,1.0,253.0,682.0,0.0,0,1115.0,0
262,262,0.09109003008027872,0.1,1.0,1.0,308.0,721.0,1.0,1,1721.0,1
263,263,0.8765625892386896,0.9,1.0,1.0,332.0,780.0,0.0,0,-452.0,0
264,264,-0.6956279329603269,-0.7,0.0,1.0,331.0,943.0,0.0,1,56.0,0
265,265,0.1003268451451399,0.1,0.0,0.0,291.0,641.0,0.0,1,-242.0,1
266,266,0.20509015154680654,0.2,0.0,0.0,378.0,968.0,0.0,1,-256.0,1
267,267,0.30847170716997996,0.3,0.0,0.0,417.0,850.0,0.0,1,143.0,1
268,268,-0.29859326318389834,-0.3,0.0,1.0,457.0,894.0,1.0,0,-311.0,1
269,269,0.7311765360770116,0.7,1.0,1.0,495.0,574.0,1.0,1,181.0,1
270,270,-0.6561332496779421,-0.7,0.0,1.0,295.0,815.0,1.0,0,350.0,1
271,271,-0.5312857384540155,-0.5,1.0,0.0,340.0,739.0,0.0,0,281.0,1
272,272,-0.28787828950261274,-0.3,0.0,1.0,276.0,937.0,0.0,1,27.0,0
273,273,-0.486210581186684,-0.5,1.0,0.0,364.0,819.0,0.0,0,397.0,1
274,274,0.21777406829719237,0.2,0.0,0.0,389.0,516.0,0.0,1,195.0,1
275,275,-0.020296754039258458,-0.0,0.0,1.0,401.0,838.0,0.0,1,631.0,0
276,276,-0.4803282546860601,-0.5,0.0,1.0,377.0,845.0,0.0,1,-402.0,0
277,277,0.8477405348766921,0.8,0.0,0.0,459.0,833.0,0.0,1,-272.0,1
278,278,-0.46445061036793317,-0.5,1.0,0.0,289.0,528.0,0.0,0,493.0,1
279,279,0.844881121308429,0.8,1.0,1.0,387.0,629.0,1.0,1,154.0,1
280,280,-0.3489826527133131,-0.3,0.0,1.0,274.0,880.0,1.0,0,876.0,1
281,281,0.7900502505087551,0.8,0.0,0.0,426.0,730.0,1.0,0,-296.0,0
282,282,0.3760453275971408,0.4,1.0,1.0,344.0,964.0,1.0,1,772.0,1
283,283,0.2267276138567128,0.2,1.0,1.0,268.0,698.0,1.0,1,2354.0,1
284,284,-0.7594894438648604,-0.8,1.0,0.0,298.0,778.0,0.0,0,174.0,1
285,285,-0.8759086011391657,-0.9,0.0,1.0,468.0,860.0,1.0,0,412.0,1
286,286,-0.08247688837890055,-0.1,1.0,0.0,399.0,741.0,0.0,0,1140.0,1
287,287,0.6397218769232637,0.6,1.0,1.0,360.0,682.0,1.0,1,338.0,1
288,288,-0.39757285659206076,-0.4,1.0,0.0,408.0,620.0,0.0,0,-68.0,1
289,289,0.2995631233672825,0.3,1.0,1.0,399.0,742.0,1.0,1,1059.0,1
290,290,-0.04834099371252076,-0.0,0.0,1.0,328.0,729.0,0.0,1,463.0,0
291,291,0.19496496957462284,0.2,0.0,0.0,254.0,972.0,0.0,1,-466.0,1
292,292,0.42266583683621783,0.4,1.0,1.0,455.0,580.0,1.0,1,575.0,1
293,293,0.5344274497321971,0.5,1.0,1.0,338.0,610.0,1.0,1,552.0,1
294,294,-0.40967389760263184,-0.4,0.0,1.0,477.0,804.0,1.0,0,519.0,1
295,295,0.361314667190722,0.4,0.0,0.0,467.0,748.0,0.0,1,-35.0,1
296,296,0.1103531529016667,0.1,1.0,1.0,411.0,995.0,1.0,1,1154.0,1
297,297,0.8622562889948487,0.9,1.0,1.0,335.0,823.0,1.0,1,282.0,1
298,298,0.8529054020800214,0.9,1.0,1.0,360.0,783.0,1.0,1,537.0,1
299,299,0.004487449245104136,0.0,0.0,0.0,457.0,875.0,0.0,1,-212.0,1
300,300,0.5057195165421225,0.5,0.0,0.0,415.0,599.0,0.0,1,-44.0,1
301,301,0.4828504857536092,0.5,1.0,1.0,429.0,568.0,1.0,1,433.0,1
302,302,-0.3372542802143461,-0.3,1.0,0.0,355.0,874.0,0.0,0,-229.0,1
303,303,-0.6809742002686714,-0.7,1.0,0.0,448.0,507.0,0.0,0,295.0,1
304,304,0.8764805974493305,0.9,0.0,0.0,473.0,932.0,0.0,1,375.0,1
305,305,-0.6653220127126375,-0.7,0.0,1.0,391.0,985.0,1.0,0,454.0,1
306,306,0.846910492405477,0.8,1.0,1.0,357.0,682.0,1.0,1,241.0,1
307,307,0.5208389452238965,0.5,1.0,1.0,474.0,995.0,1.0,1,381.0,1
308,308,-0.36728351771004286,-0.4,1.0,0.0,338.0,914.0,0.0,0,428.0,1
309,309,-0.8547726521056016,-0.9,0.0,1.0,282.0,680.0,1.0,0,168.0,1
310,310,0.8301190027598392,0.8,1.0,1.0,316.0,864.0,1.0,1,340.0,1
311,311,0.5507560402451511,0.6,1.0,1.0,261.0,711.0,1.0,1,388.0,1
312,312,-0.749071970196398,-0.7,1.0,0.0,413.0,882.0,0.0,0,25.0,1
313,313,0.4573343643989868,0.5,0.0,0.0,475.0,814.0,0.0,1,21.0,1
314,314,0.3729475915432424,0.4,0.0,0.0,470.0,957.0,0.0,1,-1017.0,1
315,315,-0.3079600274587372,-0.3,1.0,0.0,250.0,553.0,0.0,0,197.0,1
316,316,0.174225318239437,0.2,0.0,0.0,323.0,963.0,0.0,1,374.0,1
317,317,-0.06912875640701821,-0.1,1.0,0.0,280.0,557.0,0.0,0,1733.0,1
318,318,0.22144151952003777,0.2,1.0,1.0,261.0,805.0,1.0,1,1504.0,1
319,319,0.3061906863202789,0.3,1.0,1.0,464.0,643.0,1.0,1,663.0,1
320,320,-0.32882333671699304,-0.3,0.0,1.0,422.0,789.0,1.0,0,319.0,1
321,321,-0.37929539991954875,-0.4,1.0,0.0,399.0,634.0,0.0,0,787.0,1
322,322,0.614048257415993,0.6,0.0,0.0,493.0,645.0,0.0,1,152.0,1
323,323,0.619233601590318,0.6,1.0,1.0,378.0,778.0,0.0,0,-386.0,0
324,324,0.7218827126771673,0.7,0.0,0.0,370.0,902.0,0.0,1,328.0,1
325,325,0.6571344556690067,0.7,0.0,0.0,466.0,693.0,0.0,1,11.0,1
326,326,0.384415554793616,0.4,0.0,0.0,395.0,742.0,0.0,1,-67.0,1
327,327,-0.3530494377230643,-0.4,1.0,0.0,353.0,788.0,0.0,0,209.0,1
328,328,-0.5897982003429971,-0.6,0.0,1.0,443.0,968.0,1.0,0,499.0,1
329,329,0.585662767332143,0.6,0.0,0.0,290.0,960.0,0.0,1,190.0,1
330,330,0.8191845903656635,0.8,1.0,1.0,343.0,592.0,1.0,1,385.0,1
331,331,0.6406501743051706,0.6,0.0,0.0,478.0,799.0,0.0,1,-57.0,1
332,332,0.05052709076108708,0.1,1.0,1.0,373.0,973.0,1.0,1,3654.0,1
333,333,0.22337309408362527,0.2,0.0,0.0,320.0,878.0,0.0,1,-438.0,1
334,334,0.00014248490490331722,0.0,1.0,1.0,302.0,944.0,1.0,1,194.0,1
335,335,0.15972015108160587,0.2,0.0,0.0,437.0,932.0,0.0,1,101.0,1
336,336,-0.8972882587297653,-0.9,1.0,0.0,322.0,902.0,0.0,0,-594.0,1
337,337,-0.6094076289844832,-0.6,0.0,1.0,273.0,717.0,1.0,0,400.0,1
338,338,-0.5173973512663249,-0.5,1.0,0.0,265.0,778.0,0.0,0,237.0,1
339,339,0.8572144317780209,0.9,0.0,0.0,394.0,808.0,0.0,1,188.0,1
340,340,0.8701879274292968,0.9,1.0,1.0,499.0,840.0,1.0,1,231.0,1
341,341,-0.15168361143007292,-0.2,0.0,1.0,334.0,902.0,1.0,0,3724.0,1
342,342,0.7248154353440469,0.7,0.0,0.0,286.0,692.0,0.0,1,162.0,1
343,343,0.07454253770272712,0.1,1.0,1.0,278.0,512.0,1.0,1,4210.0,1
344,344,0.443085508897917,0.4,0.0,0.0,253.0,899.0,0.0,1,508.0,1
345,345,0.07084899564840186,0.1,0.0,0.0,337.0,556.0,1.0,0,137.0,0
346,346,0.07104179990102444,0.1,0.0,0.0,448.0,765.0,0.0,1,-3.0,1
347,347,0.3629659380144671,0.4,0.0,0.0,399.0,947.0,0.0,1,-276.0,1
348,348,0.508545550483836,0.5,1.0,1.0,433.0,979.0,1.0,1,528.0,1
349,349,0.4116152856563423,0.4,1.0,1.0,292.0,780.0,1.0,1,208.0,1
350,350,-0.6093971241296872,-0.6,0.0,1.0,381.0,891.0,1.0,0,258.0,1
351,351,-0.6163905788838848,-0.6,0.0,1.0,462.0,714.0,1.0,0,394.0,1
352,352,0.4755356962221665,0.5,1.0,1.0,429.0,856.0,1.0,1,555.0,1
353,353,0.7671432129274492,0.8,0.0,0.0,310.0,973.0,0.0,1,-133.0,1
354,354,-0.0592276202229135,-0.1,0.0,1.0,361.0,566.0,0.0,1,1573.0,0
355,355,0.15335284473842437,0.2,1.0,1.0,297.0,599.0,0.0,0,104.0,0
356,356,0.876156454421623,0.9,0.0,0.0,374.0,907.0,0.0,1,39.0,1
357,357,0.8530859818290023,0.9,0.0,0.0,450.0,777.0,0.0,1,153.0,1
358,358,0.6884336250810842,0.7,1.0,1.0,326.0,969.0,1.0,1,275.0,1
359,359,0.8101503797819029,0.8,1.0,1.0,491.0,519.0,1.0,1,350.0,1
360,360,-0.17244076228635064,-0.2,0.0,1.0,489.0,523.0,1.0,0,2178.0,1
361,361,0.7411791705247591,0.7,0.0,0.0,373.0,678.0,0.0,1,-21.0,1
362,362,-0.6060770489279422,-0.6,0.0,1.0,443.0,531.0,1.0,0,456.0,1
363,363,0.5462488194281127,0.5,1.0,1.0,416.0,671.0,1.0,1,-247.0,1
364,364,-0.056563174655345994,-0.1,1.0,0.0,322.0,850.0,0.0,0,3808.0,1
365,365,-0.45758421688855544,-0.5,1.0,0.0,451.0,559.0,0.0,0,510.0,1
366,366,-0.24227970746519256,-0.2,1.0,0.0,352.0,741.0,0.0,0,527.0,1
367,367,0.18319904045991808,0.2,0.0,0.0,345.0,944.0,0.0,1,571.0,1
368,368,-0.8440349620630637,-0.8,1.0,0.0,264.0,651.0,0.0,0,75.0,1
369,369,0.13125810692661133,0.1,1.0,1.0,296.0,785.0,1.0,1,3919.0,1
370,370,-0.453755271025876,-0.5,1.0,0.0,434.0,712.0,0.0,0,884.0,1
371,371,0.7391840450271842,0.7,1.0,1.0,461.0,972.0,1.0,1,607.0,1
372,372,0.79399914468999,0.8,0.0,0.0,398.0,506.0,0.0,1,166.0,1
373,373,-0.41864435031559977,-0.4,0.0,1.0,317.0,943.0,1.0,0,790.0,1
374,374,-0.1702335368516057,-0.2,0.0,1.0,317.0,764.0,0.0,1,2519.0,0
375,375,-0.8359749223511044,-0.8,0.0,1.0,469.0,550.0,1.0,0,371.0,1
376,376,-0.3346977273110264,-0.3,1.0,0.0,355.0,715.0,0.0,0,650.0,1
377,377,-0.6302168567184562,-0.6,1.0,0.0,301.0,639.0,0.0,0,260.0,1
378,378,-0.41856719557371114,-0.4,0.0,1.0,433.0,932.0,1.0,0,-245.0,1
379,379,0.3177296923947498,0.3,1.0,1.0,459.0,520.0,1.0,1,981.0,1
380,380,0.5388041546136392,0.5,1.0,1.0,406.0,695.0,1.0,1,359.0,1
381,381,0.3491634402593401,0.3,1.0,1.0,456.0,841.0,1.0,1,233.0,1
382,382,0.40731721836493173,0.4,1.0,1.0,397.0,900.0,1.0,1,373.0,1
383,383,-0.5022983804835972,-0.5,0.0,1.0,348.0,652.0,1.0,0,730.0,1
384,384,0.6421148729893401,0.6,1.0,1.0,347.0,992.0,1.0,1,171.0,1
385,385,-0.4217178760254038,-0.4,1.0,0.0,362.0,554.0,0.0,0,504.0,1
386,386,0.7681388649772088,0.8,0.0,0.0,324.0,634.0,0.0,1,-278.0,1
387,387,0.09759311598882581,0.1,0.0,0.0,361.0,763.0,0.0,1,-194.0,1
388,388,-0.08079388850905422,-0.1,1.0,0.0,335.0,817.0,0.0,0,578.0,1
389,389,-0.8600493096275661,-0.9,1.0,0.0,274.0,675.0,0.0,0,211.0,1
390,390,-0.2812501674674661,-0.3,1.0,0.0,399.0,814.0,0.0,0,47.0,1
391,391,-0.28727053588617746,-0.3,0.0,1.0,328.0,607.0,1.0,0,495.0,1
392,392,-0.24265117538315772,-0.2,1.0,0.0,330.0,566.0,0.0,0,674.0,1
393,393,-0.6466995209781872,-0.6,1.0,0.0,443.0,950.0,0.0,0,147.0,1
394,394,-0.6710888166647542,-0.7,1.0,0.0,339.0,509.0,0.0,0,202.0,1
395,395,0.4228566576377194,0.4,1.0,1.0,346.0,802.0,1.0,1,432.0,1
396,396,0.29374942131357684,0.3,0.0,0.0,469.0,604.0,0.0,1,-23.0,1
397,397,-0.5026265706149189,-0.5,0.0,1.0,257.0,975.0,0.0,1,-162.0,0
398,398,-0.02759945553518217,-0.0,0.0,1.0,422.0,614.0,0.0,1,304.0,0
399,399,0.2793618232493339,0.3,0.0,0.0,397.0,938.0,0.0,1,225.0,1
400,400,-0.02515788953733733,-0.0,1.0,0.0,497.0,537.0,0.0,0,3966.0,1
401,401,0.8963700353135716,0.9,1.0,1.0,311.0,778.0,1.0,1,161.0,1
402,402,0.8611799843659703,0.9,1.0,1.0,454.0,591.0,1.0,1,315.0,1
403,403,0.3240336592113896,0.3,0.0,0.0,294.0,857.0,0.0,1,-181.0,1
404,404,-0.8779608548776202,-0.9,0.0,1.0,285.0,555.0,1.0,0,140.0,1
405,405,-0.1505473461664767,-0.2,0.0,1.0,424.0,736.0,0.0,1,3840.0,0
406,406,-0.8387682335562289,-0.8,0.0,1.0,409.0,866.0,1.0,0,275.0,1
407,407,0.03140442066198035,0.0,1.0,1.0,382.0,676.0,0.0,0,3942.0,0
408,408,-0.12829003236730174,-0.1,1.0,0.0,322.0,950.0,0.0,0,408.0,1
409,409,-0.7790708974790328,-0.8,0.0,1.0,377.0,655.0,1.0,0,338.0,1
410,410,0.5808924718259675,0.6,0.0,0.0,363.0,824.0,0.0,1,133.0,1
411,411,0.2446360083478608,0.2,0.0,0.0,270.0,613.0,0.0,1,237.0,1
412,412,0.2601775844093329,0.3,0.0,0.0,381.0,817.0,0.0,1,722.0,1
413,413,-0.14436215202567793,-0.1,1.0,0.0,348.0,588.0,0.0,0,2534.0,1
414,414,-0.6939178606117101,-0.7,1.0,0.0,387.0,547.0,0.0,0,126.0,1
415,415,0.5196335915736116,0.5,0.0,0.0,330.0,520.0,0.0,1,10.0,1
416,416,0.7697825486493469,0.8,0.0,0.0,372.0,608.0,0.0,1,-90.0,1
417,417,0.6672987622306269,0.7,1.0,1.0,385.0,520.0,1.0,1,335.0,1
418,418,-0.23029292599546503,-0.2,1.0,0.0,350.0,825.0,0.0,0,435.0,1
419,419,0.8890537038369956,0.9,1.0,1.0,359.0,694.0,1.0,1,437.0,1
420,420,0.05211747176083614,0.1,1.0,1.0,251.0,698.0,1.0,1,4051.0,1
421,421,-0.4191610684954779,-0.4,0.0,1.0,251.0,506.0,1.0,0,933.0,1
422,422,-0.622631033813811,-0.6,1.0,0.0,455.0,822.0,0.0,0,-177.0,1
423,423,0.14389826003302175,0.1,0.0,0.0,433.0,873.0,0.0,1,-156.0,1
424,424,-0.2647221554576086,-0.3,0.0,1.0,476.0,919.0,1.0,0,2475.0,1
425,425,0.5096228183767774,0.5,0.0,0.0,488.0,789.0,0.0,1,-297.0,1
426,426,-0.4977203097628219,-0.5,0.0,1.0,415.0,790.0,1.0,0,325.0,1
427,427,-0.03306931142605796,-0.0,1.0,0.0,492.0,534.0,0.0,0,3874.0,1
428,428,-0.33532200922228284,-0.3,1.0,0.0,329.0,643.0,0.0,0,188.0,1
429,429,-0.712435869506855,-0.7,1.0,0.0,398.0,730.0,0.0,0,282.0,1
430,430,0.8861292411950391,0.9,1.0,1.0,345.0,569.0,1.0,1,446.0,1
431,431,0.5921321336745594,0.6,1.0,1.0,280.0,567.0,1.0,1,223.0,1
432,432,0.3728481233269568,0.4,0.0,0.0,463.0,838.0,0.0,1,339.0,1
433,433,0.8581741735456433,0.9,0.0,0.0,343.0,661.0,0.0,1,-184.0,1
434,434,0.26764471662500233,0.3,0.0,0.0,328.0,639.0,0.0,1,233.0,1
435,435,-0.348052666714214,-0.3,0.0,1.0,328.0,814.0,0.0,1,-92.0,0
436,436,0.5021622927140371,0.5,1.0,1.0,320.0,585.0,1.0,1,665.0,1
437,437,0.8057729474217422,0.8,1.0,1.0,403.0,695.0,1.0,1,232.0,1
438,438,-0.5730881361233879,-0.6,0.0,1.0,403.0,786.0,1.0,0,351.0,1
439,439,0.3841633118116091,0.4,0.0,0.0,358.0,949.0,0.0,1,143.0,1
440,440,0.3003227551538733,0.3,1.0,1.0,323.0,524.0,1.0,1,613.0,1
441,441,0.20863510079126646,0.2,0.0,0.0,309.0,638.0,0.0,1,523.0,1
442,442,-0.4635165308331023,-0.5,1.0,0.0,485.0,597.0,0.0,0,418.0,1
443,443,0.17796486924636434,0.2,1.0,1.0,261.0,514.0,1.0,1,4225.0,1
444,444,0.2324123526529328,0.2,0.0,0.0,426.0,574.0,0.0,1,330.0,1
445,445,-0.5868886649717195,-0.6,0.0,1.0,380.0,892.0,1.0,0,248.0,1
446,446,-0.015288175895048606,-0.0,1.0,0.0,316.0,679.0,0.0,0,2775.0,1
447,447,-0.1562858102185325,-0.2,0.0,1.0,321.0,882.0,0.0,1,-263.0,0
448,448,0.836671508392797,0.8,1.0,1.0,386.0,620.0,1.0,1,594.0,1
449,449,0.43309227895996794,0.4,1.0,1.0,325.0,524.0,1.0,1,221.0,1
450,450,0.47579028865124096,0.5,1.0,1.0,488.0,931.0,1.0,1,201.0,1
451,451,-0.6143793655866092,-0.6,1.0,0.0,283.0,952.0,0.0,0,405.0,1
452,452,-0.028174234251624464,-0.0,1.0,0.0,369.0,566.0,0.0,0,1415.0,1
453,453,-0.20507199135822585,-0.2,1.0,0.0,250.0,713.0,0.0,0,267.0,1
454,454,-0.26417073617277,-0.3,1.0,0.0,291.0,773.0,0.0,0,426.0,1
455,455,0.0082148530914391,0.0,0.0,0.0,305.0,656.0,0.0,1,99.0,1
456,456,-0.194959444783381,-0.2,0.0,1.0,407.0,794.0,1.0,0,2299.0,1
457,457,0.3530580589729758,0.4,1.0,1.0,418.0,947.0,1.0,1,25.0,1
458,458,-0.42240212908315145,-0.4,0.0,1.0,335.0,949.0,0.0,1,-384.0,0
459,459,-0.542359583250549,-0.5,1.0,0.0,287.0,774.0,0.0,0,179.0,1
460,460,0.5796372373090125,0.6,1.0,1.0,496.0,509.0,1.0,1,155.0,1
461,461,0.5959145541165477,0.6,0.0,0.0,306.0,624.0,0.0,1,90.0,1
462,462,-0.7595186755798676,-0.8,0.0,1.0,416.0,619.0,0.0,1,-175.0,0
463,463,-0.694600158677181,-0.7,1.0,0.0,376.0,973.0,0.0,0,171.0,1
464,464,-0.7934187478549846,-0.8,1.0,0.0,471.0,864.0,0.0,0,205.0,1
465,465,-0.20578972200717294,-0.2,0.0,1.0,322.0,506.0,1.0,0,482.0,1
466,466,-0.6590038831786429,-0.7,0.0,1.0,293.0,950.0,0.0,1,-323.0,0
467,467,0.010885089293054317,0.0,1.0,1.0,417.0,673.0,1.0,1,3910.0,1
468,468,-0.3024804168618952,-0.3,1.0,0.0,432.0,816.0,0.0,0,872.0,1
469,469,-0.225918842373236,-0.2,1.0,0.0,268.0,817.0,0.0,0,375.0,1
470,470,0.056457256387335675,0.1,1.0,1.0,434.0,517.0,1.0,1,1079.0,1
471,471,0.38613974678844964,0.4,1.0,1.0,367.0,754.0,1.0,1,699.0,1
472,472,-0.6711416729701579,-0.7,0.0,1.0,380.0,942.0,0.0,1,-232.0,0
473,473,0.7826404345905059,0.8,0.0,0.0,299.0,789.0,0.0,1,152.0,1
474,474,-0.7709707224038436,-0.8,0.0,1.0,332.0,974.0,0.0,1,-736.0,0
475,475,0.551481297762347,0.6,0.0,0.0,450.0,603.0,0.0,1,-343.0,1
476,476,0.2098442296755717,0.2,0.0,0.0,319.0,936.0,0.0,1,-195.0,1
477,477,0.2345469848276972,0.2,1.0,1.0,437.0,871.0,1.0,1,1312.0,1
478,478,-0.48353926986723145,-0.5,1.0,0.0,374.0,721.0,0.0,0,455.0,1
479,479,0.4902215489228393,0.5,1.0,1.0,422.0,512.0,1.0,1,1506.0,1
480,480,-0.6998760746960319,-0.7,1.0,0.0,303.0,865.0,0.0,0,122.0,1
481,481,0.486271440946363,0.5,1.0,1.0,459.0,785.0,1.0,1,486.0,1
482,482,0.4636111516413851,0.5,0.0,0.0,365.0,954.0,0.0,1,101.0,1
483,483,-0.010594924334195066,-0.0,0.0,1.0,441.0,859.0,0.0,1,1120.0,0
484,484,-0.22642527241257182,-0.2,0.0,1.0,290.0,586.0,0.0,1,344.0,0
485,485,0.09386830250235456,0.1,0.0,0.0,293.0,796.0,0.0,1,481.0,1
486,486,0.24281317208397624,0.2,0.0,0.0,276.0,788.0,0.0,1,206.0,1
487,487,0.515988178146043,0.5,1.0,1.0,321.0,913.0,1.0,1,626.0,1
488,488,0.44483976347297094,0.4,1.0,1.0,496.0,551.0,1.0,1,603.0,1
489,489,0.8443732264625453,0.8,0.0,0.0,272.0,893.0,0.0,1,105.0,1
490,490,0.4455940517935758,0.4,0.0,0.0,347.0,861.0,0.0,1,-408.0,1
491,491,-0.6046360301535136,-0.6,0.0,1.0,434.0,874.0,1.0,0,502.0,1
492,492,-0.7974997206822283,-0.8,1.0,0.0,451.0,690.0,0.0,0,239.0,1
493,493,0.12983722913300755,0.1,0.0,0.0,419.0,993.0,0.0,1,398.0,1
494,494,0.5769784118622919,0.6,1.0,1.0,257.0,930.0,1.0,1,653.0,1
495,495,-0.018254580390524744,-0.0,0.0,1.0,290.0,935.0,0.0,1,975.0,0
496,496,-0.2886445637519396,-0.3,0.0,1.0,373.0,508.0,1.0,0,1109.0,1
497,497,0.16060843219185428,0.2,1.0,1.0,437.0,763.0,1.0,1,3800.0,1
498,498,-0.42282470888449736,-0.4,0.0,1.0,393.0,908.0,1.0,0,339.0,1
499,499,-0.5937655074559715,-0.6,1.0,0.0,393.0,626.0,0.0,0,451.0,1
500,500,-0.502561975295015,-0.5,0.0,1.0,458.0,777.0,1.0,0,555.0,1
501,501,0.011820787326955129,0.0,1.0,1.0,402.0,925.0,0.0,0,3033.0,0
502,502,0.5095765602437204,0.5,1.0,1.0,360.0,651.0,1.0,1,699.0,1
503,503,0.3432384117638342,0.3,1.0,1.0,389.0,882.0,1.0,1,769.0,1
504,504,0.12203613222649723,0.1,1.0,1.0,441.0,933.0,1.0,1,-534.0,1
505,505,-0.12058121111729325,-0.1,0.0,1.0,453.0,989.0,0.0,1,-332.0,0
506,506,-0.5160112247727557,-0.5,0.0,1.0,259.0,566.0,1.0,0,455.0,1
507,507,-0.30937721229976833,-0.3,1.0,0.0,305.0,932.0,0.0,0,273.0,1
508,508,-0.40164110775365774,-0.4,0.0,1.0,397.0,903.0,1.0,0,530.0,1
509,509,0.7474649853785454,0.7,0.0,0.0,490.0,787.0,0.0,1,-277.0,1
510,510,0.6991312361719547,0.7,0.0,0.0,436.0,668.0,0.0,1,56.0,1
511,511,-0.15132689034132585,-0.2,0.0,1.0,397.0,781.0,0.0,1,-478.0,0
512,512,0.8304916446153586,0.8,0.0,0.0,282.0,826.0,0.0,1,2.0,1
513,513,0.4931007198412213,0.5,1.0,1.0,341.0,786.0,1.0,1,1123.0,1
514,514,0.21923617391434502,0.2,1.0,1.0,312.0,541.0,1.0,1,67.0,1
515,515,-0.2921854185157443,-0.3,1.0,0.0,444.0,640.0,0.0,0,206.0,1
516,516,-0.24791499214398904,-0.2,0.0,1.0,484.0,671.0,0.0,1,85.0,0
517,517,0.09637969754640896,0.1,1.0,1.0,279.0,669.0,1.0,1,4052.0,1
518,518,-0.2691499295907588,-0.3,1.0,0.0,486.0,796.0,0.0,0,658.0,1
519,519,-0.6489971120418128,-0.6,0.0,1.0,374.0,668.0,1.0,0,408.0,1
520,520,0.5985772879435164,0.6,0.0,0.0,390.0,516.0,0.0,1,74.0,1
521,521,0.22473703475140694,0.2,0.0,0.0,467.0,958.0,0.0,1,925.0,1
522,522,0.5708883002357049,0.6,0.0,0.0,384.0,732.0,0.0,1,604.0,1
523,523,0.0054912057289252525,0.0,1.0,1.0,251.0,894.0,0.0,0,2015.0,0
524,524,0.5940433764217187,0.6,1.0,1.0,455.0,884.0,1.0,1,201.0,1
525,525,0.2775835709129145,0.3,0.0,0.0,349.0,640.0,0.0,1,281.0,1
526,526,0.1193692675975816,0.1,0.0,0.0,340.0,516.0,0.0,1,174.0,1
527,527,0.05039108775072465,0.1,1.0,1.0,399.0,904.0,0.0,0,-463.0,0
528,528,0.27029404634692245,0.3,0.0,0.0,398.0,759.0,0.0,1,33.0,1
529,529,0.8745460821515741,0.9,0.0,0.0,402.0,819.0,0.0,1,249.0,1
530,530,0.17704627086420277,0.2,1.0,1.0,490.0,641.0,1.0,1,789.0,1
531,531,0.666505473221744,0.7,0.0,0.0,380.0,668.0,0.0,1,112.0,1
532,532,-0.7981809509534574,-0.8,1.0,0.0,485.0,707.0,0.0,0,178.0,1
533,533,-0.11559185798628924,-0.1,1.0,0.0,400.0,742.0,0.0,0,648.0,1
534,534,0.32432696958127705,0.3,0.0,0.0,343.0,893.0,0.0,1,-196.0,1
535,535,-0.5431092529231631,-0.5,0.0,1.0,305.0,653.0,1.0,0,512.0,1
536,536,-0.7841813728323135,-0.8,1.0,0.0,261.0,642.0,0.0,0,407.0,1
537,537,0.004291477260983667,0.0,0.0,0.0,316.0,615.0,0.0,1,1109.0,1
538,538,-0.7310119633060056,-0.7,1.0,0.0,477.0,698.0,0.0,0,335.0,1
539,539,0.8704256182179252,0.9,0.0,0.0,423.0,511.0,0.0,1,116.0,1
540,540,-0.01935318685743037,-0.0,0.0,1.0,498.0,558.0,1.0,0,-146.0,1
541,541,-0.6985714292920658,-0.7,1.0,0.0,394.0,821.0,0.0,0,345.0,1
542,542,0.7620814138695272,0.8,0.0,0.0,376.0,631.0,0.0,1,303.0,1
543,543,-0.20112994351004654,-0.2,0.0,1.0,486.0,619.0,1.0,0,5.0,1
544,544,-0.7579307953097609,-0.8,1.0,0.0,340.0,829.0,0.0,0,241.0,1
545,545,-0.6285902783030943,-0.6,0.0,1.0,266.0,892.0,1.0,0,272.0,1
546,546,0.3448333402379017,0.3,1.0,1.0,430.0,813.0,1.0,1,1337.0,1
547,547,0.8452032673259559,0.8,0.0,0.0,257.0,726.0,0.0,1,127.0,1
548,548,-0.07878280993717546,-0.1,1.0,0.0,286.0,791.0,0.0,0,2243.0,1
549,549,0.4650742699316809,0.5,1.0,1.0,368.0,994.0,1.0,1,558.0,1
550,550,0.44538740522297326,0.4,0.0,0.0,428.0,917.0,0.0,1,225.0,1
551,551,-0.35386970528239803,-0.4,0.0,1.0,290.0,605.0,1.0,0,655.0,1
552,552,0.7162434984150517,0.7,0.0,0.0,375.0,861.0,0.0,1,404.0,1
553,553,-0.8952109303244339,-0.9,0.0,1.0,486.0,520.0,1.0,0,294.0,1
554,554,-0.3436048524857215,-0.3,0.0,1.0,254.0,567.0,1.0,0,299.0,1
555,555,-0.366704814022653,-0.4,0.0,1.0,263.0,980.0,1.0,0,597.0,1
556,556,0.589269844112157,0.6,1.0,1.0,326.0,673.0,1.0,1,301.0,1
557,557,0.6190137506979018,0.6,0.0,0.0,463.0,611.0,0.0,1,46.0,1
558,558,0.32303137633382406,0.3,0.0,0.0,257.0,729.0,0.0,1,-376.0,1
559,559,-0.1345261311581406,-0.1,1.0,0.0,357.0,712.0,0.0,0,1531.0,1
560,560,-0.5649637113182153,-0.6,1.0,0.0,496.0,775.0,0.0,0,199.0,1
561,561,0.5973581415656818,0.6,1.0,1.0,496.0,841.0,1.0,1,373.0,1
562,562,0.4505568437863158,0.5,0.0,0.0,269.0,911.0,0.0,1,80.0,1
563,563,0.4198143174716612,0.4,0.0,0.0,283.0,956.0,0.0,1,-79.0,1
564,564,0.7018959615930994,0.7,1.0,1.0,349.0,504.0,1.0,1,377.0,1
565,565,-0.5224440448448302,-0.5,1.0,0.0,487.0,615.0,0.0,0,248.0,1
566,566,-0.2842892952920272,-0.3,0.0,1.0,450.0,508.0,1.0,0,-288.0,1
567,567,0.6701116977555518,0.7,1.0,1.0,439.0,958.0,1.0,1,703.0,1
568,568,-0.6386739027455695,-0.6,0.0,1.0,453.0,970.0,0.0,1,-413.0,0
569,569,0.4120274853436855,0.4,0.0,0.0,428.0,750.0,0.0,1,-98.0,1
570,570,-0.027277615007370026,-0.0,1.0,0.0,458.0,707.0,0.0,0,475.0,1
571,571,-0.3756355214209768,-0.4,1.0,0.0,254.0,553.0,0.0,0,513.0,1
572,572,-0.215908016086385,-0.2,0.0,1.0,445.0,598.0,1.0,0,1007.0,1
573,573,0.3176124983856222,0.3,0.0,0.0,338.0,825.0,0.0,1,-623.0,1
574,574,-0.7556917357646209,-0.8,1.0,0.0,496.0,658.0,0.0,0,296.0,1
575,575,-0.41303343523338537,-0.4,0.0,1.0,359.0,636.0,1.0,0,425.0,1
576,576,-0.2119456827949906,-0.2,1.0,0.0,394.0,961.0,0.0,0,1095.0,1
577,577,0.39967055260411166,0.4,0.0,0.0,444.0,646.0,0.0,1,330.0,1
578,578,-0.8384116135870816,-0.8,1.0,0.0,350.0,823.0,0.0,0,177.0,1
579,579,-0.8933967352402834,-0.9,0.0,1.0,340.0,617.0,1.0,0,213.0,1
580,580,-0.2956512674933527,-0.3,0.0,1.0,382.0,568.0,1.0,0,210.0,1
581,581,0.8726068005623334,0.9,0.0,0.0,359.0,686.0,1.0,0,-85.0,0
582,582,-0.4156382544852338,-0.4,1.0,0.0,419.0,597.0,0.0,0,334.0,1
583,583,-0.40708677573692337,-0.4,1.0,0.0,260.0,576.0,0.0,0,494.0,1
584,584,0.6500011991329954,0.7,1.0,1.0,491.0,650.0,1.0,1,169.0,1
585,585,-0.5058302791085865,-0.5,1.0,0.0,419.0,964.0,0.0,0,167.0,1
586,586,0.8501810604327379,0.9,1.0,1.0,326.0,683.0,1.0,1,181.0,1
587,587,-0.05169915406294001,-0.1,1.0,0.0,274.0,955.0,1.0,1,3771.0,0
588,588,0.5399955183500978,0.5,1.0,1.0,442.0,628.0,1.0,1,390.0,1
589,589,-0.3905982212643342,-0.4,1.0,0.0,278.0,928.0,0.0,0,-196.0,1
590,590,-0.4101608805512365,-0.4,0.0,1.0,459.0,696.0,1.0,0,365.0,1
591,591,-0.5104824098787375,-0.5,1.0,0.0,399.0,715.0,0.0,0,226.0,1
592,592,-0.7016543496674088,-0.7,0.0,1.0,351.0,909.0,1.0,0,80.0,1
593,593,-0.31900621109996485,-0.3,1.0,0.0,468.0,791.0,0.0,0,221.0,1
594,594,-0.3141821359691619,-0.3,0.0,1.0,382.0,740.0,1.0,0,518.0,1
595,595,0.7913459418937104,0.8,0.0,0.0,353.0,653.0,0.0,1,124.0,1
596,596,0.21061564799518606,0.2,0.0,0.0,409.0,587.0,0.0,1,364.0,1
597,597,0.48970074725806334,0.5,0.0,0.0,256.0,999.0,0.0,1,-65.0,1
598,598,-0.07268422400114516,-0.1,0.0,1.0,392.0,864.0,0.0,1,2604.0,0
599,599,0.06737337678123034,0.1,0.0,0.0,369.0,611.0,0.0,1,800.0,1
600,600,0.3865547487746873,0.4,0.0,0.0,273.0,947.0,0.0,1,-270.0,1
601,601,0.548224101454002,0.5,1.0,1.0,392.0,714.0,1.0,1,364.0,1
602,602,0.7067040370469758,0.7,0.0,0.0,286.0,718.0,0.0,1,186.0,1
603,603,0.5034405109797316,0.5,1.0,1.0,460.0,718.0,0.0,0,-178.0,0
604,604,0.114102599901717,0.1,0.0,0.0,411.0,962.0,0.0,1,197.0,1
605,605,-0.18729214365195612,-0.2,1.0,0.0,368.0,953.0,0.0,0,2109.0,1
606,606,0.5469700162948218,0.5,0.0,0.0,398.0,813.0,0.0,1,-301.0,1
607,607,0.3596711830753564,0.4,0.0,0.0,273.0,966.0,0.0,1,-259.0,1
608,608,0.7393948847597293,0.7,0.0,0.0,264.0,757.0,0.0,1,379.0,1
609,609,0.8291502789546704,0.8,1.0,1.0,415.0,704.0,1.0,1,231.0,1
610,610,0.1972210534914388,0.2,0.0,0.0,438.0,744.0,1.0,0,-382.0,0
611,611,-0.1835828911559163,-0.2,0.0,1.0,335.0,523.0,0.0,1,22.0,0
612,612,0.6800265353258103,0.7,1.0,1.0,468.0,531.0,1.0,1,231.0,1
613,613,-0.8263689548609635,-0.8,1.0,0.0,395.0,573.0,0.0,0,262.0,1
614,614,-0.6949006958056322,-0.7,1.0,0.0,333.0,907.0,0.0,0,-220.0,1
615,615,0.8086691003157002,0.8,0.0,0.0,431.0,798.0,0.0,1,71.0,1
616,616,0.5887840557919087,0.6,1.0,1.0,373.0,779.0,1.0,1,238.0,1
617,617,-0.46241093738969,-0.5,0.0,1.0,294.0,606.0,1.0,0,940.0,1
618,618,0.8834359747898591,0.9,1.0,1.0,336.0,666.0,1.0,1,208.0,1
619,619,0.4658820640526552,0.5,1.0,1.0,349.0,549.0,1.0,1,322.0,1
620,620,-0.12080069260932247,-0.1,0.0,1.0,497.0,540.0,0.0,1,2553.0,0
621,621,-0.18515474753570849,-0.2,0.0,1.0,341.0,732.0,0.0,1,-193.0,0
622,622,-0.5463344103194661,-0.5,1.0,0.0,360.0,765.0,0.0,0,305.0,1
623,623,0.3496042743317792,0.3,1.0,1.0,474.0,566.0,1.0,1,430.0,1
624,624,-0.7624106787631186,-0.8,1.0,0.0,264.0,623.0,0.0,0,353.0,1
625,625,-0.029643975415116652,-0.0,0.0,1.0,325.0,613.0,0.0,1,1982.0,0
626,626,-0.08227005718811742,-0.1,0.0,1.0,415.0,565.0,1.0,0,570.0,1
627,627,0.06507475256192219,0.1,0.0,0.0,397.0,808.0,0.0,1,575.0,1
628,628,0.40583939715934825,0.4,0.0,0.0,389.0,885.0,0.0,1,266.0,1
629,629,-0.3459585215949059,-0.3,1.0,0.0,396.0,920.0,0.0,0,1174.0,1
630,630,-0.30885251461699315,-0.3,1.0,0.0,497.0,834.0,1.0,1,-531.0,0
631,631,-0.3150817552434628,-0.3,0.0,1.0,428.0,677.0,0.0,1,-265.0,0
632,632,0.5086378438858877,0.5,1.0,1.0,317.0,888.0,0.0,0,-355.0,0
633,633,-0.014521466517362747,-0.0,1.0,0.0,474.0,835.0,0.0,0,2871.0,1
634,634,-0.6672228514807566,-0.7,1.0,0.0,320.0,786.0,0.0,0,614.0,1
635,635,0.30001400502120756,0.3,1.0,1.0,250.0,679.0,1.0,1,3331.0,1
636,636,-0.03569505542978879,-0.0,0.0,1.0,282.0,953.0,0.0,1,-5.0,0
637,637,0.3447233659006824,0.3,0.0,0.0,465.0,888.0,0.0,1,-423.0,1
638,638,0.33644352345654627,0.3,1.0,1.0,471.0,979.0,1.0,1,1170.0,1
639,639,0.4726379154337076,0.5,0.0,0.0,366.0,865.0,0.0,1,129.0,1
640,640,0.8417599801310381,0.8,1.0,1.0,465.0,979.0,1.0,1,406.0,1
641,641,-0.23850890669141467,-0.2,1.0,0.0,269.0,558.0,0.0,0,1673.0,1
642,642,-0.446378862005796,-0.4,1.0,0.0,252.0,527.0,0.0,0,281.0,1
643,643,0.6340697475886584,0.6,1.0,1.0,480.0,624.0,1.0,1,476.0,1
644,644,0.5770179446872578,0.6,1.0,1.0,434.0,646.0,1.0,1,650.0,1
645,645,-0.7515088049830269,-0.8,1.0,0.0,417.0,708.0,0.0,0,135.0,1
646,646,0.2168845322452787,0.2,0.0,0.0,276.0,601.0,0.0,1,293.0,1
647,647,0.4595636227400065,0.5,0.0,0.0,305.0,638.0,0.0,1,427.0,1
648,648,0.6198304864460781,0.6,0.0,0.0,336.0,761.0,0.0,1,113.0,1
649,649,-0.5866602159119657,-0.6,0.0,1.0,495.0,806.0,0.0,1,-481.0,0
650,650,-0.8076551864718198,-0.8,0.0,1.0,393.0,950.0,0.0,1,-193.0,0
651,651,0.8412673403028051,0.8,1.0,1.0,353.0,683.0,1.0,1,554.0,1
652,652,0.8315939232201518,0.8,1.0,1.0,471.0,953.0,1.0,1,326.0,1
653,653,0.8247975402184867,0.8,1.0,1.0,320.0,667.0,1.0,1,133.0,1
654,654,0.660179569697891,0.7,0.0,0.0,444.0,559.0,0.0,1,67.0,1
655,655,-0.06740509291039631,-0.1,0.0,1.0,326.0,981.0,0.0,1,-97.0,0
656,656,-0.16654247125093957,-0.2,0.0,1.0,358.0,579.0,1.0,0,103.0,1
657,657,0.6712069454974853,0.7,0.0,0.0,389.0,613.0,0.0,1,328.0,1
658,658,0.6692478822251321,0.7,1.0,1.0,326.0,666.0,1.0,1,118.0,1
659,659,0.7344028215647941,0.7,1.0,1.0,346.0,902.0,1.0,1,532.0,1
660,660,0.12495122538303127,0.1,1.0,1.0,446.0,798.0,1.0,1,2436.0,1
661,661,-0.3238680001824671,-0.3,0.0,1.0,315.0,796.0,1.0,0,559.0,1
662,662,0.1011180380304112,0.1,1.0,1.0,259.0,877.0,1.0,1,3864.0,1
663,663,-0.8327827071799982,-0.8,0.0,1.0,305.0,973.0,1.0,0,-428.0,1
664,664,0.24540016309281965,0.2,0.0,0.0,351.0,822.0,0.0,1,247.0,1
665,665,0.5043601843505684,0.5,1.0,1.0,330.0,997.0,1.0,1,353.0,1
666,666,-0.343482257560639,-0.3,0.0,1.0,311.0,831.0,1.0,0,428.0,1
667,667,-0.1794227848666684,-0.2,1.0,0.0,382.0,696.0,0.0,0,3922.0,1
668,668,-0.5487748020822385,-0.5,0.0,1.0,420.0,963.0,1.0,0,837.0,1
669,669,0.24051420960358294,0.2,1.0,1.0,472.0,832.0,1.0,1,1246.0,1
670,670,0.2459260642617268,0.2,0.0,0.0,355.0,979.0,0.0,1,-364.0,1
671,671,0.20235316002436454,0.2,1.0,1.0,449.0,698.0,1.0,1,713.0,1
672,672,-0.5499918229482206,-0.5,1.0,0.0,286.0,916.0,0.0,0,508.0,1
673,673,-0.7622808205689479,-0.8,0.0,1.0,375.0,871.0,0.0,1,-26.0,0
674,674,-0.3301333784637308,-0.3,0.0,1.0,360.0,808.0,1.0,0,382.0,1
675,675,0.15486500626872501,0.2,0.0,0.0,475.0,893.0,0.0,1,642.0,1
676,676,0.5647533035696121,0.6,0.0,0.0,261.0,527.0,0.0,1,262.0,1
677,677,-0.4893982504422814,-0.5,1.0,0.0,477.0,921.0,0.0,0,162.0,1
678,678,-0.24815137798628006,-0.2,0.0,1.0,449.0,815.0,0.0,1,-144.0,0
679,679,-0.07931320393744434,-0.1,1.0,0.0,465.0,818.0,1.0,1,-183.0,0
680,680,-0.02669069538604618,-0.0,1.0,0.0,312.0,554.0,0.0,0,4134.0,1
681,681,-0.03012206363403158,-0.0,1.0,0.0,484.0,634.0,0.0,0,352.0,1
682,682,0.5020223954598938,0.5,0.0,0.0,315.0,880.0,0.0,1,385.0,1
683,683,-0.6828699778162968,-0.7,1.0,0.0,447.0,658.0,0.0,0,365.0,1
684,684,-0.8089928707005024,-0.8,0.0,1.0,423.0,565.0,1.0,0,312.0,1
685,685,-0.7444186450011229,-0.7,1.0,0.0,369.0,638.0,0.0,0,203.0,1
686,686,-0.5995903257443915,-0.6,0.0,1.0,284.0,945.0,0.0,1,-309.0,0
687,687,0.8368347453576902,0.8,0.0,0.0,253.0,830.0,0.0,1,147.0,1
688,688,-0.40859475859711847,-0.4,1.0,0.0,350.0,685.0,0.0,0,235.0,1
689,689,-0.07778619425092514,-0.1,1.0,0.0,498.0,827.0,0.0,0,3305.0,1
690,690,0.4574156636391439,0.5,0.0,0.0,330.0,507.0,0.0,1,393.0,1
691,691,0.009262860020086916,0.0,0.0,0.0,328.0,873.0,0.0,1,-211.0,1
692,692,0.19915543083242315,0.2,1.0,1.0,269.0,702.0,1.0,1,2359.0,1
693,693,-0.6137427519048035,-0.6,0.0,1.0,312.0,586.0,1.0,0,322.0,1
694,694,-0.38945349141295316,-0.4,0.0,1.0,368.0,636.0,1.0,0,836.0,1
695,695,0.31572303674834246,0.3,1.0,1.0,449.0,999.0,1.0,1,1772.0,1
696,696,-0.10400394454063744,-0.1,1.0,0.0,468.0,536.0,0.0,0,606.0,1
697,697,0.05613858674908756,0.1,1.0,1.0,295.0,832.0,0.0,0,3873.0,0
698,698,0.11166578031169194,0.1,0.0,0.0,356.0,781.0,0.0,1,553.0,1
699,699,0.23408618422205485,0.2,0.0,0.0,328.0,721.0,0.0,1,171.0,1
700,700,-0.8079089245046532,-0.8,0.0,1.0,439.0,789.0,1.0,0,552.0,1
701,701,0.7529303957392602,0.8,1.0,1.0,251.0,807.0,1.0,1,202.0,1
702,702,-0.5409657180247758,-0.5,0.0,1.0,445.0,661.0,1.0,0,154.0,1
703,703,-0.7999708781424977,-0.8,0.0,1.0,444.0,953.0,0.0,1,-577.0,0
704,704,0.07634238981978003,0.1,1.0,1.0,446.0,636.0,0.0,0,3918.0,0
705,705,-0.6899219856971136,-0.7,0.0,1.0,337.0,607.0,1.0,0,506.0,1
706,706,0.028212307723345376,0.0,0.0,0.0,279.0,582.0,0.0,1,-191.0,1
707,707,0.6180143490587623,0.6,0.0,0.0,307.0,507.0,0.0,1,-44.0,1
708,708,-0.4409880040140936,-0.4,0.0,1.0,257.0,583.0,1.0,0,420.0,1
709,709,0.10329290180987372,0.1,1.0,1.0,272.0,908.0,0.0,0,3820.0,0
710,710,0.03320128767547814,0.0,0.0,0.0,330.0,693.0,0.0,1,1187.0,1
711,711,-0.22310394761565766,-0.2,0.0,1.0,284.0,672.0,1.0,0,1124.0,1
712,712,-0.10118320405627668,-0.1,0.0,1.0,401.0,577.0,1.0,0,782.0,1
713,713,0.5668541996610529,0.6,0.0,0.0,399.0,724.0,0.0,1,217.0,1
714,714,0.011677879865103935,0.0,0.0,0.0,315.0,671.0,0.0,1,-6.0,1
715,715,-0.6661090101125383,-0.7,0.0,1.0,485.0,796.0,0.0,1,-301.0,0
716,716,-0.6364214190604343,-0.6,1.0,0.0,253.0,819.0,0.0,0,378.0,1
717,717,-0.6718228886569871,-0.7,0.0,1.0,259.0,972.0,1.0,0,319.0,1
718,718,-0.06479927451187883,-0.1,0.0,1.0,413.0,529.0,1.0,0,1258.0,1
719,719,0.16679915325163275,0.2,1.0,1.0,319.0,971.0,0.0,0,3710.0,0
720,720,0.14346300525694178,0.1,0.0,0.0,280.0,847.0,0.0,1,353.0,1
721,721,0.6136794169501848,0.6,1.0,1.0,390.0,944.0,1.0,1,366.0,1
722,722,-0.3032462330723914,-0.3,1.0,0.0,413.0,805.0,0.0,0,792.0,1
723,723,-0.2712889761573726,-0.3,1.0,0.0,494.0,693.0,0.0,0,473.0,1
724,724,-0.5177590424685757,-0.5,0.0,1.0,275.0,506.0,1.0,0,299.0,1
725,725,0.8780457018405773,0.9,0.0,0.0,374.0,986.0,0.0,1,-580.0,1
726,726,-0.835927300657748,-0.8,1.0,0.0,366.0,854.0,0.0,0,200.0,1
727,727,-0.782163491561362,-0.8,0.0,1.0,255.0,715.0,1.0,0,160.0,1
728,728,-0.5203266540712105,-0.5,0.0,1.0,400.0,873.0,1.0,0,287.0,1
729,729,0.8991770895393588,0.9,0.0,0.0,415.0,840.0,0.0,1,45.0,1
730,730,-0.40463183329678815,-0.4,1.0,0.0,483.0,931.0,0.0,0,506.0,1
731,731,0.3874563461251569,0.4,0.0,0.0,312.0,962.0,0.0,1,586.0,1
732,732,0.7866271778675437,0.8,1.0,1.0,349.0,673.0,1.0,1,228.0,1
733,733,-0.7095881368406882,-0.7,0.0,1.0,424.0,939.0,1.0,0,257.0,1
734,734,0.3854634269502094,0.4,1.0,1.0,359.0,877.0,1.0,1,-396.0,1
735,735,0.31324818167885826,0.3,0.0,0.0,498.0,863.0,0.0,1,39.0,1
736,736,-0.29278046313267503,-0.3,0.0,1.0,371.0,935.0,1.0,0,1414.0,1
737,737,0.6373079013487838,0.6,0.0,0.0,456.0,838.0,0.0,1,-14.0,1
738,738,0.3351059775596966,0.3,0.0,0.0,301.0,956.0,0.0,1,523.0,1
739,739,0.2677672451754102,0.3,0.0,0.0,344.0,772.0,0.0,1,114.0,1
740,740,-0.5219984619349736,-0.5,1.0,0.0,252.0,785.0,0.0,0,33.0,1
741,741,0.8556637115217761,0.9,1.0,1.0,365.0,845.0,0.0,0,-120.0,0
742,742,-0.3345240965527395,-0.3,1.0,0.0,468.0,939.0,0.0,0,33.0,1
743,743,-0.4634500605287482,-0.5,1.0,0.0,499.0,925.0,0.0,0,406.0,1
744,744,-0.07267947952988296,-0.1,1.0,0.0,306.0,785.0,0.0,0,809.0,1
745,745,-0.5749817768456307,-0.6,0.0,1.0,457.0,866.0,1.0,0,307.0,1
746,746,-0.06319971790709678,-0.1,1.0,0.0,308.0,659.0,0.0,0,953.0,1
747,747,-0.597271600408359,-0.6,1.0,0.0,420.0,765.0,0.0,0,365.0,1
748,748,0.5753891501385283,0.6,0.0,0.0,253.0,819.0,0.0,1,418.0,1
749,749,0.7916229585926965,0.8,1.0,1.0,265.0,904.0,1.0,1,431.0,1
750,750,-0.7822915866917223,-0.8,0.0,1.0,352.0,692.0,0.0,1,-144.0,0
751,751,0.2888183040089861,0.3,1.0,1.0,266.0,975.0,1.0,1,689.0,1
752,752,-0.12887090687665592,-0.1,0.0,1.0,285.0,903.0,1.0,0,772.0,1
753,753,0.087617945353203,0.1,0.0,0.0,416.0,626.0,0.0,1,58.0,1
754,754,0.35274093206025536,0.4,1.0,1.0,472.0,888.0,1.0,1,810.0,1
755,755,0.08822616190209354,0.1,0.0,0.0,375.0,619.0,0.0,1,326.0,1
756,756,-0.08494210659873458,-0.1,0.0,1.0,274.0,603.0,0.0,1,2893.0,0
757,757,0.45520500264556085,0.5,1.0,1.0,493.0,881.0,1.0,1,826.0,1
758,758,0.8348754673326394,0.8,0.0,0.0,314.0,705.0,0.0,1,101.0,1
759,759,0.519644268134741,0.5,1.0,1.0,267.0,687.0,1.0,1,326.0,1
760,760,0.8235813465019098,0.8,0.0,0.0,484.0,838.0,0.0,1,-82.0,1
761,761,-0.27751363557769815,-0.3,0.0,1.0,354.0,795.0,0.0,1,-449.0,0
762,762,0.6325060120855955,0.6,1.0,1.0,385.0,663.0,1.0,1,462.0,1
763,763,0.6391288864786474,0.6,0.0,0.0,329.0,622.0,0.0,1,209.0,1
764,764,-0.38252311359980173,-0.4,0.0,1.0,270.0,701.0,0.0,1,-161.0,0
765,765,0.3938907727117672,0.4,0.0,0.0,352.0,631.0,0.0,1,127.0,1
766,766,-0.5581754913591985,-0.6,0.0,1.0,478.0,982.0,1.0,0,240.0,1
767,767,0.6088448074724809,0.6,1.0,1.0,475.0,944.0,1.0,1,641.0,1
768,768,0.12091048727794862,0.1,1.0,1.0,421.0,634.0,1.0,1,3115.0,1
769,769,0.07523877400344448,0.1,1.0,1.0,326.0,846.0,1.0,1,1948.0,1
770,770,-0.4485068533929781,-0.4,1.0,0.0,262.0,726.0,0.0,0,-28.0,1
771,771,-0.26405928524473254,-0.3,1.0,0.0,470.0,525.0,0.0,0,455.0,1
772,772,0.6379196441876976,0.6,1.0,1.0,315.0,621.0,1.0,1,354.0,1
773,773,0.19709005347248632,0.2,0.0,0.0,316.0,964.0,0.0,1,310.0,1
774,774,0.42009058322775006,0.4,0.0,0.0,307.0,567.0,0.0,1,226.0,1
775,775,-0.31878122634725126,-0.3,1.0,0.0,338.0,933.0,0.0,0,-301.0,1
776,776,-0.47623840724276817,-0.5,1.0,0.0,437.0,821.0,0.0,0,322.0,1
777,777,-0.7367326965094113,-0.7,1.0,0.0,443.0,540.0,0.0,0,37.0,1
778,778,-0.5394739820707911,-0.5,1.0,0.0,475.0,541.0,0.0,0,284.0,1
779,779,0.2893987933156018,0.3,0.0,0.0,319.0,935.0,0.0,1,-564.0,1
780,780,-0.05900710109759377,-0.1,0.0,1.0,394.0,719.0,0.0,1,-163.0,0
781,781,0.3991398595716181,0.4,0.0,0.0,343.0,758.0,0.0,1,269.0,1
782,782,-0.07513401886154891,-0.1,1.0,0.0,308.0,779.0,0.0,0,3913.0,1
783,783,-0.3770384111981182,-0.4,0.0,1.0,488.0,603.0,1.0,0,219.0,1
784,784,0.10052970347613466,0.1,0.0,0.0,489.0,700.0,0.0,1,-469.0,1
785,785,0.0674919634069493,0.1,1.0,1.0,344.0,940.0,1.0,1,126.0,1
786,786,-0.08336998104792426,-0.1,1.0,0.0,409.0,578.0,0.0,0,1733.0,1
787,787,0.1559971442020317,0.2,1.0,1.0,310.0,982.0,1.0,1,568.0,1
788,788,-0.5980861962387416,-0.6,1.0,0.0,250.0,842.0,0.0,0,338.0,1
789,789,-0.3642368924442758,-0.4,0.0,1.0,466.0,972.0,0.0,1,-308.0,0
790,790,-0.8100540325402023,-0.8,0.0,1.0,279.0,963.0,1.0,0,188.0,1
791,791,0.2062242267587776,0.2,0.0,0.0,257.0,600.0,0.0,1,263.0,1
792,792,0.6998233739929655,0.7,1.0,1.0,302.0,936.0,1.0,1,402.0,1
793,793,0.2902476758223501,0.3,1.0,1.0,313.0,869.0,1.0,1,1698.0,1
794,794,-0.30666988214560864,-0.3,0.0,1.0,375.0,552.0,1.0,0,353.0,1
795,795,-0.09264299242364682,-0.1,0.0,1.0,495.0,648.0,0.0,1,3857.0,0
796,796,0.8793130373247616,0.9,0.0,0.0,285.0,937.0,0.0,1,-22.0,1
797,797,-0.7088279346741065,-0.7,0.0,1.0,282.0,736.0,1.0,0,232.0,1
798,798,0.6602180274367756,0.7,1.0,1.0,270.0,515.0,1.0,1,535.0,1
799,799,0.7747291337712986,0.8,0.0,0.0,270.0,544.0,0.0,1,126.0,1
800,800,-0.06610031867227772,-0.1,0.0,1.0,285.0,507.0,0.0,1,358.0,0
801,801,0.8363240714412746,0.8,0.0,0.0,471.0,704.0,0.0,1,-75.0,1
802,802,0.15983802340929432,0.2,0.0,0.0,281.0,897.0,0.0,1,952.0,1
803,803,-0.2986631977325517,-0.3,0.0,1.0,383.0,772.0,1.0,0,2735.0,1
804,804,-0.8904957325316373,-0.9,0.0,1.0,273.0,699.0,1.0,0,538.0,1
805,805,-0.8273621668249428,-0.8,0.0,1.0,365.0,789.0,1.0,0,186.0,1
806,806,-0.565506940905551,-0.6,1.0,0.0,250.0,577.0,0.0,0,213.0,1
807,807,0.23087900921284754,0.2,0.0,0.0,269.0,871.0,0.0,1,220.0,1
808,808,-0.662393028774893,-0.7,1.0,0.0,297.0,810.0,0.0,0,33.0,1
809,809,0.4448329148784901,0.4,0.0,0.0,480.0,740.0,0.0,1,190.0,1
810,810,0.16603267880941763,0.2,1.0,1.0,376.0,778.0,1.0,1,3296.0,1
811,811,-0.4349480865672717,-0.4,1.0,0.0,336.0,731.0,0.0,0,653.0,1
812,812,-0.6723899063275255,-0.7,1.0,0.0,386.0,808.0,0.0,0,166.0,1
813,813,-0.28105891358815727,-0.3,1.0,0.0,294.0,958.0,0.0,0,1188.0,1
814,814,0.008566818706394863,0.0,1.0,1.0,325.0,959.0,0.0,0,1896.0,0
815,815,0.5388489387823782,0.5,0.0,0.0,344.0,612.0,0.0,1,174.0,1
816,816,0.11745715749426544,0.1,0.0,0.0,260.0,709.0,0.0,1,1061.0,1
817,817,0.6456258081830212,0.6,1.0,1.0,296.0,642.0,1.0,1,192.0,1
818,818,0.8093016152606235,0.8,0.0,0.0,312.0,632.0,0.0,1,196.0,1
819,819,-0.32948142041646045,-0.3,0.0,1.0,269.0,824.0,1.0,0,1117.0,1
820,820,0.8924058683118886,0.9,0.0,0.0,393.0,997.0,0.0,1,-540.0,1
821,821,-0.8250590436526106,-0.8,1.0,0.0,397.0,682.0,0.0,0,101.0,1
822,822,0.0603239450257923,0.1,0.0,0.0,288.0,836.0,0.0,1,-294.0,1
823,823,-0.3647913737167743,-0.4,1.0,0.0,379.0,980.0,0.0,0,341.0,1
824,824,-0.13830230389737086,-0.1,0.0,1.0,281.0,750.0,0.0,1,9.0,0
825,825,0.6487293093697754,0.6,0.0,0.0,327.0,590.0,0.0,1,-227.0,1
826,826,-0.11361536856927745,-0.1,1.0,0.0,421.0,623.0,0.0,0,1586.0,1
827,827,0.8306087354215904,0.8,1.0,1.0,305.0,989.0,1.0,1,126.0,1
828,828,0.24956637214118327,0.2,0.0,0.0,415.0,952.0,0.0,1,53.0,1
829,829,-0.5996738404580803,-0.6,1.0,0.0,413.0,692.0,0.0,0,405.0,1
830,830,0.1067357723027863,0.1,1.0,1.0,440.0,567.0,1.0,1,1933.0,1
831,831,0.2640192026031708,0.3,1.0,1.0,463.0,854.0,1.0,1,203.0,1
832,832,-0.7931370902586651,-0.8,1.0,0.0,361.0,782.0,0.0,0,-183.0,1
833,833,-0.1878270829105153,-0.2,0.0,1.0,392.0,917.0,0.0,1,-119.0,0
834,834,-0.5683041774422054,-0.6,1.0,0.0,468.0,853.0,0.0,0,129.0,1
835,835,-0.7399631732021892,-0.7,0.0,1.0,275.0,590.0,1.0,0,365.0,1
836,836,-0.291626408427791,-0.3,0.0,1.0,469.0,715.0,1.0,0,1136.0,1
837,837,-0.08130162418575848,-0.1,0.0,1.0,433.0,765.0,0.0,1,512.0,0
838,838,-0.14858864341888278,-0.1,1.0,0.0,345.0,904.0,1.0,1,-369.0,0
839,839,-0.6229841851896804,-0.6,1.0,0.0,384.0,920.0,0.0,0,36.0,1
840,840,0.7473204744173333,0.7,0.0,0.0,336.0,739.0,0.0,1,-375.0,1
841,841,0.22376940966714065,0.2,0.0,0.0,444.0,566.0,0.0,1,140.0,1
842,842,-0.5350816000668063,-0.5,0.0,1.0,285.0,676.0,1.0,0,339.0,1
843,843,-0.06561014594623826,-0.1,0.0,1.0,250.0,900.0,0.0,1,-230.0,0
844,844,-0.8232889104464722,-0.8,1.0,0.0,389.0,594.0,0.0,0,177.0,1
845,845,-0.3020833263026399,-0.3,0.0,1.0,361.0,819.0,0.0,1,-90.0,0
846,846,-0.8832458117059694,-0.9,1.0,0.0,278.0,591.0,0.0,0,201.0,1
847,847,0.2684610418598131,0.3,0.0,0.0,283.0,566.0,0.0,1,151.0,1
848,848,-0.292544764484718,-0.3,1.0,0.0,401.0,521.0,0.0,0,668.0,1
849,849,-0.4238284795427627,-0.4,0.0,1.0,481.0,794.0,0.0,1,115.0,0
850,850,0.7481713063622563,0.7,1.0,1.0,467.0,975.0,1.0,1,68.0,1
851,851,-0.21836189012573304,-0.2,1.0,0.0,366.0,870.0,0.0,0,594.0,1
852,852,-0.2481649391929499,-0.2,0.0,1.0,377.0,800.0,1.0,0,793.0,1
853,853,0.7468274504164415,0.7,1.0,1.0,399.0,716.0,1.0,1,1245.0,1
854,854,-0.7239992677785309,-0.7,1.0,0.0,463.0,718.0,0.0,0,259.0,1
855,855,-0.5019185186068879,-0.5,0.0,1.0,408.0,546.0,1.0,0,116.0,1
856,856,-0.5790647160148974,-0.6,0.0,1.0,277.0,923.0,1.0,0,400.0,1
857,857,-0.2604786371569676,-0.3,1.0,0.0,434.0,668.0,0.0,0,738.0,1
858,858,0.7714861853481049,0.8,1.0,1.0,399.0,808.0,1.0,1,463.0,1
859,859,-0.5291814432883726,-0.5,0.0,1.0,348.0,694.0,0.0,1,-92.0,0
860,860,-0.6048281041877016,-0.6,0.0,1.0,394.0,811.0,1.0,0,325.0,1
861,861,0.4186335979794723,0.4,1.0,1.0,347.0,704.0,1.0,1,429.0,1
862,862,-0.27788498159672503,-0.3,0.0,1.0,485.0,700.0,1.0,0,335.0,1
863,863,-0.5240282981924722,-0.5,1.0,0.0,403.0,624.0,0.0,0,-37.0,1
864,864,-0.5491696834613948,-0.5,0.0,1.0,412.0,647.0,0.0,1,-259.0,0
865,865,0.5535172077887748,0.6,1.0,1.0,262.0,515.0,1.0,1,383.0,1
866,866,0.8066618950610122,0.8,1.0,1.0,292.0,821.0,1.0,1,357.0,1
867,867,0.7187480664903813,0.7,1.0,1.0,284.0,719.0,1.0,1,517.0,1
868,868,-0.3391935453480476,-0.3,1.0,0.0,274.0,770.0,0.0,0,126.0,1
869,869,0.257610869263461,0.3,1.0,1.0,336.0,703.0,1.0,1,1411.0,1
870,870,0.01525837496218796,0.0,1.0,1.0,479.0,607.0,0.0,0,1504.0,0
871,871,0.13255504482269653,0.1,0.0,0.0,415.0,532.0,0.0,1,293.0,1
872,872,0.3809878664281693,0.4,1.0,1.0,316.0,741.0,1.0,1,483.0,1
873,873,0.8620585733549614,0.9,1.0,1.0,250.0,516.0,1.0,1,274.0,1
874,874,-0.5288538962096279,-0.5,1.0,0.0,367.0,928.0,0.0,0,245.0,1
875,875,-0.05211089174110617,-0.1,0.0,1.0,497.0,824.0,0.0,1,-451.0,0
876,876,0.5480386737012933,0.5,1.0,1.0,439.0,788.0,1.0,1,293.0,1
877,877,-0.758496356420056,-0.8,1.0,0.0,311.0,980.0,0.0,0,249.0,1
878,878,-0.4253156861598541,-0.4,1.0,0.0,362.0,637.0,0.0,0,101.0,1
879,879,0.8581471696576585,0.9,0.0,0.0,287.0,758.0,0.0,1,205.0,1
880,880,-0.37672028012999337,-0.4,0.0,1.0,260.0,936.0,1.0,0,754.0,1
881,881,-0.7641702157672967,-0.8,0.0,1.0,267.0,911.0,0.0,1,-188.0,0
882,882,0.5904184184931741,0.6,1.0,1.0,392.0,733.0,1.0,1,445.0,1
883,883,0.39507486784425716,0.4,0.0,0.0,411.0,894.0,0.0,1,125.0,1
884,884,0.3227763981466404,0.3,0.0,0.0,475.0,710.0,0.0,1,-75.0,1
885,885,0.4294722149323059,0.4,1.0,1.0,462.0,779.0,1.0,1,349.0,1
886,886,-0.6938355127389731,-0.7,0.0,1.0,450.0,770.0,0.0,1,-40.0,0
887,887,0.592540559144266,0.6,1.0,1.0,300.0,936.0,1.0,1,344.0,1
888,888,-0.38058713810548817,-0.4,0.0,1.0,490.0,742.0,1.0,0,798.0,1
889,889,0.27069533001148216,0.3,1.0,1.0,332.0,951.0,1.0,1,857.0,1
890,890,-0.14371857650567543,-0.1,1.0,0.0,361.0,749.0,0.0,0,-240.0,1
891,891,-0.10031687751733609,-0.1,1.0,0.0,347.0,795.0,0.0,0,1108.0,1
892,892,0.4605533931289628,0.5,0.0,0.0,399.0,726.0,0.0,1,125.0,1
893,893,-0.14174970780656515,-0.1,1.0,0.0,321.0,921.0,0.0,0,788.0,1
894,894,-0.22642713742478393,-0.2,1.0,0.0,261.0,648.0,0.0,0,361.0,1
895,895,-0.2204849934372043,-0.2,0.0,1.0,377.0,576.0,1.0,0,3987.0,1
896,896,-0.11572609375519738,-0.1,0.0,1.0,260.0,545.0,0.0,1,1685.0,0
897,897,-0.7729476629557073,-0.8,1.0,0.0,435.0,730.0,0.0,0,185.0,1
898,898,0.8712789640780984,0.9,1.0,1.0,386.0,589.0,1.0,1,245.0,1
899,899,0.4520669909738021,0.5,0.0,0.0,286.0,693.0,0.0,1,361.0,1
900,900,-0.487426293365316,-0.5,0.0,1.0,477.0,707.0,1.0,0,216.0,1
901,901,0.39865468161854956,0.4,0.0,0.0,371.0,884.0,0.0,1,-85.0,1
902,902,-0.793215699417886,-0.8,1.0,0.0,474.0,661.0,0.0,0,445.0,1
903,903,-0.6876099502210875,-0.7,1.0,0.0,251.0,842.0,0.0,0,577.0,1
904,904,0.4179206549433182,0.4,0.0,0.0,393.0,673.0,0.0,1,-326.0,1
905,905,0.4144734092107928,0.4,0.0,0.0,368.0,586.0,0.0,1,226.0,1
906,906,-0.24920410039611773,-0.2,0.0,1.0,368.0,859.0,1.0,0,1353.0,1
907,907,0.48996186085180315,0.5,1.0,1.0,470.0,933.0,1.0,1,337.0,1
908,908,-0.4986496293514883,-0.5,1.0,0.0,339.0,751.0,0.0,0,660.0,1
909,909,-0.3459459480533026,-0.3,1.0,0.0,353.0,611.0,0.0,0,606.0,1
910,910,0.026809457197143116,0.0,0.0,0.0,283.0,707.0,0.0,1,-90.0,1
911,911,-0.6411887635274148,-0.6,0.0,1.0,313.0,981.0,1.0,0,-494.0,1
912,912,0.7729382657336906,0.8,1.0,1.0,335.0,687.0,1.0,1,208.0,1
913,913,-0.4606347846954883,-0.5,1.0,0.0,345.0,570.0,0.0,0,115.0,1
914,914,-0.5173587758961682,-0.5,1.0,0.0,267.0,721.0,0.0,0,112.0,1
915,915,-0.5382757813256204,-0.5,1.0,0.0,357.0,612.0,0.0,0,241.0,1
916,916,0.6810262352842799,0.7,1.0,1.0,277.0,916.0,1.0,1,417.0,1
917,917,-0.7282233375427389,-0.7,1.0,0.0,374.0,947.0,0.0,0,349.0,1
918,918,-0.5854418543403929,-0.6,0.0,1.0,370.0,759.0,1.0,0,251.0,1
919,919,-0.20991261571581077,-0.2,0.0,1.0,311.0,580.0,1.0,0,259.0,1
920,920,0.11288728800784253,0.1,0.0,0.0,446.0,659.0,0.0,1,395.0,1
921,921,-0.7824099177779381,-0.8,1.0,0.0,350.0,805.0,0.0,0,275.0,1
922,922,-0.20592630523040167,-0.2,0.0,1.0,301.0,601.0,1.0,0,648.0,1
923,923,-0.7414020478839731,-0.7,0.0,1.0,413.0,773.0,0.0,1,-256.0,0
924,924,-0.3437551269189896,-0.3,0.0,1.0,370.0,808.0,0.0,1,-8.0,0
925,925,-0.7524549417669975,-0.8,1.0,0.0,385.0,516.0,0.0,0,149.0,1
926,926,0.28893412504340266,0.3,1.0,1.0,472.0,862.0,1.0,1,546.0,1
927,927,-0.5796575680749168,-0.6,1.0,0.0,316.0,626.0,0.0,0,368.0,1
928,928,-0.488936290607204,-0.5,1.0,0.0,449.0,686.0,0.0,0,285.0,1
929,929,0.5937112780547452,0.6,1.0,1.0,395.0,912.0,0.0,0,-177.0,0
930,930,0.5192747107075447,0.5,0.0,0.0,452.0,765.0,0.0,1,123.0,1
931,931,0.6611190845170453,0.7,0.0,0.0,487.0,952.0,0.0,1,301.0,1
932,932,0.41545040940148026,0.4,1.0,1.0,349.0,924.0,1.0,1,327.0,1
933,933,0.6222853754216712,0.6,1.0,1.0,442.0,773.0,1.0,1,395.0,1
934,934,0.287661899136307,0.3,1.0,1.0,282.0,950.0,1.0,1,1578.0,1
935,935,0.08648109731906517,0.1,1.0,1.0,374.0,965.0,1.0,1,3661.0,1
936,936,-0.2811687061259933,-0.3,0.0,1.0,418.0,866.0,1.0,0,366.0,1
937,937,0.2821286863817748,0.3,1.0,1.0,318.0,703.0,0.0,0,-91.0,0
938,938,0.8811950405763255,0.9,0.0,0.0,400.0,685.0,0.0,1,195.0,1
939,939,0.5525073884701722,0.6,0.0,0.0,359.0,788.0,0.0,1,343.0,1
940,940,0.2813009454195009,0.3,1.0,1.0,432.0,876.0,1.0,1,3312.0,1
941,941,0.11797598641871898,0.1,1.0,1.0,466.0,580.0,0.0,0,3954.0,0
942,942,-0.18539426558715455,-0.2,0.0,1.0,366.0,859.0,1.0,0,975.0,1
943,943,0.2322628357735229,0.2,0.0,0.0,270.0,854.0,0.0,1,-484.0,1
944,944,-0.4506270094718378,-0.5,1.0,0.0,396.0,579.0,0.0,0,365.0,1
945,945,-0.8514570698357283,-0.9,1.0,0.0,332.0,608.0,0.0,0,240.0,1
946,946,-0.6236445879671281,-0.6,0.0,1.0,273.0,673.0,0.0,1,-116.0,0
947,947,0.36579908739432343,0.4,0.0,0.0,319.0,867.0,0.0,1,174.0,1
948,948,0.4566544909185636,0.5,0.0,0.0,338.0,824.0,0.0,1,138.0,1
949,949,0.3996159284521449,0.4,0.0,0.0,341.0,849.0,0.0,1,-410.0,1
950,950,-0.6234522840314982,-0.6,0.0,1.0,485.0,811.0,1.0,0,244.0,1
951,951,-0.2797902660454993,-0.3,0.0,1.0,466.0,723.0,1.0,0,1121.0,1
952,952,-0.0666365228531135,-0.1,0.0,1.0,412.0,741.0,0.0,1,-163.0,0
953,953,-0.8411286924462792,-0.8,0.0,1.0,325.0,986.0,0.0,1,-411.0,0
954,954,0.12337094326403075,0.1,0.0,0.0,415.0,651.0,1.0,0,-426.0,0
955,955,-0.35195568884408834,-0.4,1.0,0.0,252.0,901.0,0.0,0,387.0,1
956,956,0.08859978145421188,0.1,1.0,1.0,337.0,514.0,1.0,1,1019.0,1
957,957,-0.34823456506969264,-0.3,0.0,1.0,488.0,680.0,1.0,0,312.0,1
958,958,-0.6869262432029661,-0.7,1.0,0.0,288.0,786.0,0.0,0,206.0,1
959,959,-0.5597011586878415,-0.6,0.0,1.0,289.0,621.0,1.0,0,310.0,1
960,960,0.867745955612725,0.9,0.0,0.0,383.0,712.0,0.0,1,315.0,1
961,961,-0.6950849224692557,-0.7,1.0,0.0,274.0,956.0,0.0,0,370.0,1
962,962,-0.1896247747344496,-0.2,1.0,0.0,298.0,645.0,0.0,0,687.0,1
963,963,-0.28752316943435363,-0.3,1.0,0.0,440.0,738.0,0.0,0,842.0,1
964,964,0.21297398017951175,0.2,1.0,1.0,483.0,967.0,1.0,1,2810.0,1
965,965,0.5721959185827094,0.6,1.0,1.0,255.0,545.0,1.0,1,110.0,1
966,966,-0.8474578227154581,-0.8,0.0,1.0,399.0,951.0,1.0,0,200.0,1
967,967,0.0939171636304933,0.1,1.0,1.0,311.0,506.0,1.0,1,2673.0,1
968,968,0.782957660256833,0.8,0.0,0.0,438.0,931.0,0.0,1,71.0,1
969,969,-0.569028914616235,-0.6,1.0,0.0,445.0,635.0,0.0,0,430.0,1
970,970,0.7648177442486092,0.8,0.0,0.0,334.0,811.0,0.0,1,105.0,1
971,971,-0.7414060812629324,-0.7,0.0,1.0,456.0,593.0,1.0,0,491.0,1
972,972,-0.31907960109235434,-0.3,0.0,1.0,438.0,768.0,0.0,1,4.0,0
973,973,0.3744238127522851,0.4,1.0,1.0,381.0,890.0,0.0,0,-71.0,0
974,974,-0.7174929682759219,-0.7,1.0,0.0,428.0,681.0,0.0,0,251.0,1
975,975,0.8423666525172656,0.8,1.0,1.0,455.0,969.0,1.0,1,236.0,1
976,976,0.04969963739115313,0.0,0.0,0.0,333.0,655.0,0.0,1,-38.0,1
977,977,0.6365011839337175,0.6,1.0,1.0,333.0,744.0,1.0,1,323.0,1
978,978,0.6131629697213407,0.6,1.0,1.0,410.0,622.0,1.0,1,308.0,1
979,979,0.8660293801998941,0.9,1.0,1.0,498.0,604.0,1.0,1,228.0,1
980,980,0.6680008053136782,0.7,0.0,0.0,353.0,913.0,0.0,1,364.0,1
981,981,-0.7181235219471055,-0.7,0.0,1.0,489.0,744.0,1.0,0,417.0,1
982,982,0.3780966140895886,0.4,1.0,1.0,470.0,909.0,1.0,1,1691.0,1
983,983,0.8279930247808803,0.8,0.0,0.0,467.0,553.0,0.0,1,-60.0,1
984,984,-0.7949556544201424,-0.8,1.0,0.0,399.0,673.0,0.0,0,198.0,1
985,985,-0.5074965622814045,-0.5,0.0,1.0,475.0,872.0,1.0,0,533.0,1
986,986,0.1849199497882702,0.2,0.0,0.0,398.0,650.0,0.0,1,252.0,1
987,987,0.6075250197678878,0.6,1.0,1.0,325.0,564.0,1.0,1,231.0,1
988,988,0.8264229976461505,0.8,1.0,1.0,282.0,866.0,1.0,1,192.0,1
989,989,-0.5319892496514353,-0.5,1.0,0.0,330.0,899.0,0.0,0,271.0,1
990,990,0.193308424507738,0.2,1.0,1.0,309.0,603.0,1.0,1,4088.0,1
991,991,0.48288136279875704,0.5,0.0,0.0,362.0,958.0,0.0,1,-660.0,1
992,992,0.3344680642065979,0.3,0.0,0.0,289.0,696.0,0.0,1,285.0,1
993,993,-0.6335180713276536,-0.6,1.0,0.0,441.0,986.0,0.0,0,163.0,1
994,994,0.18801524929978564,0.2,0.0,0.0,351.0,541.0,0.0,1,208.0,1
995,995,-0.5304120262378418,-0.5,0.0,1.0,440.0,606.0,1.0,0,384.0,1
996,996,-0.11700669114657714,-0.1,1.0,0.0,353.0,794.0,0.0,0,893.0,1
997,997,0.1170327729896311,0.1,1.0,1.0,326.0,650.0,1.0,1,2404.0,1
998,998,-0.20224440069498317,-0.2,0.0,1.0,367.0,929.0,1.0,0,454.0,1
999,999,0.6399719135467606,0.6,0.0,0.0,405.0,506.0,0.0,1,289.0,1
1000,1000,0.8165173948472674,0.8,0.0,0.0,482.0,534.0,0.0,1,274.0,1
1001,1001,0.3112417900659542,0.3,0.0,0.0,315.0,860.0,0.0,1,495.0,1
1002,1002,-0.03314697032071068,-0.0,1.0,0.0,255.0,559.0,0.0,0,846.0,1
1003,1003,-0.6586976402515389,-0.7,0.0,1.0,281.0,956.0,1.0,0,283.0,1
1004,1004,-0.7605781014565061,-0.8,0.0,1.0,363.0,891.0,0.0,1,-74.0,0
1005,1005,-0.8199757556110528,-0.8,1.0,0.0,433.0,616.0,0.0,0,121.0,1
1006,1006,-0.5514685122581986,-0.6,0.0,1.0,329.0,994.0,1.0,0,457.0,1
1007,1007,0.41014634681156237,0.4,1.0,1.0,342.0,652.0,1.0,1,516.0,1
1008,1008,-0.38777528732002664,-0.4,1.0,0.0,459.0,548.0,0.0,0,293.0,1
1009,1009,-0.8796023513100024,-0.9,0.0,1.0,487.0,939.0,1.0,0,184.0,1
1010,1010,-0.00893965142854991,-0.0,1.0,0.0,317.0,501.0,0.0,0,292.0,1
1011,1011,-0.8056339504245218,-0.8,1.0,0.0,412.0,759.0,0.0,0,279.0,1
1012,1012,0.15816606215422369,0.2,0.0,0.0,359.0,878.0,0.0,1,-317.0,1
1013,1013,0.3984154664517269,0.4,1.0,1.0,266.0,839.0,1.0,1,1695.0,1
1014,1014,-0.6116606830454657,-0.6,1.0,0.0,349.0,938.0,0.0,0,233.0,1
1015,1015,0.6734231219506971,0.7,0.0,0.0,447.0,722.0,0.0,1,-209.0,1
1016,1016,0.48489338092350975,0.5,0.0,0.0,374.0,643.0,0.0,1,-137.0,1
1017,1017,0.3701835894030244,0.4,0.0,0.0,364.0,708.0,0.0,1,8.0,1
1018,1018,0.5067685005569454,0.5,0.0,0.0,336.0,718.0,0.0,1,136.0,1
1019,1019,-0.2910195867201605,-0.3,1.0,0.0,423.0,812.0,0.0,0,725.0,1
1020,1020,0.5807690222487288,0.6,0.0,0.0,281.0,928.0,0.0,1,-309.0,1
1021,1021,0.06767122278405713,0.1,0.0,0.0,444.0,907.0,0.0,1,569.0,1
1022,1022,-0.8576090474739051,-0.9,0.0,1.0,343.0,758.0,0.0,1,-271.0,0
1023,1023,0.20487215766405253,0.2,0.0,0.0,416.0,533.0,0.0,1,601.0,1
1024,1024,0.7112024886844032,0.7,1.0,1.0,373.0,664.0,1.0,1,463.0,1
1025,1025,-0.35813467461815085,-0.4,0.0,1.0,420.0,532.0,1.0,0,608.0,1
1026,1026,0.6583253101054775,0.7,1.0,1.0,378.0,744.0,1.0,1,458.0,1
1027,1027,-0.31286426666858647,-0.3,1.0,0.0,468.0,826.0,0.0,0,286.0,1
1028,1028,0.1615311342278406,0.2,0.0,0.0,253.0,581.0,0.0,1,336.0,1
1029,1029,-0.579610697510736,-0.6,1.0,0.0,278.0,527.0,0.0,0,275.0,1
1030,1030,-0.36576167361115053,-0.4,0.0,1.0,399.0,919.0,0.0,1,-268.0,0
1031,1031,0.04317104366573932,0.0,1.0,1.0,470.0,634.0,1.0,1,3706.0,1
1032,1032,0.7113398182005762,0.7,1.0,1.0,465.0,563.0,1.0,1,232.0,1
1033,1033,0.6001063188377281,0.6,1.0,1.0,449.0,919.0,1.0,1,262.0,1
1034,1034,-0.016047843005944307,-0.0,0.0,1.0,272.0,571.0,0.0,1,227.0,0
1035,1035,-0.28145024169799293,-0.3,0.0,1.0,262.0,779.0,0.0,1,-41.0,0
1036,1036,-0.06423073470934404,-0.1,1.0,0.0,498.0,717.0,0.0,0,345.0,1
1037,1037,0.10739702194950584,0.1,1.0,1.0,405.0,587.0,1.0,1,1278.0,1
1038,1038,0.29231856013511803,0.3,0.0,0.0,283.0,943.0,0.0,1,-596.0,1
1039,1039,0.6651140207140546,0.7,1.0,1.0,259.0,772.0,1.0,1,449.0,1
1040,1040,0.8130248976722808,0.8,1.0,1.0,367.0,644.0,1.0,1,319.0,1
1041,1041,-0.07397118917377166,-0.1,0.0,1.0,381.0,761.0,0.0,1,498.0,0
1042,1042,0.8775746277607189,0.9,1.0,1.0,388.0,558.0,1.0,1,234.0,1
1043,1043,-0.5570298935043081,-0.6,0.0,1.0,338.0,755.0,1.0,0,337.0,1
1044,1044,-0.10550473155286144,-0.1,1.0,0.0,416.0,966.0,0.0,0,988.0,1
1045,1045,0.7205559561600855,0.7,0.0,0.0,448.0,690.0,0.0,1,62.0,1
1046,1046,0.6522199334926985,0.7,1.0,1.0,384.0,626.0,1.0,1,540.0,1
1047,1047,0.6035457062139177,0.6,1.0,1.0,299.0,998.0,1.0,1,503.0,1
1048,1048,-0.8997193689807548,-0.9,1.0,0.0,261.0,715.0,0.0,0,214.0,1
1049,1049,0.8692834167990492,0.9,1.0,1.0,393.0,777.0,1.0,1,150.0,1
1050,1050,0.8040594874797217,0.8,1.0,1.0,259.0,532.0,1.0,1,119.0,1
1051,1051,-0.21382095540712487,-0.2,1.0,0.0,288.0,956.0,0.0,0,1156.0,1
1052,1052,0.02382027789103114,0.0,1.0,1.0,421.0,838.0,0.0,0,551.0,0
1053,1053,-0.09979515459457489,-0.1,0.0,1.0,306.0,909.0,1.0,0,1475.0,1
1054,1054,0.5016195664076931,0.5,0.0,0.0,429.0,544.0,0.0,1,197.0,1
1055,1055,-0.12135937047712042,-0.1,1.0,0.0,367.0,912.0,0.0,0,2021.0,1
1056,1056,-0.12536080634804947,-0.1,1.0,0.0,393.0,975.0,0.0,0,502.0,1
1057,1057,0.043612471238642425,0.0,1.0,1.0,370.0,768.0,0.0,0,1362.0,0
1058,1058,-0.33155585552302447,-0.3,1.0,0.0,411.0,832.0,0.0,0,377.0,1
1059,1059,0.43760719700998874,0.4,0.0,0.0,393.0,808.0,0.0,1,269.0,1
1060,1060,-0.0488663066554722,-0.0,0.0,1.0,364.0,965.0,0.0,1,311.0,0
1061,1061,-0.2978013142261172,-0.3,1.0,0.0,480.0,921.0,0.0,0,149.0,1
1062,1062,-0.299495788812967,-0.3,1.0,0.0,435.0,971.0,0.0,0,574.0,1
1063,1063,0.5657784802556273,0.6,0.0,0.0,269.0,988.0,1.0,0,-37.0,0
1064,1064,0.5292992852340229,0.5,0.0,0.0,469.0,895.0,0.0,1,96.0,1
1065,1065,0.8596390534971846,0.9,1.0,1.0,301.0,613.0,1.0,1,636.0,1
1066,1066,-0.862936938253133,-0.9,0.0,1.0,486.0,661.0,1.0,0,183.0,1
1067,1067,-0.8711131877285072,-0.9,1.0,0.0,264.0,694.0,0.0,0,352.0,1
1068,1068,0.37901272755007687,0.4,1.0,1.0,439.0,739.0,1.0,1,-168.0,1
1069,1069,-0.5343951243243059,-0.5,0.0,1.0,421.0,528.0,0.0,1,-209.0,0
1070,1070,0.22728739124266462,0.2,0.0,0.0,423.0,686.0,0.0,1,11.0,1
1071,1071,-0.16895316466396304,-0.2,0.0,1.0,484.0,592.0,1.0,0,1564.0,1
1072,1072,-0.5747731989157481,-0.6,0.0,1.0,250.0,818.0,1.0,0,22.0,1
1073,1073,-0.42516512441182425,-0.4,1.0,0.0,282.0,661.0,0.0,0,397.0,1
1074,1074,-0.2844646609396331,-0.3,1.0,0.0,449.0,863.0,0.0,0,578.0,1
1075,1075,0.21278267258692696,0.2,1.0,1.0,353.0,931.0,1.0,1,2656.0,1
1076,1076,0.5240044288276765,0.5,1.0,1.0,441.0,798.0,1.0,1,341.0,1
1077,1077,-0.8750523592372974,-0.9,1.0,0.0,354.0,660.0,0.0,0,206.0,1
1078,1078,-0.13355782675313277,-0.1,0.0,1.0,302.0,910.0,0.0,1,3788.0,0
1079,1079,0.5944107785618463,0.6,1.0,1.0,276.0,796.0,1.0,1,398.0,1
1080,1080,-0.8388001917682358,-0.8,0.0,1.0,496.0,568.0,1.0,0,146.0,1
1081,1081,-0.5698445168658302,-0.6,0.0,1.0,300.0,705.0,0.0,1,-425.0,0
1082,1082,0.28021560584159955,0.3,1.0,1.0,313.0,869.0,1.0,1,438.0,1
1083,1083,-0.0392672613902223,-0.0,1.0,0.0,379.0,818.0,0.0,0,603.0,1
1084,1084,0.007769258594736206,0.0,0.0,0.0,401.0,590.0,0.0,1,779.0,1
1085,1085,-0.5473268183164229,-0.5,0.0,1.0,355.0,903.0,1.0,0,982.0,1
1086,1086,0.6178238115709452,0.6,0.0,0.0,299.0,869.0,0.0,1,-48.0,1
1087,1087,-0.12468629287055766,-0.1,0.0,1.0,387.0,672.0,0.0,1,3941.0,0
1088,1088,-0.3680375038296968,-0.4,0.0,1.0,413.0,637.0,1.0,0,880.0,1
1089,1089,-0.03686250037487937,-0.0,0.0,1.0,406.0,591.0,0.0,1,913.0,0
1090,1090,0.2522007049528471,0.3,0.0,0.0,493.0,969.0,0.0,1,-602.0,1
1091,1091,-0.16196805433792805,-0.2,1.0,0.0,432.0,528.0,0.0,0,180.0,1
1092,1092,-0.23365302557497547,-0.2,0.0,1.0,295.0,967.0,0.0,1,-432.0,0
1093,1093,0.8501246506008723,0.9,0.0,0.0,427.0,924.0,0.0,1,109.0,1
1094,1094,-0.1752105351611397,-0.2,1.0,0.0,297.0,769.0,0.0,0,364.0,1
1095,1095,0.48119282995322965,0.5,1.0,1.0,279.0,984.0,1.0,1,1927.0,1
1096,1096,0.8207375593843623,0.8,1.0,1.0,398.0,512.0,1.0,1,320.0,1
1097,1097,0.2993851188508386,0.3,0.0,0.0,334.0,533.0,0.0,1,143.0,1
1098,1098,-0.473211135815567,-0.5,0.0,1.0,404.0,756.0,0.0,1,30.0,0
1099,1099,-0.11390537890632735,-0.1,0.0,1.0,482.0,879.0,1.0,0,1699.0,1
1100,1100,0.7713693178391484,0.8,1.0,1.0,465.0,754.0,1.0,1,241.0,1
1101,1101,-0.5610377632268639,-0.6,0.0,1.0,491.0,539.0,1.0,0,680.0,1
1102,1102,-0.4157998574403095,-0.4,0.0,1.0,443.0,663.0,1.0,0,484.0,1
1103,1103,0.5283154312607238,0.5,1.0,1.0,403.0,796.0,1.0,1,361.0,1
1104,1104,0.7910192792617313,0.8,1.0,1.0,290.0,690.0,1.0,1,90.0,1
1105,1105,-0.8768470454034021,-0.9,0.0,1.0,319.0,822.0,1.0,0,189.0,1
1106,1106,-0.20929339169121464,-0.2,0.0,1.0,492.0,705.0,0.0,1,-87.0,0
1107,1107,0.17484316042377313,0.2,1.0,1.0,265.0,688.0,0.0,0,4047.0,0
1108,1108,-0.061875970012559955,-0.1,1.0,0.0,305.0,597.0,0.0,0,4098.0,1
1109,1109,-0.8547235272209123,-0.9,0.0,1.0,467.0,721.0,0.0,1,-58.0,0
1110,1110,0.32553674027717683,0.3,1.0,1.0,334.0,798.0,1.0,1,1228.0,1
1111,1111,-0.7267185389392693,-0.7,1.0,0.0,368.0,758.0,0.0,0,234.0,1
1112,1112,-0.6729903837285038,-0.7,0.0,1.0,357.0,644.0,1.0,0,239.0,1
1113,1113,-0.8471682411563994,-0.8,1.0,0.0,468.0,984.0,0.0,0,128.0,1
1114,1114,-0.4700747909576462,-0.5,1.0,0.0,298.0,567.0,0.0,0,375.0,1
1115,1115,-0.6479142048996834,-0.6,0.0,1.0,497.0,734.0,1.0,0,209.0,1
1116,1116,0.2274803348169917,0.2,0.0,0.0,258.0,648.0,0.0,1,14.0,1
1117,1117,0.0940853751590397,0.1,0.0,0.0,492.0,712.0,0.0,1,316.0,1
1118,1118,-0.41962807426108856,-0.4,1.0,0.0,461.0,805.0,0.0,0,384.0,1
1119,1119,0.0563050686722808,0.1,1.0,1.0,280.0,592.0,0.0,0,218.0,0
1120,1120,0.14043094595719186,0.1,0.0,0.0,485.0,980.0,0.0,1,1035.0,1
1121,1121,-0.5763252604137644,-0.6,0.0,1.0,312.0,507.0,1.0,0,351.0,1
1122,1122,-0.11546934561218614,-0.1,1.0,0.0,329.0,547.0,0.0,0,1604.0,1
1123,1123,0.09555576003665833,0.1,0.0,0.0,277.0,836.0,0.0,1,-473.0,1
1124,1124,-0.12217948810181978,-0.1,0.0,1.0,350.0,820.0,0.0,1,-140.0,0
1125,1125,0.5475453183272946,0.5,1.0,1.0,265.0,615.0,1.0,1,10.0,1
1126,1126,0.8775799387799189,0.9,0.0,0.0,255.0,910.0,0.0,1,225.0,1
1127,1127,0.28022055069048657,0.3,0.0,0.0,259.0,535.0,0.0,1,756.0,1
1128,1128,0.025407761686909724,0.0,1.0,1.0,428.0,829.0,0.0,0,2993.0,0
1129,1129,0.19895070827810668,0.2,0.0,0.0,470.0,905.0,0.0,1,335.0,1
1130,1130,-0.869126848622772,-0.9,0.0,1.0,351.0,969.0,0.0,1,-450.0,0
1131,1131,0.2869420708872744,0.3,1.0,1.0,313.0,953.0,1.0,1,804.0,1
1132,1132,0.5789331563302867,0.6,1.0,1.0,296.0,515.0,1.0,1,1019.0,1
1133,1133,0.550582985567967,0.6,0.0,0.0,403.0,890.0,0.0,1,27.0,1
1134,1134,-0.1873803522092593,-0.2,0.0,1.0,428.0,755.0,1.0,0,857.0,1
1135,1135,0.7409838310059161,0.7,0.0,0.0,296.0,752.0,1.0,0,-478.0,0
1136,1136,0.7348709154001573,0.7,1.0,1.0,430.0,509.0,1.0,1,381.0,1
1137,1137,0.17640569313400423,0.2,0.0,0.0,359.0,558.0,0.0,1,493.0,1
1138,1138,-0.5897818834839041,-0.6,0.0,1.0,409.0,565.0,1.0,0,206.0,1
1139,1139,-0.15097455256304892,-0.2,1.0,0.0,350.0,694.0,0.0,0,616.0,1
1140,1140,0.39405046413705713,0.4,0.0,0.0,270.0,959.0,0.0,1,91.0,1
1141,1141,-0.17758778748412962,-0.2,0.0,1.0,462.0,685.0,0.0,1,3853.0,0
1142,1142,-0.14799943520009273,-0.1,1.0,0.0,303.0,622.0,0.0,0,505.0,1
1143,1143,-0.8583727644867771,-0.9,1.0,0.0,282.0,996.0,0.0,0,182.0,1
1144,1144,-0.4500821719582088,-0.5,0.0,1.0,332.0,512.0,1.0,0,196.0,1
1145,1145,0.7569002313101089,0.8,1.0,1.0,494.0,684.0,1.0,1,362.0,1
1146,1146,-0.6123582982880682,-0.6,1.0,0.0,386.0,789.0,0.0,0,335.0,1
1147,1147,0.01281340840057621,0.0,1.0,1.0,402.0,825.0,0.0,0,-157.0,0
1148,1148,-0.07188359614341189,-0.1,1.0,0.0,325.0,929.0,0.0,0,196.0,1
1149,1149,-0.2584553684308599,-0.3,0.0,1.0,370.0,556.0,1.0,0,434.0,1
1150,1150,-0.37220065466151075,-0.4,0.0,1.0,459.0,811.0,1.0,0,410.0,1
1151,1151,0.5903900909370442,0.6,0.0,0.0,251.0,882.0,0.0,1,-273.0,1
1152,1152,-0.7772766315425969,-0.8,1.0,0.0,351.0,862.0,0.0,0,137.0,1
1153,1153,0.491554809600948,0.5,0.0,0.0,399.0,633.0,0.0,1,208.0,1
1154,1154,-0.12750161019387518,-0.1,1.0,0.0,285.0,889.0,0.0,0,1826.0,1
1155,1155,0.013910990907590404,0.0,0.0,0.0,347.0,531.0,0.0,1,242.0,1
1156,1156,0.22371133834157575,0.2,0.0,0.0,488.0,894.0,0.0,1,108.0,1
1157,1157,0.5921279681630712,0.6,0.0,0.0,379.0,993.0,0.0,1,-662.0,1
1158,1158,0.589393833165805,0.6,1.0,1.0,307.0,571.0,1.0,1,502.0,1
1159,1159,0.8410537373632551,0.8,0.0,0.0,471.0,947.0,0.0,1,162.0,1
1160,1160,0.6719413369426167,0.7,0.0,0.0,428.0,939.0,0.0,1,-117.0,1
1161,1161,-0.6527665616425279,-0.7,0.0,1.0,385.0,861.0,1.0,0,384.0,1
1162,1162,-0.020990404995418266,-0.0,0.0,1.0,465.0,532.0,0.0,1,973.0,0
1163,1163,0.12406793233561608,0.1,1.0,1.0,254.0,719.0,1.0,1,4027.0,1
1164,1164,0.5168495308114355,0.5,1.0,1.0,465.0,800.0,0.0,0,-135.0,0
1165,1165,0.2372946107750863,0.2,0.0,0.0,361.0,829.0,0.0,1,70.0,1
1166,1166,-0.6076776196546964,-0.6,0.0,1.0,415.0,502.0,1.0,0,123.0,1
1167,1167,0.34196113653140225,0.3,0.0,0.0,290.0,532.0,0.0,1,438.0,1
1168,1168,-0.8687044169220859,-0.9,0.0,1.0,275.0,693.0,1.0,0,162.0,1
1169,1169,0.6702747798529546,0.7,0.0,0.0,486.0,551.0,0.0,1,233.0,1
1170,1170,0.2974964564497239,0.3,1.0,1.0,270.0,871.0,1.0,1,1929.0,1
1171,1171,0.6357530764538145,0.6,1.0,1.0,302.0,855.0,1.0,1,783.0,1
1172,1172,-0.8480848175548362,-0.8,1.0,0.0,399.0,856.0,0.0,0,245.0,1
1173,1173,-0.12673076011130235,-0.1,0.0,1.0,384.0,703.0,1.0,0,1833.0,1
1174,1174,0.7064410514780713,0.7,0.0,0.0,278.0,661.0,0.0,1,-119.0,1
1175,1175,0.8655616752465319,0.9,1.0,1.0,478.0,894.0,1.0,1,428.0,1
1176,1176,-0.04678129340288706,-0.0,1.0,0.0,338.0,873.0,0.0,0,3009.0,1
1177,1177,0.790213707637108,0.8,1.0,1.0,337.0,831.0,1.0,1,742.0,1
1178,1178,-0.23927503074829415,-0.2,1.0,0.0,347.0,955.0,0.0,0,408.0,1
1179,1179,-0.6692886619394086,-0.7,1.0,0.0,428.0,736.0,0.0,0,406.0,1
1180,1180,0.8413870237730418,0.8,0.0,0.0,288.0,580.0,0.0,1,222.0,1
1181,1181,-0.5015883389753384,-0.5,0.0,1.0,269.0,706.0,1.0,0,595.0,1
1182,1182,0.4582699673698182,0.5,0.0,0.0,299.0,561.0,1.0,0,-230.0,0
1183,1183,0.5536026808172297,0.6,0.0,0.0,431.0,596.0,0.0,1,63.0,1
1184,1184,0.497200287221533,0.5,1.0,1.0,253.0,761.0,1.0,1,216.0,1
1185,1185,-0.8512822771895233,-0.9,1.0,0.0,273.0,749.0,0.0,0,148.0,1
1186,1186,0.5734222467162805,0.6,0.0,0.0,480.0,782.0,0.0,1,188.0,1
1187,1187,-0.171071174062279,-0.2,0.0,1.0,383.0,669.0,1.0,0,1188.0,1
1188,1188,0.811134128369473,0.8,1.0,1.0,352.0,815.0,1.0,1,263.0,1
1189,1189,0.18776322758071984,0.2,1.0,1.0,419.0,784.0,1.0,1,2077.0,1
1190,1190,-0.5264209325475244,-0.5,0.0,1.0,447.0,886.0,1.0,0,427.0,1
1191,1191,0.2173429776935677,0.2,1.0,1.0,287.0,539.0,1.0,1,-206.0,1
1192,1192,0.0601799600746733,0.1,1.0,1.0,339.0,901.0,0.0,0,3760.0,0
1193,1193,0.2599900451927962,0.3,1.0,1.0,278.0,819.0,1.0,1,1083.0,1
1194,1194,-0.4092063233792585,-0.4,0.0,1.0,485.0,820.0,1.0,0,1185.0,1
1195,1195,0.4124290147364372,0.4,1.0,1.0,485.0,638.0,1.0,1,1887.0,1
1196,1196,0.805473375423697,0.8,0.0,0.0,268.0,893.0,0.0,1,79.0,1
1197,1197,0.8767313443489434,0.9,1.0,1.0,267.0,831.0,1.0,1,322.0,1
1198,1198,-0.7917152671151938,-0.8,0.0,1.0,445.0,982.0,0.0,1,-647.0,0
1199,1199,-0.7899728010694186,-0.8,1.0,0.0,272.0,587.0,0.0,0,191.0,1
1200,1200,-0.30464044491487674,-0.3,1.0,0.0,479.0,501.0,0.0,0,410.0,1
1201,1201,-0.7605471370586967,-0.8,0.0,1.0,427.0,658.0,0.0,1,-25.0,0
1202,1202,-0.11388107320714924,-0.1,0.0,1.0,469.0,880.0,0.0,1,1001.0,0
1203,1203,-0.6109631722271205,-0.6,0.0,1.0,318.0,918.0,0.0,1,-206.0,0
1204,1204,0.012427784082346904,0.0,1.0,1.0,443.0,562.0,0.0,0,3995.0,0
1205,1205,0.7533765422893618,0.8,0.0,0.0,455.0,651.0,0.0,1,134.0,1
1206,1206,0.43732693815212176,0.4,1.0,1.0,461.0,907.0,1.0,1,362.0,1
1207,1207,0.7489847346724269,0.7,1.0,1.0,351.0,833.0,1.0,1,266.0,1
1208,1208,0.24239535497847065,0.2,1.0,1.0,338.0,635.0,1.0,1,1447.0,1
1209,1209,0.3861175379909799,0.4,1.0,1.0,484.0,621.0,1.0,1,835.0,1
1210,1210,0.49159645148097175,0.5,1.0,1.0,340.0,684.0,1.0,1,146.0,1
1211,1211,-0.7829666519127557,-0.8,1.0,0.0,389.0,755.0,0.0,0,76.0,1
1212,1212,0.07895938014976611,0.1,1.0,1.0,467.0,798.0,1.0,1,1785.0,1
1213,1213,-0.1307456067389139,-0.1,0.0,1.0,442.0,838.0,1.0,0,2200.0,1
1214,1214,-0.3192490707775364,-0.3,1.0,0.0,475.0,871.0,0.0,0,374.0,1
1215,1215,0.7359279321085032,0.7,1.0,1.0,356.0,962.0,1.0,1,492.0,1
1216,1216,-0.2014489876807689,-0.2,1.0,0.0,493.0,886.0,0.0,0,421.0,1
1217,1217,-0.5313635643784712,-0.5,0.0,1.0,428.0,967.0,1.0,0,265.0,1
1218,1218,-0.33744500588194937,-0.3,0.0,1.0,436.0,662.0,1.0,0,912.0,1
1219,1219,-0.7429098178633565,-0.7,0.0,1.0,437.0,675.0,0.0,1,-362.0,0
1220,1220,0.7821173236561964,0.8,1.0,1.0,260.0,695.0,1.0,1,235.0,1
1221,1221,0.3788245503158193,0.4,1.0,1.0,451.0,557.0,1.0,1,1102.0,1
1222,1222,0.1942578585031055,0.2,0.0,0.0,326.0,916.0,0.0,1,-272.0,1
1223,1223,-0.7874064520618036,-0.8,0.0,1.0,366.0,587.0,0.0,1,-173.0,0
1224,1224,0.41062160799163017,0.4,1.0,1.0,273.0,650.0,1.0,1,267.0,1
1225,1225,-0.36564046113885496,-0.4,1.0,0.0,382.0,989.0,0.0,0,239.0,1
1226,1226,0.8573244015709026,0.9,0.0,0.0,397.0,571.0,0.0,1,152.0,1
1227,1227,-0.3137698308245208,-0.3,1.0,0.0,352.0,668.0,0.0,0,340.0,1
1228,1228,-0.5776439983564442,-0.6,0.0,1.0,337.0,587.0,1.0,0,426.0,1
1229,1229,0.8021973522334674,0.8,0.0,0.0,258.0,745.0,0.0,1,327.0,1
1230,1230,0.10745075045197716,0.1,0.0,0.0,338.0,937.0,0.0,1,535.0,1
1231,1231,0.2693791966019442,0.3,0.0,0.0,385.0,566.0,0.0,1,219.0,1
1232,1232,-0.3648442633802004,-0.4,1.0,0.0,444.0,822.0,0.0,0,224.0,1
1233,1233,-0.3133418714228263,-0.3,1.0,0.0,380.0,655.0,0.0,0,815.0,1
1234,1234,-0.8904955814820884,-0.9,1.0,0.0,348.0,525.0,0.0,0,127.0,1
1235,1235,0.5679078127065903,0.6,0.0,0.0,281.0,897.0,0.0,1,292.0,1
1236,1236,-0.6540724872999644,-0.7,0.0,1.0,295.0,559.0,1.0,0,416.0,1
1237,1237,-0.5900301533116891,-0.6,1.0,0.0,489.0,671.0,0.0,0,290.0,1
1238,1238,0.27527921638288755,0.3,0.0,0.0,410.0,821.0,0.0,1,359.0,1
1239,1239,-0.38140937712151646,-0.4,1.0,0.0,426.0,897.0,0.0,0,357.0,1
1240,1240,0.7783305295095754,0.8,1.0,1.0,259.0,504.0,1.0,1,117.0,1
1241,1241,-0.8379416235895292,-0.8,0.0,1.0,357.0,940.0,1.0,0,373.0,1
1242,1242,-0.7796849694800732,-0.8,0.0,1.0,458.0,574.0,1.0,0,198.0,1
1243,1243,-0.5074348239938783,-0.5,0.0,1.0,409.0,555.0,0.0,1,-114.0,0
1244,1244,0.4018401740244536,0.4,0.0,0.0,387.0,826.0,0.0,1,257.0,1
1245,1245,-0.36303535506715645,-0.4,0.0,1.0,469.0,706.0,1.0,0,925.0,1
1246,1246,-0.09443430997074886,-0.1,1.0,0.0,412.0,863.0,0.0,0,425.0,1
1247,1247,-0.8726956138661262,-0.9,0.0,1.0,408.0,981.0,1.0,0,171.0,1
1248,1248,-0.113453359920622,-0.1,1.0,0.0,390.0,610.0,0.0,0,4000.0,1
1249,1249,-0.7538454704863632,-0.8,0.0,1.0,316.0,569.0,1.0,0,155.0,1
1250,1250,0.8512874883383802,0.9,0.0,0.0,463.0,563.0,0.0,1,264.0,1
1251,1251,-0.5417039585288479,-0.5,0.0,1.0,395.0,651.0,1.0,0,394.0,1
1252,1252,-0.13863182527084583,-0.1,1.0,0.0,427.0,892.0,0.0,0,121.0,1
1253,1253,-0.29057083547461504,-0.3,0.0,1.0,335.0,598.0,1.0,0,317.0,1
1254,1254,-0.16907456489640615,-0.2,0.0,1.0,326.0,628.0,1.0,0,1846.0,1
1255,1255,0.046130585808768165,0.0,1.0,1.0,490.0,537.0,1.0,1,3973.0,1
1256,1256,-0.7668601452771748,-0.8,1.0,0.0,465.0,763.0,0.0,0,152.0,1
1257,1257,-0.7410802988436859,-0.7,1.0,0.0,278.0,687.0,0.0,0,205.0,1
1258,1258,-0.7919800826532978,-0.8,1.0,0.0,493.0,769.0,0.0,0,328.0,1
1259,1259,0.34356692578021597,0.3,1.0,1.0,394.0,877.0,1.0,1,989.0,1
1260,1260,0.0916763956354193,0.1,1.0,1.0,254.0,684.0,0.0,0,72.0,0
1261,1261,0.8577076361249779,0.9,1.0,1.0,428.0,776.0,1.0,1,146.0,1
1262,1262,-0.4108923137262178,-0.4,0.0,1.0,288.0,758.0,1.0,0,944.0,1
1263,1263,0.021601562377299155,0.0,1.0,1.0,448.0,873.0,0.0,0,3679.0,0
1264,1264,-0.6846747275999043,-0.7,1.0,0.0,254.0,562.0,0.0,0,244.0,1
1265,1265,-0.2768958522063679,-0.3,1.0,0.0,338.0,830.0,0.0,0,572.0,1
1266,1266,0.7700581966164753,0.8,0.0,0.0,387.0,786.0,0.0,1,87.0,1
1267,1267,0.4516411588942296,0.5,0.0,0.0,329.0,924.0,0.0,1,207.0,1
1268,1268,-0.43840515719006556,-0.4,0.0,1.0,444.0,818.0,1.0,0,428.0,1
1269,1269,-0.3370773995929096,-0.3,1.0,0.0,442.0,749.0,0.0,0,329.0,1
1270,1270,-0.6861617626738357,-0.7,0.0,1.0,464.0,916.0,1.0,0,540.0,1
1271,1271,-0.8958279315159496,-0.9,1.0,0.0,309.0,574.0,0.0,0,197.0,1
1272,1272,-0.31131120470200824,-0.3,0.0,1.0,451.0,888.0,1.0,0,391.0,1
1273,1273,-0.006505823184948856,-0.0,0.0,1.0,271.0,689.0,0.0,1,4040.0,0
1274,1274,0.5692372276939884,0.6,1.0,1.0,445.0,799.0,1.0,1,576.0,1
1275,1275,-0.3668254935337417,-0.4,1.0,0.0,339.0,657.0,0.0,0,514.0,1
1276,1276,-0.7960145612196238,-0.8,0.0,1.0,254.0,625.0,1.0,0,131.0,1
1277,1277,-0.5009520148602005,-0.5,0.0,1.0,300.0,796.0,0.0,1,-16.0,0
1278,1278,0.33401698269954905,0.3,0.0,0.0,467.0,715.0,0.0,1,398.0,1
1279,1279,0.25334046109292296,0.3,0.0,0.0,340.0,741.0,0.0,1,389.0,1
1280,1280,-0.8717611030790849,-0.9,1.0,0.0,373.0,828.0,1.0,1,-51.0,0
1281,1281,-0.10078557817492073,-0.1,1.0,0.0,403.0,554.0,0.0,0,493.0,1
1282,1282,-0.6746494620668081,-0.7,1.0,0.0,317.0,618.0,0.0,0,185.0,1
1283,1283,0.10782641629916612,0.1,0.0,0.0,339.0,517.0,0.0,1,844.0,1
1284,1284,0.5105321666676671,0.5,0.0,0.0,348.0,936.0,0.0,1,-564.0,1
1285,1285,0.5953140229999426,0.6,1.0,1.0,326.0,569.0,1.0,1,335.0,1
1286,1286,0.44282813725842207,0.4,1.0,1.0,339.0,635.0,1.0,1,366.0,1
1287,1287,0.7146817953026995,0.7,1.0,1.0,360.0,567.0,1.0,1,483.0,1
1288,1288,-0.8739107052302534,-0.9,1.0,0.0,367.0,637.0,0.0,0,256.0,1
1289,1289,-0.2442324342643991,-0.2,0.0,1.0,267.0,586.0,0.0,1,247.0,0
1290,1290,0.1198720449093037,0.1,0.0,0.0,331.0,980.0,0.0,1,1589.0,1
1291,1291,-0.13640827844724945,-0.1,0.0,1.0,451.0,681.0,1.0,0,1538.0,1
1292,1292,0.6962861336902496,0.7,1.0,1.0,401.0,721.0,1.0,1,348.0,1
1293,1293,-0.06730391250582013,-0.1,1.0,0.0,375.0,933.0,0.0,0,1902.0,1
1294,1294,0.09827948337019243,0.1,1.0,1.0,413.0,518.0,1.0,1,949.0,1
1295,1295,-0.3479719260973613,-0.3,0.0,1.0,251.0,927.0,0.0,1,-378.0,0
1296,1296,0.458640646626726,0.5,1.0,1.0,314.0,810.0,1.0,1,926.0,1
1297,1297,0.26146565925340715,0.3,1.0,1.0,430.0,882.0,0.0,0,-102.0,0
1298,1298,0.13710557067895246,0.1,1.0,1.0,375.0,829.0,1.0,1,3796.0,1
1299,1299,0.1395716567437354,0.1,0.0,0.0,304.0,716.0,0.0,1,630.0,1
1300,1300,0.6591420243649496,0.7,1.0,1.0,445.0,947.0,1.0,1,218.0,1
1301,1301,-0.6721830996130941,-0.7,0.0,1.0,469.0,837.0,0.0,1,-76.0,0
1302,1302,-0.7953754803139704,-0.8,0.0,1.0,416.0,561.0,1.0,0,373.0,1
1303,1303,-0.7465250727492434,-0.7,0.0,1.0,435.0,772.0,0.0,1,33.0,0
1304,1304,-0.6795833448736377,-0.7,1.0,0.0,310.0,607.0,0.0,0,473.0,1
1305,1305,-0.07329973106506782,-0.1,0.0,1.0,405.0,565.0,0.0,1,-290.0,0
1306,1306,0.47529561658693076,0.5,1.0,1.0,363.0,553.0,1.0,1,724.0,1
1307,1307,-0.6135325278137279,-0.6,0.0,1.0,254.0,565.0,1.0,0,431.0,1
1308,1308,-0.008679984382232608,-0.0,0.0,1.0,461.0,624.0,0.0,1,305.0,0
1309,1309,-0.7818388163983978,-0.8,0.0,1.0,324.0,954.0,0.0,1,-528.0,0
1310,1310,-0.410037860474537,-0.4,0.0,1.0,253.0,699.0,1.0,0,478.0,1
1311,1311,-0.23262636557237415,-0.2,1.0,0.0,427.0,826.0,0.0,0,757.0,1
1312,1312,-0.8051375447276674,-0.8,0.0,1.0,452.0,598.0,1.0,0,290.0,1
1313,1313,0.5617156591089619,0.6,0.0,0.0,393.0,559.0,0.0,1,288.0,1
1314,1314,-0.6732043562744982,-0.7,0.0,1.0,477.0,921.0,0.0,1,-278.0,0
1315,1315,-0.5598388661697761,-0.6,0.0,1.0,346.0,516.0,1.0,0,458.0,1
1316,1316,-0.8515391803955922,-0.9,1.0,0.0,399.0,729.0,0.0,0,182.0,1
1317,1317,-0.4866155853726061,-0.5,0.0,1.0,333.0,828.0,1.0,0,209.0,1
1318,1318,-0.6700957985671656,-0.7,0.0,1.0,358.0,634.0,1.0,0,348.0,1
1319,1319,0.5015845840274248,0.5,0.0,0.0,251.0,563.0,0.0,1,-84.0,1
1320,1320,-0.7822811680572861,-0.8,1.0,0.0,327.0,708.0,0.0,0,105.0,1
1321,1321,0.36660709498135613,0.4,1.0,1.0,397.0,691.0,1.0,1,312.0,1
1322,1322,-0.12485896488877546,-0.1,1.0,0.0,304.0,633.0,0.0,0,543.0,1
1323,1323,0.7499300794121236,0.7,0.0,0.0,461.0,579.0,0.0,1,90.0,1
1324,1324,0.4082297076219318,0.4,1.0,1.0,287.0,908.0,1.0,1,305.0,1
1325,1325,0.2719115301080425,0.3,1.0,1.0,373.0,843.0,1.0,1,844.0,1
1326,1326,-0.49678180186733045,-0.5,0.0,1.0,326.0,777.0,1.0,0,207.0,1
1327,1327,-0.3561478619270372,-0.4,1.0,0.0,496.0,694.0,0.0,0,680.0,1
1328,1328,-0.23713991148058322,-0.2,0.0,1.0,359.0,557.0,1.0,0,2644.0,1
1329,1329,-0.8382323452945598,-0.8,0.0,1.0,391.0,621.0,0.0,1,-182.0,0
1330,1330,0.018055404519105034,0.0,1.0,1.0,292.0,792.0,0.0,0,3916.0,0
1331,1331,0.3072617457266976,0.3,0.0,0.0,453.0,829.0,0.0,1,28.0,1
1332,1332,-0.5970475586761104,-0.6,1.0,0.0,479.0,792.0,0.0,0,59.0,1
1333,1333,0.6151326464459183,0.6,0.0,0.0,337.0,930.0,0.0,1,173.0,1
1334,1334,-0.46530019040365395,-0.5,0.0,1.0,298.0,649.0,1.0,0,363.0,1
1335,1335,-0.8814493220001866,-0.9,1.0,0.0,418.0,767.0,0.0,0,185.0,1
1336,1336,-0.6213961381464919,-0.6,0.0,1.0,362.0,564.0,1.0,0,364.0,1
1337,1337,-0.8918927436064243,-0.9,1.0,0.0,337.0,933.0,1.0,1,-250.0,0
1338,1338,-0.40384393309524086,-0.4,0.0,1.0,438.0,720.0,0.0,1,-8.0,0
1339,1339,0.29376285140672,0.3,1.0,1.0,352.0,803.0,1.0,1,945.0,1
1340,1340,0.5219067500188183,0.5,1.0,1.0,465.0,581.0,1.0,1,244.0,1
1341,1341,-0.49607807076089644,-0.5,1.0,0.0,483.0,555.0,0.0,0,332.0,1
1342,1342,0.7393783045261969,0.7,0.0,0.0,492.0,532.0,0.0,1,206.0,1
1343,1343,-0.3007224913530957,-0.3,0.0,1.0,364.0,831.0,1.0,0,735.0,1
1344,1344,0.12056643185119975,0.1,0.0,0.0,467.0,723.0,0.0,1,-90.0,1
1345,1345,0.5529549113193338,0.6,1.0,1.0,443.0,676.0,1.0,1,231.0,1
1346,1346,-0.2147913948742428,-0.2,1.0,0.0,464.0,508.0,0.0,0,478.0,1
1347,1347,-0.2429871615665159,-0.2,0.0,1.0,338.0,550.0,1.0,0,1842.0,1
1348,1348,0.695527605547806,0.7,0.0,0.0,427.0,554.0,0.0,1,169.0,1
1349,1349,0.7861596377747943,0.8,1.0,1.0,251.0,993.0,1.0,1,216.0,1
1350,1350,-0.4238389572193619,-0.4,0.0,1.0,380.0,610.0,0.0,1,10.0,0
1351,1351,0.8198690486339847,0.8,1.0,1.0,362.0,574.0,1.0,1,444.0,1
1352,1352,-0.8160340447131584,-0.8,1.0,0.0,281.0,793.0,0.0,0,166.0,1
1353,1353,0.02043964579698465,0.0,0.0,0.0,271.0,808.0,0.0,1,-109.0,1
1354,1354,-0.6219469704318088,-0.6,0.0,1.0,284.0,946.0,1.0,0,320.0,1
1355,1355,-0.5121860461409746,-0.5,0.0,1.0,433.0,863.0,1.0,0,494.0,1
1356,1356,0.6414885421512068,0.6,1.0,1.0,313.0,733.0,1.0,1,664.0,1
1357,1357,0.6303796216249099,0.6,0.0,0.0,485.0,838.0,0.0,1,-293.0,1
1358,1358,0.24814908067393027,0.2,1.0,1.0,306.0,644.0,1.0,1,3930.0,1
1359,1359,-0.28967485827821216,-0.3,1.0,0.0,397.0,991.0,0.0,0,-478.0,1
1360,1360,-0.04464877731547834,-0.0,1.0,0.0,297.0,840.0,0.0,0,433.0,1
1361,1361,0.8419911037482336,0.8,1.0,1.0,321.0,892.0,1.0,1,497.0,1
1362,1362,-0.38959098646611756,-0.4,1.0,0.0,342.0,748.0,0.0,0,170.0,1
1363,1363,0.19499295037557907,0.2,1.0,1.0,331.0,904.0,1.0,1,25.0,1
1364,1364,0.3444191928081429,0.3,1.0,1.0,359.0,670.0,1.0,1,671.0,1
1365,1365,0.8988337945282353,0.9,0.0,0.0,368.0,911.0,0.0,1,221.0,1
1366,1366,0.5355860265541924,0.5,0.0,0.0,363.0,801.0,0.0,1,6.0,1
1367,1367,0.6242730435940612,0.6,0.0,0.0,478.0,911.0,0.0,1,301.0,1
1368,1368,0.5772865851719019,0.6,0.0,0.0,423.0,868.0,0.0,1,349.0,1
1369,1369,0.8110865612544157,0.8,0.0,0.0,494.0,589.0,0.0,1,157.0,1
1370,1370,-0.632484240533739,-0.6,1.0,0.0,362.0,670.0,0.0,0,388.0,1
1371,1371,0.4723006647423377,0.5,1.0,1.0,397.0,679.0,1.0,1,604.0,1
1372,1372,0.8289775138399916,0.8,1.0,1.0,372.0,875.0,1.0,1,93.0,1
1373,1373,0.8657229435260944,0.9,1.0,1.0,321.0,627.0,1.0,1,212.0,1
1374,1374,0.20596644197232583,0.2,1.0,1.0,447.0,678.0,1.0,1,3875.0,1
1375,1375,-0.6540796666476472,-0.7,1.0,0.0,393.0,717.0,0.0,0,470.0,1
1376,1376,-0.3293552389997876,-0.3,0.0,1.0,342.0,525.0,1.0,0,903.0,1
1377,1377,0.19709618231118176,0.2,0.0,0.0,293.0,503.0,0.0,1,324.0,1
1378,1378,0.39338389274433816,0.4,1.0,1.0,428.0,864.0,1.0,1,1758.0,1
1379,1379,0.6009886394290028,0.6,0.0,0.0,352.0,532.0,0.0,1,146.0,1
1380,1380,0.47215755728762343,0.5,1.0,1.0,291.0,988.0,0.0,0,-359.0,0
1381,1381,0.43409262721551045,0.4,0.0,0.0,286.0,895.0,0.0,1,-271.0,1
1382,1382,0.46533128869345075,0.5,0.0,0.0,489.0,838.0,1.0,0,-407.0,0
1383,1383,0.8799245477160321,0.9,0.0,0.0,281.0,973.0,0.0,1,76.0,1
1384,1384,0.42561540941186127,0.4,0.0,0.0,280.0,851.0,0.0,1,-261.0,1
1385,1385,-0.3249248189463825,-0.3,1.0,0.0,474.0,728.0,1.0,1,-182.0,0
1386,1386,-0.11984698878726718,-0.1,0.0,1.0,474.0,912.0,1.0,0,-236.0,1
1387,1387,-0.3073260775544111,-0.3,0.0,1.0,287.0,680.0,1.0,0,2273.0,1
1388,1388,0.3818286235257399,0.4,1.0,1.0,365.0,927.0,1.0,1,1018.0,1
1389,1389,0.26306466489765923,0.3,0.0,0.0,491.0,983.0,0.0,1,-164.0,1
1390,1390,-0.3860605957899014,-0.4,1.0,0.0,466.0,968.0,0.0,0,206.0,1
1391,1391,0.35064115885422453,0.4,1.0,1.0,366.0,947.0,0.0,0,-263.0,0
1392,1392,-0.21052578722533366,-0.2,0.0,1.0,484.0,930.0,1.0,0,-494.0,1
1393,1393,-0.06246476958595215,-0.1,1.0,0.0,310.0,970.0,0.0,0,1150.0,1
1394,1394,0.5661323754332287,0.6,1.0,1.0,478.0,544.0,1.0,1,278.0,1
1395,1395,0.5964620391417402,0.6,0.0,0.0,420.0,506.0,0.0,1,-6.0,1
1396,1396,-0.06288132569366367,-0.1,0.0,1.0,384.0,643.0,0.0,1,223.0,0
1397,1397,-0.149625713004522,-0.1,0.0,1.0,290.0,605.0,1.0,0,1315.0,1
1398,1398,0.7103847355456313,0.7,1.0,1.0,432.0,507.0,1.0,1,371.0,1
1399,1399,0.15285467163832378,0.2,1.0,1.0,484.0,564.0,0.0,0,952.0,0
1400,1400,-0.6250259816002004,-0.6,1.0,0.0,302.0,571.0,0.0,0,237.0,1
1401,1401,-0.09294850559264278,-0.1,0.0,1.0,301.0,792.0,0.0,1,-13.0,0
1402,1402,0.771334856247975,0.8,0.0,0.0,499.0,654.0,0.0,1,137.0,1
1403,1403,0.7912486327102265,0.8,1.0,1.0,405.0,512.0,1.0,1,673.0,1
1404,1404,0.21239904966429013,0.2,1.0,1.0,338.0,529.0,1.0,1,953.0,1
1405,1405,0.33824998484243196,0.3,1.0,1.0,334.0,945.0,1.0,1,541.0,1
1406,1406,0.6366892409512791,0.6,0.0,0.0,261.0,713.0,0.0,1,46.0,1
1407,1407,0.00949716081991725,0.0,1.0,1.0,414.0,624.0,0.0,0,2472.0,0
1408,1408,-0.43304978820135587,-0.4,1.0,0.0,315.0,676.0,0.0,0,339.0,1
1409,1409,-0.5129693193466368,-0.5,0.0,1.0,417.0,515.0,1.0,0,448.0,1
1410,1410,0.02755316462404722,0.0,0.0,0.0,280.0,524.0,0.0,1,2256.0,1
1411,1411,0.28686917319701244,0.3,1.0,1.0,325.0,634.0,1.0,1,731.0,1
1412,1412,0.8245260600910905,0.8,1.0,1.0,380.0,832.0,1.0,1,628.0,1
1413,1413,-0.12684887448374726,-0.1,0.0,1.0,254.0,634.0,0.0,1,2002.0,0
1414,1414,0.8384586272885509,0.8,1.0,1.0,320.0,755.0,1.0,1,475.0,1
1415,1415,0.003423366081600099,0.0,1.0,1.0,471.0,808.0,1.0,1,-19.0,1
1416,1416,-0.7815085553113652,-0.8,1.0,0.0,469.0,756.0,0.0,0,315.0,1
1417,1417,-0.20590918366207478,-0.2,1.0,0.0,279.0,592.0,0.0,0,2349.0,1
1418,1418,0.890452802859874,0.9,1.0,1.0,482.0,623.0,1.0,1,185.0,1
1419,1419,-0.786356900527801,-0.8,1.0,0.0,358.0,556.0,0.0,0,166.0,1
1420,1420,-0.43376391764586864,-0.4,0.0,1.0,277.0,767.0,1.0,0,286.0,1
1421,1421,-0.1812675736705357,-0.2,0.0,1.0,493.0,676.0,0.0,1,2661.0,0
1422,1422,0.21276915944613506,0.2,0.0,0.0,355.0,782.0,0.0,1,-127.0,1
1423,1423,-0.5783409251625337,-0.6,0.0,1.0,445.0,943.0,1.0,0,212.0,1
1424,1424,-0.17250113918260723,-0.2,1.0,0.0,331.0,808.0,0.0,0,61.0,1
1425,1425,-0.09251570581065505,-0.1,0.0,1.0,299.0,878.0,0.0,1,-67.0,0
1426,1426,-0.5352526649810554,-0.5,1.0,0.0,413.0,783.0,0.0,0,394.0,1
1427,1427,0.12518645113333238,0.1,1.0,1.0,418.0,697.0,1.0,1,3885.0,1
1428,1428,0.5989199439020999,0.6,0.0,0.0,288.0,594.0,0.0,1,238.0,1
1429,1429,-0.19550936669679642,-0.2,1.0,0.0,285.0,809.0,0.0,0,586.0,1
1430,1430,0.1309307461524133,0.1,0.0,0.0,427.0,669.0,0.0,1,1764.0,1
1431,1431,-0.27221836462005755,-0.3,0.0,1.0,271.0,679.0,1.0,0,600.0,1
1432,1432,0.5647832534222591,0.6,0.0,0.0,488.0,729.0,0.0,1,133.0,1
1433,1433,0.5147906236591179,0.5,0.0,0.0,463.0,845.0,0.0,1,112.0,1
1434,1434,-0.609257042908459,-0.6,0.0,1.0,439.0,935.0,1.0,0,166.0,1
1435,1435,0.14934454591030943,0.1,0.0,0.0,282.0,858.0,0.0,1,190.0,1
1436,1436,0.08403139215988109,0.1,1.0,1.0,324.0,749.0,0.0,0,3097.0,0
1437,1437,-0.8132184955087177,-0.8,0.0,1.0,492.0,908.0,1.0,0,420.0,1
1438,1438,0.7055411172819056,0.7,1.0,1.0,473.0,702.0,1.0,1,545.0,1
1439,1439,0.46341581995778836,0.5,1.0,1.0,308.0,980.0,1.0,1,532.0,1
1440,1440,-0.6286472327090926,-0.6,1.0,0.0,473.0,731.0,0.0,0,306.0,1
1441,1441,-0.808725397369602,-0.8,0.0,1.0,360.0,918.0,1.0,0,242.0,1
1442,1442,-0.10971692482683604,-0.1,1.0,0.0,411.0,773.0,0.0,0,-104.0,1
1443,1443,-0.6056774569001298,-0.6,0.0,1.0,457.0,890.0,1.0,0,323.0,1
1444,1444,-0.4596145503282612,-0.5,0.0,1.0,490.0,837.0,0.0,1,-187.0,0
1445,1445,-0.2501811502120791,-0.3,1.0,0.0,495.0,628.0,0.0,0,587.0,1
1446,1446,-0.19891460146545625,-0.2,1.0,0.0,481.0,707.0,0.0,0,452.0,1
1447,1447,-0.23814272456172703,-0.2,1.0,0.0,442.0,945.0,0.0,0,193.0,1
1448,1448,0.657559311760077,0.7,1.0,1.0,362.0,509.0,1.0,1,269.0,1
1449,1449,-0.5673855425498195,-0.6,0.0,1.0,443.0,579.0,1.0,0,678.0,1
1450,1450,0.77931575991347,0.8,0.0,0.0,448.0,893.0,0.0,1,209.0,1
1451,1451,-0.06250144323838436,-0.1,1.0,0.0,432.0,682.0,0.0,0,346.0,1
1452,1452,-0.31693177634317293,-0.3,1.0,0.0,466.0,516.0,0.0,0,1028.0,1
1453,1453,0.4859957822400792,0.5,1.0,1.0,498.0,678.0,1.0,1,364.0,1
1454,1454,0.36786136067821606,0.4,1.0,1.0,354.0,993.0,1.0,1,953.0,1
1455,1455,-0.5230831716016695,-0.5,0.0,1.0,356.0,785.0,0.0,1,-411.0,0
1456,1456,0.046246944186630334,0.0,1.0,1.0,473.0,626.0,0.0,0,3901.0,0
1457,1457,-0.44703283313393277,-0.4,1.0,0.0,441.0,892.0,0.0,0,277.0,1
1458,1458,-0.8338534687822969,-0.8,1.0,0.0,314.0,923.0,0.0,0,223.0,1
1459,1459,0.8804255642869566,0.9,0.0,0.0,490.0,690.0,0.0,1,30.0,1
1460,1460,-0.6798042747039179,-0.7,0.0,1.0,314.0,534.0,1.0,0,212.0,1
1461,1461,-0.39980012517771346,-0.4,1.0,0.0,373.0,746.0,0.0,0,251.0,1
1462,1462,0.6254967995196449,0.6,0.0,0.0,367.0,548.0,0.0,1,105.0,1
1463,1463,-0.7820278142578748,-0.8,1.0,0.0,368.0,785.0,0.0,0,187.0,1
1464,1464,-0.8755796145858056,-0.9,0.0,1.0,478.0,976.0,0.0,1,-524.0,0
1465,1465,0.8967266131108996,0.9,1.0,1.0,256.0,567.0,1.0,1,237.0,1
1466,1466,-0.21006741194442902,-0.2,1.0,0.0,499.0,591.0,0.0,0,110.0,1
1467,1467,-0.35316659834569053,-0.4,1.0,0.0,443.0,899.0,0.0,0,438.0,1
1468,1468,-0.8497329293673547,-0.8,0.0,1.0,334.0,792.0,0.0,1,-326.0,0
1469,1469,-0.17777622178305774,-0.2,0.0,1.0,463.0,789.0,0.0,1,448.0,0
1470,1470,0.48809115199402286,0.5,0.0,0.0,339.0,579.0,0.0,1,-298.0,1
1471,1471,0.2718904410427022,0.3,0.0,0.0,310.0,897.0,0.0,1,33.0,1
1472,1472,0.8012622837215934,0.8,0.0,0.0,278.0,979.0,0.0,1,143.0,1
1473,1473,-0.6678638591907893,-0.7,0.0,1.0,250.0,680.0,1.0,0,100.0,1
1474,1474,0.7872681179099926,0.8,0.0,0.0,351.0,631.0,0.0,1,108.0,1
1475,1475,-0.792598694051518,-0.8,1.0,0.0,277.0,531.0,0.0,0,212.0,1
1476,1476,-0.7382270631364474,-0.7,1.0,0.0,420.0,575.0,0.0,0,285.0,1
1477,1477,0.7338511644863758,0.7,0.0,0.0,341.0,782.0,0.0,1,297.0,1
1478,1478,-0.30297761460567485,-0.3,0.0,1.0,292.0,823.0,1.0,0,575.0,1
1479,1479,-0.8205415548308996,-0.8,1.0,0.0,326.0,605.0,0.0,0,109.0,1
1480,1480,0.7656415645678684,0.8,1.0,1.0,417.0,730.0,1.0,1,353.0,1
1481,1481,-0.0963287850643827,-0.1,1.0,0.0,293.0,651.0,0.0,0,-4.0,1
1482,1482,-0.4885779255407576,-0.5,1.0,0.0,452.0,615.0,0.0,0,233.0,1
1483,1483,0.8372588473530097,0.8,0.0,0.0,379.0,745.0,0.0,1,96.0,1
1484,1484,-0.4291266856834106,-0.4,0.0,1.0,474.0,582.0,1.0,0,634.0,1
1485,1485,0.12223364054550945,0.1,0.0,0.0,287.0,634.0,0.0,1,2169.0,1
1486,1486,-0.04789383609892928,-0.0,0.0,1.0,407.0,539.0,0.0,1,-116.0,0
1487,1487,-0.6003386779886675,-0.6,0.0,1.0,426.0,892.0,1.0,0,302.0,1
1488,1488,-0.7771921738789277,-0.8,1.0,0.0,471.0,550.0,0.0,0,519.0,1
