,trial,coherence,coherence_bin,green_side,correct_side,target_onset,checker_onset,decision,green_decision,decision_time,correct_decision
0,0,-0.7444804749930585,-0.7,0.0,1.0,299.0,803.0,1.0,0,98.0,1
1,1,-0.8302599250100013,-0.8,0.0,1.0,463.0,654.0,1.0,0,183.0,1
2,2,-0.4539147666955459,-0.5,0.0,1.0,436.0,776.0,1.0,0,318.0,1
3,3,-0.8447961977806643,-0.8,0.0,1.0,445.0,716.0,1.0,0,209.0,1
4,4,-0.5711836673640278,-0.6,1.0,0.0,368.0,818.0,0.0,0,304.0,1
5,5,0.4201296607412507,0.4,0.0,0.0,252.0,637.0,0.0,1,311.0,1
6,6,0.5367451205217101,0.5,1.0,1.0,361.0,868.0,1.0,1,81.0,1
7,7,-0.8765829180372485,-0.9,0.0,1.0,484.0,659.0,1.0,0,107.0,1
8,8,-0.5223865815847454,-0.5,1.0,0.0,294.0,572.0,0.0,0,304.0,1
9,9,-0.001936999720092647,-0.0,0.0,1.0,334.0,653.0,1.0,0,2013.0,1
10,10,-0.3319831814427281,-0.3,1.0,0.0,436.0,733.0,0.0,0,361.0,1
11,11,-0.11850171798497666,-0.1,1.0,0.0,469.0,939.0,0.0,0,492.0,1
12,12,-0.1540565326591099,-0.2,1.0,0.0,445.0,619.0,0.0,0,256.0,1
13,13,-0.05014628823088629,-0.1,1.0,0.0,469.0,918.0,0.0,0,1493.0,1
14,14,0.6323414370269028,0.6,1.0,1.0,336.0,702.0,1.0,1,242.0,1
15,15,0.6574625396993182,0.7,0.0,0.0,397.0,713.0,0.0,1,280.0,1
16,16,0.017259066897944986,0.0,0.0,0.0,404.0,696.0,1.0,0,610.0,0
17,17,0.19820491367840753,0.2,0.0,0.0,426.0,547.0,0.0,1,377.0,1
18,18,-0.5470341000679122,-0.5,0.0,1.0,425.0,998.0,1.0,0,47.0,1
19,19,0.21339961901183468,0.2,0.0,0.0,387.0,951.0,0.0,1,262.0,1
20,20,-0.6852276134296194,-0.7,0.0,1.0,400.0,834.0,1.0,0,156.0,1
21,21,-0.8462523365609171,-0.8,1.0,0.0,378.0,539.0,0.0,0,393.0,1
22,22,0.5101370680792826,0.5,0.0,0.0,392.0,644.0,0.0,1,384.0,1
23,23,0.36725105962673543,0.4,0.0,0.0,271.0,504.0,0.0,1,395.0,1
24,24,-0.4631607254180675,-0.5,1.0,0.0,251.0,767.0,0.0,0,342.0,1
25,25,0.18141099852325515,0.2,0.0,0.0,276.0,966.0,0.0,1,518.0,1
26,26,0.15839213734384294,0.2,1.0,1.0,475.0,610.0,1.0,1,775.0,1
27,27,0.370152747668148,0.4,1.0,1.0,421.0,850.0,1.0,1,189.0,1
28,28,-0.226432898672701,-0.2,0.0,1.0,421.0,520.0,1.0,0,1009.0,1
29,29,-0.04757406835887623,-0.0,0.0,1.0,454.0,725.0,0.0,1,1821.0,0
30,30,0.6904040545342337,0.7,0.0,0.0,298.0,772.0,0.0,1,210.0,1
31,31,-0.8552157414852152,-0.9,0.0,1.0,431.0,773.0,1.0,0,146.0,1
32,32,-0.6823713001780736,-0.7,1.0,0.0,276.0,520.0,0.0,0,194.0,1
33,33,0.10510984216596186,0.1,0.0,0.0,331.0,840.0,0.0,1,609.0,1
34,34,0.2781296089353399,0.3,1.0,1.0,395.0,791.0,1.0,1,204.0,1
35,35,-0.6792307592661081,-0.7,1.0,0.0,467.0,928.0,0.0,0,75.0,1
36,36,-0.888386607981972,-0.9,0.0,1.0,288.0,629.0,1.0,0,383.0,1
37,37,-0.7777061352854027,-0.8,0.0,1.0,276.0,574.0,1.0,0,230.0,1
38,38,0.42964229360789064,0.4,0.0,0.0,289.0,806.0,0.0,1,495.0,1
39,39,0.19472349585198534,0.2,1.0,1.0,426.0,906.0,1.0,1,238.0,1
40,40,0.8164558182695975,0.8,0.0,0.0,318.0,713.0,0.0,1,169.0,1
41,41,0.6027146518422043,0.6,1.0,1.0,376.0,934.0,1.0,1,130.0,1
42,42,-0.4635382633486678,-0.5,0.0,1.0,451.0,647.0,1.0,0,172.0,1
43,43,-0.038903922175161254,-0.0,0.0,1.0,447.0,574.0,1.0,0,669.0,1
44,44,0.37050227703964034,0.4,0.0,0.0,457.0,787.0,0.0,1,176.0,1
45,45,0.7848677184028644,0.8,0.0,0.0,489.0,667.0,0.0,1,444.0,1
46,46,-0.4991425312194868,-0.5,1.0,0.0,410.0,792.0,0.0,0,278.0,1
47,47,0.8689702950228829,0.9,1.0,1.0,298.0,554.0,1.0,1,118.0,1
48,48,0.7336764960786794,0.7,1.0,1.0,389.0,608.0,1.0,1,163.0,1
49,49,0.026995638312401926,0.0,0.0,0.0,349.0,730.0,1.0,0,1921.0,0
50,50,0.5481361601750759,0.5,1.0,1.0,417.0,535.0,1.0,1,298.0,1
51,51,-0.8298896091151494,-0.8,1.0,0.0,413.0,905.0,0.0,0,372.0,1
52,52,0.811742847231068,0.8,0.0,0.0,492.0,796.0,0.0,1,182.0,1
53,53,-0.7172668918976757,-0.7,1.0,0.0,304.0,805.0,0.0,0,311.0,1
54,54,0.10790868830225808,0.1,0.0,0.0,360.0,868.0,0.0,1,1632.0,1
55,55,-0.5416491057323087,-0.5,1.0,0.0,420.0,546.0,0.0,0,334.0,1
56,56,-0.8422204343737532,-0.8,0.0,1.0,319.0,809.0,1.0,0,122.0,1
57,57,-0.24142185637266667,-0.2,0.0,1.0,499.0,549.0,1.0,0,482.0,1
58,58,-0.5543196066891105,-0.6,0.0,1.0,465.0,854.0,1.0,0,101.0,1
59,59,0.6713435453091926,0.7,1.0,1.0,451.0,522.0,1.0,1,277.0,1
60,60,0.7949652385540767,0.8,1.0,1.0,324.0,778.0,1.0,1,168.0,1
61,61,0.38133179829640473,0.4,1.0,1.0,402.0,680.0,1.0,1,98.0,1
62,62,-0.1753526064570884,-0.2,0.0,1.0,452.0,803.0,1.0,0,435.0,1
63,63,-0.7425811586238148,-0.7,0.0,1.0,414.0,779.0,1.0,0,157.0,1
64,64,0.37693020340794237,0.4,0.0,0.0,373.0,749.0,0.0,1,618.0,1
65,65,-0.8087475212747072,-0.8,1.0,0.0,389.0,642.0,0.0,0,309.0,1
66,66,-0.2787911715609086,-0.3,1.0,0.0,385.0,829.0,0.0,0,276.0,1
67,67,0.11967574397246639,0.1,0.0,0.0,335.0,695.0,0.0,1,450.0,1
68,68,0.23222718547536358,0.2,0.0,0.0,281.0,915.0,0.0,1,564.0,1
69,69,-0.7213386188396831,-0.7,1.0,0.0,407.0,601.0,0.0,0,152.0,1
70,70,-0.06744664154362079,-0.1,0.0,1.0,346.0,628.0,1.0,0,286.0,1
71,71,0.09484577644297976,0.1,1.0,1.0,265.0,802.0,1.0,1,623.0,1
72,72,0.2083749780632692,0.2,0.0,0.0,305.0,636.0,0.0,1,1129.0,1
73,73,0.3080158757736432,0.3,1.0,1.0,445.0,844.0,1.0,1,191.0,1
74,74,-0.1839721675526168,-0.2,0.0,1.0,451.0,810.0,1.0,0,179.0,1
75,75,-0.8429030489145589,-0.8,0.0,1.0,474.0,775.0,1.0,0,131.0,1
76,76,-0.1923711643909779,-0.2,0.0,1.0,439.0,739.0,1.0,0,672.0,1
77,77,-0.2361169316875925,-0.2,1.0,0.0,260.0,560.0,0.0,0,1100.0,1
78,78,0.36791090553147787,0.4,0.0,0.0,377.0,706.0,0.0,1,277.0,1
79,79,-0.06142819658972465,-0.1,1.0,0.0,392.0,810.0,0.0,0,748.0,1
80,80,-0.28560393463335887,-0.3,1.0,0.0,437.0,501.0,0.0,0,602.0,1
81,81,-0.037546770547145614,-0.0,0.0,1.0,334.0,810.0,0.0,1,1286.0,0
82,82,-0.4445977217543061,-0.4,0.0,1.0,439.0,588.0,1.0,0,243.0,1
83,83,0.03799644490527154,0.0,0.0,0.0,490.0,625.0,0.0,1,1165.0,1
84,84,-0.8765533275419443,-0.9,1.0,0.0,410.0,844.0,0.0,0,226.0,1
85,85,0.8361793809701111,0.8,1.0,1.0,258.0,553.0,1.0,1,179.0,1
86,86,0.3098208154913794,0.3,1.0,1.0,494.0,767.0,1.0,1,259.0,1
87,87,0.8391086516278897,0.8,1.0,1.0,455.0,686.0,1.0,1,69.0,1
88,88,0.7435388332353253,0.7,1.0,1.0,319.0,527.0,1.0,1,124.0,1
89,89,-0.10067341587528644,-0.1,1.0,0.0,438.0,709.0,0.0,0,293.0,1
90,90,0.07689857841321768,0.1,0.0,0.0,401.0,765.0,0.0,1,424.0,1
91,91,-0.773597508481558,-0.8,0.0,1.0,310.0,731.0,1.0,0,149.0,1
92,92,-0.6839620270602658,-0.7,0.0,1.0,277.0,637.0,1.0,0,236.0,1
93,93,0.2268354802274014,0.2,1.0,1.0,352.0,587.0,1.0,1,301.0,1
94,94,0.7136865613480369,0.7,1.0,1.0,311.0,594.0,1.0,1,235.0,1
95,95,-0.17508123928910524,-0.2,1.0,0.0,366.0,753.0,0.0,0,531.0,1
96,96,0.41811872890603785,0.4,0.0,0.0,398.0,916.0,0.0,1,286.0,1
97,97,-0.789138311576047,-0.8,1.0,0.0,378.0,934.0,0.0,0,138.0,1
98,98,-0.8676923967870386,-0.9,0.0,1.0,389.0,850.0,1.0,0,231.0,1
99,99,-0.5695538736984582,-0.6,0.0,1.0,383.0,987.0,1.0,0,240.0,1
100,100,-0.032869831383601444,-0.0,0.0,1.0,309.0,784.0,0.0,1,1907.0,0
101,101,-0.87146641032589,-0.9,1.0,0.0,445.0,569.0,0.0,0,46.0,1
102,102,-0.3304522329027175,-0.3,1.0,0.0,360.0,788.0,0.0,0,522.0,1
103,103,-0.1851850735788212,-0.2,0.0,1.0,496.0,719.0,1.0,0,605.0,1
104,104,-0.7239644573891748,-0.7,1.0,0.0,363.0,923.0,0.0,0,184.0,1
105,105,0.0008250223399223211,0.0,0.0,0.0,270.0,670.0,0.0,1,1980.0,1
106,106,0.7897282810118064,0.8,0.0,0.0,271.0,512.0,0.0,1,307.0,1
107,107,-0.5229624234620991,-0.5,1.0,0.0,485.0,829.0,0.0,0,146.0,1
108,108,-0.5268760460677167,-0.5,1.0,0.0,343.0,613.0,0.0,0,614.0,1
109,109,0.29391418798878777,0.3,1.0,1.0,390.0,951.0,1.0,1,119.0,1
110,110,0.5260241137115093,0.5,0.0,0.0,362.0,577.0,0.0,1,221.0,1
111,111,-0.4534530074675842,-0.5,0.0,1.0,440.0,916.0,1.0,0,314.0,1
112,112,-0.3803489028287771,-0.4,1.0,0.0,377.0,933.0,0.0,0,320.0,1
113,113,0.44356723295018907,0.4,0.0,0.0,378.0,807.0,0.0,1,825.0,1
114,114,-0.23989247258881907,-0.2,0.0,1.0,356.0,570.0,1.0,0,444.0,1
115,115,-0.10486140447540404,-0.1,0.0,1.0,478.0,822.0,1.0,0,880.0,1
116,116,-0.3127576318800709,-0.3,0.0,1.0,478.0,759.0,1.0,0,273.0,1
117,117,-0.6239471175214539,-0.6,0.0,1.0,427.0,875.0,1.0,0,188.0,1
118,118,-0.23851929278223127,-0.2,0.0,1.0,367.0,957.0,1.0,0,66.0,1
119,119,0.006712941712844311,0.0,0.0,0.0,254.0,861.0,0.0,1,1885.0,1
120,120,0.626250369916603,0.6,1.0,1.0,423.0,812.0,1.0,1,165.0,1
121,121,0.5404416504565891,0.5,0.0,0.0,309.0,558.0,0.0,1,203.0,1
122,122,-0.8428762734637352,-0.8,1.0,0.0,354.0,639.0,0.0,0,297.0,1
123,123,-0.7930141186146215,-0.8,0.0,1.0,394.0,691.0,1.0,0,145.0,1
124,124,0.20038607666305974,0.2,1.0,1.0,363.0,970.0,1.0,1,317.0,1
125,125,0.6898640058238071,0.7,0.0,0.0,292.0,827.0,0.0,1,191.0,1
126,126,0.2010583624277983,0.2,1.0,1.0,389.0,825.0,1.0,1,306.0,1
127,127,0.6163967270359006,0.6,1.0,1.0,284.0,815.0,1.0,1,91.0,1
128,128,0.501164914573703,0.5,1.0,1.0,384.0,719.0,1.0,1,237.0,1
129,129,0.855427867410124,0.9,0.0,0.0,347.0,877.0,0.0,1,96.0,1
130,130,0.3058921835969498,0.3,0.0,0.0,428.0,680.0,0.0,1,422.0,1
131,131,0.583096471347298,0.6,1.0,1.0,393.0,777.0,1.0,1,110.0,1
132,132,-0.4113054807132513,-0.4,0.0,1.0,410.0,752.0,1.0,0,168.0,1
133,133,0.2631565900064118,0.3,0.0,0.0,489.0,715.0,0.0,1,286.0,1
134,134,-0.8883321244014587,-0.9,0.0,1.0,295.0,918.0,1.0,0,67.0,1
135,135,-0.7796605581077035,-0.8,1.0,0.0,326.0,654.0,0.0,0,250.0,1
136,136,0.6954035112218929,0.7,1.0,1.0,447.0,866.0,1.0,1,237.0,1
137,137,-0.1609160746438717,-0.2,0.0,1.0,257.0,685.0,1.0,0,748.0,1
138,138,0.1984467421739996,0.2,1.0,1.0,427.0,900.0,1.0,1,83.0,1
139,139,-0.25051292508038814,-0.3,0.0,1.0,303.0,695.0,1.0,0,242.0,1
140,140,0.8720234942188786,0.9,1.0,1.0,393.0,513.0,1.0,1,134.0,1
141,141,0.5002285181457159,0.5,0.0,0.0,381.0,975.0,0.0,1,194.0,1
142,142,0.47693705177129553,0.5,1.0,1.0,451.0,933.0,1.0,1,116.0,1
143,143,-0.39726546569487475,-0.4,1.0,0.0,403.0,655.0,0.0,0,722.0,1
144,144,-0.5720167360063224,-0.6,1.0,0.0,427.0,726.0,0.0,0,127.0,1
145,145,-0.6612851534906269,-0.7,1.0,0.0,392.0,731.0,0.0,0,207.0,1
146,146,0.251744591814559,0.3,1.0,1.0,343.0,756.0,1.0,1,101.0,1
147,147,-0.5298375747049564,-0.5,1.0,0.0,440.0,748.0,0.0,0,222.0,1
148,148,0.3677464560725706,0.4,0.0,0.0,438.0,588.0,0.0,1,264.0,1
149,149,0.13899422123940075,0.1,0.0,0.0,258.0,845.0,0.0,1,307.0,1
150,150,0.21287293945237573,0.2,0.0,0.0,282.0,720.0,0.0,1,378.0,1
151,151,-0.5800134077136211,-0.6,1.0,0.0,389.0,822.0,0.0,0,259.0,1
152,152,-0.018391322061682702,-0.0,1.0,0.0,378.0,580.0,1.0,1,2042.0,0
153,153,-0.05349727551562766,-0.1,0.0,1.0,348.0,544.0,1.0,0,2108.0,1
154,154,0.2581180828973858,0.3,1.0,1.0,478.0,708.0,1.0,1,494.0,1
155,155,-0.7955529801554186,-0.8,0.0,1.0,485.0,533.0,1.0,0,162.0,1
156,156,-0.15039027098059254,-0.2,1.0,0.0,279.0,824.0,0.0,0,987.0,1
157,157,-0.815050167755604,-0.8,1.0,0.0,282.0,752.0,0.0,0,336.0,1
158,158,0.2647543156336273,0.3,1.0,1.0,414.0,813.0,1.0,1,243.0,1
159,159,0.41982208055105275,0.4,1.0,1.0,394.0,743.0,1.0,1,213.0,1
160,160,-0.7823740939087698,-0.8,0.0,1.0,285.0,694.0,1.0,0,141.0,1
161,161,-0.05065309683377395,-0.1,0.0,1.0,307.0,585.0,0.0,1,1188.0,0
162,162,0.39272168886134107,0.4,1.0,1.0,330.0,925.0,1.0,1,115.0,1
163,163,0.37249201368657114,0.4,1.0,1.0,474.0,512.0,1.0,1,134.0,1
164,164,0.891300959662657,0.9,0.0,0.0,432.0,570.0,0.0,1,298.0,1
165,165,-0.6663862129781606,-0.7,0.0,1.0,381.0,675.0,1.0,0,194.0,1
166,166,-0.03346588948639673,-0.0,0.0,1.0,328.0,819.0,1.0,0,1323.0,1
167,167,0.7763116105240951,0.8,0.0,0.0,329.0,558.0,0.0,1,323.0,1
168,168,0.46764715695446923,0.5,1.0,1.0,310.0,618.0,1.0,1,332.0,1
169,169,-0.22800545683028872,-0.2,0.0,1.0,475.0,596.0,1.0,0,259.0,1
170,170,-0.19056268292495315,-0.2,0.0,1.0,376.0,786.0,1.0,0,668.0,1
171,171,-0.779477871951299,-0.8,1.0,0.0,381.0,548.0,0.0,0,351.0,1
172,172,-0.8790813906617062,-0.9,0.0,1.0,278.0,622.0,1.0,0,110.0,1
173,173,-0.24984546714517364,-0.2,0.0,1.0,432.0,795.0,1.0,0,333.0,1
174,174,-0.48094698966592053,-0.5,1.0,0.0,387.0,837.0,0.0,0,156.0,1
175,175,-0.5546934208454767,-0.6,0.0,1.0,268.0,923.0,1.0,0,199.0,1
176,176,-0.18579877773654074,-0.2,1.0,0.0,463.0,738.0,0.0,0,519.0,1
177,177,-0.23982549996964364,-0.2,1.0,0.0,331.0,852.0,0.0,0,327.0,1
178,178,-0.3368232276086629,-0.3,1.0,0.0,403.0,817.0,0.0,0,220.0,1
179,179,-0.3210972874182838,-0.3,0.0,1.0,295.0,515.0,1.0,0,600.0,1
180,180,0.3408163861925734,0.3,1.0,1.0,437.0,655.0,1.0,1,208.0,1
181,181,0.6261738479943019,0.6,0.0,0.0,387.0,854.0,0.0,1,109.0,1
182,182,0.18176215745177904,0.2,1.0,1.0,455.0,886.0,1.0,1,279.0,1
183,183,-0.5641680370015008,-0.6,1.0,0.0,394.0,510.0,0.0,0,376.0,1
184,184,-0.7800873227523167,-0.8,0.0,1.0,498.0,926.0,1.0,0,86.0,1
185,185,-0.6774385601478409,-0.7,1.0,0.0,480.0,999.0,0.0,0,321.0,1
186,186,0.5714622559948989,0.6,0.0,0.0,396.0,946.0,0.0,1,118.0,1
187,187,0.8126569869163277,0.8,1.0,1.0,428.0,696.0,1.0,1,156.0,1
188,188,-0.26064407739256745,-0.3,0.0,1.0,453.0,926.0,1.0,0,381.0,1
189,189,0.031077622767071045,0.0,1.0,1.0,252.0,960.0,0.0,0,1788.0,0
190,190,0.1258661576832122,0.1,0.0,0.0,380.0,699.0,0.0,1,661.0,1
191,191,0.3859105744687109,0.4,0.0,0.0,364.0,806.0,0.0,1,380.0,1
192,192,-0.12334372047840947,-0.1,1.0,0.0,352.0,519.0,0.0,0,619.0,1
193,193,-0.7758815354837442,-0.8,1.0,0.0,402.0,844.0,0.0,0,234.0,1
194,194,0.5626466720614564,0.6,0.0,0.0,318.0,689.0,0.0,1,243.0,1
195,195,-0.37648099218514497,-0.4,0.0,1.0,462.0,911.0,1.0,0,227.0,1
196,196,-0.8762430589821513,-0.9,0.0,1.0,373.0,712.0,1.0,0,135.0,1
197,197,0.37461665114713727,0.4,1.0,1.0,364.0,641.0,1.0,1,405.0,1
198,198,0.17588663413309702,0.2,1.0,1.0,458.0,672.0,1.0,1,190.0,1
199,199,-0.8977473847947247,-0.9,1.0,0.0,364.0,712.0,0.0,0,134.0,1
200,200,0.19670846924180718,0.2,1.0,1.0,281.0,624.0,1.0,1,315.0,1
201,201,-0.009148549368057868,-0.0,0.0,1.0,340.0,505.0,0.0,1,265.0,0
202,202,-0.15170577098689741,-0.2,0.0,1.0,471.0,797.0,1.0,0,442.0,1
203,203,-0.7278685481456363,-0.7,1.0,0.0,259.0,596.0,0.0,0,95.0,1
204,204,-0.12406891128064079,-0.1,1.0,0.0,473.0,702.0,0.0,0,625.0,1
205,205,0.7741907295674771,0.8,0.0,0.0,407.0,867.0,0.0,1,166.0,1
206,206,-0.6280737118713852,-0.6,0.0,1.0,295.0,933.0,1.0,0,212.0,1
207,207,-0.32989880286305595,-0.3,1.0,0.0,307.0,608.0,0.0,0,395.0,1
208,208,0.18085135413577735,0.2,1.0,1.0,417.0,922.0,1.0,1,301.0,1
209,209,-0.6760551414376128,-0.7,0.0,1.0,319.0,832.0,1.0,0,129.0,1
210,210,0.5182868268555306,0.5,1.0,1.0,436.0,541.0,1.0,1,383.0,1
211,211,-0.8984655222395076,-0.9,0.0,1.0,288.0,525.0,1.0,0,217.0,1
212,212,-0.32830138023929356,-0.3,1.0,0.0,285.0,934.0,0.0,0,211.0,1
213,213,-0.6070823396216343,-0.6,1.0,0.0,437.0,523.0,0.0,0,350.0,1
214,214,0.8463522521832315,0.8,1.0,1.0,379.0,696.0,1.0,1,195.0,1
215,215,-0.15138226793330745,-0.2,0.0,1.0,358.0,983.0,1.0,0,1059.0,1
216,216,0.7795233702991654,0.8,1.0,1.0,495.0,947.0,1.0,1,108.0,1
217,217,0.1634475063545432,0.2,0.0,0.0,259.0,888.0,0.0,1,363.0,1
218,218,0.5386279459710223,0.5,0.0,0.0,418.0,674.0,0.0,1,198.0,1
219,219,-0.40544881015031276,-0.4,0.0,1.0,361.0,831.0,1.0,0,268.0,1
220,220,-0.7128202443688657,-0.7,1.0,0.0,413.0,965.0,0.0,0,182.0,1
221,221,-0.10334061435607433,-0.1,1.0,0.0,383.0,597.0,0.0,0,1330.0,1
222,222,-0.11720382107309413,-0.1,0.0,1.0,300.0,587.0,0.0,1,2113.0,0
223,223,-0.5082449938934772,-0.5,0.0,1.0,473.0,774.0,1.0,0,313.0,1
224,224,0.8115882620334846,0.8,0.0,0.0,298.0,750.0,0.0,1,172.0,1
225,225,-0.6424063104281968,-0.6,1.0,0.0,330.0,831.0,0.0,0,289.0,1
226,226,-0.6649430889618706,-0.7,1.0,0.0,373.0,711.0,0.0,0,206.0,1
227,227,0.49370376558357465,0.5,0.0,0.0,411.0,753.0,0.0,1,316.0,1
228,228,0.8757463157406643,0.9,0.0,0.0,404.0,905.0,0.0,1,121.0,1
229,229,0.2071627844583216,0.2,1.0,1.0,497.0,723.0,1.0,1,460.0,1
230,230,0.5013588743862781,0.5,0.0,0.0,302.0,778.0,0.0,1,120.0,1
231,231,-0.15062045122925471,-0.2,0.0,1.0,252.0,595.0,1.0,0,743.0,1
232,232,0.38693923545670283,0.4,1.0,1.0,255.0,840.0,1.0,1,115.0,1
233,233,0.43098898947755615,0.4,0.0,0.0,437.0,741.0,0.0,1,292.0,1
234,234,-0.520173066073756,-0.5,1.0,0.0,479.0,714.0,0.0,0,257.0,1
235,235,0.20487238500597205,0.2,1.0,1.0,446.0,591.0,1.0,1,393.0,1
236,236,0.15292658418303906,0.2,0.0,0.0,405.0,706.0,0.0,1,259.0,1
237,237,-0.1414184539664448,-0.1,0.0,1.0,458.0,526.0,1.0,0,1086.0,1
238,238,-0.3432473228424383,-0.3,1.0,0.0,394.0,688.0,0.0,0,638.0,1
239,239,-0.28330110921222773,-0.3,0.0,1.0,256.0,854.0,1.0,0,340.0,1
240,240,-0.1236569081335247,-0.1,0.0,1.0,332.0,702.0,1.0,0,606.0,1
241,241,0.3028364939389522,0.3,1.0,1.0,297.0,562.0,1.0,1,401.0,1
242,242,-0.3578806807083399,-0.4,1.0,0.0,412.0,902.0,0.0,0,206.0,1
243,243,0.467810353162217,0.5,1.0,1.0,356.0,910.0,1.0,1,24.0,1
244,244,0.002248857118879455,0.0,0.0,0.0,429.0,734.0,0.0,1,1837.0,1
245,245,-0.7920018277499755,-0.8,1.0,0.0,489.0,567.0,0.0,0,154.0,1
246,246,-0.6119083816274826,-0.6,0.0,1.0,256.0,934.0,1.0,0,200.0,1
247,247,0.22480393956759948,0.2,1.0,1.0,355.0,853.0,1.0,1,572.0,1
248,248,0.8568855185956171,0.9,1.0,1.0,300.0,725.0,1.0,1,115.0,1
249,249,-0.09024337730889964,-0.1,1.0,0.0,272.0,987.0,0.0,0,491.0,1
250,250,0.3337381755566774,0.3,1.0,1.0,341.0,681.0,1.0,1,158.0,1
251,251,0.05159642506346207,0.1,1.0,1.0,284.0,597.0,1.0,1,529.0,1
252,252,-0.572535818461932,-0.6,0.0,1.0,406.0,676.0,1.0,0,128.0,1
253,253,-0.2879017225161735,-0.3,0.0,1.0,348.0,837.0,1.0,0,95.0,1
254,254,0.672489249358167,0.7,1.0,1.0,254.0,887.0,1.0,1,-31.0,1
255,255,-0.25782625907858137,-0.3,0.0,1.0,352.0,921.0,1.0,0,467.0,1
256,256,0.22581454237852594,0.2,1.0,1.0,401.0,514.0,1.0,1,295.0,1
257,257,-0.049914237014468066,-0.0,0.0,1.0,439.0,936.0,1.0,0,1625.0,1
258,258,0.14393142198879272,0.1,0.0,0.0,357.0,657.0,0.0,1,356.0,1
259,259,-0.867177381214459,-0.9,1.0,0.0,495.0,614.0,0.0,0,601.0,1
260,260,0.32720373546059645,0.3,0.0,0.0,462.0,653.0,0.0,1,225.0,1
261,261,-0.615897655975297,-0.6,0.0,1.0,321.0,729.0,1.0,0,230.0,1
262,262,0.5358279446219737,0.5,0.0,0.0,269.0,517.0,0.0,1,284.0,1
263,263,0.4208886728641378,0.4,0.0,0.0,309.0,619.0,0.0,1,352.0,1
264,264,-0.6274906092577401,-0.6,0.0,1.0,447.0,714.0,1.0,0,289.0,1
265,265,0.21916679948368845,0.2,1.0,1.0,358.0,891.0,1.0,1,421.0,1
266,266,-0.16393300386705933,-0.2,0.0,1.0,356.0,695.0,1.0,0,939.0,1
267,267,-0.14965390182915117,-0.1,1.0,0.0,407.0,775.0,0.0,0,568.0,1
268,268,-0.22432306961527915,-0.2,1.0,0.0,460.0,623.0,0.0,0,517.0,1
269,269,-0.1183383354930514,-0.1,0.0,1.0,380.0,551.0,1.0,0,1079.0,1
270,270,0.3404130912445905,0.3,1.0,1.0,490.0,812.0,1.0,1,268.0,1
271,271,-0.2121492114424679,-0.2,1.0,0.0,311.0,620.0,0.0,0,429.0,1
272,272,-0.7023416786355119,-0.7,1.0,0.0,412.0,737.0,0.0,0,291.0,1
273,273,0.26542220698950925,0.3,1.0,1.0,449.0,510.0,1.0,1,501.0,1
274,274,-0.27938158730778717,-0.3,1.0,0.0,369.0,711.0,0.0,0,280.0,1
275,275,-0.5674654688455105,-0.6,1.0,0.0,366.0,513.0,0.0,0,381.0,1
276,276,0.4670097344519667,0.5,1.0,1.0,344.0,910.0,1.0,1,166.0,1
277,277,0.28564458322064723,0.3,1.0,1.0,318.0,884.0,1.0,1,198.0,1
278,278,0.5388107085072057,0.5,0.0,0.0,449.0,666.0,0.0,1,215.0,1
279,279,-0.1851056165342011,-0.2,1.0,0.0,357.0,774.0,0.0,0,279.0,1
280,280,0.15029993466204472,0.2,0.0,0.0,485.0,815.0,0.0,1,220.0,1
281,281,-0.7015713624181351,-0.7,0.0,1.0,426.0,792.0,1.0,0,162.0,1
282,282,0.18407099613702094,0.2,0.0,0.0,364.0,788.0,0.0,1,428.0,1
283,283,-0.18189946417913572,-0.2,1.0,0.0,328.0,631.0,0.0,0,291.0,1
284,284,-0.848734857253909,-0.8,0.0,1.0,279.0,593.0,1.0,0,188.0,1
285,285,-0.4697480110941309,-0.5,0.0,1.0,278.0,794.0,1.0,0,228.0,1
286,286,0.7251025649345414,0.7,1.0,1.0,350.0,776.0,1.0,1,64.0,1
287,287,-0.21597345682062896,-0.2,1.0,0.0,260.0,718.0,0.0,0,752.0,1
288,288,0.41138156858504116,0.4,0.0,0.0,348.0,678.0,0.0,1,154.0,1
289,289,-0.6348707278308838,-0.6,1.0,0.0,276.0,747.0,0.0,0,217.0,1
290,290,0.14214241924631843,0.1,0.0,0.0,350.0,677.0,0.0,1,293.0,1
291,291,0.8035360105436234,0.8,1.0,1.0,255.0,686.0,1.0,1,179.0,1
292,292,0.7610053005193217,0.8,0.0,0.0,262.0,776.0,0.0,1,112.0,1
293,293,0.5867129858614369,0.6,1.0,1.0,319.0,846.0,1.0,1,135.0,1
294,294,-0.42065442009846143,-0.4,1.0,0.0,446.0,546.0,0.0,0,218.0,1
295,295,0.5818403922346232,0.6,0.0,0.0,372.0,615.0,0.0,1,253.0,1
296,296,0.2939157652107304,0.3,1.0,1.0,326.0,788.0,1.0,1,106.0,1
297,297,0.5534019768239281,0.6,0.0,0.0,312.0,705.0,0.0,1,203.0,1
298,298,0.25887314663846717,0.3,0.0,0.0,311.0,686.0,0.0,1,263.0,1
299,299,0.8940060464897656,0.9,1.0,1.0,396.0,698.0,1.0,1,146.0,1
300,300,-0.783136867982795,-0.8,1.0,0.0,273.0,522.0,0.0,0,2205.0,1
301,301,-0.669194756103139,-0.7,0.0,1.0,466.0,749.0,1.0,0,115.0,1
302,302,-0.06045714240890465,-0.1,0.0,1.0,414.0,730.0,1.0,0,1856.0,1
303,303,-0.07198521540979397,-0.1,1.0,0.0,370.0,635.0,0.0,0,1175.0,1
304,304,0.6245363260298581,0.6,1.0,1.0,414.0,631.0,1.0,1,195.0,1
305,305,-0.8782864389816549,-0.9,1.0,0.0,381.0,968.0,0.0,0,111.0,1
306,306,0.10540483345168694,0.1,0.0,0.0,311.0,991.0,0.0,1,658.0,1
307,307,0.3530998144502594,0.4,0.0,0.0,323.0,901.0,0.0,1,546.0,1
308,308,-0.855776299639069,-0.9,1.0,0.0,359.0,865.0,0.0,0,236.0,1
309,309,-0.4753081184197897,-0.5,0.0,1.0,252.0,915.0,1.0,0,333.0,1
310,310,-0.3728300771281867,-0.4,1.0,0.0,426.0,882.0,0.0,0,242.0,1
311,311,0.01937297751634648,0.0,0.0,0.0,462.0,600.0,0.0,1,1108.0,1
312,312,-0.22976925731002396,-0.2,0.0,1.0,281.0,550.0,1.0,0,399.0,1
313,313,-0.37392629094380747,-0.4,0.0,1.0,468.0,611.0,1.0,0,361.0,1
314,314,0.23317635983591212,0.2,1.0,1.0,490.0,867.0,1.0,1,393.0,1
315,315,0.06447200330064251,0.1,0.0,0.0,327.0,786.0,0.0,1,687.0,1
316,316,0.39503554320487544,0.4,0.0,0.0,486.0,987.0,0.0,1,597.0,1
317,317,-0.593789440957603,-0.6,0.0,1.0,332.0,554.0,1.0,0,374.0,1
318,318,-0.7495460205045479,-0.7,1.0,0.0,374.0,875.0,0.0,0,161.0,1
319,319,0.25698886124863585,0.3,1.0,1.0,424.0,829.0,1.0,1,247.0,1
320,320,0.4809218252003301,0.5,1.0,1.0,311.0,579.0,1.0,1,200.0,1
321,321,0.2847714693867046,0.3,0.0,0.0,367.0,739.0,0.0,1,254.0,1
322,322,-0.22198100607138516,-0.2,0.0,1.0,425.0,573.0,1.0,0,502.0,1
323,323,0.8001401518107082,0.8,1.0,1.0,265.0,796.0,1.0,1,89.0,1
324,324,0.5877487571196615,0.6,1.0,1.0,389.0,601.0,1.0,1,330.0,1
325,325,0.8656397513205377,0.9,1.0,1.0,439.0,624.0,1.0,1,137.0,1
326,326,-0.14161157532007562,-0.1,0.0,1.0,306.0,565.0,1.0,0,799.0,1
327,327,0.06781658887314512,0.1,1.0,1.0,301.0,554.0,1.0,1,765.0,1
328,328,-0.0044934565730666565,-0.0,1.0,0.0,489.0,956.0,0.0,0,1555.0,1
329,329,-0.04910056493708703,-0.0,0.0,1.0,264.0,994.0,1.0,0,1742.0,1
330,330,-0.6661887744829458,-0.7,1.0,0.0,368.0,500.0,0.0,0,172.0,1
331,331,-0.5807712796936324,-0.6,0.0,1.0,339.0,992.0,1.0,0,149.0,1
332,332,-0.8465360040493773,-0.8,0.0,1.0,494.0,985.0,1.0,0,121.0,1
333,333,-0.7703822586579506,-0.8,0.0,1.0,409.0,531.0,1.0,0,180.0,1
334,334,-0.22505703814438738,-0.2,0.0,1.0,434.0,924.0,1.0,0,602.0,1
335,335,-0.1476607099999382,-0.1,1.0,0.0,264.0,502.0,0.0,0,714.0,1
336,336,0.7343892078073405,0.7,0.0,0.0,356.0,529.0,0.0,1,685.0,1
337,337,-0.8672583669357201,-0.9,1.0,0.0,397.0,773.0,0.0,0,160.0,1
338,338,0.03740477457231717,0.0,0.0,0.0,421.0,834.0,0.0,1,-315.0,1
339,339,-0.39368375071917283,-0.4,1.0,0.0,332.0,608.0,0.0,0,600.0,1
340,340,-0.6031958806994494,-0.6,1.0,0.0,447.0,675.0,0.0,0,558.0,1
341,341,0.0724818517006186,0.1,1.0,1.0,253.0,507.0,1.0,1,710.0,1
342,342,0.5682012154243149,0.6,1.0,1.0,317.0,602.0,1.0,1,211.0,1
343,343,0.34908853478035795,0.3,1.0,1.0,482.0,781.0,1.0,1,247.0,1
344,344,-0.1856608330916244,-0.2,0.0,1.0,477.0,696.0,1.0,0,547.0,1
345,345,0.06571426079498588,0.1,1.0,1.0,398.0,958.0,1.0,1,164.0,1
346,346,0.3502529054181961,0.4,1.0,1.0,344.0,687.0,1.0,1,229.0,1
347,347,-0.3197065488398765,-0.3,1.0,0.0,399.0,837.0,1.0,1,-16.0,0
348,348,-0.14327305605067886,-0.1,1.0,0.0,297.0,920.0,0.0,0,573.0,1
349,349,-0.8833382755568451,-0.9,0.0,1.0,393.0,641.0,1.0,0,286.0,1
350,350,0.09522255688755898,0.1,1.0,1.0,347.0,908.0,1.0,1,-15.0,1
351,351,0.3942033402972257,0.4,0.0,0.0,413.0,643.0,0.0,1,174.0,1
352,352,-0.6848020009435795,-0.7,1.0,0.0,453.0,826.0,0.0,0,171.0,1
353,353,0.39763799234420516,0.4,1.0,1.0,463.0,779.0,1.0,1,328.0,1
354,354,-0.43404079915670957,-0.4,1.0,0.0,467.0,825.0,0.0,0,528.0,1
355,355,-0.49073783982272906,-0.5,1.0,0.0,428.0,939.0,0.0,0,263.0,1
356,356,-0.3345414881796993,-0.3,0.0,1.0,450.0,891.0,1.0,0,319.0,1
357,357,-0.5900410626673639,-0.6,1.0,0.0,428.0,770.0,0.0,0,222.0,1
358,358,0.4353876333781218,0.4,0.0,0.0,322.0,647.0,0.0,1,291.0,1
359,359,-0.8502565718660368,-0.9,0.0,1.0,325.0,781.0,1.0,0,224.0,1
360,360,-0.23819158288059783,-0.2,0.0,1.0,363.0,784.0,1.0,0,323.0,1
361,361,0.505488760579503,0.5,0.0,0.0,405.0,567.0,0.0,1,228.0,1
362,362,-0.4744728471486415,-0.5,1.0,0.0,335.0,587.0,0.0,0,398.0,1
363,363,0.6165763308266793,0.6,0.0,0.0,480.0,898.0,0.0,1,112.0,1
364,364,0.7226758315878569,0.7,0.0,0.0,463.0,743.0,0.0,1,84.0,1
365,365,-0.15597762897387424,-0.2,1.0,0.0,309.0,782.0,0.0,0,689.0,1
366,366,0.7494723213647997,0.7,0.0,0.0,334.0,893.0,0.0,1,283.0,1
367,367,0.25311978618771536,0.3,0.0,0.0,436.0,822.0,0.0,1,592.0,1
368,368,0.7349820156886299,0.7,0.0,0.0,445.0,899.0,0.0,1,116.0,1
369,369,0.3042886177174883,0.3,0.0,0.0,266.0,658.0,0.0,1,176.0,1
370,370,-0.6052281553828636,-0.6,0.0,1.0,462.0,899.0,1.0,0,209.0,1
371,371,-0.11924642178804257,-0.1,0.0,1.0,495.0,735.0,1.0,0,840.0,1
372,372,-0.4941960461687496,-0.5,0.0,1.0,441.0,714.0,1.0,0,375.0,1
373,373,0.2314736828999907,0.2,0.0,0.0,404.0,934.0,0.0,1,762.0,1
374,374,0.44418825008862595,0.4,0.0,0.0,359.0,958.0,0.0,1,163.0,1
375,375,0.074730337505168,0.1,1.0,1.0,449.0,694.0,1.0,1,907.0,1
376,376,0.43623921981608904,0.4,0.0,0.0,474.0,610.0,0.0,1,486.0,1
377,377,-0.3374576186238508,-0.3,1.0,0.0,254.0,592.0,0.0,0,534.0,1
378,378,0.21184951208537595,0.2,1.0,1.0,310.0,766.0,1.0,1,514.0,1
379,379,0.8515909357097263,0.9,1.0,1.0,402.0,931.0,1.0,1,47.0,1
380,380,0.4501543501915003,0.5,1.0,1.0,414.0,968.0,1.0,1,138.0,1
381,381,0.273143168099098,0.3,1.0,1.0,400.0,958.0,1.0,1,62.0,1
382,382,-0.6726132036589091,-0.7,1.0,0.0,371.0,607.0,0.0,0,492.0,1
383,383,-0.5710756594093536,-0.6,1.0,0.0,288.0,828.0,0.0,0,174.0,1
384,384,-0.8050583054296138,-0.8,0.0,1.0,482.0,771.0,1.0,0,207.0,1
385,385,-0.8244006197171474,-0.8,1.0,0.0,385.0,647.0,0.0,0,178.0,1
386,386,0.5900098877206609,0.6,1.0,1.0,395.0,542.0,1.0,1,223.0,1
387,387,0.6068100458193227,0.6,1.0,1.0,284.0,787.0,1.0,1,259.0,1
388,388,0.4997268879590616,0.5,1.0,1.0,256.0,784.0,1.0,1,40.0,1
389,389,0.7432895876275291,0.7,0.0,0.0,326.0,716.0,0.0,1,208.0,1
390,390,0.6414386626450058,0.6,0.0,0.0,390.0,608.0,0.0,1,202.0,1
391,391,-0.4075354111590706,-0.4,1.0,0.0,261.0,618.0,0.0,0,261.0,1
392,392,0.5826064546108344,0.6,0.0,0.0,460.0,831.0,0.0,1,419.0,1
393,393,-0.13398537247211462,-0.1,1.0,0.0,281.0,756.0,0.0,0,393.0,1
394,394,-0.2166715110545483,-0.2,1.0,0.0,330.0,861.0,0.0,0,379.0,1
395,395,0.5115990449674074,0.5,1.0,1.0,449.0,753.0,1.0,1,168.0,1
396,396,-0.5485235972539835,-0.5,0.0,1.0,367.0,729.0,1.0,0,224.0,1
397,397,0.3710259487360804,0.4,0.0,0.0,446.0,657.0,0.0,1,387.0,1
398,398,0.23093608682085154,0.2,0.0,0.0,489.0,843.0,0.0,1,248.0,1
399,399,0.5296846297032963,0.5,1.0,1.0,262.0,514.0,1.0,1,194.0,1
400,400,-0.4525063837235072,-0.5,1.0,0.0,478.0,715.0,0.0,0,1067.0,1
401,401,-0.7909865147793984,-0.8,1.0,0.0,444.0,747.0,0.0,0,249.0,1
402,402,-0.8060689732195261,-0.8,0.0,1.0,338.0,504.0,1.0,0,108.0,1
403,403,-0.6403284494675803,-0.6,0.0,1.0,385.0,771.0,1.0,0,264.0,1
404,404,0.5908997418174754,0.6,0.0,0.0,404.0,856.0,0.0,1,210.0,1
405,405,0.1994842670387803,0.2,0.0,0.0,295.0,724.0,0.0,1,501.0,1
406,406,0.6720929000498889,0.7,1.0,1.0,458.0,666.0,1.0,1,116.0,1
407,407,0.051543787897103344,0.1,0.0,0.0,334.0,550.0,0.0,1,206.0,1
408,408,0.43082259130414113,0.4,0.0,0.0,425.0,581.0,0.0,1,1164.0,1
409,409,0.41959824875038876,0.4,0.0,0.0,486.0,858.0,0.0,1,146.0,1
410,410,-0.21564724199643792,-0.2,0.0,1.0,375.0,732.0,1.0,0,513.0,1
411,411,0.17812799028265924,0.2,1.0,1.0,499.0,878.0,1.0,1,383.0,1
412,412,-0.2929538676848661,-0.3,0.0,1.0,454.0,731.0,1.0,0,265.0,1
413,413,-0.17959572361842413,-0.2,0.0,1.0,349.0,809.0,1.0,0,552.0,1
414,414,0.8277678072313847,0.8,1.0,1.0,290.0,641.0,1.0,1,179.0,1
415,415,0.302380916638855,0.3,1.0,1.0,350.0,722.0,1.0,1,338.0,1
416,416,0.8220712488689973,0.8,0.0,0.0,345.0,623.0,0.0,1,92.0,1
417,417,-0.33459173721570645,-0.3,1.0,0.0,465.0,891.0,0.0,0,244.0,1
418,418,-0.5900227393522844,-0.6,0.0,1.0,297.0,814.0,1.0,0,179.0,1
419,419,-0.46020478225381944,-0.5,1.0,0.0,276.0,576.0,0.0,0,308.0,1
420,420,0.2471083956775183,0.2,0.0,0.0,251.0,754.0,0.0,1,335.0,1
421,421,-0.4961443347665652,-0.5,0.0,1.0,456.0,689.0,1.0,0,125.0,1
422,422,0.21677251679939624,0.2,1.0,1.0,347.0,859.0,1.0,1,314.0,1
423,423,-0.3475162940423462,-0.3,0.0,1.0,358.0,678.0,1.0,0,174.0,1
424,424,-0.8169007737038891,-0.8,0.0,1.0,440.0,970.0,1.0,0,60.0,1
425,425,-0.6070953427773673,-0.6,0.0,1.0,436.0,909.0,1.0,0,145.0,1
426,426,0.6644462599730038,0.7,1.0,1.0,432.0,945.0,1.0,1,93.0,1
427,427,0.7112928993929096,0.7,1.0,1.0,474.0,623.0,1.0,1,323.0,1
428,428,-0.13354266606577514,-0.1,1.0,0.0,476.0,754.0,0.0,0,390.0,1
429,429,0.8556178789417542,0.9,0.0,0.0,381.0,914.0,0.0,1,145.0,1
430,430,0.801438205060189,0.8,1.0,1.0,430.0,583.0,1.0,1,187.0,1
431,431,-0.04609048837944252,-0.0,0.0,1.0,481.0,742.0,1.0,0,787.0,1
432,432,0.7036489472611575,0.7,1.0,1.0,272.0,572.0,1.0,1,46.0,1
433,433,-0.8595047865922131,-0.9,1.0,0.0,359.0,953.0,0.0,0,198.0,1
434,434,-0.3253217487517224,-0.3,1.0,0.0,453.0,942.0,0.0,0,235.0,1
435,435,-0.8890991741604772,-0.9,1.0,0.0,474.0,932.0,0.0,0,44.0,1
436,436,-0.501577149144053,-0.5,1.0,0.0,365.0,722.0,0.0,0,143.0,1
437,437,-0.5675170111717427,-0.6,0.0,1.0,396.0,758.0,1.0,0,246.0,1
438,438,0.4412368174031479,0.4,1.0,1.0,323.0,889.0,1.0,1,48.0,1
439,439,0.05352867703234232,0.1,0.0,0.0,326.0,773.0,0.0,1,571.0,1
440,440,-0.8912106399764917,-0.9,1.0,0.0,398.0,760.0,0.0,0,82.0,1
441,441,0.6421367791118028,0.6,1.0,1.0,482.0,751.0,1.0,1,167.0,1
442,442,0.7448814489434,0.7,0.0,0.0,297.0,974.0,0.0,1,159.0,1
443,443,-0.802447019656136,-0.8,1.0,0.0,394.0,994.0,0.0,0,92.0,1
444,444,-0.40901989255662574,-0.4,0.0,1.0,399.0,574.0,1.0,0,537.0,1
445,445,-0.8980002899541881,-0.9,0.0,1.0,343.0,966.0,1.0,0,61.0,1
446,446,0.5913928117287862,0.6,1.0,1.0,432.0,920.0,1.0,1,158.0,1
447,447,0.22242347499385684,0.2,0.0,0.0,467.0,506.0,0.0,1,317.0,1
448,448,0.7167021018891958,0.7,0.0,0.0,283.0,553.0,0.0,1,324.0,1
449,449,-0.027377672708563394,-0.0,1.0,0.0,458.0,667.0,0.0,0,1475.0,1
450,450,-0.3359130288623413,-0.3,1.0,0.0,294.0,758.0,0.0,0,348.0,1
451,451,0.07319584965990011,0.1,1.0,1.0,493.0,987.0,1.0,1,500.0,1
452,452,-0.10153324478578818,-0.1,1.0,0.0,459.0,659.0,0.0,0,902.0,1
453,453,0.4707534835409638,0.5,0.0,0.0,422.0,705.0,0.0,1,203.0,1
454,454,0.7920057289460013,0.8,1.0,1.0,470.0,960.0,1.0,1,110.0,1
455,455,-0.6843544179896393,-0.7,1.0,0.0,264.0,648.0,0.0,0,108.0,1
456,456,0.7377595318962814,0.7,1.0,1.0,468.0,630.0,1.0,1,142.0,1
457,457,0.7799744668016985,0.8,0.0,0.0,314.0,833.0,0.0,1,253.0,1
458,458,0.07826379692369978,0.1,1.0,1.0,325.0,683.0,1.0,1,1882.0,1
459,459,-0.6956668625560511,-0.7,0.0,1.0,467.0,538.0,1.0,0,195.0,1
460,460,-0.6627201044610327,-0.7,0.0,1.0,439.0,862.0,1.0,0,129.0,1
461,461,-0.4064711642113307,-0.4,1.0,0.0,469.0,782.0,0.0,0,279.0,1
462,462,0.74120330032374,0.7,1.0,1.0,378.0,519.0,1.0,1,193.0,1
463,463,0.5078692294593253,0.5,1.0,1.0,279.0,730.0,1.0,1,261.0,1
464,464,-0.3555375672011012,-0.4,0.0,1.0,305.0,518.0,1.0,0,347.0,1
465,465,0.46592577936326485,0.5,1.0,1.0,374.0,693.0,1.0,1,183.0,1
466,466,0.5539373453864768,0.6,1.0,1.0,374.0,798.0,1.0,1,78.0,1
467,467,0.26503162694781424,0.3,0.0,0.0,344.0,848.0,0.0,1,278.0,1
468,468,0.36847458328628135,0.4,1.0,1.0,305.0,689.0,1.0,1,246.0,1
469,469,-0.257540150902305,-0.3,1.0,0.0,448.0,578.0,0.0,0,284.0,1
470,470,0.3808433830861112,0.4,1.0,1.0,258.0,695.0,1.0,1,167.0,1
471,471,0.39745687245628736,0.4,0.0,0.0,445.0,798.0,0.0,1,277.0,1
472,472,0.10494896856079128,0.1,0.0,0.0,476.0,711.0,0.0,1,333.0,1
473,473,-0.4266844791532788,-0.4,0.0,1.0,278.0,731.0,1.0,0,151.0,1
474,474,-0.6791510870185148,-0.7,0.0,1.0,406.0,693.0,1.0,0,201.0,1
475,475,-0.5753361770726657,-0.6,0.0,1.0,379.0,828.0,1.0,0,163.0,1
476,476,-0.007005317730231497,-0.0,1.0,0.0,369.0,554.0,1.0,1,597.0,0
477,477,0.4674458198274968,0.5,0.0,0.0,485.0,868.0,0.0,1,137.0,1
478,478,-0.3381355316000907,-0.3,1.0,0.0,377.0,982.0,0.0,0,261.0,1
479,479,-0.30882765422589065,-0.3,0.0,1.0,263.0,661.0,1.0,0,486.0,1
480,480,-0.29487507719703787,-0.3,0.0,1.0,290.0,645.0,1.0,0,475.0,1
481,481,0.5514349581455936,0.6,0.0,0.0,448.0,529.0,0.0,1,343.0,1
482,482,0.8123625279212624,0.8,0.0,0.0,475.0,710.0,0.0,1,155.0,1
483,483,0.7558077051059656,0.8,1.0,1.0,256.0,541.0,1.0,1,103.0,1
484,484,-0.026870259941422336,-0.0,0.0,1.0,258.0,550.0,1.0,0,592.0,1
485,485,-0.21941300521351303,-0.2,0.0,1.0,469.0,592.0,1.0,0,559.0,1
486,486,0.7572111153883679,0.8,1.0,1.0,263.0,613.0,1.0,1,94.0,1
487,487,-0.6819045802745431,-0.7,0.0,1.0,356.0,546.0,1.0,0,478.0,1
488,488,-0.4791328187841953,-0.5,1.0,0.0,368.0,604.0,0.0,0,358.0,1
489,489,0.39573459275693856,0.4,1.0,1.0,260.0,981.0,1.0,1,139.0,1
490,490,0.14437202028438645,0.1,1.0,1.0,421.0,564.0,1.0,1,515.0,1
491,491,-0.598852080408298,-0.6,1.0,0.0,368.0,729.0,0.0,0,173.0,1
492,492,-0.3038571894052865,-0.3,0.0,1.0,391.0,823.0,1.0,0,336.0,1
493,493,0.4486862426106787,0.4,1.0,1.0,278.0,867.0,1.0,1,165.0,1
494,494,-0.6789977094598115,-0.7,1.0,0.0,462.0,873.0,0.0,0,185.0,1
495,495,-0.2883509088234658,-0.3,0.0,1.0,364.0,622.0,1.0,0,634.0,1
496,496,0.653097191249966,0.7,1.0,1.0,422.0,585.0,1.0,1,133.0,1
497,497,-0.006524024158041097,-0.0,0.0,1.0,477.0,858.0,1.0,0,1665.0,1
498,498,-0.2650160674894416,-0.3,1.0,0.0,347.0,864.0,0.0,0,449.0,1
499,499,0.8761681739447896,0.9,0.0,0.0,420.0,568.0,0.0,1,142.0,1
500,500,0.5907648582131931,0.6,1.0,1.0,439.0,968.0,1.0,1,183.0,1
501,501,0.7866413411644887,0.8,1.0,1.0,268.0,624.0,1.0,1,218.0,1
502,502,-0.22991286970951397,-0.2,1.0,0.0,335.0,993.0,0.0,0,142.0,1
503,503,0.8780438885113543,0.9,0.0,0.0,425.0,728.0,0.0,1,157.0,1
504,504,0.23947974848599018,0.2,1.0,1.0,470.0,520.0,1.0,1,550.0,1
505,505,-0.8567341028539539,-0.9,1.0,0.0,480.0,829.0,0.0,0,91.0,1
506,506,-0.6079811774033083,-0.6,1.0,0.0,483.0,848.0,0.0,0,349.0,1
507,507,0.8819589023257891,0.9,0.0,0.0,447.0,779.0,0.0,1,134.0,1
508,508,-0.056759564624157544,-0.1,0.0,1.0,400.0,971.0,0.0,1,1629.0,0
509,509,-0.6712286520894539,-0.7,0.0,1.0,329.0,633.0,1.0,0,218.0,1
510,510,-0.13056835503457542,-0.1,0.0,1.0,460.0,858.0,1.0,0,502.0,1
511,511,0.8103071525301785,0.8,1.0,1.0,251.0,723.0,1.0,1,146.0,1
512,512,0.3594603756072182,0.4,1.0,1.0,364.0,883.0,1.0,1,293.0,1
513,513,-0.1609077026395911,-0.2,0.0,1.0,373.0,530.0,1.0,0,787.0,1
514,514,0.12514987941241562,0.1,0.0,0.0,388.0,787.0,0.0,1,455.0,1
515,515,0.18004948801130027,0.2,0.0,0.0,410.0,825.0,0.0,1,225.0,1
516,516,0.7365099997316976,0.7,0.0,0.0,406.0,809.0,0.0,1,275.0,1
517,517,-0.8547089826015544,-0.9,0.0,1.0,330.0,986.0,1.0,0,124.0,1
518,518,0.5763590375126911,0.6,0.0,0.0,277.0,843.0,0.0,1,110.0,1
519,519,0.5384551494255879,0.5,0.0,0.0,405.0,826.0,0.0,1,249.0,1
520,520,-0.6083711101943714,-0.6,1.0,0.0,381.0,567.0,0.0,0,2052.0,1
521,521,0.4882657760212147,0.5,0.0,0.0,264.0,880.0,0.0,1,206.0,1
522,522,-0.7726942372592096,-0.8,0.0,1.0,457.0,645.0,1.0,0,158.0,1
523,523,-0.5042588077109476,-0.5,0.0,1.0,314.0,718.0,1.0,0,188.0,1
524,524,0.08118074156957322,0.1,1.0,1.0,374.0,955.0,1.0,1,1671.0,1
525,525,0.2934141716773536,0.3,0.0,0.0,473.0,725.0,0.0,1,812.0,1
526,526,-0.004789511981030947,-0.0,0.0,1.0,438.0,575.0,0.0,1,1987.0,0
527,527,-0.6392088371110043,-0.6,1.0,0.0,421.0,551.0,0.0,0,348.0,1
528,528,-0.5352654938313213,-0.5,1.0,0.0,396.0,556.0,0.0,0,208.0,1
529,529,-0.7441193855275411,-0.7,0.0,1.0,452.0,717.0,1.0,0,191.0,1
530,530,0.8571819690189134,0.9,1.0,1.0,377.0,793.0,1.0,1,170.0,1
531,531,0.5107972618173257,0.5,0.0,0.0,345.0,946.0,0.0,1,59.0,1
532,532,0.3096159745466026,0.3,1.0,1.0,448.0,621.0,1.0,1,281.0,1
533,533,-0.6742020966150155,-0.7,0.0,1.0,273.0,833.0,1.0,0,184.0,1
534,534,-0.8098390974525719,-0.8,1.0,0.0,334.0,722.0,0.0,0,194.0,1
535,535,0.11204940660343488,0.1,0.0,0.0,461.0,972.0,0.0,1,537.0,1
536,536,0.7752823215059886,0.8,1.0,1.0,329.0,935.0,1.0,1,76.0,1
537,537,0.4652423126270707,0.5,1.0,1.0,261.0,514.0,1.0,1,395.0,1
538,538,-0.8006970755417594,-0.8,1.0,0.0,394.0,914.0,0.0,0,172.0,1
539,539,-0.28950570522213037,-0.3,0.0,1.0,485.0,752.0,1.0,0,293.0,1
540,540,0.8483808531092157,0.8,0.0,0.0,443.0,974.0,0.0,1,123.0,1
541,541,0.5981363809250874,0.6,1.0,1.0,380.0,566.0,1.0,1,304.0,1
542,542,-0.7393886419928648,-0.7,1.0,0.0,277.0,880.0,0.0,0,143.0,1
543,543,0.6657888396389405,0.7,0.0,0.0,430.0,581.0,0.0,1,679.0,1
544,544,0.17825517009141578,0.2,0.0,0.0,462.0,914.0,0.0,1,204.0,1
545,545,-0.7115016819659232,-0.7,1.0,0.0,442.0,717.0,0.0,0,261.0,1
546,546,0.7226625387946782,0.7,1.0,1.0,254.0,777.0,1.0,1,259.0,1
547,547,-0.7718062471081578,-0.8,0.0,1.0,267.0,717.0,1.0,0,176.0,1
548,548,-0.4496163164864951,-0.4,0.0,1.0,390.0,620.0,1.0,0,740.0,1
549,549,-0.5001401732750604,-0.5,0.0,1.0,329.0,540.0,1.0,0,181.0,1
550,550,0.0166883003703312,0.0,0.0,0.0,463.0,561.0,0.0,1,1976.0,1
551,551,-0.44198463354506645,-0.4,0.0,1.0,381.0,961.0,1.0,0,458.0,1
552,552,0.3057959117865826,0.3,0.0,0.0,329.0,971.0,0.0,1,540.0,1
553,553,-0.4138862672174594,-0.4,0.0,1.0,459.0,916.0,1.0,0,265.0,1
554,554,-0.31843938569728913,-0.3,1.0,0.0,334.0,726.0,0.0,0,280.0,1
555,555,0.8975653485299474,0.9,0.0,0.0,384.0,809.0,0.0,1,197.0,1
556,556,-0.4837009519054442,-0.5,1.0,0.0,355.0,677.0,0.0,0,488.0,1
557,557,-0.09161190752878012,-0.1,0.0,1.0,275.0,515.0,1.0,0,740.0,1
558,558,0.13011469208455895,0.1,1.0,1.0,452.0,994.0,1.0,1,14.0,1
559,559,-0.18371693358283214,-0.2,0.0,1.0,351.0,877.0,1.0,0,392.0,1
560,560,-0.8126180716455296,-0.8,1.0,0.0,424.0,576.0,0.0,0,250.0,1
561,561,0.025556529450413645,0.0,0.0,0.0,380.0,979.0,0.0,1,281.0,1
562,562,0.35628154511040677,0.4,0.0,0.0,446.0,753.0,0.0,1,311.0,1
563,563,0.8047350119263726,0.8,1.0,1.0,346.0,562.0,1.0,1,152.0,1
564,564,-0.10531634607536211,-0.1,1.0,0.0,387.0,951.0,0.0,0,1002.0,1
565,565,0.14915539850193793,0.1,0.0,0.0,495.0,558.0,0.0,1,397.0,1
566,566,-0.8876644174766676,-0.9,0.0,1.0,313.0,563.0,1.0,0,354.0,1
567,567,0.5346963081622799,0.5,1.0,1.0,394.0,680.0,1.0,1,166.0,1
568,568,0.8175216617561919,0.8,0.0,0.0,287.0,613.0,0.0,1,240.0,1
569,569,-0.26194936388473145,-0.3,1.0,0.0,320.0,507.0,0.0,0,493.0,1
570,570,-0.7046389401947071,-0.7,0.0,1.0,347.0,906.0,1.0,0,117.0,1
571,571,-0.07594792606589595,-0.1,1.0,0.0,314.0,530.0,0.0,0,356.0,1
572,572,-0.0953007438340766,-0.1,0.0,1.0,276.0,789.0,1.0,0,875.0,1
573,573,0.12025562218628971,0.1,1.0,1.0,279.0,956.0,1.0,1,205.0,1
574,574,0.6668922127910185,0.7,0.0,0.0,379.0,978.0,0.0,1,123.0,1
575,575,0.49279411283813135,0.5,1.0,1.0,474.0,734.0,1.0,1,122.0,1
576,576,-0.6944806212261491,-0.7,1.0,0.0,396.0,572.0,0.0,0,112.0,1
577,577,-0.3515493376681108,-0.4,1.0,0.0,277.0,747.0,0.0,0,336.0,1
578,578,-0.6797995877182961,-0.7,1.0,0.0,328.0,945.0,0.0,0,87.0,1
579,579,-0.40372293604892234,-0.4,0.0,1.0,478.0,698.0,1.0,0,344.0,1
580,580,0.18036240045388963,0.2,1.0,1.0,412.0,822.0,1.0,1,416.0,1
581,581,0.4141732563855457,0.4,0.0,0.0,307.0,573.0,0.0,1,370.0,1
582,582,0.03531701693812128,0.0,1.0,1.0,322.0,685.0,0.0,0,1263.0,0
583,583,-0.6803727263743103,-0.7,1.0,0.0,464.0,512.0,0.0,0,294.0,1
584,584,0.057780774595420414,0.1,1.0,1.0,298.0,760.0,1.0,1,812.0,1
585,585,-0.10030071185871581,-0.1,0.0,1.0,447.0,942.0,1.0,0,941.0,1
586,586,0.18697232846349843,0.2,0.0,0.0,320.0,908.0,0.0,1,492.0,1
587,587,0.6455544789410109,0.6,1.0,1.0,457.0,501.0,1.0,1,192.0,1
588,588,0.3465687940760541,0.3,0.0,0.0,459.0,694.0,0.0,1,417.0,1
589,589,0.42996757965955823,0.4,0.0,0.0,434.0,803.0,0.0,1,313.0,1
590,590,0.7647474842954035,0.8,1.0,1.0,395.0,800.0,1.0,1,145.0,1
591,591,-0.22054863821501103,-0.2,0.0,1.0,462.0,790.0,1.0,0,478.0,1
592,592,-0.08454209389544576,-0.1,0.0,1.0,499.0,840.0,1.0,0,1151.0,1
593,593,0.0777073276255218,0.1,1.0,1.0,298.0,714.0,1.0,1,558.0,1
594,594,-0.5917265494874064,-0.6,1.0,0.0,277.0,965.0,0.0,0,1758.0,1
595,595,-0.6589254766197696,-0.7,1.0,0.0,368.0,576.0,0.0,0,156.0,1
596,596,-0.4400133007020498,-0.4,0.0,1.0,282.0,931.0,1.0,0,127.0,1
597,597,-0.5314578170008468,-0.5,1.0,0.0,333.0,522.0,0.0,0,505.0,1
598,598,0.03477626630604347,0.0,1.0,1.0,446.0,929.0,0.0,0,935.0,0
599,599,-0.11281460228238005,-0.1,0.0,1.0,293.0,927.0,1.0,0,780.0,1
600,600,0.2747736303938023,0.3,1.0,1.0,389.0,980.0,1.0,1,211.0,1
601,601,-0.4182150641821592,-0.4,0.0,1.0,294.0,765.0,1.0,0,321.0,1
602,602,0.5807529255855103,0.6,1.0,1.0,332.0,810.0,1.0,1,-112.0,1
603,603,0.6670604001845252,0.7,1.0,1.0,338.0,802.0,1.0,1,140.0,1
604,604,0.046165994557845313,0.0,0.0,0.0,422.0,533.0,0.0,1,695.0,1
605,605,-0.4534931876326265,-0.5,0.0,1.0,365.0,713.0,1.0,0,262.0,1
606,606,-0.8234869464515423,-0.8,1.0,0.0,470.0,507.0,0.0,0,473.0,1
607,607,-0.7059158928530965,-0.7,1.0,0.0,385.0,961.0,0.0,0,174.0,1
608,608,0.07595977389774466,0.1,1.0,1.0,326.0,586.0,1.0,1,328.0,1
609,609,0.0006817304303686766,0.0,0.0,0.0,451.0,505.0,0.0,1,1604.0,1
610,610,-0.8064702220594107,-0.8,1.0,0.0,377.0,977.0,0.0,0,96.0,1
611,611,0.7639374076686819,0.8,0.0,0.0,322.0,939.0,0.0,1,89.0,1
612,612,0.5477921373533602,0.5,1.0,1.0,250.0,652.0,1.0,1,298.0,1
613,613,-0.10081799861804064,-0.1,1.0,0.0,359.0,829.0,0.0,0,1152.0,1
614,614,-0.7595933407732369,-0.8,0.0,1.0,334.0,738.0,1.0,0,168.0,1
615,615,0.7534688890841402,0.8,1.0,1.0,467.0,903.0,1.0,1,80.0,1
616,616,0.2006197881878916,0.2,1.0,1.0,264.0,649.0,1.0,1,217.0,1
617,617,0.07074559833714067,0.1,1.0,1.0,388.0,761.0,1.0,1,311.0,1
618,618,-0.5651103027362516,-0.6,1.0,0.0,391.0,678.0,0.0,0,501.0,1
619,619,-0.15838160356946285,-0.2,0.0,1.0,469.0,553.0,1.0,0,528.0,1
620,620,0.8506381131570669,0.9,1.0,1.0,328.0,617.0,1.0,1,255.0,1
621,621,0.6148047589304967,0.6,1.0,1.0,261.0,647.0,1.0,1,162.0,1
622,622,0.845622152442714,0.8,1.0,1.0,439.0,990.0,1.0,1,111.0,1
623,623,0.2135613563222304,0.2,1.0,1.0,272.0,843.0,1.0,1,415.0,1
624,624,0.5895758586106218,0.6,0.0,0.0,393.0,641.0,0.0,1,156.0,1
625,625,-0.32331167819040163,-0.3,0.0,1.0,495.0,925.0,1.0,0,200.0,1
626,626,0.7611737892058078,0.8,0.0,0.0,462.0,971.0,0.0,1,167.0,1
627,627,0.17182802043400025,0.2,1.0,1.0,453.0,923.0,1.0,1,384.0,1
628,628,0.2233552494299368,0.2,0.0,0.0,325.0,676.0,0.0,1,319.0,1
629,629,0.7167407019752928,0.7,1.0,1.0,357.0,987.0,1.0,1,-234.0,1
630,630,0.23724089683973626,0.2,0.0,0.0,262.0,742.0,0.0,1,576.0,1
631,631,0.5633127470280473,0.6,0.0,0.0,342.0,513.0,0.0,1,275.0,1
632,632,-0.11513108681116535,-0.1,0.0,1.0,293.0,661.0,1.0,0,556.0,1
633,633,-0.875282953589946,-0.9,1.0,0.0,260.0,573.0,0.0,0,237.0,1
634,634,0.5968000480586871,0.6,0.0,0.0,379.0,701.0,0.0,1,90.0,1
635,635,0.14982995457989656,0.1,1.0,1.0,356.0,587.0,1.0,1,747.0,1
636,636,-0.7133685440139614,-0.7,0.0,1.0,295.0,759.0,1.0,0,106.0,1
637,637,0.5303337711278554,0.5,0.0,0.0,378.0,817.0,0.0,1,255.0,1
638,638,-0.6329469706065403,-0.6,0.0,1.0,342.0,758.0,1.0,0,180.0,1
639,639,0.04388890942828261,0.0,0.0,0.0,312.0,644.0,0.0,1,954.0,1
640,640,0.8676635343338707,0.9,0.0,0.0,274.0,707.0,0.0,1,329.0,1
641,641,-0.5178191254279185,-0.5,1.0,0.0,412.0,617.0,0.0,0,531.0,1
642,642,-0.618122773565646,-0.6,0.0,1.0,498.0,549.0,1.0,0,273.0,1
643,643,0.3722015246129554,0.4,1.0,1.0,305.0,949.0,1.0,1,66.0,1
644,644,-0.13482758032679465,-0.1,0.0,1.0,271.0,922.0,1.0,0,597.0,1
645,645,-0.4769409141285341,-0.5,1.0,0.0,347.0,707.0,0.0,0,326.0,1
646,646,0.6051360628347996,0.6,0.0,0.0,310.0,513.0,0.0,1,147.0,1
647,647,-0.8362847127129229,-0.8,0.0,1.0,292.0,730.0,1.0,0,148.0,1
648,648,-0.44410541065163384,-0.4,0.0,1.0,430.0,613.0,1.0,0,377.0,1
649,649,-0.7859592728824277,-0.8,1.0,0.0,440.0,943.0,0.0,0,57.0,1
650,650,-0.29460274704067424,-0.3,0.0,1.0,432.0,553.0,1.0,0,425.0,1
651,651,0.11210783651896084,0.1,1.0,1.0,362.0,561.0,1.0,1,657.0,1
652,652,0.5439511286895903,0.5,0.0,0.0,413.0,579.0,0.0,1,328.0,1
653,653,-0.5714959041956703,-0.6,0.0,1.0,294.0,643.0,1.0,0,233.0,1
654,654,-0.6235905479229518,-0.6,1.0,0.0,267.0,973.0,0.0,0,120.0,1
655,655,-0.020784076083129044,-0.0,0.0,1.0,494.0,567.0,0.0,1,1079.0,0
656,656,0.36701004976686946,0.4,1.0,1.0,481.0,773.0,1.0,1,266.0,1
657,657,0.5912118972939323,0.6,0.0,0.0,338.0,681.0,0.0,1,541.0,1
658,658,0.047916141825866454,0.0,1.0,1.0,465.0,762.0,1.0,1,1773.0,1
659,659,-0.24328189169790715,-0.2,0.0,1.0,480.0,709.0,1.0,0,311.0,1
660,660,0.5625456801787966,0.6,1.0,1.0,363.0,613.0,1.0,1,254.0,1
661,661,-0.2787493382712408,-0.3,1.0,0.0,431.0,562.0,0.0,0,1017.0,1
662,662,-0.6658612043922538,-0.7,1.0,0.0,464.0,988.0,0.0,0,298.0,1
663,663,0.1418490124571471,0.1,0.0,0.0,420.0,922.0,0.0,1,218.0,1
664,664,0.6336761324704466,0.6,0.0,0.0,419.0,620.0,0.0,1,231.0,1
665,665,0.06328007589206908,0.1,1.0,1.0,439.0,957.0,1.0,1,234.0,1
666,666,-0.1105302598139255,-0.1,1.0,0.0,263.0,911.0,0.0,0,706.0,1
667,667,0.4756713429893632,0.5,0.0,0.0,362.0,501.0,0.0,1,347.0,1
668,668,0.5344306619659404,0.5,1.0,1.0,371.0,871.0,1.0,1,108.0,1
669,669,-0.39365986323853064,-0.4,0.0,1.0,272.0,774.0,1.0,0,314.0,1
670,670,-0.43218995383509995,-0.4,0.0,1.0,342.0,842.0,1.0,0,216.0,1
671,671,0.4444828838712286,0.4,0.0,0.0,442.0,790.0,0.0,1,708.0,1
672,672,0.7584312621997075,0.8,0.0,0.0,392.0,950.0,0.0,1,158.0,1
673,673,0.7186094072091181,0.7,1.0,1.0,318.0,631.0,1.0,1,121.0,1
674,674,-0.08475181284231614,-0.1,1.0,0.0,381.0,997.0,0.0,0,982.0,1
675,675,-0.465902264700021,-0.5,1.0,0.0,423.0,949.0,0.0,0,78.0,1
676,676,0.6124244159257016,0.6,0.0,0.0,402.0,874.0,0.0,1,424.0,1
677,677,0.31071715059339866,0.3,1.0,1.0,314.0,609.0,1.0,1,207.0,1
678,678,0.3650044587866438,0.4,0.0,0.0,415.0,951.0,0.0,1,74.0,1
679,679,-0.6007627018935193,-0.6,0.0,1.0,376.0,817.0,1.0,0,127.0,1
680,680,-0.5722538838689353,-0.6,1.0,0.0,372.0,854.0,0.0,0,144.0,1
681,681,0.4378502368079221,0.4,1.0,1.0,337.0,707.0,1.0,1,196.0,1
682,682,0.114688448872316,0.1,0.0,0.0,273.0,623.0,0.0,1,794.0,1
683,683,0.19483325402304053,0.2,1.0,1.0,374.0,809.0,1.0,1,247.0,1
684,684,0.479573884274915,0.5,1.0,1.0,378.0,708.0,1.0,1,104.0,1
685,685,0.7634255679548095,0.8,1.0,1.0,300.0,929.0,1.0,1,101.0,1
686,686,0.5161195548366247,0.5,0.0,0.0,287.0,607.0,0.0,1,426.0,1
687,687,0.6393347788817642,0.6,0.0,0.0,419.0,800.0,0.0,1,301.0,1
688,688,-0.375936363939145,-0.4,1.0,0.0,415.0,749.0,0.0,0,836.0,1
689,689,-0.19314003171652594,-0.2,1.0,0.0,475.0,718.0,0.0,0,447.0,1
690,690,-0.8043269990437738,-0.8,1.0,0.0,323.0,730.0,0.0,0,217.0,1
691,691,-0.7989956909024885,-0.8,0.0,1.0,341.0,724.0,1.0,0,125.0,1
692,692,0.4167278955486754,0.4,0.0,0.0,290.0,582.0,0.0,1,478.0,1
693,693,-0.7381666030357669,-0.7,0.0,1.0,295.0,881.0,1.0,0,144.0,1
694,694,-0.414169803602297,-0.4,1.0,0.0,467.0,864.0,0.0,0,339.0,1
695,695,0.2721457851315562,0.3,1.0,1.0,279.0,622.0,1.0,1,379.0,1
696,696,0.3832449232283667,0.4,1.0,1.0,478.0,827.0,1.0,1,135.0,1
697,697,0.18084224420283868,0.2,0.0,0.0,439.0,532.0,0.0,1,609.0,1
698,698,0.7695043423495124,0.8,0.0,0.0,362.0,909.0,0.0,1,239.0,1
699,699,-0.852935054293007,-0.9,0.0,1.0,383.0,856.0,1.0,0,101.0,1
700,700,-0.12504349411314186,-0.1,0.0,1.0,412.0,944.0,1.0,0,694.0,1
701,701,0.048217188652938225,0.0,0.0,0.0,282.0,768.0,0.0,1,470.0,1
702,702,-0.3017034633054655,-0.3,1.0,0.0,362.0,820.0,0.0,0,378.0,1
703,703,0.06117071909061966,0.1,1.0,1.0,497.0,769.0,1.0,1,274.0,1
704,704,0.39914616603026076,0.4,1.0,1.0,358.0,942.0,1.0,1,180.0,1
705,705,0.8348572752666189,0.8,0.0,0.0,352.0,864.0,0.0,1,224.0,1
706,706,-0.6660016033695507,-0.7,0.0,1.0,427.0,792.0,1.0,0,241.0,1
707,707,0.3536115580044509,0.4,0.0,0.0,327.0,517.0,0.0,1,636.0,1
708,708,0.14639976655795117,0.1,1.0,1.0,393.0,928.0,1.0,1,1319.0,1
709,709,0.7838530703270993,0.8,1.0,1.0,266.0,619.0,1.0,1,115.0,1
710,710,0.1767361945732352,0.2,1.0,1.0,375.0,612.0,1.0,1,443.0,1
711,711,-0.46439720547316826,-0.5,0.0,1.0,476.0,595.0,1.0,0,419.0,1
712,712,0.30762479898055195,0.3,1.0,1.0,413.0,828.0,1.0,1,229.0,1
713,713,-0.029890050419223546,-0.0,1.0,0.0,435.0,700.0,1.0,1,1865.0,0
714,714,-0.810584936609439,-0.8,0.0,1.0,379.0,518.0,1.0,0,303.0,1
715,715,0.6705849448165043,0.7,1.0,1.0,304.0,605.0,1.0,1,121.0,1
716,716,-0.6369370702101244,-0.6,1.0,0.0,285.0,862.0,0.0,0,253.0,1
717,717,-0.3846413573922737,-0.4,0.0,1.0,366.0,520.0,1.0,0,534.0,1
718,718,0.6654278895500972,0.7,1.0,1.0,322.0,865.0,1.0,1,173.0,1
719,719,0.23403868363218916,0.2,0.0,0.0,322.0,903.0,0.0,1,555.0,1
720,720,0.8060619615385985,0.8,1.0,1.0,487.0,949.0,1.0,1,104.0,1
721,721,-0.5054753721534935,-0.5,1.0,0.0,403.0,656.0,0.0,0,181.0,1
722,722,-0.08513389506456703,-0.1,0.0,1.0,462.0,822.0,1.0,0,376.0,1
723,723,-0.8535764805039695,-0.9,0.0,1.0,472.0,927.0,1.0,0,181.0,1
724,724,-0.7080914250407515,-0.7,0.0,1.0,404.0,821.0,1.0,0,135.0,1
725,725,0.038229624727200595,0.0,1.0,1.0,255.0,500.0,1.0,1,655.0,1
726,726,-0.7588795910877781,-0.8,0.0,1.0,383.0,835.0,1.0,0,162.0,1
727,727,0.08860125124340457,0.1,0.0,0.0,348.0,758.0,0.0,1,574.0,1
728,728,-0.6956279138630701,-0.7,0.0,1.0,348.0,660.0,1.0,0,182.0,1
729,729,-0.6709047575907436,-0.7,0.0,1.0,273.0,778.0,1.0,0,129.0,1
730,730,-0.19120958933510313,-0.2,0.0,1.0,284.0,657.0,1.0,0,679.0,1
731,731,-0.585535286504117,-0.6,0.0,1.0,258.0,907.0,1.0,0,155.0,1
732,732,-0.4667742969583459,-0.5,1.0,0.0,399.0,934.0,0.0,0,157.0,1
733,733,0.2992782979383791,0.3,0.0,0.0,329.0,701.0,0.0,1,320.0,1
734,734,-0.3611312121512299,-0.4,1.0,0.0,362.0,674.0,0.0,0,364.0,1
735,735,-0.8822978961307302,-0.9,0.0,1.0,374.0,809.0,1.0,0,107.0,1
736,736,-0.24703858184060123,-0.2,1.0,0.0,370.0,881.0,0.0,0,649.0,1
737,737,-0.7329701799528058,-0.7,0.0,1.0,314.0,915.0,1.0,0,61.0,1
738,738,0.5936669054362601,0.6,0.0,0.0,380.0,865.0,0.0,1,265.0,1
739,739,0.7742226551513208,0.8,1.0,1.0,262.0,524.0,1.0,1,114.0,1
740,740,-0.8614228159796475,-0.9,1.0,0.0,267.0,818.0,0.0,0,85.0,1
741,741,0.4735360927628921,0.5,0.0,0.0,289.0,512.0,0.0,1,519.0,1
742,742,-0.3778486324881004,-0.4,1.0,0.0,309.0,971.0,0.0,0,260.0,1
743,743,-0.06489265418858658,-0.1,0.0,1.0,429.0,628.0,1.0,0,1283.0,1
744,744,-0.7657141293954352,-0.8,0.0,1.0,435.0,834.0,1.0,0,81.0,1
745,745,0.10928746099231079,0.1,0.0,0.0,348.0,613.0,0.0,1,719.0,1
746,746,-0.8228600459566813,-0.8,1.0,0.0,269.0,798.0,0.0,0,303.0,1
747,747,0.6367911443852617,0.6,0.0,0.0,327.0,594.0,0.0,1,219.0,1
748,748,0.5060994354995979,0.5,0.0,0.0,438.0,615.0,0.0,1,217.0,1
749,749,-0.040883765238242775,-0.0,1.0,0.0,352.0,981.0,1.0,1,737.0,0
750,750,-0.07741499903792437,-0.1,0.0,1.0,281.0,629.0,1.0,0,370.0,1
751,751,-0.3407572084709538,-0.3,0.0,1.0,474.0,501.0,1.0,0,255.0,1
752,752,-0.35084325457436005,-0.4,1.0,0.0,439.0,735.0,0.0,0,206.0,1
753,753,0.892271012941991,0.9,0.0,0.0,269.0,839.0,0.0,1,102.0,1
754,754,0.024661681885331688,0.0,1.0,1.0,469.0,665.0,1.0,1,806.0,1
755,755,-0.8874974263052912,-0.9,0.0,1.0,436.0,946.0,1.0,0,118.0,1
756,756,-0.852314514726989,-0.9,1.0,0.0,443.0,822.0,0.0,0,225.0,1
757,757,-0.292356448560684,-0.3,1.0,0.0,438.0,853.0,0.0,0,319.0,1
758,758,0.20439264037061988,0.2,0.0,0.0,370.0,642.0,0.0,1,548.0,1
759,759,0.7824677940234225,0.8,0.0,0.0,415.0,818.0,0.0,1,197.0,1
760,760,0.6039008692275395,0.6,1.0,1.0,432.0,811.0,1.0,1,167.0,1
761,761,0.7949488018605232,0.8,1.0,1.0,455.0,503.0,1.0,1,212.0,1
762,762,0.5134361622029743,0.5,0.0,0.0,300.0,598.0,0.0,1,1702.0,1
763,763,0.19334342509135805,0.2,0.0,0.0,297.0,627.0,0.0,1,686.0,1
764,764,0.318608323366249,0.3,1.0,1.0,413.0,668.0,1.0,1,199.0,1
765,765,0.5968574538300541,0.6,0.0,0.0,441.0,606.0,0.0,1,303.0,1
766,766,-0.21311972319441508,-0.2,0.0,1.0,410.0,625.0,1.0,0,285.0,1
767,767,-0.5221059111440571,-0.5,1.0,0.0,486.0,598.0,0.0,0,456.0,1
768,768,-0.8272141589766031,-0.8,1.0,0.0,440.0,913.0,1.0,1,-133.0,0
769,769,0.46865897601304873,0.5,1.0,1.0,366.0,906.0,1.0,1,108.0,1
770,770,-0.21933384307126702,-0.2,1.0,0.0,346.0,665.0,0.0,0,509.0,1
771,771,0.1309748897066768,0.1,1.0,1.0,314.0,824.0,1.0,1,232.0,1
772,772,0.2483313234545389,0.2,0.0,0.0,326.0,715.0,0.0,1,779.0,1
773,773,-0.5735720951641121,-0.6,0.0,1.0,294.0,667.0,1.0,0,239.0,1
774,774,0.0035722061031693286,0.0,0.0,0.0,263.0,997.0,1.0,0,1740.0,0
775,775,-0.16072787516380938,-0.2,0.0,1.0,327.0,587.0,1.0,0,766.0,1
776,776,0.7457219950685704,0.7,1.0,1.0,368.0,851.0,1.0,1,61.0,1
777,777,0.8988501848054463,0.9,0.0,0.0,412.0,895.0,0.0,1,73.0,1
778,778,0.09661584466391049,0.1,1.0,1.0,402.0,567.0,1.0,1,671.0,1
779,779,0.4415981271918509,0.4,1.0,1.0,389.0,794.0,1.0,1,237.0,1
780,780,0.6760528513309304,0.7,0.0,0.0,448.0,881.0,0.0,1,231.0,1
781,781,0.14561597177286922,0.1,0.0,0.0,254.0,554.0,0.0,1,872.0,1
782,782,-0.5525719662798209,-0.6,0.0,1.0,305.0,880.0,1.0,0,335.0,1
783,783,0.8891534784631095,0.9,1.0,1.0,466.0,834.0,1.0,1,50.0,1
784,784,-0.7136512691823405,-0.7,1.0,0.0,296.0,931.0,0.0,0,73.0,1
785,785,-0.16385719152696698,-0.2,1.0,0.0,334.0,752.0,0.0,0,724.0,1
786,786,0.13856906330359975,0.1,0.0,0.0,299.0,897.0,0.0,1,434.0,1
787,787,-0.11611883638153997,-0.1,0.0,1.0,403.0,624.0,1.0,0,953.0,1
788,788,0.41418931249724567,0.4,1.0,1.0,396.0,513.0,1.0,1,51.0,1
789,789,0.8853905927915223,0.9,1.0,1.0,306.0,515.0,1.0,1,139.0,1
790,790,0.7097594547385059,0.7,1.0,1.0,341.0,929.0,1.0,1,100.0,1
791,791,0.07399877043860226,0.1,1.0,1.0,496.0,600.0,1.0,1,444.0,1
792,792,-0.5724882844318167,-0.6,1.0,0.0,490.0,698.0,0.0,0,292.0,1
793,793,0.7650948740248288,0.8,1.0,1.0,402.0,958.0,1.0,1,100.0,1
794,794,-0.5750712284741221,-0.6,0.0,1.0,409.0,501.0,1.0,0,520.0,1
795,795,0.4964287158747084,0.5,1.0,1.0,382.0,593.0,1.0,1,345.0,1
796,796,-0.7745659627090499,-0.8,1.0,0.0,348.0,565.0,0.0,0,407.0,1
797,797,-0.4929881756782892,-0.5,1.0,0.0,383.0,968.0,0.0,0,159.0,1
798,798,-0.38946640137987487,-0.4,1.0,0.0,424.0,921.0,0.0,0,165.0,1
799,799,-0.7039554556001163,-0.7,1.0,0.0,315.0,853.0,0.0,0,162.0,1
800,800,-0.16165962416448443,-0.2,1.0,0.0,312.0,625.0,0.0,0,443.0,1
801,801,-0.7298480407882828,-0.7,0.0,1.0,371.0,757.0,1.0,0,202.0,1
802,802,-0.02815333512014162,-0.0,1.0,0.0,383.0,731.0,1.0,1,1886.0,0
803,803,0.5040964147937547,0.5,1.0,1.0,257.0,646.0,1.0,1,117.0,1
804,804,-0.07792084252958342,-0.1,0.0,1.0,358.0,907.0,1.0,0,1095.0,1
805,805,-0.44958507584356433,-0.4,1.0,0.0,314.0,793.0,0.0,0,263.0,1
806,806,-0.3697391770711346,-0.4,1.0,0.0,351.0,848.0,0.0,0,271.0,1
807,807,-0.6872165421137704,-0.7,1.0,0.0,480.0,706.0,0.0,0,324.0,1
808,808,0.7437797278529622,0.7,1.0,1.0,402.0,610.0,1.0,1,178.0,1
809,809,-0.6069286458536431,-0.6,0.0,1.0,446.0,753.0,1.0,0,41.0,1
810,810,-0.4635199486174912,-0.5,0.0,1.0,411.0,924.0,1.0,0,195.0,1
811,811,0.5469274926879767,0.5,1.0,1.0,461.0,532.0,1.0,1,357.0,1
812,812,0.10394296352036692,0.1,1.0,1.0,401.0,881.0,1.0,1,278.0,1
813,813,0.4486541691088811,0.4,1.0,1.0,444.0,791.0,1.0,1,245.0,1
814,814,0.45169419094216756,0.5,1.0,1.0,382.0,986.0,1.0,1,282.0,1
815,815,-0.581467250109909,-0.6,1.0,0.0,258.0,910.0,0.0,0,102.0,1
816,816,0.6352894583866614,0.6,0.0,0.0,254.0,848.0,0.0,1,198.0,1
817,817,-0.39137375434668575,-0.4,1.0,0.0,493.0,956.0,0.0,0,151.0,1
818,818,0.7888229849921827,0.8,0.0,0.0,287.0,632.0,0.0,1,131.0,1
819,819,-0.2902635599191773,-0.3,0.0,1.0,295.0,858.0,1.0,0,477.0,1
820,820,-0.3481533087292987,-0.3,1.0,0.0,321.0,651.0,0.0,0,678.0,1
821,821,0.7809446002311483,0.8,0.0,0.0,266.0,855.0,0.0,1,99.0,1
822,822,0.5852365097326314,0.6,1.0,1.0,255.0,875.0,1.0,1,130.0,1
823,823,-0.5174815468181162,-0.5,0.0,1.0,335.0,798.0,1.0,0,197.0,1
824,824,-0.12807617796238413,-0.1,1.0,0.0,265.0,612.0,0.0,0,393.0,1
825,825,0.5122913031408837,0.5,1.0,1.0,436.0,986.0,1.0,1,148.0,1
826,826,-0.7864147865429967,-0.8,1.0,0.0,474.0,893.0,0.0,0,173.0,1
827,827,0.8558848404696707,0.9,0.0,0.0,313.0,871.0,0.0,1,196.0,1
828,828,0.6748676818580405,0.7,1.0,1.0,299.0,919.0,1.0,1,212.0,1
829,829,0.5719544959464223,0.6,0.0,0.0,410.0,980.0,0.0,1,40.0,1
830,830,-0.3821093556733185,-0.4,0.0,1.0,325.0,605.0,1.0,0,400.0,1
831,831,-0.6904678108412657,-0.7,0.0,1.0,352.0,887.0,1.0,0,161.0,1
832,832,-0.10587330729587607,-0.1,1.0,0.0,341.0,951.0,0.0,0,388.0,1
833,833,0.3630629832192821,0.4,0.0,0.0,375.0,597.0,0.0,1,348.0,1
834,834,-0.2557040576321682,-0.3,0.0,1.0,298.0,950.0,1.0,0,1002.0,1
835,835,0.36530429624701755,0.4,1.0,1.0,317.0,790.0,1.0,1,193.0,1
836,836,-0.09105674386270468,-0.1,0.0,1.0,358.0,989.0,1.0,0,813.0,1
837,837,0.17225968436613648,0.2,1.0,1.0,455.0,799.0,1.0,1,316.0,1
838,838,-0.25504923227864695,-0.3,0.0,1.0,357.0,599.0,1.0,0,224.0,1
839,839,-0.2710810178638098,-0.3,0.0,1.0,370.0,517.0,1.0,0,853.0,1
840,840,0.3660934339878904,0.4,1.0,1.0,433.0,576.0,1.0,1,201.0,1
841,841,-0.15623042998623693,-0.2,1.0,0.0,328.0,592.0,0.0,0,520.0,1
842,842,-0.28645082079480866,-0.3,0.0,1.0,381.0,635.0,1.0,0,304.0,1
843,843,-0.716280593896351,-0.7,1.0,0.0,363.0,712.0,0.0,0,225.0,1
844,844,-0.6542576430570046,-0.7,1.0,0.0,351.0,662.0,0.0,0,197.0,1
845,845,-0.21036713498473325,-0.2,0.0,1.0,276.0,560.0,1.0,0,244.0,1
846,846,0.8639420215539896,0.9,1.0,1.0,447.0,514.0,1.0,1,189.0,1
847,847,0.4414154489829455,0.4,0.0,0.0,257.0,913.0,0.0,1,160.0,1
848,848,-0.8282354435792554,-0.8,0.0,1.0,443.0,639.0,1.0,0,238.0,1
849,849,-0.6396761269832977,-0.6,1.0,0.0,317.0,687.0,0.0,0,436.0,1
850,850,-0.8244670514555816,-0.8,0.0,1.0,308.0,773.0,1.0,0,99.0,1
851,851,0.4608369124587589,0.5,1.0,1.0,480.0,759.0,1.0,1,141.0,1
852,852,-0.1352787266737011,-0.1,0.0,1.0,254.0,634.0,1.0,0,532.0,1
853,853,-0.3934267692466389,-0.4,1.0,0.0,289.0,861.0,0.0,0,250.0,1
854,854,-0.473057904650878,-0.5,1.0,0.0,285.0,592.0,0.0,0,243.0,1
855,855,0.764155107700205,0.8,0.0,0.0,311.0,847.0,0.0,1,122.0,1
856,856,-0.4583680389670982,-0.5,1.0,0.0,490.0,902.0,0.0,0,258.0,1
857,857,0.45004028995886414,0.5,0.0,0.0,472.0,554.0,0.0,1,474.0,1
858,858,-0.8951799259991822,-0.9,1.0,0.0,271.0,881.0,0.0,0,258.0,1
859,859,-0.41491264145600587,-0.4,1.0,0.0,347.0,940.0,0.0,0,53.0,1
860,860,0.39404213651575504,0.4,1.0,1.0,251.0,947.0,1.0,1,162.0,1
861,861,0.48406748083190576,0.5,1.0,1.0,336.0,712.0,1.0,1,102.0,1
862,862,0.3292862972231966,0.3,0.0,0.0,453.0,990.0,0.0,1,27.0,1
863,863,0.495294258629532,0.5,1.0,1.0,341.0,505.0,1.0,1,164.0,1
864,864,0.6320502348642744,0.6,1.0,1.0,374.0,990.0,1.0,1,106.0,1
865,865,0.7542657643260599,0.8,0.0,0.0,485.0,630.0,0.0,1,145.0,1
866,866,0.3642701756277872,0.4,0.0,0.0,304.0,733.0,0.0,1,243.0,1
867,867,-0.3081201829893696,-0.3,0.0,1.0,293.0,758.0,1.0,0,199.0,1
868,868,-0.017348077520171867,-0.0,0.0,1.0,250.0,971.0,1.0,0,769.0,1
869,869,0.006121520376104139,0.0,0.0,0.0,295.0,761.0,0.0,1,954.0,1
870,870,0.5378955112255145,0.5,1.0,1.0,482.0,837.0,1.0,1,171.0,1
871,871,-0.680549539954604,-0.7,1.0,0.0,323.0,561.0,0.0,0,296.0,1
872,872,0.5998797535314316,0.6,1.0,1.0,347.0,598.0,1.0,1,205.0,1
873,873,-0.4953480177424043,-0.5,0.0,1.0,441.0,567.0,1.0,0,862.0,1
874,874,0.30503852721814007,0.3,0.0,0.0,444.0,589.0,0.0,1,427.0,1
875,875,0.45515355303453997,0.5,1.0,1.0,493.0,733.0,1.0,1,194.0,1
876,876,-0.6289470541400703,-0.6,0.0,1.0,481.0,711.0,1.0,0,148.0,1
877,877,0.07132654573697483,0.1,1.0,1.0,378.0,611.0,1.0,1,1531.0,1
878,878,0.33691680556921166,0.3,1.0,1.0,290.0,773.0,1.0,1,327.0,1
879,879,-0.8373238236235686,-0.8,1.0,0.0,466.0,655.0,0.0,0,699.0,1
880,880,0.13531372730028812,0.1,0.0,0.0,426.0,962.0,0.0,1,242.0,1
881,881,0.7466449581383011,0.7,1.0,1.0,275.0,942.0,1.0,1,-77.0,1
882,882,0.6185334376496828,0.6,1.0,1.0,427.0,820.0,1.0,1,63.0,1
883,883,0.1531841025828159,0.2,1.0,1.0,437.0,731.0,1.0,1,282.0,1
884,884,0.48662071746581137,0.5,0.0,0.0,454.0,858.0,0.0,1,168.0,1
885,885,0.22401714209222867,0.2,1.0,1.0,291.0,503.0,1.0,1,336.0,1
886,886,0.2998997558923723,0.3,1.0,1.0,408.0,844.0,1.0,1,398.0,1
887,887,-0.07720331139885583,-0.1,0.0,1.0,426.0,922.0,1.0,0,672.0,1
888,888,0.8711045290000418,0.9,1.0,1.0,464.0,726.0,1.0,1,70.0,1
889,889,0.2618163606463738,0.3,0.0,0.0,373.0,805.0,0.0,1,192.0,1
890,890,0.8291540624422008,0.8,0.0,0.0,312.0,987.0,0.0,1,241.0,1
891,891,-0.48433287386692475,-0.5,1.0,0.0,375.0,916.0,0.0,0,299.0,1
892,892,-0.663349153434195,-0.7,1.0,0.0,434.0,907.0,0.0,0,149.0,1
893,893,-0.520345328139952,-0.5,1.0,0.0,380.0,968.0,0.0,0,192.0,1
894,894,-0.0567504416681649,-0.1,1.0,0.0,398.0,997.0,0.0,0,1605.0,1
895,895,-0.08010824470160804,-0.1,1.0,0.0,463.0,534.0,0.0,0,2003.0,1
896,896,-0.8037400346882632,-0.8,0.0,1.0,468.0,503.0,1.0,0,149.0,1
897,897,0.8515689553871694,0.9,0.0,0.0,259.0,523.0,1.0,0,2218.0,0
898,898,0.2475957280975084,0.2,0.0,0.0,365.0,679.0,0.0,1,446.0,1
899,899,-0.17981704435675006,-0.2,1.0,0.0,479.0,793.0,0.0,0,748.0,1
900,900,-0.17243988646972397,-0.2,0.0,1.0,266.0,735.0,1.0,0,149.0,1
901,901,-0.8124625613353994,-0.8,1.0,0.0,255.0,735.0,0.0,0,160.0,1
902,902,0.06173118810222378,0.1,0.0,0.0,465.0,529.0,0.0,1,916.0,1
903,903,0.6038425690759665,0.6,1.0,1.0,289.0,562.0,1.0,1,99.0,1
904,904,-0.011476202024163995,-0.0,0.0,1.0,477.0,633.0,1.0,0,1890.0,1
905,905,-0.4418022562256048,-0.4,1.0,0.0,341.0,708.0,0.0,0,181.0,1
906,906,-0.772891845871894,-0.8,0.0,1.0,355.0,754.0,1.0,0,131.0,1
907,907,-0.7246505499502087,-0.7,1.0,0.0,356.0,913.0,0.0,0,101.0,1
908,908,-0.6614845907318904,-0.7,1.0,0.0,425.0,870.0,0.0,0,185.0,1
909,909,-0.5354587591055229,-0.5,0.0,1.0,339.0,627.0,1.0,0,174.0,1
910,910,-0.0479735528700167,-0.0,0.0,1.0,432.0,914.0,0.0,1,894.0,0
911,911,0.2473579362017141,0.2,0.0,0.0,345.0,627.0,0.0,1,348.0,1
912,912,-0.5253760307655713,-0.5,1.0,0.0,361.0,934.0,0.0,0,135.0,1
913,913,0.7282297180627183,0.7,1.0,1.0,276.0,800.0,1.0,1,144.0,1
914,914,0.8285648621663736,0.8,1.0,1.0,452.0,595.0,1.0,1,203.0,1
915,915,0.7316038014877558,0.7,0.0,0.0,330.0,932.0,0.0,1,148.0,1
916,916,-0.3758654065318783,-0.4,0.0,1.0,293.0,772.0,1.0,0,315.0,1
917,917,0.1395225755069106,0.1,1.0,1.0,457.0,682.0,1.0,1,391.0,1
918,918,-0.23164157513367523,-0.2,0.0,1.0,301.0,803.0,1.0,0,286.0,1
919,919,-0.061159894250291,-0.1,0.0,1.0,351.0,719.0,0.0,1,1930.0,0
920,920,0.2556970256888972,0.3,1.0,1.0,287.0,804.0,1.0,1,289.0,1
921,921,-0.02276044644990305,-0.0,1.0,0.0,488.0,618.0,0.0,0,1014.0,1
922,922,0.08343757709359656,0.1,0.0,0.0,497.0,787.0,0.0,1,926.0,1
923,923,-0.5566636406753221,-0.6,0.0,1.0,494.0,818.0,1.0,0,68.0,1
924,924,-0.31687169102485424,-0.3,0.0,1.0,301.0,844.0,1.0,0,535.0,1
925,925,-0.8846214606476415,-0.9,0.0,1.0,343.0,790.0,1.0,0,37.0,1
926,926,0.3238673689793402,0.3,0.0,0.0,311.0,828.0,0.0,1,381.0,1
927,927,-0.45309424230609646,-0.5,0.0,1.0,336.0,951.0,1.0,0,333.0,1
928,928,0.4088059234407667,0.4,0.0,0.0,276.0,892.0,0.0,1,262.0,1
929,929,0.30513522231790347,0.3,0.0,0.0,273.0,726.0,0.0,1,401.0,1
930,930,-0.7123562831138319,-0.7,0.0,1.0,488.0,830.0,1.0,0,142.0,1
931,931,-0.764001202793966,-0.8,0.0,1.0,268.0,759.0,1.0,0,453.0,1
932,932,0.5233344981284035,0.5,0.0,0.0,434.0,733.0,0.0,1,243.0,1
933,933,-0.8179552984825805,-0.8,1.0,0.0,402.0,584.0,0.0,0,284.0,1
934,934,-0.8651905750337356,-0.9,0.0,1.0,336.0,500.0,1.0,0,244.0,1
935,935,0.5624519323014646,0.6,1.0,1.0,271.0,877.0,1.0,1,122.0,1
936,936,0.881474718505835,0.9,1.0,1.0,468.0,581.0,1.0,1,151.0,1
937,937,-0.42666472565284125,-0.4,1.0,0.0,368.0,658.0,0.0,0,164.0,1
938,938,-0.49735449134603316,-0.5,0.0,1.0,325.0,902.0,1.0,0,83.0,1
939,939,-0.6213641387097688,-0.6,1.0,0.0,464.0,936.0,1.0,1,0.0,0
940,940,0.4503484037473514,0.5,1.0,1.0,341.0,640.0,1.0,1,209.0,1
941,941,-0.574097825666855,-0.6,0.0,1.0,371.0,521.0,1.0,0,638.0,1
942,942,0.1764230222983324,0.2,1.0,1.0,430.0,579.0,1.0,1,181.0,1
943,943,-0.8063728816383493,-0.8,0.0,1.0,352.0,870.0,1.0,0,88.0,1
944,944,0.5941713633666378,0.6,0.0,0.0,494.0,792.0,0.0,1,144.0,1
945,945,0.6699242718712234,0.7,0.0,0.0,479.0,935.0,0.0,1,116.0,1
946,946,-0.03866312684504658,-0.0,1.0,0.0,322.0,962.0,0.0,0,1716.0,1
947,947,-0.13414655001658204,-0.1,1.0,0.0,398.0,533.0,0.0,0,759.0,1
948,948,-0.8049698879687752,-0.8,1.0,0.0,356.0,580.0,0.0,0,274.0,1
949,949,-0.7768867884038894,-0.8,1.0,0.0,344.0,807.0,0.0,0,209.0,1
950,950,0.045162724650910535,0.0,1.0,1.0,420.0,594.0,1.0,1,466.0,1
951,951,0.8637433590093216,0.9,0.0,0.0,458.0,569.0,0.0,1,213.0,1
952,952,0.3473987668326851,0.3,0.0,0.0,430.0,810.0,0.0,1,320.0,1
953,953,-0.4066772873710455,-0.4,0.0,1.0,458.0,990.0,1.0,0,142.0,1
954,954,0.6992848489636027,0.7,0.0,0.0,295.0,701.0,0.0,1,84.0,1
955,955,-0.8985991594462177,-0.9,1.0,0.0,414.0,836.0,0.0,0,160.0,1
956,956,0.8832391603290318,0.9,0.0,0.0,464.0,535.0,0.0,1,181.0,1
957,957,0.01712960750016812,0.0,1.0,1.0,459.0,744.0,1.0,1,1797.0,1
958,958,0.421189409154591,0.4,0.0,0.0,256.0,905.0,0.0,1,319.0,1
959,959,-0.5820625627952876,-0.6,0.0,1.0,351.0,671.0,1.0,0,238.0,1
960,960,0.3843790479994035,0.4,0.0,0.0,280.0,887.0,0.0,1,163.0,1
961,961,0.031146909191444583,0.0,1.0,1.0,442.0,758.0,1.0,1,690.0,1
962,962,-0.314763627183812,-0.3,0.0,1.0,308.0,959.0,1.0,0,33.0,1
963,963,0.848602987268756,0.8,0.0,0.0,386.0,813.0,0.0,1,191.0,1
964,964,0.8216682729561328,0.8,0.0,0.0,263.0,911.0,0.0,1,56.0,1
965,965,-0.26801871651155273,-0.3,1.0,0.0,392.0,859.0,0.0,0,179.0,1
966,966,0.4180760291370199,0.4,0.0,0.0,401.0,531.0,0.0,1,298.0,1
967,967,-0.20225799003159461,-0.2,0.0,1.0,432.0,795.0,1.0,0,283.0,1
968,968,0.4046820328665305,0.4,1.0,1.0,278.0,619.0,1.0,1,313.0,1
969,969,0.04711687465173853,0.0,0.0,0.0,385.0,979.0,0.0,1,496.0,1
970,970,-0.4998537148353298,-0.5,1.0,0.0,377.0,926.0,0.0,0,287.0,1
971,971,0.2121666326159618,0.2,1.0,1.0,265.0,688.0,1.0,1,297.0,1
972,972,-0.7941105077843791,-0.8,0.0,1.0,311.0,985.0,1.0,0,144.0,1
973,973,-0.5493476313577064,-0.5,1.0,0.0,259.0,547.0,0.0,0,204.0,1
974,974,-0.09656419594796672,-0.1,0.0,1.0,338.0,506.0,1.0,0,786.0,1
975,975,0.12784939298599596,0.1,0.0,0.0,360.0,852.0,0.0,1,538.0,1
976,976,-0.08930321984338296,-0.1,1.0,0.0,388.0,642.0,0.0,0,970.0,1
977,977,0.27845312124670574,0.3,0.0,0.0,270.0,723.0,0.0,1,307.0,1
978,978,0.2922539291677583,0.3,0.0,0.0,337.0,808.0,0.0,1,335.0,1
979,979,-0.6960302868460728,-0.7,1.0,0.0,364.0,776.0,1.0,1,-30.0,0
980,980,0.6676154886826381,0.7,0.0,0.0,363.0,670.0,0.0,1,357.0,1
981,981,-0.3627889083715048,-0.4,0.0,1.0,357.0,985.0,1.0,0,368.0,1
982,982,0.4061069391888962,0.4,1.0,1.0,272.0,708.0,1.0,1,330.0,1
983,983,-0.5251655019210655,-0.5,0.0,1.0,368.0,782.0,1.0,0,200.0,1
984,984,0.5431190900675139,0.5,1.0,1.0,319.0,555.0,1.0,1,186.0,1
985,985,-0.028020342434142975,-0.0,1.0,0.0,497.0,772.0,0.0,0,1521.0,1
986,986,-0.16443754413644363,-0.2,1.0,0.0,498.0,966.0,0.0,0,276.0,1
987,987,0.14657320069756208,0.1,1.0,1.0,408.0,708.0,1.0,1,184.0,1
988,988,-0.4774540382266728,-0.5,0.0,1.0,360.0,663.0,1.0,0,407.0,1
989,989,0.7047462482448393,0.7,0.0,0.0,418.0,866.0,0.0,1,216.0,1
990,990,-0.6507801169279583,-0.7,0.0,1.0,404.0,663.0,1.0,0,263.0,1
991,991,-0.1822273255152127,-0.2,0.0,1.0,303.0,942.0,1.0,0,1085.0,1
992,992,0.13392030119890286,0.1,0.0,0.0,375.0,960.0,0.0,1,1045.0,1
993,993,-0.5663393444673024,-0.6,0.0,1.0,484.0,783.0,1.0,0,313.0,1
994,994,-0.34361798945569444,-0.3,1.0,0.0,490.0,969.0,0.0,0,401.0,1
995,995,-0.8800810002783408,-0.9,0.0,1.0,368.0,946.0,1.0,0,146.0,1
996,996,-0.13557196659853532,-0.1,1.0,0.0,314.0,934.0,0.0,0,632.0,1
997,997,-0.8222199218030319,-0.8,1.0,0.0,454.0,884.0,0.0,0,162.0,1
998,998,0.6143564413652584,0.6,0.0,0.0,419.0,571.0,0.0,1,320.0,1
999,999,0.6612285159746328,0.7,1.0,1.0,272.0,776.0,1.0,1,92.0,1
1000,1000,-0.2575382124010033,-0.3,0.0,1.0,343.0,859.0,1.0,0,418.0,1
1001,1001,0.7092831219205563,0.7,1.0,1.0,455.0,572.0,1.0,1,323.0,1
1002,1002,0.24358785271043326,0.2,1.0,1.0,318.0,642.0,1.0,1,260.0,1
1003,1003,0.7845950092854531,0.8,1.0,1.0,413.0,579.0,1.0,1,228.0,1
1004,1004,0.49599263699106133,0.5,1.0,1.0,364.0,950.0,1.0,1,136.0,1
1005,1005,-0.07241374380628296,-0.1,1.0,0.0,429.0,876.0,0.0,0,1285.0,1
1006,1006,-0.3533496442630203,-0.4,1.0,0.0,377.0,939.0,0.0,0,174.0,1
1007,1007,0.7233005532070965,0.7,1.0,1.0,285.0,747.0,1.0,1,98.0,1
1008,1008,-0.7909587066918383,-0.8,1.0,0.0,402.0,754.0,0.0,0,204.0,1
1009,1009,0.7742831321694178,0.8,1.0,1.0,278.0,851.0,1.0,1,41.0,1
1010,1010,-0.6873768146212098,-0.7,1.0,0.0,277.0,691.0,0.0,0,142.0,1
1011,1011,-0.26060309772385426,-0.3,1.0,0.0,429.0,543.0,0.0,0,498.0,1
1012,1012,-0.7785415514062651,-0.8,0.0,1.0,338.0,893.0,1.0,0,109.0,1
1013,1013,-0.16403811187532769,-0.2,1.0,0.0,362.0,795.0,0.0,0,1083.0,1
1014,1014,-0.5278921164289444,-0.5,0.0,1.0,317.0,577.0,1.0,0,376.0,1
1015,1015,0.30548577913472774,0.3,0.0,0.0,459.0,635.0,0.0,1,516.0,1
1016,1016,-0.5313901443411466,-0.5,0.0,1.0,260.0,516.0,1.0,0,234.0,1
1017,1017,-0.5762795114189634,-0.6,0.0,1.0,483.0,872.0,1.0,0,155.0,1
1018,1018,0.7706209062657313,0.8,0.0,0.0,413.0,821.0,0.0,1,176.0,1
1019,1019,-0.016785287340692512,-0.0,1.0,0.0,277.0,762.0,0.0,0,1961.0,1
1020,1020,-0.874510703350201,-0.9,1.0,0.0,360.0,587.0,0.0,0,263.0,1
1021,1021,-0.21661158335329267,-0.2,0.0,1.0,325.0,569.0,1.0,0,466.0,1
1022,1022,-0.5139692648103297,-0.5,0.0,1.0,453.0,732.0,1.0,0,215.0,1
1023,1023,0.7268633476876273,0.7,1.0,1.0,297.0,802.0,1.0,1,111.0,1
1024,1024,0.591661351303251,0.6,1.0,1.0,476.0,756.0,1.0,1,58.0,1
1025,1025,-0.6551035736706761,-0.7,1.0,0.0,435.0,636.0,0.0,0,199.0,1
1026,1026,-0.19439662839280292,-0.2,0.0,1.0,413.0,514.0,1.0,0,1003.0,1
1027,1027,0.1475160008662436,0.1,0.0,0.0,440.0,804.0,0.0,1,576.0,1
1028,1028,-0.17477154046652,-0.2,0.0,1.0,340.0,874.0,1.0,0,226.0,1
1029,1029,0.6371872098518193,0.6,1.0,1.0,342.0,841.0,1.0,1,137.0,1
1030,1030,-0.39089415356337986,-0.4,0.0,1.0,473.0,799.0,1.0,0,338.0,1
1031,1031,-0.12899096858198533,-0.1,1.0,0.0,321.0,706.0,0.0,0,1603.0,1
1032,1032,0.7389402973123397,0.7,0.0,0.0,288.0,741.0,0.0,1,61.0,1
1033,1033,-0.5358733537673221,-0.5,1.0,0.0,257.0,589.0,0.0,0,334.0,1
1034,1034,-0.15435795699899513,-0.2,1.0,0.0,265.0,574.0,0.0,0,581.0,1
1035,1035,0.7625787086335784,0.8,1.0,1.0,420.0,990.0,1.0,1,-270.0,1
1036,1036,0.5828054289578294,0.6,1.0,1.0,319.0,880.0,1.0,1,141.0,1
1037,1037,0.10196101357245302,0.1,0.0,0.0,345.0,604.0,0.0,1,661.0,1
1038,1038,-0.45156428743328525,-0.5,1.0,0.0,299.0,517.0,0.0,0,774.0,1
1039,1039,0.48290763753130805,0.5,1.0,1.0,393.0,710.0,1.0,1,207.0,1
1040,1040,-0.5996038817849619,-0.6,0.0,1.0,257.0,865.0,1.0,0,88.0,1
1041,1041,-0.7656873708171872,-0.8,1.0,0.0,331.0,860.0,0.0,0,199.0,1
1042,1042,-0.6537959686199843,-0.7,0.0,1.0,435.0,628.0,1.0,0,167.0,1
1043,1043,0.8987885754122978,0.9,1.0,1.0,447.0,956.0,1.0,1,97.0,1
1044,1044,0.3684956277089392,0.4,0.0,0.0,471.0,758.0,0.0,1,281.0,1
1045,1045,0.25556529276189,0.3,1.0,1.0,255.0,642.0,1.0,1,273.0,1
1046,1046,-0.7613287402901266,-0.8,1.0,0.0,355.0,941.0,0.0,0,154.0,1
1047,1047,0.3423038736165819,0.3,0.0,0.0,263.0,507.0,0.0,1,340.0,1
1048,1048,-0.3613277298421649,-0.4,1.0,0.0,360.0,625.0,0.0,0,325.0,1
1049,1049,-0.3597707955788024,-0.4,0.0,1.0,342.0,715.0,1.0,0,183.0,1
1050,1050,-0.8926558371300544,-0.9,1.0,0.0,359.0,573.0,0.0,0,428.0,1
1051,1051,0.6101333176951441,0.6,0.0,0.0,285.0,520.0,0.0,1,475.0,1
1052,1052,0.25279892343667,0.3,1.0,1.0,481.0,644.0,1.0,1,495.0,1
1053,1053,0.6250739334644074,0.6,1.0,1.0,349.0,943.0,1.0,1,28.0,1
1054,1054,-0.17035557794758316,-0.2,1.0,0.0,445.0,661.0,0.0,0,1324.0,1
1055,1055,-0.5580294384222984,-0.6,1.0,0.0,487.0,895.0,0.0,0,308.0,1
1056,1056,-0.7932872128524774,-0.8,0.0,1.0,366.0,757.0,1.0,0,187.0,1
1057,1057,-0.6689279764139611,-0.7,1.0,0.0,279.0,597.0,0.0,0,254.0,1
1058,1058,0.09928401977744006,0.1,1.0,1.0,341.0,982.0,1.0,1,97.0,1
1059,1059,-0.010167602903887074,-0.0,0.0,1.0,281.0,771.0,0.0,1,1948.0,0
1060,1060,-0.23843356020699802,-0.2,0.0,1.0,327.0,648.0,1.0,0,665.0,1
1061,1061,0.2927075294881768,0.3,1.0,1.0,364.0,561.0,1.0,1,255.0,1
1062,1062,-0.6785111607600411,-0.7,0.0,1.0,380.0,806.0,1.0,0,104.0,1
1063,1063,-0.5856367141338008,-0.6,0.0,1.0,367.0,568.0,1.0,0,645.0,1
1064,1064,-0.8147293919143167,-0.8,0.0,1.0,289.0,604.0,1.0,0,117.0,1
1065,1065,-0.19084565232211903,-0.2,1.0,0.0,492.0,935.0,0.0,0,583.0,1
1066,1066,0.21480696487564133,0.2,0.0,0.0,430.0,815.0,0.0,1,165.0,1
1067,1067,-0.8933959491336559,-0.9,0.0,1.0,476.0,760.0,1.0,0,194.0,1
1068,1068,-0.2565912351548717,-0.3,0.0,1.0,326.0,720.0,1.0,0,454.0,1
1069,1069,0.2229826257247477,0.2,0.0,0.0,475.0,771.0,0.0,1,484.0,1
1070,1070,-0.17503272967870542,-0.2,1.0,0.0,310.0,668.0,0.0,0,322.0,1
1071,1071,0.859200555297846,0.9,1.0,1.0,302.0,781.0,1.0,1,57.0,1
1072,1072,-0.3165851265030717,-0.3,1.0,0.0,265.0,669.0,0.0,0,416.0,1
1073,1073,-0.38995659592924803,-0.4,1.0,0.0,320.0,629.0,0.0,0,401.0,1
1074,1074,0.6648454759386712,0.7,0.0,0.0,304.0,695.0,0.0,1,151.0,1
1075,1075,-0.4102662055862697,-0.4,0.0,1.0,415.0,611.0,1.0,0,154.0,1
1076,1076,-0.053016938705708005,-0.1,1.0,0.0,252.0,649.0,0.0,0,1579.0,1
1077,1077,-0.39570395183751983,-0.4,1.0,0.0,432.0,522.0,0.0,0,446.0,1
1078,1078,-0.09781395263034454,-0.1,1.0,0.0,398.0,998.0,0.0,0,464.0,1
1079,1079,0.6945631219442131,0.7,1.0,1.0,324.0,963.0,1.0,1,143.0,1
1080,1080,0.47170006921900953,0.5,0.0,0.0,461.0,784.0,0.0,1,255.0,1
1081,1081,0.03992819899932076,0.0,1.0,1.0,277.0,685.0,1.0,1,398.0,1
1082,1082,-0.8576241119101013,-0.9,0.0,1.0,450.0,709.0,1.0,0,221.0,1
1083,1083,-0.8342196296441513,-0.8,1.0,0.0,296.0,608.0,0.0,0,196.0,1
1084,1084,-0.18757927048995526,-0.2,0.0,1.0,372.0,559.0,1.0,0,589.0,1
1085,1085,-0.4348392622317545,-0.4,1.0,0.0,347.0,966.0,0.0,0,277.0,1
1086,1086,-0.4002709815788222,-0.4,0.0,1.0,291.0,803.0,1.0,0,206.0,1
1087,1087,-0.028159842259442014,-0.0,1.0,0.0,372.0,920.0,1.0,1,1708.0,0
1088,1088,-0.3927779623566997,-0.4,1.0,0.0,352.0,960.0,0.0,0,248.0,1
1089,1089,0.23011322056880668,0.2,1.0,1.0,464.0,537.0,1.0,1,409.0,1
1090,1090,-0.6995297927846208,-0.7,1.0,0.0,441.0,852.0,0.0,0,137.0,1
1091,1091,0.17240942405718884,0.2,0.0,0.0,454.0,567.0,0.0,1,829.0,1
1092,1092,0.44261623752538826,0.4,1.0,1.0,429.0,581.0,1.0,1,220.0,1
1093,1093,-0.3007534997570328,-0.3,0.0,1.0,387.0,583.0,1.0,0,290.0,1
1094,1094,-0.8305708757517781,-0.8,1.0,0.0,395.0,953.0,0.0,0,122.0,1
1095,1095,0.46927822077661097,0.5,1.0,1.0,398.0,622.0,1.0,1,300.0,1
1096,1096,-0.21233513793866443,-0.2,1.0,0.0,335.0,509.0,0.0,0,846.0,1
1097,1097,0.35212176785859095,0.4,1.0,1.0,335.0,721.0,1.0,1,284.0,1
1098,1098,-0.7555948896842715,-0.8,1.0,0.0,417.0,510.0,0.0,0,173.0,1
1099,1099,-0.44257113184650304,-0.4,0.0,1.0,331.0,823.0,1.0,0,96.0,1
1100,1100,0.09976433257474848,0.1,1.0,1.0,449.0,517.0,1.0,1,684.0,1
1101,1101,0.105675880401492,0.1,0.0,0.0,412.0,766.0,0.0,1,672.0,1
1102,1102,-0.30908855899439225,-0.3,1.0,0.0,300.0,871.0,0.0,0,409.0,1
1103,1103,-0.38391148175694323,-0.4,1.0,0.0,486.0,724.0,0.0,0,570.0,1
1104,1104,-0.48477841078078004,-0.5,0.0,1.0,372.0,955.0,1.0,0,183.0,1
1105,1105,0.29238678603970725,0.3,0.0,0.0,470.0,689.0,0.0,1,461.0,1
1106,1106,-0.3714083093960717,-0.4,0.0,1.0,407.0,910.0,1.0,0,123.0,1
1107,1107,0.5455680631824337,0.5,0.0,0.0,385.0,903.0,0.0,1,422.0,1
1108,1108,0.30232509838563104,0.3,1.0,1.0,383.0,645.0,1.0,1,342.0,1
1109,1109,-0.5275113446426434,-0.5,1.0,0.0,488.0,744.0,0.0,0,268.0,1
1110,1110,-0.2983517657171951,-0.3,1.0,0.0,395.0,985.0,0.0,0,310.0,1
1111,1111,-0.4517122030374361,-0.5,0.0,1.0,450.0,516.0,1.0,0,224.0,1
1112,1112,0.8146701026195985,0.8,0.0,0.0,296.0,539.0,0.0,1,185.0,1
1113,1113,0.8905955706279364,0.9,1.0,1.0,430.0,605.0,1.0,1,135.0,1
1114,1114,0.6405172885115359,0.6,0.0,0.0,336.0,597.0,0.0,1,437.0,1
1115,1115,0.6040206458353007,0.6,1.0,1.0,336.0,952.0,1.0,1,142.0,1
1116,1116,-0.3599686894834433,-0.4,1.0,0.0,346.0,758.0,0.0,0,256.0,1
1117,1117,-0.35245718875420096,-0.4,0.0,1.0,271.0,679.0,1.0,0,450.0,1
1118,1118,0.5700128335426121,0.6,0.0,0.0,340.0,602.0,0.0,1,278.0,1
1119,1119,0.8380302092578916,0.8,1.0,1.0,386.0,652.0,1.0,1,212.0,1
1120,1120,0.07543527822604801,0.1,1.0,1.0,362.0,670.0,1.0,1,328.0,1
1121,1121,0.046009872216196124,0.0,0.0,0.0,276.0,768.0,0.0,1,446.0,1
1122,1122,0.698816477030853,0.7,0.0,0.0,334.0,621.0,0.0,1,115.0,1
1123,1123,-0.4258051752839687,-0.4,1.0,0.0,349.0,669.0,0.0,0,272.0,1
1124,1124,0.30454694110708525,0.3,1.0,1.0,474.0,907.0,1.0,1,329.0,1
1125,1125,-0.4236463361660434,-0.4,1.0,0.0,254.0,980.0,0.0,0,226.0,1
1126,1126,-0.6460227653849882,-0.6,0.0,1.0,440.0,979.0,1.0,0,201.0,1
1127,1127,-0.0624029052882763,-0.1,0.0,1.0,332.0,798.0,1.0,0,960.0,1
1128,1128,-0.2823783580799837,-0.3,1.0,0.0,498.0,882.0,0.0,0,890.0,1
1129,1129,0.28090389219087764,0.3,1.0,1.0,389.0,864.0,1.0,1,187.0,1
1130,1130,0.8989690521165398,0.9,1.0,1.0,335.0,534.0,1.0,1,211.0,1
1131,1131,-0.6651819518313054,-0.7,0.0,1.0,281.0,734.0,1.0,0,175.0,1
1132,1132,-0.0013921406066594866,-0.0,0.0,1.0,349.0,890.0,1.0,0,1761.0,1
1133,1133,-0.15417004777357446,-0.2,0.0,1.0,405.0,991.0,1.0,0,474.0,1
1134,1134,0.17570539348233127,0.2,0.0,0.0,392.0,593.0,0.0,1,1525.0,1
1135,1135,0.34482102017704663,0.3,1.0,1.0,327.0,793.0,1.0,1,270.0,1
1136,1136,0.39053015140320035,0.4,1.0,1.0,438.0,778.0,1.0,1,204.0,1
1137,1137,-0.012209258555343938,-0.0,1.0,0.0,487.0,900.0,1.0,1,1613.0,0
1138,1138,0.7868023891603423,0.8,1.0,1.0,303.0,875.0,1.0,1,282.0,1
1139,1139,-0.17606104738420392,-0.2,0.0,1.0,270.0,745.0,1.0,0,745.0,1
1140,1140,-0.227387862107991,-0.2,1.0,0.0,262.0,574.0,0.0,0,354.0,1
1141,1141,0.5180744778389764,0.5,0.0,0.0,468.0,789.0,0.0,1,43.0,1
1142,1142,-0.07165703025351655,-0.1,0.0,1.0,322.0,664.0,1.0,0,1814.0,1
1143,1143,0.5715435647554966,0.6,1.0,1.0,437.0,968.0,1.0,1,165.0,1
1144,1144,0.7503620079541208,0.8,1.0,1.0,423.0,609.0,1.0,1,168.0,1
1145,1145,-0.2567742374281783,-0.3,0.0,1.0,409.0,566.0,1.0,0,475.0,1
1146,1146,-0.3721233229308847,-0.4,0.0,1.0,349.0,836.0,1.0,0,235.0,1
1147,1147,-0.8237875812804719,-0.8,1.0,0.0,395.0,558.0,0.0,0,217.0,1
1148,1148,0.7900243480741264,0.8,1.0,1.0,432.0,636.0,1.0,1,102.0,1
1149,1149,0.7449317794254523,0.7,1.0,1.0,265.0,660.0,1.0,1,125.0,1
1150,1150,-0.5090183340425853,-0.5,1.0,0.0,408.0,929.0,0.0,0,173.0,1
1151,1151,-0.8311567519195763,-0.8,0.0,1.0,356.0,502.0,1.0,0,192.0,1
1152,1152,0.7414337666299197,0.7,0.0,0.0,346.0,781.0,0.0,1,483.0,1
1153,1153,-0.6903317860750652,-0.7,1.0,0.0,387.0,849.0,0.0,0,264.0,1
1154,1154,-0.5764596143871656,-0.6,1.0,0.0,328.0,704.0,0.0,0,258.0,1
1155,1155,0.7216274079358581,0.7,0.0,0.0,253.0,605.0,0.0,1,112.0,1
1156,1156,0.7753708278727366,0.8,1.0,1.0,490.0,514.0,1.0,1,196.0,1
1157,1157,-0.28169580938080907,-0.3,0.0,1.0,356.0,792.0,1.0,0,432.0,1
1158,1158,-0.6764909054109294,-0.7,1.0,0.0,383.0,586.0,0.0,0,251.0,1
1159,1159,-0.48253375114542996,-0.5,1.0,0.0,293.0,526.0,0.0,0,271.0,1
1160,1160,0.8615882127423259,0.9,1.0,1.0,487.0,639.0,1.0,1,154.0,1
1161,1161,-0.8026015750430692,-0.8,0.0,1.0,307.0,876.0,1.0,0,127.0,1
1162,1162,0.27720747130719003,0.3,1.0,1.0,446.0,973.0,1.0,1,301.0,1
1163,1163,0.7610328871643158,0.8,1.0,1.0,373.0,696.0,1.0,1,121.0,1
1164,1164,0.12309223300672312,0.1,1.0,1.0,268.0,504.0,1.0,1,458.0,1
1165,1165,-0.3544022680005905,-0.4,0.0,1.0,254.0,668.0,1.0,0,258.0,1
1166,1166,-0.5695905160597079,-0.6,1.0,0.0,429.0,690.0,0.0,0,291.0,1
1167,1167,-0.600634932787304,-0.6,1.0,0.0,318.0,932.0,0.0,0,160.0,1
1168,1168,-0.8344573844813491,-0.8,1.0,0.0,493.0,742.0,0.0,0,335.0,1
1169,1169,0.6112507881232437,0.6,1.0,1.0,288.0,978.0,1.0,1,124.0,1
1170,1170,0.55457648151746,0.6,0.0,0.0,386.0,789.0,0.0,1,225.0,1
1171,1171,0.31492337390440694,0.3,0.0,0.0,362.0,610.0,0.0,1,478.0,1
1172,1172,0.49610049248081867,0.5,0.0,0.0,284.0,727.0,0.0,1,299.0,1
1173,1173,0.16120657143743233,0.2,0.0,0.0,344.0,685.0,0.0,1,591.0,1
1174,1174,-0.046876599524860896,-0.0,1.0,0.0,480.0,908.0,0.0,0,502.0,1
1175,1175,-0.7763257084759171,-0.8,1.0,0.0,411.0,874.0,0.0,0,85.0,1
1176,1176,-0.6644557808172683,-0.7,0.0,1.0,289.0,666.0,1.0,0,115.0,1
1177,1177,0.4651337754445054,0.5,0.0,0.0,297.0,742.0,0.0,1,371.0,1
1178,1178,0.3165812947091303,0.3,0.0,0.0,394.0,916.0,0.0,1,250.0,1
1179,1179,0.7444180786652558,0.7,0.0,0.0,322.0,937.0,0.0,1,151.0,1
1180,1180,0.3133169119958864,0.3,0.0,0.0,441.0,729.0,0.0,1,530.0,1
1181,1181,-0.3039268353984774,-0.3,0.0,1.0,396.0,505.0,1.0,0,349.0,1
1182,1182,0.8796554741167214,0.9,0.0,0.0,319.0,643.0,0.0,1,208.0,1
1183,1183,0.7487467457348912,0.7,1.0,1.0,362.0,849.0,1.0,1,179.0,1
1184,1184,0.09338202966495412,0.1,1.0,1.0,339.0,945.0,1.0,1,336.0,1
1185,1185,-0.18272115229124264,-0.2,1.0,0.0,387.0,925.0,0.0,0,1308.0,1
1186,1186,-0.3436948048886639,-0.3,0.0,1.0,268.0,854.0,1.0,0,188.0,1
1187,1187,-0.4674815144875044,-0.5,1.0,0.0,396.0,893.0,0.0,0,41.0,1
1188,1188,-0.23433941378875167,-0.2,0.0,1.0,431.0,820.0,1.0,0,329.0,1
1189,1189,0.33893819962313654,0.3,1.0,1.0,345.0,548.0,1.0,1,477.0,1
1190,1190,0.553298393907269,0.6,1.0,1.0,359.0,706.0,1.0,1,185.0,1
1191,1191,-0.7352389437562413,-0.7,0.0,1.0,350.0,708.0,1.0,0,142.0,1
1192,1192,-0.33817665090671456,-0.3,1.0,0.0,440.0,969.0,0.0,0,221.0,1
1193,1193,-0.11468970710058424,-0.1,1.0,0.0,488.0,754.0,0.0,0,1538.0,1
1194,1194,-0.4124183313018122,-0.4,0.0,1.0,409.0,594.0,1.0,0,297.0,1
1195,1195,-0.8165556283279032,-0.8,1.0,0.0,371.0,682.0,0.0,0,247.0,1
1196,1196,0.11302375279848287,0.1,0.0,0.0,303.0,731.0,0.0,1,166.0,1
1197,1197,0.09910754675832156,0.1,1.0,1.0,352.0,524.0,1.0,1,684.0,1
1198,1198,-0.7371625133763404,-0.7,1.0,0.0,332.0,535.0,0.0,0,273.0,1
1199,1199,0.4647290665013647,0.5,1.0,1.0,397.0,555.0,1.0,1,318.0,1
1200,1200,-0.0658771010336957,-0.1,1.0,0.0,312.0,612.0,0.0,0,926.0,1
1201,1201,0.5174965484750392,0.5,0.0,0.0,289.0,971.0,0.0,1,220.0,1
1202,1202,-0.26360372940306886,-0.3,1.0,0.0,460.0,568.0,0.0,0,512.0,1
1203,1203,-0.13505403627713042,-0.1,0.0,1.0,482.0,523.0,1.0,0,1065.0,1
1204,1204,0.032461491379111806,0.0,0.0,0.0,394.0,795.0,0.0,1,1441.0,1
1205,1205,0.7456284912799568,0.7,1.0,1.0,366.0,743.0,1.0,1,151.0,1
1206,1206,0.16699478404032886,0.2,0.0,0.0,361.0,588.0,0.0,1,1231.0,1
1207,1207,-0.6998717143527324,-0.7,1.0,0.0,259.0,622.0,0.0,0,279.0,1
1208,1208,0.21585613538811488,0.2,1.0,1.0,311.0,980.0,1.0,1,109.0,1
1209,1209,0.7297552637214081,0.7,0.0,0.0,316.0,636.0,0.0,1,238.0,1
1210,1210,-0.533165249858282,-0.5,0.0,1.0,254.0,854.0,1.0,0,162.0,1
1211,1211,0.23045571061365833,0.2,1.0,1.0,414.0,567.0,1.0,1,489.0,1
1212,1212,0.2918862604497824,0.3,0.0,0.0,377.0,654.0,0.0,1,239.0,1
1213,1213,-0.061029578910541615,-0.1,0.0,1.0,387.0,682.0,1.0,0,871.0,1
1214,1214,0.30323112857114787,0.3,0.0,0.0,454.0,620.0,0.0,1,396.0,1
1215,1215,0.568170528190879,0.6,0.0,0.0,278.0,690.0,0.0,1,262.0,1
1216,1216,-0.4084807052001143,-0.4,1.0,0.0,353.0,683.0,0.0,0,1024.0,1
1217,1217,0.521810429132859,0.5,0.0,0.0,466.0,917.0,0.0,1,207.0,1
1218,1218,-0.1479953043692671,-0.1,0.0,1.0,296.0,981.0,1.0,0,553.0,1
1219,1219,0.3986849792865429,0.4,0.0,0.0,467.0,832.0,0.0,1,41.0,1
1220,1220,-0.874691806764619,-0.9,1.0,0.0,366.0,709.0,0.0,0,195.0,1
1221,1221,-0.2212936423804177,-0.2,1.0,0.0,298.0,700.0,0.0,0,362.0,1
1222,1222,0.22353030435310017,0.2,1.0,1.0,489.0,524.0,1.0,1,207.0,1
1223,1223,0.6541579790993822,0.7,0.0,0.0,416.0,925.0,0.0,1,199.0,1
1224,1224,-0.7849823648780319,-0.8,0.0,1.0,427.0,765.0,1.0,0,198.0,1
1225,1225,0.1747762212829439,0.2,1.0,1.0,363.0,507.0,1.0,1,160.0,1
1226,1226,0.23696123444686734,0.2,1.0,1.0,297.0,846.0,1.0,1,127.0,1
1227,1227,0.1971141336871537,0.2,1.0,1.0,452.0,892.0,1.0,1,186.0,1
1228,1228,0.21802923787253514,0.2,0.0,0.0,409.0,953.0,0.0,1,338.0,1
1229,1229,0.6298026660501216,0.6,1.0,1.0,426.0,585.0,1.0,1,139.0,1
1230,1230,0.1739018014375605,0.2,0.0,0.0,308.0,968.0,0.0,1,364.0,1
1231,1231,0.1842622869285636,0.2,1.0,1.0,369.0,667.0,1.0,1,414.0,1
1232,1232,0.8031027947854718,0.8,0.0,0.0,451.0,737.0,0.0,1,192.0,1
1233,1233,-0.277678934913538,-0.3,1.0,0.0,324.0,786.0,0.0,0,210.0,1
1234,1234,0.16676714135377846,0.2,0.0,0.0,379.0,542.0,0.0,1,949.0,1
1235,1235,-0.7630449742777438,-0.8,0.0,1.0,335.0,797.0,1.0,0,148.0,1
1236,1236,0.17216615034611416,0.2,1.0,1.0,362.0,867.0,1.0,1,391.0,1
1237,1237,0.6900802985764217,0.7,1.0,1.0,254.0,653.0,1.0,1,53.0,1
1238,1238,-0.3392733173393241,-0.3,1.0,0.0,250.0,933.0,0.0,0,407.0,1
1239,1239,-0.21993822352170933,-0.2,0.0,1.0,254.0,584.0,1.0,0,312.0,1
1240,1240,-0.2877938279772241,-0.3,1.0,0.0,466.0,884.0,0.0,0,370.0,1
1241,1241,-0.12360962968233913,-0.1,1.0,0.0,413.0,691.0,0.0,0,1676.0,1
1242,1242,0.04184535010061963,0.0,1.0,1.0,299.0,502.0,1.0,1,2199.0,1
1243,1243,0.0508292930099955,0.1,1.0,1.0,282.0,779.0,1.0,1,699.0,1
1244,1244,0.406477370744713,0.4,0.0,0.0,415.0,965.0,0.0,1,130.0,1
1245,1245,-0.8468962548031947,-0.8,0.0,1.0,273.0,516.0,1.0,0,341.0,1
1246,1246,-0.13572293708164218,-0.1,0.0,1.0,433.0,814.0,1.0,0,853.0,1
1247,1247,0.6726985177300125,0.7,1.0,1.0,312.0,889.0,1.0,1,69.0,1
1248,1248,-0.30359186528646376,-0.3,0.0,1.0,436.0,704.0,1.0,0,470.0,1
1249,1249,0.09998458050581871,0.1,1.0,1.0,410.0,820.0,1.0,1,1080.0,1
1250,1250,-0.7924485202556468,-0.8,0.0,1.0,469.0,600.0,1.0,0,131.0,1
1251,1251,-0.6398009077992948,-0.6,0.0,1.0,260.0,816.0,1.0,0,134.0,1
1252,1252,-0.33955961985565875,-0.3,0.0,1.0,422.0,687.0,1.0,0,731.0,1
1253,1253,-0.49374489151619827,-0.5,1.0,0.0,417.0,562.0,0.0,0,471.0,1
1254,1254,0.7335479387356391,0.7,1.0,1.0,394.0,760.0,1.0,1,76.0,1
1255,1255,0.5267229874891145,0.5,0.0,0.0,355.0,731.0,0.0,1,254.0,1
1256,1256,-0.3472600521337956,-0.3,1.0,0.0,432.0,915.0,0.0,0,343.0,1
1257,1257,-0.7789596732389145,-0.8,0.0,1.0,318.0,812.0,1.0,0,90.0,1
1258,1258,-0.46994856105096766,-0.5,1.0,0.0,330.0,569.0,0.0,0,351.0,1
1259,1259,-0.49296671092205796,-0.5,1.0,0.0,350.0,918.0,0.0,0,162.0,1
1260,1260,0.1891796449199029,0.2,0.0,0.0,460.0,564.0,0.0,1,316.0,1
1261,1261,-0.7635807486810855,-0.8,1.0,0.0,495.0,899.0,1.0,1,-244.0,0
1262,1262,-0.44014052088595773,-0.4,0.0,1.0,349.0,920.0,1.0,0,291.0,1
1263,1263,-0.8334480697092063,-0.8,0.0,1.0,425.0,651.0,1.0,0,174.0,1
1264,1264,0.07417661112209606,0.1,1.0,1.0,295.0,713.0,1.0,1,602.0,1
1265,1265,-0.0033808889891350224,-0.0,0.0,1.0,324.0,587.0,0.0,1,1059.0,0
1266,1266,-0.7020572640640355,-0.7,0.0,1.0,310.0,661.0,1.0,0,279.0,1
1267,1267,0.5114195730440075,0.5,1.0,1.0,482.0,518.0,1.0,1,210.0,1
1268,1268,0.307366124438775,0.3,1.0,1.0,356.0,544.0,1.0,1,220.0,1
1269,1269,-0.37952957370635076,-0.4,1.0,0.0,411.0,990.0,0.0,0,69.0,1
1270,1270,0.31734057222813206,0.3,1.0,1.0,496.0,742.0,1.0,1,72.0,1
1271,1271,-0.3948908383284333,-0.4,0.0,1.0,434.0,672.0,1.0,0,504.0,1
1272,1272,-0.09264489504269113,-0.1,1.0,0.0,404.0,845.0,0.0,0,891.0,1
1273,1273,-0.4544364200336715,-0.5,0.0,1.0,284.0,643.0,1.0,0,633.0,1
1274,1274,-0.13711225088142165,-0.1,1.0,0.0,413.0,616.0,0.0,0,561.0,1
1275,1275,0.31204881655852457,0.3,1.0,1.0,301.0,724.0,1.0,1,185.0,1
1276,1276,-0.6656267611609802,-0.7,0.0,1.0,457.0,923.0,1.0,0,160.0,1
1277,1277,-0.5536090655352619,-0.6,0.0,1.0,469.0,549.0,1.0,0,272.0,1
1278,1278,0.7173674261578636,0.7,1.0,1.0,365.0,711.0,1.0,1,134.0,1
1279,1279,0.8965509271871647,0.9,0.0,0.0,292.0,958.0,0.0,1,70.0,1
1280,1280,-0.321633179959503,-0.3,0.0,1.0,356.0,609.0,1.0,0,315.0,1
1281,1281,0.5762940240715299,0.6,0.0,0.0,497.0,740.0,0.0,1,103.0,1
1282,1282,0.8066615618684162,0.8,0.0,0.0,343.0,806.0,0.0,1,1851.0,1
1283,1283,0.2418198742511003,0.2,0.0,0.0,336.0,590.0,0.0,1,464.0,1
1284,1284,0.6907218419755204,0.7,1.0,1.0,327.0,737.0,1.0,1,136.0,1
1285,1285,-0.3266678856238888,-0.3,0.0,1.0,431.0,745.0,1.0,0,354.0,1
1286,1286,0.21926202709793163,0.2,1.0,1.0,368.0,706.0,1.0,1,266.0,1
1287,1287,-0.3076744907417891,-0.3,0.0,1.0,304.0,610.0,1.0,0,466.0,1
1288,1288,-0.8524139155622864,-0.9,0.0,1.0,305.0,929.0,1.0,0,106.0,1
1289,1289,0.870224692338691,0.9,1.0,1.0,375.0,658.0,1.0,1,227.0,1
1290,1290,0.35100664940057225,0.4,1.0,1.0,468.0,589.0,1.0,1,243.0,1
1291,1291,0.6217377218600738,0.6,0.0,0.0,334.0,723.0,0.0,1,203.0,1
1292,1292,-0.6587194458926486,-0.7,1.0,0.0,400.0,651.0,0.0,0,179.0,1
1293,1293,0.16838088754315128,0.2,1.0,1.0,340.0,544.0,1.0,1,736.0,1
1294,1294,-0.5678467907524196,-0.6,1.0,0.0,291.0,865.0,0.0,0,244.0,1
1295,1295,-0.6330127768884095,-0.6,1.0,0.0,378.0,703.0,0.0,0,309.0,1
1296,1296,-0.1444836562538825,-0.1,1.0,0.0,468.0,715.0,0.0,0,667.0,1
1297,1297,0.04474151627364176,0.0,0.0,0.0,470.0,854.0,0.0,1,756.0,1
1298,1298,0.17525323489794575,0.2,0.0,0.0,368.0,601.0,0.0,1,471.0,1
1299,1299,0.876303855334264,0.9,1.0,1.0,382.0,833.0,1.0,1,115.0,1
1300,1300,-0.08011016426658912,-0.1,1.0,0.0,444.0,513.0,0.0,0,443.0,1
1301,1301,-0.275037531167594,-0.3,0.0,1.0,426.0,535.0,1.0,0,409.0,1
1302,1302,-0.09635433583274111,-0.1,1.0,0.0,397.0,858.0,0.0,0,905.0,1
1303,1303,0.06322216877797149,0.1,0.0,0.0,449.0,951.0,0.0,1,780.0,1
1304,1304,0.3676367501474137,0.4,1.0,1.0,285.0,703.0,1.0,1,272.0,1
1305,1305,-0.8087494469622389,-0.8,1.0,0.0,326.0,752.0,0.0,0,102.0,1
1306,1306,0.22009742721612213,0.2,1.0,1.0,456.0,527.0,1.0,1,237.0,1
1307,1307,-0.6308460347733341,-0.6,0.0,1.0,366.0,976.0,1.0,0,88.0,1
1308,1308,0.6464071657316534,0.6,1.0,1.0,459.0,542.0,1.0,1,259.0,1
1309,1309,-0.7169892288357974,-0.7,0.0,1.0,266.0,767.0,1.0,0,217.0,1
1310,1310,-0.6682478261935032,-0.7,0.0,1.0,384.0,591.0,1.0,0,185.0,1
1311,1311,-0.021091231519472453,-0.0,0.0,1.0,466.0,707.0,0.0,1,1827.0,0
1312,1312,-0.5875604817768141,-0.6,0.0,1.0,357.0,724.0,1.0,0,179.0,1
1313,1313,-0.7929844686737106,-0.8,1.0,0.0,308.0,818.0,0.0,0,174.0,1
1314,1314,0.44813905344650784,0.4,1.0,1.0,495.0,838.0,1.0,1,67.0,1
1315,1315,-0.698469745820831,-0.7,1.0,0.0,341.0,858.0,0.0,0,141.0,1
1316,1316,-0.767979412852777,-0.8,0.0,1.0,301.0,989.0,1.0,0,310.0,1
1317,1317,0.524316610979301,0.5,0.0,0.0,426.0,825.0,0.0,1,389.0,1
1318,1318,0.7098739784815461,0.7,1.0,1.0,328.0,972.0,1.0,1,180.0,1
1319,1319,-0.41193007200627635,-0.4,1.0,0.0,488.0,840.0,0.0,0,252.0,1
1320,1320,-0.38091270430602997,-0.4,0.0,1.0,442.0,516.0,1.0,0,352.0,1
1321,1321,0.5774459914317528,0.6,0.0,0.0,324.0,919.0,0.0,1,307.0,1
1322,1322,-0.25657121867636024,-0.3,1.0,0.0,274.0,945.0,0.0,0,221.0,1
1323,1323,0.1912863747863015,0.2,0.0,0.0,399.0,822.0,0.0,1,279.0,1
1324,1324,0.8200029913493946,0.8,0.0,0.0,263.0,943.0,0.0,1,124.0,1
1325,1325,0.41238377383338076,0.4,0.0,0.0,492.0,650.0,0.0,1,338.0,1
1326,1326,0.6446425045536274,0.6,1.0,1.0,251.0,719.0,1.0,1,140.0,1
1327,1327,-0.5427933034678523,-0.5,0.0,1.0,303.0,829.0,1.0,0,128.0,1
1328,1328,0.8102885820816689,0.8,0.0,0.0,470.0,807.0,0.0,1,213.0,1
1329,1329,0.09909465640586401,0.1,1.0,1.0,394.0,609.0,1.0,1,327.0,1
1330,1330,0.24971998097260373,0.2,0.0,0.0,336.0,660.0,0.0,1,304.0,1
1331,1331,-0.632656760779162,-0.6,0.0,1.0,305.0,816.0,1.0,0,219.0,1
1332,1332,-0.738484849373938,-0.7,1.0,0.0,307.0,904.0,0.0,0,1789.0,1
1333,1333,0.8357787761589247,0.8,1.0,1.0,271.0,690.0,1.0,1,59.0,1
1334,1334,0.28339842251809977,0.3,1.0,1.0,339.0,954.0,1.0,1,187.0,1
1335,1335,-0.8584819354008664,-0.9,1.0,0.0,339.0,861.0,0.0,0,250.0,1
1336,1336,-0.1716329210751818,-0.2,1.0,0.0,466.0,734.0,0.0,0,540.0,1
1337,1337,0.6385043548085402,0.6,0.0,0.0,277.0,896.0,0.0,1,187.0,1
1338,1338,0.8480857123875017,0.8,1.0,1.0,363.0,990.0,1.0,1,57.0,1
1339,1339,0.3710393946542333,0.4,0.0,0.0,419.0,639.0,0.0,1,402.0,1
1340,1340,0.47592969189793066,0.5,0.0,0.0,402.0,798.0,0.0,1,190.0,1
1341,1341,0.15419937889496016,0.2,0.0,0.0,362.0,602.0,0.0,1,436.0,1
1342,1342,-0.37003360412872033,-0.4,1.0,0.0,399.0,626.0,0.0,0,275.0,1
1343,1343,0.00010233358423572536,0.0,1.0,1.0,479.0,918.0,1.0,1,163.0,1
1344,1344,0.6457559943884131,0.6,1.0,1.0,494.0,920.0,1.0,1,66.0,1
1345,1345,-0.2678176953395919,-0.3,1.0,0.0,351.0,888.0,0.0,0,351.0,1
1346,1346,-0.4556122718127861,-0.5,0.0,1.0,388.0,672.0,1.0,0,170.0,1
1347,1347,-0.39539510086160545,-0.4,0.0,1.0,406.0,741.0,1.0,0,263.0,1
1348,1348,0.3782166442355973,0.4,0.0,0.0,388.0,515.0,0.0,1,477.0,1
1349,1349,-0.608665264045384,-0.6,1.0,0.0,279.0,694.0,0.0,0,227.0,1
1350,1350,-0.2006148464810532,-0.2,0.0,1.0,333.0,728.0,1.0,0,489.0,1
1351,1351,0.41392973153660406,0.4,1.0,1.0,460.0,692.0,1.0,1,278.0,1
1352,1352,-0.31800923681628424,-0.3,1.0,0.0,336.0,776.0,0.0,0,278.0,1
1353,1353,-0.6751292079371985,-0.7,0.0,1.0,386.0,897.0,1.0,0,107.0,1
1354,1354,-0.13551130521856747,-0.1,1.0,0.0,471.0,795.0,0.0,0,114.0,1
1355,1355,0.6090583592179576,0.6,1.0,1.0,420.0,775.0,1.0,1,85.0,1
1356,1356,-0.608473328971179,-0.6,0.0,1.0,323.0,946.0,1.0,0,71.0,1
1357,1357,0.2885176141429847,0.3,0.0,0.0,425.0,997.0,0.0,1,528.0,1
1358,1358,-0.7901814757897344,-0.8,1.0,0.0,261.0,738.0,0.0,0,291.0,1
1359,1359,0.8236886781100358,0.8,1.0,1.0,447.0,811.0,1.0,1,102.0,1
1360,1360,-0.0002096185460255251,-0.0,0.0,1.0,266.0,952.0,0.0,1,1782.0,0
1361,1361,-0.7612274863889117,-0.8,1.0,0.0,328.0,671.0,0.0,0,541.0,1
1362,1362,-0.4011350297947429,-0.4,1.0,0.0,321.0,720.0,0.0,0,269.0,1
1363,1363,-0.6203818705244735,-0.6,0.0,1.0,451.0,822.0,1.0,0,137.0,1
1364,1364,-0.7612062021426829,-0.8,0.0,1.0,414.0,966.0,1.0,0,80.0,1
1365,1365,0.23945729948418515,0.2,0.0,0.0,423.0,903.0,0.0,1,204.0,1
1366,1366,-0.32865989142255225,-0.3,1.0,0.0,360.0,983.0,0.0,0,147.0,1
1367,1367,-0.33203263014089524,-0.3,0.0,1.0,483.0,530.0,1.0,0,417.0,1
1368,1368,-0.33675431900676733,-0.3,0.0,1.0,453.0,546.0,1.0,0,381.0,1
1369,1369,0.7917213284467429,0.8,1.0,1.0,435.0,762.0,1.0,1,63.0,1
1370,1370,0.8192564330393491,0.8,1.0,1.0,322.0,605.0,1.0,1,243.0,1
1371,1371,0.7618180592671299,0.8,0.0,0.0,419.0,867.0,0.0,1,134.0,1
1372,1372,0.7946708206293639,0.8,1.0,1.0,474.0,595.0,1.0,1,251.0,1
1373,1373,-0.8061797416724293,-0.8,1.0,0.0,333.0,602.0,0.0,0,255.0,1
1374,1374,-0.45895063210470627,-0.5,0.0,1.0,256.0,969.0,1.0,0,205.0,1
1375,1375,0.5621996550659442,0.6,0.0,0.0,268.0,823.0,0.0,1,139.0,1
1376,1376,-0.6774894361066282,-0.7,1.0,0.0,412.0,517.0,0.0,0,481.0,1
1377,1377,0.7435945674664651,0.7,1.0,1.0,385.0,763.0,1.0,1,72.0,1
1378,1378,0.25871466769018403,0.3,0.0,0.0,350.0,982.0,0.0,1,218.0,1
1379,1379,0.3698921890115784,0.4,0.0,0.0,313.0,548.0,0.0,1,339.0,1
1380,1380,-0.6271775761020402,-0.6,0.0,1.0,422.0,957.0,0.0,1,-39.0,0
1381,1381,0.41316683310927405,0.4,0.0,0.0,270.0,672.0,0.0,1,268.0,1
1382,1382,0.02265249489072052,0.0,1.0,1.0,433.0,684.0,1.0,1,413.0,1
1383,1383,-0.12337456914573441,-0.1,1.0,0.0,476.0,535.0,0.0,0,679.0,1
1384,1384,-0.5773050695512947,-0.6,1.0,0.0,427.0,834.0,0.0,0,229.0,1
1385,1385,0.06953803188665963,0.1,1.0,1.0,255.0,983.0,0.0,0,-48.0,0
1386,1386,0.2641593175378053,0.3,0.0,0.0,257.0,586.0,0.0,1,517.0,1
1387,1387,-0.8487180846306889,-0.8,1.0,0.0,393.0,714.0,0.0,0,113.0,1
1388,1388,0.23509075539811597,0.2,0.0,0.0,390.0,806.0,0.0,1,324.0,1
1389,1389,-0.6649039878208284,-0.7,1.0,0.0,313.0,616.0,0.0,0,451.0,1
1390,1390,0.2592384392262205,0.3,0.0,0.0,424.0,521.0,0.0,1,495.0,1
1391,1391,0.22140813826106476,0.2,1.0,1.0,385.0,813.0,1.0,1,342.0,1
1392,1392,0.24274700985422715,0.2,0.0,0.0,415.0,524.0,0.0,1,421.0,1
1393,1393,-0.8736015552332836,-0.9,0.0,1.0,253.0,534.0,1.0,0,323.0,1
1394,1394,0.15779810178588238,0.2,1.0,1.0,347.0,543.0,1.0,1,690.0,1
1395,1395,0.21306710724947397,0.2,1.0,1.0,335.0,797.0,1.0,1,558.0,1
1396,1396,0.042089429150102387,0.0,0.0,0.0,384.0,682.0,1.0,0,524.0,0
1397,1397,-0.7280405425397639,-0.7,0.0,1.0,433.0,535.0,1.0,0,262.0,1
1398,1398,-0.5890727785615241,-0.6,0.0,1.0,327.0,845.0,1.0,0,138.0,1
1399,1399,0.04251858312019208,0.0,1.0,1.0,400.0,971.0,1.0,1,59.0,1
1400,1400,0.5790708683138156,0.6,1.0,1.0,404.0,953.0,1.0,1,133.0,1
1401,1401,-0.265766305941295,-0.3,1.0,0.0,281.0,591.0,0.0,0,718.0,1
1402,1402,0.26357120462223926,0.3,0.0,0.0,419.0,826.0,0.0,1,585.0,1
1403,1403,0.16769288653625736,0.2,0.0,0.0,477.0,929.0,0.0,1,304.0,1
1404,1404,0.4443398540072111,0.4,1.0,1.0,439.0,780.0,1.0,1,191.0,1
1405,1405,-0.3570711686711242,-0.4,0.0,1.0,402.0,657.0,1.0,0,341.0,1
1406,1406,-0.8395638533139842,-0.8,1.0,0.0,363.0,602.0,0.0,0,295.0,1
1407,1407,-0.8267167887142505,-0.8,1.0,0.0,315.0,526.0,0.0,0,429.0,1
1408,1408,-0.19685763303534687,-0.2,1.0,0.0,348.0,701.0,0.0,0,801.0,1
1409,1409,-0.1141408886441232,-0.1,1.0,0.0,492.0,563.0,0.0,0,1195.0,1
1410,1410,-0.4263860382246764,-0.4,0.0,1.0,350.0,892.0,1.0,0,148.0,1
1411,1411,-0.06943331763528426,-0.1,0.0,1.0,346.0,613.0,1.0,0,901.0,1
1412,1412,-0.2399968689830101,-0.2,1.0,0.0,367.0,794.0,0.0,0,459.0,1
1413,1413,-0.7164214025287138,-0.7,1.0,0.0,486.0,571.0,0.0,0,363.0,1
1414,1414,-0.7021101877212983,-0.7,1.0,0.0,337.0,748.0,0.0,0,145.0,1
1415,1415,-0.7515660787347234,-0.8,0.0,1.0,459.0,751.0,1.0,0,160.0,1
1416,1416,-0.8999011892655189,-0.9,0.0,1.0,408.0,660.0,1.0,0,152.0,1
1417,1417,-0.02751208570961361,-0.0,0.0,1.0,425.0,805.0,0.0,1,790.0,0
1418,1418,0.025808769255230568,0.0,1.0,1.0,483.0,806.0,0.0,0,1261.0,0
1419,1419,0.4138697721070391,0.4,1.0,1.0,350.0,620.0,1.0,1,180.0,1
1420,1420,-0.5820063750655613,-0.6,1.0,0.0,362.0,580.0,0.0,0,448.0,1
1421,1421,-0.23149401671372494,-0.2,0.0,1.0,326.0,811.0,1.0,0,233.0,1
1422,1422,0.297923196983472,0.3,0.0,0.0,363.0,935.0,0.0,1,232.0,1
1423,1423,0.10087667476971862,0.1,1.0,1.0,304.0,979.0,1.0,1,827.0,1
1424,1424,0.43061115339766076,0.4,1.0,1.0,380.0,952.0,1.0,1,158.0,1
1425,1425,-0.3395607386691524,-0.3,0.0,1.0,414.0,955.0,1.0,0,241.0,1
1426,1426,-0.45571959804739454,-0.5,1.0,0.0,373.0,937.0,0.0,0,310.0,1
1427,1427,-0.49915645075011034,-0.5,0.0,1.0,357.0,729.0,1.0,0,174.0,1
1428,1428,0.8204081982449983,0.8,0.0,0.0,398.0,821.0,0.0,1,121.0,1
1429,1429,-0.40228364587633475,-0.4,1.0,0.0,263.0,984.0,0.0,0,213.0,1
1430,1430,0.14049545312771772,0.1,0.0,0.0,415.0,515.0,0.0,1,530.0,1
1431,1431,-0.3723035323207303,-0.4,0.0,1.0,341.0,910.0,1.0,0,279.0,1
1432,1432,-0.7173545395162888,-0.7,0.0,1.0,301.0,815.0,1.0,0,184.0,1
1433,1433,0.39953145153048075,0.4,1.0,1.0,459.0,595.0,1.0,1,206.0,1
1434,1434,0.13263738177056072,0.1,1.0,1.0,458.0,887.0,1.0,1,195.0,1
1435,1435,-0.7778116231437628,-0.8,1.0,0.0,445.0,818.0,0.0,0,117.0,1
1436,1436,-0.7214522542444617,-0.7,1.0,0.0,313.0,689.0,0.0,0,298.0,1
1437,1437,-0.17343765338247408,-0.2,1.0,0.0,364.0,997.0,0.0,0,579.0,1
1438,1438,-0.4247690561244159,-0.4,0.0,1.0,493.0,714.0,1.0,0,163.0,1
1439,1439,-0.47833426556531994,-0.5,1.0,0.0,475.0,698.0,0.0,0,317.0,1
1440,1440,-0.32922530183897436,-0.3,0.0,1.0,263.0,948.0,1.0,0,249.0,1
1441,1441,-0.7493089006557127,-0.7,1.0,0.0,485.0,799.0,0.0,0,426.0,1
1442,1442,-0.10974491797414121,-0.1,0.0,1.0,370.0,744.0,1.0,0,556.0,1
1443,1443,-0.4323582949848359,-0.4,0.0,1.0,382.0,742.0,1.0,0,246.0,1
1444,1444,-0.09119879572369671,-0.1,1.0,0.0,350.0,538.0,0.0,0,812.0,1
1445,1445,0.28621598687296823,0.3,1.0,1.0,351.0,531.0,1.0,1,358.0,1
1446,1446,-0.6212720075146176,-0.6,0.0,1.0,300.0,682.0,1.0,0,168.0,1
1447,1447,0.36248307472456787,0.4,0.0,0.0,307.0,879.0,0.0,1,84.0,1
1448,1448,0.8926789154832949,0.9,0.0,0.0,441.0,701.0,0.0,1,208.0,1
1449,1449,0.4089029589564809,0.4,0.0,0.0,353.0,917.0,0.0,1,90.0,1
1450,1450,0.6131619866546524,0.6,0.0,0.0,365.0,757.0,0.0,1,78.0,1
1451,1451,0.7135333178004643,0.7,1.0,1.0,402.0,913.0,1.0,1,75.0,1
1452,1452,-0.13418316690623255,-0.1,0.0,1.0,414.0,577.0,1.0,0,839.0,1
1453,1453,0.6685278321396214,0.7,1.0,1.0,432.0,869.0,1.0,1,99.0,1
1454,1454,-0.020849069898901784,-0.0,1.0,0.0,387.0,707.0,0.0,0,1246.0,1
1455,1455,-0.5322254693636972,-0.5,0.0,1.0,337.0,511.0,1.0,0,262.0,1
1456,1456,0.27702199812433437,0.3,0.0,0.0,297.0,563.0,0.0,1,860.0,1
1457,1457,0.7425005385071898,0.7,1.0,1.0,368.0,735.0,1.0,1,147.0,1
1458,1458,0.7991691770464341,0.8,1.0,1.0,455.0,740.0,1.0,1,115.0,1
1459,1459,0.7409148876273907,0.7,1.0,1.0,334.0,741.0,1.0,1,115.0,1
1460,1460,-0.28476213895192404,-0.3,0.0,1.0,287.0,605.0,1.0,0,198.0,1
1461,1461,-0.5117864411536359,-0.5,1.0,0.0,412.0,521.0,0.0,0,587.0,1
1462,1462,-0.6564825592933589,-0.7,1.0,0.0,351.0,849.0,0.0,0,180.0,1
1463,1463,-0.7101048010743988,-0.7,1.0,0.0,447.0,508.0,0.0,0,565.0,1
1464,1464,-0.8912958654107596,-0.9,1.0,0.0,299.0,536.0,0.0,0,185.0,1
1465,1465,-0.32151330212991247,-0.3,1.0,0.0,422.0,845.0,0.0,0,623.0,1
1466,1466,-0.39524149363794425,-0.4,1.0,0.0,477.0,918.0,0.0,0,255.0,1
1467,1467,0.24957733202309884,0.2,1.0,1.0,407.0,520.0,1.0,1,263.0,1
1468,1468,0.5437772103417132,0.5,0.0,0.0,391.0,569.0,0.0,1,430.0,1
1469,1469,-0.40552106313709513,-0.4,0.0,1.0,252.0,545.0,1.0,0,603.0,1
1470,1470,-0.2881630485852751,-0.3,1.0,0.0,411.0,656.0,0.0,0,463.0,1
1471,1471,0.035684498521685315,0.0,1.0,1.0,431.0,650.0,1.0,1,759.0,1
1472,1472,0.6221544215368878,0.6,1.0,1.0,416.0,570.0,1.0,1,294.0,1
1473,1473,0.19176329228093458,0.2,0.0,0.0,479.0,906.0,0.0,1,635.0,1
1474,1474,-0.4741857728260727,-0.5,1.0,0.0,340.0,786.0,0.0,0,74.0,1
1475,1475,0.6317053440995072,0.6,0.0,0.0,407.0,977.0,0.0,1,46.0,1
1476,1476,-0.3002009743451364,-0.3,1.0,0.0,492.0,767.0,0.0,0,261.0,1
1477,1477,0.7017441553293694,0.7,1.0,1.0,464.0,734.0,1.0,1,272.0,1
1478,1478,0.19277942799408387,0.2,1.0,1.0,386.0,875.0,1.0,1,309.0,1
1479,1479,-0.06913578290685962,-0.1,0.0,1.0,490.0,633.0,1.0,0,1647.0,1
1480,1480,-0.8774488546821276,-0.9,1.0,0.0,327.0,812.0,0.0,0,81.0,1
1481,1481,0.4424128402666557,0.4,1.0,1.0,309.0,996.0,1.0,1,135.0,1
1482,1482,-0.20205939916914928,-0.2,1.0,0.0,272.0,795.0,0.0,0,83.0,1
1483,1483,0.3876643021181029,0.4,0.0,0.0,454.0,550.0,0.0,1,316.0,1
1484,1484,0.21687288041668584,0.2,1.0,1.0,370.0,992.0,1.0,1,258.0,1
1485,1485,0.18284962997366094,0.2,0.0,0.0,302.0,860.0,0.0,1,248.0,1
1486,1486,-0.09680063925685511,-0.1,1.0,0.0,401.0,506.0,0.0,0,453.0,1
1487,1487,0.8414970035514057,0.8,0.0,0.0,296.0,502.0,0.0,1,402.0,1
1488,1488,-0.23440642704438097,-0.2,1.0,0.0,473.0,793.0,0.0,0,294.0,1
1489,1489,0.4735418549870677,0.5,0.0,0.0,286.0,971.0,0.0,1,223.0,1
1490,1490,0.22210237621207984,0.2,0.0,0.0,433.0,780.0,0.0,1,327.0,1
1491,1491,-0.7948232300129827,-0.8,1.0,0.0,376.0,906.0,0.0,0,158.0,1
1492,1492,-0.8109078996998056,-0.8,1.0,0.0,377.0,762.0,0.0,0,161.0,1
