,trial,coherence,coherence_bin,green_side,correct_side,target_onset,checker_onset,decision,green_decision,decision_time,correct_decision
0,0,0.583152380445653,0.6,1.0,1.0,458.0,947.0,0.0,0,1595.0,0
1,1,-0.40728140358986664,-0.4,1.0,0.0,357.0,800.0,0.0,0,1843.0,1
2,2,-0.27501620440684293,-0.3,1.0,0.0,489.0,776.0,0.0,0,1735.0,1
3,3,0.8289273647297158,0.8,0.0,0.0,497.0,599.0,0.0,1,1904.0,1
4,4,-0.651897000312251,-0.7,1.0,0.0,296.0,752.0,0.0,0,1952.0,1
5,5,0.24105346611597278,0.2,0.0,0.0,465.0,929.0,0.0,1,1606.0,1
6,6,0.8183203291814661,0.8,1.0,1.0,277.0,586.0,0.0,0,2137.0,0
7,7,0.3053438321360521,0.3,1.0,1.0,314.0,635.0,0.0,0,2051.0,0
8,8,-0.20950048801063803,-0.2,1.0,0.0,374.0,721.0,0.0,0,1905.0,1
9,9,-0.6694124394070667,-0.7,0.0,1.0,365.0,603.0,0.0,1,2032.0,0
10,10,-0.8162331834996571,-0.8,1.0,0.0,486.0,711.0,0.0,0,1803.0,1
11,11,0.5620939961921526,0.6,1.0,1.0,483.0,789.0,0.0,0,1728.0,0
12,12,0.5822772642467361,0.6,0.0,0.0,398.0,653.0,0.0,1,1949.0,1
13,13,-0.45921476260814964,-0.5,1.0,0.0,257.0,750.0,0.0,0,1993.0,1
14,14,0.2753846739954896,0.3,0.0,0.0,435.0,950.0,0.0,1,1615.0,1
15,15,-0.7089997472885512,-0.7,1.0,0.0,398.0,832.0,0.0,0,1770.0,1
16,16,-0.7529436488574378,-0.8,1.0,0.0,450.0,679.0,0.0,0,1871.0,1
17,17,-0.8174870463615912,-0.8,0.0,1.0,465.0,870.0,0.0,1,1665.0,0
18,18,-0.11407223432025171,-0.1,0.0,1.0,262.0,725.0,0.0,1,2013.0,0
19,19,-0.16133271908698676,-0.2,1.0,0.0,478.0,900.0,0.0,0,1622.0,1
20,20,0.20806707378594658,0.2,1.0,1.0,304.0,582.0,0.0,0,2114.0,0
21,21,-0.5942703701244656,-0.6,0.0,1.0,385.0,988.0,0.0,1,1627.0,0
22,22,-0.29639952414607706,-0.3,1.0,0.0,310.0,893.0,0.0,0,1797.0,1
23,23,0.05660361774388978,0.1,1.0,1.0,259.0,541.0,0.0,0,2200.0,0
24,24,0.027815846722351156,0.0,1.0,1.0,331.0,654.0,0.0,0,2015.0,0
25,25,-0.18341627270831184,-0.2,1.0,0.0,373.0,911.0,0.0,0,1716.0,1
26,26,-0.12125680349700296,-0.1,1.0,0.0,490.0,671.0,0.0,0,1839.0,1
27,27,-0.19554547037119485,-0.2,0.0,1.0,494.0,940.0,0.0,1,1566.0,0
28,28,-0.6669230739118224,-0.7,0.0,1.0,431.0,770.0,1.0,0,-1191.0,1
29,29,-0.18104818679674428,-0.2,0.0,1.0,416.0,958.0,0.0,1,1626.0,0
30,30,0.3958135906894954,0.4,0.0,0.0,465.0,824.0,0.0,1,1711.0,1
31,31,0.3123752259329863,0.3,0.0,0.0,316.0,914.0,0.0,1,-1200.0,1
32,32,-0.17574760448435023,-0.2,1.0,0.0,408.0,543.0,0.0,0,2049.0,1
33,33,-0.22012809544813927,-0.2,0.0,1.0,339.0,916.0,0.0,1,1745.0,0
34,34,-0.1891449975510101,-0.2,0.0,1.0,263.0,613.0,0.0,1,2124.0,0
35,35,-0.2031722970800327,-0.2,1.0,0.0,461.0,749.0,0.0,0,1790.0,1
36,36,0.5428001083727524,0.5,0.0,0.0,391.0,710.0,0.0,1,1899.0,1
37,37,-0.5104190468408316,-0.5,1.0,0.0,390.0,946.0,0.0,0,1664.0,1
38,38,-0.4860027778836414,-0.5,0.0,1.0,462.0,787.0,0.0,1,1751.0,0
39,39,-0.761352459737096,-0.8,0.0,1.0,288.0,643.0,0.0,1,2069.0,0
40,40,0.3311488762631448,0.3,1.0,1.0,348.0,606.0,0.0,0,2046.0,0
41,41,-0.8578673764022255,-0.9,0.0,1.0,373.0,805.0,0.0,1,1822.0,0
42,42,0.4364361645407523,0.4,0.0,0.0,430.0,914.0,0.0,1,1656.0,1
43,43,0.4666410221436593,0.5,1.0,1.0,350.0,814.0,0.0,0,1836.0,0
44,44,0.12043235167427213,0.1,1.0,1.0,445.0,650.0,0.0,0,1905.0,0
45,45,-0.04645689157005917,-0.0,0.0,1.0,344.0,927.0,0.0,1,-1131.0,0
46,46,0.2601554554793811,0.3,1.0,1.0,432.0,610.0,0.0,0,1958.0,0
47,47,-0.855713219832763,-0.9,1.0,0.0,265.0,650.0,0.0,0,2085.0,1
48,48,0.26719083678312516,0.3,1.0,1.0,458.0,579.0,0.0,0,1963.0,0
49,49,0.2886785286280079,0.3,0.0,0.0,274.0,560.0,0.0,1,2166.0,1
50,50,0.051882785635341544,0.1,1.0,1.0,488.0,748.0,0.0,0,1764.0,0
51,51,-0.477058893984016,-0.5,0.0,1.0,444.0,539.0,0.0,1,2017.0,0
52,52,-0.7129783243850131,-0.7,1.0,0.0,261.0,531.0,0.0,0,2208.0,1
53,53,-0.5348701037131887,-0.5,0.0,1.0,326.0,912.0,0.0,1,1762.0,0
54,54,0.6871119212134035,0.7,1.0,1.0,255.0,917.0,0.0,0,1828.0,0
55,55,0.4509616630011105,0.5,1.0,1.0,443.0,819.0,0.0,0,1738.0,0
56,56,-0.8626264504027239,-0.9,0.0,1.0,480.0,742.0,0.0,1,1778.0,0
57,57,-0.21972128356874265,-0.2,0.0,1.0,358.0,886.0,0.0,1,1756.0,0
58,58,0.4600735279482865,0.5,0.0,0.0,387.0,756.0,0.0,1,1857.0,1
59,59,0.837913559793917,0.8,0.0,0.0,272.0,515.0,0.0,1,2213.0,1
60,60,0.8746317679078127,0.9,0.0,0.0,440.0,973.0,0.0,1,1587.0,1
61,61,-0.2872831519868396,-0.3,0.0,1.0,456.0,886.0,0.0,1,-1342.0,0
62,62,0.6728850697772576,0.7,1.0,1.0,347.0,991.0,0.0,0,1662.0,0
63,63,0.09079246688207243,0.1,1.0,1.0,325.0,825.0,0.0,0,1850.0,0
64,64,-0.8130827949852399,-0.8,0.0,1.0,382.0,541.0,0.0,1,2077.0,0
65,65,-0.5435009947449236,-0.5,1.0,0.0,452.0,839.0,0.0,0,1709.0,1
66,66,-0.500820955471774,-0.5,1.0,0.0,363.0,540.0,0.0,0,2097.0,1
67,67,0.19800868381910297,0.2,0.0,0.0,334.0,828.0,0.0,1,1838.0,1
68,68,0.31731514145556605,0.3,0.0,0.0,292.0,520.0,0.0,1,2188.0,1
69,69,0.5607370488284978,0.6,1.0,1.0,391.0,588.0,0.0,0,2021.0,0
70,70,-0.28480386382685874,-0.3,0.0,1.0,439.0,604.0,0.0,1,1957.0,0
71,71,-0.3599367226931405,-0.4,0.0,1.0,424.0,627.0,0.0,1,1949.0,0
72,72,0.24098125072037935,0.2,1.0,1.0,396.0,602.0,0.0,0,2002.0,0
73,73,-0.2310343848408699,-0.2,0.0,1.0,483.0,837.0,0.0,1,1680.0,0
74,74,0.11015553061917871,0.1,0.0,0.0,408.0,662.0,0.0,1,1930.0,1
75,75,0.8644265911501458,0.9,1.0,1.0,389.0,636.0,0.0,0,1975.0,0
76,76,-0.36559901967516795,-0.4,1.0,0.0,362.0,780.0,0.0,0,1858.0,1
77,77,0.000818260154515249,0.0,1.0,1.0,360.0,591.0,0.0,0,2049.0,0
78,78,0.5988526704283826,0.6,1.0,1.0,408.0,536.0,0.0,0,2056.0,0
79,79,-0.6672970803011449,-0.7,1.0,0.0,482.0,610.0,0.0,0,1908.0,1
80,80,0.8836459784744123,0.9,0.0,0.0,332.0,910.0,0.0,1,1758.0,1
81,81,-0.015501978169142339,-0.0,1.0,0.0,415.0,565.0,0.0,0,2020.0,1
82,82,0.8023445209399561,0.8,1.0,1.0,347.0,902.0,0.0,0,1751.0,0
83,83,0.5530893269986895,0.6,0.0,0.0,285.0,893.0,1.0,0,-1138.0,0
84,84,0.39657869491254993,0.4,1.0,1.0,277.0,711.0,0.0,0,2012.0,0
85,85,0.4859581859783665,0.5,0.0,0.0,451.0,869.0,0.0,1,1680.0,1
86,86,-0.7250950256929608,-0.7,0.0,1.0,271.0,538.0,0.0,1,2191.0,0
87,87,0.283324792045636,0.3,1.0,1.0,397.0,851.0,0.0,0,1752.0,0
88,88,-0.6874199120995813,-0.7,1.0,0.0,380.0,858.0,0.0,0,1762.0,1
89,89,-0.0009209859215356664,-0.0,0.0,1.0,333.0,799.0,0.0,1,1868.0,0
90,90,-0.5632169720073636,-0.6,1.0,0.0,388.0,507.0,0.0,0,2105.0,1
91,91,-0.6987357736764817,-0.7,0.0,1.0,279.0,647.0,0.0,1,2074.0,0
92,92,0.09730018283425024,0.1,0.0,0.0,272.0,755.0,0.0,1,1973.0,1
93,93,0.20465288808131044,0.2,1.0,1.0,383.0,548.0,0.0,0,2069.0,0
94,94,0.24195491633251665,0.2,1.0,1.0,355.0,965.0,0.0,0,1680.0,0
95,95,0.4987332691183063,0.5,0.0,0.0,425.0,571.0,0.0,1,2004.0,1
96,96,0.33222343830407464,0.3,1.0,1.0,348.0,856.0,0.0,0,-1204.0,0
97,97,-0.7003903505995427,-0.7,1.0,0.0,461.0,681.0,0.0,0,1858.0,1
98,98,0.8663345351220048,0.9,1.0,1.0,316.0,556.0,0.0,0,2128.0,0
99,99,0.43389084416650536,0.4,1.0,1.0,446.0,645.0,0.0,0,1909.0,0
100,100,0.2043871759853434,0.2,1.0,1.0,499.0,802.0,0.0,0,1699.0,0
101,101,0.6013721140717391,0.6,1.0,1.0,428.0,680.0,0.0,0,1892.0,0
102,102,-0.6590005381115982,-0.7,1.0,0.0,340.0,584.0,0.0,0,2076.0,1
103,103,-0.7332893816173527,-0.7,1.0,0.0,367.0,578.0,0.0,0,2055.0,1
104,104,-0.01713318688040033,-0.0,1.0,0.0,304.0,842.0,0.0,0,1854.0,1
105,105,0.22665005789487458,0.2,1.0,1.0,477.0,829.0,0.0,0,1694.0,0
106,106,0.0010187319303489595,0.0,0.0,0.0,276.0,744.0,0.0,1,1980.0,1
107,107,-0.46250799119806524,-0.5,1.0,0.0,341.0,804.0,0.0,0,1855.0,1
108,108,0.6591231504952223,0.7,0.0,0.0,472.0,813.0,0.0,1,1715.0,1
109,109,0.22251138529162795,0.2,0.0,0.0,485.0,639.0,0.0,1,1876.0,1
110,110,0.3899417230296819,0.4,1.0,1.0,361.0,545.0,0.0,0,2094.0,0
111,111,0.5376779701122326,0.5,0.0,0.0,401.0,907.0,0.0,1,1692.0,1
112,112,-0.4744238869939718,-0.5,0.0,1.0,367.0,595.0,0.0,1,2038.0,0
113,113,0.046363057273687946,0.0,0.0,0.0,341.0,991.0,0.0,1,1668.0,1
114,114,0.6504246505349088,0.7,0.0,0.0,460.0,654.0,0.0,1,1886.0,1
115,115,-0.0032384542729653187,-0.0,1.0,0.0,343.0,508.0,0.0,0,2149.0,1
116,116,0.685608203420682,0.7,1.0,1.0,441.0,735.0,0.0,0,1824.0,0
117,117,-0.7147201183049496,-0.7,0.0,1.0,470.0,732.0,0.0,1,1798.0,0
118,118,0.518389053046432,0.5,1.0,1.0,491.0,681.0,0.0,0,1828.0,0
119,119,-0.345335055456203,-0.3,0.0,1.0,282.0,761.0,0.0,1,1957.0,0
120,120,0.2945290985650352,0.3,0.0,0.0,309.0,634.0,0.0,1,-863.0,1
121,121,-0.8642624737207574,-0.9,1.0,0.0,483.0,848.0,0.0,0,1669.0,1
122,122,-0.28896296126102894,-0.3,0.0,1.0,271.0,812.0,0.0,1,1917.0,0
123,123,0.5321223530904174,0.5,1.0,1.0,395.0,922.0,0.0,0,-1297.0,0
124,124,0.8327880677734626,0.8,1.0,1.0,439.0,604.0,0.0,0,1957.0,0
125,125,-0.6749039176658301,-0.7,0.0,1.0,290.0,612.0,0.0,1,2098.0,0
126,126,0.7875034106993629,0.8,0.0,0.0,415.0,841.0,0.0,1,1744.0,1
127,127,0.031438673212584645,0.0,1.0,1.0,264.0,831.0,0.0,0,1905.0,0
128,128,-0.6633575402660192,-0.7,1.0,0.0,385.0,958.0,0.0,0,1657.0,1
129,129,0.15116129231279463,0.2,0.0,0.0,256.0,714.0,0.0,1,2030.0,1
130,130,0.377638410874073,0.4,0.0,0.0,461.0,647.0,0.0,1,1892.0,1
131,131,0.521761301426147,0.5,1.0,1.0,292.0,534.0,0.0,0,2174.0,0
132,132,0.5088719963836802,0.5,0.0,0.0,483.0,508.0,0.0,1,2009.0,1
133,133,0.4931509418135983,0.5,1.0,1.0,498.0,841.0,0.0,0,1661.0,0
134,134,-0.44810570495800334,-0.4,1.0,0.0,252.0,984.0,0.0,0,1764.0,1
135,135,-0.8916906102863325,-0.9,0.0,1.0,475.0,807.0,0.0,1,1718.0,0
136,136,-0.4530819425794631,-0.5,0.0,1.0,273.0,938.0,0.0,1,1789.0,0
137,137,-0.4185613122112022,-0.4,1.0,0.0,404.0,901.0,0.0,0,1695.0,1
138,138,-0.1438981673475097,-0.1,1.0,0.0,467.0,902.0,0.0,0,1631.0,1
139,139,-0.033293009421979325,-0.0,1.0,0.0,364.0,867.0,0.0,0,1769.0,1
140,140,-0.3555696417675611,-0.4,0.0,1.0,320.0,953.0,0.0,1,1727.0,0
141,141,-0.7354958897703187,-0.7,0.0,1.0,373.0,663.0,1.0,0,-1006.0,1
142,142,0.6603567897959907,0.7,1.0,1.0,291.0,871.0,0.0,0,1838.0,0
143,143,0.892483407483828,0.9,1.0,1.0,269.0,548.0,0.0,0,-507.0,0
144,144,-0.805660249563279,-0.8,1.0,0.0,408.0,834.0,0.0,0,1758.0,1
145,145,0.4970482161276927,0.5,1.0,1.0,325.0,737.0,0.0,0,1938.0,0
146,146,0.3365378114844392,0.3,0.0,0.0,453.0,815.0,1.0,0,-1248.0,0
147,147,0.7556375697270935,0.8,1.0,1.0,273.0,929.0,0.0,0,1798.0,0
148,148,0.6466719154897668,0.6,1.0,1.0,465.0,972.0,0.0,0,1563.0,0
149,149,-0.7111921649874194,-0.7,1.0,0.0,313.0,591.0,0.0,0,2096.0,1
150,150,0.4331703066954641,0.4,0.0,0.0,456.0,729.0,0.0,1,1815.0,1
151,151,-0.6207548921269714,-0.6,1.0,0.0,382.0,521.0,0.0,0,2097.0,1
152,152,-0.2737722213818524,-0.3,1.0,0.0,396.0,648.0,0.0,0,1956.0,1
153,153,-0.4702380116730702,-0.5,0.0,1.0,356.0,901.0,0.0,1,1743.0,0
154,154,-0.7208509903582446,-0.7,1.0,0.0,480.0,579.0,0.0,0,1941.0,1
155,155,-0.3236091433355144,-0.3,0.0,1.0,389.0,624.0,0.0,1,1987.0,0
156,156,-0.5891390617951482,-0.6,0.0,1.0,333.0,900.0,0.0,1,1767.0,0
157,157,0.33042560237520735,0.3,1.0,1.0,416.0,762.0,0.0,0,1822.0,0
158,158,0.6024423122081549,0.6,0.0,0.0,411.0,610.0,1.0,0,-951.0,0
159,159,0.32422991445385085,0.3,1.0,1.0,444.0,646.0,0.0,0,1910.0,0
160,160,0.7398710396454676,0.7,0.0,0.0,373.0,651.0,0.0,1,1976.0,1
161,161,-0.36286922079812056,-0.4,1.0,0.0,494.0,859.0,0.0,0,1647.0,1
162,162,-0.8166576112950338,-0.8,0.0,1.0,339.0,710.0,0.0,1,1951.0,0
163,163,0.7764517695109326,0.8,0.0,0.0,275.0,660.0,0.0,1,2065.0,1
164,164,0.47080387335980467,0.5,1.0,1.0,282.0,765.0,0.0,0,1953.0,0
165,165,-0.10625970098224369,-0.1,0.0,1.0,321.0,506.0,0.0,1,2173.0,0
166,166,-0.7209496390448905,-0.7,0.0,1.0,267.0,956.0,0.0,1,1777.0,0
167,167,0.39077689818596306,0.4,1.0,1.0,387.0,733.0,0.0,0,1880.0,0
168,168,-0.06475003893938369,-0.1,1.0,0.0,307.0,648.0,0.0,0,2045.0,1
169,169,-0.823409226368009,-0.8,0.0,1.0,446.0,681.0,1.0,0,-1037.0,1
170,170,-0.8799363699126808,-0.9,0.0,1.0,325.0,616.0,0.0,1,2059.0,0
171,171,0.4461727583935976,0.4,0.0,0.0,266.0,606.0,0.0,1,2128.0,1
172,172,0.23237719785486133,0.2,0.0,0.0,360.0,877.0,0.0,1,1763.0,1
173,173,-0.4824904294991235,-0.5,1.0,0.0,263.0,914.0,0.0,0,1823.0,1
174,174,-0.7752571502047056,-0.8,0.0,1.0,265.0,805.0,0.0,1,1930.0,0
175,175,0.4389587814624033,0.4,0.0,0.0,436.0,763.0,0.0,1,1801.0,1
176,176,0.04594738711871449,0.0,1.0,1.0,372.0,719.0,0.0,0,1909.0,0
177,177,0.7450087056846683,0.7,1.0,1.0,442.0,841.0,0.0,0,1717.0,0
178,178,-0.38029704162310196,-0.4,0.0,1.0,490.0,740.0,0.0,1,1770.0,0
179,179,0.5527225575826676,0.6,1.0,1.0,499.0,904.0,0.0,0,1597.0,0
180,180,-0.42490475576414954,-0.4,1.0,0.0,484.0,607.0,0.0,0,1909.0,1
181,181,0.8393277114477019,0.8,0.0,0.0,310.0,543.0,0.0,1,2147.0,1
182,182,-0.3378955430280397,-0.3,1.0,0.0,430.0,594.0,0.0,0,1976.0,1
183,183,0.5216492677208026,0.5,1.0,1.0,439.0,793.0,0.0,0,1768.0,0
184,184,0.6841480718747629,0.7,0.0,0.0,411.0,701.0,0.0,1,1888.0,1
185,185,0.305179366850021,0.3,1.0,1.0,429.0,683.0,0.0,0,1888.0,0
186,186,0.05060142559862446,0.1,0.0,0.0,494.0,514.0,0.0,1,1992.0,1
187,187,-0.8371913375564333,-0.8,0.0,1.0,419.0,629.0,0.0,1,1952.0,0
188,188,-0.5071035507231253,-0.5,0.0,1.0,388.0,879.0,0.0,1,1733.0,0
189,189,0.39671566074828857,0.4,0.0,0.0,327.0,511.0,0.0,1,2162.0,1
190,190,0.7181008032053925,0.7,1.0,1.0,323.0,559.0,0.0,0,2118.0,0
191,191,-0.7286437685567118,-0.7,0.0,1.0,429.0,543.0,0.0,1,2028.0,0
192,192,-0.3083183924163537,-0.3,1.0,0.0,327.0,814.0,0.0,0,1859.0,1
193,193,0.06651019586178764,0.1,1.0,1.0,305.0,967.0,0.0,0,1728.0,0
194,194,0.778939926330119,0.8,0.0,0.0,329.0,655.0,0.0,1,2016.0,1
195,195,0.06579391400164791,0.1,1.0,1.0,429.0,693.0,0.0,0,1878.0,0
196,196,0.37294098897430505,0.4,1.0,1.0,492.0,915.0,0.0,0,1593.0,0
197,197,0.8866015610057557,0.9,0.0,0.0,340.0,591.0,0.0,1,2069.0,1
198,198,-0.4682965314238677,-0.5,0.0,1.0,369.0,724.0,0.0,1,1907.0,0
199,199,0.02658917352359702,0.0,0.0,0.0,273.0,821.0,0.0,1,1906.0,1
200,200,-0.6709641488782109,-0.7,0.0,1.0,496.0,679.0,0.0,1,1825.0,0
201,201,-0.36746344027160327,-0.4,1.0,0.0,493.0,833.0,0.0,0,1674.0,1
202,202,-0.106604116628499,-0.1,1.0,0.0,382.0,538.0,0.0,0,2080.0,1
203,203,0.3490355084737019,0.3,0.0,0.0,359.0,919.0,0.0,1,1722.0,1
204,204,0.5257190691178139,0.5,1.0,1.0,487.0,560.0,0.0,0,1953.0,0
205,205,-0.8073521135223483,-0.8,1.0,0.0,489.0,665.0,0.0,0,1846.0,1
206,206,0.8230857376969677,0.8,1.0,1.0,388.0,910.0,0.0,0,1702.0,0
207,207,-0.35607428728786605,-0.4,1.0,0.0,309.0,740.0,0.0,0,1951.0,1
208,208,-0.6894418139158606,-0.7,1.0,0.0,427.0,828.0,0.0,0,1745.0,1
209,209,0.4094851705334145,0.4,0.0,0.0,366.0,614.0,0.0,1,-880.0,1
210,210,0.057031343860808326,0.1,1.0,1.0,406.0,514.0,0.0,0,2080.0,0
211,211,0.29639000471308596,0.3,1.0,1.0,279.0,518.0,0.0,0,2203.0,0
212,212,0.14911370814899405,0.1,0.0,0.0,396.0,737.0,0.0,1,-1033.0,1
213,213,-0.06500072399720092,-0.1,0.0,1.0,262.0,861.0,0.0,1,1877.0,0
214,214,0.5172583130774505,0.5,1.0,1.0,288.0,975.0,0.0,0,1737.0,0
215,215,-0.8022465495962582,-0.8,1.0,0.0,305.0,855.0,0.0,0,1840.0,1
216,216,-0.06977563259372965,-0.1,1.0,0.0,300.0,677.0,0.0,0,2023.0,1
217,217,-0.6208007840761692,-0.6,0.0,1.0,475.0,899.0,0.0,1,1626.0,0
218,218,0.18621845600622355,0.2,1.0,1.0,337.0,508.0,0.0,0,2155.0,0
219,219,0.6652451102904847,0.7,1.0,1.0,455.0,725.0,0.0,0,1820.0,0
220,220,-0.3726182649332912,-0.4,1.0,0.0,477.0,929.0,0.0,0,1594.0,1
221,221,0.19217376422954413,0.2,0.0,0.0,285.0,845.0,0.0,1,1870.0,1
222,222,-0.07941345674314815,-0.1,1.0,0.0,293.0,716.0,0.0,0,1991.0,1
223,223,-0.03644918547552789,-0.0,0.0,1.0,445.0,763.0,0.0,1,1792.0,0
224,224,0.49296192090357394,0.5,1.0,1.0,445.0,896.0,0.0,0,1659.0,0
225,225,0.16121499190146016,0.2,1.0,1.0,403.0,623.0,0.0,0,1974.0,0
226,226,-0.7232146397987441,-0.7,1.0,0.0,490.0,948.0,0.0,0,1562.0,1
227,227,0.40219343483478764,0.4,0.0,0.0,264.0,957.0,0.0,1,1779.0,1
228,228,-0.7598059883510948,-0.8,1.0,0.0,374.0,851.0,0.0,0,1775.0,1
229,229,-0.6370324860356538,-0.6,0.0,1.0,446.0,521.0,0.0,1,2033.0,0
230,230,0.8371459985077537,0.8,0.0,0.0,256.0,893.0,0.0,1,1851.0,1
231,231,-0.6590236334152519,-0.7,1.0,0.0,301.0,904.0,0.0,0,1795.0,1
232,232,-0.20750606012683337,-0.2,1.0,0.0,467.0,648.0,0.0,0,1885.0,1
233,233,-0.7141002594097872,-0.7,1.0,0.0,491.0,500.0,0.0,0,2009.0,1
234,234,-0.24748200979730217,-0.2,0.0,1.0,315.0,638.0,0.0,1,2047.0,0
235,235,-0.0965915816136731,-0.1,1.0,0.0,362.0,697.0,0.0,0,1941.0,1
236,236,0.442009512743918,0.4,0.0,0.0,369.0,920.0,0.0,1,1711.0,1
237,237,-0.00923268204754657,-0.0,0.0,1.0,458.0,872.0,0.0,1,-1330.0,0
238,238,0.08066314418747145,0.1,0.0,0.0,337.0,936.0,0.0,1,1727.0,1
239,239,0.7704939962082166,0.8,1.0,1.0,314.0,898.0,0.0,0,1788.0,0
240,240,0.38457148046866074,0.4,0.0,0.0,484.0,991.0,0.0,1,1525.0,1
241,241,0.17510269609671114,0.2,1.0,1.0,409.0,921.0,0.0,0,1670.0,0
242,242,-0.4896481548676433,-0.5,0.0,1.0,319.0,891.0,0.0,1,1790.0,0
243,243,-0.23092670229976264,-0.2,1.0,0.0,401.0,814.0,0.0,0,1785.0,1
244,244,-0.7216157974256188,-0.7,0.0,1.0,299.0,527.0,0.0,1,2174.0,0
245,245,0.03143848301279806,0.0,0.0,0.0,356.0,757.0,0.0,1,1887.0,1
246,246,0.10777797911404063,0.1,1.0,1.0,397.0,973.0,0.0,0,-1210.0,0
247,247,-0.3418143948127763,-0.3,0.0,1.0,252.0,528.0,1.0,0,-650.0,1
248,248,0.4212243028238368,0.4,0.0,0.0,456.0,883.0,0.0,1,1661.0,1
249,249,-0.057492817726380374,-0.1,0.0,1.0,256.0,773.0,0.0,1,1971.0,0
250,250,-0.7182440684140843,-0.7,0.0,1.0,254.0,974.0,0.0,1,-1168.0,0
251,251,0.05531064722227086,0.1,1.0,1.0,444.0,747.0,0.0,0,1809.0,0
252,252,-0.610157948652,-0.6,1.0,0.0,313.0,686.0,0.0,0,2001.0,1
253,253,0.3028986974119515,0.3,1.0,1.0,359.0,553.0,0.0,0,2088.0,0
254,254,0.38817432221505876,0.4,0.0,0.0,423.0,695.0,0.0,1,1882.0,1
255,255,-0.18003639043713227,-0.2,1.0,0.0,335.0,508.0,0.0,0,2157.0,1
256,256,0.11642143433382601,0.1,0.0,0.0,346.0,839.0,0.0,1,1815.0,1
257,257,0.8287239237242142,0.8,0.0,0.0,285.0,909.0,0.0,1,1806.0,1
258,258,-0.21348586185831642,-0.2,1.0,0.0,348.0,524.0,0.0,0,2128.0,1
259,259,0.34246381897961575,0.3,1.0,1.0,389.0,783.0,1.0,1,-1112.0,1
260,260,-0.20062431621344345,-0.2,0.0,1.0,282.0,764.0,0.0,1,1954.0,0
261,261,-0.8727612970857924,-0.9,0.0,1.0,456.0,848.0,0.0,1,1696.0,0
262,262,0.42834948338492784,0.4,0.0,0.0,357.0,512.0,1.0,0,-859.0,0
263,263,-0.2579385705685282,-0.3,0.0,1.0,399.0,862.0,0.0,1,1739.0,0
264,264,-0.6279106701915873,-0.6,1.0,0.0,266.0,622.0,0.0,0,2112.0,1
265,265,0.8888958157825056,0.9,1.0,1.0,292.0,912.0,0.0,0,1796.0,0
266,266,-0.42668148242338017,-0.4,1.0,0.0,329.0,786.0,0.0,0,1885.0,1
267,267,-0.2980323771212039,-0.3,0.0,1.0,274.0,918.0,0.0,1,1808.0,0
268,268,0.051651791981512596,0.1,0.0,0.0,355.0,908.0,0.0,1,1737.0,1
269,269,-0.6616956395189402,-0.7,0.0,1.0,318.0,759.0,0.0,1,1923.0,0
270,270,0.6901910856287391,0.7,0.0,0.0,287.0,917.0,0.0,1,1796.0,1
271,271,0.4176627705866204,0.4,0.0,0.0,250.0,955.0,0.0,1,1795.0,1
272,272,0.22674247423585092,0.2,0.0,0.0,450.0,992.0,0.0,1,1558.0,1
273,273,0.1192418601423767,0.1,0.0,0.0,401.0,873.0,0.0,1,1726.0,1
274,274,0.7800559113096742,0.8,0.0,0.0,274.0,649.0,0.0,1,2077.0,1
275,275,0.6663186260296862,0.7,0.0,0.0,286.0,956.0,0.0,1,1758.0,1
276,276,-0.6256800194228185,-0.6,0.0,1.0,355.0,835.0,0.0,1,1810.0,0
277,277,0.7265246239158066,0.7,0.0,0.0,251.0,879.0,0.0,1,1870.0,1
278,278,0.2570133242356497,0.3,0.0,0.0,370.0,749.0,0.0,1,1881.0,1
279,279,-0.7009212586870961,-0.7,0.0,1.0,398.0,734.0,0.0,1,1868.0,0
280,280,0.5288983157882475,0.5,0.0,0.0,378.0,614.0,0.0,1,2008.0,1
281,281,-0.014464243099001739,-0.0,0.0,1.0,380.0,666.0,1.0,0,-916.0,1
282,282,-0.5983455454823745,-0.6,0.0,1.0,263.0,757.0,0.0,1,1980.0,0
283,283,0.7413721642957231,0.7,0.0,0.0,407.0,796.0,0.0,1,1797.0,1
284,284,-0.43700051441574456,-0.4,1.0,0.0,472.0,853.0,0.0,0,-1295.0,1
285,285,0.31526650291631964,0.3,1.0,1.0,456.0,785.0,0.0,0,1759.0,0
286,286,-0.8776318579992094,-0.9,0.0,1.0,441.0,932.0,0.0,1,1627.0,0
287,287,0.8094919041778329,0.8,0.0,0.0,466.0,793.0,0.0,1,1741.0,1
288,288,-0.3919793647623331,-0.4,1.0,0.0,270.0,702.0,1.0,1,-952.0,0
289,289,0.640227306648229,0.6,0.0,0.0,252.0,857.0,0.0,1,-1039.0,1
290,290,-0.6156282499017585,-0.6,0.0,1.0,252.0,582.0,0.0,1,2166.0,0
291,291,-0.1542621460268142,-0.2,1.0,0.0,305.0,907.0,0.0,0,1788.0,1
292,292,-0.1103285853716055,-0.1,1.0,0.0,347.0,864.0,0.0,0,1789.0,1
293,293,0.0555705816277301,0.1,0.0,0.0,302.0,781.0,0.0,1,1917.0,1
294,294,0.8217523012704758,0.8,0.0,0.0,448.0,664.0,0.0,1,1888.0,1
295,295,-0.8871115038083663,-0.9,0.0,1.0,391.0,729.0,0.0,1,-970.0,0
296,296,0.3932464095518039,0.4,1.0,1.0,305.0,772.0,1.0,1,-997.0,1
297,297,0.18352080083218592,0.2,0.0,0.0,306.0,728.0,0.0,1,1966.0,1
298,298,-0.17037176177181002,-0.2,1.0,0.0,345.0,708.0,0.0,0,1947.0,1
299,299,0.86735201295161,0.9,0.0,0.0,306.0,738.0,0.0,1,1956.0,1
300,300,0.24763755949979582,0.2,1.0,1.0,339.0,997.0,0.0,0,1664.0,0
301,301,0.7005001262025953,0.7,0.0,0.0,250.0,534.0,0.0,1,2216.0,1
302,302,0.325781907773231,0.3,0.0,0.0,312.0,822.0,0.0,1,1866.0,1
303,303,-0.4574569447867198,-0.5,1.0,0.0,478.0,645.0,0.0,0,1877.0,1
304,304,0.01834482417428307,0.0,1.0,1.0,346.0,821.0,0.0,0,1833.0,0
305,305,0.12801910003017303,0.1,1.0,1.0,459.0,850.0,0.0,0,1691.0,0
306,306,0.4758668745821756,0.5,0.0,0.0,418.0,811.0,0.0,1,1771.0,1
307,307,-0.5038477333438696,-0.5,0.0,1.0,306.0,641.0,0.0,1,-667.0,0
308,308,-0.15670018711875733,-0.2,0.0,1.0,326.0,806.0,0.0,1,1868.0,0
309,309,0.4543503824598839,0.5,0.0,0.0,458.0,657.0,0.0,1,-1035.0,1
310,310,-0.34506396434947806,-0.3,1.0,0.0,476.0,938.0,0.0,0,1586.0,1
311,311,-0.25335586423637,-0.3,1.0,0.0,460.0,624.0,0.0,0,1916.0,1
312,312,-0.41724651891106396,-0.4,1.0,0.0,491.0,754.0,0.0,0,1755.0,1
313,313,-0.7224869929410598,-0.7,0.0,1.0,308.0,667.0,0.0,1,2025.0,0
314,314,0.09872420252429703,0.1,1.0,1.0,412.0,976.0,0.0,0,1612.0,0
315,315,-0.5637332805589705,-0.6,0.0,1.0,493.0,555.0,0.0,1,-1028.0,0
316,316,0.19667281958844096,0.2,0.0,0.0,298.0,967.0,0.0,1,1735.0,1
317,317,-0.5981599380583812,-0.6,0.0,1.0,264.0,974.0,0.0,1,1762.0,0
318,318,0.0622039337163649,0.1,0.0,0.0,344.0,629.0,0.0,1,2027.0,1
319,319,-0.050979507222508436,-0.1,0.0,1.0,335.0,825.0,0.0,1,1840.0,0
320,320,0.7386331349988638,0.7,0.0,0.0,331.0,682.0,0.0,1,1987.0,1
321,321,0.12765566185236443,0.1,1.0,1.0,492.0,519.0,0.0,0,1989.0,0
322,322,0.20117076069039197,0.2,0.0,0.0,454.0,764.0,0.0,1,1782.0,1
323,323,0.4508979849867837,0.5,0.0,0.0,371.0,987.0,0.0,1,1642.0,1
324,324,0.05029415866637377,0.1,0.0,0.0,325.0,854.0,0.0,1,-959.0,1
325,325,-0.1382784544927822,-0.1,1.0,0.0,495.0,958.0,0.0,0,1547.0,1
326,326,0.724677851834309,0.7,1.0,1.0,411.0,707.0,0.0,0,1882.0,0
327,327,-0.35638571495924665,-0.4,0.0,1.0,431.0,742.0,0.0,1,1827.0,0
328,328,-0.24869874940456183,-0.2,0.0,1.0,364.0,782.0,0.0,1,1854.0,0
329,329,-0.07685292663177534,-0.1,0.0,1.0,422.0,961.0,0.0,1,1617.0,0
330,330,-0.18491784460591598,-0.2,1.0,0.0,337.0,651.0,0.0,0,2012.0,1
331,331,0.038583502323438656,0.0,0.0,0.0,337.0,676.0,0.0,1,1987.0,1
332,332,-0.5436435053122421,-0.5,1.0,0.0,423.0,561.0,0.0,0,2016.0,1
333,333,0.5458223802019643,0.5,0.0,0.0,266.0,720.0,0.0,1,2014.0,1
334,334,-0.6970646944708678,-0.7,0.0,1.0,269.0,572.0,0.0,1,2159.0,0
335,335,0.5732324431142454,0.6,1.0,1.0,314.0,666.0,0.0,0,2020.0,0
336,336,-0.8590434379150441,-0.9,0.0,1.0,467.0,628.0,0.0,1,1905.0,0
337,337,0.5063788760964126,0.5,1.0,1.0,321.0,750.0,0.0,0,-1031.0,0
338,338,-0.7019143362680341,-0.7,0.0,1.0,385.0,613.0,0.0,1,2002.0,0
339,339,0.3449792194521334,0.3,0.0,0.0,417.0,706.0,0.0,1,1877.0,1
340,340,-0.32459780831890717,-0.3,1.0,0.0,273.0,697.0,0.0,0,2030.0,1
341,341,0.8381211271449879,0.8,1.0,1.0,326.0,615.0,0.0,0,2059.0,0
342,342,-0.45103377844300185,-0.5,1.0,0.0,458.0,637.0,0.0,0,1905.0,1
343,343,-0.27662218881848666,-0.3,0.0,1.0,445.0,761.0,0.0,1,1794.0,0
344,344,-0.05268252457284195,-0.1,1.0,0.0,447.0,545.0,0.0,0,-972.0,1
345,345,-0.6107241983816014,-0.6,0.0,1.0,404.0,954.0,0.0,1,1642.0,0
346,346,0.3350515219270064,0.3,0.0,0.0,457.0,587.0,0.0,1,1956.0,1
347,347,-0.05474857894869589,-0.1,0.0,1.0,466.0,621.0,0.0,1,1913.0,0
348,348,0.8693681066170972,0.9,0.0,0.0,360.0,762.0,0.0,1,1878.0,1
349,349,0.8888871208856887,0.9,0.0,0.0,483.0,863.0,0.0,1,1654.0,1
350,350,0.40233402150870534,0.4,1.0,1.0,294.0,674.0,0.0,0,2032.0,0
351,351,-0.102278048365265,-0.1,0.0,1.0,258.0,736.0,0.0,1,2006.0,0
352,352,-0.26035924341781935,-0.3,0.0,1.0,355.0,949.0,0.0,1,1696.0,0
353,353,0.6052770370469528,0.6,1.0,1.0,283.0,914.0,0.0,0,1803.0,0
354,354,-0.10635660800642632,-0.1,1.0,0.0,390.0,754.0,0.0,0,1856.0,1
355,355,0.7562984482721379,0.8,1.0,1.0,405.0,675.0,0.0,0,1920.0,0
356,356,-0.7038835692510117,-0.7,1.0,0.0,412.0,604.0,0.0,0,1984.0,1
357,357,0.24537223987090695,0.2,1.0,1.0,339.0,827.0,0.0,0,1834.0,0
358,358,-0.695469217750027,-0.7,0.0,1.0,366.0,758.0,1.0,0,-1064.0,1
359,359,0.511456962318701,0.5,1.0,1.0,425.0,785.0,0.0,0,1790.0,0
360,360,0.7916932677675316,0.8,1.0,1.0,357.0,603.0,0.0,0,2040.0,0
361,361,-0.12439881934430419,-0.1,1.0,0.0,385.0,654.0,0.0,0,1961.0,1
362,362,-0.49337022723278057,-0.5,0.0,1.0,271.0,963.0,0.0,1,1766.0,0
363,363,0.22123716974588048,0.2,1.0,1.0,360.0,745.0,0.0,0,1895.0,0
364,364,0.6628984465941615,0.7,1.0,1.0,478.0,720.0,0.0,0,1802.0,0
365,365,-0.12778632984344018,-0.1,0.0,1.0,347.0,900.0,0.0,1,1753.0,0
366,366,-0.3686218387390341,-0.4,1.0,0.0,373.0,504.0,1.0,1,-837.0,0
367,367,-0.7847108322412106,-0.8,1.0,0.0,490.0,903.0,0.0,0,-1383.0,1
368,368,-0.8677820906645797,-0.9,1.0,0.0,267.0,782.0,0.0,0,1951.0,1
369,369,0.24526211659836405,0.2,1.0,1.0,484.0,501.0,0.0,0,2015.0,0
370,370,-0.5582460652142076,-0.6,0.0,1.0,275.0,979.0,0.0,1,1746.0,0
371,371,-0.8783942121129952,-0.9,1.0,0.0,387.0,978.0,0.0,0,1635.0,1
372,372,-0.5442142814057247,-0.5,1.0,0.0,471.0,560.0,0.0,0,1969.0,1
373,373,-0.3834887459681058,-0.4,1.0,0.0,465.0,750.0,0.0,0,1785.0,1
374,374,0.38084952743540657,0.4,1.0,1.0,365.0,942.0,0.0,0,1693.0,0
375,375,-0.0009418551765275618,-0.0,0.0,1.0,320.0,840.0,0.0,1,1840.0,0
376,376,0.16011967065184318,0.2,1.0,1.0,371.0,528.0,0.0,0,2101.0,0
377,377,0.14389580633992238,0.1,0.0,0.0,351.0,756.0,0.0,1,-997.0,1
378,378,0.13910669433271183,0.1,1.0,1.0,364.0,930.0,0.0,0,1706.0,0
379,379,0.3565438616260471,0.4,0.0,0.0,354.0,620.0,0.0,1,2026.0,1
380,380,0.4815071475671612,0.5,1.0,1.0,435.0,968.0,0.0,0,1597.0,0
381,381,0.6658713903966064,0.7,1.0,1.0,403.0,765.0,0.0,0,1832.0,0
382,382,-0.1658942478727734,-0.2,0.0,1.0,429.0,625.0,0.0,1,1946.0,0
383,383,-0.06702161813591612,-0.1,1.0,0.0,380.0,637.0,0.0,0,1983.0,1
384,384,-0.2166987510371331,-0.2,0.0,1.0,458.0,880.0,0.0,1,1662.0,0
385,385,0.15409401616662632,0.2,1.0,1.0,480.0,961.0,0.0,0,1559.0,0
386,386,-0.4677023954296205,-0.5,0.0,1.0,488.0,732.0,0.0,1,1780.0,0
387,387,0.31033883816257124,0.3,1.0,1.0,462.0,880.0,0.0,0,1658.0,0
388,388,-0.2886958021727073,-0.3,1.0,0.0,307.0,545.0,0.0,0,2148.0,1
389,389,-0.3141346809433613,-0.3,0.0,1.0,262.0,714.0,0.0,1,2024.0,0
390,390,0.32923716844800344,0.3,0.0,0.0,295.0,684.0,0.0,1,2021.0,1
391,391,0.1396795149029474,0.1,0.0,0.0,433.0,879.0,0.0,1,1688.0,1
392,392,-0.2724537784820258,-0.3,1.0,0.0,347.0,867.0,0.0,0,-1164.0,1
393,393,0.6190240456629298,0.6,1.0,1.0,272.0,507.0,0.0,0,2221.0,0
394,394,-0.1198007628843969,-0.1,1.0,0.0,498.0,678.0,0.0,0,1824.0,1
395,395,0.29298827016747897,0.3,0.0,0.0,491.0,566.0,0.0,1,1943.0,1
396,396,0.41158645780053116,0.4,1.0,1.0,286.0,867.0,0.0,0,1847.0,0
397,397,-0.6328251182298257,-0.6,0.0,1.0,260.0,751.0,0.0,1,1989.0,0
398,398,-0.608117964056379,-0.6,0.0,1.0,281.0,752.0,0.0,1,1967.0,0
399,399,-0.13602682556669587,-0.1,0.0,1.0,251.0,503.0,0.0,1,2246.0,0
400,400,0.5777879030161127,0.6,0.0,0.0,330.0,828.0,0.0,1,1842.0,1
401,401,-0.8881419820217475,-0.9,0.0,1.0,284.0,969.0,0.0,1,1747.0,0
402,402,0.07209088951601927,0.1,0.0,0.0,421.0,724.0,1.0,0,-1115.0,0
403,403,-0.6240498788240056,-0.6,1.0,0.0,290.0,902.0,0.0,0,1808.0,1
404,404,-0.6641209397659769,-0.7,1.0,0.0,305.0,788.0,0.0,0,1907.0,1
405,405,0.11720079461027455,0.1,1.0,1.0,418.0,853.0,0.0,0,1729.0,0
406,406,-0.7445274595736929,-0.7,0.0,1.0,320.0,959.0,0.0,1,1721.0,0
407,407,-0.04657873969925508,-0.0,0.0,1.0,405.0,653.0,0.0,1,1942.0,0
408,408,0.04113873932018619,0.0,1.0,1.0,316.0,642.0,0.0,0,2042.0,0
409,409,0.6311030263916347,0.6,0.0,0.0,329.0,756.0,0.0,1,1915.0,1
410,410,-0.31177087095691725,-0.3,0.0,1.0,431.0,709.0,0.0,1,1860.0,0
411,411,-0.47868251976926907,-0.5,0.0,1.0,260.0,882.0,0.0,1,1858.0,0
412,412,-0.8881244340029961,-0.9,1.0,0.0,426.0,828.0,0.0,0,1746.0,1
413,413,0.7227441590176534,0.7,1.0,1.0,267.0,697.0,0.0,0,2036.0,0
414,414,-0.8081732714280399,-0.8,0.0,1.0,303.0,808.0,0.0,1,1889.0,0
415,415,0.4356575760945206,0.4,0.0,0.0,400.0,914.0,0.0,1,-1274.0,1
416,416,-0.3902526668530608,-0.4,1.0,0.0,341.0,707.0,0.0,0,1952.0,1
417,417,0.4086039911018312,0.4,1.0,1.0,254.0,775.0,0.0,0,1971.0,0
418,418,-0.8076445977712474,-0.8,1.0,0.0,483.0,647.0,0.0,0,1870.0,1
419,419,0.4458017286351622,0.4,0.0,0.0,400.0,737.0,0.0,1,1863.0,1
420,420,-0.7785321329714473,-0.8,1.0,0.0,297.0,956.0,0.0,0,1747.0,1
421,421,-0.5904522220659469,-0.6,0.0,1.0,318.0,726.0,0.0,1,1956.0,0
422,422,-0.521231169087784,-0.5,0.0,1.0,333.0,706.0,0.0,1,1961.0,0
423,423,-0.40710697786775596,-0.4,1.0,0.0,291.0,738.0,0.0,0,1971.0,1
424,424,-0.7978471666259085,-0.8,1.0,0.0,365.0,677.0,0.0,0,1958.0,1
425,425,0.1493166665537461,0.1,0.0,0.0,283.0,796.0,0.0,1,1921.0,1
426,426,0.7167943385594789,0.7,1.0,1.0,449.0,688.0,0.0,0,1863.0,0
427,427,-0.04499120695799397,-0.0,1.0,0.0,377.0,515.0,0.0,0,2108.0,1
428,428,0.2701677956448131,0.3,1.0,1.0,402.0,538.0,0.0,0,2060.0,0
429,429,-0.13980891822569308,-0.1,0.0,1.0,365.0,643.0,0.0,1,1992.0,0
430,430,0.34094074270060226,0.3,1.0,1.0,351.0,710.0,0.0,0,1939.0,0
431,431,0.059466524615026106,0.1,1.0,1.0,369.0,712.0,0.0,0,1919.0,0
432,432,0.05079902674733616,0.1,1.0,1.0,394.0,615.0,0.0,0,1991.0,0
433,433,-0.757264631489072,-0.8,1.0,0.0,494.0,901.0,0.0,0,1605.0,1
434,434,0.03568803825499134,0.0,0.0,0.0,482.0,983.0,0.0,1,1535.0,1
435,435,-0.6344624910634098,-0.6,1.0,0.0,284.0,801.0,0.0,0,1915.0,1
436,436,-0.6202816399239071,-0.6,1.0,0.0,440.0,738.0,0.0,0,1822.0,1
437,437,0.6334568274778148,0.6,0.0,0.0,437.0,542.0,0.0,1,2021.0,1
438,438,-0.5783684812407572,-0.6,1.0,0.0,298.0,598.0,0.0,0,2104.0,1
439,439,-0.38193286189083997,-0.4,0.0,1.0,252.0,523.0,0.0,1,2225.0,0
440,440,0.062316964317950085,0.1,1.0,1.0,361.0,960.0,0.0,0,1679.0,0
441,441,0.7591913682326924,0.8,0.0,0.0,426.0,571.0,0.0,1,2003.0,1
442,442,-0.13384884567058952,-0.1,1.0,0.0,321.0,745.0,0.0,0,1934.0,1
443,443,0.1584816212582788,0.2,1.0,1.0,358.0,685.0,0.0,0,-1033.0,0
444,444,0.547420749246652,0.5,0.0,0.0,373.0,704.0,0.0,1,1923.0,1
445,445,0.24463104498459087,0.2,1.0,1.0,303.0,504.0,0.0,0,2193.0,0
446,446,0.5189233923593807,0.5,1.0,1.0,399.0,567.0,0.0,0,2034.0,0
447,447,-0.8577204093341434,-0.9,0.0,1.0,282.0,793.0,0.0,1,1925.0,0
448,448,0.07722256598984834,0.1,1.0,1.0,440.0,609.0,0.0,0,1951.0,0
449,449,-0.44729055694348296,-0.4,0.0,1.0,362.0,691.0,0.0,1,1947.0,0
450,450,0.14410557901946952,0.1,1.0,1.0,354.0,645.0,0.0,0,2001.0,0
451,451,0.3578558667806041,0.4,1.0,1.0,282.0,973.0,0.0,0,1745.0,0
452,452,-0.8271150844501525,-0.8,0.0,1.0,390.0,530.0,0.0,1,2080.0,0
453,453,-0.8193223788276375,-0.8,1.0,0.0,374.0,648.0,0.0,0,1978.0,1
454,454,-0.08812948708982005,-0.1,1.0,0.0,483.0,861.0,0.0,0,1656.0,1
455,455,-0.2857618757969471,-0.3,1.0,0.0,277.0,586.0,0.0,0,2137.0,1
456,456,0.2942729122126043,0.3,0.0,0.0,456.0,855.0,1.0,0,-1301.0,0
457,457,0.21255892936833243,0.2,0.0,0.0,269.0,790.0,0.0,1,1941.0,1
458,458,0.38058351430851156,0.4,1.0,1.0,410.0,694.0,0.0,0,1896.0,0
459,459,-0.8650061105864206,-0.9,1.0,0.0,494.0,779.0,0.0,0,1727.0,1
460,460,0.7120296716621254,0.7,0.0,0.0,350.0,849.0,0.0,1,1801.0,1
461,461,0.35091065335984306,0.4,0.0,0.0,313.0,876.0,0.0,1,1811.0,1
462,462,0.20749808372865364,0.2,0.0,0.0,458.0,955.0,0.0,1,1587.0,1
463,463,0.7562244567307955,0.8,1.0,1.0,291.0,978.0,0.0,0,-1219.0,0
464,464,0.70188289563795,0.7,0.0,0.0,277.0,940.0,0.0,1,1783.0,1
465,465,-0.27186033038563784,-0.3,1.0,0.0,419.0,977.0,0.0,0,1604.0,1
466,466,0.17879868375747077,0.2,0.0,0.0,458.0,857.0,0.0,1,1685.0,1
467,467,-0.8596439592423518,-0.9,0.0,1.0,277.0,925.0,0.0,1,1798.0,0
468,468,-0.39508155442174364,-0.4,0.0,1.0,435.0,694.0,0.0,1,1871.0,0
469,469,0.8632715797212206,0.9,1.0,1.0,421.0,821.0,0.0,0,1758.0,0
470,470,0.5096979224052095,0.5,1.0,1.0,368.0,603.0,0.0,0,2029.0,0
471,471,0.7220559805592276,0.7,0.0,0.0,438.0,573.0,0.0,1,1989.0,1
472,472,0.6614670911937176,0.7,0.0,0.0,464.0,964.0,0.0,1,1572.0,1
473,473,-0.5243649920245372,-0.5,0.0,1.0,361.0,929.0,0.0,1,1710.0,0
474,474,-0.4982744214410368,-0.5,0.0,1.0,336.0,505.0,0.0,1,2159.0,0
475,475,-0.5251067147532378,-0.5,1.0,0.0,439.0,641.0,0.0,0,1920.0,1
476,476,0.7866220947579311,0.8,0.0,0.0,359.0,919.0,0.0,1,1722.0,1
477,477,-0.013500609828621113,-0.0,0.0,1.0,450.0,880.0,0.0,1,1670.0,0
478,478,-0.8463874782922781,-0.8,0.0,1.0,310.0,522.0,0.0,1,2168.0,0
479,479,-0.26796908000141906,-0.3,0.0,1.0,497.0,886.0,0.0,1,1617.0,0
480,480,-0.4010853882121335,-0.4,0.0,1.0,358.0,666.0,0.0,1,1976.0,0
481,481,-0.6439348292005926,-0.6,0.0,1.0,431.0,815.0,0.0,1,1754.0,0
482,482,-0.7187780332582274,-0.7,0.0,1.0,468.0,624.0,0.0,1,1908.0,0
483,483,-0.6741480074732918,-0.7,0.0,1.0,367.0,800.0,0.0,1,1833.0,0
484,484,-0.49032216095473014,-0.5,0.0,1.0,281.0,755.0,0.0,1,-986.0,0
485,485,0.2820577201338571,0.3,1.0,1.0,372.0,661.0,0.0,0,1967.0,0
486,486,0.41811056969108373,0.4,1.0,1.0,393.0,797.0,0.0,0,1810.0,0
487,487,-0.600004144447069,-0.6,1.0,0.0,297.0,746.0,0.0,0,1957.0,1
488,488,0.04961152308973116,0.0,0.0,0.0,422.0,752.0,0.0,1,1826.0,1
489,489,-0.048227682086015244,-0.0,1.0,0.0,324.0,998.0,0.0,0,1678.0,1
490,490,-0.26451376450257547,-0.3,1.0,0.0,259.0,777.0,0.0,0,1964.0,1
491,491,0.7958043186874427,0.8,0.0,0.0,490.0,530.0,0.0,1,1980.0,1
492,492,0.16614237639056195,0.2,0.0,0.0,251.0,851.0,0.0,1,-892.0,1
493,493,0.2276892711913242,0.2,0.0,0.0,473.0,944.0,0.0,1,1583.0,1
494,494,0.07555874099102833,0.1,1.0,1.0,269.0,859.0,0.0,0,1872.0,0
495,495,-0.2023665220204155,-0.2,1.0,0.0,452.0,825.0,0.0,0,1723.0,1
496,496,0.3364254156117409,0.3,1.0,1.0,363.0,984.0,0.0,0,1653.0,0
497,497,0.39171613465095956,0.4,0.0,0.0,413.0,783.0,0.0,1,1804.0,1
498,498,-0.3879129778615015,-0.4,1.0,0.0,467.0,977.0,1.0,1,-1374.0,0
499,499,-0.0682718191854339,-0.1,1.0,0.0,456.0,686.0,0.0,0,1858.0,1
500,500,-0.04214265787732707,-0.0,1.0,0.0,444.0,524.0,0.0,0,2032.0,1
501,501,-0.2803345028255019,-0.3,0.0,1.0,499.0,851.0,0.0,1,1650.0,0
502,502,-0.554385420734238,-0.6,0.0,1.0,483.0,911.0,0.0,1,1606.0,0
503,503,-0.5738332585846393,-0.6,1.0,0.0,311.0,527.0,0.0,0,2162.0,1
504,504,-0.6582669100823377,-0.7,0.0,1.0,382.0,589.0,0.0,1,2029.0,0
505,505,0.25303258492815506,0.3,0.0,0.0,445.0,636.0,0.0,1,1919.0,1
506,506,-0.06303813588219165,-0.1,1.0,0.0,308.0,618.0,0.0,0,2074.0,1
507,507,-0.8792776904735925,-0.9,1.0,0.0,356.0,762.0,0.0,0,1882.0,1
508,508,0.30124573232340424,0.3,1.0,1.0,258.0,782.0,0.0,0,1960.0,0
509,509,0.5221835550204618,0.5,0.0,0.0,421.0,585.0,0.0,1,1994.0,1
510,510,-0.36125464724130685,-0.4,0.0,1.0,465.0,670.0,0.0,1,1865.0,0
511,511,0.4357949026095179,0.4,1.0,1.0,469.0,682.0,0.0,0,1849.0,0
512,512,-0.7002279296321938,-0.7,1.0,0.0,430.0,710.0,0.0,0,1860.0,1
513,513,0.4612515441924082,0.5,1.0,1.0,472.0,645.0,0.0,0,1883.0,0
514,514,0.35447775167232043,0.4,1.0,1.0,302.0,509.0,0.0,0,2189.0,0
515,515,-0.8808544956030133,-0.9,0.0,1.0,352.0,537.0,0.0,1,2111.0,0
516,516,-0.17311164704304993,-0.2,0.0,1.0,252.0,600.0,0.0,1,2148.0,0
517,517,0.479743099513681,0.5,1.0,1.0,270.0,671.0,0.0,0,2059.0,0
518,518,-0.023698241258915176,-0.0,0.0,1.0,493.0,756.0,0.0,1,1751.0,0
519,519,-0.7740083047295919,-0.8,1.0,0.0,397.0,567.0,0.0,0,2036.0,1
520,520,-0.6988337213150217,-0.7,0.0,1.0,438.0,914.0,0.0,1,1648.0,0
521,521,0.41981919853357275,0.4,1.0,1.0,457.0,516.0,0.0,0,2027.0,0
522,522,-0.043336385645504016,-0.0,1.0,0.0,395.0,822.0,0.0,0,1783.0,1
523,523,-0.4546883440356747,-0.5,0.0,1.0,388.0,763.0,1.0,0,-1051.0,1
524,524,-0.18267321357032607,-0.2,0.0,1.0,384.0,807.0,0.0,1,1809.0,0
525,525,0.42155870063743406,0.4,0.0,0.0,303.0,595.0,0.0,1,-898.0,1
526,526,0.1785643358890382,0.2,1.0,1.0,284.0,652.0,0.0,0,2064.0,0
527,527,0.5031805104964345,0.5,0.0,0.0,473.0,944.0,0.0,1,1583.0,1
528,528,0.7153433768420104,0.7,0.0,0.0,291.0,547.0,0.0,1,2162.0,1
529,529,-0.26000298353689844,-0.3,0.0,1.0,346.0,654.0,0.0,1,2000.0,0
530,530,0.8958629469743306,0.9,1.0,1.0,408.0,528.0,0.0,0,-816.0,0
531,531,-0.5205552819165988,-0.5,1.0,0.0,375.0,512.0,0.0,0,2113.0,1
532,532,0.46432794019922496,0.5,0.0,0.0,453.0,756.0,0.0,1,1791.0,1
533,533,0.39663680713470717,0.4,1.0,1.0,457.0,729.0,0.0,0,1814.0,0
534,534,-0.8206993914679174,-0.8,0.0,1.0,310.0,795.0,0.0,1,-1005.0,0
535,535,0.7518936035152558,0.8,0.0,0.0,387.0,818.0,0.0,1,1795.0,1
536,536,0.3034842777544223,0.3,1.0,1.0,292.0,832.0,0.0,0,1876.0,0
537,537,-0.7034690343196056,-0.7,0.0,1.0,251.0,873.0,0.0,1,1876.0,0
538,538,0.07632272559135955,0.1,0.0,0.0,265.0,907.0,0.0,1,1828.0,1
539,539,-0.5835321469634678,-0.6,0.0,1.0,441.0,565.0,0.0,1,1994.0,0
540,540,-0.6373463574384872,-0.6,1.0,0.0,398.0,527.0,0.0,0,2075.0,1
541,541,0.4833679745900258,0.5,1.0,1.0,335.0,940.0,0.0,0,1725.0,0
542,542,0.15223331516122374,0.2,1.0,1.0,277.0,869.0,0.0,0,1854.0,0
543,543,-0.7242239773858542,-0.7,0.0,1.0,373.0,928.0,0.0,1,1699.0,0
544,544,0.09083956064263832,0.1,0.0,0.0,357.0,559.0,0.0,1,2084.0,1
545,545,0.885477638640307,0.9,0.0,0.0,336.0,885.0,0.0,1,1779.0,1
546,546,-0.5733882173962075,-0.6,0.0,1.0,429.0,724.0,0.0,1,1847.0,0
547,547,-0.2695914782157619,-0.3,1.0,0.0,436.0,694.0,0.0,0,1870.0,1
548,548,0.6509821688776914,0.7,1.0,1.0,257.0,660.0,0.0,0,2083.0,0
549,549,-0.342672101593114,-0.3,1.0,0.0,348.0,536.0,0.0,0,2116.0,1
550,550,0.24946805417856688,0.2,1.0,1.0,330.0,988.0,0.0,0,1682.0,0
551,551,0.8250420982029528,0.8,1.0,1.0,391.0,929.0,0.0,0,1680.0,0
552,552,0.893730490596352,0.9,1.0,1.0,373.0,947.0,0.0,0,1680.0,0
553,553,-0.7640679795057932,-0.8,1.0,0.0,370.0,686.0,0.0,0,1944.0,1
554,554,-0.7349229155348758,-0.7,0.0,1.0,286.0,589.0,0.0,1,2125.0,0
555,555,-0.5868011631590637,-0.6,1.0,0.0,457.0,897.0,0.0,0,1646.0,1
556,556,-0.23040009013391338,-0.2,1.0,0.0,316.0,867.0,0.0,0,1817.0,1
557,557,0.5576955027551284,0.6,1.0,1.0,438.0,537.0,0.0,0,2025.0,0
558,558,-0.14062149288913306,-0.1,1.0,0.0,473.0,512.0,0.0,0,-935.0,1
559,559,0.1504070515653243,0.2,0.0,0.0,283.0,960.0,1.0,0,-1223.0,0
560,560,0.6079052177632976,0.6,1.0,1.0,407.0,927.0,0.0,0,1666.0,0
561,561,-0.0006262368430340892,-0.0,0.0,1.0,358.0,647.0,0.0,1,1995.0,0
562,562,0.35315684141034376,0.4,1.0,1.0,349.0,828.0,0.0,0,1823.0,0
563,563,-0.37265026353827346,-0.4,0.0,1.0,296.0,570.0,0.0,1,-806.0,0
564,564,-0.15537113830007165,-0.2,0.0,1.0,474.0,891.0,0.0,1,1635.0,0
565,565,-0.26237167778437387,-0.3,0.0,1.0,452.0,745.0,0.0,1,1803.0,0
566,566,0.6637855983625239,0.7,1.0,1.0,443.0,968.0,0.0,0,1589.0,0
567,567,0.8336188658457683,0.8,0.0,0.0,298.0,649.0,0.0,1,2053.0,1
568,568,-0.8838781603596448,-0.9,1.0,0.0,327.0,629.0,0.0,0,2044.0,1
569,569,-0.46890209285247425,-0.5,1.0,0.0,380.0,776.0,0.0,0,1844.0,1
570,570,0.4976973339561702,0.5,0.0,0.0,384.0,770.0,0.0,1,1846.0,1
571,571,-0.5218606557284924,-0.5,0.0,1.0,464.0,584.0,0.0,1,1952.0,0
572,572,-0.2329366315434246,-0.2,1.0,0.0,415.0,501.0,0.0,0,-916.0,1
573,573,0.030599108164870326,0.0,1.0,1.0,302.0,805.0,0.0,0,1893.0,0
574,574,0.5805095888665813,0.6,0.0,0.0,398.0,648.0,0.0,1,1954.0,1
575,575,0.8929526765269272,0.9,0.0,0.0,497.0,669.0,0.0,1,1834.0,1
576,576,0.7722794267551122,0.8,0.0,0.0,340.0,761.0,0.0,1,1899.0,1
577,577,-0.17187275913467182,-0.2,0.0,1.0,468.0,930.0,0.0,1,1602.0,0
578,578,0.8906209252445404,0.9,1.0,1.0,391.0,763.0,0.0,0,1846.0,0
579,579,-0.6690336366035108,-0.7,1.0,0.0,297.0,925.0,0.0,0,1778.0,1
580,580,0.06284944090166844,0.1,0.0,0.0,415.0,873.0,0.0,1,1712.0,1
581,581,0.24119701263184157,0.2,1.0,1.0,415.0,964.0,0.0,0,1621.0,0
582,582,-0.4256612213255329,-0.4,0.0,1.0,492.0,977.0,0.0,1,1531.0,0
583,583,-0.15995094907634944,-0.2,1.0,0.0,319.0,875.0,1.0,1,-1074.0,0
584,584,0.15488077954445412,0.2,0.0,0.0,307.0,714.0,0.0,1,1979.0,1
585,585,-0.1259872515351803,-0.1,1.0,0.0,270.0,642.0,0.0,0,2088.0,1
586,586,0.05142460015716077,0.1,0.0,0.0,436.0,526.0,0.0,1,2038.0,1
587,587,0.3166677830800667,0.3,1.0,1.0,401.0,974.0,0.0,0,1625.0,0
588,588,0.7888851998574934,0.8,0.0,0.0,444.0,929.0,0.0,1,1627.0,1
589,589,0.16922564198660794,0.2,1.0,1.0,294.0,707.0,0.0,0,-971.0,0
590,590,-0.8092291524634665,-0.8,1.0,0.0,481.0,680.0,0.0,0,1839.0,1
591,591,-0.29188891598696565,-0.3,1.0,0.0,498.0,848.0,0.0,0,1654.0,1
592,592,0.4743893510293432,0.5,1.0,1.0,319.0,577.0,0.0,0,2104.0,0
593,593,-0.6723362894958307,-0.7,0.0,1.0,333.0,654.0,1.0,0,-967.0,1
594,594,0.25442779547524863,0.3,0.0,0.0,316.0,718.0,0.0,1,1966.0,1
595,595,-0.2802590961901176,-0.3,1.0,0.0,438.0,616.0,0.0,0,1946.0,1
596,596,-0.7069329156231103,-0.7,1.0,0.0,291.0,653.0,0.0,0,2056.0,1
597,597,0.034603341650149666,0.0,1.0,1.0,485.0,666.0,0.0,0,1849.0,0
598,598,-0.012685779254051455,-0.0,0.0,1.0,342.0,716.0,0.0,1,1942.0,0
599,599,0.7551639137616958,0.8,0.0,0.0,497.0,782.0,0.0,1,1721.0,1
600,600,-0.5712676251702337,-0.6,1.0,0.0,407.0,634.0,0.0,0,1959.0,1
601,601,0.3597024814376689,0.4,1.0,1.0,340.0,881.0,0.0,0,1779.0,0
602,602,0.41307628340687963,0.4,1.0,1.0,258.0,549.0,0.0,0,2193.0,0
603,603,0.3191434656873958,0.3,0.0,0.0,346.0,536.0,0.0,1,2118.0,1
604,604,-0.47534331962891013,-0.5,1.0,0.0,409.0,953.0,0.0,0,1638.0,1
605,605,-0.37884163802638493,-0.4,1.0,0.0,451.0,739.0,0.0,0,1810.0,1
606,606,0.47067475908618717,0.5,0.0,0.0,495.0,784.0,0.0,1,1721.0,1
607,607,-0.18559019628236273,-0.2,0.0,1.0,274.0,828.0,0.0,1,1898.0,0
608,608,-0.311942902884779,-0.3,1.0,0.0,452.0,635.0,0.0,0,1913.0,1
609,609,-0.6255075179030432,-0.6,1.0,0.0,438.0,720.0,0.0,0,1842.0,1
610,610,-0.20906648241437997,-0.2,1.0,0.0,314.0,974.0,0.0,0,1712.0,1
611,611,-0.5553797933341958,-0.6,0.0,1.0,342.0,760.0,0.0,1,1898.0,0
612,612,0.5362174011111865,0.5,0.0,0.0,403.0,631.0,0.0,1,-1024.0,1
613,613,-0.2692321408684397,-0.3,1.0,0.0,442.0,577.0,0.0,0,1981.0,1
614,614,0.8532687222050005,0.9,1.0,1.0,320.0,849.0,0.0,0,1831.0,0
615,615,0.5998265700847497,0.6,1.0,1.0,420.0,606.0,0.0,0,1974.0,0
616,616,-0.12453856575050659,-0.1,1.0,0.0,270.0,854.0,0.0,0,1876.0,1
617,617,-0.7307470022441955,-0.7,0.0,1.0,434.0,523.0,0.0,1,2043.0,0
618,618,-0.4412352987090093,-0.4,0.0,1.0,314.0,931.0,0.0,1,1755.0,0
619,619,-0.43342787619034323,-0.4,1.0,0.0,418.0,589.0,0.0,0,-947.0,1
620,620,-0.7414053293876788,-0.7,1.0,0.0,308.0,981.0,0.0,0,1711.0,1
621,621,-0.8819428163918959,-0.9,0.0,1.0,434.0,753.0,0.0,1,1813.0,0
622,622,-0.33155801872959556,-0.3,0.0,1.0,270.0,921.0,0.0,1,-1101.0,0
623,623,0.03109283785401784,0.0,1.0,1.0,273.0,802.0,1.0,1,-1015.0,1
624,624,0.3517586601576633,0.4,1.0,1.0,472.0,955.0,0.0,0,1573.0,0
625,625,0.25477668007316734,0.3,1.0,1.0,309.0,943.0,0.0,0,1748.0,0
626,626,0.5415650247171312,0.5,1.0,1.0,387.0,809.0,0.0,0,1804.0,0
627,627,0.7054645888166174,0.7,1.0,1.0,426.0,518.0,0.0,0,-934.0,0
628,628,-0.7264760462786493,-0.7,0.0,1.0,273.0,930.0,0.0,1,1797.0,0
629,629,0.06458759727241503,0.1,1.0,1.0,251.0,526.0,0.0,0,2223.0,0
630,630,-0.658785276214442,-0.7,0.0,1.0,335.0,893.0,0.0,1,1772.0,0
631,631,-0.29527493317217224,-0.3,0.0,1.0,341.0,781.0,0.0,1,1878.0,0
632,632,-0.7975719201203544,-0.8,1.0,0.0,286.0,529.0,1.0,1,-695.0,0
633,633,-0.11426034441179522,-0.1,0.0,1.0,284.0,819.0,0.0,1,1897.0,0
634,634,-0.1373244046700426,-0.1,0.0,1.0,255.0,687.0,0.0,1,2058.0,0
635,635,0.6213946580287569,0.6,0.0,0.0,316.0,760.0,0.0,1,1924.0,1
636,636,0.6464084535936455,0.6,1.0,1.0,367.0,587.0,0.0,0,2046.0,0
637,637,0.6548933142109247,0.7,1.0,1.0,426.0,785.0,0.0,0,1789.0,0
638,638,-0.7372456099484065,-0.7,0.0,1.0,392.0,851.0,0.0,1,1757.0,0
639,639,-0.6352748333097358,-0.6,1.0,0.0,384.0,943.0,0.0,0,1673.0,1
640,640,0.6031456596257675,0.6,0.0,0.0,260.0,529.0,0.0,1,2211.0,1
641,641,0.400916946527872,0.4,0.0,0.0,442.0,930.0,0.0,1,1628.0,1
642,642,-0.28115367232084676,-0.3,0.0,1.0,412.0,710.0,0.0,1,1878.0,0
643,643,-0.34518795900125065,-0.3,0.0,1.0,389.0,985.0,1.0,0,-1374.0,1
644,644,-0.6463241266452615,-0.6,0.0,1.0,396.0,734.0,0.0,1,1870.0,0
645,645,0.12172235784160346,0.1,1.0,1.0,259.0,823.0,0.0,0,1918.0,0
646,646,-0.35638596737370254,-0.4,1.0,0.0,266.0,836.0,0.0,0,1898.0,1
647,647,0.07992425256673452,0.1,1.0,1.0,463.0,696.0,0.0,0,1841.0,0
648,648,-0.529575943367873,-0.5,1.0,0.0,308.0,721.0,0.0,0,1971.0,1
649,649,0.13321941383322977,0.1,1.0,1.0,364.0,897.0,0.0,0,1739.0,0
650,650,0.8445989792989318,0.8,0.0,0.0,271.0,782.0,0.0,1,1947.0,1
651,651,-0.6229549465101005,-0.6,1.0,0.0,322.0,645.0,0.0,0,2033.0,1
652,652,0.09031529450431253,0.1,0.0,0.0,383.0,801.0,0.0,1,1816.0,1
653,653,-0.27218566028230395,-0.3,1.0,0.0,303.0,914.0,0.0,0,1783.0,1
654,654,-0.01285610440501228,-0.0,0.0,1.0,327.0,735.0,0.0,1,1938.0,0
655,655,-0.6655669774202853,-0.7,0.0,1.0,453.0,698.0,0.0,1,1849.0,0
656,656,0.4504604266577651,0.5,1.0,1.0,478.0,886.0,1.0,1,-1244.0,1
657,657,0.022271837942596573,0.0,0.0,0.0,449.0,666.0,0.0,1,-1015.0,1
658,658,0.5212548061573484,0.5,1.0,1.0,486.0,648.0,0.0,0,1866.0,0
659,659,-0.3747974207805581,-0.4,1.0,0.0,339.0,632.0,0.0,0,2029.0,1
660,660,0.21284698380947475,0.2,1.0,1.0,422.0,829.0,0.0,0,-1191.0,0
661,661,0.8668605250501732,0.9,0.0,0.0,347.0,903.0,0.0,1,-1080.0,1
662,662,-0.35866280311633614,-0.4,1.0,0.0,383.0,994.0,0.0,0,1623.0,1
663,663,0.6780064985256001,0.7,0.0,0.0,262.0,615.0,0.0,1,2123.0,1
664,664,-0.4611260324487738,-0.5,1.0,0.0,275.0,995.0,0.0,0,1730.0,1
665,665,-0.6232260663159221,-0.6,1.0,0.0,329.0,566.0,0.0,0,2105.0,1
666,666,-0.03989099088561032,-0.0,1.0,0.0,387.0,955.0,0.0,0,1658.0,1
667,667,0.8431550231566708,0.8,0.0,0.0,360.0,837.0,0.0,1,1803.0,1
668,668,-0.27766000202963614,-0.3,0.0,1.0,372.0,813.0,0.0,1,1815.0,0
669,669,0.11631881808049027,0.1,0.0,0.0,278.0,916.0,0.0,1,1806.0,1
670,670,0.39972703183718805,0.4,0.0,0.0,449.0,539.0,0.0,1,2012.0,1
671,671,-0.7401997400793141,-0.7,1.0,0.0,494.0,927.0,0.0,0,1579.0,1
672,672,0.1689999631074538,0.2,0.0,0.0,456.0,520.0,0.0,1,2024.0,1
673,673,-0.7490628602266654,-0.7,1.0,0.0,382.0,582.0,0.0,0,2036.0,1
674,674,-0.1878364130293425,-0.2,0.0,1.0,315.0,679.0,0.0,1,2006.0,0
675,675,-0.4046035861014599,-0.4,0.0,1.0,403.0,986.0,0.0,1,1611.0,0
676,676,-0.6934075893680967,-0.7,1.0,0.0,498.0,574.0,0.0,0,1928.0,1
677,677,-0.8480560914880069,-0.8,1.0,0.0,254.0,858.0,0.0,0,1888.0,1
678,678,-0.3819367245662625,-0.4,1.0,0.0,395.0,959.0,0.0,0,1646.0,1
679,679,-0.030734744523882807,-0.0,0.0,1.0,380.0,853.0,0.0,1,1767.0,0
680,680,0.23310082376268582,0.2,1.0,1.0,353.0,539.0,0.0,0,2108.0,0
681,681,-0.47683406260734684,-0.5,1.0,0.0,331.0,686.0,0.0,0,1983.0,1
682,682,-0.6905610225331262,-0.7,1.0,0.0,459.0,595.0,0.0,0,1946.0,1
683,683,0.22049818418263467,0.2,1.0,1.0,486.0,867.0,0.0,0,1647.0,0
684,684,0.8732654323181323,0.9,0.0,0.0,380.0,601.0,0.0,1,2019.0,1
685,685,-0.6817132538376611,-0.7,1.0,0.0,463.0,941.0,0.0,0,1596.0,1
686,686,0.27512122243971515,0.3,1.0,1.0,490.0,679.0,0.0,0,1831.0,0
687,687,0.6178881979243708,0.6,0.0,0.0,300.0,576.0,0.0,1,2124.0,1
688,688,0.06763967234753632,0.1,1.0,1.0,472.0,939.0,0.0,0,-1401.0,0
689,689,-0.7394194506167241,-0.7,1.0,0.0,285.0,582.0,0.0,0,2133.0,1
690,690,0.12488951784621827,0.1,0.0,0.0,297.0,530.0,0.0,1,2173.0,1
691,691,0.8663355195197974,0.9,0.0,0.0,426.0,907.0,0.0,1,1667.0,1
692,692,-0.13928357946288228,-0.1,1.0,0.0,411.0,595.0,0.0,0,1994.0,1
693,693,0.8156761771666686,0.8,0.0,0.0,312.0,832.0,0.0,1,1856.0,1
694,694,-0.08673770879920806,-0.1,0.0,1.0,326.0,949.0,0.0,1,1725.0,0
695,695,0.7586362448231437,0.8,1.0,1.0,271.0,565.0,0.0,0,2164.0,0
696,696,-0.5723650061424777,-0.6,1.0,0.0,264.0,525.0,0.0,0,2211.0,1
697,697,0.10205989684468231,0.1,0.0,0.0,316.0,990.0,0.0,1,1694.0,1
698,698,0.35286937054314504,0.4,0.0,0.0,276.0,584.0,0.0,1,2140.0,1
699,699,0.5031778939891659,0.5,0.0,0.0,320.0,896.0,0.0,1,1784.0,1
700,700,-0.8786346068770403,-0.9,0.0,1.0,443.0,798.0,0.0,1,1759.0,0
701,701,0.5589696343090073,0.6,0.0,0.0,404.0,633.0,0.0,1,1963.0,1
702,702,-0.8051619667824806,-0.8,0.0,1.0,404.0,562.0,0.0,1,2034.0,0
703,703,0.7483495313047154,0.7,0.0,0.0,421.0,615.0,0.0,1,1964.0,1
704,704,0.5850331648699342,0.6,0.0,0.0,361.0,657.0,0.0,1,1982.0,1
705,705,-0.7523835700555468,-0.8,0.0,1.0,346.0,952.0,0.0,1,1702.0,0
706,706,-0.3177067230310383,-0.3,1.0,0.0,293.0,609.0,0.0,0,2098.0,1
707,707,-0.06270605148305752,-0.1,1.0,0.0,451.0,944.0,0.0,0,1605.0,1
708,708,-0.05408035655623433,-0.1,1.0,0.0,416.0,592.0,0.0,0,1992.0,1
709,709,0.34331203481721995,0.3,1.0,1.0,439.0,862.0,0.0,0,1699.0,0
710,710,-0.2691849533295888,-0.3,0.0,1.0,455.0,663.0,0.0,1,1882.0,0
711,711,0.40736782727627163,0.4,0.0,0.0,474.0,700.0,0.0,1,1826.0,1
712,712,-0.17926298834070498,-0.2,0.0,1.0,403.0,887.0,0.0,1,1710.0,0
713,713,0.8790392051974986,0.9,1.0,1.0,337.0,644.0,0.0,0,2019.0,0
714,714,0.5090407893426073,0.5,0.0,0.0,265.0,690.0,0.0,1,2045.0,1
715,715,0.7770741817667334,0.8,0.0,0.0,490.0,807.0,0.0,1,1703.0,1
716,716,-0.3649590574073217,-0.4,0.0,1.0,379.0,562.0,0.0,1,2059.0,0
717,717,0.10499096613051162,0.1,0.0,0.0,423.0,519.0,0.0,1,2058.0,1
718,718,0.8076181243876853,0.8,1.0,1.0,368.0,955.0,0.0,0,1677.0,0
719,719,0.5678958654980922,0.6,1.0,1.0,281.0,936.0,0.0,0,1783.0,0
720,720,0.4216395654986026,0.4,1.0,1.0,257.0,693.0,0.0,0,2050.0,0
721,721,0.4686356479243138,0.5,0.0,0.0,332.0,868.0,0.0,1,1800.0,1
722,722,0.42330453188742856,0.4,1.0,1.0,432.0,588.0,0.0,0,-990.0,0
723,723,-0.4188975075254531,-0.4,0.0,1.0,455.0,623.0,0.0,1,1922.0,0
724,724,-0.1437891662160926,-0.1,0.0,1.0,428.0,533.0,0.0,1,2039.0,0
725,725,0.6167385666558177,0.6,1.0,1.0,356.0,655.0,0.0,0,1989.0,0
726,726,0.4386280942034183,0.4,0.0,0.0,464.0,501.0,0.0,1,2035.0,1
727,727,-0.7655284702219761,-0.8,0.0,1.0,297.0,865.0,0.0,1,1838.0,0
728,728,-0.7978992092710557,-0.8,0.0,1.0,411.0,883.0,0.0,1,1706.0,0
729,729,-0.29457896600670064,-0.3,0.0,1.0,341.0,784.0,0.0,1,1875.0,0
730,730,-0.5019050868633832,-0.5,0.0,1.0,363.0,727.0,0.0,1,1910.0,0
731,731,-0.21788781667465584,-0.2,1.0,0.0,408.0,819.0,1.0,1,-1157.0,0
732,732,-0.5497130932307344,-0.5,0.0,1.0,274.0,625.0,0.0,1,2101.0,0
733,733,0.15023981917697726,0.2,1.0,1.0,366.0,592.0,0.0,0,2042.0,0
734,734,0.2697812129694791,0.3,0.0,0.0,413.0,988.0,0.0,1,1599.0,1
735,735,0.8970809727926007,0.9,1.0,1.0,277.0,914.0,0.0,0,1809.0,0
736,736,-0.4944496357371983,-0.5,1.0,0.0,432.0,737.0,0.0,0,1831.0,1
737,737,0.30036148917955263,0.3,0.0,0.0,436.0,682.0,0.0,1,1882.0,1
738,738,-0.297182494046919,-0.3,1.0,0.0,449.0,519.0,1.0,1,-878.0,0
739,739,-0.05659534588429782,-0.1,0.0,1.0,398.0,857.0,0.0,1,1745.0,0
740,740,0.6858468029674688,0.7,1.0,1.0,482.0,580.0,0.0,0,1938.0,0
741,741,0.1451481058353733,0.1,1.0,1.0,316.0,586.0,0.0,0,2098.0,0
742,742,-0.3668680526848127,-0.4,0.0,1.0,331.0,918.0,0.0,1,1751.0,0
743,743,0.6583199641813192,0.7,1.0,1.0,366.0,568.0,0.0,0,2066.0,0
744,744,0.26282307917436876,0.3,1.0,1.0,267.0,969.0,0.0,0,-1046.0,0
745,745,0.508428488897584,0.5,0.0,0.0,256.0,633.0,0.0,1,2111.0,1
746,746,-0.11999885562639412,-0.1,1.0,0.0,459.0,677.0,0.0,0,1864.0,1
747,747,0.32955388757464654,0.3,1.0,1.0,308.0,608.0,0.0,0,2084.0,0
748,748,0.10852388947964575,0.1,1.0,1.0,282.0,671.0,0.0,0,-893.0,0
749,749,0.5207395368366851,0.5,1.0,1.0,430.0,662.0,0.0,0,1908.0,0
750,750,-0.796447502455357,-0.8,1.0,0.0,334.0,635.0,1.0,1,-939.0,0
751,751,0.3688187022938637,0.4,0.0,0.0,388.0,723.0,0.0,1,1889.0,1
752,752,0.5432148033193273,0.5,0.0,0.0,264.0,692.0,0.0,1,2044.0,1
753,753,0.8103087967241315,0.8,1.0,1.0,493.0,645.0,0.0,0,1862.0,0
754,754,-0.8684366658757247,-0.9,0.0,1.0,337.0,574.0,0.0,1,2089.0,0
755,755,0.42350735122847427,0.4,1.0,1.0,324.0,920.0,0.0,0,1756.0,0
756,756,0.8785406540656869,0.9,1.0,1.0,403.0,786.0,0.0,0,1811.0,0
757,757,0.7615924696420932,0.8,1.0,1.0,414.0,748.0,0.0,0,1838.0,0
758,758,0.1393134555897576,0.1,1.0,1.0,398.0,862.0,1.0,1,-1060.0,1
759,759,-0.2995810005067938,-0.3,1.0,0.0,373.0,646.0,0.0,0,1981.0,1
760,760,-0.21246026994243983,-0.2,1.0,0.0,283.0,902.0,0.0,0,1815.0,1
761,761,-0.4003336166379527,-0.4,0.0,1.0,426.0,863.0,1.0,0,-1249.0,1
762,762,-0.5316999502317066,-0.5,1.0,0.0,345.0,997.0,0.0,0,1658.0,1
763,763,0.3932012655738958,0.4,1.0,1.0,363.0,928.0,0.0,0,-1261.0,0
764,764,0.1615210785510951,0.2,1.0,1.0,478.0,707.0,0.0,0,1815.0,0
765,765,0.8171157891437743,0.8,1.0,1.0,481.0,634.0,0.0,0,1885.0,0
766,766,0.8427767568228438,0.8,0.0,0.0,341.0,574.0,0.0,1,2085.0,1
767,767,-0.8134828932572216,-0.8,1.0,0.0,451.0,962.0,0.0,0,-1283.0,1
768,768,0.3837095604239319,0.4,1.0,1.0,424.0,510.0,0.0,0,2066.0,0
769,769,-0.40570488363739843,-0.4,0.0,1.0,275.0,506.0,0.0,1,2219.0,0
770,770,-0.37229590115628197,-0.4,0.0,1.0,423.0,825.0,0.0,1,1752.0,0
771,771,-0.7795175926929748,-0.8,0.0,1.0,307.0,823.0,0.0,1,1870.0,0
772,772,-0.4173278404272312,-0.4,1.0,0.0,390.0,896.0,0.0,0,1714.0,1
773,773,0.27002782978609396,0.3,1.0,1.0,443.0,958.0,0.0,0,1599.0,0
774,774,0.20681726639016362,0.2,0.0,0.0,446.0,960.0,0.0,1,1594.0,1
775,775,0.15575272473948265,0.2,0.0,0.0,473.0,558.0,0.0,1,1969.0,1
776,776,-0.2844583411916589,-0.3,0.0,1.0,398.0,797.0,0.0,1,1805.0,0
777,777,0.3483075514392592,0.3,1.0,1.0,416.0,899.0,0.0,0,1685.0,0
778,778,0.8745027495853391,0.9,1.0,1.0,253.0,710.0,0.0,0,2037.0,0
779,779,0.6122788307222177,0.6,0.0,0.0,331.0,621.0,0.0,1,2048.0,1
780,780,-0.6881181730572663,-0.7,1.0,0.0,436.0,901.0,0.0,0,1663.0,1
781,781,0.7372060216673012,0.7,1.0,1.0,420.0,836.0,0.0,0,1744.0,0
782,782,0.4571081929807289,0.5,1.0,1.0,371.0,588.0,0.0,0,2041.0,0
783,783,0.8431517815747877,0.8,0.0,0.0,363.0,950.0,0.0,1,1687.0,1
784,784,0.14047224586075335,0.1,0.0,0.0,353.0,543.0,0.0,1,2104.0,1
785,785,-0.6744998817376868,-0.7,0.0,1.0,404.0,948.0,0.0,1,1648.0,0
786,786,0.3415008570598551,0.3,0.0,0.0,463.0,777.0,0.0,1,1760.0,1
787,787,0.8760982630846729,0.9,1.0,1.0,331.0,739.0,0.0,0,1930.0,0
788,788,-0.8678013670200263,-0.9,1.0,0.0,447.0,551.0,0.0,0,2002.0,1
789,789,0.1250535752672287,0.1,0.0,0.0,340.0,519.0,0.0,1,2141.0,1
790,790,0.541509229662532,0.5,1.0,1.0,431.0,561.0,0.0,0,2008.0,0
791,791,0.19075919184241774,0.2,1.0,1.0,366.0,703.0,1.0,1,-1039.0,1
792,792,0.7084819210776833,0.7,1.0,1.0,354.0,582.0,0.0,0,2064.0,0
793,793,0.31162604624485646,0.3,0.0,0.0,346.0,716.0,0.0,1,1938.0,1
794,794,-0.4025614945549478,-0.4,1.0,0.0,342.0,697.0,0.0,0,1961.0,1
795,795,0.837350741273117,0.8,0.0,0.0,415.0,824.0,0.0,1,1761.0,1
796,796,0.7495767077193177,0.7,0.0,0.0,307.0,546.0,0.0,1,2147.0,1
797,797,-0.2090665085519796,-0.2,0.0,1.0,315.0,726.0,0.0,1,1959.0,0
798,798,0.053755801177787776,0.1,0.0,0.0,384.0,949.0,0.0,1,1667.0,1
799,799,-0.3015518304206576,-0.3,0.0,1.0,430.0,666.0,0.0,1,1904.0,0
800,800,-0.33978040724229486,-0.3,1.0,0.0,375.0,994.0,0.0,0,1631.0,1
801,801,-0.7479120194559339,-0.7,0.0,1.0,440.0,737.0,0.0,1,1823.0,0
802,802,-0.05680770484151065,-0.1,1.0,0.0,347.0,704.0,0.0,0,1949.0,1
803,803,-0.3929406590487011,-0.4,1.0,0.0,287.0,720.0,0.0,0,1993.0,1
804,804,-0.2874157317939049,-0.3,0.0,1.0,295.0,771.0,0.0,1,1934.0,0
805,805,-0.3911750926885318,-0.4,0.0,1.0,251.0,550.0,0.0,1,2199.0,0
806,806,-0.1611769850935545,-0.2,1.0,0.0,425.0,911.0,0.0,0,1664.0,1
807,807,-0.040800369642189915,-0.0,0.0,1.0,424.0,732.0,0.0,1,1844.0,0
808,808,-0.461052783229623,-0.5,0.0,1.0,407.0,793.0,0.0,1,1800.0,0
809,809,0.5036238965488055,0.5,0.0,0.0,268.0,706.0,0.0,1,2026.0,1
810,810,-0.4586485211346909,-0.5,0.0,1.0,424.0,761.0,0.0,1,1815.0,0
811,811,0.2434561930136666,0.2,1.0,1.0,327.0,545.0,0.0,0,2128.0,0
812,812,0.41632255178064737,0.4,0.0,0.0,468.0,807.0,0.0,1,1725.0,1
813,813,-0.30573574005530657,-0.3,1.0,0.0,450.0,637.0,0.0,0,1913.0,1
814,814,0.5384215653961729,0.5,0.0,0.0,462.0,861.0,0.0,1,1677.0,1
815,815,-0.6192668550945029,-0.6,0.0,1.0,332.0,665.0,1.0,0,-817.0,1
816,816,-0.13689164658716035,-0.1,1.0,0.0,475.0,815.0,0.0,0,1710.0,1
817,817,-0.5685790974882595,-0.6,0.0,1.0,421.0,853.0,0.0,1,1726.0,0
818,818,-0.6497606247249794,-0.6,1.0,0.0,336.0,986.0,0.0,0,1678.0,1
819,819,-0.6306344179621093,-0.6,0.0,1.0,350.0,658.0,0.0,1,1992.0,0
820,820,0.36003984371855513,0.4,0.0,0.0,495.0,783.0,0.0,1,1722.0,1
821,821,0.19542394467488766,0.2,0.0,0.0,287.0,744.0,0.0,1,-891.0,1
822,822,-0.5645798319253634,-0.6,0.0,1.0,368.0,784.0,0.0,1,1848.0,0
823,823,0.25373074154241115,0.3,1.0,1.0,409.0,644.0,0.0,0,1947.0,0
824,824,-0.12299827692042864,-0.1,1.0,0.0,357.0,534.0,0.0,0,2109.0,1
825,825,-0.5078214105761449,-0.5,1.0,0.0,267.0,868.0,0.0,0,1865.0,1
826,826,-0.1854701734074934,-0.2,1.0,0.0,299.0,636.0,0.0,0,2065.0,1
827,827,0.3275871486112373,0.3,0.0,0.0,373.0,621.0,0.0,1,2006.0,1
828,828,0.17222005918855843,0.2,0.0,0.0,280.0,765.0,0.0,1,1955.0,1
829,829,0.08083627940920535,0.1,0.0,0.0,438.0,639.0,0.0,1,1923.0,1
830,830,-0.5749853002914542,-0.6,1.0,0.0,477.0,950.0,0.0,0,1573.0,1
831,831,-0.8279126348040898,-0.8,0.0,1.0,393.0,788.0,0.0,1,1819.0,0
832,832,-0.5030425382669332,-0.5,1.0,0.0,498.0,549.0,0.0,0,1953.0,1
833,833,0.6801160683099964,0.7,1.0,1.0,292.0,628.0,0.0,0,2080.0,0
834,834,0.23703532411826866,0.2,0.0,0.0,328.0,616.0,0.0,1,2056.0,1
835,835,0.7078522706947245,0.7,1.0,1.0,263.0,620.0,0.0,0,2117.0,0
836,836,-0.76245947430014,-0.8,0.0,1.0,328.0,718.0,0.0,1,1954.0,0
837,837,-0.8814358848322987,-0.9,1.0,0.0,336.0,789.0,0.0,0,1875.0,1
838,838,0.4945508671517679,0.5,0.0,0.0,280.0,699.0,0.0,1,2021.0,1
839,839,0.37227173630503685,0.4,0.0,0.0,349.0,619.0,0.0,1,2032.0,1
840,840,0.5808875479027257,0.6,0.0,0.0,448.0,949.0,0.0,1,1603.0,1
841,841,0.4184029264422685,0.4,1.0,1.0,499.0,598.0,0.0,0,1903.0,0
842,842,-0.17233738611521388,-0.2,0.0,1.0,467.0,978.0,0.0,1,1555.0,0
843,843,-0.6985495674990116,-0.7,0.0,1.0,265.0,652.0,0.0,1,2083.0,0
844,844,-0.26682319783463504,-0.3,0.0,1.0,318.0,916.0,0.0,1,-1224.0,0
845,845,0.6570081134896467,0.7,0.0,0.0,433.0,789.0,0.0,1,1778.0,1
846,846,0.026233594750077027,0.0,0.0,0.0,476.0,805.0,0.0,1,1719.0,1
847,847,-0.6544152364516906,-0.7,0.0,1.0,429.0,741.0,0.0,1,1830.0,0
848,848,-0.08417208144300237,-0.1,0.0,1.0,410.0,742.0,0.0,1,1848.0,0
849,849,0.41803863646548056,0.4,0.0,0.0,464.0,642.0,0.0,1,1894.0,1
850,850,-0.25999041799185973,-0.3,1.0,0.0,340.0,545.0,0.0,0,2115.0,1
851,851,-0.7931254355860893,-0.8,0.0,1.0,365.0,963.0,0.0,1,1672.0,0
852,852,0.23527633498784983,0.2,0.0,0.0,380.0,936.0,0.0,1,1684.0,1
853,853,-0.6738791580153093,-0.7,0.0,1.0,342.0,843.0,0.0,1,-1145.0,0
854,854,0.507783254422478,0.5,1.0,1.0,386.0,828.0,0.0,0,1786.0,0
855,855,-0.13800785852585729,-0.1,0.0,1.0,443.0,618.0,0.0,1,1939.0,0
856,856,-0.32876817228239585,-0.3,1.0,0.0,276.0,802.0,0.0,0,1922.0,1
857,857,-0.3913189564985866,-0.4,0.0,1.0,390.0,984.0,0.0,1,1626.0,0
858,858,0.6389833912810096,0.6,1.0,1.0,380.0,683.0,0.0,0,1937.0,0
859,859,0.8432502011124196,0.8,1.0,1.0,483.0,945.0,0.0,0,1572.0,0
860,860,0.030453677620585262,0.0,0.0,0.0,305.0,962.0,0.0,1,-1237.0,1
861,861,0.6244936609451918,0.6,1.0,1.0,430.0,822.0,0.0,0,1748.0,0
862,862,-0.01891560991370078,-0.0,1.0,0.0,495.0,578.0,0.0,0,1927.0,1
863,863,-0.27048571233371344,-0.3,1.0,0.0,305.0,651.0,0.0,0,2044.0,1
864,864,0.30495676907972225,0.3,1.0,1.0,254.0,579.0,0.0,0,2167.0,0
865,865,0.8710982999881342,0.9,1.0,1.0,476.0,914.0,0.0,0,1610.0,0
866,866,-0.31127016451503564,-0.3,1.0,0.0,299.0,961.0,0.0,0,1740.0,1
867,867,-0.8448841329047495,-0.8,0.0,1.0,416.0,719.0,0.0,1,1865.0,0
868,868,-0.17423275071405986,-0.2,0.0,1.0,283.0,737.0,1.0,0,-1000.0,1
869,869,0.17327942630268234,0.2,1.0,1.0,325.0,823.0,0.0,0,-1108.0,0
870,870,-0.8842340701984936,-0.9,1.0,0.0,429.0,625.0,0.0,0,-1024.0,1
871,871,-0.4593962916148539,-0.5,0.0,1.0,278.0,536.0,0.0,1,2186.0,0
872,872,0.6430285729627115,0.6,1.0,1.0,453.0,979.0,0.0,0,1568.0,0
873,873,-0.28574527119174575,-0.3,0.0,1.0,445.0,990.0,0.0,1,1565.0,0
874,874,-0.8578617561542128,-0.9,1.0,0.0,300.0,902.0,0.0,0,1798.0,1
875,875,0.7483726724851706,0.7,0.0,0.0,415.0,661.0,0.0,1,1924.0,1
876,876,-0.8301754994072428,-0.8,0.0,1.0,479.0,644.0,0.0,1,1877.0,0
877,877,-0.5217688157639068,-0.5,1.0,0.0,397.0,677.0,0.0,0,-1044.0,1
878,878,0.5513450997881569,0.6,1.0,1.0,497.0,810.0,0.0,0,-1237.0,0
879,879,-0.08007220643137503,-0.1,1.0,0.0,491.0,665.0,0.0,0,1844.0,1
880,880,-0.7319593268322729,-0.7,1.0,0.0,373.0,576.0,0.0,0,2051.0,1
881,881,0.18560738020215328,0.2,0.0,0.0,371.0,806.0,0.0,1,1823.0,1
882,882,0.652060232195984,0.7,1.0,1.0,489.0,885.0,0.0,0,1626.0,0
883,883,0.5661097729191987,0.6,1.0,1.0,308.0,696.0,0.0,0,1996.0,0
884,884,-0.6969338776792071,-0.7,1.0,0.0,306.0,616.0,0.0,0,2078.0,1
885,885,-0.7721346287374847,-0.8,0.0,1.0,471.0,708.0,0.0,1,1821.0,0
886,886,0.5833358497120901,0.6,0.0,0.0,329.0,895.0,0.0,1,1776.0,1
887,887,0.3024844997609105,0.3,1.0,1.0,419.0,724.0,0.0,0,1857.0,0
888,888,-0.40082855171101267,-0.4,0.0,1.0,462.0,952.0,0.0,1,1586.0,0
889,889,0.8462036582616587,0.8,1.0,1.0,395.0,910.0,0.0,0,1695.0,0
890,890,-0.6965840463093085,-0.7,0.0,1.0,295.0,505.0,0.0,1,2200.0,0
891,891,0.04696677441389219,0.0,0.0,0.0,365.0,629.0,0.0,1,2006.0,1
892,892,0.10845123407697621,0.1,1.0,1.0,464.0,957.0,0.0,0,1579.0,0
893,893,-0.41678915492644714,-0.4,1.0,0.0,388.0,523.0,0.0,0,2089.0,1
894,894,-0.4757140820729179,-0.5,0.0,1.0,417.0,966.0,0.0,1,1617.0,0
895,895,0.5604404994109601,0.6,0.0,0.0,347.0,576.0,0.0,1,2077.0,1
896,896,-0.4726933696086531,-0.5,0.0,1.0,421.0,946.0,1.0,0,-1287.0,1
897,897,-0.08491234593868824,-0.1,0.0,1.0,312.0,587.0,0.0,1,2101.0,0
898,898,0.19994604894435242,0.2,0.0,0.0,412.0,580.0,0.0,1,-972.0,1
899,899,-0.33364928070363054,-0.3,1.0,0.0,460.0,853.0,0.0,0,1687.0,1
900,900,-0.38948256194827957,-0.4,1.0,0.0,364.0,650.0,0.0,0,1986.0,1
901,901,0.15696582783029311,0.2,0.0,0.0,403.0,772.0,0.0,1,1825.0,1
902,902,-0.3620888222038007,-0.4,0.0,1.0,476.0,903.0,0.0,1,1621.0,0
903,903,-0.42233100466991125,-0.4,1.0,0.0,349.0,541.0,0.0,0,2110.0,1
904,904,-0.8706323025374582,-0.9,0.0,1.0,422.0,711.0,0.0,1,1867.0,0
905,905,-0.07680372739149643,-0.1,1.0,0.0,348.0,635.0,1.0,1,-973.0,0
906,906,0.7141385465885789,0.7,0.0,0.0,310.0,516.0,0.0,1,2174.0,1
907,907,0.02251969025028222,0.0,1.0,1.0,314.0,654.0,0.0,0,2032.0,0
908,908,0.7215785289833755,0.7,0.0,0.0,395.0,578.0,0.0,1,2027.0,1
909,909,-0.0019431934465728995,-0.0,0.0,1.0,261.0,766.0,0.0,1,1973.0,0
910,910,-0.5320672528094994,-0.5,1.0,0.0,321.0,525.0,0.0,0,2154.0,1
911,911,-0.802539803313388,-0.8,1.0,0.0,314.0,625.0,0.0,0,2061.0,1
912,912,-0.7602181600879399,-0.8,0.0,1.0,496.0,643.0,0.0,1,1861.0,0
913,913,0.7805544786565802,0.8,0.0,0.0,307.0,722.0,0.0,1,1971.0,1
914,914,0.4835846826958171,0.5,0.0,0.0,374.0,822.0,0.0,1,-1096.0,1
915,915,0.4802390126101391,0.5,1.0,1.0,467.0,908.0,0.0,0,1625.0,0
916,916,-0.27963373382621537,-0.3,1.0,0.0,478.0,741.0,1.0,1,-1209.0,0
917,917,0.2522530473635275,0.3,1.0,1.0,373.0,907.0,0.0,0,1720.0,0
918,918,-0.6985219226544305,-0.7,1.0,0.0,293.0,783.0,0.0,0,1924.0,1
919,919,-0.19961663032390342,-0.2,1.0,0.0,464.0,879.0,0.0,0,1657.0,1
920,920,-0.008156872798227965,-0.0,0.0,1.0,369.0,825.0,0.0,1,1806.0,0
921,921,0.7022995533590685,0.7,0.0,0.0,447.0,743.0,1.0,0,-1150.0,0
922,922,-0.4535459825303166,-0.5,1.0,0.0,287.0,765.0,0.0,0,1948.0,1
923,923,-0.8277159480167527,-0.8,0.0,1.0,332.0,501.0,1.0,0,-823.0,1
924,924,-0.5890794883843616,-0.6,0.0,1.0,395.0,780.0,0.0,1,1825.0,0
925,925,-0.08587240695358023,-0.1,0.0,1.0,402.0,670.0,0.0,1,1928.0,0
926,926,-0.792654850625848,-0.8,0.0,1.0,431.0,676.0,0.0,1,1893.0,0
927,927,0.46472761699073406,0.5,0.0,0.0,437.0,865.0,0.0,1,1698.0,1
928,928,-0.6350964514391355,-0.6,0.0,1.0,460.0,562.0,0.0,1,1978.0,0
929,929,-0.07109459557520448,-0.1,1.0,0.0,416.0,822.0,0.0,0,1762.0,1
930,930,0.02518685509291696,0.0,0.0,0.0,331.0,723.0,1.0,0,-1004.0,0
931,931,0.46880586654565215,0.5,0.0,0.0,340.0,777.0,0.0,1,1883.0,1
932,932,0.2322201804995342,0.2,1.0,1.0,275.0,503.0,0.0,0,2222.0,0
933,933,0.07755361175963282,0.1,0.0,0.0,456.0,572.0,0.0,1,1972.0,1
934,934,-0.8404686562547357,-0.8,0.0,1.0,481.0,905.0,0.0,1,1614.0,0
935,935,-0.05094056514165146,-0.1,1.0,0.0,465.0,581.0,0.0,0,1954.0,1
936,936,-0.893327050978294,-0.9,1.0,0.0,319.0,824.0,0.0,0,1857.0,1
937,937,-0.49934750367851405,-0.5,1.0,0.0,263.0,570.0,0.0,0,2167.0,1
938,938,-0.37531245133877744,-0.4,0.0,1.0,404.0,545.0,0.0,1,2051.0,0
939,939,-0.3927036036859294,-0.4,1.0,0.0,361.0,537.0,1.0,1,-878.0,0
940,940,-0.1923269115551186,-0.2,0.0,1.0,493.0,721.0,0.0,1,1786.0,0
941,941,-0.38734219691069793,-0.4,1.0,0.0,485.0,695.0,0.0,0,1820.0,1
942,942,0.8154544290693516,0.8,0.0,0.0,385.0,898.0,0.0,1,1717.0,1
943,943,0.720313291383576,0.7,1.0,1.0,452.0,714.0,0.0,0,-1056.0,0
944,944,-0.6610364536413409,-0.7,0.0,1.0,482.0,642.0,0.0,1,1876.0,0
945,945,-0.5910858514367743,-0.6,0.0,1.0,451.0,963.0,0.0,1,1586.0,0
946,946,0.6783659691031024,0.7,0.0,0.0,498.0,824.0,0.0,1,1678.0,1
947,947,0.015415249547690357,0.0,0.0,0.0,367.0,883.0,0.0,1,1750.0,1
948,948,0.12825321878783458,0.1,1.0,1.0,495.0,558.0,0.0,0,1947.0,0
949,949,-0.005167458832920135,-0.0,0.0,1.0,258.0,645.0,0.0,1,2097.0,0
950,950,0.8473506873185567,0.8,1.0,1.0,265.0,671.0,0.0,0,2064.0,0
951,951,0.20326341120528035,0.2,1.0,1.0,283.0,951.0,0.0,0,1766.0,0
952,952,-0.7133677755210316,-0.7,1.0,0.0,255.0,968.0,0.0,0,-1143.0,1
953,953,0.5241457254654117,0.5,0.0,0.0,274.0,509.0,0.0,1,2217.0,1
954,954,-0.670925919926989,-0.7,1.0,0.0,432.0,968.0,0.0,0,1600.0,1
955,955,0.5010036788651916,0.5,1.0,1.0,345.0,818.0,0.0,0,-1153.0,0
956,956,0.22185213566272755,0.2,0.0,0.0,356.0,959.0,0.0,1,1685.0,1
957,957,-0.31322185885595,-0.3,1.0,0.0,408.0,706.0,0.0,0,1886.0,1
958,958,-0.8317272449363007,-0.8,1.0,0.0,493.0,800.0,0.0,0,1707.0,1
959,959,-0.25333509882576877,-0.3,0.0,1.0,391.0,904.0,0.0,1,1705.0,0
960,960,0.5702122385227394,0.6,0.0,0.0,334.0,780.0,0.0,1,1886.0,1
961,961,-0.748592204132075,-0.7,0.0,1.0,420.0,898.0,0.0,1,1682.0,0
962,962,0.7305190043956821,0.7,0.0,0.0,478.0,822.0,0.0,1,1700.0,1
963,963,0.7209570085723122,0.7,0.0,0.0,362.0,584.0,0.0,1,2054.0,1
964,964,0.5610113210953761,0.6,0.0,0.0,355.0,901.0,1.0,0,-1146.0,0
965,965,-0.5662542924076044,-0.6,0.0,1.0,278.0,538.0,0.0,1,2184.0,0
966,966,0.09503576706976924,0.1,0.0,0.0,491.0,650.0,0.0,1,1859.0,1
967,967,-0.46200656467656326,-0.5,1.0,0.0,264.0,530.0,0.0,0,2206.0,1
968,968,-0.40068386057184324,-0.4,1.0,0.0,334.0,720.0,0.0,0,1946.0,1
969,969,-0.6880121939809646,-0.7,0.0,1.0,385.0,663.0,0.0,1,1952.0,0
970,970,-0.11011148946290472,-0.1,0.0,1.0,472.0,795.0,0.0,1,1733.0,0
971,971,-0.7730277848962354,-0.8,0.0,1.0,316.0,626.0,1.0,0,-912.0,1
972,972,0.03329046138653524,0.0,1.0,1.0,419.0,699.0,0.0,0,1882.0,0
973,973,-0.05210926457110643,-0.1,1.0,0.0,422.0,597.0,0.0,0,1981.0,1
974,974,-0.47654204428642294,-0.5,1.0,0.0,327.0,834.0,1.0,1,-1131.0,0
975,975,0.7960149994755076,0.8,0.0,0.0,464.0,976.0,0.0,1,1560.0,1
976,976,0.31818779905415295,0.3,1.0,1.0,294.0,857.0,0.0,0,1849.0,0
977,977,0.6266988139099826,0.6,0.0,0.0,358.0,550.0,0.0,1,-788.0,1
978,978,-0.5904403720790976,-0.6,0.0,1.0,422.0,682.0,0.0,1,1896.0,0
979,979,-0.4446935176632605,-0.4,1.0,0.0,445.0,550.0,0.0,0,2005.0,1
980,980,-0.388256841435345,-0.4,1.0,0.0,370.0,577.0,0.0,0,2053.0,1
981,981,-0.6097534370594933,-0.6,0.0,1.0,366.0,955.0,0.0,1,1679.0,0
982,982,-0.1849185600077592,-0.2,1.0,0.0,335.0,630.0,0.0,0,2035.0,1
983,983,0.7441705877491459,0.7,0.0,0.0,325.0,847.0,0.0,1,1828.0,1
984,984,-0.10372722580670424,-0.1,1.0,0.0,494.0,964.0,0.0,0,1542.0,1
985,985,0.3697276337456369,0.4,0.0,0.0,304.0,799.0,0.0,1,1897.0,1
986,986,0.02434767646581304,0.0,0.0,0.0,289.0,645.0,0.0,1,-764.0,1
987,987,0.47447805996677317,0.5,0.0,0.0,378.0,838.0,1.0,0,-1166.0,0
988,988,-0.3281241391291053,-0.3,1.0,0.0,435.0,974.0,0.0,0,1591.0,1
989,989,-0.8358614012929204,-0.8,1.0,0.0,389.0,715.0,0.0,0,1896.0,1
990,990,-0.413355238802697,-0.4,1.0,0.0,351.0,896.0,0.0,0,1753.0,1
991,991,-0.595906094284959,-0.6,1.0,0.0,345.0,874.0,0.0,0,1781.0,1
992,992,0.26884552822388275,0.3,0.0,0.0,386.0,597.0,0.0,1,2017.0,1
993,993,0.223871625080302,0.2,0.0,0.0,365.0,860.0,0.0,1,1775.0,1
994,994,-0.7604566767684809,-0.8,0.0,1.0,356.0,940.0,0.0,1,1704.0,0
995,995,-0.677877607289127,-0.7,0.0,1.0,281.0,541.0,0.0,1,2178.0,0
996,996,-0.06876426431964666,-0.1,1.0,0.0,409.0,628.0,0.0,0,1963.0,1
997,997,-0.7812806204457894,-0.8,1.0,0.0,250.0,530.0,0.0,0,2220.0,1
998,998,0.8229379686591501,0.8,0.0,0.0,309.0,882.0,1.0,0,-1041.0,0
999,999,0.3828458139514189,0.4,1.0,1.0,338.0,683.0,0.0,0,1979.0,0
1000,1000,0.7577050554636776,0.8,0.0,0.0,288.0,578.0,0.0,1,2134.0,1
1001,1001,0.37713721996870786,0.4,0.0,0.0,273.0,744.0,0.0,1,1983.0,1
1002,1002,0.31389842412521574,0.3,1.0,1.0,416.0,968.0,0.0,0,1616.0,0
1003,1003,0.8013888695808199,0.8,1.0,1.0,487.0,949.0,0.0,0,-1356.0,0
1004,1004,0.6884685839805157,0.7,0.0,0.0,298.0,599.0,0.0,1,2103.0,1
1005,1005,-0.7886428480483855,-0.8,1.0,0.0,276.0,557.0,0.0,0,2167.0,1
1006,1006,-0.898608902003978,-0.9,0.0,1.0,263.0,545.0,0.0,1,2192.0,0
1007,1007,0.5381862710375648,0.5,0.0,0.0,353.0,538.0,0.0,1,2109.0,1
1008,1008,-0.600514434496576,-0.6,1.0,0.0,273.0,840.0,0.0,0,1887.0,1
1009,1009,-0.42052883597803437,-0.4,1.0,0.0,333.0,854.0,0.0,0,-1117.0,1
1010,1010,0.83880955278144,0.8,1.0,1.0,273.0,983.0,0.0,0,1744.0,0
1011,1011,0.7365652649731761,0.7,1.0,1.0,413.0,725.0,0.0,0,1862.0,0
1012,1012,-0.28562192893568183,-0.3,0.0,1.0,299.0,783.0,0.0,1,1918.0,0
1013,1013,0.05654711649502675,0.1,1.0,1.0,372.0,508.0,0.0,0,2120.0,0
1014,1014,0.8241142129118001,0.8,1.0,1.0,360.0,901.0,0.0,0,1739.0,0
1015,1015,-0.24549315228400592,-0.2,1.0,0.0,329.0,949.0,0.0,0,1722.0,1
1016,1016,-0.14326468657162605,-0.1,0.0,1.0,272.0,507.0,0.0,1,2221.0,0
1017,1017,-0.7098300075790858,-0.7,1.0,0.0,349.0,656.0,0.0,0,-895.0,1
1018,1018,-0.00860860978147715,-0.0,0.0,1.0,300.0,544.0,0.0,1,2156.0,0
1019,1019,0.8291647471934444,0.8,0.0,0.0,493.0,532.0,0.0,1,1975.0,1
1020,1020,0.7482031392518113,0.7,0.0,0.0,264.0,890.0,0.0,1,1846.0,1
1021,1021,-0.6780460810348254,-0.7,0.0,1.0,280.0,861.0,0.0,1,1859.0,0
1022,1022,0.3920079682241383,0.4,1.0,1.0,460.0,665.0,0.0,0,-1105.0,0
1023,1023,0.2406880390932965,0.2,1.0,1.0,394.0,654.0,0.0,0,1952.0,0
1024,1024,0.17483589974721492,0.2,0.0,0.0,300.0,966.0,1.0,0,-1256.0,0
1025,1025,-0.5877080865296389,-0.6,1.0,0.0,488.0,649.0,0.0,0,1863.0,1
1026,1026,-0.5942363284820051,-0.6,0.0,1.0,318.0,593.0,0.0,1,2089.0,0
1027,1027,-0.07236177991385129,-0.1,0.0,1.0,262.0,700.0,0.0,1,2038.0,0
1028,1028,-0.8639346309763994,-0.9,1.0,0.0,281.0,528.0,1.0,1,-789.0,0
1029,1029,-0.49304928020915034,-0.5,1.0,0.0,314.0,528.0,0.0,0,2158.0,1
1030,1030,0.6767636028973344,0.7,1.0,1.0,436.0,610.0,0.0,0,-906.0,0
1031,1031,-0.5476980192213001,-0.5,0.0,1.0,260.0,594.0,0.0,1,-744.0,0
1032,1032,0.5150807352020031,0.5,1.0,1.0,441.0,796.0,0.0,0,1763.0,0
1033,1033,0.8681153156478528,0.9,1.0,1.0,320.0,820.0,0.0,0,1860.0,0
1034,1034,0.2569422706018917,0.3,0.0,0.0,479.0,697.0,0.0,1,-1076.0,1
1035,1035,-0.3355936820771227,-0.3,1.0,0.0,408.0,564.0,0.0,0,2028.0,1
1036,1036,-0.009931407445069151,-0.0,1.0,0.0,358.0,571.0,0.0,0,2071.0,1
1037,1037,-0.22777168061257969,-0.2,1.0,0.0,264.0,886.0,0.0,0,-1060.0,1
1038,1038,0.3685158850421798,0.4,0.0,0.0,413.0,683.0,0.0,1,1904.0,1
1039,1039,0.832846818500545,0.8,0.0,0.0,468.0,676.0,1.0,0,-1114.0,0
1040,1040,0.3449657781134806,0.3,1.0,1.0,325.0,969.0,0.0,0,1706.0,0
1041,1041,0.0628105442695922,0.1,1.0,1.0,291.0,711.0,0.0,0,1998.0,0
1042,1042,0.4793857744934028,0.5,0.0,0.0,272.0,939.0,0.0,1,1789.0,1
1043,1043,-0.17428302140641871,-0.2,1.0,0.0,294.0,721.0,0.0,0,1985.0,1
1044,1044,-0.5806595197190393,-0.6,1.0,0.0,328.0,889.0,0.0,0,1783.0,1
1045,1045,0.8892853293310764,0.9,0.0,0.0,292.0,756.0,0.0,1,1952.0,1
1046,1046,-0.8705368041381779,-0.9,1.0,0.0,250.0,792.0,0.0,0,1958.0,1
1047,1047,-0.2838667675849681,-0.3,0.0,1.0,390.0,509.0,0.0,1,2101.0,0
1048,1048,0.5338100422335702,0.5,1.0,1.0,296.0,618.0,0.0,0,2086.0,0
1049,1049,-0.07003850170674697,-0.1,0.0,1.0,360.0,568.0,0.0,1,2072.0,0
1050,1050,-0.5279842707615203,-0.5,1.0,0.0,256.0,753.0,0.0,0,1991.0,1
1051,1051,0.7369039864575982,0.7,0.0,0.0,345.0,540.0,0.0,1,-825.0,1
1052,1052,-0.43123443674171774,-0.4,0.0,1.0,337.0,700.0,0.0,1,1963.0,0
1053,1053,0.03877939827265431,0.0,1.0,1.0,310.0,579.0,0.0,0,2111.0,0
1054,1054,-0.34161118044934846,-0.3,0.0,1.0,342.0,654.0,0.0,1,2004.0,0
1055,1055,-0.25417133254341884,-0.3,1.0,0.0,415.0,544.0,0.0,0,2041.0,1
1056,1056,0.3832032259199817,0.4,1.0,1.0,322.0,950.0,0.0,0,1728.0,0
1057,1057,-0.7782881923180853,-0.8,0.0,1.0,486.0,688.0,0.0,1,1826.0,0
1058,1058,0.24534431452320737,0.2,1.0,1.0,479.0,895.0,0.0,0,1626.0,0
1059,1059,0.19190574264266613,0.2,0.0,0.0,318.0,616.0,0.0,1,2066.0,1
1060,1060,0.4471229621733167,0.4,1.0,1.0,292.0,717.0,0.0,0,1991.0,0
1061,1061,-0.48778172461248914,-0.5,0.0,1.0,267.0,585.0,0.0,1,2148.0,0
1062,1062,-0.7904112002188146,-0.8,1.0,0.0,334.0,924.0,0.0,0,1742.0,1
1063,1063,-0.09093136037649086,-0.1,1.0,0.0,436.0,571.0,0.0,0,1993.0,1
1064,1064,-0.6286400820264686,-0.6,0.0,1.0,294.0,965.0,0.0,1,1741.0,0
1065,1065,0.5746887525399796,0.6,1.0,1.0,316.0,577.0,0.0,0,2107.0,0
1066,1066,-0.6980410399821997,-0.7,0.0,1.0,467.0,538.0,0.0,1,1995.0,0
1067,1067,0.4190501942357411,0.4,1.0,1.0,451.0,790.0,0.0,0,1759.0,0
1068,1068,0.08925866617513989,0.1,0.0,0.0,304.0,843.0,0.0,1,1853.0,1
1069,1069,-0.7272894328722044,-0.7,1.0,0.0,343.0,518.0,0.0,0,2139.0,1
1070,1070,0.6133456015796978,0.6,0.0,0.0,487.0,951.0,0.0,1,1562.0,1
1071,1071,0.3998256662778782,0.4,0.0,0.0,478.0,928.0,0.0,1,1594.0,1
1072,1072,0.10421440274817473,0.1,1.0,1.0,456.0,557.0,0.0,0,1987.0,0
1073,1073,0.22396319012606603,0.2,0.0,0.0,431.0,681.0,0.0,1,1888.0,1
1074,1074,-0.868427384056067,-0.9,0.0,1.0,434.0,616.0,0.0,1,1950.0,0
1075,1075,0.6063929739648052,0.6,0.0,0.0,368.0,501.0,0.0,1,-769.0,1
1076,1076,0.7175786518622095,0.7,1.0,1.0,375.0,911.0,1.0,1,-1216.0,1
1077,1077,0.8365924153607026,0.8,1.0,1.0,467.0,673.0,0.0,0,1860.0,0
1078,1078,-0.3584299248471371,-0.4,0.0,1.0,497.0,868.0,0.0,1,1635.0,0
1079,1079,0.11640528765415692,0.1,0.0,0.0,449.0,686.0,0.0,1,1865.0,1
1080,1080,0.1212499302276292,0.1,1.0,1.0,387.0,812.0,0.0,0,1801.0,0
1081,1081,0.2788481275063942,0.3,1.0,1.0,251.0,986.0,0.0,0,1763.0,0
1082,1082,0.4497122173749718,0.4,0.0,0.0,320.0,681.0,0.0,1,1999.0,1
1083,1083,0.6530864263959425,0.7,0.0,0.0,475.0,575.0,0.0,1,1950.0,1
1084,1084,0.14984257150560898,0.1,1.0,1.0,347.0,792.0,0.0,0,1861.0,0
1085,1085,-0.812109553162168,-0.8,1.0,0.0,313.0,861.0,0.0,0,1826.0,1
1086,1086,0.0272134332880708,0.0,1.0,1.0,333.0,572.0,1.0,1,-885.0,1
1087,1087,0.7972942160603477,0.8,0.0,0.0,396.0,919.0,0.0,1,1685.0,1
1088,1088,0.5995009007964779,0.6,0.0,0.0,405.0,600.0,0.0,1,-965.0,1
1089,1089,0.7501703462045758,0.8,1.0,1.0,418.0,540.0,0.0,0,2042.0,0
1090,1090,-0.4925965512663924,-0.5,1.0,0.0,320.0,862.0,0.0,0,1818.0,1
1091,1091,0.7061392278483966,0.7,1.0,1.0,393.0,909.0,0.0,0,1698.0,0
1092,1092,0.31123248320500274,0.3,1.0,1.0,323.0,570.0,0.0,0,2107.0,0
1093,1093,-0.04218503246969252,-0.0,0.0,1.0,387.0,545.0,0.0,1,2068.0,0
1094,1094,0.36086213696211467,0.4,0.0,0.0,252.0,878.0,0.0,1,1870.0,1
1095,1095,0.10290649305840771,0.1,1.0,1.0,404.0,800.0,0.0,0,1796.0,0
1096,1096,0.8687218186462452,0.9,1.0,1.0,350.0,779.0,0.0,0,1871.0,0
1097,1097,-0.6108165733551083,-0.6,0.0,1.0,460.0,679.0,0.0,1,1861.0,0
1098,1098,-0.5999120837986036,-0.6,0.0,1.0,437.0,869.0,0.0,1,1694.0,0
1099,1099,0.7507733465743439,0.8,0.0,0.0,330.0,939.0,1.0,0,-1179.0,0
1100,1100,-0.5123449939441926,-0.5,1.0,0.0,256.0,950.0,0.0,0,1794.0,1
1101,1101,-0.5154643930017851,-0.5,1.0,0.0,281.0,902.0,0.0,0,1817.0,1
1102,1102,0.019021029694932468,0.0,0.0,0.0,409.0,875.0,0.0,1,1716.0,1
1103,1103,-0.33132596431695516,-0.3,0.0,1.0,444.0,581.0,0.0,1,1975.0,0
1104,1104,0.7391890827706241,0.7,0.0,0.0,376.0,623.0,0.0,1,2001.0,1
1105,1105,0.27392769052902743,0.3,0.0,0.0,271.0,864.0,0.0,1,1865.0,1
1106,1106,0.5160280125950992,0.5,0.0,0.0,359.0,704.0,0.0,1,1937.0,1
1107,1107,-0.6870213441362092,-0.7,0.0,1.0,418.0,973.0,0.0,1,1609.0,0
1108,1108,0.6472567015565295,0.6,1.0,1.0,436.0,844.0,0.0,0,1720.0,0
1109,1109,0.10139754652557775,0.1,0.0,0.0,292.0,955.0,0.0,1,1753.0,1
1110,1110,-0.7446691516529822,-0.7,0.0,1.0,293.0,959.0,0.0,1,1748.0,0
1111,1111,-0.03463081185007677,-0.0,1.0,0.0,400.0,674.0,0.0,0,1926.0,1
1112,1112,0.27294840170771717,0.3,1.0,1.0,393.0,612.0,0.0,0,1995.0,0
1113,1113,-0.35218082801213435,-0.4,1.0,0.0,250.0,596.0,0.0,0,2154.0,1
1114,1114,-0.2190748856224074,-0.2,0.0,1.0,404.0,605.0,0.0,1,1991.0,0
1115,1115,-0.051159337171649444,-0.1,0.0,1.0,335.0,606.0,0.0,1,2059.0,0
1116,1116,-0.8016142878044389,-0.8,0.0,1.0,468.0,783.0,0.0,1,1749.0,0
1117,1117,0.7735754948035581,0.8,1.0,1.0,486.0,892.0,0.0,0,1622.0,0
1118,1118,-0.6828265029833459,-0.7,1.0,0.0,250.0,999.0,1.0,1,-1229.0,0
1119,1119,0.5493885277695233,0.5,1.0,1.0,298.0,881.0,0.0,0,-1049.0,0
1120,1120,-0.021893467954646972,-0.0,1.0,0.0,277.0,917.0,0.0,0,-1114.0,1
1121,1121,0.6489459196165092,0.6,0.0,0.0,489.0,651.0,0.0,1,1860.0,1
1122,1122,-0.44129394133664257,-0.4,0.0,1.0,311.0,713.0,0.0,1,1976.0,0
1123,1123,0.24517761656413695,0.2,1.0,1.0,268.0,799.0,1.0,1,-1007.0,1
1124,1124,-0.26481029981751725,-0.3,1.0,0.0,381.0,563.0,0.0,0,2056.0,1
1125,1125,-0.8767083111526329,-0.9,0.0,1.0,456.0,851.0,0.0,1,1693.0,0
1126,1126,-0.2621678262657908,-0.3,0.0,1.0,478.0,896.0,0.0,1,1626.0,0
1127,1127,-0.4935074989104406,-0.5,1.0,0.0,447.0,812.0,0.0,0,1741.0,1
1128,1128,0.4271209176029943,0.4,1.0,1.0,309.0,751.0,0.0,0,-870.0,0
1129,1129,-0.4728826120943195,-0.5,0.0,1.0,351.0,765.0,0.0,1,1884.0,0
1130,1130,0.5176813137965895,0.5,1.0,1.0,363.0,979.0,0.0,0,1658.0,0
1131,1131,-0.7627797049156889,-0.8,1.0,0.0,457.0,641.0,0.0,0,1902.0,1
1132,1132,-0.2518391575379335,-0.3,1.0,0.0,273.0,809.0,1.0,1,-912.0,0
1133,1133,-0.5916363048191458,-0.6,0.0,1.0,263.0,612.0,0.0,1,2125.0,0
1134,1134,-0.34047425803940856,-0.3,0.0,1.0,290.0,552.0,0.0,1,2158.0,0
1135,1135,0.6707964677626056,0.7,1.0,1.0,377.0,661.0,0.0,0,1962.0,0
1136,1136,0.19403422358277955,0.2,0.0,0.0,369.0,925.0,0.0,1,1706.0,1
1137,1137,0.027191717736691712,0.0,0.0,0.0,488.0,641.0,0.0,1,1871.0,1
1138,1138,0.37307234665424505,0.4,0.0,0.0,423.0,941.0,0.0,1,1636.0,1
1139,1139,-0.4505648936929909,-0.5,0.0,1.0,297.0,994.0,0.0,1,1709.0,0
1140,1140,0.3053827933810812,0.3,0.0,0.0,372.0,605.0,0.0,1,2023.0,1
1141,1141,-0.8931839332129958,-0.9,0.0,1.0,384.0,730.0,0.0,1,1886.0,0
1142,1142,0.7890590053034002,0.8,0.0,0.0,411.0,998.0,0.0,1,1591.0,1
1143,1143,0.3973282867446021,0.4,0.0,0.0,272.0,535.0,0.0,1,2193.0,1
1144,1144,-0.6186227258124384,-0.6,1.0,0.0,360.0,867.0,0.0,0,1773.0,1
1145,1145,0.5123581512949938,0.5,0.0,0.0,470.0,971.0,0.0,1,1559.0,1
1146,1146,0.19139669421534056,0.2,1.0,1.0,441.0,920.0,0.0,0,1639.0,0
1147,1147,-0.7315605038383087,-0.7,0.0,1.0,330.0,610.0,0.0,1,2060.0,0
1148,1148,0.19338149210832467,0.2,1.0,1.0,340.0,688.0,0.0,0,1972.0,0
1149,1149,-0.13634282394612907,-0.1,1.0,0.0,363.0,654.0,0.0,0,1983.0,1
1150,1150,0.5792619648466885,0.6,1.0,1.0,350.0,653.0,0.0,0,1997.0,0
1151,1151,0.13472608375775696,0.1,1.0,1.0,395.0,974.0,0.0,0,1631.0,0
1152,1152,-0.6076908714912284,-0.6,1.0,0.0,395.0,842.0,0.0,0,1763.0,1
1153,1153,-0.07602389024870215,-0.1,0.0,1.0,463.0,832.0,0.0,1,1705.0,0
1154,1154,-0.2467301922330356,-0.2,1.0,0.0,253.0,716.0,0.0,0,2031.0,1
1155,1155,-0.12194584140502718,-0.1,1.0,0.0,441.0,579.0,0.0,0,1980.0,1
1156,1156,-0.892275177355782,-0.9,0.0,1.0,371.0,834.0,0.0,1,-1135.0,0
1157,1157,0.23605667091381533,0.2,0.0,0.0,304.0,660.0,0.0,1,2036.0,1
1158,1158,-0.33770477372534535,-0.3,0.0,1.0,297.0,764.0,0.0,1,1939.0,0
1159,1159,-0.4429397739717536,-0.4,1.0,0.0,464.0,625.0,0.0,0,1911.0,1
1160,1160,0.19966750722646742,0.2,0.0,0.0,266.0,893.0,0.0,1,1841.0,1
1161,1161,-0.5808572052935923,-0.6,0.0,1.0,474.0,677.0,0.0,1,1849.0,0
1162,1162,-0.6546281892029153,-0.7,0.0,1.0,447.0,586.0,0.0,1,1967.0,0
1163,1163,-0.5053889502538448,-0.5,0.0,1.0,271.0,924.0,0.0,1,1805.0,0
1164,1164,-0.43821299097552957,-0.4,1.0,0.0,430.0,571.0,0.0,0,-951.0,1
1165,1165,-0.136019944239958,-0.1,1.0,0.0,360.0,632.0,0.0,0,2008.0,1
1166,1166,-0.843192027341096,-0.8,1.0,0.0,396.0,872.0,0.0,0,1732.0,1
1167,1167,0.08509886672512246,0.1,1.0,1.0,441.0,683.0,0.0,0,1876.0,0
1168,1168,-0.00839494903879301,-0.0,0.0,1.0,392.0,682.0,0.0,1,1926.0,0
1169,1169,-0.6615383632339699,-0.7,1.0,0.0,395.0,751.0,0.0,0,1854.0,1
1170,1170,-0.12966412547981088,-0.1,1.0,0.0,270.0,592.0,0.0,0,2138.0,1
1171,1171,0.442668501700188,0.4,1.0,1.0,266.0,583.0,0.0,0,2151.0,0
1172,1172,-0.8504043338547939,-0.9,1.0,0.0,407.0,561.0,0.0,0,2032.0,1
1173,1173,-0.04263960321352733,-0.0,1.0,0.0,463.0,531.0,0.0,0,2006.0,1
1174,1174,-0.6137628541816706,-0.6,0.0,1.0,475.0,652.0,0.0,1,1873.0,0
1175,1175,-0.16578839378321286,-0.2,1.0,0.0,492.0,978.0,0.0,0,1530.0,1
1176,1176,0.03179842852494785,0.0,0.0,0.0,291.0,910.0,0.0,1,1799.0,1
1177,1177,-0.12523194605214094,-0.1,0.0,1.0,293.0,545.0,0.0,1,2162.0,0
1178,1178,-0.15201218200923816,-0.2,1.0,0.0,403.0,747.0,0.0,0,1850.0,1
1179,1179,0.18737969134237165,0.2,0.0,0.0,423.0,727.0,0.0,1,1850.0,1
1180,1180,0.831688128978998,0.8,0.0,0.0,266.0,645.0,0.0,1,2089.0,1
1181,1181,0.6574167477019389,0.7,0.0,0.0,404.0,749.0,0.0,1,1847.0,1
1182,1182,-0.3775823643707945,-0.4,0.0,1.0,268.0,881.0,1.0,0,-729.0,1
1183,1183,-0.10320839933566983,-0.1,1.0,0.0,447.0,859.0,0.0,0,1694.0,1
1184,1184,-0.8384603537117309,-0.8,1.0,0.0,281.0,769.0,0.0,0,1950.0,1
1185,1185,0.8181530445646238,0.8,0.0,0.0,353.0,592.0,0.0,1,2055.0,1
1186,1186,0.26934776050874587,0.3,0.0,0.0,498.0,545.0,0.0,1,1957.0,1
1187,1187,-0.10307311074087921,-0.1,1.0,0.0,485.0,651.0,0.0,0,1864.0,1
1188,1188,-0.05128733977469779,-0.1,0.0,1.0,479.0,756.0,0.0,1,1765.0,0
1189,1189,0.3320265105996093,0.3,1.0,1.0,368.0,512.0,0.0,0,2120.0,0
1190,1190,-0.45535904576612746,-0.5,1.0,0.0,453.0,787.0,0.0,0,-1240.0,1
1191,1191,0.6923363095823009,0.7,1.0,1.0,449.0,598.0,0.0,0,1953.0,0
1192,1192,0.18537048423654012,0.2,1.0,1.0,466.0,672.0,0.0,0,1862.0,0
1193,1193,-0.17860747734861326,-0.2,0.0,1.0,496.0,679.0,0.0,1,1825.0,0
1194,1194,-0.34909897219391983,-0.3,1.0,0.0,298.0,959.0,0.0,0,1743.0,1
1195,1195,-0.1631647392023169,-0.2,1.0,0.0,460.0,841.0,0.0,0,1699.0,1
1196,1196,0.29767802753786066,0.3,1.0,1.0,338.0,788.0,0.0,0,-986.0,0
1197,1197,-0.859119039247508,-0.9,0.0,1.0,385.0,856.0,0.0,1,1759.0,0
1198,1198,-0.611635134076877,-0.6,1.0,0.0,389.0,688.0,0.0,0,1923.0,1
1199,1199,0.7917345944497501,0.8,1.0,1.0,466.0,548.0,0.0,0,1986.0,0
1200,1200,-0.1510631278993534,-0.2,0.0,1.0,474.0,712.0,0.0,1,1814.0,0
1201,1201,-0.6717438958178635,-0.7,0.0,1.0,434.0,957.0,0.0,1,1609.0,0
1202,1202,0.23779428054896423,0.2,0.0,0.0,463.0,638.0,0.0,1,-981.0,1
1203,1203,0.08711106248690037,0.1,1.0,1.0,422.0,663.0,0.0,0,1915.0,0
1204,1204,0.2150804324659853,0.2,1.0,1.0,373.0,724.0,0.0,0,1903.0,0
1205,1205,0.876967265103113,0.9,1.0,1.0,371.0,868.0,0.0,0,-1219.0,0
1206,1206,0.08167318201047202,0.1,1.0,1.0,253.0,685.0,0.0,0,2062.0,0
1207,1207,0.3229898238446919,0.3,1.0,1.0,356.0,662.0,0.0,0,1982.0,0
1208,1208,-0.32946568791545217,-0.3,0.0,1.0,442.0,895.0,1.0,0,-1287.0,1
1209,1209,-0.23803569249129253,-0.2,1.0,0.0,329.0,921.0,0.0,0,1750.0,1
1210,1210,-0.2451808827251427,-0.2,1.0,0.0,363.0,961.0,0.0,0,1676.0,1
1211,1211,0.2022568731912705,0.2,0.0,0.0,316.0,604.0,0.0,1,2080.0,1
1212,1212,-0.5548265040324067,-0.6,0.0,1.0,375.0,606.0,1.0,0,-941.0,1
1213,1213,-0.2117159064512807,-0.2,1.0,0.0,467.0,635.0,0.0,0,1898.0,1
1214,1214,0.2447161149006306,0.2,0.0,0.0,400.0,621.0,0.0,1,1979.0,1
1215,1215,-0.48971930828313426,-0.5,0.0,1.0,401.0,750.0,0.0,1,1849.0,0
1216,1216,-0.4262643054393556,-0.4,0.0,1.0,255.0,793.0,0.0,1,1952.0,0
1217,1217,0.6354134651386348,0.6,0.0,0.0,393.0,870.0,0.0,1,1737.0,1
1218,1218,0.7296410150198637,0.7,1.0,1.0,376.0,944.0,0.0,0,1680.0,0
1219,1219,-0.15127296214613262,-0.2,1.0,0.0,302.0,797.0,0.0,0,1901.0,1
1220,1220,0.03176288236227165,0.0,0.0,0.0,486.0,528.0,0.0,1,1986.0,1
1221,1221,0.6947731325656669,0.7,1.0,1.0,411.0,815.0,0.0,0,1774.0,0
1222,1222,0.38067930911163594,0.4,1.0,1.0,267.0,760.0,0.0,0,1973.0,0
1223,1223,-0.5214086814127858,-0.5,0.0,1.0,302.0,692.0,0.0,1,2006.0,0
1224,1224,-0.3718288401890776,-0.4,0.0,1.0,480.0,687.0,0.0,1,1833.0,0
1225,1225,0.03290852370281572,0.0,1.0,1.0,307.0,908.0,0.0,0,1785.0,0
1226,1226,-0.37746332778546343,-0.4,0.0,1.0,276.0,542.0,0.0,1,-758.0,0
1227,1227,0.007169829995851806,0.0,0.0,0.0,455.0,873.0,0.0,1,1672.0,1
1228,1228,-0.8237369621128428,-0.8,1.0,0.0,382.0,806.0,0.0,0,1812.0,1
1229,1229,-0.7365030050800184,-0.7,1.0,0.0,476.0,829.0,0.0,0,1695.0,1
1230,1230,0.12518105535257795,0.1,0.0,0.0,474.0,629.0,0.0,1,1897.0,1
1231,1231,0.7030032206157651,0.7,0.0,0.0,263.0,804.0,0.0,1,1933.0,1
1232,1232,0.7781537008962608,0.8,0.0,0.0,329.0,989.0,0.0,1,1682.0,1
1233,1233,-0.5078256159905488,-0.5,1.0,0.0,412.0,555.0,0.0,0,2033.0,1
1234,1234,-0.6235914304069626,-0.6,1.0,0.0,350.0,916.0,0.0,0,1734.0,1
1235,1235,0.415044505665476,0.4,1.0,1.0,440.0,713.0,0.0,0,1847.0,0
1236,1236,0.8760105832174835,0.9,1.0,1.0,402.0,738.0,0.0,0,1860.0,0
1237,1237,-0.2263481976007532,-0.2,1.0,0.0,441.0,589.0,0.0,0,1970.0,1
1238,1238,0.06904994931343178,0.1,0.0,0.0,394.0,818.0,0.0,1,1788.0,1
1239,1239,0.3937925469741558,0.4,1.0,1.0,380.0,508.0,0.0,0,2112.0,0
1240,1240,0.19316717582099063,0.2,1.0,1.0,430.0,790.0,0.0,0,1780.0,0
1241,1241,0.011208458016953693,0.0,0.0,0.0,295.0,507.0,0.0,1,2198.0,1
1242,1242,0.7733783678103073,0.8,1.0,1.0,430.0,748.0,0.0,0,1822.0,0
1243,1243,-0.1119153304078081,-0.1,1.0,0.0,466.0,576.0,0.0,0,1958.0,1
1244,1244,0.5942957829974914,0.6,1.0,1.0,311.0,679.0,1.0,1,-980.0,1
1245,1245,0.47326663689867965,0.5,1.0,1.0,394.0,507.0,0.0,0,2099.0,0
1246,1246,0.5170414975376466,0.5,1.0,1.0,279.0,993.0,1.0,1,-1252.0,1
1247,1247,0.8792861968166458,0.9,1.0,1.0,363.0,665.0,0.0,0,1972.0,0
1248,1248,0.06357489764407953,0.1,1.0,1.0,435.0,916.0,0.0,0,1649.0,0
1249,1249,-0.30317666853663516,-0.3,1.0,0.0,431.0,697.0,0.0,0,1872.0,1
1250,1250,0.24298971656072632,0.2,1.0,1.0,456.0,643.0,0.0,0,1901.0,0
1251,1251,-0.22875824871888817,-0.2,1.0,0.0,410.0,556.0,0.0,0,2034.0,1
1252,1252,-0.48374714991094253,-0.5,1.0,0.0,497.0,554.0,0.0,0,1949.0,1
1253,1253,0.681367801614999,0.7,0.0,0.0,351.0,884.0,0.0,1,1765.0,1
1254,1254,-0.35128782679702864,-0.4,0.0,1.0,283.0,879.0,0.0,1,1838.0,0
1255,1255,0.39715479267739584,0.4,1.0,1.0,484.0,873.0,0.0,0,1643.0,0
1256,1256,0.6476411973028907,0.6,1.0,1.0,424.0,706.0,0.0,0,1870.0,0
1257,1257,0.7930438993069885,0.8,1.0,1.0,263.0,895.0,0.0,0,1842.0,0
1258,1258,0.6978503897102154,0.7,0.0,0.0,497.0,876.0,0.0,1,1627.0,1
1259,1259,0.575815379722837,0.6,0.0,0.0,354.0,667.0,0.0,1,1979.0,1
1260,1260,0.27492218676861147,0.3,0.0,0.0,252.0,550.0,0.0,1,2198.0,1
1261,1261,-0.3464787465207083,-0.3,1.0,0.0,325.0,979.0,0.0,0,1696.0,1
1262,1262,-0.7710978067714755,-0.8,0.0,1.0,383.0,504.0,0.0,1,2113.0,0
1263,1263,0.23856067177785467,0.2,0.0,0.0,288.0,604.0,0.0,1,2108.0,1
1264,1264,0.8754999123859267,0.9,0.0,0.0,258.0,545.0,0.0,1,2197.0,1
1265,1265,0.10781936349054033,0.1,1.0,1.0,403.0,580.0,0.0,0,2017.0,0
1266,1266,-0.2190091240173737,-0.2,0.0,1.0,391.0,854.0,0.0,1,-1225.0,0
1267,1267,-0.6659727792950312,-0.7,1.0,0.0,340.0,902.0,0.0,0,1758.0,1
1268,1268,-0.20068228982358893,-0.2,1.0,0.0,271.0,811.0,0.0,0,1918.0,1
1269,1269,-0.8850070896852893,-0.9,0.0,1.0,491.0,645.0,0.0,1,1864.0,0
1270,1270,0.26840461178852204,0.3,1.0,1.0,317.0,741.0,0.0,0,1942.0,0
1271,1271,-0.559610189498442,-0.6,0.0,1.0,297.0,777.0,0.0,1,1926.0,0
1272,1272,0.5921765148833719,0.6,1.0,1.0,408.0,594.0,0.0,0,1998.0,0
1273,1273,-0.28461983098125787,-0.3,0.0,1.0,395.0,922.0,0.0,1,1683.0,0
1274,1274,-0.20817260274607108,-0.2,0.0,1.0,375.0,590.0,0.0,1,2035.0,0
1275,1275,0.7452676985397505,0.7,0.0,0.0,315.0,915.0,0.0,1,1770.0,1
1276,1276,0.5526122646790536,0.6,0.0,0.0,364.0,973.0,0.0,1,1663.0,1
1277,1277,-0.28653684830903625,-0.3,0.0,1.0,261.0,891.0,0.0,1,1848.0,0
1278,1278,0.28028001894213517,0.3,0.0,0.0,363.0,742.0,0.0,1,1895.0,1
1279,1279,-0.42438064513999507,-0.4,0.0,1.0,422.0,910.0,0.0,1,1668.0,0
1280,1280,0.08903616069698805,0.1,0.0,0.0,288.0,870.0,0.0,1,-1138.0,1
1281,1281,0.6298480536461356,0.6,1.0,1.0,425.0,726.0,0.0,0,1849.0,0
1282,1282,-0.032485953490896224,-0.0,1.0,0.0,491.0,625.0,0.0,0,1884.0,1
1283,1283,-0.8196809291195735,-0.8,1.0,0.0,468.0,956.0,0.0,0,1576.0,1
1284,1284,0.06559479655897649,0.1,0.0,0.0,486.0,637.0,0.0,1,1877.0,1
1285,1285,-0.05506890164164635,-0.1,0.0,1.0,387.0,726.0,0.0,1,-983.0,0
1286,1286,0.45910609613487197,0.5,1.0,1.0,499.0,759.0,0.0,0,1742.0,0
1287,1287,0.8861409317782277,0.9,1.0,1.0,343.0,992.0,0.0,0,1665.0,0
1288,1288,-0.1560772063129212,-0.2,0.0,1.0,351.0,750.0,1.0,0,-1081.0,1
1289,1289,-0.05362262331313672,-0.1,0.0,1.0,476.0,820.0,0.0,1,1704.0,0
1290,1290,-0.15070710079051686,-0.2,1.0,0.0,497.0,933.0,0.0,0,1570.0,1
1291,1291,0.5964746142933658,0.6,0.0,0.0,326.0,969.0,0.0,1,1705.0,1
1292,1292,-0.25961651128651164,-0.3,0.0,1.0,397.0,580.0,0.0,1,2023.0,0
1293,1293,-0.09460725876664255,-0.1,1.0,0.0,314.0,628.0,0.0,0,2058.0,1
1294,1294,-0.039474111308393955,-0.0,0.0,1.0,373.0,995.0,0.0,1,1632.0,0
1295,1295,0.4287439629957567,0.4,0.0,0.0,290.0,520.0,0.0,1,2190.0,1
1296,1296,-0.254254887967143,-0.3,0.0,1.0,251.0,782.0,0.0,1,1967.0,0
1297,1297,0.05234309319519215,0.1,1.0,1.0,364.0,906.0,0.0,0,-1240.0,0
1298,1298,0.52070063666101,0.5,0.0,0.0,459.0,536.0,0.0,1,2005.0,1
1299,1299,-0.2720031925399965,-0.3,1.0,0.0,347.0,902.0,0.0,0,1751.0,1
1300,1300,0.1548176974594676,0.2,0.0,0.0,269.0,507.0,0.0,1,2224.0,1
1301,1301,-0.15059838317926588,-0.2,0.0,1.0,295.0,512.0,0.0,1,2193.0,0
1302,1302,-0.11348710586442046,-0.1,1.0,0.0,333.0,603.0,0.0,0,2064.0,1
1303,1303,-0.47482305285224136,-0.5,0.0,1.0,458.0,779.0,0.0,1,1763.0,0
1304,1304,-0.5127777551502182,-0.5,1.0,0.0,336.0,857.0,1.0,1,-1173.0,0
1305,1305,0.4251466160648668,0.4,1.0,1.0,352.0,604.0,1.0,1,-906.0,1
1306,1306,0.1166108567032983,0.1,1.0,1.0,262.0,941.0,0.0,0,1797.0,0
1307,1307,-0.4558229673082483,-0.5,0.0,1.0,309.0,763.0,0.0,1,1928.0,0
1308,1308,-0.6393445349909715,-0.6,0.0,1.0,343.0,666.0,0.0,1,1991.0,0
1309,1309,0.13114741116355677,0.1,0.0,0.0,467.0,926.0,0.0,1,1607.0,1
1310,1310,-0.3367341750447902,-0.3,1.0,0.0,463.0,792.0,0.0,0,1745.0,1
1311,1311,-0.49734351595691423,-0.5,1.0,0.0,416.0,828.0,0.0,0,1756.0,1
1312,1312,-0.21193440122229268,-0.2,1.0,0.0,366.0,785.0,0.0,0,1849.0,1
1313,1313,-0.41993165401903537,-0.4,0.0,1.0,457.0,913.0,0.0,1,1630.0,0
1314,1314,0.3365918175928716,0.3,0.0,0.0,418.0,651.0,0.0,1,1931.0,1
1315,1315,0.3223341283729827,0.3,0.0,0.0,398.0,888.0,0.0,1,1714.0,1
1316,1316,0.013305568162280679,0.0,1.0,1.0,437.0,841.0,0.0,0,1722.0,0
1317,1317,0.3643487472561596,0.4,0.0,0.0,308.0,847.0,0.0,1,1845.0,1
1318,1318,0.4906611666449897,0.5,0.0,0.0,438.0,869.0,0.0,1,-1267.0,1
1319,1319,-0.0424400250199789,-0.0,1.0,0.0,262.0,765.0,0.0,0,1973.0,1
1320,1320,0.3491160349789767,0.3,1.0,1.0,362.0,922.0,0.0,0,-1224.0,0
1321,1321,0.3031737085117955,0.3,0.0,0.0,470.0,928.0,0.0,1,1602.0,1
1322,1322,0.6475668044634405,0.6,1.0,1.0,368.0,612.0,0.0,0,2020.0,0
1323,1323,-0.8617180678472794,-0.9,1.0,0.0,493.0,856.0,0.0,0,1651.0,1
1324,1324,-0.38013920918452204,-0.4,1.0,0.0,325.0,961.0,0.0,0,1714.0,1
1325,1325,-0.23404892439179603,-0.2,1.0,0.0,425.0,859.0,0.0,0,1716.0,1
1326,1326,0.24501459170130302,0.2,1.0,1.0,266.0,657.0,0.0,0,2077.0,0
1327,1327,-0.5790591929714998,-0.6,1.0,0.0,373.0,533.0,0.0,0,2094.0,1
1328,1328,0.39056413114043054,0.4,1.0,1.0,312.0,550.0,0.0,0,2138.0,0
1329,1329,0.13737173886890808,0.1,0.0,0.0,387.0,856.0,0.0,1,1757.0,1
1330,1330,0.07544926345170078,0.1,1.0,1.0,430.0,842.0,0.0,0,-1192.0,0
1331,1331,0.7272106522988208,0.7,0.0,0.0,496.0,652.0,0.0,1,1852.0,1
1332,1332,0.13556848429429202,0.1,1.0,1.0,360.0,501.0,0.0,0,2139.0,0
1333,1333,0.844230036374113,0.8,0.0,0.0,406.0,982.0,0.0,1,1612.0,1
1334,1334,0.7737545574360695,0.8,1.0,1.0,277.0,757.0,0.0,0,1966.0,0
1335,1335,-0.46322004821963597,-0.5,1.0,0.0,426.0,771.0,0.0,0,1803.0,1
1336,1336,0.432265898311161,0.4,1.0,1.0,286.0,760.0,0.0,0,-986.0,0
1337,1337,0.333470924872045,0.3,1.0,1.0,430.0,615.0,0.0,0,1955.0,0
1338,1338,-0.8127138247483809,-0.8,0.0,1.0,413.0,931.0,0.0,1,1656.0,0
1339,1339,-0.33948838114010493,-0.3,0.0,1.0,266.0,910.0,0.0,1,1824.0,0
1340,1340,-0.22866224079171182,-0.2,0.0,1.0,250.0,758.0,0.0,1,1992.0,0
1341,1341,-0.626382906521437,-0.6,0.0,1.0,413.0,672.0,0.0,1,1915.0,0
1342,1342,-0.706094991154,-0.7,1.0,0.0,398.0,848.0,0.0,0,1754.0,1
1343,1343,-0.5787350143383679,-0.6,1.0,0.0,391.0,707.0,0.0,0,1902.0,1
1344,1344,-0.8435010200503003,-0.8,0.0,1.0,469.0,867.0,0.0,1,1664.0,0
1345,1345,-0.2591053196895712,-0.3,0.0,1.0,463.0,892.0,0.0,1,1645.0,0
1346,1346,0.5791661571281567,0.6,0.0,0.0,390.0,697.0,0.0,1,-997.0,1
1347,1347,-0.09903918269152945,-0.1,0.0,1.0,442.0,746.0,0.0,1,1812.0,0
1348,1348,-0.4296539723752985,-0.4,1.0,0.0,258.0,668.0,1.0,1,-826.0,0
1349,1349,-0.7170732084003746,-0.7,1.0,0.0,270.0,633.0,0.0,0,2097.0,1
1350,1350,0.776745713388311,0.8,1.0,1.0,265.0,861.0,0.0,0,1874.0,0
1351,1351,0.5092875498554604,0.5,1.0,1.0,425.0,839.0,0.0,0,-1254.0,0
1352,1352,-0.3953848143668667,-0.4,0.0,1.0,293.0,510.0,1.0,0,-683.0,1
1353,1353,0.27855628987285697,0.3,1.0,1.0,264.0,948.0,1.0,1,-1102.0,1
1354,1354,0.41426487159478576,0.4,1.0,1.0,421.0,859.0,0.0,0,-1090.0,0
1355,1355,0.6147397591329357,0.6,1.0,1.0,445.0,590.0,0.0,0,1965.0,0
1356,1356,0.45115987653686374,0.5,1.0,1.0,464.0,726.0,1.0,1,-1100.0,1
1357,1357,0.4359088690631153,0.4,1.0,1.0,371.0,838.0,0.0,0,1791.0,0
1358,1358,-0.884738180233403,-0.9,1.0,0.0,490.0,663.0,0.0,0,1847.0,1
1359,1359,0.2425781540842199,0.2,0.0,0.0,328.0,564.0,0.0,1,2108.0,1
1360,1360,0.7458373678340594,0.7,1.0,1.0,310.0,753.0,0.0,0,1937.0,0
1361,1361,0.45417736328230884,0.5,0.0,0.0,399.0,774.0,0.0,1,1827.0,1
1362,1362,0.1202309342242126,0.1,0.0,0.0,455.0,942.0,0.0,1,1603.0,1
1363,1363,0.8528749737027098,0.9,1.0,1.0,300.0,805.0,0.0,0,1895.0,0
1364,1364,0.44694389917172794,0.4,1.0,1.0,278.0,572.0,0.0,0,2150.0,0
1365,1365,-0.49343330714245925,-0.5,1.0,0.0,295.0,580.0,0.0,0,2125.0,1
1366,1366,0.6231603593419656,0.6,0.0,0.0,384.0,921.0,0.0,1,1695.0,1
1367,1367,-0.1076314165327058,-0.1,1.0,0.0,329.0,945.0,0.0,0,1726.0,1
1368,1368,-0.41747146223932957,-0.4,1.0,0.0,256.0,786.0,0.0,0,1958.0,1
1369,1369,-0.6899059245184631,-0.7,0.0,1.0,496.0,992.0,0.0,1,1512.0,0
1370,1370,-0.5920963389524325,-0.6,0.0,1.0,495.0,781.0,0.0,1,1724.0,0
1371,1371,0.35707166755486164,0.4,1.0,1.0,251.0,903.0,0.0,0,1846.0,0
1372,1372,0.07753723640644694,0.1,0.0,0.0,333.0,672.0,0.0,1,1995.0,1
1373,1373,0.22966690938776158,0.2,0.0,0.0,284.0,848.0,0.0,1,1868.0,1
1374,1374,-0.6023460949025632,-0.6,1.0,0.0,471.0,965.0,0.0,0,1564.0,1
1375,1375,0.7630384808211063,0.8,1.0,1.0,328.0,661.0,0.0,0,2011.0,0
1376,1376,-0.13478966794961056,-0.1,1.0,0.0,332.0,887.0,0.0,0,1781.0,1
1377,1377,-0.8201732770765543,-0.8,1.0,0.0,345.0,528.0,0.0,0,2127.0,1
1378,1378,0.6918699925585338,0.7,0.0,0.0,289.0,546.0,0.0,1,2165.0,1
1379,1379,-0.7349293741420319,-0.7,0.0,1.0,291.0,598.0,0.0,1,-709.0,0
1380,1380,-0.38213914515541536,-0.4,0.0,1.0,381.0,526.0,0.0,1,2093.0,0
1381,1381,0.21300450804751814,0.2,1.0,1.0,314.0,548.0,0.0,0,2138.0,0
1382,1382,0.610374422127654,0.6,1.0,1.0,458.0,616.0,0.0,0,1926.0,0
1383,1383,-0.8285884383169437,-0.8,1.0,0.0,329.0,944.0,0.0,0,1727.0,1
1384,1384,0.8308999229663506,0.8,1.0,1.0,323.0,660.0,0.0,0,2017.0,0
1385,1385,-0.08140050672225041,-0.1,0.0,1.0,268.0,866.0,0.0,1,1866.0,0
1386,1386,0.4732433715889851,0.5,0.0,0.0,346.0,949.0,0.0,1,1705.0,1
1387,1387,-0.38381643137890065,-0.4,0.0,1.0,488.0,865.0,0.0,1,1647.0,0
1388,1388,0.0333973945431405,0.0,1.0,1.0,474.0,815.0,0.0,0,1711.0,0
1389,1389,-0.5815554114022684,-0.6,0.0,1.0,297.0,711.0,0.0,1,1992.0,0
1390,1390,-0.7929869345019824,-0.8,1.0,0.0,477.0,933.0,0.0,0,1590.0,1
1391,1391,-0.7155857760764323,-0.7,0.0,1.0,494.0,738.0,0.0,1,1768.0,0
1392,1392,-0.012739806975762935,-0.0,1.0,0.0,499.0,975.0,0.0,0,1526.0,1
1393,1393,0.8000923456965855,0.8,1.0,1.0,383.0,579.0,0.0,0,2038.0,0
1394,1394,-0.3902298351676785,-0.4,0.0,1.0,469.0,701.0,0.0,1,1830.0,0
1395,1395,0.8880117565098172,0.9,0.0,0.0,493.0,847.0,1.0,0,-1210.0,0
1396,1396,0.3205975032304115,0.3,0.0,0.0,390.0,796.0,0.0,1,1814.0,1
1397,1397,-0.751968105641489,-0.8,1.0,0.0,460.0,674.0,0.0,0,1866.0,1
1398,1398,0.742668906452986,0.7,1.0,1.0,401.0,855.0,0.0,0,1744.0,0
1399,1399,0.011491406348774769,0.0,0.0,0.0,325.0,741.0,0.0,1,1934.0,1
1400,1400,-0.623119770735483,-0.6,1.0,0.0,306.0,899.0,0.0,0,1795.0,1
1401,1401,0.6741009954636502,0.7,0.0,0.0,382.0,772.0,0.0,1,1846.0,1
1402,1402,-0.17187263682598242,-0.2,1.0,0.0,376.0,602.0,0.0,0,2022.0,1
1403,1403,-0.7299809143819165,-0.7,1.0,0.0,450.0,924.0,0.0,0,1626.0,1
1404,1404,-0.13087041062464289,-0.1,1.0,0.0,283.0,613.0,0.0,0,2104.0,1
1405,1405,-0.25788182684409977,-0.3,0.0,1.0,406.0,974.0,0.0,1,1620.0,0
1406,1406,-0.4341976105553083,-0.4,0.0,1.0,431.0,611.0,0.0,1,1958.0,0
1407,1407,-0.0194560561901993,-0.0,0.0,1.0,449.0,672.0,0.0,1,1879.0,0
1408,1408,0.6047319795784759,0.6,1.0,1.0,330.0,932.0,0.0,0,1738.0,0
1409,1409,0.5203114119039997,0.5,0.0,0.0,268.0,968.0,0.0,1,1764.0,1
1410,1410,0.5020605266848132,0.5,1.0,1.0,297.0,547.0,0.0,0,2156.0,0
1411,1411,-0.4234988816489825,-0.4,1.0,0.0,325.0,503.0,1.0,1,-678.0,0
1412,1412,-0.7507473433661052,-0.8,1.0,0.0,276.0,933.0,0.0,0,1791.0,1
1413,1413,-0.8586647720252883,-0.9,0.0,1.0,291.0,888.0,0.0,1,1821.0,0
1414,1414,-0.12435747803577746,-0.1,0.0,1.0,447.0,961.0,0.0,1,1592.0,0
1415,1415,0.18977855638498065,0.2,0.0,0.0,291.0,618.0,0.0,1,2091.0,1
1416,1416,-0.6863656148139988,-0.7,0.0,1.0,481.0,663.0,0.0,1,1856.0,0
1417,1417,-0.2764473536437114,-0.3,1.0,0.0,394.0,825.0,0.0,0,1781.0,1
1418,1418,-0.09438360386190692,-0.1,0.0,1.0,365.0,958.0,0.0,1,1677.0,0
1419,1419,0.8887536894563605,0.9,1.0,1.0,456.0,840.0,0.0,0,1704.0,0
1420,1420,0.7386040789882086,0.7,0.0,0.0,287.0,964.0,0.0,1,1749.0,1
1421,1421,0.600286353504092,0.6,0.0,0.0,407.0,525.0,0.0,1,-932.0,1
1422,1422,0.5980107119773582,0.6,0.0,0.0,303.0,688.0,1.0,0,-951.0,0
1423,1423,-0.11024271814765318,-0.1,0.0,1.0,290.0,561.0,0.0,1,2149.0,0
1424,1424,0.8101060591131547,0.8,1.0,1.0,302.0,587.0,0.0,0,2111.0,0
1425,1425,0.2817519879390403,0.3,1.0,1.0,389.0,657.0,0.0,0,1954.0,0
1426,1426,0.2546900879174273,0.3,1.0,1.0,431.0,818.0,0.0,0,1751.0,0
1427,1427,-0.8141873077202613,-0.8,1.0,0.0,437.0,717.0,0.0,0,1846.0,1
1428,1428,0.009389217326094879,0.0,0.0,0.0,278.0,635.0,0.0,1,2087.0,1
1429,1429,0.8965649795250586,0.9,0.0,0.0,297.0,825.0,0.0,1,1878.0,1
1430,1430,0.8467445194157853,0.8,0.0,0.0,425.0,846.0,0.0,1,1729.0,1
1431,1431,0.6191573156600013,0.6,0.0,0.0,459.0,650.0,0.0,1,1891.0,1
1432,1432,-0.49481771267291713,-0.5,1.0,0.0,420.0,921.0,0.0,0,1659.0,1
1433,1433,0.41573717667019505,0.4,1.0,1.0,340.0,677.0,1.0,1,-1017.0,1
1434,1434,0.2736327362352803,0.3,0.0,0.0,431.0,985.0,0.0,1,1584.0,1
1435,1435,-0.24389595655993335,-0.2,0.0,1.0,313.0,699.0,0.0,1,1988.0,0
1436,1436,0.6194705848401806,0.6,0.0,0.0,379.0,557.0,0.0,1,2064.0,1
1437,1437,0.1292942557031319,0.1,1.0,1.0,312.0,907.0,0.0,0,1781.0,0
1438,1438,-0.15228247571062437,-0.2,1.0,0.0,257.0,773.0,0.0,0,1970.0,1
1439,1439,-0.010260558302545908,-0.0,0.0,1.0,313.0,798.0,0.0,1,1889.0,0
1440,1440,-0.6121332073806387,-0.6,0.0,1.0,440.0,589.0,0.0,1,1971.0,0
1441,1441,0.7882195149371841,0.8,1.0,1.0,310.0,903.0,0.0,0,1787.0,0
1442,1442,0.27115108468971083,0.3,1.0,1.0,340.0,668.0,0.0,0,1992.0,0
1443,1443,-0.13485818500550806,-0.1,0.0,1.0,390.0,816.0,1.0,0,-1036.0,1
1444,1444,0.7744955870562579,0.8,0.0,0.0,349.0,577.0,0.0,1,2074.0,1
1445,1445,-0.7066355660555921,-0.7,0.0,1.0,305.0,538.0,0.0,1,2157.0,0
1446,1446,-0.8118944660784524,-0.8,1.0,0.0,389.0,959.0,0.0,0,1652.0,1
1447,1447,0.6124688260386911,0.6,1.0,1.0,370.0,878.0,0.0,0,1752.0,0
1448,1448,0.8102774740533819,0.8,0.0,0.0,297.0,825.0,0.0,1,1878.0,1
1449,1449,-0.5437016236666611,-0.5,0.0,1.0,370.0,960.0,0.0,1,1670.0,0
1450,1450,0.4386695114444986,0.4,0.0,0.0,288.0,948.0,0.0,1,1764.0,1
1451,1451,-0.3444893998413563,-0.3,0.0,1.0,280.0,981.0,1.0,0,-1151.0,1
1452,1452,-0.399100335034997,-0.4,0.0,1.0,489.0,631.0,0.0,1,1880.0,0
1453,1453,-0.38294547586324557,-0.4,1.0,0.0,401.0,912.0,0.0,0,1687.0,1
1454,1454,-0.7192873475156594,-0.7,1.0,0.0,332.0,891.0,0.0,0,1777.0,1
1455,1455,0.529131287243532,0.5,1.0,1.0,319.0,615.0,1.0,1,-884.0,1
1456,1456,0.19119420041831436,0.2,0.0,0.0,397.0,755.0,1.0,0,-872.0,0
1457,1457,0.6475997839808686,0.6,0.0,0.0,365.0,960.0,0.0,1,1675.0,1
1458,1458,-0.2703996012737049,-0.3,0.0,1.0,375.0,936.0,0.0,1,1689.0,0
1459,1459,-0.5705486193549971,-0.6,1.0,0.0,358.0,570.0,0.0,0,2072.0,1
1460,1460,0.16147794988253705,0.2,0.0,0.0,296.0,533.0,0.0,1,2171.0,1
1461,1461,-0.7994421044043812,-0.8,0.0,1.0,281.0,580.0,0.0,1,2139.0,0
1462,1462,-0.0392509357921903,-0.0,1.0,0.0,451.0,879.0,0.0,0,1670.0,1
1463,1463,-0.39378398960960026,-0.4,1.0,0.0,453.0,872.0,0.0,0,1675.0,1
1464,1464,0.5938116575006901,0.6,0.0,0.0,291.0,541.0,0.0,1,2168.0,1
1465,1465,0.7381092472757694,0.7,0.0,0.0,327.0,797.0,0.0,1,1876.0,1
1466,1466,0.4552029059569084,0.5,1.0,1.0,447.0,550.0,0.0,0,2003.0,0
1467,1467,-0.6819040559020333,-0.7,0.0,1.0,405.0,507.0,0.0,1,2088.0,0
1468,1468,0.8814296920691053,0.9,0.0,0.0,255.0,919.0,0.0,1,1826.0,1
1469,1469,-0.28993224987970145,-0.3,1.0,0.0,430.0,513.0,0.0,0,2057.0,1
