,trial,coherence,coherence_bin,green_side,correct_side,target_onset,checker_onset,decision,green_decision,decision_time,correct_decision
0,0,0.46591618399247114,0.5,1.0,1.0,480.0,626.0,1.0,1,314.0,1
1,1,0.520711817361834,0.5,0.0,0.0,251.0,627.0,0.0,1,172.0,1
2,2,-0.2338198281289866,-0.2,1.0,0.0,337.0,776.0,0.0,0,717.0,1
3,3,0.6016139367195802,0.6,1.0,1.0,353.0,776.0,1.0,1,131.0,1
4,4,-0.5802539153420823,-0.6,1.0,0.0,448.0,879.0,0.0,0,283.0,1
5,5,-0.48553341411890594,-0.5,0.0,1.0,310.0,979.0,1.0,0,121.0,1
6,6,0.005264266084400004,0.0,1.0,1.0,442.0,800.0,1.0,1,688.0,1
7,7,-0.37483782980686164,-0.4,1.0,0.0,468.0,928.0,0.0,0,194.0,1
8,8,-0.3483414467564421,-0.3,1.0,0.0,401.0,539.0,0.0,0,420.0,1
9,9,0.8702819271970056,0.9,1.0,1.0,279.0,600.0,1.0,1,121.0,1
10,10,0.89571110186642,0.9,0.0,0.0,254.0,532.0,0.0,1,264.0,1
11,11,0.7377571735181815,0.7,1.0,1.0,341.0,553.0,1.0,1,186.0,1
12,12,0.3845490868513012,0.4,1.0,1.0,274.0,951.0,1.0,1,165.0,1
13,13,-0.3779181218668304,-0.4,1.0,0.0,480.0,945.0,0.0,0,215.0,1
14,14,0.8228921748317283,0.8,0.0,0.0,483.0,540.0,0.0,1,227.0,1
15,15,0.6856853757632756,0.7,0.0,0.0,315.0,604.0,0.0,1,161.0,1
16,16,-0.6116995255306188,-0.6,0.0,1.0,383.0,978.0,1.0,0,99.0,1
17,17,-0.19521965701202748,-0.2,0.0,1.0,456.0,560.0,1.0,0,244.0,1
18,18,0.7011683134873655,0.7,0.0,0.0,402.0,540.0,0.0,1,298.0,1
19,19,0.22474277763055117,0.2,0.0,0.0,319.0,976.0,0.0,1,625.0,1
20,20,0.7439980180546021,0.7,0.0,0.0,486.0,607.0,0.0,1,157.0,1
21,21,0.17324283900844606,0.2,0.0,0.0,348.0,939.0,0.0,1,283.0,1
22,22,0.208515210905046,0.2,1.0,1.0,346.0,700.0,1.0,1,214.0,1
23,23,-0.5595743947314473,-0.6,0.0,1.0,310.0,672.0,1.0,0,188.0,1
24,24,-0.4513096107641263,-0.5,0.0,1.0,390.0,673.0,1.0,0,247.0,1
25,25,0.3646881168172543,0.4,1.0,1.0,254.0,695.0,1.0,1,151.0,1
26,26,-0.2631420880244958,-0.3,0.0,1.0,353.0,832.0,1.0,0,25.0,1
27,27,0.05477930775784978,0.1,1.0,1.0,332.0,575.0,1.0,1,873.0,1
28,28,-0.4835800681953038,-0.5,1.0,0.0,374.0,948.0,0.0,0,148.0,1
29,29,0.46831088065982873,0.5,1.0,1.0,447.0,919.0,1.0,1,64.0,1
30,30,-0.2921643649847864,-0.3,0.0,1.0,295.0,758.0,1.0,0,147.0,1
31,31,0.6102877879207117,0.6,1.0,1.0,342.0,764.0,1.0,1,104.0,1
32,32,-0.893781962858475,-0.9,1.0,0.0,459.0,847.0,0.0,0,154.0,1
33,33,-0.8487518437812127,-0.8,1.0,0.0,384.0,836.0,0.0,0,110.0,1
34,34,-0.3579829287514752,-0.4,0.0,1.0,322.0,615.0,1.0,0,123.0,1
35,35,0.2463262304949857,0.2,1.0,1.0,381.0,799.0,1.0,1,170.0,1
36,36,-0.029540127962046858,-0.0,0.0,1.0,284.0,936.0,1.0,0,1060.0,1
37,37,0.07653275937414872,0.1,0.0,0.0,431.0,639.0,0.0,1,1930.0,1
38,38,-0.3814077881038289,-0.4,1.0,0.0,284.0,669.0,0.0,0,387.0,1
39,39,0.4811221981752981,0.5,1.0,1.0,338.0,533.0,1.0,1,209.0,1
40,40,0.2890429722110087,0.3,0.0,0.0,327.0,591.0,0.0,1,352.0,1
41,41,-0.005970819020949647,-0.0,0.0,1.0,384.0,694.0,1.0,0,352.0,1
42,42,-0.6394410467970952,-0.6,0.0,1.0,478.0,708.0,1.0,0,204.0,1
43,43,0.07818840867199828,0.1,1.0,1.0,318.0,942.0,1.0,1,320.0,1
44,44,0.860064389975678,0.9,1.0,1.0,446.0,603.0,1.0,1,171.0,1
45,45,0.8674416157769257,0.9,1.0,1.0,307.0,726.0,1.0,1,207.0,1
46,46,0.32943749056507265,0.3,0.0,0.0,382.0,855.0,0.0,1,263.0,1
47,47,0.5380618397922724,0.5,0.0,0.0,445.0,715.0,0.0,1,120.0,1
48,48,0.24383022542817379,0.2,0.0,0.0,324.0,856.0,0.0,1,700.0,1
49,49,0.8698521545688932,0.9,0.0,0.0,493.0,648.0,0.0,1,169.0,1
50,50,-0.8208629591554742,-0.8,0.0,1.0,268.0,869.0,1.0,0,133.0,1
51,51,-0.32702769150201716,-0.3,0.0,1.0,252.0,919.0,1.0,0,139.0,1
52,52,-0.6162285095460442,-0.6,0.0,1.0,425.0,667.0,1.0,0,168.0,1
53,53,0.39331364803430324,0.4,1.0,1.0,475.0,717.0,1.0,1,168.0,1
54,54,0.10149471089622397,0.1,1.0,1.0,437.0,652.0,1.0,1,561.0,1
55,55,-0.31202946278742116,-0.3,0.0,1.0,382.0,710.0,1.0,0,128.0,1
56,56,0.06383974982095131,0.1,1.0,1.0,343.0,701.0,1.0,1,536.0,1
57,57,0.3563257879901308,0.4,0.0,0.0,300.0,897.0,0.0,1,133.0,1
58,58,-0.6649876049409895,-0.7,0.0,1.0,345.0,769.0,1.0,0,166.0,1
59,59,0.667672641154932,0.7,1.0,1.0,390.0,619.0,1.0,1,91.0,1
60,60,-0.8603834053961059,-0.9,1.0,0.0,400.0,984.0,1.0,1,-244.0,0
61,61,0.3040127471491315,0.3,0.0,0.0,367.0,741.0,0.0,1,422.0,1
62,62,0.38758506791243497,0.4,1.0,1.0,372.0,753.0,1.0,1,185.0,1
63,63,0.5682064121135842,0.6,1.0,1.0,449.0,846.0,1.0,1,55.0,1
64,64,-0.2933689617960924,-0.3,0.0,1.0,462.0,801.0,1.0,0,127.0,1
65,65,0.17579545428203336,0.2,0.0,0.0,441.0,540.0,0.0,1,699.0,1
66,66,0.49171411290061096,0.5,1.0,1.0,353.0,953.0,1.0,1,124.0,1
67,67,-0.255607506874866,-0.3,0.0,1.0,376.0,816.0,1.0,0,188.0,1
68,68,0.7780498197975897,0.8,0.0,0.0,427.0,795.0,0.0,1,148.0,1
69,69,-0.4070352448859918,-0.4,1.0,0.0,340.0,762.0,0.0,0,288.0,1
70,70,0.6760478554150441,0.7,0.0,0.0,450.0,556.0,0.0,1,274.0,1
71,71,0.34397381196220234,0.3,1.0,1.0,411.0,814.0,1.0,1,175.0,1
72,72,-0.35646396175188466,-0.4,1.0,0.0,452.0,680.0,0.0,0,318.0,1
73,73,-0.6076267359627012,-0.6,0.0,1.0,406.0,771.0,1.0,0,203.0,1
74,74,0.6430617699429436,0.6,0.0,0.0,361.0,944.0,0.0,1,135.0,1
75,75,0.27101443426998995,0.3,1.0,1.0,341.0,714.0,1.0,1,395.0,1
76,76,0.10000505216433286,0.1,1.0,1.0,465.0,717.0,1.0,1,368.0,1
77,77,0.34018866387651536,0.3,0.0,0.0,369.0,897.0,0.0,1,264.0,1
78,78,0.49723279335861015,0.5,1.0,1.0,253.0,884.0,1.0,1,173.0,1
79,79,0.39373443595337065,0.4,1.0,1.0,485.0,860.0,1.0,1,105.0,1
80,80,0.5596926963850385,0.6,1.0,1.0,448.0,745.0,1.0,1,87.0,1
81,81,-0.5071545159083226,-0.5,1.0,0.0,331.0,671.0,0.0,0,368.0,1
82,82,-0.3249579890123252,-0.3,0.0,1.0,280.0,650.0,1.0,0,200.0,1
83,83,-0.5319762302359727,-0.5,1.0,0.0,457.0,758.0,0.0,0,435.0,1
84,84,0.23528685870257882,0.2,1.0,1.0,322.0,668.0,1.0,1,160.0,1
85,85,0.5705648775877287,0.6,1.0,1.0,367.0,704.0,1.0,1,169.0,1
86,86,-0.5341887538838275,-0.5,0.0,1.0,433.0,584.0,1.0,0,123.0,1
87,87,0.7209591302647113,0.7,1.0,1.0,288.0,997.0,1.0,1,85.0,1
88,88,-0.7366717453162265,-0.7,1.0,0.0,414.0,961.0,0.0,0,135.0,1
89,89,-0.3101421728515915,-0.3,1.0,0.0,395.0,588.0,0.0,0,387.0,1
90,90,0.37616960862780446,0.4,1.0,1.0,342.0,796.0,1.0,1,252.0,1
91,91,-0.38192151332999735,-0.4,0.0,1.0,414.0,588.0,1.0,0,228.0,1
92,92,0.8266495007976756,0.8,0.0,0.0,447.0,950.0,0.0,1,133.0,1
93,93,-0.3862340857867904,-0.4,0.0,1.0,471.0,524.0,1.0,0,395.0,1
94,94,0.670025942497631,0.7,1.0,1.0,294.0,805.0,1.0,1,121.0,1
95,95,0.11393833695421074,0.1,0.0,0.0,383.0,677.0,0.0,1,880.0,1
96,96,-0.06238386480933633,-0.1,0.0,1.0,489.0,950.0,1.0,0,611.0,1
97,97,0.6200664043798839,0.6,1.0,1.0,351.0,516.0,1.0,1,163.0,1
98,98,0.15639847730163703,0.2,0.0,0.0,443.0,793.0,0.0,1,594.0,1
99,99,0.1075707049971023,0.1,1.0,1.0,495.0,881.0,1.0,1,704.0,1
100,100,-0.8396472566556432,-0.8,1.0,0.0,441.0,695.0,0.0,0,164.0,1
101,101,-0.6162748037844161,-0.6,0.0,1.0,469.0,515.0,1.0,0,136.0,1
102,102,-0.6479200191918149,-0.6,0.0,1.0,293.0,853.0,1.0,0,114.0,1
103,103,0.8458111890054977,0.8,0.0,0.0,449.0,659.0,0.0,1,122.0,1
104,104,-0.7208497353329791,-0.7,1.0,0.0,316.0,588.0,0.0,0,186.0,1
105,105,0.48251948225268626,0.5,1.0,1.0,447.0,768.0,1.0,1,105.0,1
106,106,-0.5095795086667907,-0.5,0.0,1.0,451.0,507.0,1.0,0,292.0,1
107,107,-0.8426021992124393,-0.8,1.0,0.0,439.0,506.0,0.0,0,135.0,1
108,108,-0.2731500458563748,-0.3,0.0,1.0,276.0,530.0,1.0,0,334.0,1
109,109,-0.46160719534256206,-0.5,1.0,0.0,480.0,703.0,0.0,0,337.0,1
110,110,0.03096279669203217,0.0,0.0,0.0,319.0,630.0,1.0,0,1141.0,0
111,111,-0.28652252000253176,-0.3,1.0,0.0,288.0,786.0,0.0,0,556.0,1
112,112,0.5583468427106238,0.6,0.0,0.0,408.0,966.0,0.0,1,176.0,1
113,113,0.49980511957144,0.5,0.0,0.0,469.0,988.0,0.0,1,143.0,1
114,114,-0.511822606959845,-0.5,0.0,1.0,276.0,838.0,1.0,0,176.0,1
115,115,0.7526917939043748,0.8,0.0,0.0,311.0,789.0,0.0,1,220.0,1
116,116,-0.7593982546685392,-0.8,1.0,0.0,349.0,751.0,0.0,0,210.0,1
117,117,0.6776819103223869,0.7,1.0,1.0,394.0,895.0,1.0,1,171.0,1
118,118,-0.3678854749722338,-0.4,1.0,0.0,457.0,660.0,0.0,0,343.0,1
119,119,0.09817791146972321,0.1,1.0,1.0,317.0,808.0,1.0,1,255.0,1
120,120,0.8687590285810886,0.9,0.0,0.0,467.0,566.0,0.0,1,217.0,1
121,121,-0.7265461416224179,-0.7,0.0,1.0,424.0,961.0,1.0,0,195.0,1
122,122,-0.6238754642287394,-0.6,1.0,0.0,415.0,753.0,0.0,0,172.0,1
123,123,-0.514198233044519,-0.5,1.0,0.0,273.0,593.0,0.0,0,194.0,1
124,124,-0.4846250710458832,-0.5,1.0,0.0,301.0,780.0,0.0,0,269.0,1
125,125,-0.4209036291459772,-0.4,1.0,0.0,441.0,920.0,0.0,0,299.0,1
126,126,0.017138861309978548,0.0,1.0,1.0,377.0,820.0,1.0,1,1803.0,1
127,127,-0.43920399431190565,-0.4,0.0,1.0,389.0,654.0,1.0,0,277.0,1
128,128,0.3816987535386459,0.4,0.0,0.0,459.0,822.0,0.0,1,299.0,1
129,129,-0.2284900048495866,-0.2,1.0,0.0,279.0,606.0,0.0,0,605.0,1
130,130,0.08634153345960582,0.1,0.0,0.0,468.0,600.0,0.0,1,762.0,1
131,131,0.871542670906018,0.9,1.0,1.0,306.0,586.0,1.0,1,108.0,1
132,132,0.09679517519907432,0.1,1.0,1.0,463.0,728.0,1.0,1,699.0,1
133,133,-0.7903703156924039,-0.8,0.0,1.0,284.0,659.0,1.0,0,217.0,1
134,134,-0.5176547290572227,-0.5,0.0,1.0,445.0,603.0,1.0,0,282.0,1
135,135,-0.8682692890678798,-0.9,1.0,0.0,298.0,925.0,0.0,0,187.0,1
136,136,0.35000156480499645,0.4,1.0,1.0,470.0,720.0,1.0,1,120.0,1
137,137,0.5593845422833469,0.6,0.0,0.0,477.0,977.0,1.0,0,6.0,0
138,138,-0.5058862060554348,-0.5,0.0,1.0,350.0,747.0,1.0,0,373.0,1
139,139,0.4941066647201525,0.5,0.0,0.0,254.0,648.0,0.0,1,288.0,1
140,140,0.5422800200408585,0.5,0.0,0.0,443.0,795.0,0.0,1,342.0,1
141,141,-0.29419221944742047,-0.3,1.0,0.0,428.0,820.0,0.0,0,432.0,1
142,142,0.2278455282376287,0.2,0.0,0.0,409.0,999.0,0.0,1,332.0,1
143,143,0.04865749663675156,0.0,0.0,0.0,254.0,579.0,1.0,0,937.0,0
144,144,-0.07330117904749367,-0.1,0.0,1.0,433.0,877.0,1.0,0,50.0,1
145,145,0.2980914466910459,0.3,1.0,1.0,405.0,589.0,1.0,1,326.0,1
146,146,-0.5796566042480138,-0.6,0.0,1.0,402.0,568.0,1.0,0,430.0,1
147,147,0.7845426182573697,0.8,1.0,1.0,255.0,749.0,1.0,1,176.0,1
148,148,-0.4119937753207604,-0.4,0.0,1.0,449.0,641.0,1.0,0,200.0,1
149,149,0.6393931249331045,0.6,0.0,0.0,412.0,885.0,0.0,1,183.0,1
150,150,0.3475895680774509,0.3,0.0,0.0,418.0,630.0,0.0,1,492.0,1
151,151,-0.06587165120577398,-0.1,1.0,0.0,350.0,746.0,0.0,0,1274.0,1
152,152,-0.11274827547487731,-0.1,0.0,1.0,311.0,950.0,1.0,0,199.0,1
153,153,-0.7198984296364968,-0.7,0.0,1.0,486.0,590.0,1.0,0,124.0,1
154,154,-0.4976541718347355,-0.5,1.0,0.0,378.0,845.0,0.0,0,297.0,1
155,155,0.8111096683753264,0.8,1.0,1.0,482.0,568.0,1.0,1,150.0,1
156,156,0.4093139166655321,0.4,1.0,1.0,426.0,892.0,1.0,1,142.0,1
157,157,0.3055799899772721,0.3,1.0,1.0,271.0,721.0,1.0,1,248.0,1
158,158,-0.2851683755294796,-0.3,1.0,0.0,255.0,839.0,0.0,0,376.0,1
159,159,0.3799101909264918,0.4,1.0,1.0,255.0,535.0,1.0,1,240.0,1
160,160,0.5901289838423188,0.6,1.0,1.0,368.0,709.0,1.0,1,73.0,1
161,161,0.5418735031344407,0.5,0.0,0.0,487.0,538.0,0.0,1,285.0,1
162,162,0.777125349112567,0.8,0.0,0.0,435.0,785.0,0.0,1,180.0,1
163,163,0.6979645755779841,0.7,0.0,0.0,356.0,819.0,0.0,1,195.0,1
164,164,-0.6709683274973942,-0.7,1.0,0.0,449.0,684.0,0.0,0,217.0,1
165,165,-0.3861052026854137,-0.4,0.0,1.0,358.0,718.0,1.0,0,124.0,1
166,166,0.8575164856281937,0.9,1.0,1.0,417.0,520.0,1.0,1,213.0,1
167,167,0.29700503157638536,0.3,0.0,0.0,367.0,579.0,0.0,1,494.0,1
168,168,0.7075545327677858,0.7,1.0,1.0,378.0,845.0,1.0,1,157.0,1
169,169,0.22578765515047594,0.2,0.0,0.0,290.0,943.0,0.0,1,357.0,1
170,170,-0.5525673364307384,-0.6,0.0,1.0,445.0,611.0,1.0,0,194.0,1
171,171,0.5640102654626019,0.6,1.0,1.0,428.0,794.0,1.0,1,138.0,1
172,172,0.583681402318423,0.6,1.0,1.0,264.0,710.0,1.0,1,126.0,1
173,173,0.2206057108255982,0.2,0.0,0.0,274.0,888.0,0.0,1,208.0,1
174,174,-0.6306531374007394,-0.6,1.0,0.0,350.0,824.0,0.0,0,466.0,1
175,175,0.27778959455525054,0.3,1.0,1.0,366.0,808.0,1.0,1,116.0,1
176,176,-0.6962929865511426,-0.7,0.0,1.0,386.0,841.0,1.0,0,73.0,1
177,177,0.5939597443391483,0.6,0.0,0.0,357.0,572.0,0.0,1,261.0,1
178,178,-0.12168612217868757,-0.1,0.0,1.0,349.0,951.0,1.0,0,150.0,1
179,179,-0.2134691337773742,-0.2,1.0,0.0,379.0,804.0,0.0,0,587.0,1
180,180,0.5039833894874634,0.5,0.0,0.0,324.0,644.0,0.0,1,382.0,1
181,181,0.2737122196597809,0.3,1.0,1.0,282.0,765.0,1.0,1,283.0,1
182,182,-0.3993062145445295,-0.4,0.0,1.0,330.0,764.0,1.0,0,156.0,1
183,183,-0.8610894844135452,-0.9,1.0,0.0,405.0,685.0,0.0,0,200.0,1
184,184,-0.5060311099013756,-0.5,0.0,1.0,384.0,969.0,1.0,0,227.0,1
185,185,-0.18657761465799194,-0.2,1.0,0.0,464.0,903.0,0.0,0,673.0,1
186,186,-0.6534189102190426,-0.7,0.0,1.0,431.0,907.0,1.0,0,52.0,1
187,187,0.10259214810509898,0.1,1.0,1.0,326.0,765.0,1.0,1,599.0,1
188,188,0.49611667795926195,0.5,0.0,0.0,462.0,797.0,0.0,1,271.0,1
189,189,-0.585067002586563,-0.6,0.0,1.0,330.0,588.0,1.0,0,122.0,1
190,190,-0.65964539118753,-0.7,0.0,1.0,302.0,666.0,1.0,0,132.0,1
191,191,-0.19546602338002583,-0.2,1.0,0.0,467.0,565.0,0.0,0,728.0,1
192,192,-0.5034581003040945,-0.5,1.0,0.0,480.0,520.0,0.0,0,270.0,1
193,193,0.023536045397080763,0.0,0.0,0.0,408.0,568.0,1.0,0,2024.0,0
194,194,-0.8865325887679273,-0.9,0.0,1.0,404.0,766.0,1.0,0,170.0,1
195,195,-0.38013368570332284,-0.4,0.0,1.0,300.0,885.0,1.0,0,265.0,1
196,196,-0.38938694386890926,-0.4,1.0,0.0,482.0,735.0,0.0,0,243.0,1
197,197,0.252826223667623,0.3,0.0,0.0,375.0,750.0,0.0,1,545.0,1
198,198,0.21840870180073424,0.2,1.0,1.0,254.0,876.0,1.0,1,200.0,1
199,199,0.4113625615211033,0.4,1.0,1.0,394.0,550.0,1.0,1,146.0,1
200,200,-0.38793378971417647,-0.4,0.0,1.0,284.0,893.0,1.0,0,133.0,1
201,201,0.8989832585137002,0.9,0.0,0.0,436.0,582.0,0.0,1,282.0,1
202,202,0.8236544884913893,0.8,0.0,0.0,373.0,769.0,0.0,1,358.0,1
203,203,0.5799782722954557,0.6,0.0,0.0,360.0,672.0,0.0,1,298.0,1
204,204,0.30365730945777447,0.3,0.0,0.0,295.0,935.0,0.0,1,280.0,1
205,205,-0.28145646163814264,-0.3,0.0,1.0,399.0,530.0,1.0,0,341.0,1
206,206,-0.18788400616503453,-0.2,0.0,1.0,360.0,623.0,1.0,0,417.0,1
207,207,-0.6187938106706716,-0.6,0.0,1.0,280.0,515.0,1.0,0,325.0,1
208,208,-0.684342269568194,-0.7,0.0,1.0,338.0,961.0,1.0,0,161.0,1
209,209,-0.39353383438906697,-0.4,0.0,1.0,404.0,874.0,1.0,0,292.0,1
210,210,0.870887083578051,0.9,0.0,0.0,378.0,613.0,0.0,1,209.0,1
211,211,0.1495042000797503,0.1,1.0,1.0,463.0,631.0,1.0,1,426.0,1
212,212,-0.6528037986936079,-0.7,1.0,0.0,259.0,768.0,0.0,0,253.0,1
213,213,0.025683315447835198,0.0,0.0,0.0,435.0,996.0,1.0,0,549.0,0
214,214,-0.6351114266643507,-0.6,0.0,1.0,350.0,562.0,1.0,0,158.0,1
215,215,-0.7712389411936,-0.8,0.0,1.0,356.0,669.0,1.0,0,185.0,1
216,216,-0.3011405716915043,-0.3,1.0,0.0,473.0,889.0,0.0,0,178.0,1
217,217,0.6461853852991774,0.6,1.0,1.0,272.0,833.0,1.0,1,105.0,1
218,218,-0.21050446137875212,-0.2,0.0,1.0,456.0,572.0,1.0,0,202.0,1
219,219,-0.17403054636794335,-0.2,0.0,1.0,489.0,536.0,1.0,0,575.0,1
220,220,-0.5425844133945077,-0.5,0.0,1.0,478.0,686.0,1.0,0,166.0,1
221,221,0.6655351725319526,0.7,0.0,0.0,260.0,546.0,0.0,1,304.0,1
222,222,-0.625617391196748,-0.6,0.0,1.0,369.0,912.0,1.0,0,119.0,1
223,223,-0.773384997296829,-0.8,1.0,0.0,417.0,776.0,0.0,0,277.0,1
224,224,0.8712729855635281,0.9,1.0,1.0,492.0,712.0,1.0,1,66.0,1
225,225,0.5921742855400735,0.6,0.0,0.0,306.0,610.0,0.0,1,244.0,1
226,226,-0.7699459311545656,-0.8,1.0,0.0,320.0,526.0,0.0,0,174.0,1
227,227,-0.21943254119790878,-0.2,0.0,1.0,498.0,725.0,1.0,0,137.0,1
228,228,0.4664394814281442,0.5,0.0,0.0,344.0,797.0,0.0,1,209.0,1
229,229,0.5088530870025737,0.5,1.0,1.0,287.0,732.0,1.0,1,131.0,1
230,230,0.2157605454636543,0.2,0.0,0.0,427.0,884.0,0.0,1,609.0,1
231,231,-0.7597371850204342,-0.8,0.0,1.0,461.0,843.0,1.0,0,16.0,1
232,232,0.21362099635615095,0.2,1.0,1.0,437.0,995.0,1.0,1,-92.0,1
233,233,-0.4506133041568509,-0.5,0.0,1.0,431.0,834.0,1.0,0,225.0,1
234,234,-0.7235923576962491,-0.7,0.0,1.0,397.0,872.0,1.0,0,51.0,1
235,235,-0.24706832651679334,-0.2,0.0,1.0,373.0,768.0,1.0,0,149.0,1
236,236,-0.6393699909439379,-0.6,1.0,0.0,400.0,505.0,0.0,0,195.0,1
237,237,-0.6928812673518523,-0.7,0.0,1.0,319.0,617.0,1.0,0,144.0,1
238,238,-0.4184606780600661,-0.4,0.0,1.0,345.0,616.0,1.0,0,359.0,1
239,239,-0.8974993853470153,-0.9,1.0,0.0,478.0,774.0,0.0,0,148.0,1
240,240,0.38270628749922786,0.4,0.0,0.0,451.0,654.0,0.0,1,365.0,1
241,241,-0.8972262099139356,-0.9,0.0,1.0,473.0,749.0,1.0,0,28.0,1
242,242,0.10581993230755982,0.1,0.0,0.0,323.0,998.0,0.0,1,1059.0,1
243,243,0.29489875219741835,0.3,0.0,0.0,366.0,959.0,0.0,1,135.0,1
244,244,-0.06539862858188927,-0.1,1.0,0.0,402.0,651.0,0.0,0,1947.0,1
245,245,-0.22546445028182982,-0.2,0.0,1.0,360.0,900.0,1.0,0,360.0,1
246,246,0.11942992439422884,0.1,1.0,1.0,256.0,659.0,1.0,1,285.0,1
247,247,-0.14992424519293113,-0.1,1.0,0.0,403.0,715.0,0.0,0,512.0,1
248,248,-0.30706210803683354,-0.3,1.0,0.0,445.0,522.0,0.0,0,533.0,1
249,249,0.3293913994087784,0.3,0.0,0.0,462.0,727.0,0.0,1,181.0,1
250,250,-0.868389044036473,-0.9,0.0,1.0,260.0,738.0,1.0,0,142.0,1
251,251,-0.7767253209936035,-0.8,1.0,0.0,488.0,567.0,0.0,0,245.0,1
252,252,0.6429439472473185,0.6,1.0,1.0,464.0,662.0,1.0,1,184.0,1
253,253,-0.19045342230030626,-0.2,0.0,1.0,306.0,720.0,1.0,0,194.0,1
254,254,-0.03002390139651867,-0.0,1.0,0.0,281.0,832.0,1.0,1,537.0,0
255,255,0.632367367470486,0.6,0.0,0.0,465.0,921.0,0.0,1,174.0,1
256,256,0.7954971468075823,0.8,0.0,0.0,385.0,684.0,0.0,1,161.0,1
257,257,-0.019069674990285446,-0.0,0.0,1.0,311.0,966.0,0.0,1,1723.0,0
258,258,0.3818601346905638,0.4,0.0,0.0,388.0,982.0,1.0,0,-60.0,0
259,259,0.30710661693321695,0.3,0.0,0.0,453.0,828.0,0.0,1,249.0,1
260,260,0.6838860493361335,0.7,0.0,0.0,485.0,583.0,0.0,1,552.0,1
261,261,-0.19337203797299118,-0.2,0.0,1.0,460.0,634.0,1.0,0,296.0,1
262,262,0.681255908474892,0.7,1.0,1.0,254.0,873.0,1.0,1,143.0,1
263,263,-0.3361834942581622,-0.3,0.0,1.0,472.0,831.0,1.0,0,257.0,1
264,264,0.19079803214307234,0.2,1.0,1.0,468.0,826.0,1.0,1,106.0,1
265,265,-0.5413084982238988,-0.5,0.0,1.0,327.0,645.0,1.0,0,258.0,1
266,266,-0.4217299989666043,-0.4,0.0,1.0,483.0,534.0,1.0,0,263.0,1
267,267,0.6403764281671095,0.6,1.0,1.0,430.0,745.0,1.0,1,265.0,1
268,268,0.5419032079560532,0.5,0.0,0.0,369.0,671.0,0.0,1,280.0,1
269,269,0.3494432069585497,0.3,0.0,0.0,453.0,701.0,0.0,1,356.0,1
270,270,-0.7806578015784608,-0.8,1.0,0.0,450.0,994.0,0.0,0,106.0,1
271,271,-0.2542320232595673,-0.3,1.0,0.0,393.0,504.0,0.0,0,373.0,1
272,272,0.29840411109777276,0.3,0.0,0.0,382.0,894.0,0.0,1,364.0,1
273,273,0.6981882547811994,0.7,1.0,1.0,325.0,569.0,1.0,1,286.0,1
274,274,0.1031915260322086,0.1,1.0,1.0,267.0,563.0,1.0,1,420.0,1
275,275,-0.3163404064690475,-0.3,0.0,1.0,381.0,745.0,1.0,0,114.0,1
276,276,-0.161260226831886,-0.2,0.0,1.0,412.0,999.0,1.0,0,449.0,1
277,277,-0.3709696831175794,-0.4,0.0,1.0,408.0,583.0,1.0,0,299.0,1
278,278,0.5801291537905525,0.6,0.0,0.0,332.0,941.0,0.0,1,207.0,1
279,279,0.5448606554254841,0.5,0.0,0.0,286.0,946.0,0.0,1,188.0,1
280,280,0.870027937219591,0.9,1.0,1.0,415.0,584.0,1.0,1,291.0,1
281,281,-0.34586403238601493,-0.3,0.0,1.0,412.0,709.0,1.0,0,469.0,1
282,282,-0.465003980663759,-0.5,1.0,0.0,366.0,552.0,0.0,0,322.0,1
283,283,0.44712714190656755,0.4,1.0,1.0,366.0,797.0,1.0,1,177.0,1
284,284,-0.05199234490410276,-0.1,1.0,0.0,485.0,866.0,0.0,0,679.0,1
285,285,-0.3614723163554552,-0.4,0.0,1.0,306.0,516.0,1.0,0,188.0,1
286,286,-0.7840332818374922,-0.8,1.0,0.0,341.0,989.0,0.0,0,150.0,1
287,287,0.12018968745320724,0.1,0.0,0.0,430.0,508.0,0.0,1,1262.0,1
288,288,0.7711191248756905,0.8,1.0,1.0,335.0,707.0,1.0,1,138.0,1
289,289,0.07413326261809594,0.1,0.0,0.0,268.0,607.0,0.0,1,915.0,1
290,290,0.4394851040484641,0.4,0.0,0.0,254.0,526.0,0.0,1,270.0,1
291,291,0.6330153474180028,0.6,0.0,0.0,468.0,696.0,0.0,1,246.0,1
292,292,-0.5082108858262273,-0.5,0.0,1.0,269.0,813.0,1.0,0,228.0,1
293,293,-0.7650206190143648,-0.8,1.0,0.0,257.0,664.0,0.0,0,269.0,1
294,294,-0.4284183698446696,-0.4,1.0,0.0,316.0,962.0,0.0,0,302.0,1
295,295,-0.24389201511263137,-0.2,1.0,0.0,329.0,659.0,0.0,0,702.0,1
296,296,0.5814520533313653,0.6,1.0,1.0,457.0,961.0,1.0,1,82.0,1
297,297,-0.273211592128932,-0.3,0.0,1.0,256.0,600.0,1.0,0,314.0,1
298,298,-0.4899216357803567,-0.5,1.0,0.0,474.0,731.0,0.0,0,365.0,1
299,299,-0.04782112013706985,-0.0,0.0,1.0,284.0,806.0,1.0,0,640.0,1
300,300,-0.422348300228232,-0.4,0.0,1.0,428.0,905.0,1.0,0,187.0,1
301,301,-0.6639280320881485,-0.7,0.0,1.0,335.0,835.0,1.0,0,-50.0,1
302,302,-0.08153442185127824,-0.1,0.0,1.0,480.0,881.0,1.0,0,579.0,1
303,303,0.30275965073048694,0.3,1.0,1.0,432.0,569.0,1.0,1,439.0,1
304,304,0.21412668506392019,0.2,1.0,1.0,443.0,503.0,1.0,1,624.0,1
305,305,-0.26338498631268237,-0.3,0.0,1.0,292.0,851.0,1.0,0,187.0,1
306,306,-0.0583841052891898,-0.1,0.0,1.0,271.0,618.0,1.0,0,961.0,1
307,307,-0.31386062929974556,-0.3,1.0,0.0,318.0,930.0,0.0,0,442.0,1
308,308,-0.7690851036910005,-0.8,1.0,0.0,490.0,967.0,0.0,0,133.0,1
309,309,-0.18126702724802146,-0.2,0.0,1.0,302.0,715.0,1.0,0,343.0,1
310,310,-0.39840676105685924,-0.4,1.0,0.0,413.0,809.0,1.0,1,28.0,0
311,311,0.37875826875063934,0.4,0.0,0.0,425.0,840.0,0.0,1,345.0,1
312,312,0.013184703177483104,0.0,1.0,1.0,404.0,596.0,1.0,1,780.0,1
313,313,-0.2845946639645187,-0.3,1.0,0.0,498.0,685.0,0.0,0,497.0,1
314,314,0.10263459468528946,0.1,1.0,1.0,394.0,644.0,1.0,1,462.0,1
315,315,0.24927576554749808,0.2,0.0,0.0,424.0,971.0,0.0,1,235.0,1
316,316,-0.2152185113155931,-0.2,0.0,1.0,458.0,834.0,1.0,0,188.0,1
317,317,0.29845681202985197,0.3,0.0,0.0,326.0,953.0,0.0,1,381.0,1
318,318,-0.5536317214975843,-0.6,0.0,1.0,304.0,735.0,1.0,0,111.0,1
319,319,-0.47458269812370124,-0.5,0.0,1.0,293.0,610.0,1.0,0,187.0,1
320,320,0.5382339003246696,0.5,1.0,1.0,454.0,564.0,1.0,1,292.0,1
321,321,-0.15690614910759781,-0.2,0.0,1.0,408.0,854.0,1.0,0,188.0,1
322,322,0.8073025035192464,0.8,0.0,0.0,382.0,645.0,0.0,1,243.0,1
323,323,0.061922924302981186,0.1,0.0,0.0,436.0,952.0,1.0,0,1122.0,0
324,324,-0.8714538979580717,-0.9,1.0,0.0,361.0,607.0,0.0,0,192.0,1
325,325,0.24933566562168996,0.2,1.0,1.0,283.0,945.0,1.0,1,62.0,1
326,326,-0.5726867041068204,-0.6,1.0,0.0,467.0,631.0,0.0,0,412.0,1
327,327,-0.49904274716234676,-0.5,0.0,1.0,408.0,992.0,1.0,0,-180.0,1
328,328,0.1676481240280302,0.2,0.0,0.0,350.0,555.0,0.0,1,835.0,1
329,329,-0.3564873155191841,-0.4,1.0,0.0,336.0,836.0,0.0,0,388.0,1
330,330,-0.4904045212720852,-0.5,0.0,1.0,416.0,810.0,1.0,0,54.0,1
331,331,0.11821727055464548,0.1,1.0,1.0,422.0,708.0,1.0,1,210.0,1
332,332,-0.4864514701505017,-0.5,1.0,0.0,413.0,533.0,0.0,0,324.0,1
333,333,0.8819570925851229,0.9,0.0,0.0,482.0,530.0,0.0,1,218.0,1
334,334,0.5719309897825796,0.6,1.0,1.0,363.0,700.0,1.0,1,367.0,1
335,335,0.5227224949883286,0.5,0.0,0.0,260.0,682.0,0.0,1,278.0,1
336,336,-0.2332276558218903,-0.2,1.0,0.0,347.0,782.0,0.0,0,371.0,1
337,337,0.3641155422143717,0.4,1.0,1.0,459.0,971.0,1.0,1,140.0,1
338,338,0.22102883579608068,0.2,0.0,0.0,466.0,887.0,0.0,1,947.0,1
339,339,-0.4949146815776038,-0.5,1.0,0.0,471.0,941.0,0.0,0,218.0,1
340,340,-0.048855082536956584,-0.0,1.0,0.0,450.0,937.0,1.0,1,1583.0,0
341,341,0.6910182360309504,0.7,1.0,1.0,477.0,670.0,1.0,1,93.0,1
342,342,0.6512315560386602,0.7,1.0,1.0,370.0,871.0,1.0,1,179.0,1
343,343,0.8765832335258469,0.9,0.0,0.0,325.0,678.0,0.0,1,137.0,1
344,344,0.38305209079695113,0.4,0.0,0.0,369.0,901.0,0.0,1,210.0,1
345,345,0.8458412843382043,0.8,0.0,0.0,374.0,860.0,0.0,1,136.0,1
346,346,0.723711521843866,0.7,0.0,0.0,376.0,613.0,0.0,1,171.0,1
347,347,-0.0910498594321556,-0.1,1.0,0.0,481.0,732.0,1.0,1,477.0,0
348,348,-0.2388515225053628,-0.2,1.0,0.0,377.0,524.0,0.0,0,599.0,1
349,349,-0.06451895759652171,-0.1,1.0,0.0,345.0,990.0,1.0,1,745.0,0
350,350,-0.21369505598929772,-0.2,1.0,0.0,422.0,666.0,0.0,0,482.0,1
351,351,-0.2075627274764531,-0.2,0.0,1.0,390.0,624.0,1.0,0,316.0,1
352,352,0.5740555257473804,0.6,0.0,0.0,304.0,615.0,0.0,1,81.0,1
353,353,-0.6979211760351349,-0.7,0.0,1.0,292.0,987.0,1.0,0,81.0,1
354,354,0.0970739838977539,0.1,1.0,1.0,330.0,739.0,1.0,1,271.0,1
355,355,-0.6511235360092335,-0.7,0.0,1.0,272.0,574.0,1.0,0,164.0,1
356,356,0.7340856428642878,0.7,0.0,0.0,434.0,961.0,0.0,1,215.0,1
357,357,-0.33836447765711675,-0.3,0.0,1.0,292.0,788.0,1.0,0,240.0,1
358,358,0.25387921033421235,0.3,0.0,0.0,468.0,847.0,0.0,1,295.0,1
359,359,0.3079382634330746,0.3,1.0,1.0,311.0,713.0,1.0,1,206.0,1
360,360,-0.23083957858177717,-0.2,0.0,1.0,480.0,746.0,1.0,0,324.0,1
361,361,0.8158253228363425,0.8,1.0,1.0,263.0,667.0,1.0,1,170.0,1
362,362,-0.5827704032645037,-0.6,0.0,1.0,481.0,683.0,1.0,0,276.0,1
363,363,-0.638810697803071,-0.6,0.0,1.0,257.0,944.0,1.0,0,89.0,1
364,364,0.3347068968779102,0.3,1.0,1.0,463.0,851.0,1.0,1,166.0,1
365,365,-0.6177936001142632,-0.6,1.0,0.0,459.0,959.0,0.0,0,202.0,1
366,366,-0.7371527846947517,-0.7,1.0,0.0,396.0,855.0,0.0,0,199.0,1
367,367,-0.2337120597916963,-0.2,1.0,0.0,489.0,707.0,0.0,0,824.0,1
368,368,0.07210159055226018,0.1,0.0,0.0,371.0,809.0,0.0,1,1710.0,1
369,369,0.3226057239671475,0.3,1.0,1.0,432.0,584.0,1.0,1,404.0,1
370,370,-0.8486000944472155,-0.8,0.0,1.0,442.0,534.0,1.0,0,164.0,1
371,371,0.023405401439415385,0.0,1.0,1.0,423.0,641.0,1.0,1,1346.0,1
372,372,0.4085368025424706,0.4,1.0,1.0,498.0,632.0,1.0,1,480.0,1
373,373,0.7914145234414055,0.8,1.0,1.0,447.0,666.0,1.0,1,227.0,1
374,374,-0.6817718851509651,-0.7,0.0,1.0,448.0,566.0,1.0,0,166.0,1
375,375,0.3256025232883174,0.3,0.0,0.0,321.0,823.0,0.0,1,516.0,1
376,376,-0.7732038297320941,-0.8,1.0,0.0,377.0,518.0,0.0,0,195.0,1
377,377,-0.029608130536956545,-0.0,0.0,1.0,250.0,890.0,1.0,0,350.0,1
378,378,-0.025659808141161977,-0.0,1.0,0.0,471.0,526.0,0.0,0,1743.0,1
379,379,0.49475995219832736,0.5,1.0,1.0,358.0,725.0,1.0,1,267.0,1
380,380,-0.025779231029542493,-0.0,0.0,1.0,423.0,908.0,1.0,0,449.0,1
381,381,-0.12196345309053758,-0.1,0.0,1.0,282.0,639.0,1.0,0,469.0,1
382,382,0.8232540724454255,0.8,1.0,1.0,427.0,788.0,1.0,1,135.0,1
383,383,0.05805380233261981,0.1,1.0,1.0,477.0,918.0,1.0,1,1185.0,1
384,384,0.06068319316687154,0.1,0.0,0.0,463.0,869.0,1.0,0,498.0,0
385,385,-0.8034869509393798,-0.8,0.0,1.0,400.0,943.0,1.0,0,117.0,1
386,386,-0.6642150597203188,-0.7,0.0,1.0,400.0,706.0,1.0,0,154.0,1
387,387,-0.3095387957431297,-0.3,1.0,0.0,295.0,525.0,0.0,0,470.0,1
388,388,0.8655833329245509,0.9,1.0,1.0,384.0,925.0,1.0,1,81.0,1
389,389,0.5377132620127264,0.5,1.0,1.0,427.0,608.0,1.0,1,215.0,1
390,390,0.8886268868712773,0.9,0.0,0.0,436.0,900.0,0.0,1,204.0,1
391,391,-0.7177642022719252,-0.7,1.0,0.0,480.0,845.0,0.0,0,245.0,1
392,392,0.22042811631077852,0.2,0.0,0.0,400.0,691.0,0.0,1,389.0,1
393,393,-0.7292247762687071,-0.7,0.0,1.0,417.0,774.0,1.0,0,129.0,1
394,394,0.7155308562426114,0.7,1.0,1.0,259.0,776.0,1.0,1,65.0,1
395,395,-0.28699184848716974,-0.3,0.0,1.0,450.0,659.0,1.0,0,221.0,1
396,396,0.3946514210846218,0.4,0.0,0.0,317.0,569.0,0.0,1,304.0,1
397,397,0.796317252919703,0.8,1.0,1.0,419.0,688.0,1.0,1,73.0,1
398,398,0.7187424810291775,0.7,0.0,0.0,336.0,622.0,0.0,1,152.0,1
399,399,0.747329266043172,0.7,0.0,0.0,342.0,947.0,0.0,1,211.0,1
400,400,0.49568974470225113,0.5,1.0,1.0,493.0,770.0,1.0,1,87.0,1
401,401,-0.5285369078692608,-0.5,0.0,1.0,269.0,708.0,1.0,0,193.0,1
402,402,0.7233074412043602,0.7,1.0,1.0,336.0,683.0,1.0,1,171.0,1
403,403,0.7354079857052042,0.7,0.0,0.0,301.0,646.0,0.0,1,203.0,1
404,404,0.11836994793545308,0.1,1.0,1.0,327.0,695.0,1.0,1,258.0,1
405,405,0.16076167956332565,0.2,0.0,0.0,363.0,954.0,0.0,1,243.0,1
406,406,-0.5820122035331856,-0.6,0.0,1.0,494.0,516.0,1.0,0,150.0,1
407,407,0.09478665389934837,0.1,0.0,0.0,327.0,841.0,0.0,1,632.0,1
408,408,0.7430034484452884,0.7,1.0,1.0,467.0,842.0,1.0,1,61.0,1
409,409,0.4844999574606371,0.5,1.0,1.0,478.0,962.0,1.0,1,0.0,1
410,410,0.12299845209882332,0.1,0.0,0.0,420.0,592.0,0.0,1,1368.0,1
411,411,-0.2215354162695079,-0.2,0.0,1.0,331.0,862.0,1.0,0,197.0,1
412,412,-0.45191951812982784,-0.5,0.0,1.0,442.0,561.0,1.0,0,247.0,1
413,413,-0.2950673338167227,-0.3,0.0,1.0,424.0,888.0,1.0,0,218.0,1
414,414,0.5211710871712304,0.5,0.0,0.0,486.0,991.0,0.0,1,363.0,1
415,415,0.24770774368091397,0.2,1.0,1.0,295.0,593.0,1.0,1,292.0,1
416,416,0.29978983355251587,0.3,0.0,0.0,490.0,904.0,0.0,1,516.0,1
417,417,0.29512402534025706,0.3,1.0,1.0,439.0,643.0,1.0,1,168.0,1
418,418,0.05898735592568083,0.1,0.0,0.0,331.0,826.0,1.0,0,283.0,0
419,419,-0.44247346948197736,-0.4,0.0,1.0,283.0,596.0,1.0,0,251.0,1
420,420,-0.5267408631864821,-0.5,1.0,0.0,465.0,629.0,0.0,0,186.0,1
421,421,0.03701857179374968,0.0,0.0,0.0,328.0,914.0,0.0,1,1758.0,1
422,422,0.049469047396676125,0.0,1.0,1.0,459.0,800.0,1.0,1,601.0,1
423,423,0.3515874583055484,0.4,1.0,1.0,253.0,810.0,1.0,1,-33.0,1
424,424,0.48183243257272046,0.5,0.0,0.0,433.0,574.0,0.0,1,463.0,1
425,425,-0.03600766303220759,-0.0,1.0,0.0,349.0,838.0,0.0,0,783.0,1
426,426,-0.040407659565036114,-0.0,1.0,0.0,469.0,986.0,1.0,1,1545.0,0
427,427,-0.3768897376038788,-0.4,0.0,1.0,309.0,669.0,1.0,0,202.0,1
428,428,-0.18708888131026824,-0.2,1.0,0.0,256.0,737.0,0.0,0,497.0,1
429,429,-0.2982178486729613,-0.3,0.0,1.0,265.0,661.0,1.0,0,184.0,1
430,430,0.74074660571466,0.7,0.0,0.0,392.0,871.0,0.0,1,157.0,1
431,431,0.22562506262978455,0.2,1.0,1.0,264.0,846.0,1.0,1,220.0,1
432,432,-0.8901135000830995,-0.9,1.0,0.0,411.0,620.0,0.0,0,199.0,1
433,433,-0.10107585082570902,-0.1,0.0,1.0,372.0,590.0,1.0,0,468.0,1
434,434,-0.6889156753363399,-0.7,0.0,1.0,406.0,771.0,1.0,0,63.0,1
435,435,0.11536679892350465,0.1,1.0,1.0,456.0,857.0,1.0,1,677.0,1
436,436,0.2515755498880713,0.3,0.0,0.0,416.0,601.0,0.0,1,333.0,1
437,437,0.14306997021263557,0.1,1.0,1.0,273.0,588.0,1.0,1,409.0,1
438,438,0.3874360928696806,0.4,1.0,1.0,411.0,964.0,1.0,1,-165.0,1
439,439,-0.3576362990621541,-0.4,1.0,0.0,452.0,558.0,0.0,0,310.0,1
440,440,-0.3306259316168949,-0.3,0.0,1.0,347.0,928.0,1.0,0,245.0,1
441,441,0.1428474663181044,0.1,0.0,0.0,418.0,512.0,0.0,1,1150.0,1
442,442,-0.894884490745965,-0.9,0.0,1.0,448.0,606.0,1.0,0,156.0,1
443,443,0.04912113984152644,0.0,0.0,0.0,464.0,693.0,1.0,0,1843.0,0
444,444,-0.39567325468789216,-0.4,0.0,1.0,259.0,872.0,1.0,0,169.0,1
445,445,0.1482158520585416,0.1,1.0,1.0,368.0,511.0,1.0,1,321.0,1
446,446,-0.5440605129540999,-0.5,0.0,1.0,441.0,682.0,1.0,0,147.0,1
447,447,0.6035374887846937,0.6,0.0,0.0,288.0,951.0,0.0,1,61.0,1
448,448,-0.3914056076446504,-0.4,1.0,0.0,277.0,793.0,0.0,0,530.0,1
449,449,0.6993940599258494,0.7,0.0,0.0,495.0,684.0,0.0,1,231.0,1
450,450,0.3820380669755986,0.4,1.0,1.0,386.0,939.0,1.0,1,115.0,1
451,451,-0.15156088814404256,-0.2,1.0,0.0,418.0,570.0,0.0,0,912.0,1
452,452,0.7787548264822849,0.8,1.0,1.0,371.0,730.0,1.0,1,309.0,1
453,453,-0.2860800430169411,-0.3,1.0,0.0,305.0,895.0,0.0,0,330.0,1
454,454,0.32350040667204316,0.3,0.0,0.0,272.0,593.0,0.0,1,465.0,1
455,455,-0.511262352268753,-0.5,1.0,0.0,375.0,708.0,0.0,0,377.0,1
456,456,-0.5445395565334628,-0.5,0.0,1.0,433.0,764.0,1.0,0,173.0,1
457,457,-0.035987650035000374,-0.0,1.0,0.0,488.0,739.0,1.0,1,1773.0,0
458,458,0.357665016255586,0.4,1.0,1.0,268.0,915.0,1.0,1,47.0,1
459,459,-0.14412143896933916,-0.1,1.0,0.0,292.0,586.0,0.0,0,1582.0,1
460,460,0.022449133269223265,0.0,0.0,0.0,263.0,720.0,1.0,0,877.0,0
461,461,-0.30424840325595237,-0.3,0.0,1.0,427.0,617.0,1.0,0,556.0,1
462,462,-0.5494192641445319,-0.5,0.0,1.0,426.0,901.0,1.0,0,153.0,1
463,463,-0.11508111590641956,-0.1,0.0,1.0,363.0,982.0,1.0,0,195.0,1
464,464,-0.3564108974926752,-0.4,1.0,0.0,305.0,924.0,0.0,0,361.0,1
465,465,0.22174205585772844,0.2,1.0,1.0,328.0,783.0,1.0,1,139.0,1
466,466,0.8209430976847493,0.8,1.0,1.0,419.0,818.0,1.0,1,173.0,1
467,467,-0.6543714178050044,-0.7,0.0,1.0,367.0,641.0,1.0,0,142.0,1
468,468,-0.3114265161302614,-0.3,1.0,0.0,492.0,926.0,0.0,0,592.0,1
469,469,-0.07848756153086556,-0.1,0.0,1.0,474.0,523.0,1.0,0,633.0,1
470,470,-0.5659818439321065,-0.6,1.0,0.0,369.0,537.0,0.0,0,264.0,1
471,471,0.125290362729633,0.1,0.0,0.0,400.0,704.0,0.0,1,976.0,1
472,472,0.2619983693351763,0.3,0.0,0.0,385.0,822.0,0.0,1,343.0,1
473,473,-0.6531654006232017,-0.7,0.0,1.0,450.0,746.0,1.0,0,84.0,1
474,474,0.6953028630340642,0.7,0.0,0.0,304.0,762.0,0.0,1,284.0,1
475,475,0.5839406120763125,0.6,0.0,0.0,370.0,876.0,0.0,1,154.0,1
476,476,0.8596424758859517,0.9,1.0,1.0,425.0,650.0,1.0,1,125.0,1
477,477,-0.3526548628492334,-0.4,1.0,0.0,360.0,546.0,0.0,0,694.0,1
478,478,-0.6981051552489035,-0.7,1.0,0.0,284.0,727.0,0.0,0,69.0,1
479,479,-0.7828297134361903,-0.8,1.0,0.0,273.0,679.0,0.0,0,168.0,1
480,480,0.44211630865950535,0.4,0.0,0.0,318.0,966.0,0.0,1,136.0,1
481,481,-0.6050947868579937,-0.6,1.0,0.0,456.0,759.0,0.0,0,325.0,1
482,482,0.25463831040603446,0.3,1.0,1.0,317.0,960.0,1.0,1,223.0,1
483,483,0.267195491375949,0.3,0.0,0.0,345.0,530.0,0.0,1,495.0,1
484,484,0.48747406052863596,0.5,1.0,1.0,337.0,567.0,1.0,1,216.0,1
485,485,-0.2652521598374432,-0.3,1.0,0.0,418.0,804.0,0.0,0,288.0,1
486,486,0.018102666825998925,0.0,1.0,1.0,331.0,965.0,1.0,1,224.0,1
487,487,-0.6048151290986965,-0.6,0.0,1.0,423.0,583.0,1.0,0,214.0,1
488,488,-0.47984531977050515,-0.5,1.0,0.0,499.0,972.0,0.0,0,189.0,1
489,489,0.5406364515758616,0.5,0.0,0.0,486.0,804.0,0.0,1,220.0,1
490,490,-0.036237413189764145,-0.0,0.0,1.0,292.0,579.0,1.0,0,299.0,1
491,491,0.23659143405028094,0.2,1.0,1.0,291.0,552.0,1.0,1,327.0,1
492,492,0.7475078514036394,0.7,0.0,0.0,468.0,676.0,0.0,1,246.0,1
493,493,-0.12834393311554793,-0.1,1.0,0.0,327.0,563.0,0.0,0,1130.0,1
494,494,0.6437003786004735,0.6,1.0,1.0,272.0,708.0,1.0,1,100.0,1
495,495,-0.3621604952215288,-0.4,0.0,1.0,461.0,816.0,1.0,0,73.0,1
496,496,0.030787783705514937,0.0,1.0,1.0,402.0,824.0,1.0,1,1734.0,1
497,497,0.08572792039125832,0.1,1.0,1.0,497.0,906.0,1.0,1,257.0,1
498,498,0.25492383829306153,0.3,1.0,1.0,334.0,500.0,1.0,1,356.0,1
499,499,0.018963541719201005,0.0,1.0,1.0,336.0,932.0,1.0,1,1732.0,1
500,500,-0.8316149413627958,-0.8,1.0,0.0,290.0,772.0,0.0,0,198.0,1
501,501,0.3537088530957765,0.4,1.0,1.0,397.0,897.0,1.0,1,106.0,1
502,502,-0.6854628857708093,-0.7,0.0,1.0,408.0,620.0,1.0,0,172.0,1
503,503,-0.2438212482327735,-0.2,1.0,0.0,485.0,758.0,0.0,0,397.0,1
504,504,-0.8899865852204543,-0.9,1.0,0.0,257.0,872.0,0.0,0,141.0,1
505,505,0.4467906660870059,0.4,1.0,1.0,398.0,811.0,1.0,1,71.0,1
506,506,-0.8574987723349975,-0.9,1.0,0.0,329.0,692.0,0.0,0,89.0,1
507,507,0.2663561055068492,0.3,0.0,0.0,252.0,887.0,0.0,1,831.0,1
508,508,0.5219959192255864,0.5,1.0,1.0,399.0,590.0,1.0,1,111.0,1
509,509,0.009838479701823388,0.0,1.0,1.0,278.0,776.0,1.0,1,846.0,1
510,510,-0.122807499183895,-0.1,0.0,1.0,251.0,834.0,1.0,0,455.0,1
511,511,-0.21672141786301413,-0.2,1.0,0.0,397.0,694.0,0.0,0,519.0,1
512,512,-0.22089338743578435,-0.2,0.0,1.0,263.0,612.0,1.0,0,495.0,1
513,513,0.7126466371768895,0.7,1.0,1.0,485.0,547.0,1.0,1,308.0,1
514,514,-0.39700038932501536,-0.4,1.0,0.0,294.0,606.0,0.0,0,240.0,1
515,515,-0.13608256243380112,-0.1,0.0,1.0,476.0,726.0,1.0,0,148.0,1
516,516,0.11566898441273621,0.1,1.0,1.0,413.0,742.0,1.0,1,435.0,1
517,517,0.5514677485383465,0.6,1.0,1.0,372.0,940.0,1.0,1,118.0,1
518,518,-0.39668601156877215,-0.4,1.0,0.0,439.0,608.0,0.0,0,543.0,1
519,519,0.827383054332831,0.8,0.0,0.0,467.0,814.0,0.0,1,219.0,1
520,520,0.6287586628953371,0.6,0.0,0.0,369.0,747.0,0.0,1,254.0,1
521,521,-0.6007567328988962,-0.6,1.0,0.0,254.0,602.0,0.0,0,204.0,1
522,522,0.5334712750921301,0.5,0.0,0.0,313.0,909.0,0.0,1,178.0,1
523,523,-0.830800236209845,-0.8,1.0,0.0,318.0,690.0,0.0,0,262.0,1
524,524,0.09814060946197412,0.1,1.0,1.0,452.0,981.0,1.0,1,377.0,1
525,525,-0.6202472012244968,-0.6,1.0,0.0,424.0,896.0,0.0,0,370.0,1
526,526,-0.594249387155828,-0.6,0.0,1.0,488.0,757.0,1.0,0,95.0,1
527,527,-0.27370895812411344,-0.3,0.0,1.0,494.0,680.0,1.0,0,216.0,1
528,528,0.43479093391020796,0.4,0.0,0.0,453.0,967.0,0.0,1,200.0,1
529,529,0.33239566569305146,0.3,1.0,1.0,476.0,974.0,1.0,1,140.0,1
530,530,0.7360885282408728,0.7,0.0,0.0,499.0,783.0,0.0,1,128.0,1
531,531,-0.3479114568427669,-0.3,1.0,0.0,272.0,622.0,0.0,0,296.0,1
532,532,-0.8939783222104772,-0.9,0.0,1.0,281.0,601.0,1.0,0,168.0,1
533,533,-0.5871823940717533,-0.6,1.0,0.0,262.0,964.0,0.0,0,144.0,1
534,534,-0.7546710049036145,-0.8,1.0,0.0,450.0,602.0,0.0,0,258.0,1
535,535,0.020001749548021586,0.0,1.0,1.0,274.0,962.0,1.0,1,874.0,1
536,536,0.45984140433695264,0.5,0.0,0.0,318.0,709.0,0.0,1,313.0,1
537,537,-0.8314053059010346,-0.8,0.0,1.0,493.0,760.0,1.0,0,87.0,1
538,538,0.8156334431916742,0.8,0.0,0.0,336.0,872.0,0.0,1,132.0,1
539,539,0.11040885842601,0.1,0.0,0.0,281.0,673.0,0.0,1,1106.0,1
540,540,0.16117291343946716,0.2,0.0,0.0,338.0,521.0,0.0,1,701.0,1
541,541,-0.5759794550913118,-0.6,1.0,0.0,477.0,961.0,0.0,0,222.0,1
542,542,-0.4382382439979775,-0.4,0.0,1.0,353.0,869.0,1.0,0,198.0,1
543,543,-0.6437009840613401,-0.6,0.0,1.0,408.0,589.0,1.0,0,233.0,1
544,544,0.5615728756984649,0.6,0.0,0.0,307.0,655.0,0.0,1,268.0,1
545,545,0.2841048139620558,0.3,0.0,0.0,317.0,826.0,0.0,1,237.0,1
546,546,-0.8011353935744816,-0.8,0.0,1.0,461.0,833.0,1.0,0,166.0,1
547,547,-0.04473831020661889,-0.0,1.0,0.0,251.0,779.0,1.0,1,1970.0,0
548,548,0.05298352385694738,0.1,1.0,1.0,479.0,657.0,1.0,1,194.0,1
549,549,-0.7224519037465589,-0.7,1.0,0.0,350.0,704.0,0.0,0,236.0,1
550,550,0.7349427597857533,0.7,0.0,0.0,300.0,789.0,0.0,1,191.0,1
551,551,0.26498658840949785,0.3,0.0,0.0,394.0,633.0,0.0,1,493.0,1
552,552,0.3520032923002291,0.4,0.0,0.0,398.0,918.0,0.0,1,324.0,1
553,553,-0.22953271966188404,-0.2,0.0,1.0,346.0,785.0,1.0,0,219.0,1
554,554,-0.1951232546714209,-0.2,1.0,0.0,397.0,541.0,0.0,0,652.0,1
555,555,0.3263858911524301,0.3,1.0,1.0,495.0,896.0,1.0,1,99.0,1
556,556,0.10017995516597356,0.1,0.0,0.0,299.0,563.0,0.0,1,578.0,1
557,557,-0.22603431970717114,-0.2,1.0,0.0,477.0,914.0,0.0,0,269.0,1
558,558,-0.4015059763845425,-0.4,0.0,1.0,435.0,551.0,1.0,0,184.0,1
559,559,-0.5126069665905331,-0.5,0.0,1.0,497.0,988.0,1.0,0,195.0,1
560,560,-0.29581140115286764,-0.3,1.0,0.0,349.0,537.0,0.0,0,444.0,1
561,561,-0.7022558120849143,-0.7,0.0,1.0,279.0,540.0,1.0,0,101.0,1
562,562,-0.6483655076359056,-0.6,1.0,0.0,460.0,735.0,0.0,0,135.0,1
563,563,-0.012284381831360491,-0.0,0.0,1.0,494.0,968.0,1.0,0,88.0,1
564,564,0.8312356743413084,0.8,0.0,0.0,311.0,598.0,0.0,1,281.0,1
565,565,0.3625282594835829,0.4,1.0,1.0,326.0,793.0,1.0,1,221.0,1
566,566,0.07161820254901974,0.1,1.0,1.0,365.0,671.0,1.0,1,404.0,1
567,567,0.34483698995200707,0.3,0.0,0.0,252.0,693.0,0.0,1,315.0,1
568,568,-0.38055905109682653,-0.4,0.0,1.0,320.0,802.0,1.0,0,148.0,1
569,569,-0.026140979301528033,-0.0,0.0,1.0,281.0,558.0,1.0,0,1711.0,1
570,570,-0.00909310311880851,-0.0,0.0,1.0,380.0,857.0,1.0,0,583.0,1
571,571,-0.5699337940218967,-0.6,1.0,0.0,392.0,871.0,0.0,0,147.0,1
572,572,-0.09515205916769842,-0.1,1.0,0.0,487.0,594.0,0.0,0,889.0,1
573,573,-0.3371645129169437,-0.3,0.0,1.0,393.0,521.0,1.0,0,256.0,1
574,574,-0.7781584579651099,-0.8,1.0,0.0,462.0,521.0,0.0,0,247.0,1
575,575,-0.07334246127147492,-0.1,1.0,0.0,462.0,636.0,0.0,0,1902.0,1
576,576,-0.20411088303029457,-0.2,1.0,0.0,495.0,972.0,0.0,0,403.0,1
577,577,0.019049706947057432,0.0,0.0,0.0,408.0,695.0,1.0,0,257.0,0
578,578,-0.36474768360373544,-0.4,0.0,1.0,311.0,727.0,1.0,0,102.0,1
579,579,-0.8603306122306673,-0.9,1.0,0.0,494.0,575.0,0.0,0,271.0,1
580,580,-0.879705399761889,-0.9,1.0,0.0,343.0,817.0,0.0,0,140.0,1
581,581,-0.8736762639937943,-0.9,1.0,0.0,387.0,829.0,0.0,0,164.0,1
582,582,-0.6036199523524541,-0.6,1.0,0.0,281.0,852.0,0.0,0,147.0,1
583,583,-0.7603591791880276,-0.8,0.0,1.0,348.0,872.0,1.0,0,70.0,1
584,584,-0.4667687880776767,-0.5,0.0,1.0,292.0,519.0,1.0,0,269.0,1
585,585,0.3613786273105569,0.4,1.0,1.0,426.0,989.0,1.0,1,85.0,1
586,586,0.6209220188065651,0.6,1.0,1.0,396.0,761.0,1.0,1,103.0,1
587,587,-0.005156024733807829,-0.0,0.0,1.0,478.0,664.0,1.0,0,1858.0,1
588,588,0.36677172029917193,0.4,1.0,1.0,342.0,526.0,1.0,1,332.0,1
589,589,-0.11953440823741857,-0.1,1.0,0.0,408.0,797.0,0.0,0,705.0,1
590,590,0.2438292541190451,0.2,1.0,1.0,449.0,754.0,1.0,1,107.0,1
591,591,0.21028310506934267,0.2,1.0,1.0,413.0,863.0,1.0,1,224.0,1
592,592,0.2273325126663125,0.2,1.0,1.0,330.0,503.0,1.0,1,307.0,1
593,593,0.48187217544693806,0.5,1.0,1.0,443.0,865.0,1.0,1,52.0,1
594,594,0.578816989581271,0.6,0.0,0.0,251.0,758.0,0.0,1,201.0,1
595,595,0.8596959779445407,0.9,1.0,1.0,275.0,846.0,1.0,1,69.0,1
596,596,-0.8935406927716187,-0.9,1.0,0.0,276.0,811.0,0.0,0,103.0,1
597,597,-0.3788101544615412,-0.4,1.0,0.0,489.0,912.0,0.0,0,199.0,1
598,598,-0.24047759161291438,-0.2,1.0,0.0,367.0,984.0,0.0,0,179.0,1
599,599,-0.08217964772502162,-0.1,1.0,0.0,368.0,857.0,1.0,1,-275.0,0
600,600,0.1103189407193782,0.1,0.0,0.0,454.0,902.0,0.0,1,564.0,1
601,601,0.4463407109160159,0.4,0.0,0.0,290.0,821.0,0.0,1,359.0,1
602,602,-0.593975158788955,-0.6,1.0,0.0,438.0,866.0,0.0,0,196.0,1
603,603,-0.2822682269410616,-0.3,0.0,1.0,388.0,915.0,1.0,0,67.0,1
604,604,0.801508232265962,0.8,1.0,1.0,403.0,781.0,1.0,1,156.0,1
605,605,0.8938410402004361,0.9,1.0,1.0,352.0,603.0,1.0,1,175.0,1
606,606,0.7450225609446456,0.7,1.0,1.0,268.0,636.0,1.0,1,246.0,1
607,607,0.8340777966212501,0.8,0.0,0.0,449.0,944.0,0.0,1,207.0,1
608,608,0.8312747224405846,0.8,0.0,0.0,434.0,946.0,0.0,1,120.0,1
609,609,0.8225401341618607,0.8,1.0,1.0,259.0,783.0,1.0,1,158.0,1
610,610,-0.019611110273178745,-0.0,1.0,0.0,439.0,624.0,1.0,1,317.0,0
611,611,-0.12203216778514747,-0.1,1.0,0.0,399.0,609.0,0.0,0,1092.0,1
612,612,0.5071182457080453,0.5,1.0,1.0,304.0,561.0,1.0,1,255.0,1
613,613,-0.11727293642055958,-0.1,0.0,1.0,341.0,935.0,1.0,0,474.0,1
614,614,0.10893079204281009,0.1,0.0,0.0,381.0,942.0,0.0,1,1677.0,1
615,615,-0.8579405500823677,-0.9,1.0,0.0,445.0,804.0,0.0,0,231.0,1
616,616,0.3231751104055557,0.3,1.0,1.0,320.0,851.0,1.0,1,329.0,1
617,617,0.2389250404401585,0.2,1.0,1.0,392.0,714.0,1.0,1,224.0,1
618,618,0.039708345347502894,0.0,1.0,1.0,444.0,901.0,1.0,1,975.0,1
619,619,-0.765061225212827,-0.8,1.0,0.0,459.0,743.0,0.0,0,248.0,1
620,620,-0.15427675981036837,-0.2,1.0,0.0,415.0,714.0,0.0,0,371.0,1
621,621,-0.7147942144773352,-0.7,1.0,0.0,442.0,726.0,0.0,0,202.0,1
622,622,-0.7160153900700583,-0.7,0.0,1.0,324.0,670.0,1.0,0,86.0,1
623,623,0.5777135424495518,0.6,0.0,0.0,272.0,644.0,0.0,1,164.0,1
624,624,-0.5752019317972903,-0.6,0.0,1.0,273.0,900.0,1.0,0,107.0,1
625,625,0.44526805447431894,0.4,1.0,1.0,384.0,509.0,1.0,1,107.0,1
626,626,-0.8182894744432396,-0.8,0.0,1.0,386.0,574.0,1.0,0,100.0,1
627,627,0.1290085141030305,0.1,0.0,0.0,440.0,629.0,0.0,1,1321.0,1
628,628,-0.2528874009742439,-0.3,1.0,0.0,357.0,593.0,0.0,0,490.0,1
629,629,0.7897149817280912,0.8,1.0,1.0,474.0,989.0,1.0,1,107.0,1
630,630,0.20525839689721426,0.2,1.0,1.0,394.0,697.0,1.0,1,319.0,1
631,631,0.5841942391726626,0.6,0.0,0.0,417.0,633.0,0.0,1,290.0,1
632,632,-0.38432270846007277,-0.4,0.0,1.0,262.0,788.0,1.0,0,160.0,1
633,633,0.5483346326651047,0.5,1.0,1.0,435.0,992.0,1.0,1,103.0,1
634,634,0.12601327191856704,0.1,0.0,0.0,309.0,758.0,0.0,1,1083.0,1
635,635,-0.8769706167439155,-0.9,0.0,1.0,472.0,664.0,1.0,0,154.0,1
636,636,-0.45265134530389906,-0.5,0.0,1.0,285.0,766.0,1.0,0,269.0,1
637,637,0.7909134632771858,0.8,1.0,1.0,432.0,543.0,1.0,1,85.0,1
638,638,-0.6151552229656841,-0.6,0.0,1.0,285.0,844.0,1.0,0,51.0,1
639,639,-0.3020295648398821,-0.3,1.0,0.0,458.0,768.0,0.0,0,214.0,1
640,640,-0.4786227325108956,-0.5,0.0,1.0,293.0,835.0,1.0,0,112.0,1
641,641,0.51546118748007,0.5,0.0,0.0,259.0,750.0,0.0,1,171.0,1
642,642,0.3244409040041999,0.3,0.0,0.0,273.0,892.0,0.0,1,355.0,1
643,643,-0.76226870962051,-0.8,1.0,0.0,328.0,583.0,0.0,0,179.0,1
644,644,0.8064203771494832,0.8,1.0,1.0,467.0,745.0,1.0,1,88.0,1
645,645,-0.03970303384616358,-0.0,0.0,1.0,333.0,747.0,1.0,0,1390.0,1
646,646,-0.21963101662948836,-0.2,0.0,1.0,321.0,932.0,1.0,0,187.0,1
647,647,0.16316094391368774,0.2,1.0,1.0,439.0,771.0,1.0,1,210.0,1
648,648,0.3530580544185934,0.4,1.0,1.0,455.0,860.0,1.0,1,185.0,1
649,649,0.23629905358041892,0.2,1.0,1.0,439.0,717.0,1.0,1,514.0,1
650,650,0.8542008168890375,0.9,1.0,1.0,320.0,664.0,1.0,1,226.0,1
651,651,-0.18129354103943585,-0.2,0.0,1.0,269.0,513.0,1.0,0,488.0,1
652,652,0.13999263179564514,0.1,1.0,1.0,334.0,970.0,1.0,1,476.0,1
653,653,0.6374459852519608,0.6,0.0,0.0,416.0,958.0,0.0,1,216.0,1
654,654,-0.15694053838664823,-0.2,1.0,0.0,383.0,576.0,0.0,0,2041.0,1
655,655,0.6463324977043211,0.6,1.0,1.0,444.0,553.0,1.0,1,313.0,1
656,656,0.35330624735050276,0.4,0.0,0.0,265.0,958.0,0.0,1,297.0,1
657,657,-0.40556868598366075,-0.4,0.0,1.0,415.0,895.0,1.0,0,350.0,1
658,658,-0.4536053639483693,-0.5,0.0,1.0,353.0,866.0,1.0,0,201.0,1
659,659,0.27727173382933434,0.3,0.0,0.0,267.0,527.0,0.0,1,736.0,1
660,660,0.4435177651917962,0.4,1.0,1.0,360.0,588.0,1.0,1,162.0,1
661,661,0.16340240182205445,0.2,1.0,1.0,266.0,922.0,1.0,1,122.0,1
662,662,-0.05258275201101237,-0.1,1.0,0.0,458.0,724.0,0.0,0,1818.0,1
663,663,0.17114319912951725,0.2,1.0,1.0,451.0,953.0,1.0,1,436.0,1
664,664,-0.8472504569903743,-0.8,0.0,1.0,399.0,758.0,1.0,0,143.0,1
665,665,-0.009641592278592404,-0.0,0.0,1.0,351.0,606.0,1.0,0,2043.0,1
666,666,-0.6576676170260016,-0.7,1.0,0.0,453.0,629.0,0.0,0,198.0,1
667,667,-0.49158278178919484,-0.5,0.0,1.0,450.0,737.0,1.0,0,123.0,1
668,668,0.3045019453587222,0.3,0.0,0.0,373.0,931.0,0.0,1,326.0,1
669,669,0.5521412443466739,0.6,0.0,0.0,304.0,564.0,0.0,1,332.0,1
670,670,-0.6628097233405471,-0.7,0.0,1.0,427.0,925.0,1.0,0,98.0,1
671,671,0.005076793844319583,0.0,1.0,1.0,438.0,638.0,1.0,1,1924.0,1
672,672,0.12228658367273215,0.1,0.0,0.0,379.0,896.0,0.0,1,725.0,1
673,673,0.04175760293347108,0.0,0.0,0.0,346.0,738.0,1.0,0,1916.0,0
674,674,0.20667187727054415,0.2,0.0,0.0,384.0,948.0,0.0,1,878.0,1
675,675,-0.018273803421955392,-0.0,0.0,1.0,383.0,501.0,1.0,0,606.0,1
676,676,0.492196399839249,0.5,0.0,0.0,331.0,563.0,0.0,1,366.0,1
677,677,0.4132866613140195,0.4,1.0,1.0,415.0,779.0,1.0,1,166.0,1
678,678,-0.352419135795074,-0.4,1.0,0.0,282.0,662.0,0.0,0,386.0,1
679,679,-0.26438488622098344,-0.3,1.0,0.0,483.0,858.0,0.0,0,369.0,1
680,680,-0.4403998012287696,-0.4,0.0,1.0,423.0,673.0,1.0,0,214.0,1
681,681,-0.2980331328252478,-0.3,0.0,1.0,399.0,974.0,1.0,0,137.0,1
682,682,0.449693952500409,0.4,1.0,1.0,389.0,677.0,1.0,1,244.0,1
683,683,-0.6173790486264223,-0.6,0.0,1.0,426.0,507.0,1.0,0,187.0,1
684,684,-0.3568140527638687,-0.4,1.0,0.0,401.0,846.0,0.0,0,83.0,1
685,685,0.1509061132432884,0.2,1.0,1.0,427.0,947.0,1.0,1,416.0,1
686,686,-0.8149883150803534,-0.8,1.0,0.0,429.0,699.0,0.0,0,152.0,1
687,687,0.8357424689364633,0.8,1.0,1.0,353.0,651.0,1.0,1,106.0,1
688,688,-0.2877030917239931,-0.3,0.0,1.0,444.0,785.0,1.0,0,181.0,1
689,689,0.5812210327553132,0.6,1.0,1.0,471.0,756.0,1.0,1,113.0,1
690,690,0.7519471122314837,0.8,1.0,1.0,480.0,540.0,1.0,1,60.0,1
691,691,-0.6251787353393803,-0.6,0.0,1.0,408.0,864.0,1.0,0,138.0,1
692,692,0.5432301819605393,0.5,0.0,0.0,472.0,556.0,0.0,1,272.0,1
693,693,-0.15361854496345417,-0.2,1.0,0.0,278.0,541.0,0.0,0,731.0,1
694,694,-0.10534321648333156,-0.1,0.0,1.0,463.0,612.0,1.0,0,535.0,1
695,695,-0.7380188389029698,-0.7,1.0,0.0,438.0,826.0,0.0,0,196.0,1
696,696,0.18941064184064238,0.2,1.0,1.0,320.0,660.0,1.0,1,570.0,1
697,697,-0.4173362868130783,-0.4,1.0,0.0,414.0,987.0,1.0,1,-81.0,0
698,698,0.39521366594876206,0.4,1.0,1.0,441.0,564.0,1.0,1,345.0,1
699,699,-0.724971768696765,-0.7,0.0,1.0,253.0,645.0,1.0,0,-18.0,1
700,700,0.03713254863344495,0.0,1.0,1.0,489.0,896.0,1.0,1,315.0,1
701,701,0.2967121978757933,0.3,1.0,1.0,302.0,686.0,1.0,1,212.0,1
702,702,0.09005220127610158,0.1,0.0,0.0,342.0,971.0,0.0,1,1687.0,1
703,703,-0.4736145292028358,-0.5,0.0,1.0,477.0,507.0,1.0,0,216.0,1
704,704,-0.7762322229176712,-0.8,1.0,0.0,402.0,938.0,0.0,0,100.0,1
705,705,0.11400510280260778,0.1,0.0,0.0,459.0,657.0,0.0,1,1534.0,1
706,706,-0.11187935696797746,-0.1,1.0,0.0,284.0,958.0,0.0,0,938.0,1
707,707,0.5936028310299698,0.6,1.0,1.0,369.0,759.0,1.0,1,192.0,1
708,708,-0.11902932554215406,-0.1,1.0,0.0,472.0,756.0,0.0,0,822.0,1
709,709,-0.5685384119682453,-0.6,1.0,0.0,366.0,570.0,0.0,0,124.0,1
710,710,-0.1264163576954801,-0.1,0.0,1.0,333.0,564.0,1.0,0,353.0,1
711,711,-0.7448134525351646,-0.7,0.0,1.0,456.0,956.0,1.0,0,98.0,1
712,712,0.40412905091614293,0.4,1.0,1.0,354.0,877.0,1.0,1,139.0,1
713,713,0.22240783319429946,0.2,0.0,0.0,325.0,821.0,0.0,1,604.0,1
714,714,0.4914906811495262,0.5,0.0,0.0,434.0,700.0,0.0,1,396.0,1
715,715,-0.3197366924795063,-0.3,1.0,0.0,322.0,945.0,0.0,0,403.0,1
716,716,-0.5261199527258851,-0.5,0.0,1.0,288.0,998.0,1.0,0,24.0,1
717,717,-0.07076895727438859,-0.1,1.0,0.0,296.0,522.0,0.0,0,1882.0,1
718,718,0.866240653659763,0.9,0.0,0.0,284.0,859.0,0.0,1,167.0,1
719,719,-0.598141227822941,-0.6,1.0,0.0,298.0,790.0,0.0,0,212.0,1
720,720,-0.1838270395278353,-0.2,0.0,1.0,321.0,662.0,1.0,0,257.0,1
721,721,-0.05555363717541506,-0.1,1.0,0.0,477.0,870.0,1.0,1,1653.0,0
722,722,0.7134581905875622,0.7,1.0,1.0,296.0,683.0,1.0,1,121.0,1
723,723,0.8433625763044198,0.8,1.0,1.0,470.0,504.0,1.0,1,156.0,1
724,724,-0.37301755116959223,-0.4,1.0,0.0,348.0,971.0,0.0,0,321.0,1
725,725,0.46370935725411544,0.5,0.0,0.0,431.0,554.0,0.0,1,455.0,1
726,726,-0.21657114896479823,-0.2,1.0,0.0,320.0,671.0,0.0,0,269.0,1
727,727,0.48403718467016643,0.5,0.0,0.0,463.0,848.0,0.0,1,429.0,1
728,728,-0.8128856391626699,-0.8,1.0,0.0,382.0,578.0,0.0,0,320.0,1
729,729,-0.3627500192544446,-0.4,0.0,1.0,251.0,573.0,1.0,0,346.0,1
730,730,0.23222180482712929,0.2,1.0,1.0,440.0,619.0,1.0,1,331.0,1
731,731,-0.7995141102184997,-0.8,1.0,0.0,491.0,738.0,0.0,0,251.0,1
732,732,0.4111309778458362,0.4,1.0,1.0,261.0,701.0,1.0,1,198.0,1
733,733,-0.40216835573936377,-0.4,0.0,1.0,279.0,839.0,1.0,0,62.0,1
734,734,-0.7274299697406633,-0.7,0.0,1.0,308.0,710.0,1.0,0,122.0,1
735,735,0.5928097324299827,0.6,1.0,1.0,278.0,731.0,1.0,1,41.0,1
736,736,0.27835291498765524,0.3,0.0,0.0,250.0,704.0,0.0,1,766.0,1
737,737,0.30250508395632625,0.3,1.0,1.0,267.0,600.0,1.0,1,573.0,1
738,738,0.19211559292902336,0.2,0.0,0.0,487.0,864.0,0.0,1,619.0,1
739,739,-0.016173937306258046,-0.0,0.0,1.0,484.0,926.0,1.0,0,110.0,1
740,740,0.7423700087255777,0.7,1.0,1.0,293.0,856.0,1.0,1,131.0,1
741,741,0.6169232341051044,0.6,1.0,1.0,392.0,906.0,1.0,1,82.0,1
742,742,0.45733779470047964,0.5,1.0,1.0,451.0,672.0,1.0,1,227.0,1
743,743,0.2536114723368358,0.3,0.0,0.0,265.0,941.0,0.0,1,264.0,1
744,744,-0.42853882078639793,-0.4,0.0,1.0,253.0,985.0,1.0,0,62.0,1
745,745,0.5720623701079074,0.6,1.0,1.0,334.0,560.0,1.0,1,216.0,1
746,746,-0.050729391436242444,-0.1,0.0,1.0,342.0,893.0,1.0,0,485.0,1
747,747,0.2797392845459602,0.3,1.0,1.0,270.0,801.0,1.0,1,209.0,1
748,748,-0.7878082821561473,-0.8,1.0,0.0,376.0,707.0,0.0,0,147.0,1
749,749,-0.40234674424326816,-0.4,0.0,1.0,404.0,982.0,1.0,0,74.0,1
750,750,0.15892848253714764,0.2,1.0,1.0,432.0,615.0,1.0,1,323.0,1
751,751,-0.4399169843807626,-0.4,1.0,0.0,328.0,767.0,0.0,0,635.0,1
752,752,0.12778777030586796,0.1,0.0,0.0,270.0,913.0,0.0,1,757.0,1
753,753,0.31303001845538014,0.3,0.0,0.0,327.0,510.0,0.0,1,233.0,1
754,754,-0.3376998725308924,-0.3,0.0,1.0,296.0,612.0,1.0,0,212.0,1
755,755,0.29639153115486827,0.3,1.0,1.0,361.0,827.0,1.0,1,192.0,1
756,756,-0.2785002074877372,-0.3,0.0,1.0,291.0,753.0,1.0,0,176.0,1
757,757,0.2995658834876903,0.3,0.0,0.0,353.0,681.0,0.0,1,406.0,1
758,758,-0.8201497875702287,-0.8,1.0,0.0,497.0,547.0,0.0,0,396.0,1
759,759,0.7321913203797651,0.7,0.0,0.0,460.0,757.0,0.0,1,203.0,1
760,760,0.559347804688943,0.6,1.0,1.0,387.0,814.0,1.0,1,79.0,1
761,761,0.4508956875458666,0.5,1.0,1.0,363.0,990.0,1.0,1,227.0,1
762,762,-0.18296392091275127,-0.2,1.0,0.0,320.0,859.0,0.0,0,1121.0,1
763,763,0.45595264475520103,0.5,1.0,1.0,480.0,767.0,1.0,1,233.0,1
764,764,0.37306518220260776,0.4,1.0,1.0,348.0,583.0,1.0,1,269.0,1
765,765,-0.7028936522664372,-0.7,0.0,1.0,400.0,733.0,1.0,0,87.0,1
766,766,-0.7815174184082591,-0.8,0.0,1.0,310.0,708.0,1.0,0,112.0,1
767,767,0.6858347433488728,0.7,1.0,1.0,413.0,868.0,1.0,1,89.0,1
768,768,0.28713879324915836,0.3,0.0,0.0,423.0,584.0,0.0,1,583.0,1
769,769,-0.2825281506142766,-0.3,1.0,0.0,351.0,658.0,0.0,0,321.0,1
770,770,-0.4129738320429186,-0.4,0.0,1.0,463.0,839.0,1.0,0,178.0,1
771,771,-0.8359880650756933,-0.8,1.0,0.0,402.0,912.0,0.0,0,176.0,1
772,772,0.5386197942149497,0.5,1.0,1.0,470.0,972.0,1.0,1,-62.0,1
773,773,-0.05222352183137868,-0.1,1.0,0.0,325.0,616.0,0.0,0,1639.0,1
774,774,-0.424643782727016,-0.4,1.0,0.0,441.0,962.0,0.0,0,197.0,1
775,775,0.4229814414295602,0.4,0.0,0.0,410.0,978.0,0.0,1,172.0,1
776,776,0.7344246017108932,0.7,1.0,1.0,457.0,734.0,1.0,1,109.0,1
777,777,0.1659109291568549,0.2,0.0,0.0,484.0,808.0,0.0,1,618.0,1
778,778,0.8928906187150721,0.9,0.0,0.0,294.0,958.0,0.0,1,178.0,1
779,779,-0.8396802653925792,-0.8,0.0,1.0,478.0,510.0,1.0,0,232.0,1
780,780,0.6715230996336569,0.7,0.0,0.0,426.0,682.0,0.0,1,212.0,1
781,781,0.8660022011166196,0.9,1.0,1.0,494.0,792.0,1.0,1,34.0,1
782,782,0.3795509148040771,0.4,0.0,0.0,419.0,719.0,0.0,1,252.0,1
783,783,0.783581245580922,0.8,1.0,1.0,422.0,540.0,1.0,1,148.0,1
784,784,0.5598391056297968,0.6,1.0,1.0,356.0,780.0,1.0,1,74.0,1
785,785,-0.4554708838846581,-0.5,0.0,1.0,392.0,780.0,1.0,0,228.0,1
786,786,-0.4521033297203516,-0.5,0.0,1.0,319.0,562.0,1.0,0,259.0,1
787,787,0.208225796316453,0.2,1.0,1.0,362.0,811.0,1.0,1,197.0,1
788,788,-0.5186141179186483,-0.5,0.0,1.0,492.0,780.0,1.0,0,248.0,1
789,789,-0.7963962808929019,-0.8,0.0,1.0,254.0,856.0,1.0,0,110.0,1
790,790,0.07854783231853968,0.1,0.0,0.0,436.0,690.0,0.0,1,1874.0,1
791,791,0.7825473587608135,0.8,0.0,0.0,285.0,695.0,0.0,1,180.0,1
792,792,-0.0035579695707503856,-0.0,0.0,1.0,482.0,525.0,1.0,0,1243.0,1
793,793,0.09585018340998885,0.1,1.0,1.0,252.0,778.0,1.0,1,300.0,1
794,794,0.3635059096195815,0.4,1.0,1.0,335.0,560.0,1.0,1,255.0,1
795,795,-0.49931996117374616,-0.5,0.0,1.0,409.0,653.0,1.0,0,198.0,1
796,796,-0.547345846794203,-0.5,0.0,1.0,267.0,516.0,1.0,0,237.0,1
797,797,0.3828332845686043,0.4,1.0,1.0,406.0,993.0,1.0,1,151.0,1
798,798,-0.32499881182876866,-0.3,0.0,1.0,378.0,790.0,1.0,0,362.0,1
799,799,-0.11555447907551386,-0.1,1.0,0.0,308.0,850.0,0.0,0,982.0,1
800,800,-0.740782442784172,-0.7,0.0,1.0,389.0,933.0,1.0,0,138.0,1
801,801,-0.24170980766212213,-0.2,0.0,1.0,328.0,838.0,1.0,0,474.0,1
802,802,-0.260058888541007,-0.3,1.0,0.0,326.0,691.0,0.0,0,303.0,1
803,803,0.02720371024332846,0.0,0.0,0.0,479.0,624.0,1.0,0,1067.0,0
804,804,-0.6676701393554741,-0.7,1.0,0.0,404.0,674.0,0.0,0,192.0,1
805,805,-0.10439715141969663,-0.1,1.0,0.0,260.0,627.0,0.0,0,773.0,1
806,806,-0.13248803630628259,-0.1,0.0,1.0,422.0,915.0,1.0,0,293.0,1
807,807,-0.8317293824498224,-0.8,1.0,0.0,451.0,884.0,0.0,0,135.0,1
808,808,-0.5363796914705146,-0.5,1.0,0.0,379.0,715.0,0.0,0,186.0,1
809,809,0.26242997135920454,0.3,1.0,1.0,494.0,873.0,1.0,1,183.0,1
810,810,0.6950277828953909,0.7,0.0,0.0,385.0,587.0,0.0,1,358.0,1
811,811,0.6641354846243265,0.7,0.0,0.0,407.0,854.0,0.0,1,229.0,1
812,812,-0.028000089741205048,-0.0,0.0,1.0,373.0,575.0,1.0,0,752.0,1
813,813,-0.3498532094757074,-0.3,1.0,0.0,439.0,689.0,0.0,0,332.0,1
814,814,-0.5670219111678085,-0.6,1.0,0.0,255.0,614.0,0.0,0,191.0,1
815,815,-0.4736770081103812,-0.5,0.0,1.0,438.0,861.0,1.0,0,101.0,1
816,816,0.6257247848293511,0.6,0.0,0.0,279.0,857.0,0.0,1,194.0,1
817,817,-0.12278781166688935,-0.1,0.0,1.0,393.0,806.0,1.0,0,201.0,1
818,818,0.13935500522735833,0.1,1.0,1.0,298.0,555.0,1.0,1,417.0,1
819,819,-0.6428466552937557,-0.6,1.0,0.0,281.0,655.0,0.0,0,324.0,1
820,820,0.435342169560072,0.4,0.0,0.0,378.0,848.0,0.0,1,344.0,1
821,821,-0.28612558293001045,-0.3,0.0,1.0,337.0,705.0,1.0,0,178.0,1
822,822,-0.7277732002471758,-0.7,1.0,0.0,332.0,657.0,0.0,0,141.0,1
823,823,0.005797341241719711,0.0,1.0,1.0,264.0,826.0,1.0,1,1910.0,1
824,824,-0.39906611222055965,-0.4,0.0,1.0,398.0,669.0,1.0,0,203.0,1
825,825,-0.8289487048872097,-0.8,0.0,1.0,348.0,907.0,1.0,0,-15.0,1
826,826,-0.8673959537869089,-0.9,0.0,1.0,342.0,681.0,1.0,0,87.0,1
827,827,0.8507058212985549,0.9,0.0,0.0,360.0,835.0,0.0,1,145.0,1
828,828,-0.0196893323101085,-0.0,1.0,0.0,452.0,538.0,1.0,1,290.0,0
829,829,0.8364030510309671,0.8,1.0,1.0,413.0,747.0,1.0,1,120.0,1
830,830,-0.6530885989669886,-0.7,1.0,0.0,431.0,788.0,0.0,0,161.0,1
831,831,-0.010182247953777313,-0.0,0.0,1.0,397.0,599.0,1.0,0,1244.0,1
832,832,-0.5027039017364229,-0.5,1.0,0.0,256.0,992.0,1.0,1,-258.0,0
833,833,-0.3664443918535356,-0.4,0.0,1.0,439.0,716.0,1.0,0,225.0,1
834,834,0.5458231339189829,0.5,1.0,1.0,279.0,867.0,1.0,1,44.0,1
835,835,0.5099402881268637,0.5,0.0,0.0,336.0,963.0,0.0,1,221.0,1
836,836,-0.25962907086247655,-0.3,0.0,1.0,330.0,839.0,1.0,0,181.0,1
837,837,-0.009565450947032983,-0.0,0.0,1.0,344.0,572.0,1.0,0,584.0,1
838,838,-0.5744482119522927,-0.6,1.0,0.0,460.0,734.0,0.0,0,246.0,1
839,839,-0.4401012615180893,-0.4,0.0,1.0,322.0,947.0,1.0,0,251.0,1
840,840,-0.30788035730500374,-0.3,0.0,1.0,397.0,604.0,1.0,0,369.0,1
841,841,0.6300810602502728,0.6,1.0,1.0,286.0,697.0,1.0,1,137.0,1
842,842,0.05190188467531154,0.1,1.0,1.0,334.0,908.0,1.0,1,288.0,1
843,843,0.31545426528135956,0.3,0.0,0.0,405.0,683.0,0.0,1,522.0,1
844,844,-0.4162213730007264,-0.4,1.0,0.0,348.0,925.0,0.0,0,317.0,1
845,845,0.7216483439701896,0.7,0.0,0.0,327.0,854.0,0.0,1,139.0,1
846,846,-0.09622776191806037,-0.1,0.0,1.0,466.0,630.0,1.0,0,24.0,1
847,847,-0.37817348543747553,-0.4,1.0,0.0,380.0,624.0,0.0,0,266.0,1
848,848,-0.23563904942306102,-0.2,0.0,1.0,316.0,774.0,1.0,0,330.0,1
849,849,-0.3653917224349743,-0.4,1.0,0.0,402.0,778.0,0.0,0,470.0,1
850,850,0.46102043047665175,0.5,0.0,0.0,265.0,722.0,0.0,1,423.0,1
851,851,-0.11562001687839452,-0.1,0.0,1.0,371.0,858.0,1.0,0,311.0,1
852,852,0.6250059212037468,0.6,0.0,0.0,273.0,784.0,0.0,1,263.0,1
853,853,-0.42325192055067573,-0.4,0.0,1.0,448.0,791.0,1.0,0,171.0,1
854,854,-0.8548006536988805,-0.9,0.0,1.0,407.0,987.0,1.0,0,86.0,1
855,855,0.42658129708490977,0.4,0.0,0.0,266.0,531.0,0.0,1,363.0,1
856,856,-0.23815216019481844,-0.2,0.0,1.0,387.0,894.0,1.0,0,79.0,1
857,857,0.8978116676582076,0.9,0.0,0.0,252.0,837.0,0.0,1,111.0,1
858,858,0.5418885105172601,0.5,0.0,0.0,369.0,908.0,0.0,1,203.0,1
859,859,0.7268855994388007,0.7,0.0,0.0,384.0,772.0,0.0,1,164.0,1
860,860,-0.4856315943817315,-0.5,1.0,0.0,353.0,557.0,0.0,0,370.0,1
861,861,-0.2758442170857661,-0.3,0.0,1.0,292.0,758.0,1.0,0,490.0,1
862,862,-0.6231708980987676,-0.6,0.0,1.0,258.0,850.0,1.0,0,92.0,1
863,863,0.35670468994161453,0.4,0.0,0.0,412.0,565.0,0.0,1,313.0,1
864,864,0.004600719405749132,0.0,0.0,0.0,256.0,822.0,1.0,0,632.0,0
865,865,0.6528586440716883,0.7,0.0,0.0,408.0,594.0,0.0,1,258.0,1
866,866,0.8061696924963723,0.8,1.0,1.0,260.0,622.0,1.0,1,188.0,1
867,867,0.862552681336516,0.9,1.0,1.0,409.0,773.0,1.0,1,108.0,1
868,868,-0.02223612196492475,-0.0,1.0,0.0,405.0,905.0,1.0,1,1690.0,0
869,869,0.5249467704056731,0.5,0.0,0.0,293.0,892.0,0.0,1,305.0,1
870,870,-0.5712752126766663,-0.6,0.0,1.0,437.0,853.0,1.0,0,210.0,1
871,871,0.1488352398609235,0.1,1.0,1.0,435.0,887.0,1.0,1,378.0,1
872,872,-0.030782778111756892,-0.0,0.0,1.0,285.0,703.0,1.0,0,362.0,1
873,873,-0.49966941409064886,-0.5,0.0,1.0,394.0,685.0,1.0,0,251.0,1
874,874,0.8334088827963341,0.8,1.0,1.0,450.0,734.0,1.0,1,216.0,1
875,875,0.7109414532390005,0.7,1.0,1.0,342.0,761.0,1.0,1,67.0,1
876,876,-0.40894871749388234,-0.4,1.0,0.0,278.0,657.0,0.0,0,465.0,1
877,877,-0.5126516116013553,-0.5,0.0,1.0,413.0,928.0,1.0,0,129.0,1
878,878,-0.5038226335931064,-0.5,1.0,0.0,435.0,876.0,0.0,0,119.0,1
879,879,0.07929730092232701,0.1,1.0,1.0,263.0,801.0,1.0,1,356.0,1
880,880,-0.7393853854836182,-0.7,1.0,0.0,485.0,691.0,0.0,0,234.0,1
881,881,-0.48620610124105135,-0.5,0.0,1.0,291.0,558.0,1.0,0,241.0,1
882,882,0.6764966809369591,0.7,0.0,0.0,256.0,605.0,0.0,1,229.0,1
883,883,-0.7336520128960567,-0.7,0.0,1.0,384.0,665.0,1.0,0,101.0,1
884,884,0.07419220667198301,0.1,0.0,0.0,333.0,903.0,0.0,1,754.0,1
885,885,-0.19071574493828392,-0.2,1.0,0.0,434.0,953.0,0.0,0,543.0,1
886,886,-0.09153359005721562,-0.1,0.0,1.0,264.0,702.0,1.0,0,384.0,1
887,887,-0.4413587728758071,-0.4,1.0,0.0,280.0,939.0,1.0,1,-49.0,0
888,888,0.25960455466406984,0.3,0.0,0.0,334.0,812.0,0.0,1,434.0,1
889,889,0.2891719241849221,0.3,0.0,0.0,368.0,780.0,0.0,1,442.0,1
890,890,-0.39426637350932703,-0.4,1.0,0.0,334.0,851.0,0.0,0,215.0,1
891,891,0.37031758920219715,0.4,1.0,1.0,435.0,985.0,1.0,1,-60.0,1
892,892,0.16708057590000258,0.2,1.0,1.0,256.0,841.0,1.0,1,113.0,1
893,893,-0.01825418375340837,-0.0,1.0,0.0,278.0,606.0,1.0,1,1896.0,0
894,894,0.5694962929554522,0.6,1.0,1.0,317.0,752.0,1.0,1,121.0,1
895,895,0.3761461528864337,0.4,0.0,0.0,408.0,511.0,0.0,1,361.0,1
896,896,-0.18462151084202094,-0.2,1.0,0.0,434.0,698.0,0.0,0,1238.0,1
897,897,0.23466354365361053,0.2,1.0,1.0,278.0,512.0,1.0,1,750.0,1
898,898,-0.0382916578837561,-0.0,1.0,0.0,340.0,579.0,1.0,1,1741.0,0
899,899,-0.04376833555485249,-0.0,1.0,0.0,437.0,504.0,0.0,0,929.0,1
900,900,-0.4659540664587527,-0.5,0.0,1.0,443.0,973.0,1.0,0,34.0,1
901,901,-0.593619579763142,-0.6,1.0,0.0,253.0,506.0,0.0,0,481.0,1
902,902,0.2177653020299758,0.2,0.0,0.0,486.0,874.0,0.0,1,600.0,1
903,903,-0.8535045553571826,-0.9,0.0,1.0,499.0,548.0,1.0,0,143.0,1
904,904,-0.4319068263119986,-0.4,0.0,1.0,387.0,927.0,1.0,0,156.0,1
905,905,0.43998385511795857,0.4,0.0,0.0,280.0,696.0,0.0,1,284.0,1
906,906,0.5497957320268446,0.5,0.0,0.0,440.0,701.0,0.0,1,399.0,1
907,907,-0.3583330585395388,-0.4,0.0,1.0,458.0,798.0,1.0,0,254.0,1
908,908,-0.029450887991968044,-0.0,1.0,0.0,347.0,808.0,1.0,1,465.0,0
909,909,-0.37035314793982776,-0.4,1.0,0.0,455.0,986.0,0.0,0,299.0,1
910,910,0.26930346778866376,0.3,0.0,0.0,292.0,909.0,0.0,1,449.0,1
911,911,0.28802232030385355,0.3,1.0,1.0,414.0,605.0,1.0,1,841.0,1
912,912,-0.8295097071129768,-0.8,1.0,0.0,447.0,571.0,0.0,0,142.0,1
913,913,-0.6763146051263552,-0.7,1.0,0.0,467.0,911.0,0.0,0,122.0,1
914,914,0.45031213474527576,0.5,0.0,0.0,332.0,737.0,0.0,1,241.0,1
915,915,0.14601359439737094,0.1,0.0,0.0,446.0,837.0,0.0,1,537.0,1
916,916,0.7095057356323696,0.7,0.0,0.0,311.0,554.0,0.0,1,295.0,1
917,917,-0.13317060900509303,-0.1,0.0,1.0,480.0,518.0,1.0,0,482.0,1
918,918,0.15498605963797474,0.2,0.0,0.0,441.0,668.0,0.0,1,881.0,1
919,919,-0.050017632959427405,-0.1,1.0,0.0,281.0,533.0,1.0,1,2186.0,0
920,920,-0.39855310554202183,-0.4,1.0,0.0,380.0,964.0,0.0,0,306.0,1
921,921,0.7721982841359382,0.8,0.0,0.0,428.0,627.0,0.0,1,235.0,1
922,922,-0.5843400792687178,-0.6,1.0,0.0,422.0,677.0,0.0,0,251.0,1
923,923,0.12831481757204133,0.1,1.0,1.0,334.0,680.0,1.0,1,616.0,1
924,924,-0.31940828373282903,-0.3,0.0,1.0,367.0,778.0,1.0,0,145.0,1
925,925,-0.5779471419062785,-0.6,0.0,1.0,437.0,580.0,1.0,0,193.0,1
926,926,-0.12142612516902906,-0.1,1.0,0.0,327.0,584.0,0.0,0,1609.0,1
927,927,0.17937208911534597,0.2,1.0,1.0,454.0,985.0,1.0,1,331.0,1
928,928,-0.5285938690307153,-0.5,0.0,1.0,398.0,546.0,1.0,0,246.0,1
929,929,-0.002338038890277283,-0.0,1.0,0.0,464.0,625.0,1.0,1,1911.0,0
930,930,-0.02050053526116058,-0.0,1.0,0.0,427.0,729.0,1.0,1,964.0,0
931,931,-0.25893932494495886,-0.3,0.0,1.0,448.0,932.0,1.0,0,480.0,1
932,932,0.35751994286813693,0.4,0.0,0.0,387.0,835.0,0.0,1,298.0,1
933,933,-0.1256863025874425,-0.1,1.0,0.0,250.0,539.0,0.0,0,831.0,1
934,934,0.664266087245687,0.7,0.0,0.0,386.0,611.0,0.0,1,253.0,1
935,935,-0.15283429969824947,-0.2,1.0,0.0,450.0,574.0,0.0,0,676.0,1
936,936,-0.11241336265076107,-0.1,0.0,1.0,265.0,975.0,1.0,0,130.0,1
937,937,-0.3789785956787999,-0.4,1.0,0.0,497.0,547.0,0.0,0,396.0,1
938,938,-0.8464028857713043,-0.8,0.0,1.0,275.0,837.0,1.0,0,188.0,1
939,939,0.5912500009524527,0.6,1.0,1.0,267.0,701.0,1.0,1,132.0,1
940,940,0.8342023383707745,0.8,0.0,0.0,499.0,958.0,0.0,1,103.0,1
941,941,-0.444811279000858,-0.4,1.0,0.0,252.0,747.0,0.0,0,211.0,1
942,942,-0.8831891780020461,-0.9,1.0,0.0,403.0,607.0,0.0,0,190.0,1
943,943,0.18017502565952548,0.2,1.0,1.0,454.0,634.0,1.0,1,112.0,1
944,944,-0.6433431334366206,-0.6,1.0,0.0,379.0,673.0,0.0,0,188.0,1
945,945,-0.17715256795996615,-0.2,0.0,1.0,351.0,682.0,1.0,0,347.0,1
946,946,-0.2813397206169004,-0.3,1.0,0.0,481.0,545.0,0.0,0,774.0,1
947,947,-0.6571842212207097,-0.7,0.0,1.0,299.0,619.0,1.0,0,142.0,1
948,948,0.2074498779052577,0.2,1.0,1.0,428.0,545.0,1.0,1,307.0,1
949,949,-0.8120497679100046,-0.8,0.0,1.0,275.0,618.0,1.0,0,57.0,1
950,950,-0.32902941062022084,-0.3,1.0,0.0,416.0,583.0,0.0,0,391.0,1
951,951,-0.7054832812307745,-0.7,0.0,1.0,429.0,857.0,1.0,0,164.0,1
952,952,0.8829591697853162,0.9,0.0,0.0,251.0,827.0,0.0,1,122.0,1
953,953,0.5087933094140643,0.5,0.0,0.0,261.0,781.0,0.0,1,268.0,1
954,954,-0.1442523381378059,-0.1,1.0,0.0,461.0,994.0,0.0,0,495.0,1
955,955,-0.4968224863042123,-0.5,0.0,1.0,489.0,841.0,1.0,0,160.0,1
956,956,-0.24163004213342498,-0.2,1.0,0.0,326.0,839.0,0.0,0,565.0,1
957,957,0.18676602302390843,0.2,1.0,1.0,349.0,944.0,1.0,1,47.0,1
958,958,0.004838619919910303,0.0,1.0,1.0,353.0,985.0,1.0,1,-88.0,1
959,959,-0.43423266684786177,-0.4,0.0,1.0,493.0,580.0,1.0,0,147.0,1
960,960,0.8299357521729508,0.8,1.0,1.0,328.0,594.0,1.0,1,208.0,1
961,961,0.1593873697914766,0.2,1.0,1.0,420.0,768.0,1.0,1,292.0,1
962,962,-0.5429451809366779,-0.5,1.0,0.0,298.0,683.0,0.0,0,329.0,1
963,963,0.8497236046364532,0.8,0.0,0.0,492.0,578.0,0.0,1,260.0,1
964,964,-0.8490205298134321,-0.8,1.0,0.0,364.0,967.0,0.0,0,119.0,1
965,965,-0.4014207273409642,-0.4,0.0,1.0,318.0,669.0,1.0,0,103.0,1
966,966,-0.8449432920247886,-0.8,1.0,0.0,321.0,791.0,0.0,0,148.0,1
967,967,-0.4211815549829992,-0.4,0.0,1.0,466.0,800.0,1.0,0,144.0,1
968,968,-0.05600955116084183,-0.1,1.0,0.0,484.0,690.0,1.0,1,696.0,0
969,969,0.14039622534961393,0.1,1.0,1.0,273.0,576.0,1.0,1,441.0,1
970,970,0.31215298054501195,0.3,0.0,0.0,346.0,917.0,0.0,1,457.0,1
971,971,0.2472321768225353,0.2,1.0,1.0,350.0,957.0,1.0,1,133.0,1
972,972,-0.24370157731846365,-0.2,1.0,0.0,273.0,726.0,0.0,0,411.0,1
973,973,0.8692354813517374,0.9,1.0,1.0,253.0,658.0,1.0,1,199.0,1
974,974,0.7854930686890341,0.8,1.0,1.0,383.0,773.0,1.0,1,144.0,1
975,975,0.4057093799595567,0.4,0.0,0.0,269.0,622.0,0.0,1,449.0,1
976,976,0.6608296190197719,0.7,1.0,1.0,364.0,769.0,1.0,1,157.0,1
977,977,0.4454704088783049,0.4,1.0,1.0,384.0,850.0,1.0,1,86.0,1
978,978,0.04717450951626467,0.0,1.0,1.0,480.0,725.0,1.0,1,415.0,1
979,979,0.3142323671463504,0.3,0.0,0.0,297.0,982.0,0.0,1,431.0,1
980,980,0.6848899377931276,0.7,1.0,1.0,307.0,578.0,1.0,1,165.0,1
981,981,-0.746113231738263,-0.7,1.0,0.0,409.0,665.0,0.0,0,166.0,1
982,982,0.24636243990384032,0.2,1.0,1.0,262.0,824.0,1.0,1,204.0,1
983,983,0.4272172868578622,0.4,1.0,1.0,321.0,664.0,1.0,1,155.0,1
984,984,0.7786861813064633,0.8,1.0,1.0,281.0,829.0,1.0,1,110.0,1
985,985,0.7413814940308859,0.7,1.0,1.0,440.0,525.0,1.0,1,45.0,1
986,986,-0.23646235016563388,-0.2,1.0,0.0,388.0,630.0,0.0,0,442.0,1
987,987,-0.19909682150865604,-0.2,1.0,0.0,391.0,833.0,0.0,0,1006.0,1
988,988,-0.7878258294509197,-0.8,1.0,0.0,492.0,997.0,0.0,0,101.0,1
989,989,0.026279105711881967,0.0,0.0,0.0,335.0,604.0,1.0,0,931.0,0
990,990,0.2793684891952467,0.3,0.0,0.0,357.0,718.0,0.0,1,445.0,1
991,991,-0.3430264453049985,-0.3,1.0,0.0,466.0,903.0,0.0,0,161.0,1
992,992,-0.6812471081551115,-0.7,1.0,0.0,281.0,933.0,0.0,0,246.0,1
993,993,0.4676430043735528,0.5,1.0,1.0,298.0,847.0,1.0,1,195.0,1
994,994,0.4079752908278914,0.4,0.0,0.0,409.0,604.0,0.0,1,267.0,1
995,995,-0.3895213090600742,-0.4,0.0,1.0,451.0,733.0,1.0,0,186.0,1
996,996,-0.7055439912205461,-0.7,0.0,1.0,351.0,685.0,1.0,0,214.0,1
997,997,0.03686389732226958,0.0,1.0,1.0,332.0,949.0,1.0,1,879.0,1
998,998,0.21875307007624178,0.2,1.0,1.0,349.0,581.0,1.0,1,520.0,1
999,999,-0.033649886348776636,-0.0,0.0,1.0,425.0,598.0,1.0,0,467.0,1
1000,1000,-0.649875814261591,-0.6,1.0,0.0,347.0,869.0,0.0,0,284.0,1
1001,1001,-0.5440690114745552,-0.5,0.0,1.0,350.0,659.0,1.0,0,151.0,1
1002,1002,-0.5056610791542087,-0.5,1.0,0.0,340.0,557.0,0.0,0,203.0,1
1003,1003,-0.046120752957884426,-0.0,0.0,1.0,377.0,624.0,1.0,0,789.0,1
1004,1004,0.2498710168996815,0.2,1.0,1.0,492.0,882.0,1.0,1,326.0,1
1005,1005,-0.46985199571245045,-0.5,1.0,0.0,300.0,535.0,0.0,0,305.0,1
1006,1006,-0.8930242136477824,-0.9,0.0,1.0,312.0,912.0,1.0,0,56.0,1
1007,1007,-0.2841482886570247,-0.3,1.0,0.0,356.0,509.0,0.0,0,265.0,1
1008,1008,0.5593219168535034,0.6,1.0,1.0,366.0,850.0,1.0,1,154.0,1
1009,1009,-0.39039823612432567,-0.4,1.0,0.0,471.0,569.0,0.0,0,580.0,1
1010,1010,-0.12265183581960204,-0.1,0.0,1.0,264.0,502.0,1.0,0,1274.0,1
1011,1011,-0.35390344834758125,-0.4,0.0,1.0,279.0,595.0,1.0,0,276.0,1
1012,1012,-0.3430089793030485,-0.3,1.0,0.0,316.0,548.0,0.0,0,366.0,1
1013,1013,-0.2403764774410847,-0.2,0.0,1.0,295.0,647.0,1.0,0,228.0,1
1014,1014,-0.5319985821191491,-0.5,0.0,1.0,284.0,986.0,1.0,0,60.0,1
1015,1015,-0.11813589976154026,-0.1,1.0,0.0,413.0,849.0,0.0,0,898.0,1
1016,1016,-0.26341175893157487,-0.3,1.0,0.0,283.0,733.0,0.0,0,404.0,1
1017,1017,0.19005113498867698,0.2,1.0,1.0,355.0,724.0,1.0,1,241.0,1
1018,1018,-0.4049009381832906,-0.4,1.0,0.0,315.0,668.0,0.0,0,307.0,1
1019,1019,-0.44869303633139596,-0.4,1.0,0.0,375.0,783.0,0.0,0,272.0,1
1020,1020,-0.6217168342878447,-0.6,1.0,0.0,304.0,856.0,0.0,0,190.0,1
1021,1021,-0.01854066110680186,-0.0,1.0,0.0,430.0,835.0,1.0,1,1735.0,0
1022,1022,0.31530902402849514,0.3,0.0,0.0,375.0,566.0,0.0,1,449.0,1
1023,1023,0.7735923480041579,0.8,0.0,0.0,389.0,788.0,0.0,1,123.0,1
1024,1024,0.3501263557191149,0.4,1.0,1.0,465.0,592.0,1.0,1,313.0,1
1025,1025,-0.5112649834775065,-0.5,0.0,1.0,288.0,632.0,1.0,0,140.0,1
1026,1026,-0.671182376368678,-0.7,0.0,1.0,289.0,797.0,1.0,0,114.0,1
1027,1027,0.38570525699623504,0.4,0.0,0.0,262.0,740.0,0.0,1,238.0,1
1028,1028,0.7881236865074562,0.8,1.0,1.0,279.0,847.0,1.0,1,64.0,1
1029,1029,0.1521061806762093,0.2,0.0,0.0,468.0,789.0,0.0,1,773.0,1
1030,1030,-0.29932111649658766,-0.3,0.0,1.0,362.0,834.0,1.0,0,154.0,1
1031,1031,0.045675740146109645,0.0,1.0,1.0,378.0,743.0,1.0,1,409.0,1
1032,1032,-0.7200570165230842,-0.7,1.0,0.0,394.0,740.0,0.0,0,166.0,1
1033,1033,0.10206919648340207,0.1,0.0,0.0,351.0,997.0,0.0,1,392.0,1
1034,1034,0.48210019653604863,0.5,0.0,0.0,271.0,810.0,0.0,1,189.0,1
1035,1035,0.23595040865826322,0.2,1.0,1.0,281.0,854.0,1.0,1,215.0,1
1036,1036,0.24138262902406826,0.2,1.0,1.0,431.0,691.0,1.0,1,408.0,1
1037,1037,-0.46167790610609055,-0.5,0.0,1.0,401.0,960.0,1.0,0,99.0,1
1038,1038,0.5668969910219998,0.6,1.0,1.0,262.0,770.0,1.0,1,148.0,1
1039,1039,-0.14689670568683844,-0.1,1.0,0.0,383.0,698.0,0.0,0,979.0,1
1040,1040,-0.6088831917883823,-0.6,1.0,0.0,434.0,601.0,0.0,0,315.0,1
1041,1041,-0.2794446286564357,-0.3,0.0,1.0,366.0,604.0,1.0,0,510.0,1
1042,1042,0.20303196992388484,0.2,0.0,0.0,443.0,605.0,0.0,1,512.0,1
1043,1043,0.13626693424733138,0.1,1.0,1.0,340.0,730.0,1.0,1,300.0,1
1044,1044,0.18158582431086823,0.2,1.0,1.0,263.0,887.0,1.0,1,440.0,1
1045,1045,0.748647515375033,0.7,1.0,1.0,414.0,609.0,1.0,1,207.0,1
1046,1046,0.07255670982603424,0.1,1.0,1.0,302.0,848.0,1.0,1,150.0,1
1047,1047,-0.4566142892528069,-0.5,1.0,0.0,393.0,779.0,0.0,0,208.0,1
1048,1048,-0.04791381079776302,-0.0,0.0,1.0,348.0,957.0,1.0,0,1095.0,1
1049,1049,0.6192961055506906,0.6,0.0,0.0,406.0,563.0,0.0,1,311.0,1
1050,1050,0.8729955526849126,0.9,0.0,0.0,451.0,606.0,0.0,1,323.0,1
1051,1051,0.005231390154530335,0.0,0.0,0.0,442.0,776.0,1.0,0,1782.0,0
1052,1052,0.3049980379659095,0.3,1.0,1.0,428.0,711.0,1.0,1,101.0,1
1053,1053,-0.3670679466166653,-0.4,1.0,0.0,286.0,949.0,0.0,0,125.0,1
1054,1054,0.5620672420677896,0.6,1.0,1.0,281.0,556.0,1.0,1,243.0,1
1055,1055,-0.5332926233730805,-0.5,1.0,0.0,361.0,585.0,0.0,0,474.0,1
1056,1056,-0.5805205812547375,-0.6,1.0,0.0,492.0,967.0,0.0,0,171.0,1
1057,1057,-0.2900439498485491,-0.3,1.0,0.0,433.0,819.0,0.0,0,298.0,1
1058,1058,-0.1812052786628363,-0.2,0.0,1.0,401.0,705.0,1.0,0,244.0,1
1059,1059,-0.8821551888813164,-0.9,1.0,0.0,261.0,590.0,0.0,0,299.0,1
1060,1060,-0.2575532951414773,-0.3,1.0,0.0,274.0,920.0,0.0,0,466.0,1
1061,1061,0.337149139115832,0.3,0.0,0.0,282.0,979.0,0.0,1,329.0,1
1062,1062,-0.29668856409474875,-0.3,1.0,0.0,309.0,994.0,0.0,0,267.0,1
1063,1063,-0.3651816312544922,-0.4,1.0,0.0,489.0,832.0,0.0,0,469.0,1
1064,1064,0.5503884783867029,0.6,0.0,0.0,329.0,704.0,0.0,1,157.0,1
1065,1065,0.020094780149466196,0.0,0.0,0.0,388.0,926.0,1.0,0,266.0,0
1066,1066,0.1816857423180699,0.2,0.0,0.0,479.0,783.0,0.0,1,348.0,1
1067,1067,0.03892004318640285,0.0,1.0,1.0,368.0,794.0,1.0,1,998.0,1
1068,1068,0.3161584336798239,0.3,1.0,1.0,253.0,690.0,1.0,1,157.0,1
1069,1069,0.26905940332867917,0.3,0.0,0.0,476.0,611.0,0.0,1,693.0,1
1070,1070,-0.13150008164333948,-0.1,1.0,0.0,492.0,884.0,1.0,1,124.0,0
1071,1071,0.42340868841934964,0.4,1.0,1.0,486.0,942.0,1.0,1,112.0,1
1072,1072,0.04576890851126714,0.0,1.0,1.0,399.0,873.0,1.0,1,1318.0,1
1073,1073,0.3075261850011094,0.3,1.0,1.0,472.0,600.0,1.0,1,228.0,1
1074,1074,0.03987136773667932,0.0,0.0,0.0,369.0,901.0,1.0,0,1730.0,0
1075,1075,-0.6491326537170354,-0.6,0.0,1.0,328.0,539.0,1.0,0,173.0,1
1076,1076,0.4322339443285773,0.4,1.0,1.0,409.0,511.0,1.0,1,360.0,1
1077,1077,0.5249582441794475,0.5,1.0,1.0,417.0,896.0,1.0,1,247.0,1
1078,1078,0.21791181981711982,0.2,1.0,1.0,349.0,983.0,1.0,1,398.0,1
1079,1079,-0.8077095782765937,-0.8,1.0,0.0,277.0,724.0,0.0,0,149.0,1
1080,1080,0.3557797703130853,0.4,1.0,1.0,459.0,789.0,1.0,1,212.0,1
1081,1081,0.7268519920597852,0.7,0.0,0.0,457.0,658.0,0.0,1,215.0,1
1082,1082,0.5703965028812773,0.6,1.0,1.0,468.0,692.0,1.0,1,200.0,1
1083,1083,0.4860871794386906,0.5,1.0,1.0,476.0,596.0,1.0,1,368.0,1
1084,1084,-0.5450587220638485,-0.5,0.0,1.0,480.0,892.0,1.0,0,188.0,1
1085,1085,-0.7561305066723198,-0.8,1.0,0.0,376.0,855.0,0.0,0,169.0,1
1086,1086,0.027756324396545184,0.0,1.0,1.0,295.0,966.0,1.0,1,199.0,1
1087,1087,-0.17675947724077523,-0.2,1.0,0.0,262.0,936.0,0.0,0,292.0,1
1088,1088,0.2827227771947981,0.3,0.0,0.0,305.0,980.0,0.0,1,555.0,1
1089,1089,-0.5751764117415377,-0.6,1.0,0.0,451.0,646.0,0.0,0,313.0,1
1090,1090,0.8045441269168166,0.8,1.0,1.0,312.0,698.0,1.0,1,140.0,1
1091,1091,-0.33603146175452636,-0.3,1.0,0.0,379.0,742.0,0.0,0,239.0,1
1092,1092,-0.8559496261900957,-0.9,1.0,0.0,401.0,588.0,0.0,0,281.0,1
1093,1093,0.5265884408712912,0.5,1.0,1.0,334.0,655.0,1.0,1,251.0,1
1094,1094,-0.21408182663300424,-0.2,0.0,1.0,383.0,756.0,1.0,0,141.0,1
1095,1095,0.8618693344276359,0.9,1.0,1.0,253.0,900.0,1.0,1,97.0,1
1096,1096,0.11388717640210888,0.1,0.0,0.0,456.0,946.0,0.0,1,538.0,1
1097,1097,-0.6607954080629854,-0.7,0.0,1.0,425.0,920.0,1.0,0,55.0,1
1098,1098,-0.307641492872752,-0.3,0.0,1.0,434.0,592.0,1.0,0,194.0,1
1099,1099,0.8048343680256379,0.8,1.0,1.0,377.0,658.0,1.0,1,145.0,1
1100,1100,0.25884844298710485,0.3,0.0,0.0,428.0,827.0,0.0,1,745.0,1
1101,1101,0.026189146925733264,0.0,1.0,1.0,473.0,662.0,1.0,1,1435.0,1
1102,1102,-0.4479614122876928,-0.4,0.0,1.0,492.0,766.0,1.0,0,162.0,1
1103,1103,0.5704712165213502,0.6,0.0,0.0,468.0,520.0,0.0,1,372.0,1
1104,1104,-0.7688117589756345,-0.8,1.0,0.0,419.0,896.0,0.0,0,95.0,1
1105,1105,0.38975143132361734,0.4,0.0,0.0,450.0,505.0,0.0,1,355.0,1
1106,1106,-0.4651950137958171,-0.5,1.0,0.0,485.0,532.0,0.0,0,573.0,1
1107,1107,-0.12102144499144696,-0.1,0.0,1.0,307.0,509.0,1.0,0,904.0,1
1108,1108,-0.31757790118644624,-0.3,0.0,1.0,434.0,909.0,1.0,0,147.0,1
1109,1109,-0.8556527590792545,-0.9,1.0,0.0,428.0,669.0,0.0,0,83.0,1
1110,1110,-0.49920910288614323,-0.5,1.0,0.0,470.0,616.0,0.0,0,254.0,1
1111,1111,0.6253024640173827,0.6,1.0,1.0,373.0,941.0,1.0,1,126.0,1
1112,1112,-0.1900650933786402,-0.2,0.0,1.0,379.0,537.0,1.0,0,454.0,1
1113,1113,0.8080563383566456,0.8,1.0,1.0,397.0,508.0,1.0,1,165.0,1
1114,1114,0.2620777359491858,0.3,1.0,1.0,278.0,585.0,1.0,1,547.0,1
1115,1115,-0.16971708064003155,-0.2,1.0,0.0,317.0,795.0,0.0,0,888.0,1
1116,1116,0.6465113532908039,0.6,0.0,0.0,440.0,728.0,0.0,1,182.0,1
1117,1117,0.7140097313093637,0.7,0.0,0.0,346.0,598.0,0.0,1,196.0,1
1118,1118,-0.7850002546330851,-0.8,0.0,1.0,351.0,533.0,1.0,0,66.0,1
1119,1119,0.3003830963210289,0.3,0.0,0.0,368.0,631.0,0.0,1,331.0,1
1120,1120,-0.3594169614872159,-0.4,1.0,0.0,450.0,910.0,0.0,0,360.0,1
1121,1121,0.20662693056460524,0.2,1.0,1.0,425.0,874.0,1.0,1,61.0,1
1122,1122,0.6482251716060597,0.6,0.0,0.0,266.0,548.0,0.0,1,366.0,1
1123,1123,0.16427381162927224,0.2,1.0,1.0,309.0,750.0,1.0,1,231.0,1
1124,1124,-0.6019114553800167,-0.6,0.0,1.0,419.0,521.0,1.0,0,110.0,1
1125,1125,0.8500389441011039,0.9,1.0,1.0,409.0,785.0,1.0,1,36.0,1
1126,1126,-0.5313215663767916,-0.5,0.0,1.0,458.0,634.0,1.0,0,288.0,1
1127,1127,0.20280676962264088,0.2,1.0,1.0,393.0,954.0,1.0,1,293.0,1
1128,1128,0.6593020097467371,0.7,0.0,0.0,448.0,559.0,0.0,1,323.0,1
1129,1129,-0.4500505777888095,-0.5,1.0,0.0,370.0,931.0,0.0,0,139.0,1
1130,1130,0.5503322141368597,0.6,1.0,1.0,310.0,519.0,1.0,1,411.0,1
1131,1131,-0.7846139033056994,-0.8,1.0,0.0,436.0,744.0,0.0,0,160.0,1
1132,1132,0.11231257267725236,0.1,0.0,0.0,286.0,690.0,0.0,1,1124.0,1
1133,1133,0.6256485786539882,0.6,1.0,1.0,274.0,644.0,1.0,1,142.0,1
1134,1134,-0.013494380665429295,-0.0,1.0,0.0,329.0,894.0,1.0,1,337.0,0
1135,1135,-0.3158958437643695,-0.3,1.0,0.0,284.0,992.0,0.0,0,254.0,1
1136,1136,0.12828331827316852,0.1,0.0,0.0,267.0,650.0,0.0,1,1133.0,1
1137,1137,0.8995246509495266,0.9,1.0,1.0,268.0,980.0,1.0,1,102.0,1
1138,1138,-0.10193990124153396,-0.1,1.0,0.0,396.0,988.0,0.0,0,986.0,1
1139,1139,0.6543776821951625,0.7,1.0,1.0,259.0,834.0,1.0,1,127.0,1
1140,1140,-0.1509920910515914,-0.2,0.0,1.0,268.0,938.0,1.0,0,64.0,1
1141,1141,0.6387917136800997,0.6,1.0,1.0,419.0,751.0,1.0,1,130.0,1
1142,1142,-0.8373535840630644,-0.8,0.0,1.0,318.0,638.0,1.0,0,164.0,1
1143,1143,0.14558404997652874,0.1,0.0,0.0,344.0,882.0,1.0,0,-96.0,0
1144,1144,-0.2855100739441869,-0.3,1.0,0.0,311.0,621.0,0.0,0,608.0,1
1145,1145,-0.8710968884903572,-0.9,1.0,0.0,314.0,848.0,0.0,0,178.0,1
1146,1146,-0.35792817643289543,-0.4,1.0,0.0,401.0,636.0,0.0,0,403.0,1
1147,1147,0.8124483555051313,0.8,1.0,1.0,443.0,596.0,1.0,1,281.0,1
1148,1148,-0.14514356160556607,-0.1,1.0,0.0,275.0,540.0,0.0,0,935.0,1
1149,1149,0.4796685349886588,0.5,0.0,0.0,434.0,608.0,0.0,1,288.0,1
1150,1150,0.5329423980179665,0.5,0.0,0.0,472.0,834.0,0.0,1,284.0,1
1151,1151,-0.3936383455679977,-0.4,0.0,1.0,424.0,715.0,1.0,0,181.0,1
1152,1152,0.4495515735687724,0.4,1.0,1.0,400.0,816.0,1.0,1,234.0,1
1153,1153,0.7271011039534013,0.7,0.0,0.0,344.0,503.0,0.0,1,433.0,1
1154,1154,-0.6168999201511389,-0.6,1.0,0.0,330.0,769.0,0.0,0,281.0,1
1155,1155,0.40163906285648066,0.4,0.0,0.0,395.0,779.0,0.0,1,206.0,1
1156,1156,-0.6353413389587281,-0.6,0.0,1.0,417.0,667.0,1.0,0,196.0,1
1157,1157,0.23239968184237958,0.2,0.0,0.0,498.0,978.0,0.0,1,274.0,1
1158,1158,0.3257245493683961,0.3,1.0,1.0,303.0,928.0,1.0,1,469.0,1
1159,1159,0.6059717016811305,0.6,1.0,1.0,378.0,702.0,1.0,1,110.0,1
1160,1160,-0.037846180862062484,-0.0,1.0,0.0,414.0,755.0,1.0,1,1831.0,0
1161,1161,-0.2604574673388279,-0.3,1.0,0.0,324.0,709.0,0.0,0,387.0,1
1162,1162,0.3304467047604355,0.3,1.0,1.0,469.0,701.0,1.0,1,260.0,1
1163,1163,-0.5622774272888713,-0.6,1.0,0.0,436.0,985.0,0.0,0,219.0,1
1164,1164,0.5467908631527582,0.5,1.0,1.0,392.0,668.0,1.0,1,210.0,1
1165,1165,-0.2237952528573378,-0.2,1.0,0.0,409.0,961.0,0.0,0,340.0,1
1166,1166,0.3658326668738595,0.4,0.0,0.0,430.0,821.0,0.0,1,349.0,1
1167,1167,0.3112888890943978,0.3,0.0,0.0,380.0,966.0,0.0,1,244.0,1
1168,1168,0.20473156691864702,0.2,1.0,1.0,348.0,545.0,1.0,1,377.0,1
1169,1169,-0.1173700834129765,-0.1,0.0,1.0,259.0,569.0,1.0,0,862.0,1
1170,1170,0.5736168392185556,0.6,1.0,1.0,319.0,879.0,1.0,1,92.0,1
1171,1171,0.4323218408248465,0.4,1.0,1.0,323.0,783.0,1.0,1,234.0,1
1172,1172,-0.8778106126977715,-0.9,1.0,0.0,429.0,762.0,0.0,0,169.0,1
1173,1173,0.12859606057429607,0.1,1.0,1.0,312.0,780.0,1.0,1,248.0,1
1174,1174,-0.09387808729678371,-0.1,1.0,0.0,386.0,927.0,0.0,0,727.0,1
1175,1175,-0.17337590358846255,-0.2,1.0,0.0,381.0,950.0,0.0,0,349.0,1
1176,1176,0.021499164757214473,0.0,1.0,1.0,377.0,736.0,1.0,1,1737.0,1
1177,1177,-0.8444229775434599,-0.8,1.0,0.0,335.0,950.0,0.0,0,115.0,1
1178,1178,0.37563382237414944,0.4,0.0,0.0,327.0,506.0,0.0,1,567.0,1
1179,1179,-0.786753262742428,-0.8,1.0,0.0,468.0,732.0,0.0,0,160.0,1
1180,1180,-0.32183648231443773,-0.3,1.0,0.0,360.0,886.0,0.0,0,674.0,1
1181,1181,0.1168736781908396,0.1,0.0,0.0,318.0,991.0,0.0,1,1321.0,1
1182,1182,0.813073812956329,0.8,1.0,1.0,479.0,859.0,1.0,1,72.0,1
1183,1183,0.48916483208405703,0.5,1.0,1.0,260.0,698.0,1.0,1,102.0,1
1184,1184,0.6465249086264137,0.6,1.0,1.0,322.0,894.0,1.0,1,104.0,1
1185,1185,0.15088823741086965,0.2,0.0,0.0,377.0,768.0,0.0,1,865.0,1
1186,1186,-0.6821829739833063,-0.7,1.0,0.0,355.0,857.0,0.0,0,308.0,1
1187,1187,-0.7044915976541409,-0.7,1.0,0.0,256.0,889.0,1.0,1,-65.0,0
1188,1188,0.30126185467397104,0.3,1.0,1.0,455.0,545.0,1.0,1,260.0,1
1189,1189,-0.2451128952117776,-0.2,1.0,0.0,372.0,653.0,0.0,0,495.0,1
1190,1190,0.7311531750030024,0.7,0.0,0.0,472.0,912.0,0.0,1,186.0,1
1191,1191,0.8141213377544666,0.8,0.0,0.0,292.0,819.0,0.0,1,139.0,1
1192,1192,-0.5021555805994824,-0.5,1.0,0.0,467.0,692.0,0.0,0,541.0,1
1193,1193,-0.7197030207579367,-0.7,1.0,0.0,487.0,632.0,0.0,0,241.0,1
1194,1194,-0.28499710068909423,-0.3,0.0,1.0,414.0,620.0,1.0,0,306.0,1
1195,1195,0.7327834081910357,0.7,1.0,1.0,304.0,625.0,1.0,1,221.0,1
1196,1196,0.7773830680706798,0.8,1.0,1.0,281.0,967.0,1.0,1,122.0,1
1197,1197,0.027290022813750592,0.0,0.0,0.0,377.0,688.0,0.0,1,1935.0,1
1198,1198,-0.19459448234803578,-0.2,0.0,1.0,460.0,843.0,1.0,0,147.0,1
1199,1199,-0.8238118665841931,-0.8,0.0,1.0,351.0,553.0,1.0,0,156.0,1
1200,1200,-0.8843202429936936,-0.9,1.0,0.0,385.0,773.0,0.0,0,172.0,1
1201,1201,0.15933079449207577,0.2,1.0,1.0,322.0,873.0,1.0,1,285.0,1
1202,1202,0.8411076720150411,0.8,1.0,1.0,278.0,958.0,1.0,1,114.0,1
1203,1203,-0.19591575485598678,-0.2,1.0,0.0,454.0,554.0,0.0,0,692.0,1
1204,1204,0.639517887189525,0.6,0.0,0.0,496.0,729.0,0.0,1,285.0,1
1205,1205,-0.09244373938262784,-0.1,0.0,1.0,363.0,545.0,1.0,0,952.0,1
1206,1206,-0.16931330775731934,-0.2,0.0,1.0,257.0,941.0,1.0,0,292.0,1
1207,1207,0.42584113237808896,0.4,1.0,1.0,474.0,802.0,1.0,1,134.0,1
1208,1208,0.3714406939197016,0.4,0.0,0.0,275.0,752.0,0.0,1,303.0,1
1209,1209,-0.48311612187501024,-0.5,1.0,0.0,489.0,873.0,0.0,0,388.0,1
1210,1210,-0.7067040510678574,-0.7,0.0,1.0,290.0,801.0,1.0,0,99.0,1
1211,1211,0.3223112242298706,0.3,0.0,0.0,271.0,742.0,0.0,1,507.0,1
1212,1212,-0.12829894273275222,-0.1,0.0,1.0,311.0,756.0,1.0,0,133.0,1
1213,1213,-0.003575982109484399,-0.0,1.0,0.0,284.0,582.0,1.0,1,164.0,0
1214,1214,-0.42298732929013727,-0.4,0.0,1.0,327.0,578.0,1.0,0,175.0,1
1215,1215,-0.31187469246542954,-0.3,0.0,1.0,282.0,559.0,1.0,0,239.0,1
1216,1216,-0.002628433510750483,-0.0,0.0,1.0,344.0,939.0,1.0,0,217.0,1
1217,1217,-0.7066318707749841,-0.7,1.0,0.0,280.0,551.0,0.0,0,149.0,1
1218,1218,-0.25775910737273533,-0.3,1.0,0.0,308.0,536.0,0.0,0,366.0,1
1219,1219,-0.8713787387947786,-0.9,0.0,1.0,406.0,742.0,1.0,0,162.0,1
1220,1220,-0.3424512522009979,-0.3,0.0,1.0,290.0,787.0,1.0,0,293.0,1
1221,1221,0.5048388573754786,0.5,1.0,1.0,345.0,907.0,1.0,1,158.0,1
1222,1222,-0.34544906677621323,-0.3,0.0,1.0,480.0,911.0,1.0,0,189.0,1
1223,1223,-0.140601905631334,-0.1,0.0,1.0,382.0,518.0,1.0,0,330.0,1
1224,1224,0.8763222617296814,0.9,0.0,0.0,365.0,739.0,0.0,1,186.0,1
1225,1225,-0.2710508716253578,-0.3,1.0,0.0,270.0,775.0,0.0,0,435.0,1
1226,1226,0.4445308754737175,0.4,1.0,1.0,348.0,954.0,1.0,1,-142.0,1
1227,1227,0.2809673383703176,0.3,1.0,1.0,257.0,894.0,1.0,1,199.0,1
1228,1228,0.011096074053883798,0.0,1.0,1.0,425.0,644.0,1.0,1,431.0,1
1229,1229,0.8091222133115313,0.8,0.0,0.0,435.0,960.0,0.0,1,135.0,1
1230,1230,-0.10180081065108093,-0.1,0.0,1.0,414.0,790.0,1.0,0,136.0,1
1231,1231,0.60505119664048,0.6,0.0,0.0,308.0,838.0,0.0,1,224.0,1
1232,1232,-0.5925742539232238,-0.6,1.0,0.0,361.0,924.0,0.0,0,175.0,1
1233,1233,-0.8940921229609009,-0.9,0.0,1.0,385.0,830.0,1.0,0,55.0,1
1234,1234,-0.34120692470275626,-0.3,1.0,0.0,479.0,617.0,0.0,0,794.0,1
1235,1235,0.7937266450322259,0.8,0.0,0.0,448.0,882.0,0.0,1,170.0,1
1236,1236,-0.6331316858069456,-0.6,1.0,0.0,250.0,637.0,0.0,0,243.0,1
1237,1237,0.21940246743612157,0.2,1.0,1.0,255.0,575.0,1.0,1,310.0,1
1238,1238,0.40646527811840605,0.4,0.0,0.0,297.0,623.0,0.0,1,690.0,1
1239,1239,0.616811885858907,0.6,1.0,1.0,378.0,869.0,1.0,1,63.0,1
1240,1240,0.5927839977914094,0.6,0.0,0.0,337.0,556.0,0.0,1,157.0,1
1241,1241,0.009981272278457243,0.0,0.0,0.0,426.0,671.0,1.0,0,933.0,0
1242,1242,-0.6510754368659809,-0.7,0.0,1.0,455.0,892.0,1.0,0,213.0,1
1243,1243,0.334769769197819,0.3,0.0,0.0,408.0,816.0,0.0,1,446.0,1
1244,1244,0.4553534714785651,0.5,0.0,0.0,446.0,910.0,0.0,1,184.0,1
1245,1245,0.5702731765702359,0.6,1.0,1.0,468.0,590.0,1.0,1,92.0,1
1246,1246,0.5295892073511371,0.5,1.0,1.0,437.0,758.0,1.0,1,215.0,1
1247,1247,-0.32170465779162216,-0.3,1.0,0.0,375.0,726.0,0.0,0,429.0,1
1248,1248,0.058448186828114035,0.1,0.0,0.0,258.0,647.0,1.0,0,745.0,0
1249,1249,-0.1512165648522238,-0.2,1.0,0.0,392.0,655.0,0.0,0,403.0,1
1250,1250,0.5010999728552831,0.5,1.0,1.0,319.0,548.0,1.0,1,253.0,1
1251,1251,-0.8133941097771116,-0.8,0.0,1.0,478.0,957.0,1.0,0,95.0,1
1252,1252,0.8466588899629394,0.8,1.0,1.0,406.0,589.0,1.0,1,205.0,1
1253,1253,0.24335963099330649,0.2,0.0,0.0,309.0,525.0,0.0,1,526.0,1
1254,1254,0.1004698218120611,0.1,1.0,1.0,471.0,938.0,1.0,1,431.0,1
1255,1255,0.5098669130969499,0.5,0.0,0.0,299.0,816.0,0.0,1,255.0,1
1256,1256,-0.30817025935830356,-0.3,0.0,1.0,499.0,739.0,1.0,0,282.0,1
1257,1257,0.5276482898678722,0.5,1.0,1.0,462.0,726.0,1.0,1,182.0,1
1258,1258,-0.4223123088287962,-0.4,0.0,1.0,286.0,726.0,1.0,0,208.0,1
1259,1259,-0.6176034622806073,-0.6,0.0,1.0,419.0,567.0,1.0,0,364.0,1
1260,1260,-0.5747990857250782,-0.6,0.0,1.0,304.0,815.0,1.0,0,151.0,1
1261,1261,0.4475093187932996,0.4,1.0,1.0,314.0,777.0,1.0,1,149.0,1
1262,1262,0.43458678685294305,0.4,1.0,1.0,404.0,577.0,1.0,1,229.0,1
1263,1263,-0.6864964440744554,-0.7,0.0,1.0,308.0,846.0,1.0,0,76.0,1
1264,1264,0.44426564817855196,0.4,0.0,0.0,438.0,680.0,0.0,1,272.0,1
1265,1265,0.1581096637507523,0.2,0.0,0.0,336.0,745.0,0.0,1,559.0,1
1266,1266,-0.6679071339064753,-0.7,1.0,0.0,324.0,500.0,0.0,0,336.0,1
1267,1267,-0.4895334866137387,-0.5,0.0,1.0,391.0,881.0,1.0,0,168.0,1
1268,1268,-0.8640467482588554,-0.9,0.0,1.0,354.0,985.0,1.0,0,61.0,1
1269,1269,-0.7220599125220117,-0.7,1.0,0.0,435.0,856.0,0.0,0,219.0,1
1270,1270,-0.14078462997808772,-0.1,0.0,1.0,375.0,993.0,1.0,0,272.0,1
1271,1271,0.4994546722071599,0.5,0.0,0.0,458.0,726.0,0.0,1,336.0,1
1272,1272,-0.8661200869936024,-0.9,0.0,1.0,343.0,724.0,1.0,0,113.0,1
1273,1273,-0.45730665385413294,-0.5,1.0,0.0,385.0,771.0,0.0,0,364.0,1
1274,1274,0.06115574296028947,0.1,0.0,0.0,259.0,574.0,1.0,0,1247.0,0
1275,1275,-0.34932264341344044,-0.3,1.0,0.0,491.0,875.0,0.0,0,354.0,1
1276,1276,-0.5619570811699168,-0.6,1.0,0.0,478.0,673.0,0.0,0,199.0,1
1277,1277,-0.39812156962583134,-0.4,1.0,0.0,494.0,644.0,0.0,0,292.0,1
1278,1278,0.18197077986151056,0.2,0.0,0.0,388.0,650.0,0.0,1,1532.0,1
1279,1279,0.07362980306794664,0.1,0.0,0.0,312.0,597.0,0.0,1,2091.0,1
1280,1280,-0.5921737906297029,-0.6,0.0,1.0,438.0,740.0,1.0,0,122.0,1
1281,1281,0.4089569557699607,0.4,0.0,0.0,497.0,589.0,0.0,1,434.0,1
1282,1282,-0.6376307646055867,-0.6,1.0,0.0,449.0,505.0,0.0,0,306.0,1
1283,1283,-0.3373771818795698,-0.3,0.0,1.0,302.0,992.0,1.0,0,146.0,1
1284,1284,0.5086030660101045,0.5,0.0,0.0,336.0,833.0,0.0,1,341.0,1
1285,1285,0.05332612254271141,0.1,1.0,1.0,358.0,818.0,1.0,1,784.0,1
1286,1286,0.5629753179072897,0.6,1.0,1.0,276.0,979.0,1.0,1,185.0,1
1287,1287,-0.6603563995324623,-0.7,1.0,0.0,283.0,756.0,0.0,0,141.0,1
1288,1288,0.33894677032179776,0.3,0.0,0.0,263.0,994.0,1.0,0,73.0,0
1289,1289,0.8557256498296447,0.9,0.0,0.0,323.0,624.0,0.0,1,313.0,1
1290,1290,-0.10564300562268858,-0.1,0.0,1.0,262.0,517.0,1.0,0,1781.0,1
1291,1291,-0.21435146288584284,-0.2,1.0,0.0,462.0,813.0,0.0,0,285.0,1
1292,1292,-0.39397484252460613,-0.4,0.0,1.0,390.0,834.0,1.0,0,146.0,1
1293,1293,0.3751178766800717,0.4,0.0,0.0,498.0,888.0,0.0,1,414.0,1
1294,1294,-0.09462912675447654,-0.1,1.0,0.0,413.0,521.0,0.0,0,1106.0,1
1295,1295,-0.8823433498889559,-0.9,0.0,1.0,353.0,811.0,1.0,0,156.0,1
1296,1296,-0.08087411423055246,-0.1,0.0,1.0,385.0,671.0,1.0,0,484.0,1
1297,1297,0.31978018091295646,0.3,0.0,0.0,342.0,657.0,0.0,1,501.0,1
1298,1298,0.554485861519766,0.6,1.0,1.0,286.0,900.0,1.0,1,54.0,1
1299,1299,0.6475964855296877,0.6,1.0,1.0,465.0,803.0,1.0,1,162.0,1
1300,1300,0.14149616804429221,0.1,1.0,1.0,418.0,842.0,1.0,1,160.0,1
1301,1301,0.5368243198045534,0.5,0.0,0.0,270.0,856.0,0.0,1,184.0,1
1302,1302,0.8606208235686451,0.9,0.0,0.0,444.0,694.0,0.0,1,172.0,1
1303,1303,0.3237524486782809,0.3,1.0,1.0,495.0,807.0,1.0,1,178.0,1
1304,1304,-0.12952577662323916,-0.1,1.0,0.0,487.0,715.0,0.0,0,478.0,1
1305,1305,0.2886651371262198,0.3,0.0,0.0,366.0,687.0,0.0,1,577.0,1
1306,1306,0.1091979746832833,0.1,1.0,1.0,495.0,993.0,1.0,1,342.0,1
1307,1307,-0.6298814486283253,-0.6,1.0,0.0,420.0,712.0,0.0,0,218.0,1
1308,1308,0.8837337058725329,0.9,0.0,0.0,360.0,773.0,0.0,1,117.0,1
1309,1309,0.7223603364964325,0.7,0.0,0.0,274.0,957.0,0.0,1,179.0,1
1310,1310,-0.36272810779418874,-0.4,0.0,1.0,321.0,583.0,1.0,0,206.0,1
1311,1311,0.22805980536039294,0.2,1.0,1.0,383.0,968.0,1.0,1,569.0,1
1312,1312,-0.8391231701604472,-0.8,0.0,1.0,444.0,972.0,1.0,0,24.0,1
1313,1313,-0.8375488439128893,-0.8,1.0,0.0,462.0,792.0,0.0,0,196.0,1
1314,1314,-0.8879654122798302,-0.9,1.0,0.0,383.0,538.0,0.0,0,389.0,1
1315,1315,-0.3543000905898678,-0.4,1.0,0.0,278.0,937.0,0.0,0,325.0,1
1316,1316,0.26600231643434935,0.3,0.0,0.0,479.0,863.0,0.0,1,158.0,1
1317,1317,0.767971226496707,0.8,1.0,1.0,348.0,696.0,1.0,1,76.0,1
1318,1318,0.5530675313390992,0.6,1.0,1.0,478.0,926.0,1.0,1,146.0,1
1319,1319,-0.41831040085345644,-0.4,0.0,1.0,414.0,737.0,1.0,0,269.0,1
1320,1320,-0.05122748551800127,-0.1,0.0,1.0,324.0,766.0,1.0,0,600.0,1
1321,1321,0.11575197061678144,0.1,0.0,0.0,286.0,644.0,0.0,1,2070.0,1
1322,1322,0.5883689179217356,0.6,1.0,1.0,411.0,690.0,1.0,1,49.0,1
1323,1323,-0.2714609582631401,-0.3,1.0,0.0,261.0,902.0,0.0,0,237.0,1
1324,1324,-0.5152523500676052,-0.5,0.0,1.0,391.0,949.0,1.0,0,30.0,1
1325,1325,-0.2955786882686362,-0.3,1.0,0.0,463.0,883.0,0.0,0,594.0,1
1326,1326,0.09919840318979378,0.1,0.0,0.0,253.0,918.0,1.0,0,-71.0,0
1327,1327,-0.6986995233616522,-0.7,1.0,0.0,433.0,500.0,0.0,0,237.0,1
1328,1328,0.6803150608215885,0.7,0.0,0.0,489.0,878.0,0.0,1,193.0,1
1329,1329,0.09392873029630844,0.1,0.0,0.0,412.0,760.0,0.0,1,1828.0,1
1330,1330,0.831534332254107,0.8,0.0,0.0,364.0,718.0,0.0,1,168.0,1
1331,1331,0.398813437490268,0.4,1.0,1.0,485.0,874.0,1.0,1,81.0,1
1332,1332,-0.353392729676819,-0.4,1.0,0.0,389.0,581.0,0.0,0,410.0,1
1333,1333,0.6513365825210727,0.7,1.0,1.0,255.0,530.0,1.0,1,95.0,1
1334,1334,0.7186960257018687,0.7,1.0,1.0,388.0,958.0,1.0,1,164.0,1
1335,1335,-0.38594686250053867,-0.4,1.0,0.0,438.0,718.0,0.0,0,354.0,1
1336,1336,-0.5473925383796174,-0.5,0.0,1.0,354.0,619.0,1.0,0,397.0,1
1337,1337,-0.25569266757226505,-0.3,0.0,1.0,250.0,752.0,1.0,0,98.0,1
1338,1338,-0.23544250143554213,-0.2,1.0,0.0,313.0,717.0,0.0,0,530.0,1
1339,1339,0.7061338380582781,0.7,1.0,1.0,411.0,670.0,1.0,1,189.0,1
1340,1340,0.5168909828951024,0.5,0.0,0.0,361.0,594.0,0.0,1,225.0,1
1341,1341,-0.3113286238228865,-0.3,0.0,1.0,403.0,956.0,1.0,0,181.0,1
1342,1342,-0.46845041355219785,-0.5,0.0,1.0,394.0,755.0,1.0,0,241.0,1
1343,1343,0.4554145024416255,0.5,0.0,0.0,308.0,863.0,0.0,1,99.0,1
1344,1344,-0.48232722885025753,-0.5,1.0,0.0,452.0,655.0,0.0,0,283.0,1
1345,1345,0.78344104168563,0.8,0.0,0.0,472.0,680.0,0.0,1,298.0,1
1346,1346,0.13101546034091427,0.1,0.0,0.0,365.0,951.0,0.0,1,374.0,1
1347,1347,-0.18399591348551703,-0.2,1.0,0.0,315.0,934.0,0.0,0,611.0,1
1348,1348,0.17372722916235006,0.2,1.0,1.0,357.0,527.0,1.0,1,706.0,1
1349,1349,-0.7570989816759046,-0.8,0.0,1.0,379.0,816.0,1.0,0,95.0,1
1350,1350,-0.29831355742260757,-0.3,1.0,0.0,251.0,732.0,0.0,0,357.0,1
1351,1351,0.18141809327116165,0.2,0.0,0.0,466.0,832.0,0.0,1,682.0,1
1352,1352,0.09862805415947551,0.1,1.0,1.0,473.0,722.0,1.0,1,265.0,1
1353,1353,0.3088797894887795,0.3,0.0,0.0,432.0,581.0,0.0,1,567.0,1
1354,1354,-0.34625354680012776,-0.3,0.0,1.0,469.0,816.0,1.0,0,255.0,1
1355,1355,0.5092313077363838,0.5,0.0,0.0,389.0,607.0,0.0,1,254.0,1
1356,1356,0.02514736556426289,0.0,0.0,0.0,394.0,513.0,1.0,0,483.0,0
1357,1357,-0.11847090671924865,-0.1,0.0,1.0,362.0,855.0,1.0,0,503.0,1
1358,1358,-0.3010933537182504,-0.3,1.0,0.0,406.0,554.0,0.0,0,450.0,1
1359,1359,-0.0540404980960042,-0.1,1.0,0.0,315.0,556.0,0.0,0,2129.0,1
1360,1360,-0.8195550414260082,-0.8,0.0,1.0,300.0,593.0,1.0,0,167.0,1
1361,1361,0.40218098875798824,0.4,0.0,0.0,387.0,669.0,0.0,1,204.0,1
1362,1362,-0.342684346765893,-0.3,1.0,0.0,274.0,615.0,0.0,0,241.0,1
1363,1363,-0.07126581547754718,-0.1,1.0,0.0,311.0,510.0,0.0,0,2179.0,1
1364,1364,-0.8732201052175469,-0.9,1.0,0.0,385.0,875.0,0.0,0,170.0,1
1365,1365,-0.8455821001628396,-0.8,0.0,1.0,299.0,902.0,1.0,0,49.0,1
1366,1366,-0.01868732302125431,-0.0,1.0,0.0,368.0,716.0,1.0,1,246.0,0
1367,1367,0.8827846423735987,0.9,0.0,0.0,285.0,580.0,0.0,1,175.0,1
1368,1368,-0.5238932630496949,-0.5,0.0,1.0,486.0,948.0,1.0,0,116.0,1
1369,1369,-0.7485210139113647,-0.7,0.0,1.0,457.0,852.0,1.0,0,51.0,1
1370,1370,0.6793445779928876,0.7,0.0,0.0,457.0,570.0,0.0,1,243.0,1
1371,1371,0.8878879739782769,0.9,0.0,0.0,297.0,939.0,0.0,1,114.0,1
1372,1372,0.6273811011689997,0.6,1.0,1.0,265.0,535.0,1.0,1,260.0,1
1373,1373,-0.7278467226137422,-0.7,1.0,0.0,297.0,850.0,0.0,0,153.0,1
1374,1374,-0.6984083774723868,-0.7,1.0,0.0,323.0,963.0,1.0,1,-176.0,0
1375,1375,0.5719128622659772,0.6,0.0,0.0,285.0,920.0,0.0,1,75.0,1
1376,1376,0.4792043304083592,0.5,1.0,1.0,307.0,685.0,1.0,1,118.0,1
1377,1377,-0.8203078681112328,-0.8,1.0,0.0,331.0,756.0,0.0,0,123.0,1
1378,1378,-0.7396822354859635,-0.7,1.0,0.0,451.0,912.0,0.0,0,187.0,1
1379,1379,0.8127179218477979,0.8,1.0,1.0,413.0,558.0,1.0,1,359.0,1
1380,1380,0.5353188417123503,0.5,1.0,1.0,425.0,648.0,1.0,1,137.0,1
1381,1381,0.01972583418270424,0.0,0.0,0.0,399.0,838.0,1.0,0,633.0,0
1382,1382,0.8062174398444254,0.8,1.0,1.0,283.0,775.0,1.0,1,112.0,1
1383,1383,0.3414447827562407,0.3,0.0,0.0,480.0,942.0,0.0,1,538.0,1
1384,1384,-0.05552997997906539,-0.1,1.0,0.0,468.0,896.0,0.0,0,1636.0,1
1385,1385,-0.10816131375648519,-0.1,0.0,1.0,463.0,907.0,1.0,0,250.0,1
1386,1386,-0.4545037509489042,-0.5,0.0,1.0,465.0,943.0,1.0,0,132.0,1
1387,1387,-0.3716742128225172,-0.4,1.0,0.0,360.0,972.0,0.0,0,128.0,1
1388,1388,0.7690359434633646,0.8,1.0,1.0,395.0,994.0,1.0,1,61.0,1
1389,1389,-0.7029232252352222,-0.7,0.0,1.0,338.0,698.0,1.0,0,194.0,1
1390,1390,-0.6417766191484693,-0.6,1.0,0.0,448.0,621.0,0.0,0,331.0,1
1391,1391,0.8271485091144576,0.8,0.0,0.0,426.0,525.0,0.0,1,149.0,1
1392,1392,0.659427065371008,0.7,0.0,0.0,298.0,596.0,0.0,1,206.0,1
1393,1393,-0.35580854104319104,-0.4,1.0,0.0,452.0,756.0,0.0,0,322.0,1
1394,1394,-0.6102413014130612,-0.6,1.0,0.0,482.0,854.0,0.0,0,254.0,1
1395,1395,-0.7080519324764823,-0.7,1.0,0.0,344.0,821.0,0.0,0,185.0,1
1396,1396,-0.7200180098598867,-0.7,0.0,1.0,488.0,715.0,1.0,0,127.0,1
1397,1397,-0.7386626987602904,-0.7,1.0,0.0,352.0,620.0,0.0,0,128.0,1
1398,1398,-0.05927525389284338,-0.1,0.0,1.0,271.0,777.0,1.0,0,452.0,1
1399,1399,-0.34925740159430185,-0.3,0.0,1.0,432.0,731.0,1.0,0,147.0,1
1400,1400,-0.4117760146819391,-0.4,1.0,0.0,250.0,842.0,0.0,0,308.0,1
1401,1401,-0.7593312344590649,-0.8,0.0,1.0,380.0,809.0,1.0,0,81.0,1
1402,1402,0.23771559144863408,0.2,1.0,1.0,401.0,620.0,1.0,1,169.0,1
1403,1403,-0.13993881074179182,-0.1,0.0,1.0,303.0,694.0,1.0,0,503.0,1
1404,1404,0.515547835469197,0.5,1.0,1.0,419.0,570.0,1.0,1,391.0,1
1405,1405,0.5856309263559042,0.6,0.0,0.0,420.0,979.0,0.0,1,281.0,1
1406,1406,-0.4632075480963213,-0.5,1.0,0.0,271.0,572.0,0.0,0,307.0,1
1407,1407,0.8020739113444207,0.8,0.0,0.0,261.0,798.0,0.0,1,231.0,1
1408,1408,-0.09561024067256552,-0.1,0.0,1.0,339.0,566.0,1.0,0,845.0,1
1409,1409,0.007106776169017226,0.0,1.0,1.0,287.0,837.0,1.0,1,1876.0,1
1410,1410,0.4388011538180524,0.4,0.0,0.0,348.0,679.0,0.0,1,333.0,1
1411,1411,-0.18045348386347004,-0.2,0.0,1.0,305.0,647.0,1.0,0,1158.0,1
1412,1412,0.6233279525427112,0.6,0.0,0.0,464.0,817.0,0.0,1,249.0,1
1413,1413,-0.4109937957288157,-0.4,1.0,0.0,495.0,814.0,0.0,0,311.0,1
1414,1414,-0.8631231793822369,-0.9,0.0,1.0,300.0,747.0,1.0,0,183.0,1
1415,1415,-0.3711830896889351,-0.4,1.0,0.0,484.0,789.0,0.0,0,307.0,1
1416,1416,-0.41639321913146765,-0.4,1.0,0.0,487.0,976.0,0.0,0,197.0,1
1417,1417,0.008430330621598592,0.0,0.0,0.0,315.0,868.0,1.0,0,417.0,0
1418,1418,0.3437857266258756,0.3,0.0,0.0,390.0,659.0,0.0,1,341.0,1
1419,1419,-0.25540362625494084,-0.3,1.0,0.0,324.0,666.0,0.0,0,550.0,1
1420,1420,0.6798150968329734,0.7,0.0,0.0,342.0,505.0,0.0,1,233.0,1
1421,1421,0.07527686538632616,0.1,1.0,1.0,323.0,570.0,1.0,1,317.0,1
1422,1422,-0.6471632406744781,-0.6,1.0,0.0,417.0,678.0,0.0,0,365.0,1
1423,1423,0.6521773461783406,0.7,0.0,0.0,337.0,958.0,0.0,1,335.0,1
1424,1424,-0.3967959111525118,-0.4,1.0,0.0,472.0,923.0,0.0,0,245.0,1
1425,1425,0.8857508312526342,0.9,1.0,1.0,304.0,802.0,1.0,1,74.0,1
1426,1426,-0.19691282906651608,-0.2,1.0,0.0,304.0,838.0,0.0,0,548.0,1
1427,1427,0.14815548824075442,0.1,0.0,0.0,457.0,864.0,0.0,1,1589.0,1
1428,1428,-0.029450381792496705,-0.0,0.0,1.0,473.0,754.0,1.0,0,1773.0,1
1429,1429,-0.8420542624512276,-0.8,0.0,1.0,251.0,555.0,1.0,0,154.0,1
1430,1430,0.8293028847592497,0.8,0.0,0.0,463.0,771.0,0.0,1,266.0,1
1431,1431,0.1873751366154145,0.2,1.0,1.0,493.0,872.0,1.0,1,225.0,1
1432,1432,0.5713319965562463,0.6,1.0,1.0,370.0,838.0,1.0,1,132.0,1
1433,1433,0.0737063139498716,0.1,0.0,0.0,360.0,616.0,0.0,1,2024.0,1
1434,1434,0.46037702815586645,0.5,0.0,0.0,467.0,668.0,0.0,1,215.0,1
1435,1435,0.8343000190187134,0.8,0.0,0.0,481.0,505.0,0.0,1,514.0,1
1436,1436,-0.0999854704558113,-0.1,1.0,0.0,484.0,798.0,0.0,0,448.0,1
1437,1437,-0.25738857153552863,-0.3,0.0,1.0,374.0,902.0,1.0,0,94.0,1
1438,1438,0.17247859575460545,0.2,1.0,1.0,406.0,676.0,1.0,1,298.0,1
1439,1439,0.684354939699782,0.7,1.0,1.0,410.0,658.0,1.0,1,112.0,1
1440,1440,-0.6224342182206921,-0.6,0.0,1.0,321.0,776.0,1.0,0,313.0,1
1441,1441,-0.8576272691214172,-0.9,1.0,0.0,355.0,839.0,0.0,0,236.0,1
1442,1442,-0.7385536815747408,-0.7,0.0,1.0,277.0,892.0,1.0,0,61.0,1
1443,1443,-0.5721591976869036,-0.6,1.0,0.0,497.0,898.0,0.0,0,175.0,1
1444,1444,0.7329897584540047,0.7,0.0,0.0,298.0,891.0,0.0,1,121.0,1
1445,1445,0.6325931823494947,0.6,1.0,1.0,427.0,747.0,1.0,1,146.0,1
1446,1446,-0.4270798119095669,-0.4,0.0,1.0,332.0,911.0,1.0,0,507.0,1
1447,1447,-0.17386386814327837,-0.2,1.0,0.0,431.0,572.0,0.0,0,667.0,1
1448,1448,-0.6730026313718004,-0.7,0.0,1.0,482.0,770.0,1.0,0,158.0,1
1449,1449,0.31451098352459195,0.3,0.0,0.0,271.0,759.0,0.0,1,400.0,1
1450,1450,0.0440776142239373,0.0,0.0,0.0,470.0,554.0,0.0,1,1296.0,1
1451,1451,-0.7370921849918489,-0.7,0.0,1.0,284.0,829.0,1.0,0,77.0,1
1452,1452,-0.13980549873619574,-0.1,1.0,0.0,445.0,563.0,0.0,0,1012.0,1
1453,1453,-0.3179039830674344,-0.3,0.0,1.0,440.0,904.0,1.0,0,146.0,1
1454,1454,-0.025066698530261,-0.0,1.0,0.0,393.0,816.0,1.0,1,1791.0,0
1455,1455,-0.12184315353078579,-0.1,0.0,1.0,420.0,573.0,1.0,0,237.0,1
1456,1456,0.7168290615206035,0.7,0.0,0.0,483.0,585.0,0.0,1,392.0,1
1457,1457,-0.6331929272985009,-0.6,1.0,0.0,394.0,611.0,0.0,0,205.0,1
1458,1458,-0.3026661154858905,-0.3,0.0,1.0,446.0,733.0,1.0,0,81.0,1
1459,1459,0.2792483164792309,0.3,1.0,1.0,436.0,867.0,1.0,1,187.0,1
1460,1460,0.21956531403761248,0.2,1.0,1.0,488.0,604.0,1.0,1,338.0,1
1461,1461,-0.7032877787338773,-0.7,0.0,1.0,312.0,561.0,1.0,0,227.0,1
1462,1462,-0.5313038944403765,-0.5,1.0,0.0,414.0,985.0,0.0,0,211.0,1
1463,1463,-0.24831573791515948,-0.2,0.0,1.0,346.0,863.0,1.0,0,231.0,1
1464,1464,0.6356622659730161,0.6,1.0,1.0,401.0,579.0,1.0,1,180.0,1
1465,1465,-0.8276286668284069,-0.8,1.0,0.0,264.0,837.0,0.0,0,159.0,1
1466,1466,0.5657955563513083,0.6,0.0,0.0,325.0,740.0,0.0,1,285.0,1
1467,1467,0.06553231783975078,0.1,0.0,0.0,354.0,957.0,1.0,0,-1.0,0
1468,1468,-0.6597125119674702,-0.7,0.0,1.0,382.0,835.0,1.0,0,43.0,1
1469,1469,0.2374422135083315,0.2,1.0,1.0,423.0,688.0,1.0,1,139.0,1
1470,1470,-0.7091662616436784,-0.7,1.0,0.0,436.0,692.0,0.0,0,202.0,1
1471,1471,-0.39364713410944707,-0.4,0.0,1.0,263.0,771.0,1.0,0,166.0,1
1472,1472,-0.46414843698250596,-0.5,1.0,0.0,317.0,531.0,0.0,0,232.0,1
1473,1473,-0.39419533511995886,-0.4,1.0,0.0,255.0,950.0,1.0,1,-25.0,0
1474,1474,-0.06794234306947411,-0.1,1.0,0.0,474.0,619.0,1.0,1,1907.0,0
1475,1475,-0.1412301614782825,-0.1,0.0,1.0,264.0,515.0,1.0,0,291.0,1
1476,1476,0.04577061677486227,0.0,1.0,1.0,346.0,765.0,1.0,1,1889.0,1
1477,1477,0.5163436005409604,0.5,1.0,1.0,433.0,826.0,1.0,1,161.0,1
1478,1478,-0.10056345345438422,-0.1,0.0,1.0,452.0,812.0,1.0,0,246.0,1
1479,1479,0.3444948961812203,0.3,1.0,1.0,372.0,816.0,1.0,1,212.0,1
1480,1480,-0.6690498626940218,-0.7,0.0,1.0,363.0,845.0,1.0,0,72.0,1
1481,1481,0.2892660740912628,0.3,0.0,0.0,411.0,956.0,1.0,0,-237.0,0
1482,1482,0.5856259150854185,0.6,0.0,0.0,351.0,876.0,0.0,1,233.0,1
1483,1483,-0.7526509116798208,-0.8,0.0,1.0,331.0,760.0,1.0,0,159.0,1
1484,1484,-0.8394278296185873,-0.8,0.0,1.0,345.0,570.0,1.0,0,225.0,1
1485,1485,-0.6770512816101623,-0.7,1.0,0.0,424.0,973.0,0.0,0,163.0,1
1486,1486,0.8000188631087185,0.8,1.0,1.0,498.0,959.0,1.0,1,53.0,1
1487,1487,0.40569252336462835,0.4,0.0,0.0,403.0,603.0,0.0,1,304.0,1
1488,1488,0.46582103950910925,0.5,0.0,0.0,413.0,742.0,0.0,1,305.0,1
1489,1489,0.6503837972587877,0.7,0.0,0.0,267.0,960.0,0.0,1,113.0,1
1490,1490,0.5443751965712919,0.5,0.0,0.0,421.0,696.0,0.0,1,373.0,1
1491,1491,-0.10825390951132241,-0.1,0.0,1.0,322.0,947.0,1.0,0,231.0,1
1492,1492,0.6115969865392626,0.6,0.0,0.0,376.0,866.0,0.0,1,218.0,1
