,trial,coherence,coherence_bin,green_side,correct_side,target_onset,checker_onset,decision,green_decision,decision_time,correct_decision
0,0,0.6083600546534113,0.6,1.0,1.0,356.0,897.0,1.0,1,157.0,1
1,1,-0.006637535022672059,-0.0,0.0,1.0,304.0,792.0,0.0,1,1904.0,0
2,2,0.4504074782721318,0.5,1.0,1.0,469.0,978.0,1.0,1,53.0,1
3,3,0.707698938391503,0.7,0.0,0.0,303.0,857.0,0.0,1,210.0,1
4,4,0.3695059736136147,0.4,0.0,0.0,360.0,882.0,0.0,1,218.0,1
5,5,-0.269839437123221,-0.3,0.0,1.0,380.0,978.0,1.0,0,262.0,1
6,6,0.7926990536492416,0.8,0.0,0.0,257.0,761.0,0.0,1,182.0,1
7,7,-0.6178993337639199,-0.6,0.0,1.0,347.0,811.0,1.0,0,302.0,1
8,8,0.5530811806153536,0.6,0.0,0.0,405.0,607.0,0.0,1,198.0,1
9,9,0.17269701873854493,0.2,1.0,1.0,254.0,991.0,1.0,1,1135.0,1
10,10,0.4339184194364508,0.4,1.0,1.0,331.0,771.0,1.0,1,448.0,1
11,11,0.4269429185872883,0.4,0.0,0.0,368.0,983.0,0.0,1,199.0,1
12,12,-0.3588755095493624,-0.4,1.0,0.0,288.0,998.0,0.0,0,704.0,1
13,13,-0.3944131016455643,-0.4,0.0,1.0,294.0,931.0,1.0,0,55.0,1
14,14,-0.010117566030969805,-0.0,1.0,0.0,407.0,543.0,0.0,0,1160.0,1
15,15,0.24383018351213182,0.2,0.0,0.0,368.0,795.0,0.0,1,347.0,1
16,16,0.19232298984978835,0.2,1.0,1.0,391.0,831.0,1.0,1,1698.0,1
17,17,0.04090716541315942,0.0,1.0,1.0,451.0,771.0,0.0,0,808.0,0
18,18,-0.5632816774630502,-0.6,0.0,1.0,395.0,995.0,1.0,0,280.0,1
19,19,0.6057919922371396,0.6,0.0,0.0,251.0,817.0,0.0,1,322.0,1
20,20,0.26908649830592235,0.3,0.0,0.0,259.0,836.0,0.0,1,345.0,1
21,21,-0.6082451704038565,-0.6,0.0,1.0,465.0,680.0,1.0,0,385.0,1
22,22,0.6197354270526633,0.6,1.0,1.0,330.0,586.0,1.0,1,224.0,1
23,23,0.3310549193413169,0.3,1.0,1.0,318.0,964.0,1.0,1,538.0,1
24,24,0.7952566360777947,0.8,0.0,0.0,451.0,607.0,0.0,1,162.0,1
25,25,-0.2222059699287542,-0.2,1.0,0.0,470.0,726.0,0.0,0,874.0,1
26,26,-0.5955850908807723,-0.6,1.0,0.0,353.0,867.0,0.0,0,410.0,1
27,27,0.3938558500062227,0.4,0.0,0.0,440.0,895.0,0.0,1,455.0,1
28,28,-0.5651860615048805,-0.6,1.0,0.0,340.0,885.0,0.0,0,235.0,1
29,29,-0.26680364476571294,-0.3,1.0,0.0,318.0,853.0,0.0,0,459.0,1
30,30,-0.7535030085267016,-0.8,1.0,0.0,353.0,826.0,0.0,0,301.0,1
31,31,0.8963678330725543,0.9,0.0,0.0,413.0,610.0,0.0,1,307.0,1
32,32,-0.8121492630574136,-0.8,0.0,1.0,331.0,691.0,1.0,0,98.0,1
33,33,-0.16758254931528704,-0.2,0.0,1.0,348.0,512.0,1.0,0,910.0,1
34,34,0.6617424361539271,0.7,0.0,0.0,467.0,774.0,0.0,1,249.0,1
35,35,0.7469544675486003,0.7,0.0,0.0,253.0,920.0,0.0,1,257.0,1
36,36,-0.7291187291198985,-0.7,1.0,0.0,464.0,834.0,0.0,0,162.0,1
37,37,0.054091741910829216,0.1,0.0,0.0,381.0,736.0,0.0,1,1883.0,1
38,38,-0.7048099804366499,-0.7,0.0,1.0,295.0,694.0,1.0,0,51.0,1
39,39,0.26064814674710013,0.3,1.0,1.0,372.0,987.0,1.0,1,511.0,1
40,40,0.19383973601145,0.2,1.0,1.0,465.0,928.0,1.0,1,757.0,1
41,41,0.6584330558266388,0.7,0.0,0.0,408.0,711.0,0.0,1,111.0,1
42,42,0.7694694244858628,0.8,1.0,1.0,370.0,621.0,1.0,1,259.0,1
43,43,0.8618859265454076,0.9,0.0,0.0,277.0,920.0,0.0,1,103.0,1
44,44,0.8662659406738916,0.9,0.0,0.0,450.0,821.0,0.0,1,229.0,1
45,45,-0.7571135362031249,-0.8,1.0,0.0,275.0,566.0,0.0,0,379.0,1
46,46,-0.6565297022095982,-0.7,0.0,1.0,292.0,872.0,1.0,0,216.0,1
47,47,-0.7617276585986912,-0.8,1.0,0.0,256.0,978.0,0.0,0,166.0,1
48,48,0.19813323485043222,0.2,0.0,0.0,449.0,763.0,0.0,1,968.0,1
49,49,-0.5701652049147516,-0.6,1.0,0.0,346.0,925.0,0.0,0,209.0,1
50,50,0.8087362747684316,0.8,1.0,1.0,412.0,525.0,1.0,1,293.0,1
51,51,0.876266281215701,0.9,0.0,0.0,341.0,883.0,0.0,1,246.0,1
52,52,-0.46631484093880976,-0.5,1.0,0.0,265.0,832.0,0.0,0,313.0,1
53,53,-0.32831163416497866,-0.3,0.0,1.0,310.0,860.0,1.0,0,70.0,1
54,54,-0.5285494776831154,-0.5,0.0,1.0,478.0,523.0,1.0,0,199.0,1
55,55,0.3701275020721456,0.4,0.0,0.0,470.0,522.0,0.0,1,568.0,1
56,56,-0.7723713316627601,-0.8,1.0,0.0,363.0,655.0,0.0,0,62.0,1
57,57,0.2121451624036409,0.2,0.0,0.0,431.0,800.0,0.0,1,339.0,1
58,58,0.42419524490789706,0.4,1.0,1.0,307.0,961.0,1.0,1,452.0,1
59,59,-0.6553301580815535,-0.7,0.0,1.0,314.0,756.0,1.0,0,340.0,1
60,60,0.29288123930900734,0.3,1.0,1.0,264.0,670.0,1.0,1,886.0,1
61,61,0.29923994720127134,0.3,1.0,1.0,497.0,593.0,1.0,1,500.0,1
62,62,-0.2790135077645839,-0.3,1.0,0.0,352.0,716.0,0.0,0,442.0,1
63,63,-0.3368493562576439,-0.3,0.0,1.0,260.0,816.0,1.0,0,154.0,1
64,64,0.17315685783246082,0.2,1.0,1.0,303.0,567.0,1.0,1,970.0,1
65,65,0.708100548364491,0.7,0.0,0.0,464.0,700.0,0.0,1,196.0,1
66,66,-0.8740684226224464,-0.9,1.0,0.0,476.0,844.0,0.0,0,430.0,1
67,67,0.2047377717912563,0.2,0.0,0.0,474.0,643.0,0.0,1,83.0,1
68,68,-0.06222157181895349,-0.1,0.0,1.0,268.0,880.0,0.0,1,1852.0,0
69,69,0.555938499415125,0.6,1.0,1.0,362.0,889.0,1.0,1,329.0,1
70,70,0.1343830558136273,0.1,1.0,1.0,282.0,991.0,1.0,1,297.0,1
71,71,0.7481975283746228,0.7,1.0,1.0,435.0,992.0,1.0,1,123.0,1
72,72,0.507575888490274,0.5,1.0,1.0,444.0,808.0,1.0,1,128.0,1
73,73,-0.4729020507999566,-0.5,0.0,1.0,421.0,651.0,1.0,0,118.0,1
74,74,0.8122132660775804,0.8,0.0,0.0,446.0,695.0,0.0,1,169.0,1
75,75,0.04587342277882256,0.0,0.0,0.0,380.0,882.0,0.0,1,1738.0,1
76,76,0.35140538464120585,0.4,1.0,1.0,410.0,798.0,1.0,1,402.0,1
77,77,0.49832199592084836,0.5,1.0,1.0,375.0,696.0,1.0,1,249.0,1
78,78,0.3380336125477795,0.3,0.0,0.0,317.0,679.0,0.0,1,494.0,1
79,79,0.25800471618968646,0.3,1.0,1.0,494.0,898.0,1.0,1,678.0,1
80,80,0.6307643317537558,0.6,0.0,0.0,405.0,646.0,0.0,1,209.0,1
81,81,-0.5208726728983959,-0.5,1.0,0.0,453.0,896.0,0.0,0,351.0,1
82,82,-0.3400951894461458,-0.3,1.0,0.0,468.0,732.0,0.0,0,540.0,1
83,83,0.7845760290199858,0.8,1.0,1.0,481.0,957.0,1.0,1,192.0,1
84,84,0.27733061057385255,0.3,0.0,0.0,261.0,781.0,0.0,1,418.0,1
85,85,-0.22622463294628925,-0.2,0.0,1.0,269.0,814.0,1.0,0,237.0,1
86,86,0.5424426554463072,0.5,0.0,0.0,356.0,784.0,0.0,1,350.0,1
87,87,-0.5200603789063285,-0.5,1.0,0.0,355.0,838.0,0.0,0,257.0,1
88,88,0.7319244009273115,0.7,1.0,1.0,475.0,873.0,1.0,1,142.0,1
89,89,-0.09686529086480378,-0.1,1.0,0.0,262.0,687.0,0.0,0,2051.0,1
90,90,-0.2070535926302166,-0.2,0.0,1.0,393.0,886.0,1.0,0,321.0,1
91,91,-0.4646542834897204,-0.5,1.0,0.0,376.0,621.0,0.0,0,423.0,1
92,92,-0.4691168504250827,-0.5,0.0,1.0,287.0,753.0,1.0,0,570.0,1
93,93,-0.1036940916982163,-0.1,1.0,0.0,467.0,952.0,0.0,0,-69.0,1
94,94,0.45298780008645034,0.5,1.0,1.0,477.0,626.0,1.0,1,287.0,1
95,95,-0.32966404471044697,-0.3,0.0,1.0,250.0,879.0,1.0,0,601.0,1
96,96,0.8831950484654388,0.9,0.0,0.0,451.0,733.0,0.0,1,216.0,1
97,97,0.3443881476995164,0.3,0.0,0.0,340.0,694.0,0.0,1,526.0,1
98,98,-0.8320785408240501,-0.8,1.0,0.0,434.0,693.0,0.0,0,203.0,1
99,99,0.6779684520399792,0.7,0.0,0.0,465.0,731.0,0.0,1,264.0,1
100,100,0.8297559802894346,0.8,0.0,0.0,409.0,546.0,0.0,1,295.0,1
101,101,0.712670167751169,0.7,0.0,0.0,423.0,604.0,0.0,1,283.0,1
102,102,-0.04047631895138526,-0.0,1.0,0.0,424.0,839.0,0.0,0,307.0,1
103,103,-0.7326419287320431,-0.7,1.0,0.0,347.0,917.0,0.0,0,176.0,1
104,104,-0.2665016585599872,-0.3,1.0,0.0,379.0,528.0,0.0,0,423.0,1
105,105,0.7188642679453586,0.7,0.0,0.0,441.0,665.0,0.0,1,134.0,1
106,106,0.7669635750707736,0.8,1.0,1.0,372.0,803.0,1.0,1,265.0,1
107,107,0.3568461406575917,0.4,0.0,0.0,369.0,966.0,0.0,1,475.0,1
108,108,0.08630670530339113,0.1,1.0,1.0,423.0,639.0,1.0,1,1938.0,1
109,109,-0.09029742580175792,-0.1,1.0,0.0,322.0,709.0,0.0,0,1129.0,1
110,110,0.7856533678919725,0.8,0.0,0.0,306.0,582.0,0.0,1,172.0,1
111,111,0.13084378500393556,0.1,0.0,0.0,284.0,789.0,0.0,1,377.0,1
112,112,0.5717538660394711,0.6,1.0,1.0,499.0,711.0,1.0,1,410.0,1
113,113,0.8500345686048095,0.9,0.0,0.0,388.0,637.0,0.0,1,345.0,1
114,114,-0.15449627511567643,-0.2,1.0,0.0,287.0,840.0,0.0,0,143.0,1
115,115,0.6308868456391982,0.6,1.0,1.0,486.0,913.0,1.0,1,331.0,1
116,116,0.7458395327143806,0.7,0.0,0.0,335.0,629.0,0.0,1,136.0,1
117,117,0.32248933279296177,0.3,1.0,1.0,373.0,751.0,1.0,1,636.0,1
118,118,0.44207019157239846,0.4,1.0,1.0,403.0,938.0,1.0,1,229.0,1
119,119,0.09019099347507131,0.1,0.0,0.0,441.0,850.0,0.0,1,1429.0,1
120,120,-0.42770807439932274,-0.4,1.0,0.0,268.0,648.0,0.0,0,374.0,1
121,121,-0.2099378757440893,-0.2,0.0,1.0,339.0,655.0,1.0,0,536.0,1
122,122,-0.15460574619803957,-0.2,1.0,0.0,475.0,709.0,0.0,0,1026.0,1
123,123,-0.707311579567848,-0.7,0.0,1.0,428.0,893.0,1.0,0,179.0,1
124,124,-0.4182545654692291,-0.4,0.0,1.0,298.0,952.0,1.0,0,350.0,1
125,125,-0.3546348521387761,-0.4,0.0,1.0,288.0,906.0,1.0,0,616.0,1
126,126,0.6252393208601023,0.6,1.0,1.0,349.0,506.0,1.0,1,135.0,1
127,127,0.7897669721645121,0.8,0.0,0.0,389.0,906.0,0.0,1,275.0,1
128,128,0.3960066623291473,0.4,0.0,0.0,367.0,700.0,0.0,1,303.0,1
129,129,0.28077942740493456,0.3,1.0,1.0,270.0,915.0,1.0,1,615.0,1
130,130,-0.08906887226252236,-0.1,0.0,1.0,382.0,774.0,1.0,0,464.0,1
131,131,-0.44248822833729146,-0.4,1.0,0.0,387.0,911.0,0.0,0,242.0,1
132,132,-0.817553961562884,-0.8,0.0,1.0,499.0,644.0,1.0,0,77.0,1
133,133,0.8828507531743656,0.9,0.0,0.0,405.0,696.0,0.0,1,99.0,1
134,134,0.13054533648324795,0.1,0.0,0.0,487.0,549.0,0.0,1,1924.0,1
135,135,-0.3001285697313305,-0.3,0.0,1.0,375.0,694.0,1.0,0,281.0,1
136,136,0.5755397584466747,0.6,0.0,0.0,348.0,995.0,1.0,0,-73.0,0
137,137,-0.8345888989254882,-0.8,1.0,0.0,403.0,739.0,0.0,0,238.0,1
138,138,0.4989281858681077,0.5,1.0,1.0,267.0,709.0,1.0,1,364.0,1
139,139,-0.20610376358469096,-0.2,1.0,0.0,495.0,512.0,0.0,0,543.0,1
140,140,0.7913591158589396,0.8,0.0,0.0,481.0,627.0,0.0,1,402.0,1
141,141,-0.04148827060221749,-0.0,1.0,0.0,315.0,647.0,0.0,0,2038.0,1
142,142,0.4880080486305992,0.5,1.0,1.0,286.0,813.0,1.0,1,351.0,1
143,143,0.8681563329846737,0.9,0.0,0.0,470.0,778.0,0.0,1,222.0,1
144,144,0.6900785016062755,0.7,0.0,0.0,379.0,885.0,0.0,1,246.0,1
145,145,-0.0560004559215197,-0.1,1.0,0.0,255.0,792.0,0.0,0,883.0,1
146,146,-0.20288568923782724,-0.2,0.0,1.0,256.0,746.0,1.0,0,588.0,1
147,147,-0.3684701368087544,-0.4,0.0,1.0,491.0,565.0,1.0,0,224.0,1
148,148,-0.33027479832050477,-0.3,0.0,1.0,319.0,728.0,1.0,0,803.0,1
149,149,-0.08674702452811833,-0.1,1.0,0.0,354.0,942.0,0.0,0,1704.0,1
150,150,-0.6740740750700779,-0.7,1.0,0.0,255.0,715.0,0.0,0,230.0,1
151,151,-0.21620366694794857,-0.2,1.0,0.0,464.0,666.0,0.0,0,790.0,1
152,152,0.1784601069127486,0.2,0.0,0.0,290.0,737.0,0.0,1,453.0,1
153,153,0.5973031122069034,0.6,1.0,1.0,469.0,829.0,0.0,0,-208.0,0
154,154,0.5124585005090491,0.5,1.0,1.0,484.0,673.0,1.0,1,83.0,1
155,155,0.04735475620446428,0.0,0.0,0.0,347.0,600.0,1.0,0,2053.0,0
156,156,0.14088059715023704,0.1,0.0,0.0,357.0,501.0,0.0,1,682.0,1
157,157,-0.3726026487089301,-0.4,1.0,0.0,342.0,819.0,0.0,0,399.0,1
158,158,0.6957718551136377,0.7,0.0,0.0,289.0,758.0,0.0,1,323.0,1
159,159,-0.19542667225616062,-0.2,1.0,0.0,318.0,722.0,0.0,0,1050.0,1
160,160,0.5489688812305163,0.5,1.0,1.0,345.0,866.0,0.0,0,-31.0,0
161,161,0.5787276966004004,0.6,1.0,1.0,296.0,537.0,1.0,1,317.0,1
162,162,-0.1886894970401688,-0.2,0.0,1.0,436.0,875.0,1.0,0,839.0,1
163,163,-0.5741726053161318,-0.6,0.0,1.0,376.0,504.0,1.0,0,340.0,1
164,164,0.8389651018497254,0.8,0.0,0.0,270.0,769.0,0.0,1,221.0,1
165,165,0.170627184841596,0.2,1.0,1.0,259.0,990.0,1.0,1,831.0,1
166,166,0.8360070263254594,0.8,0.0,0.0,472.0,792.0,0.0,1,326.0,1
167,167,0.00961904533641933,0.0,0.0,0.0,406.0,804.0,1.0,0,-60.0,0
168,168,0.16101687066173798,0.2,0.0,0.0,312.0,763.0,0.0,1,425.0,1
169,169,-0.8989378833824508,-0.9,0.0,1.0,358.0,838.0,1.0,0,204.0,1
170,170,-0.044383887516915355,-0.0,0.0,1.0,395.0,738.0,1.0,0,1867.0,1
171,171,-0.39480852052053983,-0.4,1.0,0.0,261.0,530.0,0.0,0,519.0,1
172,172,-0.10056541791981766,-0.1,0.0,1.0,439.0,867.0,1.0,0,1694.0,1
173,173,-0.28396741611464893,-0.3,0.0,1.0,378.0,983.0,0.0,1,69.0,0
174,174,-0.09601481363980269,-0.1,1.0,0.0,385.0,703.0,0.0,0,1532.0,1
175,175,-0.3431501734568382,-0.3,0.0,1.0,437.0,856.0,1.0,0,67.0,1
176,176,-0.8730055278060599,-0.9,0.0,1.0,274.0,668.0,1.0,0,148.0,1
177,177,0.3643448087847313,0.4,1.0,1.0,319.0,582.0,1.0,1,239.0,1
178,178,0.6427156910968402,0.6,0.0,0.0,474.0,797.0,0.0,1,119.0,1
179,179,0.1934305228620231,0.2,1.0,1.0,371.0,876.0,1.0,1,803.0,1
180,180,-0.41434407054040734,-0.4,1.0,0.0,333.0,761.0,0.0,0,536.0,1
181,181,0.8323883389421524,0.8,1.0,1.0,317.0,582.0,1.0,1,91.0,1
182,182,0.6804310568214754,0.7,1.0,1.0,271.0,617.0,1.0,1,282.0,1
183,183,0.583705134601589,0.6,1.0,1.0,475.0,935.0,1.0,1,340.0,1
184,184,0.20561741344966233,0.2,1.0,1.0,352.0,722.0,1.0,1,1146.0,1
185,185,-0.5103999854504881,-0.5,1.0,0.0,475.0,581.0,0.0,0,314.0,1
186,186,-0.18178286310668634,-0.2,1.0,0.0,286.0,980.0,0.0,0,344.0,1
187,187,-0.570585471571234,-0.6,0.0,1.0,338.0,736.0,1.0,0,96.0,1
188,188,0.8356635568439245,0.8,1.0,1.0,338.0,668.0,1.0,1,164.0,1
189,189,-0.23561290100180554,-0.2,1.0,0.0,478.0,747.0,0.0,0,495.0,1
190,190,0.30337480991118915,0.3,0.0,0.0,304.0,929.0,0.0,1,177.0,1
191,191,0.05254106357484345,0.1,1.0,1.0,338.0,516.0,1.0,1,2146.0,1
192,192,-0.2598366679513444,-0.3,0.0,1.0,298.0,971.0,1.0,0,621.0,1
193,193,0.8219453382943159,0.8,1.0,1.0,350.0,734.0,1.0,1,136.0,1
194,194,-0.6626357322375799,-0.7,1.0,0.0,284.0,539.0,0.0,0,367.0,1
195,195,-0.4543037343621723,-0.5,1.0,0.0,371.0,872.0,0.0,0,947.0,1
196,196,-0.07713709044913397,-0.1,1.0,0.0,331.0,570.0,0.0,0,2099.0,1
197,197,-0.10063878319207364,-0.1,0.0,1.0,483.0,714.0,1.0,0,663.0,1
198,198,-0.20684313446722147,-0.2,0.0,1.0,369.0,537.0,1.0,0,754.0,1
199,199,0.7434476691078372,0.7,0.0,0.0,477.0,675.0,0.0,1,398.0,1
200,200,0.4122771051688606,0.4,1.0,1.0,328.0,734.0,1.0,1,208.0,1
201,201,0.10999842911542224,0.1,0.0,0.0,256.0,813.0,0.0,1,931.0,1
202,202,0.2815204331039801,0.3,1.0,1.0,414.0,643.0,1.0,1,333.0,1
203,203,-0.02237358029606451,-0.0,1.0,0.0,356.0,617.0,0.0,0,957.0,1
204,204,-0.501732489210015,-0.5,0.0,1.0,487.0,562.0,1.0,0,391.0,1
205,205,-0.7148288024225096,-0.7,0.0,1.0,260.0,863.0,1.0,0,127.0,1
206,206,-0.770443632646495,-0.8,0.0,1.0,488.0,845.0,1.0,0,217.0,1
207,207,0.2576655772453974,0.3,1.0,1.0,387.0,721.0,1.0,1,892.0,1
208,208,-0.6263068353976982,-0.6,1.0,0.0,374.0,899.0,0.0,0,387.0,1
209,209,-0.48168208868323686,-0.5,0.0,1.0,308.0,999.0,1.0,0,453.0,1
210,210,0.2706076001056671,0.3,0.0,0.0,330.0,647.0,0.0,1,353.0,1
211,211,-0.6363490025333781,-0.6,0.0,1.0,266.0,635.0,1.0,0,159.0,1
212,212,-0.32932618430722804,-0.3,1.0,0.0,366.0,908.0,0.0,0,886.0,1
213,213,0.3278367720485208,0.3,1.0,1.0,487.0,950.0,1.0,1,673.0,1
214,214,0.7375479428432868,0.7,0.0,0.0,305.0,894.0,0.0,1,271.0,1
215,215,0.1363261567327031,0.1,0.0,0.0,434.0,981.0,0.0,1,915.0,1
216,216,-0.6117781434915219,-0.6,0.0,1.0,409.0,795.0,1.0,0,266.0,1
217,217,-0.307226428843956,-0.3,1.0,0.0,475.0,730.0,0.0,0,275.0,1
218,218,0.8087713964941671,0.8,1.0,1.0,294.0,533.0,1.0,1,283.0,1
219,219,0.8369063502902975,0.8,0.0,0.0,448.0,784.0,0.0,1,228.0,1
220,220,0.0037960700626303856,0.0,0.0,0.0,449.0,784.0,0.0,1,1767.0,1
221,221,-0.06808272389857262,-0.1,1.0,0.0,309.0,884.0,0.0,0,697.0,1
222,222,0.4322485015879559,0.4,1.0,1.0,355.0,820.0,1.0,1,565.0,1
223,223,0.031028635504089963,0.0,0.0,0.0,461.0,640.0,0.0,1,1899.0,1
224,224,-0.6377420264112879,-0.6,1.0,0.0,415.0,608.0,0.0,0,397.0,1
225,225,0.06571375112893085,0.1,1.0,1.0,335.0,698.0,0.0,0,1967.0,0
226,226,0.16698418417720273,0.2,1.0,1.0,258.0,691.0,1.0,1,491.0,1
227,227,-0.649934251672605,-0.6,1.0,0.0,282.0,805.0,0.0,0,193.0,1
228,228,-0.7276806522898618,-0.7,0.0,1.0,497.0,958.0,1.0,0,245.0,1
229,229,-0.31116270537162705,-0.3,0.0,1.0,280.0,515.0,1.0,0,425.0,1
230,230,0.506638580322614,0.5,0.0,0.0,445.0,772.0,0.0,1,173.0,1
231,231,0.0738020346568351,0.1,0.0,0.0,300.0,757.0,0.0,1,1483.0,1
232,232,0.5373987483958794,0.5,1.0,1.0,337.0,680.0,1.0,1,283.0,1
233,233,0.8886987750525687,0.9,1.0,1.0,344.0,545.0,1.0,1,411.0,1
234,234,0.8764979527650546,0.9,1.0,1.0,326.0,962.0,1.0,1,142.0,1
235,235,-0.6348777676868369,-0.6,0.0,1.0,481.0,846.0,1.0,0,313.0,1
236,236,0.4132467039029476,0.4,0.0,0.0,413.0,787.0,0.0,1,360.0,1
237,237,0.2057029278261725,0.2,1.0,1.0,320.0,887.0,1.0,1,753.0,1
238,238,-0.02430376522453903,-0.0,0.0,1.0,344.0,731.0,1.0,0,1925.0,1
239,239,0.06661271994957474,0.1,0.0,0.0,279.0,828.0,0.0,1,423.0,1
240,240,-0.7967152600729396,-0.8,0.0,1.0,293.0,785.0,1.0,0,232.0,1
241,241,0.6747425955994134,0.7,1.0,1.0,489.0,764.0,1.0,1,237.0,1
242,242,0.29942702693215917,0.3,0.0,0.0,356.0,907.0,0.0,1,507.0,1
243,243,-0.27578239782836456,-0.3,0.0,1.0,499.0,983.0,1.0,0,368.0,1
244,244,0.3138264012268134,0.3,0.0,0.0,268.0,783.0,0.0,1,289.0,1
245,245,-0.15897432063114436,-0.2,1.0,0.0,381.0,593.0,0.0,0,2026.0,1
246,246,-0.7993607577550909,-0.8,0.0,1.0,354.0,750.0,1.0,0,136.0,1
247,247,0.4433235982407121,0.4,1.0,1.0,445.0,670.0,1.0,1,685.0,1
248,248,-0.2830389784714358,-0.3,1.0,0.0,404.0,880.0,0.0,0,566.0,1
249,249,-0.6360700863536384,-0.6,0.0,1.0,491.0,968.0,1.0,0,281.0,1
250,250,-0.6132723840672185,-0.6,1.0,0.0,361.0,898.0,0.0,0,321.0,1
251,251,0.12183231492134106,0.1,0.0,0.0,253.0,592.0,0.0,1,895.0,1
252,252,-0.6128783491987089,-0.6,0.0,1.0,332.0,703.0,1.0,0,245.0,1
253,253,-0.6748852726726228,-0.7,0.0,1.0,363.0,886.0,1.0,0,111.0,1
254,254,-0.2699083532104497,-0.3,1.0,0.0,431.0,741.0,0.0,0,218.0,1
255,255,-0.6977700348429501,-0.7,0.0,1.0,254.0,985.0,1.0,0,161.0,1
256,256,-0.835283666131532,-0.8,1.0,0.0,452.0,762.0,0.0,0,246.0,1
257,257,0.8932197092491138,0.9,0.0,0.0,335.0,635.0,0.0,1,60.0,1
258,258,0.5623489379606655,0.6,1.0,1.0,414.0,915.0,1.0,1,211.0,1
259,259,0.5533063818334544,0.6,0.0,0.0,404.0,941.0,0.0,1,-175.0,1
260,260,-0.29988742639618415,-0.3,0.0,1.0,454.0,758.0,1.0,0,258.0,1
261,261,-0.546244374412745,-0.5,1.0,0.0,330.0,666.0,0.0,0,484.0,1
262,262,-0.8794533640316563,-0.9,1.0,0.0,452.0,521.0,0.0,0,137.0,1
263,263,0.7919821933657077,0.8,1.0,1.0,482.0,718.0,1.0,1,90.0,1
264,264,0.40044867383183813,0.4,0.0,0.0,333.0,704.0,0.0,1,793.0,1
265,265,0.6659223648713596,0.7,0.0,0.0,431.0,755.0,0.0,1,334.0,1
266,266,0.5928796843129528,0.6,1.0,1.0,319.0,696.0,1.0,1,145.0,1
267,267,0.5011154379158062,0.5,1.0,1.0,409.0,730.0,1.0,1,351.0,1
268,268,0.6596297854534446,0.7,1.0,1.0,277.0,885.0,1.0,1,108.0,1
269,269,-0.5885077269830692,-0.6,1.0,0.0,258.0,763.0,0.0,0,219.0,1
270,270,-0.37707188044082585,-0.4,1.0,0.0,482.0,816.0,0.0,0,312.0,1
271,271,0.8815292189374812,0.9,1.0,1.0,262.0,832.0,1.0,1,336.0,1
272,272,0.40044428334395776,0.4,1.0,1.0,407.0,989.0,1.0,1,714.0,1
273,273,-0.6719262165435126,-0.7,0.0,1.0,369.0,762.0,1.0,0,139.0,1
274,274,-0.791235016934728,-0.8,1.0,0.0,491.0,814.0,0.0,0,115.0,1
275,275,-0.08372764043614267,-0.1,0.0,1.0,375.0,880.0,1.0,0,1685.0,1
276,276,0.7732137351597029,0.8,1.0,1.0,465.0,956.0,1.0,1,319.0,1
277,277,-0.8289238313445602,-0.8,1.0,0.0,343.0,512.0,0.0,0,345.0,1
278,278,0.21634586470546557,0.2,0.0,0.0,332.0,982.0,0.0,1,456.0,1
279,279,-0.7818264388884384,-0.8,1.0,0.0,499.0,951.0,0.0,0,100.0,1
280,280,-0.25834398922725155,-0.3,1.0,0.0,299.0,881.0,0.0,0,540.0,1
281,281,-0.6840403900014205,-0.7,0.0,1.0,311.0,843.0,1.0,0,246.0,1
282,282,-0.5645408269284256,-0.6,0.0,1.0,338.0,715.0,1.0,0,627.0,1
283,283,0.10161090724949962,0.1,1.0,1.0,399.0,586.0,0.0,0,2015.0,0
284,284,-0.28172358594499747,-0.3,0.0,1.0,463.0,864.0,1.0,0,693.0,1
285,285,0.104847246298862,0.1,0.0,0.0,352.0,819.0,0.0,1,1479.0,1
286,286,-0.7142103059214266,-0.7,1.0,0.0,355.0,804.0,0.0,0,221.0,1
287,287,0.46801124949358097,0.5,0.0,0.0,340.0,967.0,0.0,1,343.0,1
288,288,0.7816798892195057,0.8,1.0,1.0,377.0,836.0,1.0,1,247.0,1
289,289,-0.24940694809431907,-0.2,0.0,1.0,381.0,572.0,1.0,0,207.0,1
290,290,0.4889667522010558,0.5,0.0,0.0,335.0,850.0,0.0,1,205.0,1
291,291,-0.6492622293654287,-0.6,0.0,1.0,443.0,935.0,1.0,0,-178.0,1
292,292,-0.25990795735488204,-0.3,0.0,1.0,395.0,839.0,0.0,1,-294.0,0
293,293,-0.7175480899532926,-0.7,0.0,1.0,417.0,561.0,1.0,0,142.0,1
294,294,0.12846926449308682,0.1,0.0,0.0,250.0,781.0,0.0,1,1169.0,1
295,295,-0.0688582966094119,-0.1,1.0,0.0,414.0,586.0,0.0,0,2000.0,1
296,296,0.27741453304862473,0.3,0.0,0.0,310.0,673.0,0.0,1,677.0,1
297,297,0.566221820772146,0.6,1.0,1.0,393.0,601.0,1.0,1,316.0,1
298,298,0.5672217527361959,0.6,1.0,1.0,440.0,978.0,1.0,1,322.0,1
299,299,-0.21061983084771696,-0.2,0.0,1.0,297.0,938.0,1.0,0,1755.0,1
300,300,-0.6200419335476341,-0.6,1.0,0.0,487.0,658.0,0.0,0,305.0,1
301,301,-0.5305217758498508,-0.5,0.0,1.0,358.0,514.0,1.0,0,348.0,1
302,302,0.2712019765757089,0.3,0.0,0.0,390.0,554.0,0.0,1,686.0,1
303,303,0.5616669458570754,0.6,1.0,1.0,497.0,714.0,1.0,1,149.0,1
304,304,0.2824948350562758,0.3,1.0,1.0,487.0,545.0,1.0,1,1178.0,1
305,305,-0.39528279064004046,-0.4,0.0,1.0,335.0,749.0,1.0,0,706.0,1
306,306,-0.2479932289843484,-0.2,0.0,1.0,336.0,984.0,1.0,0,480.0,1
307,307,-0.808339167116877,-0.8,1.0,0.0,277.0,672.0,0.0,0,61.0,1
308,308,-0.3039199371600214,-0.3,1.0,0.0,410.0,867.0,0.0,0,613.0,1
309,309,-0.8359075164730835,-0.8,1.0,0.0,282.0,952.0,0.0,0,146.0,1
310,310,-0.13943284450982907,-0.1,0.0,1.0,452.0,655.0,1.0,0,413.0,1
311,311,-0.2898889129011035,-0.3,1.0,0.0,426.0,770.0,0.0,0,174.0,1
312,312,0.057377689194310966,0.1,1.0,1.0,351.0,730.0,1.0,1,1919.0,1
313,313,-0.369431485447422,-0.4,1.0,0.0,447.0,608.0,0.0,0,535.0,1
314,314,0.41332336840700534,0.4,0.0,0.0,299.0,939.0,0.0,1,482.0,1
315,315,0.7183627376501668,0.7,0.0,0.0,416.0,887.0,1.0,0,-263.0,0
316,316,-0.8367905862340511,-0.8,0.0,1.0,411.0,553.0,1.0,0,156.0,1
317,317,-0.07989942025719854,-0.1,1.0,0.0,289.0,763.0,0.0,0,1628.0,1
318,318,0.744525584336787,0.7,0.0,0.0,431.0,835.0,0.0,1,134.0,1
319,319,0.4977151341822509,0.5,1.0,1.0,267.0,807.0,1.0,1,246.0,1
320,320,0.2668643817452919,0.3,0.0,0.0,315.0,943.0,0.0,1,1022.0,1
321,321,0.21955129670321372,0.2,1.0,1.0,371.0,706.0,1.0,1,593.0,1
322,322,0.7871577257819596,0.8,1.0,1.0,261.0,680.0,1.0,1,199.0,1
323,323,-0.33494140173435216,-0.3,0.0,1.0,282.0,820.0,1.0,0,238.0,1
324,324,0.45023103051075186,0.5,0.0,0.0,304.0,995.0,0.0,1,431.0,1
325,325,0.09906905017094836,0.1,0.0,0.0,300.0,533.0,0.0,1,547.0,1
326,326,0.8949841174686449,0.9,0.0,0.0,451.0,831.0,0.0,1,278.0,1
327,327,-0.43161710107870027,-0.4,0.0,1.0,464.0,560.0,1.0,0,446.0,1
328,328,0.41414093442647626,0.4,0.0,0.0,484.0,749.0,0.0,1,377.0,1
329,329,0.0641701669651169,0.1,1.0,1.0,344.0,671.0,1.0,1,1985.0,1
330,330,0.2834813859522579,0.3,1.0,1.0,414.0,731.0,1.0,1,675.0,1
331,331,-0.6742569650950332,-0.7,0.0,1.0,398.0,818.0,1.0,0,104.0,1
332,332,0.4656973867812001,0.5,0.0,0.0,452.0,506.0,0.0,1,362.0,1
333,333,0.12813732614221396,0.1,1.0,1.0,286.0,870.0,1.0,1,1374.0,1
334,334,0.4383710355996405,0.4,0.0,0.0,295.0,621.0,0.0,1,364.0,1
335,335,-0.4255339509867793,-0.4,0.0,1.0,356.0,763.0,1.0,0,601.0,1
336,336,0.5891600705069157,0.6,0.0,0.0,442.0,780.0,0.0,1,148.0,1
337,337,0.49563124626608,0.5,1.0,1.0,473.0,831.0,1.0,1,246.0,1
338,338,-0.019982870100239025,-0.0,1.0,0.0,433.0,849.0,0.0,0,178.0,1
339,339,-0.7519091217685678,-0.8,1.0,0.0,376.0,638.0,0.0,0,196.0,1
340,340,0.5160656011313866,0.5,0.0,0.0,468.0,714.0,0.0,1,128.0,1
341,341,-0.5551545017425803,-0.6,0.0,1.0,482.0,502.0,1.0,0,206.0,1
342,342,0.21391120382893003,0.2,1.0,1.0,452.0,590.0,1.0,1,668.0,1
343,343,-0.7395768952664712,-0.7,1.0,0.0,307.0,823.0,0.0,0,400.0,1
344,344,-0.24978150899227036,-0.2,1.0,0.0,330.0,506.0,0.0,0,434.0,1
345,345,-0.8480082015497484,-0.8,1.0,0.0,441.0,656.0,0.0,0,303.0,1
346,346,-0.43520552383840205,-0.4,0.0,1.0,371.0,770.0,1.0,0,289.0,1
347,347,0.49739604439938556,0.5,1.0,1.0,491.0,955.0,1.0,1,254.0,1
348,348,-0.03154343084570932,-0.0,1.0,0.0,408.0,596.0,0.0,0,1996.0,1
349,349,0.4464838290374574,0.4,1.0,1.0,283.0,574.0,1.0,1,403.0,1
350,350,0.06460060075614238,0.1,1.0,1.0,342.0,881.0,1.0,1,1167.0,1
351,351,-0.06099421846349162,-0.1,0.0,1.0,373.0,638.0,1.0,0,1989.0,1
352,352,-0.8240158076730802,-0.8,1.0,0.0,301.0,801.0,0.0,0,268.0,1
353,353,0.1371891668188835,0.1,0.0,0.0,356.0,947.0,0.0,1,1647.0,1
354,354,-0.7759546370434635,-0.8,1.0,0.0,453.0,514.0,0.0,0,233.0,1
355,355,0.8730364968086776,0.9,1.0,1.0,298.0,562.0,1.0,1,200.0,1
356,356,0.3436515429884196,0.3,1.0,1.0,253.0,872.0,1.0,1,295.0,1
357,357,0.8031764590493923,0.8,0.0,0.0,372.0,925.0,0.0,1,343.0,1
358,358,0.24736103685518962,0.2,1.0,1.0,382.0,820.0,1.0,1,698.0,1
359,359,0.06323151111045189,0.1,1.0,1.0,415.0,931.0,0.0,0,1654.0,0
360,360,-0.6778441275024183,-0.7,1.0,0.0,284.0,546.0,0.0,0,350.0,1
361,361,0.4667094738121401,0.5,0.0,0.0,321.0,550.0,0.0,1,269.0,1
362,362,-0.8765144904860658,-0.9,1.0,0.0,434.0,981.0,0.0,0,165.0,1
363,363,0.4097924862754504,0.4,1.0,1.0,364.0,945.0,1.0,1,291.0,1
364,364,0.19405686862866067,0.2,1.0,1.0,391.0,636.0,1.0,1,513.0,1
365,365,-0.4483328768476064,-0.4,1.0,0.0,415.0,839.0,0.0,0,16.0,1
366,366,-0.3138608264654501,-0.3,0.0,1.0,342.0,777.0,1.0,0,411.0,1
367,367,-0.41893759748799464,-0.4,1.0,0.0,485.0,775.0,0.0,0,240.0,1
368,368,-0.2908130951141392,-0.3,0.0,1.0,434.0,865.0,1.0,0,201.0,1
369,369,0.2529286258140938,0.3,1.0,1.0,277.0,598.0,1.0,1,545.0,1
370,370,-0.41965341181941324,-0.4,1.0,0.0,334.0,898.0,0.0,0,548.0,1
371,371,-0.5075537959766101,-0.5,0.0,1.0,291.0,834.0,1.0,0,215.0,1
372,372,-0.26732713714247325,-0.3,0.0,1.0,256.0,954.0,1.0,0,490.0,1
373,373,-0.7627110147333904,-0.8,0.0,1.0,371.0,777.0,1.0,0,192.0,1
374,374,0.7922303137944661,0.8,1.0,1.0,270.0,704.0,1.0,1,186.0,1
375,375,0.7641070682845622,0.8,0.0,0.0,343.0,591.0,0.0,1,176.0,1
376,376,0.7792281175400341,0.8,0.0,0.0,436.0,765.0,0.0,1,169.0,1
377,377,0.6010933406985749,0.6,1.0,1.0,311.0,680.0,1.0,1,249.0,1
378,378,0.5316911513499191,0.5,1.0,1.0,378.0,719.0,1.0,1,253.0,1
379,379,-0.8795485750489382,-0.9,1.0,0.0,355.0,776.0,0.0,0,219.0,1
380,380,-0.11240146581387478,-0.1,1.0,0.0,343.0,615.0,0.0,0,2042.0,1
381,381,0.34230800500103,0.3,0.0,0.0,336.0,673.0,0.0,1,151.0,1
382,382,0.813587470713233,0.8,1.0,1.0,298.0,852.0,1.0,1,100.0,1
383,383,0.5918335141245717,0.6,0.0,0.0,442.0,826.0,0.0,1,252.0,1
384,384,-0.7357678781208911,-0.7,1.0,0.0,403.0,622.0,0.0,0,265.0,1
385,385,0.317150686575722,0.3,0.0,0.0,359.0,926.0,0.0,1,335.0,1
386,386,-0.6898655769176659,-0.7,1.0,0.0,457.0,819.0,0.0,0,124.0,1
387,387,0.533321329325496,0.5,0.0,0.0,371.0,597.0,0.0,1,422.0,1
388,388,-0.276399193812107,-0.3,1.0,0.0,334.0,933.0,0.0,0,43.0,1
389,389,0.01258367789785253,0.0,1.0,1.0,308.0,791.0,0.0,0,591.0,0
390,390,0.2684323643374441,0.3,1.0,1.0,477.0,579.0,1.0,1,404.0,1
391,391,0.4551999489993038,0.5,0.0,0.0,354.0,812.0,0.0,1,204.0,1
392,392,0.24800130416177268,0.2,1.0,1.0,451.0,771.0,1.0,1,1338.0,1
393,393,-0.2113103886259049,-0.2,1.0,0.0,361.0,508.0,0.0,0,491.0,1
394,394,-0.8062324159321907,-0.8,1.0,0.0,373.0,714.0,0.0,0,223.0,1
395,395,-0.4649335523010644,-0.5,0.0,1.0,315.0,633.0,1.0,0,442.0,1
396,396,0.479380614714762,0.5,1.0,1.0,277.0,986.0,1.0,1,487.0,1
397,397,0.35426562169616893,0.4,1.0,1.0,443.0,797.0,1.0,1,440.0,1
398,398,-0.2443571174482384,-0.2,1.0,0.0,284.0,649.0,0.0,0,1207.0,1
399,399,0.47826794576412357,0.5,0.0,0.0,325.0,509.0,0.0,1,336.0,1
400,400,-0.5567459227852278,-0.6,1.0,0.0,260.0,922.0,0.0,0,268.0,1
401,401,0.704074662963854,0.7,0.0,0.0,459.0,965.0,0.0,1,96.0,1
402,402,0.06454831057372379,0.1,1.0,1.0,309.0,990.0,0.0,0,1701.0,0
403,403,-0.35867259280845254,-0.4,0.0,1.0,269.0,984.0,1.0,0,257.0,1
404,404,-0.5203751857983245,-0.5,1.0,0.0,499.0,507.0,0.0,0,334.0,1
405,405,0.14173109665125116,0.1,1.0,1.0,290.0,500.0,1.0,1,260.0,1
406,406,-0.36572000721269504,-0.4,0.0,1.0,252.0,841.0,1.0,0,737.0,1
407,407,-0.7265192705266477,-0.7,1.0,0.0,493.0,975.0,0.0,0,272.0,1
408,408,-0.87929094759287,-0.9,0.0,1.0,299.0,831.0,1.0,0,130.0,1
409,409,-0.48630032655938116,-0.5,1.0,0.0,474.0,996.0,0.0,0,190.0,1
410,410,-0.6368167858459082,-0.6,0.0,1.0,396.0,756.0,1.0,0,338.0,1
411,411,0.1865125944509639,0.2,1.0,1.0,451.0,720.0,1.0,1,1159.0,1
412,412,-0.7437907673642202,-0.7,1.0,0.0,351.0,927.0,0.0,0,72.0,1
413,413,-0.7167166222419087,-0.7,1.0,0.0,409.0,926.0,0.0,0,155.0,1
414,414,-0.33596565523135813,-0.3,0.0,1.0,300.0,745.0,1.0,0,365.0,1
415,415,0.24670115108035218,0.2,0.0,0.0,404.0,553.0,0.0,1,273.0,1
416,416,-0.7024367324070581,-0.7,0.0,1.0,385.0,569.0,1.0,0,156.0,1
417,417,-0.20632740159757712,-0.2,1.0,0.0,381.0,791.0,0.0,0,368.0,1
418,418,-0.6032755790982769,-0.6,0.0,1.0,250.0,988.0,1.0,0,92.0,1
419,419,0.848766345891112,0.8,0.0,0.0,435.0,672.0,0.0,1,233.0,1
420,420,0.00637729235586193,0.0,0.0,0.0,284.0,942.0,1.0,0,1774.0,0
421,421,0.6961089462928386,0.7,0.0,0.0,298.0,796.0,0.0,1,136.0,1
422,422,-0.8124263353563448,-0.8,1.0,0.0,296.0,876.0,0.0,0,148.0,1
423,423,-0.373567654926912,-0.4,1.0,0.0,293.0,645.0,0.0,0,472.0,1
424,424,-0.5644349706036995,-0.6,0.0,1.0,297.0,787.0,1.0,0,176.0,1
425,425,0.5796858286192873,0.6,0.0,0.0,389.0,764.0,0.0,1,277.0,1
426,426,-0.09723365889236402,-0.1,0.0,1.0,439.0,583.0,1.0,0,668.0,1
427,427,0.09392813653471821,0.1,0.0,0.0,417.0,914.0,0.0,1,1669.0,1
428,428,0.2568684162810325,0.3,0.0,0.0,461.0,792.0,0.0,1,737.0,1
429,429,0.6083153763024881,0.6,1.0,1.0,428.0,903.0,1.0,1,129.0,1
430,430,0.4760238646812879,0.5,0.0,0.0,479.0,613.0,0.0,1,408.0,1
431,431,0.8991294949066636,0.9,1.0,1.0,283.0,742.0,1.0,1,85.0,1
432,432,-0.8320374181062107,-0.8,1.0,0.0,416.0,782.0,0.0,0,222.0,1
433,433,-0.10772809759520541,-0.1,0.0,1.0,499.0,665.0,1.0,0,476.0,1
434,434,0.6782262531856232,0.7,1.0,1.0,383.0,683.0,1.0,1,164.0,1
435,435,0.1513292497432267,0.2,1.0,1.0,435.0,917.0,1.0,1,1278.0,1
436,436,0.31565147388650294,0.3,1.0,1.0,298.0,556.0,1.0,1,326.0,1
437,437,0.01700998035439294,0.0,1.0,1.0,319.0,867.0,0.0,0,1814.0,0
438,438,0.0070023384697029956,0.0,1.0,1.0,478.0,627.0,0.0,0,725.0,0
439,439,0.2759315312061593,0.3,1.0,1.0,312.0,582.0,1.0,1,1046.0,1
440,440,-0.3957318073679055,-0.4,1.0,0.0,302.0,816.0,0.0,0,312.0,1
441,441,-0.7583352244738573,-0.8,1.0,0.0,272.0,967.0,0.0,0,251.0,1
442,442,0.22769729260127314,0.2,1.0,1.0,414.0,690.0,1.0,1,446.0,1
443,443,0.2677961613394849,0.3,0.0,0.0,466.0,899.0,0.0,1,355.0,1
444,444,-0.20377214507836272,-0.2,0.0,1.0,280.0,840.0,1.0,0,780.0,1
445,445,-0.39398772177215524,-0.4,1.0,0.0,393.0,856.0,0.0,0,461.0,1
446,446,-0.19578418000861209,-0.2,0.0,1.0,298.0,879.0,1.0,0,603.0,1
447,447,0.08600973768948483,0.1,0.0,0.0,403.0,674.0,0.0,1,1923.0,1
448,448,0.05964409787386549,0.1,0.0,0.0,301.0,739.0,0.0,1,1320.0,1
449,449,0.6277291236763362,0.6,0.0,0.0,458.0,873.0,0.0,1,209.0,1
450,450,-0.8175162527030495,-0.8,0.0,1.0,325.0,673.0,1.0,0,402.0,1
451,451,-0.4855505028447839,-0.5,1.0,0.0,292.0,626.0,0.0,0,352.0,1
452,452,-0.6722103192468079,-0.7,0.0,1.0,373.0,984.0,1.0,0,183.0,1
453,453,0.361974091669217,0.4,1.0,1.0,428.0,646.0,1.0,1,396.0,1
454,454,-0.44310993630737444,-0.4,1.0,0.0,351.0,659.0,0.0,0,280.0,1
455,455,0.1802236145243804,0.2,0.0,0.0,347.0,694.0,0.0,1,249.0,1
456,456,0.8894647270132047,0.9,0.0,0.0,428.0,736.0,0.0,1,176.0,1
457,457,-0.8025200178463378,-0.8,0.0,1.0,466.0,560.0,1.0,0,114.0,1
458,458,-0.3049033183790901,-0.3,1.0,0.0,373.0,867.0,0.0,0,600.0,1
459,459,-0.6803808081115006,-0.7,0.0,1.0,457.0,536.0,1.0,0,247.0,1
460,460,-0.06486329819322978,-0.1,1.0,0.0,423.0,805.0,0.0,0,672.0,1
461,461,-0.22651076595854613,-0.2,1.0,0.0,272.0,923.0,0.0,0,645.0,1
462,462,0.6255167071730922,0.6,0.0,0.0,274.0,689.0,0.0,1,457.0,1
463,463,-0.5379215980039452,-0.5,0.0,1.0,263.0,549.0,1.0,0,338.0,1
464,464,0.6999163675717294,0.7,0.0,0.0,324.0,825.0,0.0,1,131.0,1
465,465,0.21794059370823915,0.2,0.0,0.0,354.0,681.0,0.0,1,765.0,1
466,466,0.891122270790235,0.9,1.0,1.0,406.0,718.0,1.0,1,186.0,1
467,467,0.46023444310917616,0.5,1.0,1.0,314.0,936.0,1.0,1,220.0,1
468,468,-0.35020110671580584,-0.4,0.0,1.0,460.0,869.0,1.0,0,-9.0,1
469,469,-0.4773018492266828,-0.5,1.0,0.0,395.0,722.0,0.0,0,213.0,1
470,470,-0.1554532707133196,-0.2,0.0,1.0,384.0,554.0,1.0,0,802.0,1
471,471,-0.7789432784394102,-0.8,0.0,1.0,308.0,863.0,1.0,0,79.0,1
472,472,0.32758368713085806,0.3,0.0,0.0,449.0,880.0,0.0,1,531.0,1
473,473,0.5566638625122357,0.6,0.0,0.0,380.0,982.0,0.0,1,228.0,1
474,474,-0.2806787379768445,-0.3,1.0,0.0,465.0,984.0,0.0,0,481.0,1
475,475,-0.17640703141079017,-0.2,0.0,1.0,334.0,751.0,1.0,0,585.0,1
476,476,-0.7753870768350551,-0.8,0.0,1.0,263.0,763.0,1.0,0,104.0,1
477,477,0.02472495609268055,0.0,1.0,1.0,324.0,633.0,1.0,1,2043.0,1
478,478,0.4860931376111114,0.5,1.0,1.0,491.0,570.0,1.0,1,269.0,1
479,479,0.024979309692476637,0.0,1.0,1.0,263.0,923.0,0.0,0,1814.0,0
480,480,-0.8382985113461408,-0.8,1.0,0.0,499.0,621.0,0.0,0,80.0,1
481,481,-0.48867142755017884,-0.5,0.0,1.0,330.0,974.0,1.0,0,176.0,1
482,482,0.7482166212488354,0.7,1.0,1.0,296.0,797.0,1.0,1,277.0,1
483,483,-0.461057388193301,-0.5,1.0,0.0,356.0,622.0,0.0,0,702.0,1
484,484,-0.7411785003390209,-0.7,1.0,0.0,365.0,609.0,0.0,0,216.0,1
485,485,-0.5374151281421782,-0.5,0.0,1.0,387.0,664.0,1.0,0,289.0,1
486,486,0.7875867339612997,0.8,1.0,1.0,385.0,619.0,1.0,1,206.0,1
487,487,0.527438344397846,0.5,1.0,1.0,438.0,970.0,1.0,1,302.0,1
488,488,0.7721555292998591,0.8,0.0,0.0,411.0,644.0,0.0,1,95.0,1
489,489,-0.4676379253170135,-0.5,1.0,0.0,414.0,710.0,0.0,0,186.0,1
490,490,-0.31336489505319287,-0.3,1.0,0.0,485.0,864.0,0.0,0,181.0,1
491,491,-0.46609849235810846,-0.5,1.0,0.0,272.0,518.0,0.0,0,570.0,1
492,492,-0.5200082695822094,-0.5,1.0,0.0,285.0,500.0,0.0,0,115.0,1
493,493,-0.8050709398875496,-0.8,1.0,0.0,258.0,851.0,0.0,0,81.0,1
494,494,0.7751466489551236,0.8,0.0,0.0,484.0,931.0,0.0,1,145.0,1
495,495,-0.489317129878674,-0.5,1.0,0.0,389.0,864.0,0.0,0,137.0,1
496,496,-0.46441084531418714,-0.5,1.0,0.0,479.0,817.0,0.0,0,304.0,1
497,497,0.560990888514136,0.6,1.0,1.0,389.0,785.0,1.0,1,276.0,1
498,498,0.7084683004851392,0.7,0.0,0.0,430.0,503.0,0.0,1,157.0,1
499,499,-0.564453581260485,-0.6,1.0,0.0,415.0,756.0,0.0,0,499.0,1
500,500,0.11952214958396012,0.1,1.0,1.0,373.0,597.0,1.0,1,740.0,1
501,501,-0.5303386306876192,-0.5,0.0,1.0,467.0,522.0,1.0,0,471.0,1
502,502,0.6483051604945634,0.6,0.0,0.0,305.0,516.0,0.0,1,239.0,1
503,503,0.5164674308954585,0.5,0.0,0.0,453.0,735.0,0.0,1,172.0,1
504,504,-0.8994921395290029,-0.9,1.0,0.0,261.0,728.0,0.0,0,151.0,1
505,505,-0.522163029723665,-0.5,1.0,0.0,290.0,839.0,0.0,0,431.0,1
506,506,-0.3983564410899676,-0.4,0.0,1.0,285.0,595.0,1.0,0,260.0,1
507,507,-0.15518096392439829,-0.2,0.0,1.0,387.0,511.0,1.0,0,712.0,1
508,508,-0.5789066688654284,-0.6,1.0,0.0,357.0,784.0,0.0,0,359.0,1
509,509,-0.49113941161647545,-0.5,0.0,1.0,373.0,626.0,1.0,0,421.0,1
510,510,0.09006896206969961,0.1,0.0,0.0,490.0,969.0,1.0,0,-249.0,0
511,511,0.3936768981912443,0.4,1.0,1.0,444.0,672.0,1.0,1,774.0,1
512,512,-0.3336523811769484,-0.3,0.0,1.0,417.0,663.0,1.0,0,260.0,1
513,513,0.3629065457327726,0.4,1.0,1.0,365.0,615.0,1.0,1,510.0,1
514,514,0.051810285531880385,0.1,0.0,0.0,307.0,689.0,1.0,0,2004.0,0
515,515,-0.6369177614537671,-0.6,0.0,1.0,354.0,886.0,1.0,0,390.0,1
516,516,-0.7789136693440402,-0.8,1.0,0.0,391.0,984.0,0.0,0,285.0,1
517,517,0.31680405088336727,0.3,0.0,0.0,369.0,883.0,0.0,1,428.0,1
518,518,0.3917984468932748,0.4,1.0,1.0,275.0,674.0,1.0,1,611.0,1
519,519,-0.49512285687374663,-0.5,1.0,0.0,326.0,605.0,0.0,0,449.0,1
520,520,0.6063706323322443,0.6,1.0,1.0,366.0,603.0,1.0,1,211.0,1
521,521,0.6857434697799013,0.7,1.0,1.0,444.0,574.0,1.0,1,242.0,1
522,522,-0.4928624269913403,-0.5,0.0,1.0,369.0,906.0,1.0,0,135.0,1
523,523,0.18016495000742727,0.2,0.0,0.0,330.0,879.0,0.0,1,551.0,1
524,524,-0.7662699792543672,-0.8,0.0,1.0,374.0,569.0,1.0,0,437.0,1
525,525,0.38356408660964114,0.4,1.0,1.0,479.0,500.0,1.0,1,321.0,1
526,526,-0.3341902582746915,-0.3,1.0,0.0,469.0,796.0,0.0,0,1435.0,1
527,527,-0.7368106443461477,-0.7,0.0,1.0,263.0,877.0,1.0,0,330.0,1
528,528,-0.5640953514920359,-0.6,1.0,0.0,340.0,771.0,0.0,0,229.0,1
529,529,-0.4980188399545464,-0.5,1.0,0.0,416.0,500.0,0.0,0,394.0,1
530,530,-0.7053096968926968,-0.7,0.0,1.0,368.0,771.0,1.0,0,241.0,1
531,531,-0.31619071410558997,-0.3,0.0,1.0,333.0,888.0,1.0,0,599.0,1
532,532,-0.3725687829396187,-0.4,0.0,1.0,341.0,707.0,1.0,0,192.0,1
533,533,0.1853706945847743,0.2,1.0,1.0,300.0,887.0,1.0,1,443.0,1
534,534,0.8781003121666165,0.9,1.0,1.0,253.0,590.0,1.0,1,467.0,1
535,535,0.3866136204254077,0.4,0.0,0.0,269.0,532.0,0.0,1,629.0,1
536,536,0.0734914537713024,0.1,0.0,0.0,432.0,722.0,0.0,1,646.0,1
537,537,-0.629954968347024,-0.6,1.0,0.0,419.0,601.0,0.0,0,100.0,1
538,538,0.42633098273383097,0.4,0.0,0.0,312.0,767.0,0.0,1,301.0,1
539,539,-0.7116585934828022,-0.7,1.0,0.0,331.0,796.0,0.0,0,343.0,1
540,540,0.8872839822877582,0.9,1.0,1.0,377.0,995.0,1.0,1,158.0,1
541,541,0.5540245443381006,0.6,0.0,0.0,280.0,744.0,0.0,1,196.0,1
542,542,0.07809854434573438,0.1,1.0,1.0,455.0,940.0,1.0,1,1605.0,1
543,543,-0.6236420664844746,-0.6,1.0,0.0,253.0,572.0,0.0,0,235.0,1
544,544,-0.2708920462564963,-0.3,1.0,0.0,359.0,693.0,0.0,0,288.0,1
545,545,-0.6513899522249085,-0.7,0.0,1.0,337.0,873.0,1.0,0,90.0,1
546,546,-0.09127870787631764,-0.1,1.0,0.0,424.0,958.0,0.0,0,1368.0,1
547,547,-0.4155998718845572,-0.4,1.0,0.0,309.0,821.0,0.0,0,270.0,1
548,548,-0.28156095168594486,-0.3,1.0,0.0,466.0,679.0,0.0,0,325.0,1
549,549,0.7769167724960885,0.8,1.0,1.0,352.0,739.0,1.0,1,189.0,1
550,550,-0.17985803567658276,-0.2,0.0,1.0,462.0,961.0,1.0,0,557.0,1
551,551,-0.316984723307724,-0.3,0.0,1.0,392.0,730.0,1.0,0,928.0,1
552,552,0.2462720654413969,0.2,1.0,1.0,308.0,905.0,1.0,1,1127.0,1
553,553,-0.2401857609721596,-0.2,0.0,1.0,440.0,887.0,1.0,0,263.0,1
554,554,0.8440688037076419,0.8,0.0,0.0,273.0,725.0,0.0,1,332.0,1
555,555,-0.535396982726877,-0.5,0.0,1.0,498.0,888.0,1.0,0,334.0,1
556,556,-0.34373432633820955,-0.3,0.0,1.0,498.0,640.0,1.0,0,312.0,1
557,557,-0.07524965861461741,-0.1,1.0,0.0,294.0,662.0,0.0,0,714.0,1
558,558,-0.4391523470714703,-0.4,0.0,1.0,453.0,994.0,1.0,0,593.0,1
559,559,0.00841619323373044,0.0,1.0,1.0,434.0,864.0,1.0,1,1702.0,1
560,560,0.7869929172956,0.8,1.0,1.0,452.0,891.0,1.0,1,237.0,1
561,561,-0.47495924031500636,-0.5,0.0,1.0,348.0,946.0,1.0,0,216.0,1
562,562,0.0693845771896987,0.1,1.0,1.0,386.0,917.0,1.0,1,1697.0,1
563,563,0.6179684232100165,0.6,0.0,0.0,398.0,950.0,0.0,1,402.0,1
564,564,0.45967787874591715,0.5,1.0,1.0,258.0,812.0,1.0,1,550.0,1
565,565,-0.8115758038679517,-0.8,1.0,0.0,352.0,860.0,0.0,0,198.0,1
566,566,-0.5902381509585599,-0.6,1.0,0.0,433.0,732.0,0.0,0,135.0,1
567,567,0.3660564105947274,0.4,0.0,0.0,477.0,857.0,0.0,1,66.0,1
568,568,-0.47464647583610753,-0.5,0.0,1.0,498.0,532.0,1.0,0,290.0,1
569,569,0.6494477577882874,0.6,0.0,0.0,462.0,583.0,0.0,1,165.0,1
570,570,-0.7284744312707532,-0.7,0.0,1.0,477.0,587.0,1.0,0,216.0,1
571,571,-0.6893873903663118,-0.7,0.0,1.0,469.0,977.0,1.0,0,144.0,1
572,572,-0.8492105056197243,-0.8,1.0,0.0,408.0,909.0,0.0,0,113.0,1
573,573,-0.008237374547800158,-0.0,1.0,0.0,347.0,975.0,0.0,0,128.0,1
574,574,-0.5900591915565341,-0.6,0.0,1.0,376.0,987.0,1.0,0,217.0,1
575,575,0.5659682242640102,0.6,1.0,1.0,384.0,532.0,1.0,1,304.0,1
576,576,-0.05507767925468099,-0.1,1.0,0.0,403.0,759.0,0.0,0,1838.0,1
577,577,-0.048944080310629245,-0.0,0.0,1.0,364.0,847.0,0.0,1,1349.0,0
578,578,-0.6029173721856018,-0.6,0.0,1.0,434.0,938.0,1.0,0,198.0,1
579,579,-0.7598545084342183,-0.8,1.0,0.0,285.0,681.0,0.0,0,514.0,1
580,580,0.2781666317271231,0.3,1.0,1.0,295.0,899.0,1.0,1,776.0,1
581,581,-0.4317520105478054,-0.4,0.0,1.0,382.0,545.0,1.0,0,393.0,1
582,582,-0.41850873895474655,-0.4,0.0,1.0,414.0,941.0,0.0,1,-95.0,0
583,583,0.7413540107736304,0.7,1.0,1.0,379.0,923.0,1.0,1,128.0,1
584,584,0.7011968946807784,0.7,0.0,0.0,332.0,656.0,0.0,1,292.0,1
585,585,-0.08864229884934227,-0.1,0.0,1.0,278.0,730.0,1.0,0,682.0,1
586,586,0.3132409988534669,0.3,1.0,1.0,265.0,726.0,1.0,1,499.0,1
587,587,-0.7184072571016114,-0.7,1.0,0.0,464.0,545.0,0.0,0,281.0,1
588,588,-0.4282545743271355,-0.4,1.0,0.0,346.0,884.0,0.0,0,350.0,1
589,589,0.2887929945186055,0.3,1.0,1.0,304.0,884.0,1.0,1,852.0,1
590,590,0.8571028901380161,0.9,1.0,1.0,396.0,570.0,1.0,1,204.0,1
591,591,0.626666280808439,0.6,0.0,0.0,452.0,806.0,0.0,1,-108.0,1
592,592,-0.7065546278200521,-0.7,0.0,1.0,488.0,904.0,1.0,0,208.0,1
593,593,-0.340721856592355,-0.3,0.0,1.0,362.0,929.0,1.0,0,-141.0,1
594,594,-0.04362987208863478,-0.0,1.0,0.0,425.0,536.0,0.0,0,1199.0,1
595,595,-0.16812513799886442,-0.2,1.0,0.0,372.0,809.0,0.0,0,539.0,1
596,596,0.77448688089187,0.8,1.0,1.0,312.0,748.0,1.0,1,240.0,1
597,597,0.36952129549882684,0.4,0.0,0.0,450.0,979.0,0.0,1,171.0,1
598,598,0.6755156850956602,0.7,0.0,0.0,457.0,930.0,0.0,1,173.0,1
599,599,0.7886840732485368,0.8,1.0,1.0,250.0,529.0,1.0,1,251.0,1
600,600,0.697621723313174,0.7,0.0,0.0,373.0,893.0,0.0,1,154.0,1
601,601,-0.5306429145987781,-0.5,0.0,1.0,483.0,711.0,1.0,0,296.0,1
602,602,0.33455200648130357,0.3,1.0,1.0,449.0,607.0,1.0,1,254.0,1
603,603,-0.5481537017430136,-0.5,0.0,1.0,308.0,867.0,1.0,0,295.0,1
604,604,0.48917740394285614,0.5,1.0,1.0,334.0,824.0,1.0,1,222.0,1
605,605,-0.6174167374431936,-0.6,1.0,0.0,474.0,629.0,0.0,0,397.0,1
606,606,-0.5226975685011057,-0.5,1.0,0.0,466.0,754.0,0.0,0,380.0,1
607,607,-0.12353082782452629,-0.1,0.0,1.0,471.0,949.0,0.0,1,-510.0,0
608,608,-0.5741827038692601,-0.6,1.0,0.0,398.0,852.0,0.0,0,130.0,1
609,609,-0.3561721006674794,-0.4,1.0,0.0,466.0,691.0,0.0,0,103.0,1
610,610,-0.5765132454290929,-0.6,1.0,0.0,453.0,518.0,0.0,0,189.0,1
611,611,-0.4463609560301424,-0.4,1.0,0.0,256.0,860.0,0.0,0,344.0,1
612,612,0.6816944625269662,0.7,1.0,1.0,466.0,530.0,1.0,1,194.0,1
613,613,0.21144972119423755,0.2,1.0,1.0,267.0,758.0,1.0,1,355.0,1
614,614,-0.7532608286765867,-0.8,1.0,0.0,453.0,788.0,0.0,0,189.0,1
615,615,0.5860429860664936,0.6,0.0,0.0,450.0,837.0,0.0,1,273.0,1
616,616,0.3353271102153622,0.3,1.0,1.0,418.0,557.0,1.0,1,435.0,1
617,617,-0.5386292041334728,-0.5,1.0,0.0,485.0,863.0,0.0,0,292.0,1
618,618,0.5040556672338797,0.5,0.0,0.0,459.0,940.0,0.0,1,221.0,1
619,619,-0.5438243980318238,-0.5,0.0,1.0,471.0,798.0,1.0,0,191.0,1
620,620,-0.4049952096830355,-0.4,1.0,0.0,455.0,863.0,0.0,0,262.0,1
621,621,0.2634377297976419,0.3,0.0,0.0,367.0,711.0,0.0,1,672.0,1
622,622,-0.5969896913793751,-0.6,0.0,1.0,408.0,751.0,1.0,0,121.0,1
623,623,0.24502946957117977,0.2,1.0,1.0,386.0,686.0,1.0,1,398.0,1
624,624,0.5221013219219125,0.5,1.0,1.0,433.0,750.0,1.0,1,497.0,1
625,625,-0.09700002821484599,-0.1,0.0,1.0,482.0,848.0,1.0,0,-90.0,1
626,626,0.7681399440884352,0.8,0.0,0.0,431.0,739.0,0.0,1,170.0,1
627,627,0.27166299849379605,0.3,0.0,0.0,357.0,797.0,0.0,1,446.0,1
628,628,-0.28142652747749564,-0.3,0.0,1.0,429.0,779.0,1.0,0,932.0,1
629,629,0.3495585025078819,0.3,0.0,0.0,469.0,707.0,0.0,1,344.0,1
630,630,-0.46323006332343747,-0.5,0.0,1.0,274.0,766.0,1.0,0,310.0,1
631,631,0.38008271645346003,0.4,1.0,1.0,475.0,822.0,1.0,1,343.0,1
632,632,0.1837675383391003,0.2,1.0,1.0,441.0,532.0,1.0,1,1127.0,1
633,633,0.22887866838668092,0.2,1.0,1.0,253.0,990.0,1.0,1,997.0,1
634,634,0.8165110989220418,0.8,0.0,0.0,408.0,923.0,0.0,1,-151.0,1
635,635,0.7385156626058583,0.7,0.0,0.0,496.0,872.0,0.0,1,212.0,1
636,636,-0.029275849426674494,-0.0,1.0,0.0,282.0,860.0,0.0,0,1858.0,1
637,637,0.08175100235181432,0.1,0.0,0.0,481.0,790.0,0.0,1,1729.0,1
638,638,-0.6120754055749037,-0.6,1.0,0.0,314.0,811.0,0.0,0,165.0,1
639,639,0.32490683874931536,0.3,0.0,0.0,410.0,667.0,0.0,1,443.0,1
640,640,0.574648680778571,0.6,0.0,0.0,312.0,992.0,0.0,1,256.0,1
641,641,0.8989696461946558,0.9,0.0,0.0,332.0,583.0,0.0,1,175.0,1
642,642,0.8798441957730622,0.9,1.0,1.0,488.0,558.0,1.0,1,134.0,1
643,643,0.4417288826680633,0.4,1.0,1.0,387.0,964.0,1.0,1,129.0,1
644,644,0.06799293585707378,0.1,1.0,1.0,393.0,874.0,1.0,1,1733.0,1
645,645,0.2197866666517273,0.2,1.0,1.0,315.0,506.0,1.0,1,689.0,1
646,646,-0.5125855448244421,-0.5,1.0,0.0,339.0,604.0,0.0,0,187.0,1
647,647,0.7074681623499272,0.7,0.0,0.0,339.0,968.0,0.0,1,133.0,1
648,648,-0.5077536712496851,-0.5,0.0,1.0,414.0,888.0,1.0,0,198.0,1
649,649,-0.6122075555438751,-0.6,0.0,1.0,442.0,852.0,1.0,0,376.0,1
650,650,-0.17175492584304608,-0.2,0.0,1.0,292.0,589.0,1.0,0,439.0,1
651,651,0.7774083674482001,0.8,0.0,0.0,392.0,735.0,0.0,1,173.0,1
652,652,0.2521257861566716,0.3,1.0,1.0,472.0,991.0,1.0,1,587.0,1
653,653,-0.5658436807830816,-0.6,1.0,0.0,483.0,883.0,0.0,0,354.0,1
654,654,-0.07415001911885943,-0.1,0.0,1.0,336.0,596.0,1.0,0,2068.0,1
655,655,0.7107816907569983,0.7,1.0,1.0,486.0,623.0,1.0,1,151.0,1
656,656,0.3867070243743639,0.4,0.0,0.0,461.0,658.0,0.0,1,511.0,1
657,657,0.6054598281584623,0.6,1.0,1.0,446.0,698.0,1.0,1,286.0,1
658,658,0.6071558004896548,0.6,1.0,1.0,350.0,768.0,1.0,1,242.0,1
659,659,-0.5047041539222155,-0.5,1.0,0.0,317.0,949.0,0.0,0,244.0,1
660,660,-0.11665175017065399,-0.1,1.0,0.0,414.0,903.0,0.0,0,523.0,1
661,661,0.47286869719081925,0.5,1.0,1.0,461.0,558.0,1.0,1,171.0,1
662,662,-0.5571638270723205,-0.6,1.0,0.0,348.0,776.0,0.0,0,396.0,1
663,663,0.023574514056919016,0.0,0.0,0.0,437.0,517.0,0.0,1,2046.0,1
664,664,-0.2212558733145683,-0.2,0.0,1.0,429.0,609.0,1.0,0,1672.0,1
665,665,0.6262830356710701,0.6,1.0,1.0,347.0,959.0,1.0,1,294.0,1
666,666,0.3220473271578833,0.3,1.0,1.0,422.0,998.0,1.0,1,520.0,1
667,667,0.38444228239338274,0.4,0.0,0.0,462.0,809.0,1.0,0,-381.0,0
668,668,-0.5101346159968366,-0.5,0.0,1.0,334.0,679.0,1.0,0,577.0,1
669,669,-0.6042896485240765,-0.6,1.0,0.0,302.0,855.0,0.0,0,43.0,1
670,670,-0.8350638700739393,-0.8,0.0,1.0,481.0,872.0,1.0,0,177.0,1
671,671,0.19593998989536765,0.2,1.0,1.0,296.0,814.0,1.0,1,410.0,1
672,672,0.10920642787020751,0.1,1.0,1.0,290.0,988.0,0.0,0,-98.0,0
673,673,0.07022582183768011,0.1,1.0,1.0,487.0,599.0,1.0,1,1914.0,1
674,674,0.22800190680360755,0.2,0.0,0.0,352.0,975.0,1.0,0,123.0,0
675,675,0.5286351863783935,0.5,0.0,0.0,473.0,646.0,0.0,1,231.0,1
676,676,-0.3092769292166909,-0.3,0.0,1.0,465.0,976.0,1.0,0,519.0,1
677,677,0.5481356598042172,0.5,1.0,1.0,333.0,667.0,1.0,1,380.0,1
678,678,-0.21952426541926484,-0.2,1.0,0.0,469.0,928.0,0.0,0,463.0,1
679,679,0.6248303465809276,0.6,0.0,0.0,295.0,522.0,0.0,1,173.0,1
680,680,0.3367901841783584,0.3,1.0,1.0,432.0,512.0,1.0,1,526.0,1
681,681,-0.8495920757727382,-0.8,1.0,0.0,399.0,533.0,0.0,0,178.0,1
682,682,0.7546975733976621,0.8,0.0,0.0,282.0,728.0,0.0,1,250.0,1
683,683,-0.1084692314523934,-0.1,1.0,0.0,272.0,543.0,0.0,0,375.0,1
684,684,0.03502997984040168,0.0,1.0,1.0,343.0,922.0,0.0,0,1735.0,0
685,685,-0.77087011162012,-0.8,0.0,1.0,498.0,785.0,1.0,0,197.0,1
686,686,-0.7471805815353045,-0.7,1.0,0.0,304.0,781.0,0.0,0,285.0,1
687,687,-0.754309621843072,-0.8,1.0,0.0,292.0,717.0,0.0,0,131.0,1
688,688,-0.6076167852903084,-0.6,0.0,1.0,471.0,986.0,1.0,0,383.0,1
689,689,0.5119133702347488,0.5,1.0,1.0,378.0,801.0,1.0,1,281.0,1
690,690,-0.39213083986441,-0.4,0.0,1.0,298.0,553.0,1.0,0,349.0,1
691,691,-0.5061757308346977,-0.5,0.0,1.0,305.0,541.0,1.0,0,244.0,1
692,692,-0.5514108413656996,-0.6,1.0,0.0,470.0,839.0,0.0,0,541.0,1
693,693,0.6985519794626899,0.7,1.0,1.0,342.0,540.0,1.0,1,518.0,1
694,694,0.2264806261207205,0.2,0.0,0.0,498.0,698.0,0.0,1,294.0,1
695,695,0.8182511004498695,0.8,0.0,0.0,266.0,847.0,0.0,1,137.0,1
696,696,-0.10246393884400695,-0.1,0.0,1.0,470.0,793.0,1.0,0,1397.0,1
697,697,0.0774838320989999,0.1,1.0,1.0,407.0,857.0,1.0,1,1676.0,1
698,698,0.4279544494651514,0.4,0.0,0.0,400.0,694.0,0.0,1,226.0,1
699,699,-0.6013613712779592,-0.6,1.0,0.0,268.0,921.0,0.0,0,111.0,1
700,700,-0.8368316987189436,-0.8,1.0,0.0,446.0,575.0,0.0,0,249.0,1
701,701,-0.4960617966479752,-0.5,0.0,1.0,484.0,698.0,1.0,0,428.0,1
702,702,-0.5245553041401333,-0.5,0.0,1.0,312.0,808.0,1.0,0,210.0,1
703,703,0.047521359319521284,0.0,1.0,1.0,261.0,983.0,0.0,0,1756.0,0
704,704,-0.1566548549826744,-0.2,1.0,0.0,315.0,815.0,0.0,0,850.0,1
705,705,0.1795944506565038,0.2,0.0,0.0,477.0,772.0,0.0,1,791.0,1
706,706,0.8424872533757478,0.8,1.0,1.0,292.0,951.0,1.0,1,157.0,1
707,707,0.6667386816788702,0.7,1.0,1.0,462.0,793.0,1.0,1,165.0,1
708,708,0.261045990869765,0.3,1.0,1.0,475.0,878.0,1.0,1,387.0,1
709,709,-0.27825572331722825,-0.3,0.0,1.0,455.0,877.0,1.0,0,588.0,1
710,710,-0.45163522891479546,-0.5,1.0,0.0,394.0,546.0,0.0,0,330.0,1
711,711,-0.7762290554085882,-0.8,0.0,1.0,428.0,678.0,1.0,0,164.0,1
712,712,-0.7663820220023613,-0.8,0.0,1.0,474.0,880.0,1.0,0,86.0,1
713,713,0.7264369510582424,0.7,1.0,1.0,372.0,840.0,1.0,1,128.0,1
714,714,0.6557737273620853,0.7,0.0,0.0,459.0,842.0,0.0,1,169.0,1
715,715,-0.6609633318876563,-0.7,1.0,0.0,308.0,822.0,0.0,0,320.0,1
716,716,0.8651427193853752,0.9,0.0,0.0,411.0,754.0,0.0,1,235.0,1
717,717,-0.024535869555686096,-0.0,0.0,1.0,470.0,864.0,0.0,1,236.0,0
718,718,0.6617347572458806,0.7,1.0,1.0,468.0,864.0,1.0,1,178.0,1
719,719,-0.8085044212283481,-0.8,0.0,1.0,295.0,583.0,1.0,0,132.0,1
720,720,-0.31102783837887193,-0.3,1.0,0.0,300.0,523.0,0.0,0,817.0,1
721,721,-0.6676866714459483,-0.7,1.0,0.0,458.0,729.0,0.0,0,133.0,1
722,722,0.22497438755272425,0.2,0.0,0.0,448.0,832.0,0.0,1,310.0,1
723,723,-0.5087715907170087,-0.5,1.0,0.0,452.0,542.0,0.0,0,516.0,1
724,724,-0.5995886251556138,-0.6,0.0,1.0,272.0,578.0,1.0,0,130.0,1
725,725,-0.8546048709138656,-0.9,1.0,0.0,331.0,689.0,0.0,0,250.0,1
726,726,-0.0940725745304678,-0.1,0.0,1.0,306.0,595.0,1.0,0,2049.0,1
727,727,0.1003759810587378,0.1,0.0,0.0,308.0,803.0,0.0,1,1889.0,1
728,728,-0.6424520298961398,-0.6,0.0,1.0,329.0,983.0,1.0,0,188.0,1
729,729,0.8276124957114558,0.8,1.0,1.0,360.0,830.0,1.0,1,110.0,1
730,730,-0.8060328111420308,-0.8,1.0,0.0,337.0,551.0,0.0,0,132.0,1
731,731,0.5366219985157631,0.5,1.0,1.0,261.0,519.0,1.0,1,400.0,1
732,732,-0.8917051865476322,-0.9,0.0,1.0,327.0,560.0,1.0,0,213.0,1
733,733,0.7130020107203091,0.7,0.0,0.0,272.0,528.0,0.0,1,250.0,1
734,734,0.7288732132385017,0.7,0.0,0.0,447.0,722.0,0.0,1,271.0,1
735,735,0.7724846896429264,0.8,0.0,0.0,490.0,639.0,0.0,1,121.0,1
736,736,-0.7617887173735911,-0.8,1.0,0.0,272.0,747.0,0.0,0,301.0,1
737,737,0.5743346040251328,0.6,0.0,0.0,374.0,708.0,0.0,1,478.0,1
738,738,-0.8501046171172881,-0.9,0.0,1.0,300.0,926.0,1.0,0,224.0,1
739,739,0.8586028231386816,0.9,1.0,1.0,469.0,709.0,1.0,1,232.0,1
740,740,-0.10445768269621503,-0.1,0.0,1.0,263.0,982.0,1.0,0,1125.0,1
741,741,-0.8132058716180927,-0.8,1.0,0.0,275.0,831.0,0.0,0,234.0,1
742,742,-0.5651311540263647,-0.6,0.0,1.0,286.0,876.0,1.0,0,188.0,1
743,743,-0.6848468980495029,-0.7,1.0,0.0,317.0,764.0,0.0,0,129.0,1
744,744,-0.5838733436692303,-0.6,0.0,1.0,274.0,586.0,1.0,0,230.0,1
745,745,-0.0052947555890557885,-0.0,0.0,1.0,415.0,956.0,1.0,0,359.0,1
746,746,-0.426782411664081,-0.4,1.0,0.0,254.0,659.0,0.0,0,467.0,1
747,747,-0.43708857354073544,-0.4,0.0,1.0,304.0,782.0,1.0,0,204.0,1
748,748,-0.5867618786202753,-0.6,0.0,1.0,445.0,637.0,1.0,0,338.0,1
749,749,0.46160464796977274,0.5,0.0,0.0,280.0,643.0,0.0,1,267.0,1
750,750,-0.11014463795360108,-0.1,1.0,0.0,386.0,714.0,0.0,0,1900.0,1
751,751,-0.28022148316509177,-0.3,0.0,1.0,313.0,980.0,1.0,0,377.0,1
752,752,-0.371464696547939,-0.4,0.0,1.0,263.0,766.0,1.0,0,501.0,1
753,753,-0.22490014542359849,-0.2,1.0,0.0,362.0,643.0,0.0,0,375.0,1
754,754,0.5431345432079461,0.5,1.0,1.0,482.0,741.0,1.0,1,637.0,1
755,755,-0.16757205577550371,-0.2,0.0,1.0,320.0,609.0,1.0,0,71.0,1
756,756,-0.8435525008539221,-0.8,1.0,0.0,444.0,686.0,0.0,0,210.0,1
757,757,-0.6133350400959856,-0.6,0.0,1.0,343.0,757.0,1.0,0,480.0,1
758,758,-0.19099596520761153,-0.2,1.0,0.0,374.0,754.0,0.0,0,592.0,1
759,759,0.24681825654583178,0.2,0.0,0.0,368.0,908.0,0.0,1,354.0,1
760,760,0.166031993950995,0.2,0.0,0.0,486.0,711.0,0.0,1,483.0,1
761,761,-0.36265845863298996,-0.4,1.0,0.0,365.0,807.0,0.0,0,228.0,1
762,762,-0.7279195773142639,-0.7,1.0,0.0,474.0,687.0,0.0,0,179.0,1
763,763,-0.8914848349865363,-0.9,1.0,0.0,426.0,903.0,0.0,0,141.0,1
764,764,-0.7111452116862891,-0.7,1.0,0.0,461.0,596.0,0.0,0,263.0,1
765,765,-0.668903821586874,-0.7,1.0,0.0,422.0,805.0,0.0,0,203.0,1
766,766,-0.3022828918082182,-0.3,1.0,0.0,491.0,978.0,0.0,0,711.0,1
767,767,0.8009406814437728,0.8,1.0,1.0,357.0,967.0,1.0,1,286.0,1
768,768,0.769511772292285,0.8,1.0,1.0,293.0,627.0,1.0,1,130.0,1
769,769,-0.8496075216276578,-0.8,1.0,0.0,406.0,671.0,0.0,0,313.0,1
770,770,0.7043971751800792,0.7,0.0,0.0,342.0,616.0,0.0,1,382.0,1
771,771,-0.5929520252017295,-0.6,0.0,1.0,308.0,678.0,1.0,0,324.0,1
772,772,-0.2643959239952003,-0.3,1.0,0.0,318.0,927.0,0.0,0,485.0,1
773,773,-0.6368496796848251,-0.6,1.0,0.0,472.0,733.0,0.0,0,315.0,1
774,774,0.6226862407977002,0.6,1.0,1.0,437.0,692.0,1.0,1,341.0,1
775,775,0.3490120106011011,0.3,1.0,1.0,287.0,831.0,1.0,1,422.0,1
776,776,-0.06575417772542369,-0.1,0.0,1.0,413.0,596.0,1.0,0,1991.0,1
777,777,0.5863595595583276,0.6,0.0,0.0,396.0,809.0,0.0,1,155.0,1
778,778,0.7665850464852034,0.8,1.0,1.0,439.0,504.0,1.0,1,397.0,1
779,779,0.07412280477481359,0.1,1.0,1.0,388.0,691.0,0.0,0,-19.0,0
780,780,0.34818856588305225,0.3,0.0,0.0,430.0,560.0,0.0,1,280.0,1
781,781,-0.6275088284342203,-0.6,0.0,1.0,407.0,780.0,1.0,0,133.0,1
782,782,-0.599115715718153,-0.6,1.0,0.0,454.0,716.0,0.0,0,340.0,1
783,783,-0.13316467960162526,-0.1,0.0,1.0,418.0,517.0,1.0,0,1175.0,1
784,784,-0.22373326651959524,-0.2,0.0,1.0,408.0,861.0,1.0,0,91.0,1
785,785,-0.08492862529300405,-0.1,1.0,0.0,262.0,972.0,0.0,0,126.0,1
786,786,-0.12755029988799527,-0.1,0.0,1.0,403.0,683.0,1.0,0,1174.0,1
787,787,0.7746629354165412,0.8,1.0,1.0,347.0,752.0,1.0,1,131.0,1
788,788,0.14385579379512292,0.1,0.0,0.0,343.0,586.0,0.0,1,931.0,1
789,789,0.41108286984935394,0.4,0.0,0.0,306.0,753.0,0.0,1,121.0,1
790,790,0.4805984118166339,0.5,0.0,0.0,434.0,883.0,0.0,1,183.0,1
791,791,-0.41309626942014444,-0.4,1.0,0.0,307.0,808.0,0.0,0,235.0,1
792,792,0.7375895712443351,0.7,1.0,1.0,474.0,895.0,1.0,1,161.0,1
793,793,0.8540685246677077,0.9,0.0,0.0,356.0,970.0,0.0,1,304.0,1
794,794,-0.6348697518709638,-0.6,0.0,1.0,496.0,855.0,1.0,0,359.0,1
795,795,0.05034741071424986,0.1,0.0,0.0,307.0,956.0,0.0,1,1737.0,1
796,796,0.5794424111631816,0.6,0.0,0.0,473.0,515.0,0.0,1,252.0,1
797,797,0.31092345866011206,0.3,1.0,1.0,482.0,657.0,1.0,1,431.0,1
798,798,-0.5170279492846915,-0.5,1.0,0.0,400.0,908.0,0.0,0,-38.0,1
799,799,-0.8861750310444256,-0.9,0.0,1.0,340.0,887.0,1.0,0,153.0,1
800,800,0.13371739024408547,0.1,1.0,1.0,351.0,821.0,1.0,1,1348.0,1
801,801,0.20325924340709645,0.2,0.0,0.0,482.0,708.0,0.0,1,570.0,1
802,802,-0.006767884632110088,-0.0,0.0,1.0,357.0,992.0,1.0,0,1651.0,1
803,803,0.5006735665515568,0.5,1.0,1.0,492.0,864.0,1.0,1,254.0,1
804,804,0.7409203917718942,0.7,0.0,0.0,403.0,782.0,0.0,1,185.0,1
805,805,0.07839914615581123,0.1,1.0,1.0,334.0,875.0,0.0,0,1791.0,0
806,806,0.768367084984014,0.8,1.0,1.0,318.0,993.0,1.0,1,239.0,1
807,807,-0.3267916935133036,-0.3,0.0,1.0,309.0,968.0,1.0,0,813.0,1
808,808,-0.6816871238181136,-0.7,0.0,1.0,307.0,780.0,1.0,0,153.0,1
809,809,0.20605149028327785,0.2,1.0,1.0,401.0,823.0,1.0,1,676.0,1
810,810,-0.028654067283018003,-0.0,1.0,0.0,260.0,566.0,0.0,0,1604.0,1
811,811,0.5690816284536958,0.6,0.0,0.0,320.0,811.0,0.0,1,389.0,1
812,812,-0.7705392711558512,-0.8,0.0,1.0,308.0,832.0,1.0,0,320.0,1
813,813,-0.10270085566320364,-0.1,0.0,1.0,426.0,871.0,1.0,0,1703.0,1
814,814,-0.10039231174875707,-0.1,1.0,0.0,328.0,872.0,0.0,0,1200.0,1
815,815,0.2924008941225841,0.3,1.0,1.0,319.0,737.0,1.0,1,414.0,1
816,816,-0.18110244089890037,-0.2,0.0,1.0,424.0,869.0,1.0,0,517.0,1
817,817,-0.20781459399614843,-0.2,0.0,1.0,425.0,637.0,1.0,0,728.0,1
818,818,-0.5811275559754074,-0.6,1.0,0.0,270.0,836.0,0.0,0,364.0,1
819,819,-0.5876723721966528,-0.6,1.0,0.0,255.0,979.0,1.0,1,-234.0,0
820,820,0.6606431516801327,0.7,1.0,1.0,499.0,804.0,1.0,1,197.0,1
821,821,-0.7943130450097796,-0.8,1.0,0.0,314.0,873.0,0.0,0,353.0,1
822,822,-0.2758666173823645,-0.3,1.0,0.0,390.0,757.0,0.0,0,613.0,1
823,823,-0.10698439404871385,-0.1,1.0,0.0,409.0,554.0,0.0,0,897.0,1
824,824,0.01578009892628418,0.0,0.0,0.0,328.0,899.0,0.0,1,1643.0,1
825,825,0.32393468926098123,0.3,1.0,1.0,367.0,779.0,1.0,1,414.0,1
826,826,0.2888707674360277,0.3,1.0,1.0,314.0,723.0,1.0,1,183.0,1
827,827,0.05416755681755736,0.1,0.0,0.0,387.0,734.0,0.0,1,1879.0,1
828,828,0.42587749214245696,0.4,1.0,1.0,337.0,862.0,1.0,1,561.0,1
829,829,-0.3571278937927085,-0.4,0.0,1.0,446.0,572.0,1.0,0,742.0,1
830,830,0.7748146765561518,0.8,1.0,1.0,322.0,878.0,1.0,1,190.0,1
831,831,-0.20083674828138465,-0.2,1.0,0.0,479.0,640.0,0.0,0,141.0,1
832,832,-0.05032347526898595,-0.1,0.0,1.0,256.0,519.0,1.0,0,2225.0,1
833,833,0.05634108704088314,0.1,1.0,1.0,354.0,583.0,0.0,0,2063.0,0
834,834,-0.3886070754803572,-0.4,1.0,0.0,309.0,801.0,0.0,0,150.0,1
835,835,-0.1286020457119984,-0.1,1.0,0.0,449.0,840.0,0.0,0,381.0,1
836,836,0.7190211253091338,0.7,1.0,1.0,478.0,596.0,1.0,1,286.0,1
837,837,-0.4660792412401377,-0.5,1.0,0.0,482.0,578.0,0.0,0,220.0,1
838,838,-0.49479878084540807,-0.5,0.0,1.0,405.0,899.0,1.0,0,126.0,1
839,839,-0.14905144611039323,-0.1,0.0,1.0,473.0,854.0,1.0,0,393.0,1
840,840,-0.6592605574924966,-0.7,0.0,1.0,346.0,969.0,1.0,0,255.0,1
841,841,0.22149601384901485,0.2,0.0,0.0,288.0,991.0,0.0,1,491.0,1
842,842,-0.5786831842754101,-0.6,1.0,0.0,316.0,537.0,0.0,0,227.0,1
843,843,-0.720773188492104,-0.7,0.0,1.0,295.0,960.0,1.0,0,115.0,1
844,844,0.1912581592503787,0.2,0.0,0.0,316.0,573.0,0.0,1,451.0,1
845,845,-0.1281326818989188,-0.1,0.0,1.0,269.0,555.0,1.0,0,886.0,1
846,846,-0.47173333226479136,-0.5,1.0,0.0,342.0,583.0,0.0,0,295.0,1
847,847,-0.2849481115102285,-0.3,0.0,1.0,269.0,962.0,1.0,0,379.0,1
848,848,-0.4073721262828071,-0.4,1.0,0.0,408.0,970.0,0.0,0,752.0,1
849,849,-0.6378179344783246,-0.6,0.0,1.0,316.0,932.0,1.0,0,242.0,1
850,850,-0.05795652410413843,-0.1,1.0,0.0,469.0,843.0,0.0,0,1168.0,1
851,851,0.7211552504412012,0.7,1.0,1.0,454.0,867.0,1.0,1,139.0,1
852,852,-0.5704268319325906,-0.6,0.0,1.0,279.0,669.0,1.0,0,192.0,1
853,853,-0.46123912036914694,-0.5,1.0,0.0,391.0,851.0,0.0,0,198.0,1
854,854,-0.49231489456636185,-0.5,1.0,0.0,412.0,654.0,0.0,0,144.0,1
855,855,-0.16354814754060665,-0.2,1.0,0.0,393.0,681.0,0.0,0,616.0,1
856,856,0.7239672271740535,0.7,0.0,0.0,365.0,776.0,0.0,1,209.0,1
857,857,0.8887565865623427,0.9,0.0,0.0,398.0,655.0,0.0,1,417.0,1
858,858,-0.3858267652714471,-0.4,0.0,1.0,319.0,500.0,1.0,0,511.0,1
859,859,-0.5759869428026339,-0.6,0.0,1.0,416.0,508.0,1.0,0,336.0,1
860,860,-0.7656962602803178,-0.8,0.0,1.0,282.0,777.0,1.0,0,371.0,1
861,861,-0.8688281560312362,-0.9,0.0,1.0,471.0,704.0,1.0,0,205.0,1
862,862,-0.553246543281293,-0.6,0.0,1.0,437.0,802.0,1.0,0,391.0,1
863,863,0.40026196595898134,0.4,1.0,1.0,449.0,782.0,1.0,1,559.0,1
864,864,0.5855705733722968,0.6,0.0,0.0,340.0,863.0,0.0,1,267.0,1
865,865,0.882387971597251,0.9,0.0,0.0,479.0,921.0,0.0,1,220.0,1
866,866,0.6185932301612408,0.6,1.0,1.0,319.0,957.0,1.0,1,494.0,1
867,867,-0.7591367596010368,-0.8,1.0,0.0,304.0,815.0,0.0,0,201.0,1
868,868,0.24455222105058694,0.2,0.0,0.0,487.0,928.0,0.0,1,435.0,1
869,869,-0.7547591841639676,-0.8,0.0,1.0,374.0,540.0,1.0,0,366.0,1
870,870,0.8247916711960309,0.8,1.0,1.0,325.0,927.0,1.0,1,138.0,1
871,871,-0.5412045075716505,-0.5,0.0,1.0,306.0,854.0,1.0,0,300.0,1
872,872,0.3262374616421174,0.3,0.0,0.0,452.0,917.0,0.0,1,181.0,1
873,873,-0.1516479526450425,-0.2,0.0,1.0,489.0,962.0,1.0,0,299.0,1
874,874,-0.16505219294911122,-0.2,1.0,0.0,461.0,685.0,0.0,0,794.0,1
875,875,0.11186787172028334,0.1,0.0,0.0,256.0,724.0,0.0,1,1260.0,1
876,876,0.20484229432533618,0.2,1.0,1.0,367.0,506.0,1.0,1,817.0,1
877,877,0.820381606926255,0.8,1.0,1.0,315.0,530.0,1.0,1,235.0,1
878,878,0.17021149400586022,0.2,0.0,0.0,356.0,617.0,0.0,1,537.0,1
879,879,0.18743052289005913,0.2,0.0,0.0,294.0,926.0,0.0,1,510.0,1
880,880,-0.8874133408014085,-0.9,0.0,1.0,269.0,947.0,1.0,0,234.0,1
881,881,-0.2017051304902966,-0.2,1.0,0.0,484.0,596.0,0.0,0,930.0,1
882,882,0.3602149089716741,0.4,0.0,0.0,446.0,732.0,1.0,0,-128.0,0
883,883,0.4574655252994474,0.5,0.0,0.0,406.0,903.0,0.0,1,161.0,1
884,884,-0.00790035438842318,-0.0,0.0,1.0,488.0,953.0,1.0,0,279.0,1
885,885,-0.8377633179765429,-0.8,1.0,0.0,488.0,821.0,0.0,0,171.0,1
886,886,0.7721428074858235,0.8,1.0,1.0,285.0,805.0,1.0,1,160.0,1
887,887,0.3543027298768141,0.4,0.0,0.0,438.0,902.0,0.0,1,320.0,1
888,888,-0.4188962807373962,-0.4,0.0,1.0,482.0,909.0,1.0,0,169.0,1
889,889,0.41051033379962754,0.4,0.0,0.0,448.0,744.0,0.0,1,318.0,1
890,890,0.5608055419149677,0.6,0.0,0.0,255.0,517.0,0.0,1,128.0,1
891,891,-0.653108018235599,-0.7,1.0,0.0,351.0,843.0,0.0,0,186.0,1
892,892,-0.02302542986717282,-0.0,0.0,1.0,476.0,943.0,0.0,1,1581.0,0
893,893,-0.061926760121895796,-0.1,1.0,0.0,314.0,640.0,0.0,0,1106.0,1
894,894,0.03774920238365731,0.0,1.0,1.0,327.0,886.0,0.0,0,1417.0,0
895,895,0.32125303278741935,0.3,0.0,0.0,382.0,753.0,0.0,1,485.0,1
896,896,0.1777528011335242,0.2,0.0,0.0,397.0,896.0,0.0,1,377.0,1
897,897,-0.3858093582388573,-0.4,0.0,1.0,350.0,896.0,1.0,0,794.0,1
898,898,-0.6928229160184847,-0.7,1.0,0.0,312.0,581.0,0.0,0,357.0,1
899,899,-0.7762528085219107,-0.8,0.0,1.0,329.0,576.0,1.0,0,375.0,1
900,900,0.7583256325274573,0.8,0.0,0.0,307.0,736.0,0.0,1,277.0,1
901,901,-0.1713908756375847,-0.2,1.0,0.0,413.0,875.0,0.0,0,282.0,1
902,902,-0.8429128039652937,-0.8,1.0,0.0,316.0,949.0,0.0,0,285.0,1
903,903,-0.7574024592980219,-0.8,1.0,0.0,313.0,716.0,0.0,0,491.0,1
904,904,-0.08462277755608993,-0.1,1.0,0.0,434.0,521.0,0.0,0,1755.0,1
905,905,-0.7119603431212318,-0.7,1.0,0.0,470.0,624.0,0.0,0,456.0,1
906,906,0.47377425592088473,0.5,1.0,1.0,365.0,752.0,1.0,1,413.0,1
907,907,0.739319700433403,0.7,0.0,0.0,336.0,753.0,0.0,1,271.0,1
908,908,-0.4064545909356629,-0.4,1.0,0.0,287.0,650.0,0.0,0,203.0,1
909,909,-0.5372872324047844,-0.5,1.0,0.0,288.0,809.0,0.0,0,273.0,1
910,910,-0.22070134292451282,-0.2,1.0,0.0,252.0,895.0,0.0,0,113.0,1
911,911,-0.4394796860851459,-0.4,0.0,1.0,361.0,799.0,1.0,0,340.0,1
912,912,0.8055833626089127,0.8,1.0,1.0,278.0,964.0,1.0,1,328.0,1
913,913,0.5311263087220971,0.5,1.0,1.0,279.0,543.0,1.0,1,308.0,1
914,914,-0.2255947139273875,-0.2,0.0,1.0,425.0,793.0,1.0,0,552.0,1
915,915,0.7792826399317826,0.8,0.0,0.0,486.0,685.0,0.0,1,139.0,1
916,916,0.3487262019848175,0.3,1.0,1.0,488.0,563.0,1.0,1,459.0,1
917,917,0.034896531290393495,0.0,0.0,0.0,489.0,757.0,0.0,1,664.0,1
918,918,0.3587114484677941,0.4,1.0,1.0,444.0,855.0,1.0,1,711.0,1
919,919,-0.7517434581151792,-0.8,1.0,0.0,443.0,918.0,0.0,0,199.0,1
920,920,0.7367793622753452,0.7,1.0,1.0,301.0,588.0,1.0,1,201.0,1
921,921,0.7777346513154809,0.8,1.0,1.0,334.0,526.0,1.0,1,280.0,1
922,922,-0.7119682181345756,-0.7,1.0,0.0,399.0,782.0,0.0,0,189.0,1
923,923,-0.10129539737029258,-0.1,1.0,0.0,304.0,827.0,0.0,0,609.0,1
924,924,-0.405509033573842,-0.4,1.0,0.0,424.0,692.0,0.0,0,524.0,1
925,925,-0.42366568640302255,-0.4,1.0,0.0,271.0,758.0,0.0,0,271.0,1
926,926,-0.48988194836980076,-0.5,1.0,0.0,493.0,901.0,0.0,0,436.0,1
927,927,-0.24205049944868462,-0.2,0.0,1.0,427.0,791.0,1.0,0,202.0,1
928,928,-0.4657802922488686,-0.5,0.0,1.0,306.0,681.0,1.0,0,193.0,1
929,929,-0.40552673968204345,-0.4,1.0,0.0,340.0,558.0,0.0,0,292.0,1
930,930,0.5103095170104187,0.5,0.0,0.0,358.0,683.0,0.0,1,209.0,1
931,931,0.7823939783538142,0.8,0.0,0.0,452.0,545.0,0.0,1,183.0,1
932,932,0.14871669520857667,0.1,0.0,0.0,456.0,884.0,0.0,1,700.0,1
933,933,-0.46313676075835525,-0.5,1.0,0.0,354.0,730.0,0.0,0,396.0,1
934,934,-0.5128517013302422,-0.5,0.0,1.0,324.0,674.0,1.0,0,252.0,1
935,935,0.1475122232149101,0.1,1.0,1.0,267.0,530.0,1.0,1,1293.0,1
936,936,0.5588232067960607,0.6,1.0,1.0,397.0,964.0,1.0,1,229.0,1
937,937,-0.3266254029731499,-0.3,1.0,0.0,269.0,799.0,0.0,0,392.0,1
938,938,0.38446879526346034,0.4,0.0,0.0,309.0,840.0,0.0,1,231.0,1
939,939,-0.12141263148531911,-0.1,0.0,1.0,407.0,851.0,1.0,0,1022.0,1
940,940,0.6830770936738212,0.7,1.0,1.0,291.0,523.0,1.0,1,116.0,1
941,941,-0.33391535715559983,-0.3,0.0,1.0,480.0,766.0,1.0,0,444.0,1
942,942,0.2322010091864043,0.2,1.0,1.0,480.0,596.0,1.0,1,964.0,1
943,943,0.5007144055943878,0.5,1.0,1.0,296.0,686.0,1.0,1,818.0,1
944,944,-0.10803963810819761,-0.1,1.0,0.0,328.0,501.0,0.0,0,1011.0,1
945,945,-0.5348721639948051,-0.5,1.0,0.0,427.0,517.0,0.0,0,276.0,1
946,946,0.5149435927439804,0.5,0.0,0.0,400.0,667.0,0.0,1,353.0,1
947,947,-0.8741701563885064,-0.9,1.0,0.0,404.0,675.0,0.0,0,281.0,1
948,948,-0.7971775536294172,-0.8,0.0,1.0,447.0,643.0,1.0,0,50.0,1
949,949,0.03185704238571818,0.0,0.0,0.0,472.0,863.0,0.0,1,1665.0,1
950,950,-0.03448354284479538,-0.0,0.0,1.0,376.0,739.0,1.0,0,165.0,1
951,951,-0.3398722047062749,-0.3,1.0,0.0,362.0,701.0,0.0,0,527.0,1
952,952,0.599209862650851,0.6,1.0,1.0,291.0,721.0,1.0,1,288.0,1
953,953,0.281768374550032,0.3,0.0,0.0,330.0,617.0,0.0,1,323.0,1
954,954,-0.3255631886433721,-0.3,1.0,0.0,334.0,681.0,0.0,0,445.0,1
955,955,0.835259277684523,0.8,1.0,1.0,393.0,956.0,1.0,1,191.0,1
956,956,0.2532995967073016,0.3,0.0,0.0,346.0,511.0,0.0,1,423.0,1
957,957,0.5530396104413907,0.6,1.0,1.0,424.0,853.0,1.0,1,93.0,1
958,958,-0.33227840681174925,-0.3,1.0,0.0,284.0,704.0,0.0,0,282.0,1
959,959,0.06964326743036242,0.1,1.0,1.0,384.0,982.0,1.0,1,1634.0,1
960,960,0.5031957612782009,0.5,0.0,0.0,483.0,640.0,0.0,1,317.0,1
961,961,-0.04760924503040187,-0.0,1.0,0.0,322.0,669.0,0.0,0,2009.0,1
962,962,0.1945021366498404,0.2,1.0,1.0,417.0,990.0,0.0,0,13.0,0
963,963,0.09789960927786523,0.1,0.0,0.0,325.0,610.0,0.0,1,605.0,1
964,964,-0.5424948427827745,-0.5,0.0,1.0,407.0,650.0,1.0,0,333.0,1
965,965,-0.41152148349326534,-0.4,1.0,0.0,334.0,683.0,0.0,0,93.0,1
966,966,-0.7859116199073171,-0.8,1.0,0.0,271.0,830.0,0.0,0,139.0,1
967,967,0.2044373004910861,0.2,1.0,1.0,356.0,634.0,1.0,1,410.0,1
968,968,-0.6681271316946781,-0.7,0.0,1.0,265.0,838.0,1.0,0,117.0,1
969,969,0.1958904711640358,0.2,1.0,1.0,442.0,869.0,1.0,1,999.0,1
970,970,-0.4614432775396303,-0.5,1.0,0.0,363.0,961.0,0.0,0,346.0,1
971,971,-0.48856306406175853,-0.5,0.0,1.0,451.0,577.0,1.0,0,612.0,1
972,972,-0.6052084063113162,-0.6,0.0,1.0,442.0,892.0,1.0,0,376.0,1
973,973,0.7262099378159436,0.7,0.0,0.0,302.0,584.0,0.0,1,154.0,1
974,974,0.3713154246841953,0.4,1.0,1.0,397.0,745.0,1.0,1,298.0,1
975,975,-0.7110281741289607,-0.7,1.0,0.0,299.0,901.0,0.0,0,160.0,1
976,976,0.8815314607954624,0.9,1.0,1.0,471.0,955.0,1.0,1,134.0,1
977,977,0.4335601064913247,0.4,0.0,0.0,449.0,828.0,0.0,1,213.0,1
978,978,-0.03822492067615069,-0.0,1.0,0.0,460.0,629.0,0.0,0,1911.0,1
979,979,0.6722111993691474,0.7,0.0,0.0,416.0,608.0,0.0,1,176.0,1
980,980,0.0720764796127511,0.1,1.0,1.0,448.0,824.0,1.0,1,1268.0,1
981,981,0.4069387537926722,0.4,1.0,1.0,490.0,666.0,1.0,1,364.0,1
982,982,0.8559012727781944,0.9,0.0,0.0,290.0,626.0,0.0,1,254.0,1
983,983,-0.4742473489722479,-0.5,0.0,1.0,315.0,920.0,1.0,0,225.0,1
984,984,0.4513020967460798,0.5,1.0,1.0,251.0,781.0,1.0,1,418.0,1
985,985,0.24782790892049722,0.2,0.0,0.0,409.0,658.0,0.0,1,313.0,1
986,986,-0.4539228522724162,-0.5,0.0,1.0,385.0,929.0,1.0,0,326.0,1
987,987,-0.23803187628132116,-0.2,1.0,0.0,332.0,560.0,0.0,0,1268.0,1
988,988,-0.2332561577175537,-0.2,1.0,0.0,384.0,721.0,0.0,0,315.0,1
989,989,0.032992726096750635,0.0,0.0,0.0,335.0,833.0,0.0,1,472.0,1
990,990,0.418923187047168,0.4,1.0,1.0,252.0,704.0,1.0,1,294.0,1
991,991,0.2646929353742181,0.3,1.0,1.0,400.0,585.0,1.0,1,515.0,1
992,992,-0.6349332301154245,-0.6,1.0,0.0,444.0,884.0,0.0,0,172.0,1
993,993,-0.5849742704797236,-0.6,0.0,1.0,427.0,693.0,1.0,0,160.0,1
994,994,-0.6776459064675315,-0.7,0.0,1.0,490.0,840.0,1.0,0,130.0,1
995,995,0.03640210484463047,0.0,1.0,1.0,324.0,985.0,0.0,0,1691.0,0
996,996,-0.48025554414172583,-0.5,1.0,0.0,316.0,896.0,0.0,0,488.0,1
997,997,-0.526733783194206,-0.5,0.0,1.0,476.0,507.0,1.0,0,197.0,1
998,998,0.2504926675985767,0.3,0.0,0.0,398.0,740.0,0.0,1,632.0,1
999,999,0.07818481156022661,0.1,0.0,0.0,363.0,598.0,0.0,1,1319.0,1
1000,1000,0.8303762490518228,0.8,0.0,0.0,418.0,935.0,0.0,1,167.0,1
1001,1001,0.4332055047200739,0.4,0.0,0.0,286.0,997.0,0.0,1,257.0,1
1002,1002,0.5115070327094374,0.5,0.0,0.0,452.0,528.0,0.0,1,280.0,1
1003,1003,-0.5572775998745123,-0.6,0.0,1.0,470.0,764.0,1.0,0,286.0,1
1004,1004,0.3829572159090323,0.4,0.0,0.0,284.0,577.0,0.0,1,639.0,1
1005,1005,0.4325277087406493,0.4,0.0,0.0,291.0,986.0,0.0,1,313.0,1
1006,1006,0.48711886905518076,0.5,1.0,1.0,472.0,671.0,1.0,1,377.0,1
1007,1007,-0.13013266573389104,-0.1,0.0,1.0,300.0,711.0,1.0,0,479.0,1
1008,1008,-0.3772445502897728,-0.4,0.0,1.0,251.0,757.0,1.0,0,722.0,1
1009,1009,0.4323671592460582,0.4,1.0,1.0,480.0,673.0,1.0,1,187.0,1
1010,1010,0.7127923931888392,0.7,0.0,0.0,478.0,754.0,0.0,1,228.0,1
1011,1011,0.7592729672125283,0.8,0.0,0.0,486.0,868.0,0.0,1,216.0,1
1012,1012,-0.6161083225313471,-0.6,0.0,1.0,481.0,890.0,1.0,0,-81.0,1
1013,1013,-0.7626769193065079,-0.8,0.0,1.0,292.0,780.0,1.0,0,358.0,1
1014,1014,0.5509846103172186,0.6,0.0,0.0,497.0,772.0,0.0,1,211.0,1
1015,1015,0.4823810044823994,0.5,0.0,0.0,334.0,874.0,0.0,1,352.0,1
1016,1016,0.8550894257667115,0.9,0.0,0.0,480.0,847.0,0.0,1,183.0,1
1017,1017,0.5533474852819263,0.6,0.0,0.0,382.0,964.0,0.0,1,374.0,1
1018,1018,-0.6210234219440048,-0.6,1.0,0.0,324.0,873.0,0.0,0,143.0,1
1019,1019,-0.17238281913028686,-0.2,0.0,1.0,448.0,576.0,1.0,0,456.0,1
1020,1020,-0.3461436997728271,-0.3,1.0,0.0,260.0,764.0,0.0,0,386.0,1
1021,1021,-0.02214070879191854,-0.0,1.0,0.0,482.0,671.0,1.0,1,527.0,0
1022,1022,0.829292480797753,0.8,0.0,0.0,295.0,557.0,0.0,1,238.0,1
1023,1023,-0.8170202257377677,-0.8,1.0,0.0,254.0,926.0,0.0,0,130.0,1
1024,1024,-0.7370927147594851,-0.7,1.0,0.0,466.0,904.0,0.0,0,170.0,1
1025,1025,0.723856367279411,0.7,1.0,1.0,386.0,929.0,1.0,1,85.0,1
1026,1026,-0.14340757004294025,-0.1,1.0,0.0,406.0,794.0,0.0,0,910.0,1
1027,1027,0.7384790914480356,0.7,0.0,0.0,405.0,921.0,0.0,1,334.0,1
1028,1028,0.3168037776854983,0.3,0.0,0.0,434.0,524.0,0.0,1,522.0,1
1029,1029,-0.30789612024435054,-0.3,0.0,1.0,450.0,906.0,1.0,0,174.0,1
1030,1030,-0.1994927788417571,-0.2,1.0,0.0,318.0,700.0,0.0,0,752.0,1
1031,1031,0.29406710996332264,0.3,0.0,0.0,395.0,727.0,0.0,1,1248.0,1
1032,1032,0.1225225731724745,0.1,0.0,0.0,322.0,694.0,0.0,1,1104.0,1
1033,1033,-0.8862871622930751,-0.9,0.0,1.0,314.0,996.0,1.0,0,120.0,1
1034,1034,0.16572019637386448,0.2,1.0,1.0,340.0,803.0,1.0,1,1857.0,1
1035,1035,-0.2842072124777254,-0.3,1.0,0.0,488.0,715.0,0.0,0,607.0,1
1036,1036,0.36491955001096665,0.4,1.0,1.0,374.0,662.0,1.0,1,144.0,1
1037,1037,0.8456221276148245,0.8,1.0,1.0,405.0,955.0,1.0,1,350.0,1
1038,1038,-0.04700978379350951,-0.0,1.0,0.0,497.0,793.0,0.0,0,1710.0,1
1039,1039,0.5446293503448288,0.5,0.0,0.0,495.0,816.0,0.0,1,229.0,1
1040,1040,-0.07176817145292358,-0.1,0.0,1.0,474.0,668.0,1.0,0,1738.0,1
1041,1041,-0.47095601405975757,-0.5,0.0,1.0,431.0,660.0,1.0,0,489.0,1
1042,1042,-0.29252287473748695,-0.3,1.0,0.0,365.0,539.0,0.0,0,646.0,1
1043,1043,0.11692319672585583,0.1,0.0,0.0,479.0,925.0,0.0,1,336.0,1
1044,1044,-0.4008976159615948,-0.4,1.0,0.0,443.0,920.0,0.0,0,367.0,1
1045,1045,-0.07484093144116488,-0.1,1.0,0.0,476.0,575.0,0.0,0,1869.0,1
1046,1046,0.009199723546111982,0.0,1.0,1.0,446.0,672.0,0.0,0,1882.0,0
1047,1047,-0.7772466930828799,-0.8,1.0,0.0,365.0,897.0,0.0,0,248.0,1
1048,1048,0.7498551936134273,0.7,1.0,1.0,307.0,713.0,1.0,1,180.0,1
1049,1049,0.5692097163253064,0.6,0.0,0.0,393.0,597.0,0.0,1,410.0,1
1050,1050,-0.10625994630041613,-0.1,0.0,1.0,254.0,720.0,1.0,0,676.0,1
1051,1051,-0.588322660914117,-0.6,1.0,0.0,373.0,523.0,0.0,0,294.0,1
1052,1052,0.1610691590184955,0.2,0.0,0.0,334.0,723.0,0.0,1,233.0,1
1053,1053,0.7364907406320439,0.7,1.0,1.0,449.0,650.0,1.0,1,161.0,1
1054,1054,-0.22849901005168782,-0.2,1.0,0.0,490.0,778.0,0.0,0,422.0,1
1055,1055,0.6363851354052196,0.6,0.0,0.0,445.0,830.0,0.0,1,235.0,1
1056,1056,-0.3973255762005853,-0.4,1.0,0.0,271.0,865.0,0.0,0,184.0,1
1057,1057,-0.6084380219106107,-0.6,0.0,1.0,460.0,508.0,1.0,0,302.0,1
1058,1058,-0.062422205711042844,-0.1,1.0,0.0,478.0,646.0,0.0,0,1006.0,1
1059,1059,-0.7357274786865784,-0.7,1.0,0.0,420.0,618.0,0.0,0,282.0,1
1060,1060,0.39087505575973613,0.4,0.0,0.0,257.0,835.0,0.0,1,268.0,1
1061,1061,-0.06801680435648971,-0.1,0.0,1.0,369.0,792.0,1.0,0,1079.0,1
1062,1062,0.6173045001785064,0.6,1.0,1.0,350.0,991.0,1.0,1,149.0,1
1063,1063,-0.31427337738122474,-0.3,0.0,1.0,278.0,529.0,1.0,0,803.0,1
1064,1064,-0.310888975812467,-0.3,0.0,1.0,335.0,602.0,1.0,0,563.0,1
1065,1065,-0.22789844408910787,-0.2,1.0,0.0,459.0,697.0,0.0,0,224.0,1
1066,1066,-0.7141366445644088,-0.7,0.0,1.0,251.0,800.0,1.0,0,199.0,1
1067,1067,-0.5789038850545443,-0.6,0.0,1.0,446.0,989.0,1.0,0,215.0,1
1068,1068,-0.2165502679544472,-0.2,0.0,1.0,360.0,901.0,1.0,0,199.0,1
1069,1069,-0.16401264429653106,-0.2,0.0,1.0,461.0,939.0,1.0,0,640.0,1
1070,1070,0.7698303314802207,0.8,0.0,0.0,346.0,788.0,0.0,1,246.0,1
1071,1071,0.8724158222174768,0.9,0.0,0.0,423.0,933.0,0.0,1,144.0,1
1072,1072,-0.24697210080512488,-0.2,0.0,1.0,438.0,597.0,1.0,0,815.0,1
1073,1073,-0.8640020775416075,-0.9,0.0,1.0,497.0,751.0,1.0,0,122.0,1
1074,1074,0.5204968103647328,0.5,0.0,0.0,387.0,931.0,0.0,1,222.0,1
1075,1075,0.06336508514899386,0.1,1.0,1.0,307.0,632.0,0.0,0,2061.0,0
1076,1076,-0.8699584834428712,-0.9,0.0,1.0,373.0,920.0,1.0,0,117.0,1
1077,1077,0.7440933937799717,0.7,0.0,0.0,313.0,641.0,0.0,1,186.0,1
1078,1078,0.3059731245247067,0.3,0.0,0.0,269.0,902.0,0.0,1,399.0,1
1079,1079,-0.18025554543109013,-0.2,1.0,0.0,483.0,794.0,0.0,0,223.0,1
1080,1080,-0.05063623566422315,-0.1,1.0,0.0,415.0,938.0,0.0,0,117.0,1
1081,1081,0.3172564330262341,0.3,0.0,0.0,493.0,937.0,0.0,1,230.0,1
1082,1082,0.11335508629890534,0.1,1.0,1.0,405.0,666.0,1.0,1,1149.0,1
1083,1083,-0.22058563445240165,-0.2,1.0,0.0,488.0,702.0,0.0,0,140.0,1
1084,1084,-0.7440721826768969,-0.7,0.0,1.0,398.0,872.0,1.0,0,390.0,1
1085,1085,0.2328255302929897,0.2,1.0,1.0,377.0,793.0,1.0,1,940.0,1
1086,1086,0.4527183514779082,0.5,0.0,0.0,361.0,665.0,0.0,1,324.0,1
1087,1087,0.23975841080060512,0.2,1.0,1.0,376.0,562.0,1.0,1,862.0,1
1088,1088,0.06248061257196835,0.1,1.0,1.0,473.0,757.0,0.0,0,730.0,0
1089,1089,0.586541115827152,0.6,0.0,0.0,430.0,695.0,0.0,1,235.0,1
1090,1090,0.7231670700900118,0.7,1.0,1.0,316.0,586.0,1.0,1,328.0,1
1091,1091,0.5468264720710866,0.5,0.0,0.0,311.0,956.0,0.0,1,443.0,1
1092,1092,0.780157574079143,0.8,0.0,0.0,314.0,683.0,0.0,1,183.0,1
1093,1093,0.769368789510687,0.8,1.0,1.0,436.0,891.0,1.0,1,143.0,1
1094,1094,0.25802583800927315,0.3,0.0,0.0,473.0,812.0,0.0,1,335.0,1
1095,1095,0.26216525233489707,0.3,0.0,0.0,430.0,896.0,0.0,1,454.0,1
1096,1096,-0.1810806647165113,-0.2,1.0,0.0,355.0,929.0,0.0,0,796.0,1
1097,1097,-0.35251222853083586,-0.4,0.0,1.0,424.0,540.0,1.0,0,286.0,1
1098,1098,0.8872544883304864,0.9,0.0,0.0,397.0,557.0,0.0,1,256.0,1
1099,1099,-0.08551518802945868,-0.1,0.0,1.0,317.0,842.0,1.0,0,861.0,1
1100,1100,0.8123365241761108,0.8,1.0,1.0,381.0,602.0,1.0,1,197.0,1
1101,1101,-0.8180613610153927,-0.8,1.0,0.0,435.0,583.0,0.0,0,262.0,1
1102,1102,-0.8024566821160594,-0.8,1.0,0.0,471.0,916.0,0.0,0,103.0,1
1103,1103,-0.026195823265974583,-0.0,1.0,0.0,268.0,887.0,1.0,1,1845.0,0
1104,1104,-0.8199473067715022,-0.8,1.0,0.0,365.0,547.0,0.0,0,168.0,1
1105,1105,0.7096523765920771,0.7,0.0,0.0,339.0,822.0,1.0,0,-161.0,0
1106,1106,-0.3727395658043856,-0.4,0.0,1.0,484.0,510.0,1.0,0,496.0,1
1107,1107,0.6548190192468178,0.7,1.0,1.0,311.0,691.0,1.0,1,368.0,1
1108,1108,-0.5303321607053447,-0.5,0.0,1.0,438.0,562.0,1.0,0,200.0,1
1109,1109,-0.6679327916319151,-0.7,1.0,0.0,429.0,857.0,0.0,0,254.0,1
1110,1110,-0.5249773555515771,-0.5,1.0,0.0,449.0,855.0,0.0,0,306.0,1
1111,1111,0.23838511646766503,0.2,0.0,0.0,453.0,714.0,0.0,1,323.0,1
1112,1112,-0.6503072803188317,-0.7,1.0,0.0,358.0,981.0,0.0,0,51.0,1
1113,1113,-0.760483036017385,-0.8,0.0,1.0,414.0,915.0,1.0,0,261.0,1
1114,1114,0.2641858551923836,0.3,1.0,1.0,334.0,536.0,1.0,1,410.0,1
1115,1115,-0.750585664836585,-0.8,0.0,1.0,253.0,903.0,1.0,0,404.0,1
1116,1116,-0.4051987764729366,-0.4,1.0,0.0,490.0,588.0,0.0,0,322.0,1
1117,1117,0.8584561893118762,0.9,0.0,0.0,380.0,865.0,0.0,1,235.0,1
1118,1118,-0.5480125598008995,-0.5,1.0,0.0,442.0,683.0,0.0,0,405.0,1
1119,1119,-0.5478394758710505,-0.5,0.0,1.0,378.0,708.0,1.0,0,554.0,1
1120,1120,0.840198288605882,0.8,1.0,1.0,461.0,919.0,1.0,1,220.0,1
1121,1121,-0.7504578467591985,-0.8,0.0,1.0,319.0,592.0,1.0,0,179.0,1
1122,1122,-0.49860956238726845,-0.5,0.0,1.0,481.0,815.0,1.0,0,164.0,1
1123,1123,0.6701587910659031,0.7,0.0,0.0,488.0,612.0,0.0,1,340.0,1
1124,1124,0.35643585341773154,0.4,0.0,0.0,350.0,960.0,0.0,1,740.0,1
1125,1125,0.43484245066890603,0.4,0.0,0.0,341.0,573.0,0.0,1,476.0,1
1126,1126,-0.776180935821852,-0.8,0.0,1.0,312.0,970.0,1.0,0,98.0,1
1127,1127,0.8938171979661574,0.9,0.0,0.0,280.0,615.0,0.0,1,105.0,1
1128,1128,0.09703929780024545,0.1,1.0,1.0,374.0,573.0,1.0,1,503.0,1
1129,1129,-0.17819476254679245,-0.2,0.0,1.0,363.0,848.0,1.0,0,939.0,1
1130,1130,0.45623259265861316,0.5,0.0,0.0,404.0,758.0,0.0,1,388.0,1
1131,1131,-0.2870015184546272,-0.3,1.0,0.0,272.0,500.0,0.0,0,458.0,1
1132,1132,0.45352237475263546,0.5,1.0,1.0,441.0,749.0,0.0,0,-130.0,0
1133,1133,-0.4631859919136143,-0.5,1.0,0.0,444.0,633.0,0.0,0,163.0,1
1134,1134,-0.22142293773725075,-0.2,0.0,1.0,273.0,694.0,1.0,0,563.0,1
1135,1135,-0.06234788132458624,-0.1,1.0,0.0,356.0,652.0,0.0,0,482.0,1
1136,1136,-0.8812206612055612,-0.9,1.0,0.0,284.0,672.0,0.0,0,304.0,1
1137,1137,-0.36239228054685657,-0.4,0.0,1.0,486.0,738.0,1.0,0,276.0,1
1138,1138,-0.5857144443017352,-0.6,0.0,1.0,317.0,659.0,1.0,0,404.0,1
1139,1139,-0.8809934731984093,-0.9,1.0,0.0,407.0,557.0,0.0,0,166.0,1
1140,1140,-0.10414759911726601,-0.1,0.0,1.0,294.0,508.0,1.0,0,2198.0,1
1141,1141,-0.8425385356905708,-0.8,0.0,1.0,284.0,987.0,1.0,0,129.0,1
1142,1142,0.27690376562153685,0.3,0.0,0.0,260.0,508.0,0.0,1,562.0,1
1143,1143,0.3668877625756627,0.4,1.0,1.0,255.0,689.0,1.0,1,676.0,1
1144,1144,0.8401040405164276,0.8,0.0,0.0,375.0,733.0,0.0,1,152.0,1
1145,1145,-0.2699571634457065,-0.3,1.0,0.0,316.0,530.0,0.0,0,384.0,1
1146,1146,0.39987386176824213,0.4,0.0,0.0,303.0,995.0,0.0,1,372.0,1
1147,1147,0.025285000149816717,0.0,1.0,1.0,490.0,874.0,0.0,0,196.0,0
1148,1148,-0.6790471544862188,-0.7,0.0,1.0,344.0,565.0,1.0,0,581.0,1
1149,1149,0.3296860587021039,0.3,1.0,1.0,419.0,604.0,1.0,1,327.0,1
1150,1150,0.2770191609405136,0.3,1.0,1.0,268.0,568.0,1.0,1,614.0,1
1151,1151,0.7396835734287798,0.7,1.0,1.0,420.0,882.0,1.0,1,158.0,1
1152,1152,0.8454969520323384,0.8,0.0,0.0,476.0,605.0,0.0,1,299.0,1
1153,1153,-0.5750521750863467,-0.6,0.0,1.0,318.0,640.0,1.0,0,362.0,1
1154,1154,-0.4251178045319811,-0.4,0.0,1.0,460.0,740.0,1.0,0,240.0,1
1155,1155,-0.3425456916923285,-0.3,1.0,0.0,318.0,840.0,0.0,0,212.0,1
1156,1156,-0.36508033196781586,-0.4,1.0,0.0,332.0,638.0,0.0,0,340.0,1
1157,1157,-0.3953290567719433,-0.4,1.0,0.0,333.0,794.0,0.0,0,163.0,1
1158,1158,-0.16577007837375712,-0.2,1.0,0.0,365.0,953.0,0.0,0,352.0,1
1159,1159,-0.5977287673015206,-0.6,0.0,1.0,297.0,938.0,1.0,0,585.0,1
1160,1160,-0.7993568210368589,-0.8,1.0,0.0,470.0,790.0,0.0,0,220.0,1
1161,1161,0.20358075842756918,0.2,0.0,0.0,274.0,774.0,0.0,1,612.0,1
1162,1162,-0.6711343198681774,-0.7,0.0,1.0,312.0,829.0,1.0,0,239.0,1
1163,1163,-0.7345004131059899,-0.7,0.0,1.0,283.0,535.0,1.0,0,222.0,1
1164,1164,-0.7525302343505177,-0.8,1.0,0.0,390.0,840.0,0.0,0,60.0,1
1165,1165,-0.006235126158419035,-0.0,1.0,0.0,404.0,777.0,0.0,0,1819.0,1
1166,1166,0.5544203394629698,0.6,0.0,0.0,381.0,788.0,0.0,1,141.0,1
1167,1167,0.06692304641698821,0.1,0.0,0.0,494.0,677.0,0.0,1,639.0,1
1168,1168,-0.26594159640682113,-0.3,0.0,1.0,333.0,731.0,1.0,0,646.0,1
1169,1169,-0.2981199650036064,-0.3,1.0,0.0,450.0,571.0,0.0,0,789.0,1
1170,1170,0.09384166872895583,0.1,0.0,0.0,321.0,747.0,0.0,1,1932.0,1
1171,1171,-0.4647881936988673,-0.5,0.0,1.0,332.0,834.0,1.0,0,144.0,1
1172,1172,-0.8903670142456503,-0.9,0.0,1.0,421.0,830.0,1.0,0,139.0,1
1173,1173,0.659684876106691,0.7,1.0,1.0,368.0,891.0,1.0,1,321.0,1
1174,1174,-0.41632856078308,-0.4,0.0,1.0,348.0,996.0,1.0,0,206.0,1
1175,1175,-0.24536295261793828,-0.2,1.0,0.0,325.0,858.0,0.0,0,617.0,1
1176,1176,0.5595609750661074,0.6,1.0,1.0,317.0,631.0,1.0,1,212.0,1
1177,1177,0.6296541584835068,0.6,0.0,0.0,492.0,851.0,0.0,1,57.0,1
1178,1178,0.5246007988236064,0.5,1.0,1.0,373.0,881.0,1.0,1,606.0,1
1179,1179,-0.007846644692584781,-0.0,1.0,0.0,384.0,825.0,0.0,0,591.0,1
1180,1180,0.46108854733320703,0.5,0.0,0.0,316.0,901.0,0.0,1,243.0,1
1181,1181,0.11248679713618348,0.1,1.0,1.0,437.0,851.0,0.0,0,1712.0,0
1182,1182,-0.11600702179863809,-0.1,1.0,0.0,312.0,857.0,0.0,0,381.0,1
1183,1183,-0.21644042213305004,-0.2,1.0,0.0,427.0,656.0,0.0,0,657.0,1
1184,1184,0.6395062547390798,0.6,1.0,1.0,464.0,717.0,1.0,1,179.0,1
1185,1185,0.8323766412696411,0.8,0.0,0.0,374.0,823.0,1.0,0,-337.0,0
1186,1186,-0.045591888792492874,-0.0,0.0,1.0,377.0,653.0,1.0,0,740.0,1
1187,1187,-0.8766255280817908,-0.9,0.0,1.0,289.0,739.0,1.0,0,252.0,1
1188,1188,-0.6373557063918656,-0.6,0.0,1.0,346.0,802.0,1.0,0,272.0,1
1189,1189,-0.5561910486082542,-0.6,1.0,0.0,318.0,597.0,0.0,0,95.0,1
1190,1190,0.7739189978807205,0.8,0.0,0.0,406.0,632.0,0.0,1,282.0,1
1191,1191,-0.14416897992550215,-0.1,1.0,0.0,363.0,891.0,0.0,0,1236.0,1
1192,1192,0.5172247545871672,0.5,0.0,0.0,386.0,868.0,0.0,1,206.0,1
1193,1193,-0.33449970750031044,-0.3,1.0,0.0,268.0,728.0,0.0,0,374.0,1
1194,1194,-0.0915142721409814,-0.1,0.0,1.0,293.0,588.0,1.0,0,459.0,1
1195,1195,0.2105888180976293,0.2,0.0,0.0,283.0,666.0,0.0,1,721.0,1
1196,1196,0.6195694741916608,0.6,1.0,1.0,466.0,590.0,1.0,1,254.0,1
1197,1197,0.6587838358676065,0.7,0.0,0.0,483.0,566.0,0.0,1,281.0,1
1198,1198,-0.6320770712345118,-0.6,0.0,1.0,443.0,590.0,1.0,0,307.0,1
1199,1199,0.8329721153076585,0.8,1.0,1.0,488.0,683.0,1.0,1,249.0,1
1200,1200,0.1573598976713143,0.2,1.0,1.0,306.0,871.0,1.0,1,713.0,1
1201,1201,0.7422923506493037,0.7,1.0,1.0,430.0,762.0,1.0,1,288.0,1
1202,1202,0.318703841437206,0.3,0.0,0.0,404.0,639.0,0.0,1,467.0,1
1203,1203,0.718466964961549,0.7,0.0,0.0,381.0,505.0,0.0,1,284.0,1
1204,1204,0.6553853842598995,0.7,0.0,0.0,446.0,503.0,0.0,1,331.0,1
1205,1205,0.4199128104196722,0.4,0.0,0.0,442.0,896.0,0.0,1,352.0,1
1206,1206,0.35880932911493935,0.4,1.0,1.0,496.0,540.0,1.0,1,304.0,1
1207,1207,-0.3282926561832952,-0.3,0.0,1.0,365.0,675.0,1.0,0,440.0,1
1208,1208,-0.45298089733918373,-0.5,1.0,0.0,423.0,829.0,0.0,0,228.0,1
1209,1209,0.7760016508477962,0.8,1.0,1.0,384.0,657.0,1.0,1,719.0,1
1210,1210,0.8950948577687262,0.9,1.0,1.0,475.0,841.0,1.0,1,154.0,1
1211,1211,0.7100694005656248,0.7,1.0,1.0,452.0,993.0,1.0,1,395.0,1
1212,1212,-0.6965963870179184,-0.7,0.0,1.0,493.0,878.0,1.0,0,79.0,1
1213,1213,0.21665646938624927,0.2,0.0,0.0,380.0,631.0,0.0,1,1289.0,1
1214,1214,-0.04728496094457957,-0.0,1.0,0.0,352.0,846.0,0.0,0,1802.0,1
1215,1215,-0.2122113235075831,-0.2,1.0,0.0,293.0,916.0,0.0,0,211.0,1
1216,1216,0.8876112463586642,0.9,0.0,0.0,266.0,724.0,0.0,1,120.0,1
1217,1217,-0.7412637388071697,-0.7,1.0,0.0,389.0,552.0,0.0,0,359.0,1
1218,1218,-0.02016834023427283,-0.0,0.0,1.0,438.0,784.0,1.0,0,1778.0,1
1219,1219,0.5108476650817394,0.5,1.0,1.0,302.0,946.0,1.0,1,222.0,1
1220,1220,0.36316464201642285,0.4,1.0,1.0,339.0,807.0,1.0,1,354.0,1
1221,1221,0.6151999951179338,0.6,0.0,0.0,403.0,817.0,0.0,1,370.0,1
1222,1222,0.0729000624024102,0.1,1.0,1.0,377.0,578.0,1.0,1,605.0,1
1223,1223,-0.40271526159614635,-0.4,1.0,0.0,378.0,816.0,0.0,0,326.0,1
1224,1224,0.043612445511949094,0.0,1.0,1.0,277.0,674.0,1.0,1,2049.0,1
1225,1225,-0.28933877270172526,-0.3,1.0,0.0,258.0,702.0,0.0,0,560.0,1
1226,1226,0.5556628810514502,0.6,0.0,0.0,433.0,681.0,0.0,1,306.0,1
1227,1227,-0.8950444620012815,-0.9,1.0,0.0,428.0,666.0,0.0,0,236.0,1
1228,1228,0.33128037705207014,0.3,1.0,1.0,412.0,585.0,1.0,1,693.0,1
1229,1229,-0.764514602016996,-0.8,0.0,1.0,469.0,790.0,1.0,0,211.0,1
1230,1230,0.4702296984170339,0.5,1.0,1.0,265.0,853.0,1.0,1,212.0,1
1231,1231,-0.8394790504094592,-0.8,1.0,0.0,338.0,736.0,0.0,0,276.0,1
1232,1232,0.07597777904055159,0.1,1.0,1.0,359.0,584.0,0.0,0,2057.0,0
1233,1233,0.4044047079149714,0.4,1.0,1.0,363.0,827.0,1.0,1,320.0,1
1234,1234,0.38006874353517006,0.4,1.0,1.0,412.0,947.0,1.0,1,161.0,1
1235,1235,-0.09061878522151978,-0.1,0.0,1.0,410.0,992.0,1.0,0,1538.0,1
1236,1236,0.7295492407208858,0.7,1.0,1.0,499.0,970.0,1.0,1,291.0,1
1237,1237,-0.8219768099554384,-0.8,0.0,1.0,411.0,847.0,1.0,0,292.0,1
1238,1238,-0.45706735583898384,-0.5,1.0,0.0,432.0,793.0,0.0,0,445.0,1
1239,1239,-0.2650391104807145,-0.3,1.0,0.0,416.0,558.0,0.0,0,296.0,1
1240,1240,0.1295619574053638,0.1,0.0,0.0,260.0,738.0,0.0,1,2002.0,1
1241,1241,0.10358448624085737,0.1,1.0,1.0,342.0,555.0,1.0,1,2083.0,1
1242,1242,0.4671576224553059,0.5,1.0,1.0,424.0,595.0,1.0,1,251.0,1
1243,1243,0.24901504893195592,0.2,1.0,1.0,483.0,984.0,1.0,1,1153.0,1
1244,1244,-0.5177876719039558,-0.5,0.0,1.0,464.0,960.0,1.0,0,216.0,1
1245,1245,0.39898435387865494,0.4,0.0,0.0,412.0,945.0,0.0,1,493.0,1
1246,1246,0.6213142467913403,0.6,0.0,0.0,396.0,616.0,0.0,1,258.0,1
1247,1247,0.46674102770392667,0.5,1.0,1.0,371.0,881.0,1.0,1,658.0,1
1248,1248,0.630263424952683,0.6,0.0,0.0,441.0,502.0,0.0,1,357.0,1
1249,1249,0.8543990342055213,0.9,1.0,1.0,413.0,536.0,1.0,1,201.0,1
1250,1250,0.042380785641593866,0.0,1.0,1.0,268.0,809.0,0.0,0,1683.0,0
1251,1251,0.23268550595665383,0.2,1.0,1.0,332.0,799.0,1.0,1,629.0,1
1252,1252,0.08267152375707831,0.1,1.0,1.0,438.0,865.0,1.0,1,1697.0,1
1253,1253,-0.16046922210696968,-0.2,1.0,0.0,492.0,988.0,0.0,0,1030.0,1
1254,1254,0.16923615406685244,0.2,1.0,1.0,413.0,792.0,1.0,1,1795.0,1
1255,1255,-0.8093729017506146,-0.8,0.0,1.0,290.0,858.0,1.0,0,242.0,1
1256,1256,-0.39107923486668517,-0.4,0.0,1.0,263.0,783.0,1.0,0,444.0,1
1257,1257,-0.328034983323672,-0.3,0.0,1.0,378.0,781.0,1.0,0,731.0,1
1258,1258,0.7645209832526968,0.8,1.0,1.0,266.0,711.0,1.0,1,173.0,1
1259,1259,0.39397629607234463,0.4,0.0,0.0,362.0,714.0,0.0,1,244.0,1
1260,1260,0.2883984291079277,0.3,0.0,0.0,417.0,854.0,0.0,1,789.0,1
1261,1261,0.1694126278457092,0.2,1.0,1.0,275.0,773.0,1.0,1,262.0,1
1262,1262,0.24483359835252683,0.2,1.0,1.0,330.0,607.0,1.0,1,603.0,1
1263,1263,-0.6440621406671545,-0.6,1.0,0.0,452.0,879.0,0.0,0,189.0,1
1264,1264,0.6483697876783773,0.6,1.0,1.0,426.0,925.0,1.0,1,119.0,1
1265,1265,0.7565511346021806,0.8,1.0,1.0,384.0,609.0,1.0,1,147.0,1
1266,1266,0.8497776326294181,0.8,0.0,0.0,465.0,938.0,0.0,1,27.0,1
1267,1267,-0.42643727684636795,-0.4,1.0,0.0,431.0,808.0,0.0,0,431.0,1
1268,1268,0.42248166911246166,0.4,1.0,1.0,421.0,875.0,1.0,1,544.0,1
1269,1269,-0.14458861635960152,-0.1,1.0,0.0,409.0,761.0,0.0,0,-50.0,1
1270,1270,0.4602064878525537,0.5,1.0,1.0,284.0,677.0,1.0,1,579.0,1
1271,1271,0.21193150631933955,0.2,0.0,0.0,320.0,861.0,0.0,1,389.0,1
1272,1272,0.19327511636596018,0.2,0.0,0.0,386.0,682.0,0.0,1,532.0,1
1273,1273,0.37912297399167805,0.4,1.0,1.0,352.0,555.0,1.0,1,513.0,1
1274,1274,-0.6641614416214834,-0.7,1.0,0.0,426.0,553.0,0.0,0,221.0,1
1275,1275,0.2959465026183995,0.3,0.0,0.0,404.0,540.0,0.0,1,196.0,1
1276,1276,-0.8046066846505634,-0.8,0.0,1.0,268.0,913.0,1.0,0,169.0,1
1277,1277,-0.7774355885754033,-0.8,0.0,1.0,321.0,529.0,1.0,0,170.0,1
1278,1278,-0.11081485675621994,-0.1,1.0,0.0,432.0,748.0,0.0,0,450.0,1
1279,1279,0.7042110704518144,0.7,1.0,1.0,454.0,768.0,1.0,1,458.0,1
1280,1280,0.8929090470714144,0.9,0.0,0.0,262.0,707.0,0.0,1,291.0,1
1281,1281,0.0148734565841242,0.0,0.0,0.0,344.0,509.0,0.0,1,2147.0,1
1282,1282,0.41915621949774107,0.4,0.0,0.0,402.0,837.0,0.0,1,481.0,1
1283,1283,-0.770090083931268,-0.8,1.0,0.0,431.0,970.0,0.0,0,209.0,1
1284,1284,0.8221784232755894,0.8,1.0,1.0,459.0,534.0,1.0,1,227.0,1
1285,1285,0.21514371095212848,0.2,1.0,1.0,444.0,756.0,1.0,1,830.0,1
1286,1286,-0.7190510855680639,-0.7,1.0,0.0,338.0,515.0,0.0,0,307.0,1
1287,1287,-0.8510274304032434,-0.9,0.0,1.0,320.0,912.0,1.0,0,148.0,1
1288,1288,-0.33632340017984175,-0.3,1.0,0.0,436.0,601.0,0.0,0,473.0,1
1289,1289,-0.8417128666558721,-0.8,1.0,0.0,266.0,733.0,0.0,0,351.0,1
1290,1290,-0.17103761184425947,-0.2,0.0,1.0,496.0,664.0,1.0,0,500.0,1
1291,1291,0.8967385819139789,0.9,1.0,1.0,400.0,922.0,1.0,1,128.0,1
1292,1292,-0.4693751823228972,-0.5,1.0,0.0,343.0,979.0,0.0,0,218.0,1
1293,1293,-0.37663323627144196,-0.4,0.0,1.0,292.0,547.0,1.0,0,661.0,1
1294,1294,-0.26900291451079916,-0.3,0.0,1.0,289.0,501.0,1.0,0,390.0,1
1295,1295,0.24866646110625668,0.2,0.0,0.0,406.0,560.0,0.0,1,524.0,1
1296,1296,0.3813235509853691,0.4,0.0,0.0,310.0,952.0,0.0,1,468.0,1
1297,1297,-0.5663820089080902,-0.6,0.0,1.0,415.0,872.0,1.0,0,213.0,1
1298,1298,0.30413484039238503,0.3,1.0,1.0,284.0,517.0,1.0,1,249.0,1
1299,1299,0.8468725502609019,0.8,0.0,0.0,469.0,674.0,0.0,1,187.0,1
1300,1300,0.8438612408477982,0.8,0.0,0.0,498.0,847.0,0.0,1,155.0,1
1301,1301,0.49645203473360866,0.5,0.0,0.0,435.0,857.0,0.0,1,308.0,1
1302,1302,-0.44145953830629775,-0.4,1.0,0.0,453.0,966.0,0.0,0,401.0,1
1303,1303,0.3424566216227697,0.3,1.0,1.0,358.0,972.0,1.0,1,410.0,1
1304,1304,-0.40602487560231615,-0.4,0.0,1.0,334.0,562.0,1.0,0,134.0,1
1305,1305,-0.21104223183989734,-0.2,1.0,0.0,360.0,871.0,0.0,0,969.0,1
1306,1306,0.22368259146581437,0.2,1.0,1.0,487.0,634.0,1.0,1,1049.0,1
1307,1307,-0.39501791880649884,-0.4,0.0,1.0,322.0,851.0,1.0,0,107.0,1
1308,1308,0.5688892151820198,0.6,1.0,1.0,433.0,836.0,1.0,1,201.0,1
1309,1309,-0.1408895469288809,-0.1,0.0,1.0,396.0,869.0,1.0,0,65.0,1
1310,1310,0.33793511105621954,0.3,1.0,1.0,279.0,901.0,1.0,1,1050.0,1
1311,1311,-0.521276057550641,-0.5,0.0,1.0,369.0,509.0,1.0,0,322.0,1
1312,1312,-0.45896631464801524,-0.5,0.0,1.0,335.0,644.0,1.0,0,561.0,1
1313,1313,-0.6815983053177723,-0.7,0.0,1.0,338.0,595.0,1.0,0,727.0,1
1314,1314,-0.2507005576283228,-0.3,0.0,1.0,484.0,880.0,1.0,0,286.0,1
1315,1315,0.3593032755772033,0.4,1.0,1.0,441.0,527.0,1.0,1,542.0,1
1316,1316,-0.13021566983407673,-0.1,0.0,1.0,268.0,917.0,1.0,0,1815.0,1
1317,1317,-0.6018649256704875,-0.6,1.0,0.0,271.0,924.0,0.0,0,85.0,1
1318,1318,0.2996104191000425,0.3,0.0,0.0,370.0,817.0,0.0,1,493.0,1
1319,1319,-0.8228518815336281,-0.8,0.0,1.0,412.0,650.0,1.0,0,388.0,1
1320,1320,-0.23109545682191523,-0.2,0.0,1.0,380.0,782.0,1.0,0,708.0,1
1321,1321,-0.36568723529337444,-0.4,1.0,0.0,295.0,628.0,0.0,0,377.0,1
1322,1322,-0.37439514901050563,-0.4,0.0,1.0,307.0,993.0,1.0,0,310.0,1
1323,1323,-0.5574947602643489,-0.6,0.0,1.0,490.0,841.0,1.0,0,589.0,1
1324,1324,-0.5626705728707877,-0.6,0.0,1.0,267.0,849.0,1.0,0,324.0,1
1325,1325,0.510920899222654,0.5,0.0,0.0,487.0,713.0,0.0,1,230.0,1
1326,1326,0.44757270358320544,0.4,0.0,0.0,280.0,806.0,0.0,1,174.0,1
1327,1327,-0.8037453742657529,-0.8,0.0,1.0,466.0,715.0,1.0,0,299.0,1
1328,1328,-0.543966235016268,-0.5,1.0,0.0,379.0,795.0,0.0,0,66.0,1
1329,1329,0.521047782854113,0.5,1.0,1.0,369.0,867.0,1.0,1,404.0,1
1330,1330,-0.72349534278022,-0.7,0.0,1.0,285.0,757.0,1.0,0,198.0,1
1331,1331,-0.6554938205680686,-0.7,0.0,1.0,453.0,948.0,1.0,0,189.0,1
1332,1332,-0.017117157190998267,-0.0,1.0,0.0,463.0,507.0,0.0,0,2030.0,1
1333,1333,-0.03222916533465903,-0.0,0.0,1.0,276.0,877.0,0.0,1,207.0,0
1334,1334,0.7867506199847062,0.8,1.0,1.0,416.0,751.0,1.0,1,183.0,1
1335,1335,0.2710062782147321,0.3,0.0,0.0,435.0,944.0,0.0,1,351.0,1
1336,1336,-0.7840740750029682,-0.8,0.0,1.0,476.0,865.0,1.0,0,149.0,1
1337,1337,0.5007026121741446,0.5,1.0,1.0,307.0,868.0,1.0,1,355.0,1
1338,1338,-0.20740348617361803,-0.2,1.0,0.0,479.0,989.0,0.0,0,292.0,1
1339,1339,-0.09291619233014958,-0.1,0.0,1.0,378.0,835.0,1.0,0,1787.0,1
1340,1340,-0.6093499223463189,-0.6,1.0,0.0,348.0,534.0,0.0,0,318.0,1
1341,1341,-0.16934819601056472,-0.2,1.0,0.0,477.0,695.0,0.0,0,888.0,1
1342,1342,-0.6795359044210971,-0.7,0.0,1.0,368.0,941.0,1.0,0,211.0,1
1343,1343,-0.06464633896689276,-0.1,0.0,1.0,251.0,891.0,1.0,0,1458.0,1
1344,1344,-0.2375576436214153,-0.2,1.0,0.0,353.0,824.0,0.0,0,1223.0,1
1345,1345,-0.5158892360316029,-0.5,0.0,1.0,261.0,530.0,1.0,0,419.0,1
1346,1346,0.259343157708103,0.3,1.0,1.0,315.0,740.0,1.0,1,1535.0,1
1347,1347,0.7528380709194448,0.8,0.0,0.0,365.0,668.0,0.0,1,137.0,1
1348,1348,0.06280024260972328,0.1,1.0,1.0,302.0,696.0,0.0,0,1532.0,0
1349,1349,-0.6525183719229878,-0.7,0.0,1.0,345.0,944.0,1.0,0,311.0,1
1350,1350,0.7416363013160557,0.7,0.0,0.0,273.0,846.0,0.0,1,161.0,1
1351,1351,0.22666113132601728,0.2,1.0,1.0,452.0,937.0,1.0,1,1331.0,1
1352,1352,-0.4491561096548287,-0.4,0.0,1.0,355.0,672.0,1.0,0,463.0,1
1353,1353,0.5156673410066027,0.5,0.0,0.0,471.0,630.0,0.0,1,369.0,1
1354,1354,0.46743886936237644,0.5,1.0,1.0,279.0,937.0,1.0,1,414.0,1
1355,1355,0.05189821120395599,0.1,0.0,0.0,482.0,570.0,0.0,1,748.0,1
1356,1356,-0.021266873759368643,-0.0,0.0,1.0,305.0,518.0,1.0,0,1687.0,1
1357,1357,-0.45779921689892394,-0.5,0.0,1.0,297.0,630.0,1.0,0,413.0,1
1358,1358,0.7840283773564413,0.8,0.0,0.0,291.0,678.0,0.0,1,171.0,1
1359,1359,0.06768619728298075,0.1,1.0,1.0,424.0,966.0,1.0,1,1610.0,1
1360,1360,0.8873375151980435,0.9,0.0,0.0,481.0,625.0,0.0,1,144.0,1
1361,1361,0.29171594787184374,0.3,0.0,0.0,398.0,700.0,0.0,1,282.0,1
1362,1362,-0.4857702076868063,-0.5,1.0,0.0,404.0,759.0,0.0,0,307.0,1
1363,1363,0.03826086583594479,0.0,1.0,1.0,301.0,915.0,0.0,0,1784.0,0
1364,1364,0.8270351149287803,0.8,1.0,1.0,471.0,507.0,1.0,1,162.0,1
1365,1365,0.791501834019115,0.8,1.0,1.0,431.0,778.0,1.0,1,291.0,1
1366,1366,-0.8890882285941822,-0.9,0.0,1.0,261.0,753.0,1.0,0,76.0,1
1367,1367,-0.33924096147196503,-0.3,0.0,1.0,491.0,511.0,1.0,0,768.0,1
1368,1368,0.020673430644389867,0.0,0.0,0.0,454.0,669.0,0.0,1,1097.0,1
1369,1369,-0.032123562967719455,-0.0,0.0,1.0,276.0,642.0,0.0,1,2082.0,0
1370,1370,0.2692978256392754,0.3,1.0,1.0,497.0,631.0,1.0,1,362.0,1
1371,1371,0.05974049555904348,0.1,1.0,1.0,411.0,679.0,1.0,1,180.0,1
1372,1372,0.8331662720919718,0.8,0.0,0.0,282.0,887.0,0.0,1,151.0,1
1373,1373,0.17890663214895752,0.2,1.0,1.0,368.0,675.0,1.0,1,1017.0,1
1374,1374,-0.39738669604422894,-0.4,1.0,0.0,391.0,703.0,0.0,0,386.0,1
1375,1375,0.0030634838213149385,0.0,1.0,1.0,382.0,536.0,0.0,0,1182.0,0
1376,1376,0.17729563455422637,0.2,0.0,0.0,273.0,886.0,0.0,1,381.0,1
1377,1377,0.39453828806743496,0.4,1.0,1.0,305.0,523.0,1.0,1,1352.0,1
1378,1378,0.30941164089755635,0.3,1.0,1.0,471.0,630.0,1.0,1,509.0,1
1379,1379,0.7857091815577534,0.8,0.0,0.0,450.0,797.0,0.0,1,203.0,1
1380,1380,0.4763769347401957,0.5,0.0,0.0,436.0,522.0,0.0,1,252.0,1
1381,1381,-0.6672695956379733,-0.7,0.0,1.0,266.0,714.0,1.0,0,160.0,1
1382,1382,0.766947808161308,0.8,1.0,1.0,289.0,869.0,1.0,1,92.0,1
1383,1383,0.05131246742434181,0.1,1.0,1.0,391.0,733.0,1.0,1,1876.0,1
1384,1384,-0.12845232483842817,-0.1,0.0,1.0,385.0,833.0,1.0,0,492.0,1
1385,1385,0.18938163709901434,0.2,1.0,1.0,494.0,753.0,1.0,1,943.0,1
1386,1386,-0.21317676088639992,-0.2,0.0,1.0,481.0,523.0,1.0,0,476.0,1
1387,1387,-0.8297582879525062,-0.8,0.0,1.0,389.0,624.0,1.0,0,287.0,1
1388,1388,-0.5451376873929903,-0.5,0.0,1.0,376.0,862.0,1.0,0,372.0,1
1389,1389,-0.33038039090489957,-0.3,0.0,1.0,351.0,569.0,1.0,0,440.0,1
1390,1390,0.6951271022138866,0.7,1.0,1.0,375.0,681.0,1.0,1,294.0,1
1391,1391,-0.3308831326660234,-0.3,0.0,1.0,386.0,925.0,1.0,0,289.0,1
1392,1392,0.22013810199692785,0.2,1.0,1.0,368.0,725.0,1.0,1,217.0,1
1393,1393,-0.636618394729505,-0.6,0.0,1.0,398.0,692.0,1.0,0,200.0,1
1394,1394,0.872403673218724,0.9,1.0,1.0,294.0,814.0,1.0,1,152.0,1
1395,1395,0.32091300350880514,0.3,0.0,0.0,312.0,972.0,0.0,1,476.0,1
1396,1396,0.11987732102885518,0.1,0.0,0.0,475.0,652.0,0.0,1,243.0,1
1397,1397,-0.8624963716293332,-0.9,1.0,0.0,498.0,803.0,0.0,0,79.0,1
1398,1398,0.5187885050503215,0.5,1.0,1.0,258.0,622.0,1.0,1,300.0,1
1399,1399,-0.5780047950897118,-0.6,1.0,0.0,379.0,787.0,0.0,0,124.0,1
1400,1400,-0.26604140964651957,-0.3,0.0,1.0,492.0,929.0,1.0,0,349.0,1
1401,1401,-0.808942035962254,-0.8,0.0,1.0,403.0,646.0,1.0,0,391.0,1
1402,1402,-0.8576741092047564,-0.9,1.0,0.0,362.0,921.0,0.0,0,337.0,1
1403,1403,-0.5217784633328182,-0.5,1.0,0.0,376.0,809.0,0.0,0,275.0,1
1404,1404,0.24855364739229746,0.2,0.0,0.0,396.0,678.0,0.0,1,286.0,1
1405,1405,0.17585391497503322,0.2,0.0,0.0,395.0,779.0,0.0,1,346.0,1
1406,1406,-0.17688389669204452,-0.2,1.0,0.0,472.0,597.0,0.0,0,1341.0,1
1407,1407,0.6587753968476605,0.7,1.0,1.0,251.0,976.0,1.0,1,213.0,1
1408,1408,0.005336001628594045,0.0,1.0,1.0,275.0,641.0,0.0,0,2084.0,0
1409,1409,-0.08810586025407185,-0.1,0.0,1.0,413.0,752.0,1.0,0,-105.0,1
1410,1410,-0.632209300397705,-0.6,1.0,0.0,326.0,891.0,0.0,0,233.0,1
1411,1411,-0.322625274449005,-0.3,1.0,0.0,437.0,519.0,0.0,0,684.0,1
1412,1412,0.029882447461531347,0.0,0.0,0.0,483.0,715.0,0.0,1,922.0,1
1413,1413,0.012680351816153568,0.0,1.0,1.0,285.0,648.0,1.0,1,2067.0,1
1414,1414,-0.04371547542779497,-0.0,1.0,0.0,366.0,884.0,0.0,0,930.0,1
1415,1415,0.19998493533453632,0.2,1.0,1.0,328.0,984.0,1.0,1,468.0,1
1416,1416,0.5585219607300945,0.6,0.0,0.0,433.0,772.0,0.0,1,315.0,1
1417,1417,0.7794597089973935,0.8,0.0,0.0,452.0,712.0,0.0,1,236.0,1
1418,1418,0.8728257235568871,0.9,0.0,0.0,283.0,789.0,0.0,1,58.0,1
1419,1419,-0.892881644581631,-0.9,0.0,1.0,370.0,528.0,1.0,0,502.0,1
1420,1420,0.7712828944526563,0.8,1.0,1.0,443.0,834.0,1.0,1,153.0,1
1421,1421,-0.31328832425234965,-0.3,1.0,0.0,417.0,841.0,0.0,0,162.0,1
1422,1422,-0.09057890800808022,-0.1,1.0,0.0,499.0,697.0,0.0,0,544.0,1
1423,1423,-0.7032848919282265,-0.7,1.0,0.0,331.0,786.0,0.0,0,223.0,1
1424,1424,0.6037302134416221,0.6,0.0,0.0,477.0,610.0,0.0,1,293.0,1
1425,1425,-0.08820756720662959,-0.1,1.0,0.0,250.0,915.0,0.0,0,95.0,1
1426,1426,-0.13372676904331415,-0.1,0.0,1.0,419.0,565.0,1.0,0,826.0,1
1427,1427,0.23394140489630078,0.2,1.0,1.0,454.0,522.0,1.0,1,304.0,1
1428,1428,0.514865971767874,0.5,1.0,1.0,257.0,527.0,1.0,1,146.0,1
1429,1429,-0.7742411198460608,-0.8,1.0,0.0,466.0,820.0,0.0,0,84.0,1
1430,1430,0.8427951106317476,0.8,0.0,0.0,393.0,556.0,0.0,1,151.0,1
1431,1431,-0.6001188449871049,-0.6,1.0,0.0,398.0,625.0,0.0,0,247.0,1
1432,1432,0.5788022422199023,0.6,0.0,0.0,446.0,826.0,0.0,1,348.0,1
1433,1433,0.36693648748290475,0.4,0.0,0.0,284.0,635.0,0.0,1,451.0,1
1434,1434,0.24765610167614882,0.2,1.0,1.0,433.0,870.0,1.0,1,687.0,1
1435,1435,-0.34125477571771845,-0.3,0.0,1.0,423.0,525.0,1.0,0,452.0,1
1436,1436,-0.23797032390875406,-0.2,1.0,0.0,251.0,537.0,0.0,0,442.0,1
1437,1437,0.4810235697375719,0.5,1.0,1.0,474.0,940.0,1.0,1,236.0,1
1438,1438,-0.6767586658737912,-0.7,1.0,0.0,448.0,809.0,0.0,0,223.0,1
1439,1439,-0.41622562732421714,-0.4,0.0,1.0,405.0,892.0,1.0,0,463.0,1
1440,1440,0.12043849816473184,0.1,0.0,0.0,385.0,997.0,0.0,1,318.0,1
1441,1441,-0.4721165466342399,-0.5,0.0,1.0,499.0,743.0,1.0,0,278.0,1
1442,1442,0.4597162674425629,0.5,1.0,1.0,269.0,673.0,1.0,1,258.0,1
1443,1443,0.8498704726470315,0.8,1.0,1.0,398.0,732.0,1.0,1,360.0,1
1444,1444,-0.5421062761958325,-0.5,0.0,1.0,490.0,516.0,1.0,0,354.0,1
1445,1445,0.5023157754165725,0.5,0.0,0.0,392.0,908.0,0.0,1,380.0,1
1446,1446,0.4227618655074289,0.4,0.0,0.0,387.0,596.0,0.0,1,287.0,1
1447,1447,0.5285194964823908,0.5,0.0,0.0,438.0,850.0,0.0,1,162.0,1
1448,1448,0.5044317277839313,0.5,1.0,1.0,304.0,620.0,1.0,1,226.0,1
1449,1449,-0.17794935435613435,-0.2,1.0,0.0,449.0,820.0,0.0,0,481.0,1
1450,1450,0.5706604643164693,0.6,1.0,1.0,288.0,998.0,1.0,1,244.0,1
1451,1451,-0.6317938707418262,-0.6,1.0,0.0,328.0,673.0,0.0,0,209.0,1
1452,1452,0.8940778216717299,0.9,1.0,1.0,462.0,502.0,1.0,1,216.0,1
1453,1453,-0.6865398166357827,-0.7,0.0,1.0,269.0,893.0,1.0,0,838.0,1
1454,1454,-0.2469725446794394,-0.2,0.0,1.0,255.0,782.0,1.0,0,533.0,1
1455,1455,0.2205195166571451,0.2,1.0,1.0,391.0,541.0,1.0,1,368.0,1
1456,1456,-0.7254937591741446,-0.7,1.0,0.0,299.0,821.0,0.0,0,90.0,1
1457,1457,-0.44309604341709086,-0.4,0.0,1.0,269.0,689.0,1.0,0,482.0,1
1458,1458,0.07097799171238295,0.1,1.0,1.0,445.0,636.0,1.0,1,1919.0,1
1459,1459,-0.7716828414969816,-0.8,1.0,0.0,407.0,943.0,0.0,0,120.0,1
1460,1460,0.5344656537654321,0.5,0.0,0.0,276.0,720.0,0.0,1,174.0,1
1461,1461,-0.5989061874874955,-0.6,0.0,1.0,407.0,708.0,1.0,0,85.0,1
1462,1462,-0.8338117343376575,-0.8,0.0,1.0,260.0,679.0,1.0,0,91.0,1
1463,1463,0.6680332503070344,0.7,0.0,0.0,493.0,993.0,0.0,1,294.0,1
1464,1464,-0.20056826465845157,-0.2,0.0,1.0,485.0,578.0,1.0,0,1267.0,1
1465,1465,-0.5851198336404317,-0.6,1.0,0.0,312.0,948.0,0.0,0,220.0,1
1466,1466,0.32301504255466085,0.3,1.0,1.0,316.0,796.0,1.0,1,258.0,1
1467,1467,0.465642753386344,0.5,0.0,0.0,470.0,801.0,0.0,1,219.0,1
1468,1468,0.45483051033765476,0.5,0.0,0.0,312.0,631.0,0.0,1,357.0,1
1469,1469,-0.4572234148653145,-0.5,0.0,1.0,343.0,541.0,1.0,0,156.0,1
1470,1470,-0.4464377391242377,-0.4,1.0,0.0,348.0,740.0,0.0,0,162.0,1
1471,1471,-0.35385990579619453,-0.4,0.0,1.0,448.0,805.0,1.0,0,647.0,1
1472,1472,-0.3169568310382629,-0.3,0.0,1.0,396.0,799.0,1.0,0,315.0,1
1473,1473,-0.6124602263010105,-0.6,1.0,0.0,272.0,500.0,0.0,0,298.0,1
1474,1474,-0.5535846321741535,-0.6,1.0,0.0,276.0,676.0,1.0,1,-12.0,0
1475,1475,-0.8121325827652791,-0.8,0.0,1.0,337.0,933.0,1.0,0,210.0,1
1476,1476,-0.11729207336232983,-0.1,1.0,0.0,421.0,997.0,0.0,0,1582.0,1
1477,1477,-0.6257294529807005,-0.6,1.0,0.0,341.0,780.0,0.0,0,189.0,1
1478,1478,0.30970844744227277,0.3,1.0,1.0,363.0,722.0,1.0,1,505.0,1
1479,1479,0.4353754949465639,0.4,1.0,1.0,470.0,719.0,1.0,1,461.0,1
1480,1480,0.49704911244428296,0.5,0.0,0.0,417.0,749.0,0.0,1,174.0,1
1481,1481,0.23568319473414856,0.2,0.0,0.0,405.0,775.0,0.0,1,280.0,1
1482,1482,0.1631406900652047,0.2,0.0,0.0,388.0,716.0,0.0,1,916.0,1
1483,1483,-0.8846338838088456,-0.9,0.0,1.0,465.0,725.0,1.0,0,120.0,1
1484,1484,-0.46422009604238906,-0.5,0.0,1.0,432.0,798.0,1.0,0,-100.0,1
1485,1485,-0.1591860405341431,-0.2,1.0,0.0,335.0,584.0,0.0,0,1031.0,1
1486,1486,-0.46627134313970614,-0.5,0.0,1.0,289.0,687.0,1.0,0,264.0,1
1487,1487,-0.2278849121431965,-0.2,0.0,1.0,273.0,692.0,1.0,0,735.0,1
1488,1488,0.40327700600076744,0.4,0.0,0.0,489.0,604.0,0.0,1,247.0,1
1489,1489,0.5586967798400465,0.6,0.0,0.0,400.0,655.0,0.0,1,205.0,1
1490,1490,-0.27924226809145025,-0.3,0.0,1.0,369.0,891.0,1.0,0,1010.0,1
1491,1491,0.86075745881547,0.9,1.0,1.0,354.0,518.0,1.0,1,328.0,1
