,trial,coherence,coherence_bin,green_side,correct_side,target_onset,checker_onset,decision,green_decision,decision_time,correct_decision
0,0,0.5046448951363228,0.5,0.0,0.0,451.0,792.0,0.0,1,157.0,1
1,1,-0.6967698797861269,-0.7,1.0,0.0,454.0,581.0,0.0,0,65.0,1
2,2,0.6028571132946433,0.6,0.0,0.0,374.0,993.0,0.0,1,163.0,1
3,3,-0.80376608433912,-0.8,0.0,1.0,289.0,777.0,1.0,0,214.0,1
4,4,0.32983907373467247,0.3,0.0,0.0,348.0,632.0,0.0,1,400.0,1
5,5,-0.3792440965573738,-0.4,0.0,1.0,446.0,970.0,1.0,0,484.0,1
6,6,-0.4569043350436413,-0.5,0.0,1.0,312.0,767.0,1.0,0,191.0,1
7,7,-0.5059086867884535,-0.5,0.0,1.0,485.0,911.0,1.0,0,234.0,1
8,8,0.13148932976624395,0.1,0.0,0.0,266.0,720.0,0.0,1,494.0,1
9,9,-0.16608031238480148,-0.2,1.0,0.0,273.0,647.0,0.0,0,690.0,1
10,10,0.8349526368178736,0.8,0.0,0.0,258.0,842.0,0.0,1,100.0,1
11,11,-0.420861285193491,-0.4,0.0,1.0,462.0,547.0,1.0,0,331.0,1
12,12,-0.5486240306765813,-0.5,0.0,1.0,283.0,856.0,1.0,0,261.0,1
13,13,0.8061394733330353,0.8,0.0,0.0,283.0,575.0,0.0,1,162.0,1
14,14,-0.4597550580342636,-0.5,0.0,1.0,490.0,933.0,1.0,0,377.0,1
15,15,-0.548334591555714,-0.5,0.0,1.0,456.0,504.0,1.0,0,270.0,1
16,16,0.5555001158055913,0.6,1.0,1.0,265.0,958.0,1.0,1,167.0,1
17,17,0.3982058118789914,0.4,0.0,0.0,459.0,950.0,0.0,1,311.0,1
18,18,0.5184132399070877,0.5,1.0,1.0,423.0,730.0,1.0,1,137.0,1
19,19,-0.6861276587685011,-0.7,1.0,0.0,342.0,964.0,0.0,0,274.0,1
20,20,-0.3922767292068562,-0.4,1.0,0.0,346.0,914.0,0.0,0,410.0,1
21,21,-0.5417330926697288,-0.5,1.0,0.0,280.0,813.0,0.0,0,227.0,1
22,22,-0.0734672270102873,-0.1,1.0,0.0,490.0,609.0,0.0,0,1101.0,1
23,23,0.3039229350824829,0.3,1.0,1.0,461.0,967.0,1.0,1,582.0,1
24,24,0.7670006447802721,0.8,1.0,1.0,401.0,963.0,1.0,1,156.0,1
25,25,-0.8562131133792249,-0.9,1.0,0.0,474.0,956.0,0.0,0,80.0,1
26,26,0.6819262710730788,0.7,1.0,1.0,261.0,656.0,1.0,1,383.0,1
27,27,-0.22325702647064105,-0.2,1.0,0.0,395.0,921.0,0.0,0,304.0,1
28,28,0.45498775776851585,0.5,1.0,1.0,393.0,908.0,1.0,1,259.0,1
29,29,0.8542842650107133,0.9,1.0,1.0,389.0,739.0,1.0,1,82.0,1
30,30,-0.5284748076964212,-0.5,0.0,1.0,329.0,799.0,1.0,0,232.0,1
31,31,-0.478954011778768,-0.5,1.0,0.0,445.0,650.0,0.0,0,325.0,1
32,32,0.5500760246661524,0.6,0.0,0.0,286.0,522.0,0.0,1,272.0,1
33,33,0.6248835061858967,0.6,0.0,0.0,265.0,748.0,0.0,1,157.0,1
34,34,-0.7835132810196858,-0.8,0.0,1.0,289.0,874.0,1.0,0,137.0,1
35,35,-0.5912475631728593,-0.6,0.0,1.0,252.0,841.0,1.0,0,207.0,1
36,36,0.44723128560658554,0.4,0.0,0.0,388.0,502.0,0.0,1,160.0,1
37,37,0.1224438377902205,0.1,0.0,0.0,294.0,633.0,0.0,1,833.0,1
38,38,0.4769229765723523,0.5,1.0,1.0,386.0,690.0,1.0,1,264.0,1
39,39,-0.1868177513902557,-0.2,1.0,0.0,293.0,517.0,0.0,0,480.0,1
40,40,0.48841200909691895,0.5,0.0,0.0,313.0,782.0,0.0,1,205.0,1
41,41,0.40726987537589243,0.4,1.0,1.0,486.0,884.0,1.0,1,120.0,1
42,42,0.566104064154156,0.6,1.0,1.0,460.0,853.0,1.0,1,147.0,1
43,43,0.7545805590197653,0.8,0.0,0.0,484.0,999.0,0.0,1,187.0,1
44,44,-0.38087359306541835,-0.4,1.0,0.0,278.0,816.0,0.0,0,406.0,1
45,45,0.7504191348488701,0.8,1.0,1.0,475.0,549.0,1.0,1,376.0,1
46,46,-0.08304142786285895,-0.1,1.0,0.0,273.0,840.0,0.0,0,327.0,1
47,47,0.80483878626785,0.8,0.0,0.0,357.0,580.0,0.0,1,233.0,1
48,48,0.8429350696039922,0.8,1.0,1.0,301.0,955.0,1.0,1,184.0,1
49,49,0.6127097806362759,0.6,1.0,1.0,486.0,714.0,1.0,1,310.0,1
50,50,-0.03232951558368635,-0.0,0.0,1.0,312.0,811.0,0.0,1,1877.0,0
51,51,0.1625840113440885,0.2,0.0,0.0,428.0,539.0,0.0,1,1713.0,1
52,52,0.5498901763435401,0.5,1.0,1.0,307.0,707.0,1.0,1,306.0,1
53,53,0.2540225395160144,0.3,0.0,0.0,486.0,667.0,0.0,1,207.0,1
54,54,-0.7672108893904555,-0.8,0.0,1.0,317.0,939.0,1.0,0,104.0,1
55,55,-0.6210802235983333,-0.6,0.0,1.0,306.0,842.0,1.0,0,162.0,1
56,56,0.6765686224630448,0.7,1.0,1.0,381.0,868.0,1.0,1,181.0,1
57,57,-0.6145844616147886,-0.6,0.0,1.0,318.0,991.0,1.0,0,61.0,1
58,58,0.5664720640303257,0.6,0.0,0.0,432.0,842.0,0.0,1,156.0,1
59,59,-0.2745305865244725,-0.3,1.0,0.0,420.0,726.0,0.0,0,494.0,1
60,60,0.47983724830293595,0.5,0.0,0.0,462.0,551.0,0.0,1,207.0,1
61,61,-0.4188635805085291,-0.4,1.0,0.0,256.0,706.0,0.0,0,308.0,1
62,62,0.35953529543289153,0.4,0.0,0.0,346.0,534.0,0.0,1,370.0,1
63,63,0.04995345548395602,0.0,0.0,0.0,282.0,764.0,0.0,1,1294.0,1
64,64,0.2150245378146246,0.2,0.0,0.0,414.0,937.0,0.0,1,589.0,1
65,65,0.7886170163874132,0.8,0.0,0.0,254.0,871.0,0.0,1,145.0,1
66,66,-0.5079984848712351,-0.5,1.0,0.0,405.0,754.0,0.0,0,91.0,1
67,67,0.8670196248765704,0.9,0.0,0.0,288.0,777.0,0.0,1,115.0,1
68,68,0.6876279058371436,0.7,0.0,0.0,254.0,868.0,0.0,1,178.0,1
69,69,0.49524033262447065,0.5,0.0,0.0,457.0,801.0,0.0,1,272.0,1
70,70,0.6556893615410514,0.7,0.0,0.0,271.0,799.0,0.0,1,140.0,1
71,71,0.46649468608541345,0.5,0.0,0.0,394.0,597.0,0.0,1,209.0,1
72,72,0.895359907364781,0.9,0.0,0.0,365.0,512.0,0.0,1,83.0,1
73,73,0.4689443075038845,0.5,1.0,1.0,457.0,502.0,1.0,1,271.0,1
74,74,0.10640266944674848,0.1,0.0,0.0,440.0,851.0,0.0,1,1709.0,1
75,75,0.006351998147033022,0.0,1.0,1.0,320.0,584.0,0.0,0,1926.0,0
76,76,0.7648525889906682,0.8,0.0,0.0,364.0,951.0,0.0,1,105.0,1
77,77,0.8777022047901349,0.9,1.0,1.0,360.0,850.0,1.0,1,90.0,1
78,78,-0.10633984879317093,-0.1,1.0,0.0,289.0,673.0,0.0,0,598.0,1
79,79,-0.7145746787270704,-0.7,0.0,1.0,384.0,909.0,1.0,0,117.0,1
80,80,-0.6319330663233497,-0.6,1.0,0.0,331.0,676.0,0.0,0,73.0,1
81,81,0.7280575667090382,0.7,1.0,1.0,295.0,679.0,1.0,1,96.0,1
82,82,0.40161276716194305,0.4,1.0,1.0,479.0,596.0,1.0,1,235.0,1
83,83,0.7543340909959187,0.8,0.0,0.0,335.0,739.0,0.0,1,96.0,1
84,84,-0.5997326294328333,-0.6,1.0,0.0,252.0,581.0,0.0,0,167.0,1
85,85,-0.8095932905422237,-0.8,1.0,0.0,391.0,577.0,0.0,0,142.0,1
86,86,-0.4592550170033632,-0.5,1.0,0.0,310.0,618.0,0.0,0,282.0,1
87,87,-0.06022728688412393,-0.1,0.0,1.0,371.0,765.0,0.0,1,74.0,0
88,88,-0.6978878756018115,-0.7,1.0,0.0,459.0,916.0,0.0,0,165.0,1
89,89,-0.16831007721620872,-0.2,1.0,0.0,440.0,597.0,0.0,0,713.0,1
90,90,0.5089765338973108,0.5,1.0,1.0,437.0,502.0,1.0,1,321.0,1
91,91,-0.5077658865130907,-0.5,1.0,0.0,455.0,517.0,0.0,0,318.0,1
92,92,-0.8761330828013771,-0.9,0.0,1.0,330.0,790.0,1.0,0,240.0,1
93,93,0.7037224884134384,0.7,0.0,0.0,269.0,614.0,0.0,1,147.0,1
94,94,-0.47040460268368217,-0.5,0.0,1.0,472.0,798.0,1.0,0,140.0,1
95,95,0.8543986194934846,0.9,1.0,1.0,309.0,577.0,1.0,1,154.0,1
96,96,0.2601841041190206,0.3,1.0,1.0,326.0,906.0,1.0,1,258.0,1
97,97,0.21097989407762474,0.2,0.0,0.0,327.0,711.0,0.0,1,582.0,1
98,98,-0.2856648355724358,-0.3,1.0,0.0,420.0,880.0,0.0,0,100.0,1
99,99,0.3938544287500777,0.4,0.0,0.0,356.0,538.0,0.0,1,116.0,1
100,100,0.2113683343390408,0.2,0.0,0.0,351.0,601.0,0.0,1,1198.0,1
101,101,-0.7071441110304991,-0.7,0.0,1.0,377.0,623.0,1.0,0,130.0,1
102,102,-0.6948732833539618,-0.7,0.0,1.0,413.0,866.0,1.0,0,61.0,1
103,103,0.8836610710090854,0.9,0.0,0.0,333.0,914.0,0.0,1,163.0,1
104,104,0.15300567781452334,0.2,0.0,0.0,453.0,959.0,0.0,1,608.0,1
105,105,-0.626695459097317,-0.6,1.0,0.0,430.0,683.0,0.0,0,87.0,1
106,106,0.309075529642182,0.3,0.0,0.0,428.0,764.0,0.0,1,138.0,1
107,107,-0.7269793666753395,-0.7,0.0,1.0,256.0,950.0,1.0,0,114.0,1
108,108,-0.6769033918117983,-0.7,1.0,0.0,353.0,787.0,0.0,0,110.0,1
109,109,0.6148323131728325,0.6,1.0,1.0,262.0,672.0,1.0,1,116.0,1
110,110,-0.45441781520069213,-0.5,0.0,1.0,261.0,870.0,1.0,0,199.0,1
111,111,0.37818268849481307,0.4,1.0,1.0,267.0,532.0,1.0,1,651.0,1
112,112,-0.19207770374155242,-0.2,0.0,1.0,377.0,938.0,1.0,0,1005.0,1
113,113,-0.8088847715351736,-0.8,1.0,0.0,443.0,719.0,0.0,0,88.0,1
114,114,0.7614041810966677,0.8,1.0,1.0,372.0,562.0,1.0,1,196.0,1
115,115,0.46847142063471947,0.5,1.0,1.0,295.0,861.0,1.0,1,214.0,1
116,116,-0.7525173348173301,-0.8,0.0,1.0,326.0,534.0,1.0,0,190.0,1
117,117,0.415882133290551,0.4,1.0,1.0,458.0,623.0,1.0,1,289.0,1
118,118,-0.19951743306687486,-0.2,1.0,0.0,447.0,715.0,0.0,0,248.0,1
119,119,0.0847773481156392,0.1,0.0,0.0,382.0,726.0,0.0,1,1892.0,1
120,120,-0.6444221181312197,-0.6,1.0,0.0,402.0,803.0,0.0,0,135.0,1
121,121,0.5610913449869878,0.6,1.0,1.0,316.0,684.0,1.0,1,160.0,1
122,122,0.8119901179819741,0.8,1.0,1.0,362.0,887.0,1.0,1,61.0,1
123,123,0.09486252172075538,0.1,1.0,1.0,441.0,672.0,1.0,1,1287.0,1
124,124,0.5198954975079338,0.5,1.0,1.0,499.0,756.0,1.0,1,115.0,1
125,125,-0.8503767092361677,-0.9,0.0,1.0,410.0,515.0,1.0,0,145.0,1
126,126,0.20872195375515734,0.2,0.0,0.0,492.0,807.0,0.0,1,591.0,1
127,127,0.8327825729139701,0.8,0.0,0.0,383.0,556.0,0.0,1,121.0,1
128,128,0.06383632337150935,0.1,0.0,0.0,267.0,710.0,0.0,1,2023.0,1
129,129,-0.8922653290333273,-0.9,0.0,1.0,402.0,827.0,0.0,1,-39.0,0
130,130,0.4783797405798301,0.5,0.0,0.0,349.0,534.0,0.0,1,277.0,1
131,131,0.28672767818811107,0.3,0.0,0.0,291.0,852.0,0.0,1,257.0,1
132,132,0.8658478152169514,0.9,0.0,0.0,365.0,802.0,0.0,1,163.0,1
133,133,-0.29686798840201345,-0.3,0.0,1.0,324.0,948.0,1.0,0,168.0,1
134,134,0.45118205343859985,0.5,1.0,1.0,412.0,844.0,1.0,1,164.0,1
135,135,-0.8458525496023495,-0.8,0.0,1.0,364.0,589.0,1.0,0,127.0,1
136,136,-0.28348399581378547,-0.3,0.0,1.0,471.0,627.0,1.0,0,772.0,1
137,137,-0.3652252147556838,-0.4,1.0,0.0,457.0,535.0,0.0,0,328.0,1
138,138,-0.575138507680101,-0.6,0.0,1.0,378.0,559.0,1.0,0,203.0,1
139,139,-0.0722603488939021,-0.1,1.0,0.0,370.0,858.0,0.0,0,1212.0,1
140,140,0.7621115311796699,0.8,1.0,1.0,493.0,563.0,1.0,1,184.0,1
141,141,0.6681308723259985,0.7,1.0,1.0,424.0,633.0,1.0,1,243.0,1
142,142,0.29666498181877266,0.3,0.0,0.0,283.0,586.0,0.0,1,131.0,1
143,143,-0.7022738130730869,-0.7,0.0,1.0,469.0,993.0,1.0,0,198.0,1
144,144,0.4856409936906091,0.5,1.0,1.0,473.0,633.0,1.0,1,284.0,1
145,145,-0.07666512602697007,-0.1,0.0,1.0,320.0,580.0,1.0,0,2100.0,1
146,146,0.1667000756337077,0.2,1.0,1.0,407.0,836.0,1.0,1,297.0,1
147,147,0.6395009159519055,0.6,0.0,0.0,353.0,632.0,0.0,1,275.0,1
148,148,0.018427480281434816,0.0,1.0,1.0,387.0,973.0,0.0,0,1640.0,0
149,149,0.8392193900954253,0.8,1.0,1.0,417.0,970.0,1.0,1,143.0,1
150,150,0.7911438227074018,0.8,1.0,1.0,345.0,581.0,1.0,1,134.0,1
151,151,0.03422324384890585,0.0,0.0,0.0,321.0,615.0,0.0,1,2064.0,1
152,152,-0.040696319941942005,-0.0,1.0,0.0,283.0,526.0,0.0,0,371.0,1
153,153,-0.7435852398583892,-0.7,0.0,1.0,260.0,651.0,1.0,0,399.0,1
154,154,-0.023478366361116332,-0.0,1.0,0.0,415.0,776.0,0.0,0,1809.0,1
155,155,0.7295774383421821,0.7,0.0,0.0,427.0,555.0,0.0,1,48.0,1
156,156,0.31036975490884544,0.3,1.0,1.0,308.0,680.0,1.0,1,472.0,1
157,157,-0.5528046238709188,-0.6,1.0,0.0,325.0,909.0,0.0,0,96.0,1
158,158,-0.6158644438409031,-0.6,1.0,0.0,488.0,794.0,0.0,0,208.0,1
159,159,-0.7520488448872168,-0.8,1.0,0.0,334.0,708.0,0.0,0,88.0,1
160,160,-0.6102669036333568,-0.6,0.0,1.0,260.0,596.0,1.0,0,304.0,1
161,161,-0.27520994655931874,-0.3,0.0,1.0,490.0,731.0,1.0,0,309.0,1
162,162,-0.31759289719915107,-0.3,0.0,1.0,309.0,756.0,1.0,0,715.0,1
163,163,0.13131436660018803,0.1,0.0,0.0,476.0,767.0,0.0,1,587.0,1
164,164,0.7354232022269146,0.7,1.0,1.0,345.0,671.0,1.0,1,244.0,1
165,165,-0.6550248505452185,-0.7,1.0,0.0,356.0,527.0,0.0,0,497.0,1
166,166,0.3223906827025643,0.3,0.0,0.0,457.0,679.0,0.0,1,74.0,1
167,167,0.6954628917789053,0.7,1.0,1.0,282.0,524.0,1.0,1,164.0,1
168,168,0.6057902797064846,0.6,1.0,1.0,309.0,794.0,1.0,1,237.0,1
169,169,0.16112383237500094,0.2,1.0,1.0,424.0,645.0,1.0,1,221.0,1
170,170,0.2431882762639742,0.2,0.0,0.0,365.0,886.0,0.0,1,229.0,1
171,171,0.8191146397747763,0.8,0.0,0.0,457.0,980.0,0.0,1,123.0,1
172,172,-0.4962147872459766,-0.5,0.0,1.0,476.0,514.0,1.0,0,260.0,1
173,173,0.7359598536759254,0.7,1.0,1.0,257.0,514.0,1.0,1,229.0,1
174,174,0.010167867160496447,0.0,0.0,0.0,410.0,709.0,0.0,1,1611.0,1
175,175,0.8282550107310706,0.8,0.0,0.0,454.0,666.0,0.0,1,140.0,1
176,176,-0.8560132177486246,-0.9,1.0,0.0,265.0,977.0,0.0,0,88.0,1
177,177,-0.6814774204117041,-0.7,0.0,1.0,486.0,855.0,1.0,0,229.0,1
178,178,0.8218286745804538,0.8,1.0,1.0,405.0,752.0,1.0,1,123.0,1
179,179,0.860030740489751,0.9,1.0,1.0,324.0,898.0,1.0,1,118.0,1
180,180,-0.6224689313743672,-0.6,0.0,1.0,343.0,915.0,1.0,0,312.0,1
181,181,-0.3558527743658967,-0.4,0.0,1.0,298.0,570.0,1.0,0,372.0,1
182,182,-0.6180138780042344,-0.6,0.0,1.0,274.0,920.0,1.0,0,416.0,1
183,183,0.19731618680219898,0.2,1.0,1.0,313.0,528.0,1.0,1,409.0,1
184,184,-0.21860484447280693,-0.2,1.0,0.0,475.0,755.0,0.0,0,630.0,1
185,185,0.23080211762576364,0.2,1.0,1.0,370.0,904.0,1.0,1,256.0,1
186,186,0.33369444276566484,0.3,0.0,0.0,415.0,794.0,0.0,1,301.0,1
187,187,-0.5574018987690118,-0.6,0.0,1.0,496.0,807.0,1.0,0,277.0,1
188,188,-0.17610944115737248,-0.2,1.0,0.0,490.0,510.0,0.0,0,1830.0,1
189,189,-0.41704580790382956,-0.4,0.0,1.0,381.0,932.0,1.0,0,327.0,1
190,190,0.36662848255722646,0.4,0.0,0.0,259.0,703.0,0.0,1,58.0,1
191,191,-0.6472825670388007,-0.6,0.0,1.0,250.0,750.0,1.0,0,130.0,1
192,192,0.7991158338441603,0.8,0.0,0.0,408.0,614.0,0.0,1,138.0,1
193,193,0.446880646466434,0.4,0.0,0.0,372.0,712.0,0.0,1,256.0,1
194,194,0.3339089000493066,0.3,1.0,1.0,363.0,918.0,1.0,1,549.0,1
195,195,-0.3235452524479864,-0.3,1.0,0.0,434.0,704.0,0.0,0,202.0,1
196,196,0.12204204394589435,0.1,0.0,0.0,419.0,828.0,0.0,1,593.0,1
197,197,0.801932881138327,0.8,1.0,1.0,255.0,876.0,1.0,1,159.0,1
198,198,-0.7203860365643091,-0.7,0.0,1.0,287.0,744.0,1.0,0,99.0,1
199,199,-0.3731069997148725,-0.4,1.0,0.0,450.0,618.0,0.0,0,162.0,1
200,200,0.09199035327345684,0.1,1.0,1.0,431.0,986.0,1.0,1,1583.0,1
201,201,-0.07571301477740111,-0.1,1.0,0.0,350.0,872.0,0.0,0,728.0,1
202,202,0.02159286371783442,0.0,1.0,1.0,345.0,966.0,0.0,0,1689.0,0
203,203,-0.8992777622930164,-0.9,0.0,1.0,471.0,959.0,1.0,0,80.0,1
204,204,-0.5336633725992246,-0.5,1.0,0.0,261.0,993.0,0.0,0,126.0,1
205,205,-0.6338072008829554,-0.6,1.0,0.0,262.0,883.0,0.0,0,125.0,1
206,206,-0.8501387371714604,-0.9,0.0,1.0,422.0,680.0,1.0,0,138.0,1
207,207,0.6030121263294751,0.6,1.0,1.0,441.0,916.0,1.0,1,203.0,1
208,208,0.12827511999138397,0.1,0.0,0.0,369.0,581.0,0.0,1,840.0,1
209,209,0.38763168122997993,0.4,0.0,0.0,476.0,616.0,0.0,1,128.0,1
210,210,-0.36356662206017265,-0.4,1.0,0.0,415.0,957.0,0.0,0,228.0,1
211,211,-0.43352806643783787,-0.4,0.0,1.0,260.0,854.0,1.0,0,246.0,1
212,212,0.39347263111080155,0.4,1.0,1.0,372.0,534.0,1.0,1,274.0,1
213,213,0.31975517191028613,0.3,1.0,1.0,404.0,836.0,1.0,1,270.0,1
214,214,-0.6710836635440656,-0.7,1.0,0.0,399.0,994.0,0.0,0,137.0,1
215,215,-0.6854714474407885,-0.7,1.0,0.0,283.0,684.0,0.0,0,133.0,1
216,216,-0.609953416370311,-0.6,0.0,1.0,344.0,920.0,1.0,0,166.0,1
217,217,-0.8940490120779043,-0.9,1.0,0.0,268.0,570.0,0.0,0,72.0,1
218,218,0.265061989575173,0.3,1.0,1.0,401.0,509.0,1.0,1,390.0,1
219,219,-0.2836196659190984,-0.3,1.0,0.0,379.0,657.0,0.0,0,214.0,1
220,220,-0.43391516505397926,-0.4,1.0,0.0,311.0,871.0,0.0,0,168.0,1
221,221,-0.17951750902396235,-0.2,1.0,0.0,317.0,810.0,0.0,0,523.0,1
222,222,-0.2841352484425189,-0.3,0.0,1.0,462.0,979.0,1.0,0,1019.0,1
223,223,-0.5102807845121371,-0.5,1.0,0.0,401.0,665.0,0.0,0,484.0,1
224,224,0.5592003929295685,0.6,0.0,0.0,481.0,541.0,0.0,1,378.0,1
225,225,0.3050384712548647,0.3,0.0,0.0,339.0,528.0,0.0,1,233.0,1
226,226,-0.2266443816486584,-0.2,1.0,0.0,266.0,947.0,0.0,0,287.0,1
227,227,-0.077334197055973,-0.1,0.0,1.0,277.0,513.0,1.0,0,2210.0,1
228,228,0.340170119164075,0.3,1.0,1.0,394.0,878.0,1.0,1,248.0,1
229,229,-0.7402207814430127,-0.7,0.0,1.0,277.0,827.0,1.0,0,176.0,1
230,230,-0.6546390525831092,-0.7,0.0,1.0,316.0,812.0,1.0,0,212.0,1
231,231,0.41101879646268935,0.4,0.0,0.0,320.0,723.0,0.0,1,147.0,1
232,232,-0.6631313682804993,-0.7,1.0,0.0,352.0,726.0,0.0,0,222.0,1
233,233,-0.8976912817106857,-0.9,0.0,1.0,251.0,526.0,1.0,0,143.0,1
234,234,-0.4446667252302639,-0.4,1.0,0.0,368.0,540.0,0.0,0,212.0,1
235,235,0.10044951121105317,0.1,0.0,0.0,258.0,763.0,0.0,1,1979.0,1
236,236,-0.09425536862025685,-0.1,1.0,0.0,274.0,756.0,0.0,0,1010.0,1
237,237,0.7655910866096031,0.8,1.0,1.0,446.0,697.0,1.0,1,107.0,1
238,238,-0.23009189557111465,-0.2,1.0,0.0,325.0,854.0,0.0,0,231.0,1
239,239,-0.5753654310776586,-0.6,0.0,1.0,322.0,938.0,1.0,0,200.0,1
240,240,0.23068520438203588,0.2,1.0,1.0,363.0,980.0,1.0,1,357.0,1
241,241,-0.717534587995185,-0.7,1.0,0.0,492.0,904.0,0.0,0,134.0,1
242,242,0.19073312606919746,0.2,1.0,1.0,346.0,862.0,1.0,1,332.0,1
243,243,0.7326938392266534,0.7,1.0,1.0,353.0,852.0,1.0,1,165.0,1
244,244,-0.0996059542225548,-0.1,1.0,0.0,360.0,549.0,0.0,0,1191.0,1
245,245,0.8617092122766751,0.9,0.0,0.0,379.0,655.0,0.0,1,106.0,1
246,246,-0.8568864169620994,-0.9,0.0,1.0,271.0,664.0,1.0,0,175.0,1
247,247,0.4703279601210092,0.5,0.0,0.0,417.0,708.0,0.0,1,245.0,1
248,248,-0.11201108668867643,-0.1,1.0,0.0,305.0,730.0,0.0,0,1145.0,1
249,249,-0.8475844761809257,-0.8,1.0,0.0,339.0,845.0,0.0,0,136.0,1
250,250,0.2942808552751627,0.3,1.0,1.0,342.0,773.0,1.0,1,495.0,1
251,251,0.14097172212584252,0.1,1.0,1.0,418.0,839.0,1.0,1,673.0,1
252,252,-0.4662916573368046,-0.5,1.0,0.0,476.0,991.0,0.0,0,23.0,1
253,253,0.039370105867874816,0.0,0.0,0.0,356.0,890.0,0.0,1,1024.0,1
254,254,0.5159730996631752,0.5,0.0,0.0,460.0,695.0,0.0,1,485.0,1
255,255,-0.7435789342708351,-0.7,1.0,0.0,298.0,994.0,0.0,0,48.0,1
256,256,0.4906349861005147,0.5,0.0,0.0,450.0,661.0,0.0,1,249.0,1
257,257,0.6317832993248106,0.6,1.0,1.0,275.0,992.0,1.0,1,223.0,1
258,258,-0.7973161024479625,-0.8,0.0,1.0,303.0,572.0,1.0,0,165.0,1
259,259,-0.6406198293000018,-0.6,1.0,0.0,340.0,600.0,0.0,0,280.0,1
260,260,-0.890236751374042,-0.9,0.0,1.0,458.0,991.0,1.0,0,111.0,1
261,261,-0.6711127025950319,-0.7,0.0,1.0,279.0,755.0,1.0,0,116.0,1
262,262,0.12981494202495758,0.1,1.0,1.0,429.0,626.0,1.0,1,355.0,1
263,263,0.262108013646278,0.3,1.0,1.0,484.0,512.0,1.0,1,394.0,1
264,264,-0.2696297940070491,-0.3,0.0,1.0,307.0,779.0,1.0,0,764.0,1
265,265,-0.4341502021751391,-0.4,1.0,0.0,447.0,819.0,0.0,0,74.0,1
266,266,0.7010127766195872,0.7,0.0,0.0,269.0,553.0,0.0,1,108.0,1
267,267,-0.4901960577593419,-0.5,0.0,1.0,472.0,757.0,1.0,0,161.0,1
268,268,-0.38338409055685907,-0.4,0.0,1.0,317.0,765.0,1.0,0,148.0,1
269,269,0.7826410608708704,0.8,1.0,1.0,268.0,693.0,1.0,1,169.0,1
270,270,0.350013282851383,0.4,0.0,0.0,415.0,505.0,0.0,1,410.0,1
271,271,-0.2951044931500416,-0.3,0.0,1.0,488.0,726.0,1.0,0,1506.0,1
272,272,0.05177667307909317,0.1,0.0,0.0,442.0,515.0,0.0,1,2043.0,1
273,273,0.43125464079077414,0.4,0.0,0.0,300.0,966.0,0.0,1,244.0,1
274,274,0.6180765636419888,0.6,0.0,0.0,418.0,668.0,0.0,1,114.0,1
275,275,-0.5471323234412976,-0.5,0.0,1.0,440.0,629.0,1.0,0,191.0,1
276,276,0.2508191746417231,0.3,1.0,1.0,359.0,517.0,1.0,1,764.0,1
277,277,0.8134162482296691,0.8,1.0,1.0,416.0,613.0,1.0,1,131.0,1
278,278,0.3229816480573827,0.3,1.0,1.0,317.0,543.0,1.0,1,700.0,1
279,279,0.7316401410427161,0.7,1.0,1.0,317.0,676.0,1.0,1,97.0,1
280,280,-0.676157165150593,-0.7,1.0,0.0,408.0,696.0,0.0,0,406.0,1
281,281,-0.6814108135194786,-0.7,0.0,1.0,462.0,924.0,1.0,0,174.0,1
282,282,0.2410754645624663,0.2,0.0,0.0,353.0,626.0,0.0,1,281.0,1
283,283,0.8955576086215279,0.9,0.0,0.0,327.0,739.0,0.0,1,84.0,1
284,284,0.15538090058989706,0.2,1.0,1.0,426.0,961.0,1.0,1,1323.0,1
285,285,-0.44691166438440744,-0.4,1.0,0.0,461.0,624.0,0.0,0,325.0,1
286,286,0.32796948889645827,0.3,0.0,0.0,375.0,619.0,0.0,1,376.0,1
287,287,0.6285953878898255,0.6,1.0,1.0,439.0,524.0,1.0,1,157.0,1
288,288,0.1197366300400774,0.1,1.0,1.0,474.0,813.0,1.0,1,743.0,1
289,289,-0.3897065828709302,-0.4,0.0,1.0,497.0,639.0,1.0,0,544.0,1
290,290,-0.6892503189651338,-0.7,0.0,1.0,485.0,760.0,1.0,0,125.0,1
291,291,0.8404874125599774,0.8,0.0,0.0,467.0,818.0,0.0,1,125.0,1
292,292,-0.8100210553133482,-0.8,1.0,0.0,454.0,657.0,0.0,0,139.0,1
293,293,0.8906781078110816,0.9,1.0,1.0,378.0,813.0,1.0,1,99.0,1
294,294,-0.4795272685170402,-0.5,0.0,1.0,285.0,989.0,1.0,0,306.0,1
295,295,-0.7039034072100692,-0.7,0.0,1.0,314.0,799.0,1.0,0,127.0,1
296,296,-0.28201429032420566,-0.3,1.0,0.0,291.0,559.0,0.0,0,470.0,1
297,297,0.4060314509448376,0.4,0.0,0.0,326.0,975.0,0.0,1,199.0,1
298,298,0.3061273034137716,0.3,0.0,0.0,486.0,688.0,0.0,1,116.0,1
299,299,-0.36524639744229737,-0.4,1.0,0.0,432.0,775.0,0.0,0,1003.0,1
300,300,0.7042848585029625,0.7,1.0,1.0,470.0,558.0,1.0,1,282.0,1
301,301,-0.23771239326295956,-0.2,0.0,1.0,369.0,639.0,1.0,0,922.0,1
302,302,0.8869736208218978,0.9,1.0,1.0,346.0,545.0,1.0,1,109.0,1
303,303,0.4376195597680529,0.4,1.0,1.0,455.0,674.0,1.0,1,201.0,1
304,304,0.11823673252925426,0.1,1.0,1.0,296.0,972.0,0.0,0,1732.0,0
305,305,0.2567066130291068,0.3,0.0,0.0,367.0,533.0,0.0,1,630.0,1
306,306,0.015213182189480645,0.0,0.0,0.0,319.0,987.0,0.0,1,444.0,1
307,307,0.7042455399687894,0.7,1.0,1.0,410.0,821.0,1.0,1,139.0,1
308,308,0.34769062631577163,0.3,1.0,1.0,292.0,761.0,1.0,1,267.0,1
309,309,0.48907997715039786,0.5,0.0,0.0,261.0,562.0,0.0,1,97.0,1
310,310,0.7633825459948261,0.8,1.0,1.0,325.0,972.0,1.0,1,203.0,1
311,311,0.5443237148855381,0.5,0.0,0.0,321.0,641.0,0.0,1,358.0,1
312,312,-0.6401028661645165,-0.6,0.0,1.0,408.0,598.0,1.0,0,274.0,1
313,313,0.2520499538226618,0.3,0.0,0.0,372.0,765.0,0.0,1,233.0,1
314,314,0.724159528959991,0.7,1.0,1.0,304.0,864.0,1.0,1,212.0,1
315,315,0.3427567933014505,0.3,1.0,1.0,419.0,899.0,1.0,1,622.0,1
316,316,-0.5003108087488195,-0.5,0.0,1.0,376.0,869.0,1.0,0,195.0,1
317,317,-0.4704852570345612,-0.5,1.0,0.0,379.0,841.0,0.0,0,100.0,1
318,318,0.23867524234196835,0.2,1.0,1.0,282.0,697.0,1.0,1,591.0,1
319,319,0.37192418701517227,0.4,1.0,1.0,494.0,713.0,1.0,1,93.0,1
320,320,0.3743966405763154,0.4,0.0,0.0,439.0,668.0,0.0,1,223.0,1
321,321,0.0020088158230661124,0.0,1.0,1.0,423.0,805.0,0.0,0,1722.0,0
322,322,0.4680298750465367,0.5,0.0,0.0,491.0,696.0,0.0,1,293.0,1
323,323,-0.12290660566651135,-0.1,0.0,1.0,396.0,970.0,1.0,0,1634.0,1
324,324,-0.6118268319433373,-0.6,0.0,1.0,415.0,995.0,1.0,0,110.0,1
325,325,0.4063560041227484,0.4,0.0,0.0,436.0,747.0,0.0,1,157.0,1
326,326,-0.8583152977124708,-0.9,0.0,1.0,334.0,938.0,1.0,0,188.0,1
327,327,0.5941919617308914,0.6,1.0,1.0,498.0,605.0,1.0,1,207.0,1
328,328,-0.25575416145782637,-0.3,0.0,1.0,444.0,745.0,1.0,0,291.0,1
329,329,0.5194835638343086,0.5,0.0,0.0,494.0,638.0,0.0,1,58.0,1
330,330,-0.5660339510780901,-0.6,0.0,1.0,257.0,953.0,1.0,0,270.0,1
331,331,0.7150434261052873,0.7,0.0,0.0,452.0,513.0,0.0,1,135.0,1
332,332,-0.3266778826811624,-0.3,0.0,1.0,254.0,671.0,1.0,0,625.0,1
333,333,0.270429084463477,0.3,1.0,1.0,459.0,750.0,1.0,1,261.0,1
334,334,-0.13267186774075812,-0.1,1.0,0.0,371.0,659.0,0.0,0,830.0,1
335,335,0.5087322870598928,0.5,0.0,0.0,346.0,789.0,0.0,1,175.0,1
336,336,0.12604972595297148,0.1,1.0,1.0,368.0,875.0,1.0,1,957.0,1
337,337,0.27306656698183873,0.3,0.0,0.0,391.0,689.0,0.0,1,280.0,1
338,338,0.16005990730134478,0.2,0.0,0.0,269.0,601.0,0.0,1,610.0,1
339,339,-0.1119713617559921,-0.1,0.0,1.0,330.0,647.0,1.0,0,1523.0,1
340,340,0.3892380463951096,0.4,1.0,1.0,270.0,734.0,1.0,1,326.0,1
341,341,0.6795052326234671,0.7,1.0,1.0,471.0,797.0,1.0,1,112.0,1
342,342,0.2659335514056408,0.3,1.0,1.0,307.0,603.0,1.0,1,600.0,1
343,343,0.33106968343127396,0.3,0.0,0.0,404.0,504.0,0.0,1,202.0,1
344,344,0.7863442873765628,0.8,0.0,0.0,403.0,917.0,0.0,1,120.0,1
345,345,0.5420843282717099,0.5,0.0,0.0,268.0,908.0,0.0,1,264.0,1
346,346,-0.03300045710996802,-0.0,0.0,1.0,343.0,522.0,1.0,0,2135.0,1
347,347,-0.03162214643736594,-0.0,0.0,1.0,446.0,934.0,0.0,1,1620.0,0
348,348,0.2939659095534447,0.3,1.0,1.0,333.0,758.0,1.0,1,459.0,1
349,349,0.7482022376839382,0.7,0.0,0.0,412.0,880.0,0.0,1,78.0,1
350,350,0.640749446541712,0.6,1.0,1.0,301.0,787.0,1.0,1,212.0,1
351,351,-0.14078140453212684,-0.1,1.0,0.0,414.0,711.0,0.0,0,715.0,1
352,352,0.06725456024505427,0.1,1.0,1.0,289.0,945.0,1.0,1,1766.0,1
353,353,0.4582496053942705,0.5,1.0,1.0,432.0,995.0,1.0,1,113.0,1
354,354,0.4442521276527017,0.4,1.0,1.0,296.0,584.0,1.0,1,280.0,1
355,355,-0.37684252901730286,-0.4,0.0,1.0,290.0,915.0,1.0,0,305.0,1
356,356,-0.13493767544461333,-0.1,1.0,0.0,276.0,895.0,0.0,0,339.0,1
357,357,-0.6703979965545739,-0.7,1.0,0.0,300.0,894.0,0.0,0,136.0,1
358,358,0.44837430201449247,0.4,0.0,0.0,345.0,863.0,0.0,1,502.0,1
359,359,-0.29209520204091033,-0.3,0.0,1.0,454.0,591.0,1.0,0,435.0,1
360,360,-0.5555820343800373,-0.6,1.0,0.0,272.0,921.0,0.0,0,157.0,1
361,361,-0.474649904225879,-0.5,0.0,1.0,378.0,744.0,1.0,0,488.0,1
362,362,-0.7276564303188242,-0.7,0.0,1.0,290.0,588.0,1.0,0,232.0,1
363,363,0.3770866954277837,0.4,1.0,1.0,298.0,581.0,1.0,1,381.0,1
364,364,-0.6621133181424654,-0.7,1.0,0.0,424.0,627.0,0.0,0,69.0,1
365,365,0.8950044543951766,0.9,1.0,1.0,284.0,635.0,1.0,1,111.0,1
366,366,0.11534295961972763,0.1,1.0,1.0,309.0,926.0,1.0,1,985.0,1
367,367,-0.3964952901548303,-0.4,1.0,0.0,289.0,651.0,0.0,0,130.0,1
368,368,-0.349340097101264,-0.3,0.0,1.0,388.0,888.0,1.0,0,404.0,1
369,369,-0.8452745288907918,-0.8,0.0,1.0,404.0,587.0,1.0,0,189.0,1
370,370,0.8492819674810107,0.8,1.0,1.0,329.0,523.0,1.0,1,88.0,1
371,371,0.7227707388896111,0.7,0.0,0.0,403.0,887.0,0.0,1,120.0,1
372,372,0.3343453676275142,0.3,1.0,1.0,384.0,741.0,1.0,1,345.0,1
373,373,0.7723920943440284,0.8,1.0,1.0,314.0,855.0,1.0,1,91.0,1
374,374,0.3432593481837781,0.3,1.0,1.0,405.0,949.0,1.0,1,456.0,1
375,375,-0.2636670124125581,-0.3,1.0,0.0,497.0,674.0,0.0,0,159.0,1
376,376,0.8026270084186399,0.8,1.0,1.0,374.0,502.0,1.0,1,34.0,1
377,377,0.6249771486478194,0.6,0.0,0.0,459.0,583.0,0.0,1,98.0,1
378,378,-0.5264943750917921,-0.5,0.0,1.0,271.0,846.0,1.0,0,133.0,1
379,379,0.39906120826058256,0.4,1.0,1.0,316.0,548.0,1.0,1,236.0,1
380,380,-0.19213057857300198,-0.2,0.0,1.0,385.0,695.0,1.0,0,1920.0,1
381,381,0.28360989531522784,0.3,0.0,0.0,293.0,630.0,0.0,1,177.0,1
382,382,0.6773113329584827,0.7,0.0,0.0,444.0,639.0,0.0,1,127.0,1
383,383,0.7504410589676641,0.8,0.0,0.0,289.0,716.0,0.0,1,125.0,1
384,384,0.7459244576219212,0.7,0.0,0.0,463.0,677.0,0.0,1,130.0,1
385,385,-0.6860200863192424,-0.7,0.0,1.0,390.0,735.0,1.0,0,465.0,1
386,386,0.20950271184600033,0.2,1.0,1.0,446.0,674.0,1.0,1,500.0,1
387,387,0.7531277940196565,0.8,0.0,0.0,303.0,975.0,0.0,1,72.0,1
388,388,-0.2670397811323423,-0.3,1.0,0.0,458.0,500.0,0.0,0,352.0,1
389,389,-0.5498603858944713,-0.5,1.0,0.0,334.0,740.0,0.0,0,136.0,1
390,390,0.4795659691586788,0.5,0.0,0.0,332.0,650.0,0.0,1,268.0,1
391,391,-0.7506881920902769,-0.8,1.0,0.0,441.0,538.0,0.0,0,171.0,1
392,392,0.3762115131800089,0.4,0.0,0.0,428.0,838.0,0.0,1,434.0,1
393,393,-0.1963091394783696,-0.2,1.0,0.0,372.0,622.0,0.0,0,846.0,1
394,394,0.238962999184129,0.2,0.0,0.0,322.0,802.0,0.0,1,736.0,1
395,395,0.11103764762379986,0.1,0.0,0.0,348.0,835.0,0.0,1,457.0,1
396,396,0.7192762641677289,0.7,0.0,0.0,280.0,614.0,0.0,1,146.0,1
397,397,0.08960754157458373,0.1,0.0,0.0,297.0,724.0,0.0,1,799.0,1
398,398,0.5077076152390582,0.5,1.0,1.0,298.0,988.0,1.0,1,54.0,1
399,399,-0.01101795088194557,-0.0,0.0,1.0,399.0,879.0,0.0,1,1102.0,0
400,400,0.18215368534407472,0.2,0.0,0.0,462.0,528.0,0.0,1,880.0,1
401,401,0.08655068199359184,0.1,0.0,0.0,466.0,800.0,0.0,1,1344.0,1
402,402,-0.7290607269668365,-0.7,0.0,1.0,408.0,708.0,1.0,0,114.0,1
403,403,0.09749076379607002,0.1,1.0,1.0,255.0,513.0,1.0,1,212.0,1
404,404,0.29597992398911155,0.3,1.0,1.0,350.0,663.0,1.0,1,907.0,1
405,405,-0.6755154720881548,-0.7,0.0,1.0,461.0,697.0,1.0,0,122.0,1
406,406,-0.6979235349544453,-0.7,0.0,1.0,496.0,785.0,1.0,0,279.0,1
407,407,-0.3869851166795728,-0.4,0.0,1.0,297.0,591.0,1.0,0,172.0,1
408,408,-0.010668344938642993,-0.0,0.0,1.0,415.0,613.0,1.0,0,1482.0,1
409,409,-0.32248808331600687,-0.3,0.0,1.0,364.0,659.0,1.0,0,417.0,1
410,410,0.23299369855038676,0.2,1.0,1.0,301.0,954.0,1.0,1,575.0,1
411,411,-0.4606085201034237,-0.5,1.0,0.0,326.0,718.0,0.0,0,116.0,1
412,412,0.3015300433079854,0.3,1.0,1.0,427.0,745.0,1.0,1,348.0,1
413,413,0.8483239288101193,0.8,0.0,0.0,284.0,850.0,0.0,1,66.0,1
414,414,0.5689707509320615,0.6,1.0,1.0,459.0,961.0,1.0,1,550.0,1
415,415,-0.024563009781713663,-0.0,0.0,1.0,312.0,659.0,1.0,0,2029.0,1
416,416,0.05716167117375737,0.1,0.0,0.0,288.0,817.0,0.0,1,1385.0,1
417,417,-0.399568163536799,-0.4,1.0,0.0,449.0,733.0,0.0,0,318.0,1
418,418,-0.3509634488680894,-0.4,0.0,1.0,373.0,950.0,1.0,0,477.0,1
419,419,0.2619188475123263,0.3,0.0,0.0,331.0,894.0,0.0,1,165.0,1
420,420,0.7027220823436352,0.7,1.0,1.0,302.0,805.0,1.0,1,113.0,1
421,421,-0.44418479403472383,-0.4,0.0,1.0,494.0,943.0,1.0,0,263.0,1
422,422,-0.46960660783805824,-0.5,1.0,0.0,392.0,525.0,0.0,0,193.0,1
423,423,0.6944267278283477,0.7,0.0,0.0,308.0,629.0,0.0,1,93.0,1
424,424,-0.6324956750176376,-0.6,1.0,0.0,468.0,912.0,0.0,0,90.0,1
425,425,-0.7598144213966602,-0.8,0.0,1.0,456.0,719.0,1.0,0,165.0,1
426,426,0.5397146995020644,0.5,1.0,1.0,457.0,713.0,1.0,1,210.0,1
427,427,-0.2539795459863785,-0.3,1.0,0.0,357.0,882.0,0.0,0,311.0,1
428,428,-0.3808949806392431,-0.4,1.0,0.0,265.0,741.0,0.0,0,264.0,1
429,429,0.4590679760058597,0.5,1.0,1.0,301.0,751.0,1.0,1,108.0,1
430,430,-0.5771597725402153,-0.6,0.0,1.0,307.0,956.0,1.0,0,347.0,1
431,431,0.5378346730270104,0.5,1.0,1.0,466.0,960.0,1.0,1,144.0,1
432,432,0.6690599980535429,0.7,0.0,0.0,306.0,546.0,0.0,1,328.0,1
433,433,0.3460419237799194,0.3,1.0,1.0,290.0,812.0,1.0,1,348.0,1
434,434,0.23206558571334346,0.2,0.0,0.0,294.0,845.0,0.0,1,321.0,1
435,435,0.17183142631119674,0.2,1.0,1.0,364.0,667.0,1.0,1,739.0,1
436,436,0.3416190482875531,0.3,1.0,1.0,319.0,885.0,1.0,1,416.0,1
437,437,0.2104570935776663,0.2,0.0,0.0,334.0,629.0,0.0,1,807.0,1
438,438,-0.08407186622695761,-0.1,0.0,1.0,464.0,957.0,1.0,0,1579.0,1
439,439,-0.31818134345589044,-0.3,0.0,1.0,417.0,740.0,1.0,0,353.0,1
440,440,-0.8006040349176788,-0.8,0.0,1.0,289.0,554.0,1.0,0,157.0,1
441,441,0.4108064649604001,0.4,0.0,0.0,473.0,714.0,0.0,1,513.0,1
442,442,0.21717234280449194,0.2,1.0,1.0,407.0,687.0,1.0,1,426.0,1
443,443,0.7154676662087661,0.7,1.0,1.0,470.0,572.0,1.0,1,118.0,1
444,444,-0.7737775720145058,-0.8,1.0,0.0,340.0,887.0,0.0,0,193.0,1
445,445,0.0011271064555621324,0.0,1.0,1.0,425.0,862.0,0.0,0,1713.0,0
446,446,0.5181299744176363,0.5,0.0,0.0,278.0,852.0,0.0,1,110.0,1
447,447,0.898102930889824,0.9,1.0,1.0,355.0,619.0,1.0,1,166.0,1
448,448,0.5943602545411725,0.6,0.0,0.0,343.0,628.0,0.0,1,239.0,1
449,449,-0.19979891014641982,-0.2,0.0,1.0,337.0,592.0,1.0,0,411.0,1
450,450,0.030109882273233857,0.0,1.0,1.0,399.0,550.0,1.0,1,2051.0,1
451,451,-0.2655633045966522,-0.3,0.0,1.0,440.0,628.0,1.0,0,872.0,1
452,452,0.12761379300014453,0.1,1.0,1.0,448.0,868.0,0.0,0,-6.0,0
453,453,0.5846164477911141,0.6,1.0,1.0,413.0,778.0,1.0,1,89.0,1
454,454,-0.8166484422945999,-0.8,1.0,0.0,365.0,709.0,0.0,0,146.0,1
455,455,-0.15082676067164913,-0.2,1.0,0.0,273.0,547.0,0.0,0,1220.0,1
456,456,-0.40279298248510415,-0.4,1.0,0.0,480.0,916.0,0.0,0,94.0,1
457,457,0.05447838634592905,0.1,1.0,1.0,424.0,940.0,0.0,0,726.0,0
458,458,-0.590102826606036,-0.6,0.0,1.0,468.0,698.0,1.0,0,124.0,1
459,459,0.6886191386838377,0.7,0.0,0.0,498.0,783.0,0.0,1,219.0,1
460,460,-0.5231733132960247,-0.5,1.0,0.0,360.0,524.0,0.0,0,206.0,1
461,461,0.691710371127975,0.7,1.0,1.0,496.0,893.0,1.0,1,151.0,1
462,462,-0.6081735339948027,-0.6,0.0,1.0,431.0,508.0,1.0,0,181.0,1
463,463,0.6954586816753362,0.7,0.0,0.0,487.0,649.0,0.0,1,274.0,1
464,464,-0.22554069382068065,-0.2,0.0,1.0,276.0,917.0,1.0,0,477.0,1
465,465,0.6402856031821801,0.6,1.0,1.0,355.0,674.0,1.0,1,281.0,1
466,466,-0.46849233173769994,-0.5,1.0,0.0,475.0,754.0,0.0,0,171.0,1
467,467,-0.22384510558726234,-0.2,1.0,0.0,462.0,777.0,0.0,0,1121.0,1
468,468,0.5333470813265796,0.5,1.0,1.0,410.0,694.0,1.0,1,156.0,1
469,469,-0.30995796659220454,-0.3,0.0,1.0,489.0,759.0,1.0,0,492.0,1
470,470,0.29589867455418706,0.3,0.0,0.0,250.0,921.0,0.0,1,779.0,1
471,471,-0.1470425441868638,-0.1,0.0,1.0,265.0,712.0,1.0,0,1493.0,1
472,472,0.726529329679677,0.7,0.0,0.0,417.0,870.0,0.0,1,43.0,1
473,473,-0.14218476510021938,-0.1,1.0,0.0,321.0,848.0,0.0,0,1311.0,1
474,474,0.6858201240197307,0.7,0.0,0.0,439.0,944.0,0.0,1,-43.0,1
475,475,-0.42126623513917616,-0.4,0.0,1.0,300.0,923.0,1.0,0,297.0,1
476,476,0.7993533541720866,0.8,0.0,0.0,397.0,508.0,0.0,1,565.0,1
477,477,-0.16116348074247688,-0.2,1.0,0.0,310.0,982.0,0.0,0,108.0,1
478,478,0.4683628907347609,0.5,1.0,1.0,360.0,781.0,1.0,1,269.0,1
479,479,-0.0784383030998349,-0.1,1.0,0.0,416.0,534.0,0.0,0,2050.0,1
480,480,-0.343289105950349,-0.3,1.0,0.0,488.0,690.0,0.0,0,812.0,1
481,481,0.872886688514719,0.9,0.0,0.0,306.0,548.0,0.0,1,246.0,1
482,482,0.2821062691502304,0.3,0.0,0.0,477.0,788.0,0.0,1,545.0,1
483,483,0.8993543622201744,0.9,0.0,0.0,453.0,658.0,0.0,1,99.0,1
484,484,0.509362902498388,0.5,1.0,1.0,304.0,517.0,1.0,1,209.0,1
485,485,-0.16031782463442945,-0.2,0.0,1.0,410.0,510.0,1.0,0,2080.0,1
486,486,-0.7195335523234692,-0.7,0.0,1.0,392.0,859.0,1.0,0,209.0,1
487,487,0.7062206240734413,0.7,1.0,1.0,343.0,881.0,1.0,1,166.0,1
488,488,0.6729307471322125,0.7,1.0,1.0,347.0,929.0,1.0,1,164.0,1
489,489,0.3127228570950208,0.3,1.0,1.0,354.0,626.0,1.0,1,380.0,1
490,490,0.6342474656808023,0.6,1.0,1.0,331.0,611.0,1.0,1,108.0,1
491,491,0.1114435736303151,0.1,0.0,0.0,355.0,668.0,0.0,1,647.0,1
492,492,-0.10266815139897567,-0.1,1.0,0.0,270.0,830.0,0.0,0,530.0,1
493,493,0.2973216374007265,0.3,0.0,0.0,297.0,754.0,0.0,1,219.0,1
494,494,0.538929963930923,0.5,0.0,0.0,296.0,594.0,0.0,1,140.0,1
495,495,0.8222015421599463,0.8,1.0,1.0,428.0,816.0,1.0,1,166.0,1
496,496,-0.6288863174933449,-0.6,0.0,1.0,261.0,525.0,1.0,0,164.0,1
497,497,-0.5510086124141317,-0.6,1.0,0.0,331.0,684.0,0.0,0,265.0,1
498,498,0.22620868044168685,0.2,1.0,1.0,356.0,727.0,1.0,1,397.0,1
499,499,-0.08873531772131527,-0.1,1.0,0.0,355.0,969.0,0.0,0,256.0,1
500,500,-0.22908450908101474,-0.2,1.0,0.0,359.0,585.0,0.0,0,806.0,1
501,501,0.09633966044491205,0.1,1.0,1.0,484.0,797.0,1.0,1,1719.0,1
502,502,0.6334022045736346,0.6,0.0,0.0,260.0,540.0,0.0,1,380.0,1
503,503,0.07335301452509091,0.1,0.0,0.0,254.0,968.0,0.0,1,338.0,1
504,504,-0.7127808345403561,-0.7,0.0,1.0,299.0,879.0,1.0,0,132.0,1
505,505,0.6090584557582636,0.6,0.0,0.0,452.0,825.0,0.0,1,293.0,1
506,506,-0.6226951300151223,-0.6,1.0,0.0,495.0,678.0,0.0,0,147.0,1
507,507,-0.5986846201418037,-0.6,0.0,1.0,345.0,538.0,1.0,0,237.0,1
508,508,-0.41146316954965845,-0.4,0.0,1.0,283.0,735.0,1.0,0,422.0,1
509,509,0.5830447647259952,0.6,1.0,1.0,475.0,661.0,1.0,1,184.0,1
510,510,0.7290675447990212,0.7,0.0,0.0,398.0,914.0,0.0,1,208.0,1
511,511,-0.11421733970863868,-0.1,0.0,1.0,386.0,577.0,1.0,0,577.0,1
512,512,0.035675587068958126,0.0,0.0,0.0,279.0,734.0,0.0,1,1987.0,1
513,513,-0.8309241527166117,-0.8,0.0,1.0,260.0,685.0,1.0,0,145.0,1
514,514,-0.5553286118056249,-0.6,1.0,0.0,436.0,703.0,0.0,0,171.0,1
515,515,0.5322205927186024,0.5,0.0,0.0,323.0,766.0,0.0,1,181.0,1
516,516,0.20265693637898707,0.2,1.0,1.0,345.0,543.0,1.0,1,1452.0,1
517,517,0.5998780021270861,0.6,1.0,1.0,344.0,776.0,1.0,1,140.0,1
518,518,-0.5511239085942486,-0.6,0.0,1.0,337.0,994.0,1.0,0,239.0,1
519,519,0.6373541117639357,0.6,1.0,1.0,435.0,576.0,1.0,1,229.0,1
520,520,0.5951213145713657,0.6,0.0,0.0,333.0,648.0,0.0,1,159.0,1
521,521,-0.21376951842651348,-0.2,1.0,0.0,259.0,668.0,0.0,0,213.0,1
522,522,0.6959098329462744,0.7,0.0,0.0,475.0,769.0,0.0,1,126.0,1
523,523,0.5284339968037347,0.5,1.0,1.0,314.0,867.0,1.0,1,209.0,1
524,524,0.5453060181964579,0.5,1.0,1.0,412.0,627.0,1.0,1,211.0,1
525,525,0.8575338519972563,0.9,0.0,0.0,315.0,557.0,0.0,1,138.0,1
526,526,-0.4338848196103877,-0.4,0.0,1.0,365.0,944.0,1.0,0,261.0,1
527,527,-0.4554233763532575,-0.5,1.0,0.0,280.0,731.0,0.0,0,269.0,1
528,528,0.7961857872501185,0.8,1.0,1.0,345.0,589.0,1.0,1,206.0,1
529,529,0.6214779917382894,0.6,1.0,1.0,402.0,900.0,1.0,1,168.0,1
530,530,0.725384939767702,0.7,1.0,1.0,416.0,972.0,1.0,1,132.0,1
531,531,-0.46784970114302865,-0.5,1.0,0.0,422.0,503.0,0.0,0,255.0,1
532,532,-0.495026572202734,-0.5,1.0,0.0,446.0,741.0,0.0,0,133.0,1
533,533,-0.7555485604726768,-0.8,0.0,1.0,362.0,690.0,1.0,0,188.0,1
534,534,0.2378705221279983,0.2,1.0,1.0,330.0,734.0,1.0,1,986.0,1
535,535,0.8262835968026204,0.8,0.0,0.0,363.0,785.0,0.0,1,132.0,1
536,536,0.1252887255185583,0.1,0.0,0.0,304.0,686.0,0.0,1,1170.0,1
537,537,0.15783198690459088,0.2,0.0,0.0,381.0,556.0,0.0,1,1133.0,1
538,538,-0.5638605587602108,-0.6,1.0,0.0,381.0,528.0,0.0,0,651.0,1
539,539,0.4817157760598868,0.5,1.0,1.0,288.0,508.0,1.0,1,374.0,1
540,540,-0.681591443312431,-0.7,1.0,0.0,334.0,591.0,0.0,0,255.0,1
541,541,-0.6005938051662498,-0.6,0.0,1.0,459.0,713.0,0.0,1,-22.0,0
542,542,0.6864363734374129,0.7,0.0,0.0,380.0,565.0,0.0,1,285.0,1
543,543,-0.4984890045511572,-0.5,0.0,1.0,381.0,892.0,1.0,0,217.0,1
544,544,-0.6374232231643776,-0.6,1.0,0.0,268.0,869.0,0.0,0,113.0,1
545,545,0.406568423968907,0.4,1.0,1.0,382.0,757.0,1.0,1,311.0,1
546,546,-0.057397507669887826,-0.1,0.0,1.0,450.0,992.0,0.0,1,1558.0,0
547,547,-0.197351747013222,-0.2,0.0,1.0,260.0,675.0,1.0,0,1005.0,1
548,548,0.05942053384910351,0.1,1.0,1.0,372.0,986.0,1.0,1,1642.0,1
549,549,-0.6205065271188375,-0.6,1.0,0.0,441.0,867.0,0.0,0,262.0,1
550,550,-0.1729995552885042,-0.2,1.0,0.0,458.0,609.0,0.0,0,403.0,1
551,551,0.6076402045887025,0.6,0.0,0.0,395.0,657.0,0.0,1,178.0,1
552,552,-0.37145857827318096,-0.4,1.0,0.0,254.0,845.0,0.0,0,211.0,1
553,553,0.10050279149860508,0.1,1.0,1.0,494.0,818.0,1.0,1,1688.0,1
554,554,0.6556820515846885,0.7,1.0,1.0,349.0,705.0,1.0,1,156.0,1
555,555,0.8153546829510973,0.8,0.0,0.0,354.0,557.0,0.0,1,329.0,1
556,556,0.16475975180536484,0.2,1.0,1.0,260.0,824.0,1.0,1,836.0,1
557,557,0.21452730497618921,0.2,0.0,0.0,429.0,817.0,0.0,1,394.0,1
558,558,-0.8700265580085819,-0.9,1.0,0.0,263.0,759.0,0.0,0,78.0,1
559,559,0.2996911449573866,0.3,0.0,0.0,262.0,646.0,0.0,1,452.0,1
560,560,-0.8866513992594366,-0.9,0.0,1.0,259.0,972.0,1.0,0,229.0,1
561,561,-0.4660127568088344,-0.5,0.0,1.0,498.0,876.0,1.0,0,416.0,1
562,562,0.5447124983035635,0.5,0.0,0.0,395.0,743.0,0.0,1,72.0,1
563,563,-0.08693948222510683,-0.1,1.0,0.0,336.0,948.0,0.0,0,1716.0,1
564,564,0.6505452850904577,0.7,0.0,0.0,270.0,552.0,0.0,1,238.0,1
565,565,-0.07241279892148234,-0.1,0.0,1.0,354.0,964.0,1.0,0,1682.0,1
566,566,-0.6925760363152706,-0.7,0.0,1.0,266.0,703.0,1.0,0,151.0,1
567,567,-0.12462611023494963,-0.1,1.0,0.0,296.0,843.0,0.0,0,1861.0,1
568,568,0.4020424971084343,0.4,1.0,1.0,422.0,665.0,1.0,1,303.0,1
569,569,0.6421118857425924,0.6,1.0,1.0,428.0,663.0,1.0,1,259.0,1
570,570,0.7531628762770454,0.8,1.0,1.0,307.0,531.0,1.0,1,102.0,1
571,571,0.4898497906533622,0.5,0.0,0.0,256.0,692.0,0.0,1,282.0,1
572,572,0.2543886798016065,0.3,1.0,1.0,437.0,995.0,1.0,1,598.0,1
573,573,0.5836822771410716,0.6,0.0,0.0,425.0,850.0,0.0,1,165.0,1
574,574,-0.0875894424866206,-0.1,0.0,1.0,268.0,929.0,1.0,0,1803.0,1
575,575,0.17652774614297206,0.2,1.0,1.0,261.0,991.0,1.0,1,488.0,1
576,576,0.5760391531818893,0.6,1.0,1.0,253.0,676.0,1.0,1,141.0,1
577,577,-0.1986369574314737,-0.2,0.0,1.0,266.0,504.0,1.0,0,750.0,1
578,578,0.20658875909668295,0.2,0.0,0.0,462.0,814.0,0.0,1,554.0,1
579,579,0.3685886041950478,0.4,1.0,1.0,343.0,841.0,1.0,1,86.0,1
580,580,-0.4316553487334341,-0.4,0.0,1.0,447.0,677.0,1.0,0,246.0,1
581,581,-0.34250336285175764,-0.3,1.0,0.0,432.0,720.0,0.0,0,168.0,1
582,582,0.009744511643927312,0.0,1.0,1.0,306.0,553.0,0.0,0,2141.0,0
583,583,-0.2684919074301786,-0.3,1.0,0.0,363.0,885.0,0.0,0,802.0,1
584,584,-0.09861161417463393,-0.1,0.0,1.0,354.0,944.0,1.0,0,892.0,1
585,585,0.42111530169299416,0.4,0.0,0.0,450.0,541.0,0.0,1,259.0,1
586,586,-0.2630727968022738,-0.3,1.0,0.0,452.0,834.0,0.0,0,244.0,1
587,587,-0.7961958770394573,-0.8,0.0,1.0,290.0,718.0,1.0,0,182.0,1
588,588,-0.5670007704394033,-0.6,1.0,0.0,463.0,582.0,0.0,0,585.0,1
589,589,0.054333377188820364,0.1,1.0,1.0,391.0,938.0,0.0,0,1671.0,0
590,590,-0.5206882261314518,-0.5,0.0,1.0,270.0,903.0,1.0,0,147.0,1
591,591,0.17318559880797346,0.2,1.0,1.0,409.0,575.0,1.0,1,346.0,1
592,592,-0.5936280873185387,-0.6,0.0,1.0,480.0,599.0,1.0,0,201.0,1
593,593,0.5543885181810683,0.6,0.0,0.0,487.0,723.0,0.0,1,240.0,1
594,594,0.08687386658867702,0.1,1.0,1.0,253.0,541.0,1.0,1,1356.0,1
595,595,0.8686446247269887,0.9,1.0,1.0,280.0,725.0,1.0,1,105.0,1
596,596,-0.8860349746482873,-0.9,1.0,0.0,273.0,645.0,0.0,0,102.0,1
597,597,0.4075758783740969,0.4,0.0,0.0,377.0,926.0,0.0,1,177.0,1
598,598,0.15012894103007313,0.2,0.0,0.0,328.0,574.0,0.0,1,718.0,1
599,599,0.7627855426782068,0.8,1.0,1.0,385.0,979.0,1.0,1,196.0,1
600,600,-0.5984329756256057,-0.6,0.0,1.0,335.0,866.0,1.0,0,179.0,1
601,601,0.6713006238048141,0.7,0.0,0.0,286.0,624.0,0.0,1,80.0,1
602,602,-0.12193980788123404,-0.1,1.0,0.0,323.0,540.0,0.0,0,937.0,1
603,603,0.5647856113246345,0.6,1.0,1.0,378.0,909.0,1.0,1,223.0,1
604,604,-0.8734921777920543,-0.9,0.0,1.0,442.0,871.0,1.0,0,157.0,1
605,605,-0.7136130188149702,-0.7,1.0,0.0,418.0,986.0,0.0,0,176.0,1
606,606,-0.5969568133677591,-0.6,1.0,0.0,268.0,585.0,0.0,0,187.0,1
607,607,-0.5399806823493094,-0.5,1.0,0.0,372.0,642.0,0.0,0,86.0,1
608,608,-0.8911453389339125,-0.9,0.0,1.0,466.0,616.0,1.0,0,138.0,1
609,609,0.722604290728814,0.7,1.0,1.0,411.0,814.0,1.0,1,115.0,1
610,610,-0.5280129164491054,-0.5,1.0,0.0,342.0,567.0,0.0,0,261.0,1
611,611,0.4935626222238755,0.5,1.0,1.0,357.0,822.0,1.0,1,161.0,1
612,612,0.6747276015834008,0.7,1.0,1.0,435.0,903.0,1.0,1,142.0,1
613,613,0.5129091481138194,0.5,0.0,0.0,487.0,792.0,0.0,1,181.0,1
614,614,0.38090392544453466,0.4,1.0,1.0,380.0,812.0,1.0,1,278.0,1
615,615,0.7104571396855549,0.7,0.0,0.0,444.0,990.0,0.0,1,76.0,1
616,616,-0.8031781202157562,-0.8,1.0,0.0,252.0,957.0,0.0,0,141.0,1
617,617,-0.5378162671201961,-0.5,1.0,0.0,485.0,952.0,0.0,0,103.0,1
618,618,-0.7962299606741163,-0.8,0.0,1.0,316.0,633.0,1.0,0,261.0,1
619,619,0.5060247131974934,0.5,0.0,0.0,467.0,738.0,0.0,1,215.0,1
620,620,-0.6858888861121246,-0.7,1.0,0.0,339.0,734.0,0.0,0,127.0,1
621,621,-0.8838541297615928,-0.9,1.0,0.0,395.0,869.0,0.0,0,136.0,1
622,622,0.6572689835638538,0.7,0.0,0.0,446.0,984.0,0.0,1,90.0,1
623,623,0.41555038959152724,0.4,0.0,0.0,296.0,586.0,0.0,1,458.0,1
624,624,0.3016306522474891,0.3,1.0,1.0,489.0,544.0,1.0,1,507.0,1
625,625,0.6735891364215908,0.7,1.0,1.0,288.0,773.0,1.0,1,319.0,1
626,626,0.4450338247902238,0.4,0.0,0.0,357.0,855.0,0.0,1,188.0,1
627,627,-0.17218019591801215,-0.2,1.0,0.0,264.0,839.0,0.0,0,297.0,1
628,628,-0.0829360371840362,-0.1,0.0,1.0,479.0,518.0,1.0,0,943.0,1
629,629,-0.5308417866627098,-0.5,1.0,0.0,342.0,701.0,0.0,0,187.0,1
630,630,0.31923365913444457,0.3,0.0,0.0,431.0,965.0,0.0,1,34.0,1
631,631,-0.30755841128943817,-0.3,0.0,1.0,461.0,753.0,1.0,0,386.0,1
632,632,-0.1530763827824907,-0.2,0.0,1.0,483.0,996.0,0.0,1,1521.0,0
633,633,0.484029606770355,0.5,0.0,0.0,448.0,679.0,0.0,1,193.0,1
634,634,-0.3704564875436497,-0.4,0.0,1.0,367.0,554.0,1.0,0,129.0,1
635,635,0.1942289214708478,0.2,0.0,0.0,441.0,702.0,0.0,1,377.0,1
636,636,0.24016421202357685,0.2,1.0,1.0,287.0,593.0,1.0,1,1070.0,1
637,637,-0.5238495858659629,-0.5,1.0,0.0,364.0,952.0,0.0,0,234.0,1
638,638,0.23628170320785935,0.2,1.0,1.0,250.0,551.0,1.0,1,369.0,1
639,639,0.761121759072834,0.8,0.0,0.0,260.0,903.0,0.0,1,87.0,1
640,640,-0.5421504914217069,-0.5,1.0,0.0,252.0,516.0,0.0,0,272.0,1
641,641,0.46854607739595655,0.5,1.0,1.0,299.0,953.0,1.0,1,188.0,1
642,642,-0.6681936913467355,-0.7,1.0,0.0,301.0,793.0,0.0,0,186.0,1
643,643,-0.37553999622907464,-0.4,1.0,0.0,253.0,582.0,0.0,0,275.0,1
644,644,0.413389654098982,0.4,0.0,0.0,349.0,653.0,0.0,1,298.0,1
645,645,0.5480374660107054,0.5,0.0,0.0,480.0,867.0,0.0,1,213.0,1
646,646,0.017190778311280908,0.0,0.0,0.0,475.0,869.0,0.0,1,1656.0,1
647,647,-0.7435472515343924,-0.7,1.0,0.0,433.0,968.0,0.0,0,149.0,1
648,648,0.4850075078538586,0.5,0.0,0.0,449.0,713.0,0.0,1,388.0,1
649,649,0.8747410225825824,0.9,0.0,0.0,315.0,639.0,0.0,1,156.0,1
650,650,0.4131337504646343,0.4,0.0,0.0,300.0,556.0,0.0,1,534.0,1
651,651,0.13808985437352816,0.1,0.0,0.0,366.0,590.0,0.0,1,704.0,1
652,652,-0.6015160986203172,-0.6,1.0,0.0,327.0,980.0,0.0,0,153.0,1
653,653,-0.6966919543290638,-0.7,1.0,0.0,481.0,804.0,0.0,0,115.0,1
654,654,0.42907444061176225,0.4,0.0,0.0,289.0,606.0,0.0,1,205.0,1
655,655,-0.20907072147625905,-0.2,1.0,0.0,442.0,956.0,0.0,0,432.0,1
656,656,-0.7387604331326921,-0.7,0.0,1.0,258.0,720.0,1.0,0,172.0,1
657,657,0.539331149879756,0.5,1.0,1.0,295.0,982.0,1.0,1,133.0,1
658,658,0.6028148650880537,0.6,0.0,0.0,345.0,981.0,0.0,1,154.0,1
659,659,-0.16418992879184058,-0.2,1.0,0.0,336.0,535.0,0.0,0,379.0,1
660,660,0.5422400447748695,0.5,0.0,0.0,278.0,616.0,0.0,1,296.0,1
661,661,-0.4592070849535232,-0.5,0.0,1.0,432.0,533.0,1.0,0,275.0,1
662,662,0.011261619166236692,0.0,1.0,1.0,472.0,839.0,0.0,0,679.0,0
663,663,0.7349501327792586,0.7,1.0,1.0,320.0,874.0,1.0,1,136.0,1
664,664,-0.6287578427633891,-0.6,1.0,0.0,309.0,794.0,0.0,0,187.0,1
665,665,-0.20932481460271934,-0.2,0.0,1.0,312.0,952.0,1.0,0,1136.0,1
666,666,-0.7267701062576319,-0.7,1.0,0.0,493.0,794.0,0.0,0,73.0,1
667,667,0.34009359360534985,0.3,0.0,0.0,476.0,625.0,0.0,1,129.0,1
668,668,0.22191000141480732,0.2,1.0,1.0,345.0,541.0,1.0,1,594.0,1
669,669,0.3887765223448386,0.4,0.0,0.0,430.0,865.0,0.0,1,175.0,1
670,670,0.8752510467174176,0.9,0.0,0.0,496.0,819.0,0.0,1,175.0,1
671,671,0.3641689772858324,0.4,1.0,1.0,323.0,641.0,1.0,1,226.0,1
672,672,0.08369446811182801,0.1,1.0,1.0,444.0,707.0,1.0,1,1849.0,1
673,673,-0.8567893473297351,-0.9,0.0,1.0,425.0,502.0,1.0,0,133.0,1
674,674,-0.2979835629250829,-0.3,0.0,1.0,448.0,808.0,1.0,0,484.0,1
675,675,-0.2987176341393686,-0.3,0.0,1.0,439.0,900.0,1.0,0,231.0,1
676,676,0.8705556402374667,0.9,1.0,1.0,324.0,637.0,1.0,1,139.0,1
677,677,-0.6382881541296637,-0.6,0.0,1.0,392.0,866.0,1.0,0,212.0,1
678,678,0.8028494696420873,0.8,1.0,1.0,409.0,832.0,1.0,1,109.0,1
679,679,0.26938605772973945,0.3,0.0,0.0,335.0,893.0,0.0,1,382.0,1
680,680,0.28670098266530164,0.3,1.0,1.0,444.0,936.0,1.0,1,400.0,1
681,681,0.6918187839125131,0.7,0.0,0.0,443.0,720.0,0.0,1,217.0,1
682,682,-0.8027539210319091,-0.8,0.0,1.0,308.0,502.0,1.0,0,240.0,1
683,683,-0.7646529682035439,-0.8,1.0,0.0,496.0,912.0,0.0,0,12.0,1
684,684,-0.7978764000538845,-0.8,0.0,1.0,266.0,552.0,1.0,0,182.0,1
685,685,0.713330329459123,0.7,1.0,1.0,497.0,905.0,1.0,1,138.0,1
686,686,0.459047481577601,0.5,1.0,1.0,366.0,771.0,1.0,1,533.0,1
687,687,0.6749655752297797,0.7,0.0,0.0,376.0,958.0,0.0,1,166.0,1
688,688,0.22182871587710384,0.2,1.0,1.0,305.0,909.0,1.0,1,1206.0,1
689,689,0.700402756563855,0.7,0.0,0.0,414.0,937.0,0.0,1,19.0,1
690,690,0.2521256851731054,0.3,1.0,1.0,422.0,699.0,1.0,1,1229.0,1
691,691,-0.509807487390989,-0.5,1.0,0.0,264.0,668.0,0.0,0,458.0,1
692,692,-0.8717143590740131,-0.9,0.0,1.0,383.0,796.0,1.0,0,71.0,1
693,693,-0.7140292701886581,-0.7,1.0,0.0,311.0,656.0,0.0,0,163.0,1
694,694,0.08174288210776315,0.1,0.0,0.0,351.0,523.0,0.0,1,1636.0,1
695,695,-0.1975896363339127,-0.2,0.0,1.0,257.0,639.0,1.0,0,934.0,1
696,696,0.34293190989448974,0.3,0.0,0.0,440.0,953.0,0.0,1,647.0,1
697,697,-0.5249586501570325,-0.5,1.0,0.0,357.0,954.0,0.0,0,129.0,1
698,698,-0.4993118647053874,-0.5,1.0,0.0,420.0,924.0,0.0,0,116.0,1
699,699,0.22848384226938456,0.2,0.0,0.0,471.0,936.0,0.0,1,223.0,1
700,700,-0.5614945810028009,-0.6,0.0,1.0,273.0,925.0,1.0,0,312.0,1
701,701,-0.23598442935963182,-0.2,1.0,0.0,440.0,939.0,0.0,0,351.0,1
702,702,-0.6844375026558367,-0.7,1.0,0.0,295.0,958.0,0.0,0,27.0,1
703,703,0.326788996609349,0.3,1.0,1.0,375.0,830.0,1.0,1,185.0,1
704,704,-0.6950720103518344,-0.7,0.0,1.0,477.0,926.0,1.0,0,37.0,1
705,705,0.2929784949195996,0.3,0.0,0.0,411.0,589.0,0.0,1,640.0,1
706,706,0.13973239207453203,0.1,1.0,1.0,380.0,987.0,1.0,1,1123.0,1
707,707,0.48808996670906446,0.5,1.0,1.0,457.0,656.0,1.0,1,317.0,1
708,708,0.08206605328165473,0.1,0.0,0.0,265.0,775.0,0.0,1,1960.0,1
709,709,-0.20498414576515156,-0.2,0.0,1.0,295.0,721.0,1.0,0,1154.0,1
710,710,-0.4401175869928599,-0.4,1.0,0.0,264.0,504.0,0.0,0,382.0,1
711,711,-0.15497320126226333,-0.2,0.0,1.0,394.0,823.0,1.0,0,1633.0,1
712,712,0.36582072652448916,0.4,0.0,0.0,358.0,934.0,0.0,1,148.0,1
713,713,0.7564844612955411,0.8,1.0,1.0,388.0,722.0,1.0,1,230.0,1
714,714,-0.22369560547776857,-0.2,0.0,1.0,386.0,797.0,1.0,0,907.0,1
715,715,0.3258635247422833,0.3,1.0,1.0,477.0,992.0,1.0,1,151.0,1
716,716,0.6596782576918191,0.7,1.0,1.0,374.0,570.0,1.0,1,216.0,1
717,717,-0.4003771107823853,-0.4,1.0,0.0,431.0,624.0,0.0,0,125.0,1
718,718,-0.03080449368712712,-0.0,1.0,0.0,451.0,760.0,0.0,0,1569.0,1
719,719,-0.7056087310509772,-0.7,1.0,0.0,455.0,770.0,0.0,0,125.0,1
720,720,1.0664168983653965e-05,0.0,0.0,0.0,377.0,751.0,0.0,1,1872.0,1
721,721,-0.32157881420405654,-0.3,1.0,0.0,336.0,796.0,0.0,0,158.0,1
722,722,0.8270258761180965,0.8,1.0,1.0,301.0,655.0,1.0,1,124.0,1
723,723,-0.11034086563537082,-0.1,0.0,1.0,288.0,968.0,1.0,0,974.0,1
724,724,-0.6008226866947477,-0.6,0.0,1.0,367.0,696.0,1.0,0,247.0,1
725,725,-0.8035370105140482,-0.8,1.0,0.0,335.0,683.0,0.0,0,152.0,1
726,726,0.4097650185978906,0.4,1.0,1.0,430.0,764.0,1.0,1,226.0,1
727,727,0.21013981818888883,0.2,1.0,1.0,409.0,651.0,1.0,1,270.0,1
728,728,0.6734982080903679,0.7,1.0,1.0,476.0,522.0,1.0,1,182.0,1
729,729,0.8917750253430027,0.9,1.0,1.0,282.0,854.0,1.0,1,174.0,1
730,730,0.39127363192661135,0.4,0.0,0.0,334.0,583.0,0.0,1,383.0,1
731,731,-0.13538925947411928,-0.1,1.0,0.0,301.0,687.0,0.0,0,572.0,1
732,732,0.6039829524123076,0.6,0.0,0.0,497.0,999.0,0.0,1,134.0,1
733,733,-0.593665667370994,-0.6,0.0,1.0,455.0,883.0,1.0,0,172.0,1
734,734,0.261159159316528,0.3,0.0,0.0,416.0,936.0,0.0,1,338.0,1
735,735,-0.42871695987303854,-0.4,1.0,0.0,268.0,534.0,0.0,0,218.0,1
736,736,0.3411441261567093,0.3,0.0,0.0,314.0,685.0,0.0,1,141.0,1
737,737,0.7261559177323241,0.7,1.0,1.0,448.0,773.0,1.0,1,49.0,1
738,738,0.8638895422393676,0.9,0.0,0.0,366.0,989.0,0.0,1,75.0,1
739,739,-0.7551668476754234,-0.8,1.0,0.0,456.0,878.0,0.0,0,156.0,1
740,740,0.35055965950702295,0.4,1.0,1.0,419.0,599.0,1.0,1,352.0,1
741,741,-0.3670673447257614,-0.4,0.0,1.0,379.0,712.0,1.0,0,229.0,1
742,742,-0.24205775021279075,-0.2,1.0,0.0,435.0,552.0,0.0,0,1193.0,1
743,743,-0.4327358209201293,-0.4,1.0,0.0,428.0,631.0,0.0,0,451.0,1
744,744,0.7090558428334884,0.7,0.0,0.0,382.0,752.0,0.0,1,26.0,1
745,745,0.4738477089855021,0.5,1.0,1.0,383.0,513.0,1.0,1,364.0,1
746,746,-0.29677748288267325,-0.3,0.0,1.0,345.0,857.0,1.0,0,338.0,1
747,747,0.3471451722497173,0.3,1.0,1.0,480.0,920.0,1.0,1,290.0,1
748,748,-0.8369440549338145,-0.8,1.0,0.0,499.0,578.0,0.0,0,93.0,1
749,749,-0.8767755080981079,-0.9,1.0,0.0,363.0,970.0,0.0,0,57.0,1
750,750,-0.47348695695593407,-0.5,0.0,1.0,324.0,926.0,1.0,0,260.0,1
751,751,-0.6607773984760346,-0.7,0.0,1.0,281.0,590.0,1.0,0,359.0,1
752,752,-0.6324382385396119,-0.6,1.0,0.0,284.0,762.0,0.0,0,134.0,1
753,753,0.7182523303790077,0.7,1.0,1.0,392.0,874.0,1.0,1,144.0,1
754,754,0.5954314807616451,0.6,1.0,1.0,345.0,547.0,1.0,1,108.0,1
755,755,-0.49675661248009123,-0.5,0.0,1.0,446.0,974.0,1.0,0,1040.0,1
756,756,-0.0539969889710149,-0.1,0.0,1.0,255.0,606.0,1.0,0,2139.0,1
757,757,0.5496096517165251,0.5,1.0,1.0,376.0,542.0,1.0,1,272.0,1
758,758,-0.8809748669472729,-0.9,1.0,0.0,338.0,749.0,0.0,0,163.0,1
759,759,0.7248879420188373,0.7,1.0,1.0,279.0,666.0,1.0,1,135.0,1
760,760,0.35967166563693664,0.4,1.0,1.0,369.0,665.0,1.0,1,346.0,1
761,761,-0.6869599043913025,-0.7,1.0,0.0,435.0,875.0,0.0,0,180.0,1
762,762,0.032969040652852,0.0,0.0,0.0,307.0,949.0,0.0,1,1744.0,1
763,763,-0.8008271804568686,-0.8,1.0,0.0,396.0,847.0,0.0,0,487.0,1
764,764,-0.27238761930367383,-0.3,1.0,0.0,251.0,685.0,0.0,0,264.0,1
765,765,0.559138927998453,0.6,0.0,0.0,471.0,576.0,0.0,1,403.0,1
766,766,-0.7155185235159018,-0.7,1.0,0.0,396.0,790.0,0.0,0,154.0,1
767,767,-0.6282333286560428,-0.6,0.0,1.0,351.0,927.0,1.0,0,162.0,1
768,768,0.8822805813074869,0.9,0.0,0.0,439.0,724.0,0.0,1,137.0,1
769,769,0.6050610452187081,0.6,1.0,1.0,361.0,941.0,1.0,1,148.0,1
770,770,0.3356568297006882,0.3,0.0,0.0,327.0,942.0,0.0,1,141.0,1
771,771,0.7961854952881001,0.8,1.0,1.0,430.0,750.0,1.0,1,170.0,1
772,772,0.6652324214699389,0.7,1.0,1.0,308.0,786.0,1.0,1,116.0,1
773,773,-0.02813644615387456,-0.0,0.0,1.0,292.0,652.0,0.0,1,2056.0,0
774,774,-0.06375428420671159,-0.1,0.0,1.0,480.0,706.0,1.0,0,1814.0,1
775,775,0.6402080394232018,0.6,1.0,1.0,265.0,548.0,1.0,1,167.0,1
776,776,0.3984339564513014,0.4,0.0,0.0,250.0,754.0,0.0,1,156.0,1
777,777,-0.004151529094575945,-0.0,1.0,0.0,443.0,986.0,0.0,0,1531.0,1
778,778,0.6799583349508543,0.7,1.0,1.0,468.0,520.0,1.0,1,172.0,1
779,779,0.1549838925614032,0.2,0.0,0.0,395.0,571.0,0.0,1,1164.0,1
780,780,-0.07115951286104882,-0.1,1.0,0.0,365.0,916.0,0.0,0,1409.0,1
781,781,0.17367046624458526,0.2,0.0,0.0,484.0,798.0,0.0,1,818.0,1
782,782,-0.2364462312015837,-0.2,0.0,1.0,334.0,639.0,1.0,0,1297.0,1
783,783,-0.11661529051308472,-0.1,0.0,1.0,391.0,881.0,1.0,0,718.0,1
784,784,0.5985523931236038,0.6,1.0,1.0,370.0,951.0,1.0,1,189.0,1
785,785,-0.11383678198254443,-0.1,0.0,1.0,265.0,910.0,1.0,0,1825.0,1
786,786,-0.24294054108843943,-0.2,1.0,0.0,498.0,676.0,0.0,0,536.0,1
787,787,0.3659054830754206,0.4,0.0,0.0,373.0,673.0,0.0,1,204.0,1
788,788,-0.8800933160150025,-0.9,0.0,1.0,299.0,641.0,1.0,0,110.0,1
789,789,0.7028370799136626,0.7,0.0,0.0,455.0,630.0,0.0,1,205.0,1
790,790,0.2512355497186701,0.3,1.0,1.0,269.0,573.0,1.0,1,358.0,1
791,791,-0.39199567349364217,-0.4,1.0,0.0,385.0,928.0,0.0,0,197.0,1
792,792,0.8487901367976404,0.8,1.0,1.0,351.0,631.0,1.0,1,178.0,1
793,793,0.8980407120451567,0.9,1.0,1.0,409.0,644.0,1.0,1,187.0,1
794,794,-0.8964894113848039,-0.9,1.0,0.0,295.0,597.0,0.0,0,68.0,1
795,795,0.1587707790181626,0.2,1.0,1.0,481.0,607.0,0.0,0,1312.0,0
796,796,0.4431545022810309,0.4,1.0,1.0,270.0,955.0,1.0,1,85.0,1
797,797,-0.5758671368685901,-0.6,1.0,0.0,452.0,647.0,0.0,0,411.0,1
798,798,0.21310743840184265,0.2,1.0,1.0,433.0,876.0,1.0,1,671.0,1
799,799,-0.40063845346295396,-0.4,0.0,1.0,265.0,577.0,1.0,0,488.0,1
800,800,-0.04993230755995148,-0.0,0.0,1.0,437.0,803.0,0.0,1,1760.0,0
801,801,0.47689997309530663,0.5,0.0,0.0,472.0,883.0,0.0,1,85.0,1
802,802,-0.8469432468209818,-0.8,0.0,1.0,434.0,690.0,1.0,0,156.0,1
803,803,0.4134729832635323,0.4,1.0,1.0,292.0,997.0,1.0,1,371.0,1
804,804,-0.5871562953568803,-0.6,0.0,1.0,494.0,570.0,1.0,0,126.0,1
805,805,-0.46147258196971785,-0.5,0.0,1.0,258.0,986.0,1.0,0,116.0,1
806,806,-0.23747445207528162,-0.2,1.0,0.0,426.0,923.0,0.0,0,181.0,1
807,807,0.6529924885373116,0.7,0.0,0.0,276.0,874.0,0.0,1,120.0,1
808,808,-0.20930913370456738,-0.2,0.0,1.0,339.0,592.0,1.0,0,339.0,1
809,809,-0.3458768140122527,-0.3,0.0,1.0,427.0,722.0,1.0,0,531.0,1
810,810,0.4335284473379192,0.4,0.0,0.0,491.0,700.0,0.0,1,469.0,1
811,811,-0.6231080714931436,-0.6,0.0,1.0,292.0,828.0,1.0,0,180.0,1
812,812,-0.2051063568536058,-0.2,0.0,1.0,486.0,587.0,1.0,0,1317.0,1
813,813,0.5579250858110422,0.6,1.0,1.0,275.0,846.0,1.0,1,189.0,1
814,814,-0.5010258512453909,-0.5,1.0,0.0,302.0,795.0,0.0,0,253.0,1
815,815,-0.26889202814334967,-0.3,0.0,1.0,269.0,522.0,1.0,0,239.0,1
816,816,-0.5143973891581333,-0.5,0.0,1.0,477.0,977.0,1.0,0,266.0,1
817,817,-0.6947260309524171,-0.7,0.0,1.0,359.0,646.0,1.0,0,315.0,1
818,818,0.8266166209258813,0.8,0.0,0.0,449.0,844.0,0.0,1,437.0,1
819,819,-0.23618605241962198,-0.2,0.0,1.0,469.0,998.0,1.0,0,1383.0,1
820,820,-0.31661423694194635,-0.3,0.0,1.0,324.0,703.0,1.0,0,373.0,1
821,821,0.13863062281503458,0.1,1.0,1.0,453.0,838.0,1.0,1,1369.0,1
822,822,0.07700254316162736,0.1,0.0,0.0,371.0,822.0,0.0,1,727.0,1
823,823,0.40655746833403905,0.4,0.0,0.0,266.0,646.0,0.0,1,218.0,1
824,824,0.7431414339404688,0.7,1.0,1.0,460.0,660.0,1.0,1,130.0,1
825,825,-0.6240867135293209,-0.6,0.0,1.0,406.0,549.0,1.0,0,165.0,1
826,826,-0.5552583057347077,-0.6,1.0,0.0,466.0,900.0,0.0,0,144.0,1
827,827,-0.3232900964979253,-0.3,1.0,0.0,478.0,729.0,0.0,0,203.0,1
828,828,-0.36685170772879583,-0.4,0.0,1.0,451.0,738.0,1.0,0,241.0,1
829,829,0.18876260951939428,0.2,1.0,1.0,319.0,958.0,1.0,1,833.0,1
830,830,-0.1381111124553014,-0.1,1.0,0.0,398.0,525.0,0.0,0,257.0,1
831,831,0.5696889258615335,0.6,1.0,1.0,251.0,943.0,1.0,1,196.0,1
832,832,-0.544555445933407,-0.5,0.0,1.0,472.0,597.0,1.0,0,211.0,1
833,833,0.09972482949376316,0.1,1.0,1.0,420.0,710.0,1.0,1,790.0,1
834,834,0.13864960979216912,0.1,1.0,1.0,369.0,756.0,1.0,1,1875.0,1
835,835,0.05799990406443278,0.1,1.0,1.0,447.0,768.0,0.0,0,255.0,0
836,836,-0.3766871404587564,-0.4,0.0,1.0,298.0,623.0,1.0,0,279.0,1
837,837,-0.5285864781795171,-0.5,0.0,1.0,293.0,728.0,1.0,0,289.0,1
838,838,-0.7432189156641605,-0.7,0.0,1.0,378.0,785.0,1.0,0,157.0,1
839,839,-0.4697408793341453,-0.5,0.0,1.0,273.0,744.0,1.0,0,373.0,1
840,840,0.26125784850721756,0.3,0.0,0.0,337.0,759.0,0.0,1,254.0,1
841,841,-0.1447815383767097,-0.1,1.0,0.0,352.0,724.0,0.0,0,724.0,1
842,842,0.24919753246401932,0.2,0.0,0.0,414.0,856.0,0.0,1,220.0,1
843,843,-0.41553119503537606,-0.4,0.0,1.0,393.0,736.0,1.0,0,341.0,1
844,844,-0.8710861605559688,-0.9,1.0,0.0,440.0,998.0,0.0,0,72.0,1
845,845,0.018494870058852975,0.0,0.0,0.0,258.0,540.0,1.0,0,2202.0,0
846,846,0.257162912828926,0.3,1.0,1.0,430.0,886.0,1.0,1,504.0,1
847,847,0.6751885016154674,0.7,0.0,0.0,389.0,726.0,0.0,1,145.0,1
848,848,-0.19681473419296047,-0.2,1.0,0.0,458.0,852.0,0.0,0,450.0,1
849,849,0.07693616273751547,0.1,0.0,0.0,288.0,988.0,0.0,1,364.0,1
850,850,0.8695708845510638,0.9,0.0,0.0,322.0,830.0,0.0,1,108.0,1
851,851,0.7826063644898057,0.8,1.0,1.0,429.0,552.0,1.0,1,239.0,1
852,852,0.4781417751913991,0.5,0.0,0.0,357.0,629.0,0.0,1,234.0,1
853,853,0.1625770997083701,0.2,1.0,1.0,283.0,727.0,1.0,1,1100.0,1
854,854,-0.6072268228427198,-0.6,0.0,1.0,388.0,744.0,1.0,0,118.0,1
855,855,-0.7776988144409956,-0.8,1.0,0.0,490.0,783.0,0.0,0,117.0,1
856,856,0.23904326222995753,0.2,0.0,0.0,355.0,886.0,0.0,1,109.0,1
857,857,0.23287185197274562,0.2,0.0,0.0,312.0,796.0,0.0,1,562.0,1
858,858,-0.4486472855446323,-0.4,1.0,0.0,480.0,861.0,0.0,0,139.0,1
859,859,-0.39374773618408687,-0.4,1.0,0.0,471.0,949.0,0.0,0,340.0,1
860,860,0.7246514140617929,0.7,0.0,0.0,317.0,981.0,0.0,1,112.0,1
861,861,0.8056460867520335,0.8,1.0,1.0,384.0,878.0,1.0,1,148.0,1
862,862,0.3112562301948464,0.3,1.0,1.0,469.0,658.0,1.0,1,303.0,1
863,863,-0.3920693140538022,-0.4,0.0,1.0,337.0,746.0,1.0,0,277.0,1
864,864,0.870620771825907,0.9,0.0,0.0,400.0,839.0,0.0,1,81.0,1
865,865,0.5213430454227862,0.5,1.0,1.0,335.0,834.0,1.0,1,251.0,1
866,866,-0.8266837083410831,-0.8,0.0,1.0,409.0,911.0,1.0,0,150.0,1
867,867,-0.10140692308609744,-0.1,1.0,0.0,326.0,534.0,0.0,0,1900.0,1
868,868,-0.3087321681287385,-0.3,0.0,1.0,413.0,784.0,1.0,0,253.0,1
869,869,-0.24284628514792628,-0.2,1.0,0.0,495.0,558.0,0.0,0,737.0,1
870,870,-0.5876201622422588,-0.6,1.0,0.0,458.0,649.0,0.0,0,133.0,1
871,871,-0.7068854359404224,-0.7,1.0,0.0,361.0,800.0,0.0,0,139.0,1
872,872,-0.7780550848477531,-0.8,1.0,0.0,286.0,511.0,0.0,0,233.0,1
873,873,0.6697536550467672,0.7,0.0,0.0,484.0,922.0,0.0,1,114.0,1
874,874,0.6967318833701118,0.7,1.0,1.0,341.0,778.0,1.0,1,91.0,1
875,875,0.7149280106109638,0.7,0.0,0.0,377.0,547.0,0.0,1,376.0,1
876,876,0.15488213444412302,0.2,0.0,0.0,302.0,661.0,0.0,1,147.0,1
877,877,-0.5768530354864945,-0.6,1.0,0.0,391.0,818.0,0.0,0,121.0,1
878,878,-0.19665744142373998,-0.2,0.0,1.0,462.0,900.0,1.0,0,808.0,1
879,879,0.5426972337380481,0.5,1.0,1.0,474.0,658.0,1.0,1,338.0,1
880,880,-0.45008693553535095,-0.5,0.0,1.0,379.0,911.0,1.0,0,200.0,1
881,881,-0.1581055139293407,-0.2,1.0,0.0,254.0,732.0,0.0,0,724.0,1
882,882,-0.6920752748902599,-0.7,1.0,0.0,490.0,764.0,0.0,0,216.0,1
883,883,-0.16643136395267955,-0.2,1.0,0.0,397.0,660.0,0.0,0,1323.0,1
884,884,-0.6038840593638077,-0.6,0.0,1.0,489.0,998.0,1.0,0,233.0,1
885,885,0.2747470705040619,0.3,0.0,0.0,367.0,622.0,0.0,1,561.0,1
886,886,-0.6029404567525032,-0.6,0.0,1.0,339.0,527.0,1.0,0,124.0,1
887,887,0.47314259347287246,0.5,1.0,1.0,311.0,507.0,1.0,1,182.0,1
888,888,0.5207088877454021,0.5,1.0,1.0,253.0,809.0,1.0,1,68.0,1
889,889,0.7512338706240552,0.8,0.0,0.0,291.0,637.0,0.0,1,142.0,1
890,890,0.7949697953875191,0.8,0.0,0.0,380.0,975.0,0.0,1,145.0,1
891,891,-0.5118136145983039,-0.5,1.0,0.0,339.0,528.0,0.0,0,263.0,1
892,892,-0.13676234470269288,-0.1,1.0,0.0,362.0,500.0,0.0,0,938.0,1
893,893,-0.6108436337990215,-0.6,0.0,1.0,354.0,920.0,1.0,0,246.0,1
894,894,0.20427021082878027,0.2,0.0,0.0,422.0,501.0,0.0,1,907.0,1
895,895,0.42575460028296275,0.4,1.0,1.0,377.0,510.0,1.0,1,303.0,1
896,896,0.8156421124113752,0.8,1.0,1.0,357.0,865.0,1.0,1,128.0,1
897,897,0.64957283005664,0.6,1.0,1.0,461.0,533.0,1.0,1,166.0,1
898,898,0.3829370108669291,0.4,0.0,0.0,381.0,925.0,0.0,1,234.0,1
899,899,0.7240967368415522,0.7,0.0,0.0,398.0,522.0,0.0,1,140.0,1
900,900,0.393042435313932,0.4,1.0,1.0,436.0,860.0,1.0,1,174.0,1
901,901,0.03809473384365336,0.0,0.0,0.0,387.0,669.0,1.0,0,1944.0,0
902,902,-0.2013467347479856,-0.2,0.0,1.0,333.0,514.0,1.0,0,1093.0,1
903,903,-0.7155096670546227,-0.7,1.0,0.0,327.0,511.0,0.0,0,232.0,1
904,904,0.6684468410769165,0.7,1.0,1.0,369.0,940.0,1.0,1,181.0,1
905,905,-0.256861660631729,-0.3,1.0,0.0,323.0,926.0,0.0,0,351.0,1
906,906,-0.6543751792887632,-0.7,0.0,1.0,439.0,543.0,1.0,0,168.0,1
907,907,0.04251103858573613,0.0,1.0,1.0,299.0,518.0,1.0,1,2183.0,1
908,908,0.7900176455988707,0.8,1.0,1.0,374.0,674.0,1.0,1,142.0,1
909,909,-0.12237659248778754,-0.1,1.0,0.0,432.0,925.0,0.0,0,-127.0,1
910,910,-0.5450949627078415,-0.5,1.0,0.0,406.0,573.0,0.0,0,211.0,1
911,911,-0.6235797402908283,-0.6,0.0,1.0,339.0,995.0,1.0,0,226.0,1
912,912,0.16007533343721347,0.2,0.0,0.0,421.0,976.0,0.0,1,533.0,1
913,913,0.7295508696301632,0.7,0.0,0.0,287.0,658.0,0.0,1,115.0,1
914,914,0.48738763105596095,0.5,0.0,0.0,287.0,996.0,0.0,1,277.0,1
915,915,0.33123581539341396,0.3,0.0,0.0,259.0,793.0,0.0,1,408.0,1
916,916,-0.4893567010812229,-0.5,1.0,0.0,497.0,917.0,0.0,0,136.0,1
917,917,-0.7621789581037395,-0.8,1.0,0.0,451.0,934.0,0.0,0,235.0,1
918,918,-0.7596968039166404,-0.8,1.0,0.0,434.0,728.0,0.0,0,178.0,1
919,919,-0.8398150335122748,-0.8,0.0,1.0,304.0,684.0,1.0,0,102.0,1
920,920,0.586340202285477,0.6,0.0,0.0,487.0,776.0,0.0,1,137.0,1
921,921,-0.5556244735650435,-0.6,1.0,0.0,386.0,830.0,0.0,0,334.0,1
922,922,0.35038290586026155,0.4,0.0,0.0,372.0,565.0,0.0,1,273.0,1
923,923,-0.8434732344395524,-0.8,1.0,0.0,397.0,512.0,0.0,0,71.0,1
924,924,-0.2907044856833193,-0.3,1.0,0.0,421.0,555.0,0.0,0,304.0,1
925,925,0.09239120308895143,0.1,0.0,0.0,450.0,911.0,0.0,1,89.0,1
926,926,0.7805362253855838,0.8,0.0,0.0,304.0,746.0,0.0,1,170.0,1
927,927,0.7692229241079763,0.8,1.0,1.0,377.0,664.0,1.0,1,119.0,1
928,928,-0.3129215423981164,-0.3,1.0,0.0,401.0,856.0,0.0,0,103.0,1
929,929,0.6441238840911355,0.6,0.0,0.0,451.0,680.0,0.0,1,189.0,1
930,930,0.5401165807410274,0.5,0.0,0.0,262.0,808.0,0.0,1,200.0,1
931,931,0.12191465191264117,0.1,0.0,0.0,305.0,563.0,0.0,1,822.0,1
932,932,-0.1197597598180059,-0.1,0.0,1.0,435.0,982.0,1.0,0,1583.0,1
933,933,0.569981342160199,0.6,0.0,0.0,347.0,583.0,0.0,1,130.0,1
934,934,0.6680565383693152,0.7,1.0,1.0,441.0,532.0,1.0,1,207.0,1
935,935,-0.10310536715482455,-0.1,1.0,0.0,260.0,932.0,0.0,0,1368.0,1
936,936,-0.7555662193402598,-0.8,0.0,1.0,332.0,711.0,1.0,0,67.0,1
937,937,-0.7957596472234456,-0.8,0.0,1.0,428.0,505.0,1.0,0,97.0,1
938,938,0.2945612411870563,0.3,1.0,1.0,357.0,654.0,1.0,1,169.0,1
939,939,-0.8675379250946594,-0.9,0.0,1.0,284.0,548.0,1.0,0,208.0,1
940,940,-0.7730066174337549,-0.8,1.0,0.0,395.0,537.0,0.0,0,148.0,1
941,941,0.41546796256300966,0.4,1.0,1.0,375.0,539.0,1.0,1,586.0,1
942,942,-0.45946060337583494,-0.5,1.0,0.0,453.0,698.0,0.0,0,299.0,1
943,943,0.5908324139089275,0.6,0.0,0.0,492.0,802.0,0.0,1,116.0,1
944,944,0.7828665088774559,0.8,0.0,0.0,320.0,698.0,0.0,1,52.0,1
945,945,-0.5655984668160401,-0.6,1.0,0.0,478.0,805.0,0.0,0,127.0,1
946,946,0.5742786714768279,0.6,1.0,1.0,475.0,793.0,1.0,1,222.0,1
947,947,0.5446163920093486,0.5,1.0,1.0,476.0,911.0,1.0,1,133.0,1
948,948,0.3891398314469888,0.4,1.0,1.0,445.0,917.0,1.0,1,248.0,1
949,949,0.2755489323460757,0.3,0.0,0.0,387.0,645.0,0.0,1,308.0,1
950,950,0.6150404305060407,0.6,1.0,1.0,499.0,593.0,1.0,1,198.0,1
951,951,0.2098762933146675,0.2,1.0,1.0,476.0,943.0,1.0,1,451.0,1
952,952,-0.8519640734430793,-0.9,0.0,1.0,274.0,975.0,1.0,0,101.0,1
953,953,0.8967267204265771,0.9,0.0,0.0,481.0,986.0,0.0,1,143.0,1
954,954,0.845986759559516,0.8,1.0,1.0,292.0,653.0,1.0,1,145.0,1
955,955,0.18937929179564794,0.2,0.0,0.0,256.0,745.0,0.0,1,669.0,1
956,956,-0.11228390569694124,-0.1,1.0,0.0,378.0,667.0,0.0,0,195.0,1
957,957,0.37481775018397123,0.4,0.0,0.0,446.0,627.0,0.0,1,237.0,1
958,958,-0.23252076527058418,-0.2,0.0,1.0,336.0,761.0,1.0,0,583.0,1
959,959,0.15260063251408396,0.2,0.0,0.0,325.0,706.0,0.0,1,929.0,1
960,960,-0.6655806904584225,-0.7,1.0,0.0,407.0,714.0,0.0,0,199.0,1
961,961,-0.6784470070627644,-0.7,1.0,0.0,424.0,797.0,0.0,0,189.0,1
962,962,0.18868850907451573,0.2,1.0,1.0,432.0,792.0,1.0,1,1286.0,1
963,963,-0.5426434086640135,-0.5,0.0,1.0,494.0,697.0,1.0,0,269.0,1
964,964,0.2830749238164235,0.3,0.0,0.0,380.0,705.0,0.0,1,665.0,1
965,965,-0.4210800032935276,-0.4,0.0,1.0,497.0,800.0,1.0,0,243.0,1
966,966,0.6921565268786273,0.7,0.0,0.0,479.0,887.0,0.0,1,174.0,1
967,967,-0.4198199972160033,-0.4,0.0,1.0,439.0,899.0,1.0,0,462.0,1
968,968,-0.8313441808536466,-0.8,0.0,1.0,473.0,691.0,1.0,0,146.0,1
969,969,-0.4736540832350989,-0.5,0.0,1.0,410.0,707.0,1.0,0,183.0,1
970,970,0.6144457258144193,0.6,0.0,0.0,302.0,594.0,0.0,1,204.0,1
971,971,0.40258936516798427,0.4,0.0,0.0,322.0,559.0,0.0,1,189.0,1
972,972,0.1221655725516132,0.1,0.0,0.0,499.0,656.0,0.0,1,845.0,1
973,973,0.39549548520184075,0.4,0.0,0.0,372.0,708.0,0.0,1,240.0,1
974,974,-0.6224796017917733,-0.6,1.0,0.0,318.0,730.0,0.0,0,302.0,1
975,975,0.543185730810997,0.5,1.0,1.0,397.0,696.0,1.0,1,267.0,1
976,976,0.12553809786997883,0.1,1.0,1.0,457.0,776.0,1.0,1,1767.0,1
977,977,-0.1966567913822591,-0.2,1.0,0.0,329.0,847.0,0.0,0,304.0,1
978,978,-0.25194390612470796,-0.3,0.0,1.0,319.0,790.0,1.0,0,481.0,1
979,979,-0.723663975689874,-0.7,0.0,1.0,433.0,539.0,1.0,0,208.0,1
980,980,0.5346131944499465,0.5,1.0,1.0,448.0,621.0,1.0,1,221.0,1
981,981,-0.4899991806783274,-0.5,1.0,0.0,437.0,574.0,0.0,0,149.0,1
982,982,0.2529391820287229,0.3,0.0,0.0,368.0,940.0,0.0,1,102.0,1
983,983,0.0980093619900807,0.1,1.0,1.0,300.0,528.0,1.0,1,402.0,1
984,984,0.6770097519789492,0.7,0.0,0.0,315.0,899.0,0.0,1,116.0,1
985,985,-0.40893653278267056,-0.4,0.0,1.0,436.0,574.0,1.0,0,160.0,1
986,986,0.5556756963037136,0.6,1.0,1.0,294.0,821.0,1.0,1,165.0,1
987,987,0.31420197547509476,0.3,1.0,1.0,311.0,637.0,1.0,1,252.0,1
988,988,0.2136374609390682,0.2,0.0,0.0,277.0,544.0,0.0,1,549.0,1
989,989,-0.7921467324620355,-0.8,0.0,1.0,438.0,871.0,1.0,0,211.0,1
990,990,0.1295952490201121,0.1,0.0,0.0,352.0,777.0,0.0,1,371.0,1
991,991,-0.47368602827751544,-0.5,1.0,0.0,392.0,919.0,0.0,0,189.0,1
992,992,0.15520886121769817,0.2,1.0,1.0,476.0,960.0,1.0,1,264.0,1
993,993,0.5866058473835555,0.6,0.0,0.0,486.0,711.0,0.0,1,293.0,1
994,994,-0.5998496006417997,-0.6,1.0,0.0,398.0,887.0,0.0,0,235.0,1
995,995,0.8738827058925044,0.9,0.0,0.0,316.0,847.0,0.0,1,147.0,1
996,996,-0.7015551868606636,-0.7,0.0,1.0,414.0,968.0,1.0,0,168.0,1
997,997,0.6357388859357184,0.6,0.0,0.0,442.0,730.0,0.0,1,68.0,1
998,998,-0.6498462823558508,-0.6,1.0,0.0,337.0,844.0,0.0,0,259.0,1
999,999,-0.36196277549260847,-0.4,0.0,1.0,394.0,749.0,1.0,0,177.0,1
1000,1000,0.13320665064620563,0.1,1.0,1.0,324.0,596.0,1.0,1,340.0,1
1001,1001,0.3974908352691334,0.4,1.0,1.0,478.0,866.0,1.0,1,326.0,1
1002,1002,0.46295473452401426,0.5,1.0,1.0,489.0,921.0,1.0,1,360.0,1
1003,1003,-0.7662531795364208,-0.8,0.0,1.0,443.0,558.0,1.0,0,169.0,1
1004,1004,0.0463304217240037,0.0,1.0,1.0,333.0,575.0,1.0,1,992.0,1
1005,1005,0.7194504704744594,0.7,0.0,0.0,260.0,655.0,0.0,1,95.0,1
1006,1006,-0.14777221095165116,-0.1,0.0,1.0,483.0,976.0,1.0,0,1541.0,1
1007,1007,0.17514190167453048,0.2,1.0,1.0,281.0,807.0,1.0,1,202.0,1
1008,1008,0.5741535863217927,0.6,0.0,0.0,267.0,856.0,0.0,1,-163.0,1
1009,1009,0.5485636826987518,0.5,1.0,1.0,271.0,712.0,1.0,1,207.0,1
1010,1010,-0.6579155390300144,-0.7,0.0,1.0,405.0,876.0,1.0,0,139.0,1
1011,1011,-0.6318742649084634,-0.6,0.0,1.0,255.0,967.0,1.0,0,198.0,1
1012,1012,-0.5796743585079165,-0.6,0.0,1.0,271.0,664.0,1.0,0,165.0,1
1013,1013,0.4241866982453347,0.4,0.0,0.0,418.0,532.0,0.0,1,1020.0,1
1014,1014,-0.8536036121945578,-0.9,1.0,0.0,355.0,886.0,0.0,0,69.0,1
1015,1015,-0.025190069781135582,-0.0,0.0,1.0,292.0,830.0,1.0,0,1878.0,1
1016,1016,-0.43079567991639767,-0.4,1.0,0.0,491.0,973.0,0.0,0,216.0,1
1017,1017,0.40845155273177725,0.4,0.0,0.0,463.0,886.0,0.0,1,531.0,1
1018,1018,0.4006256965365763,0.4,1.0,1.0,371.0,569.0,1.0,1,300.0,1
1019,1019,0.49471202723458274,0.5,1.0,1.0,275.0,627.0,1.0,1,238.0,1
1020,1020,-0.0024065194371692966,-0.0,0.0,1.0,372.0,992.0,0.0,1,1566.0,0
1021,1021,0.4983201526434603,0.5,1.0,1.0,498.0,744.0,1.0,1,208.0,1
1022,1022,-0.4285942594895687,-0.4,1.0,0.0,305.0,618.0,0.0,0,157.0,1
1023,1023,0.7601777031429365,0.8,1.0,1.0,383.0,668.0,1.0,1,169.0,1
1024,1024,0.498552110739478,0.5,0.0,0.0,251.0,884.0,0.0,1,65.0,1
1025,1025,0.5643023651855307,0.6,1.0,1.0,401.0,610.0,1.0,1,179.0,1
1026,1026,-0.35815943782243154,-0.4,0.0,1.0,328.0,912.0,1.0,0,210.0,1
1027,1027,0.3907116862576755,0.4,1.0,1.0,384.0,562.0,1.0,1,344.0,1
1028,1028,-0.6383525465370218,-0.6,0.0,1.0,354.0,904.0,1.0,0,62.0,1
1029,1029,0.4087861653423158,0.4,1.0,1.0,322.0,656.0,1.0,1,92.0,1
1030,1030,0.1941564746046437,0.2,0.0,0.0,343.0,803.0,0.0,1,354.0,1
1031,1031,0.751850214098034,0.8,1.0,1.0,407.0,961.0,1.0,1,212.0,1
1032,1032,0.8258696553483355,0.8,1.0,1.0,380.0,934.0,1.0,1,216.0,1
1033,1033,0.05508052259323104,0.1,0.0,0.0,340.0,522.0,0.0,1,2138.0,1
1034,1034,0.7036264714053085,0.7,0.0,0.0,345.0,871.0,0.0,1,194.0,1
1035,1035,-0.8987769325511721,-0.9,1.0,0.0,297.0,615.0,0.0,0,118.0,1
1036,1036,-0.6059975077237868,-0.6,0.0,1.0,433.0,774.0,1.0,0,153.0,1
1037,1037,0.5971811629032738,0.6,1.0,1.0,379.0,714.0,1.0,1,97.0,1
1038,1038,-0.6730124374827494,-0.7,0.0,1.0,355.0,848.0,0.0,1,-163.0,0
1039,1039,-0.7635838043446517,-0.8,1.0,0.0,409.0,968.0,0.0,0,123.0,1
1040,1040,0.8219232954358667,0.8,1.0,1.0,300.0,606.0,1.0,1,94.0,1
1041,1041,0.47015938534935653,0.5,0.0,0.0,287.0,857.0,0.0,1,96.0,1
1042,1042,-0.4559602841082962,-0.5,0.0,1.0,302.0,850.0,1.0,0,458.0,1
1043,1043,0.2549911364266636,0.3,0.0,0.0,348.0,999.0,0.0,1,603.0,1
1044,1044,-0.4731291044871995,-0.5,0.0,1.0,256.0,630.0,1.0,0,334.0,1
1045,1045,-0.8426478128078791,-0.8,0.0,1.0,319.0,554.0,1.0,0,177.0,1
1046,1046,0.7331587874444413,0.7,1.0,1.0,461.0,973.0,1.0,1,316.0,1
1047,1047,0.6445756498820808,0.6,0.0,0.0,378.0,787.0,0.0,1,105.0,1
1048,1048,0.03272224734406315,0.0,0.0,0.0,302.0,523.0,0.0,1,645.0,1
1049,1049,-0.09157527200892857,-0.1,1.0,0.0,292.0,653.0,0.0,0,895.0,1
1050,1050,-0.8424979928645338,-0.8,0.0,1.0,409.0,611.0,1.0,0,190.0,1
1051,1051,0.2627019406447123,0.3,1.0,1.0,461.0,758.0,1.0,1,271.0,1
1052,1052,-0.6422554367598962,-0.6,1.0,0.0,259.0,691.0,0.0,0,160.0,1
1053,1053,-0.029952527553848363,-0.0,1.0,0.0,398.0,723.0,0.0,0,489.0,1
1054,1054,0.4662366860557178,0.5,0.0,0.0,465.0,973.0,0.0,1,142.0,1
1055,1055,-0.572403277809,-0.6,1.0,0.0,486.0,932.0,0.0,0,202.0,1
1056,1056,0.13134799803152142,0.1,1.0,1.0,275.0,887.0,1.0,1,1838.0,1
1057,1057,-0.2014397775158666,-0.2,1.0,0.0,446.0,741.0,0.0,0,313.0,1
1058,1058,-0.7010725053414683,-0.7,0.0,1.0,367.0,654.0,1.0,0,269.0,1
1059,1059,-0.09898481358363664,-0.1,1.0,0.0,287.0,625.0,0.0,0,928.0,1
1060,1060,0.0377587110008496,0.0,0.0,0.0,463.0,576.0,0.0,1,791.0,1
1061,1061,-0.09908141878526733,-0.1,1.0,0.0,335.0,530.0,0.0,0,245.0,1
1062,1062,0.3963583780361025,0.4,0.0,0.0,474.0,790.0,0.0,1,206.0,1
1063,1063,-0.5504768804921387,-0.6,0.0,1.0,260.0,540.0,1.0,0,230.0,1
1064,1064,-0.4620009788130555,-0.5,0.0,1.0,327.0,656.0,1.0,0,127.0,1
1065,1065,-0.3795910443419267,-0.4,0.0,1.0,268.0,568.0,1.0,0,334.0,1
1066,1066,-0.09537093004288921,-0.1,1.0,0.0,451.0,657.0,0.0,0,612.0,1
1067,1067,-0.22226167252567663,-0.2,0.0,1.0,328.0,678.0,1.0,0,684.0,1
1068,1068,-0.5594813741416302,-0.6,1.0,0.0,419.0,716.0,0.0,0,135.0,1
1069,1069,0.4373478747909164,0.4,1.0,1.0,479.0,549.0,1.0,1,712.0,1
1070,1070,0.8533125222118852,0.9,1.0,1.0,354.0,789.0,1.0,1,137.0,1
1071,1071,0.04432374122794824,0.0,0.0,0.0,274.0,716.0,0.0,1,1180.0,1
1072,1072,0.3999061036096484,0.4,0.0,0.0,309.0,802.0,0.0,1,219.0,1
1073,1073,-0.13314541091400456,-0.1,0.0,1.0,428.0,832.0,0.0,1,1740.0,0
1074,1074,-0.31736352910372245,-0.3,0.0,1.0,437.0,943.0,1.0,0,950.0,1
1075,1075,0.7033227419780773,0.7,1.0,1.0,374.0,664.0,1.0,1,142.0,1
1076,1076,-0.6024656039733589,-0.6,1.0,0.0,322.0,730.0,0.0,0,618.0,1
1077,1077,-0.6067149793791857,-0.6,0.0,1.0,278.0,749.0,1.0,0,263.0,1
1078,1078,-0.5398520819690766,-0.5,0.0,1.0,369.0,647.0,1.0,0,234.0,1
1079,1079,0.5975495315970961,0.6,0.0,0.0,484.0,644.0,0.0,1,62.0,1
1080,1080,-0.887027419890397,-0.9,1.0,0.0,401.0,792.0,0.0,0,167.0,1
1081,1081,0.3444543003113586,0.3,1.0,1.0,478.0,777.0,1.0,1,115.0,1
1082,1082,-0.6573875269626239,-0.7,1.0,0.0,387.0,778.0,0.0,0,175.0,1
1083,1083,-0.6680869260977451,-0.7,0.0,1.0,301.0,807.0,1.0,0,182.0,1
1084,1084,0.8823707750332809,0.9,0.0,0.0,313.0,561.0,0.0,1,116.0,1
1085,1085,-0.15322522812429762,-0.2,1.0,0.0,268.0,961.0,0.0,0,541.0,1
1086,1086,0.022693943733445354,0.0,0.0,0.0,269.0,910.0,0.0,1,1701.0,1
1087,1087,0.6599566247344225,0.7,0.0,0.0,489.0,850.0,0.0,1,51.0,1
1088,1088,0.29676368824537647,0.3,0.0,0.0,485.0,591.0,0.0,1,374.0,1
1089,1089,0.559494496722465,0.6,0.0,0.0,342.0,551.0,0.0,1,317.0,1
1090,1090,0.4238417047598325,0.4,0.0,0.0,389.0,852.0,0.0,1,329.0,1
1091,1091,-0.003315929256228145,-0.0,1.0,0.0,253.0,802.0,1.0,1,1705.0,0
1092,1092,-0.8438947314596417,-0.8,1.0,0.0,499.0,742.0,0.0,0,-161.0,1
1093,1093,-0.7486751086719553,-0.7,1.0,0.0,257.0,512.0,0.0,0,141.0,1
1094,1094,0.09120143796660773,0.1,0.0,0.0,267.0,938.0,0.0,1,405.0,1
1095,1095,-0.3101079483830169,-0.3,1.0,0.0,316.0,993.0,0.0,0,411.0,1
1096,1096,-0.3150322252873874,-0.3,0.0,1.0,494.0,585.0,1.0,0,531.0,1
1097,1097,-0.529282555925304,-0.5,0.0,1.0,265.0,802.0,1.0,0,163.0,1
1098,1098,0.21599063549852227,0.2,1.0,1.0,269.0,558.0,1.0,1,693.0,1
1099,1099,0.5547463519658206,0.6,1.0,1.0,453.0,717.0,1.0,1,210.0,1
1100,1100,-0.8318564755177137,-0.8,0.0,1.0,268.0,532.0,1.0,0,170.0,1
1101,1101,-0.7710296717539579,-0.8,1.0,0.0,438.0,634.0,0.0,0,118.0,1
1102,1102,0.753618896160552,0.8,0.0,0.0,352.0,793.0,0.0,1,235.0,1
1103,1103,0.21511476214055636,0.2,0.0,0.0,394.0,637.0,0.0,1,629.0,1
1104,1104,0.8922570405757507,0.9,0.0,0.0,402.0,660.0,0.0,1,108.0,1
1105,1105,0.02705828715701819,0.0,1.0,1.0,325.0,994.0,0.0,0,1681.0,0
1106,1106,0.4434950275020454,0.4,1.0,1.0,387.0,653.0,1.0,1,340.0,1
1107,1107,-0.7442010404481836,-0.7,1.0,0.0,414.0,887.0,0.0,0,89.0,1
1108,1108,-0.8141969746811005,-0.8,0.0,1.0,294.0,769.0,1.0,0,127.0,1
1109,1109,0.8359315751982196,0.8,1.0,1.0,301.0,722.0,1.0,1,227.0,1
1110,1110,0.28950888835381783,0.3,1.0,1.0,379.0,615.0,1.0,1,716.0,1
1111,1111,0.5831516780537577,0.6,0.0,0.0,316.0,640.0,0.0,1,94.0,1
1112,1112,-0.06050789501520948,-0.1,0.0,1.0,252.0,891.0,0.0,1,1857.0,0
1113,1113,0.5340775482912451,0.5,0.0,0.0,369.0,929.0,0.0,1,152.0,1
1114,1114,0.47218765706243737,0.5,0.0,0.0,332.0,767.0,0.0,1,381.0,1
1115,1115,0.516740277755264,0.5,0.0,0.0,313.0,741.0,0.0,1,156.0,1
1116,1116,0.46860619593594877,0.5,1.0,1.0,482.0,669.0,1.0,1,449.0,1
1117,1117,-0.16019662016379788,-0.2,0.0,1.0,266.0,944.0,1.0,0,1240.0,1
1118,1118,0.8063849099163488,0.8,0.0,0.0,304.0,635.0,0.0,1,231.0,1
1119,1119,0.870935381431183,0.9,1.0,1.0,471.0,922.0,1.0,1,157.0,1
1120,1120,-0.1114406374701915,-0.1,0.0,1.0,327.0,953.0,1.0,0,1720.0,1
1121,1121,0.11085853959784242,0.1,1.0,1.0,468.0,564.0,1.0,1,1588.0,1
1122,1122,0.28383215803802,0.3,0.0,0.0,444.0,640.0,0.0,1,526.0,1
1123,1123,0.8663954416039804,0.9,1.0,1.0,427.0,539.0,1.0,1,64.0,1
1124,1124,0.15141564864557988,0.2,0.0,0.0,372.0,782.0,0.0,1,96.0,1
1125,1125,-0.3345481662852574,-0.3,1.0,0.0,316.0,739.0,0.0,0,695.0,1
1126,1126,-0.5910558539333017,-0.6,1.0,0.0,498.0,896.0,0.0,0,96.0,1
1127,1127,-0.8672896251324403,-0.9,1.0,0.0,490.0,694.0,0.0,0,166.0,1
1128,1128,-0.10432163002050499,-0.1,1.0,0.0,317.0,736.0,0.0,0,567.0,1
1129,1129,-0.14657682013649376,-0.1,1.0,0.0,407.0,752.0,0.0,0,661.0,1
1130,1130,0.6088249036030254,0.6,1.0,1.0,422.0,581.0,1.0,1,287.0,1
1131,1131,0.4591741625932405,0.5,0.0,0.0,400.0,907.0,0.0,1,163.0,1
1132,1132,-0.3702352468065916,-0.4,0.0,1.0,452.0,741.0,1.0,0,407.0,1
1133,1133,-0.5388656451482283,-0.5,1.0,0.0,257.0,621.0,0.0,0,142.0,1
1134,1134,0.6016901179993076,0.6,1.0,1.0,361.0,944.0,1.0,1,135.0,1
1135,1135,0.4542199551604459,0.5,1.0,1.0,390.0,974.0,1.0,1,116.0,1
1136,1136,0.4154019558002201,0.4,0.0,0.0,457.0,967.0,0.0,1,176.0,1
1137,1137,0.569029603035024,0.6,1.0,1.0,475.0,523.0,1.0,1,162.0,1
1138,1138,0.15697833085180812,0.2,0.0,0.0,257.0,684.0,0.0,1,939.0,1
1139,1139,-0.22039350145492498,-0.2,1.0,0.0,336.0,942.0,0.0,0,832.0,1
1140,1140,0.896286851136224,0.9,1.0,1.0,456.0,751.0,1.0,1,113.0,1
1141,1141,0.2063134585739438,0.2,0.0,0.0,453.0,616.0,0.0,1,751.0,1
1142,1142,0.5911228270217525,0.6,0.0,0.0,337.0,792.0,0.0,1,141.0,1
1143,1143,-0.23230147602540152,-0.2,0.0,1.0,468.0,541.0,1.0,0,1171.0,1
1144,1144,0.3843107762803203,0.4,0.0,0.0,459.0,963.0,0.0,1,348.0,1
1145,1145,0.7086338805696512,0.7,0.0,0.0,361.0,795.0,0.0,1,164.0,1
1146,1146,-0.5046653898404467,-0.5,0.0,1.0,457.0,666.0,1.0,0,347.0,1
1147,1147,0.03837192566004699,0.0,0.0,0.0,378.0,702.0,0.0,1,270.0,1
1148,1148,0.5444089515457865,0.5,0.0,0.0,317.0,889.0,0.0,1,344.0,1
1149,1149,-0.32167850526890673,-0.3,0.0,1.0,492.0,692.0,1.0,0,856.0,1
1150,1150,-0.27765679988487935,-0.3,0.0,1.0,300.0,851.0,1.0,0,299.0,1
1151,1151,-0.011695972578768421,-0.0,1.0,0.0,464.0,706.0,0.0,0,1830.0,1
1152,1152,-0.30147130564879665,-0.3,1.0,0.0,328.0,619.0,0.0,0,203.0,1
1153,1153,0.8097050010345516,0.8,0.0,0.0,260.0,628.0,0.0,1,122.0,1
1154,1154,-0.002636606861950219,-0.0,0.0,1.0,319.0,824.0,0.0,1,1857.0,0
1155,1155,-0.35331679177795894,-0.4,1.0,0.0,373.0,561.0,0.0,0,496.0,1
1156,1156,0.8272166286227213,0.8,1.0,1.0,434.0,556.0,1.0,1,110.0,1
1157,1157,-0.05557754221690814,-0.1,1.0,0.0,432.0,805.0,0.0,0,1393.0,1
1158,1158,-0.16573396189914535,-0.2,0.0,1.0,386.0,950.0,1.0,0,724.0,1
1159,1159,0.06662188840892425,0.1,0.0,0.0,487.0,626.0,0.0,1,1177.0,1
1160,1160,-0.8553671254954368,-0.9,0.0,1.0,368.0,506.0,1.0,0,146.0,1
1161,1161,-0.1716852962805152,-0.2,0.0,1.0,303.0,687.0,1.0,0,1420.0,1
1162,1162,0.7388470549816352,0.7,0.0,0.0,266.0,844.0,0.0,1,120.0,1
1163,1163,-0.5740614401954622,-0.6,0.0,1.0,450.0,725.0,1.0,0,205.0,1
1164,1164,0.12460196150214109,0.1,0.0,0.0,326.0,646.0,0.0,1,98.0,1
1165,1165,0.3010129884455187,0.3,0.0,0.0,413.0,810.0,0.0,1,377.0,1
1166,1166,-0.0622767268368154,-0.1,1.0,0.0,392.0,586.0,0.0,0,1532.0,1
1167,1167,-0.029592634490763103,-0.0,1.0,0.0,341.0,818.0,0.0,0,1841.0,1
1168,1168,0.7923801959297686,0.8,1.0,1.0,349.0,608.0,1.0,1,163.0,1
1169,1169,0.2534370267931022,0.3,1.0,1.0,375.0,945.0,1.0,1,540.0,1
1170,1170,0.6678601349047836,0.7,1.0,1.0,430.0,840.0,1.0,1,190.0,1
1171,1171,0.35562266847174306,0.4,0.0,0.0,341.0,776.0,0.0,1,233.0,1
1172,1172,0.2877543945474571,0.3,1.0,1.0,379.0,615.0,1.0,1,746.0,1
1173,1173,-0.42800231197368566,-0.4,0.0,1.0,495.0,951.0,1.0,0,304.0,1
1174,1174,0.2577391814285398,0.3,1.0,1.0,271.0,926.0,1.0,1,373.0,1
1175,1175,-0.4592836930519299,-0.5,0.0,1.0,265.0,616.0,1.0,0,249.0,1
1176,1176,0.04340623218541728,0.0,0.0,0.0,476.0,756.0,0.0,1,1768.0,1
1177,1177,-0.20483500343194427,-0.2,0.0,1.0,302.0,919.0,1.0,0,1289.0,1
1178,1178,0.5801497551406226,0.6,0.0,0.0,321.0,867.0,0.0,1,132.0,1
1179,1179,0.5731433441686838,0.6,0.0,0.0,324.0,935.0,0.0,1,151.0,1
1180,1180,-0.5567424138471017,-0.6,1.0,0.0,268.0,749.0,0.0,0,93.0,1
1181,1181,0.34366633509745814,0.3,1.0,1.0,396.0,969.0,1.0,1,445.0,1
1182,1182,0.06540631148260334,0.1,1.0,1.0,393.0,973.0,0.0,0,1404.0,0
1183,1183,0.5254357092518095,0.5,1.0,1.0,479.0,724.0,1.0,1,267.0,1
1184,1184,-0.370161885397306,-0.4,0.0,1.0,425.0,841.0,1.0,0,394.0,1
1185,1185,-0.011569740132871043,-0.0,1.0,0.0,268.0,573.0,0.0,0,669.0,1
1186,1186,0.27267014065217243,0.3,0.0,0.0,291.0,862.0,0.0,1,167.0,1
1187,1187,-0.33975793415905076,-0.3,0.0,1.0,365.0,803.0,1.0,0,282.0,1
1188,1188,0.6099558547922791,0.6,0.0,0.0,374.0,593.0,0.0,1,103.0,1
1189,1189,-0.00240397163430639,-0.0,0.0,1.0,279.0,620.0,0.0,1,1851.0,0
1190,1190,0.21752352465961267,0.2,0.0,0.0,286.0,988.0,0.0,1,196.0,1
1191,1191,0.46453393366781903,0.5,1.0,1.0,471.0,637.0,1.0,1,202.0,1
1192,1192,0.5247290490952116,0.5,1.0,1.0,367.0,817.0,1.0,1,106.0,1
1193,1193,-0.5128163652312507,-0.5,1.0,0.0,428.0,910.0,0.0,0,262.0,1
1194,1194,0.558643233627727,0.6,0.0,0.0,427.0,517.0,0.0,1,346.0,1
1195,1195,0.1093137981602087,0.1,0.0,0.0,424.0,500.0,0.0,1,1936.0,1
1196,1196,-0.4090517763565048,-0.4,1.0,0.0,481.0,980.0,0.0,0,-21.0,1
1197,1197,-0.388815508669176,-0.4,0.0,1.0,372.0,589.0,1.0,0,439.0,1
1198,1198,0.012342817444580767,0.0,1.0,1.0,480.0,891.0,0.0,0,649.0,0
1199,1199,0.2427517089036405,0.2,1.0,1.0,385.0,692.0,1.0,1,823.0,1
1200,1200,0.3425531416728663,0.3,0.0,0.0,280.0,728.0,0.0,1,132.0,1
1201,1201,0.1679035030770043,0.2,0.0,0.0,406.0,564.0,0.0,1,1050.0,1
1202,1202,0.6131379639801146,0.6,0.0,0.0,396.0,716.0,0.0,1,218.0,1
1203,1203,0.6964638143786214,0.7,0.0,0.0,455.0,616.0,0.0,1,169.0,1
1204,1204,0.48481823021265724,0.5,1.0,1.0,352.0,621.0,1.0,1,327.0,1
1205,1205,0.8981809545380987,0.9,0.0,0.0,418.0,503.0,0.0,1,199.0,1
1206,1206,0.7956876156103593,0.8,0.0,0.0,384.0,590.0,0.0,1,146.0,1
1207,1207,-0.5885880624859661,-0.6,1.0,0.0,252.0,510.0,0.0,0,328.0,1
1208,1208,0.8506643263028367,0.9,0.0,0.0,343.0,650.0,0.0,1,237.0,1
1209,1209,-0.28678640761263374,-0.3,1.0,0.0,495.0,895.0,0.0,0,40.0,1
1210,1210,0.7528668823141719,0.8,0.0,0.0,423.0,991.0,0.0,1,366.0,1
1211,1211,0.6336361362940531,0.6,1.0,1.0,484.0,506.0,1.0,1,230.0,1
1212,1212,0.6358093388835796,0.6,0.0,0.0,301.0,666.0,0.0,1,53.0,1
1213,1213,0.3220745165144222,0.3,0.0,0.0,354.0,858.0,0.0,1,348.0,1
1214,1214,-0.054941752027518054,-0.1,1.0,0.0,427.0,735.0,0.0,0,1498.0,1
1215,1215,-0.8551855581983023,-0.9,1.0,0.0,295.0,973.0,0.0,0,82.0,1
1216,1216,-0.37330645981130217,-0.4,0.0,1.0,467.0,659.0,1.0,0,284.0,1
1217,1217,-0.046400048012035566,-0.0,1.0,0.0,423.0,692.0,0.0,0,1525.0,1
1218,1218,0.4759581942895291,0.5,1.0,1.0,414.0,736.0,1.0,1,260.0,1
1219,1219,-0.13236727199048903,-0.1,0.0,1.0,357.0,823.0,1.0,0,640.0,1
1220,1220,-0.5190394815224448,-0.5,0.0,1.0,356.0,641.0,1.0,0,183.0,1
1221,1221,-0.2576237147553829,-0.3,0.0,1.0,421.0,538.0,1.0,0,681.0,1
1222,1222,0.7016617814158733,0.7,1.0,1.0,367.0,517.0,1.0,1,216.0,1
1223,1223,-0.8447496784485086,-0.8,1.0,0.0,385.0,976.0,0.0,0,19.0,1
1224,1224,0.676559442384748,0.7,1.0,1.0,406.0,929.0,1.0,1,265.0,1
1225,1225,-0.7582390561245008,-0.8,1.0,0.0,470.0,838.0,0.0,0,82.0,1
1226,1226,0.2666913855364018,0.3,1.0,1.0,344.0,554.0,1.0,1,1182.0,1
1227,1227,0.6790265595870245,0.7,1.0,1.0,492.0,620.0,1.0,1,178.0,1
1228,1228,0.32352012517228934,0.3,1.0,1.0,359.0,984.0,1.0,1,497.0,1
1229,1229,-0.708357551583715,-0.7,1.0,0.0,323.0,983.0,0.0,0,144.0,1
1230,1230,-0.3830310922886129,-0.4,1.0,0.0,353.0,641.0,0.0,0,166.0,1
1231,1231,-0.3430116008882279,-0.3,0.0,1.0,408.0,580.0,1.0,0,182.0,1
1232,1232,-0.32831503864955336,-0.3,1.0,0.0,448.0,975.0,0.0,0,257.0,1
1233,1233,-0.8659495721568806,-0.9,0.0,1.0,332.0,894.0,1.0,0,94.0,1
1234,1234,0.43719031401245123,0.4,0.0,0.0,452.0,551.0,0.0,1,297.0,1
1235,1235,0.16983599221541834,0.2,1.0,1.0,407.0,897.0,1.0,1,516.0,1
1236,1236,-0.15449077259083477,-0.2,0.0,1.0,462.0,791.0,1.0,0,717.0,1
1237,1237,-0.32512742448959,-0.3,0.0,1.0,354.0,890.0,1.0,0,586.0,1
1238,1238,0.7510764399944209,0.8,0.0,0.0,287.0,506.0,0.0,1,207.0,1
1239,1239,-0.323010548564574,-0.3,0.0,1.0,376.0,668.0,1.0,0,306.0,1
1240,1240,0.4838120449525848,0.5,1.0,1.0,472.0,873.0,1.0,1,195.0,1
1241,1241,-0.38220297343721854,-0.4,1.0,0.0,498.0,653.0,0.0,0,309.0,1
1242,1242,0.3038844377081814,0.3,0.0,0.0,286.0,596.0,0.0,1,108.0,1
1243,1243,0.44517609803789904,0.4,0.0,0.0,364.0,841.0,0.0,1,95.0,1
1244,1244,-0.2497933118157939,-0.2,0.0,1.0,327.0,578.0,1.0,0,425.0,1
1245,1245,-0.5372800733847576,-0.5,1.0,0.0,492.0,876.0,0.0,0,132.0,1
1246,1246,-0.8882928445745689,-0.9,0.0,1.0,297.0,806.0,1.0,0,137.0,1
1247,1247,-0.05235048073793547,-0.1,1.0,0.0,468.0,868.0,0.0,0,254.0,1
1248,1248,-0.7281623893990532,-0.7,1.0,0.0,374.0,752.0,0.0,0,144.0,1
1249,1249,-0.16057664759929835,-0.2,0.0,1.0,474.0,656.0,1.0,0,840.0,1
1250,1250,-0.8049420006949439,-0.8,1.0,0.0,337.0,997.0,0.0,0,166.0,1
1251,1251,0.23422756749766227,0.2,1.0,1.0,490.0,543.0,1.0,1,677.0,1
1252,1252,0.4790209227771015,0.5,1.0,1.0,488.0,558.0,1.0,1,334.0,1
1253,1253,-0.6562982825061165,-0.7,1.0,0.0,290.0,658.0,0.0,0,132.0,1
1254,1254,-0.2839413617207124,-0.3,0.0,1.0,412.0,918.0,1.0,0,850.0,1
1255,1255,-0.07697356904775676,-0.1,1.0,0.0,450.0,946.0,0.0,0,1604.0,1
1256,1256,0.7887437512209349,0.8,0.0,0.0,310.0,702.0,0.0,1,128.0,1
1257,1257,0.5569554736386927,0.6,0.0,0.0,436.0,523.0,0.0,1,151.0,1
1258,1258,-0.3613456167020278,-0.4,0.0,1.0,470.0,813.0,1.0,0,447.0,1
1259,1259,-0.27225895028251357,-0.3,1.0,0.0,352.0,703.0,0.0,0,415.0,1
1260,1260,0.18441588758748761,0.2,0.0,0.0,260.0,993.0,0.0,1,247.0,1
1261,1261,-0.4697660187234636,-0.5,1.0,0.0,409.0,827.0,0.0,0,474.0,1
1262,1262,0.7202785712369278,0.7,1.0,1.0,380.0,795.0,1.0,1,115.0,1
1263,1263,0.32489211365154536,0.3,0.0,0.0,334.0,846.0,0.0,1,430.0,1
1264,1264,0.8155507791251798,0.8,1.0,1.0,289.0,748.0,1.0,1,233.0,1
1265,1265,0.5717196806382013,0.6,1.0,1.0,496.0,558.0,1.0,1,156.0,1
1266,1266,0.18174084940149504,0.2,1.0,1.0,257.0,994.0,1.0,1,1339.0,1
1267,1267,-0.48055274803650627,-0.5,1.0,0.0,252.0,507.0,0.0,0,261.0,1
1268,1268,0.4113312586521437,0.4,1.0,1.0,420.0,534.0,1.0,1,546.0,1
1269,1269,-0.14531982165902924,-0.1,1.0,0.0,435.0,749.0,0.0,0,1386.0,1
1270,1270,-0.5353114473376575,-0.5,1.0,0.0,286.0,592.0,0.0,0,132.0,1
1271,1271,0.4074442100135903,0.4,1.0,1.0,445.0,520.0,1.0,1,165.0,1
1272,1272,-0.27769431858821814,-0.3,0.0,1.0,449.0,670.0,1.0,0,751.0,1
1273,1273,-0.041943919726989964,-0.0,0.0,1.0,408.0,885.0,1.0,0,1707.0,1
1274,1274,0.6945160542663568,0.7,0.0,0.0,296.0,983.0,0.0,1,51.0,1
1275,1275,-0.2181088584551556,-0.2,1.0,0.0,293.0,582.0,0.0,0,315.0,1
1276,1276,0.5832303576411461,0.6,0.0,0.0,315.0,505.0,0.0,1,290.0,1
1277,1277,0.2368037987606707,0.2,0.0,0.0,430.0,926.0,0.0,1,244.0,1
1278,1278,0.5632322087802891,0.6,0.0,0.0,292.0,668.0,0.0,1,130.0,1
1279,1279,0.8004920872994384,0.8,1.0,1.0,451.0,929.0,1.0,1,150.0,1
1280,1280,0.5995081364441391,0.6,0.0,0.0,465.0,829.0,0.0,1,596.0,1
1281,1281,-0.5590178335998152,-0.6,1.0,0.0,419.0,919.0,0.0,0,142.0,1
1282,1282,-0.21012426795026184,-0.2,0.0,1.0,467.0,925.0,1.0,0,1478.0,1
1283,1283,0.13098093000664857,0.1,0.0,0.0,376.0,751.0,0.0,1,143.0,1
1284,1284,-0.6894435277450099,-0.7,1.0,0.0,380.0,942.0,0.0,0,168.0,1
1285,1285,0.31136654925014906,0.3,0.0,0.0,385.0,657.0,0.0,1,368.0,1
1286,1286,0.6611300757751727,0.7,0.0,0.0,315.0,738.0,0.0,1,147.0,1
1287,1287,0.6381677723882907,0.6,1.0,1.0,383.0,585.0,1.0,1,122.0,1
1288,1288,0.8146803187746378,0.8,0.0,0.0,327.0,591.0,0.0,1,162.0,1
1289,1289,0.793814869596588,0.8,0.0,0.0,361.0,953.0,0.0,1,416.0,1
1290,1290,0.14618020223541095,0.1,1.0,1.0,300.0,581.0,1.0,1,1769.0,1
1291,1291,-0.4496955950612645,-0.4,0.0,1.0,321.0,895.0,1.0,0,194.0,1
1292,1292,0.2045476367656941,0.2,0.0,0.0,499.0,782.0,0.0,1,729.0,1
1293,1293,0.7160454877873542,0.7,0.0,0.0,268.0,891.0,0.0,1,91.0,1
1294,1294,0.8251718915153957,0.8,1.0,1.0,414.0,846.0,1.0,1,100.0,1
1295,1295,-0.5066188993459151,-0.5,1.0,0.0,486.0,604.0,0.0,0,160.0,1
1296,1296,0.7290410432277102,0.7,1.0,1.0,332.0,974.0,1.0,1,224.0,1
1297,1297,0.2293774761612467,0.2,0.0,0.0,462.0,761.0,0.0,1,97.0,1
1298,1298,0.546958175420032,0.5,0.0,0.0,409.0,519.0,0.0,1,152.0,1
1299,1299,-0.5827462790186331,-0.6,0.0,1.0,490.0,517.0,1.0,0,323.0,1
1300,1300,-0.6844182537874746,-0.7,1.0,0.0,490.0,517.0,0.0,0,313.0,1
1301,1301,0.2807112692973833,0.3,0.0,0.0,266.0,635.0,0.0,1,789.0,1
1302,1302,0.5711491478930951,0.6,0.0,0.0,469.0,951.0,0.0,1,150.0,1
1303,1303,0.6814045359327502,0.7,1.0,1.0,340.0,818.0,1.0,1,112.0,1
1304,1304,0.017632891781374394,0.0,1.0,1.0,469.0,862.0,1.0,1,1669.0,1
1305,1305,0.5604599657509629,0.6,0.0,0.0,479.0,876.0,0.0,1,175.0,1
1306,1306,0.5121272558331248,0.5,1.0,1.0,250.0,764.0,1.0,1,166.0,1
1307,1307,-0.8352859902593507,-0.8,1.0,0.0,348.0,823.0,0.0,0,119.0,1
1308,1308,0.749146644134648,0.7,1.0,1.0,445.0,667.0,1.0,1,238.0,1
1309,1309,0.16207691583915051,0.2,0.0,0.0,419.0,972.0,0.0,1,939.0,1
1310,1310,0.38472948822377406,0.4,0.0,0.0,304.0,869.0,0.0,1,127.0,1
1311,1311,-0.13362099822271378,-0.1,1.0,0.0,339.0,598.0,0.0,0,553.0,1
1312,1312,-0.6270887487752339,-0.6,0.0,1.0,373.0,819.0,1.0,0,178.0,1
1313,1313,-0.5508093540038848,-0.6,0.0,1.0,489.0,970.0,1.0,0,191.0,1
1314,1314,0.7427519519732838,0.7,0.0,0.0,340.0,928.0,0.0,1,52.0,1
1315,1315,-0.43606701964940736,-0.4,1.0,0.0,305.0,989.0,0.0,0,146.0,1
1316,1316,0.3277708443533923,0.3,0.0,0.0,385.0,505.0,0.0,1,520.0,1
1317,1317,-0.23024689616748417,-0.2,0.0,1.0,461.0,992.0,1.0,0,-733.0,1
1318,1318,0.039362425271636026,0.0,1.0,1.0,433.0,844.0,1.0,1,1723.0,1
1319,1319,-0.21164619302586218,-0.2,1.0,0.0,464.0,751.0,0.0,0,585.0,1
1320,1320,0.8759008075958284,0.9,0.0,0.0,269.0,529.0,0.0,1,122.0,1
1321,1321,-0.4942052313319908,-0.5,0.0,1.0,361.0,830.0,1.0,0,119.0,1
1322,1322,0.4137737006378336,0.4,1.0,1.0,379.0,810.0,1.0,1,301.0,1
1323,1323,0.6883069268854863,0.7,0.0,0.0,470.0,841.0,0.0,1,59.0,1
1324,1324,0.13787768638266418,0.1,1.0,1.0,355.0,570.0,1.0,1,2075.0,1
1325,1325,0.14895148216624443,0.1,1.0,1.0,266.0,860.0,1.0,1,1874.0,1
1326,1326,0.1326055626693704,0.1,0.0,0.0,254.0,865.0,0.0,1,561.0,1
1327,1327,-0.06627314411986673,-0.1,1.0,0.0,388.0,707.0,0.0,0,1125.0,1
1328,1328,0.7935551242065649,0.8,1.0,1.0,304.0,874.0,1.0,1,242.0,1
1329,1329,0.5069913456350553,0.5,0.0,0.0,356.0,620.0,0.0,1,224.0,1
1330,1330,-0.6080135131089693,-0.6,0.0,1.0,359.0,909.0,1.0,0,172.0,1
1331,1331,-0.8829784881275504,-0.9,0.0,1.0,376.0,642.0,1.0,0,172.0,1
1332,1332,-0.5185010633256839,-0.5,0.0,1.0,489.0,673.0,1.0,0,248.0,1
1333,1333,-0.29817224423597644,-0.3,1.0,0.0,474.0,936.0,0.0,0,630.0,1
1334,1334,-0.1530204406228829,-0.2,0.0,1.0,483.0,862.0,1.0,0,1205.0,1
1335,1335,0.12053724547631595,0.1,0.0,0.0,349.0,985.0,0.0,1,1496.0,1
1336,1336,0.417915740608659,0.4,1.0,1.0,455.0,728.0,0.0,0,-63.0,0
1337,1337,0.6677232376442926,0.7,1.0,1.0,325.0,755.0,1.0,1,210.0,1
1338,1338,0.544612040420878,0.5,0.0,0.0,317.0,698.0,0.0,1,125.0,1
1339,1339,0.28767440382688336,0.3,1.0,1.0,458.0,876.0,1.0,1,406.0,1
1340,1340,0.17861315153486113,0.2,1.0,1.0,324.0,759.0,1.0,1,537.0,1
1341,1341,-0.5668967070170712,-0.6,1.0,0.0,465.0,629.0,0.0,0,306.0,1
1342,1342,0.043676522824599995,0.0,1.0,1.0,322.0,618.0,1.0,1,2060.0,1
1343,1343,0.2632970387224979,0.3,0.0,0.0,252.0,802.0,0.0,1,256.0,1
1344,1344,-0.8592687715572487,-0.9,0.0,1.0,459.0,829.0,1.0,0,92.0,1
1345,1345,-0.064846510271791,-0.1,0.0,1.0,331.0,893.0,1.0,0,1776.0,1
1346,1346,-0.5890674409071088,-0.6,0.0,1.0,309.0,558.0,1.0,0,293.0,1
1347,1347,-0.28875433334754175,-0.3,0.0,1.0,431.0,784.0,1.0,0,465.0,1
1348,1348,0.17324892238315226,0.2,1.0,1.0,372.0,753.0,1.0,1,1875.0,1
1349,1349,-0.8354993525398492,-0.8,1.0,0.0,288.0,616.0,0.0,0,126.0,1
1350,1350,0.07614841683750573,0.1,1.0,1.0,261.0,651.0,1.0,1,2088.0,1
1351,1351,0.24998639605700423,0.2,1.0,1.0,494.0,984.0,0.0,0,-38.0,0
1352,1352,-0.23540187577529625,-0.2,1.0,0.0,427.0,921.0,0.0,0,182.0,1
1353,1353,-0.6672303352822033,-0.7,0.0,1.0,434.0,651.0,1.0,0,185.0,1
1354,1354,-0.30451291040442274,-0.3,1.0,0.0,455.0,948.0,0.0,0,327.0,1
1355,1355,-0.12462451780153694,-0.1,1.0,0.0,422.0,573.0,0.0,0,455.0,1
1356,1356,-0.8965766755374219,-0.9,0.0,1.0,436.0,639.0,1.0,0,95.0,1
1357,1357,0.5173730856402995,0.5,1.0,1.0,451.0,581.0,1.0,1,168.0,1
1358,1358,-0.0222182495016352,-0.0,0.0,1.0,487.0,590.0,0.0,1,383.0,0
1359,1359,0.6200362836836518,0.6,1.0,1.0,487.0,594.0,1.0,1,159.0,1
1360,1360,0.2548527843874572,0.3,1.0,1.0,483.0,858.0,1.0,1,99.0,1
1361,1361,-0.4709969888233163,-0.5,1.0,0.0,378.0,984.0,0.0,0,248.0,1
1362,1362,-0.4655000617941552,-0.5,0.0,1.0,298.0,918.0,1.0,0,134.0,1
1363,1363,-0.5674331713091556,-0.6,0.0,1.0,423.0,522.0,1.0,0,215.0,1
1364,1364,-0.34409126342065754,-0.3,0.0,1.0,263.0,895.0,1.0,0,502.0,1
1365,1365,0.540521029877154,0.5,0.0,0.0,309.0,909.0,0.0,1,162.0,1
1366,1366,-0.8752897018779214,-0.9,1.0,0.0,447.0,933.0,0.0,0,90.0,1
1367,1367,0.791516831925913,0.8,1.0,1.0,419.0,931.0,1.0,1,150.0,1
1368,1368,0.08701633279937937,0.1,1.0,1.0,442.0,892.0,1.0,1,1666.0,1
1369,1369,-0.4694554295997617,-0.5,1.0,0.0,406.0,821.0,0.0,0,243.0,1
1370,1370,0.3559824289691774,0.4,1.0,1.0,379.0,627.0,1.0,1,174.0,1
1371,1371,0.3420036373976306,0.3,1.0,1.0,289.0,977.0,1.0,1,44.0,1
1372,1372,-0.2076890961963188,-0.2,1.0,0.0,437.0,768.0,0.0,0,435.0,1
1373,1373,-0.07805667386998616,-0.1,1.0,0.0,318.0,996.0,0.0,0,1286.0,1
1374,1374,0.1599651921656714,0.2,0.0,0.0,429.0,782.0,0.0,1,1759.0,1
1375,1375,0.5977541958346094,0.6,0.0,0.0,355.0,675.0,0.0,1,140.0,1
1376,1376,0.799284429841124,0.8,1.0,1.0,307.0,959.0,1.0,1,174.0,1
1377,1377,-0.18583681744160763,-0.2,1.0,0.0,499.0,512.0,0.0,0,589.0,1
1378,1378,0.665053464003177,0.7,1.0,1.0,372.0,747.0,1.0,1,121.0,1
1379,1379,-0.4046576878884915,-0.4,1.0,0.0,448.0,911.0,0.0,0,251.0,1
1380,1380,-0.3338683448500689,-0.3,0.0,1.0,333.0,888.0,1.0,0,539.0,1
1381,1381,-0.5831957625040178,-0.6,0.0,1.0,436.0,599.0,1.0,0,115.0,1
1382,1382,-0.5235997190565704,-0.5,1.0,0.0,287.0,592.0,0.0,0,191.0,1
1383,1383,-0.5309786819426516,-0.5,0.0,1.0,315.0,821.0,1.0,0,574.0,1
1384,1384,0.7121948338578347,0.7,0.0,0.0,265.0,769.0,0.0,1,256.0,1
1385,1385,0.8777537058564556,0.9,0.0,0.0,435.0,613.0,0.0,1,122.0,1
1386,1386,0.48742320169254383,0.5,1.0,1.0,287.0,755.0,1.0,1,168.0,1
1387,1387,-0.19797195219213337,-0.2,1.0,0.0,433.0,815.0,0.0,0,322.0,1
1388,1388,0.8782572082266883,0.9,0.0,0.0,262.0,719.0,0.0,1,249.0,1
1389,1389,-0.18824650902111328,-0.2,0.0,1.0,365.0,542.0,1.0,0,793.0,1
1390,1390,-0.5909322192707178,-0.6,1.0,0.0,455.0,536.0,0.0,0,149.0,1
1391,1391,-0.5485780547804583,-0.5,0.0,1.0,466.0,625.0,1.0,0,259.0,1
1392,1392,-0.008483207643686042,-0.0,0.0,1.0,409.0,916.0,1.0,0,1675.0,1
1393,1393,0.5854474295616477,0.6,0.0,0.0,432.0,593.0,0.0,1,185.0,1
1394,1394,0.43059261532222914,0.4,1.0,1.0,495.0,551.0,1.0,1,214.0,1
1395,1395,0.7818636909111211,0.8,1.0,1.0,260.0,677.0,1.0,1,193.0,1
1396,1396,0.7990194347632636,0.8,1.0,1.0,393.0,661.0,1.0,1,116.0,1
1397,1397,-0.7174439880764691,-0.7,0.0,1.0,377.0,649.0,1.0,0,264.0,1
1398,1398,-0.7477345717446763,-0.7,1.0,0.0,361.0,729.0,0.0,0,120.0,1
1399,1399,0.5665753275321607,0.6,1.0,1.0,328.0,509.0,1.0,1,323.0,1
1400,1400,-0.5002395406944169,-0.5,1.0,0.0,262.0,556.0,0.0,0,122.0,1
1401,1401,0.6443725595554303,0.6,1.0,1.0,477.0,644.0,1.0,1,249.0,1
1402,1402,-0.6026807577000202,-0.6,1.0,0.0,318.0,886.0,0.0,0,46.0,1
1403,1403,-0.40888465035009164,-0.4,1.0,0.0,496.0,789.0,0.0,0,225.0,1
1404,1404,0.6984652800557941,0.7,1.0,1.0,414.0,806.0,1.0,1,270.0,1
1405,1405,-0.6257001751446698,-0.6,0.0,1.0,260.0,831.0,1.0,0,169.0,1
1406,1406,0.18596509812176987,0.2,0.0,0.0,323.0,587.0,0.0,1,970.0,1
1407,1407,0.4477159208402909,0.4,0.0,0.0,268.0,913.0,0.0,1,209.0,1
1408,1408,0.3016744957021672,0.3,0.0,0.0,401.0,739.0,0.0,1,310.0,1
1409,1409,-0.7926691306362785,-0.8,0.0,1.0,414.0,661.0,1.0,0,105.0,1
1410,1410,-0.20902103097708158,-0.2,1.0,0.0,410.0,528.0,0.0,0,132.0,1
1411,1411,-0.03491625553416711,-0.0,1.0,0.0,497.0,810.0,0.0,0,813.0,1
1412,1412,0.4088866879940575,0.4,0.0,0.0,315.0,750.0,0.0,1,165.0,1
1413,1413,-0.24539717831909924,-0.2,0.0,1.0,440.0,732.0,1.0,0,368.0,1
1414,1414,0.7564852055149148,0.8,0.0,0.0,304.0,799.0,0.0,1,127.0,1
1415,1415,-0.0004962200580953535,-0.0,1.0,0.0,275.0,748.0,0.0,0,-193.0,1
1416,1416,-0.3603212440410526,-0.4,1.0,0.0,382.0,703.0,0.0,0,215.0,1
1417,1417,0.8016419193304866,0.8,0.0,0.0,460.0,716.0,0.0,1,364.0,1
1418,1418,0.43000706971620384,0.4,0.0,0.0,426.0,818.0,0.0,1,136.0,1
1419,1419,-0.2701123979351894,-0.3,0.0,1.0,281.0,564.0,1.0,0,1385.0,1
1420,1420,-0.40398008975371735,-0.4,1.0,0.0,428.0,552.0,0.0,0,240.0,1
1421,1421,-0.5119853725242576,-0.5,1.0,0.0,347.0,559.0,0.0,0,154.0,1
1422,1422,-0.09960802760253917,-0.1,0.0,1.0,377.0,851.0,1.0,0,1772.0,1
1423,1423,-0.5780385462221127,-0.6,0.0,1.0,474.0,518.0,1.0,0,118.0,1
1424,1424,-0.4435701884819683,-0.4,1.0,0.0,315.0,608.0,0.0,0,537.0,1
1425,1425,-0.6166560603338176,-0.6,0.0,1.0,482.0,754.0,1.0,0,124.0,1
1426,1426,-0.5359873160541029,-0.5,0.0,1.0,401.0,767.0,1.0,0,182.0,1
1427,1427,-0.5596629009014796,-0.6,1.0,0.0,389.0,785.0,0.0,0,366.0,1
1428,1428,-0.07928093601357622,-0.1,0.0,1.0,382.0,518.0,1.0,0,1480.0,1
1429,1429,0.22326787900318623,0.2,1.0,1.0,259.0,772.0,1.0,1,189.0,1
1430,1430,0.4332281103423449,0.4,0.0,0.0,363.0,910.0,0.0,1,157.0,1
1431,1431,-0.5230721194659609,-0.5,0.0,1.0,414.0,713.0,1.0,0,293.0,1
1432,1432,-0.7182397876043767,-0.7,0.0,1.0,495.0,869.0,1.0,0,156.0,1
1433,1433,-0.5601535850344301,-0.6,1.0,0.0,436.0,691.0,0.0,0,183.0,1
1434,1434,-0.8343659502403449,-0.8,0.0,1.0,449.0,851.0,1.0,0,160.0,1
1435,1435,0.4060064031263352,0.4,0.0,0.0,363.0,778.0,0.0,1,139.0,1
1436,1436,-0.7350630029511004,-0.7,1.0,0.0,288.0,616.0,0.0,0,196.0,1
1437,1437,-0.025582160274100763,-0.0,0.0,1.0,394.0,806.0,0.0,1,1710.0,0
1438,1438,0.1629330235217462,0.2,1.0,1.0,320.0,690.0,1.0,1,250.0,1
1439,1439,0.13282580188938564,0.1,0.0,0.0,405.0,636.0,0.0,1,1959.0,1
1440,1440,-0.08795083222453537,-0.1,0.0,1.0,250.0,823.0,1.0,0,437.0,1
1441,1441,0.8515234908430483,0.9,0.0,0.0,337.0,894.0,0.0,1,209.0,1
1442,1442,0.40790294616886336,0.4,1.0,1.0,256.0,625.0,1.0,1,539.0,1
1443,1443,-0.7466207895090241,-0.7,1.0,0.0,278.0,844.0,0.0,0,168.0,1
1444,1444,-0.48967200968992636,-0.5,1.0,0.0,432.0,879.0,0.0,0,179.0,1
1445,1445,-0.12030035171398523,-0.1,1.0,0.0,262.0,930.0,0.0,0,228.0,1
1446,1446,-0.3597401666117205,-0.4,0.0,1.0,441.0,932.0,1.0,0,177.0,1
1447,1447,0.2791108633818561,0.3,0.0,0.0,453.0,832.0,0.0,1,725.0,1
1448,1448,0.4600473954260619,0.5,0.0,0.0,457.0,674.0,0.0,1,89.0,1
1449,1449,-0.11068184780383705,-0.1,0.0,1.0,458.0,804.0,1.0,0,898.0,1
1450,1450,0.14213028887705204,0.1,0.0,0.0,383.0,692.0,0.0,1,455.0,1
1451,1451,-0.586854875200378,-0.6,1.0,0.0,259.0,616.0,0.0,0,215.0,1
1452,1452,0.45852607979764837,0.5,1.0,1.0,307.0,965.0,1.0,1,168.0,1
1453,1453,-0.6958827932177244,-0.7,1.0,0.0,327.0,768.0,0.0,0,305.0,1
1454,1454,-0.4627174207823036,-0.5,1.0,0.0,483.0,585.0,0.0,0,262.0,1
1455,1455,0.1295129430295271,0.1,0.0,0.0,324.0,679.0,0.0,1,607.0,1
1456,1456,-0.5498184609879443,-0.5,1.0,0.0,364.0,746.0,0.0,0,220.0,1
1457,1457,-0.43941034200805945,-0.4,1.0,0.0,250.0,618.0,0.0,0,172.0,1
1458,1458,0.05120667412331725,0.1,1.0,1.0,449.0,961.0,1.0,1,1590.0,1
1459,1459,0.04118819197223211,0.0,1.0,1.0,450.0,584.0,1.0,1,1366.0,1
1460,1460,0.5628120098919064,0.6,0.0,0.0,449.0,830.0,0.0,1,71.0,1
1461,1461,0.5716707431053737,0.6,0.0,0.0,278.0,533.0,0.0,1,349.0,1
1462,1462,0.07958444987026647,0.1,0.0,0.0,403.0,983.0,0.0,1,914.0,1
1463,1463,-0.0677562331868059,-0.1,0.0,1.0,470.0,827.0,1.0,0,1703.0,1
1464,1464,0.3734422667292546,0.4,1.0,1.0,311.0,684.0,1.0,1,265.0,1
1465,1465,-0.433772224388019,-0.4,0.0,1.0,285.0,850.0,1.0,0,265.0,1
1466,1466,0.06297605494341874,0.1,0.0,0.0,315.0,981.0,0.0,1,1164.0,1
1467,1467,0.7993855690031649,0.8,0.0,0.0,278.0,987.0,0.0,1,105.0,1
1468,1468,0.5845092190425939,0.6,0.0,0.0,366.0,779.0,0.0,1,95.0,1
1469,1469,-0.027929937418649242,-0.0,0.0,1.0,408.0,564.0,1.0,0,2028.0,1
1470,1470,-0.79968170457253,-0.8,0.0,1.0,295.0,935.0,1.0,0,70.0,1
1471,1471,0.6666529329390446,0.7,1.0,1.0,465.0,577.0,1.0,1,228.0,1
1472,1472,0.3468534358688192,0.3,1.0,1.0,293.0,658.0,1.0,1,589.0,1
1473,1473,0.27284498683289693,0.3,1.0,1.0,336.0,749.0,1.0,1,1215.0,1
1474,1474,0.3915620817104001,0.4,1.0,1.0,412.0,977.0,1.0,1,351.0,1
1475,1475,0.6036693029196097,0.6,0.0,0.0,342.0,508.0,0.0,1,360.0,1
1476,1476,-0.8635419337640509,-0.9,0.0,1.0,292.0,804.0,1.0,0,64.0,1
1477,1477,0.3127027042919849,0.3,1.0,1.0,360.0,860.0,1.0,1,230.0,1
1478,1478,-0.6679085369472824,-0.7,0.0,1.0,345.0,575.0,1.0,0,270.0,1
1479,1479,-0.49229620503445093,-0.5,1.0,0.0,377.0,939.0,0.0,0,174.0,1
1480,1480,0.13890006204256566,0.1,0.0,0.0,252.0,582.0,0.0,1,2166.0,1
1481,1481,0.1894115853793722,0.2,0.0,0.0,377.0,782.0,0.0,1,1041.0,1
1482,1482,0.3884132339710812,0.4,0.0,0.0,414.0,745.0,0.0,1,381.0,1
1483,1483,0.3653646705520478,0.4,0.0,0.0,267.0,910.0,0.0,1,253.0,1
1484,1484,-0.11698307158168075,-0.1,0.0,1.0,459.0,919.0,1.0,0,1622.0,1
1485,1485,0.26402650922492754,0.3,0.0,0.0,274.0,797.0,0.0,1,189.0,1
1486,1486,0.001795522407069594,0.0,1.0,1.0,418.0,565.0,0.0,0,2017.0,0
1487,1487,-0.6568443046745523,-0.7,0.0,1.0,372.0,561.0,1.0,0,177.0,1
1488,1488,-0.7400821154036872,-0.7,1.0,0.0,351.0,652.0,0.0,0,317.0,1
1489,1489,0.3039006464898363,0.3,1.0,1.0,295.0,757.0,1.0,1,418.0,1
1490,1490,-0.3832711558909053,-0.4,0.0,1.0,312.0,868.0,1.0,0,180.0,1
1491,1491,0.38806171930793265,0.4,1.0,1.0,435.0,814.0,1.0,1,311.0,1
1492,1492,-0.25335651987874874,-0.3,1.0,0.0,378.0,609.0,0.0,0,343.0,1
1493,1493,0.5045654059694918,0.5,0.0,0.0,319.0,583.0,0.0,1,498.0,1
1494,1494,-0.1494543035431003,-0.1,1.0,0.0,281.0,707.0,0.0,0,1732.0,1
1495,1495,0.5726808570902616,0.6,1.0,1.0,284.0,648.0,1.0,1,298.0,1
