,trial,coherence,coherence_bin,green_side,correct_side,target_onset,checker_onset,decision,green_decision,decision_time,correct_decision
0,0,0.0945795898888121,0.1,1.0,1.0,365.0,545.0,0.0,0,2090.0,0
1,1,0.37468994360544283,0.4,0.0,0.0,467.0,660.0,0.0,1,-1127.0,1
2,2,-0.3986557232543587,-0.4,1.0,0.0,317.0,678.0,0.0,0,2005.0,1
3,3,0.3446295334375554,0.3,1.0,1.0,436.0,698.0,0.0,0,1866.0,0
4,4,-0.826208843299542,-0.8,0.0,1.0,467.0,927.0,0.0,1,1606.0,0
5,5,0.2597681563716475,0.3,1.0,1.0,418.0,881.0,0.0,0,1701.0,0
6,6,-0.7730979772154524,-0.8,1.0,0.0,280.0,769.0,1.0,1,-969.0,0
7,7,-0.3098248176295244,-0.3,1.0,0.0,464.0,554.0,0.0,0,1982.0,1
8,8,-0.5865480517279192,-0.6,1.0,0.0,300.0,549.0,0.0,0,2151.0,1
9,9,0.42113450573156197,0.4,1.0,1.0,333.0,925.0,0.0,0,1742.0,0
10,10,0.8947039984698507,0.9,0.0,0.0,429.0,890.0,0.0,1,1681.0,1
11,11,-0.7763686153981657,-0.8,1.0,0.0,397.0,650.0,0.0,0,1953.0,1
12,12,-0.39606497656548645,-0.4,0.0,1.0,287.0,781.0,0.0,1,1932.0,0
13,13,0.7994908590454707,0.8,1.0,1.0,462.0,713.0,0.0,0,1825.0,0
14,14,0.5329941916493127,0.5,1.0,1.0,458.0,816.0,0.0,0,1726.0,0
15,15,-0.4385553974471258,-0.4,0.0,1.0,467.0,924.0,0.0,1,1609.0,0
16,16,-0.29652993318502563,-0.3,0.0,1.0,482.0,980.0,0.0,1,1538.0,0
17,17,0.8695020616569268,0.9,1.0,1.0,276.0,986.0,0.0,0,1738.0,0
18,18,0.48238933856179533,0.5,1.0,1.0,324.0,627.0,0.0,0,2049.0,0
19,19,-0.2254729405858179,-0.2,0.0,1.0,397.0,650.0,1.0,0,-1017.0,1
20,20,-0.2094903464915845,-0.2,0.0,1.0,435.0,736.0,0.0,1,1829.0,0
21,21,0.10487366636519091,0.1,0.0,0.0,398.0,808.0,0.0,1,1794.0,1
22,22,-0.4422925467695929,-0.4,1.0,0.0,443.0,696.0,0.0,0,1861.0,1
23,23,-0.5070474806260228,-0.5,1.0,0.0,479.0,592.0,0.0,0,1929.0,1
24,24,-0.7772916857597862,-0.8,1.0,0.0,481.0,581.0,0.0,0,1938.0,1
25,25,-0.44819639278107903,-0.4,0.0,1.0,376.0,910.0,0.0,1,1714.0,0
26,26,-0.8998654187582992,-0.9,0.0,1.0,326.0,579.0,1.0,0,-895.0,1
27,27,-0.47020234967572844,-0.5,0.0,1.0,487.0,571.0,0.0,1,1942.0,0
28,28,0.7642005533860258,0.8,1.0,1.0,482.0,601.0,0.0,0,1917.0,0
29,29,-0.6685261658484022,-0.7,0.0,1.0,251.0,692.0,0.0,1,2057.0,0
30,30,-0.837180322841077,-0.8,1.0,0.0,419.0,928.0,0.0,0,1653.0,1
31,31,-0.3418425043648947,-0.3,0.0,1.0,457.0,631.0,0.0,1,1912.0,0
32,32,-0.8341067097461831,-0.8,0.0,1.0,398.0,982.0,0.0,1,1620.0,0
33,33,-0.35172420478423905,-0.4,1.0,0.0,259.0,855.0,0.0,0,-1084.0,1
34,34,0.7735250348218793,0.8,1.0,1.0,343.0,878.0,0.0,0,1779.0,0
35,35,-0.6701471565131153,-0.7,0.0,1.0,491.0,791.0,0.0,1,1718.0,0
36,36,-0.6055929221051832,-0.6,1.0,0.0,493.0,570.0,0.0,0,1937.0,1
37,37,-0.1182694337762743,-0.1,1.0,0.0,386.0,705.0,0.0,0,1909.0,1
38,38,0.34693927659705126,0.3,1.0,1.0,486.0,964.0,0.0,0,1550.0,0
39,39,0.3095136519453062,0.3,0.0,0.0,344.0,686.0,0.0,1,1970.0,1
40,40,-0.3503977137801285,-0.4,1.0,0.0,306.0,791.0,0.0,0,1903.0,1
41,41,0.5256413105205625,0.5,1.0,1.0,395.0,705.0,0.0,0,1900.0,0
42,42,-0.7307153223622977,-0.7,0.0,1.0,481.0,724.0,1.0,0,-975.0,1
43,43,0.8149015357242798,0.8,0.0,0.0,368.0,523.0,0.0,1,2109.0,1
44,44,-0.30230504483968723,-0.3,1.0,0.0,411.0,903.0,0.0,0,-1254.0,1
45,45,0.2905296181924589,0.3,0.0,0.0,413.0,792.0,0.0,1,1795.0,1
46,46,0.45004394323143215,0.5,0.0,0.0,293.0,997.0,0.0,1,1710.0,1
47,47,0.48119314512708466,0.5,0.0,0.0,300.0,795.0,0.0,1,-1075.0,1
48,48,-0.27599489622523454,-0.3,0.0,1.0,251.0,601.0,0.0,1,2148.0,0
49,49,-0.7549463485123162,-0.8,0.0,1.0,352.0,894.0,0.0,1,1754.0,0
50,50,0.04525495921582712,0.0,0.0,0.0,392.0,834.0,0.0,1,1774.0,1
51,51,0.29688692538086137,0.3,1.0,1.0,387.0,664.0,0.0,0,1949.0,0
52,52,-0.20685222873851672,-0.2,0.0,1.0,370.0,719.0,1.0,0,-1049.0,1
53,53,0.7112408618553104,0.7,1.0,1.0,315.0,593.0,0.0,0,2092.0,0
54,54,-0.4310922024071231,-0.4,1.0,0.0,276.0,775.0,0.0,0,1949.0,1
55,55,0.22207490601500746,0.2,0.0,0.0,475.0,985.0,0.0,1,1540.0,1
56,56,-0.5196145640423153,-0.5,0.0,1.0,428.0,835.0,0.0,1,1737.0,0
57,57,-0.788179496437004,-0.8,1.0,0.0,361.0,603.0,0.0,0,2036.0,1
58,58,-0.8508429335701903,-0.9,1.0,0.0,308.0,845.0,0.0,0,1847.0,1
59,59,-0.24907444199461515,-0.2,1.0,0.0,306.0,672.0,0.0,0,2022.0,1
60,60,0.32225059296377434,0.3,0.0,0.0,362.0,565.0,0.0,1,2073.0,1
61,61,0.05877121611036129,0.1,0.0,0.0,309.0,583.0,0.0,1,2108.0,1
62,62,-0.8678003299392738,-0.9,1.0,0.0,477.0,812.0,0.0,0,1711.0,1
63,63,-0.8552910515258219,-0.9,1.0,0.0,270.0,784.0,0.0,0,1946.0,1
64,64,0.8588937158490019,0.9,1.0,1.0,266.0,767.0,0.0,0,1967.0,0
65,65,-0.45071983400091303,-0.5,1.0,0.0,403.0,931.0,0.0,0,1666.0,1
66,66,-0.18981100460448408,-0.2,1.0,0.0,394.0,870.0,0.0,0,1736.0,1
67,67,-0.7764286153700486,-0.8,0.0,1.0,293.0,706.0,0.0,1,2001.0,0
68,68,-0.2875767326314882,-0.3,1.0,0.0,270.0,698.0,0.0,0,2032.0,1
69,69,0.19832746336418772,0.2,0.0,0.0,385.0,501.0,0.0,1,2114.0,1
70,70,-0.7193208207395138,-0.7,0.0,1.0,423.0,786.0,0.0,1,1791.0,0
71,71,0.3960487096984967,0.4,1.0,1.0,392.0,676.0,0.0,0,1932.0,0
72,72,-0.5280499248371575,-0.5,1.0,0.0,415.0,615.0,0.0,0,1970.0,1
73,73,0.44716662106700056,0.4,1.0,1.0,305.0,675.0,0.0,0,2020.0,0
74,74,-0.8308192162017034,-0.8,0.0,1.0,291.0,683.0,1.0,0,-874.0,1
75,75,0.5391076712644084,0.5,1.0,1.0,369.0,803.0,0.0,0,1828.0,0
76,76,0.38845665471069546,0.4,1.0,1.0,313.0,797.0,0.0,0,1890.0,0
77,77,0.19808373905333776,0.2,1.0,1.0,418.0,990.0,0.0,0,1592.0,0
78,78,-0.3598512307345756,-0.4,0.0,1.0,356.0,535.0,0.0,1,2109.0,0
79,79,-0.1669605738022064,-0.2,1.0,0.0,261.0,636.0,0.0,0,2103.0,1
80,80,-0.45712270277031725,-0.5,0.0,1.0,270.0,557.0,0.0,1,2173.0,0
81,81,-0.7737070460708293,-0.8,1.0,0.0,304.0,505.0,0.0,0,2191.0,1
82,82,-0.15445620612754973,-0.2,0.0,1.0,448.0,826.0,0.0,1,1726.0,0
83,83,-0.08990827135482571,-0.1,1.0,0.0,485.0,687.0,0.0,0,-1032.0,1
84,84,-0.8754312241889977,-0.9,0.0,1.0,292.0,641.0,0.0,1,2067.0,0
85,85,-0.30296524498611355,-0.3,0.0,1.0,307.0,826.0,0.0,1,1867.0,0
86,86,-0.6665292817715701,-0.7,0.0,1.0,455.0,603.0,0.0,1,1942.0,0
87,87,-0.015074891465402529,-0.0,0.0,1.0,392.0,604.0,0.0,1,2004.0,0
88,88,0.25128501214272025,0.3,0.0,0.0,422.0,936.0,0.0,1,-1258.0,1
89,89,0.15034477314515737,0.2,1.0,1.0,480.0,913.0,0.0,0,1607.0,0
90,90,0.011920504559941203,0.0,1.0,1.0,493.0,957.0,0.0,0,1550.0,0
91,91,-0.23198320843405562,-0.2,1.0,0.0,473.0,625.0,0.0,0,1902.0,1
92,92,-0.5819229793768272,-0.6,1.0,0.0,450.0,680.0,0.0,0,1870.0,1
93,93,-0.14118659159918812,-0.1,0.0,1.0,363.0,746.0,0.0,1,1891.0,0
94,94,-0.8983849850471141,-0.9,0.0,1.0,303.0,638.0,0.0,1,2059.0,0
95,95,-0.16825157920421474,-0.2,0.0,1.0,479.0,502.0,0.0,1,2019.0,0
96,96,-0.4160459292572615,-0.4,0.0,1.0,300.0,531.0,0.0,1,2169.0,0
97,97,0.30852000296530846,0.3,0.0,0.0,401.0,547.0,0.0,1,2052.0,1
98,98,0.3856875277312283,0.4,0.0,0.0,454.0,558.0,0.0,1,1988.0,1
99,99,0.4901929482819233,0.5,0.0,0.0,412.0,635.0,0.0,1,1953.0,1
100,100,-0.20221225495223916,-0.2,1.0,0.0,389.0,879.0,0.0,0,1732.0,1
101,101,-0.4677640951804478,-0.5,0.0,1.0,392.0,917.0,0.0,1,1691.0,0
102,102,-0.48446462085992625,-0.5,0.0,1.0,456.0,694.0,0.0,1,1850.0,0
103,103,-0.7153454826316346,-0.7,0.0,1.0,272.0,965.0,0.0,1,1763.0,0
104,104,0.7666149248653945,0.8,0.0,0.0,469.0,744.0,0.0,1,1787.0,1
105,105,0.14085436847713606,0.1,0.0,0.0,413.0,781.0,0.0,1,1806.0,1
106,106,-0.6731838476973644,-0.7,0.0,1.0,320.0,808.0,0.0,1,1872.0,0
107,107,0.020621775868711834,0.0,1.0,1.0,322.0,762.0,0.0,0,1916.0,0
108,108,-0.7411256794722392,-0.7,0.0,1.0,441.0,889.0,0.0,1,1670.0,0
109,109,0.7658494425125767,0.8,1.0,1.0,484.0,964.0,0.0,0,1552.0,0
110,110,-0.015584475256834818,-0.0,1.0,0.0,315.0,895.0,0.0,0,1790.0,1
111,111,-0.8670922906101454,-0.9,0.0,1.0,408.0,967.0,0.0,1,1625.0,0
112,112,0.2906879504387737,0.3,1.0,1.0,391.0,846.0,0.0,0,1763.0,0
113,113,-0.7292965913459433,-0.7,0.0,1.0,334.0,546.0,0.0,1,2120.0,0
114,114,-0.8138226951865465,-0.8,1.0,0.0,467.0,885.0,0.0,0,1648.0,1
115,115,0.4627839900762899,0.5,1.0,1.0,492.0,762.0,0.0,0,1746.0,0
116,116,-0.6993041240450152,-0.7,1.0,0.0,466.0,562.0,0.0,0,1972.0,1
117,117,-0.48665790518105984,-0.5,1.0,0.0,273.0,763.0,0.0,0,1964.0,1
118,118,0.08585381045866847,0.1,0.0,0.0,319.0,618.0,0.0,1,2063.0,1
119,119,0.45684706754080306,0.5,0.0,0.0,490.0,696.0,0.0,1,1814.0,1
120,120,-0.1297121966622098,-0.1,1.0,0.0,488.0,551.0,0.0,0,-1039.0,1
121,121,0.10518628862004376,0.1,1.0,1.0,372.0,568.0,0.0,0,2060.0,0
122,122,0.5526228653915616,0.6,1.0,1.0,426.0,690.0,0.0,0,1884.0,0
123,123,0.5098097679772594,0.5,1.0,1.0,328.0,768.0,0.0,0,1904.0,0
124,124,-0.03045731433432186,-0.0,1.0,0.0,293.0,903.0,0.0,0,1804.0,1
125,125,-0.3172740530092628,-0.3,0.0,1.0,396.0,540.0,1.0,0,-826.0,1
126,126,0.4682293702315433,0.5,1.0,1.0,489.0,543.0,0.0,0,1968.0,0
127,127,0.1215975476943113,0.1,1.0,1.0,331.0,781.0,1.0,1,-1072.0,1
128,128,0.5411599253472966,0.5,1.0,1.0,299.0,520.0,0.0,0,-719.0,0
129,129,-0.022191458161399336,-0.0,1.0,0.0,410.0,991.0,0.0,0,1599.0,1
130,130,-0.023405158788535774,-0.0,0.0,1.0,321.0,722.0,0.0,1,1957.0,0
131,131,0.850788886025806,0.9,1.0,1.0,359.0,818.0,0.0,0,1823.0,0
132,132,-0.347521766677245,-0.3,0.0,1.0,400.0,663.0,1.0,0,-1023.0,1
133,133,0.8043970592609792,0.8,0.0,0.0,285.0,545.0,0.0,1,2170.0,1
134,134,0.784808703647852,0.8,0.0,0.0,311.0,733.0,0.0,1,1956.0,1
135,135,0.06230754665055038,0.1,1.0,1.0,467.0,852.0,0.0,0,1681.0,0
136,136,0.33129713081695156,0.3,1.0,1.0,427.0,773.0,0.0,0,1800.0,0
137,137,-0.2229293835136512,-0.2,1.0,0.0,283.0,991.0,0.0,0,1726.0,1
138,138,0.7291142942165657,0.7,1.0,1.0,340.0,659.0,0.0,0,2001.0,0
139,139,0.32190781594698936,0.3,0.0,0.0,309.0,511.0,0.0,1,2180.0,1
140,140,-0.6753514297739819,-0.7,1.0,0.0,308.0,629.0,0.0,0,2063.0,1
141,141,-0.7614853795841707,-0.8,0.0,1.0,409.0,794.0,0.0,1,1797.0,0
142,142,0.820964490072415,0.8,0.0,0.0,354.0,920.0,0.0,1,1726.0,1
143,143,0.5743796009791969,0.6,0.0,0.0,347.0,816.0,0.0,1,1837.0,1
144,144,0.28729213937296494,0.3,1.0,1.0,348.0,542.0,0.0,0,2110.0,0
145,145,0.10520858434451552,0.1,0.0,0.0,479.0,540.0,1.0,0,-469.0,0
146,146,-0.7708287568059736,-0.8,1.0,0.0,438.0,676.0,0.0,0,1886.0,1
147,147,0.7518675463759329,0.8,1.0,1.0,260.0,819.0,0.0,0,1921.0,0
148,148,-0.7673148373887446,-0.8,1.0,0.0,257.0,966.0,0.0,0,1777.0,1
149,149,-0.3529599141800652,-0.4,1.0,0.0,467.0,829.0,0.0,0,1704.0,1
150,150,-0.42457180395978283,-0.4,1.0,0.0,495.0,949.0,0.0,0,1556.0,1
151,151,0.5580352487230246,0.6,0.0,0.0,254.0,972.0,0.0,1,1774.0,1
152,152,-0.14761094166618527,-0.1,1.0,0.0,381.0,620.0,1.0,1,-811.0,0
153,153,-0.013126225044269302,-0.0,0.0,1.0,432.0,908.0,0.0,1,1660.0,0
154,154,0.7152003479049945,0.7,1.0,1.0,307.0,881.0,0.0,0,1812.0,0
155,155,-0.5627396529381559,-0.6,1.0,0.0,308.0,935.0,0.0,0,1757.0,1
156,156,-0.5156909940426273,-0.5,1.0,0.0,418.0,858.0,0.0,0,1724.0,1
157,157,-0.2489672673593678,-0.2,0.0,1.0,448.0,953.0,0.0,1,1599.0,0
158,158,0.6476847426543878,0.6,0.0,0.0,461.0,749.0,0.0,1,1790.0,1
159,159,0.3666941717626201,0.4,1.0,1.0,269.0,500.0,0.0,0,2231.0,0
160,160,-0.5649664013254092,-0.6,1.0,0.0,284.0,811.0,0.0,0,1905.0,1
161,161,-0.7186239479689366,-0.7,1.0,0.0,303.0,878.0,1.0,1,-1171.0,0
162,162,-0.614411955441077,-0.6,0.0,1.0,253.0,573.0,0.0,1,2174.0,0
163,163,0.6251973761811539,0.6,1.0,1.0,304.0,639.0,0.0,0,2057.0,0
164,164,-0.6844918290517389,-0.7,0.0,1.0,420.0,962.0,0.0,1,1618.0,0
165,165,0.800920263236719,0.8,0.0,0.0,345.0,808.0,0.0,1,1847.0,1
166,166,-0.8359601676172472,-0.8,0.0,1.0,364.0,573.0,0.0,1,2063.0,0
167,167,0.20401007885568434,0.2,0.0,0.0,353.0,798.0,0.0,1,1849.0,1
168,168,-0.4239527674749956,-0.4,1.0,0.0,365.0,828.0,0.0,0,1807.0,1
169,169,0.78399030903988,0.8,0.0,0.0,427.0,787.0,0.0,1,-1154.0,1
170,170,-0.6790992851776032,-0.7,1.0,0.0,313.0,714.0,0.0,0,1973.0,1
171,171,0.47207030208005907,0.5,1.0,1.0,489.0,837.0,0.0,0,1674.0,0
172,172,-0.8724518548771041,-0.9,1.0,0.0,265.0,616.0,0.0,0,2119.0,1
173,173,-0.2574099575332156,-0.3,0.0,1.0,270.0,532.0,0.0,1,2198.0,0
174,174,0.839222957692214,0.8,1.0,1.0,318.0,659.0,0.0,0,2023.0,0
175,175,0.7710479650373195,0.8,1.0,1.0,250.0,501.0,0.0,0,2249.0,0
176,176,-0.15072372541933077,-0.2,0.0,1.0,353.0,586.0,0.0,1,2061.0,0
177,177,0.6734652422569608,0.7,0.0,0.0,377.0,732.0,0.0,1,1891.0,1
178,178,0.4000541922955242,0.4,0.0,0.0,431.0,969.0,0.0,1,1600.0,1
179,179,0.6596561548463863,0.7,1.0,1.0,446.0,967.0,0.0,0,1587.0,0
180,180,0.5633160334941733,0.6,1.0,1.0,287.0,815.0,0.0,0,1898.0,0
181,181,-0.7420625370065181,-0.7,0.0,1.0,284.0,879.0,0.0,1,1837.0,0
182,182,0.8749943482895256,0.9,1.0,1.0,265.0,508.0,0.0,0,2227.0,0
183,183,-0.7823792888350681,-0.8,0.0,1.0,404.0,730.0,0.0,1,1866.0,0
184,184,0.03561248265821404,0.0,0.0,0.0,283.0,677.0,0.0,1,2040.0,1
185,185,-0.8733021851176603,-0.9,0.0,1.0,424.0,925.0,0.0,1,1651.0,0
186,186,-0.426786545074934,-0.4,0.0,1.0,377.0,667.0,0.0,1,1956.0,0
187,187,-0.5152942387111086,-0.5,1.0,0.0,490.0,565.0,1.0,1,-1045.0,0
188,188,-0.308749407453362,-0.3,1.0,0.0,368.0,679.0,0.0,0,1953.0,1
189,189,0.7829472507317942,0.8,1.0,1.0,371.0,662.0,0.0,0,1967.0,0
190,190,-0.687324438861469,-0.7,0.0,1.0,486.0,745.0,0.0,1,1769.0,0
191,191,0.040102510283682835,0.0,1.0,1.0,470.0,846.0,0.0,0,1684.0,0
192,192,0.8615205260416076,0.9,1.0,1.0,346.0,883.0,0.0,0,1771.0,0
193,193,0.5587643145598978,0.6,1.0,1.0,470.0,546.0,0.0,0,-846.0,0
194,194,-0.34255230437604134,-0.3,0.0,1.0,267.0,620.0,0.0,1,2113.0,0
195,195,0.12645108420296036,0.1,1.0,1.0,406.0,653.0,0.0,0,1941.0,0
196,196,-0.5594440652201731,-0.6,1.0,0.0,366.0,986.0,0.0,0,1648.0,1
197,197,0.498617817390019,0.5,0.0,0.0,496.0,916.0,0.0,1,1588.0,1
198,198,-0.8155167240577649,-0.8,1.0,0.0,405.0,589.0,0.0,0,2006.0,1
199,199,-0.5305961866020966,-0.5,1.0,0.0,363.0,585.0,0.0,0,2052.0,1
200,200,-0.20083599760302395,-0.2,0.0,1.0,269.0,588.0,0.0,1,2143.0,0
201,201,0.7431052600496092,0.7,1.0,1.0,425.0,551.0,0.0,0,2024.0,0
202,202,-0.3658867471808743,-0.4,0.0,1.0,482.0,805.0,0.0,1,1713.0,0
203,203,0.5748900683030046,0.6,0.0,0.0,413.0,805.0,0.0,1,1782.0,1
204,204,0.23810961181272738,0.2,0.0,0.0,369.0,937.0,0.0,1,1694.0,1
205,205,-0.8211021778491148,-0.8,0.0,1.0,267.0,870.0,0.0,1,1863.0,0
206,206,0.7849709937176467,0.8,1.0,1.0,375.0,675.0,0.0,0,1950.0,0
207,207,0.6857179130793968,0.7,1.0,1.0,319.0,591.0,0.0,0,-840.0,0
208,208,-0.18798216722977856,-0.2,0.0,1.0,394.0,654.0,0.0,1,1952.0,0
209,209,0.4307566541088793,0.4,0.0,0.0,303.0,983.0,0.0,1,-1116.0,1
210,210,-0.2667441594323484,-0.3,0.0,1.0,347.0,884.0,0.0,1,-1201.0,0
211,211,-0.43690137704849813,-0.4,1.0,0.0,423.0,675.0,0.0,0,1902.0,1
212,212,0.20865471309153538,0.2,0.0,0.0,430.0,980.0,0.0,1,1590.0,1
213,213,0.8656953089507265,0.9,0.0,0.0,342.0,649.0,0.0,1,2009.0,1
214,214,-0.46117269008684153,-0.5,0.0,1.0,345.0,518.0,0.0,1,2137.0,0
215,215,-0.7532975567789015,-0.8,1.0,0.0,403.0,631.0,0.0,0,1966.0,1
216,216,0.34078018320101033,0.3,1.0,1.0,255.0,576.0,0.0,0,2169.0,0
217,217,0.23194733318783023,0.2,1.0,1.0,270.0,564.0,0.0,0,2166.0,0
218,218,0.7710995517667033,0.8,1.0,1.0,373.0,999.0,0.0,0,1628.0,0
219,219,-0.7029596785042316,-0.7,1.0,0.0,276.0,581.0,0.0,0,2143.0,1
220,220,0.6040793657814992,0.6,0.0,0.0,407.0,963.0,0.0,1,1630.0,1
221,221,0.16002309620622024,0.2,1.0,1.0,342.0,963.0,0.0,0,1695.0,0
222,222,0.5968192604923658,0.6,1.0,1.0,313.0,739.0,0.0,0,1948.0,0
223,223,0.11717632114981569,0.1,0.0,0.0,291.0,542.0,0.0,1,2167.0,1
224,224,-0.21822532186124044,-0.2,1.0,0.0,434.0,596.0,0.0,0,1970.0,1
225,225,-0.2968445199232863,-0.3,1.0,0.0,420.0,648.0,0.0,0,1932.0,1
226,226,-0.19462505234274563,-0.2,0.0,1.0,435.0,815.0,0.0,1,1750.0,0
227,227,0.7339321051514348,0.7,0.0,0.0,325.0,801.0,0.0,1,1874.0,1
228,228,-0.6967597436228425,-0.7,0.0,1.0,260.0,782.0,1.0,0,-932.0,1
229,229,-0.7313951505120544,-0.7,0.0,1.0,267.0,872.0,0.0,1,1861.0,0
230,230,0.22945394554298904,0.2,0.0,0.0,346.0,603.0,0.0,1,2051.0,1
231,231,0.7451739259127107,0.7,0.0,0.0,413.0,646.0,1.0,0,-929.0,0
232,232,0.21076580239243492,0.2,1.0,1.0,260.0,638.0,0.0,0,2102.0,0
233,233,-0.21806887959777432,-0.2,0.0,1.0,299.0,558.0,0.0,1,2143.0,0
234,234,-0.5710686801078688,-0.6,0.0,1.0,356.0,600.0,0.0,1,2044.0,0
235,235,-0.4104925078195088,-0.4,0.0,1.0,449.0,692.0,0.0,1,1859.0,0
236,236,-0.5303041755646885,-0.5,0.0,1.0,295.0,899.0,0.0,1,1806.0,0
237,237,0.1065479975289384,0.1,1.0,1.0,424.0,699.0,0.0,0,1877.0,0
238,238,-0.6468402467616765,-0.6,1.0,0.0,293.0,869.0,0.0,0,1838.0,1
239,239,-0.4104579854836738,-0.4,1.0,0.0,464.0,844.0,0.0,0,1692.0,1
240,240,0.08137461286061443,0.1,1.0,1.0,280.0,510.0,0.0,0,2210.0,0
241,241,-0.6715870284998001,-0.7,0.0,1.0,489.0,640.0,0.0,1,1871.0,0
242,242,-0.41980998873762243,-0.4,0.0,1.0,353.0,797.0,0.0,1,1850.0,0
243,243,0.0885429694793114,0.1,1.0,1.0,394.0,595.0,0.0,0,-969.0,0
244,244,0.3023047234730821,0.3,1.0,1.0,340.0,917.0,0.0,0,1743.0,0
245,245,-0.025589065680436063,-0.0,1.0,0.0,355.0,657.0,0.0,0,1988.0,1
246,246,0.5058690030425205,0.5,1.0,1.0,485.0,765.0,0.0,0,1750.0,0
247,247,0.18272944127869317,0.2,0.0,0.0,337.0,636.0,1.0,0,-873.0,0
248,248,0.2777201396201211,0.3,1.0,1.0,487.0,981.0,0.0,0,1532.0,0
249,249,0.8063796139325398,0.8,1.0,1.0,293.0,534.0,0.0,0,2173.0,0
250,250,-0.36327436856668316,-0.4,1.0,0.0,406.0,801.0,0.0,0,1793.0,1
251,251,-0.8163424470944768,-0.8,1.0,0.0,437.0,651.0,0.0,0,1912.0,1
252,252,0.5796648548632671,0.6,1.0,1.0,478.0,618.0,0.0,0,1904.0,0
253,253,0.7291749525980605,0.7,0.0,0.0,381.0,653.0,0.0,1,1966.0,1
254,254,0.4978722357732769,0.5,0.0,0.0,297.0,609.0,0.0,1,2094.0,1
255,255,-0.06318815057061622,-0.1,1.0,0.0,325.0,714.0,0.0,0,1961.0,1
256,256,-0.2856365142797358,-0.3,0.0,1.0,452.0,958.0,0.0,1,1590.0,0
257,257,0.026167266775317444,0.0,1.0,1.0,471.0,906.0,0.0,0,1623.0,0
258,258,-0.5540730147091404,-0.6,1.0,0.0,469.0,547.0,0.0,0,1984.0,1
259,259,0.282275810797343,0.3,0.0,0.0,496.0,758.0,0.0,1,1746.0,1
260,260,0.8172083353285416,0.8,1.0,1.0,401.0,666.0,0.0,0,1933.0,0
261,261,0.2996295090338451,0.3,1.0,1.0,482.0,962.0,0.0,0,1556.0,0
262,262,0.5409252632420049,0.5,0.0,0.0,416.0,865.0,0.0,1,1719.0,1
263,263,0.8930831800362354,0.9,0.0,0.0,368.0,996.0,0.0,1,1636.0,1
264,264,0.14391249272485462,0.1,0.0,0.0,331.0,519.0,0.0,1,2150.0,1
265,265,-0.6408522774061058,-0.6,1.0,0.0,320.0,876.0,0.0,0,1804.0,1
266,266,0.22820447865621218,0.2,1.0,1.0,433.0,567.0,0.0,0,2000.0,0
267,267,0.16209064909955762,0.2,0.0,0.0,286.0,811.0,0.0,1,1903.0,1
268,268,-0.32140261292811756,-0.3,0.0,1.0,292.0,983.0,0.0,1,1725.0,0
269,269,-0.6327966956126392,-0.6,1.0,0.0,351.0,702.0,0.0,0,1947.0,1
270,270,0.0031490256031678765,0.0,1.0,1.0,258.0,720.0,0.0,0,2022.0,0
271,271,0.8035356624351785,0.8,1.0,1.0,480.0,931.0,0.0,0,1589.0,0
272,272,0.10646115425783387,0.1,0.0,0.0,286.0,878.0,0.0,1,1836.0,1
273,273,0.03332978773937145,0.0,1.0,1.0,378.0,817.0,0.0,0,1805.0,0
274,274,0.7924999225089365,0.8,1.0,1.0,274.0,605.0,0.0,0,2121.0,0
275,275,0.7253734743234409,0.7,1.0,1.0,477.0,574.0,1.0,1,-1011.0,1
276,276,0.6502183773530831,0.7,1.0,1.0,373.0,934.0,0.0,0,1693.0,0
277,277,0.7989309348503933,0.8,1.0,1.0,436.0,593.0,0.0,0,1971.0,0
278,278,-0.07035410627891237,-0.1,1.0,0.0,356.0,996.0,0.0,0,1648.0,1
279,279,-0.712587418675152,-0.7,0.0,1.0,282.0,589.0,0.0,1,2129.0,0
280,280,-0.5783771595155853,-0.6,1.0,0.0,320.0,611.0,0.0,0,2069.0,1
281,281,0.11185723347770271,0.1,1.0,1.0,475.0,945.0,0.0,0,1580.0,0
282,282,-0.14668655729827085,-0.1,1.0,0.0,377.0,953.0,0.0,0,1670.0,1
283,283,-0.6071674407802612,-0.6,0.0,1.0,340.0,994.0,0.0,1,1666.0,0
284,284,0.5134020814575936,0.5,1.0,1.0,282.0,582.0,0.0,0,-794.0,0
285,285,-0.725349445868885,-0.7,0.0,1.0,294.0,538.0,0.0,1,2168.0,0
286,286,0.5672252123607618,0.6,0.0,0.0,379.0,761.0,0.0,1,1860.0,1
287,287,0.7055107876405359,0.7,0.0,0.0,340.0,535.0,0.0,1,-855.0,1
288,288,-0.8446987574418726,-0.8,0.0,1.0,252.0,784.0,0.0,1,1964.0,0
289,289,0.8795028057521567,0.9,1.0,1.0,441.0,830.0,0.0,0,1729.0,0
290,290,0.5977868173437552,0.6,1.0,1.0,320.0,950.0,0.0,0,1730.0,0
291,291,-0.27004548665701145,-0.3,0.0,1.0,411.0,524.0,0.0,1,2065.0,0
292,292,-0.6214843290152505,-0.6,1.0,0.0,442.0,863.0,0.0,0,1695.0,1
293,293,0.13699721694068934,0.1,1.0,1.0,326.0,850.0,0.0,0,1824.0,0
294,294,0.12656560880671586,0.1,1.0,1.0,250.0,515.0,0.0,0,-725.0,0
295,295,-0.6386466103169643,-0.6,1.0,0.0,450.0,834.0,0.0,0,1716.0,1
296,296,0.6218657658471515,0.6,0.0,0.0,396.0,904.0,0.0,1,1700.0,1
297,297,-0.3470513642397276,-0.3,1.0,0.0,291.0,672.0,0.0,0,-943.0,1
298,298,0.8629069359035525,0.9,0.0,0.0,456.0,772.0,0.0,1,1772.0,1
299,299,-0.3735846813914254,-0.4,1.0,0.0,333.0,646.0,0.0,0,2021.0,1
300,300,-0.28912138712659263,-0.3,1.0,0.0,296.0,957.0,0.0,0,1747.0,1
301,301,0.1577434921054811,0.2,1.0,1.0,483.0,598.0,0.0,0,1919.0,0
302,302,-0.45565616416492855,-0.5,1.0,0.0,251.0,643.0,0.0,0,2106.0,1
303,303,-0.7484927150250235,-0.7,1.0,0.0,420.0,675.0,0.0,0,1905.0,1
304,304,-0.7153818820929079,-0.7,0.0,1.0,252.0,788.0,0.0,1,1960.0,0
305,305,0.16139817994501093,0.2,1.0,1.0,255.0,597.0,1.0,1,-792.0,1
306,306,0.7253644682973815,0.7,1.0,1.0,467.0,596.0,0.0,0,1937.0,0
307,307,0.8522682130442675,0.9,1.0,1.0,425.0,654.0,0.0,0,1921.0,0
308,308,0.8506793164372414,0.9,0.0,0.0,309.0,954.0,0.0,1,1737.0,1
309,309,0.5606286324649313,0.6,0.0,0.0,333.0,949.0,1.0,0,-1112.0,0
310,310,0.7109793421179159,0.7,0.0,0.0,411.0,835.0,0.0,1,1754.0,1
311,311,-0.7691863585731407,-0.8,1.0,0.0,256.0,989.0,0.0,0,1755.0,1
312,312,0.13802031914920654,0.1,1.0,1.0,342.0,694.0,0.0,0,1964.0,0
313,313,0.28665952661424965,0.3,0.0,0.0,396.0,847.0,0.0,1,1757.0,1
314,314,-0.5775916610140914,-0.6,0.0,1.0,254.0,525.0,0.0,1,2221.0,0
315,315,0.7539045550877926,0.8,0.0,0.0,471.0,902.0,0.0,1,1627.0,1
316,316,-0.7739942008453597,-0.8,0.0,1.0,455.0,738.0,1.0,0,-1083.0,1
317,317,0.026939540324785294,0.0,1.0,1.0,256.0,616.0,0.0,0,2128.0,0
318,318,0.377208470005889,0.4,0.0,0.0,401.0,616.0,0.0,1,1983.0,1
319,319,0.5748573360655246,0.6,0.0,0.0,446.0,704.0,0.0,1,1850.0,1
320,320,0.807364423179287,0.8,0.0,0.0,295.0,975.0,0.0,1,1730.0,1
321,321,-0.10707669413593757,-0.1,0.0,1.0,461.0,748.0,0.0,1,1791.0,0
322,322,-0.13741968758255751,-0.1,0.0,1.0,478.0,571.0,0.0,1,1951.0,0
323,323,-0.7640157324737121,-0.8,0.0,1.0,322.0,931.0,0.0,1,1747.0,0
324,324,0.8761559955281012,0.9,0.0,0.0,299.0,753.0,0.0,1,1948.0,1
325,325,0.2584695669443827,0.3,1.0,1.0,471.0,760.0,0.0,0,1769.0,0
326,326,0.05889448082707871,0.1,0.0,0.0,343.0,561.0,0.0,1,2096.0,1
327,327,-0.2939880311290217,-0.3,0.0,1.0,443.0,678.0,0.0,1,1879.0,0
328,328,0.39276893466601026,0.4,0.0,0.0,443.0,592.0,0.0,1,1965.0,1
329,329,0.7617681601169314,0.8,0.0,0.0,425.0,953.0,0.0,1,1622.0,1
330,330,-0.5841411401852323,-0.6,0.0,1.0,317.0,953.0,0.0,1,1730.0,0
331,331,-0.7680074213176727,-0.8,1.0,0.0,252.0,839.0,0.0,0,1909.0,1
332,332,0.337553121428008,0.3,1.0,1.0,436.0,660.0,0.0,0,1904.0,0
333,333,-0.7551385190653539,-0.8,0.0,1.0,258.0,957.0,0.0,1,1785.0,0
334,334,0.18074488656970555,0.2,0.0,0.0,379.0,881.0,0.0,1,1740.0,1
335,335,0.026942018617317376,0.0,0.0,0.0,260.0,874.0,0.0,1,1866.0,1
336,336,0.3855791255088862,0.4,0.0,0.0,399.0,587.0,0.0,1,2014.0,1
337,337,-0.8305238605203407,-0.8,0.0,1.0,282.0,785.0,0.0,1,-1037.0,0
338,338,0.7209386073312546,0.7,0.0,0.0,417.0,709.0,0.0,1,1874.0,1
339,339,-0.7575499195872244,-0.8,0.0,1.0,416.0,991.0,0.0,1,1593.0,0
340,340,0.3015341760862503,0.3,0.0,0.0,271.0,864.0,0.0,1,1865.0,1
341,341,0.47392280802089004,0.5,1.0,1.0,464.0,871.0,0.0,0,1665.0,0
342,342,-0.5195706752492348,-0.5,1.0,0.0,375.0,951.0,0.0,0,1674.0,1
343,343,-0.4094108145242919,-0.4,1.0,0.0,376.0,634.0,0.0,0,-980.0,1
344,344,-0.4107185685853469,-0.4,0.0,1.0,279.0,980.0,0.0,1,1741.0,0
345,345,-0.7568141062128604,-0.8,0.0,1.0,371.0,594.0,0.0,1,2035.0,0
346,346,-0.43787012646171497,-0.4,0.0,1.0,361.0,709.0,0.0,1,1930.0,0
347,347,-0.41987747761541033,-0.4,1.0,0.0,389.0,747.0,0.0,0,1864.0,1
348,348,0.48233035558858506,0.5,1.0,1.0,276.0,893.0,1.0,1,-1019.0,1
349,349,-0.5646782104177671,-0.6,0.0,1.0,454.0,763.0,0.0,1,1783.0,0
350,350,-0.5201134367132128,-0.5,1.0,0.0,452.0,668.0,0.0,0,1880.0,1
351,351,0.42855498729269004,0.4,1.0,1.0,346.0,561.0,0.0,0,2093.0,0
352,352,-0.2606043478745136,-0.3,0.0,1.0,345.0,685.0,0.0,1,1970.0,0
353,353,0.07833255612775625,0.1,1.0,1.0,410.0,773.0,0.0,0,1817.0,0
354,354,-0.6250427158587581,-0.6,1.0,0.0,250.0,771.0,0.0,0,1979.0,1
355,355,0.8459944086842087,0.8,0.0,0.0,393.0,857.0,0.0,1,1750.0,1
356,356,-0.380116883791763,-0.4,0.0,1.0,371.0,847.0,0.0,1,1782.0,0
357,357,0.16978188745670908,0.2,1.0,1.0,380.0,760.0,1.0,1,-1020.0,1
358,358,-0.5792778269694108,-0.6,0.0,1.0,316.0,581.0,1.0,0,-557.0,1
359,359,-0.3637519357407566,-0.4,0.0,1.0,314.0,991.0,0.0,1,1695.0,0
360,360,0.5221544453477026,0.5,0.0,0.0,369.0,720.0,0.0,1,1911.0,1
361,361,-0.4704522029619,-0.5,0.0,1.0,425.0,588.0,0.0,1,1987.0,0
362,362,0.5303928342594934,0.5,0.0,0.0,316.0,953.0,0.0,1,1731.0,1
363,363,-0.6238793794592032,-0.6,0.0,1.0,346.0,657.0,0.0,1,1997.0,0
364,364,-0.5515526935302386,-0.6,0.0,1.0,275.0,871.0,0.0,1,-866.0,0
365,365,0.6532302368613051,0.7,1.0,1.0,456.0,616.0,0.0,0,1928.0,0
366,366,0.8430017878524029,0.8,0.0,0.0,334.0,714.0,0.0,1,1952.0,1
367,367,-0.36006894117361965,-0.4,1.0,0.0,466.0,789.0,0.0,0,1745.0,1
368,368,0.8788761031136202,0.9,1.0,1.0,391.0,821.0,0.0,0,1788.0,0
369,369,-0.6841588223427374,-0.7,1.0,0.0,258.0,657.0,0.0,0,2085.0,1
370,370,0.8289495749678376,0.8,1.0,1.0,479.0,678.0,0.0,0,1843.0,0
371,371,-0.24439035454810942,-0.2,0.0,1.0,436.0,817.0,1.0,0,-1153.0,1
372,372,0.0910616443531791,0.1,1.0,1.0,354.0,729.0,0.0,0,1917.0,0
373,373,0.10735771856831755,0.1,0.0,0.0,417.0,653.0,0.0,1,1930.0,1
374,374,0.40416229508577406,0.4,0.0,0.0,255.0,666.0,0.0,1,2079.0,1
375,375,-0.5560392684636994,-0.6,0.0,1.0,447.0,623.0,0.0,1,1930.0,0
376,376,0.7672227426215589,0.8,0.0,0.0,441.0,878.0,0.0,1,1681.0,1
377,377,0.3613906230695775,0.4,0.0,0.0,385.0,572.0,0.0,1,2043.0,1
378,378,0.7575724807046332,0.8,0.0,0.0,466.0,941.0,0.0,1,1593.0,1
379,379,-0.5751738885856472,-0.6,0.0,1.0,333.0,921.0,0.0,1,1746.0,0
380,380,0.37349867088978594,0.4,1.0,1.0,448.0,555.0,0.0,0,1997.0,0
381,381,-0.010935424087889722,-0.0,0.0,1.0,499.0,796.0,0.0,1,1705.0,0
382,382,0.8585499751955336,0.9,0.0,0.0,368.0,998.0,0.0,1,1634.0,1
383,383,0.7721514797295982,0.8,0.0,0.0,348.0,896.0,0.0,1,1756.0,1
384,384,0.695166440975079,0.7,1.0,1.0,294.0,980.0,0.0,0,1726.0,0
385,385,-0.88828482222193,-0.9,1.0,0.0,468.0,885.0,0.0,0,1647.0,1
386,386,-0.1381241810214544,-0.1,0.0,1.0,315.0,598.0,0.0,1,2087.0,0
387,387,-0.3163504091148154,-0.3,1.0,0.0,450.0,746.0,0.0,0,1804.0,1
388,388,0.7323825877721893,0.7,1.0,1.0,383.0,631.0,0.0,0,1986.0,0
389,389,-0.8449909089935478,-0.8,0.0,1.0,333.0,668.0,0.0,1,1999.0,0
390,390,0.31043830490505997,0.3,0.0,0.0,361.0,654.0,0.0,1,1985.0,1
391,391,0.38628422564615905,0.4,0.0,0.0,410.0,572.0,0.0,1,2018.0,1
392,392,-0.49697428974127494,-0.5,1.0,0.0,498.0,687.0,0.0,0,1815.0,1
393,393,-0.43034233620655654,-0.4,1.0,0.0,450.0,748.0,0.0,0,1802.0,1
394,394,-0.04710610276969762,-0.0,0.0,1.0,395.0,573.0,0.0,1,2032.0,0
395,395,0.7675384070746997,0.8,1.0,1.0,346.0,880.0,0.0,0,-896.0,0
396,396,-0.0575615751813755,-0.1,0.0,1.0,472.0,647.0,0.0,1,1881.0,0
397,397,0.23546391237359388,0.2,0.0,0.0,307.0,689.0,0.0,1,2004.0,1
398,398,-0.022753655889273028,-0.0,1.0,0.0,422.0,559.0,0.0,0,2019.0,1
399,399,-0.6175539241720607,-0.6,1.0,0.0,469.0,724.0,0.0,0,1807.0,1
400,400,-0.7165965396498751,-0.7,1.0,0.0,458.0,730.0,0.0,0,1812.0,1
401,401,-0.6996283210291248,-0.7,1.0,0.0,289.0,638.0,0.0,0,2073.0,1
402,402,-0.4322453644933741,-0.4,0.0,1.0,420.0,937.0,0.0,1,1643.0,0
403,403,-0.1876212279184013,-0.2,0.0,1.0,338.0,779.0,0.0,1,1883.0,0
404,404,-0.1498930312127793,-0.1,0.0,1.0,488.0,846.0,0.0,1,1666.0,0
405,405,-0.5150762424084825,-0.5,0.0,1.0,297.0,831.0,0.0,1,1872.0,0
406,406,0.8819296712771542,0.9,0.0,0.0,486.0,705.0,0.0,1,1809.0,1
407,407,-0.19254618347484098,-0.2,1.0,0.0,392.0,852.0,1.0,1,-774.0,0
408,408,-0.3009018126366666,-0.3,0.0,1.0,341.0,981.0,0.0,1,1678.0,0
409,409,0.1650530411921839,0.2,1.0,1.0,289.0,668.0,0.0,0,2043.0,0
410,410,0.6777147351336638,0.7,0.0,0.0,340.0,618.0,0.0,1,2042.0,1
411,411,-0.7762368735778946,-0.8,0.0,1.0,353.0,977.0,0.0,1,1670.0,0
412,412,0.25942973045059936,0.3,1.0,1.0,269.0,673.0,1.0,1,-942.0,1
413,413,-0.7463714750840467,-0.7,1.0,0.0,439.0,647.0,0.0,0,1914.0,1
414,414,-0.7698336167376525,-0.8,1.0,0.0,359.0,646.0,0.0,0,1995.0,1
415,415,0.7398230669965208,0.7,1.0,1.0,381.0,561.0,0.0,0,2058.0,0
416,416,0.7932265506342911,0.8,1.0,1.0,327.0,520.0,0.0,0,2153.0,0
417,417,0.5095663938626241,0.5,1.0,1.0,447.0,856.0,0.0,0,1697.0,0
418,418,-0.338908334642151,-0.3,0.0,1.0,364.0,984.0,0.0,1,1652.0,0
419,419,0.4674336994820719,0.5,0.0,0.0,477.0,692.0,0.0,1,1831.0,1
420,420,0.4570842717362048,0.5,1.0,1.0,350.0,593.0,0.0,0,2057.0,0
421,421,0.047942251892561516,0.0,0.0,0.0,304.0,767.0,0.0,1,1929.0,1
422,422,-0.29597229189965835,-0.3,0.0,1.0,469.0,748.0,0.0,1,1783.0,0
423,423,-0.8108570563567165,-0.8,0.0,1.0,384.0,835.0,0.0,1,1781.0,0
424,424,-0.8706036636406381,-0.9,1.0,0.0,332.0,953.0,0.0,0,1715.0,1
425,425,-0.38550383710295744,-0.4,0.0,1.0,370.0,629.0,0.0,1,2001.0,0
426,426,-0.17360861071872447,-0.2,0.0,1.0,430.0,569.0,0.0,1,2001.0,0
427,427,0.03099821189168739,0.0,1.0,1.0,310.0,854.0,0.0,0,1836.0,0
428,428,0.7204293620271139,0.7,0.0,0.0,361.0,877.0,0.0,1,1762.0,1
429,429,-0.6226279966372535,-0.6,1.0,0.0,253.0,670.0,0.0,0,2077.0,1
430,430,-0.21716486908523902,-0.2,1.0,0.0,487.0,669.0,0.0,0,1844.0,1
431,431,0.5834379432731401,0.6,1.0,1.0,368.0,972.0,0.0,0,1660.0,0
432,432,0.2525237625921487,0.3,1.0,1.0,470.0,953.0,0.0,0,1577.0,0
433,433,-0.2410378175581016,-0.2,0.0,1.0,498.0,624.0,1.0,0,-1042.0,1
434,434,-0.6763658392438594,-0.7,1.0,0.0,304.0,652.0,0.0,0,2044.0,1
435,435,-0.08589831700167472,-0.1,0.0,1.0,266.0,505.0,0.0,1,-591.0,0
436,436,0.026108202070260655,0.0,1.0,1.0,310.0,615.0,0.0,0,2075.0,0
437,437,0.07776513532584384,0.1,1.0,1.0,382.0,826.0,0.0,0,-1108.0,0
438,438,-0.8433942231676996,-0.8,0.0,1.0,456.0,736.0,0.0,1,1808.0,0
439,439,-0.8546003797283619,-0.9,0.0,1.0,490.0,851.0,0.0,1,1659.0,0
440,440,-0.3124839499588742,-0.3,1.0,0.0,449.0,546.0,0.0,0,2005.0,1
441,441,0.8452888152790902,0.8,0.0,0.0,467.0,695.0,0.0,1,1838.0,1
442,442,0.5518852787287306,0.6,0.0,0.0,463.0,973.0,0.0,1,-1296.0,1
443,443,-0.8576224355990292,-0.9,1.0,0.0,388.0,777.0,0.0,0,1835.0,1
444,444,-0.768378376379787,-0.8,1.0,0.0,445.0,526.0,1.0,1,-811.0,0
445,445,-0.47945891431364757,-0.5,1.0,0.0,251.0,645.0,0.0,0,2104.0,1
446,446,-0.8850401991969331,-0.9,1.0,0.0,312.0,979.0,0.0,0,1709.0,1
447,447,0.13568263031841232,0.1,1.0,1.0,487.0,826.0,0.0,0,-1253.0,0
448,448,-0.4244187442445553,-0.4,0.0,1.0,319.0,595.0,0.0,1,2086.0,0
449,449,0.6001165320406842,0.6,1.0,1.0,346.0,527.0,0.0,0,2127.0,0
450,450,-0.4981707464126859,-0.5,0.0,1.0,388.0,892.0,0.0,1,1720.0,0
451,451,0.22198366745766063,0.2,1.0,1.0,336.0,782.0,0.0,0,1882.0,0
452,452,0.2812065450306017,0.3,0.0,0.0,488.0,543.0,0.0,1,1969.0,1
453,453,0.03967874992362197,0.0,1.0,1.0,343.0,763.0,0.0,0,1894.0,0
454,454,0.02863660536575463,0.0,1.0,1.0,440.0,534.0,0.0,0,2026.0,0
455,455,0.6290266318266292,0.6,0.0,0.0,389.0,723.0,0.0,1,1888.0,1
456,456,0.821776419814115,0.8,1.0,1.0,301.0,924.0,0.0,0,1775.0,0
457,457,0.10520438327338166,0.1,1.0,1.0,307.0,692.0,0.0,0,2001.0,0
458,458,0.20429490383458482,0.2,0.0,0.0,446.0,911.0,0.0,1,1643.0,1
459,459,-0.8200205885346634,-0.8,0.0,1.0,328.0,933.0,0.0,1,1739.0,0
460,460,0.5747651451563195,0.6,1.0,1.0,497.0,917.0,0.0,0,-1364.0,0
461,461,-0.020453802379976405,-0.0,0.0,1.0,475.0,749.0,0.0,1,-1154.0,0
462,462,0.07903190680918115,0.1,0.0,0.0,390.0,833.0,0.0,1,1777.0,1
463,463,0.04190927482787843,0.0,0.0,0.0,396.0,779.0,0.0,1,1825.0,1
464,464,-0.23173747447638338,-0.2,0.0,1.0,308.0,827.0,0.0,1,1865.0,0
465,465,0.8198820596832396,0.8,0.0,0.0,294.0,757.0,0.0,1,1949.0,1
466,466,-0.14972149563370107,-0.1,0.0,1.0,335.0,638.0,0.0,1,2027.0,0
467,467,-0.8184617092179538,-0.8,1.0,0.0,335.0,639.0,0.0,0,2026.0,1
468,468,-0.8781472499070256,-0.9,1.0,0.0,359.0,683.0,0.0,0,1958.0,1
469,469,0.48947165146775296,0.5,1.0,1.0,358.0,655.0,0.0,0,1987.0,0
470,470,-0.030986295036666833,-0.0,0.0,1.0,258.0,840.0,0.0,1,-1068.0,0
471,471,-0.4306424961545651,-0.4,0.0,1.0,370.0,803.0,0.0,1,1827.0,0
472,472,-0.23235125983107563,-0.2,1.0,0.0,258.0,526.0,0.0,0,2216.0,1
473,473,0.14587532243267687,0.1,0.0,0.0,259.0,746.0,0.0,1,1995.0,1
474,474,0.3458771997911486,0.3,0.0,0.0,419.0,990.0,0.0,1,1591.0,1
475,475,0.5492011632743067,0.5,1.0,1.0,357.0,518.0,0.0,0,-825.0,0
476,476,0.13929526366194522,0.1,0.0,0.0,276.0,627.0,0.0,1,2097.0,1
477,477,0.13398690601371033,0.1,0.0,0.0,262.0,617.0,0.0,1,2121.0,1
478,478,-0.6328865317504132,-0.6,1.0,0.0,395.0,801.0,0.0,0,1804.0,1
479,479,-0.7164809696473774,-0.7,0.0,1.0,430.0,853.0,0.0,1,1717.0,0
480,480,-0.7180997985415398,-0.7,0.0,1.0,296.0,816.0,0.0,1,1888.0,0
481,481,0.1331275183013868,0.1,1.0,1.0,330.0,659.0,0.0,0,2011.0,0
482,482,-0.4060133268625624,-0.4,0.0,1.0,281.0,910.0,0.0,1,1809.0,0
483,483,0.7993492753763786,0.8,1.0,1.0,489.0,853.0,0.0,0,1658.0,0
484,484,0.3679569475116983,0.4,1.0,1.0,284.0,611.0,0.0,0,2105.0,0
485,485,0.29689371340901494,0.3,0.0,0.0,286.0,692.0,0.0,1,2022.0,1
486,486,-0.308290392887936,-0.3,1.0,0.0,329.0,842.0,0.0,0,1829.0,1
487,487,0.7734321710484017,0.8,0.0,0.0,443.0,864.0,1.0,0,-1147.0,0
488,488,0.26366278016638967,0.3,1.0,1.0,464.0,998.0,0.0,0,1538.0,0
489,489,0.8022765832778566,0.8,0.0,0.0,290.0,811.0,0.0,1,1899.0,1
490,490,-0.10016498145260955,-0.1,0.0,1.0,388.0,509.0,1.0,0,-837.0,1
491,491,0.4564829795716715,0.5,1.0,1.0,301.0,908.0,0.0,0,1791.0,0
492,492,-0.7005192932314295,-0.7,1.0,0.0,382.0,767.0,0.0,0,1851.0,1
493,493,0.5867798905253442,0.6,1.0,1.0,427.0,924.0,1.0,1,-1291.0,1
494,494,-0.34265091304698303,-0.3,0.0,1.0,436.0,898.0,0.0,1,1666.0,0
495,495,0.40133957077569915,0.4,0.0,0.0,414.0,821.0,0.0,1,1765.0,1
496,496,-0.08598744661831026,-0.1,1.0,0.0,318.0,829.0,0.0,0,1853.0,1
497,497,-0.7732156461241917,-0.8,0.0,1.0,419.0,825.0,0.0,1,1756.0,0
498,498,0.887451142097662,0.9,0.0,0.0,303.0,660.0,0.0,1,2037.0,1
499,499,-0.3075563546274631,-0.3,0.0,1.0,410.0,822.0,0.0,1,1768.0,0
500,500,0.8079246533051333,0.8,0.0,0.0,319.0,999.0,0.0,1,1682.0,1
501,501,-0.3238215210473846,-0.3,1.0,0.0,372.0,751.0,0.0,0,1877.0,1
502,502,-0.08871358417305375,-0.1,0.0,1.0,328.0,687.0,0.0,1,1985.0,0
503,503,-0.25335677329387707,-0.3,0.0,1.0,484.0,519.0,0.0,1,1997.0,0
504,504,0.7210523145537674,0.7,0.0,0.0,377.0,684.0,0.0,1,1939.0,1
505,505,-0.36668552953533673,-0.4,0.0,1.0,274.0,808.0,0.0,1,1918.0,0
506,506,-0.3140832063633001,-0.3,1.0,0.0,473.0,865.0,0.0,0,1662.0,1
507,507,0.4159264704388669,0.4,0.0,0.0,428.0,979.0,0.0,1,1593.0,1
508,508,-0.4242195083901052,-0.4,1.0,0.0,461.0,660.0,0.0,0,1879.0,1
509,509,-0.20069242148967736,-0.2,0.0,1.0,328.0,690.0,0.0,1,1982.0,0
510,510,0.8159938207106457,0.8,0.0,0.0,428.0,640.0,0.0,1,1932.0,1
511,511,-0.7216644849747436,-0.7,1.0,0.0,307.0,896.0,0.0,0,1797.0,1
512,512,0.36236561955005697,0.4,0.0,0.0,390.0,771.0,0.0,1,1839.0,1
513,513,-0.6553532391296892,-0.7,0.0,1.0,473.0,650.0,0.0,1,1877.0,0
514,514,0.4495773069384287,0.4,0.0,0.0,446.0,686.0,0.0,1,1868.0,1
515,515,-0.8094826030154767,-0.8,0.0,1.0,494.0,534.0,0.0,1,1972.0,0
516,516,-0.8380703944192897,-0.8,1.0,0.0,434.0,699.0,0.0,0,1867.0,1
517,517,-0.2563971262361977,-0.3,0.0,1.0,450.0,702.0,0.0,1,1848.0,0
518,518,-0.3209038174636514,-0.3,0.0,1.0,332.0,566.0,0.0,1,2102.0,0
519,519,-0.48327613157678545,-0.5,1.0,0.0,306.0,749.0,0.0,0,1945.0,1
520,520,-0.2600590911224886,-0.3,0.0,1.0,355.0,711.0,0.0,1,1934.0,0
521,521,-0.34641605763395966,-0.3,1.0,0.0,407.0,928.0,1.0,1,-1305.0,0
522,522,0.76488085002951,0.8,1.0,1.0,346.0,686.0,0.0,0,-952.0,0
523,523,0.7350331689537964,0.7,0.0,0.0,431.0,599.0,0.0,1,1970.0,1
524,524,-0.7625566948391689,-0.8,1.0,0.0,285.0,551.0,0.0,0,2164.0,1
525,525,-0.37010836959579674,-0.4,0.0,1.0,362.0,734.0,0.0,1,1904.0,0
526,526,-0.6607198852812205,-0.7,0.0,1.0,259.0,573.0,0.0,1,2168.0,0
527,527,0.37819941700860593,0.4,0.0,0.0,363.0,737.0,0.0,1,1900.0,1
528,528,0.6862116364314444,0.7,1.0,1.0,481.0,899.0,0.0,0,1620.0,0
529,529,0.8858254273481009,0.9,0.0,0.0,341.0,697.0,0.0,1,1962.0,1
530,530,-0.40629957206465356,-0.4,1.0,0.0,469.0,909.0,0.0,0,1622.0,1
531,531,-0.19235135603291853,-0.2,1.0,0.0,468.0,708.0,0.0,0,1824.0,1
532,532,0.17493148884221432,0.2,0.0,0.0,253.0,885.0,0.0,1,1862.0,1
533,533,-0.313766037497307,-0.3,1.0,0.0,308.0,547.0,0.0,0,2145.0,1
534,534,0.7148195898820783,0.7,0.0,0.0,499.0,669.0,0.0,1,1832.0,1
535,535,-0.039220162179466445,-0.0,0.0,1.0,392.0,695.0,0.0,1,1913.0,0
536,536,0.7254344374166656,0.7,1.0,1.0,358.0,712.0,1.0,1,-940.0,1
537,537,0.03669482427516568,0.0,1.0,1.0,300.0,687.0,0.0,0,2013.0,0
538,538,0.09567948348492916,0.1,0.0,0.0,422.0,865.0,0.0,1,-1237.0,1
539,539,-0.248397363959736,-0.2,1.0,0.0,450.0,512.0,0.0,0,2038.0,1
540,540,-0.09802289450190405,-0.1,1.0,0.0,460.0,671.0,0.0,0,1869.0,1
541,541,-0.8237308196457277,-0.8,1.0,0.0,262.0,856.0,0.0,0,1882.0,1
542,542,-0.33042171465823356,-0.3,0.0,1.0,357.0,934.0,0.0,1,1709.0,0
543,543,-0.8395333009415049,-0.8,0.0,1.0,255.0,840.0,0.0,1,1905.0,0
544,544,0.5453023530407667,0.5,0.0,0.0,483.0,827.0,0.0,1,1690.0,1
545,545,-0.5689493694092596,-0.6,1.0,0.0,384.0,527.0,0.0,0,2089.0,1
546,546,0.5944287028606062,0.6,1.0,1.0,261.0,760.0,0.0,0,1979.0,0
547,547,-0.5457059133925874,-0.5,0.0,1.0,312.0,844.0,0.0,1,1844.0,0
548,548,0.7318787713146647,0.7,0.0,0.0,335.0,573.0,0.0,1,2092.0,1
549,549,-0.6390110764932977,-0.6,0.0,1.0,345.0,975.0,0.0,1,1680.0,0
550,550,0.008621476364842118,0.0,0.0,0.0,401.0,986.0,0.0,1,-1237.0,1
551,551,0.2759721321028964,0.3,0.0,0.0,448.0,599.0,0.0,1,1953.0,1
552,552,0.8455293017268667,0.8,1.0,1.0,442.0,609.0,0.0,0,1949.0,0
553,553,0.5258809755007458,0.5,0.0,0.0,285.0,693.0,0.0,1,2022.0,1
554,554,0.8509808484545102,0.9,0.0,0.0,423.0,580.0,0.0,1,1997.0,1
555,555,-0.7473400199575535,-0.7,0.0,1.0,443.0,611.0,0.0,1,1946.0,0
556,556,0.4233196870790895,0.4,0.0,0.0,269.0,623.0,0.0,1,2108.0,1
557,557,0.2671006334043283,0.3,1.0,1.0,330.0,837.0,0.0,0,1833.0,0
558,558,-0.03669166399386281,-0.0,0.0,1.0,459.0,678.0,0.0,1,1863.0,0
559,559,-0.39923792654027523,-0.4,0.0,1.0,257.0,609.0,0.0,1,2134.0,0
560,560,-0.2393278793924728,-0.2,0.0,1.0,336.0,559.0,0.0,1,2105.0,0
561,561,0.3367640065862333,0.3,0.0,0.0,492.0,517.0,0.0,1,1991.0,1
562,562,-0.2748797123777307,-0.3,0.0,1.0,451.0,944.0,0.0,1,1605.0,0
563,563,0.33886584508932704,0.3,0.0,0.0,398.0,869.0,0.0,1,-1237.0,1
564,564,-0.5374955333254876,-0.5,0.0,1.0,448.0,903.0,0.0,1,1649.0,0
565,565,-0.7047269931023511,-0.7,0.0,1.0,383.0,865.0,0.0,1,1752.0,0
566,566,-0.30014168775414385,-0.3,1.0,0.0,496.0,581.0,0.0,0,1923.0,1
567,567,0.6287894760961535,0.6,1.0,1.0,307.0,545.0,0.0,0,2148.0,0
568,568,0.8132427698926091,0.8,1.0,1.0,356.0,734.0,0.0,0,1910.0,0
569,569,-0.2594013304469168,-0.3,1.0,0.0,423.0,743.0,0.0,0,1834.0,1
570,570,0.18405686983796576,0.2,0.0,0.0,460.0,657.0,0.0,1,1883.0,1
571,571,0.6084533976702952,0.6,0.0,0.0,369.0,712.0,0.0,1,1919.0,1
572,572,0.18970857313289768,0.2,0.0,0.0,477.0,949.0,0.0,1,1574.0,1
573,573,-0.4614696015045196,-0.5,0.0,1.0,420.0,573.0,0.0,1,2007.0,0
574,574,0.5660069984557249,0.6,0.0,0.0,314.0,736.0,0.0,1,1950.0,1
575,575,-0.2324214058179641,-0.2,1.0,0.0,399.0,679.0,0.0,0,1922.0,1
576,576,0.2836168002419549,0.3,1.0,1.0,495.0,501.0,0.0,0,2004.0,0
577,577,0.20495670357685658,0.2,0.0,0.0,346.0,801.0,0.0,1,1853.0,1
578,578,-0.6969110028927141,-0.7,1.0,0.0,386.0,524.0,0.0,0,2090.0,1
579,579,-0.4568351682994408,-0.5,0.0,1.0,343.0,798.0,0.0,1,1859.0,0
580,580,-0.2662001786358422,-0.3,1.0,0.0,429.0,995.0,0.0,0,1576.0,1
581,581,0.8176189256151424,0.8,1.0,1.0,354.0,771.0,0.0,0,-935.0,0
582,582,-0.8826767857731276,-0.9,1.0,0.0,259.0,616.0,0.0,0,2125.0,1
583,583,0.026442263056510762,0.0,1.0,1.0,272.0,884.0,0.0,0,1844.0,0
584,584,-0.5899218867570786,-0.6,0.0,1.0,263.0,728.0,0.0,1,2009.0,0
585,585,0.7398802053077213,0.7,1.0,1.0,318.0,766.0,0.0,0,1916.0,0
586,586,0.3605525992682471,0.4,0.0,0.0,287.0,739.0,1.0,0,-816.0,0
587,587,-0.07782431620131536,-0.1,0.0,1.0,372.0,628.0,0.0,1,2000.0,0
588,588,0.3412697705534996,0.3,0.0,0.0,455.0,851.0,0.0,1,1694.0,1
589,589,0.05843794471553432,0.1,0.0,0.0,295.0,894.0,0.0,1,1811.0,1
590,590,-0.08640182619396053,-0.1,1.0,0.0,257.0,926.0,1.0,1,-993.0,0
591,591,0.7143324527021296,0.7,1.0,1.0,419.0,779.0,0.0,0,1802.0,0
592,592,0.5176620019084738,0.5,1.0,1.0,439.0,891.0,0.0,0,1670.0,0
593,593,-0.09504394842677322,-0.1,1.0,0.0,442.0,603.0,0.0,0,1955.0,1
594,594,-0.5016852000105764,-0.5,0.0,1.0,251.0,525.0,0.0,1,2224.0,0
595,595,-0.8595384384787699,-0.9,1.0,0.0,282.0,863.0,0.0,0,1855.0,1
596,596,-0.6657307817155705,-0.7,0.0,1.0,316.0,950.0,0.0,1,1734.0,0
597,597,-0.1010934609306614,-0.1,1.0,0.0,389.0,773.0,0.0,0,1838.0,1
598,598,0.13830797198230182,0.1,1.0,1.0,383.0,711.0,1.0,1,-924.0,1
599,599,-0.4211306164744984,-0.4,0.0,1.0,276.0,520.0,0.0,1,-706.0,0
600,600,-0.4135172191218477,-0.4,0.0,1.0,483.0,967.0,0.0,1,1550.0,0
601,601,0.3206525313729963,0.3,0.0,0.0,395.0,902.0,0.0,1,1703.0,1
602,602,-0.4898417472957461,-0.5,1.0,0.0,445.0,632.0,0.0,0,1923.0,1
603,603,0.33640060041000897,0.3,0.0,0.0,320.0,691.0,0.0,1,1989.0,1
604,604,-0.7151193723946859,-0.7,1.0,0.0,382.0,794.0,0.0,0,1824.0,1
605,605,0.6041085481322,0.6,1.0,1.0,466.0,529.0,0.0,0,2005.0,0
606,606,-0.6057010632383679,-0.6,0.0,1.0,402.0,889.0,0.0,1,1709.0,0
607,607,-0.3962665515241207,-0.4,0.0,1.0,331.0,931.0,0.0,1,1738.0,0
608,608,0.44431800175496583,0.4,0.0,0.0,379.0,739.0,0.0,1,1882.0,1
609,609,-0.6818053253734389,-0.7,1.0,0.0,351.0,767.0,0.0,0,1882.0,1
610,610,0.13897329887137488,0.1,1.0,1.0,328.0,702.0,0.0,0,1970.0,0
611,611,-0.4678823989029991,-0.5,1.0,0.0,482.0,959.0,0.0,0,1559.0,1
612,612,0.7859469259946205,0.8,0.0,0.0,318.0,626.0,0.0,1,2056.0,1
613,613,0.2401458059874374,0.2,0.0,0.0,279.0,553.0,1.0,0,-662.0,0
614,614,-0.7541107870661353,-0.8,1.0,0.0,448.0,921.0,0.0,0,1631.0,1
615,615,0.8669618431318268,0.9,1.0,1.0,283.0,900.0,0.0,0,1817.0,0
616,616,0.039362241673332576,0.0,0.0,0.0,427.0,848.0,0.0,1,1725.0,1
617,617,-0.74395014472656,-0.7,1.0,0.0,294.0,791.0,0.0,0,1915.0,1
618,618,0.5083235993191989,0.5,1.0,1.0,261.0,657.0,0.0,0,2082.0,0
619,619,-0.3460479212055143,-0.3,0.0,1.0,452.0,600.0,0.0,1,1948.0,0
620,620,-0.5556211093602486,-0.6,0.0,1.0,381.0,850.0,1.0,0,-1111.0,1
621,621,-0.08057860677446882,-0.1,0.0,1.0,472.0,570.0,0.0,1,1958.0,0
622,622,-0.22727114983951746,-0.2,1.0,0.0,429.0,516.0,0.0,0,2055.0,1
623,623,0.6149845955228438,0.6,0.0,0.0,292.0,984.0,1.0,0,-1006.0,0
624,624,0.495999725645743,0.5,1.0,1.0,360.0,957.0,0.0,0,1683.0,0
625,625,-0.5402516106688753,-0.5,0.0,1.0,369.0,853.0,0.0,1,1778.0,0
626,626,0.06745515823179771,0.1,1.0,1.0,251.0,720.0,0.0,0,-921.0,0
627,627,-0.42972219912961807,-0.4,1.0,0.0,484.0,527.0,0.0,0,1989.0,1
628,628,0.6835701892788385,0.7,1.0,1.0,371.0,758.0,0.0,0,1871.0,0
629,629,0.3226880453283568,0.3,0.0,0.0,353.0,566.0,0.0,1,2081.0,1
630,630,0.8113986324454291,0.8,1.0,1.0,387.0,560.0,0.0,0,2053.0,0
631,631,-0.15951804750493026,-0.2,0.0,1.0,367.0,622.0,0.0,1,2011.0,0
632,632,-0.11685649239694296,-0.1,1.0,0.0,327.0,603.0,0.0,0,2070.0,1
633,633,0.6460276952354987,0.6,0.0,0.0,419.0,627.0,0.0,1,1954.0,1
634,634,-0.29573712137473807,-0.3,1.0,0.0,265.0,888.0,0.0,0,1847.0,1
635,635,-0.3089167435685679,-0.3,0.0,1.0,450.0,784.0,0.0,1,1766.0,0
636,636,0.6818604816269481,0.7,1.0,1.0,452.0,883.0,0.0,0,1665.0,0
637,637,0.10890051569430559,0.1,1.0,1.0,453.0,577.0,1.0,1,-940.0,1
638,638,0.3791762955326209,0.4,0.0,0.0,452.0,866.0,0.0,1,1682.0,1
639,639,0.3022724664368782,0.3,0.0,0.0,490.0,889.0,0.0,1,-1329.0,1
640,640,-0.6511815902395804,-0.7,1.0,0.0,260.0,718.0,0.0,0,2022.0,1
641,641,-0.7059527022795736,-0.7,1.0,0.0,317.0,836.0,1.0,1,-1063.0,0
642,642,-0.1757581973555996,-0.2,1.0,0.0,287.0,813.0,0.0,0,1900.0,1
643,643,0.013798353644295713,0.0,0.0,0.0,258.0,551.0,1.0,0,-779.0,0
644,644,-0.05921359741777388,-0.1,0.0,1.0,341.0,790.0,0.0,1,1869.0,0
645,645,0.7266126607665077,0.7,1.0,1.0,445.0,767.0,0.0,0,1788.0,0
646,646,-0.6843604498795218,-0.7,0.0,1.0,494.0,762.0,0.0,1,1744.0,0
647,647,-0.8293274485290757,-0.8,1.0,0.0,403.0,514.0,0.0,0,2083.0,1
648,648,-0.4812888188325561,-0.5,0.0,1.0,317.0,560.0,0.0,1,2123.0,0
649,649,-0.7090385354969615,-0.7,0.0,1.0,305.0,872.0,0.0,1,1823.0,0
650,650,-0.30845076120143367,-0.3,1.0,0.0,450.0,567.0,0.0,0,1983.0,1
651,651,-0.5870381446817754,-0.6,1.0,0.0,281.0,582.0,0.0,0,2137.0,1
652,652,0.5180043010786578,0.5,0.0,0.0,408.0,793.0,0.0,1,1799.0,1
653,653,-0.025095847343779676,-0.0,0.0,1.0,376.0,697.0,0.0,1,-983.0,0
654,654,0.38738642132341405,0.4,0.0,0.0,351.0,996.0,0.0,1,1653.0,1
655,655,-0.71625194850556,-0.7,1.0,0.0,352.0,502.0,0.0,0,2146.0,1
656,656,0.5213345242283903,0.5,1.0,1.0,459.0,861.0,0.0,0,1680.0,0
657,657,-0.03316240669295012,-0.0,1.0,0.0,254.0,866.0,0.0,0,1880.0,1
658,658,-0.1310687072122747,-0.1,1.0,0.0,306.0,801.0,0.0,0,1893.0,1
659,659,0.8288300817629056,0.8,1.0,1.0,355.0,797.0,1.0,1,-1142.0,1
660,660,0.18164040132078518,0.2,1.0,1.0,290.0,975.0,0.0,0,1735.0,0
661,661,0.663187168341535,0.7,1.0,1.0,425.0,950.0,0.0,0,1625.0,0
662,662,0.05713004536933286,0.1,0.0,0.0,428.0,789.0,0.0,1,1783.0,1
663,663,-0.8487373012331237,-0.8,1.0,0.0,361.0,522.0,0.0,0,-853.0,1
664,664,-0.7750254765854617,-0.8,0.0,1.0,335.0,822.0,0.0,1,1843.0,0
665,665,0.5661287932635463,0.6,1.0,1.0,262.0,552.0,0.0,0,2186.0,0
666,666,-0.8629770303368194,-0.9,1.0,0.0,373.0,839.0,0.0,0,1788.0,1
667,667,0.7813830368490012,0.8,1.0,1.0,352.0,803.0,0.0,0,1845.0,0
668,668,0.37165589418161116,0.4,1.0,1.0,310.0,615.0,0.0,0,2075.0,0
669,669,-0.6935074488752943,-0.7,1.0,0.0,315.0,846.0,0.0,0,1839.0,1
670,670,0.12641447347255552,0.1,1.0,1.0,454.0,805.0,0.0,0,1741.0,0
671,671,0.05148498043688199,0.1,1.0,1.0,294.0,858.0,0.0,0,1848.0,0
672,672,-0.31278905732989926,-0.3,0.0,1.0,426.0,709.0,0.0,1,1865.0,0
673,673,0.07268857426178132,0.1,0.0,0.0,308.0,736.0,0.0,1,1956.0,1
674,674,-0.7863859822350582,-0.8,1.0,0.0,442.0,821.0,0.0,0,1737.0,1
675,675,-0.5690922423381906,-0.6,0.0,1.0,354.0,724.0,0.0,1,1922.0,0
676,676,-0.5296358550026005,-0.5,1.0,0.0,453.0,629.0,0.0,0,1918.0,1
677,677,0.3149486992897138,0.3,0.0,0.0,413.0,636.0,1.0,0,-869.0,0
678,678,-0.11583042258152743,-0.1,1.0,0.0,448.0,716.0,0.0,0,1836.0,1
679,679,-0.754297395549208,-0.8,0.0,1.0,331.0,857.0,0.0,1,1812.0,0
680,680,-0.5441897958650702,-0.5,0.0,1.0,458.0,508.0,0.0,1,2034.0,0
681,681,0.18525057626135133,0.2,1.0,1.0,260.0,869.0,0.0,0,1871.0,0
682,682,-0.8750289709234251,-0.9,0.0,1.0,354.0,983.0,0.0,1,1663.0,0
683,683,0.421720594837547,0.4,0.0,0.0,292.0,592.0,0.0,1,2116.0,1
684,684,-0.13973938374484007,-0.1,1.0,0.0,424.0,594.0,0.0,0,1982.0,1
685,685,-0.5775834863740292,-0.6,1.0,0.0,403.0,508.0,0.0,0,2089.0,1
686,686,0.886090955104817,0.9,0.0,0.0,398.0,951.0,0.0,1,1651.0,1
687,687,-0.8515576954139112,-0.9,0.0,1.0,499.0,559.0,0.0,1,1942.0,0
688,688,0.7957977577859409,0.8,0.0,0.0,366.0,980.0,0.0,1,1654.0,1
689,689,0.45446278649709637,0.5,0.0,0.0,402.0,861.0,0.0,1,1737.0,1
690,690,-0.8442615919946511,-0.8,1.0,0.0,486.0,655.0,1.0,1,-1091.0,0
691,691,-0.2987716984421752,-0.3,0.0,1.0,266.0,668.0,0.0,1,2066.0,0
692,692,0.4813739695964,0.5,0.0,0.0,475.0,824.0,1.0,0,-1249.0,0
693,693,0.5851720042358467,0.6,0.0,0.0,452.0,691.0,0.0,1,1857.0,1
694,694,0.37973843162504306,0.4,0.0,0.0,430.0,924.0,0.0,1,1646.0,1
695,695,0.6120263381254273,0.6,0.0,0.0,471.0,525.0,0.0,1,2004.0,1
696,696,0.23076256334833667,0.2,1.0,1.0,382.0,873.0,0.0,0,1745.0,0
697,697,0.36380982676790785,0.4,0.0,0.0,383.0,967.0,0.0,1,1650.0,1
698,698,0.06177385270614211,0.1,1.0,1.0,300.0,660.0,0.0,0,2040.0,0
699,699,-0.09121543907587049,-0.1,0.0,1.0,418.0,718.0,0.0,1,1864.0,0
700,700,0.6403890589015867,0.6,1.0,1.0,435.0,858.0,0.0,0,1707.0,0
701,701,-0.2218796916538487,-0.2,1.0,0.0,290.0,822.0,0.0,0,-982.0,1
702,702,0.11854362323260126,0.1,0.0,0.0,445.0,557.0,0.0,1,1998.0,1
703,703,0.4327445364104455,0.4,1.0,1.0,490.0,593.0,0.0,0,1917.0,0
704,704,0.44655311296955,0.4,0.0,0.0,384.0,517.0,0.0,1,2099.0,1
705,705,-0.30902189730428176,-0.3,1.0,0.0,465.0,896.0,0.0,0,1639.0,1
706,706,0.4453631214910748,0.4,0.0,0.0,255.0,726.0,0.0,1,2019.0,1
707,707,0.18977557013741897,0.2,0.0,0.0,480.0,506.0,0.0,1,2014.0,1
708,708,-0.4971420052226612,-0.5,1.0,0.0,312.0,680.0,0.0,0,2008.0,1
709,709,0.876395835626027,0.9,0.0,0.0,400.0,823.0,0.0,1,-1203.0,1
710,710,0.7127499180373517,0.7,1.0,1.0,253.0,930.0,0.0,0,1817.0,0
711,711,0.42717525543773627,0.4,0.0,0.0,361.0,689.0,0.0,1,-940.0,1
712,712,0.5398403852653405,0.5,0.0,0.0,444.0,793.0,0.0,1,1763.0,1
713,713,0.8316270898262575,0.8,1.0,1.0,371.0,867.0,0.0,0,1762.0,0
714,714,-0.5373837353561421,-0.5,1.0,0.0,473.0,816.0,0.0,0,1711.0,1
715,715,0.45052676569296224,0.5,1.0,1.0,279.0,780.0,0.0,0,1941.0,0
716,716,0.8743484095126409,0.9,1.0,1.0,478.0,721.0,0.0,0,1801.0,0
717,717,-0.6716988466181641,-0.7,1.0,0.0,381.0,501.0,0.0,0,2118.0,1
718,718,0.31074930421715086,0.3,0.0,0.0,312.0,611.0,0.0,1,2077.0,1
719,719,0.8218173515757653,0.8,0.0,0.0,289.0,875.0,0.0,1,-1114.0,1
720,720,0.05983328749672112,0.1,0.0,0.0,446.0,776.0,0.0,1,1778.0,1
721,721,-0.5774984045592506,-0.6,0.0,1.0,321.0,894.0,0.0,1,1785.0,0
722,722,-0.6558693250154957,-0.7,0.0,1.0,468.0,934.0,0.0,1,1598.0,0
723,723,0.29347286940599104,0.3,0.0,0.0,258.0,831.0,0.0,1,1911.0,1
724,724,0.29723722198106317,0.3,0.0,0.0,371.0,732.0,0.0,1,1897.0,1
725,725,-0.1164787368557465,-0.1,0.0,1.0,497.0,664.0,1.0,0,-1161.0,1
726,726,0.24654220371707136,0.2,0.0,0.0,277.0,953.0,0.0,1,1770.0,1
727,727,0.4455853600667524,0.4,1.0,1.0,320.0,855.0,0.0,0,1825.0,0
728,728,0.5833165594563968,0.6,0.0,0.0,364.0,656.0,0.0,1,1980.0,1
729,729,0.7574631975911222,0.8,1.0,1.0,427.0,995.0,0.0,0,1578.0,0
730,730,0.5607210966633976,0.6,0.0,0.0,361.0,792.0,0.0,1,1847.0,1
731,731,0.3224449113073401,0.3,1.0,1.0,259.0,829.0,0.0,0,1912.0,0
732,732,-0.3524182975857725,-0.4,1.0,0.0,392.0,751.0,0.0,0,1857.0,1
733,733,0.7499883502448782,0.7,1.0,1.0,465.0,657.0,0.0,0,1878.0,0
734,734,0.5204639433764223,0.5,1.0,1.0,257.0,824.0,0.0,0,1919.0,0
735,735,0.41734683249050664,0.4,1.0,1.0,255.0,652.0,0.0,0,2093.0,0
736,736,-0.25124741296141817,-0.3,0.0,1.0,385.0,719.0,0.0,1,1896.0,0
737,737,0.09821884652451363,0.1,0.0,0.0,451.0,980.0,0.0,1,1569.0,1
738,738,0.8397259679431254,0.8,0.0,0.0,295.0,882.0,0.0,1,1823.0,1
739,739,0.7187155816638958,0.7,1.0,1.0,294.0,953.0,1.0,1,-997.0,1
740,740,-0.0005306747262953104,-0.0,0.0,1.0,323.0,527.0,0.0,1,2150.0,0
741,741,0.14034858024807806,0.1,1.0,1.0,283.0,872.0,0.0,0,1845.0,0
742,742,0.8513925854430143,0.9,1.0,1.0,391.0,686.0,0.0,0,1923.0,0
743,743,-0.531502733682206,-0.5,0.0,1.0,303.0,989.0,0.0,1,1708.0,0
744,744,-0.8648178934554244,-0.9,1.0,0.0,376.0,648.0,0.0,0,1976.0,1
745,745,0.584809222120635,0.6,0.0,0.0,476.0,598.0,0.0,1,-1024.0,1
746,746,-0.009580125670293205,-0.0,1.0,0.0,448.0,634.0,0.0,0,1918.0,1
747,747,-0.6492672040727272,-0.6,1.0,0.0,377.0,962.0,0.0,0,1661.0,1
748,748,-0.6231833741659594,-0.6,1.0,0.0,443.0,545.0,0.0,0,2012.0,1
749,749,-0.02385261461800703,-0.0,0.0,1.0,380.0,930.0,1.0,0,-1160.0,1
750,750,0.35893127344544673,0.4,0.0,0.0,416.0,786.0,0.0,1,1798.0,1
751,751,0.6312942032448402,0.6,1.0,1.0,413.0,546.0,0.0,0,2041.0,0
752,752,-0.045949191103446974,-0.0,1.0,0.0,341.0,716.0,0.0,0,1943.0,1
753,753,0.46529930352545434,0.5,0.0,0.0,260.0,527.0,0.0,1,-567.0,1
754,754,0.02011970398268703,0.0,0.0,0.0,314.0,886.0,0.0,1,1800.0,1
755,755,-0.7132592926597353,-0.7,0.0,1.0,311.0,517.0,0.0,1,2172.0,0
756,756,0.8309406028153904,0.8,0.0,0.0,292.0,662.0,0.0,1,2046.0,1
757,757,-0.15091806351677173,-0.2,1.0,0.0,374.0,599.0,0.0,0,2027.0,1
758,758,-0.7248055114339018,-0.7,1.0,0.0,412.0,853.0,0.0,0,1735.0,1
759,759,-0.1965663907286812,-0.2,0.0,1.0,295.0,675.0,0.0,1,2030.0,0
760,760,0.3901414970968121,0.4,1.0,1.0,266.0,512.0,0.0,0,2222.0,0
761,761,0.7121578170023567,0.7,0.0,0.0,253.0,521.0,1.0,0,-764.0,0
762,762,0.1768280012315212,0.2,0.0,0.0,431.0,755.0,0.0,1,1814.0,1
763,763,-0.011831306282693799,-0.0,0.0,1.0,342.0,670.0,0.0,1,1988.0,0
764,764,0.32564127357430006,0.3,1.0,1.0,493.0,549.0,0.0,0,1958.0,0
765,765,0.5219741738252756,0.5,0.0,0.0,283.0,788.0,0.0,1,1929.0,1
766,766,0.34790623051725367,0.3,1.0,1.0,351.0,648.0,0.0,0,2001.0,0
767,767,-0.8291835169994659,-0.8,1.0,0.0,252.0,963.0,0.0,0,1785.0,1
768,768,-0.6056546075979337,-0.6,0.0,1.0,392.0,554.0,0.0,1,2054.0,0
769,769,0.23045751979509188,0.2,0.0,0.0,344.0,950.0,0.0,1,1706.0,1
770,770,0.6756508668173619,0.7,0.0,0.0,356.0,756.0,0.0,1,1888.0,1
771,771,0.14796982576053186,0.1,0.0,0.0,273.0,968.0,0.0,1,1759.0,1
772,772,-0.21879506794911407,-0.2,1.0,0.0,322.0,908.0,0.0,0,1770.0,1
773,773,-0.1727532752296247,-0.2,1.0,0.0,396.0,980.0,0.0,0,1624.0,1
774,774,0.5383287518158683,0.5,0.0,0.0,407.0,734.0,0.0,1,1859.0,1
775,775,0.6899035637890739,0.7,0.0,0.0,250.0,785.0,0.0,1,1965.0,1
776,776,0.39464004377178996,0.4,1.0,1.0,458.0,787.0,0.0,0,1755.0,0
777,777,0.2118560033361917,0.2,1.0,1.0,488.0,796.0,0.0,0,1716.0,0
778,778,0.5206970609590992,0.5,1.0,1.0,382.0,997.0,0.0,0,1621.0,0
779,779,0.31474923546250777,0.3,1.0,1.0,309.0,758.0,0.0,0,1933.0,0
780,780,0.34026799452405354,0.3,0.0,0.0,427.0,551.0,0.0,1,2022.0,1
781,781,0.3166527751027738,0.3,0.0,0.0,336.0,625.0,0.0,1,2039.0,1
782,782,0.4140202699913208,0.4,0.0,0.0,388.0,598.0,0.0,1,2014.0,1
783,783,-0.7595314763683781,-0.8,1.0,0.0,352.0,928.0,0.0,0,1720.0,1
784,784,-0.5257163679412415,-0.5,1.0,0.0,294.0,694.0,0.0,0,2012.0,1
785,785,-0.5677234720605903,-0.6,1.0,0.0,497.0,548.0,0.0,0,1955.0,1
786,786,-0.06589225410802768,-0.1,1.0,0.0,455.0,589.0,0.0,0,1956.0,1
787,787,-0.7031278411874975,-0.7,1.0,0.0,323.0,683.0,0.0,0,1994.0,1
788,788,-0.7442162495448594,-0.7,0.0,1.0,251.0,669.0,0.0,1,-910.0,0
789,789,-0.290474737440367,-0.3,0.0,1.0,485.0,624.0,0.0,1,1891.0,0
790,790,-0.8194315018831481,-0.8,0.0,1.0,440.0,709.0,0.0,1,1851.0,0
791,791,0.021031089771551437,0.0,0.0,0.0,448.0,513.0,0.0,1,2039.0,1
792,792,-0.1003455103623585,-0.1,0.0,1.0,450.0,779.0,0.0,1,1771.0,0
793,793,0.7144351363238667,0.7,0.0,0.0,280.0,877.0,0.0,1,1843.0,1
794,794,-0.020717249274387783,-0.0,0.0,1.0,270.0,734.0,0.0,1,1996.0,0
795,795,-0.07036461029432739,-0.1,0.0,1.0,466.0,785.0,0.0,1,1749.0,0
796,796,-0.6825202678774064,-0.7,0.0,1.0,416.0,627.0,0.0,1,1957.0,0
797,797,-0.2043767539938729,-0.2,1.0,0.0,498.0,869.0,0.0,0,1633.0,1
798,798,0.517284721110752,0.5,1.0,1.0,439.0,691.0,0.0,0,1870.0,0
799,799,0.4318903030498843,0.4,0.0,0.0,448.0,907.0,0.0,1,1645.0,1
800,800,0.3789019507542376,0.4,1.0,1.0,293.0,639.0,0.0,0,2068.0,0
801,801,0.5951460957535512,0.6,0.0,0.0,372.0,762.0,0.0,1,-1104.0,1
802,802,-0.3712415041286241,-0.4,0.0,1.0,390.0,677.0,0.0,1,1933.0,0
803,803,-0.7141747127134613,-0.7,1.0,0.0,253.0,750.0,0.0,0,1997.0,1
804,804,0.512249046982402,0.5,0.0,0.0,335.0,636.0,0.0,1,2029.0,1
805,805,0.8694136543425414,0.9,1.0,1.0,297.0,663.0,0.0,0,-750.0,0
806,806,-0.5340031904876834,-0.5,1.0,0.0,403.0,874.0,0.0,0,1723.0,1
807,807,0.6645642836967606,0.7,0.0,0.0,264.0,713.0,0.0,1,2023.0,1
808,808,-0.05783484713019238,-0.1,0.0,1.0,368.0,660.0,0.0,1,1972.0,0
809,809,-0.2875641884084509,-0.3,1.0,0.0,294.0,658.0,0.0,0,2048.0,1
810,810,-0.20747887201579573,-0.2,1.0,0.0,368.0,519.0,0.0,0,2113.0,1
811,811,-0.21171848769254442,-0.2,1.0,0.0,340.0,583.0,1.0,1,-903.0,0
812,812,0.13480988387601867,0.1,0.0,0.0,412.0,556.0,0.0,1,2032.0,1
813,813,-0.2711217919291429,-0.3,1.0,0.0,447.0,730.0,0.0,0,1823.0,1
814,814,0.70426892110284,0.7,0.0,0.0,330.0,953.0,0.0,1,1717.0,1
815,815,-0.38420123969672826,-0.4,0.0,1.0,251.0,718.0,0.0,1,-959.0,0
816,816,0.5244521945888051,0.5,0.0,0.0,489.0,671.0,0.0,1,1840.0,1
817,817,-0.37648603170364847,-0.4,1.0,0.0,394.0,765.0,0.0,0,-1139.0,1
818,818,0.6989564023031082,0.7,1.0,1.0,369.0,814.0,1.0,1,-1073.0,1
819,819,0.7854971854511422,0.8,1.0,1.0,301.0,818.0,0.0,0,1881.0,0
820,820,0.016332762392500033,0.0,0.0,0.0,464.0,976.0,0.0,1,1560.0,1
821,821,0.4600685460275348,0.5,0.0,0.0,485.0,769.0,0.0,1,1746.0,1
822,822,0.6024580826118339,0.6,1.0,1.0,286.0,909.0,0.0,0,1805.0,0
823,823,-0.6824802678654757,-0.7,0.0,1.0,393.0,539.0,1.0,0,-852.0,1
824,824,-0.23051612725292436,-0.2,0.0,1.0,424.0,799.0,0.0,1,1777.0,0
825,825,-0.5101014093567731,-0.5,0.0,1.0,323.0,895.0,0.0,1,1782.0,0
826,826,0.8093805018876535,0.8,0.0,0.0,324.0,968.0,0.0,1,1708.0,1
827,827,-0.8556365978416849,-0.9,1.0,0.0,267.0,547.0,1.0,1,-554.0,0
828,828,-0.839746598475478,-0.8,0.0,1.0,490.0,643.0,0.0,1,1867.0,0
829,829,-0.5303970573556607,-0.5,0.0,1.0,384.0,910.0,0.0,1,1706.0,0
830,830,-0.5644067921029535,-0.6,1.0,0.0,431.0,689.0,1.0,1,-990.0,0
831,831,0.2932946954303862,0.3,1.0,1.0,364.0,808.0,0.0,0,1828.0,0
832,832,-0.5011981202755795,-0.5,1.0,0.0,434.0,510.0,0.0,0,2056.0,1
833,833,-0.08046809531224164,-0.1,1.0,0.0,430.0,536.0,0.0,0,2034.0,1
834,834,0.23015136969790817,0.2,1.0,1.0,356.0,513.0,0.0,0,-819.0,0
835,835,-0.6118641407428242,-0.6,1.0,0.0,291.0,767.0,0.0,0,1942.0,1
836,836,0.8495923790110612,0.8,0.0,0.0,446.0,560.0,0.0,1,1994.0,1
837,837,0.3382773454007616,0.3,0.0,0.0,271.0,595.0,0.0,1,2134.0,1
838,838,-0.46880865171344316,-0.5,0.0,1.0,406.0,900.0,0.0,1,1694.0,0
839,839,0.7423855137850489,0.7,0.0,0.0,422.0,995.0,0.0,1,1583.0,1
840,840,-0.36029849157697125,-0.4,0.0,1.0,280.0,619.0,0.0,1,2101.0,0
841,841,0.8945462403674654,0.9,0.0,0.0,381.0,991.0,0.0,1,1628.0,1
842,842,0.8794339733732296,0.9,1.0,1.0,251.0,536.0,0.0,0,2213.0,0
843,843,-0.47171463006325537,-0.5,0.0,1.0,407.0,750.0,0.0,1,1843.0,0
844,844,-0.7264390542098969,-0.7,1.0,0.0,252.0,859.0,1.0,1,-1041.0,0
845,845,0.036478473200205364,0.0,0.0,0.0,261.0,756.0,0.0,1,1983.0,1
846,846,0.37530620921469515,0.4,1.0,1.0,385.0,916.0,0.0,0,1699.0,0
847,847,-0.0763734192199943,-0.1,1.0,0.0,410.0,991.0,0.0,0,1599.0,1
848,848,0.2587388845190949,0.3,1.0,1.0,259.0,911.0,0.0,0,1830.0,0
849,849,0.3527469582096002,0.4,0.0,0.0,320.0,618.0,0.0,1,2062.0,1
850,850,-0.8898771099458732,-0.9,1.0,0.0,301.0,525.0,0.0,0,2174.0,1
851,851,-0.29733455375836804,-0.3,1.0,0.0,493.0,958.0,0.0,0,1549.0,1
852,852,0.8933166467868309,0.9,1.0,1.0,449.0,841.0,0.0,0,-1260.0,0
853,853,-0.003782042835384636,-0.0,1.0,0.0,383.0,808.0,0.0,0,1809.0,1
854,854,-0.6760186669614362,-0.7,1.0,0.0,437.0,624.0,0.0,0,1939.0,1
855,855,0.7905338879136762,0.8,0.0,0.0,381.0,928.0,0.0,1,1691.0,1
856,856,-0.3800114371862411,-0.4,0.0,1.0,467.0,751.0,0.0,1,1782.0,0
857,857,0.7775187276632495,0.8,0.0,0.0,297.0,900.0,0.0,1,1803.0,1
858,858,-0.14657284992520958,-0.1,1.0,0.0,329.0,979.0,0.0,0,1692.0,1
859,859,0.8716866702694664,0.9,1.0,1.0,412.0,717.0,0.0,0,1871.0,0
860,860,-0.7948663973534361,-0.8,1.0,0.0,302.0,820.0,0.0,0,1878.0,1
861,861,-0.8137425549494747,-0.8,0.0,1.0,363.0,607.0,0.0,1,-920.0,0
862,862,-0.15510996857992787,-0.2,0.0,1.0,268.0,924.0,0.0,1,1808.0,0
863,863,0.661307988223761,0.7,1.0,1.0,414.0,875.0,0.0,0,1711.0,0
864,864,0.8639939139145353,0.9,1.0,1.0,436.0,676.0,0.0,0,1888.0,0
865,865,-0.12203061828504802,-0.1,0.0,1.0,272.0,863.0,0.0,1,1865.0,0
866,866,0.3740327662962294,0.4,1.0,1.0,296.0,556.0,0.0,0,2148.0,0
867,867,-0.4990777570562403,-0.5,1.0,0.0,270.0,945.0,0.0,0,1785.0,1
868,868,0.8656253660717107,0.9,1.0,1.0,466.0,984.0,0.0,0,1550.0,0
869,869,0.15686929281106077,0.2,1.0,1.0,293.0,702.0,0.0,0,2005.0,0
870,870,0.6487934563783583,0.6,1.0,1.0,415.0,669.0,0.0,0,1916.0,0
871,871,-0.11609736125622594,-0.1,0.0,1.0,265.0,628.0,0.0,1,2107.0,0
872,872,0.5726755229549988,0.6,1.0,1.0,415.0,544.0,0.0,0,-889.0,0
873,873,-0.16683949356332983,-0.2,0.0,1.0,327.0,909.0,0.0,1,1764.0,0
874,874,-0.23615941597176937,-0.2,1.0,0.0,296.0,510.0,0.0,0,2194.0,1
875,875,-0.3837909553669786,-0.4,1.0,0.0,472.0,980.0,0.0,0,1548.0,1
876,876,0.43795650074714143,0.4,1.0,1.0,484.0,617.0,0.0,0,1899.0,0
877,877,0.49448063977896883,0.5,0.0,0.0,396.0,743.0,0.0,1,1861.0,1
878,878,-0.24019700361427632,-0.2,1.0,0.0,443.0,572.0,0.0,0,1985.0,1
879,879,0.18412241156464104,0.2,1.0,1.0,327.0,583.0,1.0,1,-470.0,1
880,880,-0.40388452724463203,-0.4,1.0,0.0,290.0,703.0,0.0,0,2007.0,1
881,881,0.027458062060408794,0.0,1.0,1.0,414.0,857.0,0.0,0,1729.0,0
882,882,-0.6391939676109162,-0.6,0.0,1.0,471.0,880.0,0.0,1,1649.0,0
883,883,0.8527925119400322,0.9,1.0,1.0,321.0,797.0,0.0,0,1882.0,0
884,884,0.7887443968496798,0.8,0.0,0.0,407.0,516.0,0.0,1,2077.0,1
885,885,0.049907932578605596,0.0,1.0,1.0,473.0,672.0,0.0,0,1855.0,0
886,886,0.044001787271986115,0.0,0.0,0.0,428.0,501.0,0.0,1,2071.0,1
887,887,0.30253314287571886,0.3,1.0,1.0,419.0,712.0,0.0,0,1869.0,0
888,888,0.6013539520497159,0.6,0.0,0.0,387.0,953.0,0.0,1,1660.0,1
889,889,-0.6124989763056752,-0.6,0.0,1.0,297.0,707.0,1.0,0,-834.0,1
890,890,0.8264926682629078,0.8,0.0,0.0,295.0,519.0,0.0,1,2186.0,1
891,891,0.12797084448215446,0.1,1.0,1.0,498.0,915.0,0.0,0,1587.0,0
892,892,0.04109397138762294,0.0,1.0,1.0,334.0,991.0,0.0,0,1675.0,0
893,893,0.8314782340260366,0.8,0.0,0.0,468.0,801.0,0.0,1,1731.0,1
894,894,-0.8492169449186306,-0.8,1.0,0.0,270.0,564.0,0.0,0,2166.0,1
895,895,-0.13319144196656685,-0.1,0.0,1.0,316.0,540.0,1.0,0,-786.0,1
896,896,-0.09230198421063274,-0.1,0.0,1.0,302.0,505.0,0.0,1,2193.0,0
897,897,-0.8866811485112208,-0.9,1.0,0.0,420.0,774.0,0.0,0,1806.0,1
898,898,-0.44228115856600614,-0.4,1.0,0.0,362.0,549.0,1.0,1,-861.0,0
899,899,0.791855644904104,0.8,1.0,1.0,305.0,544.0,0.0,0,2151.0,0
900,900,0.152965600647203,0.2,1.0,1.0,426.0,786.0,0.0,0,1788.0,0
901,901,0.5432600643389044,0.5,0.0,0.0,496.0,673.0,1.0,0,-789.0,0
902,902,-0.5123637096790125,-0.5,1.0,0.0,311.0,587.0,0.0,0,2102.0,1
903,903,0.028333541755202862,0.0,0.0,0.0,304.0,845.0,0.0,1,1851.0,1
904,904,0.2880274097823742,0.3,0.0,0.0,498.0,916.0,0.0,1,1586.0,1
905,905,0.06573747092719784,0.1,1.0,1.0,396.0,905.0,0.0,0,1699.0,0
906,906,0.8962411633075892,0.9,1.0,1.0,300.0,600.0,0.0,0,2100.0,0
907,907,0.09160390342365188,0.1,0.0,0.0,360.0,900.0,0.0,1,1740.0,1
908,908,-0.3754386561561468,-0.4,1.0,0.0,362.0,829.0,0.0,0,1809.0,1
909,909,0.04410788598161364,0.0,0.0,0.0,338.0,790.0,0.0,1,1872.0,1
910,910,-0.5609656434517407,-0.6,1.0,0.0,498.0,512.0,0.0,0,1990.0,1
911,911,0.6068084984308969,0.6,0.0,0.0,460.0,603.0,0.0,1,1937.0,1
912,912,-0.6548082190351432,-0.7,1.0,0.0,291.0,702.0,0.0,0,2007.0,1
913,913,-0.056579562462815036,-0.1,1.0,0.0,424.0,923.0,0.0,0,1653.0,1
914,914,0.033372206229161594,0.0,1.0,1.0,480.0,894.0,0.0,0,1626.0,0
915,915,0.3165948468436147,0.3,1.0,1.0,285.0,730.0,0.0,0,1985.0,0
916,916,0.2720375503488278,0.3,0.0,0.0,252.0,766.0,0.0,1,1982.0,1
917,917,0.8504802029293536,0.9,0.0,0.0,494.0,808.0,0.0,1,1698.0,1
918,918,0.3636115180379248,0.4,0.0,0.0,488.0,986.0,0.0,1,1526.0,1
919,919,-0.20791192849201623,-0.2,1.0,0.0,348.0,998.0,0.0,0,1654.0,1
920,920,0.12717189172607835,0.1,1.0,1.0,322.0,568.0,0.0,0,2110.0,0
921,921,0.6661323003792156,0.7,0.0,0.0,455.0,902.0,0.0,1,1643.0,1
922,922,-0.09762848375101318,-0.1,1.0,0.0,410.0,776.0,0.0,0,1814.0,1
923,923,-0.09036148968043844,-0.1,0.0,1.0,437.0,501.0,0.0,1,2062.0,0
924,924,-0.3906464621608621,-0.4,1.0,0.0,264.0,995.0,0.0,0,1741.0,1
925,925,0.14934794658239803,0.1,1.0,1.0,343.0,619.0,0.0,0,2038.0,0
926,926,-0.23180136440219157,-0.2,1.0,0.0,291.0,610.0,0.0,0,2099.0,1
927,927,0.002018638709283871,0.0,0.0,0.0,436.0,815.0,0.0,1,1749.0,1
928,928,-0.21049774073995153,-0.2,1.0,0.0,321.0,675.0,0.0,0,2004.0,1
929,929,-0.4427153448603118,-0.4,0.0,1.0,455.0,587.0,0.0,1,1958.0,0
930,930,0.7217419233797112,0.7,0.0,0.0,450.0,878.0,1.0,0,-1288.0,0
931,931,0.3351791613122467,0.3,1.0,1.0,423.0,666.0,0.0,0,1911.0,0
932,932,0.4866265842681675,0.5,0.0,0.0,472.0,955.0,0.0,1,1573.0,1
933,933,-0.6537710579925178,-0.7,1.0,0.0,387.0,524.0,0.0,0,2089.0,1
934,934,0.07191513308052055,0.1,1.0,1.0,341.0,836.0,0.0,0,1823.0,0
935,935,-0.4033349908835467,-0.4,0.0,1.0,477.0,875.0,0.0,1,1648.0,0
936,936,0.7553233026807656,0.8,1.0,1.0,338.0,572.0,0.0,0,2090.0,0
937,937,-0.2120975562508418,-0.2,1.0,0.0,478.0,787.0,0.0,0,1735.0,1
938,938,-0.45608571191548547,-0.5,0.0,1.0,446.0,661.0,0.0,1,1893.0,0
939,939,0.4209813083385173,0.4,0.0,0.0,299.0,712.0,0.0,1,1989.0,1
940,940,0.588475714876696,0.6,1.0,1.0,426.0,988.0,0.0,0,1586.0,0
941,941,-0.41669295627427877,-0.4,1.0,0.0,473.0,513.0,0.0,0,2014.0,1
942,942,0.491741236978808,0.5,0.0,0.0,404.0,539.0,0.0,1,2057.0,1
943,943,0.1395927022387139,0.1,1.0,1.0,424.0,670.0,0.0,0,1906.0,0
944,944,-0.737451133745767,-0.7,0.0,1.0,493.0,505.0,0.0,1,2002.0,0
945,945,-0.03573591306779811,-0.0,0.0,1.0,429.0,664.0,0.0,1,1907.0,0
946,946,-0.5320371922613325,-0.5,0.0,1.0,400.0,709.0,0.0,1,-1089.0,0
947,947,-0.5955698315974123,-0.6,0.0,1.0,316.0,923.0,0.0,1,1761.0,0
948,948,0.12229182599285149,0.1,1.0,1.0,476.0,961.0,0.0,0,1563.0,0
949,949,0.3492746520163058,0.3,0.0,0.0,396.0,999.0,1.0,0,-1345.0,0
950,950,0.4017389679754403,0.4,1.0,1.0,435.0,551.0,0.0,0,2014.0,0
951,951,-0.44929141372134856,-0.4,0.0,1.0,407.0,779.0,1.0,0,-996.0,1
952,952,0.4114470587009892,0.4,0.0,0.0,434.0,613.0,0.0,1,1953.0,1
953,953,-0.7606005205100741,-0.8,0.0,1.0,255.0,778.0,0.0,1,1967.0,0
954,954,0.7731317406018997,0.8,0.0,0.0,367.0,909.0,0.0,1,-1226.0,1
955,955,-0.8088155772964802,-0.8,0.0,1.0,369.0,858.0,0.0,1,1773.0,0
956,956,-0.7169162638999813,-0.7,0.0,1.0,406.0,991.0,0.0,1,1603.0,0
957,957,-0.26199653906885867,-0.3,1.0,0.0,420.0,590.0,0.0,0,1990.0,1
958,958,-0.35234047405429614,-0.4,0.0,1.0,400.0,531.0,0.0,1,2069.0,0
959,959,0.13510423094283064,0.1,0.0,0.0,319.0,637.0,0.0,1,2044.0,1
960,960,0.6126960194163739,0.6,1.0,1.0,339.0,691.0,0.0,0,1970.0,0
961,961,-0.3808047810231121,-0.4,1.0,0.0,281.0,974.0,1.0,1,-965.0,0
962,962,0.19477128902213814,0.2,1.0,1.0,298.0,620.0,0.0,0,2082.0,0
963,963,0.37472815356591604,0.4,1.0,1.0,491.0,658.0,0.0,0,1851.0,0
964,964,-0.7945340040166935,-0.8,0.0,1.0,256.0,915.0,0.0,1,1829.0,0
965,965,0.7281010020532389,0.7,1.0,1.0,465.0,668.0,0.0,0,1867.0,0
966,966,0.1297786220554139,0.1,1.0,1.0,477.0,889.0,0.0,0,1634.0,0
967,967,0.2706267721581578,0.3,1.0,1.0,301.0,542.0,0.0,0,2157.0,0
968,968,-0.12016964707533995,-0.1,1.0,0.0,305.0,969.0,0.0,0,1726.0,1
969,969,0.11994336839426178,0.1,1.0,1.0,293.0,851.0,0.0,0,1856.0,0
970,970,-0.2389060690206124,-0.2,0.0,1.0,321.0,839.0,0.0,1,1840.0,0
971,971,0.18464677904826965,0.2,0.0,0.0,441.0,636.0,0.0,1,1923.0,1
972,972,-0.7902229659169597,-0.8,0.0,1.0,389.0,807.0,0.0,1,1804.0,0
973,973,-0.35735061857632067,-0.4,1.0,0.0,415.0,676.0,1.0,1,-831.0,0
974,974,0.6203320492530554,0.6,1.0,1.0,296.0,800.0,0.0,0,1904.0,0
975,975,-0.6864412946964786,-0.7,0.0,1.0,329.0,887.0,0.0,1,1784.0,0
976,976,-0.10909157161112193,-0.1,0.0,1.0,417.0,661.0,0.0,1,1922.0,0
977,977,0.7086746184239577,0.7,0.0,0.0,347.0,684.0,0.0,1,1969.0,1
978,978,-0.8905917026693678,-0.9,0.0,1.0,472.0,996.0,1.0,0,-1468.0,1
979,979,-0.3207020921199234,-0.3,0.0,1.0,462.0,550.0,0.0,1,1988.0,0
980,980,-0.4058703404850882,-0.4,1.0,0.0,388.0,982.0,0.0,0,-1300.0,1
981,981,0.5497442956684572,0.5,0.0,0.0,417.0,919.0,0.0,1,1664.0,1
982,982,0.7276923093984536,0.7,1.0,1.0,421.0,629.0,0.0,0,1950.0,0
983,983,0.5961774224624142,0.6,1.0,1.0,322.0,975.0,0.0,0,1703.0,0
984,984,0.06061281995438339,0.1,1.0,1.0,471.0,915.0,1.0,1,-1296.0,1
985,985,0.7576060236202738,0.8,0.0,0.0,487.0,723.0,0.0,1,1790.0,1
986,986,-0.30815969046446867,-0.3,1.0,0.0,393.0,925.0,0.0,0,1682.0,1
987,987,-0.6643836143599693,-0.7,0.0,1.0,301.0,747.0,0.0,1,-1008.0,0
988,988,-0.77919191350356,-0.8,0.0,1.0,252.0,869.0,0.0,1,1879.0,0
989,989,0.6559970366802562,0.7,1.0,1.0,294.0,529.0,0.0,0,2177.0,0
990,990,0.7829390419800014,0.8,0.0,0.0,346.0,879.0,0.0,1,1775.0,1
991,991,0.6906781653902542,0.7,0.0,0.0,299.0,619.0,0.0,1,2082.0,1
992,992,0.8969424147152986,0.9,1.0,1.0,306.0,788.0,0.0,0,1906.0,0
993,993,0.6798494512277898,0.7,0.0,0.0,278.0,542.0,0.0,1,2180.0,1
994,994,0.30528840978727356,0.3,1.0,1.0,260.0,889.0,0.0,0,1851.0,0
995,995,0.7787628708896731,0.8,1.0,1.0,495.0,937.0,0.0,0,1568.0,0
996,996,0.32933531872463784,0.3,1.0,1.0,493.0,776.0,0.0,0,1731.0,0
997,997,-0.1900589898159889,-0.2,1.0,0.0,259.0,709.0,0.0,0,2032.0,1
998,998,0.5438511325954881,0.5,1.0,1.0,275.0,516.0,0.0,0,2209.0,0
999,999,0.5499367920578501,0.5,0.0,0.0,398.0,505.0,0.0,1,2097.0,1
1000,1000,0.571370750183893,0.6,0.0,0.0,281.0,529.0,0.0,1,2190.0,1
1001,1001,0.5509188415945506,0.6,1.0,1.0,356.0,545.0,0.0,0,2099.0,0
1002,1002,-0.5813737947886455,-0.6,1.0,0.0,415.0,628.0,0.0,0,1957.0,1
1003,1003,0.5589602272642932,0.6,1.0,1.0,399.0,812.0,0.0,0,1789.0,0
1004,1004,-0.8241838861188339,-0.8,1.0,0.0,284.0,669.0,0.0,0,-903.0,1
1005,1005,-0.898590715721331,-0.9,0.0,1.0,390.0,970.0,0.0,1,1640.0,0
1006,1006,0.6489667456357219,0.6,0.0,0.0,471.0,851.0,0.0,1,1678.0,1
1007,1007,0.7486526609623431,0.7,1.0,1.0,427.0,830.0,1.0,1,-1247.0,1
1008,1008,-0.6727741970916077,-0.7,1.0,0.0,306.0,531.0,0.0,0,2163.0,1
1009,1009,-0.6385400313372626,-0.6,1.0,0.0,415.0,750.0,1.0,1,-905.0,0
1010,1010,0.7798920927752565,0.8,0.0,0.0,280.0,913.0,1.0,0,-1193.0,0
1011,1011,0.7838630483036578,0.8,0.0,0.0,456.0,803.0,0.0,1,1741.0,1
1012,1012,-0.47754919566836634,-0.5,0.0,1.0,272.0,700.0,0.0,1,2028.0,0
1013,1013,-0.6164762579918612,-0.6,1.0,0.0,388.0,622.0,0.0,0,1990.0,1
1014,1014,0.8668571646574411,0.9,1.0,1.0,435.0,594.0,0.0,0,1971.0,0
1015,1015,-0.05931713436867825,-0.1,0.0,1.0,357.0,889.0,0.0,1,1754.0,0
1016,1016,0.14726605102204482,0.1,1.0,1.0,439.0,902.0,0.0,0,1659.0,0
1017,1017,0.016538161345484803,0.0,0.0,0.0,445.0,532.0,0.0,1,2023.0,1
1018,1018,-0.47427673222759714,-0.5,0.0,1.0,323.0,806.0,0.0,1,-909.0,0
1019,1019,0.28453875102709636,0.3,0.0,0.0,358.0,857.0,0.0,1,1785.0,1
1020,1020,-0.8344381785250993,-0.8,0.0,1.0,313.0,510.0,0.0,1,2177.0,0
1021,1021,0.314746572143609,0.3,0.0,0.0,430.0,525.0,0.0,1,2045.0,1
1022,1022,-0.6095004865578888,-0.6,1.0,0.0,409.0,912.0,0.0,0,1679.0,1
1023,1023,-0.8130920611029651,-0.8,0.0,1.0,410.0,742.0,0.0,1,1848.0,0
1024,1024,0.6542137048021189,0.7,1.0,1.0,496.0,757.0,0.0,0,1747.0,0
1025,1025,0.700521634094258,0.7,0.0,0.0,499.0,841.0,0.0,1,1660.0,1
1026,1026,-0.7105227068149111,-0.7,0.0,1.0,274.0,788.0,0.0,1,-962.0,0
1027,1027,-0.5027826926809429,-0.5,0.0,1.0,369.0,536.0,0.0,1,-775.0,0
1028,1028,-0.8400122190023204,-0.8,0.0,1.0,315.0,829.0,0.0,1,1856.0,0
1029,1029,-0.013255462093165415,-0.0,0.0,1.0,273.0,692.0,0.0,1,2035.0,0
1030,1030,0.4862275149362244,0.5,0.0,0.0,422.0,640.0,0.0,1,1938.0,1
1031,1031,-0.6432767005662694,-0.6,1.0,0.0,388.0,789.0,0.0,0,1823.0,1
1032,1032,-0.24180482170923867,-0.2,1.0,0.0,261.0,698.0,0.0,0,2041.0,1
1033,1033,-0.6019935004460537,-0.6,0.0,1.0,319.0,506.0,0.0,1,2175.0,0
1034,1034,-0.18501692667447,-0.2,1.0,0.0,344.0,714.0,0.0,0,1942.0,1
1035,1035,-0.2615141682018697,-0.3,1.0,0.0,364.0,822.0,0.0,0,1814.0,1
1036,1036,0.0014175723496497872,0.0,0.0,0.0,436.0,645.0,0.0,1,1919.0,1
1037,1037,-0.70725868820647,-0.7,1.0,0.0,474.0,654.0,0.0,0,1872.0,1
1038,1038,0.2825211962152233,0.3,0.0,0.0,415.0,932.0,0.0,1,1653.0,1
1039,1039,0.7154672353484027,0.7,1.0,1.0,272.0,653.0,0.0,0,2075.0,0
1040,1040,-0.7895528014966231,-0.8,0.0,1.0,370.0,587.0,0.0,1,2043.0,0
1041,1041,-0.18170570689084842,-0.2,1.0,0.0,450.0,842.0,0.0,0,1708.0,1
1042,1042,-0.10315661509844032,-0.1,1.0,0.0,498.0,968.0,0.0,0,1534.0,1
1043,1043,-0.26760774427136413,-0.3,1.0,0.0,383.0,922.0,0.0,0,1695.0,1
1044,1044,-0.10109747581542128,-0.1,0.0,1.0,339.0,848.0,0.0,1,1813.0,0
1045,1045,-0.09977042803654979,-0.1,0.0,1.0,319.0,732.0,0.0,1,1949.0,0
1046,1046,0.721504039572538,0.7,0.0,0.0,419.0,770.0,0.0,1,1811.0,1
1047,1047,0.4170868369987494,0.4,0.0,0.0,263.0,601.0,0.0,1,2136.0,1
1048,1048,0.10132343489579954,0.1,0.0,0.0,320.0,840.0,0.0,1,1840.0,1
1049,1049,-0.6381500904380517,-0.6,1.0,0.0,442.0,915.0,0.0,0,1643.0,1
1050,1050,0.34625521884683275,0.3,0.0,0.0,428.0,964.0,0.0,1,1608.0,1
1051,1051,-0.19447727142612548,-0.2,1.0,0.0,370.0,900.0,0.0,0,1730.0,1
1052,1052,0.7102634785811427,0.7,0.0,0.0,302.0,609.0,0.0,1,2089.0,1
1053,1053,0.4652283007553767,0.5,1.0,1.0,403.0,690.0,0.0,0,1907.0,0
1054,1054,-0.8258872798330946,-0.8,0.0,1.0,293.0,597.0,0.0,1,2110.0,0
1055,1055,-0.29058026671062553,-0.3,0.0,1.0,357.0,720.0,0.0,1,1923.0,0
1056,1056,-0.28245828174497467,-0.3,1.0,0.0,299.0,655.0,1.0,1,-834.0,0
1057,1057,-0.7914275554379469,-0.8,1.0,0.0,334.0,680.0,0.0,0,1986.0,1
1058,1058,0.6867837206556472,0.7,0.0,0.0,347.0,738.0,0.0,1,1915.0,1
1059,1059,-0.4237130551039868,-0.4,1.0,0.0,306.0,706.0,0.0,0,1988.0,1
1060,1060,0.5420294783442233,0.5,1.0,1.0,409.0,847.0,0.0,0,1744.0,0
1061,1061,0.7673689456856275,0.8,0.0,0.0,275.0,974.0,1.0,0,-1099.0,0
1062,1062,0.23862758301566134,0.2,0.0,0.0,434.0,647.0,0.0,1,1919.0,1
1063,1063,-0.34783331461520606,-0.3,0.0,1.0,422.0,595.0,0.0,1,-907.0,0
1064,1064,-0.6726714561879661,-0.7,1.0,0.0,424.0,524.0,0.0,0,2052.0,1
1065,1065,-0.4824253733027923,-0.5,1.0,0.0,470.0,592.0,0.0,0,1938.0,1
1066,1066,-0.5049489177514772,-0.5,0.0,1.0,484.0,963.0,0.0,1,1553.0,0
1067,1067,-0.6245112651574074,-0.6,0.0,1.0,311.0,703.0,0.0,1,1986.0,0
1068,1068,0.21772337755559323,0.2,0.0,0.0,370.0,828.0,0.0,1,1802.0,1
1069,1069,0.6776217243672583,0.7,0.0,0.0,324.0,592.0,0.0,1,2084.0,1
1070,1070,0.11371193667772206,0.1,0.0,0.0,428.0,749.0,0.0,1,1823.0,1
1071,1071,0.8268717619077043,0.8,0.0,0.0,469.0,529.0,0.0,1,2002.0,1
1072,1072,0.2218038737473832,0.2,1.0,1.0,438.0,850.0,0.0,0,1712.0,0
1073,1073,0.7706788995455222,0.8,0.0,0.0,381.0,502.0,0.0,1,2117.0,1
1074,1074,-0.37050784801031933,-0.4,0.0,1.0,253.0,882.0,0.0,1,1865.0,0
1075,1075,0.7207714352916249,0.7,0.0,0.0,344.0,953.0,1.0,0,-1267.0,0
1076,1076,-0.867974806168699,-0.9,0.0,1.0,390.0,710.0,0.0,1,1900.0,0
1077,1077,-0.4010621432963002,-0.4,0.0,1.0,263.0,922.0,0.0,1,1815.0,0
1078,1078,0.05511261902314346,0.1,0.0,0.0,469.0,957.0,0.0,1,1574.0,1
1079,1079,0.3668614257474613,0.4,0.0,0.0,338.0,653.0,0.0,1,2009.0,1
1080,1080,-0.8442615794725669,-0.8,1.0,0.0,268.0,577.0,0.0,0,2155.0,1
1081,1081,0.8134817631830943,0.8,0.0,0.0,435.0,991.0,0.0,1,1574.0,1
1082,1082,0.4860927431413772,0.5,0.0,0.0,424.0,641.0,0.0,1,1935.0,1
1083,1083,0.11385644471040124,0.1,1.0,1.0,256.0,738.0,0.0,0,2006.0,0
1084,1084,0.4920506539208934,0.5,0.0,0.0,361.0,833.0,0.0,1,1806.0,1
1085,1085,0.04353993755271435,0.0,0.0,0.0,390.0,636.0,0.0,1,1974.0,1
1086,1086,-0.5344882556275988,-0.5,1.0,0.0,388.0,661.0,0.0,0,1951.0,1
1087,1087,-0.719368481595646,-0.7,0.0,1.0,349.0,617.0,0.0,1,2034.0,0
1088,1088,0.776006228532491,0.8,1.0,1.0,326.0,873.0,0.0,0,1801.0,0
1089,1089,-0.539760146919728,-0.5,0.0,1.0,497.0,622.0,0.0,1,1881.0,0
1090,1090,0.19875112186084454,0.2,0.0,0.0,325.0,682.0,0.0,1,1993.0,1
1091,1091,0.5787322573880785,0.6,0.0,0.0,473.0,845.0,0.0,1,1682.0,1
1092,1092,0.3668504224897803,0.4,1.0,1.0,306.0,672.0,0.0,0,2022.0,0
1093,1093,0.2812982741658464,0.3,0.0,0.0,280.0,787.0,0.0,1,1933.0,1
1094,1094,-0.1438109710372173,-0.1,0.0,1.0,346.0,985.0,0.0,1,1669.0,0
1095,1095,-0.6293437815042232,-0.6,1.0,0.0,430.0,633.0,0.0,0,1937.0,1
1096,1096,-0.5955446605195154,-0.6,0.0,1.0,415.0,535.0,0.0,1,2050.0,0
1097,1097,-0.31466494874291806,-0.3,1.0,0.0,427.0,765.0,0.0,0,1808.0,1
1098,1098,0.21202653908302815,0.2,1.0,1.0,300.0,739.0,0.0,0,1961.0,0
1099,1099,-0.41329857551045807,-0.4,0.0,1.0,350.0,983.0,0.0,1,1667.0,0
1100,1100,0.6831123061178398,0.7,0.0,0.0,262.0,764.0,0.0,1,1974.0,1
1101,1101,0.7575750187585978,0.8,0.0,0.0,349.0,945.0,0.0,1,1706.0,1
1102,1102,-0.551224032541549,-0.6,1.0,0.0,278.0,871.0,0.0,0,1851.0,1
1103,1103,-0.37526256978545436,-0.4,0.0,1.0,261.0,518.0,0.0,1,2221.0,0
1104,1104,0.32590590927793295,0.3,0.0,0.0,296.0,909.0,0.0,1,1795.0,1
1105,1105,-0.8367758556041988,-0.8,0.0,1.0,372.0,614.0,0.0,1,2014.0,0
1106,1106,-0.3081557106226216,-0.3,1.0,0.0,260.0,742.0,0.0,0,1998.0,1
1107,1107,0.017861814936496634,0.0,1.0,1.0,341.0,892.0,0.0,0,1767.0,0
1108,1108,0.1946441761415868,0.2,0.0,0.0,482.0,935.0,0.0,1,1583.0,1
1109,1109,-0.3935512863303753,-0.4,0.0,1.0,451.0,738.0,0.0,1,1811.0,0
1110,1110,-0.5740926706583229,-0.6,1.0,0.0,276.0,507.0,0.0,0,-663.0,1
1111,1111,-0.15196270797584466,-0.2,1.0,0.0,364.0,866.0,0.0,0,-1200.0,1
1112,1112,-0.1686781238646241,-0.2,1.0,0.0,474.0,610.0,0.0,0,1916.0,1
1113,1113,0.2291908563360655,0.2,0.0,0.0,280.0,859.0,0.0,1,1861.0,1
1114,1114,-0.3659171931892793,-0.4,0.0,1.0,284.0,697.0,0.0,1,2019.0,0
1115,1115,0.8419126006371142,0.8,0.0,0.0,304.0,577.0,0.0,1,2119.0,1
1116,1116,-0.3642932841811005,-0.4,1.0,0.0,326.0,530.0,0.0,0,2144.0,1
1117,1117,-0.8608660100989182,-0.9,0.0,1.0,466.0,547.0,0.0,1,1987.0,0
1118,1118,-0.4971263258692092,-0.5,0.0,1.0,445.0,955.0,0.0,1,1600.0,0
1119,1119,-0.1476094519945116,-0.1,1.0,0.0,389.0,771.0,0.0,0,1840.0,1
1120,1120,0.26577533866691494,0.3,0.0,0.0,373.0,894.0,0.0,1,1733.0,1
1121,1121,-0.6843711765328919,-0.7,1.0,0.0,297.0,866.0,0.0,0,1837.0,1
1122,1122,-0.8642208966732023,-0.9,0.0,1.0,335.0,912.0,0.0,1,1753.0,0
1123,1123,-0.48735786930934405,-0.5,1.0,0.0,401.0,631.0,0.0,0,1968.0,1
1124,1124,0.31705829112265016,0.3,0.0,0.0,377.0,945.0,0.0,1,1678.0,1
1125,1125,-0.5004848097008922,-0.5,1.0,0.0,467.0,754.0,0.0,0,1779.0,1
1126,1126,-0.10546067662164837,-0.1,0.0,1.0,260.0,698.0,0.0,1,2042.0,0
1127,1127,-0.2776512630032639,-0.3,1.0,0.0,256.0,817.0,0.0,0,1927.0,1
1128,1128,-0.8422403230962645,-0.8,1.0,0.0,466.0,876.0,0.0,0,1658.0,1
1129,1129,-0.037425767835145285,-0.0,0.0,1.0,306.0,552.0,0.0,1,2142.0,0
1130,1130,-0.07688269877375398,-0.1,0.0,1.0,342.0,870.0,0.0,1,1788.0,0
1131,1131,0.7425727769193423,0.7,1.0,1.0,270.0,894.0,0.0,0,1836.0,0
1132,1132,-0.7724277947499725,-0.8,1.0,0.0,495.0,788.0,0.0,0,1717.0,1
1133,1133,0.12342761186598505,0.1,0.0,0.0,480.0,955.0,0.0,1,1565.0,1
1134,1134,-0.8827008554612099,-0.9,1.0,0.0,456.0,987.0,0.0,0,1557.0,1
1135,1135,0.42296798996779594,0.4,1.0,1.0,439.0,940.0,0.0,0,1621.0,0
1136,1136,0.4624218654466564,0.5,1.0,1.0,395.0,508.0,0.0,0,2097.0,0
1137,1137,-0.2907321940550722,-0.3,0.0,1.0,291.0,708.0,0.0,1,2001.0,0
1138,1138,0.3327145727500792,0.3,0.0,0.0,485.0,532.0,1.0,0,-997.0,0
1139,1139,0.6127922332068106,0.6,0.0,0.0,348.0,975.0,0.0,1,1677.0,1
1140,1140,-0.11786180660306433,-0.1,1.0,0.0,292.0,764.0,0.0,0,1944.0,1
1141,1141,-0.6723545490896528,-0.7,1.0,0.0,494.0,875.0,0.0,0,1631.0,1
1142,1142,-0.5565402155692856,-0.6,0.0,1.0,329.0,653.0,0.0,1,2018.0,0
1143,1143,-0.15364924830694904,-0.2,1.0,0.0,310.0,774.0,0.0,0,1916.0,1
1144,1144,0.4473684422455041,0.4,0.0,0.0,294.0,809.0,0.0,1,1897.0,1
1145,1145,-0.6523178043250608,-0.7,0.0,1.0,449.0,612.0,0.0,1,1939.0,0
1146,1146,-0.45259482805602735,-0.5,0.0,1.0,374.0,676.0,0.0,1,1950.0,0
1147,1147,0.4064111897189565,0.4,0.0,0.0,449.0,709.0,0.0,1,1842.0,1
1148,1148,-0.16671313300772783,-0.2,0.0,1.0,269.0,558.0,0.0,1,-817.0,0
1149,1149,0.23191054301337088,0.2,1.0,1.0,428.0,535.0,0.0,0,2037.0,0
1150,1150,-0.512716416316078,-0.5,1.0,0.0,347.0,689.0,0.0,0,1964.0,1
1151,1151,0.5357626385025019,0.5,0.0,0.0,438.0,577.0,0.0,1,1985.0,1
1152,1152,0.40091439631851544,0.4,0.0,0.0,430.0,581.0,0.0,1,1989.0,1
1153,1153,0.46483369531996155,0.5,0.0,0.0,256.0,990.0,0.0,1,1754.0,1
1154,1154,0.49917295577585896,0.5,0.0,0.0,471.0,903.0,0.0,1,1626.0,1
1155,1155,-0.2973020774227758,-0.3,1.0,0.0,391.0,672.0,0.0,0,1937.0,1
1156,1156,-0.6010506617028246,-0.6,1.0,0.0,495.0,555.0,0.0,0,1950.0,1
1157,1157,0.01412695040190104,0.0,0.0,0.0,411.0,772.0,0.0,1,1817.0,1
1158,1158,-0.039687556088806364,-0.0,1.0,0.0,371.0,858.0,0.0,0,1771.0,1
1159,1159,0.43584541653098274,0.4,1.0,1.0,434.0,508.0,0.0,0,2058.0,0
1160,1160,-0.8070049985901445,-0.8,0.0,1.0,447.0,967.0,0.0,1,1586.0,0
1161,1161,-0.4283901996319535,-0.4,1.0,0.0,371.0,812.0,0.0,0,1817.0,1
1162,1162,-0.02598201881184181,-0.0,1.0,0.0,489.0,537.0,0.0,0,1974.0,1
1163,1163,0.8863359663827125,0.9,1.0,1.0,465.0,674.0,0.0,0,1861.0,0
1164,1164,0.07687388855385946,0.1,1.0,1.0,394.0,991.0,0.0,0,1615.0,0
1165,1165,-0.8974132292137023,-0.9,1.0,0.0,278.0,576.0,0.0,0,2146.0,1
1166,1166,0.42050096413997495,0.4,0.0,0.0,324.0,856.0,0.0,1,1820.0,1
1167,1167,-0.7096461903172553,-0.7,1.0,0.0,440.0,610.0,0.0,0,1950.0,1
1168,1168,-0.8478698412755649,-0.8,1.0,0.0,288.0,673.0,0.0,0,2039.0,1
1169,1169,0.19942965334413054,0.2,1.0,1.0,371.0,767.0,0.0,0,1862.0,0
1170,1170,0.12015804537469055,0.1,0.0,0.0,490.0,791.0,0.0,1,1719.0,1
1171,1171,0.43500977519369843,0.4,0.0,0.0,436.0,834.0,0.0,1,1730.0,1
1172,1172,-0.6155940477596691,-0.6,1.0,0.0,330.0,851.0,0.0,0,1819.0,1
1173,1173,-0.2933072101869333,-0.3,1.0,0.0,366.0,557.0,0.0,0,2077.0,1
1174,1174,0.6701318854258772,0.7,0.0,0.0,406.0,651.0,0.0,1,1943.0,1
1175,1175,0.2687672838328473,0.3,0.0,0.0,389.0,937.0,0.0,1,1674.0,1
1176,1176,-0.1889222908955831,-0.2,1.0,0.0,473.0,692.0,0.0,0,1835.0,1
1177,1177,0.6370710924179802,0.6,1.0,1.0,443.0,676.0,0.0,0,1881.0,0
1178,1178,0.2486106470585635,0.2,0.0,0.0,344.0,861.0,0.0,1,1795.0,1
1179,1179,-0.2748684900721412,-0.3,1.0,0.0,303.0,655.0,0.0,0,2042.0,1
1180,1180,0.4222691266712396,0.4,0.0,0.0,358.0,938.0,0.0,1,1704.0,1
1181,1181,-0.19373023423464963,-0.2,0.0,1.0,332.0,856.0,0.0,1,-1178.0,0
1182,1182,0.07458827917629729,0.1,1.0,1.0,372.0,644.0,0.0,0,1984.0,0
1183,1183,0.7945696886306118,0.8,0.0,0.0,489.0,751.0,0.0,1,1760.0,1
1184,1184,0.0708973287516691,0.1,0.0,0.0,407.0,626.0,1.0,0,-963.0,0
1185,1185,-0.10806870372408717,-0.1,0.0,1.0,426.0,807.0,0.0,1,-1223.0,0
1186,1186,0.7395959471714558,0.7,0.0,0.0,384.0,557.0,0.0,1,2059.0,1
1187,1187,-0.5946618164181117,-0.6,0.0,1.0,416.0,749.0,0.0,1,1835.0,0
1188,1188,0.5277272252945352,0.5,0.0,0.0,350.0,518.0,0.0,1,2132.0,1
1189,1189,-0.6169642891324403,-0.6,0.0,1.0,331.0,853.0,0.0,1,1816.0,0
1190,1190,-0.749961876157094,-0.7,1.0,0.0,452.0,619.0,0.0,0,1929.0,1
1191,1191,-0.014666266152836172,-0.0,0.0,1.0,491.0,842.0,0.0,1,1667.0,0
1192,1192,0.49304566270300587,0.5,1.0,1.0,357.0,553.0,0.0,0,-890.0,0
1193,1193,-0.09142295674945744,-0.1,1.0,0.0,493.0,750.0,0.0,0,1757.0,1
1194,1194,0.25752103488821276,0.3,0.0,0.0,434.0,855.0,0.0,1,1711.0,1
1195,1195,-0.8908722832995198,-0.9,1.0,0.0,336.0,655.0,0.0,0,2009.0,1
1196,1196,-0.6683670184016204,-0.7,1.0,0.0,352.0,909.0,0.0,0,1739.0,1
1197,1197,-0.7268149910193905,-0.7,1.0,0.0,498.0,875.0,0.0,0,1627.0,1
1198,1198,-0.05010007751217793,-0.1,1.0,0.0,487.0,804.0,0.0,0,1709.0,1
1199,1199,-0.015237892714926704,-0.0,0.0,1.0,269.0,966.0,0.0,1,1765.0,0
1200,1200,-0.011145233275528188,-0.0,0.0,1.0,449.0,974.0,0.0,1,1577.0,0
1201,1201,0.38981378407553013,0.4,1.0,1.0,260.0,689.0,0.0,0,2051.0,0
1202,1202,-0.008001550484668662,-0.0,1.0,0.0,283.0,800.0,1.0,1,-1003.0,0
1203,1203,0.35819118399324024,0.4,0.0,0.0,393.0,635.0,0.0,1,1972.0,1
1204,1204,0.5963333252720581,0.6,1.0,1.0,285.0,841.0,0.0,0,1874.0,0
1205,1205,-0.16945114567678887,-0.2,0.0,1.0,271.0,790.0,0.0,1,1939.0,0
1206,1206,-0.5060967742889448,-0.5,1.0,0.0,296.0,645.0,0.0,0,2059.0,1
1207,1207,-0.6703194482071153,-0.7,0.0,1.0,430.0,518.0,0.0,1,2052.0,0
1208,1208,0.42955621167257874,0.4,0.0,0.0,413.0,678.0,0.0,1,1909.0,1
1209,1209,-0.578634594679097,-0.6,1.0,0.0,331.0,909.0,0.0,0,1760.0,1
1210,1210,-0.05539667078865862,-0.1,1.0,0.0,250.0,967.0,0.0,0,1783.0,1
1211,1211,0.6717598955925678,0.7,1.0,1.0,424.0,551.0,0.0,0,2025.0,0
1212,1212,0.6943183062658894,0.7,0.0,0.0,473.0,501.0,0.0,1,2026.0,1
1213,1213,0.334046192646101,0.3,1.0,1.0,259.0,749.0,0.0,0,1992.0,0
1214,1214,-0.346130358124519,-0.3,0.0,1.0,495.0,664.0,0.0,1,-1059.0,0
1215,1215,-0.07739133084320782,-0.1,1.0,0.0,304.0,702.0,1.0,1,-946.0,0
1216,1216,0.24308738795518348,0.2,0.0,0.0,273.0,941.0,0.0,1,1786.0,1
1217,1217,0.8040039345904001,0.8,1.0,1.0,283.0,727.0,0.0,0,1990.0,0
1218,1218,-0.5618509409170585,-0.6,0.0,1.0,367.0,742.0,0.0,1,1891.0,0
1219,1219,-0.023706778288419383,-0.0,0.0,1.0,396.0,853.0,0.0,1,1751.0,0
1220,1220,-0.0829382726547645,-0.1,0.0,1.0,466.0,956.0,0.0,1,1578.0,0
1221,1221,-0.4217627172826821,-0.4,1.0,0.0,394.0,958.0,0.0,0,1648.0,1
1222,1222,0.8871208153316491,0.9,1.0,1.0,486.0,895.0,0.0,0,-1331.0,0
1223,1223,0.08593556090600463,0.1,1.0,1.0,277.0,503.0,0.0,0,2220.0,0
1224,1224,-0.4689331002713014,-0.5,0.0,1.0,346.0,560.0,0.0,1,2094.0,0
1225,1225,-0.17163566684264264,-0.2,1.0,0.0,446.0,813.0,0.0,0,1741.0,1
1226,1226,0.4462183522027977,0.4,1.0,1.0,430.0,640.0,0.0,0,1930.0,0
1227,1227,-0.4122121294835525,-0.4,0.0,1.0,346.0,709.0,0.0,1,-885.0,0
1228,1228,0.8308254441500157,0.8,1.0,1.0,383.0,978.0,0.0,0,1639.0,0
1229,1229,0.7086001432167245,0.7,1.0,1.0,430.0,573.0,0.0,0,1997.0,0
1230,1230,0.717903393776541,0.7,0.0,0.0,262.0,947.0,0.0,1,1791.0,1
1231,1231,0.06984043579608612,0.1,0.0,0.0,495.0,680.0,0.0,1,1825.0,1
1232,1232,0.26620260561188946,0.3,1.0,1.0,366.0,506.0,0.0,0,-682.0,0
1233,1233,0.7103206264494536,0.7,1.0,1.0,342.0,628.0,0.0,0,2030.0,0
1234,1234,-0.7860082956929866,-0.8,0.0,1.0,268.0,607.0,0.0,1,2125.0,0
1235,1235,0.3362194672595008,0.3,1.0,1.0,382.0,694.0,0.0,0,1924.0,0
1236,1236,-0.06077591989888209,-0.1,1.0,0.0,272.0,875.0,0.0,0,1853.0,1
1237,1237,0.08696604032954869,0.1,1.0,1.0,380.0,848.0,0.0,0,1772.0,0
1238,1238,-0.877993632080307,-0.9,1.0,0.0,292.0,991.0,1.0,1,-1103.0,0
1239,1239,0.878917514641301,0.9,0.0,0.0,374.0,866.0,0.0,1,1760.0,1
1240,1240,0.7375590492540539,0.7,1.0,1.0,333.0,808.0,0.0,0,1859.0,0
1241,1241,0.07314475366598183,0.1,0.0,0.0,254.0,778.0,0.0,1,1968.0,1
1242,1242,-0.3370955241401107,-0.3,1.0,0.0,493.0,579.0,0.0,0,1928.0,1
1243,1243,-0.722478791931047,-0.7,0.0,1.0,390.0,662.0,0.0,1,1948.0,0
1244,1244,-0.6632226690954366,-0.7,1.0,0.0,446.0,701.0,0.0,0,1853.0,1
1245,1245,0.4580388186017291,0.5,0.0,0.0,477.0,687.0,0.0,1,1836.0,1
1246,1246,0.06652989867353543,0.1,0.0,0.0,341.0,799.0,0.0,1,1860.0,1
1247,1247,-0.3754042431409709,-0.4,1.0,0.0,292.0,668.0,0.0,0,2040.0,1
1248,1248,0.7700142104271704,0.8,1.0,1.0,341.0,552.0,0.0,0,2107.0,0
1249,1249,0.27222815860268834,0.3,0.0,0.0,486.0,928.0,0.0,1,1586.0,1
1250,1250,-0.522799008950838,-0.5,1.0,0.0,265.0,861.0,0.0,0,1874.0,1
1251,1251,-0.12025306498898858,-0.1,0.0,1.0,355.0,517.0,0.0,1,2128.0,0
1252,1252,0.6455882304643624,0.6,1.0,1.0,277.0,846.0,0.0,0,1877.0,0
1253,1253,0.8400200402922103,0.8,1.0,1.0,479.0,532.0,0.0,0,1989.0,0
1254,1254,-0.1745758107467129,-0.2,0.0,1.0,322.0,577.0,0.0,1,2101.0,0
1255,1255,-0.5703351923787441,-0.6,1.0,0.0,388.0,700.0,0.0,0,1912.0,1
1256,1256,0.8600105547917506,0.9,0.0,0.0,399.0,773.0,0.0,1,1828.0,1
1257,1257,0.5605414463781261,0.6,1.0,1.0,265.0,898.0,0.0,0,1837.0,0
1258,1258,-0.7049345126939461,-0.7,0.0,1.0,291.0,718.0,0.0,1,-919.0,0
1259,1259,-0.10965744577737002,-0.1,0.0,1.0,476.0,908.0,0.0,1,1616.0,0
1260,1260,-0.3245016428620937,-0.3,1.0,0.0,311.0,747.0,0.0,0,1942.0,1
1261,1261,-0.2628512005612126,-0.3,0.0,1.0,322.0,687.0,0.0,1,1991.0,0
1262,1262,0.1282289986079156,0.1,0.0,0.0,403.0,937.0,1.0,0,-1240.0,0
1263,1263,0.13242510347633807,0.1,0.0,0.0,416.0,855.0,0.0,1,1729.0,1
1264,1264,-0.30409171204851226,-0.3,0.0,1.0,481.0,789.0,0.0,1,1730.0,0
1265,1265,0.7094061185681021,0.7,0.0,0.0,463.0,523.0,0.0,1,2014.0,1
1266,1266,-0.5931793630739077,-0.6,0.0,1.0,389.0,560.0,0.0,1,2051.0,0
1267,1267,-0.7983243106524354,-0.8,0.0,1.0,457.0,987.0,0.0,1,1556.0,0
1268,1268,0.14372792263813794,0.1,0.0,0.0,386.0,708.0,0.0,1,1906.0,1
1269,1269,-0.26952603844191714,-0.3,1.0,0.0,488.0,938.0,0.0,0,1574.0,1
1270,1270,-0.2922249183664043,-0.3,1.0,0.0,339.0,895.0,1.0,1,-1144.0,0
1271,1271,0.4667102649222753,0.5,0.0,0.0,393.0,633.0,1.0,0,-786.0,0
1272,1272,-0.720436662865479,-0.7,1.0,0.0,278.0,984.0,0.0,0,1738.0,1
1273,1273,0.4650019123638077,0.5,1.0,1.0,490.0,841.0,0.0,0,1669.0,0
1274,1274,-0.42702721309035974,-0.4,1.0,0.0,389.0,704.0,1.0,1,-1033.0,0
1275,1275,0.7896138773830398,0.8,0.0,0.0,295.0,618.0,1.0,0,-733.0,0
1276,1276,0.338749038794648,0.3,0.0,0.0,340.0,536.0,0.0,1,2124.0,1
1277,1277,0.5055730831266684,0.5,1.0,1.0,324.0,916.0,0.0,0,1760.0,0
1278,1278,0.19271517310498487,0.2,1.0,1.0,257.0,609.0,0.0,0,2134.0,0
1279,1279,0.1566996832502513,0.2,1.0,1.0,372.0,926.0,0.0,0,1702.0,0
1280,1280,-0.0497710860026751,-0.0,1.0,0.0,487.0,626.0,0.0,0,1887.0,1
1281,1281,0.5707308655252216,0.6,0.0,0.0,271.0,903.0,0.0,1,1826.0,1
1282,1282,0.7787710196166965,0.8,0.0,0.0,480.0,748.0,0.0,1,1772.0,1
1283,1283,-0.15021119379200387,-0.2,0.0,1.0,252.0,644.0,0.0,1,2104.0,0
1284,1284,-0.11884977535057262,-0.1,0.0,1.0,383.0,560.0,0.0,1,2057.0,0
1285,1285,-0.3439504577988214,-0.3,1.0,0.0,382.0,508.0,0.0,0,2110.0,1
1286,1286,-0.8597866475201666,-0.9,0.0,1.0,344.0,877.0,0.0,1,-1211.0,0
1287,1287,-0.2706346209772187,-0.3,0.0,1.0,406.0,524.0,0.0,1,2070.0,0
1288,1288,0.32320357903951724,0.3,0.0,0.0,319.0,877.0,0.0,1,1804.0,1
1289,1289,0.8863071071829155,0.9,0.0,0.0,373.0,842.0,0.0,1,1785.0,1
1290,1290,0.12358693089878325,0.1,1.0,1.0,385.0,983.0,0.0,0,1632.0,0
1291,1291,-0.008550086427316361,-0.0,0.0,1.0,404.0,769.0,0.0,1,1827.0,0
1292,1292,-0.4442055295769331,-0.4,1.0,0.0,489.0,630.0,0.0,0,1881.0,1
1293,1293,0.44481742097257515,0.4,1.0,1.0,440.0,951.0,0.0,0,1609.0,0
1294,1294,0.5568211869738419,0.6,1.0,1.0,405.0,612.0,0.0,0,1983.0,0
1295,1295,-0.381914791205362,-0.4,1.0,0.0,268.0,550.0,0.0,0,2182.0,1
1296,1296,-0.3783423251739114,-0.4,0.0,1.0,340.0,839.0,0.0,1,1821.0,0
1297,1297,-0.7993053142287194,-0.8,1.0,0.0,260.0,912.0,0.0,0,1828.0,1
1298,1298,0.822220327386257,0.8,1.0,1.0,438.0,563.0,0.0,0,1999.0,0
1299,1299,0.3441544809268934,0.3,0.0,0.0,326.0,516.0,1.0,0,-802.0,0
1300,1300,-0.14982949753670438,-0.1,0.0,1.0,274.0,705.0,1.0,0,-949.0,1
1301,1301,0.26214098049323364,0.3,0.0,0.0,384.0,664.0,0.0,1,1952.0,1
1302,1302,0.5773264138751885,0.6,1.0,1.0,462.0,924.0,0.0,0,1614.0,0
1303,1303,-0.617627538972152,-0.6,0.0,1.0,340.0,609.0,0.0,1,2051.0,0
1304,1304,-0.8193930011028793,-0.8,1.0,0.0,334.0,698.0,0.0,0,-972.0,1
1305,1305,-0.6197576765877626,-0.6,0.0,1.0,292.0,680.0,0.0,1,2028.0,0
1306,1306,-0.6122212591771714,-0.6,1.0,0.0,256.0,925.0,0.0,0,1819.0,1
1307,1307,0.41510277653416383,0.4,0.0,0.0,408.0,873.0,1.0,0,-1161.0,0
1308,1308,-0.24713368010153902,-0.2,0.0,1.0,322.0,661.0,0.0,1,2017.0,0
1309,1309,0.33204284217208146,0.3,1.0,1.0,289.0,589.0,0.0,0,-878.0,0
1310,1310,0.035066475146526055,0.0,1.0,1.0,265.0,942.0,0.0,0,1793.0,0
1311,1311,-0.6115237908097044,-0.6,0.0,1.0,481.0,664.0,0.0,1,1855.0,0
1312,1312,-0.054779068056351465,-0.1,1.0,0.0,445.0,688.0,0.0,0,1867.0,1
1313,1313,0.4520356239497695,0.5,1.0,1.0,330.0,647.0,0.0,0,2023.0,0
1314,1314,0.6303905511310751,0.6,1.0,1.0,328.0,990.0,0.0,0,1682.0,0
1315,1315,0.44953086003425635,0.4,0.0,0.0,452.0,900.0,0.0,1,1648.0,1
1316,1316,-0.683125633484901,-0.7,0.0,1.0,372.0,962.0,0.0,1,1666.0,0
1317,1317,0.8820403309081989,0.9,1.0,1.0,445.0,634.0,0.0,0,1921.0,0
1318,1318,0.6264870087622455,0.6,0.0,0.0,305.0,687.0,0.0,1,-972.0,1
1319,1319,-0.15284227615513668,-0.2,1.0,0.0,279.0,867.0,0.0,0,1854.0,1
1320,1320,-0.34227188536415987,-0.3,0.0,1.0,470.0,816.0,0.0,1,-1176.0,0
1321,1321,0.06162428408198817,0.1,1.0,1.0,303.0,618.0,0.0,0,2079.0,0
1322,1322,-0.5861153752850077,-0.6,1.0,0.0,420.0,558.0,0.0,0,2022.0,1
1323,1323,-0.16356522022236575,-0.2,0.0,1.0,466.0,752.0,0.0,1,1782.0,0
1324,1324,-0.2086360903169454,-0.2,1.0,0.0,324.0,668.0,0.0,0,2008.0,1
1325,1325,-0.07063979186238645,-0.1,1.0,0.0,427.0,760.0,0.0,0,1813.0,1
1326,1326,0.04686684574312161,0.0,1.0,1.0,272.0,876.0,0.0,0,1852.0,0
1327,1327,0.2142228017959903,0.2,1.0,1.0,421.0,542.0,0.0,0,2037.0,0
1328,1328,0.3556051321652526,0.4,0.0,0.0,470.0,877.0,1.0,0,-1207.0,0
1329,1329,0.026695991148784848,0.0,0.0,0.0,392.0,552.0,0.0,1,2056.0,1
1330,1330,0.8232335969158447,0.8,1.0,1.0,499.0,708.0,0.0,0,1793.0,0
1331,1331,-0.5633079330226409,-0.6,0.0,1.0,416.0,555.0,0.0,1,2029.0,0
1332,1332,0.21997394505130086,0.2,1.0,1.0,477.0,505.0,0.0,0,2018.0,0
1333,1333,-0.7542481415135707,-0.8,1.0,0.0,263.0,672.0,0.0,0,2065.0,1
1334,1334,-0.5761167666873603,-0.6,1.0,0.0,349.0,622.0,1.0,1,-851.0,0
1335,1335,-0.10776155462978743,-0.1,0.0,1.0,357.0,866.0,0.0,1,1777.0,0
1336,1336,0.09969478844845514,0.1,1.0,1.0,368.0,599.0,0.0,0,2033.0,0
1337,1337,-0.2387781956518964,-0.2,0.0,1.0,375.0,985.0,0.0,1,1640.0,0
1338,1338,-0.06948373756293325,-0.1,0.0,1.0,435.0,706.0,0.0,1,1859.0,0
1339,1339,0.667709444414952,0.7,0.0,0.0,425.0,798.0,1.0,0,-1203.0,0
1340,1340,-0.7650992632142382,-0.8,1.0,0.0,439.0,505.0,0.0,0,2056.0,1
1341,1341,-0.8051059361533691,-0.8,0.0,1.0,276.0,576.0,0.0,1,2148.0,0
1342,1342,-0.46470798291407295,-0.5,1.0,0.0,307.0,917.0,0.0,0,1776.0,1
1343,1343,-0.8828097702575617,-0.9,1.0,0.0,469.0,697.0,0.0,0,1834.0,1
1344,1344,0.22125114473917307,0.2,0.0,0.0,298.0,716.0,0.0,1,1986.0,1
1345,1345,0.2524655482256698,0.3,1.0,1.0,374.0,829.0,0.0,0,1797.0,0
1346,1346,-0.7974353698529503,-0.8,0.0,1.0,355.0,723.0,0.0,1,1922.0,0
1347,1347,0.7062231249027126,0.7,1.0,1.0,474.0,963.0,0.0,0,1563.0,0
1348,1348,-0.2209357195157753,-0.2,1.0,0.0,476.0,996.0,0.0,0,1528.0,1
1349,1349,0.04312977645249105,0.0,1.0,1.0,311.0,722.0,0.0,0,1967.0,0
1350,1350,-0.48769505900199006,-0.5,0.0,1.0,499.0,524.0,0.0,1,-983.0,0
1351,1351,0.8713317986655394,0.9,0.0,0.0,447.0,697.0,0.0,1,1856.0,1
1352,1352,-0.16262217645689792,-0.2,1.0,0.0,338.0,894.0,0.0,0,1768.0,1
1353,1353,0.4857032780990599,0.5,0.0,0.0,421.0,607.0,0.0,1,1972.0,1
1354,1354,0.4339367387921239,0.4,0.0,0.0,311.0,938.0,0.0,1,1751.0,1
1355,1355,-0.5285576555989948,-0.5,1.0,0.0,480.0,616.0,0.0,0,1904.0,1
1356,1356,0.44833543505472806,0.4,1.0,1.0,350.0,854.0,0.0,0,1796.0,0
1357,1357,0.8182426734877678,0.8,0.0,0.0,287.0,679.0,0.0,1,2034.0,1
1358,1358,-0.4676686129477614,-0.5,0.0,1.0,339.0,784.0,0.0,1,-1083.0,0
1359,1359,-0.0740334003372386,-0.1,0.0,1.0,257.0,582.0,0.0,1,2161.0,0
1360,1360,0.029755661381549836,0.0,1.0,1.0,406.0,992.0,0.0,0,1602.0,0
1361,1361,-0.3188182173043108,-0.3,0.0,1.0,357.0,659.0,0.0,1,1984.0,0
1362,1362,0.3497753285984583,0.3,0.0,0.0,273.0,653.0,0.0,1,-906.0,1
1363,1363,-0.5942632084778503,-0.6,0.0,1.0,381.0,725.0,0.0,1,-1096.0,0
1364,1364,-0.18518254886797558,-0.2,1.0,0.0,486.0,732.0,0.0,0,1782.0,1
1365,1365,0.44644071138509134,0.4,0.0,0.0,290.0,966.0,0.0,1,1744.0,1
1366,1366,0.7277915998639887,0.7,0.0,0.0,478.0,516.0,0.0,1,2006.0,1
1367,1367,-0.3643499495941759,-0.4,1.0,0.0,461.0,815.0,0.0,0,1724.0,1
1368,1368,-0.15060625491804613,-0.2,1.0,0.0,407.0,737.0,0.0,0,1856.0,1
1369,1369,-0.7946642916231205,-0.8,0.0,1.0,268.0,590.0,0.0,1,2142.0,0
1370,1370,0.12239190450020698,0.1,1.0,1.0,354.0,829.0,0.0,0,1817.0,0
1371,1371,0.5426217178135461,0.5,1.0,1.0,416.0,640.0,1.0,1,-956.0,1
1372,1372,-0.2914258353790332,-0.3,1.0,0.0,397.0,840.0,0.0,0,1763.0,1
1373,1373,-0.40413062593702825,-0.4,0.0,1.0,283.0,755.0,0.0,1,1962.0,0
1374,1374,0.797304153888622,0.8,0.0,0.0,272.0,868.0,0.0,1,-1090.0,1
1375,1375,0.29291447603140697,0.3,0.0,0.0,355.0,936.0,0.0,1,1709.0,1
1376,1376,-0.07173648082842465,-0.1,0.0,1.0,327.0,724.0,0.0,1,1949.0,0
1377,1377,-0.2990182490584755,-0.3,1.0,0.0,290.0,665.0,0.0,0,2045.0,1
1378,1378,0.0022328332582308708,0.0,1.0,1.0,362.0,820.0,1.0,1,-1122.0,1
1379,1379,-0.16170476414280122,-0.2,0.0,1.0,497.0,724.0,1.0,0,-1171.0,1
1380,1380,-0.13662691465830923,-0.1,0.0,1.0,444.0,538.0,0.0,1,2018.0,0
1381,1381,-0.4796387085107266,-0.5,1.0,0.0,480.0,885.0,0.0,0,1635.0,1
1382,1382,0.48137728284748704,0.5,0.0,0.0,304.0,768.0,0.0,1,1928.0,1
1383,1383,0.2831587318774108,0.3,1.0,1.0,352.0,921.0,0.0,0,1727.0,0
1384,1384,0.3792897644191483,0.4,0.0,0.0,496.0,566.0,0.0,1,1938.0,1
1385,1385,0.178630001738726,0.2,1.0,1.0,276.0,737.0,0.0,0,1987.0,0
1386,1386,-0.6625969787965604,-0.7,1.0,0.0,448.0,667.0,0.0,0,1885.0,1
1387,1387,-0.7025807649176863,-0.7,0.0,1.0,330.0,845.0,0.0,1,1825.0,0
1388,1388,0.36020520763147934,0.4,1.0,1.0,406.0,704.0,0.0,0,1890.0,0
1389,1389,-0.800430141098347,-0.8,0.0,1.0,491.0,714.0,0.0,1,1795.0,0
1390,1390,0.8878464868488035,0.9,0.0,0.0,289.0,995.0,1.0,0,-1094.0,0
1391,1391,-0.11734607335664837,-0.1,0.0,1.0,364.0,658.0,0.0,1,1978.0,0
1392,1392,0.6289235324872872,0.6,1.0,1.0,371.0,627.0,1.0,1,-908.0,1
1393,1393,-0.09912053648951724,-0.1,1.0,0.0,344.0,954.0,0.0,0,1702.0,1
1394,1394,0.8260986089575656,0.8,0.0,0.0,285.0,920.0,0.0,1,1795.0,1
1395,1395,0.4446201046541326,0.4,0.0,0.0,486.0,962.0,0.0,1,1552.0,1
1396,1396,-0.8801293274221118,-0.9,1.0,0.0,345.0,627.0,0.0,0,2028.0,1
1397,1397,-0.5759454236910013,-0.6,0.0,1.0,273.0,655.0,0.0,1,2072.0,0
1398,1398,-0.04609215208564066,-0.0,1.0,0.0,406.0,667.0,0.0,0,1927.0,1
1399,1399,0.06658486601347846,0.1,1.0,1.0,486.0,695.0,0.0,0,1819.0,0
1400,1400,-0.7427665065718566,-0.7,1.0,0.0,383.0,775.0,1.0,1,-1048.0,0
1401,1401,-0.688188751472606,-0.7,0.0,1.0,348.0,909.0,0.0,1,1743.0,0
1402,1402,0.8432630339841792,0.8,0.0,0.0,423.0,819.0,0.0,1,1758.0,1
1403,1403,0.2700471810949928,0.3,0.0,0.0,479.0,642.0,0.0,1,1879.0,1
1404,1404,-0.01382600087704644,-0.0,1.0,0.0,404.0,964.0,0.0,0,1632.0,1
1405,1405,0.7016340313571704,0.7,0.0,0.0,346.0,846.0,0.0,1,1808.0,1
1406,1406,-0.754236409565664,-0.8,1.0,0.0,498.0,788.0,0.0,0,1714.0,1
1407,1407,0.22571284679283543,0.2,0.0,0.0,334.0,775.0,1.0,0,-809.0,0
1408,1408,-0.1881109078594162,-0.2,1.0,0.0,250.0,836.0,0.0,0,1914.0,1
1409,1409,0.1723184179067917,0.2,1.0,1.0,434.0,829.0,1.0,1,-1073.0,1
1410,1410,0.5043427277102587,0.5,1.0,1.0,479.0,596.0,0.0,0,1925.0,0
1411,1411,-0.11270881871834604,-0.1,0.0,1.0,289.0,923.0,0.0,1,1788.0,0
1412,1412,0.24069152873024036,0.2,0.0,0.0,473.0,753.0,0.0,1,1774.0,1
1413,1413,-0.7471451179733939,-0.7,0.0,1.0,316.0,591.0,0.0,1,2093.0,0
1414,1414,-0.23375788028651434,-0.2,0.0,1.0,460.0,502.0,0.0,1,2038.0,0
1415,1415,-0.707520673739747,-0.7,1.0,0.0,455.0,991.0,0.0,0,1554.0,1
1416,1416,-0.5147875348273985,-0.5,0.0,1.0,428.0,633.0,0.0,1,1939.0,0
1417,1417,0.14747644755676703,0.1,1.0,1.0,414.0,659.0,1.0,1,-1013.0,1
1418,1418,0.7077901305591213,0.7,1.0,1.0,312.0,713.0,0.0,0,1975.0,0
1419,1419,0.6402693985958453,0.6,0.0,0.0,475.0,547.0,0.0,1,1978.0,1
1420,1420,-0.8235385233688943,-0.8,0.0,1.0,299.0,898.0,0.0,1,1803.0,0
1421,1421,-0.005693365030743913,-0.0,0.0,1.0,347.0,903.0,0.0,1,1750.0,0
1422,1422,0.2073975217621814,0.2,1.0,1.0,462.0,528.0,0.0,0,2010.0,0
1423,1423,0.2959076988440438,0.3,1.0,1.0,338.0,991.0,0.0,0,1671.0,0
1424,1424,-0.42228734045294036,-0.4,0.0,1.0,401.0,740.0,0.0,1,1859.0,0
1425,1425,-0.5322031008048251,-0.5,0.0,1.0,394.0,857.0,1.0,0,-1071.0,1
1426,1426,0.3779682717179028,0.4,1.0,1.0,414.0,517.0,1.0,1,-901.0,1
1427,1427,0.09798350215563012,0.1,1.0,1.0,437.0,686.0,0.0,0,1877.0,0
1428,1428,0.7776211697690832,0.8,1.0,1.0,288.0,930.0,0.0,0,1782.0,0
1429,1429,0.7947574397668272,0.8,0.0,0.0,391.0,596.0,0.0,1,2013.0,1
1430,1430,0.031627684495066144,0.0,1.0,1.0,379.0,766.0,0.0,0,1855.0,0
1431,1431,0.8431652355333265,0.8,1.0,1.0,429.0,884.0,0.0,0,1687.0,0
1432,1432,0.8519400172090849,0.9,1.0,1.0,257.0,536.0,0.0,0,2207.0,0
1433,1433,0.150189366184606,0.2,0.0,0.0,491.0,956.0,0.0,1,1553.0,1
1434,1434,-0.3733668026632536,-0.4,1.0,0.0,341.0,796.0,0.0,0,1863.0,1
1435,1435,-0.21198735952530678,-0.2,0.0,1.0,448.0,716.0,0.0,1,1836.0,0
1436,1436,0.7853242734405926,0.8,0.0,0.0,401.0,584.0,0.0,1,2015.0,1
1437,1437,-0.5598651007957207,-0.6,0.0,1.0,374.0,671.0,0.0,1,1955.0,0
1438,1438,0.4497948672865525,0.4,0.0,0.0,495.0,597.0,0.0,1,1908.0,1
1439,1439,0.11433212719413899,0.1,0.0,0.0,342.0,643.0,0.0,1,2015.0,1
1440,1440,-0.439992891179708,-0.4,1.0,0.0,491.0,792.0,1.0,1,-1133.0,0
1441,1441,0.8264305102605182,0.8,1.0,1.0,288.0,784.0,0.0,0,1928.0,0
1442,1442,0.6711326137838648,0.7,0.0,0.0,347.0,705.0,0.0,1,1948.0,1
1443,1443,-0.23304418656895343,-0.2,0.0,1.0,437.0,530.0,0.0,1,2033.0,0
1444,1444,-0.27352375823699493,-0.3,0.0,1.0,335.0,679.0,0.0,1,1986.0,0
1445,1445,-0.08567393620018005,-0.1,0.0,1.0,484.0,691.0,0.0,1,1825.0,0
1446,1446,-0.04612673610966389,-0.0,1.0,0.0,255.0,970.0,0.0,0,1775.0,1
1447,1447,-0.6665510714231836,-0.7,1.0,0.0,404.0,982.0,0.0,0,1614.0,1
1448,1448,0.08748546957750747,0.1,1.0,1.0,405.0,721.0,0.0,0,1874.0,0
1449,1449,-0.8471609415921918,-0.8,0.0,1.0,438.0,696.0,0.0,1,1866.0,0
1450,1450,-0.1700781982689752,-0.2,1.0,0.0,330.0,600.0,0.0,0,2070.0,1
1451,1451,0.7120968492418066,0.7,1.0,1.0,436.0,949.0,0.0,0,1615.0,0
1452,1452,-0.5457741361167243,-0.5,1.0,0.0,370.0,769.0,0.0,0,1861.0,1
1453,1453,0.6037938599416476,0.6,1.0,1.0,320.0,969.0,0.0,0,1711.0,0
1454,1454,0.12324002715901916,0.1,1.0,1.0,293.0,905.0,0.0,0,1802.0,0
1455,1455,0.898278551889932,0.9,1.0,1.0,358.0,714.0,0.0,0,1928.0,0
1456,1456,-0.13334889544721862,-0.1,0.0,1.0,448.0,590.0,0.0,1,1962.0,0
1457,1457,-0.7096813125732855,-0.7,1.0,0.0,399.0,520.0,1.0,1,-859.0,0
1458,1458,0.11277369309593566,0.1,0.0,0.0,278.0,880.0,0.0,1,1842.0,1
1459,1459,-0.8436374850761459,-0.8,1.0,0.0,418.0,797.0,0.0,0,1785.0,1
1460,1460,-0.23885348041107013,-0.2,1.0,0.0,475.0,922.0,0.0,0,1603.0,1
1461,1461,0.8510051074391521,0.9,0.0,0.0,262.0,823.0,0.0,1,1915.0,1
1462,1462,0.31036026966407515,0.3,1.0,1.0,354.0,588.0,0.0,0,-922.0,0
1463,1463,0.20001624459099643,0.2,0.0,0.0,383.0,891.0,0.0,1,1726.0,1
1464,1464,-0.5525489398927925,-0.6,0.0,1.0,451.0,968.0,0.0,1,1581.0,0
1465,1465,-0.8435709237407579,-0.8,0.0,1.0,327.0,576.0,0.0,1,2097.0,0
1466,1466,-0.841897763638305,-0.8,1.0,0.0,371.0,751.0,0.0,0,1878.0,1
1467,1467,-0.5378456049809175,-0.5,0.0,1.0,287.0,776.0,0.0,1,1937.0,0
1468,1468,-0.8632221282277004,-0.9,0.0,1.0,281.0,560.0,0.0,1,2159.0,0
1469,1469,-0.2736409180232945,-0.3,0.0,1.0,372.0,632.0,0.0,1,1996.0,0
1470,1470,-0.3033437716877534,-0.3,0.0,1.0,378.0,601.0,0.0,1,-779.0,0
